Time,Acc_X,Acc_Y,Acc_Z,Meg,Gyr_X,Gyr_Y,Gyr_Z,Ore
11:11:21:942,0.4741,1.6232,9.5883,66.8341,0.0531,0.0782,-0.4343,47.9531
11:11:21:962,0.5626,1.6208,9.373,67.0545,0.0702,0.0452,-0.4612,47.9531
11:11:21:983,0.5674,1.6232,9.3897,67.0039,0.0391,0.0147,-0.4759,47.9531
11:11:22:001,0.5339,1.6232,9.6984,66.7906,-0.0122,0.0269,-0.4838,47.9531
11:11:22:020,0.6823,1.6663,9.6625,66.8192,-0.0147,0.055,-0.4771,47.9531
11:11:22:040,0.4884,1.7859,9.6075,66.6825,-0.0116,0.0574,-0.4704,47.9531
11:11:22:059,0.2922,1.7261,9.8518,66.6336,-0.0305,0.0733,-0.441,47.9531
11:11:22:079,0.4286,1.7094,9.8447,66.8246,-0.0232,0.1118,-0.3964,47.9531
11:11:22:099,0.4334,2.0399,9.4615,66.9809,-0.0147,0.1124,-0.3879,47.9531
11:11:22:119,0.1962,2.3797,9.1502,66.7447,-0.0489,0.0764,-0.4148,47.9531
11:11:22:141,0.0024,2.6264,9.1813,66.7076,-0.0965,0.0434,-0.4245,47.9531
11:11:22:160,-0.0646,2.5714,9.1908,66.5671,-0.1344,0.0495,-0.3806,47.9531
11:11:22:179,0.1388,2.3414,9.306,66.4872,-0.168,0.0238,-0.2694,47.9531
11:11:22:199,0.3616,2.0925,9.6266,66.4834,-0.2419,-0.0031,-0.1662,47.9531
11:11:22:219,0.4693,1.9825,10.0002,66.4926,-0.3036,-0.0043,-0.1124,47.9531
11:11:22:240,0.2034,1.9825,10.2921,66.4002,-0.3054,0.0232,-0.1319,47.9531
11:11:22:261,-0.2034,2.0183,10.5748,66.2514,-0.2291,0.0281,-0.1399,47.9531
11:11:22:280,0.1149,2.1356,10.3161,66.3848,-0.0812,-0.055,-0.1075,49
11:11:22:299,0.1651,2.0542,9.9236,66.3376,0.0134,-0.1429,-0.1075,49.9688
11:11:22:320,0.2201,1.9582,9.9141,66.6516,0.0275,-0.2059,-0.1032,50.0781
11:11:22:343,0.3544,1.8888,10.206,66.4787,0.0226,-0.1741,-0.0751,51.0938
11:11:22:361,0.5459,2.0662,10.194,66.2562,0.069,-0.0605,-0.0501,51.0938
11:11:22:380,0.28,2.0088,9.8181,66.2405,0.1209,-0.0116,-0.0629,51.9531
11:11:22:399,0.0766,1.9681,9.5046,66.0198,0.1142,-0.033,-0.0501,51.9688
11:11:22:420,0.0909,1.9801,9.5572,66.1429,0.0067,0.0226,0.0031,52.8906
11:11:22:442,0.1747,1.8147,9.9188,66.105,-0.1197,0.0739,0.0513,52.8906
11:11:22:461,0.3497,1.5634,10.4815,66.0218,-0.1936,0.1301,0.0843,53.5938
11:11:22:481,0.5052,1.4246,10.9146,65.7901,-0.171,0.2462,0.0825,53.5938
11:11:22:502,0.3592,1.4749,10.7782,66.0211,-0.0727,0.3677,0.0202,53.875
11:11:22:522,-0.201,1.4318,10.2419,66.0563,0.025,0.3354,-0.066,53.8906
11:11:22:542,-0.7038,1.1683,10.3184,66.0347,-0.0012,0.0922,-0.0385,54.1406
11:11:22:559,-0.5124,1.0391,10.2754,66.101,0.0171,0.0593,0.0397,54.1562
11:11:22:581,-0.3114,0.9505,9.9978,66.1166,0.0428,0.1173,0.088,54.3906
11:11:22:600,0.0072,0.9864,9.7128,65.884,0.0336,0.182,0.1026,54.5938
11:11:22:619,0.2994,1.1922,9.4041,65.8405,0.0092,0.1521,0.0464,54.6094
11:11:22:644,0.3018,1.4749,9.1023,65.9964,-0.0153,0.0159,-0.0825,54.6094
11:11:22:662,0.0263,1.6161,9.2821,65.631,-0.0751,-0.0892,-0.1973,54.7656
11:11:22:682,-0.1029,1.6567,9.7582,65.6888,-0.1484,-0.0538,-0.2169,54.7656
11:11:22:699,-0.0287,1.6639,9.9452,65.6647,-0.1582,0.0397,-0.1869,54.8125
11:11:22:720,0.1627,1.7261,9.9332,65.8529,-0.1222,0.099,-0.1833,54.5938
11:11:22:746,0.2656,1.7931,9.8181,65.7803,-0.0586,0.0794,-0.2223,43.9375
11:11:22:762,0.201,1.8218,9.5046,65.947,0.0049,-0.0067,-0.2889,43.8438
11:11:22:782,0.1125,1.8458,9.1454,66.097,0.0269,-0.1264,-0.3451,43.6406
11:11:22:800,0.0837,1.7572,9.2749,66.0588,-0.0226,-0.1869,-0.3775,43.7656
11:11:22:821,0.0909,1.7166,9.6601,66.2667,-0.066,-0.1246,-0.3952,43.7656
11:11:22:845,-0.1029,1.6615,9.4352,66.1623,-0.044,0.0134,-0.4184,43.75
11:11:22:863,-0.2827,1.6352,9.0353,66.4179,-0.0702,0.0977,-0.4282,43.75
11:11:22:883,-0.2898,1.5706,9.1454,66.2315,-0.1735,0.0452,-0.4319,43.5156
11:11:22:900,-0.2704,1.5849,9.4759,66.4111,-0.2621,-0.0226,-0.449,43.5
11:11:22:922,-0.4262,1.6089,9.3203,66.4325,-0.2773,-0.0696,-0.4832,43.5156
11:11:22:944,-0.6535,1.628,9.0879,66.2536,-0.2969,-0.1124,-0.5052,43.5156
11:11:22:964,-0.7636,1.6663,9.3562,66.3288,-0.3494,-0.1136,-0.4508,43.9531
11:11:22:984,-0.9553,1.6496,9.5836,66.3929,-0.3066,-0.0654,-0.4013,44
11:11:23:000,-1.0941,1.6256,9.7511,66.4322,-0.2187,-0.0397,-0.336,44.3594
11:11:23:024,-1.0295,1.5969,9.6338,66.3312,-0.1081,-0.088,-0.2645,44.3906
11:11:23:045,-0.821,1.5873,9.4496,66.4551,-0.0312,-0.1674,-0.2004,44.8906
11:11:23:064,-0.7253,1.5754,9.2653,66.0239,-0.0122,-0.204,-0.1649,45.7031
11:11:23:080,-0.7923,1.494,9.3682,65.9997,-0.0409,-0.2065,-0.149,45.7031
11:11:23:099,-0.9577,1.3454,10.1103,66.3012,-0.0831,-0.1698,-0.1155,45.7812
11:11:23:120,-0.9338,1.2066,10.637,66.0872,-0.069,-0.0654,-0.047,46.5938
11:11:23:145,-0.917,1.1133,10.7088,65.8939,-0.0024,0.025,0.0073,46.6719
11:11:23:162,-0.8067,1.1539,11.0632,66.0401,0.0257,0.0556,0.0226,47.5156
11:11:23:182,-0.4286,1.2784,11.6115,65.9378,0.0672,0.0067,0.0018,47.6094
11:11:23:200,-0.1077,1.561,11.3695,65.9577,0.1985,-0.1301,-0.0702,48.625
11:11:23:221,-0.2608,1.7931,11.0249,66.04,0.2963,-0.2975,-0.182,48.6406
11:11:23:246,-0.4573,1.8386,11.3073,66.043,0.2547,-0.3292,-0.2126,49.7188
11:11:23:261,-0.3784,1.6831,11.956,65.6491,0.212,-0.2437,-0.1093,49.7344
11:11:23:282,0.0335,1.3597,11.9728,65.5535,0.2798,-0.1264,0.0538,50.6719
11:11:23:300,0.201,0.9482,11.566,65.4717,0.3518,-0.0568,0.149,51.3438
11:11:23:322,0.6703,0.6655,10.8308,65.3141,0.3164,-0.0226,0.204,51.3438
11:11:23:344,1.2616,0.6751,10.9555,65.2386,0.2309,-0.0281,0.2101,51.7656
11:11:23:364,1.3358,0.632,10.3759,64.9849,0.1942,0.1142,0.1539,51.7656
11:11:23:383,1.2114,0.6942,9.9835,65.0177,0.1497,0.2199,0.0647,52.0781
11:11:23:399,0.9697,0.9649,9.6673,64.8155,0.0751,0.1527,-0.0421,52.0781
11:11:23:421,0.4741,0.7899,9.5883,64.9996,0.0226,-0.0617,-0.1344,52.125
11:11:23:445,0.5291,0.5865,9.4998,64.9851,-0.0208,-0.1118,-0.0953,52.125
11:11:23:463,0.364,0.577,9.1597,64.9852,-0.0861,0.0165,-0.0794,52.1094
11:11:23:485,-0.2752,0.498,10.0409,64.945,-0.2932,0.0965,0.1295,52.0938
11:11:23:508,-0.1292,0.5195,10.285,64.8338,-0.2492,0.1442,0.3433,52.3906
11:11:23:526,0.0957,0.5363,9.9667,64.725,-0.0696,0.1704,0.4569,52.4062
11:11:23:546,0.4454,0.7349,9.3873,64.5049,0.1118,0.2651,0.5009,52.7812
11:11:23:566,0.6823,0.9434,9.0473,64.3927,0.2065,0.3818,0.4783,52.6406
11:11:23:580,0.6224,0.9769,9.2004,64.0903,0.3121,0.3494,0.4068,52.6406
11:11:23:602,0.4358,1.0965,9.3227,64.0529,0.4471,0.3054,0.3225,52.6094
11:11:23:619,0.0096,1.1396,8.8199,64.0032,0.5046,0.3806,0.27,52.2031
11:11:23:640,0.2728,1.2688,8.511,63.9818,0.4685,0.3268,0.2676,52.1719
11:11:23:663,0.821,1.3884,8.5732,64.053,0.3311,0.2315,0.1997,51.9219
11:11:23:682,1.209,1.5395,8.42,64.0246,0.193,0.2217,-0.0073,51.8906
11:11:23:699,1.0654,1.8194,8.5397,64.3406,0.1191,0.124,-0.3109,52.0625
11:11:23:787,0.3592,2.083,8.432,64.2755,0.1032,0.0391,-0.5913,52.0625
11:11:23:787,-0.5794,2.1165,8.511,64.3482,0.0788,-0.0605,-0.6982,52.2656
11:11:23:788,-1.0152,2.2672,8.9372,64.4259,0.022,-0.0916,-0.5711,52.2812
11:11:23:788,-0.778,2.2887,9.3395,64.5323,-0.011,0.0128,-0.3292,52.1875
11:11:23:799,0.0191,2.3581,9.3634,64.2982,0.0159,0.1472,-0.1252,51.2812
11:11:23:820,0.4669,2.3533,9.1167,64.2783,0.0257,0.2223,-0.1173,51.2812
11:11:23:842,0.2922,2.3151,9.0688,64.5107,-0.0996,0.212,-0.2449,50.1406
11:11:23:861,-0.2584,2.1476,9.775,64.4245,-0.35,0.1228,-0.3677,50.1406
11:11:23:880,-0.5411,2.0973,11.1805,64.5961,-0.5968,0.0318,-0.4142,49.2812
11:11:23:899,-0.632,1.9008,12.1741,64.6442,-0.6273,-0.0428,-0.394,49.2812
11:11:23:920,-1.075,1.2664,12.2865,64.6196,-0.452,-0.0586,-0.3451,48.6406
11:11:23:942,-1.2209,0.754,11.9848,64.4902,-0.2798,-0.0104,-0.2602,48.6406
11:11:23:960,-0.7038,0.4908,11.7407,64.6045,-0.1875,0.0415,-0.1686,48.4062
11:11:23:980,-0.5363,0.632,11.7885,64.6352,-0.1985,0.2309,-0.1625,48.3906
11:11:23:999,-1.8051,0.2201,11.7503,64.3616,-0.2682,0.405,-0.2511,49.2656
11:11:24:020,-2.6958,-0.1938,12.1789,64.2656,-0.314,0.2749,-0.2126,49.3594
11:11:24:042,-2.8226,-0.9984,11.98,64.3624,-0.168,-0.0257,0.1393,50.6406
11:11:24:061,-2.3294,-1.4222,11.4389,64.2342,-0.0458,-0.0293,0.3769,50.7656
11:11:24:080,-1.628,-1.5802,10.4336,64.361,0.1289,-0.0238,0.609,51.2188
11:11:24:100,-0.8453,-1.2592,9.0592,64.3367,0.2468,-0.0287,0.7306,51.2656
11:11:24:120,0.1053,-0.687,8.2502,64.0965,0.1967,-0.0886,0.719,51.5781
11:11:24:139,0.9075,-0.0885,7.9986,63.9964,0.0641,-0.1295,0.5773,51.6094
11:11:24:160,1.1803,0.4358,7.8096,63.9941,-0.0293,-0.0745,0.3354,52.3281
11:11:24:179,0.754,0.8907,7.4504,63.9298,-0.0886,0.0269,0.0782,52.4062
11:11:24:200,-0.3305,1.3143,7.3068,63.7104,-0.1393,0.011,-0.099,53.1094
11:11:24:220,-1.7189,1.439,8.2382,63.9033,-0.1814,-0.3274,-0.1014,53.1875
11:11:24:241,-1.2975,1.4844,8.7123,63.6545,-0.1289,-0.766,0.1032,53.6406
11:11:24:260,-0.5746,1.7118,8.5469,63.6036,0.0275,-0.9474,0.2804,53.6406
11:11:24:280,0.297,1.7429,8.0201,63.8246,0.1588,-0.8369,0.3036,54.0156
11:11:24:300,0.7804,2.0375,7.6421,63.7997,0.1894,-0.46,0.226,54.25
11:11:24:320,0.4358,2.1141,7.5604,63.4796,0.1106,0.0067,0.1222,54.25
11:11:24:342,-0.1292,1.9848,7.6205,63.3633,-0.0342,0.234,0.0605,53.6875
11:11:24:361,-0.1986,1.5993,8.2143,63.2269,-0.2602,0.1747,0.0568,53.6875
11:11:24:380,0.4214,1.2616,10.2323,63.1248,-0.4948,-0.0086,0.0513,52.2344
11:11:24:399,0.8931,1.1468,12.4612,63.1218,-0.5058,-0.0177,-0.0843,52.2344
11:11:24:420,1.6161,1.4028,12.7032,63.2848,-0.2278,0.16,-0.3616,50.8438
11:11:24:441,1.4342,1.7261,12.0975,63.3259,0.1362,0.0586,-0.7697,50.8438
11:11:24:460,-0.0239,1.6711,11.4389,63.2217,0.4649,-0.2822,-1.1606,50.4219
11:11:24:481,-1.0965,1.439,10.6083,63.6373,0.474,-0.3054,-1.2455,50.375
11:11:24:499,-1.331,1.3956,11.2929,63.8284,0.2486,-0.1808,-1.0189,50.5781
11:11:24:520,-0.8764,1.7644,12.4708,63.7268,0.157,-0.1228,-0.7355,50.5938
11:11:24:542,-0.2994,1.2281,10.6753,63.384,0.4526,-0.1234,-0.4636,50.3438
11:11:24:563,-0.4789,0.6296,10.8236,63.3186,0.2669,0.1411,-0.2877,50.3125
11:11:24:580,-0.7181,-0.2058,12.0927,63.0105,-0.0397,0.3635,-0.0568,49.8906
11:11:24:600,-0.1053,-0.6535,13.6989,62.9313,-0.2547,0.3421,0.1332,49.8438
11:11:24:620,1.2473,-0.4501,14.3264,62.9816,-0.16,0.2407,0.1399,49.6406
11:11:24:640,1.9319,-0.256,11.9824,62.8028,0.3476,0.3512,-0.0568,49.625
11:11:24:660,1.963,-0.2369,9.0066,62.5145,0.7294,0.5302,-0.3573,49.4844
11:11:24:680,1.9343,-0.1603,7.8191,62.4567,0.595,0.6976,-0.6353,49.4688
11:11:24:699,0.9817,0.134,8.3195,62.3285,0.2169,0.8069,-0.835,49.8906
11:11:24:720,-1.0032,0.2776,8.8343,62.071,-0.0568,0.8472,-0.846,49.9375
11:11:24:747,-1.5299,0.1819,9.2653,61.9472,-0.1991,0.7275,-0.5962,52.0781
11:11:24:760,-1.3717,0.3329,9.7917,61.4922,-0.201,0.7403,-0.3292,52.0938
11:11:24:781,-3.6703,1.2042,9.4639,61.2076,0.0043,0.9132,-0.0092,54.6094
11:11:24:800,-2.3629,0.1268,8.013,61.0084,0.2828,0.5266,0.7257,56.0938
11:11:24:821,-0.7995,1.2162,7.5894,60.9487,0.4111,-0.0733,1.1264,56.0938
11:11:24:840,-1.1731,2.3557,6.6772,60.9006,0.4795,-0.1881,1.0274,56.9219
11:11:24:863,-1.3071,2.2744,6.0619,61.0138,0.3732,-0.1124,0.8057,56.9219
11:11:24:881,-1.0534,2.1188,5.8032,61.0212,0.0825,-0.0244,0.6194,56.7812
11:11:24:901,-0.9314,2.1428,6.239,60.7129,-0.281,-0.0226,0.4294,56.7812
11:11:24:922,-0.8186,1.8242,7.3738,60.9224,-0.5785,-0.0916,0.2865,56.6406
11:11:24:945,-0.6823,1.64,8.6952,61.0695,-0.7727,-0.146,0.2633,56.6406
11:11:24:964,0.3425,2.4419,9.8231,61.1618,-0.8472,-0.0764,0.3237,57.6562
11:11:24:982,1.0893,3.1675,10.4958,61.1669,-0.7709,0.1918,0.2236,57.6562
11:11:25:000,0.4382,3.0643,10.0313,61.2696,-0.5638,0.4227,-0.0764,59.1719
11:11:25:023,-0.1436,2.7341,9.7869,61.3337,-0.2889,0.3091,-0.2743,59.3438
11:11:25:039,-0.5626,2.6767,10.424,61.431,-0.0189,0.0208,-0.2944,60.1094
11:11:25:064,-0.8091,2.7508,11.3216,61.7506,0.2156,-0.1539,-0.2175,60.1875
11:11:25:084,-1.2257,2.5331,11.3815,61.6771,0.4209,0.0531,-0.0757,59.375
11:11:25:099,-1.2377,2.4179,11.4772,61.4107,0.3653,0.1124,-0.08,59.2812
11:11:25:120,-1.5634,2.1906,11.7144,61.2174,0.2621,0.1332,-0.1778,57.25
11:11:25:141,-1.841,1.7357,11.6234,61.0602,0.1613,0.1258,-0.3054,57.0312
11:11:25:163,-2.0495,1.2233,11.8125,61.001,0.0476,0.0147,-0.3744,55.6562
11:11:25:179,-1.7046,0.941,12.3057,60.836,-0.0782,-0.1417,-0.3726,55.5156
11:11:25:199,-1.1563,0.4454,13.0573,61.0313,-0.1411,-0.2944,-0.3879,54.75
11:11:25:219,-1.2162,-0.2297,13.6367,61.0453,-0.0788,-0.3366,-0.4856,54.6719
11:11:25:241,-1.9032,-0.8067,12.9497,61.1528,0.179,-0.1796,-0.5583,53.9844
11:11:25:262,-2.2696,-1.0726,11.1398,61.2798,0.5443,0.025,-0.4832,53.9062
11:11:25:280,-2.1308,-0.8378,9.7391,61.2206,0.8308,-0.0336,-0.3073,53.5781
11:11:25:299,-1.8147,-0.256,8.8487,61.2799,0.9157,-0.2022,-0.1692,54.1562
11:11:25:322,-1.3741,0.1914,8.2932,61.2104,0.7825,-0.3329,-0.1173,54.1562
11:11:25:340,-0.9649,0.4597,8.3052,61.2309,0.4917,-0.4478,-0.1472,54.6094
11:11:25:364,-0.8716,0.5554,8.9539,60.8422,0.1558,-0.5272,-0.2285,54.6094
11:11:25:383,-0.9314,0.4597,9.7415,60.6576,-0.0977,-0.4856,-0.2834,54.8281
11:11:25:399,-0.9218,0.3832,9.871,60.5726,-0.1942,-0.2724,-0.273,54.8281
11:11:25:422,-0.8668,0.4358,9.1214,60.3446,-0.2028,0.0269,-0.212,55.375
11:11:25:445,-0.8477,0.6583,8.3172,60.334,-0.1918,0.1802,-0.1264,55.375
11:11:25:464,-0.8835,0.8812,8.1449,60.1419,-0.149,0.1106,-0.0843,56.2031
11:11:25:482,-0.7851,1.0367,7.7354,59.9428,-0.0446,0.0599,-0.0599,56.2031
11:11:25:500,-0.4932,1.398,7.0531,59.5522,0.0617,0.0373,-0.0202,57.1094
11:11:25:521,-0.2536,1.7501,7.0986,59.8022,0.124,-0.1967,-0.0238,57.2031
11:11:25:544,-0.5554,2.0303,8.1808,59.6617,0.1894,-0.5583,-0.1258,58.3281
11:11:25:565,-1.9247,1.9848,8.6402,59.5274,0.358,-0.4923,-0.292,58.4219
11:11:25:585,-1.8099,2.1308,8.5253,59.3065,0.3121,-0.3983,-0.19,59.0781
11:11:25:600,-1.5514,1.9582,9.0377,59.2733,0.1362,-0.3464,-0.0666,59.1406
11:11:25:619,-2.4323,1.0989,9.4639,59.1653,-0.0788,-0.2443,0.0489,59.5938
11:11:25:640,-2.3868,2.1356,10.9819,59.2646,-0.2285,-0.2737,0.3317,59.6406
11:11:25:662,-1.5538,2.5834,12.0879,59.3076,-0.2407,-0.1356,0.6548,60.2656
11:11:25:681,-0.62,2.5546,11.9704,58.7907,-0.1387,0.1338,0.7801,60.3281
11:11:25:700,-0.0646,2.6671,11.8866,58.8344,-0.0153,0.1344,0.6811,60.8281
11:11:25:720,-0.1029,2.5232,12.1573,58.6234,0.044,-0.0232,0.449,60.875
11:11:25:741,-0.4884,2.0806,11.8866,58.7944,0.0666,-0.0385,0.2633,61.0312
11:11:25:762,-0.2656,1.6208,10.637,58.6675,0.0794,0.1112,0.2443,61.0469
11:11:25:781,-0.0359,1.3717,10.2682,58.6612,-0.0391,0.1222,0.2236,61.125
11:11:25:862,-0.3162,0.7062,11.2235,58.639,-0.3696,0.0128,0.0874,61.4062
11:11:25:863,-0.8716,-0.3712,12.3703,58.6318,-0.7177,-0.0721,0.0556,61.4062
11:11:25:863,-0.8477,-0.5722,13.2251,58.793,-0.8442,-0.0629,0.2639,62.1875
11:11:25:863,-0.189,-0.1053,12.7463,58.7021,-0.6915,0.1906,0.532,62.1875
11:11:25:880,0.8234,0.6296,11.6665,58.6896,-0.3818,0.3464,0.6664,62.6094
11:11:25:899,1.7381,1.1994,11.2211,58.3888,-0.0745,0.1869,0.5534,62.6094
11:11:25:920,2.1858,1.1252,10.8595,58.387,0.1368,0.0305,0.2089,62.25
11:11:25:939,1.4366,0.5554,10.5078,58.2542,0.1814,0.0024,-0.2077,62.25
11:11:25:961,0.0311,-0.1268,9.8279,57.9895,0.0892,0.1527,-0.4294,60.6719
11:11:25:980,-0.9673,-0.3879,8.8176,57.927,-0.0574,0.3653,-0.3482,60.6719
11:11:26:000,-1.3549,-0.0814,7.9771,57.771,-0.2095,0.4746,-0.0983,59.5156
11:11:26:021,-1.2353,0.4765,7.8335,57.5939,-0.3189,0.408,0.1521,59.4062
11:11:26:039,-0.8812,0.874,8.0991,57.3015,-0.3231,0.2566,0.3152,58.875
11:11:26:061,-0.5913,1.0965,8.5493,57.2878,-0.19,0.1118,0.3977,58.8281
11:11:26:082,-0.3903,1.319,8.3291,57.1775,0.226,0.1368,0.4441,58.4844
11:11:26:102,-0.189,1.6831,6.8542,56.9906,0.27,0.1808,0.4074,58.4531
11:11:26:120,-0.5387,1.6496,6.7944,56.8702,0.1552,0.1124,0.3427,58.0938
11:11:26:140,-0.9553,1.5227,7.4192,56.6808,-0.0043,0.0098,0.3164,58.0625
11:11:26:160,-1.386,1.4438,8.0249,56.5602,-0.0953,-0.0098,0.3622,56.7812
11:11:26:179,-1.5443,1.4988,7.9364,56.5868,-0.0843,0.0165,0.4991,56.6562
11:11:26:199,-1.4342,1.7716,8.0225,56.5141,-0.0983,-0.0098,0.6469,55.875
11:11:26:219,-1.3071,1.9032,8.8463,56.5059,-0.2083,-0.0837,0.711,55.7969
11:11:26:240,-1.3813,1.7907,9.926,56.4086,-0.2981,-0.1185,0.6903,56.4219
11:11:26:261,-1.6065,1.5299,10.7734,56.4817,-0.2517,-0.135,0.6658,56.4688
11:11:26:280,-2.0399,1.1468,10.9651,56.4437,-0.0507,-0.0959,0.73,56.8594
11:11:26:299,-2.1404,0.996,10.4551,56.5183,0.1912,0.0593,0.9334,56.2656
11:11:26:320,-1.8577,0.7253,10.0696,56.4428,0.3237,0.2437,1.1924,56.2656
11:11:26:340,-2.1523,1.4103,9.9691,55.9588,0.2724,0.4319,1.4386,55.3281
11:11:26:361,-1.6161,1.908,10.06,56.0889,0.135,0.5473,1.5608,55.3281
11:11:26:380,-2.0183,1.9705,10.7399,55.9866,0.0177,0.518,1.4527,54.3906
11:11:26:400,-2.1476,1.6304,10.6179,55.7804,0.0312,0.4856,1.331,54.3906
11:11:26:421,-1.051,1.0534,10.5652,55.6214,0.077,0.099,1.2156,53.6562
11:11:26:440,-0.6535,-0.3377,13.34,55.4966,-0.0562,-0.6096,0.9108,53.6562
11:11:26:461,-1.628,-1.7285,16.4976,55.1982,-0.2169,-0.8381,0.6389,52.7031
11:11:26:481,-3.0643,-1.9032,15.3556,54.9673,0.0525,-0.1631,0.8332,52.7031
11:11:26:500,-2.5089,-0.632,10.6298,55.2412,0.5473,0.5687,1.3898,51.2031
11:11:26:521,-0.6296,1.5658,7.5197,55.0074,0.6554,0.4716,1.7178,51.2031
11:11:26:540,0.941,2.4275,8.353,54.7206,0.1729,-0.1283,1.4405,49.8281
11:11:26:560,0.3927,1.1659,10.5915,54.7388,-0.493,-0.3763,0.8002,49.7031
11:11:26:580,-1.5275,-0.2536,11.9536,54.5475,-0.843,-0.2193,0.3818,48.0469
11:11:26:602,-2.6049,-0.9218,11.889,54.5377,-0.2889,0.2242,0.7819,47.875
11:11:26:620,-1.5873,0.0479,8.4248,54.4489,0.1497,0.2969,1.1032,45.2188
11:11:26:640,-1.0654,0.6368,7.5054,54.3875,0.4209,0.1588,1.2205,44.9531
11:11:26:661,-0.6918,1.0295,6.9739,54.2357,0.5546,0.055,1.2009,41.8281
11:11:26:680,-0.4741,1.2903,6.7059,54.0897,0.551,0.0305,1.1105,41.5312
11:11:26:699,-0.6703,1.4246,7.0149,54.293,0.394,0.0348,0.992,38.9062
11:11:26:719,-0.8668,1.5754,8.0082,54.2384,0.16,-0.0098,0.8992,38.6562
11:11:26:739,-0.5052,1.7524,9.9619,54.0395,0.0275,-0.1435,0.8271,37.2344
11:11:26:760,0.4621,1.6615,12.1765,53.998,0.1283,-0.2254,0.7342,37.0938
11:11:26:780,0.6559,1.2042,13.3902,53.9423,0.4539,-0.1405,0.5901,34.625
11:11:26:799,-0.2393,0.7684,13.031,53.8886,0.89,0.0244,0.4734,31.125
11:11:26:821,-1.051,0.8835,11.0776,53.7664,1.174,0.3622,0.4783,31.125
11:11:26:840,-0.6918,1.5323,8.4655,53.8854,1.1032,0.8277,0.6493,29.8594
11:11:26:861,0.2632,2.2433,8.7099,53.4408,0.7581,0.8784,0.8552,29.8594
11:11:26:880,0.7612,2.2361,11.4844,53.3308,0.5534,0.3653,0.8564,28.4688
11:11:26:900,0.067,1.829,13.0167,53.2194,0.8931,0.0061,0.6841,28.4688
11:11:26:921,0.1579,1.8266,10.3905,52.9474,1.5021,0.2266,0.6689,25.875
11:11:26:939,1.0654,3.0476,6.6987,52.8486,1.573,0.532,0.6903,25.875
11:11:26:961,1.0439,3.3302,5.9734,52.9037,0.6677,0.5638,0.4801,23.3281
11:11:26:980,-0.7995,1.185,10.2299,52.8491,-0.6157,0.5076,0.1723,23.3281
11:11:26:999,-2.5953,0.0742,11.6928,52.6253,-1.1325,0.8821,0.3085,21.25
11:11:27:020,-1.7118,1.9944,11.1183,52.6507,-0.9511,1.1789,0.8387,21.25
11:11:27:040,0.5722,3.5336,11.0082,52.3991,-0.5162,0.9187,1.0281,19.7344
11:11:27:062,1.7285,2.904,10.0074,52.4868,0.0183,0.2938,0.7165,19.5781
11:11:27:080,1.276,2.5905,8.9515,52.5385,0.2498,-0.1411,0.3897,18.5156
11:11:27:099,0.2608,2.1428,10.1797,52.3901,-0.0898,-0.0452,0.1625,18.4219
11:11:27:123,-0.5722,2.1308,9.696,52.0079,-0.667,1.047,0.0629,17.1094
11:11:27:144,-1.9271,2.1763,8.4823,52.0555,-0.7575,1.149,0.1338,16.9844
11:11:27:161,-1.8099,2.4634,8.1111,52.1359,-0.7263,1.0781,0.2315,15.0781
11:11:27:179,-1.7859,2.4826,8.8056,52.1495,-0.5956,0.8008,0.2504,14.8906
11:11:27:199,-1.5945,2.26,8.942,52.038,-0.419,0.7397,0.2834,13.5156
11:11:27:219,-0.8477,2.3677,8.997,51.8676,-0.3549,0.9792,0.3561,13.375
11:11:27:239,0.1029,3.6918,8.1544,51.8567,-0.3482,1.2974,0.3292,12
11:11:27:261,-0.6894,3.9287,6.9835,52.1816,-0.2346,1.1539,0.0244,11.8594
11:11:27:280,-3.1149,2.0327,6.6796,52.5016,-0.0806,0.4019,-0.2785,11.0469
11:11:27:299,-3.6078,1.7357,7.9651,52.4406,-0.2248,0.0183,-0.1527,8.4219
11:11:27:319,-3.2632,1.9657,9.9787,52.6757,-0.554,0.2688,0.0806,8.4219
11:11:27:339,-3.481,1.8601,10.1916,52.6046,-0.4264,0.3042,0.259,7.1719
11:11:27:360,-2.4538,2.1117,8.7075,52.9091,-0.0855,0.0373,0.4759,7.1719
11:11:27:383,-1.4916,3.2991,7.8168,53.324,-0.0574,-0.1747,0.5632,6.7656
11:11:27:421,-1.6902,3.6846,8.4057,53.3917,-0.306,-0.2187,0.4245,6.7656
11:11:27:421,-2.3294,3.2489,9.3514,53.2793,-0.4936,-0.2132,0.2822,6.0469
11:11:27:439,-2.7963,2.6982,9.6864,53.376,-0.4514,-0.3763,0.2828,6.0469
11:11:27:460,-2.8178,2.4562,10.3735,53.2846,-0.2944,-0.7501,0.3916,5.1562
11:11:27:480,-2.8083,2.4491,11.6354,53.0932,-0.1527,-1.0513,0.4899,5.0781
11:11:27:500,-2.9566,2.0542,12.6529,53.3107,0.022,-1.1734,0.5534,4
11:11:27:521,-2.6815,2.2935,12.7534,53.253,0.2395,-1.0592,0.6915,4
11:11:27:540,-1.8338,2.7532,12.2124,52.9102,0.3207,-0.7391,0.7709,3.2031
11:11:27:560,-1.2257,2.8848,12.0326,52.8874,0.201,-0.4532,0.6854,3.125
11:11:27:581,-1.4677,2.4323,12.4158,52.9535,0.102,-0.4197,0.4722,3.4531
11:11:27:599,-1.8864,1.6615,12.3105,52.7369,0.058,-0.496,0.2657,3.4688
11:11:27:623,-2.6049,1.1444,11.6521,52.7635,0.0086,-0.0794,0.3616,2.9531
11:11:27:641,-2.4299,1.3095,9.1167,52.704,0.0531,-0.2743,0.5455,2.8906
11:11:27:665,-1.5658,1.4533,9.1525,52.7002,0.0525,-0.5705,0.656,1.8594
11:11:27:681,-0.8716,1.5826,9.4472,52.6762,0.0342,-0.7434,0.6487,1.7656
11:11:27:700,-0.6894,1.4174,9.3945,52.7793,-0.0348,-0.6958,0.5278,1.0156
11:11:27:719,-1.0487,1.0128,9.1741,52.5703,-0.1649,-0.5284,0.3958,0.9375
11:11:27:739,-1.4725,0.6679,8.7697,52.504,-0.2566,-0.3983,0.3867,0.3438
11:11:27:759,-1.6496,0.6009,8.8008,52.5789,-0.2633,-0.3604,0.5168,0.2812
11:11:27:780,-1.2257,0.9936,8.5947,52.5488,-0.2309,-0.1558,0.719,359.5
11:11:27:799,-0.5865,1.6161,8.0608,52.6552,-0.2395,0.1252,0.8766,358.125
11:11:27:819,-0.4454,1.8577,7.6469,52.7184,-0.2541,0.2468,0.8766,358.125
11:11:27:839,-0.7014,1.7596,7.5078,52.5767,-0.1997,0.1723,0.8075,356.9844
11:11:27:861,-0.9194,1.6448,7.7139,52.4745,-0.0629,-0.0373,0.7947,356.9844
11:11:27:929,-0.9697,1.561,7.934,52.8048,0.0916,-0.2016,0.8491,356.5938
11:11:27:930,-0.7421,1.7357,7.8479,52.7775,0.1472,-0.2223,0.9431,356.5938
11:11:27:930,0.0359,2.2265,8.0584,52.9,0.0574,-0.1949,1.0519,355.6562
11:11:27:940,0.8812,2.7556,8.7338,53.0684,-0.1173,-0.1307,1.0684,355.6562
11:11:27:961,1.2736,3.0141,9.6147,53.169,-0.27,-0.0238,0.926,355.6406
11:11:27:980,0.699,2.7772,10.3065,53.3949,-0.3018,0.0965,0.6982,354.4219
11:11:27:999,-0.1364,2.3653,10.5772,53.5298,-0.182,0.1716,0.5565,353.5938
11:11:28:020,-0.268,2.2122,10.3519,53.7198,-0.0079,0.1668,0.562,353.5938
11:11:28:040,0.1914,2.3797,10.3759,53.675,0.1014,0.0678,0.6017,352.7969
11:11:28:067,0.8067,2.4467,10.9146,54.0179,0.1442,-0.0855,0.5522,352.7188
11:11:28:081,1.3119,2.2816,11.6426,54.0795,0.1936,-0.2352,0.4178,351.1406
11:11:28:100,1.6089,2.2816,11.2762,54.1534,0.2572,-0.2529,0.3042,350.9844
11:11:28:124,2.1284,2.3031,10.3352,54.1126,0.2107,-0.1857,0.2083,349.0781
11:11:28:147,2.0399,0.7277,11.767,53.9681,-0.5699,-0.0672,-0.1991,349.0781
11:11:28:162,0.9027,-0.431,13.7372,54.0377,-0.9438,0.0794,-0.3299,347.4531
11:11:28:180,0.2632,-0.8764,14.5418,54.2364,-0.8961,0.2523,-0.2413,347.2969
11:11:28:199,0.5459,-0.7469,13.2802,54.136,-0.4832,0.394,-0.0159,345.3438
11:11:28:219,1.3932,-0.2922,11.08,54.057,-0.0446,0.3677,0.1607,345.1562
11:11:28:240,1.9753,0.1196,9.7846,53.8985,0.1417,0.1668,0.1558,343.1875
11:11:28:264,1.774,0.2154,9.4161,53.9788,0.0996,0.0153,0.014,343
11:11:28:282,0.9793,0.2417,9.2773,54.0057,-0.0305,0.0367,-0.0971,341.7188
11:11:28:300,0.3257,0.4645,8.7721,54.0905,-0.1197,0.1692,-0.0666,340.2656
11:11:28:320,0.2177,0.7923,7.9699,54.0107,-0.1448,0.2639,0.0495,340.2656
11:11:28:340,0.6272,1.2664,8.0154,53.9947,-0.146,0.1655,0.1429,339.2344
11:11:28:364,0.8402,1.6017,8.7888,54.0956,-0.088,0.0037,0.1252,339.2344
11:11:28:380,0.6392,1.5849,8.9372,53.9392,0.0715,-0.0226,0.0367,338.6875
11:11:28:400,0.364,1.6567,7.9196,54.0483,0.2376,0.1032,-0.0006,338.6875
11:11:28:423,0.4143,1.9415,6.9356,53.6901,0.284,0.204,0.0232,338.9219
11:11:28:440,0.5052,2.2361,6.4714,53.6002,0.2114,0.2162,0.0189,338.9375
11:11:28:462,0.4358,2.2385,6.8423,53.3464,0.0977,0.1484,-0.0421,338.9375
11:11:28:483,0.1771,2.1045,7.5293,53.184,0.022,0.1014,-0.1014,339.625
11:11:28:499,0.0718,2.0136,7.8694,53.0611,0.0189,0.1045,-0.1032,339.4219
11:11:28:523,-0.067,1.9487,8.2167,52.8677,0.0379,0.0965,-0.0684,339.4219
11:11:28:540,-0.0048,2.0351,8.5756,52.7702,0.0428,0.0971,0.0067,339.2031
11:11:28:564,-0.0885,2.071,9.0066,52.6309,0.0263,0.1301,0.0727,339.2031
11:11:28:582,-0.1627,2.1356,9.4687,52.8076,0.0024,0.1912,0.1527,339.3438
11:11:28:601,-0.7086,1.8075,9.9141,52.7295,-0.0067,0.2724,0.2749,339.3594
11:11:28:624,0.1627,2.8729,10.5485,52.7114,0.0006,0.2712,0.6145,339.1406
11:11:28:646,0.5004,2.9303,11.7598,52.7437,0,0.0806,0.5039,339.125
11:11:28:664,0.1316,2.7652,12.4684,52.4837,0.0031,0.0721,0.3268,338.9531
11:11:28:683,-0.3114,2.2409,12.0183,52.5751,-0.0434,0.2676,0.2223,338.9531
11:11:28:700,-0.6057,1.6902,11.7,52.6307,-0.3097,0.5046,0.201,338.875
11:11:28:720,-0.62,0.9123,12.8683,52.5951,-0.6811,0.5498,0.1881,338.875
11:11:28:739,-0.9649,-0.0694,15.0924,52.4625,-0.8668,0.3879,0.1399,338.8438
11:11:28:760,-1.4557,-0.8716,16.1578,52.4088,-0.6499,0.2517,0.1313,338.8438
11:11:28:782,-1.6615,-1.0247,14.5968,52.6567,-0.1124,0.2718,0.2608,339.0312
11:11:28:800,-1.0367,-0.4143,11.956,52.6981,0.4783,0.2266,0.5351,339.0938
11:11:28:820,0.2273,0.5459,9.7176,52.9322,0.752,0.0605,0.6866,339.0938
11:11:28:840,0.7014,0.8883,8.8989,52.726,0.5864,-0.1283,0.5284,338.8125
11:11:28:865,0.1029,0.2249,9.4998,52.5612,0.149,-0.1607,0.2407,338.8125
11:11:28:882,-0.9027,-0.4071,10.2443,52.218,-0.2077,-0.0098,0.1203,337.875
11:11:28:901,-1.3932,-0.3879,9.7774,52.1002,-0.2254,0.1784,0.2419,337.875
11:11:28:922,-0.9577,0.2034,8.2454,51.862,0.0055,0.2498,0.4606,337.875
11:11:28:942,-0.2656,0.9099,6.8279,51.2899,0.2297,0.1558,0.5834,336.6094
11:11:28:964,0.1268,1.2592,6.0571,51.045,0.3121,-0.0018,0.5516,336.5938
11:11:28:982,-0.0455,1.2353,5.8798,50.6193,0.2651,-0.1093,0.441,335.9688
11:11:29:000,-0.3616,1.0822,5.983,50.34,0.1576,-0.1307,0.3787,335.4375
11:11:29:022,-0.4789,1.2114,6.105,50.1355,0.0709,-0.11,0.4117,335.4375
11:11:29:040,-0.2776,1.5897,6.2988,50.194,0.0098,-0.0959,0.4728,335.0781
11:11:29:067,0.0287,2.0877,6.6963,50.0347,-0.0739,-0.0788,0.4868,335.0781
11:11:29:083,0.3544,2.3725,7.3834,49.9202,-0.1961,-0.0434,0.4233,334.25
11:11:29:101,0.2584,2.2983,8.8463,49.8395,-0.3256,-0.0263,0.3018,334.1719
11:11:29:122,-0.0646,2.2457,10.0505,49.6923,-0.3628,0.0367,0.2083,332.9688
11:11:29:140,-0.3544,2.1763,10.8308,49.4442,-0.2865,0.1075,0.1594,332.8438
11:11:29:165,-0.1675,2.7173,11.7096,49.5447,-0.0464,0.2706,0.1607,332.4844
11:11:29:182,0.0574,2.7987,11.8555,49.3656,0.0959,0.2627,0.0941,332.4531
11:11:29:199,-0.0598,2.636,11.2259,49.0061,0.2205,0.1802,-0.0116,331.7188
11:11:29:220,-0.4789,2.1188,10.9098,48.7932,0.1894,0.014,-0.1106,331.6406
11:11:29:240,-1.1683,1.5299,11.6833,48.5063,-0.0373,-0.1344,-0.1295,330.5
11:11:29:260,-1.0582,1.1252,12.2865,48.5209,-0.2578,-0.0965,0.022,330.3906
11:11:29:281,-0.4549,0.984,11.9273,48.1675,-0.3696,0.0305,0.204,329.5938
11:11:29:299,0.0048,0.6081,12.6239,47.9815,-0.4978,-0.0599,0.2223,328.6406
11:11:29:320,-0.2656,-0.4765,14.47,47.3932,-0.6255,-0.2474,0.0678,328.6406
11:11:29:339,-0.9984,-1.4797,15.6239,47.1764,-0.5284,-0.2547,-0.0385,327.5625
11:11:29:364,-1.0247,-1.4821,14.1921,46.8691,-0.1435,-0.0275,0.0886,327.5625
11:11:29:381,0.2512,-0.4478,10.7064,46.5022,0.2792,0.1558,0.3286,327.5625
11:11:29:402,1.494,0.3736,8.5349,46.2465,0.3934,0.0367,0.3482,327
11:11:29:420,1.6663,0.352,8.3842,45.3864,0.182,-0.1655,0.1087,327
11:11:29:439,1.0343,-0.1436,9.3849,44.9754,-0.1741,-0.1955,-0.1564,326.625
11:11:29:462,0.3305,-0.376,10.206,44.8055,-0.3848,-0.0507,-0.2798,326.6094
11:11:29:482,-0.201,-0.297,9.9093,44.5948,-0.3628,0.1833,-0.2767,326.2812
11:11:29:501,-0.4478,0.0837,8.6282,44.1929,-0.1814,0.3286,-0.1808,326.4062
11:11:29:522,-0.3233,0.5459,7.5078,44.0134,0.0177,0.2614,-0.0684,326.4062
11:11:29:540,-0.1436,0.9242,6.7657,43.5591,0.1564,0.1063,-0.011,326.5469
11:11:29:563,-0.0742,1.2233,6.4905,43.3183,0.2089,-0.0086,0.0098,326.5469
11:11:29:581,0.0191,1.5347,6.4546,43.2738,0.201,-0.0202,0.0421,326.125
11:11:29:599,0.1603,1.7812,6.2151,43.1384,0.1631,0.0647,0.0776,326.0781
11:11:29:622,0.1316,2.0255,6.2246,42.7202,0.0641,0.1472,0.0898,326.0781
11:11:29:640,0.0167,2.059,6.7872,42.4677,-0.0672,0.1558,0.0666,326.0781
11:11:29:664,-0.0909,1.9777,7.867,42.1067,-0.1765,0.0812,0.0269,325.6562
11:11:29:684,0.2465,1.7237,10.3663,41.7178,-0.2211,0,0,325.625
11:11:29:700,0.2345,1.6567,11.3767,41.6379,-0.1032,-0.0214,-0.0183,325.1719
11:11:29:727,0.0048,1.7046,11.5301,41.1205,0.0599,0.1014,-0.0055,325.125
11:11:29:739,-0.1866,1.8721,11.3216,40.7299,0.1949,0.2004,0.0367,325.5781
11:11:29:761,-0.0861,2.1571,11.2187,40.3849,0.2254,0.2303,0.08,325.625
11:11:29:781,0.2704,2.3366,11.5828,39.9337,0.1765,0.1692,0.0721,326.0469
11:11:29:799,0.4023,2.2289,12.0903,39.5345,0.1222,0.0751,-0.0354,326.1562
11:11:29:820,0.2752,1.7979,12.3033,39.0926,0.0623,0.0519,-0.1875,326.1562
11:11:29:840,0.0814,1.3071,12.2554,38.7383,-0.0556,0.1069,-0.2908,326.0938
11:11:29:860,-0.5602,0.8091,13.3113,38.2932,-0.2865,0.1552,-0.3323,326.0938
11:11:29:881,-1.1252,0.1771,14.1347,38.1497,-0.4111,0.2395,-0.3048,325.9219
11:11:29:900,-1.5514,-0.3425,13.7997,37.8199,-0.2621,0.259,-0.2382,325.9062
11:11:29:920,-2.0734,-0.6344,12.7415,37.4485,0.1057,0.1625,-0.1264,325.9062
11:11:29:991,-2.3653,-0.6727,11.1302,37.1044,0.5449,0.0599,0.0544,325.7812
11:11:29:992,-2.0112,-0.3305,8.8247,36.6499,0.8002,0.0171,0.2114,325.7812
11:11:29:992,-1.5108,0.189,7.18,36.6102,0.6493,-0.1075,0.2156,325.7969
11:11:30:000,-1.2138,0.0383,7.8024,36.3827,0.1613,-0.3909,0.0501,325.8125
11:11:30:023,-1.2209,-0.6153,10.1845,35.9185,-0.3146,-0.631,-0.1271,325.8125
11:11:30:040,-1.1898,-0.8477,11.2044,35.479,-0.4581,-0.5504,-0.1399,325.6562
11:11:30:066,-1.0343,-0.6153,10.6035,35.0728,-0.325,-0.2706,0.0122,325.6562
11:11:30:081,-0.7971,-0.122,8.7099,34.8186,-0.0764,0.0391,0.2248,325.6094
11:11:30:099,-0.5818,0.3209,6.9045,34.5182,0.0861,0.1985,0.3806,325.6094
11:11:30:122,-0.4454,0.5698,6.1074,34.2985,0.0709,0.1625,0.4551,326.0625
11:11:30:140,-0.2632,0.7756,6.2892,33.9082,-0.0153,0.0397,0.4905,326.1094
11:11:30:164,0.3951,1.3286,6.9835,33.6638,-0.0574,-0.014,0.4917,326.7031
11:11:30:183,0.6464,1.5945,7.1871,33.5114,-0.0122,-0.0287,0.4166,326.7656
11:11:30:200,0.9505,1.8888,7.168,33.4432,-0.0043,-0.014,0.3042,327.1094
11:11:30:221,0.8764,2.0303,7.7569,33.2835,-0.1057,0.0086,0.1399,327.1406
11:11:30:239,0.51,2.1045,8.5828,33.1891,-0.2004,0.0733,-0.0079,326.9062
11:11:30:260,0.1077,2.2361,8.8965,33.145,-0.19,0.1442,-0.0861,326.875
11:11:30:282,-0.0574,2.3509,9.1358,32.9123,-0.1264,0.0715,-0.1167,326.6719
11:11:30:301,-0.28,2.1619,10.1725,32.767,-0.113,-0.135,-0.1607,327
11:11:30:320,-1.0199,1.3621,11.4174,32.4907,-0.1668,-0.2315,-0.1692,327
11:11:30:340,-1.7261,0.5195,12.3799,32.2698,-0.2761,-0.1387,0.0226,326.7969
11:11:30:366,-1.3334,0.4334,13.0071,31.8553,-0.4105,0.0287,0.4074,326.7969
11:11:30:382,-0.6655,0.7947,13.4166,31.5402,-0.4887,0.1307,0.7092,326.7812
11:11:30:400,0.2273,1.3334,13.6654,31.362,-0.4398,0.1155,0.8143,325.8438
11:11:30:421,0.6607,1.3956,13.206,31.0045,-0.2315,0.0305,0.6835,325.8438
11:11:30:439,0.833,1.1085,12.521,30.8049,-0.0238,-0.1197,0.46,324.75
11:11:30:462,1.1085,0.4454,12.9209,30.5508,-0.0006,-0.3268,0.1863,324.7344
11:11:30:483,0.7684,-0.9458,14.3551,30.4118,-0.1118,-0.4655,-0.179,323.75
11:11:30:499,-0.3425,-2.1882,15.157,30.142,-0.1051,-0.3622,-0.4331,323.2656
11:11:30:521,-1.197,-2.6001,13.8284,29.9482,0.1594,-0.0678,-0.3818,323.2656
11:11:30:540,-0.8955,-1.8673,10.7447,29.9124,0.5467,0.1454,-0.0495,323.3438
11:11:30:563,0.553,-0.5291,8.7434,29.5418,0.744,-0.0134,0.2462,323.3438
11:11:30:582,1.762,0.3544,8.8104,29.6079,0.6347,-0.3757,0.1973,323.6406
11:11:30:600,1.6424,0.3209,10.0457,29.7387,0.3567,-0.5504,-0.1264,323.6406
11:11:30:621,0.7349,-0.0048,10.7901,29.7628,0.146,-0.3592,-0.4007,323.8125
11:11:30:639,-0.0981,-0.0861,9.7654,29.7096,0.1405,0.0458,-0.43,323.8281
11:11:30:664,-0.0814,0.268,8.2071,29.7873,0.2431,0.2645,-0.2859,322.7188
11:11:30:682,0.2608,0.8067,7.5197,29.9595,0.3286,0.1716,-0.1979,322.5938
11:11:30:702,0.3401,0.996,7.4169,29.982,0.3922,-0.0165,-0.317,321.0938
11:11:30:724,0.2632,0.9936,7.223,30.08,0.3573,0.0599,-0.3433,320.9531
11:11:30:739,0.1029,1.1061,6.5767,30.0741,0.259,0.1686,-0.336,320.3125
11:11:30:761,-0.012,1.2233,6.5575,29.9831,0.1203,0.2456,-0.3079,320.25
11:11:30:783,-0.1651,1.3238,6.804,29.9035,-0.0067,0.2706,-0.2767,320.8906
11:11:30:801,-0.352,1.3956,7.1752,30.1152,-0.0983,0.2517,-0.2352,321.375
11:11:30:820,-0.4741,1.494,7.4192,30.1098,-0.1545,0.2223,-0.171,321.375
11:11:30:839,-0.3592,1.6328,7.7665,30.3454,-0.193,0.1503,-0.091,321.4219
11:11:30:861,-0.2154,1.7955,8.4488,30.497,-0.2407,0.0635,-0.0226,320.9844
11:11:30:882,-0.1603,1.9729,9.3108,30.5135,-0.2853,0.0354,0.0281,320.9531
11:11:30:905,-0.134,2.1069,9.9356,30.7015,-0.3103,0.1026,0.0678,321.5625
11:11:30:920,-0.0742,2.3079,10.3807,30.5525,-0.2877,0.1826,0.1045,321.5781
11:11:30:940,-0.1723,2.4538,10.6992,30.4753,-0.215,0.2395,0.1197,322.3281
11:11:30:962,-0.1436,2.5232,11.1087,30.2805,-0.1307,0.2957,0.1332,322.3281
11:11:30:982,-0.1292,2.6384,11.8531,30.2912,-0.0825,0.3439,0.1209,322.7969
11:11:31:000,-0.553,2.5232,12.4947,30.0525,-0.0568,0.3732,0.0299,323.5
11:11:31:021,-1.2975,2.1571,13.2012,30.0741,-0.0281,0.3622,-0.0837,323.5
11:11:31:040,-1.7668,1.6926,13.2395,30.1853,0.014,0.4368,-0.0971,324.1562
11:11:31:062,-1.9657,1.276,12.9018,30.233,0.0116,0.5412,-0.0324,324.1562
11:11:31:083,-2.2241,0.4765,13.0645,30.2558,-0.0531,0.5479,0.0122,324.6875
11:11:31:099,-2.691,-0.3449,13.2634,30.6488,-0.0452,0.4997,0.0867,324.6875
11:11:31:123,-2.7389,-0.4908,12.5115,30.862,0.1619,0.4484,0.3225,324.9062
11:11:31:139,-2.205,0.1268,10.6179,30.8781,0.4997,0.3916,0.6261,324.9375
11:11:31:162,-1.2568,0.9386,8.4344,31.2064,0.7575,0.2181,0.7978,324.9219
11:11:31:182,-0.2922,1.4677,7.235,31.5787,0.7275,-0.0837,0.7116,324.9219
11:11:31:202,0.0407,1.2808,7.6899,31.8156,-0.1539,-0.4423,0.0605,324.7188
11:11:31:223,-1.0582,-0.6488,11.1924,32.0213,-0.5339,-0.3482,-0.1338,324.7031
11:11:31:239,-2.016,-1.1922,11.822,32.4419,-0.5803,-0.1344,-0.1179,324.4062
11:11:31:261,-2.2696,-1.1252,10.7399,32.7275,-0.2834,0.0501,0.113,324.375
11:11:31:284,-1.4629,-0.3066,8.9324,32.9429,0.1118,0.1075,0.4374,324.1719
11:11:31:299,-0.1866,0.6344,8.353,33.4139,0.3219,0.0916,0.6426,324.2812
11:11:31:319,0.4478,1.4004,7.879,33.5424,0.3683,0.2107,0.6615,324.2812
11:11:31:339,0.2728,1.9247,6.9404,33.3237,0.3635,0.4166,0.5565,324.2969
11:11:31:361,-0.3138,2.0901,6.0188,33.5571,0.3311,0.4704,0.4123,324.2344
11:11:31:381,-0.6559,2.2313,5.3318,33.5846,0.2535,0.3555,0.3097,324.2344
11:11:31:400,-0.4908,2.5618,5.5591,34.0087,0.0751,0.1258,0.2645,323.7188
11:11:31:421,-0.1292,2.825,6.4738,34.0527,-0.1643,-0.0941,0.1924,323.7031
11:11:31:440,-0.1747,2.7604,7.946,34.4889,-0.3751,-0.2663,0.0379,322.1719
11:11:31:460,-0.3592,2.5137,9.3706,34.7279,-0.4716,-0.3415,-0.1045,322.1562
11:11:31:483,-0.5052,2.3653,10.2586,34.9654,-0.4355,-0.3005,-0.179,321.0312
11:11:31:500,-0.8668,2.3031,10.5293,35.3461,-0.3274,-0.1802,-0.2242,321.1562
11:11:31:523,-1.5706,2.1691,10.2538,35.3587,-0.2101,-0.0605,-0.2676,321.1562
11:11:31:541,-2.2313,1.9343,9.9858,35.6184,-0.1399,-0.0354,-0.2676,321.1406
11:11:31:563,-2.5113,1.7716,10.1055,35.5177,-0.1448,-0.1277,-0.1985,321.1406
11:11:31:582,-2.2504,1.6017,11.0752,35.7946,-0.2242,-0.284,-0.0867,319.9531
11:11:31:599,-1.7237,1.331,12.3392,35.7511,-0.3103,-0.3873,0.0226,319.9531
11:11:31:621,-1.331,1.1396,13.6367,35.8284,-0.3066,-0.4111,0.1417,318.7031
11:11:31:640,-0.5124,1.3573,13.1674,36.0727,-0.1668,-0.2449,0.3079,318.5781
11:11:31:664,0.644,1.707,11.6091,36.1969,-0.0739,-0.077,0.3738,317.7969
11:11:31:684,1.331,1.5467,11.5995,36.5369,-0.248,-0.1136,0.201,317.7188
11:11:31:701,0.8501,0.4669,13.2969,36.7121,-0.5223,-0.2187,-0.1264,317.25
11:11:31:723,-0.8859,-1.8362,14.8217,36.9584,-0.2578,-0.1148,-0.4025,317.2031
11:11:31:740,-1.075,-2.0758,13.1435,37.0145,0.226,0.0275,-0.1875,317.2812
11:11:31:761,-0.012,-1.2066,10.6346,37.1945,0.617,0.066,0.1472,317.2969
11:11:31:783,1.5395,-0.134,9.1143,37.3474,0.6738,-0.0599,0.2999,317.7188
11:11:31:799,2.3749,0.3903,8.8822,37.2784,0.4478,-0.1955,0.146,317.75
11:11:31:820,1.6926,0.1077,9.0353,37.5025,0.1368,-0.1338,-0.1808,318.2812
11:11:31:839,0.4693,-0.268,8.4894,37.4819,-0.1112,0.1405,-0.3873,318.3281
11:11:31:860,-0.4501,-0.2082,7.381,37.7155,-0.3195,0.452,-0.3714,318.6406
11:11:31:882,-0.4214,0.189,6.8447,37.9345,-0.5333,0.5834,-0.1979,318.6719
11:11:31:900,0.079,0.8186,7.6277,38.1433,-0.6573,0.4691,-0.0421,318.5469
11:11:31:920,0.3353,1.2353,8.7936,38.2263,-0.551,0.3011,-0.0556,318.5469
11:11:31:940,0.2632,1.4055,8.5229,38.4939,-0.2217,0.2926,-0.1521,317.8281
11:11:31:961,0.012,1.6639,7.0843,38.8337,0.0983,0.3659,-0.2248,317.8125
11:11:31:984,-0.2106,1.9008,6.0021,39.0527,0.2333,0.2914,-0.2877,317.75
11:11:32:054,-0.5243,1.9056,5.9853,39.3133,0.1778,0.1014,-0.3738,318.5938
11:11:32:055,-0.8067,1.6208,6.8088,39.5143,-0,-0.0263,-0.4331,318.5938
11:11:32:055,-0.9817,1.3047,7.934,39.7395,-0.1924,-0.0318,-0.4288,318.6562
11:11:32:068,-1.2449,0.9936,9.0162,40.0649,-0.3036,0.0128,-0.3824,318.6562
11:11:32:081,-1.6041,0.9027,10.0265,40.3001,-0.2981,0.0367,-0.2785,318.2031
11:11:32:099,-1.8817,1.0295,10.7207,40.5191,-0.2028,0.0702,-0.1148,318.2031
11:11:32:121,-1.8649,1.4055,10.8476,40.5679,-0.0702,0.1191,0.0806,318.8125
11:11:32:139,-1.6256,1.8793,10.9627,40.5792,0.0153,0.1106,0.2529,318.8125
11:11:32:164,-1.3262,1.9582,11.633,40.843,0.0318,-0.0092,0.3384,319.3438
11:11:32:185,-0.7923,0.9697,13.8428,40.8167,0.0751,-0.2211,0.3427,319.3438
11:11:32:203,-0.7493,0.6583,13.4596,40.9066,0.1405,-0.0971,0.3531,319.375
11:11:32:223,-0.5411,0.5171,12.9784,41.0336,0.1387,-0.0696,0.3818,319.375
11:11:32:241,-0.7349,0.1627,12.7534,40.9912,0.0727,-0.1564,0.3622,319.7188
11:11:32:262,-0.9386,-0.189,11.7933,40.9946,0.099,-0.2468,0.3842,319.75
11:11:32:281,-0.352,-0.2369,10.8978,41.4705,0.2468,-0.4618,0.4893,320.4062
11:11:32:301,0.0335,-0.0335,10.7255,41.8841,0.4178,-0.7,0.5259,320.4688
11:11:32:319,-0.2321,0.1053,9.8471,42.1187,0.5852,-0.6927,0.4478,321.3281
11:11:32:340,-0.5004,0.2946,7.9627,42.1679,0.6182,-0.4905,0.3873,321.4062
11:11:32:360,-0.1723,0.6009,6.9882,42.3714,0.3433,-0.3983,0.3622,322.0469
11:11:32:383,0.1866,0.6799,8.0513,42.243,-0.1735,-0.4704,0.2566,322.1094
11:11:32:400,0.0072,0.2297,10.0768,42.5296,-0.6133,-0.5473,0.0666,322.1406
11:11:32:421,-0.5578,-0.1795,11.4221,42.7087,-0.7306,-0.5009,-0.0745,322.1406
11:11:32:439,-1.0917,-0.4525,11.822,42.7803,-0.5632,-0.394,-0.1045,321.4844
11:11:32:460,-1.3286,-0.5387,10.9747,42.7342,-0.2413,-0.2395,-0.0269,321.4844
11:11:32:483,-1.0463,-0.2106,9.4759,42.7635,0.0617,-0.11,0.1216,320.75
11:11:32:500,-0.5148,0.2946,8.0297,43.2276,0.204,-0.0159,0.2584,319.9531
11:11:32:522,-0.0239,0.7062,7.2302,43.2788,0.1759,0.0672,0.3262,319.9531
11:11:32:539,0.3879,1.0582,6.5551,43.4024,0.0739,0.1686,0.3347,319.1719
11:11:32:562,0.7804,1.4174,5.6405,43.4867,-0.0354,0.1888,0.292,319.1719
11:11:32:583,1.0869,1.8266,5.5519,43.7655,-0.1686,-0.014,0.1869,318.1406
11:11:32:600,1.2377,1.8434,6.7801,43.5769,-0.325,-0.3219,-0.0067,318.1406
11:11:32:621,1.0774,1.5873,8.0632,43.7816,-0.4331,-0.482,-0.2278,317.3125
11:11:32:639,0.5506,1.2473,9.1502,43.875,-0.5088,-0.4539,-0.3787,317.3125
11:11:32:663,-0.0144,0.8644,10.5054,43.8063,-0.5339,-0.3464,-0.4056,316.75
11:11:32:683,-0.1723,0.7708,11.0776,43.8643,-0.4123,-0.182,-0.2944,316.7031
11:11:32:699,0.2369,1.1013,10.9795,43.9804,-0.2175,-0.0831,-0.1429,316.7812
11:11:32:723,0.7708,1.4318,11.0848,43.9974,-0.1344,-0.036,-0.0647,316.7812
11:11:32:742,0.6894,0.5219,12.4134,44.0629,-0.1771,-0.0428,-0.1936,316.9531
11:11:32:766,0.4262,-0.2608,13.2347,44.2531,-0.1423,-0.1387,-0.1967,316.9688
11:11:32:782,0.2728,-0.5124,14.0868,44.3018,-0.044,-0.1912,-0.0647,316.6094
11:11:32:801,0.7349,-0.352,13.2203,44.2999,0.1448,-0.0238,0.157,316.5625
11:11:32:819,1.2018,0.2225,11.4509,44.3043,0.2364,0.193,0.3286,315.8906
11:11:32:839,1.6902,0.6511,10.5126,44.4873,0.0122,0.2449,0.3305,315.8281
11:11:32:860,2.2792,0.0167,12.3583,44.6419,-0.4331,0.0452,0.1057,315.3281
11:11:32:883,1.7859,-1.2616,15.923,44.821,-0.6878,-0.1191,-0.2303,315.2812
11:11:32:900,0.012,-2.3725,16.9549,44.5762,-0.3268,0.0073,-0.4135,315.5781
11:11:32:920,-0.8067,-2.5475,13.4836,44.7056,0.5675,0.2969,-0.237,315.5938
11:11:32:940,0.3808,-1.2736,8.9755,44.8123,1.284,0.3292,0.1405,316.5156
11:11:32:961,2.3773,0.2898,7.1154,44.8466,1.2834,0.0202,0.2724,316.5312
11:11:32:982,2.9255,0.7636,7.8359,44.9056,0.7141,-0.1545,-0.0293,317.0312
11:11:33:000,1.6328,-0.1125,9.5333,44.7474,0.1161,-0.0202,-0.4563,317.25
11:11:33:021,0.1747,-0.766,9.4854,44.8036,-0.0367,0.2975,-0.6029,317.25
11:11:33:040,-0.3138,-0.6966,7.9053,44.8139,0.1417,0.4954,-0.4514,317.7031
11:11:33:062,-0.1292,-0.0024,6.3706,44.9943,0.3354,0.4404,-0.2236,317.7031
11:11:33:083,0.2536,0.6966,5.6094,44.7433,0.383,0.2834,-0.0855,317.6094
11:11:33:100,0.4023,1.1348,5.461,44.7025,0.2926,0.1942,-0.0525,317.6094
11:11:33:121,0.4789,1.4509,5.5256,44.6668,0.1442,0.2016,-0.0525,316.8594
11:11:33:139,0.486,1.6926,5.8869,44.6559,-0.0153,0.2175,-0.0696,316.8594
11:11:33:162,0.2827,1.7166,6.591,44.6796,-0.1228,0.1625,-0.1173,317.0312
11:11:33:183,0.1316,1.8051,7.2661,44.6115,-0.1411,0.0562,-0.1442,317.0312
11:11:33:199,0.2656,1.9415,8.0225,44.6296,-0.1332,-0.0489,-0.1417,317.6562
11:11:33:222,0.4406,2.0255,8.9372,44.6394,-0.1643,-0.0709,-0.1509,317.7344
11:11:33:240,0.2827,1.9582,9.9811,44.8404,-0.2107,-0.0189,-0.1759,317.2344
11:11:33:262,-0.134,2.0279,10.893,44.711,-0.1839,0.0721,-0.1668,317.1875
11:11:33:281,-0.1507,2.2696,10.9313,44.9257,-0.0202,0.16,-0.0367,317.6562
11:11:33:299,-0.0861,2.2552,11.3192,44.9285,-0.0116,0.1203,0.0189,317.6875
11:11:33:319,0.2994,2.0088,12.3272,44.9987,-0.0159,0.0153,0.0342,318.7031
11:11:33:339,1.2592,1.8912,13.6869,44.9158,-0.0153,0.0208,0.0269,318.8125
11:11:33:361,1.5419,1.8194,13.6678,45.0646,-0.0886,0.3824,-0.0574,319.0625
11:11:33:384,0.6105,0.8596,13.5147,45.0563,-0.3555,0.8002,-0.2651,319.0938
11:11:33:401,-0.297,-0.256,14.0222,45.1659,-0.686,0.9651,-0.4074,319.1719
11:11:33:421,-0.7756,-1.1683,14.6016,45.1168,-0.7965,0.9523,-0.3934,319.1875
11:11:33:441,-1.0534,-1.6615,14.3169,44.9393,-0.5699,0.8582,-0.2859,319.3594
11:11:33:460,-1.5227,-1.5395,12.9592,45.0746,-0.0745,0.7043,-0.1619,319.3594
11:11:33:486,-1.8314,-1.2927,10.5197,45.1149,0.5046,0.5168,-0.0464,319.6719
11:11:33:502,-1.8362,-0.8091,7.7761,45.126,0.8973,0.2889,0.0489,320.0469
11:11:33:522,-1.7094,-0.0622,5.8822,44.9067,0.9071,-0.0159,0.0922,320.0469
11:11:33:540,-1.6663,0.3329,5.6405,45.0156,0.5498,-0.3647,0.0556,320.3438
11:11:33:561,-1.7548,0.2082,7.2685,45.0646,0.0495,-0.6579,-0.0159,320.3438
11:11:33:584,-2.15,-0.0574,9.0185,45.1472,-0.2755,-0.7055,-0.0501,320.3438
11:11:33:602,-2.5113,-0.213,9.696,45.1433,-0.3152,-0.5406,0.0165,320.3438
11:11:33:623,-2.3198,-0.0933,9.2629,45.1507,-0.1796,-0.3586,0.1759,320.2656
11:11:33:640,-1.6424,0.2536,8.6713,45.1014,-0.0318,-0.306,0.3231,320.2656
11:11:33:664,-1.1013,0.4956,8.444,45.2411,0.0421,-0.325,0.3647,320.5625
11:11:33:683,-0.9362,0.5219,8.566,45.3941,0.058,-0.306,0.3329,320.5625
11:11:33:700,-0.8524,0.6344,8.4918,45.2236,0.0751,-0.1961,0.3244,321.2344
11:11:33:722,-0.7229,0.8788,7.8072,45.1976,0.1173,-0.0354,0.347,321.3125
11:11:33:740,-0.4549,1.1444,7.1943,45.1815,0.1338,0.0202,0.3457,321.6875
11:11:33:764,0.0215,1.3167,7.3929,45.4106,-0.0305,-0.1124,0.0977,321.7344
11:11:33:784,2.0064,2.0064,12.7965,45.4166,-0.0617,0.1802,-0.1747,321.7656
11:11:33:800,0.6224,1.1659,11.6928,45.6026,0.1936,0.9468,-0.6255,321.7812
11:11:33:820,-2.6791,0.0479,9.0425,45.7644,0.5504,1.3072,-0.9798,321.7188
11:11:33:839,-4.1512,-0.2874,7.6349,45.8031,0.7403,0.9786,-0.8387,321.7188
11:11:33:860,-3.3637,0.8835,7.6229,45.8572,0.6628,0.5113,-0.3512,321.8438
11:11:33:884,-1.9247,2.059,8.4033,45.956,0.3494,0.2651,0,321.8594
11:11:33:902,-1.2042,2.1619,9.8566,45.9688,-0.066,0.1778,0.0134,321.7031
11:11:33:920,-1.2927,1.4151,11.6186,45.8803,-0.3903,0.1539,-0.088,321.6875
11:11:33:940,-1.5562,0.9529,13.098,45.7865,-0.4807,0.1613,-0.0397,321.0312
11:11:33:960,-1.1157,1.3478,12.6912,45.8921,-0.3415,0.2517,0.1533,320.9531
11:11:33:979,-0.3377,1.6854,11.3384,45.6199,-0.2395,0.2547,0.2303,320.2656
11:11:34:002,0.0957,1.4605,11.4772,45.4875,-0.3696,-0.033,0.0849,319.5156
11:11:34:022,0.2034,0.4501,13.8523,45.4789,-0.573,-0.5052,-0.1509,319.5156
11:11:34:040,0.3281,-0.268,15.8871,45.1798,-0.5565,-0.6512,-0.248,319.1094
11:11:34:111,0.7516,-0.3544,15.5809,45.1175,-0.2022,-0.383,-0.1826,319.1094
11:11:34:112,1.4844,0.0263,12.842,45.1351,0.3323,0.047,-0.0733,319.9219
11:11:34:112,2.2337,0.5794,9.5022,45.2106,0.7098,0.201,-0.0935,319.9219
11:11:34:122,2.2768,0.51,7.7521,44.9804,0.711,-0.0324,-0.347,321.7969
11:11:34:140,1.2592,-0.4119,8.176,45.1739,0.3989,-0.3964,-0.7055,321.7969
11:11:34:163,-0.3808,-1.2592,9.4376,45.2436,0.0806,-0.606,-0.8851,322.2031
11:11:34:184,-1.4028,-1.386,9.4926,45.4375,-0.0226,-0.4759,-0.7312,322.2031
11:11:34:201,-1.4414,-0.8668,8.3172,45.6705,0.0134,-0.2358,-0.3842,322.2344
11:11:34:221,-0.917,0.0479,7.369,46.1559,0.0525,-0.1869,-0.0764,322.2344
11:11:34:239,-0.553,0.7493,7.4958,46.2443,0.0702,-0.3274,0.0507,322.0469
11:11:34:263,-0.3305,1.209,7.4408,46.4256,0.1759,-0.27,0.0257,322.0312
11:11:34:285,-0.5076,1.343,6.9308,46.6541,0.1796,-0.1252,0.0122,321.6719
11:11:34:301,-0.7588,1.4414,6.7155,46.8033,0.1435,-0.091,0.014,321.625
11:11:34:320,-0.6033,1.5754,7.1871,47.0789,0.1051,-0.2059,0.0348,322.0156
11:11:34:339,-0.3018,1.8553,8.0082,47.244,0.0977,-0.3732,0.0556,322.0469
11:11:34:360,0.28,2.2193,8.8487,47.4135,0.1558,-0.4893,0.0745,322.3281
11:11:34:385,0.754,2.6073,8.9563,47.2256,0.2254,-0.4056,0.025,322.3594
11:11:34:402,0.4717,2.5714,8.9874,47.3179,0.2022,-0.2657,-0.1381,322.8594
11:11:34:421,-0.3114,2.2552,9.641,47.3207,0.1527,-0.248,-0.2724,322.9062
11:11:34:440,-0.9912,2.0973,10.0983,47.0837,0.1888,-0.2779,-0.2254,324.5781
11:11:34:460,-0.8091,2.4156,10.4456,47.1596,0.2517,-0.2645,-0.0147,324.75
11:11:34:486,0.0837,2.9279,10.5365,47.2279,0.2107,-0.1435,0.1851,326.0312
11:11:34:499,1.075,3.2249,11.1805,47.2558,0.0263,-0.0715,0.2193,326.1094
11:11:34:524,1.1659,2.825,12.3559,47.297,-0.1912,-0.0318,0.0519,326.1094
11:11:34:540,0.3568,2.0399,12.9712,47.4393,-0.2963,0.1246,-0.1527,326.0938
11:11:34:562,-0.4645,1.4222,12.909,47.5376,-0.3286,0.2969,-0.2028,326.0938
11:11:34:584,-1.0606,0.8043,12.9521,47.7102,-0.3867,0.3225,-0.1417,326.0938
11:11:34:600,-1.4222,0.1077,13.4405,47.9756,-0.419,0.1808,-0.0446,326.0938
11:11:34:621,-1.209,-0.3832,13.893,47.947,-0.284,-0.0177,0.1106,326.0312
11:11:34:641,-0.9099,-0.5052,13.5434,47.9898,0.0214,-0.0941,0.281,326.0312
11:11:34:662,-0.2994,-0.1938,11.6043,48.227,0.3677,0.0385,0.4392,326
11:11:34:684,0.3688,0.3736,9.1167,48.3471,0.5266,0.1869,0.5046,326
11:11:34:701,0.6775,0.7325,7.8694,48.4025,0.3647,0.1008,0.4013,326.4531
11:11:34:722,0.3808,0.486,8.3985,48.4917,0.0122,-0.1607,0.1826,326.5
11:11:34:740,-0.1962,-0.1507,9.4567,48.6737,-0.2724,-0.3176,0.0153,326.7969
11:11:34:764,-0.7732,-0.1029,9.2243,48.8724,-0.347,-0.2718,0.0165,326.8125
11:11:34:784,-0.6679,0.0957,8.6737,49.112,-0.2676,-0.1704,0.1484,326.4375
11:11:34:805,-0.3162,0.3185,8.1616,49.3591,-0.1283,-0.1924,0.2975,326.4062
11:11:34:820,0.134,0.7062,7.9843,49.4437,0.3079,-0.6939,0.5174,326.4844
11:11:34:840,0.5363,1.1683,8.068,49.6185,0.5614,-0.9737,0.5559,326.5
11:11:34:859,0.7732,1.5826,7.4767,49.7236,0.7074,-0.9096,0.5412,326.7969
11:11:34:885,0.9362,1.8936,6.6556,49.8341,0.6139,-0.5956,0.5094,326.8125
11:11:34:901,1.0319,2.1093,6.2486,49.6537,0.3115,-0.2676,0.474,326.7344
11:11:34:920,1.2855,2.4371,6.5599,49.6796,-0.0525,-0.0812,0.4337,326.7344
11:11:34:939,1.5921,2.7939,7.6851,49.7496,-0.3476,-0.0391,0.3531,326.0156
11:11:34:960,1.6711,2.8466,9.009,49.686,-0.4862,-0.0312,0.201,325.9531
11:11:34:987,1.4821,2.6408,10.0887,49.4366,-0.4655,0.0073,0.0336,324.9375
11:11:35:001,1.0319,2.4156,10.6872,49.4198,-0.358,0.1008,-0.0794,324.75
11:11:35:021,0.5291,2.1308,10.5485,49.3561,-0.2492,0.2541,-0.1002,324.75
11:11:35:041,0.1962,1.6472,9.7965,49.2957,-0.2749,0.4704,-0.0037,324.6094
11:11:35:062,0.5554,1.4222,9.0832,49.3981,-0.5821,0.7471,0.2242,324.6094
11:11:35:084,1.1515,1.5754,9.6362,49.6359,-1.1124,0.9566,0.4007,323.875
11:11:35:102,1.4246,0.7062,11.9824,49.6585,-1.518,0.8369,0.2498,323.875
11:11:35:121,0.8477,-0.6272,13.5482,49.7736,-1.4368,0.6634,-0.069,322.8125
11:11:35:140,0.2946,-1.3262,13.1028,49.8994,-0.9981,0.6475,-0.1704,322.8125
11:11:35:162,0.1412,-0.9242,11.336,50.1232,-0.6115,0.6664,-0.0782,321.75
11:11:35:183,0.1149,-0.711,10.9385,50.3542,-0.5779,0.4624,-0.0757,321.75
11:11:35:204,-0.0957,-1.2616,12.2435,50.5125,-0.7752,0.1484,-0.1765,320.7812
11:11:35:222,0.0287,-1.9128,14.4915,50.7748,-0.868,-0.1399,-0.226,320.7812
11:11:35:241,-0.1125,-2.3079,15.9709,50.9428,-0.6011,-0.2621,-0.2211,320.25
11:11:35:263,0.6535,-1.5586,12.3847,50.9421,-0.0049,-0.1723,-0.0953,320.2031
11:11:35:287,1.8984,-0.4932,9.7965,51.0972,0.6163,0.0367,0.1411,320.2812
11:11:35:303,2.2792,0.0646,8.6354,51.3817,0.7135,0.0941,0.0574,320.2812
11:11:35:325,1.3693,-0.352,9.119,51.384,0.3506,0.025,-0.2798,320.3594
11:11:35:340,0.2034,-0.8644,9.9763,51.6228,0.1716,-0.022,-0.4704,320.3594
11:11:35:362,-0.4286,-0.874,9.495,51.8409,0.2981,0.0373,-0.419,319.6875
11:11:35:385,-0.2273,-0.4214,8.1975,51.9673,0.532,0.069,-0.2266,319.625
11:11:35:403,0.3425,0.309,7.1106,51.9562,0.6689,0.0324,-0.055,319.4219
11:11:35:420,0.7851,1.0128,6.5767,52.2259,0.6506,0.0226,0.0061,319.3906
11:11:35:440,1.1157,1.4533,6.3347,52.0711,0.5253,0.135,-0.0336,319.625
11:11:35:460,1.1157,1.4725,6.1505,52.3154,0.3054,0.394,-0.1448,319.6406
11:11:35:480,0.8524,1.2736,6.2988,52.3216,0.0177,0.6762,-0.2498,319.9062
11:11:35:501,0.5124,1.1587,6.8183,52.0996,-0.2236,0.8124,-0.2926,320.375
11:11:35:523,0.1795,1.2162,7.8861,52.3695,-0.2902,0.7019,-0.3079,320.375
11:11:35:540,-0.0431,1.276,8.7936,52.3253,-0.1527,0.4697,-0.3402,320.3281
11:11:35:563,-0.2393,1.2999,8.9348,52.473,0.0825,0.2761,-0.3775,320.3281
11:11:35:580,-0.3568,1.2736,9.0449,52.7554,0.2798,0.0635,-0.3958,320.0156
11:11:35:601,-0.7301,1.3406,9.4543,53.266,0.4044,-0.1833,-0.4074,320.0156
11:11:35:622,-1.1898,1.5682,10.1246,53.395,0.5021,-0.3964,-0.3836,320.8281
11:11:35:641,-1.2209,1.774,10.3232,53.6343,0.5412,-0.416,-0.306,320.8281
11:11:35:663,-0.8668,1.9008,10.6274,53.8583,0.4038,-0.3744,-0.234,321.4844
11:11:35:685,-0.9051,1.6998,11.8268,53.6218,0.1106,-0.3818,-0.2449,321.5469
11:11:35:704,-1.1037,0.984,13.4333,54.0242,-0.2004,-0.3134,-0.3048,321.625
11:11:35:723,-1.2688,0.1172,14.5561,54.244,-0.4471,-0.0886,-0.3164,321.625
11:11:35:740,-1.6543,-0.5722,15.3126,54.2727,-0.5711,0.1497,-0.2382,321.7969
11:11:35:765,-1.8314,-0.9051,14.9584,54.429,-0.46,0.2908,-0.0483,321.8125
11:11:35:785,-1.707,-0.862,14.1873,54.4462,-0.1252,0.2059,0.1613,322.2969
11:11:35:804,-1.5203,-0.6511,13.0717,54.666,0.3341,0.011,0.3005,322.3281
11:11:35:824,-0.4214,0.5865,7.6253,55.0088,0.9529,-0.0574,0.4569,323
11:11:35:841,-0.1268,1.2329,5.6333,55.499,0.7226,-0.2346,0.3604,323
11:11:35:861,-0.3473,0.9529,6.4953,55.5795,0.1961,-0.7061,0.1521,323.7656
11:11:35:885,-0.4143,0.4501,9.8662,55.8393,-0.2114,-1.3048,0.0159,323.8438
11:11:35:902,-0.6081,0.2584,12.4804,55.9156,-0.1613,-1.4655,-0.0092,324.7031
11:11:35:921,-0.4884,0.1077,11.2187,56.091,0.1692,-0.9297,0.0922,324.7812
11:11:35:941,0.2273,0.5148,8.1206,56.1462,0.3323,-0.2889,0.2889,325.4062
11:11:35:962,0.9218,0.8477,6.7418,56.3395,0.1264,-0.0525,0.3848,326.0469
11:11:35:985,1.0152,0.7253,7.6636,56.4418,-0.259,-0.1051,0.2743,326.0469
11:11:36:002,0.4023,0.122,9.4519,56.8179,-0.5211,-0.0776,0.0996,326.6719
11:11:36:021,-0.1484,-0.3353,10.1629,56.9819,-0.4581,0.1124,0.0654,326.6719
11:11:36:039,-0.2704,-0.297,9.0425,57.3091,-0.1319,0.3867,0.1778,326.5312
11:11:36:062,-0.1866,0.0311,7.0747,57.5949,0.1997,0.5369,0.3079,326.5312
11:11:36:086,0.1053,0.5076,6.1576,57.8232,0.3445,0.4325,0.3616,325.7969
11:11:36:101,0.3305,0.9601,5.7841,58.4033,0.3183,0.3128,0.3079,325.7969
11:11:36:181,0.376,1.1324,5.8678,58.6033,0.1637,0.2107,0.16,324.9688
11:11:36:182,0.1172,1.0917,6.9236,59.0411,-0.0275,0.0464,-0.0116,324.9688
11:11:36:182,-0.1651,0.984,8.7912,58.9486,-0.1643,-0.1167,-0.1417,324.9219
11:11:36:182,-0.3305,0.9123,10.3041,59.3474,-0.1906,-0.1203,-0.2052,324.9062
11:11:36:206,-0.4478,0.9362,10.9436,59.2946,-0.1338,-0.047,-0.2278,324.9844
11:11:36:224,-0.3401,1.0343,11.202,59.729,-0.069,-0.0599,-0.2285,324.9844
11:11:36:240,-0.1029,1.063,11.8627,59.9894,-0.0898,-0.1533,-0.2437,324.3281
11:11:36:264,0.0574,1.0032,13.9265,60.1553,-0.2822,-0.2333,-0.2309,324.2656
11:11:36:287,0.7469,1.0223,14.616,60.5415,-0.2297,-0.2291,-0.11,323.9219
11:11:36:306,1.7261,1.1874,13.7133,60.748,-0.0788,-0.1063,0.0098,323.875
11:11:36:324,2.339,1.2473,12.9209,61.0851,-0.069,-0.025,0.0299,323.5938
11:11:36:343,2.3821,0.7828,12.8755,61.4123,-0.3073,0.0696,-0.0159,323.5938
11:11:36:364,2.339,-0.1675,13.5075,61.7746,-0.6139,0.1075,-0.0281,322.8594
11:11:36:379,2.1595,-0.7516,14.1036,61.9815,-0.6762,0.0367,0.0208,322.7969
11:11:36:399,1.7812,-0.9194,13.9576,62.1209,-0.3677,-0.0452,0.0819,322.2812
11:11:36:420,1.8314,-0.8019,12.2937,62.2145,0.2169,-0.0568,0.1552,322.2344
11:11:36:440,2.3318,-0.3712,9.6841,62.3128,0.7648,-0.0397,0.1997,322.3906
11:11:36:460,2.624,-0.0096,7.4527,62.2701,0.9706,-0.1008,0.1038,322.4062
11:11:36:481,2.4873,-0.0335,6.5839,62.5821,0.7715,-0.2883,-0.124,322.8438
11:11:36:501,1.8864,-0.3305,6.8662,62.5197,0.317,-0.3726,-0.3506,323.4219
11:11:36:520,1.4198,-0.6105,7.0819,62.6335,-0.1026,-0.237,-0.452,323.4219
11:11:36:540,1.3023,-0.5722,6.682,62.8411,-0.317,-0.1466,-0.4661,324
11:11:36:562,1.0415,-0.1579,6.4953,63.1771,-0.2596,-0.4361,-0.4801,324
11:11:36:580,0.8812,0.6775,7.4862,63.5923,0.0812,-1.0672,-0.5149,324.1406
11:11:36:601,0.7564,1.2664,8.152,63.8397,0.6518,-1.4777,-0.6115,324.1406
11:11:36:621,0.6296,1.4677,7.0388,64.3174,1.1179,-1.27,-0.7373,324.1406
11:11:36:641,0.7851,1.4605,5.2549,64.3803,1.1398,-0.791,-0.7593,324.1406
11:11:36:663,0.7301,1.6448,4.398,64.7032,0.7135,-0.383,-0.6493,324.125
11:11:36:686,0.7732,1.8888,4.841,65.2617,0.0324,-0.069,-0.471,324.1562
11:11:36:706,0.6416,1.992,6.3036,65.5268,-0.6866,0.2498,-0.2816,323.8906
11:11:36:723,0.3784,1.7333,7.8335,65.7124,-1.2663,0.5999,-0.0971,323.8906
11:11:36:740,0.3616,1.5802,9.5907,65.9859,-1.5828,0.7452,0.1093,323.5781
11:11:36:763,0.5961,1.7668,11.6928,66.3743,-1.5364,0.6225,0.2889,323.5469
11:11:36:786,0.8644,1.8769,13.5625,66.5481,-1.1172,0.3806,0.3494,324.0312
11:11:36:802,0.9027,1.8529,14.336,66.9548,-0.4416,0.2156,0.2847,324.0781
11:11:36:825,0.7923,1.7836,13.6893,67.3821,0.2529,0.1655,0.1985,325.0312
11:11:36:842,0.8835,1.8529,12.8252,67.4607,0.689,0.1203,0.1625,325.125
11:11:36:863,0.9936,1.9391,12.3416,67.8187,0.5724,0.2407,0.0831,326.2031
11:11:36:885,0.9051,1.7477,11.7526,68.0845,0.2462,0.4392,0.0721,326.3125
11:11:36:902,0.984,1.3167,12.5139,68.3721,-0.0794,0.3861,0.0495,327.75
11:11:36:919,1.2688,0.6033,14.4269,68.6918,-0.2761,0.1216,-0.0312,327.8906
11:11:36:941,1.3502,-0.3784,15.7819,69.151,-0.2401,-0.0733,-0.1448,329.2656
11:11:36:963,1.0439,-1.2664,16.4163,69.579,0.0232,-0.1197,-0.2156,329.4062
11:11:36:980,0.4095,-1.6998,15.1283,69.8719,0.474,0.0647,-0.1588,330.2031
11:11:37:001,0.364,-1.4246,11.9656,70.03,0.9548,0.3598,0.0739,330.3594
11:11:37:021,1.1994,-0.5602,9.5477,70.274,1.1783,0.3726,0.3018,330.3594
11:11:37:041,1.9463,-0.0311,8.2525,70.6665,1.0207,0.2004,0.2712,329.75
11:11:37:061,1.6352,-0.0263,7.6564,70.6213,0.5418,0.1295,0.0128,329.75
11:11:37:086,0.7851,-0.4262,7.2254,70.7436,-0.077,0.2517,-0.1985,329.2031
11:11:37:103,-0.213,-0.9458,7.1656,70.758,-0.595,0.3995,-0.2266,329.2031
11:11:37:123,-0.6464,-1.2353,7.29,70.7246,-0.813,0.4581,-0.0501,328.8594
11:11:37:140,-0.1723,-1.1874,7.0098,70.6196,-0.7226,0.4557,0.2327,328.8281
11:11:37:163,0.6559,-0.8402,6.4834,70.9419,-0.5156,0.3964,0.4532,328.8125
11:11:37:187,1.1444,-0.1819,6.093,70.8249,-0.3744,0.2431,0.5424,328.5781
11:11:37:201,1.3406,0.3473,6.4041,70.6945,-0.2902,-0.0165,0.5461,328.5469
11:11:37:223,1.561,0.7014,6.4519,70.7242,-0.1704,-0.2004,0.4954,328.5469
11:11:37:240,1.7644,1.1587,6.1983,70.6898,-0.0696,-0.2682,0.4087,328.9531
11:11:37:263,1.7261,1.5586,6.2916,70.807,-0.1387,-0.3305,0.2633,328.9531
11:11:37:286,1.3071,1.5586,6.9045,70.8334,-0.405,-0.3647,0.0623,328.9844
11:11:37:304,0.687,1.3143,7.9292,71.1409,-0.7544,-0.2773,-0.1026,328.9844
11:11:37:324,-0.3233,0.7181,9.2892,71.2049,-1.2382,0.1393,-0.102,328.3125
11:11:37:342,-0.3281,0.8501,10.3929,71.2866,-1.2693,0.1576,0.0037,328.25
11:11:37:364,-0.2512,1.0415,11.3049,71.7362,-1.1301,0.1405,0.0647,328.3906
11:11:37:387,-0.0335,1.1922,12.1573,72.2042,-0.8454,0.0861,0.0501,328.4062
11:11:37:404,0.8186,1.3908,13.2419,72.3702,-0.5094,0.0061,-0.0269,328.625
11:11:37:420,2.2265,1.3454,14.0414,72.7487,-0.201,0.0043,-0.1778,328.6562
11:11:37:441,2.7461,0.8067,14.2615,72.926,0.033,0.0739,-0.4306,327.9219
11:11:37:460,1.707,-0.189,14.2926,73.0316,0.2089,-0.0336,-0.7422,327.8594
11:11:37:480,0.6224,-1.1276,13.9026,73.2733,0.3702,-0.2321,-0.8479,326.75
11:11:37:502,0.7828,-1.4462,12.8133,73.651,0.4856,-0.3207,-0.6053,325.7656
11:11:37:521,1.7883,-0.9338,12.1454,73.5532,0.4905,-0.3958,-0.2309,325.7656
11:11:37:540,3.122,-0.376,11.5636,73.7288,0.3543,-0.438,-0.0385,325.3594
11:11:37:560,3.7158,-0.3832,12.4253,73.8738,0.0806,-0.5504,-0.1582,325.3594
11:11:37:581,3.4594,-1.0175,13.5529,73.7651,-0.1332,-0.5143,-0.4044,325.6406
11:11:37:603,2.6097,-1.6974,13.5362,73.9051,-0.0812,-0.2694,-0.5595,325.6719
11:11:37:621,2.1332,-1.963,12.2937,73.878,0.2449,-0.0513,-0.5626,325.6719
11:11:37:640,2.0806,-1.8793,10.328,73.5947,0.6292,0.0165,-0.4972,325.8125
11:11:37:663,2.4802,-1.4629,8.7386,73.3337,0.8595,-0.0965,-0.4313,325.8125
11:11:37:687,3.134,-1.0319,7.7952,73.2754,0.8686,-0.2712,-0.4306,325.7188
11:11:37:703,3.4211,-0.7062,7.558,72.965,0.6725,-0.3482,-0.5388,325.9375
11:11:37:723,3.0141,-0.7397,7.6158,72.6725,0.3781,-0.2358,-0.7177,325.9375
11:11:37:740,2.2481,-0.9625,7.3953,72.4791,0.1216,0.0195,-0.8613,327.2344
11:11:37:763,1.4222,-0.9314,6.7107,72.101,-0.0385,0.3128,-0.8931,327.2344
11:11:37:786,0.6823,-0.6344,5.9901,71.9484,-0.1387,0.4923,-0.8356,328.6562
11:11:37:805,0.2034,-0.1507,5.7242,71.8065,-0.2107,0.493,-0.7312,328.7969
11:11:37:825,0.0144,0.3377,5.916,71.867,-0.2608,0.3702,-0.6316,329.0625
11:11:37:839,-0.1077,0.7421,6.2557,71.7507,-0.3066,0.2474,-0.5736,329.0938
11:11:37:864,-0.3209,1.3693,7.3881,71.6622,-0.3787,0.1936,-0.5229,329.6562
11:11:37:887,-0.2321,1.5179,8.2645,71.7303,-0.4685,0.1814,-0.4551,329.7031
11:11:37:900,-0.1268,1.5778,9.4065,71.5324,-0.5827,0.1582,-0.3812,330.8281
11:11:37:920,-0.0981,1.4462,10.7662,71.5336,-0.5021,0.16,-0.3812,330.9375
11:11:37:940,-0.2177,1.3406,11.8484,71.5048,-0.2822,0.2187,-0.3726,331.8125
11:11:37:961,-0.4741,1.2975,11.5684,71.3995,0.0122,0.383,-0.328,331.8906
11:11:37:980,-0.6775,1.3023,10.9313,71.1513,0.2327,0.4587,-0.2676,332.8125
11:11:38:001,-0.9721,1.2688,10.7375,70.9146,0.2688,0.4416,-0.2034,334.4688
11:11:38:021,-1.2209,1.051,11.0082,70.872,0.1692,0.452,-0.0867,334.4688
11:11:38:040,-1.1492,0.917,11.7646,70.5921,0.0605,0.4752,0.088,336.5156
11:11:38:060,-0.8477,0.9194,12.4038,70.579,0.0269,0.5027,0.248,336.5156
11:11:38:081,-0.8931,0.941,12.6793,70.5977,0.0696,0.5443,0.336,336.5312
11:11:38:102,-1.1492,0.7253,12.1932,70.4914,0.1472,0.5876,0.3903,338
11:11:38:121,-1.2712,0.7971,11.779,70.3567,0.1729,0.5217,0.4759,338
11:11:38:141,-0.9721,0.9051,11.4891,70.1846,0.0831,0.3726,0.5473,339.2188
11:11:38:162,-0.4071,0.3736,12.2363,70.1541,-0.1387,0.1087,0.4985,339.2188
11:11:38:188,-0.6535,-0.7397,14.3264,69.7127,-0.3506,-0.1906,0.358,340.1719
11:11:38:248,-1.3406,-1.5562,15.0063,69.5509,-0.2498,-0.1771,0.3653,341.0156
11:11:38:249,-1.8242,-1.9944,12.8348,69.08,0.2046,0.0794,0.6017,341.0156
11:11:38:249,-1.1635,-1.3502,10.0385,68.8489,0.708,0.1106,0.9993,341.7969
11:11:38:265,0.5171,-0.2106,9.076,68.4529,0.9126,-0.3115,1.2284,341.7969
11:11:38:281,1.7357,0.0167,9.6147,68.2652,0.7122,-0.675,1.0592,342.2656
11:11:38:301,1.4127,-0.6464,10.1845,68.0925,0.3292,-0.5626,0.744,342.3125
11:11:38:324,0.8163,-0.9529,10.8236,67.7502,0.0764,-0.2169,0.6273,342.2969
11:11:38:340,0.6248,-0.9123,10.1605,67.5951,0.1264,0.1765,0.6866,342.2969
11:11:38:363,0.3736,-0.3616,6.8638,67.6651,0.4441,0.5644,0.7691,341.6562
11:11:38:385,0.1125,0.0383,5.7745,67.8482,0.3115,0.5889,0.733,341.6562
11:11:38:404,-0.2345,0.1101,5.7242,67.6855,0.0782,0.463,0.6487,340.7812
11:11:38:421,-0.4621,0.0072,6.227,67.5751,-0.0538,0.2486,0.5889,340.7031
11:11:38:440,-0.3257,0.0766,6.4546,67.4351,-0.0348,0.0935,0.6261,339.6406
11:11:38:459,0.1938,0.5794,6.2629,67.2746,0.0501,0.0415,0.7446,339.5312
11:11:38:482,0.8548,1.2066,6.2797,67.2168,0.0641,0.0006,0.7929,338.7812
11:11:38:504,1.2855,1.841,6.6413,67.0893,-0.0483,-0.0189,0.6829,337.1406
11:11:38:520,1.4055,2.0782,7.3881,66.8138,-0.2352,-0.0373,0.4184,337.1406
11:11:38:540,1.2832,1.7931,9.0473,66.4875,-0.4038,-0.1014,0.0916,334.5469
11:11:38:561,1.2257,1.4366,11.5469,66.2985,-0.3928,-0.1778,-0.1399,334.5469
11:11:38:581,1.0295,1.3454,12.7917,66.2788,-0.1026,-0.11,-0.2486,334.5312
11:11:38:603,0.4549,1.3765,11.9704,66.0885,0.3207,0.0171,-0.3207,333.0781
11:11:38:620,0.4358,1.5275,10.436,65.8796,0.5779,0.0037,-0.3476,333.0625
11:11:38:640,0.7516,1.6687,10.0002,65.751,0.4386,-0.1344,-0.3952,331.4844
11:11:38:663,0.7086,1.386,10.8476,65.816,-0.0043,-0.2266,-0.482,331.4688
11:11:38:686,0.4884,0.7995,12.708,65.7195,-0.4532,-0.2175,-0.5033,329.7812
11:11:38:705,0.5506,0.4549,13.1674,65.5554,-0.6243,-0.0177,-0.3824,328.375
11:11:38:723,0.8788,0.443,12.5306,65.507,-0.5382,0.0825,-0.2022,328.375
11:11:38:740,1.5323,0.4167,12.7893,65.3369,-0.4044,-0.1454,-0.1258,326.8594
11:11:38:762,2.0351,0.0933,13.8835,65.4515,-0.3555,-0.3873,-0.2156,326.8594
11:11:38:781,1.5419,-0.6727,14.7811,65.5054,-0.336,-0.3854,-0.4062,325.2344
11:11:38:802,0.5674,-1.1085,14.2472,65.3717,-0.1637,-0.1411,-0.4844,325.2344
11:11:38:822,0.2465,-1.0008,11.8723,65.2698,0.2187,0.1313,-0.3158,324.7031
11:11:38:840,1.3071,-0.1388,9.6171,64.9773,0.6286,0.0849,-0.0464,324.6406
11:11:38:865,3.6823,1.142,8.4894,64.8848,0.6237,-0.3867,-0.3299,325.0625
11:11:38:888,3.0236,0.3066,9.5213,64.7417,0.179,-0.3036,-0.8643,325.0625
11:11:38:902,1.3932,-0.0694,10.4408,64.5655,-0.1411,0.0232,-1.2101,325.75
11:11:38:923,0.4597,0.1675,9.3562,64.3857,-0.091,0.4404,-1.2272,325.8281
11:11:38:939,0.3066,0.7971,7.5652,64.2345,0.1374,0.5913,-1.1673,326.7344
11:11:38:961,-0.297,1.0271,6.2868,64.0369,0.2468,0.4722,-1.2223,327.7031
11:11:38:981,-1.3214,0.644,6.2916,63.7175,0.2016,0.2162,-1.2999,327.7031
11:11:39:004,-2.1212,0.3712,6.5145,63.6665,0.1405,0.0745,-1.2174,328.0938
11:11:39:020,-2.205,0.4358,6.1433,63.6318,0.0916,0.1271,-0.9493,328.0938
11:11:39:040,-1.9175,0.8907,5.6357,63.6231,-0.0006,0.2199,-0.6463,328.8281
11:11:39:060,-1.5108,1.3502,5.6453,63.5474,-0.1704,0.226,-0.4398,328.8281
11:11:39:080,-1.0175,1.5969,6.5121,63.3032,-0.3702,0.1197,-0.3476,328.8438
11:11:39:104,-0.9721,1.5323,7.8574,63.1316,-0.5149,-0.0116,-0.347,329.7188
11:11:39:121,-1.2664,1.2138,9.3299,63.2224,-0.5614,-0.0916,-0.358,329.7188
11:11:39:141,-1.4821,1.0295,10.3615,63.1946,-0.5058,-0.0764,-0.273,329.8125
11:11:39:162,-1.343,1.1707,11.056,63.3742,-0.3751,-0.0189,-0.091,329.8125
11:11:39:186,-0.8378,1.6041,11.4844,63.2286,-0.1973,0.0275,0.08,331.1562
11:11:39:203,-0.6272,1.9801,11.6234,63.1866,-0.0104,0.0739,0.1478,333.7969
11:11:39:221,-0.7014,1.9056,11.2881,62.9029,0.1643,0.0739,0.1222,333.7969
11:11:39:240,-0.8115,1.7357,11.3312,63.1547,0.2511,-0.0171,0.0837,336.3906
11:11:39:261,-0.929,1.4677,11.6737,63.021,0.1906,-0.0464,0.0702,336.3906
11:11:39:281,-0.8477,1.1515,11.5277,62.9565,0.0367,0.0483,0.0947,339.1562
11:11:39:305,-0.5363,0.7469,11.968,62.8408,-0.1851,0.0861,0.1173,339.1562
11:11:39:321,-0.5913,0.1316,13.4572,62.6484,-0.427,0.0354,0.0782,340.75
11:11:39:341,-1.0295,-0.8019,14.5537,62.3381,-0.5278,0.0611,0.055,340.9062
11:11:39:363,-1.439,-1.4797,14.7141,62.0051,-0.3952,0.1173,0.1454,341.6562
11:11:39:380,-1.494,-1.6519,13.7877,62,-0.058,0.1093,0.3372,341.7344
11:11:39:403,-1.0941,-1.276,12.0374,61.7145,0.3317,0.0134,0.5339,342.4062
11:11:39:423,-0.3879,-0.6105,10.4312,61.6212,0.5546,-0.1344,0.6591,342.4688
11:11:39:439,0.7947,0.4023,9.4854,61.2148,0.2095,-0.2242,0.5687,342.7969
11:11:39:460,0.3832,0.1771,9.9763,60.9658,-0.1393,-0.124,0.3922,342.8281
11:11:39:480,-0.2704,-0.1579,10.3591,60.9019,-0.3091,0.0049,0.2902,342.5938
11:11:39:504,-0.8524,-0.1938,9.9045,61.1071,-0.2101,0.102,0.2963,342.3906
11:11:39:520,-0.9793,-0.0766,8.7936,60.9945,0.0464,0.0788,0.3653,342.3906
11:11:39:539,-0.9505,0.0311,7.7282,60.8123,0.2657,-0.0397,0.4227,342.3594
11:11:39:559,-0.9529,-0.0335,7.314,60.5228,0.3103,-0.1594,0.4429,342.2188
11:11:39:581,-1.0152,-0.2465,7.8359,60.0727,0.212,-0.2236,0.4691,342.2031
11:11:39:604,-0.9338,-0.4071,8.5373,60.0966,0.1338,-0.193,0.5363,341.9531
11:11:39:622,-0.5339,-0.2441,8.5708,59.9714,0.19,-0.1197,0.6408,341.9375
11:11:39:642,0.0431,0.2827,7.9866,59.2667,0.3323,-0.1045,0.7104,341.6719
11:11:39:662,0.553,0.7756,7.4815,58.782,0.4264,-0.1594,0.6713,341.6719
11:11:39:681,0.766,0.996,7.1273,58.4559,0.4025,-0.1906,0.5302,340.7344
11:11:39:701,0.6296,0.9912,7.0603,58.4697,0.2572,-0.1643,0.3573,339.3281
11:11:39:723,0.256,0.8501,7.6062,58.3878,0.0446,-0.1228,0.2162,339.3281
11:11:39:740,-0.1149,0.7804,8.4009,58.6755,-0.113,-0.08,0.1393,338.2812
11:11:39:763,-0.1125,0.9482,8.9348,58.4121,-0.1741,-0.047,0.1313,338.2812
11:11:39:783,0.1555,1.2999,9.5237,58.2189,-0.2034,-0.0794,0.1289,337.6094
11:11:39:805,0.6775,1.6639,10.5413,58.5154,-0.223,-0.1888,0.0904,337.6094
11:11:39:824,1.2162,1.8505,11.2977,58.6389,-0.1949,-0.3091,-0.0037,336.8281
11:11:39:840,1.3214,1.5993,12.3392,58.6047,-0.1735,-0.4636,-0.1735,336.7656
11:11:39:865,1.008,0.711,13.1988,58.3537,-0.1704,-0.3427,-0.3244,335.7812
11:11:39:887,1.0558,0.5291,12.5067,58.1818,-0.2022,-0.1869,-0.292,335.7812
11:11:39:905,1.2712,-0.0646,12.4325,57.9489,-0.3115,-0.2022,-0.3011,334.625
11:11:39:925,1.1085,-0.9194,13.4572,58.1189,-0.4606,-0.2944,-0.3439,333.1719
11:11:39:940,0.6727,-1.7572,14.3671,58.1369,-0.4642,-0.3036,-0.3231,333.1719
11:11:39:964,0.5195,-2.1452,13.759,57.8629,-0.2193,-0.168,-0.1344,333.0312
11:11:39:980,1.3095,-1.7501,11.6809,57.8374,0.1662,-0.0342,0.2175,332.1719
11:11:40:000,2.9877,-0.6942,9.5668,57.8791,0.4697,-0.0757,0.5101,332.0781
11:11:40:021,4.2401,0.2465,8.2095,58.1154,0.5082,-0.2211,0.4911,331.7344
11:11:40:040,4.113,0.4501,7.7737,58.1276,0.273,-0.2853,0.1967,331.7031
11:11:40:060,3.05,0.0981,7.7833,58.0704,-0.0593,-0.2156,-0.1271,331.4531
11:11:40:080,1.7118,-0.2273,7.6205,57.9393,-0.2944,-0.0715,-0.2877,331.4219
11:11:40:104,0.9769,-0.2249,7.4025,58.1061,-0.3732,0.0183,-0.2223,331.3438
11:11:40:121,0.9362,0.1914,6.9882,58.2436,-0.3317,0.047,-0.0385,331.3438
11:11:40:141,1.2664,0.9003,6.6532,58.2052,-0.2572,0.0171,0.1106,331.9219
11:11:40:160,1.5993,1.5036,6.6078,58.465,-0.2101,-0.0397,0.1326,331.9219
11:11:40:181,1.5634,1.8075,6.6054,58.3083,-0.2077,-0.0489,0.0391,332.625
11:11:40:204,1.3765,1.8386,6.8973,58.4288,-0.2492,-0.0501,-0.091,333.3594
11:11:40:223,1.2138,1.762,7.3259,58.374,-0.3109,-0.0263,-0.1912,333.3594
11:11:40:241,1.075,1.6807,7.7498,58.3734,-0.3934,0.0507,-0.2553,333.8906
11:11:40:314,0.8979,1.6041,8.432,58.344,-0.4746,0.1191,-0.2999,333.8906
11:11:40:314,0.6176,1.4414,9.2868,58.4981,-0.5113,0.1674,-0.3329,333.0938
11:11:40:315,0.1842,1.2449,10.1151,58.4577,-0.46,0.1912,-0.3396,333.0938
11:11:40:324,-0.1795,1.13,10.4791,58.4008,-0.3195,0.2248,-0.2944,332.3594
11:11:40:342,-0.4071,1.1324,10.637,58.4205,-0.1716,0.2431,-0.1949,332.3594
11:11:40:364,-0.4932,0.9458,11.403,58.5013,0.0189,0.0489,0.0287,332.7656
11:11:40:387,-0.4047,0.6918,12.2578,58.7725,0.025,-0.091,0.1301,332.8125
11:11:40:404,-0.1986,0.4956,13.1842,58.8883,-0.025,-0.0996,0.2425,333.0938
11:11:40:424,0.1029,0.3233,13.4955,59.0802,-0.102,0.0886,0.3506,333.1094
11:11:40:441,0.1579,0.079,13.9887,59.0544,-0.2101,0.2657,0.4044,332.8906
11:11:40:461,0.3305,-0.4956,14.7332,59.4617,-0.2425,0.3256,0.4245,332.8594
11:11:40:480,0.5171,-1.2927,14.9154,59.5646,-0.1319,0.2908,0.4264,332.9219
11:11:40:503,0.6894,-2.0471,15.4564,59.6805,0.0825,0.0586,0.4215,332.9375
11:11:40:522,0.5243,-2.557,15.5522,59.8057,0.4441,-0.1484,0.4294,333.375
11:11:40:540,0.4143,-2.5184,13.1916,59.9801,0.937,-0.036,0.529,333.4375
11:11:40:560,1.0965,-1.7979,9.6601,60.3118,1.2559,0.1851,0.7037,334.0781
11:11:40:580,1.9753,-0.9482,7.1393,60.3253,1.1496,0.1961,0.7556,334.1406
11:11:40:604,2.2026,-0.4023,6.6748,60.5465,0.6799,0.0409,0.5986,334.8438
11:11:40:622,1.6711,-0.754,8.0034,60.8219,0.0928,-0.0745,0.3396,334.8438
11:11:40:641,0.5267,-1.209,8.7673,61.2896,-0.2572,0.0519,0.1735,335.1562
11:11:40:660,-0.4789,-1.2688,8.1111,61.7087,-0.2633,0.2364,0.1967,335.1562
11:11:40:680,-0.687,-0.9912,7.2565,62.1017,-0.0965,0.2028,0.3549,334.9844
11:11:40:705,-0.5459,-0.4932,6.5264,62.4818,0.0751,0.0189,0.5156,334.3281
11:11:40:723,-0.2441,-0.067,6.3514,62.7593,0.1417,-0.1912,0.6212,334.3281
11:11:40:740,0.0957,0.2752,6.5408,63.3194,0.1081,-0.3128,0.6951,333.4219
11:11:40:763,0.4525,0.6248,6.8136,63.9168,0.0562,-0.3372,0.7507,333.4219
11:11:40:787,0.7325,1.142,6.9739,64.1426,0.0519,-0.3775,0.7825,332.5
11:11:40:804,1.2114,1.7094,7.2661,64.3357,0.1063,-0.507,0.7892,332.5
11:11:40:823,1.9801,2.2241,7.8096,64.7859,0.182,-0.6719,0.7544,331.4375
11:11:40:841,2.6767,2.6192,8.6163,64.999,0.1991,-0.7348,0.6322,331.4375
11:11:40:863,3.1866,2.6958,9.5333,65.2474,0.1081,-0.6622,0.4166,329.9844
11:11:40:890,2.3318,1.6878,11.5804,65.6403,-0.1924,-0.2633,-0.1307,329.8438
11:11:40:905,1.7668,1.1898,11.7766,66.0846,-0.2016,-0.0574,-0.2407,328.8906
11:11:40:923,1.6591,0.8955,11.9034,66.2445,-0.1161,-0.0257,-0.2547,328.7969
11:11:40:943,1.7381,0.6033,12.0135,66.565,0.0098,-0.1051,-0.2584,328.4062
11:11:40:964,1.7596,0.1292,12.1789,66.9689,0.099,-0.1912,-0.281,328.375
11:11:40:979,1.6424,-0.3712,12.6168,67.3269,0.0971,-0.2205,-0.273,327.5
11:11:41:001,1.7333,-0.6368,12.1693,67.7232,0.0727,-0.0678,-0.16,327.4062
11:11:41:022,2.1978,-0.5148,11.2953,68.3077,0.0415,0.0574,-0.0202,326.125
11:11:41:041,2.7604,-0.4238,11.3169,68.6993,-0.0647,-0.0055,0.0073,325.9844
11:11:41:060,3.0332,-0.7828,12.5187,68.8594,-0.2443,-0.1509,-0.1344,324.4844
11:11:41:080,2.4802,-1.6615,13.8093,69.2365,-0.3616,-0.1753,-0.3482,324.3281
11:11:41:104,1.6137,-2.2098,14.1299,69.4204,-0.2694,-0.0226,-0.4135,322.8281
11:11:41:121,1.3286,-2.1165,12.3105,69.642,0.0507,0.2828,-0.2101,322.6719
11:11:41:140,2.3079,-1.1635,9.6697,69.5792,0.4587,0.4404,0.1466,321.5625
11:11:41:161,3.5743,-0.0311,7.812,69.7946,0.722,0.2779,0.3115,321.5469
11:11:41:181,4.3908,0.8258,7.2254,69.9084,0.7086,-0.0092,0.1649,321.5938
11:11:41:205,4.0507,1.0271,7.3283,70.0785,0.4197,-0.1515,-0.2272,322.1562
11:11:41:223,2.5977,0.5267,7.5293,70.0687,0.0067,-0.044,-0.6176,322.1562
11:11:41:242,1.3238,0.1196,7.3499,70.3009,-0.3011,0.2028,-0.7397,322.7656
11:11:41:264,0.7158,0.0694,7.1249,70.4238,-0.4288,0.3305,-0.6383,322.7656
11:11:41:281,0.6153,0.3736,7.2111,70.6481,-0.4135,0.2767,-0.4716,323.25
11:11:41:299,0.778,0.8234,7.2087,70.8012,-0.2865,0.1924,-0.3299,323.25
11:11:41:321,0.9625,1.2592,6.8638,71.0405,-0.1381,0.1539,-0.2578,323.2656
11:11:41:340,1.1133,1.5514,6.6748,71.2703,-0.069,0.1228,-0.2584,323.2656
11:11:41:363,1.1157,1.6735,6.725,71.3953,-0.0959,0.0947,-0.3103,323.7812
11:11:41:381,0.8931,1.6184,7.0173,71.6888,-0.1955,0.0696,-0.3873,323.8281
11:11:41:401,0.7851,1.4868,7.6851,71.715,-0.3341,0.0342,-0.4221,324.4531
11:11:41:425,0.8091,1.4892,8.9372,71.8896,-0.5742,0.0886,-0.3659,324
11:11:41:442,0.7181,1.4629,10.3065,72.1288,-0.5821,0.215,-0.3225,324
11:11:41:464,0.3353,1.3286,11.6833,72.5454,-0.4704,0.2963,-0.2413,323.9375
11:11:41:487,0.3999,1.4222,11.755,72.7107,-0.259,0.2388,-0.1197,323.9531
11:11:41:504,0.687,1.4964,12.2028,72.7924,-0.0385,0.0293,-0.0257,323.9688
11:11:41:521,0.6488,1.1683,13.0382,72.7763,0.1045,-0.1869,-0.0428,325.3125
11:11:41:540,0.376,0.4621,14.0677,73.1396,0.1759,-0.3183,-0.1118,325.4531
11:11:41:560,0.4525,-0.0311,14.2496,73.5747,0.2315,-0.2382,-0.066,326.5625
11:11:41:580,0.4693,-0.1053,14.027,73.8112,0.2346,-0.069,0.0525,326.6719
11:11:41:604,0.2752,-0.146,13.6463,74.0816,0.1729,0.0812,0.1552,327.2656
11:11:41:621,0.2946,-0.2656,13.2012,74.3641,0.1081,0.1723,0.2535,327.3281
11:11:41:641,0.4813,-0.268,12.9688,74.5195,0.1197,0.171,0.3677,327.9375
11:11:41:661,0.486,-0.1484,12.3344,74.5446,0.2688,0.1698,0.4594,327.9531
11:11:41:680,0.3712,-0.0814,11.202,74.8349,0.5339,0.1704,0.5027,328.8438
11:11:41:704,0.5961,0.1651,9.4017,74.9701,0.7868,0.157,0.5437,329.7031
11:11:41:723,1.008,0.6918,8.0417,74.828,0.8301,0.0195,0.5418,329.7031
11:11:41:739,1.5036,0.7756,8.365,74.8231,0.5736,-0.2541,0.4258,330.3438
11:11:41:763,1.8912,0.3233,9.8495,74.6094,0.182,-0.419,0.2419,330.3438
11:11:41:781,1.8386,0.0072,11.2762,74.5688,-0.088,-0.3488,0.0764,330.5156
11:11:41:800,1.4581,-0.201,11.4509,74.4879,-0.091,-0.0953,-0.036,330.5156
11:11:41:822,1.1444,-0.3544,10.34,74.4413,0.1393,0.1649,-0.0825,330.6875
11:11:41:841,0.9099,-0.2994,8.9061,74.3677,0.4478,0.2682,-0.077,330.6875
11:11:41:865,0.7158,-0.268,7.8,74.366,0.7055,0.2223,-0.0916,330.7031
11:11:41:881,0.3568,-0.4167,7.4288,74.2381,0.8894,0.1106,-0.1607,330.7031
11:11:41:901,0.0072,-0.4884,6.5695,74.3531,1.0281,0.1692,-0.1784,330.2812
11:11:41:924,-0.2608,-0.1962,5.219,74.334,1.0354,0.3482,-0.0874,330.2344
11:11:41:940,-0.2082,0.6368,4.2329,74.2521,0.8509,0.408,0.091,329.4062
11:11:41:965,0.2536,1.4892,4.2927,74.2932,0.4966,0.2944,0.2327,329.3125
11:11:41:982,0.9027,2.083,5.9016,74.4435,-0.2859,-0.0458,0.19,328.2344
11:11:41:999,1.4988,2.6671,9.8303,74.3236,-0.4655,0.0147,0.0641,328.125
11:11:42:022,1.3693,2.6623,10.7375,74.1682,-0.4135,0.1301,-0.08,327.1562
11:11:42:041,1.2162,2.5881,10.7734,74.2879,-0.2236,0.1796,-0.2022,327.0469
11:11:42:060,1.2568,2.4299,11.2905,74.2676,-0.0739,0.0544,-0.2969,326.75
11:11:42:080,1.3071,2.1236,12.1645,74.1463,-0.0037,-0.1093,-0.3732,326.7344
11:11:42:105,1.3525,1.6184,12.6649,74.0662,0.058,-0.1967,-0.4184,326.8438
11:11:42:121,1.1396,1.2616,13.4166,74.1665,0.1209,-0.2608,-0.3891,326.8594
11:11:42:141,1.3095,1.1683,13.1578,74.0037,0.234,-0.1576,-0.2315,326.9844
11:11:42:161,1.6639,1.1396,11.1494,74.2098,0.3091,0.0941,-0.0324,326.9844
11:11:42:179,2.2217,1.4868,10.6657,73.9924,0.1478,0.0147,0.0727,327.2969
11:11:42:201,3.0093,1.2377,11.8101,73.8305,-0.2016,-0.1607,0.0122,327.1875
11:11:42:223,2.4993,0.2704,13.5697,73.6729,-0.5272,-0.1429,-0.1723,327.1875
11:11:42:242,2.0183,-0.1842,14.185,73.637,-0.5021,0.0195,-0.2022,326.625
11:11:42:264,2.1069,0.2608,12.8061,73.5285,-0.0916,0.1808,-0.0867,326.625
11:11:42:281,2.9471,1.0128,10.34,73.4516,0.4624,0.1918,0.0385,326.3438
11:11:42:299,4.1847,1.8505,8.243,73.5516,0.7898,0.014,0.0079,326.3438
11:11:42:322,4.654,2.1284,7.4121,73.3517,0.6475,-0.1698,-0.295,326.625
11:11:42:383,3.5408,1.4486,7.922,73.2013,0.1576,-0.1527,-0.7196,326.625
11:11:42:384,1.6878,0.8163,8.5756,73.0813,-0.295,0.1374,-0.9346,327.3594
11:11:42:384,0.4047,0.7923,7.8766,73.0434,-0.4355,0.5198,-0.8601,327.3594
11:11:42:401,-0.0622,1.4557,7.0196,73.0993,-0.3451,0.6102,-0.6927,328.2031
11:11:42:426,-0.1053,2.1021,7.3786,72.9137,-0.1759,0.3225,-0.6206,328.5625
11:11:42:441,-0.6057,1.8314,7.7474,72.4793,-0.1784,0.3683,-0.6622,328.5625
11:11:42:465,-1.0558,1.6256,8.0536,72.3011,-0.1753,0.5058,-0.5992,328.5938
11:11:42:489,-1.0869,1.6902,7.9914,72.0647,-0.1118,0.6377,-0.4392,328.5312
11:11:42:503,-0.7995,1.8984,7.7952,72.075,-0.0183,0.6658,-0.2749,328.5156
11:11:42:521,-0.4525,2.0853,7.8024,72.2086,0.0562,0.5675,-0.1619,328.9219
11:11:42:540,-0.1244,2.1978,8.499,71.9792,0.0916,0.3659,-0.1258,328.9531
11:11:42:561,0.1388,2.2887,9.198,71.6936,0.1069,0.2553,-0.1338,328.9688
11:11:42:580,-0.0287,2.4562,9.318,71.8538,0.091,0.317,-0.146,328.9688
11:11:42:606,-0.2608,2.7652,8.9109,71.9319,0.044,0.4337,-0.1203,329.2656
11:11:42:622,-0.3329,2.9734,8.6306,71.6985,-0.036,0.4129,-0.0867,329.2812
11:11:42:640,-0.297,2.892,9.5931,71.8321,-0.1588,0.2022,-0.0867,330.9375
11:11:42:660,-0.3497,2.5594,10.9289,71.5654,-0.2651,0.0434,-0.1045,331.0938
11:11:42:680,-0.7086,2.205,11.566,71.2372,-0.2981,0.0825,-0.1106,332.6875
11:11:42:705,-1.0175,1.7812,11.4341,71.1954,-0.306,0.193,-0.0709,333.9375
11:11:42:722,-1.3932,1.4844,11.6043,71.0971,-0.361,0.1894,-0.0098,333.9375
11:11:42:740,-1.4294,1.1803,12.2004,70.7987,-0.452,0.0916,0.0666,335.2188
11:11:42:764,-1.1898,0.7708,12.9233,70.5854,-0.5278,-0.0122,0.1472,335.2188
11:11:42:781,-0.7971,0.3544,14.1108,70.5759,-0.5272,-0.1362,0.2114,335.8906
11:11:42:800,-0.7086,0.0263,14.5729,70.3839,-0.3561,-0.1118,0.2669,335.8906
11:11:42:823,-0.9793,-0.0431,12.5928,70.4897,-0.0263,0.135,0.336,336.125
11:11:42:840,-0.9266,0.2345,10.0098,70.3408,0.2639,0.2077,0.4306,336.125
11:11:42:862,-0.079,0.8501,8.9324,70.1532,0.3286,-0.0861,0.5021,336.3906
11:11:42:883,1.0654,1.5012,9.9882,70.0354,0.1716,-0.4862,0.4526,336.3906
11:11:42:905,1.8338,1.6448,10.85,69.7036,-0.0299,-0.5449,0.284,336.5312
11:11:42:925,1.8362,1.5108,10.8691,69.4415,-0.1313,-0.3311,0.0782,336.5312
11:11:42:941,1.1157,1.185,10.0696,69.2643,-0.0898,-0.0916,-0.1295,336.6719
11:11:42:965,0.2201,0.7588,8.8965,68.8001,0.0519,0.0464,-0.2779,336.6875
11:11:42:988,-1.0415,0.1077,6.6652,68.6083,0.2822,0.0367,-0.2834,336.7969
11:11:43:006,-1.3765,0.0191,6.3012,68.442,0.2431,-0.0324,-0.1735,336.8125
11:11:43:022,-1.4557,0.1412,6.1983,68.2888,0.1344,-0.1045,-0.0147,336.6875
11:11:43:040,-1.2497,0.4908,6.6197,67.9156,0.0116,-0.2175,0.1454,336.6719
11:11:43:059,-0.8378,0.9218,7.2182,67.8272,-0.0709,-0.3005,0.2559,336.25
11:11:43:080,-0.3999,1.2592,7.6947,67.6124,-0.1252,-0.3464,0.3048,336.2031
11:11:43:103,-0.1172,1.5562,8.3411,67.4312,-0.1869,-0.3867,0.2877,335.5625
11:11:43:119,0.0861,1.7644,9.2988,67.5643,-0.2395,-0.4294,0.2254,335.5
11:11:43:140,0.2249,1.9343,10.0887,67.2366,-0.237,-0.4215,0.1545,334.6094
11:11:43:160,0.4908,2.26,10.6226,67.0023,-0.1625,-0.3763,0.124,334.5156
11:11:43:180,1.0774,2.7078,10.6179,66.9664,-0.0367,-0.3213,0.1271,333.7812
11:11:43:200,1.695,3.0117,10.6585,66.9861,0.0593,-0.3525,0.0794,333.8594
11:11:43:221,2.2457,2.9016,11.5373,66.954,0.0782,-0.496,-0.0544,333.8594
11:11:43:240,2.461,2.3318,12.545,67.0938,0.0617,-0.576,-0.2529,334.5156
11:11:43:263,2.2816,1.5275,13.4716,66.8774,0.0391,-0.5149,-0.4337,334.5156
11:11:43:282,1.5347,1.0654,13.759,66.6072,0.0599,-0.281,-0.4813,335.0625
11:11:43:304,1.075,0.9075,12.4852,66.7264,0.1307,0.0165,-0.3683,335.0625
11:11:43:321,1.5706,0.8501,11.9656,66.7785,0.1112,0.0147,-0.2321,334.9531
11:11:43:340,2.4275,0.6392,12.4325,66.5064,-0.0672,-0.1155,-0.2242,334.9531
11:11:43:362,2.3127,-0.2728,13.6846,66.3702,-0.3268,-0.2132,-0.4044,334.3906
11:11:43:381,1.1803,-1.2832,14.8528,66.3479,-0.3879,-0.226,-0.5699,334.3906
11:11:43:406,0.3425,-1.6807,13.675,65.9033,-0.0855,-0.0104,-0.5058,333.9062
11:11:43:423,0.2034,-1.2473,10.436,65.8241,0.3934,0.3079,-0.2425,333.8594
11:11:43:441,0.7756,-0.3497,7.2733,65.7048,0.6231,0.4594,0.0281,333.625
11:11:43:464,2.3294,1.1468,6.5886,65.3098,0.1283,0.0764,0.0024,333.5938
11:11:43:483,1.8075,0.8043,7.8048,65.1121,-0.2437,-0.0134,-0.3488,333.4375
11:11:43:503,0.8043,0.1771,8.688,65.1808,-0.4306,0.0794,-0.5937,333.4219
11:11:43:523,-0.0479,0.1507,8.2908,65.0593,-0.3592,0.2871,-0.5931,333.7969
11:11:43:540,-0.28,0.5913,7.0866,64.8273,-0.1545,0.4178,-0.474,333.8281
11:11:43:561,-0.309,1.0702,6.0284,64.9068,-0.0098,0.3842,-0.394,334.7969
11:11:43:579,-0.2058,1.4916,5.6022,64.5844,-0.011,0.2566,-0.3714,334.8906
11:11:43:600,-0.0742,1.9008,5.7984,64.5917,-0.1362,0.1289,-0.3873,335.5
11:11:43:622,0.0981,1.8553,6.5767,64.7978,-0.3433,0.0305,-0.4459,335.5625
11:11:43:640,-0.1029,1.5012,8.0321,64.912,-0.5382,-0.0428,-0.5211,336.2031
11:11:43:660,-0.3568,1.1755,9.4759,64.9337,-0.6035,-0.0666,-0.5266,336.2656
11:11:43:681,-0.5818,1.1803,10.5628,65.0091,-0.5137,-0.0428,-0.4331,337.4688
11:11:43:706,-0.5794,1.4127,10.9651,64.8812,-0.3121,0.0336,-0.284,337.6719
11:11:43:723,-0.4238,1.7931,10.5987,64.8572,-0.0745,0.1429,-0.1295,337.6719
11:11:43:740,-0.2922,2.3246,10.1031,65.1268,0.1161,0.2266,0.0122,337.4844
11:11:43:762,-0.122,2.825,9.5883,65.3092,0.2523,0.2559,0.1185,337.4844
11:11:43:780,0.0502,3.2082,9.1908,65.3708,0.2908,0.2382,0.1729,338.4844
11:11:43:804,0.0574,3.3326,9.4041,65.2271,0.1472,0.204,0.1631,338.4844
11:11:43:821,0.0981,3.0188,10.328,65.0213,-0.1411,0.171,0.0928,339.5938
11:11:43:840,-0.443,1.9705,11.8053,64.9853,-0.493,0.2431,-0.0452,339.5938
11:11:43:862,-1.7859,0.8282,13.0621,65.0152,-0.8882,0.6273,-0.0806,340.3906
11:11:43:882,-2.9327,0.213,13.3448,65.1565,-1.2309,1.1795,0.1472,340.3906
11:11:43:905,-2.8059,0.1938,13.6223,65.3685,-1.2651,1.2773,0.5149,341.2812
11:11:43:922,-2.0614,0.5483,14.3384,65.2283,-0.8509,0.824,0.7611,341.2812
11:11:43:941,-1.6184,0.6153,13.7372,65.2106,-0.1313,0.347,0.7691,342.2812
11:11:43:965,-0.9601,-0.3712,11.056,65.3742,0.7135,-0.2804,0.54,342.3906
11:11:43:983,-1.0199,-1.2473,11.3743,65.7196,0.5864,-0.4294,0.3934,343.0781
11:11:44:003,-1.2377,-1.8769,11.4509,66.1138,0.3928,-0.3421,0.3213,343.1406
11:11:44:023,-1.1276,-2.0471,10.9265,66.5843,0.2621,-0.1765,0.3549,343.25
11:11:44:040,-0.7947,-1.8984,10.3639,66.9184,0.1362,-0.0788,0.3897,343.2656
11:11:44:060,-0.7181,-1.774,10.0911,66.8588,0.0067,-0.0269,0.3512,342.9844
11:11:44:079,-0.7899,-1.6807,9.4472,67.0623,-0.0666,0.0928,0.3237,342.9531
11:11:44:100,-0.9027,-1.4964,8.3172,67.2329,-0.0684,0.2364,0.3757,342.6875
11:11:44:122,-0.833,-1.1324,7.1489,67.2502,-0.0177,0.2737,0.4991,342.6562
11:11:44:140,-0.3544,-0.5267,6.4113,67.3488,0.0464,0.1747,0.6396,342.6719
11:11:44:160,0.3042,0.067,6.1576,67.124,0.0837,0.0501,0.7202,342.6719
11:11:44:180,0.5363,0.4741,5.9614,67.1283,0.0727,-0.0037,0.6878,341.6875
11:11:44:201,0.754,0.8453,5.8439,67.1787,0.0153,0.0012,0.6359,339.9062
11:11:44:221,0.9482,1.276,5.7482,67.3204,-0.099,0.011,0.5626,339.9062
11:11:44:240,0.6918,1.4414,6.3538,67.4487,-0.2938,-0.0757,0.3867,338.7031
11:11:44:263,0.3568,1.1061,7.8072,67.5616,-0.4813,-0.2419,0.1888,338.7031
11:11:44:280,0.1029,0.8668,9.3682,68.0118,-0.5492,-0.3854,0.066,338.0312
11:11:44:300,-0.0191,0.7636,10.4169,68.1604,-0.4887,-0.4117,0.0257,338.0312
11:11:44:322,-0.0766,0.6416,10.8906,68.5049,-0.3677,-0.3384,0.0049,337.25
11:11:44:341,-0.3999,0.431,10.7207,68.7747,-0.2853,-0.2071,-0.0281,337.25
11:11:44:362,-1.1348,0.0407,10.7231,68.9183,-0.2902,-0.1167,-0.0318,336.5
11:11:44:382,-1.2114,-0.2345,11.2929,69.2376,-0.358,-0.1008,0.0733,336.5
11:11:44:406,-0.3592,-0.2106,11.5277,69.6865,-0.5229,0.0281,0.2248,335.5156
11:11:44:466,0.1795,-0.055,12.411,70.0123,-0.9083,0.2395,0.2517,335.5156
11:11:44:467,0.1531,-0.5243,14.9393,70.1476,-1.2864,0.2944,0.1649,334.1562
11:11:44:467,0.1842,-0.8979,15.9541,70.3646,-1.1795,0.3079,0.1356,334.0156
11:11:44:484,0.8883,-0.4884,15.0685,71.0513,-0.0709,-0.0629,0.1564,332.7031
11:11:44:506,2.0782,-0.0048,13.9744,71.2229,0.1423,-0.2474,-0.1484,332.5781
11:11:44:524,2.1428,-0.3185,13.407,71.7579,0.1649,-0.2315,-0.4459,331.4844
11:11:44:540,0.2034,-1.6232,12.3966,72.1487,0.3378,-0.0672,-0.4612,331.4844
11:11:44:561,0.1914,-1.4462,10.1318,72.3023,0.7202,0.0855,-0.3207,331.1562
11:11:44:579,0.8955,-0.9769,7.6134,72.5177,1.0354,0.0409,-0.2095,331.125
11:11:44:601,1.8553,-0.5004,6.2414,72.7242,0.9932,-0.1881,-0.2749,331.0469
11:11:44:622,2.15,-0.7469,6.7968,73.0282,0.5522,-0.4416,-0.5907,331.0312
11:11:44:640,1.0965,-1.6376,8.5756,72.8225,-0.0208,-0.4502,-0.9566,331.0625
11:11:44:660,-0.3688,-2.1667,9.4735,73.2075,-0.3506,-0.1393,-1.0867,331.0625
11:11:44:680,-1.1659,-2.1404,8.9061,73.1123,-0.3005,0.1796,-0.9456,330.7031
11:11:44:701,-1.0463,-1.3095,7.4551,72.9919,-0.0586,0.2975,-0.675,330.0469
11:11:44:722,-0.8258,-0.498,6.5145,72.851,0.124,0.1875,-0.5162,330.0469
11:11:44:741,-1.0128,-0.122,6.2868,72.8111,0.1802,0.0073,-0.5003,329.5312
11:11:44:761,-1.1587,0.2177,6.1002,72.883,0.149,-0.0501,-0.4844,329.5312
11:11:44:781,-0.7636,0.7516,5.7123,73.1481,0.0238,0.0238,-0.4294,329.5156
11:11:44:801,-0.5267,1.0271,5.6046,73.2051,-0.2169,0.1142,-0.4404,329.5156
11:11:44:823,-1.0487,0.821,6.4929,73.1883,-0.5094,0.0941,-0.5333,330.5312
11:11:44:841,-1.5873,0.4454,8.3483,73.1478,-0.7074,-0.0147,-0.5656,330.5312
11:11:44:863,-1.6663,0.1603,10.1438,73.5526,-0.7556,-0.0244,-0.4667,331.2656
11:11:44:882,-1.5275,0.0622,11.4174,73.899,-0.6683,0.0788,-0.3036,331.2656
11:11:44:900,-1.6376,0.1699,11.8244,74.2923,-0.4978,0.2431,-0.1448,332.3438
11:11:44:923,-1.7309,0.4669,11.7598,74.5434,-0.3164,0.35,0.0061,332.3438
11:11:44:941,-1.5132,0.8378,11.2618,74.6545,-0.157,0.3885,0.1466,334.3438
11:11:44:965,-1.2138,1.0941,11.0656,75.0416,-0.091,0.3482,0.223,334.5469
11:11:44:981,-0.9218,0.8716,11.779,75.2189,-0.135,0.234,0.2004,336.1562
11:11:45:002,-1.0439,0.0574,13.0238,75.6863,-0.2114,0.1729,0.1093,336.3125
11:11:45:024,-1.7237,-0.9099,13.5338,76.1261,-0.2101,0.2291,0.0654,337.3594
11:11:45:042,-2.1284,-1.4004,13.5027,76.538,-0.0403,0.149,0.3928,337.4688
11:11:45:061,-1.5634,-1.3454,13.838,76.6288,-0.0018,0.0892,0.5113,338.3906
11:11:45:079,-1.4581,-1.8027,13.9744,76.8169,0.0983,0.1203,0.5449,338.4844
11:11:45:100,-1.3789,-1.8912,12.9042,76.9868,0.336,0.1155,0.6414,339.4219
11:11:45:124,-1.1874,-1.7261,11.3384,77.0154,0.642,0.0373,0.7391,339.5
11:11:45:140,-1.0247,-1.6854,9.8518,77.2444,0.8821,-0.0935,0.7721,340.4375
11:11:45:161,-0.7301,-1.7357,8.3746,77.059,0.9896,-0.2529,0.7794,340.5312
11:11:45:180,-0.5028,-1.4797,7.3666,76.4533,0.9089,-0.4227,0.7629,340.9219
11:11:45:201,-0.3114,-1.2664,7.2637,76.2323,0.5986,-0.5039,0.7013,340.7812
11:11:45:224,-0.28,-1.3382,7.6229,76.0668,0.1607,-0.4087,0.5876,340.7812
11:11:45:242,-0.3353,-1.4844,7.9149,75.8603,-0.2187,-0.2346,0.493,340.3281
11:11:45:261,-0.2608,-1.4557,8.6067,75.6416,-0.4221,-0.2065,0.4478,340.3281
11:11:45:280,-0.4501,-1.386,9.4376,75.4965,-0.4129,-0.2834,0.3958,340.125
11:11:45:299,-0.6464,-1.2927,9.8495,75.2756,-0.2315,-0.3268,0.3726,340.125
11:11:45:325,-0.62,-1.1204,9.253,75.115,0.0373,-0.2572,0.4087,339.5
11:11:45:339,-0.3951,-0.7397,8.0967,75.3239,0.2517,-0.1631,0.4716,339.5
11:11:45:361,-0.0885,-0.3185,7.4599,75.1637,0.3152,-0.1326,0.5094,339.5
11:11:45:381,0.352,0.0383,7.1106,75.1801,0.2871,-0.1203,0.507,338.375
11:11:45:400,0.6105,0.4286,6.6197,75.162,0.2077,-0.0806,0.4581,336.9688
11:11:45:423,0.7205,0.8354,6.3778,75.1057,0.0525,-0.0764,0.3653,336.9688
11:11:45:442,0.5794,1.063,6.7513,75.3164,-0.1686,-0.1295,0.226,335.5781
11:11:45:462,0.2465,0.8548,7.3618,75.2161,-0.3897,-0.1826,0.0727,335.4531
11:11:45:484,-0.0598,0.5124,9.9284,75.3692,-0.6548,-0.3922,-0.0202,334.1094
11:11:45:505,0.0574,0.5124,11.3934,75.2838,-0.6078,-0.4496,-0.0073,333.9844
11:11:45:523,0.1436,0.3616,12.0589,75.1643,-0.4496,-0.3946,-0.0055,332.8906
11:11:45:543,0.3042,0.0311,12.0159,75.1735,-0.2547,-0.3958,-0.0232,332.7812
11:11:45:562,0.7181,-0.2632,12.6458,75.3713,-0.1484,-0.5363,-0.0531,331.8594
11:11:45:580,0.9242,-0.6224,13.7877,75.6727,-0.157,-0.6017,-0.0977,331.7812
11:11:45:599,1.0223,-1.0343,14.1897,75.6094,-0.1381,-0.4716,-0.088,330.9688
11:11:45:625,1.5921,-0.9936,13.043,75.8163,-0.0232,-0.2547,0.0067,330.8906
11:11:45:640,2.2146,-0.6655,12.4373,75.935,-0.0043,-0.1716,-0.0043,329.9531
11:11:45:660,2.3103,-1.2951,12.7056,75.9279,-0.2169,-0.0886,-0.2193,329.8594
11:11:45:681,1.5826,-2.5113,13.9313,76.0386,-0.4948,-0.0348,-0.4765,328.9219
11:11:45:700,0.8378,-3.335,15.4226,75.9118,-0.4624,-0.0983,-0.6194,328.1562
11:11:45:722,0.2874,-3.7014,14.6686,75.7444,-0.0073,0.0513,-0.5492,328.1562
11:11:45:741,0.8477,-3.3374,11.6234,75.209,0.6347,0.3225,-0.2211,328.0312
11:11:45:761,2.2839,-1.9944,8.5086,74.6749,1.0488,0.383,0.0849,328.0312
11:11:45:781,3.5025,-0.8282,7.2326,74.2506,0.9377,0.2132,0.0318,327.9688
11:11:45:799,3.2632,-0.8955,7.8359,73.6499,0.4264,0.1234,-0.3671,327.9688
11:11:45:823,1.5443,-1.9247,8.9252,73.1575,-0.0855,0.2608,-0.7513,327.9531
11:11:45:840,-0.055,-2.2792,8.9755,72.6327,-0.2511,0.4832,-0.7935,327.9531
11:11:45:864,-0.5913,-1.908,8.1473,72.0567,-0.1087,0.5382,-0.5699,327.9531
11:11:45:881,-0.2656,-1.1252,7.1752,71.5044,0.1167,0.3971,-0.3134,328.0625
11:11:45:900,0.1053,-0.3449,6.6174,71.1075,0.2321,0.2449,-0.1588,328.1406
11:11:45:925,0.1292,0.1986,5.9638,70.8777,0.2181,0.2492,-0.1008,328.1406
11:11:45:941,-0.1388,0.5841,5.2645,70.4697,0.0959,0.3213,-0.077,328.375
11:11:45:963,-0.2752,0.8859,5.0013,70.3208,-0.1417,0.3317,-0.0507,328.375
11:11:45:980,-0.2058,1.3358,5.3701,70.1541,-0.543,0.3396,-0.0385,329.4219
11:11:46:000,-0.0766,1.2281,7.5556,70.0546,-1.0207,0.2987,-0.0959,329.5312
11:11:46:024,-0.3855,0.4789,11.7239,70.0349,-0.9975,0.3677,-0.2822,330.4219
11:11:46:044,-0.5913,0.2536,12.3464,69.9171,-0.5345,0.4545,-0.2908,330.4219
11:11:46:065,-0.6918,0.1196,11.8675,69.6642,0.0495,0.4826,-0.2443,330.375
11:11:46:083,-0.7899,0.3281,10.838,69.4497,0.5039,0.4691,-0.1753,330.375
11:11:46:099,-0.7708,0.4143,9.6721,69.3369,0.6499,0.4624,-0.1258,331.5
11:11:46:123,-0.5506,0.5315,9.3491,68.8933,0.5125,0.3964,-0.1155,331.6094
11:11:46:141,-0.4884,0.2249,10.2323,68.5481,0.2046,0.2908,-0.1796,332.9688
11:11:46:160,-0.8716,-0.5171,11.2594,68.3654,-0.0892,0.2657,-0.2834,333.1094
11:11:46:180,-1.0917,-1.252,11.4293,67.956,-0.2743,0.2865,-0.3335,333.6094
11:11:46:200,-1.2401,-1.8817,12.4014,67.5487,-0.4539,0.1533,-0.361,333.875
11:11:46:223,-1.6759,-2.5714,13.7662,67.287,-0.6108,0.0153,-0.3757,333.875
11:11:46:240,-2.2887,-3.1101,14.1515,66.8161,-0.5681,-0.0061,-0.3018,333.9531
11:11:46:260,-2.5232,-3.3996,14.0055,66.2176,-0.3079,-0.0953,-0.1216,333.9531
11:11:46:280,-2.2863,-3.3613,13.2395,65.728,0.11,-0.223,0.135,334.1406
11:11:46:301,-1.5227,-2.7987,11.3001,65.23,0.5522,-0.2523,0.4221,334.1406
11:11:46:325,-0.3951,-2.0566,9.3586,64.5482,0.7874,-0.2749,0.5925,334.1562
11:11:46:339,0.3377,-1.6519,8.2813,64.0026,0.7165,-0.3555,0.5235,334.7031
11:11:46:362,0.2441,-1.7692,8.243,63.4969,0.4117,-0.405,0.2902,334.7031
11:11:46:382,-0.5315,-2.2744,8.8176,62.8076,0.0525,-0.3482,0.0916,335.2656
11:11:46:399,-1.2449,-2.3222,8.9659,62.4779,-0.1716,-0.1723,0.091,335.6875
11:11:46:422,-1.3286,-1.9056,8.6043,61.9934,-0.2223,-0.0232,0.237,335.6875
11:11:46:440,-1.0798,-1.2568,8.0465,61.5363,-0.1826,0.0373,0.3824,336.2188
11:11:46:462,-0.9099,-0.8548,7.7617,61.3078,-0.149,0.0122,0.4514,336.2188
11:11:46:529,-0.874,-0.8501,7.8311,60.9872,-0.1381,-0.0696,0.4551,336.875
11:11:46:529,-1.0319,-0.9553,8.4105,60.5071,-0.1209,-0.1912,0.4636,336.9375
11:11:46:530,-0.9817,-0.9027,8.9372,60.2009,-0.0458,-0.2724,0.5375,337.5
11:11:46:542,-0.632,-0.565,8.863,59.9075,0.0959,-0.2724,0.6414,337.5469
11:11:46:565,0.3377,0.1914,8.7793,59.4626,0.2938,-0.2223,0.6298,337.5
11:11:46:582,0.2704,0.3018,8.8391,59.0585,0.2908,-0.1607,0.4868,337.5
11:11:46:599,-0.0981,0.2827,8.8582,58.7288,0.2651,-0.1161,0.3488,336.5938
11:11:46:625,-0.3784,0.3353,9.1789,58.1789,0.2474,-0.1442,0.27,336.5
11:11:46:639,-0.3138,0.4238,9.7487,57.6365,0.2547,-0.1881,0.2181,335.75
11:11:46:660,-0.1125,0.6081,10.127,57.3281,0.2431,-0.1393,0.1692,335.6719
11:11:46:679,0.122,0.5148,10.5867,56.849,0.1509,-0.0397,0.0916,335.4688
11:11:46:700,0.1244,0.134,11.3551,56.3902,0.0202,0.0244,-0.0055,334.7969
11:11:46:721,-0.1507,-0.2752,11.9297,55.8388,-0.033,0.0342,-0.08,334.7969
11:11:46:740,-0.2776,-0.6823,12.4684,55.6167,0.0275,-0.0391,-0.0959,333.7031
11:11:46:760,0.1795,-1.0702,12.478,55.2108,0.1668,-0.0959,-0.0348,333.7031
11:11:46:780,0.7612,-1.0128,12.4062,54.7883,0.306,-0.1038,0.0348,332.6719
11:11:46:799,1.5897,-0.5506,11.4126,54.4023,0.4025,-0.0208,0.0605,332.5625
11:11:46:822,2.2193,-0.1388,10.5796,53.9594,0.3476,0.0043,-0.0647,332.5625
11:11:46:839,2.5065,-0.1125,10.9265,53.6373,0.1216,-0.1216,-0.3354,331.1094
11:11:46:860,2.3629,-0.4884,12.2818,53.064,-0.1668,-0.2059,-0.642,331.0938
11:11:46:881,1.5778,-1.3095,13.9744,52.8528,-0.3409,-0.1894,-0.9083,329.9062
11:11:46:900,0.2225,-2.0447,14.1395,52.1997,-0.1906,-0.0226,-1.0152,329.25
11:11:46:922,-0.2874,-2.3246,12.6745,51.82,0.2278,0.1216,-0.8656,329.25
11:11:46:939,0.4478,-1.9606,10.6059,51.2452,0.678,0.1326,-0.5369,328.8594
11:11:46:960,1.5299,-1.0726,8.5325,50.9796,0.9358,0.0232,-0.2987,328.8594
11:11:46:980,2.1547,-0.4669,7.8909,50.4024,0.8601,-0.1997,-0.3317,328.7812
11:11:46:999,1.7907,-0.3903,8.298,49.7504,0.5528,-0.2486,-0.5064,328.7656
11:11:47:021,0.7421,-0.4501,8.2693,49.3441,0.2584,0.0061,-0.6084,328.9375
11:11:47:039,-0.0574,-0.285,7.4312,48.5001,0.1319,0.3103,-0.5601,328.9531
11:11:47:062,-0.2345,0.1244,6.4256,47.9103,0.1295,0.4001,-0.4306,328.9844
11:11:47:082,0.122,0.9458,6.0882,47.4329,0.1087,0.1283,-0.3286,328.9844
11:11:47:100,-0.0574,1.1061,5.9662,47.1526,0.033,0.0935,-0.3873,329.0469
11:11:47:120,-0.0837,1.2497,6.2175,46.5619,-0.0935,0.088,-0.4386,329.0469
11:11:47:139,0.1244,1.2879,7.3666,46.176,-0.2547,0.1026,-0.4899,330.0156
11:11:47:159,0.1842,1.2808,9.1956,45.7882,-0.3824,0.2114,-0.5638,330.1094
11:11:47:180,-0.3927,1.118,9.8399,45.673,-0.3573,0.4691,-0.6585,331.9844
11:11:47:199,-1.2999,0.9577,9.4783,45.6748,-0.2004,0.6292,-0.7342,333.6562
11:11:47:222,-1.8888,0.8477,8.9539,45.5116,-0.08,0.6066,-0.7019,333.6562
11:11:47:240,-1.908,0.9218,9.3467,45.1608,-0.0971,0.4752,-0.5504,334.6094
11:11:47:260,-1.8649,1.3286,10.1845,44.6989,-0.1735,0.3946,-0.3451,334.6094
11:11:47:279,-1.6831,1.7285,10.5054,44.3224,-0.1845,0.4386,-0.1564,334.625
11:11:47:299,-1.0343,1.8817,10.6657,44.1175,-0.1509,0.4313,-0.0409,335.8906
11:11:47:322,-0.2225,1.7955,11.5011,43.675,-0.1368,0.2785,-0.0574,335.9062
11:11:47:340,-0.2417,1.3095,12.4875,42.984,-0.1527,0.1649,-0.2199,336.9844
11:11:47:360,-0.9649,0.4406,13.086,42.3486,-0.182,0.1484,-0.4245,337
11:11:47:381,-1.5299,-0.5076,13.7085,41.7544,-0.223,0.1368,-0.5143,337.7344
11:11:47:399,-1.7907,-1.2592,14.161,41.3424,-0.2749,0.1668,-0.4618,338.625
11:11:47:421,-1.9582,-1.8218,14.2567,41.0167,-0.2944,0.2223,-0.3347,338.625
11:11:47:439,-2.1667,-2.2935,14.4437,40.6643,-0.2077,0.1851,-0.1967,339.7344
11:11:47:461,-2.4156,-2.7437,14.0797,40.1182,0.0525,0.1338,-0.0464,339.7344
11:11:47:480,-2.1739,-2.8394,12.1645,39.92,0.4306,0.1588,0.182,341.2031
11:11:47:500,-1.4318,-2.1452,9.7822,39.5133,0.7043,0.1381,0.4386,341.2031
11:11:47:522,-0.6344,-1.3549,8.4105,39.3764,0.6939,0.0079,0.551,342.4375
11:11:47:539,-0.3616,-0.9649,7.8526,39.3184,0.4215,-0.0629,0.4789,342.5625
11:11:47:562,-0.778,-1.1324,7.9603,38.8731,0.0214,-0.0489,0.3347,343.0469
11:11:47:583,-1.3406,-1.3238,8.4248,38.4385,-0.3543,-0.0318,0.3775,343.0781
11:11:47:605,-1.6472,-1.2162,8.6976,38.0449,-0.2126,-0.0586,0.5027,343.1562
11:11:47:622,-1.4414,-0.6511,7.381,37.7241,-0.0324,-0.0922,0.6347,343.1719
11:11:47:640,-1.0917,-0.2584,6.7585,37.4862,0.0391,-0.1442,0.7513,343.7656
11:11:47:659,-0.6751,0.0479,6.615,37.4507,-0.0031,-0.2132,0.8228,343.8281
11:11:47:679,-0.309,0.3353,7.113,37.1283,-0.0641,-0.3195,0.8466,344.75
11:11:47:699,-0.1651,0.7181,7.3977,36.7702,-0.0373,-0.3891,0.8546,345.3438
11:11:47:722,-0.3377,1.3119,7.4551,36.7504,0.0586,-0.4667,0.8796,345.3438
11:11:47:739,-0.1914,2.2696,7.7641,36.7149,0.1539,-0.5864,0.9505,345.3125
11:11:47:759,0.3281,3.1172,8.4631,36.6995,0.215,-0.7086,0.9749,345.3125
11:11:47:780,0.6583,3.469,9.4807,36.6184,0.2639,-0.802,0.8607,345.3125
11:11:47:799,0.766,3.2082,10.5078,36.3246,0.3335,-0.9004,0.6542,344.4219
11:11:47:822,0.8859,2.849,11.8771,35.8501,0.3958,-1.0085,0.449,344.4062
11:11:47:840,0.766,2.4802,12.7343,35.4617,0.3897,-0.8888,0.2651,343.5938
11:11:47:861,0.7205,1.9944,13.0908,35.1141,0.3024,-0.6151,0.1234,343.5781
11:11:47:880,1.1468,1.4605,13.2156,34.8913,0.2144,-0.3683,0.0208,342.7656
11:11:47:899,1.4174,0.9027,13.3472,34.4958,0.1649,-0.2004,-0.1173,341.4844
11:11:47:922,1.4366,0.2827,12.964,34.0492,0.1967,-0.0476,-0.2608,341.4844
11:11:47:940,1.4677,-0.0766,11.9369,33.5229,0.3121,0.0788,-0.339,339.75
11:11:47:961,1.9439,0.1388,10.9098,33.2378,0.427,0.1362,-0.3586,339.75
11:11:47:980,2.4036,0.2994,9.5357,33.1457,0.4386,0.2376,-0.4722,337.875
11:11:47:999,2.569,0.146,8.0465,33.0461,0.2724,0.317,-0.6829,337.875
11:11:48:023,2.4371,-0.51,8.6809,33.0625,-0.0849,0.1338,-0.9468,336.0625
11:11:48:039,1.8242,-1.7142,10.9217,32.7318,-0.416,-0.0947,-1.2101,335.8906
11:11:48:063,-0.0359,-3.1938,12.0159,32.6403,-0.3091,0.1643,-1.1704,333.9375
11:11:48:085,-0.3664,-2.9088,9.6458,32.5747,-0.0489,0.4258,-0.7947,333.9375
11:11:48:101,0.4836,-1.7166,8.0201,32.7851,0.0458,0.3048,-0.3702,332.9219
11:11:48:122,1.8242,-0.6727,8.5158,32.9128,-0.0928,-0.088,-0.1814,332.8125
11:11:48:141,2.016,-0.1244,9.9356,32.7717,-0.3464,-0.2657,-0.2572,332.5156
11:11:48:161,1.5275,0.1675,10.261,32.793,-0.4838,-0.047,-0.3506,332.4844
11:11:48:181,1.0917,0.6176,8.997,32.6463,-0.4062,0.2688,-0.347,332.6094
11:11:48:199,0.9147,1.0893,7.5102,32.9834,-0.2529,0.3946,-0.3231,333.25
11:11:48:221,1.0056,1.5826,6.8231,32.756,-0.1558,0.2969,-0.3537,333.25
11:11:48:241,0.9553,1.9681,6.8064,32.8562,-0.1203,0.1564,-0.4728,333.3125
11:11:48:260,0.7038,2.0183,6.6724,32.7677,-0.1301,0.1417,-0.6438,334.1562
11:11:48:280,0.146,1.7716,6.536,32.7488,-0.2095,0.2028,-0.8082,334.25
11:11:48:299,-0.5459,1.427,6.8327,32.8755,-0.3451,0.2346,-0.9157,336.0156
11:11:48:326,-1.0702,1.13,7.6373,32.7851,-0.463,0.2065,-0.9315,336.0312
11:11:48:341,-1.3573,0.9888,8.6809,32.934,-0.4881,0.1307,-0.8863,338.7344
11:11:48:362,-1.5562,1.0056,9.4424,32.8286,-0.4056,0.0702,-0.821,338.7656
11:11:48:384,-1.7524,1.0104,9.8085,33.3711,-0.295,0.0727,-0.7507,340.8594
11:11:48:400,-1.951,1.0152,10.2897,33.3431,-0.2669,0.1277,-0.667,341.4688
11:11:48:422,-2.0686,1.1276,10.9122,33.6926,-0.3244,0.2327,-0.5571,341.4688
11:11:48:442,-2.0088,1.3047,11.6904,33.639,-0.3873,0.2993,-0.4429,342.0938
11:11:48:463,-1.7477,1.1659,13.0334,33.7638,-0.383,0.2376,-0.3848,342.0938
11:11:48:482,-1.5538,0.7277,14.2687,33.9522,-0.2651,0.2046,-0.3769,342.7656
11:11:48:499,-1.7812,0.0574,14.3647,34.1886,-0.077,0.3402,-0.3812,342.7656
11:11:48:521,-2.0279,-0.4669,13.3041,34.1599,0.0843,0.5156,-0.3311,343.5625
11:11:48:540,-2.1165,-0.7253,12.8372,34.0558,0.0953,0.5327,-0.2486,343.6406
11:11:48:592,-2.0662,-0.9769,12.9353,34.3334,-0.0269,0.5211,-0.1704,345.0625
11:11:48:592,-2.0016,-1.3741,13.1219,34.3918,-0.1448,0.5461,-0.1051,345.2031
11:11:48:601,-2.3174,-2.4849,12.8731,34.6384,-0.1301,0.4893,-0.0495,346.9844
11:11:48:627,-2.2289,-2.7843,10.8978,34.8172,0.3903,0.3971,0.2578,347.1719
11:11:48:641,-1.8912,-2.5642,8.645,35.0815,0.6218,0.2193,0.4905,348.8125
11:11:48:663,-1.2903,-2.0495,7.8694,35.1428,0.595,-0.124,0.6444,348.9688
11:11:48:680,-0.8501,-1.7213,8.1975,35.3537,0.3134,-0.3292,0.6811,350.3438
11:11:48:699,-0.8163,-1.7261,8.8128,35.5668,-0.0806,-0.2932,0.6628,350.5
11:11:48:726,-0.8644,-1.5538,9.428,35.5591,-0.3635,-0.1808,0.6939,351.4531
11:11:48:741,-0.7397,-1.0702,9.5812,35.6408,-0.4001,-0.1179,0.7684,351.5469
11:11:48:762,-0.6655,-0.6703,9.2148,35.7846,-0.2278,-0.1283,0.8082,352.2656
11:11:48:780,-0.7181,-0.443,8.3818,35.9703,0.0208,-0.1802,0.813,352.3281
11:11:48:799,-0.7564,-0.1962,7.4839,36.1065,0.1973,-0.2211,0.8301,353.1562
11:11:48:826,-0.687,-0.0287,6.9069,36.1795,0.2333,-0.2376,0.8619,353.1562
11:11:48:841,-0.5794,0.1627,6.8973,36.3345,0.1668,-0.2511,0.8943,353.6719
11:11:48:861,-0.376,0.4789,6.9906,36.6705,0.1008,-0.2559,0.9303,353.6719
11:11:48:882,-0.0024,0.9027,7.0579,36.9584,0.0831,-0.2975,0.9328,353.8594
11:11:48:899,0.4119,1.3717,7.1656,37.2886,0.0666,-0.3671,0.8601,353.625
11:11:48:926,0.6655,1.5993,7.6804,37.4944,-0.0006,-0.4471,0.6817,353.625
11:11:48:942,0.3042,1.4174,8.5181,37.5595,-0.1051,-0.4844,0.4368,352.5625
11:11:48:962,-0.1364,1.0917,9.2916,37.6288,-0.179,-0.4575,0.2657,352.5625
11:11:48:981,-0.4023,0.9577,9.9236,38.0256,-0.2028,-0.4313,0.1936,351.1094
11:11:48:999,-0.5219,0.8163,10.838,38.2854,-0.2034,-0.4459,0.1625,351.1094
11:11:49:027,-0.6488,0.443,11.7885,38.1981,-0.1552,-0.485,0.1417,349.3906
11:11:49:041,-0.6296,0.1053,12.4134,38.3731,-0.0263,-0.6011,0.1338,349.3906
11:11:49:064,-0.3281,-0.0742,12.7415,38.406,0.0837,-0.7263,0.157,347.7344
11:11:49:081,0.6368,-0.3138,12.7391,38.4577,0.055,-0.7226,0.2211,347.5625
11:11:49:099,1.774,-0.3377,12.8803,38.447,-0.1045,-0.6139,0.2718,345.9062
11:11:49:124,2.4921,-0.4286,13.1195,38.6124,-0.325,-0.4325,0.2181,345.75
11:11:49:141,2.648,-1.8673,14.6973,38.5422,-0.733,-0.1038,-0.1839,343.9531
11:11:49:161,1.5132,-3.3924,15.7029,38.5432,-0.7135,0.0928,-0.3677,343.7656
11:11:49:179,0.3281,-3.8378,14.7811,38.5211,-0.3506,0.4453,-0.2425,341.9844
11:11:49:199,0.7134,-3.2967,11.7024,38.5001,0.2486,0.766,0.1539,341.7969
11:11:49:221,1.7812,-2.1404,8.3865,38.448,0.7758,0.7593,0.5229,340.6719
11:11:49:241,3.4929,-0.4621,6.6245,38.5506,0.9816,0.4007,0.6487,340.5625
11:11:49:259,4.1297,0.7014,6.3802,38.5637,0.7819,0.0611,0.3237,340.0469
11:11:49:280,2.9423,0.4071,6.7035,38.5379,0.3525,0.0312,-0.2541,340
11:11:49:300,1.2832,-0.189,6.7657,38.4178,0.0043,0.2272,-0.6047,339.625
11:11:49:321,0.5698,-0.1005,6.1744,38.4732,-0.1362,0.3995,-0.6047,339.625
11:11:49:342,0.4334,0.2827,5.7649,38.7897,-0.1552,0.3549,-0.5204,339.3125
11:11:49:361,0.3066,0.5913,5.9399,38.8428,-0.135,0.1545,-0.4985,339.2969
11:11:49:381,0.2922,0.7732,6.2103,39.0193,-0.1142,0.0202,-0.5052,338.7656
11:11:49:399,0.3568,1.0582,6.3945,38.8489,-0.1435,0.0171,-0.5149,338.4062
11:11:49:421,0.3736,1.3382,6.7178,39.1344,-0.2303,0.0812,-0.5467,338.4062
11:11:49:441,0.1077,1.4701,7.2087,39.1733,-0.3378,0.1478,-0.6182,338.9219
11:11:49:462,-0.2898,1.3836,7.9316,39.317,-0.427,0.1716,-0.6933,338.9219
11:11:49:483,-0.8234,1.1755,8.9276,39.2017,-0.4801,0.1417,-0.7336,339.0625
11:11:49:499,-1.209,0.9123,10.0385,39.1865,-0.4734,0.0965,-0.7129,339.0625
11:11:49:521,-1.5849,0.7277,11.2164,39.1922,-0.4032,0.0702,-0.6371,337.9219
11:11:49:541,-2.071,0.6296,11.9058,39.1466,-0.2743,0.1209,-0.5064,337.9219
11:11:49:563,-2.1715,0.8282,11.8173,39.2711,-0.1344,0.237,-0.2981,337.9375
11:11:49:582,-1.6543,1.0917,11.9106,39.0739,-0.1051,0.306,-0.099,337.9219
11:11:49:599,-1.2425,1.0223,12.7104,39.1627,-0.1967,0.3237,-0.0232,339.125
11:11:49:624,-1.6902,-0.1627,13.5936,39.1305,-0.2724,0.3812,-0.0568,340.2344
11:11:49:641,-2.0351,-0.9386,13.2491,39.2886,-0.1368,0.5149,-0.066,340.2344
11:11:49:664,-1.8864,-1.4174,13.5529,39.1796,-0.0244,0.3305,0.0354,340.3438
11:11:49:681,-1.4868,-1.8529,13.7734,39.2937,0.036,0.1955,0.1295,341.3438
11:11:49:700,-1.3047,-2.4084,14.2735,39.3339,0.0696,0.0721,0.1668,341.4375
11:11:49:725,-1.5395,-2.8872,14.6734,39.5427,0.2187,-0.0055,0.1997,342.5625
11:11:49:743,-1.6089,-3.1077,12.7917,39.8266,0.5437,0.1252,0.3378,342.6719
11:11:49:760,-1.0869,-2.7556,10.1055,39.884,0.821,0.1716,0.5125,344.0312
11:11:49:780,-0.4406,-2.3581,8.7003,40.0397,0.8155,-0.0702,0.5498,344.1719
11:11:49:799,-0.3736,-2.2193,8.8056,40.3566,0.5675,-0.3726,0.4325,345.4531
11:11:49:821,-0.833,-2.3916,9.8734,40.358,0.2504,-0.4911,0.3005,345.5781
11:11:49:840,-1.2377,-2.2624,9.8423,40.4782,0.0812,-0.3018,0.3225,346.4531
11:11:49:861,-1.1922,-1.6998,8.5828,40.54,0.0892,-0.0507,0.4661,346.4531
11:11:49:882,-0.498,-0.7684,6.7633,40.5119,0.1533,0.0281,0.5974,346.5938
11:11:49:899,0.3712,0.0024,5.6907,40.5364,0.1148,-0.1478,0.5773,346.75
11:11:49:922,0.3042,-0.0766,6.2031,40.6594,-0.0593,-0.4722,0.3714,346.75
11:11:49:943,-0.0359,-0.3832,7.654,40.6873,-0.168,-0.788,0.1515,346.8125
11:11:49:963,-0.3903,-0.5961,8.554,40.5814,-0.0745,-0.8692,0.0647,346.8125
11:11:49:981,-0.5028,-0.5219,8.1855,40.8975,0.157,-0.6927,0.1466,346.5156
11:11:49:999,-0.3975,-0.0885,6.9595,40.9624,0.3659,-0.4728,0.336,346.5156
11:11:50:020,0.2106,0.7445,6.2103,40.9515,0.4056,-0.4019,0.5082,346.0312
11:11:50:042,0.6679,1.3525,6.2127,41.0391,0.2755,-0.4178,0.5119,346.0312
11:11:50:062,0.8402,1.5443,6.725,41.017,0.0837,-0.4484,0.3708,345.1719
11:11:50:080,0.5602,1.5491,7.5078,41.1479,-0.1093,-0.4569,0.1814,345.0938
11:11:50:099,0.2321,1.3645,8.7553,41.3548,-0.2718,-0.4551,0.0128,344.4219
11:11:50:125,-0.1292,1.0606,9.8925,41.3354,-0.3732,-0.3922,-0.1045,343.5781
11:11:50:143,-0.364,0.6607,10.7566,41.4058,-0.394,-0.3115,-0.1765,343.5781
11:11:50:163,-0.1316,-0.1436,12.411,41.4594,-0.3775,-0.3421,-0.1643,343.5156
11:11:50:180,-0.1077,-0.632,13.6223,41.5764,-0.3867,-0.4044,-0.1423,342.3594
11:11:50:199,0.1747,-1.0822,14.3599,41.585,-0.3647,-0.3793,-0.0562,342.25
11:11:50:219,0.9194,-1.185,13.6511,41.5481,-0.303,-0.2138,0.0928,341.6719
11:11:50:242,2.0279,-0.9075,12.9018,41.4594,-0.3464,-0.1234,0.1692,341.625
11:11:50:262,2.6288,-1.3406,12.9784,41.3117,-0.5925,-0.0696,0.014,341.4062
11:11:50:280,1.8194,-2.557,14.2807,41.2707,-0.8943,0.0293,-0.2498,341.375
11:11:50:299,0.5387,-3.1986,14.7212,41.163,-0.8766,0.2303,-0.3451,340.5938
11:11:50:320,-0.0263,-3.4235,13.0478,41.0287,-0.4154,0.4288,-0.1521,340.5156
11:11:50:342,1.0606,-2.758,10.6466,40.9957,0.237,0.3622,0.2767,339.5781
11:11:50:360,2.9064,-1.4486,9.3347,41.1334,0.7428,0.0067,0.5913,339.5625
11:11:50:380,4.4698,-0.3233,8.5421,41.4385,0.8912,-0.2291,0.5009,339.3281
11:11:50:399,3.7828,-0.4023,7.9196,41.5189,0.5687,-0.1277,0.0214,339.5781
11:11:50:422,1.5897,-1.2425,8.2047,41.5572,0.069,0.1362,-0.3806,339.5781
11:11:50:440,0.146,-1.5012,7.7904,41.7894,-0.179,0.4154,-0.3751,339.9062
11:11:50:465,-0.0598,-1.075,7.101,41.7899,-0.1558,0.4374,-0.1588,339.9062
11:11:50:482,0.297,-0.4597,7.0388,41.9089,-0.036,0.226,0.0293,340.0781
11:11:50:499,0.6823,0.0957,7.223,42.0077,0.0764,0.0654,0.1191,340.0781
11:11:50:522,0.8043,0.4932,6.8423,41.9612,0.1393,0.0886,0.1209,339.7656
11:11:50:543,0.8378,0.6846,6.4328,41.9638,0.1277,0.1448,0.0709,339.7656
11:11:50:562,0.7445,0.766,6.4448,42.0889,0.0342,0.1442,-0.0165,339.9531
11:11:50:581,0.5794,0.6057,7.0268,42.1463,-0.0874,0.1051,-0.1234,339.9688
11:11:50:653,0.3209,0.3425,7.6493,42.0047,-0.1839,0.1155,-0.2059,340.4531
11:11:50:654,-0.0718,0.0933,8.7314,42.1257,-0.2981,0.2193,-0.2266,340.5
11:11:50:654,-0.1268,0.0837,9.5692,42.0422,-0.3384,0.2712,-0.201,339.7031
11:11:50:664,-0.376,0.1172,10.1892,42.1727,-0.3494,0.3635,-0.1655,339.625
11:11:50:682,-0.6942,0.2393,10.4815,42.4095,-0.3128,0.4398,-0.1051,339.125
11:11:50:699,-0.7421,0.3712,10.5628,42.1764,-0.2443,0.4215,-0.0263,339.0938
11:11:50:720,-0.6823,0.2321,11.0776,42.1229,-0.204,0.2669,0.0195,339.8438
11:11:50:742,-0.4095,-0.1651,12.1382,42.3857,-0.2071,0.0629,0.0275,339.9219
11:11:50:760,-0.1938,-0.711,13.4022,42.4506,-0.2303,-0.0092,0.0287,340.0781
11:11:50:779,-0.3042,-1.2377,13.8356,42.5278,-0.2431,0.1191,0.0672,340.0781
11:11:50:799,-0.3951,-1.276,13.285,42.6102,-0.2376,0.2975,0.1808,339.8594
11:11:50:821,-0.3353,-1.063,13.0167,42.7552,-0.2743,0.3494,0.2926,339.8438
11:11:50:841,-0.0239,-1.0989,12.6888,42.6909,-0.3213,0.3653,0.3494,339.7969
11:11:50:861,0.2776,-1.4414,12.5354,43.1549,-0.3164,0.325,0.325,339.7969
11:11:50:881,0.4143,-1.7812,12.21,43.1195,-0.2162,0.2572,0.2663,340.1406
11:11:50:899,0.9434,-2.4299,11.214,43.1851,-0.0452,0.19,0.2126,340.6406
11:11:50:923,1.2879,-3.0069,10.1916,43.3,0.1326,0.011,0.1209,340.6406
11:11:50:942,1.1252,-3.201,9.7463,43.4138,0.2285,-0.2071,0.0159,341.0312
11:11:50:962,0.7469,-3.0212,9.5931,43.6412,0.168,-0.2853,-0.0367,341.0312
11:11:50:981,0.3377,-2.6264,9.1693,43.4223,-0.0195,-0.1808,-0.0348,341.1719
11:11:50:999,-0.079,-2.2098,9.0018,43.4155,-0.2352,-0.1045,-0.0159,341.1719
11:11:51:021,-0.4836,-1.7046,9.3658,43.1733,-0.3256,-0.1637,0.0275,341.1094
11:11:51:043,-0.8067,-1.319,9.574,43.2777,-0.2382,-0.2504,0.0806,341.1094
11:11:51:061,-1.0558,-1.13,9.4256,43.0595,-0.0507,-0.325,0.1356,340.9844
11:11:51:081,-1.3286,-1.0822,9.1884,43.2162,0.1344,-0.3879,0.2016,340.9844
11:11:51:099,-1.3741,-0.8979,8.9444,43.1052,0.3054,-0.4368,0.3091,340.5156
11:11:51:121,-1.0798,-0.5339,8.3722,43.066,0.4795,-0.4398,0.4343,340.4688
11:11:51:142,-0.5076,-0.213,7.7833,43.1661,0.617,-0.4441,0.5082,339.7812
11:11:51:164,0.7995,0.0622,7.5126,43.1788,0.5614,-0.5473,0.4099,339.7031
11:11:51:184,1.1515,-0.0981,8.6641,43.3613,0.3793,-0.576,0.2395,339.2344
11:11:51:200,1.1587,-0.4884,9.1525,43.4141,0.2834,-0.438,0.0629,339.1875
11:11:51:221,1.1539,-0.6392,8.8319,43.6769,0.3011,-0.2498,-0.0464,339.0625
11:11:51:243,1.2903,-0.4143,8.2358,43.5173,0.3195,-0.1112,-0.1161,339.0625
11:11:51:261,1.4028,-0.2417,8.2071,43.4257,0.2547,-0.0409,-0.2162,339.1094
11:11:51:281,1.5275,-0.3568,8.7051,43.3584,0.1093,-0.0159,-0.3512,339.1094
11:11:51:300,1.3047,-0.7995,9.6984,43.5185,-0.1051,-0.0122,-0.5241,339.0312
11:11:51:320,0.6368,-1.5203,11.3073,43.4807,-0.3354,-0.0226,-0.6756,339.0312
11:11:51:342,-0.1651,-2.1882,12.8539,43.6835,-0.4667,0.0373,-0.6768,338.75
11:11:51:360,-0.6224,-2.3892,13.5529,43.6534,-0.4459,0.1753,-0.4704,338.7188
11:11:51:380,-0.4334,-2.0351,13.1746,43.4546,-0.3189,0.3042,-0.1203,338.125
11:11:51:399,0.5171,-1.1492,13.2012,43.6436,-0.1894,0.168,0.1881,337.125
11:11:51:420,1.9199,-0.7612,14.6112,43.8845,-0.1411,-0.1319,0.2199,337.125
11:11:51:443,2.4012,-1.2832,16.3205,43.959,-0.1564,-0.2382,-0.0458,336.1406
11:11:51:464,1.6424,-2.3725,16.1842,43.6956,-0.0409,0.0452,-0.2828,336.1406
11:11:51:482,1.1994,-2.849,14.1299,43.8347,0.3066,0.4032,-0.204,335.7969
11:11:51:499,2.2911,-2.4203,11.5636,43.5859,0.7929,0.5479,0.0904,335.7969
11:11:51:522,3.6559,-1.5706,9.21,43.4668,1.2235,0.4557,0.2584,336
11:11:51:543,4.1465,-0.7684,7.3403,43.4932,1.4075,0.3115,0.1405,336
11:11:51:562,3.4355,-0.431,6.3586,43.4804,1.2382,0.1863,-0.2193,336.625
11:11:51:581,1.8458,-0.7995,6.4424,43.1625,0.8057,0.1277,-0.6121,336.625
11:11:51:599,0.3568,-1.0893,6.6317,42.9658,0.3677,0.2291,-0.7477,337.7969
11:11:51:621,-0.2154,-0.917,6.4017,43.1493,0.1216,0.3573,-0.5815,337.9219
11:11:51:641,0.0909,-0.2082,6.0811,43.0789,0.0415,0.3793,-0.3042,339.0469
11:11:51:663,0.6846,0.7134,5.9638,43.0873,0.0342,0.3152,-0.1344,339.1562
11:11:51:683,0.8692,1.2688,5.8944,42.9436,-0.0525,0.1894,-0.2889,339.0938
11:11:51:700,0.2417,1.3454,6.481,42.9651,-0.1381,0.0825,-0.4068,339.0938
11:11:51:721,-0.0742,1.2305,7.2781,43.0471,-0.234,0.0079,-0.4691,338.8906
11:11:51:743,-0.1651,1.2185,8.3411,43.2983,-0.3225,-0.011,-0.4759,338.8594
11:11:51:760,-0.2369,1.3143,9.3084,43.6078,-0.3873,0.0574,-0.4471,339.375
11:11:51:779,-0.565,1.3047,9.9667,43.7392,-0.4099,0.1588,-0.4282,339.4219
11:11:51:800,-0.874,1.1946,10.5844,43.7555,-0.3671,0.2016,-0.3928,339.2344
11:11:51:820,-1.1803,1.1683,11.1135,43.7484,-0.2767,0.2193,-0.314,339.2188
11:11:51:843,-1.3238,1.3406,11.3216,43.9285,-0.1747,0.259,-0.1771,339.4688
11:11:51:861,-1.0271,1.5945,11.1637,44.0169,-0.0672,0.2688,-0.0202,339.4844
11:11:51:880,-0.4023,1.5012,11.336,43.8632,0.011,0.1662,0.0507,341.0625
11:11:51:900,-0.1627,0.9003,11.9393,44.0834,0.0214,0.0464,0.0055,342.0469
11:11:51:921,-0.5865,0.1531,12.2698,43.9644,-0.0031,0.0489,-0.044,342.0469
11:11:51:943,-1.0845,-0.3903,12.8396,43.9094,-0.0458,0.0715,-0.0006,342.375
11:11:51:963,-1.4605,-0.6751,13.8667,44.0721,-0.0867,0.0501,0.1197,342.375
11:11:51:980,-1.2903,-0.7469,14.2137,44.0848,-0.058,0.0794,0.2981,343.125
11:11:51:999,-0.9553,-0.7229,14.1036,44.3009,0.0568,0.0635,0.43,343.125
11:11:52:022,-1.1659,-0.929,14.2783,44.2211,0.2364,-0.058,0.4545,344.1094
11:11:52:043,-1.5084,-1.2377,13.3615,44.3184,0.543,-0.1075,0.4905,344.1094
11:11:52:063,-1.2185,-1.2425,11.6019,44.0402,0.9175,-0.1747,0.6115,345
11:11:52:084,-0.6009,-0.8258,10.3543,44.0605,1.1319,-0.3573,0.6732,345
11:11:52:100,-0.1292,-0.3353,9.9954,43.8945,1.0922,-0.5455,0.6084,345.6562
11:11:52:122,0.0574,-0.1101,10.1175,43.8434,0.857,-0.6524,0.4398,345.7344
11:11:52:143,-0.1101,-0.1531,10.4145,43.8374,0.5718,-0.6231,0.2669,345.9219
11:11:52:164,-0.3018,-0.2512,10.0863,43.7362,0.4697,-0.339,0.2559,345.9375
11:11:52:184,0.122,0.0502,8.7266,43.7339,0.6518,-0.1619,0.3818,345.8906
11:11:52:202,0.6918,0.6129,7.1465,43.6888,0.7709,-0.022,0.4502,345.8906
11:11:52:228,1.0941,0.8764,6.1361,43.7337,0.6646,0.0898,0.3818,345.9375
11:11:52:243,0.8572,0.8979,5.7362,43.6949,0.3647,0.1997,0.2517,345.9375
11:11:52:260,0.6368,0.7158,5.7314,43.7402,0.0379,0.2724,0.1857,345.5
11:11:52:280,0.6224,0.7038,6.1768,43.6528,-0.1967,0.1631,0.1631,345.4688
11:11:52:299,0.9458,0.7516,7.0866,43.6258,-0.2663,-0.11,0.1478,344.625
11:11:52:321,1.1563,0.8788,8.0369,43.574,-0.1662,-0.3793,0.0953,344.5312
11:11:52:343,1.4462,1.0989,8.3722,43.3645,0.0006,-0.4661,0.0183,343.5625
11:11:52:360,1.5395,1.2855,8.42,43.3303,0.0776,-0.3751,-0.0788,343.4688
11:11:52:380,1.0367,1.2401,8.7099,43.2737,0.0183,-0.1894,-0.1674,342.2969
11:11:52:399,0.565,1.118,9.2964,43.2974,-0.099,-0.0208,-0.1833,341.6719
11:11:52:423,0.5889,1.1348,10.2227,43.5471,-0.2248,0.0647,-0.1295,341.6719
11:11:52:443,0.7229,1.0008,11.5158,43.6193,-0.3207,0.036,-0.0867,341.2812
11:11:52:463,0.7277,0.8668,12.6048,43.5185,-0.284,-0.0605,-0.0538,341.2812
11:11:52:481,0.862,1.0056,12.5952,43.6144,-0.0525,-0.1032,0.0092,340.4688
11:11:52:499,1.0869,1.4605,11.6713,43.9329,0.2138,-0.0525,0.0715,340.4688
11:11:52:521,1.7668,1.8505,10.4623,43.9825,0.314,0.0086,0.1197,339.8281
11:11:52:545,2.339,2.0949,9.7822,44.1019,0.1833,0.0079,0.0898,339.8281
11:11:52:564,2.4921,1.6161,9.9308,44.0969,-0.1038,-0.0513,-0.0599,339.3906
11:11:52:583,2.0016,0.5674,10.7949,43.9218,-0.4087,-0.1216,-0.2529,339.3906
11:11:52:600,1.4581,-0.1723,12.0278,43.9874,-0.5962,-0.1613,-0.3317,339.1406
11:11:52:622,1.573,-0.3353,12.7463,44.0255,-0.5895,-0.1142,-0.2621,339.1406
11:11:52:645,2.0949,-0.0191,12.2578,44.1456,-0.4001,0.0263,-0.168,339.25
11:11:52:727,2.7293,0.3927,11.1398,44.3199,-0.1362,0.1222,-0.1613,339.2656
11:11:52:728,3.268,0.3233,9.0042,44.3405,0.1112,0.091,-0.4612,339.625
11:11:52:728,2.5041,0.0646,8.633,44.2258,-0.0189,0.088,-0.6457,339.6562
11:11:52:728,1.5754,-0.079,8.6593,44.2578,-0.2138,0.1576,-0.7177,339.8594
11:11:52:747,0.8668,0.146,8.0465,44.4233,-0.3335,0.3665,-0.6548,339.8594
11:11:52:761,0.6583,0.577,7.2015,44.6244,-0.3598,0.4923,-0.5241,339.8906
11:11:52:779,0.7277,1.0463,6.9739,44.7471,-0.3415,0.3983,-0.4154,339.8906
11:11:52:800,0.8907,1.506,7.1512,44.687,-0.2932,0.237,-0.383,339.7344
11:11:52:820,0.8501,1.7333,7.491,44.4616,-0.2462,0.1307,-0.4478,339.7188
11:11:52:844,0.3401,1.7907,7.7641,44.5814,-0.2352,0.1362,-0.5412,339.6875
11:11:52:861,-0.5794,1.8194,8.1736,44.7209,-0.2602,0.1857,-0.5901,340.2969
11:11:52:881,-1.2185,1.8673,8.7506,44.7276,-0.27,0.1955,-0.5534,340.2969
11:11:52:901,-1.1803,1.8793,9.5907,44.7654,-0.2297,0.1387,-0.4734,340.7188
11:11:52:919,-1.0822,1.8769,10.2754,44.6393,-0.1393,0.1014,-0.4154,340.7188
11:11:52:945,-0.9601,1.8625,10.8188,44.7774,-0.036,0.1289,-0.3622,341.1875
11:11:52:962,-0.9936,1.6687,11.1183,44.8641,0.0519,0.2004,-0.3066,341.1875
11:11:52:983,-1.2257,1.4868,10.9122,45.0835,0.1497,0.2908,-0.2321,342.3906
11:11:52:999,-1.1252,1.6615,10.1916,45.3057,0.2395,0.3799,-0.0996,342.3906
11:11:53:021,-0.5698,1.817,9.8877,45.4637,0.2291,0.3806,0.0159,343.8438
11:11:53:044,-0.28,1.5993,10.4097,45.5064,0.1081,0.2834,0.022,343.8438
11:11:53:062,-0.4932,1.051,11.2499,45.6278,0.0049,0.1784,-0.0226,344.7969
11:11:53:083,-0.8234,0.498,11.3767,45.5416,0.011,0.1258,-0.0171,344.7969
11:11:53:100,-1.0654,0.2369,11.6426,45.6206,0.0476,-0.0055,0.0428,345.6719
11:11:53:122,-1.1515,0.2249,12.3607,45.686,0.0415,-0.1362,0.1374,345.6719
11:11:53:144,-0.9649,0.1149,12.3942,45.7097,-0.0104,-0.0672,0.2547,346.75
11:11:53:165,-0.9075,-0.0718,12.3583,45.6151,-0.1197,0.047,0.3604,346.8594
11:11:53:185,-1.1133,-0.1866,12.7511,45.6683,-0.1973,0.0617,0.4691,347.8438
11:11:53:199,-1.051,-0.1962,12.6888,45.8068,-0.0996,0.0189,0.5944,347.9531
11:11:53:224,-0.5865,-0.2608,11.7933,45.7986,0.3573,-0.2847,0.7025,348.7969
11:11:53:244,0.6105,-0.2297,10.9603,46.0972,0.3311,-0.4563,0.6628,348.7969
11:11:53:262,0.687,-0.4406,11.5732,46.0775,0.1246,-0.4435,0.5821,349.3438
11:11:53:279,0.443,-0.6392,11.5011,46.2092,-0.0336,-0.2162,0.5424,349.4062
11:11:53:299,0.256,-0.4167,10.3496,46.2583,-0.0275,0.0678,0.576,349.5312
11:11:53:319,0.2946,-0.0502,8.7075,46.3211,0.0928,0.2541,0.6273,349.5469
11:11:53:344,0.4047,0.1866,7.3427,46.4475,0.2169,0.2932,0.6359,349.5469
11:11:53:361,0.3305,0.2393,6.8686,46.6661,0.2559,0.2376,0.6035,349.5469
11:11:53:380,0.3305,0.3305,6.9571,46.758,0.2217,0.2388,0.584,349.5312
11:11:53:400,0.4478,0.4621,6.6963,46.5514,0.1942,0.3439,0.5901,349.1094
11:11:53:421,0.4717,0.7923,6.1457,46.6091,0.1888,0.4508,0.6011,349.1094
11:11:53:444,0.5124,1.3023,5.7194,46.6276,0.1625,0.4093,0.595,348.1562
11:11:53:463,0.6823,1.817,6.0332,46.6896,0.0959,0.1796,0.5137,348.1562
11:11:53:482,0.7588,2.1069,6.7944,46.8869,-0.0006,-0.077,0.3286,346.7656
11:11:53:499,0.4597,2.0471,7.9699,46.9238,-0.1332,-0.2401,0.113,346.7656
11:11:53:520,0.2656,1.9247,9.4567,46.7771,-0.2523,-0.2724,0.0031,345.3438
11:11:53:546,0.1077,1.9367,10.2586,46.8197,-0.2663,-0.1753,-0.0165,345.3438
11:11:53:562,-0.4478,1.6208,10.6944,47.419,-0.1808,-0.0947,-0.022,344.25
11:11:53:583,-0.8453,1.3597,10.6322,47.7261,-0.0678,-0.0806,0.0593,344.1406
11:11:53:600,-0.3832,1.5299,10.8021,47.8556,-0.0421,-0.1918,0.2095,342.8125
11:11:53:622,0.4836,1.7166,11.9441,48.018,-0.16,-0.3989,0.2511,342.8125
11:11:53:645,0.8402,1.4366,13.2203,48.111,-0.2847,-0.4899,0.1588,341.5938
11:11:53:662,0.874,0.9553,13.2443,48.1639,-0.2468,-0.3671,0.0825,341.4688
11:11:53:681,1.3836,0.7851,11.9178,48.4467,-0.1002,-0.1857,0.0788,340.3125
11:11:53:699,1.951,0.7205,11.5158,48.5267,-0.0947,-0.2046,-0.0134,340.2031
11:11:53:723,0.7301,-1.4629,14.0868,48.0833,-0.5937,-0.1881,-0.5284,338.875
11:11:53:741,-0.0622,-2.1571,14.5514,48.0596,-0.6182,0.0257,-0.54,338.875
11:11:53:761,-0.3209,-2.217,13.8787,47.9951,-0.3543,0.2016,-0.3518,338.0312
11:11:53:779,0.4382,-1.3597,11.7694,47.8344,0.1124,0.3146,-0.0275,337.9531
11:11:53:799,1.8266,-0.1388,9.8758,47.7002,0.5107,0.2089,0.1741,337.8125
11:11:53:819,2.8896,0.6296,8.8391,47.6921,0.6255,-0.0104,0.0531,337.7969
11:11:53:845,2.3462,0.4884,8.243,47.6233,0.4251,-0.0525,-0.3201,337.8125
11:11:53:862,0.8955,-0.0598,8.2023,47.5065,0.0739,0.0861,-0.5974,337.8125
11:11:53:881,-0.1507,-0.2465,7.6014,47.7994,-0.1582,0.3262,-0.6017,337.5469
11:11:53:900,-0.5483,-0.0574,6.8806,47.7834,-0.2199,0.4044,-0.4716,337.0625
11:11:53:919,-0.5602,0.213,6.6413,47.7857,-0.1894,0.2511,-0.3323,337.0625
11:11:53:944,-0.4836,0.5195,6.8471,47.9837,-0.135,0.0599,-0.2291,336.8594
11:11:53:963,-0.2512,0.8306,6.7944,48.1752,-0.088,0.0159,-0.1484,336.8594
11:11:53:980,0.0239,1.1874,6.5527,48.3796,-0.0794,0.088,-0.0983,337.1719
11:11:54:000,0.213,1.5156,6.4065,48.4806,-0.1313,0.1662,-0.0959,337.1719
11:11:54:020,0.2512,1.6663,6.5743,48.6888,-0.2083,0.1906,-0.1448,338.2344
11:11:54:045,0.2273,1.7046,7.022,48.4712,-0.2712,0.1655,-0.2132,338.2344
11:11:54:062,0.2465,1.7548,7.8239,48.3078,-0.3189,0.1228,-0.2798,338.25
11:11:54:082,0.1292,1.6448,8.9587,48.3906,-0.3738,0.1167,-0.3494,338.6406
11:11:54:100,-0.2827,1.3836,9.9643,48.565,-0.3983,0.1759,-0.3958,338.4844
11:11:54:121,-1.0128,1.0654,10.8787,48.3244,-0.3604,0.2578,-0.3738,338.4844
11:11:54:145,-1.8242,0.8548,11.8531,48.3441,-0.2541,0.3286,-0.2382,339.4375
11:11:54:161,-1.7764,0.9817,12.2004,48.2067,-0.0464,0.3121,0.0024,339.5312
11:11:54:181,-1.3813,1.1803,12.5139,48.4799,0.1527,0.1503,0.1912,340.5625
11:11:54:200,-0.8501,1.0223,13.3208,48.6706,0.2645,-0.0874,0.2553,340.6562
11:11:54:221,-0.486,0.8067,13.5099,49.0114,0.2847,-0.1118,0.2504,341.1875
11:11:54:244,-0.3951,0.7397,12.8731,49.1305,-0.0354,0.1674,0.2114,341.25
11:11:54:263,-0.2728,0.2536,13.9696,49.0556,-0.2743,0.1863,0.135,341.4844
11:11:54:280,-0.7373,-0.5076,14.173,48.9672,-0.3225,0.2236,0.0696,341.5
11:11:54:299,-0.929,-1.1133,13.838,49.0944,-0.1167,0.1472,0.088,341.7031
11:11:54:319,-1.0534,-1.5634,12.7774,49.1903,0.2395,0.0513,0.1533,341.7188
11:11:54:340,-0.7636,-1.6041,11.013,48.9732,0.5626,0.0018,0.2572,342.1562
11:11:54:362,-0.376,-1.319,9.2243,48.9423,0.6524,-0.0483,0.3158,342.2031
11:11:54:380,-0.2898,-1.1611,8.5469,48.7432,0.4478,-0.157,0.2737,342.8594
11:11:54:399,-0.5506,-1.3071,8.7841,48.5698,0.0916,-0.2181,0.1924,343.5312
11:11:54:419,-1.0845,-1.3789,9.2339,48.2917,-0.2016,-0.1564,0.1778,343.5312
11:11:54:443,-1.3143,-1.1133,8.9994,48.6626,-0.2865,-0.0293,0.2889,343.3438
11:11:54:461,-1.1731,-0.5722,8.2095,48.3199,-0.1826,0.0287,0.4484,343.3438
11:11:54:482,-0.7995,-0.0598,7.5174,48.2087,-0.0061,-0.0666,0.5565,342.8594
11:11:54:499,-0.443,0.256,7.2326,47.9393,0.1362,-0.2242,0.5895,342.8594
11:11:54:520,-0.3066,0.3712,7.1058,47.9413,0.1955,-0.314,0.5608,342.3906
11:11:54:539,-0.3185,0.364,7.101,47.8801,0.1808,-0.3201,0.5284,342.3906
