Time,Acc_X,Acc_Y,Acc_Z,Meg,Gyr_X,Gyr_Y,Gyr_Z,Ore
20:22:52:245,-0.3449,2.1811,8.6474,67.7577,-0.3696,-0.1264,-0.3268,15.1094
20:22:52:246,-0.8812,2.1117,9.5836,67.3944,-0.6139,0.1643,-0.1466,61.0312
20:22:52:255,-1.0367,1.9968,10.3905,67.0435,-0.6017,0.102,-0.0965,67.7656
20:22:52:276,-0.8091,1.8649,10.8117,66.995,-0.4765,0.1283,-0.014,68.4375
20:22:52:299,-0.5171,1.7836,10.7231,67.1321,-0.2999,0.2242,0.0324,68.5312
20:22:52:316,-0.3975,1.8601,10.3041,67.0685,-0.1582,0.2889,0.0171,68.5312
20:22:52:334,-0.4382,1.9681,10.0481,66.9122,-0.1045,0.2321,-0.0495,68.5312
20:22:52:354,-0.644,2.0207,9.9691,66.9371,-0.1118,0.1228,-0.1161,68.5312
20:22:52:374,-0.766,2.0471,10.0193,66.6784,-0.1271,0.0177,-0.1381,68.5312
20:22:52:400,-0.7205,2.0782,10.1414,66.5735,-0.1313,-0.0507,-0.1393,68.5312
20:22:52:417,-0.6942,2.0758,10.1892,66.5146,-0.1167,-0.0733,-0.1545,68.5312
20:22:52:434,-0.6679,2.1236,10.1868,66.656,-0.0825,-0.0745,-0.19,68.5312
20:22:52:453,-0.7277,2.1332,10.1581,66.4348,-0.0367,-0.0458,-0.2456,68.5312
20:22:52:476,-0.7899,2.0997,10.0433,66.4016,0.0269,0.0147,-0.3042,68.5312
20:22:52:497,-0.9027,2.0949,9.9404,66.501,0.0757,0.0562,-0.3769,68.5312
20:22:52:515,-1.1372,2.2385,9.7941,66.65,0.077,0.0886,-0.4465,68.5312
20:22:52:534,-1.3478,2.3701,9.7511,66.9195,0.0525,0.099,-0.4587,68.5312
20:22:52:555,-2.0016,2.5184,9.8853,66.9496,0.0397,0.0489,-0.3861,68.5312
20:22:52:576,-1.9777,2.5307,10.0289,67.0412,0.0568,0.0702,-0.2987,68.4375
20:22:52:599,-1.7764,2.6001,10.1103,66.9284,0.1008,0.1564,-0.2187,68.4219
20:22:52:613,-1.4222,2.217,9.1143,67.0358,0.1692,0.2395,-0.1613,68.3906
20:22:52:634,-0.8835,3.0117,8.633,67.1602,0.0916,0.0244,-0.1637,68.3906
20:22:52:654,-1.5945,2.8083,9.0353,67.072,-0.1118,-0.1942,-0.3482,68.6094
20:22:52:673,-1.5873,2.4802,9.0066,66.8653,-0.1472,-0.0959,-0.4221,68.6406
20:22:52:697,-1.4414,2.6743,8.8774,66.8382,-0.0403,0.2639,-0.3861,68.9219
20:22:52:714,-2.327,2.7772,8.8774,66.9814,0.0867,0.8778,-0.3726,69.4375
20:22:52:734,-3.1914,2.8848,8.8702,67.0681,0.2785,1.518,-0.2401,69.4375
20:22:52:753,-7.223,3.1196,8.0393,67.1259,0.43,1.6866,-0.0012,70.1875
20:22:52:775,-6.4472,3.3876,9.2773,67.0613,0.1209,0.8472,0.4526,70.1875
20:22:52:798,-3.6799,2.6719,9.5285,67.0236,0.0244,0.5925,1.0476,71.1719
20:22:52:815,-0.8764,2.5331,9.2076,67.1268,0.1032,0.6811,1.372,71.1719
20:22:52:835,2.3797,1.9896,8.3913,67.1777,0.2193,0.846,1.3409,72.0781
20:22:52:854,2.6432,2.2217,9.253,66.9937,0.4007,0.7752,1.0305,72.0781
20:22:52:875,0.2177,2.8896,8.9611,66.8835,0.7507,1.1405,0.2694,72.0781
20:22:52:897,-5.7218,4.4626,2.0758,66.7347,0.4557,0.0312,-0.529,72.6406
20:22:52:915,-5.6692,2.9925,8.9659,66.5636,-1.1679,-2.4141,-0.5626,72.9844
20:22:52:935,-2.8226,4.1871,11.2355,66.7078,-1.4747,-2.2981,0.3054,72.9844
20:22:52:953,-1.9175,4.0699,12.8827,66.571,-1.1044,-1.9456,0.788,73.8438
20:22:52:976,-0.8453,3.3039,12.897,66.4277,-0.449,-1.1759,0.8656,73.8438
20:22:52:999,0.146,3.2489,12.1932,66.2958,0.2156,-0.6878,0.7611,74.5156
20:22:53:013,2.3629,4.2592,11.8436,66.4099,0.6579,-0.485,0.5766,74.5781
20:22:53:036,-0.0407,3.5767,11.4796,66.4744,1.0849,-0.5711,0.3274,74.625
20:22:53:056,-0.2082,3.3637,8.6521,66.8607,1.3562,-0.5027,-0.2242,74.625
20:22:53:082,-0.4645,4.156,7.8909,67.0312,1.1545,-0.2871,-0.3244,73.0312
20:22:53:098,-1.6065,3.8498,8.1951,67.0798,0.642,0.1533,-0.3115,72.8594
20:22:53:115,-2.9351,4.0986,8.9755,67.0524,0.2449,0.609,-0.0489,70.0469
20:22:53:133,-3.3709,4.1824,8.9611,67.1705,0.1075,0.7807,0.4398,69.7656
20:22:53:154,-1.9872,3.3852,8.8152,67.3627,0.0189,0.1631,0.9804,68.3906
20:22:53:174,0.778,3.3135,9.4041,67.3439,-0.1802,-0.573,1.3048,68.2656
20:22:53:197,3.1986,5.0898,12.2602,67.3331,-0.3848,-0.5327,1.0836,69.5
20:22:53:213,0.9936,3.5288,12.7295,66.9963,-0.3812,0.1643,0.2944,68.6875
20:22:53:235,-0.5746,2.0662,11.3001,66.9877,-0.1368,0.5143,-0.0721,68.6875
20:22:53:253,-0.376,2.3773,10.7375,66.8438,0.0672,0.3909,0.0195,66.9688
20:22:53:275,0.8931,2.1547,11.08,66.7206,0.1124,0.2297,0.1399,66.9688
20:22:53:297,1.3214,1.8194,10.1031,66.7037,0.1668,0.4288,0.113,66.1875
20:22:53:314,0.3138,1.4868,8.997,66.776,0.2859,0.4423,0.011,66.1875
20:22:53:334,1.2401,2.3749,7.8646,66.7054,0.4306,0.1735,0.0721,66.1719
20:22:53:353,1.5754,3.2082,8.3937,66.7807,0.4881,-0.2957,0.0965,66.7188
20:22:53:375,0.6655,3.4642,8.0513,66.7286,0.4765,-0.3665,-0.1955,66.7188
20:22:53:396,0.6176,2.6743,7.0268,66.5162,0.2773,0.0079,-0.4887,67.5156
20:22:53:414,0.443,2.0973,7.558,66.5116,-0.1533,0.0849,-0.5895,66.9062
20:22:53:435,-0.4741,1.6424,8.2238,66.5973,-0.5773,0.182,-0.7043,66.9062
20:22:53:453,-0.8402,1.4797,8.9348,66.381,-0.9157,0.3268,-0.7245,64.4531
20:22:53:474,-0.0407,2.1284,10.3834,66.2517,-1.0482,0.5015,-0.6854,64.4531
20:22:53:497,-0.3138,2.6551,9.2076,66.1322,-0.7501,0.6011,-0.7489,63.0938
20:22:53:514,0.0072,3.1914,9.306,66.1783,-0.2162,-0.2364,-0.9297,62.9531
20:22:53:535,-0.3257,2.3079,9.7295,66.3111,0.3793,-1.0091,-1.1093,62.8594
20:22:53:554,-0.6918,1.6041,9.4017,66.427,0.7281,-1.0775,-1.105,62.8594
20:22:53:577,-0.9769,2.4443,7.6588,66.3151,0.7239,-0.7098,-0.7929,62.5156
20:22:53:598,-0.8548,3.3852,7.3235,66.2307,0.0941,-0.463,-0.3812,62.4844
20:22:53:613,1.0893,3.2536,7.4336,66.2843,-0.1472,-0.4209,-0.4594,62.3438
20:22:53:634,-0.431,3.2608,7.7474,66.3324,-0.4197,-0.3567,-0.6768,62.3281
20:22:53:653,-1.4198,3.038,8.985,66.6042,-0.6817,-0.281,-0.5895,62.5938
20:22:53:673,-1.1396,3.0523,10.5485,66.5157,-0.7086,-0.2572,-0.3085,62.6094
20:22:53:697,-0.8668,3.8641,10.7734,66.5214,-0.4587,-0.1955,-0.1552,63.6719
20:22:53:714,-0.565,4.046,10.4671,66.3917,-0.2016,-0.1704,-0.1863,65.0469
20:22:53:733,-0.9338,3.7134,9.7774,66.5105,0.0195,-0.2388,-0.3134,65.0469
20:22:53:753,-1.4725,3.8378,9.8061,66.6364,0.19,-0.3848,-0.3531,66.4375
20:22:53:774,-1.7285,4.1441,10.0624,66.7619,0.3011,-0.4887,-0.314,66.4375
20:22:53:796,-1.9247,4.3525,10.4145,66.7036,0.3818,-0.565,-0.3042,66.4531
20:22:53:814,-1.3502,4.3573,10.0816,66.5585,0.463,-0.7116,-0.2834,68.8594
20:22:53:835,-0.9793,4.2063,10.8165,66.8211,0.4416,-0.8735,-0.3256,68.875
20:22:53:854,-1.1635,3.9024,11.511,66.9503,0.2297,-0.5803,-0.4056,71.3125
20:22:53:876,-1.5395,3.8163,11.7598,67.2436,-0.0104,-0.0513,-0.3873,71.3438
20:22:53:897,-1.7859,3.9,11.4844,67.2807,-0.201,0.3512,-0.295,72.4688
20:22:53:914,-1.6137,3.4235,11.3599,67.3791,-0.3311,0.441,-0.2022,73.8125
20:22:53:937,-0.9362,2.5161,12.9377,67.6231,-0.3329,0.1026,-0.1356,73.8125
20:22:53:954,-0.9242,1.9175,14.4604,67.7911,-0.1093,-0.1136,-0.113,74.8125
20:22:53:974,-1.5514,1.7213,13.3017,67.8483,0.3567,0.1179,-0.0678,74.8125
20:22:53:998,-2.0399,1.7333,9.5381,67.6272,0.8033,0.4667,0.0855,75.1719
20:22:54:013,-1.9968,2.0255,6.5647,67.6256,0.9224,0.4178,0.2914,75.2031
20:22:54:034,-1.5227,2.5113,6.5671,67.7089,0.7037,0.0159,0.4459,75.9531
20:22:54:053,-0.6105,2.6527,8.1377,67.7758,0.3744,-0.3176,0.4813,76.0156
20:22:54:075,-0.2297,1.7477,10.8547,67.637,-0.0287,-0.1625,0.292,76.8594
20:22:54:097,-0.4597,1.7883,10.704,67.6092,-0.0269,0.2077,0.2914,76.8594
20:22:54:114,-0.3616,2.1978,9.119,67.5975,0.1002,0.4887,0.3482,77.6875
20:22:54:185,-0.7516,2.7197,7.5966,67.5327,0.2303,0.5088,0.3726,77.7812
20:22:54:185,-0.996,3.2895,7.0986,67.463,0.3066,0.3066,0.4227,78.6562
20:22:54:185,-0.6894,3.7995,7.0579,67.4212,0.3879,0.0489,0.5033,78.75
20:22:54:198,-0.3592,4.3143,7.369,67.0835,0.4539,-0.182,0.5125,79.1406
20:22:54:213,-0.3712,4.5918,8.1302,67.0347,0.4068,-0.2211,0.4203,79.4219
20:22:54:233,-0.5291,4.2281,8.918,66.8719,0.2712,-0.0409,0.2981,79.4219
20:22:54:253,-0.9338,3.7804,9.198,66.6037,0.201,0.1979,0.2169,79.375
20:22:54:274,-1.1803,3.6488,9.1621,66.5866,0.2395,0.3274,0.2327,79.375
20:22:54:298,-1.0175,3.9838,8.6665,66.8085,0.3317,0.3592,0.3103,79.375
20:22:54:313,-0.6679,4.331,8.7984,66.926,0.3964,0.2865,0.347,78.5625
20:22:54:336,-0.3999,4.2015,8.7147,66.9051,0.4587,0.1979,0.3085,78.5469
20:22:54:353,-0.3832,4.0029,8.6306,66.8734,0.4783,0.1307,0.259,77.7344
20:22:54:375,-0.3185,3.9503,8.741,66.7672,0.4209,0.1191,0.2566,77.7344
20:22:54:396,-0.0359,3.9885,8.9061,66.617,0.3415,0.1185,0.2663,77.0781
20:22:54:414,0.256,3.8809,8.7506,66.6156,0.2938,0.0354,0.237,76.125
20:22:54:434,0.4095,3.7612,8.7817,66.5153,0.226,-0.1209,0.1851,76.125
20:22:54:454,0.4143,3.7325,8.8223,66.1716,0.102,-0.2621,0.1643,75.0625
20:22:54:475,0.4238,3.6583,8.8965,66.1786,-0.077,-0.3396,0.1735,75.0625
20:22:54:498,0.4286,3.4116,9.4304,66.1824,-0.3183,-0.3274,0.2223,74.1406
20:22:54:513,1.331,3.5145,9.8925,66.2033,-0.5656,-0.1533,0.3268,74.1406
20:22:54:534,2.5475,3.5049,10.2443,66.1178,-0.8094,0.1191,0.3445,73.6094
20:22:54:553,2.6743,3.0811,11.056,66.3451,-1.0262,0.3378,0.1747,73.5469
20:22:54:574,2.1811,2.3342,11.415,66.3827,-1.0617,0.3983,-0.047,72.8906
20:22:54:598,1.5395,1.9128,11.3192,66.1807,-0.6396,0.0916,-0.2572,72.8281
20:22:54:615,1.2855,1.8458,10.7399,66.3027,-0.419,-0.1112,-0.2859,72.1094
20:22:54:634,1.252,2.1284,9.9547,66.1599,-0.3152,-0.3164,-0.3409,72.0312
20:22:54:653,1.0367,2.0447,10.1868,65.8268,-0.3134,-0.3836,-0.4142,71.4844
20:22:54:675,0.553,1.9992,10.0935,65.9362,-0.3176,-0.2859,-0.4624,71.4375
20:22:54:694,0.4023,2.2289,9.2219,65.8701,-0.2504,-0.1875,-0.4563,70.9219
20:22:54:713,0.1555,2.6049,8.3052,65.8043,-0.1833,-0.1802,-0.4636,70.5938
20:22:54:734,0.079,2.9495,8.3937,65.6399,-0.1686,-0.2517,-0.4875,70.5938
20:22:54:753,-0.297,2.8848,8.5062,65.8722,-0.1368,-0.3073,-0.5437,70.3125
20:22:54:773,-0.376,2.6169,8.8439,65.6355,-0.047,-0.3867,-0.5638,70.3125
20:22:54:794,-0.3616,2.8466,8.6856,65.5623,0.0904,-0.3592,-0.4868,70.2812
20:22:54:813,0.1962,3.3876,8.0871,65.4588,0.1784,-0.2767,-0.3928,69.5312
20:22:54:836,0.711,3.8067,7.8742,65.3601,0.1729,-0.223,-0.3928,69.5312
20:22:54:853,0.9266,3.591,7.8407,65.584,0.1051,-0.19,-0.4801,69.2031
20:22:54:874,0.6727,3.213,7.8479,65.8394,0.0073,-0.1704,-0.5626,69.2031
20:22:54:896,0.4525,2.9806,8.4081,65.8288,-0.1124,-0.1527,-0.5681,69.5938
20:22:54:913,0.1627,3.0452,9.7271,65.8556,-0.2034,-0.1222,-0.4978,70.3438
20:22:54:934,0.1555,3.0021,10.5341,66.0324,-0.1338,-0.11,-0.394,70.3438
20:22:54:954,0.0191,3.28,10.1366,66.132,0.0446,-0.0452,-0.2957,71.4062
20:22:54:975,-0.4334,3.833,9.3419,66.2773,0.1167,0.099,-0.2077,71.4062
20:22:54:996,-0.8163,4.4004,9.0664,66.5608,0.0428,0.2181,-0.1173,72.4688
20:22:55:013,-0.7828,4.5607,9.8231,66.6057,-0.0391,0.2089,-0.0452,72.4688
20:22:55:034,-0.4119,4.3454,10.625,66.4976,-0.0006,0.1332,-0.0147,73.5625
20:22:55:053,-0.4406,4.2951,10.2993,66.7387,0.091,0.1313,-0.0446,73.6719
20:22:55:075,-1.0247,4.1656,10.5556,66.803,0.0605,0.1295,-0.0996,74.8281
20:22:55:098,-2.2648,4.0555,11.5995,67.0544,0.0519,0.2602,-0.0733,74.9531
20:22:55:115,-2.624,3.8641,10.8667,67.0371,0.1124,0.3763,-0.0128,75.8125
20:22:55:135,-2.2385,3.3206,10.7447,67.095,0.0751,0.3329,0.0849,75.9062
20:22:55:153,-1.64,2.4993,11.5469,67.0244,0.0128,0.1167,0.1765,77
20:22:55:174,-1.5132,2.2959,13.3615,67.0987,-0.0122,-0.0641,0.2431,77.0938
20:22:55:196,-1.4294,2.339,13.1818,67.2047,0.1014,0.1497,0.325,78.2031
20:22:55:213,-1.7022,2.0207,11.511,67.0528,0.2889,0.4771,0.3793,79.0312
20:22:55:233,-1.6472,1.963,9.562,66.8809,0.3812,0.6157,0.4569,79.0312
20:22:55:253,-1.2688,2.2792,9.0233,66.7471,0.3189,0.4282,0.5272,79.0938
20:22:55:275,-0.7851,2.2265,9.3658,66.8695,0.2443,0.1497,0.496,79.3906
20:22:55:297,-0.4597,1.7788,9.6984,66.8471,0.2596,0.0232,0.3934,79.4219
20:22:55:314,-0.6775,1.4055,8.8391,66.6107,0.3158,0.1655,0.306,79.4375
20:22:55:334,-1.1037,1.3095,7.4288,66.3528,0.2999,0.3848,0.2816,79.4375
20:22:55:353,-1.5826,1.4486,6.6317,66.1718,0.1936,0.4673,0.3256,79.5469
20:22:55:375,-1.7716,1.7309,6.457,66.2732,0.1216,0.3622,0.4282,79.5469
20:22:55:398,-1.3525,2.0088,6.2198,66.1908,0.1454,0.1839,0.5241,79.7031
20:22:55:413,-1.3023,2.1835,5.6405,66.2522,0.1209,0.1136,0.5601,79.5156
20:22:55:435,-1.2114,2.5065,5.8176,66.1166,-0.0867,0.1289,0.6194,79.5156
20:22:55:453,-0.7708,3.0909,7.3044,66.2791,-0.328,0.055,0.675,79.0625
20:22:55:474,-0.2898,3.3302,8.8702,66.2895,-0.361,-0.0531,0.6084,79.0625
20:22:55:496,-0.4238,3.2465,9.2845,66.172,-0.2016,-0.0446,0.4502,78.1875
20:22:55:514,-0.8572,3.0404,8.9324,66.118,-0.0434,0.0226,0.3311,78.1875
20:22:55:534,-1.2377,2.9351,8.9013,65.9332,0.0171,0.0006,0.3018,77.0781
20:22:55:553,-1.4103,2.904,9.2773,65.8119,0.0348,-0.0855,0.3299,76.9688
20:22:55:575,-1.3693,3.2345,9.6075,65.6789,0.0397,-0.1258,0.3677,76.0625
20:22:55:596,-1.142,3.335,10.1246,65.4524,-0.0574,-0.0318,0.3573,75.9688
20:22:55:615,-1.1611,2.8394,12.0589,65.2587,-0.4679,0.3225,0.3128,75.3281
20:22:55:635,-1.0654,2.837,12.6721,65.1803,-0.4587,0.2315,0.35,75.25
20:22:55:654,-0.7301,3.038,13.0573,64.9276,-0.2926,0.0318,0.405,74.375
20:22:55:675,0.012,2.9686,12.454,64.9014,-0.0776,-0.0757,0.4459,74.2812
20:22:55:698,0.5889,2.7173,11.3862,64.5817,0.0171,-0.0715,0.4264,73.1562
20:22:55:714,0.8402,2.2887,11.6761,64.4627,-0.1399,0.0098,0.358,73.0312
20:22:55:733,0.5411,2.0518,12.8516,64.3219,-0.3641,0.2547,0.303,71.7031
20:22:55:753,0.3688,2.0279,12.3775,64.2231,-0.3457,0.5901,0.3195,71.5781
20:22:55:775,0.4167,2.0279,11.0632,63.9565,-0.1197,0.6799,0.3732,70.5
20:22:55:795,1.0343,2.26,9.8157,63.8777,0.1387,0.4722,0.4264,70.3906
20:22:55:813,1.6232,2.4682,8.9611,63.9936,0.223,0.2724,0.4013,69.6875
20:22:55:836,1.5921,2.581,9.1908,63.7679,0.033,0.2639,0.284,69.6875
20:22:55:853,0.9936,2.2026,10.4767,63.94,-0.1912,0.3525,0.1277,68.9531
20:22:55:875,0.1172,1.7261,10.9555,63.9344,-0.1741,0.5003,0.0324,68.9531
20:22:55:897,-0.3568,1.8505,10.0528,63.6689,0.0061,0.7037,0.0421,68.1719
20:22:55:914,-0.9601,2.0207,8.7099,63.8078,0.1289,0.8931,0.0666,67.3125
20:22:55:935,-1.3573,2.1954,7.8287,63.6706,0.1533,0.9798,0.1209,67.3125
20:22:55:953,-1.5156,2.3773,7.1512,63.4258,0.1503,0.9841,0.2169,66.375
20:22:55:974,-1.6041,2.5307,7.2829,63.2088,0.1014,0.9725,0.3464,66.375
20:22:55:996,-1.1587,3.4331,6.4304,63.2221,0.0666,0.9706,0.4887,65.5156
20:22:56:012,-0.7253,4.4435,5.9566,62.9564,0.1545,0.4697,0.4752,65.5156
20:22:56:034,-0.5746,3.4116,7.6588,62.8908,0.2517,-0.2627,0.3073,64.6719
20:22:56:053,-0.6583,3.7923,8.5445,62.7523,0.1833,-0.3372,0.2223,64.6719
20:22:56:074,-0.8067,3.8761,8.7888,62.2947,0.1497,-0.2388,0.1161,63.7031
20:22:56:097,-1.1037,4.0627,8.2143,62.1237,0.1613,-0.2065,0.0043,63.5938
20:22:56:116,-1.1252,4.2114,7.9986,62.2091,0.2065,-0.4526,-0.0464,62.8438
20:22:56:137,-1.4174,4.8003,9.294,62.166,0.2908,-0.8637,-0.0367,62.7656
20:22:56:160,-1.7166,5.1401,9.2411,62.1243,0.3378,-0.7367,0.0073,62.4531
20:22:56:184,-1.9415,5.3701,8.4823,61.9571,0.3903,-0.5302,0.066,62.4219
20:22:56:232,-2.3892,5.916,8.6402,61.8092,0.3164,-0.3323,0.1399,62.0938
20:22:56:240,-2.7006,5.5304,8.8391,62.0226,0.1851,-0.1552,0.1967,62.0625
20:22:56:240,-3.2656,5.3581,8.8989,62.2024,0.1069,-0.0947,0.2608,61.4531
20:22:56:253,-3.4834,5.152,10.3567,62.5019,-0.0079,-0.0702,0.3555,61.3906
20:22:56:274,-3.6317,4.8649,11.3336,62.4323,-0.0855,0.1417,0.4673,60.2656
20:22:56:298,-3.3996,4.3071,10.8619,62.3336,-0.088,0.4386,0.6231,60.1562
20:22:56:315,-2.9279,4.0364,10.6226,62.3343,-0.0611,0.5003,0.8136,59.2969
20:22:56:333,-2.5017,3.7397,10.9675,62.4455,-0.0324,0.4123,0.9603,59.2969
20:22:56:353,-1.7572,3.2058,11.5373,62.3452,0.0513,0.3079,1.0598,59.0625
20:22:56:373,-1.3669,2.7317,10.8547,61.9296,0.2272,0.212,1.0672,59.0625
20:22:56:397,-1.5491,2.3677,10.1677,61.7626,0.3262,0.0666,0.9957,59.2656
20:22:56:414,-2.0088,2.1571,10.3113,61.3529,0.2694,-0.0024,0.9224,59.7188
20:22:56:434,-2.1954,1.6878,10.1964,60.8571,0.1662,0.08,0.9022,59.7188
20:22:56:453,-2.2457,1.5826,9.5548,60.7173,0.1179,0.1362,0.9114,59.9531
20:22:56:474,-2.016,1.561,9.1789,60.3249,0.0476,0.1209,0.9163,59.9531
20:22:56:499,-1.5371,1.3836,9.5213,60.0628,-0.0904,0.1197,0.901,59.7188
20:22:56:514,-1.3262,1.2473,9.4663,59.7898,-0.2169,0.3024,0.8607,59.7188
20:22:56:536,-1.4151,1.3813,8.6928,59.7162,-0.3024,0.6078,0.8253,59.0781
20:22:56:553,-1.5395,1.398,7.9364,59.5013,-0.3647,0.8191,0.8136,59.0781
20:22:56:574,-1.4462,1.3645,7.357,59.32,-0.3567,0.799,0.8436,57.875
20:22:56:598,-1.3693,1.6759,7.4169,59.286,-0.2957,0.5492,0.8949,57.75
20:22:56:615,-1.2377,2.4132,8.3363,59.212,-0.2504,0.3128,0.9438,55.8125
20:22:56:635,-1.1539,2.6432,8.8965,58.9225,-0.1839,0.2834,0.9205,55.6094
20:22:56:655,-1.7716,3.0763,7.3834,58.6935,-0.0996,0.5094,0.8424,53.4062
20:22:56:681,-1.9056,3.4164,7.7569,58.2657,-0.193,0.4594,0.8705,53.1875
20:22:56:698,-1.7285,3.6006,8.7482,58.0746,-0.2181,0.303,0.8973,51.2656
20:22:56:715,-1.2975,3.4881,9.5692,57.9742,-0.1069,0.091,0.8979,51.0781
20:22:56:734,-1.0726,3.4618,9.5453,57.7207,0.0525,-0.0647,0.8802,49.2344
20:22:56:753,-0.8378,3.7397,9.5907,57.5074,0.1081,-0.1283,0.8778,49.0469
20:22:56:774,-0.5076,4.0603,9.6721,57.3332,0.0696,-0.1301,0.8772,47.1719
20:22:56:795,-0.055,4.0388,10.0337,57.288,-0.011,-0.1197,0.8344,46.9844
20:22:56:814,0.1005,3.7349,10.7399,57.2184,-0.0959,-0.1759,0.7446,45.0938
20:22:56:834,-0.0311,3.5527,11.3073,57.1918,-0.1515,-0.2254,0.6725,44.9062
20:22:56:854,-0.0263,3.5839,11.5011,57.1381,-0.1723,-0.1912,0.678,42.6875
20:22:56:878,0.2827,3.7923,10.905,56.9152,-0.1613,-0.0874,0.73,42.6719
20:22:56:896,0.8115,3.8976,9.7534,56.9989,-0.1771,-0.0031,0.7355,40.4531
20:22:56:914,1.1204,3.4714,9.2821,57.0065,-0.3042,-0.0574,0.6322,38.3281
20:22:56:935,0.6799,2.5065,9.8662,56.68,-0.507,-0.1655,0.4734,38.3281
20:22:56:955,-0.201,1.9705,11.4245,56.5354,-0.6518,-0.1814,0.3928,36.2188
20:22:56:980,-0.3951,1.4414,12.3966,56.4977,-0.5504,-0.0702,0.4575,36.2188
20:22:56:994,-0.1316,1.0463,11.3169,56.3422,-0.2059,0.0794,0.6029,34.1406
20:22:57:014,0.0526,1.2855,9.3203,56.1946,0.0941,0.1264,0.7739,34.1406
20:22:57:034,0.8115,1.6854,8.4392,55.9958,0.1075,0.022,0.9407,32.25
20:22:57:053,1.7477,1.9992,8.7266,55.7256,-0.0843,-0.0574,0.9981,32.25
20:22:57:075,2.1021,2.0997,9.4854,55.66,-0.2981,-0.0122,0.8955,30.5781
20:22:57:096,1.8553,2.0207,9.6147,55.3367,-0.4258,0.2223,0.7312,30.4219
20:22:57:113,1.3789,1.8817,8.9085,55.2653,-0.4954,0.5583,0.5986,29.0625
20:22:57:133,0.8306,1.8817,7.9101,54.793,-0.5644,0.8344,0.5247,28.9375
20:22:57:155,0.3353,1.9271,7.4408,54.6547,-0.6848,0.9835,0.4759,27.5625
20:22:57:179,-0.2898,2.0231,7.357,54.4821,-0.7788,0.9761,0.4612,27.4375
20:22:57:195,-0.4765,1.9801,7.2565,54.2485,-0.6848,0.81,0.4746,26.0625
20:22:57:214,-0.4286,2.1715,7.2709,53.9697,-0.543,0.5113,0.5101,25.9375
20:22:57:234,-0.297,2.6647,7.5628,53.7007,-0.4209,0.149,0.518,25.1094
20:22:57:254,0.0814,3.0547,8.7577,53.4337,-0.3769,-0.1778,0.4618,25.0312
20:22:57:277,0.486,2.7867,9.7439,53.1547,-0.3586,-0.284,0.3518,23.9688
20:22:57:293,0.3927,2.6647,10.0289,53.1463,-0.3744,-0.1521,0.2547,23.8594
20:22:57:313,-0.0048,2.8609,10.7877,53.0603,-0.4337,0.0104,0.2217,22.125
20:22:57:334,-0.2704,2.9614,11.4006,52.8289,-0.4166,0.1075,0.2578,21.9531
20:22:57:353,-0.5363,2.9853,11.8771,53.0937,-0.2828,0.0733,0.3237,19.8906
20:22:57:374,-0.8234,3.0188,12.1167,53.1133,-0.0959,-0.0018,0.438,19.875
20:22:57:396,-0.7947,3.0858,12.4732,53.2344,0.0806,-0.0495,0.6139,18.2969
20:22:57:414,-0.213,3.3111,12.2698,53.5444,0.2584,-0.0116,0.8088,16.8906
20:22:57:436,0.134,3.8091,11.6641,53.684,0.3744,0.0635,0.9132,16.8906
20:22:57:453,0.1531,4.0914,11.9034,53.8904,0.3799,0.0886,0.9132,15.5625
20:22:57:474,0.0072,3.8952,12.2698,54.0455,0.405,0.0904,0.8497,15.5625
20:22:57:496,-0.7469,3.5145,11.8484,54.2348,0.5333,0.1203,0.7568,14.2656
20:22:57:513,-1.64,3.2824,10.7255,53.84,0.6603,0.179,0.7263,14.2656
20:22:57:536,-2.083,3.2106,9.6242,54.0472,0.6548,0.1906,0.7904,13.1562
20:22:57:553,-1.884,3.0212,9.3491,53.9488,0.5125,0.0367,0.8784,13.1562
20:22:57:575,-1.3621,2.4275,9.9667,53.9897,0.35,-0.2718,0.9205,12.5781
20:22:57:597,-1.3262,1.9705,11.2929,53.947,0.2657,-0.5913,0.9016,12.5156
20:22:57:613,-1.2808,1.7166,11.9489,53.6851,0.3256,-0.6945,0.8931,12
20:22:57:635,-1.2233,1.4438,11.4796,53.7268,0.4594,-0.5968,0.8857,11.9531
20:22:57:654,-1.1659,1.1587,10.4504,53.4111,0.4856,-0.369,0.8698,11.1719
20:22:57:681,-1.0439,1.1157,9.5931,53.7155,0.317,-0.069,0.8802,11.0938
20:22:57:695,-0.8524,1.0917,9.4543,53.405,0.0874,0.1521,0.8918,9.6875
20:22:57:714,-0.3185,0.929,9.6362,53.3222,-0.0134,0.2162,0.8821,9.5469
20:22:57:733,-0.0598,0.553,9.2629,53.3601,0.1252,0.3476,0.7092,7.7188
20:22:57:753,-0.3449,0.419,8.1784,53.2058,0.1778,0.576,0.656,7.5469
20:22:57:773,-0.7181,0.5674,7.2015,53.1901,0.16,0.7452,0.6683,5.9219
20:22:57:796,-0.9147,0.9697,6.9404,52.9635,0.1008,0.7648,0.7428,5.7656
20:22:57:813,-0.5435,1.3597,7.005,53.023,0.0727,0.6945,0.857,4.2188
20:22:57:834,-0.1651,1.8625,6.749,52.7271,0.0776,0.6475,0.9267,4.0625
20:22:57:855,0.201,2.4826,6.8136,52.6545,0.0189,0.6231,0.9279,2.1406
20:22:57:878,0.7397,3.05,7.235,52.5164,-0.1112,0.6249,0.868,2.125
20:22:57:895,0.9147,3.3015,7.5942,52.4628,-0.2682,0.6506,0.7257,0.3594
20:22:57:913,0.6368,3.2608,8.2238,52.5005,-0.4013,0.6218,0.551,358.5625
20:22:57:935,0.2536,3.0332,9.3108,52.2281,-0.419,0.4502,0.4282,358.5625
20:22:57:954,0.1029,2.8298,9.8157,52.0646,-0.2755,0.2095,0.3824,356.5781
20:22:57:981,0.5554,2.7365,10.0265,52.0539,-0.1246,-0.0483,0.3873,356.5781
20:22:57:995,1.0941,2.7987,10.3232,52.29,-0.1368,-0.1973,0.3647,354.6406
20:22:58:014,1.5467,2.5953,10.9747,52.2487,-0.2987,-0.2553,0.2859,354.6406
20:22:58:035,1.5586,2.2959,12.2243,52.2694,-0.474,-0.27,0.1753,352.9688
20:22:58:054,1.5538,2.0016,12.5354,52.2029,-0.5492,-0.1539,0.099,352.9688
20:22:58:081,1.7142,1.6831,11.7814,52.0154,-0.5736,-0.025,0.0483,351.1562
20:22:58:096,1.762,1.4222,12.0927,52.2877,-0.664,-0.1271,-0.0348,351.1562
20:22:58:114,1.4581,1.0726,13.2012,52.4781,-0.7434,-0.2975,-0.1527,349.1562
20:22:58:134,0.8354,0.5913,14.1323,52.5273,-0.6585,-0.3555,-0.2327,348.9688
20:22:58:163,0.201,0.0909,13.7519,52.2418,-0.3439,-0.2395,-0.1924,346.9688
20:22:58:178,0.1388,0.0072,11.779,52.2483,0.0623,-0.0483,-0.0092,346.7656
20:22:58:197,1.3478,1.1779,8.6426,52.3012,0.2779,0.0373,0.3402,345.2812
20:22:58:213,2.3055,1.8266,8.7362,52.3286,0.1093,-0.0391,0.2944,345.1406
20:22:58:285,2.6097,1.9753,8.5804,52.4656,-0.0128,-0.0886,0.025,344.2031
20:22:58:285,1.6974,1.6639,8.2358,52.4765,-0.1148,-0.0849,-0.3549,344.125
20:22:58:285,0.5148,0.9362,8.1688,52.2118,-0.2242,-0.0531,-0.6322,343.3906
20:22:58:296,-0.4095,0.4789,8.1999,51.9779,-0.2706,-0.014,-0.7086,343.3281
20:22:58:313,-0.8115,0.3975,7.8263,51.8348,-0.212,-0.0079,-0.6328,342.9219
20:22:58:334,-0.7588,0.7158,7.6516,51.9963,-0.124,-0.0556,-0.5052,342.8906
20:22:58:354,-0.5291,1.0798,7.5102,51.6668,-0.0922,-0.0568,-0.3964,342.75
20:22:58:378,-0.2297,1.3502,7.0268,51.4105,-0.1405,0.0263,-0.3274,342.7344
20:22:58:394,-0.0167,1.6328,7.2733,51.3505,-0.2853,0.0538,-0.3024,343
20:22:58:414,0.352,1.8577,8.6617,50.9469,-0.449,0.0024,-0.2822,343.5312
20:22:58:435,0.7684,1.9295,9.9595,51.0007,-0.474,-0.0415,-0.2553,343.5312
20:22:58:454,1.1515,2.0518,10.7088,51.1909,-0.3525,-0.058,-0.2272,343.3281
20:22:58:478,1.5251,2.2193,11.3073,51.2711,-0.1826,-0.0599,-0.2193,343.3281
20:22:58:507,1.4653,2.2792,11.3001,51.1259,-0.0324,0.0153,-0.2474,342.625
20:22:58:512,1.0654,2.1882,11.4197,51.2038,0.0647,0.0745,-0.2724,342.625
20:22:58:534,0.5483,2.2361,11.2881,51.3604,0.1448,0.1631,-0.2285,343
20:22:58:553,0.2512,2.5017,10.704,51.2761,0.2095,0.295,-0.113,343
20:22:58:575,0.3664,2.8346,10.3783,51.4685,0.215,0.3219,0.0043,344.4844
20:22:58:598,0.2273,2.9638,10.5652,51.3035,0.1778,0.2175,0.0348,344.4844
20:22:58:613,-0.4214,2.8848,11.1541,51.1492,0.1527,0.0684,0.0012,345.625
20:22:58:633,-1.1587,2.4514,11.6306,50.986,0.1716,-0.0513,0.0018,345.7344
20:22:58:653,-1.8673,2.0614,11.5062,51.0078,0.237,-0.0898,0.0886,346.4844
20:22:58:675,-2.2361,1.9439,10.9962,51.0886,0.2553,-0.0733,0.2694,346.5469
20:22:58:696,-0.8572,1.6304,11.9991,50.8114,0.0037,-0.4172,0.6023,347.1406
20:22:58:715,-0.0263,1.4509,15.0948,50.7015,-0.0812,-0.6542,0.6341,347.1875
20:22:58:733,0.2417,1.0941,15.7005,50.6119,0.1826,-0.4148,0.6225,347.6875
20:22:58:753,-0.4693,0.7349,12.4684,50.8053,0.6744,0.1301,0.587,347.7344
20:22:58:773,-0.9601,0.6966,8.9109,50.6584,0.9609,0.3964,0.6408,348.2031
20:22:58:793,-0.7708,1.3143,7.2254,50.6084,0.8625,0.3011,0.7678,348.2656
20:22:58:813,0.1627,2.1595,7.4288,50.2166,0.5369,0.0904,0.8405,348.7344
20:22:58:833,1.2042,2.5546,8.8176,49.8615,0.2364,-0.0935,0.7214,348.7812
20:22:58:853,1.3597,2.0686,9.8037,49.6187,0.113,-0.1081,0.4221,348.8438
20:22:58:873,0.7564,1.1731,9.4878,49.4404,0.1405,0.055,0.1368,348.8594
20:22:58:893,-0.1268,0.6464,8.6043,49.2419,0.1869,0.2395,0.0049,348.7969
20:22:58:913,-0.7875,0.5746,7.8598,48.925,0.1912,0.3635,0.0312,348.7188
20:22:58:935,-1.0989,0.8835,7.6756,48.7231,0.1759,0.4197,0.1466,348.7188
20:22:58:954,-1.1204,1.2688,7.1034,48.5167,0.2046,0.4899,0.2828,347.9062
20:22:58:977,-1.2473,1.841,6.2797,48.2611,0.2266,0.5174,0.383,347.9062
20:22:58:994,-1.5514,2.6216,5.7362,48.2378,0.1765,0.4251,0.4288,346.6719
20:22:59:013,-1.992,3.3661,6.3873,47.9945,-0.0031,0.2621,0.416,346.6719
20:22:59:034,-2.569,3.5408,7.2565,47.9557,-0.2242,0.1869,0.3885,345.3594
20:22:59:053,-3.3781,2.9997,8.6761,47.9509,-0.3909,0.1142,0.4288,345.3594
20:22:59:073,-2.7126,2.0399,11.0249,47.7178,-0.4398,-0.0257,0.6854,343.7031
20:22:59:094,-0.8019,1.8745,12.7893,47.4699,-0.2755,-0.0538,1.0836,343.7031
20:22:59:113,1.197,2.5499,12.9329,47.2536,0.0287,0.1038,1.347,342.125
20:22:59:133,2.8992,3.0835,12.1956,47.2887,0.2761,0.2779,1.3415,341.9688
20:22:59:153,3.687,3.1938,11.3121,46.9912,0.3488,0.4013,1.0983,341.4062
20:22:59:174,3.5073,3.0547,10.8547,46.745,0.3317,0.3757,0.7287,341.3594
20:22:59:193,2.6551,2.6767,10.1318,46.3455,0.35,0.273,0.3671,341.2188
20:22:59:214,1.9367,2.2744,9.1214,46.0312,0.2376,-0.0055,0.0324,341.2031
20:22:59:234,2.4514,2.4132,8.5038,45.9565,-0.0654,-0.1833,-0.0684,340.6562
20:22:59:253,3.6006,2.2863,9.5812,45.8769,-0.4594,-0.2718,-0.2981,340.6094
20:22:59:277,4.0555,1.494,10.5748,45.6961,-0.8063,-0.1881,-0.7055,339.6562
20:22:59:293,2.9064,0.6009,11.5277,45.4479,-1.0201,-0.0073,-1.1545,339.5625
20:22:59:313,0.9386,-0.3401,11.688,45.3408,-0.9743,0.1716,-1.4075,338.7031
20:22:59:333,-0.3951,-1.13,11.0154,45.2251,-0.6829,0.2413,-1.3261,338.6094
20:22:59:353,-0.3975,-1.2951,9.708,45.1644,-0.3219,0.1662,-0.9822,337.4844
20:22:59:374,0.5076,-0.4358,8.8128,44.8509,-0.1216,0.0226,-0.5937,337.375
20:22:59:394,1.6113,0.4956,8.5612,44.6607,-0.1399,-0.0086,-0.3793,334.6875
20:22:59:413,2.2361,1.0271,8.3818,44.3004,-0.2767,0.1472,-0.4038,331.9062
20:22:59:435,2.0925,1.1922,7.9364,44.0257,-0.4197,0.3671,-0.584,331.9062
20:22:59:453,1.4605,1.1109,7.4719,43.8823,-0.5137,0.4569,-0.7801,330.5938
20:22:59:474,0.8019,1.0128,7.369,43.4802,-0.5266,0.3299,-0.9053,330.5938
20:22:59:493,0.3808,0.8186,7.5006,43.3723,-0.4563,0.0531,-0.959,330.375
20:22:59:513,0.1292,0.7086,7.6253,43.1658,-0.3635,-0.2077,-0.9548,330.375
20:22:59:535,-0.0144,0.8931,7.7928,43.0136,-0.3146,-0.3573,-0.9163,330.8438
20:22:59:554,-0.1172,1.1204,7.9101,42.7203,-0.3445,-0.3751,-0.8894,330.8438
20:22:59:577,-0.5483,1.3382,8.3291,42.6132,-0.4508,-0.3335,-0.8723,332.9062
20:22:59:593,-1.0941,1.5562,8.9252,42.514,-0.5663,-0.325,-0.7941,332.9062
20:22:59:614,-1.0774,1.7764,10.3663,42.0456,-0.6322,-0.441,-0.6389,335.8438
20:22:59:633,-0.4669,1.774,11.9943,42.0044,-0.5498,-0.5638,-0.4759,335.8438
20:22:59:654,-0.0096,1.8051,12.2842,41.6375,-0.3518,-0.4948,-0.3683,337.4062
20:22:59:677,0.0646,1.9753,12.3105,41.4659,-0.2437,-0.2987,-0.3091,337.5625
20:22:59:694,-0.4047,2.1906,12.8085,41.0918,-0.201,-0.1216,-0.2688,338.3281
20:22:59:716,-1.3525,1.9032,12.6314,40.7444,0.3207,-0.1081,-0.077,338.4062
20:22:59:735,-1.0008,1.8505,12.3272,40.6417,0.6506,-0.2853,0.1032,339.6719
20:22:59:753,-0.4525,2.1858,12.2219,40.3424,0.8112,-0.3207,0.2621,339.7969
20:22:59:776,-0.0981,2.5475,11.7215,40.2412,0.813,-0.1362,0.3323,341.5938
20:22:59:793,0.0311,2.5953,11.1589,39.8036,0.7434,0.0391,0.3011,341.7656
20:22:59:813,-0.1531,2.6121,10.5628,39.5462,0.664,0.099,0.2181,343.6562
20:22:59:833,-0.3784,2.5857,9.8351,39.1569,0.551,0.044,0.1326,343.8594
20:22:59:853,-0.4071,2.1212,9.7941,38.9451,0.3512,-0.1625,0.0507,345.6406
20:22:59:876,-0.419,1.4725,11.4341,38.4482,0.0635,-0.427,-0.0067,345.8125
20:22:59:894,-0.6057,0.984,13.9696,37.9369,-0.135,-0.4435,0.0012,347.2656
20:22:59:913,-1.0917,0.2297,14.4293,37.5503,0.025,-0.0922,0.0983,348.3906
20:22:59:933,-1.6161,-0.1699,11.269,37.0993,0.4923,0.2572,0.2999,348.3906
20:22:59:954,-1.2473,0.3066,8.9563,36.6916,0.7825,0.1014,0.5528,349.0312
20:22:59:976,-0.2656,1.0367,9.1956,36.3732,0.6719,-0.2602,0.7031,349.0312
20:22:59:993,0.4884,1.1157,10.5556,35.8012,0.3909,-0.3824,0.6707,349.3594
20:23:00:013,0.2393,0.7062,11.1685,35.3182,0.2107,-0.2651,0.5272,349.3594
20:23:00:035,-0.2177,0.419,10.9795,35.141,0.171,-0.1081,0.4551,349
20:23:00:053,-0.1819,0.2512,10.2036,34.77,0.2474,-0.0073,0.4966,349
20:23:00:079,0.3473,0.3616,9.0927,34.5529,0.3793,0.0195,0.5699,348.375
20:23:00:096,0.821,0.6823,8.1135,34.1263,0.4557,0.0318,0.5901,348.3281
20:23:00:114,0.8067,1.1587,7.6229,33.8432,0.4129,0.1313,0.5327,347.9219
20:23:00:134,0.6296,1.343,6.9835,33.6153,0.3506,0.2865,0.4325,347.9219
20:23:00:153,0.2154,1.4438,6.4256,33.5312,0.3164,0.3677,0.3213,347.9219
20:23:00:179,-0.1699,1.5562,5.8295,33.3763,0.2871,0.3641,0.2468,347.9219
20:23:00:194,-0.4693,1.7812,5.4467,33.0839,0.2242,0.2676,0.2193,347.875
20:23:00:213,-0.2898,1.951,5.5854,32.8098,0.0996,0.102,0.2205,347.8594
20:23:00:235,0.2417,2.1165,6.6102,32.199,-0.2963,-0.1148,0.1564,346.9844
20:23:00:254,0.6894,2.4419,9.7582,32.0019,-0.3934,-0.0947,0.0483,346.8906
20:23:00:278,-0.1196,2.2074,10.4432,31.8028,-0.306,-0.0861,-0.0568,345.5625
20:23:00:295,-0.7756,1.7979,10.7447,31.5038,-0.124,-0.1906,-0.044,345.4375
20:23:00:348,-0.6009,1.5826,11.5062,31.2693,0.0312,-0.3995,0.1081,344.4844
20:23:00:348,0.2874,1.7907,12.344,30.8851,0.1509,-0.5504,0.2987,344.3906
20:23:00:356,1.3836,2.1308,12.4804,30.3028,0.2498,-0.5669,0.4117,343.3125
20:23:00:379,2.3055,2.2289,11.9369,30.0728,0.2779,-0.4942,0.3971,343.2031
20:23:00:393,2.8753,2.2193,11.1159,29.9039,0.1069,-0.336,0.2914,342.0312
20:23:00:413,3.1579,2.3797,11.6426,29.7785,-0.292,-0.1527,0.149,340.9844
20:23:00:433,3.4738,2.3174,13.3256,29.3142,-0.675,-0.0067,-0.033,340.9844
20:23:00:454,3.1723,1.6687,15.1164,29.0159,-0.8124,0.1607,-0.2847,340.3594
20:23:00:479,2.0112,0.6368,15.1977,28.6471,-0.6689,0.5546,-0.4905,340.3594
20:23:00:494,1.1037,0.0215,13.1554,28.2619,-0.3488,1.0452,-0.4734,339.875
20:23:00:513,1.7836,-0.0167,10.4886,28.3131,-0.0825,1.3042,-0.3207,339.875
20:23:00:534,1.1922,0.8812,9.3921,27.8465,0.0421,1.1887,-0.3641,339.6875
20:23:00:553,0.6248,1.7118,8.8822,27.7172,0.1093,0.8515,-0.3384,339.6875
20:23:00:580,1.7812,1.4916,9.6242,27.507,0.1057,0.3024,-0.1924,339.8281
20:23:00:596,2.5834,1.0534,10.759,27.4367,0.1515,-0.1234,-0.2627,339.8438
20:23:00:613,2.3174,1.008,10.7088,27.3536,0.3402,-0.0415,-0.474,339.5312
20:23:00:635,1.4198,0.9601,9.0473,27.1358,0.5992,0.3048,-0.631,339.5312
20:23:00:654,0.2632,0.9769,6.9045,27.2593,0.7935,0.5394,-0.6841,338.8438
20:23:00:680,-0.5291,1.2544,5.796,27.1409,0.8167,0.3708,-0.6206,338.7656
20:23:00:695,-0.5578,1.5706,5.4849,27.041,0.6927,0.0562,-0.4673,338.3906
20:23:00:713,-0.1675,1.6519,4.8984,26.9427,0.4734,-0.091,-0.2993,338.3594
20:23:00:736,-0.122,1.5778,4.2015,26.6445,-0.3525,-0.1368,0.0073,338.7188
20:23:00:755,-0.3808,2.473,5.1855,26.5803,-0.7587,-0.1723,0.1057,338.7656
20:23:00:777,-0.5722,3.6799,8.0608,26.4531,-0.7978,-0.2114,0.0483,339.5781
20:23:00:796,-0.0885,3.0595,10.8332,26.5308,-0.4783,0.0226,-0.0874,339.6719
20:23:00:813,0.8477,1.774,9.9045,26.4299,-0.1014,0.2443,-0.1991,340.0938
20:23:00:833,0.5171,1.6208,9.3514,26.1076,0.066,0.303,-0.3384,340.1406
20:23:00:853,-0.7373,1.7596,9.6242,25.9943,-0.0183,0.4673,-0.3525,340.5625
20:23:00:878,-0.9912,3.5192,9.8686,25.6747,-0.2144,0.7318,-0.1716,340.5938
20:23:00:895,-1.1133,4.3789,10.6657,25.4422,-0.2938,0.7116,-0.1093,341.3594
20:23:00:914,-1.3789,3.4211,11.3527,25.07,-0.2932,0.5742,-0.2236,342.7812
20:23:00:935,-1.1204,2.4969,11.4293,24.731,-0.3207,0.6389,-0.1869,342.7812
20:23:00:953,-0.6846,2.3964,11.7311,24.2686,-0.3286,0.5296,-0.0318,343.9688
20:23:00:979,-0.7636,2.7532,11.3599,23.9617,-0.1888,0.3073,0.058,343.9688
20:23:00:994,-1.5179,3.0667,10.826,23.7949,0.0409,-0.0672,0.0672,344.5156
20:23:01:013,-1.7405,3.1555,11.4867,23.6297,0.2431,-0.3433,0.0843,344.5156
20:23:01:034,-1.1396,3.1364,10.0026,23.7615,0.3066,-0.1387,0.0996,344.4219
20:23:01:053,-1.3095,2.837,9.6577,23.7025,0.0965,-0.0611,0.0128,344.4219
20:23:01:080,-1.264,2.3509,10.5485,23.7932,-0.2022,-0.1521,-0.0367,344.4062
20:23:01:095,-1.4749,1.6878,12.0278,23.6638,-0.3464,-0.3115,-0.0525,344.4531
20:23:01:113,-1.6831,1.0534,12.8276,23.7929,-0.2199,-0.3176,-0.0287,344.9688
20:23:01:135,-1.7668,0.3832,11.1829,23.6949,0.102,-0.0672,0.0751,344.9688
20:23:01:154,-1.7764,0.4167,9.1334,23.8164,0.3311,0.0812,0.2529,345.375
20:23:01:178,-1.1563,1.0774,8.1401,23.8318,0.339,-0.0605,0.485,345.375
20:23:01:195,0.431,1.7142,8.1135,23.5992,0.2315,-0.3824,0.6499,345.5469
20:23:01:213,1.7405,2.1404,8.4177,23.5768,0.1209,-0.7385,0.5919,345.5625
20:23:01:234,1.8075,2.2768,8.5923,23.5318,0.0379,-0.9584,0.3219,345.6094
20:23:01:254,1.2975,2.071,9.0855,23.6193,-0.0031,-1.0653,0.0006,345.625
20:23:01:278,0.984,1.6448,9.5955,23.7032,0.0183,-1,-0.2785,345.4688
20:23:01:295,0.6607,0.8186,9.4759,24.1256,0.0733,-0.7348,-0.5052,345.4531
20:23:01:314,-0.3712,0.2345,7.1967,24.4204,0.0153,0.1093,-0.5907,345.3438
20:23:01:334,-1.7189,0.7062,6.9093,24.542,-0.1203,0.3183,-0.4917,345.3438
20:23:01:353,-2.1428,1.2975,6.3778,24.7466,-0.1967,0.303,-0.3329,345.375
20:23:01:378,-1.494,1.5179,7.0484,24.9448,-0.2688,0.1002,-0.1289,345.5
20:23:01:393,-0.6272,1.4079,8.1401,25.2089,-0.3256,-0.0892,-0.0599,345.5
20:23:01:413,-0.6488,1.3406,9.2845,25.5267,-0.3665,-0.0935,-0.099,345.1719
20:23:01:433,-0.7875,1.4916,10.2108,25.6047,-0.3409,-0.0519,-0.1112,345.1719
20:23:01:453,-0.9099,1.5802,11.0632,25.3938,-0.2535,-0.0617,-0.1136,344.0156
20:23:01:479,-1.13,1.4222,11.3599,25.3763,-0.1509,-0.0415,-0.1185,344.0156
20:23:01:496,-1.209,1.3238,11.4102,25.4429,-0.0855,-0.0257,-0.0629,343.2188
20:23:01:514,-1.0869,1.3262,11.7048,25.3876,-0.0538,-0.1313,0.0397,343.2188
20:23:01:535,-0.8067,1.2233,12.6168,25.561,0.0037,-0.3592,0.1362,343.7188
20:23:01:553,-0.2082,0.9338,13.206,25.3405,0.1106,-0.4948,0.2352,343.7812
20:23:01:576,0.3473,0.9338,12.3655,25.2765,0.1808,-0.3842,0.3427,343.7812
20:23:01:596,0.9745,1.3525,11.2666,25.5493,0.0556,-0.2333,0.4209,345.1562
20:23:01:613,1.841,1.6089,11.3216,25.6401,-0.2498,-0.2486,0.4062,346.2969
20:23:01:634,2.5137,1.4151,12.4493,25.5491,-0.5614,-0.3708,0.2767,346.2969
20:23:01:653,2.5475,0.8596,13.8858,25.5604,-0.7098,-0.3995,0.091,346.75
20:23:01:678,1.9247,0.2034,13.6726,25.5654,-0.5705,-0.193,-0.0342,346.75
20:23:01:694,1.3908,-0.3568,11.6809,25.5243,-0.2413,0.0244,0.0012,346.9219
20:23:01:714,1.2233,-0.3736,10.2586,25.6582,-0.0153,0.0409,0.1802,346.9531
20:23:01:734,1.9271,0.1436,9.8997,25.8852,0.0635,0.022,0.43,347.1719
20:23:01:753,3.0476,0.7756,10.3615,25.7022,0.1051,-0.0574,0.5522,347.2031
20:23:01:778,3.5671,1.1539,9.7534,25.9003,0.2095,0.2052,0.1918,347.375
20:23:01:795,2.7724,1.0893,8.4966,25.9267,0.2395,0.452,-0.0556,347.4062
20:23:01:813,1.7189,0.9147,7.0914,25.9301,0.2419,0.5931,-0.2425,347.2812
20:23:01:833,0.8282,0.7899,6.3275,26.0128,0.2169,0.5455,-0.3396,347.2656
20:23:01:853,0.419,0.7875,6.0667,26.159,0.1857,0.3934,-0.3427,346.7812
20:23:01:879,0.364,0.9936,5.9734,26.3071,0.1393,0.2572,-0.2999,346.7188
20:23:01:894,0.5578,1.3645,6.0643,26.3909,0.047,0.1613,-0.2669,345.9531
20:23:01:914,0.8378,1.7788,6.6509,26.5747,-0.1112,0.0849,-0.2688,345.5781
20:23:01:935,1.0702,2.0279,7.6756,26.3912,-0.2773,0.0134,-0.306,345.5781
20:23:01:954,1.2544,2.0925,8.6809,26.6706,-0.3763,-0.0189,-0.3525,345.6094
20:23:01:978,1.6663,2.1882,9.4783,27.0663,-0.3897,-0.011,-0.35,345.6094
20:23:01:993,2.1835,2.406,9.9045,27.3372,-0.3341,0.0452,-0.2847,345.6094
20:23:02:013,2.4634,2.5427,9.7319,27.337,-0.2486,0.1063,-0.2187,344.9531
20:23:02:034,2.2146,2.5786,9.1956,27.4039,-0.1741,0.0641,-0.1851,344.9375
20:23:02:053,1.8314,2.983,9.3921,27.547,-0.1442,-0.1405,-0.1869,343.8594
20:23:02:078,1.6854,3.4379,10.5844,27.7191,-0.1857,-0.405,-0.284,343.8438
20:23:02:095,1.0654,2.959,11.8292,27.9409,-0.2663,-0.5681,-0.507,343.6406
20:23:02:114,0.3401,1.7261,13.3663,27.9284,-0.2443,-0.6646,-0.6927,344.1562
20:23:02:134,-0.4238,0.7229,14.094,28.0534,0.0281,-0.5699,-0.6707,344.1562
20:23:02:153,-1.3095,0.3927,13.474,28.2115,0.4722,-0.3091,-0.4557,344.7969
20:23:02:177,-1.7118,0.7253,12.2937,28.4613,0.8582,-0.088,-0.1484,344.7969
20:23:02:194,-1.5156,1.3502,11.2379,28.6315,0.9847,0.0421,0.1069,345.3125
20:23:02:213,-1.0917,1.7094,10.328,28.6797,0.7691,0.0812,0.2242,345.3594
20:23:02:234,-0.632,1.3358,11.0082,28.9661,0.284,-0.1594,0.2297,346.0156
20:23:02:253,-0.1436,0.8692,13.8954,29.1075,-0.146,-0.551,0.2272,346.0781
20:23:02:278,-0.1986,0.3927,15.382,29.4626,-0.149,-0.3854,0.273,346.7188
20:23:02:296,-0.6846,-0.0359,13.0741,29.2587,0.2388,0.3818,0.3616,346.7812
20:23:02:314,-1.343,0.3999,7.1225,29.4199,0.7208,1.0617,0.595,347.1719
20:23:02:334,-0.917,1.0487,7.1441,29.2897,0.5351,0.6084,0.7025,347.2031
20:23:02:410,0.285,1.4581,8.3004,29.4466,0.2932,0.1356,0.7373,347.7031
20:23:02:410,0.9386,1.6687,9.2605,29.6687,0.1435,-0.0147,0.606,347.7656
20:23:02:411,0.6966,1.5347,9.0018,29.5075,0.1148,0.1277,0.3543,349.0312
20:23:02:412,0.1723,1.0295,8.0154,29.7934,0.1295,0.3176,0.1209,350.3438
20:23:02:433,-0.3042,0.4908,7.3164,29.6829,0.0837,0.3451,0.0098,350.3438
20:23:02:453,-0.6392,0.4717,7.5102,29.973,-0.0348,0.2407,0.0605,350.5
20:23:02:477,-0.5818,0.9194,8.0393,29.9885,-0.1509,0.1729,0.2199,350.5
20:23:02:494,-0.2249,1.5443,8.0895,30.235,-0.1857,0.2651,0.3696,350.5
20:23:02:513,-0.1196,2.0088,7.6636,30.2979,-0.1704,0.3891,0.4178,350
20:23:02:535,-0.0502,2.3749,7.4767,30.2234,-0.1704,0.3903,0.4197,350
20:23:02:552,0.2922,2.6743,7.7474,30.2369,-0.2071,0.2676,0.4142,349.5625
20:23:02:575,0.6535,2.7652,8.2956,29.8808,-0.2773,0.0861,0.3628,349.5469
20:23:02:596,0.8572,2.6192,9.4113,29.9993,-0.3818,-0.1277,0.259,348.4688
20:23:02:614,0.7516,2.2313,11.0824,29.904,-0.4337,-0.3305,0.168,346.8438
20:23:02:634,0.6775,1.6974,12.1597,29.8509,-0.2926,-0.3525,0.1643,346.8438
20:23:02:653,0.6966,1.3047,11.8388,29.7775,0.0177,-0.19,0.2407,345.3438
20:23:02:677,0.941,1.3478,10.8308,29.8023,0.3323,-0.0971,0.3421,345.3438
20:23:02:694,1.2233,1.6543,10.2802,29.6776,0.4838,-0.1539,0.4032,344.8125
20:23:02:713,1.398,1.7692,10.4001,29.7335,0.4594,-0.2547,0.4013,344.75
20:23:02:735,1.075,1.7764,10.6825,29.926,0.3671,-0.2859,0.3512,344.6094
20:23:02:754,0.9147,1.6448,10.716,29.8954,0.295,-0.2517,0.3268,344.6094
20:23:02:776,1.5873,1.9558,11.5517,30.0789,0.2242,-0.2456,0.3244,343.9531
20:23:02:796,1.8505,1.829,12.8587,30.2142,-0.2065,-0.2614,0.0586,343.8906
20:23:02:813,1.7548,1.0463,14.4532,30.1838,-0.438,-0.0953,-0.168,342.9688
20:23:02:834,1.1372,0.1149,14.6614,30.0903,-0.4704,0.3635,-0.3128,342.875
20:23:02:854,0.7086,-0.4047,13.098,30.0634,-0.2785,0.9193,-0.2743,342.0469
20:23:02:877,0.6823,-0.2225,11.0321,30.1098,-0.0464,1.196,-0.1332,341.9531
20:23:02:894,1.0128,0.3808,9.4711,30.0411,0.0855,1.0952,-0.0214,341.5625
20:23:02:914,1.5179,0.7899,9.2892,29.953,0.124,0.6909,-0.0354,341.1719
20:23:02:935,1.7883,0.7612,9.4615,29.9301,0.193,0.2999,-0.1802,341.1719
20:23:02:954,1.6232,0.4669,8.7936,29.8518,0.3018,0.1698,-0.358,340.3594
20:23:02:975,1.1898,0.4789,7.599,29.891,0.3464,0.2297,-0.4752,340.3594
20:23:02:994,0.6392,0.632,6.5695,29.9412,0.295,0.314,-0.5333,340.3438
20:23:03:015,0.1388,0.7732,5.9925,30.0918,0.1955,0.3708,-0.5546,339.5938
20:23:03:036,-0.3784,0.941,5.5902,29.9788,0.1038,0.3964,-0.529,339.5781
20:23:03:053,-0.5746,1.1468,5.3342,30.1319,0.0189,0.3635,-0.4526,338.9375
20:23:03:075,-0.4334,1.4773,5.4299,30.1743,-0.1051,0.3036,-0.3378,338.9219
20:23:03:096,-0.2632,1.9705,5.9471,30.2348,-0.2724,0.2437,-0.2395,338.6719
20:23:03:114,-0.1675,2.3868,7.2565,30.3728,-0.3964,0.1112,-0.1869,339.1719
20:23:03:135,-0.1412,2.5259,8.7099,30.467,-0.3555,-0.0947,-0.171,339.1719
20:23:03:154,-0.0574,2.339,9.7917,30.4587,-0.1545,-0.3518,-0.1674,339.375
20:23:03:179,0.1699,2.0351,10.3977,30.4273,0.0825,-0.5608,-0.1368,339.375
20:23:03:195,0.1077,2.1356,11.4245,30.3454,0.2504,-0.7758,-0.0849,339.2344
20:23:03:213,-0.3712,2.6264,13.1387,30.2163,0.3903,-1.0268,0.0006,339.2344
20:23:03:236,-0.3401,3.0763,14.6542,30.3392,0.554,-1.0079,0.1619,339.7344
20:23:03:254,0.1627,3.3015,13.8954,30.4433,0.719,-0.4306,0.3256,339.7812
20:23:03:278,-0.1723,4.034,10.0935,30.1013,0.449,0.9957,0.4178,340.75
20:23:03:296,-0.4286,4.6373,9.5142,30.286,0.146,1.2083,0.4789,340.8438
20:23:03:315,-0.6248,5.1425,9.6482,30.3878,-0.0208,1.0158,0.4991,341.8438
20:23:03:336,-0.7038,5.3438,10.1007,30.5679,-0.0281,0.6267,0.4331,341.9375
20:23:03:354,-0.9721,5.0133,10.2682,30.7319,0.0476,0.2871,0.2926,342.6562
20:23:03:374,-1.0845,4.4028,10.1557,30.9536,0.1057,-0.0031,0.1668,342.7188
20:23:03:395,-1.0223,3.5791,10.2945,31.0047,0.0983,-0.3329,0.1008,343.0781
20:23:03:415,-1.3214,2.7389,11.3097,31.0486,0.0947,-0.73,0.0531,343.4688
20:23:03:434,-1.8218,2.0207,12.1908,31.4338,0.1942,-0.945,0.0757,343.4688
20:23:03:454,-2.0399,1.4438,11.5636,31.5263,0.3971,-0.7953,0.2449,343.5
20:23:03:477,-1.8912,1.5084,9.9141,31.5765,0.5571,-0.5363,0.5033,343.8906
20:23:03:497,-1.4103,2.1045,8.645,31.7083,0.5492,-0.4899,0.7159,343.9219
20:23:03:514,-0.6918,2.5451,8.5732,31.8189,0.4019,-0.6567,0.8069,344.0469
20:23:03:537,0.3449,2.6169,8.9468,31.9567,0.2358,-0.821,0.7703,344.0469
20:23:03:559,1.6065,2.083,8.7721,32.1997,0.0947,-0.9126,0.5791,343.3125
20:23:03:578,2.0088,1.5012,9.4878,32.3441,-0.1173,-1.1594,0.2291,343.3125
20:23:03:595,1.2185,1.2879,10.8978,32.6138,-0.3897,-1.3861,-0.1209,342.0156
20:23:03:613,0.3975,0.7708,11.9943,32.7417,-0.5681,-1.1857,-0.2724,340.7344
20:23:03:634,-0.2441,0.2058,12.399,32.9082,-0.5137,-0.5675,-0.2315,340.7344
20:23:03:655,-0.7181,-0.1149,10.8523,32.9874,-0.1875,0.3433,-0.077,340.1875
20:23:03:679,-0.9266,0.2512,7.7115,33.293,0.1985,1.2052,0.1399,340.1875
20:23:03:696,-1.2257,1.0487,5.0563,33.4215,0.3787,1.6084,0.3476,340.1875
20:23:03:714,-1.2329,1.9295,3.955,33.3993,0.2773,1.5419,0.5382,340.1875
20:23:03:736,-0.7158,2.8681,4.089,33.3633,0.0104,1.2712,0.7,340.1562
20:23:03:760,-0.0885,3.6006,4.829,33.3406,-0.292,0.9877,0.7342,340.1406
20:23:03:776,0.146,4.156,6.4089,33.213,-0.5247,0.6444,0.6102,339.125
20:23:03:795,0.2249,4.1632,8.08,33.2338,-0.5675,0.3005,0.4074,339.0156
20:23:03:815,-0.0144,3.3111,9.2964,33.1376,-0.2065,-0.2236,0.0855,337.6875
20:23:03:836,0.4382,2.9638,9.8614,33.0291,-0.0928,-0.4759,0.0104,337.5625
20:23:03:853,1.2138,2.6312,10.5054,32.983,-0.1313,-0.5974,-0.0727,337.0938
20:23:03:875,1.5036,2.217,10.9241,33.0482,-0.328,-0.5052,-0.1881,337.0469
20:23:03:896,1.4103,1.7644,11.147,33.0746,-0.6267,-0.3427,-0.2718,337.8906
20:23:03:913,1.4749,1.427,11.7838,32.9739,-0.9523,-0.3018,-0.2559,338.3438
20:23:03:933,1.9848,1.1946,12.9114,33.0554,-1.182,-0.3842,-0.1729,338.3438
20:23:03:953,2.8059,0.8788,13.7109,32.8616,-1.182,-0.4691,-0.1252,338.3906
20:23:03:977,3.3182,0.3209,13.7109,32.9385,-0.9297,-0.5388,-0.1771,337.4531
20:23:03:993,3.0093,-0.0837,13.0669,32.9474,-0.5058,-0.6084,-0.2706,337.3594
20:23:04:013,2.4323,-0.0718,11.7431,33.0046,-0.0024,-0.6866,-0.2627,335.5
20:23:04:035,2.461,0.1938,10.4145,32.6863,0.471,-0.857,-0.1271,335.4844
20:23:04:054,3.1053,0.3927,9.5596,32.8355,0.791,-1.0751,-0.0226,333.7344
20:23:04:079,3.821,0.7445,9.5357,33.0265,0.8332,-1.2327,-0.0605,333.7188
20:23:04:095,4.2903,1.2305,9.5429,33.1665,0.6102,-1.1032,-0.1857,332.9844
20:23:04:113,4.18,1.3597,9.2892,33.545,0.2089,-0.6927,-0.3836,332.9688
20:23:04:134,3.414,1.1635,8.9539,33.7162,-0.2248,-0.1692,-0.6053,332.9688
20:23:04:153,2.2337,0.8163,8.5923,33.823,-0.5437,0.3073,-0.7715,333.4219
20:23:04:178,1.1539,0.5602,8.176,33.9581,-0.6554,0.6371,-0.8112,333.4219
20:23:04:195,0.62,0.7014,7.7426,34.2869,-0.5638,0.7886,-0.7098,334.0938
20:23:04:213,0.6799,1.0104,7.4671,34.3237,-0.3586,0.7868,-0.5669,334.0938
20:23:04:234,1.0104,1.4222,7.3379,34.2966,-0.1521,0.7257,-0.4862,334.5312
20:23:04:253,1.0223,1.9606,7.2517,34.2967,-0.0263,0.6628,-0.4868,334.5781
20:23:04:276,0.8282,2.4802,7.4001,34.2526,-0.0031,0.543,-0.5217,335.1562
20:23:04:296,1.0128,2.7269,8.2669,34.3043,-0.0342,0.281,-0.5626,335.2031
20:23:04:313,1.8553,2.636,9.4567,34.4539,-0.0397,0.0495,-0.6255,335.7188
20:23:04:335,1.9801,2.5475,9.5548,34.5179,-0.0617,0.0257,-0.8876,335.7656
20:23:04:353,0.3233,2.0495,11.3791,34.6223,-0.1106,-0.4881,-0.8839,336
20:23:04:376,0.7564,1.3645,13.6176,34.7861,0.0941,-0.8063,-0.7495,336.0156
20:23:04:395,0.5961,1.1372,13.6319,34.8576,0.5461,-0.4948,-0.5919,336.7188
20:23:04:462,-0.0814,1.4246,11.5564,35.146,0.9181,0.1332,-0.3818,336.7969
20:23:04:463,-0.0048,2.1715,9.7439,35.4266,0.9413,0.5375,-0.069,338.2031
20:23:04:463,0.4813,3.0547,9.119,35.57,0.6371,0.6829,0.2107,338.3438
20:23:04:478,0.6703,3.5432,9.7247,35.8599,0.2059,0.6994,0.3457,339.8125
20:23:04:493,0.5818,3.457,10.6753,36.0801,-0.0996,0.6945,0.3696,339.9531
20:23:04:513,0.0574,3.3254,10.5245,36.3374,-0.1723,0.7813,0.358,340.9844
20:23:04:533,-0.3233,3.3015,9.5692,36.4021,-0.1839,0.7965,0.3476,341
20:23:04:554,-0.352,3.0021,9.21,36.4749,-0.347,0.4685,0.3024,341.9688
20:23:04:576,-0.1196,2.2074,11.6043,36.2585,-0.6707,-0.248,0.1961,341.9844
20:23:04:596,0.0239,1.3765,15.2791,36.2327,-0.8295,-0.6634,0.149,343.25
20:23:04:613,-0.3425,0.2441,15.8656,36.4913,-0.5229,-0.2529,0.2248,345.0312
20:23:04:634,-0.984,-0.3162,12.8228,36.4276,0.0739,0.5455,0.4038,345.0312
20:23:04:654,-1.3645,-0.1268,9.4352,36.5612,0.5253,0.945,0.631,346.9688
20:23:04:676,-1.2832,0.7588,7.8096,36.4301,0.5895,0.7452,0.8558,346.9844
20:23:04:696,-0.4549,1.7812,8.1278,36.4033,0.3635,0.204,1.0061,348.0469
20:23:04:713,0.9697,2.0471,10.0768,36.7803,0.1197,-0.3622,0.9364,348.0469
20:23:04:735,1.561,1.3741,11.4174,37.024,0.0916,-0.518,0.6298,347.7031
20:23:04:759,1.1515,0.4932,10.9002,37.0459,0.2743,-0.2388,0.314,347.7031
20:23:04:777,0.4214,0.0861,9.119,36.9842,0.493,0.1698,0.1613,346.8281
20:23:04:795,-0.1244,0.1484,7.5413,36.9778,0.5803,0.4447,0.1637,346.7344
20:23:04:814,-0.6488,0.6344,6.4857,37.0121,0.5272,0.5779,0.2419,345.8281
20:23:04:837,-1.0678,1.2999,5.9806,37.2787,0.2333,0.7147,0.4478,345.7344
20:23:04:855,-0.8091,2.4419,5.219,37.3942,0.047,0.8069,0.463,345.2031
20:23:04:876,-0.7229,2.6456,5.0515,37.3441,-0.2162,0.7874,0.3415,345.1406
20:23:04:895,-1.0869,2.5499,6.2103,37.5802,-0.5467,0.5498,0.1631,344.8594
20:23:04:914,-1.0223,2.2576,8.6067,37.7086,-0.7898,0.193,0.0959,344.8438
20:23:04:933,-0.4238,2.2768,10.7614,37.6363,-0.7507,0.0128,0.1784,343.6562
20:23:04:953,0.1962,2.6982,11.6593,37.8528,-0.4313,0.0825,0.2364,343.5469
20:23:04:974,0.0263,2.892,10.9771,37.9833,-0.0018,0.2193,0.1368,341.5938
20:23:04:994,-0.1866,2.624,10.2658,38.0041,0.3036,0.0867,-0.0232,341.4062
20:23:05:013,0.2297,1.9152,10.8045,38.3562,0.4099,-0.3531,-0.1393,339.9219
20:23:05:033,0.8644,1.386,11.8508,38.6143,0.4105,-0.7208,-0.2016,339.7812
20:23:05:053,1.1372,1.1683,12.4708,38.5328,0.3971,-0.7703,-0.2199,339.2656
20:23:05:077,0.9529,1.2855,11.9417,38.6214,0.3402,-0.5156,-0.1888,339.25
20:23:05:095,1.2162,1.5347,10.9938,38.8645,0.1454,-0.2077,-0.1197,338.6719
20:23:05:114,1.8553,1.6424,10.4264,38.8911,-0.2248,-0.0562,-0.1075,337.6094
20:23:05:134,2.3103,1.4605,11.1159,38.933,-0.7043,-0.1429,-0.2089,337.6094
20:23:05:153,2.193,1.0606,13.1868,39.1847,-1.1062,-0.2932,-0.3799,336.4688
20:23:05:178,1.6902,0.51,14.2878,39.0299,-1.1936,-0.1521,-0.5088,336.4688
20:23:05:194,0.9386,-0.1675,13.8452,38.9427,-0.9444,0.1765,-0.5516,336.0156
20:23:05:213,0.2728,-0.5841,12.3105,39.2016,-0.5192,0.4032,-0.4807,336.0156
20:23:05:235,0.2489,-0.6224,11.0273,39.3447,-0.1069,0.3696,-0.3121,335.4844
20:23:05:254,0.6607,-0.1962,10.2132,39.4605,0.2016,0.2504,-0.1435,335.4844
20:23:05:278,1.0606,0.3066,9.1789,39.7431,0.3958,0.2761,-0.0721,335.3438
20:23:05:295,1.0056,0.6559,7.8742,40.046,0.4478,0.4239,-0.1338,335.3438
20:23:05:313,0.5411,0.8429,6.6102,40.1802,0.3512,0.5681,-0.2639,335.8281
20:23:05:338,-0.2656,0.9362,5.3821,40.3533,0.149,0.6084,-0.3903,335.8906
20:23:05:359,-0.6631,1.0152,5.5472,40.4725,-0.088,0.5553,-0.4942,336.4844
20:23:05:376,-0.8812,1.1803,6.3802,40.4242,-0.3091,0.4197,-0.5754,336.5312
20:23:05:395,-0.6727,1.2855,7.1967,40.4655,-0.5583,0.1161,-0.5992,336.7969
20:23:05:413,-0.4454,1.5108,7.7952,40.7344,-0.5504,0.0415,-0.5882,336.8281
20:23:05:433,-0.2946,1.9415,8.4416,40.6519,-0.5156,-0.0428,-0.595,337.4375
20:23:05:455,-0.0861,2.4251,9.2629,40.6929,-0.4862,-0.1545,-0.6151,337.5
20:23:05:478,0.0981,2.581,10.1797,40.948,-0.4465,-0.3097,-0.6799,338.5156
20:23:05:495,0.2489,2.2457,11.391,41.281,-0.3732,-0.5211,-0.7959,338.625
20:23:05:514,-0.0144,1.6687,12.9521,41.7296,-0.2596,-0.7,-0.9242,339.3281
20:23:05:533,-0.5698,1.0534,14.1658,42.2306,-0.0373,-0.7104,-0.9664,339.4062
20:23:05:554,-1.3621,0.3879,13.6654,42.6271,0.3085,-0.408,-0.8375,339.6094
20:23:05:576,-2.327,0.2034,12.1095,43.0139,0.6084,0.0324,-0.5137,339.6094
20:23:05:596,-2.5161,0.7014,10.2156,43.6631,0.7226,0.383,-0.0238,339.9844
20:23:05:614,-1.9104,1.4988,9.7295,43.8659,0.6182,0.3916,0.4465,340.8125
20:23:05:634,-0.644,2.0255,11.0513,44.0721,0.4685,0.1234,0.7465,340.8125
20:23:05:654,0.3879,2.5546,11.8508,44.4395,0.4612,-0.0024,0.8369,342
20:23:05:677,0.4573,2.9638,11.4604,44.6938,0.5229,0.0501,0.7275,342
20:23:05:694,0.0048,2.983,10.716,44.9193,0.5046,0.088,0.5351,343.2031
20:23:05:713,-0.3879,2.8178,10.1868,45.2152,0.35,0.066,0.3818,343.2031
20:23:05:735,-0.4908,2.4395,9.8133,45.2642,0.0733,-0.0195,0.2792,344.4844
20:23:05:753,-0.285,1.6902,10.558,45.3655,-0.2651,-0.3732,0.1906,344.4844
20:23:05:776,-0.0861,1.0702,13.5218,45.7938,-0.4734,-0.9163,0.1124,345.9688
20:23:05:795,-0.3209,0.3353,15.3509,46.0547,-0.2853,-0.9853,0.0935,346.1094
20:23:05:814,-0.941,-0.4095,13.5864,46.1222,0.2633,-0.4496,0.1839,348.0625
20:23:05:834,-1.386,-0.4525,10.127,46.269,0.7923,0.1069,0.3787,348.25
20:23:05:854,-1.5347,0.0814,7.7186,46.6721,0.9767,0.215,0.598,349.6875
20:23:05:878,-0.7947,0.8378,7.3403,46.9873,0.8149,-0.0434,0.7892,349.8281
20:23:05:896,0.5459,1.4462,8.1544,47.322,0.5278,-0.3323,0.8613,349.4375
20:23:05:913,1.0367,1.7644,9.1669,47.5691,0.2016,-0.2022,0.3879,349.3906
20:23:05:933,0.2536,1.3502,8.3865,47.7802,0.1771,0.0745,0.0983,347.8594
20:23:05:954,-0.4095,1.0032,7.7785,48.0344,0.1674,0.2175,-0.0379,347.7031
20:23:05:978,-0.7756,1.0463,7.5509,48.4635,0.1662,0.2382,-0.0257,346.4844
20:23:05:994,-0.8788,1.3836,7.4288,48.9556,0.1771,0.2566,0.047,346.3594
20:23:06:014,-0.9051,1.7501,7.1058,49.1501,0.1826,0.3152,0.0959,345.7188
20:23:06:033,-1.1085,2.1691,6.6317,49.3502,0.1619,0.3628,0.1038,345.6406
20:23:06:054,-1.398,2.5331,6.3586,49.4762,0.1032,0.3225,0.0819,345.4062
20:23:06:077,-1.4821,2.6743,6.6796,49.6815,-0.0018,0.1906,0.033,345.4062
20:23:06:095,-1.4127,2.5905,7.369,50.0228,-0.1729,0.0806,-0.0147,345.25
20:23:06:114,-1.0152,2.6192,8.0967,50.3186,-0.4264,0.0837,-0.0202,344.2031
20:23:06:134,-0.6703,2.6288,9.1956,50.6365,-0.744,0.1148,-0.033,344.2031
20:23:06:153,-0.5148,2.3174,10.8667,50.9324,-1,0.0244,-0.066,342.4688
20:23:06:177,-0.2273,1.884,12.5474,51.2485,-1.0061,-0.1332,-0.0647,342.4688
20:23:06:196,0.3473,1.3478,13.6008,51.6006,-0.7239,-0.2456,-0.0996,341.3438
20:23:06:214,0.0622,1.063,13.5434,51.8325,-0.3201,-0.2602,-0.1704,341.3438
20:23:06:234,0.3688,1.1587,13.5721,51.958,0.171,-0.3653,0.0043,341.2344
20:23:06:259,0.6894,1.0678,12.4301,52.1415,0.5638,-0.2963,0.1808,341.2344
20:23:06:274,0.8644,1.3382,11.0752,52.4502,0.6353,-0.1509,0.2614,341.1406
20:23:06:295,1.6017,1.6687,10.1797,52.4626,0.4398,-0.0935,0.3861,341.1406
20:23:06:313,3.0045,2.0758,9.9811,52.4801,0.1148,-0.1881,0.474,340.8594
20:23:06:334,4.1824,2.2026,10.9241,52.611,-0.3665,-0.3995,0.204,340.8281
20:23:06:353,3.8139,1.7883,12.7989,52.846,-0.9108,-0.474,-0.3635,340.6406
20:23:06:378,2.2696,0.28,12.9018,53.0915,-1.229,-0.1289,-0.821,340.625
20:23:06:397,0.5363,-1.5012,11.6163,53.4036,-1.1111,0.6066,-0.5693,340.6094
20:23:06:413,0.012,-1.8266,9.0975,53.5164,-0.8179,0.6212,0.0538,340.6094
20:23:06:434,1.0917,-0.7397,9.1238,53.5154,-0.4569,0.4575,0.5394,340.6406
20:23:06:454,1.7189,0.4214,9.3156,53.9459,-0.0886,0.2743,0.6115,340.6406
20:23:06:476,1.7812,1.0295,8.8223,54.0344,0.2162,0.1955,0.3268,340.7969
20:23:06:530,1.398,1.008,7.9914,54.0928,0.3671,0.1521,-0.0941,340.8125
20:23:06:530,0.7708,0.6918,7.1895,54.249,0.3231,0.1203,-0.4587,341.0469
20:23:06:539,0.0814,0.4238,6.7729,54.4733,0.1228,0.1222,-0.6609,341.0625
20:23:06:559,-0.5339,0.3927,6.8518,54.793,-0.1521,0.1216,-0.6921,340.7031
20:23:06:574,-0.9338,0.4836,7.0819,55.0115,-0.3989,0.1381,-0.6182,340.6562
20:23:06:595,-1.142,0.5961,7.1919,55.1613,-0.5363,0.1662,-0.5168,339.7656
20:23:06:613,-0.9745,0.7899,7.2182,55.169,-0.5406,0.1607,-0.4294,340.0156
20:23:06:633,-0.2922,0.984,7.2757,55.4288,-0.4575,0.0843,-0.3928,340.0156
20:23:06:654,0.5052,0.8979,7.4719,55.9377,-0.3555,-0.0745,-0.4459,341.875
20:23:06:676,0.8883,0.8258,8.3794,56.0186,-0.2859,-0.339,-0.5699,341.875
20:23:06:695,0.7421,0.7875,9.8181,56.1656,-0.2333,-0.6011,-0.6414,342.3281
20:23:06:713,0.3664,0.6081,10.9555,56.3397,-0.1869,-0.6677,-0.6011,342.3281
20:23:06:735,0.0646,0.4143,11.8101,56.7886,-0.1881,-0.5992,-0.4844,341.0156
20:23:06:759,-0.1795,0.4789,12.2865,57.2136,-0.2291,-0.3561,-0.3054,341.0156
20:23:06:775,-0.2177,0.7373,12.0063,57.3434,-0.2523,0.0257,-0.0635,340.7344
20:23:06:795,0.2058,1.1396,11.4652,57.6667,-0.2437,0.2737,0.1784,340.7344
20:23:06:813,0.9051,1.6208,11.7096,57.6464,-0.1808,0.2242,0.339,341.8438
20:23:06:835,1.5347,1.9128,12.1573,57.9975,-0.0544,0.0837,0.3445,341.9531
20:23:06:854,1.5634,1.9872,12.6649,58.4146,0.1173,-0.0476,0.2156,343.2344
20:23:06:879,0.079,1.4127,12.7798,58.673,0.3152,-0.1405,0.0202,343.3594
20:23:06:897,-0.577,1.276,11.6115,58.7628,0.5217,-0.0898,-0.1319,344.25
20:23:06:913,-0.8477,1.3454,10.3735,58.9559,0.6096,0.1833,-0.1552,344.3281
20:23:06:934,-0.1507,0.9625,10.9914,59.4697,0.3922,-0.182,-0.1472,345.1406
20:23:06:958,-0.0144,0.1986,11.7598,59.4429,-0.0165,-0.4624,-0.2969,345.2188
20:23:06:978,-0.1651,0.0479,13.4213,59.541,-0.2303,-0.5876,-0.3671,346.4375
20:23:06:994,-0.1842,0.0502,12.4158,59.7424,-0.0568,-0.1607,-0.223,346.5625
20:23:07:013,0.012,0.0048,10.7447,59.8685,0.3433,0.1209,-0.11,347.6875
20:23:07:033,-0.1842,0.0191,10.0983,60.1299,0.7684,-0.014,-0.1429,347.7969
20:23:07:055,-0.3377,0.5195,9.0305,60.0083,0.8558,-0.2498,-0.2486,348.1719
20:23:07:077,0.1675,0.3209,10.005,59.9566,0.9236,-0.8436,-0.3054,348.2031
20:23:07:096,0.7971,-0.0574,10.2251,59.8772,1.0354,-1.0232,-0.2327,347.625
20:23:07:114,0.7397,0.0096,10.3759,60.0025,1.0617,-0.9047,-0.2199,347.0156
20:23:07:135,0.4286,0.2994,9.5979,60.2627,1.003,-0.4966,-0.2217,347.0156
20:23:07:158,0.0837,0.4908,8.8678,60.1357,0.8436,-0.0806,-0.2175,347.1562
20:23:07:175,-0.0981,0.5937,8.2956,60.1562,0.6725,0.2981,-0.1619,347.1562
20:23:07:195,-0.1364,0.7181,7.4647,60.0413,0.5632,0.6444,-0.0678,347.5469
20:23:07:213,-0.2922,0.8668,6.7131,60.2631,0.4478,0.9535,-0.0098,347.5469
20:23:07:235,-0.5506,1.3406,5.9231,60.2068,0.1778,1.3562,-0.0092,348.0625
20:23:07:259,-1.1683,1.8218,4.9343,60.0862,-0.3494,1.7434,-0.0635,348.0625
20:23:07:275,-1.8338,2.138,5.2717,60.2562,-1.0311,1.741,-0.0825,348.75
20:23:07:294,-2.083,1.9872,6.7059,59.9247,-1.5015,1.2266,-0.0195,348.75
20:23:07:314,-1.8123,1.561,9.2387,59.6252,-1.5938,0.4135,0.0641,349.0156
20:23:07:335,-1.427,1.3789,11.7574,59.2503,-1.2773,-0.1961,0.1075,349.0469
20:23:07:358,-1.1779,1.3238,13.2467,59.1453,-0.6554,-0.438,0.069,349.6875
20:23:07:376,-1.1635,1.0774,12.8611,58.9283,0.0446,-0.3439,-0.022,349.75
20:23:07:396,-0.8234,0.5219,10.5102,58.858,0.6915,-0.1362,-0.0348,350.3594
20:23:07:414,-0.4765,0.5387,9.9763,58.7973,0.5675,-0.146,0.0702,350.4219
20:23:07:434,0.0407,0.8258,9.859,58.5315,0.2957,-0.1625,0.1643,350.8906
20:23:07:453,0.7971,1.1276,10.4408,58.7468,-0.0391,-0.2248,0.1576,350.9375
20:23:07:474,1.4151,1.1204,11.8436,59.1133,-0.3787,-0.2859,0.0055,351.0469
20:23:07:494,1.8482,0.8115,13.3208,59.3121,-0.6255,-0.2309,-0.2144,351.0625
20:23:07:513,1.6759,0.0861,13.8882,59.4635,-0.675,-0.0586,-0.4453,350.7969
20:23:07:533,0.874,-0.929,13.1818,59.3729,-0.5485,0.1741,-0.5986,350.7656
20:23:07:556,0.1507,-1.8984,12.0784,59.2099,-0.3305,0.3195,-0.5693,350.4531
20:23:07:574,-0.2827,-2.2074,11.712,59.0821,-0.0922,0.2645,-0.3451,350.4219
20:23:07:596,0.0215,-1.8027,11.3097,59.1035,0.1613,0.2022,0.0281,350
20:23:07:614,0.7229,-1.0487,10.5317,58.8895,0.4148,0.2095,0.3812,349.7188
20:23:07:634,1.2736,-0.2441,9.7415,58.6532,0.6072,0.2333,0.5565,349.7188
20:23:07:654,1.5419,0.4214,8.8822,58.4982,0.7013,0.2822,0.5534,349.9062
20:23:07:677,1.4342,0.821,7.6995,58.1905,0.6695,0.3861,0.4349,349.9062
20:23:07:695,0.929,1.0893,6.7561,58.0524,0.5149,0.4453,0.2657,349.9688
20:23:07:714,0.3832,1.2377,6.3108,58.2332,0.3103,0.4007,0.1136,349.9688
20:23:07:735,0.1986,1.3454,6.4424,58.164,0.1295,0.2401,0.0177,349.6562
20:23:07:759,0.1579,1.5299,6.8997,57.811,-0.0079,0.0623,-0.0556,349.6562
20:23:07:774,0.0526,1.5897,7.369,57.6707,-0.1252,-0.0452,-0.1289,349.8906
20:23:07:795,-0.079,1.4414,7.7091,57.5203,-0.2511,-0.0702,-0.1936,349.8906
20:23:07:814,-0.3042,1.3238,8.0321,57.3397,-0.4343,-0.0147,-0.2236,350.9531
20:23:07:835,-0.4836,1.2784,8.7745,57.1637,-0.722,0.1643,-0.2126,350.9531
20:23:07:861,-0.6033,1.2616,9.6745,57.1774,-1.0794,0.5351,-0.1735,351.8281
20:23:07:875,-0.7995,1.3167,10.4527,57.0064,-1.3519,0.9413,-0.1142,351.9062
20:23:07:896,-0.8668,1.3262,11.3432,56.81,-1.394,1.138,-0.0305,351.5156
20:23:07:914,-0.9218,1.4677,12.0808,56.685,-0.7855,0.9548,0.1973,351.4688
20:23:07:935,-0.8258,1.6759,11.9919,56.4419,-0.3622,0.7801,0.3036,350.4062
20:23:07:959,-0.9434,1.8601,11.202,56.274,0.0006,0.6677,0.3396,350.2969
20:23:07:975,-1.2712,1.9199,10.4862,56.0631,0.223,0.4917,0.2932,349.5938
20:23:07:993,-1.6831,1.8123,10.3376,55.7335,0.3066,0.2303,0.1924,349.5156
20:23:08:013,-1.9606,1.5395,10.3376,55.3143,0.3103,-0.0043,0.0855,349.3594
20:23:08:034,-2.1308,1.3238,10.8858,55.0605,0.2492,-0.182,0.0018,349.3438
20:23:08:054,-2.2863,1.1994,11.8388,55.0215,0.182,-0.2346,-0.0574,349.5
20:23:08:074,-2.4443,0.8812,11.9225,54.8156,0.1802,-0.113,-0.0825,349.9375
20:23:08:095,-2.6575,0.5937,11.013,54.811,0.1753,0.0348,-0.0538,349.9375
20:23:08:113,-2.4323,0.3616,10.5006,54.7098,0.0678,0.0079,0.0226,350.1719
20:23:08:134,-1.9487,0.0335,11.3073,54.691,-0.0837,-0.182,0.0574,350.1719
20:23:08:159,-1.8362,-0.3209,12.2985,54.6847,-0.1252,-0.2321,0.0354,349.9375
20:23:08:175,-2.0447,-0.7205,11.5349,54.741,0.0183,0.0654,0.0794,349.9375
20:23:08:194,-2.217,-0.7373,9.4424,54.4254,0.234,0.4606,0.2352,349.3281
20:23:08:213,-2.3174,-0.4262,7.6134,54.1012,0.3751,0.5766,0.394,349.3281
20:23:08:235,-2.4323,0.1651,6.7202,54.2465,0.3848,0.3555,0.4899,348.5312
20:23:08:259,-2.0399,0.7373,6.9858,53.9802,0.2969,-0.0605,0.5137,348.5312
20:23:08:276,-1.0223,0.7875,7.5918,54.0245,0.1747,-0.4704,0.4142,348.0938
20:23:08:295,-0.5913,0.213,8.4248,53.7681,-0.0122,-0.7776,0.1533,348.0469
20:23:08:313,-1.008,-0.1723,10.1581,53.7815,-0.2969,-0.9144,-0.1203,348.0469
20:23:08:335,-1.8314,-0.7349,11.6019,53.8389,-0.5119,-0.7868,-0.2853,348.0469
20:23:08:359,-2.7126,-1.5275,11.3886,53.9242,-0.5082,-0.4532,-0.2645,348.2344
20:23:08:375,-3.2991,-1.8075,10.3953,54.1166,-0.3274,-0.1216,0.0195,348.2656
20:23:08:395,-3.05,-1.2162,8.8798,53.7699,-0.0702,0.0996,0.4844,348.3281
20:23:08:413,-2.4203,-0.3257,7.9555,53.7639,0.16,0.1435,0.8753,348.3281
20:23:08:436,-1.5849,0.9649,7.6612,53.4695,0.2981,0.1155,1.0696,348.2344
20:23:08:459,-0.1771,2.6456,6.7178,53.4603,0.3311,0.0849,1.0409,348.2188
20:23:08:475,-0.8979,2.7891,6.7274,53.2955,0.2254,0.1631,0.7672,347.9219
20:23:08:494,-1.3095,2.4873,7.5197,52.9819,-0.394,0.0147,0.0544,347.8906
20:23:08:513,-0.6368,1.9705,8.7266,52.91,-0.5809,-0.2798,-0.2138,347.0625
20:23:08:588,-0.9362,1.7166,10.1797,52.6666,-0.7807,-0.4221,-0.5846,346.9844
20:23:08:589,-1.1539,1.2999,12.3799,52.6457,-0.9242,-0.5235,-0.7568,346.1562
20:23:08:589,-0.8788,0.1101,13.4189,52.7986,-0.8045,-0.4862,-0.7385,346.0625
20:23:08:593,-0.5291,-0.8282,13.9744,52.7746,-0.4502,-0.4007,-0.6909,346.0781
20:23:08:614,-0.7469,-1.3525,13.3256,52.6104,0.0428,-0.2706,-0.565,346.625
20:23:08:634,-1.3621,-1.3143,11.9752,52.6439,0.5143,-0.1368,-0.3341,346.625
20:23:08:657,-1.3023,-0.8477,11.0656,52.6834,0.8088,-0.2144,-0.058,346.0312
20:23:08:676,-0.6416,-0.1747,10.6729,52.493,0.9102,-0.3586,0.1625,346.0312
20:23:08:694,0.1053,0.5578,10.637,52.2696,0.8112,-0.4209,0.2065,343.9531
20:23:08:714,1.0319,1.1348,10.9508,52.1965,0.5009,-0.3818,0.036,343.9531
20:23:08:735,1.2616,-0.0479,10.4384,51.9497,0.0177,-0.3384,-0.3537,342.0156
20:23:08:758,0.5459,-0.766,12.2004,51.9821,-0.3237,-0.6298,-0.5443,342.0156
20:23:08:776,-0.3688,-1.4533,12.7128,51.7718,-0.3555,-0.5498,-0.529,341.4531
20:23:08:796,-1.3095,-2.1308,11.7694,51.6178,-0.2755,-0.2217,-0.5791,341.4531
20:23:08:813,-1.4222,-2.2098,11.0273,51.5048,-0.146,-0.0696,-0.4459,342.2031
20:23:08:835,-0.6224,-1.7931,10.7303,51.4698,0.0244,-0.0165,-0.1283,342.2031
20:23:08:858,0.2417,-1.1061,10.2012,51.4891,0.1918,0.1032,0.1014,343.5469
20:23:08:874,0.5435,-0.4884,9.4567,51.3984,0.295,0.2785,0.1368,343.6719
20:23:08:895,0.4908,-0.1292,8.6617,51.4127,0.2963,0.3916,0.0641,344.9219
20:23:08:913,0.0861,0.0814,8.1377,51.1469,0.2291,0.4142,-0.0232,345.0312
20:23:08:935,-0.5841,0.2177,7.5532,51.3728,0.1527,0.4001,-0.0764,345.5625
20:23:08:958,-0.711,0.3855,7.2326,51.3803,0.1045,0.4398,-0.069,345.6094
20:23:08:975,-0.7349,0.7588,7.0675,51.1552,0.0831,0.5082,-0.014,345.4219
20:23:08:993,-0.7205,1.2353,7.0412,51.1083,0.0586,0.4801,0.0745,345.4062
20:23:09:013,-0.6894,1.695,7.2087,50.9942,0.0147,0.372,0.047,345.7969
20:23:09:033,-0.6823,1.9606,7.3307,50.6892,-0.0446,0.2633,-0.0263,345.8281
20:23:09:058,-0.6846,2.1523,7.6708,50.5024,-0.1203,0.1674,-0.1179,346.9062
20:23:09:075,-0.4621,2.2935,8.4272,50.5502,-0.2107,0.1063,-0.1778,347.0156
20:23:09:094,0.0455,2.2481,9.3873,50.4689,-0.2969,0.0947,-0.2181,348.0312
20:23:09:114,0.122,1.9175,10.1773,50.0725,-0.3903,0.1332,-0.3183,348.1719
20:23:09:133,-0.4238,1.3167,11.2044,50.0002,-0.4752,0.1167,-0.4526,348.1719
20:23:09:155,-1.0152,0.5937,12.2698,49.9834,-0.4581,0.0373,-0.5137,347.9688
20:23:09:175,-1.3645,-0.055,12.3296,49.7523,-0.3036,0.0861,-0.4478,347.9688
20:23:09:195,-1.3789,-0.2512,12.047,49.8898,-0.0886,0.1545,-0.2584,348.0625
20:23:09:214,-1.209,0.0622,11.8292,49.7782,0.1283,0.1881,-0.0275,348.0625
20:23:09:234,-0.9721,0.3975,11.4485,49.6274,0.3146,0.1643,0.1435,348.125
20:23:09:258,-1.2808,0.5148,11.202,49.4709,0.4563,-0.0031,0.212,348.125
20:23:09:276,-1.7333,0.4167,11.6521,49.3967,0.6133,-0.4117,0.2254,348.125
20:23:09:294,-2.0853,0.201,12.2291,49.3676,0.8796,-0.7006,0.2993,347.9375
20:23:09:314,-2.2409,0.2776,11.336,49.2075,1.2058,-0.5333,0.4441,347.875
20:23:09:335,-2.2146,0.7756,9.3108,49.337,1.3665,-0.2059,0.5742,347.875
20:23:09:358,-1.5443,1.1563,8.4009,49.3174,1.2064,-0.3066,0.6298,348.125
20:23:09:375,-0.929,1.4055,9.5118,49.4023,0.7855,-0.6701,0.5901,348.1562
20:23:09:395,-0.9362,1.439,10.5078,49.3639,0.3409,-0.6939,0.5198,348.6094
20:23:09:413,-1.2185,1.1133,9.8327,49.252,0.0299,-0.3152,0.5009,348.6562
20:23:09:436,-1.1061,0.8354,9.1693,49.2736,-0.1625,-0.102,0.6072,349.5156
20:23:09:459,-1.0247,0.9553,9.3203,49.2491,-0.0886,-0.2089,0.5736,349.5938
20:23:09:476,-0.2297,1.2927,10.2562,49.2722,0.0678,-0.4416,0.5015,350.2656
20:23:09:496,0.3664,1.264,10.6274,49.2109,0.248,-0.4936,0.3158,350.3281
20:23:09:513,0.3281,1.0654,9.7463,49.2239,0.3671,-0.2633,0.0757,350.25
20:23:09:533,0.309,0.8402,8.2238,49.1646,0.3732,0.0354,-0.0709,350.25
20:23:09:558,0.3209,0.6535,7.2613,49.2487,0.2621,0.1539,-0.1521,349.9375
20:23:09:573,0.0981,0.6224,7.3451,49.2357,0.08,0.0611,-0.2352,349.9219
20:23:09:594,-0.3042,0.821,8.1326,49.5185,-0.0916,-0.0617,-0.3048,349.4531
20:23:09:614,-0.6105,1.0798,8.4009,49.6595,-0.215,0.0403,-0.3195,348.375
20:23:09:633,-0.7564,1.3693,8.3267,49.6565,-0.3335,0.2297,-0.3085,348.375
20:23:09:659,-1.1444,1.6472,8.2549,49.9247,-0.4667,0.3769,-0.3115,347.3906
20:23:09:675,-1.6161,1.7477,8.4655,49.9062,-0.584,0.4025,-0.2883,347.3906
20:23:09:694,-1.7644,1.6017,8.942,49.6991,-0.6341,0.3121,-0.2303,346.2656
20:23:09:713,-1.8936,1.4605,9.5764,49.6966,-0.5956,0.1857,-0.1662,346.2656
20:23:09:735,-1.8147,1.6184,10.2993,49.9402,-0.4355,0.0336,-0.0305,346.2656
20:23:09:758,-1.5299,1.6687,10.9771,49.9466,-0.1173,-0.0843,0.1643,344.9844
20:23:09:775,-1.2544,1.695,11.2786,50.0142,0.2162,-0.1246,0.2248,344.9688
20:23:09:797,-0.8644,1.1085,10.9217,50.2603,0.3628,-0.201,0.2205,344.2031
20:23:09:814,-0.1101,1.4509,11.8029,50.172,0.3683,-0.4936,0.2706,344.2656
20:23:09:834,0.5291,1.4222,12.6577,50.3022,0.4978,-0.7562,0.3476,344.2656
20:23:09:858,0.5148,1.5562,12.5737,50.9596,0.5882,-0.7153,0.2169,344.6719
20:23:09:875,1.0534,1.9705,12.0664,51.1462,0.5534,-0.6286,0.0586,344.6875
20:23:09:894,2.0638,1.6711,12.0879,51.6041,0.4117,-0.6713,-0.1191,345.2812
20:23:09:913,2.5232,1.4509,12.9066,51.7394,0.215,-0.7715,-0.3769,345.3438
20:23:09:934,2.2409,0.5985,13.0932,52.0332,0.0501,-0.6548,-0.551,345.8594
20:23:09:958,1.7166,-0.1914,10.5556,52.3099,-0.0757,0.1155,-0.4233,345.9062
20:23:09:976,1.3908,-0.2321,9.2988,52.6035,-0.0043,0.2669,-0.3134,346.2812
20:23:09:995,1.0654,0.285,8.9922,52.9143,-0.0067,0.1991,-0.2022,346.3125
20:23:10:013,1.5658,0.8979,9.5094,52.8658,0.0666,-0.0409,-0.0556,346.4219
20:23:10:033,2.2122,1.3023,9.6242,53.2496,0.2303,-0.1362,-0.0367,346.4375
20:23:10:058,2.2385,1.3789,8.9731,53.0362,0.3744,-0.058,-0.2107,346.0781
20:23:10:074,1.5132,1.2975,7.8861,53.4566,0.3916,0.1155,-0.4386,346.0312
20:23:10:094,0.6129,1.185,6.9763,53.7632,0.2364,0.2474,-0.5864,345.6562
20:23:10:113,-0.055,1.142,6.6867,54.0686,-0.0165,0.2669,-0.5931,345.25
20:23:10:134,-0.285,1.1659,7.0603,54.4435,-0.2529,0.1936,-0.5101,345.25
20:23:10:158,-0.1819,1.2736,7.8742,54.8221,-0.3891,0.0983,-0.4062,345.4688
20:23:10:174,-0.0455,1.4509,8.3722,55.2441,-0.3989,0.1008,-0.3231,345.4688
20:23:10:193,0.0622,1.6161,8.5062,55.4149,-0.3286,0.1344,-0.2706,346.5469
20:23:10:213,0.0263,1.7333,8.554,55.86,-0.2492,0.1264,-0.2437,346.6562
20:23:10:234,0.0742,1.8553,8.8343,56.0955,-0.1973,0.055,-0.2046,346.6562
20:23:10:258,0.2512,1.9992,9.3371,56.2498,-0.1674,-0.0183,-0.1527,347.7031
20:23:10:275,0.4071,2.1141,10.1127,56.408,-0.1497,-0.0812,-0.1124,347.7031
20:23:10:295,0.3879,2.1547,10.9289,56.5908,-0.1106,-0.102,-0.0855,348.2188
20:23:10:313,0.1364,2.1165,11.3623,56.7752,-0.0318,-0.014,-0.047,348.3438
20:23:10:334,-0.0861,2.1236,11.1996,56.9378,0.0654,0.1692,0.0446,348.3438
20:23:10:358,-0.146,2.3246,10.8188,57.268,0.1252,0.3799,0.1851,349.0781
20:23:10:374,-0.055,2.5065,10.6155,57.4049,0.1142,0.5369,0.3054,349.0781
20:23:10:395,-0.1412,2.5522,10.4025,57.7443,0.0464,0.609,0.3494,350.2031
20:23:10:413,-0.3903,2.217,10.1127,57.8091,-0.0183,0.551,0.339,350.3125
20:23:10:433,-0.7181,1.6807,10.2467,58.1,-0.0483,0.3433,0.3158,351.1719
20:23:10:459,-1.2233,1.4581,10.4121,58.3786,-0.025,0.1417,0.3189,351.2656
20:23:10:478,-1.3454,1.4103,9.6888,58.5928,0.0452,-0.1698,0.2957,351.7969
20:23:10:498,-0.8477,1.0032,10.0481,58.7931,-0.1161,-0.4459,0.2077,351.8594
20:23:10:513,-0.3712,0.7373,11.8603,58.9946,-0.3897,-0.7526,0.1277,352.2656
20:23:10:534,-0.4238,0.62,13.9337,59.4355,-0.5571,-0.7892,0.1081,352.2969
20:23:10:558,-0.7564,0.1268,13.4979,59.4642,-0.4441,-0.3763,0.2199,352.5625
20:23:10:574,-0.8019,-0.1149,11.2187,59.7873,-0.1216,0.1002,0.4569,352.5938
20:23:10:647,-0.7014,0.122,9.3419,59.8595,0.1826,0.2291,0.6689,352.7344
20:23:10:648,-0.3425,0.9625,8.6856,59.8473,0.3274,0.0586,0.8014,352.4844
20:23:10:648,0.5818,1.8864,8.645,60.0948,0.3128,-0.1576,0.8265,352.4844
20:23:10:661,1.5179,2.2337,8.9659,60.34,0.171,-0.2981,0.6255,351.625
20:23:10:674,1.5084,1.6735,9.4376,60.3262,-0.0397,-0.3121,0.2187,351.625
20:23:10:695,0.9266,0.7062,9.5548,60.3437,-0.2456,-0.2205,-0.1368,351.6094
20:23:10:713,0.3209,0.0598,10.515,60.6739,-0.4117,-0.1771,-0.2993,350.7969
20:23:10:736,-0.3114,-0.1196,11.3408,60.7466,-0.4545,-0.0501,-0.2816,350.7969
20:23:10:757,-0.6344,-0.0622,11.0417,60.9589,-0.3415,0.2608,-0.0935,350.0625
20:23:10:774,-0.5195,0.3592,9.3969,61.1671,-0.1252,0.6249,0.1668,350.0469
20:23:10:794,-0.3018,0.8306,7.8168,61.3804,0.0806,0.7813,0.3317,349.5625
20:23:10:813,-0.2465,1.4509,6.7872,61.4799,0.1881,0.7153,0.3751,349.4062
20:23:10:835,-0.2465,2.0231,6.4618,61.705,0.1649,0.5156,0.336,349.4062
20:23:10:859,-0.146,2.3581,6.9691,61.8564,0.047,0.2883,0.237,348.6562
20:23:10:874,0.0263,2.2146,7.7569,61.9191,-0.088,0.1344,0.0855,348.6562
20:23:10:894,-0.2177,1.9896,8.5612,62.2852,-0.2052,0.0855,-0.0684,347.2031
20:23:10:913,-0.8115,1.8075,9.1741,62.4964,-0.3048,0.0593,-0.1692,347.0469
20:23:10:935,-1.185,1.7118,10.448,62.6828,-0.3842,-0.0501,-0.1839,345.6562
20:23:10:957,-1.1755,1.5179,11.834,62.6592,-0.3714,-0.204,-0.1393,345.5156
20:23:10:975,0.1292,0.7564,13.3328,62.7471,-0.2407,-0.3237,-0.0922,345.4688
20:23:10:995,0.4645,0.5674,13.2658,62.8072,-0.0391,-0.4093,-0.0629,345.4531
20:23:11:013,0.4717,0.8501,12.1478,62.8764,0.2883,-0.2608,-0.025,346.0312
20:23:11:035,0.6344,1.1492,11.4389,62.9105,0.1826,-0.1668,-0.0031,346.0781
20:23:11:057,0.874,1.13,11.5947,63.1296,-0.0843,-0.1246,-0.0061,345.9375
20:23:11:073,1.2185,0.9051,11.9369,63.2342,-0.3146,-0.0721,-0.0275,345.9219
20:23:11:094,1.6519,0.4262,12.4493,63.2877,-0.3903,-0.088,-0.0886,345.0938
20:23:11:113,1.7022,-0.0814,13.2682,63.5193,-0.2822,-0.1692,-0.1906,344.375
20:23:11:133,1.1946,-0.3855,12.9473,63.6419,0.0061,-0.0764,-0.2517,344.375
20:23:11:157,0.9027,-0.4286,11.1039,63.7272,0.408,0.1674,-0.2052,344.2656
20:23:11:175,0.9075,-0.4334,8.9157,64.0189,0.7422,0.2792,-0.1283,344.2656
20:23:11:194,0.9864,-0.1364,7.5126,64.205,0.8796,0.1374,-0.0776,344.2656
20:23:11:213,1.1635,0.3209,7.247,63.9501,0.8167,-0.1509,-0.0867,344.5938
20:23:11:234,1.4079,0.6966,7.6277,63.8489,0.6133,-0.3702,-0.171,344.5938
20:23:11:257,1.4557,0.7277,7.867,63.6967,0.3555,-0.3781,-0.3134,344.8594
20:23:11:275,1.0558,0.577,7.7952,63.5442,0.1038,-0.2242,-0.4881,344.8594
20:23:11:296,0.309,0.4621,7.5174,63.6526,-0.1014,-0.0342,-0.6255,345.0469
20:23:11:313,-0.3999,0.4789,7.2517,63.5961,-0.2529,0.1063,-0.6628,345.1562
20:23:11:334,-0.8453,0.6344,7.101,63.6025,-0.3537,0.1796,-0.5986,345.1562
20:23:11:357,-0.766,0.9697,7.2709,63.798,-0.4007,0.1961,-0.4697,345.1875
20:23:11:374,-0.3688,1.3382,7.6349,64.0786,-0.3971,0.182,-0.3702,345.1875
20:23:11:394,-0.2417,1.7596,7.9699,64.2001,-0.3635,0.1631,-0.3531,345.4688
20:23:11:413,-0.2034,2.0471,8.3602,64.4207,-0.3292,0.1063,-0.3751,345.4688
20:23:11:435,-0.1029,2.1978,8.7769,64.4403,-0.3085,0.0586,-0.408,345.9375
20:23:11:459,-0.1819,2.3749,9.1908,64.6058,-0.3109,0.0794,-0.4478,345.9844
20:23:11:477,0.6942,2.7269,10.7399,64.8938,-0.3922,0.179,-0.4997,346.2656
20:23:11:496,0.6607,2.6791,12.1095,64.9482,-0.405,0.1942,-0.6218,346.2656
20:23:11:514,-0.1388,2.3007,12.6817,64.7342,-0.2975,0.2773,-0.7629,346.625
20:23:11:534,-0.9003,1.5849,12.5019,64.6109,-0.0819,0.2975,-0.8112,346.6719
20:23:11:557,-1.264,1.0343,12.5258,64.5691,0.1607,0.1961,-0.7342,347.5469
20:23:11:574,-1.4294,0.6607,12.4373,64.6802,0.3891,0.1264,-0.5797,347.6406
20:23:11:593,-1.5826,0.5435,11.9919,64.9348,0.5455,0.1735,-0.3702,348.9062
20:23:11:615,-1.7907,0.644,11.1661,64.9655,0.576,0.2773,-0.1332,350.0312
20:23:11:634,-1.9295,0.8139,10.0935,64.9863,0.4801,0.3451,0.0916,350.0312
20:23:11:654,-1.7189,0.984,9.4615,64.9411,0.281,0.2132,0.2773,350.7969
20:23:11:673,-0.9912,0.9721,10.5628,64.9765,0.0287,-0.237,0.3622,350.7969
20:23:11:695,-0.3879,0.6344,12.7319,64.7523,-0.1497,-0.6689,0.2981,350.8594
20:23:11:713,-0.4525,-0.1603,13.663,64.7315,-0.1399,-0.6206,0.179,351.6562
20:23:11:736,-1.1372,-1.118,12.0855,64.6829,0.0611,-0.1271,0.1771,351.6719
20:23:11:758,-1.5945,-1.3645,9.3395,64.4323,0.2944,0.3128,0.3946,352.6094
20:23:11:774,-1.3717,-0.9338,7.6134,64.2594,0.4032,0.3128,0.6988,352.625
20:23:11:795,-0.7038,0.134,7.8024,64.0084,0.3751,-0.0324,0.9028,353.7656
20:23:11:813,0.2249,1.1468,8.4655,63.752,0.3079,-0.2908,0.9212,355.4375
20:23:11:835,0.8859,1.5036,8.5851,63.5599,0.2144,-0.3268,0.7098,355.4375
20:23:11:857,0.8429,1.2951,8.808,63.6478,0.0446,-0.2859,0.3464,356.9062
20:23:11:875,0.1866,0.8955,9.2411,63.3972,-0.1826,-0.193,0.036,356.9062
20:23:11:894,-0.6488,0.5387,9.7199,63.3023,-0.3842,-0.0342,-0.0874,357.5469
20:23:11:913,-1.1922,0.213,9.7271,63.3791,-0.4679,0.1839,-0.0324,357.5469
20:23:11:934,-1.3813,0.2225,9.0855,63.0027,-0.3775,0.3922,0.1283,357.2031
20:23:11:957,-1.4653,0.5578,8.3937,62.8343,-0.1802,0.4813,0.2926,357.1562
20:23:11:975,-1.4653,1.185,7.8359,62.4895,0.0202,0.4514,0.4374,356.5625
20:23:11:996,-1.0965,1.8242,7.6564,62.316,0.1521,0.3152,0.5308,356.5
20:23:12:014,-0.2994,2.5089,8.3626,62.178,0.1075,-0.0122,0.3897,356.1875
20:23:12:036,-0.2608,2.4826,8.9611,62.0827,-0.0232,-0.022,0.2297,356.1562
20:23:12:055,-0.6799,2.2792,9.3251,61.9806,-0.1655,0.0568,0.0855,355.0781
20:23:12:074,-1.4222,1.9534,9.4424,61.7469,-0.2761,0.1142,0.0208,354.9688
20:23:12:094,-1.8817,1.6807,9.8255,61.5959,-0.3262,0.0226,0.0806,353.2188
20:23:12:113,-1.6376,1.5778,10.7375,61.5678,-0.2981,-0.2327,0.2248,352.0469
20:23:12:133,-0.699,1.4366,12.0159,61.7517,-0.19,-0.5247,0.358,352.0469
20:23:12:156,0.256,1.0678,12.8587,61.7389,-0.0428,-0.6829,0.3977,351.9531
20:23:12:174,0.7205,0.8668,13.5458,61.4957,0.047,-0.7129,0.3561,351.9844
20:23:12:195,0.9434,0.8883,13.8404,61.3738,0.0544,-0.6231,0.303,351.9844
20:23:12:213,1.0702,0.8186,13.9361,60.9096,0.0043,-0.449,0.2468,351.7812
20:23:12:235,1.3573,0.4741,13.3759,60.551,-0.022,-0.2303,0.1894,351.7656
20:23:12:257,1.7931,-0.1771,12.3296,60.423,0.0165,-0.0831,0.1277,350.875
20:23:12:276,1.7357,-0.6392,11.9632,60.245,0.066,-0.1045,0.0409,350.875
20:23:12:296,1.4868,-0.7875,12.1837,60.1772,0.1411,-0.146,0.0061,349.7188
20:23:12:313,1.3932,-0.7421,11.8819,59.864,0.3054,-0.0318,0.0623,349.0469
20:23:12:335,1.5347,-0.6679,10.3256,59.8026,0.5492,0.2285,0.1643,349.0469
20:23:12:357,1.7716,-0.3855,8.4153,59.5667,0.7428,0.4105,0.2126,348.875
20:23:12:375,1.8673,0.2752,7.3881,59.6095,0.7501,0.4025,0.1509,348.875
20:23:12:394,1.8888,0.9362,7.0555,59.819,0.5406,0.3677,-0.0238,348.5156
20:23:12:413,1.5754,1.2449,7.0603,59.7929,0.1521,0.4178,-0.2969,348.5156
20:23:12:434,0.8282,0.9649,7.4958,59.7016,-0.3372,0.5412,-0.584,347.8281
20:23:12:459,-0.012,0.5865,8.353,59.3251,-0.7849,0.6848,-0.7251,347.7656
20:23:12:475,-0.4717,0.3209,8.9827,59.0943,-1.0366,0.8344,-0.664,347.2188
20:23:12:496,-0.6918,0.3903,9.2701,58.8537,-1.0366,0.8827,-0.5033,347.1562
20:23:12:514,-0.6296,0.6799,9.3682,58.6275,-0.408,0.5809,-0.1936,346.7656
20:23:12:537,-0.1101,1.5467,9.2554,58.3615,0.0122,0.3604,-0.1515,346.7344
20:23:12:559,0.0048,1.8003,8.8152,57.9617,0.336,0.1955,-0.1857,346.5781
20:23:12:574,-0.0574,1.841,8.4272,57.6275,0.4844,0.0678,-0.2511,346.5625
20:23:12:593,-0.1292,1.7716,8.4488,57.3615,0.4642,-0.0354,-0.2749,346.5156
20:23:12:613,-0.0861,1.7381,8.7242,57.1172,0.3421,-0.077,-0.2309,346.5156
20:23:12:634,-0.0215,1.817,9.2868,57.1297,0.1936,-0.0611,-0.1582,346.125
20:23:12:656,-0.189,1.9705,9.8157,56.8881,0.0959,0.0153,-0.0898,346.0938
20:23:12:713,-0.4789,2.0901,9.8351,57.0502,0.077,0.1527,-0.0214,345.9375
20:23:12:714,-0.8524,2.2385,9.6266,56.9011,0.0953,0.2205,0.0593,345.9219
20:23:12:714,-0.754,2.3533,10.3639,56.8614,0.099,0.0593,0.1356,346.75
20:23:12:736,-0.6583,2.6216,11.9178,56.9509,0.1136,-0.1264,0.1735,346.7656
20:23:12:757,-0.7421,2.5953,12.4373,56.7804,0.1942,-0.0776,0.1845,348
20:23:12:776,-1.2401,2.3557,11.3743,56.8369,0.3115,0.058,0.1833,348.0156
20:23:12:795,-1.9896,2.0973,10.6298,56.6266,0.3555,-0.0421,0.1845,348.6094
20:23:12:813,-2.5017,1.884,10.8428,56.4258,0.3103,-0.2957,0.2639,348.8906
20:23:12:834,-2.3844,1.64,11.281,56.1389,0.2333,-0.5015,0.4337,348.8906
20:23:12:855,-1.4892,1.3836,11.5851,56.0477,0.1888,-0.6499,0.628,349.4375
20:23:12:876,-0.5626,1.0606,12.399,55.716,0.2181,-0.8314,0.7159,349.4375
20:23:12:894,-0.7516,1.0678,13.2873,55.5107,0.339,-0.8277,0.6823,350.0938
20:23:12:913,-1.0941,0.9793,11.755,55.4384,0.5693,-0.4025,0.7177,350.0938
20:23:12:934,-0.996,0.9482,9.1023,55.3941,0.7568,0.0226,0.821,350.4062
20:23:12:957,-0.8453,1.3932,7.6756,55.2281,0.755,0.0867,0.8686,350.4062
20:23:12:976,-0.268,2.272,7.5006,55.5156,0.5895,-0.0672,0.8857,350.3594
20:23:12:996,0.6894,3.0212,8.1903,55.5351,0.3311,-0.2437,0.8014,350.3594
20:23:13:013,1.398,3.1196,9.0616,55.6456,0.0788,-0.2957,0.518,350.0781
20:23:13:035,0.8835,1.3167,8.8223,55.9623,-0.1393,0.0727,-0.2547,350.0469
20:23:13:056,-0.067,0.7014,8.3148,56.1107,-0.1704,0.2333,-0.4459,349.7344
20:23:13:076,-1.0032,0.565,8.2741,56.2338,-0.2052,0.2474,-0.4447,349.7031
20:23:13:095,-1.3382,0.8258,8.8869,56.1793,-0.1942,0.1332,-0.2895,349.3594
20:23:13:113,-1.0391,1.1874,9.4184,56.1238,-0.058,0.0507,-0.088,349.3125
20:23:13:134,-0.7301,1.5586,8.8941,55.9528,0.1869,0.1228,0.047,348.4062
20:23:13:157,-0.7086,1.9223,8.0967,56.1552,0.3989,0.1936,0.0709,348.3281
20:23:13:174,-0.7851,2.2911,7.4575,56.0516,0.4691,0.2034,0.0513,347.1406
20:23:13:195,-0.833,2.5881,7.0747,56.0245,0.3799,0.1564,0.0305,347.0156
20:23:13:213,-0.7947,2.7341,7.4169,55.7649,0.1698,0.0183,-0.011,345.4688
20:23:13:233,-0.8979,2.7126,8.4583,55.6889,-0.0727,-0.1106,-0.069,345.4531
20:23:13:256,-1.0128,2.6623,9.4208,55.6044,-0.2468,-0.1723,-0.0855,343.625
20:23:13:275,-0.8764,2.5427,10.4623,55.8254,-0.3158,-0.2309,-0.0599,343.6094
20:23:13:295,-0.6918,2.5307,11.3504,55.8161,-0.2676,-0.2798,-0.0397,342.2812
20:23:13:313,-0.5291,2.581,11.4485,55.7166,-0.1295,-0.2737,-0.0483,342.4219
20:23:13:334,-0.268,2.4132,11.2977,55.6449,-0.0122,-0.3244,-0.1124,342.4219
20:23:13:357,0.2728,2.1308,11.2929,55.9669,0.0092,-0.4087,-0.2028,343.2969
20:23:13:375,0.9218,1.8099,11.6928,56.2588,-0.0696,-0.4966,-0.3066,343.2969
20:23:13:396,1.5658,1.5562,12.4517,56.3825,-0.2138,-0.5333,-0.4313,343.6875
20:23:13:413,1.8745,1.2185,13.3232,56.496,-0.3744,-0.4478,-0.5779,343.6875
20:23:13:434,1.5371,0.6703,13.7157,56.6085,-0.4752,-0.1936,-0.7184,343.5469
20:23:13:456,0.7564,-0.1819,12.9521,56.7591,-0.4447,0.2028,-0.7703,343.5469
20:23:13:475,0.2656,-0.6583,11.257,57.0161,-0.3128,0.5864,-0.653,343.4688
20:23:13:495,0.2321,-0.5841,9.5548,57.4067,-0.1833,0.7367,-0.4282,343.4531
20:23:13:513,0.4597,-0.0311,8.8343,57.2127,-0.1179,0.5711,-0.2315,343.5625
20:23:13:535,0.766,0.6105,8.9037,57.5567,-0.0764,0.2761,-0.1289,343.5625
20:23:13:557,0.8429,0.9218,8.9587,57.5636,-0.0086,0.0702,-0.1362,343.7344
20:23:13:576,0.6009,0.9218,8.4129,57.733,0.0812,0.0348,-0.1985,343.75
20:23:13:596,-0.1005,1.0678,6.7561,57.978,0.1393,0.0782,-0.2333,343.9062
20:23:13:614,-0.4095,1.4509,6.4376,58.0568,-0.0018,0.044,-0.1869,343.9062
20:23:13:634,-0.4884,1.9247,6.7322,58.1042,-0.1692,-0.0556,-0.1588,344.3281
20:23:13:657,-0.3808,2.1954,7.3666,58.1474,-0.3237,-0.1179,-0.1771,344.375
20:23:13:675,-0.2345,2.2624,8.1206,58.5644,-0.4282,-0.1038,-0.2559,345.2344
20:23:13:694,-0.3353,2.1787,8.554,58.4806,-0.4777,-0.014,-0.3592,345.3281
20:23:13:713,-0.7516,2.1452,8.6856,58.7667,-0.5021,0.069,-0.4105,346.6719
20:23:13:735,-0.8186,2.126,9.186,59.0491,-0.5101,0.0153,-0.3598,346.7969
20:23:13:755,-0.3664,2.0662,10.0983,58.9659,-0.4679,-0.1277,-0.2547,348.2344
20:23:13:774,0.0574,2.0542,11.08,59.2854,-0.3592,-0.2364,-0.1771,348.2344
20:23:13:795,0.1675,2.0686,11.7885,59.3774,-0.2071,-0.2547,-0.1313,348.7656
20:23:13:813,0.0598,2.1117,12.1645,59.4832,-0.0373,-0.1869,-0.0568,349.0156
20:23:13:834,0.0167,2.1476,11.9848,59.3869,0.1423,-0.0397,0.0855,349.0156
20:23:13:856,0.1053,2.4682,11.1733,59.5538,0.2938,0.1393,0.259,349.5
20:23:13:876,0.3401,2.9662,10.6226,59.8471,0.3525,0.2022,0.3751,349.5
20:23:13:895,0.5937,3.201,10.8212,59.8972,0.3329,0.0947,0.383,349.9375
20:23:13:913,0.6727,3.1723,11.4891,60.3288,0.3097,-0.0556,0.3109,349.9375
20:23:13:935,0.6081,3.0284,11.9489,60.4745,0.339,-0.1203,0.2162,350.2969
20:23:13:957,0.4908,2.8968,11.8627,60.7512,0.4013,-0.0702,0.1484,350.2969
20:23:13:977,0.4023,2.916,11.2642,61.0265,0.4227,0.0024,0.1301,350.8594
20:23:13:995,0.3903,3.0212,10.8763,61.4046,0.3286,-0.0507,0.1283,350.9062
20:23:14:013,0.5315,2.9949,11.688,61.6761,0.1295,-0.3073,0.0684,351.6094
20:23:14:036,0.4884,1.0271,12.7367,61.6553,-0,-0.4997,-0.0745,351.6719
20:23:14:057,-0.8043,0.213,11.1852,61.7384,0.0745,-0.3549,-0.2529,352.0781
20:23:14:078,-1.7094,0.0383,8.7458,62.0412,0.449,0.449,-0.1912,352.125
20:23:14:094,-1.9558,0.2776,7.1895,62.3034,0.4691,0.4502,0.0434,352.3281
20:23:14:113,-1.7524,0.8644,7.1369,62.4408,0.3341,0.1582,0.2199,352.3594
20:23:14:133,-1.0558,1.3262,7.7833,62.6015,0.1631,-0.1509,0.2883,352.0312
20:23:14:156,-0.3353,1.2209,8.6761,62.656,0.0263,-0.3439,0.182,352
20:23:14:173,-0.4071,0.7134,9.4065,62.6597,-0.0678,-0.3665,-0.0556,351.2656
20:23:14:194,-1.0487,0.1795,9.4496,63.0577,-0.1185,-0.2059,-0.2248,351.1875
20:23:14:213,-1.494,-0.2922,9.0951,63.5248,-0.1264,0.0049,-0.2101,350.7188
20:23:14:234,-1.7357,-0.3688,8.6617,63.4552,-0.1112,0.171,-0.0568,350.6719
20:23:14:255,-1.6184,0.2321,8.3483,63.4354,-0.0764,0.2737,0.168,350.4375
20:23:14:274,-1.185,0.8883,7.9723,63.6363,-0.0177,0.3622,0.3494,350.4219
20:23:14:296,-0.9864,1.4366,7.4049,63.6788,0.0379,0.4361,0.4099,350.2812
20:23:14:313,-1.0463,1.8936,6.8495,63.8073,0.0415,0.4624,0.3897,350.75
20:23:14:334,-0.9242,2.1811,6.4857,63.7794,-0.0312,0.4025,0.3506,350.75
20:23:14:355,-0.7588,2.5089,6.7825,63.5852,-0.1894,0.237,0.2755,351.2969
20:23:14:374,-0.6488,2.6982,8.0608,63.8013,-0.3958,-0.0043,0.1686,351.2969
20:23:14:394,-0.6966,2.6743,9.8061,64.1977,-0.5394,-0.2101,0.08,351
20:23:14:413,-0.821,2.6695,11.4461,64.354,-0.5052,-0.3396,0.0507,351
20:23:14:435,-0.5483,2.5522,12.6912,64.4634,-0.2553,-0.4447,0.0568,350.5625
20:23:14:456,0.0263,2.2122,12.9305,64.7241,0.1264,-0.5345,0.0409,350.5625
20:23:14:475,0.6679,1.8482,12.4134,64.9062,0.4459,-0.5937,-0.0195,350.9062
20:23:14:495,1.0702,1.8147,12.3535,65.3717,0.5302,-0.6664,-0.1136,350.9375
20:23:14:513,1.2808,1.8482,12.7511,65.745,0.3616,-0.6005,-0.1961,351.1719
20:23:14:534,1.628,1.7429,12.696,65.6862,0.0562,-0.2914,-0.2083,351.1875
20:23:14:556,2.1117,1.6208,12.4804,65.6619,-0.2743,0.0214,-0.1888,350.5938
20:23:14:577,2.473,1.5371,12.7343,65.7441,-0.5363,0.146,-0.2358,350.5312
20:23:14:596,1.6328,0.3592,13.1243,65.8696,-0.576,0.2523,-0.5583,349.6406
20:23:14:613,0.9386,-0.3401,12.2722,65.6105,-0.3586,0.3781,-0.5986,349.5469
20:23:14:633,0.5506,-0.7301,11.0919,65.5878,-0.0788,0.463,-0.4832,348.8125
20:23:14:656,0.6559,-0.7732,9.8231,65.4023,0.1979,0.4569,-0.2627,348.7344
20:23:14:675,1.008,-0.4119,8.7697,65.2945,0.4007,0.3347,-0.0519,348.4531
20:23:14:694,1.4294,0.2225,8.3315,65.1353,0.4948,0.1362,0.0605,348.4219
20:23:14:713,1.7596,0.7708,8.0656,64.8487,0.4978,0.0098,0.0531,348.3438
20:23:14:771,1.5921,1.1515,7.5509,64.7374,0.4178,0.025,-0.0654,348.3438
20:23:14:772,1.0606,1.398,7.2087,64.6812,0.259,0.11,-0.2388,348.5
20:23:14:780,0.4621,1.5036,7.1584,64.8586,0.0647,0.2315,-0.3971,349.0312
20:23:14:795,-0.0144,1.4246,7.2398,64.8346,-0.099,0.3567,-0.5076,349.0312
20:23:14:814,-0.4765,1.3119,7.1369,64.6646,-0.2052,0.4502,-0.5528,349.5
20:23:14:839,-0.8186,1.4342,7.1776,64.5823,-0.2749,0.4349,-0.5162,349.5
20:23:14:854,-0.7875,1.7405,7.5245,64.4199,-0.3152,0.3317,-0.4215,350.0938
20:23:14:875,-0.4549,2.1452,8.0513,64.4762,-0.3256,0.2199,-0.3427,350.0938
20:23:14:895,-0.189,2.406,8.3794,63.9996,-0.3128,0.1576,-0.3354,351.25
20:23:14:913,-0.1316,2.3988,8.4296,63.5955,-0.3146,0.1222,-0.3799,351.25
20:23:14:939,0.1292,2.2672,8.796,63.5309,-0.3604,0.0421,-0.4074,351.9844
20:23:14:956,0.5459,2.2983,9.8662,63.4109,-0.416,-0.0886,-0.4154,351.9844
20:23:14:975,0.7062,2.4299,11.1541,63.3493,-0.4276,-0.1271,-0.4532,351.9844
20:23:14:995,0.4214,2.3151,11.5325,63.0867,-0.3427,0.0678,-0.5033,351.9844
20:23:15:013,-0.0933,2.2002,10.5724,62.798,-0.1802,0.3787,-0.5033,352.0625
20:23:15:034,-0.5578,2.3821,9.3203,62.5404,-0.0525,0.5424,-0.4673,352.0625
20:23:15:056,-1.1109,2.5137,8.8511,62.7091,-0.0409,0.4398,-0.4416,352.6719
20:23:15:076,-1.7094,2.3533,9.4998,62.6199,-0.1051,0.1619,-0.3995,352.7344
20:23:15:096,-1.774,2.0303,10.8715,62.3221,-0.1338,-0.1735,-0.3018,353.6875
20:23:15:113,-1.573,1.6615,12.4971,62.0395,0.0861,-0.3836,-0.0531,353.7812
20:23:15:133,-1.4725,1.8553,12.035,61.6993,0.1527,-0.2755,0.058,354.5781
20:23:15:153,-1.1874,2.0566,11.4867,61.4833,0.0367,-0.2737,0.1216,354.6719
20:23:15:173,-0.8859,1.908,12.5139,61.474,-0.2413,-0.5162,0.1057,355.25
20:23:15:194,-0.4789,1.3095,14.482,61.5336,-0.4435,-0.7788,0.044,355.2969
20:23:15:212,-0.5698,0.134,15.3245,61.3611,-0.3195,-0.7428,-0.0269,356.0156
20:23:15:234,-1.4174,-0.9673,13.9983,61.1376,0.1423,-0.3952,0.0153,356.0938
20:23:15:255,-2.004,-1.3095,10.9938,60.9029,0.7373,-0.0507,0.3073,356.8906
20:23:15:275,-1.6615,-0.8812,8.6569,60.6078,1.196,-0.1057,0.7129,356.9688
20:23:15:295,-0.6033,0.1675,8.0369,60.7504,1.4148,-0.5247,1.014,357.9844
20:23:15:313,0.8907,1.3908,8.1736,60.6424,1.4502,-0.9462,1.0952,358.9062
20:23:15:335,1.9199,2.2193,8.4559,60.3897,1.3353,-1.174,0.8772,358.9062
20:23:15:356,2.0375,2.2146,8.6713,60.141,1.08,-1.1337,0.4447,359.6406
20:23:15:375,1.5012,1.4366,8.3243,59.9912,0.741,-0.8149,0.014,359.6406
20:23:15:395,0.7014,0.7373,7.9508,59.7962,0.3598,-0.4392,-0.2614,359.9688
20:23:15:413,-0.2082,0.5459,8.0871,59.7968,-0.0379,-0.1136,-0.3445,359.9688
20:23:15:434,-0.7421,0.7732,8.2119,59.6364,-0.3573,0.2028,-0.2468,359.8281
20:23:15:456,-0.9147,1.1109,8.0704,59.2032,-0.5052,0.4441,-0.0928,359.8281
20:23:15:476,-0.9888,1.4557,7.8359,59.013,-0.4991,0.5583,-0.0006,359.7031
20:23:15:495,-0.8812,1.9128,7.6875,58.7839,-0.4111,0.5455,0.0458,359.7031
20:23:15:513,-0.5889,2.2983,7.7402,58.2436,-0.3146,0.4325,0.0342,359.7656
20:23:15:534,-0.5698,2.4586,8.135,58.0127,-0.2517,0.2712,-0.0513,359.7656
20:23:15:556,-0.6823,2.3246,8.7553,57.7296,-0.2046,0.1576,-0.1429,358.9062
20:23:15:577,-0.754,2.0016,9.0951,57.2419,-0.0941,0.1753,-0.1197,358.8125
20:23:15:596,-0.3784,2.0973,9.3562,57.1974,-0.0843,0.1643,-0.0397,357.0469
20:23:15:614,0.3138,2.0925,9.7726,57.0283,-0.1161,0.0709,0.0104,356.875
20:23:15:633,1.1061,1.9415,10.6202,56.7539,-0.1723,-0.1411,-0.0177,355.9375
20:23:15:657,1.6113,1.6663,11.5899,56.4771,-0.215,-0.3641,-0.1081,355.8438
20:23:15:674,1.5538,1.2353,11.98,56.4664,-0.2187,-0.4532,-0.2022,356.2812
20:23:15:693,1.2449,0.8859,11.5564,56.1242,-0.2205,-0.4178,-0.2352,356.3281
20:23:15:713,1.427,0.8453,11.1829,56.0055,-0.2902,-0.43,-0.1692,356.8906
20:23:15:735,2.1236,0.9912,11.391,55.717,-0.4563,-0.5595,-0.0684,356.9531
20:23:15:757,2.8585,0.9912,11.755,55.3202,-0.675,-0.7031,-0.033,356.8906
20:23:15:774,3.2656,0.5722,11.5564,54.8758,-0.8582,-0.788,-0.0782,356.875
20:23:15:795,3.0595,0.3855,11.9848,54.3675,-0.9572,-0.8515,-0.1613,356.625
20:23:15:813,2.6599,0.6416,13.1892,54.1552,-0.8937,-0.7972,-0.2138,356.75
20:23:15:834,2.7867,-0.0191,13.2251,53.5636,-0.5571,-0.5534,-0.2431,356.75
20:23:15:855,2.3821,-0.6655,11.7933,53.2899,-0.0415,-0.1765,-0.2816,357.0156
20:23:15:875,1.6089,-0.6559,9.7558,52.7935,0.4129,0.0757,-0.2492,357.0156
20:23:15:895,1.4486,-0.1771,8.5493,52.5495,0.6396,0.0672,-0.1118,357
20:23:15:913,1.7955,0.4573,8.0752,52.2998,0.6524,0.0049,0.0098,357
20:23:15:935,1.951,0.9003,7.6205,52.2467,0.5174,0.0641,-0.0006,357.1875
20:23:15:953,1.6113,1.13,7.302,52.3318,0.2761,0.1802,-0.1191,357.1875
20:23:15:975,1.0893,1.2042,7.4623,52.0547,0.0043,0.2498,-0.2437,357.75
20:23:15:994,0.7277,1.0822,7.6612,51.7758,-0.1875,0.2865,-0.3115,357.75
20:23:16:013,0.51,1.0008,7.9771,51.7051,-0.2596,0.2847,-0.3323,358.0625
20:23:16:034,0.4501,1.2018,8.2143,51.7182,-0.2303,0.2816,-0.3097,358.0938
20:23:16:055,0.8115,1.6543,8.5277,51.5101,-0.1503,0.2987,-0.2596,358.3125
20:23:16:077,1.3406,2.0542,8.5301,51.1567,-0.0702,0.3665,-0.259,358.3438
20:23:16:098,1.6328,2.3509,7.8191,50.7366,-0.0348,0.452,-0.3494,358.8281
20:23:16:114,1.5251,2.3438,7.9053,50.4667,-0.0727,0.4594,-0.4948,358.875
20:23:16:134,1.5179,2.2241,8.5708,50.2283,-0.2718,0.2107,-0.7489,359.4531
20:23:16:157,1.2592,1.9367,9.7152,50.0932,-0.3873,0.1454,-0.8564,359.5
20:23:16:174,0.6583,1.6854,10.3857,49.6132,-0.4667,0.2859,-0.8967,359.8594
20:23:16:194,-0.2898,1.5323,10.2778,49.3191,-0.4746,0.5211,-0.813,359.8906
20:23:16:214,-1.2449,1.5203,10.1557,48.916,-0.4245,0.6072,-0.5834,359.875
20:23:16:235,-1.4127,1.7166,10.5796,48.6125,-0.3134,0.4215,-0.2095,359.875
20:23:16:256,-0.486,2.0925,11.8125,48.2097,-0.1063,0.036,0.1875,0.1875
20:23:16:276,0.4932,2.5666,12.4421,47.7247,0.1765,-0.1771,0.4349,0.2188
20:23:16:295,1.0032,3.1101,11.8531,47.2379,0.3952,-0.1472,0.4832,0.875
20:23:16:313,1.4509,3.2297,11.281,46.5639,0.4117,-0.1515,0.3793,1.4375
20:23:16:335,1.4462,2.916,12.0518,46.0767,0.2236,-0.4019,0.1527,1.4375
20:23:16:355,1.0869,2.5738,13.984,45.7599,-0.0599,-0.7397,-0.0837,2.0469
20:23:16:375,0.8596,1.5754,15.8656,45.5989,-0.2162,-0.8857,-0.2425,2.0469
20:23:16:394,0.3903,-0.146,15.9183,45.2769,-0.0947,-0.6353,-0.2957,3.2031
20:23:16:413,-0.3209,-1.3358,14.1754,45.121,0.2511,-0.0629,-0.1417,3.2031
20:23:16:434,-0.754,-1.2114,11.4174,44.7435,0.6463,0.554,0.2474,4.9062
20:23:16:456,-0.5483,-0.7349,8.3291,44.4807,0.9541,0.9205,0.73,4.9062
20:23:16:477,-0.1053,0.364,6.294,44.4904,1.135,0.752,1.1038,6.6875
20:23:16:495,0.1077,1.9992,5.3892,44.369,1.2602,0.0782,1.1759,6.6875
20:23:16:513,0.498,3.1507,5.5472,44.1147,1.27,-0.8332,0.9218,7.4844
20:23:16:534,1.2784,2.8561,6.6867,43.9142,1.0354,-1.4741,0.4948,7.4844
20:23:16:556,1.628,1.6735,8.4488,43.7237,0.5345,-1.4716,0.0538,6.875
20:23:16:576,1.427,0.7038,9.8423,43.4057,0.0018,-0.959,-0.2407,6.8125
20:23:16:595,-0.5746,-0.1484,10.4791,43.3515,-0.4484,0.2926,-0.2847,6.0156
20:23:16:614,-0.8402,0.079,9.7582,42.9869,-0.2816,0.6249,-0.0324,5.9375
20:23:16:640,-0.7469,0.3592,8.4344,42.8109,0.0147,0.7006,0.2254,5.9375
20:23:16:654,-0.4167,0.8453,7.2254,42.3899,0.2388,0.5986,0.4374,5.9375
20:23:16:673,0.012,1.5514,6.3682,41.7757,0.2963,0.4306,0.5711,6.5469
20:23:16:693,0.3257,2.2959,6.2964,41.4273,0.171,0.2676,0.5663,6.6094
20:23:16:713,0.5124,2.7676,6.9763,41.1861,-0.0715,0.1668,0.4343,6.5
20:23:16:735,0.3616,2.6073,7.8311,40.9741,-0.2981,0.1484,0.237,6.4844
20:23:16:755,0.1914,2.2983,9.0066,40.6522,-0.405,0.1197,0.0874,4.625
20:23:16:827,0.2632,2.5977,10.1605,40.4748,-0.3201,0.0367,0.0513,4.4531
20:23:16:828,0.1699,3.0236,10.436,40.14,-0.0922,-0.0525,0.0354,2.5156
20:23:16:828,0.2489,3.4211,10.9385,39.8228,0.1008,-0.2107,-0.0134,2.1406
20:23:16:840,0.5554,3.4666,11.8531,39.8247,0.204,-0.3934,-0.1112,2.1406
20:23:16:854,0.6464,2.9088,11.9728,39.5092,0.2602,-0.4673,-0.2285,2.9688
20:23:16:875,0.5052,2.1428,11.7981,39.2219,0.171,-0.471,-0.2877,2.9688
20:23:16:894,0.5052,1.8218,12.533,38.671,-0.0996,-0.4612,-0.2114,3.2031
20:23:16:913,0.8234,1.7524,14.0797,38.3173,-0.3708,-0.3928,-0.0458,3.2031
20:23:16:934,1.2544,1.7022,15.4202,38.0708,-0.4276,-0.2633,0.113,2.3125
20:23:16:957,1.6448,1.4079,15.9087,37.8334,-0.212,-0.1399,0.2285,2.3125
20:23:16:974,2.1691,0.8835,15.7173,37.8108,0.168,-0.0098,0.3231,0.9844
20:23:16:994,2.1763,0.3497,14.228,37.584,0.554,0.306,0.4239,0.9844
20:23:17:013,1.9992,0.0933,11.712,37.1744,0.8515,0.6927,0.5827,0.1875
20:23:17:035,2.0734,0.0909,9.4256,36.8415,0.9706,0.9028,0.7684,0.1875
20:23:17:054,2.339,0.4454,7.8311,36.9097,0.8717,0.8833,0.9212,0
20:23:17:075,2.5738,1.0463,7.2087,36.6442,0.5815,0.6915,1,359.9844
20:23:17:095,3.2728,1.5802,7.8861,36.4253,0.2199,0.4099,0.9731,359.9844
20:23:17:113,3.8833,1.9534,8.8463,36.2484,-0.0348,0.1924,0.7972,0
20:23:17:135,2.9877,2.0207,8.5325,35.9299,-0.0867,0.2223,0.1258,0.4375
20:23:17:156,1.7118,1.6759,7.3714,35.6485,-0.0232,0.336,-0.1723,0.4844
20:23:17:175,0.5171,1.2616,6.1217,35.647,0.0104,0.4001,-0.3176,1.1562
20:23:17:193,-0.1125,1.1109,5.4897,35.6496,-0.0031,0.3384,-0.2963,1.1562
20:23:17:214,-0.0287,1.2616,5.5161,35.0963,-0.0373,0.1851,-0.1778,1.1719
20:23:17:237,0.498,1.6065,6.0212,35.0981,-0.0751,0.025,-0.0727,1.1719
20:23:17:253,1.0822,2.0088,6.6102,34.7124,-0.1167,-0.0776,-0.0446,0.6406
20:23:17:273,1.5921,2.4682,7.4121,34.3469,-0.1607,-0.1313,-0.1014,0.5938
20:23:17:294,2.2146,2.9495,8.3818,34.2534,-0.1796,-0.1484,-0.2254,359.4688
20:23:17:313,3.2297,3.3517,9.7128,34.2256,-0.1497,-0.149,-0.4197,357.25
20:23:17:333,3.4283,3.8617,11.0919,34.0691,-0.0452,-0.1662,-0.6744,357.25
20:23:17:360,2.4921,4.0412,11.8244,33.7284,0.1613,-0.2052,-0.8943,354.9219
20:23:17:375,1.5945,3.6389,12.2435,33.903,0.4545,-0.3317,-0.967,354.9219
20:23:17:393,0.7588,3.2393,11.7359,33.8197,0.7654,-0.3525,-0.8552,353.4375
20:23:17:414,0.1053,3.3422,10.6777,33.9301,0.9535,-0.2333,-0.5992,353.4375
20:23:17:438,-0.2584,3.7493,9.8806,33.9121,0.9774,-0.1161,-0.3036,353.375
20:23:17:453,-0.3233,4.1034,9.4113,33.7337,0.8876,-0.0293,-0.08,353.375
20:23:17:475,-0.309,4.3454,8.7458,33.5737,0.6854,0.1045,0.0305,353.875
20:23:17:494,-0.8282,4.6445,7.9962,33.7008,0.325,0.2559,0.0312,353.9219
20:23:17:513,-1.6711,4.8051,8.5253,33.9558,-0.1435,0.2437,-0.0177,354.1719
20:23:17:534,-1.8194,4.264,10.1151,34.0549,-0.5284,0.0892,-0.033,354.1719
20:23:17:554,-1.5849,3.4427,11.3192,33.8663,-0.6787,-0.047,-0.0037,354.3281
20:23:17:575,-1.2664,2.7604,11.7885,33.9742,-0.6554,-0.2083,0.0788,354.3594
20:23:17:594,-0.687,2.2528,13.3831,34.2303,-0.5827,-0.5455,0.2181,355.0312
20:23:17:613,0.0694,1.5945,14.8747,34.3447,-0.3604,-0.6903,0.3677,355.0938
20:23:17:640,-0.2154,0.7804,13.8284,34.3546,0.0299,-0.3543,0.4966,356.7188
20:23:17:656,-0.6105,0.4286,11.1709,34.1193,0.6096,0.587,0.9792,356.875
20:23:17:676,-0.5387,0.6918,8.9587,33.7743,0.6518,0.4581,1.1594,358.8438
20:23:17:697,0.1029,1.5538,8.08,33.5613,0.5156,0.2602,1.1991,359.0312
20:23:17:714,1.4892,2.8513,7.879,33.6765,0.2853,0.088,1.0488,0.0781
20:23:17:733,1.4414,2.703,7.8263,33.7401,0.0745,-0.0281,0.7544,0.1719
20:23:17:756,1.1204,2.0303,7.2709,33.6323,-0.0855,-0.0507,0.4679,0.2656
20:23:17:774,0.8306,1.64,7.3283,33.817,-0.2541,-0.0244,0.3018,0.2812
20:23:17:793,0.431,1.8147,8.5469,33.5668,-0.4099,0.0593,0.2559,0.1875
20:23:17:814,0.5961,1.6663,9.4424,33.8188,-0.3873,0.2254,0.2474,0.1562
20:23:17:838,0.3736,1.3406,8.4751,34.0653,-0.2223,0.5699,0.2333,0.1562
20:23:17:855,-0.0359,1.4821,6.9045,34.1194,-0.1381,0.8802,0.2926,359.9219
20:23:17:876,0.0407,1.9777,6.1887,34.0272,-0.1985,0.9792,0.4062,359.9219
20:23:17:896,0.0909,2.6767,6.1146,33.6701,-0.3244,0.9083,0.463,359.1562
20:23:17:912,0.3425,3.256,6.6461,33.4881,-0.4618,0.6988,0.4404,359.1562
20:23:17:935,0.7899,3.4235,7.5485,33.2907,-0.5699,0.3946,0.3286,357.3438
20:23:17:954,0.9147,3.2656,8.6809,33.3239,-0.6567,0.1063,0.1301,357.1562
20:23:17:976,0.754,3.2177,10.0983,33.1059,-0.7165,-0.1161,-0.0513,357.1406
20:23:17:995,0.7947,3.1914,11.5517,32.8523,-0.6945,-0.2804,-0.1796,354.4531
20:23:18:013,1.1515,2.9064,12.8851,32.6872,-0.5699,-0.4258,-0.3097,352.4531
20:23:18:035,1.3693,2.3605,13.3926,32.6551,-0.3799,-0.4966,-0.4581,352.4531
20:23:18:056,1.4151,1.7094,13.7085,32.678,-0.2358,-0.507,-0.5748,351.6094
20:23:18:076,1.209,1.1755,13.6869,32.7667,-0.1771,-0.394,-0.5986,351.5938
20:23:18:095,1.3167,0.9864,13.8165,32.7833,-0.1637,-0.1814,-0.5149,351.0312
20:23:18:113,1.3167,1.1276,13.194,32.8329,-0.0977,0.0232,-0.4148,350.9844
20:23:18:133,1.6639,1.3693,12.533,32.8071,-0.0629,0.0837,-0.306,350.1875
20:23:18:155,2.2911,1.209,12.1932,32.8705,-0.1277,0.1313,-0.2559,350.1094
20:23:18:177,1.9777,0.7397,12.1358,33.0347,-0.1435,0.2999,-0.3897,348.8906
20:23:18:195,0.5459,-0.3329,10.5748,32.9558,-0.0348,0.4007,-0.2382,348.7812
20:23:18:213,0.7516,-0.2922,9.8207,32.9753,0.149,0.4478,0.0495,347.7812
20:23:18:234,1.3669,0.1053,8.7147,32.9924,0.3995,0.4471,0.3079,347.6875
20:23:18:256,1.8482,0.9027,7.5676,32.9651,0.5589,0.339,0.4087,347.5312
20:23:18:274,2.4323,1.7955,7.0244,33.127,0.4716,0.1771,0.3262,347.5156
20:23:18:294,2.6432,2.1978,6.9547,33.1107,0.1588,0.1264,0.0367,348.0469
20:23:18:313,1.9753,1.8817,7.2613,33.2896,-0.2346,0.2046,-0.3922,349.3594
20:23:18:333,0.6224,0.9817,7.4743,33.3136,-0.5449,0.369,-0.7544,349.3594
20:23:18:354,-0.6224,0.3688,7.5102,33.4572,-0.6866,0.4887,-0.8613,350.6562
20:23:18:375,-1.1707,0.1412,7.6947,33.5705,-0.6426,0.4416,-0.7208,350.6562
20:23:18:395,-0.9553,0.5291,7.7234,33.6292,-0.4331,0.2682,-0.463,351.4375
20:23:18:413,-0.2728,1.1946,7.3403,33.6434,-0.1704,0.0745,-0.2486,351.4375
20:23:18:439,0.3951,1.7883,7.034,33.6991,-0.0452,-0.0825,-0.1881,351.4375
20:23:18:454,0.8019,2.2768,7.3187,33.8098,-0.1362,-0.1484,-0.2669,352.0469
20:23:18:476,0.7804,2.2863,8.1712,33.6689,-0.3378,-0.1173,-0.441,352.0469
20:23:18:496,0.3138,1.9199,8.8487,33.7119,-0.4917,-0.0293,-0.6121,352.625
20:23:18:513,-0.1484,1.5634,9.3419,33.7807,-0.5595,0.0226,-0.6799,352.1562
20:23:18:536,-0.4406,1.4533,10.0074,33.8853,-0.6072,0.0672,-0.6396,352.1562
20:23:18:556,-0.7158,1.6328,10.7662,33.8185,-0.6408,0.1716,-0.5357,351.3438
20:23:18:577,-0.8979,1.8577,11.3288,33.7133,-0.6469,0.3488,-0.4245,351.3438
20:23:18:595,-1.2401,2.0255,11.2068,33.6606,-0.7446,0.6793,-0.3635,351.6406
20:23:18:613,-2.1021,2.0231,11.7383,33.4666,-1.0604,1.05,-0.369,351.6719
20:23:18:634,-2.7197,1.3884,13.7037,33.4817,-1.3121,1.1728,-0.3415,353.0938
20:23:18:653,-2.6216,0.3377,14.9321,33.1678,-1.1166,1.0653,-0.1857,353.2344
20:23:18:675,-3.4211,0.1029,12.3416,32.8547,0.0379,0.7721,0.3842,354.25
20:23:18:694,-3.5192,1.0175,10.9193,32.6813,0.4514,0.3873,0.6304,354.3594
20:23:18:713,-2.9375,1.5491,10.2634,32.508,0.5809,-0.0874,0.7275,354.7812
20:23:18:734,-1.9729,1.1157,11.0369,32.4017,0.4581,-0.5247,0.6646,354.8281
20:23:18:753,-1.6184,0.3138,12.2578,32.6334,0.2749,-0.7269,0.5369,355.5156
20:23:18:774,-2.15,-0.3855,12.9568,32.676,0.2199,-0.6072,0.485,355.5938
20:23:18:793,-2.6719,-0.9051,11.8484,32.6774,0.3378,-0.1839,0.6664,356.7969
20:23:18:813,-2.5232,-0.6679,10.0265,32.8153,0.529,0.1588,1.0488,357.9688
20:23:18:836,-1.8099,0.0766,8.9922,33.0029,0.6951,0.1723,1.4197,357.9688
20:23:18:876,-0.4813,1.1827,8.3746,33.101,0.8033,0.0061,1.6219,358.7344
20:23:18:876,0.8258,2.2839,7.8933,33.1639,0.7996,-0.2419,1.4997,358.7344
20:23:18:894,1.4988,2.8274,8.3674,33.3905,0.5742,-0.4704,1.0433,359.125
20:23:18:913,1.2544,2.1739,9.253,33.0234,0.223,-0.4361,0.4386,359.125
20:23:18:937,0.2752,0.7277,9.4448,33.1585,-0.0941,-0.1478,-0.0996,359.125
20:23:18:953,-0.9075,-0.5004,9.1956,33.3192,-0.4062,0.306,-0.4215,358.9531
20:23:18:974,-2.1117,-1.3765,9.2988,33.5608,-0.7978,0.9279,-0.518,357.8906
20:23:18:993,-3.1771,-1.9056,9.0784,33.7193,-1.1117,1.5913,-0.3854,357.8906
20:23:19:013,-3.766,-1.9729,8.4392,33.6836,-1.2425,2.0256,-0.0415,356.5469
20:23:19:036,-3.4929,-1.4964,7.9938,33.5164,-1.1747,2.1307,0.4148,356.5469
20:23:19:053,-2.8561,-0.9123,7.7689,33.4636,-0.8827,1.9438,0.8106,355.5625
20:23:19:074,-2.2241,0.0766,7.3403,33.4513,-0.4392,1.609,1.0659,355.5625
20:23:19:095,-1.7477,1.3382,6.682,33.1864,-0.0098,1.1258,1.1062,353.9531
20:23:19:113,-1.4677,2.3677,6.2701,32.7493,0.1961,0.562,0.9248,353.7969
20:23:19:136,-1.2808,2.7748,7.1991,32.581,0.1155,0.0678,0.5815,350.9531
20:23:19:155,-1.7189,2.1835,8.3985,32.3546,-0.0654,-0.1973,0.1552,350.6562
20:23:19:175,-2.6264,0.4047,10.5652,32.1193,-0.3799,-0.3219,-0.3005,348.3438
20:23:19:195,-2.2409,-0.0766,12.588,32.3482,-0.4068,-0.372,-0.3457,348.1094
20:23:19:213,-1.9152,-0.6105,13.4189,32.3302,-0.2217,-0.3128,-0.394,347.8125
20:23:19:236,-2.2792,-0.941,12.6362,32.3894,0.047,-0.2431,-0.4172,347.7969
20:23:19:253,-2.3868,-0.8043,11.6761,32.6177,0.19,-0.3097,-0.3195,348.4688
20:23:19:273,-1.6926,-0.4238,11.5517,32.9583,0.1741,-0.5082,-0.1765,348.5312
20:23:19:294,-0.7445,-0.2536,11.9345,32.923,0.1203,-0.7184,-0.1716,348.3594
20:23:19:313,-0.4023,-0.4789,12.5976,33.0814,0.1179,-0.9169,-0.3317,346.5312
20:23:19:336,-1.0702,-0.929,13.352,33.3134,0.1961,-1.014,-0.5388,346.5312
20:23:19:353,-1.6878,-1.6783,12.6048,33.3253,0.3848,-0.8063,-0.5974,343.7031
20:23:19:374,-1.6496,-1.9343,10.6585,33.5789,0.6493,-0.5492,-0.419,343.7031
20:23:19:393,-1.2114,-1.3836,9.0377,33.8092,0.8656,-0.5534,-0.1503,343.6875
20:23:19:413,-0.2898,-0.309,8.3435,34.0039,0.9346,-0.7526,0.025,342.0625
20:23:19:435,0.6153,0.6081,8.633,34.3467,0.8509,-0.9603,-0.0312,342.0625
20:23:19:454,0.984,0.7732,9.1358,34.7171,0.6835,-0.9835,-0.3146,342.0156
20:23:19:474,0.5004,0.498,9.1382,34.9769,0.5235,-0.8094,-0.6762,342.0156
20:23:19:494,-0.4167,0.2034,8.7314,35.2296,0.4074,-0.6102,-0.9352,342.5938
20:23:19:513,-0.9601,0.0909,8.298,35.6244,0.3213,-0.4673,-0.9798,343.4688
20:23:19:536,-1.0463,0.297,7.9412,35.6917,0.2761,-0.3476,-0.8668,343.4688
20:23:19:554,-0.9338,0.7325,7.5389,35.8687,0.2785,-0.2639,-0.7324,344.1406
20:23:19:574,-0.7469,1.3741,7.1369,35.9867,0.3054,-0.2657,-0.6383,344.1406
20:23:19:594,-0.268,2.0782,7.1512,35.9387,0.3305,-0.4062,-0.6151,344.8281
20:23:19:613,0.0837,2.5594,7.6971,36.3072,0.3366,-0.5803,-0.7086,344.8281
20:23:19:637,-0.2417,2.5762,8.3913,36.5693,0.3091,-0.6677,-0.8631,346.1562
20:23:19:654,-0.577,2.3605,9.0664,36.8327,0.2761,-0.6878,-0.9334,346.2969
20:23:19:674,-0.7421,1.9681,9.4687,36.7222,0.2187,-0.6206,-0.915,347.1875
20:23:19:695,-0.376,2.6073,10.6442,36.9683,0.022,-0.3409,-0.6469,347.2656
20:23:19:714,-0.6176,2.5379,10.7877,37.4059,-0.0446,-0.1295,-0.5907,347.6719
20:23:19:736,-1.0798,2.715,11.1757,37.7389,-0.1326,0.0513,-0.5211,347.7031
20:23:19:753,-1.2138,2.6264,11.3312,38.1617,-0.2022,0.2614,-0.3989,349
20:23:19:773,-1.3406,2.473,11.9991,38.1688,-0.2969,0.441,-0.2944,349.125
20:23:19:793,-1.5491,2.4419,12.2794,38.4552,-0.3647,0.6481,-0.1558,351.2344
20:23:19:813,-1.3478,2.6527,11.9393,38.552,-0.317,0.7892,0.1124,353.1719
20:23:19:835,-1.1396,2.6121,11.4509,38.6588,-0.1826,0.7495,0.3409,353.1719
20:23:19:853,-1.4246,2.5762,11.0991,38.6787,-0.0483,0.6157,0.3415,354.875
20:23:19:873,-1.6615,2.2816,10.7949,38.7826,0.0012,0.3964,0.2285,354.875
20:23:19:893,-1.4462,1.6759,11.0536,38.6713,-0.0446,0.0409,0.1289,354.8906
20:23:19:913,-1.3956,0.8043,12.7558,38.5478,-0.1662,-0.4007,-0.0189,356.8125
20:23:19:935,-1.8649,-0.2058,14.2232,38.5144,-0.2175,-0.5479,-0.1283,356.8281
20:23:19:953,-2.691,-1.0869,13.273,38.3944,-0.0727,-0.1435,-0.011,359.0312
20:23:19:975,-3.1795,-1.5634,10.2275,38.4591,0.1906,0.518,0.3726,359.0469
20:23:19:993,-2.9112,-1.3143,7.4934,38.5342,0.4019,0.8301,0.8411,0.7344
20:23:20:013,-2.205,-0.2536,6.7298,38.5538,0.4777,0.5974,1.1655,1.9531
20:23:20:041,-1.343,0.8979,7.2422,38.4655,0.449,0.1277,1.237,1.9531
20:23:20:053,-0.5052,1.4103,8.1425,38.4152,0.3665,-0.317,1.0458,2.6094
20:23:20:075,-0.0814,1.2927,8.9324,38.6378,0.2767,-0.5546,0.7074,2.6094
20:23:20:094,-0.2704,0.687,8.7864,38.6884,0.1851,-0.4649,0.3683,2.4531
20:23:20:113,-0.821,0.1388,8.176,38.9195,0.0702,-0.2358,0.1778,2.4531
20:23:20:138,-1.3334,-0.0957,7.8096,38.9564,-0.0684,-0.0739,0.1662,1.6406
20:23:20:154,-1.4127,0.1268,8.1975,39.3345,-0.1973,-0.0605,0.2877,1.5469
20:23:20:176,-0.9314,0.5865,8.4894,39.5072,-0.2456,0,0.4649,1.1562
20:23:20:196,-0.6416,1.0702,8.123,39.3995,-0.2083,0.171,0.5974,1.1094
20:23:20:214,-0.7708,1.5514,7.4432,39.5796,-0.1423,0.3317,0.6475,1.2812
20:23:20:237,-0.8907,1.9753,7.0149,39.5129,-0.1032,0.3573,0.6408,1.2969
20:23:20:256,-0.8501,2.7078,7.5485,39.6665,-0.1381,0.0788,0.5125,0.9219
20:23:20:274,-0.6105,2.8322,8.3722,39.5506,-0.1881,-0.1252,0.3971,0.8906
20:23:20:294,-0.5171,2.7532,9.4208,39.3847,-0.2468,-0.2877,0.2578,358.8906
20:23:20:313,-0.5387,2.5953,10.5389,39.1287,-0.306,-0.3402,0.1356,356.5312
20:23:20:337,-0.3329,2.2839,11.6856,39.1949,-0.3531,-0.3213,0.047,356.5312
20:23:20:354,-0.0407,1.6304,12.8037,39.275,-0.3714,-0.2877,-0.0574,356.3125
20:23:20:375,-0.0383,0.833,13.3472,39.2495,-0.3518,-0.1686,-0.1631,355.375
20:23:20:393,-0.3138,0.2034,12.9521,39.1779,-0.3054,0.0709,-0.1888,355.2969
20:23:20:413,-0.4597,0.067,12.1095,39.1437,-0.2798,0.2755,-0.091,354.9531
20:23:20:438,-0.0239,0.285,11.6282,38.8537,-0.3115,0.2847,0.088,354.9375
20:23:20:454,0.7086,0.6607,11.7742,38.8027,-0.3848,0.1527,0.1796,354.0781
20:23:20:476,1.628,0.8019,12.1143,38.9074,-0.4636,-0.0275,0.1264,354.0781
20:23:20:494,2.3318,0.5889,12.7176,38.6768,-0.5058,-0.2572,-0.0678,352.6094
20:23:20:513,1.9944,0.0694,13.3759,38.3876,-0.4777,-0.4294,-0.3891,351.1406
20:23:20:537,1.3478,-0.7732,12.6673,38.3319,-0.3311,-0.2926,-0.6396,351.1406
20:23:20:554,0.9745,-1.4964,10.7542,38.2309,-0.1124,0.0617,-0.6841,350.1094
20:23:20:575,0.6272,-1.5562,9.2868,38.0133,0.055,0.2504,-0.598,350.1094
20:23:20:595,0.62,-1.0175,8.6952,38.1083,0.1503,0.1808,-0.4575,349.6719
20:23:20:613,1.197,-0.4573,8.7769,38.3546,0.2297,-0.0092,-0.3683,349.6719
20:23:20:638,1.573,-0.0431,8.7912,38.4694,0.3152,-0.0751,-0.4062,349.6562
20:23:20:655,1.3525,0.268,8.3195,38.7545,0.3946,0.0709,-0.529,349.6562
20:23:20:676,0.7947,0.4884,7.6349,39.1487,0.4447,0.2413,-0.6689,349.9531
20:23:20:697,-0.0311,0.6846,6.9691,39.3876,0.4508,0.3372,-0.7776,349.9844
20:23:20:714,-0.778,0.565,5.4299,39.5237,0.4368,0.3671,-0.8057,349.8906
20:23:20:739,-0.984,1.0893,5.8415,39.93,0.0367,0.2126,-0.7904,349.4688
20:23:20:756,-0.9362,1.6567,6.9691,40.2226,-0.1399,-0.0086,-0.6915,349.4688
20:23:20:775,-0.5219,2.1428,8.1473,40.2465,-0.2059,-0.1435,-0.6286,349.8281
20:23:20:793,-0.3473,2.3653,9.0616,40.2513,-0.1564,-0.2908,-0.6921,349.8281
20:23:20:814,-0.1436,2.6145,10.0959,40.1119,0.014,-0.518,-0.8442,351.1562
20:23:20:837,-0.1842,2.3749,11.0943,40.2366,0.2517,-0.7691,-1.0482,351.1562
20:23:20:855,-0.5937,1.9582,11.7622,40.5475,0.4337,-0.8784,-1.2028,351.2812
20:23:20:875,-0.9123,1.7022,12.2483,40.6416,0.532,-0.8265,-1.1728,352.3438
20:23:20:940,-1.3167,1.7357,12.1717,40.6523,0.5198,-0.5327,-0.9505,352.4531
20:23:20:940,-1.6567,1.9295,11.5445,40.7491,0.4532,-0.1106,-0.6231,353.375
20:23:20:940,-1.6089,2.3629,11.1852,40.8978,0.3665,0.1765,-0.2804,353.375
20:23:20:958,-1.2712,2.7365,11.2259,41.1579,0.2431,0.3018,-0.0428,354.7656
20:23:20:976,-1.1827,2.9231,11.4269,41.2646,0.1319,0.3347,0.0293,354.7656
20:23:20:994,-1.2832,2.6647,11.482,41.3424,0.0825,0.3073,-0.0122,356.5469
20:23:21:013,-1.5538,2.0327,11.4939,41.0908,0.1075,0.2004,-0.1081,358.3125
20:23:21:039,-2.138,1.3334,11.3623,41.4244,0.1643,0.1069,-0.19,358.3125
20:23:21:054,-2.6432,0.8477,11.0034,41.4311,0.1735,0.0702,-0.1967,359.7344
20:23:21:076,-2.7987,0.5315,11.1829,41.2698,0.1014,-0.0281,-0.1008,359.7344
20:23:21:094,-2.4658,0.1005,11.7766,41.3762,0.0287,-0.1381,0.0709,1.4688
20:23:21:113,-1.9705,-0.2225,11.7215,41.3769,0.0568,-0.1136,0.2755,1.4688
20:23:21:137,-1.4916,-0.1005,10.9986,41.7402,0.1631,-0.0428,0.4514,3.8906
20:23:21:153,-0.9458,0.2536,10.3615,41.6108,0.2584,-0.0544,0.5369,4.1406
20:23:21:175,-0.4047,0.6176,10.1222,41.8343,0.2511,-0.1277,0.5052,6.4531
20:23:21:196,-0.297,0.941,10.0911,41.6613,0.1179,-0.1594,0.3964,6.6875
20:23:21:213,-0.3688,0.984,10.4647,41.6875,-0.0709,-0.1631,0.2798,7.6875
20:23:21:238,-0.5291,0.201,10.0887,41.8513,-0.1185,0.1326,0.1765,7.7812
20:23:21:256,-1.0032,0.1412,8.9539,41.9551,-0.0024,0.4025,0.223,7.7969
20:23:21:274,-1.1157,0.2776,7.7306,41.8064,0.0745,0.6005,0.3573,7.7969
20:23:21:293,-1.0391,0.5913,6.8853,41.6746,0.0739,0.6609,0.5308,7.8906
20:23:21:314,-1.1252,1.2042,6.7609,41.6927,0.0122,0.5852,0.6927,8.3125
20:23:21:338,-1.0104,1.8673,7.3187,41.695,-0.058,0.4563,0.8277,8.3125
20:23:21:355,-0.7421,2.2146,7.6397,41.5558,-0.0489,0.419,0.915,8.3594
20:23:21:375,-0.6703,2.3844,7.3594,41.4336,0.0501,0.463,0.9322,8.4219
20:23:21:393,-0.7612,2.636,6.9093,41.3373,0.1723,0.4545,0.8967,8.4219
20:23:21:413,-0.7445,3.0452,6.6891,41.2873,0.2486,0.3121,0.8301,7.6719
20:23:21:438,-0.4549,3.4594,7.1465,41.331,0.2297,0.0324,0.7342,7.6719
20:23:21:454,-0.0263,3.5719,8.3842,41.2618,0.1222,-0.2755,0.5889,6.6094
20:23:21:477,0.1244,3.4379,9.9404,41.1088,0.0379,-0.5217,0.3928,6.5938
20:23:21:495,0.4741,3.146,11.3815,40.9106,0.0556,-0.7239,0.1936,5.8906
20:23:21:513,0.9649,2.7293,12.8013,40.9267,0.1497,-0.8888,-0.0226,5.4375
20:23:21:536,1.264,2.1978,13.6199,40.7827,0.2957,-0.9377,-0.2773,5.4375
20:23:21:556,0.9505,1.2951,13.6295,41.0275,0.4245,-0.8558,-0.529,4.7031
20:23:21:575,0.2827,0.3449,12.6745,40.9089,0.4404,-0.5956,-0.6157,4.7031
20:23:21:594,-0.0981,0.0502,11.5971,40.8478,0.3128,-0.2981,-0.4471,3.2344
20:23:21:613,0.2512,0.5363,10.7997,40.86,0.069,-0.0867,-0.1319,3.2344
20:23:21:636,1.3717,1.2688,10.8619,41.0964,-0.2291,-0.0305,0.0959,1.2188
20:23:21:655,2.4156,1.7357,11.6856,41.222,-0.4917,-0.1093,0.0971,1.2188
20:23:21:676,2.272,1.4964,12.454,41.3331,-0.6261,-0.1802,-0.1063,359.3125
20:23:21:694,1.276,0.6631,12.32,41.5864,-0.551,-0.1417,-0.306,359.125
20:23:21:713,0.7301,-0.1484,11.2834,41.5139,-0.2718,-0.0861,-0.3042,357.5781
20:23:21:739,0.7493,-0.3688,10.0863,41.6224,0.3366,-0.2523,0.0544,357.4219
20:23:21:755,1.2425,0.1029,9.3371,41.5301,0.4471,-0.4294,0.146,356.5469
20:23:21:775,2.1643,0.8907,9.0688,41.4874,0.4007,-0.4856,0.0409,356.4531
20:23:21:793,2.5905,1.5514,8.3674,41.307,0.2352,-0.3225,-0.2346,356.5
20:23:21:814,1.5826,1.2975,7.4432,41.3876,0.0171,-0.0287,-0.529,356.5
20:23:21:837,0.5818,0.996,6.7035,41.5328,-0.1802,0.204,-0.7141,357.5938
20:23:21:854,-0.2369,0.862,5.9399,41.6682,-0.2987,0.2883,-0.7648,357.7031
20:23:21:874,-0.6631,1.0391,5.8176,41.6808,-0.3702,0.1729,-0.711,358.9531
20:23:21:894,-0.3664,1.4079,6.3419,41.8241,-0.3934,-0.0605,-0.6121,359.0781
20:23:21:913,0.1555,1.8721,7.1225,41.9518,-0.372,-0.2688,-0.5669,359.125
20:23:21:936,0.3808,2.2576,7.6875,42.1009,-0.3409,-0.369,-0.6053,359.1406
20:23:21:953,0.0311,2.4514,8.0871,42.5021,-0.3286,-0.4093,-0.6933,359.0781
20:23:21:974,-0.4167,2.4849,8.7553,42.6159,-0.3219,-0.4832,-0.7477,359.0781
20:23:21:995,-0.5339,2.5714,9.7678,42.5283,-0.2975,-0.5809,-0.7049,359.7031
20:23:22:013,-0.2584,2.77,10.9074,42.7701,-0.2676,-0.5876,-0.5974,359.8906
20:23:22:036,-0.0694,3.1005,11.9417,42.9201,-0.2321,-0.4569,-0.4899,359.8906
20:23:22:055,-0.3185,3.3924,12.7295,43.066,-0.171,-0.2443,-0.4013,359.875
20:23:22:076,-0.7325,3.3948,13.0406,43.0862,-0.0409,-0.0458,-0.2853,359.875
20:23:22:096,-0.8955,3.2991,12.964,43.172,0.1631,0.0702,-0.0965,0.7656
20:23:22:113,-0.5148,3.3159,12.8874,42.9728,0.3714,0.0922,0.1338,0.7656
20:23:22:134,-0.0766,3.5312,12.8013,42.8273,0.5314,0.1112,0.3079,2.2812
20:23:22:154,-0.0263,3.7995,11.98,42.7779,0.631,0.1765,0.3653,2.2812
20:23:22:176,-0.2058,3.6078,11.4245,42.4676,0.6237,0.1393,0.3011,3.5469
20:23:22:194,-0.754,2.9973,11.3982,42.1788,0.5418,0.022,0.1814,3.6719
20:23:22:213,-1.3478,2.2433,11.6115,42.1194,0.4496,-0.069,0.1014,4.8594
20:23:22:237,-1.6878,1.4127,12.0808,42.1076,0.3867,-0.1637,0.1136,4.9844
20:23:22:255,-1.4366,0.1196,11.8914,42.0531,0.4587,-0.1374,0.4728,6.4531
20:23:22:275,-0.8668,0.2058,11.068,42.1758,0.5571,-0.0446,0.6854,7.9844
20:23:22:293,-0.2752,0.7205,10.2969,42.287,0.6041,0.025,0.7886,7.9844
20:23:22:313,0.1723,1.2329,9.6912,42.3758,0.5308,0.0806,0.7642,8.125
20:23:22:339,0.1627,1.628,9.2028,42.2763,0.3262,0.157,0.6756,9.0625
20:23:22:354,0.1986,1.8721,9.5142,42.5228,0.077,0.1778,0.5846,9.1562
20:23:22:374,0.5052,1.7572,9.8157,42.271,-0.0489,0.1894,0.4978,9.5469
20:23:22:393,0.5219,1.4749,9.5213,42.4896,-0.0214,0.2889,0.4044,9.5781
20:23:22:414,0.1364,1.2592,8.7458,42.3918,0.066,0.4746,0.3384,9.1719
20:23:22:436,-0.1484,1.1324,7.6086,42.2322,0.1454,0.6567,0.3531,9.1406
20:23:22:456,-0.3138,1.2018,6.7442,42.0659,0.1765,0.7159,0.4416,8.4531
20:23:22:475,-0.3425,1.5921,6.6796,42.0022,0.179,0.6176,0.5705,8.4375
20:23:22:494,-0.1029,2.1667,7.0555,41.9898,0.2175,0.4893,0.6939,8.2031
20:23:22:513,0.0287,2.6838,6.871,41.9172,0.3164,0.4594,0.7428,7.8906
20:23:22:538,-0.1125,3.1244,6.2821,41.9879,0.4038,0.4423,0.7074,7.8906
20:23:22:554,-0.1077,3.5216,5.9351,41.7093,0.394,0.3317,0.6365,6.7188
20:23:22:576,-0.1436,3.8091,6.0547,41.7397,0.2291,0.1814,0.5327,6.7188
20:23:22:595,-0.1077,3.8976,7.168,41.8278,-0.0702,0.0134,0.4056,5.0469
20:23:22:620,0.2512,3.7708,9.2578,41.8017,-0.3518,-0.2126,0.2834,5.0469
20:23:22:639,0.8668,3.5073,11.6976,41.766,-0.4416,-0.4484,0.1704,3.6094
20:23:22:654,1.4629,3.0021,13.6247,41.4807,-0.3091,-0.551,0.0599,3.6094
20:23:22:676,1.3693,2.1882,13.9552,41.1836,-0.0379,-0.4447,-0.0269,2.625
20:23:22:695,0.9266,1.4868,12.6841,41.1689,0.2285,-0.2333,-0.0012,2.5469
20:23:22:713,0.874,1.6137,11.2092,41.2409,0.3073,-0.0611,0.1698,1.6875
20:23:22:736,1.4486,2.1619,10.2754,41.0787,0.1698,0.0348,0.3439,1.5938
20:23:22:754,2.2241,2.7748,9.9452,40.8939,-0.0819,0.0421,0.383,0.3906
20:23:22:777,3.3278,2.8035,12.1454,40.6755,-0.5931,-0.1545,-0.0269,0.2812
20:23:22:795,2.5857,1.9032,12.7846,40.4129,-0.6231,-0.0837,-0.3305,358.7188
20:23:22:813,1.4605,0.9673,12.2219,40.4922,-0.4759,0.0855,-0.4777,358.5625
20:23:22:839,0.8091,0.28,11.1637,40.548,-0.2627,0.1784,-0.405,357.1406
20:23:22:854,0.9027,0.28,10.2945,40.1564,-0.0672,0.124,-0.1747,357
20:23:22:874,1.6591,0.8163,9.7989,40.0128,0.0745,-0.0257,0.0367,356.0312
20:23:22:894,2.3366,1.3908,9.44,39.8509,0.1319,-0.1203,0.0715,355.9375
20:23:22:914,2.2983,1.7979,8.8893,39.8187,0.0867,-0.0464,-0.0733,355.5312
20:23:22:936,1.6208,1.6567,8.0297,39.7158,-0.0281,0.1301,-0.2987,355.5
20:23:23:008,0.6105,1.2736,7.3738,39.7891,-0.1753,0.2865,-0.474,355.625
20:23:23:008,-0.2106,1.0463,6.993,39.5861,-0.2969,0.3732,-0.4899,355.625
20:23:23:008,-0.3784,1.1659,6.8375,39.3771,-0.3219,0.3518,-0.3635,355.5156
20:23:23:013,-0.201,1.64,7.1728,39.4279,-0.2553,0.2254,-0.204,354.7188
20:23:23:036,0.1364,2.2648,7.4982,39.1824,-0.1313,0.1216,-0.0819,354.7188
20:23:23:054,0.5818,2.7508,7.381,39.3179,0.0128,0.0831,-0.0269,354.4531
20:23:23:075,0.7493,3.2034,7.1417,39.1766,0.0959,0.033,-0.0666,354.4531
20:23:23:095,0.766,3.5169,7.2637,39.0513,0.0745,-0.0556,-0.1582,355.2812
20:23:23:114,0.6631,3.5719,7.8,38.871,-0.0244,-0.1527,-0.2621,355.2812
20:23:23:138,0.6823,3.4881,8.8511,38.9692,-0.1399,-0.2449,-0.3341,355.8594
20:23:23:153,0.6727,3.4642,10.1342,38.8236,-0.2065,-0.2926,-0.3543,355.8594
20:23:23:177,0.5004,3.5647,11.2857,38.6867,-0.1839,-0.2566,-0.3384,355.7812
20:23:23:196,0.055,3.6823,12.1956,38.5921,-0.1038,-0.1246,-0.292,355.7812
20:23:23:213,-0.3688,3.5767,12.4301,38.4114,-0.0012,0.1319,-0.1716,356.1406
20:23:23:234,-0.285,3.5527,12.3392,38.154,0.1252,0.347,0.0507,356.1719
20:23:23:254,0.1723,3.7588,12.4493,38.2608,0.2724,0.405,0.2804,357
20:23:23:275,0.3329,4.1536,11.9704,38.0162,0.4771,0.3916,0.416,357.0938
20:23:23:295,-0.0431,4.2138,10.0552,37.8629,0.6762,0.0464,0.3225,357.5469
20:23:23:320,-0.0479,3.8402,10.1988,37.8379,0.5015,-0.2059,0.1784,357.5938
20:23:23:338,-0.0215,3.2752,11.257,37.9474,0.2266,-0.394,0.0195,357.6562
20:23:23:354,-0.2249,2.3844,12.4397,37.9725,-0.0024,-0.4728,-0.1332,357.6719
20:23:23:373,-0.7588,1.4581,13.1964,37.8107,-0.0593,-0.4465,-0.1973,357.9062
20:23:23:393,-1.3334,0.6894,13.194,37.7577,0.0788,-0.3378,-0.1264,357.9375
20:23:23:414,-1.5491,0.2898,12.1406,37.5667,0.3274,-0.1319,0.0831,358.5625
20:23:23:436,-1.3454,0.6488,10.7495,37.4324,0.5082,0.0812,0.339,358.625
20:23:23:453,-0.9697,1.3238,9.5524,37.3435,0.5272,0.2382,0.518,359.375
20:23:23:474,-0.5243,1.9606,8.6904,37.2771,0.3879,0.3641,0.5919,359.4531
20:23:23:495,0.0311,2.3892,8.5062,37.1711,0.1881,0.4245,0.5681,359.9531
20:23:23:513,0.3185,2.5184,8.377,37.027,0.0696,0.4471,0.4416,359.5156
20:23:23:537,0.1579,2.2935,7.8694,37.0392,0.0464,0.4765,0.2633,359.5156
20:23:23:554,-0.2489,1.8936,7.2398,37.1164,0.0415,0.4832,0.1234,358.5781
20:23:23:575,-0.7062,1.5921,6.9906,36.9444,0.0122,0.4514,0.0971,358.5781
20:23:23:594,-0.8429,1.5323,7.1082,36.9589,0.0214,0.3818,0.1906,358.1406
20:23:23:613,-0.7732,1.6591,6.9882,37.0642,0.1326,0.3005,0.3323,358.1406
20:23:23:637,-0.7899,2.0088,6.6126,36.9556,0.2859,0.2572,0.4606,358.4375
20:23:23:654,-0.7588,2.5427,5.8869,36.7334,0.3842,0.2614,0.5608,358.4375
20:23:23:676,-0.6105,3.2895,5.674,36.6713,0.3457,0.212,0.5956,358.9375
20:23:23:694,-0.2177,3.8785,6.1959,36.6532,0.1857,0.0935,0.5333,358.9375
20:23:23:713,-0.146,3.9718,7.18,36.4609,-0.0226,-0.044,0.3744,358.5781
20:23:23:735,-0.352,3.9909,9.1286,36.6259,-0.2028,-0.2254,0.2242,358.5469
20:23:23:754,-0.1914,3.9933,11.3097,36.5992,-0.2291,-0.3622,0.1668,357.3906
20:23:23:776,0.4214,3.548,12.3751,36.3622,-0.0727,-0.3836,0.1332,357.25
20:23:23:795,0.3879,3.1388,11.9943,36.3349,0.168,-0.2511,0.0397,356.1094
20:23:23:820,0.6799,2.959,11.6091,36.0853,0.1075,-0.1704,0.0874,356
20:23:23:836,0.8402,3.1316,11.3432,36.0693,-0.0348,-0.0733,0.1344,355.4219
20:23:23:854,1.0869,3.3254,11.3432,36.0006,-0.1967,0.0189,0.1637,355.375
20:23:23:873,1.7142,3.2991,11.4509,35.9474,-0.2944,0.0788,0.1784,354.9375
20:23:23:893,2.3342,3.1579,11.3001,35.8313,-0.3054,0.0928,0.1423,354.8906
20:23:23:914,2.5379,2.8657,11.3647,35.8991,-0.281,0.0336,0.0336,354.0156
20:23:23:936,2.3294,2.2816,11.3958,35.8415,-0.2114,-0.0067,-0.1002,353.9375
20:23:23:953,1.9008,1.6831,10.1964,35.7696,-0.0825,0.0586,-0.1796,352.75
20:23:23:975,1.7716,1.3932,8.7817,35.8801,-0.0214,0.0079,-0.1863,352.625
20:23:23:994,2.1835,1.3645,8.7984,35.6561,-0.1405,-0.3109,-0.1808,351.625
20:23:24:013,2.7245,1.4868,10.5652,35.4114,-0.3916,-0.6719,-0.2462,351.2812
20:23:24:036,2.6121,1.5467,12.3894,35.3717,-0.5882,-0.6817,-0.3897,351.2812
20:23:24:053,1.6759,1.1372,12.3559,35.3556,-0.5559,-0.2908,-0.5272,351.2188
20:23:24:074,0.3449,0.6464,10.2012,35.0014,-0.3244,0.1997,-0.5443,351.2188
20:23:24:096,-0.4932,0.7397,7.9795,34.9067,-0.0983,0.4838,-0.3897,351.1875
20:23:24:113,-0.6535,1.1659,6.4738,34.7074,0.0293,0.5443,-0.1417,351.1875
20:23:24:134,-0.419,1.8864,5.5615,34.5038,0.0922,0.4557,0.0696,350.8594
20:23:24:154,0.0263,2.782,5.4873,34.5289,0.0953,0.2669,0.1527,350.8594
20:23:24:176,0.3544,3.4738,6.0547,34.5104,0.0452,0.0983,0.0806,350.4375
20:23:24:194,0.3592,3.7804,6.5599,34.563,0.0079,-0.0006,-0.0635,350.4375
20:23:24:217,0.0455,3.9239,7.3068,34.3772,0.0312,-0.1442,-0.1881,350.4688
20:23:24:235,-0.0885,4.0938,8.056,34.403,0.1246,-0.303,-0.2187,350.4688
20:23:24:254,0.419,4.4554,8.5158,34.5338,0.2309,-0.394,-0.1796,350.8125
20:23:24:276,1.1731,5.0372,9.2701,34.6462,0.2303,-0.3922,-0.2028,350.8594
20:23:24:297,1.4749,5.5448,11.8101,34.8801,-0.0971,-0.0886,-0.5614,351.4219
20:23:24:321,0.4525,5.1855,12.7965,34.9497,-0.1753,0.1069,-0.7416,351.4844
20:23:24:336,-0.189,4.5368,13.3376,35.0286,-0.0635,0.1845,-0.7599,352.5156
20:23:24:355,-0.352,3.967,13.5218,35.0334,0.1845,0.2089,-0.5901,352.625
20:23:24:373,-0.3975,3.9598,13.2562,35.3019,0.452,0.2944,-0.3036,353.4219
20:23:24:393,-0.3664,4.1895,12.2937,35.4948,0.6787,0.4099,-0.022,353.5
20:23:24:414,-0.4741,4.3214,11.3671,35.445,0.81,0.4447,0.1332,353.4219
20:23:24:437,-0.7971,4.113,10.3591,35.494,0.832,0.4478,0.16,353.4062
20:23:24:453,-1.0582,3.4427,9.5812,35.3543,0.7336,0.4111,0.1216,353.125
20:23:24:474,-1.4342,2.6623,10.0983,35.3256,0.5504,0.2572,0.0971,353.0938
20:23:24:495,-1.8194,1.9056,10.6011,35.3683,0.4563,0.1454,0.1753,353.4062
20:23:24:518,-1.7883,1.3454,9.6529,35.2319,0.5369,0.1393,0.3561,354
20:23:24:535,-1.0798,1.3525,8.2143,34.9674,0.6231,0.0507,0.5412,354
20:23:24:554,0.0311,1.7189,7.6684,34.9734,0.5033,-0.1674,0.5876,354.75
20:23:24:576,0.7397,2.1069,8.1568,35.0082,0.1075,-0.3207,0.4539,354.75
20:23:24:594,0.6799,2.4586,9.2195,35.2191,-0.4453,-0.2114,0.2101,356.1562
20:23:24:613,0.2827,2.1523,10.8236,35.2981,-0.8747,0.0507,-0.0574,356.1562
20:23:24:635,-0.134,1.1444,11.0321,35.3841,-0.9047,0.3769,-0.2364,357.5781
20:23:24:655,-0.6416,0.4621,9.4854,35.4395,-0.6634,0.6866,-0.2352,357.5781
20:23:24:675,-0.8644,0.4478,7.7976,35.5514,-0.4282,0.8808,-0.044,357.9062
20:23:24:696,-0.6416,1.0487,6.7872,35.4855,-0.2297,0.8448,0.2004,357.9062
20:23:24:713,-0.1723,1.6854,6.4161,35.4244,-0.0086,0.609,0.3616,357.5469
20:23:24:735,-0.0622,2.3031,6.0117,35.4254,0.2034,0.3738,0.4135,357.5469
20:23:24:754,-0.2489,3.0835,5.904,35.1185,0.325,0.1613,0.4221,357.3125
20:23:24:775,-0.2827,3.9814,5.8944,35.0673,0.3781,-0.0428,0.4532,357.2812
20:23:24:794,-0.1627,4.721,6.1361,34.8643,0.3806,-0.2468,0.4392,356.7812
20:23:24:814,-0.0263,5.2478,6.9739,34.6425,0.0825,-0.4019,0.226,356.7344
20:23:24:836,0.0814,5.4491,7.9651,34.5631,-0.1778,-0.3237,0.0904,355.7344
20:23:24:854,0.2201,5.219,11.2355,34.8033,-0.3299,-0.2969,-0.0208,355.6406
20:23:24:874,0.3497,4.7521,12.3224,34.7459,-0.2895,-0.3121,-0.1167,355.0625
20:23:24:894,0.2441,4.3047,13.2538,34.4051,-0.1399,-0.3824,-0.1826,355.0156
20:23:24:913,0.4741,3.7134,13.7133,34.3903,0.0898,-0.4245,-0.1753,355.0469
20:23:24:934,0.3233,3.146,12.7606,34.4122,0.3628,-0.3451,-0.1319,355.0625
20:23:24:954,-0.0024,2.9495,11.3073,34.4181,0.532,-0.2413,-0.0507,354.9062
