Time,Acc_X,Acc_Y,Acc_Z,Meg,Gyr_X,Gyr_Y,Gyr_Z,Ore
15:20:11:611,-1.2114,3.3972,10.6872,70.0307,-0.1435,0.0953,0.1057,334.6094
15:20:11:702,-1.331,2.8801,8.6976,69.2349,-0.2321,0.0886,0.6463,249.4531
15:20:11:722,-0.9793,2.9375,9.2916,69.2692,-0.3079,0.0134,0.7336,249.4531
15:20:11:748,-0.7086,2.8872,9.938,69.0581,-0.4172,0.0092,0.7892,249.4531
15:20:11:764,-0.5698,2.9327,10.5748,69.0219,-0.4978,0.0538,0.8375,249.4531
15:20:11:782,-0.4836,3.0021,10.8332,68.9561,-0.4844,0.1246,0.8961,249.4531
15:20:11:798,-0.2058,3.1172,10.716,68.7939,-0.383,0.1924,0.9755,249.4531
15:20:11:819,0.1699,3.5097,10.1438,68.5327,-0.2541,0.2596,1.0543,249.4531
15:20:11:839,0.5052,3.9072,9.3754,68.5371,-0.1649,0.2926,1.0836,249.4531
15:20:11:856,0.7588,4.0579,8.9109,68.6878,-0.1411,0.2364,1.0372,249.4531
15:20:11:877,0.9434,4.0819,8.8654,68.296,-0.1539,0.1332,0.9541,249.4531
15:20:11:895,1.1013,4.168,8.9204,68.1511,-0.19,0.0568,0.8808,249.4531
15:20:11:914,1.3836,4.3286,9.2363,67.8522,-0.2443,0.0226,0.8161,249.4531
15:20:11:934,1.6759,4.3765,9.373,67.722,-0.2712,0.0745,0.7147,249.4531
15:20:11:953,1.6376,4.3023,9.119,67.6409,-0.2553,0.1686,0.5516,249.4531
15:20:11:971,1.3573,4.1967,8.7218,67.5766,-0.2211,0.2193,0.3848,249.4531
15:20:11:995,1.197,4.101,8.6091,67.3641,-0.193,0.1857,0.259,249.4531
15:20:12:010,1.1324,4.0675,8.8439,67.1338,-0.168,0.1014,0.1607,241.8594
15:20:12:031,1.0678,3.9072,8.985,67.081,-0.1252,0.0544,0.058,241.8594
15:20:12:049,0.7229,3.6775,8.8678,67.0449,-0.0806,0.0678,-0.0421,240.0469
15:20:12:068,0.3544,3.4307,8.8152,66.824,-0.0672,0.0635,-0.0843,239.875
15:20:12:086,0.1555,3.2536,8.9994,66.7576,-0.0764,0.0263,-0.0513,237.8594
15:20:12:108,0.0048,3.2967,9.3108,66.3927,-0.0922,0.0147,0.0263,237.6562
15:20:12:129,-0.1029,3.5312,9.5213,66.3874,-0.1051,0.0489,0.1148,235.375
15:20:12:148,-0.2225,3.6846,9.4567,66.1743,-0.1405,0.1362,0.1765,235.1406
15:20:12:166,-0.3377,3.8641,9.5166,65.9531,-0.2272,0.223,0.2126,233.0469
15:20:12:186,-0.4167,3.9933,9.8399,66.0269,-0.3268,0.2767,0.2376,232.8438
15:20:12:207,-0.3185,4.1154,10.261,65.9996,-0.3726,0.2926,0.2566,231.0938
15:20:12:229,-0.2058,4.1632,10.503,66.1434,-0.3396,0.2902,0.2401,230.9062
15:20:12:248,-0.352,4.0842,10.9146,65.9255,-0.2676,0.2169,0.1558,229.5469
15:20:12:269,-0.7851,3.8545,11.5588,66.0407,-0.1399,0.08,0.0647,229.4062
15:20:12:287,-1.3932,3.5647,11.7526,66.0093,0.0568,0.0281,0.0379,228.5781
15:20:12:306,-2.083,3.4235,11.4006,66.0739,0.2621,0.1002,0.0861,228.5625
15:20:12:330,-2.9758,3.6894,10.9146,66.1148,0.3726,0.3244,0.2052,228.2656
15:20:12:345,-3.402,4.2855,9.871,66.1183,0.3482,0.6347,0.4001,228.375
15:20:12:369,-2.6671,4.3334,8.2884,65.8978,0.1552,0.6939,0.5455,228.375
15:20:12:387,-1.8362,3.6341,8.2717,66.0051,-0.223,0.1069,0.4374,228.375
15:20:12:407,-1.1803,2.2624,10.5867,66.1931,-0.5834,-0.876,0.1228,228.375
15:20:12:429,-1.0152,0.9625,12.6024,66.0909,-0.6634,-1.4533,-0.1558,228
15:20:12:447,-1.9681,0.0981,12.8109,65.9039,-0.4575,-1.3678,-0.2657,228
15:20:12:468,-3.4379,-0.2656,12.1095,65.7525,-0.1112,-0.854,-0.11,227.3594
15:20:12:486,-4.0819,-0.1603,10.8308,65.7069,0.2761,-0.0819,0.2859,227.3594
15:20:12:506,-4.0507,0.7014,9.3156,65.6378,0.6102,0.7483,0.7306,226.625
15:20:12:529,-3.6703,1.7381,8.0895,65.8499,0.8014,1.4179,1.0543,226.625
15:20:12:547,-3.0212,2.6312,7.0173,65.5187,0.8411,1.7434,1.2156,226.3281
15:20:12:566,-2.4491,3.469,5.9423,65.4988,0.7434,1.5174,1.2217,226.2969
15:20:12:586,-1.5108,3.9311,5.8391,65.5344,0.4697,0.8338,1.113,226.1719
15:20:12:607,-0.4836,3.7205,6.8327,65.8321,0.0861,0.2022,0.8857,226.1719
15:20:12:631,-1.6902,2.5834,9.3873,65.8725,-0.2474,-0.1417,0.5424,225.4844
15:20:12:648,-2.6073,2.0638,9.7367,65.7516,-0.4001,-0.2468,0.2676,225.4219
15:20:12:709,-3.0787,1.8147,9.2892,65.518,-0.35,-0.1435,0.2297,224.2969
15:20:12:709,-3.0595,2.1835,8.5301,65.2922,-0.0104,0.4649,0.7526,224.1875
15:20:12:709,-2.624,3.0308,7.6516,65.4087,0.0855,0.7581,1.0586,224.4531
15:20:12:727,-2.3581,3.6775,6.9643,65.1573,0.0733,0.887,1.2241,224.4844
15:20:12:748,-2.1069,4.1919,6.8303,64.8644,-0.0189,0.824,1.2803,225.1406
15:20:12:769,-1.8745,4.5727,7.1058,64.2314,-0.1368,0.719,1.2492,225.2031
15:20:12:788,-1.8482,4.7354,7.4408,63.9756,-0.2462,0.667,1.1423,224.1719
15:20:12:807,-1.9848,4.7067,7.4527,63.8046,-0.3219,0.6628,1.0048,224.0625
15:20:12:832,-2.0686,4.5344,7.6062,63.4097,-0.3922,0.6035,0.8643,221.1562
15:20:12:847,-2.126,4.343,8.4224,63.329,-0.4697,0.419,0.7342,221.125
15:20:12:868,-1.8936,4.0507,9.5237,62.8144,-0.4985,0.1967,0.6493,218.2344
15:20:12:887,-1.4892,3.7205,10.4192,62.416,-0.4429,0.0483,0.584,216.625
15:20:12:906,-1.2616,3.6054,11.2116,62.3016,-0.325,-0.0214,0.5015,216.625
15:20:12:932,-1.2377,3.5097,11.4102,62.2346,-0.1906,0.0086,0.4313,216.0625
15:20:12:946,-1.1946,3.3398,11.1876,62.1226,-0.1118,0.0312,0.3989,216.0625
15:20:12:966,-0.8812,3.05,11.0513,61.8808,-0.1136,-0.0928,0.3799,214.625
15:20:12:987,-0.5052,2.6767,11.6521,61.839,-0.1796,-0.358,0.3329,214.625
15:20:13:006,-0.2728,2.3916,12.7846,61.3974,-0.2364,-0.6035,0.3054,211.7812
15:20:13:032,0.0191,2.3749,13.8978,61.3382,-0.1698,-0.6738,0.372,211.7812
15:20:13:048,0.3329,2.5666,13.6965,61.1557,0.0605,-0.4471,0.5113,208.9219
15:20:13:067,0.5961,2.849,11.8508,61.0699,0.3476,-0.0006,0.6475,208.6406
15:20:13:087,1.0032,2.9327,9.4735,60.8029,0.5039,0.248,0.6841,206.1562
15:20:13:107,1.4844,2.782,8.1664,60.6263,0.4508,0.0348,0.551,205.9062
15:20:13:133,0.6488,1.9944,9.9404,60.4727,0.1148,-0.7898,-0.0568,203.9844
15:20:13:147,0.1531,1.6902,10.424,60.6271,0.1093,-0.7825,-0.1161,203.7969
15:20:13:167,0.1842,1.7572,9.7463,60.7524,0.2211,-0.5333,-0.0049,202.3906
15:20:13:189,0.3927,2.1284,8.4775,60.8287,0.3256,-0.234,0.088,202.25
15:20:13:205,0.4095,2.4706,7.2757,61.0188,0.3115,0.0006,0.0751,201.2656
15:20:13:230,0.134,2.7197,6.5527,61.1922,0.1637,0.1387,0.0055,201.1562
15:20:13:246,-0.1914,2.8753,6.2486,61.5157,-0.0324,0.2187,-0.0586,200.3594
15:20:13:266,-0.5028,2.9279,6.2533,61.5861,-0.1845,0.2706,-0.0983,200.2812
15:20:13:287,-0.7421,3.0021,6.2988,61.8968,-0.2462,0.3354,-0.1148,199.7812
15:20:13:307,-1.0845,3.1842,6.1816,61.6585,-0.2327,0.4203,-0.0983,199.7344
15:20:13:333,-1.4486,3.4594,5.9734,61.43,-0.1875,0.4722,-0.0275,198.9688
15:20:13:347,-1.6998,3.8498,5.8439,61.4266,-0.1503,0.4496,0.0855,197.5469
15:20:13:368,-1.4868,4.2999,6.117,61.1673,-0.1582,0.3189,0.1845,197.5469
15:20:13:386,-1.1157,4.8314,6.8375,60.9041,-0.2254,0.1442,0.2169,196.8125
15:20:13:406,-0.9529,5.286,7.7545,60.6417,-0.3421,-0.0079,0.1539,196.8125
15:20:13:432,-0.687,5.3509,9.2219,60.6329,-0.4789,-0.2101,-0.0079,197.375
15:20:13:446,-0.7875,4.9606,10.8117,60.4519,-0.5699,-0.394,-0.2413,197.375
15:20:13:467,-1.1468,4.3525,12.4923,60.4461,-0.5687,-0.543,-0.452,197.5
15:20:13:546,-1.3597,3.687,13.7782,60.4898,-0.4233,-0.6176,-0.5437,197.5
15:20:13:546,-2.1021,3.1388,14.3216,60.3297,-0.1625,-0.5046,-0.5272,197.4062
15:20:13:547,-3.6607,2.782,13.8715,60.5198,0.1539,-0.1857,-0.3555,197.4062
15:20:13:547,-4.9415,3.0069,12.0784,60.4518,0.4331,0.3384,0.0525,197.4375
15:20:13:569,-4.6229,3.8713,9.3538,60.523,0.5119,0.7746,0.5919,197.4375
15:20:13:586,-3.6197,4.599,7.5942,60.3173,0.2266,0.7177,0.9163,197.4688
15:20:13:607,-2.636,4.2855,9.0281,60.4288,-0.3366,0.0904,0.7953,197.4688
15:20:13:629,-2.2026,2.7843,12.5593,60.3121,-0.6994,-0.6188,0.3714,197.2031
15:20:13:649,-4.7617,0.754,13.8739,60.2869,0.1045,-0.4154,0.0495,197.1719
15:20:13:703,-5.2047,0.833,11.1876,60.2814,0.7232,0.1032,0.4826,196.6406
15:20:13:703,-4.5488,1.6328,8.8415,60.2775,1.0006,0.4007,1.0024,196.5938
15:20:13:712,-3.7756,2.3414,7.599,60.2154,0.8931,0.5815,1.3011,196.4219
15:20:13:733,-3.0332,2.5881,6.7537,59.94,0.573,0.8271,1.3879,196.4062
15:20:13:746,-2.5307,2.6192,6.1289,59.9666,0.1961,1.0586,1.347,197.1875
15:20:13:766,-2.2193,2.6504,5.9614,59.7266,-0.1271,1.1105,1.2596,197.2656
15:20:13:787,-2.1428,2.8537,6.3179,59.6342,-0.3311,0.9853,1.1759,198.5
15:20:13:805,-2.2863,3.0715,7.022,59.1163,-0.4087,0.7904,1.1056,198.6094
15:20:13:831,-2.2026,3.038,7.3905,58.6163,-0.3464,0.6444,1.0635,198.9688
15:20:13:848,-2.0471,2.9471,7.2063,58.044,-0.1857,0.5724,1.0348,197.0938
15:20:13:868,-1.7189,3.0404,6.7896,57.5327,-0.047,0.5211,1.0079,197.0938
15:20:13:887,-1.2281,3.3852,6.6509,57.0616,-0.0391,0.4704,0.9749,195.8125
15:20:13:905,-0.8835,3.9861,7.2302,56.2963,-0.157,0.3781,0.9175,195.8125
15:20:13:927,-0.7277,4.3214,7.9819,55.6428,-0.2975,0.2895,0.8124,195.9375
15:20:13:948,-0.5411,4.2353,8.7242,54.9728,-0.4068,0.226,0.6328,195.9375
15:20:13:968,-0.577,4.0364,9.6075,54.4823,-0.4765,0.1258,0.3964,194.3125
15:20:13:986,-0.9027,3.9646,10.6968,54.1226,-0.4875,-0.0709,0.201,194.3125
15:20:14:006,-0.7947,3.778,11.9417,53.61,-0.4221,-0.3952,0.0861,191.1406
15:20:14:031,-0.0024,3.402,13.0741,53.3026,-0.3018,-0.6915,-0.0079,191.1406
15:20:14:047,0.8764,2.9518,13.8715,52.9857,-0.1991,-0.8106,-0.135,187.7656
15:20:14:067,1.1779,2.6073,14.5202,52.6235,-0.1735,-0.7318,-0.2663,187.7656
15:20:14:087,1.2664,2.3079,14.1108,52.4287,-0.1936,-0.4172,-0.3005,185.0312
15:20:14:106,1.3262,1.7716,12.7606,52.2826,-0.2437,-0.0904,-0.2633,184.7656
15:20:14:130,0.9218,0.3616,12.909,52.3531,-0.2517,-0.1888,-0.3066,182.3594
15:20:14:147,0.0933,0.2106,12.4229,52.194,0.0159,-0.099,-0.2022,182.125
15:20:14:168,-0.3018,0.7875,10.7566,52.4213,0.3903,0.1014,0.1197,179.9219
15:20:14:189,0.0096,1.7285,8.8511,52.3919,0.6677,0.1985,0.4893,179.6875
15:20:14:205,1.0582,2.5857,7.1225,52.5519,0.6939,0.1668,0.7141,177.7812
15:20:14:228,2.5403,3.2943,6.1528,52.5925,0.4416,0.0379,0.6591,177.5938
15:20:14:250,3.1101,3.5312,6.2294,52.2654,-0.0385,-0.1142,0.2541,176.4219
15:20:14:265,2.0566,2.9279,7.3762,52.4326,-0.5577,-0.2077,-0.3341,176.2969
15:20:14:287,0.5171,1.9223,8.3028,52.3494,-0.7898,-0.2095,-0.7666,176.0312
15:20:14:306,-0.6153,1.1898,8.2717,52.3868,-0.6231,-0.1246,-0.89,176
15:20:14:332,-1.1922,1.0893,7.6564,52.4104,-0.2413,0.0031,-0.7862,176.4062
15:20:14:347,-1.0367,1.7285,6.7657,52.3161,0.1295,0.0971,-0.573,177.2812
15:20:14:367,-0.6607,2.7508,6.2749,52.1882,0.3109,0.1203,-0.4111,177.2812
15:20:14:388,-0.256,3.5982,6.5695,52.3743,0.2785,0.0935,-0.3793,177.875
15:20:14:406,-0.1005,4.1656,6.8016,52.8513,0.1222,0.1607,-0.441,177.875
15:20:14:431,-0.4143,4.3669,7.1919,53.0588,-0.0983,0.1808,-0.584,178.4844
15:20:14:446,-0.8067,4.0196,8.5516,53.4758,-0.3128,0.0336,-0.7678,178.4844
15:20:14:467,-1.319,3.4929,9.7917,53.7488,-0.4203,-0.0782,-0.8888,177.8125
15:20:14:488,-2.0088,3.0909,10.6633,53.8295,-0.4258,-0.1258,-0.8937,177.8125
15:20:14:508,-2.6791,2.971,11.3264,54.1211,-0.3775,-0.1381,-0.7776,176.3281
15:20:14:532,-2.9447,3.0691,12.047,54.3505,-0.2889,-0.1387,-0.5333,176.3281
15:20:14:547,-2.4562,3.2369,12.5593,54.5522,-0.1417,-0.1246,-0.2077,176.4219
15:20:14:568,-1.7381,3.524,12.8683,54.4762,0.033,-0.0586,0.0605,176.4375
15:20:14:588,-1.5969,3.9287,12.6817,54.4194,0.1735,0.0672,0.179,178.0938
15:20:14:607,-2.0518,4.1417,12.0518,54.1909,0.2492,0.1985,0.1857,178.25
15:20:14:629,-2.9112,4.1369,11.0943,54.1393,0.2596,0.2816,0.1564,179.5938
15:20:14:649,-3.2249,3.9335,10.2538,54.0781,0.2138,0.2297,0.1497,179.7344
15:20:14:718,-2.0542,2.0303,12.1478,54.0862,0.0886,-0.4606,-0.0055,180.5156
15:20:14:719,-2.0949,1.13,13.2108,54.1456,0.2095,-0.62,-0.1252,180.5938
15:20:14:719,-3.146,0.6248,12.7965,54.3446,0.4429,-0.449,-0.1521,181.5625
15:20:14:727,-3.7086,0.3353,10.905,54.6263,0.6994,-0.1185,0.0574,181.6562
15:20:14:749,-3.0787,0.7253,8.8893,54.7272,0.8033,0.0819,0.4068,183.2656
15:20:14:768,-1.9681,1.494,7.9938,55.0059,0.6426,0.0953,0.6353,183.4375
15:20:14:787,-1.1827,2.0518,8.1688,55.1675,0.2798,0.0867,0.6573,185.0938
15:20:14:806,-0.7134,2.2624,8.7099,55.3087,-0.0959,0.1393,0.5742,185.2656
15:20:14:828,-0.553,2.0686,9.2148,55.4024,-0.2981,0.2285,0.4594,186.0312
15:20:14:847,-0.4908,1.884,8.985,55.3015,-0.2388,0.3372,0.3812,185.8594
15:20:14:867,-0.2584,1.7692,7.989,55.1173,-0.0189,0.4117,0.3476,185.8594
15:20:14:887,-0.309,1.8888,7.0603,54.8888,0.157,0.3402,0.3103,185.4375
15:20:14:907,-0.7756,2.2385,7.515,54.8024,0.1924,0.0886,0.2724,185.4375
15:20:14:932,-0.8453,2.4754,8.135,54.3609,0.2052,-0.036,0.3066,185.1562
15:20:14:948,-0.8764,2.8131,7.733,54.2988,0.2755,0.1026,0.3683,185.1562
15:20:14:969,-0.862,3.2584,6.7394,54.3843,0.3311,0.2847,0.3763,185.5156
15:20:14:987,-0.9027,3.6942,6.1289,54.4068,0.2957,0.3018,0.3341,185.5156
15:20:15:006,-0.9601,4.0101,6.3754,54.6477,0.168,0.1509,0.27,185.8125
15:20:15:032,-0.9218,3.8976,7.4312,54.6136,0.0348,-0.055,0.182,185.8125
15:20:15:047,-1.075,3.5886,8.3483,54.6867,-0.0147,-0.1588,0.0715,184.7188
15:20:15:069,-1.386,3.4546,8.6426,54.8943,-0.0049,-0.1203,0.0031,184.7188
15:20:15:086,-1.0869,3.548,8.8511,55.0742,-0.033,-0.0928,0.0275,183.4531
15:20:15:107,-0.4143,3.7158,9.2507,54.9705,-0.1442,-0.1307,0.0678,183.3438
15:20:15:133,0.0479,3.7732,10.0959,54.7125,-0.3091,-0.2199,0.0305,182.3438
15:20:15:148,-0.1842,3.6437,11.9752,54.5136,-0.449,-0.2938,-0.0696,182.25
15:20:15:169,0.4836,3.2728,11.8747,54.4005,-0.5094,-0.2572,-0.1564,181.4531
15:20:15:188,1.7596,2.4778,12.2483,54.309,-0.5583,-0.4062,-0.1997,181.375
15:20:15:206,2.782,1.8888,13.9026,54.2083,-0.6835,-0.6194,-0.3592,180.7969
15:20:15:233,2.7772,1.2042,14.9991,53.9085,-0.7098,-0.5217,-0.5553,180.75
15:20:15:247,1.7716,0.7229,14.1634,54.0894,-0.5266,-0.069,-0.617,179.9531
15:20:15:268,0.9864,0.8788,11.8531,54.0065,-0.2022,0.3152,-0.4386,179.875
15:20:15:286,1.2066,1.4222,10.1414,54.3087,0.1087,0.2553,-0.2175,179.2031
15:20:15:305,1.8577,1.8434,9.2868,54.7188,0.3176,-0.0379,-0.1741,179.125
15:20:15:328,2.2887,2.0351,8.5684,55.2959,0.3512,-0.1662,-0.292,178.9219
15:20:15:347,2.1667,2.0758,7.9675,55.7089,0.171,-0.113,-0.4636,178.9062
15:20:15:367,1.3071,1.9271,7.8622,56.2415,-0.1148,-0.0379,-0.6047,178.9062
15:20:15:386,0.4908,1.8769,8.176,56.7843,-0.2895,-0.0165,-0.6261,178.8594
15:20:15:407,0.1029,1.9753,8.0991,57.1251,-0.2449,0.0312,-0.551,178.8594
15:20:15:430,0.0861,2.2265,7.57,57.7862,-0.0611,0.0971,-0.474,179.1719
15:20:15:447,0.2058,2.5451,7.1225,58.238,0.1112,0.0928,-0.4716,179.1719
15:20:15:467,0.2536,2.8059,7.1393,58.4583,0.1997,-0.0012,-0.54,179.6562
15:20:15:486,0.5028,2.636,7.3211,58.648,0.2236,-0.0788,-0.6414,179.6562
15:20:15:507,0.3951,2.327,7.2015,59.2964,0.2022,-0.0562,-0.7544,180.8281
15:20:15:532,-0.0455,2.0925,7.1201,59.5959,0.1295,-0.0397,-0.8222,180.8281
15:20:15:548,-0.3784,1.9753,7.424,60.0762,0.0275,-0.0605,-0.8002,181.9219
15:20:15:610,-0.3329,2.0614,8.2334,60.5854,-0.0928,-0.0733,-0.7232,181.9219
15:20:15:611,-0.4358,2.3557,9.3419,60.8064,-0.2132,-0.0263,-0.6328,182.3438
15:20:15:611,-0.8835,2.8322,10.2419,61.3336,-0.2944,0.0751,-0.5198,182.3438
15:20:15:629,-1.1683,3.3206,10.7782,61.7947,-0.2895,0.1808,-0.3732,183.1562
15:20:15:649,-1.1396,3.7636,10.9651,62.2432,-0.2162,0.2358,-0.2346,183.25
15:20:15:714,-1.0152,4.0101,11.2714,62.4975,-0.1344,0.1778,-0.1619,184.4688
15:20:15:715,-1.6854,3.9981,12.0712,63.1825,-0.022,0.0904,-0.2114,184.5938
15:20:15:715,-2.5259,3.6293,11.8603,63.506,-0.0024,0.1527,-0.2492,185.5781
15:20:15:728,-3.1914,3.0909,10.9914,63.8024,-0.0195,0.2083,-0.2309,185.6719
15:20:15:751,-2.9542,2.1882,10.5867,64.3486,-0.0825,0.0794,-0.1637,186.6875
15:20:15:767,-1.9777,1.008,10.9289,64.3562,-0.1435,-0.1729,-0.1118,186.7969
15:20:15:785,-1.0056,-0.0526,11.6258,64.7023,-0.1411,-0.3525,-0.0916,188.2344
15:20:15:805,-1.1157,-0.5291,11.9345,64.8575,-0.0428,-0.3189,-0.0849,188.375
15:20:15:828,-1.5754,-0.419,10.57,65.2192,0.1582,-0.0318,0,190.0312
15:20:15:847,-1.4892,-0.0502,8.8223,65.2274,0.336,0.157,0.1258,191.5469
15:20:15:867,-1.2066,0.6176,7.57,65.7465,0.3213,0.1735,0.1417,191.5469
15:20:15:887,-1.3597,1.4028,6.8782,65.9468,0.0299,0.1582,0.0342,192.5938
15:20:15:905,-1.4988,1.8482,7.6923,66.1064,-0.4813,0.0098,-0.0916,192.5938
15:20:15:927,-1.5347,1.6328,9.6529,66.3683,-0.9835,-0.1271,-0.1478,192.9219
15:20:15:948,-1.7524,1.2592,11.257,66.19,-1.1954,-0.0745,-0.0935,192.9219
15:20:15:967,-2.138,1.2688,11.4054,66.1925,-1.0055,0.1209,0.0696,193.3125
15:20:15:987,-2.0662,1.5467,10.3735,66.0758,-0.5553,0.2584,0.3213,193.3125
15:20:16:006,-1.276,2.126,9.4519,65.8346,-0.088,0.2175,0.5742,193.7344
15:20:16:028,-0.4621,2.7867,9.0736,65.4558,0.2364,0.1173,0.7147,193.7812
15:20:16:049,-0.1507,3.3733,8.4655,65.5115,0.3958,0.1613,0.7275,194.0781
15:20:16:068,-0.1938,3.7062,7.6325,65.2338,0.4074,0.2755,0.6359,194.0781
15:20:16:087,-0.4167,3.7971,7.1824,65.0593,0.3109,0.3036,0.4642,194.375
15:20:16:107,-0.6511,3.6846,7.2446,65.1917,0.1857,0.2285,0.2511,194.375
15:20:16:131,-1.0415,3.3637,7.8215,65.0137,0.1008,0.0971,0.0299,194.2656
15:20:16:148,-1.4964,2.9614,8.6163,64.9116,0.0861,-0.0165,-0.1356,194.25
15:20:16:167,-1.7668,2.715,9.3538,65.2487,0.1344,-0.0959,-0.193,194.0469
15:20:16:186,-1.8817,2.6169,9.7989,65.4153,0.2077,-0.1741,-0.1826,194.0312
15:20:16:207,-0.6679,1.9199,10.8571,65.3755,0.2614,-0.5345,-0.1918,194.1719
15:20:16:232,0.0814,1.3549,11.6856,65.4766,0.2498,-0.6707,-0.2627,194.1875
15:20:16:247,0.3138,0.9817,11.9034,65.8179,0.2419,-0.5821,-0.2987,194.0312
15:20:16:267,0.2946,1.2401,11.0034,66.0458,0.204,-0.3176,-0.2114,194.0156
15:20:16:286,0.8091,1.9319,10.1462,66.6593,0.0476,-0.1723,-0.0574,193.0156
15:20:16:305,1.8386,2.327,10.3663,67.0115,-0.2352,-0.3018,-0.0336,192.9062
15:20:16:328,2.2193,1.8625,12.0541,67.038,-0.5644,-0.5437,-0.2486,191.4844
15:20:16:348,1.6424,0.9147,14.0868,67.199,-0.7367,-0.6451,-0.5033,191.3438
15:20:16:367,0.6009,0.2776,14.5083,67.1148,-0.5394,-0.4416,-0.5333,190.2344
15:20:16:386,-0.0263,0.4238,13.1868,67.1801,-0.066,-0.1533,-0.2963,189.7812
15:20:16:406,0.7229,1.0822,11.056,67.0438,0.383,-0.0275,0.0067,189.7812
15:20:16:427,1.9175,1.5491,9.0377,66.973,0.5119,-0.0935,0.077,190.1719
15:20:16:449,2.2481,1.7022,8.7912,66.5508,0.2132,-0.3518,-0.19,190.1719
15:20:16:468,1.3334,1.1683,9.5836,66.4385,-0.2847,-0.471,-0.5736,190.6719
15:20:16:487,0.0311,0.4214,10.1964,66.5178,-0.6231,-0.3647,-0.7636,190.6719
15:20:16:507,-0.7181,-0.067,10.1821,66.2768,-0.6151,-0.1429,-0.7049,191.3438
15:20:16:532,-1.0319,0.1531,9.2629,66.5973,-0.3305,0.1332,-0.4856,191.4062
15:20:16:546,-1.1779,0.7349,7.5846,66.9094,0.0165,0.3989,-0.2553,192.1406
15:20:16:567,-1.1755,1.252,6.2055,66.7901,0.2162,0.5021,-0.1112,192.1406
15:20:16:586,-0.8548,1.8147,6.0165,66.7735,0.223,0.4001,-0.0354,192.3125
15:20:16:606,-0.376,2.2433,6.4472,66.8969,0.1258,0.2834,-0.0348,192.3125
15:20:16:628,-0.2874,2.4969,7.0173,66.9645,0.0086,0.2169,-0.1252,193.1562
15:20:16:648,-0.4789,2.5666,7.9149,66.9477,-0.0623,0.1326,-0.2669,193.25
15:20:16:712,-0.5937,2.2887,8.741,67.2193,-0.0428,0.0831,-0.3879,194.125
15:20:16:713,-0.6081,2.0566,9.0784,67.1196,0.0324,0.1032,-0.4209,194.2031
15:20:16:714,-0.486,2.1763,9.4567,66.9601,0.0666,0.1069,-0.3573,194.2031
15:20:16:729,-0.0885,2.6432,11.2355,67.2252,0.0336,0.0629,-0.2608,194.1875
15:20:16:749,-0.4358,2.8346,11.8555,67.3446,0.0293,0.1808,-0.1564,195.0625
15:20:16:767,-0.9793,3.026,11.458,67.222,0.1545,0.3885,-0.0928,195.1406
15:20:16:786,-1.2401,3.3685,10.4264,67.1274,0.325,0.5614,0.0232,196.625
15:20:16:806,-1.3286,3.7181,9.4902,67.2282,0.4319,0.5681,0.1081,196.7656
15:20:16:826,-1.3286,4.0101,9.4208,67.2289,0.4184,0.3916,0.0996,197.4375
15:20:16:848,-1.695,3.8641,10.4216,67.3781,0.2975,0.1533,-0.0214,197.5781
15:20:16:868,-2.6647,3.2177,11.4293,67.262,0.1771,0.0672,-0.1497,197.5781
15:20:16:886,-3.7134,2.4706,11.4987,67.1562,0.1332,0.2022,-0.1258,197.7031
15:20:16:906,-4.0412,2.1117,10.4623,67.1526,0.1118,0.3946,0.1045,197.7031
15:20:16:927,-3.2871,1.896,9.6458,67.0373,-0.0428,0.3818,0.3909,198.375
15:20:16:949,-2.1308,1.3262,10.6083,66.8586,-0.3506,0.0641,0.551,198.375
15:20:16:967,-1.4868,1.0008,13.0525,66.2793,-0.5369,-0.3091,0.6121,199.1406
15:20:16:987,-1.4414,1.3095,13.7973,65.6606,-0.3763,-0.3054,0.6909,199.2188
15:20:17:007,-1.3932,1.829,12.0254,65.0391,0.0122,-0.1619,0.7672,199.2188
15:20:17:032,-0.4717,1.8529,10.3208,64.6984,0.3409,-0.3964,0.6921,199.7031
15:20:17:050,0.1196,1.3478,10.2826,64.2407,0.4123,-0.8582,0.3891,199.9219
15:20:17:067,0.1149,0.6416,10.9914,63.488,0.284,-1.0794,0.0593,199.9219
15:20:17:086,-0.1531,-0.0383,11.1541,63.1983,0.1802,-0.9114,-0.0788,199.6875
15:20:17:106,-0.3018,-0.4717,10.5269,62.8087,0.2046,-0.4386,-0.0202,199.6875
15:20:17:127,-0.2536,-0.3999,8.9109,62.5312,0.3048,0.1698,0.1576,199.5938
15:20:17:146,-0.4597,0.0359,6.8207,62.3842,0.3396,0.642,0.3225,199.5938
15:20:17:166,-0.9338,0.8139,6.4208,62.1888,0.2462,0.6121,0.4233,199.8594
15:20:17:187,-0.4095,1.3167,7.6062,61.8951,0.1967,0.2944,0.5498,199.8906
15:20:17:207,0.4741,1.829,7.8359,61.7299,0.3054,0.2963,0.653,199.2812
15:20:17:230,0.1842,3.3135,6.2653,61.7177,0.347,0.6823,0.5113,199.2344
15:20:17:251,-0.1651,3.7612,5.9542,61.4273,0.1478,0.6823,0.3964,198.0156
15:20:17:268,-0.3999,3.9407,6.294,61.1358,-0.0935,0.5663,0.2822,197.9062
15:20:17:287,-0.3975,3.9598,7.168,60.7172,-0.2694,0.3977,0.182,196.4688
15:20:17:306,-0.2632,3.8976,8.3626,60.3879,-0.3237,0.1851,0.0825,196.3281
15:20:17:326,-0.2728,3.7684,9.4926,60.1553,-0.2468,-0.0171,-0.0232,195.4688
15:20:17:349,-0.7804,3.7445,10.2634,59.8051,-0.08,-0.19,-0.0977,195.7188
15:20:17:366,-1.0199,3.5719,10.1533,59.4046,0.1228,-0.3335,-0.0898,195.7188
15:20:17:386,-0.7516,3.2871,9.7271,59.0322,0.2724,-0.4826,-0.0159,195.6875
15:20:17:406,-0.3425,2.8657,9.4256,58.884,0.2889,-0.6108,0.0476,195.6875
15:20:17:427,0.3855,2.5738,9.7989,58.8734,0.1625,-0.7361,0.0947,194.6875
15:20:17:449,1.4079,2.6647,10.7638,58.9356,-0.0446,-0.8088,0.1393,194.6875
15:20:17:467,2.4706,2.9375,11.8077,58.8458,-0.284,-0.8387,0.1106,193.2969
15:20:17:487,3.4666,2.6767,13.2993,58.6655,-0.5131,-0.934,-0.1075,193.2969
15:20:17:506,3.5384,1.6663,14.6423,58.7364,-0.6396,-0.9645,-0.5052,193.2812
15:20:17:527,2.5089,0.2536,15.181,58.8351,-0.595,-0.7898,-0.8931,191.875
15:20:17:549,1.0678,-0.9912,14.2567,58.9096,-0.3714,-0.358,-1.0213,190.8906
15:20:17:568,0.1507,-1.2903,12.32,58.7089,-0.0855,0.124,-0.7575,190.8906
15:20:17:587,0.553,-0.4693,10.4288,58.7596,0.1118,0.3604,-0.2834,190.4219
15:20:17:606,1.2329,0.7684,9.6003,59.012,0.1185,0.3244,0.0324,190.4219
15:20:17:678,1.3789,1.7261,9.2629,59.3562,-0.0287,0.2657,0.0568,190.5625
15:20:17:679,0.9194,2.2624,8.875,59.472,-0.2181,0.3024,-0.0996,190.5625
15:20:17:754,0.1627,2.4012,8.4535,59.5945,-0.3665,0.3671,-0.3054,190.8281
15:20:17:754,-0.486,2.2911,8.2597,59.5762,-0.4337,0.4007,-0.4746,190.8594
15:20:17:755,-0.9194,2.1021,8.1616,59.7529,-0.3885,0.4392,-0.5687,190.9844
15:20:17:755,-1.5658,2.0614,7.2613,59.979,0.0122,0.5889,-0.441,191
15:20:17:755,-1.5371,2.1835,6.4472,59.9087,0.2682,0.6353,-0.2333,191.0312
15:20:17:768,-0.9314,2.4203,5.6261,59.7825,0.4954,0.6182,0.0153,191.0312
15:20:17:787,0.3018,2.7221,5.5304,59.7667,0.6328,0.4722,0.1979,191.9062
15:20:17:805,1.5347,3.2656,5.8893,59.9539,0.6304,0.3464,0.2333,192
15:20:17:827,2.1954,3.9838,6.3347,60.2766,0.4539,0.1985,0.1032,194.0469
15:20:17:849,2.272,4.5727,8.001,60.4166,0.0837,-0.1155,-0.2126,195.25
15:20:17:867,1.6328,4.0412,10.5245,60.3743,-0.3079,-0.408,-0.6866,195.25
15:20:17:888,0.2946,2.8657,12.4732,60.6121,-0.4813,-0.4355,-1.1087,195.1719
15:20:17:906,-1.4462,1.9295,13.0693,61.0472,-0.408,-0.19,-1.2431,195.1719
15:20:17:929,-2.6695,1.6543,12.9999,61.4429,-0.1949,0.0715,-0.9798,195.4531
15:20:17:950,-2.3486,1.9825,12.9329,61.5953,0.0189,0.1906,-0.427,195.4531
15:20:17:967,-1.4222,2.7963,12.9353,61.8579,0.1448,0.2169,0.0483,195.4531
15:20:17:986,-1.1348,3.5121,12.9497,62.0144,0.2101,0.2205,0.1912,196.4219
15:20:18:007,-1.695,3.4738,12.454,62.4176,0.281,0.2621,0.0971,196.4375
15:20:18:027,-2.5331,3.1484,11.4078,62.9469,0.3531,0.3366,-0.0073,197.3438
15:20:18:046,-2.9925,2.8466,10.1342,63.355,0.3616,0.358,-0.0177,197.4688
15:20:18:068,-2.6934,2.3605,9.6817,63.678,0.2431,0.1759,0.0257,197.4688
15:20:18:088,-2.4371,1.7644,11.0871,63.8788,0.0849,-0.2217,0.0305,197
15:20:18:106,-2.8155,1.2927,12.4421,64.2421,0.1423,-0.4343,0.0324,197
15:20:18:127,-3.4857,0.9482,11.6091,64.2916,0.4581,-0.2486,0.1356,197.1406
15:20:18:149,-3.2991,0.9721,9.5166,64.6773,0.7758,-0.0305,0.3512,197.1406
15:20:18:168,-2.3079,1.2879,8.0369,64.8301,0.8253,-0.011,0.5284,198.9844
15:20:18:188,-1.1109,1.7189,8.1302,64.9817,0.5681,-0.1307,0.565,199.1719
15:20:18:207,-0.3808,1.9439,9.2124,65.0186,0.1716,-0.1784,0.4557,201.3594
15:20:18:233,-0.5195,1.2497,9.3203,64.9419,-0.1625,0.2682,0.1478,201.5625
15:20:18:249,-0.8258,1.1252,7.9675,65.0452,-0.044,0.5736,0.1173,201.9219
15:20:18:270,-0.9649,1.3836,6.4232,65.1906,0.0519,0.7348,0.1839,201.9688
15:20:18:288,-0.8668,1.8482,5.6477,65.3153,0.0208,0.6243,0.2602,201.6562
15:20:18:305,-0.6559,2.5113,6.2581,65.1721,-0.1136,0.3079,0.2749,201.625
15:20:18:327,-0.5435,3.1125,7.1967,65.2247,-0.215,0.0855,0.237,201.625
15:20:18:348,-0.6511,3.5169,7.6397,65.2043,-0.2095,0.0568,0.168,201.625
15:20:18:369,-0.8163,3.9168,7.57,65.3069,-0.1381,0.1662,0.0745,201.6094
15:20:18:385,-1.1492,4.1991,6.6461,65.1381,-0.1087,0.3641,-0.044,201.6094
15:20:18:405,-1.7142,4.2832,6.5623,65.048,-0.2272,0.361,-0.1753,201.6094
15:20:18:427,-1.9657,4.0412,7.6756,64.9357,-0.4001,0.099,-0.2767,200.9062
15:20:18:449,-1.8697,3.6918,9.4137,64.8136,-0.4771,-0.2034,-0.3421,200.8438
15:20:18:468,-1.695,3.4475,10.9651,64.8269,-0.4178,-0.361,-0.3744,200.8281
15:20:18:487,-1.1922,3.1101,11.9513,64.7419,-0.27,-0.4019,-0.3964,199.8594
15:20:18:508,-0.8306,2.6719,12.4349,64.9238,-0.1155,-0.4594,-0.4227,199.8438
15:20:18:532,-0.3927,2.1715,13.0956,64.7724,0.0183,-0.5809,-0.4355,199.2969
15:20:18:552,-0.4693,1.9223,13.3902,64.9731,0.135,-0.5931,-0.4038,198.7031
15:20:18:566,-0.7062,2.205,12.4062,65.0077,0.1949,-0.4203,-0.2449,198.7031
15:20:18:587,-0.0239,2.6719,11.3312,64.9837,0.1087,-0.3183,-0.0012,197.9062
15:20:18:606,1.2592,2.7652,11.056,65.3719,-0.1051,-0.4044,0.0776,197.9062
15:20:18:628,2.1021,2.0351,11.9465,65.4348,-0.3354,-0.5901,-0.1118,197.375
15:20:18:650,2.1715,1.0271,13.1483,65.6517,-0.4313,-0.7086,-0.3751,197.375
15:20:18:710,1.5156,0.4645,13.7324,65.6667,-0.259,-0.6121,-0.5082,197.2031
15:20:18:711,0.7325,0.4406,12.5019,65.9537,0.1472,-0.2889,-0.4172,197.2031
15:20:18:711,0.6559,1.0463,10.2562,66.3082,0.5632,-0.0012,-0.1625,197.5
15:20:18:728,1.0343,1.6831,8.499,66.8,0.7746,0.0336,-0.0183,197.5312
15:20:18:748,1.5251,2.1021,7.3977,67.3787,0.7538,-0.0647,-0.0892,198.2344
15:20:18:769,0.8812,2.0877,6.5934,67.723,0.2083,-0.1607,-0.6982,198.2969
15:20:18:789,-0.2946,1.8673,6.9619,68.3782,-0.1558,-0.1307,-0.9566,199.2188
15:20:18:807,-1.1659,1.7261,7.5197,68.9424,-0.4172,-0.0733,-1.025,199.2969
15:20:18:828,-1.4581,1.6974,8.1736,69.5759,-0.5046,-0.0348,-0.9456,200.3438
15:20:18:851,-1.2425,1.7931,8.6426,70.1624,-0.4221,0.0037,-0.8039,200.4531
15:20:18:866,-0.778,1.9606,8.7817,70.5119,-0.2462,0.0446,-0.6835,200.8438
15:20:18:885,-0.3497,2.1523,8.8917,70.8097,-0.0684,0.0843,-0.628,200.8906
15:20:18:906,-0.3568,2.3629,8.6282,71.1781,0.0629,0.1753,-0.62,201.0469
15:20:18:927,-0.5506,2.4108,8.0991,71.4041,0.1216,0.2639,-0.6127,201.0625
15:20:18:948,-0.7421,2.5017,8.08,71.5427,0.0953,0.2553,-0.5773,202.0781
15:20:18:968,-0.565,2.5953,8.8199,71.7683,0.0263,0.1851,-0.5088,202.1719
15:20:18:987,-0.4573,2.7413,9.4615,71.7413,-0.0238,0.1857,-0.4441,202.9219
15:20:19:007,-0.7804,2.9471,10.0313,71.8007,-0.0513,0.2376,-0.408,202.9375
15:20:19:028,-1.3693,3.1771,10.7901,71.9861,-0.0544,0.2462,-0.3531,203.1875
15:20:19:046,-1.2712,3.4259,11.9201,72.24,-0.0079,0.212,-0.2456,204.4531
15:20:19:067,-0.3951,3.5767,13.0669,72.4728,0.1063,0.1869,-0.146,204.4531
15:20:19:087,-0.256,3.8282,13.5123,72.6576,0.2902,0.2065,-0.1307,206.6094
15:20:19:107,-0.917,4.0412,12.8851,72.8912,0.5241,0.2297,-0.1778,206.6094
15:20:19:126,-1.6831,3.9981,11.8603,73.0071,0.7324,0.193,-0.237,208.4531
15:20:19:151,-2.648,3.9742,10.5245,73.3356,0.8271,0.2272,-0.2676,208.4531
15:20:19:168,-3.2536,4.0125,8.9085,73.7993,0.719,0.3635,-0.2333,209.8594
15:20:19:187,-3.4881,3.6365,8.176,74.2249,0.3763,0.4038,-0.1894,209.8594
15:20:19:207,-3.3996,2.9782,8.8008,74.4107,-0.0489,0.2523,-0.1478,211.0469
15:20:19:228,-3.1531,2.1835,10.2084,74.5355,-0.3036,-0.0538,-0.0794,211.1562
15:20:19:250,-3.6413,1.2401,12.0712,74.7443,0.1216,-0.3372,0.0965,212.2031
15:20:19:269,-3.9359,1.1611,10.0576,75.027,0.595,-0.0837,0.3366,212.2969
15:20:19:289,-3.4427,1.7836,7.8431,75.3848,0.8576,0.0764,0.6383,213.0938
15:20:19:307,-2.0207,2.581,6.5384,75.6392,0.7825,0.0189,0.8411,213.1719
15:20:19:328,-0.2058,3.0404,6.5958,75.6104,0.4404,-0.1381,0.8051,213.7031
15:20:19:350,0.6655,3.1316,7.9579,75.3335,-0.0092,-0.3079,0.5259,214.0312
15:20:19:368,0.0598,2.9925,9.3514,75.3376,-0.3329,-0.328,0.2046,214.0312
15:20:19:385,-0.6559,2.9925,9.318,74.9868,-0.383,-0.1521,0.0385,214.0625
15:20:19:405,-0.9864,3.0643,8.4751,74.8611,-0.2456,-0.0116,-0.0073,214.5625
15:20:19:428,-0.7828,3.1771,7.5485,74.3824,-0.0764,-0.0122,-0.0159,214.6094
15:20:19:450,-0.4214,3.0165,7.1058,73.9941,-0,-0.1875,-0.0702,215.2188
15:20:19:467,-0.2512,2.916,7.8838,73.6994,-0.0495,-0.4844,-0.1802,215.2812
15:20:19:487,-0.7875,3.038,9.1454,73.3737,-0.1118,-0.6457,-0.2474,215.5938
15:20:19:507,-1.6065,3.122,9.871,73.1284,-0.0733,-0.5296,-0.215,215.5938
15:20:19:528,-2.2624,3.0332,9.8662,72.8986,0.0483,-0.2767,-0.1246,215.6875
15:20:19:548,-2.3079,2.9112,9.1286,72.8744,0.1942,0.025,0.0324,215.3906
15:20:19:567,-1.7166,3.1244,8.4392,72.6984,0.273,0.2553,0.2101,215.3906
15:20:19:588,-1.5203,3.5671,8.2908,72.8274,0.2352,0.3775,0.3164,214
15:20:19:606,-1.6352,4.0268,8.2956,72.4404,0.1301,0.4551,0.3744,214
15:20:19:627,-1.4222,4.156,8.3937,72.1503,0.0348,0.4117,0.408,212.6875
15:20:19:650,-0.7325,3.9407,8.8989,71.7995,-0.0195,0.2028,0.3702,212.6875
15:20:19:718,-0.3209,3.7014,9.4711,71.7922,-0.0538,-0.014,0.2706,212.4219
15:20:19:718,-0.3162,3.6966,10.1103,71.1411,-0.0977,-0.1814,0.1741,212.4219
15:20:19:719,-0.2994,3.6823,10.5628,70.729,-0.1845,-0.2523,0.1161,212.4062
15:20:19:788,0.2656,3.5575,10.5054,70.2395,-0.3121,-0.2193,0.1185,212.4219
15:20:19:789,1.185,3.1125,10.5987,69.7513,-0.4887,-0.281,0.0812,212.7812
15:20:19:789,1.8817,1.3765,13.3376,69.5939,-0.7599,-0.8888,-0.2169,212.8125
15:20:19:790,1.4557,0.9888,14.3815,68.9037,-0.6292,-0.8527,-0.2382,213.4844
15:20:19:807,1.4414,1.2018,13.2443,68.3475,-0.2792,-0.3134,-0.0403,213.5469
15:20:19:828,1.8386,2.1165,11.1159,67.7014,0.1106,0.306,0.1613,213.7188
15:20:19:851,2.1595,3.0763,9.2578,67.187,0.3683,0.5412,0.1497,213.7344
15:20:19:866,2.1021,3.5264,7.8431,66.7527,0.4148,0.4917,-0.088,213.1406
15:20:19:886,1.4079,3.3111,6.9715,66.8002,0.2706,0.3237,-0.4319,213.0938
15:20:19:907,0.4884,2.7963,6.5192,66.4603,0.0275,0.1545,-0.6909,212.1562
15:20:19:927,-0.201,2.3605,6.4762,66.0233,-0.2254,0.0385,-0.7794,212.0625
15:20:19:949,-0.6416,2.1069,6.9452,66.0511,-0.3995,-0.1045,-0.7556,211.375
15:20:19:967,-0.7875,2.1978,7.7043,66.2394,-0.4429,-0.2456,-0.6909,211.2969
15:20:19:988,-0.7947,2.3103,8.4559,66.1873,-0.3366,-0.3518,-0.6334,211.0312
15:20:20:006,-0.5076,2.3055,9.2821,66.2711,-0.0678,-0.4966,-0.5907,211.0312
15:20:20:026,-0.1244,2.1763,9.6984,66.0835,0.295,-0.532,-0.5748,210.8438
15:20:20:050,-0.3903,2.217,9.3491,65.7404,0.5925,-0.1918,-0.5528,211.2812
15:20:20:068,-0.7301,2.7341,8.4081,65.7147,0.722,0.347,-0.4386,211.2812
15:20:20:086,-0.6105,3.469,7.5054,65.7514,0.6658,0.6011,-0.2639,211.7188
15:20:20:107,0.1914,3.9144,7.5389,65.692,0.46,0.4117,-0.1484,211.7188
15:20:20:128,0.5746,3.8785,8.2214,65.4844,0.1778,0.1741,-0.1662,211.2656
15:20:20:152,0.2369,3.754,9.0855,65.2425,-0.0684,0.1258,-0.2315,211.2656
15:20:20:167,-0.3568,3.8091,9.8973,65.092,-0.2242,0.1515,-0.234,211.75
15:20:20:187,-0.3832,4.0747,10.7016,64.9982,-0.292,0.1209,-0.1289,211.75
15:20:20:206,-0.0096,4.4459,11.2786,64.7031,-0.284,0.16,-0.0024,213.2969
15:20:20:227,-0.1412,4.6923,11.6163,64.2921,-0.2236,0.3011,0.0086,213.2969
15:20:20:251,-1.1731,4.4052,11.9824,63.8266,-0.1252,0.3702,-0.1014,214.7188
15:20:20:268,-2.5953,3.967,12.21,63.5412,-0.0061,0.4056,-0.1643,214.8594
15:20:20:287,-3.5408,3.9048,10.8428,63.2167,0.0299,0.7055,-0.0764,216.1875
15:20:20:307,-3.323,3.6389,10.8308,63.0191,0.0403,0.8399,-0.2401,216.3125
15:20:20:327,-3.5934,2.4826,9.6003,62.9773,0.1662,-0.1857,-0.4453,217.6406
15:20:20:347,-4.2233,0.6942,10.6059,62.8478,0.2798,-0.9529,-0.2828,217.7812
15:20:20:365,-4.113,1.3956,10.7806,62.7269,0.3445,-0.7324,0.0599,218.4688
15:20:20:388,-2.9088,1.6854,9.5046,62.5432,0.157,-0.0593,0.3457,218.5312
15:20:20:421,-2.2481,2.071,8.2765,62.3741,-0.0837,0.5803,0.3812,218.8125
15:20:20:426,-2.2217,2.6743,7.9364,61.8728,-0.2718,0.6615,0.234,218.8438
15:20:20:459,-1.7309,2.6384,8.4583,61.3378,-0.408,0.3402,0.0916,219.2188
15:20:20:468,-0.9673,2.1284,8.9515,60.7612,-0.4258,0.0556,-0.014,219.2656
15:20:20:496,-0.8501,1.7189,8.7984,60.2463,-0.3189,0.0403,-0.1258,219.2812
15:20:20:506,-0.8764,1.5108,8.176,59.6361,-0.171,0.1967,-0.2101,219.2812
15:20:20:528,-0.9123,1.4988,7.5652,59.0435,-0.0709,0.3396,-0.2346,219.2188
15:20:20:552,-1.2281,1.9056,7.0914,58.8693,-0.0574,0.3598,-0.1985,219.2812
15:20:20:568,-1.4246,2.3916,6.8758,58.6292,-0.0739,0.1796,-0.1087,219.2812
15:20:20:585,-1.008,2.9423,6.9835,58.2685,-0.0593,-0.0666,-0.0312,219.2188
15:20:20:607,-0.8548,3.5815,6.7394,58.0096,-0.0147,-0.1393,-0.0544,219.2188
15:20:20:626,-1.3836,4.0986,6.5384,57.8575,0.0257,-0.1723,-0.171,220.2812
15:20:20:646,-1.9343,4.1824,6.9428,57.4777,0.0562,-0.3708,-0.2902,220.2812
15:20:20:706,-1.9825,3.8545,8.0345,57.0995,0.0849,-0.6176,-0.3451,220.0781
15:20:20:706,-2.0638,3.3757,9.0808,56.7425,0.102,-0.6487,-0.3512,220.0781
15:20:20:706,-2.2792,3.1316,9.763,55.9356,0.1124,-0.482,-0.2908,219.125
15:20:20:725,-2.0949,3.0308,10.0385,55.2379,0.1326,-0.3005,-0.1423,219.125
15:20:20:746,-1.1037,3.1077,9.7415,54.7721,0.1106,-0.1344,0.0189,218.8438
15:20:20:768,-0.4908,3.0691,9.7654,54.2073,-0.022,-0.0568,0.0556,218.8125
15:20:20:786,-0.2154,3.146,10.7136,53.8116,-0.2156,-0.1674,0.0238,219.0312
15:20:20:806,0.2058,3.2632,11.98,53.2148,-0.3445,-0.3543,-0.0031,219.0625
15:20:20:828,1.4509,2.9231,13.3113,52.5653,-0.2144,-0.5473,-0.1332,219.3594
15:20:20:848,2.5666,2.2839,12.8061,51.7412,-0.0696,-0.573,-0.2853,219.3906
15:20:20:867,3.2106,1.276,12.1286,51.1573,-0.08,-0.6084,-0.5211,219.5
15:20:20:885,3.1795,0.5459,12.2148,50.529,-0.2608,-0.6609,-0.6805,219.5156
15:20:20:905,2.6336,0.4645,12.4182,49.8135,-0.4221,-0.554,-0.6768,219.7812
15:20:20:926,2.8777,0.9458,11.645,48.9714,-0.3726,-0.3323,-0.5235,219.8125
15:20:20:948,3.2967,1.4749,10.1773,48.1863,-0.1692,-0.1038,-0.4539,220.6094
15:20:20:968,3.5575,1.9606,8.8941,47.7163,-0.011,-0.0342,-0.6115,220.6875
15:20:20:988,3.28,1.8601,8.1568,47.1381,-0.0073,-0.1869,-0.9523,221.5469
15:20:21:007,2.6145,1.331,8.2478,46.9617,-0.1387,-0.4868,-1.3133,221.625
15:20:21:028,1.5921,0.8429,8.8223,46.6931,-0.2889,-0.6964,-1.5852,221.875
15:20:21:053,0.5076,0.5171,8.9635,46.5364,-0.3451,-0.6157,-1.7245,221.875
15:20:21:068,-0.2608,0.2201,8.4846,46.2803,-0.2944,-0.3305,-1.7459,221.7969
15:20:21:086,-0.5889,0.079,7.9531,46.2719,-0.212,-0.0605,-1.7086,221.9062
15:20:21:106,-0.3473,0.1077,7.7139,46.0908,-0.1478,0.0806,-1.6506,221.9062
15:20:21:127,-0.079,0.3592,7.9173,46.1587,-0.1252,0.1161,-1.6194,222.4844
15:20:21:152,-0.4693,0.7349,8.621,46.3593,-0.1179,0.0916,-1.6219,222.4844
15:20:21:168,-1.0439,0.9147,8.8989,46.256,-0.0635,0.201,-1.609,223.9531
15:20:21:188,-1.5371,0.9099,8.5421,46.4703,0.0299,0.4661,-1.5675,223.9531
15:20:21:208,-2.2481,1.1563,7.7258,46.5114,0.0812,0.7416,-1.4924,225.3125
15:20:21:229,-2.6695,1.5682,7.2063,46.815,0.0153,0.8179,-1.383,225.3125
15:20:21:252,-3.0787,1.7453,7.7019,46.9873,-0.1771,0.573,-1.2987,226.375
15:20:21:268,-3.7038,1.331,8.9683,47.1819,-0.3873,0.2126,-1.2321,226.4844
15:20:21:287,-4.3813,1.051,10.4743,47.0174,-0.4856,-0.0812,-1.0665,228.8125
15:20:21:306,-4.6493,1.2233,11.6306,47.0018,-0.4563,-0.2651,-0.7367,229.0469
15:20:21:329,-3.9168,1.6328,12.8563,47.017,-0.3567,-0.4416,-0.306,232.4219
15:20:21:352,-2.7604,2.4299,14.2208,46.8345,-0.1955,-0.5229,0.0531,232.7656
15:20:21:368,-2.1787,3.2943,13.1602,46.5069,0.0385,-0.3451,0.1985,236.2188
15:20:21:386,-2.636,2.6504,11.2044,46.3154,0.3152,0.0666,-0.0641,236.5625
15:20:21:406,-2.9901,1.5897,10.8404,46.2797,0.1949,-0.2187,-0.2413,239.7969
15:20:21:427,-2.9686,0.4334,11.9895,45.8884,0.0519,-0.6597,-0.328,240.1094
15:20:21:451,-3.39,-0.4119,13.5506,45.3684,0.0721,-0.9193,-0.3066,243.3125
15:20:21:468,-4.3765,-0.8115,13.7013,44.841,0.3482,-0.7636,-0.157,243.625
15:20:21:488,-4.8266,-0.7732,11.7622,44.3939,0.7807,-0.3421,0.16,246.625
15:20:21:505,-4.1824,-0.4454,9.6793,44.2689,1.0965,-0.1228,0.4972,246.9219
15:20:21:527,-3.1029,-0.1005,9.0257,43.9896,1.1301,-0.1692,0.6982,249.75
15:20:21:550,-2.0183,0.256,9.0425,43.6535,0.9065,-0.0904,0.8014,252.1406
15:20:21:568,-1.0415,0.5602,8.9085,43.4052,0.5235,0.2633,0.8924,252.1406
15:20:21:588,-0.3305,0.7923,8.487,43.4226,0.1155,0.7422,0.967,253.2031
15:20:21:606,-0.0694,0.9697,7.7809,43.8299,-0.1991,1.1686,0.9932,253.2031
15:20:21:628,0.2249,1.0487,6.9906,44.3476,-0.3952,1.4087,0.9755,252.9375
15:20:21:650,0.431,1.2162,6.6987,44.7219,-0.4997,1.3359,0.9089,252.9375
15:20:21:693,0.1627,1.6328,7.2829,44.8447,-0.5272,0.9877,0.7984,252.9688
15:20:21:694,-0.2249,2.083,8.2478,45.2568,-0.4392,0.6341,0.6811,252.9688
15:20:21:706,-0.4645,2.339,8.6976,45.7941,-0.2327,0.5027,0.562,253.6562
15:20:21:727,-0.5267,2.26,8.0465,46.0972,0.0195,0.5889,0.4441,253.6562
15:20:21:751,-0.7588,2.2792,6.9547,46.6033,0.1912,0.7342,0.3518,254.2969
15:20:21:767,-1.1372,2.5618,6.3467,46.8984,0.2077,0.722,0.3073,254.2969
15:20:21:787,-1.2401,2.8896,6.0045,47.1684,0.113,0.573,0.3036,253.875
15:20:21:859,-1.0558,3.0571,6.2629,47.4175,-0.0421,0.3164,0.2511,253.8438
15:20:21:860,-1.0247,3.0643,6.9571,47.622,-0.2187,0.0293,0.1093,252.5781
15:20:21:860,-1.0726,2.2385,9.2148,48.0049,-0.5546,-0.6084,-0.248,252.4531
15:20:21:871,-0.4717,1.5179,11.2259,47.8639,-0.7006,-1.0274,-0.3861,250.5781
15:20:21:887,-0.0287,1.0271,13.4237,47.8531,-0.7819,-1.2864,-0.471,250.3906
15:20:21:905,0.2106,0.6176,14.956,47.437,-0.7556,-1.2296,-0.4881,248.1094
15:20:21:927,0.5578,0.1579,14.9321,46.7439,-0.6396,-0.8955,-0.4032,247.8906
15:20:21:949,1.2544,0.0718,14.1347,45.9837,-0.5052,-0.6298,-0.2388,245.8125
15:20:21:966,2.1595,0.3736,14.3432,45.294,-0.3812,-0.6677,-0.1729,245.6094
15:20:21:987,2.5184,0.2249,14.5537,44.5313,-0.2187,-0.656,-0.3366,244.1562
15:20:22:006,1.8697,-0.1436,13.5625,43.5598,-0.036,-0.358,-0.5876,244.0156
15:20:22:029,1.063,-0.1699,11.901,43.0326,0.1087,-0.0342,-0.6896,243.0312
15:20:22:050,0.8402,0.1627,10.7112,42.4383,0.1729,0.0434,-0.6469,243.0312
15:20:22:069,1.2568,0.4669,9.9811,42.1224,0.1771,-0.0617,-0.6139,242.2812
15:20:22:089,1.6902,0.6535,9.9141,41.9271,0.1332,-0.248,-0.697,241.7969
15:20:22:107,1.5706,0.4645,9.9547,41.7826,0.077,-0.3396,-0.8906,241.7969
15:20:22:127,0.7828,-0.0096,9.7295,41.4671,0.0513,-0.2553,-1.0928,242.0312
15:20:22:151,0.0048,-0.3592,8.9635,41.4044,0.1032,-0.058,-1.1447,242.0312
15:20:22:170,-0.5483,-0.3233,7.8981,41.5325,0.2303,0.1735,-1.0354,242.8906
15:20:22:188,-1.0845,0.055,6.8303,41.5767,0.3708,0.3769,-0.854,242.8906
15:20:22:207,-1.5658,0.7421,5.9447,41.6694,0.4545,0.5461,-0.6487,243.7969
15:20:22:227,-1.8577,1.7046,5.4897,41.8343,0.4288,0.6603,-0.471,243.7969
15:20:22:250,-1.8697,2.7796,5.8271,42.1198,0.2877,0.6945,-0.4013,244.1875
15:20:22:267,-1.4222,3.2728,6.7657,42.4733,0.1136,0.6603,-0.496,244.1875
15:20:22:287,-1.0175,2.9327,7.2517,43.0987,-0.0073,0.6774,-0.7403,245.125
15:20:22:307,-1.5227,2.2074,7.3738,43.6869,-0.1258,0.6365,-1,245.2188
15:20:22:329,-1.7788,1.7501,8.8678,44.1693,-0.2975,0.3292,-1.1148,246.5781
15:20:22:353,-1.9104,1.1563,13.2491,44.4237,-0.2871,-0.3787,-1.1808,246.7188
15:20:22:371,-2.6073,0.7086,14.2448,44.6209,0.0238,-0.4251,-1.1185,248.0781
15:20:22:388,-3.2034,0.553,13.6558,44.7324,0.3964,-0.2169,-0.8344,248.2188
15:20:22:406,-2.9806,0.9793,12.5785,44.7453,0.6121,0.0055,-0.3848,250.2344
15:20:22:439,-2.4754,1.9992,11.8938,44.8292,0.5687,0.1081,0.0281,250.4375
15:20:22:452,-2.3079,2.6599,12.035,45.048,0.3488,0.1307,0.2169,252.6562
15:20:22:468,-2.557,2.6432,11.9058,44.9274,0.1539,0.2169,0.237,252.875
15:20:22:487,-2.8083,2.461,11.2379,44.9645,0.0745,0.2914,0.2596,254.4531
15:20:22:506,-2.6288,2.205,10.9074,45.1112,0.0702,0.1918,0.295,254.6094
15:20:22:528,-2.3868,1.7213,11.0991,45.1738,0.1173,-0.0018,0.2743,255.5312
15:20:22:550,-2.6264,1.1468,11.4532,45.4077,0.2236,-0.1704,0.2223,255.6094
15:20:22:568,-3.1579,0.7086,11.0345,45.7402,0.4062,-0.2187,0.237,256.9219
15:20:22:587,-3.2393,0.6559,9.9188,45.8192,0.6206,-0.2083,0.3555,259.1406
15:20:22:607,-2.7437,0.8859,8.8463,45.6396,0.7489,-0.2547,0.4636,259.1406
15:20:22:627,-2.15,1.1515,8.4153,45.6784,0.6958,-0.372,0.4636,261.5938
15:20:22:652,-1.4318,1.1228,9.1071,45.5295,0.4752,-0.4899,0.3641,261.5938
15:20:22:709,-1.0534,0.7349,9.9882,45.3677,0.2138,-0.4135,0.2242,263.8281
15:20:22:709,-0.9123,0.352,9.8949,45.1521,0.0519,-0.1234,0.1533,263.8281
15:20:22:710,-0.8524,0.2632,9.1932,45.0495,0.0189,0.1209,0.1594,264.4219
15:20:22:729,-1.0319,0.4071,8.4607,44.9503,0.0409,0.223,0.1796,264.4219
15:20:22:752,-1.3023,0.6799,7.8096,44.7421,0.0147,0.3066,0.1918,264.0156
15:20:22:779,-1.9825,1.1563,7.6828,44.7471,-0.1368,0.4319,0.1881,264.0156
15:20:22:786,-2.3294,1.5443,8.2741,44.6722,-0.3164,0.5705,0.223,263.4688
15:20:22:808,-2.1212,1.5945,8.2023,44.9046,-0.3305,0.7477,0.3237,263.4219
15:20:22:828,-2.1476,1.707,7.2852,45.0692,-0.1692,0.8686,0.4233,262.9688
15:20:22:853,-2.3821,2.217,6.5862,45.4167,0.0318,0.7764,0.5229,262.9375
15:20:22:869,-2.2098,3.3685,6.8973,45.5446,0.2388,0.2413,0.595,262.5156
15:20:22:889,-2.217,3.5312,7.2302,45.7025,0.2504,0.0232,0.4594,262.4688
15:20:22:906,-2.2935,3.5073,7.5054,46.0248,0.2004,-0.1252,0.295,261.7969
15:20:22:929,-1.9968,3.3613,8.1951,46.2098,0.0635,-0.2449,0.1778,261.7344
15:20:22:945,-1.4127,3.1053,9.5883,46.2586,-0.1405,-0.3402,0.0721,261.3125
15:20:22:968,-0.9434,2.9399,11.0608,46.0027,-0.3152,-0.3622,-0.0348,261.2656
15:20:22:987,-0.6679,2.8298,11.7407,45.9651,-0.3897,-0.3305,-0.1326,260.9531
15:20:23:005,-0.5483,2.4873,11.8699,45.6441,-0.4148,-0.3964,-0.2346,260.9219
15:20:23:027,-0.3808,1.9801,12.3272,45.3823,-0.4832,-0.6041,-0.3274,260.5312
15:20:23:051,0.0048,1.4004,13.3424,45.053,-0.6047,-0.8265,-0.4068,259.875
15:20:23:070,0.3281,0.6224,14.4772,44.685,-0.7153,-0.9273,-0.5162,259.875
15:20:23:088,0.1747,-0.3879,15.0972,43.9558,-0.7721,-0.7691,-0.6402,258.8438
15:20:23:107,-0.7636,-1.3358,14.7021,43.2781,-0.7397,-0.3531,-0.617,258.8438
15:20:23:127,-1.5395,-1.4557,13.9026,42.5578,-0.551,0.0018,-0.2431,257.5312
15:20:23:152,-0.5841,-0.5267,13.5171,41.8741,-0.16,0.0611,0.3854,257.5312
15:20:23:167,1.4844,0.4143,12.8085,41.6501,0.4239,0.033,0.8442,256.4375
15:20:23:188,2.5857,1.0487,10.6059,41.2955,1.0012,0.1533,0.8558,256.4375
15:20:23:207,2.6336,1.6113,7.7761,41.1816,1.3133,0.2504,0.576,256
15:20:23:226,2.3438,2.0207,5.5328,41.0855,1.273,0.1539,0.1918,256
15:20:23:250,1.8051,2.1188,4.7764,41.3961,0.9486,-0.055,-0.2291,255.9375
15:20:23:268,1.1157,2.0231,4.9056,41.862,0.5492,-0.1741,-0.595,255.9375
15:20:23:287,0.3497,1.8888,5.4467,42.5879,0.2303,-0.2126,-0.8527,256.2344
15:20:23:306,-0.1603,1.7764,6.1481,43.0879,0.0428,-0.2321,-0.9957,256.2656
15:20:23:329,-0.2632,1.7309,6.6532,43.3985,-0.0263,-0.2181,-1.0494,256.9219
15:20:23:350,-0.1723,1.9056,7.1178,43.7934,-0.0513,-0.1582,-1.0714,256.9844
15:20:23:366,-0.213,2.0231,7.5846,43.8383,-0.0837,-0.0886,-1.1038,258.0312
15:20:23:387,-0.3688,2.0758,8.013,44.116,-0.1173,-0.0037,-1.1252,258.1406
15:20:23:405,-0.711,2.6121,8.8678,44.1327,-0.149,0.1509,-1.0574,258.8438
15:20:23:426,-0.7445,2.8178,9.6769,44.4026,-0.1539,0.1313,-1.0103,258.9219
15:20:23:446,-1.3382,2.892,10.5867,44.5793,-0.1191,0.058,-1.0012,257.7344
15:20:23:465,-2.2361,2.825,11.1015,44.8947,-0.0312,0.0134,-0.9706,257.625
15:20:23:486,-2.9351,2.6145,11.4724,45.0415,0.0672,-0.0684,-0.8625,256.4531
15:20:23:505,-3.0212,2.2624,12.2507,45.3248,0.1607,-0.1985,-0.6646,256.3438
15:20:23:526,-2.7461,2.2361,12.454,45.8385,0.2969,-0.1973,-0.394,256.6562
15:20:23:549,-2.1476,2.703,11.779,45.8712,0.43,-0.0843,-0.1209,258.4219
15:20:23:566,-1.7883,3.4187,10.7255,46.2352,0.449,0.0244,0.0147,258.4219
15:20:23:585,-1.9558,3.8091,10.0505,46.5771,0.2981,0.0757,-0.0647,260.7031
15:20:23:606,-2.4012,3.5192,9.8901,46.5791,0.0342,0.0483,-0.259,260.7031
15:20:23:626,-2.6169,2.6121,10.3424,46.821,-0.2474,-0.0831,-0.4532,263.1094
15:20:23:649,-2.2983,1.5084,11.5875,47.1204,-0.4258,-0.3201,-0.5901,263.1094
15:20:23:695,-2.2911,0.5506,12.6434,47.3636,-0.3824,-0.4722,-0.6976,265.5312
15:20:23:695,-3.1101,-0.2106,12.0736,47.4656,-0.0892,-0.3769,-0.7171,265.5312
15:20:23:705,-3.7493,-0.5818,10.084,47.6298,0.3103,-0.223,-0.5485,267.75
15:20:23:726,-3.6535,-0.4908,8.365,47.8787,0.5595,-0.2614,-0.3079,267.75
15:20:23:750,-3.4451,-0.1962,8.056,47.6617,0.4856,-0.4172,-0.1576,267.7656
15:20:23:766,-2.9806,-0.0263,9.1789,47.8204,0.1295,-0.4374,-0.0507,269.8906
15:20:23:786,-2.2768,-0.0287,10.218,47.7921,-0.2633,-0.1374,0.1045,271.625
15:20:23:806,-1.707,0.012,9.8901,47.7546,-0.474,0.3616,0.2847,271.625
15:20:23:826,-1.5132,0.2632,8.7553,47.6333,-0.4636,0.7171,0.4319,272.2656
15:20:23:849,-1.439,0.6009,7.7545,47.5969,-0.3219,0.7147,0.5418,272.3281
15:20:23:866,-1.4797,1.209,7.8,47.8759,-0.1619,0.4355,0.6108,272.4844
15:20:23:909,-1.4004,1.8697,8.5899,47.7158,0.1643,0.1564,0.6634,272.5
15:20:23:909,-1.2736,2.6001,8.1401,48.1147,0.2853,0.2834,0.6506,273.1719
15:20:23:926,-1.7237,3.0885,7.4384,48.1864,0.306,0.3836,0.6261,273.25
15:20:23:945,-2.0758,3.5767,7.0579,48.4222,0.2498,0.3763,0.617,274.4688
15:20:23:966,-2.1571,3.967,7.0436,48.505,0.1552,0.2712,0.5779,274.5781
15:20:23:985,-1.908,4.022,7.7545,48.579,0.0452,0.0556,0.46,275.9062
15:20:24:005,-1.6591,3.6317,9.2554,48.3181,-0.0764,-0.1894,0.2902,276.0469
15:20:24:026,-1.3573,3.1962,10.9555,48.0876,-0.1735,-0.3066,0.1692,276.6875
15:20:24:048,-0.9817,2.837,12.1119,48.2305,-0.1765,-0.2614,0.1075,276.7188
15:20:24:066,-0.7947,2.394,12.4564,47.8533,-0.0757,-0.149,0.0568,276.7188
15:20:24:085,-0.6464,2.1069,11.7479,47.8172,0.091,-0.055,0.055,275.75
15:20:24:106,-0.4669,2.3127,11.0608,47.6842,0.2272,-0.099,0.0996,275.75
15:20:24:126,-0.122,2.7389,10.6657,47.5889,0.2737,-0.2169,0.1301,274.3438
15:20:24:151,0.5483,3.1172,10.4623,47.5133,0.2236,-0.3439,0.0996,274.3438
15:20:24:166,1.3693,3.0909,10.8906,47.76,0.0544,-0.4624,-0.0556,272.9219
15:20:24:185,1.6448,2.2983,11.6474,47.8377,-0.1881,-0.4795,-0.347,272.9219
15:20:24:206,1.3454,1.0941,12.629,47.5839,-0.4074,-0.3714,-0.6438,271.6875
15:20:24:226,0.6727,0.1603,13.2562,47.6152,-0.4587,-0.19,-0.799,271.5625
15:20:24:250,-0.055,-0.498,12.7343,47.6303,-0.2981,0.0147,-0.7489,270.2656
15:20:24:266,0.0335,-0.4621,11.7359,47.7303,-0.0244,0.0605,-0.4734,270.2656
15:20:24:287,0.9912,0.268,10.6681,47.9124,0.2871,-0.0666,-0.1625,269.4375
15:20:24:307,1.8649,1.0223,9.4232,47.8891,0.5229,-0.1851,-0.0702,269.4375
15:20:24:327,1.9968,1.4749,7.7426,48.0143,0.5498,-0.1942,-0.2101,269.1406
15:20:24:349,1.4988,1.5658,6.7322,48.2395,0.314,-0.1631,-0.4539,269.1094
15:20:24:366,0.565,1.5251,6.737,48.4922,-0.0318,-0.1313,-0.656,269.0156
15:20:24:386,-0.419,1.561,7.0699,48.6524,-0.2486,-0.1258,-0.7355,269
15:20:24:408,-0.8931,1.7285,7.168,48.8738,-0.1264,-0.1503,-0.587,268.8594
15:20:24:426,-0.7875,2.4156,6.6844,49.0479,0.0159,-0.2071,-0.5253,268.8594
15:20:24:446,-0.5985,2.8801,7.1249,49.0713,0.0825,-0.3378,-0.5174,268.9062
15:20:24:465,0.0502,3.0547,8.056,49.4593,0.0794,-0.4386,-0.551,268.9062
15:20:24:486,0.189,3.1531,8.5708,49.7434,0.0428,-0.3879,-0.6463,269.875
15:20:24:505,-0.213,3.1986,9.1143,50.0263,-0.0318,-0.306,-0.7678,269.9688
15:20:24:527,-0.4884,3.0667,10.0672,50.3513,-0.1063,-0.2822,-0.8411,271.4375
15:20:24:549,-0.7851,2.7556,11.3216,50.7544,-0.1319,-0.2859,-0.8741,272.2656
15:20:24:566,-1.3214,2.4347,12.4612,50.721,-0.069,-0.2462,-0.8711,272.2656
15:20:24:586,-2.0518,2.1978,13.0143,50.7594,0.0855,-0.1038,-0.7807,272.8125
15:20:24:605,-2.6504,2.2146,12.5713,51.1681,0.2957,0.1069,-0.5485,272.8125
15:20:24:625,-2.5475,2.5283,11.8555,51.409,0.5003,0.2187,-0.2095,274.0781
15:20:24:646,-2.0016,2.9782,11.0632,51.624,0.6622,0.2285,0.0635,274.0781
15:20:24:691,-1.8888,3.3972,9.9667,51.8074,0.7232,0.2401,0.149,275.5938
15:20:24:692,-2.3725,3.7134,9.3108,52.1976,0.6188,0.2132,0.0947,275.5938
15:20:24:706,-3.1651,3.7397,9.2028,52.4865,0.383,0.168,-0.0104,276.7188
15:20:24:726,-3.5288,3.3589,10.2203,53.0047,0.0977,0.1167,-0.1075,276.8281
15:20:24:746,-3.5599,2.4467,11.6689,53.3296,-0.11,0.1032,-0.157,278.0781
15:20:24:770,-3.1053,1.3621,12.6625,53.6812,-0.1539,0.1374,-0.1087,278.0781
15:20:24:786,-2.6527,0.4956,13.3304,53.8155,-0.0324,0.1258,0.0324,279.6719
15:20:24:806,-2.5857,0.3592,12.7487,53.9724,0.2529,0.1582,0.2553,279.6719
15:20:24:827,-2.3438,0.9003,10.7471,54.0556,0.5815,0.2181,0.4997,281.3906
15:20:24:853,-1.8577,1.3741,8.9731,54.0523,0.7465,0.1637,0.5992,281.5625
15:20:24:869,-1.494,1.5993,8.068,54.2636,0.6719,0.0715,0.554,283.25
15:20:24:886,-1.1468,1.5706,7.7426,54.2747,0.427,0.0684,0.4917,283.4062
15:20:24:906,-0.6966,1.4342,7.57,54.0848,0.1393,0.1802,0.4765,284.2344
15:20:24:930,-0.0957,1.4055,6.7633,53.9741,-0.1442,0.237,0.4575,284.3281
15:20:24:951,-0.5674,1.7668,7.2422,54.0994,-0.16,-0.0202,0.4142,284.2344
15:20:24:968,-1.1252,2.1811,8.3865,54.0834,-0.1283,-0.2071,0.4099,284.2344
15:20:24:986,-1.3741,2.6025,8.5636,53.8196,-0.0318,-0.102,0.496,284.2188
15:20:25:006,-1.3167,3.1029,7.6756,53.8325,0.0696,0.1423,0.617,284.2188
15:20:25:025,-1.3071,3.6679,6.9141,53.4038,0.0922,0.2804,0.6829,284.4688
15:20:25:045,-1.439,4.1847,7.0026,53.206,0.0232,0.2602,0.6469,284.5312
15:20:25:067,-1.4174,4.3741,7.5942,53.294,-0.0611,0.1735,0.5455,284.5312
15:20:25:087,-1.3382,4.1393,8.5158,53.0024,-0.0971,0.0654,0.4148,283.7812
15:20:25:107,-1.5108,3.8976,9.3108,52.7866,-0.0599,-0.0177,0.2944,283.7812
15:20:25:126,-1.7261,3.7899,9.5644,52.4328,0.0257,-0.0684,0.2297,282.6875
15:20:25:151,-1.6998,3.7014,9.708,52.3551,0.1014,-0.1588,0.2144,282.6875
15:20:25:167,-1.2305,3.4092,9.8471,51.9431,0.1417,-0.2712,0.2077,281.6562
15:20:25:186,-0.6488,3.0811,10.3065,51.735,0.1136,-0.3329,0.1784,281.6562
15:20:25:207,-0.1388,2.9686,10.8643,51.6199,0.0269,-0.2981,0.149,281.6562
15:20:25:228,0.0718,3.2752,11.1111,51.524,-0.0977,-0.212,0.1435,280.5312
15:20:25:251,0.5363,3.5192,11.5923,51.3309,-0.2456,-0.1808,0.1344,279.625
15:20:25:268,0.8644,3.1795,12.0688,51.215,-0.369,-0.1942,0.0159,279.625
15:20:25:286,0.9601,2.3486,12.3775,51.3149,-0.4569,-0.2242,-0.1619,278.3906
15:20:25:307,1.063,1.4438,13.4213,51.3695,-0.5125,-0.2382,-0.2724,278.3906
15:20:25:326,1.0822,1.0654,13.8835,51.0868,-0.4056,-0.0165,-0.2621,276.8906
15:20:25:346,1.2401,1.5347,11.9489,51.2065,-0.1527,0.4881,-0.0861,276.8906
15:20:25:368,1.5251,2.4347,9.5381,51.0277,0.0391,0.8124,0.1069,275.875
15:20:25:387,1.7596,3.2608,8.31,50.8585,0.1173,0.689,0.0977,275.7812
15:20:25:406,2.0112,3.2201,7.8742,50.7364,0.2028,0.2737,-0.1631,275.25
15:20:25:429,1.5443,2.2241,7.4575,50.4817,0.2462,-0.0935,-0.5333,275.2031
15:20:25:447,0.189,1.4294,8.0058,50.4673,-0.182,-0.1356,-0.7257,274.8438
15:20:25:470,-0.4095,1.7405,8.5229,50.3768,-0.3396,0.0189,-0.6273,274.8125
15:20:25:486,-0.5554,2.126,8.5732,50.6485,-0.2859,0.1686,-0.493,274.5625
15:20:25:505,-0.5411,2.5786,8.3698,50.3788,-0.0635,0.2272,-0.3671,274.5469
15:20:25:525,-0.3353,3.1149,8.0225,50.2897,0.2052,0.2107,-0.2834,274.2812
15:20:25:546,-0.1029,3.6461,7.3618,50.2248,0.427,0.1686,-0.2688,274.25
15:20:25:567,0.0096,4.0938,6.737,50.1949,0.4716,0.1344,-0.3451,274.3594
15:20:25:586,0.1747,4.1465,7.1201,50.5187,0.2944,0.1112,-0.4734,274.8281
15:20:25:606,-0.1747,3.9479,7.6732,50.3581,0.0299,0.1955,-0.62,274.8281
15:20:25:626,-1.1396,3.7995,8.1879,50.2166,-0.2291,0.3366,-0.7312,274.7188
15:20:25:646,-1.3095,3.7134,8.9013,50.2632,-0.3726,0.3464,-0.7318,274.7188
15:20:25:697,-1.2305,3.6006,9.0616,50.4787,-0.3525,0.259,-0.7177,274.7344
15:20:25:697,-1.8458,3.146,9.4831,50.7351,-0.3158,0.1338,-0.711,274.7344
15:20:25:707,-2.6456,3.0188,10.5389,50.7862,-0.2376,-0.0654,-0.5382,274.7344
15:20:25:728,-2.461,3.5623,11.2666,50.9269,0.0098,-0.2278,-0.2364,276.1875
15:20:25:745,-2.1547,4.0077,10.9795,50.8017,0.3048,-0.1991,-0.1307,277.625
15:20:25:768,-2.3198,4.0149,10.2515,50.9509,0.3977,-0.091,-0.2242,277.625
15:20:25:786,-2.4682,3.7804,10.3663,50.9382,0.19,-0.0012,-0.3146,278.5
15:20:25:807,-3.1795,3.2297,11.5828,50.8956,-0.1313,0.0476,-0.4032,278.5
15:20:25:828,-4.18,2.4251,11.8531,50.7984,-0.3421,0.1631,-0.4215,279.1562
15:20:25:851,-4.4004,2.004,12.4732,50.6258,-0.416,0.1136,-0.2969,279.1562
15:20:25:869,-4.0484,1.7046,14.6877,50.4709,-0.3134,-0.2034,-0.1209,280.0469
15:20:25:888,-3.1292,1.2712,16.6295,50.4559,0.1723,-0.5492,0.0666,280.1406
15:20:25:906,-2.8011,1.1037,15.157,50.2888,0.9719,-0.5974,0.2071,281.4219
15:20:25:976,-2.8107,1.4533,11.5325,50.1152,1.6268,-0.4911,0.3128,281.5469
15:20:25:977,-2.3677,1.7213,9.0401,50.1764,1.5278,-0.4765,0.4032,282.8438
15:20:25:977,-1.8218,2.2839,6.7825,50.1929,1.0568,-0.2669,0.358,282.9688
15:20:25:986,-2.0112,2.0495,6.6963,50.0474,0.4612,0.0556,0.2883,284.1406
15:20:26:006,-2.004,1.829,6.7298,50.0356,-0.0568,0.3592,0.2608,284.25
15:20:26:025,-1.7979,1.9032,6.9404,49.8029,-0.3861,0.5388,0.2523,284.7031
15:20:26:047,-1.9825,1.4868,6.6365,49.4636,-0.5266,0.5308,0.2272,285.375
15:20:26:069,-2.4203,1.5347,7.3427,49.0255,-0.5168,0.2016,0.2578,285.375
15:20:26:087,-2.3174,1.6256,7.946,48.6293,-0.3384,-0.1576,0.3751,286.1875
15:20:26:106,-2.4132,1.841,7.6134,48.1751,-0.0861,-0.2969,0.4661,286.1875
15:20:26:128,-2.5738,2.1165,7.7282,47.5383,0.0617,-0.27,0.5412,286.6094
15:20:26:152,-2.205,2.3342,7.7354,47.1299,0.0916,-0.0055,0.6689,286.6094
15:20:26:168,-1.884,2.758,7.046,46.5396,0.0629,0.3445,0.7874,286.6094
15:20:26:187,-1.5012,3.4164,6.9811,46.1908,-0.0177,0.4166,0.8595,286.5781
15:20:26:207,-1.1731,3.9503,7.7641,45.7115,-0.0959,0.2718,0.8314,286.5781
15:20:26:226,-1.1803,3.9168,8.997,45.5142,-0.113,0.1161,0.7269,286.3906
15:20:26:246,-0.8907,3.9168,9.0042,44.9839,-0.0391,0.1258,0.6652,286
15:20:26:268,-0.7373,4.2114,9.0305,44.4036,-0.0611,0.1045,0.6078,286
15:20:26:288,-0.8668,3.8402,10.4815,43.9063,-0.2114,-0.0837,0.5327,285.3906
15:20:26:308,-0.4334,3.2393,11.9393,43.5751,-0.2822,-0.1967,0.5467,285.3906
15:20:26:328,0.067,3.6006,12.0183,43.0836,-0.259,-0.0684,0.606,284.5781
15:20:26:347,0.0718,4.0436,11.8938,42.8477,-0.3189,0.2132,0.6127,284.5781
15:20:26:368,0.5363,4.0914,10.7471,42.4857,-0.3818,0.6182,0.5797,283.8281
15:20:26:387,0.9673,3.4116,8.3363,41.7871,-0.4728,0.8857,0.4245,283.7656
15:20:26:406,0.0933,2.3174,8.377,41.2509,-0.7355,0.7654,0.1985,282.8125
15:20:26:426,-0.443,1.4222,10.7423,40.8541,-0.9548,0.4649,0.1594,282.7188
15:20:26:449,-0.2512,1.5826,11.712,40.2908,-0.8924,0.4239,0.3011,281.25
15:20:26:470,0.9888,2.7078,10.9217,39.5015,-0.3592,0.0623,0.3909,281.0938
15:20:26:488,1.3119,2.8992,10.6107,38.9517,-0.1949,-0.2944,0.2211,279.2969
15:20:26:506,1.0104,2.4754,11.2762,38.3331,-0.3311,-0.2706,-0.0318,279.125
15:20:26:526,0.0479,1.7261,12.0063,37.824,-0.5003,0.1417,-0.2248,277.6719
15:20:26:546,-0.7588,1.5467,11.0034,37.6186,-0.4129,0.7098,-0.2529,276.3438
15:20:26:568,-0.9242,2.5379,7.3642,37.4071,-0.1264,1.05,-0.1881,276.3438
15:20:26:585,-1.4028,2.4897,4.8936,36.9303,0.2144,0.4734,-0.2291,275.0469
15:20:26:605,-0.9864,2.4562,5.662,36.9664,0.1967,-0.1759,-0.2199,275.0469
15:20:26:626,-1.1157,2.8346,5.9638,36.7596,-0.0367,-0.1802,-0.2193,273.5469
15:20:26:645,-1.7142,2.959,6.1863,36.7523,-0.2504,-0.2022,-0.2889,273.4062
15:20:26:699,-2.1858,2.2074,6.8734,36.5279,-0.3616,-0.5235,-0.3134,273.3906
15:20:26:700,-1.6089,2.1691,7.6301,36.3331,-0.369,-0.9572,-0.1833,272.3281
15:20:26:712,-1.2616,2.8035,8.9037,35.841,-0.3879,-1.1374,-0.0751,272.3125
15:20:26:732,-0.9553,3.0667,10.072,35.5197,-0.405,-1.0128,-0.0385,271.4375
15:20:26:759,-0.6488,2.8035,9.9308,35.4172,-0.3622,-0.7385,-0.0599,270.3438
15:20:26:777,-1.2736,2.0423,11.6426,35.101,-0.2969,-0.7049,-0.0867,270.3438
15:20:26:786,-1.2377,2.0806,12.2626,35.0921,-0.1411,-0.3415,0.0086,270.0938
15:20:26:806,-2.4467,2.2863,12.0398,34.6638,0.1533,0.168,0.2181,270.0938
15:20:26:827,-2.5929,2.557,11.3623,34.4318,0.2798,0.4453,0.5754,270.3906
15:20:26:849,-2.3964,2.7437,11.2307,34.2889,0.1539,0.5876,0.8601,270.3906
15:20:26:866,-2.2959,3.347,11.6378,34.0649,-0.0214,0.4795,1.0922,270.7344
15:20:26:886,-1.951,3.888,12.0398,33.9058,-0.0525,0.2944,1.1979,270.7344
15:20:26:906,-2.0782,3.9981,12.3559,33.5713,0.0568,0.1961,1.0445,271.2344
15:20:26:927,-2.7365,3.3924,12.775,33.1816,0.2382,0.1173,0.7752,271.2812
15:20:26:947,-3.4786,1.8673,12.3416,32.8046,0.3402,0.223,0.5229,271.8438
15:20:26:970,-3.4187,-0.6272,12.3631,32.4297,0.3286,-0.0348,0.6609,271.9062
15:20:26:988,-3.9335,-0.5267,11.511,32.0438,0.5528,-0.1209,1.0745,272.2031
15:20:27:006,-3.8498,-0.0861,9.0066,31.6057,0.7257,0.0275,1.4545,272.2344
15:20:27:026,-3.0909,0.3305,7.4862,31.5779,0.6383,-0.0244,1.6616,272.3438
15:20:27:046,-2.1691,0.8764,7.3522,31.2633,0.3659,-0.2126,1.733,272.4375
15:20:27:071,-1.1324,1.4342,8.3746,30.9123,0.0421,-0.3567,1.7239,272.4375
15:20:27:088,-0.2827,1.8625,9.6386,30.5385,-0.2028,-0.2883,1.5883,272.4531
15:20:27:106,-0.0814,1.8817,9.6003,30.1895,-0.3354,0.0696,1.3255,271.6875
15:20:27:127,-0.6607,1.2568,8.4823,30.1072,-0.4184,0.5027,1.0268,271.6094
15:20:27:146,-1.1444,0.6248,6.8542,29.8357,-0.4893,0.7587,0.8912,269.6094
15:20:27:167,-1.276,0.4573,6.469,29.6943,-0.518,0.6139,0.9871,269.4062
15:20:27:186,-0.9314,0.7134,7.0651,29.2651,-0.4771,0.3598,1.1673,266.9062
15:20:27:207,-0.62,1.1324,7.4121,29.0119,-0.3909,0.3207,1.2718,266.8906
15:20:27:226,-0.6799,1.3645,6.9882,28.8563,-0.3439,0.4887,1.2962,265.5156
15:20:27:247,-0.9266,1.5754,6.7466,28.7,-0.383,0.6328,1.3219,264.3594
15:20:27:268,-0.8306,1.7046,6.9523,28.4874,-0.463,0.6218,1.3727,264.3594
15:20:27:286,-0.5626,2.0088,7.3355,28.176,-0.4807,0.4875,1.4111,261.7656
15:20:27:307,-0.5171,2.3581,8.1736,28.0697,-0.4655,0.3054,1.3733,261.7656
15:20:27:326,-0.3808,2.6719,9.253,27.6836,-0.4697,0.1747,1.2926,258.1875
15:20:27:347,0.4358,2.9303,10.5556,27.3371,-0.5143,0.0983,1.1686,258.1875
15:20:27:371,0.9673,2.7867,11.0728,27.074,-0.5803,0.0751,0.9254,254.6094
15:20:27:387,0.7516,2.3079,12.076,26.8782,-0.6622,-0.0104,0.6121,254.6094
15:20:27:406,0.2536,1.3502,13.0956,26.5612,-0.6823,-0.1338,0.3586,252.1094
15:20:27:427,-0.2922,0.4669,13.1028,26.3034,-0.6334,-0.1857,0.248,251.8594
15:20:27:452,-0.0598,0.0335,13.0765,26.146,-0.6597,-0.2254,0.3128,249.7031
15:20:27:469,0.7684,-0.1699,13.8332,25.8298,-0.7495,-0.3103,0.4111,249.5
15:20:27:490,0.6057,-0.8378,14.7739,25.6149,-0.5485,-0.1387,0.3696,246.8906
15:20:27:506,0.1388,-0.7636,12.2937,25.4131,-0.182,0.2181,0.4502,246.625
15:20:27:527,0.1196,-0.1603,9.8109,25.5066,0.0855,0.3384,0.6078,243.7969
15:20:27:545,0.7923,0.2632,9.2653,25.2923,0.1545,0.0574,0.7025,240.5156
15:20:27:570,1.6089,0.5315,9.2459,25.3694,0.1594,-0.281,0.6677,240.5156
15:20:27:586,2.0806,0.7253,9.1119,25.3972,0.1851,-0.5388,0.5235,240.2031
15:20:27:606,1.9415,0.833,8.6833,25.3674,0.1826,-0.5956,0.3042,237.3906
15:20:27:626,1.2832,0.7062,7.733,25.3836,0.1051,-0.427,0.0745,237.1094
15:20:27:647,0.6535,0.5578,6.9619,25.3786,-0.0373,-0.2376,-0.0654,234.8594
15:20:27:706,0.1771,0.5195,6.938,25.5815,-0.1759,-0.1802,-0.0971,234.6406
15:20:27:706,-0.1029,0.7971,7.022,25.4063,-0.2981,-0.0977,-0.0806,233.4219
15:20:27:707,-0.2345,0.9697,7.0173,25.3658,-0.4038,0.0177,-0.0556,233.4062
15:20:27:727,0.0239,1.0008,7.3738,25.4644,-0.5003,0.0745,-0.0012,232.6875
15:20:27:745,0.7588,1.2808,8.3698,25.4214,-0.532,0.0397,0.0849,231.6875
15:20:27:768,1.2233,1.5945,8.9755,25.3375,-0.4661,0.0586,0.0672,231.6875
15:20:27:787,1.1635,1.9247,9.7391,25.3156,-0.3897,0.1002,-0.047,230.7031
15:20:27:807,0.7349,1.7357,10.8212,25.3353,-0.2987,0.1515,-0.2107,230.7031
15:20:27:827,-0.0646,1.2353,11.1494,24.9863,-0.1631,0.2816,-0.3317,229.2656
15:20:27:852,-0.5937,0.8883,11.2905,25.1868,-0.0617,0.4129,-0.2987,229.2656
15:20:27:868,-1.063,0.7971,11.7814,25.476,-0.0214,0.518,-0.1539,228.0469
15:20:27:887,-1.6807,0.996,12.6024,25.4514,0.0305,0.5846,0.0483,228.0469
15:20:27:906,-1.9175,1.1492,12.6577,25.6226,0.193,0.6194,0.2902,227.75
15:20:27:926,-1.884,1.1659,12.1214,25.5581,0.4025,0.5675,0.5192,227.7188
15:20:27:947,-1.5802,1.0917,11.5708,25.6163,0.5247,0.4258,0.7147,227.8906
15:20:27:967,-1.2712,1.0175,11.5588,25.6953,0.4777,0.2975,0.8253,227.9219
15:20:28:047,-1.3669,1.0008,12.4636,26.0793,0.314,0.2718,0.8576,228.0156
15:20:28:048,-1.8147,0.9338,12.1717,25.8558,0.2016,0.4716,0.8906,228.0156
15:20:28:048,-2.071,0.7828,11.1852,25.9199,0.0941,0.4404,1.0268,227.8594
15:20:28:048,-2.2409,0.4501,11.8651,25.8311,0.1264,0.1277,1.0873,227.8438
15:20:28:069,-1.9439,0.5219,11.621,25.994,0.3274,-0.0086,1.1667,227.75
15:20:28:085,-1.4653,0.8859,9.775,26.1241,0.5919,-0.0189,1.2193,227.75
15:20:28:106,-0.984,1.1898,7.7474,26.3307,0.6658,-0.0904,1.149,228.2344
15:20:28:127,-0.9553,1.3382,7.0149,26.4691,0.4386,-0.2547,0.9609,228.2812
15:20:28:146,-1.2018,0.9697,8.2741,26.7087,0.0293,-0.449,0.7532,228.6875
15:20:28:169,-1.3813,0.4597,10.5987,27.0845,-0.2816,-0.5534,0.6304,228.7344
15:20:28:187,-1.2808,0.1579,12.119,27.278,-0.3005,-0.4203,0.6145,228.3281
15:20:28:206,-0.9912,0.079,11.1302,27.4141,-0.0715,-0.0299,0.6658,228.3281
15:20:28:227,-0.7875,0.419,8.6689,27.4214,0.1881,0.3091,0.7269,227.0312
15:20:28:246,-0.3401,0.7516,6.5575,27.6518,0.2938,0.3714,0.7568,225.25
15:20:28:268,-0.0167,0.917,5.8845,27.8889,0.2034,0.1961,0.7104,225.25
15:20:28:286,-0.0622,1.2736,6.8064,28.0308,-0.0043,-0.0165,0.6377,223.1719
15:20:28:306,-0.2465,1.5802,8.0704,28.0795,-0.1509,-0.0904,0.576,223.1719
15:20:28:328,-0.1699,1.6902,8.554,28.2248,-0.1283,0.0037,0.5339,220.8281
15:20:28:346,-0.1723,1.6328,7.8838,28.228,-0.0745,0.2572,0.4868,220.8281
15:20:28:368,-0.5937,1.829,6.8399,28.4914,-0.146,0.5033,0.4508,218.3281
15:20:28:388,-1.0702,1.9944,7.1225,28.801,-0.3066,0.4972,0.4429,218.3281
15:20:28:407,-1.1515,1.4222,9.4687,29.0099,-0.4251,0.3109,0.4765,216.1719
15:20:28:428,-1.2927,1.0941,10.7207,28.9791,-0.5107,0.4917,0.554,216.1719
15:20:28:446,-0.7804,1.2975,11.1685,29.1592,-0.584,0.7739,0.6622,214.8594
15:20:28:468,0.1244,1.6184,11.3073,29.328,-0.5895,0.7758,0.6738,214.7188
15:20:28:488,0.4573,1.4246,11.7861,29.4624,-0.5394,0.4972,0.4905,213.4531
15:20:28:508,0.3042,1.0271,12.4828,29.6584,-0.4203,0.1246,0.2584,213.3281
15:20:28:528,-0.189,0.6775,11.98,29.8748,-0.2523,-0.1173,0.0794,211.8125
15:20:28:553,-0.1244,0.1029,11.5612,29.9373,-0.3928,-0.4777,-0.033,211.6562
15:20:28:571,0.0072,-0.5052,12.9114,30.1517,-0.631,-0.5736,-0.0629,210.3125
15:20:28:586,0.1364,-1.2497,14.3599,30.276,-0.6872,-0.5504,-0.0593,210.1719
15:20:28:606,0.213,-1.6304,14.9441,30.4286,-0.4404,-0.4294,-0.0116,209.0469
15:20:28:627,0.5004,-1.5132,12.9066,30.5281,0.1112,-0.2547,0.1167,208.9375
15:20:28:646,0.8788,-0.9912,10.1892,30.4787,0.6243,-0.2724,0.2395,207.8906
15:20:28:716,1.7046,-0.3784,8.7027,30.6877,0.81,-0.4697,0.2834,207.7812
15:20:28:717,2.9303,0.201,8.5995,30.8459,0.7263,-0.6487,0.2089,206.5938
15:20:28:718,3.402,0.6559,8.2525,30.81,0.493,-0.5773,-0.0788,206.5781
15:20:28:727,2.916,0.6727,8.2549,30.7289,0.2559,-0.4612,-0.4997,204.9844
15:20:28:752,1.6328,0.3425,8.1401,30.8679,0.0647,-0.3128,-0.8479,203.4219
15:20:28:766,0.3999,-0.0311,8.1015,30.9156,-0.0544,-0.1387,-1.0391,203.4219
15:20:28:786,-0.4023,-0.1819,7.6349,31.1105,-0.1118,0.1063,-1.0226,202.9531
15:20:28:806,-0.8186,-0.0383,6.9763,31.3391,-0.1332,0.2957,-0.8888,202.9531
15:20:28:827,-0.3353,0.7947,6.5575,31.3018,-0.1155,0.2914,-0.7074,202.9688
15:20:28:846,0.1507,1.3741,6.7059,31.1798,-0.1258,0.1924,-0.6347,202.9688
15:20:28:869,0.5913,1.7979,7.1943,31.0828,-0.2193,0.1924,-0.667,203.0469
15:20:28:886,0.4525,1.7979,7.7856,31.0752,-0.336,0.2517,-0.7886,203.0469
15:20:28:907,0.1244,1.5012,8.3722,31.2582,-0.3891,0.2364,-0.8845,202.9531
15:20:28:927,-0.2512,1.1683,8.8415,31.4462,-0.3928,0.1545,-0.9053,202.9531
15:20:28:946,-0.6535,0.7875,9.7582,31.5595,-0.4007,0.0171,-0.8479,202.625
15:20:28:967,-0.8282,0.4956,11.147,31.7535,-0.3946,-0.1136,-0.7165,202.5938
15:20:28:986,-1.3502,0.3544,12.454,31.9865,-0.3274,-0.1655,-0.543,202.6562
15:20:29:006,-2.2313,0.2874,13.6606,32.1957,-0.1466,-0.1906,-0.2993,202.6562
15:20:29:028,-1.5227,0.213,13.0095,32.5325,0.642,-0.1643,0.4416,204.0938
15:20:29:047,-0.874,0.9075,11.779,32.7734,0.8369,0.0031,0.7513,204.2344
15:20:29:072,-0.3425,1.8936,11.2834,32.8557,0.7397,0.179,0.9407,206.2812
15:20:29:086,-0.3257,2.5307,11.3384,33.0345,0.5394,0.284,0.9541,206.4844
15:20:29:106,-0.8788,2.5232,11.056,33.1862,0.4117,0.3305,0.8454,208.0156
15:20:29:125,-0.9266,2.2098,10.3543,33.2201,0.3396,0.2767,0.7715,208.1719
15:20:29:146,-0.268,1.9487,10.3711,33.2115,0.1979,0.0916,0.719,209.4219
15:20:29:168,0.0407,1.4677,11.2642,33.4594,0.0086,-0.1478,0.5846,209.5469
15:20:29:187,-0.5937,0.7253,12.6888,33.8653,-0.0623,-0.2993,0.4117,211.125
15:20:29:206,-1.8625,0.0215,12.2937,34.1508,0.1429,-0.157,0.3726,211.2812
15:20:29:227,-2.5905,-0.2608,9.4854,34.4407,0.4783,0.1503,0.554,213.1094
15:20:29:247,-2.4012,0.3018,6.9523,34.6835,0.5986,0.1875,0.8301,214.4531
15:20:29:272,-1.4438,1.0941,6.926,34.9107,0.3561,-0.1032,0.9945,214.4531
15:20:29:288,0.0526,1.427,9.0209,35.1246,0.0018,-0.4722,0.9706,214.75
15:20:29:307,0.9529,1.2592,11.4197,35.5281,-0.19,-0.6206,0.7397,214.75
15:20:29:327,0.6942,0.9218,12.0784,35.7249,-0.1387,-0.4294,0.4355,213.6094
15:20:29:345,-0.0167,0.5171,10.8667,35.9245,0.0709,-0.1442,0.2162,213.6094
15:20:29:369,-0.6488,0.1938,9.5166,36.173,0.2321,0.0214,0.1344,211.625
15:20:29:387,-1.2377,0.0885,9.0185,36.3564,0.2498,0.1008,0.1759,211.625
15:20:29:407,-1.4079,0.1244,8.918,36.7102,0.2504,0.1814,0.314,209.8594
15:20:29:428,-1.2185,0.419,8.1664,36.9419,0.3262,0.3476,0.4936,209.8594
15:20:29:447,-1.0175,0.9625,6.816,37.2698,0.3873,0.554,0.631,208.5625
15:20:29:469,-0.833,1.5299,5.5304,37.5537,0.3134,0.7153,0.6915,208.4375
15:20:29:489,-0.7014,2.0423,4.9199,38.0213,0.1008,0.7373,0.6768,207.7031
15:20:29:507,-0.7181,2.473,5.6501,38.2817,-0.1979,0.6139,0.6011,207.625
15:20:29:529,-0.5818,2.4634,8.7242,38.4961,-0.5571,0.3873,0.3732,206.2969
15:20:29:553,-0.8402,2.2768,9.5907,38.8867,-0.5718,0.3213,0.2395,206.1719
15:20:29:570,-1.1683,2.0471,10.3328,38.9944,-0.5718,0.1515,0.1582,204.2969
15:20:29:587,-0.9338,1.5419,11.8316,39.3727,-0.532,-0.2132,0.1515,204.1094
15:20:29:606,0.122,0.6248,13.5673,39.6229,-0.3977,-0.5809,0.1704,203.0312
15:20:29:625,0.8043,-0.2441,14.5609,39.856,-0.2492,-0.6273,0.1857,202.9219
15:20:29:645,0.6392,-0.3401,14.1203,39.901,-0.1545,-0.3121,0.2523,202.5938
15:20:29:716,0.51,0.3233,12.3272,40.0169,-0.1216,0.0977,0.3952,202.5625
15:20:29:717,1.1061,0.941,10.7447,40.3728,-0.2022,0.2706,0.5021,202.0625
15:20:29:717,1.9705,1.0798,10.905,40.5178,-0.4166,0.1484,0.441,202.0156
15:20:29:727,2.272,0.4932,12.478,40.7702,-0.617,-0.0049,0.2242,200.7031
15:20:29:746,1.4486,-0.5195,13.9313,40.6564,-0.5773,0.0049,-0.0232,199.0156
15:20:29:769,0.3209,-1.3358,13.3831,40.7393,-0.1796,0.1716,-0.0702,199.0156
15:20:29:786,0.012,-1.2185,11.0465,41.2192,0.3598,0.3103,0.1393,197.5781
15:20:29:806,0.2106,-0.443,8.554,41.5775,0.697,0.2504,0.3903,197.5781
15:20:29:827,0.9673,0.7923,7.3546,42.0642,0.678,0.0031,0.518,196.6875
15:20:29:846,2.2935,1.4342,7.4934,42.1512,0.3616,-0.2278,0.4123,196.6875
15:20:29:870,2.9447,1.2592,8.5229,42.3396,-0.1148,-0.2847,0.0415,196.2344
15:20:29:888,2.0136,0.8979,9.9595,42.5957,-0.532,-0.1759,-0.427,196.2344
15:20:29:907,0.3497,0.3999,10.6825,43.0187,-0.6408,0.0055,-0.7733,195.9375
15:20:29:928,-0.8955,-0.1005,10.0792,43.4388,-0.4117,0.1429,-0.8656,195.9375
15:20:29:946,-1.3334,-0.3544,8.4224,43.5876,-0.0483,0.1784,-0.733,195.2344
15:20:29:970,-1.0774,-0.0981,6.8901,43.9579,0.2016,0.11,-0.4985,195.2344
15:20:29:987,-0.3257,0.5746,6.5001,44.1956,0.2285,0.0067,-0.2914,194.2031
15:20:30:006,0.4358,1.3214,7.0074,44.9499,0.1093,-0.0012,-0.212,194.0938
15:20:30:027,0.352,1.5467,7.8215,45.8089,-0.0849,0.2883,-0.4209,193.7969
15:20:30:108,0.1747,1.3334,7.8694,46.4149,-0.1026,0.35,-0.4734,193.7812
15:20:30:108,0.1364,1.4366,8.9109,47.2399,-0.1326,0.2566,-0.46,193.6719
15:20:30:108,0.256,1.331,9.9835,47.841,-0.1753,0.2382,-0.4704,193.6562
15:20:30:109,-0.0431,1.185,10.8523,48.2813,-0.2443,0.3598,-0.5217,192.8438
15:20:30:126,-0.687,1.2712,11.9895,48.7272,-0.2895,0.5076,-0.5357,192.7656
15:20:30:145,-1.5634,1.2664,12.4517,49.2922,-0.1985,0.6011,-0.4679,192.375
15:20:30:169,-2.193,0.862,12.5617,49.6224,0.0263,0.4862,-0.3134,192.3281
15:20:30:186,-2.2026,0.5506,12.4852,49.7733,0.2871,0.2376,-0.0666,193.4531
15:20:30:206,-1.7668,0.5722,12.1621,50.1794,0.4661,0.0403,0.1973,193.5625
15:20:30:228,-1.7788,1.1228,11.4269,50.3809,0.4667,0.0812,0.3891,195.25
15:20:30:246,-2.1811,1.4222,10.2562,50.8435,0.3054,0.2865,0.5137,196.1562
15:20:30:267,-1.9896,1.7931,9.1669,51.274,0.1155,0.3549,0.6573,196.1562
15:20:30:286,-1.427,2.0686,9.3586,51.7748,-0.1057,0.1332,0.711,196.7031
15:20:30:306,-1.7596,1.0941,10.649,52.1968,-0.3085,-0.146,0.5589,196.7031
15:20:30:327,-2.7197,-0.1627,12.1573,52.5204,-0.474,-0.2388,0.3964,197.6094
15:20:30:345,-3.0933,-0.9338,13.675,52.6801,-0.3152,-0.3622,0.5204,197.6094
15:20:30:371,-2.9614,-0.9362,12.454,52.8409,0.1894,-0.3555,0.7917,198.5469
15:20:30:388,-2.3294,-0.376,9.6697,53.1986,0.6444,-0.2871,1,198.5469
15:20:30:407,-1.5514,0.6823,8.219,53.1422,0.6225,-0.2853,1.0311,199.5781
15:20:30:426,-0.941,1.0798,8.7793,53.0701,0.1924,-0.2358,0.8515,199.5781
15:20:30:446,-1.0175,0.4669,10.3929,52.8614,-0.2804,-0.0476,0.5516,200.3281
15:20:30:470,-1.5108,-0.1962,11.1852,52.7564,-0.4581,0.2291,0.336,200.3281
15:20:30:487,-1.9777,-0.3257,10.3591,52.7888,-0.3109,0.4997,0.2944,200.2656
15:20:30:506,-1.9104,0.0742,8.2238,52.6557,-0.0281,0.664,0.3848,200.2656
15:20:30:526,-1.276,0.7564,6.4642,52.4927,0.179,0.5748,0.4667,199.4375
15:20:30:547,-0.8907,2.2457,6.8016,52.2305,0.055,0.0012,0.2517,199.3438
15:20:30:571,-1.4509,1.896,8.6498,52.1742,-0.0812,-0.1979,0.0654,197.9375
15:20:30:588,-1.5299,1.2138,9.9811,52.2006,0.0037,-0.2474,0.0018,197.7969
15:20:30:605,-1.3717,1.0702,9.8181,52.2771,0.2908,-0.1399,0.044,196.7812
15:20:30:625,-1.2712,1.2377,8.6928,52.1324,0.5308,0.0489,0.1222,196.6719
15:20:30:646,-1.075,1.7453,7.5748,52.1422,0.43,0.3219,0.182,195.4062
15:20:30:719,-0.6272,2.2457,8.2214,52.3676,0.2193,0.325,0.2016,195.2812
15:20:30:719,-0.1986,2.4562,9.0855,52.7888,0.1313,0.1594,0.1313,193.4531
15:20:30:720,0.1316,2.3677,9.8638,53.1049,0.1723,-0.0678,-0.0348,193.2656
15:20:30:727,0.0287,1.9343,10.4192,53.2886,0.1356,-0.1558,-0.2144,191.875
15:20:30:746,-0.3999,0.941,10.8476,53.6777,0.0098,-0.1558,-0.3341,191.75
15:20:30:768,-0.1962,0.2417,11.767,53.8945,-0.088,-0.2425,-0.2853,190.8594
15:20:30:786,0.1938,-0.1077,12.1214,54.0417,-0.0886,-0.2651,-0.1527,189.8125
15:20:30:807,0.3855,-0.0407,11.5134,54.1201,-0.0935,-0.1319,-0.0086,189.8125
15:20:30:827,0.6057,0.4693,10.5485,54.1934,-0.1845,-0.0214,0.1271,189.0625
15:20:30:846,1.2592,1.2018,10.582,53.8227,-0.3164,-0.1729,0.1723,189.0625
15:20:30:870,1.6041,1.0319,11.5684,53.8979,-0.471,-0.3958,0.0098,189.0156
15:20:30:888,1.4533,0.0814,12.6864,53.8038,-0.5278,-0.5382,-0.237,189.0156
15:20:30:906,0.8258,-0.7181,13.3232,53.6372,-0.427,-0.5162,-0.3909,188.9531
15:20:30:927,0.2417,-1.2233,12.588,53.6453,-0.1497,-0.3231,-0.3567,188.9531
15:20:30:946,0.0574,-1.1109,10.5604,53.7585,0.1894,-0.1429,-0.1478,188.5156
15:20:30:972,0.7086,0.0048,9.1478,53.782,0.3763,-0.19,0.0745,188.5156
15:20:30:986,2.0279,0.9123,8.9252,53.9381,0.3311,-0.3366,0.0666,188.4375
15:20:31:007,3.05,0.9386,9.3108,54.3719,0.1356,-0.3793,-0.2352,188.4375
15:20:31:026,2.5259,0.2752,9.8734,54.1726,-0.1228,-0.2169,-0.6964,189.0312
15:20:31:047,0.8402,-0.4358,9.7941,54.5772,-0.2834,0.0782,-1.036,189.0938
15:20:31:070,-1.0128,-0.6224,8.1326,54.9491,0.0037,0.3567,-0.8833,189.5781
15:20:31:089,-0.3329,0.067,7.1154,55.1488,0.2517,0.3335,-0.6231,189.625
15:20:31:106,0.6272,1.0606,6.7537,55.3147,0.3714,0.2883,-0.5052,189.5
15:20:31:126,1.3765,2.0207,7.0436,55.7416,0.3518,0.3378,-0.5999,189.5
15:20:31:146,1.1731,2.5546,6.8734,56.0995,0.3097,0.4734,-0.8723,189.2969
15:20:31:172,-0.0766,2.4682,6.4161,56.3066,0.2865,0.5198,-1.1924,189.2812
15:20:31:189,-1.2616,1.9705,6.4519,56.9258,0.2144,0.4398,-1.3635,189.9219
15:20:31:206,-1.8936,1.4581,6.6556,57.2103,0.0293,0.3842,-1.3329,189.9844
15:20:31:227,-2.0112,1.2784,7.5676,57.5868,-0.2975,0.3512,-1.1942,190.5469
15:20:31:246,-1.9415,1.2305,9.7008,58.1148,-0.6915,0.3189,-1.0281,190.6094
15:20:31:271,-1.9944,1.1515,12.5785,58.6148,-0.9578,0.3231,-0.8723,190.5938
15:20:31:287,-2.3581,0.8091,14.549,58.8821,-0.8912,0.3983,-0.7006,191.6875
15:20:31:306,-2.7867,0.577,15.2456,58.9318,-0.4496,0.3708,-0.4655,191.6875
15:20:31:326,-2.9016,0.5506,14.5849,59.2404,0.1991,0.2217,-0.1881,193.9219
15:20:31:346,-2.9925,0.7851,12.7846,59.4578,0.755,0.069,0.0568,193.9219
15:20:31:366,-2.9471,1.2281,11.5636,59.6767,0.9529,-0.0397,0.2333,195.5312
15:20:31:387,-2.7221,1.5802,10.5102,59.6948,0.8552,-0.0324,0.3396,195.5312
15:20:31:406,-2.3366,1.5754,9.5836,59.6223,0.5693,-0.0165,0.3457,196.7656
15:20:31:427,-2.126,1.2497,10.4288,59.6636,0.1057,-0.1124,0.2682,196.7656
15:20:31:447,-2.2481,0.4286,12.4804,59.4653,-0.3329,-0.1875,0.1863,198.9844
15:20:31:471,-2.7628,-0.5889,14.3384,59.5493,-0.4667,-0.1051,0.1839,198.9844
15:20:31:487,-3.256,-1.2832,13.6654,59.4361,-0.1411,0.168,0.3451,201.625
15:20:31:507,-3.2106,-0.9505,10.0672,59.1005,0.4532,0.4484,0.6396,201.875
15:20:31:527,-2.6456,0.2154,6.5719,58.7238,0.824,0.408,0.843,203.9062
15:20:31:546,-2.1882,1.3669,4.951,58.3211,0.7019,0.0886,0.7978,204.1094
15:20:31:572,-1.7979,1.5562,5.8606,57.9334,0.2052,-0.2798,0.5522,205.3594
15:20:31:588,-1.7261,0.6416,8.4081,57.4885,-0.3445,-0.4471,0.2437,205.4844
15:20:31:608,-2.9231,-0.6392,10.7853,57.2564,-0.653,-0.0922,0.0391,206.0625
15:20:31:626,-3.0188,-0.7732,10.4049,56.9323,-0.4343,0.0495,0.2156,206.125
15:20:31:646,-2.4754,-0.5315,10.0433,56.54,-0.1936,0.0757,0.4649,206.1094
15:20:31:713,-1.8123,0.1507,9.9739,56.2455,-0.0293,0.0922,0.6744,206.1094
15:20:31:714,-1.5203,0.9218,9.4711,56.0389,0.1087,0.2107,0.7794,205.6562
15:20:31:714,-1.4629,1.4773,8.3076,55.7356,0.2474,0.372,0.7941,205.6094
15:20:31:727,-1.4342,1.8434,7.1321,55.5736,0.3274,0.4575,0.7636,205.1562
15:20:31:745,-1.4151,2.26,6.2366,55.296,0.3134,0.4496,0.7141,204.4219
15:20:31:771,-1.2808,2.6767,5.7266,54.8439,0.2065,0.3677,0.6298,204.4219
15:20:31:786,-1.252,2.9853,6.2103,54.4892,0.0134,0.1985,0.4856,202.9219
15:20:31:805,-1.5108,2.8394,7.7282,54.1393,-0.2083,0.0244,0.3024,202.9219
15:20:31:826,-1.8099,2.4347,9.1908,53.6577,-0.3299,-0.0959,0.1637,201.6094
15:20:31:847,-1.774,2.1308,10.2251,53.0771,-0.3231,-0.2364,0.1051,201.6094
15:20:31:870,-1.3741,1.9463,11.3815,52.5092,-0.2785,-0.4484,0.0806,201.2188
15:20:31:887,-0.8378,1.5443,13.1507,51.7776,-0.2395,-0.6212,0.036,201.2188
15:20:31:906,-0.6081,0.6488,13.7348,51.4992,-0.1423,-0.5565,-0.0269,200.7656
15:20:31:926,-0.9769,-0.0167,12.842,51.1317,-0.0446,-0.3103,-0.025,200.7656
15:20:31:946,-1.1085,0.2369,11.2522,50.6973,-0.0428,-0.124,0.124,199.4688
15:20:31:972,-0.2417,0.8764,10.5628,50.3065,-0.1936,-0.1692,0.2938,199.4688
15:20:31:986,0.8163,1.0917,11.3551,50.0544,-0.4465,-0.3421,0.2718,197.7188
15:20:32:006,1.0056,0.2393,12.4086,49.5924,-0.6579,-0.4087,0.0635,197.7188
15:20:32:027,0.4525,-0.8764,13.4907,49.4708,-0.7006,-0.3757,-0.1136,196.2344
15:20:32:047,-0.5483,-1.6184,13.5362,49.4671,-0.452,-0.2511,-0.1179,196.0781
15:20:32:073,-0.3401,-0.8668,9.5836,49.173,0.4881,0.0238,0.4361,194.9219
15:20:32:089,0.766,0.4262,8.444,48.7397,0.7037,-0.1136,0.5901,194.8125
15:20:32:107,1.9968,1.4438,7.9244,48.5135,0.6622,-0.2682,0.4545,194.2656
15:20:32:165,2.9112,1.6161,8.0058,48.2312,0.4288,-0.3537,0.0476,194.2031
15:20:32:165,2.7269,1.1013,8.3865,48.1289,0.1179,-0.3109,-0.4997,194.0156
15:20:32:175,1.1635,0.4406,8.5828,48.5743,-0.1625,-0.1167,-0.9896,194
15:20:32:188,-0.5722,-0.1412,8.3842,48.7052,-0.2987,0.1118,-1.2351,194.0625
15:20:32:206,-1.5491,-0.3592,7.7282,48.8418,-0.2621,0.259,-1.1979,194.0625
15:20:32:227,-1.7189,-0.0837,6.8542,48.8945,-0.1466,0.2804,-1.0061,194.0156
15:20:32:246,-1.3741,0.5028,6.4424,49.3072,-0.0806,0.19,-0.8204,193.4219
15:20:32:269,-0.9553,0.9649,6.5647,49.6356,-0.1112,0.0971,-0.7397,193.4219
15:20:32:287,-0.8019,1.2042,6.804,50.0787,-0.1997,0.0776,-0.7575,193.3281
15:20:32:306,-1.008,1.185,7.4001,50.5044,-0.2987,0.0788,-0.8204,193.3281
15:20:32:328,-1.4868,1.0558,8.3267,50.6828,-0.3879,0.0794,-0.8558,193.3125
15:20:32:346,-2.0782,1.0247,9.1573,50.7816,-0.4392,0.1301,-0.8082,193.3125
15:20:32:370,-2.4873,1.075,10.2012,50.7087,-0.4716,0.1704,-0.6664,192.3438
15:20:32:387,-2.4132,1.0152,11.5684,50.9561,-0.4368,0.1216,-0.4484,192.3438
15:20:32:406,-1.9271,1.0893,13.0406,51.0555,-0.2688,0.0232,-0.201,191.9844
15:20:32:426,-1.6041,1.3693,13.395,51.0325,0.0012,0.0421,0.0086,191.9844
15:20:32:447,-1.908,1.7333,12.8133,50.9381,0.2651,0.1216,0.1234,193.6562
15:20:32:471,-2.4634,1.7309,12.2339,50.7577,0.4716,0.0996,0.1833,193.6562
15:20:32:488,-2.6767,1.5251,11.9632,50.7347,0.6157,0,0.273,196.2344
15:20:32:506,-2.6504,1.4079,11.6545,50.6199,0.6896,-0.0538,0.3922,196.2344
15:20:32:527,-2.5161,1.4916,11.3073,50.7119,0.6444,-0.0171,0.5082,197.9844
15:20:32:547,-2.3318,1.7453,11.1541,50.4954,0.5009,0.08,0.595,198.1562
15:20:32:572,-2.2457,1.9657,10.5341,50.3307,0.3329,0.1894,0.6225,199.6094
15:20:32:589,-2.2241,1.896,10.1845,50.1554,0.168,0.1387,0.5785,199.75
15:20:32:607,-2.1332,1.0439,10.9771,49.9401,-0.0733,-0.2694,0.438,201.3281
15:20:32:628,-2.8226,-0.8524,12.8037,49.7712,0.0812,-0.2187,0.5009,201.4844
15:20:32:647,-3.2871,-0.8354,10.6011,49.3627,0.4093,-0.0495,0.7177,202.8281
15:20:32:717,-2.6623,-0.3784,8.432,49.1102,0.5827,-0.0342,0.9798,202.9531
15:20:32:718,-1.7692,0.2369,7.7378,48.7401,0.4172,-0.1124,1.1166,203.5156
15:20:32:718,-1.2209,0.6464,8.7194,48.2172,0.066,-0.1552,1.1044,203.5625
15:20:32:726,-0.9888,0.5363,10.0816,47.8805,-0.1949,-0.0654,1.0042,203.4688
15:20:32:746,-0.9529,0.3688,10.1342,47.5297,-0.2107,0.1338,0.9358,203.1406
15:20:32:772,-0.8019,0.3879,9.2605,47.094,-0.047,0.2169,0.9352,203.1406
15:20:32:789,-0.5219,0.5506,8.5062,46.4694,0.1289,0.1124,0.9468,202.3438
15:20:32:807,-0.4167,0.941,8.499,45.9018,0.2132,-0.0159,0.9322,202.3438
15:20:32:826,-0.486,1.2664,8.1999,45.4612,0.2578,0.0195,0.8992,201.0938
15:20:32:846,-0.6033,1.5395,7.5676,44.9701,0.2865,0.1515,0.8637,201.0938
15:20:32:870,-0.6009,1.9128,6.8949,44.2705,0.2926,0.2401,0.8301,199.9375
15:20:32:888,-0.5554,2.2337,6.5192,43.7792,0.2572,0.2437,0.7684,199.9375
15:20:32:906,-0.4406,2.4802,6.3467,43.2503,0.1802,0.1936,0.6762,199.0469
15:20:32:927,-0.3185,2.7293,6.4496,42.8269,0.0629,0.1283,0.5449,198.9688
15:20:32:947,-0.4047,2.9279,6.9212,42.415,-0.1289,0.1277,0.361,198.9531
15:20:32:972,-0.9793,2.7772,8.056,41.966,-0.4239,0.2266,0.1387,197.25
15:20:32:987,-1.4004,2.3797,9.8255,41.3226,-0.675,0.2755,-0.0134,194.9062
15:20:33:006,-1.2042,1.9008,11.336,40.7211,-0.7104,0.1686,-0.0788,194.9062
15:20:33:026,-0.6655,1.3717,12.1693,40.3993,-0.6267,0.0397,-0.1405,192.9062
15:20:33:047,-0.6296,0.833,12.9855,39.7173,-0.6206,0.0299,-0.237,192.7188
15:20:33:071,-1.2808,0.2345,13.5434,39.1989,-0.6249,0.1045,-0.3018,190.7812
15:20:33:086,-1.64,-0.297,13.395,38.6816,-0.5009,0.1075,-0.2285,190.5938
15:20:33:105,-1.063,-0.419,12.9544,38.3891,-0.292,-0.0647,-0.0348,188.8125
15:20:33:128,-0.189,-0.285,12.9329,38.0774,-0.0593,-0.3201,0.1069,188.6406
15:20:33:148,0.5291,-0.5961,12.5713,37.7634,-0.0983,-0.1374,0.0397,186.9375
15:20:33:167,0.2465,-0.778,12.2937,37.4115,-0.044,0.0721,0.0208,186.7656
15:20:33:188,0.2632,-0.5052,11.0154,37.2967,0.1936,0.1869,0.1191,185.2969
15:20:33:206,0.7277,0.1053,9.5836,37.2795,0.4435,0.0745,0.2437,185.1562
15:20:33:225,1.7931,0.6296,8.808,37.1122,0.5546,-0.2297,0.2578,184.1875
15:20:33:245,2.9088,0.9577,8.8726,37.3837,0.4716,-0.4985,0.0757,183.7656
15:20:33:267,3.0236,1.0319,9.4878,37.2832,0.1888,-0.4398,-0.2932,183.7656
15:20:33:288,1.5012,0.6176,9.2749,37.285,-0.1014,-0.0458,-0.7013,183.7812
15:20:33:307,-0.3305,0.1005,8.3889,37.4131,-0.2285,0.3018,-0.926,183.7812
15:20:33:326,-1.3262,0,7.5197,37.6446,-0.1704,0.3726,-0.8686,184.1875
15:20:33:345,-1.1635,0.4023,6.7777,38.0022,-0.0232,0.2517,-0.664,184.1875
15:20:33:366,-0.376,0.9673,6.4762,38.3122,0.0855,0.0715,-0.5064,184.375
15:20:33:389,0.189,1.5562,6.591,38.533,0.0806,-0.0324,-0.4899,184.375
15:20:33:406,0.3497,1.908,7.1201,38.3685,-0.0079,-0.0281,-0.5956,184.375
15:20:33:427,0.1771,1.8601,7.6229,38.619,-0.0733,0.0165,-0.7489,184.2031
15:20:33:446,-0.3018,1.707,7.8168,38.7885,-0.0806,0.033,-0.8637,184.125
15:20:33:471,-0.6081,1.7261,8.2406,39.0243,-0.0928,-0.0281,-0.8833,184.125
15:20:33:487,-0.2608,1.8051,9.3562,39.3949,-0.157,-0.0794,-0.8436,183.7812
15:20:33:507,-0.0239,1.8984,10.3953,39.4422,-0.2449,0.0073,-0.8485,183.7812
15:20:33:528,-0.3951,1.7094,11.2092,39.6805,-0.3323,0.1936,-0.9279,183.6406
15:20:33:547,-1.7333,1.2855,11.4676,40.1529,-0.3922,0.3769,-1.0183,183.6406
15:20:33:570,-3.591,0.5243,12.1956,40.6545,-0.4551,0.4612,-1.0183,184.6875
15:20:33:588,-4.4794,-0.309,13.6917,40.8958,-0.4404,0.4777,-0.7984,184.7969
15:20:33:606,-4.6493,-0.5483,14.1371,41.331,-0.2169,0.5821,-0.3616,186.4531
15:20:33:629,-4.343,0.8572,12.0063,41.6589,0.4166,0.573,0.6133,186.625
15:20:33:647,-3.4546,1.3597,11.5086,41.8243,0.5156,0.3848,0.8973,187.7656
15:20:33:678,-2.3509,1.4988,10.826,41.8614,0.4685,0.3018,1.0103,187.8906
15:20:33:692,-1.8242,1.4797,10.5676,41.8242,0.3219,0.1985,0.9505,188.9844
15:20:33:705,-1.9271,1.0558,10.9843,41.5613,0.2077,-0.0403,0.7868,189.0938
15:20:33:725,-2.2816,0.4023,11.9824,41.2463,0.2291,-0.2883,0.664,190.6875
15:20:33:745,-2.4658,0.0359,11.5564,41.1897,0.4465,-0.3085,0.6774,192.5469
15:20:33:767,-2.1212,0.3473,9.2315,40.6175,0.7043,-0.1283,0.791,192.5469
15:20:33:790,-1.4004,1.1468,7.4288,40.2356,0.7184,-0.0874,0.8485,194.4062
15:20:33:806,-0.8402,1.8147,6.9093,39.9691,0.4618,-0.2052,0.7312,194.4062
15:20:33:828,-0.6775,1.7548,7.7163,39.7098,0.077,-0.3396,0.4704,196.6094
15:20:33:845,-0.7732,1.0104,8.8199,39.4448,-0.2059,-0.4227,0.2315,196.6094
15:20:33:866,-1.0678,0.5746,9.7893,39.3022,-0.2321,-0.562,0.1368,197.5938
15:20:33:887,-1.1898,0.5124,10.3113,39.1527,-0.0165,-0.697,0.1845,197.6875
15:20:33:906,-0.9194,0.6272,10.2371,38.8712,0.2895,-0.6701,0.3011,197.7031
15:20:33:927,-0.6057,0.7708,8.9827,38.9585,0.5204,-0.4135,0.4093,196.8594
15:20:33:946,-0.553,1.1755,7.5942,38.9177,0.5247,-0.0641,0.4899,194.875
15:20:33:973,-0.486,1.829,6.8351,38.6276,0.3445,0.223,0.5595,194.875
15:20:33:986,-0.3209,2.4658,6.7011,38.4181,0.1588,0.3525,0.5907,193.0312
15:20:34:007,-0.079,3.0356,6.8423,38.1021,0.0861,0.3097,0.543,193.0312
15:20:34:027,0.067,3.268,6.8782,37.7563,0.0819,0.2052,0.3867,191.75
15:20:34:047,-0.0024,3.3302,6.9835,37.7423,0.0538,0.0965,0.1765,191.75
15:20:34:073,-0.3185,3.3733,7.5966,37.611,-0.0171,-0.0458,-0.0336,190.3594
15:20:34:088,-0.6416,3.268,8.8654,37.3772,-0.0733,-0.2193,-0.226,190.2188
15:20:34:106,-0.7038,3.0141,9.5812,36.9837,-0.0446,-0.3916,-0.3769,189.1719
15:20:34:127,-0.4717,2.5451,10.0887,36.9988,-0.0367,-0.5852,-0.496,189.0625
15:20:34:148,-0.0718,2.0088,11.633,36.9261,-0.3005,-0.7495,-0.6683,188.7656
15:20:34:171,0.2512,1.3214,13.4237,37.3668,-0.3635,-0.4368,-0.6725,188.75
15:20:34:211,0.1005,0.6583,12.7487,37.5736,-0.3256,-0.088,-0.5589,188.4844
15:20:34:212,0.62,1.1276,11.4915,37.5995,-0.3183,-0.0354,-0.4306,188.4688
15:20:34:226,1.3454,1.1898,11.9943,37.9326,-0.441,-0.2553,-0.4642,187.7656
15:20:34:246,1.5395,0.5339,13.4572,38.1464,-0.5711,-0.3854,-0.6426,186.5
15:20:34:267,1.1228,-0.3138,13.9457,38.331,-0.5296,-0.2431,-0.8027,186.5
15:20:34:289,0.4669,-0.9529,12.7989,38.3633,-0.2902,0.0116,-0.8228,185.3906
15:20:34:305,-0.0431,-0.9051,10.6705,38.7484,-0.0031,0.1716,-0.6646,185.3906
15:20:34:327,-0.28,-0.2536,9.5405,38.4811,0.1662,0.0476,-0.4337,185.1094
15:20:34:347,0.3784,0.1268,9.6769,38.7515,0.2559,-0.2614,-0.2419,185.1094
15:20:34:367,1.6591,0.2752,9.641,38.9561,0.3305,-0.3983,-0.1454,185.1094
15:20:34:388,2.1835,0.6846,8.8295,38.8534,0.3366,-0.2865,-0.2071,185.875
15:20:34:406,1.561,1.1061,7.6158,39.0141,0.2376,-0.0672,-0.4007,185.875
15:20:34:428,0.5291,1.1707,6.7968,39.3412,0.0855,0.0678,-0.609,187.2969
15:20:34:446,-0.2898,1.0104,6.3849,39.7017,-0.0257,0.0782,-0.7214,188.9062
15:20:34:473,-0.5674,0.9697,6.2222,39.9011,-0.0806,0.0147,-0.7177,188.9062
15:20:34:489,-0.352,1.1874,6.536,40.4313,-0.1277,-0.0629,-0.6713,189.9531
15:20:34:506,-0.1627,1.4055,7.2422,40.5951,-0.2022,-0.0806,-0.6695,189.9531
15:20:34:529,-0.2249,1.4127,7.9484,40.8302,-0.2792,-0.0049,-0.7159,191.1719
15:20:34:548,-0.4717,1.3669,8.4559,41.2342,-0.3201,0.1063,-0.7471,191.1719
15:20:34:570,-0.632,1.4103,8.7218,41.2605,-0.3085,0.1704,-0.7196,192.7344
15:20:34:588,-0.4836,1.5562,9.076,41.6791,-0.259,0.0965,-0.6585,192.9062
15:20:34:606,-0.3018,1.6878,10.3663,41.6977,-0.1655,-0.1869,-0.6133,193.9844
15:20:34:627,-0.1579,1.8147,12.186,41.861,0.0043,-0.4826,-0.5999,194.0938
15:20:34:647,-0.3544,1.7931,12.8994,42.1481,0.1264,-0.3237,-0.6237,194.6406
15:20:34:677,-1.1444,1.5945,12.2554,42.3022,-0.5577,1.3629,-0.5608,194.6875
15:20:34:686,-3.2632,0.8019,12.7846,42.276,-1.1252,2.0147,-0.3311,195.3906
15:20:34:705,-3.4235,0.6631,14.8074,42.1578,-1.2241,2.0788,0.0464,195.4688
15:20:34:725,-3.1101,0.8067,14.9273,42.4259,-0.6811,1.7911,0.4343,196.7812
15:20:34:745,-2.8801,1.252,12.9257,42.4819,0.0965,1.4154,0.7025,198.2812
15:20:34:766,-2.6384,1.9367,10.3857,42.5906,0.5779,1.0397,0.8411,198.2812
15:20:34:788,-2.5355,2.5642,8.918,42.5161,0.5266,0.7843,0.821,199.7812
15:20:34:807,-2.7197,2.1835,8.9468,42.3581,0.1234,0.6182,0.6573,199.7812
15:20:34:827,-3.0571,0.7971,10.4527,42.262,-0.182,0.2877,0.4966,201.2812
15:20:34:845,-3.2369,-0.3664,12.2363,42.1884,-0.0373,-0.2504,0.4887,201.4219
15:20:34:866,-3.2082,-0.8668,12.411,42.2894,0.485,-0.5766,0.6481,201.4375
15:20:34:889,-2.6623,-0.4956,9.9858,42.3519,1.0323,-0.5351,0.8943,202.7812
15:20:34:907,-1.695,0.3114,7.5293,42.1539,1.2101,-0.452,1.0281,202.7969
15:20:34:928,-0.8139,0.9984,6.7442,42.2169,0.9267,-0.4288,0.9364,204.2344
15:20:34:946,-0.2201,1.1803,7.3594,42.4828,0.4203,-0.3402,0.6756,205.2969
15:20:34:967,-0.2656,0.7158,8.2095,42.3491,-0.0354,-0.1448,0.3433,205.2969
15:20:34:989,-1.0199,0.2177,9.0185,42.5136,-0.3036,0.0574,0.0782,204.875
15:20:35:009,-1.8218,0.0048,9.2195,42.4794,-0.3262,0.1936,-0.0195,204.875
15:20:35:027,-2.4012,-0.0167,8.7529,42.5123,-0.1582,0.2443,0.0318,203.2656
15:20:35:048,-2.3677,0.134,7.8766,42.244,0.0562,0.2401,0.1753,203.2656
15:20:35:072,-2.0351,0.6105,7.1082,42.4151,0.1826,0.2321,0.336,201.5156
15:20:35:088,-1.7955,1.3525,6.7681,42.2841,0.1704,0.284,0.4398,201.5156
15:20:35:106,-1.6113,2.071,6.4113,42.0155,0.099,0.405,0.4697,200.2656
15:20:35:127,-1.5849,2.5594,5.916,41.951,0.0092,0.4905,0.4117,200.1406
15:20:35:148,-1.8003,2.8418,5.7218,41.8778,-0.1197,0.4649,0.292,199.1719
15:20:35:172,-2.557,2.6456,7.2805,42.091,-0.361,0.0073,0.0849,199.0781
15:20:35:189,-2.5738,2.3222,8.6474,41.9107,-0.3372,-0.347,0.036,197.7188
15:20:35:206,-2.5379,2.1356,9.6123,41.7394,-0.2889,-0.565,0.0037,197.5938
15:20:35:227,-2.5666,1.8482,10.8452,41.4218,-0.3244,-0.6878,-0.033,196.3438
15:20:35:245,-2.2385,1.2329,13.0837,41.185,-0.4032,-0.8014,-0.0605,195.7344
15:20:35:267,-2.2839,0.5339,14.5514,40.9926,-0.3573,-0.73,-0.0538,195.7344
15:20:35:288,-2.569,0.1101,14.2831,41.0869,-0.1857,-0.4697,0.0641,195.6875
15:20:35:307,-2.3103,0.4813,12.9999,41.1699,-0.0348,-0.2132,0.3274,195.5156
15:20:35:327,-1.0295,1.4004,11.8029,40.8438,-0.0134,-0.11,0.5895,195.5
15:20:35:346,0.4023,2.1332,12.1358,40.666,-0.1497,-0.1961,0.6151,194.9688
15:20:35:366,1.2162,2.0471,13.3017,40.7029,-0.2798,-0.3237,0.3867,194.9062
15:20:35:387,1.1468,0.9218,14.336,40.5159,-0.2572,-0.3635,0.0745,193.8594
15:20:35:406,0.5411,-0.0479,14.5825,40.5888,-0.0153,-0.2932,-0.0977,193.8594
15:20:35:428,0.2058,-0.3425,12.9664,40.6817,0.4154,-0.1252,-0.0281,192.8906
15:20:35:447,0.6679,0.1268,10.704,40.4691,0.802,-0.0348,0.1857,192.8906
15:20:35:472,1.5921,0.9505,9.1837,40.4427,0.9444,-0.0782,0.3103,192.4219
15:20:35:489,2.3151,1.7859,8.1302,40.7115,0.7917,-0.0544,0.2077,192.375
15:20:35:506,2.4634,1.9992,7.8311,40.9467,0.3842,0.1069,-0.1057,192.375
15:20:35:527,1.9008,1.4629,8.2119,41.3441,-0.0458,0.3158,-0.4881,192.5625
15:20:35:547,0.9721,0.8139,8.231,41.6928,-0.2443,0.4759,-0.7868,192.5625
15:20:35:572,-0.0167,0.4884,7.7019,41.898,-0.1778,0.4875,-0.9364,192.625
15:20:35:589,-0.6583,0.4908,7.0244,41.9888,0.0305,0.3384,-0.9505,192.625
15:20:35:606,-1.0008,0.6823,6.3993,42.3479,0.237,0.1173,-0.9065,191.75
15:20:35:628,-1.1515,0.9577,5.7793,42.4208,0.3274,-0.0269,-0.8729,191.6562
15:20:35:648,-1.3645,1.2257,5.3605,42.6951,0.2376,-0.0385,-0.8729,190.6562
15:20:35:713,-1.9008,1.3932,5.6166,43.0024,-0.0073,0.0159,-0.8955,190.5625
15:20:35:714,-2.9734,1.2927,7.654,43.2007,-0.3262,-0.0971,-0.7739,190.6094
15:20:35:714,-2.7532,1.5658,8.511,43.5479,-0.3396,-0.1564,-0.5956,190.625
15:20:35:727,-2.2026,2.0207,9.7104,44.0343,-0.3744,-0.1558,-0.4429,190.6562
15:20:35:746,-1.9247,2.26,10.9819,44.5028,-0.3744,-0.1674,-0.3891,190.6719
15:20:35:767,-2.825,2.1236,12.9281,44.6562,-0.2987,-0.2822,-0.4172,190.4219
15:20:35:789,-4.2712,1.7213,14.9584,44.9205,-0.022,-0.4514,-0.3354,190.3906
15:20:35:806,-4.6469,1.1563,15.4947,45.1182,0.5223,-0.5375,-0.0305,190.9531
15:20:35:827,-3.9311,0.8859,14.2831,45.3541,1.1197,-0.408,0.3964,191.0156
15:20:35:847,-3.5456,1.5706,12.5258,45.4197,1.4741,-0.0947,0.7611,192.5156
15:20:35:867,-3.7325,2.5208,10.3567,45.6724,1.4704,0.2162,0.9798,192.6719
15:20:35:888,-3.5958,2.9901,9.2916,45.775,1.0818,0.4923,1.1166,194.6875
15:20:35:906,-3.2273,3.1675,8.9922,45.8205,0.5632,0.7629,1.2058,194.7031
15:20:35:928,-2.9207,3.3063,9.2315,45.925,0.1124,0.8595,1.2492,196.7344
15:20:35:946,-2.2002,3.1938,10.0624,46.2719,-0.168,0.6744,1.2675,198.6406
15:20:35:967,-1.2999,2.7532,11.0656,46.2304,-0.2266,0.3439,1.2333,198.6406
15:20:35:990,-1.6974,2.4467,11.8196,46.0533,-0.1032,0.0996,1.1472,200.0469
15:20:36:006,-2.3677,2.1236,10.8523,46.1233,0.1637,0.1283,1.1466,200.0469
15:20:36:027,-2.0925,2.0064,8.6498,46.008,0.4056,0.2449,1.2791,200.875
15:20:36:047,-0.8907,2.5355,7.8096,45.7892,0.4013,0.1191,1.4117,200.875
15:20:36:073,0.5028,3.3063,8.432,45.8355,0.1997,-0.0941,1.3751,201.7188
15:20:36:087,1.2185,3.603,9.1884,45.8133,-0.0067,-0.1655,1.0775,201.7188
15:20:36:107,0.9027,3.189,9.4615,45.4172,-0.0959,-0.0819,0.6383,201.7656
15:20:36:127,0.2201,2.2361,8.4775,45.3544,-0.0379,0.0904,0.2816,201.7656
15:20:36:147,-0.28,1.6232,7.0699,45.1377,0.0428,0.2101,0.1209,200.5
15:20:36:173,-0.9745,1.7596,6.4857,45.1344,0.0165,0.1875,0.1063,200.375
15:20:36:190,-1.3286,2.4491,7.448,45.0078,0.0153,-0.0147,0.2315,198.1094
15:20:36:208,-1.1563,2.758,7.57,44.8979,0.1497,-0.036,0.2633,197.8906
15:20:36:280,-1.1683,3.1795,7.2326,44.6664,0.2676,0.0257,0.2504,195.0625
15:20:36:281,-1.3406,3.5288,6.5097,44.5633,0.2785,0.1527,0.2016,192.2656
15:20:36:281,-1.5036,3.8665,6.1528,44.5338,0.1435,0.2584,0.1448,192.2656
15:20:36:293,-1.4366,4.1824,6.5934,44.5177,-0.0947,0.2914,0.0959,192.0156
15:20:36:307,-1.343,4.2162,7.7809,44.7898,-0.3189,0.2425,0.0263,189.5938
15:20:36:328,-1.3406,4.0866,8.8511,44.5292,-0.405,0.1216,-0.0507,189.3594
15:20:36:345,-1.4028,4.0005,9.4759,44.6964,-0.3861,-0.0421,-0.0996,186.6562
15:20:36:366,-1.1204,3.7493,10.3615,44.8651,-0.3671,-0.2712,-0.1222,186.3906
15:20:36:388,-0.6846,3.2991,11.6761,45.0285,-0.3525,-0.5094,-0.1411,184.5312
15:20:36:406,-0.4382,2.7245,12.4373,45.1954,-0.2969,-0.5827,-0.1503,184.5156
15:20:36:427,-0.3209,2.5161,11.7479,45.2541,-0.2309,-0.4129,-0.0959,184
15:20:36:446,0.0574,3.0476,10.2419,45.2054,-0.3128,-0.1985,0.0128,183.625
15:20:36:467,0.9984,3.6559,10.3953,45.0663,-0.6102,-0.2676,0.0134,183.625
15:20:36:488,1.6591,3.1603,12.2172,45.1888,-0.9187,-0.5773,-0.2498,183.125
15:20:36:506,1.7883,1.9872,14.6184,44.9495,-1.0042,-0.8912,-0.6444,183.125
15:20:36:528,1.185,0.6583,16.0454,44.7984,-0.7257,-0.9975,-0.981,182.6562
15:20:36:547,-0.0957,-0.4478,15.2145,44.6958,-0.1332,-0.7422,-1.0934,182.6562
15:20:36:566,-0.9697,-0.7804,12.8779,44.8462,0.5308,-0.4728,-0.8466,182.25
15:20:36:586,-0.0144,-0.213,11.2044,45.1554,0.9535,-0.474,-0.3616,182.25
15:20:36:606,1.7692,0.8835,10.1175,45.3618,1.0702,-0.4936,0.0171,182.0625
15:20:36:628,3.0356,1.841,8.9539,45.8508,0.9364,-0.3286,0.025,182.0625
15:20:36:647,2.7867,2.3198,7.5389,46.1578,0.6157,0.0177,-0.3292,182.25
15:20:36:715,1.3023,2.1595,6.5312,46.5356,0.2138,0.3476,-0.8173,182.2656
15:20:36:716,-0.1986,1.4892,6.0021,47.1231,-0.1026,0.5168,-1.1545,182.7031
15:20:36:716,-1.0965,0.9601,5.9183,47.757,-0.3085,0.2889,-1.1142,182.75
15:20:36:728,-1.3262,1.6759,6.3419,47.9712,-0.2761,0.0647,-0.9554,182.9062
15:20:36:748,-1.1707,1.8529,7.2111,48.4452,-0.1918,-0.2242,-0.8613,183.125
15:20:36:765,-1.8147,1.0343,8.3889,49.0718,-0.1393,-0.3103,-0.8253,183.125
15:20:36:785,-2.5977,1.0606,9.2821,49.2686,-0.2669,0.0977,-0.6396,183.1406
15:20:36:807,-2.5475,1.7309,9.4041,49.8614,-0.5779,0.81,-0.3421,184.9062
15:20:36:827,-1.0534,3.0476,9.7582,50.3798,-0.8656,1.3103,-0.1118,185.0938
15:20:36:847,-0.256,4.089,10.1031,50.6449,-0.8766,1.2241,-0.1698,187.2812
15:20:36:872,-0.7804,3.6846,10.3735,50.6927,-0.6053,0.7471,-0.4856,187.5
15:20:36:887,-1.7477,2.5283,11.1661,51.1483,-0.2407,0.1649,-0.7019,188.3281
15:20:36:906,-2.7078,1.8147,12.1047,51.2927,0.0672,-0.1191,-0.6622,188.3281
15:20:36:926,-2.9542,1.992,11.968,51.3847,0.2724,0.0336,-0.3977,188.9062
15:20:36:946,-2.4443,2.3605,10.7136,51.6702,0.3366,0.372,-0.0739,190.875
15:20:36:967,-1.6759,3.2752,9.1382,51.815,0.2706,0.5156,0.1698,190.875
15:20:36:988,-2.059,4.3741,9.2964,52.0915,0.0831,0.3048,0.1668,193.2031
15:20:37:006,-3.0141,3.7373,10.1318,52.4233,-0.11,0.1038,-0.0092,193.2031
15:20:37:027,-3.2584,2.473,10.6083,52.7618,-0.1845,-0.0519,-0.0312,195.1719
15:20:37:046,-3.2177,1.9295,10.5963,52.7395,-0.1845,-0.2474,0.099,195.1719
15:20:37:066,-2.9399,1.4294,10.6202,52.7819,-0.1881,-0.4813,0.2095,196.7812
15:20:37:090,-2.8274,0.4836,11.1589,52.9829,-0.2517,-0.6096,0.212,196.7812
15:20:37:106,-3.3924,0.0957,11.6234,52.9669,-0.3292,-0.4166,0.2431,196.6562
15:20:37:127,-4.4889,0.2608,11.4293,53.1557,-0.1918,-0.1399,0.4142,196.6562
15:20:37:147,-4.2712,0.2489,8.9994,53.0821,0.08,0.1264,0.6738,196.75
15:20:37:166,-2.7891,0.6775,7.0173,52.7575,0.2028,0.08,0.9285,196.7656
15:20:37:188,-1.3693,1.908,6.8447,52.6276,0.0214,-0.1973,0.9945,198.0781
15:20:37:206,-0.7684,2.3605,8.3913,52.2967,-0.3647,-0.3109,0.7654,198.2031
15:20:37:229,-0.6105,2.0447,10.3711,51.9686,-0.6426,-0.2712,0.4441,198.7344
15:20:37:247,-0.6966,1.2473,9.4304,51.6149,-0.5382,-0.1942,0.193,198.7969
15:20:37:266,-1.1563,0.9338,7.3427,51.4342,0.0452,0.0385,-0.0776,198.4062
15:20:37:285,-1.7118,0.644,6.1911,51.011,-0.0464,0.102,-0.0806,198.375
15:20:37:305,-2.2624,0.699,7.101,50.398,-0.3011,0.0043,0.0134,198.3438
15:20:37:326,-2.2385,0.8477,8.5229,50.2086,-0.4484,-0.0446,0.168,198.3438
15:20:37:346,-1.7357,1.1635,9.0712,49.8006,-0.4074,0.0941,0.3183,198.0625
15:20:37:368,-1.3478,1.6543,8.6282,49.7568,-0.2957,0.2914,0.4019,198.0469
15:20:37:388,-1.4294,2.1356,7.5918,49.5342,-0.2107,0.3793,0.405,197.625
15:20:37:405,-1.707,2.4419,7.515,49.3083,-0.2162,0.226,0.3555,197.5938
15:20:37:427,-1.5634,2.3007,8.4416,49.0905,-0.2303,-0.0751,0.3128,196.375
15:20:37:446,-0.929,2.2289,9.3323,48.7884,-0.2132,-0.2957,0.2712,194.3281
15:20:37:466,-0.5459,2.2839,10.06,48.7257,-0.2828,-0.3586,0.1619,194.3281
15:20:37:488,-0.3449,2.0279,11.1541,48.5393,-0.4563,-0.3421,-0.0055,192.9062
15:20:37:505,-0.0479,1.5203,12.2411,48.2536,-0.4991,-0.4331,-0.1515,192.9062
15:20:37:527,0.2321,1.1348,12.7582,48.0506,-0.3097,-0.6292,-0.2712,192.5781
15:20:37:546,0.6224,1.0152,12.5928,47.7546,-0.0495,-0.7819,-0.3653,192.5781
15:20:37:568,0.9123,0.7636,12.5091,47.5706,0.0855,-0.81,-0.4838,192.7344
15:20:37:589,0.9577,-0.0479,13.4094,47.5129,0.0079,-0.5999,-0.6432,192.7344
15:20:37:607,1.0893,-0.2922,13.4213,47.4993,0.0446,-0.3964,-0.686,192.4062
15:20:37:628,1.276,-0.3305,13.8404,47.3518,0.1686,-0.5736,-0.7122,192.4062
15:20:37:647,1.2832,-0.711,14.2854,47.5187,0.1167,-0.452,-0.7226,191.5312
15:20:37:716,0.62,-1.2209,13.8284,47.799,-0.0562,0.1326,-0.6799,191.4375
15:20:37:717,-0.3544,-1.2497,12.1406,47.7778,-0.226,0.8643,-0.5418,190.5312
15:20:37:717,-0.8429,-0.874,10.3929,48.1215,-0.2779,1.2675,-0.3323,190.4531
15:20:37:729,0.3616,0.1101,9.361,48.243,0.0495,0.7006,-0.0153,189.8438
15:20:37:749,1.0295,0.4119,8.9276,48.1887,0.3225,0.3354,-0.0739,189.7812
15:20:37:772,0.8402,0.632,7.8718,48.1722,0.4948,0.193,-0.2621,189.5938
15:20:37:789,0.1316,0.7229,6.8686,48.3783,0.4771,0.1912,-0.4655,189.5781
15:20:37:806,-0.4669,0.7205,6.1289,48.2088,0.3586,0.212,-0.573,189.9844
15:20:37:825,-0.8354,0.9505,5.8367,48.2265,0.2504,0.135,-0.587,190.0312
15:20:37:846,-1.0056,1.2066,6.0021,48.4544,0.1765,-0.0318,-0.5834,191.0469
15:20:37:866,-1.0989,1.0941,6.3179,48.362,0.1038,-0.1478,-0.5895,191.1562
15:20:37:889,-1.3238,0.7086,7.1082,48.7075,0.0122,-0.1808,-0.5571,192.5938
15:20:37:906,-1.5849,0.4454,7.4719,48.8433,-0.0623,-0.1032,-0.4111,192.7344
15:20:37:927,-1.6113,0.8067,7.6158,48.8579,-0.1179,-0.088,-0.1692,194.4844
15:20:37:945,-1.6232,1.5491,8.5325,49.033,-0.2107,-0.1753,-0.014,195.6875
15:20:37:966,-1.1276,1.7668,9.7247,48.9738,-0.3115,-0.2114,0.0281,195.6875
15:20:37:990,-0.1196,1.6878,11.1111,49.0259,-0.3567,-0.1839,0.0012,195.8594
15:20:38:006,0.0694,1.7285,11.9441,48.9745,-0.3561,-0.0012,-0.1161,195.8594
15:20:38:026,-1.0175,1.9848,12.1597,48.7942,-0.3146,0.2694,-0.2401,195.9219
15:20:38:047,-2.071,1.8386,12.2195,48.5529,-0.1888,0.3989,-0.2333,195.9219
15:20:38:067,-2.1571,1.5778,11.9345,48.4524,0.0232,0.4197,-0.0611,196.8438
15:20:38:088,-1.9199,1.9487,11.3121,48.5379,0.1283,0.4294,0.1063,196.8438
15:20:38:107,-1.817,2.5522,11.5517,48.3898,0.1478,0.3543,0.2004,198.1875
15:20:38:127,-2.3414,2.6958,11.712,48.2491,0.0977,0.3628,0.1979,198.1875
15:20:38:147,-2.3438,2.6767,11.3145,47.9337,-0.0098,0.4795,0.2083,199.5469
15:20:38:167,-1.4055,2.9734,11.0178,48.0031,-0.1527,0.4832,0.2401,199.5469
15:20:38:189,-0.8378,2.8011,11.5804,48.2796,-0.2633,0.2303,0.1008,200.5469
15:20:38:206,-1.5419,1.3717,12.9329,48.1275,-0.3018,-0.0812,-0.2211,200.6406
15:20:38:227,-2.5738,-0.2946,13.7566,47.9391,-0.1399,-0.2376,-0.4288,200.8125
15:20:38:248,-3.0957,-1.1515,8.5971,47.7131,0.7483,-0.0165,-0.0916,200.8281
15:20:38:274,-2.569,-0.2994,5.9782,47.5571,0.8625,-0.179,0.0874,200.7188
15:20:38:288,-2.083,0.3162,6.05,47.7926,0.4545,-0.4459,0.0611,200.7031
15:20:38:352,-1.7094,0.0048,8.3889,48.0186,-0.1564,-0.5363,-0.0861,200.9375
15:20:38:353,-1.4988,-0.6272,10.1079,47.6847,-0.4923,-0.3683,-0.2242,200.9531
15:20:38:353,-1.5921,-0.9936,10.3256,47.3701,-0.482,-0.0629,-0.2749,201.1562
15:20:38:368,-1.7285,-0.9003,9.1286,47.269,-0.2993,0.1875,-0.2162,201.1719
15:20:38:390,-1.8673,-0.62,8.0728,47.3296,-0.1435,0.1839,-0.0959,200.8594
15:20:38:405,-2.0136,-0.1962,8.1063,47.3268,-0.0745,-0.0086,0.0367,200.8125
15:20:38:428,-2.3677,0.268,8.3626,47.3253,-0.0623,-0.0831,0.1442,200.3125
15:20:38:446,-2.5499,0.6535,8.1808,47.0491,-0.0257,0.0012,0.27,199.7812
15:20:38:469,-2.2839,1.1061,7.8215,46.7835,0.0629,0.0647,0.4056,199.7812
15:20:38:487,-2.4395,1.1444,7.1943,46.4452,0.0629,0.1967,0.493,200.4219
15:20:38:506,-2.3198,1.4366,7.0675,46.3901,0.0061,0.2217,0.617,200.4219
15:20:38:528,-1.7046,1.9032,7.558,46.1772,0.0611,0.0147,0.7568,201.1406
15:20:38:547,-1.2018,2.2887,8.2023,45.8467,0.0922,-0.1338,0.7581,201.1406
15:20:38:567,-0.833,2.4921,8.918,45.7081,0.0568,-0.1692,0.6567,201.3281
15:20:38:588,-0.1603,2.4108,9.641,45.2454,0.0092,-0.2333,0.4997,201.3281
15:20:38:605,0.256,1.9199,10.8858,45.0945,-0.0635,-0.4203,0.2767,201.625
15:20:38:627,-0.0861,1.008,12.8061,44.796,-0.1326,-0.6628,0.0538,201.625
15:20:38:648,-0.3425,0.3425,14.2783,44.7858,-0.1014,-0.719,-0.0305,202
15:20:38:698,-0.3066,0.1699,13.5147,44.5105,0.0654,-0.5375,0.0171,202
15:20:38:698,-0.0766,0.7158,11.712,44.3527,0.1167,-0.3225,0.0898,202.0156
15:20:38:706,0.7421,1.2138,10.9122,44.139,-0.0263,-0.3433,0.0904,202.0156
15:20:38:726,1.5706,1.398,12.0063,43.8305,-0.2462,-0.5382,-0.0874,201.5938
15:20:38:748,1.2018,-0.2994,14.3336,43.8555,-0.3854,-0.4948,-0.7416,201.5469
15:20:38:772,-0.1962,-1.5802,14.1921,43.6063,-0.226,-0.099,-0.8937,200.6562
15:20:38:790,-1.2951,-2.2098,12.1669,43.4672,0.0593,0.4117,-0.6982,200.5625
15:20:38:806,-1.4127,-1.8888,9.6601,43.5896,0.3537,0.5931,-0.2682,199.1875
15:20:38:826,-0.917,-1.0175,8.1326,43.7551,0.5204,0.339,0.0996,199.0469
15:20:38:846,0.1579,-0.1603,8.2549,43.9117,0.5156,-0.0489,0.2578,197.6875
15:20:38:865,1.4653,0.201,8.286,44.1106,0.4392,-0.1851,0.1936,197.5469
15:20:38:888,1.7142,0.2632,7.5365,44.2799,0.303,-0.0232,-0.0825,196.8125
15:20:38:907,0.8234,0.3664,6.5097,44.4493,0.0922,0.2175,-0.4197,196.75
15:20:38:927,-0.1914,0.4095,5.8319,44.682,-0.1277,0.3219,-0.6573,196.8125
15:20:38:946,-0.9673,0.3209,5.9614,44.9544,-0.325,0.2718,-0.7758,196.8281
15:20:38:966,-1.4486,0.2728,6.8973,45.139,-0.4752,0.19,-0.7678,196.8281
15:20:38:990,-1.4797,0.2632,7.6301,45.2492,-0.4813,0.1258,-0.6292,196.875
15:20:39:006,-1.0965,0.51,7.9149,45.3198,-0.3751,0.0684,-0.4447,196.875
15:20:39:029,-0.7828,1.1372,8.2789,45.5317,-0.2975,0.0385,-0.295,198.1406
15:20:39:047,-0.6248,1.7788,8.8199,45.62,-0.2932,0.0446,-0.212,198.1406
15:20:39:068,-0.4095,1.9801,9.3921,45.7631,-0.3354,0.1179,-0.2333,199.8438
15:20:39:089,-0.2608,1.6424,9.9236,46.0884,-0.3683,0.146,-0.3066,199.8438
15:20:39:107,-0.3138,1.2162,10.9555,46.1769,-0.3775,0.0458,-0.3744,200.0781
15:20:39:129,-0.7756,0.8139,12.5617,46.1135,-0.3665,-0.0232,-0.3879,200.0781
15:20:39:148,-1.2664,0.6129,13.7396,46.3116,-0.2315,0.0641,-0.2688,199.7656
15:20:39:173,-1.5945,0.9458,13.019,46.2471,0.0886,0.2028,-0.0232,199.7656
15:20:39:191,-1.4988,1.6567,11.7503,46.3018,0.3842,0.2162,0.2217,200.2969
15:20:39:207,-1.3478,2.3222,11.2355,46.6318,0.4881,0.135,0.3244,200.3438
15:20:39:228,-1.6807,2.2672,10.7638,46.834,0.4331,0.1002,0.2498,201.6562
15:20:39:249,-2.193,1.7094,11.3408,46.8445,0.2755,-0.1368,0.1539,201.7812
15:20:39:275,-2.5355,1.343,11.5899,47.2903,0.0611,-0.0232,0.1405,203
15:20:39:289,-2.7652,0.7588,12.521,47.648,-0.1662,0.0464,0.1771,203.125
15:20:39:306,-3.0356,-0.134,13.8476,47.8228,-0.2297,0.0024,0.2529,203.7656
15:20:39:329,-3.1149,-1.0391,14.7787,48.4149,-0.0202,-0.0525,0.4056,203.8281
15:20:39:346,-3.2441,-1.4103,12.6048,48.5137,0.4704,0.1173,0.6628,204.1562
15:20:39:369,-3.3685,-0.8043,8.1111,48.8935,0.937,0.3042,0.9706,204.2031
15:20:39:389,-3.1555,0.256,5.1209,49.2097,1.0006,0.0782,1.1826,204.75
15:20:39:407,-2.3414,0.941,5.6405,49.1376,0.6377,-0.3848,1.2211,204.7969
15:20:39:429,-1.3645,1.0654,7.9699,49.0868,0.1558,-0.5858,1.113,205.3594
15:20:39:446,-1.1228,0.7899,9.3658,49.1902,-0.1729,-0.394,0.89,205.2656
15:20:39:468,-1.2879,0.3592,9.7008,49.2243,-0.3274,-0.1081,0.6719,205.2656
15:20:39:490,-1.6783,-0.0957,10.0074,49.139,-0.4044,0.0464,0.543,204.7969
15:20:39:507,-2.205,-0.3999,10.7064,49.3244,-0.441,0.1136,0.5302,204.7969
15:20:39:529,-2.3797,-0.486,11.1876,48.9795,-0.3543,0.1784,0.6634,204.5469
15:20:39:546,-2.1811,-0.3162,10.5006,48.8226,-0.1118,0.3451,0.9126,204.5469
15:20:39:568,-1.7668,0.1507,8.8558,49.052,0.1747,0.5895,1.1881,204.1875
15:20:39:590,-1.2616,1.2042,7.1752,48.9662,0.4074,0.7428,1.4032,204.1875
15:20:39:609,-1.0056,2.3103,5.8128,48.8513,0.5375,0.7129,1.4417,203.4219
15:20:39:627,-0.7277,3.0332,5.1377,48.9217,0.5253,0.4752,1.328,203.4219
15:20:39:647,-0.2297,3.4977,5.3557,48.7993,0.3934,0.1704,1.1301,202
15:20:39:696,-0.1077,3.5934,6.3826,48.8298,0.179,-0.0544,0.835,201.8438
15:20:39:697,-0.4573,3.268,7.5799,48.9936,-0.0611,-0.1185,0.5266,199.75
15:20:39:705,-0.431,2.8346,9.1597,49.0361,-0.2346,-0.1478,0.3237,199.5469
15:20:39:727,0.0622,2.4945,10.2299,49.2487,-0.2779,-0.1472,0.1912,197.6406
15:20:39:747,0.3712,2.1595,10.5963,49.3563,-0.3402,-0.0672,0.0299,197.4531
15:20:39:769,0.0981,1.6639,12.9736,49.239,-0.8442,0.2382,-0.3488,196.125
15:20:39:792,-0.2512,1.4294,13.6534,49.2623,-1.0274,0.4575,-0.4954,196
15:20:39:807,-0.2728,0.9745,14.2376,49.3494,-0.956,0.4007,-0.5876,194.6562
15:20:39:828,-0.0096,0.3281,14.8843,49.2421,-0.6542,0.0702,-0.6884,194.5156
15:20:39:846,0.1172,-0.5004,15.1164,49.2421,-0.234,-0.2156,-0.7923,192.3281
15:20:39:865,-0.1795,-1.398,14.0988,49.4415,0.1949,-0.2138,-0.8589,192.1094
15:20:39:888,-0.4095,-1.7118,12.0541,49.371,0.6457,-0.0501,-0.7917,189.2344
15:20:39:908,-0.6033,-1.8003,9.1454,49.8644,0.9712,0.1448,-0.6096,188.9375
15:20:39:928,-0.7014,-1.5275,6.9188,50.4258,0.9987,0.1552,-0.3635,186.5312
15:20:39:946,-0.1244,-0.6176,5.9638,50.7208,0.7184,-0.1008,-0.1246,184.8125
15:20:39:968,1.0439,0.0096,6.9188,51.147,0.295,-0.4691,-0.0556,184.8125
15:20:39:989,2.0351,0.189,8.4942,51.6095,-0.1539,-0.5418,-0.2028,184.2031
15:20:40:006,1.7405,0.2898,9.4783,52.0717,-0.5149,-0.201,-0.5241,184.2031
15:20:40:027,0.5124,0.28,8.9228,52.1997,-0.5516,0.1552,-0.8265,184.2188
15:20:40:046,-0.8019,-0.0239,7.599,52.6156,-0.4239,0.3696,-0.9975,184.2188
15:20:40:067,-1.5658,-0.0502,6.5145,52.654,-0.2682,0.3305,-0.9615,184.7344
15:20:40:090,-1.6184,0.2417,6.1361,52.7111,-0.1747,0.1051,-0.8112,184.7344
15:20:40:109,-1.0726,0.7253,6.6915,53.02,-0.1472,-0.1643,-0.6799,185.7969
15:20:40:128,-0.3832,1.2018,7.5799,53.0812,-0.1545,-0.3073,-0.6432,185.7969
15:20:40:147,-0.1531,1.4797,8.1425,53.4601,-0.1826,-0.2559,-0.7245,187.6406
15:20:40:169,-0.4597,1.4055,8.4942,53.6096,-0.2315,-0.1411,-0.8631,187.6406
15:20:40:191,-1.2257,1.1587,8.9755,53.9,-0.2749,-0.1173,-0.9615,189.4688
15:20:40:206,-1.5634,0.9099,9.8013,54.2893,-0.3005,-0.1839,-0.959,189.4688
15:20:40:229,-1.3836,0.7564,11.001,54.7417,-0.3335,-0.193,-0.8876,190.2344
15:20:40:248,-1.573,0.7445,11.9273,55.0184,-0.3757,-0.0354,-0.8088,190.3281
15:20:40:269,-2.3797,0.7062,12.3775,55.2742,-0.3818,0.1674,-0.6933,190.7344
15:20:40:289,-2.9734,0.5937,12.4971,55.7854,-0.295,0.2749,-0.4783,190.7656
15:20:40:307,-2.7197,0.5794,12.3559,55.9779,-0.1038,0.2443,-0.1704,191.9531
15:20:40:328,-1.5395,1.0367,11.391,56.5293,0.1283,0.1124,0.069,192.0781
15:20:40:348,-1.9777,0.8764,11.2092,56.7861,0.1686,0.0171,-0.0238,193.8438
15:20:40:418,-2.9255,0.5626,11.9393,57.0659,-0.0727,0.0983,-0.0727,194.0156
15:20:40:418,-3.2967,0.285,12.3129,56.8875,-0.2382,0.2217,0.0434,195.4688
15:20:40:419,-2.971,0.2465,13.0286,57.4434,-0.2291,0.1607,0.2272,195.6094
15:20:40:426,-2.6097,-0.0622,13.5936,57.383,-0.0281,0.0043,0.3347,196.9688
15:20:40:445,-2.8131,-0.6751,12.6266,57.3897,0.3384,-0.0415,0.3561,198.8594
15:20:40:468,-3.2584,-0.9984,10.1318,57.4539,0.7239,0.0153,0.3977,198.8594
15:20:40:489,-3.1866,-0.9242,7.4623,57.2916,0.8753,0.0079,0.4759,200.9844
15:20:40:506,-2.5714,-0.5219,6.4953,57.5006,0.6389,-0.1081,0.5333,200.9844
15:20:40:528,-1.4677,0.0622,7.7545,57.3993,0.1484,-0.2309,0.5357,202.5
15:20:40:547,-0.7804,0.2249,9.5405,57.6557,-0.2657,-0.1894,0.3964,202.5
15:20:40:568,-1.1659,-0.0742,10.4025,57.3937,-0.4111,0.0043,0.1692,203.125
15:20:40:590,-1.8027,-0.3712,10.0337,57.6573,-0.3018,0.1863,0.0605,203.125
15:20:40:607,-2.3031,-0.4023,8.9946,57.6429,-0.0849,0.2541,0.1246,203.0312
15:20:40:627,-2.5929,-0.1005,8.3387,57.6684,0.0996,0.223,0.2871,203.0312
15:20:40:646,-2.3797,0.3329,7.8646,57.8438,0.234,0.2193,0.4844,203.1406
15:20:40:714,-1.695,0.7086,6.8734,57.9378,0.325,0.2981,0.6475,203.1406
15:20:40:715,-1.1037,1.0798,6.0978,57.9593,0.2969,0.3115,0.6951,202.7344
15:20:40:715,-1.1611,1.6017,6.5192,57.8317,0.099,0.2217,0.6347,202.7344
15:20:40:728,-1.6543,1.8817,7.7139,57.9911,-0.1191,0.1552,0.5479,202.1094
15:20:40:748,-1.9968,1.8697,8.7386,58.1296,-0.16,0.1069,0.4997,202.0469
15:20:40:768,-1.963,1.951,8.8152,58.1964,-0.0312,0.0586,0.4966,201.4531
15:20:40:792,-1.7979,2.0351,8.5134,58.0547,0.0464,-0.0049,0.4679,201.3906
15:20:40:808,-1.5682,1.6567,10.8571,57.9846,-0.2553,-0.2602,0.2993,200.4844
15:20:40:829,-1.1515,0.7708,12.3559,57.6616,-0.3109,-0.4313,0.2022,200.3906
15:20:40:848,-0.5602,-0.1938,14.0845,57.6361,-0.2449,-0.5644,0.1521,199.7188
15:20:40:868,-0.1603,-0.8282,14.3671,57.7517,-0.047,-0.4392,0.168,199.6562
15:20:40:890,-0.2393,-0.6703,12.7822,57.4345,0.1674,-0.1515,0.2193,199.375
15:20:40:906,-0.1531,-0.0885,11.2307,57.2839,0.2278,-0.0012,0.2847,199.3438
15:20:40:927,0.632,0.3257,10.5197,57.1786,0.1246,-0.0318,0.3042,198.5938
15:20:40:947,1.4701,0.4358,10.5891,57.0795,-0.0409,-0.1723,0.179,197.25
15:20:40:967,1.5371,-0.0479,11.5086,56.8726,-0.2034,-0.2853,-0.0898,197.25
15:20:40:990,0.6727,-0.8524,12.5833,56.6428,-0.2706,-0.2431,-0.3439,195.7812
15:20:41:007,-0.2465,-1.4701,12.4134,56.5452,-0.1057,-0.0544,-0.4025,195.7812
15:20:41:029,-0.1651,-1.2138,10.5365,56.4007,0.1857,0.1515,-0.2456,194.625
15:20:41:047,0.5243,-0.4071,8.9228,56.3171,0.328,0.135,-0.099,194.625
15:20:41:069,1.7692,0.0574,8.7888,56.0708,0.2456,-0.1197,-0.1313,193.6875
15:20:41:091,2.7843,-0.0191,10.1198,55.9802,0.0171,-0.3647,-0.3708,193.6875
15:20:41:106,2.3246,-0.2489,11.3456,56.2224,-0.212,-0.2957,-0.7379,193.1406
15:20:41:128,0.4597,-0.6823,10.8858,56.3216,-0.2651,0.0629,-1.0445,193.0938
15:20:41:146,-1.2114,-0.9482,9.1095,56.829,-0.1216,0.3738,-1.0946,192.7812
15:20:41:167,-1.7955,-0.6009,7.3116,57.0766,0.0654,0.4551,-0.8888,192.7812
15:20:41:190,-1.4198,0.134,6.3395,57.3281,0.1704,0.3421,-0.6304,192.3125
15:20:41:205,-0.5889,0.8378,6.227,57.6682,0.1747,0.1759,-0.4862,192.3125
15:20:41:228,-0.1292,1.3334,6.4232,58.1579,0.1032,0.0935,-0.5174,191.8594
15:20:41:247,-0.2201,1.5443,6.8279,58.5681,-0.014,0.077,-0.6506,191.8125
15:20:41:266,-0.6583,1.4557,7.3546,58.7972,-0.1167,0.0776,-0.7703,192.2188
15:20:41:291,-1.1061,1.2712,7.8598,59.1707,-0.1594,0.047,-0.8167,192.25
15:20:41:307,-1.2975,1.2018,8.645,59.251,-0.1649,-0.0434,-0.777,192.9062
15:20:41:329,-1.13,1.2209,9.9643,59.5393,-0.088,-0.1961,-0.6176,192.9688
15:20:41:348,-1.3621,0.9529,12.0518,59.8306,-0.0134,-0.0593,-0.5546,193.2969
15:20:41:367,-2.406,0.984,12.6793,60.0019,0.0348,0.1826,-0.4111,193.3125
15:20:41:391,-2.8729,1.6304,12.6096,59.9696,0.1075,0.4667,-0.1326,194.4531
15:20:41:409,-2.6097,2.6695,12.0951,60.1639,0.1466,0.7422,0.1228,194.5781
15:20:41:427,-2.1739,3.1077,11.9058,60.589,0.1167,0.8582,0.1778,196.6094
15:20:41:445,-2.7987,2.4945,11.9656,60.9541,0.1435,0.7171,0.0281,198.3125
15:20:41:466,-4.0364,1.3119,11.8699,61.2944,0.284,0.3543,-0.0928,198.3125
15:20:41:490,-4.5607,0.3736,12.1645,61.5402,0.4172,-0.055,0.0031,199.6094
15:20:41:507,-3.8737,0.1651,13.462,61.6551,0.4233,-0.2828,0.2419,199.6094
15:20:41:527,-3.0811,0.122,14.5107,61.9771,0.4068,-0.2236,0.4184,201.125
15:20:41:546,-2.8131,-0.419,14.9321,62.5367,0.518,-0.0446,0.474,201.125
15:20:41:567,-3.0787,-1.2497,13.6941,62.9726,0.8497,0.1295,0.5235,202.8125
15:20:41:591,-3.2895,-1.4342,10.6466,63.1016,1.2803,0.2889,0.6756,202.8125
15:20:41:607,-3.0188,-0.8644,6.9954,63.2416,1.5131,0.3665,0.8619,202.8281
15:20:41:628,-2.4873,0.0885,4.4124,63.4832,1.3409,0.2743,0.9468,204.25
15:20:41:647,-1.695,0.8764,3.9838,63.6569,0.7831,0.055,0.8918,205.3125
15:20:41:719,-1.0678,1.1037,5.6166,64.107,0.0757,-0.1112,0.7061,205.3125
15:20:41:720,-1.0295,0.9099,7.4575,64.3125,-0.452,-0.0837,0.4642,205.3125
15:20:41:720,-1.6591,0.6727,8.31,64.1949,-0.6854,0.066,0.2877,205.3125
15:20:41:728,-2.3653,0.565,8.9492,64.0164,-0.6811,0.1014,0.2639,205.0469
15:20:41:748,-2.4778,0.5411,9.186,64.0198,-0.4966,0.0715,0.394,205.0469
15:20:41:766,-2.0973,0.8186,8.7434,63.9623,-0.2254,0.047,0.5907,205.2656
15:20:41:786,-1.5826,1.4988,8.1999,63.8865,-0.0269,0.0623,0.7361,205.2812
15:20:41:807,-1.1587,2.1643,7.6564,63.505,0.0287,0.168,0.7764,204.8281
15:20:41:829,-1.0152,2.5451,7.2015,63.0063,-0.0037,0.2908,0.7068,204.7969
15:20:41:849,-1.3334,2.7102,7.1201,62.8372,-0.135,0.3225,0.4948,204.0625
15:20:41:867,-1.6663,2.6623,7.7474,62.5675,-0.1326,0.2761,0.4471,204
15:20:41:887,-1.6304,2.7269,8.0919,62.5841,-0.1112,0.1924,0.3977,202.9688
15:20:41:908,-1.6424,2.825,8.796,62.5272,-0.0843,0.0562,0.3262,202.8594
15:20:41:926,-1.7213,2.7556,9.5692,62.1193,-0.0538,-0.0849,0.2297,201.4219
15:20:41:945,-1.8529,2.4491,10.2634,61.8372,-0.0428,-0.2205,0.1435,200.0625
15:20:41:966,-1.4916,1.8362,11.2642,61.7542,-0.0538,-0.3806,0.1026,200.0625
15:20:41:991,-0.917,1.2042,12.0951,61.6866,-0.0647,-0.4667,0.088,199.0781
15:20:42:009,-0.6607,0.9147,12.1789,61.5207,-0.1203,-0.3482,0.0709,199.0781
15:20:42:028,-0.8258,1.118,11.5373,61.6097,-0.248,-0.1118,0.0599,197.7344
15:20:42:046,-0.5411,1.4004,10.9289,61.3825,-0.4013,0.0098,0.0709,197.7344
15:20:42:067,-0.0766,1.3167,11.001,60.8637,-0.5455,-0.0745,0.0061,196.1875
15:20:42:091,-0.0167,0.7899,12.0494,60.7612,-0.6664,-0.2431,-0.1478,196.0312
15:20:42:109,-0.2106,-0.067,13.3591,60.5618,-0.6713,-0.3757,-0.2914,196.0312
15:20:42:129,-0.6296,-0.9123,14.2687,60.5953,-0.4673,-0.4068,-0.3378,194.5
15:20:42:146,-0.7828,-1.5036,13.6032,60.6816,-0.0623,-0.2816,-0.2071,193.2969
15:20:42:166,-0.2946,-1.1157,11.336,60.7994,0.3598,-0.1124,0.0556,193.2969
15:20:42:190,0.7899,-0.067,9.5692,60.8652,0.5473,-0.0935,0.2462,192.4062
15:20:42:206,2.1069,0.821,8.8032,60.7428,0.4618,-0.1521,0.2059,192.4062
15:20:42:227,2.6575,1.2401,8.7386,60.9648,0.2065,-0.1594,-0.1002,192.0312
15:20:42:247,1.9247,0.984,8.6928,61.0321,-0.0715,-0.0153,-0.5375,192.0312
15:20:42:269,0.3784,0.3999,8.1425,61.3784,-0.2449,0.2089,-0.8827,191.9375
15:20:42:292,-0.9482,0.1579,7.4049,61.3408,-0.2737,0.3396,-0.9853,191.9219
15:20:42:306,-1.4605,0.3353,6.2629,61.4759,-0.1888,0.3525,-0.8808,191.7969
15:20:42:330,-0.5028,1.5371,5.5065,61.4416,-0.1454,0.0208,-0.6377,191.7812
15:20:42:347,-0.1555,2.0614,6.1911,61.3549,-0.2676,-0.099,-0.7122,191.5312
15:20:42:367,-0.2994,2.0614,7.1943,61.5835,-0.4019,-0.1289,-0.8955,191.5156
15:20:42:391,-0.9817,1.6902,8.3578,61.5641,-0.4746,-0.1619,-1.0629,191.7812
15:20:42:408,-1.5132,1.264,9.5931,61.7753,-0.4416,-0.2437,-1.1111,191.8125
15:20:42:486,-1.6065,1.008,10.4145,61.7141,-0.328,-0.3146,-1.0391,192.3438
15:20:42:486,-1.4342,0.9314,11.0297,61.8435,-0.2608,-0.2926,-0.9236,192.2812
15:20:42:486,-1.4028,1.0391,12.1214,61.7527,-0.3011,-0.146,-0.821,192.2812
15:20:42:487,-1.7668,1.331,12.6239,61.7942,-0.3317,0.1368,-0.7397,192.3125
15:20:42:511,-2.5618,1.5419,12.4205,62.0428,-0.2755,0.3714,-0.6823,192.3125
15:20:42:527,-3.2943,1.4028,12.4445,62.2804,-0.1234,0.3152,-0.5901,193.7812
15:20:42:546,-3.5145,1.1276,12.9832,62.5895,0.124,0.025,-0.4135,193.7812
15:20:42:566,-3.4379,0.9434,13.1028,62.8802,0.4209,-0.2138,-0.1784,193.7969
15:20:42:589,-3.1316,0.8716,12.2889,63.2893,0.6237,-0.2486,0.0476,195.6562
15:20:42:607,-2.8753,0.821,11.3408,63.509,0.5992,-0.1747,0.2077,195.6719
15:20:42:629,-2.8394,0.7421,11.0201,63.6613,0.3531,-0.0617,0.3024,197.0625
15:20:42:647,-2.6719,0.4334,11.5923,63.7726,0.0434,0.0171,0.3757,198.7188
15:20:42:718,-2.6073,-0.1053,12.3105,63.841,-0.0819,-0.0189,0.4337,198.7188
15:20:42:719,-2.6145,-0.7086,12.897,63.9343,0.0501,-0.1252,0.5088,200.9688
15:20:42:719,-2.6408,-0.9984,12.0541,63.999,0.361,-0.0538,0.6554,200.9688
15:20:42:728,-2.624,-0.5889,9.1765,63.8674,0.6823,0.204,0.8509,203.0469
15:20:42:748,-2.3629,0.079,6.4137,63.5417,0.7642,0.2816,0.9829,203.0469
15:20:42:767,-1.7501,0.7947,5.2669,63.5143,0.5363,0.058,0.9865,204.5
15:20:42:791,-1.2449,1.2425,6.5312,63.381,0.0983,-0.2957,0.8393,204.6406
15:20:42:809,-0.9721,0.8524,8.7673,63.2691,-0.3079,-0.4704,0.6041,205.8125
15:20:42:829,-1.0917,0.3305,10.285,63.0486,-0.452,-0.2523,0.3079,205.9375
15:20:42:847,-1.439,0.0359,11.2594,62.499,-0.2303,-0.0287,0.3494,206.6406
15:20:42:868,-1.5802,0.0837,9.5692,62.085,0.0825,0.1161,0.4875,206.7188
15:20:42:890,-1.319,0.6464,8.7123,61.7766,0.3103,0.0812,0.6255,206.7188
15:20:42:908,-0.9817,1.3597,8.444,61.4963,0.4337,0.0409,0.7116,206.7188
15:20:42:926,-0.7828,1.7955,7.5437,61.1068,0.5473,0.1038,0.7116,206.125
15:20:42:946,-0.9338,2.1476,6.591,61.001,0.5834,0.1539,0.6414,205.125
15:20:42:966,-1.0056,2.4658,6.0858,60.6922,0.4875,0.168,0.5675,205.125
15:20:42:991,-1.0032,2.7317,5.8558,60.4857,0.2834,0.2077,0.4985,203.7188
15:20:43:007,-1.1133,3.0428,6.0476,60.6105,0.0452,0.1814,0.419,203.7188
15:20:43:026,-0.9218,3.268,6.7537,60.6123,-0.1442,0.025,0.3274,201.8281
15:20:43:045,-0.5004,3.3015,7.9771,60.5869,-0.2627,-0.2242,0.1924,201.6562
15:20:43:066,0.0383,3.0787,9.0066,60.4153,-0.3525,-0.4392,0.0092,201.6406
15:20:43:090,0.4286,2.3629,10.4886,60.1651,-0.496,-0.6896,-0.2144,200.1094
15:20:43:108,0.5985,1.3502,13.2682,59.868,-0.6744,-0.9407,-0.416,200.0938
15:20:43:127,0.5506,0.2704,15.5139,59.5694,-0.6976,-0.9163,-0.4966,199.2188
15:20:43:146,0.2082,-0.4645,15.7149,59.3696,-0.5015,-0.6041,-0.4258,198.25
15:20:43:167,0.3544,-0.2584,14.4006,58.8538,-0.2456,-0.2975,-0.2175,198.25
15:20:43:191,1.3717,0.3951,14.0964,58.545,-0.1118,-0.2468,-0.033,196.9062
15:20:43:207,2.4275,0.687,14.8986,58.1565,-0.0409,-0.2419,-0.0733,196.9062
15:20:43:227,2.2481,0.3114,14.6351,58.0751,0.1179,-0.0501,-0.303,195.5938
15:20:43:248,0.9314,-0.3808,13.1674,58.2811,0.3683,0.1912,-0.5027,195.5938
15:20:43:268,0.0502,-0.6727,11.2259,58.2488,0.6536,0.2975,-0.4661,194.5
15:20:43:291,0.256,-0.1842,9.373,58.4875,0.8741,0.226,-0.2596,194.5
15:20:43:307,0.8859,0.711,8.2238,58.6372,0.9181,0.0257,-0.1161,193.7031
15:20:43:327,1.4725,1.2305,7.654,59.0855,0.7807,-0.1753,-0.1545,193.625
15:20:43:347,1.9104,0.9793,7.4001,59.3951,0.5088,-0.2871,-0.3292,193.4062
15:20:43:367,1.439,0.4454,8.286,59.7059,-0.2908,0.0244,-0.7513,193.3906
15:20:43:388,0.2225,0.4741,8.5229,60.0766,-0.543,0.372,-0.8986,194.0312
15:20:43:406,-0.6823,0.4167,8.0249,60.1588,-0.5632,0.6609,-0.9175,194.1094
15:20:43:425,-0.9027,0.5052,7.0699,60.4944,-0.4038,0.7465,-0.813,195.0312
15:20:43:445,-0.6727,0.8163,6.3706,60.7323,-0.1961,0.5797,-0.686,195.3906
15:20:43:465,-0.213,1.2425,6.3586,60.9722,-0.0519,0.2773,-0.6078,195.3906
15:20:43:486,-0.0048,1.6519,6.7968,61.0301,-0.0122,0.0593,-0.6133,195.8281
15:20:43:505,0.0502,1.9319,7.3379,61.1693,-0.0605,0.0263,-0.6701,195.8281
15:20:43:527,-0.055,2.0758,7.6947,61.4473,-0.1387,0.0898,-0.7312,195.875
15:20:43:546,-0.3473,2.0686,7.9101,61.6516,-0.2254,0.1405,-0.7898,196.9219
15:20:43:566,-0.6464,1.9606,9.0855,61.9255,-0.3415,0.0886,-0.8124,197.0312
15:20:43:589,-0.8067,1.6998,11.19,62.0916,-0.3836,-0.0373,-0.777,197.6719
15:20:43:605,-0.9817,1.4725,12.4852,62.3517,-0.2376,-0.0727,-0.7037,197.6875
15:20:43:627,-1.5203,1.4318,12.3296,62.5244,-0.0073,0.0257,-0.6225,198.4531
15:20:43:645,-2.3844,1.3813,11.7814,62.6632,0.1301,0.0959,-0.5162,199.8906
15:20:43:695,-3.2441,1.2951,12.5067,63.0786,0.1704,0.0061,-0.3384,199.8906
15:20:43:696,-3.6461,1.1874,13.2419,63.3449,0.2999,-0.1228,-0.0666,201.5781
15:20:43:705,-3.7851,1.1515,12.8276,63.5748,0.4936,-0.1405,0.2523,201.5781
15:20:43:726,-3.1795,1.4318,11.688,63.8168,0.5382,-0.0171,0.5919,202.9688
15:20:43:746,-2.016,2.0901,11.0656,64.0002,0.3677,0.1173,0.843,202.9688
15:20:43:766,-1.063,2.4323,11.4389,64.022,0.1356,0.1344,0.8656,204.25
15:20:43:789,-1.3645,2.0088,12.4062,64.1021,0.011,0.0446,0.7061,204.25
15:20:43:806,-2.2074,0.9936,13.2323,64.2614,0.113,-0.0849,0.5968,205.6094
15:20:43:826,-2.6049,0.443,12.32,64.2623,0.471,-0.1332,0.6768,205.75
15:20:43:846,-2.5283,0.8477,9.0975,64.2521,0.8411,-0.0629,0.8448,207.2344
15:20:43:866,-1.8386,1.494,6.7609,64.0858,0.8668,-0.1332,0.9212,207.375
15:20:43:889,-0.1316,1.9199,8.9204,63.8156,0.0971,-0.5302,0.5583,208.7656
15:20:43:906,-0.189,1.1013,10.2754,63.6522,-0.2358,-0.35,0.237,208.9062
15:20:43:925,-0.9051,0.2776,10.4934,63.2829,-0.3891,-0.0421,0.0287,210.0625
15:20:43:946,-1.7237,-0.2632,10.7064,62.9858,-0.4105,0.099,0.011,210.6875
15:20:43:965,-1.9534,-0.4023,10.7949,62.7908,-0.3433,0.1839,0.1857,210.6875
15:20:43:985,-1.8769,-0.2994,10.2945,62.4526,-0.2743,0.4099,0.4221,210.7344
15:20:44:006,-1.8984,0.4119,9.7463,62.2252,-0.2651,0.7691,0.6518,210.0938
15:20:44:026,-1.7716,1.2473,8.8487,61.8495,-0.1845,1.1026,0.8472,210.0312
15:20:44:045,-1.5227,1.762,7.2374,61.7778,0.0305,1.2272,0.9609,208.3906
15:20:44:066,-1.3765,2.3007,5.6692,61.7911,0.2517,1.0494,1.0024,208.2344
15:20:44:086,-1.331,2.9518,5.0755,61.8196,0.3421,0.6689,0.9847,206.8281
15:20:44:106,-0.984,3.5456,5.2238,61.7992,0.2938,0.3439,0.9291,206.8125
15:20:44:126,-0.5889,4.0005,5.595,61.5294,0.1875,0.11,0.8027,205.4219
15:20:44:146,-0.3712,4.2329,6.67,61.4621,0.0489,-0.1179,0.584,203.8125
15:20:44:167,-0.3544,4.1584,7.8479,61.1866,-0.069,-0.3152,0.3292,203.8125
