Time,Acc_X,Acc_Y,Acc_Z,Meg,Gyr_X,Gyr_Y,Gyr_Z,Ore
14:23:35:172,-0.1747,2.5618,9.5788,34.7192,-0.3598,0.1142,-0.091,71.0156
14:23:35:193,-0.1795,2.5618,9.1334,34.8423,-0.4319,0.124,-0.069,71.0156
14:23:35:211,-0.0526,2.6336,9.4567,35.1786,-0.5327,0.1399,-0.0513,71.0156
14:23:35:231,-0.0383,2.6862,9.7534,35.3247,-0.5827,0.1655,-0.0709,71.0156
14:23:35:249,-0.3592,2.4395,10.0528,35.6265,-0.5412,0.1894,-0.0941,71.0156
14:23:35:273,-0.577,2.3079,10.1246,35.8216,-0.4111,0.2456,-0.0318,71.0156
14:23:35:289,-0.4789,2.5041,10.1916,36.4115,-0.2297,0.2792,0.0904,71.0156
14:23:35:308,-0.443,2.758,9.8351,36.7838,-0.0458,0.3091,0.1845,71.0156
14:23:35:326,-0.3855,2.9183,9.6936,37.4484,0.0928,0.2315,0.2242,71.0156
14:23:35:345,-0.0814,3.0667,9.7463,38.1285,0.201,0.113,0.2456,71.0156
14:23:35:365,0.0981,3.1938,9.7104,38.5994,0.2718,0.0819,0.2315,71.0156
14:23:35:384,0.0024,3.1699,9.7367,38.8401,0.2682,0.1173,0.1784,71.0156
14:23:35:407,-0.2177,3.0356,9.7104,38.8737,0.1991,0.1955,0.1442,71.0156
14:23:35:423,-0.5004,2.8705,9.3084,39.384,0.1014,0.2694,0.149,71.0156
14:23:35:442,-0.6296,2.8178,9.5548,39.3106,-0.0257,0.1399,0.1552,71.0156
14:23:35:462,-0.2489,2.7556,10.1438,39.3547,-0.1588,-0.0764,0.1301,71.0156
14:23:35:480,-0.0167,2.5499,10.3208,39.3877,-0.2761,-0.2004,0.0263,71.0156
14:23:35:499,0.1316,2.1978,10.194,39.2738,-0.4184,-0.3176,-0.1906,71.0156
14:23:35:523,0.7134,1.7477,11.5875,39.467,-0.6084,-0.4563,-0.532,71.0781
14:23:35:540,1.1085,0.6966,12.8611,39.4465,-0.7568,-0.124,-1.0103,71.0781
14:23:35:557,-0.5578,-0.055,10.8165,39.6312,-0.7599,0.4759,-1.471,71.1562
14:23:35:576,-1.9944,-0.3281,10.9289,39.5702,-0.7373,0.2248,-1.5315,71.1562
14:23:35:595,-1.9271,-0.8501,10.7853,39.5445,-0.6249,-0.0953,-1.4014,70.875
14:23:35:614,-2.4251,-0.7588,10.5724,39.3315,-0.3897,-0.438,-1.3219,70.8594
14:23:35:634,-2.1547,-0.4836,10.9508,39.1066,-0.0562,-0.9523,-1.1948,70.4219
14:23:35:655,-0.8788,0.0837,12.478,38.8588,0.3207,-1.5357,-1.0366,70.375
14:23:35:674,-0.2946,-0.3951,12.9449,38.37,0.5412,-1.5858,-0.9554,70
14:23:35:693,-0.3832,-0.0407,12.2387,37.7914,0.4319,-0.9835,-0.8375,69.9688
14:23:35:713,-0.553,0.2417,11.8292,37.1642,0.2816,-0.4007,-0.6359,69.7031
14:23:35:732,-0.565,0.0742,11.08,36.3155,0.1631,0.0446,-0.4642,69.6719
14:23:35:753,-0.2225,0.1555,9.95,35.8625,0.1032,0.2382,-0.2871,69.375
14:23:35:774,-0.1196,0.7708,9.306,35.4224,0.0171,0.416,-0.1063,68.9219
14:23:35:793,-0.5267,1.0439,9.5094,34.992,-0.1283,0.689,0.08,40.3594
14:23:35:813,-0.4047,1.4151,9.0879,34.7168,-0.1784,0.926,0.3781,40.1094
14:23:35:834,0.1675,1.8099,8.2717,34.1458,-0.2071,1.1179,0.6267,41.8125
14:23:35:852,-0.122,1.5969,8.0584,34.1423,-0.3726,1.2168,0.686,41.8438
14:23:35:875,-0.0287,1.5826,7.7737,34.2333,-0.5449,1.0617,0.7654,45
14:23:35:893,0.4741,2.0064,7.7617,34.7763,-0.6512,0.8277,0.8607,48.0156
14:23:35:913,0.8258,2.2409,7.5197,35.2595,-0.6689,0.7984,0.8454,48.0156
14:23:35:934,0.6894,2.2481,7.0747,35.9052,-0.5901,0.9401,0.6976,50.7344
14:23:35:953,0.431,2.5427,6.3945,36.624,-0.4306,1.1484,0.496,50.7344
14:23:35:976,-0.2776,2.7987,5.863,37.366,-0.259,1.424,0.2688,52.9844
14:23:35:993,-1.343,2.5738,5.6668,38.3648,-0.0751,1.5748,0.08,52.9844
14:23:36:016,-2.4586,1.7237,5.6022,39.312,0.135,1.4069,0.0385,54.25
14:23:36:033,-2.6886,1.0295,5.5615,39.7253,0.273,0.8717,0.2248,54.25
14:23:36:054,-1.6926,1.0487,5.4108,40.4282,0.2193,0.3183,0.5388,54.6094
14:23:36:076,-1.2329,1.3908,6.1744,40.855,-0.0385,-0.0367,0.7813,54.6094
14:23:36:095,-1.0032,2.4036,7.6038,41.5196,-0.4258,-0.273,0.8448,53.9844
14:23:36:116,-0.8234,2.1595,8.6904,42.2471,-0.9053,-0.5406,0.6255,53.9219
14:23:36:134,-1.0869,0.6942,10.2467,42.8418,-1.3433,-0.7135,0.3598,52.375
14:23:36:155,-1.209,-0.7253,11.4556,43.8758,-1.3904,-0.7611,0.5235,52.2188
14:23:36:178,-1.3573,-2.8226,12.7463,44.6535,-0.992,-0.8039,0.9224,50.375
14:23:36:194,-1.4892,-0.8258,15.3006,45.8246,-0.4789,-0.2285,1.4362,50.1875
14:23:36:215,-1.008,-0.2728,12.7223,46.9463,-0.1668,0.4221,1.5999,48.4219
14:23:36:233,-0.5722,0.498,10.7853,48.413,-0.0819,0.5009,1.4258,48.25
14:23:36:253,-0.1579,0.8234,9.7702,49.6374,-0.1014,0.1759,1.0171,47.2344
14:23:36:277,0.0072,0.9338,10.5078,50.5962,-0.2211,-0.3683,0.4386,47.1406
14:23:36:292,-0.0311,0.486,11.7383,51.6172,-0.3842,-0.7666,-0.1393,46.7969
14:23:36:314,-0.5435,-0.213,12.1621,52.1179,-0.4844,-0.7904,-0.5198,46.7656
14:23:36:333,-1.0534,-0.5626,11.6689,52.7808,-0.4514,-0.6047,-0.6005,45.9688
14:23:36:353,-1.1922,-0.4262,11.147,53.3005,-0.2987,-0.4215,-0.4569,45.8906
14:23:36:378,-0.9936,-0.0191,10.8811,53.6104,-0.1069,-0.2969,-0.2743,44.0781
14:23:36:393,-0.5937,0.3233,10.5987,53.7525,0.0501,-0.1997,-0.1802,42.8125
14:23:36:416,-0.3114,0.5722,10.3519,53.9316,0.1185,-0.124,-0.2077,42.8125
14:23:36:433,-0.2632,0.6679,10.2754,53.9647,0.1148,-0.1161,-0.3176,41.625
14:23:36:453,-0.4908,0.4382,9.7678,53.7222,0.0421,-0.0941,-0.4398,41.625
14:23:36:479,-1.1276,-0.0335,8.9994,53.4915,-0.2138,-0.0312,-0.482,38.9531
14:23:36:494,-1.3549,-0.2082,9.0592,53.3356,-0.4282,-0.1918,-0.3317,38.9531
14:23:36:515,-0.9745,0.1651,9.7439,53.4425,-0.4771,-0.4288,-0.0519,35.5781
14:23:36:534,-0.4047,0.6392,9.5764,53.1915,-0.3384,-0.54,0.2352,35.5781
14:23:36:554,0.6966,0.6153,9.2243,53.3355,-0.19,-0.5638,0.4019,33.9375
14:23:36:578,1.0367,0.6511,9.7199,53.082,-0.0733,-0.5907,0.3115,33.9375
14:23:36:595,0.8716,0.4813,10.3089,53.1796,0.069,-0.5382,0.1203,34.5469
14:23:36:617,0.4836,0.0144,10.7782,53.1876,0.1716,-0.0574,-0.0024,34.6094
14:23:36:633,-0.1244,-0.1531,11.3288,53.2742,0.2847,0.7049,0.0446,35.625
14:23:36:654,-0.3784,0.1627,11.7359,53.078,0.5937,1.2193,0.2199,35.7344
14:23:36:676,-0.5794,0.5985,12.4564,52.7554,1.0849,1.6866,0.4032,36.1875
14:23:36:695,-0.6942,4.264,5.0348,52.5147,1.5339,1.8766,0.0312,36.2344
14:23:36:715,-2.0136,2.6838,9.6577,51.733,0.7837,0.9884,-0.7129,36.7812
14:23:36:733,-1.331,2.2002,6.6078,51.174,0.7727,1.2382,-0.7177,36.8281
14:23:36:752,-1.8338,2.1619,8.6833,50.5565,0.5284,0.4258,-0.8124,37.7344
14:23:36:778,-3.0763,2.126,10.6131,49.904,0.4991,-0.146,-0.9273,37.8281
14:23:36:794,-3.1842,2.0375,11.6354,49.0211,0.8002,-0.5375,-0.97,38.1875
14:23:36:814,-2.2433,1.3095,10.3977,48.0171,1.0354,-0.7477,-1.0568,38.2188
14:23:36:834,-2.1667,1.0032,7.2278,46.6581,1.0494,-1.1447,-1.1062,37.5625
14:23:36:853,-1.9008,1.8027,9.8973,44.9724,0.6695,-2.3017,-0.8619,37.5
14:23:36:878,-1.3884,0.8644,11.6186,43.5287,0.0886,-2.0085,-0.6652,37.0156
14:23:36:893,-0.5291,1.4653,10.515,42.0571,-0.2126,-0.6835,-0.587,36.9688
14:23:36:916,-1.5945,2.1619,11.147,40.7349,-0.3983,-0.2938,-0.6194,36.9688
14:23:36:933,-3.0428,0.4143,10.6681,39.7061,-0.3555,-0.4288,-0.6903,36.3594
14:23:36:954,-2.26,-0.5722,11.7957,38.7743,-0.2162,-0.9486,-0.4435,36.3594
14:23:36:979,-0.8955,-0.2249,12.8324,38.1203,0.0513,-1.3066,-0.1112,35.875
14:23:37:049,0.1005,0.1484,12.3631,37.777,0.234,-1.2046,0.0348,35.875
14:23:37:049,0.2994,0.1412,11.98,37.7511,0.2132,-0.8796,0.044,37.5
14:23:37:050,0.5124,0.1364,11.7335,37.5967,0.0409,-0.3134,0.0562,37.5
14:23:37:059,1.0487,0.5961,10.5269,37.635,-0.0666,0.1973,0.0727,39.5156
14:23:37:075,1.2138,0.7445,10.1007,37.6043,-0.0367,0.1112,-0.0489,39.5156
14:23:37:092,0.8354,0.4525,10.2156,37.4004,0.0819,-0.2449,-0.2663,41.8438
14:23:37:113,0.1484,0.0431,9.883,37.482,0.2291,-0.4972,-0.4203,42.0781
14:23:37:132,-0.4765,-0.067,9.0688,37.1558,0.3207,-0.5815,-0.427,44.5
14:23:37:153,-0.9769,0.1196,8.4153,36.8347,0.2584,-0.4624,-0.3091,45.7812
14:23:37:174,-0.6966,0.498,8.2932,36.224,0.212,-0.3005,0.0177,49.5
14:23:37:194,-0.0455,1.4004,7.8407,35.6783,0.361,-0.4868,0.0519,50.4062
14:23:37:214,0.1627,1.829,7.7593,35.2229,0.471,-0.675,0.0195,52.9062
14:23:37:233,0.1244,1.9606,8.0441,34.862,0.4661,-0.7471,-0.0483,53.4375
14:23:37:253,0.2369,2.0901,8.6043,34.547,0.4044,-0.6774,-0.0715,54.3438
14:23:37:275,0.376,2.3294,8.9994,34.0886,0.3586,-0.4478,-0.0831,54.3906
14:23:37:293,0.3401,2.5881,8.9731,33.8408,0.3415,-0.1961,-0.1038,54.7031
14:23:37:313,0.2632,2.7676,8.7529,33.7405,0.3329,-0.066,-0.1197,54.4531
14:23:37:333,0.2512,3.0093,8.4559,33.6115,0.2957,-0.0318,-0.1124,54.1094
14:23:37:353,0.352,3.0236,9.4256,33.462,0.2077,-0.0996,-0.1002,54.2188
14:23:37:375,0.7181,3.1412,10.1892,33.1488,0.2242,-0.1301,-0.0776,54.375
14:23:37:393,0.9864,3.2608,10.3905,32.7154,0.347,-0.1374,-0.0947,55.2188
14:23:37:414,0.9027,3.3972,10.3161,32.2586,0.4502,-0.1839,-0.1216,55.2188
14:23:37:433,1.1085,3.3565,10.3352,31.732,0.46,-0.2614,-0.0935,55.7812
14:23:37:452,1.3143,3.2728,10.6298,31.1839,0.4227,-0.328,-0.0599,55.7812
14:23:37:474,1.6448,3.323,10.8188,30.4716,0.3952,-0.3537,-0.0263,55.7812
14:23:37:492,1.7189,3.4475,11.0584,30.1344,0.3934,-0.3482,-0.0134,55.7812
14:23:37:513,1.5873,3.7038,10.6657,29.6041,0.4343,-0.3494,-0.0104,55.9531
14:23:37:532,1.7812,3.9814,9.4472,29.1579,0.4392,-0.4514,-0.0067,55.9531
14:23:37:552,2.5089,3.687,9.3036,28.9195,0.2028,-0.6622,-0.036,56.2188
14:23:37:574,3.2632,2.6791,11.3599,28.8589,-0.2187,-0.7953,-0.1063,56.2188
14:23:37:593,3.711,1.5562,14.5777,28.899,-0.4471,-0.7452,-0.1796,56.4688
14:23:37:613,3.4068,0.8019,15.2527,28.9126,-0.1826,-0.4337,-0.2388,56.4688
14:23:37:633,2.4921,1.075,11.4772,28.8738,0.3757,-0.0293,-0.2492,56.6719
14:23:37:653,2.2289,1.5826,8.0608,28.7063,0.6334,-0.0055,-0.2297,56.7031
14:23:37:675,2.7269,1.9582,7.034,28.7383,0.4313,-0.2077,-0.2205,56.8906
14:23:37:694,4.0029,1.6902,9.6362,28.7392,-0.2767,-0.4942,-0.3335,56.9062
14:23:37:713,4.343,1.6137,10.7471,28.4342,-0.2816,-0.4184,-0.4502,57.1406
14:23:37:733,3.5312,1.8218,9.0209,28.1482,-0.0299,-0.1466,-0.5931,57.1562
14:23:37:752,2.4395,2.0088,6.6796,27.8256,0.1344,0.0403,-0.6799,57.2969
14:23:37:776,1.7788,2.2624,5.5878,27.5229,0.0959,0.036,-0.6768,57.3125
14:23:37:793,1.4438,2.4012,5.6836,27.2627,-0.0079,-0.0709,-0.6341,57.4062
14:23:37:815,1.1827,2.4921,6.0906,27.1933,-0.0342,-0.1729,-0.5858,57.4062
14:23:37:834,1.0367,2.6121,6.2438,26.803,0.0354,-0.2535,-0.5333,57.5781
14:23:37:852,0.8835,2.8609,6.026,26.5217,0.1216,-0.2981,-0.4771,57.5938
14:23:37:879,0.9147,3.268,5.9255,26.3923,0.1387,-0.3592,-0.4129,58.2188
14:23:37:893,1.276,3.6775,6.4714,26.1741,0.0593,-0.4282,-0.3598,58.8281
14:23:37:916,1.5012,3.9048,7.0795,25.7384,-0.0709,-0.4154,-0.3555,58.8281
14:23:37:934,1.3956,3.8976,7.8622,25.6979,-0.2278,-0.3512,-0.3818,59.2656
14:23:37:954,1.2664,3.687,9.3802,25.8042,-0.3781,-0.2908,-0.3885,59.2656
14:23:37:979,1.197,3.5527,10.692,25.666,-0.3891,-0.215,-0.3512,60.0938
14:23:37:993,1.0989,3.6269,10.9217,25.7739,-0.2639,-0.0965,-0.2859,60.0938
14:23:38:015,0.941,3.7588,10.6442,25.9856,-0.1613,0.0287,-0.2089,61.375
14:23:38:033,0.5961,3.6894,10.7375,25.8944,-0.1497,0.1252,-0.1252,61.375
14:23:38:053,0.2874,3.5695,11.0752,25.9033,-0.1478,0.1851,-0.0012,62.8281
14:23:38:075,0.3425,3.4187,11.4556,25.8422,-0.1112,0.2016,0.168,62.8281
14:23:38:094,0.6296,3.3278,11.6569,25.7658,-0.058,0.1906,0.3512,64.2188
14:23:38:116,0.9984,3.3565,11.7,25.5765,-0.0709,0.1973,0.5284,64.2188
14:23:38:134,1.494,3.3422,11.9082,25.6422,-0.1949,0.2065,0.6848,65.3125
14:23:38:153,2.4108,3.0476,13.2443,25.8759,-0.3732,0.1576,0.8014,65.4219
14:23:38:181,4.0244,1.6902,15.9685,25.7368,-0.0232,0.0275,0.7575,66.3281
14:23:38:195,3.1268,1.1707,13.8165,25.847,0.4985,0.1912,0.6218,66.4219
14:23:38:216,2.0949,1.051,10.4408,25.8756,0.8185,0.394,0.5656,67.3281
14:23:38:233,1.5132,1.1563,7.8072,26.0939,0.7513,0.4569,0.5937,67.4062
14:23:38:253,1.6878,1.2257,8.0943,26.215,0.3928,0.2926,0.6322,68.3125
14:23:38:279,2.1595,0.9912,9.4328,26.1349,0.1203,0.011,0.6151,68.4062
14:23:38:294,2.3198,0.7971,10.4408,25.8979,0.0629,-0.1906,0.5638,68.9688
14:23:38:315,2.2959,0.7229,10.8523,25.6703,0.1222,-0.2217,0.5168,69.0156
14:23:38:334,1.9968,0.8186,10.1318,25.5086,0.2126,-0.0336,0.4985,69.125
14:23:38:353,1.762,1.1061,8.9109,25.2583,0.2657,0.2065,0.5094,69.1406
14:23:38:376,1.707,1.5323,7.7186,24.9632,0.273,0.3873,0.518,68.5781
14:23:38:396,1.506,1.8817,6.8016,24.6463,0.2504,0.4697,0.5033,67.1562
14:23:38:416,1.4294,2.1093,6.5073,24.4195,0.226,0.4288,0.4905,67.1562
14:23:38:434,1.4916,2.4897,6.3012,24.1217,0.2327,0.3292,0.4789,65.3906
14:23:38:454,1.9271,3.0356,6.4834,23.8174,0.2327,0.2004,0.4508,65.3906
14:23:38:477,2.1045,3.4116,6.8662,23.5835,0.223,0.0861,0.3561,63.7812
14:23:38:493,2.138,3.6775,7.4169,23.4182,0.1839,0.0525,0.2327,63.7812
14:23:38:515,2.1236,3.6823,8.7314,23.1644,0.1319,0.0458,0.1191,62.1875
14:23:38:533,1.9295,3.6078,9.6123,22.9078,0.1875,0.1026,0.0421,62.1875
14:23:38:553,1.6711,3.8043,9.5237,22.7699,0.3292,0.2089,0.022,60.8438
14:23:38:574,1.7859,4.1321,9.2629,22.2968,0.4465,0.2223,0.0305,60.7031
14:23:38:594,1.8314,4.4483,9.1454,21.7335,0.4972,0.1875,0.0092,59.5625
14:23:38:615,1.5323,4.5918,8.6545,21.4638,0.5009,0.1295,-0.033,59.5625
14:23:38:633,1.4004,4.3932,8.3674,20.8366,0.3848,0.0018,-0.0354,58.4844
14:23:38:653,1.7405,4.2233,9.4615,20.2848,0.1209,-0.1662,0.0458,58.375
14:23:38:679,2.5475,3.5288,10.9555,19.8489,-0.0916,-0.2498,0.1148,57.1562
14:23:38:694,2.3174,3.3541,12.0206,19.2987,-0.1539,-0.1197,0.1234,57.0312
14:23:38:718,1.6041,3.6102,9.5907,18.8932,-0.0544,0.0837,0.1771,55.875
14:23:38:734,2.0973,3.0332,9.0664,18.7662,0.0574,0.1625,0.1997,55.7656
14:23:38:754,3.3924,2.1858,12.5474,18.9102,-0.6145,-0.4331,0.3885,54.8594
14:23:38:780,4.1608,1.427,15.7005,18.8226,-0.6738,-0.4001,0.3964,54.7656
14:23:38:800,3.9383,1.4916,13.8619,18.9968,-0.1228,0.0006,0.3366,54.3594
14:23:38:812,3.2943,1.8386,9.6721,18.9683,0.3555,0.3714,0.2462,54.3281
14:23:38:834,3.0981,2.1643,7.5652,18.8919,0.295,0.4325,0.1619,54.1406
14:23:38:853,3.4666,2.0399,8.3124,18.8899,-0.0299,0.2443,0.0599,54.125
14:23:38:876,3.6679,1.8362,9.3323,18.8567,-0.1985,0.0647,-0.0709,53.9219
14:23:38:894,3.5886,1.5323,10.2778,18.6802,-0.1802,-0.0348,-0.204,53.8594
14:23:38:915,3.1388,1.5251,10.0074,18.5246,0.0153,0.036,-0.3036,53.8594
14:23:38:933,2.4132,1.6543,8.3865,18.2419,0.2712,0.1833,-0.3696,53.7656
14:23:38:953,1.6304,1.8051,6.6556,17.4961,0.3971,0.3128,-0.3928,53.7656
14:23:38:980,0.8501,2.0231,5.808,16.8876,0.3433,0.3964,-0.3677,53.4844
14:23:38:993,0.3401,2.2887,5.7769,16.3974,0.2199,0.4331,-0.2969,53.4844
14:23:39:014,0.376,2.6025,5.8992,15.824,0.1289,0.3983,-0.1918,52.9375
14:23:39:033,0.8282,2.8681,6.5336,15.0493,0.0507,0.273,-0.0965,52.9375
14:23:39:110,1.5251,3.0452,7.6899,14.4898,-0.0336,0.1637,-0.0464,52.4531
14:23:39:110,1.7453,3.1244,8.7171,13.8132,-0.0739,0.179,-0.0574,52.3906
14:23:39:110,1.506,3.1244,8.9539,13.4249,-0.0421,0.3225,-0.0849,51.6562
14:23:39:113,1.1683,3.3924,8.231,12.9739,0.0153,0.5076,-0.0709,51.6562
14:23:39:132,1.0415,3.7564,7.8909,12.6377,0.0092,0.5797,-0.0342,51.2812
14:23:39:153,0.8354,3.9933,7.9364,12.2774,-0.0403,0.5528,-0.0067,51.2344
14:23:39:175,0.7062,4.1154,8.3267,11.8912,-0.1216,0.5088,0.0263,51.5469
14:23:39:192,0.7636,4.1895,8.9204,11.734,-0.2114,0.4985,0.0776,51.5781
14:23:39:214,0.9482,4.1752,9.8279,11.4253,-0.2749,0.5259,0.1344,52.1719
14:23:39:234,0.8644,4.0077,10.8141,11.0521,-0.0195,0.5656,0.2419,52.2344
14:23:39:253,0.5913,4.1752,10.2921,10.5174,0.1906,0.4887,0.3237,52.7969
14:23:39:275,0.4454,4.3095,10.4743,10.4129,0.2663,0.4435,0.4013,52.8438
14:23:39:293,0.2369,4.3549,10.6083,9.8796,0.2621,0.4832,0.4722,53.1406
14:23:39:312,0.213,4.4411,10.1868,9.3185,0.2449,0.4716,0.5247,53.1719
14:23:39:333,0.5698,4.113,10.7758,9.1737,0.1643,0.2395,0.5156,53.2344
14:23:39:353,0.6224,3.6054,12.1214,8.8476,0.0751,-0.0501,0.4441,53.2344
14:23:39:373,0.2082,3.0356,12.9377,8.4883,0.0525,-0.1985,0.3763,53.2969
14:23:39:393,0.0239,2.715,12.9927,8.1752,0.1173,-0.2211,0.3665,53.1719
14:23:39:413,-0.0622,2.557,11.9154,7.8097,0.2327,-0.19,0.3696,53.1719
14:23:39:433,0.0455,2.5929,10.9555,7.5139,0.2474,-0.1594,0.369,52.9375
14:23:39:452,0.0981,2.5331,10.5796,7.4515,0.1527,-0.1338,0.3299,52.9375
14:23:39:473,-0.3257,2.2457,10.2945,7.3574,0.1014,-0.168,0.2584,52.5156
14:23:39:492,-0.5363,2.3127,10.0481,7.3015,0.1552,-0.3195,0.2315,52.5156
14:23:39:514,-0.0455,2.3174,9.6242,7.2359,0.2547,-0.4423,0.2388,51.8281
14:23:39:532,0.5435,2.2887,9.3993,7.4481,0.2932,-0.3073,0.179,51.8281
14:23:39:553,-0.51,2.6791,8.4129,7.6658,0.2767,0.0696,0.1161,50.8281
14:23:39:573,0.309,2.5017,7.9603,8.0367,0.2199,0.2914,0.2181,50.8281
14:23:39:593,0.7397,2.8059,7.7856,8.2465,0.1631,0.493,0.2431,49.5156
14:23:39:613,0.5291,2.8681,7.9699,8.3409,0.1552,0.6353,0.1973,49.5156
14:23:39:632,0.1053,2.916,7.2517,8.4498,0.2724,0.6481,0.1655,48.4062
14:23:39:654,-0.2154,3.2465,6.3156,8.0993,0.3543,0.5919,0.1839,48.4062
14:23:39:676,-0.4741,3.6488,6.4065,7.7795,0.314,0.4526,0.2138,47.7344
14:23:39:692,-0.0885,3.979,7.6397,7.2359,0.2138,0.3073,0.2633,47.6719
14:23:39:713,-0.134,4.2138,8.7003,6.728,0.1332,0.2895,0.2498,46.9844
14:23:39:734,-0.5506,4.1752,9.0353,6.1162,0.1527,0.2688,0.2114,46.9219
14:23:39:755,-0.7564,4.532,8.8295,5.795,0.2382,0.2156,0.2211,46.375
14:23:39:776,-0.0479,4.7426,8.8678,5.5886,0.4227,0.0092,0.336,46.3281
14:23:39:793,0.364,5.0611,8.5828,5.3072,0.4948,-0.0293,0.3115,45.9844
14:23:39:813,0.213,5.1138,7.8646,5.23,0.4441,0.0538,0.234,45.9688
14:23:39:833,-0.2465,4.9534,7.6253,5.1301,0.2523,0.1313,0.1686,45.6875
14:23:39:852,-0.2297,4.8266,8.2286,5.3572,-0.0018,0.1209,0.1723,45.6562
14:23:39:873,0.0837,4.4674,9.5883,5.547,-0.1979,0.0269,0.1918,45.0156
14:23:39:893,0.0909,4.2544,10.5604,5.7996,-0.2547,-0.0324,0.2101,44.2812
14:23:39:914,-0.3138,4.4076,10.6561,6.0011,-0.1729,-0.0843,0.2578,44.2812
14:23:39:934,-0.2489,4.8745,9.3562,6.5576,-0.014,-0.2663,0.3702,43.5
14:23:39:954,1.209,5.2023,9.3586,6.98,-0.0788,-0.5485,0.4942,43.5
14:23:39:980,2.7197,4.4698,11.7957,7.5398,-0.4245,-0.6438,0.4777,42.7656
14:23:39:993,2.715,3.3182,14.324,8.082,-0.6548,-0.4032,0.3531,42.7656
14:23:40:016,1.5897,2.715,14.228,8.6115,-0.518,0.0397,0.2798,42.1562
14:23:40:033,1.0032,3.0643,11.7957,9.1256,-0.1729,0.3781,0.3164,42.1562
14:23:40:053,0.6823,3.5145,9.4759,9.72,0.0806,0.3366,0.3299,42.1562
14:23:40:073,0.7469,3.7277,8.3028,10.3561,0.1014,0.0556,0.3048,41.4219
14:23:40:096,0.9625,3.5288,8.3459,10.9165,-0.1185,-0.1668,0.2883,40.7812
14:23:40:115,1.4701,3.0691,9.2773,11.3512,-0.4355,-0.2217,0.3097,40.7812
14:23:40:135,1.5993,2.8992,9.9763,11.83,-0.6322,-0.1081,0.3158,40.3281
14:23:40:153,1.1348,2.1978,9.2868,12.2431,-0.6371,0.0257,0.3189,40.3281
14:23:40:174,1.2473,3.0356,9.9691,12.6907,-0.5711,0.1662,0.4282,39.9375
14:23:40:197,1.4533,2.7293,8.3985,13.2206,-0.2046,0.4978,0.3781,39.8906
14:23:40:215,1.1133,2.7078,7.2326,13.5107,0.2077,0.4154,0.281,39.3594
14:23:40:233,0.9553,3.0093,6.239,13.6196,0.5027,0.2303,0.2547,39.3125
14:23:40:254,1.2592,3.8115,4.6875,13.7277,0.5174,0.1216,0.2798,38.5781
14:23:40:279,1.3669,4.2401,4.3334,14.0073,0.3011,0.1411,0.2608,38.5781
14:23:40:294,1.3214,4.4435,4.6301,14.1373,-0.0806,0.204,0.2077,38.0938
14:23:40:314,1.276,4.4172,6.0356,14.2345,-0.5736,0.2816,0.1539,38.0469
14:23:40:333,1.0965,3.9503,8.2478,14.119,-0.9774,0.3476,0.0867,37.25
14:23:40:353,0.3712,3.3446,10.3041,14.2943,-1.1117,0.3958,0.0232,37.1719
14:23:40:374,-0.4549,3.0093,11.0106,14.708,-0.9309,0.4514,0.0421,36.5938
14:23:40:394,-0.6105,3.0739,10.7686,14.8334,-0.6151,0.3622,0.1857,36.0469
14:23:40:414,0.0909,3.4546,10.3472,15.1106,-0.3873,0.146,0.3665,36.0469
14:23:40:433,0.8258,3.615,10.716,15.4792,-0.3305,-0.0892,0.452,35.2188
14:23:40:453,1.075,3.5145,11.6545,15.8299,-0.347,-0.2651,0.4276,35.2188
14:23:40:474,1.2042,3.6173,12.4421,16.5948,-0.2614,-0.2981,0.3861,34.2812
14:23:40:495,1.5873,4.156,11.4389,17.2578,-0.0354,-0.1564,0.347,34.2812
14:23:40:515,1.8673,4.0412,10.3711,17.6038,-0.0128,-0.066,0.2071,34.2812
14:23:40:533,1.494,2.7461,11.6713,18.0118,-0.372,-0.1014,-0.025,33.5469
14:23:40:553,1.0941,1.3502,13.7276,18.7944,-0.6848,-0.0464,-0.1423,33.5469
14:23:40:575,0.8282,0.6607,14.7811,19.4924,-0.6096,0.0434,-0.1216,32.8438
14:23:40:596,0.4047,0.6631,13.6247,19.9301,-0.201,0.1594,-0.0654,32.3594
14:23:40:614,0.2345,1.13,10.9675,20.4578,0.1961,0.2175,-0.0018,32.3594
14:23:40:633,0.1986,1.5897,9.6553,20.5649,0.2492,0.0745,-0.0018,32.1875
14:23:40:654,0.0957,1.6137,9.5237,20.7482,0.0764,-0.1625,-0.0654,32.1875
14:23:40:679,0.3209,1.2592,9.5955,21.1747,-0.1222,-0.339,-0.1002,31.875
14:23:40:695,0.7421,1.1157,9.8973,21.4228,-0.2963,-0.4087,-0.091,31.8438
14:23:40:716,0.8692,1.0606,10.1318,21.8614,-0.408,-0.3708,-0.08,31.0469
14:23:40:733,0.6009,1.0726,10.2371,22.131,-0.3971,-0.2908,-0.0428,30.9688
14:23:40:755,0.189,1.0223,9.6003,22.4944,-0.2602,-0.204,0.0776,30.2656
14:23:40:781,0.1627,0.9577,8.0728,22.9363,-0.088,-0.1295,0.4575,30.2031
14:23:40:795,0.5985,1.5562,6.9619,23.381,-0.1784,-0.1332,0.5229,29.6875
14:23:40:815,0.5291,2.1236,7.2015,23.9352,-0.226,-0.1362,0.5223,29.625
14:23:40:833,0.4813,2.3916,7.3355,24.441,-0.2004,-0.0904,0.5473,29.8594
14:23:40:853,0.4908,2.7078,7.7737,24.8415,-0.1429,-0.0092,0.5944,29.8906
14:23:40:874,0.352,2.5762,8.1039,25.3744,-0.1258,0.0672,0.6469,30.0938
14:23:40:895,0.2512,2.1571,8.5564,25.8366,-0.2022,0.1075,0.7513,30.0625
14:23:40:914,0.1795,1.8003,9.2339,26.4676,-0.3189,0.1668,0.8876,30.0625
14:23:40:934,-0.0311,1.5634,10.273,27.1994,-0.3647,0.2963,1.0549,30.3125
14:23:40:953,-0.1125,1.7692,11.0321,27.9727,-0.2156,0.4838,1.251,30.3125
14:23:40:975,0.5578,2.1787,10.7877,28.4832,0.0562,0.7666,1.4203,30.6562
14:23:40:996,2.1452,2.7676,9.373,29.0581,0.2254,0.8796,1.3904,30.6562
14:23:41:014,2.7126,3.0811,9.4424,29.6932,0.1142,0.4355,0.8601,30.6719
14:23:41:033,1.8027,1.7046,10.8858,30.1695,-0.0476,-0.2193,0.2187,30.75
14:23:41:054,0.8883,1.0582,11.7694,30.8609,-0.0134,-0.6554,0.0568,30.75
14:23:41:074,0.9458,1.5108,11.1948,31.3253,0.0812,-0.6603,0.2468,30
14:23:41:093,1.992,1.4198,9.5788,31.799,-0.1173,-0.2651,0.4416,28.9219
14:23:41:181,3.3948,0.067,11.1422,32.4984,-0.799,0.0586,0.4245,28.9219
14:23:41:181,3.0595,-1.6543,13.5266,33.1673,-1.2474,0.1564,0.2046,27.7031
14:23:41:187,2.2074,-1.951,13.7444,33.7069,-1.0122,0.0257,0.1289,27.7031
14:23:41:188,1.7118,-1.1779,12.2554,34.1583,-0.4838,0.0171,0.2107,26.1719
14:23:41:195,1.5802,-0.4334,10.6466,34.7191,-0.1521,0.1002,0.2914,26.1719
14:23:41:213,2.0806,0.4645,8.4272,34.9473,-0.0953,0.2193,0.3799,24.2344
14:23:41:233,2.9303,0.6703,7.5823,35.4955,-0.3958,0.2657,0.3665,24.0312
14:23:41:254,3.1125,-0.0239,9.2892,36.0849,-0.876,0.2749,0.1558,21.25
14:23:41:277,0.9386,-0.352,10.1007,36.2062,-0.7648,0.4264,0.011,20.9688
14:23:41:294,1.13,-0.1005,8.3794,36.5494,-0.3091,0.3781,0.1765,18.5469
14:23:41:313,1.1635,0.3066,7.8239,37.1066,0.0067,0.1704,0.1723,18.3125
14:23:41:333,1.4004,0.3688,7.6971,37.6188,0.1387,0.0959,0.1222,18.1094
14:23:41:352,1.2473,0.5961,8.0082,37.9218,0.1655,0.2187,0.0489,18.0938
14:23:41:373,0.8453,0.7971,8.0369,38.4394,0.1594,0.452,-0.0202,17.5
14:23:41:393,0.7134,1.1133,7.8861,38.5639,0.1747,0.6115,-0.0202,16.9531
14:23:41:417,1.0893,1.6137,7.812,38.4728,0.1472,0.6805,0.011,16.9531
14:23:41:432,1.5897,2.0375,9.0616,38.5518,0.0654,0.5809,-0.0666,16.9062
14:23:41:452,1.3167,2.0542,10.2826,38.673,0.1625,0.3274,-0.2578,16.6719
14:23:41:473,-0.3114,2.016,10.4408,38.3394,0.4349,0.0098,-0.4319,15.9219
14:23:41:493,-1.1515,1.6591,10.4264,38.0177,0.6157,-0.3231,-0.2902,15.9219
14:23:41:514,-0.2345,0.6296,10.3663,37.7831,0.6292,-0.5217,0.0867,15.9062
14:23:41:532,0.6846,0.0431,10.4551,37.5998,0.4221,-0.3622,0.3439,15.4219
14:23:41:553,0.7564,0.3138,11.3862,37.7052,0.1399,-0.1264,0.4447,15.4062
14:23:41:573,0.7086,0.8931,12.1167,37.7534,0.0574,-0.014,0.5223,15.5469
14:23:41:595,-0.0048,0.929,12.0518,37.8615,0.1643,-0.0128,0.587,15.1719
14:23:41:613,-0.7828,0.8378,11.2857,37.8287,0.259,-0.0214,0.752,15.1719
14:23:41:633,-0.4884,0.6727,10.905,38.1854,0.19,0.0226,1.003,14.9531
14:23:41:653,0.4884,0.6344,11.2235,38.7824,-0.0525,0.3176,1.1032,14.9531
14:23:41:674,0.821,0.2297,11.3575,39.3189,-0.3451,0.7165,0.9499,14.9375
14:23:41:694,0.632,-0.7325,11.9154,39.8591,-0.5681,0.7031,0.6921,14.9375
14:23:41:713,-0.5291,-1.3119,12.842,40.3071,-0.5052,0.2425,0.4038,14.9375
14:23:41:732,-2.0877,-1.1157,12.4301,40.8157,-0.0116,-0.2596,0.2999,14.9531
14:23:41:753,-2.3318,-0.1196,10.1653,41.1868,0.5388,-0.2291,0.5192,15.5938
14:23:41:774,-1.1683,0.7229,7.922,41.6995,0.5449,0.2175,0.8308,15.6719
14:23:41:794,0.0096,0.5435,7.5054,42.2764,-0.0892,0.3989,0.9034,15.875
14:23:41:814,-0.3927,-0.929,9.9476,42.6868,-1.1563,0.0183,0.6383,15.8906
14:23:41:832,-0.5626,-0.9242,10.5748,43.2297,-0.9706,-0.3842,0.595,15.1094
14:23:41:853,-0.6344,-0.7349,9.4519,43.8975,-0.5174,-0.4728,0.5223,15.0312
14:23:41:873,-0.7253,-0.7253,8.1903,44.4297,-0.1417,-0.2969,0.5601,13.9219
14:23:41:894,-0.2321,-0.2827,7.0122,45.3737,-0.0324,0.0214,0.6835,12.0312
14:23:41:913,0.1316,-0.0622,7.2517,46.2344,-0.1454,-0.0556,0.6389,12.0312
14:23:41:933,-0.1292,-0.213,8.6402,47.0949,-0.1588,-0.4044,0.4771,9.7656
14:23:41:961,-0.1555,-0.2946,9.0497,47.8047,0.0678,-0.532,0.4343,9.7656
14:23:41:977,-0.0718,0.0407,9.0401,48.4839,0.2834,-0.4209,0.4966,9.5469
14:23:41:993,0.0287,0.3329,8.9731,49.2948,0.3879,-0.2266,0.595,8.3281
14:23:42:014,0.4645,0.7493,8.7218,49.7823,0.3879,-0.0116,0.7086,8.3125
14:23:42:034,1.1444,1.2832,8.8247,50.3195,0.2682,0.1448,0.7342,7.4219
14:23:42:053,1.1348,1.3549,9.7534,50.421,0.1093,0.0941,0.5773,7.4219
14:23:42:073,0.6488,0.9386,10.7088,50.6978,0.113,-0.0861,0.3891,5.4688
14:23:42:095,0.1914,0.7588,11.5828,51.0581,0.2578,-0.2132,0.3451,4.0469
14:23:42:114,0.1125,0.352,11.779,51.2484,0.4551,-0.1588,0.4251,4.0469
14:23:42:134,0.5291,-0.079,11.5158,51.6863,0.6292,-0.1167,0.5553,2.8906
14:23:42:153,1.264,0.0957,11.7191,51.6098,0.7086,-0.1778,0.6701,2.8906
14:23:42:174,1.7501,0.51,11.6713,51.5351,0.8045,-0.358,0.6518,1.5312
14:23:42:196,1.8625,0.9027,10.8021,51.578,0.9242,-0.6444,0.5253,1.5312
14:23:42:215,1.9367,1.4366,9.5477,51.665,0.8906,-0.7984,0.4227,0.4375
14:23:42:235,2.1787,1.4318,8.7506,51.8218,0.4991,-0.6194,0.3317,0.3281
14:23:42:255,2.1284,0.6248,9.3036,51.8895,-0.1277,-0.3885,0.1808,359.3906
14:23:42:274,2.2122,-0.6679,10.7806,52.0469,-0.6292,-0.2834,0.0183,359.2969
14:23:42:294,2.0279,-1.9247,12.4493,51.9496,-0.8515,-0.1875,-0.0837,357.9531
14:23:42:316,1.2018,-2.0016,11.8005,52.2924,-0.4099,0.0959,0.036,357.8125
14:23:42:334,1.6424,-1.2832,10.4384,52.4782,-0.1307,-0.0483,0.1307,356.4844
14:23:42:353,2.6599,-0.8186,9.9811,53.0049,-0.1106,-0.1942,0.1442,356.3438
14:23:42:374,3.1244,-0.632,10.3137,53.3819,-0.2401,-0.1582,0.0476,355.5938
14:23:42:397,2.5857,-0.7373,10.1868,53.6567,-0.2737,-0.0079,-0.0965,354.4688
14:23:42:415,1.9534,-0.5315,9.4735,53.9069,-0.1319,0.0928,-0.1686,354.4688
14:23:42:434,1.5562,-0.0167,8.31,54.1937,0.0654,0.1374,-0.1686,354.3594
14:23:42:454,1.64,0.498,7.3451,54.4277,0.1741,0.1081,-0.1356,352.9688
14:23:42:473,1.817,0.7062,7.223,54.4427,0.1344,0.0605,-0.1344,352.8281
14:23:42:492,1.7883,0.5243,7.7976,54.9367,0.0409,0.0727,-0.1643,351.7031
14:23:42:516,1.7955,0.5865,7.9412,54.8141,0.0702,0.1344,-0.1521,351.7031
14:23:42:534,1.9657,0.9362,7.6325,54.6971,0.1417,0.2498,-0.1087,351.1719
14:23:42:553,2.1595,1.3502,7.6875,54.6781,0.1106,0.3787,-0.11,351.1719
14:23:42:575,2.0662,1.4557,8.2382,54.6384,0.0232,0.4746,-0.1839,351.4219
14:23:42:599,1.695,1.2209,9.0832,54.4306,-0.0593,0.5314,-0.2706,351.5781
14:23:42:614,1.2329,1.1276,9.7247,54.3589,-0.0849,0.606,-0.2914,351.5781
14:23:42:633,0.8644,1.0774,10.139,54.2802,-0.0544,0.6915,-0.2486,351.3125
14:23:42:655,0.5315,1.1157,10.127,54.043,-0.0037,0.7367,-0.1558,351.3125
14:23:42:674,0.5339,1.2592,10.2873,53.9637,-0.0159,0.7239,-0.0055,351.4375
14:23:42:693,1.0989,1.4127,11.0369,54.1973,-0.102,0.6841,0.1381,351.4375
14:23:42:715,1.6161,1.2497,12.1621,54.2784,-0.1057,0.551,0.1741,351.8125
14:23:42:734,1.64,1.0534,12.6072,54.3015,0.0825,0.4099,0.11,351.8125
14:23:42:755,1.4629,1.0463,12.3918,54.4801,0.3494,0.3329,0.0397,352.0312
14:23:42:774,1.2951,1.1683,11.9417,54.6981,0.5375,0.2596,0.0177,352.0625
14:23:42:794,0.9817,1.4533,11.6306,54.8322,0.5882,0.1264,0.0391,352.3594
14:23:42:816,0.3879,1.8673,10.7973,55.0178,0.3073,0.0342,0.0733,352.3906
14:23:42:835,0.6272,1.2377,11.1685,54.9939,-0.0715,-0.0623,0.0293,352.5625
14:23:42:854,0.5794,-0.134,12.3512,54.9675,-0.3732,-0.295,-0.0977,352.5781
14:23:42:874,-0.2249,-1.4868,13.0645,55.0229,-0.3592,-0.4649,-0.2052,352.9844
14:23:42:898,-0.9099,-1.628,12.0784,55.0124,-0.0275,-0.6047,-0.124,353.5312
14:23:42:914,-1.0822,-0.7181,10.8356,55.0375,0.3641,-0.5834,0.1106,353.5312
14:23:42:933,-0.5459,0.6081,9.1837,54.8383,0.5424,-0.2272,0.3079,353.5781
14:23:42:953,0.4621,1.1396,6.6341,54.8389,0.3561,0.0092,0.3085,353.6875
14:23:42:973,1.1109,0.8402,7.3762,54.9569,-0.2773,-0.2187,0.0489,353.7031
14:23:42:998,1.5586,0.7301,8.4177,55.1663,-0.813,-0.3128,-0.3567,353.3438
14:23:43:015,1.4844,-0.0502,8.9061,55.4244,-1.1197,-0.4227,-0.7709,353.3125
14:23:43:035,1.0104,-0.6153,8.9707,55.7634,-1.1789,-0.6267,-1.0348,353.1094
14:23:43:054,0.5698,-0.553,9.1406,55.9609,-0.967,-0.7801,-1.083,353.1094
14:23:43:075,0.5052,-0.3162,8.688,56.1558,-0.6817,-0.6921,-0.9798,352.9844
14:23:43:097,0.6368,0.1388,8.2406,56.5188,-0.4563,-0.5327,-0.8637,352.7969
14:23:43:114,0.4884,0.6248,7.7521,56.8685,-0.3042,-0.2816,-0.7819,352.7969
14:23:43:135,0.309,0.7947,7.0914,56.932,-0.2462,-0.0043,-0.675,352.9062
14:23:43:153,0.2465,0.9434,6.7346,57.3913,-0.3262,0.1319,-0.4887,352.9062
14:23:43:174,0.2489,0.9386,7.1369,57.3978,-0.5229,0.1002,-0.281,353.3438
14:23:43:197,0.3544,0.7947,8.3124,57.4782,-0.6927,0.0293,-0.1136,353.3438
14:23:43:262,0.431,0.6511,9.4807,57.84,-0.6799,0.0586,-0.0165,352.8906
14:23:43:262,0.3449,0.2512,10.2778,58.1992,-0.4838,0.1332,0.0214,352.8906
14:23:43:263,-0.1125,0.067,10.9436,58.3217,-0.1863,0.2101,0.0776,352.5469
14:23:43:276,-0.3975,0.2994,11.1733,58.4393,0.204,0.3726,0.2193,352.5
14:23:43:299,-0.1579,0.364,10.8284,58.6237,0.5986,0.7147,0.4197,353.7656
14:23:43:315,1.8505,-0.0455,10.5245,58.4697,0.7611,0.876,0.6542,353.8906
14:23:43:336,1.9247,0.1675,11.5277,58.3431,0.5846,0.4991,0.4508,356.2031
14:23:43:354,1.0582,0.122,11.9943,58.2065,0.4685,0.2718,0.1991,356.4219
14:23:43:375,0.6607,0.5004,12.3559,57.9474,0.4294,0.2999,0.2046,358.3906
14:23:43:397,1.4342,0.7899,13.2156,57.5972,0.339,0.5925,0.358,358.6094
14:23:43:416,1.6017,-0.4884,14.1203,57.7032,0.0275,1.0116,0.328,0.1094
14:23:43:434,0.213,-2.4275,14.7858,57.6359,-0.438,0.9926,0.1252,0.25
14:23:43:453,-1.1372,-2.8418,15.9876,57.71,-0.7116,0.3726,0.0812,1.1094
14:23:43:473,-1.1037,-2.0303,16.5311,57.85,-0.4484,-0.0953,0.339,1.1875
14:23:43:497,-0.1029,-1.0989,15.2025,58.2615,0.2187,-0.0641,0.6524,1.4375
14:23:43:514,1.4581,-0.079,11.8843,58.342,0.7801,0.0507,0.7654,1.4688
14:23:43:534,2.3438,0.4573,10.2538,58.6468,0.7746,-0.1863,0.4746,1.4219
14:23:43:553,1.2042,-0.6894,11.5636,58.8858,0.4233,-0.4636,-0.0073,1.4219
14:23:43:574,0.4358,-1.7022,11.3456,58.9791,0.3604,-0.3665,-0.0684,0.6719
14:23:43:597,0.309,-1.6496,9.5118,58.9066,0.4752,-0.0409,0.1405,359.1719
14:23:43:614,0.6129,-0.7947,6.7298,58.8554,0.5339,0.3244,0.339,359.1719
14:23:43:633,0.8955,-0.1412,3.9287,58.9321,0.4526,0.5803,0.3793,358.375
14:23:43:654,0.0981,-0.443,2.2839,58.9112,0.2297,0.7428,0.2596,358.375
14:23:43:717,0.4956,1.075,0.4238,58.9193,-0.4038,0.1087,0.0696,357.1562
14:23:43:733,0.9721,1.8003,0.8524,59.0125,-0.4514,-0.0464,-0.0421,357.1562
14:23:43:754,1.4246,2.5618,1.6759,59.3392,-0.4844,0.2144,-0.1393,356.75
14:23:43:777,0.8354,3.0332,4.7521,59.849,-0.708,0.6622,-0.2126,356.7031
14:23:43:796,1.0032,0.3185,8.2621,59.9622,-0.8491,0.5137,-0.2944,355.2812
14:23:43:817,-2.5331,-3.2369,12.0541,60.0713,-0.7068,0.1472,-0.4636,355.1406
14:23:43:837,-0.5004,-2.071,13.8978,60.6547,-0.6646,-0.1973,-0.2792,354.6562
14:23:43:855,0.687,-0.5315,14.1108,61.1074,-0.5632,0.6298,0.6225,354.6094
14:23:43:874,0.62,0.3281,14.6519,61.4442,-0.5601,0.6713,0.4007,354.5312
14:23:43:898,0.2273,0.6392,15.2169,62.1443,-0.4038,0.3451,0.0538,354.5156
14:23:43:913,-1.6472,-0.0359,16.0956,62.7081,-0.2474,-0.0629,-0.3085,353.75
14:23:43:934,-2.8944,-0.5076,16.0837,62.9065,-0.0977,-0.2804,-0.3818,353.6719
14:23:43:953,-2.7724,-0.711,16.4282,63.6175,-0.1142,-0.2553,-0.2236,353.1875
14:23:43:973,-2.581,-1.6567,18.2551,64.3284,-0.2975,-0.1692,-0.1472,353.125
14:23:43:999,-2.9447,-2.825,20.1153,64.8091,-0.2627,-0.1209,-0.1118,352.9531
14:23:44:015,-3.1316,-2.77,18.2886,64.9731,0.2639,-0.1423,0.0495,352.9375
14:23:44:033,-2.3868,-1.3406,14.0486,65.3161,0.9444,-0.3964,0.2706,353.1094
14:23:44:054,-2.4227,-1.2114,11.767,65.7303,1.0769,-0.5681,0.3305,353.1094
14:23:44:074,-2.3988,-1.3525,10.3137,65.8137,0.6964,-0.5009,0.3555,353.6094
14:23:44:097,-0.9697,-1.0726,11.8866,65.9338,0.5327,-0.9993,0.372,354.4062
14:23:44:116,-1.2018,-2.6025,13.0502,66.0402,0.3048,-0.9377,0.1918,354.4062
14:23:44:134,-1.9558,-3.2034,11.9369,65.8523,0.1393,-0.2321,0.157,353.2656
14:23:44:155,-2.2265,-2.7628,8.7458,66.0133,0.124,0.4685,0.3738,353.2656
14:23:44:174,-1.5586,-2.1906,5.2023,66.1003,0.16,0.573,0.6719,352.7344
14:23:44:193,-0.9027,-0.9817,2.339,66.6996,0.0568,0.3262,0.9541,352.7344
14:23:44:216,-1.0199,0.0981,1.2592,66.7397,-0.1686,0.0067,1.2144,353.4688
14:23:44:233,-0.7875,0.055,0.699,67.0569,-0.2425,-0.4435,1.4899,353.4688
14:23:44:254,0.4789,1.2233,0.7588,67.597,-0.1924,-1.0171,1.6646,353.8594
14:23:44:356,3.833,2.3677,5.1114,69.446,0.1747,-1.416,1.5089,353.2969
14:23:44:374,5.1832,-2.6408,26.7829,69.3576,-1.7764,-3.6988,-0.2663,352.5938
14:23:44:393,-0.0311,-3.8761,14.1419,69.7973,-1.1423,0.2902,-0.9431,352.5156
14:23:44:415,0.8163,-1.5371,12.2794,69.8383,-0.8069,0.9517,-0.3995,352.1875
14:23:44:433,4.0436,-1.8027,15.7173,70.3866,-0.7959,0.2559,-0.1625,352.1562
14:23:44:453,2.4371,-1.8601,17.0818,70.7764,-0.5345,0.2144,-0.336,351.0938
14:23:44:473,2.1619,-1.8817,14.6447,70.9594,-0.0629,0.4923,-0.2779,350.9844
14:23:44:492,3.6559,-0.6368,12.763,70.8934,0.317,0.0452,-0.1326,348.8125
14:23:44:515,4.7883,0.309,10.2156,70.7495,0.2419,-0.1045,-0.1863,348.6094
14:23:44:533,3.7469,-0.364,12.1047,71.2664,-0.2547,-0.1026,-0.3573,345.1562
14:23:44:554,3.213,-1.7668,15.0709,71.4237,-0.7208,0.0641,-0.4551,345.1406
14:23:44:575,2.8155,-2.9686,17.0985,71.8342,-0.6389,0.1374,-0.4862,341.7344
14:23:44:598,3.3135,-3.4092,16.8401,71.8865,-0.1032,0.1319,-0.4832,338.3125
14:23:44:615,3.0981,-2.4251,12.6168,71.9411,0.532,0.215,-0.4899,338.3125
14:23:44:633,2.8442,-1.3549,8.9874,72.0264,0.7807,0.0525,-0.551,335.6875
14:23:44:653,3.5767,-0.7732,7.8383,72.1381,0.628,-0.2126,-0.6628,335.6875
14:23:44:675,3.1723,-0.9314,7.5341,72.3717,0.2755,-0.0647,-0.865,337.3125
14:23:44:692,2.4945,-1.561,8.5277,72.0961,-0.1234,0.1991,-1.0836,337.3125
14:23:44:716,0.0598,-2.6121,10.4982,72.0397,-0.2352,0.1955,-1.2932,338.2031
14:23:44:733,1.4581,-1.6711,8.8989,71.9477,0.0049,0.146,-1.3005,338.2031
14:23:44:753,1.9319,-0.8548,8.3052,71.7829,0.1179,0.0593,-1.2724,339
14:23:44:777,1.13,-0.5339,7.9484,71.4154,0.1063,0.179,-1.1563,339
14:23:44:798,1.6041,0.1507,6.7561,71.4188,0.0629,0.3641,-0.9865,339.25
14:23:44:814,1.6735,0.285,7.8048,71.4394,-0.0904,0.394,-0.846,339.2812
14:23:44:833,1.4222,0.1268,8.0345,71.4652,-0.1246,0.3787,-0.6988,340.2031
14:23:44:854,1.3813,0.213,7.4336,71.639,-0.0275,0.2376,-0.573,340.2969
14:23:44:875,0.7014,-0.0455,7.6971,71.7528,-0.3274,0.317,-0.449,341.3594
14:23:44:898,0.565,-0.352,8.3435,71.5898,-0.3983,0.3751,-0.3103,341.4688
14:23:44:914,1.5586,-0.256,8.1063,71.7949,-0.3372,0.3787,-0.1435,342.375
14:23:44:933,1.6711,-0.3855,8.4368,72.1281,-0.3964,0.4184,-0.1081,342.4531
14:23:44:953,1.2257,-0.7325,9.8973,72.3359,-0.4374,0.4361,-0.0935,343.875
14:23:44:973,1.427,-0.7205,10.3857,72.6768,-0.2718,0.3567,-0.0128,344.0156
14:23:44:999,1.9104,-0.4167,9.6482,72.797,-0.0507,0.1344,0.0269,346.4375
14:23:45:013,1.707,-0.8043,10.3017,72.9089,-0.0825,0.0299,0.0079,346.6719
14:23:45:034,2.0495,-1.1444,11.3408,73.1376,-0.2156,0.2083,0.0574,349.25
14:23:45:053,2.0064,-1.5826,12.7104,73.444,-0.1674,0.1912,0.055,349.5
14:23:45:073,1.7261,-1.6687,12.7965,73.7999,0.0849,0.1399,0.0501,351.8438
14:23:45:096,1.4055,-1.7405,13.3161,74.1229,0.3537,0.1374,0.0837,353.5781
14:23:45:114,1.2353,-1.7668,12.3559,74.4674,0.6151,0.1942,0.1478,353.5781
14:23:45:133,1.695,-1.7213,10.4456,74.4366,0.7477,-0.0495,0.1588,354.7969
14:23:45:153,1.3406,-2.4514,11.6521,74.4645,0.5785,-0.2425,0.0678,354.7969
14:23:45:173,1.1731,-2.6647,12.6673,74.6898,0.4685,-0.1283,0.0611,355.7188
14:23:45:197,1.5969,-2.3079,12.2674,74.6479,0.7452,-0.248,0.0507,355.7188
14:23:45:215,0.9266,-1.951,10.8595,74.4341,1.058,-0.2217,-0.0293,356.0938
14:23:45:234,0.6846,-1.4414,8.9563,74.0431,1.1521,-0.08,-0.0379,356.0938
14:23:45:253,1.4151,-0.9697,7.8263,73.5707,1.0103,-0.2773,-0.0599,356.2812
14:23:45:331,1.1898,-0.9529,7.9699,72.9535,0.6383,-0.3097,-0.1686,356.2812
14:23:45:332,0.0933,-1.0128,8.0417,72.8119,0.2364,0.0354,-0.1961,356.2656
14:23:45:332,-0.1579,-0.9266,7.922,72.8123,0.0464,0.1148,-0.0605,356.2656
14:23:45:332,0.3975,-0.553,7.1154,72.5246,-0.0079,0.0647,0.1045,356.1875
14:23:45:354,0.4669,-0.2465,6.2725,72.2358,-0.1167,0.0232,0.1619,356.1719
14:23:45:375,-0.0096,-0.0455,6.2797,72.317,-0.3066,0.0073,0.193,356.0156
14:23:45:399,-0.2345,0.0718,7.3905,72.5175,-0.4942,0.1148,0.2987,356
14:23:45:417,0.7636,1.0463,6.0691,72.89,-0.5058,0.5455,0.5638,355.6094
14:23:45:434,1.5491,1.5993,5.5639,73.2143,-0.5742,0.4911,0.5595,355.5781
14:23:45:453,1.4773,1.1276,7.6899,73.6127,-0.791,0.2932,0.3616,355.375
14:23:45:473,0.6129,0.7493,9.6697,74.1322,-0.8986,0.4038,0.1765,355.3438
14:23:45:499,0.1412,0.7397,10.017,74.9257,-0.846,0.7831,0.1497,355.2031
14:23:45:513,0.2082,0.929,9.6673,75.6837,-0.7471,1.0592,0.2107,355.1875
14:23:45:534,0.5076,0.9769,9.9284,76.5125,-0.6951,0.9914,0.2059,355.125
14:23:45:553,0.4167,0.6057,10.6585,77.3858,-0.5937,0.6756,0.1038,355.125
14:23:45:574,-0.285,-0.0167,11.5158,78.0642,-0.4374,0.3085,0.0263,355.4688
14:23:45:597,-0.6081,-0.6248,12.2698,78.9599,-0.2431,-0.0208,0.0733,355.4062
14:23:45:613,0.4119,-0.4454,12.3631,79.7073,-0.0586,-0.1778,0.2205,355.4062
14:23:45:634,1.6304,-0.376,12.4014,79.9436,0.0409,-0.3421,0.2126,355.0469
14:23:45:654,1.0008,-0.9601,12.8707,80.2442,0.2321,-0.6958,0.0305,355.0469
14:23:45:673,0.9482,-1.1324,12.7247,80.6981,0.4392,-0.8424,0.0061,354.2969
14:23:45:699,1.8434,-0.5411,11.4054,80.7288,0.4691,-0.6634,0.0715,354.2969
14:23:45:714,1.1348,-1.264,10.6633,80.5567,0.3299,-0.5992,-0.0067,353.1094
14:23:45:734,0.3066,-2.3653,12.1645,80.6719,0.1246,-0.6231,-0.0195,353.1094
14:23:45:754,0.4645,-2.715,12.7056,80.6643,0.0049,-0.3879,0.1081,352.625
14:23:45:775,0.9386,-2.8872,12.8276,80.2468,-0.0751,-0.0049,0.2657,352.625
14:23:45:799,0.8477,-2.8753,12.6984,80.5197,-0.1729,0.4038,0.3635,352.3438
14:23:45:815,0.5267,-2.4132,11.6976,80.4845,-0.2126,0.6243,0.3946,352.3125
14:23:45:834,1.1683,-1.6519,10.6394,80.3135,-0.1692,0.5455,0.4343,352.0781
14:23:45:854,2.5834,-1.3358,10.1151,80.5132,-0.1038,0.2834,0.3512,352.0625
14:23:45:875,1.398,-1.5132,9.5596,80.7646,-0.0385,0.0165,-0.2572,351.9688
14:23:45:894,0.9147,-1.8984,9.3203,80.8301,-0.113,0.1515,-0.4313,351.9688
14:23:45:916,0.3042,-2.4969,8.2645,80.7891,-0.182,0.3903,-0.4642,351.5156
14:23:45:933,-0.0144,-1.707,7.7713,80.9964,-0.234,0.4581,-0.361,351.4844
14:23:45:953,0.1555,-1.0534,7.9005,80.9393,-0.2046,0.4349,-0.2657,351.375
14:23:45:973,0.2201,-0.5506,7.4623,80.9222,-0.0947,0.5082,-0.2737,351.3594
14:23:45:993,0.1316,-0.3951,6.2844,80.9401,-0.0318,0.6603,-0.3354,351.2344
14:23:46:015,0.0909,-0.1842,5.7888,81.1066,-0.0941,0.6958,-0.3916,351.2188
14:23:46:034,-0.189,-0.0024,5.8992,81.2335,-0.1472,0.4649,-0.4129,351.1094
14:23:46:053,-0.4406,-0.0263,6.1887,81.3776,-0.1417,0.0684,-0.3726,351.0938
14:23:46:074,-0.2489,0.0646,7.6851,81.5573,-0.1332,-0.4655,-0.2999,350.4375
14:23:46:098,-0.2441,0.0072,8.997,81.6299,-0.0617,-0.887,-0.2779,349.5781
14:23:46:115,-0.3712,-0.7756,9.8518,81.4932,0.0086,-1.0604,-0.2688,349.5781
14:23:46:133,-0.256,-0.3855,10.5844,81.6402,-0.0464,-1.047,-0.1686,349.125
14:23:46:153,0.2704,-0.2106,11.8316,81.6334,-0.1106,-0.9651,-0.0935,349.125
14:23:46:173,0.6392,-0.4836,12.8348,81.3841,-0.0745,-0.6976,-0.0226,349.8906
14:23:46:192,0.9218,-0.6176,13.0549,81.3243,-0.0275,-0.2291,0.0886,349.8906
14:23:46:215,1.2281,-0.6392,12.5354,81.1689,-0.0159,0.2663,0.1967,350.8438
14:23:46:233,1.6232,-0.862,11.779,80.9668,0.0073,0.4545,0.2578,350.8438
14:23:46:253,1.7788,-0.8354,11.3695,81.0167,0.0922,0.1778,0.2651,351.4688
14:23:46:274,1.4151,-0.8067,11.5564,80.8984,0.215,-0.3512,0.2211,351.4688
14:23:46:292,1.7477,-0.8596,11.3145,80.6622,0.3323,-0.8417,0.171,352.3281
14:23:46:315,2.4467,-0.6751,11.0824,80.3169,0.3152,-1.1478,0.1429,352.3281
14:23:46:334,3.3374,-1.1252,11.3599,80.0324,0.0122,-1.174,0.0367,353.1406
14:23:46:355,3.7373,-2.5881,12.8587,79.4531,-0.4007,-0.9682,-0.149,353.2188
14:23:46:374,3.0476,-3.2967,14.4221,78.8533,-0.4215,-0.7135,-0.3231,353.75
14:23:46:399,1.6352,-3.5647,13.7662,78.4791,0.8424,-0.4661,-0.1368,353.7969
14:23:46:417,0.6009,-3.1747,10.4336,77.7834,1,-0.4838,0.1063,354.1562
14:23:46:434,0.8644,-2.0806,7.7976,77.1644,0.667,-0.6628,0.1057,354.2031
14:23:46:453,1.9777,-1.3597,8.3626,76.5947,0.3696,-0.934,-0.088,354.2656
14:23:46:473,1.9753,-1.2329,8.8008,75.86,0.3806,-1.2015,-0.2156,354.2656
14:23:46:494,2.6527,-0.565,9.0568,75.0527,0.5882,-1.2541,-0.2553,353.9844
14:23:46:516,5.3486,0.1484,9.3491,74.3962,0.7452,-0.8912,-0.3286,353.9688
14:23:46:533,4.8529,1.3525,7.57,73.6181,0.6225,-0.336,-0.452,353.4531
14:23:46:553,2.7197,0.8716,6.4472,72.5114,0.4349,-0.5339,-0.5901,353.4062
14:23:46:573,1.7429,0.067,5.2023,71.5717,0.4074,-1.0555,-0.6634,352.9375
14:23:46:598,2.7245,0.6511,5.3509,70.4186,0.3671,-1.6756,-0.6585,352.5781
14:23:46:614,1.9705,-0.7899,7.7904,69.0522,0.2175,-1.8699,-0.7245,352.5781
14:23:46:633,0.62,0.2369,6.926,68.2487,-0.5663,-0.4649,-0.3409,353.1094
14:23:46:654,1.2855,0.6368,7.3642,67.5752,-1.0574,0.2627,0.201,353.1094
14:23:46:674,3.3589,0.9362,7.7713,67.131,-1.1594,0.5754,0.5895,353.4688
14:23:46:698,6.0763,0.7086,9.0018,66.9568,-1.2333,0.7184,0.5809,353.4688
14:23:46:715,4.5727,0.1292,11.1087,67.0596,-1.094,0.6304,0.1918,353
14:23:46:734,3.4642,-0.3305,11.4509,67.1877,-0.6628,0.4013,0.0195,353
14:23:46:754,2.7891,-0.297,11.4389,67.7808,-0.2914,0.3708,0.0342,353.2031
14:23:46:774,3.7421,-0.0263,11.7072,68.6878,-0.0489,0.4203,0.0629,353.2031
14:23:46:797,5.6405,-0.1436,11.5469,69.3041,0.1997,0.2254,-0.0586,353.6094
14:23:46:815,4.3549,-0.6248,11.2881,69.6977,0.3708,-0.0855,-0.3079,353.6094
14:23:46:834,4.2401,-1.118,11.4437,69.7367,0.405,-0.1949,-0.3531,354.4844
14:23:46:853,4.5296,-0.8115,11.7072,69.578,0.3946,-0.0721,-0.2883,354.5781
14:23:46:874,4.1489,-0.7684,10.6035,69.5099,0.3848,0.1295,-0.2138,355.8125
14:23:46:898,4.1058,-1.2736,10.4169,69.2632,0.1521,0.3201,-0.1124,355.9531
14:23:46:917,4.5583,-2.0351,12.2195,68.8505,-0.1918,0.532,0.091,357.1719
14:23:46:934,5.3964,-2.2983,12.909,68.608,0.2083,0.5302,-0.0825,357.2812
14:23:46:953,4.2353,-1.8721,10.9555,68.3549,0.766,0.4972,-0.438,356.9688
14:23:46:973,3.0428,-1.331,9.2291,68.3929,1.0482,0.5424,-0.6493,356.9375
14:23:46:994,2.6049,-1.0391,7.0292,68.2424,0.9493,0.6573,-0.6231,356.6562
14:23:47:016,3.1053,-1.0008,5.4897,68.1067,0.485,0.6585,-0.4655,356.625
14:23:47:033,3.0476,-1.0199,7.3834,67.897,-0.1674,0.5827,-0.3824,356.7656
14:23:47:054,2.6575,-1.0391,9.9452,67.6076,-0.4716,0.5492,-0.3867,356.7812
14:23:47:075,2.5283,-0.9266,10.3929,67.6021,-0.1961,0.5211,-0.4013,356.7656
14:23:47:099,2.5738,-0.6511,8.0776,67.4898,0.2291,0.5675,-0.4227,357.3125
14:23:47:115,2.2265,-0.1436,6.9284,67.4218,0.2889,0.7593,-0.4606,357.3125
14:23:47:134,1.8482,0.0933,7.9531,67.0354,0.1381,1.0012,-0.46,357.7188
14:23:47:154,1.6998,0.4621,8.2119,66.8622,0.168,1.1924,-0.4264,357.7188
14:23:47:174,1.5682,0.9912,7.4408,67.1309,0.2877,1.3042,-0.4178,357.8125
14:23:47:199,1.0271,1.2903,7.3714,67.246,0.2957,1.3225,-0.4233,357.8125
14:23:47:214,0.7349,1.4004,7.314,67.5367,0.2578,1.2547,-0.3659,357.8125
14:23:47:234,0.6703,1.2879,7.8287,67.7775,0.1497,1.1246,-0.2902,357.8125
14:23:47:254,0.5124,1.2042,7.8024,67.8814,-0.0293,1.0342,-0.1961,358.6562
14:23:47:274,1.0726,0.9817,9.2195,68.0755,-0.314,1.0323,-0.0501,358.6562
14:23:47:293,0.6607,1.1515,10.9603,68.6937,-0.3311,0.9199,0.0666,359.5781
14:23:47:315,0.4167,0.9912,11.2451,69.4415,-0.1069,0.8356,0.1161,359.5781
14:23:47:333,0.4693,1.6208,11.2092,69.8332,0.1277,0.6322,0.1307,0.4062
14:23:47:397,0.0742,1.2927,11.554,70.3839,0.3537,0.3683,0.0788,0.4844
14:23:47:397,-0.8043,0.7038,11.8005,70.766,0.4441,0.314,0.0507,1.2812
14:23:47:398,-0.8115,0.443,12.2459,71.2278,0.4826,0.2578,0.1289,1.3594
14:23:47:416,-0.7205,1.2497,11.9201,71.5131,0.5846,0.3512,0.1802,2.1719
14:23:47:437,-1.3286,0.9721,11.1039,71.7368,0.5229,0.5345,0.1991,2.25
14:23:47:454,-1.9391,0.1723,10.4192,71.7285,0.1038,1.1386,0.2773,2.9531
14:23:47:473,-1.9825,-0.3066,13.0358,71.8203,-0.4068,1.942,0.4099,3.0156
14:23:47:494,-1.0295,-0.256,10.8667,72.2409,-0.4197,1.0268,0.4258,3.6562
14:23:47:515,-1.4629,-0.6009,9.8495,72.5029,-0.5699,-0.3561,0.1423,3.7188
14:23:47:534,-2.5065,-1.2544,12.0206,72.8145,-0.6915,-0.9859,-0.0922,4.0938
14:23:47:553,-2.2002,-0.8716,12.1573,72.9979,-0.3964,-0.813,0.08,4.125
14:23:47:574,-1.8147,-0.6751,10.7638,73.2767,0.1075,-0.2737,0.3134,4.0312
14:23:47:592,-1.6543,-0.6775,8.42,73.4446,0.3732,0.0574,0.405,3.6875
14:23:47:615,-1.5586,-0.3808,6.6724,73.68,0.1435,-0.0195,0.4355,3.6875
14:23:47:634,-1.0319,-0.134,6.6963,73.8028,-0.3549,-0.3604,0.5076,3.5
14:23:47:654,-0.1125,0.1268,7.7282,73.6809,-0.7312,-0.6622,0.5565,3.5
14:23:47:674,0.2776,0.2994,8.7003,73.7226,-0.7996,-0.7599,0.5186,3.1562
14:23:47:699,0.0383,0.1842,8.7673,73.7539,-0.6163,-0.5284,0.4496,3.1562
14:23:47:717,0.1053,0.2441,8.5158,73.747,-0.3525,-0.3354,0.4392,2.6875
14:23:47:734,0.5459,0.4956,8.1254,73.7731,-0.1729,-0.3537,0.4435,2.6875
14:23:47:754,0.8788,0.62,8.0752,73.8471,-0.1686,-0.5088,0.3836,1.7812
14:23:47:773,0.8692,0.7947,8.7242,73.6546,-0.2938,-0.6646,0.2944,1.6875
14:23:47:793,1.1994,1.1037,9.5859,73.5964,-0.3549,-0.6579,0.2352,0.9531
14:23:47:818,-0.2393,0.9912,8.8008,73.6566,-0.3091,-0.0941,0.2883,0.9531
14:23:47:834,0.1579,0.9362,8.729,73.7329,-0.3066,0.0458,0.4746,1.0156
14:23:47:855,1.4868,0.8258,9.3897,73.9006,-0.617,-0.2969,0.5375,1.0156
14:23:47:874,1.5036,0.6344,11.3551,74.0434,-0.9041,-0.3512,0.4209,0.3281
14:23:47:893,1.6831,0.8115,13.1459,74.2117,-0.6365,-0.3237,0.2547,0.2656
14:23:47:918,0.3114,-0.0502,11.5301,74.4929,0.2315,-0.3274,-0.1271,359.3281
14:23:47:936,0.5243,-0.1436,11.4341,75.0048,0.2395,-0.3702,-0.0855,359.25
14:23:47:955,0.6416,-0.5913,11.3073,75.3193,0.1692,-0.336,-0.0715,358.1094
14:23:47:974,1.209,-0.9003,11.3527,75.3224,0.0495,-0.226,-0.0684,358.1094
14:23:47:993,1.5945,-1.1707,11.4628,75.3059,-0.0586,-0.1686,-0.1277,357.2344
14:23:48:016,1.4677,-1.4414,11.5636,75.2224,-0.1942,-0.0935,-0.2181,357.1406
14:23:48:035,1.1157,-1.8864,12.2937,75.1212,-0.3323,0.0507,-0.2706,356.3438
14:23:48:053,0.9721,-2.1811,12.9544,75.1592,-0.306,0.1979,-0.2889,356.2656
14:23:48:073,0.9529,-2.1954,12.3559,74.9968,-0.0629,0.2676,-0.336,355.7656
14:23:48:093,0.917,-1.896,10.9771,74.939,0.2291,0.226,-0.3946,354.9688
14:23:48:117,1.0128,-1.7668,9.4854,74.5876,0.3861,0.149,-0.4172,354.9688
14:23:48:133,1.063,-1.628,8.7529,74.7485,0.3115,0.1344,-0.4258,353.8906
14:23:48:155,0.6894,-1.427,8.8511,74.6421,0.1307,0.2101,-0.4612,353.8906
14:23:48:173,-0.0024,-1.4414,9.0185,74.7089,0.0153,0.2938,-0.4667,353.6406
14:23:48:193,-0.0287,-1.2209,9.009,74.629,0.0159,0.3176,-0.408,353.6406
14:23:48:216,0.2536,-0.7469,8.8152,74.5167,0.0959,0.3048,-0.3818,353.8281
14:23:48:233,0.28,-0.2728,8.4775,74.4257,0.2052,0.3042,-0.4361,353.8594
14:23:48:256,-0.0096,-0.0096,8.2669,74.2803,0.2993,0.2822,-0.4923,353.8594
14:23:48:275,-0.1436,0.2752,8.1063,74.222,0.3561,0.2902,-0.4636,354
14:23:48:292,-0.0885,0.4956,8.0178,73.9295,0.3635,0.3005,-0.3518,354.3906
14:23:48:316,0.1196,0.6511,8.0369,73.8794,0.3366,0.2847,-0.2089,354.3906
14:23:48:334,0.4143,0.821,8.2908,73.7472,0.3005,0.2578,-0.0983,355.0469
14:23:48:353,0.5889,0.9625,8.5421,73.4888,0.2969,0.2034,-0.0483,355.0469
14:23:48:374,0.5435,0.9386,8.6378,73.1063,0.314,0.1723,-0.033,355.7656
14:23:48:393,0.5961,0.8716,8.7051,72.9922,0.3097,0.1924,0.0067,355.8438
14:23:48:417,0.6176,0.8668,8.6474,72.7621,0.2425,0.2993,0.0721,356.6562
14:23:48:433,0.577,0.8835,9.0353,72.7382,0.0867,0.4209,0.1295,356.7344
14:23:48:456,-0.3114,0.7349,10.4791,72.6945,-0.1833,0.5174,0.1454,357.6562
14:23:48:474,-0.8812,0.498,11.0417,72.9231,-0.1753,0.4612,0.146,357.75
14:23:48:492,-1.3358,0.2058,11.257,72.8544,-0.1295,0.419,0.171,358.5312
14:23:48:517,-1.7836,-0.0622,11.4365,73.3204,-0.1063,0.4447,0.2169,358.6094
14:23:48:535,-1.9872,-0.0933,11.5588,73.8438,-0.0965,0.4844,0.2834,359.5312
14:23:48:552,-1.8649,-0.0885,11.324,74.0917,-0.0819,0.4313,0.3696,359.6094
14:23:48:572,-1.5873,-0.0096,11.1159,74.5064,-0.1411,0.3347,0.4514,0.4219
14:23:48:593,-1.8434,-0.3138,11.1637,74.9471,-0.3311,0.3567,0.4893,0.7969
14:23:48:616,-2.6527,-0.9529,11.7694,75.3638,-0.6249,0.4954,0.5357,0.7969
14:23:48:634,-3.4092,-1.5754,12.9975,75.7519,-0.8912,0.6377,0.6194,0.8906
14:23:48:654,-3.3135,-1.8482,14.5131,76.5354,-0.8692,0.5974,0.7324,0.8906
14:23:48:673,-2.648,-1.7429,14.9345,77.0438,-0.3928,0.4398,0.7978,0.7969
14:23:48:693,-2.4203,-1.5299,13.5529,77.1709,0.328,0.2871,0.7611,0.7969
14:23:48:717,-2.6527,-1.3741,10.9265,77.5606,0.8503,0.1338,0.6829,0.4844
14:23:48:734,-2.4156,-0.699,9.4735,77.8,0.9065,-0.0831,0.6573,0.4531
14:23:48:755,-2.2768,-0.1866,9.2749,78.0023,0.7312,-0.2993,0.6371,0.4531
14:23:48:774,-2.3031,-0.012,9.2267,77.9009,0.6322,-0.4245,0.6469,0.0781
14:23:48:793,-2.2959,0.213,8.9157,77.4251,0.6591,-0.3946,0.7312,359.625
14:23:48:819,-2.0471,0.5961,8.4105,76.9197,0.7226,-0.248,0.8466,359.625
14:23:48:835,-1.6208,0.8644,7.946,76.3751,0.7746,-0.1515,0.9267,358.875
14:23:48:856,-0.8859,1.1396,7.8287,75.9699,0.8308,-0.182,0.9352,358.875
14:23:48:876,-0.4167,1.4414,7.5341,75.5029,0.9352,-0.2376,0.8387,357.9062
14:23:48:892,-0.4334,1.4294,6.7418,75.1712,1.0189,-0.2504,0.6903,357.7969
14:23:48:915,-0.4382,1.506,6.3491,74.3508,0.9279,-0.1936,0.6066,356.5625
14:23:48:934,-0.4406,1.5395,6.4448,73.985,0.6768,-0.0483,0.5711,356.4375
14:23:48:956,-0.4669,1.8242,8.1377,73.6009,0.3018,0.0892,0.4172,354.6719
14:23:48:976,-0.6105,2.0542,8.3339,73.128,0.3653,0.1161,0.3335,354.6719
14:23:48:999,-0.7325,2.2098,8.1688,72.8206,0.4319,0.2138,0.3024,353.2812
14:23:49:014,-0.4501,2.4921,8.4344,72.6996,0.4001,0.3073,0.3152,353.1406
14:23:49:035,-0.2297,2.7102,8.7482,72.5575,0.358,0.3305,0.295,351.9688
14:23:49:053,-0.3975,2.6815,8.4751,72.1254,0.3085,0.3121,0.2205,351.8438
14:23:49:073,-0.6009,2.6025,8.7601,72.1552,0.0928,0.2535,0.1723,350.5781
14:23:49:093,-0.4693,2.4251,9.9188,72.1439,-0.1881,0.1448,0.1802,348.7656
14:23:49:117,-0.498,2.2122,11.0345,72.3449,-0.3384,0.1222,0.1894,348.7656
14:23:49:134,-0.6344,1.9753,11.5469,72.5149,-0.3604,0.1991,0.1991,346.75
14:23:49:155,-0.4597,1.9705,11.5134,72.6175,-0.3372,0.1723,0.2046,346.75
14:23:49:173,-0.3449,1.8027,11.2451,72.7468,-0.3512,0.0183,0.1545,345.4531
14:23:49:193,-0.4119,1.4653,11.4748,72.7884,-0.4844,-0.0709,0.0721,345.4531
14:23:49:218,-0.7493,1.0869,12.2435,73.0683,-0.6414,0.0006,-0.0116,345.4375
14:23:49:235,-1.1563,0.7588,12.9784,73.2281,-0.6707,0.1222,-0.0861,344.2812
14:23:49:255,-1.3238,0.5411,13.4022,73.3664,-0.4832,0.1368,-0.1283,344.2812
14:23:49:274,-1.3836,0.419,12.7128,73.3866,-0.1222,0.102,-0.1527,343.4531
14:23:49:292,-1.5132,0.1555,11.3121,73.433,0.1851,0.066,-0.1716,342.7344
14:23:49:315,-1.4725,0.1579,10.3639,73.519,0.2468,0.0983,-0.1515,342.7344
14:23:49:335,-1.2616,0.4286,10.261,73.3587,0.1509,0.1741,-0.1222,342.0938
14:23:49:353,-1.0726,0.8572,10.084,73.266,0.11,0.2156,-0.1228,342.0938
14:23:49:376,-0.9625,1.252,9.708,73.2615,0.1588,0.1393,-0.1643,341.6406
14:23:49:392,-0.7397,1.5586,9.4376,73.214,0.2437,0.0226,-0.2309,341.6406
14:23:49:448,-1.6256,1.4151,8.5038,73.1343,0.3354,-0.0757,-0.3219,341.1875
14:23:49:448,-1.8147,1.4438,7.8885,73.1056,0.3396,-0.1362,-0.2614,341.1406
14:23:49:453,-1.5754,1.2951,7.381,72.9547,0.3005,-0.2413,-0.1124,340.7188
14:23:49:476,-0.1005,1.4821,6.8495,72.7996,0.2407,-0.2376,0.0898,340.6875
14:23:49:502,0.2922,1.695,6.361,72.6804,0.2095,-0.171,0.0635,340.5781
14:23:49:520,0.376,1.9801,6.1385,72.6338,0.1087,-0.1429,-0.0018,340.5625
14:23:49:534,0.1244,2.0423,6.227,72.4949,-0.0794,-0.1155,-0.0507,340.6875
14:23:49:554,-0.1268,2.0853,6.8231,72.4277,-0.3176,-0.0623,-0.0287,340.7031
14:23:49:573,-0.1412,2.1595,7.503,72.2281,-0.5235,0.0226,0.0483,341.0156
14:23:49:593,-0.3903,2.2959,8.3794,72.2072,-0.6634,0.1301,0.1069,341.3125
14:23:49:618,-0.4741,2.071,9.1071,72.1588,-0.7422,0.3402,0.2028,341.3125
14:23:49:633,-0.3927,1.8147,9.5931,72.1306,-0.8045,0.4966,0.2914,341.6406
14:23:49:653,-0.2827,1.5443,10.5867,72.2434,-0.89,0.5327,0.2987,341.6406
14:23:49:673,-0.419,1.1731,11.7239,72.2285,-0.8876,0.5052,0.2333,341.6406
14:23:49:693,-0.7062,0.7995,12.1502,72.6122,-0.7355,0.5052,0.0849,342.2812
14:23:49:717,-1.2018,0.6942,12.3488,72.9775,-0.5473,0.5583,-0.0788,342.2969
14:23:49:735,-1.9439,0.5626,11.9824,73.517,-0.3561,0.5742,-0.2419,342.7812
14:23:49:755,-2.5161,0.3664,11.4724,73.9093,-0.2669,0.5895,-0.3549,342.7812
14:23:49:775,-2.9136,0.1627,11.3575,74.4616,-0.3488,0.7336,-0.394,342.7656
14:23:49:793,-3.0835,-0.055,12.1478,75.1393,-0.5406,0.9401,-0.4361,342.75
14:23:49:816,-3.5049,-0.2345,13.5841,75.8446,-0.6451,1.0384,-0.5485,342.75
14:23:49:834,-4.4578,-0.5267,14.4317,76.5883,-0.4575,0.9419,-0.6701,342.8438
14:23:49:855,-5.2047,-0.8907,13.8858,76.9219,-0.011,0.6854,-0.6646,342.8438
14:23:49:875,-5.2478,-1.1348,11.9776,77.3132,0.4368,0.4587,-0.5467,342.5938
14:23:49:893,-5.0037,-1.2305,9.9141,77.2954,0.5785,0.3506,-0.4142,342.5938
14:23:49:916,-3.8952,-0.9242,9.7511,77.7893,0.3977,0.0568,-0.3683,341.9375
14:23:49:934,-4.0005,-0.8402,9.7534,78.0046,0.2492,-0.3537,-0.4954,341.875
14:23:49:955,-3.5791,-0.5267,9.4352,77.8085,0.2535,-0.5223,-0.5913,341.1562
14:23:49:976,-3.39,-0.2082,8.8822,77.3577,0.4948,-1.0739,-0.733,341.0781
14:23:50:000,-3.1723,-0.1723,7.8407,76.6785,0.7184,-0.8894,-0.6133,340.9062
14:23:50:016,-2.6049,0.1531,6.2486,76.0411,0.8222,-0.8204,-0.4258,340.8906
14:23:50:034,-1.5562,0.5554,5.9064,75.3571,0.6689,-1.0097,-0.3274,341.3594
14:23:50:054,-1.3143,0.6488,6.3012,74.9161,0.3018,-1.0207,-0.3555,341.4062
14:23:50:073,-1.6591,0.7038,7.6062,73.8604,0.0043,-0.8747,-0.3812,342.0781
14:23:50:093,-1.7189,0.9218,7.8814,72.9775,-0.0299,-0.722,-0.2688,343.1406
14:23:50:117,-1.2688,1.4414,6.7346,72.2076,0.0415,-0.7623,-0.0757,343.1406
14:23:50:133,-0.565,1.7022,6.1935,71.6243,-0.1283,-0.97,0.0214,344.4688
14:23:50:154,-1.3884,1.6304,6.8877,71.272,-0.5253,-1.0103,-0.0556,344.4688
14:23:50:173,-2.4347,1.4557,7.9125,70.6809,-0.8344,-1.0507,-0.0782,344.5938
14:23:50:193,-2.0949,1.6065,9.2267,70.095,-0.9657,-1.1221,0.0831,345.5938
14:23:50:219,-1.5467,1.7094,9.7917,69.6739,-0.9377,-0.9706,0.2333,345.5938
14:23:50:233,-0.9673,1.1204,9.8471,69.4027,-0.8839,-0.7452,0.3439,346.8906
14:23:50:254,0.8354,0.6296,10.6514,69.075,-0.9004,-0.5375,0.3903,346.9062
14:23:50:274,0.8812,0.5913,12.4134,68.935,-0.8937,-0.2016,0.1558,348.6406
14:23:50:293,0.1029,0.5124,13.462,68.6897,-0.6964,-0.0073,-0.1778,350.0781
14:23:50:318,-1.5802,-0.1651,13.1148,68.6239,-0.4099,0.0745,-0.3677,350.0781
14:23:50:334,-1.2592,0.0694,12.4205,68.776,-0.223,0.066,-0.2944,351.0781
14:23:50:355,-0.7301,0.0622,12.588,68.9119,-0.2101,0.1814,-0.2132,351.0781
14:23:50:375,-0.4956,-0.352,12.6168,68.8721,-0.1845,0.4954,-0.1631,351.9062
14:23:50:392,0.1125,-1.0271,12.2554,69.3499,-0.2211,0.8161,-0.1564,351.9062
14:23:50:416,-0.2656,-1.5802,13.5338,69.6567,-0.325,0.959,-0.2828,352.0781
14:23:50:437,0.2034,-2.4993,13.7444,70.2115,-0.1814,0.8595,-0.4025,352.0938
14:23:50:454,0.4717,-2.8131,13.7614,70.6923,0.2407,0.6988,-0.4728,352.3125
14:23:50:476,1.008,-2.5232,9.198,70.9843,0.6933,0.7593,-0.5522,352.3281
14:23:50:494,1.3525,-0.4501,6.9021,71.1971,0.0446,0.1258,-0.8576,352.0781
14:23:50:516,0.5889,-0.6631,8.633,71.5877,-0.347,-0.0312,-1.1869,352.0469
14:23:50:536,-0.996,-2.6192,8.5469,71.9016,-0.394,0.1014,-1.3604,351.3438
14:23:50:552,-1.4868,-3.201,7.4169,71.7123,-0.3262,0.1405,-1.0122,351.2812
14:23:50:573,-0.5602,-1.9271,7.3307,71.8111,-0.2706,-0.0073,-0.4184,351.2969
14:23:50:593,-0.0766,-0.8429,7.9555,71.5165,-0.1668,-0.1124,-0.157,351.9688
14:23:50:619,-0.4071,-0.5506,8.4631,71.5272,-0.0782,-0.11,-0.1778,351.9688
14:23:50:633,-0.8258,-0.5148,8.4894,71.2404,-0.0281,-0.1869,-0.2162,352.0469
14:23:50:653,-1.1922,-0.577,8.5038,71.2708,0.0202,-0.3396,-0.1936,352.4219
14:23:50:674,-1.4103,-0.7277,8.1808,71.0713,0.0574,-0.3763,-0.0965,352.4531
14:23:50:693,-0.7947,-0.5148,7.8766,71.1634,0.0489,-0.3402,0.0421,352.9375
14:23:50:718,-0.189,-0.1412,7.9603,70.9704,-0.0299,-0.3231,0.0855,352.9531
14:23:50:734,0.1005,1.1109,7.8191,70.9019,-0.1533,-0.3384,0.011,353.9219
14:23:50:755,-1.4438,0.3688,8.875,70.8271,-0.3128,-0.6512,-0.1167,353.9375
14:23:50:776,-0.8955,0.297,11.4987,70.667,-0.5217,-0.7379,0.113,355.3281
14:23:50:794,0.5291,1.2592,12.9616,70.5012,-0.2926,-0.3231,0.4484,357.5625
14:23:50:815,0.1531,0.5937,12.2291,70.4124,0.3109,-0.0953,0.4435,357.5625
14:23:50:837,-0.6176,0.3449,11.0393,70.2901,0.5669,0.0525,0.4966,0.1406
14:23:50:854,-1.2138,-0.146,11.779,69.9691,0.4826,0.1234,0.6664,0.1406
14:23:50:874,-0.4167,-0.4669,12.8492,69.8471,0.4594,0.168,0.8815,0.7656
14:23:50:893,0.8907,-0.443,13.4405,69.6695,0.6029,0.2718,0.9438,0.7656
14:23:50:920,1.6376,0.1388,13.1172,69.6488,0.8149,0.4905,0.7941,1.1562
14:23:50:934,0.6392,0.5483,11.9584,69.6722,0.915,0.7055,0.5229,1.1875
14:23:50:954,-0.3018,0.1675,11.2881,69.8266,0.7318,0.7636,0.3641,1.4688
14:23:50:975,-0.5291,-0.5339,11.3073,69.7135,0.3439,0.7257,0.325,1.5
14:23:50:993,-1.4701,-2.3414,11.7574,69.7691,-0.0599,0.7373,0.2676,1.375
14:23:51:018,-2.3031,-3.6727,12.2387,69.757,-0.2382,0.4264,0.1894,1.3438
14:23:51:035,-2.8442,-3.6607,10.9409,70.0073,0.0214,0.0983,0.2902,1.4219
14:23:51:054,-1.4414,-2.6958,10.2275,70.0625,0.4148,-0.2407,0.463,1.4219
14:23:51:074,0.2441,-1.2138,8.7769,70.0071,0.8082,-0.3995,0.4948,0.8281
14:23:51:093,0.4573,0.2946,7.5532,69.6922,0.9089,-0.3946,0.3073,359.8438
14:23:51:117,0.4167,0.9482,6.4666,69.6272,0.6518,-0.2492,0.0806,359.8438
14:23:51:136,-0.3544,1.1133,6.6915,69.3807,0.1613,-0.1038,-0.0874,359.7344
14:23:51:155,-0.7612,0.9577,7.8766,69.3031,-0.3292,-0.0678,-0.1155,358.2188
14:23:51:173,-1.051,0.5315,8.8534,69.2639,-0.5876,-0.0727,-0.0794,358.0625
14:23:51:193,-1.051,0.1723,8.5229,69.0158,-0.5589,-0.091,-0.0519,356.1875
14:23:51:217,-1.0319,0.2106,8.1377,69.0072,-0.4545,-0.08,-0.0721,356.1719
14:23:51:234,-1.252,0.1436,8.1159,68.8651,-0.4203,-0.0318,-0.1179,355.25
14:23:51:255,-1.4964,-0.1364,7.9484,69.1301,-0.4294,-0.0299,-0.1894,355.2344
14:23:51:275,-0.9482,-0.2489,7.9101,69.0497,-0.3726,-0.1368,-0.2443,354.5781
14:23:51:293,-0.2608,-0.0933,7.7139,69.0795,-0.2187,-0.226,-0.3207,354.0781
14:23:51:320,0.5291,0.2417,7.7689,69.0438,-0.0977,-0.237,-0.4465,354.0781
14:23:51:334,1.0104,0.6559,8.5636,68.9654,-0.1289,-0.0916,-0.6548,353.2812
14:23:51:353,0.4765,0.7564,9.1143,68.7412,-0.1668,0.0043,-0.9645,353.2812
14:23:51:374,0.0909,0.7708,9.8734,68.5131,-0.1069,-0.1112,-1.2443,352.5312
14:23:51:393,-0.6799,0.7732,10.7566,68.1659,-0.0263,-0.3115,-1.4618,352.5312
14:23:51:420,-1.9463,0.3784,11.2235,67.4836,-0.0232,-0.4111,-1.5125,352.5938
14:23:51:433,-2.4323,-0.2369,11.9728,67.0739,-0.0379,-0.3885,-1.3188,352.5938
14:23:51:515,-1.7501,-0.7588,12.3775,66.6479,0.0464,-0.2553,-0.9798,352.75
14:23:51:515,-0.9338,-1.0343,12.2339,66.1656,0.1704,-0.1142,-0.6615,352.7656
14:23:51:516,-0.5171,-0.4167,13.7566,65.7091,0.2792,-0.1539,-0.4203,352.8438
14:23:51:516,-0.711,0.6775,12.1956,65.5433,0.4575,-0.0293,-0.3201,352.8594
14:23:51:541,-0.6942,0.2752,12.2913,64.9543,0.182,-0.1466,-0.2559,353.125
14:23:51:553,-0.9027,-1.3382,12.387,64.627,-0.1955,-0.3409,-0.1619,353.1406
14:23:51:574,-0.9147,-2.8633,12.8874,64.5244,-0.3989,-0.5846,-0.0562,353.6875
14:23:51:593,-0.6009,-3.6437,12.8109,64.2414,-0.2749,-0.6567,0.1252,353.75
14:23:51:618,-0.3592,-3.7828,10.9289,64.3422,0.1209,-0.4771,0.4416,354.8438
14:23:51:633,-0.1244,-2.7078,8.5086,64.1498,0.3696,-0.058,0.843,354.9531
14:23:51:655,1.0271,-1.1324,7.1345,63.9998,0.2419,0.3751,1.1514,357.1406
14:23:51:674,3.1651,0.3425,7.6708,63.7827,-0.0745,0.5522,1.1679,357.3594
14:23:51:692,3.8186,0.8596,9.0616,64.0154,-0.2602,0.4331,0.6615,0.3281
14:23:51:719,2.557,0.7708,10.1988,64.2151,-0.2114,0.259,-0.0886,0.625
14:23:51:734,0.984,0.2225,9.8471,64.1333,0.0495,0.1399,-0.595,3.1719
14:23:51:755,-0.2297,-0.5171,8.7386,64.2978,0.3604,0.0874,-0.7538,3.1875
14:23:51:775,-0.8931,-0.7971,7.6828,63.8195,0.5675,0.0299,-0.6658,4.3906
14:23:51:793,-0.917,-0.7158,6.2821,63.502,0.5937,-0.0232,-0.4221,5.1406
14:23:51:819,-0.8378,-0.4406,5.7888,63.425,0.3989,-0.1448,-0.2248,5.1406
14:23:51:833,-0.9099,0.2417,6.457,63.2622,0.1381,-0.2895,-0.1918,5.6094
14:23:51:854,-0.6081,0.8282,6.481,62.9271,-0.0324,-0.4423,-0.1307,5.6094
14:23:51:874,-0.1507,0.8764,6.2438,62.4937,-0.2156,-0.4801,-0.0116,5.5312
14:23:51:893,-0.2297,0.8692,7.2398,62.2115,-0.4587,-0.4209,0.1216,5.5312
14:23:51:920,-0.3688,1.1827,9.0305,61.9653,-0.6121,-0.1845,0.3928,4.1406
14:23:51:934,-1.0726,1.7764,10.7782,62.0958,-0.5113,0.2199,0.7623,4.1406
14:23:51:954,-0.4693,1.4414,11.1374,62.447,-0.1686,0.8301,1.1728,1.8125
14:23:51:974,1.5395,1.506,11.2618,62.5476,0.1619,0.9144,1.4191,1.5781
14:23:51:993,2.1906,1.4701,11.0656,62.7924,0.2572,0.6677,1.24,0.9844
14:23:52:019,0.5076,0.4023,11.3025,63.1996,0.0928,0.6121,0.5724,0.9219
14:23:52:035,-0.0263,-0.687,11.6809,63.6886,0,0.7611,0.3903,2.25
14:23:52:055,-0.2608,-0.7804,12.6144,64.2096,-0.099,0.7794,0.2315,2.3906
14:23:52:074,-0.3281,-0.2827,12.9544,64.5923,-0.1716,0.8955,0.0501,3.5
14:23:52:093,-0.3736,0.3927,13.218,65.0288,-0.2004,1.091,-0.2749,3.625
14:23:52:113,-2.0327,-0.2106,11.4461,65.3105,-0.1185,0.9389,-0.9096,4.0469
14:23:52:133,-4.3908,-2.0542,12.5306,65.9041,0.0647,-0.0348,-1.3708,4.0938
14:23:52:153,-5.9638,-4.2138,12.775,66.0991,0.0373,-0.3311,-1.0641,4.2656
14:23:52:174,-5.3629,-4.465,11.6689,66.155,-0.0837,-0.171,-0.1478,4.2812
14:23:52:193,-3.4714,-4.0531,10.2275,66.1025,0.0495,-0.2621,0.551,3.7969
14:23:52:215,-1.343,-3.5169,8.9013,66.11,0.3011,-0.4325,0.7477,3.7344
14:23:52:235,-0.4454,-2.3486,6.8614,66.2088,0.3329,-0.2181,0.5846,1.6094
14:23:52:254,-0.5554,-1.3813,5.5208,66.0962,0.0452,-0.1087,0.2407,1.5781
14:23:52:275,-1.0726,-0.7397,4.7186,66.2502,-0.5901,0.0299,-0.0507,358.6719
14:23:52:292,-1.8721,-0.7564,5.3318,65.7995,-1.471,0.1313,-0.1808,357.0469
14:23:52:315,-0.9003,0.0359,12.9832,66.0898,-2.1625,0.0092,-0.0996,357.0469
14:23:52:335,-0.5602,-0.8788,15.4636,66.4161,-1.5131,-0.3995,-0.0513,356.3281
14:23:52:353,-1.9439,-2.1739,10.716,66.8392,-0.2553,-0.3097,-0.047,356.3281
14:23:52:375,-2.004,-1.9247,8.6856,67.0331,0.1716,-0.2993,0.1735,356.5
14:23:52:393,-0.8979,-1.398,8.942,67.1721,0.1252,-0.3952,0.3928,356.5
14:23:52:415,-0.2393,-0.8692,8.8989,67.6249,0.1973,-0.4337,0.3879,358.9844
14:23:52:436,-0.3185,-0.4621,8.1087,67.7221,0.3207,-0.4331,0.2663,358.9844
14:23:52:453,-0.6105,-0.1292,7.4647,68.0236,0.3317,-0.4398,0.1484,0.2031
14:23:52:476,-0.7134,0.0622,7.3068,67.9583,0.2413,-0.4917,0.0702,0.3281
14:23:52:493,-0.4501,0.3329,7.9173,67.8648,0.0654,-0.4355,0.0367,359.0781
14:23:52:520,-0.2776,0.4501,9.0688,67.6682,-0.1051,-0.317,-0.0037,358.9531
14:23:52:533,-0.4717,0.4956,9.9763,67.5894,-0.1497,-0.2242,-0.0776,358.1562
14:23:52:556,-1.1037,-0.1053,10.3472,67.6601,-0.1002,-0.3237,-0.1209,358.0781
14:23:52:575,-0.9817,-0.5483,11.0656,67.4391,-0.1209,-0.4508,-0.0819,358.1719
14:23:52:593,-0.8258,-1.0175,11.5086,67.3647,-0.1008,-0.4856,-0.0214,358.1719
14:23:52:618,-0.3114,-1.4486,12.1525,67.2973,-0.0305,-0.4752,0.0391,358.0938
14:23:52:635,0.3233,-1.3143,12.9832,67.1222,0.0996,-0.4172,0.0684,358.0781
14:23:52:655,0.5674,-0.7301,13.1554,67.1005,0.3018,-0.2645,0.036,357.9219
14:23:52:673,0.6033,0.1484,12.5426,67.0213,0.4606,-0.1545,-0.0275,357.9062
14:23:52:692,0.297,0.6176,11.566,66.9375,0.3555,-0.1069,-0.0812,357.125
14:23:52:713,-0.2393,-0.3162,11.7622,66.6323,-0.091,-0.1625,-0.0977,357.0469
14:23:52:734,-0.443,-2.1811,13.4955,66.5696,-0.5449,-0.3372,-0.0898,356.5781
14:23:52:753,-0.8402,-3.9431,15.0972,66.7103,-0.5919,-0.4771,-0.066,356.5781
14:23:52:775,-0.9242,-4.4267,14.8433,66.9355,-0.1191,-0.4618,0.0641,356.4375
14:23:52:793,-0.5865,-3.6488,12.0688,66.8426,0.5357,-0.182,0.3225,356.5156
14:23:52:813,0.553,-2.2552,8.5229,66.789,0.8857,0.0043,0.565,356.5156
14:23:52:835,2.1212,-1.0869,6.9165,66.6147,0.7294,-0.1753,0.5186,356.7656
14:23:52:854,1.2951,-0.7301,8.2143,66.4037,0.2847,-0.3806,0.1955,356.7656
14:23:52:875,-0.352,-1.5179,8.1206,66.3603,0.0709,-0.369,0.0324,356.8438
14:23:52:892,-0.1795,-1.5084,8.1736,66.4619,0.0159,-0.2718,0.1649,356.8438
14:23:52:913,0.3401,-1.3813,8.1182,66.3279,0.0073,-0.1344,0.369,356.7031
14:23:52:935,0.9625,-1.2497,7.9005,66.0935,0.0464,0.0049,0.5131,356.7031
14:23:52:954,1.3502,-1.1061,7.8981,66.3769,0.0415,0.1148,0.5522,356.6719
14:23:52:974,1.3717,-1.13,7.7641,66.4038,0.0641,0.1381,0.4985,356.6719
14:23:52:993,1.2449,-1.0917,7.5293,66.7665,0.1326,0.036,0.4013,356.8438
14:23:53:014,1.4318,-0.8282,7.8814,67.0969,0.2211,-0.124,0.317,356.8594
14:23:53:037,1.7309,-0.5267,8.164,67.3542,0.3268,-0.193,0.2498,357
14:23:53:056,1.3813,-0.0502,7.3977,67.3164,0.3971,-0.0623,0.2504,357.0156
14:23:53:076,1.8434,0.4095,8.1326,67.013,0.2688,-0.0128,0.2957,356.6094
14:23:53:093,2.2576,0.6248,8.7362,67.0245,0.2022,-0.0611,0.2468,356.5625
14:23:53:114,2.1476,0.7636,9.5237,66.7865,0.182,-0.1393,0.1399,355.4531
14:23:53:134,1.7931,0.3736,10.7949,66.6473,0.2144,-0.1637,0.0977,355.3438
14:23:53:152,2.0925,0.1747,11.08,66.3399,0.3799,-0.08,0.1967,355.0938
14:23:53:173,2.892,0.3233,10.1533,66.1547,0.5681,-0.0446,0.2456,355.0625
14:23:53:192,3.3254,0.3927,9.8638,65.9674,0.5235,-0.1796,0.0715,354.5312
14:23:53:214,2.3725,0.0287,10.8571,65.7652,0.3152,-0.237,-0.223,354.4844
14:23:53:236,1.0152,-0.632,12.1621,65.8784,0.2437,-0.2107,-0.4019,353.4062
14:23:53:254,0.51,-0.5794,12.387,65.6706,0.4508,-0.1087,-0.3305,353.2969
14:23:53:275,1.1109,0.1771,10.9699,65.3944,0.722,0.0965,-0.0904,352.3125
14:23:53:293,1.5945,0.6272,8.5756,65.2344,0.6396,0.3781,0.1118,351.6562
14:23:53:314,1.9753,0.3066,8.7123,65.1458,0.0257,0.4459,0.1338,351.6562
14:23:53:336,0.9051,-1.3023,11.4987,65.0928,-0.5882,0.3091,-0.0825,351.125
14:23:53:354,-0.9147,-2.3366,12.9664,65.0786,-0.664,0.2486,-0.2364,351.125
14:23:53:375,-1.6208,-2.2863,12.7487,65.3876,-0.3305,0.2395,-0.1472,350.5156
14:23:53:393,-1.3573,-1.5179,10.9484,65.3262,-0.0055,0.3219,0.0709,350.5156
14:23:53:414,-0.6057,-0.8091,9.8518,65.6684,0.0568,0.2706,0.223,350.2344
14:23:53:436,-0.4262,-0.5459,9.2821,65.9079,-0.0538,0.1704,0.2633,350.2344
14:23:53:454,-0.1938,-0.5602,9.6266,66.2967,-0.1906,0.1069,0.2883,349.7031
14:23:53:475,-0.0191,-0.6823,9.8471,66.517,-0.2309,0.1655,0.3189,349.7031
14:23:53:493,0.201,-0.6392,9.7343,66.9525,-0.1582,0.2248,0.3176,349.8281
14:23:53:513,0.0263,-0.6392,9.4424,67.3714,-0.0745,0.2871,0.2914,349.8438
14:23:53:536,0.0311,-0.0263,9.1071,67.5304,-0.0037,0.3066,0.2706,350.5469
14:23:53:600,-0.4358,0.5028,8.9492,67.8766,0.0568,0.1863,0.149,350.625
14:23:53:601,-1.2855,0.2417,10.1007,68.0641,0.2272,-0.0415,0.1283,350.5469
14:23:53:601,-0.4167,0.6894,8.93,68.2982,0.5015,0.0434,0.3299,350.5312
14:23:53:614,0.687,1.1659,7.7234,68.4164,0.6341,0.0617,0.4215,350.4688
14:23:53:636,1.0989,1.2879,7.4504,68.4009,0.5217,0.0287,0.3409,350.4531
14:23:53:653,0.8835,1.2664,7.9866,68.4701,0.336,-0.0599,0.1778,350.8438
14:23:53:673,-0.5028,1.6161,8.621,68.1998,0.1839,-0.0244,0.069,350.8906
14:23:53:692,-1.13,1.8027,9.3275,68.0608,0.077,-0.0049,0.0874,350.5781
14:23:53:713,-0.9386,1.7166,10.0816,67.8665,0.047,-0.1216,0.1118,350.5469
14:23:53:735,-0.6129,1.6137,10.4001,67.7526,0.1246,-0.2211,0.1203,349.9844
14:23:53:754,-0.5818,1.8673,10.4815,67.7722,0.2517,-0.2498,0.1533,349.9375
14:23:53:775,-0.1986,2.2744,9.9093,67.7149,0.328,-0.157,0.281,349.2344
14:23:53:793,1.3478,2.083,9.3802,67.9231,0.2413,-0.2242,0.3372,348.5938
14:23:53:813,1.5826,1.4414,10.0528,67.8463,-0.0281,-0.4655,0.1497,348.5938
14:23:53:835,1.4629,0.6559,12.2746,67.9372,-0.2755,-0.6738,-0.0861,348.375
14:23:53:853,0.996,0.3999,13.6774,67.7938,-0.215,-0.6206,-0.1863,348.375
14:23:53:875,0.7205,0.7014,12.9066,67.7401,0.0336,-0.3439,-0.0831,347.875
14:23:53:893,1.3693,0.8716,11.3719,67.4701,0.0953,-0.0452,0.1344,347.875
14:23:53:914,2.0614,0.0239,10.9819,67.5517,-0.1271,-0.0086,0.1729,347.0156
14:23:53:936,2.3797,-1.4701,12.2363,67.2664,-0.4166,-0.1625,-0.0293,347.0156
14:23:53:954,2.1284,-2.5355,13.5936,67.1833,-0.4276,-0.3268,-0.3054,346.7344
14:23:53:975,1.276,-2.7987,13.3208,67.0312,-0.1173,-0.2572,-0.4154,346.7344
14:23:53:993,1.427,-1.8099,10.9771,67.0685,0.2785,0.0709,-0.2401,346.5312
14:23:54:013,2.0064,-0.3042,8.6234,67.048,0.4209,0.3537,-0.0513,346.5156
14:23:54:037,2.2193,0.4549,7.6086,67.259,0.2395,0.3457,-0.0825,346.2656
14:23:54:054,2.1356,0.2874,8.2502,67.3963,-0.0647,0.1826,-0.2529,346.2344
14:23:54:075,1.1276,-0.1555,9.4232,67.4165,-0.2535,0.1393,-0.3928,345.6406
14:23:54:094,0.6607,-0.1149,9.5501,67.4463,-0.1442,0.2877,-0.3158,345.5781
14:23:54:114,0.699,0.146,9.883,67.4411,-0.0867,0.3054,-0.2902,345.5781
14:23:54:133,0.8091,0.0431,9.8207,67.4718,0.0709,0.2963,-0.3421,345.5781
14:23:54:153,0.6248,-0.0933,9.3347,67.5182,0.2853,0.4032,-0.3494,345.9219
14:23:54:174,0.8186,0.352,8.0847,67.618,0.4985,0.5473,-0.2688,345.9531
14:23:54:193,0.9936,0.8955,7.101,67.534,0.5889,0.5272,-0.2437,345.6562
14:23:54:214,0.7732,1.2281,7.0603,67.709,0.5394,0.4038,-0.2743,345.625
14:23:54:236,0.5076,1.7166,7.2709,67.5825,0.441,0.3244,-0.2633,346.0156
14:23:54:255,0.0885,2.1188,7.7809,67.605,0.3091,0.2938,-0.2303,346.0469
14:23:54:275,-0.8524,2.4347,8.0871,67.6656,0.1949,0.1961,-0.2327,346.7656
14:23:54:292,-1.3789,2.3988,8.8295,67.7273,0.0855,0.0635,-0.1759,346.8438
14:23:54:314,-0.8788,2.3007,9.5333,67.6862,0.0238,0.0556,-0.0024,346.8438
14:23:54:335,0.0861,2.2074,9.9547,67.888,0.0476,0.0519,0.1258,347.5469
14:23:54:354,0.4525,1.9223,9.9835,67.7481,0.0733,0.0391,0.1283,347.5469
14:23:54:376,0.189,1.4557,10.3807,67.8495,0.0257,0.0483,0.1161,348.2969
14:23:54:392,-0.1436,1.0319,11.4676,67.878,-0.0446,0.0861,0.1167,348.2969
14:23:54:413,-0.7804,0.6009,12.4564,68.1168,-0.025,0.1093,0.0935,348.9688
14:23:54:436,-1.2353,0.5052,12.7965,68.3259,0.08,0.1368,0.1381,348.9688
14:23:54:453,-0.7732,0.7851,11.7024,68.1349,0.2352,0.2199,0.2737,349.5781
14:23:54:475,-0.3425,0.9529,9.993,68.2226,0.2321,0.3323,0.3635,349.5781
14:23:54:492,-0.2512,0.5506,10.1031,68.1065,-0.0721,0.303,0.3439,350.0625
14:23:54:514,-1.9753,0.1029,11.3216,68.3204,-0.4148,0.2767,0.2541,350.0625
14:23:54:536,-2.9399,-0.3401,12.5115,68.3943,-0.5815,0.1326,0.1967,350.5
14:23:54:554,-3.0236,-1.008,13.85,68.6577,-0.5284,-0.1057,0.1668,350.5469
14:23:54:574,-3.2489,-1.252,12.8755,68.9357,-0.1802,-0.0971,0.2535,350.9375
14:23:54:594,-1.6137,0.3592,8.5397,68.9338,0.1558,0.022,0.4923,350.9844
14:23:54:615,-1.1731,0.5171,7.6397,69.4184,-0.0092,0.0006,0.6084,350.8594
14:23:54:638,-1.0152,0.1819,8.5756,70.1105,-0.3653,-0.2028,0.5156,350.8438
14:23:54:653,-0.7851,-0.1484,9.883,70.6657,-0.5516,-0.3213,0.4325,350.5938
14:23:54:674,-0.7828,-0.2512,10.4025,71.0612,-0.4514,-0.2676,0.394,350.5625
14:23:54:693,-0.3903,0.2201,9.4878,71.2102,-0.1509,-0.0385,0.4496,350.3438
14:23:54:714,0.1819,0.9458,7.0699,71.3933,0.0983,0.1716,0.4948,350.3125
14:23:54:735,0.9123,1.2544,6.294,71.3664,0.0489,0.0874,0.43,349.875
14:23:54:758,1.6137,0.8931,6.4762,71.7664,-0.1478,-0.0623,0.3024,349.8281
14:23:54:775,1.5395,0.7134,8.0201,72.1304,-0.281,-0.1075,0.1576,349.0781
14:23:54:793,0.4286,1.0128,9.1908,72.1403,-0.1723,-0.0269,0.0629,348.4531
14:23:54:814,-0.3257,1.6591,8.578,72.2442,0.1075,-0.0086,0.0825,348.4531
14:23:54:836,-0.1507,2.2002,7.6899,72.3048,0.1637,-0.0244,0.1949,347.9844
14:23:54:853,0.4813,2.4179,7.5413,72.4878,0.0012,-0.1881,0.2126,347.9844
14:23:54:875,0.778,2.138,8.8391,72.7419,-0.2352,-0.4783,0.0819,346.7656
14:23:54:893,0.687,1.6017,10.5437,72.9563,-0.3415,-0.5901,-0.0641,346.7656
14:23:54:918,0.6942,1.4725,11.3025,72.7716,-0.2217,-0.4954,-0.1619,345.5312
14:23:54:933,-0.0096,1.4653,11.2116,72.6137,-0.0147,-0.3818,-0.2676,345.5312
14:23:54:953,-0.0574,1.9463,10.7231,72.1686,0.1521,-0.2889,-0.2706,344.6562
14:23:54:973,0.687,2.3509,10.127,72.1764,0.1619,-0.2847,-0.259,344.6562
14:23:54:992,1.2377,1.7166,10.7758,72.1833,0.0061,-0.3989,-0.3451,343.6094
14:23:55:014,1.386,0.8139,11.6785,71.9348,-0.1093,-0.5241,-0.4276,343.6094
14:23:55:033,1.7716,0.256,12.9066,71.655,-0.113,-0.5589,-0.4557,342.875
14:23:55:053,1.4988,0.6775,11.8603,71.5402,0.0238,-0.3439,-0.4404,342.7969
14:23:55:074,1.4342,1.2185,10.8476,71.4492,-0.0159,-0.2327,-0.4105,342.5781
14:23:55:093,1.2999,0.8692,10.7231,71.3538,-0.27,-0.2584,-0.4258,342.5469
14:23:55:115,2.3414,-1.7309,12.4564,71.5733,-0.7923,-0.3494,-0.4276,342.2812
14:23:55:134,2.3414,-2.9614,13.1746,71.3372,-0.7526,-0.204,-0.4612,342.25
14:23:55:153,2.6001,-2.9064,12.9568,71.3531,-0.4142,0.0208,-0.4832,342
14:23:55:172,2.4826,-1.9128,10.5867,71.3395,0.0067,0.237,-0.5388,341.9688
14:23:55:192,1.896,-0.9912,8.93,71.4965,0.1356,0.2804,-0.6139,342.25
14:23:55:212,1.7333,-0.7253,8.5875,71.3743,0.0031,0.2816,-0.5724,342.2812
14:23:55:234,1.992,-0.7588,9.1502,71.3364,-0.1344,0.2407,-0.5314,342.8594
14:23:55:253,1.6615,-0.8282,8.9898,71.4826,-0.1539,0.201,-0.5699,342.9219
14:23:55:273,1.4605,-0.874,8.9898,71.3381,-0.1753,0.1771,-0.5999,343.5469
14:23:55:292,1.4079,-0.9434,9.4161,71.2849,-0.1771,0.1668,-0.6255,344.6562
14:23:55:314,1.1659,-0.8067,9.44,71.1879,-0.0531,0.2169,-0.6554,344.6562
14:23:55:335,0.3616,-0.0861,8.9611,71.3269,0.1558,0.3586,-0.6603,345.625
14:23:55:353,-0.6846,0.6153,7.5556,71.037,0.3421,0.5211,-0.6151,345.625
14:23:55:373,-0.5291,1.4151,6.7178,70.7801,0.3335,0.4679,-0.5113,346.625
14:23:55:393,-0.4406,1.5347,7.0292,70.6863,0.1301,0.2285,-0.4813,346.625
14:23:55:414,-0.4286,1.0678,8.0225,70.4028,-0.066,-0.0147,-0.4447,347.7188
14:23:55:435,0.0526,0.9147,8.6234,70.2664,-0.1295,-0.0525,-0.2755,347.7188
14:23:55:453,0.7253,1.0104,8.3267,70.0518,-0.088,-0.0214,-0.1106,348.8594
14:23:55:473,1.8649,1.0032,8.5899,69.888,-0.1307,-0.0757,-0.0263,348.8594
14:23:55:492,2.4012,1.1874,10.017,69.8413,-0.2162,-0.047,-0.0409,350.1406
14:23:55:513,1.13,0.7469,9.8231,69.7963,-0.1686,0.0232,-0.1942,350.1406
14:23:55:534,0.7971,0.4023,10.7016,70.3206,-0.2321,-0.0293,-0.2431,351.2344
14:23:55:553,0.1244,-0.0622,11.7479,70.5166,-0.2669,0.0018,-0.2504,351.3438
14:23:55:574,-0.2273,-0.4119,12.8779,70.7423,-0.182,0.0202,-0.2248,352.5781
14:23:55:592,-0.3138,-0.419,12.7606,70.7285,0.0354,0.1576,-0.1069,352.7031
14:23:55:641,0.6368,-0.055,10.9651,70.939,0.2669,0.5577,0.1613,354
14:23:55:641,0.6775,-0.2034,10.1773,71.0334,0.1185,0.6432,0.1613,354.125
14:23:55:653,0.6535,-0.6918,10.3208,71.2728,-0.2071,0.6084,0.0867,355.2188
14:23:55:673,0.0622,-1.9534,11.8101,71.7435,-0.5601,0.4087,-0.0733,355.3125
14:23:55:693,-0.7493,-3.2919,13.462,71.6601,-0.7074,0.1949,-0.215,356.25
14:23:55:713,-1.9271,-3.6631,14.5968,71.8656,-0.5101,0.0519,-0.2627,356.3281
14:23:55:734,-2.8442,-3.3637,13.675,72.2787,-0.0452,0.0483,-0.1631,356.7344
14:23:55:753,-1.8888,-2.0734,11.2379,72.6847,0.3824,0.0941,0.0922,356.7656
14:23:55:773,-1.2544,-0.8453,8.7194,72.6486,0.5198,0.0733,0.2254,356.8438
14:23:55:793,-0.5626,-0.1364,7.8359,72.881,0.3335,-0.1735,0.1796,357.3438
14:23:55:813,-0.9075,-0.268,8.8798,72.6152,0.0403,-0.416,0.0531,357.3438
14:23:55:835,-1.0606,-0.4956,9.8542,72.4127,-0.0611,-0.4282,0.0727,357.875
14:23:55:853,-0.9099,-0.4023,9.8351,72.3082,0.0623,-0.2871,0.2052,357.875
14:23:55:873,-0.7516,-0.0574,8.6258,72.0232,0.2462,-0.1277,0.3121,357.8906
14:23:55:892,-0.5387,0.2946,7.6923,71.5863,0.3097,-0.1381,0.3274,357.8906
14:23:55:914,-0.5195,-0.0048,7.2565,71.3051,0.2572,-0.27,0.2975,357.5
14:23:55:935,0.8788,-0.1986,7.9986,71.4534,0.1949,-0.3592,0.4166,357.5
14:23:55:953,1.9896,0.5243,7.5942,70.8915,0.2333,-0.1002,0.5583,357.4531
14:23:55:974,0.7732,0.5961,5.9231,70.8884,0.2584,-0.036,0.3451,357.4531
14:23:55:993,0.6033,1.0032,7.2972,70.5881,-0.0415,-0.3128,0.1698,357.9375
14:23:56:013,-0.3664,0.9912,9.0832,70.5511,-0.2474,-0.4471,0.0244,357.9375
14:23:56:034,-0.7564,1.0582,10.0385,70.5608,-0.226,-0.5149,0.0159,358.0312
14:23:56:053,-0.4478,0.941,9.9763,70.3502,-0.1374,-0.3977,0.1478,358.0312
14:23:56:073,0.5219,0.7947,10.1438,70.2239,-0.0837,-0.3024,0.2621,357.6406
14:23:56:092,0.7349,0.5315,10.1127,69.8237,0.0055,-0.2419,0.2266,357.6094
14:23:56:113,1.063,0.62,10.0959,69.9171,0.0922,-0.2144,0.1503,357.5
14:23:56:135,1.2497,0.6033,10.9938,69.8198,0.1124,-0.2193,-0.0031,357.4844
14:23:56:153,1.197,0.5387,11.1733,69.8668,0.1558,-0.1405,0.0031,356.9844
14:23:56:173,1.6208,0.5315,10.9265,69.4713,0.2052,-0.0519,0.0489,356.9375
14:23:56:192,2.193,0.577,10.6801,69.2606,0.1985,-0.0312,-0.0006,356.3125
14:23:56:213,2.77,0.5961,10.8787,69.0078,0.102,-0.0556,-0.1387,356.2656
14:23:56:235,2.4514,0.7756,11.7191,68.7169,-0.058,-0.0287,-0.281,355.2969
14:23:56:253,0.699,0.2776,12.399,68.4488,-0.2535,0.0428,-0.3897,355.2031
14:23:56:272,-0.3592,-1.4246,14.252,68.2798,-0.4642,-0,-0.3922,354.6875
14:23:56:293,-0.0431,-2.9471,15.8321,68.0762,-0.3696,-0.0208,-0.2853,354.6406
14:23:56:313,0.7875,-3.0188,14.9704,67.922,0.1515,0.0831,-0.1399,354.6406
14:23:56:334,1.7309,-2.1236,11.2379,68.0727,0.7257,0.3518,0.0324,354.2188
14:23:56:359,2.8394,-0.7205,8.2717,67.7582,0.8564,0.5039,0.1405,354.2031
14:23:56:374,2.892,0.0072,6.7537,67.6917,0.5736,0.4215,0.0238,353.8125
14:23:56:392,1.762,-0.1125,6.9308,67.8061,0.0916,0.1875,-0.226,353.8125
14:23:56:413,0.6033,-0.5219,8.9276,67.8661,-0.3299,-0.055,-0.4044,353.75
14:23:56:437,0.0096,-0.778,9.993,67.8243,-0.416,-0.1191,-0.419,353.75
14:23:56:454,0.067,-0.7995,10.0696,67.9165,-0.2535,0.0061,-0.2816,353.75
14:23:56:475,1.0175,-0.3473,8.6809,67.8104,0.0037,0.2449,-0.0922,353.6875
14:23:56:493,1.4294,0.1819,7.1967,67.6264,0.1381,0.3769,-0.0751,353.8281
14:23:56:514,0.9553,0.4573,6.737,67.7371,0.091,0.3488,-0.204,353.8281
14:23:56:536,0.0742,0.5937,6.9643,67.6522,0.0043,0.2895,-0.2706,354.5781
14:23:56:553,-0.1699,0.9529,7.3283,67.482,-0.0305,0.2889,-0.1649,354.5781
14:23:56:574,-0.2728,1.1683,7.3092,67.5874,-0.0531,0.2963,-0.022,355.2812
14:23:56:593,-0.4143,1.1898,7.3618,67.5428,-0.1362,0.2462,0.0837,355.3594
14:23:56:614,0.0431,0.9051,7.9292,67.5678,-0.2718,0.1014,0.149,355.4219
14:23:56:637,0.8186,0.6392,8.5038,67.6798,-0.3971,-0.0165,0.1655,355.4375
14:23:56:655,1.9657,0.0431,11.0848,67.9625,-0.5125,-0.168,-0.0006,355.1875
14:23:56:676,2.0518,-0.2512,11.8771,68.2104,-0.4032,-0.182,-0.1625,355.1719
14:23:56:693,2.5089,-0.6775,12.8611,68.3936,-0.2309,-0.1723,-0.2785,355.7812
14:23:56:713,3.3565,-0.577,12.4229,68.678,0.0605,0.0464,-0.295,355.8438
14:23:56:737,2.6456,-0.0239,11.6521,68.8341,0.2749,0.3237,-0.4178,356.5625
14:23:56:753,0.8788,0.4549,11.3575,68.9812,0.336,0.3842,-0.6243,356.6406
14:23:56:774,-0.2922,0.4717,11.2403,68.7534,0.3366,0.3018,-0.7324,356.7812
14:23:56:793,-0.4765,0.3688,10.2108,68.5682,0.3415,0.1942,-0.7025,357.2344
14:23:56:813,-0.2393,0.498,9.3347,68.229,0.2059,0.0886,-0.6011,357.2344
14:23:56:839,-0.1292,0.4932,9.6817,67.9268,-0.1356,0.0061,-0.5528,357.4688
14:23:56:853,-0.2656,-0.1053,11.0728,67.8352,-0.5064,-0.1301,-0.5699,357.4688
14:23:56:875,-1.3836,-1.3478,12.9425,67.6497,-0.7159,-0.1631,-0.565,357.2031
14:23:56:893,-2.6791,-3.0141,15.6215,67.4597,-0.609,-0.0812,-0.3989,357.2031
14:23:56:913,-2.1021,-3.4044,14.9991,67.2938,0.0092,0.1961,-0.0501,356.9219
14:23:56:937,-1.1157,-2.5113,11.2929,67.2762,0.7129,0.4251,0.1924,356.9062
14:23:56:956,-0.8644,-0.9529,8.152,67.16,0.9065,0.3854,0.2114,356.9062
14:23:56:975,-1.6017,0.0718,7.0914,67.0167,0.642,0.1161,0.1032,357.0938
14:23:56:993,-2.7891,0.2656,7.7785,66.9689,0.2046,-0.1949,0.0684,357.7188
14:23:57:014,-3.1747,-0.3114,9.428,66.7442,-0.1185,-0.3836,0.2059,357.7188
14:23:57:037,-2.059,-0.8835,10.4073,66.5142,-0.1435,-0.2963,0.5278,358.8438
14:23:57:053,-0.6033,-1.4103,10.7518,66.4256,0.1313,0.0409,0.8772,358.8438
14:23:57:074,0.8306,-1.5658,10.9699,66.3493,0.587,0.6451,1.2345,0.2656
14:23:57:092,2.5208,-0.0072,8.0824,66.3394,1.0733,1.262,1.3995,0.4062
14:23:57:114,2.7604,1.6687,4.8218,66.3988,1.0769,1.1398,0.9425,1.5625
14:23:57:133,0.7636,2.3079,4.8051,66.4627,0.5033,0.3873,0.1802,1.6875
14:23:57:155,-3.6751,1.319,9.7439,66.5999,-0.0904,-0.2969,-0.3635,2.8125
14:23:57:176,-1.8553,1.8147,8.5828,66.6685,-0.3073,-0.6689,-0.4148,2.9375
14:23:57:194,0.1914,2.4514,6.6796,66.7168,0.0397,-0.3256,0.2535,3.375
14:23:57:216,0.2512,2.0566,6.5192,66.4202,-0.2401,-0.4948,0.0782,3.4219
14:23:57:239,0.376,1.1587,7.7952,66.4625,-0.6389,-0.7568,-0.1228,3.0312
14:23:57:252,0.4095,0.2034,10.4934,66.3043,-0.9096,-0.8766,-0.2419,2.9844
14:23:57:273,0.1866,-0.0981,12.1621,66.0309,-0.7831,-0.7129,-0.2504,2.8281
14:23:57:293,-0.2034,0.3712,11.8101,66.019,-0.3836,-0.4062,-0.1814,2.1094
14:23:57:313,-0.4382,1.0534,10.5365,66.0739,-0.0922,-0.1191,-0.0654,2.1094
14:23:57:339,-0.1268,1.4509,9.6386,65.9758,-0.0947,-0.0568,-0.0055,359.7031
14:23:57:354,0.7708,1.3741,9.4902,65.9613,-0.3005,-0.3054,-0.0745,359.7031
14:23:57:375,0.929,0.5219,10.9146,66.162,-0.6011,-0.6206,-0.2382,357.0312
14:23:57:392,1.5108,-0.3162,12.775,66.0071,-0.7306,-0.8271,-0.3439,357.0312
14:23:57:414,1.8147,-0.7804,13.0238,65.997,-0.6328,-0.8161,-0.3781,357.1875
14:23:57:437,1.6352,-1.3645,14.1586,66.1395,-0.5327,-0.5754,-0.2785,357.2031
14:23:57:453,1.4605,-2.3701,14.2232,65.9884,-0.325,-0.1808,-0.0562,357.2031
14:23:57:475,2.5834,-3.026,13.8739,65.9151,-0.1295,0.0428,0.0892,357.6875
14:23:57:492,3.766,-3.1723,12.9688,65.7727,0.0788,0.1539,0.0232,357.3906
14:23:57:513,3.7756,-2.8274,12.3512,65.7481,0.2755,0.1875,-0.2431,357.3906
14:23:57:538,2.4132,-1.7572,10.4432,65.5515,0.4801,0.2883,-0.4991,357.875
14:23:57:553,1.695,-0.3544,8.1326,65.4061,0.496,0.3103,-0.5846,357.875
14:23:57:575,1.386,0.5171,6.9021,65.0796,0.2187,0.1368,-0.6084,358.375
14:23:57:592,1.1874,-0.0814,7.0866,64.675,-0.2779,-0.2364,-0.7116,358.4219
14:23:57:614,1.209,-0.9577,8.9683,64.4126,-0.664,-0.551,-0.752,358.5
14:23:57:633,1.7596,-1.4103,9.9117,63.9575,-0.6762,-0.4539,-0.6011,358.5156
14:23:57:700,1.3836,-1.3071,9.7893,63.6832,-0.4807,-0.2779,-0.5107,358.875
14:23:57:703,1.6783,-0.5267,8.3889,63.4986,-0.1833,0.0232,-0.4099,358.9062
14:23:57:704,1.398,-0.0144,7.7378,63.5083,-0.1191,0.0696,-0.4685,359.7031
14:23:57:716,0.941,0.3329,7.5556,63.393,-0.1069,0.0568,-0.5253,359.7812
14:23:57:737,0.4214,0.5459,7.8359,63.3791,-0.1203,0.0647,-0.4948,0.1562
14:23:57:753,0.4286,0.7612,7.867,63.3348,-0.1045,0.0831,-0.3757,0.2031
14:23:57:774,0.5435,0.9649,7.6828,63.2731,-0.1173,0.0733,-0.2718,0.0938
14:23:57:793,0.7732,0.778,7.8335,63.1965,-0.2132,-0.0415,-0.2132,0.7812
14:23:57:813,1.5658,0.3377,8.7314,63.2294,-0.3531,-0.1973,-0.157,0.7812
14:23:57:832,1.963,-0.0383,9.7774,63.0456,-0.4111,-0.2651,-0.1515,2.125
14:23:57:855,2.0518,-0.0861,10.2826,62.6931,-0.3628,-0.2248,-0.1863,2.125
14:23:57:873,1.7405,-0.0096,10.5628,62.6325,-0.2676,-0.1741,-0.2327,3.6406
14:23:57:893,1.8147,0.0359,10.3759,62.5416,-0.1912,-0.1228,-0.2205,3.7812
14:23:57:914,2.0566,-0.1914,10.127,62.5187,-0.1765,-0.0849,-0.1881,3.7969
14:23:57:939,2.205,-0.7301,10.2778,62.3773,-0.2181,-0.0672,-0.1839,5.0781
14:23:57:954,1.5682,-1.4581,10.9436,62.3526,-0.2437,0.0367,-0.182,5.0938
14:23:57:976,1.0199,-1.9801,11.7503,62.4819,-0.1753,0.2792,-0.0971,6.0312
14:23:57:993,0.8306,-2.0638,12.3942,62.6428,0.0208,0.5858,0.0495,7.1406
14:23:58:014,1.8362,-0.4478,9.938,62.8595,0.2963,0.7122,0.1472,7.1406
14:23:58:038,1.4605,0.1747,8.5181,62.8815,0.1173,0.6066,0.0788,8.1094
14:23:58:053,0.577,-0.7205,10.2969,62.9862,-0.4667,0.3164,-0.0018,8.1094
14:23:58:075,0.431,-2.461,12.6673,63.0471,-0.8497,0.0556,0.0134,8.6562
14:23:58:093,0.9553,-4.1393,14.2974,63.4288,-0.8442,-0.0544,0.0507,8.6562
14:23:58:114,1.5443,-4.7426,14.6351,63.5446,-0.4826,-0.0263,0.0348,9
14:23:58:133,1.3406,-4.0507,12.8252,63.7299,0.0623,0.1607,-0.0037,9.0312
14:23:58:154,0.8501,-2.8801,10.2897,63.7368,0.4349,0.3189,-0.025,9.4844
14:23:58:176,0.0574,-2.1404,9.1837,63.5396,0.4575,0.2443,-0.0385,9.5312
14:23:58:194,-0.3162,-2.15,9.1047,63.4956,0.3036,0.044,0.0067,9.9531
14:23:58:214,0.0766,-2.5786,9.6745,63.4092,0.1808,-0.179,0.0953,10
14:23:58:234,1.1898,-2.339,10.2203,63.6863,0.3598,-0.0458,0.3726,10.3906
14:23:58:254,1.1228,-1.8434,9.7487,63.1565,0.6041,0.1417,0.4484,10.4219
14:23:58:274,1.1874,-1.427,9.0497,62.9141,0.854,0.303,0.5504,10.5156
14:23:58:292,1.8362,-0.6176,8.0824,62.378,1.1014,0.5455,0.73,10.3125
14:23:58:313,1.8099,0.9864,6.1648,62.0265,1.2168,0.7471,0.7184,10.3125
14:23:58:338,0.1938,1.8697,4.9654,61.7283,1.0024,0.4099,0.3317,10.3281
14:23:58:353,-0.8979,1.7142,5.4156,61.3609,0.5498,-0.1936,0.022,10.3281
14:23:58:374,0.3114,1.1827,6.6102,60.9016,0.1564,-0.5718,0.0507,10.2812
14:23:58:393,0.9912,0.364,8.4129,59.9952,-0.066,-0.6646,0.0904,10.2812
14:23:58:415,1.1515,0.7732,9.5931,59.6564,-0.0415,-0.4209,0.1509,10.2812
14:23:58:433,-0.6751,1.185,8.6856,59.3201,-0.0024,-0.1826,0.0476,10.3125
14:23:58:454,-1.7596,0.7181,10.4264,58.7946,-0.2443,-0.4606,-0.0666,10.3125
14:23:58:475,-0.5506,-0.0455,11.6569,58.3149,-0.2541,-0.5608,0.0965,10.3438
14:23:58:493,0.644,-0.1531,11.5804,57.9681,0.0153,-0.3488,0.2706,9.9688
14:23:58:515,0.8091,-0.5387,11.5035,57.78,0.3329,-0.0428,0.3799,9.9688
14:23:58:532,1.4821,-0.51,11.5277,57.5037,0.6481,0.3561,0.5974,9.0469
14:23:58:554,1.8386,0.5674,9.186,57.3036,0.9181,0.7489,0.7226,9.0469
14:23:58:574,0.4214,2.4395,9.7439,57.1912,0.496,0.5858,0.4875,7.6094
14:23:58:593,-1.398,0.7947,11.3791,56.8409,0.1619,-0.055,0.0605,7.6094
14:23:58:614,-0.1842,0.2827,13.153,56.765,0.16,-0.3512,0.0391,6.5156
14:23:58:638,0.8258,0.3544,12.277,56.4429,0.3867,-0.1515,0.1313,6.4062
14:23:58:653,1.7285,0.9338,11.202,56.4074,0.3311,0.1381,0.2236,6.3281
14:23:58:675,2.6767,0.297,10.9484,56.0818,0.0159,0.0983,0.1527,6.3281
14:23:58:694,2.8011,-1.5084,11.9297,56.0061,-0.4514,-0.3482,-0.1918,6.1094
14:23:58:714,3.6006,-3.0643,13.4788,55.909,-0.1839,-0.2749,-0.281,6.0781
14:23:58:733,3.347,-2.6073,10.7997,55.7927,0.2022,0.0397,-0.3812,6.1094
14:23:58:757,2.3031,-1.0104,8.1254,55.853,0.2407,0.1509,-0.4386,6.125
14:23:58:773,1.0558,-0.3305,7.4719,55.7348,-0.1503,-0.0055,-0.5113,5.7812
14:23:58:793,0.2465,-0.9577,9.7176,55.7756,-0.631,-0.2682,-0.5504,4.7344
14:23:58:813,1.2401,-1.1492,10.9555,55.3807,-0.689,-0.2694,-0.4319,4.7344
14:23:58:834,1.6974,-0.8163,9.2773,55.3004,-0.3977,-0.0593,-0.3861,4.625
14:23:58:854,1.5132,-0.4645,8.3315,55.2372,-0.2352,0.088,-0.4227,3.3281
14:23:58:874,0.7995,-0.1149,8.3842,55.3675,-0.1747,0.1515,-0.4465,3.2031
14:23:58:893,0.4956,0.3712,7.879,55.2443,-0.0483,0.2175,-0.4117,3.0938
14:23:58:914,0.7828,0.7373,7.0699,55.0423,0.0525,0.223,-0.358,3.0938
14:23:58:939,1.0319,1.0869,6.6748,55.0701,0.0464,0.1374,-0.347,2.6875
14:23:58:954,0.6846,1.2329,6.3491,54.8757,-0.0586,0.0012,-0.3769,2.6719
14:23:58:976,0.5124,0.4813,7.2278,54.9128,-0.27,-0.1527,-0.3372,2.5781
14:23:58:993,1.5634,0.0718,8.9779,54.5399,-0.4044,-0.2419,-0.2083,3.1406
14:23:59:014,1.9128,0.2898,9.4567,54.3498,-0.358,-0.1484,-0.171,3.1406
14:23:59:033,1.0582,0.2393,9.8662,54.0232,-0.2908,-0.0831,-0.2199,4.0156
14:23:59:055,1.6711,0.4549,10.5772,53.7852,-0.2364,-0.0757,-0.1643,4.0156
14:23:59:074,2.1117,1.0175,10.2227,53.7666,-0.1545,-0.1008,-0.1784,5.2344
14:23:59:093,1.8386,0.9266,10.6466,53.721,-0.1607,-0.1936,-0.2767,5.2344
14:23:59:114,1.7309,0.7756,11.1948,53.7193,-0.1698,-0.1613,-0.292,6.0938
14:23:59:140,1.5514,0.3664,11.6067,53.627,-0.1448,-0.124,-0.3268,6.1875
14:23:59:154,1.5012,0.1986,11.755,53.8452,-0.0947,-0.0672,-0.2957,7.0625
14:23:59:174,1.6017,0.3305,11.6617,53.6801,-0.066,-0.069,-0.2816,7.1562
14:23:59:193,1.0774,0.1627,11.8101,53.6558,-0.1252,-0.1435,-0.3268,7.9062
14:23:59:216,1.3071,-1.5179,11.7814,53.5318,-0.4484,-0.0843,-0.1014,7.9844
14:23:59:233,2.1212,-3.0404,12.6362,53.372,-0.6072,-0.1588,-0.1197,8.7188
14:23:59:256,2.1835,-4.6014,13.8021,53.2529,-0.606,-0.1662,-0.2492,8.7812
14:23:59:273,1.7333,-4.6588,12.9353,53.0761,-0.2908,-0.0354,-0.339,9.3594
14:23:59:294,0.6942,-3.8378,11.3145,53.0377,0.0996,0.0611,-0.3842,9.8438
14:23:59:313,-0.4884,-3.026,9.95,52.9841,0.3378,0.1136,-0.2981,9.8438
14:23:59:334,-0.7851,-2.1188,8.3794,52.834,0.4429,0.0629,-0.0623,9.875
14:23:59:356,-0.2752,-1.3382,7.3211,52.6714,0.3427,-0.1289,0.149,10.2344
14:23:59:373,0.201,-1.343,7.9914,52.349,0.0702,-0.4105,0.2211,10.2812
14:23:59:394,0.6368,-1.506,9.4759,52.0066,-0.1063,-0.5461,0.2553,10.9219
14:23:59:413,0.7732,-1.063,9.0473,51.6501,-0.0409,-0.449,0.2981,10.9219
14:23:59:433,0.754,-0.3449,7.9603,51.5776,0.0464,-0.3445,0.3183,11.6094
14:23:59:457,0.7971,-0.1914,7.6373,51.4387,0.0006,-0.3195,0.2938,11.625
14:23:59:476,1.5443,-0.4836,7.5174,50.8971,-0.0299,-0.3751,0.2834,12.2969
14:23:59:493,2.0949,-0.3497,7.9747,50.8236,-0.0354,-0.3757,0.2712,12.7344
14:23:59:515,1.343,0.0574,8.1425,50.5652,-0.0086,-0.273,0.2101,12.7344
14:23:59:534,0.862,0.1819,8.0752,50.6757,0.025,-0.2291,0.1894,13.2031
14:23:59:554,1.3836,0.443,8.1087,50.4504,0.044,-0.237,0.2193,13.2031
14:23:59:574,0.9099,0.4932,8.1063,50.4422,0.0116,-0.1979,0.2126,14
14:23:59:594,0.8354,0.4932,7.9938,50.0935,-0.0586,-0.2498,0.2144,14
14:23:59:615,1.2233,0.0479,8.5421,49.9178,-0.1588,-0.3659,0.215,14.3594
14:23:59:633,1.9056,-0.3903,9.5381,50.1013,-0.1961,-0.441,0.1955,14.3594
14:23:59:653,2.1045,-0.3042,10.2802,49.769,-0.1216,-0.3885,0.1387,13.9688
14:23:59:676,1.6543,0.1196,10.1414,49.8345,0.0018,-0.2853,0.0696,13.9375
14:23:59:693,2.0279,0.352,10.0433,49.377,0.0342,-0.2834,0.0452,13.3906
14:23:59:770,3.8737,-0.8644,11.9513,49.3375,-0.0647,-0.369,0.0177,13.3281
14:23:59:771,4.1489,-0.9003,12.1741,48.8498,-0.0257,-0.3244,-0.0635,12.7031
14:23:59:771,3.9311,-0.5171,12.0927,48.8261,0.0055,-0.3317,-0.1906,12.6562
14:23:59:776,3.7397,-0.431,11.7694,48.3618,-0.0434,-0.3592,-0.2413,12.0938
14:23:59:795,4.5511,-1.118,12.0999,47.8419,-0.2175,-0.3635,-0.1918,12.0312
14:23:59:814,5.298,-2.5666,12.9855,47.9303,-0.3708,-0.2578,-0.1613,11.625
14:23:59:833,6.2509,-3.4427,12.7439,47.4707,-0.2633,-0.0202,-0.2022,11.5938
14:23:59:856,6.2892,-2.9447,11.147,47.5119,0.0428,0.1869,-0.3714,11.1562
14:23:59:875,5.0659,-1.992,9.7104,47.2104,0.2162,0.3311,-0.5351,11.1094
14:23:59:893,3.5456,-1.6232,8.7553,46.833,0.1692,0.3109,-0.5718,10.6875
14:23:59:914,2.9997,-1.5658,8.6665,46.4648,0.0098,0.099,-0.4832,10.6406
14:23:59:933,3.1268,-1.6448,8.9874,46.3909,-0.1631,-0.0312,-0.3531,10.2969
14:23:59:954,3.1795,-1.3167,9.0209,46.124,-0.2254,-0.0428,-0.3128,10.2969
14:23:59:974,2.406,-0.8139,8.7912,45.6366,-0.2285,0.0232,-0.3647,10.1562
14:23:59:993,1.7548,-0.5913,8.4368,45.1693,-0.212,0.0782,-0.3647,10.1094
14:24:00:015,2.6551,-0.5052,7.4432,44.7805,-0.1558,0.1118,-0.2779,10.1094
14:24:00:037,3.4044,-0.6272,7.2254,44.5672,-0.1833,0.2132,-0.2474,10.375
14:24:00:054,2.6767,-0.8477,7.1991,44.6623,-0.1857,0.4392,-0.2822,10.375
14:24:00:075,1.7596,-0.7373,7.6756,44.3471,-0.0794,0.5827,-0.2706,10.875
14:24:00:093,1.6352,-0.5219,8.3794,44.3712,0.1075,0.5669,-0.1967,10.875
14:24:00:114,1.762,-0.3688,8.9683,44.583,0.3036,0.562,-0.0935,11.3438
14:24:00:134,1.4581,-0.6344,9.1382,44.4043,0.4777,0.6854,0.0391,11.3438
14:24:00:158,1.561,-0.7301,9.2821,44.4975,0.6249,0.8222,0.2425,12.2344
14:24:00:175,1.5299,-0.7301,9.7223,44.3514,0.7959,0.9523,0.4673,12.3281
14:24:00:193,2.5618,-0.2201,8.3722,43.9557,1.0378,1.1502,0.6756,13.3594
14:24:00:215,2.2074,0.4119,8.9037,43.7881,0.8289,0.9254,0.4221,13.4688
14:24:00:235,1.6831,0.3329,10.2227,43.6412,0.6817,0.7562,0.3091,14.1875
14:24:00:254,1.628,0.7062,10.8906,43.2582,0.6658,0.7391,0.3274,14.25
14:24:00:274,1.2664,1.0678,11.0369,42.9279,0.6835,0.7862,0.3488,15.0312
14:24:00:293,1.075,1.4988,10.8117,42.7966,0.6469,0.7978,0.3317,15.125
14:24:00:313,1.0487,1.9032,10.625,42.7868,0.5101,0.6487,0.2358,15.6875
14:24:00:334,0.8453,2.0351,10.515,42.5983,0.2633,0.4386,0.1057,15.75
14:24:00:356,0.2994,1.5323,10.6035,42.7316,-0.0977,0.2975,0.0147,16.3438
14:24:00:374,-0.929,0.2608,11.5277,42.7778,-0.5259,0.2193,-0.0238,16.4062
14:24:00:393,-0.9123,-0.9721,12.5067,43.0401,-0.7758,0.2016,0.0831,16.6875
14:24:00:414,-0.364,-2.0662,12.0927,43.3482,-0.752,0.1484,0.1197,16.7031
14:24:00:434,-0.6009,-3.0547,12.3488,43.4836,-0.6072,-0.1869,-0.0928,16.3281
14:24:00:456,-0.5219,-3.1914,10.8715,43.6972,-0.182,-0.2847,-0.1038,16.3125
14:24:00:475,0.122,-2.6671,9.4974,43.5706,0.0855,-0.1765,0.0666,14.9219
14:24:00:494,-0.4334,-1.774,9.0473,43.8252,0.0617,-0.0794,0.1582,13.625
14:24:00:516,-1.8817,-1.1061,8.0536,43.6766,-0.1063,-0.113,0.1527,13.625
14:24:00:533,-1.5849,-1.185,8.7362,43.7793,-0.4209,-0.4612,0.1362,12.8125
14:24:00:554,-0.5004,-1.1133,9.0497,43.7564,-0.5742,-0.6157,0.2071,12.8125
14:24:00:574,0.8907,-0.6727,8.3291,43.5376,-0.5266,-0.518,0.3042,11.9688
14:24:00:593,1.9367,0.2922,6.6269,43.2806,-0.5339,-0.4349,0.2492,11.9688
14:24:00:614,2.4945,1.2544,4.4028,43.1872,-0.7849,-0.631,-0.0391,11.5156
14:24:00:633,1.4916,0.632,6.0619,42.9922,-1.3708,-1.1331,-0.4783,11.5156
14:24:00:657,0.9386,-0.2898,7.9962,42.7861,-1.7196,-1.3733,-0.6481,11.4844
14:24:00:675,1.5443,-1.209,9.629,42.8416,-1.6249,-1.493,-0.6237,11.4844
14:24:00:693,1.2855,-1.9056,11.1326,42.4439,-1.2968,-1.2932,-0.5058,11.2656
14:24:00:716,1.2879,-1.6974,10.4169,42.3437,-0.4801,-0.6237,-0.171,11.2344
14:24:00:739,1.5754,-1.2425,9.6888,42.3183,-0.3586,-0.642,-0.2046,11.4531
14:24:00:756,0.821,-1.6496,12.1837,42.2708,-0.1191,-0.5388,-0.1503,11.4688
14:24:00:775,1.3956,-1.2951,11.5134,42.1187,0.2462,-0.2553,0.0446,11.25
14:24:00:795,2.3366,-0.8306,10.0074,42.0792,0.5186,-0.149,0.1356,11.2344
14:24:00:814,2.6456,-0.7636,10.1222,41.684,0.543,-0.2431,0.091,10.9688
14:24:00:833,3.335,-1.2162,11.3527,41.4348,0.5351,-0.2517,0.1026,10.9375
14:24:00:856,3.7684,-1.8697,11.9656,40.8422,0.6848,-0.0794,0.1497,10.4688
14:24:00:875,4.0603,-2.3151,12.7846,40.256,0.8619,0.2492,0.2449,10.4062
14:24:00:893,4.0316,-2.2528,12.9784,39.519,1.1014,0.5919,0.3237,10.2344
14:24:00:914,4.1321,-1.3813,12.1693,38.9515,1.3249,0.9529,0.4386,10.2188
14:24:00:934,3.0404,-1.2497,12.3105,38.0896,1.2816,1.2809,0.5186,11.5625
14:24:00:957,1.6759,-1.6567,14.2161,37.4237,1.0861,1.3391,0.5443,11.5625
14:24:00:975,0.9338,-2.2672,13.529,36.8388,1.196,1.4594,0.6506,12.8906
14:24:00:993,1.8649,-2.1476,12.1717,36.3135,1.3078,1.5755,0.8301,13.4375
14:24:01:016,3.0885,-1.6184,10.4336,36.2547,1.3464,1.5309,0.8558,13.4375
14:24:01:033,3.0284,-1.0463,9.1597,35.9204,1.2706,1.3452,0.6896,13.7969
14:24:01:054,2.6767,-0.6153,7.9819,36.0171,1.0177,1.1667,0.5339,13.7969
14:24:01:074,2.1236,-0.5291,7.9723,36.0047,0.5663,0.9419,0.3696,13.4844
14:24:01:093,0.9505,-0.9123,9.3467,36.6242,0.1564,0.5937,0.1112,13.4844
14:24:01:115,0.0359,-0.917,9.064,36.9006,0.0696,0.3189,-0.1087,13.1094
14:24:01:133,-0.1053,-0.4932,8.3363,37.0858,0.124,0.1148,-0.2217,13.1094
14:24:01:154,0.3138,0.4549,6.67,37.3892,0.1448,0.0122,-0.284,12.4844
14:24:01:174,1.0343,1.343,4.7354,37.4237,0.0153,-0.2114,-0.4563,12.4844
14:24:01:193,0.5243,1.0128,5.5137,37.4275,-0.3537,-0.5779,-0.7355,11.5156
14:24:01:215,-1.0247,0.5818,7.57,37.2893,-0.6866,-0.6976,-0.8075,11.4219
14:24:01:233,-1.4844,0.565,9.064,36.9915,-0.7544,-0.7794,-0.6884,10.1719
14:24:01:256,-1.5395,0.8115,9.2195,36.485,-0.4813,-0.5718,-0.1106,10.0469
14:24:01:275,-0.8716,0.9482,8.8534,36.1924,-0.4471,-0.4184,0.1802,8.3594
14:24:01:294,0.8644,0.5219,9.3156,36.1362,-0.4239,-0.3952,0.3256,8.2031
14:24:01:314,1.3741,0.0191,10.6131,35.7637,-0.3958,-0.5125,0.3109,6.4688
14:24:01:333,2.1763,-0.4765,12.277,35.4921,-0.2327,-0.5504,0.3121,6.2969
14:24:01:356,2.9949,-0.3497,13.0669,35.3853,0.1741,-0.2327,0.4203,5.25
14:24:01:374,2.4179,0.256,11.5851,35.1178,0.7361,0.5064,0.6145,5.1406
14:24:01:393,2.4993,1.1731,9.3156,35.2155,1.0806,1.0959,0.8149,5.0625
14:24:01:413,2.9136,1.7788,7.9651,35.1308,1.0293,1.1533,0.7715,5.0625
14:24:01:437,2.2768,1.4151,8.8032,35.1001,0.6603,0.887,0.485,5.5469
14:24:01:458,1.3956,0.5554,11.123,35.1628,0.3769,0.617,0.2162,5.6094
14:24:01:475,0.6655,0.1053,12.5713,35.1848,0.4423,0.6958,0.1576,6.9688
14:24:01:495,1.0056,0.862,11.5445,35.458,0.7226,1.0305,0.2932,8.7031
14:24:01:516,1.4701,2.0136,8.9731,35.6332,0.8057,1.1594,0.3183,8.7031
14:24:01:532,0.8091,2.0901,8.4846,36.2698,0.3769,0.8894,0.0886,9.4219
14:24:01:554,-1.6496,1.4629,11.1972,36.6086,-0.2187,0.3818,-0.2627,9.4219
14:24:01:574,-4.1943,0.2441,11.6569,37.1871,-0.4807,0.2004,-0.3402,8.9219
14:24:01:594,-4.0244,-1.1659,14.0127,37.4331,-0.5608,-0.1515,-0.1686,8.9219
14:24:01:614,-1.9968,-1.6998,15.0757,37.7135,-0.2944,-0.27,0.0794,8.2969
14:24:01:633,-1.4892,-1.2975,12.6793,38.0588,0.2614,-0.0055,0.2321,8.2969
14:24:01:659,-1.0726,0,9.0855,38.1159,0.5357,0.2028,0.4032,7.125
14:24:01:675,1.5467,-0.2082,7.8072,38.394,0.2834,-0.0525,0.4526,7.125
14:24:01:693,1.0893,-0.7277,10.7518,37.9358,-0.1429,-0.4087,0.2175,5.3906
14:24:01:715,-0.4238,-1.1635,10.1725,37.9368,-0.0281,-0.0397,0.2614,5.2031
14:24:01:733,-0.1029,-0.4765,9.6147,37.6657,0.1729,0.295,0.4972,4.3906
14:24:01:759,-0.2584,0.0837,8.4033,37.7805,0.3115,0.4581,0.5736,4.3125
14:24:01:839,-0.5052,0.6799,8.7051,37.8017,0.3751,0.3237,0.474,3.75
14:24:01:840,-0.9984,1.1348,8.5086,37.9219,0.5852,0.4942,0.5217,3.6875
14:24:01:840,-0.8812,1.9175,7.2517,38.1813,0.8222,0.6787,0.6273,3.1406
14:24:01:840,-0.5554,2.6097,5.4921,38.4943,0.8326,0.5253,0.565,3.0938
14:24:01:859,-1.3884,3.4235,7.0508,39.0823,0.6047,0.1038,0.3903,3.5938
14:24:01:876,-1.5443,3.6894,4.6469,39.3947,0.5033,0.1784,0.4166,3.6562
14:24:01:893,-1.6161,3.9407,5.0755,39.463,0.0214,-0.0159,0.3732,3.75
14:24:01:914,-0.7229,3.347,6.1792,39.3781,-0.565,-0.5742,0.2022,3.75
14:24:01:933,0.6823,1.7931,11.2714,39.0963,-0.9993,-1.2412,-0.0617,3.1406
14:24:01:958,-1.2066,0.9266,12.7869,39.0651,-0.7703,-0.9468,-0.1362,3.0781
14:24:01:975,-0.5004,1.1803,11.8795,38.6752,-0.1448,-0.2572,0.1906,2.3906
14:24:01:994,0.5554,2.0351,10.2538,38.2026,0.2156,0.1399,0.4068,1.5312
14:24:02:014,0.996,2.3797,9.5142,37.8175,0.2737,0.1374,0.3207,1.5312
14:24:02:032,0.9242,2.0686,10.2419,37.4914,0.0928,-0.088,0.1093,0.2656
14:24:02:058,0.4095,1.4127,11.4939,37.3115,-0.0385,-0.2456,-0.0562,0.2656
14:24:02:075,0.5746,1.2879,12.1693,37.3682,-0.0116,-0.1747,-0.0513,359.125
14:24:02:093,0.9194,1.8769,11.6856,37.4499,0.1466,-0.011,-0.0214,359.125
14:24:02:115,1.4318,2.6025,10.4504,37.3029,0.1747,0.1509,-0.022,357.75
14:24:02:133,0.6176,2.6216,11.0871,37.6007,-0.1423,0.1784,-0.1026,357.75
14:24:02:157,-0.8979,1.2497,13.3304,37.5288,-0.543,-0.0305,-0.2737,356.8906
14:24:02:173,-3.3589,0.8883,16.2679,37.7298,-0.6567,-0.1594,-0.3134,356.8906
14:24:02:194,-3.3254,-0.644,15.4708,37.9214,-0.1826,-0.0214,-0.0916,356.3594
14:24:02:214,-0.1029,-0.565,13.098,38.5845,0.4111,0.2498,0.2895,356.3125
14:24:02:233,1.5658,-0.1771,10.9265,38.7332,0.7849,0.7587,0.551,356.6875
14:24:02:258,2.2361,1.4342,7.5054,39.0382,0.9297,1.1533,0.5834,356.7188
14:24:02:276,1.0247,2.1619,6.4714,39.4563,0.584,0.8711,0.2437,356.1562
14:24:02:295,-1.0152,0.5291,10.3208,39.5865,-0.0611,0.215,-0.1472,356.0938
14:24:02:314,-0.8091,-0.443,11.7,40.3018,-0.4985,-0.2236,-0.0715,355.6719
14:24:02:333,0.1005,-0.565,10.6801,40.6016,-0.1655,0.0318,0.157,355.625
14:24:02:358,1.1827,-0.3688,8.796,40.8194,0.1356,0.2217,0.2217,355.7812
14:24:02:373,1.8266,-0.1053,7.9579,40.7317,0.2175,0.1539,0.0287,355.7812
14:24:02:393,1.5132,0.0263,7.6899,40.9473,0.2559,0.0244,-0.2737,355.8281
14:24:02:413,1.0558,0.3784,7.5054,41.0246,0.3201,0.0147,-0.4624,355.8281
14:24:02:436,0.8091,0.9673,6.9404,40.9871,0.3964,0.1209,-0.4985,356.1719
14:24:02:459,0.9649,1.5395,6.4594,41.3663,0.3946,0.2413,-0.4594,356.2031
14:24:02:475,1.2927,1.9295,6.0547,41.2156,0.2877,0.2504,-0.4704,356.6406
14:24:02:494,1.1659,2.0614,6.4546,41.2609,0.0647,0.1319,-0.584,355.6406
14:24:02:514,0.3425,1.8697,7.9747,41.2487,-0.1723,-0.0012,-0.7165,355.6406
14:24:02:533,-0.8429,2.4921,9.3012,41.1042,-0.2584,0.0079,-0.7556,354.5312
14:24:02:558,-4.156,2.9734,10.4432,41.2263,-0.2877,0.0409,-0.7776,354.5312
14:24:02:575,-9.0568,3.2991,14.118,41.4213,-0.2486,-0.0177,-0.5082,354.8906
14:24:02:593,-6.6772,2.4419,12.4038,41.6437,0.2474,0.5027,0.5076,354.8906
14:24:02:615,-0.5219,2.4132,10.5102,41.9978,0.5986,1.0733,1.4148,354.7969
14:24:02:633,1.628,2.6169,8.9348,42.4259,0.5718,1.2101,1.3005,354.7969
14:24:02:658,1.3214,2.8083,9.0162,42.9828,0.2889,0.6976,0.5766,354.4844
14:24:02:675,-0.256,2.8825,10.5221,43.2428,-0.0684,0.1234,-0.0861,354.4844
14:24:02:693,-2.2026,3.0428,11.6593,43.9045,-0.2914,-0.0641,-0.3641,355.3125
14:24:02:714,-3.4642,2.8537,11.688,44.2831,-0.3971,-0.0024,-0.3464,355.3125
14:24:02:734,-3.1484,2.1284,11.4509,44.7502,-0.5101,0.0098,-0.1997,356.2656
14:24:02:758,-2.7843,0.9625,12.0518,45.3761,-0.6725,-0.0855,-0.1258,356.3594
14:24:02:776,-3.0595,0.1675,12.3464,45.3282,-0.7306,-0.2278,-0.1387,357.3906
14:24:02:794,-4.8888,-0.4621,13.6199,45.5548,-0.6151,-0.4142,-0.1429,357.5
14:24:02:816,-6.3826,-0.5722,13.3783,45.6454,0.4459,0.2187,0.8118,358.9375
14:24:02:833,-2.0231,0.6823,6.8136,46.3929,0.5388,0.2572,1.0665,359.0781
14:24:02:858,-0.6488,0.3425,6.4256,46.5325,0.1503,-0.1985,0.8112,0.3281
14:24:02:873,-0.7636,-0.565,8.176,46.6024,-0.3262,-0.5711,0.4484,0.4531
14:24:02:893,-0.7875,-1.1755,9.5118,46.864,-0.4429,-0.6292,0.2877,358.4219
14:24:02:913,-0.4501,-1.0415,9.2315,46.5758,-0.2541,-0.3738,0.3286,358.2188
14:24:02:933,0.2345,-0.4884,7.7043,46.673,-0.0525,-0.0635,0.4007,356.1562
14:24:02:959,1.2473,-0.1699,6.5097,46.6126,-0.0476,-0.0476,0.3231,355.9531
14:24:02:975,2.1691,-0.2874,6.6915,46.441,-0.2095,-0.1991,0.0843,356.375
14:24:02:993,1.9415,-0.1603,7.4312,46.1951,-0.3195,-0.1973,-0.1967,356.875
14:24:03:014,0.5411,0.6009,7.5918,46.3001,-0.2743,0.0049,-0.3946,356.875
14:24:03:033,-0.7756,1.7692,7.5078,46.3849,-0.1613,0.1936,-0.4447,357.0625
14:24:03:055,-1.4677,2.8657,7.1249,46.4206,-0.1026,0.306,-0.3812,357.0625
14:24:03:074,-3.0284,5.729,7.587,46.8685,-0.1802,0.3134,-0.3653,357.0312
14:24:03:093,-10.1749,6.5336,8.5373,47.2105,-0.3812,0.1173,-0.6261,357.0312
14:24:03:115,-12.1238,2.0949,10.9603,47.5667,-0.6188,-0.6334,-0.3225,355.0156
14:24:03:133,-3.5432,1.3382,13.8978,48.1328,-0.46,-0.5149,1.0262,355.0156
14:24:03:153,0.7253,1.2855,11.7407,48.181,0.1826,0.4361,1.5962,353.7031
14:24:03:175,1.6519,1.9582,8.9755,48.2817,0.6316,0.554,1.2315,353.7031
14:24:03:193,1.7309,1.9487,8.3865,48.5732,0.4612,0.2914,0.7342,353.0938
14:24:03:215,0.7612,1.695,11.0991,48.6996,0.0574,-0.0678,0.3018,353.0938
14:24:03:233,-1.5108,1.7261,13.1028,48.5827,-0.0287,-0.2285,0.0128,352.375
14:24:03:257,-2.4275,1.9128,12.8276,48.4973,0.1894,-0.1533,0.0599,352.2969
14:24:03:274,-0.9147,2.3868,11.5612,48.3682,0.3659,0.011,0.3128,352.4219
14:24:03:293,0.0957,2.8322,10.5628,48.3003,0.3066,0.179,0.3964,352.4375
14:24:03:317,-0.1699,2.5738,10.3639,48.4297,0.0629,0.1576,0.234,353.2188
14:24:03:333,-0.5674,0.012,13.1626,48.6278,-0.4581,-0.1967,-0.1472,353.2969
14:24:03:353,-0.0215,-0.9936,14.6471,48.5864,-0.4038,-0.2566,-0.2321,353.9531
14:24:03:374,0.268,-1.1396,14.3958,48.582,-0.0684,-0.1552,-0.2755,354.0312
14:24:03:393,0.3353,-0.4645,12.5761,48.7554,0.3329,0.0538,-0.2541,354.9531
14:24:03:413,0.8043,0.443,10.3905,48.7628,0.5266,0.1735,-0.2364,355.0469
14:24:03:433,0.6392,0.874,8.9587,48.8907,0.4551,0.1741,-0.2908,352.4375
14:24:03:453,0.6775,0.9577,7.9914,48.791,0.2211,0.0959,-0.3616,352.1875
14:24:03:475,1.0582,1.0128,8.0297,48.656,-0.0855,-0.1662,-0.5259,350.1875
14:24:03:494,0.7397,0.7899,8.5134,48.5315,-0.3121,-0.4361,-0.7678,349.6719
14:24:03:515,0.012,0.4047,9.6721,48.3309,-0.3793,-0.4893,-0.8741,349.6719
14:24:03:533,-0.3808,0.862,9.0616,48.181,-0.2223,-0.3237,-0.8228,349.3125
14:24:03:554,-0.8258,0.9649,8.8798,48.0485,-0.0678,-0.2315,-0.7721,349.3125
14:24:03:575,-0.2922,1.5179,8.6498,47.9141,0.0892,-0.1466,-0.6597,348.6094
14:24:03:594,-0.3592,1.8649,8.9779,47.7841,0.2462,-0.0776,-0.6206,348.6094
14:24:03:614,-3.4403,2.8585,10.759,47.6763,0.4636,0.1875,-0.5003,348.7188
14:24:03:633,-2.2959,3.6846,5.5735,47.5619,0.81,0.6811,-0.0312,348.7188
14:24:03:658,0.3305,3.8856,7.1512,47.6608,0.3751,0.2382,0.0904,349.2969
14:24:03:674,0.8907,2.8992,9.7343,47.9544,-0.102,-0.339,-0.2095,349.2969
14:24:03:693,0.5506,1.9223,11.9536,47.9762,-0.1814,-0.6389,-0.4655,349.875
14:24:03:714,0.0646,1.4629,13.7372,48.0914,-0.0165,-0.5351,-0.4508,349.875
14:24:03:733,-0.0287,1.8769,13.2754,48.0084,0.4416,-0.1851,-0.2761,350.5312
14:24:03:755,0.2441,2.7317,11.2427,47.8374,0.8143,0.0941,-0.1301,350.6094
14:24:03:773,0.1029,3.3015,9.9715,47.9604,0.8082,0.0837,-0.1423,351.9375
14:24:03:794,-0.3042,3.3637,9.7463,48.155,0.5369,-0.044,-0.2169,352.0625
14:24:03:816,-0.3784,2.758,11.4485,47.8409,0.215,-0.3048,-0.3195,353.8125
14:24:03:834,-1.2401,2.1643,11.3192,47.5134,0.3244,-0.2694,-0.3237,353.9844
14:24:03:903,-1.5945,2.2385,10.4527,47.4633,0.2816,-0.1564,-0.2474,355.4688
14:24:03:903,-1.7237,2.1428,10.3783,47.1008,0.0928,-0.0776,-0.1344,355.6094
14:24:03:904,-1.6041,1.8123,11.5971,47.2516,-0.0837,-0.0501,-0.0202,356.7656
14:24:03:914,-1.8505,1.628,11.4844,47.3057,-0.0318,-0.08,0.0342,356.8906
14:24:03:934,-2.1212,1.4127,10.9385,47.088,-0.0202,-0.0238,0.1387,356.8125
14:24:03:957,-1.817,1.1252,10.9914,46.8871,-0.1552,0.1124,0.2871,356.8125
14:24:03:975,-1.3717,0.5578,11.2953,47.0033,-0.2382,0.1423,0.3366,357.5781
14:24:03:993,-0.6942,0.1723,12.0879,47.0513,-0.146,0.1063,0.3305,358.5625
14:24:04:015,-1.0917,0.1196,11.4485,47.0932,0.0489,0.4416,0.3781,358.5625
14:24:04:033,-1.6854,0.5339,10.946,47.3057,0.1796,0.8631,0.4655,358.9531
14:24:04:056,-1.7285,1.4797,10.5293,47.3872,0.3292,1.0073,0.5241,358.9531
14:24:04:075,-1.1492,2.6408,8.5253,47.9056,0.562,0.9383,0.5101,359.5781
14:24:04:093,-0.5267,3.4379,6.361,48.1697,0.6102,0.7177,0.3763,359.5781
14:24:04:115,-0.62,3.2441,5.1257,48.5984,0.3842,0.4496,0.1735,0.3906
14:24:04:133,-1.0199,2.5017,5.5687,48.4954,0.0122,0.2676,0.099,0.3906
14:24:04:154,-0.9673,1.7213,6.8375,48.8467,-0.2346,0.2883,0.2095,0.8438
14:24:04:175,-0.7445,1.051,7.9029,49.2251,-0.1692,0.4117,0.3952,0.8906
14:24:04:193,0.1077,0.7086,8.9492,49.5849,0.1735,0.609,0.628,0.8906
14:24:04:215,0.9649,1.439,7.4575,49.7236,0.7025,1.0146,0.8564,0.8906
14:24:04:233,1.7237,2.7508,4.3908,50.0795,1.1111,1.2785,0.8625,0.4531
14:24:04:253,1.7644,3.8809,1.4725,50.7542,1.0769,1.171,0.5669,0.4062
14:24:04:273,0.6033,3.8809,-0.5913,51.0287,0.5351,0.8808,0.0892,359.6719
14:24:04:294,-1.5658,2.9231,0.6775,51.7991,-0.4074,0.5149,-0.3409,359.6094
14:24:04:316,-4.1489,0.6918,5.5208,52.4523,-1.6078,0.3299,-0.3653,358.5938
14:24:04:334,-3.9957,0.0359,6.9404,53.1145,-1.7611,0.3195,-0.2291,358.4844
14:24:04:353,-4.1871,-0.4406,8.1616,53.5919,-1.81,0.1246,-0.3018,357.2188
14:24:04:375,-5.0252,-0.6679,9.6218,54.6063,-1.8717,-0.1124,-0.4942,357.0938
14:24:04:396,-5.461,-0.8019,11.6617,55.0324,-1.8778,-0.532,-0.6163,356.4375
14:24:04:413,-5.1568,-0.8139,13.0597,55.5232,-1.6665,-0.9694,-0.5724,356.375
14:24:04:433,-3.4594,-0.3233,14.307,56.2952,-1.2706,-1.2522,-0.3903,355.9531
14:24:04:453,-2.2241,-0.1723,13.3687,56.9128,-0.8497,-1.2675,-0.2535,355.9062
14:24:04:475,-1.1994,0.1938,11.7215,57.1218,-0.6225,-1.2296,-0.3427,354.7188
14:24:04:493,-0.917,-0.1244,11.3432,57.2501,-0.5919,-1.5712,-0.5589,352.4688
14:24:04:514,-0.6416,-0.189,12.1047,57.2707,-0.6646,-1.6909,-0.6292,352.4688
14:24:04:533,-0.3927,-0.4238,13.8667,56.9061,-0.7318,-1.2315,-0.4923,351.5
14:24:04:554,-0.7229,-1.3262,14.2041,56.708,-0.5345,-0.5821,-0.2193,351.5
14:24:04:576,0.3688,-0.7277,13.7348,56.472,-0.3213,-0.0886,0.1087,351.9688
14:24:04:593,0.9218,-0.5865,12.3631,56.1477,-0.1967,0.1411,0.1423,351.9688
14:24:04:616,0.0431,-1.2903,11.2379,55.76,-0.1692,-0.0837,-0.2028,351.9531
14:24:04:633,-1.3143,-1.9032,11.4724,55.684,-0.1833,-0.5748,-0.5223,351.9531
14:24:04:654,-2.1906,-2.6599,11.8962,55.5328,-0.1961,-0.6958,-0.3909,352.1875
14:24:04:675,-0.8429,-2.4658,12.4014,55.6513,-0.0696,-0.4416,0.1319,352.2031
14:24:04:693,1.4533,-1.5156,11.889,55.7097,0.2065,-0.0446,0.4844,353.1094
14:24:04:715,2.8322,-0.5291,10.3783,55.7148,0.5278,0.1271,0.3402,353.1094
14:24:04:733,3.3805,-0.4478,11.2451,55.7271,0.7257,0.3042,-0.1454,353.7344
14:24:04:753,0.3377,-0.0574,10.5317,55.7522,1.1649,1.273,-0.7825,353.7344
14:24:04:775,-1.5802,0.3808,7.2685,55.8871,1.4765,1.6567,-0.8344,354.6562
14:24:04:793,-1.494,0.6176,5.7338,55.8766,1.207,0.8527,-0.419,354.75
14:24:04:814,-1.2233,0.8477,6.737,55.9889,0.6994,0.2065,-0.1613,355.875
14:24:04:835,-0.8477,0.9577,7.7354,55.9106,0.3256,0.2401,0.0397,356
14:24:04:854,-0.067,0.8306,7.3235,55.9167,0.2327,0.0953,0.014,356.0938
14:24:04:875,0.699,1.5419,7.1847,55.7972,0.0159,-0.1179,-0.044,356.0938
14:24:04:893,1.2185,2.3198,8.286,55.7865,-0.2285,-0.0483,-0.0898,356.125
14:24:04:913,1.0391,2.6264,8.6067,55.7481,-0.3409,0.1026,-0.2407,356.1406
14:24:04:933,0.2584,2.557,9.0305,55.8499,-0.4435,0.1857,-0.4203,357.0469
14:24:04:953,-0.7493,2.3151,10.1581,55.8373,-0.5663,0.2175,-0.4917,357.1406
14:24:04:976,-1.5179,1.9391,10.3543,55.9138,-0.5791,0.1991,-0.4416,356.5469
14:24:04:993,-1.5754,1.6328,10.8954,56.3011,-0.5858,0.149,-0.3286,356.3281
14:24:05:014,-1.7572,1.0367,11.2642,56.5332,-0.62,0.2095,-0.2278,356.3281
14:24:05:033,-2.2193,0.5387,11.4197,57.1585,-0.6438,0.3146,-0.1716,358.1094
14:24:05:053,-2.1141,0.3999,11.0393,57.5359,-0.6438,0.3647,-0.0971,358.1094
14:24:05:076,-2.2002,0.079,10.558,58.3085,-0.7245,0.3781,-0.1197,358.8594
14:24:05:093,-3.0452,-1.2449,10.0481,58.8239,-0.981,0.2627,-0.3121,358.8594
14:24:05:115,-4.1345,-2.4371,11.3264,59.4073,-1.2718,-0.1924,-0.5339,358.8906
14:24:05:133,-5.959,-6.9643,13.194,59.9235,-1.2974,-0.5663,-0.5656,358.8906
14:24:05:154,-5.3677,-5.6333,13.7396,60.434,-1.0439,-0.4923,-0.292,358.8906
14:24:05:175,-4.2497,-4.7812,12.0975,61.1008,-0.5534,-0.3146,-0.0941,358.9531
14:24:05:193,-3.2704,-4.6397,9.198,61.6092,-0.1148,-0.2492,0.0764,359.2656
14:24:05:215,-1.1659,-2.9447,8.4105,61.9129,0.0764,-0.4642,0.2859,359.2656
14:24:05:233,0.1436,-1.3789,9.5213,61.9443,0.1735,-0.697,0.2834,0.125
14:24:05:253,-0.2827,-1.0702,9.5716,61.8923,0.2266,-0.6377,0.0336,0.125
14:24:05:275,-2.4634,-1.5538,9.3036,61.6644,0.1216,-0.4722,-0.182,0.7656
14:24:05:294,-2.9303,-1.7309,9.2892,61.5585,0.0812,-0.3341,-0.1264,0.8281
14:24:05:316,-1.5945,-1.4222,6.871,61.3024,0.2437,-0.4545,0.0024,1.0938
14:24:05:333,-2.7915,-2.8298,8.8176,61.0868,0.295,-0.8295,0.0086,1.1094
14:24:05:356,-0.2946,-0.5626,9.7295,60.5865,0.3622,-0.4838,0.3592,1.1562
14:24:05:375,-0.2034,-0.1771,8.7434,60.0709,0.7037,-0.3115,0.3097,1.1562
14:24:05:396,-0.0359,0.1364,7.9866,59.8062,0.8747,-0.3573,0.2126,1.75
14:24:05:413,0.5387,0.4071,7.9484,59.345,0.8417,-0.5418,0.1326,1.8125
14:24:05:434,1.0391,0.6607,8.5828,59.0129,0.6841,-0.5266,0.0531,2.4062
14:24:05:452,0.9649,0.8306,9.8949,58.6227,0.5302,-0.3146,-0.066,2.4688
14:24:05:474,0.3138,0.8883,10.7136,58.2072,0.5174,-0.0092,-0.182,2.4062
14:24:05:496,-0.2512,0.8234,10.5844,57.6665,0.6334,0.1857,-0.2223,1.8438
14:24:05:513,-0.6033,0.8282,10.6274,57.407,0.664,0.146,-0.1808,1.8438
14:24:05:533,-0.553,0.8453,10.3807,57.2662,0.5889,-0.0116,-0.1008,1.9375
14:24:05:554,-0.3377,0.8501,11.4006,56.5666,0.3818,-0.2352,0.0043,1.9375
14:24:05:576,0.9745,0.9577,13.3543,56.4671,0.2443,-0.3158,0.0928,2.0781
14:24:05:593,2.15,1.8625,13.9576,56.1928,0.4148,-0.1643,0.0556,2.0781
14:24:05:614,2.2792,2.7724,12.1119,55.8692,0.6866,0.0257,-0.1423,1.8594
14:24:05:633,1.6878,2.3916,10.704,55.4391,0.6414,0.0257,-0.3732,1.8438
14:24:05:654,0.5291,1.0223,11.4174,54.9663,0.2004,0.0702,-0.4862,1.8281
14:24:05:676,0.1436,-0.5124,12.1454,54.5611,-0.0928,0.0446,-0.4691,1.1562
14:24:05:693,-0.4358,-2.2241,12.9186,54.2585,-0.1649,-0.2272,-0.482,0.8594
14:24:05:715,-0.8596,-2.5089,13.5099,54.3188,-0.0837,-0.4209,-0.4447,0.8594
14:24:05:733,-1.0223,-1.5754,11.9536,53.9617,0.1142,-0.2969,-0.2694,0.9219
14:24:05:753,-0.0407,-0.3042,10.218,53.8192,0.3085,-0.1894,0.0037,0.9219
14:24:05:776,1.5682,0.5363,8.8271,53.5051,0.4349,-0.0715,0.204,1.3594
14:24:05:794,2.758,0.6918,8.231,53.323,0.3744,0.0263,0.1985,1.3906
14:24:05:814,2.7915,1.063,8.2071,53.2789,0.2205,-0.0122,-0.0428,1.7188
14:24:05:833,1.1611,0.8429,7.7713,52.8805,0.1747,-0.0654,-0.369,1.75
14:24:05:853,-0.0072,0.6511,8.365,52.5031,0.1881,-0.157,-0.4355,1.7031
14:24:05:876,-0.055,0.0598,7.4312,52.2704,0.1374,0.2785,0.0525,1.7031
14:24:05:894,0.9051,0.4597,7.3881,51.9585,0.0641,0.3219,0.2468,1.8125
14:24:05:966,0.5291,0.5387,7.0508,51.668,0.022,0.4032,0.2468,1.8281
14:24:05:967,0.1555,0.3999,6.737,51.6994,-0.0122,0.5033,0.234,2.6875
14:24:05:967,0.3832,0.5004,6.7059,51.7152,-0.0831,0.5076,0.248,2.7812
14:24:05:975,1.2449,1.2544,7.2374,52.0165,-0.1997,0.4166,0.2199,3.75
14:24:05:996,0.6799,1.5945,7.2757,52.1612,-0.2779,0.4936,0.088,4.6094
14:24:06:013,0.3185,1.7668,8.8989,52.5028,-0.3903,0.4569,0.0159,4.6094
14:24:06:033,-0.4167,1.6807,10.0409,52.7313,-0.3671,0.5217,0.0751,4.5
14:24:06:054,-0.285,1.7022,11.47,53.1599,-0.1881,0.4306,0.2816,4.5
14:24:06:076,0.134,1.8003,10.8093,53.8276,0.1295,0.2877,0.4649,4.3438
14:24:06:093,0.498,2.0973,10.2443,54.4091,0.2223,0.3628,0.5571,4.3438
14:24:06:116,1.4629,2.0782,10.893,54.972,0.0092,0.4025,0.4398,4.3438
14:24:06:133,1.197,1.7764,11.8699,55.0596,-0.1234,0.1662,0.0617,5.25
14:24:06:153,0.0885,1.0367,13.9337,55.7236,-0.0501,-0.2987,-0.3628,5.25
14:24:06:176,-1.5921,0.4286,12.5737,56.0115,0.2914,-0.4209,-0.5571,5.4219
14:24:06:193,-1.3095,0.6894,10.8882,56.2407,0.3806,0.0061,-0.3439,4.8125
14:24:06:216,0.0933,1.5227,11.0441,56.3437,0.1442,0.3677,-0.1912,4.8125
14:24:06:233,-0.7708,1.1324,11.1422,56.4268,0.0092,0.3024,-0.419,4.1719
14:24:06:254,-3.1914,-0.6033,12.0808,56.3128,-0.0525,-0.0727,-0.7342,4.1719
14:24:06:275,-5.0994,-2.2528,12.4875,56.088,0.0079,-0.4203,-0.7495,3.7344
14:24:06:293,-5.1138,-3.4116,9.6745,55.9349,0.055,-0.3989,-0.3934,3.7344
14:24:06:314,-2.6264,-2.569,10.7973,55.4737,0.0122,-0.978,0.0476,3.5156
14:24:06:333,-0.7684,-1.7955,11.8866,55.1814,-0.0031,-1.0928,0.1631,3.5
14:24:06:353,-0.1101,-0.6057,9.294,54.9626,0.2004,-0.3237,0.1857,2.7031
14:24:06:375,0.0431,1.1109,6.4089,54.6806,-0.0232,-0.1155,0.1252,2.625
14:24:06:394,-0.5483,1.1874,7.9795,54.1964,-0.4331,-0.2309,-0.0281,1.5781
14:24:06:415,-1.7668,0.9697,9.5955,53.9662,-0.6872,-0.0666,-0.1032,1.4688
14:24:06:433,-2.6599,0.3329,9.9906,53.9773,-0.6212,0.0177,-0.0202,1.7656
14:24:06:453,-2.1045,0.3042,9.7989,54.0855,-0.3024,-0.135,0.2309,1.7812
14:24:06:476,-0.6846,0.7756,8.8199,54.2771,0.0159,-0.339,0.4484,2.7656
14:24:06:493,0.2536,1.0295,8.353,54.4974,0.1258,-0.4508,0.4905,3.4219
14:24:06:513,0.6081,0.917,7.9555,54.6192,0.1185,-0.394,0.4374,3.4219
14:24:06:533,0.9864,0.9769,7.7474,54.6518,0.1045,-0.3738,0.3677,5
14:24:06:554,1.1085,0.9984,7.7545,54.9645,0.0568,-0.3592,0.2669,5
14:24:06:576,0.8186,1.0295,8.2549,55.0117,-0.014,-0.3671,0.1313,5.625
14:24:06:593,0.2321,1.0152,9.1573,54.9257,-0.0409,-0.3732,0.0214,5.6719
14:24:06:616,0.1866,1.1468,9.9045,54.8601,-0.0086,-0.2828,0.0305,5.6719
14:24:06:633,0.6081,1.5562,9.938,54.8033,0.0629,-0.0874,0.1002,5.4375
14:24:06:653,0.7301,1.8027,10.0361,54.7735,0.0733,-0.0305,0.0684,5.4375
14:24:06:677,0.8402,1.6902,11.0249,54.6614,0.0684,-0.2425,-0.0574,5.1406
14:24:06:695,0.6081,1.3406,11.5517,54.7441,0.135,-0.2969,-0.1527,5.25
14:24:06:715,0.5148,1.0726,11.7024,54.4874,0.2462,-0.2828,-0.1747,5.25
14:24:06:733,0.4071,0.9673,12.198,54.3887,0.3347,-0.2895,-0.146,5
14:24:06:753,0.5243,1.2544,13.2826,54.4968,0.3928,-0.11,-0.0165,5
14:24:06:777,1.6328,2.3844,11.9082,54.2001,0.5498,0.1344,0.1148,4.0312
14:24:06:795,2.8609,3.0957,10.4958,53.8267,0.5656,-0.0745,0.0183,4.0312
14:24:06:817,2.1691,2.0949,11.7239,53.4593,0.1991,-0.2388,-0.1961,3.2812
14:24:06:833,1.1061,0.28,13.3352,53.3477,-0.1038,0.0421,-0.2407,3.2188
14:24:06:853,0.2249,-1.2042,14.9106,53.3721,-0.1332,0.4471,-0.1778,2.8594
14:24:06:876,-0.1388,-1.4725,11.3097,53.6054,0.4319,0.978,-0.0525,2.8281
14:24:06:895,-0.0383,-0.6631,8.2023,53.68,0.4868,0.7208,0.0434,2.8125
14:24:06:916,0.7421,0.4765,6.2103,53.4345,0.1888,0.2938,0.1991,2.8281
14:24:06:932,1.3382,0.8186,5.4802,53.5363,-0.2266,-0.1936,0.2376,2.6719
14:24:06:953,2.4969,0.9266,5.6788,53.9765,-0.667,-0.452,0.1643,2.6406
14:24:06:976,2.6934,1.0774,6.5216,54.3399,-1.0769,-0.5534,-0.0183,2.8906
14:24:06:994,2.1308,0.5363,7.4192,54.6717,-1.3708,-0.6805,-0.2676,3.2812
14:24:07:014,1.1109,-0.0191,7.8359,54.6366,-1.4912,-0.8314,-0.4661,3.2812
14:24:07:033,0.2106,-0.51,8.2047,54.7483,-1.515,-0.8668,-0.4868,3.2188
14:24:07:053,-0.1603,-1.1874,8.9515,55.0235,-1.5119,-0.7434,-0.3427,3.2188
14:24:07:075,0.3568,-1.2114,9.7558,55.5585,-1.3665,-0.6334,-0.1295,3.2031
14:24:07:093,-0.7205,-0.8692,10.1486,56.324,-1.0891,-0.6316,0.0159,3.4219
14:24:07:114,-1.8721,-0.8788,9.8495,56.7547,-0.8057,-0.5968,0.3824,3.4219
14:24:07:133,-0.0096,-1.6831,9.7463,57.4045,-0.5052,-0.2535,0.8619,3.8281
14:24:07:153,1.0223,-1.5897,10.3639,58.0125,-0.1399,0.4612,1.0439,3.8281
14:24:07:176,2.4754,-0.5961,10.436,58.9289,0.2682,1.6536,1.091,3.7969
14:24:07:195,3.323,0.7804,8.7912,59.8668,0.5956,2.1668,0.8582,3.4375
14:24:07:214,3.7158,1.0439,7.666,60.5411,0.5198,1.185,0.449,3.4375
14:24:07:232,3.8856,1.2305,9.7822,61.0115,0.135,-0.5797,-0.1118,3.0469
14:24:07:253,2.8107,0.3784,11.3958,61.3987,-0.1307,-1.2351,-0.598,3.0469
14:24:07:275,1.3693,-0.486,13.2299,61.6494,-0.1942,-0.9621,-0.8387,3.4531
14:24:07:293,0.7684,-0.941,14.3599,61.5046,0.011,-0.441,-0.708,3.4531
14:24:07:314,0.4071,-1.1683,14.0868,61.3525,0.3744,0.1136,-0.3891,4.5156
14:24:07:333,0.1603,-1.0343,13.9457,61.0498,0.6982,0.766,-0.1087,4.6094
14:24:07:353,0.189,-0.6703,13.6463,60.564,1.0488,1.1924,0.08,5.1875
14:24:07:377,0.4932,-0.0335,12.1502,60.0984,1.3494,1.2657,0.1497,5.2344
14:24:07:395,0.5171,0.4167,10.8236,59.6017,1.4405,0.8766,0.0904,4.9219
14:24:07:418,1.1372,0.8812,9.6625,58.8425,0.9053,0.2737,-0.1435,3.0156
14:24:07:433,-0.5076,0.1699,9.4807,58.5031,0.4551,0.4313,-0.3854,3.0156
14:24:07:453,-2.2863,-1.3071,9.8949,58.4772,-0.0367,0.5834,-0.4642,2.8281
14:24:07:476,-2.9638,-2.2122,10.3834,58.2159,-0.4306,0.4795,-0.4331,0.8906
14:24:07:493,-3.7708,-2.7772,11.2642,58.0856,-0.4423,0.0403,-0.3409,0.3281
14:24:07:513,-3.134,-2.6527,10.7207,58.0166,-0.0244,-0.4154,0.0715,0.3281
14:24:07:533,-1.3023,-1.4438,9.6266,58.0567,0.4337,-0.5589,0.4459,0.2969
14:24:07:552,0.4406,0.0814,8.4918,57.818,0.6994,-0.3378,0.5357,1.7344
14:24:07:576,1.13,1.6543,7.8479,57.8209,0.5504,0.1857,0.4306,1.875
14:24:07:593,0.3664,2.4778,7.7186,57.7439,0.1124,0.595,0.2144,3.0781
14:24:07:615,-0.7158,2.1404,7.6134,57.8306,-0.3622,0.5589,-0.0244,3.0938
14:24:07:633,-1.118,0.9386,8.5469,57.9858,-0.686,0.1173,-0.1985,3.0781
14:24:07:653,-1.2784,0.0431,9.7343,58.2425,-0.6927,-0.2486,-0.2572,3.0781
14:24:07:677,-1.0941,-0.2776,9.3203,58.0931,-0.4691,-0.2242,-0.1106,2.7656
14:24:07:693,-0.3257,0.1364,8.4009,58.1481,-0.1839,-0.1478,0.1448,2.9375
14:24:07:715,0.3927,0.8282,7.8814,58.5869,0.0507,-0.0928,0.2816,2.9375
14:24:07:734,0.9027,1.4222,7.3068,59.0061,0.1588,-0.0238,0.2602,3.7969
14:24:07:753,0.7158,1.4004,6.7848,59.1273,0.1118,-0.0153,0.1197,3.7969
14:24:07:777,0.6272,1.3023,6.5767,58.9389,0.0049,-0.1197,-0.0006,4.5625
14:24:07:794,0.4406,1.2449,7.6732,59.1144,-0.099,-0.3409,-0.0593,4.5625
14:24:07:815,0.3616,1.2855,9.1789,58.906,-0.1881,-0.4734,-0.0812,4.1094
14:24:07:833,0.2776,1.3693,10.0863,59.1279,-0.2431,-0.5186,-0.1295,4.1094
14:24:07:853,0.1053,1.3119,10.5485,59.04,-0.2462,-0.5223,-0.2407,3.2031
14:24:07:877,0.1364,1.1109,10.7997,58.8291,-0.2712,-0.6475,-0.3702,3.1094
14:24:07:894,0.2656,0.6679,10.771,58.6273,-0.416,-0.7855,-0.496,2.8125
14:24:07:916,1.0678,-0.0096,12.0494,58.4075,-0.6157,-0.7972,-0.5821,2.7812
14:24:07:934,2.0973,-0.1651,13.7276,58.383,-0.7043,-0.8185,-0.595,3.1719
14:24:07:953,2.5475,0.3736,13.7901,58.0539,-0.2523,-0.3146,-0.551,3.2188
14:24:07:979,3.1149,0.7828,13.1483,57.7006,0.1417,-0.0269,-0.518,3.1719
14:24:08:041,3.3159,0.4382,12.0206,57.1996,0.4172,0.1674,-0.5516,2.6562
14:24:08:041,2.3174,-0.4525,11.0154,57.0143,0.4135,0.2456,-0.678,2.6562
14:24:08:041,1.1563,-1.9705,10.7877,56.7904,0.1106,0.1747,-0.7697,2.5938
14:24:08:054,0.8668,-2.8537,11.0895,56.328,-0.2511,0.1087,-0.7006,2.4844
14:24:08:078,1.1779,-2.5379,11.5564,56.4602,-0.3665,0.124,-0.4697,2.4844
14:24:08:093,1.6137,-1.6854,11.3169,56.1836,-0.1545,0.3378,-0.2211,2.6562
14:24:08:115,1.5945,-0.9793,9.9787,56.1218,0.2181,0.6872,-0.149,2.6719
