Time,Acc_X,Acc_Y,Acc_Z,Meg,Gyr_X,Gyr_Y,Gyr_Z,Ore
15:13:01:816,-1.7764,3.2824,9.3132,56.7202,-0.1106,-0.1075,-0.1246,170.8906
15:13:01:836,-1.7429,3.3972,9.1765,56.4787,-0.0916,-0.1478,-0.1515,170.8906
15:13:01:856,-1.8099,3.402,9.1717,56.2926,-0.0874,-0.1778,-0.2083,170.8906
15:13:01:874,-1.8458,3.3278,9.3586,56.45,-0.0996,-0.2132,-0.2395,170.8906
15:13:01:900,-1.6735,3.2871,9.5046,56.2223,-0.1045,-0.223,-0.2352,170.8906
15:13:01:916,-1.4509,3.323,9.5142,56.2959,-0.0996,-0.1894,-0.2443,170.8906
15:13:01:932,-1.5538,3.2536,9.5931,56.3252,-0.1069,-0.11,-0.2957,170.8906
15:13:01:952,-1.9825,3.1747,9.641,56.3287,-0.099,-0.0647,-0.339,170.8906
15:13:01:970,-2.0973,2.9662,9.6817,56.3583,-0.0421,-0.124,-0.3476,170.8906
15:13:01:989,-2.1093,2.7317,9.495,56.6112,0.0446,-0.1918,-0.3494,170.8906
15:13:02:008,-2.1547,2.7078,9.1789,56.9801,0.091,-0.223,-0.3445,170.8906
15:13:02:028,-2.1595,2.6527,8.9994,57.0616,0.0483,-0.2468,-0.3164,170.8906
15:13:02:049,-2.2552,2.624,8.8798,57.1651,-0.0458,-0.2596,-0.2572,170.8906
15:13:02:068,-2.3533,2.7269,8.8678,57.1157,-0.1344,-0.3048,-0.1778,170.8906
15:13:02:088,-2.2624,2.825,8.8128,57.4826,-0.1857,-0.3543,-0.0996,170.8906
15:13:02:108,-2.0997,2.9495,8.7625,57.5551,-0.204,-0.3616,-0.0495,173.6094
15:13:02:132,-2.0351,3.146,8.6043,57.6919,-0.2169,-0.3311,-0.0385,173.6406
15:13:02:149,-1.9295,3.1507,8.6067,57.862,-0.2627,-0.336,-0.0715,174.0938
15:13:02:166,-1.8649,3.0021,8.8534,57.6792,-0.3476,-0.3757,-0.1277,174.6875
15:13:02:187,-1.8218,2.6958,9.1262,57.6166,-0.4416,-0.3867,-0.1655,174.6875
15:13:02:206,-1.7166,2.5113,9.4567,57.7762,-0.5247,-0.358,-0.1625,175.3281
15:13:02:227,-1.829,2.5113,9.7774,57.6552,-0.5907,-0.2614,-0.1307,175.3281
15:13:02:249,-1.9271,2.473,9.9141,57.3097,-0.6096,-0.1729,-0.0812,176.0625
15:13:02:267,-1.6974,2.2816,9.8734,57.2261,-0.5748,-0.1423,-0.044,176.125
15:13:02:286,-1.6759,2.0758,9.7391,57.1216,-0.5302,-0.0996,-0.055,176.1406
15:13:02:307,-1.8888,1.9439,9.6529,57.1778,-0.4991,-0.0421,-0.0666,176.9844
15:13:02:326,-2.0853,1.9801,9.6194,57.23,-0.4661,-0.0519,-0.0434,176.9844
15:13:02:348,-2.0901,2.0183,9.6314,57.0389,-0.4435,-0.0922,0.0055,177.7031
15:13:02:366,-1.8697,2.016,9.7056,56.9796,-0.4343,-0.1093,0.066,178.1094
15:13:02:387,-1.7907,2.1165,9.7271,56.7951,-0.4117,-0.0812,0.1258,178.1094
15:13:02:406,-1.7357,2.2433,9.6625,56.7712,-0.3616,-0.0428,0.1674,178.3125
15:13:02:427,-1.6017,2.2385,9.5644,56.6003,-0.292,-0.0476,0.1845,178.3125
15:13:02:450,-1.4844,2.1619,9.3873,56.3795,-0.2211,-0.0788,0.19,178.6094
15:13:02:467,-1.4079,2.1811,9.2148,56.0202,-0.1747,-0.0519,0.2052,179.1406
15:13:02:489,-1.3717,2.3055,9.0975,55.7162,-0.171,0.0476,0.2266,180.3438
15:13:02:506,-1.4701,2.394,9.1023,55.7687,-0.2065,0.1368,0.2382,180.4375
15:13:02:526,-1.386,2.5307,9.2629,55.6248,-0.2376,0.1014,0.2578,180.6094
15:13:02:550,-1.0822,2.4275,9.5429,55.4237,-0.2395,-0.0794,0.1716,180.625
15:13:02:567,-1.3956,2.406,9.8447,55.2726,-0.2248,-0.1075,0.0971,180.6562
15:13:02:589,-1.5826,2.4084,9.9428,55.1164,-0.19,-0.1124,0.077,180.6562
15:13:02:608,-1.5873,2.3342,9.7702,55.137,-0.157,-0.1008,0.0941,180.6875
15:13:02:625,-1.386,2.3581,9.4783,55.0464,-0.1417,-0.0794,0.1332,180.7031
15:13:02:651,-1.2353,2.4443,9.3419,54.8023,-0.1478,-0.0647,0.1613,180.5781
15:13:02:668,-1.2449,2.4993,9.5477,54.5517,-0.1649,-0.0928,0.1619,180.5625
15:13:02:687,-1.142,2.394,9.8327,54.3284,-0.1497,-0.1765,0.1662,180.2031
15:13:02:706,-0.9625,2.2433,10.0313,54.3097,-0.0782,-0.2566,0.1796,180.1719
15:13:02:726,-0.8139,2.2983,10.0265,53.9455,0.033,-0.2327,0.1936,179.7812
15:13:02:750,-0.8548,2.4538,9.6936,53.813,0.1222,-0.0837,0.1753,179.7344
15:13:02:767,-0.8907,2.5137,9.3036,53.5161,0.1393,0.0299,0.1338,179.2344
15:13:02:789,-0.8524,2.3629,9.2219,53.1945,0.0727,-0.0159,0.0837,179.2188
15:13:02:858,-0.6607,2.0973,9.7869,53.0973,-0.0605,-0.1338,0.0397,178.625
15:13:02:858,-0.3377,1.9008,10.7997,52.8242,-0.1845,-0.2333,0.0257,178.4531
15:13:02:859,-0.1388,1.8362,11.7646,52.607,-0.2242,-0.2517,0.0238,177.9531
15:13:02:866,-0.268,2.0231,12.3368,52.4132,-0.1655,-0.1607,0.0128,177.75
15:13:02:887,-0.4741,2.1811,12.3344,52.4632,-0.0434,0.0159,0.0104,177.75
15:13:02:906,-0.1579,2.2768,11.7096,52.3575,0.0715,0.1802,0.0116,177.4062
15:13:02:927,0.9242,1.7668,10.8356,52.3959,0.0959,0.1442,-0.0861,177.4062
15:13:02:949,1.6448,0.6105,11.0752,52.3158,-0.0128,-0.2187,-0.3396,177.0156
15:13:02:966,1.5132,-0.2321,12.1789,52.4327,-0.1607,-0.6261,-0.5583,177.0156
15:13:02:987,1.1133,-0.4621,12.5856,52.3989,-0.1802,-0.6365,-0.5644,176.5781
15:13:03:006,0.6823,-0.1962,11.4078,52.8473,-0.0367,-0.1704,-0.3867,176.5781
15:13:03:025,0.3808,0.5483,9.6649,52.9712,0.1906,0.4074,-0.1203,176.25
15:13:03:052,1.4318,2.5017,7.4025,52.9191,0.6127,0.6206,0.2248,176.125
15:13:03:067,2.0782,3.2608,7.0388,52.9713,0.6451,0.4465,0.1045,175.9062
15:13:03:090,2.3988,3.5121,7.0098,52.9593,0.5266,0.2169,-0.2236,175.8281
15:13:03:108,1.9753,3.0452,7.3953,53.1056,0.284,-0.1179,-0.6536,175.7812
15:13:03:132,1.2855,2.0614,8.2573,53.0317,-0,-0.5467,-0.9957,175.7812
15:13:03:148,0.6129,1.1587,9.4998,53.2437,-0.2217,-0.8625,-1.1478,175.7812
15:13:03:166,0.0622,0.5411,10.2921,53.0843,-0.3195,-0.8448,-1.1233,175.7344
15:13:03:187,-0.1077,0.443,10.515,53.2974,-0.2688,-0.6237,-0.9401,175.7344
15:13:03:205,0.0598,0.9625,10.2634,53.6136,-0.102,-0.3085,-0.7025,175.7344
15:13:03:227,0.3999,1.6232,9.6553,53.6264,0.1179,-0.033,-0.5626,176.1719
15:13:03:251,0.7181,2.1117,9.1023,53.866,0.3237,0.0397,-0.5418,176.2031
15:13:03:266,0.7325,2.4012,8.796,54.1714,0.4447,0.0061,-0.5944,177.4688
15:13:03:288,0.4406,2.6719,8.8032,54.5315,0.4581,-0.0556,-0.6469,177.5781
15:13:03:306,0.0024,2.9375,8.8846,54.926,0.3848,-0.113,-0.6481,178.125
15:13:03:327,-0.1268,2.9399,9.1023,55.0647,0.2645,-0.1625,-0.6108,178.1406
15:13:03:349,-0.0407,2.7102,9.7678,55.4533,0.1387,-0.2175,-0.5815,177.6406
15:13:03:367,-0.2704,2.6288,10.7782,55.7552,0.0348,-0.2144,-0.5656,177.7344
15:13:03:387,-0.6272,2.6145,11.6091,56.0956,-0.0287,-0.0831,-0.5076,177.7344
15:13:03:407,-0.6176,2.5307,12.0637,56.1277,-0.0403,0.0825,-0.4093,179.6562
15:13:03:426,-0.4765,2.3916,12.3751,56.3601,0.0043,0.1326,-0.3427,179.6562
15:13:03:449,-0.6392,2.2122,12.5234,56.4589,0.1142,0.1393,-0.3354,182.3594
15:13:03:466,-1.4916,1.9439,12.1717,56.5862,0.2614,0.2254,-0.3561,182.3594
15:13:03:489,-2.5857,2.0183,11.3216,56.792,0.3977,0.3854,-0.2926,184.2969
15:13:03:507,-3.0284,2.4514,10.328,56.9438,0.4868,0.5211,-0.1228,184.2969
15:13:03:527,-2.7197,2.7556,9.4687,56.9635,0.4887,0.5351,0.0293,185.4375
15:13:03:548,-2.0782,2.4849,8.9755,57.2544,0.3958,0.3121,0.0892,185.5469
15:13:03:566,-1.8218,1.8936,9.4831,57.4989,0.2541,-0.099,0.069,186.8281
15:13:03:587,-2.2074,1.6017,10.4982,57.5895,0.1527,-0.336,0.0367,186.9531
15:13:03:656,-2.7437,1.4028,10.3591,57.6472,0.2682,0.2071,0.2535,188.2969
15:13:03:657,-1.908,1.8625,8.0345,57.6848,0.3335,0.4184,0.3775,188.4219
15:13:03:657,-1.3502,2.1093,7.3953,57.9284,0.3152,0.3598,0.3708,189.6406
15:13:03:669,-1.0032,1.9104,7.3738,57.8148,0.1991,0.135,0.2443,189.7656
15:13:03:686,-1.2114,1.5108,8.1784,58.0279,-0.0049,-0.124,0.1014,190.6875
15:13:03:705,-1.4749,1.2066,8.7553,57.9688,-0.223,-0.1765,0.0996,190.7812
15:13:03:727,-1.4174,1.1707,8.796,58.0732,-0.3708,-0.044,0.2376,191.4219
15:13:03:749,-1.343,1.4868,8.6426,57.9798,-0.4007,0.0886,0.3861,191.4844
15:13:03:766,-1.2114,1.9415,8.4942,57.7966,-0.3115,0.1906,0.4844,192.0938
15:13:03:786,-1.075,2.3725,8.432,57.5409,-0.1625,0.2963,0.5198,192.1562
15:13:03:835,-1.142,2.7126,8.7458,57.0992,0.0024,0.3079,0.4777,192.1562
15:13:03:836,-1.4414,2.6504,8.8702,56.7107,0.1576,0.3005,0.4355,192.1562
15:13:03:847,-1.5275,2.5065,8.511,56.3939,0.2523,0.3836,0.5003,192
15:13:03:866,-1.4004,2.6575,8.2837,56.1239,0.2578,0.4306,0.6255,191.9688
15:13:03:887,-1.252,2.9806,8.2502,55.8967,0.1845,0.4832,0.6829,191.9688
15:13:03:906,-1.7166,3.1651,8.3746,55.6083,0.0812,0.5235,0.6603,191.2031
15:13:03:926,-2.1308,3.2847,8.5038,55.4293,0.0421,0.4594,0.6389,191.2031
15:13:03:950,-2.1571,3.1699,8.7506,55.4457,0.102,0.2645,0.6267,190.4688
15:13:03:966,-1.7501,3.1651,9.0616,55.1767,0.2278,0.0556,0.6096,190.4688
15:13:03:987,-1.1348,3.2991,9.1549,55.0216,0.3164,-0.0782,0.5498,190.2812
15:13:04:006,-0.7086,3.2512,9.2749,54.7864,0.2431,-0.2278,0.4496,190.2812
15:13:04:025,-0.079,2.9973,10.3834,54.6653,0.0257,-0.5125,0.3378,189.6094
15:13:04:049,0.6535,2.6073,12.0712,54.3716,-0.2272,-0.6377,0.2303,189.5312
15:13:04:067,1.063,2.1835,12.4612,54.3182,-0.4514,-0.3916,0.1686,188.4219
15:13:04:088,2.0566,1.7859,11.9824,54.1612,-0.6683,-0.1509,0.1588,188.3125
15:13:04:106,3.4905,0.9888,12.6817,53.7248,-0.876,-0.2608,0.0318,187.2969
15:13:04:129,3.8593,0.268,13.6774,53.6215,-0.7013,-0.1497,-0.551,187.2031
15:13:04:149,2.648,0.0814,13.6917,53.4488,-0.3225,0.168,-0.5748,185.9688
15:13:04:168,1.5802,0.4047,12.344,53.2743,0.033,0.3848,-0.3671,185.8438
15:13:04:186,1.7261,1.707,8.2669,53.1317,0.1833,0.3647,-0.2016,184.3438
15:13:04:205,2.0686,2.1428,7.7713,53.1841,0.0715,0.0922,-0.2578,184.1875
15:13:04:226,1.9128,2.1141,8.6043,53.1134,-0.1942,-0.1753,-0.5302,182.7969
15:13:04:250,1.1468,1.8099,9.4232,53.1697,-0.4215,-0.2181,-0.8387,182.6562
15:13:04:266,0.1675,1.3836,9.7582,53.3696,-0.4887,-0.124,-1.0085,181.5469
15:13:04:286,-0.4932,1.1731,9.5548,53.6331,-0.3628,-0.044,-1.0091,181.4375
15:13:04:306,-0.6894,1.4127,9.0832,53.8507,-0.1209,-0.0458,-0.923,180.75
15:13:04:326,-0.6057,1.6998,8.5181,54.1216,0.0605,-0.0525,-0.8454,180.7344
15:13:04:350,-0.3832,1.6017,8.3387,54.4477,0.113,-0.0415,-0.7898,180.4688
15:13:04:365,-0.0981,1.331,8.3889,54.7254,0.1362,-0.0079,-0.7385,180.25
15:13:04:387,-0.4813,1.1994,7.9819,55.0561,0.1833,0.0904,-0.6896,180.25
15:13:04:406,-0.941,1.5084,7.4456,55.3118,0.215,0.1533,-0.5742,181.1406
15:13:04:426,-1.051,1.963,7.2661,55.7174,0.1991,0.1069,-0.4343,181.1406
15:13:04:451,-1.1539,2.2863,7.4527,55.8807,0.1203,-0.0012,-0.3696,182.0625
15:13:04:468,-1.2473,2.339,8.499,56.3455,-0.0397,-0.0825,-0.3793,182.0625
15:13:04:487,-1.5634,2.0566,9.8997,56.7957,-0.223,-0.0428,-0.4038,182.5156
15:13:04:506,-2.3151,1.7931,10.905,57.0203,-0.3195,0.0776,-0.369,182.5156
15:13:04:526,-2.916,1.762,11.8986,57.075,-0.3024,0.0977,-0.2065,184.0312
15:13:04:551,-2.7006,1.6926,12.8348,57.1381,-0.1936,0.08,0.0531,184.0312
15:13:04:566,-1.9008,1.9896,13.1868,57.4278,-0.0391,0.1662,0.2871,186.0156
15:13:04:586,-1.6496,2.4562,12.8348,57.6792,0.0513,0.3683,0.3744,186.2188
15:13:04:606,-2.1595,2.7078,12.3655,57.8099,0.0544,0.5498,0.3506,188
15:13:04:627,-2.9542,2.7054,11.6928,57.6219,0.0709,0.5834,0.3427,188.1719
15:13:04:652,-3.1651,2.4012,10.2251,57.4681,0.0928,0.3995,0.4221,189.7344
15:13:04:670,-2.3797,1.9896,10.2538,57.2132,0.055,0.1161,0.4618,189.8906
15:13:04:686,-2.1476,1.3167,11.5134,57.158,0.0073,-0.1833,0.3799,191.1562
15:13:04:706,-2.6025,0.9266,12.0688,57.0287,0.11,-0.2492,0.3109,191.2812
15:13:04:726,-2.8298,0.7851,10.7423,56.8348,0.3464,-0.1258,0.3635,192.1094
15:13:04:751,-2.8561,0.8091,8.8846,56.4877,0.4624,-0.0098,0.4691,192.1875
15:13:04:766,-2.4658,1.2353,8.2884,56.7078,0.317,-0.0208,0.5809,192.9688
15:13:04:787,-1.7118,1.5491,8.3865,56.82,0.0574,-0.0391,0.6188,193.0469
15:13:04:855,-1.4486,1.3286,8.5181,56.7543,-0.1875,-0.0269,0.5204,193.5469
15:13:04:856,-1.5802,1.0008,8.6067,56.7909,-0.3128,-0.0287,0.4215,193.6094
15:13:04:856,-1.4844,0.7971,8.4033,56.4089,-0.2706,-0.0666,0.4099,193.1719
15:13:04:866,-1.2688,0.8429,8.2143,56.4031,-0.1497,-0.1503,0.4441,192.2656
15:13:04:887,-1.0343,1.3119,8.1879,56.3169,-0.0513,-0.2223,0.4942,192.2656
15:13:04:906,-0.7708,1.7979,8.231,56.2057,0.0318,-0.2529,0.5113,191.375
15:13:04:926,-0.6272,2.1117,8.353,55.4608,0.1155,-0.2443,0.471,191.375
15:13:04:950,-0.5578,2.3581,8.135,55.0395,0.1851,-0.1802,0.4227,190.3438
15:13:04:968,-0.4238,2.5403,8.152,54.8082,0.2205,-0.1594,0.3714,190.3438
15:13:04:988,-0.5578,2.6599,8.5373,54.4655,0.2254,-0.1918,0.2914,189.6562
15:13:05:006,-0.8186,2.5642,9.1717,54.6424,0.2584,-0.2407,0.2059,189.6562
15:13:05:025,-1.0869,2.2074,9.4711,54.3933,0.3653,-0.2291,0.1478,188.8594
15:13:05:052,-1.4653,2.1117,8.8534,54.4521,0.4606,-0.1252,0.1643,188.8594
15:13:05:067,-1.4725,2.4323,8.6019,54.4936,0.4423,-0.0623,0.2633,187.7031
15:13:05:087,-1.1037,2.6408,8.8726,54.8719,0.3537,-0.1032,0.3616,187.5938
15:13:05:106,-0.5626,2.6145,9.4591,55.1221,0.2388,-0.201,0.3958,186.5938
15:13:05:126,0.1507,2.4371,10.3448,54.9894,0.0831,-0.2504,0.3622,186.5
15:13:05:152,-0.067,2.3797,11.0201,55.1069,-0.3415,0.0189,0.1888,185.6406
15:13:05:167,-0.0144,2.0734,11.0273,55.028,-0.4691,0.0538,0.1423,185.5625
15:13:05:187,0.3927,1.3382,11.1733,55.1129,-0.5577,-0.0733,0.0605,184.6094
15:13:05:206,0.6703,-0.0407,12.2794,54.8159,-0.6927,-0.2798,-0.0837,184.5156
15:13:05:225,0.7445,-1.3454,13.9792,54.3929,-0.7532,-0.4001,-0.1594,183.7031
15:13:05:252,0.4262,-1.5562,14.1347,54.0266,-0.5779,-0.2181,-0.0745,183.625
15:13:05:266,0.268,-0.7564,12.2028,53.7003,-0.2608,0.1649,0.1808,183.0469
15:13:05:286,1.0343,0.0885,10.4575,53.5672,-0.0183,0.2987,0.4361,183
15:13:05:307,2.2887,1.0774,9.7487,53.4272,0.102,0.0996,0.4838,182.75
15:13:05:325,3.0356,1.6807,9.5213,53.1161,0.0825,-0.0751,0.2315,182.7344
15:13:05:350,2.6121,1.4533,9.6553,53.0039,-0.0874,-0.0409,-0.2052,182.3594
15:13:05:366,1.3334,0.9147,9.3084,53.0894,-0.2236,0.1778,-0.5614,181.625
15:13:05:387,0.1005,0.7325,8.3172,53.2626,-0.1924,0.3586,-0.6976,181.625
15:13:05:406,-0.4525,0.9434,7.0699,53.4556,-0.0696,0.3525,-0.6524,180.9844
15:13:05:426,-0.3592,1.573,6.4352,53.7241,-0.025,0.2181,-0.5473,180.9844
15:13:05:452,-0.1507,2.0973,6.7226,53.9556,-0.1136,0.1075,-0.507,180.5469
15:13:05:465,-0.0072,2.3198,7.9508,54.244,-0.2449,0.0647,-0.543,180.5469
15:13:05:489,-0.1149,2.193,9.1837,54.6628,-0.2584,0.0739,-0.6157,180.5781
15:13:05:506,-0.2321,1.9343,9.5094,55.1398,-0.1216,0.1045,-0.6567,180.5781
15:13:05:526,-0.2827,1.9295,9.5381,55.5671,0.0287,0.1167,-0.6396,180.875
15:13:05:551,-0.5602,2.0614,9.7463,56.0346,0.0855,0.1564,-0.587,180.875
15:13:05:566,-0.7469,2.1835,10.0576,56.6019,0.08,0.2333,-0.4911,180.1875
15:13:05:587,-0.8668,2.2744,10.1845,57.0756,0.0654,0.2822,-0.3848,180.1094
15:13:05:606,-1.2664,2.3844,10.8045,57.5607,0.0568,0.2578,-0.2834,179.4062
15:13:05:627,-1.2305,2.6073,11.8101,58.1237,0.1374,0.1613,-0.1326,179.3281
15:13:05:649,-0.8234,3.1268,11.9225,58.6798,0.3402,0.1087,0.0342,180.0469
15:13:05:721,-0.3377,3.7995,11.2546,59.0589,0.5253,0.1222,0.0507,180.125
15:13:05:721,-0.9601,3.5408,11.3073,59.4114,0.4801,0.1252,-0.0996,181.3594
15:13:05:722,-1.8458,2.7652,11.2929,59.7097,0.4539,0.1179,-0.2187,181.4844
15:13:05:725,-2.9734,2.4203,11.0919,60.0707,0.4435,0.1631,-0.2169,182.4844
15:13:05:746,-3.548,2.3868,10.1007,60.3769,0.4135,0.3097,-0.0788,182.5938
15:13:05:770,-3.6078,2.2265,9.2916,60.7744,0.3195,0.3696,0.0947,183.7031
15:13:05:785,-3.4618,1.992,9.4376,61.3213,0.215,0.1906,0.2346,183.8125
15:13:05:855,-3.3852,1.8027,10.0193,61.7815,0.2114,-0.0977,0.3476,185.0781
15:13:05:855,-3.1699,1.7213,10.2706,62.035,0.3256,-0.2895,0.4587,185.2031
15:13:05:856,-2.6551,1.8242,9.0879,62.2475,0.4288,-0.2682,0.565,186.3438
15:13:05:866,-2.0303,1.7357,8.0417,62.5039,0.3207,-0.2065,0.5864,187.0312
15:13:05:887,-1.5634,1.5491,8.5732,62.5861,0.0067,-0.2211,0.5223,187.0312
15:13:05:908,-1.2688,1.439,9.6362,62.8021,-0.2987,-0.1814,0.4306,187.1406
15:13:05:927,-1.0582,1.3262,9.3897,62.8798,-0.4129,0.0147,0.3647,187.1406
15:13:05:952,-0.7158,1.3645,8.4775,62.7835,-0.3732,0.2004,0.3573,187.0312
15:13:05:967,-0.0167,1.7501,7.6397,62.9878,-0.2547,0.2346,0.3641,187.0312
15:13:05:988,0.6392,2.1021,6.5097,63.1888,-0.1295,0.1454,0.2785,187.4375
15:13:06:007,0.5913,2.4227,6.7131,63.0461,-0.1326,-0.1014,0.0702,187.4375
15:13:06:027,0.3736,2.715,8.554,63.1166,-0.1698,-0.3714,-0.1845,187.7656
15:13:06:052,0.297,2.6097,8.8774,63.1699,0.0092,-0.4227,-0.4288,187.7656
15:13:06:070,0.2058,2.2337,8.6593,63.456,0.2437,-0.427,-0.6591,187.375
15:13:06:088,-0.1507,1.9175,8.6521,63.8404,0.3305,-0.43,-0.8381,187.375
15:13:06:106,-0.821,1.7094,8.9013,63.959,0.2822,-0.4154,-0.8717,186.6875
15:13:06:127,-1.276,1.5897,9.0042,64.1442,0.1662,-0.3647,-0.7159,186.625
15:13:06:153,-1.2688,1.5443,10.9409,64.647,-0.0195,-0.3561,-0.2718,185.625
15:13:06:168,-1.2832,1.695,11.5995,65.1889,0.0812,-0.2767,-0.1002,185.5156
15:13:06:190,-0.9458,1.7501,11.415,65.7396,0.237,-0.179,0.0415,184.6094
15:13:06:209,-0.8835,1.8745,10.8332,66.4408,0.3299,-0.1307,0.1435,184.5156
15:13:06:226,-0.8548,2.059,10.4767,66.595,0.3354,-0.1515,0.2382,183.7031
15:13:06:251,-0.5339,2.4562,10.3834,66.8457,0.2761,-0.2468,0.325,183.6094
15:13:06:269,0.2106,2.9064,10.3113,67.2348,0.1466,-0.3299,0.3586,182.875
15:13:06:286,1.3334,2.8992,11.2211,67.5311,-0.0764,-0.4911,0.2712,182.7969
15:13:06:308,2.2481,2.1787,12.5761,67.4399,-0.3073,-0.6145,0.0507,182.9688
15:13:06:326,2.5283,0.9577,13.826,67.5824,-0.4264,-0.576,-0.2211,182.9688
15:13:06:349,2.0542,0.189,14.1395,67.5683,-0.3586,-0.3445,-0.4044,184.2188
15:13:06:370,1.2808,0.1268,12.5282,67.6874,-0.1271,0.0489,-0.3848,186.4219
15:13:06:387,1.1755,0.6799,10.4336,67.8346,0.0941,0.237,-0.1888,186.4219
15:13:06:407,1.9415,1.5778,9.373,67.8044,0.1778,0.0727,-0.0287,187.9062
15:13:06:427,2.7245,2.2098,9.0377,67.8437,0.1118,-0.1252,-0.0898,187.9062
15:13:06:450,2.6216,2.2887,8.9827,67.873,-0.0696,-0.1643,-0.3683,188.4375
15:13:06:468,1.4797,2.0303,8.7506,68.0794,-0.2621,-0.0702,-0.6884,188.4375
15:13:06:487,0.1866,1.7453,8.2143,68.2638,-0.3219,0.0275,-0.8417,188.3438
15:13:06:506,-0.7134,1.7142,7.6636,68.6142,-0.2407,0.0263,-0.8075,188.3438
15:13:06:528,-1.0008,1.9848,7.3451,68.6446,-0.0977,-0.0538,-0.6707,187.8438
15:13:06:553,-0.6081,2.4203,7.2876,69.0086,0.0623,-0.1625,-0.4948,187.8438
15:13:06:569,0.2393,2.6599,7.5556,69.1493,0.1674,-0.2517,-0.3983,187.3281
15:13:06:590,0.5411,2.4538,7.7641,69.3806,0.1374,-0.2138,-0.4178,187.3281
15:13:06:607,0.3018,2.0997,7.9316,69.4485,-0.0892,0.0293,-0.3799,187.6719
15:13:06:626,0.0383,1.992,7.5604,69.4588,-0.4948,0.4416,-0.1588,187.7031
15:13:06:654,-0.2632,2.4227,8.1401,69.3193,-0.9438,0.6817,0.0788,188.5312
15:13:06:667,-0.2345,2.9183,9.4472,69.129,-1.2321,0.7544,0.11,188.6094
15:13:06:690,-0.6248,2.7724,12.9497,68.9219,-0.9004,0.5375,-0.449,188.7969
15:13:06:708,-0.6894,2.1835,14.027,68.6331,-0.3409,0.3549,-0.4557,188.8125
15:13:06:727,-0.5889,1.5347,13.5123,68.6196,0.2254,0.4319,-0.3213,189.3125
15:13:06:751,-0.699,1.7405,12.3464,68.4087,0.5999,0.5101,-0.1313,189.375
15:13:06:767,-1.3525,1.9753,10.9289,68.3286,0.766,0.4722,0.0751,190.875
15:13:06:785,-2.0231,2.0399,9.6386,68.1392,0.6872,0.3909,0.2333,191.0312
15:13:06:854,-2.059,2.5307,8.863,68.3729,0.3971,0.3164,0.3488,192.5
15:13:06:855,-1.8194,2.4467,10.127,68.3234,0.0195,0.0275,0.3305,192.6406
15:13:06:855,-1.7931,1.6472,12.521,68.1551,-0.2248,-0.2138,0.1338,193.625
15:13:06:866,-2.8035,0.6176,13.0454,68.091,-0.2187,-0.0415,-0.0928,194.6406
15:13:06:888,-4.5392,-0.1268,10.8715,68.0755,-0.0715,0.4526,-0.0971,194.6406
15:13:06:907,-5.3701,-0.4549,8.2525,68.0425,0.0574,0.6994,0.3225,194.4688
15:13:06:927,-5.0085,-0.297,8.0154,67.5842,0.1222,0.3952,1.0635,194.4688
15:13:06:952,-3.6607,0.3879,9.0473,67.4473,0.1087,0.0586,1.6946,194.1094
15:13:06:969,-1.8027,1.2592,9.0305,66.7266,-0.1069,0.2254,1.7257,194.1094
15:13:06:987,-1.0271,1.7381,8.741,65.9473,-0.3793,0.4282,1.4282,194.875
15:13:07:006,-0.5937,1.6711,8.6139,65.4056,-0.5815,0.4374,1.0904,194.875
15:13:07:027,-0.8163,1.4414,8.8199,64.4449,-0.7037,0.3146,0.7239,195.3438
15:13:07:047,-1.3693,1.3238,8.8032,63.4465,-0.678,0.1631,0.4465,195.3438
15:13:07:067,-1.5108,1.2808,8.3889,62.5505,-0.4917,0.0599,0.3164,195.0312
15:13:07:088,-1.3406,1.3358,7.7139,61.831,-0.2541,0.0263,0.284,195.0312
15:13:07:106,-1.4222,1.4749,6.725,60.7846,-0.0721,0.0476,0.292,194.3438
15:13:07:127,-1.5514,1.8529,6.4184,60.0095,-0.0128,-0.033,0.3402,194.2812
15:13:07:151,-1.4629,2.3773,6.9811,59.3747,-0.0134,-0.168,0.4197,194.2188
15:13:07:169,-1.6041,2.5307,7.1201,58.8449,0.0269,-0.1484,0.4838,194.2188
15:13:07:188,-1.7477,2.6097,6.8136,58.431,0.1081,-0.0898,0.5406,193.8281
15:13:07:208,-1.1515,2.7748,6.1098,58.0635,0.19,-0.0806,0.5907,193.7969
15:13:07:226,-0.28,2.2552,9.3347,57.6753,0.025,-0.4392,0.328,191.0156
15:13:07:248,-0.6942,1.884,11.7981,57.3187,-0.0226,-0.5522,0.1558,190.75
15:13:07:267,-0.754,1.5826,12.3751,57.1402,0.0739,-0.4655,0.1277,187.4375
15:13:07:287,-0.1484,1.5227,12.5665,56.9081,0.1875,-0.4282,0.1283,187.1094
15:13:07:307,0.079,1.6974,13.1004,56.6847,0.3152,-0.4306,0.0629,185.0312
15:13:07:326,-0.1651,1.7166,11.1302,56.2158,0.4001,-0.2462,-0.0134,184.8281
15:13:07:347,0.5506,2.8011,11.9225,56.1672,0.3971,-0.4044,-0.0647,183.9062
15:13:07:371,1.8362,2.849,11.8101,55.9225,0.5834,-0.54,-0.1252,183.125
15:13:07:387,2.1787,2.3246,10.9531,55.7277,0.4551,-0.4117,-0.317,183.125
15:13:07:407,2.825,1.5682,12.0494,55.7628,0.0373,-0.5168,-0.4832,182.3125
15:13:07:426,2.9112,0.3305,14.4221,55.7424,-0.3677,-0.6396,-0.7263,182.3125
15:13:07:446,1.9582,-0.7612,16.1315,55.7931,-0.5033,-0.5986,-0.9945,181.2344
15:13:07:468,1.2114,-1.1874,14.6806,56.0718,-0.2254,-0.2718,-0.9407,181.2344
15:13:07:487,1.4222,-0.7588,12.047,56.4221,0.2285,-0.0086,-0.5944,180.0781
15:13:07:506,2.0327,-0.0957,9.3371,56.5667,0.4978,0.1032,-0.3262,180.0781
15:13:07:527,2.2983,0.8692,8.0369,56.975,0.408,0.0806,-0.3201,179.6875
15:13:07:551,1.8218,1.3478,7.8479,57.0778,0.066,0.1081,-0.4752,179.6875
15:13:07:567,1.2162,1.4414,7.7426,57.382,-0.193,0.1991,-0.5999,179.5625
15:13:07:587,0.7516,1.3765,7.1273,57.5371,-0.223,0.2193,-0.7,179.5625
15:13:07:606,0.3784,1.5443,6.2198,57.9414,-0.1497,0.1497,-0.7904,179.6562
15:13:07:626,0.1388,2.1906,6.6915,58.3811,-0.1833,-0.0104,-0.8485,179.6562
15:13:07:648,0.3305,2.8083,8.3267,58.7119,-0.3109,-0.1032,-0.8949,180.0469
15:13:07:669,0.7804,3.1962,9.8614,59.0616,-0.3518,-0,-0.9957,180.0938
15:13:07:690,0.9314,2.971,10.5987,59.3729,-0.2724,0.2602,-1.2193,181.0625
15:13:07:708,-1.8697,0.9793,9.1358,59.8958,-0.1552,0.5742,-1.4612,181.1562
15:13:07:785,-1.841,1.2808,10.1773,60.0776,-0.1069,0.6304,-1.4007,183.0312
15:13:07:786,-1.3406,2.0782,11.5588,60.5146,-0.0837,0.4062,-1.0189,183.2188
15:13:07:786,-1.3214,2.8178,12.3344,60.9202,0.2016,0.201,-0.4942,184.7969
15:13:07:786,-1.5993,3.1172,11.6641,61.1623,0.4954,0.2486,-0.4624,184.9531
15:13:07:849,-1.427,3.1292,10.5006,61.6923,0.7324,0.1552,-0.4221,185.625
15:13:07:849,-1.1683,2.8466,10.0528,61.9415,0.8259,-0.0898,-0.3683,185.6875
15:13:07:860,-1.2138,2.406,10.0361,62.5803,0.8497,-0.3335,-0.2877,186.7031
15:13:07:866,-1.4222,2.4467,10.3977,63.2293,0.835,-0.4887,-0.1961,188.2188
15:13:07:888,-2.1523,2.4538,10.5556,63.7108,0.7984,-0.5571,-0.1374,188.2188
15:13:07:906,-2.9518,2.406,10.3807,64.3657,0.766,-0.4923,-0.0354,190.2656
15:13:07:926,-3.0069,2.4826,9.641,64.7141,0.7355,-0.3647,0.1185,190.2656
15:13:07:948,-2.6432,2.4179,8.6139,65.1823,0.5992,-0.1863,0.2309,192.625
15:13:07:970,-1.8266,2.0877,7.9484,65.5152,0.3421,-0.1191,0.2865,192.625
15:13:07:988,-1.8888,1.7333,8.7338,65.9805,0.0263,-0.2382,0.2676,195.5625
15:13:08:008,-2.4323,1.5467,10.1557,65.9947,-0.1735,-0.4319,0.273,195.5625
15:13:08:027,-2.5642,1.2784,10.716,66.1457,-0.1423,-0.4374,0.3708,197.3281
15:13:08:048,-2.461,1.2185,10.3208,66.3117,0.014,-0.2144,0.4997,197.3281
15:13:08:065,-1.7812,1.5562,9.3395,66.0886,0.157,0.0122,0.62,198.4062
15:13:08:087,-0.7756,1.9175,8.3124,66.0469,0.1655,0.0965,0.6744,198.4062
15:13:08:106,-0.0024,1.9152,7.9579,65.8131,0,0.0489,0.6157,199.4531
15:13:08:126,-0.1484,1.5227,8.1832,65.6641,-0.2822,-0.0287,0.4887,199.4531
15:13:08:147,-0.7014,1.3071,8.7051,65.3979,-0.5168,-0.0177,0.4655,200.25
15:13:08:169,-0.7158,1.4198,8.5205,65.1186,-0.562,0.1222,0.5797,200.3281
15:13:08:188,-0.0096,1.8003,8.0034,64.4729,-0.463,0.2529,0.697,200.8438
15:13:08:207,0.5195,2.2935,8.1063,64.0807,-0.3409,0.2504,0.6878,200.8906
15:13:08:228,0.0694,3.1077,9.4304,63.8361,-0.0544,0.1607,0.4673,200.7656
15:13:08:253,-0.2106,3.0141,8.8391,63.4567,0.1704,0.1955,0.3861,200.75
15:13:08:271,-0.419,2.9231,8.4272,63.2317,0.369,0.1356,0.3164,200.2969
15:13:08:288,-0.6775,3.05,8.5062,62.7241,0.4777,0.0776,0.2547,200.25
15:13:08:306,-0.9027,3.3039,8.8343,62.6086,0.4716,0.1466,0.2138,199.75
15:13:08:326,-1.1133,3.3924,8.8893,62.4329,0.3592,0.3018,0.1967,199.7031
15:13:08:347,-1.2449,3.3709,9.2797,62.3975,0.1533,0.361,0.1967,198.625
15:13:08:370,-0.917,3.2417,10.2706,62.4906,-0.0556,0.1594,0.2236,197.2188
15:13:08:388,0.1149,3.0885,11.3216,62.3526,-0.1576,-0.146,0.2504,197.2188
15:13:08:407,0.8402,2.9471,12.1286,62.248,-0.1949,-0.2132,0.182,195.9844
15:13:08:426,0.3664,2.7604,12.4014,62.1992,-0.2401,-0.0061,0.047,195.9844
15:13:08:448,0.2369,2.2792,11.6737,62.2637,-0.317,0.2608,-0.0012,194.4375
15:13:08:470,0.6344,1.5634,11.3336,62.1049,-0.4697,0.2413,0.0079,194.4375
15:13:08:487,1.1396,0.7038,12.143,61.8168,-0.6432,-0.149,0.0031,192.9219
15:13:08:507,1.3143,0.1005,13.5147,61.5967,-0.6689,-0.5803,0.0379,192.9219
15:13:08:526,1.2209,0.0526,13.3878,61.1861,-0.4581,-0.5437,0.1741,192.9062
15:13:08:549,1.6472,0.7229,11.5517,61.1609,-0.1148,-0.1002,0.3775,191.9219
15:13:08:571,2.2552,1.6496,9.7415,61.0058,0.1509,0.2309,0.4374,191.2969
15:13:08:588,2.8561,2.3605,8.6761,60.7578,0.2492,0.2248,0.3109,191.2969
15:13:08:607,3.2417,2.4658,8.2956,60.5819,0.1955,-0.0232,0.0391,190.7969
15:13:08:626,2.9686,2.016,8.2765,60.5837,0.0238,-0.2853,-0.2755,190.7969
15:13:08:647,2.2098,1.561,8.1999,60.7575,-0.171,-0.3628,-0.4893,190.2812
15:13:08:668,1.276,1.1348,8.1302,60.9916,-0.2737,-0.2242,-0.5956,190.2344
15:13:08:688,0.4262,1.1085,8.0991,61.2398,-0.2621,0.0244,-0.5986,189.8438
15:13:08:707,0.1555,1.5395,7.9196,61.4351,-0.1649,0.2584,-0.5027,189.8125
15:13:08:727,0.5985,2.2385,7.3546,61.6769,-0.044,0.3537,-0.4007,189.6719
15:13:08:748,0.6655,2.8561,7.5006,62.2264,0.0403,0.0996,-0.5834,189.6562
15:13:08:770,0.2946,2.3701,8.0058,62.6377,0.0134,-0.0525,-0.7397,189.5625
15:13:08:787,-0.1627,2.0423,8.6904,62.856,-0.0403,-0.16,-0.7752,189.5625
15:13:08:838,-0.3903,1.9848,9.4902,63.0862,-0.0849,-0.1942,-0.675,189.4688
15:13:08:839,-0.1938,2.3294,10.3232,63.4583,-0.0831,-0.1466,-0.4887,189.4688
15:13:08:846,-0.1747,2.7293,10.9289,63.7059,-0.033,0.047,-0.3494,188.6406
15:13:08:871,-0.3832,3.1077,11.281,63.924,0.0794,0.1796,-0.2792,188.1875
15:13:08:888,-0.3138,3.3852,11.3886,64.4832,0.2199,0.1704,-0.2169,188.1875
15:13:08:908,-0.067,3.6317,11.3145,64.6029,0.3195,0.1264,-0.1423,189.0938
15:13:08:926,0.3497,3.9407,11.324,64.8071,0.3671,0.1179,-0.0843,189.0938
15:13:08:947,0.3688,4.2039,11.4317,65.123,0.3897,0.1527,-0.1148,190.4062
15:13:08:970,-0.0287,4.1895,11.2283,65.4282,0.405,0.2272,-0.2266,190.4062
15:13:08:987,-1.0343,3.9359,10.759,65.6273,0.3635,0.2926,-0.3616,191.2031
15:13:09:008,-1.841,3.5001,10.2993,66.1481,0.226,0.3128,-0.4282,191.2812
15:13:09:026,-2.0064,2.8442,10.1964,66.4917,0.0244,0.1955,-0.4038,191.2969
15:13:09:047,-1.6328,2.0686,10.7183,66.5713,-0.1454,-0.1283,-0.3372,192.3438
15:13:09:072,-1.3502,1.2018,11.7742,66.9235,-0.1533,-0.5882,-0.2755,194.0469
15:13:09:087,-1.6137,0.8091,12.612,67.1453,0.0348,-0.8039,-0.226,194.0469
15:13:09:107,-1.9558,0.8883,11.7024,67.4692,0.336,-0.4624,-0.1161,195.375
15:13:09:126,-1.8434,1.1898,9.5046,67.4857,0.5412,0.1521,0.0232,195.375
15:13:09:148,-1.5873,1.6184,7.946,67.6872,0.5046,0.4514,0.1063,196.0469
15:13:09:170,-1.1731,2.016,7.4312,67.738,0.2596,0.3916,0.1429,196.0469
15:13:09:187,-0.7899,2.0518,7.4671,67.7598,-0.0794,0.2217,0.1283,196.4062
15:13:09:207,-0.4813,1.6089,7.8359,67.8234,-0.361,0.0171,0.0745,196.4375
15:13:09:226,-0.5148,1.13,8.5564,67.6545,-0.4881,-0.1368,0.0202,196.6562
15:13:09:250,-0.7732,0.9864,9.0712,67.6614,-0.4355,-0.146,0.0336,196.6719
15:13:09:270,-0.4813,1.951,8.4057,67.3949,-0.0593,0.2162,0.2236,197.2344
15:13:09:289,-0.5028,2.5017,8.0249,67.5153,0.0928,0.3195,0.2486,197.2812
15:13:09:305,-0.5363,2.9662,7.6708,67.1828,0.2272,0.2608,0.2456,198.0469
15:13:09:325,-0.4669,3.3709,7.4599,66.9715,0.3433,0.1698,0.2071,198.125
15:13:09:346,-0.5554,3.778,7.3307,66.6982,0.3867,0.1845,0.1234,198.8438
15:13:09:371,-0.9505,4.0149,7.369,66.4247,0.3207,0.2657,0.033,199.5
15:13:09:389,-1.3071,4.0101,7.6134,66.3096,0.1802,0.2492,-0.0269,199.5
15:13:09:406,-1.6496,3.8258,8.42,66.1056,0.0122,0.0874,-0.0788,199.4219
15:13:09:427,-1.9199,3.4762,9.8133,65.8414,-0.1093,-0.1655,-0.1075,199.4219
15:13:09:447,-1.6376,3.0284,11.0943,65.7812,-0.1319,-0.4032,-0.0825,199
15:13:09:471,-0.8354,2.703,11.9584,65.84,-0.088,-0.4679,-0.0202,199
15:13:09:488,-0.1986,2.6743,12.2028,65.6091,-0.0318,-0.325,0.0354,198.8438
15:13:09:507,-0.0837,2.7389,11.5421,65.4001,-0.0037,-0.0446,0.0623,198.8281
15:13:09:528,-0.268,2.6982,11.0393,65.2873,-0.0324,0.0324,0.0458,198.8281
15:13:09:548,0.0598,2.7413,11.0536,65.1507,-0.1124,-0.1588,0.0635,198.6094
15:13:09:570,1.0223,2.6049,11.1805,64.9843,-0.2272,-0.358,0.1179,198
15:13:09:587,1.9777,2.1428,11.3647,64.7872,-0.3598,-0.4911,0.1075,198
15:13:09:607,2.8202,1.3693,11.7191,64.1376,-0.4459,-0.595,0.022,197.4688
15:13:09:627,2.7963,0.7875,12.4804,63.8402,-0.4453,-0.6548,-0.0947,197.4688
15:13:09:649,2.6575,0.7899,12.3177,63.4635,-0.2895,-0.496,-0.1014,197.2812
15:13:09:670,3.0885,1.3789,10.7782,63.2576,-0.0312,-0.1148,-0.0391,197.2812
15:13:09:689,3.8928,1.992,8.8582,62.909,0.1289,0.234,-0.1106,197.3438
15:13:09:707,3.8258,2.3749,7.8191,62.5138,0.0495,0.3378,-0.3854,197.3438
15:13:09:727,2.5666,1.9247,8.123,62.1075,-0.2126,0.1093,-0.7562,197.6094
15:13:09:749,0.0933,0.8043,8.9157,62.1255,-0.5785,-0.3555,-0.9157,197.6406
15:13:09:772,-0.3066,0.9769,8.2669,62.2199,-0.5339,-0.058,-0.7581,197.7656
15:13:09:850,-0.2512,1.6208,7.733,61.9856,-0.4166,0.2853,-0.6451,197.7656
15:13:09:934,-0.3401,2.2457,7.7521,61.9278,-0.2963,0.4129,-0.6377,197.6562
15:13:09:934,-0.3592,2.5427,7.9388,61.9027,-0.1497,0.2572,-0.6707,197.6562
15:13:09:934,-0.297,2.4108,8.1497,61.9267,-0.0031,0.0299,-0.7165,197.5469
15:13:09:935,-0.3855,2.1858,8.2238,61.9214,0.0751,0.0116,-0.752,197.5312
15:13:09:935,-1.0175,2.0782,7.9747,62.1332,0.069,0.1698,-0.7251,197.5312
15:13:09:935,-1.2449,2.059,7.8263,61.9009,0.0208,0.259,-0.6066,197.5312
15:13:09:936,-1.0869,2.3007,8.3219,61.9801,-0.0733,0.2401,-0.4624,197.8594
15:13:09:949,-0.9912,2.4634,9.1454,61.9383,-0.2071,0.2126,-0.3482,198.0469
15:13:09:970,-1.0271,2.5379,9.8037,61.8747,-0.3292,0.168,-0.2382,198.0469
15:13:09:988,-1.0845,2.5929,11.1015,61.7348,-0.3946,0.091,-0.1338,198.0469
15:13:10:007,-0.8501,2.5786,12.1406,61.2036,-0.3183,0.0128,-0.0202,199.2031
15:13:10:028,-0.2489,2.5161,11.9608,60.618,-0.1686,0.0843,0.088,199.2188
15:13:10:047,-0.1484,2.7532,12.2985,60.0045,-0.0819,0.1368,0.1271,201.2969
15:13:10:065,-0.5243,3.28,11.8555,59.5368,-0.0098,0.1906,0.1216,202.75
15:13:10:087,-1.5299,3.548,12.0039,58.9472,-0.0373,0.0904,0.0696,202.75
15:13:10:106,-2.0542,3.2776,12.0278,58.3881,-0.0941,0.1399,0.022,204.0469
15:13:10:141,-2.2409,2.2648,11.8149,57.973,-0.0232,0.1674,-0.1112,204.0469
15:13:10:146,-2.0973,1.3382,12.1908,57.4604,0.1619,-0.1191,-0.2107,205.6562
15:13:10:179,-1.5921,0.8883,12.3272,57.1173,0.4087,-0.3659,-0.1643,205.6562
15:13:10:189,-1.4653,1.0702,11.7383,57.0092,0.5803,-0.2706,-0.0434,206.9531
15:13:10:219,-1.3262,1.6089,10.558,56.6908,0.6218,0.0281,0.0531,207.0781
15:13:10:226,-1.0822,1.6567,9.2773,56.6532,0.5192,0.2144,0.0348,207.8125
15:13:10:247,-1.2066,1.3119,8.9994,56.2996,0.2883,0.1381,-0.091,207.8906
15:13:10:266,-1.1348,1.0582,9.3491,56.0676,0.0562,-0.0324,-0.1662,208.1562
15:13:10:290,-0.5865,0.6703,8.2693,55.5873,-0.1289,0.1979,-0.1289,208.1875
15:13:10:307,-0.3281,0.9027,7.3187,55.2145,-0.1124,0.3189,-0.1045,208.0625
15:13:10:325,-0.352,1.0415,7.1489,55.0505,-0.0702,0.2376,-0.1417,208.0469
15:13:10:346,-0.6368,0.9218,7.3857,54.781,-0.0086,0.0562,-0.2132,207.75
15:13:10:366,-0.8501,0.6631,7.5317,54.57,0.069,-0.0702,-0.2285,207.5938
15:13:10:390,-1.1252,0.6942,7.8048,54.1737,0.1435,-0.0825,-0.179,207.5938
15:13:10:406,-1.6137,1.1635,8.0034,53.7748,0.2248,0.0037,-0.0751,207.9062
15:13:10:427,-1.6376,1.8745,7.5604,53.5282,0.3237,0.1344,0.0672,207.9062
15:13:10:446,-1.5491,2.5307,6.9691,53.2185,0.3818,0.2492,0.1545,207.9375
15:13:10:465,-1.4988,2.9303,6.6915,52.9694,0.317,0.3433,0.1423,208.375
15:13:10:490,-1.8577,3.1484,6.9906,52.5826,0.1295,0.3317,0.0886,208.375
15:13:10:506,-1.9848,3.2106,7.9675,52.1047,-0.1063,0.1778,0.0562,208.375
15:13:10:526,-1.3908,3.1412,9.7989,51.7587,-0.3183,-0.0715,0.0379,208.375
15:13:10:547,-0.3497,2.7245,11.6378,51.342,-0.4459,-0.2749,-0.014,208.6875
15:13:10:572,0.51,2.3773,12.8994,50.9874,-0.4594,-0.2767,-0.1173,208.9531
15:13:10:588,0.5171,1.9558,13.0956,50.2805,-0.3677,-0.1307,-0.2584,208.9531
15:13:10:607,0.1196,1.3932,13.0765,49.7389,-0.2309,-0.1051,-0.3714,209.125
15:13:10:627,0.2201,1.4797,13.3185,49.2024,-0.1167,-0.2095,-0.3329,209.125
15:13:10:647,1.5778,1.7836,12.4445,48.6229,-0.0153,-0.1093,-0.2089,209.6094
15:13:10:671,2.4945,1.7213,11.214,48.2313,-0.0043,0.0794,-0.2847,209.6094
15:13:10:686,2.0973,1.1994,11.5035,47.5581,-0.1038,-0.0275,-0.5473,209.9531
15:13:10:706,1.6352,0.9003,12.5019,46.7799,-0.1747,-0.3237,-0.6756,209.9531
15:13:10:727,1.8673,1.0654,12.3847,46.3481,-0.1045,-0.4343,-0.6084,209.7812
15:13:10:748,2.3414,1.4964,11.0321,45.9378,0.0593,-0.3421,-0.5534,209.75
15:13:10:776,2.3103,1.8482,9.3562,45.7528,0.1124,-0.1497,-0.6591,209.4844
15:13:10:788,1.2138,1.4462,9.3467,45.6406,-0.3983,-0.4502,-0.9902,209.4531
15:13:10:859,0.8501,0.7325,10.1055,45.3847,-0.6108,-0.6108,-1.0452,209.2969
15:13:10:860,0.2608,0.2752,10.0624,45.0871,-0.5858,-0.4679,-1.0311,209.2656
15:13:10:860,-0.1986,0.256,9.3969,45.1157,-0.3415,-0.226,-0.9548,209.3594
15:13:10:867,-0.7612,0.5243,8.5493,45.1207,-0.0067,-0.0342,-0.89,209.375
15:13:10:890,-1.0128,0.8931,7.8144,45.0327,0.3146,0.0183,-0.8106,209.9531
15:13:10:907,-0.7588,1.3836,7.4456,45.0689,0.5565,-0.011,-0.6988,210.0156
15:13:10:925,-0.6344,1.908,7.168,44.8481,0.6774,0.0794,-0.6237,210.5781
15:13:10:946,-0.9266,2.2552,6.6006,44.7837,0.6646,0.3103,-0.6194,210.6406
15:13:10:966,-1.4581,2.5184,6.1313,45.0959,0.5168,0.4612,-0.6292,211.4531
15:13:10:986,-1.963,2.5786,6.4953,45.2419,0.2755,0.4111,-0.5986,211.5312
15:13:11:006,-2.1835,2.5522,7.8383,45.3698,0.0275,0.171,-0.5125,213
15:13:11:027,-2.2146,2.5041,9.7152,45.5355,-0.1387,0.0006,-0.3903,213.0156
15:13:11:047,-1.7022,2.3653,10.9484,45.6777,-0.1643,0.036,-0.2688,214.4219
15:13:11:065,-1.1803,2.2241,11.6737,45.9045,-0.1155,0.1344,-0.1961,216.4688
15:13:11:088,-1.1994,2.3031,12.629,45.9793,-0.0684,0.1527,-0.1442,216.4688
15:13:11:107,-1.264,2.6001,13.5434,45.9432,0.0116,0.1032,-0.0421,218.7188
15:13:11:127,-0.9625,2.9303,13.7157,45.6629,0.1668,0.1112,0.0757,218.7188
15:13:11:146,-1.1563,3.201,12.8994,45.543,0.3592,0.2181,0.102,220.7344
15:13:11:171,-1.6639,3.2154,11.0082,45.6129,0.4728,0.4044,0.0458,220.7344
15:13:11:187,-2.0447,2.7269,9.6123,45.734,0.4025,0.3219,-0.069,222.5156
15:13:11:207,-1.9753,1.5132,9.926,45.6389,0.1668,-0.0922,-0.212,222.5156
15:13:11:227,-1.7859,0.3329,11.5851,45.4225,-0.0757,-0.4374,-0.2529,223.875
15:13:11:247,-1.6926,-0.1986,12.4253,45.5193,-0.1509,-0.4032,-0.157,224.0156
15:13:11:272,-1.3406,-0.2728,11.8077,45.4415,-0.0568,-0.1509,-0.0171,225.2656
15:13:11:289,-1.0845,-0.0287,10.5867,45.4526,0.0434,0.0904,0.0599,225.3906
15:13:11:307,-1.1468,0.4047,9.4735,45.6814,-0.1839,0.347,0.0739,226.2656
15:13:11:327,-1.0439,0.9147,8.4607,45.3247,-0.4215,0.3396,0.1307,226.3438
15:13:11:347,-0.5554,0.984,8.31,45.2965,-0.5565,0.3299,0.2223,226.7656
15:13:11:368,-0.2752,1.2353,8.068,45.323,-0.5217,0.3268,0.2822,226.9688
15:13:11:385,-0.3233,1.5682,8.1039,45.43,-0.3415,0.2199,0.2627,226.9688
15:13:11:406,-0.6464,1.896,8.4296,45.415,-0.0513,0.0409,0.2089,226.9844
15:13:11:426,-0.8186,2.1165,8.1544,45.6194,0.2859,0.0226,0.1912,226.8438
15:13:11:446,-0.8931,2.3581,7.3642,45.6033,0.5516,0.1423,0.1961,226.8438
15:13:11:466,-1.1228,2.8346,6.7729,45.5357,0.6341,0.2046,0.1649,226.9062
15:13:11:486,-1.0199,3.2824,6.993,45.8,0.5394,0.0941,0.0953,226.9219
15:13:11:506,-1.13,3.4092,7.4958,45.899,0.3622,-0.0055,-0.0324,227.5
15:13:11:526,-1.7333,2.9064,7.9531,46.2368,0.1942,-0.033,-0.2205,227.5
15:13:11:546,-1.9175,2.3557,8.8582,46.4718,0.1106,-0.1558,-0.3201,227.7188
15:13:11:568,-1.4533,2.2887,9.9404,46.6861,0.1118,-0.2566,-0.3128,227.5625
15:13:11:586,-0.984,2.3533,10.989,46.6656,0.1191,-0.2639,-0.3329,227.5625
15:13:11:606,-0.364,1.9415,11.7024,46.6876,0.1045,-0.2443,-0.3977,227.1719
15:13:11:625,0.2106,1.4629,12.2818,46.7324,0.099,-0.2517,-0.4673,227.1719
15:13:11:646,-0.1819,1.3789,12.4612,46.7219,0.124,-0.1704,-0.5253,226.3594
15:13:11:667,-0.8548,1.6902,12.0879,46.8568,0.1631,-0.044,-0.5168,226.3594
15:13:11:686,0.0311,1.8051,10.8308,46.6819,0.1637,0.0421,-0.419,225.75
15:13:11:706,1.5156,1.4581,9.8542,46.7553,-0.0574,-0.0104,-0.4875,225.75
15:13:11:726,0.9505,0.3018,11.1565,46.7943,-0.5638,-0.2993,-0.8039,225.4688
15:13:11:746,-0.213,-0.5961,13.6582,46.7738,-1,-0.5754,-0.8796,225.4531
15:13:11:767,-0.3688,-0.8692,14.5322,46.7846,-0.9945,-0.5192,-0.5339,225.3438
15:13:11:786,0.3832,-0.0144,13.2443,46.6407,-0.5766,-0.2431,-0.0678,225.3281
15:13:11:840,1.628,1.0798,10.9699,46.6059,-0.0971,0.0476,0.1918,225.6719
15:13:11:841,2.0255,1.64,7.3092,46.2818,0,0.3335,0.1503,225.7031
15:13:11:846,1.64,1.2042,9.0999,46.273,-1.0488,-0.1888,-0.3292,226.4219
15:13:11:890,1.3406,0.8764,10.5245,45.8718,-1.2021,-0.3457,-0.4532,227.3125
15:13:11:890,0.5148,0.996,10.4551,45.6174,-0.8222,-0.2492,-0.5992,227.3125
15:13:11:910,-0.3616,1.2281,9.3491,45.4505,-0.1613,-0.0825,-0.7428,227.3906
15:13:11:925,-0.9242,1.5203,8.1377,45.2953,0.482,0.0397,-0.832,228.4688
15:13:11:945,-1.063,1.9152,7.2781,45.3902,0.9065,0.0299,-0.9083,228.5781
15:13:11:965,-1.2808,2.138,6.9476,45.3948,1.0256,-0.1124,-0.9767,229.5625
15:13:11:986,-1.5084,1.9968,7.089,45.42,0.8686,-0.2566,-0.9774,229.6562
15:13:12:006,-1.5945,1.7189,8.0249,45.3943,0.5308,-0.383,-0.8943,231.0156
15:13:12:026,-1.6089,1.3956,9.3299,45.6598,0.1924,-0.3848,-0.7489,231.0312
15:13:12:046,-1.5299,1.1061,10.1677,45.6773,-0.0055,-0.2144,-0.5638,232.3594
15:13:12:065,-1.5562,1.0056,11.2499,45.8625,-0.0452,-0.1216,-0.3922,232.1562
15:13:12:086,-1.6113,1.0367,12.4899,46.4268,0.0825,-0.1448,-0.2382,232.1562
15:13:12:105,-1.0798,1.0367,13.0382,46.7511,0.3506,-0.0812,-0.0702,232
15:13:12:126,-0.2946,1.2066,12.4756,46.9878,0.6389,0.1778,0.0764,232
15:13:12:155,0.1316,1.7716,11.2283,47.2904,0.8033,0.4954,0.1558,232.5312
15:13:12:166,-0.0598,2.5666,10.57,47.6374,0.788,0.5846,0.1509,232.5312
15:13:12:185,-0.6368,3.0811,9.9523,48.175,0.6286,0.5534,0.0666,233.875
15:13:12:207,-0.9625,2.7054,9.0497,48.861,0.358,0.4972,-0.0654,233.875
15:13:12:226,-1.0295,1.4725,9.318,49.2339,-0.0147,0.1747,-0.2211,235.9844
15:13:12:247,-1.0056,0.1819,11.214,49.1551,-0.3384,-0.3842,-0.2944,235.9844
15:13:12:269,-1.4629,-0.285,13.1172,49.1914,-0.4062,-0.6793,-0.2187,238.2344
15:13:12:286,-1.6376,0.0574,12.9257,49.3311,-0.168,-0.4807,0.0525,238.4531
15:13:12:306,-0.8501,0.8453,10.6777,49.372,0.212,-0.1301,0.35,240.25
15:13:12:327,0.5698,1.6926,8.135,49.497,0.4337,-0.2932,0.2871,240.4219
15:13:12:347,1.1324,2.0207,8.4918,49.0406,0.1808,-0.3402,0.1545,241.4062
15:13:12:371,0.8979,1.9992,8.3985,48.9047,-0.1686,-0.0476,0.0244,241.5
15:13:12:386,0.122,1.7907,7.8814,48.7825,-0.4471,0.2712,-0.0733,241.8906
15:13:12:405,-0.7445,1.7261,7.6875,48.7997,-0.5534,0.3341,-0.1148,241.9219
15:13:12:426,-0.9936,1.9032,8.0752,48.7829,-0.4655,0.1032,-0.1032,241.8438
15:13:12:446,-0.5626,2.0997,8.6378,48.7315,-0.2309,-0.146,-0.0947,241.8281
15:13:12:467,-0.4047,2.1093,8.741,48.5021,0.0257,-0.1222,-0.1576,241.7344
15:13:12:493,-0.6751,2.1452,8.578,48.2201,0.2052,0.011,-0.234,241.7188
15:13:12:507,-1.0247,2.2385,8.1377,48.3298,0.2908,0.077,-0.248,242
15:13:12:527,-1.0558,2.2265,7.6804,48.3287,0.2871,0.0489,-0.2352,242.0312
15:13:12:547,-0.862,2.2337,8.0919,48.1938,0.2144,-0.0825,-0.2272,242.5625
15:13:12:566,-0.7205,2.339,8.9922,48.3727,0.1271,-0.1417,-0.2211,242.1875
15:13:12:587,-0.7899,2.4634,9.7271,48.5057,0.0702,-0.069,-0.2248,242.1875
15:13:12:606,-1.0247,2.5331,10.3184,48.5396,0.0678,-0.0208,-0.2498,241.6094
15:13:12:626,-1.1157,2.5618,10.8284,48.7981,0.1393,-0.0941,-0.2706,241.6094
15:13:12:647,-0.5435,2.327,11.281,48.8003,0.2511,-0.2272,-0.273,241.4531
15:13:12:665,0.0502,2.2792,11.9417,48.8521,0.339,-0.3512,-0.2932,241.4531
15:13:12:686,0.1651,2.4084,12.5904,48.7598,0.3958,-0.4062,-0.336,241.4531
15:13:12:706,-0.0742,2.6384,12.2507,48.8319,0.4056,-0.2297,-0.3506,241.4531
15:13:12:727,0.1029,2.6216,10.6705,48.7187,0.3128,0.0672,-0.3299,241.5625
15:13:12:746,0.419,2.0949,9.4998,48.6988,0.036,0.1161,-0.3696,241.5625
15:13:12:769,0.6464,0.8931,10.5532,48.5943,-0.369,-0.201,-0.4783,241.9844
15:13:12:787,0.5722,0.0455,12.7869,48.5704,-0.6756,-0.4563,-0.4813,242.0312
15:13:12:841,0.3257,-0.0861,13.8523,48.414,-0.6481,-0.2847,-0.2889,242.5938
15:13:12:842,0.7062,0.553,12.478,48.1404,-0.2828,0.1521,0.036,242.6406
15:13:12:852,1.3621,1.4581,9.9954,48.0632,0.4172,0.576,0.2034,243.1562
15:13:12:871,2.327,2.6695,6.725,48.2091,0.3842,0.2462,-0.0299,243.2031
15:13:12:888,2.2457,2.3486,6.926,48.1248,0.1417,-0.182,-0.3311,243.7188
15:13:12:906,1.3645,1.8099,8.2549,47.8261,-0.135,-0.5253,-0.565,243.7656
15:13:12:925,0.2106,1.6783,9.5836,47.8673,-0.248,-0.6713,-0.6408,244.3906
15:13:12:945,-0.4549,1.7477,10.0026,47.5284,-0.1405,-0.5418,-0.5711,244.4531
15:13:12:965,-0.3497,2.0136,9.2629,47.4027,0.0611,-0.2248,-0.4148,245.2344
15:13:12:988,0.3281,2.4203,8.1111,47.3157,0.1863,0.0489,-0.2822,245.3125
15:13:13:006,0.7516,2.8777,7.9077,46.9876,0.1613,0.0886,-0.2767,246.0938
15:13:13:026,0.5578,3.0212,8.231,46.6989,0.0519,0.044,-0.3763,246.1875
15:13:13:046,-0.055,2.7221,8.4153,46.6063,-0.0397,0.0696,-0.4875,247.0781
15:13:13:065,-0.6392,2.2792,8.4679,46.4164,-0.0556,0.0794,-0.5162,247.8125
15:13:13:090,-0.577,2.2816,8.6091,46.2368,0.0104,0.0678,-0.4355,247.8125
15:13:13:106,-0.3784,2.6408,8.8822,46.3709,0.0874,0.1093,-0.3616,247.4531
15:13:13:126,-0.3353,2.9183,9.1956,46.5912,0.1203,0.1374,-0.3256,247.4531
15:13:13:147,-0.1077,3.0933,9.8782,46.5289,0.1283,0.0312,-0.2957,247.2969
15:13:13:166,0.0144,3.1699,10.5485,46.3085,0.1466,-0.0434,-0.2883,247.2969
15:13:13:191,-0.0359,3.2489,10.7638,46.3833,0.1741,0.0476,-0.2895,248.3281
15:13:13:207,-0.3281,3.4451,11.1135,46.3517,0.1631,0.0849,-0.2944,248.3281
15:13:13:226,-0.3712,3.7181,12.0855,46.3984,0.1161,-0.0562,-0.2871,249.7188
15:13:13:248,-0.3473,4.0005,13.2419,46.2962,0.1057,-0.1747,-0.3085,249.7188
15:13:13:267,-0.443,3.9981,12.7582,46.2716,0.1564,0,-0.3952,250.4688
15:13:13:289,-0.4669,3.122,11.1422,46.2049,0.1588,0.1698,-0.5644,250.5469
15:13:13:308,-0.4884,1.4677,10.8069,46.1858,-0,-0.1032,-0.799,251.2031
15:13:13:326,-1.2329,-0.1029,12.5139,46.3422,-0.2187,-0.5467,-0.9798,251.2812
15:13:13:349,-3.1866,-1.1228,12.0589,46.0949,0.0904,0.0385,-0.5046,252.2656
15:13:13:373,-2.9614,-0.4047,9.2605,45.9642,0.4679,0.6841,-0.0318,252.3594
15:13:13:387,-2.7389,0.6296,6.9978,45.892,0.6512,0.9096,0.2517,253.1562
15:13:13:408,-2.3988,1.6878,5.959,45.9069,0.5834,0.6988,0.3916,253.2344
15:13:13:426,-1.8003,2.3414,6.0428,45.7741,0.3134,0.336,0.4343,253.8906
15:13:13:447,-1.1276,2.4969,6.6485,45.8302,-0.0538,0.1057,0.3799,253.9531
15:13:13:465,-0.7277,2.2552,7.2924,46.0882,-0.3885,0.0599,0.2651,254.5625
15:13:13:487,-0.6799,1.9032,7.8407,46.1213,-0.5895,0.0611,0.1619,254.625
15:13:13:508,-1.0056,1.8314,8.8678,46.1228,-0.6334,-0.0513,0.0904,255.25
15:13:13:527,-1.0702,1.8625,9.9523,45.8749,-0.485,-0.2114,0.0709,255.3125
15:13:13:548,-1.0917,1.8147,9.8423,45.6778,-0.1997,-0.1063,0.0721,256.1406
15:13:13:566,-1.3286,1.9343,8.8391,45.4522,0.0739,0.1069,0.066,257.6562
15:13:13:588,-1.3956,2.1858,8.2095,45.3314,0.237,0.1289,0.0904,257.6562
15:13:13:606,-1.3382,2.5041,8.2286,44.9808,0.2688,0.0269,0.1344,259.75
15:13:13:627,-1.0415,2.8131,8.4512,44.7299,0.2358,-0.0122,0.179,259.75
15:13:13:647,-0.8812,3.1125,8.6378,44.5877,0.2052,0.025,0.1875,260.3906
15:13:13:665,-0.8453,3.3637,8.997,44.6401,0.2071,0.0031,0.1533,260.3906
15:13:13:692,-0.6488,3.4427,9.2653,44.6936,0.2395,-0.0745,0.0843,259.75
15:13:13:707,-0.3999,3.2919,9.3945,44.7015,0.2712,-0.1564,-0.0116,259.75
15:13:13:728,-0.0742,2.9973,9.6912,44.636,0.2663,-0.2559,-0.1026,258.8438
15:13:13:748,0.1507,2.8729,10.1629,44.4718,0.1955,-0.3506,-0.1668,258.8438
15:13:13:767,0.1627,2.8872,10.8188,44.5037,0.0599,-0.4074,-0.2083,258.2031
15:13:13:790,0.0359,2.9997,11.3743,44.2433,-0.0965,-0.3995,-0.2333,258.2031
15:13:13:860,0.079,3.0236,11.3073,44.1064,-0.2419,-0.2987,-0.2566,257.8906
15:13:13:861,0.5506,2.5475,11.3504,43.8943,-0.4117,-0.3024,-0.3158,257.8594
15:13:13:861,1.319,-0.0215,13.2897,43.6218,-0.7855,-0.6096,-0.4777,257.7031
15:13:13:869,1.1061,-0.4478,14.5274,43.3345,-0.7141,-0.5479,-0.3885,257.6875
15:13:13:889,1.209,0.1149,13.5649,42.8701,-0.3256,-0.1008,-0.1277,257.5312
15:13:13:973,1.2042,0.9793,11.1015,42.5743,0.157,0.3903,0.088,257.5156
15:13:13:974,1.3741,1.9391,8.8152,42.1844,0.4734,0.4532,0.1429,257.2031
15:13:13:974,2.0495,2.5232,7.5221,41.9378,0.5186,0.1594,0.0073,257.1719
15:13:13:974,2.4132,2.4108,7.0026,41.7275,0.2938,-0.0764,-0.2999,257.0156
15:13:13:995,1.9008,1.8266,7.0914,41.5806,-0.1069,-0.1307,-0.6194,257
15:13:14:007,0.6727,1.5084,7.8909,41.6343,-0.5058,-0.1454,-0.7868,257.2188
15:13:14:026,-0.3664,1.3836,9.2124,41.6287,-0.6939,-0.2333,-0.7898,257.25
15:13:14:047,-0.6966,1.4151,10.06,42.0046,-0.5638,-0.2761,-0.6878,257.7188
15:13:14:065,-0.4334,1.6352,9.7965,42.2528,-0.2022,-0.1423,-0.5638,258.3281
15:13:14:091,-0.0239,2.059,8.808,42.3522,0.1723,0.0874,-0.5009,258.3281
15:13:14:107,0.1196,2.4395,7.9292,42.5453,0.3793,0.2199,-0.5174,259.0469
15:13:14:126,-0.4095,2.6838,7.6062,42.705,0.3726,0.1894,-0.5632,259.0469
15:13:14:147,-0.7277,2.6886,8.0465,42.7781,0.2559,0.0043,-0.5577,259.875
15:13:14:166,-0.7134,2.5137,8.6976,42.9526,0.1539,-0.0947,-0.5156,259.875
15:13:14:189,-0.8453,2.3844,9.4113,43.2854,0.0861,-0.0678,-0.4844,259.8906
15:13:14:208,-0.9051,2.272,10.1151,43.3802,0.0421,-0.0086,-0.4178,259.8906
15:13:14:227,-0.7899,2.2385,10.5628,43.4939,0.0299,0.0696,-0.2981,259.8281
15:13:14:248,-0.5124,2.272,11.1422,43.7888,0.066,0.0672,-0.1741,259.8281
15:13:14:267,0.0048,2.339,11.6426,43.9072,0.16,0.0318,-0.0855,260.875
15:13:14:289,0.1244,2.6121,11.7383,44.2836,0.2492,0.1038,-0.066,260.875
15:13:14:307,-0.4501,3.2082,11.4317,44.498,0.2798,0.2449,-0.0916,262.3125
15:13:14:326,-1.1492,3.5934,10.7806,44.678,0.2627,0.3335,-0.1197,262.4688
15:13:14:349,-1.6161,3.4618,9.4328,44.8736,-0.0684,0.2388,-0.2242,263.6406
15:13:14:373,-1.1515,2.2217,10.1462,45.0467,-0.3842,-0.2052,-0.3671,263.7656
15:13:14:390,-1.1755,0.5459,12.1669,45.0924,-0.5968,-0.7013,-0.5351,264.8438
15:13:14:409,-2.3222,-0.2946,14.2376,45.1231,-0.5119,-0.8448,-0.5974,264.9531
15:13:14:425,-3.457,-0.5315,13.5458,45.092,-0.0843,-0.3867,-0.3885,266.1406
15:13:14:446,-3.4211,-0.2225,10.7423,44.6571,0.4514,0.2553,0.0244,266.2656
15:13:14:465,-3.122,0.7421,8.4631,44.4018,0.7648,0.5119,0.3335,267.2969
15:13:14:486,-2.7891,1.6926,7.3881,44.2796,0.7416,0.4306,0.4606,267.4062
15:13:14:507,-2.1835,1.8625,6.8255,44.1462,0.4349,0.3836,0.4795,268.125
15:13:14:526,-1.5562,1.6017,6.8231,43.9692,-0.0336,0.3842,0.4471,268.2031
15:13:14:546,-1.398,1.3932,7.8144,44.0785,-0.4532,0.3237,0.4142,268.4844
15:13:14:565,-1.2808,1.3836,8.7912,44.1177,-0.6047,0.2767,0.4111,268.75
15:13:14:593,-1.4079,1.5634,9.0162,43.9806,-0.4887,0.2908,0.3897,268.75
15:13:14:608,-1.6161,1.7644,8.5804,44.2201,-0.2346,0.284,0.358,269.0781
15:13:14:626,-1.5491,1.8601,8.3172,44.0827,0.0415,0.1472,0.3189,269.0781
15:13:14:647,-1.5227,1.8386,7.9651,43.9336,0.2614,0.0476,0.2645,269.6562
15:13:14:666,-1.7572,1.9463,7.7354,43.8845,0.3567,0.0086,0.2321,269.6562
15:13:14:691,-1.7692,2.0877,7.6086,43.8676,0.3299,-0.014,0.2596,270.8125
15:13:14:708,-1.7548,2.1811,7.9196,43.7111,0.2309,-0.0391,0.3048,270.8125
15:13:14:726,-1.7955,2.3366,8.5062,43.7751,0.1454,-0.0721,0.3396,271.2812
15:13:14:747,-1.8051,2.6121,8.8774,44.2255,0.1411,-0.0678,0.3732,271.2812
15:13:14:767,-1.6831,2.9423,9.2605,44.2945,0.1967,-0.077,0.3928,270.5781
15:13:14:790,-1.4174,3.1029,9.7104,44.4968,0.248,-0.1203,0.3744,270.5781
15:13:14:846,-0.8115,3.1005,10.8212,44.7912,0.2963,-0.3164,0.3274,269.6562
15:13:14:847,0.2728,3.146,11.8914,44.8584,0.3928,-0.5553,0.2169,269.5781
15:13:14:855,0.2177,2.6743,12.7558,44.8256,0.4172,-0.452,-0.1735,268.5625
15:13:14:876,0.0479,2.7173,11.9871,44.9758,0.3525,-0.2107,-0.2126,268.4688
15:13:14:887,0.2728,2.7006,11.0489,44.9742,0.226,-0.0507,-0.1613,267.5781
15:13:14:908,0.6966,2.6767,10.7375,44.9954,0.0702,-0.0165,-0.1179,267.4844
15:13:14:926,1.0056,2.5953,10.8906,44.9263,-0.0928,0.0202,-0.1264,266.9375
15:13:14:947,0.7134,2.4084,11.3862,45.2926,-0.2309,0.0971,-0.1771,266.875
15:13:14:966,0.4501,2.0064,11.6617,45.3419,-0.201,0.1002,-0.2022,266.4844
15:13:14:992,0.6129,1.7836,10.7112,45.2658,0.0513,0.0825,-0.16,266.4531
15:13:15:008,0.6464,2.0853,9.1693,45.6824,0.2908,0.0354,-0.1252,265.875
15:13:15:026,0.5267,2.3557,8.487,45.8423,0.2889,-0.0709,-0.1277,265.8125
15:13:15:046,0.5578,2.4323,8.487,46.0046,0.0837,-0.1081,-0.1381,265.1094
15:13:15:065,0.5985,2.3916,8.6306,46.1129,-0.1368,-0.0379,-0.1631,264.375
15:13:15:092,0.2249,2.2959,8.1832,46.3029,-0.2517,0.1344,-0.2126,264.375
15:13:15:107,-0.2608,2.3318,7.369,46.4342,-0.295,0.3347,-0.2364,264.3594
15:13:15:126,-0.352,2.5618,6.871,46.4566,-0.3671,0.471,-0.204,264.3594
15:13:15:147,-0.1507,2.9638,7.1178,46.7764,-0.4795,0.5064,-0.1686,264.9531
15:13:15:165,-0.0622,3.146,7.7785,46.706,-0.5223,0.4386,-0.1997,264.9531
15:13:15:188,-0.2752,2.8131,8.1206,46.7958,-0.4044,0.3274,-0.3054,265.3125
15:13:15:208,-0.8979,2.3725,8.0536,47.0681,-0.2059,0.2498,-0.3714,265.3125
15:13:15:228,-0.9769,2.5355,7.6875,47.1222,-0.0831,0.2193,-0.2706,265.5625
15:13:15:248,-0.5076,2.9997,7.369,47.2486,-0.1051,0.1924,-0.1472,265.5938
15:13:15:265,-0.2752,3.2752,7.7067,47.3469,-0.2217,0.1515,-0.1778,265.9531
15:13:15:286,-0.486,3.1053,8.4823,47.6396,-0.3415,0.1393,-0.3176,265.9531
15:13:15:307,-1.5945,2.6719,10.0002,47.9824,-0.4221,0.1045,-0.4441,266.3125
15:13:15:326,-2.5017,2.3366,11.6785,48.2514,-0.325,0.0312,-0.3842,266.3125
15:13:15:348,-2.3749,2.4467,11.8173,48.5571,0.0177,0.0202,-0.1301,266.625
15:13:15:368,-1.3621,3.05,11.0752,48.5868,0.3708,0.0024,0.1264,266.6562
15:13:15:392,-0.4573,4.1991,11.5086,48.9803,0.4239,-0.1558,0.1142,266.9844
15:13:15:409,-1.3119,3.6631,12.2626,49.391,0.3347,-0.0672,-0.1216,267.0312
15:13:15:428,-3.1029,2.8202,11.3145,49.5065,0.3415,0.1619,-0.2547,267.2031
15:13:15:449,-3.9526,2.4562,10.139,49.7571,0.3152,0.1973,-0.1368,267.2188
15:13:15:467,-3.5815,2.2816,10.0863,49.839,0.1649,0.0257,0.0421,267.5312
15:13:15:491,-2.9399,1.5347,11.3049,49.9418,-0.047,-0.1313,0.1307,267.5625
15:13:15:510,-2.8944,0.7588,11.8196,50.074,-0.1521,-0.1026,0.2413,268.1406
15:13:15:526,-3.0835,0.3425,11.1709,50.21,-0.1631,0.0605,0.5107,268.1875
15:13:15:547,-2.4802,0.4645,10.2251,50.1301,-0.212,0.2614,0.8607,268.4531
15:13:15:566,-1.561,1.1731,9.052,50.1613,-0.2859,0.394,1.0433,269.1094
15:13:15:586,-0.8501,2.016,8.3842,50.212,-0.4123,0.3512,0.9633,269.1094
15:13:15:610,-0.2776,2.4993,9.1454,50.1303,-0.5858,0.1613,0.711,269.6875
15:13:15:626,-0.2994,2.1021,10.2467,50.0265,-0.6591,0.058,0.3409,269.6875
15:13:15:647,-1.0343,1.3717,10.2897,49.9842,-0.4691,0.0635,0.033,269.4688
15:13:15:666,-1.4964,1.2042,9.186,49.9538,-0.0721,0.0073,-0.0507,269.4688
15:13:15:692,-1.3023,1.4198,7.654,49.8988,0.317,-0.1326,0.0153,269.6094
15:13:15:707,-0.8091,1.8936,6.95,49.8794,0.5211,-0.3048,0.091,269.6094
15:13:15:726,-0.5435,2.4491,7.3235,49.7684,0.5504,-0.4502,0.1014,270.125
15:13:15:747,-0.4406,2.8561,8.1473,49.6227,0.5192,-0.4618,0.033,270.125
15:13:15:766,-0.5794,3.0308,8.578,49.6536,0.5437,-0.3292,-0.0727,269.9688
15:13:15:786,-0.9625,3.0523,7.7115,49.9306,0.5766,-0.0904,-0.1936,269.9688
15:13:15:850,-1.3047,2.9925,7.2996,50.2548,0.4349,0.058,-0.281,269.0938
15:13:15:850,-1.4174,2.9566,7.8861,50.409,0.1888,0.0843,-0.2871,269.0938
15:13:15:851,-1.6615,2.9112,8.8702,50.5286,-0.0391,0.102,-0.2627,267.0781
15:13:15:865,-1.6974,3.1244,9.6553,50.8417,-0.1912,0.1545,-0.2046,266.875
15:13:15:886,-1.6926,3.2752,10.7112,51.1588,-0.2767,0.1576,-0.1564,265
15:13:15:907,-0.9721,2.9088,11.6402,51.5038,-0.2065,0.0287,-0.1332,264.8125
15:13:15:927,-0.7134,2.2289,11.7479,51.7871,0.1075,-0.2908,-0.2205,264.2344
15:13:15:947,-1.063,2.2361,11.6282,51.7601,0.0898,-0.361,-0.2162,264.1719
15:13:15:967,-0.8378,2.4299,11.8747,51.8108,-0.0092,-0.3683,-0.1582,264.25
15:13:15:991,-0.2704,2.3821,11.5851,51.9054,-0.1167,-0.273,-0.1277,264.25
15:13:16:053,-0.0048,1.7836,11.5035,52.2844,-0.2511,-0.2016,-0.1985,264.2812
15:13:16:054,-0.2034,0.874,12.521,52.3292,-0.3641,-0.2199,-0.2865,264.2812
15:13:16:054,-0.6488,0.5602,12.842,52.4229,-0.2987,-0.1539,-0.234,264.5469
15:13:16:065,-0.5124,0.8907,11.7335,52.364,-0.0812,0.0031,-0.014,265.2031
15:13:16:087,0.3592,1.6496,9.5477,52.5537,0.1692,0.0812,0.2162,265.2031
15:13:16:108,1.5969,2.3821,7.6349,52.549,0.284,-0.0342,0.2486,265.875
15:13:16:126,2.1308,2.6073,7.2661,52.886,0.113,-0.234,0.0177,265.875
15:13:16:147,1.5921,2.1715,8.0297,52.7972,-0.2822,-0.2578,-0.3237,266.1719
15:13:16:166,0.3927,1.5873,9.3538,52.6564,-0.6383,-0.1014,-0.5467,266.1719
15:13:16:188,-0.51,1.2999,9.9404,52.4909,-0.689,0.1252,-0.562,266.4844
15:13:16:206,-0.7325,1.6065,8.8702,52.4712,-0.4251,0.292,-0.4404,266.4844
15:13:16:226,-0.5794,2.2481,7.4958,52.6245,-0.0971,0.2388,-0.3262,266.4844
15:13:16:249,-0.4693,2.8035,7.2876,52.4717,0.0782,0.0434,-0.3005,267.0469
15:13:16:267,-0.4119,2.9351,7.9699,52.5836,0.1161,-0.0672,-0.3347,267.3906
15:13:16:292,-0.3209,2.7197,8.4057,52.2961,0.1387,0.0049,-0.3793,267.3906
15:13:16:308,-0.3162,2.7389,7.9819,52.2732,0.1497,0.1778,-0.3879,267.8594
15:13:16:326,-0.4621,3.2417,7.678,52.3244,0.0593,0.2902,-0.3482,267.8594
15:13:16:347,-0.5626,3.5767,8.243,52.5297,-0.0825,0.2847,-0.3134,268.0625
15:13:16:366,-0.6368,3.4881,9.0736,52.5421,-0.1216,0.2217,-0.3189,268.0938
15:13:16:394,-1.2568,3.28,10.1127,52.5653,-0.0354,0.1155,-0.3402,267.6875
15:13:16:406,-1.9223,3.2584,10.5676,52.782,0.1216,0.066,-0.2798,267.6562
15:13:16:426,-2.4419,3.469,10.4647,52.9606,0.2663,0.0715,-0.1356,267.9531
15:13:16:449,-2.406,3.6559,10.6849,52.8083,0.3903,0.0458,0.157,267.9844
15:13:16:467,-2.0662,3.9814,10.6514,53.1165,0.3219,0.1026,0.1845,268.9062
15:13:16:492,-2.2481,4.1847,10.7638,53.3036,0.1472,0.1148,0.1655,269
15:13:16:508,-3.2273,3.1819,13.1387,53.4105,0.0507,0.0458,0.1662,269.6719
15:13:16:525,-2.9686,2.5355,13.2993,53.3858,0.1423,-0.0061,0.2083,269.75
15:13:16:547,-2.4706,1.9391,13.2275,53.4878,0.2425,-0.1234,0.2095,270.4062
15:13:16:565,-1.5706,1.0917,13.5721,53.5186,0.2895,-0.259,0.168,271.2812
15:13:16:587,-1.3669,0.1579,13.6032,53.3987,0.3891,-0.2181,0.1032,271.2812
15:13:16:608,-1.6735,0.1962,11.7503,53.6786,0.5913,0.0556,0.1735,272.0625
15:13:16:626,-1.2616,1.0367,8.7817,53.6736,0.7593,0.2621,0.3598,272.0625
15:13:16:647,-0.6129,1.7596,6.5862,53.6811,0.7746,0.1894,0.3812,272.75
15:13:16:666,-0.941,2.1212,5.6788,53.6202,0.6133,0.0037,0.2101,272.75
15:13:16:687,-1.3071,2.0853,5.9112,53.6308,0.3433,-0.1228,0.0843,273.2188
15:13:16:708,-1.13,1.9534,6.1911,53.3485,0.0605,-0.0586,0.0727,273.2656
15:13:16:727,-1.0199,1.7788,5.8367,53.0327,-0.2181,0.1527,0.0849,273.2656
15:13:16:748,-1.3717,1.7524,6.0428,52.8935,-0.5021,0.2132,0.0776,273.1875
15:13:16:766,-2.0471,1.9271,7.1776,52.801,-0.7739,0.0727,0.0806,272.875
15:13:16:786,-1.8864,2.0183,8.5851,52.66,-0.912,-0.1552,0.1197,272.875
15:13:16:862,-1.9128,2.0782,10.4695,52.394,-0.7965,-0.3115,0.1478,272.4844
15:13:16:863,-2.2959,1.829,11.135,52.2626,-0.4313,-0.1668,0.1814,272.4844
15:13:16:863,-2.5089,1.8864,9.6386,51.8874,0.0672,0.1258,0.3036,272.2031
15:13:16:871,-1.9558,2.8083,8.4224,52.001,0.4496,0.2101,0.4746,272.2031
15:13:16:891,-1.0152,3.3565,7.9244,51.8305,0.6121,0.2022,0.4844,272.0781
15:13:16:908,-1.6017,3.0739,7.9651,51.6703,0.5956,0.1918,0.3091,272.0625
15:13:16:926,-2.193,2.6456,8.7003,51.5464,0.4991,0.2352,0.2223,271.5312
15:13:16:949,-2.9614,2.9877,9.5285,51.3516,0.2236,0.5773,0.3152,271.4688
15:13:16:967,-2.2457,2.5881,9.7199,51.2711,0.0037,0.6469,0.3115,271.3438
15:13:16:986,-1.7836,2.5546,10.3807,51.3585,-0.2046,0.5779,0.2688,271.3281
15:13:17:009,-1.6783,2.6384,11.846,51.3161,-0.3824,0.4465,0.2633,271.1406
15:13:17:027,-1.6567,3.2776,13.086,51.2986,-0.3836,0.3854,0.3213,271.125
15:13:17:045,-0.917,3.7469,11.7766,51.2369,-0.1784,0.4416,0.3256,270.7344
15:13:17:065,-0.2728,3.4786,10.1031,51.2638,-0.025,0.2138,0.1539,270.1875
15:13:17:088,-0.6655,2.4586,10.7638,51.218,-0.124,-0.3036,-0.0886,270.1875
15:13:17:108,-1.64,1.3717,13.6032,51.0977,-0.3384,-0.5876,-0.1649,269.5938
15:13:17:126,-1.9777,1.2951,14.3958,50.8696,-0.3604,-0.1918,0.058,269.5938
15:13:17:146,-1.3645,2.1428,12.3918,50.6541,-0.1533,0.438,0.4288,268.6406
15:13:17:166,-0.2898,3.3948,9.2459,50.6221,0.1649,0.573,0.7104,268.6406
15:13:17:186,1.0558,3.8593,7.515,50.424,0.4025,-0.0501,0.7501,268.2344
15:13:17:209,1.7572,3.4762,8.4512,50.4036,0.5082,-1.058,0.5681,268.2031
15:13:17:231,1.5562,2.892,10.2778,50.2945,0.5944,-1.6732,0.336,268.1875
15:13:17:247,1.0463,2.5065,11.2929,49.9458,0.675,-1.4686,0.171,267.5625
15:13:17:265,0.7181,2.6025,10.2156,49.9388,0.7165,-0.6255,0.0806,266.7344
15:13:17:286,0.2776,2.7078,8.1544,50.1173,0.6677,0.2859,-0.0104,266.7344
15:13:17:308,-0.2249,3.0212,6.0117,49.9511,0.6023,0.802,-0.1002,265.8594
15:13:17:327,-0.6368,3.4092,4.721,50.129,0.5113,0.8436,-0.1741,265.8594
15:13:17:348,-0.8234,3.4834,4.5033,50.1673,0.3787,0.5974,-0.2315,265.2031
15:13:17:366,-0.9458,3.5695,4.7907,50.3682,0.2462,0.2828,-0.2627,265.2031
15:13:17:386,-1.0917,3.6655,5.0755,50.5175,0.0531,0.1332,-0.2688,265.4531
15:13:17:408,-1.6687,4.0555,5.9662,50.6563,-0.2101,0.1258,-0.2046,265.4844
15:13:17:427,-1.494,4.4291,7.0962,50.731,-0.3525,0.0287,-0.0538,264.8906
15:13:17:448,-0.3903,5.0994,9.6123,50.4454,-0.3409,-0.1289,0.08,264.8281
15:13:17:467,-0.711,5.1712,10.5724,50.4432,-0.3219,0.1014,-0.0012,263.4219
15:13:17:488,-1.7094,4.951,10.6418,50.2879,-0.2388,0.3628,-0.0831,263.2812
15:13:17:509,-2.3246,4.6445,10.8523,50.0684,-0.1209,0.3787,-0.0501,262.8438
15:13:17:526,-1.6543,4.9582,11.3049,49.8095,0.0122,0.2669,0.0641,262.7969
15:13:17:546,-1.5036,4.9702,11.3384,49.634,0.0599,0.3158,0.0403,263
15:13:17:566,-2.6743,4.1441,11.403,49.5953,0.0452,0.3598,-0.0782,263.1719
15:13:17:586,-3.8426,4.0603,11.4317,49.5399,0.1326,0.2425,-0.0538,263.1719
15:13:17:606,-4.343,4.2497,11.1541,49.3919,0.2083,0.2663,0.0593,263.5312
15:13:17:625,-4.3621,3.5791,10.0385,49.2718,0.2596,0.3415,0.1442,263.5312
15:13:17:647,-4.3645,2.9136,9.8423,49.0199,0.2242,0.1802,0.2132,264.1406
15:13:17:667,-4.4483,2.4443,9.8877,49.011,0.1619,-0.1833,0.2669,264.1406
15:13:17:691,-4.1895,2.0375,9.0114,49.0058,0.1814,-0.5974,0.3354,264.1406
15:13:17:709,-3.6461,1.8649,8.3028,48.9376,0.036,-0.843,0.3934,264.2969
15:13:17:732,-3.0619,2.0518,9.1143,48.8668,-0.2065,-1.0702,0.4325,264.2969
15:13:17:749,-2.5403,2.3677,9.7582,48.5376,-0.3903,-1.0635,0.4697,264.0312
15:13:17:766,-1.6017,2.2313,10.6179,48.6914,-0.5418,-0.8479,0.4752,263.9531
15:13:17:786,-0.9721,2.1188,10.7447,48.4558,-0.5601,-0.4734,0.4459,263.9531
15:13:17:832,-1.0104,2.1978,10.0768,48.419,-0.4203,-0.0183,0.3635,263.8281
15:13:17:833,-1.3908,2.1165,8.6067,48.4191,-0.1704,0.3641,0.3317,263.8281
15:13:17:846,-1.4222,2.1835,6.7705,48.1685,0.0544,0.5492,0.449,263.7969
15:13:17:867,-1.4294,2.4299,5.3291,48.0628,0.1277,0.5247,0.5974,263.7969
15:13:17:887,-1.3214,2.6336,4.9463,47.8615,0.0287,0.2633,0.7165,263.7812
15:13:17:912,-1.0582,2.8657,5.3366,47.9531,-0.1448,-0.0977,0.788,263.7812
15:13:17:927,-1.1444,2.983,6.5288,47.7401,-0.3518,-0.3592,0.7917,263.4375
15:13:17:946,-1.0152,3.0547,8.688,47.7061,-0.5339,-0.3048,0.8002,263.4062
15:13:17:968,-0.9099,3.213,9.4113,47.9355,-0.4746,0.044,0.8424,262.9844
15:13:17:988,-0.7804,3.2393,9.4041,47.7217,0.011,0.1912,0.7733,262.9375
15:13:18:012,-0.7828,3.268,9.7511,47.8292,0.0996,0.0336,0.7275,262.375
15:13:18:028,-0.6368,3.1149,9.926,47.7504,0.0904,-0.1093,0.719,262.3125
15:13:18:045,0.1364,2.9877,10.6633,47.5264,0.047,-0.3066,0.7147,261.4844
15:13:18:125,1.0223,3.0404,11.5158,47.7878,-0.0049,-0.3347,0.6732,260.5312
15:13:18:125,0.8378,2.8131,11.6569,47.752,-0.0965,-0.0483,0.5595,260.5312
15:13:18:126,0.4478,2.6312,10.4743,47.8227,-0.2175,0.2792,0.5131,259.5156
15:13:18:126,0.9984,2.1906,9.5979,47.6953,-0.3665,0.2877,0.5443,259.5156
15:13:18:149,1.7166,1.2162,10.9795,47.9392,-0.5968,0.0629,0.5033,258.0312
15:13:18:166,1.8697,0.4621,13.043,48.15,-0.7959,0.0941,0.4471,257.8906
15:13:18:188,1.3621,0.5363,12.6936,48.302,-0.7837,0.474,0.551,257.875
15:13:18:211,1.0582,0.8186,10.8715,48.7141,-0.6341,0.7452,0.7294,256.1406
15:13:18:227,1.3095,1.0391,9.0688,48.3973,-0.4697,0.6011,0.8332,256.125
15:13:18:248,1.8649,1.2305,8.7577,48.6245,-0.4062,0.0904,0.7855,254.2188
15:13:18:266,2.2217,1.2616,9.7774,48.8575,-0.4447,-0.4099,0.606,252.3594
15:13:18:291,2.0255,1.3095,10.3448,48.9842,-0.5467,-0.427,0.4038,252.3594
15:13:18:315,1.3573,1.1228,9.9284,49.0265,-0.686,-0.0599,0.281,250.7969
15:13:18:326,0.1723,1.0989,8.4631,48.917,-0.824,0.3573,0.2529,250.7969
15:13:18:346,-0.7301,1.3286,8.2095,48.8442,-0.9242,0.3604,0.2743,249.375
15:13:18:367,-1.3143,1.1228,8.068,48.7376,-0.8472,0.2352,0.3464,249.375
15:13:18:387,-1.4342,1.6543,8.7075,48.9265,-0.6273,0.1283,0.507,248.1094
15:13:18:411,-1.1013,2.1811,8.621,48.9339,-0.3018,0.1839,0.6695,248.1094
15:13:18:426,-0.4071,2.8178,7.9555,48.9644,-0.0409,0.3201,0.7373,246.8906
15:13:18:447,0.3951,3.1077,7.5389,48.8005,-0.069,0.5113,0.6542,246.7812
15:13:18:468,0.8931,3.2034,7.5748,48.8456,-0.2712,0.6878,0.4862,245.5156
15:13:18:496,0.0167,2.9016,9.8013,48.8982,-0.3971,0.6072,0.2895,245.3906
15:13:18:508,-0.4454,2.8394,10.4934,49.0819,-0.2938,0.4215,0.0928,243.5312
15:13:18:526,-0.6607,3.1842,11.2546,49.444,-0.223,0.3567,0.1607,243.3438
15:13:18:548,-0.5171,3.1938,12.0278,49.6808,-0.1454,0.3073,0.2468,241.875
15:13:18:566,-0.2946,2.9303,12.7989,49.9142,-0.0593,0.317,0.3244,241.7344
15:13:18:588,-0.3162,2.7987,12.5856,50.1843,0.0611,0.4203,0.3787,240.9375
15:13:18:611,-0.8524,2.959,11.7,50.4498,0.1411,0.4563,0.3995,240.8594
15:13:18:626,-1.7022,2.7221,11.6928,50.7615,0.1582,0.2266,0.3854,240.0625
15:13:18:647,-2.7796,2.4658,11.8795,51.0412,0.2352,-0.0629,0.3964,239.9844
15:13:18:666,-3.4307,2.3605,10.6849,51.2063,0.2572,-0.0452,0.5107,238.9219
15:13:18:687,-3.2704,2.004,9.7798,51.1155,0.0647,-0.0043,0.6579,238.8125
15:13:18:710,-2.8872,1.2018,10.9436,51.3444,-0.2065,-0.1991,0.7336,237.1719
15:13:18:725,-2.6073,0.9505,12.6984,51.5027,-0.2523,-0.3952,0.7978,237.1562
15:13:18:747,-2.3151,1.4438,12.3655,51.7593,0.0354,-0.3861,0.8503,235.7656
15:13:18:767,-2.0495,1.0415,9.6864,52.2108,0.314,-0.2156,0.791,235.0938
15:13:18:787,-2.2409,0.4597,8.6043,52.3709,0.0983,-0.0568,0.6829,235.0938
15:13:18:853,-2.3533,0.1699,9.3873,52.6945,-0.3848,0.0861,0.6695,234.6719
15:13:18:854,-2.4203,0.1651,10.5197,53.1207,-0.6524,0.1735,0.7165,234.6719
15:13:18:855,-1.5873,0.0861,11.0967,53.4485,-0.4948,0.0819,0.8057,233.9688
15:13:18:867,-0.3616,0.4406,10.5293,53.5046,-0.036,-0.0385,0.8515,233.9688
15:13:18:887,0.1005,0.8501,8.6139,53.8335,0.4025,-0.0397,0.7611,233.0781
15:13:18:910,0.0909,1.3693,6.615,53.9155,0.6078,-0.022,0.6084,233.0781
15:13:18:928,-0.1747,0.7038,5.3486,53.9816,0.5718,-0.1387,0.4447,232.3594
15:13:18:949,0.1196,0.7899,6.5073,54.2468,0.4465,-0.5357,0.4135,232.2812
15:13:18:966,-0.0861,1.1372,8.4775,54.3703,0.3824,-0.8082,0.3763,231.1719
15:13:18:988,-0.1507,2.0734,8.4057,54.5566,0.4545,-0.0214,0.4545,231.0625
15:13:19:011,0.0263,2.4873,7.2852,54.7552,0.4581,0.3195,0.4795,229.5
15:13:19:026,0.0957,2.8346,6.8112,55.3594,0.3115,0.3983,0.4099,229.3438
15:13:19:049,-0.1196,3.122,7.9747,55.5692,0.0281,0.2834,0.2688,227.7969
15:13:19:067,-0.0885,2.8466,10.3567,56.0222,-0.1851,0.0928,0.1136,227.6562
15:13:19:086,0.1962,2.2433,12.1908,56.7056,-0.179,0.0079,-0.0159,226.25
15:13:19:110,-0.1507,1.5802,12.0494,57.1023,-0.0965,0.1637,-0.1344,226.1094
15:13:19:127,-0.9194,1.1994,11.0178,57.5072,-0.0971,0.3231,-0.1698,224.3906
15:13:19:147,-1.2233,1.0606,10.9265,57.9403,-0.1387,0.2291,-0.0715,224.2188
15:13:19:165,-0.9793,1.0702,11.9536,58.5754,-0.171,0.0489,0.0928,222.6562
15:13:19:189,-0.146,1.0654,12.0637,58.6094,-0.2291,0.135,0.2498,222.5156
15:13:19:211,1.142,0.8572,12.1765,58.8115,-0.372,0.27,0.2969,221.5469
15:13:19:229,2.1835,0.1101,12.6745,58.8883,-0.5021,0.1888,0.1729,221.5312
15:13:19:248,2.0088,-0.7253,14.0414,58.8018,-0.5253,-0.0922,-0.069,220.9531
15:13:19:266,1.0295,-1.1252,14.2878,58.82,-0.3946,-0.157,-0.2358,220.2031
15:13:19:287,0.5865,-1.3023,12.7199,58.9835,-0.124,-0.0788,-0.2022,220.2031
15:13:19:310,1.051,-0.9386,10.4551,59.1012,0.1374,-0.1429,-0.0501,219.2188
15:13:19:327,1.7572,0.134,8.9133,59.0397,0.1967,-0.3415,0.0452,219.2188
15:13:19:347,1.8482,1.0343,8.2334,59.2677,0.0617,-0.4746,-0.0519,218.7188
15:13:19:368,1.2999,1.3071,8.1927,59.5339,-0.1234,-0.4129,-0.259,218.7188
15:13:19:387,0.4956,1.3167,7.5894,59.9006,-0.1918,-0.1936,-0.416,218.8125
15:13:19:410,-0.2728,1.343,6.44,59.9721,-0.1906,0.0367,-0.4966,218.8125
15:13:19:427,-0.9218,1.1803,6.0595,60.1987,-0.2474,0.1808,-0.5082,218.9531
15:13:19:448,-1.7094,1.3023,5.7553,60.3112,-0.3726,0.3317,-0.4349,218.9688
15:13:19:467,-1.908,1.3406,5.9399,60.3763,-0.3537,0.2077,-0.2498,218.5625
15:13:19:488,-0.3568,1.3406,8.7147,60.5334,0.011,-0.496,0.0788,218.5156
15:13:19:512,0.1699,2.004,9.1525,60.7236,0.1454,-0.3861,0.1216,217.875
15:13:19:529,0.1603,2.5113,9.1334,60.792,0.2083,-0.1686,0.08,217.8125
15:13:19:548,-0.0526,2.4203,9.2554,60.9594,0.1973,0.0519,0.0055,218.0156
15:13:19:565,-0.1819,2.3151,9.8614,61.4097,0.0421,0.3109,-0.0208,218.0312
15:13:19:585,-0.5148,2.0399,10.4719,61.8248,-0.1888,0.5919,-0.0012,218.2969
15:13:19:610,-1.0175,1.7477,11.4341,62.1384,-0.3635,0.6976,0.0861,218.3281
15:13:19:627,-1.0223,1.8745,12.521,62.4799,-0.3751,0.628,0.3024,218.4688
15:13:19:646,-0.4741,2.2241,13.177,62.6179,-0.2217,0.496,0.576,218.4688
15:13:19:665,0.2154,2.9279,13.0047,62.8137,0.0269,0.3427,0.7605,219.1719
15:13:19:686,0.5913,3.6293,12.8587,63.0513,0.2462,0.1209,0.73,219.25
15:13:19:710,-0.0024,3.5719,12.3081,63.1682,0.3806,-0.0159,0.5058,220.2656
15:13:19:732,-0.996,3.1292,11.2068,63.0631,0.3653,0.011,0.2785,220.2656
15:13:19:748,-1.5945,2.2935,10.8811,63.0974,0.1497,0.0525,0.1545,220.8594
15:13:19:767,-1.8577,1.4246,12.0855,63.2453,-0.1063,-0.047,0.1087,220.875
15:13:19:786,-2.1906,0.5841,13.4907,63.295,-0.1185,-0.2456,0.1106,220.875
15:13:19:840,-2.3988,0.4167,13.34,63.7027,0.1942,-0.4013,0.1924,220.7656
15:13:19:841,-2.0662,0.7493,11.3264,63.8251,0.584,-0.3818,0.317,220.7656
15:13:19:848,-1.6137,1.1444,9.2028,63.8255,0.7013,-0.2614,0.3659,220.7656
15:13:19:867,-1.3406,1.0343,8.4942,64.0155,0.5296,-0.1753,0.3366,220.7656
15:13:19:887,-1.4486,0.8234,8.123,64.23,0.1393,0.1118,0.3024,220.4688
15:13:19:911,-1.3119,0.917,8.1544,64.2334,-0.1167,0.259,0.3317,220.4688
15:13:19:926,-0.9027,1.0199,7.7521,64.1858,-0.0922,0.1863,0.4007,219.2969
15:13:19:946,-0.6248,0.9482,7.3786,64.0672,-0.0867,0.157,0.3836,219.2969
15:13:19:968,-0.4836,0.941,7.8957,63.8958,-0.1729,0.1594,0.328,217.8125
15:13:19:986,-0.5339,0.9697,7.8885,63.9708,-0.2034,0.2468,0.2749,217.6562
15:13:20:011,-1.0199,0.754,7.5126,64.1233,-0.171,0.2938,0.2187,216.9688
15:13:20:039,-1.427,0.553,7.5006,64.0587,-0.1203,0.1979,0.2529,216.6406
15:13:20:048,-1.4246,1.0128,7.7019,63.958,0.011,0.0086,0.4313,216.6406
15:13:20:067,-0.9649,1.7237,7.7689,63.8709,0.1716,-0.1246,0.5882,216.625
15:13:20:086,-0.079,2.5738,8.08,63.8397,0.1051,0.0977,0.5375,216.3906
15:13:20:111,-0.4836,2.581,8.6426,63.8186,-0.069,0.2474,0.3799,216.375
15:13:20:128,-0.9888,2.2146,9.3299,63.7325,-0.2248,0.3219,0.2529,215.9375
15:13:20:189,-1.1659,1.9681,10.0289,63.4955,-0.3158,0.3079,0.2077,215.8906
15:13:20:189,-0.6631,1.8027,10.6872,63.126,-0.3189,0.1845,0.204,215.3438
15:13:20:190,-0.2225,1.2616,11.7814,62.8721,-0.2987,0.0104,0.1356,215.2812
15:13:20:208,-0.1986,0.7062,12.5593,62.7601,-0.193,-0.1778,0.0415,214.3906
15:13:20:226,-0.7181,0.4478,12.2124,62.3856,-0.0611,-0.259,-0.0159,214.375
15:13:20:247,-0.7325,0.5746,11.4844,62.0641,-0.0415,-0.2773,0.047,213.5312
15:13:20:265,0.2417,0.431,10.8021,61.884,-0.1949,-0.2517,0.1405,212.8438
15:13:20:287,1.3693,-0.4645,11.7287,61.4746,-0.5302,-0.2859,0.0751,212.8438
15:13:20:310,1.4868,-1.4773,14.738,61.152,-0.832,-0.3506,-0.113,212.0469
15:13:20:326,0.6679,-1.884,16.2344,61.1467,-0.7336,-0.1313,-0.2071,212.0469
15:13:20:346,0.2034,-1.8553,13.759,61.0094,-0.2004,0.2401,-0.0977,210.7969
15:13:20:366,0.632,-1.2066,10.1246,60.6371,0.284,0.3085,0.1026,210.7969
15:13:20:387,1.6376,-0.122,8.688,60.8675,0.3561,-0.0342,0.2156,209.7344
15:13:20:411,2.1236,0.6655,9.6314,60.849,0.19,-0.4972,0.1106,209.7344
15:13:20:429,1.4294,1.1204,10.4169,60.7951,0.16,-0.7226,-0.1405,209.0625
15:13:20:449,0.1316,1.4342,9.2629,60.9413,0.3402,-0.6249,-0.3525,209.0625
15:13:20:467,-0.687,1.6472,7.4288,61.0816,0.4862,-0.4178,-0.4313,208.6094
15:13:20:488,-0.9864,1.8194,6.1744,61.1706,0.3971,-0.1771,-0.4282,208.5625
15:13:20:511,-1.0845,1.9582,6.0595,61.3675,0.113,0.0843,-0.3995,208.5469
15:13:20:529,-1.1252,1.9223,6.7178,61.5927,-0.1662,0.2932,-0.3537,208.5469
15:13:20:548,-0.9027,1.7524,7.448,61.6596,-0.1753,0.1888,-0.1185,208.4062
15:13:20:568,0.012,1.7644,8.5899,61.6339,-0.0342,0.1515,-0.0696,208.3906
15:13:20:587,1.0152,1.9705,9.4854,61.7202,0.0971,0.3085,-0.1625,208.3281
15:13:20:610,0.9386,1.8147,8.4033,61.7954,0.1692,0.4545,-0.3115,208.3125
15:13:20:627,0.3927,1.3597,8.3818,61.9892,0.1209,0.4502,-0.3922,208.5
15:13:20:646,-0.1747,1.1803,9.1789,61.9367,0.0189,0.3671,-0.3518,208.5156
15:13:20:665,-0.6296,1.3238,10.017,61.8969,-0.0342,0.3005,-0.2101,208.25
15:13:20:687,-0.8067,1.8147,10.6609,62.1536,-0.0434,0.306,0.0086,208.2188
15:13:20:711,-0.4167,2.3629,11.2953,62.1253,-0.0263,0.3366,0.2584,208.4219
15:13:20:730,0.1364,2.8968,11.482,62.3191,0.0324,0.3335,0.4374,208.4531
15:13:20:747,0.4765,3.3517,11.6976,62.3403,0.0727,0.2877,0.4618,209.5312
15:13:20:766,0.699,3.6727,12.2507,62.326,0.11,0.1833,0.3506,210.5156
15:13:20:787,0.0694,3.7493,12.5665,62.3482,0.2285,0.0556,0.1277,210.5156
15:13:20:851,-1.0965,3.5839,12.0664,62.3627,0.419,-0.0721,-0.0837,211.0469
15:13:20:851,-1.9753,3.3254,10.9747,62.3288,0.5412,-0.201,-0.1784,211.0469
15:13:20:852,-2.3844,2.636,10.7686,62.1483,0.4386,-0.3274,-0.182,211.2031
15:13:20:865,-2.6097,1.4964,12.1693,62.0442,0.2327,-0.4502,-0.1069,211.2031
15:13:20:888,-2.6838,0.4023,12.9975,62.0114,0.2559,-0.4832,0.0764,211.6562
15:13:20:910,-2.1452,0,11.6067,61.9254,0.5467,-0.4539,0.361,211.6562
15:13:20:928,-1.3262,0.3903,9.5692,62.0568,0.7379,-0.482,0.6066,212.3906
15:13:20:948,-0.4262,0.8955,8.93,61.913,0.5626,-0.4685,0.7055,212.3906
15:13:20:967,0.0287,0.9434,8.5971,61.9041,0.1723,-0.2187,0.6518,212.5312
15:13:20:986,0.1914,0.711,8.5325,61.7829,-0.2162,0.1564,0.5247,212.5312
15:13:21:010,0.2489,0.6272,8.8152,61.6675,-0.4783,0.518,0.4044,211.7812
15:13:21:027,-0.3449,0.6296,8.1592,61.6458,-0.5296,0.8143,0.2993,211.7031
15:13:21:048,-0.6775,0.5171,7.5676,61.4725,-0.4245,0.8424,0.2669,210.8594
15:13:21:067,-0.711,0.62,6.8662,61.1983,-0.2364,0.6273,0.3018,210.7656
15:13:21:087,-0.7684,1.0869,6.2725,60.6578,-0.0684,0.2895,0.336,210.8125
15:13:21:111,-0.8258,1.5634,6.5025,60.4024,-0.2223,-0.0568,0.3464,210.8281
15:13:21:129,-1.1157,1.762,8.8247,60.0698,-0.2669,0.0043,0.369,211.3906
15:13:21:148,-0.6918,1.9175,8.9587,59.7669,-0.1362,0.0611,0.4276,211.4375
15:13:21:166,-0.3592,2.2552,8.7099,59.2865,-0.0006,0.069,0.4478,211.6719
15:13:21:187,-0.1866,2.5283,8.7888,58.9874,-0.0024,0.0941,0.4099,211.6875
15:13:21:214,-0.2922,2.5499,9.3299,58.5813,-0.088,0.1478,0.3347,211.0312
15:13:21:229,-0.577,2.4275,10.1414,58.509,-0.1173,0.1289,0.2529,210.9688
15:13:21:247,-0.9075,2.2433,10.2108,58.2648,-0.0507,0.0623,0.2089,209.6875
15:13:21:265,-1.1276,1.8649,10.491,57.8918,-0.0464,-0.0122,0.215,208.4531
15:13:21:287,-1.0439,1.3932,11.348,57.63,-0.1051,-0.0947,0.2761,208.4531
15:13:21:311,-0.9218,0.941,11.9895,57.1441,-0.0764,-0.2193,0.3555,207.4219
15:13:21:329,-0.8596,0.8354,11.8436,56.9118,0.0092,-0.3079,0.4526,207.4219
15:13:21:347,-0.5219,1.3549,11.2857,56.3627,-0.0037,-0.2773,0.5785,206.5156
15:13:21:366,0.7516,1.8601,10.5509,55.977,-0.1723,-0.179,0.6518,206.5156
15:13:21:387,2.272,1.3478,10.8739,55.4898,-0.4789,-0.2175,0.4911,205.7188
15:13:21:412,2.461,-0.364,13.3328,55.163,-0.8063,-0.4184,0.1185,205.7188
15:13:21:431,0.7899,-1.7477,16.0717,54.5929,-0.8821,-0.4826,-0.168,204.7656
15:13:21:446,-0.5506,-2.2433,15.789,54.3145,-0.4624,-0.2779,-0.0825,204.7656
15:13:21:465,0.0048,-1.5658,12.131,54.0419,0.2089,-0.0348,0.2926,203.7969
15:13:21:487,1.2473,-0.0861,8.6067,53.7274,0.5699,-0.0183,0.562,203.7969
15:13:21:511,2.1978,1.0247,7.3427,53.7257,0.4025,-0.11,0.5406,203.1406
15:13:21:527,2.4706,1.2808,7.7617,53.7202,-0.0049,-0.0794,0.2932,203.0781
15:13:21:547,1.6759,0.996,8.1111,53.5368,-0.2889,0.1173,-0.0379,202.625
15:13:21:567,-0.0622,0.8067,6.5647,53.5493,-0.2895,0.5186,-0.3079,202.5781
15:13:21:589,-0.1053,1.0893,5.8367,53.4585,-0.2236,0.4991,-0.273,201.9688
15:13:21:612,0.0981,1.5275,5.8822,53.0954,-0.212,0.3696,-0.2596,201.9062
15:13:21:629,0.5698,1.896,6.4496,53.0804,-0.2309,0.201,-0.3036,200.9688
15:13:21:646,0.3473,2.2768,7.3068,53.1543,-0.2517,0.0715,-0.4239,200.875
15:13:21:665,0.1747,2.2241,8.298,53.2463,-0.234,-0.0281,-0.5198,199.7031
15:13:21:685,0.5818,1.9128,9.5022,52.9715,-0.1845,-0.1197,-0.5253,199.5938
15:13:21:707,1.2855,1.9343,10.7375,53.1773,-0.1454,-0.0825,-0.4985,199.5781
15:13:21:728,1.9247,2.3366,11.3049,53.1238,-0.1283,0.1888,-0.5565,199.5781
15:13:21:748,1.7118,2.2265,10.7614,53.3589,-0.1368,0.573,-0.7666,199.3594
15:13:21:766,0.5961,2.1069,9.9165,53.732,-0.2572,0.9071,-0.9963,198.2812
15:13:21:788,-1.896,2.1332,10.8882,54.1904,-0.5357,1.1246,-1.1221,198.2812
15:13:21:858,-3.4977,0.9673,13.4118,54.3541,-0.6102,0.992,-0.9627,197.9531
15:13:21:859,-3.7373,-0.3664,15.1092,54.38,-0.1423,0.5644,-0.4942,197.9531
15:13:21:859,-2.7939,-0.0694,13.4357,54.5727,0.7263,0.0544,0.1045,198.375
15:13:21:867,-1.6543,1.4677,10.7542,54.5274,1.2028,-0.2449,0.4783,198.375
15:13:21:888,-1.0678,2.4395,9.7869,54.9396,0.9108,-0.2358,0.5039,198.7812
15:13:21:907,-1.9295,2.1476,10.1198,55.0235,0.3244,-0.0367,0.3219,198.7812
15:13:21:927,-3.1507,1.3836,11.2786,55.2743,-0.058,0.0702,0.2578,199.4844
15:13:21:947,-3.7612,0.5483,11.1924,55.116,-0.124,0.0892,0.3457,199.4844
15:13:21:967,-3.1699,-0.5291,10.625,55.1762,0.0006,-0.1582,0.5675,200.5
15:13:21:987,-2.8848,-0.0742,10.8356,54.939,0.1949,-0.6334,0.8308,200.6094
15:13:22:012,-2.4706,0.8524,10.2945,55.1611,0.3109,-0.7239,0.9761,201.6094
15:13:22:031,-1.5395,1.197,9.1358,54.9009,0.2798,-0.5479,1.0073,201.7188
15:13:22:049,0.0479,1.4079,8.7745,54.5309,-0.1784,-0.3903,0.6738,203.2656
15:13:22:067,-0.2465,1.0152,10.2873,54.4595,-0.5088,-0.2871,0.3818,203.4219
15:13:22:089,-0.9218,0.6224,11.2834,53.9435,-0.6078,-0.0202,0.1881,205.1562
15:13:22:112,-1.427,0.3018,10.4671,53.4695,-0.4142,0.306,0.1454,205.3281
15:13:22:131,-1.2664,0.2584,8.2382,53.1052,-0.1515,0.5889,0.2315,205.7656
15:13:22:148,-0.9745,0.5865,6.3897,52.7308,-0.0244,0.6115,0.3311,205.8125
15:13:22:167,-0.9386,0.699,6.3323,52.1561,-0.0434,0.3335,0.3628,205.25
15:13:22:189,-1.0989,0.6894,7.5437,51.9552,-0.0757,-0.0006,0.3885,205.1875
15:13:22:256,-1.0893,0.941,8.5756,51.5279,0.0202,-0.1918,0.4569,204.6406
15:13:22:257,-0.5961,1.4055,9.0712,51.0394,0.1906,-0.2052,0.5461,204.5938
15:13:22:257,-0.2393,1.9439,8.5445,50.6291,0.2443,0.044,0.5779,203.6719
15:13:22:268,0.189,2.3055,8.3674,50.3561,0.1613,0.2376,0.5333,201.8594
15:13:22:289,0.4167,2.4275,9.4591,49.8858,0.0525,0.171,0.4184,201.8594
15:13:22:312,0.0981,2.3557,10.6705,49.7091,0.0031,0.1008,0.2517,199.9531
15:13:22:329,-0.1771,2.0136,11.5851,49.2606,0.0086,0.0855,0.124,199.9531
15:13:22:347,0.1005,1.3238,11.9034,49.0919,0.0397,0.0941,0.0299,198.7812
15:13:22:366,0.201,0.6009,11.9991,48.8071,0.0476,0.0825,-0.0599,198.7812
15:13:22:388,-0.285,0.1244,11.8603,48.5737,0.0318,0.0635,-0.1466,198.2344
15:13:22:412,-0.6679,-0.1005,11.6139,48.4329,-0.022,0.0733,-0.1533,198.2344
15:13:22:429,-0.5937,0.0885,11.2642,48.0669,-0.0947,0.0782,-0.0654,197.4375
15:13:22:447,0.2177,0.4214,11.1757,47.8506,-0.1716,0.0421,0.0116,197.4375
15:13:22:467,1.0487,0.1005,11.4413,47.6132,-0.2511,-0.0281,-0.0617,196.5469
15:13:22:487,0.8548,-1.1037,11.6665,47.3116,-0.3476,-0.0293,-0.2932,196.5469
15:13:22:509,-0.0598,-1.8577,12.0999,46.8898,-0.3971,-0.0134,-0.4459,195.625
15:13:22:531,-0.5411,-1.5826,11.6521,46.5988,-0.2553,0.0189,-0.347,195.5312
15:13:22:547,-0.0742,-0.6751,10.0002,46.5802,-0.0061,0.0318,-0.1478,194.4219
15:13:22:567,1.0774,0.3018,7.9388,46.5194,0.1136,-0.0696,-0.069,194.3125
15:13:22:589,1.3621,0.0957,8.578,46.7291,-0.4587,-0.3384,-0.507,193.6094
15:13:22:613,0.4047,-0.5219,9.9691,46.7087,-0.5999,-0.3567,-0.7019,193.5469
15:13:22:632,-0.297,-0.6248,9.9906,46.6586,-0.4245,-0.2193,-0.7141,193.3594
15:13:22:648,-0.3903,-0.0431,8.135,46.8889,-0.1423,0.036,-0.6108,193.3438
15:13:22:667,-0.1555,0.7899,6.3323,47.0338,-0.0214,0.1784,-0.5455,193.5469
15:13:22:686,-0.134,1.3358,5.8774,47.2983,-0.1209,0.1955,-0.5748,193.5625
15:13:22:706,-0.4095,1.427,6.725,47.3234,-0.284,0.1472,-0.6304,193.75
15:13:22:729,-0.3114,1.3238,7.8263,47.3998,-0.2889,0.0171,-0.6298,193.7656
15:13:22:746,0.0287,1.4414,8.6976,47.2198,-0.1906,-0.0739,-0.6163,193.7656
15:13:22:765,0.268,1.5156,9.6266,47.5176,-0.1051,-0.0702,-0.6396,194.4531
15:13:22:788,-0.2584,1.2497,10.1701,47.5962,-0.0507,0.0599,-0.689,194.4531
15:13:22:863,-0.754,1.0606,10.8117,47.6906,0.022,0.0971,-0.6683,194.9531
15:13:22:863,-0.8429,0.8668,11.2235,47.6231,0.1368,0.0507,-0.5626,194.9531
15:13:22:864,-1.0295,0.7971,12.0063,47.6902,0.2199,0.0373,-0.4288,195.3281
15:13:22:874,-1.1396,0.984,12.0039,47.6953,0.2614,0.2059,-0.2657,195.3281
15:13:22:887,-0.7851,1.9848,11.9417,47.7026,0.3054,0.3213,-0.091,196.5781
15:13:22:907,-0.6057,1.7405,11.5899,47.9705,0.3641,0.3543,-0.058,196.5781
15:13:22:930,-0.4167,1.5562,11.0824,48.0246,0.3928,0.3048,-0.0391,197.9688
15:13:22:948,-1.0271,1.8936,10.8236,48.1046,0.3671,0.1924,-0.0855,197.9688
15:13:22:967,-2.2026,1.7524,10.783,48.1714,0.3054,0.0464,-0.1857,199.1562
15:13:22:987,-2.9255,1.3525,9.8255,48.1424,0.2767,-0.1515,-0.1558,199.1562
15:13:23:007,-2.4921,0.9338,9.8231,48.2516,0.1423,-0.4624,0.0018,200.4375
15:13:23:030,-1.1396,0.5506,12.1167,48.1014,-0.1588,-0.7006,0.1564,200.4375
15:13:23:048,-0.3377,0.1603,14.9848,47.9324,-0.3806,-0.6041,0.1686,201.6719
15:13:23:068,-0.7253,-0.285,15.2049,47.5641,-0.2248,-0.1808,0.1032,201.7812
15:13:23:090,-1.5658,-0.5913,11.8962,47.1813,0.2504,0.2388,0.1093,203.1406
15:13:23:114,-1.1444,0.7301,7.9651,46.8326,0.5681,-0.0629,0.35,203.2656
15:13:23:129,-1.1539,1.1803,8.2238,46.3771,0.1759,-0.0861,0.2969,204.3125
15:13:23:148,-1.3047,0.7134,9.2964,46.1631,-0.2242,0.0458,0.1973,204.4062
15:13:23:167,-1.3549,0.1268,9.9141,45.7311,-0.3164,0.1301,0.1723,204.8281
15:13:23:188,-1.343,-0.0766,9.3586,45.4154,-0.124,0.1918,0.2449,204.8594
15:13:23:205,-1.3167,0.0526,7.8215,45.2999,0.1197,0.2266,0.3653,205.0312
15:13:23:226,-1.2018,0.3305,7.0268,44.9019,0.2217,0.1435,0.4728,205.0469
15:13:23:249,-0.9888,0.5746,7.2541,44.534,0.1936,0.0458,0.5528,205.4062
15:13:23:266,-1.1133,0.778,7.6205,44.1246,0.1698,0.0281,0.6115,205.75
15:13:23:287,-1.5156,0.9697,7.4886,43.9539,0.2297,0.0244,0.6787,205.75
15:13:23:308,-1.4462,1.0822,6.9547,43.6089,0.2999,-0.0244,0.7904,205.4375
15:13:23:330,-0.4693,1.4988,7.6564,43.0129,0.2309,-0.1026,0.9053,205.4375
15:13:23:347,0.3042,2.1906,8.7864,42.5639,0.0434,-0.0214,0.8784,205.1875
15:13:23:366,-0.0598,2.6719,9.8085,41.8692,-0.1307,0.193,0.6609,205.1875
15:13:23:386,-0.6081,2.2552,10.6035,41.4703,-0.1307,0.2132,0.4093,204.7031
15:13:23:408,-0.5411,1.209,11.1805,41.0333,0.0593,-0.0397,0.2737,204.7031
15:13:23:431,-0.268,0.6488,11.5636,40.6436,0.2449,-0.3164,0.2413,204.2031
15:13:23:447,-0.0909,0.3975,11.1517,39.9897,0.215,-0.2449,0.2126,204.1562
15:13:23:466,-0.1292,-0.2608,10.759,39.5991,-0.0654,0.0641,0.1472,204.1562
15:13:23:489,-0.2584,-1.0128,10.9508,39.2931,-0.4056,0.3341,0.1258,203.5938
15:13:23:507,-0.3808,-1.386,10.9699,38.8115,-0.6182,0.496,0.1637,202.6875
15:13:23:527,-0.055,-1.3693,9.9021,38.4896,-0.7862,0.5589,0.1936,202.6875
15:13:23:548,0.6942,-1.4868,10.7566,38.0198,-0.846,0.0971,0.1619,201.5625
15:13:23:567,0.6057,-2.0303,12.5593,37.6255,-0.8534,-0.3335,0.0055,201.4531
15:13:23:588,0.4621,-2.2672,13.0932,37.0244,-0.7599,-0.4343,-0.058,200.0625
15:13:23:613,1.3214,-1.0343,13.7973,36.5228,-0.5369,-0.5009,0.1093,199.9219
15:13:23:629,2.6575,0.0502,15.5952,36.0413,-0.5779,-0.3115,0.0843,198.1875
15:13:23:648,2.7508,0.644,15.5904,35.5226,-0.5595,0.2877,-0.1845,198.0156
15:13:23:668,1.2305,0.7277,13.1483,35.1464,-0.3995,1.0256,-0.5369,196.8594
15:13:23:687,-0.1196,0.6129,10.5604,34.886,-0.1002,1.3604,-0.7141,196.7344
15:13:23:706,-0.5913,0.5148,8.1254,34.9699,0.3384,1.2351,-0.7013,196.2969
15:13:23:730,-0.8019,0.687,6.294,35.0697,0.7446,0.8326,-0.6567,196.25
15:13:23:749,-1.1922,0.9505,5.6453,35.4089,0.9566,0.369,-0.6475,195.9375
15:13:23:765,-1.1779,1.1061,5.5472,35.762,1.0274,0.044,-0.6225,195.375
15:13:23:788,-0.8644,1.0726,5.1233,36.1825,1.0366,-0.1228,-0.576,195.375
15:13:23:859,-1.0199,1.1635,5.3318,36.8024,0.9664,-0.2908,-0.5693,194.5781
15:13:23:859,-1.5179,1.2233,6.294,37.4359,0.8576,-0.4294,-0.5754,194.5781
15:13:23:860,-1.5395,2.4275,6.8207,37.9114,0.7086,-0.3201,-0.5369,194.4688
15:13:23:868,-1.2353,3.5025,7.5775,38.2963,0.5125,-0.168,-0.5675,194.4688
15:13:23:887,-1.2999,2.6073,8.4727,38.7333,-0.0012,0.4178,-0.7898,194.2812
15:13:23:907,-1.6783,0.8692,9.8925,39.1565,-0.4502,0.9566,-0.9535,194.2812
15:13:23:926,-2.6336,0.0215,10.6131,39.8245,-0.4258,0.9871,-0.8753,194.2344
15:13:23:949,-3.2201,-0.62,11.0776,40.1017,-0.0892,0.6499,-0.5687,194.2344
15:13:23:966,-3.0428,-0.6679,11.1087,40.5216,0.1833,0.3903,-0.0538,195.3438
15:13:23:988,-2.1188,0.2704,10.4958,40.8203,0.3286,0.2358,0.5033,195.3438
15:13:24:006,-0.6894,2.4275,10.2299,40.9418,0.3512,0.022,0.8717,196.875
15:13:24:028,-0.2946,3.6293,10.5748,41.1388,0.2004,-0.1069,0.802,196.875
15:13:24:049,-1.1157,3.4092,11.1829,41.2164,-0.0672,-0.0275,0.5082,198.4531
15:13:24:067,-1.439,2.4012,11.3934,41.3526,-0.2822,0.0733,0.2871,198.6094
15:13:24:086,-1.8266,1.2497,11.9465,41.1527,-0.3848,-0.0544,0.1173,200.1562
15:13:24:107,-2.406,0.0718,13.1267,40.9677,-0.3384,-0.3335,-0.0049,200.3125
15:13:24:130,-3.2058,-0.7923,13.0813,40.6,0.2462,-0.4264,0.1619,201.7812
15:13:24:151,-3.7397,-0.3377,8.5325,40.4339,0.3799,-0.4105,0.3916,201.9375
15:13:24:167,-3.1771,0.2489,7.8215,40.3239,0.1979,-0.4899,0.5485,203.3594
15:13:24:190,-2.5161,0.5339,8.31,40.1069,-0.1387,-0.4868,0.5895,203.5
15:13:24:206,-2.0231,0.7493,9.5524,39.7791,-0.4264,-0.361,0.5485,204.9531
15:13:24:227,-1.8984,0.6296,9.8782,39.2426,-0.4978,-0.0965,0.4514,205.1094
15:13:24:248,-2.004,0.0287,8.7458,38.8352,-0.3848,0.1802,0.3665,205.6562
15:13:24:326,-2.0901,-0.5339,7.4695,38.5887,-0.2688,0.2627,0.3622,204.4688
15:13:24:326,-2.3725,-0.4765,7.5509,38.3912,-0.2578,0.1497,0.4203,204.4688
15:13:24:326,-2.5738,-0.1292,8.3913,38.1426,-0.237,0.0452,0.5302,202.9375
15:13:24:327,-2.5379,0.2297,8.4224,37.7736,-0.0947,0.0617,0.6848,202.9375
15:13:24:353,-2.0064,1.0008,7.9986,37.3694,0.149,0.014,0.8674,202.3281
15:13:24:366,-1.3693,1.5849,7.6229,37.3765,0.361,-0.0825,0.9413,202.3281
15:13:24:388,-0.699,2.0375,7.3283,37.3156,0.3659,-0.0464,0.8973,202.3281
15:13:24:406,-0.4813,2.5714,7.7545,37.2034,0.1759,0.0269,0.7526,202.3281
15:13:24:431,-0.7708,2.6145,9.0688,37.0723,-0.0012,-0.0134,0.5278,202.3281
15:13:24:448,-0.9769,2.1428,10.2897,37.2608,-0.0147,-0.1051,0.3231,201.9688
15:13:24:466,-1.1396,1.8314,11.0513,37.2634,0.0611,-0.1619,0.1906,200.8594
15:13:24:487,-1.264,1.5275,11.6354,37.2975,0.058,-0.0666,0.1008,200.8594
15:13:24:506,-1.3789,1.051,12.1406,37.2893,-0.0006,0.066,0.0641,199.6406
15:13:24:531,-1.1874,0.7971,12.0975,37.2076,0.0061,0.1142,0.0825,199.6406
15:13:24:549,-0.8812,0.7851,11.9465,37.0481,0.0733,0.0391,0.1148,198.6406
15:13:24:568,-0.5578,0.9888,11.578,37.183,0.1032,-0.0263,0.1295,198.6406
15:13:24:587,0.213,1.2497,11.0321,37.3347,0.0263,-0.0195,0.113,197.5938
15:13:24:606,1.3023,0.6679,10.6609,37.0502,-0.1759,-0.055,-0.0342,197.4844
15:13:24:630,1.5419,-0.9218,12.8013,36.9257,-0.4771,-0.2688,-0.3457,195.9375
15:13:24:649,-0.4884,-2.26,15.0087,37.0319,-0.6053,-0.3128,-0.6041,195.7812
15:13:24:667,-0.9003,-2.0495,11.7981,37.4056,0.2089,0.2798,-0.4429,194.0781
15:13:24:686,-0.4501,-1.1563,8.9228,37.7327,0.5052,0.1356,-0.1942,193.9062
15:13:24:705,0.3209,-0.2345,7.5724,38.2232,0.4655,-0.2278,-0.0538,192.6562
15:13:24:730,0.7851,-0.0622,8.2573,38.6453,0.1607,-0.4881,-0.0886,192.5312
15:13:24:748,0.7445,-0.0431,9.009,39.0946,-0.1161,-0.4227,-0.2089,192.0469
15:13:24:766,-0.0455,0.0191,8.4894,39.5875,-0.19,-0.1008,-0.3317,191.8281
15:13:24:786,-0.7349,0.0479,7.0268,39.9178,-0.1381,0.193,-0.3604,191.8281
15:13:24:852,-0.8692,0.4525,5.863,40.3893,-0.0916,0.2614,-0.2932,191.5938
15:13:24:853,-0.8354,1.0463,5.5472,40.6451,-0.1216,0.1533,-0.2382,191.5938
15:13:24:853,-0.6918,1.3573,6.1122,40.7239,-0.2101,-0.011,-0.2291,191.3594
15:13:24:866,-0.5076,1.5443,7.3499,41.0476,-0.2883,-0.1289,-0.2468,191.3594
15:13:24:888,-0.2776,1.6878,8.1736,41.0958,-0.2816,-0.1264,-0.2749,191.6719
15:13:24:906,-0.2106,1.7477,9.131,41.1747,-0.2419,-0.0861,-0.3066,191.7031
15:13:24:932,0.1029,1.8027,9.9236,41.3165,-0.1662,-0.0403,-0.3219,191.7031
15:13:24:947,0.4143,1.8745,10.5604,41.7709,-0.0428,-0.0275,-0.3659,192.9375
15:13:24:965,0.1436,1.7716,10.9098,41.8133,0.0562,-0.0018,-0.4557,193.7188
15:13:24:986,-0.6392,1.4004,11.5062,42.1019,0.0831,0.0489,-0.5046,193.7188
15:13:25:006,-1.3956,1.118,11.8292,42.3372,0.1362,0.1069,-0.4135,194.0938
15:13:25:025,-1.6137,1.1755,11.9704,42.4941,0.2083,0.1723,-0.1894,194.0938
15:13:25:048,-1.3789,1.6017,11.8053,43.0026,0.2303,0.2828,0.0647,194.7031
15:13:25:066,-1.0367,2.0088,11.5588,43.4458,0.1759,0.4044,0.226,194.7031
15:13:25:087,-1.0295,2.0973,11.3982,43.9915,0.1191,0.408,0.2553,195.2656
15:13:25:106,-1.4198,1.9848,11.9201,44.2052,0.1625,0.1979,0.2114,195.3281
15:13:25:132,-1.8888,1.8338,11.7407,44.7839,0.3237,0.0043,0.1704,195.7188
15:13:25:150,-2.3366,1.5897,10.4288,45.173,0.4313,-0.0043,0.1497,195.7656
15:13:25:167,-2.6097,1.264,9.9021,45.7254,0.3176,0.055,0.1594,196.2344
15:13:25:190,-3.0595,0.7636,10.4504,46.0436,-0.0177,0.1387,0.3024,196.2812
15:13:25:206,-3.4786,0.3257,10.946,46.3019,0.0892,0.0715,0.4734,196.8438
15:13:25:226,-2.9997,0.9888,8.9037,46.6993,0.2346,-0.1295,0.6438,196.9062
15:13:25:246,-1.6065,0.9529,8.1182,46.8246,0.2022,-0.4484,0.6829,197.7344
15:13:25:265,-0.7612,0.5315,9.9212,47.1008,-0.1118,-0.7159,0.5296,198.7656
15:13:25:286,-0.6775,0.3712,12.1693,47.2088,-0.4306,-0.598,0.3189,198.7656
15:13:25:306,-1.0845,0.1795,12.5593,47.2637,-0.4392,-0.171,0.1564,199.0156
15:13:25:326,-1.5658,-0.1053,10.4695,47.4228,-0.1588,0.2449,0.1148,199.0156
15:13:25:348,-1.4605,-0.0814,7.6493,47.5712,0.1246,0.3946,0.2242,198.4688
15:13:25:366,-1.1707,0.2752,6.1696,47.6987,0.1497,0.2627,0.3518,198.4688
15:13:25:389,-1.0965,0.699,6.7729,47.6246,-0.0904,0.1032,0.4288,198.4531
15:13:25:406,-1.0558,0.8812,8.298,47.7058,-0.303,0.0861,0.485,198.1094
15:13:25:427,-1.118,1.0989,8.9396,47.8748,-0.2492,0.1509,0.5418,198.1094
15:13:25:449,-1.0223,1.3956,8.3985,48.0592,0.0024,0.1875,0.5999,197.9062
15:13:25:465,-0.6966,1.7429,7.4527,48.277,0.2266,0.1423,0.6432,197.3281
15:13:25:487,-0.3473,2.2552,7.113,48.2888,0.3018,-0.0031,0.6267,197.3281
15:13:25:506,-0.2345,2.691,7.5823,48.7119,0.2449,-0.1607,0.5241,196.1875
15:13:25:532,-0.4119,2.7508,8.7266,48.8691,0.1228,-0.2498,0.3598,196.1875
15:13:25:546,-0.5794,2.5929,9.8207,49.1415,0.0513,-0.2792,0.2004,195.0312
15:13:25:566,-0.4334,2.1069,10.6729,49.3332,0.0379,-0.3219,0.0647,195.0312
15:13:25:587,-0.2369,1.3143,11.767,49.4866,-0.0171,-0.3366,-0.0611,194.5156
15:13:25:606,-0.2177,0.431,12.3966,49.6485,-0.0874,-0.2596,-0.1631,194.4688
15:13:25:627,-0.4525,-0.1819,12.1143,49.9089,-0.1338,-0.1417,-0.2083,194.0312
15:13:25:649,-0.1579,-0.0431,11.6282,50.1439,-0.3635,-0.0134,-0.11,194
15:13:25:667,0.2154,-0.3999,12.1549,50.0484,-0.4948,-0.0452,-0.1203,193.1719
15:13:25:688,0.3497,-1.142,13.5051,50.2471,-0.5608,-0.135,-0.1753,193.0938
15:13:25:706,0.2058,-1.8386,14.5561,50.3789,-0.4306,-0.1613,-0.1973,191.9531
15:13:25:725,-0.1149,-2.1882,13.7013,50.4022,-0.0519,-0.0727,-0.1258,191.8281
15:13:25:749,0.1172,-1.7405,11.19,50.8123,0.3702,-0.0018,0.0678,190.5781
15:13:25:767,0.7181,-0.8139,9.2052,51.0956,0.5601,-0.1008,0.237,190.4531
15:13:25:786,1.5395,0.0814,8.3746,51.1926,0.4746,-0.2572,0.2761,189.4062
15:13:25:855,2.15,0.6559,8.2908,51.363,0.2303,-0.3079,0.146,188.8438
15:13:25:856,2.1667,0.7588,8.1784,51.3157,-0.0647,-0.1753,-0.1191,188.8438
15:13:25:856,1.3549,0.431,8.1999,51.2863,-0.325,0.0464,-0.4197,188.7969
15:13:25:865,0.3233,0.2946,8.1855,51.1081,-0.4142,0.1863,-0.6194,188.8906
15:13:25:888,-0.4645,0.2512,7.6875,51.1038,-0.3005,0.2144,-0.6762,188.8906
15:13:25:906,-0.8067,0.3975,6.8734,50.8809,-0.1277,0.157,-0.617,189.3281
15:13:25:925,-0.7277,0.8306,6.524,50.5556,-0.0538,0.0745,-0.5058,189.3281
15:13:25:946,-0.268,1.3334,7.2111,50.2192,-0.0941,0.0318,-0.4221,189.5625
15:13:25:966,-0.0311,1.6854,7.8646,49.9003,-0.1374,0.0983,-0.4221,189.7656
15:13:25:988,0.1125,1.7548,8.4535,49.802,-0.1417,0.1869,-0.4875,189.7656
15:13:26:006,0.189,1.7118,9.0544,49.4518,-0.1246,0.2517,-0.573,190.0781
15:13:26:026,-0.1675,1.5945,9.3443,49.3943,-0.1124,0.3439,-0.6628,190.0781
15:13:26:048,-0.3712,1.2664,9.8303,49.0122,-0.1271,0.4013,-0.7153,189.9062
15:13:26:067,-0.6703,0.7516,10.6537,48.446,-0.1613,0.4374,-0.7385,189.9062
15:13:26:089,-1.6783,0.4669,11.6952,48.1726,-0.1765,0.4697,-0.697,189.625
15:13:26:107,-2.4084,0.6272,12.2004,47.946,-0.0794,0.4966,-0.4704,189.625
15:13:26:126,-2.1308,1.2042,12.1071,47.6061,0.1155,0.463,-0.1081,190.125
15:13:26:148,-1.276,2.0279,11.9895,47.1307,0.2755,0.3549,0.1918,190.1719
15:13:26:167,-0.7636,2.4275,12.023,46.9405,0.3402,0.2529,0.2853,191.3281
15:13:26:191,-0.9266,2.15,12.4397,46.4827,0.3457,0.0666,0.1686,191.4375
15:13:26:206,-1.1228,2.2911,11.9034,46.3619,0.3616,0.0825,0.1032,192.5156
15:13:26:226,-1.7668,2.2528,10.7734,46.0994,0.3219,0.1729,-0.0006,192.625
15:13:26:248,-2.6527,1.5371,10.3089,45.7933,0.19,0.1735,-0.1026,193.4219
15:13:26:265,-3.6197,0.7564,10.692,45.398,0.099,0.0354,-0.0947,194.4688
15:13:26:286,-4.1847,0.2465,10.8643,44.8004,0.1802,-0.1301,0.0733,194.4688
15:13:26:305,-4.0364,0.5052,10.0959,44.2368,0.3763,-0.234,0.3573,195.8281
15:13:26:396,-3.1316,1.0798,8.8463,43.6124,0.5113,-0.3415,0.6102,195.8281
15:13:26:397,-1.7333,1.3789,8.377,42.9501,0.4423,-0.5003,0.7098,195.9531
15:13:26:397,-0.8019,1.3454,9.4519,42.0822,0.1888,-0.6347,0.6053,197.375
15:13:26:398,-0.632,0.9625,11.1757,41.4112,-0.0727,-0.5779,0.3867,197.3906
15:13:26:406,-1.0343,0.5818,11.4413,40.6407,-0.1118,-0.3018,0.2004,197.9219
15:13:26:425,-1.5586,0.2898,10.072,39.9655,0.0452,0.0061,0.1112,197.9375
15:13:26:446,-1.762,0.0191,8.1664,39.248,0.1985,0.179,0.146,197.4688
15:13:26:465,-1.8434,-0.0263,6.9021,38.8448,0.2333,0.16,0.2468,197.125
15:13:26:486,-1.9896,0.3473,7.2182,38.3359,0.1454,0.0324,0.3702,197.125
15:13:26:505,-1.8864,0.9553,7.6684,37.8605,0.1173,-0.0116,0.5015,197.125
15:13:26:525,-1.8434,1.4701,7.1225,37.5769,0.2028,0.0403,0.5974,197.125
15:13:26:546,-1.7213,1.9175,6.5575,37.2197,0.2541,0.047,0.6628,197.375
15:13:26:566,-1.2975,2.3198,6.5312,36.8947,0.1912,0.0269,0.7086,197.375
15:13:26:586,-0.8668,2.6432,7.1632,36.4187,0.0305,0.0409,0.6994,197.0625
15:13:26:606,-0.3544,2.7939,7.9364,36.2047,-0.124,0.1008,0.6237,197.0625
15:13:26:625,0.0335,2.8226,8.6545,35.782,-0.2101,0.1075,0.4716,196.0312
15:13:26:646,-0.122,2.9686,9.2483,35.4316,-0.2572,0.0782,0.2535,195.9375
15:13:26:665,-0.8524,2.7485,9.7271,35.3252,-0.2602,0.0018,0.0397,195.125
15:13:26:686,-0.9505,2.0207,10.0289,34.924,-0.1924,-0.1759,-0.0867,195.0469
15:13:26:707,-0.6655,1.2879,9.7917,34.4081,-0.4074,-0.5327,-0.2504,194.7656
15:13:26:730,-0.7373,-0.0048,13.1267,33.9018,-0.7416,-0.5229,-0.2303,194.7344
15:13:26:746,0.7828,-0.4573,14.307,33.4189,-0.8747,-0.3274,-0.1509,194.3594
15:13:26:765,1.7979,-1.118,14.5107,33.0401,-0.8808,-0.1362,-0.2199,193.5
15:13:26:786,1.3454,-1.908,15.4517,32.4793,-0.8894,-0.0599,-0.4056,193.5
15:13:26:836,-0.3114,-2.5762,15.9302,32.1235,-0.7397,0.1179,-0.4777,193.4062
15:13:26:836,-1.6783,-2.8155,14.7619,31.6313,-0.3011,0.3433,-0.226,192.2031
15:13:26:846,-0.577,-2.1236,12.3272,31.1969,0.314,0.3769,0.3512,192.0938
15:13:26:865,1.6807,-0.4789,9.7774,31.0393,0.8277,0.1399,0.8179,190.7031
15:13:26:886,3.39,1.1803,7.7952,30.8197,0.9578,-0.1545,0.8222,190.5625
15:13:26:905,4.2401,1.9343,7.5365,31.041,0.7019,-0.4025,0.4288,189.2656
15:13:26:925,3.6221,1.5227,7.8646,31.2246,0.3244,-0.3726,-0.1594,189.25
15:13:26:946,1.7644,0.5865,7.6875,31.5075,0.025,-0.11,-0.6878,188.8281
15:13:26:965,0.0574,-0.079,7.168,31.6524,-0.1234,0.1136,-0.9242,189.1406
15:13:26:986,-0.8668,-0.3042,6.67,32.0747,-0.1784,0.2004,-0.876,189.1406
15:13:27:006,-0.9553,0.0502,6.7585,32.4814,-0.2162,0.1704,-0.6701,189.6719
15:13:27:026,-0.5339,0.6081,7.247,33.0796,-0.2413,0.1216,-0.4636,189.6719
15:13:27:046,0.134,0.9745,7.8861,33.706,-0.2431,0.1038,-0.3317,189.8906
15:13:27:066,0.8091,1.2999,8.6952,33.9379,-0.2272,0.1252,-0.2847,189.8906
15:13:27:086,1.3478,1.6041,9.2435,34.6574,-0.1655,0.1912,-0.3323,190.625
15:13:27:105,1.2162,1.817,9.0138,35.219,-0.0959,0.3207,-0.4728,190.625
15:13:27:126,0.419,1.7333,8.7745,35.8471,-0.0898,0.3744,-0.6145,190.4219
15:13:27:146,-0.1125,1.4916,9.4831,36.3459,-0.1118,0.2651,-0.6542,190.4062
15:13:27:167,-0.4478,1.5802,10.4886,37.2074,-0.0898,0.1497,-0.606,189.0156
15:13:27:186,-1.0606,1.6783,11.1183,37.7028,-0.0446,0.1735,-0.5308,188.8906
15:13:27:208,-1.3597,1.6256,11.6976,38.3067,0.0544,0.35,-0.2395,188.8438
15:13:27:233,-1.4773,2.0303,11.968,39.0025,0.1649,0.3598,-0.1081,188.8438
15:13:27:249,-1.5993,2.3246,11.6809,39.602,0.2944,0.2492,-0.0244,190.4219
15:13:27:267,-1.8936,2.3318,11.2953,40.3076,0.3659,0.1124,-0.0043,190.5781
15:13:27:286,-2.1835,2.1428,11.0991,41.0868,0.3421,0.0067,-0.0006,192.0312
15:13:27:306,-2.3031,1.8075,10.9265,41.6047,0.2358,-0.0574,0.0293,192.1719
15:13:27:327,-2.205,1.075,11.1183,42.2541,0.0305,-0.11,0.0764,192.8906
15:13:27:348,-2.0064,0.0239,12.7511,42.8283,-0.2107,-0.27,0.1332,192.9531
15:13:27:368,-1.9801,-0.7277,15.181,43.1766,-0.2504,-0.4239,0.2236,193.4844
15:13:27:387,-2.1691,-0.766,14.8361,43.6905,0.135,-0.2651,0.3793,193.5312
15:13:27:406,-2.1404,0.067,10.5317,44.0796,0.7739,0.0159,0.5675,194.6094
15:13:27:426,-1.817,0.8907,6.8207,44.3657,1.08,-0.0476,0.6573,194.6094
15:13:27:449,-1.3095,1.5873,5.741,44.63,0.8668,-0.3354,0.6243,195.9062
15:13:27:466,-1.0534,2.0495,6.6604,44.9116,0.4099,-0.5119,0.4838,196.875
15:13:27:489,-0.8883,1.8745,8.1182,44.9371,-0.0238,-0.4074,0.2877,196.875
15:13:27:506,-1.0175,1.3813,8.8798,44.9998,-0.3066,-0.0922,0.0965,197.2188
15:13:27:528,-1.7548,1.0582,8.997,45.3126,-0.3958,0.1784,-0.0348,197.2188
15:13:27:548,-2.4251,0.7253,8.8152,45.4591,-0.3213,0.2785,-0.0385,197.3438
15:13:27:568,-2.4084,0.9864,8.4799,45.5477,-0.1093,0.2407,0.0941,197.3438
15:13:27:589,-1.6639,1.3717,7.1584,45.751,0.1784,0.226,0.2382,197.4219
15:13:27:606,-1.0845,1.3525,5.7051,45.7468,0.3011,0.2083,0.2639,197.4219
15:13:27:626,-1.051,1.3214,6.1863,46.0946,0.1216,0.1387,0.2046,197.2188
15:13:27:649,-1.4892,1.4701,7.6469,46.3153,-0.1197,0.1466,0.1662,197.2188
15:13:27:667,-1.8051,1.6567,8.6689,46.5058,-0.1692,0.1417,0.1894,196.6719
15:13:27:688,-1.4246,1.8194,9.1837,46.5765,-0.077,0.0843,0.2511,196.625
15:13:27:708,-1.0726,2.0566,9.5261,46.6841,-0.066,0.2242,0.171,195.7188
15:13:27:727,-1.2903,2.0949,9.8327,46.8903,-0.1344,0.2627,0.0947,195.625
15:13:27:749,-2.0806,1.9056,10.448,47.1134,-0.1032,0.1179,0.1264,194.8438
15:13:27:768,-2.3773,1.5323,11.0632,47.603,0.0049,-0.1332,0.2498,194.7656
15:13:27:787,-0.1484,1.1037,11.7048,47.775,0.0476,-0.2419,0.3244,194.4062
15:13:27:858,0.6224,1.1779,11.889,48.0785,-0.0519,-0.1753,0.248,194.375
15:13:27:859,0.28,1.319,12.119,48.568,-0.1839,-0.0641,0.0727,194.2656
15:13:27:859,-0.4884,0.9242,11.9154,48.742,-0.2395,-0.0104,-0.0586,194.25
15:13:27:866,-0.3951,0.3066,11.712,48.9091,-0.2523,-0.0825,-0.0385,193.875
15:13:27:887,0.2393,-0.1029,12.1525,49.1177,-0.2981,-0.1747,0.0391,193.8281
15:13:27:906,0.8067,-0.5626,12.9616,49.1543,-0.3329,-0.1637,0.0702,193.3281
15:13:27:927,0.9314,-0.8883,13.1698,48.8939,-0.2456,-0.014,0.066,193.3281
15:13:27:952,0.7804,-0.498,11.3504,48.7388,-0.0122,0.2065,0.0867,192.8281
15:13:27:966,0.9099,0.0263,9.0018,48.9031,0.16,0.2315,0.1112,192.2344
15:13:27:987,1.4557,0.3185,7.9747,48.8755,0.1002,-0.0104,0.0855,192.2344
15:13:28:007,1.8769,0.3233,8.4655,49.2082,-0.1093,-0.3036,-0.0354,191.8125
15:13:28:027,1.7261,0.2728,9.3562,49.4223,-0.3231,-0.369,-0.2327,191.8125
15:13:28:050,0.8835,0.3592,9.3706,49.4045,-0.4172,-0.1704,-0.4355,191.3906
15:13:28:065,-0.0574,0.3018,8.3363,49.6909,-0.3628,0.0538,-0.5614,191.3906
15:13:28:088,-0.6464,0.4119,7.3762,50.0591,-0.2676,0.124,-0.5754,190.8281
15:13:28:107,-0.862,0.8091,6.9188,50.3559,-0.179,0.0489,-0.5259,190.8281
15:13:28:126,-0.6727,1.0941,6.373,50.3223,-0.1038,-0.0611,-0.4716,190.7344
15:13:28:148,-0.3257,1.2832,6.658,50.4175,-0.1307,-0.1906,-0.4624,190.7344
15:13:28:167,-0.0742,1.4892,7.7282,50.3913,-0.2566,-0.1973,-0.5113,190.7031
15:13:28:187,-0.0957,1.561,8.7673,50.5744,-0.3518,-0.0641,-0.5992,190.6875
15:13:28:206,-0.1986,1.343,9.5716,50.8608,-0.3292,0.0397,-0.6756,190.4844
15:13:28:227,-0.4143,1.1731,9.859,50.9468,-0.2388,0.1075,-0.7098,190.4688
15:13:28:250,-1.1922,0.7923,10.6442,51.0601,-0.0904,0.0263,-0.6066,190.2344
15:13:28:268,-0.9864,0.7445,11.8555,51.3664,-0.025,-0.0696,-0.4716,190.2188
15:13:28:286,-1.4581,0.9793,12.5928,51.9528,0.0006,0.1216,-0.3561,190.2031
15:13:28:306,-2.2839,1.0702,12.035,52.4498,-0.077,0.6475,-0.2126,190.2031
15:13:28:326,-2.9183,0.8979,11.3264,52.8426,-0.361,1.251,0.0098,190.8281
15:13:28:351,-2.8394,1.3023,11.8436,53.4444,-0.5974,1.3678,0.3109,190.875
15:13:28:366,-2.2074,1.7716,12.8109,53.7767,-0.4435,0.8943,0.5339,191.9062
15:13:28:387,-1.7477,2.0518,12.8492,54.4082,-0.0031,0.2694,0.584,192
15:13:28:466,-1.7309,2.2528,11.3145,54.9229,0.3427,-0.0886,0.5211,192.9688
15:13:28:466,-1.6519,2.0279,10.7279,55.2702,0.3237,-0.2456,0.4087,193.0625
15:13:28:466,-1.5203,1.2353,11.4532,55.269,0.091,-0.2987,0.2779,194.1094
15:13:28:467,-1.7309,0.0359,12.7678,55.275,-0.0586,-0.3421,0.16,195.4062
15:13:28:486,-2.4658,-0.7373,13.8141,55.4878,0.0226,-0.3335,0.1399,195.4062
15:13:28:507,-3.0093,-0.8524,12.2291,55.6356,0.3665,-0.1368,0.281,196.8594
15:13:28:526,-2.7676,-0.431,9.4184,55.7314,0.7129,-0.044,0.4991,196.8594
15:13:28:547,-2.26,0.2034,8.1544,55.5711,0.7672,-0.16,0.6353,198.0312
15:13:28:565,-1.6256,0.9003,7.879,55.5062,0.6121,-0.2169,0.6603,198.0312
15:13:28:586,-1.3573,1.2066,7.3427,55.4306,0.4203,-0.1558,0.5546,198.5781
15:13:28:606,-1.1994,0.8572,6.9882,55.5309,0.1918,-0.1136,0.3928,198.5781
15:13:28:625,-1.0989,0.2441,7.855,55.8474,-0.0819,-0.1435,0.2621,197.8125
15:13:28:647,-1.2257,-0.0215,9.1884,55.9542,-0.2584,-0.1319,0.1875,197.8125
15:13:28:666,-1.5706,-0.1101,9.7319,55.6549,-0.2187,-0.0202,0.179,196.5156
15:13:28:686,-1.695,-0.1555,9.131,55.6692,0.0037,0.0959,0.2468,196.3906
15:13:28:706,-1.5251,0.0909,7.8861,55.7133,0.2621,0.1069,0.3537,195.6094
15:13:28:726,-1.3669,0.5865,6.7848,55.9281,0.4056,0.0446,0.438,195.5312
15:13:28:748,-1.185,1.0869,6.16,56.081,0.2865,-0.1045,0.471,195.1562
15:13:28:767,-0.6344,1.762,6.3251,56.438,0.091,-0.1271,0.4239,195.1094
15:13:28:785,-0.6607,2.0638,7.2589,56.2975,-0.1319,-0.1313,0.3299,194.8125
15:13:28:837,-0.7325,1.8912,8.3148,56.2277,-0.2902,-0.1637,0.2083,194.7812
15:13:28:838,-0.5076,1.5969,9.5572,56.4749,-0.3848,-0.2498,0.0849,193.9531
15:13:28:845,-0.4454,1.3262,10.9217,56.4612,-0.4594,-0.3305,-0.0617,193.8594
15:13:28:865,-0.5602,0.5339,12.5593,56.5885,-0.5217,-0.3738,-0.2059,192.8906
15:13:28:886,-0.6846,-0.3305,13.8523,56.3761,-0.5174,-0.3183,-0.2718,192.7812
15:13:28:905,-0.929,-0.7445,13.6869,56.3352,-0.4056,-0.1313,-0.2443,192.1719
15:13:28:926,-0.9218,-0.5483,12.4517,55.9869,-0.284,0.0367,-0.1362,192.1094
15:13:28:948,-0.2632,-0.0957,11.5828,55.9955,-0.2621,0.0385,-0.0177,191.6406
15:13:28:965,0.5889,-0.1579,11.3695,56.0399,-0.3409,-0.0855,-0.0177,191
15:13:28:986,0.7851,-1.0726,12.8851,55.9232,-0.5021,-0.2107,-0.1466,191
15:13:29:006,0.5004,-1.817,14.5394,55.9849,-0.5437,-0.1545,-0.2419,190.1406
15:13:29:026,-0.2201,-2.2193,13.8619,55.7264,-0.2596,0.0647,-0.2333,190.1406
15:13:29:049,-0.3784,-1.9367,11.5947,55.8152,0.168,0.1649,-0.0776,189.2656
15:13:29:065,-0.0096,-1.2473,9.6171,55.6866,0.4251,0.0244,0.1148,189.2656
15:13:29:086,0.7373,-0.4047,9.1525,55.6681,0.3806,-0.1826,0.2254,188.6562
15:13:29:106,1.5634,0.1723,9.5142,55.5815,0.1466,-0.2175,0.2052,188.6562
15:13:29:126,1.7237,0.2465,9.8061,55.4948,-0.0684,-0.0776,0.0342,188.5625
15:13:29:148,1.1515,0.1077,9.4878,55.459,-0.1478,0.1155,-0.1674,188.5625
15:13:29:166,0.431,0.213,8.7386,55.5455,-0.0849,0.2456,-0.2773,189
15:13:29:186,0.0718,0.5148,7.6301,55.5412,0.0819,0.2889,-0.2975,189
15:13:29:205,-0.0455,0.8306,6.2031,55.577,0.2419,0.284,-0.3005,189.2969
15:13:29:226,-0.1795,1.2425,5.3438,55.9362,0.2657,0.2211,-0.3256,189.3281
15:13:29:251,-0.189,1.5826,5.1616,56.2399,0.1527,0.1472,-0.358,189.2812
15:13:29:266,-0.0742,1.7644,5.8176,56.485,-0.2468,0.0525,-0.4759,189.2812
15:13:29:288,0.0407,1.5156,8.231,56.6601,-0.4111,0.0977,-0.5705,189.5469
15:13:29:306,-0.2608,1.1157,9.6984,57.0018,-0.5204,0.149,-0.6585,189.5625
15:13:29:326,-0.8067,0.7301,11.0895,56.9558,-0.5198,0.1662,-0.6823,189.8438
15:13:29:351,-1.398,0.3138,12.3799,57.156,-0.3824,0.1307,-0.6121,189.875
15:13:29:369,-1.896,0.0718,12.7128,57.192,-0.157,0.1619,-0.4245,189.6719
15:13:29:386,-1.9558,0.1819,12.641,57.1499,0.0544,0.2303,-0.1258,189.6562
15:13:29:408,-1.4004,0.8596,12.2578,56.9064,0.2401,0.2511,0.2034,189.4531
15:13:29:426,-0.7373,1.628,12.0135,56.9528,0.3824,0.212,0.4099,189.4375
15:13:29:453,-0.3999,2.1643,11.4796,57.133,0.4899,0.1521,0.4478,189.8438
15:13:29:466,-0.5818,2.4132,11.013,56.9984,0.5363,0.0391,0.3488,190.4844
15:13:29:487,-1.185,2.4275,10.625,57.3141,0.5088,-0.1142,0.2083,190.4844
15:13:29:507,-1.6304,2.1619,10.3184,57.4366,0.3842,-0.2456,0.1069,191.2656
15:13:29:526,-1.6089,1.3597,10.9146,57.4671,0.146,-0.3787,0.0434,191.2656
15:13:29:551,-1.5036,0.134,13.1291,57.1343,-0.0916,-0.5162,0.0006,192.1719
15:13:29:569,-2.0973,-0.644,14.8074,57.3341,-0.0745,-0.4557,0.0287,192.1719
15:13:29:588,-2.7604,-0.7588,12.4899,57.4478,0.3073,-0.1435,0.204,193.3281
15:13:29:608,-2.6145,-0.2321,9.428,57.2359,0.6823,-0.1301,0.4539,193.3281
15:13:29:627,-1.9271,0.3999,8.2669,57.165,0.7208,-0.4111,0.6194,194.5469
15:13:29:652,-1.1085,0.8835,8.6067,56.8041,0.4875,-0.5455,0.6499,194.5469
15:13:29:668,-0.6129,0.9362,8.8869,56.7535,0.212,-0.4062,0.5479,195.1094
15:13:29:688,-0.5411,0.5578,8.6761,56.7309,0.0067,-0.1753,0.3885,195.1094
15:13:29:706,-0.6224,0.1268,8.5134,57.0752,-0.1295,-0.0678,0.2712,194.5781
15:13:29:726,-1.0893,-0.1938,9.3251,57.1253,-0.2382,-0.0629,0.2205,194.5312
15:13:29:750,-1.4462,-0.2225,10.206,57.0848,-0.2315,0.0006,0.2688,193.9062
15:13:29:770,-1.4605,-0.079,9.5381,57.3037,0.0012,0.1307,0.3891,193.8438
15:13:29:788,-1.343,0.3832,8.1544,57.5562,0.2853,0.1753,0.5058,193.7188
15:13:29:854,-1.3071,1.0271,7.1154,58.0041,0.4215,0.1619,0.5779,193.7031
15:13:29:855,-1.3406,1.8123,6.469,58.1201,0.3793,0.0935,0.6023,193.7656
15:13:29:855,-1.185,1.8577,6.6796,58.3418,0.2767,0.0086,0.598,193.7656
15:13:29:866,-1.3023,1.9247,8.1449,58.5241,0.0953,-0.1069,0.5827,193.6406
15:13:29:887,-1.3765,1.9777,10.3256,58.7974,0.0031,-0.2395,0.5779,193.625
15:13:29:907,-0.8524,1.7931,11.7215,58.7676,0.1155,-0.2908,0.5608,192.8438
15:13:29:926,0.3066,1.6902,11.9106,58.8599,0.2688,-0.1784,0.5052,192.7656
15:13:29:952,1.2377,1.7572,11.9752,58.8709,0.2419,0.0415,0.3506,191.7969
15:13:29:968,1.6424,1.6735,11.9919,58.8755,0.0922,0.2749,0.1136,191
15:13:29:988,1.252,1.2784,11.4293,58.7807,-0.0483,0.4355,-0.1521,191
15:13:30:006,0.7205,0.9386,11.2164,58.8289,-0.1912,0.4826,-0.3286,190.3906
15:13:30:027,0.8163,0.9386,11.1494,58.6315,-0.3219,0.4813,-0.3793,190.3906
15:13:30:051,1.2808,0.6535,10.9555,58.3096,-0.427,0.4325,-0.4508,189.4062
15:13:30:072,1.5251,-0.1292,11.3145,58.4489,-0.5754,0.347,-0.5974,189.4062
15:13:30:087,0.297,-0.8258,12.6888,58.3689,-0.7208,0.3207,-0.7239,188.1875
15:13:30:107,-0.9649,-1.185,13.5697,58.2459,-0.5669,0.3317,-0.6451,188.1875
15:13:30:126,-1.1396,-1.2401,12.2985,57.9999,-0.0348,0.3036,-0.3329,186.9375
15:13:30:152,-0.4382,-0.5937,9.9141,58.246,0.5204,0.1277,0.0397,186.9375
15:13:30:168,0.7636,0.5459,8.3148,58.3062,0.7263,-0.1808,0.2816,185.7344
15:13:30:188,1.9271,1.3143,8.0273,58.5156,0.5498,-0.3854,0.2596,185.7344
15:13:30:207,2.2983,1.5323,8.3865,58.8483,0.179,-0.2792,-0.0073,184.7969
15:13:30:226,1.3502,1.0989,8.2717,58.8765,-0.1839,0.1081,-0.3732,184.7031
15:13:30:252,-0.0861,0.7014,7.8861,59.0218,-0.3824,0.4209,-0.62,184.2188
15:13:30:270,-1.1994,0.62,7.7569,59.3128,-0.3781,0.4416,-0.6579,184.1562
15:13:30:288,-0.5219,1.1252,8.2214,59.7243,-0.0312,0.0183,-0.3592,184.4531
15:13:30:308,0.1268,1.7309,8.3387,59.8196,0.0672,-0.0189,-0.3134,184.4844
15:13:30:327,0.3497,1.9992,8.3339,59.9362,0.0226,0.1472,-0.3891,185.0625
15:13:30:351,0.2512,1.9391,8.5181,60.2642,-0.058,0.3011,-0.5003,185.1094
15:13:30:370,0.1077,1.7716,8.729,60.5354,-0.091,0.3708,-0.5846,186.1406
15:13:30:387,-0.1196,1.7261,8.9587,61.3097,-0.0904,0.3641,-0.62,186.2344
15:13:30:408,-0.4023,1.6807,9.0927,61.94,-0.077,0.314,-0.6157,187.0312
15:13:30:425,-0.8788,1.5826,9.5333,62.5443,-0.1026,0.2676,-0.5711,187.125
15:13:30:448,-1.2736,1.707,10.1629,62.9559,-0.1594,0.2773,-0.4636,187.0156
15:13:30:469,-1.5299,1.7261,10.6681,63.5294,-0.1997,0.281,-0.3189,186.9531
15:13:30:541,-1.7477,1.7548,12.0879,64.028,-0.2083,0.1613,-0.1576,186.9531
15:13:30:542,-1.6663,1.8864,13.5051,64.3854,-0.0794,0.0886,0.014,187.8594
15:13:30:542,-1.4773,2.15,12.7702,64.7931,0.2474,0.1399,0.1387,187.8594
15:13:30:550,-1.4677,2.4802,11.3001,64.9358,0.543,0.0647,0.1509,188.9531
15:13:30:565,-1.9319,2.7173,10.8667,65.0125,0.6585,-0.212,0.0684,188.9531
15:13:30:586,-2.3294,2.8083,10.503,65.2837,0.6854,-0.5149,-0.0208,189.7031
15:13:30:606,-2.2696,2.3581,10.3256,65.5619,0.5571,-0.733,-0.091,189.7031
15:13:30:626,-1.8769,1.0104,12.1693,65.6905,0.1326,-0.7813,-0.1497,190.6094
15:13:30:646,-1.8793,-0.1388,15.3269,66.0097,-0.2975,-0.496,-0.1344,190.6094
15:13:30:665,-2.5881,-0.711,15.2384,66.1264,-0.1759,0.0617,-0.0037,191.7969
15:13:30:686,-3.0332,-0.498,11.7981,66.3496,0.4636,0.3622,0.2529,191.7969
15:13:30:707,-2.5857,0.3353,8.5588,66.4091,1.061,0.1087,0.5149,192.875
15:13:30:726,-1.7883,1.4151,7.3666,66.7289,1.1991,-0.2877,0.631,192.9688
15:13:30:750,-1.1635,2.0495,7.3044,66.4887,0.9456,-0.347,0.5724,193.625
15:13:30:766,-0.9577,1.841,7.0268,66.3418,0.576,-0.091,0.3964,193.6875
15:13:30:786,-0.9984,1.1779,6.4642,66.33,0.2248,0.1894,0.2278,193.75
15:13:30:832,-1.4438,0.7947,7.1895,66.3691,-0.3158,0.2199,0.1307,193.75
15:13:30:832,-1.5993,0.9027,7.9005,66.5653,-0.3659,0.1258,0.1631,193.6094
15:13:30:847,-1.6137,0.8067,7.8048,66.3546,-0.2559,0.0177,0.2065,193.5938
15:13:30:866,-1.5036,0.9099,7.6421,66.1844,-0.168,-0.1014,0.2627,193.9219
15:13:30:885,-1.2999,1.2353,7.855,65.7863,-0.2327,-0.1295,0.2969,193.9531
15:13:30:906,-1.2903,1.5395,8.3554,65.7947,-0.4129,-0.0165,0.2859,194.5312
15:13:30:925,-1.573,1.8553,8.9204,65.5555,-0.54,0.1393,0.2596,194.5938
15:13:30:946,-1.6807,2.394,9.44,65.2924,-0.4795,0.2034,0.2584,194.7031
15:13:30:966,-1.3047,2.6527,9.4543,64.8822,-0.273,0.2016,0.2468,194.125
15:13:30:986,-0.9003,2.5161,8.4655,64.7166,-0.1161,0.1918,0.1839,194.125
15:13:31:005,-0.8019,2.6647,8.7218,64.5421,-0.1747,0.0629,0.0996,193.3594
15:13:31:025,-0.6751,2.77,10.8643,64.2939,-0.2993,-0.1387,0.0079,193.3594
15:13:31:046,-0.5722,2.2839,12.1358,64.1193,-0.2529,-0.157,-0.0916,192.7969
15:13:31:066,-0.577,1.6424,11.7957,63.8246,-0.1051,-0.0605,-0.1442,192.7969
15:13:31:086,-0.51,1.3167,10.8643,63.6655,-0.0171,-0.0611,-0.1075,192.3125
15:13:31:106,-0.0981,1.3884,10.7806,63.4918,-0.0831,-0.2089,-0.0189,192.3125
15:13:31:125,0.8258,1.4773,11.2642,63.5115,-0.2724,-0.3085,0.0476,191.7656
15:13:31:147,2.1093,1.1348,11.8795,63.1289,-0.5198,-0.2828,-0.0055,191.7656
15:13:31:167,2.6264,0.4238,13.3424,62.7903,-0.8466,-0.099,-0.2413,191.0938
15:13:31:187,2.0495,-0.5435,14.8624,62.4189,-1.1331,0.3323,-0.5479,191.0938
15:13:31:206,0.7469,-1.3932,14.9201,62.0865,-1.0623,0.7752,-0.7416,190.2969
15:13:31:226,-0.2584,-1.5036,13.1722,62.0055,-0.5821,0.9028,-0.7116,190.2969
15:13:31:247,-0.4573,-1.1133,11.3958,62.0147,-0.0024,0.5858,-0.5485,189.5781
15:13:31:266,0.0502,-0.6775,10.3448,62.1843,0.4368,0.0501,-0.3989,189.5156
15:13:31:286,0.7181,-0.3903,9.4089,62.1005,0.6591,-0.3244,-0.3372,189.125
15:13:31:309,0.687,0.0598,7.6349,62.1809,0.5076,-0.3256,-0.5498,189.0938
15:13:31:327,-0.2752,0.0526,6.9404,62.444,0.2938,-0.135,-0.697,189.125
15:13:31:350,-1.2018,0.0479,6.5767,62.7916,0.124,-0.0128,-0.7257,189.125
15:13:31:366,-1.6208,0.2273,6.5001,63.0748,0.0617,-0.0214,-0.6127,189.375
15:13:31:385,-1.4151,0.5985,6.5504,63.336,0.0892,-0.1057,-0.4288,189.3906
15:13:31:405,-0.6153,1.0008,6.725,63.5671,0.1106,-0.1839,-0.2651,189.3906
15:13:31:425,0.0885,1.4342,7.1656,63.6662,0.0745,-0.2077,-0.2052,189.3906
15:13:31:446,0.6344,1.8577,7.5846,63.7996,0.0165,-0.1894,-0.2645,189.4531
15:13:31:465,0.7947,2.1547,7.9508,64.0943,-0.0385,-0.1625,-0.4154,190.2188
15:13:31:486,0.256,2.1165,8.7147,64.1148,-0.1057,-0.1582,-0.6017,190.2188
15:13:31:506,-0.4597,1.7788,9.428,64.1339,-0.1289,-0.1472,-0.7135,191.375
15:13:31:526,-1.0558,1.5227,10.1175,64.0755,-0.0947,-0.1515,-0.7,191.375
15:13:31:546,-1.506,1.4557,10.9771,63.9922,-0.036,-0.1735,-0.5773,192.4688
15:13:31:566,-1.6161,1.6089,11.5708,64.0221,0.0171,-0.1167,-0.3751,192.4688
15:13:31:586,-1.2927,1.8793,12.2578,63.988,0.0458,-0.0269,-0.1533,193.8594
15:13:31:605,-1.1204,2.071,12.2626,63.9995,0.0928,0.1295,0.0055,193.8594
15:13:31:627,-1.2233,2.1619,12.0374,63.6757,0.1668,0.2169,0.0867,195.375
15:13:31:646,-1.6352,2.2146,11.3719,63.8658,0.2773,0.1613,0.1185,195.5312
15:13:31:667,-2.1906,2.2337,10.7207,63.9956,0.3433,0.0098,0.1356,196.7344
15:13:31:687,-2.3174,2.3773,10.0863,64.1225,0.3066,-0.1552,0.2016,196.7344
15:13:31:705,-1.7285,2.3246,10.0481,63.902,0.1283,-0.2822,0.2578,197.3438
15:13:31:726,-1.3023,1.6161,11.202,63.462,-0.1991,-0.3751,0.2175,197.3438
15:13:31:746,-1.1874,0.5363,13.8978,63.1717,-0.5211,-0.4447,0.1442,198.0625
15:13:31:767,-1.4486,-0.2922,16.4043,62.8006,-0.4807,-0.4471,0.1167,198.1406
15:13:31:787,-1.9008,-0.7301,15.0015,62.4645,0.069,-0.2285,0.1582,199.4375
15:13:31:833,-2.2768,-0.6033,10.7997,62.1857,0.6884,-0.0611,0.2529,199.5625
15:13:31:833,-2.2217,-0.0694,8.0847,61.8104,0.6579,-0.3653,0.441,200.8594
15:13:31:848,-1.8075,0.2776,7.2302,61.3309,0.2474,-0.339,0.4661,200.9844
15:13:31:868,-1.3789,0.1053,7.9771,61.2149,-0.1075,-0.1203,0.4917,201.5469
15:13:31:886,-1.1252,0.2297,8.0441,61.1488,-0.3109,0.1093,0.5498,201.5938
15:13:31:906,-0.7205,0.4741,8.0991,60.9589,-0.3799,0.2181,0.6115,201.5312
15:13:31:925,-0.2441,0.6248,7.9484,60.3686,-0.3738,0.2596,0.6408,201.5156
15:13:31:946,-0.0096,0.6918,8.1736,60.0721,-0.3757,0.2462,0.6231,201.375
15:13:31:967,-0.1196,1.1037,8.6258,59.3913,-0.3531,0.2144,0.5968,201.0312
15:13:31:986,-0.285,1.9199,8.645,58.6879,-0.237,0.2107,0.5846,201.0312
15:13:32:005,-0.0694,2.5499,8.056,58.2786,-0.0886,0.2242,0.5583,200.5469
15:13:32:026,0.4214,2.837,7.6732,57.6636,-0.0385,0.1997,0.46,200.5469
15:13:32:046,0.5722,2.8107,8.6545,57.0998,-0.1289,0.1301,0.2694,200.2344
15:13:32:066,0.1005,2.5184,10.3881,56.4619,-0.1704,0.1008,0.047,200.2344
15:13:32:086,-0.6727,1.8673,10.9795,56.4015,0.0153,0.1338,-0.1197,199.8906
15:13:32:106,-1.1683,1.2951,10.2945,56.1977,0.3128,0.1307,-0.157,199.8906
15:13:32:126,-0.9601,1.5179,9.5572,56.0784,0.4923,0.0305,-0.0837,199.8906
15:13:32:147,-0.0694,1.8123,10.1318,55.9492,0.43,-0.1393,-0.0421,199.1562
15:13:32:167,0.5506,1.3358,12.131,55.8061,0.2266,-0.2187,-0.1216,197.9531
15:13:32:186,0.7804,0.6368,13.0071,55.8126,0.1533,-0.1124,-0.2352,197.9531
15:13:32:206,0.3736,0.2058,12.2746,55.7968,0.2144,-0.0043,-0.3103,196.3594
15:13:32:226,0.0981,0.2874,11.8364,56.0074,0.2052,-0.0336,-0.2804,196.3594
15:13:32:247,0.28,0.6033,11.6091,55.9111,0.1124,-0.0928,-0.1881,194.9688
15:13:32:268,0.431,0.419,11.578,55.9722,0.0183,-0.1747,-0.1558,194.8281
15:13:32:286,0.553,-0.4597,12.2219,55.9012,-0.0574,-0.2706,-0.1478,193.5781
15:13:32:306,0.7445,-1.0056,12.9808,55.8573,-0.0764,-0.2291,-0.0861,193.4531
15:13:32:326,0.8859,-0.8186,12.1765,55.8281,0.0324,0.0165,0.0067,192.6406
15:13:32:347,1.3238,0.1866,8.5995,55.9006,0.2059,0.0904,0.055,192.5625
15:13:32:366,1.7931,0.1436,8.6809,55.8455,0.0825,-0.2132,-0.0403,192.5781
15:13:32:386,1.6376,-0.1053,9.629,55.7494,-0.1234,-0.3775,-0.2016,192.5781
15:13:32:406,1.1037,-0.1436,10.2419,55.7019,-0.27,-0.2474,-0.3274,192.9219
15:13:32:425,0.5722,0.0311,9.6984,55.4868,-0.234,0.0556,-0.3964,192.9688
15:13:32:446,0.1795,0.4454,7.8933,55.3331,-0.0513,0.3073,-0.4184,193.2969
15:13:32:467,-0.1795,0.8354,6.2438,55.4118,0.1112,0.3335,-0.4386,193.9375
15:13:32:486,-0.3927,1.2688,5.2669,55.3697,0.1698,0.1979,-0.4423,193.9375
15:13:32:506,-0.4525,1.5778,4.9415,55.1087,0.1002,0.0476,-0.4441,194.5938
15:13:32:526,-0.3449,1.7764,5.7601,55.0459,-0.1008,-0.025,-0.4441,194.5938
15:13:32:588,0.134,2.0423,7.2254,55.1955,-0.3207,0.011,-0.4294,195
15:13:32:589,0.5363,2.2313,8.5445,55.1922,-0.4264,0.1087,-0.4746,195
15:13:32:589,0.4238,2.2409,9.3084,55.378,-0.4142,0.2004,-0.5895,195.0938
15:13:32:605,-0.3544,1.992,9.5644,55.7273,-0.3543,0.2297,-0.6939,195.1094
15:13:32:626,-0.9266,1.5179,10.3807,55.7125,-0.3189,0.1179,-0.6945,195.1094
15:13:32:646,-1.1563,1.1994,11.9034,55.8825,-0.2865,-0.0171,-0.5797,195
15:13:32:668,-1.5491,1.2257,13.2227,56.1251,-0.1949,0.033,-0.4038,195.3438
15:13:32:687,-1.8936,1.5395,13.1363,56.2115,-0.0104,0.273,-0.1613,195.3438
15:13:32:706,-1.6687,2.0064,12.1023,56.1779,0.1949,0.4728,0.1179,196.0781
15:13:32:726,-1.2162,2.4371,11.7814,56.3811,0.339,0.4264,0.3207,196.0781
15:13:32:746,-0.9218,2.7317,11.6641,56.4221,0.471,0.2559,0.383,196.9531
15:13:32:768,-0.8716,2.9566,11.391,56.3849,0.5742,0.1124,0.3299,196.9531
15:13:32:786,-1.197,3.0787,10.7112,56.6136,0.5901,0.0623,0.2077,197.8438
15:13:32:853,-1.6591,2.983,10.0696,56.7321,0.4716,0.0916,0.066,197.9375
15:13:32:853,-1.9463,2.4323,10.2419,56.827,0.2107,0.1716,-0.0599,198.7344
15:13:32:854,-2.9351,0.6344,11.3815,57.022,-0.0922,0.2028,-0.1509,198.8281
15:13:32:868,-3.4905,0.1819,11.4174,56.9091,0.0751,0.0513,-0.0458,199.7031
15:13:32:888,-3.6317,0.3066,10.1605,56.8648,0.3311,-0.0483,0.1417,199.7812
15:13:32:907,-3.4953,0.4836,8.6426,56.8853,0.4551,-0.1442,0.3244,201.0156
15:13:32:925,-2.9686,0.1555,8.0441,56.8856,0.3665,-0.347,0.4722,201.1406
15:13:32:946,-2.0925,0,8.7123,56.7444,0.1045,-0.4942,0.595,202.0312
15:13:32:970,-1.118,0.3568,9.938,56.6506,-0.1973,-0.3928,0.6597,202.1562
15:13:32:987,-0.5937,0.51,10.0026,56.6326,-0.3415,-0.0672,0.6237,202.1562
15:13:33:007,-0.6751,0.4501,9.3562,56.3547,-0.3299,0.1826,0.5333,201.5469
15:13:33:026,-0.9745,0.5363,8.5301,56.2375,-0.259,0.2816,0.4893,201.5469
15:13:33:049,-1.1946,0.7493,7.9149,56.101,-0.2016,0.292,0.5046,201.125
15:13:33:070,-1.3167,0.9577,7.7641,55.7745,-0.1747,0.2798,0.54,201.125
15:13:33:087,-1.2664,1.1659,7.7139,55.4587,-0.1319,0.281,0.5846,201.1094
15:13:33:107,-1.2592,1.3789,7.7091,55.067,-0.0568,0.2834,0.6145,201.2188
15:13:33:126,-1.264,1.5969,7.3379,54.59,0.0409,0.2957,0.6322,201.2188
15:13:33:149,-1.3286,1.8362,6.8782,54.1234,0.1051,0.2737,0.6518,201.4531
15:13:33:169,-1.2616,2.0638,6.8447,53.6952,0.0904,0.1625,0.6799,201.4531
15:13:33:189,-0.7445,2.2074,7.7378,53.3362,-0.0018,-0.0043,0.7006,201.4531
15:13:33:206,0.0215,2.5618,9.1071,52.8271,-0.1093,-0.0855,0.6573,200.8281
15:13:33:227,0.6631,2.9423,10.3857,52.4352,-0.1949,-0.011,0.4875,200.8281
15:13:33:248,0.8788,2.9973,11.9536,52.2211,-0.2498,0.1216,0.2046,199.5781
15:13:33:271,1.1252,2.5594,13.4955,52.1289,-0.168,0.1637,-0.1057,199.5781
15:13:33:287,1.4151,2.0207,13.783,52.2151,0.0764,0.1564,-0.3879,198.2656
15:13:33:307,0.5818,1.7381,12.5713,52.1229,0.2993,0.1668,-0.6347,198.1406
15:13:33:327,-0.7684,1.5897,11.0824,52.2814,0.3586,0.0941,-0.7367,196.9844
15:13:33:350,-0.213,1.5826,9.6673,52.6733,-0.0696,-0.3134,-0.5192,196.8594
15:13:33:371,-0.2297,0.3425,11.5469,53.09,-0.5583,-0.5528,-0.5375,195.5938
15:13:33:389,-1.1061,-1.0223,14.3839,53.2216,-0.9022,-0.7251,-0.5003,195.4688
15:13:33:407,-1.7166,-2.1691,16.1554,53.2498,-0.8112,-0.6823,-0.2749,194.1406
15:13:33:426,-1.3645,-2.7676,15.1834,53.2294,-0.2798,-0.4038,0.1399,194
15:13:33:447,-0.5411,-2.15,12.5976,53.0209,0.372,-0.1381,0.6237,192.6406
15:13:33:472,0.7205,-0.6942,10.0361,53.0885,0.8271,-0.1057,1.0067,191.1406
15:13:33:488,2.2576,0.9434,8.1039,52.9669,0.9218,-0.1784,1.0775,191.1406
15:13:33:506,3.4211,2.0973,7.4121,52.4891,0.6719,-0.2382,0.7629,190.2031
15:13:33:526,3.5719,2.1547,7.5078,52.0566,0.2694,-0.1136,0.1857,190.2031
15:13:33:548,2.2002,1.6543,7.302,51.9509,-0.0593,0.1912,-0.4117,190.5781
15:13:33:570,0.3832,1.264,6.7992,51.8569,-0.1802,0.3995,-0.7953,190.5781
15:13:33:588,-0.5818,1.3286,6.2438,51.8486,-0.11,0.4123,-0.8967,190.5781
15:13:33:606,-0.7397,1.6137,5.8992,52.2521,0.0324,0.2944,-0.8552,192.1875
15:13:33:628,-0.5554,1.8529,6.0595,52.2422,0.1411,0.0941,-0.8027,192.1875
15:13:33:648,-0.5195,2.0806,6.4714,52.4584,0.201,-0.0819,-0.7703,193.5625
15:13:33:671,-0.7636,2.3127,6.6844,52.7816,0.2297,-0.1851,-0.7367,194.5938
15:13:33:687,-0.8402,2.3103,7.2398,53.388,0.1985,-0.2902,-0.6713,194.5938
15:13:33:707,-0.256,2.2074,8.4583,53.7698,0.0983,-0.3738,-0.5821,194.6719
15:13:33:727,-0.1077,2.3438,9.5788,54.1381,-0.0599,-0.2431,-0.5479,194.6719
15:13:33:747,-0.7516,2.3318,10.0816,54.5362,-0.2602,0.0751,-0.5473,193.1562
15:13:33:772,-1.5084,1.7716,11.0201,54.5542,-0.4471,0.2804,-0.4844,193.1562
15:13:33:788,-1.9777,1.5275,12.1382,54.9558,-0.4826,0.2682,-0.281,191.6406
15:13:33:857,-2.8729,1.8984,12.8635,55.1912,-0.3409,0.1662,0.0159,191.5
15:13:33:858,-3.122,2.2433,14.307,55.2657,-0.044,-0.1026,0.3781,191.7188
15:13:33:858,-1.7381,2.0399,14.9848,55.1348,0.4752,-0.3635,0.7403,191.75
15:13:33:866,-0.2321,2.1715,14.0964,55.148,0.978,-0.3659,0.9596,193.25
15:13:33:889,-0.5602,3.1603,10.6944,55.281,1.011,0.0421,0.8094,193.4062
15:13:33:907,-1.1515,2.5642,9.8085,55.2553,0.711,0.0483,0.6481,195.0469
15:13:33:926,-1.3765,2.0662,10.7973,55.4284,0.4184,-0.2101,0.5601,195.2031
15:13:33:948,-1.2927,1.8864,11.7239,55.2252,0.2688,-0.3286,0.5473,196.8438
15:13:33:965,-1.3765,2.0518,10.7064,55.4035,0.2504,-0.1515,0.5638,197
15:13:33:986,-1.1994,2.3222,8.875,55.4888,0.1967,0.0159,0.5534,198.4062
15:13:34:006,-0.4382,2.2839,8.0776,55.4151,-0.0159,-0.0067,0.4392,198.5469
15:13:34:026,0.0646,1.8242,8.4105,55.3434,-0.3653,-0.0562,0.212,199.6094
15:13:34:048,-0.0096,1.1611,9.5237,55.2644,-0.7348,0.0043,-0.0165,199.7188
15:13:34:065,-0.1819,0.6727,9.9547,55.0065,-0.876,0.1924,-0.1301,200.2969
15:13:34:088,-0.9817,0.4621,9.0473,54.6629,-0.7355,0.4148,-0.1332,200.2969
15:13:34:107,-1.6352,0.3879,7.9101,54.6224,-0.4679,0.4746,-0.0122,199.7812
15:13:34:126,-1.1109,0.4501,7.5532,54.216,-0.1649,0.2883,0.215,199.7812
15:13:34:148,-1.0223,0.9697,7.3355,54.0122,0.1399,0.0275,0.4038,198.3281
15:13:34:171,-1.5419,1.5586,8.123,53.7699,0.4429,-0.3549,0.5131,196.8281
15:13:34:188,-1.6687,1.8673,8.8678,53.6385,0.8503,-0.6903,0.6218,196.8281
15:13:34:207,-1.2927,2.2457,8.2382,53.4176,1.2559,-0.6841,0.7416,195.7344
15:13:34:227,-0.9338,2.8585,6.8183,53.5172,1.3194,-0.3134,0.8112,195.7344
15:13:34:248,-0.5339,3.5169,5.9351,53.4176,0.9505,0.1484,0.8362,194.7188
15:13:34:270,0.1029,4.0603,6.2557,53.4048,0.3946,0.4172,0.8222,194.7188
15:13:34:288,0.7469,4.4578,7.8263,53.2976,-0.0623,0.3946,0.7049,193.6562
15:13:34:308,0.9673,4.6445,9.7319,53.2344,-0.2718,0.2138,0.4826,193.6562
15:13:34:327,1.0415,4.3741,10.6346,53.464,-0.2889,0.0861,0.223,193.2812
