Time,Acc_X,Acc_Y,Acc_Z,Meg,Gyr_X,Gyr_Y,Gyr_Z,Ore
19:13:20:562,-0.6751,3.0452,7.9603,66.5978,-0.2285,0.3146,0.4905,37.0469
19:13:20:692,-0.1795,4.3262,8.6139,65.4495,-0.0257,-0.0525,-0.036,60.0156
19:13:20:710,-0.364,4.4507,8.8152,65.7537,-0.014,-0.0024,-0.0403,60.0156
19:13:20:730,-0.5865,4.7354,8.6545,65.6447,0.055,0.0281,-0.0483,60.0156
19:13:20:749,-0.7229,4.8051,8.1975,65.7321,0.0837,0.0244,-0.0843,60.0156
19:13:20:768,-0.8764,4.611,8.1951,65.7327,0.0043,-0.014,-0.1313,60.0156
19:13:20:789,-1.0439,4.3813,8.741,65.7484,-0.1277,-0.0458,-0.1582,60.0156
19:13:20:809,-1.2927,4.2114,9.5429,65.36,-0.2248,-0.033,-0.1503,60.0156
19:13:20:827,-1.4557,4.2951,9.9428,65.5966,-0.2285,0.0446,-0.0941,60.0156
19:13:20:847,-1.4294,4.6397,9.8662,65.6413,-0.149,0.1515,-0.0092,60.0156
19:13:20:867,-1.2497,4.9175,9.3562,65.6119,-0.0147,0.2052,0.0568,60.0156
19:13:20:889,-1.1587,5.1879,8.4775,65.6335,0.1167,0.1924,0.077,56.8594
19:13:20:907,-1.2616,5.3509,7.7737,65.7009,0.1466,0.1503,0.0593,53.875
19:13:20:927,-1.3573,5.4203,7.6205,65.7824,0.0635,0.1026,0.0287,56.1719
19:13:20:947,-1.2903,5.4084,7.8694,66.0462,-0.0837,0.1203,0.0043,53.625
19:13:20:968,-1.2903,5.2956,8.298,66.0272,-0.2321,0.1759,-0.0183,52.2969
19:13:20:989,-1.4414,5.0946,8.863,65.9023,-0.2859,0.1607,-0.0397,49.3906
19:13:21:007,-1.7979,4.8864,8.9587,66.0295,-0.2114,0.1405,-0.036,52.4375
19:13:21:027,-1.9439,4.8601,8.4296,65.9715,-0.0819,0.1503,0.0275,50.2969
19:13:21:047,-1.8649,4.9774,7.8048,66.0459,0.0122,0.1527,0.1161,53.7656
19:13:21:068,-1.6831,5.1305,7.5221,66.0376,0.0556,0.1002,0.1888,52.8594
19:13:21:090,-1.4797,5.2167,7.3762,66.1723,0.0855,0.0098,0.2236,53
19:13:21:107,-1.3645,5.2406,7.2637,65.8783,0.1167,-0.0996,0.2248,53
19:13:21:127,-1.3454,5.219,7.113,65.7977,0.1118,-0.1759,0.2114,61.9219
19:13:21:148,-1.2999,5.1568,7.1991,65.9612,0.0134,-0.1869,0.1973,61.9219
19:13:21:168,-1.1444,5.0922,7.7282,65.8655,-0.1582,-0.1668,0.1924,61.8438
19:13:21:190,-0.9888,4.9534,8.633,65.9873,-0.2932,-0.1771,0.1888,61.8438
19:13:21:207,-0.8282,4.9271,9.5524,66.0868,-0.3189,-0.2028,0.1826,61.7031
19:13:21:229,-0.7612,4.8697,9.9141,66.0233,-0.2761,-0.1936,0.168,61.7031
19:13:21:248,-0.8572,4.7617,10.2251,65.9267,-0.2254,-0.215,0.1435,61.625
19:13:21:269,-0.8429,4.6158,10.716,65.9825,-0.1759,-0.2975,0.1442,61.6094
19:13:21:294,-0.6368,4.5966,11.5469,66.2363,-0.1203,-0.3922,0.171,61.5938
19:13:21:310,0.431,4.5081,11.1661,66.2212,0.0104,-0.2278,0.1729,61.5938
19:13:21:330,0.2898,4.156,10.7901,66.3823,-0.0446,-0.135,0.0825,61.375
19:13:21:347,-0.0239,3.8593,10.9986,66.2159,-0.1319,-0.1264,0.0348,61.3594
19:13:21:370,-0.0024,3.7062,10.9986,66.2594,-0.1374,-0.1234,0.0715,60.9375
19:13:21:393,0.5195,3.6703,10.4767,66.241,-0.0837,-0.0855,0.135,60.8906
19:13:21:409,1.185,3.7325,9.883,66.0213,-0.0837,-0.0092,0.1637,60.5312
19:13:21:428,1.3238,3.833,10.0505,66.0566,-0.1668,0.0672,0.1191,60.5
19:13:21:448,1.3023,3.3159,10.7136,65.8089,-0.1619,0.0855,0.0446,60.1719
19:13:21:468,1.1276,2.959,10.1725,65.6438,0.0562,0.1222,0.0183,60.1406
19:13:21:492,1.075,3.0957,8.7745,65.3912,0.3311,0.1454,0.0495,59.7812
19:13:21:509,1.3884,3.2991,7.2063,65.3083,0.4691,0.102,0.0788,59.7812
19:13:21:529,1.5778,3.603,6.2151,64.9303,0.3879,-0.0104,0.0312,59.5
19:13:21:548,1.5706,3.778,6.5001,64.8681,0.1209,-0.1631,-0.0916,59.5
19:13:21:569,1.3071,3.5862,7.5966,64.9302,-0.1881,-0.2462,-0.2529,59.2969
19:13:21:589,0.833,3.2321,8.8439,64.7243,-0.4172,-0.2181,-0.3806,59.0156
19:13:21:608,0.3999,3.0332,9.7439,64.7861,-0.482,-0.1362,-0.4154,59.0156
19:13:21:628,0.1866,3.2512,9.9787,64.776,-0.3714,-0.033,-0.3677,58.9375
19:13:21:648,0.2369,3.6245,9.1549,64.6715,-0.1399,0.0666,-0.2981,58.9375
19:13:21:668,0.2656,3.9526,7.7976,64.5792,0.0727,0.0977,-0.2596,58.75
19:13:21:691,0.352,4.276,6.8758,64.5718,0.1423,0.022,-0.248,58.75
19:13:21:708,0.3808,4.3669,6.804,64.3961,0.069,-0.1002,-0.2706,58.4219
19:13:21:728,0.3879,4.2281,7.5461,64.1805,-0.0623,-0.2156,-0.3054,58.4219
19:13:21:748,0.3999,4.0747,8.5469,64.1447,-0.1619,-0.2407,-0.3158,58.3125
19:13:21:768,0.285,3.9814,9.2052,63.9777,-0.1747,-0.1949,-0.2944,58.2969
19:13:21:792,0.4501,3.979,9.5261,63.8342,-0.0855,-0.1796,-0.234,58.1562
19:13:21:811,0.9817,5.0013,9.1693,64.143,0.1344,-0.1631,-0.1252,58.1406
19:13:21:829,0.9984,5.4395,9.1908,64.2409,0.1381,-0.1051,-0.1564,58.25
19:13:21:848,0.5794,5.4634,9.5668,64.3077,0.1277,-0.0519,-0.2205,58.2656
19:13:21:869,0.3114,5.298,10.1868,64.5072,0.1753,-0.0299,-0.2193,58.9688
19:13:21:893,0.5722,5.2573,10.2419,64.5448,0.2895,0.0134,-0.1552,59.0312
19:13:21:908,0.8572,5.4849,10.2993,64.774,0.3665,0.0501,-0.1509,59.8281
19:13:21:927,0.565,5.2334,10.3591,64.8089,0.3622,0.1142,-0.2566,59.9062
19:13:21:947,-0.7086,4.8888,9.95,64.6983,0.3164,0.2309,-0.3891,60.4219
19:13:21:968,-2.1404,4.7163,9.4496,64.5607,0.2327,0.3616,-0.4184,60.4844
19:13:21:993,-2.9758,5.0539,8.863,64.523,0.1118,0.507,-0.303,61.0312
19:13:22:009,-2.8394,5.3605,8.1784,64.4995,-0.0354,0.5424,-0.1539,61.0781
19:13:22:028,-2.0136,4.6899,8.9468,64.3496,-0.2272,0.2871,-0.0831,61.8594
19:13:22:048,-1.185,3.6631,10.946,64.3424,-0.3683,-0.0458,-0.0855,61.8594
19:13:22:068,-1.6807,3.0523,12.9425,64.2876,-0.3201,-0.1387,-0.1155,62.5
19:13:22:093,-2.6695,2.7556,12.5856,64.3611,-0.0159,0.2175,-0.0476,62.9062
19:13:22:107,-2.758,2.8011,9.5716,64.3287,0.4282,0.6469,0.1613,62.9062
19:13:22:128,-2.3438,3.1962,6.603,64.0742,0.7019,0.6347,0.358,63.3594
19:13:22:148,-1.4509,3.5527,5.4203,64.0069,0.6389,0.2462,0.4679,63.3594
19:13:22:169,-0.5698,3.5288,6.0476,64.0209,0.3176,-0.1075,0.4429,63.7969
19:13:22:191,-0.3616,3.2967,7.4743,64.1634,-0.0867,-0.179,0.3146,63.7969
19:13:22:208,-0.553,2.7652,8.5708,64.2607,-0.3824,-0.036,0.1851,64.2344
19:13:22:227,-0.8859,2.6647,9.2315,64.0474,-0.493,0.1295,0.1167,64.2344
19:13:22:248,-1.0774,2.5762,9.44,63.813,-0.427,0.2285,0.1087,64.9375
19:13:22:270,-1.2329,2.5522,9.0305,64.0319,-0.234,0.3073,0.1429,65.0156
19:13:22:296,-1.4246,2.7963,7.9196,64.0729,-0.0458,0.4142,0.2126,65.25
19:13:22:310,-1.64,3.0236,6.6317,63.9215,0.0263,0.4801,0.2822,65.2812
19:13:22:329,-1.1348,3.5408,6.6437,63.7762,-0.1484,0.1399,0.4245,65.3594
19:13:22:349,-0.6918,3.8689,7.5748,63.7463,-0.2278,-0.025,0.4447,65.375
19:13:22:370,-0.3736,4.18,8.3794,63.6767,-0.2523,-0.025,0.4245,65.5
19:13:22:392,-0.1555,4.5727,8.4679,63.5754,-0.2114,0.0562,0.3598,65.5156
19:13:22:407,-0.5363,4.3023,8.7386,63.6186,-0.1387,0.033,0.2388,64.7969
19:13:22:427,-1.0175,4.2401,8.7864,63.6409,-0.0733,-0.0043,0.1906,64.7344
19:13:22:448,-1.063,4.5272,9.0114,63.6145,-0.0336,-0.0629,0.2419,63.8594
19:13:22:522,-0.5985,4.6181,9.5788,63.6148,0.0336,-0.2352,0.2773,63.7656
19:13:22:523,-0.134,4.5607,10.2443,63.6093,0.0666,-0.419,0.2401,63.2812
19:13:22:523,0.213,4.3813,11.3049,63.3426,-0.0525,-0.4954,0.1692,63.2344
19:13:22:527,-0.1627,4.3693,12.6601,63.1976,-0.2065,-0.4887,0.0953,62.8281
19:13:22:547,-0.364,4.0316,13.4644,63.2049,-0.1949,-0.449,0.08,62.8281
19:13:22:568,0.0191,3.5527,12.6434,63.2859,-0.0379,-0.3323,0.1564,62.25
19:13:22:591,0.6105,3.548,11.1637,63.2005,0.0379,-0.3189,0.2449,61.3438
19:13:22:607,1.4533,3.5432,11.458,63.1755,-0.1662,-0.4453,0.2792,61.3438
19:13:22:627,2.3055,3.4331,13.395,63.1506,-0.4917,-0.4203,0.2682,60.3281
19:13:22:647,2.7102,3.3302,14.2663,62.9668,-0.5632,-0.0776,0.2126,60.3281
19:13:22:667,2.8513,3.2225,12.8755,63.0571,-0.2602,0.2834,0.1368,59.4219
19:13:22:689,2.8274,3.1795,10.4336,62.7756,0.2028,0.3054,0.0519,59.4219
19:13:22:707,2.8442,3.1675,8.4966,62.5769,0.5107,0.0415,-0.0483,58.9219
19:13:22:727,2.6767,3.2369,7.4504,62.4191,0.5418,-0.1906,-0.1826,58.9219
19:13:22:748,2.2816,3.1029,6.9452,62.0891,0.3751,-0.2138,-0.3439,58.4531
19:13:22:767,1.6711,2.8298,6.7872,61.8791,0.1472,-0.1112,-0.4893,58.4219
19:13:22:789,0.9625,2.5618,6.6126,61.7526,-0.0305,-0.0079,-0.5742,58.1875
19:13:22:807,0.3042,2.4921,6.6269,61.7643,-0.1124,-0.0385,-0.5815,58.1719
19:13:22:827,0.0383,2.6384,7.235,61.5833,-0.0977,-0.2223,-0.5198,58.1719
19:13:22:849,0.2608,3.4857,6.9811,61.6893,0.1222,-0.3128,-0.3848,58.1719
19:13:22:868,0.0718,3.711,6.3921,61.7255,0.1313,-0.3085,-0.3885,57.9062
19:13:22:891,0.1507,3.7229,7.1728,61.7674,0.022,-0.4734,-0.3677,57.875
19:13:22:907,1.0271,3.9455,8.8367,61.9069,-0.0409,-0.6964,-0.2883,57.4688
19:13:22:927,1.5849,4.3406,9.8375,62.0669,0.025,-0.7202,-0.281,57.4375
19:13:22:947,1.1803,4.5153,10.3857,62.0894,0.1319,-0.5937,-0.3812,57.0156
19:13:22:968,0.5961,4.2401,10.1246,62.1231,0.273,-0.4343,-0.4636,56.9844
19:13:22:989,-0.1196,4.2975,9.4759,61.9938,0.3824,-0.306,-0.4471,56.9219
19:13:23:007,-0.2922,4.6493,9.1717,61.9749,0.3671,-0.2364,-0.3109,56.9219
19:13:23:027,0.0407,5.1879,9.708,61.9712,0.2798,-0.1961,-0.1374,57.6094
19:13:23:047,0.5506,5.7458,10.1222,61.7814,0.2413,-0.0867,-0.0031,57.625
19:13:23:068,1.1539,6.1863,9.9954,61.81,0.2871,0.0586,0.0544,58.8125
19:13:23:090,1.4414,6.4738,9.6386,61.7017,0.3268,0.1466,0.0128,60.0781
19:13:23:107,1.2281,6.3969,9.4974,61.7011,0.2999,0.1533,-0.11,60.0781
19:13:23:127,0.2369,6.1217,9.8925,61.6173,0.2175,0.1405,-0.2456,61.1406
19:13:23:147,-0.9984,5.9997,10.285,61.6229,0.1435,0.2132,-0.2914,61.1406
19:13:23:167,-1.4892,5.8367,10.0002,61.7093,0.1173,0.3482,-0.2272,62.1562
19:13:23:191,-1.0271,5.3773,9.7534,61.6615,0.0806,0.3543,-0.1497,62.1562
19:13:23:207,-0.1866,4.2114,10.503,61.6256,-0.0024,0.1552,-0.1509,63.0938
19:13:23:227,-0.5937,3.1795,12.4828,61.207,-0.0336,-0.1374,-0.2114,63.0938
19:13:23:248,-1.5036,2.3916,13.2419,61.3007,0.1607,-0.1258,-0.1765,64.2656
19:13:23:267,-1.9056,1.9247,11.2355,61.2718,0.518,0.2187,-0.0159,64.2656
19:13:23:287,-1.908,2.0542,8.6043,61.0076,0.7379,0.474,0.1955,65.1406
19:13:23:309,-1.4486,2.8394,6.7418,61.0424,0.653,0.5162,0.4019,65.2344
19:13:23:327,-0.5435,3.699,6.481,61.0898,0.3237,0.4478,0.5125,65.4531
19:13:23:348,0.644,3.5001,6.9141,60.8653,-0.1368,0.2889,0.2694,65.4688
19:13:23:368,0.1029,2.8777,6.8112,60.8149,-0.2095,0.1796,0.0941,65.375
19:13:23:391,-0.5602,2.7485,7.3762,60.8271,-0.3201,0.0489,0.0434,65.3594
19:13:23:406,-0.7923,2.77,8.3387,60.578,-0.3891,-0.033,0.1008,65.6406
19:13:23:428,-0.8282,2.8035,8.7027,60.4445,-0.2963,-0.0031,0.193,65.6719
19:13:23:447,-0.5794,3.189,8.2334,60.5044,-0.1136,0.0892,0.3195,66.0625
19:13:23:467,-0.1771,3.9191,7.6397,60.2836,0.0452,0.1326,0.4227,66.1094
19:13:23:492,0.2058,4.4674,7.2182,60.0563,0.1484,0.102,0.4374,66.2969
19:13:23:508,0.2417,4.6851,7.1273,60.0853,0.1857,0.0208,0.3677,66.3125
19:13:23:528,0.0981,4.7354,7.4839,60.1826,0.1741,-0.0867,0.2902,66.7656
19:13:23:547,0.0981,4.7836,8.1401,60.165,0.1374,-0.1344,0.2602,66.8125
19:13:23:568,0.0861,5.018,8.6809,60.1161,0.124,-0.1393,0.2602,66.4688
19:13:23:593,0.4813,5.2908,9.2773,60.0681,0.1429,-0.171,0.2511,65.2344
19:13:23:609,0.8354,5.1544,9.5429,60.042,0.1808,-0.1955,0.1955,65.2344
19:13:23:630,0.5554,4.654,9.6673,59.9632,0.16,-0.1955,0.1142,64.25
19:13:23:648,0.5913,4.4028,10.06,59.9926,0.022,-0.1515,0.1448,64.25
19:13:23:669,0.8019,4.52,10.5724,59.9766,-0.1588,-0.0629,0.2285,64
19:13:23:693,0.9147,4.774,11.3264,59.7374,-0.2816,-0.0012,0.3036,64
19:13:23:710,1.6998,4.8817,11.6569,59.6229,-0.2388,0.0018,0.4142,63.6562
19:13:23:730,3.0787,5.0539,10.8332,59.3682,-0.0446,-0.0525,0.5064,63.6562
19:13:23:748,4.2832,5.2837,9.9835,59.418,0.0928,-0.2144,0.4569,62.7812
19:13:23:769,4.7521,5.0109,10.1845,59.2663,0.0354,-0.372,0.2205,62.7812
19:13:23:793,3.8258,4.4004,11.1398,59.3743,-0.1295,-0.3286,-0.1051,61.9531
19:13:23:808,2.8848,3.6054,10.7399,58.9344,-0.1765,-0.0825,-0.306,61.875
19:13:23:830,2.5905,3.268,9.8782,58.7163,-0.1307,0.0305,-0.3543,61.3906
19:13:23:849,2.636,3.2106,9.4543,58.6114,-0.1075,-0.055,-0.3751,61.3438
19:13:23:870,1.4916,2.9064,9.0377,58.7254,-0.1875,-0.1136,-0.5571,60.9062
19:13:23:894,0.6009,2.6791,8.7625,58.898,-0.2743,0.0171,-0.5821,60.875
19:13:23:909,0.0335,2.7341,8.511,58.6405,-0.3134,0.1393,-0.5058,60.6562
19:13:23:930,-0.0909,3.1364,8.1159,58.5144,-0.27,0.1949,-0.3696,60.6406
19:13:23:948,0.067,3.6823,7.9364,58.4562,-0.1808,0.1839,-0.2553,60.3281
19:13:23:970,-0.0335,4.0675,7.6158,58.8265,-0.0599,0.171,-0.2114,60.2969
19:13:23:987,-0.1196,4.1919,7.0914,58.9481,0.077,0.135,-0.2095,59.5781
19:13:24:008,-0.0885,4.3621,6.6676,58.966,0.1594,0.08,-0.1985,59.5
19:13:24:029,0.0479,4.6445,6.7394,58.7809,0.1222,0.0788,-0.1759,58.6094
19:13:24:048,0.1723,4.8673,7.1297,58.8951,0.0281,0.1716,-0.1521,58.5156
19:13:24:070,0.4765,4.8912,7.6277,58.9594,-0.0483,0.3292,-0.1319,58.5781
19:13:24:093,0.2632,4.8194,8.4033,59.0435,-0.1332,0.5754,-0.1075,59.3125
19:13:24:110,-0.1412,4.9295,9.1597,59.0015,-0.2071,0.8808,-0.0446,59.3125
19:13:24:128,-0.8115,4.9965,9.4208,58.6162,-0.1209,0.9993,0.011,60.2812
19:13:24:148,-1.051,4.8386,8.9372,58.4929,0.0593,0.9303,0.0764,60.2812
19:13:24:168,-1.1085,5.8056,7.0026,58.2735,0.2346,0.6078,0.146,61.5625
19:13:24:189,-1.3262,5.3605,8.0273,58.5707,0.248,-0.036,0.1332,61.5625
19:13:24:207,-1.4246,5.6357,10.448,58.3363,0.0629,-0.1405,0.1881,62.4375
19:13:24:227,-1.5012,6.0332,11.4269,58.3506,0.0177,0.1759,0.226,62.4375
19:13:24:247,-2.0973,6.2175,10.3496,58.5306,0.1649,0.4465,0.1686,62.8594
19:13:24:268,-2.3557,5.892,8.9755,58.5874,0.3085,0.3592,0.1271,62.8594
19:13:24:289,-3.1101,5.5926,8.5493,59.0018,0.3036,0.1032,0.0971,63.2188
19:13:24:316,-3.9096,4.9463,9.6745,59.0813,0.2016,-0.1771,0.1429,63.25
19:13:24:331,-5.0563,4.3717,11.3575,59.2033,0.1558,-0.2749,0.2804,63.5312
19:13:24:348,-4.4195,3.5886,11.0848,58.9919,0.2578,-0.1148,0.5809,63.5625
19:13:24:368,-2.9853,2.7006,10.7016,59.294,0.4074,-0.0745,0.865,63.5781
19:13:24:388,-2.0806,2.7054,11.1087,59.2836,0.551,0.1826,1.1362,63.5781
19:13:24:408,-1.8625,3.2967,10.1175,59.1329,0.5272,0.518,1.1001,63.1562
19:13:24:427,-2.4179,3.6078,7.18,58.831,0.3573,0.6512,1.0348,63.1094
19:13:24:447,-1.951,3.6703,6.6891,58.4132,0.0843,0.5852,1.0482,62.5469
19:13:24:467,-1.0678,3.3876,6.9356,58.2286,-0.2413,0.3885,1.0531,62.5
19:13:24:487,-0.6392,3.1938,8.3315,58.1603,-0.5937,0.1625,0.9945,62.2344
19:13:24:507,-0.3257,2.9877,10.4504,58.1583,-0.8405,0.1271,0.9267,62.2031
19:13:24:527,-0.5267,2.5594,10.7758,57.8303,-0.7935,0.4117,0.8472,61.6719
19:13:24:576,-1.0893,2.2122,9.1334,57.5392,-0.543,0.7495,0.8326,61.625
19:13:24:577,-1.3717,2.4084,7.8598,57.3792,-0.3134,0.7929,0.9651,61.2969
19:13:24:586,-0.9984,3.0045,7.678,57.6873,-0.1197,0.5406,1.1557,60.9844
19:13:24:610,-0.3209,3.548,7.9843,57.7136,0.0825,0.2657,1.2443,60.9844
19:13:24:627,0.012,3.7301,8.1449,57.5669,0.2419,0.1613,1.1875,59.5
19:13:24:648,-0.268,3.5432,7.5365,57.4916,0.2767,0.2755,1.0604,59.5
19:13:24:668,-0.5578,3.4331,7.424,57.1802,0.124,0.4251,0.9871,57.125
19:13:24:693,-0.4286,3.5456,8.164,56.9716,-0.1057,0.485,0.9914,57.125
19:13:24:710,-0.0455,3.7181,9.1382,56.9085,-0.2456,0.4484,0.9926,54.4688
19:13:24:727,0.3712,3.8713,10.0935,56.5498,-0.2504,0.3518,0.9664,54.4688
19:13:24:748,0.7732,3.9646,10.515,56.2573,-0.1484,0.2535,0.9096,51.8281
19:13:24:768,0.754,4.0173,10.5389,56.1095,-0.0055,0.179,0.8124,51.8281
19:13:24:791,0.5004,4.0268,10.3857,56.0148,0.0971,0.1167,0.733,49.5625
19:13:24:807,0.4358,3.9885,10.1246,55.9563,0.1442,0.0928,0.7275,49.5625
19:13:24:827,0.7612,4.1369,9.6362,55.8808,0.1515,0.1032,0.7849,47.5156
19:13:24:848,1.1707,4.5751,9.4137,55.687,0.0941,0.1209,0.8497,47.3125
19:13:24:867,1.6208,4.8506,9.1717,55.6108,0.0086,0.1918,0.8485,44.8281
19:13:24:893,0.364,4.2162,8.4918,55.6944,-0.2498,0.2352,0.5082,44.5938
19:13:24:911,-0.5124,3.2656,10.0481,55.6516,-0.4062,0.0678,0.4264,42.0469
19:13:24:928,-0.5291,2.8059,10.7447,55.6715,-0.3958,0.0544,0.5498,41.7969
19:13:24:947,0.1842,2.8131,11.633,55.5599,-0.2621,0.0202,0.7239,39.5625
19:13:24:967,1.1563,2.8801,11.1709,55.2129,-0.0647,0.0672,0.8259,39.3438
19:13:24:987,1.5634,3.0308,10.3304,55.1527,0.0342,0.1045,0.8063,37.0938
19:13:25:007,1.8888,3.5216,10.0911,55.3061,-0.0654,0.1203,0.7287,36.875
19:13:25:028,1.7572,3.6006,9.8853,55.1819,-0.2419,0.2468,0.5834,34.8281
19:13:25:048,0.9314,3.3637,9.3275,55.1033,-0.3604,0.3928,0.4264,34.625
19:13:25:067,0.0479,3.3111,8.7721,54.7823,-0.3537,0.3818,0.3677,32.9844
19:13:25:090,-0.3927,3.28,8.4009,54.7402,-0.2468,0.2285,0.394,31.1094
19:13:25:107,-0.4573,3.2536,7.9962,54.766,-0.113,0.0928,0.4545,31.1094
19:13:25:127,-0.4406,3.3996,7.3475,54.8121,-0.0257,0.077,0.5033,29.1562
19:13:25:147,-0.5004,3.4355,6.536,54.9017,-0.0305,0.1448,0.5131,29.1562
19:13:25:167,-0.6703,3.2034,6.1552,54.9961,-0.1387,0.1686,0.5094,27.6406
19:13:25:191,-0.5674,3.0188,7.2805,55.1388,-0.295,0.0788,0.5589,27.6406
19:13:25:207,-0.1172,3.0117,8.6521,55.0652,-0.3427,0.0092,0.6573,26.5156
19:13:25:227,0.2058,3.2345,9.1717,55.1989,-0.2364,0.0275,0.7306,26.5156
19:13:25:248,0.7229,3.7014,9.4783,55.1978,-0.0843,0.0666,0.7721,24.7969
19:13:25:269,1.2401,4.4076,10.3519,55.1381,0.011,0.1552,0.7605,24.7969
19:13:25:291,1.0917,5.0563,11.0967,55.3975,0.0855,0.3152,0.6903,23.0469
19:13:25:307,0.4214,5.5687,11.4796,55.3632,0.2107,0.4453,0.6353,23.0469
19:13:25:328,-0.431,5.9088,11.2116,54.8998,0.3964,0.5253,0.6652,21.875
19:13:25:347,-0.9745,6.038,10.5461,54.6973,0.6035,0.4875,0.7831,21.7656
19:13:25:367,-0.8644,5.8798,10.1151,54.6395,0.7294,0.3439,0.9676,20.8594
19:13:25:388,-0.309,5.6477,10.6705,54.6584,0.6939,0.2114,1.1631,20.7656
19:13:25:409,0.5578,5.3557,12.8755,54.6172,0.5473,0.383,1.3855,19.7656
19:13:25:429,0.0263,5.0515,12.7846,54.7457,0.7562,0.6145,1.3818,19.6719
19:13:25:447,-0.917,4.6732,10.2084,54.7046,1.127,0.876,1.372,18.5781
19:13:25:467,-1.628,4.4602,7.3905,54.6958,1.3274,0.8527,1.4154,18.4688
19:13:25:490,-1.4509,4.2257,7.1441,54.7319,1.1539,0.449,1.5382,17.2344
19:13:25:507,0.1747,3.8833,9.8806,54.9266,0.7648,0.0208,1.694,17.125
19:13:25:527,1.3597,3.821,12.612,54.8494,0.5015,0.0263,1.7251,15.6094
19:13:25:548,1.6543,3.6775,12.7247,54.6252,0.4868,0.4801,1.5834,15.4531
19:13:25:568,1.0965,3.4092,10.6944,54.5473,0.598,0.9242,1.3653,13.8906
19:13:25:592,0.4789,3.2106,8.5493,54.4653,0.6182,1.0305,1.1838,12.0469
19:13:25:612,0.0526,3.2177,7.6062,54.1461,0.4508,0.8949,1.0513,12.0469
19:13:25:630,-0.0598,3.1125,7.7833,54.1378,0.2138,0.6939,0.9456,9.8594
19:13:25:647,-0.256,2.6719,8.0297,54.1143,0.0513,0.6127,0.8527,9.8594
19:13:25:668,-0.4549,2.3103,7.6134,53.7833,-0.0415,0.7122,0.8106,6.9531
19:13:25:692,-0.4238,2.2959,6.4376,53.7632,-0.1319,0.8491,0.8442,6.9531
19:13:25:709,-0.2441,2.339,5.4969,53.6297,-0.3042,0.8136,0.9218,3.5781
19:13:25:727,0.1938,2.4969,5.8893,53.4552,-0.5528,0.5834,1.0183,3.5781
19:13:25:748,1.0152,2.9231,7.4982,53.4813,-0.7336,0.3433,1.0726,0.2188
19:13:25:768,1.8123,3.6221,9.3156,53.4742,-0.7019,0.2761,1.0018,359.875
19:13:25:786,2.1141,4.0149,9.8207,53.337,-0.4606,0.5143,0.7733,356.0625
19:13:25:809,1.2879,3.9742,8.6641,53.3121,-0.1839,0.9358,0.4716,356.0625
19:13:25:829,0.189,3.7062,7.5413,53.3303,-0.0806,1.1789,0.2932,352.5312
19:13:25:848,-0.28,3.6389,7.8526,53.6163,-0.1429,1.1099,0.3183,352.1719
19:13:25:868,0.0598,4.0986,8.9683,53.6807,-0.1814,0.8973,0.4532,348.9062
19:13:25:894,0.7708,4.7426,9.7893,53.933,-0.1002,0.7025,0.5565,348.5938
19:13:25:911,1.8745,5.3557,10.436,53.882,0.0067,0.5467,0.573,346.0156
19:13:25:930,1.8745,5.3868,10.2586,54.1877,0.0941,0.3812,0.4581,345.7656
19:13:25:947,1.5778,4.9702,10.3041,54.2933,0.0214,0.2914,0.3848,343.6719
19:13:25:969,1.5873,4.5392,9.7941,54.418,-0.0696,0.259,0.3604,343.4531
19:13:25:988,1.8099,4.1895,9.2725,54.7131,-0.2242,0.2388,0.3292,341.1875
19:13:26:010,1.5419,3.6461,10.0433,54.7194,-0.4594,0.1564,0.223,340.9688
19:13:26:027,0.9697,2.8825,11.2283,54.8722,-0.6066,0.1038,0.1435,338.6719
19:13:26:047,0.2584,2.2887,11.8795,55.0042,-0.5186,0.0635,0.1875,338.4375
19:13:26:069,0.2154,1.9753,11.4796,54.8739,-0.2175,-0.0202,0.4038,336.5156
19:13:26:092,1.2879,2.3557,10.017,54.7374,0.1405,-0.1399,0.7061,334.8281
19:13:26:110,2.7915,3.1795,8.5804,54.6022,0.3323,-0.2602,0.865,334.8281
19:13:26:127,4.1536,4.0938,7.7115,54.5457,0.2425,-0.2792,0.7501,333.3906
19:13:26:147,4.4913,4.5894,7.3403,54.3391,-0.0599,-0.1356,0.35,333.3906
19:13:26:169,3.2943,4.1393,7.6062,54.2814,-0.4221,0.0782,-0.204,331.7812
19:13:26:192,1.5849,3.0691,7.9316,54.3601,-0.6732,0.2688,-0.6365,331.7812
19:13:26:210,0.146,2.3629,8.0225,54.1409,-0.7434,0.3341,-0.791,330.4219
19:13:26:228,-0.5124,2.1141,8.2932,54.3447,-0.6536,0.2223,-0.7177,330.4219
19:13:26:249,-0.309,2.3605,8.0058,54.2863,-0.4563,0.1032,-0.5437,329.5156
19:13:26:268,-0.0024,2.8585,7.4001,54.4416,-0.303,0.0647,-0.4368,329.4375
19:13:26:287,-0.2058,3.0619,7.0196,54.2844,-0.2963,0.1179,-0.4313,328.7344
19:13:26:312,-0.644,2.983,7.0914,54.3461,-0.3787,0.193,-0.4197,328.7344
19:13:26:329,-0.6248,3.026,7.491,54.1338,-0.4245,0.1888,-0.3237,328.3438
19:13:26:347,-0.1699,3.3972,8.3554,53.9943,-0.3989,0.0977,-0.1906,328.3438
19:13:26:368,0.4884,3.7875,8.9994,53.9525,-0.328,0.08,-0.099,327.2969
19:13:26:394,0.5674,4.0412,9.5285,54.0473,-0.2767,0.1362,-0.091,327.1875
19:13:26:410,-0.189,3.888,10.3807,54.0974,-0.1753,0.1093,-0.0519,325.6719
19:13:26:430,-0.1101,3.9383,10.7423,54.1227,-0.102,0.0018,0.0629,325.5312
19:13:26:448,0.6224,4.1465,11.3886,54.3274,-0.0794,-0.088,0.1942,325.4062
19:13:26:469,1.3597,4.343,12.7056,54.2966,-0.077,-0.1851,0.2303,325.3906
19:13:26:492,1.2066,4.4674,13.3185,54.5406,-0.0202,-0.1295,0.146,326.7344
19:13:26:508,0.2994,4.2281,13.2227,54.5934,0.0928,0.0092,0.0281,326.875
19:13:26:528,-0.7325,3.6197,12.7343,54.6815,0.259,0.1234,-0.011,328.0938
19:13:26:547,-1.5347,3.3613,11.5229,54.5131,0.4423,0.2535,0.0831,328.2188
19:13:26:569,-1.6687,3.3589,9.8686,54.2712,0.4954,0.4135,0.2614,329.0625
19:13:26:586,-1.2329,3.2584,9.2988,54.4332,0.3219,0.474,0.4374,329.9062
19:13:26:652,-0.644,3.0715,10.4934,54.392,0.08,0.405,0.565,329.9062
19:13:26:653,-0.5267,2.9016,11.5035,54.3042,0.0263,0.4087,0.6182,330.2031
19:13:26:653,-0.7229,2.9566,10.3759,54.1011,0.2223,0.5485,0.6548,330.2031
19:13:26:667,-0.6631,3.3565,7.9196,53.8695,0.4166,0.6145,0.6915,330.3594
19:13:26:688,-0.5363,3.9311,6.2988,53.7235,0.3073,0.5272,0.6469,330.3594
19:13:26:708,-0.821,3.8139,5.9327,53.5148,-0.1631,0.5107,0.4752,330.3281
19:13:26:727,-1.0845,3.038,7.7641,53.6529,-0.8308,0.543,0.306,330.3281
19:13:26:747,-0.7301,2.5331,10.6849,53.4046,-1.3182,0.5925,0.2486,330.3281
19:13:26:768,-0.213,2.3844,12.8276,53.1665,-1.3335,0.675,0.2132,329.9219
19:13:26:791,-0.189,2.2744,12.3344,53.0927,-0.8613,0.766,0.1435,329.75
19:13:26:807,-0.7875,2.4802,9.6936,52.8763,-0.1839,0.7465,0.0904,329.75
19:13:26:828,-1.0439,2.5355,7.5942,52.8381,0.3647,0.416,0.1014,329.5781
19:13:26:847,-0.6942,2.4108,6.2031,52.7303,0.7,-0.0232,0.1576,329.5781
19:13:26:868,-0.3951,2.3797,5.4203,52.6319,0.8082,-0.3622,0.1814,328.6875
19:13:26:887,-0.5291,1.7501,5.0874,52.7139,0.642,-0.5211,0.2333,328.5938
19:13:26:907,-0.6823,3.0909,6.1337,52.5263,0.3042,-0.4087,0.3549,327.25
19:13:26:927,0.268,3.4475,5.9423,52.3304,0.0391,-0.0702,0.3793,327.1094
19:13:26:948,-0.2177,3.5432,7.2206,52.1753,-0.1643,-0.4801,0.0904,325.5
19:13:26:969,-0.5506,2.8083,9.6577,52.073,-0.11,-0.7275,0.0684,325.3438
19:13:26:991,0.3018,3.0332,10.2802,52.0464,-0.0562,-0.6603,0.0965,324
19:13:27:008,0.4525,3.1914,10.905,51.9459,-0.0489,-0.4679,0.0373,323.8594
19:13:27:027,0.0766,2.9255,10.4862,52.0532,-0.0519,-0.2559,-0.0819,323.0469
19:13:27:047,-0.3951,2.6623,9.8423,51.9107,-0.0874,-0.1704,-0.1332,322.9688
19:13:27:067,-0.3927,2.4826,9.763,51.97,-0.1655,-0.2889,-0.0892,322.2969
19:13:27:088,0.3855,2.4562,10.2395,52.4078,-0.2987,-0.5015,0.0214,321.8281
19:13:27:108,1.427,2.3318,11.6354,52.3754,-0.5266,-0.6499,0.0709,321.8281
19:13:27:128,1.9801,1.8864,13.2467,52.6172,-0.7972,-0.5571,-0.0037,321.5469
19:13:27:147,2.0136,1.1827,14.7763,52.6347,-0.9541,-0.2462,-0.1142,321.5469
19:13:27:168,1.4988,0.6464,14.604,52.7007,-0.8375,0.2138,-0.171,321.125
19:13:27:187,1.118,0.5985,12.6745,52.5685,-0.4844,0.5223,-0.1136,321.125
19:13:27:208,1.2114,1.0056,10.6872,52.546,-0.1026,0.4612,0.0263,320.5156
19:13:27:228,2.0471,1.4174,9.2701,52.2121,0.1778,0.1283,0.1381,320.5156
19:13:27:247,2.9351,1.9753,8.377,51.8197,0.2877,-0.2278,0.102,320.5156
19:13:27:268,3.1603,2.3988,8.0273,51.6748,0.1814,-0.4361,-0.1118,320.6094
19:13:27:288,2.6169,2.3007,8.3794,51.2425,-0.0751,-0.4343,-0.4056,320.7031
19:13:27:307,1.5993,1.8817,8.7673,50.9489,-0.3164,-0.2425,-0.6524,320.7031
19:13:27:327,0.6511,1.5514,8.8032,50.7896,-0.4245,-0.022,-0.7538,321.0469
19:13:27:347,0.1149,1.5275,8.6952,50.6201,-0.3812,0.0916,-0.7104,321.0469
19:13:27:367,0.1699,1.8314,8.4942,50.2961,-0.2468,0.0965,-0.5852,321.2656
19:13:27:387,0.4836,2.3127,8.2143,50.2311,-0.0696,0.0623,-0.4746,321.2969
19:13:27:409,0.6176,2.6073,7.8407,50.1783,0.0935,0.0293,-0.4423,321.4844
19:13:27:430,0.3903,2.6767,7.1776,50.0875,0.1851,0.0092,-0.4557,321.5156
19:13:27:449,0.1938,2.7772,7.2948,50.0779,0.1613,-0.1148,-0.4386,321.8438
19:13:27:469,0.3808,3.0284,8.286,50.0018,0.088,-0.2889,-0.3726,321.8906
19:13:27:488,0.5985,3.1651,9.6194,49.6432,0.0037,-0.2963,-0.3341,321.8281
19:13:27:511,0.7612,3.1196,10.8428,49.3751,-0.0861,-0.0928,-0.3176,321.8281
19:13:27:528,0.0096,3.1579,11.7359,49.0132,-0.0293,0.4545,-0.2578,321.5938
19:13:27:548,-0.8354,3.3565,11.4126,48.7833,0.1344,0.5412,-0.1576,321.5781
19:13:27:567,-0.8907,3.2919,11.5804,48.3355,0.3195,0.3751,0.0183,322.2188
19:13:27:589,-0.5435,3.2058,11.9201,48.0855,0.5204,0.11,0.193,323.75
19:13:27:610,-0.1316,3.1866,12.1382,47.6859,0.6732,-0.0104,0.3176,323.75
19:13:27:628,0.3664,3.2752,11.98,47.4949,0.7336,0.0617,0.4032,325.3125
19:13:27:648,0.5315,3.3661,11.0082,47.4126,0.755,0.2089,0.4227,325.3125
19:13:27:668,0.1149,3.6655,9.6601,47.0683,0.6848,0.3158,0.3628,326.3125
19:13:27:687,-0.3832,3.687,9.0185,46.7124,0.4203,0.3464,0.27,326.3125
19:13:27:712,-0.7134,3.0165,9.9547,46.4239,0.0623,0.2511,0.1991,327.2188
19:13:27:729,-1.1324,2.3629,11.9943,46.1845,-0.1142,0.1032,0.1949,327.3125
19:13:27:747,-1.398,2.2217,11.8149,45.8771,0.0861,0.1704,0.2877,327.3125
19:13:27:770,-1.5323,2.4036,9.0616,45.6738,0.4789,0.2303,0.3916,328.1875
19:13:27:787,-1.3908,2.5089,7.0986,45.2414,0.6005,-0.011,0.4361,328.8438
19:13:27:809,-0.7899,2.7461,7.0244,44.8135,0.3219,-0.3073,0.4551,328.8438
19:13:27:829,-0.3281,2.569,8.6904,44.6293,-0.1472,-0.4276,0.3842,329.1406
19:13:27:848,-0.1149,2.2074,10.4169,44.373,-0.5039,-0.2908,0.2798,329.1406
19:13:27:869,-0.0814,1.7405,11.0967,44.1064,-0.5889,0.0055,0.1936,328.8438
19:13:27:887,0.0837,1.0678,9.8085,43.9285,-0.4264,0.2834,0.1478,328.8281
19:13:27:910,-0.0814,0.6966,8.511,43.573,-0.2889,0.3268,0.1454,328.0938
19:13:27:930,-0.4501,1.2784,8.9539,43.028,-0.3384,0.2492,0.2376,328.0156
19:13:27:948,-0.0814,1.9848,9.6314,42.8442,-0.3066,0.2614,0.3769,327.125
19:13:27:970,0.1842,2.6216,7.2852,42.4817,0.4038,0.3048,0.4258,327.0469
19:13:27:988,0.1196,3.1627,5.4395,42.0282,0.5956,0.2547,0.4142,326.4531
19:13:28:012,0.1603,3.7277,4.5392,41.7991,0.4813,0.1466,0.3683,326.3906
19:13:28:028,0.4621,4.1991,5.1281,41.6395,0.1399,0.0232,0.2559,325.8594
19:13:28:047,0.4573,4.1273,7.0436,41.2725,-0.2492,-0.0623,0.0666,325.7969
19:13:28:067,-0.146,3.9646,9.0138,40.8602,-0.4985,-0.0189,-0.1271,324.9375
19:13:28:087,-0.821,3.7301,10.2419,40.7193,-0.5211,0.0605,-0.2236,324.1562
19:13:28:109,-0.7971,3.4092,10.692,40.5205,-0.3549,0.0165,-0.2169,324.1562
19:13:28:129,-0.5818,3.3996,10.8452,40.3098,-0.1662,-0.1716,-0.1771,323.6406
19:13:28:148,0.0072,3.2058,11.645,40.1954,-0.0513,-0.4227,-0.1668,323.6406
19:13:28:170,0.4095,3.0236,12.3464,40.0334,-0.0128,-0.4679,-0.1985,323.6406
19:13:28:188,0.122,2.7748,12.0736,39.6448,-0.0195,-0.2993,-0.2504,323.2031
19:13:28:211,0.1172,2.4443,11.5182,39.4461,-0.0696,-0.2052,-0.234,323.1875
19:13:28:228,0.5243,2.1141,11.3982,39.2744,-0.212,-0.2285,-0.1826,322.4219
19:13:28:248,0.9577,1.8003,12.3679,39.157,-0.4948,-0.2358,-0.1747,322.4219
19:13:28:270,1.0678,1.3143,14.2496,38.7551,-0.7972,-0.0977,-0.2162,321.3594
19:13:28:287,0.7253,0.6488,15.2719,38.3785,-0.8344,0.2388,-0.2315,320.4062
19:13:28:311,0.4669,0.079,14.0677,38.1293,-0.4789,0.5333,-0.124,320.4062
19:13:28:329,0.6129,0.3066,11.7144,37.9639,0.0922,0.4771,0.0843,320.0469
19:13:28:349,1.2377,0.9793,9.4663,37.734,0.5687,0.1203,0.2596,320.0469
19:13:28:368,2.0136,1.6089,8.1951,37.5151,0.7538,-0.2712,0.2828,320.4219
19:13:28:388,2.461,2.0231,7.6349,37.2716,0.6609,-0.441,0.1332,320.4219
19:13:28:410,2.3294,2.1739,7.1728,37.1064,0.3867,-0.3103,-0.1264,320.8438
19:13:28:428,1.4629,1.8386,7.168,37.0434,0.0202,-0.0403,-0.4038,320.8906
19:13:28:448,0.5004,1.4677,7.57,37.0355,-0.2718,0.19,-0.554,321.4219
19:13:28:470,-0.0766,1.6184,7.8622,36.9683,-0.1747,0.1924,-0.4325,321.4844
19:13:28:494,0.3999,2.1452,7.3594,36.6483,0.0721,0.0531,-0.3262,322.0469
19:13:28:511,0.5841,2.6121,6.6485,36.4785,0.2352,-0.0751,-0.3048,322.1094
19:13:28:529,0.7062,2.8968,6.5408,36.1701,0.2217,-0.2028,-0.3335,322.5625
19:13:28:547,0.6081,3.0763,7.1728,35.9411,0.088,-0.2761,-0.3793,322.6094
19:13:28:567,0.5889,3.213,8.1039,35.5671,-0.0586,-0.2523,-0.4117,323.0625
19:13:28:588,0.6488,3.39,8.8941,35.1952,-0.1564,-0.1405,-0.4221,323.0938
19:13:28:610,0.5626,3.4594,9.6362,35.0221,-0.2028,-0.0208,-0.4245,322.9844
19:13:28:628,0.256,3.3374,10.3089,34.4736,-0.1808,0.0305,-0.4068,322.4531
19:13:28:648,-0.0837,3.2776,10.9361,34.2577,-0.0794,-0,-0.3329,322.4531
19:13:28:724,-0.3066,3.4211,11.1517,34.0168,0.0861,-0.0403,-0.1991,322.4062
19:13:28:725,-0.1268,3.6655,11.1709,33.8496,0.2462,-0.0593,-0.0434,322.5156
19:13:28:725,0.5913,3.9742,11.3288,33.6311,0.3292,-0.066,0.0819,322.5312
19:13:28:728,0.9984,4.2544,11.5373,33.3778,0.3683,-0.0666,0.1106,323.5469
19:13:28:747,0.8234,4.3502,11.5684,33.1534,0.4123,-0.0782,0.0513,323.5469
19:13:28:770,0.2536,4.0484,11.1302,32.8135,0.441,-0.0403,-0.0385,324.5312
19:13:28:787,-0.3975,3.7493,10.1749,32.5861,0.3696,0.0733,-0.0812,325.2344
19:13:28:809,-0.7325,3.4546,9.5142,32.3463,0.1393,0.1313,-0.0635,325.2344
19:13:28:829,-0.5554,2.6958,10.6896,32.1791,-0.1967,-0.0208,-0.0281,326.1094
19:13:28:849,-0.1531,1.8649,13.0454,32.0767,-0.4306,-0.2095,0.0098,326.1094
19:13:28:869,-0.5148,1.4725,14.9967,31.9887,-0.3433,-0.1362,0.0409,327.1094
19:13:28:887,-1.2616,1.1898,13.1578,31.9508,0.1662,0.2834,0.135,327.1094
19:13:28:911,-1.8912,1.2449,9.1262,31.8817,0.7972,0.5131,0.3048,327.9375
19:13:28:928,-1.8482,1.7572,6.0236,31.8157,1.0818,0.284,0.5168,328.0156
19:13:28:948,-1.0798,2.6384,5.1975,31.8053,0.8943,-0.1283,0.6793,328.5625
19:13:28:970,0.6224,3.1531,7.4456,31.915,-0.0935,-0.284,0.4704,328.625
19:13:28:993,0.7014,2.5451,8.6521,31.7331,-0.4288,-0.0391,0.2022,328.6094
19:13:29:011,0.4334,2.1428,9.1119,31.4465,-0.5094,0.2278,-0.0153,328.4688
19:13:29:027,-0.1125,1.8147,8.8582,31.3553,-0.3799,0.4178,-0.1637,328.4688
19:13:29:047,-0.7708,1.5514,7.9196,31.3602,-0.1387,0.4832,-0.2205,328.4531
19:13:29:067,-1.1372,1.4414,6.9571,31.1662,0.0935,0.3928,-0.1949,328.5625
19:13:29:087,-1.3669,1.6065,6.184,31.0409,0.1906,0.27,-0.1295,328.6562
19:13:29:110,-1.5682,2.0686,6.2916,31.0195,0.0776,0.1875,-0.0464,328.6562
19:13:29:127,-1.3358,2.5738,6.871,30.7623,-0.1613,0.2156,0.0647,328.6562
19:13:29:148,-1.008,3.1723,7.5509,30.803,-0.4074,0.3134,0.1503,328.6719
19:13:29:168,-0.7397,3.6269,8.0704,30.9439,-0.6108,0.3989,0.1784,328.6719
19:13:29:188,-0.5459,3.7875,9.0975,30.8171,-0.7184,0.2932,0.1558,328.0312
19:13:29:212,-0.4693,3.7612,10.5221,30.732,-0.6799,0.0562,0.1093,328.0312
19:13:29:229,-0.6272,3.7301,11.5035,30.8759,-0.54,-0.0904,0.0696,326.6875
19:13:29:248,-0.711,3.5145,11.9489,30.9552,-0.3952,-0.1466,0.0709,326.6719
19:13:29:268,-0.4597,3.2106,12.3727,30.9115,-0.2975,-0.2071,0.1161,325.5781
19:13:29:288,-0.1771,3.1412,12.763,30.7925,-0.2443,-0.237,0.1833,325.3281
19:13:29:311,0.0981,3.2106,12.6144,30.8532,-0.1949,-0.2156,0.2413,325.3281
19:13:29:328,0.577,3.2321,12.1382,30.5825,-0.1515,-0.2474,0.2743,325.5469
19:13:29:348,1.3549,3.0811,12.0637,30.8352,-0.168,-0.4001,0.2535,325.5469
19:13:29:368,1.9729,2.6767,13.0597,30.6649,-0.2749,-0.5815,0.1558,325.75
19:13:29:388,2.1165,2.0375,14.2639,30.7,-0.3329,-0.6414,0.0202,325.75
19:13:29:414,1.5323,1.5227,15.1403,30.4398,-0.2028,-0.5876,-0.0898,325.6562
19:13:29:428,1.0893,0.7038,15.224,30.2688,0.157,-0.4838,-0.0965,325.6562
19:13:29:447,1.2449,0.0646,13.8069,30.5237,0.653,-0.3146,0.0489,325.1719
19:13:29:468,1.9295,0.3305,11.2283,30.5417,1.0659,-0.1179,0.2559,325.1094
19:13:29:487,2.77,0.9099,8.7769,30.8662,1.2046,0.0275,0.3622,324.7656
19:13:29:514,3.1531,1.6974,7.089,30.8174,0.6194,0.43,0.0611,324.7344
19:13:29:529,2.8202,2.217,5.7984,31.1359,0.1662,0.5937,-0.2211,324.6094
19:13:29:549,0.9482,1.9008,5.4371,31.1531,-0.1961,0.5925,-0.4178,324.5938
19:13:29:567,0.3042,1.7572,5.971,31.3643,-0.3946,0.4697,-0.4856,324.375
19:13:29:588,-0.1149,1.774,6.5169,31.8066,-0.4319,0.3378,-0.471,324.3438
19:13:29:610,-0.1699,1.9439,7.0196,31.7669,-0.3812,0.2651,-0.4032,323.9062
19:13:29:627,-0.1196,2.2552,6.9476,31.7314,-0.2859,0.2511,-0.3305,323.8594
19:13:29:648,0.0431,2.6623,7.0651,31.6982,-0.2114,0.1875,-0.2773,323.6094
19:13:29:668,0.3233,2.8968,7.3355,31.7354,-0.1545,0.0776,-0.2498,323.5781
19:13:29:687,0.4573,3.0332,7.5437,31.6938,-0.1234,-0.014,-0.2547,323.8594
19:13:29:712,0.4717,3.2369,8.0704,31.7002,-0.1729,-0.0489,-0.2639,323.875
19:13:29:728,0.6511,3.28,9.0305,31.8365,-0.2712,-0.0464,-0.2706,324.0469
19:13:29:748,0.7445,3.1771,9.8806,31.8616,-0.3054,-0.0348,-0.2822,324.0469
19:13:29:769,0.5387,3.1125,10.6968,31.9244,-0.2596,-0.0544,-0.292,323.3281
19:13:29:787,-0.0072,3.1172,11.3767,31.9637,-0.1796,-0.058,-0.2614,322.75
19:13:29:813,-0.5076,3.1149,11.9106,31.7892,-0.0696,-0.0654,-0.1509,322.75
19:13:29:829,-0.5267,3.1914,12.344,31.8803,0.1063,-0.1454,0.0373,323.1875
19:13:29:848,-0.256,3.5121,13.0262,31.9284,0.3415,-0.2712,0.2266,323.1875
19:13:29:868,0.1819,3.7134,12.8204,32.0764,0.5999,-0.2572,0.3616,324.0781
19:13:29:887,0.1316,4.0412,11.767,31.9707,0.7721,-0.091,0.408,324.0781
19:13:29:909,-0.2489,4.3238,10.4073,32.1371,0.7416,0.1619,0.3995,324.7656
19:13:29:928,-0.6488,4.331,9.3538,32.2369,0.5131,0.3897,0.3848,324.7656
19:13:29:948,-0.6751,4.1106,9.2725,32.1478,0.2248,0.4001,0.3891,325.25
19:13:29:968,-0.1029,3.6894,10.2802,32.4476,0.0305,0.1533,0.3861,325.2969
19:13:29:987,0.0933,3.3541,11.5349,32.5638,0.0153,-0.1008,0.3244,325.8281
19:13:30:013,-0.5267,3.1795,11.7479,32.5801,0.1741,-0.1271,0.2407,325.875
19:13:30:030,-1.1994,2.9303,10.1103,32.5863,0.419,0.0098,0.2046,326.4375
19:13:30:047,-1.0343,2.6169,7.5126,32.6653,0.4978,-0.1405,0.3054,326.4844
19:13:30:069,-0.2874,2.6958,8.0178,32.7197,0.2621,-0.3628,0.3512,327.0625
19:13:30:087,0.431,2.7963,9.6027,32.8666,-0.0134,-0.4514,0.3176,327.1094
19:13:30:107,0.8186,2.7532,10.1629,33.1949,-0.1185,-0.2944,0.1979,327.2656
19:13:30:128,0.62,2.3007,9.3227,33.5452,-0.0342,-0.1234,0.0183,327.2812
19:13:30:147,0.2946,2.004,8.9109,33.398,0.0177,-0.099,-0.1026,326.7969
19:13:30:168,0.3808,2.083,9.4831,33.5299,0.0092,-0.0867,-0.1307,326.75
19:13:30:187,0.0431,2.1739,9.3873,33.4257,0.1332,0.0049,-0.171,325.9375
19:13:30:213,-0.6942,1.9896,8.5995,33.7931,0.3916,0.0623,-0.2022,325.8594
19:13:30:229,-0.9194,1.841,7.4743,33.872,0.6603,0.0513,-0.1301,324.8438
19:13:30:248,-0.8258,2.2576,6.2486,34.028,0.8118,0.0666,0.0018,324.8281
19:13:30:269,-0.6081,3.0165,5.1951,34.0801,0.7636,0.146,0.1038,324.0469
19:13:30:287,-0.565,3.7636,4.5511,33.7615,0.5082,0.2535,0.1277,323.5938
19:13:30:313,-0.3712,4.2832,4.9008,33.969,0.1179,0.2895,0.1057,323.5938
19:13:30:328,-0.1077,4.6684,6.2222,34.0279,-0.2993,0.27,0.0501,323.0312
19:13:30:347,-0.0909,4.8123,7.7258,34.2912,-0.6029,0.2376,-0.0452,323.0312
19:13:30:370,-0.0622,4.6373,8.7817,34.2827,-0.7697,0.1942,-0.1393,322.4844
19:13:30:388,0.1388,4.3023,10.0959,34.0891,-0.8815,0.0538,-0.2089,322.4844
19:13:30:410,0.486,3.8904,12.2195,33.7992,-0.9474,-0.1613,-0.2553,322.3438
19:13:30:430,0.5171,3.3852,13.9935,33.903,-0.8882,-0.2621,-0.2981,322.3438
19:13:30:448,0.0455,2.5881,14.8074,34.0453,-0.6787,-0.2022,-0.2895,322.6094
19:13:30:469,-0.2946,2.0925,14.2137,34.0815,-0.4221,-0.0177,-0.1258,322.6406
19:13:30:487,0.1747,2.5184,13.2156,34.157,-0.2541,0.0892,0.1429,323
19:13:30:512,1.1827,2.6432,13.0238,34.0103,-0.182,0.0342,0.3134,323.0312
19:13:30:529,1.9247,2.1236,12.8516,33.6982,-0.0739,0.2217,0.212,323.1094
19:13:30:548,1.4988,1.7859,10.9508,33.823,0.1234,0.3702,0.1277,323.125
19:13:30:570,1.2951,1.7094,9.1525,33.9768,0.2181,0.3512,0.1081,322.7812
19:13:30:588,1.1731,2.1117,8.4559,33.9778,0.0892,0.2566,0.1228,322.75
19:13:30:614,1.6591,1.9729,9.2148,33.8493,-0.1264,0.1344,0.1106,322.4531
19:13:30:627,2.004,1.7524,9.5237,34.0104,-0.1991,0.1057,0.0379,322.4219
19:13:30:648,1.8434,1.8458,8.9396,33.6779,-0.1332,0.146,-0.0782,322.5
19:13:30:668,1.3406,1.8936,7.8024,33.6786,-0.0275,0.1649,-0.2083,322.5156
19:13:30:687,0.8043,1.9104,7.0795,33.8082,0.033,0.102,-0.3091,323
19:13:30:714,0.4119,1.9872,6.4857,33.6576,0.0501,0.0415,-0.3567,323.0469
19:13:30:788,0.2776,2.1308,5.9423,33.7047,0.0244,0.0116,-0.3726,323.7969
19:13:30:788,0.4478,2.473,5.9973,33.6608,-0.0855,-0.0128,-0.3751,323.7969
19:13:30:788,0.5578,2.9327,6.6413,33.7856,-0.2449,-0.0257,-0.3946,323.7656
19:13:30:789,0.3544,3.0787,7.3522,33.6132,-0.3445,-0.0611,-0.4435,323.0781
19:13:30:811,0.352,3.0811,8.1855,33.9593,-0.3341,-0.2107,-0.4532,323.0781
19:13:30:830,0.8835,3.1938,9.2219,34.1653,-0.2327,-0.4374,-0.416,322.5781
19:13:30:848,1.4246,3.3661,10.084,34.3177,-0.0898,-0.5754,-0.4154,322.5781
19:13:30:869,1.2185,3.5145,10.5437,34.3343,0.0079,-0.5088,-0.4691,322.1875
19:13:30:888,0.6081,3.469,10.8882,34.6386,0.0483,-0.317,-0.5137,322.1875
19:13:30:909,-0.0431,3.4499,10.8452,34.5434,0.0904,-0.0745,-0.4661,321.9844
19:13:30:928,-0.4238,3.766,10.4886,34.6065,0.1277,0.1191,-0.3231,321.9844
19:13:30:948,-0.0455,4.1058,11.0417,34.7045,0.1258,0.1185,-0.1448,322.2031
19:13:30:968,0.3927,4.4363,12.1669,34.6243,0.1607,0.0287,-0.036,322.2188
19:13:30:988,0.4023,4.465,12.5785,34.401,0.2895,0.0476,-0.0299,322.8594
19:13:31:014,-0.4956,4.4052,10.3639,34.6658,0.5565,0.1277,-0.0476,322.9219
19:13:31:029,-0.6607,4.5272,9.3945,34.9031,0.5033,-0.0147,-0.0305,323.6719
19:13:31:050,-0.5698,4.1465,9.1238,34.8076,0.2272,-0.1997,-0.0605,323.7344
19:13:31:070,-0.213,3.1603,11.2164,34.9538,-0.2572,-0.4661,-0.1173,324.5938
19:13:31:088,0.0646,2.272,14.7882,35.1258,-0.6035,-0.5907,-0.1674,324.6719
19:13:31:107,-0.4406,1.2616,16.165,35.0546,-0.3958,-0.3543,-0.1942,325.6406
19:13:31:130,-1.8482,0.4621,13.11,35.1505,0.2767,0.0977,-0.1258,325.7344
19:13:31:148,-2.5089,0.5889,9.0114,35.4949,0.8417,0.2352,0.1374,326.8125
19:13:31:168,-1.7429,1.2712,7.1752,35.4039,0.9138,0.014,0.4765,326.9219
19:13:31:188,-0.2441,2.0614,7.4073,35.5769,0.617,-0.1216,0.6933,327.9688
19:13:31:212,0.6224,2.6288,7.6493,35.5655,0.2688,0.0464,0.6677,328.0781
19:13:31:229,0.62,2.7078,7.2254,35.8262,0.0556,0.2529,0.471,328.5625
19:13:31:247,0.3736,2.4849,6.5982,35.5115,-0.0171,0.2303,0.2621,328.5625
19:13:31:269,-0.1603,2.1093,6.6365,35.8098,-0.036,0.0006,0.1234,328.625
19:13:31:287,-0.4597,1.8553,7.1321,36.0178,-0.0446,-0.2211,0.1008,328.7031
19:13:31:314,-0.4597,1.7596,7.6253,35.9924,-0.0238,-0.3225,0.16,328.7031
19:13:31:328,-0.1603,2.0566,7.5775,35.9647,0.0165,-0.2486,0.2547,328.8594
19:13:31:348,0.3042,2.6599,7.3403,35.9997,0.0031,-0.0782,0.3164,328.8594
19:13:31:369,0.3951,3.2201,7.0675,36.1247,-0.1093,0.1313,0.2816,329.3906
19:13:31:388,-0.0957,3.4475,7.29,35.9724,-0.3299,0.3494,0.1826,329.3906
19:13:31:413,-0.3688,3.4187,8.219,36.3317,-0.565,0.5437,0.1289,329.7969
19:13:31:429,-0.3329,3.481,8.9946,36.3132,-0.6365,0.6255,0.1387,329.7969
19:13:31:448,-0.2776,3.5097,9.6003,36.2016,-0.4826,0.4649,0.1539,329.0938
19:13:31:469,-0.1196,3.6197,10.3543,36.302,-0.1918,0.0977,0.1808,329.0938
19:13:31:488,0.0837,3.8115,11.0106,36.5259,0.1307,-0.2395,0.1973,327.75
19:13:31:512,0.2898,3.7205,10.8547,36.3391,0.3867,-0.3378,0.1759,327.625
19:13:31:530,0.9864,3.3805,10.4312,36.2691,0.4795,-0.27,0.1435,326.7812
19:13:31:549,1.4629,3.0811,10.0265,36.2524,0.3714,-0.146,0.0892,326.6875
19:13:31:571,1.4773,3.189,10.1821,36.2868,0.1136,-0.0556,0.033,326.5156
19:13:31:588,1.561,3.3302,10.5939,36.4608,-0.2627,-0.2223,-0.0476,326.5
19:13:31:609,1.6591,3.2177,11.4532,36.5799,-0.3005,-0.3671,-0.0819,326.2031
19:13:31:630,2.8753,2.1763,12.8707,36.6697,-0.3366,-0.3537,-0.1454,326.1719
19:13:31:647,2.6456,1.7644,13.5673,36.7744,-0.4148,-0.1332,-0.2431,325.5625
19:13:31:667,1.8864,1.4964,13.4213,36.8353,-0.3946,0.2596,-0.303,325.5
19:13:31:688,1.2281,1.1874,11.8699,37.0311,-0.171,0.5528,-0.2645,325
19:13:31:713,1.0391,1.2209,9.9045,37.331,0.1307,0.5266,-0.124,324.9531
19:13:31:729,1.3286,1.7357,8.4799,37.4062,0.317,0.259,0.0281,324.4375
19:13:31:748,1.7716,2.2648,7.9388,37.4568,0.3152,-0.0128,0.077,324.3906
19:13:31:769,1.9175,2.4514,7.4527,37.5733,0.1924,-0.077,-0.0122,324
19:13:31:787,1.5706,2.3414,6.9141,37.6493,0.0165,-0.0079,-0.1814,323.7812
19:13:31:814,1.0463,2.0351,6.7226,37.8309,-0.1765,0.058,-0.328,323.7812
19:13:31:829,0.5937,1.9558,7.0699,38.1473,-0.3292,0.0794,-0.394,323.6875
19:13:31:849,0.2922,2.0255,7.4599,38.3144,-0.369,0.0916,-0.4001,323.6875
19:13:31:870,0.1819,2.193,7.4815,38.2397,-0.2969,0.0922,-0.3665,323.8125
19:13:31:887,0.3449,2.4873,7.1871,38.5149,-0.1912,0.0678,-0.3183,323.8125
19:13:31:910,0.5626,2.7676,7.0026,38.6808,-0.1503,0.0324,-0.303,324.2188
19:13:31:930,0.7684,3.026,7.5054,38.9234,-0.1888,-0.044,-0.3225,324.2188
19:13:31:947,0.8931,3.2752,8.3722,39.2076,-0.2236,-0.1374,-0.3622,324.8125
19:13:31:968,0.644,3.3135,9.2459,39.1601,-0.2138,-0.1973,-0.4197,324.8125
19:13:31:988,0.3162,3.2201,9.5477,39.2857,-0.1698,-0.1863,-0.4349,325
19:13:32:014,0.1507,3.05,9.8614,39.4264,-0.1521,-0.1576,-0.3867,325.0156
19:13:32:029,0.0646,3.0308,10.8188,39.8375,-0.182,-0.1008,-0.2828,324.875
19:13:32:049,-0.0885,3.39,11.7311,39.9747,-0.1594,0.0947,-0.1344,324.8594
19:13:32:070,-0.0287,4.1728,11.2092,40.1158,0.179,0.4905,0.1668,325.0625
19:13:32:088,0.6727,4.252,11.6928,40.3601,0.2865,0.4575,0.295,325.0781
19:13:32:110,1.2568,4.2784,12.0111,40.5355,0.4129,0.3396,0.3445,325.7656
19:13:32:129,1.0917,4.2233,11.5493,40.8924,0.6206,0.1405,0.2645,325.8438
19:13:32:147,0.5483,4.1608,10.6872,40.9385,0.7458,-0.0721,0.1435,326.5625
19:13:32:167,-0.0766,4.1369,9.9906,40.9677,0.6481,-0.1863,0.0403,326.6406
19:13:32:187,-0.5291,3.8545,10.0696,40.9829,0.3604,-0.2547,-0.0446,327.25
19:13:32:207,-0.8907,3.1268,11.0704,41.0424,0.0189,-0.3091,-0.1008,327.2969
19:13:32:229,-1.1372,2.3749,12.5282,41.1099,-0.1924,-0.2822,-0.088,328.0156
19:13:32:248,-1.2808,1.7979,12.4732,41.0667,-0.1527,0.0177,-0.0006,328.0781
19:13:32:269,-1.3669,1.8601,10.1438,41.2825,0.0354,0.4203,0.1411,329.0938
19:13:32:287,-1.1372,2.4586,7.9938,41.3681,0.135,0.4685,0.2559,329.875
19:13:32:313,-0.699,2.636,7.5293,41.5493,0.0452,0.2071,0.2621,329.875
19:13:32:329,-0.201,2.3653,8.1159,41.9836,-0.1277,-0.025,0.1991,329.9062
19:13:32:347,0.3257,1.9944,8.286,42.107,-0.2169,-0.1411,0.1087,329.9062
19:13:32:368,0.5818,1.9128,8.5947,42.343,-0.2327,-0.2718,-0.0061,329.2344
19:13:32:389,0.4645,1.817,8.7745,42.4832,-0.2608,-0.2999,-0.1191,329.2344
19:13:32:411,0.2465,1.6041,8.8893,42.5751,-0.2938,-0.2559,-0.1875,328.5156
19:13:32:428,-0.1364,1.4964,9.0568,42.8103,-0.2877,-0.1961,-0.1894,328.5156
19:13:32:447,-0.5028,1.6161,9.253,42.7653,-0.2382,-0.1124,-0.1112,328.4062
19:13:32:468,-0.498,2.0231,8.985,43.0194,-0.0928,-0.0006,0.0373,328.4062
19:13:32:487,-0.4525,2.3844,7.9316,42.9477,0.1674,0.069,0.1784,328.6562
19:13:32:514,-0.5554,2.9327,6.536,43.1586,0.408,0.0513,0.2889,328.6875
19:13:32:529,-0.4836,3.5049,5.3892,43.344,0.474,-0.0421,0.3628,328.8281
19:13:32:548,-0.2034,4.0484,5.31,43.5856,0.3073,-0.1839,0.3635,328.8438
19:13:32:570,0.1795,4.3932,9.0975,43.8276,-0.3812,-0.2657,0.1307,328.2812
19:13:32:595,0.4765,4.0819,11.566,43.6559,-0.4978,-0.1741,-0.0147,328.2188
19:13:32:612,0.3281,3.7708,12.1789,43.9544,-0.4062,0.0855,-0.1588,327.7188
19:13:32:628,0.0885,3.2489,11.6474,43.7883,-0.3518,0.3134,-0.2627,327.6719
19:13:32:647,0.1125,2.4706,12.588,44.0316,-0.4667,0.2205,-0.2889,327.625
19:13:32:667,0.4047,1.7285,14.5466,44.3277,-0.5498,0.0269,-0.2297,327.625
19:13:32:687,0.4167,1.4749,14.9154,44.4503,-0.3518,0.0018,-0.1081,328.0312
19:13:32:713,0.3114,1.9681,13.4572,44.5856,0.0495,0.0067,0.0214,328.0625
19:13:32:728,0.4741,2.2457,11.6426,44.5857,0.3555,-0.0812,0.0941,328.4219
19:13:32:748,1.0247,2.2289,10.6059,44.8955,0.3525,-0.1399,0.1124,328.4531
19:13:32:768,1.4749,1.896,11.0895,44.8539,0.1234,-0.1301,0.069,328.2031
19:13:32:787,1.3765,1.3956,12.1143,45.326,-0.0476,0.0165,-0.0159,327.5156
19:13:32:844,1.0199,1.2401,11.0513,45.3174,0.0501,0.2895,-0.0562,327.5156
19:13:32:845,0.5243,1.0989,8.9587,45.2647,0.2266,0.358,-0.0379,326.8906
19:13:32:853,0.7756,1.1133,8.3578,45.6069,0.2162,0.0721,0.066,326.8906
19:13:32:868,1.9487,1.1348,9.052,46.0623,0.0831,-0.2621,0.1716,326.8594
19:13:32:888,2.7891,1.3765,9.7415,46.4861,-0.0623,-0.3384,0.1362,326.8594
19:13:32:913,2.7867,1.5826,9.7487,46.7426,-0.1662,-0.1515,-0.0391,327.2344
19:13:32:928,1.6902,1.4222,9.1047,47.107,-0.1997,0.1191,-0.2676,327.2344
19:13:32:947,0.5459,1.1109,8.2358,47.3035,-0.1381,0.273,-0.3714,327.7344
19:13:32:970,0.0072,1.1157,7.4551,47.6133,0.0116,0.2504,-0.2932,327.7344
19:13:32:987,0.1699,1.4844,6.615,47.8138,0.1839,0.1539,-0.1283,327.8281
19:13:33:009,0.486,2.0542,5.9375,47.8408,0.2645,0.0922,0.014,327.8281
19:13:33:030,0.8835,2.6288,5.6261,47.7645,0.2077,0.099,0.1124,327.6719
19:13:33:048,1.2927,3.4331,5.8845,48.0232,0.0617,0.1167,0.1814,327.6562
19:13:33:070,1.9056,4.6899,8.1135,48.1697,-0.0739,-0.0709,0.0373,327.625
19:13:33:089,2.2528,4.678,8.621,48.3529,0.0354,-0.1942,-0.1649,327.625
19:13:33:117,2.1715,4.4052,9.0042,48.5336,0.1081,-0.317,-0.4074,327.6094
19:13:33:131,1.5706,4.0842,9.8423,48.9305,0.0336,-0.3641,-0.6041,327.6094
19:13:33:147,0.565,3.8593,11.9848,49.3533,-0.0776,-0.3543,-0.6927,327.4062
19:13:33:169,-0.4023,3.4618,13.6032,49.5527,0.0476,-0.2566,-0.6451,327.3906
19:13:33:187,-1.1109,3.2321,13.1554,49.7261,0.4062,-0.0654,-0.4514,327.375
19:13:33:212,-1.3741,3.3996,11.9225,50.1421,0.6872,0.1179,-0.1411,327.375
19:13:33:229,-1.0271,4.0316,11.3192,50.3301,0.7672,0.2114,0.1906,327.9219
19:13:33:247,-0.5626,4.4507,10.6753,50.8095,0.7886,0.2401,0.4019,327.9844
19:13:33:269,-0.5506,4.8601,9.7726,51.2742,0.7623,0.2504,0.46,328.375
19:13:33:287,-0.6583,5.2286,8.7817,51.3426,0.5846,0.3048,0.4441,328.2188
19:13:33:308,-0.4382,5.4419,8.0967,51.4151,0.2327,0.3384,0.3763,328.2188
19:13:33:328,-0.2154,4.8099,8.5899,51.6909,-0.2401,0.204,0.2059,327.7969
19:13:33:348,-0.4669,3.4977,10.8954,52.0282,-0.7043,-0.1417,0.0037,327.7969
19:13:33:369,-0.6105,2.3916,14.3264,51.9062,-0.8595,-0.4624,-0.0849,327.9844
19:13:33:389,-1.1707,1.6041,14.6854,52.3157,-0.4942,-0.2993,-0.0599,327.9844
19:13:33:413,-2.4084,1.252,11.7,52.4878,0.0666,0.1912,0.0776,329.2344
19:13:33:430,-2.6934,1.7668,8.7482,52.8127,0.3506,0.4386,0.3787,329.2344
19:13:33:447,-1.8625,2.4108,8.123,53.102,0.2871,0.3152,0.6982,330.6875
19:13:33:469,-0.189,2.6815,8.93,53.2402,0.1741,0.0837,0.8735,330.8281
19:13:33:487,0.9817,2.8155,8.9779,53.4784,0.2474,-0.0525,0.824,331.4844
19:13:33:514,1.2879,2.7772,7.9843,53.7446,0.4044,-0.1106,0.595,331.4844
19:13:33:529,1.0032,2.5232,7.4216,54.0941,0.4496,-0.2028,0.3262,330.8438
19:13:33:548,0.5459,2.0949,7.2374,54.4444,0.361,-0.1808,0.1326,330.7812
19:13:33:570,-0.1388,2.3964,7.6277,54.6311,0.102,0.215,0.0721,329.7969
19:13:33:589,-0.2946,2.5017,7.3546,54.7126,0.1399,0.3781,0.0953,329.6875
19:13:33:615,-0.5124,2.7628,6.883,54.933,0.2486,0.4203,0.1374,328.9844
19:13:33:629,-0.4334,3.1388,6.4256,55.4635,0.339,0.3598,0.2046,328.9062
19:13:33:648,-0.2106,3.5982,6.2701,55.6438,0.3506,0.2352,0.2395,329.0781
19:13:33:668,0.1986,4.0747,6.5456,55.8462,0.2401,0.1411,0.2199,329.0938
19:13:33:687,0.6607,4.4865,7.2278,56.0396,0.0049,0.1796,0.1387,329.0938
19:13:33:714,0.7995,4.7426,8.2262,56.1762,-0.2877,0.2834,-0.0183,329.1094
19:13:33:729,0.431,4.611,9.4783,56.2281,-0.5455,0.3647,-0.2132,327.8906
19:13:33:748,0.1196,3.9814,10.7136,56.3323,-0.6903,0.3451,-0.3451,327.7656
19:13:33:769,-0.0048,3.4403,11.8914,56.4761,-0.6787,0.1833,-0.3744,326.0625
19:13:33:787,-0.1436,3.0933,12.4564,56.638,-0.5339,-0.0367,-0.3354,324.9531
19:13:33:809,-0.2034,2.7843,12.6215,57.0583,-0.3464,-0.2572,-0.2468,324.9531
19:13:33:829,0.0909,2.3844,12.7798,57.2337,-0.2223,-0.3708,-0.1258,324.7812
19:13:33:847,0.7516,1.9753,12.6144,57.4333,-0.1881,-0.2724,0.0104,324.7812
19:13:33:869,1.2257,2.0662,12.265,57.8539,-0.2034,-0.0525,0.1118,324.4531
19:13:33:887,1.3502,2.3509,11.6306,58.2288,-0.1973,0.1087,0.1301,324.4531
19:13:33:909,1.1515,2.2337,11.0441,58.6487,-0.1631,0.1405,0.0641,323.875
19:13:33:930,0.9936,1.8649,10.5891,59.2955,-0.1338,0.1124,0.0049,323.875
19:13:33:947,1.075,1.64,9.8734,59.6511,-0.1026,0.0757,-0.0037,323.2812
19:13:33:969,1.2664,1.6519,9.2148,59.7701,-0.1142,0.0238,-0.0116,323.2812
19:13:33:987,1.5251,1.6017,8.9922,60.3229,-0.2199,-0.0452,-0.0586,323.0312
19:13:34:009,1.8793,1.3095,9.5812,60.7097,-0.3732,-0.1185,-0.1478,323.0312
19:13:34:029,2.2768,1.3286,9.9236,60.8494,-0.4337,-0.1246,-0.2553,323.375
19:13:34:048,1.8721,1.5873,9.3371,61.1579,-0.3347,-0.1222,-0.4251,323.4219
19:13:34:070,0.7205,1.5371,8.5373,61.2413,-0.2107,-0.1246,-0.6176,324.0625
19:13:34:088,-0.0909,1.0917,7.8957,61.2895,-0.1802,-0.055,-0.6817,324.125
19:13:34:116,-0.2874,1.1468,7.6828,61.208,-0.1289,-0.0776,-0.5614,324.6094
19:13:34:130,-0.0814,1.6376,7.4647,61.5162,-0.0635,-0.1075,-0.4062,324.6719
19:13:34:148,0.6105,2.8202,7.6851,61.5639,0.0098,-0.1423,-0.3268,324.6094
19:13:34:170,0.7421,3.0858,7.8909,61.6665,0.022,-0.1521,-0.3708,324.5938
19:13:34:188,0.9649,3.3374,8.3028,61.9133,0.0538,-0.2297,-0.3983,324.3438
19:13:34:208,1.3765,3.7804,8.8176,62.2244,0.1148,-0.3354,-0.4398,324.3281
19:13:34:228,1.3047,3.7684,9.1238,62.5646,0.091,-0.27,-0.5492,324.2656
19:13:34:247,0.553,3.6488,10.0552,62.8066,-0.1032,0.011,-0.6316,324.2656
19:13:34:269,-0.6368,3.4857,10.7327,63.2484,-0.3506,0.5003,-0.6102,324.3281
19:13:34:287,-0.5267,3.6751,9.9978,63.349,-0.4807,0.7654,-0.4215,324.8125
19:13:34:309,-0.6894,4.4148,11.7096,63.5516,-0.4997,0.4306,-0.226,324.8125
19:13:34:329,0.6392,4.5057,12.332,63.8408,-0.2969,0.3995,-0.0238,325.9844
19:13:34:348,1.331,4.319,13.0502,64.0048,0.047,0.2498,-0.0745,325.9844
19:13:34:369,1.0104,4.1034,12.7295,64.0829,0.3457,0.2132,-0.2773,327.3594
19:13:34:387,0.309,3.7205,11.822,64.39,0.5119,0.234,-0.4093,327.3594
19:13:34:409,-0.7804,3.7038,11.0321,64.5768,0.5766,0.1631,-0.4679,328.2031
19:13:34:430,-1.5036,3.7014,10.3041,64.8629,0.5589,0.0666,-0.4374,328.2031
19:13:34:448,-1.8529,3.6703,10.2634,65.0571,0.3854,0.0354,-0.3592,329.0312
19:13:34:469,-1.5347,3.268,10.8643,65.3804,0.135,0.0354,-0.2749,329.0312
19:13:34:487,-1.1731,2.3103,12.2674,65.3428,-0.0159,-0.0171,-0.2291,330.0625
19:13:34:510,-1.5826,1.4557,12.4828,65.4866,0.1209,0.0354,-0.1625,330.0625
19:13:34:532,-2.5161,1.1635,10.4456,65.6518,0.4532,0.2706,0.0116,331.2969
19:13:34:547,-2.7437,1.5993,7.8168,65.5805,0.6976,0.3494,0.2895,331.4219
19:13:34:569,-2.3462,2.3246,6.2581,65.6111,0.6866,0.1258,0.5259,332.2031
19:13:34:589,-1.2951,2.9566,6.2222,65.4103,0.4685,-0.234,0.6389,332.2812
19:13:34:614,-0.3999,3.213,7.2446,65.4716,0.1655,-0.4997,0.5669,332.3594
19:13:34:630,-0.4717,3.3733,8.3315,65.3699,-0.0629,-0.5882,0.3891,332.375
19:13:34:648,-0.9482,3.9885,8.0034,65.5773,0.1326,-0.678,0.226,332.6719
19:13:34:670,-0.297,3.8043,7.1417,65.6032,0.4337,-0.8411,0.1582,332.7031
19:13:34:689,0.0718,3.2106,6.2797,65.4894,0.4917,-0.846,-0.036,333.5781
19:13:34:708,0.0096,2.5642,7.3355,65.6096,0.1759,-0.744,-0.2272,333.6562
19:13:34:727,0.1866,2.5017,9.4926,65.3878,-0.2022,-0.4606,-0.2889,334.5
19:13:34:747,0.1819,2.8083,10.2945,65.4808,-0.2676,-0.0568,-0.3146,334.5781
19:13:34:769,-0.3879,2.6958,10.0026,65.5629,-0.0397,0.2126,-0.3928,335.0938
19:13:34:787,-1.2832,2.2983,8.5158,65.5772,0.2223,0.3128,-0.4142,335.2969
19:13:34:809,-1.1372,2.4323,8.1425,65.4501,0.4441,-0.0049,-0.2572,335.2969
19:13:34:832,-0.5985,2.6719,8.3004,65.4757,0.5705,-0.3329,-0.1008,334.4219
19:13:34:910,0.0598,2.9447,8.1879,65.5339,0.5259,-0.3824,-0.055,334.4219
19:13:34:911,0.7684,3.1795,8.3483,65.4696,0.2669,-0.2932,-0.0922,333.3125
19:13:34:911,1.0199,3.1555,9.7391,65.544,-0.2187,-0.0892,-0.1973,333.3125
19:13:34:911,0.7277,2.8753,11.2379,65.7525,-0.6896,0.2657,-0.3066,332.8594
19:13:34:933,0.0694,2.3581,11.5684,65.6196,-0.8546,0.5119,-0.3714,332.8594
19:13:34:948,-0.5004,2.0542,11.3791,65.408,-0.7452,0.4386,-0.3146,332.8281
19:13:34:969,-0.8955,2.2337,11.2379,65.6182,-0.6108,0.1961,-0.1558,332.8125
19:13:34:988,-0.9147,2.2552,11.7215,65.5191,-0.5302,-0.1344,0.0067,333.5
19:13:35:016,-0.364,1.9463,12.2052,65.5079,-0.4209,-0.4416,0.1216,333.5
19:13:35:029,0.1125,1.6089,12.5139,65.4712,-0.3433,-0.5473,0.1894,334.2812
19:13:35:047,0.5937,1.4342,12.9018,65.3427,-0.3909,-0.3726,0.2633,334.2812
19:13:35:069,0.9817,1.3549,12.9568,65.0972,-0.46,0.0348,0.3665,334.9844
19:13:35:087,1.2329,1.4868,11.8651,65.1989,-0.3952,0.4404,0.496,335.0625
19:13:35:108,1.8338,2.0255,10.4312,65.415,-0.2144,0.5363,0.6237,335.5156
19:13:35:132,3.1866,2.9183,9.131,65.3467,0.0922,0.1674,0.5247,335.5625
19:13:35:149,3.0957,2.904,8.7242,65.1088,0.0635,0.1649,0.2798,335.8906
19:13:35:169,2.6073,2.7508,8.2167,64.9432,-0.0312,0.2853,0.0367,335.9219
19:13:35:188,2.0375,2.6288,7.7761,64.8466,-0.1258,0.3861,-0.1429,336.3594
19:13:35:208,1.5132,2.6695,7.6469,64.8398,-0.1747,0.3879,-0.2364,336.4062
19:13:35:229,1.2114,2.8083,7.7521,64.9167,-0.1668,0.3384,-0.2566,336.8438
19:13:35:247,1.2185,3.0571,7.7593,64.7574,-0.0776,0.2804,-0.226,336.875
19:13:35:268,1.5036,3.4164,7.4312,64.4087,0.0617,0.2303,-0.1997,336.9688
19:13:35:287,1.5778,3.7804,6.8638,64.1054,0.1692,0.1668,-0.237,336.8438
19:13:35:309,1.2329,4.1345,6.6748,64.0849,0.146,0.0855,-0.3323,336.8438
19:13:35:331,0.9793,4.0842,7.1704,63.9627,0.0263,-0.0214,-0.4306,336.1875
19:13:35:348,0.7158,3.8545,8.0536,63.936,-0.0916,-0.1063,-0.5113,336.1875
19:13:35:368,0.4358,3.6078,8.9707,63.8926,-0.1778,-0.1124,-0.5516,334.75
19:13:35:387,0.3257,3.4259,9.9763,63.5623,-0.2175,-0.0684,-0.5394,334.75
19:13:35:409,0.2728,3.2847,10.9241,63.4019,-0.1936,0.025,-0.4923,333.3438
19:13:35:429,0.0072,3.414,11.511,63.466,-0.0806,0.1637,-0.4178,333.3438
19:13:35:447,-0.5674,3.6655,10.9627,63.4913,0.1118,0.3329,-0.3286,333.3281
19:13:35:469,-1.0199,3.8354,10.2323,63.4253,0.3024,0.3231,-0.2254,332.8906
19:13:35:487,-0.9697,3.9048,10.3424,63.5592,0.4429,0.0874,-0.1234,333.1406
19:13:35:509,-0.766,3.8282,10.4575,63.2458,0.5229,-0.0745,-0.0739,333.1406
19:13:35:530,-0.7828,3.8043,9.7391,63.0618,0.4844,-0.0098,-0.0855,333.5469
19:13:35:548,-1.6304,3.7516,8.7171,63.0796,0.27,0.113,-0.1662,333.5469
19:13:35:568,-3.0188,3.4164,8.1927,62.7449,-0.1319,0.0935,-0.2535,333.9219
19:13:35:588,-3.1292,2.7485,9.7702,62.6162,-0.6756,-0.2162,-0.2254,333.9531
19:13:35:609,-1.707,1.5802,13.5769,62.2683,-1.1325,-0.5766,-0.0965,334.7188
19:13:35:631,-1.1611,0.8716,16.0214,62.1502,-0.7122,0.19,0.1533,334.7969
19:13:35:650,-2.0207,0.9888,12.332,61.9575,0.0525,0.7471,0.2798,335.875
19:13:35:670,-2.2983,1.0869,8.7529,61.8799,0.7165,0.6609,0.4331,335.9844
19:13:35:687,-1.774,1.3908,7.235,61.9171,1.0091,0.0977,0.598,337
19:13:35:708,-0.5148,1.7812,7.2374,62.0582,0.9401,-0.3677,0.7275,337.1094
19:13:35:731,0.5219,2.0973,7.4767,62.0694,0.6707,-0.427,0.719,337.7812
19:13:35:748,0.8596,2.1643,7.3738,61.8666,0.3781,-0.2071,0.562,337.8438
19:13:35:768,0.6368,1.9705,6.8279,61.9352,0.1399,0.0024,0.3586,338.1719
19:13:35:787,0.0933,1.6591,6.9332,61.8379,-0.0928,0.0721,0.223,338.4531
19:13:35:809,0.0383,1.5754,7.7952,61.4519,-0.3219,0.1222,0.2376,338.4531
19:13:35:830,0.2369,1.9825,8.5588,61.5549,-0.4105,0.2144,0.3201,338.9062
19:13:35:848,0.2465,2.339,8.3554,61.3881,-0.2816,0.2895,0.3598,338.9062
19:13:35:869,0.0622,2.5113,7.381,60.8391,-0.0373,0.27,0.3641,339.2812
19:13:35:887,-0.1053,2.8537,6.6174,60.6666,0.1442,0.1277,0.3793,339.2812
19:13:35:909,0.0455,3.3637,6.6102,60.6845,0.2016,-0.0757,0.3879,338.9844
19:13:35:929,0.3497,3.7349,6.5671,60.489,0.1698,-0.1955,0.336,338.9844
19:13:35:947,0.3353,3.9144,6.9882,60.1799,0.0348,-0.2828,0.2028,338.9844
19:13:35:970,0.2345,3.7516,8.0776,60.1745,-0.1888,-0.3201,0.0562,338.0156
19:13:35:987,0.3568,3.6006,9.2749,60.067,-0.3903,-0.2902,-0.0379,336.7812
19:13:36:009,0.3688,3.6535,10.1749,60.168,-0.4862,-0.3091,-0.0928,336.7812
19:13:36:029,0.5865,3.7516,11.5182,60.1854,-0.5131,-0.482,-0.1112,335.5625
19:13:36:047,1.4222,3.5839,13.261,60.1445,-0.4832,-0.7153,-0.1038,335.5625
19:13:36:069,2.4419,3.3254,15.035,59.9068,-0.4166,-0.799,-0.1264,334.9688
19:13:36:088,2.6073,3.1244,15.4875,60.0548,-0.2639,-0.6615,-0.2095,334.9062
19:13:36:108,2.1882,2.9327,14.348,60.1352,-0.011,-0.5296,-0.2944,334.2344
19:13:36:130,2.0782,2.6599,13.395,60.1815,0.2254,-0.6591,-0.3256,334.1719
19:13:36:147,2.3342,2.4156,13.5553,60.0639,0.2981,-0.8063,-0.336,333.3281
19:13:36:169,1.7955,1.5179,13.153,59.9214,0.1845,-0.1515,-0.4111,333.25
19:13:36:188,1.3262,1.0989,12.0422,60.0108,0.2902,0.1466,-0.3561,332.4844
19:13:36:214,1.3238,1.0175,10.7112,60.0037,0.5748,0.1014,-0.2077,332.4219
19:13:36:228,1.6232,1.1803,9.2821,60.0158,0.9486,-0.2059,-0.0464,331.9688
19:13:36:247,2.1284,1.5921,7.9795,59.5382,1.2645,-0.6267,0.0739,331.9219
19:13:36:268,2.5065,2.0088,6.737,59.4796,1.369,-0.8949,0.0861,331.9844
19:13:36:287,2.4897,2.1595,5.7601,59.4379,1.1759,-0.8711,-0.0018,332.2969
19:13:36:308,2.2433,2.1141,5.152,59.1115,0.7636,-0.6053,-0.1087,332.2969
19:13:36:330,2.0088,2.0447,4.9343,58.9477,0.3207,-0.2871,-0.1894,332.8281
19:13:36:348,1.9534,2.1188,5.1185,58.7845,-0.0024,-0.0892,-0.2511,332.8281
19:13:36:368,1.6902,2.3055,5.3366,58.5785,-0.201,0.0055,-0.3262,333.5781
19:13:36:387,1.2975,2.5307,5.6907,58.3686,-0.3103,0.0116,-0.3909,333.5781
19:13:36:409,0.8163,2.715,6.1074,58.6873,-0.3561,-0.0544,-0.4239,333.5938
19:13:36:430,0.4549,2.837,6.7298,58.7165,-0.3775,-0.1545,-0.4068,334.5781
19:13:36:447,0.7851,2.9638,7.7282,58.4557,-0.3824,-0.2425,-0.325,334.5938
19:13:36:469,1.5562,3.3517,8.2693,58.5215,-0.3738,-0.1643,-0.2468,335.5938
19:13:36:487,2.0566,4.0029,8.5205,58.4179,-0.4435,0.0556,-0.2627,336.1719
19:13:36:509,1.7429,4.2688,8.9707,58.29,-0.6231,0.2957,-0.3696,336.1719
19:13:36:527,0.7516,4.0053,10.3519,58.3814,-0.8082,0.4087,-0.4514,336.3281
19:13:36:549,0.0455,3.7301,11.9919,58.4425,-0.7892,0.4239,-0.3702,336.3281
19:13:36:570,-0.0144,3.687,12.4301,58.1918,-0.4936,0.4404,-0.1326,336.6094
19:13:36:588,0.8306,4.0292,12.1214,58.0586,-0.0996,0.3598,0.1503,336.6094
19:13:36:608,2.1165,4.3167,12.2507,57.9897,0.1875,0.124,0.3286,337.0938
19:13:36:630,2.7987,4.7593,12.8874,57.9204,0.2572,-0.0031,0.3183,337.1406
19:13:36:647,2.4036,4.7617,13.2251,57.5074,0.1637,0.1356,0.1698,337.7344
19:13:36:670,-0.3185,3.2704,11.8914,57.3436,0.2083,0.4288,-0.0189,337.7969
19:13:36:689,-0.8402,3.0045,10.8332,57.1885,0.3402,0.394,0.1674,338.6406
19:13:36:716,-0.5937,3.0739,10.0552,56.9169,0.4575,0.2278,0.4184,338.7188
19:13:36:727,0.1101,3.0404,10.0217,56.8535,0.5357,-0.0049,0.5925,339.5625
19:13:36:747,0.6248,3.2249,9.428,56.6204,0.6365,-0.0647,0.6615,339.6562
19:13:36:767,0.5459,3.5862,7.7665,56.6137,0.7397,0.0079,0.62,340.2031
19:13:36:787,0.352,3.7564,6.1074,56.3747,0.6994,-0.0073,0.5046,340.9531
19:13:36:809,0.4071,3.6583,5.3291,56.5245,0.4044,-0.1173,0.3732,340.9531
19:13:36:830,0.6511,2.959,6.3778,56.4201,-0.1332,-0.2676,0.2401,341.3594
19:13:36:847,1.4892,2.4754,9.2124,56.4828,-0.7434,-0.2926,0.1637,341.3594
19:13:36:869,1.8075,2.339,11.391,56.4468,-1.1252,0.0263,0.077,340.8438
19:13:36:888,1.0487,2.0183,11.8986,56.3529,-1.0952,0.419,-0.0635,340.7812
19:13:36:909,0.0479,1.4294,10.9241,56.4321,-0.6817,0.5656,-0.1124,340.7812
19:13:36:928,-0.2034,1.2736,9.5309,56.4871,-0.1032,0.4264,0.0348,340.2188
19:13:36:992,0.2994,1.7309,7.9819,56.492,0.419,0.2297,0.2474,340.2188
19:13:36:993,0.6416,2.3438,6.6126,56.5847,0.711,0.0507,0.3537,340.0625
19:13:36:993,0.8788,3.0212,5.9877,56.4496,0.7061,-0.0641,0.369,339.2969
19:13:37:010,1.0798,3.6727,5.9375,56.354,0.5027,-0.0421,0.3152,339.2969
19:13:37:030,1.0008,4.0101,5.9375,56.5227,0.2321,0.0684,0.1894,337.9531
19:13:37:049,0.6727,4.0436,6.2055,56.5166,-0.0434,0.1277,0.0519,337.9531
19:13:37:070,0.4119,3.8593,7.2996,56.6849,-0.2993,0.0721,-0.0275,336.7188
19:13:37:089,0.364,3.7421,9.1143,56.5865,-0.4673,-0.0599,-0.0354,336.7188
19:13:37:109,0.6655,3.7612,11.2187,56.7144,-0.463,-0.1894,0,336.1875
19:13:37:128,1.1157,3.6511,12.3464,56.7168,-0.3011,-0.2187,0.0287,336.1406
19:13:37:148,1.3932,3.4594,12.6386,57.0268,-0.1246,-0.2016,0.0434,335.9688
19:13:37:170,1.8338,3.2776,12.9616,56.9066,0.0794,-0.1301,0.1246,335.9531
19:13:37:188,1.7453,3.2273,12.3009,56.9586,0.2236,-0.0544,0.1741,335.9219
19:13:37:210,1.9992,3.3517,11.5277,57.1703,0.3421,-0.0312,0.2743,335.9219
19:13:37:228,2.892,3.5767,10.8165,56.8919,0.3635,-0.025,0.3787,335.5156
19:13:37:247,3.7947,3.7899,10.5796,57.1138,0.2639,-0.0147,0.358,335.4688
19:13:37:267,4.0723,3.6365,10.9484,57.0308,0.1136,-0.0098,0.179,334.7656
19:13:37:288,3.5456,2.904,11.6234,57.1637,0.0501,0.0287,-0.08,334.6875
19:13:37:309,2.4084,2.3581,10.8667,57.2686,0.2016,0.182,-0.273,334.1875
19:13:37:331,1.3932,2.1069,8.7171,57.7367,0.463,0.2663,-0.3335,334.0625
19:13:37:347,1.2473,2.0231,7.1058,58.0718,0.5742,0.0635,-0.2822,334.0625
19:13:37:370,1.8051,2.3318,7.0627,58.0771,0.372,-0.2205,-0.1985,334.0469
19:13:37:387,2.4132,2.5379,8.1832,58.4756,-0.0562,-0.2779,-0.1967,334.1562
19:13:37:408,2.5738,2.205,9.5453,58.5449,-0.4759,-0.0757,-0.3042,334.1406
19:13:37:430,2.2026,1.7812,10.2132,58.8161,-0.6848,0.2321,-0.4197,334.1562
19:13:37:447,1.4844,1.7692,9.7463,58.9204,-0.6231,0.4612,-0.4704,334.1562
19:13:37:469,0.8501,1.9705,8.7338,59.2218,-0.3628,0.4728,-0.4539,334.0156
19:13:37:488,0.4549,2.2217,7.6732,59.4755,-0.0434,0.3402,-0.4062,333.5312
19:13:37:509,0.3808,2.3605,6.5815,59.4783,0.2034,0.2254,-0.3622,333.5312
19:13:37:528,0.2827,2.6767,5.8726,59.8352,0.2859,0.2052,-0.3164,332.7344
19:13:37:548,0.2417,3.1866,6.1074,60.0437,0.2101,0.2895,-0.2682,332.7344
19:13:37:568,0.1364,3.7086,6.4714,60.1328,0.1497,0.4429,-0.2395,332.6094
19:13:37:587,-0.0455,3.9407,6.5671,60.2575,0.204,0.5718,-0.2449,332.6094
19:13:37:609,0.1507,3.8115,5.9136,60.6319,0.3189,0.6133,-0.2309,333.1094
19:13:37:630,0.3544,3.9622,4.841,60.7938,0.2859,0.5082,-0.1863,333.1562
19:13:37:648,0.4238,4.4602,5.9112,60.9521,-0.1148,0.1918,-0.1374,333.6719
19:13:37:669,0.9242,4.896,10.1797,61.1628,-0.7153,-0.033,-0.0843,333.7188
19:13:37:688,1.5227,5.0133,13.9217,61.4867,-0.9957,0.1649,-0.099,334.3125
19:13:37:710,0.874,5.0037,14.5729,61.8201,-0.7672,0.5638,-0.182,334.3594
19:13:37:731,0.0383,5.8726,12.3296,62.3388,0.1381,0.3708,-0.0305,335.0938
19:13:37:748,0.3257,6.0188,11.7096,62.7992,0.4166,-0.0275,0.0183,335.1719
19:13:37:767,-0.0598,5.8487,11.1589,62.9785,0.471,-0.1918,-0.0562,335.8594
19:13:37:787,-0.5578,5.4754,10.5772,63.0858,0.3121,-0.077,-0.1497,336.5156
19:13:37:808,-0.9218,4.7907,10.1533,63.6374,0.0385,0.1271,-0.2187,336.5156
19:13:37:832,-0.6511,3.9215,11.2546,63.9502,-0.292,0.1417,-0.2242,336.5781
19:13:37:848,-0.2874,3.0619,13.462,64.0496,-0.5094,0.0024,-0.1997,336.9375
19:13:37:869,-0.3353,2.0064,15.6215,64.1981,-0.4111,-0.0733,-0.1771,336.9844
19:13:37:887,-1.1779,1.1276,14.4365,64.3073,0.1362,0.1588,-0.0916,337.2344
19:13:37:908,-2.0016,1.142,9.9284,64.4943,0.8778,0.372,0.1228,337.2344
19:13:37:930,-2.0949,1.7955,6.0595,64.7498,1.2974,0.1228,0.3799,337.4219
19:13:37:950,-1.2616,2.5017,4.884,64.9259,1.1447,-0.3347,0.573,337.4219
19:13:37:970,0.0933,3.1842,5.8798,64.769,0.6145,-0.5553,0.6408,337.5
19:13:37:988,0.8788,3.4068,6.9332,64.9932,0.0629,-0.3952,0.5076,337.5312
19:13:38:009,0.7923,3.0715,7.424,65.1684,-0.3317,-0.1271,0.2602,337.5312
19:13:38:031,0.3712,2.5905,7.611,65.3892,-0.5461,0.0116,0.0611,337.5156
19:13:38:050,-0.2922,2.3509,7.7521,65.3936,-0.5992,0.0195,-0.0367,337.5156
19:13:38:069,-0.821,2.1619,7.9484,65.7108,-0.5003,-0.0373,-0.047,337.8438
19:13:38:087,-0.9769,1.9657,7.8814,65.9421,-0.2633,-0.1026,0.0122,337.8438
19:13:38:109,-1.0128,1.8936,7.156,66.2026,0.0214,-0.1222,0.1032,338.2656
19:13:38:131,-0.8091,2.2552,6.0595,66.4221,0.193,-0.1179,0.2181,338.2656
19:13:38:148,-0.4645,2.8155,5.5711,66.6128,0.1723,-0.1503,0.3066,338.5781
19:13:38:168,-0.0957,3.3206,5.7888,66.8247,0.0043,-0.2211,0.3219,338.6094
19:13:38:188,0.0646,3.699,7.0364,66.8539,-0.2376,-0.3011,0.2669,338.5625
19:13:38:211,0.3329,3.6437,8.5732,67.2509,-0.6017,-0.2004,0.0568,338.5469
19:13:38:231,0.4119,3.4762,9.6338,67.3579,-0.8937,0.1277,-0.0513,337.8438
19:13:38:248,-0.9625,3.912,12.6673,67.5072,-1.2455,0.4618,-0.102,337.7656
19:13:38:270,-0.5889,3.4379,15.2264,67.8648,-1.2895,0.518,-0.0764,336.8906
19:13:38:287,-0.3042,2.7676,16.4282,68.2222,-0.8717,0.3983,-0.022,336.7969
19:13:38:308,-0.0479,2.5041,15.5928,68.3911,-0.1955,0.2517,0.1173,336.4531
19:13:38:333,0.5794,3.0117,13.8236,68.5918,0.4032,0.0806,0.3164,336.4219
19:13:38:349,1.5921,3.5025,12.344,68.8573,0.7556,-0.099,0.4398,336.4375
19:13:38:369,2.6264,3.7636,10.8141,69.2699,0.843,-0.1442,0.4117,336.4375
19:13:38:387,3.5216,3.6846,9.7152,69.3625,0.6799,-0.1136,0.2059,336.3438
19:13:38:409,3.6197,2.7197,9.9667,69.5833,0.3506,-0.0959,-0.1655,336.3594
19:13:38:431,2.4945,1.6472,10.9986,69.4735,0.0299,0.0385,-0.5412,335.875
19:13:38:448,1.197,0.7636,10.5796,69.3736,-0.0238,0.2633,-0.7013,335.8594
19:13:38:469,0.4693,0.364,9.3251,69.3973,0.1411,0.2804,-0.6389,335.3281
19:13:38:487,0.5746,0.699,8.0106,69.4565,0.3024,0.0568,-0.4557,335.1562
19:13:38:510,1.1731,1.2449,7.4432,69.6318,0.3091,-0.2401,-0.314,335.1562
19:13:38:530,1.8123,1.5179,7.4839,69.5804,0.149,-0.3848,-0.3073,335.1094
19:13:38:547,1.7931,1.5371,7.5966,69.7986,-0.0812,-0.2804,-0.4313,335.1094
19:13:38:569,0.8234,1.4414,7.3379,69.6517,-0.2944,-0.036,-0.5809,334.9219
19:13:38:589,-0.1555,1.4079,7.2494,69.8259,-0.4484,0.1503,-0.6133,334.9219
19:13:38:608,-0.5124,1.5108,7.436,69.8502,-0.4966,0.2022,-0.5064,334.3906
19:13:38:629,-0.2946,1.8075,7.4791,70.0305,-0.4325,0.1631,-0.3451,334.3906
19:13:38:647,0.1244,2.2217,7.235,70.0659,-0.3134,0.0684,-0.2193,333.6719
19:13:38:670,0.3664,2.6384,7.0675,70.1239,-0.2346,-0.036,-0.1662,333.5938
19:13:38:689,0.4908,2.9901,7.1369,69.9568,-0.2205,-0.1356,-0.1662,333.6406
19:13:38:711,0.6224,3.347,7.8455,69.9503,-0.3317,-0.2413,-0.2431,333.6406
19:13:38:731,0.5171,3.3087,8.7386,70.1901,-0.471,-0.2004,-0.2749,334.8125
19:13:38:748,0.3449,3.2417,9.8327,70.3676,-0.5718,-0.1784,-0.2608,334.9375
19:13:38:768,0.5961,3.0404,11.3839,70.7356,-0.5522,-0.2285,-0.1845,335.9844
19:13:38:788,1.1611,3.0885,12.3344,70.7409,-0.4001,-0.1735,-0.0702,336.0938
19:13:38:808,1.4222,3.6245,12.2554,70.8693,-0.2114,0.0049,0.0147,336.875
19:13:38:831,1.1803,4.1895,11.9656,71.0473,-0.0892,0.0825,0.036,336.9531
19:13:38:847,1.0199,4.0173,12.6168,71.2485,-0.0574,-0.0275,0.0104,338
19:13:38:869,0.9194,3.6631,13.5841,71.2736,0.0134,-0.1552,0.0018,338.1094
19:13:38:887,0.3114,3.3805,13.3496,71.4986,0.2364,-0.1362,0.0104,339.1094
19:13:38:908,-0.5171,3.402,11.7694,71.2771,0.5272,-0.0867,0.0684,339.2031
19:13:38:931,-1.1109,3.7062,10.2921,70.9503,0.6707,-0.1344,0.1558,339.7344
19:13:38:947,-1.4988,3.9503,9.4783,70.8309,0.5827,-0.2016,0.2297,339.7344
19:13:38:968,-1.3358,3.7445,9.6745,70.8851,0.3415,-0.3005,0.2816,340.0938
19:13:38:986,-0.3927,2.8992,10.8811,70.7421,0.1228,-0.4435,0.2883,340.625
19:13:39:047,0.1819,1.8793,12.1023,70.5625,0.08,-0.4575,0.2272,340.625
19:13:39:047,-0.3903,1.3956,11.566,70.3831,0.226,-0.1942,0.168,341.2031
19:13:39:047,-1.4414,1.4557,9.5261,70.0008,0.4349,0.077,0.201,341.2031
19:13:39:069,-1.4868,1.4533,8.0536,70.0615,0.5168,0.0183,0.3494,341.5
19:13:39:087,-0.6583,1.252,7.8933,70.1679,0.3952,-0.204,0.4991,341.5
19:13:39:107,0.5363,1.4844,8.7912,69.9121,0.1069,-0.2712,0.6145,341.4062
19:13:39:130,1.4055,1.8721,9.373,69.7779,-0.1796,-0.0177,0.6353,341.4062
19:13:39:148,1.6639,2.0447,9.1478,69.4627,-0.2914,0.2755,0.5235,341.4219
19:13:39:168,1.4414,1.9896,8.5062,69.4697,-0.2272,0.3812,0.3525,341.4219
19:13:39:187,1.1037,2.1141,8.5229,69.4578,-0.1429,0.284,0.2254,341.4219
19:13:39:208,0.8477,2.4108,8.7123,69.3765,-0.1038,0.248,0.171,341.4219
19:13:39:230,0.3353,2.8346,8.6258,69.0728,0.0678,0.5186,0.0727,341.1562
19:13:39:250,-0.2441,3.2489,8.0369,68.7008,0.2364,0.562,0.0092,341.1406
19:13:39:271,-1.1683,3.2608,5.9471,68.951,0.3451,0.4056,-0.0446,340.7031
19:13:39:290,-1.3502,3.3278,5.7266,68.6378,0.2847,0.1533,-0.0403,340.6719
19:13:39:308,-0.7923,3.402,6.6174,68.702,0.0605,-0.0666,0.0104,340.3906
19:13:39:327,0.1149,3.3757,8.6354,68.5702,-0.2065,-0.1631,0.014,340.375
19:13:39:349,0.821,3.2824,10.4958,68.2901,-0.4142,-0.0079,-0.0745,339.8438
19:13:39:368,0.833,3.2584,11.6354,68.2803,-0.5156,0.2639,-0.2089,339.7812
19:13:39:387,0.1914,2.6264,12.3894,68.3229,-0.4917,0.3726,-0.3299,338.7812
19:13:39:408,-0.1388,1.7692,13.0525,68.1044,-0.3176,0.2156,-0.3024,338.6719
19:13:39:430,-0.2512,1.5802,13.4405,67.7612,-0.0446,-0.0147,-0.1106,337.3438
19:13:39:448,-0.146,2.1906,12.9951,67.6695,0.2223,-0.1271,0.1509,337.3281
19:13:39:471,0.4525,2.7221,12.0832,67.3136,0.3543,-0.0935,0.3848,336.5469
19:13:39:488,1.3908,3.0835,10.9579,66.9893,0.2993,0.0079,0.5149,336.0938
19:13:39:511,1.8793,3.2058,10.6609,66.8971,0.0996,0.0348,0.4624,336.0938
19:13:39:532,1.8769,2.7485,11.3791,66.6467,-0.099,0.0183,0.2987,335.7969
19:13:39:548,1.4557,1.9128,11.8819,66.3124,-0.1368,0.0812,0.1552,335.7969
19:13:39:569,1.0869,1.4509,11.2714,66.4287,0.0397,0.1765,0.1222,335.7969
19:13:39:587,0.9218,1.398,9.5524,66.3485,0.3073,0.2162,0.171,335.7969
19:13:39:610,1.0869,1.5395,7.8215,66.3535,0.4349,0.1478,0.2333,335.8125
19:13:39:631,1.5706,1.7764,6.7777,66.1235,0.3286,0.011,0.2449,335.8125
19:13:39:651,2.0566,1.9128,7.0627,66.0745,0.0269,-0.1185,0.157,336
19:13:39:669,2.0758,1.9487,7.812,66.0745,-0.3183,-0.0672,-0.0147,336.0312
19:13:39:688,1.4198,1.7692,8.2789,65.8007,-0.5663,0.0965,-0.2077,336.5156
19:13:39:709,0.5889,1.4246,8.3172,65.7584,-0.6475,0.179,-0.3244,336.5625
19:13:39:731,0.0766,1.2736,8.4966,65.5072,-0.4594,0.025,-0.2016,336.5625
19:13:39:749,0.2082,1.4605,8.7697,65.3058,-0.2443,0.0055,-0.1106,336.5625
19:13:39:771,0.5339,2.2433,7.2709,65.1538,-0.0696,0.0788,-0.1057,335.7188
19:13:39:789,0.3879,2.5834,6.3586,65.4284,-0.0397,0.1093,-0.1216,335.625
19:13:39:809,0.2728,3.0763,6.2629,65.1436,-0.1668,0.0678,-0.1313,334.8594
19:13:39:832,0.4334,3.4451,6.9452,64.9993,-0.3824,-0.0049,-0.1417,334.7812
19:13:39:848,0.6129,3.3757,8.0249,64.9378,-0.5656,-0.0947,-0.1814,334.4375
19:13:39:868,0.7947,3.1436,9.495,64.8309,-0.6609,-0.1955,-0.2285,334.4062
19:13:39:887,0.9745,3.0739,10.8356,64.6138,-0.6866,-0.2028,-0.2511,333.9688
19:13:39:909,0.766,3.0212,11.9465,64.5189,-0.6609,-0.11,-0.2804,333.9375
19:13:39:932,0.2273,3.0404,12.9281,64.248,-0.5663,-0.0147,-0.2651,333.5312
19:13:39:947,0.067,2.9877,13.9505,63.983,-0.3409,-0.022,-0.1637,333.5312
19:13:39:969,0.3377,2.849,14.4317,63.9645,0.0342,-0.0489,-0.0098,333.7188
19:13:39:987,0.5028,3.0188,13.3663,63.6341,0.4649,0.0244,0.1228,334.2812
19:13:40:011,0.2321,3.5049,11.5134,63.5194,0.7709,0.0825,0.1881,334.2812
19:13:40:030,0.1747,3.6078,10.2132,63.3272,0.8436,0.0287,0.2028,334.5781
19:13:40:048,0.0287,3.6054,9.4926,63.1726,0.6964,-0.025,0.19,334.5781
19:13:40:071,-0.297,3.6413,9.6027,63.0396,0.3879,-0.0244,0.1619,334.7812
19:13:40:087,-0.5363,3.4331,10.2491,62.9283,0.033,0.0153,0.1417,334.7812
19:13:40:108,-0.5339,2.8705,11.0513,62.7091,-0.2413,-0.0525,0.1216,335.0312
19:13:40:131,-0.5435,1.9104,12.8324,62.7405,-0.3903,-0.2492,0.0849,335.0312
19:13:40:147,-0.8596,0.9482,13.6654,62.7665,-0.3421,-0.223,0.1026,335.4531
19:13:40:168,-1.4174,0.4765,12.842,62.5201,-0.088,0.0275,0.2346,335.4531
19:13:40:188,-1.0798,0.6535,11.0034,62.5525,0.2419,0.2046,0.4618,335.9531
19:13:40:209,-0.2922,1.0822,9.574,62.5745,0.4532,0.2223,0.6151,336
19:13:40:232,0.5698,1.5802,8.985,62.5471,0.4459,0.2614,0.6249,336.375
19:13:40:250,1.1563,1.8864,8.8199,62.4806,0.2963,0.3812,0.5107,336.4062
19:13:40:270,0.9553,1.8888,8.6617,62.5113,0.1515,0.5021,0.3011,336.3438
19:13:40:288,0.5411,1.6041,8.5875,62.3039,0.1008,0.5302,0.1283,336.3281
19:13:40:308,0.6607,1.5634,8.741,62.1532,0.1863,0.485,0.0751,336.0156
19:13:40:331,0.984,2.7532,7.3594,62.2031,0.6218,0.606,0.0171,335.9844
19:13:40:348,1.2114,2.7628,5.6979,61.9309,0.8356,0.5253,-0.1142,335.7031
19:13:40:368,0.6918,2.2863,4.5344,61.8907,0.9034,0.1808,-0.3152,335.6875
19:13:40:387,-0.6607,1.8194,4.721,61.8016,0.697,-0.2297,-0.4343,335.4062
19:13:40:407,-1.1994,1.9223,6.7226,61.9719,0.2883,-0.4868,-0.3091,335.3906
19:13:40:432,-0.4573,2.2217,9.0975,62.0097,0.0006,-0.4526,-0.0702,335.2188
19:13:40:447,0,2.7317,9.2507,62.1815,0.0238,-0.1692,0.0544,335.2031
19:13:40:468,-0.5363,3.0069,8.3459,62.0542,0.168,-0.0202,0.0428,334.4219
19:13:40:487,-0.9673,3.1388,8.3507,62.1973,0.2052,-0.1625,0.0672,333.0312
19:13:40:510,-0.8524,3.1747,9.4161,62.3775,0.1649,-0.4142,0.1588,333.0312
19:13:40:532,0.0144,3.0332,10.7112,62.5315,0.149,-0.5999,0.2395,332
19:13:40:549,0.8139,3.1053,11.8603,62.7087,0.1332,-0.5931,0.2504,332
19:13:40:569,1.0056,3.5408,12.1525,62.5425,0.1081,-0.3848,0.1778,331.6094
19:13:40:589,0.3425,3.4929,11.511,62.6599,0.1252,-0.2052,0.0574,331.6094
19:13:40:609,-0.189,3.0069,10.7136,62.7261,0.1503,-0.2547,0.0257,331.3906
19:13:40:631,-0.1005,2.9136,10.4049,63.1832,0.0556,-0.4044,0.1106,331.3906
19:13:40:650,0.8453,2.8226,11.0225,63.3209,-0.2266,-0.4368,0.1845,331.875
19:13:40:670,2.0183,2.3749,12.6817,63.4205,-0.6084,-0.2504,0.1313,331.875
19:13:40:688,2.2241,1.9968,14.2232,63.6202,-0.9199,0.2761,-0.0647,332.8281
19:13:40:709,1.1515,1.3813,13.8523,63.9864,-0.9688,0.9511,-0.2278,332.9375
19:13:40:731,0.486,1.4916,12.4158,64.1981,-0.5992,1.0879,-0.1539,333.0781
19:13:40:748,0.632,1.7548,10.9289,64.3877,0,0.6707,-0.0073,333.0938
19:13:40:771,1.5514,2.3677,9.5596,64.5884,0.5583,0.0953,0.1289,333.0625
19:13:40:789,2.6862,3.189,6.6556,64.6833,0.8301,-0.6047,-0.1472,333.0469
19:13:40:810,2.1284,2.9901,6.6963,64.755,0.3922,-0.5339,-0.4551,332.8906
19:13:40:833,1.0654,2.569,7.2541,65.0392,-0.1949,-0.1735,-0.7074,332.8594
19:13:40:850,0.2225,2.1212,7.9316,65.2813,-0.6096,0.1564,-0.8051,332.6562
19:13:40:867,-0.268,1.7979,8.298,65.1826,-0.6738,0.2773,-0.7581,332.6406
19:13:40:887,-1.0343,1.5156,7.9436,65.3462,-0.5082,0.314,-0.6347,332.6562
19:13:40:908,-1.008,1.8984,7.2709,65.4231,-0.2559,0.2388,-0.3121,332.6562
19:13:40:932,-0.2321,2.6312,6.9547,65.6566,0.0367,-0.0385,0.0489,332.5469
19:13:40:949,0.6727,3.1675,6.8088,65.7914,0.2443,-0.2895,0.1936,332.5312
19:13:40:970,1.3621,3.7445,6.9212,65.9657,0.248,-0.3971,0.1716,332.375
19:13:40:987,1.6256,4.2015,7.8096,66.1409,0.0342,-0.3317,0.0342,332.2969
19:13:41:011,1.4988,4.0507,9.0281,66.0258,-0.2669,-0.1252,-0.1643,332.2969
19:13:41:029,0.8716,3.4714,10.0576,66.4059,-0.4868,0.1289,-0.3457,332.0469
19:13:41:048,-0.0407,2.8418,10.5772,66.7972,-0.493,0.2914,-0.3891,332.0469
19:13:41:107,-0.7277,2.8657,11.0441,67.046,-0.3115,0.2902,-0.2059,332.4219
19:13:41:107,-0.6344,3.1101,11.4389,67.2636,-0.1313,0.2321,0.0617,332.4219
19:13:41:108,0.4765,3.5767,12.186,67.4989,-0.0061,0.1179,0.2749,333.875
19:13:41:128,1.209,3.8378,12.5426,67.9722,0.066,0.1301,0.3091,333.875
19:13:41:147,0.6344,3.6799,12.0111,68.461,0.0794,0.3011,0.1814,335.4062
19:13:41:168,-0.5746,3.3733,11.1206,68.6754,0.0489,0.4343,0.0678,335.4062
19:13:41:188,-1.3071,3.3781,10.3065,68.8098,-0.0153,0.4386,0.0745,336.2031
19:13:41:208,-1.1803,3.28,9.8925,68.8047,-0.1442,0.2859,0.1148,336.2812
19:13:41:232,-0.833,2.4036,11.2164,69.0412,-0.3867,-0.0336,0.0654,336.1406
19:13:41:248,-0.7636,1.1372,13.7542,68.9906,-0.5944,-0.2578,-0.0202,336.1094
19:13:41:271,-1.6567,0.6942,11.6928,69.0338,-0.0189,0.3842,0.2908,336.0625
19:13:41:289,-1.5275,1.1037,8.5899,69.0678,0.5033,0.4349,0.5418,336.0625
19:13:41:309,-1.3502,1.6783,6.4977,68.9361,0.7068,0.1564,0.6597,336.5156
19:13:41:332,-0.632,2.4586,6.4304,69.1188,0.5101,-0.2022,0.7294,336.5625
19:13:41:349,0.5243,2.6815,7.4169,68.9929,0.1185,-0.3195,0.7055,337
19:13:41:368,1.2425,2.636,8.0082,69.0976,-0.1594,-0.2004,0.5412,337.0469
19:13:41:387,1.319,2.2911,8.0273,69.1217,-0.226,-0.055,0.2755,336.6406
19:13:41:407,0.5865,1.8338,7.2948,69.0873,-0.2315,0.0709,-0.0342,336.6094
19:13:41:432,-0.0359,1.4028,8.0417,69.4039,-0.2523,-0.0556,-0.2169,336.0469
19:13:41:448,-0.2034,0.7086,9.2677,69.4961,-0.2156,-0.1264,-0.2449,336
19:13:41:469,-0.5913,0.9529,8.6761,69.7331,-0.1313,0.0904,-0.1881,335.6875
19:13:41:487,-1.0319,1.6711,8.5564,69.8237,0.0214,0.0745,-0.0904,335.3906
19:13:41:509,-0.9936,2.4754,8.1927,69.9963,0.19,-0.0336,-0.0177,335.3906
19:13:41:532,-0.6799,2.849,8.0489,70.1251,0.4074,-0.2712,-0.0073,335.2969
19:13:41:547,-0.4525,2.7126,7.4288,70.1165,0.4539,-0.2834,0.0092,335.2969
19:13:41:570,-0.8091,3.5456,7.4886,70.4858,0.0501,0.0849,0.0006,334.2969
19:13:41:587,-0.3185,3.7086,8.9109,70.2735,-0.1839,-0.014,0.0238,334.2969
19:13:41:608,-0.3951,3.754,10.8476,70.3853,-0.4172,0.0397,-0.0226,332.8906
19:13:41:630,-0.6129,3.5599,11.8364,70.5056,-0.441,0.1203,-0.0696,332.8906
19:13:41:647,-0.3233,3.1484,12.3153,70.6848,-0.3024,0.0324,-0.0513,331.625
19:13:41:669,0.4167,2.5451,12.7893,70.7101,-0.1167,-0.2077,-0.0061,331.625
19:13:41:687,1.1683,2.016,13.5338,70.7701,-0.0073,-0.3751,0.0501,331.2969
19:13:41:709,1.4533,2.0662,13.7662,71.0714,0.0305,-0.284,0.1045,331.2969
19:13:41:731,1.5419,2.5905,12.8492,71.0606,0.0757,-0.0715,0.135,331.75
19:13:41:748,1.7764,2.6886,12.143,71.2267,0.1228,-0.0312,0.1179,331.7969
19:13:41:769,2.406,2.7173,11.9225,71.0731,0.1332,-0.102,0.0825,332.0469
19:13:41:789,2.8298,1.7453,11.3408,70.7472,0.1295,-0.0446,-0.234,332.0625
19:13:41:810,1.8529,1.1659,10.5293,70.5563,0.1759,0.1002,-0.3995,332.1875
19:13:41:833,0.9482,0.9721,9.2578,70.5393,0.2761,0.1845,-0.4294,332.2031
19:13:41:848,0.7325,0.7971,8.1063,70.1774,0.3555,0.0715,-0.3549,332.2656
19:13:41:869,1.0893,1.1085,7.8622,69.7716,0.2847,-0.124,-0.2486,332.2812
19:13:41:887,1.7189,1.4821,8.365,69.52,0.0837,-0.2046,-0.2052,332.2344
19:13:41:907,1.8505,1.494,8.6091,69.2361,-0.1234,-0.102,-0.2859,332.2188
19:13:41:932,1.4509,1.331,8.5325,68.9507,-0.2627,0.0421,-0.4074,332.2656
19:13:41:947,0.8859,1.3525,8.3459,68.8418,-0.3134,0.08,-0.4649,332.2656
19:13:41:968,0.5291,1.5179,8.3674,68.8894,-0.2865,0.0079,-0.4423,332.3125
19:13:41:988,0.4262,1.7429,8.3339,68.4497,-0.2052,-0.055,-0.383,332.125
19:13:42:010,0.4382,1.9391,7.9436,68.5247,-0.0953,-0.0458,-0.3274,332.125
19:13:42:032,0.6248,2.1117,7.3164,68.5114,0.0079,-0.0305,-0.2865,331.9375
19:13:42:049,0.7564,2.5283,6.9404,68.585,0.0385,-0.0483,-0.2773,331.9375
19:13:42:068,0.7684,2.9901,7.0268,68.2998,-0.0293,-0.0464,-0.3042,332.2812
19:13:42:087,0.6966,3.268,7.3546,68.2864,-0.1264,-0.0324,-0.3586,332.2812
19:13:42:109,0.5794,3.3254,7.8861,68.2374,-0.1973,-0.033,-0.4184,333.1719
19:13:42:130,0.5506,3.323,8.5684,68.1432,-0.2388,-0.036,-0.4478,333.1719
19:13:42:147,0.4645,3.2345,9.5166,68.2143,-0.2547,-0.0507,-0.449,333.8906
19:13:42:169,0.5076,3.1316,10.4504,67.9777,-0.2126,-0.0715,-0.4184,333.8906
19:13:42:188,0.2512,2.9901,10.9193,67.8878,-0.0977,-0.044,-0.3958,334.4844
19:13:42:208,-0.62,2.7269,10.5867,67.4835,0.066,0.0128,-0.3842,334.4844
19:13:42:231,-1.252,2.5065,10.3161,67.6603,0.226,-0.0324,-0.2938,335.2969
19:13:42:249,-1.0152,2.6049,10.5604,67.6791,0.2981,-0.088,-0.1087,335.375
19:13:42:268,-0.2489,2.9853,10.6849,67.4905,0.2541,-0.0116,0.058,336.1875
19:13:42:288,0.0742,3.3541,10.5461,67.1965,0.1185,0.1161,0.0916,336.2656
19:13:42:310,-0.7134,3.6894,11.19,66.8408,-0.2676,0.1161,-0.0122,336.875
19:13:42:332,-0.6511,3.6703,11.4269,66.5544,-0.4722,0.0104,-0.0263,336.9375
19:13:42:349,-0.1699,3.1316,13.0119,66.2846,-0.7575,-0.1564,-0.0733,337.5469
19:13:42:369,0.0359,2.1715,15.8608,66.1598,-0.9822,-0.0794,-0.157,337.6094
19:13:42:388,-0.7181,1.2185,16.1674,65.807,-0.8222,0.4032,-0.1924,338.3594
19:13:42:407,-2.0255,0.7373,13.0143,65.3014,-0.2297,0.7892,-0.0782,338.4375
19:13:42:433,-2.1667,0.7493,9.5309,64.8639,0.4227,0.5577,0.237,339.3125
19:13:42:449,-0.9051,1.6878,8.1544,64.2843,0.8607,-0.1894,0.5809,339.4062
19:13:42:469,0.4143,2.461,7.8933,63.9043,0.9181,-0.6554,0.6622,340.2188
19:13:42:487,1.1396,2.6073,7.8407,63.703,0.6506,-0.5766,0.5296,341.0625
19:13:42:509,0.9577,2.2457,7.5054,63.1558,0.2889,-0.2456,0.281,341.0625
19:13:42:532,0.1484,1.5443,7.7593,62.7382,-0.0116,0.0073,0.0623,341.2031
19:13:42:549,-0.754,0.7636,7.8598,62.247,-0.2425,0.2535,-0.0079,341.2031
19:13:42:570,-0.6583,0.8931,7.8359,61.7689,-0.2541,0.259,0.1863,341.0312
19:13:42:588,-0.2321,1.4653,8.0058,61.3892,-0.0067,-0.0195,0.4453,341.0312
19:13:42:608,0.376,1.9056,7.4097,60.941,0.3042,-0.1735,0.5895,340.9688
19:13:42:632,0.3592,2.2839,6.6245,60.7151,0.4783,-0.2022,0.543,340.9688
19:13:42:648,0.0311,2.6384,5.8487,60.1993,0.4386,-0.1558,0.4282,341.1094
19:13:42:668,-0.1651,2.8011,6.1241,59.8306,0.2242,-0.1845,0.3341,341.1094
19:13:42:687,-0.2225,2.5905,6.871,59.3634,-0.0012,-0.2169,0.2749,341.125
19:13:42:708,-0.2417,2.4347,7.6229,59.1236,-0.1558,-0.2376,0.2419,341.125
19:13:42:731,0.1388,2.4682,8.6785,58.7026,-0.2773,-0.2676,0.2456,340.4062
19:13:42:747,0.6416,2.6384,9.9978,58.2507,-0.3928,-0.2419,0.2297,340.3281
19:13:42:769,0.8477,2.7245,11.5828,57.9844,-0.4771,-0.146,0.1527,339.4531
19:13:42:787,0.6799,2.2983,12.1765,57.5883,-0.474,0.0055,0.0428,339.3594
19:13:42:810,0.7229,0.7349,12.8922,57.5574,-0.2749,-0.1301,0.036,339.0781
19:13:42:832,0.7421,0.7181,12.3057,57.2908,-0.2498,-0.0476,0.1655,339.0469
19:13:42:851,1.0415,1.0439,12.2459,56.9804,-0.2614,0.0134,0.3323,338.75
19:13:42:869,1.4725,1.5299,11.8173,56.503,-0.2608,0.099,0.4484,338.7188
19:13:42:887,1.7931,1.6328,11.2403,56.1298,-0.284,0.1142,0.4221,337.7344
19:13:42:907,2.1882,1.4821,11.3384,55.783,-0.3696,0.0128,0.3219,337.6406
19:13:42:928,2.4323,1.0965,12.1837,55.6188,-0.4502,-0.0715,0.1863,336.7969
19:13:42:951,2.1404,0.6679,12.186,55.4033,-0.4227,0.0483,0.0544,336.7031
19:13:42:969,1.7333,0.2946,10.905,54.9521,-0.2572,0.1716,0.0073,336.1719
19:13:42:987,1.7118,0.2154,9.7965,54.582,-0.0996,0.0849,0.0483,335.6562
19:13:43:011,2.3366,0.6296,9.7199,54.1551,-0.0654,-0.1326,0.1124,335.6562
19:13:43:032,3.0165,0.8067,10.0744,53.9176,-0.1472,-0.2254,0.0599,335.25
19:13:43:048,2.8992,0.5483,10.3663,53.7144,-0.306,-0.0421,-0.1332,335.25
19:13:43:070,2.0255,-0.0287,9.7893,53.3774,-0.4673,0.3494,-0.3152,335.1719
19:13:43:087,1.1587,-0.2441,8.8941,52.7343,-0.5198,0.6029,-0.3457,335.1719
19:13:43:164,0.6823,0.1053,7.9316,52.2923,-0.4288,0.6267,-0.237,334.9531
19:13:43:165,0.6105,0.6679,7.1704,51.8778,-0.2254,0.4783,-0.0855,334.9531
19:13:43:165,0.9194,1.4151,6.3443,51.1596,0.0421,0.2132,0.0202,334.125
19:13:43:167,1.3071,2.0016,6.1648,50.6579,0.2327,-0.1362,-0.0006,334.0469
19:13:43:187,1.4844,2.2624,6.2055,50.0159,0.2028,-0.2944,-0.1246,333.1719
19:13:43:209,1.7237,2.5113,6.9811,49.6719,0.0244,-0.3128,-0.2504,333.1719
19:13:43:232,1.4462,2.715,7.934,49.2252,-0.1949,-0.1759,-0.416,332.8594
19:13:43:249,0.8477,2.6216,8.9492,48.9185,-0.3464,-0.0195,-0.5656,332.8594
19:13:43:268,0.5171,2.4036,9.7439,48.3076,-0.358,0.047,-0.6182,332.75
19:13:43:287,0.7421,2.138,10.4145,47.7489,-0.2578,-0.0018,-0.5797,332.7344
19:13:43:308,1.5467,2.3438,11.1278,47.6623,-0.1264,-0.1026,-0.5235,332.5938
19:13:43:333,1.252,2.7389,12.8492,47.3644,0.4386,-0.2584,-0.7458,332.5781
19:13:43:350,-0.0191,2.0614,11.7407,47.1367,0.5253,0.1326,-0.8008,332.9531
19:13:43:369,0.0048,2.2528,11.5851,46.6613,0.7422,-0.0629,-0.5589,332.9844
19:13:43:388,0.1484,2.5065,11.2594,46.1758,0.9584,-0.2975,-0.3598,333.3906
19:13:43:408,0.1986,2.8537,10.7471,45.7524,0.9175,-0.2535,-0.2376,333.4219
19:13:43:432,0.2297,3.1723,10.9074,45.2694,0.6988,-0.1051,-0.212,333.4219
19:13:43:448,-0.0431,2.9853,10.8476,44.9232,0.4893,0.0782,-0.2547,333.4062
19:13:43:468,-0.6033,2.7078,10.2203,44.6528,0.2364,0.3091,-0.2938,333.6094
19:13:43:487,-1.0893,2.2337,10.5963,44.2545,-0.0855,0.336,-0.2902,334.4062
19:13:43:508,-1.1539,1.2927,12.143,43.7493,-0.3354,0.2346,-0.237,334.4062
19:13:43:533,-1.3478,0.6057,12.6458,43.2316,-0.3561,0.2865,-0.1368,335.6406
19:13:43:547,-1.561,0.4741,11.8292,42.7983,-0.1429,0.273,0.0104,335.6406
19:13:43:569,-1.0941,0.5435,11.4628,42.3572,0.08,0.0305,0.1478,336.8438
19:13:43:589,-0.4693,0.6535,11.3145,42.037,0.1399,-0.0861,0.2071,336.8438
19:13:43:609,-0.189,0.7564,10.9385,41.3888,0.08,0.0434,0.1881,338.3594
19:13:43:633,-0.256,0.6176,10.4575,40.7719,0.0354,0.2474,0.1381,338.3594
19:13:43:649,-0.5243,0.5339,9.4807,40.3115,0.1075,0.3922,0.1185,338.375
19:13:43:668,-0.9745,0.4549,8.2502,39.8417,0.2627,0.3714,0.1478,339.9375
19:13:43:687,-1.0965,0.2994,7.1776,39.544,0.3995,0.1857,0.2443,340.7969
19:13:43:708,-1.0391,0.4741,6.6174,39.4163,0.4178,-0.0024,0.3964,340.7969
19:13:43:732,-0.7325,0.9099,6.4929,39.4172,0.325,-0.0641,0.5644,341.4062
19:13:43:750,-0.2946,1.3956,6.5097,39.2689,0.2242,-0.036,0.6945,341.4062
19:13:43:768,0.1364,1.8338,6.2127,39.1381,0.1735,0.0379,0.752,341.9219
19:13:43:787,0.4119,2.4036,5.6166,38.8689,0.1454,0.0513,0.73,341.9688
19:13:43:808,0.5243,2.916,5.4514,38.818,0.033,-0.0348,0.6249,342.2344
19:13:43:833,0.1986,3.3206,7.5006,38.6022,-0.4325,-0.2547,0.2883,342.25
19:13:43:850,0.2106,2.9112,9.7056,38.4093,-0.5546,-0.3903,0.1497,342.0469
19:13:43:871,0.8859,2.6121,12.3153,38.0814,-0.4948,-0.4264,0.0825,342.0312
19:13:43:888,1.0774,2.6456,12.9018,37.6533,-0.2114,-0.2511,-0.0159,341.6719
19:13:43:909,0.6799,2.5089,12.2913,37.285,0.0776,-0.1552,-0.1564,341.625
19:13:43:932,0.4454,2.1165,12.0422,37.1812,0.16,-0.2651,-0.2303,341.2969
19:13:43:948,0.4573,1.5371,12.8922,36.803,0.0391,-0.3561,-0.2223,341.2656
19:13:43:968,0.632,1.4055,13.4716,36.3635,-0.0654,-0.2364,-0.135,340.8594
19:13:43:987,0.8931,1.5586,12.8587,36.1744,-0.011,-0.0342,-0.0263,339.9375
19:13:44:010,1.3406,1.7883,11.7239,35.8712,0.102,0.0428,0.0586,339.9375
19:13:44:028,2.0112,2.0279,10.9723,35.5052,0.1038,-0.0305,0.0764,338.2969
19:13:44:049,2.5905,1.9175,11.2522,35.0626,-0.0922,-0.0757,-0.0208,338.2969
19:13:44:069,2.3605,1.1133,12.2698,35.05,-0.361,0.066,-0.1955,336.8125
19:13:44:087,1.6089,0.443,12.2291,34.7936,-0.383,0.2676,-0.306,336.8125
19:13:44:109,0.7588,-0.0933,10.8835,34.5885,-0.1142,0.2437,-0.2834,336
19:13:44:132,0.7134,-0.2632,9.7917,34.5709,0.1362,-0.0073,-0.0983,336
19:13:44:147,1.6113,0.1603,9.5859,34.6688,0.2101,-0.2504,0.146,335.9844
19:13:44:168,2.7867,0.7756,9.6601,34.625,0.1875,-0.3024,0.2767,335.7812
19:13:44:187,3.28,1.3023,8.9659,34.7335,0.1582,-0.1637,0.223,336.0156
19:13:44:208,3.2058,1.9152,8.1135,34.8474,0.0959,-0.0195,0.0489,336.0156
19:13:44:230,2.4203,2.4132,7.5437,34.7958,-0.047,0.0983,-0.1802,336.625
19:13:44:247,1.6472,2.4156,7.5532,34.596,-0.2187,0.1973,-0.3732,336.625
19:13:44:268,0.9577,2.0423,7.6493,34.8664,-0.2792,0.2321,-0.5058,336.8125
19:13:44:287,0.5243,1.5778,7.5317,35.0381,-0.2138,0.1985,-0.5669,336.8438
19:13:44:307,0.3257,1.4028,7.2733,35.043,-0.1362,0.1631,-0.5663,336.7188
19:13:44:328,0.3066,1.6184,7.3235,35.0319,-0.1252,0.1674,-0.5479,336.7031
19:13:44:349,0.1699,1.9606,7.7856,34.8616,-0.1778,0.2718,-0.529,336.9219
19:13:44:369,0.1842,1.9777,8.0728,35.0051,-0.2162,0.3054,-0.4868,336.9219
19:13:44:387,0.4286,1.9872,8.4488,34.855,-0.2621,0.2975,-0.4245,337.4062
19:13:44:407,0.6416,2.0877,9.1549,35.1364,-0.3207,0.273,-0.3873,337.4531
19:13:44:428,0.6081,2.1571,10.0409,35.2742,-0.3885,0.2816,-0.3763,337.4688
19:13:44:448,-0.1316,2.1691,10.6968,35.2093,-0.4099,0.3335,-0.3726,337.4688
19:13:44:467,-1.1755,2.0806,11.4772,35.0429,-0.3586,0.3488,-0.281,337.0469
19:13:44:486,-1.331,1.8386,12.265,35.1856,-0.1619,0.1979,-0.022,337.125
19:13:44:508,-0.4095,1.8458,13.0238,35.569,0.1472,-0.047,0.3097,337.125
19:13:44:528,0.8354,2.4084,13.0286,35.6972,0.441,-0.1851,0.5485,338
19:13:44:547,1.2185,2.8633,12.4684,35.9165,0.6481,-0.248,0.5815,338
19:13:44:568,1.1348,3.1077,11.2211,36.0722,0.733,-0.2999,0.5003,339.1719
19:13:44:587,0.7923,3.3541,10.1462,35.8092,0.642,-0.3983,0.3738,339.1719
19:13:44:608,0.6153,2.9877,10.005,35.898,0.2883,-0.4062,0.2315,339.1875
19:13:44:631,0.4406,2.0782,10.838,36.1427,-0.2651,-0.2205,0.1264,340.3125
19:13:44:647,0.3305,1.5012,12.9712,36.0216,-0.7141,-0.0354,0.102,340.3125
19:13:44:667,0.0622,0.7469,14.1969,35.8934,-0.719,0.171,0.1179,341.3125
19:13:44:687,-0.7325,0.0574,13.1219,35.8005,-0.234,0.3598,0.1869,342.0938
19:13:44:708,-1.0654,0.0981,10.2802,35.753,0.4985,0.2926,0.3787,342.0938
19:13:44:731,-0.8572,0.6368,7.922,35.7948,1.0525,-0.1387,0.5779,342.7656
19:13:44:747,-0.1484,1.3813,6.8973,36.0771,1.149,-0.5663,0.6799,342.7656
19:13:44:767,0.9625,1.8912,6.8207,36.0435,0.8204,-0.6945,0.642,342.9844
19:13:44:787,1.5706,1.884,7.6325,36.2445,0.234,-0.5186,0.438,342.9844
19:13:44:807,1.5395,1.4821,9.1693,36.5188,-0.3916,-0.1374,0.1765,342.2188
19:13:44:828,1.1372,1.2808,10.5006,36.5341,-0.741,0.2523,-0.033,342.1406
19:13:44:847,0.6272,1.0319,10.9531,36.833,-0.6499,0.4923,-0.1765,341.25
19:13:44:870,-0.1531,0.8859,9.3849,37.045,-0.2291,0.5388,-0.2156,341.1562
19:13:44:887,-0.5674,1.1444,8.1159,37.0347,0.6744,0.4361,-0.0354,340.7188
19:13:44:908,-0.376,1.4438,6.725,37.0791,0.9163,0.4032,0.0941,340.6875
19:13:44:930,0.0622,1.8625,5.2717,37.2642,0.9657,0.3647,0.1527,340.4062
19:13:44:948,0.1412,2.5762,4.2736,37.1873,0.7556,0.2694,0.1026,340.375
19:13:44:967,0.079,3.2177,4.6636,37.0894,0.3195,0.077,-0.0134,339.9375
19:13:44:988,0.0335,3.2154,6.8375,37.2769,-0.1698,-0.1381,-0.1613,339.0469
19:13:45:010,-0.0072,2.9734,9.0353,37.0612,-0.5162,-0.0977,-0.314,339.0469
19:13:45:032,-0.5195,2.5714,9.5788,37.1804,-0.7947,0.3628,-0.4661,337.8594
19:13:45:047,-1.197,1.9705,9.7487,37.1412,-1.1313,0.8051,-0.5223,337.8594
19:13:45:068,-0.9529,1.3047,11.3934,37.2481,-1.2724,0.5217,-0.4294,337.2656
19:13:45:087,-0.201,0.7325,13.759,37.1331,-1.0323,-0.1533,-0.303,337.2656
19:13:45:107,0.1507,0.5291,14.9776,37.3274,-0.5406,-0.5467,-0.2046,337.2656
19:13:45:128,-0.2154,0.6703,13.6008,37.6162,-0.0287,-0.4875,-0.1155,337.2812
19:13:45:147,-0.1268,1.2449,11.6354,37.7133,0.2193,-0.3787,0.022,337.2812
19:13:45:205,0.8931,1.7046,11.2666,37.8352,0.0898,-0.4074,0.1472,337.5469
19:13:45:206,2.4084,1.695,12.4301,37.7721,-0.2663,-0.3616,0.1472,337.4844
19:13:45:208,3.0165,1.3143,14.1562,37.7648,-0.5809,-0.1594,-0.0165,337.4844
19:13:45:227,2.3701,0.8043,14.9608,37.6451,-0.5699,0.1466,-0.234,337.2656
19:13:45:247,1.2879,0.3568,13.2275,37.7766,-0.1326,0.3873,-0.3488,337.2656
19:13:45:267,0.8429,0.0814,10.4551,37.7039,0.4551,0.2651,-0.3073,337.4688
19:13:45:287,1.0798,0.2946,8.7099,37.3973,0.8118,-0.1582,-0.193,337.4688
19:13:45:308,1.9056,0.7684,8.4057,37.4949,0.8118,-0.5039,-0.1258,338.0781
19:13:45:327,2.4227,1.0989,8.5229,37.5109,0.5388,-0.4545,-0.2016,338.1562
19:13:45:347,1.8147,1.0606,8.2597,37.6438,0.1771,-0.1216,-0.3995,338.6719
19:13:45:367,0.5985,0.7205,8.0058,37.9453,-0.1191,0.1704,-0.5577,338.7188
19:13:45:388,-0.6416,0.6105,8.0034,38.0917,-0.1753,0.1539,-0.4306,339.1562
19:13:45:408,-0.4693,0.9673,7.558,38.2563,0.0165,0.0305,-0.2834,339.1875
19:13:45:427,-0.146,1.3669,6.804,38.1483,0.1594,-0.0128,-0.1833,339.4062
19:13:45:448,0.0455,1.8099,6.184,38.5961,0.1362,0.0202,-0.1484,339.4375
19:13:45:467,0.1244,2.3031,6.1409,38.5898,-0.0305,0.0428,-0.1594,339.2188
19:13:45:487,0.1842,2.5331,6.9284,38.7465,-0.2511,0.0195,-0.2059,339.3438
19:13:45:507,0.1866,2.5113,8.1927,38.7453,-0.4386,0.0269,-0.2523,339.3438
19:13:45:528,-0.0502,2.5499,9.1214,38.578,-0.532,0.0953,-0.2633,339.9688
19:13:45:550,-0.0526,2.4802,9.9069,38.8821,-0.518,0.0855,-0.2107,340.0312
19:13:45:571,0.4621,2.3342,10.6705,38.862,-0.3836,-0.0452,-0.1045,340.0312
19:13:45:588,0.984,2.5089,11.0106,39.1261,-0.1729,-0.1704,-0.014,340.625
19:13:45:609,0.9697,2.9542,10.649,39.0196,-0.0318,-0.1124,-0.0061,340.625
19:13:45:634,0.5004,3.1579,10.3328,38.9204,-0.0776,0.0825,-0.0507,341.4375
19:13:45:649,-0.0263,3.0069,10.8404,38.9739,-0.2333,0.2272,-0.066,341.4375
19:13:45:668,-0.3688,2.7221,12.4182,38.94,-0.2871,0.179,-0.0116,342.5625
19:13:45:687,-0.4071,2.3988,13.3663,39.0322,-0.0709,0.0507,0.11,343.3125
19:13:45:707,0.1627,2.2098,13.0597,38.7827,0.3244,-0.0812,0.2669,343.3125
19:13:45:728,0.6942,2.4514,11.5804,38.6112,0.6579,-0.2156,0.3573,343.7188
19:13:45:750,0.8907,2.8322,10.0887,38.5851,0.6774,-0.3054,0.3128,343.7188
19:13:45:770,0.7923,2.7317,9.993,38.5549,0.2468,-0.2822,0.1637,344.0781
19:13:45:788,0.4813,1.9729,11.8819,38.7687,-0.4294,-0.19,0.0043,344.0781
19:13:45:809,-0.0742,0.7708,14.7452,38.7888,-0.8027,-0.1252,-0.0855,344.4844
19:13:45:834,-0.778,-0.419,15.6359,38.7861,-0.493,-0.0165,-0.0373,344.5312
19:13:45:851,-1.6448,-1.0439,12.6144,39.0303,0.3464,0.1112,0.1741,344.75
19:13:45:872,-0.8812,-0.0933,6.8399,39.1874,1.3158,-0.4746,0.8112,344.7812
19:13:45:889,0.2441,0.8186,6.469,39.6607,1.0812,-0.6347,0.9719,344.8125
19:13:45:911,0.9793,1.4701,6.306,39.6854,0.6426,-0.4752,0.9328,344.8125
19:13:45:934,1.5251,1.5921,6.5073,39.8448,0.1735,-0.2559,0.7483,344.8594
19:13:45:952,1.9657,1.343,7.0962,39.7704,-0.2437,-0.0855,0.5113,344.875
19:13:45:967,1.5826,1.1731,8.0943,39.8065,-0.5461,0.0159,0.2724,344.7188
19:13:45:987,0.5818,0.8955,9.0018,39.7597,-0.6683,0.0922,0.1093,344.7031
19:13:46:009,0.1005,0.5794,9.5524,39.5949,-0.5669,0.0928,0.1069,344.2031
19:13:46:027,0.1603,0.297,9.3395,39.7935,-0.2492,0.025,0.2181,344.1562
19:13:46:048,0.4813,0.7038,8.1879,39.6523,0.1191,-0.0672,0.3586,343.8281
19:13:46:069,0.9745,1.3597,7.3235,39.7133,0.325,-0.2028,0.4355,343.7969
19:13:46:088,1.3884,1.9681,7.0316,39.7048,0.2865,-0.2816,0.408,343.7969
19:13:46:109,1.5897,2.2504,7.3786,39.7517,0.0788,-0.2596,0.284,343.7812
19:13:46:134,1.5156,2.1308,8.1736,39.8041,-0.1765,-0.1894,0.1142,343.6094
19:13:46:151,1.2616,1.9295,9.4328,40.0874,-0.3824,-0.1332,-0.0244,343.6094
19:13:46:170,1.0415,2.0351,10.7638,40.3581,-0.4429,-0.1295,-0.0947,342.4688
19:13:46:188,1.0032,2.0088,11.5397,40.1789,-0.3647,-0.1619,-0.1307,340.6719
19:13:46:209,1.2736,1.7524,12.3607,40.0162,-0.2669,-0.2541,-0.1448,340.6719
19:13:46:232,1.3813,1.5562,13.0095,40.0662,-0.2059,-0.2706,-0.1545,339.3281
19:13:46:251,0.7253,1.6424,13.0023,39.8939,-0.1381,-0.168,-0.1558,339.3281
19:13:46:269,0.443,1.3789,12.4517,39.7703,-0.0287,-0.1277,-0.091,338.7969
19:13:46:288,0.9793,1.2927,11.8819,39.8571,0.0403,-0.2077,0.0476,338.7969
19:13:46:310,1.9801,1.7381,11.9369,39.8531,-0.0696,-0.2486,0.1655,338.4062
19:13:46:334,2.8729,1.8386,12.9736,39.77,-0.3146,-0.1484,0.1594,338.375
19:13:46:349,3.0739,1.1874,14.0868,39.7809,-0.4746,0.1106,0.0342,337.6406
19:13:46:370,2.4802,-0.2417,12.964,40.0334,0.0397,0.5204,-0.0428,337.5625
19:13:46:389,2.6216,-0.1507,11.1805,39.9659,0.4734,0.394,0.0751,336.9531
19:13:46:411,3.4499,0.1029,10.1222,40.2242,0.7074,0.124,0.1698,336.9062
19:13:46:435,4.3023,0.3233,9.7271,40.232,0.6927,0.0061,0.1399,336.8281
19:13:46:452,4.2855,0.5554,9.0832,40.2012,0.5259,0.1503,-0.025,336.8125
19:13:46:470,3.4642,0.5889,8.2597,40.2312,0.3415,0.3537,-0.2462,337.0312
19:13:46:488,2.5161,0.4884,7.515,40.304,0.2223,0.4478,-0.4013,337.3906
19:13:46:508,1.8912,0.4525,6.8207,40.4371,0.1985,0.4203,-0.4465,337.3906
19:13:46:528,1.5179,0.6775,6.2007,40.4032,0.2285,0.3317,-0.4276,337.4375
19:13:46:552,1.3765,0.9529,5.6357,40.4084,0.2474,0.2468,-0.3952,337.7031
19:13:46:569,1.2568,1.3334,5.2382,40.4909,0.215,0.19,-0.3806,337.7344
19:13:46:587,1.142,1.7261,4.9487,40.6129,0.11,0.1869,-0.3946,337.5469
19:13:46:608,0.9218,2.1643,4.666,40.5197,-0.0806,0.2266,-0.4386,337.5469
19:13:46:628,0.364,2.6097,4.8936,40.4214,-0.3586,0.2187,-0.4991,337.3125
19:13:46:648,-0.3712,2.8729,6.0954,40.4343,-0.6542,0.0922,-0.5272,337.3125
19:13:46:670,-0.6511,2.7126,8.1206,40.3078,-0.8546,-0.1387,-0.4704,337.3281
19:13:46:687,0.1244,2.1356,10.7064,40.219,-0.8863,-0.3647,-0.3225,337.0469
19:13:46:708,1.1922,1.8075,12.7798,40.2841,-0.7385,-0.3665,-0.1576,337.0469
19:13:46:729,1.573,2.083,13.85,40.4228,-0.5113,-0.135,-0.0403,336.9688
19:13:46:747,1.3908,2.3844,13.7806,40.4866,-0.2388,0.135,0.0342,336.9688
19:13:46:768,1.5299,2.2385,13.0597,40.5795,0.0947,0.1888,0.1069,337.5938
19:13:46:787,1.6854,2.1739,12.4684,40.6945,0.4221,0.0342,0.1533,337.5938
19:13:46:808,1.6735,2.3127,11.6713,40.5128,0.6432,-0.0666,0.16,338.4688
19:13:46:828,1.439,2.3797,10.2132,40.6044,0.7159,-0.0153,0.1264,338.4688
19:13:46:853,1.0941,2.3414,9.2076,40.9397,0.5834,0.0501,0.0605,339.2188
19:13:46:870,0.6464,2.3533,8.875,41.0012,0.2749,0.1234,0.0024,339.2969
19:13:46:888,0.1244,2.4251,9.3419,40.8688,-0.0996,0.1881,-0.0415,340.0781
19:13:46:909,-0.0861,1.3382,12.1573,40.9544,-0.4985,-0.0764,-0.0501,340.1562
19:13:46:936,-0.0814,0.7325,13.9146,40.8985,-0.3677,-0.2608,0.0061,341.0625
19:13:46:951,-0.4549,0.5315,13.6128,40.8962,0.0312,-0.1875,0.1142,341.1562
19:13:46:970,-0.7732,0.7684,10.4432,41.1839,0.5278,-0.0647,0.2578,341.875
19:13:46:989,-0.6607,1.2305,8.5349,41.2118,0.7239,-0.3329,0.3775,341.9375
19:13:47:011,0.0263,1.4151,8.5756,41.0712,0.5204,-0.6994,0.4575,342.0938
19:13:47:035,0.2608,1.1874,9.3586,41.1496,0.0672,-0.7837,0.4612,342.1094
19:13:47:049,0.4238,0.8931,10.4169,41.3972,-0.3476,-0.6237,0.4551,341.9375
19:13:47:069,0.7014,0.6535,11.0082,41.5604,-0.4789,-0.3744,0.4704,341.9062
19:13:47:087,0.7995,0.7995,10.1151,41.7478,-0.3482,-0.1271,0.4887,341.6875
19:13:47:110,0.3951,1.1707,8.7458,41.8315,-0.2449,-0.0745,0.4856,341.6562
19:13:47:129,-0.0622,1.6902,9.4519,41.8086,-0.3964,-0.2046,0.5186,341.5625
19:13:47:148,0.4262,1.9534,11.391,41.9793,-0.5284,-0.1967,0.6438,341.5625
19:13:47:170,1.4581,2.1787,12.6048,41.9512,-0.3054,0.0776,0.7568,341.5781
19:13:47:188,2.394,2.394,11.7455,42.0539,0.2627,0.4765,0.7538,341.625
19:13:47:267,2.2193,2.339,8.8558,41.8884,0.8924,0.7636,0.5913,341.625
19:13:47:267,1.7237,2.394,6.603,41.6527,1.262,0.6738,0.4148,341.5156
19:13:47:268,1.5275,2.4778,5.339,41.6304,1.3158,0.3763,0.2865,341.5156
19:13:47:269,1.5108,2.557,5.3773,41.7249,1.1185,0.0904,0.1552,340.9688
19:13:47:288,2.016,2.5379,6.6604,41.4994,0.7691,-0.0519,0.0257,340.9688
19:13:47:309,2.6097,2.3605,8.3124,41.1447,0.4074,-0.0122,-0.1374,340.1875
19:13:47:328,2.2361,2.1715,9.4591,41.3459,0.1258,0.1313,-0.3488,340.1875
19:13:47:349,0.8931,1.6711,10.3953,41.2477,-0.0501,0.193,-0.5168,339.3438
19:13:47:369,0.3257,0.9864,11.7598,41.1385,-0.0837,0.0702,-0.4807,339.2656
19:13:47:388,0.6464,0.3377,12.6673,41.3424,0.0794,-0.0782,-0.2798,338.2812
19:13:47:411,0.8907,0.7134,11.8412,41.3418,0.3439,-0.0928,-0.0483,338.1875
19:13:47:434,1.6089,1.2784,10.5748,41.1134,0.4484,-0.0855,0.1435,337.0312
19:13:47:452,3.5145,1.3573,10.3881,41.2278,-0.2107,-0.1381,0.0794,336.9219
19:13:47:469,3.3733,0.7708,12.8109,41.4062,-0.7361,-0.0269,-0.1423,335.3438
19:13:47:488,2.5977,0.2874,14.1371,41.3772,-0.9474,0.3946,-0.2969,335.2031
19:13:47:508,1.561,-0.4143,13.4453,41.3696,-0.6567,0.7202,-0.3286,334.1094
19:13:47:527,1.1468,-0.6224,11.4867,41.4303,-0.0678,0.6597,-0.157,334
19:13:47:552,1.4749,-0.1651,9.4567,41.2726,0.482,0.2987,0.1045,333.6094
19:13:47:569,1.9199,0.5387,7.989,41.2346,0.7819,-0.0855,0.2614,333.5625
19:13:47:588,2.3294,1.1611,6.9835,41.3011,0.8033,-0.2932,0.2822,333.7344
19:13:47:609,2.5184,1.5802,6.0117,41.2921,0.6273,-0.3195,0.1949,333.75
19:13:47:629,2.3438,1.8745,5.7003,41.45,0.292,-0.2804,0.0409,334.6406
19:13:47:652,2.1428,2.0758,6.1026,41.4025,-0.1136,-0.1753,-0.0953,334.6562
19:13:47:668,1.9199,2.1188,6.8351,41.4903,-0.4368,-0.0305,-0.2052,335.4844
19:13:47:688,1.5826,2.2361,7.4097,41.6917,-0.5907,0.1203,-0.2883,335.4688
19:13:47:709,1.5132,2.4802,7.5775,41.8872,-0.6029,0.2413,-0.3256,335.4688
19:13:47:734,1.4892,2.7245,7.5413,42.1077,-0.5455,0.2602,-0.3573,335.2031
19:13:47:752,1.1994,3.0571,7.611,42.1295,-0.4893,0.1692,-0.4044,335.2031
19:13:47:768,0.9864,3.3613,8.3746,42.0228,-0.4569,-0.0128,-0.4331,335.5156
19:13:47:787,0.9745,3.6102,9.2459,41.8585,-0.4019,-0.1344,-0.4398,335.5156
19:13:47:808,1.2784,3.4164,9.8686,41.8719,-0.3024,-0.1698,-0.4526,335.7812
19:13:47:829,1.951,2.8537,10.1797,41.8744,-0.2107,-0.1808,-0.4618,335.7812
19:13:47:852,2.5666,2.5017,11.1972,41.8072,-0.2407,-0.1686,-0.4667,335.4688
19:13:47:869,2.4562,2.8322,12.8587,41.5723,-0.3653,0.0397,-0.4936,335.4375
19:13:47:888,1.5012,2.9471,13.086,41.5666,-0.3036,0.4013,-0.5479,335.1562
19:13:47:908,0.1866,2.3844,12.1717,41.6826,0.022,0.5039,-0.5583,335.1406
19:13:47:930,-0.0957,2.3318,10.4408,41.9087,0.6512,0.0464,-0.1069,335.2812
19:13:47:953,0.376,2.9758,9.5166,42.1185,0.7086,-0.1277,0.08,335.2969
19:13:47:970,0.6894,3.524,9.4807,42.2327,0.543,-0.2364,0.1093,335.7031
19:13:47:989,0.7397,3.7397,9.3395,42.3879,0.2865,-0.2395,0.0214,335.7344
19:13:48:008,0.5363,3.4379,9.4328,42.5681,0.0006,-0.3213,-0.1295,336.2656
19:13:48:028,0.5243,2.5161,11.0728,42.7069,-0.328,-0.5693,-0.248,336.3281
19:13:48:053,0.352,1.4844,13.6008,42.6722,-0.5797,-0.6982,-0.3115,337.0625
19:13:48:068,-0.5626,0.5602,14.6925,42.7946,-0.5479,-0.4612,-0.2969,337.1406
19:13:48:088,-0.6751,0.3975,13.2945,42.9277,-0.0806,-0.1594,-0.0434,338.0312
19:13:48:109,-0.7301,0.5794,10.5365,42.9572,0.5046,-0.036,0.2205,338.1094
19:13:48:129,-1.1515,0.7014,7.6134,42.948,0.6591,0.0525,0.3665,339.1562
19:13:48:148,-0.256,1.4004,7.1776,43.0922,0.4117,-0.1674,0.6218,339.1562
19:13:48:171,1.3167,2.1045,8.9037,43.028,0.1723,-0.5369,0.7697,340.1719
19:13:48:187,2.2241,2.3557,10.1629,43.3768,0.0727,-0.4972,0.606,341.1562
19:13:48:208,2.2337,1.9681,9.6864,43.4886,0.0751,-0.0819,0.2828,341.1562
19:13:48:228,1.2855,1.6184,8.5756,43.4939,0.1533,0.2663,-0.011,341.3438
19:13:48:253,0.4741,1.2162,7.1991,43.6257,0.2871,0.3311,-0.1729,341.3438
19:13:48:269,-0.1627,0.9434,7.1321,43.8146,0.3787,0.0012,-0.2034,341.3438
19:13:48:288,-0.3736,0.9912,7.9053,43.6984,0.3757,-0.2743,-0.077,341.3438
19:13:48:309,-0.1484,1.3836,8.1063,43.6098,0.3476,-0.1771,0.1552,341.875
19:13:48:329,0.0814,2.0782,7.6493,43.6675,0.3109,0.1179,0.3384,341.875
19:13:48:352,-0.0239,2.648,7.0651,43.4168,0.27,0.3201,0.3928,342.6094
19:13:48:370,-0.1172,2.9016,6.9835,43.4416,0.1997,0.3396,0.3659,342.6094
19:13:48:387,0.1962,3.0523,7.3546,43.663,0.0764,0.2437,0.3604,342.5
19:13:48:409,0.7134,3.0715,8.4392,43.4449,-0.08,0.1301,0.361,342.4844
19:13:48:428,1.3836,3.2584,10.3711,43.3635,-0.2016,0.1234,0.3079,341.5938
19:13:48:452,0.9864,2.8418,11.7072,43.4972,-0.2718,0.3842,0.168,341.5
19:13:48:470,-0.0383,2.1667,11.4054,43.287,-0.3714,0.7361,-0.0678,340.2812
19:13:48:490,0.0909,1.6496,12.533,43.4512,-0.587,0.7746,-0.0635,340.1562
19:13:48:508,1.0128,1.5945,13.6654,43.6848,-0.4594,0.6108,0.1478,339.8594
19:13:48:527,1.3238,2.059,13.3185,43.6972,-0.1875,0.6518,0.2621,339.8281
19:13:48:548,1.4462,2.4802,12.0422,43.5105,0.0593,0.6151,0.2553,340.1875
19:13:48:570,1.707,2.3581,11.281,43.4804,0.0935,0.3824,0.1472,340.2188
19:13:48:587,1.884,1.6639,11.7407,43.4868,-0.1271,0.2065,-0.0116,340.2656
19:13:48:607,1.6496,0.8979,13.5458,43.2628,-0.4013,0.2004,-0.1552,340.2656
19:13:48:629,1.3813,0.6033,13.328,43.3706,-0.3103,0.3671,-0.1716,339.4844
19:13:48:653,0.8716,0.577,11.3073,43.2095,0.1344,0.3115,-0.1081,339.4219
19:13:48:669,0.6105,0.7229,9.2195,43.0603,0.5204,0.0153,0.0086,338.5156
19:13:48:687,0.9936,0.9553,8.2669,42.9868,0.606,-0.2938,0.1539,337.7188
19:13:48:708,2.0614,1.3047,8.6354,43.0852,0.4734,-0.4062,0.2425,337.7188
19:13:48:728,2.7461,1.6591,8.4081,43.1207,0.3048,-0.1955,0.1723,337.3594
19:13:48:751,2.15,1.7046,7.491,43.0811,0.1075,0.0935,-0.0727,337.3594
19:13:48:768,1.252,1.5108,6.9715,43.5054,-0.0947,0.1985,-0.284,337.25
19:13:48:787,0.7636,1.2903,6.7801,43.5668,-0.1808,0.1326,-0.3793,337.25
19:13:48:808,0.4382,1.2425,6.6413,43.5044,-0.1307,-0.0177,-0.4093,336.5469
19:13:48:829,0.3688,1.5538,6.8399,43.7683,-0.0391,-0.1637,-0.3854,336.5469
19:13:48:852,0.5171,2.15,7.089,43.773,0.0159,-0.1894,-0.3518,335.9531
19:13:48:868,0.687,2.5642,7.2829,43.7707,-0.0012,-0.1093,-0.3897,335.9531
19:13:48:887,0.6679,2.782,7.4815,43.9635,-0.0751,0.0037,-0.4722,336
19:13:48:908,0.5219,3.0117,8.0704,43.8698,-0.179,0.055,-0.543,336
19:13:48:929,0.4549,3.2704,8.566,43.7814,-0.2083,-0.0079,-0.5718,336.1562
19:13:48:947,0.565,3.1388,9.8877,44.0699,-0.1264,-0.2572,-0.6231,336.1719
19:13:48:971,0.5076,2.6743,10.8547,44.0609,0.124,-0.2712,-0.6597,336.1875
19:13:48:989,0.1914,2.3797,11.1733,43.9986,0.3781,-0.3421,-0.4881,336.1875
19:13:49:009,-0.1866,2.3246,10.7518,44.1663,0.4759,-0.3867,-0.2737,335.9531
19:13:49:027,0.3951,2.7485,11.7287,44.2807,0.405,-0.317,-0.0452,335.9219
19:13:49:051,1.0175,2.9375,12.035,44.3272,0.3341,-0.0434,0.1277,336.2344
19:13:49:068,1.0654,3.347,11.324,44.5119,0.3164,0.2517,0.2022,336.25
19:13:49:087,0.7971,3.6679,10.558,44.6357,0.3231,0.3024,0.1857,337
19:13:49:108,0.055,3.6918,9.629,44.3874,0.2895,0.2217,0.0867,337.0625
19:13:49:129,-0.7612,3.4905,9.3969,44.6169,0.0971,0.1106,-0.0067,337.8594
19:13:49:150,-1.1731,2.8872,10.2323,44.7444,-0.2181,0.0024,-0.0489,337.9375
19:13:49:168,-1.3167,1.951,12.076,44.8249,-0.4783,-0.1014,-0.047,338.8906
19:13:49:187,-1.6352,1.1348,13.6128,44.7544,-0.4991,-0.0538,0.0446,340.0625
19:13:49:209,-1.9175,1.2664,12.2746,44.5627,-0.2059,0.2315,0.2694,340.0625
19:13:49:228,-1.5921,1.963,9.2916,44.6655,0.1869,0.3066,0.4942,341.5781
19:13:49:252,-1.142,2.5475,7.4001,44.7026,0.3268,0.0049,0.5479,341.5781
19:13:49:326,-0.7205,2.7891,7.8861,44.8233,0.0977,-0.3018,0.4765,342.9844
19:13:49:327,0.0502,2.4993,9.3873,44.6486,-0.2535,-0.3164,0.3531,342.9844
19:13:49:327,0.8186,2.2457,10.2802,44.6697,-0.4001,-0.1148,0.1973,343.5625
19:13:49:337,1.386,2.1811,9.5644,44.7239,-0.2755,0.1307,-0.0037,343.5625
19:13:49:351,0.8907,2.2696,7.8957,44.8214,-0.0232,0.1564,-0.2663,343.25
19:13:49:368,0.0096,1.7668,7.5174,44.9051,0.1435,-0.16,-0.493,343.25
19:13:49:387,-0.4382,1.1324,9.0066,44.9624,0.2272,-0.5302,-0.5467,342.9531
19:13:49:409,-0.8692,0.9769,9.0233,45.0384,0.3744,-0.4923,-0.4325,342.9375
19:13:49:428,-1.1252,1.4486,8.1736,44.9361,0.4807,-0.2456,-0.1692,342.9531
19:13:49:447,-0.7612,2.1906,7.4001,45.0796,0.4704,0.0104,0.1179,342.9531
19:13:49:472,0.0837,2.959,7.1536,45.0041,0.3445,0.1222,0.2902,342.875
19:13:49:489,0.0933,3.4044,7.558,44.9387,0.1008,0.204,0.281,342.875
19:13:49:510,0.0048,3.0404,9.4591,44.9481,-0.2443,0.2297,0.1735,342.0312
19:13:49:528,-0.0502,3.0045,11.9895,45.1948,-0.7141,0.0538,0.1381,341.9375
19:13:49:547,-0.5363,2.9614,12.6601,45.2544,-0.667,0.2346,0.1704,341.0156
19:13:49:568,-1.0678,2.6958,13.0597,45.2982,-0.5131,0.2547,0.1912,340.9219
19:13:49:588,-0.055,2.0088,13.4955,45.434,-0.2236,0.0287,0.2908,340.3594
19:13:49:608,1.1085,1.7955,13.1195,45.4154,0.1631,-0.1081,0.4038,340.3125
19:13:49:629,1.0534,2.2361,11.7933,45.2141,0.4923,-0.0446,0.4471,340.5
19:13:49:652,0.9027,2.6934,10.2299,45.0735,0.6176,0.0122,0.463,340.5156
19:13:49:669,1.4701,3.1149,9.3562,45.0166,0.5033,-0.0898,0.4282,341.8125
19:13:49:687,2.4203,2.9949,9.2578,44.8905,0.2291,-0.2474,0.2987,342.7031
19:13:49:707,2.5738,2.3174,10.1342,44.6863,-0.1662,-0.3262,0.0611,342.7031
19:13:49:728,2.0806,1.4988,11.7646,44.4251,-0.5589,-0.2688,-0.16,342.3125
19:13:49:751,1.2903,0.6751,12.478,44.4312,-0.7422,-0.0147,-0.2193,342.3125
19:13:49:768,0.7684,0.4597,11.8747,44.2722,-0.5907,0.2602,-0.0776,341.7188
19:13:49:787,1.2209,0.553,11.2164,44.3033,-0.1674,0.2248,0.1472,341.7188
19:13:49:808,2.0399,0.9769,10.1127,44.4636,0.3671,0.0812,0.2822,341.2812
19:13:49:828,2.7293,1.5754,8.9013,44.317,0.7538,-0.0605,0.2492,341.2812
19:13:49:853,3.0165,1.8051,8.219,44.309,0.7935,-0.1778,0.0476,340.6719
19:13:49:869,2.6838,1.6831,8.3195,44.2752,0.4728,-0.1741,-0.2327,340.6719
19:13:49:888,1.8458,1.2138,8.7027,44.4699,-0.0434,0.0544,-0.4349,339.9219
19:13:49:909,1.0415,0.9386,8.7314,44.4403,-0.4105,0.3543,-0.4496,339.9219
19:13:49:928,0.6296,1.2281,8.1135,44.4004,-0.4276,0.5406,-0.3409,339.1094
19:13:49:947,0.9266,1.9872,7.5054,44.5443,-0.1857,0.4875,-0.2162,339.0312
19:13:49:971,1.2425,2.2768,6.6413,44.4085,0.2346,0.1894,-0.2963,338.4219
19:13:49:989,1.5179,2.9279,5.5184,44.4881,0.0941,-0.0397,-0.3665,338.375
19:13:50:012,1.7572,3.2943,6.7753,44.3647,-0.1338,-0.3714,-0.4245,338.5
19:13:50:029,1.386,3.2321,8.5899,44.1701,-0.314,-0.5094,-0.5699,338.5156
19:13:50:047,0.711,2.8394,9.5955,43.8895,-0.3891,-0.284,-0.7068,338.6562
19:13:50:071,0.0287,2.6527,9.6673,43.68,-0.4111,0.0745,-0.7,338.6719
19:13:50:088,-0.2827,2.6623,9.9906,43.7327,-0.4203,0.1961,-0.5601,338.2188
19:13:50:107,-0.2201,2.9542,11.0752,43.6197,-0.3586,0.069,-0.3525,338.1719
19:13:50:128,-0.2321,3.2321,11.6737,43.6341,-0.1985,0.0501,-0.1973,338.0469
19:13:50:148,-0.6607,3.1531,11.7933,43.6255,-0.0293,0.1435,-0.1148,338.0312
19:13:50:169,-0.9075,2.9758,11.8005,43.5654,0.0684,0.2437,0.0018,338.8281
19:13:50:188,-0.3042,3.0308,11.9034,43.7089,0.1185,0.2792,0.1649,339.4531
19:13:50:209,0.1842,2.9542,11.6545,43.8728,0.1875,0.3121,0.2248,339.4531
19:13:50:229,-0.256,2.7628,11.0943,43.9002,0.1674,0.3787,0.1594,339.75
19:13:50:253,-0.6416,2.5666,10.9651,43.7746,0.0379,0.3488,0.1509,339.75
19:13:50:269,-0.5243,2.3366,11.1183,43.6387,-0.1338,0.2657,0.1704,340.4844
19:13:50:287,-0.012,1.7596,11.5612,43.4292,-0.2853,0.1014,0.1332,340.4844
19:13:50:309,0.553,1.3454,12.6239,43.288,-0.27,-0.1625,0.0751,341.6719
19:13:50:328,0.3018,0.6009,12.3368,43.4146,0.0379,-0.193,0.0568,341.6719
19:13:50:351,-0.8234,0.7923,9.2797,43.2838,0.4923,0.0061,0.0935,343.1562
19:13:50:370,-1.4028,1.5682,7.1489,42.9359,0.967,-0.3464,0.1698,343.1562
19:13:50:388,-1.1563,1.9247,6.9284,42.7119,1.2309,-0.9816,0.2132,344.0469
19:13:50:408,-0.2345,2.0782,7.1465,42.8807,1.0274,-1.1417,0.1961,344.0469
19:13:50:428,0.419,2.0758,7.6062,43.0189,0.2651,-0.6701,0.1106,344.3125
19:13:50:451,1.008,1.908,9.0688,42.9809,-0.4759,-0.2321,0.0312,344.3281
19:13:50:470,0.4717,1.6902,9.9763,42.988,-1.0079,0.2633,-0.0281,344.125
19:13:50:488,-0.1819,1.4462,10.194,42.7683,-1.1069,0.5498,-0.0226,344.1094
19:13:50:510,-0.5171,1.331,9.5931,42.7802,-0.777,0.5626,0.069,343.6719
19:13:50:536,-0.5841,1.9825,7.8838,43.0287,0.1545,0.146,0.2773,343.625
19:13:50:551,-0.2536,2.2744,7.5054,43.3863,0.3219,-0.0037,0.3451,343.2031
19:13:50:567,0.1364,2.6408,7.3905,43.2962,0.3024,-0.0293,0.3616,343.1562
19:13:50:587,0.0167,3.0212,7.2565,42.7654,0.1704,0.0611,0.3036,342.8906
19:13:50:607,0.0191,3.0981,7.3403,42.5575,-0.0195,0.1435,0.2199,342.8594
19:13:50:628,-0.1484,2.9997,8.2119,42.3674,-0.2724,0.1747,0.1301,342.7969
19:13:50:647,-0.1292,2.7987,9.8423,42.3649,-0.4972,0.1405,0.0806,342.7969
19:13:50:669,-0.1029,2.6551,11.3791,41.9776,-0.5742,0.0977,0.0751,342.875
19:13:50:689,-0.0814,2.4897,12.3177,41.5179,-0.4752,0.0825,0.0727,343.0312
19:13:50:709,-0.055,2.1308,12.9305,41.1014,-0.248,0.0079,0.0562,343.0312
19:13:50:728,0.2297,1.7955,12.9209,40.9398,0.0177,-0.0825,0.0739,342.8594
19:13:50:747,0.3257,1.8482,12.5258,41.063,0.2193,-0.1307,0.1167,342.8594
19:13:50:769,0.3329,2.0207,12.0903,41.2144,0.3128,-0.1405,0.1521,342.4219
19:13:50:787,0.51,2.1452,11.4174,41.1378,0.3189,-0.1826,0.1503,342.4219
19:13:50:808,0.7373,1.963,11.5158,40.9513,0.1869,-0.2767,0.0935,341.8281
19:13:50:828,1.1874,1.4127,12.2172,41.2012,-0.0556,-0.2498,0.044,341.8281
19:13:50:847,1.7189,0.9075,12.8731,41.2822,-0.2468,-0.0531,0.025,341.1875
19:13:50:868,1.8769,0.8234,12.4804,41.3342,-0.2816,0.2608,0.0189,341.1406
19:13:50:887,1.6926,1.0582,11.403,41.3225,-0.1698,0.4704,0.0293,340.5469
19:13:50:909,1.8601,1.1779,10.9241,41.4205,0.0238,0.3854,0.0415,340.5469
19:13:50:927,2.5161,0.8091,10.625,41.2675,0.3024,0.1118,0.0287,340.2031
19:13:50:947,2.7532,0.7828,9.5333,41.2567,0.5748,-0.0617,-0.0061,340.1562
19:13:50:970,2.5905,1.1228,8.1449,41.1124,0.6707,-0.099,-0.0709,339.875
19:13:50:990,2.1978,1.3502,6.9906,41.033,0.565,-0.0495,-0.179,339.8438
19:13:51:011,0.9194,1.3956,6.0332,41.0882,0.3384,0.022,-0.3066,339.7031
19:13:51:030,0.3544,1.3478,6.5216,41.0057,0.0709,0.0556,-0.3989,339.6875
19:13:51:048,0.3784,1.3143,6.8064,40.8884,-0.2651,0.0806,-0.3995,339.5156
19:13:51:070,0.6464,1.6496,7.022,40.9141,-0.2688,0.0611,-0.35,339.4844
19:13:51:088,0.7995,2.0088,7.1369,40.7926,-0.2523,0.0287,-0.3415,339.3594
19:13:51:108,0.62,2.4203,7.2709,40.7712,-0.284,-0.0031,-0.3812,339.3438
19:13:51:129,0.3903,2.5786,7.9579,40.8451,-0.3567,-0.0794,-0.4374,339.2969
19:13:51:152,0.1077,2.4826,9.1262,40.7201,-0.3928,-0.1741,-0.4679,339.2812
19:13:51:171,-0.067,2.4419,9.8181,40.3935,-0.358,-0.1936,-0.4368,339.0938
19:13:51:187,-0.0455,2.5041,10.5365,40.1464,-0.3256,-0.1448,-0.3531,338.9531
19:13:51:208,0.201,2.6049,11.566,40.1079,-0.2938,-0.0531,-0.2504,338.9531
19:13:51:228,0.2058,2.8035,11.98,39.8183,-0.157,0.066,-0.1649,339.2188
19:13:51:248,-0.1819,2.8274,11.0848,39.8602,0.066,0.1466,-0.099,339.2188
19:13:51:269,-0.28,2.5355,10.6298,39.6893,0.2449,0.014,0.0079,339.8594
19:13:51:287,0.4119,2.5714,11.4365,39.5596,0.3354,-0.2303,0.1729,339.8594
19:13:51:309,1.0989,2.8753,12.0398,39.6348,0.3873,-0.2688,0.2895,340.7344
19:13:51:388,1.3095,2.9973,11.3025,39.7795,0.3995,-0.0617,0.2975,340.7344
19:13:51:388,1.0917,3.0141,10.2802,39.8489,0.3299,0.1234,0.2621,341.4688
19:13:51:389,0.9218,3.2847,9.7511,39.7125,0.2138,0.1252,0.2321,341.4688
19:13:51:389,0.4765,3.4068,9.5931,39.9272,0.077,0.0104,0.1637,342.2031
19:13:51:408,0.2154,3.0428,10.261,40.01,-0.0983,-0.1503,0.0837,342.2031
19:13:51:429,0.0981,2.473,11.98,40.1167,-0.2773,-0.2779,0.0232,343.0469
19:13:51:447,-0.1101,1.5299,13.5362,40.0934,-0.2902,-0.2639,-0.0024,343.1406
19:13:51:469,-0.3353,0.9721,13.0693,40.0232,-0.0024,-0.1246,0.0733,343.8906
19:13:51:488,-0.4525,1.2999,10.7279,40.0315,0.4209,-0.0898,0.2052,343.9531
19:13:51:511,0.7158,1.8888,9.1597,39.9762,0.6506,-0.325,0.2877,344.3281
19:13:51:529,0.9051,1.9391,9.1956,39.9277,0.628,-0.5308,0.2755,344.375
19:13:51:549,0.8501,1.7644,9.318,39.8691,0.2547,-0.3586,0.0489,344.4688
19:13:51:569,0.6966,1.6663,9.3132,39.7427,0.0935,-0.1558,-0.0238,344.4844
19:13:51:588,0.4741,1.5802,9.0281,39.5442,0.0562,-0.0037,-0.0501,344.1719
19:13:51:607,0.2776,1.5562,8.4296,39.3083,0.1271,0.0678,-0.036,344.1406
19:13:51:628,0.28,1.7094,7.6875,39.3229,0.2425,0.0751,0.0177,343.6562
19:13:51:651,0.5363,2.0375,7.0098,39.3445,0.3708,0,0.0812,343.6094
19:13:51:669,0.6488,2.4778,6.3873,39.3835,0.4795,-0.1417,0.1014,343.2344
19:13:51:688,0.5195,2.8298,5.9542,39.5292,0.5369,-0.3292,0.077,343.0938
19:13:51:708,0.2632,3.0308,6.0165,39.4114,0.5235,-0.5461,0.0415,343.0938
19:13:51:729,0.1412,3.1866,6.6389,39.4174,0.4294,-0.6725,0.0305,343.0312
19:13:51:747,0.2321,3.536,7.4504,39.5624,0.2474,-0.5754,0.0556,343.0312
19:13:51:769,0.5291,3.8067,8.3722,39.7471,0.0189,-0.317,0.0794,342.6875
19:13:51:787,0.9386,3.9383,9.7558,39.8988,-0.1942,-0.0428,0.0812,342.6875
19:13:51:808,1.3358,3.955,11.3169,39.8072,-0.2853,0.1545,0.0709,342.4844
19:13:51:828,1.8864,3.8378,12.1932,39.8831,-0.149,0.1888,0.0647,342.4844
19:13:51:854,2.4586,3.7947,12.3057,39.7389,0.1038,0.0709,0.0403,342.5781
19:13:51:869,2.8322,3.7397,11.9656,39.8509,0.2737,-0.0556,-0.0147,342.5781
19:13:51:887,2.9255,3.5575,11.6234,39.5757,0.2651,-0.113,-0.0892,342.6875
19:13:51:908,3.0141,3.4475,11.2403,39.6941,0.1075,-0.0678,-0.1429,342.6875
19:13:51:928,3.05,3.5169,11.1063,39.6666,-0.1338,0.0128,-0.1869,342.6094
19:13:51:947,3.0643,3.3326,11.4174,39.3468,-0.3861,0.0825,-0.2572,342.6094
19:13:51:969,3.026,2.7078,11.9345,39.2914,-0.6072,0.2162,-0.3476,342.6094
19:13:51:988,2.9758,2.1978,12.5521,39.1617,-0.766,0.4526,-0.4154,342.6094
19:13:52:008,2.648,1.8242,12.3248,39.2692,-0.7715,0.7758,-0.4716,342.8281
19:13:52:030,2.0183,1.1922,10.4408,39.0857,-0.5699,0.9059,-0.4948,342.8438
19:13:52:055,2.0375,1.0965,9.4735,39.311,-0.2169,0.708,-0.4655,342.9062
19:13:52:068,2.1619,1.1827,8.0919,39.2167,0.5351,-0.0672,-0.3897,342.9062
19:13:52:088,2.2146,1.3334,6.7466,39.1207,0.5999,-0.2016,-0.4331,342.7031
19:13:52:107,1.896,1.6089,5.796,39.0226,0.3732,-0.1533,-0.5143,342.6875
19:13:52:127,1.2257,1.829,5.7912,39.0635,0.0043,-0.0825,-0.6078,342.5312
19:13:52:148,0.4956,1.7237,6.457,38.9846,-0.3299,-0.0562,-0.6585,342.5156
19:13:52:168,0.1986,1.6496,7.4288,39.1246,-0.5278,-0.0715,-0.6157,342.6875
19:13:52:187,0.3449,1.9295,8.3507,39.118,-0.5583,-0.1087,-0.5033,343.0312
19:13:52:208,0.8764,2.3007,8.6474,39.1529,-0.4374,-0.1258,-0.4025,343.0312
19:13:52:227,1.2401,2.648,8.231,39.1297,-0.2627,-0.1319,-0.3763,343.6094
19:13:52:252,1.2185,2.7963,7.8479,39.3461,-0.1869,-0.1374,-0.4184,343.6094
19:13:52:270,1.0606,2.8801,8.135,39.4371,-0.2486,-0.1002,-0.4575,344.2188
19:13:52:289,0.821,2.9088,8.6665,39.4591,-0.3225,-0.0324,-0.4624,344.2188
19:13:52:308,0.6775,2.8537,9.0497,39.5497,-0.325,0.0073,-0.4221,344.8438
19:13:52:328,0.833,2.8561,9.5213,39.2929,-0.281,-0.011,-0.3274,344.9062
19:13:52:347,1.2162,3.0332,10.0026,39.4909,-0.1985,-0.0348,-0.223,344.9219
19:13:52:370,1.4127,3.457,10.2562,39.3508,-0.0586,-0.0678,-0.1637,345.8281
19:13:52:387,1.1133,3.7923,10.1007,39.4281,0.1142,-0.1454,-0.1576,347.0469
19:13:52:408,0.6918,3.9742,10.582,39.2843,0.3048,-0.4392,-0.1338,347.0469
19:13:52:428,0.644,4.0914,12.2291,39.3144,0.5192,-0.821,-0.0721,348.4219
19:13:52:453,0.5913,4.1536,12.6458,39.3341,0.6426,-0.6622,-0.0269,348.4219
19:13:52:469,0.5698,3.9479,11.9297,39.3768,0.5107,-0.011,0.0073,349.4688
19:13:52:488,0.2512,3.7995,10.8452,39.3534,0.2798,0.5272,0.0336,349.5625
19:13:52:509,-0.256,3.9407,10.1749,39.2066,0.1148,0.6322,0.0367,350.3125
19:13:52:527,-0.4047,3.8713,10.3232,39.4311,0.0159,0.4374,0.0104,350.3906
19:13:52:555,-0.5554,3.2441,11.1422,39.4287,-0.2083,0.3402,-0.0483,351.25
19:13:52:570,-0.9649,1.5299,12.0879,39.5176,-0.2181,0.4649,0.0348,351.3281
19:13:52:588,-0.5243,1.2736,11.0417,39.5919,-0.0348,0.4954,0.1949,352.1562
19:13:52:608,0.0383,1.628,8.9707,39.4043,0.2132,0.3402,0.306,352.2344
19:13:52:628,0.3185,1.707,7.9771,39.491,0.2352,0.0776,0.2993,352.75
19:13:52:653,0.5076,1.6496,8.3076,39.5935,-0.0299,0.0086,0.2535,352.7969
19:13:52:669,0.6464,1.6639,8.8056,39.7384,-0.3036,0.1295,0.1985,353.1562
19:13:52:687,0.7971,1.5347,8.7984,39.6392,-0.3317,0.1393,0.1301,353.625
19:13:52:709,0.8282,1.398,8.5804,39.6657,-0.1643,-0.0409,0.0641,353.625
19:13:52:728,0.5076,1.1539,8.0154,39.7436,-0.0049,-0.215,0.0183,353.9219
19:13:52:747,0.1938,1.0869,8.1616,39.8357,-0.0293,-0.2712,0.0373,353.9219
19:13:52:769,0.2632,1.252,8.5181,40.0293,-0.1509,-0.1185,0.1191,353.7188
19:13:52:787,0.3544,1.6591,8.3435,39.9654,-0.1484,0.0757,0.1881,353.7188
19:13:52:809,0.2776,1.9056,7.9412,40.1066,0.0293,0.1002,0.2095,353.625
19:13:52:828,0.1842,1.884,7.0747,40.0508,0.2981,-0.0116,0.2144,353.625
19:13:52:848,0.0861,1.9199,5.8774,40.0257,0.4771,-0.1918,0.237,353.625
19:13:52:870,0.3353,2.1906,5.4778,40.2153,0.408,-0.3812,0.2883,353.4531
19:13:52:887,0.8378,2.6456,6.2079,40.2117,0.1038,-0.449,0.3115,352.7969
19:13:52:909,1.1779,2.9447,7.7665,40.4696,-0.3189,-0.3292,0.2456,352.7969
19:13:52:928,1.1707,3.0045,9.7367,40.5895,-0.6701,-0.1588,0.124,352.2031
19:13:52:947,0.9482,2.8753,11.6809,40.7105,-0.7917,-0.1222,0.0147,352.2031
19:13:52:970,0.9984,2.5522,13.3639,40.6781,-0.6744,-0.2407,-0.0299,351.7656
19:13:52:987,1.2138,2.217,14.0845,40.8752,-0.3977,-0.3525,-0.0195,351.7188
19:13:53:008,1.5156,2.0638,13.8547,41.0075,-0.1197,-0.3329,0.0153,351.6406
19:13:53:027,1.4055,2.0471,12.8085,40.8283,0.0403,-0.1833,0.0531,351.6406
19:13:53:047,1.6878,2.1595,11.9441,40.9696,0.0678,-0.099,0.1087,351.5156
19:13:53:073,2.2744,2.3797,11.8914,41.0171,-0.0525,-0.1264,0.1283,351.5
19:13:53:087,2.8681,2.0997,14.7212,41.0417,-0.6872,0.3702,-0.1032,351.0625
19:13:53:107,2.2289,1.1492,14.5466,41.1818,-0.7391,0.9248,-0.2792,351.0312
19:13:53:127,1.4868,0.5076,13.1387,41.3222,-0.4679,1.1582,-0.3152,350.6875
19:13:53:147,1.5323,0.4454,11.7622,41.3638,-0.0538,0.9199,-0.1949,350.6562
19:13:53:170,1.9199,0.8139,10.7853,41.4996,0.3066,0.4777,-0.066,350.2344
19:13:53:187,2.2122,1.1803,10.2754,41.8844,0.4471,0.2169,-0.0208,349.7969
19:13:53:209,2.2361,1.4222,9.7846,41.9759,0.3836,0.2908,-0.047,349.7969
19:13:53:228,1.9343,1.5873,8.9659,42.0015,0.2963,0.4917,-0.1075,349.6719
19:13:53:253,1.4892,1.6639,7.9053,42.2686,0.2957,0.5656,-0.1668,349.6719
19:13:53:270,1.1276,1.7094,6.9954,42.4405,0.3781,0.4239,-0.201,349.7188
19:13:53:287,0.8354,1.7979,6.1337,42.5208,0.4661,0.2181,-0.2309,349.7188
19:13:53:308,0.4454,1.7309,5.2908,42.6031,0.4587,0.0922,-0.2853,349.7031
19:13:53:328,-0.0861,1.6591,5.1449,42.9285,0.2853,0.0476,-0.3268,349.5781
19:13:53:348,-0.3473,1.8314,5.8439,43.0423,0.0061,0.102,-0.3048,349.5781
19:13:53:370,-0.51,2.0925,6.7561,43.2908,-0.1985,0.1686,-0.2511,349.3594
19:13:53:387,-0.4238,2.2433,7.5846,43.45,-0.2248,0.1002,-0.1894,349.4844
19:13:53:461,-0.0072,2.3318,8.4416,43.6919,-0.1374,-0.1148,-0.1167,349.4844
19:13:53:462,0.6464,2.3462,9.5907,43.8303,-0.0788,-0.3439,-0.0672,349.75
19:13:53:462,0.8429,2.6647,11.1446,44.2729,-0.1368,-0.3977,-0.0562,349.75
