Time,Acc_X,Acc_Y,Acc_Z,Meg,Gyr_X,Gyr_Y,Gyr_Z,Ore
19:21:06:840,-0.8019,3.6823,8.9515,64.1225,-0.2492,-0.2352,0.0617,64.625
19:21:06:856,-0.833,3.4786,9.8758,64.0554,-0.3341,-0.1484,0.0495,64.625
19:21:06:877,-0.9482,3.4068,10.6346,63.9888,-0.2523,-0.0177,0.0593,64.625
19:21:06:895,-0.7588,3.5216,10.1007,63.8574,0.022,0.0409,0.1002,64.625
19:21:06:915,-0.7804,3.7229,9.1717,63.7982,0.27,-0.0189,0.1106,64.625
19:21:06:940,-0.6918,3.8498,8.4942,63.9759,0.3427,-0.1155,0.113,64.625
19:21:06:958,-0.5794,3.9383,8.3291,63.9262,0.2449,-0.1582,0.0983,64.625
19:21:06:971,-0.6224,4.0029,8.5373,64.073,0.0623,-0.1142,0.0635,64.625
19:21:06:991,-0.8402,3.9933,9.0903,64.0985,-0.0983,-0.0018,0.0226,64.625
19:21:07:010,-1.1515,3.9526,8.9085,64.3881,-0.1478,0.135,-0.0049,64.625
19:21:07:029,-1.319,3.8952,8.8989,64.449,-0.1326,0.1368,-0.0067,64.625
19:21:07:049,-1.2209,3.7349,9.119,64.4632,-0.0788,0.0171,0.014,64.625
19:21:07:074,-1.2927,3.7038,9.3634,64.7801,-0.0318,-0.0605,0.0269,54.8281
19:21:07:091,-1.4294,3.7134,9.3897,64.7872,-0.0312,-0.0269,0.0507,54.8281
19:21:07:109,-1.4749,3.8521,9.306,64.7283,-0.0476,0.0586,0.0953,56.2031
19:21:07:128,-1.2951,4.1369,9.0162,64.6964,-0.0403,0.1216,0.1478,55.9062
19:21:07:147,-1.2736,4.4674,8.7649,64.849,-0.0214,0.1289,0.1643,56.6875
19:21:07:172,-1.3478,4.7067,8.578,64.6162,-0.0024,0.0819,0.1497,58.0312
19:21:07:189,-1.5132,4.8075,8.7123,64.7268,0.0147,-0.0043,0.1222,54.7031
19:21:07:207,-1.5945,4.7812,9.0329,64.6304,0.0373,-0.0696,0.1106,59.2656
19:21:07:229,-1.4844,4.6373,9.0233,64.4736,0.0599,-0.0757,0.1234,59.2656
19:21:07:248,-1.3214,4.6205,8.9827,64.3937,0.0391,-0.0403,0.1466,53.375
19:21:07:267,-1.3143,4.8003,8.9587,64.6221,-0.0147,0.0391,0.1637,53.375
19:21:07:289,-1.3023,4.8266,8.9061,64.5831,-0.0153,0.0764,0.1607,52.1719
19:21:07:308,-1.3741,4.6971,8.6234,64.5852,0.0825,0.0305,0.1454,52.1719
19:21:07:328,-1.2568,4.5631,8.1975,64.6882,0.1936,-0.0434,0.1454,52.2812
19:21:07:348,-0.9912,4.5631,7.8168,64.7844,0.2333,-0.0794,0.1594,52.2812
19:21:07:368,-0.8955,4.6995,7.5126,64.8587,0.1839,-0.0568,0.1613,52.2812
19:21:07:389,-0.7851,4.7545,7.4192,64.8185,0.0947,-0.0354,0.1527,52.2188
19:21:07:408,-0.6607,4.7716,7.4121,64.977,0.014,-0.0397,0.1399,52.2188
19:21:07:428,-0.5435,4.7716,7.3881,65.0799,-0.0611,-0.0531,0.1167,51.9062
19:21:07:447,-0.4956,4.8936,7.5389,64.9654,-0.171,-0.0354,0.0788,51.5156
19:21:07:471,-0.7086,4.908,8.1377,64.9051,-0.2871,-0.0098,0.0312,51.5156
19:21:07:489,-0.9577,4.7402,8.8032,65.0025,-0.3274,-0.0031,0.011,51.2812
19:21:07:508,-0.9649,4.587,9.1095,64.9303,-0.2749,-0.0018,0.0434,51.2812
19:21:07:529,-0.833,4.7593,9.2363,64.9688,-0.1973,-0.0165,0.0831,51.0312
19:21:07:547,-0.9147,4.8458,9.4376,65.0183,-0.1472,-0.0428,0.0751,51.0156
19:21:07:567,-0.9362,4.7186,9.4161,64.9999,-0.1063,-0.0678,0.0525,50.6562
19:21:07:590,-0.984,4.4267,10.3328,64.7921,-0.0812,-0.2633,0.0837,50.625
19:21:07:608,-0.8907,4.3119,11.257,64.8459,-0.0483,-0.336,0.1417,50.3438
19:21:07:628,-0.3736,4.0603,11.2092,64.9439,0.058,-0.3311,0.2169,50.3125
19:21:07:647,0.3903,4.2401,10.0672,64.914,0.1814,-0.3189,0.2798,50.0312
19:21:07:668,0.7301,4.3908,9.2821,64.9711,0.1765,-0.4264,0.2352,50
19:21:07:690,0.9123,4.209,9.8566,64.994,-0.0214,-0.5705,0.1258,49.7344
19:21:07:707,0.7493,3.8115,11.3073,65.0024,-0.3256,-0.5797,0.0269,49.5156
19:21:07:728,0.9673,3.3159,13.1507,64.9961,-0.5601,-0.4612,0.0043,49.5156
19:21:07:747,1.427,2.9949,14.3432,65.1655,-0.5577,-0.2504,0.0476,49.4531
19:21:07:773,2.0303,3.2106,13.8141,65.2086,-0.2834,0.0342,0.0935,49.4531
19:21:07:790,2.0949,3.6389,11.4556,64.9963,0.1619,0.2022,0.0538,49.2969
19:21:07:807,1.9032,3.6846,9.0497,64.8767,0.5382,0.1161,-0.0855,49.2969
19:21:07:829,1.6759,3.4786,7.1584,64.9015,0.6719,-0.0641,-0.2449,49.1875
19:21:07:848,1.386,3.4642,6.3562,64.8081,0.5009,-0.1686,-0.3696,49.1719
19:21:07:867,1.2114,3.4522,7.0866,64.9277,0.1087,-0.1393,-0.4563,49.1719
19:21:07:889,1.1444,3.2297,8.2095,64.8727,-0.212,-0.0238,-0.5375,49.125
19:21:07:907,0.6775,2.9806,8.7769,64.7698,-0.2828,0.0574,-0.6249,48.8906
19:21:07:928,0.122,2.8226,8.8199,64.781,-0.1668,0.0134,-0.6677,48.8906
19:21:07:948,-0.2656,2.7915,8.4057,64.9488,0.0183,-0.102,-0.6481,48.5
19:21:07:967,-0.565,2.8466,7.7258,65.025,0.1399,-0.1484,-0.5809,48.5
19:21:07:989,-0.6583,3.0404,7.0962,64.9889,0.1246,-0.0831,-0.4813,48.6094
19:21:08:008,-0.3927,3.402,6.9141,64.9673,0.0116,-0.0092,-0.3751,48.6094
19:21:08:028,-0.2994,3.6413,7.2254,64.8248,-0.1045,-0.0024,-0.3115,48.7188
19:21:08:047,-0.1675,3.7253,7.8598,64.8876,-0.1631,-0.0593,-0.2706,48.7344
19:21:08:067,-0.1938,3.7732,8.2956,64.8247,-0.1277,-0.1326,-0.2297,48.5469
19:21:08:091,0.352,3.979,8.7721,64.8403,-0.0379,-0.2089,-0.168,48.5156
19:21:08:108,0.7636,4.3669,8.8846,64.7406,0.033,-0.2223,-0.0867,48.8125
19:21:08:129,0.4286,4.5703,9.4543,64.7906,-0.0202,-0.0849,-0.0812,48.8438
19:21:08:147,-0.1962,4.4387,9.8495,64.6711,-0.0086,-0.025,-0.0886,49.7344
19:21:08:167,-0.3233,4.6947,10.0433,64.8285,0.0336,0.044,-0.0128,49.8125
19:21:08:189,0.4095,4.7641,10.4288,64.6806,0.0562,0.0745,0.0574,50.9688
19:21:08:207,0.8931,4.8649,10.9122,64.6838,0.044,0.1234,0.0318,52.4219
19:21:08:228,0.9458,4.9295,11.2618,64.634,0.0153,0.2071,-0.0593,52.4219
19:21:08:248,0.3927,4.9032,11.3767,64.4793,0.0153,0.295,-0.1784,53.6719
19:21:08:267,-0.6272,4.8386,11.1852,64.6814,0.0672,0.361,-0.2633,53.6719
19:21:08:289,-1.1444,4.745,10.0792,64.6814,0.1503,0.3671,-0.2712,54.5469
19:21:08:307,-1.2544,4.4411,9.361,64.7586,0.099,0.2547,-0.2614,54.5469
19:21:08:328,-1.2903,3.4451,10.3352,64.6721,-0.0996,0.0104,-0.2718,54.5625
19:21:08:348,-2.1021,2.5451,12.8396,64.6147,-0.2376,-0.2327,-0.2627,55.1406
19:21:08:372,-2.8825,2.0782,14.252,64.4326,-0.0715,-0.1765,-0.1271,55.1562
19:21:08:390,-2.7461,2.1811,11.9297,64.4514,0.4019,0.2059,0.1319,55.5312
19:21:08:408,-2.2911,2.7891,8.0441,64.4582,0.799,0.5076,0.3586,55.7344
19:21:08:427,-1.6615,3.2608,5.674,64.1712,0.8546,0.4123,0.4649,55.7344
19:21:08:447,-1.2425,3.5216,5.4371,63.8224,0.6878,0.0232,0.4587,55.8438
19:21:08:467,-0.9817,3.524,6.6078,63.6019,0.4893,-0.3702,0.3995,55.8438
19:21:08:490,-0.5818,3.1723,7.2781,63.6926,0.3512,-0.4948,0.3598,55.7031
19:21:08:508,-0.2512,2.9327,7.3618,63.7667,0.1869,-0.3971,0.339,55.7031
19:21:08:528,-0.1795,2.7652,8.1087,64.011,-0.0647,-0.2071,0.3231,55.8281
19:21:08:548,-0.2489,2.8609,8.5804,63.8348,-0.2602,0.0928,0.3152,55.8438
19:21:08:567,-0.3879,3.2465,7.9555,63.8504,-0.3109,0.4142,0.2914,56.2188
19:21:08:589,-0.7708,3.888,6.9835,63.7176,-0.3066,0.5797,0.2364,56.2656
19:21:08:666,-0.9888,4.0292,7.0388,63.8647,-0.2199,0.3696,0.1582,56.7344
19:21:08:667,-1.0343,4.1895,6.9643,64.1941,-0.1619,0.2388,0.1576,56.7812
19:21:08:667,-1.0822,4.4363,7.0531,64.0932,-0.1619,0.1387,0.1723,57.25
19:21:08:667,-1.0534,4.5583,7.7809,64.1396,-0.2266,0.0641,0.1936,57.2969
19:21:08:694,-0.8282,4.611,8.7625,63.9662,-0.2682,0.025,0.2083,56.6875
19:21:08:708,-0.7756,4.4818,9.1837,64.126,-0.2651,0.0727,0.1936,55.625
19:21:08:727,-0.874,4.4435,9.8949,64.0598,-0.2926,0.1521,0.1826,55.625
19:21:08:748,-0.8402,4.5918,10.5102,64.0873,-0.317,0.2614,0.1863,55
19:21:08:767,-0.5148,4.4052,10.9217,63.8975,-0.3415,0.3671,0.157,55
19:21:08:789,-0.2728,3.9287,11.6091,63.4966,-0.4221,0.369,0.0874,54.9375
19:21:08:808,-0.1244,3.5958,13.0932,63.3928,-0.5546,0.3384,0.0312,54.375
19:21:08:829,-0.1866,3.4331,14.5442,63.3845,-0.5931,0.4697,0.0037,54.375
19:21:08:847,0.2082,3.536,13.2969,63.1423,-0.3604,0.7165,0.0067,53.5781
19:21:08:866,0.754,3.4714,10.1557,63.1102,-0.0983,0.7446,-0.055,53.5625
19:21:08:889,0.8716,3.0093,9.6314,63.2289,-0.1875,0.3971,-0.2144,52.8125
19:21:08:908,0.5985,2.26,11.0656,63.2144,-0.4777,0.1527,-0.3677,52.2969
19:21:08:928,0.0718,1.4103,12.3296,63.2654,-0.7,0.2718,-0.419,52.2969
19:21:08:947,-0.2154,1.2616,12.3775,63.0583,-0.73,0.5852,-0.306,51.8281
19:21:08:967,0.4238,1.4868,11.3791,62.8943,-0.5339,0.6921,-0.113,51.8281
19:21:08:989,1.3525,1.6854,10.0002,62.459,-0.1668,0.3647,-0.0012,51.3594
19:21:09:008,1.9681,2.1739,9.0281,62.5584,0.1857,-0.1826,-0.0238,51.3594
19:21:09:028,2.0088,2.4754,8.6426,62.4562,0.3891,-0.6017,-0.1735,50.8906
19:21:09:047,1.5012,2.4993,8.4009,62.3142,0.4685,-0.7544,-0.3775,50.8438
19:21:09:067,0.6846,2.217,7.8861,62.0788,0.4704,-0.6958,-0.5522,50.4219
19:21:09:094,0.1723,2.0566,6.926,61.825,0.4221,-0.5852,-0.6322,50.375
19:21:09:108,-0.2297,2.1188,6.6197,62.1899,0.2981,-0.5534,-0.6475,50.1406
19:21:09:130,-0.6703,2.3964,7.5293,62.124,0.1075,-0.5418,-0.609,50.125
19:21:09:148,-0.7062,2.5379,7.5966,62.1602,0.1038,-0.5149,-0.5821,49.8594
19:21:09:167,-0.644,2.8274,7.6971,62.0855,0.0812,-0.4765,-0.543,49.8438
19:21:09:188,-0.4717,3.1914,7.8885,61.9914,0.0318,-0.427,-0.5174,50.2812
19:21:09:208,-0.6344,3.457,8.0871,61.8431,-0.0464,-0.3573,-0.5217,50.8125
19:21:09:228,-0.7397,3.4977,8.9204,62.0975,-0.124,-0.3781,-0.5101,50.8125
19:21:09:247,-0.8907,3.4834,10.0672,62.2536,-0.1179,-0.427,-0.4655,50.875
19:21:09:268,-1.1252,3.5862,10.9675,61.8003,-0.0421,-0.3732,-0.3806,50.7656
19:21:09:291,-1.3023,3.9431,11.0943,61.7797,0.0507,-0.2065,-0.2645,50.75
19:21:09:307,-1.5108,4.2832,11.2522,61.8882,0.1258,-0.0715,-0.1503,51.1562
19:21:09:328,-1.2664,4.5129,10.9914,61.8791,0.2138,0.0122,-0.0147,51.1562
19:21:09:348,-0.4645,4.7641,10.6609,61.7569,0.2926,0.0073,0.1167,52.5
19:21:09:372,0.6033,5.0061,11.1852,61.7778,0.325,-0.0904,0.1716,52.5156
19:21:09:390,1.0798,5.1832,11.6856,61.6115,0.3573,-0.0825,0.0971,54.1875
19:21:09:408,0.1962,4.9271,11.5875,61.4969,0.4209,0.0935,-0.0892,55.7969
19:21:09:429,-1.6854,4.5799,10.0576,61.6962,0.496,0.3439,-0.2443,55.7969
19:21:09:448,-2.9088,4.113,8.487,61.719,0.4917,0.4032,-0.2437,57.25
19:21:09:467,-2.7604,3.7564,7.788,61.685,0.3402,0.1729,-0.1289,57.25
19:21:09:489,-1.8936,2.5594,9.6625,61.5308,0.0538,-0.2755,-0.0538,58.5625
19:21:09:509,-2.0088,1.9944,13.0621,61.4819,-0.1649,-0.5382,-0.0049,58.5625
19:21:09:529,-1.7501,2.1021,14.1634,61.3708,-0.0886,-0.2046,0.1356,59.7812
19:21:09:548,-1.3765,2.3533,10.9217,61.143,0.2651,0.3757,0.2608,59.7812
19:21:09:567,-1.398,2.2241,7.3738,61.1495,0.482,0.4447,0.3213,60.5469
19:21:09:589,-0.754,3.0308,7.046,61.1229,0.3109,0.0727,0.3714,60.625
19:21:09:609,-0.5291,3.0619,8.1712,61.0574,0.055,-0.2077,0.281,60.8125
19:21:09:630,-0.1364,2.3749,9.1238,60.9596,0.0647,-0.1869,0.1234,60.8281
19:21:09:650,-0.5028,2.1978,7.4695,60.8983,0.0672,0.055,0.0727,60.5781
19:21:09:668,-0.7181,2.1165,7.3977,60.818,-0.1142,0.1191,0.0855,60.5625
19:21:09:691,-0.7301,2.3988,8.0321,60.5961,-0.2266,0.047,0.1558,60.5625
19:21:09:707,-0.486,2.7197,8.566,60.8889,-0.149,-0.0623,0.2236,60.9062
19:21:09:728,-0.4167,2.8394,8.7266,61.1101,0.0531,-0.1087,0.2572,60.9062
19:21:09:747,-0.1077,3.1268,8.1784,60.8076,0.2504,-0.0147,0.292,60.9531
19:21:09:769,-0.1627,3.3948,7.1417,60.6207,0.2828,0.2217,0.292,61.1719
19:21:09:792,-0.3257,3.6293,6.5575,60.7502,0.215,0.314,0.2517,61.1875
19:21:09:808,-0.6033,3.6703,6.7992,60.6121,0.0764,0.2737,0.204,61.2188
19:21:09:829,-0.699,3.8019,7.5676,60.5798,-0.0202,0.1448,0.1845,61.2188
19:21:09:848,-0.51,3.955,8.2549,60.621,-0.022,-0.0147,0.1631,60.4062
19:21:09:874,-0.5339,3.9598,8.9587,60.2399,-0.0183,-0.124,0.113,60.4062
19:21:09:890,-0.5602,3.8139,9.5644,59.8775,-0.0079,-0.2175,0.0721,59.7344
19:21:09:907,-0.1747,3.6269,9.7726,59.8394,0.0055,-0.3091,0.0525,59.5312
19:21:09:928,0.4167,3.4451,10.7231,59.8602,-0.1087,-0.3347,0.0257,59.5312
19:21:09:948,0.5291,3.4379,12.2722,59.5289,-0.2999,-0.2059,-0.0147,59.3125
19:21:09:968,-0.0694,3.4475,12.964,59.7114,-0.3641,0.0281,-0.033,59.3125
19:21:09:990,-0.3138,3.5695,12.1143,59.8555,-0.2205,0.1527,0.0531,58.8906
19:21:10:009,0.4334,3.9096,10.8428,59.9739,-0.0562,0.0647,0.223,58.8906
19:21:10:029,1.7955,4.168,10.1127,60.097,-0.0202,-0.1582,0.3323,58.3281
19:21:10:047,2.904,3.7804,10.3929,60.2333,-0.1203,-0.4117,0.2816,58.3281
19:21:10:068,3.05,3.0933,12.186,60.3101,-0.2327,-0.6237,0.1503,57.6719
19:21:10:090,3.1172,2.9662,12.708,60.3089,-0.1087,-0.5724,0.0843,57.5938
19:21:10:108,3.3996,3.0691,10.6011,60.4585,0.2248,-0.3989,0.058,57.1094
19:21:10:132,3.7851,3.268,7.4384,60.32,0.3561,-0.5039,-0.1136,57.0625
19:21:10:149,3.5145,3.1699,7.2374,59.9904,0.0721,-0.4508,-0.284,56.8125
19:21:10:171,2.4826,2.8609,7.5676,59.8358,-0.2761,-0.2321,-0.4728,56.7812
19:21:10:190,1.2138,2.473,8.2837,59.7109,-0.5308,0.0159,-0.576,56.7812
19:21:10:208,0.5459,2.2959,8.8822,59.4764,-0.5339,0.1069,-0.5333,56.7812
19:21:10:227,0.6846,2.5184,8.5923,59.274,-0.2828,0.0373,-0.416,56.8906
19:21:10:247,0.7971,3.0308,7.5269,59.0994,0.0043,-0.0379,-0.3341,56.9062
19:21:10:269,0.8596,3.5384,6.5025,59.0095,0.1326,-0.0764,-0.3256,56.8438
19:21:10:291,0.5387,3.7588,5.8606,58.7037,0.0867,-0.0733,-0.3873,56.8281
19:21:10:308,0.0718,3.7229,6.2007,58.7584,-0.1002,-0.0837,-0.4563,56.2969
19:21:10:329,-0.3712,3.335,7.4456,58.6601,-0.3115,-0.0843,-0.463,56.25
19:21:10:349,-0.3042,3.2489,8.645,58.622,-0.4013,-0.0556,-0.3757,56.0156
19:21:10:367,0.146,3.4953,9.0832,58.4292,-0.3506,-0.0208,-0.2633,56.0156
19:21:10:390,0.3138,3.6655,9.2773,58.9276,-0.306,0.0244,-0.2034,56.0938
19:21:10:408,0.3377,3.8019,10.1414,58.8932,-0.3286,0.0513,-0.1662,56.4219
19:21:10:428,0.0742,3.9407,11.1446,58.8714,-0.3018,0.1069,-0.1271,56.4219
19:21:10:448,-0.1412,4.3884,11.5899,59.0675,-0.1851,0.2614,-0.0342,57.4219
19:21:10:467,0.1005,4.9415,10.8236,59.1104,-0.0373,0.4899,0.0892,57.4219
19:21:10:489,0.5794,5.286,10.2108,59.3719,-0.0367,0.664,0.1619,58.6406
19:21:10:508,1.0869,5.2693,10.8021,59.4912,-0.1277,0.6176,0.1435,58.6406
19:21:10:529,0.7469,4.9223,11.5421,59.8039,-0.1222,0.4215,0.0257,59.4844
19:21:10:548,-0.2058,4.3597,12.32,59.448,-0.0049,0.1857,-0.0916,59.4844
19:21:10:566,-1.0702,4.0077,11.7598,59.8528,0.1735,0.099,-0.1185,60.2188
19:21:10:590,-1.398,3.5384,10.4001,59.9065,0.2413,0.0696,-0.0849,60.2969
19:21:10:608,-1.5371,2.6815,10.3543,60.0648,0.0415,-0.0727,-0.0415,61.25
19:21:10:628,-1.561,1.3573,12.8827,59.858,-0.2291,-0.3696,0.0238,61.3438
19:21:10:649,-2.3414,1.2377,14.8026,59.6804,0.3219,-0.0379,0.4404,62.0156
19:21:10:668,-1.6232,1.8529,9.5859,59.5064,0.9749,0.518,0.6915,62.0938
19:21:10:734,-1.1013,2.2457,5.2095,59.5342,1.1905,0.5608,0.7623,62.4531
19:21:10:734,-1.185,2.6121,4.2568,59.6259,0.876,0.1723,0.7019,62.4844
19:21:10:734,-1.1587,2.4203,6.3179,59.4311,0.3635,-0.2211,0.6157,62.5938
19:21:10:748,-0.8524,2.3246,8.3818,59.4832,-0.022,-0.2401,0.5693,62.5938
19:21:10:767,-0.4621,2.2648,9.0712,59.2737,-0.1967,-0.0171,0.5302,62.1406
19:21:10:790,-0.1819,2.3701,9.2363,59.5426,-0.223,0.135,0.482,62.0781
19:21:10:807,-0.1507,2.5089,9.4854,59.5026,-0.1533,0.149,0.4319,61.7188
19:21:10:830,-0.3281,2.7485,9.0975,59.7529,0.0208,0.1478,0.3977,61.6875
19:21:10:849,-0.4597,2.9686,8.2621,59.6344,0.1985,0.168,0.3891,61.8438
19:21:10:867,-0.5435,3.1842,7.5365,59.3754,0.2785,0.2034,0.4038,61.8438
19:21:10:889,-0.4693,3.4762,7.2374,59.3198,0.215,0.3054,0.4416,62
19:21:10:907,-0.3808,3.8474,7.4336,59.0804,0.058,0.4514,0.4667,61.9531
19:21:10:929,-0.4549,3.8952,8.1473,59.1554,-0.0733,0.5308,0.4502,61.9531
19:21:10:948,-0.6535,3.754,8.8199,58.9847,-0.0837,0.5174,0.4374,60.625
19:21:10:968,-0.7851,3.7301,9.8133,58.9588,-0.044,0.5204,0.4581,60.625
19:21:10:989,-1.0175,3.7181,10.424,58.6697,-0.0171,0.7379,0.5027,58.875
19:21:11:008,-1.4533,3.6006,10.6992,58.6263,-0.0079,1.1026,0.5559,58.875
19:21:11:030,-0.6057,4.0412,9.641,58.7329,-0.0293,1.3971,0.6457,57.6719
19:21:11:049,-0.4573,4.1512,8.942,58.6161,-0.0513,1.2309,0.5889,57.6719
19:21:11:067,-0.2922,3.7421,9.6075,58.6073,-0.1845,0.8766,0.4716,56.5312
19:21:11:089,-0.2321,3.5982,11.2977,58.3688,-0.3848,0.6854,0.3751,56.5312
19:21:11:107,-0.917,3.6559,12.4373,58.4405,-0.4111,0.6286,0.2767,55.6406
19:21:11:129,-0.7899,4.3334,10.0385,58.2257,-0.2162,0.54,0.234,55.5469
19:21:11:149,-1.0463,2.4012,13.0454,58.4422,-0.4111,-0.2749,0.0904,54.6719
19:21:11:169,-1.1372,2.6838,14.4987,58.3087,-0.3176,-0.2071,0.1087,53.5
19:21:11:189,-1.0415,2.2911,11.6641,58.1155,0.2413,-0.1533,0.1216,53.5
19:21:11:209,-0.4382,2.3079,8.135,58.1242,0.7104,-0.4319,0.1808,53.3906
19:21:11:242,0.1125,2.7269,6.6413,57.9635,0.7984,-0.9083,0.193,52.2656
19:21:11:247,0.3879,2.9686,7.2565,57.9873,0.4905,-1.0604,0.1014,52.1562
19:21:11:281,0.0885,2.6838,8.5014,57.7376,0.066,-0.821,-0.0446,50.9062
19:21:11:289,-0.5746,2.1188,9.2578,57.9154,-0.2205,-0.4331,-0.1234,50.7812
19:21:11:318,-0.6942,1.8793,9.2315,57.6625,-0.2902,-0.1802,-0.0458,49.0156
19:21:11:328,-0.5148,2.2361,9.1286,57.5359,-0.2217,-0.1533,0.0874,48.8438
19:21:11:348,-0.2106,2.5642,8.9252,57.6113,-0.1301,-0.1802,0.1784,47.2969
19:21:11:368,-0.3066,2.8944,8.499,57.3392,-0.0605,-0.1063,0.1918,47.1406
19:21:11:392,-0.6488,3.0739,8.1254,57.4431,-0.044,0.0617,0.1857,46.0469
19:21:11:409,-0.8572,3.0858,7.0268,57.6204,-0.0214,0.2193,0.2046,45.5
19:21:11:428,-0.874,3.2871,5.9901,57.7962,-0.0421,0.2169,0.248,45.5
19:21:11:447,-0.7636,3.5719,6.2462,57.7578,-0.1826,0.1026,0.2981,45.3281
19:21:11:467,-0.6775,3.6918,6.804,57.7411,-0.3366,0.0385,0.3384,45.3281
19:21:11:492,-0.6105,3.6823,7.1321,57.7627,-0.4239,-0.0202,0.3628,45.1875
19:21:11:508,-0.6392,3.6365,7.5269,57.8038,-0.4587,-0.1991,0.3861,45.1875
19:21:11:527,-0.1914,3.6631,9.5764,57.808,-0.4374,-0.5394,0.4361,45.4062
19:21:11:547,0.2632,3.5025,11.2857,57.8294,-0.2535,-0.7153,0.4887,45.4062
19:21:11:568,0.2297,3.7397,11.8484,57.4856,-0.0006,-0.5211,0.5253,45.8906
19:21:11:592,0.0814,4.1154,11.511,57.3643,0.2175,-0.2431,0.5931,45.8906
19:21:11:609,0.067,4.276,10.6896,57.3298,0.3635,-0.0544,0.6389,45.9219
19:21:11:628,-0.1579,4.4554,10.3543,57.3404,0.3958,0.0061,0.675,45.9219
19:21:11:647,-0.3305,4.666,10.893,57.2485,0.3635,0.0128,0.7184,45.625
19:21:11:667,-0.0837,4.9845,11.1326,57.05,0.394,0.0996,0.7581,45.5938
19:21:11:693,-0.5459,4.8458,10.6179,57.1235,0.6567,0.3806,0.7013,45.1406
19:21:11:709,-1.0199,4.6588,9.3036,56.8643,0.8069,0.5088,0.7025,45.0938
19:21:11:727,-1.6256,4.8051,7.7617,56.9673,0.7813,0.5577,0.7336,44.4688
19:21:11:748,-1.4821,4.7378,7.436,56.9364,0.5834,0.2847,0.7666,44.4219
19:21:11:767,-0.7397,3.2441,9.0233,56.6917,0.3409,-0.3183,0.7135,43.7031
19:21:11:788,-1.6089,2.2337,13.2826,56.4514,0.1741,-0.7507,0.617,43.625
19:21:11:807,-1.4701,1.7118,13.7181,56.5078,0.27,-0.2107,0.7251,42.9531
19:21:11:828,-1.6759,1.8601,10.5365,56.3642,0.4862,0.6713,0.868,42.8906
19:21:11:847,-2.0686,2.083,7.3475,56.1657,0.4826,1.116,0.956,42.125
19:21:11:867,-1.7764,2.5881,5.8343,56.1191,0.182,0.9871,1.083,42.0469
19:21:11:891,-1.427,2.825,7.1752,55.9579,-0.2523,0.4985,1.1545,40.75
19:21:11:907,-0.5626,2.3844,10.0337,55.4284,-0.5901,0.1209,1.1423,39.1875
19:21:11:928,-0.2728,2.272,11.8675,55.4846,-0.6762,0.1894,1.1069,39.1875
19:21:11:947,-0.5483,2.3868,11.9536,55.4527,-0.532,0.5296,1.047,37.4375
19:21:11:968,-0.5435,2.4299,10.826,55.1259,-0.2621,0.8027,1.0336,37.4375
19:21:11:992,-0.5865,2.3509,9.2677,55.17,0.0305,0.8827,0.9993,35.625
19:21:12:007,-1.0175,2.0423,7.8407,55.1046,0.2059,0.8558,0.9297,35.625
19:21:12:029,-1.8793,1.908,7.2206,55.1094,0.193,0.8198,0.9053,33.6875
19:21:12:047,-2.1452,1.9128,7.3953,54.9421,0.0702,0.8191,0.9896,33.6875
19:21:12:067,-1.8793,1.896,7.3738,55.0052,-0.0476,0.8943,1.1264,32.4844
19:21:12:088,-1.6256,2.0782,7.733,54.8556,-0.1857,0.9621,1.2559,32.4844
19:21:12:108,-0.9721,2.2672,8.6689,54.642,-0.314,0.9511,1.3946,30.75
19:21:12:128,-0.2827,2.3892,9.3802,54.5637,-0.3329,0.8821,1.4948,30.5625
19:21:12:147,0.1364,2.5041,9.8447,54.8314,-0.2663,0.7721,1.5522,27.9688
19:21:12:169,0.5889,2.6599,9.9284,54.8051,-0.1778,0.6817,1.6042,27.7031
19:21:12:190,1.5132,3.1507,10.1533,54.5764,-0.2315,0.5632,1.6237,25.2812
19:21:12:208,1.8362,3.3852,10.5389,54.4727,-0.3219,0.4471,1.5553,25.0312
19:21:12:228,1.8721,3.5121,11.0776,54.828,-0.4416,0.3378,1.4496,22.7656
19:21:12:247,2.1763,3.1747,11.19,54.7725,-0.565,0.2266,1.3433,22.5469
19:21:12:267,2.272,2.4227,12.6649,54.6565,-0.7129,-0.0538,1.2052,20.125
19:21:12:291,1.7979,1.4581,15.0757,54.8102,-0.7953,-0.2639,1.1087,19.8906
19:21:12:307,1.963,1.3717,16.7468,54.5753,-0.6108,-0.1454,1.1673,17.6406
19:21:12:328,2.5208,1.7405,14.9369,54.6602,-0.113,0.2639,1.251,17.4062
19:21:12:348,2.4467,2.071,11.5325,54.7501,0.3231,0.6035,1.2156,14.8906
19:21:12:368,2.3007,2.4921,9.361,54.9392,0.4368,0.6371,1.1313,14.6406
19:21:12:390,2.5642,2.8107,8.5732,54.8242,0.3659,0.4642,1.0042,11.2656
19:21:12:408,2.5834,2.837,8.2358,54.6089,0.2798,0.2993,0.7776,7.5312
19:21:12:428,1.9223,2.5475,7.666,55.0393,0.2016,0.295,0.5137,7.5312
19:21:12:447,1.0774,2.2385,7.0244,54.73,0.0941,0.4013,0.3445,3.6719
19:21:12:468,0.6823,2.1739,6.4714,54.4224,-0.0367,0.5211,0.306,3.6719
19:21:12:489,0.7062,2.3198,6.2151,54.3203,-0.1735,0.5846,0.3317,359.9531
19:21:12:508,0.8019,2.569,6.5647,54.1991,-0.2871,0.5632,0.3433,359.9531
19:21:12:528,0.9888,2.8298,7.1919,53.9137,-0.3115,0.5046,0.3128,356.7812
19:21:12:547,0.7397,2.9614,7.247,53.7901,-0.2535,0.485,0.2315,356.7812
19:21:12:568,0.1579,2.7532,7.1536,53.9642,-0.2126,0.4569,0.1607,354.3438
19:21:12:589,-0.1627,2.473,7.5102,53.6554,-0.2248,0.3677,0.1875,354.3438
19:21:12:608,0.0718,2.5977,8.4727,53.889,-0.2352,0.2089,0.3121,351.7031
19:21:12:628,0.7421,2.9614,9.2291,54.2619,-0.1839,0.0727,0.4374,351.7031
19:21:12:647,1.051,3.3613,9.7798,54.2849,-0.1344,0.022,0.4655,349.1094
19:21:12:668,0.7038,3.5169,10.3472,54.3192,-0.1216,0.0507,0.4288,348.8438
19:21:12:693,0.0072,3.5169,10.8835,54.6035,0.0397,0.0983,0.482,346.8906
19:21:12:708,-0.2704,3.5288,11.0584,54.6362,0.0941,0.2315,0.5699,346.7031
19:21:12:729,-0.1842,3.5671,10.8691,54.5062,0.0018,0.4471,0.5827,345.6875
19:21:12:789,-2.1404,3.548,11.5182,54.3497,-0.0757,0.4264,0.5314,345.5938
19:21:12:789,-3.3182,2.7963,12.0951,54.4581,0.0861,0.2749,0.5418,344.7656
19:21:12:790,-3.7708,2.5403,11.1685,54.3208,0.3647,0.1326,0.7269,344.6875
19:21:12:812,-2.8418,3.0981,10.0816,54.4539,0.4441,0.0122,1.0366,343.8594
19:21:12:828,-1.0104,3.845,9.9739,54.6732,0.2101,-0.0696,1.2675,343.7812
19:21:12:848,0.0215,3.5145,11.1135,54.5358,-0.2162,-0.0599,1.2474,343.2344
19:21:12:868,0.7397,3.2225,14.1873,54.4503,-0.3085,-0.383,1.1582,343.1875
19:21:12:888,0.1484,2.9877,14.094,54.6235,0.1527,-0.482,1.0012,342.6094
19:21:12:907,-0.6894,2.8466,10.716,54.7735,0.6218,-0.0593,0.9016,341.5469
19:21:12:928,-0.8067,3.1244,7.0579,54.5189,0.6774,0.4398,0.9138,341.5469
19:21:12:947,-0.4143,3.6703,4.8075,54.3162,0.3665,0.5693,0.9364,340.5938
19:21:12:967,-0.4071,3.6775,5.6357,54.1042,-0.0458,0.1973,0.8417,340.5938
19:21:12:989,0.1819,3.4594,8.0058,54.0346,-0.2688,-0.237,0.7214,339.375
19:21:13:007,0.4406,3.0188,9.4065,54.0681,-0.2645,-0.3244,0.5699,339.375
19:21:13:028,-0.0383,2.1212,9.3251,53.857,-0.1674,-0.0953,0.369,338
19:21:13:048,-1.2329,1.7094,8.8941,53.5329,-0.1222,0.1069,0.2114,338
19:21:13:068,-1.118,1.6496,8.6378,53.4994,-0.0318,0.0874,0.361,336.5312
19:21:13:089,-0.5363,2.0255,8.3291,53.5002,0.1252,0.0214,0.5815,336.5312
19:21:13:108,-0.2106,2.7102,7.611,53.6985,0.2358,0.1136,0.6371,334
19:21:13:130,0.2632,3.1675,7.3403,53.8427,0.2059,0.2645,0.6487,334
19:21:13:148,0.5937,3.323,7.0388,53.4763,0.0941,0.4203,0.5852,331.6719
19:21:13:167,0.3257,3.5216,6.9165,53.4384,-0.0415,0.4728,0.4771,331.4375
19:21:13:189,0.0837,3.591,7.6277,53.6697,-0.1961,0.3946,0.4154,329.5938
19:21:13:209,0.3664,3.4618,8.9683,54.1197,-0.2914,0.2602,0.4239,329.4062
19:21:13:230,0.4836,3.5791,10.1438,54.141,-0.2156,0.2193,0.4068,327.3281
19:21:13:260,0.6583,3.7373,10.3591,54.2333,-0.2309,0.2517,0.3714,327.125
19:21:13:269,0.6105,3.5504,11.1183,54.1184,-0.3464,0.2572,0.2828,325.5781
19:21:13:291,0.2704,3.1412,12.1956,53.8772,-0.4123,0.1839,0.2199,325.4219
19:21:13:307,0,2.8346,12.5665,54.165,-0.3085,0.1405,0.2333,324.5625
19:21:13:327,-0.0694,2.849,11.8723,53.9709,-0.1539,0.1631,0.2914,324.4844
19:21:13:348,0.5578,2.8848,11.0201,53.978,-0.1081,0.1197,0.3366,323.8906
19:21:13:367,0.9625,2.3198,11.19,53.7841,-0.2193,-0.1368,0.2278,323.8281
19:21:13:388,0.6607,1.2544,13.0884,53.7312,-0.4038,-0.5485,0.0336,322.5625
19:21:13:407,0.2177,0.5339,15.0829,53.6931,-0.4563,-0.7837,0,320.9375
19:21:13:429,0.3185,0.2608,15.1738,53.637,-0.1649,-0.6652,0.1643,320.9375
19:21:13:447,0.7828,0.4813,12.3775,53.7948,0.3604,-0.2511,0.3506,319.8125
19:21:13:467,1.1037,1.0702,9.0353,53.6112,0.6817,0.0513,0.4374,319.8125
19:21:13:490,1.506,1.6184,7.0484,53.5988,0.6408,0.0354,0.4251,318.8125
19:21:13:508,1.9848,2.1165,6.6126,53.2032,0.3793,-0.1038,0.3128,318.8125
19:21:13:528,2.0806,2.339,7.1082,53.0117,0.0623,-0.1613,0.1063,317.9062
19:21:13:548,1.6089,2.1595,7.4719,52.7219,-0.1796,-0.0397,-0.1332,317.9062
19:21:13:568,1.142,2.0614,7.3307,52.5063,-0.3121,0.1435,-0.2957,317.3125
19:21:13:605,1.0989,2.1619,7.4432,52.274,-0.3555,0.1869,-0.3653,317.3125
19:21:13:607,1.0702,2.3055,7.5966,51.9884,-0.3225,0.1607,-0.4074,316.7656
19:21:13:628,0.8644,2.5762,7.5006,51.8325,-0.2529,0.1607,-0.4386,316.7031
19:21:13:648,0.6918,2.9806,7.5823,51.7777,-0.1875,0.1252,-0.4276,316.1562
19:21:13:668,0.7732,3.2967,7.5437,51.7267,-0.1051,0.0721,-0.3592,316.1094
19:21:13:689,1.075,3.7469,7.5293,51.6035,0.025,-0.0067,-0.2535,316.2656
19:21:13:707,1.8218,4.1991,7.8215,51.8319,0.1747,-0.1283,-0.1875,316.2969
19:21:13:729,2.2241,4.2999,8.8319,51.7744,0.2602,-0.2346,-0.4148,315.8906
19:21:13:749,1.9681,3.8019,9.7319,51.602,0.1148,0.0959,-0.5314,315.8438
19:21:13:774,-0.2536,2.7556,10.4336,51.6759,-0.1521,0.4355,-0.4978,314.8906
19:21:13:790,-0.7445,3.05,10.9651,51.2862,-0.3854,0.5974,-0.306,314.7969
19:21:13:808,-0.3712,3.7612,11.9513,51.1261,-0.4288,0.4832,-0.0702,314.375
19:21:13:827,0.2082,4.0579,13.11,51.0692,-0.2052,0.1155,0.0367,314.3438
19:21:13:847,0.5171,4.0196,13.6917,50.9449,0.2346,-0.2144,-0.0086,314.7812
19:21:13:868,0.189,3.6703,13.1626,50.776,0.675,-0.2859,-0.1277,314.8125
19:21:13:890,-0.6272,2.8872,11.8819,50.7245,0.8998,-0.1607,-0.2046,315.5938
19:21:13:907,-1.5179,2.5403,10.5293,50.7742,0.8705,0.0189,-0.1136,316.6094
19:21:13:928,-1.6496,2.9423,8.8391,50.4179,0.7458,0.2089,0.1759,316.6094
19:21:13:948,-1.2114,3.6293,7.2924,50.6477,0.5577,0.1521,0.4374,317.2812
19:21:13:968,-0.2874,3.7732,8.2932,50.1995,0.2761,-0.5107,0.4563,317.2812
19:21:13:990,0.3832,3.2106,12.1167,50.1472,0.1552,-1.2987,0.2676,317.7969
19:21:14:007,-0.0431,2.1308,13.153,49.8504,0.3048,-1.102,0.0764,317.7969
19:21:14:028,-1.1635,1.5634,10.704,49.6879,0.4899,-0.2052,0.1118,318.8281
19:21:14:047,-1.7357,1.951,7.867,49.2438,0.4441,0.4563,0.3109,318.8281
19:21:14:068,-1.439,2.5618,6.9476,48.8851,0.1448,0.5559,0.4606,319.5938
19:21:14:092,-0.711,2.6049,7.4408,48.7796,-0.2156,0.4551,0.4704,319.5938
19:21:14:108,-0.1125,1.8984,8.1497,48.4111,-0.4881,0.3812,0.3757,319.6094
19:21:14:128,0.2946,1.0128,8.5564,48.3638,-0.5986,0.2682,0.2822,319.5938
19:21:14:147,0.2608,0.2946,9.0162,48.2869,-0.5443,-0.0672,0.2724,319.7656
19:21:14:167,0.1077,0.3209,10.151,48.138,-0.4203,-0.4832,0.3317,319.7656
19:21:14:189,0.213,0.7349,11.1517,47.9955,-0.3647,-0.5736,0.4233,320.0312
19:21:14:208,0.256,1.1372,10.7566,47.8352,-0.3586,-0.2242,0.5345,320.0625
19:21:14:228,0.4071,1.8027,9.6912,47.5904,-0.3115,0.2511,0.7098,319.3438
19:21:14:249,1.3502,3.4379,6.9284,47.4148,-0.077,1.0543,0.9572,319.2656
19:21:14:268,0.9721,4.1824,5.6979,47.2194,-0.091,1.1918,0.8362,318.8125
19:21:14:290,0.7708,4.4746,5.7864,47.157,-0.2254,0.9248,0.6585,318.7812
19:21:14:309,1.1946,4.4411,7.1369,46.7859,-0.3396,0.482,0.4917,318.75
19:21:14:328,1.2162,4.0986,8.7003,46.6801,-0.3299,0.1698,0.2627,318.75
19:21:14:348,0.5076,3.6583,10.0289,46.2363,-0.2462,0.0263,0.0373,317.7656
19:21:14:368,0.0096,3.3781,10.7183,46.0365,-0.1863,0.0116,-0.0452,317.6719
19:21:14:390,0.0383,3.0739,11.4867,46.1001,-0.212,-0.0599,-0.0605,316.7188
19:21:14:407,0.2827,2.6719,12.8324,45.8997,-0.2663,-0.2559,-0.0709,316.0469
19:21:14:430,0.8596,2.2839,13.8691,45.8515,-0.2376,-0.3531,-0.0391,316.0469
19:21:14:449,1.4653,2.2361,13.9337,45.7334,-0.1326,-0.215,0.025,315.4688
19:21:14:467,2.1308,2.4921,13.1315,45.6526,-0.0409,0.0483,0.0727,315.4688
19:21:14:492,2.5666,2.5307,12.2961,45.5364,-0.0501,0.2132,-0.0171,314.1406
19:21:14:508,2.624,2.1308,12.0903,45.507,-0.1521,0.1057,-0.2614,314.1406
19:21:14:529,1.9657,1.2305,12.4373,45.3731,-0.2285,-0.1655,-0.5296,311.8594
19:21:14:548,1.1444,0.28,12.3057,45.0722,-0.1906,-0.3183,-0.642,311.8594
19:21:14:568,0.9936,-0.1747,11.1948,44.7481,-0.0489,-0.2468,-0.5253,309.9062
19:21:14:590,0.9673,0.1412,9.7893,44.3337,0.1008,-0.0049,-0.3299,309.9062
19:21:14:608,1.1539,0.7971,8.6019,43.8171,0.2028,0.3482,-0.1509,309.0156
19:21:14:629,1.2784,1.506,7.6684,43.2506,0.2645,0.6707,-0.0721,309.0156
19:21:14:647,1.0152,2.0542,6.6915,42.6238,0.2755,0.6854,-0.1362,309.0312
19:21:14:668,0.7995,2.2074,6.7657,42.0909,0.2272,0.2608,-0.2376,309.0312
19:21:14:689,1.1204,1.8362,7.5197,41.6987,0.2169,-0.171,-0.3366,309.2188
19:21:14:708,0.8378,1.4916,7.3379,41.3652,0.2462,-0.2181,-0.4905,309.2344
19:21:14:728,0.5267,1.7285,7.089,41.0333,0.2474,-0.1991,-0.5589,309.3438
19:21:14:748,0.8258,2.8274,6.4208,40.6679,0.1038,-0.1252,-0.5577,309.3438
19:21:14:770,0.6488,3.3781,6.469,40.3977,-0.0525,-0.1833,-0.719,309.2656
19:21:14:789,0.6224,3.05,7.4958,40.1523,-0.0898,-0.4856,-0.8619,309.2656
19:21:14:844,0.4071,2.2504,8.741,39.9945,-0.0696,-0.6396,-0.901,310.0625
19:21:14:853,0.2034,1.8075,9.361,39.857,-0.1161,-0.4019,-0.7819,310.1562
19:21:14:853,0.1484,2.4443,9.8447,39.5596,-0.2529,-0.0336,-0.5601,311.3906
19:21:14:867,0.3305,3.2106,10.2993,39.047,-0.3427,0.212,-0.416,311.5156
19:21:14:891,0.2082,3.0308,11.1398,38.9936,-0.3299,0.2602,-0.419,311.9531
19:21:14:908,-0.376,2.5259,11.4652,38.6458,-0.2297,0.3262,-0.4209,312.0312
19:21:14:928,-0.7636,2.5642,11.3623,38.3703,-0.1326,0.4838,-0.259,312.0312
19:21:14:948,-0.8234,2.9351,10.7303,38.0401,-0.0452,0.6194,-0.0006,312.625
19:21:14:967,-0.419,3.3254,10.6657,37.8594,0.0452,0.5351,0.2162,312.625
19:21:14:992,0.2177,3.7923,11.3767,37.4845,0.1362,0.2926,0.3476,313.8125
19:21:15:007,0.7493,4.0364,11.5851,37.317,0.2553,0.1356,0.3506,313.8125
19:21:15:029,0.3592,3.8402,11.6067,37.3304,0.3537,0.1032,0.2352,315.0469
19:21:15:047,-0.6368,3.4499,10.6705,36.6487,0.4025,0.2211,0.1509,315.0469
19:21:15:067,-1.3143,3.3589,9.7798,36.5003,0.3464,0.3549,0.1997,316.7188
19:21:15:092,-1.774,3.2441,9.0497,36.3696,0.2065,0.3848,0.2889,316.8906
19:21:15:107,-1.3717,2.8274,9.21,36.2822,0.0098,0.2401,0.3647,316.9062
19:21:15:129,-0.7875,2.2217,11.1278,35.9633,-0.1765,-0.0458,0.3946,318.9062
19:21:15:148,-0.6224,1.762,12.5426,35.5949,-0.1704,-0.1081,0.3952,319.9844
19:21:15:167,-0.8883,1.4797,11.5851,35.2833,0.0409,0.1106,0.4062,319.9844
19:21:15:188,-1.2329,1.2927,9.7439,34.7507,0.2523,0.2767,0.4514,320.7812
19:21:15:208,-1.1276,1.6352,8.7314,34.5271,0.3183,0.1875,0.5357,320.8594
19:21:15:228,-0.6368,2.2576,8.5038,34.2931,0.2443,0.047,0.5742,321
19:21:15:247,-0.1555,2.648,8.4607,33.8539,0.1032,0.0519,0.5033,321.0156
19:21:15:269,0.0526,2.1906,7.4216,33.7104,-0.1002,0.383,0.0678,320.3438
19:21:15:290,-0.2297,1.5227,6.4424,33.3987,-0.1564,0.3916,-0.124,320.2812
19:21:15:308,-0.6679,1.2975,6.5671,33.0892,-0.248,0.1228,-0.2028,319.6562
19:21:15:329,-1.051,1.0558,8.2286,32.6428,-0.3354,-0.2065,-0.204,319.5938
19:21:15:347,-1.0606,1.0367,9.5955,32.4215,-0.3134,-0.2987,-0.1045,319.1562
19:21:15:367,-1.0439,1.5706,9.5907,32.2155,-0.1765,-0.1289,0.0599,319.1094
19:21:15:390,-0.9721,2.5208,8.9372,31.7787,-0.088,0.1411,0.182,318.375
19:21:15:409,-0.9386,2.8466,8.1377,31.6761,-0.0898,0.3757,0.2138,317.5312
19:21:15:428,-0.8812,3.1172,7.2302,31.2524,-0.1289,0.5149,0.2016,317.5312
19:21:15:447,-0.8596,3.3924,7.3355,30.9962,-0.2724,0.4844,0.1637,316.4531
19:21:15:467,-0.8306,3.3517,8.4655,30.8511,-0.4404,0.3237,0.1063,316.4531
19:21:15:491,-1.0534,3.0595,10.0792,30.894,-0.5143,0.1173,0.0336,315.2031
19:21:15:508,-1.1946,2.6982,11.578,30.622,-0.4746,-0.0794,0.0147,315.2031
19:21:15:529,-1.2879,2.4778,12.4253,30.7115,-0.3677,-0.19,0.0342,314.25
19:21:15:547,-1.2257,2.1356,12.7582,30.5841,-0.2981,-0.193,0.0617,314.25
19:21:15:567,-0.929,1.8458,13.1363,30.1699,-0.2547,-0.1894,0.1155,314.25
19:21:15:591,-0.6009,1.8482,13.11,30.049,-0.1729,-0.1393,0.1796,314.1875
19:21:15:607,-0.2752,1.7477,12.2698,30.0295,-0.0953,-0.0428,0.2327,314.6406
19:21:15:628,0.4645,1.7836,11.4006,29.791,-0.0971,-0.0336,0.2535,314.6406
19:21:15:648,1.2114,1.3789,11.6569,29.5,-0.2205,-0.1655,0.1607,314.7656
19:21:15:667,1.6041,0.7325,13.1148,29.2905,-0.3665,-0.2657,0.0098,314.7656
19:21:15:689,1.5132,0.5818,13.5817,29.1085,-0.2749,-0.1704,-0.0812,314.2969
19:21:15:708,1.142,0.4908,11.7838,29.0667,0.066,-0.0202,-0.1264,314.25
19:21:15:729,1.5778,0.4836,9.7702,28.9823,0.4251,-0.2114,-0.1136,313.7656
19:21:15:747,2.0806,0.6823,8.2238,28.877,0.5705,-0.5412,-0.1417,313.7188
19:21:15:768,2.3773,1.1109,7.6493,28.7463,0.4624,-0.8576,-0.2669,313.5
19:21:15:790,2.2935,0.9601,8.7099,28.822,0.1759,-1.2247,-0.6347,313.4844
19:21:15:808,1.4677,0.644,9.052,28.7092,-0.0647,-0.7507,-0.7666,313.4531
19:21:15:828,0.5267,0.6751,8.6163,29.0691,-0.2309,-0.1136,-0.7575,313.4531
19:21:15:847,0.0263,1.0199,7.745,28.9251,-0.2095,0.2376,-0.6273,313.3125
19:21:15:867,0.0981,1.4222,6.9547,28.7966,-0.0421,0.1845,-0.4704,313.2969
19:21:15:890,0.5028,1.8386,6.6245,29.002,0.1191,-0.0593,-0.3702,312.9062
19:21:15:909,0.7445,2.2528,6.6556,29.0518,0.149,-0.1814,-0.3512,312.4688
19:21:15:930,0.7493,2.4778,6.9835,29.161,0.0293,-0.1197,-0.3769,312.4688
19:21:15:948,0.7373,2.7485,7.5918,29.0896,-0.1582,0.0006,-0.3934,312.5312
19:21:15:967,0.7995,3.0571,8.6689,29.3993,-0.3213,0.0635,-0.4044,312.5312
19:21:15:991,0.7325,3.026,9.7511,28.9863,-0.3696,0.0507,-0.452,312.8281
19:21:16:007,0.4262,2.849,10.625,28.9104,-0.3366,0.0214,-0.5094,312.8281
19:21:16:029,0.146,2.4251,11.7694,28.9738,-0.2969,0.0409,-0.4997,313.4062
19:21:16:048,0.0167,2.1212,12.131,28.6744,-0.1924,0.1539,-0.3421,313.4062
19:21:16:068,0.0096,2.6647,12.0541,28.5637,-0.0195,0.1668,-0.102,313.4219
19:21:16:093,0.2656,3.1651,12.399,28.4954,0.1857,-0.0379,0.0556,314.8594
19:21:16:108,0.3784,3.1771,12.7869,28.3517,0.3567,-0.1387,0.077,316.6406
19:21:16:128,0.431,3.0284,12.5282,28.315,0.4575,0.0073,0.0794,316.6406
19:21:16:147,0.1053,2.7987,11.5349,28.7756,0.5009,0.2333,0.0843,317.8125
19:21:16:167,-0.5267,2.7413,10.57,28.7759,0.4569,0.3744,0.1075,317.8125
19:21:16:191,-1.118,2.8705,9.8231,28.9065,0.3231,0.4221,0.1662,318.6406
19:21:16:207,-1.2305,2.8107,9.574,29.1027,0.1032,0.394,0.2395,318.6406
19:21:16:229,-0.8931,2.3509,10.5724,29.2799,-0.1045,0.171,0.3011,319.4219
19:21:16:248,-0.8453,1.3836,12.3105,29.2919,-0.1356,-0.1429,0.3189,319.5
19:21:16:267,-1.1779,0.754,13.3089,29.6064,0.0403,-0.1747,0.4074,320.375
19:21:16:291,-0.7971,1.6878,8.0369,29.6997,0.3097,0.4722,0.802,320.4531
19:21:16:309,-0.6631,2.557,7.8168,29.524,0.1497,0.149,0.8045,321.4844
19:21:16:329,-0.297,2.4084,9.1478,29.8461,-0.1063,-0.1381,0.6738,321.5938
19:21:16:346,-0.0622,1.9128,10.3232,29.819,-0.2792,-0.1191,0.5357,322.0156
19:21:16:367,0.0431,1.6519,10.5772,30.0596,-0.2627,0.1008,0.4325,322.0625
19:21:16:392,-0.1555,1.6041,9.4998,30.126,-0.0757,0.3207,0.3464,321.9219
19:21:16:407,-0.4238,1.6089,7.8431,30.3831,0.1271,0.4227,0.2761,321.7031
19:21:16:428,-0.5554,1.5323,6.804,30.4551,0.2272,0.3488,0.2291,321.7031
19:21:16:447,-0.6416,1.3095,6.7681,30.3777,0.1637,0.2883,0.2101,321.2969
19:21:16:467,-0.4884,2.0016,7.6014,30.6005,-0.0024,0.3934,0.2608,321.2969
19:21:16:492,-0.4693,2.6886,7.666,30.7247,-0.047,0.584,0.2724,320.5938
19:21:16:507,-0.6009,2.5546,6.7561,31.0456,0.0629,0.6218,0.2156,320.5938
19:21:16:528,-0.8234,2.5089,6.1433,31.1658,0.1063,0.4337,0.2046,319.9062
19:21:16:548,-0.7947,2.8202,7.1178,31.3948,-0.0079,0.157,0.2431,319.8438
19:21:16:568,-0.5985,2.8178,8.5851,31.3428,-0.1881,0.0495,0.2248,319.8281
19:21:16:590,-0.5291,2.6049,10.2778,31.427,-0.2767,-0.0238,0.1674,318.2031
19:21:16:607,-0.6607,2.1954,11.4054,31.6173,-0.2657,0.0073,0.1118,316.5781
19:21:16:628,-0.7516,1.9152,11.5134,31.5109,-0.1631,0.0586,0.1112,316.5781
19:21:16:647,-0.5243,1.6974,11.2259,31.5352,-0.0574,0.0006,0.1503,315.5156
19:21:16:668,-0.1292,1.5084,11.5229,31.5687,-0.0623,-0.1124,0.1851,315.5156
19:21:16:689,0.2465,1.4028,12.2052,31.6032,-0.146,-0.1301,0.2004,314.7344
19:21:16:708,0.431,1.494,12.3129,31.6608,-0.2254,0.0617,0.2132,314.7344
19:21:16:728,0.4214,1.319,11.1805,31.7789,-0.3005,0.3769,0.2211,314.2031
19:21:16:747,0.4956,1.0654,9.9356,31.8694,-0.4337,0.4905,0.2395,314.1562
19:21:16:768,1.118,1.3023,10.4599,31.7852,-0.5956,0.1362,0.2449,313.5156
19:21:16:791,1.0104,0.1962,14.8552,32.0055,-0.7471,-0.1228,-0.0922,313.4531
19:21:16:810,0.364,-0.1077,13.4692,32.0431,-0.5094,0.427,-0.1588,312.9062
19:21:16:829,0.1795,-0.1316,11.0393,32.069,-0.1264,0.6066,-0.099,312.8438
19:21:16:908,0.5267,0.3233,9.4472,32.0869,0.1985,0.27,-0.0055,312.3594
19:21:16:908,1.142,0.6344,8.9659,32.1625,0.328,-0.1704,0.0006,312.3125
19:21:16:909,1.439,0.9386,9.0592,32.1596,0.2749,-0.3732,-0.1148,312.0156
19:21:16:909,1.2162,0.9218,9.1669,32.6394,0.1069,-0.2511,-0.3121,311.7188
19:21:16:928,0.6033,0.6775,8.8893,33.1183,-0.0531,0.0452,-0.4801,311.7188
19:21:16:949,0.0622,0.6799,8.1975,33.2463,-0.0757,0.2401,-0.5369,311.3281
19:21:16:968,-0.0598,1.0247,7.302,33.5516,0.0605,0.1771,-0.4954,311.3281
19:21:16:990,0.1819,1.4821,6.6006,33.8804,0.2706,-0.1185,-0.4435,310.7656
19:21:17:007,0.4047,1.8984,6.2127,34.0082,0.3763,-0.3751,-0.4416,310.7656
19:21:17:028,0.6105,2.4778,6.5934,34.1943,0.2804,-0.4325,-0.4844,310.7656
19:21:17:047,0.5171,2.6623,7.235,34.7047,0.0464,-0.2627,-0.6017,310.1562
19:21:17:068,0.2704,2.6551,7.6875,34.7337,-0.1637,-0.033,-0.7061,310.1562
19:21:17:091,-0.134,2.6312,8.2334,34.805,-0.2621,0.0116,-0.7477,310.1562
19:21:17:109,-0.3233,2.77,9.1717,35.0527,-0.2669,-0.1283,-0.7239,310.3594
19:21:17:129,-0.6655,2.6025,10.5939,35.0891,-0.2816,-0.2223,-0.7068,310.3594
19:21:17:147,-0.7038,2.5714,11.4844,35.0695,-0.171,-0.3207,-0.631,310.3594
19:21:17:168,-0.498,2.4179,12.0565,35.4148,0.1271,-0.5809,-0.5046,310.3594
19:21:17:191,-0.6655,2.4682,11.901,35.742,0.3573,-0.6353,-0.3909,310.8906
19:21:17:208,-0.7588,2.2983,12.3224,35.7413,0.3873,-0.4209,-0.2254,310.8906
19:21:17:229,-0.4549,2.7078,12.4588,35.8216,0.2156,0.1234,-0.0073,311.875
19:21:17:247,-0.122,2.9183,12.3775,35.9652,0.2669,0.3103,0.1484,311.9688
19:21:17:267,0.3305,3.2393,11.755,36.08,0.4435,0.2633,0.2248,312.9219
19:21:17:292,0.0526,3.134,10.7566,36.2506,0.4991,0.2957,0.1588,313
19:21:17:308,-0.5435,3.0957,10.2108,36.4923,0.416,0.2889,0.0855,314.0156
19:21:17:330,-1.2377,2.8944,9.9787,36.7076,0.1038,0.0916,0.066,314.1094
19:21:17:347,-1.5203,1.6998,11.5182,36.6528,0.1002,-0.3164,0.0935,315.4531
19:21:17:367,-1.3214,0.8835,12.9808,36.7791,0.2627,-0.6487,0.1472,315.5781
19:21:17:390,-1.0845,0.7421,12.2913,36.8376,0.5369,-0.4801,0.2773,317.0625
19:21:17:408,-0.7205,1.2233,9.4974,36.9304,0.7416,-0.0959,0.3928,318.5781
19:21:17:428,-0.2994,1.7668,7.7091,36.9946,0.6903,-0.0373,0.358,318.5781
19:21:17:447,0.0957,2.0758,7.4767,37.0894,0.4245,-0.1564,0.1942,319.7188
19:21:17:468,-0.0024,2.1571,7.666,37.1631,0.0629,-0.1155,-0.0354,319.7188
19:21:17:489,-0.8163,1.9128,8.1688,37.0919,-0.2694,0.055,-0.2566,320.0781
19:21:17:507,-1.1898,1.0463,8.5564,37.2863,-0.3818,0.1136,-0.3525,320.1094
19:21:17:529,-1.3789,0.431,7.9723,37.2969,-0.27,0.0476,-0.3189,320.1094
19:21:17:548,-1.2736,0.5554,7.6684,37.5296,-0.2144,-0.0574,-0.1796,319.6562
19:21:17:567,-0.7995,1.1659,8.1712,37.6226,-0.3286,-0.0165,-0.0012,319.6406
19:21:17:592,-0.7062,1.8147,8.9827,37.6667,-0.4319,0.1741,0.0965,319.3125
19:21:17:607,-0.4382,1.951,9.2052,37.689,-0.3396,0.3024,0.1332,319.1562
19:21:17:628,-0.309,2.0806,8.444,37.8988,-0.0812,0.303,0.1411,319.1562
19:21:17:647,-0.4501,2.4538,7.2206,38.1721,0.1277,0.2223,0.1252,319
19:21:17:668,-0.4765,2.7987,6.7059,38.1021,0.1173,0.113,0.0935,319
19:21:17:689,-0.5794,2.9518,7.4384,37.9771,-0.0739,0.0373,0.036,318.3438
19:21:17:709,-0.5554,2.6695,8.5828,37.7256,-0.2535,-0.0165,-0.0312,318.3438
19:21:17:728,-0.8282,2.3318,9.6817,37.7378,-0.3176,-0.1191,-0.0819,317.75
19:21:17:747,-0.8883,2.1547,10.8906,37.7202,-0.2773,-0.2779,-0.0702,317.75
19:21:17:767,-0.5554,2.0255,11.6402,37.8852,-0.1808,-0.4001,-0.0275,318.0469
19:21:17:791,-0.0191,1.8123,12.2842,37.7657,-0.1271,-0.4649,-0.014,318.0781
19:21:17:810,0.3999,1.2951,12.8563,37.5403,-0.1301,-0.4673,-0.0293,318.7188
19:21:17:829,0.3927,0.7253,12.8109,37.5704,-0.201,-0.0782,0.0458,318.7812
19:21:17:849,0.4956,1.2042,11.968,37.8063,-0.1985,0.1002,0.1833,318.9844
19:21:17:867,1.2425,1.7333,11.3671,37.9883,-0.2156,0.0947,0.273,319
19:21:17:892,1.7309,1.7668,11.4652,38.1446,-0.2694,-0.0428,0.19,318.7344
19:21:17:908,1.6663,1.0965,12.3631,38.0571,-0.3146,-0.1484,-0.0079,318.375
19:21:17:927,1.0965,0.4645,12.4182,37.8088,-0.2376,-0.0519,-0.146,318.375
19:21:17:947,0.711,0.2106,10.8571,37.6291,-0.0324,0.1087,-0.1435,318.1875
19:21:17:967,0.9817,0.3568,9.6386,37.5118,0.1155,0.0507,-0.0593,318.1875
19:21:17:991,1.6304,0.6488,8.9085,37.6926,0.1429,-0.1295,-0.0189,318.1875
19:21:18:010,2.0518,0.8234,9.0903,37.7023,0.0513,-0.2987,-0.0953,318.3125
19:21:18:029,2.0423,0.7971,9.4974,37.7223,-0.0953,-0.2822,-0.2498,318.3125
19:21:18:048,1.5562,0.7038,9.44,37.7655,-0.2065,-0.0764,-0.4074,318.5
19:21:18:068,0.6224,0.6655,8.8582,38.1189,-0.2431,0.1509,-0.5015,318.5
19:21:18:091,-0.1651,0.7397,8.1664,38.4273,-0.1912,0.2431,-0.4844,318.6562
19:21:18:107,-0.4167,1.0606,7.5245,38.8293,-0.0641,0.1692,-0.3812,318.6875
19:21:18:128,-0.079,1.5897,6.9835,39.0639,0.066,0.0195,-0.2511,318.6875
19:21:18:147,0.4669,2.1906,7.0002,39.019,0.0996,-0.1203,-0.1692,318.1719
19:21:18:167,0.8931,2.569,7.1728,38.8818,0.0287,-0.1338,-0.179,318.1719
19:21:18:193,1.0439,2.624,7.8024,38.9433,-0.0941,-0.1075,-0.2688,318
19:21:18:208,0.9242,2.4538,8.5612,38.8048,-0.1961,-0.0709,-0.3714,318
19:21:18:229,0.8163,2.3294,9.3275,38.8432,-0.2535,-0.036,-0.4276,318.3125
19:21:18:247,0.9434,2.1188,10.2706,38.7623,-0.2767,-0.0134,-0.4337,318.3125
19:21:18:267,1.264,1.8482,11.257,38.6799,-0.2413,0.0214,-0.3995,318.4062
19:21:18:290,1.4653,1.8075,11.7861,38.811,-0.1173,0.0965,-0.3628,318.4062
19:21:18:308,0.917,2.0112,11.4461,38.549,0.0257,0.2547,-0.3445,318.7969
19:21:18:328,0.1986,2.2624,11.0441,38.8217,0.1222,0.3079,-0.2828,318.8438
19:21:18:350,0.1771,2.2887,11.4915,38.8336,0.3506,-0.0379,-0.0812,319.75
19:21:18:367,0.3425,2.2385,11.5588,39.0436,0.4673,-0.055,-0.0079,319.8438
19:21:18:389,0.3951,2.3773,10.8571,39.004,0.5039,-0.0238,0.055,320.6719
19:21:18:409,0.1364,2.6934,10.2132,38.9591,0.4288,-0.0024,0.0586,320.7656
19:21:18:428,-0.2273,2.715,9.6649,38.883,0.2419,0.0079,0.0006,321.1875
19:21:18:447,-0.4789,2.4156,9.8973,38.9776,-0.0415,-0.0623,-0.0794,321.2344
19:21:18:467,-0.297,1.4486,11.5517,39.4215,-0.3103,-0.292,-0.1448,321.7031
19:21:18:492,-0.754,0.3784,13.7252,39.4787,-0.3647,-0.5101,-0.1778,321.75
19:21:18:508,-1.4701,-0.1555,14.6184,39.6312,-0.0874,-0.4361,-0.0495,322.5625
19:21:18:529,-1.8386,-0.2106,11.901,39.6385,0.4936,-0.069,0.2407,322.6406
19:21:18:548,-1.7524,0.3736,8.3674,39.6766,0.981,0.0147,0.532,323.5625
19:21:18:567,-0.9505,1.2855,6.8255,39.8151,1.0177,-0.2938,0.7342,323.5781
19:21:18:593,0.5506,2.1284,7.3068,39.9551,0.6579,-0.5473,0.7923,324.3281
19:21:18:607,1.4653,2.272,8.353,39.9359,0.1833,-0.4881,0.6029,324.7969
19:21:18:628,1.0439,1.7788,9.0162,39.9241,-0.1979,-0.1741,0.2761,324.7969
19:21:18:648,0.4143,1.1731,8.6402,40.0296,-0.3909,0.1704,0.047,324.9062
19:21:18:668,-0.2201,0.7875,8.0034,40.1626,-0.5101,0.2981,-0.0495,324.9062
19:21:18:691,-1.1635,1.0008,9.1932,40.1483,-0.8301,0.3586,-0.0696,324.7656
19:21:18:710,-1.4964,1.1731,11.214,40.4102,-1.1942,0.6841,-0.0012,324.7656
19:21:18:728,-2.016,1.1109,12.1741,40.3843,-1.2571,1.2382,0.08,324.8594
19:21:18:747,-2.3103,0.9147,11.5445,40.5182,-0.8662,1.5803,0.2382,324.8594
19:21:18:768,-1.8793,0.8931,9.7032,40.37,-0.1698,1.5046,0.4985,325.2656
19:21:18:792,-1.2832,1.2257,7.6086,40.0013,0.4667,1.1374,0.7263,325.2969
19:21:18:810,-0.6846,1.8745,6.361,39.9152,0.7739,0.689,0.8576,325.1562
19:21:18:829,0.067,2.5618,5.9997,39.7119,0.7367,0.3708,0.8595,325.1406
19:21:18:849,0.6464,2.8442,6.6628,39.7999,0.1368,0.157,0.4288,323.875
19:21:18:869,0.5722,2.5113,7.5676,39.5863,-0.171,0.1503,0.1881,323.7344
19:21:18:891,-0.0885,1.7429,8.2597,39.5698,-0.474,0.0495,0.0886,322.4375
19:21:18:908,-0.5028,0.9673,9.5381,39.4869,-0.6603,-0.1472,0.1258,321.9844
19:21:18:978,0.012,0.1842,13.1172,39.6937,-0.6652,-0.3384,0.1985,321.9844
19:21:18:979,-0.0263,0.122,14.3097,40.0063,-0.4807,-0.3433,0.2737,321.9531
19:21:18:979,-0.0718,0.364,13.2993,39.9027,-0.1723,-0.1313,0.3989,322.0469
19:21:18:993,0.5195,0.9266,11.5923,40.0108,0.0421,0.0043,0.5546,322.0625
19:21:19:007,1.5179,1.4868,11.0201,39.628,0.0531,-0.0745,0.6005,321.875
19:21:19:028,2.2911,1.5849,11.0656,39.5618,-0.022,-0.2156,0.4392,321.8594
19:21:19:047,1.8529,0.8139,11.6856,39.7391,-0.0812,-0.3244,0.1136,320.8125
19:21:19:067,0.7732,0.0167,11.8579,39.7528,-0.0544,-0.2718,-0.1118,320.7969
19:21:19:092,0.2441,-0.1866,10.6298,39.8411,0.0867,-0.1026,-0.0996,318.9688
19:21:19:108,0.4478,0.1962,9.2148,39.8013,0.1869,-0.0513,0.0128,317.2344
19:21:19:128,1.1492,0.6009,8.5181,39.917,0.1405,-0.1478,0.0611,317.2344
19:21:19:147,1.9152,0.7732,8.6737,39.937,-0.0244,-0.2608,-0.025,316.5156
19:21:19:167,1.9848,0.6176,9.3921,40.4287,-0.2315,-0.2682,-0.2437,316.5156
19:21:19:192,1.3669,0.285,10.1007,40.6872,-0.3836,-0.1478,-0.4734,316.25
19:21:19:208,0.3951,-0.0048,10.1222,40.8309,-0.3665,0.0165,-0.6041,316.25
19:21:19:229,-0.3305,0,9.0281,41.095,-0.1729,0.1399,-0.5785,315.7344
19:21:19:248,-0.4406,0.3257,7.8957,41.2587,0.044,0.1136,-0.4453,315.7344
19:21:19:267,-0.1364,0.7732,7.0292,41.2581,0.1759,0.033,-0.3066,314.7031
19:21:19:290,0.3377,1.3238,6.5623,41.3281,0.1723,0.0214,-0.226,314.7031
19:21:19:308,0.7684,1.896,6.469,41.6335,0.0409,0.0849,-0.2285,313.6719
19:21:19:328,0.917,2.3581,6.7609,41.6808,-0.1613,0.1631,-0.3219,313.5781
19:21:19:347,0.754,2.5451,7.3259,41.6572,-0.3702,0.2211,-0.4746,313.6094
19:21:19:369,0.1771,2.2768,8.2119,41.7791,-0.6683,0.215,-0.7513,313.6094
19:21:19:392,-0.5506,1.7883,9.5022,41.7015,-0.6328,0.0067,-0.7245,313.7031
19:21:19:409,-0.9864,1.1659,12.9784,41.721,-0.4123,-0.2358,-0.6035,313.7188
19:21:19:429,-1.4366,1.1683,13.8356,42.1444,-0.0861,-0.2682,-0.449,313.7188
19:21:19:447,-1.8434,1.2162,13.2754,42.4184,0.1942,0.0024,-0.2162,313.7188
19:21:19:467,-1.573,1.4581,12.3224,42.5397,0.3207,0.3402,0.0941,314.4531
19:21:19:492,-0.6631,1.9657,12.0951,42.6401,0.3237,0.493,0.3592,314.5312
19:21:19:508,0.1603,2.4132,12.2411,42.8209,0.3561,0.4667,0.4532,315.6875
19:21:19:529,0.2946,2.6862,11.9034,42.9561,0.4795,0.3464,0.3726,315.8125
19:21:19:548,-0.419,2.5905,10.946,43.1751,0.6078,0.2089,0.2016,316.625
19:21:19:567,-1.197,2.4108,9.9595,43.2546,0.6243,0.0776,0.0788,316.6406
19:21:19:592,-1.5778,2.1882,9.4017,43.2091,0.5094,-0.0654,0.0421,317.125
19:21:19:608,-1.2712,1.3621,9.9667,43.3546,0.3054,-0.2963,0.0336,317.9688
19:21:19:629,-1.252,0.4071,12.0999,43.2556,0.1295,-0.5754,0.0195,317.9688
19:21:19:647,-1.8362,0.0598,13.6104,43.423,0.1771,-0.5443,0.0709,319.4531
19:21:19:668,-2.059,0.0383,11.4365,43.4041,0.4807,-0.1112,0.2431,319.4531
19:21:19:694,-2.0064,0.2898,8.4177,43.3891,0.7116,0.1185,0.4148,320.8906
19:21:19:709,-1.4629,0.7397,7.034,43.5814,0.6188,-0.0037,0.5461,320.8906
19:21:19:729,-0.3066,1.3454,7.5126,43.5909,0.3146,-0.2101,0.6115,321.6406
19:21:19:748,0.632,1.7142,8.0584,43.5615,0.0489,-0.2602,0.4997,321.6406
19:21:19:767,0.766,1.4868,7.9747,43.5978,-0.1148,-0.2285,0.2156,321.1406
19:21:19:790,0.0479,0.6918,8.2573,43.7828,-0.2706,-0.2468,-0.0916,321.1406
19:21:19:807,-0.8429,0.0048,9.5501,43.9612,-0.4282,-0.2902,-0.2382,320.2969
19:21:19:828,-1.2592,-0.4741,10.7399,44.2285,-0.4044,-0.292,-0.1704,320.2188
19:21:19:848,-1.2664,-0.4836,11.0848,44.446,-0.157,-0.1466,0.047,319.9688
19:21:19:867,-0.7899,0.4358,10.0457,44.5285,0.1643,0.1399,0.3201,319.9375
19:21:19:894,-0.0239,2.1428,7.5676,44.9061,0.4532,0.5742,0.5168,319.9062
19:21:19:907,-0.0167,2.5762,6.7801,45.28,0.4587,0.5504,0.4447,319.9062
19:21:19:928,-0.0383,2.8705,6.3275,45.3054,0.4074,0.3818,0.3262,319.9062
19:21:19:947,-0.0072,3.1795,6.44,45.2116,0.2456,0.1869,0.1802,319.9062
19:21:19:967,-0.2321,3.2225,7.3451,45.1529,-0.0086,0.044,0.0031,319.2812
19:21:19:992,-0.6153,2.8537,8.9515,45.2007,-0.2114,-0.1167,-0.1619,319.2188
19:21:20:008,-0.687,2.3486,10.151,45.2767,-0.2431,-0.3189,-0.2492,318.1094
19:21:20:028,-0.4525,1.9247,11.0058,45.2384,-0.2266,-0.4899,-0.2785,318
19:21:20:047,-0.1914,1.4509,12.1693,45.2105,-0.2883,-0.5437,-0.2889,317.3281
19:21:20:067,-0.4382,0.917,13.1507,45.1101,-0.3677,-0.4111,-0.2822,317.25
19:21:20:091,-0.8692,0.644,13.3232,45.4837,-0.3714,-0.157,-0.1765,317.6562
19:21:20:109,-0.5028,0.8234,12.5521,45.9529,-0.2834,0.0177,0.0538,317.8281
19:21:20:130,0.4645,1.2951,11.6186,46.1842,-0.1771,-0.033,0.2553,317.8281
19:21:20:148,1.6376,1.5754,11.2905,46.3645,-0.1313,-0.2981,0.2944,316.8906
19:21:20:167,2.3749,1.2664,12.2578,46.5747,-0.1338,-0.6707,0.1411,316.8906
19:21:20:193,1.9487,0.5459,13.4477,46.7321,-0.1319,-0.7715,-0.0941,315.7344
19:21:20:207,0.8139,-0.067,13.1507,47.1562,-0.0373,-0.4697,-0.2181,315.7344
19:21:20:229,0.3688,-0.2321,11.633,47.5383,0.1258,-0.0953,-0.1271,315.125
19:21:20:248,0.8306,0.134,10.1605,47.8508,0.2376,0.099,0.0678,315.125
19:21:20:268,1.5945,0.7588,9.1813,47.9799,0.2431,0.1594,0.1888,315.2969
19:21:20:292,2.1452,1.1707,8.8008,48.2243,0.1521,0.1716,0.1472,315.2969
19:21:20:308,2.2576,1.2568,8.5899,48.3545,0.0501,0.2144,-0.0275,315.8906
19:21:20:330,1.6496,1.1276,7.9986,48.5497,0.0012,0.2957,-0.2431,315.9531
19:21:20:348,0.7062,0.9577,7.1154,49.0896,0.0061,0.3207,-0.3952,316.6094
19:21:20:368,0.1484,0.8931,6.4089,49.0657,0.0244,0.2156,-0.4233,316.6719
19:21:20:390,0.5219,1.5706,6.4905,49.121,0.0116,0.0385,-0.3671,316.7969
19:21:20:409,0.8186,1.9801,6.8901,49.0496,-0.077,-0.0379,-0.3121,316.8125
19:21:20:429,0.754,2.1858,7.4815,49.0875,-0.2443,0.0562,-0.3268,316.2969
19:21:20:447,0.6607,2.2146,8.621,49.215,-0.5394,0.1991,-0.4746,316.25
19:21:20:467,0.5387,2.1858,9.7032,49.4857,-0.4868,0.0874,-0.5094,316.3125
19:21:20:491,0.3377,2.0997,10.3113,49.5877,-0.325,-0.0544,-0.5113,316.3125
19:21:20:508,0.3353,2.1021,10.9313,49.5256,-0.1979,-0.1429,-0.4642,316.7031
19:21:20:531,0.443,2.0471,11.621,49.6102,-0.1533,-0.1075,-0.3977,316.75
19:21:20:548,0.3353,2.059,12.3727,49.9595,-0.1435,0.0501,-0.3341,316.4688
19:21:20:567,-0.0431,2.193,12.7487,50.1842,-0.0617,0.2425,-0.2462,316.4375
19:21:20:593,-0.2393,2.339,12.2626,50.6277,0.1478,0.3347,-0.1179,316.2656
19:21:20:608,-0.1101,2.4849,11.6593,51.053,0.372,0.2596,0.0147,316.9062
19:21:20:630,0.2776,2.7437,11.6617,51.2757,0.4972,0.1313,0.1124,316.9062
19:21:20:648,0.4717,2.8944,11.3886,51.5469,0.5809,0.0764,0.1234,317.75
19:21:20:667,0.3185,2.7867,10.5245,51.9624,0.631,0.0415,0.0525,317.75
19:21:20:693,0.122,2.6791,9.4376,52.4152,0.5583,-0.0086,-0.0195,318.4531
19:21:20:708,0.0215,2.5041,9.1023,52.6458,0.3036,-0.124,-0.1002,318.4531
19:21:20:729,-0.1029,1.9367,9.9835,52.9328,-0.11,-0.2309,-0.2138,319.375
19:21:20:748,-0.4406,1.1204,12.1884,53.1467,-0.5174,-0.3005,-0.3073,319.375
19:21:20:768,-1.1994,0.2106,14.8409,53.4275,-0.5882,-0.3164,-0.3268,320.4844
19:21:20:792,-2.1284,-0.6679,14.8337,53.7606,-0.1093,-0.1295,-0.1747,320.4844
19:21:20:808,-2.4323,-0.6535,11.056,54.0614,0.6396,0.182,0.1649,321.375
19:21:20:828,-2.0734,0.0287,7.1943,54.3383,1.0891,0.1643,0.5088,321.4531
19:21:20:847,-0.9553,0.9529,5.5926,54.4651,0.9884,-0.1423,0.7184,322.0156
19:21:20:868,0.309,1.8099,6.2844,54.5332,0.5046,-0.3769,0.7141,322.0781
19:21:20:891,0.7325,1.386,8.8534,54.8312,-0.3286,-0.1582,0.149,322.1562
19:21:20:909,-0.2345,0.833,9.1717,55.0485,-0.3903,-0.0159,-0.08,322.1719
19:21:20:930,-0.9218,0.4789,9.2148,55.3207,-0.295,-0.0195,-0.11,321.9375
19:21:20:947,-0.9386,0.4119,9.1813,55.482,-0.1484,-0.0757,0.0098,321.9062
19:21:20:967,-0.4789,0.8931,8.93,55.7917,-0.0367,-0.0299,0.1765,321.8906
19:21:20:991,0.0646,1.494,8.3459,55.7203,0.0061,0.1326,0.2737,321.8906
19:21:21:053,0.1388,1.8888,7.6349,55.973,-0.0031,0.2981,0.2627,322.2344
19:21:21:053,0.0766,2.1715,7.0484,56.3536,-0.0385,0.3604,0.215,322.2656
19:21:21:054,0.0167,2.4203,6.859,56.718,-0.0782,0.2657,0.1674,322.9375
19:21:21:067,-0.0024,2.5208,7.2063,56.7781,-0.1332,0.0678,0.1106,323.0156
19:21:21:089,-0.0144,2.4036,8.2669,57.0123,-0.2175,-0.1002,0.0574,323.0312
19:21:21:109,-0.0359,2.3127,9.1597,57.3513,-0.2779,-0.1503,0.0269,321.7031
19:21:21:129,-0.2584,2.272,9.883,57.6701,-0.2877,-0.1497,0.0024,321.7031
19:21:21:148,-0.1866,2.2074,10.4097,58.1222,-0.2388,-0.2028,0.0037,320.4688
19:21:21:167,0.1771,2.0375,11.0991,58.583,-0.1857,-0.3396,-0.0024,320.4688
19:21:21:191,0.7181,1.5586,12.1837,59.0085,-0.1814,-0.4636,-0.0348,320.4062
19:21:21:208,0.8524,1.0104,13.1172,59.2584,-0.2028,-0.4435,-0.0849,320.4062
19:21:21:229,0.5219,0.6799,13.2586,59.8619,-0.2046,-0.2614,-0.091,320.5312
19:21:21:248,0.5602,0.7229,12.7654,60.0586,-0.1936,-0.0788,-0.0061,320.5312
19:21:21:268,0.9864,0.9625,12.3081,60.5447,-0.2248,-0.0415,0.0794,320.0312
19:21:21:291,1.8003,1.0175,12.9521,60.926,-0.3525,-0.1454,0.0849,320.0312
19:21:21:310,2.327,0.5578,14.9536,61.2417,-0.4575,-0.2547,-0.014,319.4375
19:21:21:330,1.9056,-0.0144,15.8106,61.4894,-0.2938,-0.1356,-0.1405,319.4375
19:21:21:348,1.1563,-0.4119,14.1515,61.5892,0.1802,0.0867,-0.1607,319.125
19:21:21:368,1.1707,-0.3401,11.5971,61.5607,0.7104,0.1093,-0.0177,319.0938
19:21:21:391,1.8673,0.2776,9.5644,61.802,1.1014,-0.1411,0.1674,319.0312
19:21:21:410,2.8011,1.1204,8.2549,62.0598,1.2956,-0.507,0.2303,319.0156
19:21:21:431,3.6751,2.0806,7.1106,62.1528,1.025,-0.7807,-0.2162,319.0312
19:21:21:449,2.892,1.7548,6.8064,62.3592,0.6334,-0.5302,-0.5827,319.0469
19:21:21:467,1.7261,1.2664,6.8973,62.4982,0.2132,-0.1747,-0.8246,319.1406
19:21:21:491,0.9386,1.1444,7.1728,62.6002,-0.0837,0.1228,-0.8521,319.1562
19:21:21:508,0.8139,1.4127,7.156,62.9623,-0.1765,0.2798,-0.7452,319.3906
19:21:21:528,1.1587,1.9271,6.7944,63.2603,-0.1283,0.2755,-0.6212,319.4062
19:21:21:548,1.4318,2.406,6.5551,63.3256,-0.069,0.1594,-0.5797,319.3594
19:21:21:567,1.4797,2.7508,6.6604,63.4174,-0.0702,0.0043,-0.609,319.3594
19:21:21:590,1.4462,2.8418,7.3068,63.5886,-0.1209,-0.1411,-0.6622,319.3281
19:21:21:609,1.2712,2.8681,7.9962,63.4869,-0.2022,-0.1588,-0.697,319.6562
19:21:21:629,0.8883,2.9231,8.4846,63.7907,-0.3164,-0.0244,-0.6933,319.6562
19:21:21:649,0.6894,2.8848,9.0401,63.9223,-0.4123,0.1002,-0.6365,319.4688
19:21:21:667,0.7038,2.8035,9.8207,63.8904,-0.4264,0.0898,-0.5498,319.4688
19:21:21:690,0.4693,2.9136,10.6035,64.1473,-0.4025,0.1216,-0.471,319.1562
19:21:21:709,-0.1029,3.0428,11.0249,64.3066,-0.4032,0.3402,-0.3854,319.1562
19:21:21:729,-0.3664,2.8968,11.0943,64.5968,-0.3934,0.5663,-0.2541,320.125
19:21:21:748,0.0024,2.648,11.6426,64.7282,-0.3225,0.5595,-0.0886,320.125
19:21:21:768,0.5602,2.6599,12.5785,65.0182,-0.1778,0.4258,0.0501,321.9531
19:21:21:793,0.6655,2.8131,12.7917,65.1541,0.0556,0.3665,0.0983,321.9531
19:21:21:809,0.1866,2.7173,11.9513,65.5202,0.3506,0.2963,0.0641,323.2812
19:21:21:829,-0.5124,2.4754,10.3857,65.5358,0.5803,0.1686,0.0367,323.4062
19:21:21:848,-1.063,2.6408,9.0832,65.8177,0.5693,0.0617,0.0635,324.5781
19:21:21:869,-0.929,2.9112,8.8846,65.8322,0.2822,-0.0281,0.1051,324.6875
19:21:21:892,-0.4238,2.2074,10.3905,65.7503,-0.1442,-0.1289,0.0782,326.1094
19:21:21:908,-0.6272,1.2066,13.1507,65.9133,-0.4282,-0.2071,0.0287,326.2344
19:21:21:930,-1.1492,0.7301,14.0605,66.0289,0.1753,0.1338,0.2602,327.5938
19:21:21:948,-1.2592,1.0558,9.4472,65.7553,0.5296,-0.0654,0.4539,327.7188
19:21:21:967,-0.2106,1.5658,8.9396,65.4648,0.5443,-0.3402,0.5962,328.75
19:21:21:991,0.6416,1.8864,8.8606,65.5203,0.3677,-0.3482,0.5809,328.8438
19:21:22:009,0.7875,1.573,8.2573,65.1936,0.1649,-0.2156,0.4197,329.4062
19:21:22:027,0.699,0.8453,8.2573,65.2811,-0.0635,-0.1973,0.2553,329.4688
19:21:22:047,0.632,0.6894,9.4759,65.0897,-0.3066,-0.2388,0.171,329.4219
19:21:22:067,0.2704,0.8596,10.503,64.9229,-0.4245,-0.0861,0.1246,329.4062
19:21:22:088,-0.3951,0.8979,10.4288,64.9948,-0.3079,0.1802,0.0953,329.1875
19:21:22:109,-0.9218,0.6727,9.7104,65.1786,-0.0098,0.3219,0.1313,329.0312
19:21:22:129,-0.9386,0.6823,8.1903,65.2966,0.361,0.3066,0.2694,329.0312
19:21:22:148,-0.577,1.2975,6.7609,65.2455,0.6066,0.19,0.4429,328.8594
19:21:22:167,-0.0718,2.1595,6.0571,65.1152,0.609,0.0849,0.5449,328.8594
19:21:22:192,0.3568,2.7556,5.796,64.9434,0.4368,0.0745,0.5253,328.75
19:21:22:207,0.6081,3.1268,5.8319,64.8455,0.1869,0.0874,0.4135,328.75
19:21:22:228,0.6464,3.0885,6.6485,64.9213,-0.1167,0.0837,0.2559,327.9531
19:21:22:247,0.7205,2.9351,8.4631,64.606,-0.4013,0.1124,0.1289,327.9531
19:21:22:267,0.5818,2.9351,9.6314,64.3642,-0.5131,0.2065,0.0483,326.75
19:21:22:291,0.1986,2.8107,10.1629,64.3027,-0.4759,0.2388,-0.0024,326.75
19:21:22:308,0.3784,2.5475,10.9002,64.442,-0.3543,0.0501,0.0134,326.0469
19:21:22:328,0.7349,2.394,11.403,64.5959,-0.1759,-0.2278,0.0464,326.0469
19:21:22:347,0.7971,2.2457,11.6928,64.4081,-0.0495,-0.4435,0.0464,325.7969
19:21:22:367,0.577,2.0112,11.9441,64.4272,-0.058,-0.5021,0.0666,325.7812
19:21:22:393,0.7301,1.8386,12.5258,64.3481,-0.1686,-0.4606,0.1698,325.5
19:21:22:409,1.5012,2.0016,13.4883,64.4625,-0.2761,-0.3506,0.3128,325.4688
19:21:22:429,3.1555,2.0375,13.4118,64.5295,-0.2071,-0.025,0.295,324.6875
19:21:22:449,3.0643,1.5945,13.3711,64.3622,-0.1301,0.0544,0.1179,324.6094
19:21:22:468,2.1547,1.1276,12.7032,64.1338,0.0018,0.2358,-0.0415,323.5156
19:21:22:493,1.4844,0.874,10.6705,63.896,0.2285,0.4673,-0.0819,323.4062
19:21:22:508,1.3741,0.8524,8.5588,64.0366,0.3879,0.5039,-0.0403,322.7031
19:21:22:527,1.7548,1.1252,7.6445,64.0813,0.3409,0.3476,-0.0024,322.6406
19:21:22:547,2.3079,1.427,7.721,63.8731,0.1368,0.1759,-0.0409,322.4219
19:21:22:567,2.5184,1.3621,8.5038,63.7104,-0.1124,0.0983,-0.1912,322.4062
19:21:22:588,2.2911,0.9386,9.119,63.6422,-0.2957,0.1472,-0.3781,322.3594
19:21:22:611,1.5826,0.6894,9.1525,63.25,-0.3671,0.2639,-0.5259,322.3438
19:21:22:629,0.7038,0.6176,9.064,63.1935,-0.3506,0.3335,-0.5791,322.3438
19:21:22:647,0.3257,0.7732,8.7984,63.1332,-0.2401,0.3311,-0.5033,322.2031
19:21:22:668,0.4286,1.2832,8.298,62.8233,-0.0507,0.248,-0.3732,322.2031
19:21:22:693,0.7469,1.8218,7.436,62.6883,0.1258,0.1655,-0.2975,321.5156
19:21:22:707,0.7899,2.3174,6.8064,62.59,0.1625,0.0971,-0.3024,321.5156
19:21:22:728,0.7851,2.758,6.8853,62.2765,0.0672,0.0153,-0.347,321.0781
19:21:22:747,0.7349,3.0523,7.7306,62.2041,-0.0599,-0.0776,-0.405,321.0781
19:21:22:767,0.5865,2.9638,8.6019,62.4031,-0.1197,-0.1466,-0.4557,321.125
19:21:22:791,0.5435,2.7317,9.3538,62.2366,-0.0788,-0.2553,-0.4575,321.125
19:21:22:807,0.5794,2.5714,10.0983,62.2435,0.0403,-0.4581,-0.4099,321.0469
19:21:22:829,0.7062,2.6408,11.3743,62.4358,0.2095,-0.7177,-0.3317,321.0469
19:21:22:847,0.7636,2.7126,12.4732,62.4662,0.4154,-0.8033,-0.2578,321.2812
19:21:22:867,0.565,2.6192,12.3559,62.1018,0.5687,-0.5021,-0.1796,321.2812
19:21:22:891,0.3138,2.6862,11.1278,62.3549,0.6047,-0.0159,-0.0428,322.1406
19:21:22:909,0.3592,2.9901,10.4097,62.1011,0.5021,0.3237,0.135,322.2188
19:21:22:928,0.821,3.3039,10.8117,61.9502,0.3726,0.4197,0.2914,323.2344
19:21:22:949,0.6296,3.3685,10.6705,61.6182,0.5149,0.2144,0.3451,323.3438
19:21:22:969,0.2874,3.3996,9.5836,61.4099,0.6053,0.0819,0.3433,323.9844
19:21:22:993,0.1484,3.4331,8.286,61.25,0.5009,0.0092,0.3164,324.0469
19:21:23:009,-0.3209,3.0188,7.7521,60.8341,0.1613,-0.1032,0.1771,324.6875
19:21:23:027,-1.0822,1.9032,8.9707,60.8368,-0.3286,-0.2957,0.0012,324.7344
19:21:23:047,-1.5275,0.7971,12.6048,60.5241,-0.7483,-0.4441,-0.0403,325.625
19:21:23:117,-2.26,-0.1388,14.8074,60.4108,-0.7263,-0.1558,0.1069,325.7188
19:21:23:117,-2.8825,-0.5243,12.7415,60.1881,-0.2242,0.4642,0.4649,326.6562
19:21:23:118,-2.3462,0.268,9.1669,60.1537,0.2902,0.7929,0.9462,327.4844
19:21:23:129,-0.9314,1.6424,7.3475,60.1966,0.4032,0.6457,1.3243,327.4844
19:21:23:148,1.0487,2.8825,7.9531,59.8756,0.179,0.3457,1.4337,327.8594
19:21:23:168,2.6456,3.4762,9.4424,59.7982,-0.0189,0.1759,1.2193,327.8594
19:21:23:192,2.9758,3.5647,9.5501,59.8309,0.0073,0.2272,0.7972,327.2969
19:21:23:208,2.004,3.4522,8.2884,59.6105,0.11,0.3543,0.3549,327.2969
19:21:23:228,1.1324,3.1771,7.29,59.6742,0.1246,0.4178,0.0593,326.4375
19:21:23:247,1.0319,2.6527,6.8303,59.5941,0.0709,0.4471,-0.1069,326.4375
19:21:23:267,1.0534,1.9872,6.0045,59.475,-0.0446,0.5168,-0.2425,325.6875
19:21:23:291,0.431,1.7453,6.2844,59.0496,-0.3812,0.5718,-0.3555,325.6875
19:21:23:309,0.0718,2.0423,8.4535,59.0104,-0.8002,0.6347,-0.3812,325.6875
19:21:23:328,-0.2752,2.0447,10.4815,58.9984,-0.8692,0.6237,-0.4056,325.5625
19:21:23:349,-1.1085,1.7285,10.1653,58.6602,-0.4954,0.5455,-0.4337,325.5781
19:21:23:367,-1.8793,1.5203,8.8869,58.4904,-0.08,0.3311,-0.3549,325.5781
19:21:23:393,-1.7764,1.5275,8.5708,58.2381,0.0904,0.0061,-0.1619,324.0312
19:21:23:408,-1.3789,1.6472,8.9611,58.2099,0.0672,-0.2083,0.0238,323.875
19:21:23:429,-1.209,1.7812,9.7965,58.2686,-0.0055,-0.2944,0.1484,320.9844
19:21:23:447,-1.0869,1.7788,10.0026,58.1085,-0.0055,-0.3097,0.2492,320.7031
19:21:23:470,-0.146,1.7453,10.8619,58.1806,-0.08,-0.4606,0.4795,318.625
19:21:23:492,0.7947,1.9992,11.8962,57.8656,-0.1625,-0.4936,0.5901,318.4219
19:21:23:509,1.4844,2.1739,12.2148,57.91,-0.1417,-0.4557,0.5962,317.875
19:21:23:528,1.6519,2.1882,11.6761,57.8806,-0.0764,-0.4038,0.5143,317.8281
19:21:23:547,1.6998,2.0447,10.9555,57.8113,-0.0782,-0.416,0.419,318.0469
19:21:23:567,1.9968,1.8553,11.0417,57.6654,-0.1997,-0.5394,0.3415,318.0625
19:21:23:592,2.6169,1.4486,12.4636,57.5829,-0.3891,-0.6823,0.2566,318.625
19:21:23:608,2.8537,1.0702,14.5801,57.901,-0.5223,-0.6683,0.1399,319.3438
19:21:23:628,2.3462,0.6655,15.3604,57.6792,-0.4294,-0.2993,0.0318,319.3438
19:21:23:648,1.7261,0.3162,13.3543,57.8965,-0.044,0.1045,0.0269,319.9375
19:21:23:667,1.7213,0.51,11.0752,57.8292,0.3751,0.1112,0.1289,319.9375
19:21:23:693,2.6145,1.0582,9.7487,57.7986,0.5815,-0.1008,0.2382,319.8125
19:21:23:708,3.3661,1.5275,9.0736,57.7223,0.5614,-0.2114,0.182,319.8125
19:21:23:728,3.4092,1.6519,8.4823,57.6283,0.4288,-0.1771,-0.044,319.2344
19:21:23:748,2.6886,1.4844,7.8814,57.328,0.2779,-0.0727,-0.3189,319.2344
19:21:23:768,1.8147,1.2185,7.2757,56.9574,0.1753,-0.0037,-0.5149,318.2656
19:21:23:794,1.051,1.1133,6.8136,56.8209,0.1405,-0.0281,-0.5992,318.1719
19:21:23:808,0.7588,1.1946,6.4137,56.534,0.1594,-0.1167,-0.5913,318.1719
19:21:23:829,0.929,1.5227,6.2486,56.2866,0.1753,-0.2181,-0.562,317.0469
19:21:23:847,1.1515,1.884,6.2414,56.1676,0.1368,-0.2486,-0.5937,316.3125
19:21:23:867,1.1085,2.071,6.0906,56.0919,0.0165,-0.1778,-0.7019,316.3125
19:21:23:892,0.7588,2.1332,6.2342,56.1177,-0.1509,-0.1521,-0.8301,316.0625
19:21:23:908,0.2752,1.8984,6.7777,56.1108,-0.2761,-0.3183,-0.9199,316.0312
19:21:23:928,0.1125,1.7405,8.1087,56.0792,-0.2559,-0.7953,-0.9059,316
19:21:23:948,0.486,1.8817,9.926,55.904,-0.0428,-1.4496,-0.8051,316
19:21:23:968,0.8067,2.0853,11.1015,55.985,0.215,-1.7947,-0.7196,315.6094
19:21:23:993,0.2994,2.4802,11.8579,55.9252,0.08,-0.697,-0.5571,315.5781
19:21:24:009,-0.5076,2.7796,11.123,55.8344,-0.1845,0.2737,-0.3567,315.4531
19:21:24:028,-0.3879,3.3422,10.7758,55.7077,-0.2938,0.7275,-0.0195,315.4375
19:21:24:047,0.6727,4.0795,11.1757,55.3489,-0.1912,0.6341,0.3219,316.2656
19:21:24:067,1.6902,4.6397,11.4724,55.3923,-0.0024,0.405,0.5107,316.3438
19:21:24:093,2.3892,4.7521,11.6665,55.3589,0.1057,0.3274,0.5217,317.5469
19:21:24:108,2.4562,4.4961,11.4365,55.1792,0.0764,0.4496,0.4288,318.875
19:21:24:129,1.8266,4.2664,11.0752,55.0141,-0.0544,0.5974,0.3305,318.875
19:21:24:148,1.3597,4.1082,11.4078,55.0273,-0.2217,0.6017,0.306,320.7188
19:21:24:167,1.5945,3.5121,12.7558,54.992,-0.3085,0.4135,0.3329,320.7188
19:21:24:191,1.9415,2.4443,14.324,54.8945,-0.1637,0.1106,0.3305,322.8906
19:21:24:208,1.3932,1.4509,14.403,54.9423,0.2205,0.0257,0.3085,322.8906
19:21:24:228,0.4238,1.1755,11.755,54.8494,0.7147,0.193,0.3909,324.9844
19:21:24:247,0.2874,1.5778,8.9515,54.6401,1.0623,0.1625,0.5663,324.9844
19:21:24:267,0.984,2.0088,7.6205,54.763,1.1056,-0.1051,0.6793,325
19:21:24:289,1.9896,2.4371,7.5269,54.6423,0.8656,-0.2694,0.6597,326.5938
19:21:24:307,2.5618,2.6551,7.855,54.7845,0.4942,-0.2028,0.4875,326.9219
19:21:24:328,2.5666,2.4778,8.1278,54.8188,0.1845,-0.0855,0.2333,326.9219
19:21:24:348,2.2074,2.0207,8.2741,55.0427,0.044,-0.0684,-0.0122,325.8906
19:21:24:368,1.5156,1.5682,8.2382,55.0621,0.0208,-0.099,-0.179,325.8906
19:21:24:388,0.8258,1.439,8.432,55.2463,0.0275,-0.0959,-0.2223,324.7344
19:21:24:406,0.3975,1.5706,8.3195,55.4893,0.091,-0.0232,-0.1759,324.7344
19:21:24:427,0.2752,1.7357,7.4719,55.5241,0.2327,0.0666,-0.1093,323.9688
19:21:24:447,0.1747,1.9729,6.1911,55.4579,0.3586,0.113,-0.0611,323.8906
19:21:24:467,0.0574,2.3246,5.2334,55.4761,0.3451,0.1271,-0.0409,323.1875
19:21:24:489,-0.256,3.1196,4.884,55.4427,-0.1381,0.1179,-0.0819,323.125
19:21:24:507,-0.3329,3.0547,6.1337,55.4976,-0.5009,0.0843,-0.1264,322.3594
19:21:24:527,-0.1603,2.8585,7.7856,56.0522,-0.799,0.08,-0.1484,322.2812
19:21:24:546,0.0167,2.7724,9.6123,56.0647,-0.9719,0.0898,-0.1637,320.9531
19:21:24:567,0.0048,2.6695,11.3743,56.0179,-0.9841,0.0788,-0.1631,320.8281
19:21:24:589,0.0072,2.3222,12.5904,56.1183,-0.7819,-0.0556,-0.1258,319.6719
19:21:24:607,0.3568,1.8458,12.8779,56.3562,-0.4496,-0.2694,-0.036,319.3438
19:21:24:627,1.0869,1.4653,13.2802,56.4951,-0.2333,-0.4239,0.0928,319.3438
19:21:24:647,1.8529,1.3238,13.6295,56.6084,-0.1888,-0.3299,0.2242,319.75
19:21:24:666,2.0495,1.6304,13.0334,56.5511,-0.2004,-0.0195,0.3036,319.75
19:21:24:689,2.1308,1.908,12.0784,56.2812,-0.2089,0.1949,0.3402,320.0781
19:21:24:707,2.7365,1.9104,11.4844,56.4992,-0.2352,0.1619,0.3561,320.0781
19:21:24:728,3.6413,1.7955,11.9489,56.7007,-0.3366,-0.0024,0.314,320.1094
19:21:24:748,4.2736,1.4246,13.7204,57.1181,-0.5021,-0.022,0.1833,320.1094
19:21:24:768,3.8354,1.0391,14.4748,57.3122,-0.529,0.3152,-0.0031,320.125
19:21:24:790,2.6982,0.6607,12.629,57.6055,-0.2663,0.7342,-0.1387,320.2031
19:21:24:806,2.0231,0.4143,10.2467,57.9265,0.0831,0.7819,-0.1222,320.5312
19:21:24:828,2.0423,0.7421,9.0832,58.3396,0.3036,0.427,-0.0037,320.5312
19:21:24:847,2.8442,1.1946,9.2773,58.8009,0.4032,-0.0244,0.0757,320.9531
19:21:24:867,3.5336,1.319,9.5022,58.8024,0.4245,-0.1979,-0.0079,320.9531
19:21:24:890,3.4068,1.3262,9.052,59.0611,0.3647,-0.033,-0.2156,321.2344
19:21:24:907,2.4897,1.2784,8.2095,59.1685,0.2572,0.2248,-0.4374,321.2344
19:21:24:927,1.3956,1.1492,7.5652,59.3981,0.1704,0.3451,-0.5779,321.0312
19:21:24:947,0.5148,1.1324,7.2781,59.4638,0.1478,0.2963,-0.5895,321
19:21:24:967,0.268,1.2784,7.4025,59.6358,0.1839,0.1558,-0.4923,320.375
19:21:24:990,0.565,1.7764,7.5509,59.8204,0.2462,0.0568,-0.3592,320.2969
19:21:25:008,1.2377,2.6647,6.8064,59.9715,0.2804,0.1582,-0.3152,319.6406
19:21:25:028,0.8835,3.0667,6.5599,60.4102,0.1625,0.1631,-0.3885,319.5781
19:21:25:048,0.7181,3.2345,7.2972,60.5499,-0.0037,0.0391,-0.4288,319.4062
19:21:25:066,0.8668,3.323,8.4272,60.5191,-0.1203,-0.0654,-0.4172,319.3906
19:21:25:087,1.0941,3.4164,9.2219,60.8784,-0.1839,-0.044,-0.4001,319.5156
19:21:25:107,1.331,3.4451,9.9452,61.1713,-0.2254,0.0586,-0.4062,319.4062
19:21:25:173,1.0534,3.5671,10.8236,61.5233,-0.2504,0.1997,-0.4386,319.4062
19:21:25:173,0.4238,3.4786,11.3049,61.753,-0.2089,0.3531,-0.4539,319.6094
19:21:25:173,-0.067,3.2512,11.3815,61.9866,-0.0953,0.4441,-0.394,319.6094
19:21:25:191,-0.2201,3.1866,11.3958,61.9514,0.0428,0.4429,-0.2535,320.6562
19:21:25:206,0.1795,3.3111,11.4532,62.2496,0.1851,0.3757,-0.0904,320.6562
19:21:25:227,0.6846,3.6006,11.1637,62.5828,0.3354,0.2798,-0.0061,320.6719
19:21:25:248,0.632,3.7756,10.3807,62.8682,0.43,0.1955,-0.0544,321.7812
19:21:25:268,-0.0263,3.5958,9.5261,63.2075,0.3757,0.1417,-0.168,321.7969
19:21:25:290,-0.766,3.2536,9.4974,63.4663,0.1649,0.0678,-0.2449,322.4844
19:21:25:307,-1.1731,2.6958,10.017,63.8342,-0.0837,-0.0837,-0.2523,323.2188
19:21:25:327,-0.8501,1.8362,11.7168,64.252,-0.2865,-0.3854,-0.1961,323.2188
19:21:25:348,-0.3401,1.0199,14.3767,64.8517,-0.3506,-0.5748,-0.1057,324.1406
19:21:25:368,-0.687,0.4669,14.5083,65.2768,-0.0764,-0.2902,0.0153,324.1406
19:21:25:390,-1.5036,0.51,11.3551,65.6736,0.4459,0.0965,0.1894,325.0312
19:21:25:407,-1.5395,0.9864,8.2765,65.8123,0.824,0.0916,0.4038,325.0312
19:21:25:427,-0.6105,1.6113,7.046,65.9247,0.8051,-0.1619,0.5785,325.8594
19:21:25:447,0.5315,2.2624,7.3953,66.1752,0.4783,-0.292,0.6108,325.9375
19:21:25:467,1.0247,2.3749,8.0417,66.2554,0.11,-0.1912,0.4441,326.4844
19:21:25:490,0.6272,1.7189,8.0919,66.3023,-0.1026,-0.0458,0.1961,326.5469
19:21:25:507,0.0144,0.9529,7.9388,66.6059,-0.1747,-0.0214,0.0538,326.5781
19:21:25:528,-0.3233,0.9003,8.5134,66.5522,-0.1833,-0.0898,0.1771,326.5781
19:21:25:547,-0.2512,1.209,8.8869,66.4647,-0.0165,-0.0519,0.2779,326.7812
19:21:25:567,-0.1962,1.5969,7.7928,66.5956,0.1863,0.0061,0.3592,326.7969
19:21:25:587,-0.1149,2.0136,6.6772,66.8484,0.2773,0.0507,0.4172,327.2969
19:21:25:607,-0.0574,2.4132,5.9495,66.7987,0.2333,0.0562,0.4392,327.7656
19:21:25:626,-0.067,2.8848,5.6716,67.0504,0.0721,0.0531,0.4227,327.7656
19:21:25:647,-0.0239,3.2512,5.9327,67.2042,-0.1698,0.0421,0.3757,327.625
19:21:25:667,0.2154,3.2656,6.8949,67.1812,-0.4245,-0.0012,0.3042,327.625
19:21:25:692,0.2608,3.189,8.4344,67.641,-0.6292,-0.0574,0.2223,326.5781
19:21:25:707,0.1986,3.1699,10.1222,67.9504,-0.7251,-0.0837,0.1655,326.5781
19:21:25:728,0.2922,3.038,11.1948,68.2269,-0.6365,-0.1161,0.1503,326.5625
19:21:25:747,0.3951,2.6743,11.1781,68.5491,-0.4294,-0.1784,0.1497,325.5
19:21:25:768,0.9386,2.15,11.7431,69.0574,-0.27,-0.3726,0.1826,325.4844
19:21:25:791,1.6448,1.6998,12.6984,69.499,-0.1454,-0.5815,0.226,325.2188
19:21:25:808,2.1069,1.6543,12.7367,69.9807,-0.0318,-0.5773,0.2566,324.9688
19:21:25:828,2.3605,1.9343,12.0832,70.3704,0.0006,-0.4416,0.2724,324.9688
19:21:25:848,2.8513,2.2074,12.1406,70.4607,-0.0874,-0.3677,0.2614,324.2656
19:21:25:867,3.3254,2.394,12.198,70.8605,-0.2388,-0.2297,0.1881,324.2656
19:21:25:892,3.4355,2.1978,12.5713,71.0699,-0.449,-0.0464,0.0385,323.3125
19:21:25:908,3.0356,1.5562,14.0103,71.1892,-0.6371,0.1051,-0.1326,323.3125
19:21:25:929,2.3844,0.8859,14.6375,71.3289,-0.6096,0.3934,-0.2162,322.4219
19:21:25:948,1.7883,0.5219,13.4907,71.1094,-0.317,0.7171,-0.1637,322.4219
19:21:25:968,1.7548,0.6727,11.4844,70.9669,0.0953,0.7935,0.0049,321.9062
19:21:25:993,2.5403,1.075,9.763,70.8803,0.4337,0.584,0.1698,321.8594
19:21:26:009,3.3829,1.5945,8.4081,70.9626,0.5693,0.3146,0.1961,321.5625
19:21:26:031,3.1292,1.8864,7.7904,70.9043,0.1527,0.1863,-0.2303,321.5469
19:21:26:049,2.2146,1.4151,8.0704,70.8246,-0.088,0.2834,-0.4581,321.2812
19:21:26:067,1.2233,1.0965,8.0967,70.7942,-0.1716,0.3726,-0.5687,321.25
19:21:26:092,0.5506,0.996,7.7498,70.6246,-0.1252,0.4068,-0.5589,320.9062
19:21:26:109,0.2827,1.0487,7.3307,70.5455,-0.0269,0.3512,-0.4832,320.4375
19:21:26:128,0.2058,1.1755,6.938,70.5796,0.058,0.2492,-0.4019,320.4375
19:21:26:148,0.0502,1.3214,6.9236,70.6486,0.0751,0.1478,-0.3445,320.2188
19:21:26:167,-0.1914,1.331,7.3522,70.5879,0.0391,0.0983,-0.2792,320.2188
19:21:26:194,0.0431,1.3334,7.721,70.6039,0.0574,0.0244,-0.16,320.2031
19:21:26:209,1.0606,1.7453,7.7258,70.4432,0.1155,-0.0544,-0.033,320.5781
19:21:26:229,2.1619,2.5137,7.7809,70.362,0.0709,-0.0556,-0.0134,320.5781
19:21:26:249,2.3174,3.1651,8.0656,70.2394,-0.1014,0.0305,-0.171,320.6094
19:21:26:267,1.0726,3.134,9.2004,70.3689,-0.3207,0.1106,-0.4142,320.6094
19:21:26:293,-0.4382,2.6958,10.6155,70.1829,-0.4166,0.1344,-0.5107,320.0938
19:21:26:309,-1.4079,2.5065,11.4556,70.1375,-0.2987,0.146,-0.361,320.2656
19:21:26:329,-1.494,2.8992,11.4604,69.9782,-0.0434,0.1484,-0.0342,320.2656
19:21:26:348,-0.6296,3.912,11.147,70.0339,0.2187,0.0611,0.3018,321.3125
19:21:26:369,0.4478,4.5607,10.9337,70.2274,0.3818,-0.102,0.4661,321.3125
19:21:26:392,1.0558,4.6493,11.001,70.3482,0.3757,-0.204,0.4239,322.3594
19:21:26:408,1.2808,4.1728,11.5062,70.531,0.2315,-0.2352,0.2688,322.3594
19:21:26:429,1.0463,3.4905,12.1214,70.5481,0.0214,-0.2285,0.0941,323.1406
19:21:26:448,0.778,2.8442,13.3783,70.6254,-0.2382,-0.2315,-0.0257,323.1406
19:21:26:467,0.8258,2.0231,15.1235,70.4331,-0.4099,-0.2407,-0.0861,323.5781
19:21:26:491,0.8668,0.8258,16.4354,70.5854,-0.2981,-0.2285,-0.099,323.625
19:21:26:508,0.0263,0.0502,15.8154,70.5098,0.1698,-0.1057,-0.0312,323.6875
19:21:26:529,-0.8258,0.0694,12.2794,70.2951,0.8289,0.1564,0.1668,323.6875
19:21:26:549,-0.7804,0.6272,8.2382,69.9763,1.3133,0.0275,0.5925,324.25
19:21:26:567,1.1755,2.5451,5.6548,69.8064,0.9175,-0.2175,0.6078,324.3125
19:21:26:593,2.2289,2.9734,6.7442,69.4169,0.3732,-0.2743,0.4129,325.125
19:21:26:609,2.2744,2.6551,7.8479,69.2219,-0.0452,-0.1924,0.0611,324.9375
19:21:26:627,1.1922,1.9825,8.7386,69.1967,-0.2364,-0.1142,-0.2755,324.9375
19:21:26:648,0.1101,1.3741,9.1573,68.9084,-0.2138,-0.0941,-0.4227,324.9219
19:21:26:666,-0.4717,0.9266,9.1502,68.7229,-0.0483,-0.1246,-0.3757,324.0781
19:21:26:687,-0.5961,0.8931,8.6569,68.8532,0.1497,-0.1167,-0.2144,324
19:21:26:709,-0.3999,1.4151,7.9196,68.8861,0.2669,-0.0159,-0.0214,323.6719
19:21:26:728,-0.1651,2.0806,7.2637,68.7187,0.3085,0.11,0.1118,323.6562
19:21:26:747,-0.0861,2.5137,6.3826,68.6649,0.3396,0.1991,0.1515,323.8125
19:21:26:768,-0.2369,2.8513,5.6501,68.3563,0.3262,0.1692,0.1313,323.8125
19:21:26:792,-0.3688,3.0595,5.2645,68.016,0.212,0.0794,0.0941,323.9844
19:21:26:808,-0.4214,3.2082,5.9925,67.9221,-0.0275,-0.011,0.077,323.3281
19:21:26:828,-0.0837,3.3685,7.3068,67.7309,-0.292,-0.036,0.0776,323.3281
19:21:26:849,0.0024,3.3996,8.6306,67.6027,-0.46,-0.0348,0.0354,322.0625
19:21:26:868,0.0311,3.3565,10.0409,67.2872,-0.5168,-0.0605,-0.0183,322.0625
19:21:26:894,0.1986,2.9877,10.7806,67.1274,-0.4722,-0.0928,-0.0586,321.6094
19:21:26:908,0.7181,2.5594,11.6186,66.8896,-0.4282,-0.2004,-0.0782,321.6094
19:21:26:930,1.1492,2.1739,12.6,66.9956,-0.4349,-0.281,-0.0959,322.3906
19:21:26:949,1.1492,1.8458,13.3831,67.1568,-0.4563,-0.2193,-0.1093,322.3906
19:21:26:968,0.8812,1.6304,13.3472,67.1592,-0.4105,-0.0837,-0.0727,323.0156
19:21:26:992,0.9745,1.6902,12.6458,67.0878,-0.3183,-0.0202,0.0409,323.0781
19:21:27:008,1.9008,1.951,12.5569,66.414,-0.2908,-0.0782,0.1796,322.9844
19:21:27:028,2.8466,2.1117,12.7176,66.4007,-0.317,-0.091,0.2095,322.9844
19:21:27:048,3.0667,1.7524,12.8492,66.2494,-0.3268,-0.0354,0.0892,322.6406
19:21:27:068,2.2959,1.2042,12.9162,66.1879,-0.2639,0.0544,-0.0672,322.6094
19:21:27:088,1.841,0.8501,10.0505,65.939,0.2272,0.2608,-0.0409,322.4219
19:21:27:108,2.2839,1.0774,8.5493,65.6572,0.3323,0.2095,0.0122,322.2969
19:21:27:127,2.8226,1.4557,7.8814,65.3044,0.2156,0.1045,-0.0018,322.2969
19:21:27:148,3.1603,1.5873,8.0608,65.0416,-0.0275,-0.0006,-0.1277,322.2969
19:21:27:167,3.0835,1.1252,9.0784,65.0764,-0.2651,-0.0666,-0.3268,322.3906
19:21:27:192,2.3677,0.7851,9.428,64.9418,-0.3751,0.0195,-0.4832,322.3906
19:21:27:259,1.3071,0.7684,9.0305,64.6824,-0.3256,0.1203,-0.5437,322.6406
19:21:27:259,0.6966,0.8139,8.4105,64.4738,-0.1802,0.1338,-0.4966,322.6562
19:21:27:260,0.7038,0.996,7.6564,64.4084,-0.0049,0.1045,-0.3891,322.9062
19:21:27:267,1.008,1.3286,6.8638,64.4126,0.1319,0.0623,-0.2987,322.9062
19:21:27:287,1.0917,1.7812,6.1887,64.186,0.1625,0.033,-0.2737,322.6875
19:21:27:307,1.1372,2.2959,6.0619,64.146,0.0874,-0.0171,-0.2877,322.375
19:21:27:327,1.1755,2.703,6.5121,64.2218,-0.0312,-0.1173,-0.3329,322.375
19:21:27:347,1.0391,2.7006,7.5317,64.1279,-0.1484,-0.2205,-0.3995,322.5312
19:21:27:367,0.8453,2.6958,8.499,64.0845,-0.2352,-0.2468,-0.4184,322.5312
19:21:27:389,0.6033,2.8202,9.4998,64.124,-0.2688,-0.2395,-0.3879,322.5156
19:21:27:407,0.6823,2.971,10.6801,64.0746,-0.2303,-0.2682,-0.3219,322.5156
19:21:27:427,0.6918,3.1316,11.7311,63.7696,-0.1216,-0.2633,-0.2621,322.6406
19:21:27:447,0.1651,3.2249,12.2961,63.7889,0.0202,-0.1405,-0.2101,322.6406
19:21:27:468,-0.2249,3.1842,12.2435,63.5895,0.1729,0.0654,-0.0947,323.4531
19:21:27:491,0.1675,3.1579,12.0254,63.3348,0.3091,0.2474,0.0837,323.5312
19:21:27:508,1.0558,3.3446,11.9536,63.263,0.3928,0.3867,0.2364,324.5312
19:21:27:527,1.4821,3.9168,11.2929,63.275,0.4514,0.5235,0.2621,324.6406
19:21:27:548,1.0295,4.0747,10.0098,63.3896,0.5113,0.5314,0.1142,325.3125
19:21:27:569,-0.7588,2.9303,8.5756,63.2013,0.1857,0.281,-0.1716,325.3906
19:21:27:590,-1.1946,2.6527,9.7343,63.1,-0.226,0.237,-0.1173,325.9531
19:21:27:608,-0.9769,2.3892,11.2259,63.0395,-0.5345,0.2498,0.0116,326.7656
19:21:27:627,-0.1866,1.7764,12.897,63.172,-0.6218,0.1784,0.1307,326.7656
19:21:27:647,0.577,1.1085,14.6255,63.1302,-0.4942,0.099,0.2242,326.8438
19:21:27:667,0.189,0.8453,13.9983,63.04,-0.0819,0.234,0.2828,327.7031
19:21:27:688,-0.6105,0.9003,10.8021,62.9644,0.5015,0.3323,0.347,327.7812
19:21:27:707,-0.8859,1.1707,8.1278,62.7664,0.8552,0.1161,0.4465,328.4219
19:21:27:728,-0.3114,1.6807,7.2446,62.608,0.8027,-0.171,0.5577,328.4844
19:21:27:747,0.6607,2.26,7.4934,62.6824,0.4917,-0.2614,0.5785,328.8281
19:21:27:766,1.3932,2.4395,7.8263,62.6948,0.1277,-0.1521,0.4313,328.8438
19:21:27:788,1.118,2.1188,8.231,62.4775,-0.2114,0.0006,0.1741,328.4219
19:21:27:807,0.0024,1.4868,8.8391,62.6282,-0.5113,0.1637,-0.0275,327.8906
19:21:27:827,-0.6344,1.0463,9.6506,62.5162,-0.664,0.2694,-0.033,327.8906
19:21:27:847,-0.699,0.941,9.9045,62.6735,-0.5522,0.2779,0.1032,328.0938
19:21:27:867,-0.5315,1.2664,9.2028,62.6376,-0.237,0.2242,0.2767,328.0938
19:21:27:890,-0.1675,1.7931,8.1302,62.5545,0.0898,0.1014,0.4087,328.125
19:21:27:907,0.2922,2.2648,7.2924,62.531,0.2743,0.0208,0.4612,328.125
19:21:27:927,0.6176,2.7532,6.6269,62.3885,0.295,0.0312,0.4343,327.6719
19:21:27:947,0.5889,3.1842,6.4472,62.6126,0.1668,0.0684,0.3323,327.6719
19:21:27:968,0.3185,3.3111,6.9739,62.5466,-0.0342,0.058,0.2034,326.9219
19:21:27:990,-0.0957,3.0165,8.0154,62.612,-0.1991,-0.011,0.0953,326.9219
19:21:28:007,-0.2994,2.77,9.3467,62.5607,-0.2559,-0.124,0.0715,325.9844
19:21:28:029,-0.2752,2.8609,10.6944,62.6218,-0.1765,-0.2529,0.1191,325.8906
19:21:28:047,0.1316,2.8537,11.8244,62.9607,0.036,-0.394,0.1765,324.9531
19:21:28:069,1.2377,2.0183,12.4971,63.2127,0.4997,-0.678,0.1698,324.8594
19:21:28:093,1.6926,1.5897,12.641,63.486,0.565,-0.7055,0.1759,324.6562
19:21:28:110,1.6687,1.5873,12.0613,63.3613,0.5595,-0.5516,0.2071,324.6406
19:21:28:128,1.7836,2.0518,10.6442,63.48,0.4923,-0.3347,0.2614,324.4688
19:21:28:147,2.461,2.5089,9.696,63.5845,0.27,-0.2553,0.2633,324.4531
19:21:28:166,3.7516,2.2768,10.0265,63.6558,-0.1582,-0.295,0.1466,323.7344
19:21:28:188,4.089,1.7046,12.4804,63.5864,-0.6976,-0.3268,-0.1008,323.6562
19:21:28:210,3.0643,1.0582,14.9608,63.8539,-0.9395,-0.1967,-0.35,322.7812
19:21:28:229,2.1691,0.0167,15.0829,64.0202,-0.6035,0.0324,-0.4264,322.6875
19:21:28:247,1.9199,-0.431,12.9257,64.2336,0.0696,0.19,-0.273,322.125
19:21:28:267,2.2983,0.2417,9.9141,64.7187,0.6469,0.215,-0.0122,322.0781
19:21:28:288,3.0619,1.2377,7.8574,64.9779,0.8534,0.1118,0.1209,321.8906
19:21:28:307,3.4475,1.9271,6.4519,65.1031,0.7074,0.0825,0.0043,321.6562
19:21:28:328,2.9495,2.1188,5.6333,65.1215,0.3457,0.1857,-0.3054,321.6562
19:21:28:349,1.7644,1.7979,5.3028,65.4905,-0.0599,0.306,-0.6341,321.4375
19:21:28:369,0.6607,1.3454,5.7147,65.4234,-0.3763,0.3195,-0.8057,321.4375
19:21:28:391,0.1938,1.3214,6.5049,65.4383,-0.5168,0.2388,-0.7807,321.1875
19:21:28:407,0.3808,1.7692,7.2685,65.5629,-0.4826,0.1051,-0.6707,321.1875
19:21:28:428,0.7445,2.2696,7.4623,65.7051,-0.3402,-0.0031,-0.6047,320.7031
19:21:28:447,0.7971,2.5355,7.0914,65.9751,-0.2144,-0.0611,-0.6218,320.7031
19:21:28:467,0.6057,2.703,7.0098,66.1352,-0.2333,-0.0983,-0.6719,320.75
19:21:28:495,0.4908,2.8011,7.9627,66.6416,-0.3799,-0.1203,-0.6921,320.75
19:21:28:509,0.6009,2.8274,9.143,67.0031,-0.4936,-0.0812,-0.6658,321.5625
19:21:28:530,0.5411,2.8418,9.7726,67.459,-0.4893,0.0104,-0.6341,321.6406
19:21:28:547,0.6057,2.8585,9.9835,67.5767,-0.4355,0.0928,-0.5791,321.875
19:21:28:567,0.5267,3.0404,10.5413,67.9599,-0.4239,0.1326,-0.5143,321.9062
19:21:28:593,-0.1029,3.5001,12.047,68.2432,-0.2285,0.0605,-0.3604,321.7344
19:21:28:609,-0.012,3.3446,12.1549,68.3419,-0.0073,0.0452,-0.2602,321.7188
19:21:28:630,0.3114,3.402,12.3488,68.8214,0.1466,0.0794,-0.1539,322.5781
19:21:28:647,0.5267,3.6269,12.1549,68.7756,0.2566,0.1393,-0.0983,322.6562
19:21:28:667,0.4789,3.4881,11.554,68.8363,0.3152,0.1729,-0.1252,324.1719
19:21:28:687,0.0742,3.1627,10.9795,68.8246,0.2627,0.1729,-0.1747,324.3125
19:21:28:708,-0.4286,2.9758,10.9531,69.3473,0.1106,0.1319,-0.1888,325.5781
19:21:28:729,-0.5339,2.5834,11.4724,69.3913,-0.0666,0.0159,-0.171,325.7031
19:21:28:750,-0.3353,1.8697,12.8516,69.3219,-0.2181,-0.2095,-0.1509,327.0156
19:21:28:767,-0.4334,0.8979,15.3652,69.5467,-0.215,-0.4087,-0.1222,327.1406
19:21:28:790,-1.1061,-0.0311,15.303,69.6619,0.1936,-0.2199,0.0043,328.6562
19:21:28:809,-1.5969,-0.1484,11.5253,69.8823,0.8601,0.1881,0.2639,329.9688
19:21:28:828,-1.5443,0.3999,7.9244,69.8676,1.2736,0.2004,0.54,329.9688
19:21:28:850,-0.5483,1.1874,6.6604,69.9602,1.1838,-0.0812,0.7434,330.9844
19:21:28:869,0.7947,1.9199,7.1034,69.9383,0.7575,-0.212,0.7941,330.9844
19:21:28:893,1.5323,2.1882,7.8359,69.8369,0.3115,-0.0935,0.6115,331.6562
19:21:28:907,1.3334,1.8673,7.9986,69.9507,0.0232,0.113,0.3042,331.6562
19:21:28:929,0.3616,1.3956,7.721,70.0445,-0.0996,0.226,0.0556,331.9219
19:21:28:948,-0.7445,0.9003,8.0273,69.9959,-0.1191,0.1203,-0.014,331.9219
19:21:28:968,-0.8091,0.7229,8.9635,70.1561,-0.047,-0.0623,0.1264,332.2188
19:21:28:988,-0.1986,1.3119,9.0042,70.0144,0.1411,-0.0684,0.3482,332.2188
19:21:29:010,0.1771,2.0949,8.1808,70.0841,0.347,0.0782,0.4704,332.5781
19:21:29:028,0.2827,2.6001,6.737,70.0225,0.4526,0.2682,0.4905,332.6094
19:21:29:048,0.055,3.0763,5.5352,70.1847,0.4154,0.3311,0.4374,332.9375
19:21:29:068,-0.0526,3.5001,5.018,70.2343,0.2419,0.237,0.3573,332.9688
19:21:29:094,0.201,3.5695,7.3068,70.0269,-0.4203,0.0684,0.1527,332.7344
19:21:29:109,-0.0431,3.2847,8.9683,70.0964,-0.6652,0.1002,0.0647,332.7031
19:21:29:130,-0.0981,3.0571,10.7949,70.2164,-0.6964,0.0226,0.0452,331.4844
19:21:29:148,0.1531,2.8896,11.7814,70.462,-0.5101,-0.0898,0.0782,331.3594
19:21:29:167,0.5483,2.6815,11.889,70.5426,-0.2492,-0.1997,0.1112,330.0156
19:21:29:187,1.2209,2.3964,11.7861,70.3043,-0.088,-0.3091,0.1307,329.875
19:21:29:208,1.6687,2.1165,12.0712,70.2707,-0.102,-0.3384,0.1155,329.4531
19:21:29:227,1.5826,1.9944,12.2195,70.1685,-0.215,-0.1845,0.0922,329.4219
19:21:29:248,1.4749,2.1332,11.901,70.346,-0.284,-0.0055,0.1081,329.2812
19:21:29:321,1.8434,2.2624,11.6019,70.186,-0.259,-0.0116,0.1497,329.2812
19:21:29:322,2.5618,2.2313,11.5373,69.7892,-0.1955,-0.1454,0.1539,328.3906
19:21:29:322,3.2082,1.8242,11.6378,69.8247,-0.1564,-0.2822,0.066,327.2969
19:21:29:328,3.1149,1.1109,11.8531,69.626,-0.16,-0.3341,-0.091,327.2969
19:21:29:348,2.3868,0.7612,11.9417,69.6833,-0.1643,-0.2504,-0.2016,326.5469
19:21:29:368,1.963,0.5124,11.5564,69.6195,-0.0971,-0.1344,-0.201,326.5469
19:21:29:390,2.2146,0.3162,11.0536,69.7281,0.0116,-0.1271,-0.1326,326.25
19:21:29:407,2.7508,0.4478,10.8404,69.3986,0.0831,-0.1894,-0.0599,326.25
19:21:29:428,3.1866,0.7158,10.582,69.3736,0.0922,-0.1655,-0.0452,326.0938
19:21:29:447,3.2058,0.8859,10.0122,69.3436,0.0647,-0.0324,-0.1124,326.0938
19:21:29:467,2.6647,1.051,9.1884,69.0208,0.0379,0.1356,-0.2126,325.8906
19:21:29:488,1.9343,1.1898,8.2119,68.8497,0.0678,0.2364,-0.2749,325.8906
19:21:29:508,1.4103,1.3071,7.0723,68.7277,0.1649,0.2437,-0.2828,325.7344
19:21:29:527,1.2688,1.5514,6.0811,68.4775,0.2559,0.1558,-0.2559,325.7344
19:21:29:547,1.4725,1.9175,5.339,68.207,0.2608,0.0373,-0.2456,325.4688
19:21:29:567,1.5203,2.2887,4.975,68.175,0.1509,-0.0983,-0.2969,325.4375
19:21:29:591,1.6663,2.6145,5.5543,67.8578,-0.0385,-0.3176,-0.3903,325.2812
19:21:29:608,1.2353,2.7102,7.9149,67.8818,-0.4056,-0.6005,-0.6457,325.25
19:21:29:629,0.7564,2.6169,9.5094,67.4506,-0.5992,-0.4569,-0.6646,325.6094
19:21:29:647,0.6511,2.5307,10.558,67.4085,-0.664,-0.2126,-0.5559,325.6562
19:21:29:667,0.6105,2.7628,11.013,67.0844,-0.576,0.0055,-0.3787,326.0156
19:21:29:687,0.9553,3.4307,11.2953,67.0516,-0.4294,0.1381,-0.1668,326.0469
19:21:29:707,1.0343,4.3884,11.1613,66.9719,-0.273,0.2779,-0.0318,326.2031
19:21:29:727,0.8931,5.1473,10.7662,66.8312,-0.16,0.438,-0.0024,326.2188
19:21:29:747,0.8812,5.2669,10.7255,66.598,-0.1203,0.5217,-0.0324,326.5312
19:21:29:767,0.9147,5.0611,11.7048,66.2663,-0.1264,0.4752,-0.0928,326.5625
19:21:29:788,0.9458,4.7979,12.7104,66.396,-0.0464,0.4172,-0.1686,327.0625
19:21:29:807,0.8258,4.3382,12.6673,66.1284,0.1607,0.3971,-0.2737,327.625
19:21:29:827,0.3688,3.7851,11.4389,66.1984,0.3799,0.3048,-0.3824,327.625
19:21:29:848,0.0885,3.4881,10.8093,65.808,0.3903,0.0098,-0.4502,328.4531
19:21:29:867,0.3401,3.0667,12.0494,65.4014,0.0635,-0.2877,-0.4991,328.4531
19:21:29:891,0.6535,1.7931,14.7667,64.9169,-0.3726,-0.3366,-0.5699,329.875
19:21:29:908,0.5124,-0.1603,16.6319,64.3798,-0.4697,-0.1032,-0.5876,329.875
19:21:29:927,-0.711,-1.2903,16.165,63.871,-0.0434,0.2553,-0.4038,331.3125
19:21:29:947,-1.4653,-1.0893,12.5043,63.0609,0.7397,0.6249,0.0312,331.3125
19:21:29:967,-1.4198,-0.1699,8.1808,62.6496,1.4258,0.6328,0.474,331.9062
19:21:29:987,-0.8477,1.0104,5.6979,62.0443,1.6048,0.2749,0.7355,331.9062
19:21:30:008,0.2082,2.0375,5.2143,61.6909,1.3042,-0.0629,0.7886,331.8906
19:21:30:027,1.0032,2.2959,5.6572,61.1561,0.7898,-0.1252,0.6115,331.8906
19:21:30:047,0.8548,1.9439,6.1983,60.8086,0.3073,-0.0348,0.3091,331.9062
19:21:30:067,-0.0479,1.2616,6.792,60.5959,-0.0312,0.0373,0.0489,331.9062
19:21:30:088,-0.766,0.8429,7.2589,60.1563,-0.2401,0.0819,-0.0312,332.2812
19:21:30:111,-1.4581,0.9769,8.1855,59.896,-0.2914,0.168,0.1723,332.3125
19:21:30:130,-1.1515,1.1779,7.8503,59.363,-0.124,0.223,0.3286,333.1406
19:21:30:148,-0.6846,1.6807,6.9212,58.8258,0.0641,0.2407,0.4416,333.2188
19:21:30:166,-0.3185,2.1882,6.0858,58.1126,0.1295,0.2242,0.463,334.3438
19:21:30:187,-0.2106,2.6719,5.9566,57.7184,0.0177,0.1894,0.4044,334.4531
19:21:30:211,-0.2489,2.9997,6.6365,57.3154,-0.1796,0.1423,0.3085,335.4219
19:21:30:228,0.0048,2.9566,7.7067,56.9469,-0.339,0.0959,0.2242,335.5156
19:21:30:249,0.1962,3.0547,8.9109,56.6407,-0.4496,0.1118,0.1552,334.9688
19:21:30:268,0.134,3.2154,10.1318,56.6202,-0.4917,0.1381,0.0745,334.9062
19:21:30:294,-0.0072,3.1101,10.905,56.3113,-0.3971,0.0586,-0.022,333.4531
19:21:30:308,0.1005,2.7365,10.9651,55.8295,-0.2834,-0.0513,-0.0898,332.3594
19:21:30:328,0.5626,2.4299,11.2379,55.6207,-0.3812,-0.0281,-0.1191,332.3594
19:21:30:347,0.6679,2.2624,11.9943,55.3341,-0.6927,0.2071,-0.1539,332.2969
19:21:30:367,0.3951,1.8912,12.8468,54.9759,-0.9774,0.5308,-0.1808,332.2969
19:21:30:389,0.6009,1.6161,13.2826,54.8675,-1.0213,0.6909,-0.1216,332.0156
19:21:30:409,1.2401,1.8984,13.2778,54.6425,-0.8118,0.5473,-0.0293,332.0156
19:21:30:429,1.561,2.0183,12.9999,54.0129,-0.5052,0.2401,-0.0531,331.0938
19:21:30:449,1.5156,1.4821,13.0382,53.6656,-0.2669,-0.0263,-0.179,331.0938
19:21:30:468,0.9793,0.7181,12.9832,53.6359,-0.0965,-0.1063,-0.3048,330.0781
19:21:30:493,0.2249,0.268,12.4229,53.4226,0.0837,-0.0183,-0.3378,330.0781
19:21:30:510,0.2082,0.1962,10.6609,52.7634,0.2895,0.1038,-0.2437,329.4219
19:21:30:528,0.7445,0.4214,9.5836,52.0682,0.3879,-0.0092,-0.1393,329.4219
19:21:30:550,1.4677,0.8306,9.7846,51.3194,0.3409,-0.2541,-0.1063,329.125
19:21:30:568,1.9128,1.0893,10.4049,51.0009,0.2486,-0.35,-0.1716,329.0938
19:21:30:589,1.561,1.1324,10.1629,50.7991,0.1778,-0.1857,-0.3085,329.1719
19:21:30:610,0.917,1.0798,9.5453,50.3828,0.1142,0.0538,-0.4117,329.1875
19:21:30:631,0.4621,1.1133,8.9803,49.8007,0.1649,0.1924,-0.3867,329.3906
19:21:30:649,0.0383,1.2879,8.432,49.4723,0.281,0.1607,-0.3231,329.4062
19:21:30:667,-0.0574,1.7429,7.0244,49.2621,0.4001,0.1252,-0.27,329.4844
19:21:30:689,0.0383,1.9992,6.3826,49.3335,0.441,0.0892,-0.2504,329.5
19:21:30:709,0.3425,2.2887,6.1313,49.0784,0.3604,0.0861,-0.2468,329.4375
19:21:30:729,0.6057,2.5881,6.3036,48.4504,0.2046,0.0855,-0.2755,329.4375
19:21:30:747,0.6296,2.7365,6.859,48.0087,0.0641,0.0165,-0.3409,329.8906
19:21:30:766,0.2489,2.5427,7.8526,47.5899,-0.0128,-0.1399,-0.3964,329.9531
19:21:30:789,-0.1364,2.4203,8.7242,47.3512,-0.0049,-0.2877,-0.3561,330.5469
19:21:30:811,-0.1723,2.4873,9.6984,46.9518,0.066,-0.4215,-0.2187,330.9531
19:21:30:829,0.2034,2.6719,10.2658,46.5443,0.168,-0.4294,-0.0525,330.9531
19:21:30:848,0.3712,3.1603,9.9117,46.0722,0.2272,-0.2529,0.0794,331.5625
19:21:30:868,0.6057,3.7158,9.6577,45.785,0.1991,-0.1252,0.1771,331.5625
19:21:30:893,1.1515,4.1919,10.1653,45.6193,0.1381,-0.1576,0.223,332.4688
19:21:30:908,1.4294,4.453,11.0058,45.2612,0.0904,-0.1912,0.1698,332.4688
19:21:30:928,1.2736,4.3837,11.1661,45.0893,0.0611,-0.0941,0.047,333.2344
19:21:30:948,0.8402,4.046,11.391,44.7217,0.025,-0.0507,-0.077,333.2344
19:21:30:969,0.189,3.8163,12.0135,44.357,0.0067,-0.1374,-0.1607,333.8594
19:21:30:992,-0.3185,3.5575,11.8962,43.9449,0.0373,-0.1655,-0.1826,333.8594
19:21:31:010,-0.2536,3.122,11.7335,43.5455,0.0226,-0.1814,-0.1643,334.4062
19:21:31:029,-0.0431,2.4443,12.2483,43.1743,-0.0709,-0.2492,-0.1729,334.4531
19:21:31:048,-0.498,1.4653,13.9385,42.7664,-0.1368,-0.3537,-0.2077,335.2812
19:21:31:069,-1.142,0.6272,14.8193,42.2936,0.0293,-0.2511,-0.1344,335.2812
19:21:31:094,-1.7094,0.3305,12.0927,41.6751,0.4844,0.0837,0.0623,335.9375
19:21:31:111,-1.9606,0.553,8.6186,41.3985,0.8729,0.1307,0.2834,336
19:21:31:130,-0.7516,1.4174,6.8207,40.765,0.6108,-0.3897,0.5956,336.0781
19:21:31:150,-0.0239,1.7094,7.7737,40.5614,0.1961,-0.3812,0.5919,336.0938
19:21:31:168,0.3568,1.628,8.645,40.1885,-0.1716,-0.1533,0.5137,335.75
19:21:31:195,0.5674,1.6352,9.3227,39.9538,-0.4258,0.1429,0.4514,335.7188
19:21:31:209,0.3568,1.841,9.8207,39.6106,-0.5143,0.3836,0.4233,335.5312
19:21:31:228,0.2369,2.0231,9.926,39.4404,-0.3818,0.5015,0.4655,335.5156
19:21:31:247,0.9434,2.3438,9.131,39.4147,-0.0354,0.452,0.5852,335.7656
19:21:31:267,1.5323,2.8753,7.7785,39.0761,0.3329,0.3042,0.6451,335.7969
19:21:31:290,1.8601,3.4857,6.5599,38.9436,0.4991,0.1784,0.5937,336.1875
19:21:31:310,1.8817,3.8952,5.8678,38.7273,0.449,0.0733,0.4514,336.7188
19:21:31:389,1.561,4.0747,5.9638,38.6364,0.2853,-0.0666,0.2486,336.7188
19:21:31:390,1.0558,3.6559,7.0122,38.3213,0.0922,-0.1979,0.0483,336.8438
19:21:31:390,0.687,3.2847,8.0943,38.0911,-0.0647,-0.2156,-0.0647,336.8438
19:21:31:390,0.3568,3.2393,8.8965,37.7249,-0.1564,-0.1564,-0.1038,336.0938
19:21:31:409,-0.0455,3.4642,9.3754,37.3438,-0.1936,-0.08,-0.1118,336.0938
19:21:31:428,-0.1699,3.5312,9.9356,37.0316,-0.1991,-0.1008,-0.1075,334.9531
19:21:31:447,0.1436,3.2919,10.8308,36.8528,-0.1472,-0.2908,-0.0947,334.9531
19:21:31:467,0.7038,3.0236,11.8029,36.5346,-0.0745,-0.5217,-0.091,333.875
19:21:31:492,1.0606,2.6336,12.9138,36.0112,-0.0623,-0.6096,-0.1222,333.875
19:21:31:508,0.8668,2.059,13.5888,35.6986,-0.0715,-0.4569,-0.1442,332.7188
19:21:31:528,0.4956,1.6759,13.0645,35.7161,-0.0031,-0.1997,-0.0672,332.7188
19:21:31:548,1.0199,2.0183,12.2219,35.7473,0.1155,-0.1008,0.1191,331.2656
19:21:31:568,2.2002,2.4538,11.889,35.5383,0.179,-0.1222,0.2602,331.2656
19:21:31:591,3.2632,2.6623,11.3599,35.458,0.1625,-0.0806,0.2388,330.2188
19:21:31:607,3.4953,2.339,11.3862,35.3952,0.0568,0.0037,0.055,330.1094
19:21:31:628,3.0284,1.9032,11.4389,35.403,-0.0214,0.1631,-0.1399,329.8594
19:21:31:648,2.3533,1.4916,9.9882,35.2727,0.0599,0.2908,-0.2572,329.8438
19:21:31:668,2.6623,1.3406,9.3682,35.3915,0.091,-0.0495,-0.223,330.0469
19:21:31:691,2.9662,1.4844,9.0473,35.1894,0.0525,-0.1014,-0.2419,330.0781
19:21:31:708,2.7197,1.5491,8.5086,35.1048,-0.0599,-0.0024,-0.3396,330.3125
19:21:31:727,2.071,1.4079,8.1377,34.9746,-0.2358,0.1643,-0.4478,330.3281
19:21:31:748,1.3454,1.3382,8.1927,34.7939,-0.3488,0.2474,-0.4789,330.625
19:21:31:766,0.9745,1.4701,8.0632,34.5558,-0.306,0.2352,-0.4294,330.6562
19:21:31:788,0.8859,1.7046,7.4839,34.4913,-0.1521,0.1979,-0.3518,331.0625
19:21:31:808,1.0319,2.0375,6.6796,34.6778,-0.0171,0.1698,-0.2871,331.1094
19:21:31:827,1.197,2.4275,6.0763,34.429,0.0098,0.1313,-0.2676,331.1094
19:21:31:847,1.1539,2.8178,6.0978,34.3092,-0.0776,0.0727,-0.3024,330.5938
19:21:31:867,1.2281,2.9806,6.658,34.3125,-0.1906,-0.0305,-0.3525,330.5938
19:21:31:888,1.3334,3.0715,7.8,34.588,-0.2761,-0.1564,-0.3971,330.6562
19:21:31:907,1.386,3.2034,8.8965,34.7462,-0.3109,-0.1997,-0.4258,330.6562
19:21:31:927,1.3167,3.3494,9.6912,34.9129,-0.2902,-0.1747,-0.4502,331.1719
19:21:31:947,0.9529,3.4379,10.2251,35.0524,-0.2346,-0.1283,-0.4526,331.1719
19:21:31:967,0.4119,3.591,10.9484,35.146,-0.1723,-0.0611,-0.3983,331.6562
19:21:31:987,0.2106,3.9048,11.6737,35.3254,-0.0806,0.0898,-0.2431,331.7031
19:21:32:007,0.376,4.386,11.7287,35.4451,0.08,0.2853,-0.0373,332.5469
19:21:32:027,0.7875,4.7043,11.3551,35.6609,0.2645,0.4074,0.1503,332.5469
19:21:32:047,1.7094,4.7931,11.4078,35.7791,0.4221,0.317,0.3036,333.4531
19:21:32:067,2.3533,5.0635,11.5923,35.919,0.5705,0.1448,0.3409,333.4531
19:21:32:088,2.059,4.884,10.8787,35.9226,0.7006,0.0379,0.2132,334.0312
19:21:32:108,1.2879,4.1704,10.0026,35.7346,0.6988,-0.0269,0.0489,334.0938
19:21:32:127,0.8716,3.845,9.7511,35.6772,0.5357,-0.0721,-0.0165,334.6406
19:21:32:147,0.6607,3.8569,9.3132,35.6787,0.3042,-0.0324,-0.0513,334.6875
19:21:32:168,1.1611,2.6791,11.5134,35.7668,0.0147,-0.0819,-0.1497,335.4531
19:21:32:192,0.1866,1.7094,13.462,35.6025,-0.3763,-0.2889,-0.4954,335.5312
19:21:32:208,-1.3765,0.5698,12.4253,35.6519,-0.0495,-0.1662,-0.5345,336.4219
19:21:32:227,-2.4945,-0.0646,9.6601,35.7359,0.3775,-0.1399,-0.3653,336.5156
19:21:32:247,-2.3462,0.3257,8.231,36.0482,0.4655,-0.3396,-0.0281,337.3906
19:21:32:267,-0.9649,1.1013,8.6737,36.2485,0.2205,-0.4514,0.2798,337.4688
19:21:32:288,0.3162,1.5275,9.6075,36.3304,-0.0812,-0.3005,0.3659,337.7188
19:21:32:311,0.7134,1.6902,9.6171,36.546,-0.2517,0.0214,0.2639,337.2344
19:21:32:329,0.4023,1.6878,8.9061,36.7342,-0.3146,0.3024,0.1142,337.2344
19:21:32:348,-0.5148,1.506,8.3602,36.882,-0.3354,0.4184,0.0195,336.5938
19:21:32:367,-0.8043,1.2425,8.5325,36.9038,-0.2694,0.3176,0.0757,336.5938
19:21:32:389,-0.498,1.4557,8.3363,36.8735,-0.0745,0.1808,0.2321,336.625
19:21:32:410,-0.1244,2.0614,7.6469,36.9425,0.1124,0.1539,0.3573,336.625
19:21:32:429,0.1795,2.5953,6.938,36.9762,0.1674,0.2187,0.4172,336.875
19:21:32:448,0.3329,3.2106,6.6532,37.0243,0.1075,0.2682,0.419,336.875
19:21:32:468,0.3999,3.766,6.8064,37.0557,0.0098,0.2346,0.3653,336.875
19:21:32:488,0.3688,3.8665,7.357,37.1756,-0.0715,0.1326,0.2578,337.8281
19:21:32:509,0.1436,3.6655,7.9173,37.1505,-0.1106,0.0434,0.1533,337.8438
19:21:32:529,0.0814,3.6679,8.5851,37.0836,-0.1454,-0.0049,0.1173,338.8906
19:21:32:548,0.1627,3.7349,9.5716,37.1159,-0.1723,-0.0373,0.1063,338.7812
19:21:32:568,0.2874,3.7971,10.7949,37.0418,-0.1277,-0.0971,0.0983,338.7812
19:21:32:588,0.4478,3.7588,11.0704,37.2771,0.0305,-0.1765,0.0941,338.1875
19:21:32:610,0.6009,3.4929,10.9843,37.3916,0.1558,-0.2871,0.0764,338.125
19:21:32:629,1.0343,3.2465,11.8555,37.4793,0.1087,-0.3738,0.0739,337.8594
19:21:32:649,1.2568,2.9853,12.7917,37.5697,0.011,-0.2669,0.0684,337.8438
19:21:32:668,1.2114,2.837,12.6239,37.7925,-0.0079,-0.022,0.077,337.4375
19:21:32:691,1.8027,3.6655,11.1972,37.8866,-0.0287,0.0965,0.182,337.4062
19:21:32:711,2.6958,3.8043,11.5947,38.0129,-0.1539,-0.0263,0.1405,336.5938
19:21:32:729,3.4164,3.1029,12.4253,38.0804,-0.3219,-0.0538,-0.025,336.5
19:21:32:748,3.3135,2.2768,13.5625,38.0697,-0.4618,0.0299,-0.2523,335.6562
19:21:32:767,2.0901,1.4653,13.8811,38.1722,-0.3897,0.2572,-0.4429,335.5625
19:21:32:788,0.8501,0.711,11.8149,38.3497,-0.0318,0.5382,-0.4508,335.1094
19:21:32:811,0.4717,0.8115,9.2267,38.2529,0.3225,0.5473,-0.2657,334.8438
19:21:32:829,0.6416,1.5682,7.812,38.2381,0.4166,0.3219,-0.0446,334.8438
19:21:32:848,1.5227,2.2457,7.6923,38.3815,0.2547,0.1362,0.1081,334.6406
19:21:32:868,2.4897,2.4371,7.8646,38.6111,0.0171,0.1002,0.0812,334.6406
19:21:32:889,2.5594,2.2217,7.934,38.7199,-0.1888,0.19,-0.1332,334.5938
19:21:32:909,1.6424,1.8242,7.9843,38.9433,-0.3622,0.3305,-0.3592,334.5938
19:21:32:930,0.4525,1.6759,8.3076,39.1062,-0.4209,0.372,-0.4447,334.4844
19:21:32:949,-0.2249,1.6615,8.7194,39.1713,-0.2883,0.2914,-0.3647,334.4844
19:21:32:968,0.0622,1.7333,8.7218,39.1471,0.0073,0.146,-0.1784,334.4844
19:21:32:995,0.7421,2.2648,7.6756,38.9271,0.317,0.0959,-0.0049,334.0938
19:21:33:009,1.2162,2.7556,6.8327,38.9656,0.4306,0.0928,0.0574,333.9688
19:21:33:029,1.5443,3.3087,6.4618,38.7105,0.3439,0.1356,0.0318,333.9688
19:21:33:049,1.4749,3.8641,6.5384,38.7306,0.1509,0.19,-0.0696,334.6562
19:21:33:069,1.4844,3.9574,7.4767,38.5903,-0.0562,0.1655,-0.1924,334.6562
19:21:33:095,1.4701,3.7588,8.6928,38.4079,-0.1698,0.1271,-0.2926,335.2969
19:21:33:110,1.185,3.6894,9.696,38.4007,-0.1729,0.1209,-0.3537,335.2969
19:21:33:129,1.0271,3.6511,10.5676,38.6705,-0.0837,0.1081,-0.3659,335.2031
19:21:33:148,0.4789,3.7971,10.7423,39.2662,0.0672,0.1778,-0.361,335.1875
19:21:33:168,-0.2489,4.0029,10.2084,39.2551,0.1875,0.336,-0.3207,335.1875
19:21:33:190,0.0407,3.9981,9.9571,39.3571,0.2395,0.2724,-0.1411,335.1875
19:21:33:211,0.486,4.2497,10.8882,39.6944,0.1942,0.1087,-0.1338,335.8594
19:21:33:229,0.1268,4.4243,11.5373,39.5438,0.1411,0.1332,-0.2364,335.9219
19:21:33:249,-0.8883,4.1465,11.4413,39.6266,0.1539,0.2566,-0.3512,336.3906
19:21:33:267,-1.8769,3.8737,10.0457,39.7164,0.2584,0.2663,-0.3598,336.4375
19:21:33:287,-2.1404,3.8474,8.9994,39.7176,0.2419,0.0959,-0.259,336.4062
19:21:33:312,-1.5467,3.2656,9.5022,39.5647,-0.0031,-0.1466,-0.1527,336.4375
19:21:33:329,-0.9697,2.1547,11.7957,39.7254,-0.2676,-0.3586,-0.1118,336.4375
19:21:33:349,-1.3023,1.331,13.5434,39.8052,-0.2376,-0.2975,-0.0678,336.8594
19:21:33:368,-2.4706,1.2592,11.8484,39.5602,0.1448,0.0928,0.088,336.8594
19:21:33:394,-2.9399,2.0375,8.3889,39.9252,0.5675,0.27,0.3402,337.6406
19:21:33:458,-2.7317,2.5881,6.591,39.9815,0.6677,-0.0336,0.5168,337.6406
19:21:33:458,-1.5132,2.8298,6.5527,40.0067,0.4203,-0.3604,0.6072,338.2656
19:21:33:459,-0.3855,2.6647,8.0632,40.0685,-0.0189,-0.4636,0.5308,338.3281
19:21:33:467,0.0024,2.1811,9.6075,39.978,-0.4386,-0.2676,0.3256,338.3281
19:21:33:489,-0.4813,1.8242,10.6107,39.9993,-0.6725,0.0452,0.1161,338.6875
19:21:33:508,-1.5323,1.6591,10.5556,40.1451,-0.6182,0.2932,0.0134,339.0781
19:21:33:528,-2.193,1.7022,9.6769,40.2165,-0.3329,0.3573,0.0892,339.0781
19:21:33:547,-1.8003,1.8625,8.6498,40.1131,0.0104,0.2181,0.2737,339.8281
19:21:33:567,-0.8282,2.4012,8.1592,40.3291,0.2285,0.0483,0.4258,339.8281
19:21:33:589,-0.0072,3.1149,8.2454,40.0968,0.2621,0.0629,0.4429,340.3281
19:21:33:610,0.0407,3.3159,7.4551,40.1282,0.2504,0.2792,0.2944,340.3281
19:21:33:629,-0.6942,3.2201,6.5623,40.3609,0.2223,0.4203,0.0739,340.5469
19:21:33:648,-1.5299,2.8729,6.2438,40.2553,0.1582,0.419,-0.0696,340.5625
19:21:33:668,-1.9247,2.5089,6.2653,40.3445,0.0702,0.3665,-0.058,340.1562
19:21:33:688,-1.9128,2.557,6.5767,40.3341,-0.0092,0.2388,0.0538,340.125
19:21:33:709,-0.7349,3.1172,8.7266,40.3972,-0.168,-0.1778,0.201,339.1719
19:21:33:730,-0.7636,3.0141,9.7391,40.1731,-0.2926,-0.2645,0.1527,339.0781
19:21:33:748,-0.984,2.6097,11.1565,40.2538,-0.4441,-0.3201,0.1497,338.2969
19:21:33:767,-0.4501,2.217,12.6072,40.098,-0.5278,-0.3121,0.2853,338.2188
19:21:33:787,0.4382,2.3916,13.1148,40.0397,-0.4783,-0.193,0.4697,337.9219
19:21:33:811,1.3382,3.2608,12.7199,40.0696,-0.369,-0.0593,0.5846,337.4219
19:21:33:828,2.2385,3.8713,12.1884,39.9655,-0.2871,-0.066,0.551,337.4219
19:21:33:847,3.038,3.9287,12.2459,39.9716,-0.2688,-0.2382,0.3586,336.5312
19:21:33:867,2.9327,2.9782,13.3232,39.9761,-0.3128,-0.4117,0.0293,336.5312
19:21:33:889,1.841,1.8529,14.3169,40.1922,-0.3201,-0.3335,-0.248,335.9688
19:21:33:910,0.3903,1.0439,13.6319,40.1365,-0.1289,-0.0214,-0.3164,335.9688
19:21:33:928,0.2058,0.7756,11.0154,40.1978,0.1936,0.2181,-0.1521,335.9531
19:21:33:947,0.8572,1.0439,9.4807,40.3642,0.3317,0.11,0.0476,335.9844
19:21:33:968,2.0782,1.4653,9.4137,40.6328,0.2059,-0.0452,0.1411,335.9844
19:21:33:989,2.5762,1.6161,9.8037,40.5211,-0.0318,0.0079,0.0312,335.6875
19:21:34:008,2.0255,1.2209,9.8877,40.7004,-0.2413,0.2645,-0.1961,335.3281
19:21:34:028,1.1085,0.9242,9.0305,40.502,-0.4038,0.6719,-0.3384,335.3281
19:21:34:048,0.1101,1.1204,8.135,40.349,-0.5076,0.9981,-0.3531,334.8594
19:21:34:068,-0.2321,1.4198,7.2948,40.5646,-0.4636,1.0482,-0.2718,334.8594
19:21:34:088,-0.0646,1.6328,6.536,40.6458,-0.2694,0.7776,-0.1808,333.6562
19:21:34:110,0.2082,2.1069,6.1959,40.6188,-0.0684,0.372,-0.1527,333.6562
19:21:34:129,0.4621,2.6192,6.1002,40.6034,0.0403,0.0788,-0.2126,332.7344
19:21:34:148,0.0335,2.9423,5.971,40.9174,0.0373,-0.0275,-0.3647,332.6562
19:21:34:167,-0.6918,3.0332,6.3036,40.9311,-0.0263,-0.0898,-0.4978,332.9062
19:21:34:189,-1.264,3.038,6.7107,41.4788,-0.0452,-0.1985,-0.5168,332.9375
19:21:34:211,-1.4821,3.2608,7.3953,41.507,-0.0147,-0.3964,-0.4447,333.375
19:21:34:232,-0.632,3.0643,9.8133,41.4161,0.1619,-0.9236,-0.2321,333.4219
19:21:34:248,-0.0885,2.8848,10.5269,41.4762,0.2547,-0.9865,-0.1796,333.2812
19:21:34:266,-0.4478,3.0236,11.4772,41.518,0.1625,-0.7037,-0.1723,333.2656
19:21:34:287,-1.1707,3.1005,11.7909,41.6356,-0.0116,-0.1093,-0.1081,333.3594
19:21:34:310,-1.3836,3.1531,11.6545,41.5662,-0.0904,0.3592,0.0562,333.7656
19:21:34:328,-0.9051,3.4714,11.7957,41.6995,-0.0483,0.4465,0.2462,333.7656
19:21:34:347,-0.2225,3.6799,12.0518,41.3957,0.0238,0.361,0.3415,333.9688
19:21:34:367,0.0526,3.6511,12.1884,41.5933,0.0696,0.2498,0.3158,333.9688
19:21:34:389,-0.3999,3.536,12.2722,41.9281,0.0953,0.1515,0.2272,334.3281
19:21:34:411,-1.1468,3.1531,11.7503,42.012,0.1319,0.1356,0.1631,334.3281
19:21:34:429,-1.8793,2.5929,11.1374,41.8016,0.1668,0.1338,0.1716,334.3438
19:21:34:449,-2.1332,2.0925,11.1135,41.6761,0.2181,0.0122,0.3018,335.2969
19:21:34:467,-1.5634,1.7405,11.4676,41.5397,0.3518,-0.1765,0.5125,335.2969
19:21:34:489,-0.8115,2.016,10.5796,41.3204,0.5589,-0.2376,0.6909,336.4219
19:21:34:509,-0.3329,2.339,8.6976,41.5543,0.6915,-0.2327,0.7489,337.25
19:21:34:528,0.2946,2.5977,7.678,41.5602,0.6157,-0.3854,0.6921,337.25
19:21:34:547,0.553,2.6456,8.1449,41.4809,0.3225,-0.5461,0.5241,337.8906
19:21:34:568,0.2728,2.217,9.3897,41.4557,-0.0593,-0.4685,0.325,337.8906
19:21:34:594,-0.1507,1.8362,10.1653,41.7046,-0.2682,-0.2761,0.2138,337.9062
19:21:34:609,-0.079,1.4438,10.1175,41.5762,-0.1613,-0.2572,0.1973,337.9062
19:21:34:629,0.2656,1.1563,9.361,41.7948,0.0928,-0.3964,0.215,337.1719
19:21:34:647,0.4214,1.2879,9.0066,42.1983,0.182,-0.4508,0.2205,337.1719
19:21:34:667,0.6823,1.6735,9.6984,41.9887,0.0983,-0.2834,0.2046,336.5938
19:21:34:689,0.6559,1.8194,9.8638,41.8925,0.1179,0.0971,0.1381,336.5469
19:21:34:711,0.5052,1.8601,8.8606,41.8022,0.3323,0.4783,0.0776,336.2031
19:21:34:730,0.6703,2.2122,5.607,41.8262,0.7965,0.496,0.0672,336.1719
19:21:34:750,0.7349,3.0981,5.0013,41.8962,0.7764,0.1545,0.0287,335.4375
19:21:34:767,0.3592,3.8928,5.1664,41.9673,0.562,-0.1503,-0.1026,335.3594
19:21:34:789,-0.2417,3.8904,6.4881,42.2099,0.2254,-0.3323,-0.2669,334.0938
19:21:34:811,-0.5483,3.3972,7.946,42.0556,-0.1307,-0.281,-0.3427,332.9688
19:21:34:828,-0.8453,3.3876,8.8989,42.0651,-0.4465,-0.0574,-0.2914,332.9688
19:21:34:847,-0.4525,3.7373,9.9691,42.2808,-0.6493,0.0336,-0.1735,332.875
19:21:34:869,0.2465,3.7134,11.2475,42.2774,-0.7184,-0.0886,-0.1032,332.4062
19:21:34:887,0.9673,3.2536,12.7008,42.2502,-0.7031,-0.2364,-0.1057,332.375
19:21:34:908,1.0439,2.7987,13.5099,42.1915,-0.6127,-0.2272,-0.1356,332.0469
19:21:34:929,0.5865,2.5905,12.5234,42.205,-0.4398,-0.0764,-0.1264,332.0156
19:21:34:947,0.7397,2.8777,10.905,42.012,-0.2932,-0.0941,-0.0501,331.6875
19:21:34:967,1.4028,3.0308,10.5509,41.7789,-0.3506,-0.2932,-0.0232,331.6875
19:21:34:989,1.9439,2.5403,11.6665,41.9178,-0.6334,-0.3781,-0.1075,331.375
19:21:35:010,2.2552,2.1069,13.5553,41.7456,-0.9499,-0.2089,-0.2382,331.125
19:21:35:028,1.9777,1.3502,14.4341,41.8213,-1.0268,0.1875,-0.369,331.125
19:21:35:048,1.0965,0.8402,13.2299,41.7951,-0.8112,0.6047,-0.408,331.3125
19:21:35:067,0.7181,0.7038,12.0111,41.8006,-0.4465,0.6182,-0.2987,331.3125
19:21:35:088,1.6232,0.6559,11.2235,41.9414,-0.0055,0.2517,-0.1203,332.1094
19:21:35:111,2.6073,0.9027,10.3041,41.8372,0.3928,-0.1332,-0.0629,332.1094
19:21:35:128,2.7317,1.2927,9.1932,42.1177,0.543,-0.2248,-0.1888,332.5469
19:21:35:147,2.0327,1.4079,8.3961,42.1074,0.4514,-0.0709,-0.4062,332.5469
19:21:35:168,0.699,1.1946,7.8287,42.1725,0.2877,0.168,-0.5889,332.7188
19:21:35:189,-0.3736,0.929,7.3427,42.2831,0.1839,0.3457,-0.6151,332.7344
19:21:35:211,-0.8234,0.9362,7.0603,42.4273,0.1784,0.3592,-0.4826,332.9688
19:21:35:230,-0.2393,1.8003,6.5097,42.0368,0.3366,0.1655,-0.1515,333
19:21:35:249,0.0861,2.2265,6.0045,42.0335,0.3396,0.0977,-0.1142,333.0938
19:21:35:268,0.2441,2.6527,5.6285,42.1072,0.2028,0.0483,-0.1283,333.0938
19:21:35:288,0.3281,3.213,6.0811,41.9555,-0.0757,-0.0177,-0.1613,333.4375
19:21:35:312,0.1819,3.5767,7.6301,42.055,-0.361,-0.1295,-0.2034,333.4688
19:21:35:328,0.0933,3.457,9.1478,42.0037,-0.5009,-0.1942,-0.2248,334.0469
19:21:35:347,0.376,3.3637,10.1868,41.9345,-0.5015,-0.1875,-0.1961,334.0938
19:21:35:367,0.6607,3.591,10.8332,41.8554,-0.4856,-0.0489,-0.1826,334.4062
19:21:35:389,0.1531,3.7612,11.0106,42.1563,-0.5351,0.2621,-0.2291,334.4219
19:21:35:411,-0.5243,3.4762,11.2116,41.9407,-0.587,0.5119,-0.2401,334.7812
19:21:35:429,-0.498,3.1914,11.3815,41.85,-0.5259,0.5388,-0.1338,334.8281
19:21:35:448,0.5889,3.3589,11.8077,41.8542,-0.3708,0.3793,0.022,335.9531
19:21:35:512,1.4509,3.7732,12.2315,41.6963,-0.1826,0.1881,0.0305,335.9688
19:21:35:513,1.1515,3.5192,11.7239,41.817,0.0098,0.0751,-0.1704,337.1094
19:21:35:513,0.0574,2.7867,10.8643,41.9296,0.0971,-0.0397,-0.3922,337.5938
19:21:35:528,-0.7301,2.2409,10.7447,42.1704,-0.0049,-0.1997,-0.4716,337.5938
19:21:35:548,-1.3741,1.8194,11.554,42.3208,-0.2712,-0.248,-0.4319,337.8906
19:21:35:568,-1.8075,1.3836,12.8396,42.4542,-0.5162,-0.1643,-0.3036,337.8906
19:21:35:588,-1.9463,0.7588,14.2185,42.6836,-0.496,-0.1319,-0.0983,338.2656
19:21:35:610,-1.8793,0.0598,14.5561,42.8684,-0.1142,-0.0996,0.1729,338.2656
19:21:35:628,-1.343,0.0718,12.3153,42.9184,0.5027,0.0299,0.4936,338.6875
19:21:35:649,-0.8258,0.6272,9.0329,42.8332,1.0238,0.0171,0.7269,338.6875
19:21:35:667,-0.189,1.2903,6.9141,42.6362,1.1356,-0.2089,0.8002,339
19:21:35:687,0.5243,1.9534,6.6054,42.4181,0.7862,-0.3891,0.744,339.0156
19:21:35:711,1.0917,2.2337,7.6277,42.2023,0.2315,-0.3586,0.5595,339.1875
19:21:35:728,0.8258,1.8099,8.6952,42.1538,-0.2309,-0.182,0.2883,339.2188
19:21:35:750,-0.6488,1.0989,10.0217,42.178,-0.5021,-0.0867,0.0336,339.0625
19:21:35:769,-1.1324,0.766,10.4695,42.1706,-0.3347,-0.1271,0.1075,339.0312
19:21:35:795,-1.1444,0.6081,10.0289,42.1025,0.0006,-0.0855,0.2798,339.6094
19:21:35:809,-0.486,1.1276,8.7338,42.0759,0.3757,-0.0049,0.4899,339.6562
19:21:35:827,0.0144,1.7333,7.3905,42.3207,0.6334,0.0379,0.5937,340.5781
19:21:35:847,0.2369,2.1811,6.0763,42.4947,0.7196,0.0623,0.584,340.6562
19:21:35:867,0.431,2.7389,5.2837,42.6788,0.6273,0.0189,0.5125,340.9844
19:21:35:890,0.7875,3.3422,5.0085,42.8532,0.4105,-0.055,0.3726,341.0312
19:21:35:912,0.9242,3.6006,5.231,42.6706,0.1045,-0.1008,0.1607,340.4062
19:21:35:928,0.9218,3.4522,6.105,42.5042,-0.2529,-0.1301,-0.0641,340.3438
19:21:35:947,1.252,3.4451,7.515,42.5488,-0.5766,-0.2004,-0.2449,338.9219
19:21:35:967,1.3836,3.3278,9.4926,42.7923,-0.7697,-0.3256,-0.4349,338.9062
19:21:35:989,0.9505,2.8298,11.0321,42.7939,-0.7666,-0.4429,-0.6237,337.6719
19:21:36:011,0.6081,1.9128,12.2746,42.6852,-0.6573,-0.5546,-0.7153,337.2031
19:21:36:028,0.6081,1.0965,13.8236,42.6402,-0.5718,-0.6078,-0.6518,337.2031
19:21:36:048,0.7421,0.8548,14.9441,42.6215,-0.4587,-0.4893,-0.4704,337
19:21:36:068,0.8139,1.0439,14.482,42.6678,-0.2395,-0.2627,-0.2743,337
19:21:36:093,1.1587,1.4127,13.2802,42.8896,-0.0067,-0.1863,-0.11,336.2031
19:21:36:109,2.0782,1.561,12.6649,42.9251,0.1002,-0.281,-0.0055,336.2031
19:21:36:128,3.0643,1.561,12.7965,42.8446,0.0849,-0.3977,-0.0043,335
19:21:36:147,3.3039,1.1228,13.6176,42.8595,0.0061,-0.3903,-0.1344,335
19:21:36:167,2.2839,0.5985,13.6606,42.984,-0.0177,-0.0776,-0.2712,334.1094
19:21:36:189,1.3238,0.3257,12.1382,43.2807,0.168,0.273,-0.2608,334.1094
19:21:36:212,1.1276,0.1914,9.9428,43.5246,0.4734,0.3421,-0.1014,334.0312
19:21:36:228,1.6639,0.644,8.4129,43.4954,0.6695,0.1148,0.1069,334.0312
19:21:36:247,2.6623,1.3836,7.8263,43.6339,0.6469,-0.1472,0.2285,334.6719
19:21:36:269,3.6341,1.7764,7.745,43.7013,0.1527,-0.0757,-0.1399,336.0781
19:21:36:295,2.2313,1.3884,7.3522,43.7702,-0.1124,0.1417,-0.4697,336.0781
19:21:36:311,0.687,0.8907,7.2757,43.8703,-0.2706,0.2095,-0.6396,336.2188
19:21:36:328,-0.1507,0.8186,7.4551,43.9707,-0.2718,0.1179,-0.5821,337.3906
19:21:36:347,0.0431,1.1779,7.2972,43.8335,-0.1545,-0.011,-0.4013,337.5
19:21:36:367,0.6583,1.7142,6.8853,43.5482,-0.0403,-0.099,-0.2651,337.9219
19:21:36:388,1.0869,2.1165,6.7944,43.9347,-0.033,-0.1179,-0.2462,337.9688
19:21:36:410,1.0104,2.5594,6.7657,44.069,-0.1209,-0.0544,-0.2993,338.0312
19:21:36:429,0.632,2.8178,6.9882,44.3739,-0.234,-0.044,-0.3635,338.0469
19:21:36:449,0.5459,2.758,7.8981,44.3064,-0.3268,-0.1246,-0.3708,338.5312
19:21:36:467,0.7732,2.8537,8.9204,44.1254,-0.3757,-0.1655,-0.3183,338.5469
19:21:36:489,0.9458,3.0476,9.6625,44.0443,-0.3964,-0.1069,-0.2669,338.9062
19:21:36:511,1.1013,3.0787,10.6705,44.2529,-0.4013,-0.044,-0.2352,338.6094
19:21:36:529,0.7923,3.0835,11.7191,44.481,-0.3537,0.0397,-0.2144,338.6094
19:21:36:549,0.2297,3.1172,12.0206,44.5354,-0.2114,0.1784,-0.1582,338.6719
19:21:36:568,-0.0646,3.0835,11.6665,44.3657,-0.0287,0.2712,-0.0428,338.6719
19:21:36:589,0.1412,3.1101,12.0736,44.2314,0.0794,0.2517,0.1051,339.8125
19:21:36:610,0.8115,3.1364,12.8731,44.4897,0.1796,0.234,0.234,339.8125
19:21:36:629,1.4055,3.3398,12.6048,44.6585,0.3543,0.2944,0.2749,340.8594
19:21:36:648,1.2808,3.4068,11.3432,44.8448,0.5235,0.3311,0.1949,340.8594
19:21:36:667,0.7923,3.3159,9.9571,44.9067,0.5406,0.2785,0.0721,341.4531
19:21:36:687,0.4765,3.2225,9.562,44.8851,0.3335,0.08,-0.0312,341.4531
19:21:36:710,0.3425,2.5977,11.214,44.8163,-0.0611,-0.171,-0.1271,342.1094
19:21:36:729,-0.0766,1.7572,14.2208,44.8558,-0.4306,-0.2651,-0.1802,342.1719
19:21:36:747,-0.9123,0.8524,16.2966,44.9404,-0.3787,-0.0861,-0.1319,342.8594
19:21:36:768,-1.8051,0.0263,14.4461,44.9499,0.2395,0.237,0.0892,342.9219
19:21:36:790,-0.9888,1.1539,7.8957,45.0021,1.2828,-0.0782,0.7513,343.4062
19:21:36:811,0.3185,1.9848,7.5556,44.7799,1.0867,-0.3066,0.879,343.4531
19:21:36:828,0.9769,2.339,7.6971,44.7165,0.686,-0.212,0.7776,343.7812
19:21:36:847,0.5483,1.7166,7.8407,44.8898,0.3134,0.0006,0.54,343.8125
19:21:36:866,0.134,1.0271,8.0608,44.7722,0.0672,0.1478,0.4148,343.7188
19:21:36:887,0.0431,0.9147,7.9747,44.9681,-0.0024,0.1839,0.4349,343.7188
19:21:36:911,0.1125,1.0893,7.8168,45.0324,0.0373,0.1381,0.496,343.1875
19:21:36:928,0.134,1.2855,7.5628,45.0525,0.1063,0.1106,0.5522,343.1406
19:21:36:949,0.0598,1.4629,7.247,45.1267,0.1973,0.1338,0.5895,342.8906
19:21:36:967,0.4836,1.6448,6.8806,45.4294,0.3445,0.1387,0.6267,342.8594
19:21:36:988,0.8258,2.0901,6.2605,45.3361,0.4905,0.1295,0.6145,343.0625
19:21:37:013,0.7325,2.6695,5.3219,45.2784,0.496,0.1478,0.5357,343.3906
19:21:37:031,0.4741,3.0957,5.2358,45.4063,0.284,0.124,0.419,343.3906
19:21:37:050,0.3832,3.0691,6.6891,45.2839,-0.0531,0.0684,0.3097,342.8281
19:21:37:067,0.6488,3.1484,8.6665,45.3263,-0.2957,0.011,0.2559,342.8281
19:21:37:087,0.8835,3.3015,9.8518,45.4046,-0.3549,-0.0208,0.2095,341.25
19:21:37:110,1.0774,3.1986,10.7423,45.4202,-0.3604,-0.077,0.1539,341.25
19:21:37:127,1.3382,2.9064,11.6713,45.1396,-0.372,-0.1442,0.1216,339.875
19:21:37:148,1.4028,2.7221,12.6912,45.1522,-0.3775,-0.182,0.1118,339.875
19:21:37:168,1.494,2.5403,12.8348,45.1142,-0.3433,-0.1307,0.1448,338.9062
19:21:37:188,1.774,2.5089,12.9066,45.0089,-0.3274,-0.1081,0.223,338.9062
19:21:37:211,2.7748,2.7604,13.2778,44.9219,-0.3225,-0.1631,0.3311,337.8281
19:21:37:229,3.8952,2.9853,13.5123,44.7518,-0.2816,-0.1961,0.3292,337.7188
19:21:37:249,4.4961,2.6862,13.3783,44.3867,-0.2285,-0.1619,0.146,336.4844
19:21:37:268,3.8498,1.6854,13.4883,44.3018,-0.2132,-0.0672,-0.1344,336.3594
19:21:37:290,1.6448,0.7421,11.0919,44.3429,0.1497,0.4019,-0.2278,335.2344
19:21:37:312,1.8386,0.7564,8.4679,44.3244,0.471,0.3848,-0.0641,335.1094
19:21:37:330,2.4897,1.1898,6.859,44.2539,0.5589,0.0996,0.0647,334.3594
19:21:37:347,3.4092,1.7955,6.4304,44.3015,0.3671,-0.1961,0.0672,334.2812
19:21:37:367,3.9191,2.0231,6.8088,44.2694,-0.0037,-0.3005,-0.1332,333.7812
19:21:37:387,3.1938,1.5658,7.8766,44.2034,-0.4062,-0.1881,-0.4612,333.7344
19:21:37:410,1.8673,1.0654,8.42,44.294,-0.6475,0.0434,-0.7,333.4531
19:21:37:429,0.4621,0.6129,8.164,44.1826,-0.6389,0.1961,-0.7581,333.4219
19:21:37:448,-0.2297,0.6727,7.6636,44.0796,-0.4936,0.2034,-0.6041,333.1719
19:21:37:468,0.1819,1.3932,7.1967,43.8988,-0.2999,0.0806,-0.3347,333.1562
19:21:37:489,0.9553,2.0853,6.8542,43.8114,-0.1063,-0.1002,-0.1619,332.5625
19:21:37:511,1.573,2.5089,6.4328,43.675,-0.0086,-0.1924,-0.1515,332.0625
19:21:37:584,1.8242,2.904,6.1122,43.6815,-0.0794,-0.1753,-0.2425,332.0625
19:21:37:585,1.7213,3.2154,6.7872,43.6028,-0.2828,-0.1765,-0.3909,332.5
19:21:37:585,1.3238,3.0667,8.3148,43.6167,-0.4704,-0.2303,-0.5375,332.5
19:21:37:594,0.9338,2.7772,9.6386,43.7956,-0.5308,-0.2474,-0.5999,332.7344
19:21:37:611,1.2138,2.4754,11.0584,43.8937,-0.4728,-0.2804,-0.5638,332.7344
19:21:37:628,1.2233,2.6791,11.9776,43.9623,-0.3427,-0.226,-0.4942,332.6562
19:21:37:647,0.6416,2.9447,12.1597,44.0022,-0.1967,-0.044,-0.4374,332.6562
19:21:37:667,0.146,2.9806,12.0903,43.966,-0.0721,0.1503,-0.3354,333.3594
19:21:37:689,0.1388,2.9279,12.0613,43.8849,0.0299,0.306,-0.1637,333.3594
19:21:37:712,0.565,3.0981,12.2219,44.0476,0.1319,0.3861,0.0293,334.8594
19:21:37:729,0.7636,3.2321,12.4086,44.0874,0.2492,0.4221,0.157,334.8594
19:21:37:749,0.8354,3.2824,11.9776,43.9051,0.3744,0.4752,0.1991,335.7344
19:21:37:768,0.4573,3.0933,11.0513,43.5158,0.4404,0.5204,0.1527,335.8281
19:21:37:788,-0.4334,3.0236,9.9882,43.5248,0.3763,0.5388,0.0867,336.1719
19:21:37:813,-1.4151,2.4514,10.9337,43.2765,-0.0269,0.1704,0.1552,336.2031
19:21:37:831,-0.8139,1.6759,12.8587,42.9936,-0.0922,-0.1271,0.2895,336.8594
19:21:37:847,-0.7277,1.3573,13.9289,42.684,0.088,-0.2492,0.4184,336.9219
19:21:37:866,-0.711,1.439,11.6258,42.327,0.4569,-0.1112,0.5492,338.0625
19:21:37:887,-0.4143,1.64,9.131,41.9963,0.6493,-0.1118,0.6377,338.1719
19:21:37:912,0.3568,2.0279,8.6833,41.7288,0.4807,-0.2987,0.6719,339.25
19:21:37:928,1.0534,2.3294,9.775,41.929,0.1533,-0.3592,0.6017,339.3438
19:21:37:948,1.1587,2.126,10.6442,41.7447,-0.066,-0.2138,0.4288,340.1094
19:21:37:968,0.6894,1.6974,10.4384,41.5618,-0.0586,-0.0275,0.2541,340.1875
19:21:37:989,0.2536,1.2329,9.5405,41.6148,0.1112,0.0336,0.1594,340.2812
19:21:38:010,-0.1316,0.8139,8.4248,41.5861,0.2792,0.0415,0.1497,339.8594
19:21:38:030,-0.4621,0.8234,7.6828,41.5414,0.3268,0.1032,0.2217,339.8594
19:21:38:048,-0.376,1.118,7.0555,41.6391,0.3311,0.1924,0.3409,339.5312
19:21:38:068,-0.134,1.5227,6.5695,41.5342,0.3537,0.2205,0.4306,339.5312
19:21:38:090,0.1316,1.9199,6.2151,41.4573,0.3738,0.2083,0.4728,339.2188
19:21:38:111,0.2946,2.327,5.7864,41.2631,0.3647,0.19,0.4661,339.2188
19:21:38:129,0.3784,2.6384,5.5663,41.327,0.2792,0.1594,0.4111,338.4844
19:21:38:149,0.4382,2.892,6.1863,41.0521,0.0702,0.1319,0.3372,338.4844
19:21:38:168,0.5865,2.9925,7.5652,41.0321,-0.1723,0.1246,0.2602,337.2812
19:21:38:189,0.6799,2.7963,9.1023,40.9743,-0.3085,0.1014,0.1716,337.2812
19:21:38:210,1.0534,2.3821,10.2395,40.7801,-0.3011,0.0513,0.1081,336.0156
19:21:38:228,1.5634,2.3677,10.6131,40.7893,-0.2181,0.0153,0.0672,336.0156
19:21:38:248,1.8147,2.5642,10.558,40.7098,-0.1875,0.0171,-0.0202,335.3438
19:21:38:267,1.6304,2.327,10.85,40.574,-0.2663,0.0244,-0.1576,335.2812
19:21:38:288,1.1707,1.8721,11.3551,40.4071,-0.3799,0.0586,-0.259,334.9688
19:21:38:312,1.2353,1.8577,11.1637,40.5366,-0.4783,0.1069,-0.2114,334.9375
19:21:38:330,1.4486,2.0542,11.135,40.5637,-0.5162,-0.0324,-0.1918,334.375
19:21:38:350,1.7764,1.7524,11.8316,40.3002,-0.5986,-0.2291,-0.2059,334.3281
19:21:38:368,2.3198,1.3095,13.3232,40.0621,-0.7361,-0.3366,-0.2327,333.3906
19:21:38:388,2.581,1.1587,15.2958,39.9574,-0.8185,-0.1863,-0.2792,333.3125
19:21:38:412,2.2026,0.6511,15.0541,39.6173,-0.6243,0.2321,-0.3384,332.4219
19:21:38:428,1.5275,0.3951,12.3248,39.5445,-0.2236,0.5101,-0.3237,332.3281
19:21:38:448,1.3262,0.5267,10.5676,39.525,0.0415,0.3482,-0.2101,331.6719
19:21:38:468,1.817,0.7875,10.8165,39.496,0.1167,-0.0024,-0.0678,331.6094
19:21:38:489,2.2648,0.8429,11.2738,39.5348,0.1808,-0.1509,-0.014,331.2812
19:21:38:510,2.0255,0.9553,9.9715,39.67,0.2975,0.0086,-0.0483,331.1562
19:21:38:529,1.4916,1.0247,8.4129,39.5397,0.3659,0.1478,-0.0959,331.1562
19:21:38:548,1.1683,1.1898,7.302,39.5456,0.3635,0.1668,-0.1142,331.5625
19:21:38:568,0.8282,1.4509,6.4666,39.7303,0.3421,0.1142,-0.1338,331.5625
19:21:38:589,0.51,1.6591,6.05,39.7139,0.2877,0.0336,-0.1649,331.9844
19:21:38:610,0.4693,1.7907,5.9495,39.5714,0.1894,-0.0037,-0.1924,331.9844
19:21:38:629,0.4813,2.059,6.0332,39.396,0.0593,0.0202,-0.2217,332.3906
19:21:38:649,0.5937,2.4347,6.4953,39.2981,-0.0831,0.0525,-0.2529,332.3906
19:21:38:668,0.7588,2.7461,7.3283,39.2417,-0.1967,0.0617,-0.2932,332.9062
19:21:38:689,0.8788,2.9638,8.3411,39.4723,-0.237,0.025,-0.3433,332.9062
19:21:38:712,0.6727,3.0691,9.1693,39.642,-0.2089,-0.0165,-0.3879,333.4531
19:21:38:729,0.6631,2.825,10.0002,39.5619,-0.1576,-0.0605,-0.3867,333.5
19:21:38:748,1.1683,2.6599,10.9385,39.3799,-0.0941,-0.069,-0.3311,333.7656
19:21:38:768,1.3334,2.8178,11.4389,39.6412,-0.025,0.0458,-0.2963,333.7969
19:21:38:790,0.8354,3.0284,11.5158,39.6396,0.0208,0.2419,-0.2895,333.9062
19:21:38:813,0.0837,3.2847,11.4532,39.3118,0.0476,0.4325,-0.2413,333.9062
19:21:38:830,-0.0263,3.4929,11.7191,39.3394,0.2724,0.3329,0.0116,334.1406
19:21:38:851,0.309,3.6631,11.8579,39.177,0.4239,0.1851,0.1093,334.1719
19:21:38:868,0.6153,3.8258,11.6163,38.994,0.5211,0.157,0.1374,334.4844
19:21:38:890,0.352,3.8809,10.8332,38.9569,0.5339,0.2223,0.0721,334.5156
19:21:38:906,-0.1244,3.7301,10.1103,39.3386,0.4368,0.2688,-0.0159,334.9531
19:21:38:928,-0.3688,3.4762,9.9978,39.1531,0.2761,0.2022,-0.0757,335
19:21:38:948,-0.5459,2.8633,10.3472,39.1791,0.1356,-0.0031,-0.1405,335.5156
19:21:38:967,-0.8524,1.8003,11.3504,39.2135,0.0476,-0.2871,-0.2022,335.5625
19:21:38:989,-1.6065,1.0439,12.8539,38.9632,0.0715,-0.4441,-0.1747,336.25
19:21:39:011,-2.3725,0.5291,12.2961,39.2024,0.3176,-0.2419,0.0092,337.1094
19:21:39:032,-2.6551,0.5435,9.4783,39.0545,0.6444,0.0018,0.2932,337.1094
19:21:39:048,-2.1476,1.264,8.0632,39.0239,0.7367,-0.1063,0.5821,337.7188
19:21:39:067,-0.9482,1.8027,7.9986,38.7269,0.5974,-0.2682,0.7642,337.7188
19:21:39:089,-0.2369,1.8649,7.8574,38.6869,0.4062,-0.2419,0.7568,338.0469
19:21:39:112,-0.0407,1.7213,7.4982,38.7896,0.2376,-0.1185,0.6341,338.0469
19:21:39:128,0.0431,1.561,7.0026,38.8399,0.0898,0.0031,0.5052,337.9375
19:21:39:148,-0.2441,1.343,6.8303,39.0701,-0.0599,0.0519,0.3854,337.9375
19:21:39:168,-0.6583,1.0989,7.6804,38.947,-0.204,0.0293,0.3262,337.7812
19:21:39:188,-0.8043,1.1755,8.3052,38.9987,-0.2278,0.0654,0.3702,337.7812
19:21:39:212,-0.8644,1.5634,8.1063,39.0771,-0.1112,0.1478,0.4526,337.875
19:21:39:229,-0.5291,2.0518,7.5269,39.0502,0.0226,0.2095,0.5296,337.8906
19:21:39:249,-0.0981,2.3438,6.8925,39.0385,0.0745,0.2676,0.5492,338.2812
19:21:39:268,0.0598,2.7341,6.3658,38.8635,0.0018,0.3054,0.5027,338.3281
19:21:39:288,0.2728,3.0093,6.3921,38.6431,-0.1833,0.2602,0.4197,338.6094
19:21:39:312,0.4262,2.9853,7.3187,38.6555,-0.4343,0.1417,0.3054,338.6406
19:21:39:330,0.498,2.7485,9.1454,38.5344,-0.6744,0.0293,0.1857,337.9219
19:21:39:351,-0.2154,2.3079,11.9201,38.3439,-0.6835,0.0122,0.0574,337.8438
19:21:39:368,-0.699,1.8936,11.8508,37.9965,-0.449,0.033,0.1124,336.4844
19:21:39:389,-0.4573,1.9247,11.1781,37.9932,-0.2327,0.0018,0.2816,336.3594
19:21:39:411,0.2898,2.2887,11.0082,37.9555,-0.1723,-0.0568,0.4337,335.25
19:21:39:427,1.0941,2.3533,11.5349,37.9656,-0.2358,-0.0684,0.4734,335.1406
19:21:39:447,1.7979,2.1356,11.7168,37.9719,-0.306,-0.0153,0.4215,334.3906
19:21:39:468,2.2863,1.8147,11.5469,37.7279,-0.3897,-0.0214,0.3164,334.3125
19:21:39:490,2.6838,1.427,12.7343,37.6801,-0.5528,-0.1668,0.19,333.4375
19:21:39:510,2.9207,0.9769,14.6949,37.815,-0.6756,-0.2132,0.0696,332.0938
19:21:39:529,2.7221,0.644,15.6383,37.8206,-0.5669,-0.0024,-0.025,332.0938
19:21:39:548,2.1476,0.2994,14.4413,37.8177,-0.2065,0.3366,-0.058,330.9688
19:21:39:569,2.0614,-0.0957,12.4636,37.7171,0.1833,0.5162,0.033,330.9688
19:21:39:589,2.569,0.079,11.0178,37.6276,0.4441,0.4123,0.2004,330.2969
19:21:39:655,3.2632,0.5148,10.1103,37.7228,0.5944,0.157,0.2859,330.2969
