Time,Acc_X,Acc_Y,Acc_Z,Meg,Gyr_X,Gyr_Y,Gyr_Z,Ore
18:38:00:548,-0.4621,0.8402,9.9595,59.721,0.1136,0.0519,-0.1075,40.125
18:38:00:566,-0.9314,0.9936,9.8518,59.8152,0.16,0.0189,-0.0806,40.125
18:38:00:588,-1.0175,1.1468,9.8925,59.7166,0.1833,0.0128,-0.0421,40.125
18:38:00:606,-1.1683,1.319,10.1342,59.9629,0.2126,0.0293,-0.0061,40.125
18:38:00:623,-1.3693,1.5275,10.1845,60.178,0.295,0.0049,0.0214,40.125
18:38:00:644,-1.6543,1.5826,9.9212,60.1159,0.4129,-0.1423,0.0495,40.125
18:38:00:662,-1.5323,1.6878,9.9739,60.354,0.471,-0.3476,0.1246,40.125
18:38:00:685,-1.1348,1.8194,9.9691,60.7545,0.4306,-0.3189,0.234,40.125
18:38:00:701,-0.8788,1.9391,9.7487,60.5599,0.314,-0.1057,0.317,40.125
18:38:00:720,-0.6392,2.0327,9.6506,60.6019,0.1484,0.0959,0.3525,40.125
18:38:00:740,-0.3903,2.0614,9.5118,60.7325,-0.0415,0.2193,0.3543,40.125
18:38:00:759,-0.1675,1.9582,9.5285,60.6142,-0.2046,0.179,0.3036,40.125
18:38:00:779,-0.0263,1.8649,9.7487,60.4366,-0.2889,0.0788,0.215,40.125
18:38:00:797,-0.1196,1.7261,10.1629,60.7325,-0.2963,0.1063,0.1338,40.125
18:38:00:820,-0.1986,1.5586,10.2682,60.6549,-0.2199,0.2443,0.0977,40.125
18:38:00:837,-0.0933,1.5802,10.1055,60.3208,-0.0794,0.3128,0.0898,40.125
18:38:00:856,-0.1484,1.6759,9.8037,60.3717,0.0611,0.2657,0.0336,40.125
18:38:00:873,-0.4525,1.7836,9.3921,60.3987,0.1643,0.0928,-0.047,40.2812
18:38:00:893,-0.7038,1.9753,9.1525,60.234,0.1955,-0.0941,-0.08,40.2812
18:38:00:912,-0.8764,2.0997,9.0951,60.3134,0.1313,-0.1075,-0.0513,40.2812
18:38:00:936,-0.9601,2.071,9.1693,60.3711,0.0189,-0.0086,0.0061,40.2812
18:38:00:950,-0.8668,1.9319,9.3969,60.0071,-0.0611,0.0507,0.0611,40.2188
18:38:00:972,-0.8524,1.8218,9.3706,59.992,-0.0831,0.0611,0.0727,40.2188
18:38:00:989,-1.0247,1.7812,9.3132,59.8075,-0.0666,-0.0177,0.0428,39.7188
18:38:01:009,-1.252,1.8673,9.5572,59.9636,-0.0538,-0.0965,0.022,39.7188
18:38:01:030,-1.2377,1.8601,9.4759,60.0477,-0.0159,-0.0825,0.0586,38.875
18:38:01:048,-0.9817,1.9199,9.0879,60.3545,0.0336,-0.058,0.1155,38.8594
18:38:01:067,-0.8067,1.9848,8.918,60.3604,0.0342,-0.0751,0.1295,38.2188
18:38:01:089,-0.6033,2.0638,9.0879,60.4317,-0.0305,-0.0647,0.1228,38.2031
18:38:01:108,-0.5913,2.1643,9.3419,60.5723,-0.1106,0.0055,0.1032,37.8594
18:38:01:129,-0.6703,2.3749,9.859,60.616,-0.1442,0.0525,0.0696,37.8594
18:38:01:147,-0.7804,2.5953,9.9093,60.7279,-0.0721,0.0483,0.0189,37.6094
18:38:01:169,-1.0534,2.7485,10.0696,60.6389,0.0562,-0.0195,-0.0244,37.6094
18:38:01:189,-1.008,2.9638,10.4192,60.5254,0.1704,-0.0214,-0.0067,37.7656
18:38:01:208,-0.6535,3.0093,10.1127,60.29,0.259,0.1008,0.0238,37.7656
18:38:01:227,-0.4406,2.9877,10.1198,60.2202,0.3146,0.179,-0.0073,37.8438
18:38:01:247,-0.419,2.9303,9.8085,60.215,0.4025,0.0751,-0.0599,37.8438
18:38:01:272,-0.6272,2.7245,9.8877,60.1393,0.4478,-0.1625,-0.1038,37.6719
18:38:01:289,-0.6296,2.4156,9.6841,59.9375,0.4148,-0.3237,-0.1558,37.625
18:38:01:308,-0.4789,2.4491,10.0576,59.9738,0.3183,-0.4111,-0.3079,37.6094
18:38:01:329,-0.4956,2.1021,10.8093,59.9623,0.2474,-0.3586,-0.4233,37.4688
18:38:01:348,0.0191,1.9753,9.4998,59.7844,0.2315,-0.1405,-0.3647,37.4375
18:38:01:369,0.4334,2.0279,8.0847,59.4327,0.1448,-0.3598,-0.3793,37.2188
18:38:01:387,-0.1316,1.8984,8.5899,59.2289,-0.0208,-0.7935,-0.5052,37.1875
18:38:01:408,-0.5148,2.1404,10.1222,59.0289,-0.1008,-0.7324,-0.2651,37
18:38:01:428,0.1196,1.9439,10.1222,59.0251,-0.0892,-0.1271,0.2217,36.9688
18:38:01:449,1.0008,1.6065,10.6561,59.1432,-0.1472,0.3378,0.4765,36.9688
18:38:01:469,1.2664,1.2568,11.2977,59.0797,-0.2059,0.6029,0.4905,36.9688
18:38:01:488,1.2879,1.1731,11.123,58.8736,-0.11,0.4972,0.4276,36.9531
18:38:01:508,1.4509,1.4318,10.3735,58.9542,-0.0012,0.0861,0.2694,36.9531
18:38:01:529,1.1539,1.5682,10.0457,59.1856,-0.0238,-0.1747,0.0562,37
18:38:01:553,0.6894,1.7285,9.859,59.2775,-0.0348,0.0299,-0.0928,37.0156
18:38:01:569,-0.0287,1.6376,8.7314,59.2919,0.0171,0.1124,-0.1344,37.3906
18:38:01:588,0.6057,1.5682,9.3036,59.1751,-0.1942,-0.1655,0.0678,37.4844
18:38:01:607,2.2433,1.4821,10.5987,58.8879,-0.2822,-0.2431,0.033,43.125
18:38:01:628,0.8186,1.3454,10.6011,58.7131,-0.1319,0.0605,-0.4349,43.2656
18:38:01:648,-0.4334,1.3884,9.9476,58.661,0.0214,0.3775,-0.4936,44.0938
18:38:01:670,-0.1125,1.6448,9.4041,58.5542,0.0727,0.4978,-0.1179,44.1719
18:38:01:688,0.5243,1.8266,8.7434,58.4127,0.0935,0.5314,0.0489,45.1562
18:38:01:707,0.2827,1.9657,8.2525,58.3913,-0.0018,0.5846,-0.025,45.25
18:38:01:728,0.0766,2.0399,7.9579,58.4619,-0.1607,0.5192,-0.0941,44.4688
18:38:01:748,0.4358,2.1069,7.3211,58.4984,-0.3586,0.171,-0.1136,44.4531
18:38:01:771,0.4238,1.9295,8.8534,58.6159,-0.5858,-0.3518,-0.2187,43.2969
18:38:01:787,0.3568,1.8075,9.2315,58.7817,-0.6432,-0.3824,-0.2914,42.9375
18:38:01:809,0.213,1.6161,10.0648,58.8908,-0.6481,-0.427,-0.3604,42.9375
18:38:01:828,0.0718,1.6854,10.2802,59.1671,-0.4734,-0.2682,-0.3494,43.0938
18:38:01:848,0.2704,1.7907,9.6625,59.1541,-0.2327,0.036,-0.2523,43.0938
18:38:01:868,0.1914,1.9175,8.6713,59.0701,-0.0843,0.3164,-0.2236,43.1719
18:38:01:889,0.0431,1.9825,8.7147,58.9985,-0.1289,0.4233,-0.1808,43.1719
18:38:01:908,-0.2512,1.9896,9.2701,58.8883,-0.2083,0.4062,-0.1155,43.625
18:38:01:929,-0.2922,1.9439,9.7128,58.9037,-0.223,0.3653,-0.0128,43.625
18:38:01:947,-0.012,1.8529,10.0385,58.7544,-0.1741,0.3183,0.0183,44.125
18:38:01:972,-1.13,1.992,11.0034,58.8495,-0.1038,0.4178,-0.036,44.1875
18:38:01:989,-1.8218,1.9343,11.3886,58.6911,0,0.7489,0.1539,44.0312
18:38:02:009,-1.1563,1.9558,10.8595,58.726,0.2193,0.9413,0.4313,44.0156
18:38:02:027,-0.3066,2.1165,9.9284,58.829,0.3531,0.9578,0.5039,44.125
18:38:02:050,-0.7062,1.6591,10.0887,58.6816,0.1747,0.474,0.2126,44.125
18:38:02:072,-1.7285,1.3382,10.0002,58.8706,0.0434,0.3378,0.1228,44.6562
18:38:02:089,-1.9729,1.2544,10.1868,58.7174,-0.1283,0.3195,0.157,44.7188
18:38:02:107,-1.5132,1.2185,10.625,58.745,-0.2706,0.3292,0.2242,45.4531
18:38:02:128,-1.051,1.2281,11.001,58.8705,-0.3268,0.3867,0.2199,45.5312
18:38:02:147,-0.9888,1.3143,11.0465,58.7206,-0.3048,0.4019,0.1173,45.9688
18:38:02:172,-1.4222,1.2544,10.8715,58.8139,-0.317,0.4777,-0.1002,46.0156
18:38:02:188,-2.7293,0.9027,9.993,58.6898,-0.5345,0.7361,-0.3512,46.2188
18:38:02:208,-2.77,0.3736,10.7471,58.7497,-0.8301,0.675,-0.3195,46.25
18:38:02:229,-2.7102,-0.0598,11.9704,58.7549,-0.9456,0.5394,-0.2895,46.1562
18:38:02:248,-3.2656,-0.5722,12.1741,58.7023,-0.7556,0.5901,-0.328,46.1562
18:38:02:268,-3.4618,-0.6918,11.3456,59.0321,-0.2816,0.5504,-0.2413,45.9062
18:38:02:287,-3.2034,-0.8139,10.704,58.8498,0.3231,0.179,-0.0825,44.75
18:38:02:357,-2.6599,-0.5459,9.7367,58.8508,0.7978,-0.3195,0.0104,44.75
18:38:02:357,-1.9104,-0.2608,9.1717,58.8394,0.9749,-0.7129,-0.036,44
18:38:02:358,-1.4318,-0.0359,9.4137,58.8485,0.9077,-0.8185,-0.2065,44
18:38:02:374,-2.2816,0.1699,9.186,58.6812,0.7019,-0.4197,-0.358,43.6094
18:38:02:389,-2.4419,0.7899,8.286,58.4932,0.4331,0.1503,-0.2022,43.6094
18:38:02:409,-2.2146,1.13,7.7402,58.4807,0.2889,0.2431,0.0049,43
18:38:02:427,-2.1906,1.0989,7.7689,58.2171,0.1881,0.1087,0.0837,43
18:38:02:450,-1.8434,0.8716,7.5126,58.0619,0.0843,0.0263,0.1619,42.8125
18:38:02:472,-1.2473,0.8453,6.9356,58.1175,0.0018,-0.2077,0.2199,42.8125
18:38:02:489,-1.0558,1.0822,6.9428,58.1646,-0.1252,-0.5901,0.1729,43.2031
18:38:02:507,-1.9992,1.0893,8.8893,57.8354,-0.2932,-0.7642,0.1124,43.25
18:38:02:528,-2.9471,0.1866,8.997,58.006,-0.2785,-0.4655,0.2486,43.5781
18:38:02:550,-0.6464,2.1308,8.2932,57.8953,0.1344,-0.642,0.8753,43.6094
18:38:02:571,-0.3808,2.3749,8.3554,57.8387,0.215,-0.7825,0.7746,43.9062
18:38:02:588,0.0311,2.4084,8.4488,57.7044,0.1686,-0.7862,0.5241,43.9219
18:38:02:607,-0.6129,2.5905,9.5836,57.8476,-0.0122,-0.5925,0.2193,44.2656
18:38:02:627,-1.063,3.0619,9.4998,57.9276,-0.1332,-0.2883,0.0874,44.2969
18:38:02:647,-0.7828,3.7181,9.6697,57.8117,-0.0073,-0.3402,0.099,45.1562
18:38:02:669,-0.0072,2.6695,9.1262,57.8991,0.0904,-0.3005,0.091,45.2344
18:38:02:689,-0.6009,2.5546,9.1502,57.8707,-0.0299,-0.1032,-0.0739,45.5
18:38:02:710,-1.3741,2.4921,10.5915,58.0376,-0.1429,0.0092,-0.2034,45.5312
18:38:02:730,-1.6998,2.2433,10.7471,58.0779,0.0067,0.168,-0.124,45.3125
18:38:02:747,-0.9458,2.4706,10.5413,58.1189,0.2022,0.1851,0.0195,45.2812
18:38:02:770,-0.2106,2.7437,10.2873,57.8871,0.3286,0.1069,0.0458,44.9219
18:38:02:789,-0.754,2.5451,11.1685,57.5965,0.4276,-0.0727,-0.0495,44.5781
18:38:02:809,-1.8338,2.15,10.206,57.4906,0.4209,0.0501,-0.058,44.5781
18:38:02:828,-1.2688,2.0375,9.2459,57.6029,0.0208,0.419,0.1985,43.0469
18:38:02:848,-0.2728,1.051,11.8077,57.51,-0.5669,0.5143,0.3989,43.0469
18:38:02:872,-0.2827,0.1675,13.7806,57.2187,-0.7068,0.4704,0.3457,41.8125
18:38:02:891,0.3114,0.3497,12.6096,57.2597,-0.3867,0.4062,0.2114,41.8125
18:38:02:907,-0.0359,0.2536,11.6641,57.2322,-0.1698,0.4325,-0.0067,41.5469
18:38:02:927,-0.4884,0.0933,11.4556,57.2718,-0.1209,0.5608,-0.179,41.5469
18:38:02:948,-0.8163,0.1603,10.2682,57.2414,0.0189,0.4838,-0.281,41.4062
18:38:02:971,-1.0319,0.3257,9.0018,57.2929,0.0574,0.3237,-0.3146,41.4062
18:38:02:987,-1.2497,0.3233,8.9874,57.3533,-0.1045,0.2107,-0.2657,41.6875
18:38:03:008,-1.1755,-0.0335,10.151,57.3332,-0.3341,0.2291,-0.182,41.7188
18:38:03:028,-0.3066,-0.8019,12.5713,57.4967,-0.4594,0.3409,-0.1515,41.7969
18:38:03:050,0.4454,-0.5267,12.3703,57.4934,-0.3696,0.3793,-0.3347,41.8125
18:38:03:068,-1.6663,0.6344,8.9252,57.4225,-0.4319,-0.2865,-1.0513,41.8594
18:38:03:090,-1.9247,0.6942,10.0409,57.4325,-0.6573,-0.6072,-1.0177,41.8594
18:38:03:108,-1.1085,0.821,10.8619,57.5116,-0.5638,-0.7507,-0.8857,41.7031
18:38:03:128,-1.051,0.9314,10.424,57.3788,-0.0666,-0.7153,-0.8491,41.6875
18:38:03:147,-1.4916,1.0439,9.2435,57.2682,0.4728,-0.4117,-0.744,40.75
18:38:03:170,-1.6472,1.0271,7.7713,57.1033,0.7373,-0.0293,-0.5046,40.6562
18:38:03:188,-0.6679,1.6926,7.4001,57.0154,0.6854,0.2187,-0.27,40.3281
18:38:03:207,-1.0798,1.3884,7.3953,56.8805,0.5052,0.2651,-0.2016,40.2812
18:38:03:228,-1.6567,1.2305,7.9938,56.6945,0.3531,0.058,-0.16,40.6406
18:38:03:247,-1.3334,1.3286,7.4695,56.625,0.2822,-0.0965,-0.0195,40.6719
18:38:03:272,-1.0463,1.4246,7.0771,56.6112,0.1784,-0.1301,0.1173,41.25
18:38:03:289,-0.9123,1.3214,7.235,56.6715,-0.0593,0.0922,0.2578,41.4844
18:38:03:307,0.4262,1.9439,9.9691,56.7373,-0.2572,0.2614,0.3708,41.4844
18:38:03:328,-0.1962,1.6974,9.8734,56.8436,-0.0067,0.223,0.2559,42.5156
18:38:03:348,-0.699,1.1659,9.4328,56.9533,0.4636,0.1179,0.1264,42.5156
18:38:03:371,-0.9266,1.4294,8.7386,56.9497,0.6414,0.358,0.1894,44.7188
18:38:03:388,-0.1938,2.0542,7.9173,57.1408,0.5125,0.631,0.3286,44.7188
18:38:03:409,0.9338,2.0518,7.5461,57.0854,0.234,0.5718,0.2706,46.6562
18:38:03:428,1.2832,2.016,8.3148,57.2071,-0.1442,0.2749,-0.0757,46.6562
18:38:03:449,-0.8883,1.3238,9.9691,57.2923,-0.5852,0.0721,-0.5308,48.1875
18:38:03:468,-3.0571,0.6775,11.0608,57.1987,-0.9016,-0.1075,-0.5797,48.1875
18:38:03:488,-2.9566,0.2994,12.0712,57.1468,-1.0604,-0.4514,-0.1374,48.7344
18:38:03:508,-1.963,0.6846,12.3847,57.0075,-1.1643,-0.3879,0.2321,48.7969
18:38:03:528,-1.7261,0.297,12.6625,57.0003,-1.1124,-0.2211,0.2767,49.0469
18:38:03:547,-1.3597,0.2082,13.0454,56.9048,-0.9364,-0.0171,0.2077,49.0781
18:38:03:571,-2.7652,-0.7684,13.3328,56.9816,-0.4239,0.6628,-0.0965,48.7188
18:38:03:590,-3.2297,-1.0558,13.3472,56.8405,-0.1344,0.8986,-0.0159,48.6875
18:38:03:608,-3.5982,-0.9099,12.2339,56.8242,0.2999,0.8973,0.1014,47.9844
18:38:03:627,-4.0196,-0.7205,10.3687,57.1239,0.7538,0.6615,0.1716,47.9219
18:38:03:647,-3.6727,-0.5267,8.3411,57.207,1.0012,0.3555,0.2914,47.6719
18:38:03:672,-3.268,-0.4238,7.2087,57.3396,0.9108,0.1057,0.4374,47.6562
18:38:03:688,-2.5065,0.1101,6.8686,57.4799,0.5779,-0.0647,0.551,47.0312
18:38:03:707,-2.0207,0.1962,7.3953,57.5511,0.1472,-0.1454,0.5498,46.9688
18:38:03:729,-2.0518,0.3544,8.566,57.5588,-0.2126,-0.1301,0.4783,47.4531
18:38:03:748,-2.2481,0.6296,9.306,57.713,-0.3066,-0.0825,0.4239,47.5
18:38:03:772,-2.2792,0.8378,8.8893,57.7565,-0.1753,-0.0305,0.3958,48.0781
18:38:03:787,-2.2576,1.1133,8.3411,57.5886,-0.0409,-0.0006,0.383,47.2969
18:38:03:809,-2.3438,1.1204,8.4105,57.6567,-0.0092,0.0037,0.4294,47.2969
18:38:03:830,-1.8338,1.3382,8.1015,57.5543,0.0208,-0.0086,0.5357,46.8281
18:38:03:848,-1.6184,1.5706,7.6158,57.462,0.0373,-0.0702,0.5418,46.8281
18:38:03:867,-1.7501,1.4964,7.448,57.6342,-0.0764,-0.0293,0.5186,46.8281
18:38:03:887,-2.1715,1.3214,7.9771,57.613,-0.2413,0.0421,0.5589,46.8281
18:38:03:910,-2.1739,1.3573,8.7338,57.383,-0.2877,0.0409,0.6389,46.625
18:38:03:929,-1.8793,1.4892,8.8606,57.2542,-0.2089,0.0391,0.6835,46.625
18:38:03:947,-1.5514,1.6472,8.8822,57.2265,-0.1326,0.0269,0.6487,46.1094
18:38:03:973,-1.4342,1.8817,9.1214,57.2789,-0.0843,0.0122,0.565,46.1094
18:38:03:989,-1.319,2.1117,9.294,57.1816,-0.0202,-0.0244,0.4704,45.0156
18:38:04:008,-1.2712,2.327,9.2988,57.1935,0.0684,-0.0782,0.3757,45.0156
18:38:04:027,-1.3597,2.4371,9.3347,56.9636,0.1264,-0.077,0.3146,44.0625
18:38:04:049,-1.6711,2.2217,9.6386,56.9817,0.1185,0.011,0.3146,43.9688
18:38:04:071,-1.7237,1.7859,10.3089,57.2744,0.0776,0.088,0.3708,43.1562
18:38:04:090,-0.6105,1.4486,11.1015,57.4252,0.0629,0.0941,0.4349,43.0781
18:38:04:109,-0.3449,1.6496,10.9555,57.2783,0.2364,-0.1582,0.212,42.1094
18:38:04:129,-0.5363,1.9558,10.5389,57.1519,0.2938,-0.2785,0.0012,42.0156
18:38:04:147,-1.2281,1.8147,10.4575,57.248,0.3024,-0.3445,-0.1662,40.9531
18:38:04:169,-1.9247,1.3262,10.6681,57.1221,0.1674,-0.1949,-0.2107,40.8438
18:38:04:189,-2.8202,0.0909,12.2124,57.2317,-0.2547,0.2834,-0.0446,39.5781
18:38:04:207,-2.406,-1.0774,15.0398,57.2413,-0.7129,0.7941,0.2895,39.4531
18:38:04:229,-0.8955,-0.8402,15.2288,57.0334,-0.471,0.6823,0.369,38.0625
18:38:04:248,-0.9888,0.0909,12.7798,56.9343,0.2779,0.0837,-0.0892,37.9375
18:38:04:269,-3.1053,0.6727,10.1605,57.2321,0.7568,-0.3219,-0.5534,36.875
18:38:04:288,-4.3502,0.6296,8.7841,57.187,0.6823,-0.2529,-0.4453,36.0469
18:38:04:308,-3.8761,0.2154,9.143,56.9716,0.2749,0.0727,0.0629,36.0469
18:38:04:328,-2.9925,-0.2608,9.9739,56.8732,-0.0849,0.4514,0.5235,35.3125
18:38:04:348,-2.6527,-0.3018,11.2475,56.8083,-0.1857,0.6579,0.7855,35.3125
18:38:04:371,-3.1579,-0.0167,11.6163,56.8025,0.0318,0.8002,0.8686,34.4219
18:38:04:427,-3.0021,0.5626,11.4509,56.8965,0.595,0.7,0.8375,34.4219
18:38:04:427,-2.6743,1.5203,9.1167,56.8426,1.2394,0.7147,0.6365,34.2969
18:38:04:435,-2.4395,0.5483,5.3124,56.589,1.0867,1.3316,0.5027,34.2969
18:38:04:452,-1.331,2.126,5.9853,56.4697,0.4484,1.4362,0.5149,34.7656
18:38:04:469,-2.0447,2.4227,6.7944,56.2954,0.2401,1.0336,0.2358,34.8281
18:38:04:488,-2.8729,2.0925,6.5982,56.4188,0.1888,0.5919,0.1778,34.3281
18:38:04:508,-3.0165,1.6256,7.3546,56.2045,0.1271,0.014,0.3115,34.3281
18:38:04:528,-2.1571,2.1236,7.6158,56.0507,0.1802,-0.3152,0.4368,33.9688
18:38:04:549,-2.0279,2.3533,7.3235,55.8003,0.1692,-0.2706,0.4765,33.9219
18:38:04:571,-1.9463,2.394,6.9404,55.8209,0.0727,-0.1784,0.4838,35.1406
18:38:04:589,-1.5275,2.3964,6.591,55.9091,-0.1362,-0.1814,0.4722,35.2656
18:38:04:609,-1.0582,2.3007,8.5756,55.8568,-0.43,-0.3036,0.3958,34.6719
18:38:04:629,-1.4892,2.0399,10.127,56.0273,-0.5699,-0.1374,0.2352,34.625
18:38:04:647,-1.9657,1.8936,9.3873,55.8243,-0.0544,0.0928,-0.0067,32.8125
18:38:04:672,-1.7955,2.3533,8.286,55.9668,0.146,0.0647,-0.0134,32.6406
18:38:04:689,-1.4366,2.9925,7.7498,56.1369,0.171,-0.0483,0.014,31.2812
18:38:04:708,-1.4438,3.3589,7.9484,56.1666,0.0391,-0.1674,-0.0244,31.1406
18:38:04:729,-1.8386,3.4259,8.6713,56.1493,-0.1423,-0.135,-0.0501,30.0156
18:38:04:747,-1.7357,3.3661,9.5477,56.0964,-0.2278,-0.0568,0.0153,29.3438
18:38:04:771,-1.7812,3.4235,10.3591,56.0323,-0.1478,-0.0409,0.047,29.3438
18:38:04:789,-2.8178,3.3876,10.4312,56.0693,-0.0208,0.0476,0.0263,28.5781
18:38:04:807,-3.7923,3.3182,10.5987,56.2392,-0.0086,0.2333,0.0947,28.5781
18:38:04:830,-2.3677,2.8035,9.7367,56.4744,-0.1106,0.43,0.317,27.6406
18:38:04:848,-2.6384,1.8721,10.0337,56.4497,-0.3806,0.2792,0.223,27.6406
18:38:04:870,-2.7556,1.3095,10.704,56.4082,-0.6237,0.1643,0.0061,26.6562
18:38:04:891,-2.8226,1.2257,11.2164,56.3836,-0.6658,0.113,-0.1936,26.6562
18:38:04:908,-3.754,1.3119,11.2187,56.4483,-0.5357,0.259,-0.358,26.1719
18:38:04:930,-5.7434,0.9577,10.3519,56.6157,-0.4337,0.5308,-0.3806,26.125
18:38:04:948,-6.4328,0.8378,11.0225,56.5992,-0.5424,0.3842,-0.1747,26.125
18:38:04:968,-6.2366,0.7349,11.3647,56.3623,-0.5492,0.6542,0.2169,26.125
18:38:04:989,-5.4538,0.2441,10.5413,56.2009,-0.4496,0.8521,0.5565,26.2188
18:38:05:008,-4.1417,0.122,9.4807,55.8534,-0.2523,0.6841,0.7397,26.2188
18:38:05:028,-3.4427,0.5124,8.2813,55.8646,-0.149,0.4099,0.6878,26.2188
18:38:05:049,-3.5958,0.7732,7.8335,55.7839,-0.303,0.306,0.5217,26.2188
18:38:05:074,-3.9168,0.984,8.0776,55.4932,-0.5595,0.328,0.3683,26.1094
18:38:05:090,-3.8641,1.3454,7.5942,55.2356,-0.7147,0.3922,0.2718,26.1094
18:38:05:109,-4.2329,1.6017,8.3219,55.2926,-0.9144,0.6072,0.2303,25.5781
18:38:05:130,-4.2473,1.2664,9.7989,55.5673,-0.8069,0.719,0.369,25.5312
18:38:05:155,-3.9024,1.2401,9.6553,55.3953,-0.4001,0.6463,0.5101,25.0625
18:38:05:170,-3.6461,1.4892,7.9316,55.3591,0.0574,0.3983,0.5827,25.0156
18:38:05:188,-3.536,1.6759,6.3514,55.3234,0.1991,0.0953,0.6212,25.2812
18:38:05:207,-3.3517,1.7285,6.0523,55.3186,0.0244,-0.2443,0.6579,25.3125
18:38:05:230,-3.134,1.4988,7.2494,55.312,-0.2266,-0.5266,0.6854,25.5781
18:38:05:247,-3.0933,1.3502,8.3172,55.2701,-0.2938,-0.6408,0.6903,25.5938
18:38:05:270,-2.7652,1.506,8.4248,54.8804,-0.1619,-0.6536,0.6609,24.4688
18:38:05:289,-2.636,1.7907,8.2286,54.5364,-0.0232,-0.6359,0.5779,22.5781
18:38:05:310,-2.7197,2.0853,8.4703,54.3316,0.0421,-0.6365,0.4777,22.5781
18:38:05:330,-2.7604,2.3581,9.2267,54.4285,0.1075,-0.6463,0.4019,21.2969
18:38:05:347,-2.9303,2.3844,9.6218,54.3498,0.2633,-0.5754,0.3616,21.2969
18:38:05:370,-3.821,1.9295,9.253,54.3249,0.4197,-0.4288,0.3323,20.2969
18:38:05:391,-4.4219,1.3597,9.4424,54.1211,0.3799,-0.3146,0.3427,20.2969
18:38:05:408,-4.113,1.1946,10.3065,54.0047,0.1674,-0.2834,0.3989,19.1875
18:38:05:430,-2.7437,1.3597,10.9962,53.7952,0.0153,-0.5033,0.4545,19.0781
18:38:05:449,-1.5969,1.9825,10.4719,53.7017,0.0122,-0.9425,0.358,19.0625
18:38:05:470,-1.5323,2.1212,9.9188,53.7043,-0.0996,-1.2046,0.1686,17.6875
18:38:05:488,-1.5897,1.6759,11.4221,53.6303,-0.4704,-0.981,0.0623,16.3438
18:38:05:507,-1.4366,0.8378,14.5753,53.4682,-0.7923,-0.3903,-0.0324,16.3438
18:38:05:529,-1.2138,0.4932,15.9781,53.3262,-0.5693,0.033,-0.2272,14.9531
18:38:05:549,-1.3358,0.6535,14.1443,53.3641,0.1454,-0.0293,-0.5003,14.8125
18:38:05:572,-1.6352,0.7205,10.2658,53.4286,0.7623,-0.2914,-0.6939,13.6562
18:38:05:588,-1.9801,0.8429,7.9795,53.6392,0.7819,-0.4386,-0.6854,13.5312
18:38:05:608,-1.9777,0.7899,8.1784,53.5462,0.3885,-0.4129,-0.5052,12.8125
18:38:05:629,-1.4127,0.4693,9.4926,53.4576,-0.1112,-0.014,-0.171,12.7344
18:38:05:648,-0.9649,0.1795,10.0074,53.2286,-0.0586,0.0886,-0.1808,12.2812
18:38:05:669,-1.0032,0.3664,10.0361,53.127,0.0244,0.0886,-0.2407,12.2188
18:38:05:688,-1.3549,0.5961,10.0146,53.1664,0.1582,0.1026,-0.2969,11.6562
18:38:05:707,-0.51,1.0558,9.2124,53.0873,0.3861,0.1277,-0.317,11.5938
18:38:05:728,-1.1276,1.2305,7.9125,52.8426,0.5834,0.1399,-0.4209,10.9531
18:38:05:747,-1.4868,1.7094,7.0938,52.7442,0.5913,0.1778,-0.4496,10.8906
18:38:05:769,-1.774,1.7979,6.9021,52.518,0.4282,0.2584,-0.4025,10.8125
18:38:05:789,-2.2816,1.7692,7.4551,52.4765,0.1936,0.3164,-0.3256,10.9219
18:38:05:807,-2.691,1.8793,8.1592,52.34,0.0043,0.2987,-0.2254,10.9219
18:38:05:829,-3.0595,1.8673,8.2334,52.2609,-0.1295,0.2676,-0.1368,12.4062
18:38:05:848,-3.414,1.5275,9.6482,51.999,-0.2987,0.3042,-0.0299,12.4062
18:38:05:869,-3.548,1.2951,11.403,51.9243,-0.3213,0.3867,0.1191,13.9844
18:38:05:887,-3.3015,1.1946,10.7327,51.9652,-0.0617,0.3775,0.2358,13.9844
18:38:05:908,-2.715,1.3262,9.2459,51.9232,0.1283,0.2492,0.3207,14.4688
18:38:05:928,-2.1308,1.4916,8.056,51.8866,0.0867,0.0483,0.3592,14.5156
18:38:05:947,-1.5443,1.6352,7.8885,51.4501,-0.0855,-0.1936,0.3653,14.5156
18:38:05:969,-1.0941,1.8577,8.0393,51.4338,-0.2095,-0.3537,0.3537,14.9531
18:38:05:988,-0.8378,2.0877,8.3172,51.2372,-0.2572,-0.3683,0.3323,15.6875
18:38:06:008,-0.5674,2.406,8.6282,51.2567,-0.2578,-0.2816,0.3103,15.6875
18:38:06:027,-0.6751,2.5041,8.8056,51.0258,-0.2578,-0.1271,0.2706,16.7812
18:38:06:048,-0.7421,2.5041,9.5477,50.9033,-0.3024,0.0037,0.2443,16.7812
18:38:06:068,-0.8429,2.4706,10.4001,50.8337,-0.2999,0.088,0.2175,17.5312
18:38:06:088,-0.9099,2.4873,10.5963,50.9086,-0.215,0.0953,0.1716,17.6094
18:38:06:108,-0.8835,2.5259,10.7375,50.9406,-0.1356,0.0183,0.1112,17.8906
18:38:06:130,-0.9505,2.8466,10.3953,50.7575,0.0043,-0.1906,-0.0544,17.9219
18:38:06:148,-1.3406,3.0595,9.9021,50.7011,0.0067,-0.1936,-0.1106,17.6562
18:38:06:168,-1.7524,2.8801,10.4097,50.4397,-0.1179,-0.0935,-0.1014,17.625
18:38:06:187,-2.0782,2.5714,11.7742,50.5638,-0.2437,0.047,-0.0617,17.0156
18:38:06:207,-2.6623,2.0518,12.4828,50.4166,-0.2205,0.1503,-0.0324,16.9531
18:38:06:227,-3.122,1.3023,13.3328,50.1609,-0.1356,0.2498,0.0195,16.2344
18:38:06:248,-3.5982,0.6224,13.5003,50.0003,0.0544,0.3964,0.0898,16.1719
18:38:06:269,-3.9168,0.0096,12.0975,49.9756,0.3525,0.441,0.1784,15.5
18:38:06:289,-3.6461,-0.2465,10.0074,49.9499,0.5693,0.3256,0.2859,14.8125
18:38:06:308,-3.3446,-0.2154,8.1999,49.9935,0.5815,0.1924,0.3555,14.8125
18:38:06:328,-3.3302,-0.2249,7.302,50.0261,0.3848,0.1466,0.3885,14.125
18:38:06:347,-3.2824,-0.2632,7.6014,49.6824,0.0794,0.1942,0.4276,14.125
18:38:06:370,-2.9064,-0.2512,8.499,49.4557,-0.1759,0.2749,0.4606,13.7344
18:38:06:388,-2.2433,0.0335,8.9515,49.3083,-0.2663,0.3311,0.441,13.7344
18:38:06:408,-1.7309,0.5483,8.6019,49.1298,-0.2382,0.3207,0.3378,13.7344
18:38:06:465,-1.5945,1.1372,8.152,49.0071,-0.2242,0.2187,0.1881,13.7812
18:38:06:465,-1.7644,1.6232,8.0967,48.852,-0.2486,0.0941,0.0757,13.7812
18:38:06:467,-1.7189,1.9295,8.0584,48.556,-0.2566,0.0782,0.0599,14.0312
18:38:06:487,-1.4438,2.1787,8.0704,48.4828,-0.2413,0.1081,0.0855,14.0312
18:38:06:507,-1.5562,2.3198,8.0393,48.4784,-0.2034,0.0739,0.0941,14.0312
18:38:06:527,-1.1874,2.2648,7.745,48.5301,-0.157,0.0159,0.1313,13.8281
18:38:06:548,-1.0439,2.3725,7.4695,48.4817,-0.1497,-0.0678,0.1381,13.8281
18:38:06:569,-1.1635,2.205,7.3857,48.3334,-0.2187,-0.1136,0.1338,13.4375
18:38:06:588,-1.0152,2.1045,8.1832,48.1285,-0.3329,-0.1411,0.1521,13.3906
18:38:06:607,-0.9027,1.8242,8.7649,48.1994,-0.3561,-0.157,0.1319,12.7656
18:38:06:628,-1.0439,1.7788,9.2411,48.0923,-0.3005,-0.0849,0.058,12.7031
18:38:06:648,-1.9992,2.0997,9.5812,47.9046,-0.1026,0.2034,-0.1332,11.75
18:38:06:670,-2.3438,2.4491,8.9372,47.567,0.033,0.1955,-0.1735,11.6406
18:38:06:687,-2.5331,2.8609,8.0967,47.3575,0.0739,0.044,-0.1686,10.7031
18:38:06:707,-2.8657,3.0428,8.1135,47.2445,-0.0525,-0.1765,-0.1332,10.6094
18:38:06:728,-3.0909,2.9207,9.1286,47.306,-0.2395,-0.317,-0.0421,10.2188
18:38:06:748,-3.05,2.6001,10.3304,47.5607,-0.3464,-0.2798,0.0892,10.1719
18:38:06:768,-2.837,2.2768,11.0058,47.2759,-0.3286,-0.1643,0.1912,9.9219
18:38:06:788,-2.6934,2.0542,11.2905,47.0932,-0.2663,-0.1216,0.2114,9.5938
18:38:06:808,-2.5666,1.9295,11.4891,46.9621,-0.2132,-0.204,0.1613,9.5938
18:38:06:828,-2.5331,2.004,11.8268,47.1032,-0.1545,-0.3335,0.0666,9.2188
18:38:06:847,-2.6456,2.1882,11.5035,46.963,-0.0324,-0.4154,-0.0263,9.2188
18:38:06:869,-2.636,2.2696,11.1111,46.5808,0.0483,-0.3604,-0.0507,8.8438
18:38:06:888,-2.6073,2.2146,11.1494,46.4631,0.0287,-0.2315,-0.0269,8.8125
18:38:06:907,-2.6815,1.8458,11.4126,46.0659,-0.0403,-0.1246,0.0147,8.8125
18:38:06:928,-2.6791,1.1228,11.7287,45.9137,-0.1264,-0.058,0.0757,8.7031
18:38:06:948,-2.26,0.4095,12.5187,45.8248,-0.2236,0.0024,0.1448,8.7031
18:38:06:969,-1.8099,-0.2656,13.4548,45.7329,-0.2162,0.066,0.1521,8.9688
18:38:06:987,-1.3286,-0.5339,12.8539,45.5796,0.0299,0.11,0.0825,9.3281
18:38:07:008,-1.1276,-0.297,10.7136,45.4588,0.3897,0.0886,-0.0434,9.3281
18:38:07:028,-1.2377,0.1436,8.5205,45.4821,0.5834,0.0507,-0.1344,9.2344
18:38:07:048,-1.0247,0.4789,7.3116,45.0778,0.4948,0.0428,-0.1209,9.2344
18:38:07:070,-0.996,0.5746,7.7234,45.0829,0.1942,0.1148,-0.0977,8.75
18:38:07:090,-1.319,0.5291,9.361,44.9213,-0.0941,0.3115,-0.0739,8.7031
18:38:07:108,-1.5443,0.498,10.3977,44.5124,-0.1484,0.5424,-0.0165,8.4688
18:38:07:129,-1.5945,0.6655,9.8782,44.406,0.0006,0.6573,0.0397,8.4375
18:38:07:151,-1.343,1.0056,8.3028,44.0264,0.1252,0.3732,0.0354,8.5781
18:38:07:172,-1.331,1.1324,8.2406,43.7274,0.0806,0.2297,0,8.5938
18:38:07:188,-1.4198,1.2329,8.2286,43.709,0.0855,0.1863,-0.0318,8.6406
18:38:07:208,-1.6472,1.3286,8.2358,43.4863,0.1344,0.2303,-0.0513,8.6406
18:38:07:229,-1.8242,1.4342,7.8574,43.0624,0.2114,0.2627,-0.0544,8.375
18:38:07:247,-1.9657,1.5826,7.3714,42.972,0.2333,0.2663,-0.0348,8.0781
18:38:07:271,-1.9753,1.6831,7.1608,42.9952,0.1515,0.2559,0.0116,8.0781
18:38:07:289,-1.896,1.7477,7.5556,42.6801,0.0049,0.2376,0.066,8.3594
18:38:07:309,-1.7261,1.8147,8.2334,42.4942,-0.1057,0.2278,0.1124,8.3594
18:38:07:331,-1.6424,1.9128,8.6521,42.5713,-0.1344,0.2291,0.1295,8.7188
18:38:07:348,-1.7118,2.0638,9.0281,42.326,-0.1203,0.2162,0.1283,8.7188
18:38:07:369,-1.7022,2.272,9.2483,42.1431,-0.0776,0.1814,0.1381,8.7188
18:38:07:390,-1.5491,2.4754,9.131,41.9955,-0.0318,0.1216,0.1588,8.7031
18:38:07:410,-1.5706,2.6456,9.4711,41.934,-0.0501,0.0812,0.1741,8.7031
18:38:07:429,-2.0566,2.5881,9.8997,41.8017,-0.0922,0.1112,0.1771,8.4844
18:38:07:449,-2.7389,2.2792,10.0289,41.7208,-0.1558,0.2107,0.2052,8.4844
18:38:07:473,-3.5264,1.7668,10.3496,41.6459,-0.2999,0.2162,0.2498,8.4219
18:38:07:488,-4.0101,1.2664,11.0225,41.4526,-0.4759,0.0531,0.3134,8.5156
18:38:07:509,-4.0388,0.9123,11.2451,41.618,-0.5895,-0.1264,0.4129,8.5156
18:38:07:529,-3.8785,0.699,10.7327,41.4086,-0.6933,-0.2792,0.5101,8.6406
18:38:07:550,-3.6245,0.376,10.3424,41.1725,-0.9047,-0.4404,0.5815,8.6406
18:38:07:572,-3.0787,-0.0909,11.7263,40.7465,-1.204,-0.5889,0.6121,8.5312
18:38:07:589,-2.8681,-0.5818,14.1084,40.6239,-1.2822,-0.5944,0.5546,8.5312
18:38:07:608,-2.9806,-0.7971,14.6686,40.2205,-0.8521,-0.4526,0.4649,8.1875
18:38:07:630,-2.959,-0.5746,12.641,39.8747,-0.1319,-0.248,0.4001,8.1562
18:38:07:649,-3.0523,-0.297,9.3132,39.8129,0.3952,-0.0415,0.3671,7.8125
18:38:07:671,-3.0523,-0.1484,7.6205,39.5781,0.0904,0.0556,0.3806,7.7812
18:38:07:690,-2.892,-0.2106,8.9444,39.5377,-0.2065,0.0312,0.3781,7.4062
18:38:07:708,-2.6216,-0.1101,9.8037,39.6677,-0.2712,0.0299,0.3543,7.375
18:38:07:729,-2.3509,0.2297,9.6075,39.5177,-0.1295,0.0312,0.2987,6.9062
18:38:07:747,-2.2433,0.6703,8.7194,39.3163,0.0605,0.0489,0.2278,6.8594
18:38:07:768,-2.217,0.9793,7.9005,39.5128,0.1716,0.1112,0.1851,6.1094
18:38:07:789,-1.9271,1.197,7.3331,39.634,0.2016,0.1716,0.19,4.9062
18:38:07:808,-1.5514,1.3262,7.0603,39.299,0.1863,0.1851,0.1833,4.9062
18:38:07:829,-1.5538,1.4414,6.8566,38.9736,0.149,0.1576,0.1332,4.7969
18:38:07:848,-1.8123,1.5778,6.9619,38.7226,0.0702,0.1295,0.0959,3.2812
18:38:07:871,-2.1619,1.6184,7.5126,38.3459,-0.0452,0.1399,0.1087,3.125
18:38:07:890,-2.3007,1.5969,8.1832,38.429,-0.1423,0.1545,0.1802,1.6562
18:38:07:909,-2.2241,1.6472,8.5971,38.0441,-0.1784,0.1448,0.259,1.6562
18:38:07:928,-2.0542,1.7955,8.796,37.7506,-0.1845,0.113,0.2926,0.875
18:38:07:947,-1.9175,1.9582,8.9946,37.7333,-0.1942,0.0354,0.2712,0.875
18:38:07:971,-2.0375,2.0997,9.5189,37.5931,-0.1991,-0.0794,0.2046,0.1406
18:38:07:989,-2.2959,2.272,9.9236,37.5264,-0.1368,-0.1741,0.1637,359.2344
18:38:08:009,-2.3868,2.4227,9.6099,37.5053,-0.0128,-0.2834,0.1881,359.2344
18:38:08:031,-2.4132,2.4682,9.1047,37.5106,0.0116,-0.5418,0.2541,358.6406
18:38:08:054,-2.0949,2.2193,9.4089,37.1546,-0.1509,-1.0091,0.3268,358.6406
18:38:08:071,-1.5873,1.7812,10.8308,37.3262,-0.3476,-1.4062,0.3848,358.2656
18:38:08:090,-0.984,1.3717,12.2554,37.2464,-0.3402,-1.4307,0.4148,358.2656
18:38:08:108,-0.2297,1.2233,12.5641,37.1381,-0.0935,-1.0806,0.3989,357.9844
18:38:08:129,0.0718,1.5586,11.1972,37.1894,0.234,-0.5809,0.2767,357.9531
18:38:08:150,-0.687,1.7453,9.562,37.1242,0.3262,-0.2169,0.0996,357.7344
18:38:08:170,-1.4318,1.494,9.7247,37.0948,0.0379,-0.0348,0.0507,357.7031
18:38:08:190,-1.4366,1.0032,10.9409,36.9917,-0.3586,0.0586,0.1216,357.1875
18:38:08:209,-1.0654,-0.3497,14.7691,37.0046,-0.5944,0.1393,0.1277,357.1406
18:38:08:230,-1.197,-0.5818,14.324,37.0432,-0.1894,0.1148,-0.0031,356.5
18:38:08:247,-1.7524,-0.4908,11.8914,37.038,0.2902,0.0586,-0.1625,356.4375
18:38:08:267,-2.2457,-0.3257,9.4663,36.9537,0.4972,0.0183,-0.204,356.0156
18:38:08:290,-1.9271,-0.2417,8.2717,36.8149,0.3891,-0.011,-0.0916,355.9688
18:38:08:309,-1.3023,-0.3568,8.353,36.7836,0.1252,0.0244,0.0269,355.5938
18:38:08:329,-1.0152,-0.4813,9.3227,36.7488,-0.1277,0.1723,0.0568,355.5625
18:38:08:347,-1.0917,-0.4789,10.218,36.666,-0.2407,0.3824,0.0195,354.9531
18:38:08:372,-1.3334,-0.2827,10.261,36.7365,-0.1942,0.5479,-0.0421,354.8906
18:38:08:390,-1.3741,0.1268,9.6266,36.6718,-0.0788,0.5937,-0.099,354.125
18:38:08:409,-1.5395,0.5267,8.9994,36.4747,0.0049,0.5687,-0.149,354.125
18:38:08:430,-1.7022,0.8115,8.5612,36.3118,0.0489,0.5644,-0.1631,353.8438
18:38:08:448,-1.8338,0.917,8.6091,36.1906,0.0898,0.5974,-0.1368,353.8438
18:38:08:538,-1.9271,0.9099,8.5875,36.1585,0.1796,0.6188,-0.0757,353.6094
18:38:08:539,-1.707,0.984,8.1326,36.1053,0.3201,0.5534,-0.0055,353.125
18:38:08:539,-1.4486,0.9745,7.4982,36.1646,0.3964,0.4429,0.0379,353.125
18:38:08:546,-1.2664,1.1587,7.2565,36.1105,0.3415,0.325,0.0617,353.2969
18:38:08:553,-1.4653,1.209,7.4958,35.9841,0.1747,0.2126,0.0843,353.2969
18:38:08:572,-1.6328,1.1898,8.3459,36.2898,-0.0177,0.1118,0.1442,353.7344
18:38:08:588,-1.5203,1.142,9.0927,36.44,-0.1197,0.047,0.2431,353.7344
18:38:08:607,-1.0726,1.2329,9.562,36.4368,-0.1081,0.0501,0.3256,353.6406
18:38:08:628,-0.8186,1.4079,9.2172,36.4652,-0.0159,0.1136,0.3494,353.625
18:38:08:649,-0.8501,1.6424,8.7458,36.7008,0.0269,0.099,0.3213,353.5312
18:38:08:667,-0.9458,1.8649,8.8199,36.9527,-0.0171,0.0269,0.2963,353.5312
18:38:08:690,-1.1252,2.0471,9.198,36.9759,-0.1448,0.1051,0.3292,353.6875
18:38:08:709,-1.2688,2.1236,9.5907,37.2349,-0.2272,0.2193,0.3347,353.7031
18:38:08:727,-1.8649,1.6424,11.1637,37.1124,-0.3011,0.2828,0.2816,353.9375
18:38:08:747,-2.7915,1.3167,11.6617,37.2013,-0.2908,0.2676,0.2052,353.9688
18:38:08:769,-3.6078,1.075,11.1781,37.3537,-0.2407,0.2089,0.19,354.0469
18:38:08:788,-3.754,0.8668,10.946,37.3259,-0.3183,0.1607,0.2749,354.0156
18:38:08:808,-3.5623,0.5722,11.2259,37.0865,-0.5003,0.1631,0.3903,354.0156
18:38:08:827,-3.4068,0.1388,12.1262,36.9089,-0.6787,0.1588,0.4716,354.0156
18:38:08:848,-3.2345,-0.2632,13.6893,36.8035,-0.7385,0.1741,0.5003,353.7812
18:38:08:868,-3.3733,-0.5937,14.2591,36.8562,-0.5162,0.212,0.4685,353.7656
18:38:08:888,-3.6751,-0.7038,12.8635,37.1392,-0.0782,0.1997,0.4251,353.0938
18:38:08:908,-3.8498,-0.6679,10.3113,37.101,0.2981,0.0849,0.4142,353.0781
18:38:08:928,-3.6221,-0.6416,7.922,37.2292,0.4056,-0.0379,0.4557,352.3438
18:38:08:947,-3.1507,-0.5578,6.8423,37.465,0.2211,-0.0812,0.4978,352.3281
18:38:08:968,-2.6575,-0.4741,7.3762,37.8979,-0.0947,-0.0073,0.5015,351.6562
18:38:08:987,-2.3366,-0.2584,8.3243,38.1045,-0.3018,0.1161,0.4435,350.8281
18:38:09:008,-2.2385,0.1412,8.7266,38.3844,-0.3195,0.2022,0.3494,350.8281
18:38:09:028,-2.2528,0.577,8.645,38.2631,-0.2309,0.2144,0.2755,350.125
18:38:09:048,-2.0566,0.9601,8.2214,38.3358,-0.1271,0.1863,0.2541,350.125
18:38:09:069,-1.8721,1.2401,7.8598,38.5392,-0.0672,0.1649,0.2517,349.4688
18:38:09:088,-1.8314,1.3071,7.8,38.7979,-0.0562,0.1607,0.2669,349.4688
18:38:09:107,-1.7955,1.3478,7.9101,39.0007,-0.0409,0.1106,0.2902,348.2656
18:38:09:128,-1.8936,1.3525,7.9053,39.1269,-0.0024,-0.0165,0.3183,348.2656
18:38:09:148,-1.8649,1.3047,7.9316,39.348,0.0006,-0.1503,0.3677,347.0469
18:38:09:169,-1.7261,1.2544,8.0441,39.5184,-0.0617,-0.2211,0.4227,346.9375
18:38:09:188,-1.6591,1.1515,8.5062,39.6813,-0.1753,-0.2199,0.4514,346.1094
18:38:09:210,-1.4725,1.0056,9.7271,39.6917,-0.2584,-0.124,0.3977,346.0312
18:38:09:227,-1.3023,1.2592,9.6003,39.5119,-0.1619,-0.1326,0.2706,345.1875
18:38:09:248,-1.4342,1.6735,9.2459,39.6284,-0.055,-0.1545,0.0965,345.1094
18:38:09:269,-1.7907,2.15,8.9587,39.4777,0.0257,-0.1515,-0.0312,344.0781
18:38:09:287,-1.8817,2.5259,8.5851,39.3587,0.0782,-0.1289,-0.0635,343.9844
18:38:09:308,-1.908,2.6886,8.5038,39.3226,0.0733,-0.1051,-0.0446,343.2188
18:38:09:328,-2.2026,2.5475,8.8511,39.4468,0.0116,-0.0654,-0.0049,343.1562
18:38:09:348,-2.7126,2.1404,9.6506,39.6755,-0.0965,0.0031,0.0641,342.5781
18:38:09:367,-2.9638,1.5921,11.068,39.8119,-0.2217,0.0678,0.1588,342.5312
18:38:09:387,-2.9997,1.2233,12.2291,40.1993,-0.2346,0.0153,0.2175,341.875
18:38:09:407,-3.0332,1.2664,11.8938,40.1716,-0.1002,-0.2095,0.2052,341.8594
18:38:09:429,-3.1364,1.3238,10.8236,40.3928,-0.0519,-0.4056,0.1997,341.125
18:38:09:448,-2.9925,0.8477,11.1972,40.5214,-0.2987,-0.3738,0.2895,341.1094
18:38:09:467,-2.8944,-0.1172,13.6391,40.6644,-0.6304,-0.201,0.3842,340.1562
18:38:09:489,-2.7413,-1.2568,15.9565,40.9261,-0.6542,0.0531,0.4282,339.1406
18:38:09:508,-2.1141,-1.7166,15.6455,41.027,-0.1814,0.1716,0.3586,339.1406
18:38:09:529,-2.0686,-1.4028,12.4852,41.0844,0.5406,0.047,0.1191,338.7031
18:38:09:549,-2.4514,-0.5818,8.6139,41.2984,0.97,-0.1191,-0.1093,338.7031
18:38:09:571,-2.7796,0.055,6.457,41.7112,0.8424,-0.1875,-0.1631,338.8438
18:38:09:589,-2.9686,0.1699,6.8806,41.7569,0.3708,-0.1118,-0.0617,338.8438
18:38:09:608,-2.5283,-0.0263,8.8391,41.8972,-0.0892,0.1668,0.1283,338.9375
18:38:09:628,-2.0064,-0.28,10.5126,42.0311,-0.2755,0.4129,0.2456,338.9375
18:38:09:649,-1.8051,-0.2946,11.3001,41.951,-0.2016,0.4551,0.2376,338.6562
18:38:09:672,-1.8434,-0.0837,10.7901,42.2252,0.0458,0.2804,0.171,338.625
18:38:09:691,-1.8386,0.6057,8.499,42.5668,0.2718,0.077,0.1209,338.1562
18:38:09:708,-1.9175,0.833,7.7617,42.4307,0.3708,-0.0244,0.1008,338.125
18:38:09:731,-1.8147,1.008,7.1154,42.2615,0.3836,-0.0525,0.1289,337.625
18:38:09:749,-1.6089,1.0893,6.6628,42.6687,0.3018,-0.0159,0.292,336.5625
18:38:09:769,-1.3789,1.1755,6.6556,42.8203,0.179,-0.0079,0.3677,336.5625
18:38:09:787,-1.1468,1.1731,6.9571,42.8555,0.0391,-0.0073,0.4245,336.4688
18:38:09:807,-0.8931,1.0917,7.3475,42.981,-0.0916,-0.0128,0.4667,336.0312
18:38:09:828,-0.6894,1.0558,7.9412,42.9378,-0.1991,-0.0391,0.4673,335.9844
18:38:09:847,-0.4836,1.118,8.3195,42.6948,-0.2596,-0.0434,0.4398,336.5625
18:38:09:868,-0.3712,1.2975,8.6737,42.7921,-0.2859,-0.022,0.3848,336.6094
18:38:09:889,-0.3544,1.5012,9.2195,43.1842,-0.3005,0.0275,0.3115,336.5938
18:38:09:907,-0.4693,1.7716,9.5716,43.0394,-0.2639,0.0764,0.2327,336.5938
18:38:09:931,-0.5459,2.0351,9.4759,43.2319,-0.204,0.1313,0.1692,335.9062
18:38:09:947,-0.7325,2.1619,9.6458,43.286,-0.2028,0.1912,0.1197,335.8906
18:38:09:970,-1.0654,2.1476,10.2706,43.5672,-0.2425,0.2614,0.0812,335.6094
18:38:09:990,-1.5323,1.9582,11.0225,43.6171,-0.2621,0.3457,0.0599,335.5
18:38:10:008,-2.1667,1.6878,11.5923,43.9746,-0.2474,0.3952,0.0428,335.5
18:38:10:028,-3.026,1.3214,11.5899,44.5036,-0.2223,0.3922,0.0348,335.0781
18:38:10:047,-3.699,0.9482,11.2642,44.4452,-0.2492,0.3402,0.08,335.0781
18:38:10:068,-3.7564,0.5626,11.2331,44.5708,-0.3726,0.27,0.1918,334.25
18:38:10:090,-3.3398,0.1866,11.6809,44.7084,-0.5174,0.204,0.3024,334.25
18:38:10:107,-3.2847,-0.1412,12.3153,45.1413,-0.5913,0.2065,0.3415,333.1719
18:38:10:129,-3.3685,-0.4238,12.9832,45.4415,-0.5589,0.2223,0.3506,333.1719
18:38:10:149,-3.3733,-0.6153,12.6529,45.5434,-0.3488,0.1167,0.3512,332.2656
18:38:10:170,-3.3494,-0.7421,11.1661,45.7837,-0.0403,-0.1008,0.3366,332.1719
18:38:10:187,-3.3111,-0.8501,9.373,45.9921,0.1625,-0.2364,0.3213,331.5312
18:38:10:209,-3.3829,-0.8883,8.1039,46.4092,0.1521,-0.1955,0.3079,331.4688
18:38:10:231,-3.2752,-0.8764,7.7282,46.5358,-0.0183,-0.0647,0.3231,331.0781
18:38:10:249,-2.0686,-0.4693,8.2238,46.6063,-0.2963,-0.0134,0.3219,331.0469
18:38:10:267,-1.8386,-0.1053,8.3004,46.753,-0.3079,-0.0348,0.2395,330.75
18:38:10:288,-1.8793,0.1627,8.3028,46.9002,-0.281,0.0195,0.1723,330.7344
18:38:10:308,-1.9872,0.3233,8.4105,47.2193,-0.259,0.1283,0.1509,330.5
18:38:10:328,-1.9319,0.5124,8.633,47.1765,-0.2492,0.193,0.1643,330.4844
18:38:10:347,-1.8194,0.7158,8.578,47.2693,-0.1973,0.1344,0.1723,330.0469
18:38:10:369,-1.7213,0.917,8.31,47.206,-0.1344,-0.0043,0.1747,330.0156
18:38:10:388,-1.5849,1.1157,8.1688,47.4316,-0.1124,-0.1179,0.1888,329.1406
18:38:10:407,-1.6448,1.2353,8.3985,47.6649,-0.1429,-0.124,0.1961,329.0469
18:38:10:428,-1.8003,1.2808,8.7458,47.5847,-0.1619,-0.0825,0.19,328.0625
18:38:10:448,-1.8888,1.276,8.9204,47.6562,-0.1515,-0.0348,0.171,328.0625
18:38:10:470,-2.0758,1.2568,9.1334,47.7582,-0.1509,0,0.1252,327.3906
18:38:10:488,-2.3174,1.2473,9.7199,47.9725,-0.1545,0.0269,0.0757,326.7344
18:38:10:507,-2.5113,1.3382,10.1964,48.2679,-0.088,0.0336,0.0434,326.7344
18:38:10:528,-2.394,1.573,9.9093,48.387,0.0684,-0.0428,0.0391,325.9062
18:38:10:600,-2.2026,1.8123,9.3299,48.6128,0.2034,-0.1521,0.0373,325.9062
18:38:10:600,-2.1308,1.9487,9.1621,48.8337,0.2492,-0.212,0.0379,325.3438
18:38:10:600,-2.2528,1.8936,9.3251,49.2001,0.2669,-0.2089,0.0574,325.3438
18:38:10:607,-2.3964,1.695,9.4687,49.5072,0.2798,-0.1387,0.1093,324.875
18:38:10:628,-2.5113,1.3549,9.8997,49.8773,0.2193,-0.014,0.1753,324.875
18:38:10:649,-2.5259,1.0367,10.5915,50.2506,0.124,0.0275,0.2248,324.4531
18:38:10:669,-2.3294,0.7038,11.3767,50.3655,0.0428,-0.0299,0.2376,324.4062
18:38:10:688,-2.0112,0.6751,12.0374,50.6375,0.0299,-0.1985,0.1869,324
18:38:10:708,-1.8434,0.7516,11.9082,50.9951,0.1277,-0.4361,0.0696,323.9531
18:38:10:728,-1.8529,0.7038,11.2929,50.97,0.1918,-0.518,-0.0171,323.5469
18:38:10:749,-1.8745,0.1125,11.9728,51.0504,-0.0684,-0.1564,0.014,323.5
18:38:10:768,-1.6926,-0.419,12.842,51.0694,-0.1209,-0.0092,0.0605,323.25
18:38:10:787,-1.4916,-0.7181,12.5258,51.1092,0.0593,-0.0489,0.0397,323.2188
18:38:10:808,-1.4028,-0.7636,10.9385,51.2815,0.3305,-0.2266,-0.0434,323.125
18:38:10:827,-1.4725,-0.7086,9.428,51.4545,0.4447,-0.3372,-0.1167,323.125
18:38:10:847,-1.5467,-0.5865,8.6139,51.5208,0.3341,-0.2669,-0.1271,323.1406
18:38:10:868,-1.5467,-0.5913,8.9061,51.4661,0.0727,-0.0525,-0.0874,323.1406
18:38:10:887,-1.4797,-0.6703,9.8157,51.7436,-0.1619,0.1588,-0.0531,323.0938
18:38:10:907,-1.5203,-0.5889,10.5078,52.0308,-0.2095,0.2266,-0.0709,323.0938
18:38:10:928,-1.4366,-0.213,10.1414,52.089,-0.0519,0.1203,-0.1289,322.7188
18:38:10:952,-1.3047,0.3377,8.9587,52.2068,0.1607,-0.0415,-0.1955,322.2812
18:38:10:969,-1.3621,0.8402,8.0536,52.2455,0.2523,-0.0831,-0.2285,322.2812
18:38:10:988,-1.5682,1.142,7.6732,52.1343,0.2327,-0.0397,-0.2107,322.3438
18:38:11:008,-1.5802,1.2281,7.8,52.4455,0.1533,-0.0391,-0.1356,322.3438
18:38:11:028,-1.3334,1.1587,8.2502,52.8601,0.077,-0.1155,-0.0464,322.4062
18:38:11:047,-1.2353,1.1372,8.7051,53.2103,0.0733,-0.1582,0.0012,322.4062
18:38:11:068,-1.3047,1.1803,8.6833,53.3185,0.1258,-0.1069,0.0428,322.2969
18:38:11:087,-1.264,1.2544,8.3124,53.4813,0.1387,-0.0073,0.1051,322.2969
18:38:11:107,-1.1874,1.2616,8.2908,53.5095,0.0379,0.0415,0.1692,322.6406
18:38:11:127,-0.9625,1.197,8.8319,53.8199,-0.0971,0.0037,0.2199,322.6406
18:38:11:148,-0.7684,1.209,9.3682,54.1906,-0.1454,-0.047,0.237,322.9688
18:38:11:169,-0.7062,1.319,9.4352,54.2238,-0.0788,-0.0593,0.2278,322.9688
18:38:11:188,-0.5076,1.5754,9.1334,54.092,0.0214,-0.047,0.2211,323.0156
18:38:11:208,-0.4693,1.7979,8.7601,54.1314,0.0788,-0.0031,0.1997,323.0156
18:38:11:227,-0.7397,1.9319,8.6737,54.2846,0.0568,0.0959,0.1704,323.3438
18:38:11:248,-1.0798,1.9343,9.119,54.5008,-0.091,0.4795,0.2101,323.375
18:38:11:269,-1.2688,1.7716,9.9117,54.9928,-0.1014,0.5522,0.2278,323.9062
18:38:11:288,-1.386,1.6448,10.8643,55.1251,-0.0367,0.4484,0.1649,323.9531
18:38:11:307,-1.8769,1.6519,10.704,55.2741,-0.0287,0.2743,0.0715,324.1875
18:38:11:327,-2.3246,1.3717,11.123,55.3797,-0.2046,0.2449,0.0556,324.2031
18:38:11:348,-2.6145,0.7995,12.1047,55.6538,-0.4325,0.248,0.1008,324.2188
18:38:11:372,-2.3174,0.28,12.5306,56.0264,-0.5064,0.1716,0.1588,324.2188
18:38:11:387,-1.9825,-0.0479,12.8061,56.0959,-0.4832,0.1448,0.1698,323.9688
18:38:11:408,-2.4132,-0.3808,13.1698,56.1263,-0.4001,0.1747,0.1197,323.9375
18:38:11:429,-2.6671,-0.5411,12.7463,56.0187,-0.1839,0.1435,0.1057,323.4531
18:38:11:448,-2.5307,-0.3784,11.1709,55.9475,0.1203,-0.0605,0.1148,323.4062
18:38:11:468,-2.4921,-0.1436,9.4065,55.9718,0.347,-0.3311,0.1173,322.9062
18:38:11:489,-2.5259,-0.0526,8.1664,56.1389,0.3635,-0.4594,0.1527,322.5156
18:38:11:508,-2.4682,-0.0263,8.3483,56.1863,0.1631,-0.3714,0.2395,322.5156
18:38:11:528,-2.1236,-0.0455,9.1502,55.8531,-0.0501,-0.1765,0.3482,322
18:38:11:548,-1.6472,-0.0335,9.5381,55.9144,-0.1344,-0.0269,0.3964,322
18:38:11:572,-1.4677,0.1172,9.6793,56.028,-0.124,-0.0024,0.3457,321.4375
18:38:11:588,-1.4462,0.3688,9.4065,56.3836,-0.0342,-0.047,0.2596,321.4375
18:38:11:609,-1.3741,0.6272,8.8176,56.3596,0.0654,-0.0312,0.1936,321.2031
18:38:11:628,-1.3047,0.8501,8.3363,56.3202,0.1167,0.08,0.1607,321.2031
18:38:11:649,-1.1707,0.9912,7.8838,56.1436,0.1539,0.2504,0.1686,320.7188
18:38:11:671,-0.8429,1.2449,7.1871,56.2648,0.201,0.4734,0.2028,320.7188
18:38:11:690,-0.9147,1.5227,6.3969,56.4662,0.2132,0.7092,0.2242,320.2656
18:38:11:707,-1.6902,1.8338,5.8199,56.5354,0.1148,0.9114,0.2694,320.2188
18:38:11:729,-2.0806,1.9872,5.9231,56.4103,-0.1136,1.0158,0.4038,319.9688
18:38:11:750,-2.2146,1.8482,7.168,56.0644,-0.5644,0.8069,0.6133,319.9531
18:38:11:771,-2.3916,1.7907,9.0903,55.955,-0.5522,0.4416,0.5443,319.8594
18:38:11:788,-2.4227,1.9705,8.8846,55.9765,-0.5168,-0.0495,0.4313,319.8438
18:38:11:808,-2.1332,2.1978,8.6713,56.3467,-0.5522,-0.6878,0.295,319.3281
18:38:11:828,-1.9534,2.3868,9.0879,56.3047,-0.6402,-1.27,0.1637,319.2656
18:38:11:848,-1.6926,2.4395,9.6506,56.4091,-0.6634,-1.5901,0.0983,318.5
18:38:11:869,-1.5706,2.1045,10.436,56.3571,-0.595,-1.5272,0.0892,318.4219
18:38:11:890,-1.4414,1.4725,11.4724,56.689,-0.4746,-1.0183,0.1417,317.9688
18:38:11:909,-1.1587,0.8596,12.3679,56.7739,-0.2889,-0.3885,0.193,317.9375
18:38:11:931,-0.9745,0.7205,12.2578,57.0665,-0.0623,-0.0421,0.1423,317.6094
18:38:11:947,-1.3836,0.6799,11.4293,57.2827,0.0623,-0.1026,-0.011,317.5781
18:38:11:970,-1.7477,0.3233,11.3575,57.1836,-0.1197,-0.3134,-0.1069,317.0625
18:38:11:988,-1.817,-0.3233,12.3296,57.3936,-0.4673,-0.5284,-0.11,316.1094
18:38:12:009,-1.2616,-1.0128,13.7444,57.535,-0.7159,-0.6793,-0.0409,316.1094
18:38:12:028,-0.4071,-1.5347,14.7811,57.8476,-0.7013,-0.6493,0.0073,314.4375
18:38:12:049,0.5243,-1.8936,14.5011,58.0222,-0.3867,-0.4227,-0.0574,314.4375
18:38:12:071,0.8572,-1.7357,12.9808,58.2452,0.0421,-0.0654,-0.2737,313.0938
18:38:12:089,0.3329,-1.319,10.7638,58.3999,0.3964,0.1723,-0.5546,313.0938
18:38:12:107,-0.2417,-0.8668,8.7123,58.4746,0.5351,0.2071,-0.7165,312.5156
18:38:12:129,-0.5554,-0.6033,8.0201,58.5013,0.3903,0.1918,-0.722,312.5156
18:38:12:149,-0.6368,-0.5626,8.6186,58.5491,0.1008,0.2737,-0.6157,312.3281
18:38:12:171,-0.4573,-0.7493,9.629,58.1861,-0.1295,0.416,-0.4679,312.3281
18:38:12:187,-0.1555,-0.917,10.1653,57.8954,-0.2162,0.4306,-0.3696,311.9844
18:38:12:208,-0.1244,-0.8548,9.9835,57.611,-0.1912,0.2523,-0.3598,311.9531
18:38:12:230,-0.1268,-0.687,8.8678,57.4631,-0.1863,0.0348,-0.3726,311.8281
18:38:12:248,-0.0909,-0.5698,8.5349,57.3306,-0.3323,-0.0458,-0.3506,311.8125
18:38:12:269,-0.1795,-0.6823,8.9539,57.168,-0.2914,0.1625,-0.212,312
18:38:12:291,-0.4382,-0.6751,8.4918,57.204,-0.0745,0.2407,-0.1124,312.0156
18:38:12:308,-1.2473,-0.3377,6.4184,57.3589,-0.0666,0.2315,0.0953,311.9688
18:38:12:330,-0.3233,-0.3473,6.3108,57.5897,-0.2877,0.1778,0.3024,311.9531
18:38:12:347,0.3185,-0.3138,7.666,58.147,-0.5669,0.0947,0.3219,312.2656
18:38:12:368,-0.0024,-0.3712,8.2765,58.3562,-0.6127,0.0391,0.1845,312.2969
18:38:12:392,-0.632,-0.2946,9.2411,58.3844,-0.5204,0.0874,0.0073,313.6406
18:38:12:408,-1.3525,-0.122,10.0409,58.4356,-0.3622,0.3347,-0.0696,313.7812
18:38:12:427,-2.083,0.1268,10.5317,58.5108,-0.1332,0.6108,-0.0611,315.1562
18:38:12:447,-2.2863,0.3879,10.4527,58.51,0.1527,0.6756,-0.0128,315.2812
18:38:12:473,-2.2983,0.5626,9.9236,58.3343,0.3922,0.4679,0.0104,316.1406
18:38:12:489,-2.2265,0.5794,10.0528,58.3736,0.4203,0.1362,-0.0202,316.875
18:38:12:508,-2.1236,0.3808,11.19,58.2625,0.2462,-0.1338,-0.1063,316.875
18:38:12:529,-1.9152,0.3353,12.3775,58.3162,0.0715,-0.2022,-0.1863,317.4688
18:38:12:548,-1.9391,0.3688,13.1578,58.6036,0.1662,-0.2028,-0.2694,317.4688
18:38:12:571,-2.2576,0.3832,12.7487,58.5995,0.529,-0.1026,-0.3647,317.7812
18:38:12:588,-2.4969,0.3903,11.2307,58.7497,0.923,0.0709,-0.4129,317.7812
18:38:12:663,-2.2887,0.2393,9.6984,58.807,1.0219,0.2926,-0.3818,317.2812
18:38:12:663,-1.9319,0.0694,9.3993,58.8393,0.7226,0.6267,-0.3109,317.2812
18:38:12:663,-2.2026,-0.5171,10.1797,58.6574,0.3476,0.9346,-0.3158,316.625
18:38:12:669,-2.7891,-1.1444,11.4509,58.5637,0.1045,1.0164,-0.3354,316.5469
18:38:12:688,-3.7947,-1.6711,12.7893,58.298,0.0849,0.8246,-0.2963,316.4844
18:38:12:707,-3.9861,-1.8051,12.2602,58.0812,0.3586,0.5204,-0.113,316.4844
18:38:12:728,-3.8617,-1.6639,9.8037,57.937,0.6841,0.1729,0.124,316.5469
18:38:12:748,-3.4187,-1.3525,7.5174,57.9511,0.6658,-0.1472,0.3464,316.5625
18:38:12:769,-2.7341,-1.1348,7.1369,57.9228,0.2376,-0.3573,0.5449,316.6875
18:38:12:789,-0.9075,-1.0319,9.5979,57.7901,-0.5027,-0.4508,0.7452,316.7031
18:38:12:808,-0.1962,-0.6344,9.7271,57.5877,-0.4306,-0.4203,0.6493,317.0469
18:38:12:828,-0.3568,-0.055,8.9276,57.4056,-0.2358,-0.3616,0.4612,317.0781
18:38:12:847,-0.7229,0.4358,8.3674,57.3223,-0.1301,-0.226,0.336,317.8281
18:38:12:868,-0.7253,0.7516,8.2167,57.3696,-0.1038,-0.0745,0.3115,317.9062
18:38:12:888,-0.6559,0.8931,8.0704,57.4609,-0.0654,-0.0415,0.3115,318.9844
18:38:12:908,-0.8306,1.051,7.9268,57.3841,-0.0055,-0.1112,0.3073,319.0938
18:38:12:929,-0.7373,1.2353,7.5918,57.3536,0.0428,-0.1784,0.3286,319.8438
18:38:12:948,-0.8186,1.3765,7.3594,57.2626,0.0287,-0.2083,0.3427,319.9219
18:38:12:969,-1.1133,1.4366,7.3905,57.4552,-0.0519,-0.2236,0.3702,320.5781
18:38:12:988,-1.3549,1.4557,8.0154,57.3584,-0.1723,-0.1875,0.4343,320.75
18:38:13:008,-1.3884,1.3286,8.7529,57.2706,-0.259,-0.1197,0.5039,320.75
18:38:13:028,-1.1324,1.2664,9.253,57.249,-0.2785,-0.1069,0.5284,320
18:38:13:048,-0.8115,1.3406,9.5261,57.2296,-0.2486,-0.1784,0.4679,320
18:38:13:068,-0.6846,1.5347,9.7606,56.9079,-0.1955,-0.2688,0.3347,318.3281
18:38:13:088,-0.7397,1.7979,9.7989,56.793,-0.1075,-0.2963,0.2004,318.3281
18:38:13:108,-0.8163,1.8649,9.6242,56.8574,-0.0305,-0.1973,0.1136,317.0156
18:38:13:127,-1.1396,1.5275,9.7582,57.0286,-0.0641,0.0098,0.0715,317.0156
18:38:13:148,-1.197,0.9553,10.9074,57.0288,-0.2077,0.1961,0.0611,316.2656
18:38:13:168,-1.0654,0.4621,12.3009,57.142,-0.3066,0.2529,0.011,316.2656
18:38:13:187,-0.9003,0.2946,12.7534,56.7649,-0.2529,0.1381,-0.1155,315.5781
18:38:13:207,-1.1013,0.3544,12.3057,56.5395,-0.1442,-0.0965,-0.2792,315.5781
18:38:13:228,-1.1492,0.0814,12.0087,56.4685,-0.1607,-0.2077,-0.3457,314.9531
18:38:13:248,-0.766,-0.4358,12.1765,56.5306,-0.2859,-0.1429,-0.3409,314.8906
18:38:13:269,-0.1819,-1.0032,12.7439,56.4648,-0.4209,-0.058,-0.3708,314.0625
18:38:13:288,0.4789,-1.4701,13.2227,56.2489,-0.46,-0.0501,-0.4875,313.9844
18:38:13:309,0.5435,-1.6304,12.3177,55.9954,-0.1429,-0.2975,-0.9737,312.8906
18:38:13:328,0.1316,-1.5897,10.6179,55.6733,-0.124,-0.3781,-1.105,312.7812
18:38:13:347,-1.0319,-1.573,11.1159,55.7501,-0.0892,-0.2773,-1.0629,311.9219
18:38:13:369,-1.0104,-1.4844,10.6035,55.8203,0.1161,-0.0525,-0.8924,311.8438
18:38:13:388,-0.8477,-1.2377,9.8327,55.8172,0.2388,0.2724,-0.7037,311.5312
18:38:13:407,-1.0463,-1.1396,9.8133,55.5994,0.1961,0.5601,-0.5699,311.5
18:38:13:427,-1.276,-0.9194,9.8518,55.435,0.1637,0.6457,-0.4722,311.3125
18:38:13:448,-1.4055,-0.6775,9.6888,55.061,0.1991,0.5388,-0.3946,311.2969
18:38:13:469,-1.3765,-0.443,9.4926,54.9851,0.2694,0.3891,-0.3244,311.2969
18:38:13:489,-1.3143,-0.189,9.131,55.1822,0.3555,0.3036,-0.2743,311.9531
18:38:13:509,-1.2879,0.0215,8.511,54.8182,0.4441,0.2779,-0.2468,311.9531
18:38:13:530,-1.4174,0.1507,8.2908,54.4807,0.5021,0.292,-0.2272,312.625
18:38:13:547,-1.4964,0.297,7.8072,54.3312,0.5663,0.3158,-0.1808,312.625
18:38:13:569,-1.5658,0.4071,7.5245,54.1252,0.5809,0.3121,-0.1197,313.8281
18:38:13:590,-1.494,0.4454,7.5942,54.0844,0.5211,0.3109,-0.044,313.8281
18:38:13:608,-1.398,0.4789,7.6373,54.0776,0.4478,0.2547,0.022,316.0938
18:38:13:627,-1.185,0.498,7.6995,53.8357,0.3427,0.1497,0.0739,316.0938
18:38:13:650,-1.0869,0.4836,8.4918,53.5006,0.1912,0.0837,0.113,316.1094
18:38:13:671,-1.0223,0.4597,9.2578,53.6725,0.1222,0.0751,0.1442,318.25
18:38:13:690,-0.7038,0.5291,9.4615,53.6196,0.1735,0.0727,0.1692,319.7188
18:38:13:708,-0.3975,0.7588,9.2004,53.546,0.2486,0.0403,0.1484,319.7188
18:38:13:730,-0.6081,0.8835,9.1167,53.4415,0.2559,0.0067,0.0867,320.625
18:38:13:749,-0.8931,0.8859,9.6027,53.2894,0.204,0.0281,0.0666,320.7188
18:38:13:771,-0.821,0.8931,9.9452,53.458,0.1509,0.0654,0.08,321.4062
18:38:13:787,-0.9434,0.8019,9.9667,53.5773,0.0574,0.0098,0.0275,321.4844
18:38:13:810,-1.4749,0.5985,10.4001,53.8522,-0.3494,-0.2504,-0.1173,322.0938
18:38:13:830,-2.4491,0.419,12.0927,53.844,-0.4423,-0.2095,-0.1393,322.1719
18:38:13:850,-3.833,0.364,13.031,53.9119,-0.3879,0.1472,-0.1692,322.6406
18:38:13:868,-5.1353,0.3162,12.9855,53.9031,-0.1863,0.5858,-0.1118,322.6875
18:38:13:889,-5.2741,0.1125,11.9704,53.7886,-0.0238,0.7263,0.1167,322.875
18:38:13:908,-4.5416,-0.2106,11.9106,53.6735,-0.0214,0.3781,0.3799,322.875
18:38:13:930,-3.4211,-0.4813,11.8771,53.5758,0.0409,-0.1478,0.5375,322.7812
18:38:13:947,-2.5881,-0.6918,11.19,53.8146,0.2456,-0.4355,0.554,322.7656
18:38:13:971,-2.0662,-0.6918,9.7606,53.5688,0.4184,-0.3097,0.5094,322.5156
18:38:13:989,-1.7692,-0.5626,8.5804,53.439,0.3683,-0.0049,0.4551,322.3125
18:38:14:008,-1.8194,-0.4238,8.4607,53.4176,0.1081,0.2236,0.3928,322.3125
18:38:14:028,-1.4462,-0.2297,8.8152,53.1211,-0.1417,0.2743,0.3671,322.2188
18:38:14:048,-1.118,0.0694,9.1143,53.1516,-0.2419,0.2101,0.3164,322.2188
18:38:14:071,-1.0822,0.5626,8.5421,53.1127,-0.1839,0.1332,0.223,322.25
18:38:14:091,-1.2329,1.0152,7.5341,53.0161,-0.1106,0.1173,0.1533,322.25
18:38:14:107,-1.3095,1.319,6.95,52.7192,-0.1393,0.1655,0.1497,322.3906
18:38:14:130,-1.3334,1.3358,7.3164,52.5211,-0.234,0.2358,0.1912,322.4062
18:38:14:149,-1.3669,1.2377,8.1879,52.5342,-0.2578,0.3262,0.2523,322.4062
18:38:14:171,-1.2544,1.2497,7.8766,52.4436,-0.124,0.3916,0.2987,322.5625
18:38:14:187,-1.2185,1.3358,7.2254,52.5866,-0.0208,0.3066,0.3042,321.9531
18:38:14:208,-1.5491,1.3956,6.9643,52.5231,-0.0733,0.1289,0.292,321.9531
18:38:14:229,-1.7285,1.3047,7.7641,52.3346,-0.223,-0.0348,0.3207,320.9531
18:38:14:249,-1.6926,1.3167,8.7218,52.3391,-0.303,-0.0593,0.3751,320.8438
18:38:14:267,-1.6113,1.3669,9.2578,52.4013,-0.2486,0.0147,0.3836,320.0469
18:38:14:288,-1.4988,1.5251,9.2387,52.4039,-0.1472,0.0898,0.3396,319.9688
18:38:14:309,-1.4438,1.7644,9.5237,52.2842,-0.0825,0.0745,0.2431,319.1719
18:38:14:330,-1.6591,2.059,9.6673,52.4838,0.0654,-0.0996,0.0092,319.0938
18:38:14:352,-2.3892,2.0327,10.0337,52.5249,0.0599,-0.1912,-0.0654,318.4375
18:38:14:372,-2.3079,1.7596,10.9026,52.5778,-0.0421,-0.1185,0.0073,318.375
18:38:14:390,-1.9343,1.1827,12.6769,52.8117,-0.1405,0.0794,0.0446,318
18:38:14:408,-2.581,0.2994,13.352,52.8655,-0.0269,0.2095,-0.0702,317.9688
18:38:14:427,-2.3916,1.5562,12.332,52.8102,0.2559,-0.014,-0.0507,317.3906
18:38:14:447,-2.4132,1.209,11.4174,52.9691,0.3439,-0.3665,-0.1252,317.3438
18:38:14:472,-2.3677,0.8596,11.8747,53.182,0.1106,-0.5504,-0.3183,316.6562
18:38:14:489,-2.5089,0.146,13.3328,53.236,-0.1991,-0.4985,-0.3708,315.8438
18:38:14:507,-2.2481,-0.3688,14.1227,53.4086,-0.2321,-0.3213,-0.3665,315.8438
18:38:14:527,-1.8099,-0.6488,13.0095,53.439,0.0232,-0.1833,-0.3818,314.8906
18:38:14:549,-1.1827,-0.6392,10.7566,53.4468,0.3079,-0.1924,-0.4355,314.8906
18:38:14:571,-0.5435,-0.6368,8.985,53.4577,0.4233,-0.3464,-0.5583,314.1875
18:38:14:588,-1.6783,0.0718,8.5971,53.6927,0.3354,-0.6176,-0.7715,314.1875
18:38:14:610,-1.5969,-0.0144,8.796,53.8205,0.135,-0.4581,-0.7104,314.0469
18:38:14:629,-1.2401,0.2632,8.9946,53.8673,-0.0959,-0.0324,-0.5204,314.0312
18:38:14:648,-1.1252,-0.364,9.4783,53.6196,-0.3231,0.0623,-0.4942,314.0312
18:38:14:669,-0.1244,-0.2704,10.0385,53.5893,-0.4813,-0.2114,-0.6047,314.125
18:38:14:728,0.1938,-0.3903,10.6394,53.7169,-0.3464,-0.6157,-0.89,314.0938
18:38:14:729,-0.8258,-0.3616,10.261,53.9369,0.014,-0.73,-1.1478,314.0938
18:38:14:729,-1.7596,0.0718,9.2004,53.9963,0.3891,-0.606,-1.1087,314.4375
18:38:14:747,-1.7859,0.5052,7.9579,54.0282,0.5992,-0.4404,-0.8424,314.4375
18:38:14:767,-1.5156,0.7205,7.0412,53.9819,0.5907,-0.3409,-0.5278,315.1875
18:38:14:787,-0.8596,0.6942,6.9428,54.2811,0.4025,-0.3121,-0.2633,315.25
18:38:14:807,-0.7923,0.7205,7.6636,54.5282,0.1668,-0.3366,-0.113,316
18:38:14:829,-0.7564,0.7253,8.2095,54.4649,0.0312,-0.2333,0.0367,316.0625
18:38:14:848,-0.553,0.7445,8.2095,54.6244,-0.0312,-0.0391,0.3121,317.2188
18:38:14:870,-0.419,1.1372,8.5947,54.4512,-0.0947,0.0916,0.3854,317.3438
18:38:14:887,-0.5243,1.185,9.4854,54.3345,-0.1423,0.3152,0.4661,318.9688
18:38:14:907,-0.4406,1.1922,10.1725,54.3552,-0.091,0.5345,0.5449,319.125
18:38:14:929,-0.1196,1.3478,10.0505,54.3536,0.0654,0.6023,0.5736,320.0781
18:38:14:948,0.0909,1.5993,9.6649,54.1199,0.1716,0.4911,0.5198,321.5625
18:38:14:968,0.0407,1.6448,9.8109,53.8132,0.1301,0.3305,0.4123,321.5625
18:38:14:987,-0.5195,1.7261,10.7112,53.9594,0.0525,0.2169,0.3134,324.0625
18:38:15:007,-0.6224,1.6496,11.1422,54.0398,0.0996,0.1936,0.284,324.0625
18:38:15:028,-0.699,1.4462,10.8787,54.1933,0.1894,0.2541,0.2566,326.0469
18:38:15:047,-1.1611,1.2951,10.8428,54.5097,0.1961,0.1936,0.1833,326.0469
18:38:15:068,-1.628,0.8907,10.8093,54.4283,0.1197,-0.0122,0.1497,326.6094
18:38:15:088,-1.7692,0.3688,11.2044,54.6312,-0.1167,-0.1258,0.2114,326.6094
18:38:15:107,-1.3238,-0.2898,12.8563,54.6188,-0.3903,-0.102,0.3237,326.6094
18:38:15:127,-0.8501,-0.6583,13.8882,55.0471,-0.3494,0.0629,0.3726,326.375
18:38:15:148,-0.9505,-0.699,12.7199,55.3535,-0.0043,0.2608,0.2981,325.5938
18:38:15:169,-1.6424,-0.577,10.8428,55.4586,0.2572,0.3036,0.16,325.5938
18:38:15:188,-2.648,-0.3879,9.8518,55.4495,0.2798,0.1643,0.0586,324.4062
18:38:15:207,-3.2441,-0.2874,9.0712,55.4409,0.2034,-0.0593,0.1026,324.4062
18:38:15:227,-2.6982,-0.0885,8.6952,55.7205,0.0647,-0.2321,0.281,323.1719
18:38:15:248,-1.5012,0.1627,8.7673,55.8003,-0.0965,-0.2669,0.4423,323.1719
18:38:15:268,-0.8186,0.4358,9.1597,56.0452,-0.2199,-0.2083,0.463,322.4375
18:38:15:288,-0.565,0.7325,9.6051,56.0994,-0.2388,-0.1509,0.3873,322.375
18:38:15:307,-0.6416,1.0845,9.306,55.9741,-0.1307,-0.1161,0.273,321.8438
18:38:15:328,-0.8524,1.386,8.4942,56.0034,-0.0037,-0.088,0.1808,321.7969
18:38:15:349,-1.0678,1.6615,7.6636,56.2369,0.0397,-0.102,0.1936,321.5
18:38:15:369,-0.8115,1.6065,7.5197,56.2219,0.0208,-0.1014,0.2627,321.4688
18:38:15:387,-0.4693,1.5778,7.6134,56.0803,0.0104,-0.113,0.3091,320.875
18:38:15:407,-0.4358,1.5778,7.6421,55.8907,0.0165,-0.1112,0.3054,320.8125
18:38:15:428,-0.699,1.5682,7.7115,55.7847,0.0012,-0.0849,0.3024,320.0625
18:38:15:447,-0.754,1.5682,8.2071,55.8214,-0.0574,-0.0421,0.3384,319.9844
18:38:15:468,-0.687,1.5873,8.578,55.9583,-0.0953,0.0079,0.3665,319.8125
18:38:15:488,-0.6511,1.6807,8.5708,55.9696,-0.1136,0.0165,0.35,319.4844
18:38:15:510,-0.3808,1.8242,9.0114,55.8181,-0.171,-0.0605,0.3121,319.4844
18:38:15:527,-0.1699,2.0566,9.8133,56.0823,-0.1936,-0.1332,0.2315,318.4375
18:38:15:548,0.0431,2.4467,9.9069,56.2628,-0.0965,-0.1674,0.1246,318.4375
18:38:15:571,0.201,2.715,9.8997,56.5581,0.0287,-0.2052,0.0018,317.6719
18:38:15:590,0.0909,2.7772,10.1845,56.718,0.0861,-0.1784,-0.1118,317.6719
18:38:15:608,-0.3353,2.4849,10.8643,56.9293,0.0977,-0.0562,-0.1839,317.6562
18:38:15:627,-0.5483,1.8864,11.8962,56.8147,0.1069,0.1209,-0.1875,317.3125
18:38:15:648,-0.268,1.561,12.4253,56.9211,0.2059,0.2205,-0.2016,317.3125
18:38:15:670,-0.4071,1.5562,11.2953,57.2558,0.3268,0.1545,-0.2889,316.8438
18:38:15:689,-0.8859,1.5682,10.8212,57.3657,0.1662,-0.0605,-0.35,316.1875
18:38:15:707,-1.063,1.1109,12.0855,57.5808,-0.234,-0.2297,-0.273,316.1875
18:38:15:728,-0.4693,0.2417,14.0246,57.4113,-0.5498,-0.135,-0.099,315.4844
18:38:15:749,0.2489,-0.7421,15.3341,57.5634,-0.5327,0.1142,-0.0073,315.4844
18:38:15:771,0.5267,-1.051,13.9002,57.4065,-0.1552,0.2553,-0.0935,314.7344
18:38:15:788,0.0431,-0.8668,11.056,57.4759,0.215,0.1625,-0.3042,314.6562
18:38:15:808,-0.2297,-0.3497,9.0544,57.6689,0.2547,0.0244,-0.4435,314.0781
18:38:15:829,-0.3688,0.0479,8.7936,57.5611,0.055,-0.0354,-0.485,314.0156
18:38:15:851,-0.1819,0.1292,9.8901,57.3945,-0.2315,0.3512,-0.4154,313.9062
18:38:15:869,-0.3879,0.1555,10.448,57.3954,-0.1533,0.6047,-0.4282,313.8906
18:38:15:887,-0.7732,0.4334,9.5477,57.5641,0.0953,0.609,-0.4752,314.2344
18:38:15:908,-1.1204,0.7062,8.4631,57.4369,0.237,0.3995,-0.5046,314.2656
18:38:15:929,-1.2712,0.8501,8.4416,57.2807,0.1796,0.1973,-0.4667,314.6719
18:38:15:947,-1.1396,0.8692,8.6545,57.3905,0.1271,0.1167,-0.3781,315.4062
18:38:15:971,-0.9577,0.8812,8.353,57.0463,0.1814,0.1142,-0.2975,315.4062
18:38:15:988,-0.9817,0.8907,7.855,56.9286,0.2511,0.1399,-0.2431,315.7812
18:38:16:008,-1.0343,0.941,7.6253,56.8908,0.2443,0.2022,-0.1765,315.7812
18:38:16:028,-1.0199,0.9386,7.6851,56.6965,0.1747,0.2504,-0.102,315.7812
18:38:16:048,-1.0128,0.8907,8.1449,56.5706,0.0892,0.2456,-0.0501,315.7812
18:38:16:072,-0.9888,0.8716,8.5995,56.4664,0.0495,0.2114,-0.0183,315.7812
18:38:16:090,-0.929,0.9912,8.5469,56.4567,0.0702,0.1527,0.0037,316.6562
18:38:16:107,-0.8477,1.1898,8.377,56.2424,0.0617,0.0898,0.0202,316.6719
18:38:16:128,-0.644,1.3669,8.5947,56.3243,0.0037,0.0073,0.0336,317.6562
18:38:16:148,-0.3855,1.5802,8.9683,56.3255,-0.0232,-0.0617,0.022,317.6719
18:38:16:171,-0.5004,1.8003,9.1597,56.1531,0.0159,-0.0702,-0.033,318.4688
18:38:16:187,-0.8812,2.0351,9.1286,56.1046,0.0721,0.0031,-0.0635,319.5312
18:38:16:208,-1.3502,2.1476,8.9922,56.1256,0.0531,0.1704,-0.0195,319.5312
18:38:16:228,-1.7692,1.9295,9.5333,56.2053,-0.0959,0.3384,0.0941,320.5
18:38:16:250,-1.6543,1.3143,10.826,56.3693,-0.2938,0.4001,0.2303,320.5
18:38:16:267,-1.4749,0.8668,11.8125,56.3797,-0.3806,0.2877,0.2578,321.1719
18:38:16:288,-1.6591,0.6296,11.8436,56.2164,-0.3415,0.0153,0.1533,321.1719
18:38:16:308,-1.9104,0.4501,11.9967,56.152,-0.3683,-0.1704,0.0666,321.5
18:38:16:328,-1.9487,0.0479,12.6936,56.1626,-0.4343,-0.1802,0.0812,321.5312
18:38:16:348,-1.7453,-0.1723,13.2251,56.0119,-0.3781,-0.0098,0.1307,321.6094
18:38:16:370,-2.3055,-0.3114,11.3073,55.8985,-0.0073,0.2828,0.0935,321.6094
18:38:16:390,-2.6958,-0.2225,10.2323,55.5404,0.0654,0.1087,0.0977,321.5938
18:38:16:409,-2.7245,-0.1866,9.2821,55.1498,0.0593,-0.1081,0.171,321.5938
18:38:16:428,-2.3079,-0.1579,9.1286,54.9987,-0.0782,-0.1576,0.2969,321.5312
18:38:16:447,-1.8745,-0.2034,9.7774,54.7424,-0.2718,-0.0281,0.4001,321.5312
18:38:16:471,-1.5993,-0.3209,10.4815,54.3521,-0.3977,0.1228,0.4319,321.6406
18:38:16:489,-1.3071,-0.2297,10.7136,54.2132,-0.3952,0.1295,0.3977,321.5469
18:38:16:507,-1.197,0.0814,10.2347,54.3074,-0.2718,-0.0348,0.2865,321.5469
18:38:16:528,-1.1587,0.5148,9.2964,53.957,-0.1203,-0.2089,0.1576,320.7969
18:38:16:549,-1.2616,0.8453,8.4081,53.9105,-0.0116,-0.248,0.0684,320.7969
18:38:16:571,-1.2688,1.0702,7.989,53.9666,0.0629,-0.1692,0.0354,320.7969
18:38:16:588,-1.3071,1.209,7.3475,53.8987,0.1387,-0.0538,0.0385,320.4219
18:38:16:608,-1.2808,1.3119,6.9595,54.0434,0.1625,-0.0275,0.0617,320.4062
18:38:16:628,-1.2473,1.2975,7.1919,54.0789,0.1167,-0.0776,0.1008,320.0156
18:38:16:648,-1.0199,1.3167,7.5389,54.0231,0.0599,-0.0922,0.16,320.0156
18:38:16:668,-0.9099,1.3119,7.6804,53.7853,0.0092,-0.058,0.1949,319.7031
18:38:16:687,-1.008,1.3669,8.0489,53.9079,-0.0611,-0.0238,0.1997,319.4375
18:38:16:708,-1.0199,1.3597,8.6641,53.6245,-0.1161,0.0122,0.1955,319.4375
18:38:16:729,-1.1563,1.4462,9.1119,53.3657,-0.1161,0.0354,0.1698,318.6094
18:38:16:782,-1.0989,1.6304,9.4783,53.157,-0.0776,-0.0018,0.135,318.6094
18:38:16:783,-0.8883,1.896,9.4783,53.0156,-0.0134,-0.0935,0.0855,317.5
18:38:16:792,-0.699,2.2672,9.1286,52.8897,0.0519,-0.2144,0.0086,317.5
18:38:16:808,-0.6607,2.4849,9.1741,52.4743,0.066,-0.2767,-0.0562,316.9844
18:38:16:828,-0.6296,2.4921,9.7391,52.1819,0.0409,-0.1912,-0.0666,316.9375
18:38:16:849,-0.6248,2.205,10.5174,51.846,0.0195,0.0116,-0.0397,316.8594
18:38:16:873,-0.6894,1.4749,11.6689,51.761,-0.0257,0.1997,-0.0226,316.8438
18:38:16:890,-0.5937,1.1324,12.1669,51.7217,-0.077,-0.0202,-0.0788,316.8125
18:38:16:908,-0.766,0.8258,12.8204,51.6565,-0.1399,-0.2211,-0.1735,316.8125
18:38:16:928,-1.0032,0.213,13.1916,51.4144,-0.1949,-0.2303,-0.2144,316.5938
18:38:16:947,-0.8091,-0.443,13.5888,51.2099,-0.2566,-0.1002,-0.1845,316.5625
18:38:16:971,-0.5028,-0.9458,13.9887,51.193,-0.226,0.0336,-0.1826,316.1719
18:38:16:988,-0.3712,-0.9984,13.0382,50.9716,0.0122,0.0776,-0.273,315.7188
18:38:17:008,-0.8282,-0.8931,11.0369,50.8165,0.2847,0.058,-0.4306,315.7188
18:38:17:028,-1.2712,-0.4884,9.5859,50.8403,0.3537,0.0336,-0.5162,315.6719
18:38:17:048,-1.5682,-0.2512,8.688,50.4863,0.2358,0.0354,-0.5094,315.4375
18:38:17:068,-1.6496,-0.1819,9.2267,50.2924,-0.0079,0.0971,-0.4337,315.4219
18:38:17:089,-1.6089,-0.352,10.6801,49.8709,-0.1912,0.2957,-0.3317,315.5156
18:38:17:108,-1.2592,-0.2874,10.8667,49.6531,-0.1258,0.4447,-0.2333,315.5156
18:38:17:128,-0.9075,-0.0287,9.8758,49.5459,0.0586,0.3488,-0.2144,315.6562
18:38:17:147,-0.9721,0.2489,9.2124,49.5375,0.1503,0.1271,-0.2859,315.6562
18:38:17:171,-1.1492,0.5243,8.8271,49.6013,0.1851,-0.0031,-0.3274,315.6719
18:38:17:189,-0.9912,0.7134,8.3124,49.4956,0.2395,-0.0134,-0.2932,315.9219
18:38:17:209,-0.9266,0.8067,7.9555,49.3769,0.2883,0.0281,-0.2486,315.9219
18:38:17:228,-0.9505,0.9362,7.5221,49.0316,0.3115,0.0874,-0.2059,316.2812
18:38:17:250,-0.9721,0.996,7.2135,49.1902,0.2718,0.1344,-0.1545,316.2812
18:38:17:270,-0.8931,0.9218,7.4001,49.3305,0.1399,0.1161,-0.1057,316.7344
18:38:17:289,-1.13,0.9769,8.4488,49.2091,0.0049,0.0513,-0.0837,316.7344
18:38:17:307,-1.1946,0.8429,8.5804,48.9964,0.0049,0.1032,-0.0202,317.7969
18:38:17:328,-1.3741,1.0534,8.7697,48.7823,0.022,0.1258,0.0507,317.9062
18:38:17:349,-1.4438,1.1539,8.8271,48.4661,0.0171,0.1631,0.1344,318.8906
18:38:17:371,-1.3358,1.2616,8.7242,48.6662,0.025,0.1906,0.2529,318.9844
18:38:17:389,-1.0869,1.7261,9.4807,48.8048,0.1668,0.2254,0.3928,319.4688
18:38:17:409,-1.0247,1.5897,8.8056,48.4251,0.3085,0.292,0.43,319.5156
18:38:17:429,-0.6775,1.9032,8.4583,48.1315,0.27,0.1063,0.4044,320.0312
18:38:17:447,-1.0989,1.5658,8.9061,48.1099,-0.0202,0.0904,0.2559,320.0938
18:38:17:467,-1.331,1.1707,10.2251,48.0841,-0.306,0.4251,0.1429,320.7969
18:38:17:489,-2.4754,0.5722,10.3881,47.7287,-0.5479,0.7355,0.0531,320.8594
18:38:17:508,-2.2361,0.1579,11.3312,47.914,-0.8424,0.5168,0.1197,321.4375
18:38:17:529,-2.1978,-0.6344,12.9832,47.5579,-0.9884,0.1185,0.0739,321.5
18:38:17:547,-1.7644,-0.9362,14.173,47.2176,-0.8845,-0.3311,-0.044,321.8281
18:38:17:571,-1.9753,-0.8931,13.8308,47.3717,-0.6023,-0.4361,-0.2285,321.8594
18:38:17:591,-2.5881,-0.8043,13.2993,47.4371,-0.3934,-0.284,-0.336,321.9688
18:38:17:609,-3.0212,-0.6607,12.708,47.159,-0.2077,-0.0128,-0.3054,321.9688
18:38:17:627,-3.0021,-0.498,11.0943,46.8668,0.025,0.2816,-0.1796,321.7656
18:38:17:648,-2.9782,-0.285,9.3538,47.0325,0.1442,0.4575,-0.0599,321.7656
18:38:17:672,-2.77,-0.2465,8.5588,46.8746,0.0238,0.5278,0.0391,321.0938
18:38:17:689,-2.5161,-0.1819,8.9707,46.6691,-0.226,0.5498,0.1063,320.2656
18:38:17:707,-2.3294,-0.0383,9.2554,46.7539,-0.3867,0.5595,0.1185,320.2656
18:38:17:728,-2.1787,-0.0526,8.985,46.8571,-0.4398,0.5498,0.0709,319.5781
18:38:17:749,-2.6958,-0.0837,8.8869,46.5298,-0.4331,0.4545,0.0574,319.5781
18:38:17:771,-2.6958,0.2273,8.8439,46.5063,-0.3311,0.3494,0.2132,319.0781
18:38:17:787,-2.5642,0.2177,8.6426,46.6384,-0.179,0.3286,0.3714,319.0781
18:38:17:808,-1.8817,0.2874,7.934,46.5332,-0.066,0.3494,0.5272,318.4375
18:38:17:828,-1.2544,0.4358,7.357,46.5863,-0.0147,0.2059,0.5406,318.375
18:38:17:848,-1.1635,0.7062,7.2015,46.5951,-0.0287,-0.0709,0.3977,318.3281
18:38:17:868,-1.8482,0.6894,7.5556,46.6798,-0.0776,-0.2908,0.2333,318.3281
18:38:17:891,-2.3653,0.3879,9.1047,46.313,-0.0867,-0.3286,0.1826,318.8281
18:38:17:909,-1.9295,0.8453,9.2578,46.3246,-0.0018,-0.179,0.2443,318.8906
18:38:17:930,-2.1811,1.3549,9.1717,46.4045,0.1405,-0.0342,0.2737,319.1562
18:38:17:951,-3.0404,1.7668,8.9539,46.4231,0.3549,-0.1643,-0.1087,319.1719
18:38:17:971,-3.7995,2.1069,8.7051,46.4131,0.3628,-0.3445,-0.2059,318.9688
18:38:17:989,-3.5169,2.4706,8.8104,46.1629,0.3445,-0.5718,-0.1289,318.9531
18:38:18:008,-2.916,2.624,8.8726,46.1836,0.328,-0.6316,0.0024,318.5469
18:38:18:027,-2.5113,2.3821,9.3108,45.903,0.2853,-0.5333,0.1179,318.5
18:38:18:048,-1.9295,1.8984,10.1462,45.7993,0.2395,-0.3751,0.2205,318.0312
18:38:18:071,-1.2425,1.2903,11.0034,46.0465,0.2407,-0.2077,0.2608,317.9844
18:38:18:091,-0.7253,0.9505,11.3767,45.9601,0.2737,-0.1136,0.1985,316.9219
18:38:18:107,-0.5674,0.8115,11.0513,45.7042,0.2853,-0.1924,0.055,316.9062
18:38:18:128,-0.6703,0.9338,10.7016,45.6999,0.2242,-0.4276,-0.1319,315.875
18:38:18:148,-1.7501,0.6272,11.0704,45.9031,0.0483,-0.5864,-0.3109,315.875
18:38:18:170,-1.9439,0.28,12.2315,45.9682,-0.1839,-0.5528,-0.281,315.375
18:38:18:188,-1.2784,-0.0742,13.2802,46.1155,-0.2828,-0.4154,-0.1674,314.8438
18:38:18:208,-0.6775,-0.3879,13.5577,46.1758,-0.2022,-0.2419,-0.1472,314.8438
18:38:18:229,-0.1866,-0.4143,12.5761,45.7227,0.0147,-0.1118,-0.2059,315.0156
18:38:18:248,-0.2512,-0.3281,10.9603,45.6362,0.2107,-0.0922,-0.3268,315.0156
18:38:18:267,-0.5985,-0.3018,9.7582,45.7383,0.2052,-0.1057,-0.4025,315.6094
18:38:18:288,-0.4836,-0.2512,9.3658,45.7858,0.0043,-0.0867,-0.3738,315.6094
18:38:18:308,-0.0311,-0.4286,9.7654,45.4598,-0.2468,-0.0373,-0.328,315.6719
18:38:18:330,0.2201,-0.5315,10.2371,45.4331,-0.3641,0.014,-0.369,315.6719
18:38:18:347,0.0239,-0.4071,9.9452,45.1186,-0.2633,0.0012,-0.4765,315.3281
18:38:18:370,-0.2584,-0.2608,10.2419,45.2635,-0.069,-0.0324,-0.5449,315.2969
18:38:18:391,-0.5028,-0.134,10.4839,45.4518,0.5382,0.2614,-0.4447,315.1719
18:38:18:410,-0.7062,0.0933,9.562,45.5551,0.7691,0.3341,-0.35,315.1719
18:38:18:428,-0.8429,0.5004,8.0991,45.4534,0.7636,0.237,-0.2645,315.7188
18:38:18:450,-0.7995,0.8258,6.9906,45.292,0.576,0.0189,-0.2413,315.7656
18:38:18:473,-0.8186,0.9912,6.6197,45.4475,0.3555,-0.1888,-0.2297,316.1562
18:38:18:488,-1.3741,1.0152,7.2565,45.4959,0.1619,-0.2602,-0.1686,316.2031
18:38:18:507,-1.2449,0.8501,8.0297,45.7561,0.0287,-0.2162,-0.0525,316.5156
18:38:18:530,-1.008,0.8979,8.2597,45.6455,0.0043,-0.1173,0.0324,316.5469
18:38:18:548,-1.008,0.9505,8.1832,45.8655,0.0024,-0.0898,0.0348,317.375
18:38:18:570,-1.13,1.0654,8.8319,45.9084,-0.0696,-0.1533,0.0043,317.4531
18:38:18:587,-1.0439,1.2114,9.8782,45.9307,-0.1136,-0.1808,-0.0177,318.1094
18:38:18:609,-1.0104,1.4797,9.9117,45.9259,-0.0049,-0.1771,-0.0379,318.1875
18:38:18:630,-1.1157,1.7859,9.2578,45.88,0.1209,-0.1845,-0.0434,318.9688
18:38:18:647,-0.9936,1.8697,9.3299,45.8158,0.0922,-0.1368,-0.0012,318.9844
18:38:18:668,-1.0463,1.5156,10.084,45.4852,-0.0421,0.058,0.0434,320.1562
18:38:18:690,-1.3214,0.9721,10.9651,45.459,-0.1387,0.2645,0.0696,321.3125
18:38:18:709,-1.7237,0.3042,10.6992,45.1096,-0.1252,0.2443,0.0849,321.3125
18:38:18:730,-1.5634,0.2417,10.3591,44.7928,-0.1527,0.0629,0.1307,322.1875
18:38:18:752,-1.5036,0.0048,10.2084,44.9539,-0.3237,-0.0556,0.2052,322.1875
18:38:18:770,-0.9147,-0.5148,12.3177,44.9256,-0.6225,-0.0367,0.3323,322.7656
18:38:18:837,-0.2776,-1.2712,14.7691,44.8263,-0.7397,0.2236,0.4398,322.7656
18:38:18:837,0.1196,-1.4103,15.1929,44.8006,-0.5107,0.5009,0.4233,322.8125
18:38:18:837,-0.6368,-1.2616,13.6439,44.9643,-0.1185,0.5088,0.2248,322.8125
18:38:18:859,-1.7644,-0.9123,11.2834,45.0864,0.2169,0.2327,0.0336,322.7812
18:38:18:871,-2.1476,-0.3042,9.0975,45.1747,0.3726,-0.0935,-0.0061,322.7656
18:38:18:888,-2.0758,0.2201,7.6205,45.3942,0.2902,-0.2688,0.0391,322.8125
18:38:18:908,-1.8577,0.5818,7.034,45.0283,-0.0122,-0.2682,0.1032,322.8281
18:38:18:929,-1.7261,0.5913,7.7043,44.8147,-0.4331,-0.1759,0.1558,322.9219
18:38:18:949,-1.3549,0.4214,9.4113,44.6119,-0.7226,-0.0024,0.1295,322.9375
18:38:18:970,-1.1683,0.4621,10.5317,44.5246,-0.4331,0.0147,-0.0024,322.7656
18:38:18:988,-1.8529,0.821,8.9372,44.6389,-0.1509,-0.0635,-0.0806,322.75
18:38:19:007,-1.9896,1.0295,8.2717,44.3274,-0.0647,-0.1857,-0.0825,322.4688
18:38:19:028,-1.7477,1.1898,8.0584,44.3848,-0.0721,-0.284,-0.0049,322.4375
18:38:19:048,-1.3693,1.319,8.0489,44.0504,-0.0342,-0.3274,0.0812,321.7188
18:38:19:068,-1.1085,1.3932,7.7689,44.4378,0.044,-0.2492,0.1435,321.6562
18:38:19:088,-1.0175,1.3836,7.8742,44.8562,0.0739,-0.1038,0.1906,320.5156
18:38:19:109,-1.2018,1.3262,8.2095,45.1241,0.0336,0.0348,0.2205,320.4062
18:38:19:130,-1.1779,1.1803,8.9444,45.322,-0.0208,0.0788,0.2669,320.1094
18:38:19:147,-0.7445,1.0989,9.7247,45.0486,-0.0208,0.0489,0.3073,320.1094
18:38:19:170,-0.1555,1.2018,9.8423,45.165,0.0574,-0.0024,0.2926,320.2344
18:38:19:189,0.285,1.4773,9.5381,45.1274,0.135,-0.0806,0.2095,319.8594
18:38:19:209,0.553,1.6208,9.2148,45.3038,0.1552,-0.1729,0.1026,319.8594
18:38:19:227,0.4884,1.5897,9.1932,45.0916,0.1313,-0.1955,0.0079,319.2031
18:38:19:248,0.122,1.2951,9.708,44.9067,0.0874,-0.077,-0.036,319.2031
18:38:19:271,-0.0526,0.917,10.4264,44.6917,0.0586,0.1155,-0.0134,319.1562
18:38:19:289,-0.3377,0.7038,10.7614,44.534,0.0428,0.1857,-0.0104,319.1562
18:38:19:308,-0.62,0.7469,11.3958,44.5187,-0.022,0.08,-0.0354,319.2188
18:38:19:328,-0.8091,0.8139,12.0832,44.547,-0.0599,-0.0892,-0.0513,319.2188
18:38:19:348,-0.6966,1.0534,12.1382,44.6548,0.0055,-0.2822,-0.0507,319.0156
18:38:19:368,-0.4214,1.439,11.4317,44.692,0.1374,-0.5473,-0.0916,318.9844
18:38:19:389,-0.6368,1.4438,11.2283,44.7107,0.1307,-0.631,-0.146,318.5938
18:38:19:408,-0.833,1.13,11.5373,44.7144,-0.0067,-0.427,-0.1069,318.5625
18:38:19:429,0.2632,-0.3592,13.019,44.8156,-0.1808,0.0312,0.0666,317.9688
18:38:19:450,0.6153,-0.8139,12.5952,44.6386,-0.0147,0.1539,-0.0348,317.9219
18:38:19:471,0.1747,-0.8955,10.7375,44.6737,0.1881,0.2645,-0.2333,317.4531
18:38:19:488,-0.7828,-0.8501,9.5764,44.3809,0.1173,0.3714,-0.3793,317.4062
18:38:19:507,-1.2784,-0.8186,9.1645,44.1447,-0.1558,0.4142,-0.3824,317.3594
18:38:19:528,-1.2281,-0.821,9.3156,44.0745,-0.4306,0.3671,-0.3158,317.3438
18:38:19:547,-1.1061,-0.862,9.5166,43.8156,-0.5962,0.3665,-0.2566,317.4219
18:38:19:569,-0.8402,-0.6488,9.9093,43.6035,-0.5785,0.4178,-0.2333,317.4375
18:38:19:590,-0.9434,-0.443,9.4926,43.4865,-0.3696,0.4813,-0.2761,317.4688
18:38:19:609,-1.2544,-0.1795,8.5636,43.4953,-0.1319,0.4826,-0.3305,317.4844
18:38:19:631,-1.4462,-0.0096,8.1135,43.6459,-0.0574,0.4429,-0.3158,317.5938
18:38:19:647,-1.2353,-0.0096,8.4416,43.8358,-0.066,0.3457,-0.2321,317.5938
18:38:19:670,-0.6846,0.0215,8.4512,43.929,0.0195,0.1955,-0.1594,317.9375
18:38:19:690,-0.4478,0.1819,7.5823,44.0173,0.1478,0.0415,-0.1668,318.0156
18:38:19:709,-0.8043,0.297,7.654,44.2133,0.1045,-0.058,-0.1851,318.0156
18:38:19:730,-1.0367,0.1986,8.243,44.3727,-0.0128,-0.0324,-0.0916,317.9375
18:38:19:747,-0.7134,0.0072,8.7218,44.5224,-0.066,0.033,0.0916,317.9375
18:38:19:770,-0.1795,0.0502,9.1525,44.7245,-0.0641,0.0996,0.1979,318.6562
18:38:19:789,-0.0574,0.2369,9.3347,44.7783,-0.0195,0.1515,0.1319,318.6562
18:38:19:808,-0.4358,0.5985,9.4831,44.7996,0.0354,0.1576,-0.0293,319.2969
18:38:19:830,-1.2114,0.711,9.8758,44.6531,0.0715,0.1588,-0.135,319.2969
18:38:19:854,-1.1468,0.9649,9.9523,44.8251,0.1533,0.0794,-0.0831,319.5781
18:38:19:871,-0.4693,1.3023,9.4711,44.9192,0.2431,-0.0867,-0.0128,319.5781
18:38:19:889,-0.2536,1.3406,9.5883,44.8524,0.204,-0.1307,-0.0519,320.0938
18:38:19:908,-0.8282,1.2473,10.5102,44.805,0.0623,0.0647,-0.1411,320.1406
18:38:19:930,-2.8537,0.3712,11.3695,44.7882,-0.0373,0.3292,-0.1393,320.6719
18:38:19:953,-2.892,-0.067,11.4054,44.5762,-0.077,0.0702,-0.0061,320.7188
18:38:19:969,-2.0997,-0.3736,11.4891,44.6061,-0.2388,-0.1472,0.1466,321.0938
18:38:19:988,-1.573,-0.6775,12.1238,44.7483,-0.4178,-0.2932,0.1888,321.125
18:38:20:008,-1.1635,-0.9793,13.1674,44.6714,-0.5076,-0.234,0.1888,321.4219
18:38:20:027,-1.1037,-1.3071,14.0175,44.9175,-0.4197,0.0421,0.1607,321.4531
18:38:20:048,-1.8721,-1.5108,13.2515,45.1569,-0.0922,0.2382,0.0501,321.1406
18:38:20:070,-2.6121,-1.2449,11.1637,45.2252,0.2981,0.1448,-0.036,321.1094
18:38:20:088,-3.0909,-0.8955,8.7912,45.0729,0.4917,-0.0953,-0.0018,321.0156
18:38:20:108,-2.9782,-0.7253,7.3857,45.3106,0.4044,-0.3628,0.1442,321
18:38:20:129,-2.1858,-0.5841,7.4001,45.4504,0.1063,-0.4111,0.3555,321.2656
18:38:20:148,-1.276,-0.6583,8.4679,45.5593,-0.2181,-0.1924,0.5137,321.2969
18:38:20:170,-0.7277,-0.6894,9.3012,45.842,-0.3836,0.0715,0.5388,321.4844
18:38:20:189,-0.4932,-0.4023,9.3491,45.5209,-0.3787,0.2205,0.4587,321.8438
18:38:20:208,-0.6344,-0.0502,8.8056,45.2782,-0.281,0.2016,0.3024,321.8438
18:38:20:228,-0.9194,0.2704,8.286,45.352,-0.2107,0.1515,0.1686,321.9844
18:38:20:248,-1.4151,0.4525,8.3459,45.7212,-0.2089,0.2034,0.1326,321.9844
18:38:20:270,-1.2209,0.5889,8.2908,45.8032,-0.2169,0.3274,0.2388,321.4375
18:38:20:289,-0.5315,0.7588,8.4344,45.9917,-0.1796,0.3292,0.3592,321.4375
18:38:20:309,-0.4358,0.8524,8.4607,45.9911,-0.1197,0.3054,0.3457,320.8281
18:38:20:329,-0.8812,0.8043,8.2884,45.8221,-0.022,0.2242,0.2792,320.8281
18:38:20:348,-1.075,0.8091,8.4703,46.0266,0.0305,0.1435,0.248,320.875
18:38:20:370,-1.1659,0.8186,9.0042,46.218,0.0183,0.1497,0.2242,320.875
18:38:20:389,-1.3836,0.8716,9.2821,46.4965,0.0397,0.1857,0.1784,320.9219
18:38:20:409,-1.5514,0.9649,9.5189,46.5443,0.1216,0.1393,0.124,320.9219
18:38:20:430,-1.8051,1.4844,9.9332,46.7333,0.3292,0.0599,-0.0214,320.0312
18:38:20:455,-1.9729,1.7142,9.7511,46.8171,0.4429,0.0782,-0.0647,319.9531
18:38:20:471,-2.0734,1.7955,9.3897,47.1639,0.5424,0.033,-0.0892,318.7812
18:38:20:490,-1.8888,1.6065,9.1167,47.3414,0.5162,0.014,-0.0623,318.6719
18:38:20:507,-1.5443,1.3884,9.7271,47.4733,0.3146,0.0031,-0.014,318.0938
18:38:20:527,-1.2951,0.862,11.3647,47.6663,0.113,-0.036,-0.014,318.0312
18:38:20:547,-0.5578,0.5171,12.3464,47.6812,0.0831,0.0067,-0.0519,317.5625
18:38:20:570,-0.3449,0.632,11.9536,47.8948,0.2364,-0.0507,-0.2364,317.5156
18:38:20:590,-1.276,0.8019,11.1302,47.7735,0.3555,-0.2608,-0.4997,316.7656
18:38:20:608,-2.6791,0.5076,11.6186,47.9713,0.204,-0.3286,-0.5803,316.6719
18:38:20:629,-2.0782,0.2321,12.8468,47.8745,-0.0489,-0.1075,-0.3103,316.1562
18:38:20:648,-1.0271,-0.4669,13.2562,47.7592,-0.0696,0.1668,-0.0916,316.1094
18:38:20:670,-0.6176,-0.7923,12.6024,48.1314,0.1075,0.3482,-0.0898,315.6719
18:38:20:689,-1.0798,-0.9864,11.1302,48.4611,0.2792,0.3702,-0.179,315.5625
18:38:20:708,-1.7692,-1.0822,10.06,48.4264,0.2388,0.2865,-0.2303,315.5625
18:38:20:728,-1.8984,-1.1563,9.7128,48.2134,0.0202,0.1649,-0.1668,315.875
18:38:20:747,-1.2329,-1.2281,10.0313,48.4866,-0.2285,0.0531,-0.055,315.875
18:38:20:771,-0.3425,-1.0606,10.0193,48.4254,-0.3341,-0.0037,-0.0214,316.3281
18:38:20:790,0.0096,-0.7014,9.1837,48.6929,-0.2767,-0.0373,-0.1588,316.3281
18:38:20:808,-0.443,-0.2345,8.0824,49.1434,-0.19,-0.0397,-0.3879,316.4688
18:38:20:828,-1.6137,0.1268,7.4192,49.22,-0.179,0.033,-0.5577,316.4688
18:38:20:897,-2.3007,0.0502,8.353,49.2561,-0.2572,0.2004,-0.5314,316.875
18:38:20:897,-2.2146,0.0024,9.0544,49.5573,-0.2309,0.4087,-0.3726,316.875
18:38:20:897,-2.0088,0,8.9372,49.9949,-0.0446,0.4496,-0.2547,318.0938
18:38:20:908,-2.0303,0.1196,8.2047,49.983,0.1319,0.2785,-0.1967,318.2031
18:38:20:931,-1.8625,0.1938,7.6493,50.1149,0.193,-0.0855,-0.1246,318.5938
18:38:20:949,-1.319,0.2082,7.6158,50.134,0.1112,-0.4019,-0.0403,318.6406
18:38:20:971,-0.8668,0.201,7.9914,50.0807,-0.0116,-0.5461,0.0024,318.9844
18:38:20:990,-0.4693,0.5004,8.942,50.2552,-0.0739,-0.3916,-0.0764,319.0156
18:38:21:009,-0.7158,0.778,9.3132,50.1388,-0.0342,-0.1888,-0.1326,319.4688
18:38:21:028,-1.0678,0.9099,9.4567,50.1816,0.0189,0.0128,-0.1478,319.5156
18:38:21:048,-1.3406,1.0008,9.8157,50.324,0.0238,0.182,-0.1112,319.4531
18:38:21:071,-1.6591,1.1037,10.1773,50.6808,0.0409,0.2358,-0.0629,319.4531
18:38:21:088,-1.8769,1.0845,10.2969,50.8244,0.1081,0.1613,-0.0257,319.875
18:38:21:108,-1.8817,1.0774,10.2658,50.8838,0.1442,0.0764,0.0214,319.9219
18:38:21:129,-1.9128,0.9625,10.3232,51.2551,0.1191,0.0202,0.0635,320.8906
18:38:21:149,-1.8673,0.7421,10.5269,51.0968,0.0483,0.0312,0.1069,321.625
18:38:21:170,-2.0255,0.3879,10.704,51.5375,-0.0092,0.066,0.1228,321.625
18:38:21:190,-2.138,-0.0215,10.7447,51.8272,-0.0354,0.0647,0.1179,322.0781
18:38:21:208,-1.9128,-0.2584,10.9771,51.7372,-0.0953,0.0745,0.1271,322.0781
18:38:21:229,-1.6089,-0.3832,11.2427,51.7455,-0.1826,0.0794,0.1197,322.1406
18:38:21:253,-1.343,-0.5171,11.6067,51.8968,-0.2853,0.0684,0.102,322.1406
18:38:21:271,-1.3143,-0.644,12.2507,52.0872,-0.3653,0.0739,0.0733,322.1719
18:38:21:290,-1.7285,-0.8258,12.8683,51.9488,-0.3372,0.1026,0.0299,322.1719
18:38:21:309,-2.1141,-0.9027,12.4588,52.0971,-0.1472,0.0892,0.0092,322.4688
18:38:21:331,-2.4706,-0.7851,11.2235,52.021,0.0916,-0.0165,0.0147,322.4688
18:38:21:348,-2.6743,-0.6679,9.6123,51.9304,0.2364,-0.1637,0.0574,322.6875
18:38:21:370,-2.6575,-0.5506,8.5469,52.2142,0.1863,-0.2425,0.1448,322.6875
18:38:21:389,-2.1212,-0.4525,8.6186,52.4233,-0.0354,-0.1753,0.2761,322.7656
18:38:21:408,-1.5227,-0.4956,9.3993,52.5961,-0.234,-0.0519,0.3445,322.7656
18:38:21:430,-1.1468,-0.3473,9.9739,52.7481,-0.284,0.0928,0.3286,322.6406
18:38:21:454,-1.0534,0.0024,9.6242,52.9333,-0.1545,0.1564,0.2315,322.625
18:38:21:471,-1.2138,0.4669,8.7577,52.9554,0.0983,0.088,0.0067,322.375
18:38:21:491,-1.7285,1.0175,7.4432,52.8447,0.0831,0.1008,0.0104,322.3594
18:38:21:510,-1.6854,1.0367,7.3594,52.8907,0.0086,0.1332,0.0849,322.0312
18:38:21:530,-1.4749,0.941,7.8574,53.025,-0.0623,0.1686,0.1784,322
18:38:21:548,-1.2855,0.996,8.176,53.0131,-0.0464,0.1894,0.2199,321.6719
18:38:21:571,-1.494,1.1061,8.0273,53.0306,0.0538,0.1466,0.1765,321.6406
18:38:21:589,-1.8864,1.1755,8.1592,53.0446,0.0953,0.1185,0.135,321.4688
18:38:21:607,-2.0734,1.1707,8.566,53.1257,0.0629,0.1332,0.1649,321.4531
18:38:21:630,-1.9848,1.118,9.0114,53.1354,0.0275,0.1014,0.2205,321.4688
18:38:21:647,-1.8099,1.1228,9.5836,53.3746,0.0049,-0.0037,0.2401,321.4688
18:38:21:670,-1.64,1.1922,10.2012,53.6086,0.0195,-0.1155,0.1997,321.0469
18:38:21:689,-1.774,1.4222,10.3807,53.4022,0.1381,-0.2297,0.0935,320.1719
18:38:21:708,-1.8242,1.774,9.5357,53.2819,0.3329,-0.3549,0.0086,320.1719
18:38:21:730,-1.8625,1.9199,8.9444,53.3177,0.4032,-0.4251,-0.0086,319.7656
18:38:21:748,-1.8242,1.8984,9.3969,53.4401,0.2883,-0.3109,0.0544,319.7656
18:38:21:770,-1.6831,1.4725,10.7853,53.4064,0.1442,-0.0483,0.149,319.7969
18:38:21:790,-1.5395,0.9458,12.1143,53.6075,0.1106,0.2181,0.2004,319.7969
18:38:21:809,-1.1922,0.7205,12.2674,53.5916,0.234,0.2633,0.1723,319.5
18:38:21:831,-1.0391,0.8883,11.645,53.4919,0.3842,0.1161,0.0434,319.5
18:38:21:849,-1.1563,1.1587,10.8404,53.6601,0.4606,-0.1747,-0.1197,319.0625
18:38:21:871,-1.3406,1.1276,10.3376,53.8121,0.416,-0.4416,-0.2248,319.0625
18:38:21:890,-1.5251,0.7397,10.4791,53.9056,0.237,-0.4429,-0.2169,318.7812
18:38:21:908,-0.9194,0.2536,10.6753,53.7599,0.0501,-0.2669,-0.1118,318.7812
18:38:21:930,-0.1172,-0.285,11.2522,53.7863,-0.1362,-0.0586,-0.055,318.3281
18:38:21:948,-0.0837,-0.51,12.3823,54.0624,-0.2413,0.0971,-0.1484,318.2812
18:38:21:970,-0.5818,-0.2201,11.7311,54.3998,-0.0446,0.0342,-0.3433,318.0312
18:38:21:990,-0.7828,0.2776,9.0975,54.5886,0.0104,-0.0843,-0.3653,318
18:38:22:010,-0.3185,-0.1053,10.5437,54.735,-0.416,0.1252,-0.226,318.1875
18:38:22:031,-0.0837,-0.5459,12.2243,54.88,-0.667,0.4337,-0.1643,318.2188
18:38:22:048,0.1196,-0.4358,11.4532,54.9291,-0.5284,0.5388,-0.2449,318.125
18:38:22:071,-0.4238,-0.0574,9.4639,55.295,-0.2621,0.3653,-0.4777,318.1094
18:38:22:089,-1.252,0.2632,7.7186,55.5837,-0.1539,0.19,-0.6622,317.8281
18:38:22:108,-1.9896,0.4884,6.792,55.3901,-0.2175,0.1674,-0.7116,317.7969
18:38:22:129,-2.5259,0.4813,6.4929,55.3532,-0.3659,0.3195,-0.6371,318.0938
18:38:22:149,-2.8155,0.2536,7.7378,55.5255,-0.5125,0.5437,-0.4453,318.1094
18:38:22:170,-2.4658,-0.0766,9.5812,55.6381,-0.4575,0.7379,-0.201,318.75
18:38:22:190,-1.7907,-0.2249,10.005,55.6617,-0.0959,0.7568,-0.08,318.9844
18:38:22:209,-1.4028,-0.067,8.5516,55.7399,0.3176,0.4771,-0.149,318.9844
18:38:22:230,-1.6759,0.2058,7.3379,55.6362,0.3714,0.091,-0.2871,319.4375
18:38:22:253,-2.0423,0.4454,8.2741,55.6621,0.0947,-0.1949,-0.325,319.4375
18:38:22:272,-2.1284,0.5961,9.5883,55.7616,-0.0623,-0.2584,-0.2474,320.3906
18:38:22:291,-2.0399,0.7995,10.0098,55.836,0.0379,-0.0959,-0.1417,320.3906
18:38:22:309,-2.0734,1.1515,9.5859,55.7775,0.2364,0.1313,-0.066,320.5156
18:38:22:330,-2.3079,1.5897,8.9731,55.9727,0.3635,0.2352,-0.0324,320.5156
18:38:22:349,-2.4443,1.7548,8.9874,56.0561,0.3885,0.1271,0.0092,320.5156
18:38:22:370,-2.5017,1.707,9.0879,56.3234,0.4087,-0.0379,0.025,321.0938
18:38:22:388,-2.758,1.3908,9.495,56.5088,0.4258,-0.0629,-0.022,322.4844
18:38:22:409,-3.0691,1.1587,9.926,56.7559,0.4044,0.0812,-0.0556,322.4844
18:38:22:429,-2.9925,0.9984,10.3639,57.0155,0.3146,0.2211,-0.0171,323.3594
18:38:22:453,-2.7365,0.7134,10.8811,57.2077,0.1723,0.2395,0.047,323.4531
18:38:22:469,-2.5259,0.3425,10.6466,57.308,0.0739,0.0922,0.0837,323.625
18:38:22:491,-1.1874,0.055,10.5221,57.3989,-0.2822,-0.1429,0.1374,323.6406
18:38:22:509,-1.1922,-0.1244,11.1685,57.6414,-0.4905,0.0043,0.0916,324.2969
18:38:22:531,-1.7477,-0.4382,12.5282,57.6129,-0.6182,0.2621,0.0641,324.3594
18:38:22:550,-2.26,-0.7493,12.775,57.7669,-0.496,0.4013,0.0745,324.9219
18:38:22:569,-2.6049,-0.5937,11.7646,57.6098,-0.2065,0.1985,0.0904,324.9844
18:38:22:588,-2.7652,-0.3209,10.2969,57.7437,-0.0006,-0.1802,0.1344,325.2812
18:38:22:607,-2.7724,-0.2728,9.7606,57.7442,0.0018,-0.4398,0.2297,325.2969
18:38:22:629,-2.1212,-0.2874,9.8375,57.9453,-0.1106,-0.3922,0.3781,325.5469
18:38:22:649,-1.7046,-0.376,10.084,57.9568,-0.212,-0.2327,0.43,325.5781
18:38:22:671,-1.4509,-0.2536,10.1868,57.8463,-0.2352,-0.1875,0.372,325.8125
18:38:22:691,-1.5132,0.0359,9.993,58.0583,-0.1698,-0.2511,0.2535,326.1562
18:38:22:708,-1.7237,0.5267,9.1741,58.241,-0.0379,-0.3176,0.1393,326.1562
18:38:22:729,-1.9657,0.8955,8.0513,58.4991,0.0672,-0.3189,0.0935,326.0938
18:38:22:748,-1.8984,1.1037,7.8024,58.6045,0.0751,-0.2321,0.1295,326.0938
18:38:22:770,-1.707,1.1276,7.5556,58.7545,0.0959,-0.1093,0.2016,325.7031
18:38:22:791,-1.7261,1.0391,7.1824,58.7772,0.1148,-0.0147,0.2859,325.7031
18:38:22:808,-2.2313,0.8453,7.0579,58.8873,0.0947,0.0336,0.3861,325.2188
18:38:22:829,-2.8155,0.6727,7.2374,58.992,0.0617,0.0953,0.5443,325.1719
18:38:22:855,-2.7843,0.6488,7.0316,58.9062,0.0702,0.1906,0.7446,325.1562
18:38:22:869,-2.2409,0.8091,6.9571,58.8751,0.0641,0.2963,0.8967,324.7656
18:38:22:889,-1.7453,1.13,7.1417,58.9332,0.014,0.3415,0.8986,324.3594
18:38:22:965,-1.3502,1.3382,7.7498,58.9571,-0.0922,0.284,0.7642,324.3594
18:38:22:965,-1.0415,1.5921,8.9324,59.1243,-0.2333,0.1515,0.5779,323.4375
18:38:22:966,-0.862,1.7166,10.2467,59.2625,-0.2785,-0.0073,0.3751,323.3438
18:38:22:968,-0.6057,2.0806,10.9699,59.4601,-0.1698,-0.135,0.2004,322.5938
18:38:22:993,-0.7995,2.272,10.7734,59.6171,0.0269,-0.2254,0.0367,322.5156
18:38:23:008,-0.9314,2.272,10.6872,59.9053,0.1008,-0.2217,-0.0483,322.2812
18:38:23:031,-0.8453,1.8482,11.5636,59.9463,0.025,-0.1374,-0.0623,322.25
18:38:23:054,-0.4454,1.3167,12.5713,59.919,-0.0134,-0.0916,-0.1002,321.9688
18:38:23:070,-0.3544,1.5658,11.2068,59.9767,0.0941,-0.2004,-0.1985,321.9375
18:38:23:091,-0.6416,1.6472,10.515,59.9082,0.1692,-0.5852,-0.4435,321.3281
18:38:23:107,-1.2664,1.252,11.1374,59.9967,-0.19,-0.339,-0.419,321.2656
18:38:23:130,-1.9295,0.3903,13.165,60.0265,-0.5797,0.1582,-0.3036,320.0156
18:38:23:153,-2.1643,-0.4262,14.6112,60.4815,-0.6854,0.6127,-0.1808,319.8906
18:38:23:169,-2.3127,-0.6846,14.6782,60.4925,-0.4111,0.7807,-0.1576,318.1094
18:38:23:191,-2.691,-0.6823,12.6673,60.6944,0.0629,0.6383,-0.2034,316.3438
18:38:23:209,-2.8681,-0.5339,9.8638,60.8994,0.4251,0.2144,-0.2584,316.3438
18:38:23:231,-2.5881,-0.5291,8.6521,61.0458,0.372,-0.0776,-0.2242,315.5625
18:38:23:253,-1.9367,-0.6129,9.1143,61.4079,0.0727,-0.0165,-0.1014,315.5625
18:38:23:270,-1.2353,-0.7828,10.1797,61.4898,-0.1209,0.1662,-0.0159,315.625
18:38:23:288,-0.7301,-0.754,10.4121,61.647,-0.0812,0.3366,-0.0299,315.625
18:38:23:308,-0.498,-0.4645,9.6864,61.4943,0.0892,0.339,-0.1442,315.7812
18:38:23:329,-0.5459,-0.1196,8.6737,61.5694,0.215,0.1863,-0.2981,315.7969
18:38:23:348,-0.6129,0.2321,7.9938,61.779,0.2297,0.0531,-0.4087,315.7969
18:38:23:370,-0.8043,0.5315,7.4623,61.9423,0.2052,0.0367,-0.4673,316.5156
18:38:23:388,-1.0869,0.7469,7.089,61.9952,0.1716,0.1228,-0.4777,317.4688
18:38:23:408,-1.331,0.7636,7.4791,61.7623,0.1045,0.314,-0.4288,317.4688
18:38:23:429,-1.439,0.699,7.9531,61.8228,0.0947,0.5088,-0.3561,317.625
18:38:23:449,-1.6783,0.6105,8.1855,61.552,0.1869,0.5748,-0.3286,317.625
18:38:23:470,-2.0423,0.6488,7.7498,61.6925,0.2712,0.5455,-0.3066,317.9062
18:38:23:489,-2.2911,0.6057,7.8239,61.7378,0.215,0.4007,-0.2529,317.9219
18:38:23:508,-2.3151,0.5865,8.6617,61.719,0.0617,0.2566,-0.168,318.6406
18:38:23:530,-2.2528,0.7756,9.1693,61.6121,0.1136,0.0568,-0.0617,318.7031
18:38:23:554,-2.3294,1.1061,8.4296,61.6942,0.2285,-0.0367,-0.0397,318.8125
18:38:23:571,-2.473,1.3789,7.6899,61.7083,0.2401,-0.1894,0.0067,318.8281
18:38:23:591,-2.3533,1.3932,7.8933,61.8049,0.0837,-0.383,0.1051,319.0156
18:38:23:607,-2.1667,1.0822,9.5189,61.8583,-0.171,-0.507,0.201,319.0312
18:38:23:628,-1.7572,0.6942,11.6163,61.7548,-0.2926,-0.5424,0.2498,319.8594
18:38:23:649,-1.3765,0.8668,11.9752,61.5475,-0.1814,-0.4813,0.1906,319.9531
18:38:23:671,-1.5036,1.3358,11.5134,61.6043,-0.0666,-0.5149,0.0367,321.0156
18:38:23:688,-1.8099,1.695,11.956,61.789,-0.1906,-0.5559,-0.0861,321.9844
18:38:23:708,-2.5137,1.2808,13.1435,61.81,-0.4087,-0.4985,-0.1319,321.9844
18:38:23:728,-2.9495,0.3568,14.0892,61.8712,-0.4722,-0.4044,-0.0953,322.9375
18:38:23:748,-2.8513,-0.4765,14.3743,61.7098,-0.3671,-0.19,0.0079,322.9375
18:38:23:770,-2.8394,-0.9123,13.1626,61.6956,-0.0971,-0.0116,0.047,323.5156
18:38:23:789,-3.1866,-0.9745,10.7231,61.7979,0.1802,-0.0654,0.0147,323.5156
18:38:23:808,-3.5049,-0.9075,8.7003,61.9688,0.2511,-0.2847,0.025,323.5312
18:38:23:829,-3.2919,-0.9003,7.6493,61.78,0.1008,-0.4203,0.1423,323.75
18:38:23:848,-2.6958,-0.9577,8.4009,61.4908,-0.1381,-0.3402,0.3011,323.75
18:38:23:870,-1.9558,-0.9458,9.6003,61.5202,-0.2401,-0.0452,0.4209,323.9531
18:38:23:890,-1.4055,-0.8306,9.4184,61.3097,-0.1509,0.2449,0.4447,323.5781
18:38:23:909,-1.1898,-0.6679,9.0832,61.2111,-0.1014,0.3018,0.3787,323.5781
18:38:23:928,-1.1659,-0.5267,9.4017,61.1411,-0.1564,0.1668,0.2847,322.9219
18:38:23:948,-0.9745,-0.297,9.7391,61.0938,-0.1545,0.0031,0.223,322.9219
18:38:23:969,-0.8115,-0.0072,9.0975,60.9359,-0.0147,-0.1063,0.1607,322.875
18:38:23:989,-0.7828,0.3425,7.934,60.8862,0.1344,-0.1619,0.0935,322.875
18:38:24:008,-0.9194,0.6799,7.0866,61.0703,0.1826,-0.179,0.0507,322.8281
18:38:24:029,-0.9936,0.874,6.6437,60.7755,0.1539,-0.1735,0.0544,322.8125
18:38:24:056,-0.7851,1.0295,6.9404,60.965,0.0037,-0.0525,0.1197,322.625
18:38:24:070,-0.9577,1.0319,7.4934,60.907,-0.0672,-0.0244,0.1118,322.6094
18:38:24:087,-1.0726,1.051,8.3554,60.9399,-0.124,-0.0122,0.1106,322.6719
18:38:24:107,-1.1587,1.1898,8.6402,60.7094,-0.1112,-0.0275,0.1002,322.6875
18:38:24:127,-1.252,1.3908,8.9085,60.7383,-0.0977,-0.0941,0.0678,322.2188
18:38:24:148,-1.1874,1.5778,9.6362,60.8252,-0.1124,-0.1484,0.0421,322.1719
18:38:24:170,-0.9721,1.8051,10.1151,60.7957,-0.0568,-0.1888,-0.0006,321.2188
18:38:24:190,-0.7875,2.0495,10.1557,60.7176,0.0654,-0.2401,-0.0843,320.3906
18:38:24:208,-0.8067,2.2552,10.0528,60.854,0.1478,-0.2627,-0.1826,320.3906
18:38:24:229,-1.0271,2.1619,10.6681,60.9978,0.1197,-0.201,-0.2492,319.8281
18:38:24:247,-1.118,1.7979,11.6856,61.014,0.0837,-0.0574,-0.2688,319.8281
18:38:24:270,-1.1372,1.3334,12.5306,61.0363,0.1301,0.1454,-0.2963,319.7656
18:38:24:289,-1.2233,0.8258,12.8324,61.0949,0.2498,0.3549,-0.3628,319.7656
18:38:24:308,-1.1133,0.6631,11.7144,60.9165,0.4099,0.3244,-0.4649,319.7656
18:38:24:329,-0.8477,0.4454,10.3615,60.763,0.3916,0.0037,-0.6108,319.6562
18:38:24:347,-0.7062,0.146,10.7183,60.8239,0.0623,-0.2162,-0.7538,319.6562
18:38:24:369,-0.8812,-0.0598,11.9536,60.4561,-0.2651,-0.0702,-0.8246,319.3906
18:38:24:388,-1.2353,-0.2393,12.411,60.3936,-0.3195,0.3421,-0.8295,319.0938
18:38:24:409,-1.5084,-0.0359,11.9704,60.5108,-0.1442,0.7153,-0.8216,319.0938
18:38:24:428,-1.9657,0.2752,10.4049,60.5592,0.0654,0.8576,-0.791,318.9062
18:38:24:453,-2.6886,0.51,9.1214,60.4406,0.0525,0.6426,-0.7312,318.9062
18:38:24:470,-2.9136,0.4119,10.0098,60.5075,-0.2046,0.2627,-0.5669,318.9844
18:38:24:492,-2.193,0.1101,11.2714,60.755,-0.3781,0.1008,-0.3097,318.9844
18:38:24:507,-1.4605,-0.2776,11.688,60.9992,-0.3555,0.1497,-0.1148,319.4844
18:38:24:528,-0.9362,-0.309,11.6856,61.1795,-0.2474,0.2309,-0.0525,319.5312
18:38:24:554,-0.9458,-0.1316,10.6202,61.1447,-0.025,0.1845,-0.1271,320.1562
18:38:24:568,-1.1803,0.2608,9.143,61.0485,0.182,0.0134,-0.2327,320.2188
18:38:24:587,-1.398,0.7995,7.0268,61.0288,0.2193,-0.1203,-0.2492,321.2188
18:38:24:608,-1.6352,0.8477,7.4288,61.115,0.0959,0.0293,-0.1991,321.3281
18:38:24:628,-1.8864,0.7229,8.2382,61.1406,0.0507,0.2914,-0.1148,322.8125
18:38:24:648,-2.0949,0.5913,8.3578,60.8146,0.1509,0.4704,-0.0312,322.9531
18:38:24:672,-2.1069,0.5913,8.0895,60.6824,0.2401,0.4636,0.0495,324.4531
18:38:24:690,-2.0853,0.5435,8.0393,60.7365,0.2187,0.3042,0.1118,326.25
18:38:24:707,-1.9032,0.5124,8.6426,60.8491,0.1209,0.1442,0.1668,326.25
18:38:24:728,-1.7596,0.5243,9.119,60.8798,0.0953,0.0886,0.1949,327.8438
18:38:24:747,-1.7836,0.6033,8.7888,60.8885,0.1735,0.0965,0.1814,327.8438
18:38:24:769,-1.7357,0.7469,8.2573,60.8463,0.2046,0.0953,0.1662,327.8594
18:38:24:789,-1.7429,0.8668,8.5804,60.6393,0.1326,0.0495,0.1643,328.0938
18:38:24:807,-1.6759,1.0295,8.985,60.6578,0.0916,-0.0189,0.1808,328.1094
18:38:24:829,-1.8075,0.9912,9.1334,60.5837,0.1112,-0.0904,0.1997,328.2344
18:38:24:853,-1.8314,0.833,9.6123,60.6694,0.0348,-0.0489,0.2437,328.2344
18:38:24:870,-1.6376,0.6153,10.491,60.4744,-0.1087,0.0812,0.3005,328.9219
18:38:24:889,-1.5275,0.3903,11.2762,60.2738,-0.1765,0.2028,0.2865,329.5156
18:38:24:908,-1.9271,0.1555,11.3216,60.1556,-0.1069,0.1319,0.1277,329.5156
18:38:24:929,-2.5977,0.1149,11.3145,60.2191,-0.0373,-0.0819,-0.0727,329.7969
18:38:24:948,-3.0787,0.2082,11.3886,60.4401,-0.0996,-0.2052,-0.1387,329.7969
18:38:25:013,-3.3422,-0.0646,11.3145,60.5246,-0.2211,-0.2724,-0.0696,329.8281
18:38:25:014,-2.7389,0.1029,12.1956,60.5722,-0.3347,-0.3616,0.0825,329.8281
18:38:25:014,-2.004,0.1005,12.2435,60.4603,-0.372,-0.2785,0.1784,329.5469
18:38:25:029,-2.059,-0.1172,12.1525,60.6674,-0.2553,-0.1686,0.1387,329.5156
18:38:25:050,-2.5977,-0.0359,11.348,60.9355,-0.0391,-0.0116,0.0599,329.2969
18:38:25:071,-3.2106,-0.067,10.0528,61.1982,0.2004,0.0434,0.0446,329.2656
18:38:25:091,-2.849,-0.3162,8.6258,61.2263,0.2871,-0.1704,0.1503,329
18:38:25:107,-2.0638,-0.4454,8.4535,61.2063,-0.1649,-0.7446,0.2199,328.9688
18:38:25:128,-1.7812,-0.4669,9.1837,61.2611,-0.4215,-0.7281,0.3024,328.5625
18:38:25:147,-1.3406,-0.3042,9.6553,61.513,-0.4618,-0.6127,0.361,328.5312
18:38:25:170,-1.3884,0.0479,9.3802,61.7259,-0.292,-0.4019,0.3952,327.8594
18:38:25:188,-1.2568,0.5195,8.2214,61.8182,-0.0629,0.0073,0.4557,327.6875
18:38:25:209,-0.6703,0.5243,6.8542,61.9026,0.0098,0.4135,0.5229,327.6875
18:38:25:230,-0.2273,0.6368,6.4762,61.7464,-0.1381,0.5149,0.4636,327.7656
18:38:25:253,-0.067,0.6703,7.3164,61.6984,-0.3451,0.3054,0.3066,327.7812
18:38:25:269,-0.3185,0.7971,8.1832,61.726,-0.4251,0.066,0.1405,327.7812
18:38:25:289,-0.9745,0.9553,9.2339,61.7278,-0.3653,-0.0556,0.0257,327.2188
18:38:25:308,-1.343,1.0104,9.8061,61.2979,-0.1741,-0.0116,0.0348,327.2188
18:38:25:329,-1.3095,0.9864,9.5189,61.1737,0.0647,0.0745,0.1246,326.8906
18:38:25:348,-0.6727,1.1061,8.8893,61.2531,0.1894,0.1069,0.1863,326.8281
18:38:25:370,-0.0407,0.8716,7.7043,61.1339,0.1148,-0.0373,0.124,326.8281
18:38:25:388,-0.5267,1.4701,9.4232,61.3211,-0.1539,-0.4197,-0.0898,326.2969
18:38:25:408,-0.9147,1.506,11.2283,61.3717,-0.2187,-0.4001,-0.2327,326.2969
18:38:25:430,-0.8692,1.4964,11.6498,61.3047,0.0788,-0.1869,-0.2645,325.2344
18:38:25:453,-0.9386,1.7261,10.2778,61.1932,0.5058,-0.0745,-0.2908,325.2344
18:38:25:470,-1.2138,1.7836,9.3969,61.3534,0.6652,-0.1081,-0.2969,324.1719
18:38:25:488,-1.5347,1.628,9.5788,61.2694,0.5333,-0.1313,-0.2138,324.1719
18:38:25:508,-1.5778,1.4028,10.5437,61.145,0.3347,-0.1283,-0.0617,323.1875
18:38:25:529,-0.7947,1.1061,11.3216,61.0384,0.1997,-0.0751,0.08,323.0781
18:38:25:550,-0.2441,0.6679,11.7,60.6562,0.1442,-0.1112,0.0727,322.4219
18:38:25:572,0.2297,1.0917,11.9369,60.6284,0.2162,-0.5711,-0.2126,322.3594
18:38:25:590,0.4717,0.821,11.4269,60.6581,0.2034,-0.4765,-0.3109,322.125
18:38:25:609,1.142,0.4143,11.7526,60.7646,0.058,-0.2621,-0.3439,322.1094
18:38:25:627,1.4629,0.0191,13.1267,60.8274,-0.1197,0.2975,-0.4032,321.875
18:38:25:647,0.9434,-0.3975,13.6846,60.7626,-0.0495,1.1172,-0.5492,321.8594
18:38:25:668,-0.297,-0.4621,12.411,60.6431,0.2657,1.7141,-0.7697,321.7969
18:38:25:688,-1.7716,-0.3257,10.9579,60.743,0.5241,1.5809,-0.9236,322.2188
18:38:25:707,-2.7437,-0.2728,9.3682,61.1075,0.485,0.97,-0.8986,322.2188
18:38:25:728,-2.8896,-0.2177,8.6234,61.1589,0.1258,0.2236,-0.7452,322.25
18:38:25:750,-2.5379,-0.1866,9.1741,61.2532,-0.273,-0.427,-0.5809,323.1562
18:38:25:767,-2.1547,0.0598,9.1956,61.2973,-0.427,-0.6829,-0.4746,323.25
18:38:25:787,-1.9463,0.3162,8.8822,61.3429,-0.3653,-0.6108,-0.438,323.8125
18:38:25:808,-2.1428,0.4932,8.1999,61.2256,-0.1936,-0.3861,-0.4465,323.8125
18:38:25:827,-2.5283,0.577,7.4192,61.3994,-0.0666,-0.1148,-0.4258,323.75
18:38:25:849,-2.6264,0.6296,6.9954,61.4371,-0.0611,0.0165,-0.3183,323.75
18:38:25:868,-2.5786,0.5506,6.8853,61.4572,-0.1289,-0.0293,-0.1936,324.1406
18:38:25:887,-2.3318,0.5722,7.2039,61.0824,-0.226,-0.171,-0.0776,324.9062
18:38:25:908,-2.0136,0.5841,7.8838,60.8713,-0.2993,-0.2981,0.0147,324.9062
18:38:25:928,-1.8745,0.5674,8.3507,60.7781,-0.2914,-0.3042,0.0696,325.9531
18:38:25:949,-2.0112,0.5195,8.3076,60.6723,-0.2352,-0.259,0.102,325.9531
18:38:25:968,-1.9896,0.5435,8.3339,60.7332,-0.2401,-0.2688,0.1539,328.1719
18:38:25:987,-1.8769,0.4454,8.8702,60.5128,-0.3305,-0.3555,0.2175,328.1719
18:38:26:008,-1.4916,0.2752,9.9523,60.3867,-0.4062,-0.4691,0.27,330.0469
18:38:26:027,-0.9529,0.3999,11.1135,60.0744,-0.2975,-0.3867,0.2975,330.2344
18:38:26:048,-0.5076,0.7828,10.8739,60.245,0.0739,-0.1081,0.2999,331.0469
18:38:26:068,-0.3473,1.252,9.2749,60.284,0.4685,0.0727,0.2584,331.125
18:38:26:089,-0.3903,1.3286,8.808,59.9279,0.5198,0.1209,0.2126,331.7812
18:38:26:108,-0.8115,0.7564,9.8686,59.8314,0.2718,0.215,0.226,331.8594
18:38:26:127,-1.0582,0.146,11.1709,59.9122,-0.0086,0.3445,0.2584,332.5469
18:38:26:148,-1.7094,-0.2106,11.8101,59.819,-0.2553,0.0024,0.2401,332.625
18:38:26:167,-1.7859,0.0191,11.348,59.7053,-0.317,-0.4025,0.27,332.7812
18:38:26:187,-1.5395,-0.0981,11.6952,59.9505,-0.4722,-0.7098,0.3555,332.5156
18:38:26:208,-0.8716,-0.2584,12.6936,59.7259,-0.5821,-0.6799,0.4862,332.5156
18:38:26:228,-0.6129,-0.6511,13.0645,59.4193,-0.4557,-0.3549,0.5339,332.4844
18:38:26:248,-0.4765,-0.8692,12.3607,59.6326,-0.1869,0.0238,0.5168,332.0625
18:38:26:268,-0.51,-0.9266,11.1829,59.5539,0.0617,0.1234,0.4508,332.0156
18:38:26:288,-0.6751,-0.7875,10.1462,59.2979,0.2437,-0.1026,0.3891,331.1875
18:38:26:307,-0.6535,-0.7516,8.8176,59.3061,0.3396,-0.3427,0.3873,331.1719
18:38:26:328,-0.4573,-0.6009,7.9555,59.2715,0.2309,-0.4038,0.4123,330.4219
18:38:26:347,-0.2536,-0.2994,8.3387,58.8477,-0.0654,-0.2779,0.4349,330.4062
18:38:26:368,-0.1029,-0.2827,9.3778,58.9885,-0.3494,-0.0489,0.4459,330.2031
18:38:26:388,-0.0263,-0.2489,9.7439,58.9072,-0.46,0.1185,0.4117,329.7812
18:38:26:408,-0.0144,0.122,9.5907,58.7525,-0.4197,0.0996,0.3347,329.7812
18:38:26:429,-0.0837,0.4525,9.143,58.5248,-0.3158,-0.0202,0.2407,329.125
18:38:26:451,-0.1029,0.6296,8.8271,58.5619,-0.2278,-0.1063,0.1607,329.125
18:38:26:468,-0.1029,0.6966,9.0066,58.312,-0.1503,-0.0855,0.0977,328.125
18:38:26:488,-0.2632,0.711,8.7577,58.0744,-0.0092,0.0232,0.0476,328.125
18:38:26:508,-0.3473,0.9003,8.001,57.9767,0.1411,0.1032,0.0324,326.7656
18:38:26:527,-0.5363,1.0534,7.3905,57.8305,0.1826,0.0696,0.044,326.625
18:38:26:548,-0.7708,1.0798,7.1943,58.0009,0.0886,-0.0568,0.08,325.6406
18:38:26:568,-0.8282,0.9817,7.8503,57.996,-0.0837,-0.2022,0.1442,325.5312
18:38:26:588,-0.7277,0.8907,9.0903,58.0563,-0.212,-0.2156,0.2114,324.875
18:38:26:610,-0.2489,0.9242,9.9188,57.853,-0.1973,-0.0977,0.2547,324.8125
18:38:26:628,-0.1125,1.0152,10.2371,57.8813,-0.0232,-0.0409,0.1271,323.9688
18:38:26:649,-0.2922,1.1061,10.5437,57.9227,0.0391,-0.0904,-0.0257,323.875
18:38:26:668,-0.4884,1.2592,10.8452,57.8542,0.1197,-0.1619,-0.1417,322.8281
18:38:26:687,-0.4047,1.2736,11.3599,57.7388,0.193,-0.1692,-0.1839,322.7188
18:38:26:707,-0.2201,0.9769,11.9752,57.6076,0.2718,-0.1057,-0.2028,321.9531
18:38:26:728,-0.2512,0.486,12.897,57.5248,0.3525,-0.0409,-0.2309,321.875
18:38:26:749,-0.2584,0.0718,12.8157,57.363,0.4868,-0.1264,-0.2572,321.5156
18:38:26:768,-0.0502,0.0981,11.3121,57.585,0.5907,-0.3793,-0.284,321.4688
18:38:26:788,0.1819,0.3018,10.2395,57.5202,0.4239,-0.5461,-0.2895,321.4375
18:38:26:807,0.2393,0.1866,10.8523,57.625,0.0214,-0.4972,-0.2511,321.4375
18:38:26:828,0.2827,-0.285,12.5378,57.7007,-0.3134,-0.2144,-0.1808,321.3594
18:38:26:847,0.5315,-0.8644,13.2993,57.6945,-0.3604,0.1692,-0.1466,321.375
18:38:26:868,0.7349,-1.2592,12.9138,57.7945,-0.1576,0.3335,-0.2022,320.875
18:38:26:887,0.5124,-1.2664,11.281,57.7095,0.1393,0.2578,-0.3586,320.25
18:38:26:908,-0.0191,-0.7899,9.4041,57.7703,0.3011,0.0629,-0.4875,320.25
18:38:26:929,-0.2225,-0.5626,8.5756,57.6272,0.2089,-0.1069,-0.4722,320.125
18:38:26:952,0.2776,-0.4238,8.5493,57.5966,0.0024,-0.0727,-0.3744,320.125
18:38:26:969,0.6703,-0.4956,9.1645,57.3105,-0.1686,0.1252,-0.3347,320.5469
18:38:26:988,0.6033,-0.5411,9.4232,57.1945,-0.2193,0.3378,-0.3922,320.5469
18:38:27:007,0.2249,-0.4214,9.3036,57.2697,-0.1863,0.4062,-0.4795,321.1719
18:38:27:064,-0.1819,-0.2512,9.0114,57.0212,-0.1381,0.3457,-0.5223,321.1719
18:38:27:064,-0.431,-0.0933,8.6928,56.9823,-0.1124,0.248,-0.5033,321.9531
18:38:27:068,-0.6846,0.1077,8.4296,57.0343,-0.1014,0.1979,-0.452,322.0156
18:38:27:087,-0.8955,0.213,8.2214,57.0006,-0.0898,0.1942,-0.3751,322.625
18:38:27:109,-0.7349,0.1819,8.2932,56.8079,-0.0556,0.1918,-0.1991,322.6875
18:38:27:131,-0.5387,0.0502,8.365,57.021,-0.0373,0.201,-0.1234,322.8594
18:38:27:153,-0.2249,0.0694,8.4751,57.1923,-0.0379,0.1643,-0.0593,322.875
18:38:27:171,0.0981,0.0359,8.7529,57.2338,-0.0483,0.0953,-0.0244,323.4688
18:38:27:191,0.2154,0.1244,8.6833,57.2898,-0.0336,0.0116,-0.0336,323.5156
18:38:27:207,0.1747,0.297,8.6186,57.4083,-0.0367,-0.0507,-0.055,324.5938
18:38:27:228,-0.0048,0.4358,8.9085,57.4267,-0.0794,-0.0837,-0.0647,324.7031
18:38:27:249,-0.0383,0.6009,9.4735,57.4662,-0.1045,-0.0757,-0.0623,325.375
18:38:27:269,-0.2249,0.6153,9.9356,57.5705,-0.0715,-0.0159,-0.058,325.4531
18:38:27:289,-0.3377,0.6918,9.8518,57.6354,0.011,0.044,-0.036,326.2656
18:38:27:309,-0.2946,0.8835,9.6027,57.6239,0.0293,0.1057,0.0098,326.3594
18:38:27:330,-0.2922,0.8186,10.2491,57.7318,-0.0953,0.1851,0.055,327.4531
18:38:27:354,-0.5028,0.4669,11.645,57.8494,-0.2114,0.281,0.0819,327.4688
18:38:27:371,-0.9793,0.0861,12.1286,58.0608,-0.1521,0.2761,0.0776,328.3594
18:38:27:389,-1.3238,-0.0287,11.4915,58.0377,-0.0269,0.0861,0.0959,328.8906
18:38:27:408,-1.3143,-0.0981,11.0201,58.1539,-0.0672,-0.1246,0.1845,328.8906
18:38:27:429,-1.1515,-0.4669,11.6426,58.3191,-0.2828,-0.2627,0.2999,329.1094
18:38:27:454,-0.5554,-0.7493,12.5474,58.1874,-0.4239,-0.2517,0.3885,329.1094
18:38:27:470,-0.1699,-0.9386,12.7247,58.2841,-0.3702,-0.0086,0.3897,329.1719
18:38:27:489,-0.6823,-1.1898,12.6984,58.1644,-0.2401,0.2627,0.2926,329.1719
18:38:27:508,-1.1803,-1.2449,12.2435,58.2621,-0.0696,0.3787,0.2431,329.25
18:38:27:529,-1.2616,-1.1707,10.893,57.8501,0.1484,0.2853,0.2651,329.25
18:38:27:554,-1.2138,-1.3597,9.0927,57.8778,0.27,0.022,0.3091,329.3281
18:38:27:569,-0.7158,-1.4557,8.3387,57.5956,0.1631,-0.2724,0.3616,329.3281
18:38:27:591,-0.1364,-1.1348,9.4352,57.6044,-0.3054,-0.0611,0.3213,329.375
18:38:27:608,-0.1723,-0.8931,9.9452,57.8583,-0.394,0.1203,0.2535,329.375
18:38:27:631,-0.1651,-0.5339,9.8734,57.5995,-0.3378,0.1356,0.1607,329.2188
18:38:27:652,-0.2827,-0.0909,9.3156,57.5217,-0.2059,0.0434,0.0336,329.2031
18:38:27:668,-0.5794,0.309,8.6617,57.4077,-0.0898,-0.0562,-0.0739,329.0156
18:38:27:688,-0.5889,0.6655,8.1544,57.8051,-0.0159,-0.0892,-0.0959,328.9844
18:38:27:708,-0.3425,0.7828,7.8861,57.9164,0.0177,-0.0635,-0.0696,328.3906
18:38:27:728,-0.2106,0.7923,7.9077,57.9076,0.036,-0.0238,-0.0678,328.3281
18:38:27:754,-0.3568,0.8306,7.9651,57.7909,0.0788,-0.0012,-0.0953,327.3125
18:38:27:770,-0.7469,0.8091,8.0441,57.6693,0.1161,0.0177,-0.099,327.2188
18:38:27:790,-0.9099,0.8306,8.1903,57.6391,0.1222,0.0128,-0.0348,326.6562
18:38:27:807,-0.8716,0.8019,8.4081,57.6548,0.0941,-0.0147,0.0635,326.6094
18:38:27:829,-0.7014,0.699,8.8104,57.5945,0.0415,-0.0507,0.1442,326.125
18:38:27:852,-0.486,0.711,9.2363,57.3025,-0.0061,-0.0819,0.1851,326.125
18:38:27:869,-0.2874,0.874,9.8901,57.2114,-0.0391,-0.1191,0.1674,325.2812
18:38:27:888,-0.1555,1.0893,10.4169,57.4069,0.0116,-0.1716,0.0935,324.4688
18:38:27:908,-0.1316,1.3238,10.3352,57.4712,0.1515,-0.2297,-0.0104,324.4688
18:38:27:929,-0.3185,1.4844,10.0265,57.4208,0.2578,-0.2584,-0.1051,324.0938
18:38:27:953,-0.5698,1.3071,10.2084,57.4969,0.2547,-0.2004,-0.1399,324.0938
18:38:27:971,-0.3042,0.7349,11.1781,57.4015,0.1765,-0.0617,-0.1075,324.2344
18:38:27:988,0.3066,-0.0072,12.5043,57.4869,0.135,0.0635,-0.1228,324.2344
18:38:28:008,0.5148,-0.3473,12.9951,57.4676,0.226,0.0935,-0.2688,324.3906
18:38:28:030,0.3473,0.1627,12.2387,57.42,0.3732,0.0935,-0.4722,324.3906
18:38:28:051,-0.6799,0.2776,11.4174,57.2735,0.3286,0.0409,-0.6206,324.6406
18:38:28:069,-1.2401,0.0957,11.8938,57.1322,0.0538,-0.08,-0.5388,324.6719
18:38:28:088,-0.6966,-0.2273,12.7056,56.9848,-0.1802,-0.1313,-0.2993,324.7031
18:38:28:108,0.3855,-0.7493,12.6577,56.8081,-0.2437,-0.0709,-0.1118,324.7031
18:38:28:131,1.3262,-1.2257,11.7742,56.7289,-0.0006,-0.0373,-0.2755,324.375
18:38:28:153,0.5004,-0.9697,10.005,56.4479,0.201,-0.0055,-0.4807,324.3438
18:38:28:171,-0.1125,-0.5841,8.6928,56.1909,0.2181,0.0415,-0.5357,324.0469
18:38:28:189,-0.0909,-0.4717,8.6689,55.9693,0.0721,0.1161,-0.4539,324.0156
18:38:28:207,0.0431,-0.5674,9.0951,55.7315,-0.0696,0.2395,-0.3488,324.1875
18:38:28:227,0.3425,-0.5889,9.4304,55.412,-0.1319,0.3482,-0.2749,324.2031
18:38:28:249,0.4262,-0.5818,9.5453,55.2217,-0.1155,0.372,-0.2633,324.5312
18:38:28:269,0.2441,-0.4071,9.3802,55.021,-0.0373,0.3256,-0.3146,324.5625
18:38:28:291,-0.285,-0.2154,8.863,54.6931,0.0599,0.2706,-0.3848,325.0625
18:38:28:309,-0.7493,-0.0072,8.4368,54.4709,0.1258,0.2089,-0.3891,325.1094
18:38:28:329,-0.917,0.1029,8.1278,54.4307,0.1631,0.1686,-0.3372,326.5156
18:38:28:348,-0.9242,0.1819,7.855,54.3406,0.1918,0.1741,-0.2737,326.5312
18:38:28:371,-1.1731,0.2922,7.6253,54.101,0.2114,0.212,-0.2407,327.3906
18:38:28:389,-1.4246,0.3855,7.5775,53.9044,0.2034,0.2504,-0.1942,327.5
18:38:28:409,-1.4222,0.4406,7.6493,53.8261,0.1643,0.2853,-0.0916,327.5
18:38:28:430,-1.2951,0.443,7.7521,53.6169,0.1038,0.281,0.0189,328.375
18:38:28:453,-0.984,0.4717,8.0752,53.6515,0.0116,0.1973,0.1014,328.375
18:38:28:471,-0.5961,0.4836,8.7769,53.7331,-0.0898,0.0825,0.1478,329.5625
18:38:28:489,-0.3784,0.5124,9.4807,53.4801,-0.1374,-0.0318,0.1405,329.5625
18:38:28:509,-0.3066,0.6846,10.0624,53.3587,-0.1142,-0.1228,0.1014,330.25
18:38:28:530,-0.2441,0.8979,10.3929,53.3941,-0.0263,-0.1203,0.08,330.25
18:38:28:554,-0.2249,1.0869,10.1892,53.4182,0.1069,-0.0776,0.0849,330.9219
18:38:28:572,-0.2489,1.2568,9.7822,53.1341,0.1704,-0.0189,0.113,330.9219
18:38:28:590,-0.2058,1.1109,10.005,52.9766,0.0739,0.0385,0.1765,331.7969
18:38:28:609,-0.079,0.6272,11.0943,52.7293,-0.0837,0.0709,0.2382,331.8906
18:38:28:632,0.0431,-0.1531,12.3057,52.1848,-0.0928,-0.1692,0.2083,332.625
18:38:28:653,-0.4501,-0.4095,12.2483,52.0289,-0.1118,-0.2749,0.1435,332.7031
18:38:28:671,-0.7947,-0.7253,12.8994,51.6761,-0.2217,-0.2278,0.1466,333.2969
18:38:28:689,-0.3664,-0.929,13.4046,51.2973,-0.215,-0.0421,0.2291,333.3594
18:38:28:708,-0.268,-1.2281,13.0573,50.9184,-0.0305,0.1258,0.2382,333.5625
18:38:28:729,-0.5411,-1.1348,12.047,50.6105,0.2162,0.146,0.1692,333.5781
18:38:28:748,-0.9529,-0.862,10.4551,50.4943,0.4282,0.0269,0.0831,333.3438
18:38:28:768,-1.197,-0.5961,8.9061,50.2476,0.4832,-0.1662,0.0489,333.3281
18:38:28:790,-1.209,-0.2752,8.1736,50.2839,0.3164,-0.2761,0.1124,333
18:38:28:808,-0.9434,-0.0431,8.2549,49.9689,-0.0153,-0.1778,0.2401,332.9688
18:38:28:830,-0.5195,-0.2225,9.3491,49.7481,-0.3751,0.0232,0.3445,332.7969
18:38:28:847,-0.2297,-0.4813,10.5652,49.5155,-0.5718,0.2089,0.3457,332.7812
18:38:28:870,-0.1077,-0.297,10.85,49.284,-0.5174,0.3121,0.2578,332.5469
18:38:28:889,-0.3879,0.0239,10.0672,49.2373,-0.317,0.2975,0.1032,331.9531
18:38:28:909,-1.0152,0.3353,8.9563,49.0355,-0.1472,0.1222,-0.0476,331.9531
18:38:28:930,-1.343,0.7038,8.2143,48.8355,-0.0684,-0.1313,-0.0733,331.4531
18:38:28:954,-1.1779,0.9003,7.7378,48.5336,-0.0287,-0.2816,-0.0043,331.4531
18:38:28:971,-0.6894,0.9362,7.4767,48.5287,-0.0055,-0.2468,0.0959,330.8906
18:38:28:989,-0.2417,0.9075,7.4001,48.29,0.0012,-0.1252,0.1613,330.8906
18:38:29:008,-0.0479,0.8139,7.654,47.9137,-0.0104,-0.0214,0.1539,330.5156
18:38:29:029,0.0215,0.7947,8.1087,47.6803,-0.0159,0.0409,0.1124,330.5156
18:38:29:053,-0.1842,0.766,8.2741,47.4673,0.0018,0.0605,0.0605,330.625
18:38:29:070,-0.3329,0.8524,8.377,47.2334,-0.0061,0.0287,0.0342,330.625
18:38:29:125,-0.1819,0.9745,8.9204,46.9165,-0.0525,-0.0354,0.0324,330.3281
18:38:29:125,-0.0311,1.1109,9.6362,46.6422,-0.0538,-0.0898,-0.0043,330.2969
18:38:29:133,-0.5171,1.6783,9.6386,46.2982,0.1545,-0.2089,-0.1558,329.375
18:38:29:154,-0.7636,1.7883,9.6506,46.0767,0.1778,-0.2419,-0.1564,329.2812
18:38:29:171,-0.7205,1.6137,10.1845,46.0548,0.0983,-0.2162,-0.0721,328.75
18:38:29:191,-0.1699,1.0774,11.566,45.8067,0.0012,-0.102,0.0318,328.6875
18:38:29:209,-0.0885,0.4669,12.3894,45.4628,0.0195,0.0666,0.0483,328.75
18:38:29:229,-0.201,0.431,11.8436,45.3018,0.1173,0.0855,0.0189,328.75
18:38:29:253,-0.5315,0.3473,11.3647,45.0494,0.0373,-0.022,0.014,328.6094
18:38:29:271,-0.7158,-0.3927,12.047,45.099,-0.2969,-0.0996,0.1234,328.5938
18:38:29:291,0.1842,-1.3549,13.826,44.9095,-0.6261,-0.1319,0.3158,328.25
18:38:29:308,1.319,-1.9848,14.6949,44.5516,-0.6762,0.0086,0.4129,328.2188
18:38:29:330,1.1372,-2.1165,14.1132,44.1958,-0.4166,0.2529,0.2779,328.0469
18:38:29:348,0.5865,-1.343,12.2722,43.9867,0.0134,0.3922,0.099,328.0312
18:38:29:370,0.1938,-0.6942,10.1151,43.7877,0.3787,0.3561,-0.1191,327.9531
18:38:29:389,0.0072,-0.498,8.6617,43.3295,0.5021,0.2566,-0.3274,328.0312
18:38:29:409,0.0383,-0.3712,7.9986,43.2711,0.3885,0.2914,-0.3903,328.0312
18:38:29:430,0.0502,-0.3592,8.1135,42.5771,0.1393,0.4899,-0.3464,328.4219
18:38:29:448,-0.189,-0.3999,8.6019,42.2091,-0.124,0.7501,-0.2645,328.4219
18:38:29:470,-0.6033,-0.4334,9.1214,41.9055,-0.3311,0.9755,-0.1796,328.4531
18:38:29:489,-0.7756,-0.4573,9.0688,41.9852,-0.4398,1.0757,-0.102,328.4531
18:38:29:508,-1.0869,-0.4597,9.009,41.702,-0.4154,0.8289,0.0043,328.4375
18:38:29:531,-1.9681,-0.7947,10.1725,41.2711,-0.1478,0.5846,0.2718,328.4375
18:38:29:552,-2.1428,-0.7325,8.1592,41.0303,0.0452,0.9425,0.6353,328.2031
18:38:29:568,-1.8673,-0.3209,8.5971,40.6792,0.1497,0.9468,0.901,328.2031
18:38:29:589,-1.4892,0.486,9.0832,40.3355,0.2651,1.1215,0.9309,327.125
18:38:29:608,-1.8553,0.9697,9.0544,40.1057,0.5412,1.2064,0.7538,327.0156
18:38:29:631,-2.4323,0.984,8.6593,39.9572,1.3659,0.2785,0.4783,326.5938
18:38:29:655,-2.2959,0.9984,8.1712,39.3568,1.4221,-0.0403,0.4539,326.5625
18:38:29:671,-1.8745,1.0247,6.9141,39.2823,1.1563,-0.2908,0.4178,327.2969
18:38:29:691,-1.0774,1.0175,6.9021,39.0463,0.7813,-0.3934,0.2651,327.3594
18:38:29:708,-1.4653,1.9657,6.591,38.9135,0.3897,-0.3103,0.1234,328.3281
18:38:29:730,-1.1659,2.1619,7.1512,38.6987,-0.1191,-0.3305,0.0941,328.4219
18:38:29:753,-1.2497,2.0877,8.2358,38.7316,-0.6206,-0.2065,0.1032,328.9219
18:38:29:769,-1.5251,1.64,10.1749,38.6172,-0.7684,-0.2211,0.0935,328.9531
18:38:29:790,-1.1396,1.5132,11.6091,38.286,-0.5327,-0.3842,0.047,329
18:38:29:808,-1.7836,1.319,11.7239,38.4038,-0.1558,-0.3995,-0.0324,329.0156
18:38:29:830,-2.782,1.1204,11.1039,38.1129,0.0324,-0.1875,0.0324,328.25
18:38:29:852,-2.849,0.9625,11.1446,38.0156,-0.0415,-0.0855,0.2193,328.1719
18:38:29:871,-2.3557,0.5219,11.8149,37.735,-0.1845,-0.223,0.3201,326.5469
18:38:29:889,-2.1811,-0.0335,11.6904,37.5645,-0.1857,-0.584,0.3042,325.8906
18:38:29:909,-0.9721,0.6129,10.5796,37.413,-0.0788,-1.0262,0.3292,325.8906
18:38:29:930,-0.862,0.5818,8.7625,37.0381,-0.1258,-1.4075,0.1698,326.0625
18:38:29:948,-1.7859,-0.1436,10.1103,36.857,-0.6359,-1.7972,0.0415,326.0625
18:38:29:970,-1.0845,-0.0479,13.5745,36.422,-1.3494,-1.7013,0.1527,326.0938
18:38:29:989,-0.3449,-0.4836,15.8034,36.2875,-1.4612,-1.4075,0.3018,326.0938
18:38:30:009,-0.6176,-0.941,14.2328,36.1622,-0.81,-1.1844,0.3292,325.9531
18:38:30:029,-0.6416,-0.9912,11.3336,36.0945,-0.055,-1.0042,0.2456,325.9531
18:38:30:054,-0.5602,-0.9266,9.009,35.8534,0.2743,-0.6903,0.1906,325.25
18:38:30:070,0.4454,-0.2898,7.8024,35.8626,0.1295,-0.1087,0.281,325.1719
18:38:30:090,1.142,-0.2154,7.3068,36.0171,-0.204,0.452,0.2908,324.875
18:38:30:108,1.0223,-0.419,7.1704,35.802,-0.5369,0.8717,0.1509,324.8438
18:38:30:129,0.079,-0.4765,7.9101,35.8079,-0.8082,1.1918,0.0092,324.5781
18:38:30:148,-1.0128,-0.8139,8.4846,35.7311,-0.9383,1.3757,0.0287,324.5469
18:38:30:171,-0.7516,-0.055,9.6434,35.5485,-0.4642,1.0103,0.5088,323.7812
18:38:30:191,-0.4765,0.2752,9.1502,35.4874,-0.1008,0.7752,0.6029,323.7031
18:38:30:209,-0.3927,0.5578,8.578,35.4121,0.1716,0.4349,0.5406,323.0625
18:38:30:230,-0.443,0.7469,8.0154,35.4255,0.2669,0.1735,0.3897,323
18:38:30:253,-0.6296,0.7875,7.7234,35.2391,0.1643,0.036,0.2449,322.0625
18:38:30:271,-0.699,0.874,7.8215,35.3714,-0.0861,-0.0324,0.1631,321.9688
18:38:30:290,-0.6918,0.8306,8.1182,35.2045,-0.3818,-0.1057,0.1295,320.5781
18:38:30:308,-0.5459,0.6057,8.6617,35.0062,-0.6347,-0.2614,0.1234,320.4531
18:38:30:331,0.0957,0.577,9.6123,34.9671,-0.7831,-0.5296,0.091,319.9531
18:38:30:352,0.5794,0.5459,10.637,34.8688,-0.752,-0.8552,-0.0599,319.9062
18:38:30:371,0.6081,0.5746,11.2116,34.9895,-0.529,-1.0971,-0.273,319.2812
18:38:30:390,0.309,0.4262,11.4676,34.8338,-0.1979,-1.1429,-0.4319,318.8594
18:38:30:409,0.0885,0.2898,11.9919,34.7962,0.1393,-0.9486,-0.4563,318.8594
18:38:30:431,0.1914,0.012,11.9489,34.6623,0.4264,-0.5094,-0.3518,318.2188
18:38:30:448,0.6153,-0.2249,11.6521,34.6711,0.5724,-0.2065,-0.2694,318.2188
18:38:30:471,1.0487,-0.5435,11.3504,34.8215,0.5546,-0.3213,-0.3445,316.9688
18:38:30:489,1.3717,-0.8378,11.2786,34.7258,0.4276,-0.7184,-0.5455,316.9688
18:38:30:509,1.118,-0.9721,11.5517,34.5184,0.1417,-0.945,-0.6646,316.1406
18:38:30:529,0.9099,-0.8812,12.8827,34.3496,-0.237,-0.8124,-0.5259,316.1406
18:38:30:548,1.4079,-1.0295,14.4078,34.1436,-0.4649,-0.2785,-0.2871,316.1406
18:38:30:571,1.9992,-1.6113,14.6638,34.007,-0.3531,0.2975,-0.2254,315.7188
18:38:30:589,2.2457,-1.8864,13.8284,34.066,0.0061,0.576,-0.4007,315.0469
18:38:30:608,1.7453,-1.9152,12.2435,34.0928,0.4319,0.609,-0.7153,315.0469
18:38:30:630,0.8354,-1.6687,10.3184,33.8398,0.7043,0.5308,-0.9621,314.4062
18:38:30:653,0.0694,-1.3573,9.119,33.9707,0.6896,0.3934,-1.0299,314.3438
18:38:30:670,-0.1125,-0.7684,8.93,34.371,0.2144,0.2285,-0.8417,314.625
18:38:30:691,0.1484,-0.5483,9.1549,34.7559,0.0996,0.3555,-0.7599,314.6562
18:38:30:710,0.2177,-0.498,8.9013,34.7021,0.1393,0.5773,-0.733,315.4688
18:38:30:731,0.146,-0.4214,8.5756,34.6817,0.215,0.7691,-0.7342,315.5469
18:38:30:749,-0.1053,-0.2898,8.5277,34.5834,0.2547,0.8479,-0.7342,316.4219
18:38:30:771,-0.3808,-0.2082,8.4153,34.5481,0.2645,0.8014,-0.7104,316.5
18:38:30:791,-0.5411,-0.1364,8.1063,34.7328,0.2395,0.631,-0.6658,317.7031
18:38:30:809,-0.687,-0.0263,7.9316,34.5762,0.1857,0.369,-0.62,317.8281
18:38:30:830,-0.9147,0.1196,7.7019,34.2198,0.1368,0.1051,-0.5699,318.375
18:38:30:847,-1.1587,0.2704,7.5966,34.0018,0.0965,-0.1185,-0.4948,318.4375
18:38:30:870,-1.3549,0.3951,7.6708,34.0615,0.0513,-0.2315,-0.3824,319.0625
18:38:30:890,-1.427,0.4836,7.8718,33.9132,-0.0012,-0.2095,-0.2303,321.4062
18:38:30:909,-1.2233,0.5985,8.2143,33.911,-0.0611,-0.1381,-0.0544,321.4062
18:38:30:931,-0.8258,0.6248,8.6474,33.7823,-0.1063,-0.077,0.1093,323.9688
18:38:30:948,-0.3377,0.6583,9.0281,33.7684,-0.1112,-0.0281,0.2126,323.9688
18:38:30:969,-0.0239,0.7804,9.306,33.6803,-0.0812,0.0079,0.237,325.8906
18:38:30:989,0.0144,0.9888,9.4902,33.744,-0.0287,0.0104,0.2162,325.8906
18:38:31:008,-0.0598,1.1372,9.6458,33.5163,0.0348,-0.0348,0.2022,327.7656
18:38:31:031,-0.0861,1.1228,9.9308,33.3833,0.0874,-0.0727,0.2126,327.7656
18:38:31:053,-0.134,0.9649,10.2443,33.4446,0.1387,-0.0507,0.2407,327.7969
18:38:31:071,-0.0072,0.5889,10.637,33.4461,0.1771,0.014,0.2865,329.7188
18:38:31:088,-0.0383,0.1603,10.5796,33.4507,0.1662,0.0269,0.3115,331.4062
18:38:31:108,-0.2898,-0.1938,10.7136,33.3574,0.0666,-0.1912,0.3024,331.4062
18:38:31:172,-0.3162,-0.268,11.0824,33.1902,-0.1179,-0.5375,0.3366,332.5469
18:38:31:172,-0.2512,-0.309,11.8603,32.9909,-0.3518,-0.689,0.4306,332.6406
18:38:31:173,0.0622,-0.5818,12.6697,32.9254,-0.507,-0.5235,0.5724,333.2344
18:38:31:190,0.6344,-0.8596,13.0143,32.6836,-0.4722,-0.1545,0.6493,333.2812
18:38:31:209,0.9099,-0.984,12.7678,32.4641,-0.1069,0.416,0.3946,333.1562
18:38:31:233,-0.1077,-0.996,11.4628,32.3825,0.1008,0.3421,0.2395,333.1406
18:38:31:252,-0.6392,-1.0008,10.2538,32.3127,0.2486,0.0318,0.1802,332.6562
18:38:31:271,-1.0175,-1.0271,9.4304,32.2062,0.2407,-0.2614,0.2187,332.5938
18:38:31:289,-0.7971,-0.9003,9.2195,32.1989,0.0837,-0.2798,0.3329,332.1875
18:38:31:307,-0.1962,-0.7086,9.6027,32.0176,-0.1381,-0.0574,0.4429,332.1406
18:38:31:329,0.3975,-0.5219,9.8806,31.883,-0.2859,0.2114,0.4746,331.7344
18:38:31:351,0.6368,-0.3042,9.6577,31.9901,-0.2938,0.3189,0.4148,331.6875
18:38:31:369,0.6248,0,9.1262,31.9598,-0.2052,0.234,0.2944,331.1875
18:38:31:388,0.5243,0.2776,8.5301,31.8823,-0.0855,0.0843,0.16,330.3281
18:38:31:409,0.4358,0.5148,8.0106,31.7977,0.0128,-0.0269,0.0519,330.3281
18:38:31:429,0.3664,0.6751,7.6588,31.742,0.0733,-0.0739,-0.0086,328.8438
18:38:31:448,0.2273,0.7516,7.4695,31.8735,0.1081,-0.0531,-0.0202,328.8438
18:38:31:469,0.079,0.7445,7.2278,31.9942,0.1222,-0.0165,-0.0037,327.2812
18:38:31:488,-0.0024,0.7421,7.3666,32.1127,0.0757,-0.0012,0.0324,327.2812
18:38:31:508,0.122,0.6153,7.867,32.1437,0,0.0287,0.0855,326.7188
18:38:31:530,0.0766,0.5291,8.4129,32.2319,-0.0507,0.0837,0.1338,326.6719
18:38:31:549,0.0048,0.5674,8.7817,32.1286,-0.066,0.1179,0.1625,326.6562
18:38:31:570,-0.0694,0.7086,9.2004,31.885,-0.0819,0.0977,0.16,326.3438
18:38:31:589,-0.1412,0.9553,9.6099,31.644,-0.0983,0.0373,0.1326,325.4375
18:38:31:608,-0.0766,1.1779,9.9619,31.3502,-0.0941,-0.0971,0.1093,325.4375
18:38:31:630,0.1986,1.3741,10.0887,31.2516,-0.0715,-0.2773,0.1002,324.4531
18:38:31:655,0.4573,1.4414,10.1557,31.0925,-0.0385,-0.4661,0.0641,324.3438
18:38:31:669,0.5985,1.3119,10.5006,31.0033,-0.011,-0.5766,0.0079,323.8281
18:38:31:688,0.8019,1.0702,11.3025,30.54,0.0043,-0.5272,-0.0452,323.7969
18:38:31:708,0.9984,0.577,12.0832,30.4439,0.0593,-0.3573,-0.1173,323.75
18:38:31:730,1.1563,0.2106,12.5569,30.4335,0.3024,-0.2486,-0.3396,323.75
18:38:31:755,0.9697,0.012,11.3767,30.4134,0.361,-0.5229,-0.4416,323.8281
18:38:31:770,1.0606,0.1244,11.0465,30.3814,0.1771,-0.6365,-0.4343,323.8438
18:38:31:788,1.0774,-0.0694,11.6761,30.3326,-0.1533,-0.4826,-0.35,323.75
18:38:31:808,1.5036,-0.3999,12.9568,30.3276,-0.3916,-0.1026,-0.2523,323.7344
18:38:31:829,1.8529,-0.7421,13.4237,30.198,-0.3341,0.3836,-0.2834,323.4219
18:38:31:852,1.2449,-0.8955,12.7152,30.5849,-0.0195,0.6646,-0.4777,323.4062
18:38:31:870,0.0957,-0.9793,11.1302,30.8659,0.3592,0.6573,-0.6646,323.0625
18:38:31:888,-0.6631,-0.9888,9.6601,30.9263,0.507,0.5302,-0.6334,322.7188
18:38:31:909,-0.6248,-0.9864,8.9803,31.2358,0.3152,0.3744,-0.3983,322.7188
18:38:31:929,0.0287,-1.1013,9.4017,31.1529,-0.0324,0.2181,-0.1655,322.5
18:38:31:953,0.7086,-1.1946,10.1079,31.3127,-0.2822,0.1961,-0.0678,322.5
18:38:31:971,0.9888,-1.0558,10.3328,31.2116,-0.2975,0.2431,-0.1258,322.6094
18:38:31:990,0.7828,-0.6942,10.0241,31.4381,-0.1203,0.2156,-0.2963,322.6094
18:38:32:009,0.1819,-0.3544,9.4304,31.7076,0.1124,0.1381,-0.4765,322.6094
18:38:32:030,-0.3592,-0.0191,8.688,31.6764,0.2755,0.1148,-0.54,323.2812
18:38:32:053,-0.6009,0.2776,8.0656,31.8102,0.3146,0.146,-0.4716,323.2969
18:38:32:069,-0.6679,0.3855,7.6612,31.6894,0.2706,0.1539,-0.3366,324.2812
18:38:32:088,-0.4597,0.3568,7.611,32.1076,0.2004,0.1075,-0.1973,324.7344
18:38:32:108,-0.1914,0.3257,7.7833,32.3504,0.1527,0.0751,-0.1026,324.7344
18:38:32:129,-0.1938,0.3233,7.9173,32.7375,0.1472,0.077,-0.0635,325.6094
18:38:32:154,-0.3138,0.3951,8.0273,32.6723,0.1405,0.102,-0.0189,325.6094
18:38:32:170,-0.3305,0.4597,8.2765,32.7101,0.0935,0.1747,0.0617,327.2344
18:38:32:189,-0.2082,0.5028,8.6976,32.7687,0.0281,0.2718,0.1539,327.3906
18:38:32:209,-0.0455,0.5961,9.009,32.7555,-0.0037,0.3195,0.2285,328.1094
18:38:32:230,0.1795,0.7493,9.1645,32.9707,-0.0012,0.2627,0.2584,328.1719
18:38:32:253,0.2827,0.9721,9.2605,32.8782,-0.0049,-0.0531,0.234,328.2812
18:38:32:271,0.3688,1.1539,9.3251,32.8863,-0.0312,-0.1814,0.248,328.2812
18:38:32:289,0.4095,1.2281,9.428,33.0107,-0.088,-0.212,0.2712,329.0938
18:38:32:308,0.3018,1.1659,10.5556,33.1926,-0.149,-0.1179,0.2724,329.1719
18:38:32:329,0.2946,0.9745,11.2834,33.2054,-0.1423,0.1112,0.2779,330.3594
18:38:32:352,-0.0718,0.553,11.5011,33.4837,-0.0721,0.3048,0.3042,331.1719
18:38:32:370,-0.8524,0.0574,11.6402,33.726,-0.0092,0.3323,0.3152,331.1719
18:38:32:389,-1.2712,-0.1531,11.8125,33.7972,-0.0024,0.3305,0.3873,331.5156
18:38:32:407,-0.8282,-0.4167,11.7048,34.2002,-0.047,0.2578,0.5388,331.5156
18:38:32:430,0.0311,-0.5506,11.4724,34.2575,-0.1118,0.0843,0.6243,331.5938
18:38:32:451,0.5028,-0.4932,11.6186,34.2289,-0.1851,0.0464,0.5614,331.5938
18:38:32:471,0.4167,-0.2465,12.0518,34.3501,-0.234,0.2034,0.4093,331.25
18:38:32:489,-0.1388,-0.1316,12.2842,34.6075,-0.1723,0.2804,0.2431,331.25
18:38:32:508,-0.6464,-0.1507,11.6904,34.8975,0.0654,0.0428,0.1466,331.25
18:38:32:530,-0.996,-0.3688,10.273,35.1476,0.3213,-0.3329,0.1594,330.75
18:38:32:549,-0.9338,-0.431,9.3299,35.2142,0.347,-0.5705,0.2529,330.75
18:38:32:571,-0.4573,-0.3712,9.1478,35.3795,0.1405,-0.5131,0.3708,330.1875
18:38:32:590,0.3233,-0.2752,9.5285,35.4369,-0.1234,-0.248,0.4478,329.4688
18:38:32:609,0.8859,-0.1842,9.8973,35.6697,-0.2553,0.0031,0.3916,329.4688
18:38:32:631,1.0415,0.0479,9.6171,35.9995,-0.1857,0.0996,0.2138,328.8125
18:38:32:653,0.7756,0.3664,8.6785,36.2985,-0.0208,0.0641,-0.0031,328.8125
18:38:32:671,0.3305,0.7014,7.7713,36.2079,0.0819,-0.0098,-0.1662,328.1719
18:38:32:689,-0.0933,0.9745,7.3451,36.6171,0.0843,-0.0605,-0.2285,328.1094
18:38:32:709,-0.134,1.0702,6.9906,37.0387,0.0397,-0.0928,-0.1906,326.9375
18:38:32:730,0.2082,0.7349,7.5628,37.0723,0.0092,-0.2511,-0.1087,326.8125
18:38:32:754,0.1149,0.7756,7.9579,37.4267,0.0531,-0.3042,-0.1283,325.75
18:38:32:771,-0.0431,0.941,8.4512,37.8074,0.0641,-0.2529,-0.0843,325.6406
18:38:32:789,-0.0239,0.9793,8.6928,37.9944,0.0489,-0.1252,0.0342,325.2344
18:38:32:807,0.1196,0.9529,8.9755,38.1584,-0.0086,-0.0635,0.1637,325.2031
18:38:32:828,0.4741,0.9673,9.4496,38.2893,-0.0849,-0.1423,0.2303,324.9062
18:38:32:847,0.9003,1.0582,10.0457,38.3314,-0.1252,-0.2584,0.2046,324.875
18:38:32:870,0.9721,1.2616,10.4097,38.3495,-0.0941,-0.3506,0.0837,324.0156
18:38:32:889,0.6703,1.5443,10.5509,38.8511,-0.0195,-0.4258,-0.0531,323.1875
18:38:32:908,0.4071,1.7166,10.6561,39.2667,0.0409,-0.4416,-0.1222,323.1875
18:38:32:930,0.3879,1.6902,10.9026,39.3934,0.047,-0.3635,-0.1216,323.3281
18:38:32:948,0.6559,1.4988,11.4915,39.5382,-0.0031,-0.1967,-0.1008,323.3281
18:38:32:970,0.644,1.0582,12.0039,39.7203,-0.0287,-0.0373,-0.1344,323.7656
18:38:32:990,0.4621,0.7445,11.755,40.0398,0.0226,-0.0043,-0.2034,323.7969
18:38:33:009,0.3209,0.7445,11.4891,40.3219,-0.0031,-0.099,-0.2169,323.8125
18:38:33:029,0.3568,0.4573,11.7694,40.7124,-0.2077,-0.171,-0.1393,324.0312
18:38:33:052,1.0582,-0.0455,12.7487,40.702,-0.4813,-0.1258,0.0373,324.0312
