Time,Acc_X,Acc_Y,Acc_Z,Meg,Gyr_X,Gyr_Y,Gyr_Z,Ore
19:17:13:033,-1.4174,2.758,9.6793,26.1454,-0.1161,-0.047,-0.0006,186.0938
19:17:13:052,-1.5826,2.758,9.6912,26.0198,-0.1466,0.0153,0.0238,186.0938
19:17:13:070,-1.5873,2.8226,9.7439,26.0233,-0.1723,0.0513,0.0647,186.0938
19:17:13:090,-1.6735,2.8322,9.8181,25.9175,-0.1875,0.0757,0.0867,186.0938
19:17:13:113,-1.7788,2.782,9.8734,26.1342,-0.1869,0.1093,0.11,186.0938
19:17:13:129,-1.8099,2.7317,9.8303,26.1395,-0.1539,0.1387,0.1594,186.0938
19:17:13:148,-1.7094,2.8059,9.7606,26.2902,-0.0971,0.1448,0.2205,186.0938
19:17:13:169,-1.5491,2.9901,9.4472,26.4062,-0.0305,0.1662,0.2755,186.0938
19:17:13:188,-1.5227,3.2106,8.9204,26.5351,0.014,0.1979,0.3005,186.0938
19:17:13:210,-1.5945,3.3685,8.6354,26.5521,0.0183,0.1759,0.2957,186.0938
19:17:13:227,-1.5012,3.4211,8.5851,26.4173,0.0098,0.1112,0.2847,186.0938
19:17:13:247,-1.3549,3.5145,8.5229,26.2474,0,0.0501,0.2737,186.0938
19:17:13:268,-1.2353,3.5575,8.7673,26.1047,-0.0421,-0.0122,0.2498,186.0938
19:17:13:287,-1.2114,3.4881,9.0832,26.0458,-0.0947,-0.0324,0.2248,186.0938
19:17:13:309,-1.2114,3.4594,9.4759,26.1757,-0.1179,-0.0281,0.2101,186.0938
19:17:13:327,-1.1922,3.4499,9.4926,25.9708,-0.0922,0.0073,0.2169,186.0938
19:17:13:347,-1.2162,3.5049,9.1573,25.758,-0.0397,0.0415,0.237,186.0938
19:17:13:368,-1.2401,3.6583,8.875,25.8978,-0.0092,0.0287,0.2578,185.9219
19:17:13:388,-1.2042,3.7708,8.8678,26.0875,-0.0055,-0.0183,0.2596,185.9219
19:17:13:413,-1.2162,3.7158,8.8654,26.2019,0.0043,-0.0489,0.2376,185.5781
19:17:13:429,-1.2329,3.6966,8.7649,26.4521,0.0287,-0.0599,0.2291,185.5781
19:17:13:448,-1.1922,3.8713,8.5421,26.4502,0.0409,-0.0586,0.2517,184.9844
19:17:13:469,-0.941,4.1345,8.3818,26.2833,0.0165,-0.0757,0.2688,184.9844
19:17:13:487,-0.62,4.2712,8.6186,26.6029,-0.036,-0.135,0.2199,184.25
19:17:13:511,-0.5219,4.1154,9.0425,26.6779,-0.0782,-0.1851,0.1057,184.25
19:17:13:529,-0.7397,3.8378,9.2124,26.5275,-0.0867,-0.1796,0.0024,183.6719
19:17:13:548,-0.9123,3.6966,9.2605,26.56,-0.0843,-0.1704,-0.0324,183.6094
19:17:13:568,-0.8091,3.7038,9.5333,26.5904,-0.0928,-0.2016,-0.022,183.125
19:17:13:588,-0.6823,3.6365,9.9165,26.6945,-0.1008,-0.2468,-0.0318,183.0781
19:17:13:612,-0.8282,3.5815,10.2706,26.7492,-0.0983,-0.2792,-0.0702,182.6406
19:17:13:627,-0.8835,3.5647,10.5126,26.7934,-0.0782,-0.303,-0.0922,182.9531
19:17:13:648,-0.8043,3.5432,10.8619,26.6763,-0.0525,-0.3329,-0.1093,184.8281
19:17:13:670,-0.7732,3.4211,11.4126,26.8907,0.0287,-0.303,-0.1875,184.7969
19:17:13:695,-0.5219,3.0981,10.8787,27.2432,0.0556,-0.226,-0.2303,184.3125
19:17:13:711,-0.4932,2.6886,10.6035,27.2301,0.0043,-0.2248,-0.3005,184.2656
19:17:13:727,-0.7014,2.3198,10.9409,27.1327,-0.1112,-0.2743,-0.3586,183.8125
19:17:13:748,-0.8043,1.9582,11.3169,26.868,-0.2187,-0.2749,-0.3592,183.7656
19:17:13:768,-0.5339,1.6161,11.6545,26.8091,-0.2633,-0.248,-0.3128,183.3125
19:17:13:787,-0.0742,1.3454,11.8986,26.6436,-0.2278,-0.204,-0.2614,183.2656
19:17:13:811,0.0861,1.2449,11.7144,26.6185,-0.1283,-0.0782,-0.2217,183.2188
19:17:13:828,0.0311,1.2664,10.7423,26.3583,0.0189,0.1362,-0.1637,183.3281
19:17:13:848,0.079,1.4749,9.5788,26.0791,0.1936,0.2706,-0.0733,183.3281
19:17:13:869,0.4167,1.8625,8.4416,25.9905,0.3433,0.27,0.0263,183.5312
19:17:13:887,1.0199,2.4084,7.7833,26.2112,0.394,0.1478,0.0672,183.5312
19:17:13:910,1.4821,2.8107,7.6708,26.2889,0.3237,0.0018,-0.011,183.8594
19:17:13:928,1.5179,2.9183,7.6995,26.2578,0.1735,-0.0678,-0.1796,183.8594
19:17:13:947,1.2138,2.6504,7.9125,26.4263,-0.0214,-0.091,-0.372,184.3594
19:17:13:969,0.7086,2.2696,8.5684,26.3235,-0.1961,-0.1222,-0.5168,184.3594
19:17:13:988,0.1244,1.9896,9.2411,26.6474,-0.2596,-0.1258,-0.5663,184.3594
19:17:14:010,-0.2512,1.9152,9.3323,26.5923,-0.1845,-0.0519,-0.5015,185.0156
19:17:14:028,-0.3233,2.3438,8.8104,26.7909,-0.0293,0.0525,-0.3555,185.9062
19:17:14:048,-0.0096,2.7987,7.9651,26.8576,0.11,0.1222,-0.2346,185.9062
19:17:14:068,0.1316,3.1842,7.3259,26.9317,0.1576,0.1002,-0.2034,186.6094
19:17:14:088,0.1914,3.4331,7.3666,27.2163,0.1026,-0.0104,-0.2327,186.6094
19:17:14:111,0.2154,3.4068,7.989,27.2611,0.0055,-0.1155,-0.2944,186.9844
19:17:14:128,0.1484,3.2728,8.5995,27.4612,-0.0489,-0.1613,-0.3335,187.0312
19:17:14:148,0.1484,3.3589,9.0042,27.284,-0.0446,-0.1631,-0.3103,187
19:17:14:169,0.5052,3.8856,9.5931,27.5613,0.0086,-0.1545,-0.2559,187
19:17:14:194,0.3879,3.888,10.0361,27.6053,0.0189,-0.1564,-0.317,186.9375
19:17:14:211,-0.1555,3.9144,10.3472,27.7026,0.0098,-0.0782,-0.3751,186.9375
19:17:14:228,-0.5171,3.9742,10.4312,27.757,-0.014,0.0446,-0.3635,187.5156
19:17:14:247,-0.5411,3.9526,10.5604,27.7592,-0.0428,0.1148,-0.3146,187.5625
19:17:14:267,-0.4932,3.9144,10.9337,27.752,-0.0757,0.11,-0.2889,188.6719
19:17:14:287,-0.6918,3.8545,11.3312,27.9793,-0.1026,0.0849,-0.2877,188.7969
19:17:14:311,-1.063,3.7038,11.7646,28.4508,-0.1057,0.0586,-0.2889,189.6406
19:17:14:329,-1.8051,3.5767,12.0111,28.5213,-0.0709,0.1124,-0.2547,190.1562
19:17:14:349,-2.4754,3.687,11.6354,28.5799,0.0055,0.2425,-0.1277,190.1562
19:17:14:369,-2.1811,3.6365,10.8332,28.6843,0.0715,0.314,0.036,190.7969
19:17:14:387,-1.3932,3.0452,10.5269,29.0746,0.069,0.1924,0.0562,190.7969
19:17:14:413,-0.8644,1.9128,11.2881,29.4127,0.0409,-0.1209,-0.0727,191.5625
19:17:14:429,-1.4366,0.8764,12.454,29.9088,0.1124,-0.3793,-0.2101,191.5625
19:17:14:448,-2.6958,0.4119,12.0087,30.0962,0.347,-0.2724,-0.1655,191.5625
19:17:14:468,-3.1172,0.5171,9.9021,30.1234,0.6426,0.0226,0.1362,192.1875
19:17:14:488,-2.4969,1.1252,7.7258,30.5075,0.824,0.1191,0.4813,192.1875
19:17:14:512,-1.6878,1.8338,6.5097,30.9686,0.7764,-0.0281,0.6457,192.9844
19:17:14:529,-0.8378,2.3844,6.4546,31.1698,0.4966,-0.2395,0.6157,193.7031
19:17:14:548,-0.1364,2.3821,7.2087,31.3285,0.0819,-0.35,0.4361,193.7031
19:17:14:567,-0.1866,1.8051,8.1879,31.3146,-0.303,-0.3317,0.1716,194.2969
19:17:14:588,-0.8477,1.1468,9.1573,31.4048,-0.5217,-0.2156,-0.0134,194.2969
19:17:14:612,-1.3047,0.7851,9.5859,31.4817,-0.529,-0.0409,0.0055,194.8125
19:17:14:627,-1.252,0.8234,9.3514,31.9056,-0.3567,0.1173,0.171,194.8594
19:17:14:648,-1.063,1.3693,8.4559,31.9761,-0.1057,0.2517,0.3799,194.875
19:17:14:668,-0.8477,2.1858,7.4695,32.2327,0.0806,0.3152,0.5443,194.8594
19:17:14:690,-0.376,3.3829,6.4496,32.5779,0.091,0.2657,0.595,194.875
19:17:14:711,-0.3353,3.8474,6.6126,32.7908,-0.0202,0.171,0.493,194.875
19:17:14:727,-0.2512,3.8689,7.005,33.1415,-0.1448,0.0782,0.3317,195.375
19:17:14:747,-0.51,3.6461,7.4958,33.5798,-0.2621,0.0079,0.171,195.4375
19:17:14:767,-0.7301,3.347,8.2478,33.945,-0.3628,-0.077,0.0806,194.875
19:17:14:787,-0.8091,3.1005,9.4256,34.3121,-0.4215,-0.1643,0.047,194.8125
19:17:14:811,-0.9027,2.8944,10.3089,34.4936,-0.4062,-0.1991,0.0403,193.6719
19:17:14:865,-0.5985,2.6408,10.893,34.706,-0.3537,-0.2278,0.0629,193.0625
19:17:14:865,0.1292,2.4323,11.8173,34.8693,-0.3433,-0.3201,0.0898,193.0625
19:17:14:873,0.6368,2.3701,13.3065,35.3668,-0.3983,-0.4215,0.0782,193.0312
19:17:14:888,0.6392,2.2528,14.5035,35.8443,-0.4398,-0.3983,0.0275,193.0312
19:17:14:910,0.3305,2.1284,14.7523,36.1337,-0.3964,-0.1936,0.0354,192.4062
19:17:14:929,0.9458,1.9199,13.7806,36.4699,-0.2602,0.0434,0.1888,192.3438
19:17:14:949,1.9032,1.7883,13.1722,36.4613,-0.146,0.0086,0.2773,192.3281
19:17:14:970,2.4945,1.64,13.4979,37.0045,-0.0849,-0.2242,0.1735,190.9531
19:17:14:988,2.5546,1.1515,13.6223,37.3234,0.0098,-0.3225,-0.0336,190.9375
19:17:15:010,1.9944,0.6105,13.0884,37.6125,0.2089,-0.2285,-0.1875,189.6562
19:17:15:028,1.2903,0.3784,11.5636,37.5647,0.4893,0.0079,-0.1784,189.0781
19:17:15:048,1.1324,0.3951,9.5859,37.6794,0.7416,0.2065,-0.0379,189.0781
19:17:15:067,1.4028,0.7397,7.9316,37.6667,0.854,0.2376,0.1057,188.9375
19:17:15:088,1.8099,1.3573,6.859,37.9187,0.7813,0.1619,0.1545,188.9375
19:17:15:110,2.0399,1.8194,6.2749,38.1712,0.5498,0.0874,0.0611,188.8906
19:17:15:127,1.8745,1.9872,6.026,38.1393,0.2297,0.0434,-0.1442,188.8906
19:17:15:148,1.427,1.9223,6.0763,38.4566,-0.0733,0.0336,-0.3696,188.8281
19:17:15:168,0.9649,1.774,6.3227,38.6921,-0.2743,0.0421,-0.5314,188.8125
19:17:15:189,0.067,1.884,6.8303,39.1197,-0.372,0.0544,-0.6029,188.8281
19:17:15:213,-0.201,2.2576,7.1034,39.3856,-0.3525,0.0593,-0.5406,188.8281
19:17:15:228,-0.0814,2.6599,7.6134,39.6676,-0.3427,0.0397,-0.4691,188.3594
19:17:15:248,0.28,2.9351,8.4583,39.806,-0.3561,0.0043,-0.4532,188.3125
19:17:15:267,0.5124,3.0957,9.3897,39.9356,-0.369,-0.0006,-0.5046,188.25
19:17:15:287,0.3473,3.1507,10.4192,40.2632,-0.3567,0.022,-0.5748,188.25
19:17:15:306,-0.012,2.9495,10.8835,40.2327,-0.2767,0.0886,-0.6334,188.6406
19:17:15:328,-0.5363,2.6121,11.0776,40.4745,-0.1545,0.1167,-0.656,188.5625
19:17:15:347,-1.0439,2.4012,11.2929,40.4537,-0.0428,0.1148,-0.5705,188.5625
19:17:15:369,-1.5658,2.4945,11.4461,40.4435,0.0385,0.1741,-0.3518,188.2656
19:17:15:387,-1.8817,2.9614,11.1948,40.484,0.0855,0.3183,-0.0342,188.2656
19:17:15:413,-1.6017,3.3757,10.7279,40.7298,0.1118,0.3971,0.2804,188.8125
19:17:15:428,-1.0223,3.5695,10.783,40.9239,0.1283,0.2804,0.4649,188.8125
19:17:15:447,-0.6464,3.7277,11.6928,41.1763,0.1552,0.0684,0.5064,188.8281
19:17:15:469,-0.7445,3.7277,12.4636,41.2871,0.2199,0.0336,0.4771,190.0312
19:17:15:488,-1.4557,3.6607,12.1813,41.6091,0.3409,0.237,0.4526,190.0469
19:17:15:512,-2.2002,3.5839,10.5102,41.909,0.4496,0.4911,0.4991,191.2656
19:17:15:528,-1.9056,3.5527,9.2554,42.281,0.3885,0.3946,0.587,192.25
19:17:15:547,-0.4932,2.9255,9.6936,42.6662,0.1362,-0.2065,0.5223,192.25
19:17:15:568,0.1172,2.0614,13.0645,42.7512,-0.1533,-0.9841,0.19,193.4062
19:17:15:588,-0.8812,1.2233,14.9441,42.9584,-0.1814,-1.0293,-0.0904,193.4062
19:17:15:613,-2.1284,0.3927,13.4429,43.2778,0.1209,-0.4019,-0.025,194.7812
19:17:15:628,-2.3294,0.0263,10.3807,43.6119,0.5308,0.0941,0.3231,194.7812
19:17:15:648,-1.7668,0.5339,8.5373,43.9109,0.7831,0.0745,0.7025,195.6719
19:17:15:669,-0.6727,1.4653,8.0417,44.2433,0.7892,-0.1338,0.9633,195.75
19:17:15:690,0.5578,2.3103,7.9819,44.5414,0.6218,-0.1955,1.0213,195.4219
19:17:15:710,1.2999,2.7221,7.7833,44.9983,0.4038,-0.0928,0.8301,195.3906
19:17:15:729,1.4509,2.6336,7.1943,45.4257,0.2456,0.0599,0.4911,194.375
19:17:15:748,0.3568,1.829,6.3084,45.6254,0.0947,0.0935,-0.1539,194.2812
19:17:15:767,-0.2898,1.5921,6.4232,45.9652,0.0397,0.0195,-0.248,193.3281
19:17:15:787,-0.577,1.5873,6.67,46.2138,0.0232,-0.0171,-0.1649,193.2344
19:17:15:810,-0.7205,1.9606,6.5312,46.3325,0.0647,0.0495,0.0079,192.0469
19:17:15:828,-0.711,2.5065,6.3682,46.3794,0.1081,0.1295,0.1558,191.4062
19:17:15:848,-0.6607,3.0547,6.4089,46.4779,0.0849,0.2114,0.2303,191.4062
19:17:15:868,-0.3999,3.4235,7.0026,46.5872,-0.0177,0.2309,0.2236,191.7031
19:17:15:888,-0.1842,3.4834,7.5894,46.8567,-0.1576,0.2419,0.1191,191.7031
19:17:15:912,-0.577,3.5145,8.2382,47.3611,-0.3372,0.292,-0.014,191.7344
19:17:15:929,-1.0822,3.5504,8.8511,47.4762,-0.551,0.3647,-0.069,190.625
19:17:15:948,-1.1468,3.5456,10.0289,47.7734,-0.7623,0.3085,-0.0629,190.625
19:17:15:969,-0.711,3.3206,12.1358,47.9197,-0.9016,0.0965,-0.0977,188.5469
19:17:15:988,-0.2321,2.8633,14.4652,48.3805,-0.8943,-0.088,-0.1967,188.5312
19:17:16:012,-0.2106,2.2959,15.5665,48.8595,-0.7043,-0.0855,-0.2871,187.0938
19:17:16:029,-0.6727,1.8625,15.315,49.3069,-0.3879,0.0354,-0.2871,187.0781
19:17:16:048,-0.8067,1.6615,13.8356,49.6663,-0.0611,0.1478,-0.124,187.0781
19:17:16:068,0.0431,1.6974,12.5617,49.8327,0.1607,0.0428,0.135,187.5156
19:17:16:089,1.4151,1.9896,12.2985,50.1612,0.2376,-0.2559,0.2828,187.5156
19:17:16:111,2.2672,2.0901,12.7606,50.407,0.2254,-0.493,0.201,187.3125
19:17:16:127,2.1284,1.8721,12.2913,50.653,0.2657,-0.419,-0.0067,187.3125
19:17:16:147,1.5251,1.4844,10.9074,50.6368,0.4044,-0.2095,-0.1686,186.7656
19:17:16:168,1.1252,1.1994,9.2868,50.8054,0.5467,-0.1008,-0.212,186.7188
19:17:16:188,1.0463,1.2568,8.1206,50.9818,0.5779,-0.1619,-0.1753,186.4844
19:17:16:211,1.8338,1.9415,8.0895,51.2846,0.2401,-0.485,-0.2425,186.4688
19:17:16:229,1.8505,1.7501,8.5588,51.6188,0.0092,-0.4856,-0.4917,186.4375
19:17:16:249,1.0941,1.3717,8.5612,51.9776,-0.1594,-0.306,-0.7403,186.4375
19:17:16:267,0.2177,1.0128,8.0321,52.1826,-0.2065,-0.0599,-0.8295,186.6719
19:17:16:287,-0.2345,0.984,7.2733,52.6207,-0.1344,0.1222,-0.7324,186.6875
19:17:16:313,-0.28,1.4151,6.3538,53.0155,-0.0073,0.1973,-0.5327,187.25
19:17:16:328,-0.012,2.071,5.7218,53.0675,0.0904,0.1271,-0.3525,187.2656
19:17:16:348,0.3066,2.7676,5.7027,53.1345,0.0867,-0.0299,-0.2724,187.2656
19:17:16:368,0.6272,3.3159,6.2151,53.1344,-0.0257,-0.1936,-0.303,187.2656
19:17:16:387,0.8668,3.5767,7.0747,53.2109,-0.1771,-0.3036,-0.4105,186.9219
19:17:16:413,1.1157,3.6607,8.3028,53.3891,-0.317,-0.3573,-0.5534,186.8906
19:17:16:430,1.0223,3.7995,9.6506,53.6698,-0.4465,-0.2908,-0.6725,187.2031
19:17:16:449,0.6176,3.7421,10.5174,53.8567,-0.543,-0.1179,-0.7544,187.2031
19:17:16:469,-0.1053,3.4905,11.2259,54.2744,-0.5705,0.0324,-0.8136,187.7031
19:17:16:487,-1.0223,3.3087,11.9345,54.5554,-0.5223,0.1338,-0.766,187.7031
19:17:16:512,-1.5993,3.3254,12.2674,54.8371,-0.4074,0.273,-0.5284,188.2969
19:17:16:528,-1.331,3.4905,12.2459,55.1606,-0.2627,0.3763,-0.1729,189.8281
19:17:16:548,-0.6272,3.9455,12.588,55.4039,-0.1093,0.3366,0.1228,189.8281
19:17:16:567,-0.1316,4.4267,12.9233,55.652,0.0623,0.2474,0.2645,191.5156
19:17:16:589,0.0598,4.6516,12.7176,55.967,0.2645,0.2242,0.2694,191.5156
19:17:16:611,-0.2321,4.6612,11.822,56.1693,0.4734,0.2437,0.1778,192.4375
19:17:16:628,-0.8234,4.544,10.6083,56.3141,0.595,0.281,0.0647,192.4375
19:17:16:647,-1.2209,4.3143,9.5812,56.6025,0.5351,0.2816,-0.0055,193.0625
19:17:16:668,-1.1946,3.8976,9.1669,56.6485,0.3054,0.1637,-0.044,193.125
19:17:16:688,-0.7612,3.0452,9.8399,56.8374,0.014,-0.1374,-0.113,194.2031
19:17:16:712,-1.4198,1.506,12.5282,57.1335,-0.0177,-0.5272,-0.2547,194.3125
19:17:16:728,-1.8529,1.0343,11.4102,57.2197,0.3476,-0.2743,-0.1081,195.7812
19:17:16:749,-1.8027,0.9864,9.5453,57.3491,0.7055,-0.1332,0.1234,195.9375
19:17:16:767,-1.3621,1.3406,8.5756,57.6601,0.8314,-0.2517,0.3231,197.4688
19:17:16:787,-0.7349,1.7261,8.4464,57.8496,0.7184,-0.4142,0.4319,197.625
19:17:16:810,-0.1579,1.9992,8.6713,57.8767,0.4936,-0.4569,0.4184,198.2188
19:17:16:828,0.1029,2.0136,8.5804,58.1626,0.2999,-0.3244,0.2938,197.7969
19:17:16:848,0.0431,1.695,7.9029,58.3161,0.2071,-0.113,0.1234,197.7969
19:17:16:930,-0.2946,1.2832,7.0866,58.3388,0.1814,0.025,-0.0086,197.75
19:17:16:930,-0.6009,1.0319,6.3586,58.5252,0.1625,0.0391,-0.0275,197.2656
19:17:16:931,-0.8163,1.1468,6.1505,58.8854,0.0971,-0.0544,0.0696,197.2188
19:17:16:931,-0.8835,1.6567,6.4089,58.8715,-0.0226,-0.1435,0.2437,197.0938
19:17:16:949,-0.5243,2.3198,7.0508,58.9461,-0.1326,-0.1545,0.4117,197.0938
19:17:16:967,-0.1364,2.8777,7.2661,59.3504,-0.1619,-0.0501,0.4899,197.2656
19:17:16:988,-0.0502,3.3063,6.9308,59.6307,-0.149,0.0611,0.4697,197.2656
19:17:17:011,0.0215,3.6269,6.8183,59.716,-0.1851,0.0244,0.3861,197.9844
19:17:17:027,0.364,3.7086,7.2805,60.0647,-0.295,-0.1283,0.2651,198.0938
19:17:17:047,1.0391,3.8378,8.5469,60.4684,-0.4423,-0.3048,0.1295,198.0938
19:17:17:069,1.7955,4.2281,9.7917,60.5246,-0.5718,-0.3506,0,197.4688
19:17:17:088,2.4156,4.4507,10.5509,60.7214,-0.6768,-0.2981,-0.1716,197.4688
19:17:17:114,2.6049,4.386,11.822,60.7962,-0.7843,-0.3622,-0.4276,196.875
19:17:17:127,2.5403,3.9048,13.9528,60.8131,-0.8601,-0.54,-0.7275,196.875
19:17:17:147,2.1835,2.9327,16.1794,61.0146,-0.7837,-0.6231,-0.9908,196.7656
19:17:17:168,1.573,1.8003,17.118,61.1479,-0.4551,-0.4905,-1.0745,196.7656
19:17:17:188,1.0391,1.1013,15.9063,61.0873,0.0556,-0.2107,-0.8918,196.7344
19:17:17:213,1.2066,1.2162,15.466,60.9408,0.5052,-0.1594,-0.5565,196.7188
19:17:17:227,1.7477,1.3597,15.5904,60.6953,0.854,-0.1741,-0.317,196.1406
19:17:17:250,1.573,1.2042,14.5346,60.878,1.4777,0.5693,-0.2352,196.0781
19:17:17:269,-0.1771,1.3119,8.1903,60.8564,1.4771,0.8173,-0.0788,195.1094
19:17:17:288,-0.0311,1.8003,6.5025,60.6368,1.1319,0.7501,0.1338,194.3906
19:17:17:311,0.51,2.2409,6.2533,60.2867,0.6096,0.5357,0.2333,194.3906
19:17:17:329,1.1204,2.406,7.089,60.0704,0.1704,0.2162,0.1668,194.3125
19:17:17:347,1.2927,2.205,7.6947,60.0162,-0.1655,0.0886,-0.0147,194.3281
19:17:17:367,0.9864,1.9439,7.7689,59.768,-0.3861,0.1326,-0.1698,194.3281
19:17:17:387,0.4143,1.8051,7.6253,59.7466,-0.5009,0.2272,-0.2297,195.0469
19:17:17:413,0.1364,1.9175,7.5485,59.3818,-0.5058,0.3183,-0.1497,195.125
19:17:17:428,0.2034,2.217,7.2565,59.297,-0.3946,0.408,0.0086,197.25
19:17:17:448,0.28,2.5546,6.5695,59.1053,-0.2126,0.4917,0.1319,197.2656
19:17:17:468,0.4693,2.9495,5.916,59.3459,-0.0501,0.4972,0.2132,199.5469
19:17:17:488,0.6679,3.3637,5.8343,59.2608,0.0226,0.3653,0.2486,199.5625
19:17:17:512,0.9386,3.6727,5.9399,59.1912,0.0128,0.2181,0.2132,200.5625
19:17:17:529,1.1827,3.8258,6.5504,59.2842,-0.0843,0.0825,0.1087,200.9531
19:17:17:548,1.4127,3.7756,7.7258,59.4124,-0.248,-0.0305,-0.0257,200.9531
19:17:17:569,1.427,3.6894,9.2195,59.1571,-0.4166,-0.033,-0.1362,200.5312
19:17:17:588,0.9817,3.7373,11.4485,58.8757,-0.5039,0.014,-0.1845,200.5312
19:17:17:612,0.3018,3.6942,12.2674,58.9095,-0.3268,0.1662,-0.1435,199.9062
19:17:17:629,-0.213,3.7421,13.0502,58.6357,0.0611,0.2095,-0.0037,199.9062
19:17:17:647,0.4525,3.8378,13.6391,58.728,0.5705,0.1167,0.2223,200.0312
19:17:17:669,0.7014,4.465,12.131,58.62,1.0702,0.2169,0.3543,200.0312
19:17:17:688,0.364,5.5448,10.0337,58.4677,1.2309,0.3598,0.3445,200.2656
19:17:17:708,-0.297,6.2677,8.4464,58.319,0.9322,0.5339,0.223,200.2969
19:17:17:728,-1.3502,6.1983,7.8526,58.4266,0.3708,0.6689,0.0037,199.9531
19:17:17:749,-2.1739,5.2837,8.8869,58.4294,-0.1057,0.598,-0.2107,199.9219
19:17:17:769,-2.6695,4.034,9.775,58.4703,-0.2724,0.2871,-0.2162,199.2656
19:17:17:789,-2.8729,2.9925,10.2754,58.233,-0.1484,0.0586,0.0293,198.8125
19:17:17:810,-2.5834,2.2648,10.8452,57.9932,0.0861,-0.0611,0.3439,198.8125
19:17:17:828,-2.1547,2.6551,9.3012,57.7326,0.3525,0.033,0.6817,198.7656
19:17:17:847,-1.4557,3.4834,7.5126,57.3263,0.4587,0.0874,0.9089,198.9219
19:17:17:867,-0.443,4.252,6.5958,56.9724,0.3109,0.0012,0.9181,198.9375
19:17:17:888,0.565,4.6588,6.5815,56.5302,-0.0226,-0.1423,0.7,199.1875
19:17:17:912,1.0678,4.3789,7.6038,56.5313,-0.4667,-0.3311,0.281,199.2188
19:17:17:929,0.6057,3.4235,9.9284,56.2099,-0.9157,-0.5241,-0.2077,198.9688
19:17:17:948,-0.2608,2.339,12.4564,56.037,-1.1258,-0.543,-0.5522,198.9375
19:17:17:968,-1.0558,1.2784,12.7774,55.882,-0.9285,-0.2449,-0.656,198.1406
19:17:17:987,-1.5754,0.9051,10.9938,55.6784,-0.485,0.1686,-0.5131,198.1406
19:17:18:014,-1.6902,0.9505,8.7147,55.5074,-0.0837,0.427,-0.1723,197.6406
19:17:18:029,-1.4318,1.7572,7.3977,55.5979,0.1081,0.4313,0.234,197.8906
19:17:18:050,-0.7062,2.6623,7.3499,55.8254,0.1863,0.2132,0.5687,197.8906
19:17:18:068,-0.0646,3.5408,7.2422,55.68,0.2804,0.0458,0.7159,197.9844
19:17:18:089,0.553,4.319,7.1034,55.7381,0.3555,-0.0397,0.6976,197.9844
19:17:18:114,0.9266,4.9319,6.9212,55.896,0.3531,-0.0165,0.5773,196.9062
19:17:18:129,0.5291,5.3486,6.9021,55.7717,0.2437,0.0098,0.3641,196.9062
19:17:18:148,0.0646,5.243,7.8957,55.8109,0.0965,-0.1283,0.1264,194.9219
19:17:18:168,-0.2489,4.7689,9.3993,55.905,0.0391,-0.3036,-0.0867,194.9219
19:17:18:189,-0.4884,4.2855,10.6466,55.6004,0.1185,-0.3744,-0.2046,194.0312
19:17:18:213,-0.3712,4.0316,11.4126,55.2839,0.2608,-0.3292,-0.1814,193.9375
19:17:18:228,0.0215,4.0029,11.8914,55.0153,0.3861,-0.2676,-0.0898,194.8438
19:17:18:248,0.4549,4.0412,12.2554,54.9467,0.4875,-0.2511,-0.0574,194.9375
19:17:18:269,0.6488,3.912,12.4875,54.5267,0.5626,-0.2504,-0.11,196.0625
19:17:18:290,0.5028,3.6221,11.5158,54.5932,0.606,-0.2071,-0.1704,196.1719
19:17:18:314,0.6942,3.5671,11.4413,54.4256,0.4642,-0.1802,-0.1283,195.9531
19:17:18:327,1.1492,3.3039,11.7574,54.2431,0.3146,-0.1833,-0.1167,195.9219
19:17:18:347,1.2257,2.6815,12.2411,54.1231,0.2205,-0.1344,-0.2046,194.6094
19:17:18:367,0.5339,2.1619,11.5182,54.0712,0.2712,0.1161,-0.2895,194.4844
19:17:18:387,0.067,2.1332,8.8846,54.1406,0.4117,0.493,-0.179,193.25
19:17:18:414,0.5124,2.7365,6.9619,54.0194,0.4129,0.4673,0.0501,193.125
19:17:18:428,1.4797,3.548,6.8853,54.0403,0.1955,0.0843,0.1466,192.6719
19:17:18:450,2.2337,3.8641,7.8479,53.7983,-0.1155,-0.2517,0.0104,192.625
19:17:18:470,2.3246,3.5647,8.863,53.874,-0.3824,-0.3329,-0.2889,193.1094
19:17:18:487,1.6519,3.0188,9.1549,54.0867,-0.54,-0.1429,-0.5791,193.125
19:17:18:511,0.5363,2.6551,8.5899,54.1249,-0.5589,0.16,-0.7031,193.5938
19:17:18:529,-0.3281,2.5499,7.721,54.4318,-0.4587,0.3549,-0.6261,193.9375
19:17:18:548,-0.6176,2.715,7.0244,54.392,-0.292,0.361,-0.4404,193.9375
19:17:18:568,-0.5243,3.189,6.6437,54.4461,-0.11,0.2535,-0.259,194.4531
19:17:18:587,-0.1699,3.778,6.5145,54.5728,0.0348,0.1558,-0.1326,194.4531
19:17:18:612,0.2106,4.2209,6.2605,54.7615,0.102,0.171,-0.0794,194.8438
19:17:18:628,0.3449,4.5655,6.0811,54.9775,0.0611,0.2077,-0.0971,194.8438
19:17:18:647,0.3018,4.7498,6.3156,54.9514,-0.0654,0.1423,-0.1552,195.4219
19:17:18:669,0.5028,4.7498,7.1369,55.1866,-0.2028,-0.0189,-0.2236,195.4219
19:17:18:688,0.7397,4.6014,8.31,55.0181,-0.2969,-0.1692,-0.295,195.3125
19:17:18:713,0.7134,4.4841,9.7128,55.0561,-0.3335,-0.2468,-0.3622,195.2969
19:17:18:727,0.2058,4.4243,10.7495,55.149,-0.3048,-0.1625,-0.3854,195.1875
19:17:18:748,-0.3305,4.4243,11.1494,55.2334,-0.1949,0.0092,-0.3134,195.1875
19:17:18:769,-0.4382,4.4722,10.8308,55.136,-0.0183,0.1448,-0.1576,196.1406
19:17:18:790,0.0048,4.6923,10.6131,54.9925,0.2486,-0.0696,0.0373,196.2344
19:17:18:811,0.5578,5.0348,10.7901,55.1624,0.2474,-0.1118,-0.0269,197.3906
19:17:18:831,0.577,5.1162,10.8428,55.3086,0.1692,-0.0819,-0.1387,197.5
19:17:18:846,-2.059,5.0109,10.9771,55.5971,0.0965,0.1399,-0.1771,198.0312
19:17:18:868,-2.8872,5.1066,9.7295,55.8288,0.033,0.4642,-0.0709,198.0781
19:17:18:887,-1.7812,4.6158,8.6139,55.8148,-0.077,0.449,0.0593,198.2188
19:17:18:913,-0.9075,3.3781,9.6051,56.0307,-0.2474,-0.0849,-0.0495,198.2344
19:17:18:929,-1.841,2.6192,11.8244,56.2961,-0.3286,-0.5809,-0.2779,198.4062
19:17:18:995,-2.892,2.1595,11.9465,56.6818,-0.2004,-0.4264,-0.2859,198.4219
19:17:18:996,-3.1388,1.8649,10.2538,56.8982,-0.0055,0.0079,-0.0837,199
19:17:18:996,-2.8561,2.1045,8.8104,57.1921,0.0935,0.1942,0.1613,199.0156
19:17:19:015,-1.9801,2.5714,8.2645,57.5062,0.0745,0.1087,0.3531,199.8906
19:17:19:030,-0.8234,2.8944,8.1999,57.8354,-0.0293,-0.0195,0.4233,200.3594
19:17:19:047,-0.3305,2.8633,8.4129,58.3127,-0.1692,-0.0727,0.3415,200.3594
19:17:19:068,-0.5602,2.6767,8.5134,58.6768,-0.2468,-0.0214,0.2077,200.3594
19:17:19:088,-1.0271,2.5546,8.0536,59.0152,-0.2285,0.1167,0.1454,200.3594
19:17:19:112,-1.1803,2.5379,7.2446,59.1796,-0.1655,0.2419,0.1967,200.625
19:17:19:132,-0.9864,2.8202,6.5815,59.2832,-0.0965,0.2639,0.3286,200.625
19:17:19:147,-0.5052,3.4666,6.1457,59.3738,-0.0421,0.1912,0.4661,200.7344
19:17:19:167,-0.1795,4.1991,6.1935,59.5193,-0.0342,0.0043,0.4985,200.7344
19:17:19:187,-0.0239,4.733,7.1297,59.5003,-0.0782,-0.3323,0.3757,200.6094
19:17:19:207,0.3401,4.7091,8.6186,59.5877,-0.1203,-0.5711,0.1729,200.6094
19:17:19:227,0.067,4.4052,9.6434,59.6381,-0.1191,-0.4221,-0.0709,201.375
19:17:19:247,-0.7493,3.9239,9.9141,59.8606,-0.1216,-0.0367,-0.2401,201.4375
19:17:19:267,-1.2233,3.4594,10.1725,60.2575,-0.1234,0.1985,-0.2456,201.3281
19:17:19:288,-1.3502,3.3948,10.9289,60.5578,-0.0843,0.179,-0.1576,201.3281
19:17:19:311,-0.9147,3.4666,11.4269,60.8703,0.0134,0.16,-0.0421,200.5312
19:17:19:327,-0.5818,3.6006,11.6234,61.0281,0.2144,0.1698,0.0024,200.4531
19:17:19:348,-0.6392,3.481,11.056,61.2553,0.259,0.2566,-0.0061,199.8906
19:17:19:368,-0.9625,3.4259,10.34,61.6108,0.2254,0.3329,0.0342,199.8438
19:17:19:387,-1.1085,3.6488,9.7415,61.8221,0.1313,0.3164,0.1509,199.3906
19:17:19:407,-0.5435,3.7971,9.2677,62.0305,0.0073,0.1857,0.303,199.3438
19:17:19:431,0.6607,3.615,9.21,62.2374,-0.1741,-0.1045,0.3598,198.4375
19:17:19:448,1.7788,2.9518,10.4336,62.4454,-0.4038,-0.5858,0.2614,198.3438
19:17:19:469,2.1643,2.4395,12.7678,62.4798,-0.5534,-1.0366,0.0971,197.5312
19:17:19:487,1.9657,2.126,13.2443,62.8328,-0.4679,-0.8454,0.0104,197.4531
19:17:19:513,1.6854,2.0327,11.5971,63.1031,-0.1894,-0.2346,0.0348,197.5781
19:17:19:529,1.6113,2.2002,9.7726,63.139,0.077,0.1643,0.0861,198.0469
19:17:19:547,1.8458,2.327,8.4224,63.38,0.2382,0.223,0.0672,198.0469
19:17:19:569,1.8075,2.5232,7.8048,63.3935,0.2639,0.1118,-0.0525,198.1875
19:17:19:588,1.2999,2.4921,7.2829,63.3617,0.1362,-0.0049,-0.2199,198.1875
19:17:19:612,0.9003,2.3725,7.1082,63.2737,-0.0574,-0.11,-0.3268,198.1094
19:17:19:630,0.6153,2.3079,7.0026,63.5904,-0.2193,-0.1026,-0.3415,198.1094
19:17:19:648,0.1316,2.4969,6.9188,63.6323,-0.3146,-0.0244,-0.3207,197.9688
19:17:19:668,-0.0598,2.7604,6.8925,63.9299,-0.3225,0.0495,-0.273,197.9688
19:17:19:690,-0.0431,3.0069,6.8997,64.2038,-0.2706,0.1148,-0.2425,197.3438
19:17:19:712,-0.1388,3.3111,7.2063,64.311,-0.2065,0.0977,-0.2596,197.3438
19:17:19:731,-0.0861,3.6461,7.6588,64.6727,-0.1655,0.0134,-0.2779,196.8594
19:17:19:748,0.0885,3.8856,8.0201,65.0766,-0.168,-0.036,-0.2798,196.7969
19:17:19:769,0.4143,4.0077,8.5851,65.4678,-0.201,-0.0593,-0.2944,197.0625
19:17:19:790,0.5985,4.3047,9.775,65.6534,-0.292,0.1796,-0.317,197.0938
19:17:19:812,0.5889,4.0531,9.8279,65.6424,-0.2957,0.259,-0.3518,196.9844
19:17:19:829,0.1771,3.7804,10.4743,65.8483,-0.2443,0.0904,-0.3824,196.9688
19:17:19:848,-0.3951,3.7421,11.403,66.0159,-0.1289,-0.0861,-0.3384,196.9062
19:17:19:868,-0.0407,3.8043,12.0879,66.1539,0.0183,-0.1686,-0.1869,196.8906
19:17:19:888,1.0582,4.1465,13.0358,66.2348,0.1313,-0.1967,-0.025,197.4688
19:17:19:913,1.5849,4.6947,13.7157,66.2542,0.2065,-0.0574,0.0177,197.5312
19:17:19:929,1.1252,4.5823,12.9042,66.2735,0.2963,0.2847,-0.0867,198.1875
19:17:19:948,-0.3903,3.9215,11.5229,66.2738,0.3763,0.5223,-0.2645,198.2656
19:17:19:970,-2.0925,3.4546,10.1653,66.616,0.3958,0.6127,-0.3231,198.7188
19:17:19:988,-2.8274,3.2895,8.8008,66.6399,0.3311,0.6402,-0.1802,199.2969
19:17:20:011,-1.951,3.146,8.444,66.6208,0.1704,0.3036,0.0189,199.2969
19:17:20:034,-0.7349,2.6121,10.261,66.6983,-0.014,-0.4911,0.0641,199.9375
19:17:20:048,-0.7612,2.2122,12.4349,66.749,-0.0483,-0.934,-0.0214,199.9375
19:17:20:069,-1.5993,2.0758,11.7311,66.6878,0.1258,-0.4044,-0.0305,200.5469
19:17:20:087,-1.896,2.0566,8.7817,66.8408,0.328,0.438,0.0953,200.5469
19:17:20:113,-1.762,2.4754,6.816,66.9217,0.3525,0.6133,0.2169,201.25
19:17:20:129,-1.0439,3.0452,6.8662,66.9839,0.1979,0.16,0.2547,201.25
19:17:20:149,0.0287,3.3087,7.9723,66.8859,-0.0299,-0.314,0.182,201.875
19:17:20:168,0.4573,3.0165,8.9061,67.0092,-0.2346,-0.4386,-0.0177,201.875
19:17:20:189,0.0598,2.3677,9.1023,67.366,-0.3427,-0.2272,-0.2352,201.9688
19:17:20:213,-0.6081,1.8529,8.5421,67.4711,-0.3372,0.0971,-0.3176,201.9688
19:17:20:228,-0.9505,1.6639,7.7019,67.5687,-0.2633,0.3066,-0.2462,202.2031
19:17:20:248,-0.8453,1.8386,7.2135,67.6593,-0.19,0.3335,-0.1093,202.2188
19:17:20:269,-0.565,2.2911,7.2829,67.896,-0.1393,0.2266,0.0134,202.5156
19:17:20:289,-0.297,2.7365,7.503,67.8425,-0.0702,0.1417,0.0837,202.5469
19:17:20:314,-0.7229,3.5169,7.1417,68.1429,0.1405,0.2547,0.044,202.5312
19:17:20:329,-0.8907,3.7062,6.5934,68.2163,0.1888,0.2999,0.0098,202.5312
19:17:20:348,-0.7277,3.7756,6.5121,67.6155,0.1246,0.1845,-0.0269,202.8594
19:17:20:368,-0.6224,3.7277,7.7833,67.526,-0.0641,-0.2046,-0.0953,202.8906
19:17:20:387,-0.6583,3.7445,10.4432,67.5063,-0.281,-0.686,-0.1649,202.4219
19:17:20:407,-0.4669,3.4475,12.8037,67.3882,-0.3793,-0.8185,-0.2095,202.3594
19:17:20:428,-0.4262,2.9207,13.5003,67,-0.3207,-0.5278,-0.2346,201.9688
19:17:20:447,-0.7229,2.7413,13.3089,66.837,-0.1778,-0.1936,-0.212,201.9375
19:17:20:468,-0.8931,2.9136,12.8396,66.3498,-0.0403,-0.025,-0.1057,202.2812
19:17:20:487,-0.8043,3.1699,12.1023,66.0337,0.0544,0.0641,0.025,202.3125
19:17:20:514,-0.3568,3.2919,11.0465,66.3382,0.0977,0.1411,0.1289,202.7969
19:17:20:529,0.5315,3.2632,10.139,66.1289,0.0605,0.1277,0.1784,202.75
19:17:20:548,1.5538,3.0787,10.0337,66.0235,-0.0812,-0.0702,0.1136,202.75
19:17:20:569,2.1188,2.138,11.0058,65.9345,-0.2926,-0.4184,-0.113,202.4844
19:17:20:588,1.6017,1.2592,12.9353,65.8683,-0.4685,-0.7348,-0.361,202.4844
19:17:20:611,0.874,0.6416,13.3448,65.5946,-0.4349,-0.5302,-0.3891,202.3438
19:17:20:629,0.7014,0.699,11.9991,65.5106,-0.2052,-0.0018,-0.1833,202.3438
19:17:20:647,1.0391,1.5299,10.4719,65.6237,0.0513,0.303,0.0421,202.4844
19:17:20:667,1.4438,2.3533,9.1286,65.3705,0.2101,0.3494,0.1063,202.4844
19:17:20:687,1.4677,2.7126,7.7067,65.217,0.1918,0.303,-0.0257,203.1719
19:17:20:711,1.0965,2.4921,7.8694,64.9512,0,0.2401,-0.2566,203.1719
19:17:20:730,0.2082,2.1141,7.1584,64.7764,-0.0684,0.4221,-0.4502,203.7812
19:17:20:747,-0.5865,2.217,6.5097,64.6593,-0.0788,0.2474,-0.4667,203.7812
19:17:20:767,-0.2034,2.3844,6.5456,64.5279,-0.1698,-0.1997,-0.3335,203.8594
19:17:20:788,0.3185,2.5283,7.1752,64.2854,-0.2895,-0.5272,-0.2566,203.8594
19:17:20:809,0.6033,2.9112,9.2411,63.8604,-0.3256,-0.2895,-0.2492,203.5156
19:17:20:830,0.7493,3.0212,9.1262,63.658,-0.0861,0.0922,-0.2975,203.4844
19:17:20:866,0.7732,3.2512,8.7051,63.4592,0.16,0.2975,-0.3525,203.5469
19:17:20:872,0.8453,3.5719,8.633,63.1096,0.2834,0.3091,-0.3861,203.5625
19:17:20:907,1.0487,3.6461,8.9635,62.7258,0.273,0.1924,-0.4404,204.4688
19:17:20:907,0.8501,3.5025,9.7152,62.3842,0.1796,0.069,-0.5308,204.5625
19:17:20:942,0.3377,3.2584,10.5748,62.2268,0.0819,0.0183,-0.5791,204.6562
19:17:20:948,-0.1436,3.1005,11.2092,62.1137,0.0519,0.0898,-0.5302,204.6562
19:17:20:967,-0.4286,3.1412,11.4221,61.875,0.1026,0.2046,-0.4148,204.4844
19:17:20:987,-0.1675,3.3661,11.5612,61.6076,0.1924,0.2388,-0.2767,204.4688
19:17:21:049,0.0024,3.7229,11.7383,61.2455,0.2669,0.2138,-0.1765,205.0469
19:17:21:057,0.0239,3.9335,11.7072,60.9733,0.3121,0.2254,-0.1442,205.9531
19:17:21:057,-0.3449,3.9838,11.2187,60.4893,0.3262,0.3488,-0.1497,205.9531
19:17:21:068,-1.1276,4.0986,10.3881,60.1708,0.295,0.5223,-0.1472,206.6719
19:17:21:088,-1.4892,4.1704,9.5381,59.8882,0.2156,0.5608,-0.1252,206.6719
19:17:21:108,-1.0056,3.7229,9.0329,59.4786,0.0874,0.2926,-0.1649,207.2812
19:17:21:131,-0.2704,2.4658,9.859,59.006,-0.0544,-0.3274,-0.3525,207.2812
19:17:21:148,-0.7899,1.4246,11.9824,58.5812,-0.0941,-0.8924,-0.6133,208.0156
19:17:21:167,-2.0495,0.6751,12.2889,58.2876,0.0641,-0.7397,-0.686,208.0156
19:17:21:188,-2.6001,0.2922,10.5461,57.9028,0.3286,-0.1576,-0.4679,209.0781
19:17:21:207,-2.3342,0.6894,8.7697,57.7959,0.4862,0.1967,-0.1381,209.0781
19:17:21:231,-1.5658,1.5682,7.9292,57.7445,0.4478,0.1985,0.1155,210.2969
19:17:21:248,-0.4238,2.3294,7.7904,57.6105,0.2517,0.0599,0.2046,210.2969
19:17:21:269,0.4262,2.624,7.8287,57.4319,0.0067,-0.0195,0.1271,210.9375
19:17:21:290,0.6105,2.6121,7.7282,57.5521,-0.1814,0.0574,-0.0647,211
19:17:21:316,0.1579,2.4634,7.3834,57.4362,-0.2963,0.2144,-0.2773,211.3125
19:17:21:332,-0.352,2.2911,7.1991,57.1544,-0.3573,0.2144,-0.4105,211.3438
19:17:21:349,0.3329,2.4299,8.013,57.2004,-0.2993,-0.1625,-0.3464,211.5469
19:17:21:369,0.5028,2.6982,8.1879,56.9957,-0.2004,-0.168,-0.3396,211.5625
19:17:21:388,0.1436,2.9016,7.9986,56.4665,-0.1093,-0.0825,-0.3995,211.7344
19:17:21:414,-0.2345,2.9901,7.6923,56.1505,-0.0458,-0.0269,-0.4386,211.75
19:17:21:428,-0.2994,3.0858,7.3834,55.6953,0.0037,0.0122,-0.4178,212.9219
19:17:21:447,-0.4286,3.3206,7.3929,55.0063,0.0305,0.0104,-0.3903,213.0312
19:17:21:468,-0.687,3.5671,7.6684,54.526,0.0367,-0.0391,-0.3781,214.3906
19:17:21:488,-0.8019,3.7397,8.0273,54.3114,0.0391,-0.11,-0.3836,214.5938
19:17:21:514,-0.6751,3.9359,8.875,53.7538,0.0134,-0.2242,-0.4264,214.5938
19:17:21:528,-0.3066,3.8689,9.9188,53.4644,-0.0538,-0.3079,-0.5168,214.2656
19:17:21:549,-0.201,3.4762,11.0178,52.9866,-0.1423,-0.3586,-0.6591,214.2656
19:17:21:568,-0.7325,2.8896,12.076,52.5546,-0.2089,-0.3714,-0.8149,214.5156
19:17:21:587,-1.1324,2.2337,12.8492,52.3112,-0.1888,-0.3677,-0.8931,214.5156
19:17:21:612,-1.1898,1.7046,13.2132,52.0719,-0.0837,-0.3402,-0.8466,215.2656
19:17:21:631,-0.8716,1.5873,13.031,51.774,0.047,-0.2333,-0.6713,215.2656
19:17:21:648,-0.0383,1.9558,12.2674,51.341,0.1209,-0.0715,-0.4178,216.0312
19:17:21:667,1.1396,2.4275,11.621,51.0892,0.0434,0.0024,-0.2737,216.0312
19:17:21:687,1.8601,2.3103,12.076,50.641,-0.1735,-0.146,-0.4142,216.875
19:17:21:709,1.4366,1.6113,12.9592,50.7046,-0.3592,-0.2902,-0.7868,216.9531
19:17:21:729,0.5865,0.7158,12.5785,50.5292,-0.3457,-0.1784,-1.0898,217.8438
19:17:21:747,0.0383,0.1962,11.4748,50.3262,-0.1961,-0.0446,-1.1319,217.8438
19:17:21:769,0.0933,0.2584,10.2993,50.1196,-0.0733,0.0147,-0.9743,218.6406
19:17:21:789,0.5124,0.7756,9.7152,50.029,-0.0287,-0.0403,-0.8222,218.7188
19:17:21:814,0.9505,1.2209,9.4543,50.2113,-0.0574,-0.1295,-0.8014,219.75
19:17:21:828,0.9721,1.3119,9.1214,50.1672,-0.1393,-0.1295,-0.9138,219.8438
19:17:21:847,0.6248,1.2257,8.7171,50.2649,-0.2071,-0.0678,-1.061,221.4062
19:17:21:869,0.0024,1.1204,8.2143,49.9522,-0.1558,-0.0018,-1.1508,221.5469
19:17:21:888,-0.9673,1.3382,7.6493,49.9349,-0.0067,-0.0434,-1.0665,223.375
19:17:21:912,-1.008,1.8123,7.5628,49.9953,0.179,-0.0702,-0.9291,223.5469
19:17:21:929,-1.0582,2.3701,7.5918,50.1681,0.3329,-0.088,-0.8051,224.7188
19:17:21:947,-1.1492,2.9207,7.6756,50.1161,0.4123,-0.0568,-0.7202,224.8281
19:17:21:967,-1.3525,3.3924,7.7474,49.7707,0.4135,0.0159,-0.6811,225.5312
19:17:21:987,-1.5993,3.6894,7.8479,49.6714,0.3421,0.0837,-0.6884,225.6094
19:17:22:014,-1.5969,3.7158,7.9986,49.5223,0.215,0.0886,-0.7104,227.4531
19:17:22:028,-1.4004,3.4929,8.8104,49.6498,0.0562,-0.0153,-0.7263,229.9219
19:17:22:047,-1.3956,3.1819,10.1342,49.5883,-0.0819,-0.1735,-0.7275,229.9219
19:17:22:068,-1.5921,2.9399,11.3982,49.2745,-0.1209,-0.2596,-0.6793,231.7344
19:17:22:088,-1.6208,2.8298,12.3942,48.967,-0.0501,-0.2559,-0.5626,231.7344
19:17:22:113,-1.4028,2.7628,12.6864,48.8978,0.0757,-0.1576,-0.3842,233.8906
19:17:22:131,-1.0367,2.8585,12.5306,49.0302,0.2052,-0.0415,-0.1888,233.8906
19:17:22:148,-0.7612,3.1507,11.8986,49.1114,0.3176,0.0727,-0.0403,236.1406
19:17:22:168,-0.8501,3.4331,11.0417,49.0442,0.3824,0.1936,0.0128,236.3594
19:17:22:187,-1.3238,3.524,10.2778,48.6961,0.3812,0.2957,-0.0367,236.3906
19:17:22:214,-1.9415,3.524,9.5118,48.6628,0.3176,0.3812,-0.1319,238.5938
19:17:22:229,-1.8912,3.3111,9.0209,48.8857,0.1588,0.3494,-0.2187,240.4219
19:17:22:247,-1.1276,2.4634,9.5213,48.9241,-0.1118,0.0647,-0.3653,240.4219
19:17:22:268,-1.6065,1.5969,11.4796,48.9387,-0.3922,-0.3085,-0.6347,242.0312
19:17:22:289,-2.7891,0.7277,12.8204,49.1736,-0.449,-0.3732,-0.8191,242.0312
19:17:22:313,-3.6054,-0.0072,12.2602,48.9776,-0.2095,-0.1038,-0.7483,243.5156
19:17:22:327,-3.9024,-0.1914,10.8021,49.1044,0.1216,0.1032,-0.485,243.6562
19:17:22:347,-3.3326,0.0957,9.7511,49.5762,0.3207,0.0751,-0.1472,245.0781
19:17:22:369,-1.075,1.2018,9.9284,49.7082,0.3244,-0.0654,0.1362,245.2188
19:17:22:391,-0.6751,1.5132,9.4328,49.8235,0.2291,0.077,0.3054,246.2188
19:17:22:413,-0.6631,1.6854,8.2956,50.1539,0.292,0.2462,0.2676,246.3281
19:17:22:432,-0.9051,2.0112,7.2661,50.425,0.3561,0.2462,0.2333,246.625
19:17:22:446,-1.1539,2.4538,7.302,50.2241,0.3696,0.0336,0.2181,246.6562
19:17:22:468,-0.8429,2.7532,7.6158,50.3489,0.4282,-0.1558,0.2425,246.75
19:17:22:487,-0.4884,3.0981,7.2876,50.5546,0.5876,-0.1588,0.2859,246.75
19:17:22:509,-0.2608,3.5815,6.4232,50.3538,0.7355,-0.0812,0.281,247.0938
19:17:22:531,-0.1531,4.2281,5.8534,50.4263,0.741,-0.0764,0.204,248.0625
19:17:22:548,-0.0646,4.7402,5.7817,50.6859,0.5944,-0.1435,0.0556,248.0625
19:17:22:567,0.2058,4.6995,6.3514,50.7604,0.3537,-0.2584,-0.1741,249.8281
19:17:22:588,0.3305,4.1417,7.5365,50.7858,0.0831,-0.3934,-0.46,249.8281
19:17:22:613,-0.0167,3.5432,9.1119,50.8216,-0.1558,-0.482,-0.6994,250.5938
19:17:22:631,-0.4573,3.1436,11.2403,51.1504,-0.3262,-0.4667,-0.8179,250.5938
19:17:22:649,-0.8139,2.6767,12.3272,51.4055,-0.3598,-0.2388,-0.8082,250.2812
19:17:22:669,-1.6711,2.3174,11.8005,51.7182,-0.2352,0.0153,-0.6982,250.25
19:17:22:688,-1.8649,2.2361,11.2905,51.6899,-0.0104,-0.0464,-0.4887,249.6719
19:17:22:713,-1.2544,2.6288,11.0513,51.7325,0.1985,-0.2285,-0.2205,249.6719
19:17:22:729,-0.4358,3.2536,10.6849,51.8253,0.292,-0.3152,0.0092,249.2656
19:17:22:748,0.6057,3.6942,10.6801,52.0037,0.2596,-0.3683,0.0831,249.2656
19:17:22:768,1.6543,3.7349,10.783,52.3654,0.1411,-0.4019,-0.0666,248.9062
19:17:22:789,2.1858,3.0308,10.9747,52.6257,-0.066,-0.4441,-0.4416,248.9062
19:17:22:813,1.573,1.9343,11.7287,52.6585,-0.3439,-0.496,-0.9077,248.6719
19:17:22:829,0.5267,1.0654,12.4182,52.788,-0.5858,-0.43,-1.1545,248.6562
19:17:22:848,-0.1675,0.6535,12.6673,53.1922,-0.6683,-0.281,-1.0824,248.9688
19:17:22:867,-0.3688,0.8258,12.2148,53.5399,-0.5473,-0.1203,-0.8314,249
19:17:22:889,0.5674,1.8123,9.3443,53.6217,-0.0122,-0.0171,-0.4545,250.2812
19:17:22:911,0.5387,2.1452,7.9866,53.8421,0.1368,-0.0977,-0.5137,250.4062
19:17:22:927,-0.0431,2.2074,7.1441,53.9299,0.1326,-0.1784,-0.6585,252.0469
19:17:22:947,-0.7612,2.0686,6.8806,53.8878,0.025,-0.2395,-0.7703,252.2031
19:17:22:967,-1.0726,1.8721,7.0723,53.9753,-0.0837,-0.2596,-0.7697,253.3594
19:17:22:988,-1.0917,2.0088,7.4839,54.0431,-0.1228,-0.212,-0.6542,253.4844
19:17:23:013,-1.0726,2.4682,7.5604,53.9316,-0.1014,-0.0941,-0.496,253.8438
19:17:23:028,-1.1348,2.9782,7.6923,53.7326,-0.033,-0.0709,-0.3983,254.0312
19:17:23:047,-0.996,3.3494,7.8885,53.6755,0.0782,-0.1741,-0.3842,254.0312
19:17:23:124,-0.7899,3.481,8.3172,53.4397,0.1716,-0.2914,-0.4514,255.5938
19:17:23:125,-0.7851,3.2824,8.8702,53.2129,0.1326,-0.2828,-0.5858,255.5938
19:17:23:125,-0.9673,3.0811,9.7774,52.9828,0.036,-0.1716,-0.6304,257.9844
19:17:23:128,-1.1659,3.0356,10.1438,53.0429,-0.0202,0.0238,-0.5614,257.9844
19:17:23:147,-1.6759,3.1842,10.6896,52.9022,-0.0232,0.1069,-0.4862,258
19:17:23:167,-1.9872,3.1125,11.3145,52.8621,0.0525,0.055,-0.427,259.4375
19:17:23:188,-2.0375,2.9686,11.5062,52.7729,0.1863,0.0012,-0.3415,259.4531
19:17:23:207,-1.8242,3.0715,12.119,52.6887,0.2969,-0.1063,-0.2272,260.5312
19:17:23:228,-1.1755,3.1962,12.3272,52.6013,0.3922,-0.1332,-0.1069,262.1719
19:17:23:247,-0.9386,3.4929,11.5229,52.7872,0.4423,0.0391,0.0067,262.1719
19:17:23:267,-0.7947,4.0244,11.2259,52.7868,0.4361,0.1662,0.1234,263.7656
19:17:23:288,-1.0654,4.2784,10.261,52.5516,0.4001,0.3164,0.1222,263.7656
19:17:23:311,-1.506,4.2544,9.2868,52.4115,0.3189,0.2889,0.0299,264.6719
19:17:23:327,-1.3358,3.6559,9.4854,52.2387,0.1271,-0.0037,-0.0904,264.75
19:17:23:348,-0.8859,2.5355,11.4102,52.1684,-0.0996,-0.3628,-0.2663,265.6719
19:17:23:368,-1.4103,1.5802,12.5976,52.2029,-0.1356,-0.3115,-0.3885,265.7656
19:17:23:389,-2.7461,1.331,8.9922,52.2362,0.4117,0.5094,0.022,267.0469
19:17:23:411,-2.3844,1.9729,7.0196,52.0441,0.5944,0.5834,0.2865,267.1719
19:17:23:427,-1.7357,2.5499,6.1289,51.9073,0.587,0.4111,0.3665,268.2031
19:17:23:447,-1.0534,2.5161,5.9542,51.9451,0.4117,0.27,0.2712,268.3125
19:17:23:467,-0.6846,1.8984,5.7338,51.8401,0.1851,0.3176,0.1399,269.1094
19:17:23:487,-1.7261,0.941,5.0492,51.7531,-0.1264,0.4978,0.0586,269.1875
19:17:23:508,-1.8338,1.4725,5.7362,51.6697,-0.4752,0.3317,0.1942,269.6406
19:17:23:528,-0.687,2.059,8.377,51.5697,-0.6402,-0.2022,0.3641,269.6406
19:17:23:547,-0.0383,2.5184,10.2203,51.4573,-0.5864,-0.3971,0.3158,269.6406
19:17:23:567,-0.3209,2.6599,10.0409,51.2931,-0.4306,-0.2083,0.1045,269.5
19:17:23:587,-1.3741,2.1045,9.5477,51.1777,-0.3048,-0.1173,-0.0458,269.5
19:17:23:611,-1.6711,2.4299,9.6745,51.0625,-0.2217,-0.1881,0.011,269.9062
19:17:23:627,-1.4677,2.7054,9.2605,51.1365,-0.1093,-0.1393,0.0751,269.9375
19:17:23:648,-1.5036,3.0691,8.6641,51.0361,-0.0177,-0.0702,0.1124,269.9375
19:17:23:667,-1.4079,3.4905,8.6378,50.8184,-0.0171,-0.1106,0.1619,270.6875
19:17:23:687,-1.2353,3.8091,9.2845,50.598,-0.0324,-0.2456,0.1686,270.6875
19:17:23:707,-1.1085,4.0388,10.0935,50.4263,0.0128,-0.3635,0.0935,270.375
19:17:23:727,-1.0152,4.0986,10.6896,50.341,0.0757,-0.4074,-0.0116,269.7344
19:17:23:748,-1.0247,3.9024,11.147,50.2336,0.0928,-0.4068,-0.1185,269.7344
19:17:23:767,-1.0128,3.3829,11.511,49.9179,0.1057,-0.3903,-0.2077,269.4062
19:17:23:788,-0.8859,2.7054,11.4628,49.5548,0.1784,-0.3402,-0.237,269.4062
19:17:23:811,-0.6559,2.5475,10.9962,49.2804,0.2999,-0.2694,-0.157,268.5938
19:17:23:827,0.3162,2.636,9.9595,49.1339,0.3195,-0.179,-0.0202,268.5938
19:17:23:848,1.0606,2.6408,9.5309,48.9411,-0.0055,-0.2169,-0.0403,268.0781
19:17:23:867,1.4844,2.1978,11.8101,48.9728,-0.4783,-0.5797,-0.2181,268.0312
19:17:23:889,1.2329,1.3358,14.2448,48.8702,-0.8576,-0.6707,-0.4667,268.0156
19:17:23:911,0.7684,0.5339,15.5258,48.6851,-0.926,-0.4465,-0.5485,268.0156
19:17:23:927,1.008,0.8859,12.0999,48.6197,0.0458,0.2596,-0.0971,267.8438
19:17:23:947,1.5227,1.884,9.3969,48.5369,0.5528,0.3354,0.0672,267.8281
19:17:23:967,2.0183,2.6671,7.7952,48.4407,0.7403,0.171,0.025,267.5312
19:17:23:987,1.8936,2.8298,6.9212,48.3911,0.6432,0.011,-0.204,267.5
19:17:24:008,1.1922,2.5427,6.4953,48.0008,0.4245,-0.0739,-0.4777,267.5
19:17:24:028,0.2249,2.2146,6.5408,47.6467,0.1912,-0.099,-0.6597,267.5
19:17:24:047,-0.3664,1.9391,6.7442,47.0932,0.0037,-0.0977,-0.6689,267.9375
19:17:24:068,-0.3832,2.0925,6.7274,46.72,-0.1124,-0.0806,-0.551,268.5625
19:17:24:087,-0.0502,2.5184,7.1345,46.4541,-0.1845,-0.1051,-0.4526,268.5625
19:17:24:107,0.0814,2.8801,7.6899,46.1816,-0.2126,-0.1142,-0.4471,268.5625
19:17:24:129,-0.1316,3.0141,7.9866,45.9512,-0.1741,-0.1063,-0.5162,268.7188
19:17:24:148,-0.4454,3.0117,8.2262,45.518,-0.0788,-0.1594,-0.5785,268.7188
19:17:24:167,-0.5076,3.0667,8.9755,45.3525,0.0397,-0.2407,-0.5577,269.4531
19:17:24:187,-0.2201,3.3541,9.4161,44.8357,0.1582,-0.2395,-0.4838,269.4688
19:17:24:207,-0.3664,3.5288,9.5189,44.8804,0.2199,-0.1442,-0.4508,270.3594
19:17:24:228,-1.2377,3.5504,10.5341,44.9698,0.2498,-0.212,-0.4337,270.4062
19:17:24:247,-1.7788,3.4666,12.2291,44.8559,0.427,-0.3818,-0.3549,270.4062
19:17:24:267,-1.6639,3.6126,12.0999,44.5979,0.7715,-0.2358,-0.1564,270.75
19:17:24:287,-0.8306,4.4387,9.8085,44.3929,0.9737,0.215,0.113,270.75
19:17:24:308,0.0742,5.3366,9.3132,44.2875,0.7575,0.3971,0.2724,272.0781
19:17:24:328,0.2154,5.6429,10.328,44.1329,0.35,0.3848,0.2193,272.0781
19:17:24:347,-0.5865,5.0348,11.6593,44.1278,0.0959,0.3769,0.0312,273.3125
19:17:24:367,-1.8458,4.0986,12.1597,43.9863,0.1252,0.4453,-0.0831,273.4375
19:17:24:387,-2.7365,3.591,11.5517,43.5608,0.3512,0.5473,-0.0202,274.3281
19:17:24:407,-2.849,3.5958,10.1486,43.4631,0.5589,0.5992,0.1625,274.4062
19:17:24:428,-2.0112,3.6966,9.318,43.3142,0.584,0.4258,0.3201,275.5
19:17:24:447,-0.917,3.4881,11.3504,43.1223,0.4917,-0.0049,0.2614,275.6094
19:17:24:467,-1.2975,3.4044,9.7343,42.7567,0.6267,0.3066,0.1851,276.7188
19:17:24:487,-1.5132,3.2776,8.0536,42.5946,0.6402,0.4423,0.1008,276.8281
19:17:24:508,-1.4198,3.1077,7.2087,42.2155,0.4612,0.3421,0.0232,277.7969
19:17:24:527,-1.2329,2.7796,7.5942,41.8048,0.1295,0.193,-0.0226,278.5938
19:17:24:547,-1.2616,2.4251,9.1502,41.6559,-0.2285,0.1814,-0.0147,278.5938
19:17:24:567,-1.2688,2.4299,10.1151,41.1139,-0.3726,0.4074,0.0696,278.3906
19:17:24:587,-0.9984,2.8155,8.9133,41.0012,-0.1924,0.697,0.146,278.3906
19:17:24:611,-0.8907,3.1005,6.9308,40.7963,0.0434,0.7813,0.1289,278.375
19:17:24:627,-1.0319,3.1507,5.8582,40.6522,0.149,0.5852,0.1026,278.0469
19:17:24:647,-1.1539,3.201,6.0571,40.4312,0.1411,0.2431,0.1301,278.0312
19:17:24:668,-1.0941,3.6078,6.9858,40.2927,0.0562,-0.0116,0.226,278.0625
19:17:24:688,-0.4932,4.3023,7.8694,40.2344,0.0244,-0.1338,0.3329,278.0625
19:17:24:708,-0.0502,4.9008,8.4057,40.0937,0.0544,-0.1973,0.336,277.5312
19:17:24:728,-0.1747,5.2478,9.1406,40.0927,0.0971,-0.1845,0.2266,277.0156
19:17:24:748,-0.577,5.3414,8.9874,39.7823,0.2346,-0.0379,0.0715,277.0156
19:17:24:768,-1.439,5.03,7.6804,39.8134,0.4337,0.0904,-0.1051,276.75
19:17:24:788,-2.1069,4.5009,6.7083,39.7289,0.4789,0.0391,-0.1942,276.75
19:17:24:812,-2.2289,4.6708,7.0699,39.6899,0.3103,-0.0947,-0.1258,276.7344
19:17:24:827,-1.992,5.0468,7.9268,39.6552,0.0727,-0.1387,-0.0202,276.7344
19:17:24:847,-1.8027,5.2214,9.0449,39.5488,-0.1271,-0.1209,0.0134,276.4844
19:17:24:867,-1.4821,5.0779,10.5174,39.6555,-0.1967,-0.1735,-0.0006,276.4531
19:17:24:889,-1.4797,4.745,11.202,39.4442,-0.0611,-0.1997,-0.0238,275.8594
19:17:24:911,-1.1109,4.8003,10.0217,39.2579,0.1472,-0.1222,-0.0171,275.8594
19:17:24:928,0.5578,5.2789,9.0879,38.8792,-0.1863,-0.0647,-0.1613,275.5156
19:17:24:949,0.6392,4.5416,10.0911,38.8618,-0.5962,-0.1106,-0.3867,275.4844
19:17:24:967,-0.2776,3.1388,13.0502,38.5518,-0.926,-0.2749,-0.609,274.9688
19:17:24:987,-1.3741,2.0064,15.5928,38.4376,-0.9474,-0.2578,-0.6438,274.9219
19:17:25:007,-1.1707,1.8338,14.9082,38.095,-0.5693,0.1185,-0.4038,274.4531
19:17:25:027,-0.4023,2.691,11.4604,37.7309,0.0073,0.4923,-0.113,274.5312
19:17:25:047,0.079,3.2608,7.9795,37.6073,0.4545,0.3946,-0.0257,274.5312
19:17:25:067,0.2632,3.5719,6.1528,37.6079,0.5113,0.0391,-0.0727,274.5312
19:17:25:087,0.2417,3.6799,6.2892,37.6426,0.2523,-0.2572,-0.1869,275
19:17:25:108,0.0359,3.5312,7.1943,37.2468,-0.0428,-0.347,-0.3201,275.0312
19:17:25:127,-0.2082,3.2943,7.7545,37.2882,-0.1808,-0.2969,-0.416,275.0938
19:17:25:173,-0.28,3.2106,7.3475,37.2499,-0.1484,-0.237,-0.4502,275.0938
19:17:25:174,-0.5195,3.347,7.2087,37.2233,-0.0727,-0.3372,-0.4416,275.1562
19:17:25:186,-0.5267,3.5312,7.7067,36.9319,0.0006,-0.4826,-0.4001,275.1562
19:17:25:207,-0.3616,3.8928,7.2254,36.7171,0.1429,-0.482,-0.3641,275.2969
19:17:25:228,-0.4262,4.276,6.4256,36.6507,0.2169,-0.4068,-0.3586,275.7969
19:17:25:247,-0.632,4.4028,6.0595,36.3614,0.1197,-0.3476,-0.3903,275.7969
19:17:25:267,-0.8139,4.4052,6.5767,36.3908,-0.0556,-0.361,-0.4123,276.9688
19:17:25:288,-0.8402,4.2879,7.4049,36.1297,-0.1869,-0.4044,-0.4038,276.9688
19:17:25:311,-1.1013,4.0723,8.5516,35.7991,-0.2737,-0.4416,-0.3525,277.3438
19:17:25:328,-0.9888,4.0101,10.1725,35.6519,-0.3054,-0.4752,-0.2193,277.3438
19:17:25:347,-0.7158,4.3214,11.4915,35.721,-0.2498,-0.3641,-0.0806,277.5312
19:17:25:367,-0.8788,4.7186,11.8866,35.5763,-0.2107,0.0134,-0.0281,277.5469
19:17:25:388,-1.4677,4.7641,11.2977,35.3705,-0.2828,0.5583,-0.0159,278.1719
19:17:25:408,-1.6711,4.7617,10.8882,35.3235,-0.347,0.7941,0.0709,278.25
19:17:25:427,-1.0367,5.1616,11.8579,35.1988,-0.2358,0.5308,0.2211,279.1406
19:17:25:448,-0.2345,5.5711,12.8539,35.2682,0.1148,0.1778,0.2828,279.2344
19:17:25:467,-1.0367,5.5041,9.3969,35.2253,0.802,0.2523,-0.0507,280.1875
19:17:25:488,-2.4299,4.951,8.0321,35.1554,0.6499,0.2712,-0.215,280.2812
19:17:25:507,-3.1077,4.4889,8.2023,34.9317,0.2999,0.1435,-0.2193,281.2031
19:17:25:527,-2.2792,3.3781,9.6864,34.7579,-0.0043,-0.1173,-0.168,282.2188
19:17:25:547,-2.2337,2.4754,11.6426,34.5698,-0.1228,-0.3561,-0.1374,282.2188
19:17:25:567,-2.5953,2.7843,12.4756,34.3556,-0.0476,-0.2462,-0.033,282.3125
19:17:25:587,-2.3294,3.1316,9.7654,34.0591,0.215,0.215,0.0916,283.1406
19:17:25:608,-2.7269,3.1388,6.816,33.6568,0.3775,0.3464,0.0849,283.2188
19:17:25:628,-2.8513,2.7437,6.5097,33.4956,0.234,-0.022,0.0702,283.6094
19:17:25:648,-2.1882,2.6599,8.2597,33.4284,-0.0538,-0.369,0.1332,283.6094
19:17:25:667,-1.118,2.7796,9.6769,33.2842,-0.2291,-0.3347,0.1863,283.5
19:17:25:688,-0.9338,2.8178,9.2076,33.0454,-0.1961,0.0342,0.1209,283.5
19:17:25:709,-1.3597,2.569,7.6038,32.9737,-0.0867,0.3305,0.0171,282.9062
19:17:25:731,-1.8769,2.2098,6.7681,32.8587,-0.0299,0.2969,-0.0116,282.4688
19:17:25:748,-2.2313,2.2768,6.9476,32.7483,-0.0476,0.1118,0.077,282.4688
19:17:25:768,-1.8769,2.6408,7.678,32.8811,-0.0947,0.0464,0.2395,282.8906
19:17:25:789,-1.2855,3.1627,7.8048,32.7667,-0.1057,0.1985,0.3628,282.8906
19:17:25:812,-1.1133,3.766,7.7163,32.5766,-0.1075,0.3659,0.3909,283.375
19:17:25:830,-1.2784,4.1058,8.0034,32.3732,-0.0312,0.3054,0.3372,283.375
19:17:25:848,-1.6878,4.2138,8.0704,32.434,0.212,0.0953,0.2523,283.625
19:17:25:868,-1.9753,4.1417,7.57,32.1613,0.4197,-0.0367,0.1979,283.625
19:17:25:888,-2.1236,4.2138,8.0632,31.9559,0.3641,-0.0507,0.2107,283.4688
19:17:25:915,-2.083,4.4818,8.8582,31.6937,0.1869,0.033,0.2462,283.4375
19:17:25:928,-2.1715,4.8051,9.6194,31.461,0.0483,0.1246,0.2614,283.3281
19:17:25:949,-1.9968,4.6995,10.491,31.3751,0.0238,0.1057,0.2889,283.3281
19:17:25:969,-1.4868,4.666,11.0776,31.2606,0.0281,0.0195,0.3109,283
19:17:25:988,-1.1898,4.8506,11.621,31.1629,0.0421,-0.0226,0.3201,282.9688
19:17:26:008,-1.0247,4.9199,11.8005,30.9594,0.0983,0.0092,0.3146,282.8438
19:17:26:031,-0.443,4.9869,11.0034,30.8544,0.1997,0.0354,0.3286,282.8281
19:17:26:047,0.3449,5.1353,10.5676,30.7749,0.2449,-0.08,0.3128,282.4688
19:17:26:068,0.778,4.5942,11.123,30.8269,0.2138,-0.2804,0.19,282.4375
19:17:26:087,0.5315,3.6269,12.2148,30.4821,0.1735,-0.2938,0.0379,281.5625
19:17:26:108,-0.0311,3.5001,11.5923,30.1908,0.2046,0.0898,0.014,281.4688
19:17:26:130,-0.0646,3.6006,8.918,29.9131,0.3677,0.4306,0.0617,280.8438
19:17:26:148,0.1555,3.8402,6.6389,29.7351,0.4667,0.2749,0.0727,280.7812
19:17:26:169,0.2465,3.8904,6.16,29.6139,0.35,-0.1588,0.0104,280.4844
19:17:26:188,0.1364,3.5862,7.1776,29.4826,0.0305,-0.3916,-0.1051,280.4844
19:17:26:208,-0.2465,3.1962,8.0704,29.4961,-0.3323,-0.2114,-0.1991,279.9375
19:17:26:230,-0.3688,3.1507,8.4512,29.1754,-0.5137,0.0373,-0.2169,279.2812
19:17:26:248,-0.1316,3.5958,8.1159,28.9921,-0.4374,0.0886,-0.1888,279.2812
19:17:26:268,-0.1603,4.0149,7.5846,28.8131,-0.2346,-0.0305,-0.2071,278.5938
19:17:26:287,-0.4478,4.2473,7.2039,28.5102,-0.0696,-0.146,-0.2529,278.5938
19:17:26:308,-0.6153,4.3717,6.8758,28.3771,0.0147,-0.1484,-0.2761,277.9219
19:17:26:330,-0.5387,4.5535,6.2342,27.9812,0.0275,-0.0629,-0.2871,277.9219
19:17:26:347,-0.5865,4.7859,6.2342,27.7398,-0.0654,-0,-0.3231,277.5156
19:17:26:369,-1.0104,4.7812,7.1393,27.2015,-0.1613,-0.0299,-0.3793,277.5156
19:17:26:389,-1.3358,4.5655,7.9029,27.082,-0.1393,-0.0996,-0.4074,277.5469
19:17:26:413,-1.3693,4.7091,8.0154,26.8715,-0.0715,-0.1161,-0.3726,277.5625
19:17:26:432,-1.4533,4.8194,8.2238,26.6678,-0.0843,-0.0574,-0.3372,277.4062
19:17:26:448,-1.6184,4.8218,9.0449,26.5497,-0.1374,0.0086,-0.2926,277.3906
19:17:26:469,-1.64,5.5472,11.2618,26.5114,0.1161,-0.0348,-0.1558,277.6562
19:17:26:488,-2.3294,5.7721,10.7303,26.4653,0.507,-0.1533,-0.1142,277.6875
19:17:26:510,-2.5259,5.7769,9.6529,26.2338,0.843,-0.358,-0.0489,278.0156
19:17:26:532,-2.2409,5.8558,9.4711,26.0373,0.7746,-0.3396,0.0464,278.0312
19:17:26:547,-2.1523,5.8654,10.1653,25.759,0.4374,-0.0489,0.1191,278.3281
19:17:26:566,-2.3055,5.9518,10.3615,25.6507,0.1607,0.35,0.1582,278.3438
19:17:26:587,-3.0045,5.8176,9.5716,25.4346,0.0073,0.6945,0.16,278.9219
19:17:26:608,-3.6846,5.406,8.8678,25.2304,-0.069,0.6933,0.1949,278.9844
19:17:26:629,-3.1675,4.4339,9.5405,24.7536,-0.0806,0.2926,0.2859,279.6094
19:17:26:647,-2.2481,3.5336,11.7933,24.6167,-0.0403,-0.1264,0.3854,279.6562
19:17:26:668,-2.217,3.7445,12.7104,24.5245,0.0635,-0.0061,0.4636,280.5
19:17:26:688,-2.6025,3.6102,10.0624,24.4636,0.2834,0.4691,0.4795,280.5156
19:17:26:708,-3.0909,2.9901,7.5748,24.2171,0.419,0.5308,0.5021,281.2969
19:17:26:732,-2.9447,3.3517,6.9117,23.8569,0.3549,0.1435,0.6426,281.8125
19:17:26:748,-2.3366,3.821,7.9986,23.7672,0.1985,-0.2834,0.7923,281.8125
19:17:26:769,-1.2592,3.8474,8.645,23.5136,0.1063,-0.4117,0.8705,282.25
19:17:26:788,0.0479,4.0053,9.0042,23.4982,0.0983,-0.3451,0.8643,282.25
19:17:26:809,0.3616,4.1943,9.2363,23.1256,0.1087,-0.1533,0.73,282.6719
19:17:26:830,-0.4214,3.9861,8.7434,22.7113,0.1814,0.0733,0.5345,282.6719
19:17:26:848,-1.3669,3.603,7.7186,22.3687,0.2975,0.2309,0.4392,282.3906
19:17:26:869,-1.3478,3.699,7.0508,22.325,0.3848,0.2682,0.5119,282.3906
19:17:26:889,-0.6775,4.264,6.6078,22.2474,0.4319,0.2712,0.6066,281.6875
19:17:26:914,-0.1412,4.8912,5.8104,22.0055,0.43,0.3115,0.5718,281.6875
19:17:26:930,-0.6296,5.1233,5.3509,21.9292,0.4087,0.179,0.4105,280.9688
19:17:26:947,-1.1803,4.8625,6.1433,21.5509,0.3225,-0.0171,0.2853,280.9062
19:17:26:968,-1.4844,5.3749,6.8734,21.3256,0.1081,0.1344,0.3305,279.9219
19:17:26:989,-1.5467,5.4849,6.9428,21.2715,0.0061,0.0996,0.3341,279.8125
19:17:27:013,-1.5275,5.8606,8.0728,21.1596,-0.1155,-0.0501,0.3415,278.6562
19:17:27:038,-1.1755,6.1002,8.7242,20.8696,-0.1674,-0.1552,0.3445,278.5469
19:17:27:047,-0.9242,5.9925,9.1597,20.7068,-0.2138,-0.2223,0.2895,277.0781
19:17:27:075,-1.1037,5.8319,10.0528,20.4849,-0.3207,-0.226,0.2346,276.9375
19:17:27:092,-1.3789,5.4682,10.5628,20.3768,-0.394,-0.1222,0.2223,275.4844
19:17:27:109,-1.3908,5.5017,9.5285,20.3411,-0.358,-0.0012,0.2957,275.3438
19:17:27:132,-0.6105,5.3004,8.6043,20.1231,-0.4233,0.0183,0.3683,274.3438
19:17:27:149,-0.122,4.4507,9.7295,19.863,-0.7825,-0.0293,0.35,274.25
19:17:27:167,-0.1795,3.7062,12.2028,19.7124,-1.1863,0.0458,0.361,273
19:17:27:241,0.2512,3.5767,13.9002,19.6821,-1.284,0.339,0.4752,272.9844
19:17:27:241,0.9051,3.8569,13.1964,19.7121,-1.003,0.7068,0.5834,271.9062
19:17:27:242,1.829,4.0531,10.8547,19.6003,-0.5711,0.9352,0.6768,271.3438
19:17:27:249,2.2863,4.587,8.7553,19.5484,-0.19,0.7898,0.6939,271.3438
19:17:27:267,2.2146,5.0157,7.4575,19.6659,0.0684,0.35,0.5534,270.5625
19:17:27:286,1.4103,4.5224,6.4881,19.8015,0.1142,0.0086,0.2938,270.5625
19:17:27:307,0.3353,3.5862,7.089,20.0313,-0.1191,-0.1649,0.1118,269.8125
19:17:27:327,-0.51,2.916,8.068,20.3244,-0.3543,-0.1802,0.1289,269.8125
19:17:27:347,-0.7804,2.7652,8.566,20.3357,-0.4197,-0.0733,0.3011,269.2969
19:17:27:367,-0.5554,2.971,8.5732,20.2769,-0.3305,0.069,0.518,269.2969
19:17:27:388,-0.0144,3.3685,7.5942,20.3524,-0.1252,0.2205,0.642,268.6719
19:17:27:407,-0.0167,3.8282,6.1959,20.2055,0.033,0.3176,0.6255,268.6719
19:17:27:428,-0.2704,4.1345,5.6524,20.0753,0.0397,0.2504,0.5559,267.8125
19:17:27:447,-0.443,4.18,6.05,19.9982,-0.0128,0.0812,0.5088,267.7344
19:17:27:467,-0.5865,4.0579,6.4762,19.9254,-0.036,-0.0367,0.5015,266.5312
19:17:27:489,-0.4813,4.18,7.1297,19.6066,-0.1814,-0.0397,0.6121,266.4219
19:17:27:512,-0.2201,4.3669,7.424,19.5586,-0.3396,-0.0024,0.6548,264.6094
19:17:27:527,-0.4741,4.2377,8.444,19.5438,-0.5137,-0.0458,0.6451,264.4375
19:17:27:547,-0.8019,4.1441,9.7893,19.5837,-0.5986,-0.0916,0.6915,262.9219
19:17:27:567,-0.8043,4.252,10.5987,19.7346,-0.5143,-0.0721,0.8454,262.7812
19:17:27:587,-0.3879,4.3645,10.7447,19.6407,-0.3323,-0.0098,1.0433,262.3906
19:17:27:607,0.1077,4.5942,10.9579,19.6729,-0.1637,0,1.1985,262.3594
19:17:27:628,0.5267,4.8529,10.6681,19.666,-0.0544,0.0391,1.2583,261.8906
19:17:27:647,0.5913,5.03,10.9986,19.7814,-0.077,0.0342,1.1814,261.8438
19:17:27:668,0.0167,5.0492,11.7838,19.6534,-0.1472,0.0825,1.0103,260.5781
19:17:27:688,-1.0152,4.4028,11.5158,19.6927,-0.1478,0.2785,0.8314,260.4531
19:17:27:707,-1.9056,3.2249,10.8619,19.6998,-0.1435,0.3665,0.766,259.0156
19:17:27:728,-1.7572,2.059,11.2522,19.6705,-0.1997,0.1643,0.8894,257.8906
19:17:27:747,-1.4486,1.6041,13.2347,19.7161,-0.1704,-0.1533,1.0977,257.8906
19:17:27:767,-1.0774,2.339,12.7606,19.6989,0.0709,0.0446,1.3378,256.6094
19:17:27:787,-0.3257,3.1388,9.9882,19.8525,0.2639,0.5504,1.5015,256.6094
19:17:27:809,0.268,3.4499,8.4248,19.9035,0.1289,0.766,1.4783,255.1094
19:17:27:829,1.0295,3.8689,8.3315,20.3372,-0.157,0.7348,1.38,255.1094
19:17:27:847,1.7572,4.1991,8.8391,20.5171,-0.3732,0.6909,1.185,253.3281
19:17:27:867,1.9968,3.9503,8.7003,20.5791,-0.4404,0.7,0.8564,253.3281
19:17:27:887,1.075,2.9088,8.5277,20.6181,-0.4135,0.5302,0.4624,250.8281
19:17:27:907,-0.1579,1.7668,9.3443,20.9433,-0.3683,0.2034,0.2315,250.8281
19:17:27:929,-0.7373,1.3597,10.0863,21.2805,-0.2657,0.0525,0.2963,248.3594
19:17:27:947,-0.778,1.6184,9.9571,21.4388,-0.1032,0.193,0.5009,248.1094
19:17:27:967,-0.6081,2.0973,9.2028,21.4381,0.047,0.4398,0.6872,246.1719
19:17:27:988,-0.4238,2.461,8.3889,21.4256,0.1326,0.6536,0.8094,245.9688
19:17:28:010,-0.2776,2.8944,7.5846,21.4917,0.1918,0.7532,0.8912,244.1719
19:17:28:030,-0.2273,3.1675,6.9715,21.6703,0.2175,0.4734,0.8827,244
19:17:28:046,0.1747,3.4738,7.4121,21.8404,0.1057,0.3286,0.8534,241.5781
19:17:28:067,0.4167,3.7301,8.2238,21.7877,-0.0403,0.2144,0.8082,241.3438
19:17:28:087,0.5148,3.6535,9.8327,21.5043,-0.1582,0.0727,0.722,238.125
19:17:28:108,0.5506,3.4857,11.4078,21.2347,-0.1545,-0.0092,0.6536,237.7969
19:17:28:130,0.51,3.3589,11.3336,21.4153,-0.0073,0.0318,0.6267,234.8906
19:17:28:147,0.3138,3.4857,10.6729,21.3201,0.1228,0.0483,0.6133,234.6094
19:17:28:168,0.2584,3.6054,10.3663,21.3339,0.0971,0.0147,0.6121,232.9688
19:17:28:188,0.2512,3.7421,10.436,21.1855,-0.0525,0.0257,0.6084,232.8125
19:17:28:208,0.7014,3.7421,10.1055,21.1332,-0.2633,0.1173,0.6115,232.1094
19:17:28:231,1.5251,3.1507,10.3472,21.1947,-0.5382,0.0617,0.5485,230.6719
19:17:28:247,1.5658,2.1093,13.1387,21.4074,-0.8674,-0.2242,0.3824,230.6719
19:17:28:268,0.8453,1.4198,16.8616,21.5714,-0.9157,-0.3482,0.2779,228.5156
19:17:28:287,0.364,0.7277,16.7994,21.8484,-0.3836,0.011,0.3512,228.5156
19:17:28:309,0.6751,0.4789,12.6553,22.0304,0.3995,0.5363,0.5846,226.3281
19:17:28:331,1.6256,0.9721,8.2358,22.049,0.8662,0.6518,0.8332,226.3281
19:17:28:347,2.4275,1.9391,6.2868,22.3975,0.8399,0.2712,0.9138,224.375
19:17:28:368,2.837,2.8753,6.5169,22.2992,0.6102,-0.2608,0.7746,224.375
19:17:28:390,2.5881,3.1077,6.9141,22.366,0.3995,-0.4948,0.4594,222.8125
19:17:28:412,1.5873,2.7078,6.9332,22.432,0.1765,-0.3604,0.1234,222.8125
19:17:28:430,0.5626,2.3103,6.737,22.4813,-0.08,-0.0745,-0.0421,221.5625
19:17:28:447,0.0215,2.2768,7.1943,22.098,-0.3237,0.1258,-0.0232,221.4375
19:17:28:468,0.0742,2.4945,7.989,22.2078,-0.485,0.2724,0.0782,220.2031
19:17:28:489,0.3999,2.9112,8.6952,21.9986,-0.5394,0.4716,0.1576,220.0781
19:17:28:509,0.4286,3.3613,7.8311,21.7953,-0.2205,0.6261,0.1582,218.8281
19:17:28:529,0.0814,3.4068,7.1704,21.9581,0.0507,0.2425,0.1277,218.7031
19:17:28:548,0.2034,3.2489,7.7952,21.7993,0.1472,-0.1961,0.1423,218.0625
19:17:28:568,0.7086,3.1196,8.7721,21.8237,0.0751,-0.2883,0.2046,217.9844
19:17:28:587,1.0798,3.2871,9.495,21.9699,-0.0385,-0.0788,0.2535,216.9531
19:17:28:608,1.0271,3.2919,9.6697,22.1739,-0.1277,0.2236,0.2596,216.8438
19:17:28:630,0.7564,3.1699,9.8782,22.0436,-0.1729,0.4099,0.2743,215.0156
19:17:28:648,0.5985,3.2106,10.4336,22.2825,-0.1344,0.4062,0.3457,214.8281
19:17:28:668,0.996,3.5145,10.6825,22.4064,-0.0202,0.3744,0.4484,213.7969
19:17:28:687,1.3382,3.8689,10.6633,22.3104,0.08,0.339,0.4899,213.7031
19:17:28:709,1.1563,3.912,10.7901,22.1721,0.1075,0.2645,0.4306,213.7031
19:17:28:731,0.8282,3.5791,11.2403,22.0579,0.0855,0.1454,0.3512,213.5156
19:17:28:747,0.4501,3.0981,11.5995,21.9211,0.0415,0.1032,0.3109,213.5156
19:17:28:769,-0.4262,2.9925,11.5804,21.9359,-0.044,0.2602,0.325,212.8281
19:17:28:787,-1.0032,3.2201,10.716,22.1438,-0.1521,0.5223,0.4294,212.8281
19:17:28:808,-0.9625,3.0236,10.4504,22.0346,-0.284,0.4997,0.5333,212.3125
19:17:28:832,-0.6105,2.1404,11.9919,21.8552,-0.4172,0.146,0.5925,212.3125
19:17:28:847,-0.6057,1.6854,14.2639,21.9836,-0.347,-0.1747,0.6732,212.0469
19:17:28:868,-1.0199,1.9008,13.5027,22.0648,0.0819,0.0031,0.7984,212.0469
19:17:28:888,-1.3406,2.3127,9.4783,22.0998,0.5724,0.4532,0.9181,211.4375
19:17:28:907,-1.2712,2.4299,5.9327,22.3081,0.6738,0.5699,0.9951,211.4375
19:17:28:932,-0.6823,2.636,5.0492,22.1859,0.3366,0.3011,1.0549,210.5625
19:17:28:947,0.1842,3.0763,6.4208,22.0875,-0.1167,-0.1277,1.0586,210.5625
19:17:28:969,0.8692,3.2704,8.4966,22.0738,-0.3567,-0.5217,0.9285,209.4844
19:17:28:989,1.1348,2.8944,9.7989,22.1732,-0.3158,-0.7269,0.6799,209.375
19:17:29:010,-0.2922,1.8936,9.6266,22.0392,-0.1625,-0.3256,0.2639,208.5156
19:17:29:030,-0.7229,1.5371,9.1765,22.0251,-0.1643,0.033,0.2645,208.4219
19:17:29:058,-0.754,1.6256,8.3339,22.0676,-0.102,0.3225,0.3671,207.7031
19:17:29:068,-0.4573,2.0207,7.2852,21.8381,0.0086,0.4606,0.4832,207.6406
19:17:29:088,-0.0742,2.5184,6.4113,21.9044,0.077,0.4471,0.5455,206.4375
19:17:29:107,0.2465,2.9447,6.1768,21.6759,0.0507,0.3506,0.5314,206.3125
19:17:29:132,0.4789,3.2943,6.5815,21.8622,-0.0556,0.2169,0.4484,205.0156
19:17:29:149,0.5578,3.4666,7.7306,21.7554,-0.1949,0.0996,0.3219,204.875
19:17:29:169,0.4334,3.4211,9.8495,21.8011,-0.3054,-0.0079,0.182,203.1094
19:17:29:187,-0.4669,3.1938,11.4963,21.9262,-0.2938,-0.0593,0.0666,202.9375
19:17:29:209,-1.2999,2.5331,13.1626,21.6119,-0.1399,-0.2737,0.0605,200.5312
19:17:29:231,-0.7038,2.1523,14.3719,21.5089,0.1045,-0.4642,0.2248,198.4688
19:17:29:247,0.3879,2.4251,14.6614,21.4462,0.2541,-0.314,0.3903,198.4688
19:17:29:306,1.3238,2.6743,14.4963,21.5184,0.2559,0.0861,0.4337,197.5625
19:17:29:307,1.5036,2.5232,13.4644,21.3824,0.2498,0.5577,0.3659,197.5625
19:17:29:307,1.3119,2.4586,10.9914,21.4452,0.2761,0.9444,0.3128,197.0312
19:17:29:327,1.5347,2.6097,9.1095,21.3579,0.2004,0.9248,0.3036,197.0312
19:17:29:347,1.8458,2.916,9.1167,21.3508,0.0073,0.5443,0.2272,195.9219
19:17:29:368,1.8123,2.5857,10.3424,21.6501,-0.1973,0.1545,0.0428,195.9219
19:17:29:387,1.4079,1.4821,11.202,21.6762,-0.3079,-0.0336,-0.1435,194.5625
19:17:29:407,1.2066,0.5913,11.7239,21.4002,-0.3183,-0.1161,-0.1826,194.5625
19:17:29:430,1.7309,0.3927,12.265,21.4194,-0.2553,-0.1344,-0.0812,193.625
19:17:29:447,2.2026,0.6966,11.755,21.2857,-0.1258,0.0177,0,193.625
19:17:29:468,1.762,1.0343,10.5963,21.2412,0.0061,0.2431,-0.0391,193.3594
19:17:29:488,1.2305,1.0439,9.4591,21.1316,0.1203,0.3708,-0.1008,193.3281
19:17:29:508,0.6296,1.0965,7.879,21.1155,0.2419,0.4545,-0.1063,193.2031
19:17:29:529,-0.0981,1.3573,6.7274,21.131,0.325,0.3977,-0.058,193.1875
19:17:29:548,0.443,1.8075,5.528,20.946,0.3677,0.2175,0.0367,192.4219
19:17:29:567,0.766,2.3916,5.3677,21.1468,0.1991,0.0195,0.0739,192.3438
19:17:29:587,0.8306,2.9638,5.7242,20.9145,-0.0195,0.0367,-0.0153,191.3594
19:17:29:607,0.8139,3.2273,6.5145,20.937,-0.2474,0.1032,-0.1411,191.25
19:17:29:628,1.0941,3.3541,7.3451,20.8933,-0.3989,0.1619,-0.237,190.4062
19:17:29:646,1.6902,3.615,8.7553,20.8961,-0.4539,0.1466,-0.3036,190.3281
19:17:29:667,2.1308,3.9622,9.7223,20.7053,-0.3592,0.1167,-0.3916,190.375
19:17:29:687,1.8601,3.8809,10.0098,20.5198,-0.1747,0.0837,-0.5455,190.375
19:17:29:707,1.4462,3.3063,10.3304,20.5276,-0.0281,-0.0159,-0.6768,190.6719
19:17:29:729,0.7971,2.624,11.0752,20.7889,0.0324,-0.0886,-0.7019,190.6875
19:17:29:747,0.1699,2.6312,11.6904,20.9301,0.0574,-0.022,-0.576,190.6875
19:17:29:768,0.1866,3.1914,11.7287,20.8248,0.1582,0.0831,-0.361,190.7344
19:17:29:788,0.553,3.6559,11.4078,20.8135,0.2981,0.1484,-0.2156,190.7344
19:17:29:807,0.7181,4.0125,10.7471,20.7804,0.3573,0.1991,-0.1753,190.6562
19:17:29:827,0.6272,4.1034,10.6298,20.774,0.3146,0.1527,-0.2156,190.6562
19:17:29:847,0.1579,3.7875,11.0225,20.826,0.2376,0.0788,-0.2877,190.4688
19:17:29:867,-0.821,3.3135,11.1254,21.0129,0.1729,0.1118,-0.3109,190.4688
19:17:29:888,-2.0997,2.6192,10.6035,20.7916,0.0214,0.336,-0.2401,190.5938
19:17:29:908,-1.3023,2.8178,10.4504,20.9301,-0.2498,0.347,-0.0415,190.5938
19:17:29:929,-0.2441,2.2074,12.6888,21.1536,-0.3683,-0.2114,0.0495,191.0625
19:17:29:947,-0.352,2.016,14.7284,21.199,-0.0977,-0.7092,0.0208,191.0625
19:17:29:967,-1.2568,2.0973,12.8611,21.3886,0.4325,-0.518,0.0171,191.9219
19:17:29:988,-2.0471,2.2265,8.5612,21.7411,0.7874,-0.0055,0.0709,192.0156
19:17:30:007,-2.3605,2.4299,5.6429,21.9753,0.741,0.1393,0.1637,193.4062
19:17:30:029,-1.9152,2.8777,5.6524,22.2198,0.4783,-0.2358,0.2828,193.5469
19:17:30:048,-1.1348,3.1747,7.1034,22.2627,0.2938,-0.7232,0.3219,194.4844
19:17:30:069,-0.0957,3.0165,8.4296,22.1674,0.1448,-0.5962,0.047,194.5781
19:17:30:088,0.3018,1.8553,7.7928,22.1105,-0.0464,-0.1845,-0.1704,194.9531
19:17:30:108,-0.51,1.3382,8.3291,22.2934,-0.3201,0.0153,-0.2999,195
19:17:30:132,-0.4908,1.4749,9.294,22.3653,-0.4551,0.0928,-0.2547,195.4844
19:17:30:147,0.079,1.5993,9.3395,22.3841,-0.4111,0.2682,-0.1674,195.5469
19:17:30:169,0.5841,1.8912,8.6761,22.4959,-0.2944,0.4887,-0.0928,196.0156
19:17:30:187,0.9338,2.5642,7.6708,22.3962,-0.1912,0.5937,-0.0715,196.0625
19:17:30:208,0.1412,3.2177,6.9763,22.4856,-0.1582,0.493,-0.1863,195.9844
19:17:30:230,-0.4382,2.8083,8.068,22.7411,-0.1301,0.1289,-0.3292,196.25
19:17:30:247,-0.2752,1.9391,9.1741,22.9911,-0.0134,-0.1961,-0.3311,196.25
19:17:30:268,-0.3138,1.8793,9.4854,23.0821,0.0904,-0.2877,-0.2303,196.0938
19:17:30:287,-0.5219,2.2672,9.8686,23.0797,0.0342,-0.1515,-0.1038,196.0938
19:17:30:308,-0.1627,2.6049,10.0576,23.1877,-0.0733,0.0318,-0.0024,195.7344
19:17:30:331,0.2154,2.77,10.3448,23.3215,-0.0336,-0.0751,0.0415,195.7344
19:17:30:347,0.3449,2.4993,10.7662,23.7826,-0.044,-0.19,-0.0024,195.8281
19:17:30:368,0.3927,2.4179,11.5708,24.1735,-0.1704,-0.1429,-0.0434,195.8281
19:17:30:389,0.4645,2.5786,11.8268,24.5473,-0.2926,-0.0037,-0.0861,196.3281
19:17:30:408,0.122,2.3964,11.5636,24.7393,-0.3525,0.1185,-0.1698,196.375
19:17:30:432,-0.1412,2.0925,11.0608,24.8942,-0.4032,0.157,-0.2065,196.6875
19:17:30:447,-0.3209,1.8194,11.3169,25.3379,-0.4905,0.0342,-0.2016,196.6875
19:17:30:468,-0.577,1.2712,12.7415,25.792,-0.5895,-0.1124,-0.2022,196.5781
19:17:30:488,-0.8859,0.7229,14.039,26.249,-0.6066,-0.0501,-0.1552,196.5781
19:17:30:510,-0.7947,0.7229,13.2802,26.5385,-0.3989,0.1741,0.0018,196.9219
19:17:30:531,-0.3233,1.0678,11.4939,26.7561,-0.0666,0.1912,0.1637,196.9688
19:17:30:548,0.5794,1.5754,10.1438,26.9397,0.1741,-0.058,0.2547,197.625
19:17:30:569,1.1252,1.5395,8.7458,27.2979,0.1179,-0.2938,0.0696,197.7031
19:17:30:589,1.2401,1.427,8.9803,27.8064,-0.0874,-0.1875,-0.0348,197.8281
19:17:30:609,1.2688,1.4916,9.2172,28.0221,-0.2004,-0.014,-0.1338,197.8438
19:17:30:631,0.6823,1.5682,8.8487,28.1162,-0.1985,0.1784,-0.2529,197.8594
19:17:30:647,-0.0622,1.5108,8.0943,28.0492,-0.0806,0.234,-0.3036,197.8594
19:17:30:668,-0.443,1.5251,7.4527,28.0938,0.1356,0.1295,-0.2419,198
19:17:30:687,-0.2994,1.9657,6.2988,28.2206,0.2804,0.0941,-0.1368,198
19:17:30:709,0.297,2.8059,5.7553,28.4624,0.3195,-0.0385,-0.0819,198.2656
19:17:30:730,0.6966,3.1077,6.0643,28.6289,0.2639,-0.2327,-0.1442,198.6562
19:17:30:747,0.6105,2.9327,7.2087,28.7741,0.0006,-0.1442,-0.237,198.6562
19:17:30:768,0.1842,3.3111,8.7266,29.1102,-0.281,0.0794,-0.2614,198.7188
19:17:30:788,0.28,3.1077,9.8303,29.3547,-0.1979,0.047,-0.27,198.7188
19:17:30:808,1.2616,2.6982,10.5413,29.9223,-0.0092,0.0012,-0.2401,198.25
19:17:30:828,1.9152,2.8274,10.9579,30.3324,0.0874,0.0629,-0.2523,198.25
19:17:30:848,0.9936,3.0165,11.6928,30.7688,0.1014,0.0385,-0.3299,198.1094
19:17:30:870,-0.2752,3.0787,12.708,31.1188,0.1594,-0.0403,-0.3195,198.0938
19:17:30:889,-0.5195,3.0045,13.1964,31.4704,0.3537,-0.0568,-0.1509,198.2969
19:17:30:907,0.0861,3.0595,12.4205,31.9219,0.5992,0.0977,0.1014,198.2969
19:17:30:933,0.5483,3.5025,10.2371,32.3865,0.7257,0.3677,0.3018,198.7969
19:17:30:947,0.7062,4.0029,8.8367,32.7834,0.5889,0.5052,0.3641,198.7969
19:17:30:968,0.4454,4.276,8.6928,33.215,0.3121,0.449,0.2932,199.2031
19:17:30:989,-0.2608,4.2063,8.9659,33.5283,0.0702,0.3415,0.1527,199.2031
19:17:31:008,-0.9458,3.8354,9.2773,33.9665,-0.0977,0.2126,0.0458,199.5312
19:17:31:028,-1.0798,3.0188,10.0074,34.5846,-0.1997,-0.0189,0.0073,199.5625
19:17:31:047,-0.8907,1.7094,11.3432,34.9092,-0.2346,-0.3268,0.0037,200.0469
19:17:31:070,-1.7333,0.9912,12.7487,35.0916,-0.1698,-0.5113,0.0635,200.0938
19:17:31:090,-1.6304,1.4749,9.5596,35.3053,0.4716,-0.0043,0.4667,200.5781
19:17:31:110,-1.2018,1.9032,7.3451,35.7605,0.5754,-0.0837,0.5669,200.625
19:17:31:128,-0.3544,2.1595,7.3211,35.9736,0.3372,-0.3537,0.5693,201.2031
19:17:31:149,0.0431,2.1667,8.3961,36.3643,-0.0183,-0.4685,0.4685,201.2656
19:17:31:168,-0.0455,2.1619,9.1143,36.591,-0.2767,-0.317,0.3274,201.7969
19:17:31:187,-0.1986,2.0231,8.863,36.8764,-0.3763,-0.0312,0.2004,201.8594
19:17:31:208,-0.4669,1.6543,7.9077,37.3379,-0.3598,0.2187,0.0996,201.4844
19:17:31:231,-0.644,1.3573,6.9188,37.8158,-0.2963,0.3586,0.0574,200.6719
19:17:31:247,-0.6751,1.2999,5.7529,38.1197,-0.2193,0.4087,0.077,200.6719
19:17:31:268,0.0455,1.3645,4.3597,38.3801,-0.1723,0.2773,0.1106,200.2344
19:17:31:287,0.3018,1.3382,5.0898,38.7113,-0.3366,-0.1087,0.0531,200.2344
19:17:31:364,0.431,1.628,8.2238,38.9004,-0.6402,-0.3964,-0.0092,200.25
19:17:31:365,0.1842,1.9463,10.8069,39.3223,-0.7184,-0.3256,-0.0354,200.25
19:17:31:365,-0.0837,2.083,11.7144,39.5366,-0.4905,-0.0556,-0.0238,200.2656
19:17:31:369,0.3042,2.0806,10.8619,39.8485,-0.1723,0.215,0.0434,200.0938
19:17:31:387,0.6607,2.7317,9.6841,39.9246,-0.022,0.358,0.0916,200.0938
19:17:31:410,0.3401,2.9877,9.8157,40.3806,-0.091,0.2834,0.0159,199.0781
19:17:31:431,-0.0981,2.3773,11.068,40.6175,-0.2052,0.1442,-0.0757,198.1562
19:17:31:447,0.1819,1.8864,12.4014,40.9429,-0.2382,0.0403,-0.0397,198.1562
19:17:31:468,0.7325,2.15,13.0789,41.0739,-0.1588,-0.0202,0.058,197.6094
19:17:31:489,0.8692,2.406,12.9473,41.336,-0.0849,0.0415,0.0531,197.6094
19:17:31:508,0.9194,2.2504,11.9513,41.5307,-0.0495,0.1032,0.0031,197.2812
19:17:31:533,1.1611,2.2839,10.7853,41.5337,-0.11,0.0391,-0.044,197.25
19:17:31:547,1.2879,1.7572,10.5628,41.8638,-0.347,-0.1148,-0.1552,196.8906
19:17:31:568,1.3908,1.0343,11.8819,41.9002,-0.6707,-0.3164,-0.2608,196.8594
19:17:31:590,1.2688,0.498,14.0342,42.0928,-0.8362,-0.4624,-0.3048,196.8438
19:17:31:616,0.6464,0.2177,15.1881,42.1025,-0.1558,0.0812,-0.201,196.8438
19:17:31:632,0.1986,-0.3401,9.8782,42.5203,0.328,0.3146,0.0043,196.8906
19:17:31:647,0.754,0.1364,7.9196,42.6205,0.5492,0.1264,0.2205,196.9062
19:17:31:668,1.4079,0.8067,7.3427,42.7504,0.532,-0.1967,0.3164,196.6406
19:17:31:688,2.2122,1.3406,7.2111,42.8888,0.3824,-0.4148,0.2602,196.625
19:17:31:708,2.5089,1.6519,7.5317,42.8981,0.1026,-0.4704,0.0452,196.5781
19:17:31:732,2.059,1.3358,7.946,43.0503,-0.2712,-0.2541,-0.259,196.5156
19:17:31:748,0.8091,1.008,8.8798,43.151,-0.5748,0.0428,-0.4716,196.5156
19:17:31:769,0.0215,0.7684,9.0927,43.2928,-0.5852,0.2114,-0.4722,196.4219
19:17:31:787,0.0215,1.0558,8.6641,43.3753,-0.3757,0.1741,-0.317,196.4219
19:17:31:808,0.4095,1.6184,8.4727,43.5553,-0.1625,0.0385,-0.1655,196.5938
19:17:31:831,0.754,2.0399,8.2932,43.5004,-0.0171,-0.0428,-0.1081,196.6094
19:17:31:851,0.8644,2.2457,8.1903,43.6611,0.0446,-0.058,-0.1191,196.6094
19:17:31:869,0.9529,2.4371,8.2334,43.8372,0.0501,-0.0586,-0.1301,197.25
19:17:31:888,0.9314,2.5522,8.4799,43.9328,0.0195,-0.0458,-0.1301,197.25
19:17:31:909,0.7134,2.3605,9.5118,43.874,-0.0764,0.0409,-0.1167,197.7812
19:17:31:932,0.699,2.1117,10.5915,43.9309,-0.1729,0.27,-0.0531,197.5312
19:17:31:947,0.6703,2.0973,11.1661,43.9322,-0.1894,0.5571,0.0458,197.5312
19:17:31:968,0.5171,2.1715,11.3575,43.8263,-0.1148,0.766,0.1417,197.0781
19:17:31:988,0.2177,2.26,10.8643,44.1529,0.0593,0.8253,0.2321,197.0781
19:17:32:008,0.3712,2.5161,10.1557,44.3268,0.3066,0.5937,0.3427,197.4062
19:17:32:032,1.0175,2.9279,10.2084,44.264,0.5461,0.1106,0.4166,197.4219
19:17:32:048,1.4342,3.3661,10.4719,44.2819,0.6487,-0.2004,0.3537,198.25
19:17:32:067,1.2784,3.3972,10.6083,44.3747,0.5901,-0.2627,0.1631,198.3438
19:17:32:089,0.8139,3.3398,10.6896,44.3603,0.4551,-0.2614,-0.0415,198.7656
19:17:32:111,0.055,2.8418,10.5772,44.4983,0.2511,-0.201,-0.2156,198.7969
19:17:32:127,-0.4167,1.343,13.0932,44.6714,-0.5424,-0.1417,-0.3708,199.0469
19:17:32:147,-0.8043,0.4597,15.5857,44.6238,-0.6664,-0.1319,-0.3525,199.0781
19:17:32:168,-1.5156,0.0311,14.8696,44.7441,-0.2474,0.08,-0.2065,199.3594
19:17:32:187,-1.6591,0.256,10.9651,44.8824,0.5162,0.1429,0.0886,199.3906
19:17:32:207,-1.1946,0.9003,7.6923,44.8504,1.0232,-0.1851,0.3427,199.5
19:17:32:233,-0.4167,1.6161,6.7418,45.0857,0.8656,-0.4325,0.4361,199.1094
19:17:32:248,-0.067,1.9343,7.3164,45.0616,0.452,-0.5223,0.3683,199.1094
19:17:32:269,0.4717,1.8745,8.3985,45.1315,0.1539,-0.5382,0.2578,198.25
19:17:32:288,0.4023,1.5969,9.1167,45.2881,-0.1008,-0.2572,0.0916,198.25
19:17:32:307,-0.0407,1.2903,8.9013,45.2619,-0.182,0.047,-0.0531,197.5938
19:17:32:332,-0.6583,0.9553,8.056,44.8835,-0.1014,0.1771,-0.1087,197.5312
19:17:32:350,-0.9482,0.7923,7.3451,44.7637,-0.0165,0.1545,-0.0342,197.5156
19:17:32:369,-1.063,0.9817,7.0651,44.7213,0.0061,0.0971,0.0996,197.5938
19:17:32:388,-0.6392,1.3932,7.0364,44.5322,0.0159,0.0385,0.2584,197.5781
19:17:32:408,-0.1531,1.9705,7.1249,44.6248,0.0232,0.0147,0.3525,198.2344
19:17:32:432,0.079,2.3127,7.1943,44.6589,0.036,0.0073,0.361,198.9844
19:17:32:450,0.1795,2.5618,7.1082,44.3282,0.0305,-0.0116,0.3244,198.9844
19:17:32:469,0.2898,2.8561,7.5006,44.3734,-0.0397,-0.0788,0.2596,199.0938
19:17:32:488,0.4238,2.9471,8.3554,44.6115,-0.1564,-0.157,0.1637,199.0938
19:17:32:508,0.443,2.77,9.6099,44.5747,-0.2706,-0.2046,0.033,198.5469
19:17:32:531,0.2321,2.4754,10.7375,44.7465,-0.3323,-0.2095,-0.0825,198.5469
19:17:32:548,-0.0263,1.9295,11.3408,44.687,-0.3433,-0.1906,-0.1387,198.1562
19:17:32:568,0.2417,1.4629,12.1382,44.6112,-0.3659,-0.2321,-0.1075,198.1094
19:17:32:588,0.7253,1.0798,13.5697,44.5816,-0.4197,-0.281,-0.0415,198.0938
19:17:32:610,0.9434,0.9099,14.5657,44.5533,-0.4288,-0.1582,0.0385,198.0938
19:17:32:633,1.051,1.118,14.2783,44.4602,-0.3121,0.0776,0.1387,198.1562
19:17:32:647,1.6137,1.5419,12.8611,44.3887,-0.1167,0.2236,0.2437,198.1719
19:17:32:667,3.146,1.9247,11.6426,44.6979,-0.0544,-0.069,0.0941,197.7969
19:17:32:687,2.8298,1.3813,12.5402,44.6443,-0.1637,-0.2107,-0.1747,197.75
19:17:32:707,2.0112,0.6296,12.5569,45.0268,-0.1503,-0.1405,-0.3763,197.0469
19:17:32:732,1.3071,-0.0574,11.779,44.9884,0.0024,-0.08,-0.4135,196.4062
19:17:32:748,1.1204,-0.3329,10.9747,44.9035,0.1704,-0.1313,-0.2999,196.4062
19:17:32:769,1.1874,-0.0239,10.2491,45.1421,0.284,-0.193,-0.1442,196.1719
19:17:32:788,1.1994,0.5889,9.4591,45.1126,0.3128,-0.1619,-0.0501,196.1719
19:17:32:808,1.2281,1.0774,8.5708,45.0543,0.248,-0.0397,-0.0531,196.1719
19:17:32:832,1.1563,1.2449,8.1182,45.0041,0.1222,0.077,-0.1405,196.4375
19:17:32:849,0.8835,1.1635,7.9555,44.7831,0.0202,0.1912,-0.259,196.4531
19:17:32:868,0.4286,1.051,7.4671,44.4848,0.0086,0.3219,-0.3537,196.6562
19:17:32:888,-0.0167,1.1228,6.8638,44.5552,0.0531,0.3696,-0.3934,196.6562
19:17:32:908,-0.3042,1.2808,6.3682,44.7236,0.0843,0.3567,-0.3775,196.4375
19:17:32:932,-0.3305,1.3669,6.373,44.7506,0.0641,0.3152,-0.3201,195.8281
19:17:32:950,0,1.5491,6.658,44.9133,0.0061,0.3066,-0.2358,195.8281
19:17:32:970,0.5865,1.8099,6.9404,44.894,-0.066,0.3451,-0.1613,195.9375
19:17:32:988,1.1779,2.138,7.8,44.8325,-0.1668,0.3567,-0.1417,195.9375
19:17:33:008,1.573,2.3533,8.7721,45.1518,-0.2388,0.3616,-0.1808,196.8281
19:17:33:031,1.0223,2.272,9.6553,45.2642,-0.2333,0.3219,-0.27,196.8281
19:17:33:047,0.1866,1.9729,10.4504,45.337,-0.1558,0.1991,-0.3048,197.3594
19:17:33:068,-0.2225,1.6496,11.3264,45.337,-0.058,0.1063,-0.2016,197.4062
19:17:33:089,-0.4071,1.7524,11.7191,45.205,0.036,0.2052,0.014,197.5781
19:17:33:109,-0.3162,2.2744,11.3599,45.234,0.113,0.43,0.2694,197.5938
19:17:33:133,0.8524,3.0117,11.4652,45.4177,0.2175,0.3812,0.5809,197.9531
19:17:33:148,1.343,3.0452,11.4197,45.5187,0.3005,0.2169,0.5143,197.9844
19:17:33:167,1.1994,2.7102,11.1015,45.5023,0.3274,0.1161,0.3256,198.625
19:17:33:187,0.1842,2.4395,10.7255,45.7027,0.2407,0.099,0.1399,198.6875
19:17:33:207,-0.9769,2.2265,10.5413,45.8161,0.0745,0.1264,0.0501,199.2812
19:17:33:233,-1.6615,1.8003,10.7686,46.125,-0.0861,0.0983,0.0898,199.625
19:17:33:248,-1.7716,1.2951,11.7072,46.0964,-0.1301,-0.0819,0.237,199.625
19:17:33:270,-1.6663,1.1922,12.3272,46.0715,0.0134,-0.234,0.441,199.6562
19:17:33:287,-1.5012,1.7668,11.1709,46.3432,0.281,-0.1771,0.6389,199.8281
19:17:33:309,-1.063,2.6049,8.9013,46.5945,0.4404,-0.0788,0.7526,199.8438
19:17:33:331,-0.3257,3.0981,8.0393,46.59,0.2902,-0.1637,0.6939,200.3438
19:17:33:349,0.3185,2.7628,8.9348,46.5383,-0.0635,-0.2999,0.474,200.3594
19:17:33:432,0.297,2.0327,10.6896,46.7111,-0.4032,-0.2963,0.1955,200.5
19:17:33:433,0.0742,1.5849,11.9608,46.5521,-0.5369,-0.0904,0.0067,200.5
19:17:33:433,-0.1196,1.2305,11.4891,46.9581,-0.3708,0.2046,-0.0898,199.5469
19:17:33:433,-0.3855,0.8139,9.5931,47.0254,-0.0373,0.4203,-0.1222,198.2969
19:17:33:452,-0.5674,0.5602,7.7665,46.8475,0.223,0.4569,-0.08,198.2969
19:17:33:468,-0.6248,0.6153,6.4448,46.6122,0.3054,0.3934,0.0257,197.7969
19:17:33:488,-0.4645,0.8812,6.227,46.8187,0.2089,0.2773,0.1521,197.7969
19:17:33:508,-0.0861,1.3549,7.2948,46.9554,0.0354,0.1698,0.2578,197.5938
19:17:33:534,0.4334,1.8218,7.9699,46.9651,-0.0189,0.1912,0.2993,197.5938
19:17:33:548,0.553,2.217,7.5461,46.9097,0.0562,0.2712,0.2456,196.9688
19:17:33:568,0.0646,2.4634,6.7872,47.0402,0.0941,0.2639,0.1271,196.9062
19:17:33:589,-0.4765,2.2361,6.9476,47.2476,0.0049,0.1264,0.0195,195.625
19:17:33:608,-0.8692,1.9415,7.9244,47.4735,-0.1466,-0.0367,-0.0061,195.5
19:17:33:633,-0.0215,2.1978,10.6107,47.6627,-0.2346,-0.2395,0.0886,194.4375
19:17:33:648,0.7756,2.2337,11.1733,47.634,-0.1533,-0.2651,0.0501,194.3438
19:17:33:670,0.7828,1.9992,11.056,47.6093,-0.0867,-0.3042,-0.0928,194.1094
19:17:33:687,0.3664,1.5443,11.3049,47.7579,-0.0983,-0.3769,-0.2425,194.0938
19:17:33:707,-0.0598,1.1157,11.3958,48.009,-0.1197,-0.4056,-0.3036,194.1562
19:17:33:727,-0.0431,0.862,11.2475,48.235,-0.1252,-0.3897,-0.2651,194.1719
19:17:33:748,0.8019,0.766,11.1422,48.4534,-0.1857,-0.3732,-0.1503,194.125
19:17:33:769,1.9415,0.7181,11.7766,48.4068,-0.314,-0.427,-0.1093,194.1094
19:17:33:787,2.2433,0.4119,13.5338,48.4486,-0.4496,-0.474,-0.2132,193.6406
19:17:33:809,1.6472,0.0885,14.549,48.7864,-0.3958,-0.3183,-0.3183,193.6094
19:17:33:831,0.984,-0.1053,13.0813,48.7926,-0.0721,-0.0379,-0.3048,192.9219
19:17:33:849,1.1731,0.2249,10.8069,48.8794,0.2602,0.0189,-0.1662,192.9062
19:17:33:868,1.8793,0.7086,9.1406,48.8675,0.3262,-0.1368,-0.0965,192.6875
19:17:33:887,2.2792,0.8788,9.0688,48.7685,0.0855,-0.3256,-0.2083,192.6719
19:17:33:908,1.9463,0.5315,10.1773,48.8106,-0.2566,-0.3329,-0.4343,192.6406
19:17:33:932,0.917,0.0479,10.3905,49.1064,-0.4435,-0.0727,-0.6072,192.5469
19:17:33:949,-0.0335,-0.213,9.6386,49.2322,-0.4142,0.2083,-0.6102,192.5469
19:17:33:969,-0.4238,-0.0144,8.5875,49.1673,-0.2498,0.3207,-0.449,193.0312
19:17:33:988,-0.309,0.5363,7.5485,49.3046,-0.0525,0.2926,-0.2486,193.0312
19:17:34:008,-0.1795,1.0798,6.67,49.1546,0.0855,0.2181,-0.1032,193.7812
19:17:34:033,0.0144,1.5491,6.3993,49.5266,0.1191,0.1246,-0.0024,193.7812
19:17:34:048,0.4119,2.0207,7.0292,49.6302,0.08,0.0476,0.077,194.1719
19:17:34:068,0.7373,2.4179,7.3403,49.4408,0.0501,0.069,0.1075,194.1719
19:17:34:088,1.1755,2.6886,7.6971,49.5259,0.0177,0.0776,0.0922,194.7656
19:17:34:108,1.5969,3.0284,8.1664,49.6649,-0.0409,0.047,0.0244,194.8281
19:17:34:133,1.5156,3.2345,8.7458,49.8635,-0.1161,-0.0079,-0.1319,195.3281
19:17:34:149,0.3209,2.2289,11.1374,49.8968,-0.2486,-0.1515,-0.3971,195.375
19:17:34:170,-0.4501,1.8482,12.3296,50.0402,-0.1985,-0.1533,-0.3384,195.7812
19:17:34:188,-0.6942,1.6352,13.1868,49.8791,-0.0476,-0.1063,-0.1295,195.8125
19:17:34:208,-0.2273,1.6065,13.4285,49.9364,0.1741,-0.0055,0.149,196.875
19:17:34:227,0.4406,2.1763,13.0382,50.1786,0.4142,0.1051,0.3641,197.9219
19:17:34:249,0.5841,2.6527,11.7861,50.1173,0.6157,0.1942,0.4099,197.9219
19:17:34:267,0.4119,2.703,10.3519,50.2718,0.6689,0.2101,0.3372,198
19:17:34:287,0.1866,2.6838,9.5381,49.9443,0.5027,0.1631,0.2297,198.2969
19:17:34:308,0.2273,2.5232,9.9523,49.9189,0.1662,0.0941,0.1148,198.3281
19:17:34:332,0.297,1.9896,10.7399,50.0528,-0.1741,0.0287,-0.0165,198.2344
19:17:34:351,0.1316,0.9218,12.035,49.8034,-0.4019,-0.1533,-0.1558,198.2344
19:17:34:370,-0.4836,-0.0191,14.3599,49.8844,-0.4264,-0.3567,-0.215,198
19:17:34:387,-1.3071,-0.4023,14.1586,49.7376,-0.0776,-0.1448,-0.0983,198
19:17:34:409,-1.6615,-0.268,10.1653,49.7828,0.4673,0.3439,0.1521,198.0938
19:17:34:432,-1.5514,0.309,6.591,49.4928,0.697,0.4484,0.3836,198.8594
19:17:34:450,-1.0487,0.9123,5.6668,49.7164,0.4581,0.2028,0.5113,198.8594
19:17:34:468,-0.3855,1.4725,6.4208,49.9797,0.0305,-0.0244,0.5247,199.3906
19:17:34:488,0.0909,1.4988,7.7067,49.9996,-0.3323,-0.1246,0.4019,199.3906
19:17:34:509,0.1795,0.8186,8.7817,50.2048,-0.5437,-0.1558,0.2193,198.8906
19:17:34:531,-0.2536,0.297,9.8495,50.1473,-0.6249,-0.1509,0.1008,198.8906
19:17:34:548,-0.7014,0.0766,10.2969,50.2867,-0.5394,-0.0525,0.1216,198.1094
19:17:34:568,-0.6416,0.1914,9.4902,50.2808,-0.3079,0.1045,0.2645,198.1094
19:17:34:588,-0.3114,0.6416,8.3889,50.4544,-0.0965,0.1863,0.4331,197.75
19:17:34:608,0.1507,1.319,7.7689,50.607,-0.0061,0.212,0.5614,197.75
19:17:34:627,0.4645,1.8314,7.2829,50.6363,0.0208,0.2443,0.5999,197.875
19:17:34:649,0.5722,2.2361,7.0173,50.7924,0.0324,0.2175,0.562,197.8906
19:17:34:670,0.5291,2.5232,6.8734,50.8564,0,0.1405,0.474,198.25
19:17:34:691,0.5291,2.5403,8.3722,50.957,-0.1002,0.0214,0.3671,197.7188
19:17:34:708,0.7995,2.4586,9.9835,51.0651,-0.3134,-0.2474,0.1668,197.7188
19:17:34:727,1.0295,2.5283,11.8316,50.9986,-0.2596,-0.3659,0.0519,197.6719
19:17:34:749,0.6392,2.2504,12.9114,50.9864,-0.1051,-0.405,-0.0831,196.6562
19:17:34:768,0.3808,1.506,13.3926,50.9864,0.0629,-0.4416,-0.1625,196.5469
19:17:34:788,0.443,0.8019,13.5817,50.7936,0.1411,-0.4258,-0.1399,195.8906
19:17:34:807,0.8477,0.6679,13.3878,50.6789,0.0806,-0.2535,-0.0397,195.8281
19:17:34:832,1.5562,1.0869,12.7511,50.7536,-0.0825,0.0238,0.0324,195.5469
19:17:34:849,2.1117,1.1396,12.6673,50.7736,-0.3225,0.1625,-0.0519,195.5156
19:17:34:869,2.272,0.443,13.6654,50.7029,-0.6011,0.1729,-0.2676,194.6719
19:17:34:888,1.5132,-0.3784,15.2815,50.6843,-0.7593,0.2242,-0.4661,194.6562
19:17:34:908,0.62,-1.1587,15.3748,50.9255,-0.5424,0.4038,-0.4966,193.3125
19:17:34:932,0.2393,-1.7213,13.0406,50.8813,-0.0183,0.6121,-0.3195,192.1094
19:17:34:948,0.4406,-1.5275,10.5628,50.8746,0.4777,0.5644,-0.0299,192.1094
19:17:34:969,1.051,-0.7899,8.6378,50.8814,0.7947,0.3323,0.2156,191.4062
19:17:34:988,1.5873,0.0191,7.0412,50.7619,0.912,0.1069,0.2987,191.4062
19:17:35:008,1.8362,0.6176,6.0021,50.3433,0.8173,-0.0507,0.2071,191.2188
19:17:35:032,1.6161,0.7397,5.607,50.198,0.5516,-0.1008,-0.0067,191.2188
19:17:35:049,1.1133,0.4956,5.7075,50.2343,0.1991,-0.0238,-0.226,191.6094
19:17:35:068,0.4454,0.4047,6.3514,49.8891,-0.1295,0.0874,-0.358,191.6094
19:17:35:088,-0.1077,0.5148,7.1824,49.5322,-0.2902,0.1277,-0.3934,191.9062
19:17:35:109,-0.3281,0.7253,7.6684,49.4773,-0.2553,0.1008,-0.3476,191.9375
19:17:35:133,-0.0167,1.1324,7.7521,49.2977,-0.1283,0.0275,-0.2614,191.9062
19:17:35:148,0.4669,1.6161,7.4982,49.2211,-0.0556,0.0079,-0.226,191.9062
19:17:35:169,0.6607,1.9534,7.6899,49.2714,-0.1258,0.0018,-0.2718,192.4844
19:17:35:189,0.644,2.0375,8.4248,49.2919,-0.2413,-0.0195,-0.3433,192.5469
19:17:35:208,0.833,2.138,9.9595,49.2164,-0.3054,-0.0379,-0.3885,193.2031
19:17:35:227,0.6679,2.1882,10.7686,49.2911,-0.3305,0.0354,-0.4123,193.2656
19:17:35:248,0.3042,2.1571,12.0541,49.2878,-0.3115,0.1668,-0.4038,193.0781
19:17:35:267,-0.0742,2.1619,12.265,49.314,-0.0849,0.2388,-0.3109,193.0469
19:17:35:287,-0.1149,2.4491,11.2834,49.3374,0.1808,0.3464,-0.1655,192.6875
19:17:35:308,0.0981,2.7485,10.5987,49.1555,0.2859,0.3476,-0.0586,192.6562
19:17:35:331,0.1842,2.8609,11.47,49.0029,0.2395,0.1875,-0.055,192.9531
19:17:35:349,-0.0024,2.5232,12.2459,48.9239,0.2584,0.0367,-0.1051,192.9844
19:17:35:370,0.0598,1.7501,12.0784,49.0119,0.3476,-0.0421,-0.1258,193.7344
19:17:35:388,0.2632,1.2449,11.7215,48.7742,0.3421,-0.0666,-0.1026,193.75
19:17:35:408,0.2632,1.2784,11.1326,48.7452,0.1991,0.0061,-0.0916,194.3438
19:17:35:431,0.0407,1.1157,11.0895,48.6688,-0.0593,0.0244,-0.1607,194.875
19:17:35:449,-0.3688,0.2489,12.6625,48.5516,-0.3018,-0.1252,-0.2712,194.875
19:17:35:511,-1.5969,-0.3879,13.5984,48.5522,-0.2621,-0.1246,-0.2975,195.6406
19:17:35:512,-2.4538,-0.3832,11.7,48.7183,0.113,0.168,-0.1191,195.6406
19:17:35:512,-2.3366,0.2608,8.231,48.2184,0.5156,0.3592,0.1655,196.4531
19:17:35:529,-1.8601,1.1922,5.8487,47.7869,0.5913,0.1888,0.3518,196.4531
19:17:35:548,-1.3908,2.193,6.1289,47.7047,0.3213,-0.1942,0.3922,197.1406
19:17:35:568,-1.2209,2.5307,7.8718,47.6712,0.0232,-0.4575,0.2944,197.1406
19:17:35:588,-1.2975,1.9175,8.8822,47.4219,-0.0263,-0.4789,0.1411,197.3281
19:17:35:609,-1.2257,1.0869,7.6923,47.0963,0.1435,-0.3482,0.0599,197.3594
19:17:35:633,-1.1085,0.1675,5.9949,46.9009,0.2059,-0.3537,0.0452,197.5469
19:17:35:650,-1.2209,-0.1723,7.1154,46.5217,-0.1112,-0.5076,0.091,197.5625
19:17:35:668,-1.008,0.2776,9.9547,46.6541,-0.5351,-0.4135,0.2333,197.875
19:17:35:691,-0.8354,1.0128,11.3216,46.6568,-0.5821,-0.0061,0.3573,197.9062
19:17:35:709,-0.5746,1.1396,10.0863,46.553,-0.2504,0.3708,0.4111,198.1719
19:17:35:729,0.2082,1.8721,7.4958,46.4795,0.1448,0.2468,0.4752,198.2031
19:17:35:748,0.4334,2.2074,8.0847,46.5126,0.0128,0.0507,0.4001,198.7344
19:17:35:768,0.256,2.1978,9.3419,46.4671,-0.1784,0.0116,0.2596,198.7812
19:17:35:787,0.0455,1.7501,10.2491,46.4277,-0.317,0.1374,0.1466,198.75
19:17:35:808,-0.2752,1.5323,10.9409,46.3935,-0.3708,0.226,0.0996,198.75
19:17:35:834,-0.2584,1.4127,11.8244,46.2229,-0.3665,0.168,0.1173,198.1094
19:17:35:848,0.2584,1.1587,12.9377,46.1236,-0.2743,-0.0458,0.16,198.0469
19:17:35:869,0.9745,0.8548,13.984,46.1613,-0.0898,-0.2706,0.1698,197.7188
19:17:35:888,1.3167,0.7134,13.8093,46.015,0.1057,-0.281,0.1283,197.7188
19:17:35:908,1.3358,0.7325,12.5737,45.8552,0.1894,-0.0776,0.066,197.7656
19:17:35:933,1.9295,0.7947,11.0393,45.7113,0.0831,0.1497,0.0208,197.5
19:17:35:951,2.0495,0.8931,10.1677,45.6079,-0.2364,0.2853,-0.1228,197.5
19:17:35:969,1.2975,0.4358,11.4006,45.5808,-0.711,0.3335,-0.3641,196.5312
19:17:35:988,0.1101,-0.4765,13.4716,45.6041,-1.0378,0.4209,-0.5363,196.5312
19:17:36:007,-0.7899,-1.1898,14.5896,45.5402,-0.9248,0.5137,-0.5082,195.4062
19:17:36:031,-0.8091,-1.5514,13.7519,45.3827,-0.4197,0.5553,-0.2822,195.4062
19:17:36:048,-0.2345,-1.142,11.4293,45.361,0.2114,0.4587,0.0012,194.6406
19:17:36:068,0.4167,-0.4573,8.9803,45.2271,0.6921,0.1955,0.1686,194.6406
19:17:36:088,0.9314,-0.0048,7.4049,45.3687,0.8314,-0.0544,0.1594,194.25
19:17:36:108,1.1085,0.2058,6.8495,45.2797,0.6402,-0.1258,0.033,194.25
19:17:36:132,0.8234,0.1603,6.8734,45.1177,0.2883,-0.0024,-0.135,193.8906
19:17:36:150,0.297,0.0407,7.1608,44.9767,-0.014,0.1576,-0.2645,193.8438
19:17:36:168,-0.0574,0.0215,7.3714,44.6138,-0.1466,0.2169,-0.3036,193.625
19:17:36:189,0.1364,0.6703,7.6229,44.5007,-0.0342,0.091,-0.2004,193.6094
19:17:36:211,0.4908,1.0343,7.3762,44.4779,0.0348,0.0568,-0.1808,193.5312
19:17:36:233,0.6344,1.3406,7.5413,44.4703,-0.0195,0.058,-0.2169,193.5312
19:17:36:249,0.7349,1.6161,8.1278,44.1605,-0.1301,0.0922,-0.2682,193.8281
19:17:36:267,0.8115,1.7333,8.6761,44.0757,-0.1863,0.1008,-0.3384,193.8594
19:17:36:287,0.7899,1.7285,9.4232,44.0035,-0.204,0.0538,-0.419,194.5938
19:17:36:307,0.5937,1.7166,10.8021,44.119,-0.1936,-0.058,-0.4765,194.6562
19:17:36:328,0.1029,1.6352,11.621,44.2978,-0.0898,-0.0892,-0.4997,194.8281
19:17:36:349,-0.5339,1.6184,12.0374,44.0308,0.069,-0.0348,-0.4563,194.8281
19:17:36:368,-0.9194,1.9152,11.8508,43.6699,0.2578,0.0727,-0.3195,194.6719
19:17:36:388,-0.7469,2.4203,10.9723,43.422,0.4502,0.1576,-0.1417,194.6562
19:17:36:408,-0.2058,2.8442,10.3977,43.372,0.5968,0.0562,-0.0257,194.9062
19:17:36:431,0.1842,2.8035,10.7255,43.4203,0.7031,-0.204,-0.0373,195.4531
19:17:36:448,0.256,2.4323,11.0728,43.4005,0.7788,-0.3726,-0.1393,195.4531
19:17:36:468,-0.5219,1.8649,10.637,43.1651,0.7788,-0.3329,-0.2584,195.9062
19:17:36:487,-1.7118,1.2712,10.4049,42.9491,0.6371,-0.2169,-0.2914,195.9062
19:17:36:509,-2.3892,0.9458,10.2156,42.971,0.416,-0.033,-0.1613,196.3281
19:17:36:531,-2.916,0.9075,9.7893,43.0134,0.1747,0.1735,0.047,196.3281
19:17:36:550,-2.3509,0.8596,9.8351,43.2481,-0.0745,0.1991,0.303,196.9219
19:17:36:568,-1.2042,0.4119,11.1996,43.2123,-0.2303,-0.0837,0.493,196.9219
19:17:36:590,-0.7804,0.3473,12.9042,42.8056,-0.1851,-0.3665,0.5656,197.8438
19:17:36:609,-0.8115,0.862,12.4205,42.7873,0.0776,-0.3036,0.595,197.8438
19:17:36:633,-0.8979,0.929,9.3586,42.7778,0.3806,-0.1148,0.5687,198.8281
19:17:36:649,-0.8716,0.929,7.7402,42.9736,0.3989,-0.2633,0.5168,198.9219
19:17:36:668,-0.4621,1.2305,8.8104,43.0822,0.1894,-0.6011,0.4801,199.4531
19:17:36:688,-0.1244,1.3502,10.0026,43.1083,0.0568,-0.719,0.3952,199.5156
19:17:36:709,-0.5363,0.6679,9.2028,42.9106,-0.1307,-0.1142,0.1588,199.7656
19:17:36:734,-0.6894,0.6392,8.7984,43.0982,-0.2443,0.1857,0.1509,199.7969
19:17:36:748,-0.8163,0.5267,8.2119,43.3178,-0.2095,0.2957,0.1857,200.5
19:17:36:768,-0.7445,0.7516,7.6301,43.5048,-0.0996,0.2688,0.2834,200.5781
19:17:36:788,-0.1723,1.1922,6.9858,43.466,-0.0043,0.2077,0.3971,201.2031
19:17:36:808,0.2489,1.7572,6.9356,43.3262,-0.0079,0.1497,0.4313,201.2656
19:17:36:833,0.5746,2.3198,7.0795,43.2535,-0.0739,0.1576,0.3909,200.875
19:17:36:849,0.8091,2.5161,6.6724,43.308,-0.1423,0.1967,0.2737,200.8438
19:17:36:869,0.4717,2.4012,6.9643,43.1799,-0.2804,0.1087,0.0935,199.7969
19:17:36:888,-0.0335,2.0495,8.4942,43.0359,-0.4728,-0.0556,-0.0403,198.5469
19:17:36:909,-0.3544,1.7261,10.3905,43.2565,-0.5644,-0.1649,-0.0666,198.5469
19:17:36:932,-0.7804,1.7309,11.7981,42.8598,-0.4447,-0.1741,-0.0189,197.6875
19:17:36:948,-0.5841,1.829,11.9824,42.9863,-0.1845,-0.1179,0.0764,197.6875
19:17:36:969,0.352,1.7261,11.688,43.0265,0.0012,-0.1124,0.1417,197.2031
19:17:36:989,1.331,1.6567,12.5617,42.8782,-0.0018,-0.2321,0.0996,197.2031
19:17:37:009,1.2951,1.4103,13.9576,42.8941,-0.0647,-0.2853,-0.055,196.8125
19:17:37:033,0.4597,0.8282,14.094,43.2333,-0.0189,-0.1374,-0.1924,196.8125
19:17:37:051,-0.0072,0.5243,12.4205,43.2863,0.0861,0.1258,-0.1613,196.1562
19:17:37:070,0.352,0.553,10.5628,43.1312,0.0764,0.2358,-0.0287,196.1562
19:17:37:088,0.7756,0.7995,10.0002,43.1075,-0.1246,0.11,0.0318,195.1875
19:17:37:108,0.9218,0.5841,11.3599,42.9618,-0.4276,-0.0904,-0.025,195.1875
19:17:37:131,0.7875,-0.0814,13.1004,42.9172,-0.5907,-0.1478,-0.1136,194.4219
19:17:37:149,0.3449,-0.5626,13.6582,43.1908,-0.449,-0.0379,-0.1289,194.3594
19:17:37:168,0.0694,-0.8859,12.4397,42.8752,-0.0751,0.0806,-0.0275,194.2031
19:17:37:188,0.5674,-0.7636,10.6346,42.7202,0.3115,0.0208,0.1649,194.2031
19:17:37:210,1.8218,0.2489,8.2765,42.683,0.5058,-0.1527,0.2688,194.2344
19:17:37:233,1.817,0.5291,7.6134,42.5578,0.3097,-0.0348,0.1057,194.2344
19:17:37:248,1.3454,0.5841,7.1225,42.7007,0.0556,0.1258,-0.099,194.0312
19:17:37:268,0.5698,0.5794,7.0098,42.9661,-0.1497,0.2022,-0.2602,194.0156
19:17:37:288,0.0957,0.5506,7.2613,42.872,-0.234,0.1521,-0.3213,194.0469
19:17:37:307,-0.1484,0.6488,7.5413,42.5307,-0.2175,0.0647,-0.3011,194.0469
19:17:37:332,-0.0502,0.874,7.5748,43.0454,-0.1686,0.0434,-0.2449,194.4062
19:17:37:348,0.1292,1.264,7.6851,43.1545,-0.1668,0.0928,-0.2004,194.4375
19:17:37:368,0.3401,1.5443,7.5652,43.249,-0.2077,0.1967,-0.1888,194.3906
19:17:37:387,0.7612,1.7189,7.9029,43.2333,-0.2792,0.2272,-0.2052,194.3906
19:17:37:407,1.1707,2.0351,9.1047,43.2019,-0.3518,0.1698,-0.2572,194.4688
19:17:37:433,1.2951,2.1906,9.9715,43.1959,-0.3311,0.1326,-0.3586,194.5781
19:17:37:448,0.8115,1.8051,10.1749,43.3679,-0.2468,0.1197,-0.4887,194.5781
19:17:37:468,0.2465,1.1755,10.8547,43.509,-0.2028,0.0556,-0.5296,194.1719
19:17:37:488,-0.1125,0.917,12.0808,43.1198,-0.157,0.0208,-0.4239,194.1719
19:17:37:509,-0.2608,1.0032,12.5091,43.0242,-0.0006,0.0904,-0.2242,193.875
19:17:37:533,0.1029,1.2305,12.0422,43.0358,0.2205,0.1411,0.0092,193.875
19:17:37:598,0.6751,1.5538,11.5828,43.099,0.3854,0.0935,0.1918,194.2031
19:17:37:599,1.1611,1.8912,11.6761,43.2061,0.4636,-0.0128,0.2645,194.2031
19:17:37:599,1.1013,2.0375,11.6521,43.1105,0.4911,-0.0531,0.2193,194.7969
19:17:37:613,0.4884,1.9343,11.4389,43.1955,0.4807,-0.0324,0.1258,194.7969
19:17:37:633,0.0263,1.829,10.783,43.1995,0.4545,-0.0195,0.0733,195.2344
19:17:37:648,-0.2345,1.8745,9.8877,43.4186,0.3561,-0.0275,0.0464,195.2344
19:17:37:669,-0.3616,1.7596,9.5883,43.365,0.1179,-0.1002,0.0018,195.5312
19:17:37:689,-0.2827,1.0702,10.8978,43.4881,-0.157,-0.2993,-0.0733,195.5469
19:17:37:708,-0.9912,0.2922,12.9784,43.6345,-0.2657,-0.4416,-0.1466,196.0625
19:17:37:734,-2.3103,-0.0574,10.3663,43.5842,0.2761,0.1399,0.1698,196.1094
19:17:37:749,-1.9753,0.4382,8.0608,43.5651,0.4649,0.2052,0.4203,197.0469
19:17:37:769,-1.2808,0.9434,7.3714,43.512,0.3763,0.0336,0.5736,197.1406
19:17:37:788,-0.5746,1.4462,7.7785,43.56,0.1472,-0.0996,0.5986,197.7656
19:17:37:809,-0.012,1.5347,8.2813,43.4202,-0.0519,-0.113,0.4905,197.8281
19:17:37:833,0.0742,1.0869,8.5062,43.4549,-0.1869,-0.0531,0.2999,197.6875
19:17:37:848,-0.4167,0.5291,8.8893,43.2457,-0.2963,0.0312,0.1399,197.6719
19:17:37:868,-0.8354,0.3999,9.1956,43.132,-0.3366,0.1399,0.1179,197.2969
19:17:37:887,-0.9984,0.4573,9.1167,43.1228,-0.2547,0.2199,0.1967,197.2656
19:17:37:908,-0.6607,0.6679,8.8893,42.9749,-0.0977,0.2077,0.3335,197.1719
19:17:37:932,0.0383,1.1779,8.7482,42.774,0.0421,0.157,0.4539,197.1875
19:17:37:950,0.4167,1.7931,8.5349,42.6995,0.1124,0.1826,0.4612,197.1875
19:17:37:968,0.4932,2.1093,7.9412,42.4856,0.1277,0.2462,0.3751,197.5
19:17:37:988,0.297,2.2074,7.7091,42.1454,0.0745,0.2138,0.2492,197.5
19:17:38:008,0.0479,2.1236,8.4272,42.1316,-0.0299,0.1087,0.1466,197.4375
19:17:38:032,-0.2249,1.9872,9.1334,42.1068,-0.0953,0.0525,0.0922,197.4375
19:17:38:047,-0.5052,2.0016,9.7104,41.9105,-0.0959,0.0006,0.0849,196.4062
19:17:38:068,-0.4645,2.0758,10.4886,41.6939,-0.058,-0.0935,0.1155,196.4062
19:17:38:087,0.1149,1.908,11.482,41.5186,-0.0073,-0.1753,0.1301,195.25
19:17:38:108,0.8812,1.5347,12.6266,41.3299,0.036,-0.19,0.0837,195.25
19:17:38:127,1.2257,1.0869,13.1291,41.5123,0.0745,-0.0831,-0.0214,194.7188
19:17:38:149,0.8859,0.7612,12.7487,41.4039,0.1057,0.0843,-0.1161,194.7188
19:17:38:169,0.7158,0.8115,11.9345,41.2609,0.1057,0.2211,-0.1051,194.2812
19:17:38:189,1.197,1.118,11.1063,40.886,0.0641,0.2535,-0.0464,194.2344
19:17:38:209,1.7381,1.4174,10.3065,40.7137,-0.0403,0.182,-0.0843,193.3906
19:17:38:227,1.9753,1.1635,10.6514,40.7233,-0.248,-0.0079,-0.2669,193.3125
19:17:38:250,0.5291,-0.3975,13.5745,40.8256,-0.4258,-0.2004,-0.6341,192.4375
19:17:38:271,-0.0431,-0.9864,13.0645,40.5349,-0.0819,-0.113,-0.5736,192.3438
19:17:38:289,0.1484,-1.1539,10.8212,40.3365,0.3347,-0.0244,-0.3732,191.9062
19:17:38:308,0.5267,-0.6846,9.0353,40.2843,0.4868,-0.0348,-0.1985,191.8594
19:17:38:327,0.9817,-0.1603,8.3483,39.9754,0.3622,-0.0837,-0.1368,191.6406
19:17:38:347,1.075,0.1077,8.4057,39.7952,0.099,-0.0324,-0.2028,191.625
19:17:38:368,0.7181,0.0957,8.6856,39.7504,-0.1747,0.1552,-0.3134,191.4219
19:17:38:387,0.146,0.1292,8.8128,39.5463,-0.3311,0.3525,-0.361,191.3906
19:17:38:409,-0.3449,0.3688,8.7434,39.3989,-0.3311,0.4807,-0.3073,191.3906
19:17:38:433,-0.2369,0.9482,8.7793,39.5348,-0.2046,0.5235,-0.1625,191.5938
19:17:38:451,0.3473,1.5132,8.4248,39.2232,-0.0434,0.5968,-0.0336,191.5938
19:17:38:468,0.8572,1.9705,8.0704,38.9626,0.0385,0.6805,-0.0043,191.6719
19:17:38:488,0.9936,2.3031,8.0824,38.906,0.0489,0.6921,-0.0733,191.6719
19:17:38:510,0.6727,2.4706,8.1712,39.012,0.0739,0.6151,-0.1979,192.4688
19:17:38:533,0.2273,2.3055,8.5421,38.8374,0.1423,0.427,-0.314,192.4688
19:17:38:549,0.055,2.1141,8.8822,38.6943,0.2401,0.2211,-0.3671,193.7812
19:17:38:570,-0.0335,2.1045,9.2988,38.2996,0.2871,0.113,-0.3842,193.7812
19:17:38:589,-0.0933,1.9439,9.7128,37.9684,0.2614,0.124,-0.3928,194.4531
19:17:38:608,-0.4119,1.7022,10.4001,37.8709,0.1918,0.1869,-0.3879,194.5312
19:17:38:633,-0.8955,1.5826,10.9098,37.9433,0.1686,0.273,-0.3256,194.9688
19:17:38:651,-1.185,1.7788,10.5341,37.7582,0.2388,0.3518,-0.1894,194.9688
19:17:38:668,-1.2042,2.0375,10.0361,37.4405,0.2902,0.3268,-0.044,195.5156
19:17:38:689,-0.9793,2.1978,10.5891,37.2508,0.2578,0.1613,0.0593,195.5781
19:17:38:709,-0.8501,2.3318,11.3599,37.1579,0.2437,0.0159,0.1081,195.8438
19:17:38:727,-0.874,2.3079,11.3336,37.2223,0.2724,0.0067,0.1203,195.8594
19:17:38:748,-0.6727,2.2528,10.8188,37.0704,0.2645,0.0269,0.1307,195.7344
19:17:38:770,-1.0319,1.7094,10.5748,36.9164,-0.0611,-0.0489,0.0367,195.7188
19:17:38:791,-1.4174,1.2066,11.123,36.8735,-0.2388,-0.1833,0.0208,195.8281
19:17:38:810,-1.695,0.6464,12.0278,36.934,-0.2614,-0.3922,0.0672,195.8438
19:17:38:827,-1.9944,0.5841,13.2945,36.9872,-0.077,-0.5039,0.1796,196.4844
19:17:38:848,-1.6735,0.8859,11.6713,36.9892,0.3262,-0.2285,0.3482,196.5469
19:17:38:867,-1.319,1.4486,8.0178,36.8191,0.6353,0.1038,0.4325,197.375
19:17:38:888,-1.0104,1.8099,5.7338,36.6528,0.5119,0.0904,0.369,197.4688
19:17:38:909,-0.7493,1.8864,6.4594,36.6387,0.0464,-0.1857,0.2095,198.1719
19:17:38:933,-0.6392,1.3358,8.7075,36.7646,-0.3842,-0.4349,-0.0055,198.5
19:17:38:950,-0.9314,0.6559,10.5269,36.7385,-0.5467,-0.4942,-0.1961,198.5
19:17:38:969,-1.6232,0.297,11.6306,36.6635,-0.4704,-0.3665,-0.2853,198.3906
19:17:38:989,-2.3127,0.0239,11.2044,36.579,-0.215,-0.069,-0.2193,198.3906
19:17:39:010,-2.4538,0.201,9.4687,36.5476,0.1069,0.2388,-0.0012,198.2031
19:17:39:033,-2.1117,1.0056,7.8407,36.9397,0.317,0.4184,0.2798,198.2031
19:17:39:051,-1.386,2.0016,6.7729,36.9456,0.3427,0.4679,0.4948,198.0781
19:17:39:069,-0.7229,2.7676,6.7537,37.14,0.2077,0.4148,0.5614,198.0781
19:17:39:088,-0.3233,3.2201,7.5341,37.1186,0.0501,0.2908,0.4954,198.0781
19:17:39:110,-0.3951,3.3015,8.3818,37.021,0.0024,0.1741,0.3561,197.9844
19:17:39:133,-0.553,3.1388,8.6569,36.9843,0.0635,0.1026,0.2193,197.5781
19:17:39:150,-0.7134,3.0547,8.554,37.2603,0.1148,0.0605,0.1222,197.5781
19:17:39:168,-1.0175,2.9183,8.7721,37.3814,0.0678,0.0147,0.0367,196.875
19:17:39:189,-1.4844,2.5522,9.5548,37.1612,-0.025,-0.0403,-0.0159,196.875
19:17:39:210,-1.908,2.0853,10.2802,37.2496,-0.0623,-0.0593,0.0195,196.7188
19:17:39:227,-1.9992,1.9032,10.4719,37.0766,-0.0195,-0.0647,0.1381,196.7031
19:17:39:249,-1.4773,1.908,10.2371,37.2322,0.0593,-0.1051,0.2676,197.1562
19:17:39:270,0.1244,1.5156,10.8021,37.4389,-0.0654,-0.419,0.237,197.2031
19:17:39:290,0.1268,1.2449,12.4852,37.6012,-0.2419,-0.5815,0.1045,197.3906
19:17:39:310,0.0383,0.7469,13.3687,37.5664,-0.3036,-0.5669,0.0299,197.4062
19:17:39:327,0.4167,0.3233,13.4189,37.807,-0.2963,-0.4673,0.044,196.6094
19:17:39:348,1.0319,0.1172,13.7495,37.9834,-0.3079,-0.3928,0.0525,196.5156
19:17:39:368,1.0175,-0.1005,14.3839,38.2819,-0.2572,-0.3103,-0.0171,195.375
19:17:39:388,0.4813,-0.3688,13.6343,38.5876,-0.0147,-0.1338,-0.0782,195.2656
19:17:39:408,0.3568,-0.51,11.8412,38.6794,0.3146,-0.0128,-0.0324,194.6562
19:17:39:434,0.9793,-0.2249,10.0863,38.9846,0.5504,-0.0208,0.0733,194.4375
19:17:39:452,1.6208,0.3592,8.7027,39.3619,0.6035,-0.0342,0.0831,194.4375
19:17:39:469,1.7836,0.9218,7.8646,39.547,0.4685,0.033,-0.0617,194.4219
19:17:39:488,1.5179,1.1492,7.3738,39.5141,0.234,0.1936,-0.2993,194.4219
19:17:39:510,0.8859,0.9314,6.8638,39.8745,0.0208,0.3537,-0.54,194.0156
19:17:39:528,0.0718,0.62,6.5384,40.0057,-0.1307,0.3916,-0.6811,194.0156
19:17:39:547,-0.2874,0.6631,6.7298,40.3284,-0.2223,0.2889,-0.6677,193.5938
19:17:39:569,-0.285,1.0199,7.2039,40.7614,-0.2437,0.1539,-0.5785,193.5469
19:17:39:589,-0.1101,1.4725,7.6828,40.9582,-0.2089,0.0672,-0.5015,193.5469
19:17:39:664,0.0263,1.8482,7.4767,41.0322,-0.1515,0.0861,-0.463,193.5312
19:17:39:664,0.1101,2.1093,7.2087,41.1854,-0.1429,0.1063,-0.4649,193.5
19:17:39:665,-0.1005,2.3246,7.4432,41.4361,-0.215,0.077,-0.4893,193.5
19:17:39:668,-0.2321,2.3581,8.1544,41.647,-0.2889,0.0031,-0.496,193.6406
19:17:39:690,-0.1771,2.3222,8.7769,41.9517,-0.2926,-0.08,-0.4697,193.6406
19:17:39:710,0.1675,2.2385,9.2483,42.0749,-0.2718,-0.1619,-0.4239,193.7188
19:17:39:732,0.431,2.0662,10.0122,42.1635,-0.3121,-0.2333,-0.3964,193.7344
19:17:39:750,0.1125,2.059,11.7311,42.3756,-0.4038,-0.2718,-0.3769,193.8438
19:17:39:770,-0.6823,2.3868,13.1868,42.6624,-0.3555,-0.1796,-0.2889,193.8594
19:17:39:790,-0.3927,2.7532,12.2124,43.2066,0.2608,0.0733,0.077,194.625
19:17:39:809,0.1914,3.2249,11.6569,43.548,0.419,0.0147,0.1649,194.7031
19:17:39:832,0.146,3.4164,11.1135,43.9534,0.4251,0.0104,0.0531,195.875
19:17:39:849,-0.6942,3.1196,10.6202,44.1707,0.3073,0.091,-0.1747,195.9844
19:17:39:867,-1.7022,2.782,10.4791,44.7199,0.102,0.1875,-0.3543,196.9688
19:17:39:887,-2.5738,2.4251,10.206,45.1307,-0.1173,0.2382,-0.4355,197.0625
19:17:39:909,-2.916,1.5897,10.6035,45.2638,-0.3464,0.0757,-0.4453,197.9219
19:17:39:933,-2.6551,0.201,12.7056,45.6837,-0.5614,-0.2987,-0.3903,198.9062
19:17:39:951,-2.9088,-0.6248,15.935,45.8029,-0.5705,-0.5608,-0.2559,198.9062
19:17:39:969,-3.6535,-1.0487,16.2894,46.2581,-0.0996,-0.3854,0.0226,199.9219
19:17:39:988,-3.8163,-0.9577,12.8468,46.4206,0.6768,-0.025,0.4673,199.9219
19:17:40:010,-3.0356,-0.2177,8.9994,46.6771,1.2119,0.0654,0.9364,200.7344
19:17:40:031,-1.6854,0.7445,7.2015,46.8482,1.2596,-0.1234,1.2443,200.7344
19:17:40:047,-0.3568,1.6998,7.1178,46.9841,0.9841,-0.2755,1.3176,200.7344
19:17:40:069,0.6368,2.2983,7.5317,47.442,0.6469,-0.2236,1.1686,201.125
19:17:40:088,1.0487,2.4706,7.57,47.6153,0.3836,-0.0312,0.8595,201.125
19:17:40:108,0.7134,2.2265,7.156,47.7464,0.19,0.168,0.4844,200.9688
19:17:40:132,-0.3066,1.7285,7.1417,47.9855,0.0086,0.2511,0.1796,201.2031
19:17:40:149,-1.1659,1.4004,7.6588,48.2833,-0.1093,0.2315,0.0702,201.2031
19:17:40:167,-1.4004,1.4004,7.7833,48.4876,-0.0837,0.2059,0.1307,202
19:17:40:188,-1.1563,1.7046,7.5389,48.5888,0.022,0.1851,0.2413,202
19:17:40:208,-0.6224,1.992,7.034,48.9741,0.0916,0.1912,0.3066,202.7188
19:17:40:226,-0.3784,2.3294,6.9356,49.3771,0.0489,0.1985,0.2895,202.7969
19:17:40:249,-0.2994,2.5451,6.8399,49.5043,-0.0574,0.2028,0.2187,203.0469
19:17:40:268,-0.5363,2.5475,7.4839,49.6952,-0.2004,0.1216,0.1185,203.0781
19:17:40:290,-0.565,2.5451,9.6051,49.8111,-0.3341,0.0006,0.0312,201.9688
19:17:40:309,-1.4246,2.648,10.5963,49.966,-0.281,-0.0476,-0.0031,201.8594
19:17:40:327,-2.1188,2.1882,11.4844,50.3891,-0.0849,-0.2511,0.0452,199.6875
19:17:40:348,-1.5203,1.5634,12.0518,50.5544,0.2223,-0.5589,0.2211,199.4844
19:17:40:368,-0.5028,1.6424,11.7,50.8152,0.4447,-0.6933,0.4105,197.625
19:17:40:387,0.5459,2.26,11.7263,50.5523,0.416,-0.6359,0.4923,197.4531
19:17:40:407,1.2185,2.5881,12.0927,50.915,0.2077,-0.3928,0.4258,196.7188
19:17:40:428,1.5299,2.624,11.5373,51.2483,-0.0195,0.0037,0.2737,196.3281
19:17:40:449,1.9367,2.6264,10.2826,51.4962,-0.2529,0.2865,0.1124,196.3281
19:17:40:468,2.1117,2.5403,10.3448,51.5318,-0.5492,0.2016,-0.1161,195.625
19:17:40:488,1.5873,1.7572,12.1095,51.6129,-0.8405,-0.0348,-0.4123,195.625
19:17:40:508,0.9793,0.9099,13.9863,51.715,-0.901,-0.1509,-0.6157,194.9844
19:17:40:533,0.4023,0.2058,14.2017,51.6525,-0.6115,-0.0709,-0.6695,194.9844
19:17:40:549,-0.1938,0.0167,12.5474,51.9272,-0.1607,0.1252,-0.5736,194.9688
19:17:40:569,-0.3138,0.122,10.9122,51.9898,0.204,0.1704,-0.3775,194.6719
19:17:40:588,-0.0359,0.2058,9.5836,52.3644,0.4361,0.0501,-0.19,194.6719
19:17:40:608,0.431,0.498,8.942,52.6437,0.5504,-0.1515,-0.0709,194.5469
19:17:40:634,1.1085,0.9027,8.3219,52.7286,0.5748,-0.2614,-0.0476,194.4531
19:17:40:648,1.3597,1.3286,7.5966,52.8649,0.4948,-0.237,-0.1558,194.4531
19:17:40:668,0.9242,1.3358,7.0244,53.0682,0.281,-0.1118,-0.3488,193.8594
19:17:40:689,0.201,1.1396,7.2948,53.122,-0.0226,0.0641,-0.4954,193.8594
19:17:40:709,-0.146,1.1396,7.7785,53.3804,-0.2395,0.2553,-0.5088,193.2031
19:17:40:733,-0.1364,1.3454,7.8814,53.4224,-0.2834,0.3806,-0.4423,193.2031
19:17:40:749,0.1938,1.7094,7.6493,53.1411,-0.2315,0.4227,-0.3635,193.0156
19:17:40:768,0.4956,2.1093,7.5724,52.832,-0.1949,0.4019,-0.3323,193
19:17:40:788,0.6846,2.5017,7.6134,53.0707,-0.1857,0.3494,-0.347,193.8594
19:17:40:810,0.6368,2.6312,8.6402,52.8404,-0.2749,0.1997,-0.4649,193.9375
19:17:40:827,0.2154,2.5331,9.6266,53.0113,-0.3573,0.1704,-0.4991,195.0781
19:17:40:848,-0.0144,2.3797,10.9436,53.1705,-0.3854,0.1521,-0.4618,195.2031
19:17:40:867,-0.0957,2.2337,11.98,52.9098,-0.3024,0.1967,-0.3732,195.8125
19:17:40:888,-0.4908,2.2744,12.2483,52.9159,-0.1374,0.3244,-0.2553,195.875
19:17:40:907,-0.7421,2.4395,11.8819,53.1828,0.0635,0.4025,-0.0953,196.2031
19:17:40:928,-0.5411,2.6551,11.2929,53.321,0.2614,0.3256,0.0721,196.9062
19:17:40:950,-0.2536,2.8753,11.269,53.3818,0.3848,0.1381,0.1643,196.9062
19:17:40:968,-0.2465,3.0404,11.403,53.875,0.4465,0.014,0.1576,197.9688
19:17:40:987,-0.6464,2.9542,10.7423,53.8039,0.4691,0.0434,0.0831,197.9688
19:17:41:009,-1.2401,2.8848,9.8085,53.6979,0.4099,0.1032,0.0147,197.9688
19:17:41:031,-1.8482,2.8442,9.5022,54.0622,0.2425,0.0965,-0.0232,198.625
19:17:41:049,-2.2959,2.4778,9.859,54.2146,0.0348,0.0385,-0.0373,198.625
19:17:41:067,-2.5232,1.7189,10.582,54.4209,-0.0941,-0.0983,-0.0061,199.1719
19:17:41:087,-2.461,0.8692,11.9632,54.6743,-0.0757,-0.3433,0.091,199.1719
19:17:41:108,-2.4084,0.6583,13.2491,54.6038,0.0996,-0.4105,0.2627,199.9531
19:17:41:134,-2.3868,1.0223,11.6809,54.2964,0.4313,-0.11,0.4789,200.8281
19:17:41:150,-2.1404,1.2425,8.7912,54.4294,0.7086,0.0745,0.6298,200.8281
19:17:41:168,-1.5275,1.5299,7.4384,54.4311,0.6615,-0.0434,0.7135,201.3594
19:17:41:188,-0.577,1.9848,7.8479,54.4171,0.3512,-0.2138,0.733,201.3594
19:17:41:208,0.2201,2.1045,8.9898,54.4391,0.0079,-0.2504,0.6145,201.3281
19:17:41:227,0.4765,1.7309,10.1438,54.25,-0.2156,-0.1625,0.3928,201.3281
19:17:41:251,-0.0814,1.2688,10.4671,54.2719,-0.2187,-0.0098,0.1741,201.125
19:17:41:268,-1.1515,0.7756,9.8399,54.3875,-0.0189,0.1038,0.0556,201.0938
19:17:41:288,-1.8745,0.5435,8.8511,54.5911,0.2523,0.149,0.1118,201.125
19:17:41:309,-1.6639,0.7181,7.3905,54.5398,0.5039,0.2529,0.4826,201.125
19:17:41:333,-1.0008,1.3932,6.0404,54.7025,0.2999,0.2798,0.6023,201.2188
19:17:41:350,0.5483,3.5145,6.5169,54.8082,0.0189,0.3244,0.6182,201.2188
19:17:41:367,1.2281,4.2592,7.3594,54.7867,-0.1765,0.3971,0.5204,201.1875
19:17:41:387,1.7788,4.7955,7.6373,54.8353,-0.2822,0.4661,0.3396,201.1875
19:17:41:407,1.5538,4.9869,7.9364,54.7394,-0.3702,0.4178,0.0641,200.625
19:17:41:428,0.7636,4.4483,9.0042,54.5818,-0.4142,0.1839,-0.2443,199.4531
19:17:41:450,-0.2058,3.6583,10.0481,54.6769,-0.3433,-0.0922,-0.4587,199.4531
19:17:41:470,-0.8186,2.9231,10.2634,54.8848,-0.1918,-0.2969,-0.5327,199.3281
19:17:41:487,-1.1228,2.3198,10.2826,54.9541,-0.1209,-0.4331,-0.5253,198.1406
19:17:41:508,-1.343,1.7118,11.0489,54.8314,-0.1753,-0.5119,-0.5033,198.0156
19:17:41:527,-1.5036,1.0487,11.7694,54.8611,-0.2297,-0.4667,-0.4636,197.3438
19:17:41:550,-2.0542,0.4119,11.2522,54.8934,-0.2205,-0.3005,-0.3836,197.3438
19:17:41:568,-2.0399,0.3066,10.2897,54.9208,-0.2315,-0.2358,-0.182,197.1406
19:17:41:588,-0.6368,0.7421,10.6131,55.005,-0.3586,-0.3653,0.0733,197.1406
19:17:41:608,0.9338,1.2497,11.8986,54.9765,-0.5766,-0.4355,0.1802,196.3438
19:17:41:628,1.9705,1.3813,12.9329,54.9169,-0.7721,-0.2963,0.0647,194.9219
19:17:41:647,1.4151,0.9218,13.8404,54.7438,-0.8625,-0.088,-0.2181,194.9219
19:17:41:668,0.0766,0.0909,14.2304,54.459,-0.7373,0.1069,-0.4209,193.6719
19:17:41:733,-0.498,-0.5602,13.2203,54.3795,-0.3567,0.2242,-0.369,193.6719
19:17:41:734,-0.2489,-0.5387,11.2522,54.2276,0.0812,0.2089,-0.1649,193.5781
19:17:41:734,0.2512,-0.0024,9.629,54.2845,0.3103,0.1124,0.0134,193.5781
19:17:41:749,0.7516,0.5459,8.875,54.1012,0.2895,0.0348,0.0757,194.5469
19:17:41:769,0.9242,0.7014,8.5229,53.956,0.157,0.0214,0.0257,194.6562
19:17:41:789,0.766,0.7181,8.365,53.7288,0.0257,0.0495,-0.0501,195.8281
19:17:41:811,0.3808,1.0678,8.2693,53.8045,-0.0843,0.1258,-0.0568,195.9375
19:17:41:834,0.5004,1.398,8.1135,53.8818,0.0031,0.1264,0.0006,196.875
19:17:41:852,0.7588,1.7596,7.5942,53.8717,0.1411,0.1118,0.0348,196.9688
19:17:41:869,0.9601,2.1763,7.0122,54.0182,0.2236,0.0996,0.0183,197.1094
19:17:41:887,1.0798,2.691,6.7035,53.8829,0.1949,0.0794,-0.0464,197.125
19:17:41:907,0.9553,3.1555,6.7274,54.2619,0.0666,0.0501,-0.1558,196.8281
19:17:41:927,0.7708,3.3589,7.7067,54.2392,-0.1148,-0.025,-0.2761,197.2031
19:17:41:950,0.6799,3.3182,8.9372,54.3688,-0.2358,-0.0666,-0.3787,197.2031
19:17:41:969,0.6153,3.146,9.6864,54.4575,-0.2657,-0.0324,-0.4606,197.25
19:17:41:987,0.711,2.959,10.3953,54.623,-0.2853,0.0214,-0.5101,197.6719
19:17:42:010,0.3784,2.7604,11.336,54.523,-0.3317,0.1038,-0.5492,197.7188
19:17:42:034,-0.6248,2.5065,11.9154,54.4722,-0.3195,0.2169,-0.5394,197.6875
19:17:42:050,-1.4509,2.1882,12.2985,54.5629,-0.1778,0.2462,-0.405,197.6875
19:17:42:069,-1.4844,1.9032,12.3942,54.2849,0.0776,0.1784,-0.1576,197.7344
19:17:42:088,-1.197,2.0734,11.9919,54.3558,0.3653,0.1045,0.091,197.7344
19:17:42:109,-0.9051,2.3629,11.013,54.197,0.5699,0.066,0.2443,197.8281
19:17:42:134,-0.6918,2.2552,10.3161,54.1423,0.606,0.0165,0.2785,197.7812
19:17:42:152,-0.6511,2.2648,10.0098,54.2015,0.4893,0.0012,0.2572,197.7812
19:17:42:168,-0.8812,2.473,9.2363,54.3234,0.2987,0.0391,0.1997,197.8438
19:17:42:188,-0.9434,2.0758,8.688,54.2854,0.0086,-0.0678,0.0971,197.8438
19:17:42:208,-0.7588,1.1515,11.0417,54.232,-0.4594,-0.3958,-0.0153,198.2969
19:17:42:228,-0.8955,0.5483,15.3987,54.3114,-0.8094,-0.5174,-0.0776,198.2969
19:17:42:250,-1.7213,-0.1196,16.5383,54.1831,-0.5259,-0.1197,-0.0513,199.0781
19:17:42:269,-2.2528,-0.3473,12.4947,54.2032,0.2834,0.4557,0.1307,199.1562
19:17:42:289,-1.9753,0.3999,8.2908,54.1354,0.9199,0.5589,0.3867,200.0938
19:17:42:308,-1.118,1.5945,6.0188,54.1377,1.0348,0.2889,0.5223,200.1875
19:17:42:327,-0.6559,2.4682,5.54,54.0996,0.7452,0.0067,0.427,201
19:17:42:353,-0.9817,1.0702,7.4934,54.1616,-0.0922,-0.1466,-0.0544,201.0625
19:17:42:370,-1.3621,0.5889,8.3363,54.0482,-0.3464,-0.0373,-0.1258,201.1875
19:17:42:390,-1.8314,0.4573,9.1454,54.239,-0.4587,0.0586,-0.0904,200.8594
19:17:42:408,-1.9848,0.5028,9.6458,54.6062,-0.4013,0.1295,0.0342,200.8594
19:17:42:427,-1.6543,0.917,9.2554,54.7863,-0.1771,0.16,0.2046,200.5
19:17:42:448,-1.0726,1.4701,8.1015,55.0729,0.0794,0.1448,0.3299,200.5
19:17:42:469,-0.7397,1.963,7.1584,55.0393,0.168,0.1124,0.3494,200.4688
19:17:42:487,-0.6153,2.3892,7.0026,55.1905,0.0629,0.091,0.3042,200.3906
19:17:42:509,-0.6607,2.5666,7.1632,55.3046,-0.0977,0.0702,0.2291,200.375
19:17:42:532,-0.5148,2.5403,7.7426,55.5446,-0.2419,-0.014,0.1631,200.3906
19:17:42:551,-0.2776,2.5762,8.9492,55.6056,-0.3732,-0.135,0.1124,200.375
19:17:42:569,-0.189,2.5451,10.6155,55.554,-0.4569,-0.2395,0.0354,199.8594
19:17:42:588,-0.5459,2.3916,11.913,55.6969,-0.4251,-0.2608,-0.0574,199.8594
19:17:42:608,-0.7947,2.0734,12.3607,55.6128,-0.2682,-0.2511,-0.1038,199.0938
19:17:42:627,-0.443,1.8458,12.4947,55.8464,-0.0965,-0.2718,-0.0953,199.0469
19:17:42:648,0.5913,1.9729,13.2084,55.8631,-0.0055,-0.292,-0.0953,199.0469
19:17:42:668,1.573,2.3318,13.9433,56.0141,0.0709,-0.1991,-0.2077,199.1406
19:17:42:691,1.1037,2.3797,13.1698,56.061,0.1955,-0.0012,-0.4569,199.1406
19:17:42:708,0.0383,1.9968,11.7933,56.0654,0.2883,0.0495,-0.667,198.7188
19:17:42:727,-0.3425,1.4797,11.4844,56.1051,0.2602,-0.1344,-0.7147,198.7188
19:17:42:752,-0.1723,1.0606,12.1143,55.8758,0.1222,-0.306,-0.6658,197.9688
19:17:42:768,-0.1436,0.5674,13.1674,55.8966,-0.0153,-0.3115,-0.6121,197.9688
19:17:42:789,-0.4645,0.0574,13.7204,55.8738,0.0073,-0.1038,-0.529,197.4062
19:17:42:808,-0.6655,-0.1555,12.2363,55.8828,0.2755,0.1949,-0.3476,197.3594
19:17:42:827,-0.5459,-0.0574,9.7247,55.813,0.6041,0.2706,-0.1167,197
19:17:42:852,1.0175,0.8931,7.8766,55.7836,0.6255,-0.1582,0.168,196.9531
19:17:42:870,1.5251,1.3382,7.9843,55.8125,0.3989,-0.1949,0.0764,196.9219
19:17:42:889,1.1922,1.3143,7.9005,55.6724,0.1478,-0.0397,-0.146,196.9062
19:17:42:909,0.1579,0.9051,7.5604,55.8611,-0.0507,0.1576,-0.3433,197.1406
19:17:42:927,-0.7349,0.6224,7.1369,55.9719,-0.1417,0.2419,-0.3909,197.1562
19:17:42:948,-1.0678,0.6942,6.8853,55.9888,-0.1368,0.1802,-0.2975,197.5469
19:17:42:967,-0.7205,1.0798,6.9165,55.9408,-0.1045,0.0666,-0.1497,197.5781
19:17:42:987,-0.1507,1.6567,7.1632,56.1036,-0.0983,0.0232,-0.0489,198.7656
19:17:43:009,0.1699,2.2409,7.1441,56.2257,-0.0959,0.0568,-0.0415,198.8906
19:17:43:027,0.1579,2.636,6.7801,56.1332,-0.1185,0.0855,-0.1136,200.4062
19:17:43:048,0.2898,2.8992,7.2972,56.2619,-0.2291,0.0263,-0.2004,200.5469
19:17:43:069,0.7947,3.1484,8.7027,56.3302,-0.3586,-0.0244,-0.2798,201.875
19:17:43:087,1.0032,3.3805,9.8973,56.3105,-0.3971,0.0476,-0.4056,201.8906
19:17:43:110,1.3071,3.5025,10.8811,56.3573,-0.3091,0.1564,-0.5601,202.4688
19:17:43:128,1.2736,3.5719,11.1159,56.4775,-0.1454,0.2688,-0.7403,202.4688
19:17:43:148,-0.1603,3.4905,10.7351,56.27,0.0177,0.2914,-0.9138,202.4688
19:17:43:169,-1.7572,3.1627,11.0848,56.263,0.2138,-0.0067,-0.9089,202.6875
19:17:43:188,-2.339,2.9686,12.0159,56.309,0.4893,-0.4673,-0.689,202.6875
19:17:43:208,-2.2265,2.8561,12.3942,56.2707,0.6866,-0.5687,-0.3971,203.375
19:17:43:227,-2.2911,2.8848,11.8101,56.1517,0.664,-0.2205,-0.1326,203.375
19:17:43:252,-2.2935,2.8131,10.7614,56.2534,0.482,0.1649,0.1118,203.7656
19:17:43:269,-1.6759,2.7724,10.4288,56.1265,0.2364,0.2847,0.3402,203.7656
19:17:43:290,-0.4693,3.0452,10.7901,56.3624,0.0012,0.1918,0.474,203.8281
19:17:43:309,-0.0622,3.1196,11.645,56.4372,-0.1863,0.0421,0.3952,203.8281
19:17:43:328,-0.5506,2.3055,12.9257,56.4246,-0.2785,-0.1142,0.201,204.0625
19:17:43:351,-1.1611,1.1157,13.9002,56.507,-0.1338,-0.2114,0.11,204.0938
19:17:43:369,-1.7812,0.498,13.0525,56.5308,0.2773,-0.1332,0.2028,204.6406
19:17:43:389,-2.0231,0.6727,9.9021,56.6889,0.7391,0.0379,0.4032,204.6875
19:17:43:409,-1.7189,1.118,7.3666,56.5645,0.967,-0.091,0.5687,205.8438
19:17:43:428,0.055,2.126,7.8311,56.8057,0.6206,-0.6933,0.5278,205.9531
19:17:43:448,0.0383,1.9391,8.0465,56.5093,0.2938,-0.5559,0.3005,207.7812
19:17:43:468,-0.51,1.4773,8.2071,56.5073,-0.0336,-0.2669,0.1026,207.9531
19:17:43:488,-1.2185,1.0917,8.353,56.6623,-0.2578,-0.0244,0.0342,209.4219
19:17:43:510,-1.5227,0.941,8.6186,56.7993,-0.3109,0.0617,0.1167,209.5625
19:17:43:527,-1.3334,1.0845,8.7529,56.94,-0.2193,0.0605,0.2895,209.8281
19:17:43:547,-0.8668,1.5203,8.444,56.9857,-0.0654,0.0867,0.4618,209.8438
19:17:43:569,-0.4525,1.992,7.7091,57.161,0.0605,0.1936,0.5663,208.9219
19:17:43:588,-0.0933,2.3653,6.9428,57.1282,0.1234,0.2932,0.5937,208.9062
19:17:43:609,0.0981,2.8537,6.3491,57.3307,0.1246,0.2865,0.5638,208.1875
19:17:43:628,0.0502,3.3374,6.1792,57.452,0.0476,0.1521,0.4673,207.9219
19:17:43:647,-0.067,3.3541,6.8758,57.3766,-0.1112,-0.0379,0.3415,207.9219
19:17:43:669,-0.0431,3.1101,8.365,57.3874,-0.2688,-0.2095,0.2468,207.2031
19:17:43:688,0.067,3.122,9.7702,57.5285,-0.3219,-0.325,0.1942,207.2031
19:17:43:707,0.0479,3.2991,11.0058,57.4536,-0.259,-0.4288,0.1478,206.4531
19:17:43:727,0.2321,3.256,12.0183,57.4816,-0.1014,-0.5565,0.1081,206.4531
19:17:43:750,0.687,2.8131,12.2267,57.5997,0.0739,-0.6377,0.0654,206.2344
19:17:43:807,0.9123,2.4778,12.454,57.5335,0.0837,-0.5754,0.0208,206.2344
19:17:43:808,0.7134,2.1811,12.5019,57.4792,-0.0373,-0.3237,0.0018,206
19:17:43:808,0.553,2.1691,12.076,57.8178,-0.1155,-0.0751,0.0629,205.9688
19:17:43:828,1.051,2.4419,11.3575,57.8379,-0.0916,-0.022,0.1765,205.1562
19:17:43:847,1.9415,2.7006,10.9313,57.7749,-0.1057,-0.099,0.2278,205.0781
19:17:43:870,2.7269,2.6145,11.3145,57.9583,-0.2621,-0.1374,0.1448,203.8438
19:17:43:891,2.0088,1.3956,13.2778,57.828,-0.4832,-0.0452,-0.0403,203.7188
19:17:43:910,1.1396,0.8234,12.7271,57.6603,-0.5644,0.1484,-0.2059,202.6094
19:17:43:927,1.142,0.6535,11.0178,57.8223,0.0654,0.3543,-0.1155,202.5
19:17:43:947,1.6735,0.9123,9.2435,57.9845,0.3818,0.2205,0.0177,201.9062
19:17:43:969,2.1811,1.2568,7.9484,57.7677,0.43,0.0782,0.036,201.8438
19:17:43:987,2.339,1.4028,7.5317,57.8538,0.2077,0.0122,-0.0672,201.5781
19:17:44:009,1.9391,1.3358,8.0536,57.9195,-0.1527,0.0647,-0.2211,201.5469
19:17:44:029,1.3382,1.1635,8.7625,57.7305,-0.4233,0.1973,-0.3225,201.6094
19:17:44:049,0.766,1.1013,8.7266,57.9307,-0.4532,0.284,-0.328,201.625
19:17:44:068,0.443,1.2162,8.3961,57.9803,-0.3128,0.2492,-0.2529,201.7969
19:17:44:087,0.577,1.5538,7.8598,57.9017,-0.1155,0.1588,-0.135,201.8125
19:17:44:108,0.9625,1.9558,7.2709,57.976,0.0195,0.1271,-0.0605,201.5312
19:17:44:129,1.1827,2.3557,6.749,57.79,0.0269,0.1692,-0.0654,201.1406
19:17:44:151,1.3214,2.7293,6.4762,57.8288,-0.0745,0.2071,-0.1191,201.1406
19:17:44:168,1.4294,3.1436,6.7585,57.8709,-0.2401,0.1796,-0.1949,201.25
19:17:44:187,1.439,3.4259,7.8503,58.0359,-0.4117,0.0794,-0.2963,201.25
19:17:44:208,1.209,3.3996,9.5094,58.0232,-0.5076,-0.0299,-0.4074,201.4688
19:17:44:228,1.0152,3.1675,10.6777,57.9953,-0.4581,-0.0776,-0.4667,201.4688
19:17:44:249,0.6727,2.9064,11.3886,58.1611,-0.3225,-0.0898,-0.4752,201.4531
19:17:44:267,0.2465,2.782,12.0975,58.1534,-0.1796,-0.0544,-0.4245,201.4531
19:17:44:288,-0.1986,2.8035,12.1813,58.2711,-0.0189,0.0941,-0.3054,201.7656
19:17:44:308,-0.3042,2.9782,11.4078,58.3715,0.1704,0.223,-0.1344,201.7656
19:17:44:327,-0.0766,3.1484,10.6442,58.352,0.2883,0.1735,0.0257,202.2031
19:17:44:347,-0.0431,3.1747,10.6202,58.4968,0.2529,0.011,0.1222,202.25
19:17:44:367,-0.2608,2.8585,10.3328,58.662,0.1429,-0.0733,0.1723,202.5156
19:17:44:389,1.0175,2.983,11.5493,58.8149,0.0037,-0.1216,0.215,202.5312
19:17:44:409,0.4071,3.1053,11.566,58.9474,-0.3237,0.2382,-0.022,202.625
19:17:44:427,-0.6272,2.1619,11.2953,59.0037,-0.518,0.4416,-0.2236,202.625
19:17:44:449,-1.1252,0.8644,12.4947,59.142,-0.6328,0.2175,-0.2596,202.8281
19:17:44:467,-1.3071,-0.0191,15.1235,59.1044,-0.4777,-0.215,-0.1319,202.8438
19:17:44:487,-1.7859,-0.3688,14.9991,59.0843,0.0751,-0.1478,0.1173,203.4062
19:17:44:508,-1.9992,-0.0191,10.838,58.9529,0.8014,0.2718,0.4423,203.4688
19:17:44:528,-1.7524,0.5339,6.8566,58.8739,1.1985,0.3818,0.7043,204.3125
19:17:44:548,-1.0606,1.197,4.9439,58.98,1.0995,0.1802,0.8509,204.4062
19:17:44:568,-0.2512,2.0495,4.9917,58.9452,0.667,-0.0373,0.8558,205.0938
19:17:44:588,0.3927,2.5283,6.0021,59.0183,0.1716,-0.0947,0.6823,205.1719
19:17:44:608,0.5171,2.26,7.0986,59.2723,-0.1833,-0.055,0.3806,205.3125
19:17:44:627,0.0933,1.3717,7.6253,59.3792,-0.3598,0,0.088,205.0625
19:17:44:649,-0.6368,0.9529,8.3291,59.4558,-0.438,-0.0428,-0.0544,205.0625
19:17:44:667,-1.0822,0.917,9.5166,59.6653,-0.4294,-0.1191,-0.0403,204.6406
19:17:44:687,-1.0008,0.9266,10.1916,59.8312,-0.2749,-0.0806,0.0733,204.6406
19:17:44:707,-0.5004,1.264,9.4663,59.694,-0.0183,0.0733,0.2132,204.6562
19:17:44:728,-0.2034,1.8266,7.9986,59.6691,0.1704,0.215,0.2859,204.6562
19:17:44:748,-0.0502,2.4419,7.2302,59.5802,0.1588,0.2798,0.2785,204.8906
19:17:44:768,-0.0144,2.703,6.871,59.252,0.0513,0.2908,0.2052,204.8906
19:17:44:787,-0.1723,2.7317,6.7657,59.1545,-0.0757,0.201,0.0935,204.4062
19:17:44:808,-0.2201,2.6551,7.5054,59.1844,-0.2468,0.0409,0.0079,204.4062
19:17:44:827,-0.1053,2.5905,8.9922,59.077,-0.4331,-0.0702,-0.0428,203.125
19:17:44:848,0.055,2.5666,10.6849,59.098,-0.5296,-0.1399,-0.0886,203
19:17:44:867,-0.0694,2.3844,11.8244,59.3077,-0.4881,-0.1814,-0.1393,201.6094
19:17:44:888,0.0167,1.8338,12.7343,59.5643,-0.3464,-0.2999,-0.1509,201.4844
19:17:44:909,0.6631,1.0845,13.5601,59.9658,-0.025,-0.4178,-0.0464,200.9219
19:17:44:931,0.5841,1.3789,12.5928,60.2208,0.0464,-0.2407,0.0324,200.875
19:17:44:948,0.9075,1.573,11.6234,60.4553,0.036,-0.1765,0.1161,200.8594
19:17:44:966,1.5969,1.5179,11.4221,60.5935,-0.033,-0.3335,0.16,200.8594
19:17:44:987,2.3844,1.3573,12.4469,60.9393,-0.113,-0.5986,0.1234,200.5312
19:17:45:008,2.5522,0.8524,13.7638,61.1344,-0.1222,-0.7068,-0.0043,200.5
19:17:45:027,1.9753,0.3616,13.6965,60.9256,0.0177,-0.5052,-0.1338,199.9062
19:17:45:049,1.319,-0.1484,11.9345,60.8062,0.2291,-0.1716,-0.1655,199.8438
19:17:45:067,1.4246,-0.1651,10.3881,60.6798,0.3152,0.0464,-0.066,199.4531
19:17:45:088,1.8314,0.2154,9.6242,60.6707,0.2785,0.1313,0.0318,199.4219
19:17:45:108,2.1954,0.5554,8.8247,60.4119,0.2437,0.1429,0.0293,199.3438
19:17:45:127,2.2146,0.7445,8.1182,60.6487,0.1906,0.1179,-0.0709,199.4844
19:17:45:149,1.9896,0.8043,7.5269,60.376,0.0898,0.1203,-0.2114,199.4844
19:17:45:168,1.4294,0.8572,7.2254,60.2279,-0.0324,0.1472,-0.3427,199.8125
19:17:45:187,0.821,0.9194,6.8973,60.5278,-0.1197,0.201,-0.4184,199.8125
19:17:45:208,0.4693,0.9936,6.4953,60.4562,-0.1509,0.2199,-0.4209,199.9375
19:17:45:227,0.5913,1.276,6.4472,60.5748,-0.179,0.1655,-0.3647,199.9375
19:17:45:249,0.9793,1.7094,6.7992,60.6301,-0.2278,0.1087,-0.317,199.7188
19:17:45:267,1.2114,2.0949,7.1489,60.8361,-0.2853,0.1032,-0.3396,199.7188
19:17:45:288,1.1779,2.2648,7.5556,60.4672,-0.3305,0.0849,-0.4166,199.7812
19:17:45:307,1.0678,2.1332,8.3889,60.6565,-0.3622,-0.0037,-0.4881,199.7812
19:17:45:327,1.2592,2.0327,9.4711,60.4188,-0.3616,-0.102,-0.5009,200.2188
19:17:45:348,1.3047,2.1739,10.5006,60.436,-0.3347,-0.1258,-0.4862,200.25
19:17:45:367,1.2951,2.3366,11.2283,60.5596,-0.2737,-0.066,-0.471,200.3438
19:17:45:387,0.8186,2.4156,11.7981,60.4432,-0.19,0.0128,-0.4594,200.3438
19:17:45:409,0.1699,2.4443,12.4182,60.7482,-0.0593,0.08,-0.3952,200.3906
19:17:45:428,-0.1077,2.6145,12.0374,60.7853,0.1674,0.1863,-0.2456,200.3906
19:17:45:449,0.4047,2.9901,10.6657,60.8739,0.3732,0.1912,0.0202,200.9062
19:17:45:467,0.4645,3.026,11.7096,60.994,0.234,0.0757,0.0446,200.9688
19:17:45:487,0.256,2.77,12.8779,61.2074,0.1393,0.0128,0.0312,201.7031
19:17:45:507,-0.1507,2.4562,13.3424,60.965,0.168,0.0922,0.0391,201.7656
19:17:45:527,-0.5028,2.2959,12.3464,60.8528,0.2889,0.3164,0.091,202.3594
19:17:45:549,-0.7134,2.394,10.7303,60.9354,0.3726,0.4807,0.1545,202.4219
19:17:45:568,-0.8453,2.3533,9.8375,60.6147,0.3744,0.3653,0.1784,203.0625
19:17:45:589,-0.51,1.6304,10.1318,60.6453,0.3537,0.0116,0.1723,203.125
19:17:45:607,-0.2417,0.9912,10.8284,60.7763,0.3677,-0.292,0.1576,204.125
19:17:45:627,-0.5028,0.9625,10.1581,60.5915,0.4154,-0.314,0.1448,205.1094
19:17:45:649,-0.5578,0.9482,9.1454,60.6091,0.4087,-0.2718,0.1344,205.1094
19:17:45:669,-0.4214,0.7301,8.6713,60.8263,0.2944,-0.2834,0.11,206
