Time,Acc_X,Acc_Y,Acc_Z,Meg,Gyr_X,Gyr_Y,Gyr_Z,Ore
14:17:44:901,0.1699,2.3509,9.5094,61.9274,-0.1912,-0.1332,-0.0415,183.375
14:17:44:918,-0.2417,2.3318,9.0592,61.961,-0.168,0.0244,0.1155,183.375
14:17:44:938,0.1388,2.8633,8.4272,62.0804,-0.1399,0.0831,0.2883,183.375
14:17:44:956,0.5076,3.402,8.578,62.1294,-0.146,-0.0092,0.3476,183.375
14:17:44:975,0.699,3.6583,9.1789,61.753,-0.1313,-0.1356,0.2926,183.375
14:17:44:996,0.7732,3.6631,9.507,61.7556,-0.0678,-0.182,0.1839,183.375
14:17:45:017,0.5339,3.4953,9.4998,61.6918,-0.036,-0.0812,0.0641,183.375
14:17:45:034,0.2058,3.3063,9.3084,61.5512,-0.0556,0.0928,-0.0159,183.375
14:17:45:053,-0.0096,3.1842,9.3562,61.1856,-0.099,0.223,-0.047,183.375
14:17:45:073,-0.0287,3.1866,9.5453,61.162,-0.1106,0.2694,-0.0367,183.375
14:17:45:092,0.1029,3.2201,9.7869,61.1276,-0.0715,0.2639,-0.0104,183.375
14:17:45:114,0.1436,3.3398,9.7702,60.9341,-0.0073,0.2755,0.014,183.375
14:17:45:134,0.1172,3.5121,9.6147,60.8219,0.036,0.303,0.0208,183.375
14:17:45:153,-0.0239,3.5169,9.6506,60.6426,0.0409,0.3085,-0.0024,183.375
14:17:45:174,-0.213,3.3613,10.0911,60.4304,0.0373,0.2657,-0.0287,183.375
14:17:45:192,-0.364,3.1603,10.637,60.556,0.066,0.2217,-0.0238,183.375
14:17:45:214,-0.3927,3.0523,10.9938,60.7142,0.1234,0.2376,0.0189,183.375
14:17:45:233,-0.4119,3.038,10.7303,60.7617,0.1888,0.3146,0.0764,183.375
14:17:45:253,-0.4645,3.2369,10.3929,60.6787,0.2395,0.3158,0.1283,182.6562
14:17:45:273,-0.4095,3.335,10.4408,60.7922,0.273,0.179,0.1387,182.1562
14:17:45:293,-0.7493,3.1125,11.214,61.0954,0.2908,-0.0446,0.0721,182.1562
14:17:45:317,-1.6208,2.4802,11.7838,61.2439,0.3225,-0.1686,0.0098,182.0781
14:17:45:334,-2.2959,1.7979,11.4604,61.6204,0.3628,-0.1301,0.0776,182.0781
14:17:45:353,-2.3486,1.4773,10.7925,61.6328,0.3396,-0.0281,0.259,182.1094
14:17:45:373,-2.0518,1.2473,10.2036,61.6268,0.1857,0.0874,0.419,182.1094
14:17:45:393,-1.9199,0.9051,10.4958,61.5031,-0.0611,0.157,0.4954,182.0156
14:17:45:415,-2.0877,0.7062,11.2092,61.6641,-0.1912,0.149,0.5711,182.0156
14:17:45:434,-2.083,0.9505,10.9122,61.5369,-0.0635,0.1081,0.7251,181.9219
14:17:45:455,-1.6113,1.6113,9.574,61.5282,0.1368,0.0782,0.8863,181.9219
14:17:45:476,-0.9769,2.1643,8.6521,61.4123,0.1472,0.0428,0.9053,181.9219
14:17:45:494,-0.6105,2.205,8.7769,61.0144,-0.0287,0.0092,0.7483,181.9219
14:17:45:517,-0.7947,1.7118,9.6817,60.8422,-0.2132,-0.0147,0.5162,181.7812
14:17:45:535,-1.3741,0.8306,9.6601,60.6607,-0.1753,0.1442,0.4215,181.7812
14:17:45:554,-0.9625,1.0941,8.1326,60.6765,-0.0965,0.339,0.5901,181.5
14:17:45:575,-0.4478,1.6137,7.0316,60.2016,-0.1118,0.4007,0.722,181.4688
14:17:45:594,-0.2417,2.016,7.0484,60.0445,-0.1771,0.2688,0.7355,181.4688
14:17:45:619,-0.2417,2.2409,7.7593,59.6003,-0.1979,0.0733,0.6976,181.4688
14:17:45:637,-0.3449,2.4419,8.3578,59.4089,-0.1344,-0.0428,0.6689,181.2188
14:17:45:653,-0.3544,2.6551,8.6593,59.3101,-0.0727,-0.0428,0.6499,181.1875
14:17:45:675,-0.1962,2.8801,9.1286,59.0056,-0.0764,0.0336,0.6163,180.25
14:17:45:693,-0.122,2.8992,9.629,58.8404,-0.0861,0.135,0.5345,180.1562
14:17:45:715,-0.2922,2.77,9.9141,58.2957,-0.0348,0.2291,0.4368,178.8125
14:17:45:736,-0.5602,2.6958,9.6027,58.2922,0.08,0.3231,0.3867,178.6719
14:17:45:756,-0.7756,2.6958,8.9635,58.0622,0.1704,0.4044,0.3873,176.7188
14:17:45:775,-0.8501,2.7604,8.5756,57.6822,0.1649,0.4447,0.4166,175.2969
14:17:45:795,-0.6894,2.9471,8.5828,57.2715,0.0996,0.4044,0.4667,175.2969
14:17:45:815,-0.6679,3.1196,8.8869,57.0968,0.0238,0.3311,0.4893,174.3438
14:17:45:834,-0.6081,3.2369,9.1119,56.746,-0.0629,0.2877,0.5107,174.3438
14:17:45:854,-0.364,3.3829,9.5285,56.3045,-0.1307,0.1845,0.5406,172.7656
14:17:45:875,-0.079,3.536,10.3065,56.0167,-0.1552,0.0018,0.5333,172.7656
14:17:45:894,0.1579,3.615,11.4221,55.8315,-0.1167,-0.1826,0.4765,171.1094
14:17:45:919,0.0024,3.536,12.1214,55.6186,-0.025,-0.2223,0.3885,171.1094
14:17:45:936,0.0479,3.4092,11.8771,55.3937,0.0819,-0.0971,0.3292,169.6406
14:17:45:955,0.419,3.1364,10.8547,55.3879,0.1087,0.1228,0.2511,169.6406
14:17:45:974,0.134,2.6145,10.1653,55.0452,-0.0257,0.3024,0.0629,168.4531
14:17:45:995,-0.553,1.8745,10.273,54.8986,-0.2706,0.4245,-0.1332,168.3438
14:17:46:019,-1.561,0.5076,10.9914,54.7187,-0.6035,0.4111,-0.2358,167.4219
14:17:46:037,-1.6304,0.0215,12.023,54.6065,-0.5272,0.0831,-0.1509,167.3438
14:17:46:055,-1.4342,-0.1172,12.8181,54.1946,-0.226,-0.2853,0.0006,166.4375
14:17:46:076,-1.0199,0.2058,12.198,54.0447,0.1326,-0.3964,0.1851,166.3438
14:17:46:094,-0.2154,0.9075,10.9289,54.1179,0.3439,-0.2902,0.3451,165.2812
14:17:46:120,0.498,1.5467,9.8686,54.0562,0.3409,-0.1295,0.3567,165.1719
14:17:46:135,0.6846,1.7524,9.7846,53.7703,0.2077,-0.0434,0.2083,164.0312
14:17:46:153,0.3855,1.5969,10.2515,53.9819,0.1521,-0.0556,0.0226,163.9219
14:17:46:175,-0.012,1.3214,9.9667,54.1911,0.2877,-0.0928,-0.0819,162.9062
14:17:46:193,-0.2608,1.209,9.0185,54.3348,0.4765,-0.1075,-0.0776,162.8125
14:17:46:215,-0.28,1.319,8.0871,54.6866,0.5626,-0.0849,-0.0086,162.1406
14:17:46:235,-0.1388,1.6759,7.5485,54.7822,0.507,-0.0104,0.0623,162.0781
14:17:46:254,-0.067,2.004,7.4001,54.9791,0.3567,0.1124,0.0861,161.6562
14:17:46:276,0.0311,2.2361,7.4336,55.0066,0.2223,0.2223,0.069,161.8281
14:17:46:294,0.0909,2.3749,7.6421,55.1857,0.1655,0.259,0.033,161.8281
14:17:46:314,0.0287,2.5089,7.7809,55.1595,0.1949,0.237,0.0061,162.0625
14:17:46:337,0.0598,2.7628,7.5652,55.2966,0.2785,0.2071,0.0024,162.0625
14:17:46:355,0.1603,3.0885,7.2422,55.4396,0.3176,0.1881,-0.014,161.9531
14:17:46:375,0.213,3.4211,7.3475,55.4305,0.2462,0.1692,-0.0672,161.9531
14:17:46:395,0.2441,3.6317,8.2908,55.4428,0.1313,0.1289,-0.1527,161.3281
14:17:46:421,0.0407,3.6966,9.2653,55.3776,0.0941,0.1167,-0.2474,161.3281
14:17:46:435,-0.3305,3.6245,9.5453,55.3778,0.1533,0.1582,-0.3042,161.1094
14:17:46:453,-0.6344,3.6535,9.1789,55.6423,0.2175,0.2169,-0.284,161.1094
14:17:46:475,-0.8429,3.9694,8.997,55.7238,0.1991,0.2474,-0.2095,161.3594
14:17:46:494,-1.1013,4.3262,9.3921,55.7156,0.1319,0.1985,-0.1478,161.375
14:17:46:516,-1.4892,4.4028,10.1749,55.5758,0.0819,0.0745,-0.1271,161.4375
14:17:46:537,-1.9032,4.3382,11.0536,55.644,0.0959,-0.1759,-0.0525,161.4375
14:17:46:554,-1.8817,4.0938,12.4086,55.6411,0.1185,-0.2272,-0.0037,161.2656
14:17:46:577,-1.7644,3.8306,12.9209,55.7132,0.0971,-0.2688,-0.0275,161.25
14:17:46:595,-2.0255,3.0404,13.5577,55.6399,0.025,-0.2602,-0.1155,161.1562
14:17:46:613,-2.6121,1.8434,13.5529,55.3873,0.0061,-0.1228,-0.1558,161.1406
14:17:46:635,-3.0332,0.9673,12.3535,55.1922,0.0647,0.1356,-0.0232,161.1406
14:17:46:654,-3.1316,0.8282,10.6633,54.8889,0.1252,0.347,0.2541,161.1406
14:17:46:676,-2.8729,1.1587,9.3012,55.0004,0.1576,0.3647,0.5455,161.3281
14:17:46:755,-2.4491,1.6519,8.2454,54.7462,0.1747,0.1894,0.752,161.3594
14:17:46:755,-1.8218,2.1835,8.0321,54.75,0.1161,-0.0837,0.8399,161.875
14:17:46:755,-1.1707,2.5355,8.554,54.6885,-0.0171,-0.3024,0.791,161.9375
14:17:46:755,-0.821,2.4323,9.3371,54.6173,-0.1649,-0.3543,0.609,162.4219
14:17:46:773,-0.874,2.0279,9.6553,54.65,-0.2822,-0.1973,0.3824,162.7031
14:17:46:793,-0.9793,1.6041,9.2701,54.5209,-0.3146,0.0568,0.2205,162.7031
14:17:46:813,-1.2353,1.3262,8.0704,54.757,-0.2602,0.3091,0.1423,162.9375
14:17:46:834,-1.3669,1.3478,6.603,54.37,-0.1991,0.4759,0.1564,162.9375
14:17:46:854,-1.2162,1.5467,5.54,54.2282,-0.1888,0.4722,0.2303,163.1094
14:17:46:874,-0.9601,1.7644,5.4323,54.0116,-0.2132,0.2889,0.3231,163.1094
14:17:46:894,-0.5674,2.138,6.0404,53.7443,-0.2376,0.0538,0.4343,163.4844
14:17:46:913,-0.0526,2.6192,6.9691,53.3488,-0.2419,-0.1271,0.532,163.4844
14:17:46:935,0.5578,3.2536,7.7785,52.8481,-0.2089,-0.2266,0.5791,163.1562
14:17:46:953,1.0439,3.8569,8.3985,52.5888,-0.1716,-0.2669,0.5192,163.1562
14:17:46:973,1.1803,4.2162,9.3419,52.1491,-0.1796,-0.2743,0.3396,161.6562
14:17:46:993,0.9362,4.0795,10.2132,51.8003,-0.1888,-0.1949,0.1148,161.6562
14:17:47:015,0.3138,3.699,10.34,51.4319,-0.1643,-0.0098,-0.0489,160.1094
14:17:47:033,-0.1507,3.6341,9.95,50.9906,-0.1362,0.168,-0.0623,159.9688
14:17:47:053,-0.1699,3.9096,9.8037,50.4654,-0.1258,0.1906,0.0147,159.0312
14:17:47:075,0.0359,3.9455,10.9508,50.2922,-0.0776,-0.2676,0.0293,158.9375
14:17:47:095,-0.1484,3.2728,12.0183,50.0882,-0.0507,-0.4826,-0.0305,158.4531
14:17:47:113,-0.5004,2.648,12.3344,49.7172,-0.0324,-0.4575,-0.0287,158.4062
14:17:47:133,-0.285,2.6695,11.3336,49.2511,-0.0733,-0.2211,0.0843,157.7969
14:17:47:152,0.2922,3.0141,10.9627,48.9677,-0.2456,-0.1038,0.1167,157.7344
14:17:47:173,0.1675,2.6695,12.1932,48.5914,-0.4374,-0.2101,-0.0874,156.875
14:17:47:193,-0.644,1.4988,13.4022,48.3153,-0.4245,-0.3561,-0.3506,156.7812
14:17:47:214,-1.5586,0.4358,13.541,48.0819,-0.2101,-0.3433,-0.4313,155.7031
14:17:47:235,-1.7883,0.1436,11.8484,47.9475,0.0519,-0.1118,-0.2676,155.5938
14:17:47:253,-0.9003,0.9817,9.8686,47.6393,0.1576,0.0959,-0.0043,154.7969
14:17:47:273,0.285,2.0662,9.2148,47.3052,0.0727,0.0757,0.0721,154.6562
14:17:47:293,0.7349,2.4514,9.5883,47.2496,-0.0593,-0.0696,-0.1387,154.6562
14:17:47:314,0.3927,1.9223,10.4456,47.1806,-0.1643,-0.1466,-0.4728,154.6094
14:17:47:334,-0.5865,0.9984,10.6394,47.1992,-0.204,-0.0281,-0.7159,154.6094
14:17:47:353,-1.1898,0.577,9.8495,47.1612,-0.1613,0.1949,-0.7025,154.5469
14:17:47:374,-1.051,0.7205,8.6354,47.1829,-0.077,0.3494,-0.4923,154.5469
14:17:47:394,-0.4693,1.1874,7.7498,46.9962,0.0287,0.3164,-0.2669,154.7969
14:17:47:414,0.1795,1.6926,7.5269,47.1069,0.1613,0.149,-0.1277,154.7969
14:17:47:436,0.6942,2.1141,7.046,47.2243,0.3073,0.0751,-0.077,154.625
14:17:47:454,1.0678,2.6025,6.0188,47.2365,0.3836,0.1637,-0.0849,154.625
14:17:47:473,1.1898,3.1507,5.3438,47.3884,0.3042,0.2957,-0.157,155.1406
14:17:47:494,1.1204,3.5982,5.3195,47.3353,0.1405,0.3305,-0.2816,155.1406
14:17:47:515,1.0774,3.8904,6.4666,47.3029,-0.0098,0.1826,-0.4361,155.9062
14:17:47:536,0.9218,3.8737,8.2573,47.4673,-0.0727,-0.055,-0.6127,155.9844
14:17:47:553,0.3712,3.5456,10.2586,47.5493,-0.0232,-0.2504,-0.7715,155.9062
14:17:47:576,-0.9817,2.4443,11.9225,47.5221,0.2743,-0.135,-0.7294,155.8906
14:17:47:595,-1.0965,2.5714,11.336,47.6553,0.3537,0.1607,-0.4545,156.5312
14:17:47:622,-0.5578,3.2608,10.8763,47.6884,0.3696,0.3134,-0.1521,156.5938
14:17:47:636,0.0072,3.9215,11.1374,47.743,0.4209,0.1588,0.0134,157.9531
14:17:47:653,0.1077,4.113,11.0967,47.9396,0.5766,-0.1527,0.0275,158.0938
14:17:47:675,-0.2154,4.1154,11.2642,48.3171,0.7477,-0.493,-0.011,158.75
14:17:47:694,-0.6176,4.0244,10.8308,48.5376,0.7984,-0.5986,-0.0507,158.8125
14:17:47:715,-0.8139,3.9957,10.7351,48.6788,0.5492,-0.4264,-0.0886,159.0156
14:17:47:736,-1.1874,3.8426,11.9034,48.9631,0.1142,-0.2059,-0.1607,159.0469
14:17:47:754,-1.8721,3.0715,13.0549,48.9792,-0.1521,-0.1313,-0.2621,159.2656
14:17:47:774,-2.7508,2.1452,14.0222,49.2706,-0.1014,-0.2187,-0.284,159.9844
14:17:47:793,-3.524,1.4533,13.352,49.3389,0.2358,-0.19,-0.1338,159.9844
14:17:47:814,-3.7636,1.3693,10.1773,49.4229,0.5663,0.0348,0.1637,161.5469
14:17:47:833,-3.3063,1.8745,7.867,49.5129,0.4911,0.1319,0.4478,161.5469
14:17:47:854,-2.8801,2.15,7.9196,49.383,0.1118,-0.0415,0.565,163.3906
14:17:47:876,-2.4347,1.7237,9.1669,49.5259,-0.2016,-0.3445,0.5827,163.3906
14:17:47:895,-1.896,1.3621,10.0217,49.5489,-0.2987,-0.551,0.6322,164
14:17:47:915,-1.319,1.3167,9.9212,49.6847,-0.2199,-0.5412,0.73,164.0625
14:17:47:936,-0.6009,1.5275,8.7458,49.554,-0.0819,-0.3213,0.8417,164.125
14:17:47:954,0.1531,1.8745,6.9188,49.5394,-0.0165,-0.0147,0.9071,164.125
14:17:47:974,0.7516,2.2624,5.7697,49.4558,-0.0904,0.1704,0.8613,164.5781
14:17:47:995,1.0343,2.4275,5.5256,49.1533,-0.1997,0.1209,0.6958,164.5781
14:17:48:014,0.9649,2.217,5.9734,49.034,-0.2413,-0.0843,0.4868,165.0156
14:17:48:038,0.7636,1.8936,6.5192,48.7934,-0.2083,-0.2529,0.3384,165.0625
14:17:48:054,0.62,1.7859,6.6197,48.3823,-0.1613,-0.2895,0.2871,165.6562
14:17:48:077,1.2568,2.7269,7.9579,48.2081,-0.2828,-0.2162,0.2749,165.7031
14:17:48:096,1.5467,3.3398,9.2459,47.7987,-0.3189,-0.1649,0.1704,165.7812
14:17:48:122,1.7142,3.7923,10.0744,47.4418,-0.2566,-0.0336,-0.0018,165.7969
14:17:48:138,1.4246,4.0053,9.8327,47.1181,-0.171,0.2278,-0.2016,164.8125
14:17:48:154,0.9194,4.0029,9.3227,46.7484,-0.1936,0.5204,-0.3671,164.7188
14:17:48:174,0.5818,4.034,9.5596,46.4865,-0.3189,0.6787,-0.471,163.6562
14:17:48:193,0.2512,3.8904,10.2203,46.347,-0.4111,0.664,-0.5577,163.5469
14:17:48:214,-0.4167,3.2776,10.9313,45.9298,-0.4245,0.5235,-0.6377,162.1406
14:17:48:237,-1.2138,2.3677,12.0302,45.3844,-0.3964,0.2999,-0.6182,162
14:17:48:253,-1.1013,2.2648,14.5059,45.1784,-0.2431,0.014,-0.4123,160.2031
14:17:48:275,-0.4597,2.9088,14.4054,44.976,0.1576,-0.0006,-0.11,158.6719
14:17:48:294,-0.0861,3.3159,11.8866,44.8616,0.3806,0.2407,-0.0098,158.6719
14:17:48:314,-0.5865,2.7437,11.3097,44.8969,0.0831,0.4056,-0.1478,158.0938
14:17:48:339,-1.7429,1.4366,12.8611,44.7641,-0.2694,0.3622,-0.2382,158.0938
14:17:48:354,-2.2935,0.4262,14.5442,44.4682,-0.1356,0.0116,-0.0794,157.5469
14:17:48:375,-1.4964,0.4836,13.6917,44.6808,0.4074,-0.292,0.2871,157.5469
14:17:48:395,0.2393,1.7405,11.0393,44.9377,0.8094,-0.3354,0.6047,157.5469
14:17:48:414,1.8625,2.8968,9.0568,45.202,0.7623,-0.2944,0.5736,157.3906
14:17:48:440,2.2457,2.9016,8.7266,45.469,0.3751,-0.2352,0.1729,157.3906
14:17:48:453,1.5514,1.8505,9.7319,45.6451,-0.0489,-0.2004,-0.3146,157.8438
14:17:48:475,0.4286,0.6679,10.7136,45.6379,-0.2101,-0.1906,-0.6182,158.6562
14:17:48:494,-0.2345,0.2512,10.072,45.8338,-0.0599,-0.0696,-0.5968,158.6562
14:17:48:514,-0.0311,0.6153,7.9627,46.252,0.1368,0.2169,-0.3671,159.8281
14:17:48:539,0.711,1.5969,5.7123,46.3567,0.179,0.4661,-0.1484,159.8281
14:17:48:554,1.331,2.4251,4.8506,46.5819,0.0709,0.4545,-0.1387,160.3438
14:17:48:576,1.2688,2.6456,5.2238,46.7021,-0.0501,0.2847,-0.3183,160.4062
14:17:48:595,0.8091,2.624,5.5424,46.5789,-0.0819,0.1552,-0.496,160.4844
14:17:48:616,0.3449,2.8274,6.1983,46.562,-0.1552,0.0177,-0.6066,160.4844
14:17:48:639,0.1723,3.0547,7.611,46.6839,-0.2541,-0.0397,-0.6066,160.7188
14:17:48:655,-0.1531,3.2297,9.1525,46.8012,-0.2517,-0.0593,-0.5815,160.7344
14:17:48:675,-0.5435,3.213,9.9906,46.534,-0.1002,-0.0079,-0.518,160.0469
14:17:48:693,-0.7636,3.1675,10.1127,46.522,0.1002,0.0928,-0.4062,159.9844
14:17:48:714,-0.9338,3.2154,10.0576,46.4493,0.2254,0.1863,-0.2688,159.3906
14:17:48:733,-1.1324,3.3494,10.273,46.4025,0.2474,0.259,-0.1222,159.3438
14:17:48:754,-1.2377,3.5336,10.6777,46.4664,0.2468,0.248,0.0305,160.3281
14:17:48:827,-1.2664,3.4618,11.1494,46.4759,0.2871,0.1228,0.171,161.3594
14:17:48:827,-1.3167,3.2847,11.6976,46.4405,0.3494,-0.0415,0.3164,161.3594
14:17:48:828,-1.3645,3.3876,11.7335,46.2242,0.4166,-0.1356,0.4807,161.6094
14:17:48:835,-0.9577,3.7899,11.1661,46.3316,0.3891,-0.1271,0.6273,161.6094
14:17:48:852,-0.486,4.1991,11.3982,46.4033,0.1454,-0.1173,0.6408,162.3906
14:17:48:874,-0.5794,3.8043,12.4612,46.2003,-0.1857,-0.1558,0.4881,162.3906
14:17:48:893,-1.0654,2.8083,13.917,45.9092,-0.3665,-0.2144,0.3183,162.3906
14:17:48:914,-1.6831,2.0542,14.3336,45.7833,-0.2089,-0.1442,0.2724,163.6406
14:17:48:935,-2.0997,1.8817,11.482,45.6772,0.1564,0.234,0.3683,163.6562
14:17:48:953,-1.9367,2.3055,7.8239,45.5849,0.2559,0.587,0.5162,164.9219
14:17:48:973,-1.5179,2.9207,6.4594,45.413,-0.0147,0.5003,0.5632,165.9375
14:17:48:994,-0.9266,3.0981,7.7378,45.2079,-0.317,-0.0244,0.474,165.9375
14:17:49:014,-0.4645,2.9399,9.6147,44.7228,-0.3445,-0.6646,0.303,166.3281
14:17:49:036,-0.1484,2.5259,10.2299,44.5174,-0.1845,-0.9712,0.1185,166.3281
14:17:49:053,0.0885,2.2146,9.6434,44.6492,-0.055,-0.843,-0.0128,166.1094
14:17:49:074,0.3879,2.1523,8.3411,44.8101,-0.025,-0.4563,-0.077,166.0938
14:17:49:093,0.6751,2.2122,6.8782,44.8229,-0.0959,-0.0232,-0.1197,165.4062
14:17:49:114,0.7923,2.406,6.3084,44.6258,-0.2504,0.2278,-0.1997,165.3438
14:17:49:137,0.5674,2.4108,6.6485,44.4097,-0.3818,0.2303,-0.347,164.1719
14:17:49:153,-0.7875,1.5634,7.7665,44.3763,-0.295,-0.1319,-0.5088,164.0625
14:17:49:174,-0.9649,1.6926,8.2669,44.6539,-0.179,-0.2364,-0.328,163.2812
14:17:49:193,-0.5052,2.2576,8.621,44.7477,-0.0898,-0.2248,-0.0892,163.2031
14:17:49:213,0.0431,2.9495,8.9683,44.4996,-0.0525,-0.1564,0.0293,162.5312
14:17:49:235,0.3616,3.3829,9.3323,43.918,-0.0373,-0.0806,-0.0092,162.4688
14:17:49:253,0.2489,3.39,9.4352,43.7729,-0.0098,-0,-0.1295,161.1875
14:17:49:273,0.0431,3.3637,9.8133,43.915,0.0324,0.0507,-0.2071,160.3594
14:17:49:293,-0.0574,3.6341,9.8157,44.283,0.1093,0.1283,-0.2065,160.3594
14:17:49:313,0.1627,3.9981,9.6793,44.3131,0.1478,0.1857,-0.2095,160.5469
14:17:49:336,0.2369,4.0771,9.6314,44.239,0.0696,0.1655,-0.3091,160.5469
14:17:49:353,-0.1412,3.6221,10.1845,44.1285,-0.1118,0.0513,-0.4832,160.8438
14:17:49:373,-0.7086,2.7173,11.4293,44.2656,-0.2682,-0.1185,-0.6017,160.8594
14:17:49:393,-1.3167,1.774,12.4253,44.7948,-0.2627,-0.273,-0.5718,160.875
14:17:49:413,-1.4004,1.3358,12.3057,44.9392,-0.1203,-0.3305,-0.358,161.3281
14:17:49:437,-0.4717,1.774,11.2427,44.8936,-0.0519,-0.2822,-0.0611,161.3281
14:17:49:453,0.6368,2.6121,11.3767,44.8657,-0.2181,-0.2865,0.0519,162.3906
14:17:49:473,0.941,2.6145,13.1916,44.8776,-0.4392,-0.347,-0.1484,162.9375
14:17:49:494,0.0383,1.5945,14.3575,45.2228,-0.419,-0.2663,-0.4795,162.9375
14:17:49:514,-1.3908,0.2177,13.3878,45.7296,-0.1533,0.0195,-0.6383,162.9531
14:17:49:537,-2.193,-0.352,10.7662,45.9252,0.135,0.3402,-0.4526,162.9531
14:17:49:553,-1.64,0.0694,8.6521,46.1921,0.2382,0.3683,-0.0556,163.2812
14:17:49:574,-0.4478,0.9745,8.0369,46.4283,0.1515,0.0391,0.223,163.3125
14:17:49:595,0.577,1.4964,9.3849,46.7444,-0.0519,-0.3512,0.2266,163.6875
14:17:49:614,0.7564,1.4246,10.893,47.08,-0.1912,-0.4251,0.0507,163.7188
14:17:49:637,0.285,1.1539,10.4695,47.4316,-0.1356,-0.0922,-0.0928,164.4688
14:17:49:654,-0.1101,1.2832,8.2358,47.5797,-0.0263,0.4184,-0.0794,164.5469
14:17:49:673,0.2225,2.2026,5.2908,47.5139,-0.1655,0.6762,0.0367,165.75
14:17:49:693,0.3305,2.3533,6.2988,47.7272,-0.2511,0.325,-0.0183,165.875
14:17:49:713,0.4765,2.4873,7.4695,47.5415,-0.1607,-0.0024,-0.0599,166.3906
14:17:49:736,0.5602,2.715,7.7952,47.5943,0.0134,-0.0812,-0.077,166.4375
14:17:49:753,0.6703,3.1005,7.5461,47.84,0.0904,0.0715,-0.0959,166.6094
14:17:49:773,0.6679,3.3517,7.3379,47.727,0.0269,0.2847,-0.1668,167.7344
14:17:49:794,0.201,3.2106,7.6445,48.0804,-0.0935,0.3744,-0.2914,167.7344
14:17:49:814,-0.3951,2.8992,8.6689,48.1994,-0.146,0.281,-0.3537,168.3281
14:17:49:836,-0.8644,2.6336,9.8109,48.5903,-0.0751,0.124,-0.2969,168.3281
14:17:49:854,-1.197,2.5666,10.4049,48.5549,0.0678,0.0684,-0.1503,168.3281
14:17:49:873,-1.3262,2.7556,10.3639,49.0125,0.1674,0.1527,0.0476,167.8906
14:17:49:894,-1.0247,3.0691,10.328,49.3952,0.1771,0.2187,0.248,167.8906
14:17:49:913,-0.4167,3.4953,11.2522,49.4557,0.1564,0.1045,0.3806,168
14:17:49:937,-0.1292,3.7947,12.1669,49.7299,0.2138,-0.066,0.3799,168
14:17:49:953,-0.3425,3.7493,12.0808,49.9858,0.3036,-0.1026,0.2724,167.875
14:17:49:973,-0.5315,3.5743,11.2187,50.3903,0.2187,0.0538,0.1558,167.6406
14:17:49:994,-0.4095,3.3589,11.5899,50.5356,-0.1112,0.1539,0.0312,167.6406
14:17:50:013,-0.5411,2.7508,13.5721,51.0915,-0.4099,0.0055,-0.1515,167.7969
14:17:50:033,-0.996,1.6137,15.2408,51.2422,-0.3787,-0.2321,-0.3176,167.7969
14:17:50:053,-2.0423,0.4789,14.9201,51.5171,-0.0635,-0.1942,-0.3573,168.0312
14:17:50:074,-2.5953,0.0814,11.7215,52.0036,0.2853,0.2132,-0.1558,168.0312
14:17:50:094,-2.1691,0.7086,8.0034,52.7582,0.3476,0.5455,0.1607,168.5625
14:17:50:113,-1.7381,1.6543,6.5623,53.0443,0.0812,0.3726,0.303,168.6094
14:17:50:137,-1.2951,1.8601,8.2071,53.1104,-0.2388,-0.1979,0.2419,169.0312
14:17:50:154,-1.0989,1.4318,10.0217,53.4955,-0.2859,-0.7184,0.1313,169.0781
14:17:50:175,-0.9745,0.9553,9.373,53.7558,0.0373,-0.7672,0.2187,168.75
14:17:50:194,-0.4358,1.1946,8.3219,54.0173,0.1454,-0.6261,0.3903,168.7344
14:17:50:213,0.2441,1.5658,7.654,54.2722,0.1442,-0.4587,0.5149,168
14:17:50:234,0.711,1.896,7.2613,54.4074,0.0837,-0.2572,0.5339,167.9375
14:17:50:253,0.8163,2.083,6.8471,54.3237,0.0666,-0.1472,0.4813,167.5625
14:17:50:273,0.7469,2.3246,6.591,54.374,0.1081,-0.2138,0.419,167.5625
14:17:50:293,0.9314,2.6647,6.7394,54.7991,0.1503,-0.3818,0.3604,167.5625
14:17:50:314,1.1109,2.983,7.0531,55.1554,0.102,-0.471,0.2382,167.5625
14:17:50:332,1.1827,3.1531,7.8885,55.3501,-0.0373,-0.4893,0.036,168.25
14:17:50:354,1.1539,2.971,9.5142,55.7612,-0.1704,-0.4801,-0.2175,168.3281
14:17:50:373,0.7421,2.5762,10.8045,55.9574,-0.1723,-0.3494,-0.452,168.2656
14:17:50:393,0.0957,2.2337,10.8428,56.173,-0.0403,-0.0874,-0.5846,168.2656
14:17:50:414,-0.3879,2.205,10.1175,56.5085,0.0825,0.1869,-0.5919,167.625
14:17:50:434,-0.376,2.3438,9.3012,57.0984,0.0849,0.3347,-0.5522,167.6094
14:17:50:453,-0.2249,2.3653,9.4519,57.4479,-0.047,0.2456,-0.5785,167.5781
14:17:50:473,-0.3664,1.8984,10.7806,57.8075,-0.2034,0.0037,-0.6774,167.1719
14:17:50:493,-0.6392,1.0152,12.0541,58.3834,-0.2138,-0.226,-0.7263,167.1719
14:17:50:513,-0.4765,0.577,11.7479,58.9612,-0.1222,-0.259,-0.6121,166.1562
14:17:50:533,0.1077,1.1204,10.7471,59.4137,-0.1979,-0.135,-0.4343,166.1562
14:17:50:554,0.7181,1.5395,11.5349,59.8706,-0.554,-0.0709,-0.4404,165.25
14:17:50:573,0.5219,0.7971,14.1969,60.3304,-0.9059,-0.1026,-0.6848,165.25
14:17:50:594,-0.6942,-0.7158,16.4402,60.3618,-0.89,-0.0941,-0.9059,164.7969
14:17:50:613,-1.9582,-1.9104,16.0693,60.5036,-0.4923,0.1216,-0.7984,164.75
14:17:50:633,-1.7572,-2.0686,13.608,60.6191,-0.0031,0.3415,-0.3176,165.0781
14:17:50:654,-0.0383,-0.8835,11.2642,60.4568,0.3195,0.3048,0.2553,165.1094
14:17:50:675,1.7142,0.8091,10.1821,60.3206,0.4203,0.0568,0.5296,166.2031
14:17:50:694,2.2696,1.7501,9.4807,60.5044,0.3708,-0.0617,0.1069,166.3125
14:17:50:714,1.963,1.8888,8.0895,60.486,0.3158,0.2706,-0.102,167.375
14:17:50:734,1.6065,2.126,6.6365,60.4959,0.1888,0.5577,-0.2559,168.6875
14:17:50:755,1.0128,2.1858,6.3299,60.6583,0.0305,0.5724,-0.4123,168.6875
14:17:50:774,0.2584,1.8553,6.9188,60.6772,-0.0202,0.4001,-0.5186,170.2188
14:17:50:793,-0.2608,1.7142,7.1919,60.6503,0.0812,0.2596,-0.4685,170.2188
14:17:50:813,-0.2922,2.15,6.5934,60.7898,0.2223,0.2553,-0.2957,170.3438
14:17:50:874,0.0455,2.7126,6.1313,60.8915,0.2382,0.2926,-0.1649,171.2344
14:17:50:874,0.2154,3.1364,6.4594,60.859,0.1075,0.292,-0.1582,171.3125
14:17:50:875,0.2106,3.3087,7.5509,61.0554,0.0098,0.1912,-0.2223,172.9844
14:17:50:893,0.2225,3.3781,8.6234,61.1509,0.0764,0.0312,-0.2877,173
14:17:50:913,0.285,3.3565,8.8941,61.3453,0.2199,-0.0458,-0.3372,174.125
14:17:50:940,0.256,3.2776,9.0592,61.742,0.2584,-0.0171,-0.3903,174.1406
14:17:50:954,0.0311,3.0643,9.5883,62.1167,0.1888,0.0751,-0.4374,173.2812
14:17:50:973,-0.2345,2.8346,10.0122,62.4529,0.1435,0.1668,-0.4331,172.8125
14:17:50:993,-0.4262,2.7221,10.0935,62.6335,0.1692,0.234,-0.3506,172.8125
14:17:51:014,-0.4214,2.9327,9.8423,62.8963,0.215,0.2767,-0.2126,173.1094
14:17:51:034,-0.2536,3.3757,9.6984,62.9925,0.2303,0.2767,-0.0794,173.1094
14:17:51:054,0.0431,3.7038,9.6912,63.2145,0.2223,0.2193,-0.0031,173.9688
14:17:51:076,0.1579,3.8043,10.4336,63.6163,0.201,0.1008,-0.0012,173.9688
14:17:51:095,-0.2874,3.6197,10.9484,63.7594,0.2101,0.0428,-0.0373,174.7031
14:17:51:114,-0.5937,3.4044,10.4839,63.8662,0.2095,0.0788,-0.0391,174.7656
14:17:51:134,-0.699,2.9662,10.8452,63.8931,0.0385,0.0501,-0.0678,175.0469
14:17:51:156,-0.9529,2.2289,12.763,63.8864,-0.2199,-0.1179,-0.1686,175.0781
14:17:51:175,-2.7102,0.1053,15.813,63.9272,-0.1307,-0.1894,-0.3011,175.5469
14:17:51:195,-3.3206,-0.2898,12.5426,63.9335,0.2046,0.2614,-0.0788,175.5938
14:17:51:215,-2.5953,0.5076,9.0568,63.9451,0.2327,0.5467,0.2889,176.375
14:17:51:235,-1.6974,1.5969,8.353,63.4956,-0.0244,0.2266,0.4557,176.4531
14:17:51:257,-0.9577,1.8697,10.4073,63.3843,-0.2431,-0.4135,0.3714,177.3281
14:17:51:276,-0.6799,1.5514,11.5947,62.9655,-0.1985,-0.7825,0.2052,177.4219
14:17:51:293,-0.7229,1.264,10.9217,62.6973,-0.066,-0.6744,0.0971,177.9531
14:17:51:314,-0.6918,1.2855,9.3347,62.7447,-0.0049,-0.3439,0.0928,178
14:17:51:334,-0.2752,1.6328,7.9149,62.3877,-0.0159,-0.0617,0.1478,178.0625
14:17:51:355,0.3305,2.071,6.749,61.8521,-0.0605,0.1106,0.1631,178.0625
14:17:51:375,0.5746,2.3127,6.2557,61.3874,-0.1258,0.1344,0.0867,178.1406
14:17:51:393,0.5076,2.3653,6.2079,61.0587,-0.1246,0.0067,-0.0195,178.1406
14:17:51:414,0.4334,2.3725,6.2486,60.618,-0.0641,-0.168,-0.0904,178.2656
14:17:51:433,0.443,2.4873,6.4424,60.5285,-0.0348,-0.2957,-0.1136,178.2656
14:17:51:458,0.7732,2.904,7.2039,60.525,-0.047,-0.383,-0.1258,178.75
14:17:51:476,1.0534,3.3374,7.7617,60.1279,-0.0525,-0.4025,-0.2169,179.1719
14:17:51:497,0.9386,3.4546,8.0584,60.1665,-0.08,-0.3598,-0.4184,179.1719
14:17:51:516,0.4597,3.1292,8.6115,60.3724,-0.1484,-0.3042,-0.6432,178.25
14:17:51:541,-0.1986,2.6958,9.2845,60.3286,-0.182,-0.2529,-0.7794,178.25
14:17:51:557,-0.7445,2.5017,9.7223,60.3776,-0.1319,-0.2052,-0.7684,177.7656
14:17:51:575,-0.9338,2.6671,9.7152,60.4517,-0.0409,-0.1319,-0.6493,177.7656
14:17:51:595,-0.7325,3.1627,9.5213,60.3506,-0.0134,-0.0489,-0.5223,177.7188
14:17:51:616,-0.5004,3.4857,9.7869,60.2805,-0.0983,-0.0373,-0.4997,177.7188
14:17:51:634,-0.5698,3.2225,10.9819,60.2728,-0.2193,-0.1533,-0.5992,177.3906
14:17:51:654,-1.2042,2.138,12.5952,60.1222,-0.2657,-0.3237,-0.73,177.3594
14:17:51:676,-1.8027,0.3879,12.8204,60.1882,-0.1716,-0.4056,-0.7141,177.25
14:17:51:698,-0.5004,1.3597,10.9098,60.2809,0.0104,-0.2407,-0.4306,177.2344
14:17:51:716,0.778,2.3725,10.759,60.2021,0.0299,0.0134,-0.0837,177.5
14:17:51:735,1.2066,2.0542,12.6793,59.8141,-0.1979,0.0238,-0.0318,177.5312
14:17:51:754,0.5626,0.6655,15.0541,59.6312,-0.4502,-0.4655,-0.7092,177.9844
14:17:51:776,-0.5435,-0.8883,15.6431,59.5264,-0.1692,-0.4966,-0.8723,178.0156
14:17:51:794,-0.7684,-1.5754,14.1897,59.4539,0.215,-0.3079,-0.6884,179.1562
14:17:51:816,0.2058,-1.2353,11.6833,59.4358,0.46,-0.077,-0.336,179.2656
14:17:51:833,1.4004,-0.3233,9.8734,59.1525,0.4569,0.0336,-0.0947,180.8594
14:17:51:854,2.1882,0.5698,9.2339,59.1558,0.3262,0.0257,-0.058,181.0156
14:17:51:873,2.2289,1.0869,8.6258,59.3662,0.2559,0.0617,-0.1704,182.3281
14:17:51:893,1.9319,1.3789,7.29,59.8604,0.2639,0.2187,-0.3018,182.3438
14:17:51:914,1.6496,1.5969,5.7266,60.0138,0.2217,0.4117,-0.4056,183.5469
14:17:51:934,1.1515,1.6448,4.7258,60.2194,0.0806,0.482,-0.518,183.5469
14:17:51:959,0.443,1.506,5.097,60.5637,-0.091,0.3439,-0.6206,185.1875
14:17:51:976,0.0096,1.3597,6.3347,60.8025,-0.1472,0.1045,-0.6231,185.7969
14:17:51:995,0.1101,1.7118,6.9906,61.0983,-0.0531,-0.0195,-0.5046,185.7969
14:17:52:015,0.5506,2.4084,6.8853,61.0592,0.0312,0.0299,-0.3958,186.1719
14:17:52:035,0.7253,3.0069,6.9763,61.0032,-0.0183,0.1411,-0.4209,186.1719
14:17:52:053,0.4669,3.3446,7.7163,61.0311,-0.1399,0.2144,-0.5394,187.9688
14:17:52:075,-0.0694,3.335,8.8056,61.263,-0.2046,0.2511,-0.6499,187.9688
14:17:52:094,-0.7564,3.1196,9.8327,61.3218,-0.1857,0.2926,-0.6738,189.2031
14:17:52:115,-1.4509,2.9638,10.4934,61.193,-0.1118,0.3787,-0.5791,189.2031
14:17:52:134,-1.8434,3.0045,10.8739,61.2178,-0.0122,0.4618,-0.3842,189.4219
14:17:52:153,-1.8123,3.2177,10.8715,61.2087,0.0977,0.4948,-0.1515,189.4375
14:17:52:176,-1.3813,3.5862,10.7638,61.4954,0.234,0.2932,0.1796,189.9062
14:17:52:195,-0.8429,3.8091,11.123,61.5961,0.2902,0.1417,0.1906,190.7969
14:17:52:217,-0.6894,3.7325,11.2714,61.6457,0.3097,0.1087,0.1497,190.7969
14:17:52:235,-0.9218,3.6918,11.0225,61.6334,0.2144,0.0953,0.0715,190.875
14:17:52:254,-0.8859,3.347,11.767,61.5989,0.0018,-0.0293,-0.044,192.0469
14:17:52:275,-0.9936,2.6049,13.905,61.6253,-0.2175,-0.2718,-0.1991,192.1562
14:17:52:294,-1.8194,1.5227,15.9446,61.7015,-0.2278,-0.4117,-0.3329,193.0625
14:17:52:315,-2.7245,0.5315,15.4923,61.6525,0.0336,-0.1716,-0.2944,193.1562
14:17:52:333,-2.9423,0.2201,12.1597,61.8309,0.3256,0.3433,-0.0434,194.0469
14:17:52:358,-2.4586,0.7588,8.8032,61.8556,0.3573,0.6542,0.2614,194.1406
14:17:52:375,-1.9199,1.319,7.503,61.8554,0.2144,0.3763,0.416,195.3594
14:17:52:395,-1.4868,1.3741,8.633,61.909,0.1142,-0.3011,0.4166,195.4844
14:17:52:415,-1.0223,1.1468,9.7654,61.797,0.1307,-0.7965,0.3732,196.4219
14:17:52:434,-0.687,1.051,10.0911,61.9033,0.1344,-0.7959,0.339,196.4375
14:17:52:460,-0.4884,1.2042,9.4902,61.9548,0.0764,-0.4068,0.3195,196.4688
14:17:52:474,-0.3664,1.4414,8.1278,61.9723,-0.0214,0.0751,0.2773,196.0781
14:17:52:496,-0.3784,1.5514,7.2374,61.6968,-0.1234,0.314,0.1888,196.0781
14:17:52:515,-0.7349,1.4725,7.1273,61.5697,-0.135,0.1973,0.0874,195.8906
14:17:52:535,-1.0223,1.2305,7.5894,61.3845,-0.0275,-0.1161,0.0605,195.8906
14:17:52:553,-1.0271,1.1037,7.9196,61.228,0.1069,-0.3409,0.1277,196.1562
14:17:52:576,-0.5602,1.4103,8.0895,61.2083,0.1716,-0.3555,0.2498,196.1562
14:17:52:596,0.122,1.9582,7.946,61.0944,0.1686,-0.226,0.3158,196.8906
14:17:52:615,0.5961,2.4203,7.6493,60.9193,0.1429,-0.1051,0.2627,196.8906
14:17:52:636,0.821,2.7413,7.6205,61.0657,0.1264,-0.1081,0.1216,196.6562
14:17:52:653,0.8477,2.7915,7.9986,60.8843,0.1271,-0.2022,-0.0507,196.6406
14:17:52:677,0.5746,2.8585,9.0855,61.1113,0.1258,-0.2669,-0.2016,195.8438
14:17:52:697,0.1627,2.7365,9.0281,61.0953,0.0831,-0.1613,-0.4135,195.7656
14:17:52:718,-0.2898,2.5041,9.4543,61.198,-0.033,-0.1155,-0.4606,195.2812
14:17:52:735,-0.5674,2.3749,10.3687,61.4845,-0.1527,-0.1301,-0.441,195.2344
14:17:52:753,-0.833,2.1428,10.9484,61.5498,-0.1973,-0.1765,-0.3854,194.7031
14:17:52:776,-0.9123,1.9128,11.4485,61.6151,-0.2162,-0.2566,-0.2737,194.6406
14:17:52:795,-0.376,1.992,11.7526,61.4652,-0.1961,-0.3592,-0.0996,194.2656
14:17:52:815,0.6631,2.4132,11.0178,61.925,-0.182,-0.3958,0.0287,194.2188
14:17:52:833,1.1157,2.5208,11.1805,61.6172,-0.3433,-0.4203,-0.0696,194.1094
14:17:52:857,0.644,1.6711,12.2411,61.7341,-0.5882,-0.3885,-0.3433,194.0938
14:17:52:875,-0.3808,0.2465,13.3352,61.5661,-0.7416,-0.2474,-0.5601,193.6562
14:17:52:958,-1.319,-0.7134,13.4836,61.3234,-0.7049,-0.0049,-0.5259,193.6094
14:17:52:958,-1.3956,-0.7756,12.3703,61.3686,-0.4991,0.2266,-0.2285,193.25
14:17:52:959,-0.1029,0.2584,10.8308,60.9336,-0.2596,0.2761,0.1631,193.2344
14:17:52:959,1.6496,1.6711,9.7128,60.6715,-0.0916,0.1026,0.3494,193.625
14:17:52:973,2.8537,2.6599,9.4998,60.0772,-0.0525,-0.1588,0.1747,194.5156
14:17:52:995,3.0452,2.6695,10.1868,59.9688,-0.1466,-0.2932,-0.2883,194.5156
14:17:53:016,1.8817,1.6519,10.8141,59.8079,-0.3018,-0.1106,-0.8381,195.5156
14:17:53:041,0.2608,0.4789,10.261,59.9621,-0.394,0.3305,-1.1795,195.5156
14:17:53:054,-0.9529,-0.0407,8.7888,59.9364,-0.3799,0.7495,-1.1783,196.2656
14:17:53:074,-1.4222,0.1101,7.4551,59.8279,-0.3036,0.934,-0.9297,196.2656
14:17:53:094,-1.0845,0.766,6.6413,60.2851,-0.2248,0.926,-0.609,196.4219
14:17:53:115,-0.4143,1.6352,6.3275,60.6351,-0.1564,0.8069,-0.3726,196.4219
14:17:53:136,0.1244,2.2911,6.4017,61.0391,-0.0916,0.6182,-0.3097,196.8906
14:17:53:159,0.1914,2.5905,6.5551,61.4241,-0.0348,0.4221,-0.3916,196.8906
14:17:53:175,-0.0407,2.6169,7.0149,61.8116,-0.0018,0.234,-0.5241,197.8906
14:17:53:195,-0.7134,2.272,7.9196,62.1178,0.0232,0.0611,-0.6524,197.9844
14:17:53:215,-1.6376,1.8099,8.863,62.5822,0.091,-0.0794,-0.6799,197.9375
14:17:53:235,-1.5108,2.1691,9.361,62.8481,0.0684,0.0464,-0.3769,197.9375
14:17:53:256,-1.4028,2.5041,9.7415,62.9385,0.0031,0.1527,-0.2443,197.4062
14:17:53:274,-1.6854,2.5041,9.9858,63.3681,-0.0116,0.149,-0.1625,197.3594
14:17:53:294,-2.0327,2.3462,10.5963,63.8265,-0.014,-0.0238,-0.0721,198.4688
14:17:53:314,-1.8649,2.2481,12.0613,64.0479,0.0092,-0.2975,0.0501,198.5781
14:17:53:333,-1.9152,1.8027,12.9855,64.1852,0.0971,-0.4007,0.146,200.7656
14:17:53:353,-1.841,1.8218,13.4764,64.238,0.1588,-0.2254,0.2792,200.9844
14:17:53:375,-1.0965,2.3844,12.5306,64.0357,0.0916,0.1002,0.3769,202.3281
14:17:53:394,-1.2449,2.5089,13.5912,64.1632,-0.1411,0.0458,0.1692,202.4688
14:17:53:415,-1.7046,1.0056,15.3748,64.1998,-0.2743,-0.1759,-0.1515,203.0781
14:17:53:433,-3.0909,-1.2808,16.5697,64.0066,-0.0941,-0.2651,-0.2932,203.0781
14:17:53:454,-3.7971,-2.3438,14.5705,63.7502,0.3109,0.0983,0.0165,204.0312
14:17:53:475,-3.201,-1.7213,11.0249,63.647,0.7098,0.5119,0.62,205.5156
14:17:53:495,-1.494,-0.1531,7.4049,63.462,0.7917,0.6884,1.0824,205.5156
14:17:53:515,0.0335,1.2664,6.725,63.2523,0.4844,0.3115,1.0775,206.5781
14:17:53:534,0.4262,1.2736,8.7625,63.3342,0.1216,-0.303,0.6878,206.5781
14:17:53:552,-0.0335,0.3927,10.1964,63.1244,-0.0171,-0.6225,0.2767,207.0156
14:17:53:576,-0.7636,-0.1986,10.0146,63.0262,0.0067,-0.5009,0.0922,207.0156
14:17:53:595,-0.9984,-0.2297,8.863,62.9258,0.0538,-0.1759,0.1472,207.0625
14:17:53:616,-0.7493,0.1316,7.424,62.6692,0.0458,0.1338,0.2828,207.0625
14:17:53:635,-0.4813,0.553,6.2509,62.4,-0.0177,0.2859,0.3671,206.6719
14:17:53:659,-0.2584,0.9625,5.7841,62.0285,-0.0715,0.2016,0.3867,206.6719
14:17:53:675,-0.0311,1.2688,5.8822,61.9113,-0.0715,-0.0452,0.3604,206.125
14:17:53:695,0.2584,1.5419,6.2892,61.7222,-0.0495,-0.2871,0.3115,206.0625
14:17:53:718,0.6535,2.1858,7.4695,61.4981,-0.0586,-0.4062,0.2388,206.4688
14:17:53:736,0.6631,2.473,7.8718,61.0087,-0.1466,-0.2584,-0.0061,206.5156
14:17:53:755,0.6583,2.7078,8.6186,60.7402,-0.1961,-0.1857,-0.1692,205.9844
14:17:53:777,0.2345,2.7341,9.1884,60.5529,-0.1912,-0.1545,-0.3598,205.9375
14:17:53:795,-0.4884,2.3366,9.5859,60.2797,-0.1423,-0.1552,-0.5149,203.8906
14:17:53:815,-1.1396,1.9056,9.8806,60.1625,-0.0715,-0.1655,-0.5455,203.6875
14:17:53:833,-1.3645,1.9104,9.6482,59.9489,-0.0006,-0.1478,-0.441,202.8125
14:17:53:859,-1.1492,2.2409,9.5166,59.3841,-0.0257,-0.2187,-0.3176,202.7188
14:17:53:874,-0.8139,2.1045,10.4958,59.0728,-0.1906,-0.3867,-0.2975,202.5469
14:17:53:894,-0.8234,1.3645,12.1095,58.9775,-0.3696,-0.5003,-0.3354,202.5312
14:17:53:915,-0.8668,0.6966,13.2658,58.6154,-0.4209,-0.4704,-0.2639,201.8438
14:17:53:934,-0.3951,0.5865,13.3113,58.3765,-0.3482,-0.3274,-0.0776,201.7812
14:17:53:959,0.4286,0.8306,12.454,58.0171,-0.2792,-0.1594,0.0678,200.9219
14:17:53:974,1.1563,1.1659,12.0903,57.7574,-0.3476,-0.0654,0.0342,200.375
14:17:53:993,1.4438,0.9721,12.8157,57.4555,-0.4923,-0.0635,-0.2016,200.375
14:17:54:015,1.0726,0.0694,13.7085,57.103,-0.5754,-0.0501,-0.5156,200.2656
14:17:54:034,0.5818,-0.7756,14.2591,56.8338,-0.5192,-0.0134,-0.7037,200.2656
14:17:54:053,0.3425,-1.3214,14.2711,56.5492,-0.314,0.0195,-0.7019,200.8281
14:17:54:075,0.8477,-1.331,13.3783,56.3727,0.0128,0.0208,-0.5546,200.8281
14:17:54:095,1.8864,-0.8091,11.8029,56.1068,0.3091,0.025,-0.3964,202
14:17:54:115,2.5232,-0.1747,10.151,55.8686,0.438,0.0409,-0.3958,202
14:17:54:136,2.4323,0.1125,9.1262,55.8363,0.4142,0.0232,-0.5479,202.8594
14:17:54:159,2.0423,0.0933,8.4033,55.8118,0.3445,0.0403,-0.7006,202.8594
14:17:54:177,1.5849,0.2321,7.4456,56.2353,0.2865,0.1582,-0.7593,203.5156
14:17:54:195,1.3669,0.711,6.3706,56.5427,0.2217,0.306,-0.7422,203.5781
14:17:54:218,1.1013,1.6735,5.8247,56.957,0.0513,0.2596,-0.8136,203.8906
14:17:54:235,0.8139,1.9223,6.5695,57.2201,0.0281,0.0935,-0.9303,203.9375
14:17:54:255,0.3233,1.9032,7.3068,57.6199,0.0794,-0.0281,-1.0635,203.7812
14:17:54:277,-0.3664,1.7644,7.6995,58.3459,0.1417,-0.0208,-1.1551,203.7656
14:17:54:295,-0.9123,1.7118,7.812,58.6591,0.1674,0.0825,-1.1417,204.3906
14:17:54:315,-1.1348,1.8745,8.0393,59.1293,0.1631,0.1283,-1.0445,204.4531
14:17:54:333,-1.2688,2.1404,8.7027,59.436,0.1552,0.055,-0.9383,205.7656
14:17:54:354,-1.3238,2.3366,9.4759,59.7698,0.1723,-0.0531,-0.854,205.8906
14:17:54:375,-1.4486,2.3557,10.1079,60.1059,0.171,-0.069,-0.7898,206.875
14:17:54:394,-1.8147,2.2576,10.8858,60.6575,0.1228,0.0116,-0.7171,206.9844
14:17:54:417,-2.3294,2.1165,11.8866,61.0194,0.1026,0.1148,-0.5913,208.0156
14:17:54:433,-2.6671,2.0064,12.0015,61.1778,0.2034,0.2388,-0.383,208.1094
14:17:54:454,-2.624,2.2217,11.3671,61.4365,0.3335,0.3329,-0.1155,209.7656
14:17:54:475,-2.3749,2.691,10.9747,61.5871,0.4068,0.3005,0.1185,211.4219
14:17:54:495,-2.2528,2.9949,11.0417,61.6579,0.4514,0.1484,0.2468,211.4219
14:17:54:516,-2.3151,3.0858,11.2068,61.7959,0.46,0.0202,0.2981,213.3281
14:17:54:533,-2.2146,2.9925,11.1039,61.894,0.3934,0.0049,0.3231,213.3281
14:17:54:553,-2.0638,2.7102,11.633,61.7766,0.2156,0.0263,0.2969,215.7969
14:17:54:575,-2.217,1.9777,12.696,61.8249,0.0153,0.0672,0.2156,215.7969
14:17:54:595,-2.6623,0.8043,13.5553,61.5764,-0.0336,0.0776,0.1698,218.2344
14:17:54:616,-3.2895,-0.268,13.5506,61.5331,0.1326,0.0739,0.2712,218.2344
14:17:54:636,-3.3206,-0.6823,11.7526,61.2876,0.4276,0.1484,0.5773,220.2656
14:17:54:653,-2.2576,-0.0742,9.507,60.88,0.576,0.201,0.9645,220.2656
14:17:54:676,-0.874,0.8764,8.6689,60.1958,0.4771,0.033,1.1667,221.8125
14:17:54:694,0.0909,1.2257,9.3538,59.548,0.2853,-0.3121,1.0806,221.9688
14:17:54:715,0.2776,0.7995,10.6226,58.898,0.1216,-0.5675,0.8295,222.9688
14:17:54:735,0.1244,0.2512,10.8212,58.3022,0.0837,-0.5375,0.6383,223.0781
14:17:54:753,0.1364,0.1771,9.4687,57.8093,0.1576,-0.3115,0.6255,223.1406
14:17:54:776,0.5363,0.7397,7.6325,57.0537,0.1851,-0.0189,0.7373,223.1562
14:17:54:795,1.4246,2.3318,5.892,56.2339,-0.058,0.2327,0.7116,222.7188
14:17:54:813,1.2736,2.5113,6.0954,55.4145,-0.1203,0.0709,0.4832,222.6875
14:17:54:833,0.8429,2.3127,6.536,54.9358,-0.1002,-0.1399,0.2602,222.1406
14:17:54:854,0.4406,2.2193,6.7944,54.4037,-0.0794,-0.2217,0.1564,222.0938
14:17:54:877,0.443,2.4538,7.0962,53.8114,-0.1026,-0.2175,0.16,221.6875
14:17:54:893,0.7205,2.8777,7.6205,53.1138,-0.1393,-0.2358,0.1655,221.6562
14:17:54:915,0.8572,3.1412,8.4918,52.685,-0.1527,-0.2975,0.0935,220.8594
14:17:54:934,0.7636,3.134,9.3802,52.1084,-0.1338,-0.3158,-0.0257,220.7969
14:17:54:956,0.256,2.8346,10.0552,51.6702,-0.1032,-0.2321,-0.1209,218.5938
14:17:55:030,-0.3664,2.6169,10.3953,51.3337,-0.0709,-0.0397,-0.1277,216.6406
14:17:55:031,-0.5746,2.7006,10.2036,50.7947,-0.0348,0.1741,-0.0367,216.6406
14:17:55:031,-0.4095,2.9782,9.8877,50.3747,-0.0244,0.2627,0.0464,215.375
14:17:55:033,-0.3138,3.0885,9.9906,50.1487,-0.0574,0.146,0.044,215.375
14:17:55:053,-0.4478,2.8896,10.7614,49.8295,-0.0892,-0.1319,-0.0165,213.6719
14:17:55:079,-0.7086,2.4323,11.8531,49.2144,-0.0825,-0.4087,-0.0562,213.6719
14:17:55:094,-0.6153,2.0758,12.2195,48.7701,-0.0483,-0.4881,-0.0098,212.2969
14:17:55:115,0.0909,2.1117,11.5062,48.3635,-0.0672,-0.3744,0.0867,212.2969
14:17:55:135,0.7636,2.1882,11.3073,47.9013,-0.1967,-0.2963,0.077,211.8438
14:17:55:153,0.8788,1.7955,11.913,47.4391,-0.336,-0.3097,-0.0806,211.8438
14:17:55:175,0.4358,0.9745,12.8444,46.9547,-0.3879,-0.2975,-0.2639,211.5156
14:17:55:195,-0.4071,0.0598,13.0214,46.2955,-0.284,-0.1668,-0.3427,211.5156
14:17:55:216,-0.8859,-0.419,11.4844,45.6222,-0.0629,0.0764,-0.2346,211.4844
14:17:55:236,-0.5889,-0.134,9.4783,45.0709,0.0886,0.2248,0.0037,211.4688
14:17:55:252,0.3138,0.4047,8.621,44.6555,0.0928,0.0819,0.1833,211.7344
14:17:55:276,2.0614,1.4055,10.0863,44.3511,-0.1246,-0.4215,0.0568,211.7656
14:17:55:296,1.7142,1.1827,11.2259,43.8814,-0.2517,-0.3415,-0.2352,211.7031
14:17:55:315,0.6751,0.6559,10.8021,43.3957,-0.2706,0.0586,-0.4679,211.7031
14:17:55:334,-0.1292,0.51,8.6091,42.8019,-0.2205,0.5449,-0.4813,211.6562
14:17:55:359,-0.4262,0.8453,6.658,42.508,-0.2291,0.7886,-0.3506,211.6562
14:17:55:377,-0.3951,1.2664,6.0906,42.3293,-0.2584,0.6353,-0.226,211.7969
14:17:55:394,-0.268,1.6113,6.6987,42.3074,-0.2443,0.3066,-0.1515,211.8125
14:17:55:414,-0.1412,1.8482,7.1656,42.1571,-0.1704,0.0874,-0.1075,211.6875
14:17:55:434,-0.0144,2.0925,7.3164,42.0443,-0.1246,0.0385,-0.0831,212.0156
14:17:55:453,0.0646,2.2816,7.5078,42.1777,-0.1778,0.1185,-0.0812,212.0156
14:17:55:476,0.0837,2.4275,7.9484,42.3339,-0.2694,0.2138,-0.088,212.6562
14:17:55:494,0.0646,2.5594,8.3746,42.3693,-0.2944,0.2333,-0.0947,212.6562
14:17:55:516,0.0359,2.5762,8.8606,42.3772,-0.2553,0.1662,-0.102,212.4531
14:17:55:533,0.0455,2.6408,9.574,42.2034,-0.1863,0.0788,-0.0904,212.4531
14:17:55:554,0.0502,2.7891,10.0768,42.0205,-0.1038,0.0654,-0.077,212.2188
14:17:55:576,-0.0431,2.8705,10.3472,41.7994,-0.0544,0.146,-0.0892,212.2188
14:17:55:595,-0.3114,2.9112,10.637,41.5284,-0.0678,0.2767,-0.1161,212.9688
14:17:55:615,-0.6416,2.8107,11.1087,41.4726,-0.0983,0.3525,-0.1338,212.9688
14:17:55:635,-0.9553,2.5451,11.8771,41.4705,-0.0696,0.292,-0.1356,213.6562
14:17:55:653,-1.1372,2.1763,12.8252,41.5464,0.0513,0.1362,-0.1228,213.7344
14:17:55:675,-1.3502,1.6902,13.0669,41.3938,0.1949,0.113,-0.0977,214.0312
14:17:55:694,-1.5203,1.2353,12.5952,41.4025,0.2676,0.2767,-0.0263,214.0312
14:17:55:715,-1.427,1.2114,11.3073,41.3102,0.2468,0.532,0.1038,214.1719
14:17:55:734,-1.1731,1.4605,10.1629,41.5383,0.08,0.7177,0.215,214.2031
14:17:55:753,-1.3334,1.5467,10.8141,41.4765,-0.1344,0.5889,0.2272,214.2969
14:17:55:778,-2.1141,0.1962,12.5856,41.3678,-0.1411,0.2278,0.1888,214.3125
14:17:55:797,-2.2816,-0.3832,12.0302,41.076,0.0483,-0.0428,0.2223,214.4219
14:17:55:817,-2.004,-0.4023,10.8188,40.7994,0.3024,-0.1203,0.4954,214.4375
14:17:55:835,-1.0415,0.0359,9.8997,40.798,0.2144,-0.1692,0.5974,214.5625
14:17:55:852,-0.2489,0.268,10.7016,40.5336,0.0037,-0.3861,0.5235,214.5781
14:17:55:876,-0.1699,-0.1555,12.1023,40.3081,-0.1167,-0.6298,0.325,214.75
14:17:55:894,-0.3855,-0.7325,12.1023,39.5288,-0.0489,-0.6322,0.2114,214.7656
14:17:55:916,-0.3233,-0.5459,10.7447,39.0242,0.1002,-0.3958,0.3073,214.9844
14:17:55:933,0.2273,0.3808,8.6498,38.2748,0.2022,-0.0544,0.5058,215
14:17:55:953,0.9721,1.3382,6.7657,37.8224,0.2022,0.1949,0.6084,215.2344
14:17:55:976,1.2903,1.963,5.8271,37.3396,0.1264,0.2114,0.5424,215.1875
14:17:55:994,1.319,2.3366,5.8534,36.8273,0.0757,0.0079,0.3983,215.1875
14:17:56:016,1.331,2.5738,6.2725,36.4545,0.1069,-0.2651,0.2401,214.625
14:17:56:033,1.2233,2.6719,6.7131,35.903,0.1393,-0.4355,0.0641,214.625
14:17:56:054,0.9864,2.5451,7.3116,35.7045,0.0941,-0.4551,-0.1209,214.1406
14:17:56:077,0.4597,2.3318,8.0225,35.3235,-0.0183,-0.3604,-0.2804,214.1406
14:17:56:095,-0.2297,2.1452,8.7506,35.1328,-0.1051,-0.2321,-0.3561,213.3281
14:17:56:116,-0.5506,2.2552,9.1573,34.7542,-0.1191,-0.1008,-0.3231,213.3281
14:17:56:135,-0.4119,2.636,9.3156,34.4378,-0.0855,0.0018,-0.2523,213.3125
14:17:56:153,-0.3353,3.0885,9.4711,34.1942,-0.0605,0.0635,-0.2456,212.1562
14:17:56:176,-0.443,3.2656,9.6601,33.9006,-0.0641,0.0837,-0.325,211.6406
14:17:56:195,-0.5818,3.0957,10.2538,33.6274,-0.11,0.0483,-0.4551,211.6406
14:17:56:216,-0.8764,2.4993,11.2259,33.352,-0.1564,-0.0538,-0.5827,210.9062
14:17:56:236,-1.2209,1.5586,12.277,33.3066,-0.1558,-0.179,-0.6463,210.8281
14:17:56:253,-1.4294,0.5698,13.3783,33.0048,-0.0812,-0.2755,-0.5858,209.6875
14:17:56:277,0.4956,0.7086,11.3192,32.782,0.1539,-0.1258,-0.1289,209.5625
14:17:56:296,1.6854,1.331,11.4437,32.5261,-0.0379,-0.1448,-0.1362,208.9688
14:17:56:317,1.5419,0.553,13.3854,32.115,-0.2627,-0.2425,-0.438,208.9062
14:17:56:336,0.4358,-0.9314,14.5561,31.9267,-0.2529,-0.2016,-0.6933,209.0625
14:17:56:353,-0.2922,-1.8458,13.7204,31.7031,-0.0067,-0,-0.6194,209.0781
14:17:56:375,0.0957,-1.6161,11.3527,31.3849,0.2987,0.1906,-0.2767,209.75
14:17:56:395,1.4581,-0.7277,9.1406,31.0759,0.4581,0.1723,0.0367,209.8125
14:17:56:416,2.6982,0.1914,8.2071,31.0843,0.3946,-0.0415,0.0971,210.375
14:17:56:433,3.2536,0.8692,8.5971,30.8747,0.179,-0.2352,-0.0757,210.4375
14:17:56:453,2.8705,1.1037,9.4232,30.748,-0.0403,-0.1936,-0.3751,210.9844
14:17:56:477,1.6854,0.8234,8.9946,30.7756,-0.1466,0.1301,-0.6591,212.1406
14:17:56:494,0.5889,0.4908,7.3618,30.6521,-0.1888,0.5241,-0.7855,212.1406
14:17:56:515,-0.1412,0.5148,6.3156,30.8627,-0.2566,0.6933,-0.755,213.5156
14:17:56:533,-0.7205,0.6823,6.0619,31.2972,-0.2975,0.5779,-0.6701,213.5156
14:17:56:553,-0.9194,0.917,6.7274,31.6467,-0.2938,0.3158,-0.5693,214.125
14:17:56:577,-0.6823,1.2353,7.5221,31.7531,-0.2223,0.0977,-0.4526,214.125
14:17:56:595,-0.3808,1.7237,7.8838,32.0423,-0.1234,0.0232,-0.3659,214.125
14:17:56:616,-0.2512,2.0925,8.0465,32.4175,-0.0916,0.0812,-0.3573,214.75
14:17:56:634,-0.3377,2.2313,8.0824,32.5479,-0.1277,0.2065,-0.4025,214.75
14:17:56:653,-0.5818,2.26,8.5756,32.773,-0.1808,0.273,-0.4331,216.1719
14:17:56:677,-0.8596,2.2433,9.1071,32.898,-0.1735,0.2511,-0.4062,216.5
14:17:56:694,-0.9912,2.2026,9.6242,32.923,-0.11,0.1881,-0.3183,216.5
14:17:56:716,-1.0056,2.3055,10.3232,33.0126,-0.0379,0.146,-0.1863,216.5625
14:17:56:736,-1.1468,2.4849,10.5317,33.2055,0.0605,0.1753,-0.0373,216.5625
14:17:56:753,-1.1157,2.7365,10.1079,33.2721,0.1374,0.2474,0.1228,217.5781
14:17:56:777,-0.4214,3.3972,10.8069,33.1786,0.102,0.0696,0.3415,217.6719
14:17:56:797,-0.1579,3.5145,12.1621,33.1797,0.1063,-0.1307,0.3128,219.0938
14:17:56:818,-0.1627,3.4068,13.0382,33.0617,0.1582,-0.1619,0.212,219.2344
14:17:56:836,-0.5387,2.9853,12.6721,32.875,0.2034,0.0214,0.0837,220.3594
14:17:56:853,-0.929,2.6815,11.7239,32.8261,0.0922,0.3213,-0.0104,220.4688
14:17:56:875,-1.3382,2.2074,11.8173,32.7139,-0.1655,0.4759,-0.0892,221.25
14:17:56:894,-1.9872,1.2377,13.0286,32.6903,-0.2914,0.3005,-0.1625,221.3281
14:17:56:915,-2.7508,0.1053,14.3671,32.6435,-0.1295,-0.0226,-0.1344,222.0469
14:17:56:933,-3.1699,-0.8378,13.917,32.6801,0.2327,-0.0904,0.0702,222.1094
14:17:56:953,-2.7508,-0.5722,11.0273,32.8249,0.5357,0.1509,0.4398,222.8906
14:17:56:978,-1.4366,0.6248,8.9085,33.1521,0.5229,0.234,0.7397,223.4375
14:17:56:995,-0.364,1.5156,8.8343,33.2284,0.3054,-0.0574,0.7086,223.4375
14:17:57:017,-0.0598,1.2808,10.5317,33.2236,0.1057,-0.4936,0.4233,223.4062
14:17:57:099,-0.1723,0.5124,11.4867,33.1586,0.0428,-0.6377,0.1362,223.4062
14:17:57:100,-0.3329,0.0766,10.759,32.8371,0.047,-0.369,-0.0055,222.7656
14:17:57:100,-0.1196,0.3018,8.808,32.8151,0.055,0.0409,-0.0037,222.7656
14:17:57:101,0.3209,0.821,6.5551,32.6402,0.0055,0.3079,0.0153,222.75
14:17:57:115,0.5602,1.3645,6.3491,32.5455,-0.1069,0.1503,-0.066,222.2344
14:17:57:135,0.2608,1.5371,7.745,32.0472,-0.1319,-0.2779,-0.2584,222.2344
14:17:57:154,-0.3544,0.9649,8.4559,31.7882,0.0098,-0.5217,-0.4526,222.1875
14:17:57:177,-1.1683,0.2082,8.3483,31.4921,0.1246,-0.4001,-0.496,222.3438
14:17:57:194,-1.4486,0,7.7713,31.2132,0.1301,-0.0519,-0.295,222.3438
14:17:57:215,-1.0247,0.8524,7.2972,31.1481,0.0874,0.2205,0.036,222.4375
14:17:57:235,-0.012,1.9104,7.3929,31.0829,0.0745,0.237,0.234,222.4375
14:17:57:253,0.7038,2.5642,7.8431,31.0154,0.1264,0.08,0.1619,221.4062
14:17:57:276,0.6033,2.6647,8.6378,30.8412,0.19,-0.1008,-0.0721,221.2969
14:17:57:294,-0.0191,2.4371,8.9013,31.021,0.2278,-0.1081,-0.284,220.2656
14:17:57:316,-0.7588,2.581,9.2964,30.9793,0.0354,0.1289,-0.2993,220.1562
14:17:57:336,-0.3018,3.0523,10.0313,31.0749,-0.0434,0.055,-0.2449,220.0938
14:17:57:353,-0.3209,2.983,11.1039,31.3447,-0.0305,-0.1949,-0.3451,220.0938
14:17:57:374,-0.9505,2.2241,12.1693,31.4152,0.0287,-0.416,-0.4783,220.0625
14:17:57:396,-1.4581,1.5491,12.2267,31.2334,0.0702,-0.3952,-0.4459,220.0625
14:17:57:415,-1.13,1.4509,11.6067,31.3338,0.014,-0.2401,-0.2608,220.3594
14:17:57:433,-0.4836,1.6831,11.0871,31.433,-0.1423,-0.168,-0.1381,220.3906
14:17:57:453,-0.1627,1.3358,11.3815,31.4203,-0.3769,-0.2254,-0.2077,221.4062
14:17:57:476,-0.5052,0.2704,13.1435,31.5389,-0.6298,-0.292,-0.3732,221.7969
14:17:57:493,-1.2975,-0.7086,14.6207,31.3532,-0.6579,-0.2535,-0.4123,221.7969
14:17:57:515,-1.7812,-1.1563,14.0964,31.005,-0.3396,-0.099,-0.2297,221.4062
14:17:57:533,-1.1803,-0.6248,11.1709,30.9526,0.1087,0.091,0.1173,221.4062
14:17:57:553,0.3329,0.376,8.7912,30.9868,0.336,0.0709,0.3744,221.8125
14:17:57:578,1.7285,1.0702,7.9364,30.7352,0.3195,-0.1942,0.3506,221.8594
14:17:57:593,2.4802,1.3525,8.5851,30.6739,0.1448,-0.4783,0.1069,221.8594
14:17:57:614,2.4227,1.2832,10.0385,30.3799,-0.0605,-0.573,-0.2315,222.5938
14:17:57:634,1.9104,1.0175,10.8954,30.1718,-0.1203,-0.4343,-0.5388,222.6094
14:17:57:654,1.075,0.7062,10.3639,30.206,-0.0299,-0.1399,-0.7312,223.25
14:17:57:678,0.1077,0.5195,8.8152,30.5088,0.0501,0.1888,-0.7941,224.3438
14:17:57:695,-0.443,0.4549,7.4121,30.6263,0.0244,0.3952,-0.7501,224.3438
14:17:57:717,-0.7708,0.6655,7.2613,30.6767,-0.055,0.3769,-0.6359,224.7969
14:17:57:736,-0.6727,1.1946,7.6062,31.085,-0.0562,0.2468,-0.4771,224.7969
14:17:57:754,-0.4717,1.6974,7.7234,30.9792,0.0079,0.1148,-0.361,225.2969
14:17:57:775,-0.6464,1.9753,7.9962,31.1807,0.0238,0.0092,-0.3329,225.3438
14:17:57:797,-0.8091,2.1739,8.5421,31.3978,-0.0079,-0.0464,-0.3085,225.8906
14:17:57:817,-0.6655,2.581,9.5357,31.6546,-0.0617,0.0177,-0.157,225.9375
14:17:57:836,-0.3975,2.8131,10.0457,31.8665,-0.0238,0.0397,-0.0715,225.5
14:17:57:855,-0.213,2.8872,10.582,32.0415,0.0513,0.0586,-0.0257,225.4531
14:17:57:877,-0.2994,2.691,10.8739,32.1698,0.1539,0.1155,-0.0098,225.0781
14:17:57:895,-0.6009,2.4371,10.6394,32.3385,0.2676,0.2107,0.0275,225.0469
14:17:57:915,-0.7086,2.4036,10.515,32.6351,0.3525,0.2486,0.1136,225.8438
14:17:57:933,-0.6272,2.4323,10.7423,32.9322,0.4313,0.1784,0.2065,225.9219
14:17:57:955,-0.2441,2.327,10.8308,33.2162,0.5278,0.0788,0.2578,227.4375
14:17:57:977,-0.055,2.1691,10.6226,33.2565,0.5663,0.0599,0.237,228.9375
14:17:57:995,-0.3855,1.992,10.3352,33.1571,0.4881,0.1472,0.1533,228.9375
14:17:58:016,-0.8883,1.64,9.95,33.3717,0.3085,0.2859,0.0764,229.9844
14:17:58:035,-1.2879,1.4004,10.0624,33.7667,0.113,0.3225,0.0684,229.9844
14:17:58:054,-1.3884,1.2975,10.285,33.7532,-0.0153,0.2333,0.1161,229.9844
14:17:58:078,-1.4055,1.0008,11.1805,33.7675,-0.0898,0.0305,0.1472,230.7031
14:17:58:094,-1.7094,0.498,12.3894,34.0026,-0.0959,-0.1002,0.1771,230.7031
14:17:58:117,-1.7907,0.3233,11.9393,34.1769,0.0073,0.0904,0.306,231.125
14:17:58:133,-1.4366,0.8596,9.373,34.298,0.0922,0.4313,0.5101,231.125
14:17:58:153,-0.9338,1.6041,7.9747,34.4341,0.0116,0.4484,0.6029,231.2344
14:17:58:179,-0.7349,1.8864,8.3363,34.3595,-0.1374,0.1552,0.5101,231.2656
14:17:58:196,-0.6679,1.5706,9.6793,34.1671,-0.2333,-0.1716,0.3354,231.2656
14:17:58:217,-0.9194,1.1372,10.6226,34.1294,-0.2517,-0.2993,0.1716,231
14:17:58:237,-1.3932,0.6153,10.9843,34.1002,-0.2847,-0.1289,0.0751,231
14:17:58:254,-1.6496,0.4549,10.2802,34.0064,-0.2969,0.2144,0.1167,230.5938
14:17:58:276,-1.4174,0.8234,8.8558,33.9475,-0.2486,0.463,0.2663,230.5938
14:17:58:298,-0.8258,1.2832,8.0513,33.8229,-0.1894,0.4508,0.394,230.4375
14:17:58:318,-0.6918,1.6328,8.4057,33.6641,-0.157,0.3121,0.419,230.4219
14:17:58:336,-1.051,1.6759,8.8941,33.5162,-0.0556,0.0159,0.3751,230.2031
14:17:58:354,-0.9027,2.0207,8.5181,33.5014,0.0489,0.0452,0.4441,230.1875
14:17:58:378,-0.4908,2.6001,7.9843,33.4197,0.069,0.1197,0.4844,229.8438
14:17:58:398,-0.0144,2.9877,7.8598,33.3107,0.0232,0.124,0.4227,229.8125
14:17:58:416,-0.1819,2.7772,7.9627,33.0576,-0.0373,0.0855,0.248,228.9688
14:17:58:434,-0.8788,2.2122,7.8742,32.7079,-0.0928,0.058,0.1014,227.7031
14:17:58:453,-1.1085,2.0399,8.2502,32.4955,-0.1686,0.0012,0.1124,227.7031
14:17:58:476,-0.9386,2.3725,9.0042,32.6432,-0.234,-0.0715,0.1961,227.0469
14:17:58:495,-0.7947,2.6336,9.1932,32.6427,-0.2309,-0.1387,0.2395,227.0469
14:17:58:516,-0.8163,2.7054,9.3969,32.4019,-0.2297,-0.2352,0.237,226.7188
14:17:58:533,-0.9577,2.6049,10.0026,32.2075,-0.2596,-0.3464,0.2248,226.6875
14:17:58:554,-0.9601,2.4084,10.6561,32.1198,-0.2669,-0.4594,0.2407,226.6875
14:17:58:578,-0.6966,2.2457,11.4532,31.8667,-0.2523,-0.5485,0.284,225.8281
14:17:58:597,-0.352,2.1021,12.0135,31.9758,-0.2175,-0.5516,0.3237,225.8125
14:17:58:614,0.0096,2.1691,11.5995,31.8454,-0.1521,-0.438,0.3482,224.8594
14:17:58:634,0.5171,2.2863,10.4169,31.2427,-0.1399,-0.3066,0.3207,224.8594
14:17:58:653,0.8907,2.26,10.2897,30.8371,-0.2492,-0.3366,0.1778,223.9531
14:17:58:675,0.6535,1.6615,11.3097,30.5149,-0.3971,-0.4587,-0.0672,222.9531
14:17:58:695,0.1747,0.644,12.5258,30.2357,-0.4893,-0.4936,-0.2828,222.9531
14:17:58:715,-0.2297,-0.2393,13.6152,29.8984,-0.5094,-0.4313,-0.3641,222.5312
14:17:58:735,-0.3066,-0.5841,14.5801,29.7119,-0.4545,-0.2602,-0.303,222.5312
14:17:58:754,-0.122,-0.4836,14.1945,29.3644,-0.2462,0.0031,-0.1674,222.125
14:17:58:779,0.2704,-0.0837,12.2578,29.4363,0.0531,0.2272,-0.0428,222.125
14:17:58:795,0.9075,0.5171,10.5221,29.6503,0.2407,0.3207,0.0189,221.6094
14:17:58:815,1.4988,0.9649,9.4519,29.7143,0.2957,0.2914,-0.0452,221.5625
14:17:58:835,1.6137,1.1228,9.3299,29.8819,0.2645,0.2169,-0.2211,221.0781
14:17:58:853,1.1563,0.8091,9.6362,30.0398,0.223,0.1997,-0.4251,221.0312
14:17:58:876,0.6368,0.4573,9.4591,30.4927,0.2449,0.27,-0.5412,220.4219
14:17:58:895,0.4836,0.9577,8.2047,30.8032,0.3286,0.4465,-0.5003,220.3594
14:17:58:916,0.4621,1.142,7.5846,31.2675,0.3641,0.4441,-0.5101,219.7031
14:17:58:933,0.443,1.2832,7.2589,31.4552,0.3848,0.394,-0.5204,219.6406
14:17:58:953,0.6248,1.5754,7.0388,31.7954,0.3903,0.3518,-0.5101,219.5
14:17:58:975,0.6823,1.9128,6.8758,32.2512,0.3482,0.3555,-0.5345,220.0625
14:17:58:996,0.4669,2.1308,7.1919,32.9037,0.2437,0.3836,-0.5992,220.0625
14:17:59:016,-0.0407,2.0758,7.678,33.422,0.1442,0.4258,-0.6695,220.1094
14:17:59:034,-0.5435,1.8984,8.3339,34.0158,0.08,0.4502,-0.686,220.5312
14:17:59:054,-0.9673,1.8912,9.0162,34.7656,0.0733,0.4459,-0.6304,220.5781
14:17:59:079,-1.3119,1.9391,9.2677,35.2168,0.1393,0.4142,-0.5369,220.6094
14:17:59:096,-1.5275,2.0207,9.1956,35.9275,0.1997,0.3751,-0.4178,220.6094
14:17:59:170,-1.3406,2.3151,9.5692,36.4639,0.1784,0.3134,-0.2724,220.9531
14:17:59:170,-1.0989,2.7987,10.2993,36.963,0.1301,0.2297,-0.1619,220.9531
14:17:59:171,-0.7828,3.1268,11.1063,37.3479,0.1161,0.1503,-0.1167,222.0469
14:17:59:179,-0.7205,3.201,12.0183,37.6083,0.1344,0.1319,-0.1405,223.2188
14:17:59:195,-1.7883,2.8298,12.2267,38.1227,0.2022,0.2193,-0.2175,223.2188
14:17:59:215,-2.9279,2.205,11.3288,38.558,0.3262,0.2779,-0.2107,224.4062
14:17:59:235,-3.0933,2.0949,10.1892,39.0296,0.3635,0.2144,-0.0617,224.4062
14:17:59:254,-2.8083,2.1906,11.1494,39.2071,0.1936,0.0202,0.0568,225.625
14:17:59:279,-2.904,1.7357,12.478,39.5204,0.0531,-0.1209,0.0629,225.625
14:17:59:297,-3.3781,1.0774,12.186,39.7507,0.0599,-0.0776,0.0904,226.9062
14:17:59:315,-3.7086,0.6942,11.1924,40.0325,0.0947,0.0232,0.2352,227.0312
14:17:59:335,-3.6942,0.7828,10.2156,40.3397,0.0886,0.1271,0.4581,228.3281
14:17:59:354,-3.3159,1.2401,9.0832,40.1969,0.0702,0.2071,0.678,228.4531
14:17:59:375,-2.849,1.8266,8.0776,40.0801,0.036,0.1741,0.8118,229.4219
14:17:59:398,-2.5427,2.339,7.6277,39.9061,-0.0147,-0.0232,0.824,229.5156
14:17:59:417,-1.8434,2.071,8.7697,39.7726,-0.2321,-0.4911,0.5705,229.9844
14:17:59:434,-1.7883,1.4725,9.6362,39.5341,-0.419,-0.4655,0.3897,230.0312
14:17:59:453,-1.9992,0.9864,10.4934,39.372,-0.5797,-0.3091,0.2627,230.3125
14:17:59:476,-2.3151,0.6033,10.9026,39.1562,-0.5913,-0.1197,0.2297,230.3438
14:17:59:497,-2.4682,0.3473,10.0122,38.9965,-0.4087,0.0739,0.3115,230.8438
14:17:59:516,-2.138,0.4693,8.3315,38.9544,-0.1894,0.223,0.4899,230.8906
14:17:59:533,-1.5658,1.0343,7.0843,38.6816,-0.0837,0.2706,0.6646,230.9844
14:17:59:553,-1.0941,1.5514,6.6102,38.3261,-0.0867,0.2181,0.7452,231
14:17:59:576,-0.7469,1.9319,6.9165,38.1403,-0.099,0.0794,0.7513,230.8594
14:17:59:597,-0.4908,2.2887,7.3211,38.1691,-0.0525,-0.0593,0.7226,230.8594
14:17:59:615,-0.3401,2.7245,7.3953,38.1164,0.0073,-0.1246,0.6658,230.1406
14:17:59:634,-0.285,3.0284,7.381,37.93,-0.0104,-0.1338,0.5669,230.125
14:17:59:654,-0.3664,3.0858,8.2621,37.731,-0.146,-0.1289,0.4245,228.4844
14:17:59:674,-0.5506,2.7867,9.6266,37.5142,-0.2773,-0.1124,0.2779,226.7812
14:17:59:696,-1.0558,2.3486,10.8356,37.6743,-0.2902,-0.0886,0.168,226.7812
14:17:59:716,-1.4773,2.0088,11.1278,37.9418,-0.1894,-0.022,0.1655,225.6719
14:17:59:736,-1.4246,1.9391,10.6561,38.0923,-0.0843,0.0354,0.2547,225.6719
14:17:59:754,-1.1109,1.9801,10.5102,37.6412,-0.0819,0.0012,0.336,224.9531
14:17:59:781,-0.766,1.8577,11.1805,37.7597,-0.1173,-0.1619,0.3439,224.9531
14:17:59:795,-0.8668,1.3358,11.9225,38.0308,-0.0953,-0.339,0.2999,223.9375
14:17:59:815,-0.9314,0.8764,11.8603,38.302,-0.0318,-0.3903,0.3152,223.9375
14:17:59:834,-0.3162,0.9577,10.6825,38.5095,-0.0391,-0.3011,0.4105,222.4688
14:17:59:853,0.5746,1.1348,10.218,38.6658,-0.1997,-0.2914,0.4251,222.3281
14:17:59:876,0.941,1.0128,11.1087,38.6567,-0.4117,-0.4087,0.2804,220.8281
14:17:59:896,0.6846,0.7014,12.3775,38.8085,-0.5351,-0.4471,0.0684,220.6719
14:17:59:914,0.0287,0.0215,13.2515,39.439,-0.5235,-0.3433,-0.1155,219.4531
14:17:59:934,-0.5841,-0.5674,12.9281,39.5064,-0.3561,-0.1319,-0.1729,219.3281
14:17:59:953,0.5004,0.3497,9.5357,39.7182,0.0446,0.1906,0.0269,218.5781
14:17:59:974,1.2808,0.8692,8.3507,39.7097,0.0513,0.1594,-0.0721,218.5
14:17:59:996,1.3645,0.917,8.3842,39.962,-0.1112,0.0904,-0.3409,218.0938
14:18:00:015,0.6344,0.4645,9.2411,39.789,-0.2957,0.0764,-0.6432,218.0469
14:18:00:034,-0.4908,-0.2201,9.2988,40.0289,-0.3518,0.1662,-0.8308,217.4375
14:18:00:053,-1.3143,-0.4478,8.7027,40.0636,-0.3488,0.3054,-0.8088,217.375
14:18:00:074,-1.5132,-0.1962,8.1401,40.1318,-0.3311,0.3567,-0.6499,216.6719
14:18:00:097,-1.3406,0.2465,7.7928,40.141,-0.2792,0.3079,-0.4789,216.6562
14:18:00:115,-0.9936,0.687,7.5556,40.1746,-0.215,0.2511,-0.3555,215.9062
14:18:00:135,-0.821,1.0726,7.5389,40.4317,-0.1875,0.2419,-0.3024,215.9062
14:18:00:153,-0.821,1.3454,7.6086,40.3448,-0.1765,0.2651,-0.2926,215.0938
14:18:00:174,-0.9386,1.4725,7.8096,40.8105,-0.1417,0.2474,-0.2822,215.0469
14:18:00:198,-1.0247,1.6184,8.1999,41.0903,-0.0776,0.19,-0.2321,215.0469
14:18:00:216,-0.9194,1.9128,8.4177,41.2087,0.0049,0.1619,-0.1442,215.25
14:18:00:235,-0.6942,2.3533,8.3483,41.4518,0.0538,0.182,-0.077,215.25
14:18:00:253,-0.5387,2.7054,8.8917,41.8733,0.0281,0.1918,-0.0874,215.2969
14:18:00:275,-0.7134,2.8418,10.0002,42.1091,-0.0067,0.1833,-0.1765,215.2969
14:18:00:297,-1.4222,2.5786,10.8476,42.0598,0.0238,0.1839,-0.295,216.2969
14:18:00:316,-2.4945,1.9199,11.3001,42.3435,0.1075,0.149,-0.339,216.2969
14:18:00:336,-3.2847,1.3836,12.0712,42.2101,0.2169,-0.0055,-0.2205,217.8125
14:18:00:353,-3.2776,1.3071,12.8516,42.3179,0.3207,-0.1454,0.0208,217.9688
14:18:00:374,-2.6791,1.2999,13.1892,42.9539,0.4007,-0.1619,0.2486,218.9844
14:18:00:397,-2.1882,1.1707,12.8444,43.084,0.3586,0.1209,0.4282,219.0938
14:18:00:417,-2.0614,1.0295,12.1884,43.0652,0.2138,0.2437,0.4801,219.6875
14:18:00:436,-1.8769,1.3382,11.578,43.1543,0.0367,0.2278,0.5284,219.75
14:18:00:452,-1.8434,1.185,11.9345,43.4521,-0.0886,0.1484,0.5058,220.2656
14:18:00:474,-1.963,0.5411,12.2818,43.6906,-0.0916,0.0305,0.4478,220.3125
14:18:00:496,-2.2839,-0.1436,12.3272,44.0526,0.0568,-0.113,0.438,220.6719
14:18:00:514,-2.406,-0.4717,11.3216,43.9609,0.2859,-0.1686,0.5345,220.7031
14:18:00:534,-1.9343,-0.2154,9.8231,43.7346,0.3793,-0.0935,0.6866,220.875
14:18:00:554,-1.1683,0.4645,8.8702,43.6619,0.2413,0.0165,0.7495,220.8906
14:18:00:575,-0.4071,0.9936,8.7577,43.8107,0.0073,0.0281,0.6524,221.3594
14:18:00:596,-0.0933,1.0367,9.495,43.9692,-0.1625,-0.1106,0.4197,221.4062
14:18:00:615,-0.4382,0.6559,10.1198,44.2739,-0.2089,-0.212,0.16,222.0781
14:18:00:634,-0.9936,0.364,9.8013,44.4604,-0.1674,-0.1185,0.0147,222.0938
14:18:00:653,-1.2473,0.3425,8.5038,44.5107,-0.1258,0.1191,-0.0006,221.9375
14:18:00:674,-1.2497,0.5315,7.3211,44.5923,-0.1716,0.3323,0.0458,221.2031
14:18:00:699,-1.1731,0.8572,6.7585,44.3918,-0.2181,0.3354,0.1008,221.2031
14:18:00:716,-1.0941,1.1061,7.0002,44.4312,-0.2101,0.149,0.135,220.1094
14:18:00:735,-1.3693,1.1085,7.3953,44.5739,-0.1271,-0.066,0.1674,220.1094
14:18:00:753,-1.5371,1.2616,7.4575,44.2978,0.014,-0.2187,0.2584,219.0312
14:18:00:776,-1.0726,1.841,7.3738,44.1651,0.0953,-0.281,0.3763,219.0312
14:18:00:798,-0.5459,2.4084,7.9029,44.217,0.0428,-0.2895,0.3787,218.0312
14:18:00:816,-0.1699,2.6504,9.4113,44.249,-0.0318,-0.3286,0.2645,218.0312
14:18:00:834,-0.0933,2.7461,10.6274,44.4492,0.0134,-0.3512,0.1289,216.7031
14:18:00:853,-0.4717,2.6073,10.7303,44.712,0.1362,-0.2816,0.0092,216.5625
14:18:00:875,-0.9984,2.2624,10.7303,45.0084,0.2107,-0.182,-0.0446,215.4688
14:18:00:897,-1.2951,2.0806,10.2873,45.0567,0.2498,-0.0623,0.0043,215.3594
14:18:00:917,-1.2568,2.2409,9.9476,45.3482,0.2572,-0.0281,0.1167,215.1406
14:18:00:936,-0.8692,2.473,10.328,45.6152,0.2144,-0.1497,0.1906,215.1094
14:18:00:953,-0.4047,1.6543,12.1262,45.6184,0.1472,-0.4575,0.0959,215
14:18:00:973,-0.5411,1.0008,11.6785,45.897,0.1448,-0.383,0.0782,214.9844
14:18:00:995,-0.1388,0.6799,10.5532,46.2084,0.0531,-0.2315,0.1289,214.6562
14:18:01:015,0.7038,0.7493,10.2347,46.4198,-0.1991,-0.1637,0.1319,214.625
14:18:01:033,0.7134,0.5722,11.8388,46.6187,-0.5113,-0.2144,-0.0525,214.1875
14:18:01:054,-0.1723,-0.4621,13.4836,46.7122,-0.5394,-0.3201,-0.3103,214.1406
14:18:01:075,-1.331,-1.7405,13.2036,46.9059,-0.2285,-0.3066,-0.3952,213.4531
14:18:01:098,-1.8601,-1.9104,10.7207,46.9174,0.0757,-0.0397,-0.1802,213.375
14:18:01:116,-0.9721,-0.6368,8.3818,47.0725,0.1057,0.2016,0.1796,212.9844
14:18:01:134,0.5937,0.8067,7.8598,46.9047,-0.0556,0.0996,0.3128,212.9688
14:18:01:153,1.5586,1.3836,9.0281,46.9933,-0.2712,-0.1802,0.1014,213.0938
14:18:01:233,1.5706,1.3143,10.6825,47.4306,-0.394,-0.3861,-0.2761,213.0625
14:18:01:234,0.5554,0.5794,11.5588,47.4922,-0.4093,-0.3128,-0.6646,213.0625
14:18:01:234,-0.8859,-0.1962,10.9289,47.766,-0.3537,0.0489,-0.8631,212.7656
14:18:01:235,-1.762,-0.4286,9.2435,47.9838,-0.2621,0.4734,-0.7623,212.7656
14:18:01:253,-1.7979,0.0455,7.3068,48.0363,-0.1991,0.7342,-0.4752,212.6719
14:18:01:274,-1.1779,0.8282,6.5719,48.0576,-0.1472,0.6249,-0.2095,212.6719
14:18:01:299,-0.4693,1.4892,6.7561,48.4265,-0.0513,0.3005,-0.0819,212.4062
14:18:01:314,-0.1292,1.8147,7.2278,48.4229,0.0415,0.025,-0.0928,212.4062
14:18:01:334,0.1364,1.8793,7.8263,48.2199,0.0562,-0.0611,-0.171,212.6562
14:18:01:353,0.268,1.8817,8.432,48.2429,-0.0049,0.0379,-0.2639,212.6875
14:18:01:375,0.1699,1.7716,9.0066,48.0105,-0.0605,0.1985,-0.3433,213.2656
14:18:01:397,-0.213,1.6137,8.7338,47.9371,-0.0257,0.3286,-0.3793,213.3281
14:18:01:416,-0.5124,1.9968,8.7075,47.9547,0.0098,0.2266,-0.2566,212.8281
14:18:01:436,-0.5578,2.2217,9.5477,47.9474,-0.0257,0.058,-0.2065,212.7812
14:18:01:454,-0.8139,2.2624,10.3256,47.9146,-0.0385,-0.1454,-0.2144,212.8906
14:18:01:473,-1.0295,2.0782,11.4221,48.0071,-0.0782,-0.3549,-0.2364,212.9062
14:18:01:497,-0.9817,1.4557,13.1028,47.9249,-0.1521,-0.3903,-0.2443,214.3438
14:18:01:514,-1.2281,0.9721,13.7925,48.0085,-0.1466,-0.1961,-0.2052,214.4844
14:18:01:533,-1.1922,0.754,13.7973,48.3972,-0.0965,0.0189,-0.0458,215.625
14:18:01:553,-1.1252,0.7493,13.0645,48.4136,-0.0568,0.2034,0.1417,215.75
14:18:01:574,-1.4004,0.8139,11.8579,48.6583,-0.0556,0.3103,0.2645,215.9844
14:18:01:598,-1.5467,0.7301,11.3815,48.7601,-0.1032,0.1582,0.3213,216.0156
14:18:01:616,-1.3645,0.4406,12.0637,48.5809,-0.1686,-0.226,0.3207,216.3125
14:18:01:634,-1.1874,-0.0479,12.6048,48.5026,-0.1851,-0.4478,0.2957,216.3281
14:18:01:653,-1.5108,-0.5171,12.0087,48.5537,-0.1368,-0.4276,0.3048,216.9688
14:18:01:674,-1.4988,-0.8453,11.214,48.7475,-0.0483,-0.303,0.4239,217.7344
14:18:01:698,-1.197,-0.4406,10.4743,48.4965,0.0886,-0.0874,0.5754,217.7344
14:18:01:715,-0.5148,0.2058,9.8061,48.4048,0.2468,0.0024,0.62,218.2344
14:18:01:735,0.0096,0.5554,9.4041,48.2908,0.3537,-0.0996,0.463,218.2344
14:18:01:753,0.2898,0.3138,9.2076,48.198,0.3537,-0.2975,0.1454,218.7344
14:18:01:774,-0.0718,-0.2994,9.1095,48.4639,0.2199,-0.4355,-0.1949,218.7344
14:18:01:798,-0.9242,-0.9075,8.3363,48.3752,-0.0202,-0.1399,-0.3347,219.1875
14:18:01:815,-1.4677,-0.984,6.9954,48.3715,-0.2743,0.3744,-0.1643,219.1875
14:18:01:834,-1.2209,-0.5483,6.0954,48.2562,-0.4716,0.7135,0.1802,219.0625
14:18:01:853,-0.8668,0,5.9303,48.1999,-0.595,0.7874,0.4679,219.0625
14:18:01:874,-0.62,0.4238,6.2725,48.3204,-0.6255,0.6622,0.6072,218.4531
14:18:01:898,-0.6655,0.7014,7.2829,48.2857,-0.529,0.3451,0.6157,218.3906
14:18:01:916,-1.0199,0.6368,8.5349,48.214,-0.2969,0.0208,0.529,217.7344
14:18:01:936,-1.1922,0.4669,8.3195,48.1982,0.2193,-0.1051,0.3311,217.6719
14:18:01:956,-1.0726,0.7038,8.3698,48.2181,0.2712,-0.0702,0.3586,216.9219
14:18:01:974,-0.5889,1.2233,9.0162,48.2216,0.1704,-0.0886,0.4099,216.8438
14:18:01:997,-0.3018,1.5682,9.9906,48.1583,0.0079,-0.1435,0.358,215.7031
14:18:02:016,-0.5841,1.4677,10.6537,48.3335,-0.1411,-0.0935,0.2022,215.5938
14:18:02:033,-1.063,1.1635,10.8284,48.2834,-0.2315,0.0367,0.0745,215.0781
14:18:02:053,-1.1013,0.9721,11.1111,48.3222,-0.2492,0.0849,0.0654,215.0312
14:18:02:073,-1.0845,0.8668,11.6186,48.4435,-0.2004,-0.0269,0.0538,215.5938
14:18:02:093,-1.1133,0.2417,12.023,48.363,-0.1326,-0.2352,-0.0079,215.6406
14:18:02:117,-1.0295,-0.5626,12.0541,48.5091,-0.1124,-0.3482,-0.0043,215.5
14:18:02:134,-0.5411,-0.6894,11.3456,48.5042,-0.2114,-0.2639,0.0996,215.5
14:18:02:154,0.1723,-0.4478,11.3121,48.521,-0.4759,-0.19,0.1264,214.0938
14:18:02:174,0.1579,-0.862,13.0549,48.2599,-0.8057,-0.1509,-0.066,212.7031
14:18:02:198,-0.9697,-2.0566,14.901,48.3472,-0.8851,-0.0452,-0.3036,212.7031
14:18:02:215,-2.2481,-3.0667,14.5992,48.3487,-0.4795,0.0861,-0.2889,211.9219
14:18:02:235,-2.0183,-2.7652,12.2459,48.3722,0.1478,0.1991,0.0684,211.9219
14:18:02:254,-0.3042,-1.3262,9.763,48.3581,0.5174,0.2413,0.4416,211.1406
14:18:02:274,1.1013,0.0718,9.3419,48.0756,0.4563,0.1814,0.4215,211.1406
14:18:02:299,1.5251,0.6703,9.9093,47.9763,0.2517,0.0855,0.0568,210.5156
14:18:02:316,0.699,0.711,10.5556,47.9534,0.1222,-0.0336,-0.4044,210.5156
14:18:02:335,0.4501,0.0742,10.5867,48.1244,0.1435,-0.0568,-0.7171,210.2812
14:18:02:353,-0.8429,-0.8644,9.3826,47.8632,0.1448,0.2834,-0.9505,210.2812
14:18:02:374,-1.5227,-0.8812,8.1111,47.7575,0.102,0.6249,-0.948,210.1875
14:18:02:398,-1.7166,-0.6679,6.7131,47.7242,0.0874,0.8338,-0.7648,210.1719
14:18:02:415,-1.6424,0.067,6.8303,47.7532,0.0678,0.7489,-0.5626,210.0469
14:18:02:436,-1.3095,0.486,7.302,47.8881,-0.0336,0.8772,-0.3091,210.0312
14:18:02:454,-1.1061,0.3281,6.6341,47.9101,-0.2346,1.1459,-0.2285,209.7969
14:18:02:475,-1.7931,-0.0239,5.8992,47.9157,-0.5046,0.9254,-0.0574,209.7812
14:18:02:493,-3.1579,-0.5506,8.0776,47.7566,-0.6365,0.5724,0.3073,210.1875
14:18:02:516,-2.2792,0.285,10.005,47.7144,-0.4636,0.1753,0.7941,210.2188
14:18:02:534,-1.4342,1.0056,11.0728,47.8324,-0.0305,0.0764,1.0977,209.8281
14:18:02:553,-1.2497,1.6208,11.8579,47.9517,0.5027,-0.0159,1.1453,209.7812
14:18:02:574,-1.2855,2.1045,11.4197,47.7004,1.0164,-0.1668,1.0531,209.3906
14:18:02:600,-1.6998,2.2768,10.0528,47.566,1.3452,-0.3879,0.8417,209.3594
14:18:02:616,-1.829,2.1117,10.1151,47.5529,1.2632,-0.5705,0.678,210.5
14:18:02:634,-1.6926,2.1165,10.7901,47.1966,0.9199,-0.438,0.6371,210.625
14:18:02:653,-1.6137,2.1045,11.5828,47.2755,0.5858,-0.2718,0.6188,212.7344
14:18:02:674,-1.6089,1.8721,12.1382,47.509,0.3867,-0.2162,0.5895,214.2344
14:18:02:698,-1.6998,1.494,12.1023,47.5004,0.2614,-0.19,0.5797,214.2344
14:18:02:715,-1.7237,1.3478,12.1238,47.2258,0.1106,-0.0739,0.6029,215.0469
14:18:02:734,-1.6735,1.1659,12.1238,47.2595,-0.0147,-0.047,0.6066,215.0469
14:18:02:753,-1.6519,0.6559,12.5187,47.4654,-0.1344,-0.2217,0.5815,215.2344
14:18:02:774,-1.7907,0.2994,13.1363,47.4549,-0.1509,-0.3787,0.5937,215.2344
14:18:02:798,-2.0327,0.1268,12.3823,47.732,0.0055,-0.3237,0.6084,213.8125
14:18:02:816,-2.0064,0.0981,10.7949,47.8759,0.1655,-0.1057,0.631,213.8125
14:18:02:835,-1.5514,0.7947,8.6378,47.8504,0.2767,0.0928,0.6725,211.4531
14:18:02:854,-1.3406,1.0128,7.5126,47.6602,0.19,-0.0012,0.5693,211.4531
14:18:02:874,-1.3238,0.8716,7.7067,47.7156,-0.0409,-0.2932,0.4019,210.0312
14:18:02:899,-1.3597,0.189,9.0425,47.7725,-0.2578,-0.5864,0.2511,209.9062
14:18:02:917,-1.6854,-0.3449,9.7798,47.6172,-0.3292,-0.6964,0.1869,209.0312
14:18:02:936,-1.5969,-0.3257,9.5524,47.7457,-0.317,-0.5528,0.2785,208.9531
14:18:02:953,-1.063,0.1795,8.8558,47.6976,-0.2737,-0.1857,0.4123,207.9531
14:18:02:976,-0.6511,1.0008,6.9284,47.579,-0.0489,0.1729,0.372,207.8594
14:18:02:999,-1.075,0.8596,6.6796,47.403,0.0189,0.0666,0.2724,206.75
14:18:03:015,-1.5491,0.4884,6.926,47.4303,0.08,-0.091,0.2407,206.6562
14:18:03:035,-1.6256,0.51,7.0268,47.4436,0.1435,-0.2022,0.3366,205.4531
14:18:03:053,-1.2066,1.0319,6.8734,47.3336,0.1655,-0.2517,0.4954,205.3281
14:18:03:075,-0.3832,1.6663,7.1704,47.4577,0.1118,-0.3396,0.6023,204.1562
14:18:03:096,0.4573,2.2624,8.2597,47.3759,0.0122,-0.4526,0.5876,204.0469
14:18:03:115,0.7301,2.5594,9.6601,47.2545,-0.0409,-0.5039,0.4306,202.8125
14:18:03:134,0.364,2.4658,10.7112,47.1136,-0.011,-0.4227,0.2107,202.6875
14:18:03:153,-0.2752,2.272,10.905,47.1024,0.0574,-0.1997,0.0538,201.6719
14:18:03:174,-0.5483,2.1188,10.2347,46.902,0.0825,0.0147,0.0104,201.1875
14:18:03:193,-0.4214,2.083,10.4695,46.8335,-0.0287,0.0385,0.0293,201.1875
14:18:03:216,-0.2106,1.7333,11.7168,46.5403,-0.1839,-0.0947,0.0373,200.4062
14:18:03:294,-0.1149,1.1061,13.1892,46.3119,-0.2449,-0.2462,0.0299,200.4062
14:18:03:295,0.1436,0.6942,13.529,46.3235,-0.1771,-0.2425,0.0831,199.4531
14:18:03:295,0.7971,0.7325,12.3153,46.2839,-0.124,-0.0751,0.1576,199.4531
14:18:03:296,1.4318,0.7804,11.4915,46.1913,-0.2755,0.0531,0.1118,198.9062
14:18:03:316,1.063,0.1412,12.7917,46.0753,-0.5608,0.0721,-0.1148,198.9062
14:18:03:335,-0.1172,-1.1659,14.3145,46.0393,-0.5901,0.0715,-0.3457,198.0781
14:18:03:354,-1.252,-2.2265,13.4429,45.83,-0.2083,0.1271,-0.3476,198.0781
14:18:03:374,-1.2855,-2.016,10.7447,46.0677,0.2376,0.1955,-0.0782,196.875
14:18:03:399,-0.1196,-0.7947,8.5086,46.0366,0.4013,0.1356,0.2205,196.875
14:18:03:417,1.2042,0.1699,7.9316,45.8611,0.2718,-0.0867,0.2608,196.2969
14:18:03:436,1.7644,0.5124,8.5158,46.0609,-0.0165,-0.2792,0.0421,196.2344
14:18:03:454,1.0726,0.0742,9.8518,46.0895,-0.3433,-0.3054,-0.2871,196.2031
14:18:03:476,-1.331,-0.8402,10.3735,46.3577,-0.5033,-0.1729,-0.5003,196.2031
14:18:03:499,-1.2808,-0.3185,8.8271,46.5771,-0.405,0.0489,-0.4306,196.125
14:18:03:517,-0.6583,0.553,7.5748,46.817,-0.2126,0.2853,-0.1509,196.1094
14:18:03:537,-0.3784,1.1037,7.5269,46.7771,-0.11,0.3836,0.1051,195.9844
14:18:03:553,-0.285,1.2832,7.6971,46.9724,0.0037,0.157,0.204,195.9844
14:18:03:574,-0.2536,1.5323,7.4958,46.9275,0.1399,0.0965,0.2223,195.6719
14:18:03:594,-0.2776,1.7955,7.1225,46.9698,0.2321,0.1057,0.2376,195.6406
14:18:03:615,-0.0718,2.0973,7.2302,47.0288,0.2437,0.1307,0.259,195.9531
14:18:03:635,0.2874,2.5232,7.9795,46.806,0.2401,0.1209,0.2584,196.3906
14:18:03:655,0.644,2.9351,8.9085,47.0083,0.3011,0.0678,0.1759,196.3906
14:18:03:676,0.443,2.9853,9.5357,47.0328,0.4007,0.0299,0.0092,196
14:18:03:698,-0.0574,2.6097,10.0289,47.2014,0.452,0.0531,-0.1442,196
14:18:03:715,-0.4693,2.2385,10.4934,47.2673,0.4374,0.1326,-0.1924,196.2656
14:18:03:734,-0.8524,2.0279,10.8093,47.4511,0.3879,0.2474,-0.146,196.2656
14:18:03:753,-1.051,2.0088,10.7447,47.7067,0.3134,0.3641,-0.0318,197.1875
14:18:03:775,-1.0534,2.0542,10.7351,48.1302,0.2199,0.3903,0.1057,197.1875
14:18:03:795,-0.8644,1.9175,11.4844,48.2991,0.1442,0.2517,0.2083,197.1562
14:18:03:816,-1.0606,1.6089,12.2195,48.2916,0.1778,0.0208,0.2566,197.1562
14:18:03:837,-1.3741,1.264,12.0565,48.5804,0.3121,-0.1704,0.317,196.6875
14:18:03:854,-1.343,1.2425,11.5756,48.7523,0.3311,-0.2242,0.4325,196.6875
14:18:03:875,-1.0654,1.4701,12.0302,48.991,0.1087,-0.1191,0.5546,196.2188
14:18:03:900,-0.8477,1.4533,12.7247,49.2663,-0.1374,0.0623,0.6225,196.2188
14:18:03:917,-0.6846,1.1492,13.1507,49.302,-0.2004,0.1344,0.6334,195.7344
14:18:03:935,-0.8931,0.6248,12.8994,49.3667,-0.0244,0.0312,0.6121,195.6875
14:18:03:953,-1.3047,0.2584,11.5875,49.4084,0.2767,-0.0977,0.631,195.5781
14:18:03:977,-0.5985,1.1515,8.013,49.6553,0.3744,-0.1283,0.8277,195.5625
14:18:03:999,0.2608,1.7477,7.6349,49.6406,0.0617,-0.2022,0.7746,196
14:18:04:017,0.7158,1.6352,8.3842,49.5615,-0.3048,-0.3708,0.54,196.0469
14:18:04:036,0.5195,0.9745,9.7702,49.5612,-0.6066,-0.4801,0.2425,196.25
14:18:04:053,-0.0742,0.2922,10.7518,49.3047,-0.7452,-0.3604,0.0342,196.2656
14:18:04:075,-0.7229,-0.0263,10.5724,49.2178,-0.6615,-0.0574,-0.0092,195.9531
14:18:04:099,-1.0104,0.0144,9.2916,48.8328,-0.4325,0.2559,0.0898,195.9219
14:18:04:115,-0.8788,0.3616,7.7904,48.8701,-0.2022,0.4197,0.2352,195.4219
14:18:04:134,-0.5411,0.7516,6.5886,48.6062,-0.0519,0.3867,0.3378,194.4844
14:18:04:154,-0.28,1.1348,6.2151,48.3567,-0.0275,0.2443,0.3616,194.4844
14:18:04:175,-0.2082,1.3358,6.4786,48.3905,-0.0721,0.0959,0.3231,192.9531
14:18:04:193,-0.256,1.4004,6.9093,48.1524,-0.1155,-0.0067,0.2651,192.9531
14:18:04:216,-0.2177,1.4677,7.7689,48.2514,-0.1442,-0.077,0.2236,191.625
14:18:04:234,-0.1388,1.5754,8.688,47.9427,-0.1478,-0.0715,0.1888,191.625
14:18:04:255,-0.1196,1.6974,9.1167,47.8795,-0.1148,-0.0073,0.1619,190.0469
14:18:04:275,0.1196,1.9606,9.6841,47.8731,-0.0959,0.0574,0.1533,190.0469
14:18:04:294,0.2249,2.2361,10.1438,47.8059,-0.113,0.1906,0.1148,188.6562
14:18:04:316,0.1316,2.473,10.5413,47.8315,-0.146,0.3537,0.0312,188.6562
14:18:04:336,-0.2297,2.327,10.85,47.7379,-0.1374,0.4172,-0.0849,188.2969
14:18:04:353,-0.8139,1.5849,11.0513,47.87,-0.077,0.2602,-0.1851,188.2969
14:18:04:375,-1.2138,0.7923,11.7718,47.7876,-0.0092,-0.0977,-0.1784,188.0469
14:18:04:394,-1.2736,0.1364,13.1195,47.943,0.0556,-0.4325,-0.0641,188.0469
14:18:04:416,-0.6464,-0.0215,13.1076,48.1019,0.1301,-0.4386,0.1374,187.375
14:18:04:434,0.4717,0.4669,11.7144,48.2877,0.0904,-0.2217,0.3091,187.2969
14:18:04:454,1.3549,0.9075,11.5158,48.2954,-0.1668,-0.0977,0.2767,186.5781
14:18:04:476,1.3454,0.5459,12.8922,48.3261,-0.4532,-0.1179,-0.2627,186.5
14:18:04:495,-0.6607,-1.7429,13.8715,48.1772,-0.1545,-0.0379,-0.3561,185.9844
14:18:04:517,-0.9434,-1.8458,11.8101,47.8423,0.1961,0.1741,-0.1771,185.9375
14:18:04:536,-0.1101,-0.8716,9.3754,47.8419,0.3952,0.3128,0.0959,185.5781
14:18:04:554,1.1492,0.201,7.9484,47.7408,0.3952,0.193,0.1906,185.5312
14:18:04:575,1.8697,0.9697,7.7952,47.7551,0.2193,-0.0434,0.0244,185.2188
14:18:04:592,1.6615,0.9362,8.7434,47.5926,-0.0641,-0.2004,-0.3262,185.1875
14:18:04:615,0.4669,0.0861,9.7822,47.7974,-0.3262,-0.1558,-0.6756,185.125
14:18:04:634,-0.9817,-0.6775,10.1366,47.7563,-0.438,0.0593,-0.7941,185.125
14:18:04:654,-1.762,-0.7038,9.4352,48.0935,-0.3622,0.3005,-0.6127,185.4531
14:18:04:675,-1.398,-0.0909,8.3339,48.2618,-0.1961,0.4355,-0.2773,185.5312
14:18:04:693,-0.4382,0.8067,7.5918,48.244,-0.0159,0.3928,-0.0061,185.5312
14:18:04:716,0.3425,1.7142,7.2206,48.3589,0.1442,0.27,0.0874,184.9062
14:18:04:734,1.0415,2.3318,7.2565,48.2378,0.2639,0.171,0.0098,184.9062
14:18:04:754,1.4246,2.7532,8.1473,48.5082,0.369,0.1142,-0.2046,185.0938
14:18:04:775,0.8477,2.5642,8.3985,48.5979,0.5553,0.1161,-0.5009,185.0938
14:18:04:794,-0.3568,1.8601,7.4384,49.0416,0.7287,0.1539,-0.7104,185.6094
14:18:04:815,-1.1228,1.5634,7.1536,49.2405,0.6933,0.1271,-0.678,185.6719
14:18:04:835,-1.3741,1.6831,8.1951,49.5797,0.532,0.0232,-0.4844,185.6719
14:18:04:854,-1.4581,1.8625,9.1047,50.1613,0.4624,-0.0849,-0.2645,185.4062
14:18:04:875,-1.4198,2.0877,9.4687,50.5608,0.4649,-0.1356,-0.0672,185.7812
14:18:04:894,-1.3573,2.4562,9.6266,51.058,0.3861,-0.0702,0.0941,185.7812
14:18:04:917,-1.5108,2.7269,9.8495,51.2636,0.1723,0.0812,0.2089,187.2969
14:18:04:935,-1.7142,2.7197,10.7901,51.466,-0.058,0.1222,0.3005,187.2969
14:18:04:954,-1.5323,2.6886,11.9201,51.463,-0.1148,-0.0611,0.4087,188.0781
14:18:04:976,-0.8501,2.6145,13.0837,51.3942,0.0837,-0.3292,0.4954,188.1562
14:18:04:995,-0.7947,2.4371,12.8228,51.4661,0.0299,-0.1833,0.4545,188.0312
14:18:05:017,-0.9051,2.0495,13.1818,51.2645,-0.1808,0.0012,0.3946,188.0312
14:18:05:036,-1.0917,1.5132,13.5553,51.1062,-0.3384,0.1509,0.3573,188.2812
14:18:05:054,-1.3765,0.8378,13.3759,50.7391,-0.2767,0.1643,0.3641,188.2969
14:18:05:075,-1.6065,0.3209,12.4182,50.2893,-0.0446,0.1008,0.4306,189.6562
14:18:05:093,-1.4797,0.2704,10.8428,50.1385,0.1771,0.0562,0.5546,189.7812
14:18:05:116,-0.9123,0.7564,9.2028,49.6651,0.2486,0.0134,0.6591,191.0938
14:18:05:135,-0.1172,1.2473,8.0752,49.4487,0.1087,-0.0812,0.62,191.2344
14:18:05:155,0.2082,1.2066,8.1401,49.1216,-0.2028,-0.2205,0.4032,191.7188
14:18:05:176,-0.0191,0.486,9.1454,48.8129,-0.5595,-0.2914,0.1124,191.5312
14:18:05:193,-0.7325,-0.2273,10.1629,48.4588,-0.7526,-0.2547,-0.0892,191.5312
14:18:05:216,-1.3047,-0.6942,10.139,48.2492,-0.7013,-0.1136,-0.1032,190.7188
14:18:05:234,-1.5347,-0.7684,8.9204,48.0459,-0.4807,0.0153,0.0617,190.7188
14:18:05:258,-1.2473,-0.3185,8.0082,47.6365,-0.2761,0.0776,0.3183,189.7344
14:18:05:275,-0.577,0.3688,7.1584,47.343,-0.0684,0.1228,0.5412,189.7344
14:18:05:293,0.0048,0.9075,6.2127,46.9979,0.1008,0.0599,0.5974,189.7188
14:18:05:363,0.1507,1.0367,6.1217,46.6184,0.0843,-0.0941,0.5058,188.7969
14:18:05:363,-0.0024,0.9314,6.9212,46.303,-0.0049,-0.2486,0.3879,188.7812
14:18:05:363,-0.1077,0.9482,7.9364,46.0171,-0.0379,-0.3787,0.325,187.875
14:18:05:375,0.0861,1.075,8.7338,45.6446,-0.0226,-0.4001,0.2944,186.7969
14:18:05:393,0.2776,1.2927,9.3012,45.3383,-0.0312,-0.2938,0.2407,186.7969
14:18:05:415,0.2608,1.4342,9.7893,45.1041,-0.0666,-0.124,0.1411,185.4375
14:18:05:433,0,1.4342,10.005,44.8291,-0.0757,0.055,0.0415,185.4375
14:18:05:454,-0.1771,1.6496,9.5859,44.4983,-0.0483,0.1796,0.0024,184.8906
14:18:05:474,-0.2417,1.8697,9.6194,44.5375,-0.0428,0.1148,-0.0226,184.8281
14:18:05:494,-0.4382,1.6591,10.5509,44.1034,-0.0617,-0.1222,-0.0806,184.9062
14:18:05:517,-0.6416,1.2736,11.7431,43.8504,-0.066,-0.3329,-0.1002,184.9062
14:18:05:536,-0.7325,0.9769,12.4684,43.7958,-0.0538,-0.3763,-0.0415,184.4375
14:18:05:554,0.4023,0.9936,11.1159,43.6822,-0.1497,-0.1252,0.1997,184.3906
14:18:05:574,1.1228,0.9003,11.0513,43.3875,-0.3781,-0.1533,0.1863,183.25
14:18:05:593,1.4079,0.1771,12.9927,43.2379,-0.6475,-0.2981,0.0244,183.1406
14:18:05:617,0.6942,-0.9625,15.1188,42.9647,-0.7281,-0.3525,-0.1747,182.2812
14:18:05:634,-0.1866,-2.0662,16.0095,42.4191,-0.5327,-0.1533,-0.2162,182.1875
14:18:05:653,-0.5267,-2.3462,14.3527,42.2948,-0.1228,0.2364,-0.0092,181.6406
14:18:05:674,0.309,-1.3765,11.147,42.3163,0.2969,0.5015,0.3213,181.2344
14:18:05:693,1.8266,-0.1244,8.9133,41.9337,0.5021,0.4148,0.4765,181.2344
14:18:05:716,2.7221,0.5626,8.0943,41.6031,0.4875,0.1124,0.306,181.1094
14:18:05:733,2.7317,0.5219,8.6306,41.5114,0.3158,-0.168,-0.058,181.1094
14:18:05:753,1.7501,-0.2752,9.7989,41.3843,0.0831,-0.2126,-0.4288,181.2188
14:18:05:775,0.352,-1.0869,10.2515,41.4578,-0.0177,-0.0208,-0.5962,181.2188
14:18:05:793,-0.4214,-1.142,9.0209,41.5194,0.0428,0.2926,-0.452,181.2188
14:18:05:816,-0.2345,-0.3185,7.18,41.5645,0.1093,0.4978,-0.1442,181.4375
14:18:05:835,0.4095,0.699,6.1887,41.3683,0.0971,0.4704,0.0886,181.4375
14:18:05:855,0.8548,1.427,5.9423,41.3408,0.0678,0.2834,0.1466,181.1562
14:18:05:874,1.0558,1.8314,6.0476,41.5183,0.0397,0.0867,0.0849,180.875
14:18:05:894,0.984,1.9104,6.3203,41.5822,-0.0281,-0.0012,-0.0421,180.875
14:18:05:919,0.6464,1.7357,6.8088,41.5654,-0.1442,0.0153,-0.171,181.25
14:18:05:935,0.2874,1.4892,7.3642,41.3526,-0.2443,0.0373,-0.2401,181.25
14:18:05:955,-0.0048,1.2736,7.8885,41.1811,-0.2938,0.0122,-0.2315,180.8906
14:18:05:975,0.0215,1.2353,8.6258,40.9753,-0.3054,-0.0574,-0.1552,180.8594
14:18:05:994,0.2874,1.4749,9.4639,40.7901,-0.2712,-0.1338,-0.0495,180.1094
14:18:06:019,0.6176,1.8553,10.2299,40.7082,-0.1881,-0.1533,0.0208,180.0469
14:18:06:036,0.6488,2.0997,10.6155,40.4977,-0.102,-0.0513,0.014,180.5781
14:18:06:057,-0.4478,1.8338,10.8404,40.2488,-0.0684,0.2755,-0.0391,180.6406
14:18:06:076,-0.9434,1.4557,11.2211,40.2062,-0.0782,0.2981,0.0348,181.6562
14:18:06:094,-1.0989,1.2975,11.9178,40.0627,-0.044,0.1564,0.1796,181.7656
14:18:06:119,-1.0271,1.0223,12.7463,40.0638,0.0379,-0.0415,0.325,181.7656
14:18:06:136,-0.9984,0.6607,13.4046,39.96,0.1533,-0.1472,0.452,181.75
14:18:06:154,-1.0845,0.5243,12.4397,39.8467,0.2223,0.0031,0.5913,181.5
14:18:06:175,-0.9434,0.5554,11.5851,39.4793,0.0745,0.223,0.722,181.6719
14:18:06:193,-0.874,0.3832,11.9824,39.049,-0.1771,0.2859,0.7965,181.6719
14:18:06:220,-0.6224,0.2536,12.6,38.6311,-0.2608,0.1594,0.8479,182.1406
14:18:06:234,-0.2632,0.0407,13.3639,37.9993,-0.1503,-0.0996,0.8485,182.1406
14:18:06:256,0.0598,-0.2584,13.5841,37.5924,0.0764,-0.2785,0.7904,182.1562
14:18:06:274,0.0431,-0.4669,12.3918,36.9114,0.3207,-0.2511,0.7037,182.3281
14:18:06:294,0.1436,-0.3425,10.7423,36.3507,0.4099,-0.124,0.6383,182.3281
14:18:06:318,0.6607,0.0431,9.7008,35.9444,0.3244,-0.1185,0.5687,182.2812
14:18:06:335,1.2185,0.4023,10.1079,35.5912,0.1582,-0.2926,0.3989,182.2812
14:18:06:355,1.3908,0.364,11.4078,35.2883,0.0464,-0.4667,0.1155,182.3125
14:18:06:374,0.8453,-0.2082,11.6498,35.148,0.069,-0.3635,-0.1912,182.0156
14:18:06:394,-0.1101,-0.7493,10.4025,34.9639,0.1503,0.0153,-0.3531,182.0156
14:18:06:419,-0.7445,-0.8306,8.2478,34.7302,0.223,0.4221,-0.2865,181.2031
14:18:06:436,-0.9362,-0.3736,6.1409,34.7679,0.2578,0.6066,-0.0745,181.2031
14:18:06:454,-0.5459,0.4549,4.7812,34.8867,0.2303,0.4911,0.1435,179.7812
14:18:06:475,0.1077,1.0702,4.5392,35.0406,0.1228,0.1918,0.2401,179.7812
14:18:06:494,0.4358,1.2951,5.3509,34.9424,-0.0171,-0.1356,0.201,178.0469
14:18:06:517,0.5674,1.3286,6.5647,34.869,-0.0904,-0.3958,0.1051,177.875
14:18:06:536,0.5411,1.2114,7.369,34.5975,-0.1313,-0.4813,-0.088,176.2656
14:18:06:555,0.4501,1.1228,7.9771,34.5842,-0.2083,-0.3512,-0.1607,176.0938
14:18:06:577,0.3473,1.0056,8.4296,34.671,-0.2822,-0.2413,-0.2162,174.8594
14:18:06:595,0.0933,0.8501,9.4735,34.3261,-0.2957,-0.1851,-0.2199,174.7344
14:18:06:615,0.1723,1.1803,9.4232,33.9558,-0.2498,-0.1405,-0.1735,173.8281
14:18:06:636,0.5315,1.6998,9.3873,33.3038,-0.2321,-0.1283,-0.1374,173.75
14:18:06:654,0.9266,2.0734,9.7223,33.1974,-0.2822,-0.1411,-0.182,173.9062
14:18:06:675,0.8931,1.8099,10.7136,33.153,-0.369,-0.1894,-0.3176,174.5469
14:18:06:693,0.3449,1.0726,12.0518,32.962,-0.4386,-0.2199,-0.441,174.5469
14:18:06:719,-0.2034,0.268,13.261,32.9266,-0.4459,-0.1912,-0.4374,174.4531
14:18:06:735,-0.4597,-0.4597,13.9217,32.5162,-0.3354,-0.1545,-0.2926,174.4531
14:18:06:753,0.2177,-0.2273,12.9999,32.3673,-0.1466,-0.0806,-0.0373,174.4531
14:18:06:775,1.2951,0.4071,11.8938,32.2221,-0.0819,-0.0519,0.0922,173.9688
14:18:06:795,1.6998,0.1747,12.2985,32.1843,-0.2419,-0.0874,-0.0678,173.9688
14:18:06:819,1.0271,-1.0726,13.8428,31.9192,-0.4368,-0.0641,-0.3537,173.9531
14:18:06:833,0.0048,-2.4371,14.9489,31.5008,-0.3769,-0.0116,-0.4936,173.9531
14:18:06:854,-0.6105,-3.1244,14.0557,31.3701,-0.0403,0.1368,-0.358,174.2969
14:18:06:874,0.1053,-2.2911,11.2953,31.1839,0.3152,0.3488,-0.0043,174.7656
14:18:06:894,1.628,-0.8596,8.8152,31.2488,0.4514,0.3842,0.2419,174.7656
14:18:06:919,2.6791,0.0694,7.6564,31.3368,0.361,0.1558,0.1741,175.1094
14:18:06:934,2.8418,0.3329,8.7888,31.08,0.0953,-0.1527,-0.1112,175.1094
14:18:06:954,2.0136,-0.1436,10.5245,31.1254,-0.1332,-0.2278,-0.4478,175.6406
14:18:06:974,0.7181,-0.7134,10.6705,31.2017,-0.1741,0.0605,-0.6304,175.6406
14:18:06:994,-0.122,-0.6392,8.8199,31.2515,-0.0812,0.4783,-0.5614,176.4844
14:18:07:019,-0.1484,0.0144,6.6054,31.3602,-0.0086,0.675,-0.3622,176.5781
14:18:07:035,0.1842,0.821,6.0691,31.2785,-0.0116,0.5033,-0.2211,176.9062
14:18:07:055,0.4573,1.3286,6.5432,31.3909,0.011,0.1833,-0.1973,176.9375
14:18:07:075,0.3162,1.3382,7.4982,31.1732,0.1069,-0.0855,-0.3396,176.9062
14:18:07:094,-0.4741,0.9434,7.7689,31.437,0.0452,0.0635,-0.3867,176.8906
14:18:07:119,-0.9912,0.565,8.2549,31.3043,-0.0171,0.168,-0.3158,177.6875
14:18:07:133,-0.9505,0.5124,8.8199,31.234,0.0153,0.1228,-0.1417,177.7656
14:18:07:153,-0.4358,0.8979,9.1908,31.278,0.1161,0.0018,0.0556,178.125
14:18:07:173,0.2417,1.3621,9.8351,31.2648,0.204,-0.1045,0.1747,177.7656
14:18:07:193,0.7875,1.7429,10.491,31.2172,0.2547,-0.0819,0.1863,177.7656
14:18:07:218,0.8788,1.7812,10.8284,30.9068,0.2718,0.0855,0.1124,177.7344
14:18:07:235,0.4406,1.6113,10.8188,30.8302,0.2498,0.3317,0.0348,178.2969
14:18:07:257,0.1149,1.5993,10.2036,30.843,0.1997,0.5632,0.036,178.3594
14:18:07:275,0.122,1.573,9.8013,30.7908,0.1429,0.565,0.08,179.6094
14:18:07:294,0.2827,1.3525,10.6609,30.8884,0.1014,0.2914,0.0947,179.625
14:18:07:318,0.2752,1.1037,11.6904,30.9742,0.1148,0.0562,0.0819,180.1719
14:18:07:335,0.2201,0.9601,11.6569,30.7305,0.1155,0.0562,0.0635,180.1719
14:18:07:354,0.0718,0.8019,11.913,30.706,0.0079,0.1185,0.0244,180.6719
14:18:07:423,-0.2465,0.5291,12.6912,30.5858,-0.1686,0.1857,-0.0275,181.4844
14:18:07:424,-0.6583,0.0598,13.4357,30.5414,-0.2682,0.2101,-0.0593,181.4844
14:18:07:424,-1.2329,-0.699,14.0653,30.2262,-0.2285,0.1558,-0.0574,181.9688
14:18:07:436,-2.0375,-1.3741,14.0533,30.1987,-0.033,0.1423,0.0379,181.9688
14:18:07:453,-2.2481,-1.5108,11.7598,29.8864,0.2822,0.2272,0.2798,181.7656
14:18:07:474,-1.6807,-0.7708,9.3826,29.6123,0.4374,0.2083,0.5449,181.7656
14:18:07:494,-0.9051,-0.2058,8.5349,29.716,0.3262,-0.0098,0.6328,181.5156
14:18:07:520,-0.4095,-0.2225,9.9739,29.5501,0.0898,-0.3396,0.5308,181.4844
14:18:07:535,-0.5961,-0.6272,11.3527,29.6875,-0.0238,-0.5382,0.3537,181.3906
14:18:07:554,-0.9625,-0.9577,11.5086,29.7092,-0.022,-0.4545,0.2553,181.375
14:18:07:576,-0.5626,-0.2249,9.1143,29.9423,0.0483,0.0678,0.4545,181.1562
14:18:07:595,-0.0096,0.5339,7.5556,29.808,0.1533,0.1026,0.5467,181.1406
14:18:07:618,0.4382,1.063,6.2533,29.828,0.2413,0.0202,0.5284,181.0156
14:18:07:635,0.8764,1.4605,5.2837,29.6864,0.2382,-0.0745,0.4264,180.9531
14:18:07:653,1.0534,1.6376,5.2406,29.4425,0.1069,-0.1637,0.2449,180.9531
14:18:07:674,0.8429,1.4151,5.851,29.1926,-0.0452,-0.2614,0.0257,180.9844
14:18:07:692,0.3903,0.9075,6.6413,29.1276,-0.1197,-0.3824,-0.1362,180.9844
14:18:07:715,0.0526,0.5794,7.4264,28.8188,-0.1582,-0.4697,-0.1662,180.9844
14:18:07:735,0.2154,0.6009,8.4679,28.5215,-0.204,-0.5156,-0.0953,180.6719
14:18:07:754,0.5171,0.7971,9.7606,28.2537,-0.2193,-0.5278,-0.0348,180.6406
14:18:07:775,0.4549,0.8835,10.6442,28.0335,-0.1674,-0.4526,-0.0348,179.4219
14:18:07:794,0.1555,0.9386,10.6011,27.8994,-0.099,-0.2486,-0.044,179.4219
14:18:07:818,0.1196,1.2138,9.993,27.7352,-0.0825,-0.0367,-0.0171,178.5469
14:18:07:834,0.3162,1.4486,9.9284,27.7764,-0.1417,-0.0073,-0.0171,177.9844
14:18:07:854,0.486,1.2257,10.9699,27.5315,-0.2333,-0.1454,-0.0861,177.9844
14:18:07:874,0.4167,0.6416,12.2889,27.6066,-0.2449,-0.3042,-0.1631,176.9062
14:18:07:894,0.2345,0.1125,12.8061,27.4469,-0.1643,-0.3378,-0.1582,176.9062
14:18:07:918,0.7014,-0.0311,12.1597,27.3,-0.1093,-0.2016,-0.0483,175.8906
14:18:07:936,1.4366,0.1436,11.2857,27.2135,-0.1826,-0.0586,0.0379,175.8906
14:18:07:953,2.0375,0.352,11.5086,26.957,-0.3671,-0.0721,-0.0263,175.6406
14:18:07:974,1.8793,-0.3832,12.9114,26.9015,-0.5705,-0.1295,-0.2596,175.6406
14:18:07:995,1.2114,-1.6998,14.4054,26.6611,-0.6341,-0.1423,-0.4813,176.0156
14:18:08:020,0.3018,-2.8298,15.425,26.4046,-0.493,-0.0641,-0.5131,176.0469
14:18:08:035,0.0215,-3.2058,14.6327,26.2103,-0.135,0.1527,-0.2737,176.25
14:18:08:053,1.2568,-2.2193,11.633,25.8908,0.3201,0.3787,0.1515,176.2656
14:18:08:077,4.4459,0.5315,7.3594,26.0564,0.6524,0.1087,0.2596,176.3906
14:18:08:095,4.6014,0.7158,7.381,26.1656,0.4484,-0.1393,-0.1753,176.4062
14:18:08:114,3.6365,0.2393,8.7625,26.4752,0.1429,-0.1918,-0.664,176.4375
14:18:08:137,2.0447,-0.6081,9.2459,26.7289,-0.0208,-0.0012,-0.9957,176.4375
14:18:08:153,0.7828,-0.9936,8.5899,26.9826,-0.0476,0.2926,-1.0287,176.6875
14:18:08:174,0.4406,-0.4884,7.4982,27.25,-0.0312,0.4826,-0.8344,176.7031
14:18:08:193,0.8501,0.4454,6.7011,27.5593,0.0336,0.4184,-0.6389,176.9531
14:18:08:215,1.1898,1.051,6.2892,28.2227,0.0867,0.2468,-0.6017,176.9688
14:18:08:235,1.1468,1.2353,6.0787,28.547,0.0531,0.1796,-0.689,176.9375
14:18:08:256,0.6344,1.2305,6.1863,28.9238,-0.091,0.2559,-0.8027,176.9375
14:18:08:274,-0.0191,1.0726,6.6054,29.2541,-0.2718,0.3781,-0.8747,177.6875
14:18:08:293,-0.577,0.8835,7.2206,29.6877,-0.3757,0.3836,-0.8631,177.7031
14:18:08:314,-0.9769,0.7612,8.0393,30.1498,-0.369,0.2431,-0.7739,178.5156
14:18:08:337,-1.2233,0.711,8.997,30.4763,-0.295,0.0544,-0.6304,178.5156
14:18:08:353,-1.252,0.7421,9.8399,30.7619,-0.2132,-0.0379,-0.4551,177.9219
14:18:08:375,-1.0223,0.9123,10.3065,31.0387,-0.1588,0.0232,-0.27,177.9062
14:18:08:394,-0.7851,1.2162,10.582,31.2959,-0.1356,0.1545,-0.1148,177.9062
14:18:08:413,-0.7086,1.5084,10.6585,31.314,-0.1258,0.2694,-0.0122,179.7344
14:18:08:436,-0.6559,1.5802,10.7806,31.4869,-0.1234,0.2859,0.0531,179.7344
14:18:08:453,-0.6846,1.3334,11.4987,31.3632,-0.135,0.1637,0.0825,181.7188
14:18:08:474,-0.699,0.9745,12.6239,31.3735,-0.1417,0.0281,0.0983,181.7188
14:18:08:495,-0.996,0.5076,13.3472,31.4408,-0.1185,0.0055,0.1075,183.0469
14:18:08:519,-1.1827,0.0718,13.2371,31.3087,-0.1423,0.1509,0.1533,183.0469
14:18:08:537,-1.0654,-0.0359,13.5841,31.2209,-0.281,0.3128,0.2419,184.5
14:18:08:554,-0.984,-0.0167,14.0198,31.1744,-0.361,0.3488,0.3164,184.6562
14:18:08:576,-1.3836,-0.9075,14.968,31.1897,0.0672,-0.0519,0.3977,186.2812
14:18:08:595,-1.6472,-1.3573,13.2108,30.9354,0.4783,-0.1063,0.5235,186.4375
14:18:08:621,-1.398,-1.0774,11.2307,30.9196,0.6829,-0.0574,0.7214,187.75
14:18:08:635,-0.7851,-0.6248,10.0337,30.6781,0.6457,-0.0837,0.857,187.8906
14:18:08:653,0.0431,-0.2201,10.4934,30.6415,0.5198,-0.2987,0.8619,188.5781
14:18:08:674,0.7277,0.0933,11.5205,30.7119,0.4697,-0.5137,0.7397,188.6562
14:18:08:693,0.8859,0.1268,11.4796,30.6123,0.5143,-0.4985,0.5259,188.7344
14:18:08:715,0.7851,0.0096,10.3639,30.5788,0.5314,-0.2285,0.3201,188.75
14:18:08:735,0.4382,-0.0455,8.9324,30.6686,0.4905,0.1173,0.1845,188.5625
14:18:08:754,0.0598,0.0694,7.4121,30.9614,0.4667,0.3512,0.1283,188.5312
14:18:08:775,-0.2874,0.2058,6.0476,31.2191,0.4795,0.3983,0.1093,188.2969
14:18:08:793,-0.5387,0.3281,4.7716,31.7163,0.4832,0.3396,0.1148,188.2812
14:18:08:814,-0.6416,0.4597,3.7445,32.0482,0.419,0.212,0.1484,187.7656
14:18:08:836,-0.6033,0.6679,3.5504,32.391,0.2547,0.0153,0.1869,187.7656
14:18:08:853,-0.364,0.9817,4.2832,32.8393,0.0354,-0.1991,0.2144,186.9375
14:18:08:874,0.0861,1.2568,5.5448,33.0813,-0.1417,-0.4099,0.2095,186
14:18:08:894,0.4884,1.4557,7.0173,33.1709,-0.2431,-0.5663,0.1552,186
14:18:08:915,0.754,1.6113,8.5947,33.2197,-0.2969,-0.6127,0.0586,184.4531
14:18:08:936,0.6918,1.5514,9.8255,33.1579,-0.3176,-0.5198,-0.0501,184.4531
14:18:08:953,0.1795,1.3167,10.8787,32.9464,-0.3402,-0.3207,-0.124,182.875
14:18:08:975,-0.3042,1.0606,11.6569,32.6879,-0.3341,-0.0819,-0.0928,182.875
14:18:08:994,-0.2345,1.2497,11.6833,32.6709,-0.2957,0.1203,0.0385,182.125
14:18:09:015,0.0957,1.6041,12.1286,32.4946,-0.2969,0.1063,0.0965,182.125
14:18:09:036,0.0957,1.1324,13.2634,32.3346,-0.2847,-0.0593,0.0177,181.8594
14:18:09:054,-0.1436,0.3185,13.6726,32.4354,-0.1833,-0.1564,-0.0147,181.8281
14:18:09:074,0.0287,-0.0144,12.6984,32.5862,-0.0953,-0.1045,0.102,181.6406
14:18:09:094,0.7899,0.0694,11.712,32.6238,-0.1649,-0.0812,0.2529,181.625
14:18:09:116,1.6113,0.0718,12.5354,32.7146,-0.4575,-0.2938,0.1209,181.3438
14:18:09:139,1.6591,-0.4238,14.0533,32.7345,-0.3647,-0.1735,-0.0507,181.3125
14:18:09:153,0.0981,-2.3174,13.7181,32.5925,-0.1057,0.0874,-0.0727,180.9375
14:18:09:175,0.0574,-2.2433,11.3527,32.5879,0.2236,0.2987,0.1338,180.9062
14:18:09:193,1.2114,-1.185,8.985,32.7302,0.4618,0.2749,0.3934,180.7656
14:18:09:214,2.6312,-0.1699,7.4384,32.6977,0.5101,0.0104,0.416,180.75
14:18:09:236,3.4427,0.3257,7.7258,32.4813,0.2877,-0.303,0.1387,180.9375
14:18:09:257,3.1627,0.1316,9.495,32.7743,-0.0751,-0.4105,-0.3018,180.9531
14:18:09:274,1.9175,-0.5578,10.4839,32.7067,-0.3085,-0.1936,-0.6866,180.9688
14:18:09:293,0.553,-0.8572,9.859,32.9347,-0.3189,0.1894,-0.8051,180.9531
14:18:09:315,0.0072,-0.5171,7.8766,33.1658,-0.2089,0.5076,-0.6518,180.7812
14:18:09:338,0.1507,0.2922,6.306,33.3314,-0.1277,0.54,-0.4276,180.7812
14:18:09:353,0.5889,1.0606,6.0212,33.4941,-0.0996,0.3256,-0.3073,180.6719
14:18:09:375,0.9218,1.5299,6.2486,33.6539,-0.0788,0.1063,-0.3066,180.0938
14:18:09:394,1.1157,1.7955,6.6437,34.0729,-0.0739,0.0092,-0.3732,180.0938
14:18:09:414,1.0582,1.896,7.0866,33.9616,-0.1002,0.0244,-0.474,179.9688
14:18:09:436,0.8477,1.8434,7.5846,34.3036,-0.1454,0.0825,-0.5693,179.9688
14:18:09:492,0.6176,1.7524,8.3889,34.6908,-0.182,0.0983,-0.6316,179.8906
14:18:09:492,0.1747,1.5419,9.5237,34.8725,-0.1747,0.0751,-0.667,179.8906
14:18:09:500,-0.4573,1.209,10.2443,35.1012,-0.113,0.1277,-0.6444,179.0625
14:18:09:519,-0.8501,0.9673,10.8404,35.317,-0.0397,0.2517,-0.5272,179.0625
14:18:09:537,-0.9434,0.9912,11.1661,35.5476,0.0397,0.4007,-0.358,179.2812
14:18:09:557,-0.8764,1.3789,10.9122,35.7356,0.1295,0.4997,-0.1985,179.3125
14:18:09:574,-0.7732,1.6926,10.783,36.1946,0.1796,0.4563,-0.1087,180.75
14:18:09:594,-0.9242,1.5275,11.3719,36.6015,0.1759,0.2865,-0.0971,180.8906
14:18:09:614,-1.1874,1.0439,12.3535,36.862,0.1808,0.0935,-0.0825,181.875
14:18:09:634,-1.3621,0.5794,12.8061,37.2957,0.2217,-0.0153,-0.0244,181.9688
14:18:09:653,-0.8788,0.0215,13.0071,37.543,0.0947,-0.0507,0.0904,182.5469
14:18:09:673,-1.0726,-0.4884,14.027,37.8323,-0.1093,0.0226,0.0806,182.5938
14:18:09:693,-1.3095,-1.3023,14.5394,38.2124,-0.1435,0.0886,0.1069,183.4219
14:18:09:714,-1.7213,-1.9487,14.2854,38.4001,0.0092,0.1362,0.2114,183.5156
14:18:09:734,-1.9391,-2.0183,12.3607,38.4683,0.2834,0.215,0.4331,184.6719
14:18:09:753,-1.4821,-1.3573,9.7822,38.5178,0.4936,0.1967,0.697,184.7812
14:18:09:773,-0.4645,-0.5291,8.1182,38.675,0.4661,-0.011,0.8253,186.0469
14:18:09:794,0.431,-0.0311,8.9085,38.387,0.2205,-0.3299,0.733,186.1719
14:18:09:813,0.5746,-0.0885,10.6872,38.4926,0.0031,-0.5101,0.4942,187.1094
14:18:09:835,0.1053,-0.4932,11.0034,38.4694,-0.0391,-0.3628,0.2627,187.125
14:18:09:854,-0.5076,-0.7229,9.6864,38.303,0.0006,-0.0079,0.171,187.4375
14:18:09:874,-0.9529,-0.6846,7.8215,38.2636,0.0574,0.2511,0.2395,187.6562
14:18:09:894,-1.0654,-0.2752,6.428,38.2733,0.1142,0.2566,0.4111,187.6562
14:18:09:914,-0.6942,0.2874,5.7123,38.2248,0.1588,0.0684,0.5876,187.6875
14:18:09:933,-0.1125,0.7612,5.9327,37.9323,0.1442,-0.16,0.6719,187.6875
14:18:09:953,0.309,1.0893,6.603,37.9691,0.0794,-0.2847,0.6457,187.5156
14:18:09:973,0.4669,1.1348,7.3331,37.9685,0.0226,-0.3048,0.5394,187.5156
14:18:09:993,0.2608,0.9936,7.7761,37.7975,0.0049,-0.2755,0.4166,187.125
14:18:10:013,0.1436,0.9745,7.855,37.7979,0.0092,-0.2315,0.3512,187.125
14:18:10:034,0.309,1.2162,8.0082,37.6807,-0.014,-0.215,0.3311,185.9688
14:18:10:053,0.6966,1.5395,8.6737,37.6647,-0.0654,-0.2303,0.2957,185.9688
14:18:10:073,1.008,1.8984,9.4663,37.5567,-0.0861,-0.2419,0.2107,184.5156
14:18:10:093,0.8788,1.9534,9.6841,37.3985,-0.0684,-0.193,0.0696,184.375
14:18:10:113,0.4549,1.7166,9.4543,37.5469,-0.0825,-0.0825,-0.0593,183.6875
14:18:10:135,0.189,1.3693,10.5939,37.3511,-0.2663,-0.1326,-0.1344,183.6094
14:18:10:154,0.1914,0.862,11.5636,37.356,-0.3176,-0.2584,-0.1503,183.1875
14:18:10:174,0.2082,0.2225,12.21,37.2993,-0.3207,-0.3433,-0.1301,183.1406
14:18:10:192,0.6775,-0.256,12.2315,37.3165,-0.3201,-0.3506,-0.0611,182.1406
14:18:10:213,1.5778,-0.4621,11.336,37.1633,-0.3983,-0.273,-0.0263,182.0469
14:18:10:234,2.1452,-1.0319,11.9321,37.3211,-0.6438,-0.2682,-0.1723,180.7969
14:18:10:256,1.5419,-2.1165,13.7877,37.4066,-0.8674,-0.292,-0.4606,180.6719
14:18:10:274,0.0263,-3.0835,14.6184,37.3115,-0.8613,-0.1051,-0.6457,179.7812
14:18:10:293,-1.3789,-3.6535,13.663,37.2635,-0.6817,0.35,-0.5424,179.6875
14:18:10:314,-1.1228,-3.1771,11.1039,37.3869,-0.369,0.6426,-0.1332,179.0312
14:18:10:335,0.4908,-1.5586,8.9133,37.1632,-0.0819,0.4801,0.2957,178.9688
14:18:10:353,2.1667,-0.2704,8.2765,36.984,0.0031,0.0385,0.3897,178.4531
14:18:10:373,2.8968,0.2874,9.3826,37.0515,-0.1087,-0.3445,0.1478,178.4531
14:18:10:393,2.6145,0.1986,10.9555,36.9327,-0.3054,-0.3366,-0.2138,178.4531
14:18:10:413,1.4677,-0.3138,11.554,36.9882,-0.441,0.0379,-0.5052,178.6875
14:18:10:435,0.213,-0.6942,10.7686,37.0625,-0.3873,0.4374,-0.5693,178.6875
14:18:10:453,-0.4501,-0.5411,9.1071,37.1381,-0.1778,0.6047,-0.4038,179
14:18:10:474,-0.2273,0.0574,7.8742,37.1247,0.0507,0.4856,-0.1619,179
14:18:10:493,0.4908,0.6799,7.3499,37.4348,0.2144,0.2682,-0.0122,179.0938
14:18:10:514,1.0343,1.118,7.2039,37.8311,0.2883,0.1478,-0.0104,179.0938
14:18:10:534,1.1348,1.2114,7.0098,38.0851,0.2834,0.1558,-0.1264,179.7188
14:18:10:553,0.8115,1.0487,6.792,38.2373,0.2193,0.2217,-0.2737,179.7188
14:18:10:573,0.3353,0.8115,7.1656,38.52,0.1173,0.2431,-0.3793,180.7812
14:18:10:593,-0.1484,0.6105,8.2214,38.7488,0.044,0.1912,-0.4123,180.8906
14:18:10:614,-0.5339,0.4238,9.2267,39.0349,0.0647,0.1289,-0.3726,180.6406
14:18:10:635,-0.3616,0.6679,10.0098,39.1161,0.1442,0.102,-0.2645,180.625
14:18:10:654,0.146,1.1539,10.4073,39.2909,0.237,0.1405,-0.19,180.0938
14:18:10:674,0.3329,1.2712,10.5054,39.5614,0.2969,0.2859,-0.3109,180.0312
14:18:10:693,-0.5746,0.7875,10.7255,39.6441,0.2492,0.3451,-0.3231,180.7031
14:18:10:713,-0.7851,0.6799,10.9484,40.1815,0.2004,0.3586,-0.2572,180.7656
14:18:10:734,-0.7804,0.5171,11.5158,40.592,0.1765,0.2755,-0.1723,181.6562
14:18:10:753,-1.0917,0.2489,12.4421,40.7995,0.2095,0.1209,-0.0983,181.75
14:18:10:773,-1.2688,-0.079,13.0549,41.1667,0.3561,-0.0709,0.0006,181.9375
14:18:10:793,-0.8429,0.0144,12.1454,41.797,0.529,-0.1936,0.1448,181.9531
14:18:10:814,-0.4119,0.2704,11.7287,42.2254,0.4013,-0.1631,0.215,182.125
14:18:10:835,-0.4119,-0.0407,12.7606,42.4699,0.0232,-0.0067,0.1729,182.1406
14:18:10:853,-0.8477,-0.7947,14.1754,42.8113,-0.1888,0.1545,0.124,182.8906
14:18:10:873,-1.4677,-1.4198,13.4046,42.8578,0.0098,0.2303,0.1942,183.75
14:18:10:893,-1.3262,-1.3382,11.0273,42.7313,0.3561,0.1558,0.3983,183.75
14:18:10:914,-0.5171,-0.7469,9.5405,42.8741,0.4966,-0.077,0.554,184.2812
14:18:10:936,0.3616,-0.2752,9.1741,42.8971,0.3769,-0.2975,0.5235,184.2812
14:18:10:953,0.7373,-0.146,10.2203,42.624,0.0861,-0.35,0.3225,184.9219
14:18:10:973,0.2656,-0.4956,10.8117,42.2392,-0.1423,-0.2083,0.0507,184.9219
14:18:10:993,-0.7612,-0.9123,10.6394,41.9895,-0.2315,0.044,-0.1234,185.5938
14:18:11:013,-1.695,-1.0845,9.6601,41.6994,-0.193,0.2957,-0.1038,185.5938
14:18:11:037,-1.9896,-0.8258,8.0273,41.4102,-0.0605,0.4123,0.0788,185.9219
14:18:11:053,-1.884,-0.268,6.4905,41.3665,0.0434,0.3616,0.306,185.9219
14:18:11:075,-1.319,0.2489,5.959,41.2309,0.0647,0.1814,0.5039,185.9062
14:18:11:094,-0.5459,0.7923,6.1098,40.9989,0.0898,-0.0513,0.6383,185.9062
14:18:11:114,0.376,1.3956,6.4304,40.7446,0.1362,-0.2431,0.6719,185.5781
14:18:11:139,0.8764,1.8362,6.7442,40.7333,0.1735,-0.3909,0.5681,185.5469
14:18:11:153,0.9242,1.8888,7.1225,40.5234,0.2004,-0.529,0.3812,185.1875
14:18:11:177,0.929,1.8027,8.0465,40.6035,0.1747,-0.6304,0.1991,185.1406
14:18:11:194,0.5195,1.3884,9.9739,40.6197,-0.0037,-0.3879,-0.1332,184.3125
14:18:11:213,-0.0455,1.0774,10.3208,40.3635,-0.0531,-0.1814,-0.2602,184.2188
14:18:11:240,-0.6153,0.9194,10.2275,40.3026,-0.0617,-0.0092,-0.3066,183.4844
14:18:11:254,-0.6368,1.0056,10.0313,40.2522,-0.0684,0.0611,-0.2798,183.4062
14:18:11:276,-0.3975,0.7493,10.8045,40.5527,-0.1368,-0.0348,-0.2834,183.4375
14:18:11:293,-0.4956,-0.0431,12.6191,40.743,-0.2089,-0.1833,-0.3207,183.4375
14:18:11:315,-0.6296,-0.7947,13.8858,40.8636,-0.1478,-0.2297,-0.2694,183.3906
14:18:11:338,-0.0574,-1.0128,13.0765,40.8796,0.0122,-0.1435,-0.0861,183.375
14:18:11:353,1.1133,-0.498,11.8555,40.8767,0.0373,-0.0623,0.0855,182.4688
14:18:11:375,2.1165,-0.134,11.7622,41.0869,-0.1435,-0.0928,0.036,181.0781
14:18:11:393,1.9032,-0.8453,13.7901,40.8807,-0.408,-0.1607,-0.2376,181.0781
14:18:11:415,0.6655,-2.1093,15.4923,40.8827,-0.4209,-0.1087,-0.4551,180.1719
14:18:11:440,-0.2536,-2.7389,14.2017,40.7905,-0.0788,0.1405,-0.339,180.1719
14:18:11:455,0.4406,-1.8051,10.9313,40.7324,0.3219,0.3616,0.0684,180.0625
14:18:11:475,2.3318,-0.2154,8.5756,40.7625,0.5229,0.2773,0.3708,180.0625
14:18:11:565,3.7804,0.6344,7.4288,40.8373,0.5211,-0.0367,0.281,180.5312
14:18:11:565,4.3167,0.9601,7.7856,40.9169,0.2981,-0.3011,-0.0867,180.5312
14:18:11:566,3.3326,0.5339,9.186,40.9061,-0.0312,-0.284,-0.5699,181.1562
14:18:11:566,1.5586,-0.4047,9.3969,41.147,-0.2059,-0.0299,-0.9193,181.1562
14:18:11:575,0.2082,-0.8501,8.5469,41.1643,-0.215,0.2413,-0.9291,181.8125
14:18:11:594,-0.3042,-0.4047,7.3977,41.2386,-0.1564,0.3665,-0.689,181.8125
14:18:11:614,0.0598,0.4143,6.6724,41.3581,-0.0501,0.2291,-0.4239,182.1875
14:18:11:637,0.6224,1.1707,6.3491,41.5788,0.0519,-0.0134,-0.2883,182.2188
14:18:11:655,0.984,1.6256,6.4137,41.6413,0.0696,-0.1662,-0.306,182.1094
14:18:11:675,0.2632,1.386,7.223,41.9496,-0.1393,-0.0647,-0.5748,182.0938
14:18:11:695,-0.2752,0.9793,7.733,42.0687,-0.2089,-0.0476,-0.631,182.7344
14:18:11:714,-0.5698,0.7421,8.3937,42.1201,-0.2199,-0.1081,-0.5766,182.7969
14:18:11:739,-0.5171,0.7947,9.294,42.533,-0.201,-0.1649,-0.449,183.0625
14:18:11:754,-0.2441,1.0941,10.0433,42.8737,-0.1698,-0.1252,-0.3152,183.0781
14:18:11:777,-0.0072,1.3836,10.3783,43.0634,-0.1301,0.0037,-0.2327,182.5156
14:18:11:793,0.0814,1.561,10.4623,43.0869,-0.0977,0.1497,-0.2004,182.4688
14:18:11:814,0.0144,1.6807,10.4958,43.4276,-0.0892,0.2621,-0.1942,183.1875
14:18:11:836,-0.0407,1.7429,10.8188,43.466,-0.1075,0.3011,-0.2034,183.25
14:18:11:853,-0.4789,1.4821,11.4963,43.5384,-0.1246,0.2688,-0.2315,185.0312
14:18:11:875,-1.0271,0.9242,12.4636,44.0136,-0.1185,0.2254,-0.2217,186.375
14:18:11:894,-1.2568,0.5937,13.0214,43.976,-0.0922,0.2474,-0.1246,186.375
14:18:11:914,-0.9697,0.62,12.8157,43.9121,-0.091,0.3274,-0.0018,187.0625
14:18:11:938,-0.7397,0.5363,13.3974,44.007,-0.1643,0.3024,0.0263,187.0625
14:18:11:954,-0.9721,-0.1771,14.6758,44.306,-0.2162,0.193,-0.0305,188.1719
14:18:11:975,-1.5586,-1.1228,15.655,44.0271,-0.1338,0.124,-0.033,188.1719
14:18:11:995,-2.1691,-1.7261,15.9518,43.9644,0.135,0.1435,0.1301,189.4688
14:18:12:014,-1.9223,-1.8075,13.6104,44.162,0.5718,0.2559,0.4465,189.4688
14:18:12:037,-0.8234,-1.1109,10.9843,44.1384,0.8497,0.2535,0.7489,190.2812
14:18:12:053,0.2393,-0.3185,10.4599,44.1843,0.8314,0.0153,0.8295,190.2812
14:18:12:074,0.6751,-0.1244,11.7838,44.2312,0.7312,-0.295,0.686,190.7344
14:18:12:094,0.4167,-0.4478,12.5976,44.5221,0.7025,-0.3653,0.4783,190.7344
14:18:12:114,0.1484,-0.5124,11.8938,44.4598,0.7184,-0.179,0.3848,191.0781
14:18:12:140,0.4334,0.2922,11.1781,44.5185,0.7513,-0.0495,0.427,191.1094
14:18:12:154,1.1444,1.3549,10.3735,44.7239,0.8637,-0.025,0.438,191.5156
14:18:12:176,1.5849,1.9032,9.1789,44.9051,1.0006,0.047,0.2871,191.5469
14:18:12:196,1.1109,1.7405,7.6493,45.0143,1.0494,0.2272,0.0067,191.6406
14:18:12:216,0.0646,1.13,6.3826,45.3704,0.8784,0.6481,-0.3042,191.6406
14:18:12:234,-0.8477,0.6392,5.231,45.8197,0.8014,0.6909,-0.179,191.5781
14:18:12:256,-1.0343,1.0343,2.7365,45.8764,0.7055,0.5027,0.0312,191.5625
14:18:12:275,-0.5339,1.6472,3.1172,45.9689,0.5076,0.1344,0.1784,191.4688
14:18:12:293,-0.2154,1.896,4.0962,46.4546,0.2718,-0.1552,0.1973,191.4531
14:18:12:315,-0.1412,1.8577,4.6253,46.7356,0.0373,-0.2419,0.1362,190.4219
14:18:12:338,-0.3736,1.5443,5.4658,46.8514,-0.369,-0.069,0.0476,190.3125
14:18:12:354,-0.8979,1.0152,6.4448,46.8431,-0.9615,0.3848,0.0061,189.0312
14:18:12:377,-1.6878,1.1635,7.8909,46.5522,-1.4356,0.7336,0.0959,188.1875
14:18:12:393,-1.7261,2.0471,9.0592,46.1998,-1.4258,0.5492,0.2895,188.1875
14:18:12:416,-0.6942,2.8011,9.7702,45.8605,-1.0409,-0.0898,0.3671,187.4531
14:18:12:438,0.1842,2.8346,11.281,45.6641,-0.7733,-0.6732,0.1698,187.4531
14:18:12:455,-0.0909,2.0399,13.1315,45.284,-0.7788,-0.7739,-0.1765,187.3594
14:18:12:477,-1.2185,0.8378,14.0821,44.4388,-0.8637,-0.4465,-0.4056,187.3594
14:18:12:495,-1.6472,-0.0742,13.4094,44.0785,-0.9126,0.0134,-0.3415,187.9688
14:18:12:515,-1.1515,-0.3951,12.3153,43.5849,-0.9535,0.2462,-0.1228,188.0312
14:18:12:534,-0.2297,-0.6009,12.3416,43.1359,-1.0329,0.1698,0.0195,188.2188
14:18:12:555,0.2465,-1.2305,13.0717,42.7927,-1.0519,-0.0654,-0.0018,188.2188
14:18:12:574,-0.0407,-1.9415,14.0581,42.2911,-0.9089,-0.3372,-0.0709,187.9375
14:18:12:595,-0.297,-2.3821,13.5601,41.8825,-0.5656,-0.5076,-0.0153,187.9375
14:18:12:615,0.3042,-1.8386,12.7965,41.3169,-0.1454,-0.6218,0.1979,187.7656
14:18:12:640,1.6041,-1.4028,10.7399,41.2018,0.1875,-0.5363,0.3751,187.75
14:18:12:654,2.8131,-0.7181,9.3658,40.701,0.3659,-0.5968,0.416,187.125
14:18:12:676,3.189,0.067,8.7745,40.4514,0.336,-0.7416,0.2144,187.0625
14:18:12:697,2.0279,-0.3736,8.7697,40.3139,-0.1173,-0.8747,-0.6634,185.8594
14:18:12:716,0.8883,-0.8668,8.2813,40.0876,-0.3042,-0.6713,-0.8534,185.8594
14:18:12:737,0.2752,-0.9123,7.5197,39.9434,-0.3763,-0.3482,-0.7104,185.7969
14:18:12:757,0.1484,-0.4789,6.6509,39.9054,-0.3879,0.011,-0.3806,185.7969
14:18:12:776,0.2874,0.2512,6.0811,39.9252,-0.3928,0.2529,-0.047,186.3438
14:18:12:794,0.5602,0.941,5.8223,39.9456,-0.3934,0.3518,0.1869,186.3906
14:18:12:815,1.0104,1.4198,6.2533,40.0398,-0.3757,0.3066,0.2712,186.2031
14:18:12:838,1.331,1.4892,6.8662,40.103,-0.3317,0.1796,0.1753,186.1875
14:18:12:856,1.2664,1.4151,7.4121,39.9861,-0.2828,0.0476,-0.0287,186.0156
14:18:12:875,0.711,1.0391,8.645,39.927,-0.2321,-0.0953,-0.2309,185.75
14:18:12:894,0.3018,0.5985,10.5604,40.0215,-0.0507,-0.2993,-0.3213,185.75
14:18:12:916,0.2273,0.2177,10.9627,39.9892,0.3103,-0.2297,-0.2926,185.0156
14:18:12:939,0.0359,0.2106,10.5365,40.0006,0.5858,0.0226,-0.2248,185.0156
14:18:12:956,-0.0742,0.5291,10.1988,40.0719,0.5907,0.292,-0.1106,185.1719
14:18:12:976,0.0239,0.9194,10.2802,39.8567,0.3867,0.4025,0.0281,185.1719
14:18:12:994,0.3712,1.185,11.6234,39.8221,0.0971,0.3305,0.1234,186.875
14:18:13:014,0.7421,1.2544,12.9712,39.947,-0.0782,0.3854,0.1448,186.875
14:18:13:038,0.4932,1.1157,13.3065,39.8288,-0.1106,0.6493,0.0727,188.0312
14:18:13:054,-0.0383,0.6631,13.0454,39.8172,-0.1301,0.8491,-0.0257,188.0312
14:18:13:074,-0.5243,0.2321,13.3831,39.8017,-0.2187,0.7391,-0.0812,187.7969
14:18:13:095,-0.7828,-0.067,14.7523,39.6861,-0.3299,0.3146,-0.1063,187.7969
14:18:13:114,-0.8572,-0.6224,16.3852,39.4202,-0.3237,-0.0501,-0.1387,187.2188
14:18:13:134,-1.0726,-1.2018,16.6558,39.2363,-0.0855,-0.1545,-0.135,187.2188
14:18:13:154,-0.7397,-1.7166,15.6239,38.9848,0.2639,-0.0055,-0.0305,187.4219
14:18:13:176,-0.6344,-1.6424,13.2634,38.6693,0.5956,0.4484,0.08,187.4531
14:18:13:197,-0.2177,-0.1101,7.5918,38.782,0.8674,1.1966,0.1924,188.0938
14:18:13:216,-0.5363,0.0861,6.9021,38.5446,0.7391,0.5302,0.0544,188.1562
14:18:13:236,-0.8306,-0.2058,8.6856,38.5466,0.54,-0.4142,-0.0483,188.5938
14:18:13:258,-0.699,-0.3592,9.9882,38.5803,0.4868,-0.8045,-0.0593,188.6406
14:18:13:275,-0.4406,-0.2776,9.6075,38.6774,0.5632,-0.6481,-0.0819,188.5
14:18:13:294,-0.3018,-0.1196,8.1278,38.7237,0.5748,-0.2034,-0.0849,188.4844
14:18:13:315,0.146,-0.2082,6.0643,38.8953,0.4722,0.1741,-0.0287,188.2188
14:18:13:333,-0.8019,0.0814,5.4562,38.9771,0.2535,0.0147,0.0531,188.1875
14:18:13:355,-1.3789,0.2827,5.1999,38.7738,-0.0171,-0.1698,0.2083,188.1875
14:18:13:375,-1.3095,0.2898,5.0659,38.749,-0.2663,-0.3409,0.3048,188.3594
14:18:13:394,-0.8883,0.3855,6.7513,38.4578,-0.4948,-0.6286,0.3738,188.3594
14:18:13:415,0.2249,0.3425,6.7872,38.2989,-0.7153,-0.3335,0.4636,188.5781
14:18:13:433,0.8572,0.7062,7.0651,37.7265,-0.9322,-0.1014,0.4905,188.5781
14:18:13:454,0.6559,0.5459,7.5365,37.5179,-1.1405,-0.0928,0.4032,188.4219
14:18:13:475,0.2874,0.067,9.4711,36.984,-1.2797,-0.3299,0.3525,188.4219
14:18:13:494,-0.1723,-0.2106,12.0565,36.542,-1.1795,-0.482,0.4258,188.4219
14:18:13:516,-0.2994,-0.1675,14.0318,35.8424,-0.6573,-0.4087,0.5803,188.2969
14:18:13:540,0.1292,-0.1029,14.3216,35.3042,0.1888,-0.0531,0.7098,188.6719
14:18:13:557,0.5028,0.0861,12.4158,34.5835,0.9425,0.3744,0.6988,188.6719
14:18:13:631,0.917,0.5722,10.2754,34.1266,1.2455,0.3757,0.5864,189.0938
14:18:13:632,1.3143,0.7564,9.5955,33.8077,0.9456,0.0464,0.3134,189.0938
14:18:13:632,0.9266,0.0311,10.759,33.2863,0.3812,-0.2627,-0.0238,189.1719
14:18:13:640,0.8378,-0.9338,12.1382,32.9954,0.0134,-0.4569,-0.149,189.1719
14:18:13:655,1.2377,-1.2066,13.3711,32.4937,-0.1191,-0.5919,-0.102,188.6562
14:18:13:673,1.4892,-1.2377,14.8289,32.2506,-0.1906,-0.6005,-0.1075,188.6094
14:18:13:694,0.6344,-1.9801,15.023,32.0143,-0.2071,-0.3891,-0.2114,187.7031
14:18:13:716,0.4836,-2.2122,12.0712,32.097,-0.0684,0.5247,0.1949,187.625
14:18:13:735,1.6184,-1.2664,9.9356,31.9111,0.0721,0.8063,0.419,186.5
14:18:13:753,2.7724,-0.1316,8.6952,31.8401,0.1203,0.711,0.4099,186.375
14:18:13:775,3.1627,0.5483,8.5301,31.6721,0.0415,0.4197,0.1008,185.3594
14:18:13:796,2.327,0.2345,8.5516,31.555,-0.0928,0.1362,-0.3757,185.2656
14:18:13:815,1.1515,-0.4549,8.2167,31.6155,-0.2211,-0.0098,-0.697,183.9375
14:18:13:834,0.2874,-0.6703,7.7498,31.6923,-0.3402,0.0342,-0.7373,182.7188
14:18:13:855,-0.1268,-0.5076,7.0026,31.8134,-0.43,0.2077,-0.6072,182.7188
14:18:13:876,-0.2536,-0.0909,6.6748,31.6639,-0.485,0.2663,-0.4374,182.4531
14:18:13:894,-0.2489,0.3855,6.7513,31.6499,-0.4875,0.1808,-0.3121,182.4531
14:18:13:914,-0.2273,0.7038,7.381,31.613,-0.3848,-0.0586,-0.2682,182.7969
14:18:13:933,0.1196,0.9194,8.1903,31.9666,-0.1252,-0.3268,-0.2639,182.7969
14:18:13:957,0.5076,1.0893,8.9372,31.8293,0.2944,-0.4826,-0.295,183.1719
14:18:13:975,0.7086,1.2473,8.9898,31.7877,0.7275,-0.4722,-0.358,183.1719
14:18:13:993,0.285,1.185,8.3722,31.9498,0.9175,-0.3531,-0.4911,183.1875
14:18:14:014,-0.4956,0.766,8.3937,32.0206,0.7599,-0.248,-0.6121,183.0469
14:18:14:034,-0.984,0.4167,8.8678,32.1235,0.4514,-0.0892,-0.5577,182.0469
14:18:14:055,-0.9362,0.5243,9.6649,32.0673,0.157,0.0574,-0.3409,182.0469
14:18:14:076,-0.4023,1.0271,10.5461,32.1585,-0.047,0.2156,-0.102,182.2969
14:18:14:097,-0.079,1.3454,10.9193,32.0429,-0.1173,0.3335,0.025,182.2969
14:18:14:114,0.0479,1.2305,11.2283,32.2908,-0.0874,0.2944,0.0684,183.7812
14:18:14:134,0.213,1.0845,11.4891,32.5393,-0.0257,0.1918,0.1106,183.7812
14:18:14:158,0.3138,0.8524,11.9321,32.7346,0.0342,0.102,0.1313,184.7031
14:18:14:175,0.309,0.6272,12.131,32.8649,0.0238,0.1124,0.1106,184.7969
14:18:14:195,0.3568,0.2536,12.1454,33.0687,-0.1362,0.2266,0.0568,185.2812
14:18:14:216,0.067,-0.3305,12.7726,33.1158,-0.4453,0.3372,-0.0336,185.3281
14:18:14:240,-1.319,-1.9681,13.8141,33.3603,-0.9578,0.2071,-0.0232,185.9219
14:18:14:257,-1.5275,-2.4084,14.2567,33.2218,-0.9315,0.1399,0.1503,185.9844
14:18:14:276,-1.5203,-2.4562,13.5625,33.1238,-0.5504,0.1619,0.3995,187.0469
14:18:14:294,-0.7828,-1.9247,11.6976,32.9666,0.036,0.201,0.7245,187.1719
14:18:14:314,0.2082,-0.9123,9.8013,32.5659,0.5418,0.0421,0.9224,188.4844
14:18:14:333,1.1898,0.1316,8.9348,32.1,0.744,-0.3415,0.8411,188.6094
14:18:14:356,1.4222,0.4836,9.0305,31.665,0.598,-0.5852,0.4905,189.0625
14:18:14:375,0.6368,0.0502,9.1238,31.5106,0.303,-0.4221,0.1032,188.9531
14:18:14:394,-0.3257,-0.4621,8.8463,31.1331,0.1093,-0.1344,-0.0825,188.9531
14:18:14:415,-0.9984,-0.6511,8.286,31.1882,0.0916,0.047,-0.0373,188.6562
14:18:14:433,-1.2473,-0.5124,7.5461,31.2556,0.2016,0.0928,0.1411,188.6562
14:18:14:454,-1.0798,-0.0909,6.6556,31.4492,0.3402,0.0342,0.3372,188.6406
14:18:14:476,-0.6248,0.4525,6.0117,31.3949,0.383,-0.0831,0.4575,188.4219
14:18:14:494,-0.1914,0.8883,6.0835,31.4225,0.2969,-0.2089,0.46,188.4219
14:18:14:516,0.0694,1.0558,6.7777,31.5325,0.1662,-0.306,0.3818,188.375
14:18:14:533,0.0694,1.0917,7.4408,31.5456,0.0709,-0.3439,0.2767,188.375
14:18:14:554,0.067,0.9697,8.1568,31.4358,0.0128,-0.3879,0.1796,187.9688
14:18:14:575,0.2489,0.8572,9.2677,31.3837,-0.0128,-0.4368,0.113,186.6406
14:18:14:595,0.5124,0.8477,10.151,31.3499,0.0092,-0.4087,0.066,186.6406
14:18:14:616,0.5195,0.8234,10.6537,31.0878,0.0617,-0.2792,0.0098,184.9062
14:18:14:641,0.3688,0.9314,10.2299,31.2647,0.1246,-0.0709,-0.0324,184.9062
14:18:14:656,0.498,1.1276,9.6434,31.4797,0.1319,0.0519,-0.0684,184.4531
14:18:14:674,0.6296,1.0678,9.993,31.5069,0.0421,-0.0202,-0.1582,184.4062
14:18:14:695,0.486,0.4382,11.2283,31.5704,-0.0745,-0.179,-0.2902,184.5469
14:18:14:715,0.2728,-0.4884,12.4062,31.6571,-0.1423,-0.2474,-0.3531,184.5625
14:18:14:735,0.4621,-1.2544,12.775,31.671,-0.1362,-0.1869,-0.2767,184.1406
14:18:14:755,1.1372,-1.4103,11.7287,31.6622,-0.113,-0.0574,-0.113,184.1094
14:18:14:776,2.3605,-1.13,11.9991,31.74,-0.4514,-0.1032,-0.1552,183.2812
14:18:14:795,1.4581,-2.0853,13.3711,31.8835,-0.5889,-0.1203,-0.3867,183.2031
14:18:14:814,0.3066,-3.0356,13.6415,32.0575,-0.4893,0.0128,-0.4215,182.6094
14:18:14:833,0.0814,-3.1125,12.1837,32.3616,-0.1912,0.1955,-0.1393,182.5625
14:18:14:856,1.573,-1.8673,10.3591,32.4029,0.1155,0.2621,0.2877,182.3281
14:18:14:876,3.7397,-0.4382,8.5947,32.7753,0.2957,0.1148,0.4471,182.2812
14:18:14:894,5.0468,0.3975,8.1999,32.8868,0.1967,-0.1539,0.1643,182.2812
14:18:14:915,4.6373,0.2608,9.0664,33.0355,-0.1209,-0.2297,-0.3971,182.4062
14:18:14:933,2.7485,-0.8043,9.9308,33.2845,-0.4148,-0.0348,-0.9352,182.4062
14:18:14:954,0.6703,-1.6735,9.5668,33.4059,-0.4923,0.295,-1.1313,182.4219
14:18:14:975,-0.4717,-1.6807,8.3435,33.5019,-0.3708,0.5156,-0.923,182.9219
14:18:14:995,-0.3544,-0.821,7.1273,33.7567,-0.1607,0.4563,-0.5223,182.9219
14:18:15:015,0.6511,0.3449,6.5527,34.1155,0.0183,0.1765,-0.2175,183.625
14:18:15:033,1.6161,1.264,6.5719,34.3265,0.0782,-0.0678,-0.1649,183.625
14:18:15:054,2.0806,1.7357,6.7394,34.8869,0.0086,-0.1008,-0.317,183.75
14:18:15:075,1.8386,1.7357,7.0484,35.3374,-0.1448,0.0073,-0.5626,184.2656
14:18:15:096,1.2066,1.319,7.7498,35.8058,-0.2993,0.0922,-0.7794,184.2656
14:18:15:116,0.5363,0.8234,8.7003,36.1158,-0.3671,0.0959,-0.8778,184.7969
14:18:15:134,0.067,0.5124,9.6194,36.5318,-0.3329,0.0672,-0.8472,184.7969
14:18:15:153,-0.0502,0.5124,10.3113,36.5451,-0.2285,0.058,-0.7245,184.0156
14:18:15:175,0.122,0.7804,10.4551,37.1407,-0.0977,0.1093,-0.5766,184.0156
14:18:15:195,0.2321,0.9984,10.4432,37.5579,0,0.1625,-0.4826,184.2812
14:18:15:214,0.079,1.1061,10.5341,37.9706,0.0165,0.2016,-0.449,184.2969
14:18:15:234,-0.0814,1.0606,10.9122,38.604,-0.0067,0.1979,-0.4313,186.25
14:18:15:258,-0.134,0.7947,11.3408,39.0908,-0.0195,0.1478,-0.4135,186.4531
14:18:15:277,-0.0502,0.3927,11.8866,39.95,-0.0367,0.0922,-0.3946,187.8281
14:18:15:297,-0.2465,-0.7158,13.0478,40.6201,-0.0654,0.0806,-0.3916,187.9531
14:18:15:315,-0.6631,-1.2592,12.6458,41.2803,-0.0434,0.2303,-0.3683,188.3594
14:18:15:333,-0.9529,-1.3238,12.3751,41.6527,-0.0586,0.2364,-0.2614,188.3906
14:18:15:355,-0.8644,-1.2855,12.5521,42.3073,-0.1222,0.1704,-0.1356,189.25
14:18:15:376,-0.5674,-1.4557,13.1794,42.9112,-0.1692,0.0739,-0.0476,190.9219
14:18:15:394,-0.6894,-1.8625,13.6223,43.2239,-0.113,0.0043,-0.0031,190.9219
14:18:15:415,-0.9505,-2.3773,13.0071,43.7407,0.1051,-0.0018,0.0745,191.0938
14:18:15:434,-0.9099,-2.3581,11.08,43.8474,0.3977,0.0367,0.2492,192.5938
14:18:15:459,-0.2608,-1.7189,8.9492,44.0678,0.5601,-0.0202,0.4227,192.75
14:18:15:475,0.6344,-1.0367,8.1015,44.5087,0.4789,-0.2523,0.4184,193.9062
14:18:15:494,1.1109,-0.7875,8.7051,44.6363,0.2303,-0.4563,0.2107,193.9062
14:18:15:514,0.8883,-0.8859,9.5142,44.9784,-0,-0.4649,-0.0739,194.875
14:18:15:533,0.2441,-1.1228,9.7056,45.1526,-0.1008,-0.2944,-0.2798,194.875
14:18:15:559,-0.4525,-1.3358,9.3419,45.3339,-0.0525,-0.0635,-0.3183,195.75
14:18:15:575,-0.929,-1.3071,8.1473,45.2938,0.1118,0.0647,-0.1942,196.6094
14:18:15:595,-0.9793,-0.8835,7.0962,45.4285,0.2321,0.0446,0.0208,196.6094
14:18:15:615,-0.6942,-0.2417,6.6197,45.3725,0.2559,-0.0446,0.2052,197.2812
14:18:15:696,-0.3425,0.1555,6.5886,45.5182,0.2095,-0.1222,0.2779,197.2812
14:18:15:697,-0.1579,0.285,7.0436,45.7972,0.1283,-0.1552,0.2706,197.4531
14:18:15:697,-0.0502,0.4071,7.7091,45.7098,0.0678,-0.1723,0.2431,197.4531
14:18:15:697,0.2704,0.6057,8.1975,45.7392,0.0635,-0.1991,0.2181,197.3906
14:18:15:714,0.699,0.8859,8.7984,45.7917,0.0605,-0.2364,0.1674,197.375
14:18:15:734,0.8596,1.0439,9.3538,46.0207,0.0415,-0.2266,0.0617,196.8281
14:18:15:756,0.6033,0.9577,9.7271,46.3397,0.025,-0.149,-0.0647,196.7812
14:18:15:775,-0.2082,0.7086,9.7678,46.5554,0.0696,0.0202,-0.1209,196.25
14:18:15:795,-0.5028,0.486,10.1964,46.8908,0.0733,-0.0293,-0.0806,196.1875
14:18:15:815,-0.5267,0.1914,11.0824,47.1025,0.0489,-0.1374,-0.0165,196.5312
14:18:15:834,-0.3425,-0.2034,11.9536,47.4233,0.0128,-0.1991,0.0629,196.5781
14:18:15:854,-0.2393,-0.7134,12.9209,47.534,-0.0415,-0.1759,0.1454,197.0938
14:18:15:875,-0.201,-1.1396,13.5984,47.8913,-0.0342,-0.069,0.2761,197.1406
14:18:15:893,0.3066,-1.1827,12.6817,48.0116,0.0935,0.08,0.4862,196.9688
14:18:15:915,1.2138,-0.8258,11.0225,48.1055,0.1576,0.1032,0.6487,196.9531
14:18:15:933,2.0925,-0.5219,10.9098,48.0181,-0.0116,-0.0678,0.6053,196.4531
14:18:15:957,2.1739,-0.8572,12.6984,47.8943,-0.2779,-0.2474,0.3567,196.4062
14:18:15:975,1.2616,-1.6998,14.4174,47.659,-0.3372,-0.2364,0.1051,195.9219
14:18:15:995,0.3497,-2.4969,13.8763,47.1776,-0.0812,0.0018,0.0849,195.9219
14:18:16:014,0.5602,-2.327,11.5182,47.0615,0.2889,0.2449,0.3439,195.6875
14:18:16:033,2.1715,-1.3167,9.3203,46.9651,0.5345,0.2517,0.6334,195.9219
14:18:16:056,3.8186,-0.1507,8.0728,46.8008,0.5559,0.0281,0.6286,195.9219
14:18:16:074,4.3525,0.5483,8.1927,46.6692,0.328,-0.1863,0.2761,196.1562
14:18:16:093,3.347,0.1627,9.4089,46.8524,-0.0079,-0.204,-0.2407,196.1562
14:18:16:114,1.5538,-0.6631,9.7798,46.9563,-0.182,-0.0012,-0.6017,196.125
14:18:16:134,0.1555,-0.9745,8.6928,47.1512,-0.1527,0.2804,-0.6139,196.125
14:18:16:153,-0.2417,-0.5937,7.2087,47.8242,-0.0513,0.4203,-0.3647,195.6719
14:18:16:176,0.0957,0.1388,6.2821,48.0363,0.0501,0.2999,-0.091,195.6719
14:18:16:194,0.6416,0.8812,6.2533,47.967,0.1118,0.0562,0.0593,194.5625
14:18:16:216,1.0487,1.4103,6.2749,48.1485,0.1057,-0.044,0.0702,194.4375
14:18:16:236,0.9936,1.5897,6.4448,48.4778,0.0122,0,-0.0208,193.4688
14:18:16:253,0.4047,1.4055,7.0819,48.6577,-0.1368,0.0837,-0.1435,193.3594
14:18:16:277,-0.1795,1.1037,7.922,48.7459,-0.2382,0.1032,-0.2065,193.1406
14:18:16:297,-0.9793,0.5602,9.7678,49.0214,-0.1466,-0.036,-0.1038,192.2031
14:18:16:317,-0.8931,0.6272,10.1677,48.8713,-0.0678,0.0061,0.0611,192.2031
14:18:16:334,-0.5076,0.9601,10.3352,48.8842,-0.0238,0.1069,0.2272,192.1094
14:18:16:353,-0.3425,1.0941,10.5844,48.9921,0.0049,0.1894,0.3115,191.2812
14:18:16:375,-0.3616,1.0845,10.5844,49.2508,0.0568,0.2388,0.361,191.2031
14:18:16:393,-0.1077,1.1683,10.6322,49.0634,0.0849,0.2437,0.4154,192.0312
14:18:16:415,0.3425,1.0654,11.0584,49.0875,0.0727,0.1918,0.4239,192.1094
14:18:16:433,0.5363,0.6583,11.7072,49.061,0.0654,0.1032,0.3653,193.0312
14:18:16:453,0.4741,0.1819,11.8962,49.0844,0.0574,0.066,0.2981,193.125
14:18:16:476,0.3784,-0.3209,11.8795,49.1176,-0.0312,0.0904,0.2474,193.1719
14:18:16:494,0.2345,-0.8091,12.4947,49.0789,-0.1985,0.1069,0.2193,193.1719
14:18:16:514,0.0766,-1.1707,13.2108,49.1087,-0.3329,0.1185,0.2272,193.1406
14:18:16:533,-0.0287,-1.5706,13.8954,48.8572,-0.3635,0.0941,0.259,193.1406
14:18:16:558,-0.3808,-2.1547,14.7212,48.833,-0.2486,0.0086,0.295,193.4688
14:18:16:575,-0.8788,-2.7365,14.0557,48.8214,0.0666,0.0134,0.4068,193.75
14:18:16:595,-0.5722,-2.6336,11.19,48.7093,0.4142,0.1124,0.6622,193.75
14:18:16:615,0.5865,-1.7453,9.4089,48.5853,0.4526,0.0354,0.8784,193.4219
14:18:16:636,1.6328,-1.13,10.3065,48.4746,0.2437,-0.2425,0.8332,193.4219
14:18:16:659,1.6711,-1.2473,11.8125,48.3244,0.0806,-0.3714,0.6047,192.6875
14:18:16:676,0.8234,-1.6089,11.5086,48.0746,0.0849,-0.1649,0.4129,192.6875
14:18:16:696,0.1196,-1.6137,9.5309,47.9879,0.1607,0.16,0.4123,191.75
14:18:16:716,0.0191,-1.0702,7.6588,47.9871,0.1961,0.3256,0.5485,191.75
14:18:16:735,0.1484,-0.4143,6.44,47.736,0.1967,0.281,0.6689,191.0938
14:18:16:753,0.3975,0.0479,5.7242,47.5721,0.1973,0.1093,0.7251,191.0312
14:18:16:777,1.1228,0.7875,5.7601,47.2558,0.1051,-0.248,0.6951,190.5312
14:18:16:796,1.319,1.0917,6.2031,47.0455,0.0177,-0.3305,0.6035,190.4688
14:18:16:817,1.398,1.2162,6.8877,46.9359,-0.0531,-0.3879,0.4667,189.9062
14:18:16:835,1.3023,1.1803,7.6038,46.7949,-0.1026,-0.4093,0.3005,189.8438
14:18:16:854,1.1563,0.9673,8.2454,46.6042,-0.1405,-0.3952,0.1399,189.125
14:18:16:875,0.8883,0.5746,8.9396,46.3422,-0.1802,-0.369,0.0006,189.0469
14:18:16:893,0.3377,0.0311,9.7223,46.2544,-0.1888,-0.3134,-0.0874,187.6094
14:18:16:915,-0.2728,-0.285,9.5285,46.2478,-0.1319,-0.1051,-0.0531,187.4531
14:18:16:935,-0.4023,0.079,8.1999,46.0165,-0.0812,0.1778,0.1112,186.0938
14:18:16:957,0.0574,0.9099,7.2948,45.858,-0.16,0.2431,0.2566,185.9531
14:18:16:974,0.7349,1.6113,8.5277,45.7528,-0.3818,0.0415,0.2529,185.1406
14:18:16:994,0.8668,1.6735,10.9675,45.5114,-0.6292,-0.1833,0.0702,185.0625
14:18:17:017,0.6942,0.7373,13.5218,45.2553,-0.7996,-0.2407,-0.1662,183.7344
14:18:17:034,0.3664,-0.3879,15.3891,45.0758,-0.8051,-0.1875,-0.3042,183.7188
14:18:17:053,0.1005,-1.1827,15.88,44.9923,-0.6988,-0.0153,-0.303,182.1719
14:18:17:075,0.0407,-1.561,15.4274,44.4243,-0.6011,0.2193,-0.2223,180.7969
14:18:17:096,0.6344,-1.5682,15.4349,44.2946,-0.5485,0.3848,-0.1478,180.7969
14:18:17:115,1.2401,-1.6376,15.1116,43.903,-0.4679,0.5314,-0.1949,180
14:18:17:135,1.1061,-2.3366,14.8505,43.7823,-0.3054,0.6194,-0.3335,180
14:18:17:153,0.1819,-3.4953,14.4221,43.9744,-0.0037,0.6371,-0.3952,179.875
14:18:17:175,-0.2656,-4.0531,13.0047,44.1771,0.4056,0.7177,-0.1906,179.875
14:18:17:196,1.0463,-3.5504,10.0863,44.4704,0.8063,0.8216,0.226,180.0312
14:18:17:216,3.2895,-1.8673,7.3044,44.5426,0.9554,0.7458,0.5217,180.0312
14:18:17:235,4.963,0.0814,6.5264,44.9959,0.7318,0.43,0.3347,179.6094
14:18:17:260,4.4267,-0.0526,8.013,45.381,0.3213,0.1136,-0.3702,179.5781
14:18:17:277,-0.0742,-2.4802,8.4966,45.9869,-0.0495,0.2523,-1.2125,179.1719
14:18:17:297,-1.264,-2.3797,7.3762,46.6484,0.0299,0.3879,-0.9114,179.1406
14:18:17:316,-0.9649,-1.4246,6.3012,47.1593,0.1552,0.3757,-0.3934,179.5
14:18:17:336,0.3257,-0.1053,5.7506,47.7513,0.2376,0.212,0.0189,179.5312
14:18:17:353,1.3956,1.1037,5.8487,48.3867,0.2511,0.0171,0.1362,179.9531
14:18:17:374,1.8003,1.7046,6.3251,49.0033,0.2272,-0.0874,-0.0067,180
14:18:17:393,1.5491,1.7836,6.6221,49.5966,0.2028,-0.099,-0.2541,180.2188
