Time,Acc_X,Acc_Y,Acc_Z,Meg,Gyr_X,Gyr_Y,Gyr_Z,Ore
15:09:25:976,-2.2983,1.3741,10.151,40.0732,-0.2071,-0.2969,-0.3311,22.75
15:09:25:995,-2.1332,1.4701,9.9212,40.0141,-0.0733,-0.2663,-0.3085,22.75
15:09:26:008,-2.0782,1.6448,9.7367,40.1645,0.0299,-0.2052,-0.284,25.2812
15:09:26:027,-2.016,1.7716,9.4878,39.8131,0.0678,-0.0941,-0.2602,25.2812
15:09:26:052,-2.0399,1.7213,9.4208,39.8658,0.0654,-0.0434,-0.2492,25.2812
15:09:26:071,-2.0399,1.7022,9.4711,39.9818,0.0776,-0.0861,-0.2535,25.2812
15:09:26:088,-2.0255,1.7596,9.3993,39.8872,0.0935,-0.1277,-0.2614,25.2812
15:09:26:106,-2.0351,1.7859,9.3754,39.5745,0.0654,-0.1209,-0.2578,25.2812
15:09:26:126,-2.0997,1.7333,9.3562,39.303,0.0079,-0.0709,-0.2401,25.2812
15:09:26:146,-2.2385,1.6519,9.4184,38.8936,-0.0165,-0.0721,-0.2138,25.2812
15:09:26:166,-2.3103,1.6113,9.5405,38.6456,0.0018,-0.1613,-0.1778,25.2812
15:09:26:187,-2.2289,1.6639,9.4759,38.6379,0.0226,-0.2285,-0.1381,25.2812
15:09:26:207,-2.1165,1.7931,9.3802,38.5618,0.0031,-0.2321,-0.102,25.2812
15:09:26:226,-2.0662,1.8577,9.4615,38.0341,-0.0599,-0.2114,-0.0715,25.2812
15:09:26:246,-1.9534,1.9295,9.5692,37.9391,-0.1252,-0.201,-0.0525,25.2812
15:09:26:266,-1.9175,1.9175,9.507,37.875,-0.1729,-0.204,-0.0568,25.2812
15:09:26:286,-1.9777,1.9032,9.4902,37.6918,-0.2028,-0.2614,-0.0495,25.2812
15:09:26:306,-1.7979,1.817,9.5859,37.7888,-0.2248,-0.3457,0.0018,25.2812
15:09:26:327,-1.7213,1.8314,9.6482,37.3392,-0.2352,-0.3274,0.0641,25.9062
15:09:26:346,-1.1922,2.2193,9.2435,37.1044,-0.2291,-0.2437,0.1045,26.4688
15:09:26:371,-1.2497,2.4395,9.3227,36.6621,-0.2462,-0.2175,0.0299,26.4688
15:09:26:386,-1.1468,2.473,9.1214,36.4573,-0.2566,-0.2376,-0.0788,27.0625
15:09:26:406,-0.833,2.3844,9.3634,36.02,-0.2682,-0.2798,-0.193,27.0625
15:09:26:426,-1.0175,1.8936,10.7471,35.8311,-0.2083,-0.2883,-0.3738,27.5781
15:09:26:447,-1.8864,1.7094,10.7303,35.6817,0.0299,-0.1814,-0.4862,27.5781
15:09:26:471,-2.0279,1.7285,10.127,35.5705,0.2309,-0.044,-0.3848,27.9219
15:09:26:486,-1.8362,1.8482,9.7199,35.6588,0.2712,0.047,-0.2138,27.9531
15:09:26:507,-1.5419,2.1045,9.6506,35.2462,0.2211,0.0641,-0.1032,28.1562
15:09:26:526,-1.1085,2.3701,9.641,34.929,0.1607,0.0147,-0.0819,28.1719
15:09:26:547,-0.6224,2.4395,9.5237,34.7064,0.011,-0.1112,-0.284,28.3125
15:09:26:570,-0.7086,1.8099,10.2299,34.6771,-0.0702,-0.1686,-0.416,28.3281
15:09:26:586,-0.9601,1.3334,10.0122,34.496,-0.0831,-0.1454,-0.4752,28.4062
15:09:26:606,-1.2401,1.1827,9.7271,33.9153,-0.0819,-0.1069,-0.4306,28.4219
15:09:26:627,-1.276,1.331,9.4663,33.5932,-0.0843,-0.0678,-0.3121,28.2812
15:09:26:646,-0.8883,1.6208,9.5716,33.327,-0.0727,-0.0965,-0.1979,28.3438
15:09:26:675,-0.4119,1.7788,10.1653,33.295,-0.0336,-0.1906,-0.168,28.3438
15:09:26:687,-0.1316,1.6256,10.5293,32.872,0.055,-0.2321,-0.2205,28.9375
15:09:26:707,-0.0479,1.4103,10.2778,32.6304,0.168,-0.1454,-0.2669,28.9375
15:09:26:727,0.122,1.4821,9.8133,32.1487,0.2468,-0.0599,-0.2474,29
15:09:26:746,0.3879,1.6472,9.4639,31.9307,0.2645,-0.044,-0.2126,29.9688
15:09:26:767,0.4741,1.8242,9.5548,31.9584,0.2101,-0.1069,-0.2321,29.9688
15:09:26:788,0.486,2.0136,9.8133,31.5941,0.1301,-0.1949,-0.3054,30.3125
15:09:26:807,0.4071,1.9199,9.8255,31.2429,0.066,-0.2052,-0.3934,30.5312
15:09:26:827,0.1436,1.7764,9.9021,31.0161,0.0177,-0.1778,-0.4392,37.7344
15:09:26:846,-0.0407,1.9705,10.2443,30.9084,-0,-0.1912,-0.4032,38.5938
15:09:26:874,0.2417,2.1284,10.5174,30.5977,0.0415,-0.2297,-0.3573,38.5938
15:09:26:886,0.632,2.3031,10.4432,30.2495,0.1124,-0.215,-0.3848,39.6094
15:09:26:907,0.8234,2.473,10.1079,30.1409,0.1564,-0.1735,-0.4856,39.6094
15:09:26:927,0.7875,2.4945,9.8181,29.7721,0.1558,-0.1631,-0.6108,40.1719
15:09:26:946,0.2489,1.427,9.5644,29.3572,0.135,-0.1991,-0.7232,40.1719
15:09:26:993,-0.7708,0.778,9.4878,28.8452,0.0287,-0.2034,-0.6725,40.6094
15:09:26:995,-0.8067,1.4174,9.883,28.3563,-0.1008,-0.1955,-0.3176,40.6562
15:09:27:008,-0.0311,1.7524,10.3424,28.0333,-0.1466,-0.1558,0.0379,41.2188
15:09:27:031,0.9123,2.7987,10.3328,27.9831,-0.0599,-0.0556,0.1894,41.2812
15:09:27:055,0.9721,2.892,10.1222,28.0553,0.099,-0.0232,0.1179,41.7812
15:09:27:070,0.8907,2.6527,10.0241,27.7422,0.2205,-0.0788,-0.135,41.8281
15:09:27:089,0.6344,2.461,10.3089,27.5377,0.3066,-0.1973,-0.4325,42.5781
15:09:27:107,0.3616,2.2887,10.7375,27.3652,0.4459,-0.361,-0.7355,42.6562
15:09:27:127,0.0383,2.193,10.7279,27.3505,0.5137,-0.325,-0.752,43.5469
15:09:27:146,-0.3162,2.193,10.6872,27.2723,0.5687,-0.2449,-0.7061,44.4375
15:09:27:173,-0.6057,2.1571,10.515,27.0911,0.6005,-0.1191,-0.6182,44.4375
15:09:27:190,-1.1324,1.9681,10.0337,26.7891,0.6011,0.0525,-0.4966,44.5156
15:09:27:206,-1.7716,2.2887,9.2243,26.7526,0.5259,0.2364,-0.2963,45.6719
15:09:27:226,-2.0375,2.9423,9.0784,26.367,0.4203,0.273,-0.0348,45.7812
15:09:27:246,-1.6783,3.3565,8.8774,26.1737,0.2957,0.325,0.1539,47.375
15:09:27:267,-1.1061,3.3302,9.3562,26.1978,0.1497,0.2486,0.1778,47.3906
15:09:27:289,-0.821,2.8418,9.8806,26.1935,0.0568,0.1234,0.0611,47.7188
15:09:27:308,-1.1133,2.0806,10.206,26.2864,-0.0061,0.0806,-0.1155,47.7188
15:09:27:328,-1.8625,1.2736,10.5963,26.5085,-0.0562,0.0812,-0.2181,47.4062
15:09:27:346,-2.5881,0.9721,10.4001,26.492,0.0122,0.157,-0.1258,48.0781
15:09:27:383,-2.9016,1.3789,10.017,26.4182,0.2095,0.2498,0.1216,48.0781
15:09:27:387,-2.8561,2.0375,9.2629,26.6322,0.4667,0.4032,0.3977,49.7188
15:09:27:407,-2.5331,2.825,8.0489,26.7847,0.6939,0.5821,0.6151,49.7188
15:09:27:428,-1.9199,3.6775,7.0173,27.0748,0.7874,0.5498,0.7061,51.4688
15:09:27:447,-1.4004,4.1895,6.7968,27.2166,0.711,0.3018,0.6035,51.4688
15:09:27:475,-0.8955,4.0507,7.2685,27.3732,0.5027,0.0165,0.3354,52.7969
15:09:27:489,-0.5794,3.3206,8.0345,27.4042,0.2498,-0.2217,0.0147,52.7969
15:09:27:507,-1.0032,2.5977,8.8869,27.6799,0.0086,-0.3305,-0.2492,53.125
15:09:27:529,-1.8721,2.3605,9.5644,27.8568,-0.1826,-0.2169,-0.336,53.1562
15:09:27:547,-2.3821,2.4323,9.4591,27.9165,-0.2645,0.1228,-0.1613,52.7812
15:09:27:574,-1.8099,3.4881,7.3403,28.0661,-0.1527,0.6023,0.4423,52.75
15:09:27:589,-1.4749,4.3358,7.1273,27.9566,-0.1209,0.4856,0.5821,52.7656
15:09:27:606,-1.063,4.7282,7.5461,28.1912,-0.091,0.2547,0.5931,52.7656
15:09:27:627,-1.0822,4.7641,7.6397,28.2803,-0.0263,0.0983,0.4465,53.0781
15:09:27:646,-1.4198,4.4267,8.5971,28.6462,0.0385,-0.237,0.1942,52.5469
15:09:27:665,-1.3956,3.8139,9.7271,28.7794,0.1423,-0.5852,-0.0434,52.5469
15:09:27:688,-1.4438,3.1244,10.2538,28.8997,0.2382,-0.686,-0.2138,52.5
15:09:27:709,-1.8529,2.6097,10.7853,28.9898,0.2144,-0.628,-0.2914,51.125
15:09:27:727,-1.9801,2.4371,10.85,28.7794,0.1765,-0.438,-0.1961,50.9844
15:09:27:746,-1.5371,2.6791,10.2515,28.6986,0.2175,-0.2291,0.011,50.0938
15:09:27:767,-1.1659,3.2728,9.9811,28.1038,0.2712,-0.1961,0.1417,50
15:09:27:790,-0.7708,3.711,10.1031,27.9387,0.2877,-0.2474,0.1594,50.375
15:09:27:806,-0.3233,3.7947,10.4839,27.4143,0.2694,-0.2755,0.1399,50.3906
15:09:27:828,-0.1651,3.8115,10.5437,26.9653,0.2779,-0.2608,0.1087,50.9062
15:09:27:846,-0.0431,3.7349,9.9236,26.3682,0.3066,-0.1643,0.0764,50
15:09:27:866,0.7038,3.5575,9.3108,26.1422,0.2468,-0.1796,0.0458,50
15:09:27:892,1.4055,3.4187,9.7439,26.1145,0.0354,-0.3665,-0.0544,48.5469
15:09:27:970,1.6998,2.9279,10.7471,25.6865,-0.2511,-0.5064,-0.2095,48.5469
15:09:27:971,1.6567,2.2911,11.621,25.3475,-0.4673,-0.5033,-0.3244,47.8594
15:09:27:972,1.3214,2.0279,12.1286,24.7501,-0.5131,-0.3946,-0.3555,47.8594
15:09:28:026,1.1157,2.2026,11.7048,24.4568,-0.3537,-0.1368,-0.2969,48.4219
15:09:28:027,1.1922,2.4012,10.4456,24.1895,-0.0861,0.1625,-0.2034,48.4219
15:09:28:028,1.5993,2.6599,9.1837,24.1111,0.1411,0.2804,-0.1179,49.125
15:09:28:029,2.0782,3.0236,8.4655,23.7963,0.2706,0.1301,-0.1277,49.2031
15:09:28:045,2.0447,3.146,8.3842,23.5624,0.3268,-0.1203,-0.2853,49.1719
15:09:28:067,1.5275,3.0117,8.1254,23.4146,0.3586,-0.2089,-0.4697,49.1562
15:09:28:088,1.1803,2.9806,7.5269,23.4939,0.3818,-0.1869,-0.5583,49
15:09:28:107,1.4127,3.5623,7.0149,23.504,0.2517,-0.2413,-0.584,48.9844
15:09:28:127,1.4486,3.7923,7.022,23.4519,0.0629,-0.2022,-0.6353,48.9219
15:09:28:145,1.2951,3.8737,7.0531,23.3672,-0.1576,-0.1313,-0.7074,49.0469
15:09:28:167,1.1396,3.754,7.2589,23.2847,-0.2975,-0.1558,-0.7642,49.0469
15:09:28:188,1.2329,3.615,7.8239,23.1083,-0.3152,-0.284,-0.7941,49.0625
15:09:28:205,1.3023,3.5312,8.7242,22.6634,-0.2602,-0.4142,-0.8094,49.75
15:09:28:225,1.1587,3.5671,9.5022,22.4371,-0.1674,-0.419,-0.8228,49.8281
15:09:28:245,1.0606,3.5216,9.5955,22.1715,-0.0538,-0.3146,-0.8338,50.5469
15:09:28:266,0.7708,3.4451,9.6649,21.9295,0.0421,-0.2694,-0.8784,50.6094
15:09:28:288,0.146,3.402,9.9428,21.6416,0.0867,-0.27,-0.9114,50.875
15:09:28:306,-0.5578,3.469,10.783,21.3032,0.1142,-0.2871,-0.8717,50.8906
15:09:28:327,-0.9888,3.5408,11.2929,21.0406,0.1881,-0.2034,-0.7691,51.375
15:09:28:345,-1.4004,3.536,10.8356,21.2201,0.2755,0.0189,-0.6658,52.625
15:09:28:367,-1.5323,3.6966,10.5102,21.4021,0.3555,0.0959,-0.5382,52.625
15:09:28:387,-1.2975,3.9096,10.4958,21.5169,0.3995,0.1148,-0.4044,54.0312
15:09:28:406,-1.3621,4.022,10.7518,21.6013,0.3628,0.1539,-0.3354,54.0312
15:09:28:426,-2.0423,3.8426,10.8906,21.8507,0.2639,0.2639,-0.3005,55.5781
15:09:28:446,-2.8681,3.7851,11.0967,22.3064,0.2309,0.3543,-0.2321,55.5781
15:09:28:466,-3.5527,4.0173,10.5317,22.9386,0.3024,0.5278,-0.0874,57.3438
15:09:28:488,-3.39,4.5559,9.7511,23.497,0.3622,0.6139,0.1093,57.3438
15:09:28:506,-2.1308,4.5823,9.7463,23.9555,0.2627,0.4801,0.2425,59.125
15:09:28:527,-1.3023,3.7995,10.8835,24.3659,0.0782,0.2071,0.1997,59.2969
15:09:28:546,-2.0782,3.026,12.0039,24.8254,0.0788,0.113,0.0647,61.125
15:09:28:566,-3.038,2.6599,11.5373,25.282,0.3592,0.3189,0.077,61.2969
15:09:28:588,-3.038,2.6456,9.8399,25.6721,0.7318,0.5614,0.2382,63.2031
15:09:28:607,-2.2122,3.1723,7.0819,26.007,0.9102,0.4166,0.3665,63.3906
15:09:28:626,-2.004,3.1412,7.0603,26.0599,0.6628,0.2272,0.3201,64.9062
15:09:28:647,-1.8769,2.715,7.6038,26.1699,0.3213,0.1277,0.2834,65.0469
15:09:28:667,-1.6831,2.5475,7.9316,26.1166,0.0226,0.2022,0.3158,66.0156
15:09:28:689,-1.185,2.6934,7.8838,26.4777,-0.1686,0.3372,0.3916,66.1094
15:09:28:706,-0.9482,2.8705,7.6181,26.7227,-0.2792,0.3934,0.4251,66.7188
15:09:28:727,-1.3549,3.2536,8.0034,26.7738,-0.3213,0.2859,0.4245,66.7656
15:09:28:745,-1.4103,3.5695,8.4727,27.0472,-0.234,0.1692,0.4282,66.9531
15:09:28:766,-1.4414,3.6679,8.2908,26.9909,-0.0324,0.1894,0.4166,66.9688
15:09:28:788,-1.5945,3.8067,7.9555,27.0984,0.2156,0.1729,0.4123,66.3906
15:09:28:806,-1.4725,4.046,7.3164,27.0728,0.4398,0.1466,0.4557,66.3906
15:09:28:826,-1.264,4.3837,6.67,27.0356,0.4881,0.0983,0.4746,66.0469
15:09:28:846,-1.1922,4.6899,6.658,26.942,0.3659,-0.0147,0.4099,65.5938
15:09:28:866,-1.3908,4.7163,6.8112,26.7962,0.1313,-0.0421,0.3066,65.5938
15:09:28:889,-1.6519,4.6851,7.1752,26.9355,-0.1552,-0.0073,0.2468,64.75
15:09:28:907,-1.707,4.5966,8.1592,26.612,-0.4239,-0.0727,0.2309,64.75
15:09:28:927,-1.0965,4.4674,10.3953,26.3428,-0.5125,-0.306,0.2303,64.1094
15:09:28:945,0.0335,4.4291,10.9337,26.1448,-0.3201,-0.273,0.1924,64.1094
15:09:28:988,-0.0311,4.5679,10.0193,25.8424,-0.1173,-0.1539,0.0391,63.1562
15:09:28:989,-0.7732,4.4913,10.5054,25.749,-0.0764,-0.3946,-0.1087,63.1562
15:09:29:007,-1.0319,4.0484,11.2834,25.3554,-0.0373,-0.5553,-0.0916,61.9531
15:09:29:027,-0.7684,3.7086,10.989,25.0096,0.0898,-0.4056,0.1081,61.9531
15:09:29:046,0.3353,3.9503,10.017,24.6173,0.1173,-0.1478,0.3525,60.9844
15:09:29:067,1.561,4.0268,9.8279,24.0163,-0.1014,0.0147,0.4881,60.8906
15:09:29:087,1.8505,4.1369,11.0106,24.1191,-0.43,0.0079,0.4972,60
15:09:29:108,2.461,5.1114,10.9436,23.8113,-0.2682,0.234,0.5418,59.9219
15:09:29:127,2.5331,5.2908,9.6745,23.5068,0.1301,0.2517,0.3854,59.0938
15:09:29:146,2.3366,4.9917,8.6521,22.9593,0.4539,0.0538,0.1277,59.0156
15:09:29:166,1.9104,4.264,8.1326,22.801,0.5601,-0.1637,-0.1442,58.4688
15:09:29:189,1.6854,3.6751,7.5652,22.6669,0.4093,-0.2187,-0.3134,58.4062
15:09:29:206,1.0606,3.2919,7.5461,22.4967,0.102,-0.2132,-0.369,57.9688
15:09:29:226,0.5818,3.3135,7.8885,22.3581,-0.1374,-0.2327,-0.3231,57.9219
15:09:29:245,0.6488,3.7756,7.6612,22.1509,-0.179,-0.1967,-0.2437,57.75
15:09:29:266,0.7612,4.1345,7.2063,21.9427,-0.1381,-0.1509,-0.2523,57.7344
15:09:29:289,0.9003,4.3956,6.7059,21.8641,-0.1539,-0.0983,-0.3225,58.1719
15:09:29:306,1.0822,4.721,6.6437,21.9687,-0.2419,-0.099,-0.4221,58.2031
15:09:29:327,0.778,4.6684,7.0603,21.9267,-0.3036,-0.1509,-0.5638,57.8906
15:09:29:345,0.1651,4.5488,7.812,21.7381,-0.2682,-0.2126,-0.6518,56.7656
15:09:29:366,0.3209,4.6325,8.2549,21.8117,-0.1301,-0.2431,-0.5986,56.7656
15:09:29:388,0.9912,5.0085,8.152,22.1701,0.0446,-0.2071,-0.4972,55.4219
15:09:29:407,1.4486,5.3797,7.8407,22.1212,0.1161,-0.1429,-0.4478,55.4219
15:09:29:427,1.197,5.6189,7.8503,22.4269,0.0183,-0.1191,-0.4667,54.8125
15:09:29:445,0.6703,5.6644,8.997,22.7466,-0.1338,-0.2395,-0.5052,54.8125
15:09:29:466,0.0263,5.5496,10.6729,22.7141,-0.1319,-0.3409,-0.5241,55.4688
15:09:29:489,-0.5626,5.5376,11.056,23.0002,0.0678,-0.1704,-0.4868,55.4688
15:09:29:506,-0.8163,5.4084,9.9476,23.373,0.2834,0.1167,-0.4203,56.3594
15:09:29:526,-1.1515,5.1329,9.1669,23.608,0.361,0.1503,-0.3744,56.3594
15:09:29:546,-1.8529,4.8553,9.3634,23.8843,0.3323,-0.0122,-0.3286,56.9375
15:09:29:567,-2.5259,4.4291,10.072,24.3187,0.2798,-0.1173,-0.2449,57
15:09:29:589,-2.8657,4.3741,9.9571,24.7393,0.2669,0.0031,-0.1148,57.7656
15:09:29:606,-2.916,4.7019,9.2411,25.1559,0.1845,0.2346,0.0104,57.8438
15:09:29:627,-2.7221,4.5607,8.7242,25.7774,-0.0342,0.3946,0.0623,59.1094
15:09:29:646,-2.3557,3.6173,10.6609,26.1525,-0.3506,-0.1796,-0.0452,59.2344
15:09:29:666,-2.9566,2.9447,12.8851,26.4091,-0.1741,-0.4642,-0.1185,60.4375
15:09:29:688,-3.6727,2.3701,13.0525,26.7107,0.1668,-0.1106,-0.0031,60.5625
15:09:29:707,-3.1172,2.7556,10.2347,26.9281,0.5266,0.5553,0.325,61.5625
15:09:29:726,-2.1763,3.7062,7.3594,27.2281,0.6359,0.8308,0.5614,61.6562
15:09:29:745,-1.4151,4.2015,6.8447,27.3128,0.4105,0.5406,0.554,62.8125
15:09:29:766,-1.1204,3.766,8.4846,27.2831,0.0568,0.1723,0.408,62.9219
15:09:29:790,-1.4151,3.0236,10.2778,27.5217,-0.1356,0.1118,0.2828,63.875
15:09:29:806,-1.506,2.7556,10.1366,27.4379,-0.0531,0.4203,0.314,63.9688
15:09:29:826,-1.9056,2.6145,8.8176,27.6208,0.1069,0.7587,0.4142,64.7656
15:09:29:845,-1.8194,2.703,7.8287,27.7253,0.1906,0.799,0.5821,65.25
15:09:29:866,-1.2903,3.3063,7.7665,27.641,0.2236,0.6463,0.7996,65.25
15:09:29:889,-0.9242,4.1106,7.4791,27.507,0.234,0.6371,0.9193,65.0156
15:09:29:905,-1.0247,4.4865,7.1967,27.6488,0.2052,0.6939,0.8692,65.0156
15:09:29:927,-1.0391,4.6229,6.7992,27.8496,0.1613,0.7507,0.7801,64.9375
15:09:29:946,-1.1587,4.8697,6.2916,27.8559,0.1362,0.7379,0.7055,64.9375
15:09:29:995,-1.5371,4.9463,6.5767,27.9546,0.0794,0.5956,0.6469,65.2344
15:09:29:996,-1.7381,4.7836,7.3164,28.125,0.0208,0.4752,0.6322,65.2344
15:09:30:053,-1.6137,4.951,7.8718,28.1342,0.0189,0.4343,0.6695,63.9844
15:09:30:054,-1.3167,5.3797,7.6684,28.3156,0.0104,0.5039,0.6787,63.9844
15:09:30:055,-1.252,5.5735,7.7282,28.5168,-0.0916,0.5198,0.6084,62.8594
15:09:30:066,-1.1348,5.5567,8.6713,28.5762,-0.1778,0.3183,0.5235,62.75
15:09:30:087,-0.9386,5.1042,9.4184,28.6654,-0.1662,0.1185,0.4618,61.9844
15:09:30:106,-1.0558,4.7931,10.7853,28.7164,-0.1796,0.0757,0.4716,61.9219
15:09:30:127,-0.7875,5.1568,11.6856,28.7503,-0.2211,0.3506,0.5986,60.5312
15:09:30:148,-0.8163,5.9925,11.0584,28.5953,-0.5027,1.4649,0.6432,60.3906
15:09:30:167,-0.2512,5.7817,8.511,28.8156,-0.598,1.1179,0.4575,58.3594
15:09:30:189,-0.4956,3.3278,10.8882,28.8123,-0.5229,-0.0086,0.215,58.1562
15:09:30:205,-0.6679,2.8848,13.5147,28.7,-0.3952,-0.562,0.2388,56.125
15:09:30:225,-0.6751,4.0149,13.1172,28.3605,0.0055,-0.4203,0.3714,55.9219
15:09:30:245,0.3736,4.4937,10.6466,28.209,0.4752,-0.2028,0.3744,54.1875
15:09:30:265,0.9123,4.9175,6.7633,28.0007,0.617,-0.0519,0.2285,54.0156
15:09:30:288,0.8378,5.0874,4.5248,27.9259,0.4435,-0.543,-0.0415,52.4375
15:09:30:311,1.0845,4.532,5.6859,27.5582,0.0263,-1.3977,-0.3048,52.2656
15:09:30:349,1.1611,3.8402,8.7266,27.1482,-0.3732,-1.8937,-0.5076,50.5
15:09:30:349,1.252,3.3805,11.1159,26.7564,-0.4649,-1.8002,-0.5815,49.2188
15:09:30:380,1.1204,3.3446,10.34,26.5187,-0.2382,-1.1307,-0.5608,49.2188
15:09:30:387,0.4669,3.7732,8.1087,26.454,-0.0018,-0.3647,-0.4777,47.8438
15:09:30:406,0.0455,4.6804,6.4424,26.2201,0.0208,0.1057,-0.3305,47.8438
15:09:30:426,0.1531,5.2047,5.7673,26.0196,-0.1503,0.2376,-0.2535,45.4531
15:09:30:445,0.2656,5.0037,5.3605,25.8713,-0.2614,0.1014,-0.3115,45.4531
15:09:30:467,-0.1316,4.7521,5.3414,26.0305,-0.2895,-0.2266,-0.4166,44.1875
15:09:30:486,-0.9027,4.8601,6.5527,26.0706,-0.3586,-0.5461,-0.4587,44.1875
15:09:30:510,-0.9147,4.9223,7.922,26.109,-0.3812,-0.6841,-0.3659,43.7656
15:09:30:526,-0.1962,5.0348,8.4918,26.0594,-0.2816,-0.6011,-0.2614,43.7656
15:09:30:546,-0.0311,5.0372,8.31,25.9059,-0.1814,-0.4239,-0.2743,43.3125
15:09:30:567,-0.6392,4.975,8.2956,26.2793,-0.1869,-0.2981,-0.3231,43.3125
15:09:30:586,-1.5371,4.9343,8.9468,26.326,-0.2822,-0.1979,-0.2902,44.2812
15:09:30:611,-2.0088,4.8912,9.3227,26.3885,-0.3757,0.0269,-0.1381,44.375
15:09:30:626,-2.4586,5.0563,9.9882,26.3364,-0.4514,0.3268,0.0605,46.4844
15:09:30:647,-2.6049,5.4371,10.8787,26.3316,-0.4966,0.6267,0.2633,46.7031
15:09:30:668,-2.6049,5.3219,11.7861,26.294,-0.4178,0.8173,0.4154,48.1562
15:09:30:687,-2.715,5.085,12.1214,26.428,-0.0861,0.8491,0.5229,48.3125
15:09:30:711,-3.4953,5.2525,9.7152,26.8634,0.7202,0.7764,0.6365,48.7969
15:09:30:726,-3.821,5.0755,8.4224,26.8213,0.733,0.6579,0.6958,48.8438
15:09:30:745,-2.7102,4.3143,7.4982,26.9098,0.4697,0.4294,0.7794,49.5781
15:09:30:766,-1.896,3.0763,9.3849,27.0681,0.0342,-0.1527,0.7471,49.6406
15:09:30:787,-1.7931,2.2959,13.0621,27.0259,-0.303,-0.708,0.6964,50.75
15:09:30:810,-1.8003,1.8099,14.6925,26.9906,-0.2657,-0.529,0.7452,50.8594
15:09:30:828,-2.4012,1.5251,13.165,26.8983,0.0593,0.19,0.8198,51.6406
15:09:30:847,-3.3374,1.9008,9.859,26.6914,0.3836,0.8662,0.9022,52.5156
15:09:30:866,-3.6942,2.557,7.4288,26.4267,0.4649,0.9853,1.0048,52.5156
15:09:30:887,-3.2704,2.7508,6.682,25.8381,0.2682,0.7037,1.061,52.4531
15:09:30:910,-2.7748,2.3318,7.3331,25.6011,-0.0922,0.4361,1.0293,52.4531
15:09:30:929,-2.5259,1.9319,8.0608,25.3232,-0.4484,0.4197,1.0024,51.2656
15:09:30:945,-2.2289,1.6878,8.7936,24.9082,-0.6787,0.532,1.0427,51.2656
15:09:30:995,-1.8697,1.4055,9.294,24.4397,-0.6909,0.6157,1.135,49.5938
15:09:30:996,-1.5203,1.3765,9.0114,24.0059,-0.4783,0.6848,1.248,49.5938
15:09:31:007,-1.4174,1.7596,8.2238,23.5667,-0.1784,0.7403,1.3433,47.8594
15:09:31:027,-1.4246,2.1691,7.3977,22.9237,0.0593,0.7623,1.3959,47.8594
15:09:31:047,-1.4294,2.3342,6.9045,22.4915,0.171,0.733,1.4136,46.1406
15:09:31:067,-1.4414,2.4706,6.7968,21.9499,0.1631,0.7214,1.4313,46.1406
15:09:31:087,-1.3525,2.8011,6.6532,21.3371,0.0666,0.7373,1.4802,44.9688
15:09:31:106,-0.8453,3.0739,6.7178,20.9827,-0.0812,0.6683,1.4991,44.8594
15:09:31:127,-0.3257,3.201,7.2111,20.7762,-0.2401,0.543,1.413,42.875
15:09:31:146,-0.3903,3.2584,8.1159,20.4987,-0.3683,0.3903,1.2583,42.6875
15:09:31:168,-0.565,3.4403,9.4591,20.0716,-0.4062,0.2321,1.1392,40.1875
15:09:31:194,-0.9075,3.5695,11.2427,19.7217,-0.2847,0.0574,0.9755,39.9531
15:09:31:208,-1.0415,3.1268,11.8173,19.4857,-0.1649,-0.0452,0.9431,37.625
15:09:31:229,-1.3238,3.2082,11.6641,19.5641,-0.0318,-0.0092,1.0244,37.3906
15:09:31:246,-1.2879,3.3733,10.8715,19.1152,-0.0177,0.2034,1.2064,34.7969
15:09:31:266,0.0502,2.9303,9.5213,18.9922,-0.179,0.4612,1.3659,34.5469
15:09:31:287,1.4844,2.0638,8.8032,18.5606,-0.5669,0.4985,1.2974,31.5312
15:09:31:310,1.9968,1.1515,10.8523,18.486,-1.1179,0.1564,1.0629,31.2188
15:09:31:327,1.506,0.6751,13.8643,18.5104,-1.5529,-0.1142,0.8766,28.0156
15:09:31:347,0.6153,0.4741,15.1307,18.5281,-1.5999,0.1216,0.879,24.0469
15:09:31:366,-0.0096,0.486,13.9911,18.4421,-1.251,0.5608,1.0916,24.0469
15:09:31:387,-0.0191,1.0247,11.7287,18.511,-0.7281,0.8356,1.4221,20.4531
15:09:31:409,0.9027,2.2002,9.9476,19.1007,-0.3427,0.857,1.7825,20.4531
15:09:31:427,2.2433,3.3613,8.5277,19.8494,-0.2676,0.8381,1.9969,17.5625
15:09:31:446,2.5522,3.821,7.678,20.7688,-0.4893,0.8961,1.9163,17.5625
15:09:31:468,1.8003,3.5599,8.4033,21.5591,-0.7935,0.802,1.6567,15.2031
15:09:31:492,1.3382,3.1292,8.8558,22.6014,-0.8711,0.7043,1.4692,15.2031
15:09:31:509,1.398,3.1579,9.1669,23.7317,-0.7287,0.6524,1.3623,13.0469
15:09:31:528,1.6735,3.414,9.5692,25.1818,-0.4844,0.5223,1.24,13.0469
15:09:31:547,1.7501,3.3326,9.0927,26.2825,-0.1906,0.4966,1.0806,10.0156
15:09:31:567,1.5012,3.28,8.2334,27.3688,0.0599,0.4844,0.9065,10.0156
15:09:31:587,1.1468,3.2177,7.7617,28.108,0.1704,0.3934,0.7336,7.4375
15:09:31:612,0.9482,3.0595,7.5221,29.1523,0.1533,0.2975,0.6005,7.1875
15:09:31:627,0.7875,2.9447,7.9149,30.0472,0.058,0.1344,0.507,5.3906
15:09:31:647,0.7588,3.038,8.7864,30.6338,-0.0599,-0.0354,0.4563,5.2031
15:09:31:668,0.6607,3.3541,9.3299,31.0349,-0.1888,-0.0104,0.4355,2.3906
15:09:31:695,-0.8429,3.9814,10.0672,31.2849,-0.5064,0.0275,0.3708,2.1094
15:09:31:707,-1.3789,4.7498,11.2187,31.1539,-0.5999,-0.1429,0.3879,357.9844
15:09:31:726,-1.1037,5.2645,12.3512,31.3532,-0.6194,-0.1643,0.4111,357.5781
15:09:31:746,-0.2201,4.9056,13.2443,31.3932,-0.5791,-0.0996,0.325,353.6562
15:09:31:766,-0.3305,3.4259,13.2754,31.5065,-0.4429,0.0128,0.0244,353.2656
15:09:31:787,-1.7979,1.6854,13.0406,31.5726,-0.193,0.0391,-0.3317,350.1562
15:09:31:810,-3.9191,0.4119,12.9808,31.5862,0.0947,0.0269,-0.4355,349.8438
15:09:31:827,-5.7003,-0.1005,12.1908,31.7676,0.3763,0.1997,-0.1014,347.3281
15:09:31:846,-5.8439,0.134,11.0321,31.5842,0.576,0.3317,0.5968,345.1094
15:09:31:867,-3.6078,0.7971,10.5628,31.9481,0.6218,0.223,1.3359,345.1094
15:09:31:886,-1.5347,0.9936,11.0417,32.2721,0.4966,0.0892,1.6714,343.8125
15:09:31:909,-1.2401,0.941,11.1661,32.7157,0.3372,0.2559,1.628,343.8125
15:09:31:927,-1.8434,1.0319,9.926,32.9665,0.2895,0.678,1.573,342.8281
15:09:31:946,-2.1021,1.13,8.2932,33.4512,0.3164,0.956,1.617,342.8281
15:09:32:007,-2.1165,1.4773,7.2805,34.3875,0.3231,0.9132,1.6585,341.9375
15:09:32:007,-2.0327,1.8601,6.9667,35.3652,0.2468,0.7263,1.6231,341.9375
15:09:32:008,-1.6232,2.004,6.8853,36.4494,0.0947,0.5846,1.5364,341.9219
15:09:32:029,-1.0391,1.7931,7.0675,37.3943,-0.0977,0.5101,1.3836,341.0781
15:09:32:045,-0.9099,1.2018,7.3164,38.452,-0.3018,0.507,1.1588,340.6875
15:09:32:129,-1.3884,0.5818,7.6397,39.5085,-0.4905,0.5461,0.97,340.6875
15:09:32:130,-1.9729,0.4406,8.0273,40.452,-0.6249,0.5852,0.9413,341.5156
15:09:32:130,-2.2528,0.6511,8.365,41.5985,-0.6768,0.6176,1.0458,341.5156
15:09:32:131,-2.2265,0.9529,8.7769,42.522,-0.6426,0.5962,1.1881,340.9688
15:09:32:145,-1.8505,1.319,8.875,43.4922,-0.5278,0.5834,1.3323,340.9219
15:09:32:166,-1.2497,1.9439,8.9492,44.5717,-0.4032,0.5363,1.4356,337.8906
15:09:32:186,-0.6081,2.6288,9.5046,45.6285,-0.3317,0.4594,1.4258,337.5938
15:09:32:208,-0.0502,2.758,9.8638,46.779,-0.2236,0.4093,0.9884,334.2344
15:09:32:226,-0.4645,2.3892,10.3543,47.7451,-0.1619,0.3189,0.6958,333.9062
15:09:32:246,-0.996,2.1428,10.7949,48.6968,-0.0935,0.2676,0.5449,330.3125
15:09:32:265,-1.0606,2.0255,11.2164,49.5379,-0.0147,0.223,0.5565,329.9688
15:09:32:286,-0.577,1.992,12.2985,50.3381,0.0806,0.0904,0.6188,326.5625
15:09:32:308,0.0479,2.0901,13.0167,50.8434,0.2395,0.0299,0.675,326.2344
15:09:32:328,0.4669,2.4179,13.0693,51.2206,0.4343,0.099,0.7086,323.4844
15:09:32:346,0.6296,2.758,12.0565,51.7123,0.6011,0.2321,0.7153,321.0781
15:09:32:367,1.2497,2.849,10.8643,51.9153,0.667,0.2028,0.6756,321.0781
15:09:32:386,2.2624,2.6145,10.4839,52.4901,0.5901,-0.1112,0.4801,318.1562
15:09:32:408,2.4371,1.8051,11.0848,52.6498,0.3799,-0.529,0.0489,318.1562
15:09:32:426,1.8601,1.13,12.2722,52.7321,0.1161,-0.7904,-0.369,314.9062
15:09:32:445,1.4079,0.7301,13.0741,52.7528,-0.0617,-0.7287,-0.5131,314.9062
15:09:32:467,1.3358,0.7732,12.9162,52.5401,-0.0678,-0.416,-0.449,311.7812
15:09:32:486,1.5538,1.2808,11.6426,52.3395,0.099,-0.0434,-0.3653,311.7812
15:09:32:508,1.7668,1.561,9.4256,51.9455,0.3317,0.2669,-0.4447,311.75
15:09:32:527,1.6783,1.4342,7.4551,51.5952,0.4875,0.3329,-0.6939,309.7812
15:09:32:545,1.1922,1.2138,6.5312,50.9011,0.5015,0.1271,-0.9822,308.4844
15:09:32:567,0.5674,1.2185,6.682,50.1699,0.4374,-0.1875,-1.1802,308.4844
15:09:32:587,0.1484,1.3789,7.1584,49.3904,0.394,-0.3409,-1.2431,307.0469
15:09:32:609,-0.2249,1.6735,6.9715,48.8204,0.3812,-0.1826,-1.196,307.0469
15:09:32:627,-0.5124,2.1452,6.3108,48.3988,0.3708,0.0189,-1.1142,305.6094
15:09:32:645,-0.6535,2.5065,5.9303,48.0292,0.339,0.0147,-1.0763,305.4688
15:09:32:666,-0.766,2.6575,6.3969,47.4647,0.284,-0.1924,-1.105,304.3281
15:09:32:686,-0.9003,2.7772,7.3259,46.7466,0.2358,-0.325,-1.1313,304.2188
15:09:32:709,-1.8099,3.256,7.7354,46.1777,0.0886,-0.0281,-0.9969,304.7969
15:09:32:727,-1.8075,3.4187,8.4081,45.8161,-0.0367,-0.0733,-0.8576,304.7969
15:09:32:745,-1.4127,3.548,9.4687,45.3807,-0.1155,-0.1888,-0.7348,305.9531
15:09:32:765,-1.6376,3.7158,10.5102,44.6307,-0.1533,-0.2101,-0.6793,306.0625
15:09:32:786,-2.3103,3.9957,11.6809,43.9645,-0.1558,-0.2052,-0.6426,306.8594
15:09:32:809,-2.4251,3.8569,12.4445,43.6198,-0.0678,-0.1723,-0.5553,306.9219
15:09:32:826,-2.2193,3.4379,12.6745,42.9525,0.1216,-0.1148,-0.4423,308.5469
15:09:32:845,-2.2983,3.3374,12.2459,42.75,0.3335,-0.014,-0.3378,311.25
15:09:32:867,-2.8346,3.6293,11.3791,42.3328,0.4532,0.1026,-0.2517,311.25
15:09:32:886,-3.2345,3.8067,10.5915,41.9334,0.4569,0.1209,-0.2077,314.1094
15:09:32:909,-3.3661,3.5719,9.8901,41.4513,0.3806,0.0544,-0.2352,314.1094
15:09:32:927,-2.983,2.4993,9.9212,41.0402,0.215,-0.1362,-0.3323,316.5938
15:09:32:946,-3.0763,1.3214,10.9193,40.7229,0.0501,-0.358,-0.4618,316.5938
15:09:32:993,-4.3597,0.9458,11.3623,40.1623,0.0324,-0.2932,-0.5107,318.9531
15:09:32:994,-5.5615,0.8812,10.2586,39.6818,0.1674,0.0819,-0.3146,319.1875
15:09:33:006,-5.5017,1.1779,8.5253,39.2051,0.3292,0.3409,0.0709,319.2031
15:09:33:030,-4.7883,1.5778,7.3738,38.8719,0.3518,0.3268,0.3769,321.25
15:09:33:046,-3.7564,1.7046,7.1273,38.6867,0.1765,0.1936,0.5345,322.8906
15:09:33:068,-2.6216,1.6448,7.6732,38.561,-0.1344,0.0983,0.6023,322.8906
15:09:33:086,-1.951,1.6735,8.4894,38.49,-0.4221,0.0709,0.6151,324.2812
15:09:33:112,-1.707,1.7285,9.1478,38.4203,-0.5406,0.0794,0.6316,324.2812
15:09:33:127,-1.427,1.9247,9.5692,38.4406,-0.4581,0.0849,0.6884,325.125
15:09:33:146,-0.9577,2.3127,9.3945,38.8511,-0.2138,0.0941,0.7446,325.2031
15:09:33:167,-0.6559,2.8633,8.3602,39.0455,0.088,0.1588,0.7397,325.6875
15:09:33:188,-0.7684,3.3206,7.1106,39.2693,0.284,0.1991,0.6634,325.7344
15:09:33:206,-1.1827,3.6751,6.658,39.419,0.281,0.124,0.5583,326.3594
15:09:33:229,-1.7189,3.6317,7.5269,39.6727,-0.0067,0.0373,0.4154,326.4062
15:09:33:246,-1.8242,3.4929,8.164,39.826,-0.0928,0.0733,0.3879,327.5156
15:09:33:269,-1.6543,3.2536,8.6785,40.1127,-0.1057,0.091,0.4025,327.625
15:09:33:286,-1.5203,3.3182,9.1502,40.2853,-0.0788,0.0538,0.438,327.8281
15:09:33:312,-1.3813,3.524,9.4759,40.5847,-0.0324,-0.0287,0.46,327.8438
15:09:33:329,-0.7684,3.3517,9.9069,40.5628,0.0018,-0.1521,0.4447,326.875
15:09:33:345,-0.055,3.2273,10.8188,40.5072,-0.0208,-0.2645,0.3995,325.4844
15:09:33:368,0.5674,3.3326,11.6593,40.4692,-0.0751,-0.2578,0.3402,325.4844
15:09:33:387,0.8716,3.3757,11.7383,40.3275,-0.113,-0.1332,0.2498,323.7812
15:09:33:406,0.6296,3.5815,11.5636,40.7435,-0.1338,-0.0556,0.1429,323.7812
15:09:33:428,0.6511,3.8019,11.3719,40.5845,-0.1271,-0.0696,0.0867,322.2344
15:09:33:446,1.0439,3.9263,11.1278,40.4129,-0.1069,-0.1167,0.0446,322.0938
15:09:33:467,1.5706,3.6461,10.8188,40.1526,-0.1258,-0.1429,-0.0678,322.0781
15:09:33:487,1.8027,2.6791,10.7542,40.0366,-0.2089,-0.1643,-0.2511,320.6875
15:09:33:506,1.3621,2.1117,11.2714,39.7798,-0.2969,-0.215,-0.4093,320.6875
15:09:33:529,0.8692,1.8553,11.5373,39.5431,-0.2657,-0.2089,-0.4361,319.7031
15:09:33:545,1.0032,1.8505,11.1015,39.0741,-0.066,-0.1753,-0.3494,318.7812
15:09:33:568,1.3167,2.1882,10.0624,38.5872,0.215,-0.1594,-0.3176,318.7812
15:09:33:587,1.1372,2.5283,8.8606,38.0821,0.4001,-0.1552,-0.441,317.7812
15:09:33:606,0.7253,2.4036,8.1401,37.821,0.3928,-0.1845,-0.6353,317.7812
15:09:33:631,0.1555,1.9753,7.8311,37.3315,0.2358,-0.1619,-0.7996,316.9375
15:09:33:646,-0.498,1.8242,7.8168,36.7653,0.0525,-0.0849,-0.857,316.9375
15:09:33:667,-0.9793,2.0016,7.8191,36.2943,-0.0544,0.0244,-0.8057,316.4219
15:09:33:687,-1.1372,2.2959,7.7521,35.9611,-0.0415,0.1112,-0.7092,316.375
15:09:33:707,-1.1539,2.5618,7.5197,36.046,0.0611,0.1649,-0.6463,316.1562
15:09:33:726,-1.0487,2.7245,7.101,35.5233,0.1765,0.1704,-0.6249,316.1406
15:09:33:747,-1.0343,2.9782,7.0579,35.2146,0.1955,0.0195,-0.6255,316.2031
15:09:33:768,-1.0463,3.0933,7.4504,34.6307,0.1032,-0.0476,-0.6084,316.2188
15:09:33:787,-0.9505,3.134,8.0154,34.2101,0.0147,-0.0629,-0.5589,316.9375
15:09:33:812,-0.5626,3.335,8.8511,34.0948,-0.0305,-0.0195,-0.4581,317
15:09:33:836,-0.213,3.6631,9.4854,33.717,-0.0483,0.0745,-0.3439,317.8594
15:09:33:847,-0.3903,4.1967,9.9763,33.4929,-0.0409,0.1063,-0.2755,318.7812
15:09:33:868,-0.8812,4.6851,10.2419,32.9391,0.0257,0.0647,-0.2669,318.7812
15:09:33:889,-1.2018,4.8912,10.4599,32.6248,0.1106,-0.0122,-0.3011,320.3906
15:09:33:912,-1.5658,4.7163,10.6896,32.3087,0.1435,-0.0709,-0.3659,320.3906
15:09:33:928,-2.0973,4.3908,10.7136,32.1923,0.1112,-0.0702,-0.4056,320.5469
15:09:33:946,-2.9279,4.1465,10.9074,31.9482,0.0464,-0.0764,-0.3861,322.3906
15:09:34:014,-4.0484,4.2616,11.324,31.562,-0.0067,-0.0696,-0.3152,322.4062
15:09:34:015,-4.8936,4.5248,11.0082,31.4194,0.0006,-0.0006,-0.1796,323.8281
15:09:34:015,-4.6469,4.1871,10.5772,31.0399,0.0183,-0.0452,-0.0599,323.8438
15:09:34:027,-3.5049,2.6815,11.1398,30.7002,0.0031,-0.2694,-0.0794,325.1719
15:09:34:047,-3.1914,0.984,11.9034,30.4135,0.0208,-0.4227,-0.1985,326.5469
15:09:34:069,-4.0938,0.0933,12.3918,30.3562,0.1216,-0.3464,-0.2022,326.5469
15:09:34:087,-4.5894,0.0311,11.7144,30.1716,0.3262,0.0055,0.0812,327.6875
15:09:34:107,-4.0866,0.5291,10.2538,30.2762,0.5272,0.3958,0.5382,327.6875
15:09:34:131,-3.3781,1.1037,8.8199,30.3853,0.6047,0.6115,0.8851,328.3281
15:09:34:191,-2.6169,1.7189,7.6708,30.4775,0.5516,0.642,1.0739,328.3281
15:09:34:192,-1.7644,2.0925,7.0122,30.7382,0.3861,0.5773,1.1252,328.9062
15:09:34:192,-1.0726,2.3222,6.658,31.0847,0.1216,0.4972,1.0653,328.9531
15:09:34:206,-0.9434,2.406,6.7801,31.4103,-0.2022,0.3958,0.9407,329.7812
15:09:34:233,-1.1109,2.3486,7.6014,31.7484,-0.4911,0.303,0.835,329.8594
15:09:34:247,-1.3143,2.9495,8.1473,32.2094,-0.5876,0.4453,0.8589,330.5938
15:09:34:268,-1.2616,3.3015,7.6445,32.4679,-0.4343,0.5082,0.8955,330.6719
15:09:34:287,-1.1444,3.6775,7.2446,32.7525,-0.2474,0.4203,0.879,330.9219
15:09:34:305,-1.1683,3.8928,7.3403,33.3376,-0.1075,0.2443,0.8008,330.9531
15:09:34:329,-1.3214,3.9742,7.7163,33.8179,-0.0403,0.1393,0.7202,331.375
15:09:34:346,-1.386,4.2401,8.1449,33.9414,-0.0269,0.124,0.6793,331.6406
15:09:34:365,-1.4988,4.5224,8.5325,34.4744,-0.0605,0.1344,0.6273,331.6406
15:09:34:387,-1.5826,4.3813,9.1286,34.7271,-0.1161,0.0861,0.532,331.6719
15:09:34:405,-1.331,3.9455,10.1366,34.9274,-0.1301,-0.0379,0.4319,330.0938
15:09:34:429,-1.0822,3.5121,10.6226,35.2742,-0.0855,-0.0788,0.3604,329.9531
15:09:34:447,-0.8139,3.3063,10.7542,35.513,-0.0709,-0.0421,0.3347,327.2812
15:09:34:468,-0.5076,3.3924,10.783,35.4348,-0.1179,0.0092,0.358,327.2656
15:09:34:486,-0.5195,3.8067,10.8188,35.3571,-0.1997,0.0299,0.3903,324.8281
15:09:34:506,-0.3616,4.2329,10.7566,35.5365,-0.2822,0.0244,0.4178,324.7969
15:09:34:530,0.5722,4.1297,10.6801,35.4871,-0.3757,-0.0122,0.4172,322.75
15:09:34:546,1.8194,3.402,10.8236,35.4353,-0.4899,-0.1381,0.2895,320.5
15:09:34:568,2.6025,1.8218,11.5134,35.4145,-0.6255,-0.2822,0.0049,320.5
15:09:34:586,1.9295,0.7445,12.7989,35.2381,-0.7122,-0.3543,-0.2749,318.4531
15:09:34:606,0.5626,0.5865,13.1626,34.9863,-0.5882,-0.1973,-0.2944,318.4531
15:09:34:630,-0.0933,1.4366,12.076,34.9759,-0.2077,0.0764,0.0159,316.8281
15:09:34:646,0.7229,2.5403,10.7518,35.0579,0.2633,0.1356,0.3451,316.8281
15:09:34:667,2.1356,3.3446,9.4496,35.4023,0.5889,0.0745,0.3879,315.4844
15:09:34:686,3.0141,3.5934,8.2813,35.2276,0.6334,-0.0061,0.0678,315.4844
15:09:34:706,2.4299,2.9686,7.6756,35.3243,0.3952,-0.0855,-0.5009,314.7031
15:09:34:730,0.6368,2.0901,7.5174,35.2831,0.0312,-0.0892,-0.9963,314.625
15:09:34:747,-1.1061,1.5969,7.733,35.4754,-0.2419,-0.0586,-1.1392,313.9219
15:09:34:769,-1.5347,2.2289,8.1616,35.6378,-0.2578,0.0018,-0.6377,313.8594
15:09:34:788,-0.7445,2.7437,8.3913,35.666,-0.1503,-0.0012,-0.4166,313.0156
15:09:34:806,-0.297,3.0165,8.377,35.5381,-0.0263,0.0086,-0.3622,312.9219
15:09:34:826,-0.2297,3.1149,8.2047,35.2008,0.0898,0.0012,-0.3879,312.2031
15:09:34:849,-0.0766,3.2895,7.9149,35.1844,0.1631,-0.0079,-0.3867,312.1406
15:09:34:866,0.0837,3.6221,8.0608,35.1412,0.1454,-0.0397,-0.3781,312.4688
15:09:34:885,-0.0096,3.8474,8.4655,35.0022,0.0666,-0.0568,-0.4117,312.5156
15:09:34:906,-0.3449,3.7684,9.0808,34.7352,-0.0043,-0.0727,-0.4795,312.7812
15:09:34:930,-0.8163,3.7134,9.7032,34.5823,-0.0409,-0.0605,-0.5143,312.8125
15:09:34:946,-1.1109,3.711,10.3519,34.5403,-0.0647,-0.0153,-0.482,312
15:09:35:028,-1.1922,3.6197,11.0249,34.4692,-0.0556,0.0195,-0.4087,312
15:09:35:029,-1.1539,3.4475,11.1972,34.6208,0.044,0.0593,-0.3195,312.5312
15:09:35:030,-1.0152,3.469,10.7686,34.6547,0.2004,0.0513,-0.226,312.5312
15:09:35:030,-0.6224,3.8234,10.7279,34.6036,0.3237,-0.1454,-0.1576,314.8906
15:09:35:045,-0.6272,4.1225,11.1374,34.4483,0.3647,-0.3262,-0.1851,316.625
15:09:35:069,-1.7596,4.2927,10.8619,34.1593,0.3268,-0.2052,-0.314,316.625
15:09:35:088,-3.3733,4.2951,9.926,34.2883,0.2004,0.0861,-0.4184,317.4844
15:09:35:106,-4.0866,3.8593,9.3802,34.3147,-0.0226,0.2718,-0.4038,317.4844
15:09:35:126,-3.6488,2.9901,9.926,34.4124,-0.2566,0.2358,-0.3054,318.3594
15:09:35:148,-3.2225,2.126,11.1254,34.3364,-0.3518,0.1411,-0.234,318.3594
15:09:35:168,-3.8521,1.8505,11.5325,34.2611,-0.2327,0.2358,-0.1845,319.2656
15:09:35:187,-4.5488,1.884,10.328,34.4936,0.0544,0.4606,-0.0257,319.2656
15:09:35:207,-4.4411,2.0734,8.7458,35.0286,0.3396,0.4911,0.201,320.2812
15:09:35:232,-3.7732,2.2098,7.7569,35.6554,0.4887,0.2743,0.3494,320.3906
15:09:35:246,-2.892,2.0207,7.6277,35.992,0.4673,0.0165,0.3928,321.2656
15:09:35:268,-2.0901,1.7453,7.9579,36.2878,0.314,-0.1515,0.3775,321.3594
15:09:35:287,-1.8434,1.4988,8.4846,36.3768,0.0953,-0.1588,0.3347,321.9062
15:09:35:307,-1.9896,1.8338,7.9508,36.7485,-0.1851,0.2767,0.5327,321.9531
15:09:35:331,-1.4438,2.2098,7.168,37.226,-0.1594,0.3726,0.7006,322.4375
15:09:35:347,-0.8378,2.4993,6.5216,37.5893,-0.0947,0.3103,0.7617,322.4844
15:09:35:366,-0.7732,3.1866,7.2637,37.9017,-0.1234,0.0715,0.7141,323.2812
15:09:35:386,-0.8931,3.7158,8.3435,38.213,-0.1759,-0.0495,0.6487,323.3594
15:09:35:406,-1.0774,3.9742,8.5971,38.4431,-0.1338,0.0599,0.587,323.9531
15:09:35:431,-1.4557,3.967,8.1302,38.9605,-0.0061,0.1631,0.5088,324.0156
15:09:35:449,-1.762,4.0196,7.8215,39.4114,0.1405,0.047,0.441,324.3125
15:09:35:468,-1.817,4.0962,7.9986,39.6695,0.2523,-0.2437,0.3891,324.3438
15:09:35:487,-1.9705,4.046,8.5923,39.908,0.2871,-0.485,0.3299,323.9844
15:09:35:506,-2.1284,3.9981,9.1119,40.0589,0.2065,-0.4856,0.3103,323.9844
15:09:35:533,-1.8505,3.7708,9.7223,39.9391,-0.0098,-0.2926,0.3769,323.1875
15:09:35:546,-1.0678,3.6775,10.3208,40.0524,-0.2749,-0.0574,0.5162,322.5156
15:09:35:569,-0.0909,3.7062,10.9914,40.2536,-0.4618,0.0525,0.6273,322.5156
15:09:35:588,0.754,3.5599,11.6258,39.9458,-0.4844,0.0006,0.6328,321.4219
15:09:35:606,1.3047,3.4283,12.2195,40.1459,-0.3347,-0.1698,0.5559,321.4219
15:09:35:632,1.7142,3.4379,12.277,40.0748,-0.0861,-0.2785,0.4746,319.625
15:09:35:648,2.2409,3.402,11.6139,40.3037,0.1277,-0.259,0.3946,319.625
15:09:35:668,2.7197,3.122,10.4121,40.5726,0.1888,-0.1949,0.2431,318.0938
15:09:35:686,3.0236,2.5331,10.1677,40.9387,0.1038,-0.2902,0.0104,318.0938
15:09:35:706,2.5714,2.4347,10.6466,40.9862,0.0287,-0.394,-0.2089,316.9375
15:09:35:730,1.8458,2.8442,10.1892,40.8284,0.0751,-0.2755,-0.2914,316.8281
15:09:35:749,1.6184,3.1579,9.1382,41.113,0.1643,-0.1833,-0.2676,316.0469
15:09:35:767,1.9223,3.2512,8.4488,41.0436,0.2016,-0.2718,-0.2761,315.9688
15:09:35:788,2.3222,3.1531,8.0536,41.1054,-0.0031,-0.4007,-0.5895,315.5781
15:09:35:808,2.4084,2.7078,7.8144,41.221,-0.2602,-0.369,-0.8112,315.5312
15:09:35:832,1.0558,1.9896,8.3339,40.9121,-0.4771,-0.2944,-0.9468,314.7031
15:09:35:848,0.3138,1.9777,8.444,40.8703,-0.5192,-0.1851,-0.9377,314.625
15:09:35:867,0.0191,2.3916,8.2119,40.8826,-0.3861,-0.0959,-0.8295,313.3125
15:09:35:886,0.0598,2.8944,7.8861,40.9852,-0.1796,-0.0715,-0.7465,313.1875
15:09:35:906,0.2034,3.146,7.6349,40.7894,-0.0128,-0.1179,-0.7532,312.2188
15:09:35:927,0.2465,2.9806,7.7426,40.9608,0.0354,-0.1784,-0.8411,312.125
15:09:35:948,-0.0383,2.6838,7.9029,41.0808,-0.0336,-0.1423,-0.9144,311.5938
15:09:36:018,-0.6488,2.6743,8.4775,40.9026,-0.1796,-0.0874,-0.8949,311.5312
15:09:36:019,-1.0702,2.7867,9.6123,41.0088,-0.2932,-0.0574,-0.7831,311.9062
15:09:36:019,-1.2257,2.8705,10.0816,40.9164,-0.2688,0.0483,-0.6341,311.9062
15:09:36:027,-1.3932,2.983,10.2395,40.8747,-0.1558,0.1032,-0.4997,312.6406
15:09:36:047,-1.4821,3.2177,10.692,41.0037,-0.0641,0.0629,-0.3842,313.5312
15:09:36:068,-1.7836,3.5958,11.1852,41.1093,-0.0458,0.0684,-0.2559,313.5312
15:09:36:086,-1.7716,3.9383,11.6833,40.9512,-0.0647,0.1203,-0.0983,315.25
15:09:36:106,-1.4127,4.1345,11.9321,41.1054,-0.0403,0.1949,0.0568,315.25
15:09:36:132,-0.9003,4.0866,11.6761,41.2732,0.0733,0.212,0.149,317.4219
15:09:36:149,-0.8764,4.0723,11.2929,41.4827,0.1875,0.1478,0.1313,317.4219
15:09:36:166,-1.2329,3.8641,11.2283,41.7985,0.1662,0.0409,0.0483,319.1875
15:09:36:186,-1.4844,3.2919,11.5229,42.1072,0.0348,-0.0751,-0.0086,319.1875
15:09:36:257,-1.6687,2.5642,12.4421,42.399,-0.0434,-0.2388,-0.0189,321
15:09:36:257,-1.9606,1.8817,12.7247,42.8082,0.0898,-0.234,0.0391,321
15:09:36:258,-2.4873,2.0542,11.8508,43.2318,0.4166,-0.0324,0.1851,322.8594
15:09:36:268,-2.5522,2.6551,9.7534,43.514,0.7623,0.2382,0.3897,323.0469
15:09:36:286,-2.0566,3.0045,7.7258,43.6987,0.9004,0.3048,0.532,324.4531
15:09:36:308,-1.3836,3.3159,7.0579,43.9332,0.4386,-0.0061,0.4184,324.5938
15:09:36:332,-0.9745,3.5025,7.4934,44.2585,0.0507,0.0874,0.2773,325.4531
15:09:36:350,-0.9266,3.4666,8.2717,44.5293,-0.2669,0.347,0.1503,325.5312
15:09:36:366,-1.2808,2.5232,8.6186,44.601,-0.4068,0.5345,0.0605,325.8438
15:09:36:387,-1.3214,2.3366,8.4057,44.9977,-0.314,0.5314,0.0501,325.8906
15:09:36:406,-1.051,2.2146,7.5126,45.3043,-0.0446,0.4526,0.1057,325.6094
15:09:36:427,-0.996,2.3318,6.5862,45.6592,0.1955,0.3091,0.1435,325.5781
15:09:36:448,-1.0343,2.7915,6.361,46.0376,0.2333,0.1326,0.1558,325.3906
15:09:36:466,-0.941,3.2536,6.7418,46.3247,0.1252,0.0202,0.1869,325.3594
15:09:36:487,-0.7445,3.6078,7.5245,46.6501,0.0367,-0.0605,0.2132,325.4531
15:09:36:506,-0.7732,3.9981,7.7163,46.9388,0.0421,-0.0489,0.1845,325.4531
15:09:36:527,-0.8501,4.2162,7.6684,47.2749,0.0684,-0.0183,0.1038,325.2969
15:09:36:549,-0.7971,4.2185,7.9555,47.2711,0.0464,-0.058,0.0214,324.25
15:09:36:568,-0.7636,4.3334,8.6258,47.3348,-0.0153,-0.1607,-0.0373,324.25
15:09:36:588,-0.7062,4.2162,9.5213,47.3281,-0.0605,-0.2712,-0.0837,323.2188
15:09:36:606,-0.6799,3.8378,10.5269,47.4141,-0.0263,-0.3616,-0.1197,323.2188
15:09:36:628,-0.2297,3.5527,10.8093,47.5769,0.1203,-0.419,-0.0892,322.625
15:09:36:649,0.4286,3.591,10.9098,47.5334,0.2443,-0.5009,-0.0421,322.625
15:09:36:668,0.8955,3.8186,11.2857,47.5053,0.2676,-0.5913,-0.0293,322.2031
15:09:36:688,1.3502,3.967,11.1876,47.5216,0.273,-0.6078,-0.0287,322.2031
15:09:36:707,1.9104,3.9574,11.2092,47.6203,0.3036,-0.6634,-0.0672,321.75
15:09:36:732,2.071,3.6102,11.0513,47.3102,0.3311,-0.6799,-0.2052,321.75
15:09:36:750,1.5873,2.8992,10.9938,46.9983,0.2767,-0.584,-0.4062,321.4062
15:09:36:767,0.7636,2.5905,11.0082,46.5466,0.1289,-0.3335,-0.5076,321.3594
15:09:36:786,0.4645,2.8609,10.3735,46.0329,-0.0067,0.0195,-0.3861,321
15:09:36:807,0.9338,3.2824,9.6075,45.8717,-0.0562,0.1759,-0.2034,320.9531
15:09:36:833,1.8003,3.6054,8.2262,45.7098,0.0397,-0.3305,-0.3128,320.8594
15:09:36:850,1.7907,2.9183,9.0353,45.3077,-0.0501,-0.6811,-0.5443,320.8438
15:09:36:867,1.4533,2.2696,9.8255,44.8749,-0.215,-0.6719,-0.6762,321.0625
15:09:36:886,0.7301,2.0518,9.8853,44.9262,-0.2804,-0.3836,-0.6988,321.0781
15:09:36:906,-0.0024,2.3462,8.8199,44.8189,-0.1833,-0.0586,-0.6029,321.4688
15:09:36:926,-0.1819,2.8633,7.6062,44.8823,-0.0293,0.0855,-0.4441,321.5
15:09:36:950,-0.2512,3.4379,7.1225,45.0952,0.0635,0.055,-0.3329,321.8438
15:09:37:017,-0.0837,3.8713,6.9021,44.8945,0.1081,-0.0092,-0.2798,321.875
15:09:37:018,0.2417,4.0986,6.9356,44.832,0.1264,-0.0898,-0.2999,322.2969
15:09:37:018,0.1866,4.0675,7.3642,44.8914,0.0916,-0.1833,-0.3842,322.3281
15:09:37:027,-0.2584,3.8474,7.7809,44.9139,0.0281,-0.1851,-0.4594,323.3438
15:09:37:050,-0.9123,3.7158,8.0536,44.8102,-0.0305,-0.0983,-0.4514,324.4219
15:09:37:066,-1.1874,3.7181,8.0417,44.9723,-0.044,-0.0183,-0.3372,324.4219
15:09:37:087,-0.8788,3.955,8.432,44.9049,-0.0495,-0.044,-0.171,324.7656
15:09:37:106,-0.7158,4.3597,9.5548,44.8227,-0.0977,-0.1063,-0.036,324.7656
15:09:37:127,-0.6153,4.7521,10.6729,44.8769,-0.1313,-0.058,0.0605,325.9688
15:09:37:148,-0.3114,4.9008,11.0441,44.7471,-0.1161,0.1075,0.1381,325.9688
15:09:37:166,0.201,4.9128,11.4987,44.6182,-0.091,0.2071,0.1863,327.75
15:09:37:187,0.7038,5.1257,11.8316,44.8763,-0.0464,0.2291,0.1888,327.75
15:09:37:207,0.189,5.176,11.755,45.02,0.0177,0.2071,0.0776,328.9062
15:09:37:226,-1.1898,5.0587,11.1709,44.816,0.0434,0.2242,-0.0928,328.9062
15:09:37:250,-2.3462,4.5966,10.4695,44.9949,-0.0293,0.2755,-0.182,329.5156
15:09:37:267,-2.7485,3.833,10.7542,45.2038,-0.1759,0.2217,-0.1393,329.5781
15:09:37:286,-2.1452,3.0069,11.9417,45.3245,-0.2633,0.0825,0.0165,330.3281
15:09:37:306,-1.7285,2.5714,13.1794,45.5411,-0.1735,0.0232,0.1692,330.4062
15:09:37:329,-1.8864,2.8131,10.1175,45.9913,0.4991,0.4594,0.4612,331.3906
15:09:37:351,-1.7046,3.0404,8.3722,46.1135,0.6585,0.4325,0.5437,331.4688
15:09:37:369,-1.3597,3.2704,7.6612,46.2903,0.5724,0.2932,0.5638,332.0156
15:09:37:386,-1.142,3.1436,7.5966,46.6941,0.3525,0.2187,0.5192,332.0625
15:09:37:405,-1.0606,2.6791,7.9125,46.8488,0.1234,0.2205,0.4587,332.0781
15:09:37:427,-0.9242,2.3701,7.9723,46.988,-0.0147,0.2804,0.4606,332.0781
15:09:37:450,-0.7421,2.3868,7.8096,47.1968,-0.044,0.3244,0.5198,331.6719
15:09:37:466,-0.3281,2.6527,7.5413,47.4177,-0.0055,0.3335,0.6078,331.6406
15:09:37:486,0.2154,3.1484,7.1656,47.8316,0.044,0.3128,0.6646,331.2656
15:09:37:505,0.3042,3.5169,6.9787,47.941,0.0312,0.273,0.6194,331.2344
15:09:37:528,0.1364,3.6535,7.5054,48.1912,-0.0287,0.2162,0.5278,331.4062
15:09:37:549,0.1531,3.7708,7.9292,48.4921,-0.0055,0.1771,0.474,331.4531
15:09:37:567,0.1699,4.046,7.8048,49.0099,0.1155,0.1472,0.4306,331.4531
15:09:37:589,0.2273,4.3023,7.3786,49.3085,0.2016,0.1399,0.3726,330.8594
15:09:37:606,0.2898,4.52,7.4456,49.6244,0.1497,0.1332,0.3085,330.8594
15:09:37:627,0.1819,4.6588,7.9053,49.8685,0.0568,0.0983,0.2321,329.5781
15:09:37:649,0.0311,4.7498,8.3794,49.9162,0.0275,-0.0073,0.157,329.5781
15:09:37:668,-0.0718,4.9175,8.9372,50.2682,0,-0.1338,0.11,328.2969
15:09:37:688,0.2321,4.9199,9.926,50.3991,-0.0745,-0.2297,0.0794,328.2969
15:09:37:708,0.5411,4.7402,10.7662,50.5352,-0.1258,-0.2737,0.0293,327.1406
15:09:37:726,0.6488,4.4674,11.3719,50.406,-0.1417,-0.2944,-0.0354,327.1406
15:09:37:750,1.0367,4.4076,12.2172,50.4335,-0.1747,-0.292,-0.0501,325.7188
15:09:37:767,1.5778,4.6564,12.8276,50.236,-0.19,-0.2199,-0.0336,325.7188
15:09:37:786,1.9968,4.5583,13.0478,50.1683,-0.1246,-0.1521,-0.0764,324.2812
15:09:37:808,2.1691,4.0938,12.6625,50.178,0.0232,-0.1057,-0.1582,324.1406
15:09:37:827,2.1619,3.5575,11.8723,49.9292,0.1771,-0.0593,-0.2272,323.0156
15:09:37:852,1.2209,3.5264,9.6864,49.9048,0.2749,0.182,-0.292,322.9062
15:09:37:870,0.9721,3.7134,8.808,49.7745,0.2523,0.1771,-0.2743,322.0469
15:09:37:889,1.0941,3.7397,8.2884,49.7255,0.2223,0.0489,-0.2657,321.9531
15:09:37:905,1.5299,3.6006,7.4025,49.5157,0.1778,-0.0678,-0.306,321.3594
15:09:37:927,1.6472,3.2345,6.9715,49.5687,0.0183,-0.1759,-0.4368,321.2969
15:09:37:946,1.1874,2.782,7.5389,49.437,-0.2553,-0.2028,-0.5962,321.0625
15:09:38:010,0.3257,2.4538,8.3195,49.2576,-0.46,-0.1057,-0.7074,321.0469
15:09:38:011,-0.4836,2.2146,8.566,49.0658,-0.4514,0.0684,-0.7061,321.0625
15:09:38:011,-0.5315,2.5522,8.1879,48.9375,-0.2761,0.2358,-0.5382,321.0625
15:09:38:026,0,3.4642,7.2159,48.8424,-0.0654,0.3604,-0.3451,321.2812
15:09:38:050,0.1914,4.3095,6.4881,48.6561,0.0397,0.3842,-0.314,321.5312
15:09:38:068,0.0287,4.6205,6.3227,48.6712,0.0214,0.303,-0.3934,321.5312
15:09:38:088,-0.486,4.3789,6.6341,48.5689,-0.0483,0.1466,-0.4612,322
15:09:38:106,-0.8835,4.1369,7.5174,48.5976,-0.1271,-0.033,-0.4478,322
15:09:38:127,-0.7732,4.156,8.6689,48.5252,-0.1405,-0.1313,-0.3476,322.5781
15:09:38:150,-0.2752,4.1321,9.0018,48.6645,-0.0935,-0.0342,-0.2468,322.5781
15:09:38:168,-0.2441,4.0795,9.2124,48.6801,-0.0599,0.0782,-0.1961,323.125
15:09:38:188,-0.6918,4.3382,9.9882,48.6218,-0.0037,0.0519,-0.1442,323.125
15:09:38:206,-0.8091,4.6636,10.5245,48.6628,0.1509,0.0067,-0.0403,324.0156
15:09:38:226,-0.6176,4.9367,10.491,48.8495,0.3048,0.077,0.0678,324.0156
15:09:38:252,-0.2441,5.2645,9.9547,48.8337,0.3647,0.2236,0.1484,325.5156
15:09:38:336,-0.2776,5.6429,9.5955,48.9912,0.3268,0.2865,0.1289,325.5156
15:09:38:336,-0.8692,5.5878,9.6553,49.2091,0.2627,0.193,-0.0043,326.6562
15:09:38:337,-1.774,5.2047,9.6888,49.1558,0.204,0.0397,-0.1472,326.7656
15:09:38:337,-2.4227,4.5894,9.9595,49.2974,0.0861,-0.047,-0.2022,327.25
15:09:38:354,-2.8705,4.0675,10.649,49.4927,-0.1026,-0.0086,-0.1374,327.2969
15:09:38:369,-2.2624,3.2369,11.6426,49.3769,-0.1503,0.0214,0.1888,328.0469
15:09:38:387,-2.3988,3.5097,11.2642,49.1679,0.0812,0.0318,0.3286,328.1094
15:09:38:405,-2.2504,3.9311,9.5764,49.2866,0.3317,0.1118,0.4697,328.9375
15:09:38:426,-1.5012,4.022,8.4607,49.4315,0.3964,0.0861,0.5149,329.0156
15:09:38:451,-0.7732,3.8689,7.9244,49.1221,0.2504,0.0922,0.4429,329.4375
15:09:38:466,-0.5291,3.6054,7.6851,49.4209,-0.0079,0.1582,0.3195,329.4844
15:09:38:486,-0.6344,3.1723,7.9101,49.4655,-0.2553,0.1888,0.1979,329.6719
15:09:38:506,-0.6823,2.8442,8.3483,49.6339,-0.3738,0.1881,0.1466,329.6875
15:09:38:526,-0.5483,2.8083,8.3818,49.9244,-0.3244,0.2272,0.1753,329.4531
15:09:38:545,-0.577,2.9734,7.6636,50.266,-0.1649,0.317,0.234,329.2031
15:09:38:569,-0.687,3.268,6.4977,50.4778,-0.014,0.3971,0.2871,329.2031
15:09:38:588,-0.7516,3.5815,5.5663,50.3774,0.0104,0.372,0.3183,329.6094
15:09:38:606,-0.5722,3.8856,5.892,50.7531,-0.1038,0.1967,0.3079,329.6094
15:09:38:627,-0.3185,4.0268,7.0771,50.9179,-0.2566,0.0617,0.234,329.7031
15:09:38:651,-0.6392,4.0866,8.013,51.1138,-0.3506,0.1026,0.113,329.7031
15:09:38:669,-1.2138,4.18,8.6569,51.4936,-0.3586,0.1619,0.0348,329.1094
15:09:38:686,-1.427,4.2449,9.2219,52.0896,-0.2572,0.0904,0.0391,329.1094
15:09:38:706,-1.439,4.3837,9.6769,52.2458,-0.0605,-0.0647,0.0684,328.0312
15:09:38:726,-1.5873,4.6971,9.306,52.489,0.1264,-0.1032,0.0892,328.0312
15:09:38:745,-1.7118,4.9152,8.8893,52.6917,0.1429,-0.0751,0.099,327.1406
15:09:38:768,-1.7118,4.8266,9.3849,53.0922,0.0012,-0.1142,0.0965,327.1406
15:09:38:789,-1.4725,4.6205,10.3834,53.1999,-0.1203,-0.2022,0.1075,326.6406
15:09:38:808,-1.0319,4.6684,10.8954,53.4038,-0.1484,-0.2169,0.1399,326.5938
15:09:38:828,-0.699,4.9487,10.9002,53.0985,-0.1918,-0.1381,0.1704,326.0156
15:09:38:846,0.1244,5.0611,11.0201,52.8899,-0.2969,-0.0684,0.1875,325.9531
15:09:38:867,1.1468,4.5823,11.2307,53.1341,-0.4154,-0.0605,0.1057,325.1406
15:09:38:888,2.0303,1.9439,12.1143,53.3319,-0.5217,-0.2822,-0.3176,325.0625
15:09:38:906,1.829,1.2233,12.3105,53.4333,-0.4416,-0.2535,-0.4239,324.4219
15:09:38:927,0.9362,1.5658,11.0513,53.3015,-0.2682,0.0715,-0.3262,324.3594
15:09:38:946,0.7277,2.7628,9.2554,53.188,-0.1081,0.3237,-0.0214,324.0781
15:09:39:015,1.3956,3.7828,7.9316,53.4189,-0.0745,0.2871,0.1979,324.0625
15:09:39:015,2.0758,4.0173,7.2637,53.9276,-0.1576,0.1032,0.0806,323.9219
15:09:39:016,1.9199,3.4953,6.938,54.0872,-0.2981,-0.0428,-0.3286,323.9062
15:09:39:027,0.9266,2.6647,6.7178,54.2034,-0.4887,-0.124,-0.7636,323.7812
15:09:39:053,-0.2345,2.1667,7.314,54.0408,-0.7055,-0.2352,-0.9841,323.6094
15:09:39:069,-1.0008,2.016,8.164,54.1027,-0.868,-0.259,-0.9633,323.6094
15:09:39:088,-1.3478,2.1165,9.0473,54.2396,-0.8943,-0.2114,-0.7837,323.3438
15:09:39:108,-1.0917,2.4227,9.6912,54.6171,-0.7373,-0.11,-0.5357,323.3438
15:09:39:128,-0.2441,2.7772,9.7247,54.6594,-0.4337,0.0189,-0.317,323
15:09:39:146,0.4358,3.0141,9.2411,54.4146,-0.1173,0.0959,-0.2437,323
15:09:39:169,0.376,2.9997,8.6904,54.4736,0.0959,0.0702,-0.3292,323.5
15:09:39:188,-0.3329,2.7676,8.298,54.4866,0.1967,-0.0024,-0.4343,323.5
15:09:39:207,-0.8596,2.5953,8.1449,54.5568,0.2266,-0.0666,-0.4239,324.25
15:09:39:225,-0.9936,2.6288,8.4416,54.8522,0.1997,-0.1155,-0.3085,324.3125
15:09:39:246,-1.2568,2.8633,8.9803,54.8979,0.1148,-0.1148,-0.1771,323.9688
15:09:39:268,-1.5467,3.0093,9.6314,55.0188,0.0525,-0.1222,-0.0684,323.9688
15:09:39:286,-1.4486,3.1172,10.1581,54.9556,0.0556,-0.0867,0.0495,324.1875
15:09:39:307,-1.2688,3.4211,10.2491,55.0963,0.0092,0.0812,0.1704,324.1875
15:09:39:327,-1.2281,3.7038,10.558,55.1503,-0.1649,0.2077,0.2431,325.9062
15:09:39:346,-1.4892,3.7158,11.4987,55.3035,-0.3683,0.1686,0.2419,326.0938
15:09:39:369,-3.3135,3.3206,12.277,55.5181,-0.5064,0.2169,0.1417,327.7969
15:09:39:388,-3.1484,2.15,11.8675,55.645,-0.5027,0.2242,0.1545,327.9688
15:09:39:407,-2.7365,0.7684,12.0374,55.8734,-0.5327,0.058,0.1576,328.8281
15:09:39:427,-3.122,0.0885,12.7917,56.1025,-0.4997,-0.1155,0.1936,328.8281
15:09:39:447,-4.1177,0.3616,12.696,56.3626,-0.2584,-0.0428,0.3714,329.3906
15:09:39:468,-4.1608,1.0175,10.7518,56.8918,0.1399,0.2364,0.6878,329.4375
15:09:39:487,-3.3733,1.4844,8.4177,57.1923,0.3977,0.3995,0.9212,330.3438
15:09:39:506,-2.3916,1.8553,7.4982,57.6502,0.3189,0.3115,0.9816,330.4375
15:09:39:527,-1.6472,1.8793,7.721,58.1616,0.0031,0.2052,0.9315,330.9844
15:09:39:545,-1.5826,1.5873,8.3076,58.7366,-0.2871,0.16,0.8149,331.1094
15:09:39:568,-1.8147,1.1922,8.6689,59.4337,-0.3732,0.1723,0.7367,331.1094
15:09:39:588,-1.6854,1.0917,8.5493,59.8545,-0.3518,0.2792,0.8094,330.5938
15:09:39:606,-1.209,1.3573,8.286,60.2907,-0.2737,0.3525,0.9126,330.5938
15:09:39:626,-0.9888,1.7812,8.3626,60.7474,-0.1411,0.2749,0.8949,330
15:09:39:646,-0.8596,2.1882,8.5636,61.2544,-0.022,0.1753,0.802,330
15:09:39:668,-0.8907,2.2648,8.3315,61.582,0.088,0.1619,0.6866,329.5
15:09:39:688,-1.0439,2.3055,7.9843,62.0047,0.204,0.1509,0.5785,329.5
15:09:39:706,-1.1444,2.624,7.7809,62.0841,0.2639,0.1417,0.5296,329.5
15:09:39:726,-1.0558,3.0045,7.8359,62.2795,0.2358,0.1155,0.5027,329.0312
15:09:39:747,-0.8788,3.1436,8.5875,62.6138,0.0922,0.0525,0.4587,327.8281
15:09:39:770,-0.7014,3.2393,10.0146,62.808,-0.0165,-0.033,0.3946,327.8281
15:09:39:787,-0.7756,3.3517,10.6107,62.7951,0.0128,0.0336,0.3097,325.6875
15:09:39:807,-0.8163,3.1077,10.637,63.2519,0.0654,0.1411,0.2132,325.6875
15:09:39:828,-0.8979,2.8705,10.7016,63.9012,0.0715,0.1833,0.1564,323.8438
15:09:39:846,-0.9386,2.9853,11.056,64.2449,0.0544,0.1362,0.1607,323.6719
15:09:39:868,-0.7684,3.1364,11.4437,64.9252,0.0672,0.0428,0.1924,321.9844
15:09:39:888,-0.6296,3.3805,11.6402,65.4462,0.1148,-0.0507,0.1961,321.8125
15:09:39:909,1.0726,2.5427,10.7638,66.058,0.1295,-0.0165,0.0525,319.875
15:09:39:929,0.9697,1.6615,10.8212,66.8303,0.0208,-0.0073,-0.1582,319.6875
15:09:39:953,0.2225,1.0654,10.9914,67.7536,-0.0886,0.0122,-0.2963,318.1406
15:09:40:032,-0.3712,1.1037,10.8356,68.2496,-0.1051,0.0367,-0.2511,317.9844
15:09:40:032,-0.067,1.2736,10.1868,68.6695,-0.0348,0.0073,-0.1081,316.8594
15:09:40:034,0.3305,1.6376,9.4161,69.0031,0.0489,-0.0593,-0.0269,316.75
15:09:40:035,0.4908,2.1308,8.3172,69.1425,0.08,-0.0495,-0.0293,315.7812
15:09:40:047,0.6344,2.1332,7.381,69.1188,-0.0214,-0.0043,-0.11,314.9844
15:09:40:068,0.3209,1.7477,7.7234,69.0468,-0.2743,-0.033,-0.2639,314.9844
15:09:40:088,-0.4071,1.7046,9.1573,68.7516,-0.5021,-0.0819,-0.3683,314.4531
15:09:40:106,-0.8306,1.8218,9.9212,68.6317,-0.471,0.0171,-0.3415,314.4531
15:09:40:128,-0.7899,2.0279,9.44,68.3327,-0.1942,0.1747,-0.2621,314.0312
15:09:40:145,-0.6727,2.3725,8.5469,67.6989,0.11,0.2395,-0.2193,314.0312
15:09:40:171,-0.498,2.5905,7.9819,67.6067,0.2584,0.2242,-0.2217,313.7031
15:09:40:188,-0.2752,2.4682,7.9603,67.2335,0.2523,0.1735,-0.2547,313.6719
15:09:40:209,-0.3114,2.1667,8.2813,67.185,0.193,0.1515,-0.2914,313.6719
15:09:40:227,-0.3162,2.2624,8.5373,67.1162,0.1851,0.1765,-0.2431,313.8125
15:09:40:252,-0.1986,2.7413,8.4296,67.289,0.215,0.212,-0.1515,314.375
15:09:40:270,0.0933,3.0909,8.4368,67.3283,0.2309,0.1704,-0.1161,314.375
15:09:40:287,0.1699,3.1531,8.9946,67.4086,0.2315,0.0336,-0.1692,314.5469
15:09:40:306,-0.2273,3.2297,9.7008,67.5409,0.2462,-0.0867,-0.2474,314.5469
15:09:40:326,-0.8429,3.402,10.1916,67.463,0.2504,-0.1124,-0.2877,314.6875
15:09:40:405,-1.2377,3.3374,10.7925,67.687,0.2046,-0.1112,-0.2963,314.7031
15:09:40:406,-1.5084,3.256,11.4724,67.7904,0.1753,-0.1148,-0.273,315.2969
15:09:40:406,-1.5634,3.3613,11.482,67.7593,0.2254,-0.0702,-0.1991,315.3594
15:09:40:407,-1.4103,3.2847,11.0154,67.6864,0.2669,-0.0159,-0.1393,315.875
15:09:40:428,-1.896,3.5336,10.6777,67.2258,0.1845,0.033,-0.1497,315.9219
15:09:40:446,-2.7293,3.0595,10.6872,66.9656,-0.2321,0.0721,-0.2199,316.3281
15:09:40:468,-2.3462,1.9681,11.4221,67.1898,-0.3201,-0.0843,-0.2627,316.375
15:09:40:488,-2.5331,1.0965,12.1765,67.1302,-0.204,-0.1912,-0.2926,316.9062
15:09:40:506,-3.5192,1.1946,11.3599,66.9492,0.1106,-0.025,-0.1637,316.9688
15:09:40:526,-3.4355,1.8314,9.0329,66.7647,0.4423,0.2046,0.1594,317.3438
15:09:40:545,-2.5259,2.2026,7.4336,66.8828,0.5327,0.1778,0.3769,317.6719
15:09:40:570,-1.6974,2.394,7.1728,67.0242,0.3439,0.0483,0.3726,317.6719
15:09:40:587,-1.3382,2.4802,7.3187,67.2805,-0.0024,0.0562,0.2657,318.3906
15:09:40:606,-1.4414,2.1691,7.934,67.5433,-0.3555,0.1069,0.1423,318.3906
15:09:40:627,-1.628,1.7596,8.7266,67.3651,-0.5302,0.1228,0.0739,319.1094
15:09:40:646,-1.8601,1.6615,8.8032,67.3693,-0.452,0.1527,0.102,319.1094
15:09:40:667,-1.7333,1.9295,8.0632,67.6785,-0.2315,0.1802,0.204,319.1094
15:09:40:687,-1.3478,2.2481,7.314,67.9615,-0.055,0.1625,0.3018,319.5469
15:09:40:706,-0.8453,2.6025,7.0866,68.0484,-0.0244,0.1002,0.3409,319.5625
15:09:40:726,-0.8477,2.9231,7.7091,68.0441,-0.1118,0.0024,0.2859,319.9062
15:09:40:746,-1.2616,2.9447,8.5612,68.406,-0.1833,-0.0324,0.1955,320.3906
15:09:40:770,-1.4677,2.7867,8.7721,68.6357,-0.1423,0.0202,0.1716,320.3906
15:09:40:788,-1.439,2.959,8.8415,68.962,-0.0507,0.0324,0.2095,320.9219
15:09:40:806,-1.0798,3.2345,8.9037,69.2348,0.0079,0.0177,0.2449,320.9219
15:09:40:827,-1.0726,3.4451,9.0832,69.3743,0.0073,-0.0195,0.201,320.375
15:09:40:846,-1.4198,3.4881,9.7271,69.3511,-0.0195,-0.1332,0.0965,320.375
15:09:40:871,-1.3621,3.2871,10.3905,69.3984,-0.0177,-0.2364,0.0195,319.75
15:09:40:887,-1.1276,2.9183,10.7351,69.5589,-0.0226,-0.2737,-0.0348,319.6875
15:09:40:906,-0.8282,2.5738,11.1111,69.4053,-0.0788,-0.3158,-0.0837,319.3438
15:09:40:928,-0.9434,2.4395,12.5928,69.394,-0.1637,-0.4001,-0.1307,319.2969
15:09:40:947,-0.5148,2.5379,13.2897,69.2732,-0.2291,-0.5143,-0.1552,318.8594
15:09:41:016,0.3425,2.1093,13.5601,69.0448,-0.2474,-0.5876,-0.1338,318.8125
15:09:41:017,1.1946,1.4773,13.0143,68.7125,-0.1191,-0.3714,-0.1423,318.125
15:09:41:017,1.7381,1.0319,12.2076,68.5165,0.0281,-0.1997,-0.1533,318.0469
15:09:41:027,1.6137,1.4533,11.3432,68.1265,0.2077,-0.0525,-0.1075,317.5312
15:09:41:046,1.5921,2.2576,9.8997,67.7653,0.3854,0.1405,0.0269,317.0781
15:09:41:070,2.1906,2.8681,8.3004,67.4814,0.4795,0.2614,0.1155,317.0781
15:09:41:087,2.983,3.213,6.9954,67.3204,0.4404,0.2052,0.0348,316.5781
15:09:41:106,3.5575,3.1507,6.1481,67.103,0.2749,0.0324,-0.2431,316.5781
15:09:41:128,3.4331,2.4108,6.1576,66.665,-0.0312,-0.1662,-0.6848,316.5469
15:09:41:146,2.3174,1.573,7.1225,66.5168,-0.4282,-0.2938,-1.0946,316.4688
15:09:41:170,0.7277,1.3525,8.6378,66.1427,-0.7342,-0.3427,-1.2571,316.4688
15:09:41:189,-0.431,1.5299,9.3634,65.8054,-0.7489,-0.2217,-1.1435,316.7031
15:09:41:209,-0.632,2.0279,9.0449,65.282,-0.4618,-0.0684,-0.8894,316.7031
15:09:41:227,-0.1819,2.6432,8.3626,64.8464,-0.0635,-0.0269,-0.7055,317.1406
15:09:41:246,0.0957,3.1005,7.8096,64.1364,0.2016,-0.0874,-0.6915,317.5781
15:09:41:270,0.3664,3.1412,8.0536,63.7056,0.2303,-0.1869,-0.7764,317.5781
15:09:41:288,0.2393,2.6599,8.4655,63.4337,0.099,-0.1942,-0.9071,318
15:09:41:307,-0.553,2.3031,9.4519,62.8855,-0.0745,-0.2437,-1.0134,318
15:09:41:329,-1.3645,2.1906,10.989,62.4773,-0.1319,-0.3702,-1.0018,318.125
15:09:41:346,-1.841,2.2409,11.7359,61.9562,0.011,-0.3073,-0.857,318.125
15:09:41:367,-2.0518,2.2863,11.482,61.5194,0.2333,-0.1118,-0.6579,317.9688
15:09:41:387,-2.4227,2.6049,10.9747,61.3589,0.3372,0.066,-0.4557,317.9531
15:09:41:408,-2.5618,2.9495,11.1063,60.8969,0.2999,0.0959,-0.2285,318.9219
15:09:41:430,-1.8793,3.3685,11.2092,60.3961,0.2816,0.146,0.1716,319.0156
15:09:41:449,-1.5921,3.6437,11.0034,60.0881,0.2712,0.1735,0.2449,321.375
15:09:41:471,-1.4629,3.4618,10.905,59.7514,0.2248,0.1686,0.2217,321.6094
15:09:41:488,-2.2672,3.2177,11.1039,59.5677,0.1399,0.1472,0.1387,323.5938
15:09:41:506,-3.1914,2.7748,11.3695,59.6699,0.0605,0.1643,0.1124,323.7812
15:09:41:528,-3.5958,2.2026,11.336,59.5568,0.0886,0.1576,0.2046,325.2188
15:09:41:546,-3.5025,1.7979,11.1972,59.2529,0.2663,0.0183,0.358,327.1406
15:09:41:570,-3.4666,1.963,10.5915,59.4614,0.5241,-0.1026,0.496,327.1406
15:09:41:589,-3.2967,2.4658,9.2845,59.4207,0.6872,-0.0715,0.6011,327.3125
15:09:41:607,-2.7078,2.5065,8.0058,59.5367,0.5968,0.0635,0.6457,329.3906
15:09:41:627,-2.3294,2.4084,7.3331,59.6047,0.2468,0.2321,0.6176,329.6094
15:09:41:646,-1.9992,2.2241,7.4647,59.4538,-0.1973,0.3738,0.5705,331.3594
15:09:41:672,-1.6137,1.6256,7.9077,59.4978,-0.5302,0.496,0.5113,331.3906
15:09:41:688,-1.4342,0.8453,8.0489,59.8654,-0.6157,0.565,0.4697,332.1719
15:09:41:706,-1.209,0.2465,7.5775,60.3561,-0.4618,0.5357,0.5229,332.1719
15:09:41:726,-0.8572,0.3784,7.2326,60.4866,-0.2254,0.3842,0.6628,332.0156
15:09:41:745,-0.7014,1.2879,7.4169,60.8645,-0.0428,0.2114,0.824,331.5
15:09:41:773,-0.5889,2.1787,7.2111,61.4133,0.0654,0.2156,0.948,331.5
15:09:41:787,-0.7564,2.9303,6.7274,61.7761,0.0678,0.3054,0.9853,331.1875
15:09:41:807,-0.9888,3.7134,6.7657,62.5143,-0.0629,0.2963,0.9603,331.1875
15:09:41:829,-0.9027,4.3717,7.5676,62.7874,-0.2883,0.1686,0.8863,330.5938
15:09:41:846,-0.1005,4.2039,9.2701,63.0949,-0.4765,-0.0232,0.7208,330.5938
15:09:41:871,0.2465,3.5527,10.6801,63.269,-0.4722,-0.1051,0.471,329.5469
15:09:41:888,-0.376,3.1986,11.3097,63.7232,-0.3134,-0.0947,0.2443,329.5469
15:09:41:907,-1.1611,3.0858,11.1422,64.0147,-0.1179,-0.066,0.1674,328.2969
15:09:41:928,-1.1587,3.0667,10.7327,63.9172,0.033,-0.0935,0.2401,328.1875
15:09:41:945,-0.699,3.3087,10.2347,64.3555,0.0641,-0.1264,0.3421,326.8594
15:09:42:017,0.486,3.7014,10.6753,64.5246,-0.2834,-0.2126,0.3433,326.7344
15:09:42:018,1.2712,3.2393,11.6354,64.9638,-0.4923,-0.3073,0.215,325.4375
15:09:42:018,1.7644,1.8697,12.7702,64.9362,-0.6047,-0.4197,-0.0195,325.3125
15:09:42:027,1.5658,0.5698,14.0342,65.0758,-0.5571,-0.5528,-0.2621,323.6875
15:09:42:047,0.7684,-0.0311,14.4197,64.9439,-0.3237,-0.4807,-0.339,323.5156
15:09:42:071,0.3185,0.2393,13.206,64.6298,0.0202,-0.1942,-0.1826,321.5156
15:09:42:090,0.5698,1.2233,11.6354,64.7524,0.3384,-0.0104,0.0568,321.3125
15:09:42:107,1.051,2.2624,9.871,64.4039,0.5229,0.1429,0.1796,319.3281
15:09:42:127,1.4366,2.9686,7.9101,63.8514,0.5406,0.3549,0.1643,319.1406
15:09:42:145,1.8314,2.9351,5.6477,63.1054,0.372,0.5809,0.0171,317.7344
15:09:42:167,1.7477,2.2744,4.319,63.0165,-0.0031,0.5644,-0.2779,317.7188
15:09:42:187,0.5483,1.5012,5.2669,62.8074,-0.4978,0.2162,-0.6322,317.2656
15:09:42:209,-0.6894,1.252,7.4743,62.6199,-0.7941,-0.1839,-0.7801,317.25
15:09:42:226,-0.7828,1.0822,9.1525,62.6428,-0.6487,-0.2932,-0.6933,316.6719
15:09:42:247,-0.376,1.0965,9.0999,62.4729,-0.171,-0.102,-0.5638,315.9062
15:09:42:273,-0.6846,1.5443,8.0704,62.2346,0.2859,0.0483,-0.5241,315.9062
15:09:42:288,-1.0295,1.9104,8.0154,62.175,0.4844,-0.0855,-0.5241,315.7031
15:09:42:306,-0.8306,1.8912,8.688,62.4591,0.4899,-0.2052,-0.5003,315.7031
15:09:42:329,-1.1372,2.0973,8.7362,62.1691,0.408,-0.0367,-0.4587,316.4688
15:09:42:347,-1.6807,2.6456,8.4081,62.1216,0.2523,0.2254,-0.3592,316.4688
15:09:42:372,-1.8099,3.146,8.9659,62.1003,0.0367,0.292,-0.2162,316.6719
15:09:42:387,-1.9032,3.3446,10.3328,62.0725,-0.1509,0.2278,-0.1045,316.6719
15:09:42:406,-2.394,3.323,11.4485,61.9906,-0.2052,0.2431,-0.0269,316.3281
15:09:42:474,-3.0957,3.1795,11.8579,62.3288,-0.1668,0.4044,0.0788,316.2969
15:09:42:474,-3.5192,2.9758,11.6545,62.6417,-0.2071,0.6298,0.2651,316.3906
15:09:42:475,-3.05,2.3366,11.6474,62.8329,-0.3445,0.6597,0.4862,316.3906
15:09:42:488,-2.6097,1.6232,13.0884,63.2342,-0.4416,0.3775,0.5827,317.6875
15:09:42:507,-4.0651,1.5658,15.0781,63.1901,-0.0599,0.2743,0.6426,317.8125
15:09:42:529,-3.8234,1.6496,13.4405,63.6008,0.4062,0.474,0.8234,319.0625
15:09:42:547,-3.0523,1.5993,10.7734,64.1189,0.8216,0.5699,0.9425,319.1875
15:09:42:566,-3.1196,2.1954,8.9539,64.7,0.9425,0.5015,0.9212,320.3125
15:09:42:586,-2.8178,2.9255,7.8072,64.9548,0.7849,0.4258,0.8937,320.4219
15:09:42:607,-2.016,3.1555,7.2015,65.5198,0.4948,0.3512,0.8075,321.5156
15:09:42:627,-1.4868,3.1053,6.9715,66.1841,0.2101,0.2779,0.6047,321.625
15:09:42:645,-1.1468,2.6767,6.5145,66.7302,-0.0269,0.2498,0.3824,322.1562
15:09:42:667,-0.941,2.0447,6.3658,67.3195,-0.2559,0.1716,0.1912,322.2031
15:09:42:687,-1.0582,1.6974,6.7585,67.6997,-0.4759,0.014,0.0538,322.2344
15:09:42:706,-1.1898,1.3095,7.5676,67.9276,-0.6011,-0.1881,0.0073,322.2344
15:09:42:727,-0.9984,1.2329,8.7171,67.8629,-0.5388,-0.3977,0.0617,321.6406
15:09:42:746,-0.8668,1.7237,9.1023,67.989,-0.292,-0.449,0.1613,320.2188
15:09:42:767,-0.6799,2.5355,8.4727,68.1687,0.0501,-0.3549,0.2559,320.2188
15:09:42:786,-0.4645,3.2584,7.5293,67.9877,0.3506,-0.3354,0.2908,318.75
15:09:42:806,-0.1819,3.7971,7.1943,68.0138,0.5327,-0.5064,0.226,318.75
15:09:42:827,-0.1627,4.2281,7.5078,68.0889,0.5913,-0.6774,0.0507,316.7969
15:09:42:846,-0.6057,4.5846,8.1206,67.8998,0.5559,-0.6744,-0.179,316.7969
15:09:42:868,-1.0917,4.4219,8.3291,67.7801,0.4691,-0.5382,-0.3806,314.8594
15:09:42:890,-1.5634,3.8737,8.6258,67.4567,0.3653,-0.4777,-0.4801,314.8594
15:09:42:906,-1.8314,3.5599,9.5309,67.069,0.2517,-0.5143,-0.4355,313.4062
15:09:42:927,-1.4246,3.4355,10.2658,66.4659,0.1564,-0.4807,-0.2737,313.2656
15:09:42:946,-0.5698,3.3015,11.1159,66.1674,0.0483,-0.3873,-0.1313,312.5625
15:09:43:015,0.3544,3.323,12.2291,65.7168,-0.0501,-0.3335,-0.0635,312.5
15:09:43:016,0.3975,3.2895,12.1645,65.3208,-0.1668,0.0257,-0.1423,312.3281
15:09:43:016,1.0056,2.5499,11.6545,65.0407,-0.2651,0.0916,-0.1429,312.2969
15:09:43:028,1.7477,1.561,12.1502,64.5182,-0.3439,-0.0727,-0.1588,312.125
15:09:43:047,1.5658,1.3525,12.696,64.5189,-0.2938,-0.16,-0.1912,312.1094
15:09:43:066,0.7469,2.0734,11.8579,64.4758,-0.0831,0.014,-0.1228,311.7344
15:09:43:086,0.6416,2.6408,9.9978,64.3906,0.1619,0.1735,-0.0006,311.6875
15:09:43:105,1.628,2.6982,8.4416,64.2013,0.2847,0.0544,0.0232,311.7344
15:09:43:126,2.406,2.2983,7.9555,64.1299,0.1912,-0.1729,-0.1368,311.75
15:09:43:145,1.9872,1.695,7.9651,64.1092,-0.1106,-0.2309,-0.3885,312.625
15:09:43:167,0.5626,1.2042,8.0847,64.1666,-0.4453,-0.1484,-0.5498,312.7188
15:09:43:187,-1.0487,1.1635,8.6545,64.3406,-0.6005,-0.1106,-0.5571,314
15:09:43:208,-1.9606,1.6759,9.131,64.5406,-0.4783,-0.0513,-0.4478,314
15:09:43:225,-2.1643,2.1547,8.5373,64.6522,-0.1894,0.1753,-0.3311,314.6562
15:09:43:246,-1.5323,2.3988,7.7186,64.8214,0.0562,0.3537,-0.2596,314.9219
15:09:43:267,-0.5052,2.6791,7.5604,65.0259,0.1527,0.4343,-0.201,314.9219
15:09:43:289,0.1196,3.1819,7.5748,65.0116,0.1374,0.5369,-0.1558,315.1719
15:09:43:307,0.2656,3.4881,7.8598,65.1009,0.0971,0.5711,-0.1759,315.1719
15:09:43:327,-0.0407,3.548,7.9651,65.0401,0.1216,0.565,-0.248,315.5625
15:09:43:346,-0.5387,3.7086,7.7306,65.1658,0.2156,0.5424,-0.2834,315.5625
15:09:43:367,-0.833,3.8163,7.5966,65.1803,0.2804,0.4251,-0.2572,315.6719
15:09:43:391,-0.9912,3.7971,7.7976,65.3347,0.2346,0.2645,-0.2016,315.6719
15:09:43:407,-1.4246,3.9718,9.0233,65.3411,0.0953,0.058,-0.1155,315.8594
15:09:43:428,-2.059,4.3286,10.6035,65.4524,-0.0159,-0.0855,0.0428,315.8594
15:09:43:446,-2.4586,4.5511,11.8292,65.41,-0.0373,-0.0269,0.2553,316.8125
15:09:43:466,-2.6025,4.654,12.5904,65.7698,-0.0593,0.2327,0.4392,316.9062
15:09:43:489,-2.2289,4.5248,12.6048,66.2552,-0.1448,0.6078,0.584,317.875
15:09:43:508,-3.2082,3.5743,12.7199,66.6754,-0.2932,0.6603,0.4649,317.9688
15:09:43:529,-3.979,2.8848,13.0214,67.3715,-0.2175,0.474,0.3372,318.4531
15:09:43:547,-3.4068,1.9271,12.4038,67.8935,-0.0055,0.3225,0.3518,318.5156
15:09:43:565,-2.3653,0.9099,11.7598,68.6505,0.2431,0.1179,0.3934,318.7344
15:09:43:586,-2.3486,0.8402,10.783,69.2719,0.4661,0.0684,0.4099,318.75
15:09:43:608,-2.8466,1.4964,8.8199,69.9121,0.6298,0.2248,0.493,319
15:09:43:627,-2.8609,2.0136,6.7418,70.2374,0.6903,0.3207,0.6163,319.0312
15:09:43:646,-2.6121,2.5546,5.1114,70.5598,0.5644,0.3079,0.6848,319.4531
15:09:43:666,-1.9223,2.9231,4.4339,70.9749,0.204,0.1875,0.6787,319.4844
15:09:43:689,-0.8234,2.8035,5.1257,70.966,-0.3329,0.0061,0.5968,319.7969
15:09:43:707,-0.1579,2.2696,6.6604,71.2011,-0.8338,-0.1533,0.4551,319.8125
15:09:43:727,-0.2106,1.7213,7.9938,71.1792,-1.0769,-0.2401,0.3292,319.5156
15:09:43:745,-0.5865,1.5921,9.1119,71.4082,-1.0103,-0.325,0.2847,318.2031
15:09:43:766,-0.9099,1.7309,9.3419,71.7412,-0.6872,-0.2975,0.3445,318.2031
15:09:43:788,-0.9529,2.2002,8.4248,72.0014,-0.2718,-0.1497,0.46,316.6562
15:09:43:807,-0.7397,2.9183,7.7641,72.3791,-0.0147,-0.0764,0.5253,316.6562
15:09:43:828,-0.6416,3.5719,7.654,72.6999,0.0305,-0.0611,0.5247,315.6875
15:09:43:846,-0.7708,4.0723,8.0297,73.096,-0.0226,-0.0373,0.4545,315.6875
15:09:43:867,-1.2353,4.3286,8.3291,73.3595,-0.0678,0.0458,0.336,314.875
15:09:43:889,-1.4964,4.252,8.5923,73.5005,-0.1075,0.1362,0.2309,314.875
15:09:43:909,-1.5227,4.2185,9.2629,73.4382,-0.1643,0.1069,0.1735,313.7344
15:09:43:928,-1.1539,4.0962,10.3711,73.7177,-0.2028,-0.0073,0.1301,313.7344
15:09:43:946,-0.5841,3.4666,11.3432,73.8703,-0.1704,-0.0702,0.0464,312.375
15:09:44:016,-0.4669,2.9303,11.6952,74.1262,-0.088,-0.0568,-0.0507,312.2344
15:09:44:017,-0.1364,2.758,11.7718,74.182,-0.0507,-0.011,-0.0757,311.0469
15:09:44:017,0.1675,2.7915,12.6,74.0194,-0.1955,-0.2107,-0.0336,310.9219
15:09:44:028,0.7732,2.4299,12.775,74.0298,-0.2175,-0.2217,-0.0232,310.1562
15:09:44:047,1.5108,1.8123,12.3847,74.2664,-0.1668,-0.1906,-0.0342,310.0781
15:09:44:067,2.1691,1.0367,12.2818,74.6433,-0.0922,-0.2608,-0.102,309.2344
15:09:44:091,2.1811,0.5554,12.4517,74.6926,-0.0061,-0.3109,-0.1851,309.1562
15:09:44:106,1.7548,0.9625,12.0015,74.572,0.1167,-0.1655,-0.1704,308.125
15:09:44:127,1.8386,1.5634,10.7973,74.1949,0.2248,0.077,-0.0757,308.0312
15:09:44:145,2.0542,2.0495,9.2195,74.1349,0.2456,0.295,-0.0819,307.2188
15:09:44:166,1.7644,2.0734,7.1465,74.0986,0.1771,0.4716,-0.2987,307.1406
15:09:44:190,1.3143,1.5586,5.2454,74.0612,0.0415,0.4624,-0.6072,306.6562
15:09:44:208,0.9123,0.9147,4.4913,73.9238,-0.1478,0.1765,-0.8723,306.6094
15:09:44:226,0.3425,0.6727,5.1281,73.7911,-0.4001,-0.1631,-0.9969,306.375
15:09:44:246,-0.0072,1.2784,6.4161,73.4749,-0.6707,-0.3005,-0.9254,306.5156
15:09:44:267,0.189,2.0662,6.883,73.3521,-0.8472,-0.1234,-0.7953,306.5156
15:09:44:291,0.2369,2.2122,6.6269,73.4229,-0.9071,0.0605,-0.8069,306.625
15:09:44:306,-0.0431,1.9247,7.5942,73.054,-0.8827,-0.1796,-0.9786,306.625
15:09:44:327,-0.6272,1.7979,9.3754,72.8034,-0.7422,-0.5088,-1.1502,306.7188
15:09:44:345,-0.9769,1.6615,10.6107,72.655,-0.4587,-0.4526,-1.1728,306.7188
15:09:44:366,-1.3143,1.5275,9.9117,72.3362,-0.1228,0.0031,-1.047,307.125
15:09:44:389,-1.5969,1.9056,8.8056,71.9853,0.0745,0.3115,-0.8564,307.125
15:09:44:407,-1.7788,2.5738,8.7793,71.892,0.0696,0.2743,-0.678,307.4531
15:09:44:428,-1.8458,2.983,8.9707,71.4845,-0.0623,0.1209,-0.5571,307.4531
15:09:44:447,-1.6519,2.9542,10.6179,70.9137,-0.2877,-0.1955,-0.5382,307.75
15:09:44:467,-1.5562,2.5499,12.976,70.5778,-0.5137,-0.4416,-0.5773,307.7812
15:09:44:490,-1.5443,2.1141,15.2839,70.2165,-0.5895,-0.5229,-0.5534,309.125
15:09:44:557,-1.3956,1.7429,16.7372,69.2708,-0.408,-0.4093,-0.4251,309.2656
15:09:44:558,-2.205,1.4964,14.2663,68.6742,0.4624,0.0678,-0.1747,311.1406
15:09:44:558,-3.0811,1.5826,12.3894,68.0792,0.7122,0.11,-0.1338,311.3281
15:09:44:570,-3.0957,1.319,10.8643,67.365,0.8136,0.025,-0.0202,312.7344
15:09:44:591,-2.581,1.0487,10.139,66.9051,0.8503,-0.2016,0.0825,312.875
15:09:44:606,-2.7796,1.2377,9.7774,66.2912,0.824,-0.3977,0.0904,314.9062
15:09:44:626,-3.189,1.4079,9.5668,65.3365,0.7031,-0.4484,0.0647,315.0938
15:09:44:646,-3.0428,1.1348,9.0999,64.6536,0.5394,-0.3207,0.0874,317.2969
15:09:44:665,-2.5618,0.8716,8.3148,64.1641,0.3525,-0.1106,0.1191,317.5156
15:09:44:691,-2.2552,0.7875,7.7426,63.7099,0.0794,0.0696,0.1093,319.0312
15:09:44:705,-2.1882,0.711,7.812,63.0415,-0.2712,0.1888,0.1093,319.1719
15:09:44:726,-1.8458,0.7756,8.4248,62.5471,-0.5009,0.2401,0.1936,320.3438
15:09:44:746,-1.1994,0.8043,8.432,62.123,-0.4349,0.3262,0.3158,321.5312
15:09:44:766,-0.7875,0.699,7.5006,61.9143,-0.1753,0.4166,0.3604,321.5312
15:09:44:789,-0.9625,0.7804,6.5073,61.9469,0.0116,0.3726,0.3103,322.2812
15:09:44:806,-1.3286,1.2185,6.7442,61.8671,-0.0086,0.149,0.2822,322.2812
15:09:44:827,-1.0295,1.4127,7.8239,62.0404,-0.1136,0.0037,0.3341,322.7656
15:09:44:846,-0.6511,1.4605,8.1616,62.0515,-0.1252,0.102,0.3836,322.7656
15:09:44:866,-1.0534,1.6998,8.152,62.1893,-0.0666,0.2022,0.3482,322.9375
15:09:44:890,-1.2712,1.8242,8.2286,62.2403,0.0092,0.1417,0.3305,322.9375
15:09:44:907,-0.8644,1.7764,9.2507,62.2021,0.1002,-0.1484,0.3384,323.0625
15:09:44:928,-0.5459,1.8649,10.3663,62.0502,0.1918,-0.4019,0.2798,323.0625
15:09:44:947,-0.7397,2.1069,10.8356,61.999,0.1973,-0.4563,0.1759,323
15:09:45:014,-0.644,1.9582,11.0225,61.9041,0.0702,-0.4985,0.0916,323
15:09:45:014,0.0311,1.5706,12.2267,61.5191,-0.146,-0.7403,0.0061,322.7344
15:09:45:014,0.5746,1.398,14.5346,61.2048,-0.3146,-0.9786,-0.1222,322.7031
15:09:45:028,0.3425,1.1539,15.3939,60.844,-0.2553,-0.788,-0.2052,322.0312
15:09:45:047,-0.1484,1.1061,13.8523,60.3231,-0.0092,-0.3237,-0.113,321.9531
15:09:45:068,0.8354,1.1755,11.6665,59.8795,0.1662,-0.1069,0.0678,321.1719
15:09:45:089,2.7772,-0.0239,12.3703,59.2542,0.0696,-0.2792,0.0409,321.0938
15:09:45:108,2.2624,-0.62,12.5713,58.3221,-0.2071,-0.2877,-0.2578,320.4375
15:09:45:126,2.394,-0.4047,11.4772,57.5555,-0.0605,-0.0049,-0.0421,320.375
15:09:45:145,3.3924,0.3281,9.5644,57.0231,0.1576,0.2511,0.2688,319.5938
15:09:45:166,3.9239,1.3454,7.9268,56.5026,0.2474,0.2779,0.3274,319.5156
15:09:45:191,3.5815,2.1404,7.3164,56.0532,0.1374,0.022,0.0672,318.8438
15:09:45:208,2.6121,2.0327,7.6612,55.6175,-0.0947,-0.2596,-0.358,318.7812
15:09:45:227,1.4462,1.4294,7.8622,54.9385,-0.2785,-0.2785,-0.7,318.4688
15:09:45:246,0.4095,1.0845,7.4719,54.5902,-0.3018,-0.0861,-0.8106,318.4844
15:09:45:266,-0.1986,1.1157,6.5982,54.1767,-0.1869,0.1545,-0.7373,318.4844
15:09:45:289,-0.4836,1.4725,5.8944,53.6108,-0.0458,0.3134,-0.5913,319.0312
15:09:45:309,-0.6727,1.817,5.5256,53.1274,0.0122,0.427,-0.4502,319.0312
15:09:45:328,-0.699,2.1236,5.662,52.3284,-0.0666,0.5107,-0.3286,319.1562
15:09:45:346,-0.2922,2.4132,6.4953,51.6021,-0.2388,0.4813,-0.2266,319.1562
15:09:45:367,0.1077,2.6025,7.2805,51.3434,-0.3751,0.4129,-0.1857,319.375
15:09:45:393,-0.3951,2.6958,7.5341,50.8736,-0.3873,0.2798,-0.2523,319.375
15:09:45:407,-1.1252,2.624,8.8822,50.4048,-0.2303,-0.2957,-0.3806,319.7188
15:09:45:428,-1.1731,2.2887,10.8452,49.956,0.1643,-0.9682,-0.4575,319.7188
15:09:45:447,-1.4773,2.1787,11.1661,49.5537,0.6548,-1.1276,-0.4245,319.0469
15:09:45:467,-1.9848,2.8322,10.9193,49.1565,0.887,-1.0513,-0.2743,319.0469
15:09:45:489,-1.6089,3.2871,11.7287,48.9024,0.6878,-0.9682,-0.0342,319.3594
15:09:45:510,-0.3592,3.1771,13.0286,48.59,0.2352,-0.6579,0.2285,319.3906
15:09:45:528,0.5746,3.026,14.0438,47.8697,-0.193,-0.1808,0.4258,320.8906
15:09:45:546,0.5219,3.2871,14.6303,47.6058,-0.4013,0.2132,0.5437,321.0469
15:09:45:568,0.1125,3.5264,14.6303,47.3637,-0.0403,0.5278,0.5504,322.3125
15:09:45:591,0.0144,3.4044,13.85,47.2789,0.2669,0.5437,0.4496,322.4375
15:09:45:609,0.1938,1.8194,11.7096,47.2315,0.4532,0.3592,0.3262,323.1094
15:09:45:626,-0.285,1.3956,11.6258,47.0005,0.5589,0.0861,0.2969,323.1875
15:09:45:645,-0.8692,1.4677,11.3264,47.0073,0.6964,0.0031,0.3885,323.4531
15:09:45:666,-1.0534,1.9753,10.0576,46.7398,0.8631,0.1723,0.5418,323.4844
15:09:45:686,-0.62,2.3773,8.5564,46.7182,0.9199,0.3586,0.6377,324.0625
15:09:45:708,0.2632,2.5017,7.3786,46.767,0.7452,0.4111,0.595,324.1094
15:09:45:726,0.5937,2.3581,6.9739,46.8052,0.3494,0.3592,0.3787,325.2656
15:09:45:747,0.0909,1.9729,7.3379,46.75,-0.0922,0.3024,0.0788,326.0938
15:09:45:766,-0.4765,1.1874,7.2302,46.7568,-0.347,0.3732,-0.1362,326.0938
15:09:45:791,-1.1444,0.3353,6.5982,47.0104,-0.3763,0.3708,-0.2169,325.4844
15:09:45:807,-1.896,-0.1795,6.6556,47.0773,-0.2798,-0.0067,-0.1833,325.4844
15:09:45:827,-1.9439,-0.1244,8.3674,47.3109,-0.0647,-0.6597,-0.0092,324.125
15:09:45:846,-1.2401,0.2776,9.7104,47.2708,0.2969,-0.9083,0.2865,324.125
15:09:45:866,-0.6272,1.0247,9.064,47.4456,0.6518,-0.5088,0.5663,322.9062
15:09:45:893,-0.6727,1.829,7.5269,47.5592,0.7342,0.0672,0.7147,322.9062
15:09:45:909,-0.8477,2.4419,6.6939,47.9801,0.4759,0.4337,0.8106,322.2344
15:09:45:926,-0.6607,3.0404,7.0484,48.1994,0.0733,0.5889,0.9499,322.2344
15:09:45:946,0.0024,3.5647,7.855,48.5325,-0.2352,0.6725,1.0867,321.2969
15:09:46:008,0.5937,4.0723,8.863,49.4309,-0.3586,0.6799,1.1148,321.2969
15:09:46:009,0.6535,4.599,9.5979,50.1752,-0.3317,0.6182,0.9975,320.0625
15:09:46:009,0.7804,4.7883,10.0959,51.2105,-0.2144,0.4441,0.8057,319.9375
15:09:46:028,1.5132,4.5559,10.4575,51.6502,-0.0391,0.1197,0.5999,319.3906
15:09:46:046,2.2887,3.9598,11.1805,52.1623,0.1197,-0.3231,0.3494,319.3281
15:09:46:067,3.1268,2.9231,13.2036,52.5847,0.1784,-0.6432,0.0812,319.5
15:09:46:091,2.7628,2.6982,13.2538,52.9292,0.1368,-0.6841,-0.0996,319.5156
15:09:46:109,3.0547,2.3844,12.6191,53.0944,-0.0696,-0.3152,-0.0446,319.7812
15:09:46:128,3.9861,1.9463,12.4301,52.7299,-0.1442,-0.3732,0.0006,319.8125
15:09:46:145,4.3669,1.185,12.7774,52.7276,-0.171,-0.5229,-0.1509,319.25
15:09:46:165,3.6245,0.687,13.0789,52.2759,-0.1203,-0.5302,-0.3616,319.1875
15:09:46:186,2.5642,0.7971,12.3368,52.0108,0.0593,-0.2346,-0.4148,317.6719
15:09:46:208,2.1858,1.1922,10.5867,51.9408,0.3274,0.1851,-0.2914,317.5156
15:09:46:226,2.1619,1.6974,8.5923,51.7035,0.5522,0.4587,-0.182,315.25
15:09:46:246,2.4203,2.2337,6.6389,51.6929,0.6249,0.5999,-0.193,312.3906
15:09:46:267,2.4227,2.6623,5.0276,51.458,0.4783,0.6383,-0.3665,312.3906
15:09:46:292,1.7859,2.9518,4.5607,51.5118,0.1106,0.4875,-0.6774,310.7031
15:09:46:308,0.6799,3.0117,5.1018,51.3114,-0.3409,0.3305,-1.0012,310.7031
15:09:46:327,-0.4047,2.7485,5.9064,51.5438,-0.6805,0.3256,-1.2302,310.4219
15:09:46:345,-1.0439,2.3174,6.4618,51.9326,-0.7862,0.4025,-1.3323,310.4219
15:09:46:367,-1.3932,1.9295,6.6485,51.9674,-0.6768,0.4294,-1.3519,310.9062
15:09:46:393,-1.8769,1.7429,6.8303,52.1112,-0.471,0.3372,-1.3268,310.9062
15:09:46:410,-2.2122,1.774,7.5748,52.294,-0.2425,0.069,-1.2406,311.0625
15:09:46:428,-2.0183,1.7668,8.6282,52.6445,0.0067,-0.2566,-1.0989,311.0781
15:09:46:446,-1.6854,1.8003,9.5812,52.7884,0.2309,-0.4068,-0.9493,311.8281
15:09:46:468,-1.7668,2.1667,9.8279,53.1198,0.2981,-0.2401,-0.7807,311.8281
15:09:46:492,-1.8147,2.5208,9.8423,53.3327,0.1161,0.0312,-0.5479,312.6406
15:09:46:510,-1.6472,2.7724,10.9866,53.2295,-0.212,0.0837,-0.2657,312.6406
15:09:46:527,-1.3836,3.2584,12.3559,53.5379,-0.4673,0.1124,0.0336,312.875
15:09:46:547,-0.9769,3.8833,13.3328,53.5324,-0.5516,0.1973,0.2847,312.9062
15:09:46:623,-0.2273,4.2808,14.1706,53.5881,-0.4545,0.2346,0.4129,313.7656
15:09:46:624,-0.5865,3.833,13.6702,53.8848,0.1185,0.2614,0.168,313.8594
15:09:46:624,-2.0973,3.1675,12.2028,54.252,0.3543,0.2052,-0.069,315.8906
15:09:46:629,-3.3398,2.4108,10.9531,54.5461,0.4374,0.0538,-0.1839,316.0938
15:09:46:647,-3.603,1.4749,10.4791,54.7364,0.4209,-0.1723,-0.1338,318.5156
15:09:46:668,-2.9303,0.6392,10.8739,55.07,0.4074,-0.3806,0.0428,318.75
15:09:46:691,-2.6695,0.3401,10.7638,55.0956,0.4368,-0.3341,0.27,321.2031
15:09:46:708,-2.6288,0.419,10.5126,55.3394,0.441,-0.1454,0.4923,321.4375
15:09:46:726,-2.0638,0.6368,9.4137,55.3524,0.4197,0.1637,0.7202,323.625
15:09:46:745,-1.5012,1.0343,8.3028,55.5154,0.3201,0.4099,0.8698,325.2656
15:09:46:766,-0.929,1.5467,7.8072,55.3452,0.1118,0.5211,0.9187,325.2656
15:09:46:787,-0.2345,1.9463,7.7186,55.5813,-0.16,0.6078,0.9059,325.5469
15:09:46:809,0.3209,2.1547,7.6947,55.9256,-0.4319,0.752,0.81,325.5469
15:09:46:828,0.62,2.2074,7.5006,56.4357,-0.6359,0.8998,0.6542,324.6094
15:09:46:846,0.4478,2.1619,7.235,57.2256,-0.752,0.926,0.4697,324.6094
15:09:46:867,0.1914,1.8529,7.4767,57.8704,-0.7416,0.6958,0.2792,323.9219
15:09:46:886,0.0933,1.2281,7.9364,58.579,-0.5699,0.3787,0.1319,323.9219
15:09:46:911,-0.2874,0.8716,7.8168,59.1343,-0.3415,0.2223,0.0721,323.9219
15:09:46:928,-1.0678,1.1539,7.4839,60.0208,-0.2382,0.1906,0.1264,324.2656
15:09:46:946,-1.8769,1.7764,7.3666,60.6357,-0.3653,0.2633,0.2755,324.5469
15:09:46:999,-2.5184,2.6934,7.9866,61.3073,-0.6689,0.3842,0.4789,324.5469
15:09:47:000,-2.1787,3.5647,9.5118,61.8146,-0.8992,0.4209,0.7043,323.9062
15:09:47:007,-1.3262,3.9957,10.4815,62.4178,-0.8381,0.4752,0.8228,323.9062
15:09:47:026,-1.1683,4.2592,10.917,62.8933,-0.5785,0.4325,0.7159,322.3125
15:09:47:046,-1.2592,4.1871,11.4867,63.5825,-0.2847,0.1863,0.493,322.1562
15:09:47:068,-0.7086,3.6365,12.0015,64.0468,-0.0055,-0.1002,0.3317,320.125
15:09:47:087,0.0694,3.2728,12.32,64.345,0.223,-0.2712,0.226,319.9375
15:09:47:109,0.7205,3.2895,12.1549,64.7321,0.361,-0.2883,0.0098,318.0469
15:09:47:130,1.0008,3.0858,11.834,64.6946,0.2779,-0.358,-0.1155,317.875
15:09:47:147,1.9705,2.2098,11.822,64.8371,0.1393,-0.5565,-0.3085,316.6562
15:09:47:167,2.4706,0.7971,12.3272,64.3796,-0.0421,-0.7923,-0.6573,316.5312
15:09:47:187,1.9534,-0.2608,13.5721,63.9876,-0.215,-0.9535,-1.0207,316.1094
15:09:47:211,0.4717,-0.7684,14.3097,63.2189,-0.2059,-0.8527,-1.1838,316.0625
15:09:47:226,-0.687,-0.7875,13.5577,62.6858,0.0892,-0.5107,-1.0195,315.5156
15:09:47:246,-0.5387,-0.2656,11.4915,62.098,0.5522,-0.1881,-0.6341,313.9531
15:09:47:266,-0.1795,0.644,9.4472,61.1777,0.9205,-0.1289,-0.3415,313.9531
15:09:47:287,0.9649,1.2401,8.9922,60.4982,1.0775,-0.3909,-0.2462,311.75
15:09:47:310,2.071,1.197,8.286,59.5957,1.1056,-0.4148,-0.3176,311.75
15:09:47:328,2.1069,1.0798,6.9476,58.9883,1.0085,-0.1747,-0.493,310.7656
15:09:47:347,1.4773,1.1659,5.7242,58.4927,0.7501,0.0739,-0.6609,310.7656
15:09:47:367,0.5291,1.2975,5.339,58.1322,0.3592,0.2364,-0.7874,310.5625
15:09:47:387,-0.5195,1.2736,5.5017,57.5212,-0.0837,0.4624,-0.8491,310.5312
15:09:47:412,-1.3047,1.2209,5.5352,57.3,-0.5119,0.7886,-0.7868,310.5312
15:09:47:427,-1.4342,1.439,5.808,57.3584,-0.868,0.9743,-0.5827,310.8438
15:09:47:446,-0.8402,2.0782,6.8925,57.6692,-1.0409,0.8283,-0.3109,312.1094
15:09:47:467,-0.0239,2.6216,8.4057,57.9469,-0.9346,0.4954,-0.1558,312.1094
15:09:47:486,0.1866,2.9303,9.2916,58.119,-0.5748,0.2553,-0.2077,314.7188
15:09:47:509,-0.5339,3.0093,9.0233,58.3779,-0.1539,0.1637,-0.3793,314.7188
15:09:47:527,-0.9864,2.8298,8.796,58.6218,0.1112,-0.0116,-0.507,316.5312
15:09:47:547,-0.9242,2.4873,9.3969,58.8346,0.1289,-0.2419,-0.551,316.7188
15:09:47:567,-1.0582,2.1595,10.2491,58.9243,-0.0379,-0.259,-0.5418,317.6094
15:09:47:587,-1.8482,2.3844,10.8428,58.9704,-0.2816,-0.0605,-0.4612,317.7031
15:09:47:611,-2.2313,2.5953,11.8101,58.4835,-0.5125,0.0751,-0.3128,318.8281
15:09:47:629,-3.026,2.5184,13.3328,58.1897,-0.5614,0.0855,-0.1753,318.9375
15:09:47:647,-3.7134,2.7197,12.1238,58.0933,-0.0031,0.2199,-0.0018,320.4688
15:09:47:667,-3.687,2.5666,10.9962,57.9603,0.1808,0.113,0.0476,320.6094
15:09:47:685,-3.1651,1.8194,11.47,57.6077,0.1326,-0.2327,0.0238,321.9844
15:09:47:711,-2.3653,0.9577,13.0047,57.6765,0.0165,-0.5516,-0.0018,322.125
15:09:47:727,-2.4156,0.6224,14.2567,57.2624,0.0336,-0.5956,-0.0012,322.5
15:09:47:746,-3.2608,0.8477,13.352,56.6702,0.2761,-0.3011,0.0605,322.5625
15:09:47:767,-3.4738,1.1635,10.9531,56.5498,0.6255,0.0281,0.2071,322.5625
15:09:47:786,-3.0141,1.319,8.8534,56.2743,0.8362,0.1167,0.3207,323.5156
15:09:47:812,-2.4251,1.5323,7.678,55.7261,0.7862,0.0641,0.3482,323.5156
15:09:47:828,-1.9681,1.7094,7.3283,55.2596,0.5174,0.0318,0.3079,324.6719
15:09:47:845,-1.7477,1.4749,7.247,55.3954,0.19,0.1173,0.2248,324.7812
15:09:47:867,-1.8147,1.1085,7.1489,55.0218,-0.0281,0.2578,0.1515,324.7969
15:09:47:886,-1.6687,0.8859,6.6317,55.1176,-0.0751,0.372,0.1582,325.5156
15:09:47:912,-1.5969,0.8668,5.8056,55.2717,-0.058,0.3225,0.2052,325.5156
15:09:47:928,-1.8721,1.0128,6.7178,55.0486,-0.1344,-0.033,0.2022,325.6094
15:09:47:946,-2.3174,1.6137,8.5014,54.7594,-0.2773,-0.3054,0.1991,325.5625
15:09:48:009,-2.7939,2.0495,9.7487,54.4957,-0.3885,-0.2101,0.1949,325.5625
15:09:48:010,-3.2871,1.9247,10.5939,54.3507,-0.4453,0.0867,0.171,325.6562
15:09:48:010,-3.3709,1.7524,11.2427,54.0439,-0.3653,0.3934,0.2529,325.6562
15:09:48:028,-2.9088,1.8888,10.5437,53.9213,-0.0843,0.7275,0.496,325.7344
15:09:48:046,-2.0375,2.4778,9.1549,54.1354,0.2596,0.9242,0.7788,325.7344
15:09:48:066,-1.1827,3.457,8.3722,54.2222,0.4453,0.8741,0.9407,325.4219
15:09:48:086,0,4.1776,8.7649,54.3894,0.4551,0.6041,0.9285,325.3906
15:09:48:111,1.209,4.2233,8.9204,54.5766,0.4007,0.4551,0.7232,324.9219
15:09:48:128,1.5802,3.9742,9.3969,55.0385,0.011,0.2602,0.0483,324.875
15:09:48:148,0.577,3.5049,10.2419,55.3589,-0.2413,-0.0067,-0.2321,324.4688
15:09:48:168,0.0024,2.9447,11.3384,55.4557,-0.2895,-0.4062,-0.3671,324.4219
15:09:48:185,0.4621,2.2241,11.9249,55.1327,-0.1026,-0.7599,-0.3958,323.9531
15:09:48:212,1.0798,1.3621,12.3488,54.5624,0.0709,-0.9383,-0.4826,323.9062
15:09:48:227,1.1157,0.5148,12.7582,54.0746,0.0751,-0.8857,-0.6096,323.4844
15:09:48:246,0.4262,0.0814,13.0813,53.6261,0.0134,-0.656,-0.6487,322.9531
15:09:48:267,-0.3544,0.3568,12.3894,53.3474,0.1008,-0.3586,-0.4887,322.9531
15:09:48:286,-0.4789,0.9027,10.7375,52.3917,0.3604,-0.0367,-0.2114,321.9531
15:09:48:312,0.0885,1.4462,8.5349,51.609,0.5907,0.1692,-0.0635,321.9531
15:09:48:327,0.5818,1.762,6.9165,50.8178,0.5742,0.1393,-0.1973,320.0156
15:09:48:346,0.6942,1.6687,6.6676,50.4891,0.2676,-0.0012,-0.54,319.8438
15:09:48:367,-0.1172,1.0558,7.0098,50.2304,-0.1839,0.0269,-0.8815,319.8281
15:09:48:386,-1.2473,0.7493,7.2685,49.6551,-0.5076,0.1588,-1.0042,318.0156
15:09:48:412,-1.8051,0.8835,7.3522,49.526,-0.5418,0.2132,-0.9004,318
15:09:48:428,-1.6974,1.3334,7.2063,49.0137,-0.3433,0.182,-0.7184,317.4688
15:09:48:446,-1.3836,1.8147,6.7083,49.0472,-0.0874,0.1423,-0.5815,318.0781
15:09:48:467,-1.2568,2.3246,6.2462,48.7746,0.055,0.091,-0.5131,318.0781
15:09:48:486,-1.0654,2.7556,6.3778,48.7443,0.0079,-0.0024,-0.4862,319.3125
15:09:48:512,-0.699,2.7604,7.2398,48.4459,-0.1796,-0.0733,-0.5076,319.3125
15:09:48:526,-0.9984,2.6958,8.3243,47.9663,-0.3842,-0.0513,-0.5675,320.9531
15:09:48:546,-1.6831,2.8322,9.7056,47.9738,-0.4936,-0.0727,-0.5858,320.9531
15:09:48:567,-2.0447,2.9686,11.1206,47.2623,-0.4526,-0.1344,-0.5314,321.7812
15:09:48:587,-2.2911,2.7532,12.6386,46.9382,-0.2834,-0.2352,-0.4581,321.875
15:09:48:610,-3.1603,2.5041,14.3408,46.879,-0.0037,-0.2663,-0.3592,322.2812
15:09:48:694,-3.9383,3.4044,13.5362,46.6707,0.8204,0.1784,0.2364,322.3125
15:09:48:695,-3.4164,3.7588,11.8843,46.4898,0.9047,0.2761,0.4111,323.75
15:09:48:695,-3.414,3.9383,12.4971,46.4985,0.642,0.0776,0.4215,323.8906
15:09:48:696,-3.8163,3.4355,13.3878,46.4234,0.4184,0.0428,0.3873,325.5625
15:09:48:717,-4.156,2.782,12.6864,46.2576,0.4508,0.1686,0.4245,325.7344
15:09:48:725,-3.9742,2.4108,11.3575,46.4585,0.5864,0.2175,0.5675,326.9219
15:09:48:745,-2.8944,2.2983,10.3591,46.2203,0.6823,0.0702,0.7385,328.0469
15:09:48:767,-1.908,2.2624,9.8734,46.1023,0.7257,-0.1716,0.7678,328.0469
15:09:48:787,-1.8242,2.3677,9.3897,46.0957,0.7232,-0.314,0.6426,329.1406
15:09:48:813,-1.9223,2.2959,8.2525,45.714,0.6707,-0.2602,0.5113,329.1406
15:09:48:827,-1.8673,1.9777,6.9452,45.6766,0.5076,-0.0892,0.4233,329.2344
15:09:48:845,-1.7118,1.7979,6.1122,45.4329,0.2083,0.0782,0.3665,330.2969
15:09:48:866,-1.3167,1.8434,5.9207,45.2619,-0.1857,0.1997,0.328,330.3125
15:09:48:886,-0.8883,1.9008,6.1361,45.0818,-0.565,0.2492,0.2828,331.2031
15:09:48:916,-0.644,1.8482,6.2509,45.2142,-0.8075,0.2975,0.2223,331.2031
15:09:48:927,-0.62,1.6376,6.3323,45.1027,-0.8827,0.3677,0.1655,331.2969
15:09:48:945,-0.8091,1.4605,6.1528,44.9348,-0.865,0.4349,0.1429,330.6562
15:09:48:973,-1.1587,1.6376,6.2438,44.9983,-0.8778,0.3237,0.1863,330.6562
15:09:48:985,-1.3669,2.1787,7.855,44.8031,-0.8851,-0.0788,0.3103,329.9062
15:09:49:006,-1.0845,2.9423,9.5955,44.8444,-0.6939,-0.3854,0.493,329.9062
15:09:49:026,-0.5219,3.7277,9.7032,44.8087,-0.2999,-0.2908,0.6066,328.6875
15:09:49:045,-0.5148,4.1871,8.4488,44.709,0.0513,-0.0379,0.565,328.6875
15:09:49:066,-0.8115,4.5272,7.0388,44.6076,0.157,0.0421,0.4532,327.6094
15:09:49:086,-0.9338,4.745,7.3379,44.5039,0.0134,-0.281,0.3054,327.5
15:09:49:106,-0.8835,4.319,9.5309,44.4112,-0.1723,-0.7275,0.0794,326.8125
15:09:49:126,-1.0869,3.6703,11.2092,44.0644,-0.1955,-0.8503,-0.1387,326.75
15:09:49:145,-1.1157,2.8729,12.0951,43.5161,-0.0928,-0.6506,-0.2504,326.0156
15:09:49:167,-0.6511,2.0662,12.1143,42.9861,0.2804,-0.2639,-0.2114,325.9375
15:09:49:186,-0.7493,1.9056,11.3695,42.4733,0.4398,-0.281,-0.2236,325.0938
15:09:49:207,-0.941,1.8218,10.8547,42.002,0.4936,-0.3775,-0.2327,325.0156
15:09:49:226,-0.6511,1.762,10.558,41.7967,0.3769,-0.4135,-0.1643,324.2656
15:09:49:246,0.0885,1.6065,10.771,41.3285,0.088,-0.3677,-0.0715,323.3281
15:09:49:266,0.4765,1.3382,11.7503,40.8127,-0.2785,-0.2688,-0.055,323.3281
15:09:49:286,0.4693,0.7445,12.5856,40.5632,-0.518,-0.11,-0.0849,323.25
15:09:49:306,0.1771,0.5387,13.0262,40.4624,-0.4917,0.0165,-0.0599,322.0781
15:09:49:326,-0.122,1.0917,12.2554,40.1647,-0.1906,0.1558,0.0819,321.9531
15:09:49:345,0.0072,1.7716,10.3184,40.078,0.2071,0.2743,0.259,320.875
15:09:49:366,0.9434,2.4347,8.2717,40.1921,0.4508,0.2022,0.3421,320.8594
15:09:49:385,2.1978,2.8633,7.0627,39.708,0.3567,0.0342,0.1991,320.5625
15:09:49:406,2.4993,2.9016,7.1943,39.7193,-0.0812,-0.0324,-0.1784,320.5625
15:09:49:425,1.3741,2.3246,8.1135,39.911,-0.5443,0.0385,-0.6157,321.1719
15:09:49:445,-0.0239,1.573,8.3243,39.9561,-0.6689,0.0702,-0.8979,321.8281
15:09:49:466,-0.9027,1.1874,8.4129,39.9139,-0.493,-0.0825,-0.9419,321.8281
15:09:49:485,-1.1635,1.2257,8.298,40.0524,-0.226,-0.1655,-0.7965,322.5781
15:09:49:505,-0.9314,1.6519,7.599,40.0834,0.0104,-0.0275,-0.5711,322.5781
15:09:49:527,-0.4334,2.2241,6.8518,40.0536,0.1112,0.1387,-0.408,323.0312
15:09:49:546,0.0933,2.5208,6.5862,40.0524,0.0819,0.2395,-0.3836,323.0312
15:09:49:566,0.2752,2.5184,6.804,39.9347,0.0104,0.2773,-0.4667,323.1406
15:09:49:586,0.3568,2.5834,7.2733,39.795,-0.0409,0.2889,-0.5559,323.1406
15:09:49:606,0.285,2.8298,7.4743,39.8522,-0.0977,0.3439,-0.6267,323.0156
15:09:49:626,-0.1819,3.0404,8.0345,39.8379,-0.1918,0.3054,-0.7116,323
15:09:49:646,-0.7756,2.9614,8.9372,39.9102,-0.3036,0.1631,-0.8033,322.4219
15:09:49:666,-1.3334,2.7389,10.3881,39.6524,-0.452,-0.0458,-0.8821,322.3594
15:09:49:687,-2.2481,2.394,12.1908,39.5328,-0.6298,-0.2633,-0.7446,322.375
15:09:49:708,-3.3326,2.0136,15.1044,39.5073,-0.3806,-0.1857,-0.3732,322.375
15:09:49:726,-3.1196,2.2433,14.7547,39.6585,0.0336,0.0018,0.0806,323.7031
15:09:49:745,-2.8418,2.9734,13.1626,39.6702,0.3983,0.1716,0.4306,325.5156
15:09:49:766,-3.0835,3.4211,11.5517,39.4204,0.5406,0.248,0.5455,325.5156
15:09:49:786,-3.2752,3.3613,10.1725,39.624,0.4154,0.27,0.4985,325.6875
15:09:49:806,-2.9734,2.581,10.0792,39.741,0.1191,0.0776,0.4239,326.6719
15:09:49:826,-1.9753,1.4773,11.5086,39.8423,-0.1338,-0.3518,0.3616,326.7812
15:09:49:845,-1.7213,0.5459,13.4333,39.9477,-0.1698,-0.6958,0.2456,327.5938
15:09:49:867,-2.5208,-0.122,13.4572,40.1708,0.0434,-0.4881,0.1564,327.6719
15:09:49:886,-3.2991,-0.419,11.2427,40.2707,0.3842,0.0586,0.2657,328.8594
15:09:49:906,-3.3206,0.012,8.7625,40.2517,0.6334,0.4044,0.5498,328.875
15:09:49:927,-2.7676,0.7804,7.0173,40.5681,0.6341,0.4887,0.8094,330.3906
15:09:49:946,-1.8697,1.5036,6.2007,40.7637,0.3702,0.4441,0.9645,332.1875
15:09:50:004,-0.9625,1.8625,6.44,41.1474,-0.0318,0.3036,0.97,332.1875
15:09:50:004,-0.1986,1.7094,7.0986,41.5431,-0.3494,0.1533,0.824,333.2969
15:09:50:009,-0.0383,1.2832,7.7833,41.7353,-0.4856,0.0409,0.584,333.2969
15:09:50:027,-0.3185,1.0056,8.5325,42.0163,-0.4985,-0.0061,0.3885,332.8125
15:09:50:045,-0.4621,1.0463,8.9396,42.1765,-0.4142,0.0257,0.3464,332.8125
15:09:50:066,-0.134,1.1204,8.8128,42.725,-0.2266,0.0739,0.3922,331.7812
15:09:50:086,0.1986,1.2162,8.4703,43.0832,0.0116,0.0489,0.416,331.7812
15:09:50:106,0.4095,1.5993,8.4464,43.4652,0.1888,-0.0483,0.3958,331.0156
15:09:50:126,0.5506,2.1117,8.4488,43.5911,0.259,-0.0623,0.3537,330.9375
15:09:50:145,0.5291,2.6192,8.001,43.7437,0.234,0.0892,0.2706,330.625
15:09:50:166,-0.0335,3.0356,7.5221,44.1607,0.0953,0.2755,0.1222,330.5938
15:09:50:188,-0.8812,3.6317,8.2717,44.4024,-0.328,0.2834,-0.1069,329.8906
15:09:50:211,-1.0391,3.7636,9.5979,44.5699,-0.4349,0.0629,-0.2077,329.8125
15:09:50:228,-1.0558,3.5336,10.9555,44.737,-0.3989,-0.1472,-0.3262,328.0781
15:09:50:246,-1.0104,3.0981,12.277,44.9611,-0.2126,-0.3409,-0.3964,327.9219
15:09:50:265,-0.5602,2.7748,12.6673,44.983,0.0843,-0.427,-0.372,326
15:09:50:285,0.2273,3.0069,12.1525,45.208,0.2718,-0.3714,-0.2895,325.8125
15:09:50:306,1.3741,3.0547,10.6609,45.2929,0.1558,-0.3128,-0.2877,324.6719
15:09:50:327,1.8314,1.7237,11.336,45.1457,-0.3653,-0.518,-0.5253,324.5625
15:09:50:347,1.6328,-0.0335,14.8481,45.1756,-1.0629,-0.6628,-0.7965,323.7031
15:09:50:369,1.2042,-1.1133,16.7109,45.095,-1.3873,-0.2669,-0.868,323.625
15:09:50:386,0.2489,-1.4964,16.1865,44.9995,-1.1765,0.2327,-0.7568,322.75
15:09:50:407,0.1244,-1.2975,14.3671,44.7197,-0.617,0.5681,-0.4093,322.75
15:09:50:432,0.9099,-0.8955,11.5062,44.6007,0.1045,0.7049,-0.0287,322.1406
15:09:50:446,1.264,0.122,8.9827,44.4039,0.7074,0.5174,0.1136,321.9219
15:09:50:467,1.3334,1.0606,7.599,44.2122,1.0464,0.1399,-0.0318,321.9219
15:09:50:487,1.0463,1.2257,6.1696,44.3235,1.1765,0.0195,-0.3073,322.0938
15:09:50:506,0.5889,0.9936,4.1034,44.0843,1.1576,0.193,-0.5278,322.0938
15:09:50:532,-0.0885,1.0032,2.4491,44.3229,0.9627,0.3036,-0.6481,322.8438
15:09:50:545,-0.6153,1.2592,2.3342,44.1582,0.6139,0.1851,-0.6958,322.8438
15:09:50:566,-0.8282,1.5203,3.4499,44.1992,0.2504,-0.0464,-0.7135,323.7344
15:09:50:586,-1.1037,1.7046,4.4028,44.1373,-0.0189,-0.1863,-0.7361,323.7344
15:09:50:606,-1.3693,2.0758,5.5807,43.8978,-0.2413,-0.2877,-0.7556,324.6875
15:09:50:629,-1.1755,2.581,7.5485,43.6233,-0.4667,-0.3256,-0.7593,324.6875
15:09:50:647,-0.7899,2.849,8.9803,43.2237,-0.6481,-0.1478,-0.8185,326.0938
15:09:50:667,-1.2879,2.6695,9.7487,43.0104,-0.7599,0.0299,-0.9645,326.2344
15:09:50:688,-1.963,2.4658,11.4796,42.5922,-0.7788,-0.0654,-1.0403,327.1094
15:09:50:757,-2.1093,1.9968,13.5147,42.2906,-0.3916,-0.1319,-0.8625,327.2031
15:09:50:757,-3.2871,1.5873,13.6558,41.938,-0.1625,0.0837,-0.6347,327.1719
15:09:50:758,-3.7373,2.1739,13.2873,41.6403,0,0.2407,-0.2975,327.1562
15:09:50:768,-3.5073,2.6408,12.9927,41.6955,0.1503,0.3024,0.0324,327.8438
15:09:50:787,-3.2776,2.9207,12.2746,41.7162,0.3207,0.2932,0.2614,327.8906
15:09:50:806,-3.3709,3.0332,11.3791,41.685,0.4557,0.1778,0.3714,329.375
15:09:50:830,-3.7516,2.9758,10.5652,41.7729,0.5027,-0.025,0.3916,329.5156
15:09:50:848,-3.8019,2.4084,10.3711,41.8693,0.4099,-0.2706,0.3861,331.0625
15:09:50:866,-3.122,1.319,11.1063,41.8644,0.201,-0.5131,0.4038,331.2188
15:09:50:888,-2.4299,0.213,13.11,41.9607,0.0128,-0.7135,0.4288,332.875
15:09:50:906,-2.1093,-0.297,15.1618,42.0577,0.0476,-0.6536,0.4868,332.8906
15:09:50:930,-2.193,-0.4525,13.5673,41.9513,0.3983,-0.1637,0.6206,334.4531
15:09:50:946,-2.1547,-0.2417,10.1701,42.1299,0.7813,0.2981,0.7874,336.375
15:09:51:018,-1.6735,0.3664,7.5509,42.5654,0.8705,0.383,0.9034,336.375
15:09:51:018,-1.0917,1.1898,6.6604,42.5784,0.5669,0.306,0.915,338.25
15:09:51:019,-0.6272,1.6974,7.3499,42.7268,0.0776,0.3128,0.8173,338.25
15:09:51:027,-0.364,1.6041,8.0728,43.0236,-0.2468,0.4215,0.6725,339.25
15:09:51:047,-0.2297,1.2281,7.448,43.4197,-0.273,0.482,0.5559,339.25
15:09:51:069,-0.0191,1.0295,6.9141,43.801,-0.215,0.2975,0.5046,338.9844
15:09:51:088,0.2704,1.1085,7.4982,44.3225,-0.2743,0.0623,0.4752,338.9844
15:09:51:107,0.3138,1.3358,8.1855,44.609,-0.4007,0.1124,0.416,338.3281
15:09:51:131,0.0167,1.7022,8.432,44.7028,-0.4484,0.3378,0.3323,338.3281
15:09:51:149,-0.5459,2.0853,8.5062,45.1276,-0.3378,0.4355,0.2541,337.7031
15:09:51:169,-1.0726,2.4682,8.3172,45.3393,-0.1008,0.3842,0.2077,337.625
15:09:51:188,-1.1396,2.6384,7.922,45.7584,0.1442,0.2266,0.1875,336.8281
15:09:51:206,-0.9123,2.7652,7.4862,45.9098,0.284,0.0428,0.1527,336.7344
15:09:51:230,-1.5323,3.3159,8.7601,45.8606,0.1429,-0.1924,-0.1014,335.5
15:09:51:250,-1.9247,2.9997,9.6123,46.0627,0.091,-0.2682,-0.2376,335.375
15:09:51:268,-1.7572,2.5642,10.4264,46.2431,0.1038,-0.3964,-0.3054,333.7188
15:09:51:285,-1.3621,2.2074,11.6258,46.4576,0.0898,-0.5149,-0.3433,333.5469
15:09:51:305,-1.1109,2.0255,12.5282,46.683,0.0641,-0.4746,-0.3751,331.9531
15:09:51:332,-1.3549,1.7692,12.8779,46.8432,0.0183,-0.3024,-0.3916,331.7969
15:09:51:347,-1.3717,1.5514,12.8061,46.7542,-0.0843,-0.1277,-0.2987,330.5625
15:09:51:365,-0.5028,0.984,13.7925,46.6722,-0.2908,-0.113,-0.1552,330.4375
15:09:51:389,0.4597,0.2656,15.9494,47.0141,-0.4832,-0.091,-0.0898,329.4062
15:09:51:406,0.9338,-0.4167,17.0913,46.7883,-0.4294,0.2223,-0.0776,329.2969
15:09:51:428,0.5794,-0.7086,15.8249,46.9799,-0.058,0.6854,-0.0086,328.4219
15:09:51:447,0.2874,-0.3544,13.1842,46.9098,0.4807,0.8906,0.2107,327.9219
15:09:51:468,1.2425,0.5291,10.8835,46.9248,0.9694,0.6799,0.5107,327.9219
15:09:51:487,2.4826,1.7118,8.9587,46.9623,1.2797,0.325,0.6041,327.8125
15:09:51:506,2.8418,2.6695,7.2422,47.1137,1.3482,0.1026,0.3555,327.8125
15:09:51:532,2.3103,3.026,5.8822,47.0979,1.2046,0.0385,-0.0874,328.2656
15:09:51:549,1.0199,2.9303,5.1329,46.7714,0.9535,0.0684,-0.5247,328.2656
15:09:51:568,-0.1627,2.6719,4.2039,46.8199,0.7336,0.1179,-0.8045,329.125
15:09:51:587,-1.2712,2.5857,3.335,46.3969,0.5137,0.0764,-0.9242,329.125
15:09:51:607,-2.3486,2.5427,2.9662,46.119,0.2223,-0.0593,-0.9077,330.0781
15:09:51:632,-3.038,2.5403,3.7445,45.8714,-0.0867,-0.3195,-0.7532,330.0781
15:09:51:648,-3.2512,2.6504,5.3725,45.609,-0.2107,-0.832,-0.5174,330.5
15:09:51:668,-3.6078,2.8107,6.7848,45.1777,-0.0605,-1.3965,-0.27,330.5469
15:09:51:686,-3.591,3.2871,7.9771,44.8773,0.1472,-1.6659,0.0446,330.5625
15:09:51:706,-2.1571,3.8833,8.6282,44.6486,0.2297,-1.507,0.4062,330.5625
15:09:51:732,0.28,4.3932,9.2845,44.3477,0.1161,-1.1197,0.5809,330.2812
15:09:51:747,1.3119,4.733,13.2491,44.0504,-0.6017,0.0281,0.0171,330.25
15:09:51:768,-0.431,4.1632,14.1156,43.9061,-0.5357,0.4771,-0.3317,329.4375
15:09:51:789,-1.9056,3.201,13.6511,43.5753,-0.0996,0.5858,-0.3897,329.3594
15:09:51:806,-2.1643,2.7221,12.2028,43.5533,0.3818,0.5192,-0.099,329.5312
15:09:51:829,-1.7859,3.3589,11.0225,43.487,0.6237,0.4288,0.306,329.5469
15:09:51:849,-1.5706,4.2138,10.6059,43.8264,0.6011,0.4074,0.5595,331.1562
15:09:51:866,-1.8936,4.8099,9.8351,43.9179,0.4868,0.5363,0.631,331.3125
15:09:51:888,-2.1571,4.9487,8.353,44.1118,0.328,0.6188,0.6377,333.2969
15:09:51:906,-2.004,4.1967,8.2597,44.5196,0.0238,0.4203,0.6212,333.4844
15:09:51:933,-1.7836,2.9231,10.2562,44.7752,-0.3262,0.0464,0.5925,335.0312
15:09:51:946,-2.0638,2.4562,12.5593,45.3639,-0.3812,-0.2932,0.6157,335.7969
15:09:52:015,-2.2959,2.3222,12.6386,45.5326,-0.0501,-0.4074,0.6982,335.7969
15:09:52:016,-1.9415,2.1691,10.7136,46.1379,0.3366,-0.3885,0.8051,335.2188
15:09:52:016,-1.3836,2.1452,9.4304,46.4016,0.4025,-0.3586,0.857,335.2188
15:09:52:027,-0.9529,2.15,9.5405,47.0176,0.1778,-0.2437,0.8405,334.7188
15:09:52:047,-0.7205,2.0949,9.7893,47.147,-0.0232,-0.0018,0.7947,334.7188
15:09:52:068,-0.7086,1.9295,9.0233,47.6363,-0.0086,0.2785,0.7489,335.25
15:09:52:088,-0.7349,2.0207,7.4623,47.8595,0.1497,0.4795,0.7465,335.25
15:09:52:107,-0.9912,2.7365,6.2414,48.1191,0.2816,0.5192,0.7843,335.0312
15:09:52:133,-0.8716,3.6655,5.7506,48.6419,0.3341,0.452,0.8362,335.0312
15:09:52:146,0.4693,3.8545,4.9798,49.0628,0.3115,0.4178,0.8399,333.75
15:09:52:167,1.5443,3.4762,5.0587,49.4958,0.0855,0.3604,0.6585,333.75
15:09:52:187,1.7477,3.2608,6.7848,49.7807,-0.3329,0.3549,0.3598,332.375
15:09:52:207,1.2664,3.4762,9.5883,50.3033,-0.6163,0.394,0.077,332.2344
15:09:52:231,0.2465,3.5719,11.1326,50.5058,-0.4587,0.4606,-0.1429,330.9531
15:09:52:249,-0.6918,3.1005,7.9914,51.2643,0.3897,0.5687,-0.2016,330.8281
15:09:52:268,-0.3999,3.6607,7.0938,51.5893,0.3641,0.4899,-0.1301,329.4844
15:09:52:287,-0.189,4.0723,7.4001,51.8191,0.0476,0.4423,-0.1533,329.3594
15:09:52:305,-0.3736,3.754,8.8271,51.9635,-0.3079,0.3867,-0.2633,327.8438
15:09:52:328,-0.9912,3.0981,9.6721,52.0373,-0.449,0.2743,-0.3323,327.7031
15:09:52:349,-1.3454,2.825,9.6936,52.1399,-0.438,0.066,-0.2309,326.0938
15:09:52:366,-0.5148,3.0619,10.3567,52.4417,-0.4807,-0.2242,-0.0067,325.9375
15:09:52:388,0.7493,3.469,10.9265,52.7086,-0.6011,-0.3525,0.1466,324.2656
15:09:52:407,1.896,3.3182,11.1733,52.6098,-0.7855,-0.3073,0.0959,324.0938
15:09:52:433,2.6767,2.3701,12.4995,52.2983,-1.0256,-0.2651,-0.1368,322.3125
15:09:52:446,2.4323,1.5371,14.3408,52.3303,-1.1802,-0.1362,-0.43,320.8125
15:09:52:466,1.0439,1.1157,15.0876,52.5279,-1.0641,0.1338,-0.6481,320.8125
15:09:52:486,0.0215,1.0654,13.8643,52.5867,-0.6512,0.3708,-0.6426,320.5156
15:09:52:505,0.0957,1.2616,11.6952,52.6298,-0.1185,0.2944,-0.4691,320.5156
15:09:52:528,0.644,1.5275,9.5979,52.5465,0.2993,-0.0312,-0.3207,320.8281
15:09:52:549,1.3478,1.7477,8.4464,52.3027,0.4478,-0.3946,-0.2834,320.8281
15:09:52:568,1.5897,1.7572,7.8431,52.0789,0.3744,-0.529,-0.3909,321.0156
15:09:52:588,1.1611,1.6878,7.3786,52.3255,0.215,-0.405,-0.5595,321.0156
15:09:52:606,0.3664,1.7166,6.7466,52.0047,0.0983,-0.1863,-0.6884,321.3906
15:09:52:627,-0.4597,1.8601,6.1122,51.3127,0.066,-0.0458,-0.7312,321.3906
15:09:52:648,-0.929,2.0925,5.5807,50.6497,0.088,-0.0098,-0.6848,321.5
15:09:52:669,-0.9505,2.4514,5.0659,50.2147,0.1106,-0.0116,-0.6029,321.5
15:09:52:687,-0.6129,2.8561,4.4889,49.6661,0.0623,-0.0031,-0.5577,321.1562
15:09:52:708,-0.1747,3.0021,4.3382,49.2209,-0.1307,-0.0586,-0.5913,321.125
15:09:52:732,-0.3281,2.971,6.2486,48.7893,-0.4985,-0.2523,-0.7013,321.3906
15:09:52:748,-0.4478,2.8466,9.4974,48.3471,-0.8075,-0.4514,-0.7978,321.4219
15:09:52:822,-0.5818,2.6384,12.5809,47.7551,-0.5461,-0.4123,-0.8888,322.3438
15:09:52:822,-2.5232,2.4299,12.9784,47.4584,-0.2584,-0.1191,-0.8075,322.4375
15:09:52:823,-3.3159,2.6695,12.9114,47.4402,-0.1649,0.0794,-0.565,323.2344
15:09:52:835,-3.1723,3.0981,13.4477,47.0841,-0.1527,0.2059,-0.2162,323.3125
15:09:52:847,-2.2146,3.4929,14.0677,47.0863,-0.0745,0.2999,0.0892,324.25
15:09:52:866,-1.5586,3.7684,13.8835,46.9359,0.1051,0.3665,0.215,324.3438
15:09:52:887,-1.7333,3.7181,13.098,46.7952,0.2883,0.3964,0.1759,325.7188
15:09:52:906,-2.5881,3.3159,11.9656,46.4508,0.3897,0.4019,0.091,325.8594
15:09:52:927,-3.5312,3.0547,10.6561,46.6948,0.4154,0.3738,0.0794,327.3125
15:09:52:948,-4.0555,2.6551,9.7343,46.4145,0.3433,0.2559,0.157,328.7812
15:09:53:012,-3.8019,1.8075,10.3591,46.4852,0.1942,-0.0012,0.2981,328.7812
15:09:53:013,-3.1196,1.0271,11.6378,46.4425,0.1881,-0.2706,0.4679,330.125
15:09:53:013,-2.7556,0.6272,11.5517,46.2664,0.4209,-0.3445,0.6066,330.125
15:09:53:027,-2.2552,0.5554,9.7917,46.1741,0.6927,-0.2321,0.7275,331.7812
15:09:53:051,-1.4462,0.565,8.0345,46.0877,0.7135,-0.0892,0.7996,331.7812
15:09:53:067,-0.9123,0.8453,7.5102,46.3532,0.3751,0.025,0.777,333.5469
15:09:53:086,-0.7588,0.9912,8.5014,46.254,-0.1258,0.1356,0.6744,333.5469
15:09:53:107,-0.8596,0.8019,9.9141,46.5004,-0.4606,0.2883,0.5687,334.2812
15:09:53:132,-1.1707,0.6751,10.2323,46.4779,-0.4306,0.4398,0.5223,334.3438
15:09:53:149,-1.5132,0.8524,9.2821,47.0211,-0.1246,0.5156,0.5638,333.9688
15:09:53:167,-1.6854,1.3836,7.5942,47.2197,0.2132,0.474,0.6774,333.9688
15:09:53:186,-2.0423,1.8482,7.0436,47.751,0.408,0.2162,0.7819,333.75
15:09:53:206,-1.7309,1.5754,7.9077,48.1335,0.5504,-0.1307,0.8821,333.7344
15:09:53:227,-0.833,1.8147,8.0895,48.219,0.7715,-0.2052,1.0048,333.5781
15:09:53:249,-0.1268,2.6169,6.7513,48.3945,0.8961,0.0776,1.0366,333.5469
15:09:53:269,-0.1531,3.6846,5.8582,49.0149,0.2865,0.4856,0.8308,332.8906
15:09:53:288,-0.2898,4.3047,7.4121,49.2643,-0.0531,0.4129,0.744,332.8281
15:09:53:306,-0.3066,4.4722,8.2525,49.4616,-0.1032,0.284,0.6365,331.75
15:09:53:329,-0.1388,4.4507,8.5134,49.9094,-0.0067,0.0678,0.5137,331.6406
15:09:53:350,-0.268,4.4746,9.2052,50.1805,-0.022,-0.1692,0.3812,330.25
15:09:53:366,-0.419,4.3095,10.5628,50.2895,-0.1839,-0.2938,0.2755,330.1094
15:09:53:386,-0.3664,3.8952,11.6569,50.5738,-0.3573,-0.226,0.2388,328.7188
15:09:53:406,-0.0072,3.3733,11.9465,51.1349,-0.4545,-0.077,0.2694,328.5781
15:09:53:428,0.5267,3.2273,11.9297,51.3561,-0.4954,-0.0079,0.3366,327.2656
15:09:53:450,1.2832,3.469,11.5636,51.7054,-0.5418,0.0012,0.3842,325.5469
15:09:53:467,1.9128,3.0763,11.3791,51.6227,-0.708,0.0458,0.2871,325.5469
15:09:53:487,2.0901,1.9152,11.7957,51.8044,-1.0653,0.1765,0.0727,323.7656
15:09:53:506,2.0231,0.9147,13.3615,51.8506,-1.3788,0.2535,-0.1038,323.7656
15:09:53:527,1.4916,0.5578,14.5896,52.3278,-1.3519,0.3683,-0.1826,321.7969
15:09:53:549,0.8668,0.6679,14.6327,52.8191,-0.901,0.4459,-0.1246,321.7969
15:09:53:567,1.209,0.6392,12.8683,53.0871,-0.1307,0.3274,0.0177,319.9219
15:09:53:588,1.8745,0.8955,9.9332,53.1665,0.6218,0.1051,0.1258,319.9219
15:09:53:606,2.6767,1.6543,7.2924,53.4667,0.9792,-0.1759,0.08,318.6719
15:09:53:627,3.1029,2.4227,5.983,53.7066,0.7996,-0.3799,-0.2034,318.5469
15:09:53:651,2.6982,2.5137,6.5456,53.6044,0.2779,-0.3647,-0.6677,317.875
15:09:53:667,1.0319,1.9391,7.3714,53.42,-0.1655,-0.0525,-1.1209,317.875
15:09:53:688,-0.4884,1.4701,7.314,53.2233,-0.3091,0.3134,-1.3316,317.2344
15:09:53:706,-1.386,1.2497,6.5408,52.8483,-0.3415,0.6286,-1.3042,317.2344
15:09:53:725,-1.9534,1.3478,6.4376,52.4512,-0.4569,0.7898,-1.1698,316.3438
15:09:53:751,-2.0662,1.6735,7.4815,52.2713,-0.5284,0.7318,-0.9987,316.2656
15:09:53:768,-1.8266,1.9681,8.688,51.8247,-0.3744,0.5595,-0.8485,315.5781
15:09:53:788,-1.6137,2.5283,7.3044,51.5531,0.1802,0.4936,-0.7361,315.5156
15:09:53:807,-2.0877,2.7891,7.3953,51.6178,0.1283,0.336,-0.7648,315.25
15:09:53:827,-2.4538,2.983,8.7745,51.64,-0.025,0.1008,-0.7776,315.25
15:09:53:852,-2.8442,3.1172,9.7367,51.3529,-0.0837,-0.0318,-0.7733,315.0938
15:09:53:865,-3.8976,3.026,10.4504,51.4321,-0.1344,-0.0849,-0.7648,315.0625
15:09:53:887,-4.5918,2.4897,11.0848,51.4294,-0.1924,-0.0947,-0.6286,315.1406
15:09:53:906,-4.7115,2.1404,11.8866,51.1899,-0.2126,-0.1381,-0.3421,315.1562
15:09:53:927,-4.4913,2.071,12.6817,51.4786,-0.1484,-0.1771,-0.0031,316.2969
15:09:53:950,-3.9096,2.083,12.8133,51.2717,0.0134,-0.0941,0.3134,318.75
15:09:54:012,-3.548,2.1978,11.4987,50.9657,0.1833,0.1093,0.5302,318.75
15:09:54:012,-3.4307,2.0997,9.9476,50.7503,0.1961,0.2022,0.6218,321.3438
15:09:54:013,-3.1555,1.8601,10.4073,50.9347,0.0751,-0.0232,0.6341,321.3438
15:09:54:026,-3.2345,1.817,11.8029,50.575,0.0629,-0.3219,0.6078,323.0312
15:09:54:050,-3.5862,1.6591,11.578,50.544,0.2853,-0.4636,0.5821,323.0312
15:09:54:069,-3.0811,1.3573,9.8085,50.3893,0.5333,-0.5229,0.62,324.6094
15:09:54:088,-2.0351,1.1372,8.621,50.2264,0.463,-0.6078,0.6341,324.6094
15:09:54:107,-0.984,1.0343,9.9332,50.365,0.0214,-0.667,0.5314,324.625
15:09:54:127,-0.5052,0.7229,11.6234,50.3633,-0.4123,-0.4423,0.3317,326.2969
15:09:54:151,-0.7828,0.1819,11.6402,50.7005,-0.4813,-0.0202,0.135,327.9531
15:09:54:167,-1.3167,-0.2082,10.084,50.7927,-0.193,0.314,0.0812,327.9531
15:09:54:188,-1.4127,-0.1747,8.2167,50.9162,0.2211,0.4416,0.2327,328.9375
15:09:54:206,-0.8883,0.5626,7.2111,50.8634,0.617,0.3586,0.4838,328.9375
15:09:54:225,0.364,1.5251,6.6461,51.1278,1.0091,0.1778,0.6286,328.625
15:09:54:252,1.3693,2.4108,4.9726,51.1559,1.2608,0.0825,0.4985,328.6094
15:09:54:267,0.5865,3.2608,4.1991,51.2157,1.0372,-0.0159,0.099,327.5156
15:09:54:289,-1.5203,3.3517,7.4097,51.2252,-0.0165,0.1326,-0.3732,327.4062
15:09:54:308,-1.7429,3.2465,7.9196,50.9747,-0.1435,0.3066,-0.3763,326.1094
15:09:54:327,-2.0638,3.335,7.9316,50.9976,-0.1429,0.295,-0.3757,326.1094
15:09:54:349,-1.8673,3.4546,9.6529,51.1193,-0.1808,-0.0024,-0.3653,325.1719
15:09:54:368,-1.8338,3.3852,11.1805,51.0855,-0.1203,-0.2529,-0.3995,325.0781
15:09:54:387,-2.4562,2.9638,11.2068,51.038,0.0226,-0.295,-0.4587,324.1406
15:09:54:405,-2.5929,2.4299,10.6633,50.8057,0.0672,-0.2553,-0.3983,324.0625
15:09:54:426,-2.3797,2.0853,10.7399,50.916,-0.0764,-0.223,-0.2382,323.4531
15:09:54:451,-2.0255,2.083,11.6186,50.8729,-0.284,-0.1833,-0.0489,323.0156
15:09:54:467,-1.3597,2.5065,11.6306,50.7485,-0.3977,-0.0531,0.1289,323.0156
15:09:54:488,-0.4095,2.3342,10.7877,50.7033,-0.43,0.014,0.1765,322.0312
15:09:54:505,0.5076,1.4749,10.6537,50.428,-0.5046,-0.1332,0.0715,322.0312
15:09:54:527,0.7684,0.3329,11.9154,50.3987,-0.6072,-0.369,-0.0971,321.8594
15:09:54:545,0.5818,-0.1723,13.5697,50.1649,-0.5663,-0.4881,-0.1912,321.8594
15:09:54:569,0.1029,-0.2489,13.2778,50.0578,-0.2871,-0.3079,-0.1655,322.5469
15:09:54:588,0.1651,0.2345,11.3839,49.6914,0.066,-0.08,-0.0281,322.625
15:09:54:606,0.7205,1.0893,9.7654,49.564,0.2566,-0.0586,0.077,322.625
15:09:54:626,1.4533,1.8601,8.9324,49.4839,0.2297,-0.1674,0.0312,323.2812
15:09:54:652,1.8314,2.1547,8.8654,49.0834,0.0538,-0.2382,-0.2089,324.0938
15:09:54:667,1.2688,1.884,8.9827,48.8812,-0.1552,-0.1326,-0.5455,324.0938
15:09:54:686,0.0861,1.4844,8.6976,48.6293,-0.2566,0.0635,-0.7904,325.1562
15:09:54:707,-0.8402,1.343,7.9316,48.5833,-0.1851,0.1588,-0.8448,325.1562
15:09:54:726,-1.1922,1.4964,7.1178,48.371,-0.0342,0.102,-0.7568,325.4219
15:09:54:749,-0.8067,2.0231,6.8207,48.1581,0.0702,-0.0208,-0.6225,325.4531
15:09:54:767,-0.486,2.6336,6.9882,47.9541,0.0959,-0.0935,-0.5785,324.9844
15:09:54:786,-0.632,2.636,7.6038,47.7439,0.0562,-0.0916,-0.6567,324.9375
15:09:54:806,-0.7493,2.3151,8.1401,47.5253,0.0214,-0.0092,-0.7055,324.8125
15:09:54:882,-0.8668,2.3821,8.3267,47.5823,0.0177,0.102,-0.6805,324.7969
15:09:54:882,-1.494,2.8155,9.0999,47.2738,0.0018,0.1051,-0.6225,325.0625
15:09:54:883,-1.5634,2.9016,9.9787,46.7695,0,0.0275,-0.5773,325.0938
15:09:54:885,-1.8577,2.9471,10.7542,46.42,0.0018,0.0073,-0.5437,325.125
15:09:54:906,-2.3892,3.0476,11.511,46.0719,-0.0281,0.0562,-0.4832,325.125
15:09:54:926,-2.7293,3.0284,12.1813,45.7386,-0.0226,0.077,-0.3518,325.4062
15:09:54:946,-2.4467,2.8298,12.8779,45.6606,0.0574,0.0367,-0.1692,326.6875
15:09:55:010,-1.9056,2.9614,13.3902,45.4001,0.2138,-0.0067,-0.0018,326.6875
15:09:55:010,-1.8912,3.1914,13.3687,44.9401,0.3983,-0.0086,0.0611,328.5
15:09:55:011,-2.7197,3.28,12.7439,44.8084,0.5901,-0.0079,0.0458,328.5
15:09:55:026,-3.3661,3.1555,11.1494,44.4996,0.7654,0,0.0861,329.875
15:09:55:051,-3.6488,3.0069,9.7678,44.3782,0.7929,-0.0476,0.1906,329.875
15:09:55:067,-3.4235,2.5618,9.5572,44.4283,0.6634,-0.1863,0.3109,329.8906
15:09:55:087,-2.7054,1.9104,10.2084,44.2835,0.5137,-0.3042,0.419,331.4062
15:09:55:107,-2.5666,1.7788,10.6561,43.8238,0.4502,-0.3244,0.4856,331.4219
15:09:55:127,-2.1332,1.7213,9.9141,43.8365,0.4893,-0.2822,0.54,332.875
15:09:55:145,-1.3525,1.6519,9.5788,43.4705,0.4374,-0.2902,0.5455,334.1875
15:09:55:169,-0.778,1.8194,9.9284,43.2847,0.1967,-0.1912,0.4716,334.1875
15:09:55:187,-0.8139,1.9705,9.8925,43.3657,-0.1008,0.1503,0.3335,335.3125
15:09:55:206,-1.7094,1.9247,9.3969,43.2056,-0.2895,0.4991,0.1863,335.3125
15:09:55:226,-2.2361,1.4103,8.7123,43.1037,-0.2315,0.562,0.1527,335.8906
15:09:55:246,-1.9753,0.9075,7.3594,42.9848,0.022,0.3622,0.2645,335.8906
15:09:55:268,-1.7381,1.0606,6.6054,43.0136,0.1759,0.0507,0.4148,335.9531
15:09:55:287,-1.6998,1.5921,6.4208,42.9344,0.1197,-0.0861,0.5504,335.9688
15:09:55:307,-1.5299,1.9992,6.3012,43.2913,0.0501,-0.069,0.6664,336.1094
15:09:55:329,-0.5506,2.6623,6.0906,43.2501,0.1643,-0.1985,0.7801,336.125
15:09:55:353,-0.0909,3.4355,5.9327,43.2101,0.237,-0.3079,0.7391,335.9531
15:09:55:367,0.0766,4.1154,5.9997,43.2527,0.2315,-0.3989,0.5827,335.9375
15:09:55:386,0.0263,4.18,6.7729,43.277,0.1142,-0.4239,0.3476,335.2969
15:09:55:405,-0.1196,3.7899,7.6205,43.1473,-0.077,-0.295,0.124,335.2344
15:09:55:425,-0.3712,3.7469,8.5971,43.2276,-0.2724,-0.1289,-0.025,334.4062
15:09:55:446,-0.3927,3.8904,9.3514,42.9873,-0.394,-0.0446,-0.1319,333.5312
15:09:55:468,-0.2776,3.8713,9.7582,42.725,-0.4722,-0.0556,-0.2547,333.5312
15:09:55:487,-0.4789,3.3757,10.0696,42.4029,-0.5919,-0.1338,-0.4135,332.875
15:09:55:505,-0.7899,2.3103,10.8069,42.5358,-0.7733,-0.27,-0.5406,332.875
15:09:55:527,-1.0774,1.197,12.2985,42.1909,-0.9694,-0.3622,-0.543,332.1094
15:09:55:546,-0.9769,0.5794,13.6128,41.6981,-1.0879,-0.2089,-0.369,332.0469
15:09:55:568,0.1842,0.213,13.9552,41.7379,-1.1392,0.1662,-0.0715,332.0312
15:09:55:587,1.5108,0.2393,13.8476,41.4503,-1.2138,0.5516,0.1442,330.7656
15:09:55:606,1.5634,0.1771,14.051,41.4328,-1.3066,0.8723,0.1326,330.75
15:09:55:626,0.8477,-0.1149,14.3719,41.6318,-1.1899,0.9548,0.0635,329.1875
15:09:55:652,0.644,-0.4214,13.8835,42.3217,-0.6951,0.6793,0.1185,327.9375
15:09:55:667,1.1539,-0.1627,12.5115,42.1971,-0.0006,0.1668,0.2712,327.9375
15:09:55:686,1.9681,0.6009,10.7782,42.5902,0.6047,-0.3659,0.3567,327.5469
15:09:55:706,2.5065,1.1994,8.9372,42.8094,0.9224,-0.7257,0.2431,327.5469
15:09:55:727,2.3892,1.4773,7.6588,42.9237,0.9187,-0.8753,-0.0238,327.625
15:09:55:746,1.7596,1.5921,7.0122,42.7938,0.6982,-0.7776,-0.3121,327.625
15:09:55:768,1.0558,1.5826,6.3419,42.2823,0.4514,-0.5015,-0.5314,328.1406
15:09:55:786,0.3497,1.5849,5.8176,41.765,0.2211,-0.223,-0.6689,328.1875
15:09:55:806,-0.0885,1.6687,5.5065,40.766,-0.0049,-0.0171,-0.7208,329.0625
15:09:55:828,-0.2632,2.1643,7.1106,40.3865,-0.3799,0.0855,-0.6988,329.1562
15:09:55:853,-0.3473,2.3007,8.2597,39.9769,-0.3836,0.069,-0.7092,329.25
15:09:55:869,-0.4143,2.2792,8.8487,39.6497,-0.2407,0.0153,-0.7294,329.2656
15:09:55:887,-0.079,2.3342,8.7745,39.1397,-0.0953,-0.0147,-0.7208,328.4531
15:09:55:906,-0.1627,2.7293,8.7769,38.6468,-0.1179,0.0421,-0.7495,328.3594
15:09:55:926,-0.8859,3.0212,9.4041,38.5436,-0.2932,0.1545,-0.8118,327.7188
15:09:55:947,-1.4749,2.9231,10.3424,38.2747,-0.4661,0.2431,-0.8283,327.1562
15:09:56:025,-1.7668,2.5642,11.5612,38.2715,-0.5522,0.2926,-0.7691,327.1562
15:09:56:025,-2.0949,2.272,12.6625,37.8616,-0.5333,0.361,-0.6328,327.1094
15:09:56:026,-2.3964,2.004,13.34,37.3648,-0.3854,0.449,-0.4484,327.3281
15:09:56:026,-2.5331,1.695,12.9329,37.0714,-0.1313,0.5724,-0.2523,327.3594
15:09:56:047,-2.9734,1.5849,11.3264,36.9517,0.0421,0.7697,-0.1173,328.6094
15:09:56:068,-3.8019,1.5132,10.2467,37.2934,-0.0525,0.9224,-0.044,328.625
15:09:56:087,-4.7955,1.3286,10.218,37.4822,-0.2847,0.9114,0.0617,330.2188
15:09:56:107,-4.9726,0.6703,10.716,37.8289,-0.4484,0.7025,0.2859,330.2188
15:09:56:127,-4.1082,-0.0167,12.0494,38.2879,-0.5296,0.3732,0.6121,331.6406
15:09:56:145,-2.8729,-0.2776,14.1706,38.7886,-0.5149,0.1729,0.9444,333.1094
15:09:56:167,-1.8003,0.0431,14.5466,39.1934,-0.2236,0.2816,1.2131,333.1094
15:09:56:186,-1.5275,0.8378,12.2195,39.6251,0.35,0.3922,1.3427,334.6875
15:09:56:206,-1.2138,1.6998,9.0664,40.0496,0.8674,0.1735,1.3139,334.6875
15:09:56:227,-0.8234,2.1882,7.1512,40.2281,0.9847,-0.3158,1.1172,336.3281
15:09:56:246,-0.5626,1.9777,7.0795,40.4311,0.6518,-0.6377,0.8185,336.3281
15:09:56:271,-0.4932,1.1731,8.1784,40.3474,0.1283,-0.5779,0.5522,337.5156
15:09:56:287,-0.1364,0.6679,8.9731,40.3574,-0.2523,-0.2095,0.372,337.6406
15:09:56:306,-0.1101,0.5578,8.6234,40.3039,-0.3848,0.1985,0.2199,338.2188
15:09:56:326,-0.9123,0.4382,8.2167,40.7268,-0.3744,0.394,0.069,338.2656
15:09:56:346,-1.6017,0.1962,7.9986,40.9168,-0.2614,0.3555,0.033,338.3906
15:09:56:368,-1.3597,0.7014,7.1345,40.9113,-0.0397,0.1753,0.1191,338.3906
15:09:56:387,-1.7118,1.2353,7.3618,41.0277,0.1356,-0.0861,0.1264,337.8438
15:09:56:406,-2.7221,1.4198,7.8383,41.1238,0.0812,-0.0281,0.0122,337.7969
15:09:56:425,-3.4068,1.3167,7.8598,41.1003,0.1338,0.0403,-0.0367,336
15:09:56:446,-3.6269,1.4533,7.6469,41.1451,0.1924,0.1411,0.0055,333.2656
15:09:56:470,-3.5647,2.1404,7.448,41.2483,0.1081,0.339,0.0922,333.2656
15:09:56:487,-3.7158,2.6599,7.3905,41.0539,-0.1045,0.5351,0.1509,333.0156
15:09:56:507,-3.5575,2.9016,8.0489,41.2015,-0.3335,0.5168,0.2132,331.0156
15:09:56:526,-3.1268,2.9231,9.2195,41.331,-0.4838,0.2743,0.2798,330.8125
15:09:56:546,-2.3964,2.7006,10.8523,41.4918,-0.5675,-0.0226,0.3274,329.5781
15:09:56:570,-1.4198,2.5522,12.5402,41.8168,-0.6396,-0.1814,0.3659,329.5625
15:09:56:588,-0.3305,2.3079,13.5075,42.0393,-0.7165,-0.1283,0.3494,328.7656
15:09:56:607,0.5602,2.126,14.2687,42.0923,-0.8766,0.0299,0.2333,328.7656
15:09:56:628,0.7229,1.5754,15.4011,42.4122,-1.1233,0.2034,0.0012,328.4375
15:09:56:646,0.4286,0.1531,16.8018,42.9687,-1.2669,0.2724,-0.2895,328.1094
15:09:56:668,-0.5818,-1.6807,17.7691,43.2133,-1.1172,0.3005,-0.5033,328.1094
15:09:56:687,-2.059,-2.8825,17.2208,43.7883,-0.5919,0.4227,-0.4368,328.0312
15:09:56:706,-2.6121,-3.0093,14.7189,44.1729,0.2669,0.4838,0.0116,328.0312
15:09:56:726,-1.628,-2.193,11.5588,44.4701,1.1765,0.2834,0.62,328.125
15:09:56:746,-0.2922,-0.6607,8.8965,44.7144,1.7349,-0.0098,0.9902,328.125
15:09:56:771,0.8716,0.6488,6.7801,44.9659,1.8167,-0.2205,0.9963,327.7969
15:09:56:788,1.5826,1.0678,5.5184,44.9999,1.5541,-0.3818,0.7031,327.7969
15:09:56:807,1.4151,0.8764,5.4156,44.6468,1.1056,-0.4435,0.2682,327.0469
15:09:56:827,0.6703,0.6655,5.7386,44.2404,0.6255,-0.2578,-0.1161,326.9688
15:09:56:846,-0.1436,0.8979,5.7817,43.8576,0.2682,0.0629,-0.3586,326
15:09:56:872,-1.6041,1.4103,5.4084,43.4976,0.0593,0.2963,-0.6078,325.9062
15:09:56:952,-2.1117,1.4342,5.4227,43.0375,0.0293,0.248,-0.6481,324.9375
15:09:56:952,-2.1858,1.3908,5.9255,42.8266,-0.0226,0.1356,-0.62,324.8438
15:09:56:953,-1.8458,1.5754,6.6915,42.5947,-0.0599,-0,-0.5333,324.5312
15:09:56:953,-0.996,2.059,7.5604,42.4526,-0.0788,-0.0715,-0.4526,324.5
15:09:57:022,-0.3162,2.4993,8.2454,42.4767,-0.1234,-0.0086,-0.4704,325.0156
15:09:57:022,-0.5052,2.5041,8.6498,42.2152,-0.1888,0.08,-0.6023,325.0625
15:09:57:022,-1.6496,2.1954,9.1047,41.9037,-0.2352,0.0061,-0.7403,324.7969
15:09:57:039,-3.146,1.5299,10.2347,41.7407,-0.1912,-0.3873,-0.7562,324.7656
15:09:57:045,-4.3693,0.9601,11.6713,41.3274,0.0525,-0.9761,-0.5369,323.6875
15:09:57:068,-4.6253,0.874,12.5617,40.9285,0.4227,-1.331,-0.0403,323.5938
15:09:57:087,-2.9447,1.5706,12.3009,40.3479,0.7116,-1.207,0.6432,323.3125
15:09:57:106,-0.6583,3.39,11.98,39.8322,0.6835,-0.7214,1.135,323.3125
15:09:57:127,0.6129,5.0492,11.5851,39.2895,0.3665,-0.1142,1.0989,324.0781
15:09:57:146,-0.0048,5.2669,10.9122,39.2461,0.0586,0.2407,0.6341,325.2969
15:09:57:169,-1.2497,3.8809,11.0345,38.9706,-0.0562,0.1038,0.1301,325.2969
15:09:57:188,-1.8936,2.715,12.2387,38.5666,-0.0244,-0.2645,-0.124,326.6562
15:09:57:206,-1.7764,1.9152,13.2419,38.2759,0.1521,-0.4881,-0.1631,326.6562
15:09:57:226,-1.9008,1.6041,13.1315,38.0576,0.427,-0.4258,-0.1271,327.7188
15:09:57:246,-2.3222,2.2122,11.1446,37.7905,0.7074,-0.1991,-0.0593,327.7188
15:09:57:269,-2.15,2.4897,8.8798,37.6927,0.8558,-0.1344,-0.0244,328.8125
15:09:57:287,-1.6065,2.4179,7.7809,37.3775,0.7361,-0.2724,-0.0825,328.8125
15:09:57:305,-1.0487,2.3677,8.0441,37.0869,0.3812,-0.3378,-0.1912,330.2188
15:09:57:327,-1.0199,2.1141,8.7194,36.8596,0.0024,-0.1857,-0.3231,330.3594
15:09:57:346,-1.1348,1.6113,8.7769,36.5011,-0.1295,-0.0012,-0.4007,331.2188
15:09:57:370,-0.9147,0.7971,6.6532,36.6291,0.0202,-0.0134,-0.3005,331.2969
15:09:57:389,-1.2903,0.9601,6.9212,36.7185,-0.1203,-0.1967,-0.1863,330
15:09:57:408,-1.6184,1.4028,8.6856,36.8713,-0.2804,-0.3274,-0.0116,329.875
15:09:57:429,-1.4581,1.951,9.5501,36.7581,-0.1997,-0.259,0.1857,328.2188
15:09:57:447,-1.1611,2.4012,8.3459,36.8149,0.1014,-0.0953,0.3213,328.0469
15:09:57:467,-0.754,2.8872,6.8303,36.8405,0.339,-0.1026,0.3732,328.0312
15:09:57:490,-0.6966,3.4881,6.6269,36.8933,0.3464,-0.2871,0.3354,328.0156
15:09:57:506,-0.9075,3.4259,7.6684,36.923,0.2223,-0.485,0.2278,328.5156
15:09:57:526,-1.0941,3.1077,9.1765,36.68,0.1472,-0.6084,0.1368,328.5781
15:09:57:545,-1.4438,3.1747,9.9093,36.3348,0.2089,-0.6414,0.0922,329
15:09:57:571,-1.5849,3.2201,9.9141,35.9072,0.3115,-0.6805,0.0825,329.0469
15:09:57:589,-1.075,2.8609,10.4862,35.3455,0.3091,-0.8063,0.0715,329.6719
15:09:57:606,-0.2827,2.6264,11.0776,34.8423,0.1729,-0.8014,0.0428,329.6875
15:09:57:627,0.1842,2.4084,11.4748,34.3696,-0.1222,-0.5681,-0.0397,330.4688
15:09:57:645,0.1531,2.1212,12.3727,33.9998,-0.4813,-0.2431,-0.1521,331.2188
15:09:57:673,-0.2489,1.9487,12.6506,33.6544,-0.6341,0.0733,-0.1918,331.2188
15:09:57:687,0.0167,2.1595,11.4748,33.2607,-0.4832,0.2474,-0.1045,331.4219
15:09:57:707,1.0989,2.2433,9.8638,33.204,-0.2822,0.1655,-0.0244,331.4219
15:09:57:726,1.7979,1.8194,10.3424,33.3627,-0.3586,-0.0867,-0.1216,330.8906
15:09:57:746,1.4916,1.1563,12.2028,33.5853,-0.6127,-0.0788,-0.3054,330.8906
15:09:57:773,0.8596,0.7014,12.7439,33.9203,-0.667,0.2847,-0.361,330.2969
15:09:57:787,0.6679,0.2608,11.269,33.9961,-0.4655,0.6273,-0.2902,330.2969
15:09:57:806,0.778,0.1842,9.9715,34.0899,-0.223,0.6194,-0.1521,330.125
15:09:57:827,1.0128,0.6631,9.143,34.5623,-0.0544,0.4099,-0.0202,330.1094
15:09:57:846,1.0152,1.3143,8.5469,35.0522,-0.0024,0.2511,0.0238,330.1875
15:09:57:873,1.0941,1.6328,8.0943,35.2069,-0.0342,0.1698,-0.0024,330.2031
15:09:57:888,1.331,1.6639,7.7593,35.2815,-0.0904,0.099,-0.0605,330.375
15:09:57:909,1.1228,1.9223,7.8335,35.6809,-0.1649,0.0519,-0.1429,330.3906
15:09:57:928,0.687,2.8992,7.2565,35.8086,-0.2248,0.1179,-0.2169,330.5938
15:09:57:947,0.778,3.1292,7.0074,35.8786,-0.2291,0.215,-0.2975,330.625
15:09:58:013,0.4286,2.8298,8.1182,36.3046,-0.3928,0.0757,-0.6341,330.7344
15:09:58:013,-0.1579,2.3629,9.4687,36.1464,-0.4923,0.0342,-0.7556,330.7344
15:09:58:014,-0.8859,1.9343,10.3352,36.1544,-0.4276,0.0275,-0.7495,330.7812
15:09:58:026,-1.0917,1.6208,10.6442,36.126,-0.237,0.0226,-0.6041,330.7969
15:09:58:045,-0.8477,1.7285,10.4791,36.4527,-0.0476,0.0562,-0.3702,331.25
15:09:58:067,-0.3401,2.2816,10.2538,36.3881,0.0538,0.1014,-0.1588,331.2969
15:09:58:087,-0.2946,2.6767,10.8021,36.5485,0.0605,0.1106,-0.0599,331.5469
15:09:58:107,-0.3281,2.5953,11.3743,36.7342,0.1063,0.1332,-0.0122,331.5469
15:09:58:126,-0.4167,2.5522,11.5445,36.6896,0.2437,0.182,0.0415,331.4688
15:09:58:145,-0.6176,2.7963,10.9962,36.792,0.4142,0.2492,0.1148,331.5
15:09:58:167,-0.7014,3.213,10.2347,36.8471,0.5608,0.2547,0.1875,331.5
15:09:58:188,-0.7062,3.3541,9.6817,37.3808,0.6377,0.1961,0.2107,331.7969
15:09:58:206,-0.9697,3.256,9.3634,37.5763,0.609,0.1539,0.1839,331.7969
15:09:58:226,-1.4605,3.3039,9.4304,37.9146,0.4917,0.1032,0.1515,332.4844
15:09:58:246,-1.7142,3.481,9.7128,38.3111,0.3708,0.0403,0.1374,332.4844
15:09:58:273,-1.3669,3.6894,9.3969,38.834,0.2602,0.033,0.1057,333.8281
15:09:58:287,-0.874,3.4116,9.0879,39.0749,0.0531,-0.0354,-0.0299,333.8281
15:09:58:306,-0.3688,2.193,9.5572,39.4766,-0.234,-0.3433,-0.2523,335.1875
15:09:58:327,-0.6631,0.7684,12.9209,39.6117,-0.5357,-0.8509,-0.4862,335.1875
15:09:58:347,-1.5108,-0.0574,16.1842,39.3706,-0.5333,-0.9657,-0.5724,335.7188
15:09:58:373,-2.7604,-0.7277,14.9919,39.1145,-0.0611,-0.405,-0.4178,335.7812
15:09:58:387,-3.1507,-0.8477,11.3192,38.9299,0.5247,0.102,-0.0049,335.875
15:09:58:407,-2.4084,-0.1196,9.1717,38.7814,0.8027,0.1405,0.482,335.875
15:09:58:429,-0.297,1.2855,7.7689,38.6523,0.4478,0.2938,0.777,335.8281
15:09:58:447,-0.1101,1.3143,7.4025,38.765,0.1753,0.4991,0.6426,335.8125
15:09:58:472,-0.1388,1.3956,7.1345,38.7901,0.0403,0.5546,0.5327,335.6094
15:09:58:489,-0.3927,1.9199,6.7322,39.3036,0.0263,0.4679,0.4484,335.5938
15:09:58:506,-0.9505,2.581,7.1441,39.9196,0.0195,0.2792,0.3457,335.4531
15:09:58:526,-1.1731,2.7867,7.2661,40.6462,0.0727,0.1582,0.2578,335.4375
15:09:58:545,-1.3884,2.7437,6.7609,41.2917,0.1533,0.1148,0.201,335.3125
15:09:58:567,-1.3884,2.8322,7.0484,41.7915,0.1301,0.0134,0.1973,335.2969
15:09:58:586,-0.9362,3.0476,7.9627,42.2967,0.0232,-0.0593,0.2364,335.5781
15:09:58:606,-0.2154,3.2704,9.1741,42.5787,-0.0788,-0.0104,0.2364,335.5938
15:09:58:628,0.4167,3.3661,9.7391,43.0302,-0.0941,0.1509,0.1435,336.7031
15:09:58:646,-0.0167,3.2871,9.1741,43.4356,-0.0318,0.3005,-0.0464,337.2969
