Time,Acc_X,Acc_Y,Acc_Z,Meg,Gyr_X,Gyr_Y,Gyr_Z,Ore
10:49:46:584,0.0144,0.8883,9.9595,38.276,-0.0305,-0.0202,-0.1338,154.625
10:49:46:602,0.1484,0.941,9.7128,38.217,0.0226,-0.0672,-0.1228,154.625
10:49:46:620,0.3544,0.996,9.4615,38.1781,0.0452,-0.1093,-0.113,154.625
10:49:46:640,0.3736,1.0152,9.5429,38.1772,0.0189,-0.0684,-0.1234,154.625
10:49:46:659,0.3329,1.0582,9.7487,38.1207,-0.0287,0.0434,-0.1326,154.625
10:49:46:679,0.2177,1.0774,9.7415,38.4016,-0.0373,0.0702,-0.1393,154.625
10:49:46:698,0.3616,1.1013,9.7534,38.3823,-0.0165,-0.0067,-0.1313,154.625
10:49:46:719,0.6679,1.1396,9.8013,38.3264,-0.0122,-0.0104,-0.1161,154.625
10:49:46:739,0.5937,1.1922,9.5405,38.2699,-0.011,0.0513,-0.1338,154.625
10:49:46:759,0.4693,1.3932,9.3802,38.345,-0.0403,0.0293,-0.1429,154.625
10:49:46:779,0.5195,1.4198,9.4974,38.5506,-0.1075,-0.0599,-0.1258,154.625
10:49:46:799,0.9601,1.4198,9.8495,38.7007,-0.1582,-0.0892,-0.0996,154.625
10:49:46:819,1.2568,1.3573,9.9906,38.7946,-0.1417,-0.011,-0.102,154.625
10:49:46:839,1.276,1.4414,9.9236,38.5503,-0.058,0.0299,-0.1545,154.625
10:49:46:859,1.051,1.4868,9.3156,38.2919,0.0263,-0.0189,-0.2162,154.625
10:49:46:879,1.0678,1.5897,8.9372,38.5386,0.0098,-0.1179,-0.2425,154.625
10:49:46:898,1.0845,1.6926,9.1478,38.656,-0.1057,-0.1478,-0.2627,154.625
10:49:46:920,0.9864,1.7429,9.5955,38.6004,-0.237,-0.0757,-0.2773,154.625
10:49:46:939,0.8548,1.6615,10.0385,38.5286,-0.3097,-0.0073,-0.2718,154.8906
10:49:46:960,0.6559,1.6448,10.0313,38.4031,-0.2834,-0.0183,-0.2559,155.1875
10:49:46:980,0.5411,1.5945,9.696,38.4268,-0.1936,-0.146,-0.2419,155.1875
10:49:47:000,0.8572,1.7357,9.5644,38.6288,-0.1448,-0.2266,-0.2162,155.4688
10:49:47:022,1.1061,1.7572,9.5668,38.9029,-0.1759,-0.0971,-0.1802,155.4688
10:49:47:039,0.687,1.4653,9.3826,38.9136,-0.2114,0.033,-0.1735,155.7656
10:49:47:059,0.5363,1.4916,9.4304,39.1056,-0.2278,-0.0409,-0.1753,155.7656
10:49:47:079,0.6464,1.6352,9.6625,39.1502,-0.2712,-0.1252,-0.1704,156.0156
10:49:47:099,0.9051,1.7022,10.2156,39.2683,-0.3097,-0.1032,-0.1674,156.0469
10:49:47:120,0.821,1.4581,10.4049,39.3748,-0.2669,0.0165,-0.1558,156.3281
10:49:47:139,0.7158,1.3454,10.273,39.7462,-0.149,0.088,-0.1423,156.3438
10:49:47:160,0.7851,1.4533,9.9452,39.9299,-0.0507,-0.0165,-0.16,156.8125
10:49:47:180,1.1563,1.5203,10.1462,39.95,-0.0861,0.0495,-0.1698,156.8594
10:49:47:199,0.9601,1.3454,10.1103,39.9245,-0.058,0.0049,-0.1888,157.4531
10:49:47:222,1.0223,1.4868,10.7566,40.062,-0.0177,-0.0819,-0.2114,157.5
10:49:47:240,1.1755,1.5419,11.645,40.493,0.0061,0.0623,-0.2278,158.0938
10:49:47:260,0.9434,1.1252,12.023,40.472,0.1234,0.3305,-0.2297,158.3438
10:49:47:279,0.6248,0.7708,11.633,40.7356,0.3543,0.4447,-0.2126,160.3438
10:49:47:300,0.3353,0.6751,11.0919,40.5009,0.5449,0.3543,-0.2169,160.8125
10:49:47:323,0.7205,1.1061,10.8141,40.1667,0.5485,0.292,-0.2828,160.8125
10:49:47:341,0.9529,1.3502,10.8141,40.1901,0.4203,0.2663,-0.4154,160.8281
10:49:47:359,0.7875,1.3119,10.7638,40.1553,0.3146,0.0684,-0.5864,161.25
10:49:47:380,0.6894,1.2664,10.5126,40.2063,0.3011,-0.3604,-0.755,161.2969
10:49:47:399,0.4478,1.1444,9.9643,39.6767,0.3494,-0.8088,-0.8888,161.6875
10:49:47:424,0,0.7899,9.3849,39.8478,0.3592,-1.083,-0.8876,161.6875
10:49:47:440,-0.213,0.7445,8.9827,39.8404,0.2456,-1.1038,-0.6518,162
10:49:47:460,-0.1172,0.6679,9.3371,39.9271,-0.0073,-0.9303,-0.2975,162
10:49:47:480,-0.0191,0.3473,10.2515,40.2661,-0.2785,-0.5711,-0.0464,162.375
10:49:47:499,0.5076,0.3951,11.1757,40.39,-0.3164,-0.2584,0.0574,162.8125
10:49:47:524,0.8019,0.3855,10.7853,40.5799,-0.0421,-0.0629,0.0794,162.8125
10:49:47:540,0.6535,0.2177,9.6003,40.4213,0.2816,0.022,0.0116,163.2812
10:49:47:560,0.1292,0.1914,8.7386,40.9026,0.3696,0.091,-0.0947,163.2812
10:49:47:582,-0.309,0.4669,8.7027,41.1008,0.234,0.1295,-0.1417,163.6406
10:49:47:599,-0.1699,0.8453,9.1334,41.1019,0.0397,0.1271,-0.0434,163.6719
10:49:47:621,0.0359,0.7636,9.1908,41.1693,-0.0336,0.1014,0.0861,164.2969
10:49:47:640,0.0335,0.5554,8.5995,41.2194,-0.0318,0.0904,0.149,164.3594
10:49:47:659,0.0766,0.6775,8.1808,41.2929,-0.1136,0.0702,0.1594,165.7188
10:49:47:682,0.28,1.1468,8.7123,41.4007,-0.2614,0.0238,0.1448,165.8594
10:49:47:700,0.4621,1.276,9.5955,41.5376,-0.19,0.11,0.1625,167.7969
10:49:47:720,0.268,1.209,9.0305,41.2609,-0.022,0.1704,0.1362,168
10:49:47:740,0.0502,1.5275,8.4057,41.0125,0.0501,0.1985,0.1032,169.1562
10:49:47:759,0.055,1.9777,8.4416,41.0076,-0.0116,0.1802,0.1228,169.3906
10:49:47:779,0.1125,2.0782,8.9731,41.2223,-0.1264,0.1704,0.1942,169.3906
10:49:47:799,0.2225,1.9199,9.2052,41.4213,-0.1716,0.1607,0.2517,169.3125
10:49:47:823,0.285,1.8912,9.3849,41.4544,-0.2065,0.1381,0.2602,169.3125
10:49:47:841,0.1101,1.9032,9.6051,41.3635,-0.2627,0.0525,0.2315,169.2969
10:49:47:860,0.3329,1.9896,10.2658,41.3125,-0.3091,-0.1118,0.2315,169.5
10:49:47:881,0.5626,1.8697,11.0225,41.3562,-0.2926,-0.1698,0.2364,169.5
10:49:47:899,0.6296,1.7405,11.1039,41.5503,-0.1637,-0.1594,0.1894,169.4219
10:49:47:923,0.8091,1.8888,10.7495,41.7535,-0.0037,-0.1973,0.124,169.4219
10:49:47:941,0.9577,1.896,10.4432,41.4787,0.0996,-0.1936,0.0794,169.0781
10:49:47:960,1.0893,1.8051,10.2969,41.2397,0.1191,-0.1142,0.0617,169.0625
10:49:47:981,1.2712,1.5969,10.7614,41.517,0.0757,-0.0745,0.0489,168.7656
10:49:47:999,1.5108,1.5538,10.9819,41.536,0.0586,-0.0983,0.0275,168.4219
10:49:48:023,2.1236,1.6854,10.7758,41.5758,0.0812,-0.2223,0.0018,168.4219
10:49:48:041,2.557,1.4151,11.0704,41.7376,0.0421,-0.2871,-0.066,168.125
10:49:48:059,2.394,0.9434,11.5493,41.8018,-0.0342,-0.1173,-0.1778,168.125
10:49:48:082,1.9223,0.6703,11.6426,41.704,-0.0739,0.0574,-0.2834,167.6094
10:49:48:100,1.3167,0.3233,11.554,41.8721,-0.1014,-0.0434,-0.325,167.6094
10:49:48:121,1.2855,0.1579,11.9656,41.9285,-0.1454,-0.2981,-0.2963,167.125
10:49:48:140,1.9944,0.1914,12.5569,41.6807,-0.0953,-0.4093,-0.2541,167.0781
10:49:48:162,2.1739,-0.1316,12.2818,41.8904,0.1319,-0.2608,-0.2902,166.6562
10:49:48:181,1.8434,-0.3185,10.6777,42.018,0.4459,0.0116,-0.408,166.6094
10:49:48:201,1.6687,-0.1172,8.9539,42.2162,0.4997,0.3433,-0.5027,166.3281
10:49:48:225,1.7046,-0.0239,8.164,42.4434,0.2596,0.2462,-0.5149,166.3125
10:49:48:242,0.6894,-0.2369,8.6426,42.7269,0.0672,0.036,-0.4826,166.1719
10:49:48:259,0.4765,-0.0574,8.3865,42.7044,-0.0403,-0.1582,-0.3323,166.0938
10:49:48:279,0.917,0.28,8.5038,42.9076,-0.1784,-0.1539,-0.1289,166.0938
10:49:48:299,1.4028,0.2273,9.0544,43.3058,-0.3555,-0.0189,0.0476,166.1875
10:49:48:320,1.7859,0.0646,9.0808,43.6799,-0.3628,-0.0721,0.1014,166.1875
10:49:48:342,2.0566,0.2704,8.5205,43.9908,-0.2663,-0.204,0.0305,166.2031
10:49:48:360,1.8769,0.7301,8.8798,43.9328,-0.2132,-0.2431,-0.099,166.6719
10:49:48:433,1.8745,1.4605,8.4105,44.075,-0.102,-0.0507,-0.1747,166.7188
10:49:48:434,1.9968,1.506,8.5899,44.2969,0.0861,0.0263,-0.1814,167.4531
10:49:48:434,1.3478,1.1468,8.3363,44.7872,0.1637,0.1686,-0.212,167.4531
10:49:48:441,0.778,1.3023,7.1106,44.8893,0.2419,0.0965,-0.2327,168.1094
10:49:48:459,0.7325,1.817,6.5384,44.7946,0.0794,-0.135,-0.1649,168.1094
10:49:48:479,0.9123,1.9199,7.855,44.7221,-0.2981,-0.3207,-0.0165,168.9844
10:49:48:498,0.8524,1.6065,9.6793,44.6931,-0.4942,-0.3482,0.0922,170
10:49:48:520,0.5554,1.331,9.6745,44.9863,-0.4032,-0.2278,0.1484,170
10:49:48:539,2.1858,1.5778,11.001,44.9688,-0.3567,-0.1924,0.234,170.9062
10:49:48:559,1.3669,1.4988,11.9895,44.8491,-0.3097,-0.0617,0.1955,170.9062
10:49:48:580,1.8625,1.0391,12.8898,44.9142,-0.0275,0.0983,0.1674,171.0625
10:49:48:599,1.8984,0.7469,12.2291,45.0422,0.3451,0.4288,0.1472,171.0625
10:49:48:623,2.0447,1.0319,11.4269,45.1447,0.4722,0.6176,0.0715,170.9844
10:49:48:639,2.0614,0.8955,11.8316,45.2405,0.4154,0.6982,-0.0562,170.9844
10:49:48:660,1.3717,0.5459,12.1502,45.5582,0.4905,0.777,-0.1906,171.3125
10:49:48:680,0.4932,0.5267,11.3575,45.7147,0.5864,0.8955,-0.2297,171.3438
10:49:48:701,-0.553,0.6176,9.8085,45.9783,0.146,0.9175,0.0397,171.6875
10:49:48:722,-0.1627,0.0837,11.3839,46.0715,-0.3616,0.9694,0.2822,171.7344
10:49:48:738,0.9051,-0.3544,13.3567,46.4583,-0.6084,0.8857,0.4013,172.125
10:49:48:759,1.8529,-0.1101,13.73,46.6524,-0.339,0.5876,0.2614,172.1562
10:49:48:779,1.6854,0.1484,11.5612,47.0227,0.3439,0.1655,-0.0898,172.2031
10:49:48:799,0.8548,0.5841,8.7194,47.2636,0.89,-0.0623,-0.4105,171.9062
10:49:48:819,-0.8306,1.0008,6.6891,47.4031,0.9028,0.1478,-0.5577,171.9062
10:49:48:839,-2.6025,1.0152,6.1648,47.5499,0.4936,0.4893,-0.4985,171.875
10:49:48:859,-3.0909,0.8282,7.0074,47.7352,-0.0495,0.5858,-0.1704,171.5312
10:49:48:879,-2.193,0.4238,8.8152,48.0181,-0.5272,0.3793,0.2578,171.5
10:49:48:898,-0.9386,-0.1627,10.759,47.9813,-0.7513,0.0147,0.485,171.1094
10:49:48:919,-0.1316,-0.2874,11.3934,48.334,-0.6121,-0.2052,0.4441,171.0938
10:49:48:939,-1.2497,-0.0909,10.3065,48.4697,-0.2401,-0.1368,0.273,171.1719
10:49:48:960,-1.5993,1.051,8.3746,48.6899,0.066,0.1912,0.2162,171.1719
10:49:48:980,-1.1228,2.0806,6.5384,48.6811,0.1264,0.3916,0.4759,171.3438
10:49:48:998,-0.8378,1.6711,4.9822,48.8354,-0.1643,0.6157,0.6787,170.7812
10:49:49:019,-0.2034,1.2138,6.093,48.9665,-0.865,1.0641,0.7526,170.7812
10:49:49:039,-0.0263,1.4294,9.5524,49.3615,-1.5657,1.6805,0.73,169.8906
10:49:49:059,-0.6224,1.3214,12.1478,49.3271,-1.3207,1.5156,0.532,169.8906
10:49:49:079,-1.1468,0.9817,11.6928,49.2348,-0.3891,0.6872,0.3812,170.4062
10:49:49:098,-2.0351,0.4047,9.2363,49.0592,0.2822,0.0776,0.2547,170.4062
10:49:49:119,-2.1547,1.1013,8.1664,49.2454,0.2107,-0.2297,0.1619,171.4062
10:49:49:139,-1.8314,1.8888,10.0241,49.2531,-0.0898,-0.6872,0.1106,171.5
10:49:49:159,-1.3621,2.0399,11.3169,49.3433,-0.1173,-0.9144,0.1991,171.2969
10:49:49:179,-0.9529,1.8649,11.5035,49.1647,0.055,-0.7147,0.3433,171.2812
10:49:49:199,-0.7899,1.3262,11.6139,49.1015,0.1997,-0.394,0.3696,170.3594
10:49:49:222,-1.0654,0.5961,11.4126,49.4579,0.3372,-0.1216,0.2132,170.2656
10:49:49:241,-0.6535,0.4023,11.013,49.6321,0.2022,-0.2724,0.16,169.75
10:49:49:259,-0.0359,0.2393,11.3312,49.8366,0.0556,-0.6231,0.0385,169.7031
10:49:49:279,0.067,0.2728,11.4604,49.7808,-0.0043,-0.9407,-0.0666,168.4531
10:49:49:299,0.874,0.6368,11.5947,50.0268,-0.0055,-1.0781,-0.0971,168.3281
10:49:49:320,1.2305,0.6392,11.8866,50.1317,0.0623,-1.0079,-0.1863,166.5156
10:49:49:343,0.711,0.2704,11.9178,50.3029,0.182,-0.6713,-0.3286,166.3281
10:49:49:359,0.3568,0.1196,11.755,50.3978,0.3146,-0.2468,-0.3781,165.1406
10:49:49:380,-0.0144,0.0431,11.1541,50.1389,0.4172,0.0922,-0.3262,165.0312
10:49:49:399,-0.3401,-0.1603,10.1749,50.3887,0.4783,0.1258,-0.2089,164.6094
10:49:49:420,-0.2776,-0.1795,8.9922,50.5385,0.4184,-0.0147,-0.0507,164.6094
10:49:49:442,0.1053,-0.1029,8.2884,50.6067,0.1924,-0.1442,0.0965,164.375
10:49:49:461,0.8258,-0.0096,8.8247,50.7897,-0.1662,-0.1191,0.1949,164.375
10:49:49:480,1.2305,-0.1364,9.9954,50.83,-0.4306,0.0299,0.204,163.6875
10:49:49:499,1.008,-0.3425,10.1821,51.0766,-0.3806,0.1655,0.0971,163.2031
10:49:49:519,0.6416,-0.0885,9.2435,51.3207,-0.1289,0.1997,-0.0562,163.2031
10:49:49:541,0.5195,0.5052,7.9149,51.5554,0.1051,0.0947,-0.1558,163.0625
10:49:49:560,0.941,1.1468,7.1632,51.6906,0.1918,-0.0354,-0.1429,163.0625
10:49:49:582,1.1515,1.3573,6.8973,51.8608,0.1936,-0.0562,-0.1264,163.4219
10:49:49:599,0.6799,1.3693,6.6317,52.2058,0.1906,0.044,-0.182,163.4219
10:49:49:620,0.2536,1.6256,6.4424,52.4009,0.1539,0.0831,-0.1936,164.1406
10:49:49:641,0.6823,2.0495,6.8518,52.6306,0.044,-0.0373,-0.0721,164.1406
10:49:49:659,1.1898,1.8745,7.5006,52.8821,-0.0837,-0.171,0.066,164.8438
10:49:49:682,1.2329,1.4055,8.2884,52.8694,-0.1778,-0.1435,0.0898,164.9062
10:49:49:699,1.3286,1.4079,9.3132,53.2023,-0.2938,0.0092,0.0531,165.1719
10:49:49:721,1.4773,1.5945,10.8212,53.2984,-0.3555,0.0104,-0.011,165.1875
10:49:49:742,1.2903,1.4581,11.6545,53.5173,-0.2291,-0.0214,-0.0849,164.9219
10:49:49:762,0.1053,0.7923,12.2818,53.4831,0.0367,0.2126,-0.1881,164.9062
10:49:49:781,-0.1675,0.4932,12.5689,53.5729,0.102,0.2132,-0.1533,164.5781
10:49:49:800,0.1842,0.364,11.5277,53.7467,0.27,0.0641,-0.077,164.5625
10:49:49:819,0.6009,0.2106,9.9906,53.7796,0.2676,-0.0208,-0.0342,164.7344
10:49:49:842,0.6368,0.1675,9.4663,53.8218,-0.11,0.0715,-0.0861,164.7656
10:49:49:859,-0.0837,-0.1412,10.7925,53.774,-0.6866,0.2523,-0.1924,165.0312
10:49:49:879,-1.3597,-0.8596,13.1818,53.9656,-1.0562,0.4251,-0.2217,165.0625
10:49:49:899,-1.573,-1.4725,14.0821,53.9444,-0.9694,0.3628,-0.0672,165.4219
10:49:49:919,-0.3975,-1.2018,13.5242,54.2218,-0.5858,-0.0696,0.1008,165.4531
10:49:49:944,0.9721,-0.5411,12.1693,54.2806,-0.0513,-0.6805,0.0409,165.4844
10:49:49:960,1.1204,-0.2154,10.8428,54.6465,0.4129,-0.8051,-0.223,165.4844
10:49:49:981,-0.6799,-0.6176,9.6721,54.8693,0.6396,-0.27,-0.5137,165.3438
10:49:49:999,-2.959,-0.6464,8.7697,55.1445,0.5895,0.4001,-0.6072,165.4688
10:49:50:019,-4.2329,-0.1986,8.4918,55.556,0.3402,0.6768,-0.3219,165.4688
10:49:50:043,-3.603,0.0263,8.7099,55.6298,0.0024,0.4777,0.2682,165.8125
10:49:50:060,-1.4653,-0.0191,9.3586,55.8521,-0.2449,-0.0593,0.8008,165.8125
10:49:50:081,0.3544,0.0598,9.6458,56.0257,-0.2718,-0.4716,0.9609,166.0312
10:49:50:100,0.7469,0.4214,9.0281,56.3543,-0.1026,-0.532,0.7959,166.0312
10:49:50:120,0.0431,0.8115,8.2143,56.5091,0.1008,-0.3622,0.5675,166.1719
10:49:50:143,-0.2273,1.2664,7.8814,56.6406,0.2169,-0.0507,0.5143,166.1719
10:49:50:159,0.0885,1.5084,7.5918,56.8961,0.328,0.2486,0.6023,166.5156
10:49:50:180,0.6966,1.4174,6.8638,56.9347,0.4178,0.4728,0.6322,166.5625
10:49:50:199,0.9458,1.6639,6.3132,57.174,0.3592,0.5931,0.5223,166.5
10:49:50:219,0.6105,1.8721,6.5216,57.509,0.1087,0.5394,0.3708,166.4844
10:49:50:243,0.2465,1.4916,9.8782,57.6775,-0.4887,-0.0898,0.3073,166.7656
10:49:50:262,0.7493,1.4028,11.4796,57.6945,-0.4777,-0.3549,0.2627,166.7812
10:49:50:280,1.1396,1.4414,12.0736,57.8962,-0.284,-0.3873,0.168,167.8906
10:49:50:299,1.5251,1.4844,11.9871,57.9131,-0.0409,-0.3354,0.0275,168
10:49:50:319,1.8147,1.4821,12.1478,58.009,0.1173,-0.1967,-0.1026,167.9844
10:49:50:343,1.5562,1.0271,12.0159,58.3468,0.2682,-0.0354,-0.2425,167.9688
10:49:50:359,1.2114,0.7804,11.9824,58.5274,0.3525,0.0739,-0.372,166.2656
10:49:50:379,1.3836,0.9864,11.4628,58.8363,0.3787,0.1026,-0.4679,166.0938
10:49:50:400,1.7477,1.142,10.7782,59.2761,0.3488,-0.0586,-0.5644,164.7812
10:49:50:419,1.4749,0.6775,10.4671,59.682,0.1912,-0.2627,-0.6389,164.6562
10:49:50:445,0.577,-0.1795,11.2953,59.7718,-0.1429,-0.212,-0.6133,163.4062
10:49:50:504,-0.0048,-1.1228,12.964,60.2161,-0.4728,-0.08,-0.4911,163.3906
10:49:50:504,0.5674,-1.276,14.5633,60.7177,-0.5406,0.0092,-0.3635,162.0156
10:49:50:505,1.7429,-0.8453,14.592,60.9975,-0.2138,0.0959,-0.3152,161.1719
10:49:50:519,1.9944,-0.7588,12.4612,61.5737,0.3977,0.1277,-0.4673,161.1719
10:49:50:541,0.9386,-0.8163,9.5524,61.7571,0.8027,0.3054,-0.6909,160.5781
10:49:50:559,-0.0383,-0.3832,7.9388,62.2203,0.6915,0.4942,-0.7513,160.5781
10:49:50:579,-0.6535,-0.0814,7.8622,62.5338,0.2511,0.471,-0.6225,160.4219
10:49:50:600,-0.7397,-0.2465,8.9276,63.0281,-0.1942,0.2291,-0.3952,160.4219
10:49:50:620,-0.3042,-0.3592,9.7917,63.3021,-0.3854,-0.0635,-0.2205,160.8125
10:49:50:641,0.2441,-0.2106,9.8542,63.5151,-0.2767,-0.2498,-0.1753,160.8125
10:49:50:659,1.0558,0.2249,9.3491,63.8417,0.025,-0.2633,-0.2297,161.7188
10:49:50:679,1.2114,0.4071,8.2358,64.0286,0.3671,-0.1008,-0.347,161.7188
10:49:50:699,0.5148,0.5339,7.0508,64.353,0.6243,0.1106,-0.5039,162.9375
10:49:50:719,0.0359,1.008,5.8798,64.3789,0.6994,0.2614,-0.5479,163.0625
10:49:50:741,0.2946,1.6998,5.6668,64.7142,0.5864,0.2291,-0.4624,164.2031
10:49:50:760,0.7421,2.0423,5.7936,64.896,0.2633,0.1759,-0.2223,164.3125
10:49:50:780,0.6607,1.6376,6.9021,65.2813,-0.0018,0.2828,-0.1863,165
10:49:50:798,-0.0239,1.494,8.2837,65.4079,-0.2657,0.3256,-0.1814,165.0625
10:49:50:819,-0.5865,1.4892,9.8375,65.4988,-0.4129,0.1332,-0.1222,166.1875
10:49:50:842,-0.1938,1.5802,11.1541,65.5314,-0.4184,-0.0953,0.0458,166.2969
10:49:50:859,0.3999,1.2784,12.0879,65.6816,-0.3543,-0.0892,0.19,167.5938
10:49:50:879,0.3808,1.0056,12.8563,65.7823,-0.2663,0.0354,0.1918,167.7188
10:49:50:900,-0.0933,0.7421,13.0573,65.7498,-0.1008,0.0715,0.1032,168.3281
10:49:50:919,-0.3257,0.4334,12.6817,65.9207,0.1136,0.0116,0.0464,168.375
10:49:50:942,-0.0359,0.1819,11.7909,66.0735,0.2865,0.0397,0.044,168.875
10:49:50:959,0.431,0.2608,10.9074,66.2824,0.2957,0.1435,-0.0116,168.875
10:49:50:979,0.297,0.309,10.5221,66.5822,0.1448,0.1839,-0.1729,169.8281
10:49:50:999,-0.4478,0.1244,10.3448,66.879,-0.0812,0.0898,-0.3922,170.9062
10:49:51:020,-1.774,-0.2898,10.0385,67.0915,-0.3128,-0.0965,-0.4923,170.9062
10:49:51:042,-2.3079,-0.3832,10.3519,67.4199,-0.584,-0.3335,-0.3409,171.4844
10:49:51:059,-1.2281,0.0359,11.3527,67.7093,-0.7513,-0.6854,-0.0458,171.4844
10:49:51:080,-0.189,-0.0526,11.9369,67.7209,-0.6115,-0.8509,0.1136,171.7969
10:49:51:098,-0.5961,-0.4741,11.7981,67.6745,-0.2566,-0.5437,0.0556,171.7969
10:49:51:119,-1.6208,-0.4765,10.8547,67.748,0.0623,0.0977,-0.033,171.8594
10:49:51:143,-3.0452,-0.5171,9.8181,67.9497,0.171,0.5595,0.0373,171.8594
10:49:51:159,-3.603,-0.5554,9.0497,67.9295,0.0476,0.5003,0.3372,171.4219
10:49:51:180,-2.2074,-0.3544,8.796,67.7537,-0.2065,0.0018,0.7678,171.4219
10:49:51:199,-0.3066,-0.1053,9.1238,67.6345,-0.4025,-0.5382,1.0293,171.2656
10:49:51:219,0.9434,0.1292,9.0233,67.4088,-0.3518,-0.7465,1.0079,171.25
10:49:51:240,0.8572,0.1172,8.5612,67.3869,-0.1417,-0.5546,0.7746,171.2188
10:49:51:259,0.268,0.4813,8.0201,67.454,0.0281,-0.1454,0.5528,171.2188
10:49:51:282,-0.1292,0.874,6.8088,67.4792,0.014,0.19,0.5308,171.75
10:49:51:299,0.1005,0.9386,7.381,67.142,-0.1991,0.0599,0.5992,171.7969
10:49:51:320,0.4167,0.9745,8.2071,66.9329,-0.3573,-0.11,0.6194,172.6562
10:49:51:339,0.8067,1.0343,9.2483,66.8478,-0.4496,-0.1668,0.6157,172.7344
10:49:51:363,0.8955,0.9147,10.1725,66.698,-0.4386,-0.1081,0.5479,172.7812
10:49:51:379,0.9745,0.8812,10.6825,66.7657,-0.3262,-0.0189,0.4441,172.7812
10:49:51:400,1.2616,0.9194,11.0536,66.8174,-0.1747,-0.0024,0.3244,172.7969
10:49:51:420,1.276,1.0654,11.4054,66.6502,-0.0086,-0.0538,0.1765,172.7969
10:49:51:444,1.2329,1.0941,11.6952,66.5856,0.1607,-0.0654,0.0489,172.3281
10:49:51:463,1.3119,0.9434,12.035,66.6479,0.2669,0.0214,-0.0232,172.2969
10:49:51:480,1.5251,0.7421,12.3559,66.8083,0.3433,0.1228,-0.0898,170.3594
10:49:51:500,1.8817,0.699,12.3464,67.0899,0.471,0.1833,-0.201,168.5
10:49:51:521,2.0901,0.7971,11.6928,67.1848,0.617,0.2169,-0.3464,168.5
10:49:51:545,2.0183,1.0104,10.7614,67.184,0.6347,0.2052,-0.5046,167.3438
10:49:51:564,1.252,0.8091,10.3113,67.2259,0.4642,0.0916,-0.6243,167.3438
10:49:51:580,-0.1436,0.1962,10.57,67.2568,0.1124,-0.0226,-0.6078,166.0781
10:49:51:599,-0.5794,-0.3927,12.0326,66.8978,-0.3799,-0.0928,-0.3946,166.0781
10:49:51:620,-0.0167,-1.0774,13.6893,66.3934,-0.6383,-0.358,-0.1655,164.75
10:49:51:641,1.276,-1.0319,13.6822,66.3702,-0.4074,-0.62,-0.102,164.75
10:49:51:661,2.5642,-0.4214,11.9225,66.2657,0.1362,-0.6518,-0.2309,163.6562
10:49:51:680,2.6647,-0.2225,9.6697,66.0826,0.6017,-0.3354,-0.485,163.6562
10:49:51:699,1.1994,-0.3712,7.9579,65.8527,0.7361,0.1936,-0.7287,163.1562
10:49:51:720,-0.3975,-0.2082,6.8997,65.7768,0.5308,0.4667,-0.791,163.1094
10:49:51:740,-1.1803,0.1364,6.9284,65.7929,0.0586,0.2932,-0.5846,163.0781
10:49:51:763,-0.9625,-0.0048,7.8909,65.8938,-0.4618,-0.1643,-0.2413,163.0781
10:49:51:783,0.2632,-0.2946,9.1956,66.3218,-0.8417,-0.5308,0.0562,163.3438
10:49:51:801,1.3669,-0.5004,10.5867,66.1982,-0.9804,-0.6133,0.1442,163.3594
10:49:51:821,1.9582,-0.5148,11.4054,65.93,-0.7929,-0.4416,0.0244,164.1719
10:49:51:839,1.4605,-0.0957,9.294,66.0011,0.2004,0.1222,-0.4838,164.2656
10:49:51:859,1.1085,0.3473,7.4982,66.2376,0.4985,0.2169,-0.5944,165.4844
10:49:51:880,0.9649,0.6846,6.5527,66.0842,0.5076,0.2193,-0.5827,165.6094
10:49:51:899,0.6679,0.8668,6.44,65.8501,0.3299,0.2303,-0.5168,166.2188
10:49:51:920,0.5052,1.075,6.7035,65.7329,0.0916,0.1765,-0.4123,166.2656
10:49:51:940,0.8091,1.2879,7.4049,65.3274,-0.1313,-0.0134,-0.2847,166.7031
10:49:51:963,1.4055,1.3908,8.7769,65.1923,-0.2926,-0.1173,-0.1826,166.75
10:49:51:980,1.3406,1.2449,9.641,65.0148,-0.295,-0.014,-0.1741,168.0781
10:49:51:998,0.6033,0.9936,9.9045,64.9061,-0.2431,0.124,-0.2138,169.5156
10:49:52:020,0.0814,1.0152,10.7399,64.4832,-0.2938,0.1765,-0.1839,169.5156
10:49:52:041,0.0072,1.142,11.8531,64.1057,-0.3225,0.1435,-0.0751,169.7969
10:49:52:064,0.4286,1.0558,12.0903,64.0993,-0.1985,0.0263,0.0428,169.7969
10:49:52:083,0.9075,1.0175,11.8866,64.0753,-0.0165,-0.0861,0.0806,169.7344
10:49:52:100,1.1539,1.0056,11.5373,64.1211,0.1741,-0.0293,0.0324,169.7344
10:49:52:121,1.3286,1.13,10.9843,64.0526,0.3555,0.1301,-0.0287,170.5312
10:49:52:146,1.4246,1.3238,10.1055,63.9856,0.5308,0.2095,-0.0825,170.5312
10:49:52:164,1.3143,1.3382,9.4974,63.698,0.6078,0.3005,-0.1118,171.6562
10:49:52:180,1.0415,0.9912,9.6075,63.6509,0.5015,0.4728,-0.1222,171.7656
10:49:52:200,0.6631,0.8163,10.6394,63.5224,0.3036,0.5907,-0.1417,172.75
10:49:52:220,0.3784,0.6081,11.0871,63.3169,0.2614,0.4526,-0.1668,172.75
10:49:52:241,0.1627,0.3377,10.084,63.2632,0.3329,0.146,-0.1949,173.2344
10:49:52:265,-0.0263,0.2369,9.2892,63.1735,0.1955,-0.022,-0.1961,173.2812
10:49:52:282,-0.3497,-0.364,10.7758,63.0079,-0.642,-0.0452,0.0079,173.6719
10:49:52:302,0.4932,-0.1723,12.1047,62.9764,-0.7379,-0.3091,0.1112,173.7188
10:49:52:323,1.1396,-0.0096,11.688,63.0853,-0.3879,-0.5669,0.069,173.9844
10:49:52:339,0.7708,-0.2994,10.5006,62.9819,0.0428,-0.4991,-0.0819,173.9844
10:49:52:359,-0.2154,-0.443,9.6458,63.042,0.2065,0.0067,-0.2181,173.8594
10:49:52:381,-1.4749,-0.3736,9.1765,62.8551,0.1155,0.5046,-0.2358,173.8594
10:49:52:399,-2.15,-0.3712,9.1932,63.0945,-0.1442,0.5534,-0.0562,173.8438
10:49:52:419,-1.2497,-0.1986,9.7846,63.0309,-0.4319,0.1411,0.2529,173.8438
10:49:52:439,0.3855,0.1029,10.4671,62.8582,-0.5412,-0.3366,0.449,174
10:49:52:463,1.4533,0.2827,10.4767,62.6727,-0.3799,-0.507,0.3977,174.2188
10:49:52:482,1.5275,0.5124,9.5812,62.5535,-0.0764,-0.3561,0.157,174.2188
10:49:52:500,0.8835,0.9147,8.5636,62.4118,0.1448,-0.0721,-0.0745,174.5625
10:49:52:581,0.1053,1.1611,8.4248,62.4403,0.2016,0.1038,-0.1478,174.5625
10:49:52:582,-0.2393,1.1396,9.0568,62.4339,0.1949,0.1161,-0.077,174.9375
10:49:52:582,0.0742,1.1731,9.507,61.7629,0.2419,0.0073,0.0354,174.9375
10:49:52:587,0.4023,1.3836,9.3227,61.6466,0.3164,-0.1558,0.08,174.8125
10:49:52:598,0.7397,1.6041,9.3802,61.6111,0.3311,-0.295,0.0874,174.8125
10:49:52:620,0.6583,1.5395,10.2658,61.6698,0.284,-0.2358,0.102,174.9062
10:49:52:639,0.2536,1.628,11.0489,61.5538,0.3433,0.077,0.1167,174.9062
10:49:52:662,0.3832,1.6998,11.0871,61.5674,0.5724,0.4862,0.1759,175.375
10:49:52:679,0.8258,1.5323,10.6561,61.6684,0.791,0.8063,0.2492,175.375
10:49:52:698,1.0678,1.2138,10.5939,61.8527,0.8827,0.8723,0.2364,175.0938
10:49:52:720,1.0869,1.1444,10.6107,62.085,0.8796,0.7104,0.1356,175.0938
10:49:52:739,1.0175,1.3167,10.4767,62.3646,0.8216,0.4111,0.0098,174.2969
10:49:52:761,1.0032,1.6711,9.9882,62.2187,0.7526,0.0403,-0.1173,174.2188
10:49:52:779,0.5818,1.5586,9.4687,62.4377,0.6774,-0.339,-0.2358,174.1562
10:49:52:799,-0.2728,0.7971,9.3682,62.5268,0.4099,-0.2755,-0.2541,174.1406
10:49:52:821,-1.2544,-0.5818,13.6152,62.6365,-0.6756,0.3793,-0.0904,174.3594
10:49:52:839,-0.2489,-0.134,14.1706,62.5755,-0.5565,-0.0501,-0.0458,174.375
10:49:52:861,0.9577,0.4693,11.8555,62.6361,0.0837,-0.606,-0.0904,174.2812
10:49:52:878,1.5849,0.8186,8.566,62.8077,0.6035,-0.6713,-0.1857,174.2656
10:49:52:899,1.5347,0.984,6.5958,62.9189,0.5614,-0.1704,-0.2553,174.125
10:49:52:919,0.7899,0.8979,6.44,63.3909,0.0928,0.4209,-0.3011,174.0938
10:49:52:939,0.268,0.766,7.8311,63.2954,-0.4844,0.5944,-0.2743,173.7656
10:49:52:961,0.2922,0.6511,9.4448,63.3394,-0.846,0.2535,-0.204,173.1094
10:49:52:979,0.7301,0.7349,10.6107,63.4846,-0.8876,-0.2285,-0.1582,173.1094
10:49:52:999,0.9553,0.6679,10.8643,63.334,-0.6475,-0.4838,-0.1881,172.7969
10:49:53:020,1.2138,0.7301,11.3073,63.2826,-0.2724,-0.3347,-0.2639,172.7969
10:49:53:039,1.3836,1.0606,10.7901,63.4153,0.2089,0.1979,-0.3573,173.2656
10:49:53:062,0.7229,1.2377,9.3443,63.2763,0.7691,0.6194,-0.4673,173.2656
10:49:53:079,0.3377,1.5299,7.9005,63.2695,1.1795,0.6506,-0.5119,173.7656
10:49:53:099,0.4765,2.0255,6.6939,63.3007,1.3139,0.4062,-0.4887,173.7656
10:49:53:120,0.6703,2.5113,6.0452,63.3519,1.2437,-0.0232,-0.4276,173.8281
10:49:53:139,0.8354,2.7221,6.4137,63.2836,1.0952,-0.4423,-0.2981,173.8281
10:49:53:162,0.7325,2.703,5.8869,63.4089,0.7416,-0.3592,-0.1735,173.8281
10:49:53:179,0.3305,2.7843,6.3778,63.4192,0.1344,-0.2211,-0.1264,174.3281
10:49:53:198,0.7899,2.9853,8.9755,63.3585,-0.4991,-0.3085,-0.0867,174.9219
10:49:53:219,1.1563,2.6815,11.6091,63.4447,-0.8589,-0.2333,-0.0715,174.9219
10:49:53:240,0.7373,1.9872,13.4764,63.6105,-0.755,-0.0367,-0.1045,175.25
10:49:53:262,0.2584,1.6591,13.7109,63.7733,-0.3079,0.1735,-0.1533,175.2812
10:49:53:279,0.3568,1.9558,13.5912,63.851,0.1698,0.3018,-0.2187,175.6719
10:49:53:299,0.4406,2.004,12.8372,63.8953,0.5088,0.4478,-0.2902,175.7031
10:49:53:320,0.4454,2.2457,12.1693,64.1367,0.664,0.6396,-0.2969,176.3438
10:49:53:340,-0.5195,2.394,11.3025,64.2194,0.6939,0.7526,-0.3274,176.4062
10:49:53:362,-2.4802,1.8027,9.5285,64.2135,0.4203,0.4294,-0.3005,177.3125
10:49:53:380,-2.3629,1.6472,10.3615,64.2445,0.1515,0.2443,-0.1735,177.3906
10:49:53:400,-1.6256,1.8147,11.403,64.1661,-0.1106,0.2107,-0.0018,178.375
10:49:53:419,-0.9984,1.8936,11.5636,64.1634,-0.1906,0.0489,0.1429,178.4688
10:49:53:439,-1.0104,1.6184,11.0584,64.1085,0.0031,-0.2755,0.1668,179.1562
10:49:53:464,-1.4198,1.5275,9.8782,64.2899,0.3421,-0.3354,0.1362,179.2188
10:49:53:482,-1.6496,1.841,8.8128,64.5042,0.576,-0.1142,0.1045,179.5156
10:49:53:499,-2.2289,1.9319,7.9938,64.5438,0.6121,0.1081,0.0831,179.7188
10:49:53:520,-1.9439,2.1236,7.9101,64.8967,0.4429,0.2291,0.2016,179.7188
10:49:53:539,-1.5203,2.2217,8.0154,64.938,0.1234,0.2523,0.3806,180.0469
10:49:53:559,-1.209,2.1284,7.9412,64.9402,-0.1655,0.0232,0.4606,180.0469
10:49:53:580,-0.9888,2.1428,7.7689,65.1918,-0.2895,-0.3653,0.4221,180.5781
10:49:53:599,-0.984,2.3821,7.2829,65.5182,-0.3128,-0.5528,0.3488,180.5781
10:49:53:620,-0.7493,2.7293,7.29,65.713,-0.3867,-0.4704,0.3311,181.1094
10:49:53:640,-0.0502,2.916,7.57,65.6124,-0.4985,-0.2517,0.3641,181.1562
10:49:53:659,0.0526,2.782,7.9484,65.7323,-0.5608,-0.0599,0.394,181.1719
10:49:53:681,-0.0598,2.8944,8.8104,65.605,-0.584,0.0476,0.3922,181.5938
10:49:53:700,-0.0502,2.9207,8.9133,65.5886,-0.5516,0.0928,0.325,181.375
10:49:53:720,0.2082,2.8801,9.6577,65.6394,-0.449,-0.0263,0.2468,181.375
10:49:53:741,0.4549,2.6934,10.503,65.6391,-0.2773,-0.0819,0.1857,181.1875
10:49:53:759,0.8716,2.5307,10.8811,65.6656,-0.0305,-0.066,0.1222,181.1875
10:49:53:781,1.0008,2.6001,10.3017,65.5195,0.237,-0.1087,0.0293,181.0938
10:49:53:799,0.8186,3.0909,10.1222,65.6609,0.3323,-0.3005,-0.0483,181.0781
10:49:53:822,0.7828,3.4642,10.4025,65.7934,0.2614,-0.2865,-0.0977,180.4531
10:49:53:841,0.2776,3.6317,10.4527,66.002,0.3366,-0.0134,0.0067,180.3906
10:49:53:865,0.8835,3.9814,10.7997,65.9922,0.4514,-0.0696,0.1307,179.5312
10:49:53:884,-0.2417,2.2816,12.6072,66.1231,0.7214,-0.4087,0.1631,179.4531
10:49:53:899,0.5554,2.7915,11.9465,66.1291,0.9291,-0.2175,0.2315,178.9062
10:49:53:919,1.1085,3.3446,11.7861,66.2648,1.0116,-0.1442,0.0886,178.8594
10:49:53:939,0.8955,3.2465,10.8954,66.0167,1,-0.1668,-0.168,178.0938
10:49:53:960,0.754,2.8753,9.5548,65.9379,0.8405,-0.1973,-0.3036,178.0156
10:49:53:982,1.3406,2.8513,8.9539,65.8503,0.4331,-0.1155,-0.2798,177.2344
10:49:54:000,1.506,2.6456,9.2916,65.6955,-0.0843,-0.0159,-0.3402,176.6875
10:49:54:019,1.2018,2.2504,10.1222,65.798,-0.4282,-0.1539,-0.5424,176.6875
10:49:54:039,1.063,1.992,10.0026,65.9713,-0.4832,-0.3323,-0.7006,176.5156
10:49:54:060,1.1515,1.9056,9.6386,66.0064,-0.394,-0.3812,-0.7746,176.5156
10:49:54:083,0.8548,1.7668,8.9659,65.7594,-0.284,-0.1368,-0.8118,176.5156
10:49:54:100,0.3066,1.8817,8.9707,66.1222,-0.2572,0.08,-0.7935,176.7969
10:49:54:120,0.4621,1.9657,9.1837,66.2067,-0.3335,0.1698,-0.6915,176.8125
10:49:54:140,0.6942,1.8218,8.621,66.5128,-0.3726,0.0654,-0.62,176.9688
10:49:54:161,0.9338,1.9582,7.6899,66.599,-0.3415,-0.2694,-0.664,176.9688
10:49:54:182,0.8859,2.2792,7.0388,66.6317,-0.3586,-0.5944,-0.752,176.7812
10:49:54:199,0.9099,2.6432,7.5293,66.5449,-0.4288,-0.6408,-0.7666,176.5781
10:49:54:221,1.0965,2.715,8.1063,66.6889,-0.394,-0.4221,-0.6591,176.5781
10:49:54:241,1.1707,2.7341,7.7258,66.8904,-0.1607,-0.1802,-0.5424,177.2344
10:49:54:259,1.0606,2.6456,6.8255,66.8254,0.0415,-0.025,-0.4777,177.2344
10:49:54:282,1.0798,2.7269,7.1034,66.8564,-0.0043,-0.0104,-0.4551,177.8906
10:49:54:300,1.0247,2.8346,8.0345,66.592,-0.2022,-0.0086,-0.4661,177.9531
10:49:54:320,0.9266,2.8322,8.8678,66.6612,-0.2834,-0.0861,-0.449,179.2812
10:49:54:339,0.565,2.9925,8.875,66.8371,-0.2926,-0.1796,-0.4502,179.4062
10:49:54:360,0.5148,3.1196,9.5644,66.8092,-0.4019,-0.2932,-0.4227,181.0938
10:49:54:383,0.5435,2.6432,11.8795,66.3628,-0.5241,-0.3983,-0.3573,181.25
10:49:54:399,0.5554,2.3605,12.5521,66.146,-0.427,-0.2162,-0.2327,182.6719
10:49:54:420,0.498,2.0423,12.3918,65.9719,-0.2614,-0.1124,-0.1985,182.8125
10:49:54:439,0.364,1.9777,11.2834,65.7956,-0.1179,-0.1155,-0.1942,184.125
10:49:54:460,0.4765,2.1595,10.5556,65.6803,-0.1735,-0.2175,-0.1509,184.25
10:49:54:480,-0.1316,1.9295,10.1964,65.2515,-0.3628,-0.3128,-0.088,185.9688
10:49:54:500,-0.8234,1.3573,10.6585,64.8861,-0.5907,-0.1918,0.0666,187.4219
10:49:54:519,-0.3162,0.5865,12.5809,64.615,-0.7855,0.0116,0.3183,187.4219
10:49:54:538,1.3334,0.6368,13.7037,64.6464,-0.6707,-0.0489,0.4881,188.5938
10:49:54:559,1.8625,0.7923,12.7319,64.462,-0.2132,-0.3653,0.3812,188.5938
10:49:54:580,0.9194,0.6894,10.704,64.4233,0.212,-0.3702,0.1069,189.5156
10:49:54:634,-0.0431,0.9027,9.3395,64.1036,0.3152,-0.0012,-0.0538,189.6094
10:49:54:635,-0.9769,0.9194,9.2677,63.8678,0.1686,0.3427,-0.0428,189.6094
10:49:54:639,-1.1444,0.8716,9.6386,63.7603,0.0031,0.383,0.1148,190.625
10:49:54:659,-0.6033,0.699,9.7917,63.6648,-0.0678,0.1368,0.3054,190.6406
10:49:54:679,0.2752,0.6272,9.6601,63.5029,-0.0556,-0.113,0.3769,191.4531
10:49:54:698,0.4813,0.9099,9.373,63.4467,-0.0391,-0.1613,0.2889,191.9688
10:49:54:719,0.1938,1.3884,9.0544,63.3625,-0.0244,-0.088,0.1826,191.9688
10:49:54:739,0.0981,1.6376,8.6569,63.2317,0.0849,-0.0049,0.201,192.3906
10:49:54:760,0.431,1.8601,7.8861,63.2709,0.2511,0.1387,0.2761,192.3906
10:49:54:782,0.7086,2.0758,7.0122,63.2975,0.3421,0.2541,0.2987,192.4531
10:49:54:799,0.6607,2.2098,6.5815,63.1462,0.2743,0.2517,0.281,192.4531
10:49:54:821,0.4669,2.2792,7.0388,62.7994,0.0947,0.2223,0.259,191.625
10:49:54:839,0.711,2.4993,7.8048,62.7245,-0.0916,0.259,0.2596,191.5469
10:49:54:860,0.7971,2.6097,8.5684,62.4626,-0.168,0.1655,0.2132,191.1406
10:49:54:881,0.6559,2.5666,9.0066,62.4242,-0.1894,-0.1991,0.1338,191.1094
10:49:54:899,0.9314,2.5786,9.8758,62.2738,-0.2877,-0.3818,0.1564,191.1562
10:49:54:919,1.3167,2.6575,11.0249,61.9005,-0.3134,-0.3696,0.1472,191.1719
10:49:54:939,1.4004,2.6288,11.7096,61.6304,-0.1478,-0.3995,0.1203,190.6875
10:49:54:959,1.963,2.4491,11.9345,61.3609,0.0886,-0.4203,0.0831,190.6406
10:49:54:982,2.3605,2.2193,11.7191,61.2868,0.2761,-0.1509,0.0055,190
10:49:54:999,2.3342,2.0207,10.9723,61.0506,0.4331,0.0684,-0.1069,189.5625
10:49:55:019,1.9175,1.9247,9.8013,60.7816,0.4447,0.0208,-0.1881,189.5625
10:49:55:039,2.0901,2.0183,9.6793,60.3171,0.1723,-0.2688,-0.2291,189.5312
10:49:55:059,2.6671,1.8123,11.0225,59.9036,-0.2205,-0.4661,-0.2144,188.8594
10:49:55:081,2.9925,1.1492,12.2698,59.5183,-0.3396,-0.3635,-0.2052,188.8438
10:49:55:099,3.1412,0.8139,12.3535,59.3936,-0.1716,-0.0983,-0.2676,188.1875
10:49:55:119,2.9997,0.9601,11.4485,59.2242,-0.0312,0.0434,-0.4294,188.1875
10:49:55:140,2.7269,1.0654,10.4336,59.0879,0.0037,-0.0922,-0.6115,187.6094
10:49:55:159,2.1978,1.0822,9.5189,58.7999,0.033,-0.1857,-0.7269,187.5938
10:49:55:180,1.6161,0.9721,8.808,58.6277,0.0049,0.0195,-0.7324,187.3281
10:49:55:199,1.4701,0.8668,8.7242,58.3915,-0.1564,0.2975,-0.6383,187.0781
10:49:55:221,1.3238,0.6966,9.2892,58.5016,-0.3537,0.2914,-0.576,187.0781
10:49:55:239,1.1707,0.5291,9.9739,58.6485,-0.4349,0.1399,-0.543,186.9688
10:49:55:259,1.0463,0.51,10.151,58.3535,-0.3946,0.044,-0.5149,186.9688
10:49:55:283,0.8955,0.7875,9.7798,58.28,-0.2871,-0.0299,-0.4917,187.0938
10:49:55:300,1.1515,1.1013,9.2339,58.0305,-0.1723,-0.0586,-0.4374,187.0938
10:49:55:319,1.5897,1.2209,8.633,57.9107,-0.0257,-0.0324,-0.416,187.5312
10:49:55:341,1.7118,1.4821,7.8718,57.8796,0.1362,0.0024,-0.4801,187.5781
10:49:55:359,1.2042,1.7285,6.9978,57.9535,0.2193,-0.0086,-0.5546,188.1094
10:49:55:384,1.5251,1.9487,7.3522,57.6928,-0.0202,0.0446,-0.4007,188.1562
10:49:55:401,1.6902,1.8314,8.3483,57.4962,-0.1271,0.0654,-0.3665,188.8594
10:49:55:422,1.6854,1.8338,8.7386,57.3593,-0.135,0.0727,-0.3616,188.9375
10:49:55:439,1.9848,1.9944,9.186,57.2073,-0.19,0.0067,-0.3751,190.3125
10:49:55:459,2.6288,1.762,10.1438,57.0295,-0.2798,0.0415,-0.4068,190.4531
10:49:55:484,2.4467,1.7716,10.759,56.7665,-0.1912,0.1808,-0.5608,191.7812
10:49:55:499,1.3023,2.0518,11.2403,56.3672,-0.0476,0.347,-0.7025,192.9844
10:49:55:518,0.5459,1.8553,11.5229,55.8498,-0.0153,0.4807,-0.6005,192.9844
10:49:55:539,0.7516,1.9367,11.7814,55.5198,-0.0501,0.3054,-0.4209,193.0938
10:49:55:559,1.0104,1.5945,11.6019,55.38,-0.0782,0.0544,-0.2785,194.0938
10:49:55:580,1.3119,1.5514,11.5062,55.207,-0.1668,-0.08,-0.2254,194.1875
10:49:55:599,1.4198,1.5179,12.186,54.8157,-0.3024,-0.1155,-0.2584,195.1406
10:49:55:620,0.2058,1.1922,12.2267,54.7721,-0.259,0.025,-0.3396,195.1562
10:49:55:651,-1.7142,0.5602,11.822,54.5637,-0.0916,0.4038,-0.237,196.2969
10:49:55:667,-1.6184,0.3784,12.842,54.3582,-0.1319,0.6774,0.1466,196.2969
10:49:55:689,0.5698,0.4836,13.0741,54.4134,-0.0867,0.3274,0.4642,197.2812
10:49:55:712,1.3023,0.2106,11.2738,54.4598,0.2407,-0.1692,0.3433,198.0625
10:49:55:719,0.2827,0.3066,8.8582,54.2925,0.518,-0.2785,-0.0641,198.0625
10:49:55:740,-0.9505,0.9601,8.0752,54.1103,0.4838,-0.0898,-0.3451,198.9062
10:49:55:760,-2.1141,1.1204,8.5421,54.0949,0.2559,0.2205,-0.3189,198.9062
10:49:55:780,-2.3486,0.8644,9.119,53.7941,0.1429,0.273,-0.0421,200.2344
10:49:55:803,-1.6208,0.5124,9.3778,53.9235,0.1332,0.2529,0.3415,200.2344
10:49:55:821,-0.443,0.3999,8.9061,54.1517,0.1833,0.226,0.5687,201.1875
10:49:55:839,0.4956,0.8378,8.1401,53.9872,0.2083,0.0629,0.5461,201.2812
10:49:55:860,0.9218,1.4844,7.4575,53.883,0.1301,-0.2346,0.3561,201.7812
10:49:55:880,0.7158,1.908,7.4862,53.7533,0.0098,-0.5852,0.1692,201.8281
10:49:55:904,0.5267,1.9801,7.18,53.8031,0.0861,-0.383,0.1582,202.4062
10:49:55:921,0.7301,2.1069,6.1265,53.8635,0.1161,-0.496,0.2688,202.4688
10:49:55:939,0.941,2.5594,6.1744,54.0006,-0.1808,-1.0653,0.3555,202.4688
10:49:55:959,1.1372,2.8107,8.3578,53.6208,-0.7373,-1.5742,0.3989,201.6562
10:49:55:979,0.9505,2.2002,10.7973,53.2722,-1.1007,-1.2871,0.3763,201.6562
10:49:56:004,1.252,1.7764,12.047,53.0428,-0.9322,-0.4313,0.372,202.0469
10:49:56:019,1.963,2.016,11.7431,52.8257,-0.3415,0.3885,0.3598,202.0469
10:49:56:039,2.9207,2.6671,10.9651,52.4862,0.3097,0.5174,0.3121,202.0938
10:49:56:059,4.1321,2.473,10.8858,52.1259,0.7104,0.2425,0.1833,202.4375
10:49:56:080,3.8067,1.6424,10.6011,51.8728,0.7953,0.5278,-0.0544,202.4688
10:49:56:099,2.983,1.4294,10.3639,51.6237,0.7452,0.901,-0.3024,201.4375
10:49:56:120,2.7987,1.9872,10.3089,51.5563,0.6298,0.9541,-0.5094,201.4375
10:49:56:141,2.7843,2.4347,10.3543,51.3319,0.4532,0.8662,-0.6811,200.4844
10:49:56:159,2.4562,2.1643,10.3424,51.1989,0.3195,0.5485,-0.791,200.3281
10:49:56:180,2.0471,1.7548,9.7822,51.0744,0.2156,0.0073,-0.8173,200.3281
10:49:56:201,2.3007,1.7189,9.7463,51.1777,-0.0305,-0.4673,-0.7929,199.9844
10:49:56:221,2.6671,1.4174,11.269,51.2927,-0.4074,-0.4978,-0.8039,199.9844
10:49:56:241,2.5379,0.8524,12.5833,51.4958,-0.5522,-0.212,-0.8888,199.4531
10:49:56:260,2.5089,0.7229,12.5833,51.3928,-0.2987,-0.0287,-0.9884,199.4531
10:49:56:285,2.26,0.7181,11.1374,51.6185,0.1093,0.0715,-1.0928,198.8125
10:49:56:301,1.5945,0.5937,9.3467,51.8027,0.3433,0.1539,-1.1569,198.8125
10:49:56:321,1.0726,0.6703,8.3578,52.1548,0.2462,0.2395,-1.0952,198.0625
10:49:56:342,0.9266,0.8354,8.1855,52.2141,-0.0617,0.2266,-0.9737,197.9844
10:49:56:359,0.7732,0.62,8.6569,52.078,-0.3677,0.069,-0.9157,197.7812
10:49:56:379,0.5674,0.2273,9.3778,51.8898,-0.5437,-0.102,-0.8845,197.75
10:49:56:400,0.8091,0.352,9.8181,51.6443,-0.5815,-0.0666,-0.8124,198.375
10:49:56:423,1.2592,0.8979,8.7553,51.7385,-0.2773,-0.1851,-0.8075,198.4375
10:49:56:439,1.3597,1.1037,7.8072,51.3431,-0.0696,-0.4923,-0.9034,199.7812
10:49:56:460,1.439,1.2879,7.0747,50.9874,0.0226,-0.6475,-1.0201,199.9062
10:49:56:483,1.3669,1.6687,6.9476,50.8645,-0.0208,-0.5479,-1.1166,201.5781
10:49:56:500,1.1563,2.0088,7.436,50.74,-0.1429,-0.2761,-1.1282,201.75
10:49:56:519,0.5219,1.908,8.5301,50.942,-0.1906,-0.0874,-1.0684,203.4844
10:49:56:540,0.4238,1.8458,9.0473,51.0589,-0.1228,0.0788,-0.9083,203.6719
10:49:56:560,0.7995,1.6974,9.3514,50.8875,-0.0611,0.1881,-0.7226,205.7344
10:49:56:579,1.0941,1.506,9.4161,50.7742,-0.0446,0.0641,-0.6762,205.9375
10:49:56:599,0.9721,1.5012,9.7223,51.0257,-0.0635,-0.2541,-0.7898,208.4062
10:49:56:622,0.9601,1.7572,10.9241,51.1534,-0.1796,-0.4105,-0.8631,208.4375
10:49:56:678,1.0104,1.6854,13.165,50.9864,-0.2987,-0.2162,-0.8088,210.4375
10:49:56:679,0.4669,1.2401,13.8667,51.0635,-0.1411,0.1863,-0.7483,212.2656
10:49:56:680,0.0479,1.0463,12.4301,50.8731,0.2333,0.3128,-0.6805,212.2656
10:49:56:705,0.1962,1.2712,10.6466,50.7531,0.4441,0.0867,-0.5601,213.9688
10:49:56:721,0.2752,1.3908,10.5652,50.6997,0.292,-0.1002,-0.4258,213.9688
10:49:56:741,-0.553,0.7947,11.1781,50.8808,0.0556,-0.0147,-0.3341,216.1875
10:49:56:760,-1.8817,0.146,11.1565,50.7277,-0.0654,0.1991,-0.2645,216.1875
10:49:56:780,-2.6815,-0.055,11.3312,50.7607,-0.1881,0.4587,-0.0678,218.7188
10:49:56:800,-1.1922,0.5411,11.6737,50.7243,-0.3763,0.7556,0.3769,218.7188
10:49:56:821,0.6823,1.0032,12.0712,50.3595,-0.4453,0.81,0.722,220.8906
10:49:56:840,1.1396,0.6966,11.2929,50.3244,-0.2596,0.5656,0.6958,220.8906
10:49:56:860,0.1842,0.1412,9.3802,50.2278,0.0293,0.1582,0.4484,222.2656
10:49:56:880,-0.9601,-0.0048,8.2502,50.1902,0.11,-0.1826,0.2523,222.4062
10:49:56:899,-0.9386,0.8091,8.1449,49.7745,-0.0776,-0.226,0.179,224.0938
10:49:56:924,-0.9553,0.8979,9.5405,49.6022,-0.4374,0.3274,0.3885,224.2656
10:49:56:943,-0.7612,0.5841,9.2339,49.4994,-0.5259,0.8454,0.4789,225.8125
10:49:56:962,-0.309,0.7158,9.052,49.3003,-0.46,0.7122,0.4783,227.2188
10:49:56:979,-0.4908,0.862,8.9252,49.2876,-0.2272,0.0617,0.336,227.2188
10:49:57:000,-0.28,1.3382,8.1182,49.3496,0.0208,-0.3702,0.2162,227.3438
10:49:57:019,-0.3712,1.6783,7.5413,49.3895,0.1454,-0.4673,0.2138,228.1406
10:49:57:039,-0.9314,1.6711,7.0436,49.1307,0.1118,-0.2364,0.259,228.2188
10:49:57:060,-1.2951,1.6926,6.7202,49.0256,-0.0397,0.0617,0.3848,228.5
10:49:57:079,-1.0822,1.7046,7.0484,48.9692,-0.2541,0.1594,0.5601,228.5312
10:49:57:099,-0.3951,1.6328,8.4583,48.8408,-0.4801,0.1313,0.6958,227.2969
10:49:57:119,-0.1077,1.4701,9.8133,48.7163,-0.5809,0.1478,0.7672,227.1719
10:49:57:141,0.431,1.4797,10.8571,48.6376,-0.5082,0.124,0.7855,225.8438
10:49:57:159,1.0558,1.7716,11.7622,48.129,-0.314,0.0928,0.7397,225.8281
10:49:57:180,2.0303,1.7716,11.5253,47.8864,-0.0275,0.1093,0.642,225.3906
10:49:57:201,2.5161,1.5682,11.4652,47.9208,0.1881,0.1112,0.408,224.6094
10:49:57:222,2.2935,1.5395,11.202,47.9537,0.2657,0.1515,0.0037,224.6094
10:49:57:239,2.1069,1.9128,11.7885,47.7629,0.2364,0.0764,-0.3409,223.375
10:49:57:262,1.707,1.8362,12.3416,47.5834,0.2804,-0.1478,-0.5565,223.375
10:49:57:280,0.8835,1.1157,11.7646,47.6202,0.4893,-0.5168,-0.667,222.7656
10:49:57:300,0.6176,0.699,11.1374,47.6241,0.5278,-0.7947,-0.6451,222.7656
10:49:57:321,1.1396,0.9673,11.7885,47.7307,0.223,-0.7575,-0.5687,222.2969
10:49:57:340,1.4318,1.0487,12.9209,47.4958,-0.0831,-0.5198,-0.5272,222.2969
10:49:57:361,1.628,0.7516,13.4668,47.3004,-0.1008,-0.2755,-0.4844,221.3281
10:49:57:380,2.0279,0.5578,12.478,47.2789,0.1527,-0.146,-0.4661,221.2188
10:49:57:401,2.3964,0.5411,10.85,47.1082,0.4551,-0.2309,-0.5217,219.6562
10:49:57:420,2.3222,0.5985,9.2411,47.0889,0.6029,-0.3347,-0.6108,219.5
10:49:57:441,1.8553,0.4621,8.0752,47.0337,0.1008,-0.2077,-0.6695,217.9062
10:49:57:460,1.1228,0.3832,8.0393,47.042,-0.3237,-0.1759,-0.554,217.7344
10:49:57:479,0.7062,0.1747,10.3424,46.8665,-0.54,-0.2553,-0.358,216.6875
10:49:57:502,1.2018,0.0072,10.6992,47.006,-0.4209,-0.2804,-0.2059,216.5781
10:49:57:519,1.6496,-0.0814,9.7439,47.1034,-0.0745,-0.2993,-0.1949,216.9375
10:49:57:540,2.0662,0.2441,8.6019,47.0627,0.182,-0.2792,-0.3024,216.9844
10:49:57:559,2.272,0.6894,7.7163,47.0627,0.3079,-0.2785,-0.4667,218.2812
10:49:57:579,2.0207,1.0199,6.9236,47.0856,0.383,-0.3464,-0.6457,218.4219
10:49:57:602,1.3836,1.3119,6.2605,46.9218,0.372,-0.4178,-0.7801,219.7656
10:49:57:619,1.2138,1.884,6.0571,46.6509,0.2272,-0.4612,-0.7984,219.9062
10:49:57:641,1.3119,2.3438,6.8112,46.5795,0.0079,-0.507,-0.7281,221.0469
10:49:57:671,1.4844,2.406,7.7761,46.2718,-0.1271,-0.4923,-0.6298,221.0625
10:49:57:681,1.5395,2.1643,8.7793,46.1234,-0.1771,-0.3036,-0.5406,222.2031
10:49:57:703,1.398,1.9439,9.4161,45.8878,-0.1631,-0.0147,-0.5039,223.7188
10:49:57:721,1.3597,2.1284,9.7223,45.9075,-0.1093,0.1533,-0.4911,223.7188
10:49:57:740,1.0654,2.3055,9.7056,45.6982,-0.0544,0.1875,-0.463,225.0781
10:49:57:760,0.9099,2.1667,9.9763,45.7931,-0.1075,0.248,-0.361,225.0781
10:49:57:780,0.7493,1.6663,10.8643,45.9415,-0.2608,0.358,-0.2401,225.6875
10:49:57:802,0.6703,1.1827,11.8412,46.2229,-0.3592,0.3018,-0.1662,225.6875
10:49:57:820,0.5195,1.008,12.1525,46.3205,-0.2908,0.0195,-0.1539,226.2656
10:49:57:841,0.4071,0.9649,12.0063,46.417,-0.1515,-0.3237,-0.1228,226.2656
10:49:57:860,-0.1196,0.3664,11.6713,46.4336,-0.102,-0.5119,-0.0788,227.4375
10:49:57:880,-0.2082,0.0239,12.344,46.4539,-0.3115,-0.3525,-0.011,227.5625
10:49:57:903,-0.5435,-0.2345,13.5817,46.5319,-0.5198,0.0269,0.0299,229.2031
10:49:57:921,-1.1276,-0.6129,13.8667,46.1244,-0.4306,0.3354,0.1112,229.375
10:49:57:940,-0.5674,-0.3185,12.612,46.1522,-0.1264,0.3305,0.3335,230.7969
10:49:57:961,1.0152,0.3855,9.3395,45.8859,0.2272,-0.08,0.4875,230.9375
10:49:57:980,0.4573,0.2776,8.6498,45.8047,0.441,-0.4649,0.4337,231.9844
10:49:58:004,-0.6559,0.0981,8.2693,45.7054,0.3457,-0.066,0.2315,232.0938
10:49:58:019,-1.3836,0.2946,8.4057,45.8998,0.055,0.3744,0.3934,233.0312
10:49:58:040,-1.4462,0.3209,8.7362,45.7641,-0.2291,0.493,0.7575,233.125
10:49:58:059,-0.1938,0.2704,9.0185,45.4334,-0.394,0.2333,1.1686,233.7031
10:49:58:079,1.7046,0.3927,9.3538,45.6401,-0.4087,-0.1454,1.3959,233.75
10:49:58:102,2.7772,0.3401,9.0784,45.291,-0.2138,-0.4032,1.2669,234.0469
10:49:58:121,2.6838,0.4789,8.2693,45.143,0.099,-0.4526,0.8613,234.0781
10:49:58:142,2.016,1.1779,7.5126,45.216,0.3372,-0.3115,0.4471,234.3125
10:49:58:160,1.3573,1.8314,6.9954,45.2061,0.4325,-0.0776,0.2529,234.3281
10:49:58:179,0.6129,1.8984,6.9595,44.9534,0.3647,0.1765,0.2602,234.2969
10:49:58:203,0.3281,1.8673,7.0914,45.0606,0.1729,0.3714,0.4117,233.7656
10:49:58:222,0.9769,1.9582,8.1111,45.1925,-0.102,0.3751,0.6225,233.7656
10:49:58:240,1.5514,1.7836,9.562,44.975,-0.2657,0.2382,0.7348,232.7969
10:49:58:261,1.9848,1.4916,10.6825,45.0525,-0.2144,0.0617,0.7214,232.7969
10:49:58:279,2.4491,1.5227,11.8292,45.0341,-0.0776,0.0086,0.6084,232.25
10:49:58:304,2.5929,1.5778,12.3153,44.822,0.1381,0.1057,0.4245,232.25
10:49:58:320,2.7772,1.8075,11.9106,44.653,0.3867,0.1625,0.2077,230.9531
10:49:58:340,2.8466,1.9753,11.08,44.3796,0.5907,0.1264,0.0147,230.9531
10:49:58:359,2.4538,1.8817,10.2802,44.3847,0.6506,0.1191,-0.1362,228.1094
10:49:58:380,2.2074,1.9319,10.0409,44.4327,0.5357,0.0715,-0.2169,228.1094
10:49:58:405,2.3677,2.2409,10.2945,44.4249,0.3457,-0.0538,-0.2462,225.9844
10:49:58:420,2.2241,2.1045,10.4599,44.367,0.1631,-0.149,-0.2547,225.7812
10:49:58:440,1.9032,1.6854,11.08,44.2719,-0.1332,-0.1002,-0.1967,225.0938
10:49:58:461,1.7429,1.2233,12.7152,44.3098,-0.5327,0.0898,-0.0788,225.0156
10:49:58:481,2.6767,0.2201,14.7954,44.3487,-0.4917,0.2425,0.0531,224.3281
10:49:58:504,3.7014,0.352,13.0071,44.3597,0.0892,-0.0086,-0.0867,224.2656
10:49:58:521,4.0795,0.5219,10.3687,43.9298,0.6554,-0.2914,-0.4074,222.875
10:49:58:540,3.3541,0.553,8.0513,43.8194,0.9187,-0.2859,-0.7568,222.7344
10:49:58:560,1.817,0.4645,6.4208,43.7912,0.7776,0.0037,-0.9743,221.3906
10:49:58:579,0.4119,0.699,6.1576,43.7096,0.2712,0.3066,-0.9401,221.25
10:49:58:600,-0.5937,0.7684,7.1393,43.6968,-0.3555,0.3873,-0.6683,220.6094
10:49:58:621,-0.2632,0.7469,8.8128,43.7092,-0.7709,0.1607,-0.2449,220.5469
10:49:58:640,1.0678,0.711,9.9858,43.3387,-0.813,-0.1051,0.1246,220.6875
10:49:58:661,2.059,0.3999,10.0863,43.1787,-0.5498,-0.201,0.2248,220.6875
10:49:58:721,2.6264,0.486,9.3323,43.2641,-0.1973,-0.1405,0.0525,221.2188
10:49:58:722,2.4969,0.9817,8.3578,43.1139,0.1026,-0.0739,-0.2718,221.75
10:49:58:722,1.9753,1.5754,7.6397,42.9863,0.2969,-0.0641,-0.5571,221.75
10:49:58:740,1.0941,1.7836,6.9835,42.9316,0.4251,-0.1252,-0.7025,221.75
10:49:58:760,0.5913,2.0662,6.2629,42.7627,0.4514,-0.1942,-0.6841,221.75
10:49:58:780,0.6416,2.5017,6.0763,42.4862,0.325,-0.2352,-0.5424,221.75
10:49:58:803,0.4286,2.6121,6.6676,42.4711,0.1118,-0.2016,-0.3683,221.75
10:49:58:822,0.1555,2.4371,7.3929,42.575,-0.0672,-0.1362,-0.1808,223.1094
10:49:58:839,0.4884,2.5666,8.8869,42.4434,-0.248,-0.0226,0.0238,223.1094
10:49:58:860,0.5483,2.3557,10.5437,42.3583,-0.3256,0.1704,0.1869,225.2344
10:49:58:881,0.4956,1.9729,11.3958,42.2311,-0.2614,0.3964,0.3366,225.2344
10:49:58:904,0.6057,1.5778,11.6402,41.9301,-0.2101,0.5699,0.4991,226.0781
10:49:58:920,1.0175,1.118,12.0736,41.8009,-0.2688,0.6194,0.6328,226.1562
10:49:58:941,1.5754,0.6966,13.1892,41.5423,-0.284,0.4203,0.6353,225.7969
10:49:58:960,1.8266,0.4621,13.6869,41.4273,-0.0513,0.0898,0.482,225.75
10:49:58:981,1.8888,0.632,12.7822,41.3009,0.2456,-0.0073,0.3164,225.9844
10:49:59:004,0.8091,0.7325,13.2897,41.2553,0.2712,0.0959,0.1668,226
10:49:59:022,0.1149,0.0742,13.0478,41.0366,0.1668,0.2016,0.0709,227.2812
10:49:59:040,0.1005,-0.1699,12.1502,40.8629,0.2242,0.4716,0.2706,227.4062
10:49:59:059,0.7995,0.1101,11.5445,40.7332,0.2443,0.2779,0.4025,228.6875
10:49:59:079,1.6424,0.5459,10.3953,40.4063,0.4691,-0.1997,0.3842,228.8125
10:49:59:100,1.884,0.7421,8.7577,40.2803,0.8014,-0.5437,0.2107,229.4062
10:49:59:123,1.075,0.565,7.4456,40.0747,0.9517,-0.4282,-0.0214,229.4531
10:49:59:141,0.0096,0.4693,6.7777,39.7132,0.7874,-0.0012,-0.1576,229.2344
10:49:59:159,-1.1827,0.6057,6.8303,39.4049,0.4093,0.4386,-0.1191,228.2188
10:49:59:181,-1.8984,0.9721,7.2039,38.9065,-0.0434,0.6316,0.1222,228.2188
10:49:59:204,-1.4004,1.2209,7.9364,38.5743,-0.3757,0.3512,0.5088,226.75
10:49:59:222,0.1579,1.3573,8.0273,38.2482,-0.4423,-0.1307,0.8527,226.75
10:49:59:241,1.5299,1.4438,7.2948,38.0076,-0.3647,-0.4526,0.9431,225.8594
10:49:59:261,2.0255,1.6352,7.0914,37.7023,-0.3653,-0.4294,0.7568,225.8594
10:49:59:279,1.6113,1.9825,7.9603,37.454,-0.3958,-0.1649,0.4508,225.5938
10:49:59:299,0.9745,2.3438,8.7601,37.2082,-0.3091,0.1448,0.2333,225.5938
10:49:59:320,0.1507,2.569,8.9348,36.9,-0.1668,0.4013,0.1851,225.1562
10:49:59:340,-0.8402,2.6527,9.2868,37.0053,-0.1429,0.3879,0.2633,225.1562
10:49:59:360,-0.4406,3.1388,10.1366,36.9013,-0.1625,-0.0031,0.5033,224.3281
10:49:59:381,1.0534,3.3039,10.8835,36.8611,-0.1081,-0.361,0.7898,224.3281
10:49:59:399,2.4156,2.9112,11.4126,36.868,0,-0.3964,0.8827,224.2812
10:49:59:421,3.0739,2.5714,11.7455,36.7128,0.099,-0.1417,0.7232,224.2812
10:49:59:441,2.8729,2.4562,11.9704,36.5398,0.2065,0.1399,0.394,224.5781
10:49:59:461,2.557,2.6958,11.8436,36.0995,0.4117,0.1106,0.0666,224.6094
10:49:59:479,2.1835,2.782,10.6801,35.6515,0.7074,-0.0647,-0.1197,223.875
10:49:59:501,1.6663,2.2863,9.5381,34.9297,0.5107,-0.2034,-0.1148,223.7969
10:49:59:520,2.1093,2.5427,10.4839,34.4651,0.2486,-0.3011,-0.1038,222.0156
10:49:59:541,1.7644,2.1978,10.5987,34.0096,0.2181,-0.3421,-0.1246,221.8281
10:49:59:560,1.1492,1.9247,9.8949,33.7385,0.1839,-0.2779,-0.0874,220.625
10:49:59:579,1.2353,1.9367,10.3711,33.2302,-0.0745,-0.2126,0.0611,220.5156
10:49:59:599,1.8553,1.5227,11.9393,32.5522,-0.3439,-0.2462,0.2486,220.0156
10:49:59:624,2.6767,1.1587,12.8563,32.1638,-0.2816,-0.3744,0.3024,219.9688
10:49:59:639,3.3852,0.9458,12.1406,31.7969,0.1307,-0.46,0.1625,219.1562
10:49:59:659,3.0547,0.7301,10.2132,31.3864,0.5443,-0.3042,-0.1124,219.0781
10:49:59:680,1.7931,0.7014,8.1377,30.9691,0.6225,0.0012,-0.3323,217.2969
10:49:59:700,0.4932,0.8115,7.3857,30.6296,0.2566,0.1753,-0.2969,216.0781
10:49:59:723,-0.1866,0.8477,8.3435,29.9646,-0.3604,0.1277,-0.0043,216.0781
10:49:59:740,0.122,0.7708,10.2921,29.753,-0.8552,-0.1209,0.3861,216.1719
10:49:59:759,1.5419,0.9912,11.8531,29.4738,-0.9535,-0.3879,0.7006,216.1719
10:49:59:781,3.1196,1.0917,12.0927,29.1847,-0.6023,-0.5015,0.7904,216.5312
10:49:59:799,3.9646,0.9194,10.5365,28.6914,0.0024,-0.4282,0.5913,216.5312
10:49:59:821,4.034,1.0558,8.4177,28.7267,0.5119,-0.2914,0.1888,216.875
10:49:59:840,3.5288,1.6352,6.7585,28.3739,0.7385,-0.1613,-0.2333,216.875
10:49:59:860,2.849,2.083,6.0117,27.9875,0.7495,-0.1081,-0.5076,216.9688
10:49:59:879,2.2289,2.3701,5.4873,27.6838,0.6951,-0.1405,-0.6218,216.9688
10:49:59:898,1.9367,2.6432,5.1568,27.375,0.5779,-0.2071,-0.5834,216.4219
10:49:59:923,1.9295,2.8394,5.2597,27.3719,0.3696,-0.2425,-0.4667,216.4219
10:49:59:941,2.0566,3.0021,6.3443,27.1213,0.1289,-0.1771,-0.3323,216.4531
10:49:59:959,2.0088,2.9064,7.357,26.8688,-0.0232,0.0434,-0.2346,216.4531
10:49:59:980,1.9825,3.05,8.3363,26.3442,-0.0935,0.2541,-0.1857,217.0781
10:49:59:999,1.908,3.1292,9.0903,26.0185,-0.1051,0.3323,-0.1423,217.1406
10:50:00:023,1.884,3.0284,9.4137,25.8044,-0.1124,0.3244,-0.0739,216.75
10:50:00:039,2.1619,2.6192,9.8279,25.6928,-0.3286,0.1289,0.0764,216.7031
10:50:00:060,2.4993,2.6982,10.1294,25.329,-0.4282,-0.1075,0.1148,215.2969
10:50:00:079,3.2417,2.8513,10.3783,24.9494,-0.4166,-0.3714,0.135,215.1562
10:50:00:099,3.8498,2.624,10.625,24.603,-0.3415,-0.5779,0.0819,214.4219
10:50:00:123,4.0507,1.896,10.6681,24.3307,-0.2993,-0.6096,-0.0727,214.3594
10:50:00:140,3.5001,1.0774,11.8484,24.1723,-0.5046,-0.2749,-0.2871,215.0938
10:50:00:159,2.0088,0.3257,14.3934,24.004,-0.8075,0.2217,-0.4691,215.1719
10:50:00:180,1.2281,0.0598,15.7627,23.5892,-0.7746,0.543,-0.4306,216.4062
10:50:00:199,2.2552,0.51,15.1546,23.284,-0.3873,0.496,-0.157,217.4688
10:50:00:225,2.8992,0.5291,12.9855,22.8613,0.1167,0.11,-0.0721,217.4688
10:50:00:242,2.0136,0.3927,10.2969,22.6664,0.5449,-0.2694,-0.2651,217.8906
10:50:00:261,0.5626,0.553,7.8957,22.4755,0.6927,-0.2834,-0.4484,217.8906
10:50:00:279,-0.0072,1.1539,6.9093,22.4115,0.4349,0.0159,-0.4459,218.0469
10:50:00:299,-1.0558,1.6735,8.1111,22.1954,0.044,0.3311,-0.3347,218.0469
10:50:00:324,-2.1021,1.4868,8.7817,21.8763,-0.0629,0.6053,-0.0202,217.9062
10:50:00:340,-1.9825,1.2832,7.7115,21.736,0.0312,0.6359,0.5003,217.9062
10:50:00:360,-0.4597,1.4174,6.5623,21.4469,-0.0226,0.2938,0.9755,217.6875
10:50:00:381,1.2544,1.6208,6.6461,21.427,-0.2321,-0.2223,1.2021,217.6875
10:50:00:399,2.26,1.6137,6.9882,20.8241,-0.3292,-0.5418,1.1276,217.8125
10:50:00:424,2.3342,1.6519,7.1776,20.4352,-0.2761,-0.5168,0.8485,217.8125
10:50:00:440,1.9487,2.1667,7.2182,19.8795,-0.2083,-0.281,0.5492,218.5938
10:50:00:459,1.6472,2.6001,7.8574,19.5211,-0.1906,-0.0794,0.3806,218.6719
10:50:00:479,1.2544,2.6719,8.6713,18.975,-0.1417,0.0599,0.3476,219.1875
10:50:00:499,1.4414,2.7532,8.6952,18.224,-0.0409,0.1216,0.419,219.2344
10:50:00:524,1.695,2.6001,8.9204,17.667,-0.0525,0.0855,0.5058,219.5781
10:50:00:543,2.2481,2.4969,9.7463,17.1161,-0.3091,0.0031,0.5754,219.625
10:50:00:560,3.4546,2.5017,11.8292,16.8674,-0.2688,-0.1228,0.4997,220.5312
10:50:00:580,3.7325,2.2552,11.7431,16.61,-0.033,-0.2694,0.3482,220.625
10:50:00:599,3.8809,2.0183,11.257,16.4765,0.1704,-0.2187,0.1747,220.8906
10:50:00:619,3.5192,1.3621,11.1183,15.9538,0.2114,-0.0006,0.0556,220.9219
10:50:00:640,3.5527,0.8668,11.3743,15.6039,0.1405,0.2126,0.0202,219.375
10:50:00:659,3.7445,0.8979,11.1183,15.6045,0.0709,0.306,-0.0336,216.9531
10:50:00:679,3.4953,0.8501,10.4743,15.3034,-0.0037,0.1228,-0.1466,216.9531
10:50:00:699,2.9638,0.632,10.6537,15.0969,-0.1997,-0.1142,-0.2114,215.25
10:50:00:723,2.4897,0.4262,11.9369,14.8721,-0.4545,-0.0666,-0.2107,215.25
10:50:00:768,2.5041,0.3975,12.9832,14.7932,-0.474,0.0837,-0.2059,214.4531
10:50:00:768,2.5953,0.3114,12.0688,14.3525,-0.1081,0.1399,-0.2205,214.4531
10:50:00:780,2.6767,0.431,9.6888,14.4381,0.2853,0.2187,-0.234,213.4062
10:50:00:798,2.3366,0.6392,7.812,14.5275,0.3066,0.3292,-0.215,213.4062
10:50:00:821,1.8793,0.754,7.1824,14.4669,-0.0263,0.2926,-0.0983,212.1562
10:50:00:841,1.5826,0.5195,7.9555,14.4916,-0.5143,0.0898,0.1271,212.1562
10:50:00:861,2.1332,0.2297,9.5644,14.3857,-0.9071,-0.1185,0.3946,212.1406
10:50:00:881,3.2345,0.1723,11.056,14.2786,-1.0189,-0.1619,0.5589,211.25
10:50:00:899,3.9718,0.0861,11.4102,13.972,-0.7917,-0.0983,0.5033,211
10:50:00:924,4.2449,0.1196,10.4169,14.0409,-0.3402,-0.0965,0.2401,211
10:50:00:940,3.8856,0.4023,8.7123,13.6228,0.113,-0.1454,-0.124,210.9688
10:50:00:960,3.3876,0.8306,7.4312,13.495,0.3451,-0.1295,-0.4197,210.9688
10:50:00:981,2.6695,0.9769,6.7131,13.3332,0.3732,-0.0733,-0.5944,211.3281
10:50:00:998,2.0447,1.0702,6.2964,13.4118,0.3054,-0.0757,-0.664,211.3594
10:50:01:020,1.5945,1.2497,6.093,13.45,0.2114,-0.1197,-0.6371,211.7969
10:50:01:040,1.4844,1.6926,6.4065,13.5649,-0.0305,-0.0128,-0.3415,211.8281
10:50:01:061,1.6974,1.4821,7.9914,13.6696,-0.1729,0.179,-0.1435,212.2656
10:50:01:080,1.5826,0.9817,9.3132,13.6437,-0.1631,0.4478,-0.0086,212.3125
10:50:01:099,1.884,1.0343,10.2562,13.8371,-0.0819,0.6707,0.1032,212.5781
10:50:01:124,2.217,0.917,11.123,14.1433,-0.0421,0.73,0.1918,212.6094
10:50:01:141,2.3629,0.4669,11.8699,14.2504,-0.0458,0.6787,0.2278,212.0938
10:50:01:159,2.3821,0.3018,12.6482,14.4686,-0.0812,0.5693,0.1839,212.0469
10:50:01:179,2.0734,0.3616,13.0262,14.6029,-0.0525,0.4062,0.0953,211
10:50:01:198,1.8242,0.4047,12.2459,14.5827,0.0635,0.2315,0.0782,210.7812
10:50:01:220,1.8793,0.3784,11.3001,14.6083,0.0593,0.0983,0.1264,210.7812
10:50:01:241,1.2018,-0.0694,10.8117,14.6613,-0.1167,0.0348,0.1148,211.875
10:50:01:260,0.2369,-0.4167,10.6849,14.9015,-0.3573,-0.069,0.1454,211.875
10:50:01:281,-0.0814,-0.644,10.716,14.6511,-0.5974,-0.2578,0.3402,213.3281
10:50:01:299,0.9649,-0.5004,11.0489,14.6302,-0.7593,-0.5595,0.6243,213.3281
10:50:01:319,2.3151,-0.3018,11.6019,14.3947,-0.7147,-0.8277,0.7171,213.3438
10:50:01:341,2.782,-0.3951,11.8938,14.2521,-0.4306,-0.6915,0.5266,214.2969
10:50:01:360,1.4964,-0.8258,11.6569,14.0363,-0.0446,-0.0293,0.1784,214.2969
10:50:01:382,-0.3329,-0.8163,10.5174,13.9775,0.2614,0.7666,-0.0446,214.4375
10:50:01:399,-1.5802,-0.4836,9.3491,14.1963,0.3134,1.0525,0.058,214.0469
10:50:01:421,-1.4055,-0.0622,8.9492,14.1999,0.1167,0.7489,0.4404,214.0469
10:50:01:439,0.1723,0.1005,9.1645,14.3347,-0.088,0.1234,0.8595,213.5156
10:50:01:460,1.6256,0.1364,9.1789,14.3399,-0.113,-0.372,1.0042,213.5156
10:50:01:481,2.3844,0.4143,8.5229,14.3638,0.0391,-0.4954,0.8381,213.3125
10:50:01:499,2.1021,0.7851,7.8431,14.3323,0.2431,-0.3042,0.5149,213.2969
10:50:01:524,1.3119,1.0726,7.5556,14.7574,0.4056,0.1228,0.2504,213.0469
10:50:01:542,0.5028,1.5251,7.0843,14.9545,0.6408,0.8558,0.1949,213.0156
10:50:01:560,0.2225,1.4773,6.7394,14.7699,0.6359,0.9224,0.3115,212.5312
10:50:01:581,0.5506,1.7309,6.3586,14.9354,0.4801,0.7,0.4508,212.4688
10:50:01:599,1.1563,1.9534,7.1249,15.2062,0.1283,0.2621,0.5632,211.1562
10:50:01:620,1.5778,1.8266,9.1669,15.3518,-0.2834,-0.1503,0.5913,211.0312
10:50:01:640,1.8051,1.6974,11.2786,15.8248,-0.5113,-0.3415,0.5504,210.3281
10:50:01:660,1.7237,1.506,12.83,15.9059,-0.4539,-0.4044,0.4514,210.2031
10:50:01:678,2.0758,1.628,13.1291,16.0397,-0.1576,-0.4374,0.3543,210.2031
10:50:01:699,2.6934,1.628,12.4277,16.1114,0.1949,-0.3512,0.292,208.8906
10:50:01:720,2.7652,1.1396,12.035,16.3964,0.3183,-0.099,0.2022,208.8906
10:50:01:741,2.3844,0.687,12.3105,16.3825,0.2627,0.0574,0.0776,206.75
10:50:01:759,2.2528,0.6966,12.1884,16.3174,0.2187,-0.0367,-0.0006,206.75
10:50:01:780,1.8266,0.4023,11.5373,16.2402,0.1735,-0.3073,-0.0031,205.9062
10:50:01:799,1.5945,-0.0479,11.0776,15.9523,-0.0037,-0.441,0.0971,205.9062
10:50:01:820,1.7453,-0.4238,11.7742,16.1404,-0.317,-0.427,0.2529,205.9062
10:50:01:841,2.4323,-0.7134,12.7582,16.1925,-0.4795,-0.4361,0.3464,205.5
10:50:01:861,3.5599,-0.7134,13.0884,16.4042,-0.3225,-0.3769,0.3207,205.4844
10:50:01:880,3.8809,-1.0798,11.9848,16.5234,0.113,-0.1515,0.1203,204.6094
10:50:01:899,3.0476,-1.2209,9.5788,16.6369,0.5785,0.2162,-0.1949,203.3281
10:50:01:924,1.7477,-0.7205,7.2063,16.8117,0.6903,0.5461,-0.369,203.3281
10:50:01:941,0.6009,-0.2441,6.2725,17.1025,0.3237,0.5925,-0.2724,202.2188
10:50:01:961,0.8429,-0.0359,7.5269,17.3196,-0.2596,0.3433,0.0336,202.2188
10:50:01:982,1.8314,-0.1842,9.5261,17.1427,-0.6334,0.0983,0.3164,201.6094
10:50:01:998,2.2552,-0.4956,10.4982,17.196,-0.5999,0.0195,0.3464,201.5469
10:50:02:020,2.4347,-0.4071,10.1821,17.1416,-0.2645,-0.0177,0.1869,201.2812
10:50:02:041,2.4754,-0.0024,9.0114,17.2302,0.1271,-0.0379,-0.0434,201.25
10:50:02:060,1.8888,0.5435,7.3857,17.155,0.4673,0.1833,-0.3372,201.2812
10:50:02:081,1.2401,0.6464,7.0098,17.2992,0.4954,0.273,-0.3836,201.2812
10:50:02:099,1.1492,0.9123,6.5839,17.6737,0.4673,0.3036,-0.3268,200.9844
10:50:02:120,1.3956,1.4318,6.548,17.9134,0.325,0.2199,-0.1851,200.9531
10:50:02:142,1.6615,1.3549,7.2541,18.3908,0.1393,0.0153,-0.0122,200.3125
10:50:02:159,1.573,0.9266,7.934,18.3301,0.0031,-0.0861,0.0672,200.25
10:50:02:179,1.6543,1.0391,8.7625,18.582,-0.1332,-0.0623,0.1277,200.3125
10:50:02:198,1.9463,1.2138,9.9954,18.6087,-0.284,-0.0501,0.1802,200.9062
10:50:02:220,2.3294,1.0678,11.4532,18.9822,-0.3573,-0.0727,0.2352,200.9062
10:50:02:242,2.3725,0.5889,12.5139,18.9601,-0.3128,-0.0782,0.2364,200.5938
10:50:02:260,2.2839,0.3066,12.8444,18.8169,-0.1771,-0.0843,0.1753,200.5469
10:50:02:282,2.4754,0.4573,12.6697,18.6978,-0.0116,-0.0666,0.1063,200.5469
10:50:02:299,2.3198,0.419,12.3105,18.8083,0.1607,-0.0342,0.033,199.9375
10:50:02:319,2.0207,0.3497,11.6426,19.1011,0.3464,0.0379,-0.0373,199.9375
10:50:02:343,1.7548,0.3688,10.7088,19.2687,0.4691,0.1674,-0.0898,200.2344
10:50:02:361,1.1276,0.1819,9.8157,19.5478,0.4294,0.3274,-0.1381,200.2344
10:50:02:382,0.1842,-0.0263,9.5812,19.6127,0.212,0.4056,-0.1252,201.0312
10:50:02:399,-0.6823,-0.3688,9.6864,19.7328,-0.0757,0.3653,0.0421,201.5781
10:50:02:420,-0.2656,-0.189,10.3184,20.0235,-0.3439,0.212,0.3916,201.5781
10:50:02:442,0.996,-0.1029,10.4169,20.257,-0.3977,-0.1765,0.6982,201.5469
10:50:02:459,1.9487,-0.1125,10.0385,20.2219,-0.2578,-0.5736,0.7532,201.5469
10:50:02:480,2.0064,-0.2898,10.0983,20.2084,-0.1118,-0.5638,0.598,201.2031
10:50:02:500,1.2784,-0.6368,10.3472,20.1859,-0.0519,-0.0513,0.4001,201.2031
10:50:02:521,-0.0024,-0.821,10.3929,20.2714,-0.0782,0.5192,0.2902,200.7188
10:50:02:543,-0.6153,-0.5794,10.4097,20.4014,-0.1619,0.54,0.3726,200.6719
10:50:02:560,0.146,-0.0766,10.1964,20.5099,-0.1961,0.0385,0.5999,200.3906
10:50:02:583,2.9542,0.7732,8.9635,20.5975,0.0672,-0.7031,0.6554,200.3594
10:50:02:600,2.8394,1.0343,8.0106,20.555,0.2669,-0.4294,0.3561,200.375
10:50:02:620,2.1428,1.343,7.5365,20.5602,0.3616,0.0134,0.0819,200.375
10:50:02:642,1.5897,1.7429,7.3857,20.843,0.3659,0.3225,-0.0434,200.5938
10:50:02:659,1.4174,2.1188,7.3068,21.1503,0.3415,0.4123,-0.0153,200.6562
10:50:02:678,1.3454,2.1571,7.0026,21.3153,0.2828,0.3213,0.1026,200.6562
10:50:02:699,1.7859,2.1523,7.3164,21.4532,0.1167,0.0421,0.2437,199.5469
10:50:02:719,2.4754,2.1882,8.6139,21.5937,-0.1051,-0.2217,0.317,199.5469
10:50:02:743,2.9638,2.1188,10.0696,21.6796,-0.2028,-0.2663,0.2902,199.4375
10:50:02:759,3.1029,1.884,11.2283,22.0092,-0.1429,-0.124,0.182,198.0156
10:50:02:825,2.9183,1.6567,11.9489,22.3285,0.0098,0.0171,0.0501,198
10:50:02:826,2.6958,1.3765,12.1765,22.5471,0.2217,-0.1051,-0.0837,197.2031
10:50:02:826,2.461,1.1468,11.9417,22.7506,0.3854,-0.2291,-0.1894,197.2031
10:50:02:845,1.8027,0.7229,11.8579,22.9691,0.4355,-0.1668,-0.2816,196.0781
10:50:02:860,1.3143,0.6344,11.7861,23.0568,0.4068,-0.0165,-0.314,196.0781
10:50:02:880,1.2281,0.8234,11.4054,23.4286,0.4007,0.0073,-0.2737,194.6094
10:50:02:899,1.3573,0.7277,10.3328,23.6239,0.4154,-0.1411,-0.1729,194.1562
10:50:02:920,1.6591,0.6248,9.4424,23.606,0.2987,-0.3561,-0.0562,194.1562
10:50:02:945,2.2433,0.5674,9.8662,23.9878,-0.0305,-0.3958,0.0336,194.1719
10:50:02:959,2.5113,0.2393,11.6234,24.1399,-0.372,-0.2645,0.0531,194.1719
10:50:02:980,2.7915,-0.1005,12.8946,24.2907,-0.3677,-0.1851,-0.0232,193.7812
10:50:03:000,2.8944,-0.0598,12.1023,24.4244,0.0385,-0.1289,-0.1833,193.7812
10:50:03:020,2.4419,-0.0096,9.4878,24.6169,0.529,-0.0452,-0.3506,193.2031
10:50:03:040,2.0183,0.2704,7.1632,24.6641,0.6273,0.1124,-0.3989,193.1406
10:50:03:059,1.6089,0.4693,6.7848,24.9264,0.2566,0.2645,-0.3244,192.9062
10:50:03:079,1.3741,0.2441,7.8383,25.2211,-0.2352,0.3146,-0.1533,192.875
10:50:03:100,2.6456,0.0359,10.285,25.2257,-0.6188,0.0281,0.1258,193.1875
10:50:03:120,3.5408,0.3353,10.7758,25.4523,-0.4459,-0.0794,0.0299,193.2188
10:50:03:142,3.5145,0.3592,10.1797,25.3593,-0.0654,-0.0825,-0.2437,193.8438
10:50:03:159,2.7987,0.6392,8.3219,25.4725,0.3586,0.0177,-0.5577,194.375
10:50:03:179,2.1021,1.142,6.5886,25.644,0.5418,0.1191,-0.7416,194.375
10:50:03:199,1.6926,1.6352,6.1457,25.8402,0.4368,0.1075,-0.7684,194.5312
10:50:03:219,1.4151,1.7405,6.5791,25.7704,0.259,0.0727,-0.6695,194.5312
10:50:03:241,1.2329,1.6759,6.7944,26.1272,0.1466,0.088,-0.5131,194.5312
10:50:03:259,1.5108,1.8218,7.4264,26.2676,0.0458,0.0611,-0.3384,194.5469
10:50:03:280,1.6089,1.7046,8.796,26.4359,-0.0318,0.0757,-0.1973,194.5469
10:50:03:298,1.6926,1.6017,9.3299,26.8927,0.0195,0.2993,-0.0843,195.1562
10:50:03:320,1.9008,1.8601,9.6673,26.9373,0.022,0.5485,0.0177,195.1562
10:50:03:342,1.9104,1.8649,10.5796,27.1543,-0.0446,0.4954,0.0635,195.9219
10:50:03:359,1.6711,1.4294,11.415,27.5439,-0.0599,0.3213,0.0855,195.9844
10:50:03:379,1.1898,0.9314,11.7933,28.0519,-0.047,0.2614,0.0855,195.9844
10:50:03:399,1.264,1.051,11.822,28.4489,-0.0312,0.2419,0.1002,195.7969
10:50:03:420,1.5778,1.2616,11.767,28.8088,0.0458,0.157,0.1307,195.7969
10:50:03:441,1.5275,1.1157,11.2977,29.0271,0.212,0.0733,0.1338,196.6719
10:50:03:459,1.0582,0.8835,10.5341,29.1453,0.3415,0.0971,0.0996,196.6719
10:50:03:479,0.2994,0.6966,9.7319,29.4423,0.2865,0.1967,0.0678,198.3281
10:50:03:498,-0.6224,0.5483,9.4113,29.5904,0.0647,0.19,0.124,198.3281
10:50:03:520,-1.2975,0.285,9.5668,29.6655,-0.2682,0.1374,0.358,199.5156
10:50:03:541,-0.7014,0.1914,10.218,29.6782,-0.6011,-0.0483,0.7562,199.6406
10:50:03:559,0.9386,0.1771,10.6059,29.5857,-0.6939,-0.4441,1.0568,200.1562
10:50:03:581,2.3964,0.309,10.6777,29.7855,-0.5608,-0.6389,1.0739,200.2188
10:50:03:599,2.5307,0.0072,10.582,29.8448,-0.3641,-0.3641,0.8387,200.2031
10:50:03:621,1.6304,-0.0742,10.3113,30.3922,-0.1979,0.5204,0.3525,200.2031
10:50:03:643,0.3951,0.6727,9.8901,30.8614,-0.2077,0.4111,0.3751,199.9688
10:50:03:660,0.8019,0.8764,9.6553,30.949,-0.1784,0.0428,0.4923,199.7031
10:50:03:679,1.3836,0.9864,9.3203,31.0497,-0.1112,-0.2724,0.5394,199.7031
10:50:03:699,1.774,1.3286,8.8702,31.3286,-0.0367,-0.2975,0.4661,199.6875
10:50:03:718,1.908,1.6304,8.808,31.5813,0.014,-0.1112,0.3421,199.4062
10:50:03:739,1.3836,1.6065,8.8367,31.8351,0.0843,0.1148,0.2065,199.375
10:50:03:759,0.9721,1.8864,8.7649,32.1056,0.1723,0.237,0.1411,199.2188
10:50:03:779,0.7923,2.2504,8.5397,32.0887,0.2309,0.237,0.179,199.2031
10:50:03:799,0.8572,2.339,8.3722,32.2894,0.2346,0.1362,0.2914,198.625
10:50:03:820,1.5036,2.3988,8.8439,32.9488,0.1521,0.0165,0.4227,198.6094
10:50:03:842,2.1117,2.3797,9.8157,33.3376,0.0733,-0.0599,0.4557,196.625
10:50:03:859,2.3725,2.3127,10.4767,33.6349,0.0965,-0.0385,0.3946,196.5938
10:50:03:879,2.4108,2.26,11.2211,33.992,0.1686,-0.0061,0.2926,194.5781
10:50:03:899,2.5427,2.2098,11.968,34.3037,0.2792,0.0641,0.1961,193.5156
10:50:03:919,2.4538,2.0207,11.8196,34.7839,0.4722,0.1112,0.1032,193.5156
10:50:03:940,2.3821,1.7764,11.1517,35.0644,0.6353,-0.0324,0.025,192.5
10:50:03:960,2.0877,1.4342,10.9074,35.4227,0.642,-0.1857,-0.0385,192.5
10:50:03:980,2.0279,1.4773,10.6753,35.6156,0.5369,-0.1924,-0.0544,191.4375
10:50:03:998,1.9199,1.4342,10.5772,36.0621,0.3763,-0.1961,-0.0238,191.4375
10:50:04:020,1.5754,1.0558,10.7997,36.6196,0.1723,-0.1961,0.0647,190.8281
10:50:04:041,1.4916,0.6057,11.4556,36.9813,-0.0825,-0.1277,0.2217,190.8281
10:50:04:060,1.8003,0.134,12.0975,37.3133,-0.2755,-0.1649,0.35,190.4688
10:50:04:079,2.6169,0.0981,11.9393,37.5646,-0.2474,-0.3341,0.3567,190.4375
10:50:04:099,3.591,0.4334,10.9819,37.9193,0,-0.4765,0.2107,189.7344
10:50:04:121,3.6894,0.3018,9.4567,38.2839,0.3128,-0.3946,-0.044,189.6562
10:50:04:143,2.6145,0.067,7.9388,38.7103,0.2401,0.4013,-0.3842,188.8281
10:50:04:159,0.5459,0.3712,7.7067,38.9884,-0.1405,0.4624,-0.2468,188.7344
10:50:04:179,1.3143,0.6057,8.8654,39.1105,-0.4435,0.2162,0.0183,188.25
10:50:04:198,2.5881,0.6009,9.6912,39.6952,-0.4832,0.0104,0.193,188.2031
10:50:04:218,3.0933,0.3951,9.4041,40.3008,-0.2694,-0.0403,0.1014,188.0938
10:50:04:241,2.9016,0.5865,8.5134,40.8378,-0.0049,-0.014,-0.1619,188.0938
10:50:04:259,2.0495,1.0654,7.8191,41.223,0.1558,0.0134,-0.438,188.25
10:50:04:279,1.4797,1.4773,7.7928,41.5537,0.2022,0.0837,-0.5375,188.2812
10:50:04:300,0.9769,1.5371,7.7521,41.9215,0.2346,0.168,-0.496,188.2969
10:50:04:319,0.6081,1.6376,7.3451,42.4131,0.2828,0.1319,-0.3818,188.2969
10:50:04:339,0.6344,1.8075,7.2494,42.7405,0.2431,-0.0367,-0.2022,187.7031
10:50:04:359,1.2712,1.817,7.9101,42.8324,0.1191,-0.1478,-0.0043,187.7031
10:50:04:379,1.6017,1.5897,8.8965,43.2098,0.0061,-0.0226,0.1264,187.1875
10:50:04:399,1.7836,1.5275,9.4137,43.7043,-0.0165,0.1307,0.1698,187.6094
10:50:04:420,2.0614,1.6878,10.2682,43.8954,-0.0452,0.2175,0.204,187.6094
10:50:04:439,1.6496,1.3525,11.3743,44.347,-0.0745,0.2712,0.215,188.1875
10:50:04:462,1.2353,1.1228,12.2004,44.5297,-0.0476,0.2547,0.2291,188.1875
10:50:04:481,1.4844,1.2473,12.387,44.8908,0.0593,0.16,0.2755,187.9219
10:50:04:500,1.9896,1.3214,11.7024,45.3936,0.2346,0.1203,0.3164,187.9219
10:50:04:520,2.2002,1.2951,10.9723,45.7736,0.3573,0.1747,0.2859,187.9688
10:50:04:540,2.2026,1.3956,10.4504,45.9308,0.3891,0.2132,0.1619,187.9688
10:50:04:561,1.6902,1.2401,10.3065,46.0124,0.3812,0.2743,-0.0092,188.9375
10:50:04:581,0.0622,0.6488,9.9308,46.4606,0.3189,0.5137,-0.1197,189.0312
10:50:04:599,-1.1037,0.4741,8.9515,46.6701,0.1075,0.7452,0.0385,189.8906
10:50:04:622,0.8402,1.008,9.2195,46.7974,-0.6463,-0.3066,0.7947,189.9844
10:50:04:645,1.9705,0.7875,9.1478,46.8703,-0.7208,-0.9603,0.8521,190.2344
10:50:04:662,2.4945,0.9099,9.0808,47.1738,-0.6799,-1.0061,0.6487,190.25
10:50:04:680,2.0518,1.0582,9.9356,47.596,-0.6774,-0.4581,0.3476,189.9531
10:50:04:699,0.6344,0.699,10.9313,47.6815,-0.587,0.2578,0.1032,189.9219
10:50:04:719,-0.498,0.6918,10.7877,47.8001,-0.3744,0.7312,0.0611,189.4375
10:50:04:739,-0.8378,0.9673,10.0122,48.0156,-0.2077,0.6579,0.2181,189.3906
10:50:04:759,0.2225,1.4486,9.8181,48.2052,-0.1643,0.1307,0.4575,188.8281
10:50:04:779,1.0798,1.3693,9.7008,48.6459,-0.0709,-0.3744,0.5595,188.7656
10:50:04:799,1.276,1.4127,8.688,48.9204,0.1283,-0.4435,0.4905,188.1562
10:50:04:819,1.4222,1.8218,7.8024,49.0232,0.2028,-0.1686,0.4093,188.0938
10:50:04:887,1.4653,1.9896,8.0441,49.0123,0.1093,0.1326,0.3659,187.875
10:50:04:887,1.1252,1.8314,8.93,49.3066,0.0593,0.2541,0.3311,187.7969
10:50:04:888,0.9218,1.8984,8.8606,49.6529,0.1539,0.2572,0.317,187.7969
10:50:04:899,1.0056,2.0782,8.3602,49.9425,0.2095,0.1539,0.3372,186.3438
10:50:04:920,1.4677,2.1428,8.8367,49.8925,0.1326,-0.0006,0.3598,186.3438
10:50:04:940,1.6783,2.0518,9.6984,49.9324,0.0702,-0.0055,0.3286,184.9062
10:50:04:963,1.4773,2.0112,9.9763,50.3275,0.1313,0.1155,0.2382,184.9062
10:50:04:981,1.3047,2.1356,10.0409,50.6344,0.2077,0.1631,0.1765,184.3906
10:50:04:999,1.3573,1.9681,10.8715,51.0277,0.226,0.1026,0.1894,184.3906
10:50:05:021,1.3167,1.3669,11.3934,51.1789,0.2388,0.1729,0.2419,183.9062
10:50:05:040,1.8888,1.1204,11.8125,51.3409,0.2169,0.3183,0.2889,183.9062
10:50:05:059,2.406,0.9386,11.8484,51.443,0.1759,0.3201,0.2785,182.9062
10:50:05:081,2.2792,0.4813,11.403,51.8395,0.1185,0.0476,0.2144,182.7969
10:50:05:099,2.1787,0.3879,11.6091,52.2339,-0.069,-0.2517,0.201,181.9688
10:50:05:122,2.6408,0,12.1549,52.0103,-0.2272,-0.3769,0.2236,181.8906
10:50:05:139,3.1842,0.0742,11.4724,52.163,-0.1747,-0.3402,0.2272,181.1562
10:50:05:162,3.0763,0.1484,10.0505,52.2623,0.1851,-0.1228,-0.0629,181.0781
10:50:05:179,2.5259,0.4238,8.243,52.5554,0.2492,-0.0116,-0.2504,180.3906
10:50:05:200,1.8027,0.6368,7.1178,52.7304,0.0428,0.0269,-0.3054,180.3125
10:50:05:219,1.1659,0.5841,7.3953,52.8502,-0.3744,-0.0244,-0.2181,179.625
10:50:05:242,1.3597,0.443,8.6043,53.0548,-0.7733,-0.0996,-0.0312,179.5625
10:50:05:263,2.0949,0.3855,9.9356,53.0658,-0.9798,-0.0904,0.1087,179.125
10:50:05:281,2.6192,0.3855,10.7136,53.451,-0.9242,0.0092,0.0959,179.0781
10:50:05:299,2.8561,0.4262,10.7279,53.5268,-0.6133,0.033,-0.0574,178.625
10:50:05:319,2.8418,0.5889,9.8303,53.5724,-0.1869,-0.0421,-0.2743,178.5781
10:50:05:339,2.3701,0.766,8.7601,53.4858,0.1216,-0.0531,-0.4765,177.875
10:50:05:364,1.841,0.9458,8.1159,53.591,0.2492,0.0336,-0.5968,177.875
10:50:05:383,1.4055,1.1276,7.7139,53.9194,0.2975,0.088,-0.6102,177.4531
10:50:05:400,1.1157,1.209,7.5078,54.0868,0.292,0.0941,-0.5241,177.0469
10:50:05:420,1.2138,1.2329,7.9244,54.3687,0.2278,0.0843,-0.3812,177.0469
10:50:05:440,1.3908,1.0654,8.7458,54.5744,0.1863,0.1344,-0.2523,177.0156
10:50:05:463,1.5443,1.075,9.2605,54.8323,0.2101,0.2651,-0.1784,177.0156
10:50:05:481,1.7357,1.2305,9.7989,54.9827,0.2578,0.2847,-0.1448,177.625
10:50:05:499,1.8458,1.276,10.8236,55.1243,0.2963,0.2755,-0.1283,177.625
10:50:05:521,1.343,0.9553,11.8938,55.3866,0.3409,0.3708,-0.1381,177.875
10:50:05:540,0.6344,0.6559,12.2722,55.3283,0.3903,0.452,-0.1393,177.875
10:50:05:565,0.4789,0.6655,12.2842,55.2928,0.4093,0.3744,-0.0709,177.6406
10:50:05:581,0.9601,0.711,11.7598,55.2081,0.4355,0.2217,0.0354,177.6406
10:50:05:599,1.5897,0.8596,10.9843,55.2578,0.4166,0.0837,0.0831,177.9375
10:50:05:621,1.4174,0.9051,10.7231,55.1933,0.3146,0.022,-0.011,177.9688
10:50:05:639,0.1531,0.5291,10.9508,55.1553,0.1631,0.1991,-0.1454,179.0469
10:50:05:666,-1.5395,0.2273,10.8978,55.0327,-0.0415,0.5663,-0.1307,179.1562
10:50:05:681,-2.3222,0.213,10.8811,54.9454,-0.339,0.6664,0.1796,180.2969
10:50:05:700,-1.0343,0.5124,10.9289,54.9523,-0.3708,-0.7727,0.9657,180.4062
10:50:05:720,1.2927,0.6105,10.3256,54.9633,-0.1698,-1.0336,0.8515,181.0312
10:50:05:739,2.6097,0.4238,9.4017,54.9046,-0.0281,-0.5363,0.4184,181.0938
10:50:05:760,0.6129,0.4478,9.507,54.7957,-0.0067,0.3121,-0.0434,181.3906
10:50:05:780,-1.13,0.51,9.3586,54.7786,-0.0263,0.8234,-0.1613,181.4219
10:50:05:799,-1.8266,0.5315,9.064,54.7522,-0.0874,0.6579,0.0611,181.625
10:50:05:819,-0.7612,0.7564,8.863,54.9286,-0.1607,0.0611,0.4154,181.6562
10:50:05:839,0.6296,0.9123,8.6593,54.6046,-0.1442,-0.463,0.6047,181.8125
10:50:05:860,1.1683,0.984,8.1425,54.4656,-0.0153,-0.565,0.5388,181.8281
10:50:05:880,1.1372,1.1611,7.4145,54.3505,0.1271,-0.2993,0.3769,181.7031
10:50:05:900,0.6775,1.3047,6.9236,54.2275,0.1668,0.0916,0.2535,181.8594
10:50:05:921,0.1771,1.3741,7.0603,53.9894,0.1069,0.3225,0.2321,181.8594
10:50:05:940,0.0909,1.5443,7.5918,53.9169,0.0287,0.3555,0.317,181.6094
10:50:05:964,0.4908,1.6902,7.867,53.7628,-0.0165,0.2529,0.4313,181.6094
10:50:05:980,1.0175,1.7381,8.3124,53.6812,-0.0855,0.0702,0.4936,179.875
10:50:05:999,1.4701,1.7309,9.507,53.5818,-0.1716,-0.0244,0.4679,179.875
10:50:06:021,1.7788,1.707,10.6657,53.5999,-0.204,0.102,0.3867,178.6719
10:50:06:040,1.774,1.6687,11.4652,53.394,-0.1368,0.2162,0.2651,178.6719
10:50:06:063,1.8721,1.8194,11.8196,53.1844,-0.0281,0.1087,0.1362,178.7344
10:50:06:082,2.0853,2.0375,12.035,53.1116,0.0739,-0.1435,0.0116,178.7344
10:50:06:099,2.2241,1.9175,12.1167,52.7833,0.1619,-0.2853,-0.0874,178.1562
10:50:06:121,2.3916,1.7309,12.3081,52.6012,0.2016,-0.2114,-0.168,178.0938
10:50:06:139,2.3749,1.6687,12.4205,52.4251,0.2425,-0.0244,-0.273,177.0625
10:50:06:166,2.1715,1.6735,11.6498,52.3164,0.3494,0.0721,-0.3714,176.9688
10:50:06:183,1.829,1.5873,10.6274,52.0612,0.3867,-0.0165,-0.3873,176.375
10:50:06:201,1.5084,1.3406,9.8901,51.944,0.284,-0.2315,-0.3164,176.3125
10:50:06:221,1.6591,1.051,9.8758,51.9681,-0.1918,-0.2456,-0.0715,175.6875
10:50:06:243,2.2193,0.7277,10.7112,51.7894,-0.2517,-0.16,-0.0721,175.6094
10:50:06:265,3.2369,0.6727,10.4169,51.7631,-0.0605,-0.1399,-0.1796,174.6406
10:50:06:285,2.7485,0.5411,8.9994,51.7716,0.1454,-0.1216,-0.328,174.5469
10:50:06:300,2.0207,0.5794,8.0345,51.5313,0.0501,0.1002,-0.3891,173.6562
10:50:06:320,1.3238,0.3784,8.5253,51.4032,-0.2932,0.2315,-0.3402,173.5781
10:50:06:339,1.0391,0.0191,9.9069,51.2948,-0.6261,0.1918,-0.2052,173.125
10:50:06:360,1.3669,-0.1364,11.0704,51.3107,-0.722,0.1295,-0.0629,173.0781
10:50:06:381,2.2074,0.0909,11.1781,51.1605,-0.5528,0.0586,-0.0195,173.2188
10:50:06:399,3.1795,0.4789,10.5245,51.2071,-0.2162,-0.1301,-0.1283,173.7656
10:50:06:421,3.1699,0.4836,9.1669,51.176,0.1771,-0.2639,-0.408,173.7656
10:50:06:439,2.4347,0.7277,7.3044,51.2701,0.482,-0.1955,-0.7214,174.625
10:50:06:464,1.6687,1.2114,5.916,51.4858,0.5333,-0.1075,-0.8821,174.625
10:50:06:481,1.0702,1.7213,5.6931,51.6047,0.3433,-0.1051,-0.8808,175.2812
10:50:06:499,0.8139,2.0734,6.16,51.5462,0.1191,-0.1112,-0.7251,175.2812
10:50:06:520,0.9458,2.0518,7.0074,51.6795,-0.0385,-0.0452,-0.4612,175.4688
10:50:06:539,1.185,1.7429,8.2525,51.6924,-0.1503,0.1148,-0.2321,175.4688
10:50:06:559,1.0941,1.5132,9.3108,51.5328,-0.1759,0.2999,-0.1216,176.0781
10:50:06:582,1.3478,1.5849,9.9882,51.3282,-0.1588,0.4019,-0.0226,176.0781
10:50:06:600,1.6137,1.5993,11.2307,51.0001,-0.1778,0.358,0.0507,176.75
10:50:06:622,1.4964,1.3023,12.2507,51.0093,-0.124,0.3164,0.0434,176.8281
10:50:06:639,1.2185,0.8548,12.763,51.0984,-0.0079,0.3738,0.0275,177
10:50:06:660,0.8378,0.3544,12.9497,50.9716,0.0916,0.4203,0.0067,177.0156
10:50:06:683,0.9051,0.498,12.186,50.7018,0.2529,0.3598,-0.0287,177.1406
10:50:06:701,1.5179,1.063,11.0034,50.6771,0.4001,0.2755,-0.025,177.1406
10:50:06:721,1.075,0.7756,10.2682,50.8464,0.4227,0.0935,-0.2236,178.3438
10:50:06:739,-0.1795,0.2728,10.0217,50.9496,0.339,0.3708,-0.339,178.4688
10:50:06:760,-1.7261,0.0526,9.6051,50.9155,0.0574,0.7874,-0.2749,180.2969
10:50:06:781,-2.3007,0.2345,10.0959,50.9495,-0.4288,0.7532,0.0727,180.4844
10:50:06:801,-0.9051,0.5459,11.2618,50.6676,-0.7129,-0.0079,0.5516,181.7031
10:50:06:819,1.2233,0.4884,11.2451,50.6754,-0.5766,-0.7929,0.8399,181.8125
10:50:06:840,2.3031,0.1244,10.5604,50.3688,-0.259,-0.934,0.7153,182.125
10:50:06:860,1.9295,-0.0694,9.9428,50.2921,-0.0611,-0.3635,0.3354,182.1562
10:50:06:883,0.2704,0.0096,10.1964,50.0762,-0.0385,0.4368,-0.0232,182
10:50:06:958,-1.1922,0.1196,10.1462,49.8963,-0.0244,0.8766,-0.0757,181.8281
10:50:06:959,-1.4462,0.3592,9.7511,49.8838,-0.022,0.6493,0.1613,181.8281
10:50:06:959,-0.1125,0.7062,9.1119,49.6239,0.0055,-0.0367,0.4502,181.7812
10:50:06:960,1.1874,0.7899,8.4894,49.5588,0.088,-0.5595,0.5565,181.7812
10:50:06:981,1.6137,0.9051,7.867,49.3443,0.1698,-0.5327,0.4203,181.9062
10:50:06:999,1.3573,1.197,7.4097,49.2898,0.2193,-0.1833,0.2071,181.9062
10:50:07:020,0.5698,1.4533,7.3355,49.0437,0.1906,0.1845,0.0776,182.5156
10:50:07:039,-0.0072,1.6208,7.5269,48.9686,0.1228,0.3292,0.1008,182.5156
10:50:07:059,0.0287,1.8027,7.8479,48.7769,0.0421,0.2682,0.2358,182.4844
10:50:07:084,0.5243,1.8625,8.3219,48.6742,-0.066,0.0843,0.3708,182.4844
10:50:07:099,0.9793,1.8314,9.1334,48.4183,-0.1533,-0.1313,0.4117,180.9375
10:50:07:121,1.3573,1.9848,9.6123,48.3208,-0.1594,-0.1778,0.369,180.9375
10:50:07:139,1.695,2.2457,10.3137,48.0916,-0.1435,-0.1124,0.2908,180.0156
10:50:07:159,1.8697,2.2146,10.905,48.1807,-0.0739,-0.0935,0.1845,179.9219
10:50:07:184,1.9896,2.1188,11.2427,48.2138,0.0623,-0.2572,-0.0751,179.8594
10:50:07:201,1.3669,2.0064,11.6713,48.233,0.0721,-0.317,-0.2052,179.8438
10:50:07:223,1.4509,1.9415,11.7168,48.3867,0.0971,-0.2376,-0.1558,179.1719
10:50:07:243,2.1236,1.7883,11.8101,48.3872,0.0977,-0.2187,-0.055,179.0938
10:50:07:258,2.5259,1.4028,11.6091,48.4941,0.1191,-0.2352,-0.0525,178.2812
10:50:07:279,2.3725,1.0487,11.0704,48.6101,0.1222,-0.149,-0.1326,178.1875
10:50:07:300,1.8745,0.9003,10.6872,49.0159,0.0006,-0.1093,-0.2059,177.9219
10:50:07:319,2.0088,0.687,11.3839,49.1296,-0.1741,-0.2529,-0.201,177.9062
10:50:07:340,2.6264,0.5148,12.265,48.9829,-0.1729,-0.325,-0.2126,177.5
10:50:07:359,2.5331,0.2201,11.5612,48.8762,0.1466,-0.2706,-0.3775,177.4688
10:50:07:383,1.9056,0.3425,9.2892,48.7327,0.5009,-0.0904,-0.5754,176.6719
10:50:07:403,1.051,0.6248,7.6038,48.5592,0.5058,0.066,-0.6542,175.875
10:50:07:420,0.2946,0.8234,7.2996,48.6968,0.1826,0.1698,-0.5754,175.875
10:50:07:440,-0.012,0.8234,8.176,48.574,-0.2614,0.328,-0.3256,175.6094
10:50:07:459,-0.055,0.4406,9.1502,48.5275,-0.6225,0.3958,-0.0464,175.6094
10:50:07:484,-0.0191,0.1627,9.9069,48.3378,-0.8332,0.2682,0.1655,176.0156
10:50:07:501,0.2584,0.0933,10.2443,48.6506,-0.8949,0.1136,0.3237,176.0156
10:50:07:521,1.0104,0.1675,9.9021,48.5312,-0.7947,-0.0177,0.427,176.3125
10:50:07:540,2.0231,0.3425,9.3586,48.5663,-0.6005,-0.1271,0.4166,176.3125
10:50:07:561,2.8609,0.6488,8.9157,48.3768,-0.3665,-0.0928,0.2639,176.5938
10:50:07:582,3.2465,0.9649,8.511,48.1109,-0.0971,0.0409,-0.0049,176.5938
10:50:07:602,2.8274,0.9912,7.922,48.3256,0.1643,0.1631,-0.3103,177.0781
10:50:07:622,1.7189,0.9266,7.1943,48.2668,0.3158,0.2138,-0.5375,177.0781
10:50:07:641,0.9194,0.996,6.6604,48.467,0.2902,0.1185,-0.6011,177.75
10:50:07:659,0.5865,1.1755,7.3929,48.4254,0.088,-0.0006,-0.5052,177.8125
10:50:07:681,0.7158,1.3645,9.0592,48.4212,-0.1209,0.1344,-0.3415,179.0938
10:50:07:700,0.8067,1.3478,9.9978,48.4892,-0.1118,0.3696,-0.1949,179.2188
10:50:07:724,0.8501,1.1061,10.2802,48.9277,-0.0495,0.1949,0.0067,180.0625
10:50:07:740,0.8907,0.7277,12.4971,48.8776,-0.2407,0.2535,0.0727,180.1406
10:50:07:759,0.8115,0.419,14.0557,48.3805,-0.2291,0.7214,0.1069,179.8594
10:50:07:782,0.8644,0.309,13.6798,48.3636,0.0806,0.8961,0.1075,179.8281
10:50:07:800,1.2233,0.5554,11.2714,48.2425,0.4404,0.4862,0.0861,178.9531
10:50:07:819,1.439,0.8139,9.8782,48.1354,0.4502,-0.1313,-0.0049,178.875
10:50:07:839,0.9386,0.7421,10.8835,48.1241,0.201,-0.325,-0.2089,178.1406
10:50:07:859,-0.2154,0.5171,11.7144,47.9944,0.1093,0.1875,-0.4251,178.0781
10:50:07:883,-2.0183,0.0622,10.9409,47.6776,0.2059,0.8466,-0.4923,178.3594
10:50:07:900,-3.5934,-0.4789,9.5979,47.6256,0.1478,1.0751,-0.2523,179.6562
10:50:07:922,-2.77,0.1507,9.4161,47.8035,-0.2052,0.7061,0.2883,179.6562
10:50:07:940,-0.364,0.7923,10.0887,47.5725,-0.4374,-0.1332,0.7458,180.5625
10:50:07:959,0.8429,0.4358,9.8327,47.4259,-0.3323,-0.832,0.7965,180.5625
10:50:07:985,0.5219,-0.1914,9.7534,47.0252,-0.1203,-0.9743,0.5449,180.7969
10:50:08:001,-0.9745,-0.364,9.8662,46.6701,-0.0116,-0.339,0.2517,180.7969
10:50:08:021,-2.6527,-0.3688,9.7415,46.4417,0.0037,0.4319,0.2138,180.625
10:50:08:040,-3.4522,-0.5794,9.8758,46.2605,-0.1283,0.6615,0.5418,180.625
10:50:08:060,-2.5137,-0.6511,9.7917,45.9912,-0.3085,0.2926,1.0378,180.2188
10:50:08:086,-0.4836,-0.4071,9.2291,45.6802,-0.4087,-0.4532,1.3971,180.2188
10:50:08:099,1.5084,-0.1172,9.1478,45.0394,-0.419,-1.0647,1.4405,180.1875
10:50:08:121,2.4993,0.3018,9.3084,44.4854,-0.2999,-1.0519,1.1551,180.1875
10:50:08:140,2.2768,0.821,8.7506,43.9191,-0.0568,-0.4649,0.711,180.8594
10:50:08:160,1.5586,1.2736,7.6062,43.6851,0.1949,0.0739,0.3836,180.9375
10:50:08:182,0.9482,1.4749,7.0196,43.3549,0.2614,0.2834,0.2443,181.5156
10:50:08:200,0.5506,1.5993,7.5604,42.9789,0.1319,0.4013,0.2169,181.5781
10:50:08:221,0.8043,1.9606,9.5644,42.6175,0.0073,0.7373,0.3079,180.4219
10:50:08:241,1.0439,1.963,9.8133,42.0709,0.1258,0.7251,0.3085,180.2969
10:50:08:260,1.0702,1.9872,9.6817,42.0898,0.234,0.6139,0.2547,179.0781
10:50:08:285,1.3167,2.1117,9.7008,41.9414,0.2321,0.4032,0.1857,178.9688
10:50:08:299,1.5682,2.0064,10.6801,41.9494,0.1185,0.2083,0.0947,178.4688
10:50:08:319,1.386,1.4581,12.0613,41.3992,0.0476,0.2333,-0.0397,178.4219
10:50:08:339,0.9505,1.1228,12.7511,41,0.1069,0.3592,-0.1753,176.7031
10:50:08:359,0.6607,0.9458,12.3559,40.6468,0.2596,0.1594,-0.2663,176.5469
10:50:08:382,0.8931,0.9027,11.7407,40.4813,0.3775,-0.3176,-0.2877,173.7656
10:50:08:402,1.2592,0.7732,11.5588,40.3221,0.3952,-0.4404,-0.303,171.5469
10:50:08:420,1.1157,0.6488,11.0297,40.1254,0.3781,-0.1161,-0.3555,171.5469
10:50:08:439,0.4621,0.3999,11.123,40.0975,0.2517,0.1643,-0.3751,170.8438
10:50:08:460,-0.2177,0.0574,12.1334,39.8444,0.0458,0.1723,-0.3354,170.8438
10:50:08:484,-0.4549,-0.1029,12.0039,40.0333,0.0202,-0.0238,-0.2474,170.2188
10:50:08:503,-0.2154,-0.2369,10.4527,39.9502,0.1093,-0.3555,-0.1087,170.2188
10:50:08:521,0.0263,-0.4645,9.8303,39.7878,-0.0195,-0.518,0.025,170.2031
10:50:08:540,0.3544,-0.4597,10.5628,39.6316,-0.3128,-0.2834,0.1069,169.375
10:50:08:559,0.7134,-0.4358,11.3456,39.6368,-0.4759,0.0538,0.1478,169.375
10:50:08:583,1.0008,-0.498,11.202,39.2522,-0.427,0.0684,0.1167,168.8125
10:50:08:600,1.3238,-0.5865,10.5772,38.8159,-0.2895,-0.2602,0.0177,168.7188
10:50:08:620,1.5108,-0.5052,10.1007,38.5351,-0.1319,-0.5687,-0.1747,168.7188
10:50:08:641,1.4533,-0.055,9.1645,38.1951,0.0776,-0.5143,-0.4117,169.1719
10:50:08:660,1.3717,0.4573,7.8766,38.0361,0.306,-0.3335,-0.573,169.1719
10:50:08:684,1.3645,0.8378,7.0723,37.7526,0.4349,-0.19,-0.6475,169.9531
10:50:08:702,1.4844,1.4581,6.2892,37.7644,0.4551,0.0458,-0.6713,170.0156
10:50:08:720,1.5634,2.1165,5.4203,37.5764,0.3848,0.1313,-0.6371,170.8281
10:50:08:739,1.3358,2.2098,4.896,37.6153,0.2156,-0.1607,-0.5492,170.9062
10:50:08:760,0.699,1.9487,7.8431,37.5401,-0.2853,-0.1833,-0.3335,171.4844
10:50:08:786,0.5124,1.9032,8.6665,37.4774,-0.3213,0.1313,-0.1716,171.5312
10:50:08:800,0.7684,1.5634,9.7654,37.4264,-0.3329,0.1619,0.0171,171.75
10:50:08:820,1.1396,1.3454,11.2211,37.1492,-0.3567,0.3085,0.1136,171.7656
10:50:08:839,1.1468,1.0295,11.9919,37.0259,-0.3024,0.4997,0.1014,171.4531
10:50:08:859,0.8477,0.4478,12.763,36.4328,-0.2346,0.3989,0.0263,171.2344
10:50:08:880,0.6966,0.0263,13.5482,35.949,-0.1319,0.1515,-0.0867,171.2344
10:50:08:901,1.0774,0.3425,12.8276,35.8052,0.1136,0.1118,-0.1942,171.9219
10:50:08:920,1.2999,0.577,11.0058,35.573,0.3464,0.1497,-0.3085,171.9219
10:50:08:939,1.0271,0.687,9.9045,35.4205,0.3036,0,-0.4636,173.4688
10:50:09:006,0.3975,0.577,11.2953,35.2922,0.0776,-0.0819,-0.6261,173.4688
10:50:09:007,-0.5195,0.4238,12.3583,35.2187,-0.0128,0.4056,-0.7403,173.4844
10:50:09:007,-1.5993,0.2584,11.8579,35.1961,0.1014,0.7959,-0.7483,174.9844
10:50:09:020,-2.4826,-0.2489,10.5748,35.2599,0.1826,0.598,-0.5779,175
10:50:09:040,-1.8984,-0.0215,10.0241,35.3559,0.0874,0.0507,-0.2614,176.1719
10:50:09:059,-0.4119,0.7995,9.6864,35.2065,0.0367,-0.4478,0.0012,176.6719
10:50:09:080,0.4095,0.7708,9.009,35.0283,0.0996,-0.6958,0.0886,176.6719
10:50:09:103,0.4813,0.1316,9.5333,35.0341,0.1069,-0.532,0.0208,176.4062
10:50:09:120,-0.5818,-0.1172,10.3929,35.2551,0.0446,0.2254,-0.1399,176.4062
10:50:09:141,-2.0686,-0.2827,10.3905,35.3776,0.0709,0.7678,-0.1845,176.1094
10:50:09:160,-2.8513,-0.3975,9.9069,35.1875,0.0446,0.5773,0.047,176.1094
10:50:09:181,-1.9657,-0.256,9.8375,35.0898,-0.1087,-0.0935,0.416,176.3438
10:50:09:201,-0.2584,0.2273,9.7199,35.0267,-0.2059,-0.6414,0.6475,176.375
10:50:09:221,0.8234,0.6559,9.1047,34.9373,-0.1362,-0.8051,0.6108,177.2031
10:50:09:239,1.075,0.9984,8.365,34.9863,0.011,-0.6835,0.4135,177.2812
10:50:09:260,0.6703,1.2401,7.9388,34.9478,0.1301,-0.3305,0.1918,178.625
10:50:09:287,-0.3233,1.6137,7.0508,34.6104,0.2016,0.2395,0.0757,178.7656
10:50:09:301,-0.5052,1.707,7.4312,34.2679,0.0782,0.1222,0.1472,179.9844
10:50:09:320,-0.3616,1.8888,8.0513,34.2503,-0.0654,0.0189,0.2474,180.0938
10:50:09:339,0.0502,2.0566,8.8893,34.5084,-0.1545,-0.066,0.3335,180.4219
10:50:09:359,0.3999,1.9175,9.8037,34.4193,-0.1368,-0.149,0.347,180.4531
10:50:09:379,0.5578,1.8793,10.2347,34.4635,-0.0593,-0.08,0.2865,180.5156
10:50:09:402,0.9864,2.1811,10.5413,34.3607,-0.0098,-0.055,0.2052,180.75
10:50:09:419,1.4127,2.3079,11.3575,34.3145,0.0348,-0.1399,0.1081,180.75
10:50:09:439,1.4629,2.0949,11.6976,34.3408,0.1295,-0.0611,-0.0379,180.25
10:50:09:459,1.0726,1.8888,11.9704,34.553,0.2095,0.0696,-0.1881,180.2031
10:50:09:480,0.3209,1.5251,12.2842,34.5817,0.3073,0.0159,-0.284,180.1875
10:50:09:501,0.4023,1.6137,12.047,34.4058,0.4227,-0.0501,-0.2456,178.9375
10:50:09:521,1.0534,1.7477,11.1015,34.5031,0.4899,-0.0593,-0.1435,178.9375
10:50:09:541,1.2138,1.3693,10.4025,34.4566,0.4251,-0.2321,-0.1069,178.4062
10:50:09:560,1.1946,1.0941,10.3783,34.6687,0.2376,-0.3818,-0.1161,178.4062
10:50:09:580,1.1492,0.9027,10.7901,34.6584,0.0391,-0.2633,-0.1093,178.25
10:50:09:603,1.1276,0.6344,11.0417,34.8833,-0.0483,-0.1087,-0.0892,177.7969
10:50:09:621,1.3645,0.5028,10.8284,35.0985,0.0024,-0.1173,-0.0757,177.7969
10:50:09:641,1.8817,0.6655,10.0863,35.4023,0.1032,-0.0727,-0.102,177.0469
10:50:09:659,1.7955,0.5435,9.1956,35.614,0.1442,0.1008,-0.1582,177.0469
10:50:09:679,1.1874,0.1747,8.6833,35.7395,0.0373,0.2578,-0.1869,176.5625
10:50:09:702,0.7253,0.0191,8.9874,36.0833,-0.2266,0.3231,-0.135,176.5156
10:50:09:720,0.5698,0.0837,9.6673,36.2944,-0.5082,0.2676,-0.0281,176.4688
10:50:09:739,0.8402,0.0718,10.3519,36.7043,-0.6176,0.0336,0.0794,176.4688
10:50:09:759,1.3334,0.012,10.3735,36.9386,-0.5351,-0.1057,0.1124,176.9844
10:50:09:782,2.0734,0.862,9.0425,36.8015,-0.1857,-0.0819,-0.1649,177.0312
10:50:09:802,1.9415,1.2042,8.3148,36.8157,0.033,-0.1637,-0.3592,177.5312
10:50:09:821,1.6663,1.4509,7.5006,36.885,0.1924,-0.0617,-0.4856,177.5781
10:50:09:839,1.2832,1.6543,6.7298,37.0977,0.2553,0.0776,-0.5492,177.9531
10:50:09:860,1.0941,1.9705,6.6915,37.1869,0.1784,0.1045,-0.5394,178
10:50:09:879,0.8979,2.1691,7.156,37.2455,0.0293,0.1124,-0.4881,178.25
10:50:09:903,0.6631,2.2313,7.7282,37.4628,-0.0812,0.0996,-0.4044,178.4844
10:50:09:919,0.6559,2.1619,8.7099,37.5328,-0.1839,0.08,-0.2828,178.4844
10:50:09:939,0.4501,2.0231,10.1198,37.9755,-0.2712,0.1301,-0.1918,178.5156
10:50:09:960,0.1819,1.8697,11.4437,38.3547,-0.2352,0.1802,-0.1112,178.8594
10:50:09:980,0.0694,1.6854,12.2315,38.6005,-0.0983,0.226,0.011,178.8594
10:50:10:002,0.1771,1.2568,12.6168,38.7567,0.0061,0.2627,0.1405,178.8594
10:50:10:020,0.6248,0.7732,13.0525,38.901,0.0171,0.2419,0.2285,178.8594
10:50:10:041,1.3095,0.6703,13.1028,39.137,0.0489,0.1912,0.2266,178.5312
10:50:10:059,1.9439,0.8186,12.3464,39.0723,0.1906,0.091,0.1313,178.6406
10:50:10:080,2.636,1.1157,11.4293,39.3628,0.3115,-0.0116,0,178.6406
10:50:10:103,2.557,1.2042,11.2427,39.5254,0.3641,-0.0476,-0.2504,179.6094
10:50:10:120,1.3765,0.8979,10.8595,39.714,0.4465,0.1405,-0.5699,179.6094
10:50:10:140,-0.0957,0.5865,9.7056,40.1194,0.4795,0.4374,-0.7788,180.8438
10:50:10:159,-1.6854,0.2465,9.4089,40.6008,0.2822,0.5571,-0.8094,180.8438
10:50:10:179,-2.5065,0.2704,10.0768,40.8755,-0.0788,0.6261,-0.5858,181.7969
10:50:10:204,-1.7166,0.7397,10.9747,41.0528,-0.2614,0.3885,-0.1955,181.7969
10:50:10:220,-0.1196,1.0487,10.7112,41.7205,-0.0745,-0.168,0.0983,182.2031
10:50:10:240,0.2898,0.6823,9.6864,41.9024,0.3048,-0.5467,0.0935,182.25
10:50:10:260,-0.5124,0.1531,8.8176,42.1692,0.5198,-0.3085,-0.0721,182.2656
10:50:10:282,-1.8147,-0.0574,8.1975,42.5115,0.2071,0.5675,-0.1271,182.2656
10:50:10:301,-3.6078,0.1651,8.566,42.8762,-0.1197,0.529,0.204,181.8594
10:50:10:321,-2.4179,0.3736,8.8439,42.9789,-0.405,0.1839,0.6756,181.8125
10:50:10:338,-0.3305,0.7828,8.8367,43.2269,-0.5039,-0.3531,0.9804,181.4531
10:50:10:359,1.1372,1.0391,8.6234,43.8146,-0.4105,-0.7037,0.9603,181.75
10:50:10:379,1.5897,1.1755,8.0536,43.783,-0.1936,-0.6133,0.7068,181.75
10:50:10:404,0.8572,1.4366,7.3307,44.0303,-0.0403,-0.1649,0.3806,183.1719
10:50:10:419,0.0981,1.8601,7.0316,44.1115,-0.0281,0.1894,0.2034,183.1719
10:50:10:439,0.3257,2.0949,7.599,44.0708,-0.0867,0.2126,0.2236,183.3125
10:50:10:459,0.9888,1.9582,8.2047,44.1015,-0.1032,0.1063,0.2859,184.6094
10:50:10:479,1.5395,1.8912,8.808,44.2468,-0.0079,0.0018,0.234,184.7344
10:50:10:503,1.4653,1.8625,9.4065,44.3792,0.1301,-0.025,0.0531,184.7656
10:50:10:522,0.9051,1.9152,9.5261,44.4098,0.1949,0.0415,-0.1545,184.7656
10:50:10:540,0.1866,2.4347,9.7822,44.7023,0.047,0.1197,-0.2938,184.9844
10:50:10:560,-0.3879,2.9518,11.0536,44.7562,-0.1894,-0.0116,-0.3152,185.3281
10:50:10:580,-0.4454,2.9351,12.2267,45.0174,-0.2187,-0.2492,-0.1839,185.3281
10:50:10:603,-0.1771,2.5161,12.4995,45.3695,-0.0257,-0.3225,0.0171,184.1875
10:50:10:620,-0.1484,1.9705,12.6577,45.5339,0.1295,-0.1069,0.1289,184.1875
10:50:10:640,0.1651,2.059,12.7941,45.7398,0.1753,0.3073,0.1808,182.0469
10:50:10:660,0.4836,2.2839,12.466,46.0592,0.2162,0.5571,0.2169,182.0469
10:50:10:680,0.28,1.8218,11.5804,46.1063,0.2327,0.3909,0.2443,180.9219
10:50:10:703,-0.213,1.2209,10.8069,46.4426,0.1301,-0.0715,0.2853,180.9219
10:50:10:720,-0.2632,0.8163,10.9241,46.8583,-0.1252,-0.4716,0.3922,180.4219
10:50:10:740,0.5052,0.5554,12.035,47.1821,-0.4245,-0.5467,0.5052,180.375
10:50:10:760,1.5419,0.6488,12.6048,47.4798,-0.4148,-0.46,0.4899,179.8125
10:50:10:780,2.1452,0.4884,11.4724,47.5271,0.0281,-0.3916,0.3256,179.7656
10:50:10:805,1.8529,0.2345,8.8893,47.6377,0.5437,-0.2181,0.0922,179.9062
10:50:10:822,1.4028,0.3855,6.5719,47.7797,0.1985,0.3457,-0.0641,179.9219
10:50:10:839,0.297,-0.0455,7.3307,48.1328,-0.4887,0.3311,0.0495,180.4844
10:50:10:860,0.297,-0.4789,9.2243,48.2031,-0.9963,0.1155,0.2052,180.75
10:50:10:881,0.4621,-0.4932,10.704,48.2167,-1.1881,-0.0544,0.3256,180.75
10:50:10:903,1.1922,-0.2225,11.1852,48.3443,-1.0427,-0.2376,0.3854,180.7812
10:50:10:921,2.3988,0.3329,10.5556,48.3481,-0.6487,-0.4093,0.3494,180.4844
10:50:10:940,3.2393,0.6918,9.3323,48.6111,-0.2107,-0.4624,0.1692,180.4531
10:50:10:960,3.3063,0.9242,7.9508,48.8067,0.1246,-0.3525,-0.1381,179.9375
10:50:10:980,2.4491,1.2449,6.8518,48.9509,0.2468,-0.0812,-0.4697,179.8906
10:50:11:003,1.5227,1.6256,6.1576,49.1032,0.1851,0.0263,-0.6457,179.2188
10:50:11:020,1.1731,2.0303,6.6891,49.1404,-0.0244,-0.1081,-0.6231,179.2031
10:50:11:082,1.1396,2.0686,7.9149,49.6152,-0.2419,-0.0757,-0.4795,178.1562
10:50:11:082,1.2042,1.7716,8.7123,49.8221,-0.3109,0.1313,-0.3464,178.1406
10:50:11:082,1.185,1.5826,9.4926,49.9168,-0.3079,0.226,-0.2938,177.8438
10:50:11:099,1.3645,1.7357,10.8093,50.2548,-0.2944,0.2706,-0.2981,178
10:50:11:120,1.1252,1.7692,11.9536,50.4396,-0.1778,0.3494,-0.3183,178
10:50:11:141,0.3951,1.3095,12.0015,50.7813,0.047,0.3445,-0.3219,177.4688
10:50:11:161,0.1005,0.9721,12.0422,50.9175,0.1087,0.3207,-0.2413,177.4688
10:50:11:179,0.2512,0.7636,13.0669,51.077,-0.025,0.3439,-0.1478,176.4375
10:50:11:204,0.486,0.577,13.6032,51.0202,-0.0098,0.2889,-0.0928,176.4375
10:50:11:220,0.862,0.4621,13.3113,51.2538,0.2101,0.1723,-0.0825,175.8594
10:50:11:241,1.0678,0.5865,12.7941,51.614,0.441,0.1845,-0.1594,175.8594
10:50:11:260,0.8354,0.6129,12.2363,51.7637,0.6408,0.193,-0.3109,176.5312
10:50:11:279,0.2369,0.2345,11.2427,52.1321,0.835,0.1527,-0.4697,176.6094
10:50:11:303,-0.5626,0.1484,9.9165,52.4976,0.9254,0.1674,-0.5791,177.9062
10:50:11:323,-2.4012,0.0646,8.3076,53.0666,0.3726,0.4178,-0.2578,178.0312
10:50:11:341,-1.992,0.3832,8.8008,53.572,-0.1008,0.2083,0.1735,178.7969
10:50:11:359,-0.3138,0.4358,9.6482,54.0006,-0.3457,-0.2932,0.5638,178.8906
10:50:11:379,0.7636,-0.0502,10.515,54.306,-0.3207,-0.5937,0.6542,179.3594
10:50:11:399,0.4645,-0.6296,11.0249,54.5712,-0.1332,-0.3824,0.4349,179.4062
10:50:11:420,-0.6799,-0.5722,11.001,54.7838,0.0538,0.1936,0.1277,179.9688
10:50:11:440,-2.004,-0.2249,10.7686,54.9126,0.1319,0.6389,-0.0067,180.0312
10:50:11:459,-2.6384,0.0383,10.6011,54.9667,0.146,0.6475,0.1185,180.375
10:50:11:479,-1.8147,0.5674,9.6075,54.8687,0.2285,0.2926,0.3989,180.4062
10:50:11:500,-0.4573,0.874,8.1254,54.5307,0.3659,-0.1845,0.598,180.5938
10:50:11:521,0.4119,1.2497,6.9188,54.5916,0.4111,-0.441,0.5724,180.5938
10:50:11:541,0.5435,1.6974,6.3227,54.7728,0.3622,-0.4514,0.4019,181.2344
10:50:11:560,0.2297,2.0064,6.3251,54.7703,0.2663,-0.2792,0.2272,181.2344
10:50:11:579,-0.2994,2.2385,6.5815,54.8508,0.1692,0.0092,0.157,182.6094
10:50:11:600,-0.9147,2.3246,6.67,54.9916,0.0935,0.204,0.2052,183.5938
10:50:11:621,-0.7804,2.5161,6.6772,54.9355,0.0006,0.1484,0.358,183.5938
10:50:11:641,0.067,2.557,7.101,54.9236,-0.1637,0.0354,0.5412,182.75
10:50:11:660,0.4956,2.3079,8.152,55.2132,-0.3964,0.0324,0.5913,182.75
10:50:11:680,0.6751,2.3797,9.763,55.2394,-0.6017,0.0654,0.5027,181.5938
10:50:11:703,0.7612,2.5331,11.6019,55.0177,-0.6499,0.0733,0.369,181.5938
10:50:11:720,0.5841,2.4132,12.909,55.0921,-0.4789,0.0574,0.2321,181.375
10:50:11:740,0.352,2.2792,13.2323,55.0126,-0.1405,-0.0031,0.1014,181.375
10:50:11:760,0.213,2.2792,12.9497,54.9464,0.1429,0.0391,0.0171,180.7969
10:50:11:781,-0.1819,2.0303,12.6,54.9157,0.2297,0.1539,-0.0043,180.75
10:50:11:805,-0.2106,1.8625,12.3894,54.8702,0.1967,0.1093,0.0495,179.7656
10:50:11:822,0.929,1.3286,12.1932,54.8091,0.1454,-0.0507,0.1515,179.2188
10:50:11:841,1.3047,1.0678,12.035,54.6924,0.1142,-0.1674,0.2138,179.2188
10:50:11:860,1.3286,0.8019,11.7096,54.5975,0.1234,0.0281,0.1332,179.1719
10:50:11:879,1.4174,0.7708,11.3934,54.5377,0.1069,0.0513,0.0745,178.8281
10:50:11:898,1.5443,0.7397,10.4288,54.5736,0.1991,-0.1698,0.0287,178.7812
10:50:11:922,1.908,0.8282,9.0879,54.4366,0.3103,-0.3561,0.0049,177.8281
10:50:11:942,1.7907,0.6727,8.1159,54.4938,0.281,-0.3054,-0.0305,177.75
10:50:11:959,1.5275,0.5243,7.8144,54.4317,0.0538,-0.036,-0.0495,176.5
10:50:11:979,1.1563,0.4214,8.5445,54.4079,-0.2914,0.2071,-0.025,176.375
10:50:12:001,1.0582,0.3879,9.4496,54.3778,-0.5351,0.237,0.0348,175.6094
10:50:12:022,1.439,0.285,10.5867,54.5001,-0.5895,0.1435,0.1051,175.5312
10:50:12:040,1.7022,0.1196,11.0178,54.4827,-0.4752,0.1936,0.0727,175.375
10:50:12:060,1.9104,0.1747,10.4049,54.3516,-0.2278,0.193,-0.0812,175.375
10:50:12:081,1.9271,0.6344,9.2267,54.2757,0.0434,-0.0629,-0.3237,175.3594
10:50:12:098,1.5802,1.0726,8.1425,53.9314,0.2462,-0.3231,-0.5516,175.0156
10:50:12:120,1.063,1.3334,7.2206,53.9855,0.3482,-0.3305,-0.6744,175.0156
10:50:12:142,0.5865,1.6424,6.4208,53.9625,0.3268,-0.2052,-0.7013,174.7031
10:50:12:160,0.443,2.0279,6.6509,53.8834,0.1594,-0.1161,-0.6163,174.7031
10:50:12:181,0.2946,2.1763,7.381,53.7017,-0.014,0.0153,-0.4667,174.6562
10:50:12:205,0.3784,2.0662,7.7761,53.6521,-0.091,0.1338,-0.2828,174.6562
10:50:12:219,0.7995,1.9896,8.6904,53.645,-0.171,0.1533,-0.1478,174.8594
10:50:12:242,0.9577,1.8984,10.1892,53.8127,-0.2504,0.2541,-0.1197,174.8594
10:50:12:260,0.632,1.7501,10.9289,54.2245,-0.1613,0.3262,-0.1643,174.8906
10:50:12:280,0.3281,1.8003,11.1517,53.9187,0.0128,0.2278,-0.1833,174.8906
10:50:12:299,0.0191,1.6256,11.4174,53.7768,0.0965,0.215,-0.1368,174.5625
10:50:12:324,0.0526,0.9577,12.119,53.6527,0.0776,0.3268,0.0055,174.5312
10:50:12:342,0.2273,0.9147,11.8795,53.5235,0.1442,0.2871,0.0031,174.3906
10:50:12:361,0.4334,1.118,11.3049,53.4778,0.2596,0.1991,-0.0562,174.375
10:50:12:380,0.6057,1.2688,10.5532,53.1783,0.3867,0.0501,-0.1503,175.3281
10:50:12:399,0.1507,0.8644,9.7798,52.8643,0.4539,0.069,-0.2987,175.4219
10:50:12:424,-0.9745,0.6727,9.0377,52.465,0.3268,0.336,-0.4374,176.9531
10:50:12:441,-2.6886,0.3784,9.0305,52.5806,-0.0147,0.5601,-0.4203,177.1094
10:50:12:459,-3.5384,0.376,9.8853,52.5268,-0.4942,0.554,-0.1093,178.2344
10:50:12:479,-2.7293,0.62,11.0632,52.5579,-0.7855,0.0904,0.3787,178.3438
10:50:12:499,-0.7588,0.6799,11.1637,52.4903,-0.675,-0.6121,0.7691,178.7188
10:50:12:522,0.5124,0.3616,10.9074,52.3527,-0.3848,-0.9694,0.824,178.75
10:50:12:540,0.6511,0,10.9217,52.2262,-0.1173,-0.62,0.5919,178.9219
10:50:12:560,-0.2994,0.0574,10.4599,52.3488,0.08,0.234,0.2865,179.2344
10:50:12:580,-1.4318,0.1842,9.8327,52.3679,0.1454,0.7874,0.1564,179.2344
10:50:12:599,-1.9415,0.3425,9.4376,52.3637,0.0519,0.6127,0.2657,179.2344
10:50:12:623,-1.1539,0.5818,9.1693,52.2912,-0.069,-0.0764,0.4771,179.2344
10:50:12:641,0.079,0.9194,8.9803,52.1487,-0.11,-0.6768,0.5931,179.2969
10:50:12:661,0.5985,1.13,8.5493,52.0822,-0.0403,-0.7801,0.5143,179.2969
10:50:12:680,0.5913,1.4127,8.0895,51.8272,0.0605,-0.4777,0.3573,179.9062
10:50:12:699,0.1292,1.6496,7.8215,51.8725,0.1155,-0.0446,0.2333,179.9062
10:50:12:724,-0.3209,1.6974,7.721,51.4164,0.1173,0.1869,0.2052,180.7812
10:50:12:741,-0.2656,1.9056,7.8263,51.138,0.0586,0.204,0.2663,180.7812
10:50:12:760,0.0431,2.0901,7.9292,50.7166,-0.0434,0.0666,0.3335,180.1562
10:50:12:781,0.3736,2.1212,8.353,50.3988,-0.1558,-0.1698,0.3537,180.1562
10:50:12:798,0.5865,2.1476,9.1454,50.1661,-0.2492,-0.2559,0.3146,178.5781
10:50:12:824,0.6535,2.3174,9.9763,50.128,-0.2828,-0.1252,0.2382,178.4219
10:50:12:840,0.6129,2.4538,10.6131,49.9108,-0.2462,-0.0269,0.1692,177.5781
10:50:12:860,0.8234,2.5089,11.4269,49.7979,0.0305,-0.2303,0.0538,177.5
10:50:12:881,0.9649,2.4203,11.3551,49.786,0.1698,-0.215,-0.0012,176.9219
10:50:12:899,0.8282,2.1093,11.7215,49.6881,0.1686,-0.0721,-0.0593,176.875
10:50:12:924,0.8378,1.829,12.1573,49.6505,0.1888,0.0043,-0.1142,175.875
10:50:12:940,1.2736,1.9319,11.9249,49.7714,0.3164,-0.0079,-0.1545,175.7656
10:50:12:959,1.4844,1.9104,10.9508,49.6435,0.46,-0.0507,-0.2065,175.0469
10:50:12:979,1.3454,1.64,9.9093,49.5631,0.4502,-0.1387,-0.2559,174.9844
10:50:12:999,1.1276,1.5371,9.5285,49.6412,0.237,-0.2932,-0.2792,174.5469
10:50:13:022,0.7349,1.1922,9.9308,49.7827,-0.0538,-0.4007,-0.2547,174.5156
10:50:13:042,0.8979,0.8907,11.214,49.9785,-0.3121,-0.336,-0.1674,173.8125
10:50:13:060,1.6041,0.7756,12.2602,50.0345,-0.3604,-0.2187,-0.1289,173.8125
10:50:13:081,2.2193,0.7875,11.8938,50.0877,-0.1063,-0.1362,-0.2181,173.0781
10:50:13:146,2.1452,0.5937,10.2012,49.8426,0.2395,-0.0531,-0.3787,172.5781
10:50:13:147,1.3813,0.4669,8.5588,49.8094,0.336,0.099,-0.5204,172.5781
10:50:13:147,0.6057,0.5483,8.0847,49.7413,0.0727,0.1906,-0.5418,172.4219
10:50:13:159,0.1172,0.2752,9.3156,49.97,-0.3445,0.077,-0.4306,172.4219
10:50:13:180,0.2489,-0.0646,10.7471,49.7203,-0.5999,-0.0562,-0.2578,172.5625
10:50:13:199,0.5578,-0.2273,11.4197,49.7123,-0.587,-0.0849,-0.157,172.5625
10:50:13:225,1.1779,-0.1053,11.2714,49.8148,-0.3848,-0.0647,-0.1655,172.9375
10:50:13:240,1.8793,0.352,10.4097,49.963,-0.0727,-0.0299,-0.2847,172.9375
10:50:13:259,1.8051,0.5722,8.9539,50.1407,0.2523,-0.0214,-0.4942,173.5938
10:50:13:280,1.3047,0.8764,7.5006,50.2369,0.4557,-0.0226,-0.6805,173.5938
10:50:13:298,0.6607,1.2377,6.5504,50.2765,0.4673,-0.0153,-0.7513,174.25
10:50:13:321,0.2465,1.7501,6.1792,50.2613,0.3152,-0.0293,-0.689,174.3125
10:50:13:340,0.2273,2.1428,6.8997,50.377,0.08,-0.0727,-0.5235,174.6094
10:50:13:360,0.2273,2.0901,7.9914,50.2,-0.0702,-0.0409,-0.3488,174.6406
10:50:13:382,0.285,2.0064,8.5062,50.1651,-0.0629,0.0641,-0.2101,175.2812
10:50:13:400,0.297,2.0423,8.997,50.2293,-0.0134,0.0935,-0.0525,175.3438
10:50:13:424,0.5674,2.1882,9.8901,50.3951,0.047,0.1833,-0.022,176.4219
10:50:13:442,0.3497,1.884,11.0369,50.7943,0.0983,0.325,-0.0189,176.5312
10:50:13:459,0.309,1.7189,11.688,50.7485,0.08,0.4813,0.0153,177.0938
10:50:13:479,0.4645,1.628,12.1262,50.6649,0.0495,0.5357,0.0507,177.1562
10:50:13:499,0.5746,1.5969,11.901,50.9187,0.0977,0.3402,0.0495,177.3906
10:50:13:524,0.4525,1.6472,11.2977,51.3016,0.2065,0.0721,0.0446,177.4062
10:50:13:540,0.0526,1.3478,10.7399,51.5339,0.2211,0.0397,0.0678,178.2031
10:50:13:560,-0.3162,0.7014,10.2826,51.6689,0.0544,0.2407,0.1093,178.2969
10:50:13:580,-1.2329,-0.1172,11.1661,51.9926,-0.3512,0.5412,0.1723,180
10:50:13:599,-1.7907,-0.6129,12.3057,52.0632,-0.7452,0.5711,0.3237,181.4062
10:50:13:626,-0.3784,-0.0694,12.9281,52.4481,-0.8283,0.0574,0.5803,181.4062
10:50:13:641,1.7094,0.5865,12.5234,52.5577,-0.4954,-0.719,0.6774,182
10:50:13:660,2.8466,0.5674,11.4245,52.6294,0.0617,-1.0763,0.4331,182
10:50:13:681,2.2528,0.268,9.8037,52.5856,0.5656,-0.6518,-0.0556,182.1719
10:50:13:699,0.3568,0.1268,8.511,52.8288,0.7733,0.1979,-0.4942,182.1719
10:50:13:720,-1.7716,0.2632,8.08,52.8461,0.6463,0.8619,-0.6102,182.1719
10:50:13:740,-3.2106,0.4645,8.2286,52.918,0.2993,1.0458,-0.3396,182.1719
10:50:13:760,-2.7915,0.5483,8.9061,53.2005,-0.0635,0.5626,0.1814,181.9844
10:50:13:780,-0.6583,0.7277,9.3993,53.309,-0.226,-0.2657,0.6218,181.9844
10:50:13:799,0.9912,0.9601,9.2964,53.4929,-0.1655,-0.7031,0.6848,181.875
10:50:13:820,1.6208,1.3765,8.8008,53.7277,0.0055,-0.5534,0.4478,181.875
10:50:13:841,1.2329,1.7931,8.1927,54.0752,0.1936,-0.1356,0.1319,181.7031
10:50:13:859,0.4095,2.0351,7.721,54.1126,0.325,0.2718,-0.0757,181.6875
10:50:13:882,-0.7062,2.5762,6.7011,54.4918,0.2529,0.4868,-0.0489,180.875
10:50:13:900,-0.8378,2.7389,7.0122,54.6266,0.036,0.1729,0.1057,180.7969
10:50:13:924,-0.4501,2.7604,7.7617,54.6976,-0.1576,-0.19,0.2871,179.4062
10:50:13:943,0.1077,2.5929,8.8726,55.0094,-0.2993,-0.339,0.4068,179.2656
10:50:13:960,0.2584,2.4993,10.0289,55.2451,-0.3738,-0.2847,0.3983,179.1719
10:50:13:979,0.2082,2.4969,11.1733,55.3059,-0.3671,-0.1613,0.3396,179.1562
10:50:13:999,0.2776,2.4371,12.0015,55.1982,-0.2755,-0.0299,0.2999,180.3281
10:50:14:019,0.2608,2.0806,12.3344,55.3076,-0.1167,0.0159,0.2663,180.4375
10:50:14:042,0.3975,1.8434,12.0712,55.1733,0.0586,-0.0385,0.2236,180.4375
10:50:14:060,0.6799,1.8003,11.3288,55.3216,0.1784,-0.1765,0.1778,180.4375
10:50:14:081,1.008,1.8505,10.5389,55.406,0.1997,-0.3415,0.135,179.0781
10:50:14:099,1.3765,1.9606,9.8949,55.2855,0.1435,-0.4532,0.1112,178.5625
10:50:14:120,1.4677,1.5467,9.1693,55.5187,0.0531,-0.4313,0.1124,178.5625
10:50:14:140,1.2066,0.874,9.0377,55.5414,-0.2065,-0.1674,0.1368,178.7812
10:50:14:159,0.7899,0.1723,10.6179,55.8296,-0.6805,0.1466,0.1765,178.7812
10:50:14:180,1.2377,0.1101,12.8587,55.8528,-0.9706,0.2211,0.2169,178.6719
10:50:14:199,2.2289,0.2922,13.3041,56.1113,-0.7068,-0.0214,0.1918,178.6719
10:50:14:219,3.1005,0.2704,11.3958,56.1706,-0.0709,-0.3702,0.0373,177.9062
10:50:14:241,3.0787,0.2752,9.0209,56.202,0.3506,-0.3103,-0.223,177.9062
10:50:14:260,2.0399,0.4071,7.7545,56.3922,0.259,0.1655,-0.4856,177.0469
10:50:14:281,0.5602,0.3162,8.5421,56.6762,-0.1668,0.5522,-0.5907,177.0469
10:50:14:299,-0.1388,0.1579,10.0409,57.139,-0.5339,0.5357,-0.4606,176.3594
10:50:14:322,0.0718,0.122,10.7566,57.4062,-0.6023,0.1411,-0.2395,176.3594
10:50:14:341,1.2281,0.7851,10.424,57.6629,-0.4532,-0.3207,-0.0849,176.0156
10:50:14:359,2.2409,1.3645,9.9045,57.656,-0.2242,-0.5461,-0.1112,175.9844
10:50:14:380,2.3797,1.5395,9.3514,58.0069,0.0159,-0.3885,-0.2895,175.875
10:50:14:400,1.2497,1.9056,7.8909,58.1801,0.2395,-0.0867,-0.482,175.875
10:50:14:426,1.2832,2.1978,7.7186,58.5199,0.3671,0.0305,-0.5522,175.6719
10:50:14:441,1.6017,2.1523,7.4121,58.6344,0.3781,0.1222,-0.3677,175.6719
10:50:14:460,1.6615,1.8745,7.3953,58.6525,0.2657,0.0397,-0.292,175.0156
10:50:14:479,1.8314,1.8505,8.5038,58.7935,0.0806,-0.1014,-0.2718,174.9688
10:50:14:499,1.7166,1.6998,9.9523,59.1506,-0.0562,-0.0556,-0.2761,174.6719
10:50:14:520,1.3908,1.3932,11.2259,59.4798,-0.0531,0.0379,-0.3005,174.6406
10:50:14:543,1.0822,1.3023,11.7072,59.5291,0.069,0.0898,-0.3433,175.4375
10:50:14:560,0.9266,1.3262,11.3121,59.6086,0.2266,0.0269,-0.3812,176.3594
10:50:14:580,0.5076,1.118,10.9436,59.6268,0.2834,-0.088,-0.427,176.3594
10:50:14:600,-0.1866,0.996,10.989,60.0937,0.2169,-0.0819,-0.4581,176.6719
10:50:14:620,-0.4597,1.2473,11.0369,60.3202,0.1539,-0.0073,-0.3848,176.6719
10:50:14:641,0.055,1.5371,11.1446,60.7037,0.1399,0.0446,-0.1997,177.1875
10:50:14:659,0.6799,1.4198,11.0225,60.8733,0.1967,0.0965,-0.069,177.1875
10:50:14:680,0.6823,1.0654,10.7183,61.2142,0.2718,0.1802,-0.0935,178.4062
10:50:14:699,0.2393,1.0128,10.3615,61.2989,0.2621,0.3146,-0.2016,178.4062
10:50:14:721,-0.6775,0.7923,10.0217,61.7518,0.1924,0.3616,-0.259,179.4531
10:50:14:741,-1.5634,0.189,10.0217,62.3544,0.044,0.394,-0.1472,179.4531
10:50:14:760,-1.5012,0.3616,10.3807,62.3949,-0.1674,0.3757,0.113,180.1406
10:50:14:779,-0.4789,0.6248,10.7973,62.4931,-0.2303,0.0544,0.3653,180.1406
10:50:14:799,0.4693,0.4358,10.57,62.6023,-0.091,-0.1973,0.4856,180.75
10:50:14:821,0.4765,0.0287,10.1079,62.6897,0.0721,-0.0825,0.4068,180.75
10:50:14:842,-0.5004,-0.0981,9.7271,62.7124,0.1228,0.259,0.2498,181.5156
10:50:14:860,-1.4028,-0.0526,9.4831,62.9787,0.0519,0.4154,0.2321,181.5781
10:50:14:881,-1.4629,-0.0239,9.5716,63.1632,-0.099,0.2792,0.3977,182.5625
10:50:14:899,-0.7253,0.2249,9.4878,62.8896,-0.2059,0.0403,0.5876,182.6562
10:50:14:921,0.577,0.754,8.9898,62.7977,-0.1148,-0.3806,0.6188,183.2812
10:50:14:942,1.4749,1.1204,8.4368,63.128,0.0049,-0.2498,0.4123,183.3438
10:50:14:960,1.1396,1.6448,7.2948,63.0917,0.0782,0.1014,0.1875,183.5469
10:50:14:980,0.419,1.9271,7.0771,63.0992,0.0586,0.284,0.0544,183.5625
10:50:14:999,-0.012,2.1476,7.57,63.3125,-0.025,0.2358,0.0446,184.0156
10:50:15:019,-0.146,2.2959,8.0991,63.4446,-0.0928,0.1863,0.1136,184.0469
10:50:15:043,0.0766,2.4036,8.6904,63.4498,-0.1497,0.1264,0.2016,183.9844
10:50:15:059,0.2776,2.3964,9.5955,63.7051,-0.1814,0.0446,0.2242,183.9844
10:50:15:082,0.3927,2.4132,10.2969,64.0526,-0.1368,0.0599,0.1918,183.0938
10:50:15:100,0.3808,2.5403,10.6801,63.8186,-0.0501,0.0825,0.1472,182.2969
10:50:15:125,0.4573,2.6025,11.0417,63.8295,0.066,0.0031,0.113,182.2969
10:50:15:143,0.3353,2.5475,10.7351,64.1664,0.1936,-0.0171,0.0953,181.5
10:50:15:224,0.3664,2.4156,10.3304,64.1177,0.2242,-0.0531,0.1136,181.5
10:50:15:224,0.6248,2.2217,10.9409,64.1725,0.1038,-0.0812,0.1613,180.0469
10:50:15:225,0.8835,1.9872,11.5493,64.4259,0.0312,-0.0385,0.1863,180.0469
10:50:15:225,1.1587,1.8745,11.1517,64.6574,0.0867,-0.0593,0.1778,178.9688
10:50:15:248,1.4294,1.6304,10.8141,64.5301,0.0776,-0.1698,0.1582,178.9688
10:50:15:263,1.6184,1.3167,11.0513,64.8944,-0.0495,-0.1985,0.1234,178.9688
10:50:15:281,1.774,1.142,11.5373,65.14,-0.1521,-0.1423,0.077,178.6719
10:50:15:299,1.7788,0.8067,12.0589,65.0831,-0.179,-0.1002,0.0232,178.4219
10:50:15:321,1.9705,0.632,11.7359,65.446,-0.0819,-0.1155,-0.0556,178.4219
10:50:15:344,2.0471,0.6272,10.4192,65.5396,0.0861,-0.2278,-0.1704,177.9219
10:50:15:361,2.1452,0.7038,9.7941,65.5999,0.1167,-0.2737,-0.2694,177.8594
10:50:15:381,1.573,0.4382,9.9117,65.6635,0.0018,0.0134,-0.3616,177.4844
10:50:15:400,0.8186,0.2752,9.9452,66.0068,-0.1362,0.4197,-0.394,177.4375
10:50:15:421,0.2393,0.2704,9.7391,65.9135,-0.2651,0.3482,-0.3183,177.2656
10:50:15:445,0.7828,0.3233,9.3132,65.8186,-0.485,-0.6744,-0.033,177.25
10:50:15:459,1.4629,0.2177,9.1813,65.8592,-0.4581,-0.9175,-0.0092,177.0469
10:50:15:480,1.896,0.2656,9.0138,65.6351,-0.3854,-0.6762,-0.1112,177.0312
10:50:15:500,2.0471,0.8596,9.1693,65.5213,-0.2804,-0.234,-0.2987,176.6875
10:50:15:519,1.7477,1.1515,8.7027,65.5402,-0.0049,0.0452,-0.4697,176.6562
10:50:15:543,1.4151,1.2616,7.3187,65.3004,0.2792,0.1588,-0.532,176.4375
10:50:15:561,1.1874,1.4677,6.4448,65.0165,0.3146,0.1106,-0.5204,176.4062
10:50:15:580,1.4004,1.8577,6.8399,65.1994,0.1167,0.0379,-0.4704,176.2812
10:50:15:600,1.4103,1.9657,7.9603,65.5435,-0.102,0.1069,-0.416,176.5781
10:50:15:620,1.1204,1.7548,8.8463,65.737,-0.1778,0.1649,-0.3781,176.5781
10:50:15:644,1.2018,1.7979,9.7558,65.9087,-0.1979,0.1716,-0.3183,177.3281
10:50:15:661,1.1922,1.7596,10.5915,65.9414,-0.1833,0.1881,-0.2902,177.3281
10:50:15:680,1.142,1.8075,11.0034,65.8966,-0.0727,0.1625,-0.2798,177.9375
10:50:15:700,0.7947,1.6137,11.1852,66.1805,0.0611,0.1826,-0.2657,177.9375
10:50:15:720,0.5004,1.2568,11.5995,66.326,0.0666,0.3641,-0.2193,177.9375
10:50:15:744,0.3138,0.9242,12.478,66.4381,0.0098,0.4875,-0.1765,178.1406
10:50:15:761,0.4095,0.8883,12.7558,66.2844,0.08,0.496,-0.1484,178.1406
10:50:15:782,0.7421,1.0989,11.8077,66.2813,0.2865,0.3677,-0.1478,178.3438
10:50:15:800,0.6775,1.0702,10.8308,66.3068,0.4013,0.1875,-0.201,179.1719
10:50:15:821,0.2058,0.8234,11.0632,66.7883,0.3103,0.1381,-0.2957,179.1719
10:50:15:844,-0.7612,0.5124,11.2857,66.8262,0.2144,0.2969,-0.3744,180.375
10:50:15:863,-2.2863,-0.1507,10.7662,66.8059,0.1448,0.4948,-0.3158,180.375
10:50:15:881,-2.6934,-0.1962,10.5245,67.0115,-0.0996,0.5382,-0.0037,181.25
10:50:15:899,-1.2616,0.486,10.7925,66.9795,-0.3409,0.113,0.4172,181.3438
10:50:15:921,0.7899,0.8282,10.7351,67.0549,-0.2828,-0.5516,0.6542,181.9531
10:50:15:943,0.6966,0.0694,9.4926,66.939,0.2303,-0.5351,0.1961,182.0156
10:50:15:962,-0.8043,0.2034,9.0066,67.0481,0.2724,0.2297,-0.0641,182.5156
10:50:15:983,-2.3438,0.2752,9.1621,66.834,0.1503,0.6646,-0.0483,182.5781
10:50:16:000,-2.7939,0.2034,9.6218,66.9922,-0.0183,0.5278,0.2468,183.0312
10:50:16:020,-1.5706,0.352,9.8423,67.1222,-0.1417,0.0489,0.6273,183.0781
10:50:16:043,0.1986,0.7612,9.7343,66.9392,-0.1332,-0.4496,0.7972,183.3281
10:50:16:063,1.1204,1.0702,9.4208,66.8017,0.0299,-0.62,0.6677,183.75
10:50:16:080,0.9482,1.3167,8.5038,66.8762,0.2779,-0.3573,0.3806,183.75
10:50:16:100,0.297,1.6711,7.5245,66.9953,0.4575,0.0745,0.1442,184.5156
10:50:16:119,-0.4214,2.0088,6.9547,66.906,0.4734,0.3946,0.0501,184.5156
10:50:16:143,-0.8453,2.3174,6.8303,66.8985,0.3561,0.4704,0.1045,184.8281
10:50:16:161,-0.7038,2.5546,7.1369,66.7224,0.1527,0.3952,0.2639,184.8281
10:50:16:181,-0.486,2.4251,7.9531,66.5981,-0.0586,0.1839,0.4129,184.8438
10:50:16:199,0.0072,2.4108,9.1454,66.4712,-0.2065,-0.0568,0.4777,183.5938
10:50:16:221,0.3879,2.5161,10.2036,66.8489,-0.2205,-0.1258,0.4526,183.5781
10:50:16:246,0.4501,2.5355,10.826,67.0121,-0.1032,-0.0318,0.3696,182.9688
10:50:16:262,0.5961,2.6815,11.0393,67.1235,0.0397,0.1362,0.2865,183.0625
10:50:16:282,0.5937,2.6432,10.9986,67.0892,0.1393,0.2315,0.212,183.0625
10:50:16:299,0.7349,2.5259,11.2762,67.0808,0.1588,0.2468,0.1631,182.0156
10:50:16:320,0.7564,2.3629,11.7096,67.1629,0.1381,0.3231,0.1118,182.0156
10:50:16:340,0.7062,2.193,11.4796,67.2997,0.1869,0.3555,0.0525,180.5
10:50:16:360,0.6176,2.0447,10.6585,67.3746,0.2297,0.237,0.0006,180.5
10:50:16:381,0.2656,1.6567,10.3113,67.282,0.1179,0.1228,-0.0293,180.1094
10:50:16:400,0.067,1.4557,10.716,67.2985,-0.1112,0.0764,0.0037,180.0781
10:50:16:420,0.1986,1.185,11.4748,67.2494,-0.295,-0.0342,0.1038,179.9531
10:50:16:444,0.6176,0.7493,12.0087,67.4,-0.361,-0.1155,0.1979,179.9375
10:50:16:464,1.4414,0.7899,11.8268,67.3041,-0.2981,-0.1197,0.2052,179.2031
10:50:16:483,2.1141,0.8402,10.8643,67.3482,-0.1118,-0.2352,0.0861,179.125
10:50:16:499,1.7931,0.7899,8.6067,67.3993,0.1448,-0.1118,-0.2871,178.1562
10:50:16:520,1.0822,0.8548,8.377,67.7554,-0.0244,0.1729,-0.4013,178.0625
10:50:16:545,0.5363,0.7181,8.9994,67.725,-0.2419,0.2633,-0.3934,177.375
10:50:16:565,0.2584,0.3616,9.5644,67.5252,-0.35,0.2358,-0.3176,177.2969
10:50:16:580,0.2393,0.256,9.7798,67.6881,-0.3952,0.1716,-0.2547,176.9062
10:50:16:599,0.4071,0.4047,10.1749,67.6617,-0.4184,0.0287,-0.2437,176.6562
10:50:16:619,0.9218,0.7947,10.5556,67.931,-0.3323,-0.0904,-0.2651,176.6562
10:50:16:645,1.197,0.9649,9.9165,68.0466,-0.0519,-0.1313,-0.3347,176.6875
10:50:16:665,1.1468,1.0702,8.4679,68.0352,0.273,-0.1026,-0.4343,176.6875
10:50:16:681,0.9793,1.3813,7.3953,67.8111,0.4025,-0.0116,-0.5186,176.6719
10:50:16:699,0.5865,1.6424,6.9523,68.0478,0.3451,0.0519,-0.5656,176.4844
10:50:16:720,0.352,1.9199,7.2685,68.4541,0.2089,0.0195,-0.5327,176.4688
10:50:16:745,0.1819,1.9944,8.1592,68.6597,0.0745,0.0354,-0.4447,175.9375
10:50:16:764,-0.0311,1.9582,8.8199,68.9062,0.0055,0.0965,-0.3518,175.9375
10:50:16:781,-0.1292,1.9439,9.3251,68.9247,-0.0073,0.0489,-0.2639,176.0469
10:50:16:799,-0.0072,1.8434,10.0552,69.0679,-0.0128,0.0147,-0.1826,176.8125
10:50:16:821,-0.1101,1.5849,10.5796,69.3952,-0.0092,0.1081,-0.1729,176.8125
10:50:16:845,-0.5315,1.2401,10.8882,69.6845,0.0495,0.2175,-0.2181,177.4062
10:50:16:861,-0.9458,1.0822,11.2211,69.6783,0.069,0.471,-0.2333,177.4062
10:50:16:881,-1.1204,1.4318,11.2977,69.7438,0.0171,0.7361,-0.1765,177.75
10:50:16:899,-0.6344,1.829,10.6466,69.6583,0.0257,0.5656,-0.022,177.7812
10:50:16:921,0.3688,1.7166,9.95,69.9063,-0.0104,0.0977,0.1594,178.3438
10:50:16:939,0.9984,1.2951,10.6083,70.2821,-0.1515,-0.1851,0.1839,178.3906
10:50:16:961,0.5124,0.9625,11.1781,70.4309,-0.2694,-0.0018,0.0024,179.4688
10:50:16:982,-0.8716,0.7851,11.2594,70.6507,-0.3097,0.3445,-0.1387,179.5781
10:50:17:000,-2.2696,-0.0694,12.0784,70.7728,-0.4215,0.4117,0.0977,180.7812
10:50:17:021,-1.0798,0.3425,12.1765,71.1858,-0.372,0.0953,0.3378,180.8906
10:50:17:045,0.1149,0.4358,11.2762,71.3601,-0.1155,-0.372,0.4227,181.7031
10:50:17:063,0.3114,0.0335,10.5532,71.4231,0.1393,-0.5443,0.2938,181.7812
10:50:17:080,-0.5722,-0.2728,10.1533,71.2607,0.2639,-0.1466,0.0391,182.2188
10:50:17:099,-2.083,-0.2321,9.8853,71.0437,0.2535,0.482,-0.1338,182.625
10:50:17:119,-3.2058,-0.1101,9.7176,71.0185,0.1747,0.6744,-0.0623,182.625
10:50:17:139,-3.1436,0.1819,9.3108,70.7566,0.0825,0.394,0.2364,182.6719
10:50:17:161,-1.6496,0.5243,8.554,70.8996,0.0183,-0.0867,0.5944,182.9844
10:50:17:180,-0.2034,0.7469,7.922,70.6665,-0.0122,-0.4563,0.7385,183
10:50:17:199,0.4095,1.1013,7.4719,70.6563,-0.0263,-0.4978,0.6298,182.7656
10:50:17:220,0.2058,1.4509,7.4216,70.873,-0.0367,-0.2401,0.4392,182.7656
10:50:17:283,-0.3999,1.6807,7.3211,71.089,-0.0623,0.1564,0.325,182.4844
10:50:17:283,-0.6966,1.829,7.4049,71.5924,-0.1155,0.3225,0.3366,182.4844
10:50:17:283,-0.632,1.7979,7.8885,71.5564,-0.1936,0.2223,0.4148,182.625
10:50:17:299,-0.3903,1.7261,8.4488,71.7634,-0.2712,0.0776,0.4728,181.9219
10:50:17:321,-0.0359,1.8003,9.2363,71.716,-0.3366,-0.0055,0.474,181.9219
10:50:17:345,0.3497,1.951,10.2921,71.8416,-0.3457,-0.0312,0.4087,181.2344
10:50:17:362,0.4238,1.9801,11.0608,71.9765,-0.2089,-0.0018,0.2853,181.2344
10:50:17:380,0.4478,2.1715,10.6226,71.9681,0.0348,-0.0293,0.1478,181.4062
10:50:17:399,0.7636,2.4562,10.0768,71.8999,0.1942,-0.2694,0.0269,181.4062
10:50:17:421,0.8091,2.394,10.4886,71.8277,0.1326,-0.4288,-0.0794,181.1875
10:50:17:439,0.4454,2.016,11.3432,72.3239,-0.0409,-0.4019,-0.1521,181.1562
10:50:17:460,0.055,1.7883,12.2028,72.3227,-0.1454,-0.4673,-0.1808,179.8906
10:50:17:483,0.055,1.6663,12.4684,72.3189,-0.0379,-0.606,-0.1344,179.7656
10:50:17:500,0.6057,1.5036,11.1541,72.4894,0.248,-0.6298,-0.0104,178.7656
10:50:17:521,1.5371,0.9984,9.5094,72.4043,0.3793,-0.4746,0.0886,178.6562
10:50:17:538,1.1635,0.5578,10.6202,72.7819,-0.1362,-0.0006,0.0226,177.9062
10:50:17:559,0.984,0.3568,11.4772,72.9358,-0.2828,-0.066,-0.0373,176.8125
10:50:17:579,1.398,0.5411,11.324,72.9568,-0.1558,-0.3861,-0.0849,176.8125
10:50:17:599,1.9872,0.6727,10.2802,73.0347,0.0623,-0.5266,-0.1552,175.6875
10:50:17:620,1.5491,0.1986,9.6362,73.3079,0.1326,-0.3219,-0.2645,175.6875
10:50:17:639,0.5985,-0.1866,9.4663,73.7131,-0.0073,0.2083,-0.3445,175.5781
10:50:17:664,-0.3855,-0.256,9.6099,73.956,-0.2559,0.5687,-0.2975,175.1094
10:50:17:679,-0.6942,-0.364,9.9404,74.0371,-0.4306,0.3702,-0.0953,175.0625
10:50:17:699,0.0526,-0.498,9.6171,73.9782,-0.4374,-0.0336,0.1906,175.2812
10:50:17:720,1.0845,-0.833,9.1932,73.9803,-0.4062,-0.295,0.35,175.2812
10:50:17:740,2.071,-0.7181,9.708,74.0671,-0.4783,-0.259,0.284,175.7031
10:50:17:762,2.461,-0.0694,10.5509,73.8616,-0.4575,-0.0519,0.0244,175.7188
10:50:17:780,1.9199,0.431,10.0911,73.8991,-0.1185,0.0788,-0.2773,176.0625
10:50:17:798,1.2257,0.7684,8.0345,73.8262,0.3134,0.0153,-0.4459,176.0625
10:50:17:821,0.9864,1.2018,6.4834,73.6206,0.4068,-0.2028,-0.4771,176.0625
10:50:17:840,1.1539,1.8123,6.6485,73.9955,0.1344,-0.2981,-0.4606,176
10:50:17:861,1.0439,1.9968,7.7976,73.8613,-0.1607,-0.1509,-0.4392,176
10:50:17:881,0.8524,1.9247,8.9946,73.9002,-0.2767,0.0971,-0.3971,176.3594
10:50:17:899,0.5459,1.9128,9.5524,74.084,-0.2333,0.2156,-0.361,176.3594
10:50:17:920,0.7636,2.0064,10.0816,74.3378,-0.1509,0.135,-0.306,177
10:50:17:939,0.9553,1.8984,10.7662,74.5174,-0.0812,0.0983,-0.2608,177.0625
10:50:17:963,0.5722,1.5897,10.9555,74.6695,0.0024,0.1906,-0.2737,177.25
10:50:17:982,0.3592,1.2497,12.5115,74.6698,-0.069,0.3292,-0.2407,177.2656
10:50:18:001,0.079,0.7301,12.9353,74.7532,0.0104,0.3231,-0.2199,176.625
10:50:18:022,0.2417,0.6751,12.5043,75.0353,0.1961,0.2132,-0.1869,176.5625
10:50:18:039,0.7469,1.051,11.7335,75.1422,0.3659,0.1839,-0.1704,176.125
10:50:18:059,0.8091,0.9649,10.8404,75.116,0.507,0.2504,-0.2065,176.0781
10:50:18:080,0.2489,0.3832,9.5524,75.2416,0.6011,0.2969,-0.2596,176.8125
10:50:18:099,-1.0247,-0.3879,8.4799,74.8598,0.4423,0.46,-0.2834,176.8906
10:50:18:120,-2.4586,-0.7899,8.6569,75.0003,-0.1527,0.7575,-0.1539,177.9688
10:50:18:139,-2.4347,-0.553,10.4982,75.159,-0.8711,0.5052,0.1839,178.0625
10:50:18:163,-0.285,0.2058,12.3655,75.0185,-1.0562,-0.4368,0.5608,178.8438
10:50:18:181,2.1595,0.4884,12.2459,74.988,-0.5779,-1.2235,0.6793,178.9219
10:50:18:198,2.8968,0.0526,10.946,75.0898,0.1173,-1.193,0.3335,179.5625
10:50:18:220,1.817,-0.2441,9.6577,75.0681,0.6041,-0.3677,-0.2724,179.5625
10:50:18:240,-0.3162,-0.146,8.7625,75.0371,0.7794,0.6554,-0.7721,180.1094
10:50:18:265,-2.6456,0.0191,8.3626,75.221,0.7312,1.2076,-0.8998,180.1094
10:50:18:280,-4.2784,0.1938,7.879,75.1613,0.5137,1.1435,-0.6237,180.5938
10:50:18:298,-4.156,0.4119,7.7689,75.2923,0.171,0.532,-0.0513,181.0469
10:50:18:321,-2.1069,0.6057,8.5373,75.2307,-0.1894,-0.2126,0.5082,181.0469
10:50:18:340,-0.3042,0.711,9.5716,75.4472,-0.3628,-0.5669,0.7147,181.5938
10:50:18:364,0.5578,1.0128,10.0863,75.4029,-0.2627,-0.3677,0.5876,181.5938
10:50:18:381,0.2273,1.2018,9.5453,75.3729,0.0428,0.0232,0.3305,182.3438
10:50:18:399,-0.419,1.4509,8.7099,75.0993,0.2987,0.3225,0.1503,182.3438
10:50:18:421,-0.6081,1.8673,8.2669,75.2127,0.3372,0.5327,0.1338,182.0156
10:50:18:439,-0.6655,1.9439,8.0106,75.0542,0.2767,0.5186,0.1942,181.9844
10:50:18:465,-0.5578,1.9801,7.8622,75.0201,0.1387,0.273,0.2737,180.5469
10:50:18:481,-0.0431,2.2433,8.7362,75.0863,-0.0898,-0.0629,0.3213,180.4062
10:50:18:499,0.3855,2.3222,10.005,74.9414,-0.1997,-0.2364,0.3134,180.5781
10:50:18:522,0.4765,2.2816,10.6992,74.761,-0.1167,-0.1881,0.2584,180.5938
10:50:18:539,0.6775,2.3844,10.8595,74.5813,0.088,-0.1271,0.1252,182.375
10:50:18:560,0.7253,2.1667,10.9866,74.4227,0.1607,-0.1148,0.0788,182.5625
10:50:18:579,0.8043,1.8721,11.2475,74.2838,0.1979,-0.0354,0.0367,183.2344
10:50:18:600,0.7205,1.6543,11.6641,74.1713,0.1313,0.2578,-0.0232,183.2969
10:50:18:619,0.0024,1.5562,12.1956,73.9191,0.0134,0.5406,-0.1038,182.0469
10:50:18:639,-0.6033,1.398,12.2172,73.6336,-0.0012,0.5137,-0.1069,181.9219
10:50:18:659,-0.6272,1.2927,11.2953,73.2914,0.058,0.2651,-0.0043,180.9844
10:50:18:680,-0.0335,1.3693,10.7231,73.3052,0.0024,-0.0501,0.146,180.8906
10:50:18:700,0.8883,1.1037,11.0608,73.1922,-0.0965,-0.3274,0.2346,180.625
10:50:18:721,1.6783,0.7469,11.1733,73.3274,-0.0886,-0.372,0.1704,180.625
10:50:18:740,1.963,0.4549,11.1422,73.1186,0.033,-0.2333,-0.0641,180.125
10:50:18:764,1.1468,0.3401,10.6561,72.9081,0.1991,0.0599,-0.3836,180.1094
10:50:18:782,-0.0263,0.4573,9.7774,72.8364,0.281,0.3555,-0.5577,179.3906
10:50:18:800,-0.7708,0.4789,9.3514,72.9189,0.1643,0.3787,-0.4911,178.9062
10:50:18:821,-1.0415,0.0718,9.5357,72.9262,-0.0727,0.1338,-0.3024,178.9062
10:50:18:841,-0.4238,-0.0526,10.1988,72.8099,-0.3158,-0.0599,-0.1014,178.75
10:50:18:865,0.2393,0.1531,11.1135,72.6418,-0.4575,-0.1271,-0.0415,178.75
10:50:18:882,0.7205,0.51,11.19,72.4013,-0.314,-0.2517,-0.1246,178.7812
10:50:18:899,1.0654,0.7947,10.0863,72.3916,0.1197,-0.4313,-0.2602,178.7812
10:50:18:921,1.0295,0.8812,8.0752,72.2761,0.5644,-0.4575,-0.405,178.8906
10:50:18:940,1.0128,1.276,6.4881,72.0774,0.7575,-0.3775,-0.5394,178.8906
10:50:18:959,0.874,1.8003,5.7529,71.6693,0.7037,-0.2651,-0.6426,178.75
10:50:18:981,0.5913,2.2313,5.6357,71.5823,0.5241,-0.1405,-0.6823,178.7344
10:50:18:999,0.1962,2.4921,5.7817,71.4076,0.2981,-0.0476,-0.6414,178.3594
10:50:19:022,-0.1436,2.5089,6.44,71.292,0.0568,-0.0525,-0.532,178.3281
10:50:19:040,-0.0144,2.3438,9.1023,71.4052,-0.2663,-0.0159,-0.2523,178.8281
10:50:19:059,-0.0144,1.9992,10.06,71.2754,-0.2052,0.11,-0.1753,178.8906
10:50:19:081,-0.1268,1.3358,10.4384,71.2326,-0.0696,0.3231,-0.1564,179.9375
10:50:19:100,-0.2922,1.0008,10.7471,71.3155,-0.0367,0.5632,-0.201,180.0469
10:50:19:120,-0.7828,0.9434,10.9795,71.5157,-0.1209,0.6719,-0.3054,180.375
10:50:19:139,-0.9505,1.4605,10.9747,71.272,-0.1973,0.5272,-0.3586,180.4062
10:50:19:160,-0.9673,1.762,10.9627,71.1539,-0.2285,0.2602,-0.3024,180.4375
10:50:19:181,-1.3143,1.2233,11.1517,71.2767,-0.2847,0.1326,-0.2101,180.4531
10:50:19:200,-1.4964,0.699,12.1597,70.9504,-0.4319,0.1888,-0.1497,181.3438
10:50:19:221,-2.0925,0.4693,13.6965,70.8658,-0.5858,0.3854,-0.1851,181.4375
10:50:19:241,-3.3924,-0.1651,14.5514,70.6773,-0.5406,0.5339,-0.1845,183.1406
10:50:19:264,-3.7612,-0.5339,14.2017,70.7618,-0.3555,0.4862,0.0635,183.1562
10:50:19:281,-2.1619,0.0766,13.0813,70.632,-0.1087,0.0428,0.4111,184.8125
10:50:19:355,-0.4167,0.3975,11.5205,70.8392,0.2431,-0.5546,0.5638,185.8125
