Time,Acc_X,Acc_Y,Acc_Z,Meg,Gyr_X,Gyr_Y,Gyr_Z,Ore
18:52:02:380,-0.1699,0.6918,9.993,42.1953,-0.1026,0.0489,0.0696,130.0156
18:52:02:401,-0.1914,0.6703,10.0505,42.4053,-0.0825,0.0385,0.0623,130.0156
18:52:02:428,-0.201,0.6751,10.0624,42.2672,-0.069,0.0501,0.0599,130.0156
18:52:02:445,-0.2369,0.6727,10.1198,42.4136,-0.0635,0.0531,0.0574,130.0156
18:52:02:461,-0.189,0.6583,10.151,42.4716,-0.0385,0.0153,0.0348,130.0156
18:52:02:477,-0.3497,0.7086,9.9906,42.4716,-0.0043,-0.0128,0.0147,130.0156
18:52:02:498,-0.4573,0.7516,9.8351,42.3852,0.0238,-0.0147,0.0134,130.0156
18:52:02:517,-0.5411,0.7397,9.7223,42.3525,0.0348,-0.0055,0.0299,130.0156
18:52:02:542,-0.6057,0.7229,9.6793,42.2912,0.0147,0.0342,0.0501,130.0156
18:52:02:558,-0.699,0.6679,9.7295,42.0375,-0.0226,0.0623,0.0617,130.0156
18:52:02:574,-0.7086,0.6129,9.8758,42.0815,-0.0434,0.0538,0.0733,130.0156
18:52:02:593,-0.711,0.577,9.8231,41.9923,-0.0342,0.0403,0.08,130.0156
18:52:02:612,-0.7134,0.5554,9.7487,42.1601,-0.0232,0.0324,0.0819,130.0156
18:52:02:631,-0.7636,0.565,9.7582,42.2981,-0.0354,0.047,0.069,130.0156
18:52:02:650,-0.8501,0.62,9.8133,42.217,-0.0458,0.0715,0.0452,130.0156
18:52:02:669,-0.9649,0.7158,9.8013,42.3733,-0.0312,0.0806,0.0202,130.0156
18:52:02:695,-1.0774,0.8402,9.7487,42.4536,0.0079,0.0831,0.0012,130.0156
18:52:02:710,-1.1539,0.9984,9.641,42.4126,0.0495,0.1167,0.0037,129.8906
18:52:02:730,-1.1994,1.1444,9.629,42.5485,0.0715,0.1716,0.0208,129.8906
18:52:02:750,-1.2162,1.2425,9.6673,42.484,0.0867,0.2425,0.0507,129.7812
18:52:02:768,-1.276,1.3047,9.7989,42.5522,0.1075,0.2987,0.088,129.7812
18:52:02:788,-1.2497,1.3454,9.9428,42.5285,0.1594,0.3543,0.149,129.75
18:52:02:809,-1.1037,1.3908,9.8542,42.4595,0.2358,0.4258,0.2278,129.75
18:52:02:828,-0.9864,1.3645,9.7798,42.3532,0.2773,0.5082,0.2877,129.6562
18:52:02:849,-0.8067,1.3095,9.8447,42.1552,0.2663,0.6353,0.3415,129.6562
18:52:02:871,-0.7516,1.2951,9.9882,42.2701,0.2694,0.7886,0.3671,129.5156
18:52:02:891,-0.9123,1.1683,9.9069,42.1295,0.3329,0.8729,0.3635,129.5
18:52:02:909,-1.1779,1.1683,9.8734,42.072,0.4685,0.7068,0.3622,129.3281
18:52:02:928,-1.1204,1.1946,9.3682,41.9093,0.6396,0.3439,0.35,129.3281
18:52:02:948,-0.8596,1.2736,7.8,41.9958,0.6316,0.0721,0.3128,129.2031
18:52:02:967,-0.268,1.6591,7.2685,42.2601,0.2688,-0.0935,0.2211,129.1719
18:52:02:988,0.2082,1.0965,8.1015,42.4287,-0.2266,-0.1704,0.036,129.2656
18:52:03:009,0.0981,0.8043,9.2507,42.6734,-0.4826,-0.3586,-0.2388,127.2188
18:52:03:028,-0.9817,0.9984,10.3759,42.7014,-0.4954,-0.6347,-0.4087,127.2031
18:52:03:048,-1.1755,1.0702,10.8523,42.787,-0.4056,-0.7428,-0.3103,127.0469
18:52:03:069,-0.6607,1.3765,10.826,42.7429,-0.3268,-0.7061,-0.1423,127.0469
18:52:03:093,-0.0431,1.4557,10.7207,42.9146,-0.2834,-0.7232,-0.0965,126.6406
18:52:03:110,0.5794,1.6232,10.2586,42.6635,-0.273,-0.7257,-0.1185,126.6094
18:52:03:128,0.8115,1.7979,9.6601,42.5075,-0.2871,-0.7043,-0.2187,125.9531
18:52:03:151,0.6105,1.9175,9.7822,42.234,-0.336,-0.7239,-0.3482,125.7656
18:52:03:169,0.28,1.9199,10.2682,42.1513,-0.3928,-0.6609,-0.416,124.9531
18:52:03:190,0.0455,1.7955,10.5317,42.3442,-0.3897,-0.4655,-0.394,124.7812
18:52:03:211,0.0287,1.7453,10.2275,42.4629,-0.284,-0.1521,-0.2871,124.0469
18:52:03:230,0.0359,1.7405,9.9954,42.6773,-0.2706,-0.0599,-0.2193,123.9688
18:52:03:251,0.1196,1.5179,10.3232,42.5123,-0.2547,0.1527,-0.1258,123.4844
18:52:03:269,0.0885,1.2425,10.0361,42.7516,-0.1515,0.3543,-0.0476,123.4375
18:52:03:290,0.0455,1.0774,9.507,42.7126,-0.0812,0.4239,0.0061,123.625
18:52:03:308,0.1627,0.9649,9.3443,42.7716,-0.1258,0.3384,0.0525,123.6406
18:52:03:328,0.3257,0.9075,9.7726,42.8081,-0.2608,0.1655,0.0745,124.4219
18:52:03:349,0.5291,0.8186,10.2395,42.822,-0.3641,-0.0195,0.0794,124.5
18:52:03:368,0.7325,0.8524,10.3977,42.7348,-0.3659,-0.1924,0.0519,124.8438
18:52:03:388,0.7349,0.9027,10.2299,42.618,-0.295,-0.2975,-0.0061,124.8438
18:52:03:410,0.7636,1.0343,9.9165,42.7867,-0.2095,-0.292,-0.0629,125.2812
18:52:03:429,0.6655,1.1492,9.6434,42.6346,-0.157,-0.1735,-0.1093,125.2969
18:52:03:450,0.4717,1.2257,9.4878,42.746,-0.1533,0.0012,-0.1246,126.2031
18:52:03:469,0.4214,1.2138,9.6362,42.9352,-0.1869,0.1527,-0.0849,127.0312
18:52:03:494,0.498,1.1228,9.8471,42.999,-0.2278,0.2443,-0.0116,127.0312
18:52:03:509,0.7445,1.0415,10.1892,43.0862,-0.237,0.2236,0.0336,127.6094
18:52:03:529,0.8931,1.008,10.5915,43.1894,-0.1906,0.2138,0.011,127.6094
18:52:03:549,0.8668,1.0678,11.1015,43.4471,-0.0617,0.281,-0.0721,127.7812
18:52:03:568,0.687,1.1468,11.324,43.4672,0.1564,0.452,-0.1387,127.7812
18:52:03:589,0.4167,1.0893,11.0393,43.7902,0.3909,0.6872,-0.1503,127.7031
18:52:03:610,-0.0335,0.9649,10.4982,43.9629,0.5308,0.8961,-0.1338,127.7031
18:52:03:628,-0.7325,0.7899,10.448,44.2133,0.4942,1.0519,-0.0965,127.5156
18:52:03:649,-1.3238,0.419,9.7965,44.3633,0.3128,1.1203,-0.0049,127.5156
18:52:03:669,-1.3645,0.1077,10.2802,44.3418,0.0018,0.9004,0.0965,127.4531
18:52:03:688,-1.4414,-0.0885,10.328,44.5022,-0.1631,0.5889,0.08,127.4531
18:52:03:710,-1.2664,0.0048,10.5174,44.6239,-0.1277,0.1576,0.0287,127.625
18:52:03:728,-1.0367,0.4238,10.3137,44.8875,0.0501,-0.1326,-0.0684,127.6562
18:52:03:751,-2.3868,0.0885,10.4216,44.9539,0.2779,-0.0165,-0.1723,127.8594
18:52:03:770,-3.0284,-0.1101,11.3719,45.3456,0.3311,0.2486,0.0525,127.875
18:52:03:793,-2.9279,0.2345,11.7096,45.402,0.5351,0.4013,0.3928,127.8438
18:52:03:809,-1.8434,0.7397,11.1996,45.4498,0.777,0.3476,0.6212,127.8125
18:52:03:828,-1.2999,0.4717,9.7726,45.58,0.8069,0.226,0.5571,127.8594
18:52:03:848,-1.2042,0.1914,8.4009,45.6226,0.6078,-0.0733,0.3598,127.875
18:52:03:867,-1.4366,0.2827,7.8526,45.8316,0.248,-0.4765,0.1619,128.1406
18:52:03:889,-1.6974,0.3138,7.8909,45.8763,-0.1558,-0.7672,0.0244,128.1562
18:52:03:910,-1.5778,0.4238,8.7506,46.0048,-0.5333,-0.744,-0.0104,128.3594
18:52:03:928,-1.6543,0.376,10.3161,45.8292,-0.7617,-0.416,-0.0116,128.3906
18:52:03:949,-1.5873,0.3832,11.1183,45.6502,-0.5913,-0.1185,0.0012,128.2188
18:52:03:968,-1.1013,0.5841,10.1438,45.9207,-0.1277,0.0458,0.0153,128.0625
18:52:03:994,-1.0798,0.7588,8.7338,45.9379,0.182,0.1643,-0.0428,128.0625
18:52:04:010,-1.4055,0.8716,8.1473,46.1593,0.2425,0.0825,-0.1222,128.3594
18:52:04:027,-1.7644,0.9218,7.9292,46.3868,0.1759,-0.1026,-0.1429,128.3594
18:52:04:049,-1.7261,0.9625,7.8144,46.5344,0.0751,-0.358,-0.0788,128.5312
18:52:04:068,-1.5634,0.9697,7.7593,46.8083,-0.0684,-0.5992,0.0312,128.5312
18:52:04:092,-0.9888,1.0534,8.6737,47.1589,-0.2614,-0.7306,0.1863,127.4688
18:52:04:111,-0.1101,0.9745,9.7678,47.4813,-0.3543,-0.6066,0.3329,127.4688
18:52:04:129,0.3568,0.711,10.4121,47.4753,-0.3079,-0.35,0.3525,126.5469
18:52:04:199,0.4095,0.6009,10.2754,47.5997,-0.1442,-0.204,0.2547,126.5469
18:52:04:200,0.2489,0.8955,9.7152,48.0058,-0.0055,-0.1466,0.1344,126.4375
18:52:04:200,-0.0072,1.1683,9.3275,48.2492,-0.0018,-0.1313,0.0385,126.4375
18:52:04:211,-0.0144,1.494,9.5692,48.3171,-0.0965,-0.1246,-0.0043,126.4688
18:52:04:229,-0.0766,1.6759,10.0528,48.379,-0.1607,-0.0476,-0.0177,126.4688
18:52:04:251,-0.122,1.9825,9.9811,48.3829,-0.025,0.1032,-0.0122,126.4219
18:52:04:269,-0.4382,1.9801,9.9547,48.4897,0.0373,0.0238,-0.0617,126.4219
18:52:04:290,-0.7875,1.7764,10.2299,48.8662,0.0556,-0.033,-0.0751,126.5938
18:52:04:311,-0.9194,1.5706,10.4671,49.2933,0.0739,-0.0195,-0.0189,126.6094
18:52:04:328,-0.9218,1.2951,10.8428,49.1621,0.0928,0.0153,0.0244,126.875
18:52:04:349,-0.7181,1.1803,11.1829,48.9761,0.1368,0.0391,0.0281,126.8906
18:52:04:367,-0.5028,1.1013,11.0034,49.0714,0.2077,0.0452,0.0061,126.75
18:52:04:394,-0.3281,1.1755,10.8069,49.0961,0.2566,-0.0385,-0.0458,126.7344
18:52:04:409,-0.6846,1.1372,10.7207,49.4233,0.273,-0.1289,-0.1332,126.0938
18:52:04:428,-1.0678,1.0367,10.6609,49.8366,0.2285,-0.1295,-0.1643,126.0156
18:52:04:449,-1.0606,0.8453,10.7351,49.7602,0.1228,-0.058,-0.0959,125.6094
18:52:04:468,-0.498,0.6224,10.9675,49.7847,-0.0263,0.0489,0.022,125.5781
18:52:04:494,0.2369,0.3784,11.3025,50.0297,-0.1381,0.0623,0.0733,125.5781
18:52:04:510,0.7205,0.1579,11.2187,50.4991,-0.1112,-0.0623,0.0012,125.625
18:52:04:528,0.8477,0.0742,10.6035,50.9531,0.0348,-0.2388,-0.1674,125.625
18:52:04:549,0.5626,0.012,9.9691,51.2619,0.1716,-0.2828,-0.3598,125.7031
18:52:04:569,0.1986,-0.0479,9.5022,51.4421,0.2401,-0.1093,-0.4777,125.7031
18:52:04:593,-0.1819,-0.146,9.3156,51.7061,0.248,0.1381,-0.5058,125.7969
18:52:04:609,-0.3616,-0.1938,9.2507,52.0045,0.2376,0.2511,-0.4532,125.7969
18:52:04:629,-0.3568,-0.2082,9.2267,52.215,0.1936,0.2529,-0.3476,125.75
18:52:04:650,-0.309,-0.2608,9.5022,52.4919,0.124,0.1765,-0.2248,125.75
18:52:04:669,-0.0574,-0.285,9.6625,52.8512,0.0574,0.1142,-0.0953,125.7969
18:52:04:690,0.1412,-0.2417,9.8327,53.1877,-0.0055,0.0678,-0.0037,125.7969
18:52:04:710,0.2584,-0.1699,9.9117,53.4882,-0.0403,-0.0098,0.0312,126.1094
18:52:04:729,0.3449,-0.012,9.8877,53.611,-0.0446,-0.0996,0.0281,126.1406
18:52:04:750,-0.1579,0.3401,9.7941,53.8504,0.0183,-0.1326,-0.0837,126.2188
18:52:04:769,-0.5435,0.5554,9.3778,54.2226,0.0947,-0.1277,-0.1106,126.2188
18:52:04:792,-0.7684,0.6846,8.8415,54.5794,0.1301,-0.1173,-0.0739,126.1562
18:52:04:810,-0.6009,0.754,8.6689,54.6892,0.077,-0.0788,0.014,126.1406
18:52:04:827,-0.3377,0.7564,9.0138,54.6276,-0.0403,0.0171,0.0959,126.6875
18:52:04:849,-0.2994,0.7277,9.5931,54.7921,-0.124,0.1093,0.1356,126.75
18:52:04:867,-0.3257,0.687,9.7798,54.893,-0.124,0.1368,0.1582,127.7344
18:52:04:890,-0.2536,0.7158,9.7343,55.2105,-0.0977,0.1051,0.1857,127.8281
18:52:04:910,-0.1029,0.8115,9.9117,55.0161,-0.11,0.0806,0.2126,128.6094
18:52:04:928,-0.0335,0.874,10.2084,55.0068,-0.1252,0.1264,0.2285,128.6875
18:52:04:949,-0.0646,0.9051,10.4815,55.1061,-0.1026,0.1888,0.2291,129.0156
18:52:04:968,-0.0694,0.9601,10.6346,55.029,-0.0476,0.2297,0.223,128.9844
18:52:04:995,-0.0526,1.0343,10.7207,54.99,0.0098,0.2535,0.2162,128.9844
18:52:05:009,-0.0909,1.0534,10.7279,55.0246,0.0684,0.2376,0.2034,129
18:52:05:029,-0.2632,1.1133,10.5054,55.209,0.1399,0.1741,0.1826,129
18:52:05:048,-0.6105,1.1133,10.0983,55.1757,0.1997,0.1155,0.1845,129.2344
18:52:05:068,-0.8931,0.8931,9.5979,55.4647,0.2065,0.1026,0.2364,129.2344
18:52:05:094,-0.7732,0.7181,9.4639,55.8501,0.1051,0.1283,0.3274,129.3125
18:52:05:109,-0.2225,0.6775,10.1629,56.0418,-0.1093,0.2358,0.4135,129.3125
18:52:05:127,0.5315,0.6607,11.1613,56.4757,-0.2859,0.3354,0.4239,129.0469
18:52:05:150,1.0702,0.6846,11.5445,56.7673,-0.2395,0.2138,0.2993,129.0469
18:52:05:169,0.9601,0.8788,11.0824,56.7817,-0.0018,-0.014,0.0507,128.6562
18:52:05:194,0.2225,0.9577,10.1438,56.7389,0.2553,-0.0983,-0.2065,128.6562
18:52:05:208,-0.5052,1.0271,9.2868,56.8749,0.4007,0.0006,-0.3573,128.1875
18:52:05:229,-1.0199,1.1204,8.7673,56.9004,0.3971,0.1545,-0.3598,128.1562
18:52:05:251,-0.9242,0.9529,8.7601,56.7499,0.1417,0.2474,-0.0257,127.6562
18:52:05:269,-0.4932,0.766,9.064,56.6266,-0.022,0.1802,0.146,127.625
18:52:05:292,-0.1268,0.6344,9.5692,56.7584,-0.1387,0.0922,0.2236,127.1719
18:52:05:311,0.0837,0.5889,9.8973,56.6412,-0.1716,0.0324,0.2132,127.125
18:52:05:327,0.0574,0.577,10.0505,56.8502,-0.1368,0.0171,0.1307,126.75
18:52:05:349,-0.2321,0.6129,10.0863,56.8603,-0.0831,0.0654,0.0202,126.7031
18:52:05:367,-0.6153,0.7445,10.1055,56.8665,-0.0379,0.1423,-0.0684,126.1406
18:52:05:388,-1.1061,0.821,10.1127,56.8968,-0.0012,0.1955,-0.1185,126.0781
18:52:05:409,-1.5514,0.9099,9.8806,56.9179,0.0452,0.1753,-0.1228,125.1875
18:52:05:427,-1.8218,1.0175,9.5405,56.9864,0.0654,0.1112,-0.0776,125.1094
18:52:05:451,-1.8625,1.118,9.3682,57.0601,0.033,0.0507,0.0018,124.7344
18:52:05:467,-1.7022,1.3023,9.6218,57.5676,-0.0202,0.0165,0.0696,125.3281
18:52:05:490,-1.4342,1.4438,9.9858,57.3676,-0.0287,0.0483,0.1057,125.3281
18:52:05:509,-1.1515,1.506,10.1246,57.3685,0.0305,0.0904,0.1161,125.9688
18:52:05:529,-0.9864,1.5682,9.938,57.242,0.1209,0.0922,0.0935,125.9688
18:52:05:550,-1.0104,1.6137,9.6314,57.4026,0.1881,0.0446,0.0666,125.8125
18:52:05:568,-1.0128,1.6496,9.3802,57.5371,0.1979,-0.0348,0.069,125.8125
18:52:05:589,-1.0199,1.7094,9.2195,57.6594,0.1393,-0.0965,0.1051,125.3125
18:52:05:610,-0.8378,1.8099,9.4663,57.5856,0.011,-0.1118,0.1716,125.3125
18:52:05:629,-0.2752,1.8912,9.9978,57.5113,-0.113,-0.0666,0.2297,125.125
18:52:05:650,0.2704,1.9534,10.3184,57.7478,-0.1564,-0.0043,0.2211,125.125
18:52:05:669,0.5052,2.059,10.2969,58.0318,-0.124,-0.0073,0.1307,125.2969
18:52:05:692,0.4525,2.193,10.0313,58.1633,-0.0666,-0.0666,0.0122,125.2969
18:52:05:709,0.1962,2.3581,9.7152,58.2835,-0.0226,-0.1038,-0.0886,125.4844
18:52:05:728,-0.1436,2.4323,9.3802,58.2592,0.0073,-0.1026,-0.1509,125.5
18:52:05:750,-0.5171,2.4754,8.9755,58.5309,0.0385,-0.0867,-0.1686,125.4375
18:52:05:769,-0.8186,2.4754,8.5708,58.7399,0.0556,-0.0647,-0.1399,125.4219
18:52:05:794,-0.929,2.4443,8.176,58.6788,0.0281,-0.0305,-0.0586,125.2031
18:52:05:810,-0.8668,2.1811,8.5134,58.7255,-0.1747,0.0336,0.1234,125.1719
18:52:05:828,-0.7564,2.0973,9.0114,58.8304,-0.2602,-0.0116,0.1594,125.0156
18:52:05:849,-0.7062,2.138,9.6984,59.029,-0.2749,-0.099,0.1533,125
18:52:05:868,-0.8306,2.2217,9.9332,59.2308,-0.1851,-0.1289,0.1124,124.8594
18:52:05:892,-1.0845,2.3222,9.6051,59.4419,-0.0544,-0.1197,0.0586,124.8438
18:52:05:910,-1.2688,2.4347,9.3323,59.3733,-0.0012,-0.0965,0.0391,124.4531
18:52:05:928,-1.3406,2.4658,9.5189,59.2901,-0.0293,-0.0715,0.0489,124.4062
18:52:05:949,-1.3358,2.461,9.9212,59.6198,-0.0318,-0.0599,0.0562,124.0469
18:52:05:967,-1.3382,2.3725,9.9643,59.6159,0.0287,-0.0293,0.0519,124.0938
18:52:05:990,-1.3669,2.2528,9.8109,59.6512,0.0928,-0.0183,0.0464,124.0938
18:52:06:009,-1.2568,2.2098,9.926,59.8226,0.0928,0.0006,0.0538,124.4531
18:52:06:028,-0.8668,2.2098,10.5437,59.8016,0.0507,0.0556,0.0605,124.4531
18:52:06:050,-0.2874,2.2122,11.1876,59.9659,0.0568,0.1167,0.0238,124.7031
18:52:06:068,0.055,2.0806,11.3097,60.1616,0.1405,0.1539,-0.0757,124.7031
18:52:06:089,0.067,1.8864,11.1757,60.4976,0.2425,0.1668,-0.2016,124.5
18:52:06:111,-0.0694,1.6519,10.8236,60.4497,0.284,0.2175,-0.2999,124.5
18:52:06:129,-0.2393,1.4318,10.5078,60.7111,0.2407,0.2333,-0.3433,124.1406
18:52:06:150,-0.3018,1.1946,10.3184,60.879,0.1277,0.1802,-0.3097,124.1406
18:52:06:169,-0.1842,0.9625,10.2467,61.0926,-0.0275,0.0727,-0.2401,123.9688
18:52:06:191,0.3018,0.8812,10.3519,61.1819,-0.2114,-0.0336,-0.1729,123.9688
18:52:06:264,0.874,0.8501,10.9074,61.4297,-0.3696,-0.0849,-0.1607,123.8906
18:52:06:264,1.1085,0.6775,11.3743,61.5209,-0.4099,-0.055,-0.2309,123.875
18:52:06:264,0.8186,0.4717,11.2331,61.4751,-0.3091,-0.014,-0.3702,123.7812
18:52:06:278,0.3903,0.5171,10.4097,61.6487,-0.1124,-0.1045,-0.5235,123.7656
18:52:06:290,-0.6248,0.9147,8.5038,61.9872,0.0996,-0.212,-0.5773,123.6719
18:52:06:310,-0.6081,1.0008,8.2334,62.1738,0.0116,-0.1179,-0.4514,123.6719
18:52:06:328,-0.3975,0.9817,8.6761,62.2841,-0.1735,0.0654,-0.2969,123.5781
18:52:06:349,-0.1627,0.8572,9.6721,62.5149,-0.3573,0.2553,-0.1716,123.5625
18:52:06:367,0.1053,0.7062,10.515,62.5076,-0.4251,0.3286,-0.1051,123.8281
18:52:06:392,0.2489,0.6942,10.9002,62.543,-0.3781,0.2676,-0.1179,123.8594
18:52:06:409,0.256,0.862,10.7782,62.617,-0.2718,0.1301,-0.1851,124.4844
18:52:06:428,0.0885,1.1061,10.3041,62.6803,-0.1582,-0.0183,-0.2682,124.5469
18:52:06:450,-0.0526,1.3645,9.8133,62.5581,-0.0635,-0.1167,-0.3262,125.0781
18:52:06:467,-0.0957,1.5084,9.3826,62.4634,0.0067,-0.0782,-0.3555,125.4844
18:52:06:495,-0.285,1.5538,8.9468,62.5746,0.0513,0.0501,-0.3861,125.4844
18:52:06:510,-0.4478,1.6089,8.8104,62.464,0.0409,0.1716,-0.3934,126.1094
18:52:06:528,-0.4789,1.5826,9.0018,62.5213,-0.0067,0.2376,-0.3683,126.1094
18:52:06:550,-0.3712,1.5275,9.2483,62.6091,-0.0348,0.1997,-0.3317,127.375
18:52:06:568,-0.2827,1.5347,9.3108,62.5803,-0.0305,0.1161,-0.3109,127.375
18:52:06:590,-0.3305,1.5347,9.198,62.6155,-0.0134,0.0751,-0.3097,128.5312
18:52:06:610,-0.3353,1.5897,9.1645,62.615,-0.0073,0.0928,-0.3079,128.5312
18:52:06:628,-0.4382,1.5706,9.0688,62.8022,-0.0031,0.1295,-0.3024,129
18:52:06:650,-0.5698,1.6687,9.0784,62.8314,-0.0018,0.1307,-0.2859,129
18:52:06:668,-0.7899,1.7166,9.0233,62.915,0.0018,0.1063,-0.2547,129.1719
18:52:06:694,-0.9434,1.8051,8.9563,62.7726,0.0043,0.0709,-0.1997,129.1719
18:52:06:709,-1.0056,1.8721,9.0951,62.7667,-0.0171,0.0727,-0.1197,129.6406
18:52:06:729,-1.0367,1.8458,9.5405,63.0057,-0.0495,0.1081,-0.0409,129.6406
18:52:06:749,-1.1396,1.8242,10.2084,63.1774,-0.0605,0.1484,0.0189,130.3281
18:52:06:769,-1.2257,1.628,10.5556,63.3452,-0.0415,0.2089,0.0751,130.3906
18:52:06:793,-1.264,1.1324,11.1254,63.5095,-0.0489,0.1881,0.1289,131.1719
18:52:06:811,-1.5012,0.9003,10.8954,63.35,-0.0165,0.0336,0.1203,131.25
18:52:06:830,-1.8601,0.6655,10.5676,63.3503,-0.0098,-0.1539,0.1319,131.9219
18:52:06:851,-2.0255,0.443,10.5939,63.5367,-0.1216,-0.1851,0.2114,132
18:52:06:869,-1.7357,0.2225,11.3216,63.5367,-0.3543,-0.0519,0.3488,132.6094
18:52:06:890,-0.9984,0.1053,12.4301,63.2329,-0.5803,0.1051,0.4807,132.6719
18:52:06:910,-0.3855,0.1149,13.4381,63.0295,-0.6499,0.1497,0.5162,133.2656
18:52:06:928,-0.486,0.1244,13.7925,62.6578,-0.4673,0.0757,0.4233,133.3281
18:52:06:951,-1.0319,0.1268,12.7439,62.4903,-0.0757,-0.0574,0.2895,133.8594
18:52:06:967,-1.5156,0.1555,10.8906,62.369,0.3018,-0.1643,0.2193,134.2344
18:52:06:990,-2.0662,-0.0885,9.2701,62.1618,0.4581,-0.1716,0.2523,134.2344
18:52:07:010,-2.0471,-0.309,8.5397,61.9026,0.3702,-0.077,0.3958,134.2656
18:52:07:030,-1.2568,-0.3832,8.8678,61.64,0.1203,0.1093,0.5516,134.2656
18:52:07:050,-0.5698,-0.3688,9.4496,61.6559,-0.1252,0.237,0.5663,134.0312
18:52:07:067,-0.3138,-0.1842,10.0457,61.3699,-0.2694,0.1894,0.4337,134.0312
18:52:07:094,-0.3257,0.1771,10.4862,61.316,-0.2596,0.0776,0.2376,133.7344
18:52:07:109,-0.5937,0.6248,10.2562,60.973,-0.0739,-0.036,0.0464,133.7344
18:52:07:128,-1.0726,1.0391,9.2124,60.6655,0.1979,-0.1295,-0.0861,133.375
18:52:07:150,-1.4581,1.2808,7.8909,60.5443,0.3818,-0.1906,-0.0959,133.375
18:52:07:170,-1.4988,1.3908,6.9811,60.3531,0.3903,-0.212,0.0098,133.3594
18:52:07:192,-1.2544,1.4055,6.7753,60.1498,0.2608,-0.1698,0.1576,132.375
18:52:07:213,-0.9434,1.319,7.2015,59.8529,0.1069,-0.0941,0.2645,131.25
18:52:07:230,-0.6942,1.2185,7.7761,59.6399,0.0214,-0.0312,0.3121,131.25
18:52:07:251,-0.5411,1.1611,8.1206,59.5206,-0.0012,0.0043,0.325,130.75
18:52:07:269,-0.4573,1.1204,8.2382,59.3865,-0.0165,-0.0018,0.3164,130.7031
18:52:07:289,-0.4765,1.2401,8.4679,59.3321,-0.0415,-0.0544,0.2718,130.125
18:52:07:310,-0.6631,1.4004,8.6115,59.0948,-0.0544,-0.0898,0.2022,130.0625
18:52:07:330,-0.5171,1.6591,8.2932,58.9097,-0.1466,-0.0501,0.16,128.9375
18:52:07:350,-0.1747,1.8912,8.2525,58.9749,-0.2327,-0.1484,0.0953,128.8281
18:52:07:369,0.0837,2.4203,9.2219,58.8656,-0.2352,-0.2779,-0.0342,128.0938
18:52:07:394,-0.1795,2.5594,9.5501,58.7214,-0.1326,-0.2993,-0.1405,128.0312
18:52:07:409,-0.3784,2.5857,9.7032,58.4231,-0.0073,-0.1955,-0.1558,128.0781
18:52:07:427,-0.4908,2.5379,9.7846,58.2477,0.0476,-0.0336,-0.1051,128.0781
18:52:07:450,-0.5363,2.2983,10.0289,58.337,0.0018,0.0531,-0.0312,128.2344
18:52:07:468,-0.1244,2.2074,10.85,58.1357,-0.102,-0.0556,0.0519,127.875
18:52:07:489,0.4071,2.0734,11.8484,57.8834,-0.1344,-0.2993,0.0696,127.875
18:52:07:509,0.6176,1.9825,12.047,57.4899,0.0037,-0.5626,-0.0269,127.1406
18:52:07:529,0.4214,1.829,11.2834,57.251,0.2272,-0.7813,-0.1845,127.1406
18:52:07:549,-0.1316,1.7237,10.946,57.0355,0.3244,-0.8589,-0.306,126.4844
18:52:07:568,-0.9817,1.4821,11.5301,56.7433,0.1875,-0.5687,-0.325,126.4844
18:52:07:592,-1.398,0.8764,12.5904,56.3716,-0.0983,0.0049,-0.1875,126.0781
18:52:07:608,-0.6392,0.1005,14.0318,55.5865,-0.3708,0.4429,0.0721,126.0781
18:52:07:629,0.1364,-0.6894,14.9154,55.4015,-0.3916,0.4746,0.2297,125.7969
18:52:07:649,0.6823,-1.1085,14.3216,54.9171,-0.1106,0.1814,0.1857,125.7656
18:52:07:670,0.4645,-1.3669,12.5043,54.4954,0.2547,-0.1356,-0.0318,125.7656
18:52:07:691,0.0981,-1.1755,10.8332,54.264,0.3757,-0.1826,-0.2211,125.9688
18:52:07:710,0.0024,-0.8501,10.3304,53.8965,0.2217,0.0446,-0.2785,126.2656
18:52:07:728,0.2536,-0.5483,10.5293,53.4569,0.033,0.3128,-0.2566,126.2656
18:52:07:750,0.5124,-0.1316,10.1581,53.1588,0.0226,0.3818,-0.2596,126.2344
18:52:07:770,0.4645,0.2345,9.0736,53.2038,0.1411,0.2663,-0.3286,126.2344
18:52:07:793,0.2177,0.6775,8.1015,52.7738,0.2321,0.124,-0.4306,126.2188
18:52:07:809,-0.1723,1.075,7.6684,52.7791,0.2449,0.0922,-0.5204,126.2188
18:52:07:829,-0.4334,1.3502,7.678,52.6688,0.2156,0.408,-0.4331,126.7812
18:52:07:850,-0.5411,1.3525,7.9436,52.2177,0.2492,0.4636,-0.339,126.8281
18:52:07:869,-0.5554,1.2377,8.2023,51.9911,0.3005,0.383,-0.2633,127.375
18:52:07:888,-0.5841,1.1707,8.2837,51.925,0.3195,0.2309,-0.2248,127.4219
18:52:07:911,-0.5459,1.118,8.286,51.7574,0.3054,0.1442,-0.1564,127.0781
18:52:07:928,-0.4334,1.0558,8.2956,51.3804,0.2578,0.1313,-0.0672,127.0469
18:52:07:949,-0.2441,1.0343,8.365,51.1102,0.19,0.1283,0.0086,126.8906
18:52:07:967,-0.0742,1.1085,8.5349,50.8975,0.1209,0.0922,0.0507,127.3906
18:52:07:994,0.0311,1.2114,8.7888,50.686,0.0788,0.0287,0.0452,127.3906
18:52:08:010,0.1938,1.398,9.0209,50.5252,0.0727,0.0159,0.0153,127.9844
18:52:08:029,0.2321,1.6496,9.1071,50.3687,0.1057,0.0244,-0.044,127.9844
18:52:08:050,0.0144,1.8984,8.9061,50.0994,0.1668,-0.0024,-0.1185,128.8125
18:52:08:067,-0.3879,2.1236,8.7003,49.9017,0.1991,-0.0428,-0.1729,128.8125
18:52:08:091,-0.8234,2.2816,9.0568,49.8254,0.1552,-0.0165,-0.1771,129.9688
18:52:08:109,-1.1683,2.2265,9.8351,49.7357,0.0556,0.1594,-0.1271,129.9688
18:52:08:129,-1.2975,1.9056,10.5987,49.5559,-0.0421,0.3934,-0.0305,129.9844
18:52:08:151,-1.2233,1.5299,11.1374,49.4122,-0.1338,0.4722,0.0605,130.7969
18:52:08:168,-1.386,1.2257,11.5277,49.6017,-0.1912,0.2309,0.0819,131.3438
18:52:08:187,-1.3908,1.2185,11.7909,49.5034,-0.2248,-0.0519,0.1191,131.3438
18:52:08:208,-1.4174,1.1085,12.4158,49.5859,-0.3421,-0.0024,0.1894,131.625
18:52:08:228,-1.1994,0.9123,13.4381,49.6633,-0.5021,0.2193,0.3018,131.625
18:52:08:249,-0.6392,0.7636,14.2496,49.67,-0.5229,0.2871,0.3635,131.5781
18:52:08:325,-0.6751,0.5889,13.9002,49.5461,-0.3066,0.1869,0.2865,131.5625
18:52:08:326,-1.0941,0.6655,12.3918,49.531,0.0318,-0.0562,0.1662,131.5156
18:52:08:326,-1.7524,0.6583,10.6011,49.6383,0.3231,-0.3457,0.0696,131.5156
18:52:08:327,-2.4299,0.4765,9.1119,49.4678,0.4514,-0.4074,0.0806,131.6875
18:52:08:351,-2.648,0.4334,8.2023,49.4848,0.3653,-0.2004,0.2107,131.7031
18:52:08:369,-1.6256,0.6081,8.9133,49.4396,-0.1521,0.2315,0.6041,132.0781
18:52:08:387,-0.6942,0.7181,9.3682,49.4137,-0.2853,0.1802,0.7666,132.125
18:52:08:411,0.1364,0.8955,9.1286,49.3771,-0.2639,-0.014,0.8063,132.25
18:52:08:428,0.498,1.13,8.5134,49.3573,-0.1674,-0.2547,0.7019,132.25
18:52:08:449,0.4932,1.4677,7.6971,49.3573,-0.1106,-0.4355,0.5455,132.0469
18:52:08:468,0.2512,1.8601,6.8853,49.2414,-0.1949,-0.5003,0.4197,131.6719
18:52:08:492,-0.4717,1.9056,6.7872,49.2649,-0.4111,-0.5204,0.4306,131.6719
18:52:08:509,-0.4765,2.0758,7.0173,49.4539,-0.5974,-0.5736,0.6371,130.7812
18:52:08:529,-0.1172,1.8147,7.3546,49.3847,-0.6677,-0.598,0.8668,130.7812
18:52:08:551,0.3305,1.6137,7.7306,49.2881,-0.7306,-0.4294,1.0073,130.25
18:52:08:568,0.6129,1.5682,8.6498,49.2822,-0.7837,-0.1381,1.0311,130.25
18:52:08:589,0.8186,1.6089,9.6099,49.5634,-0.6499,0.1038,0.9987,130.1875
18:52:08:610,1.1994,0.5961,9.0497,49.6091,-0.4313,0.3482,0.8815,130.1875
18:52:08:629,1.1133,0.553,9.1406,49.685,-0.4612,0.3567,0.5583,130.1875
18:52:08:650,0.778,0.8139,11.7766,49.7622,-0.3702,-0.0996,0.2401,129.5781
18:52:08:668,1.3621,1.6615,14.2017,49.603,0.0006,-0.0391,0.0385,128
18:52:08:693,0.4406,1.6543,12.7774,49.6338,0.7416,0.4459,-0.1631,128
18:52:08:709,0.134,1.4246,9.0568,49.8909,1.3843,0.5522,-0.2547,126.3281
18:52:08:728,0.3736,1.6543,7.9603,49.9246,1.4918,-0.0098,-0.3134,126.3281
18:52:08:749,0.9793,2.2241,8.8917,49.9311,1.0494,-0.2486,-0.4197,125.2969
18:52:08:769,0.7923,2.339,10.8787,49.9434,0.4606,-0.014,-0.6023,125.2969
18:52:08:792,0.2728,2.0231,11.403,49.8675,0.0629,0.3256,-0.8735,124.2188
18:52:08:811,-0.4669,1.4988,11.1613,50.0253,-0.2126,0.3738,-1.1417,124.125
18:52:08:828,-0.6823,1.3119,11.3719,50.3284,-0.2822,-0.1063,-1.2498,122.2344
18:52:08:851,0.0622,0.8354,12.1143,50.5465,-0.0379,-0.9645,-1.2565,122.0312
18:52:08:870,0.8091,0.5171,13.1602,50.6747,0.0892,-0.7691,-1.2327,119.9531
18:52:08:888,1.0104,0.28,13.838,51.02,0.1875,0.0104,-1.2235,119.7344
18:52:08:910,0.3616,-0.1962,12.9353,51.0139,0.3787,0.7434,-1.2028,118.2344
18:52:08:927,0.0287,-0.3138,11.4963,51.3339,0.6683,0.6896,-1.1594,118.0938
18:52:08:949,-0.0311,0,10.4336,51.6833,0.9083,0.1326,-1.1337,117.7812
18:52:08:967,0.079,0.5913,9.4902,51.6148,0.9798,-0.3146,-1.1148,118.25
18:52:08:992,0.1436,0.9577,8.8965,51.7332,0.8173,-0.441,-1.0959,118.25
18:52:09:010,0.2994,1.1898,8.6737,51.8192,0.4777,-0.2419,-1.0122,119.1719
18:52:09:029,0.3784,1.3717,8.9468,51.9823,0.1448,0.0733,-0.9077,119.1719
18:52:09:050,0.1292,1.3789,9.131,51.9957,-0.0104,0.2792,-0.8802,120.8906
18:52:09:069,0.0215,1.3884,9.2578,52.355,0.025,0.3696,-0.8833,120.8906
18:52:09:093,-0.0933,1.398,9.0185,52.4368,0.1393,0.4795,-0.879,123.2344
18:52:09:110,-0.4789,1.4533,8.7721,52.6023,0.2853,0.532,-0.9016,123.4688
18:52:09:128,-1.0941,1.5586,8.3913,53.0763,0.4209,0.5626,-0.9071,123.4844
18:52:09:151,-1.6998,1.6184,8.0656,53.361,0.5149,0.5369,-0.8234,126.3438
18:52:09:168,-1.7907,1.774,7.666,53.8174,0.5705,0.4178,-0.6664,126.375
18:52:09:190,-1.7788,1.8888,7.2374,54.1151,0.5589,0.2535,-0.5162,129.1094
18:52:09:210,-1.7668,1.9992,7.0002,54.4244,0.4551,0.0739,-0.3977,131.6875
18:52:09:228,-1.6735,2.1452,7.1273,54.5795,0.2724,-0.0764,-0.2798,131.6875
18:52:09:249,-1.5371,2.2768,7.6899,54.944,0.0886,-0.1649,-0.1692,134.3125
18:52:09:269,-1.2879,2.3318,8.2119,55.035,0.0043,-0.16,-0.0849,134.3125
18:52:09:294,-0.9386,2.4467,8.4368,54.9183,0.0287,-0.1319,-0.0678,136.5469
18:52:09:309,-0.6535,2.4945,8.2358,54.7393,0.0922,-0.201,-0.1344,136.7812
18:52:09:328,-0.4884,2.5666,8.0991,54.7353,0.1014,-0.438,-0.2602,138.5469
18:52:09:351,-1.0008,2.892,8.3674,54.9012,-0.0257,-0.7135,-0.4129,138.7344
18:52:09:368,-1.6854,3.0933,9.3156,54.8996,-0.2822,-0.777,-0.4251,140.4375
18:52:09:391,-0.929,2.4179,12.0688,55.2787,-0.5821,-0.0812,0.0116,140.6094
18:52:09:411,-0.8501,2.0423,12.5115,55.2002,-0.46,0.1381,0.0739,142.3906
18:52:09:427,-1.0917,1.8434,12.7176,55.5989,-0.2682,0.1222,0.0104,142.5625
18:52:09:448,-1.6735,1.7883,12.4062,55.8697,-0.1527,0.1118,-0.011,144.0781
18:52:09:467,-2.2983,1.6448,12.1621,56.1463,-0.1784,0.058,0.0666,145.2188
18:52:09:492,-2.4706,1.439,12.186,56.3894,-0.273,0.0202,0.2278,145.2188
18:52:09:510,-1.9056,1.4055,11.9345,56.4561,-0.3592,0.1264,0.4239,145.8438
18:52:09:528,-1.2879,1.252,12.131,56.6329,-0.4447,0.361,0.5608,145.8438
18:52:09:549,-1.2162,0.9769,11.9201,56.4469,-0.3732,0.543,0.631,146.0938
18:52:09:569,-1.1157,0.7325,10.5604,56.7038,-0.077,0.507,0.6383,146.0938
18:52:09:593,-1.0917,0.8067,9.0808,56.6826,0.179,0.3708,0.6005,146.0938
18:52:09:609,-1.2114,0.9912,8.3243,56.7974,0.1741,0.3537,0.5259,146.625
18:52:09:629,-1.3789,0.9697,8.6091,56.889,-0.0434,0.4532,0.5186,146.625
18:52:09:649,-1.2616,1.0893,9.186,56.991,-0.2932,0.5388,0.6267,147.6719
18:52:09:668,-1.1276,0.9458,9.5285,57.1753,-0.4258,0.3781,0.7214,147.875
18:52:09:692,-0.4501,0.9266,9.7606,57.4093,-0.4087,-0.0849,0.752,147.875
18:52:09:711,0.3209,1.0199,9.1454,57.7019,-0.2492,-0.6371,0.6396,147.7031
18:52:09:729,0.6799,1.4028,8.2119,57.8005,-0.0709,-1.061,0.3848,147.7031
18:52:09:749,0.3449,1.6567,7.3546,58.0156,0.0159,-1.1991,0.1112,147.5938
18:52:09:769,-0.1531,1.9439,6.6509,58.1686,0.0244,-1.0843,0,147.5938
18:52:09:790,-0.5889,2.0949,6.2007,58.5017,-0.0379,-0.7849,0.0385,146.8906
18:52:09:809,-0.4167,2.0686,6.6078,58.5781,-0.1576,-0.4239,0.1704,146.8125
18:52:09:830,-0.1507,2.0375,7.5102,58.7708,-0.2449,-0.0874,0.2541,145.4844
18:52:09:851,0.0048,2.0183,9.3227,58.746,-0.226,0.2046,0.1222,145.3594
18:52:09:870,-0.0072,2.1619,10.5413,58.733,-0.1649,0.3073,0.0446,144.0625
18:52:09:891,-0.1651,2.4323,11.2331,58.8161,0.0018,0.3683,0.0165,143.9375
18:52:09:910,-0.0311,2.758,10.8619,58.7139,0.2621,0.2382,0.0189,142.8281
18:52:09:928,0.2465,3.0356,9.2964,58.6366,0.419,-0.0079,-0.0293,142.7188
18:52:09:949,0.3281,3.347,8.8702,58.4601,0.3152,-0.3647,-0.1741,141.2344
18:52:09:967,0.0526,3.5719,9.4567,58.3022,0.135,-0.5736,-0.3598,139.6719
18:52:09:992,-0.4214,3.5169,10.5317,58.1005,0.0452,-0.4569,-0.4545,139.6719
18:52:10:009,-0.6751,3.4499,11.3743,58.1565,0.1093,-0.1112,-0.4239,139.1719
18:52:10:028,-0.754,3.256,11.2977,58.1749,0.2584,0.2559,-0.3201,139.1719
18:52:10:048,-0.6631,2.9925,10.9313,58.0774,0.3066,0.4704,-0.193,139.2188
18:52:10:068,-0.486,2.8011,10.4982,58.1952,0.2449,0.3702,-0.1124,139.2188
18:52:10:092,-0.6368,2.6862,10.4958,58.3766,0.1264,0.0122,-0.1179,139.2344
18:52:10:110,-1.13,2.3462,10.6298,58.529,-0.0544,-0.1979,-0.1209,138.7812
18:52:10:129,-0.9601,1.896,11.7742,58.7243,-0.2614,-0.1814,-0.0513,138.7812
18:52:10:150,-0.2489,1.2951,13.7085,58.5171,-0.4025,0.1338,0.0568,138.3594
18:52:10:167,0.3281,1.0223,13.6487,58.607,-0.2737,0.5149,0.1026,138.2344
18:52:10:188,0.5411,1.0152,11.5182,58.7151,0.0324,0.5131,-0.0782,138.2344
18:52:10:211,0.1723,0.8764,9.7152,58.8338,0.1472,0.2963,-0.3396,138.2812
18:52:10:228,0.1077,1.0008,9.0233,58.9735,0.0421,0.1387,-0.4569,138.2812
18:52:10:249,0.2728,1.0798,8.8463,59.0941,-0.058,0.1405,-0.4893,138.9531
18:52:10:269,0.6966,1.1611,9.1382,59.2388,-0.1081,0.2987,-0.5076,138.9531
18:52:10:293,0.8258,1.1779,9.938,59.35,-0.1313,0.6053,-0.5889,139.9688
18:52:10:309,0.309,1.0558,11.2116,59.8223,-0.1002,0.9816,-0.7061,139.9688
18:52:10:387,-1.0917,0.9888,13.3543,59.9447,0.1753,1.1857,-0.7055,140.4688
18:52:10:387,-1.0008,1.7333,12.6168,60.0881,0.8259,1.2125,-0.5156,140.5156
18:52:10:396,-1.4004,1.8482,9.2507,60.0117,1.3158,0.317,-0.5589,140.75
18:52:10:396,-1.9199,1.9199,7.5413,59.8524,1.102,-0.234,-0.6341,140.7812
18:52:10:415,-2.0399,2.0949,6.4137,59.8289,0.8601,-0.6579,-0.6182,140.9531
18:52:10:428,-1.6519,2.3127,5.9949,59.7029,0.6408,-0.7416,-0.5119,140.9688
18:52:10:449,-1.3167,2.5307,5.4419,59.7785,0.4142,-0.3488,-0.3867,140.7344
18:52:10:467,-1.2449,2.5331,5.2071,59.7212,0.1576,0.0336,-0.2828,141.0781
18:52:10:492,-1.2209,2.4873,7.0866,59.7147,-0.1539,0.2504,-0.2162,141.0781
18:52:10:509,-1.1946,2.5379,8.2262,59.7411,-0.3244,0.5143,-0.1692,142.0312
18:52:10:527,-1.5156,2.473,8.8774,60.0575,-0.284,0.5211,-0.1539,142.0312
18:52:10:550,-1.9681,2.6647,9.0568,60.2589,-0.1906,0.4325,-0.1209,142.125
18:52:10:568,-2.2457,2.6527,9.3419,60.2637,-0.1209,0.4148,0.0031,143.2344
18:52:10:590,-2.0303,2.6838,9.3323,60.4539,-0.0354,0.452,0.1912,143.25
18:52:10:609,-1.4103,2.4227,9.2411,60.4828,0.099,0.3744,0.303,144.6406
18:52:10:628,-0.2034,1.9896,8.5253,60.3284,0.1607,0.3231,0.2193,144.6562
18:52:10:649,-1.5227,3.2417,8.7338,60.5229,0.0599,0.0647,-0.0751,145.8906
18:52:10:668,-2.0925,3.2154,9.2578,60.5382,-0.0367,-0.0819,-0.2138,147.5781
18:52:10:691,-1.9606,2.9853,9.2028,60.3999,-0.1765,0.1503,-0.1558,147.5781
18:52:10:708,-1.3478,2.138,10.1701,60.2228,-0.3256,0.1045,-0.1313,149.2031
18:52:10:728,-1.1324,2.3581,12.0063,60.0297,-0.3665,-0.6341,-0.3806,149.2031
18:52:10:748,-1.829,2.916,13.407,59.8623,-0.2114,-1.2596,-0.7165,150.0781
18:52:10:769,-2.6695,3.2369,12.4612,59.7071,0.0055,-1.1698,-0.7489,150.0781
18:52:10:791,-2.892,3.3087,10.6849,59.9168,0.1271,-0.7862,-0.4948,150.3438
18:52:10:808,-2.2816,3.3494,10.0528,59.5019,-0.0024,-0.3964,-0.193,150.3438
18:52:10:828,-1.9534,3.0739,11.2355,59.3228,-0.2859,0.0086,0.0263,150.4375
18:52:10:848,-1.9223,2.4538,11.6378,58.9188,-0.3464,0.2743,0.1771,150.4531
18:52:10:869,-2.0351,2.0064,11.013,58.9567,-0.1527,0.1918,0.2614,150.1406
18:52:10:890,-2.3127,1.4749,9.6123,59.2223,0.0421,-0.0318,0.2999,150.125
18:52:10:910,-1.9801,1.2138,9.4161,59.2294,-0.0257,-0.0415,0.4991,149.5625
18:52:10:929,-1.0367,1.0056,9.3012,59.0802,-0.1802,-0.0415,0.6603,149.5156
18:52:10:948,-0.0215,0.9601,9.2677,58.7582,-0.3183,-0.1643,0.7019,149.7969
18:52:10:968,0.4669,1.0893,9.0401,58.7616,-0.3696,-0.3213,0.5687,149.8281
18:52:10:992,0.4621,1.3525,8.5086,58.8666,-0.3189,-0.4129,0.3433,150
18:52:11:010,0.2249,1.6113,7.8239,59.0492,-0.2291,-0.3812,0.1393,150.0156
18:52:11:028,0.0335,1.8936,7.2948,59.0714,-0.1723,-0.2523,-0.0043,151.2031
18:52:11:049,-0.2106,2.0901,6.9978,58.8448,-0.1668,-0.1521,-0.0996,151.3281
18:52:11:067,-0.5267,2.2528,7.1776,58.6665,-0.2156,-0.1429,-0.135,152.7656
18:52:11:092,-0.6344,2.394,7.7426,58.6238,-0.2755,-0.1338,-0.0965,152.9219
18:52:11:109,-0.7229,2.3605,8.4344,58.5738,-0.3237,-0.0513,-0.0403,153.1094
18:52:11:127,-0.9458,2.3055,9.0879,58.5376,-0.3317,0.0531,-0.0104,153.1094
18:52:11:148,-1.1276,2.2481,9.306,58.3179,-0.2779,0.1112,-0.0006,152.5156
18:52:11:167,-1.0774,2.2768,9.0855,58.0687,-0.2028,0.0928,0.0159,152.5156
18:52:11:191,-0.9553,2.3749,8.5875,57.8915,-0.1668,-0.0098,0.0104,151.8281
18:52:11:210,-0.862,2.5594,8.123,57.6317,-0.182,-0.2407,-0.044,150.5312
18:52:11:229,-1.0534,2.8777,7.8574,57.4671,-0.2217,-0.4887,-0.1283,150.5312
18:52:11:249,-1.1492,3.1316,8.0154,57.3048,-0.2486,-0.6017,-0.1527,149.0781
18:52:11:268,-1.0295,3.3446,8.8965,57.0762,-0.2578,-0.449,-0.0837,149.0781
18:52:11:290,-1.1468,3.1507,9.7989,57.0905,-0.1894,-0.0794,0.044,148.5469
18:52:11:310,-1.3214,2.8202,10.0552,56.8819,-0.0922,0.3115,0.1655,148.5469
18:52:11:328,-1.2544,2.6408,10.6849,56.7962,-0.0641,0.4972,0.2419,148.6406
18:52:11:348,-0.7828,2.5522,11.3073,56.559,-0.1222,0.5455,0.3225,148.6562
18:52:11:369,-0.5315,2.272,11.9106,56.3847,-0.2285,0.4343,0.361,148.8438
18:52:11:394,-0.3999,2.2074,13.0406,56.1094,-0.3464,-0.2706,0.2456,148.8594
18:52:11:410,-0.3664,2.1763,13.6534,55.9765,-0.3433,-0.3409,0.1985,148.8594
18:52:11:430,-0.2441,1.7429,14.1084,55.7884,-0.2847,-0.16,0.1771,148.8594
18:52:11:448,-0.0981,1.3167,14.4748,55.4201,-0.1881,0.1197,0.1264,148.7812
18:52:11:468,-0.1986,0.8306,14.2663,55.0193,-0.0367,0.3213,0.0165,148.7812
18:52:11:493,-0.2273,0.376,12.9855,54.7071,0.2156,0.2816,-0.1246,148.7812
18:52:11:508,-0.2512,0.3975,10.7734,54.4152,0.5076,0.0483,-0.295,148.7812
18:52:11:528,-0.6009,0.553,8.7577,54.1189,0.6359,-0.1997,-0.4404,149.0781
18:52:11:549,-0.7708,0.917,7.9795,53.8817,0.4997,-0.2327,-0.4795,149.1094
18:52:11:567,-0.8043,1.1109,8.5445,53.6145,0.2278,0.0348,-0.4514,149.125
18:52:11:592,-0.8067,1.185,9.562,53.5054,0.044,0.4404,-0.3952,149.125
18:52:11:609,-0.9123,1.2449,10.1222,53.2364,0.0153,0.6738,-0.3433,148.6406
18:52:11:629,-1.0056,1.3573,10.0193,53.0809,0.0794,0.5925,-0.2895,148.625
18:52:11:648,-1.063,1.5012,9.4687,52.8333,0.1588,0.3476,-0.2285,147.7969
18:52:11:668,-1.0989,1.5778,8.7099,52.5797,0.2046,0.1643,-0.1625,147.1094
18:52:11:690,-1.1659,1.5778,7.9412,52.538,0.2162,0.1301,-0.0959,147.1094
18:52:11:710,-1.2688,1.506,7.1512,52.5884,0.2034,0.179,-0.025,146.6406
18:52:11:730,-1.3358,1.3956,6.4666,52.2979,0.1472,0.2199,0.0666,146.6406
18:52:11:749,-1.2377,1.3286,6.172,52.2002,0.0324,0.273,0.1839,146.4375
18:52:11:768,-0.8429,1.2664,6.7083,52.1068,-0.1209,0.3616,0.3066,146.4375
18:52:11:791,-0.4382,1.1707,7.6397,51.8925,-0.2254,0.5937,0.408,146.9688
18:52:11:808,-0.2608,1.0199,8.2717,51.8668,-0.2126,0.8619,0.4502,146.9688
18:52:11:828,-0.0335,1.0056,8.3339,51.5461,-0.1497,0.9963,0.427,148.0156
18:52:11:849,-0.0502,1.2305,7.8766,51.0904,-0.1558,0.9645,0.306,148.125
18:52:11:868,-0.5315,1.5921,7.8598,50.4869,-0.314,0.8955,0.1167,148.9688
18:52:11:890,-1.427,1.7501,8.7769,50.1942,-0.5333,0.7972,-0.0165,149.0625
18:52:11:910,-2.2552,2.1188,11.0345,49.6724,-0.4887,0.5565,0.0483,149.6406
18:52:11:928,-2.2193,2.2576,10.9265,49.2514,-0.2547,0.5412,0.1344,149.7031
18:52:11:949,-2.3486,2.2839,10.6346,49.1026,-0.1503,0.631,0.1985,150.125
18:52:11:969,-2.5834,2.2457,10.9409,48.5665,-0.1985,0.6927,0.2211,150.3281
18:52:11:993,-2.849,2.0614,11.4197,48.328,-0.2639,0.6524,0.182,150.3281
18:52:12:008,-3.5049,1.5227,11.9249,48.1115,-0.1918,0.3903,0.1014,150.3281
18:52:12:027,-2.9662,2.2887,12.3918,47.9248,0.08,-0.0666,0.0678,150.0781
18:52:12:048,-2.5475,2.6958,12.3655,47.5702,0.3305,-0.2596,-0.1399,150.0625
18:52:12:067,-3.2441,2.3557,12.6096,47.2494,0.3451,-0.0153,-0.4581,149.25
18:52:12:089,-4.5081,1.8984,13.0717,46.7273,0.259,0.441,-0.6243,149.1719
18:52:12:110,-5.3124,1.9582,14.0175,46.3651,0.339,0.7013,-0.6182,148.0312
18:52:12:129,-5.6189,1.9391,13.34,46.3333,0.6927,0.7232,-0.4991,148.0156
18:52:12:148,-4.8601,1.6448,10.8906,46.1733,1.1209,0.4526,-0.2621,147.3594
18:52:12:168,-3.9503,1.3525,8.2884,46.0485,1.3219,0.0367,-0.0556,147.3594
18:52:12:191,-3.3829,1.13,6.3514,45.8393,1.1991,-0.347,-0.0049,147.0938
18:52:12:209,-3.0691,1.0247,6.1768,45.7351,0.8124,-0.5363,-0.0043,146.6875
18:52:12:228,-2.6288,1.1204,6.6915,45.825,0.3152,-0.3653,0.0855,146.6875
18:52:12:248,-2.0255,1.1013,7.6373,45.9175,-0.1399,-0.1637,0.2346,146.0938
18:52:12:268,-1.3406,1.0415,8.6402,45.6371,-0.4404,-0.1527,0.3286,146.0938
18:52:12:290,-1.0798,1.1492,9.0736,45.392,-0.5229,-0.27,0.306,145.6406
18:52:12:309,-1.075,1.4629,8.9157,45.2678,-0.4074,-0.4704,0.2034,145.6406
18:52:12:328,-1.2138,2.004,8.6402,44.9932,-0.2278,-0.5669,0.0874,145.8281
18:52:12:348,-1.7309,1.8697,7.9508,44.8975,-0.066,-0.452,-0.0214,145.8281
18:52:12:368,-1.774,2.3103,7.6995,44.7469,0.0501,-0.3781,0.0049,147.0156
18:52:12:391,-1.7524,2.2146,6.9452,44.5321,0.1558,-0.383,-0.0092,147.1406
18:52:12:450,-1.5395,2.3127,6.9547,44.4273,0.1643,-0.4532,0.0171,148.4375
18:52:12:451,-1.9008,2.4538,8.0417,44.4828,-0.0391,-0.2278,-0.0257,148.5781
18:52:12:451,-2.138,2.3701,8.487,44.2537,-0.0409,-0.1509,-0.0654,149.4688
18:52:12:470,-2.0973,2.3462,8.1592,44.0043,-0.0171,-0.1429,-0.0629,149.5625
18:52:12:490,-1.7285,2.5041,7.9819,43.9072,-0.0935,-0.2761,-0.0696,150.125
18:52:12:509,-1.4916,2.6719,8.3842,43.8715,-0.2462,-0.449,-0.1393,150.1719
18:52:12:529,-1.1874,2.8226,8.9228,43.6767,-0.3415,-0.5748,-0.2327,149.9531
18:52:12:548,-0.8429,3.038,8.9898,43.3958,-0.2981,-0.6438,-0.3329,149.9219
18:52:12:567,-0.8186,3.2632,8.5516,43.143,-0.204,-0.6548,-0.4581,149.1094
18:52:12:590,-1.0247,3.3254,8.9659,42.8237,-0.1759,-0.6866,-0.5571,149.0312
18:52:12:608,-1.0223,3.3206,9.7846,42.5653,-0.16,-0.6188,-0.5614,148.6562
18:52:12:628,-1.0654,3.0212,10.3472,42.3889,-0.1209,-0.4197,-0.5192,148.625
18:52:12:650,-0.8764,2.8442,10.7207,42.2381,-0.1148,-0.2596,-0.4685,148.7031
18:52:12:667,-0.821,2.5208,11.3025,41.8688,-0.1674,-0.3744,-0.449,148.8281
18:52:12:689,-0.3497,2.2337,11.5636,41.7402,-0.2095,-0.6774,-0.4178,148.8281
18:52:12:709,0.0407,2.0614,11.6091,41.579,-0.2706,-0.8289,-0.4459,148.875
18:52:12:728,-0.1436,1.7692,12.5474,41.3621,-0.3885,-0.6774,-0.5473,148.875
18:52:12:749,-0.6153,1.3573,13.9146,41.2729,-0.4991,-0.0819,-0.5999,149.0312
18:52:12:767,-1.2162,0.8163,14.4485,41.4399,-0.4868,0.6719,-0.5821,149.0312
18:52:12:789,-1.5873,0.4789,13.3807,41.4135,-0.2908,1.0543,-0.6225,149.25
18:52:12:808,-1.8577,0.3855,11.19,41.3331,-0.0061,0.8723,-0.7629,149.25
18:52:12:830,-2.4108,0.553,9.2988,41.296,0.1894,0.3592,-0.8509,149.8281
18:52:12:849,-2.4419,0.8835,7.8909,41.2983,0.1649,-0.0953,-0.7691,149.8281
18:52:12:868,-2.1069,0.8644,8.353,41.4571,-0.1209,-0.2376,-0.5999,150.8438
18:52:12:890,-1.3621,0.7804,9.4831,41.6651,-0.4038,0.0257,-0.4429,150.9531
18:52:12:909,-0.8429,0.5243,9.9428,41.8144,-0.452,0.3622,-0.4172,152.0312
18:52:12:928,-0.6535,0.3616,9.8157,41.6644,-0.3176,0.4465,-0.4893,152.1562
18:52:12:949,-0.7253,0.4549,9.4902,41.3832,-0.1374,0.2981,-0.576,153.0625
18:52:12:971,-0.8429,0.7516,8.9922,41.2646,0.022,0.1026,-0.6408,153.1406
18:52:12:989,-1.1611,0.8378,8.5923,41.3784,0.1533,-0.0751,-0.6646,154
18:52:13:007,-0.8282,1.063,7.6851,41.5784,0.3903,-0.1106,-0.5718,154.0938
18:52:13:028,-0.6464,1.1468,7.0268,41.6114,0.4313,-0.0208,-0.5589,155.1406
18:52:13:049,-0.6918,1.2832,7.0074,41.5917,0.3476,0.0403,-0.5699,155.25
18:52:13:068,-0.7851,1.4366,7.654,41.7084,0.1668,0.1668,-0.5492,156.3125
18:52:13:090,-0.9482,1.4438,8.5014,42.0419,-0.0098,0.3176,-0.507,156.4219
18:52:13:110,-1.0582,1.4557,9.4232,42.4148,-0.0709,0.3506,-0.4734,158.0469
18:52:13:128,-0.9673,1.5754,9.7917,42.5878,-0.0006,0.306,-0.4361,158.2188
18:52:13:150,-0.8644,1.762,9.7989,42.7872,0.1112,0.2321,-0.4319,159.7344
18:52:13:167,-1.0917,1.9056,9.4567,42.4689,0.2162,0.1014,-0.471,160.5469
18:52:13:190,-1.5682,2.004,9.3586,42.5421,0.2523,-0.1155,-0.4942,160.5469
18:52:13:211,-2.0686,2.0088,9.7534,42.6229,0.1955,-0.2578,-0.4447,161.6406
18:52:13:229,-2.4802,1.6687,10.1175,42.6691,0.1161,-0.2511,-0.3506,161.6406
18:52:13:251,-2.4849,1.276,10.3783,42.567,0.0538,-0.1686,-0.2333,163.1094
18:52:13:267,-2.5089,1.0104,10.503,42.6079,-0.0214,-0.0757,-0.1619,163.1094
18:52:13:289,-2.7532,0.833,10.8117,42.6387,-0.1509,-0.0525,-0.1515,164.5312
18:52:13:308,-3.1531,0.6559,11.8484,42.4785,-0.3824,-0.0079,-0.113,164.5312
18:52:13:328,-3.0236,0.1795,13.2826,42.669,-0.6322,0.1271,0.0043,165.9219
18:52:13:350,-2.2217,-0.1723,14.3719,42.4975,-0.7196,0.2761,0.1118,165.9219
18:52:13:367,-1.8649,-0.4238,14.5322,42.5892,-0.554,0.3097,0.0855,167
18:52:13:388,-1.9896,-0.4549,13.5697,42.6192,-0.1637,0.1038,-0.044,167.1094
18:52:13:408,-2.4467,-0.3664,11.7742,42.6073,0.3262,-0.2456,-0.193,168.0312
18:52:13:429,-3.1268,-0.2345,9.6051,42.9627,0.6408,-0.3518,-0.2327,168.1094
18:52:13:450,-3.5025,-0.055,8.0728,43.0758,0.6163,-0.2034,-0.1319,169.0781
18:52:13:469,-2.1667,0.0694,8.5038,43.5322,-0.1161,0.1326,0.3457,169.1719
18:52:13:489,-1.1492,0.0837,9.3945,43.7771,-0.3366,0.0464,0.4716,170.1875
18:52:13:508,-0.5076,0.2249,9.5668,44.031,-0.2963,-0.102,0.4264,170.2812
18:52:13:528,-0.4669,0.3903,9.1717,44.3704,-0.0983,-0.2333,0.2535,170.9062
18:52:13:548,-0.6655,0.711,8.2813,44.6195,0.1179,-0.2908,0.0709,170.9688
18:52:13:567,-0.929,1.0271,7.2565,44.8876,0.2437,-0.2694,-0.0525,171.25
18:52:13:589,-1.1922,1.2449,6.6102,44.9695,0.2663,-0.2529,-0.113,171.2812
18:52:13:609,-1.3932,1.4438,6.3132,45.2623,0.2181,-0.2071,-0.1167,171.2188
18:52:13:628,-1.6352,1.5514,6.4714,45.3275,0.1075,-0.1008,-0.0837,171.2188
18:52:13:649,-1.7094,1.5562,7.0268,45.5161,-0.033,0.0434,-0.0287,170.7969
18:52:13:667,-1.7285,1.5251,7.8168,45.8457,-0.1533,0.19,0.0128,171.0625
18:52:13:690,-1.7883,1.5203,8.5134,45.892,-0.1997,0.2871,0.0134,171.0625
18:52:13:709,-1.8625,1.6232,8.9635,46.0492,-0.1613,0.3164,-0.0092,171.6875
18:52:13:728,-1.9175,1.817,9.0568,46.2571,-0.0794,0.2792,-0.0409,171.6875
18:52:13:749,-1.9175,2.0399,8.9827,46.0933,-0.0165,0.1716,-0.0635,171.2344
18:52:13:768,-1.7572,2.2552,8.9348,46.3184,-0.0043,0.0049,-0.0751,171.2344
18:52:13:790,-1.5634,2.4156,8.7266,46.3578,-0.0122,-0.2004,-0.0898,170.1406
18:52:13:808,-1.2592,2.4132,8.5636,46.6216,-0.0202,-0.4288,-0.1112,170.1406
18:52:13:828,-0.821,2.2481,9.1932,46.5548,-0.0556,-0.5308,-0.1252,169.7656
18:52:13:850,-0.754,1.9032,9.6745,46.5094,-0.1271,-0.3726,-0.1448,169.7656
18:52:13:868,-0.6679,1.6161,10.771,46.8647,-0.2596,-0.2107,-0.1955,170.0156
18:52:13:890,-0.5411,1.5849,12.6386,47.0878,-0.4105,-0.1081,-0.2682,170.0156
18:52:13:910,-0.7349,1.2305,14.027,47.4082,-0.3983,-0.1814,-0.3647,170.2656
18:52:13:930,-0.7421,1.1587,14.6255,47.2215,-0.2535,-0.3445,-0.4447,170.2812
18:52:13:950,-0.9218,0.9505,14.3671,47.3547,-0.1264,-0.3793,-0.5039,170.2812
18:52:13:969,-0.9386,0.8955,13.9911,47.4343,-0.0452,-0.3806,-0.5608,170.2812
18:52:13:990,-0.7804,0.7612,14.0342,47.8072,0.0623,-0.1979,-0.5882,170.2344
18:52:14:008,-0.4143,0.2584,12.1597,48.1833,0.3042,-0.0928,-0.6567,170.2188
18:52:14:028,-0.3377,0.2082,10.2778,48.091,0.5455,-0.1936,-0.7165,170.3125
18:52:14:049,-0.2297,0.3999,8.9683,48.1969,0.5852,-0.2315,-0.7513,170.3281
18:52:14:068,-0.419,0.3927,8.9276,48.6051,0.3934,-0.0104,-0.7752,170.4844
18:52:14:091,-0.4454,0.2512,9.5189,49.214,0.1527,0.3891,-0.7251,170.5
18:52:14:109,-0.3473,0.0574,9.9045,49.5328,0.0476,0.6762,-0.6768,170.7031
18:52:14:128,-0.3568,-0.0574,9.8279,49.8505,0.11,0.755,-0.6732,170.7188
18:52:14:150,-0.5243,-0.0479,9.0568,49.9601,0.2761,0.6591,-0.7043,171.0156
18:52:14:167,-0.7732,0.0144,8.068,50.3144,0.4148,0.4606,-0.7245,171.5781
18:52:14:190,-0.9553,0.0598,6.7705,50.7084,0.4392,0.2346,-0.6921,171.5781
18:52:14:209,-0.7708,0.1986,6.0906,51.1992,0.3201,-0.0043,-0.6475,172.5156
18:52:14:230,-0.5506,0.2776,6.2653,51.4863,0.1258,-0.0751,-0.6273,172.5156
18:52:14:251,-0.4525,0.2632,6.5839,51.8339,0.0104,0.0171,-0.6194,173.6719
18:52:14:267,-0.4956,0.2704,6.6915,52.2197,0.0043,0.1338,-0.6121,173.6719
18:52:14:290,-0.6296,0.3353,6.7825,52.4831,0.0092,0.2462,-0.6053,175.0781
18:52:14:309,-0.8859,0.4693,7.0795,52.8798,-0.0593,0.3854,-0.5834,175.0781
18:52:14:328,-1.0223,0.6368,7.7833,53.2804,-0.1912,0.4905,-0.5272,176.8125
18:52:14:349,-1.0487,0.7277,8.4942,53.4626,-0.3152,0.4978,-0.4642,176.8125
18:52:14:373,-0.8402,0.6631,8.5469,53.4603,-0.4282,0.3402,-0.4313,178.5469
18:52:14:391,-0.2489,0.7253,9.1741,53.6864,-0.6548,-0.1148,-0.4923,178.5469
18:52:14:409,-0.3544,0.9817,11.3264,53.8356,-0.8802,-0.7825,-0.7422,179.9844
18:52:14:428,-1.3717,1.1563,13.1988,53.9377,-0.7996,-1.1276,-0.9462,180.1406
18:52:14:450,-2.1667,1.2592,13.5051,54.0343,-0.4074,-0.9804,-0.8705,181.7031
18:52:14:507,-2.4036,1.2449,12.3894,54.1484,0.0073,-0.5901,-0.6316,181.8594
18:52:14:508,-2.8322,1.0893,11.5995,54.1368,0.0544,-0.0727,-0.1655,183.3281
18:52:14:517,-3.5958,0.9482,11.6737,54.2604,-0.0861,-0.0904,0.1344,183.4688
18:52:14:527,-2.6575,0.2297,12.5139,54.5524,-0.2199,-0.0971,0.4594,184.7344
18:52:14:549,-1.4629,-0.3377,12.7726,54.7764,-0.3201,-0.1729,0.6359,184.8594
18:52:14:567,-0.9051,-0.5961,13.4859,55.0502,-0.3323,-0.2761,0.5504,186.0938
18:52:14:587,-0.8692,-0.632,14.0007,55.3387,-0.1857,-0.2077,0.3604,186.2188
18:52:14:610,-1.0726,-0.6583,13.4477,55.6291,0.1008,-0.0238,0.2132,187.3281
18:52:14:630,-1.3334,-0.6153,12.1262,56.0605,0.4416,-0.022,0.0977,187.4531
18:52:14:648,-1.7764,-0.6751,10.3519,56.3854,0.7245,-0.1674,0.0092,188.2656
18:52:14:669,-2.0399,-0.6248,8.8367,56.4813,0.8057,-0.2388,0.0012,189.3906
18:52:14:691,-1.8721,-0.4143,8.3315,56.6067,0.6182,-0.1008,0.0721,189.3906
18:52:14:709,-1.4557,-0.3999,8.5708,56.7203,0.2932,0.1307,0.1814,191
18:52:14:727,-0.8115,-0.3975,8.8941,56.6757,0.0373,0.2071,0.2511,191
18:52:14:749,-0.2994,-0.2297,8.9611,56.8507,-0.0751,0.1374,0.2077,192.0781
18:52:14:768,-0.0574,0.0167,8.8391,56.9376,-0.0678,0.0434,0.0764,192.0781
18:52:14:790,0.0096,0.3042,8.5564,56.9953,0.0244,-0.0067,-0.0715,192.1094
18:52:14:809,-0.079,0.5267,8.1568,57.1436,0.1649,-0.0159,-0.1894,192.1094
18:52:14:830,-0.2827,0.6799,7.5942,57.4291,0.3011,-0.0257,-0.2523,190.8125
18:52:14:851,-0.4645,0.8788,7.2948,57.3228,0.3628,-0.0507,-0.27,190.8125
18:52:14:869,-0.5004,1.0032,7.247,57.2682,0.3531,-0.0751,-0.2627,189.7031
18:52:14:891,-0.6488,0.9912,7.3714,57.2933,0.3073,-0.0971,-0.2541,189.7031
18:52:14:908,-0.7014,0.9984,7.4982,57.3361,0.2529,-0.1216,-0.2272,189.4375
18:52:14:929,-0.8282,1.0893,7.7785,57.3406,0.1735,-0.1155,-0.2016,189.4062
18:52:14:949,-0.874,1.1731,8.1808,57.3783,0.0715,-0.0757,-0.1796,189.5312
18:52:14:970,-0.486,1.5275,9.1238,57.4132,-0.0238,-0.0348,-0.2162,189.5469
18:52:14:991,-0.5506,1.8482,9.4735,57.3411,0.0153,-0.0287,-0.3317,189.3906
18:52:15:009,-0.9338,2.1667,9.6529,57.2598,0.1106,-0.0189,-0.46,189.375
18:52:15:029,-1.4318,2.4419,9.8013,57.477,0.2107,0.0147,-0.5437,188.9375
18:52:15:049,-1.8553,2.5786,10.2347,57.7585,0.248,0.124,-0.554,188.8906
18:52:15:067,-2.1284,2.4802,10.9723,57.6108,0.2126,0.3421,-0.5101,188.8906
18:52:15:087,-1.8529,2.126,11.9895,57.6637,0.1631,0.5369,-0.4746,188.875
18:52:15:109,-1.2329,1.8721,12.6168,57.5652,0.193,0.4954,-0.5369,189.375
18:52:15:129,-1.386,1.7812,12.047,57.5924,0.3109,0.1888,-0.7092,189.4219
18:52:15:151,-1.9152,2.0207,11.4604,57.8372,0.2993,-0.1478,-0.8063,190.0156
18:52:15:167,-2.6025,2.0423,11.6258,58.0626,0.0367,-0.2456,-0.7752,190.6719
18:52:15:190,-2.5403,1.6376,12.6168,58.0164,-0.2987,-0.1118,-0.642,190.6719
18:52:15:210,-1.6759,1.1348,14.2065,57.8357,-0.4508,0.1435,-0.5443,191.1094
18:52:15:228,-0.9338,0.5435,14.7619,58.0005,-0.2291,0.4435,-0.5571,191.1094
18:52:15:249,-0.6703,-0.1268,12.9162,57.8549,0.292,0.54,-0.6328,191.5156
18:52:15:268,-0.4382,-0.079,9.938,57.6303,0.7013,0.2187,-0.7055,191.5156
18:52:15:289,-0.5124,0.079,8.633,57.2551,0.7061,-0.3225,-0.7385,192.3906
18:52:15:310,-0.3832,0.4119,8.8487,56.9999,0.4697,-0.5608,-0.6573,192.3906
18:52:15:329,-0.28,0.3736,9.6099,56.9968,0.2614,-0.4013,-0.5467,193.6719
18:52:15:351,0.3138,0.4095,9.7487,56.5813,0.1759,-0.014,-0.4594,193.6719
18:52:15:374,0.6966,0.4262,9.8853,56.3106,0.1454,0.3341,-0.4972,194.8438
18:52:15:390,0.2536,0.4765,9.7176,55.9386,0.1942,0.4502,-0.6444,194.8438
18:52:15:408,-0.6416,0.7828,9.2868,55.9541,0.358,0.2547,-0.8039,196.1875
18:52:15:428,-1.3262,1.209,8.286,55.7963,0.5479,0,-0.8509,196.3125
18:52:15:450,-1.6783,1.3908,7.1991,55.6035,0.6414,-0.1607,-0.7715,197.9219
18:52:15:468,-1.7788,1.4557,6.6197,55.3114,0.6084,-0.2602,-0.6347,198.0781
18:52:15:491,-1.4438,1.4294,6.1624,54.7927,0.3879,-0.3622,-0.3347,199.1875
18:52:15:511,-1.1803,1.4486,5.9662,54.7572,0.2065,-0.3861,-0.2016,199.2969
18:52:15:529,-0.7421,1.4916,6.8566,54.5617,-0.0776,-0.4294,-0.1093,200.5469
18:52:15:551,-0.3712,1.3789,8.2406,54.3475,-0.292,-0.43,-0.0806,200.6719
18:52:15:567,-0.1101,1.3358,9.0808,54.1497,-0.3262,-0.3164,-0.0953,202.2812
18:52:15:587,0.2393,1.4892,9.6769,54.1573,-0.2682,-0.1429,-0.1405,202.4375
18:52:15:609,0.6272,1.774,10.3687,54.115,-0.2083,0.0348,-0.2327,203.6875
18:52:15:628,0.1627,1.7237,10.838,53.9115,-0.1796,0.1167,-0.3744,203.8125
18:52:15:649,-0.7205,1.7094,10.7088,53.9591,-0.1423,-0.0764,-0.4679,204.8125
18:52:15:667,-0.9434,2.0806,10.9771,53.87,-0.1319,-0.361,-0.474,206.6094
18:52:15:690,-1.4246,1.9175,11.324,53.8658,-0.1289,-0.3561,-0.4374,206.6094
18:52:15:710,-1.908,1.5921,11.1996,53.7087,-0.0525,-0.1411,-0.361,208.5312
18:52:15:728,-2.1667,1.3884,10.5509,53.3942,0.0367,0.0293,-0.2633,208.5312
18:52:15:750,-2.4203,1.2329,9.7199,53.1147,0.0018,0.0788,-0.1686,209.875
18:52:15:767,-2.5041,1.2066,9.7893,52.8432,-0.2407,-0.0611,-0.0819,209.875
18:52:15:789,-2.5977,1.008,10.9699,52.6028,-0.5461,-0.2822,-0.0165,210.5156
18:52:15:810,-2.5977,0.8043,12.0518,52.5344,-0.6976,-0.3085,0.0819,210.5156
18:52:15:828,-2.3557,0.711,12.3727,52.0083,-0.6848,-0.1155,0.2175,210.6719
18:52:15:851,-2.0758,0.6033,12.5091,51.6155,-0.6078,0.1179,0.3195,210.6719
18:52:15:868,-1.8601,0.4358,12.2842,51.5893,-0.46,0.2547,0.3812,210.8594
18:52:15:890,-1.7955,0.2297,11.6234,51.3364,-0.2364,0.1833,0.4392,210.875
18:52:15:909,-1.6759,0.0694,10.6346,50.9405,-0.0122,-0.0067,0.5039,211.5
18:52:15:928,-1.4174,0.0167,9.7846,50.5443,0.0812,-0.0776,0.573,211.5
18:52:15:949,-0.9458,0.1125,9.5644,50.0366,-0.0147,0.0495,0.6414,212.4062
18:52:15:968,-0.5363,0.2632,9.9117,49.5788,-0.1625,0.2278,0.6512,212.4844
18:52:15:990,-0.2536,0.6105,9.696,49.3588,-0.1918,0.3115,0.5803,213.2656
18:52:16:010,-0.2106,0.8477,8.9563,49.0381,-0.0739,0.2364,0.4685,213.3281
18:52:16:030,-0.3784,1.0845,8.0441,48.5518,0.2523,-0.1307,0.2004,213.7812
18:52:16:051,-0.5698,1.3214,7.436,48.4737,0.3048,-0.237,0.1216,213.8281
18:52:16:074,-0.6511,1.4414,7.1082,48.2891,0.3054,-0.2651,0.1087,213.8594
18:52:16:090,-0.7277,1.4462,6.9643,48.049,0.2871,-0.2248,0.1295,213.8594
18:52:16:108,-0.778,1.3478,7.0843,48.0113,0.2504,-0.1252,0.1619,213.4375
18:52:16:129,-0.7828,1.2305,7.314,48.018,0.1765,0.0244,0.1967,213.3906
18:52:16:149,-0.8067,1.2257,7.7234,47.7728,0.0672,0.1509,0.2071,212.6562
18:52:16:168,-0.9147,1.2879,8.3219,47.4215,-0.033,0.2254,0.1784,211.625
18:52:16:189,-0.8429,1.3693,9.1454,47.3748,-0.0867,0.3121,0.1344,211.625
18:52:16:210,-0.8067,1.4486,9.5788,46.9896,-0.0593,0.3995,0.0733,210.2031
18:52:16:229,-0.5937,1.6974,9.859,46.8004,0.0275,0.3292,-0.0208,210.2031
18:52:16:249,-0.5626,1.9657,9.7606,46.6565,0.1271,0.1295,-0.1332,208.8594
18:52:16:267,-0.6416,2.2457,9.5931,46.3019,0.1796,-0.135,-0.2248,208.8594
18:52:16:290,-0.7684,2.4921,9.8471,45.8796,0.1442,-0.314,-0.281,208
18:52:16:309,-0.7612,2.5307,10.5509,45.7757,0.0312,-0.2297,-0.2895,208
18:52:16:329,-0.4478,2.4156,11.822,45.7304,-0.0916,-0.0086,-0.284,207.6562
18:52:16:350,-0.1627,2.3605,13.0789,45.56,-0.1173,0.1203,-0.3329,207.6562
18:52:16:373,-0.2249,2.3701,13.1172,45.2647,0.0476,0.1112,-0.438,207.6562
18:52:16:391,-0.5626,2.2839,12.0541,45.2968,0.2883,-0.1075,-0.5217,207.4219
18:52:16:409,-0.6416,2.2217,11.2044,45.0575,0.3439,-0.3873,-0.5174,207.0625
18:52:16:428,-0.4789,1.9534,11.0895,44.8686,0.1594,-0.4508,-0.441,207.0625
18:52:16:449,-0.079,1.5132,12.0637,44.6369,-0.1087,-0.2773,-0.3726,206.6875
18:52:16:474,0.2898,0.7875,13.1339,44.5956,-0.2016,-0.0177,-0.3879,206.6562
18:52:16:492,0.5794,0.2154,13.0837,44.2992,-0.0379,0.2071,-0.4771,206.4688
18:52:16:561,-1.0391,-0.0646,10.4623,44.109,0.5174,0.1668,-0.9486,206.4531
18:52:16:561,-2.1547,0.3162,9.1717,44.0204,0.5962,0.1319,-1.0555,206.6562
18:52:16:562,-2.8561,0.766,8.4033,43.4944,0.4496,0.2346,-0.9627,206.6562
18:52:16:574,-2.9877,0.9697,8.3722,43.1956,0.1723,0.3451,-0.7196,207.1719
18:52:16:590,-2.6982,0.8979,8.5181,43.0934,-0.0812,0.3439,-0.4227,207.2188
18:52:16:608,-2.1117,0.8524,8.3507,42.9626,-0.2107,0.1814,-0.1765,207.7812
18:52:16:627,-1.5299,0.8524,8.2478,42.6374,-0.2517,-0.0195,-0.0421,207.8281
18:52:16:651,-1.0415,0.9242,8.5612,42.4728,-0.2498,-0.0647,-0.0055,208.6094
18:52:16:667,-0.9147,0.9218,8.6833,42.1523,-0.1881,0.0464,-0.0379,209.75
18:52:16:689,-0.9147,0.996,8.5564,41.8546,-0.0605,0.1057,-0.088,209.75
18:52:16:709,-0.9649,1.0606,8.0178,41.8206,0.0849,0.066,-0.1185,210.7188
18:52:16:727,-0.8668,1.1827,7.5724,41.5613,0.1613,-0.0409,-0.1191,210.7188
18:52:16:749,-0.7947,1.2999,7.5509,41.4339,0.1313,-0.1136,-0.1075,211.6719
18:52:16:767,-0.6799,1.3597,7.812,41.1044,0.0556,-0.1295,-0.0935,211.6719
18:52:16:790,-0.3903,1.4916,8.2669,40.9799,-0.0012,-0.1155,-0.0776,213.5625
18:52:16:811,-0.2058,1.6041,8.7458,40.7648,-0.0348,-0.0733,-0.0904,213.5625
18:52:16:828,-0.0814,1.7261,9.0185,40.5667,-0.0434,-0.022,-0.1258,215.6875
18:52:16:851,-0.0598,1.9343,9.4974,40.6738,-0.055,0.0501,-0.168,215.8906
18:52:16:868,-0.352,2.1141,9.9045,40.4398,-0.036,0.1454,-0.2266,215.9062
18:52:16:890,-0.8282,2.1619,9.859,40.5099,0.0312,0.2065,-0.2547,217.2031
18:52:16:909,-1.3023,2.1978,9.7008,40.2979,0.0702,0.1655,-0.2223,217.4062
18:52:16:930,-1.6831,2.1476,9.8279,40.2858,0.0214,0.0666,-0.1374,217.4062
18:52:16:950,-1.7859,1.9415,10.1533,40.0377,-0.0794,-0.0373,-0.0122,217.4219
18:52:16:968,-1.5897,1.5849,10.625,40.008,-0.1881,-0.179,0.1142,217.4219
18:52:16:991,-1.5323,1.142,11.2211,39.8281,-0.2682,-0.3396,0.1539,217.6406
18:52:17:009,-1.7931,0.711,11.8196,39.5896,-0.3073,-0.4148,0.1356,217.6562
18:52:17:028,-1.9657,0.5124,12.2339,39.3399,-0.3415,-0.3384,0.1466,217.9062
18:52:17:051,-1.3478,0.0407,12.2578,39.1465,-0.3207,-0.2285,0.2449,217.9219
18:52:17:073,-0.8835,0.1077,12.265,39.162,-0.2443,-0.113,0.2596,218.0938
18:52:17:091,-0.8716,0.2273,12.3392,39.0924,-0.1423,0.157,0.2034,218.1094
18:52:17:110,-1.1444,0.2225,12.0999,38.9545,-0.022,0.3525,0.1429,218.3125
18:52:17:128,-1.4462,0.2225,11.1111,38.9859,0.1515,0.2425,0.1228,218.3281
18:52:17:149,-1.817,0.2465,9.9069,38.8859,0.3018,-0.0226,0.1442,218.7344
18:52:17:167,-1.9777,0.5148,9.1047,38.7111,0.2975,-0.1057,0.2315,219.2656
18:52:17:190,-2.1117,0.7301,9.0425,38.7765,0.1466,0.0476,0.3518,219.2656
18:52:17:208,-1.9944,0.6727,9.4232,38.8741,-0.0617,0.2944,0.5021,219.4844
18:52:17:229,-1.5945,0.5746,9.7199,38.4756,-0.2175,0.4532,0.6249,219.4844
18:52:17:250,-1.2568,0.5387,9.4328,38.1937,-0.2614,0.4258,0.6377,219.125
18:52:17:268,-0.9625,0.6153,8.9731,38.1428,-0.2132,0.2309,0.5492,219.125
18:52:17:290,-0.862,0.6679,8.2765,38.093,-0.1179,0.014,0.4093,218.7031
18:52:17:309,-0.7564,0.8091,7.5054,38.2937,-0.0134,-0.1833,0.2706,218.7031
18:52:17:328,-0.754,1.0152,7.0002,38.1744,0.0501,-0.2889,0.1619,218.7031
18:52:17:349,-0.8378,1.2616,6.9284,37.9696,0.0666,-0.259,0.0855,218.1406
18:52:17:367,-0.9314,1.3956,7.1895,37.7585,0.0861,-0.1539,0.047,217.6094
18:52:17:390,-1.0032,1.4868,7.4192,37.9684,0.1161,-0.0189,0.0531,217.6094
18:52:17:408,-0.9147,1.5802,7.9747,37.8245,0.0928,0.0654,0.0617,217.3594
18:52:17:428,-0.8282,1.7405,8.8008,37.7105,0.0342,0.055,0.0495,217.3594
18:52:17:449,-0.9362,1.9439,9.4591,37.468,-0.0067,-0.044,0.0232,217
18:52:17:471,-0.9673,2.272,9.859,37.1095,-0.0202,-0.2046,0.0226,217
18:52:17:488,-0.7445,2.5546,9.9858,37.2153,-0.0098,-0.3262,0.0574,216.1719
18:52:17:508,-0.3784,2.7772,9.9212,37.1159,0.0379,-0.4025,0.0751,216.0938
18:52:17:528,-0.2273,2.9399,9.7534,36.969,0.124,-0.4557,0.0336,214.8438
18:52:17:550,-0.4286,3.0858,10.0887,37.003,0.193,-0.2449,-0.0831,214.7188
18:52:17:571,-0.7301,2.782,11.0106,37.1248,0.1381,0.0397,-0.0928,213.7344
18:52:17:587,-0.6966,2.4395,11.7933,37.1578,0.1069,0.2004,-0.0739,213.6406
18:52:17:607,-0.4525,2.2433,12.0494,37.1076,0.146,0.0819,-0.091,213.1719
18:52:17:627,-0.1819,2.2528,11.5636,37.1511,0.2498,-0.2138,-0.1674,213.125
18:52:17:648,-0.1914,2.3438,10.6059,36.9291,0.3219,-0.4618,-0.2559,212.9844
18:52:17:668,-0.3951,2.2648,10.3017,36.8163,0.1888,-0.4795,-0.2755,212.875
18:52:17:688,-0.4908,1.8984,10.9217,36.7402,-0.0837,-0.2712,-0.2065,212.875
18:52:17:707,-0.2369,1.4222,12.023,36.2952,-0.325,0.0232,-0.1045,212.7812
18:52:17:727,0.2728,0.8812,13.3998,36.2014,-0.4453,0.3073,-0.0544,212.7812
18:52:17:747,0.5578,0.4119,13.9074,35.7681,-0.3335,0.4716,-0.091,212.6562
18:52:17:768,0.2898,0.0957,12.4708,35.4178,0.0342,0.3433,-0.2602,212.6562
18:52:17:788,-0.2827,0.3018,10.2251,35.0605,0.3861,0.0006,-0.474,212.5156
18:52:17:807,-1.0056,0.6224,8.6713,34.7162,0.4453,-0.1778,-0.5754,212.5
18:52:17:827,-1.3836,0.8019,8.0776,34.5238,0.2315,-0.0464,-0.4801,212.5
18:52:17:848,-1.4414,0.8477,8.3507,34.1028,-0.0855,0.1979,-0.2804,212.625
18:52:17:867,-1.4773,0.8644,8.444,33.9449,-0.3305,0.3525,-0.0819,212.8281
18:52:17:888,-1.3621,0.8282,8.3339,33.6316,-0.4948,0.3366,0.1032,212.8281
18:52:17:908,-0.8524,0.7828,8.7338,33.6005,-0.6396,0.2211,0.2492,213.1406
18:52:17:927,-0.1866,0.7253,9.6051,33.498,-0.7006,0.1472,0.2987,213.1406
18:52:17:948,0.0263,0.5985,10.1701,33.4122,-0.5711,0.146,0.2065,213.7031
18:52:17:967,-0.1292,0.5411,9.7798,33.1627,-0.2737,0.1191,0.0446,213.7031
18:52:17:989,-0.3185,0.7134,8.8152,32.727,0.0367,0.0299,-0.0892,213.9844
18:52:18:007,-0.5674,0.8258,7.7474,32.677,0.2181,-0.0452,-0.1509,214.0156
18:52:18:028,-0.687,0.9434,7.1489,32.4659,0.2327,-0.1203,-0.1338,214.1562
18:52:18:048,-0.5483,1.0702,7.4456,32.2155,0.1167,-0.1381,-0.0721,214.1719
18:52:18:069,-0.297,1.2688,9.2845,31.8823,0.0513,0.0574,-0.011,214.9375
18:52:18:088,-0.1316,1.3549,9.5764,31.7812,0.2114,0.1778,-0.022,215.0312
18:52:18:107,-0.0814,1.5538,9.4998,31.5946,0.3372,0.2559,-0.0666,216.1094
18:52:18:127,-0.1795,1.8864,9.5859,31.4259,0.3512,0.2162,-0.1472,216.2188
18:52:18:147,-0.4382,2.0471,9.6936,31.4772,0.3183,0.055,-0.1949,216.5938
18:52:18:167,-0.3664,2.2146,9.926,31.2302,0.2914,-0.1442,-0.1613,216.2344
18:52:18:188,-0.3353,2.2911,10.491,31.2133,0.259,-0.2798,-0.1173,216.2344
18:52:18:208,-0.3832,2.1428,11.1159,31.0036,0.2419,-0.2572,-0.0782,215.6094
18:52:18:227,-0.4932,2.0423,11.621,30.7737,0.2559,-0.1161,-0.0531,215.6094
18:52:18:248,-0.9888,1.7046,11.8795,30.5262,0.2969,-0.0727,-0.0556,215.5781
18:52:18:271,-1.4079,1.3597,11.712,30.3144,0.336,-0.1533,-0.033,215.5781
18:52:18:288,-1.695,1.1563,11.4796,30.4207,0.2926,-0.1631,0.036,215.9219
18:52:18:308,-1.9247,0.8402,11.0321,30.2945,0.1643,-0.1008,0.1655,215.9219
18:52:18:327,-1.7501,0.8043,11.013,30.1529,-0.0232,-0.0806,0.3115,215.9219
18:52:18:348,-1.4004,0.8907,11.5828,29.7262,-0.2187,0.0678,0.416,216.0312
18:52:18:367,-1.0822,0.8282,11.8986,29.5227,-0.3256,0.3647,0.4801,216.1094
18:52:18:388,-0.8883,0.6727,11.458,29.5239,-0.2126,0.4337,0.4728,216.1094
18:52:18:408,-1.075,0.5028,10.2706,29.2961,0.0629,0.273,0.3879,216.4375
18:52:18:427,-1.6687,0.4047,9.1478,29.0599,0.248,0.1863,0.2883,216.4375
18:52:18:448,-2.0758,0.699,8.7601,28.7196,0.1588,0.3256,0.2627,216.875
18:52:18:467,-2.1141,0.8234,9.3203,28.7085,-0.1173,0.5186,0.3292,216.875
18:52:18:488,-1.5826,0.8572,9.9188,28.6082,-0.3384,0.5669,0.4557,217.0781
18:52:18:508,-0.6703,0.9936,9.8614,28.5862,-0.3555,0.3824,0.5192,217.1094
18:52:18:527,-0.0167,1.2401,9.0473,28.5741,-0.2144,0.0727,0.419,217.25
18:52:18:547,-0.0335,1.5275,8.1688,28.323,-0.077,-0.171,0.2071,217.2656
18:52:18:600,-0.3473,1.908,8.0417,28.1728,0.0342,-0.011,0.0061,217.2969
18:52:18:600,-0.6559,2.083,7.4958,28.0373,0.1185,0.0886,0.0727,217.2969
18:52:18:607,-0.3544,2.1523,7.1704,27.8516,0.135,0.0428,0.1429,216.8125
18:52:18:627,-0.1675,2.0925,7.156,27.6188,0.0599,-0.0202,0.1655,216.7812
18:52:18:647,-0.3808,2.5184,7.9579,27.519,-0.069,-0.0721,0.1423,215.8594
18:52:18:667,-0.7732,2.473,8.7864,27.3322,-0.1234,-0.0403,0.11,214.9219
18:52:18:688,-0.9027,2.4658,8.9204,27.1488,-0.0745,0.11,0.1655,214.9219
18:52:18:707,-0.9793,2.5905,9.0185,27.1707,-0.044,0.1637,0.2376,214.3438
18:52:18:727,-0.8378,2.6551,9.2578,27.2102,-0.0605,0.044,0.2871,214.3438
18:52:18:748,-0.5554,2.691,9.3897,27.1836,-0.0519,-0.1454,0.3073,213.4375
18:52:18:768,-0.3185,2.8059,9.1932,27.0333,0.0098,-0.3231,0.2529,213.4375
18:52:18:788,-0.3999,2.8825,9.0903,27.0558,0.0593,-0.4331,0.1527,213.4219
18:52:18:808,-0.7636,2.8753,9.3634,26.7486,0.0336,-0.3616,0.0892,212.3594
18:52:18:827,-1.0822,2.7867,10.4097,26.7237,-0.0696,-0.0996,0.0886,212.3594
18:52:18:847,-1.1659,2.6001,11.7503,26.6613,-0.1497,0.2022,0.1344,212.0469
18:52:18:867,-1.063,2.4634,12.2172,26.4442,-0.1008,0.2798,0.1796,211.9844
18:52:18:891,-0.7325,2.4969,11.7,25.9456,0.0336,-0.0104,0.1564,211.9844
18:52:18:908,-0.6775,2.569,11.0034,25.654,0.1264,-0.4685,0.025,211.6562
18:52:18:928,-0.9147,2.4706,10.85,25.6205,0.1093,-0.6976,-0.0904,211.6562
18:52:18:949,-1.1611,2.2265,10.9579,25.1472,-0.0061,-0.5125,-0.0641,211.3594
18:52:18:974,-0.9601,1.7572,11.4867,24.9192,-0.1826,-0.2272,0.0855,211.3594
18:52:18:990,-0.1986,1.2473,12.5545,24.8014,-0.3488,-0.0806,0.2346,210.9531
18:52:19:009,0.5363,0.9242,13.6487,24.7331,-0.3769,0.0037,0.2517,210.9219
18:52:19:028,0.6679,0.5626,13.826,24.674,-0.2004,0.0635,0.1228,210.3125
18:52:19:049,0.4765,0.3042,12.5474,24.742,0.1448,-0.0324,-0.0959,210.25
18:52:19:068,0.1938,0.28,10.6681,24.626,0.4539,-0.2193,-0.3164,209.8125
18:52:19:091,-0.2489,0.5698,8.5086,24.4823,0.3592,-0.0556,-0.4325,209.7656
18:52:19:110,-0.1125,0.7086,8.6402,24.3124,0.1209,0.135,-0.3683,209.5625
18:52:19:127,0.1723,0.7851,8.7506,24.3627,-0.0538,0.2266,-0.3109,209.5469
18:52:19:147,0.2273,0.9266,8.5134,24.0082,-0.124,0.1674,-0.325,209.2344
18:52:19:167,0.1149,1.1635,8.2549,23.8804,-0.1497,0.0623,-0.3806,209
18:52:19:190,-0.0646,1.3334,8.2765,23.6227,-0.1637,0.033,-0.4374,209
18:52:19:209,-0.1938,1.4127,8.3124,23.3735,-0.1344,0.0977,-0.463,209.0938
18:52:19:228,-0.4238,1.4318,8.3459,23.3555,-0.0593,0.2285,-0.4539,209.0938
18:52:19:251,-0.7971,1.4438,8.1664,23.0113,0.0342,0.3433,-0.4166,208.7031
18:52:19:267,-1.1085,1.4797,7.9819,22.895,0.0825,0.3903,-0.3378,208.7031
18:52:19:290,-1.3238,1.4892,7.9555,22.7105,0.0794,0.3494,-0.2211,208.6875
18:52:19:309,-1.1994,1.5275,7.8646,22.5758,0.0599,0.27,-0.0788,208.2344
18:52:19:328,-0.9386,1.5993,7.9723,22.3058,-0.0079,0.2657,0.0446,208.2344
18:52:19:351,-0.7995,1.6232,8.3483,22.3745,-0.1118,0.3494,0.1191,208.7188
18:52:19:372,-0.6057,1.7548,8.8917,22.2327,-0.1997,0.4288,0.1594,208.7188
18:52:19:390,-0.4525,1.908,9.4137,22.007,-0.2376,0.4532,0.1607,209.7344
18:52:19:409,-0.364,2.0495,9.5955,21.9077,-0.1869,0.383,0.1185,210.5
18:52:19:429,-0.5004,2.3151,9.6649,21.9442,-0.0812,0.2914,0.0348,210.5
18:52:19:449,-1.0223,2.3844,9.9978,21.824,0.0018,0.2957,-0.0281,211.2656
18:52:19:468,-1.7381,2.0566,10.1845,21.7355,0.047,0.408,0.0165,211.2656
18:52:19:488,-1.8218,1.8386,10.4192,21.4563,0.0287,0.5039,0.1405,212.25
18:52:19:509,-1.7309,1.8697,10.9603,21.2662,-0.0629,0.5626,0.2162,212.25
18:52:19:529,-1.7955,1.7907,11.3791,21.0857,-0.1277,0.441,0.1918,213.1406
18:52:19:550,-1.7644,1.8434,11.6617,20.805,-0.1075,0.0696,0.1209,213.2344
18:52:19:569,-2.0542,1.9271,11.9871,20.6535,-0.08,-0.171,0.0788,213.8438
18:52:19:592,-2.0758,1.1468,12.9449,20.3257,-0.1222,-0.0073,0.2926,213.9062
18:52:19:610,-1.64,0.9003,12.1741,19.913,0.0018,0.0293,0.3451,213.9688
18:52:19:628,-1.5203,0.9673,11.1924,19.6964,0.1521,-0.0257,0.2517,213.9844
18:52:19:650,-1.8051,0.8429,10.2251,19.691,0.2547,-0.1283,0.1203,213.7188
18:52:19:668,-1.8912,0.7947,9.0233,19.5536,0.3011,-0.3128,0.0922,213.6875
18:52:19:689,-2.0088,0.7564,8.6713,19.2447,0.2114,-0.4496,0.1246,213.4062
18:52:19:709,-2.3916,0.7397,8.7793,19.0432,0.0605,-0.3415,0.1985,213.3906
18:52:19:727,-2.394,0.929,8.8199,18.8224,-0.0819,-0.025,0.3439,213.3906
18:52:19:749,-2.2552,0.9817,8.5947,18.4888,-0.2761,0.3042,0.5162,213.3906
18:52:19:767,-1.7812,0.874,9.0377,18.1562,-0.5088,0.3958,0.6774,213.2969
18:52:19:789,-0.711,1.1468,9.5979,17.9238,-0.6188,0.2572,0.7862,213.2969
18:52:19:809,0.1579,1.2066,9.5094,17.4999,-0.5101,0.0312,0.7513,212.875
18:52:19:828,0.1053,1.4797,9.4113,17.0332,-0.2957,-0.1399,0.5693,212.875
18:52:19:850,0.3209,1.7668,8.9827,17.1119,-0.0379,-0.1142,0.2944,212.625
18:52:19:872,0.0598,1.7572,7.8957,17.0869,0.2248,0.0189,0.0666,212.0938
18:52:19:889,-0.3305,1.9271,6.4905,16.8972,0.339,0.1301,-0.0281,212.0938
18:52:19:910,-0.7349,1.9992,5.8798,16.9761,0.1979,0.1319,-0.0238,211.4531
18:52:19:928,-1.1252,1.9558,6.3347,17.0132,-0.1307,0.1515,0.0672,211.4531
18:52:19:949,-2.0303,1.2927,7.6373,16.9366,-0.4563,0.2596,0.2492,211.2656
18:52:19:974,-1.9008,1.6807,8.8104,16.7713,-0.5485,0.4062,0.6249,211.2656
18:52:19:990,-1.4701,2.3533,8.7242,16.65,-0.5137,0.7251,0.9511,210.9062
18:52:20:009,-1.3549,2.2744,9.0257,16.3761,-0.4881,0.7684,0.9914,210.9062
18:52:20:028,-1.1683,2.394,9.2988,15.9718,-0.4545,0.5663,0.8008,210.0156
18:52:20:050,-1.1994,2.6623,9.0808,15.727,-0.4178,0.2052,0.4954,209.9375
18:52:20:075,-1.3621,2.8825,9.2483,15.4511,-0.4264,-0.3439,0.19,208.3594
18:52:20:091,-1.5132,3.1029,9.9811,15.4015,-0.4948,-0.802,-0.0195,208.2031
18:52:20:111,-1.5299,2.9782,11.0393,14.9509,-0.6133,-0.6732,-0.0623,206.7656
18:52:20:128,-1.2664,2.0614,11.8914,14.7062,-0.565,-0.3622,0.0281,206.625
18:52:20:150,-0.996,1.884,12.6745,14.3138,-0.4612,-0.1784,0.091,206.2656
18:52:20:173,-0.874,1.8721,13.7324,13.9898,-0.2926,-0.0629,0.0788,206.2344
18:52:20:189,-0.9027,1.6687,14.415,13.8901,0.0153,-0.0428,0.0202,206.3594
18:52:20:210,-0.7062,1.252,14.537,13.6724,0.4343,-0.2162,-0.0379,206.375
18:52:20:228,-0.0526,0.996,14.5394,13.2355,0.8149,-0.4227,-0.1148,206
18:52:20:249,0.0766,0.3233,14.0198,13.009,1.0384,-0.4215,-0.2034,205.9688
18:52:20:267,0.2106,0.0479,12.1047,12.9613,1.0586,-0.223,-0.2193,204.3125
18:52:20:289,0.4214,0.0885,9.9954,12.8217,0.8253,-0.212,-0.284,204.1562
18:52:20:309,0.4334,0.1101,9.0162,12.749,0.405,-0.5198,-0.4691,202.0938
18:52:20:328,0.1675,0.0837,9.0018,12.8205,0.0715,-0.9034,-0.6787,202.0781
18:52:20:350,0.0287,0.0981,8.9898,12.7007,-0.0153,-1.025,-0.8204,201.1719
18:52:20:367,-0.0479,0.134,8.7194,12.635,0.0715,-0.8124,-0.8815,200.9531
18:52:20:389,-0.0694,0.2225,8.5493,12.7717,0.1674,-0.4239,-0.8949,200.9531
18:52:20:409,-0.1364,0.268,8.4727,12.5459,0.193,-0.0544,-0.8937,200.7031
18:52:20:429,-0.285,0.486,8.511,12.5077,0.16,0.0849,-0.8778,200.7031
18:52:20:450,-0.5387,0.7828,8.5421,12.4803,0.1271,0.0055,-0.8338,200.375
18:52:20:472,-0.687,0.9123,8.2238,12.5636,0.1332,-0.1014,-0.7251,200.375
18:52:20:490,-0.5722,0.9817,7.5126,12.598,0.1319,-0.0947,-0.5485,200.4219
18:52:20:510,-0.4836,1.142,6.9715,12.6002,0.0232,0.0214,-0.3494,200.4219
18:52:20:529,-0.4956,1.1252,7.0268,12.7401,-0.1881,0.1167,-0.1814,200.9219
18:52:20:549,-0.4358,0.9123,7.989,12.7532,-0.372,0.0843,-0.0812,200.9688
18:52:20:574,-0.4932,0.8812,8.5828,12.8927,-0.3653,0.0312,-0.069,201.6875
18:52:20:590,-0.5243,0.8764,8.5493,12.9299,-0.2248,0.0043,-0.0678,201.75
18:52:20:675,-0.2874,1.075,8.2047,13.0335,-0.1662,0.0874,-0.022,202.875
18:52:20:675,0.1268,1.3262,8.8056,12.9105,-0.2529,0.2162,0.0244,202.9844
18:52:20:675,0.0287,1.5036,10.005,12.9393,-0.2621,0.4172,-0.0525,204.5781
18:52:20:676,-0.1029,1.8769,9.8061,12.9667,-0.1283,0.3818,-0.1191,206.5312
18:52:20:689,-0.4334,2.0447,9.3658,12.6912,-0.0312,0.2779,-0.1619,206.5312
18:52:20:707,-0.6224,1.9247,9.2172,12.6138,-0.0275,0.1167,-0.1381,206.7031
18:52:20:727,-0.8453,1.7142,9.7008,12.6218,-0.1222,-0.0312,-0.1032,208.4531
18:52:20:747,-1.2473,1.5634,10.838,12.6361,-0.2535,-0.0733,-0.0788,208.625
18:52:20:767,-1.5634,1.427,11.9895,12.6961,-0.3262,0.0513,0.014,209.9219
18:52:20:788,-1.8051,0.9075,12.5019,12.742,-0.3091,0.2327,0.171,210.0469
18:52:20:807,-1.4581,0.5315,12.6096,12.6548,-0.2932,0.3806,0.3323,210.625
18:52:20:828,-1.2616,-0.1555,12.5976,12.7921,-0.2987,0.3647,0.3964,210.6406
18:52:20:848,-1.0822,-0.4789,12.2842,13.2397,-0.259,0.1307,0.3946,210.75
18:52:20:866,-1.2784,-0.5435,11.9465,13.4634,-0.2236,-0.0825,0.3744,210.8125
18:52:20:889,-1.2855,-0.3353,11.968,13.6292,-0.2883,-0.0354,0.4105,210.8125
18:52:20:908,-0.7636,-0.1196,12.4445,13.7512,-0.4178,0.1814,0.507,210.7812
18:52:20:928,-0.4765,-0.2321,12.5737,13.8636,-0.3812,0.2046,0.5186,210.7812
18:52:20:948,-0.9888,-0.3568,11.554,14.109,-0.0825,-0.0721,0.3885,211
18:52:20:967,-1.7644,-0.1077,9.7822,14.3389,0.2651,-0.3311,0.273,211
18:52:20:988,-2.2217,0.2441,8.2789,14.2918,0.3482,-0.2871,0.3066,211.3594
18:52:21:007,-1.9992,0.486,7.9196,14.3005,0.1344,-0.0544,0.4728,211.3594
18:52:21:028,-1.343,0.5004,8.2932,14.2746,-0.1582,0.1723,0.6646,211.5156
18:52:21:047,-0.778,0.4262,8.8415,14.2612,-0.3201,0.2187,0.7477,211.5156
18:52:21:068,-0.3138,0.4932,9.1406,14.3541,-0.3024,0.1191,0.7202,211.2969
18:52:21:088,0.0048,0.6942,9.0042,14.6565,-0.1888,0.08,0.6334,211.2812
18:52:21:107,0.0311,0.8258,8.6617,14.7163,-0.08,0.1326,0.5284,210.5625
18:52:21:129,-0.3927,1.1803,8.2358,14.9106,0.0263,0.3018,0.3616,210.4844
18:52:21:148,-0.8067,1.2808,7.9771,14.9868,0.077,0.3311,0.3396,209.6719
18:52:21:168,-0.8354,1.4174,7.7521,15.0724,0.0855,0.2853,0.3903,209.5938
18:52:21:187,-0.7947,1.5467,7.788,15.2003,0.0305,0.1625,0.4551,208.6094
18:52:21:207,-0.8453,1.6113,7.922,15.4007,-0.0562,0.0275,0.5088,208.5156
18:52:21:227,-0.7995,1.6591,8.2095,15.6232,-0.1564,-0.1258,0.5424,207.5625
18:52:21:249,-0.5148,1.774,8.5995,15.5566,-0.2456,-0.317,0.5333,207.4688
18:52:21:274,-0.0718,1.9729,9.0784,15.715,-0.3048,-0.5198,0.4618,206.8906
18:52:21:288,0.28,2.3007,9.8109,15.588,-0.3091,-0.6878,0.3341,206.8281
18:52:21:308,0.134,2.4443,10.2945,15.6792,-0.1991,-0.6976,0.2016,205.5938
18:52:21:328,-0.3688,2.3222,10.4192,15.8814,-0.0385,-0.5119,0.113,205.5781
18:52:21:348,-0.7828,1.908,10.6561,15.7938,0.0629,-0.2254,0.0874,203.9375
18:52:21:370,-0.6894,1.4342,11.324,15.7868,0.0776,0.0257,0.1197,202.6406
18:52:21:388,-0.2584,0.9553,11.956,15.7407,0.0696,0.0788,0.1283,202.6406
18:52:21:407,0.268,0.8764,12.2219,15.9931,0.1093,-0.1374,0.0318,201.8125
18:52:21:427,0.5387,0.8139,11.6665,16.1916,0.1527,-0.369,-0.1075,201.8125
18:52:21:448,0.0311,0.778,11.9154,16.3761,0.022,-0.3696,-0.2046,201.0938
18:52:21:469,-0.6176,0.8019,13.4333,16.6732,-0.2028,-0.0379,-0.2303,201.0938
18:52:21:489,-0.6344,0.8955,14.8843,16.7351,-0.3372,0.5864,-0.1692,200.0625
18:52:21:508,-0.5554,0.3664,14.8747,16.9022,-0.2504,1.0366,-0.1124,200.0625
18:52:21:527,-0.3927,-0.012,13.7133,17.0071,0.0385,0.8992,-0.1075,198.7656
18:52:21:548,-0.2656,-0.055,11.6569,17.2422,0.4313,0.3616,-0.2217,198.7656
18:52:21:575,-0.8139,-0.0215,9.4017,17.2395,0.7165,-0.1607,-0.3671,197.7656
18:52:21:589,-1.5754,0.0502,7.9484,17.2108,0.6933,-0.3115,-0.3799,197.6719
18:52:21:608,-1.762,0.2417,7.6301,17.2353,0.408,-0.1087,-0.2071,197.2031
18:52:21:627,-1.3214,0.309,8.3985,17.3952,0.0464,0.2755,0.0391,197.1562
18:52:21:649,-0.7875,0.079,9.2387,17.4359,-0.2193,0.6945,0.2804,196.9375
18:52:21:674,-0.431,-0.0311,9.7295,17.7514,-0.1326,0.5088,0.2327,196.9219
18:52:21:687,-0.4358,0.0981,9.2076,17.9709,0.0214,0.2065,0.1692,196.7656
18:52:21:707,-0.3209,0.2994,8.3913,18.0122,0.1558,-0.058,0.1442,196.7656
18:52:21:727,-0.309,0.4286,7.6445,18.0827,0.2309,-0.1888,0.1295,197.0156
18:52:21:748,-0.3879,0.5818,7.1847,18.2569,0.2523,-0.1753,0.1093,197.0469
18:52:21:767,-0.5698,0.7181,6.9835,18.5505,0.2242,-0.0586,0.1124,197.4375
18:52:21:790,-0.699,0.8139,7.1106,18.7556,0.1454,0.1283,0.146,197.4688
18:52:21:810,-0.7469,0.9075,7.6756,18.9452,0.0226,0.3268,0.2022,197.875
18:52:21:828,-0.687,0.9553,8.4823,18.9787,-0.0849,0.4471,0.2596,197.9062
18:52:21:849,-0.5674,0.9625,9.1214,19.0248,-0.1252,0.4765,0.2957,198.7344
18:52:21:867,-0.5004,1.0798,9.3036,19.1825,-0.0928,0.3757,0.2944,199.5
18:52:21:890,-0.4932,1.3358,9.21,19.4542,-0.0348,0.1668,0.2547,199.5
18:52:21:909,-0.5435,1.6735,9.2677,19.6558,-0.0086,0.0214,0.2071,199.2969
18:52:21:928,-0.6799,1.8673,9.3945,19.4541,0.0116,-0.0568,0.179,199.2969
18:52:21:949,-0.5865,2.1787,9.8997,19.4369,0.0446,-0.1081,0.1881,198.7812
18:52:21:967,-0.5698,2.0997,10.7949,19.6323,0.0953,-0.0507,0.2297,198.7812
18:52:21:990,-0.7732,1.4892,11.1302,19.8419,0.1869,-0.0672,0.2584,198.4844
18:52:22:009,-0.632,1.2066,11.257,19.9055,0.1961,-0.2914,0.2413,198.4844
18:52:22:028,-0.9649,0.9194,10.9938,20.0059,0.091,-0.6005,0.1826,198.2656
18:52:22:049,-1.2449,0.8716,11.0417,19.9581,-0.0586,-0.9468,0.1753,198.2656
18:52:22:068,-1.2138,0.8548,11.3169,19.9477,-0.1619,-1.0391,0.2645,198.0625
18:52:22:090,-1.0415,0.6009,11.0967,20.1061,-0.1942,-0.7959,0.3971,198.0469
18:52:22:109,-0.8812,0.4717,11.1637,20.207,-0.3097,-0.3726,0.5094,197.6406
18:52:22:128,-0.7277,0.4286,12.3703,20.1572,-0.5773,0.1332,0.6023,197.5938
18:52:22:151,0.256,0.1579,14.0581,19.9276,-0.6622,0.452,0.6609,197.0312
18:52:22:173,-0.2177,-0.1986,12.6096,20.0099,-0.2211,-0.0202,0.5082,196.9844
18:52:22:189,-1.0774,-0.2225,10.6992,20.1192,0.2052,-0.3971,0.3586,196.5156
18:52:22:208,-1.6137,0.0694,9.21,20.0797,0.3097,-0.2926,0.3317,196.4688
18:52:22:227,-1.6113,0.2082,8.7147,20.0315,0.0953,0.0446,0.4502,196.1094
18:52:22:249,-1.0104,0.3401,8.8893,20.5812,-0.2254,0.2303,0.6365,196.0781
18:52:22:272,-0.4382,0.5124,9.294,20.608,-0.4502,0.1778,0.7312,195.625
18:52:22:291,-0.1053,0.9003,9.4591,20.6155,-0.5003,0.1148,0.7013,195.5781
18:52:22:311,-0.256,1.1874,9.373,21.092,-0.4135,0.1912,0.5931,195.1406
18:52:22:327,-0.486,1.4414,9.0927,21.2037,-0.2498,0.3726,0.5113,195.0938
18:52:22:349,-0.3975,1.5993,8.7075,21.2493,-0.0446,0.5345,0.5003,194.4375
18:52:22:370,-0.2584,1.5108,8.1377,21.5189,0.1778,0.5992,0.5229,193.2812
18:52:22:391,-0.2082,1.3167,7.4312,21.7812,0.3567,0.543,0.5327,193.2812
18:52:22:410,-0.2898,1.1755,6.8877,21.8043,0.4349,0.3531,0.5033,191.7031
18:52:22:427,-0.3042,1.2042,6.6604,21.8787,0.3989,0.1191,0.4508,191.7031
18:52:22:449,-0.3879,1.319,6.7705,22.1371,0.2804,-0.0257,0.4013,190.3281
18:52:22:468,-0.5363,1.3932,7.2852,21.9634,0.1093,-0.0287,0.3714,190.3281
18:52:22:490,-0.577,1.5419,8.135,21.9797,-0.0605,0.0605,0.3592,189.5781
18:52:22:509,-0.3616,1.6041,8.9922,22.0731,-0.1515,0.1203,0.3543,189.5781
18:52:22:528,0.0957,1.8194,9.1214,22.1156,-0.1448,0.1368,0.306,188.3906
18:52:22:550,0.0766,1.7357,9.186,22.315,-0.1393,0.0483,0.1423,188.3906
18:52:22:574,-0.3138,2.1404,10.2467,22.1428,-0.1857,-0.0977,0.0037,186.8438
18:52:22:589,-0.874,2.1452,11.4915,22.1153,-0.1716,-0.1662,-0.0476,186.6875
18:52:22:610,-1.1635,1.8147,11.9584,22.2465,-0.0641,-0.1857,0.0367,185.5156
18:52:22:628,-0.9649,1.5251,11.8005,22.3286,0.055,-0.2327,0.1399,185.4062
18:52:22:650,-0.4836,1.3693,11.4796,22.567,0.0843,-0.3164,0.1723,184.4844
18:52:22:674,-0.3712,1.3573,11.5229,22.859,0.0354,-0.4612,0.1209,184.3906
18:52:22:739,-1.0295,0.9936,12.3631,22.9508,-0.1246,-0.4197,0.0861,183.5625
18:52:22:739,-0.5818,0.5841,12.8468,22.8581,-0.248,-0.1588,0.2327,183.4688
18:52:22:740,0.1747,0.0024,13.7468,23.0537,-0.3152,0.0281,0.3024,182.75
18:52:22:747,0.9194,-0.2946,13.8069,23.2125,-0.1833,0.1057,0.2333,182.6875
18:52:22:768,1.1563,-0.498,12.6362,23.1548,0.124,0.0128,0.0275,181.9531
18:52:22:787,0.7373,-0.3425,10.6514,23.3676,0.4441,-0.2199,-0.2278,181.8906
18:52:22:808,-0.0359,0.0837,9.1741,23.3434,0.5418,-0.35,-0.3934,181.1875
18:52:22:827,-0.5889,0.3808,8.729,23.2116,0.4038,-0.2181,-0.3836,181.1094
18:52:22:848,-0.419,0.6846,9.1645,23.1469,0.1692,0.1209,-0.2407,180.875
18:52:22:869,-0.0287,0.7851,9.8133,23.477,-0.0049,0.4936,-0.1124,180.8125
18:52:22:890,0.1914,0.7445,10.0816,23.5527,-0.0489,0.7068,-0.0397,180.8125
18:52:22:907,0.2177,0.6823,9.8949,23.8289,0.0336,0.6463,-0.0263,180.4688
18:52:22:928,0.1268,0.7612,9.3036,24.0803,0.1863,0.4129,-0.0629,180.4688
18:52:22:947,-0.146,0.8668,8.5038,24.1016,0.3286,0.1631,-0.1124,180.2188
18:52:22:968,-0.3832,1.0104,7.8933,24.3163,0.4038,0.022,-0.1234,180.2188
18:52:22:987,-0.5722,1.0415,7.436,24.3349,0.4239,0.0293,-0.0947,179.7656
18:52:23:007,-0.5985,1.0128,7.1608,24.5953,0.4135,0.1106,-0.0373,179.7656
18:52:23:027,-0.5746,1.0008,7.046,24.4371,0.3732,0.2144,0.025,179.1094
18:52:23:048,-0.6224,1.0032,7.2972,24.474,0.2877,0.3115,0.0623,179.1094
18:52:23:068,-0.778,1.0271,7.9508,24.4995,0.1826,0.3708,0.0782,179.4062
18:52:23:088,-0.8282,1.0726,8.4775,24.5876,0.1081,0.3946,0.1161,179.4062
18:52:23:108,-0.7493,1.1539,8.7458,24.8389,0.0483,0.3616,0.1735,180.2969
18:52:23:127,-0.4047,1.2832,9.0138,24.8529,-0.0177,0.2199,0.2285,180.375
18:52:23:147,0.0742,1.4797,9.2797,25.1764,-0.0678,0.0269,0.2553,180.7969
18:52:23:168,0.6942,1.8745,9.9763,25.1354,-0.055,-0.1038,0.2291,180.8438
18:52:23:189,0.7828,2.1763,11.8675,25.2901,0.0244,-0.0996,0.1668,180.9688
18:52:23:208,-0.7205,1.9753,12.8085,25.2146,0.5259,0.4948,0.0153,180.9844
18:52:23:227,-1.5754,1.7883,11.7311,25.1493,0.9572,0.4954,0.146,181.2812
18:52:23:247,-1.3119,1.7548,9.7223,25.3958,1.0354,0.1826,0.4154,181.3125
18:52:23:271,-0.7947,1.5778,8.6569,25.4321,0.6133,-0.2278,0.587,181.6719
18:52:23:288,-0.5865,1.3884,9.5381,25.3932,-0.0031,-0.5455,0.5437,181.7031
18:52:23:308,-0.6272,1.1563,11.2714,25.3563,-0.419,-0.5858,0.3989,181.875
18:52:23:327,-0.7923,1.0128,12.4397,25.6159,-0.5278,-0.2822,0.2834,181.8906
18:52:23:347,-0.699,1.3262,13.3304,25.8317,-0.5192,0.2132,0.2205,181.8594
18:52:23:367,-0.917,1.3645,13.8978,26.2624,-0.4765,0.5699,0.1613,181.6094
18:52:23:387,-1.2377,1.0056,13.4189,26.5381,-0.2755,0.3922,0.1374,181.6094
18:52:23:407,-1.4844,1.0367,11.9752,26.4273,0.0336,-0.179,0.1173,181.0625
18:52:23:427,-2.0758,1.1061,10.3567,26.4101,0.292,-0.6438,0.0654,181.0625
18:52:23:447,-2.3462,1.427,8.997,26.6961,0.3873,-0.6542,0.0605,180.6094
18:52:23:468,-2.2217,1.8625,8.5158,26.7186,0.273,-0.3897,0.193,180.6094
18:52:23:489,-1.5467,1.9825,8.0895,26.9881,0.0269,-0.0611,0.4325,180.6719
18:52:23:509,-0.5076,1.9295,8.3674,26.8691,-0.2578,-0.0226,0.6249,180.6719
18:52:23:528,0.1531,1.829,8.9109,26.8335,-0.4355,-0.2315,0.6304,180.5
18:52:23:548,0.3879,1.8625,9.1262,26.8041,-0.4154,-0.4697,0.4936,180.5
18:52:23:572,0.4095,2.1284,8.942,26.7762,-0.2511,-0.5443,0.314,179.4219
18:52:23:588,0.2874,2.3414,8.5995,26.7679,-0.0458,-0.3744,0.1778,179.4219
18:52:23:608,0.012,2.4156,8.123,26.7106,0.1319,-0.1582,0.1442,178.5625
18:52:23:627,-0.2608,2.3462,7.4001,26.9148,0.248,-0.0373,0.1839,178.4688
18:52:23:648,-0.4478,2.2863,7.1273,26.6026,0.2395,-0.0507,0.2608,177.875
18:52:23:674,-0.4908,2.2481,7.2039,26.667,0.1527,-0.0898,0.3653,177.8125
18:52:23:691,-0.4501,2.2265,7.3594,26.4798,-0.0586,0.0745,0.543,177.5156
18:52:23:710,-0.4238,2.2193,7.8431,26.4331,-0.1576,0.2144,0.5962,177.4844
18:52:23:728,-0.1747,2.193,7.7737,26.7512,-0.2517,0.2957,0.6542,177.5
18:52:23:747,0.498,2.3509,7.9436,26.9147,-0.3861,0.2773,0.6707,177.5
18:52:23:767,1.2497,2.6192,9.0425,26.9222,-0.5241,0.2052,0.5644,176.9375
18:52:23:788,1.4174,2.7317,10.4432,27.0108,-0.5058,0.1301,0.3286,176.875
18:52:23:809,1.2784,2.8442,11.4365,27.1098,-0.2511,0.0538,0.0574,175.5
18:52:23:827,0.6488,2.837,11.3384,27.325,0.0971,0.1136,-0.1393,175.3594
18:52:23:849,0.0885,2.7963,10.8595,27.7188,0.2993,0.2443,-0.1973,174.4375
18:52:23:873,0,2.8035,10.8476,27.9731,0.2498,0.2895,-0.1393,174.3438
18:52:23:890,0.3784,2.959,11.4939,27.9612,0.0837,0.1222,-0.0776,174
18:52:23:911,0.3042,2.8896,12.0422,28.1505,0.0006,-0.1521,-0.1045,173.6094
18:52:23:929,-0.0909,2.7126,12.3248,28.4941,0.0165,-0.394,-0.1405,173.6094
18:52:23:949,-0.3664,2.4084,12.7439,28.3694,-0.0183,-0.3158,-0.1045,172.7344
18:52:23:967,-0.0072,1.8194,13.4237,28.8592,-0.1545,0.0855,0.0086,172.7344
18:52:23:989,0.6033,0.9769,14.0701,28.9203,-0.2278,0.369,0.0654,171.4375
18:52:24:010,1.008,0.2946,13.4692,29.071,-0.0421,0.2285,-0.0269,171.4375
18:52:24:029,0.7899,0.0287,11.5086,29.1239,0.3531,-0.2608,-0.2737,169.8594
18:52:24:049,-0.1053,0.0837,9.574,29.1758,0.62,-0.6176,-0.5107,169.8594
18:52:24:074,-0.8668,0.5339,8.5277,28.9879,0.5278,-0.4502,-0.5498,168.6562
18:52:24:089,-1.197,0.8548,8.5373,29.0744,0.1973,0.022,-0.3903,168.6562
18:52:24:109,-0.9434,0.7516,8.8008,29.0535,-0.1765,0.4649,-0.1191,168.7031
18:52:24:128,-0.5004,0.5746,9.1095,28.7838,-0.4557,0.5253,0.0904,168.7031
18:52:24:150,0.1029,0.8764,9.7822,28.7967,-0.5498,0.2547,0.1619,169.1406
18:52:24:173,0.256,1.1037,10.285,28.6002,-0.3952,0.0837,0.1057,169.1719
18:52:24:192,-0.5171,1.1659,8.2597,28.5029,0.284,0.1936,-0.0544,169.375
18:52:24:210,-0.7253,1.3143,7.1201,28.4224,0.3989,0.1955,-0.0409,169.3906
18:52:24:228,-0.754,1.3549,6.6485,28.4207,0.3079,0.1668,0.0476,169.6406
18:52:24:247,-0.553,1.3262,6.7585,28.2281,0.1228,0.1405,0.1735,169.6719
18:52:24:270,-0.0814,1.3334,7.3427,28.3939,-0.0464,0.1362,0.2718,169.5312
18:52:24:288,0.3592,1.2999,7.9771,28.6107,-0.1197,0.1906,0.2932,169.5156
18:52:24:309,0.5483,1.3956,8.2932,28.4952,-0.1136,0.295,0.2358,169.875
18:52:24:327,0.5243,1.6687,8.5062,28.542,-0.1014,0.369,0.1552,169.9062
18:52:24:350,0.577,1.9777,8.8463,28.7721,-0.0953,0.3836,0.0941,171.1719
18:52:24:372,0.5889,2.2337,9.0975,28.6256,-0.077,0.3763,0.0464,171.8594
18:52:24:392,0.4621,2.4371,9.2988,28.6834,-0.0348,0.3286,-0.0031,171.8594
18:52:24:409,0.2752,2.5881,9.3562,28.6505,0.0012,0.2529,-0.0275,171.3906
18:52:24:428,0.2297,2.6288,9.5572,28.8194,-0.0116,0.215,-0.0134,171.3906
18:52:24:449,0.213,2.5427,10.218,28.9984,-0.0855,0.2126,0.0043,171.1719
18:52:24:468,-0.1986,2.2098,10.9508,29.2456,-0.1497,0.2352,0.0043,171.1719
18:52:24:490,-0.7684,1.6137,11.1278,29.5105,-0.1869,0.2413,0.036,171.4219
18:52:24:510,-1.1492,0.984,11.2977,29.8187,-0.2749,0.1216,0.099,171.4219
18:52:24:529,-1.0678,0.5483,11.8866,29.9986,-0.4172,-0.1032,0.1368,171.2656
18:52:24:549,-0.9386,0.1507,12.4564,30.2828,-0.4697,-0.4117,0.1173,171.2656
18:52:24:574,-0.8812,0.2225,12.7152,30.4355,-0.3952,-0.6084,0.0672,170.6562
18:52:24:590,-1.0606,0.7373,13.0621,30.3096,-0.3024,-0.4166,0.0397,170.6094
18:52:24:610,-1.0104,1.3932,13.5912,30.1973,-0.2645,0.0513,0.0843,170.1094
18:52:24:629,-1.1061,1.4198,13.261,30.2418,-0.1613,0.2456,0.1466,170.1094
18:52:24:650,-1.0822,1.3502,11.7455,30.33,0.069,-0.1209,0.2101,169.9219
18:52:24:672,-0.9769,1.4462,10.1749,29.9809,0.3036,-0.6652,0.2651,169.9062
18:52:24:690,-1.118,1.6543,9.4759,30.3456,0.4148,-0.7715,0.281,169.9219
18:52:24:710,-1.331,1.7596,9.2629,30.2476,0.3812,-0.2321,0.2981,169.9219
18:52:24:728,-1.1922,1.4797,8.7386,30.3449,0.0177,1.0274,0.5827,169.9062
18:52:24:806,-0.8258,1.1994,8.7529,30.3422,-0.2083,1.0006,0.7177,169.9062
18:52:24:806,-0.51,0.996,8.7362,30.4096,-0.3195,0.7257,0.7526,169.7812
18:52:24:807,-0.3353,0.9386,8.4679,30.4702,-0.2938,0.4105,0.6939,169.7656
18:52:24:807,-0.2946,1.0415,8.0345,30.5801,-0.1729,0.1234,0.5852,169.375
18:52:24:827,-0.3138,1.2329,7.4743,30.7216,-0.0379,-0.058,0.4697,169.3438
18:52:24:847,-0.4214,1.4028,6.8973,30.7923,0.0593,-0.1161,0.3769,168.9688
18:52:24:867,-0.5554,1.5562,6.5169,30.8945,0.0886,-0.0739,0.3427,168.6562
18:52:24:889,-0.6679,1.7213,6.4519,30.9913,0.0336,0.0501,0.3665,168.6562
18:52:24:907,-0.7516,1.8314,6.7729,31.0645,-0.1014,0.2089,0.4129,168.25
18:52:24:928,-0.8067,1.8434,7.4671,31.1355,-0.2608,0.3115,0.4642,168.25
18:52:24:948,-0.644,2.016,8.4057,31.2216,-0.3775,0.2963,0.5094,167.7969
18:52:24:971,-0.1747,2.2337,9.2677,31.2869,-0.4068,0.2144,0.5333,167.7969
18:52:24:990,0.285,2.4371,9.7869,31.3692,-0.3439,0.1185,0.5113,167.1562
18:52:25:007,0.5746,2.6671,9.9643,31.3169,-0.2193,-0.0562,0.4068,167.1562
18:52:25:028,0.8378,2.9925,10.3881,31.5931,-0.0922,-0.2498,0.2449,165.6562
18:52:25:047,0.8692,3.0787,11.2235,31.7723,0.0263,-0.2529,0.0647,165.6562
18:52:25:071,0.1771,2.8394,11.8819,32.124,0.1802,-0.0843,-0.1209,165.6406
18:52:25:088,-0.6559,2.5307,12.3009,32.2949,0.3494,0.0391,-0.2535,163.8906
18:52:25:108,-1.3047,2.0112,12.3607,32.6614,0.4569,0.0226,-0.2993,162.6719
18:52:25:128,-1.5826,1.5299,12.1956,32.927,0.4514,-0.2107,-0.2969,162.6719
18:52:25:148,-1.6711,1.3549,12.1214,33.2841,0.3207,-0.6053,-0.3048,161.9844
18:52:25:170,-1.7213,1.3813,12.7176,33.6945,0.0892,-0.9169,-0.3128,161.9219
18:52:25:188,-1.0295,1.6591,13.8691,33.823,-0.1778,-0.7739,-0.2443,161.1094
18:52:25:207,-0.0742,1.4294,14.9536,34.1503,-0.3286,-0.2077,-0.168,161.0312
18:52:25:228,0.3401,0.6368,14.3192,34.4688,-0.135,0.1979,-0.1833,159.9062
18:52:25:247,0.309,0.0622,11.8029,34.7364,0.2859,0.0348,-0.3305,159.7812
18:52:25:271,0.3616,0.8234,7.7402,34.7687,0.617,-0.6915,-0.6023,158.5469
18:52:25:287,0.2345,1.3286,7.4862,34.9132,0.4203,-0.4508,-0.6127,158.4375
18:52:25:307,0.1268,1.628,7.9651,35.0481,0.1484,0.1564,-0.5168,157.7031
18:52:25:327,-0.0191,1.5514,8.7601,35.2197,-0.0855,0.8289,-0.372,157.6406
18:52:25:348,-0.0215,1.2401,9.5189,35.2869,-0.2065,1.2107,-0.2193,157.7344
18:52:25:369,0.1914,1.0319,9.9643,35.3332,-0.2126,1.1423,-0.0806,158.4844
18:52:25:388,0.3185,0.9123,10.0217,35.1915,-0.1191,0.7825,-0.0122,158.4844
18:52:25:408,0.134,0.9721,9.2988,35.2929,0.0391,0.3714,-0.0116,159.4375
18:52:25:427,-0.3066,1.1348,8.2884,35.2687,0.1655,0.0018,-0.0214,159.4375
18:52:25:448,-0.766,1.3454,7.4049,35.1004,0.2144,-0.215,0.0092,160.0938
18:52:25:469,-1.1946,1.494,6.816,35.1246,0.1997,-0.2223,0.1045,160.0938
18:52:25:488,-1.185,1.5395,6.6987,35.0967,0.1326,-0.0647,0.2669,160.375
18:52:25:508,-0.9051,1.4342,6.9811,35.2041,0.0171,0.1735,0.4465,160.375
18:52:25:527,-0.5459,1.2903,7.4719,35.3278,-0.1075,0.2779,0.5742,161.5
18:52:25:548,-0.0479,1.3143,8.1063,35.6376,-0.1985,0.1716,0.6328,161.5
18:52:25:576,0.3473,1.4414,8.7314,35.7506,-0.2352,-0.0079,0.6096,161.5
18:52:25:590,0.51,1.6352,9.1286,36.1322,-0.1936,-0.1277,0.5266,163.0938
18:52:25:609,0.5674,1.9319,9.1645,36.6392,-0.1087,-0.1356,0.4251,164.0625
18:52:25:628,0.6009,2.1452,9.3945,36.6662,-0.0507,-0.0684,0.3305,164.0625
18:52:25:649,0.443,2.2289,9.8013,36.7646,-0.0263,0.0434,0.2376,164.2031
18:52:25:674,0.1747,2.2744,10.2395,37.2068,-0.0189,0.1692,0.1631,164.2188
18:52:25:689,-0.0096,2.2241,10.6849,37.5707,-0.0605,0.3011,0.1326,164.2031
18:52:25:712,-0.1244,2.0662,12.0087,37.9465,-0.2022,0.2749,0.0507,164.2031
18:52:25:729,-0.9673,1.6376,12.253,38.4627,-0.149,0.0397,-0.0562,164.2969
18:52:25:749,-1.3669,1.7046,12.0712,38.5496,-0.0776,-0.1161,-0.0867,164.3125
18:52:25:774,-1.7572,1.7429,12.1358,38.7114,-0.1087,-0.0122,-0.0483,164.0312
18:52:25:789,-2.1858,1.3095,11.9991,39.4433,-0.1716,0.2022,0.0495,164
18:52:25:809,-2.0542,1.0822,11.9656,39.7045,-0.201,0.2663,0.1942,162.9531
18:52:25:827,-1.4868,1.1994,12.4205,39.729,-0.2547,0.416,0.3207,162.8594
18:52:25:848,-1.2305,0.929,12.3703,39.7192,-0.2486,0.5956,0.3714,161.5
18:52:25:872,-1.2473,0.4836,11.3815,39.734,-0.0635,0.3659,0.3531,160.3438
18:52:25:891,-1.5156,0.2082,9.7678,39.8229,0.2138,-0.1246,0.3103,160.3438
18:52:25:909,-1.5945,0.5243,8.4272,40.0893,0.325,-0.3219,0.2798,159.5938
18:52:25:928,-1.64,1.063,7.9843,40.2284,0.1771,-0.033,0.2798,159.5938
18:52:25:949,-1.6567,1.2257,8.2549,40.1131,-0.1252,0.4624,0.3903,159.2188
18:52:25:972,-1.1109,1.1635,8.7434,40.2039,-0.4233,0.7019,0.5882,159.2188
18:52:25:990,-0.3114,1.0271,9.3275,40.4589,-0.5724,0.4923,0.7055,158.9062
18:52:26:011,0.3808,1.0917,9.3443,40.7018,-0.4875,0.066,0.664,158.9062
18:52:26:029,0.7612,1.2999,8.8439,41.0514,-0.2523,-0.2749,0.5088,159
18:52:26:049,0.5818,1.6041,8.0345,41.1114,-0.0061,-0.347,0.2944,159
18:52:26:072,0.067,1.7907,7.4432,41.3463,0.146,-0.2156,0.1368,158.9219
18:52:26:089,-0.3688,1.9104,7.1178,41.5648,0.1869,-0.0116,0.1026,158.9219
18:52:26:108,-0.6224,2.0231,7.235,41.7122,0.1197,0.16,0.1442,158.2031
18:52:26:128,-0.7397,2.0112,7.8455,42.0913,-0.0134,0.2059,0.2022,158.2031
18:52:26:148,-0.8378,2.0423,8.5301,42.3072,-0.1301,0.1264,0.2364,157.375
18:52:26:171,-0.7828,2.0901,9.1143,42.5344,-0.1912,0,0.2559,157.2812
18:52:26:189,-0.5363,2.1523,9.5907,42.6091,-0.1869,-0.1173,0.2511,156.8438
18:52:26:209,-0.297,2.2959,9.8351,42.8033,-0.1216,-0.2077,0.1979,156.8125
18:52:26:228,-0.2441,2.5283,9.7558,43.0693,-0.0128,-0.284,0.1063,156.125
18:52:26:250,-0.2345,2.7365,9.2892,43.0766,0.1729,-0.5962,-0.0495,156.0625
18:52:26:272,-0.1388,2.7508,9.7415,43.1303,0.2022,-0.6829,-0.1038,154.4531
18:52:26:289,-0.1579,2.5738,10.448,43.6128,0.2333,-0.5632,-0.1503,154.2812
18:52:26:307,-0.1268,2.3629,11.1852,43.8308,0.2816,-0.3763,-0.1826,152.9219
18:52:26:327,-0.2489,2.1739,11.5947,44.0324,0.3134,-0.2944,-0.2144,152.7969
18:52:26:348,-0.4765,2.0853,11.6689,44.374,0.295,-0.3952,-0.2034,152.4062
18:52:26:372,-0.8019,1.8147,11.3312,44.3976,0.2297,-0.6133,-0.1185,152.1875
18:52:26:388,-0.632,1.6735,11.3815,44.5483,0.1167,-0.813,0.044,152.1875
18:52:26:408,-0.2441,1.6089,11.7239,45.0056,-0.0153,-0.7801,0.1967,151.6406
18:52:26:427,0.577,1.6759,12.1837,45.413,-0.1148,-0.5644,0.3176,151.6406
18:52:26:448,1.118,1.4246,12.5976,45.2949,-0.1399,-0.3201,0.3512,150.9844
18:52:26:474,1.1994,0.9458,12.6984,45.3466,-0.0446,-0.1411,0.303,150.9844
18:52:26:489,0.9769,0.4262,12.1454,45.6519,0.1283,0.0116,0.2242,150.625
18:52:26:510,0.6942,0.1149,11.0297,45.5053,0.2358,0.2059,0.1735,150.625
18:52:26:529,0.6775,0.055,10.206,46.0763,0.1509,0.3525,0.1723,150.625
18:52:26:549,1.0463,0.2273,9.938,46.1306,-0.0825,0.4423,0.19,150.7969
18:52:26:574,1.2616,0.4669,9.9906,45.9448,-0.3262,0.5492,0.1509,151.2656
18:52:26:589,1.0774,0.6248,10.0576,46.1001,-0.4325,0.6536,0.0195,151.2656
18:52:26:608,0.6248,0.7732,9.6673,46.2039,-0.3268,0.7068,-0.168,151.8906
18:52:26:628,0.0144,1.0367,9.0353,46.3196,-0.1045,0.6701,-0.3512,151.8906
18:52:26:648,-0.5746,1.3884,8.4105,46.5093,0.1173,0.6151,-0.4917,152.4531
18:52:26:673,-0.874,1.7692,7.9675,46.7644,0.2596,0.6304,-0.529,152.4531
18:52:26:689,-1.3047,1.7166,7.5556,46.6828,0.3347,0.6328,-0.4502,152.3438
18:52:26:709,-1.4629,1.5419,7.0747,46.6978,0.3598,0.5522,-0.2773,152.3281
18:52:26:728,-1.1204,1.6184,7.0026,47.0978,0.2828,0.4184,-0.0745,151.6719
18:52:26:750,-0.7923,1.695,7.558,47.0628,0.1142,0.3335,0.069,151.6094
18:52:26:773,-0.7158,1.6902,8.353,47.2393,-0.033,0.3158,0.1497,151.1094
18:52:26:790,-0.5746,1.7189,8.8846,47.5451,-0.0825,0.3128,0.2089,151.0469
18:52:26:872,-0.2297,1.8123,8.8965,47.5179,-0.0464,0.1729,0.3011,150.7344
18:52:26:873,0.3042,1.9777,8.8702,47.7113,-0.0593,0.0831,0.3109,150.7188
18:52:26:873,0.6009,2.1093,8.9515,47.9291,-0.0727,-0.0391,0.2486,150.2188
18:52:26:873,0.498,2.2002,8.8343,48.1938,-0.0568,-0.1472,0.1246,150.0625
18:52:26:890,0.189,2.3318,9.1023,48.3391,-0.066,-0.1808,0.022,150.0625
18:52:26:907,-0.1747,2.3557,9.6338,48.819,-0.1051,-0.0947,-0.0354,150.7969
18:52:26:927,-0.5004,2.3294,10.6777,48.9854,-0.1594,-0.0086,-0.0495,150.7969
18:52:26:948,-0.7038,2.1547,11.482,48.7223,-0.1539,0.0489,-0.0006,152.0312
18:52:26:971,-0.9577,1.6137,11.1326,48.8851,-0.0941,-0.0098,0.0794,152.0312
18:52:26:988,-0.8139,1.4079,10.8356,48.9158,-0.1161,-0.2352,0.1448,152.5469
18:52:27:007,-0.7684,1.439,11.1565,48.9405,-0.2847,-0.3769,0.1582,152.5469
18:52:27:028,-1.0104,1.13,11.9848,49.1404,-0.4697,-0.306,0.168,152.5469
18:52:27:048,-0.874,0.8429,12.533,49.3197,-0.5418,-0.0177,0.2395,152.2812
18:52:27:070,-0.4741,0.8907,13.0023,49.2678,-0.5394,0.3671,0.2969,151.6875
18:52:27:087,-0.376,0.9362,13.4644,49.276,-0.5015,0.6457,0.2785,151.6875
18:52:27:107,-0.7923,0.7062,13.1578,49.5368,-0.3042,0.5467,0.2132,150.9688
18:52:27:127,-1.2568,0.6392,11.7239,49.5718,0.0635,0.1283,0.1435,150.9688
18:52:27:148,-1.9271,0.5195,9.7941,49.6346,0.4032,-0.2449,0.1203,150.5156
18:52:27:170,-1.8529,0.7205,8.6593,49.4584,0.4697,-0.2132,0.212,150.5156
18:52:27:188,-1.4701,0.8812,8.286,49.3513,0.2712,0.2486,0.3561,150.5
18:52:27:208,-1.0869,0.9649,8.1808,49.3005,-0.0476,0.8246,0.4838,150.5
18:52:27:228,-0.8883,1.1587,7.8526,49.0491,-0.3903,1.2638,0.5601,150.4688
18:52:27:248,-0.9362,1.2401,8.0369,49.0011,-0.6933,1.3384,0.5522,150.4531
18:52:27:271,-1.3454,1.7429,9.1621,49.0598,-0.6805,0.8576,0.3158,150.2031
18:52:27:288,-1.8434,1.817,8.8271,49.0637,-0.3292,0.573,0.2059,150.1719
18:52:27:307,-2.1691,1.6807,7.8335,49.1157,0.0415,0.2663,0.2034,149.7031
18:52:27:327,-1.9606,1.4844,6.7729,49.3321,0.2382,-0.0171,0.2975,149.6406
18:52:27:347,-1.4749,1.3573,6.4256,49.2176,0.1888,-0.1942,0.3891,148.8125
18:52:27:369,-1.1659,1.2616,7.0938,48.8799,-0.0165,-0.2376,0.3934,147.9531
18:52:27:387,-1.1659,1.1683,8.3124,48.8779,-0.1967,-0.2645,0.3195,147.9531
18:52:27:408,-1.2353,1.0295,9.0544,48.9034,-0.2291,-0.3409,0.2364,147.7344
18:52:27:428,-1.1635,1.142,9.3945,48.8458,-0.1655,-0.4911,0.1607,147.7344
18:52:27:448,-0.8453,1.4028,9.507,48.6583,-0.0855,-0.6622,0.0806,147.3281
18:52:27:470,-0.4693,1.896,9.2459,48.4812,-0.0147,-0.7904,0.0031,147.3281
18:52:27:488,-0.2154,2.1356,9.1238,48.4305,0.0458,-0.9352,-0.0898,147.3125
18:52:27:508,-0.1699,2.2098,9.3251,48.1618,0.0959,-1.0452,-0.1918,145.8906
18:52:27:527,-0.2106,2.4491,9.763,48.1882,0.1448,-0.9859,-0.2559,145.875
18:52:27:548,-0.3688,2.4012,10.2395,48.0673,0.1607,-0.7086,-0.2792,144.1094
18:52:27:570,-0.5387,2.0375,10.9914,47.8518,0.1264,-0.3934,-0.2639,143.0781
18:52:27:588,-0.6775,1.4844,11.6689,47.7605,0.0782,-0.2749,-0.2327,143.0781
18:52:27:607,-0.9123,1.063,11.7885,47.6085,0.0086,-0.4319,-0.1637,142.6094
18:52:27:628,-0.5722,1.2616,12.3559,47.4317,-0.2187,-0.6194,0.0147,142.6094
18:52:27:650,0.7014,1.3478,13.2897,47.3243,-0.5632,-0.4734,0.2559,141.8281
18:52:27:671,1.829,0.6488,14.391,47.2799,-0.7495,-0.168,0.369,141.8281
18:52:27:689,2.1117,0.2417,15.035,47.2954,-0.5956,0.1271,0.1949,141.1719
18:52:27:709,0.9147,0.1627,14.5179,47.3936,-0.1631,0.3708,-0.1869,141.1094
18:52:27:728,-0.8115,0.1627,12.5163,47.1933,0.3409,0.441,-0.4807,140.875
18:52:27:750,-1.7524,-0.0502,8.3483,47.1511,0.5314,-0.0116,-0.2077,140.8438
18:52:27:774,-0.6033,0.0263,8.566,47.0143,0.1252,-0.1362,0.0104,141.0469
18:52:27:790,0.3951,0.0574,10.2634,46.8678,-0.2657,-0.0446,0.0507,141.0625
18:52:27:810,0.6631,0.0215,11.1278,46.4975,-0.328,0.2077,-0.0733,141.7188
18:52:27:827,0.4908,0.1484,10.7495,46.4677,-0.0971,0.2957,-0.2706,141.7812
18:52:27:847,0.0574,0.4597,9.6458,46.3452,0.1875,0.1814,-0.4514,142.4688
18:52:27:868,-0.5148,0.766,8.5708,46.0289,0.347,0.0489,-0.5363,143
18:52:27:890,-0.9099,1.0965,7.8359,45.9921,0.3787,-0.0043,-0.5094,143
18:52:27:908,-1.0869,1.3167,7.3187,45.6702,0.3451,0.0324,-0.4013,142.6562
18:52:27:928,-1.0415,1.3406,7.0292,45.6221,0.295,0.0874,-0.2474,142.6562
18:52:27:949,-0.766,1.3573,7.022,45.5506,0.2217,0.1148,-0.0928,141.6406
18:52:27:973,-0.4214,1.3813,7.3786,45.533,0.1466,0.1038,0.0244,141.6406
18:52:27:990,-0.1172,1.3095,7.7043,45.3129,0.1093,0.1197,0.1093,141.6406
18:52:28:010,0.0479,1.2209,7.8718,45.4081,0.1045,0.1417,0.157,142.375
18:52:28:028,0.1603,1.252,7.9603,45.1562,0.0953,0.1417,0.1906,142.3906
18:52:28:049,0.3329,1.2927,8.0656,44.9322,0.0611,0.1228,0.2242,143.4062
18:52:28:072,0.4789,1.3262,8.2214,44.7291,0.0092,0.0819,0.2382,143.3281
18:52:28:088,0.632,1.4004,8.5971,44.6628,-0.0275,0.0183,0.2223,143.3281
18:52:28:111,0.6559,1.4821,8.9755,44.377,-0.047,0.0159,0.1778,143.5625
18:52:28:128,0.5626,1.6017,9.5333,44.3332,-0.1118,0.1289,0.1417,143.5625
18:52:28:148,0.2417,1.5562,10.5748,44.3157,-0.2138,0.2737,0.1081,144.7812
18:52:28:170,0.1005,1.4318,11.5588,43.8616,-0.2755,0.394,0.0837,144.7812
18:52:28:189,0.1771,1.3262,12.1741,43.7959,-0.2749,0.3696,0.0397,145.9844
18:52:28:208,-0.3281,1.0199,12.0159,43.6982,-0.2022,0.1167,-0.0586,145.9844
18:52:28:227,-1.0391,0.8596,11.4676,43.6484,-0.1234,-0.201,-0.1613,146.4531
18:52:28:248,-1.4701,0.7899,11.3767,43.376,-0.1625,-0.2639,-0.1808,146.5
18:52:28:274,-1.8577,0.1819,11.5349,43.418,-0.3164,0.0147,-0.0684,146.4375
18:52:28:291,-1.4821,-0.4669,12.0664,43.027,-0.5119,0.4074,0.1368,146.4219
18:52:28:309,-0.862,-0.5578,12.8587,43.0503,-0.598,0.9413,0.171,146.1094
18:52:28:328,-1.8793,-0.0024,12.6072,42.8768,-0.3396,0.7446,0.0629,146.0781
18:52:28:348,-2.5546,0.2297,10.6083,42.6315,-0.0031,0.2266,0.0678,145.625
18:52:28:367,-2.6456,0.3903,9.2629,42.3385,0.124,-0.2889,0.2162,145.1562
18:52:28:389,-2.0638,0.5124,9.143,42.4371,-0.0122,-0.317,0.4013,145.1562
18:52:28:408,-1.5323,0.3999,9.926,42.3226,-0.2376,0.0977,0.5039,144.75
18:52:28:427,-1.0319,0.2608,10.5532,42.3324,-0.3561,0.4948,0.5198,144.75
18:52:28:449,-0.5339,0.3712,10.5341,42.3009,-0.3256,0.5424,0.4649,144.7188
18:52:28:473,-0.4549,0.4597,10.005,42.0762,-0.1863,0.2834,0.3207,144.3594
18:52:28:490,-0.5913,0.6344,9.1262,41.9866,0.0043,-0.0788,0.1558,144.3594
18:52:28:511,-0.7277,0.8139,8.1497,41.9362,0.1735,-0.3396,0.0483,144.5
18:52:28:528,-0.7804,0.9649,7.3881,42.1588,0.2749,-0.3879,0.0092,144.5
18:52:28:550,-0.8258,1.075,6.926,42.0584,0.303,-0.303,0.0098,144.6406
18:52:28:572,-0.7325,1.1324,6.6748,42.1744,0.2712,-0.2114,0.0458,143.8281
18:52:28:589,-0.5387,1.2114,6.8279,42.1438,0.1912,-0.1594,0.0971,143.8281
18:52:28:609,-0.419,1.2832,7.3977,42.3004,0.0928,-0.1063,0.1234,143.1875
18:52:28:630,-0.3616,1.3669,8.1664,42.4063,0.0177,-0.0269,0.1234,143.1875
18:52:28:649,-0.2249,1.3549,8.7553,42.4406,-0.0079,0.0128,0.1179,142.9219
18:52:28:677,0.1603,1.4892,9.2653,42.735,-0.0122,-0.0538,0.0965,142.9219
18:52:28:691,0.4143,1.6615,9.5142,42.5077,0.014,-0.2169,0.0354,141.8594
18:52:28:709,0.4932,1.8793,9.3634,42.336,0.0745,-0.4093,-0.0544,141.8594
18:52:28:728,0.4741,1.9705,9.1406,42.393,0.1368,-0.5687,-0.149,140.625
18:52:28:750,0.3903,2.0734,9.2339,42.1565,0.1619,-0.6084,-0.2358,140.5
18:52:28:774,0.1412,2.0088,9.7271,42.1856,0.1387,-0.4844,-0.3176,139.9531
18:52:28:790,-0.486,1.5849,11.5588,42.0904,0.0861,-0.2199,-0.3738,139.8906
18:52:28:810,-0.6559,1.331,11.7909,42.2031,0.0434,0.0727,-0.416,140
18:52:28:828,-0.9218,1.008,11.4748,42.0867,0.0385,-0.0666,-0.4392,140.0156
18:52:28:849,-0.7708,1.0534,11.2666,42.3401,-0.033,-0.328,-0.4025,140.1562
18:52:28:867,-0.8788,1.0822,11.7838,42.4489,-0.2382,-0.2676,-0.358,140.1719
18:52:28:929,-0.8019,0.7947,12.7534,42.4144,-0.5064,0.1173,-0.2773,140.0469
18:52:28:929,-0.2058,0.3257,14.0701,42.8024,-0.7031,0.5858,-0.1735,139.7969
18:52:28:930,-0.1555,-0.3162,14.6614,42.7243,-0.6548,0.8479,-0.1686,139.7969
18:52:28:949,-0.443,-0.6081,13.8284,42.8959,-0.3305,0.7153,-0.2669,139.7812
18:52:28:967,-0.7851,-0.6511,11.8412,42.7156,0.1197,0.2773,-0.4239,139.6562
18:52:28:991,-1.0534,-0.256,10.0457,42.9782,0.4007,-0.1246,-0.5571,139.6406
18:52:29:011,-1.2879,0.2058,9.1908,43.0248,0.4062,-0.1527,-0.5986,139.9844
18:52:29:029,-1.3525,0.4765,9.0903,43.0896,0.2535,0.1484,-0.5058,140
18:52:29:051,-1.1228,0.5889,9.3514,43.1504,0.1069,0.4594,-0.3427,140.75
18:52:29:072,-0.9051,0.5889,9.4424,43.1282,0.0764,0.5162,-0.2126,140.7656
18:52:29:089,-0.766,0.6129,9.1669,43.2978,0.1435,0.3604,-0.1429,141.6719
18:52:29:111,-0.6655,0.7277,8.8582,43.3116,0.2162,0.1313,-0.1179,142.6562
18:52:29:128,-0.6894,0.862,8.6665,43.3092,0.2504,-0.0299,-0.1155,142.6562
18:52:29:151,-0.6511,0.9147,8.6856,43.3405,0.2853,-0.0983,-0.1045,143.4375
18:52:29:173,-0.7014,0.8306,8.4512,43.285,0.3635,-0.0715,-0.0721,143.4375
18:52:29:189,-0.7875,0.833,7.8861,43.3441,0.4478,-0.0275,-0.0379,143.5625
18:52:29:209,-0.8234,0.9147,7.5102,43.3283,0.452,-0.0177,-0.0104,143.5625
18:52:29:228,-0.8931,0.9147,7.4719,43.3573,0.3751,0.0128,0.0336,143.6719
18:52:29:249,-0.8091,0.8955,7.6899,43.4166,0.2621,0.0709,0.1203,143.6875
18:52:29:273,-0.5722,0.874,8.0608,43.2781,0.1619,0.1203,0.201,144.8125
18:52:29:289,-0.4095,0.8955,8.5445,43.4918,0.091,0.1454,0.2205,144.9219
18:52:29:311,-0.3592,0.984,8.9779,43.3141,0.0605,0.1356,0.1869,146.2188
18:52:29:328,-0.3138,1.4749,9.4926,43.5161,0.0916,0.1197,0.0935,146.3594
18:52:29:351,-0.364,1.5945,9.5237,43.4472,0.1112,0.0617,0.047,146.9531
18:52:29:370,-0.256,1.5993,9.6697,43.3526,0.0977,-0.0501,0.0183,147.3906
18:52:29:388,-0.0144,1.6424,10.1773,43.2028,0.0415,-0.1723,-0.0269,147.3906
18:52:29:409,-0.1053,1.506,10.9122,42.9234,-0.0043,-0.2395,-0.0983,147.4219
18:52:29:427,-0.2994,1.3884,11.3527,43.0591,0.0024,-0.2639,-0.1332,147.8125
18:52:29:449,-0.7636,1.0798,11.0871,42.9532,0.0183,-0.3488,-0.1362,147.8438
18:52:29:469,-0.9553,0.9458,10.9531,43.0214,-0.0568,-0.565,-0.11,148.2031
18:52:29:489,-0.9673,0.8644,11.3049,42.8718,-0.2254,-0.6451,-0.0709,148.25
18:52:29:510,-0.8163,0.5985,11.6067,42.8966,-0.3665,-0.4227,-0.0067,148.5
18:52:29:528,-0.2034,0.7062,11.8579,42.758,-0.427,-0.0434,0.0629,148.5
18:52:29:550,-0.2225,0.8812,12.2554,42.7757,-0.4435,0.3402,0.0446,148.2969
18:52:29:572,-0.9434,0.7014,12.4253,42.7734,-0.3604,0.4777,-0.0031,148.2812
18:52:29:589,-1.4127,0.6583,11.9321,42.683,-0.182,0.3341,0.0318,147.875
18:52:29:609,-1.841,0.4454,11.0728,42.6045,-0.0263,0.1191,0.1081,147.6719
18:52:29:629,-1.8745,0.3999,10.1988,42.238,-0.0018,0.0458,0.2285,147.6719
18:52:29:651,-1.4629,0.4908,9.7128,42.0558,-0.1277,0.088,0.3702,147.6562
18:52:29:672,-0.7828,0.5291,9.5357,41.7017,-0.3042,0.069,0.4881,147.6562
18:52:29:689,-0.0526,0.6057,9.4184,41.5483,-0.4001,-0.0837,0.5223,147.8438
18:52:29:709,0.5578,0.7421,9.1693,41.1903,-0.3512,-0.2902,0.4331,147.8438
18:52:29:729,0.632,0.8453,8.6761,40.9437,-0.1826,-0.4099,0.2498,148.1406
18:52:29:749,0.4143,1.0654,8.0465,40.4928,0.0238,-0.3543,0.0593,148.1719
18:52:29:772,0.189,1.2808,7.4743,40.0803,0.1692,-0.1613,-0.0654,148.3125
18:52:29:791,-0.1077,1.3119,7.1178,39.8758,0.223,0.0043,-0.1081,148.3281
18:52:29:810,-0.5435,1.3406,7.6851,39.7871,0.1387,-0.0098,-0.0476,148.0625
18:52:29:828,-0.7062,1.3789,8.3674,39.5988,0.0935,0.0116,-0.0098,148.0469
18:52:29:850,-0.8115,1.4028,8.7888,39.4149,0.091,0.0678,0.0385,147.7344
18:52:29:872,-0.7564,1.4701,9.0114,39.1744,0.0855,0.0892,0.099,147.7188
18:52:29:911,-0.6033,1.5132,9.1478,38.8197,0.0629,0.0305,0.1521,147.5
18:52:29:911,-0.28,1.5993,9.253,38.6867,0.033,-0.0916,0.1888,147.4688
18:52:29:927,0.1268,1.841,9.4256,38.49,0.0244,-0.2504,0.1747,146.8281
18:52:29:948,0.2584,2.0183,9.4496,38.139,0.0751,-0.3934,0.0904,146.7656
18:52:29:967,0.067,2.2122,9.3395,37.8487,0.171,-0.471,-0.0293,145.5469
18:52:29:989,-0.285,2.3533,9.3395,37.5289,0.2376,-0.3806,-0.1222,145.4375
18:52:30:008,-0.5602,2.3318,9.7391,37.26,0.2266,-0.1448,-0.149,144.5156
18:52:30:027,-0.7397,2.0973,10.5724,36.8673,0.1393,0.0941,-0.1106,144.5156
18:52:30:048,-0.5698,1.8577,11.4772,36.6586,0.0385,0.1374,-0.0464,144.5938
18:52:30:073,-0.2345,1.7405,12.1597,36.1392,-0.0159,-0.0843,-0.0183,144.5938
18:52:30:089,-0.4956,1.4629,12.0422,35.8503,0.0177,-0.4044,-0.0513,144.9531
18:52:30:111,-0.8907,1.2066,11.5923,35.5322,0.0202,-0.6047,-0.0043,145.0938
18:52:30:128,-0.8306,0.9051,11.8101,35.033,-0.1771,-0.4539,0.1784,145.0938
18:52:30:149,0.3999,0.6535,13.3089,34.4832,-0.5113,-0.0073,0.4325,144.9844
18:52:30:172,1.3932,0.1531,14.8122,33.9818,-0.6389,0.4001,0.5125,144.9844
18:52:30:189,0.8931,-0.2177,14.0198,33.5666,-0.3158,0.3836,0.2523,144.6406
18:52:30:209,-0.055,-0.0455,11.4437,33.2774,0.2401,-0.1442,-0.1075,144.6406
18:52:30:229,-0.3975,0.5028,8.9133,32.9488,0.4881,-0.4478,-0.2162,144.4219
18:52:30:249,0.0837,0.7756,8.3363,32.6163,0.2169,-0.1955,-0.08,144.4219
18:52:30:272,1.0822,0.7828,9.9739,32.0754,-0.2468,0.3335,0.0397,144.7188
18:52:30:289,1.6304,0.8453,11.9441,31.513,-0.4319,0.7984,-0.088,144.7344
18:52:30:310,1.1994,1.1037,12.7726,31.0707,0.3317,0.8399,-0.7636,145.1094
18:52:30:331,-0.8091,1.6567,9.4113,30.6016,0.7483,0.5418,-0.8839,145.1406
18:52:30:350,-1.2449,1.7453,7.5918,30.1548,0.8607,0.2596,-0.7855,145.2188
18:52:30:369,-1.1204,1.7237,6.7322,29.5638,0.7568,0.0312,-0.5736,145.2188
18:52:30:390,-0.5698,1.6041,6.7633,29.1873,0.598,-0.0782,-0.3702,145.3281
18:52:30:408,0.0718,1.3597,7.1489,28.553,0.5021,-0.0153,-0.2401,145.3438
18:52:30:428,0.5435,1.0822,7.5532,28.3162,0.4759,0.1405,-0.1924,144.5781
18:52:30:449,0.7158,0.9601,7.9149,28.0553,0.4704,0.2443,-0.2022,144.5
18:52:30:468,0.5483,0.9123,7.8598,27.9326,0.46,0.2419,-0.212,143.4531
18:52:30:490,0.4358,0.9673,7.6469,27.6072,0.3946,0.1429,-0.1619,143.3594
18:52:30:510,0.4836,1.0941,7.5532,27.1947,0.2645,0.011,-0.0684,143.875
18:52:30:527,0.7181,1.3525,7.7809,26.6974,0.1087,-0.0819,0.0269,143.9375
18:52:30:550,0.9051,1.6352,8.286,26.3963,-0.0049,-0.124,0.0709,143.9688
18:52:30:572,0.7923,1.8936,8.5875,26.1697,-0.0202,-0.1368,0.0489,144.2656
18:52:30:590,0.3138,2.0327,8.6139,25.6761,0.0232,-0.1747,0.0098,144.2656
18:52:30:611,-0.0885,2.272,8.8534,25.3112,-0.0037,-0.1716,0.0257,146.3594
18:52:30:628,-0.5052,2.2863,9.7199,24.7306,-0.1515,-0.047,0.0922,146.3594
18:52:30:648,-0.7349,2.0614,10.893,24.4009,-0.3494,0.171,0.1894,148.375
18:52:30:673,-1.0678,1.494,11.9441,23.8957,-0.4813,0.2217,0.2566,148.375
18:52:30:688,-1.0104,1.2879,12.3942,23.7611,-0.4966,0.0024,0.2822,149.4219
18:52:30:709,-0.9434,1.4988,12.4708,23.3475,-0.482,-0.201,0.2382,149.4219
18:52:30:728,-1.4174,1.3119,12.3631,22.9748,-0.4514,-0.2492,0.1607,150.1406
18:52:30:749,-1.2879,1.2018,11.9848,22.6493,-0.4068,-0.1875,0.1979,150.1406
18:52:30:771,-0.5459,1.1372,12.2004,22.5035,-0.449,0.0043,0.2926,150.7656
18:52:30:790,-0.1962,0.9314,13.328,22.3915,-0.5204,0.303,0.2938,150.8281
18:52:30:809,-0.7397,0.6583,13.8787,22.1691,-0.3977,0.4771,0.171,150.9844
18:52:30:829,-1.8147,0.3138,12.6673,22.2219,-0.0287,0.273,0.0538,151
18:52:30:849,-2.6695,0.2441,8.4009,21.9924,0.3567,-0.3354,0.2419,150.8906
18:52:30:872,-1.9463,0.3568,7.7737,21.9419,0.077,-0.2315,0.4832,150.8906
18:52:30:893,-0.8524,0.4549,8.3028,21.9996,-0.2767,-0.0086,0.6664,150.875
18:52:30:908,0.0335,0.5554,8.7194,22.2087,-0.4594,0.1478,0.7165,150.875
18:52:30:928,0.4908,0.711,8.3554,22.1914,-0.4471,0.2169,0.6328,150.4375
18:52:30:995,0.6488,0.9553,8.08,22.1219,-0.3891,0.2034,0.46,150.3906
18:52:30:995,0.6823,1.276,8.1927,22.1151,-0.3561,0.1949,0.2633,149.5469
18:52:30:996,0.6416,1.494,8.3722,22.1914,-0.3079,0.1961,0.1087,149.4688
18:52:31:010,0.5291,1.6807,8.5612,22.0558,-0.2272,0.1045,0.011,148.7969
18:52:31:028,0.2946,1.8123,8.7075,21.9622,-0.1112,-0.0647,-0.0507,148.7344
18:52:31:049,0.134,1.9534,8.5875,22.1125,0.0092,-0.1637,-0.0733,147.9375
18:52:31:071,-0.1914,2.1212,8.6091,22.1492,0.077,-0.1295,-0.0928,147.0781
18:52:31:088,-0.6799,2.1284,8.4655,22.0583,0.1063,-0.0299,-0.1063,147.0781
18:52:31:109,-0.9505,2.059,8.3722,22.3588,0.0916,0.0348,-0.0538,147.0312
18:52:31:128,-0.8524,2.0112,8.4033,22.411,0.0226,0.0354,0.0299,147.0312
18:52:31:150,-0.5195,2.0973,8.9085,22.3776,-0.0721,-0.0379,0.0757,146.4062
18:52:31:173,-0.1603,2.2361,9.3897,22.5159,-0.0898,-0.1155,0.0525,146.4062
18:52:31:189,0.0048,2.4251,9.4376,22.6891,-0.0049,-0.1503,-0.022,144.6562
18:52:31:208,-0.1555,2.5113,9.1741,22.5795,0.1051,-0.2101,-0.1216,144.6562
18:52:31:229,-0.352,2.5786,9.3873,22.6199,0.1509,-0.2859,-0.2016,143.1406
18:52:31:249,-0.5578,2.4802,9.95,22.8857,0.1454,-0.2639,-0.2407,143.1406
18:52:31:273,-0.5363,2.2337,10.7758,22.847,0.1173,-0.1423,-0.2291,142.5469
18:52:31:288,-0.4119,2.0207,11.6952,22.8415,0.0806,-0.044,-0.212,142.4844
18:52:31:308,-0.2898,1.7524,12.0927,23.0404,0.0983,-0.033,-0.2101,142.4062
18:52:31:329,-0.2273,1.5012,11.5899,23.1339,0.1643,-0.1869,-0.182,142.4062
18:52:31:352,0.3281,1.4916,10.8978,23.1499,-0.099,-0.7019,-0.0733,142.6094
18:52:31:371,0.4501,1.3334,11.8699,23.4522,-0.4093,-0.529,-0.0385,142.625
18:52:31:390,1.2377,1.2784,13.6654,23.7337,-0.6493,-0.0409,-0.0195,142.8438
18:52:31:408,1.6328,0.7899,14.7811,23.7599,-0.6005,0.4905,-0.1527,142.875
18:52:31:427,1.0152,0.3042,14.1012,24.0512,-0.1955,0.6793,-0.4282,142.75
18:52:31:448,-0.1125,0.1244,11.6689,24.5124,0.3659,0.4001,-0.7129,142.7344
18:52:31:473,-1.2808,0.3473,9.2629,24.5755,0.6609,0.0855,-0.8405,142.6875
18:52:31:489,-1.8577,0.7014,8.1712,24.8709,0.5247,0.0959,-0.741,142.6875
18:52:31:509,-1.7046,0.941,8.4009,25.3228,0.1607,0.3506,-0.4991,143.1094
18:52:31:527,-1.1827,0.821,9.4065,25.5852,-0.1478,0.5314,-0.2633,143.1406
18:52:31:549,-0.6057,0.6703,9.7582,25.7695,-0.2114,0.4728,-0.1289,143.7656
18:52:31:572,-0.3066,0.6823,9.4232,25.9887,-0.0874,0.2162,-0.1209,144.2969
18:52:31:589,-0.4525,0.7851,8.7171,25.9344,0.0641,-0.0092,-0.168,144.2969
18:52:31:608,-0.5243,1.0391,8.1784,26.2254,0.0898,-0.022,-0.1747,144.7656
18:52:31:630,-0.5243,1.1539,8.4846,26.489,0.0147,0.0947,-0.1423,144.7656
18:52:31:650,-0.3712,1.0893,8.6856,26.7017,0.0128,0.2101,-0.0898,144.7969
18:52:31:670,-0.0598,1.1348,8.5086,26.8368,0.0983,0.1796,-0.0684,144.7969
18:52:31:690,0.0766,1.1324,8.3985,27.02,0.1869,0.1051,-0.0922,144.5938
18:52:31:709,-0.1555,1.1539,8.2765,27.1887,0.2474,0.1319,-0.1503,144.5938
18:52:31:728,-0.5841,1.2688,8.1182,27.4827,0.2682,0.2388,-0.1961,145.8594
18:52:31:749,-1.0199,1.4127,8.0249,27.8241,0.2236,0.3176,-0.1753,145.8594
18:52:31:772,-1.1348,1.5443,8.123,27.8899,0.1197,0.2963,-0.0751,147.7656
18:52:31:790,-0.8067,1.6448,8.5349,28.372,0.0079,0.1991,0.0544,147.9688
18:52:31:809,-0.3712,1.7118,9.0401,28.5265,-0.0507,0.1063,0.1326,148.7188
18:52:31:828,-0.1866,1.7548,9.4352,28.7754,-0.0367,0.0727,0.1423,148.7969
18:52:31:849,-0.3592,1.6902,9.6601,28.8982,0.0116,0.0806,0.1289,148.9531
18:52:31:874,-0.6511,1.5538,9.8566,29.074,-0.0996,0.1277,0.2682,148.9688
18:52:31:890,-0.2177,1.2114,11.3097,29.2663,-0.3048,0.0574,0.4007,149.3438
18:52:31:908,0.0933,0.7253,12.3942,29.6223,-0.4581,-0.2688,0.4661,149.3906
18:52:31:927,0.2058,0.352,12.7223,29.8436,-0.4319,-0.8246,0.4282,149.625
18:52:31:949,0.0861,0.3832,12.4134,29.7886,-0.3244,-1.1136,0.3121,149.6562
18:52:31:971,-0.1484,0.6033,12.1813,30.2467,-0.2963,-0.8491,0.2004,149.8906
18:52:31:989,-0.2273,0.6607,12.5665,30.3863,-0.3427,-0.2529,0.1442,149.9219
18:52:32:010,0.1029,0.8043,12.8659,30.523,-0.2785,0.3347,0.0867,150.4219
18:52:32:028,-0.1101,0.6823,12.5115,30.6173,-0.0275,0.6683,-0.0391,150.4844
18:52:32:049,-0.7851,0.4765,10.8715,30.7767,0.3268,0.7055,-0.1784,150.8594
18:52:32:072,-1.7692,0.3138,9.3419,30.7547,0.5272,0.496,-0.2077,150.6406
18:52:32:090,-2.5232,0.1866,8.3794,30.9674,0.4288,0.2944,-0.0745,150.6406
18:52:32:110,-2.5113,0.2776,8.219,31.2341,0.1026,0.2272,0.193,150.3281
18:52:32:128,-1.5969,0.4621,8.8511,31.3132,-0.3054,0.2645,0.4783,150.3281
18:52:32:148,-0.4693,0.5578,9.9141,31.7669,-0.5913,0.2749,0.6444,149.8125
18:52:32:171,0.3281,0.6248,10.1701,32.2067,-0.5876,0.2285,0.6414,149.8125
18:52:32:190,0.6823,0.7014,9.5261,32.5155,-0.3696,0.0733,0.5131,148.5938
18:52:32:209,0.6775,0.874,8.5732,32.6139,-0.1301,-0.1264,0.3146,148.5938
18:52:32:229,0.5195,1.1755,7.8263,33.1289,0.0086,-0.1918,0.1216,147.5625
18:52:32:249,0.1938,1.3286,7.3379,33.38,0.055,-0.1209,0.0098,147.5625
18:52:32:273,-0.0407,1.4127,7.1249,33.6413,0.055,-0.0702,-0.0153,146.9844
18:52:32:289,-0.1555,1.4557,7.1824,33.6596,0.0348,-0.0678,-0.0031,146.9844
18:52:32:308,-0.1866,1.5251,7.5437,33.6879,0.0043,-0.0464,0.0214,146.8281
18:52:32:328,-0.3544,1.5562,8.1087,33.6595,-0.0153,0.0128,0.0373,146.8125
18:52:32:349,-0.5459,1.5945,8.5229,34.0737,-0.0165,0.0788,0.0507,147.4375
18:52:32:374,-0.5506,1.8314,9.0712,34.2626,-0.0709,0.0269,0.1106,147.5
18:52:32:389,-0.3855,1.9992,9.3012,34.331,-0.0916,-0.0874,0.1136,147.5469
18:52:32:409,-0.2704,2.15,9.3586,34.5309,-0.0654,-0.2346,0.077,147.5469
18:52:32:427,-0.3784,2.2744,9.1549,34.8569,-0.0024,-0.3757,0.0067,146.1406
18:52:32:448,-0.7636,2.3486,8.9468,35.0202,0.0293,-0.3903,-0.0476,145.9844
18:52:32:473,-1.2544,2.1882,9.1525,35.2237,-0.0257,-0.2883,-0.0312,144.5156
18:52:32:488,-1.1707,1.8817,9.6242,35.7406,-0.1405,-0.2083,0.0464,144.3594
18:52:32:511,-0.4741,1.7357,10.9313,35.9198,-0.2755,-0.2272,0.0825,143.8906
18:52:32:527,0.0861,1.6591,12.6697,36.2373,-0.3378,-0.2114,-0.0018,143.8438
18:52:32:549,-0.079,1.2401,13.6128,36.5146,-0.2364,-0.1252,-0.1607,143.875
18:52:32:570,-0.2225,0.8163,13.5218,36.571,-0.0831,-0.0544,-0.2504,143.875
18:52:32:590,-0.2321,0.5794,13.4477,36.7381,-0.1008,0.044,-0.2663,143.875
18:52:32:610,-0.012,0.3042,13.9576,37.2814,-0.2682,0.1539,-0.2443,143.7656
18:52:32:629,0.5961,0.0526,14.6854,37.6068,-0.3256,0.1735,-0.2199,143.7656
18:52:32:650,0.7995,-0.4693,13.8523,37.7664,-0.0916,0.0635,-0.2773,143.5312
18:52:32:667,0.5052,-0.7516,11.8484,38.0457,0.2669,-0.212,-0.3891,143.5312
18:52:32:690,-0.0694,-0.8548,9.8133,38.196,0.4771,-0.4184,-0.4716,143.2656
18:52:32:709,-0.3018,-0.5483,8.7171,38.4988,0.4038,-0.3091,-0.4361,143.2656
18:52:32:728,-0.1101,-0.134,8.8367,39.1497,0.1124,0.0171,-0.3011,143.3438
18:52:32:748,0.3401,0.0311,9.9404,39.5001,-0.1826,0.3647,-0.1558,143.3438
18:52:32:773,0.6751,0.0455,10.5126,39.8213,-0.2437,0.5498,-0.0806,143.2812
18:52:32:790,0.7445,0.0622,10.2323,40.2017,-0.1051,0.4649,-0.1081,143.2812
18:52:32:808,0.5937,0.3185,9.6242,40.3679,0.0892,0.1869,-0.2211,143.0312
18:52:32:828,0.1364,0.821,9.009,40.66,0.2358,-0.0147,-0.3415,143
18:52:32:849,-0.419,1.1157,8.3267,41.0886,0.3299,-0.0483,-0.3635,143.3125
18:52:32:870,-0.6894,1.209,7.5942,41.3362,0.3787,-0.0312,-0.2773,143.3438
18:52:32:892,-0.5722,1.319,7.4216,41.5211,0.358,-0.0232,-0.146,143.75
18:52:32:910,-0.285,1.2209,7.7498,41.6949,0.2975,0.0226,-0.0195,143.7812
18:52:32:929,0.1555,1.276,8.1855,41.9373,0.215,0.1613,0.149,144.1406
18:52:32:949,0.3855,1.2425,8.5421,42.0396,0.2144,0.1545,0.1411,144.1875
18:52:32:973,0.3951,1.2784,8.6043,42.4009,0.234,0.1252,0.091,145.2656
18:52:32:988,0.2608,1.4701,8.7458,42.4128,0.2175,0.0819,0.0318,145.375
18:52:33:060,0.1412,1.7142,9.2028,42.5278,0.1802,0.0764,-0.0024,146.2812
18:52:33:060,0.1699,1.896,9.5046,42.7047,0.1942,0.1038,-0.011,146.3594
18:52:33:061,0.2369,1.9944,9.5309,42.9261,0.2517,0.1057,-0.0244,146.4844
18:52:33:073,0.0359,1.9487,9.6266,43.1483,0.2865,0.0757,-0.0483,146.8438
18:52:33:090,-0.1484,1.7381,9.763,43.3263,0.27,0.0544,-0.047,146.8438
18:52:33:110,-0.0215,1.561,10.1821,43.5391,0.1723,0.0641,-0.0195,147.8125
18:52:33:129,-0.0359,1.1994,10.8667,43.689,0.0299,0.0886,-0.0104,147.8125
18:52:33:149,-0.3473,0.7469,11.4844,43.9916,-0.08,0.0574,-0.0305,148.5312
18:52:33:172,-0.7253,0.6966,12.0111,44.4089,-0.1759,0.0379,-0.0953,148.5312
18:52:33:188,-1.5012,0.4693,12.3631,44.6985,-0.27,0.0898,-0.1381,148.6562
18:52:33:208,-1.5299,0.2608,12.32,44.7254,-0.3085,0.1264,-0.0397,148.6562
18:52:33:229,-0.9888,0.352,11.8412,44.8345,-0.2926,0.1594,0.0867,148.4844
18:52:33:250,-0.7397,0.6296,11.8077,45.1485,-0.3219,0.2004,0.135,148.4844
18:52:33:273,-0.7349,0.6272,11.9489,45.3202,-0.2828,0.1246,0.1429,148.5
18:52:33:289,-0.9194,0.4693,11.1972,45.4703,-0.0757,-0.066,0.1277,148.5
18:52:33:309,-1.3549,0.352,10.1079,45.6063,0.1619,-0.2529,0.0971,148.625
18:52:33:328,-1.6232,0.4693,9.0329,45.6999,0.2327,-0.1778,0.1148,148.6406
18:52:33:348,-1.695,0.7205,8.7434,45.9873,0.0568,0.0983,0.2107,148.8906
18:52:33:370,-1.3071,0.9075,9.2219,46.0746,-0.2333,0.3244,0.3702,148.9219
18:52:33:390,-0.5028,0.9482,9.95,46.2218,-0.4264,0.3207,0.5021,149.125
18:52:33:409,0.1029,0.929,9.9236,46.1756,-0.4019,0.1161,0.5076,149.1406
18:52:33:429,0.419,1.276,8.243,46.3163,-0.0342,-0.4978,0.234,149.1562
18:52:33:450,0.2177,1.5514,7.4599,46.4276,0.091,-0.5119,0.0959,149.1719
18:52:33:472,-0.012,1.7118,6.8758,46.6515,0.1362,-0.3335,0.0293,149.25
18:52:33:490,-0.2417,1.8075,6.7418,46.7591,0.113,-0.1472,0.025,149.25
18:52:33:511,-0.4597,1.8769,7.2039,46.7296,0.0544,0.0061,0.0483,149.0156
18:52:33:527,-0.6009,1.884,7.8503,46.8398,0.0012,0.1295,0.1014,148.9844
18:52:33:550,-0.4765,1.8027,8.365,46.8535,-0.0293,0.1466,0.182,148.5
18:52:33:571,-0.2321,1.8434,8.8104,47.2014,-0.0678,0.0782,0.2382,148.2344
18:52:33:589,0.0167,1.9463,9.2363,47.5221,-0.1148,-0.0238,0.2443,148.2344
18:52:33:608,0.2994,2.0806,9.5213,47.6915,-0.1209,-0.1613,0.2138,147.9844
18:52:33:628,0.5291,2.3007,9.5788,47.6815,-0.0666,-0.3091,0.1417,147.9844
18:52:33:649,0.5219,2.4514,9.3826,47.7353,0.0189,-0.419,0.0403,146.7812
18:52:33:672,0.486,2.5929,9.4567,47.9534,0.0782,-0.4532,-0.0574,146.7812
18:52:33:690,0.3927,2.6049,9.9882,48.0956,0.0947,-0.3347,-0.1472,145.5469
18:52:33:710,0.2225,2.3509,10.9313,48.5712,0.0977,-0.1252,-0.226,145.5469
18:52:33:729,0.0383,2.1236,11.8866,48.5687,0.1045,0.0073,-0.295,145.2188
18:52:33:749,-0.4095,1.9606,12.3703,48.3524,0.1277,-0.0819,-0.3439,145.2188
18:52:33:771,-0.8979,1.6687,12.1573,48.5642,0.1539,-0.3097,-0.3066,145.2656
18:52:33:789,-0.778,1.5921,11.8268,48.811,0.0641,-0.4239,-0.1258,145.2656
18:52:33:808,-0.2489,1.3167,12.2172,48.9885,-0.2321,-0.2621,0.0922,145.1094
18:52:33:828,0.8115,0.9051,13.7566,48.9072,-0.5944,0.0721,0.2627,145.1094
18:52:33:848,1.7118,0.2874,14.9106,49.0177,-0.6872,0.3176,0.2621,144.6562
18:52:33:873,1.896,-0.189,14.2735,48.8096,-0.3916,0.2627,0.0568,144.6094
18:52:33:888,1.4462,-0.268,12.1071,48.7157,0.0922,-0.0874,-0.2639,144.0781
18:52:33:909,0.6224,0.1172,9.7247,48.9196,0.4209,-0.3299,-0.5382,144.0312
18:52:33:928,-0.0622,0.5937,8.4129,48.8273,0.4142,-0.2388,-0.653,143.8594
18:52:33:950,0.1172,1.0582,9.1645,48.7969,-0.0373,0.4875,-0.4783,143.8438
18:52:33:973,0.3616,1.0199,9.7152,48.8293,-0.1051,0.697,-0.4038,144.1094
18:52:33:988,0.5339,0.9673,9.7941,48.8557,-0.0336,0.6096,-0.3891,144.1406
18:52:34:008,0.5124,1.0869,9.7032,48.8888,0.0941,0.339,-0.4435,144.7344
18:52:34:028,0.0861,1.2712,9.186,48.9216,0.2321,0.1387,-0.507,144.7812
18:52:34:049,-0.4023,1.3813,8.5014,48.9365,0.3335,0.0544,-0.4997,145.5312
18:52:34:071,-0.5746,1.4342,7.8861,48.8514,0.3824,0.025,-0.4117,145.6094
18:52:34:090,-0.5698,1.3884,7.4623,48.8151,0.3836,0.0476,-0.2877,145.6094
18:52:34:108,-0.5818,1.2616,7.1919,48.6952,0.3549,0.0776,-0.1753,144.625
18:52:34:127,-0.3449,1.2353,7.1871,48.6517,0.3036,0.0861,-0.0709,144.625
18:52:34:149,0.0048,1.2449,7.3929,48.5205,0.237,0.1234,0.0134,144.7344
18:52:34:171,0.1962,1.3047,7.721,48.5204,0.1662,0.1808,0.044,144.7344
18:52:34:189,0.2465,1.5012,8.2262,48.3646,0.1148,0.1869,0.0244,146.3125
18:52:34:210,0.146,1.7644,8.6569,48.1572,0.099,0.193,-0.014,146.3125
18:52:34:229,-0.0215,2.0399,8.9827,48.0845,0.1045,0.2132,-0.0415,147.5469
18:52:34:249,-0.1484,2.2648,9.253,47.8425,0.1203,0.2199,-0.0415,147.5469
18:52:34:272,-0.3066,2.3127,9.4328,47.7284,0.1417,0.1637,-0.0134,147.5625
18:52:34:288,-0.5722,2.2361,9.5907,47.5194,0.1454,0.0666,0.0483,148.375
18:52:34:309,-0.5483,2.0734,10.0744,47.441,0.0751,-0.0104,0.1368,149.5312
18:52:34:328,-0.4238,1.7118,10.9579,47.1337,-0.0574,-0.0342,0.2211,149.5312
18:52:34:349,-0.6296,1.063,11.5899,47.0977,-0.1912,-0.0244,0.2853,150.6562
18:52:34:370,-0.5435,0.8067,12.1334,47.1976,-0.339,-0.0501,0.3305,150.7812
18:52:34:389,-0.4693,0.7732,12.7654,46.996,-0.4832,-0.055,0.3158,151.4844
18:52:34:409,-0.6511,0.4932,12.8085,47.2902,-0.493,-0.0849,0.2718,151.5469
18:52:34:428,-0.376,0.5411,12.3488,47.0443,-0.419,-0.0916,0.284,151.7812
18:52:34:449,0.2345,0.929,12.6601,46.7793,-0.4771,0.4258,0.2474,151.8125
18:52:34:473,-0.1842,0.699,13.6606,46.5672,-0.2236,0.4899,0.11,151.8438
18:52:34:487,-1.3549,0.5554,11.5277,46.569,0.2584,0.2071,-0.0476,151.8438
18:52:34:509,-2.5929,0.6153,9.1789,46.7106,0.5785,-0.1387,-0.0764,151.9531
18:52:34:527,-2.8753,0.9075,7.7545,46.3463,0.5192,-0.1637,0.1142,151.9688
18:52:34:549,-2.0973,1.1276,7.6014,46.0569,0.1594,0.0898,0.4526,152.0938
18:52:34:571,-0.984,0.9266,8.4416,45.5422,-0.2676,0.3354,0.7593,152
18:52:34:589,-0.0191,0.5818,9.1358,45.5239,-0.5076,0.3763,0.8815,152
18:52:34:610,0.6799,0.5698,9.2868,45.5496,-0.4875,0.2022,0.7776,151.3438
18:52:34:627,0.7014,0.8186,8.8199,45.4483,-0.2779,-0.0605,0.5113,151.3438
18:52:34:649,0.2728,1.142,8.0441,45.0269,-0.0287,-0.2511,0.2425,150.3438
18:52:34:671,-0.0311,1.4868,7.2709,44.6705,0.1191,-0.2376,0.1081,150.3438
18:52:34:689,-0.2034,1.695,6.8495,44.6381,0.1258,-0.0983,0.099,149.3906
18:52:34:709,-0.2608,1.707,6.8375,44.6709,0.047,-0.0208,0.1423,149.3906
18:52:34:728,-0.1101,1.7596,7.1871,44.5288,-0.0501,-0.0605,0.1771,148.5312
18:52:34:750,-0.0742,1.9606,7.8096,44.2792,-0.135,-0.1063,0.1613,148.4531
18:52:34:772,-0.3425,2.0806,8.4846,43.9206,-0.171,-0.0794,0.1197,148.4375
18:52:34:789,-0.4669,2.2241,8.7912,43.9038,-0.1497,-0.0159,0.1228,148.375
18:52:34:808,-0.376,2.3246,8.9157,43.86,-0.1228,-0.0024,0.1545,148.75
18:52:34:828,-0.1795,2.3773,8.9587,43.4572,-0.1118,-0.069,0.1692,148.75
18:52:34:849,0.2776,2.5259,9.0592,43.0837,-0.1063,-0.2016,0.1466,147.5
18:52:34:872,0.4501,2.5594,9.1573,42.5655,-0.0806,-0.3573,0.0568,147.3906
18:52:34:890,0.4406,2.6145,9.2964,42.4829,-0.0428,-0.4441,-0.0721,145.3594
18:52:34:909,0.1316,2.5786,9.7343,42.0566,-0.0281,-0.3237,-0.19,145.1562
