Time,Acc_X,Acc_Y,Acc_Z,Meg,Gyr_X,Gyr_Y,Gyr_Z,Ore
10:09:44:733,-0.1938,1.7836,9.253,26.8701,-0.0825,-0.3714,0.0171,290.6719
10:09:44:734,0.9888,1.9175,9.7606,27.3548,-0.171,-0.2932,-0.033,150.7656
10:09:44:745,0.5985,0.9242,10.7064,27.5645,-0.2779,-0.3494,-0.369,165.8906
10:09:44:761,0.122,0.0455,11.3097,27.7972,-0.2895,-0.2908,-0.5357,167.5625
10:09:44:785,-0.0814,-0.3257,11.1996,27.8192,-0.1997,-0.1289,-0.5088,167.5781
10:09:44:802,-0.134,-0.431,10.5437,27.9146,-0.0788,0.0312,-0.3995,167.5781
10:09:44:821,0.0502,-0.4095,9.871,27.7597,0.0183,0.0916,-0.2755,167.5781
10:09:44:840,0.3305,-0.2536,9.4448,27.9009,0.0727,0.0342,-0.179,167.5781
10:09:44:859,0.5124,-0.1196,9.4759,28.26,0.0782,-0.088,-0.1209,167.5781
10:09:44:886,0.6511,-0.0048,9.6769,28.2063,0.0507,-0.168,-0.088,167.5781
10:09:44:902,0.8019,0.2369,9.775,28.1643,-0.0067,-0.1338,-0.0629,167.5781
10:09:44:919,0.8019,0.4932,9.7726,28.0103,-0.1002,-0.0342,-0.0623,167.5781
10:09:44:939,0.6631,0.644,9.7558,27.9903,-0.1918,0.0476,-0.0794,167.5781
10:09:44:961,0.5171,0.8091,9.8085,27.6857,-0.237,0.088,-0.0794,167.5781
10:09:44:981,0.4693,1.0199,10.0002,27.7468,-0.2266,0.0806,-0.0623,167.5781
10:09:45:000,0.5554,1.2568,10.2371,27.6624,-0.1741,0.0568,-0.058,167.5781
10:09:45:019,0.6655,1.3358,10.4145,27.5041,-0.0941,0.0434,-0.0971,167.5781
10:09:45:040,0.5961,1.2592,10.4312,27.6262,-0.0134,0.044,-0.1771,167.5781
10:09:45:060,0.2922,1.0175,10.5365,27.7274,0.0507,0.0299,-0.2566,168.75
10:09:45:082,-0.1125,0.7564,10.5317,27.6659,0.1148,0.0348,-0.2773,168.75
10:09:45:101,-0.6033,0.6344,10.2993,27.6956,0.1784,0.0635,-0.2199,169.4844
10:09:45:121,-0.8501,0.7588,10.0026,27.8936,0.2382,0.0733,-0.0959,169.4844
10:09:45:142,-0.7421,1.1228,9.4591,28.1192,0.2785,0.0867,0.0525,169.8281
10:09:45:161,-0.4119,1.3167,9.4615,28.1308,0.2523,0.0098,0.1277,169.8281
10:09:45:182,-0.4621,1.2353,10.4001,28.2876,0.1802,-0.0837,0.0928,170.0156
10:09:45:202,-0.8812,0.9912,10.6226,28.3611,0.1668,0.0336,0.058,170.0156
10:09:45:221,-1.1492,0.862,9.7726,28.309,0.2199,0.2566,0.1197,170.1562
10:09:45:241,-0.9721,1.0941,9.3323,28.414,0.2266,0.3134,0.2425,170.1719
10:09:45:259,-0.6344,1.4653,9.6242,28.2932,0.1552,0.2517,0.3048,170.2969
10:09:45:282,-0.565,1.5682,9.8949,28.3194,0.0935,0.2303,0.2449,170.3125
10:09:45:301,-0.6799,1.4342,9.6601,28.258,0.0898,0.2639,0.1307,170.4531
10:09:45:321,-1.0654,1.2544,9.2243,28.2897,0.1087,0.2633,0.0531,170.4688
10:09:45:342,-1.4174,1.3549,8.8487,27.9754,0.0959,0.2065,0.0757,170.9062
10:09:45:359,-1.1444,1.6472,8.7984,27.8359,-0.0428,0.1387,0.2822,170.9375
10:09:45:381,-1.2018,1.7955,8.997,27.6092,-0.1313,0.0782,0.3091,171.4375
10:09:45:401,-1.2832,1.9295,9.4017,27.5877,-0.1906,0.0134,0.3128,171.4844
10:09:45:420,-1.2425,1.9848,9.6769,27.7493,-0.1851,0.0018,0.3085,171.5312
10:09:45:439,-1.3095,1.9367,9.4687,27.7737,-0.1771,0.0916,0.3011,171.5312
10:09:45:459,-1.319,1.8745,9.3132,27.7712,-0.2291,0.1759,0.3073,171.3281
10:09:45:482,-1.3454,1.908,9.5788,27.6668,-0.2932,0.1741,0.2792,171.0938
10:09:45:501,-1.2712,1.9056,9.9882,27.8103,-0.2871,0.1576,0.2254,171.0938
10:09:45:521,-1.0152,1.9032,10.2251,27.9354,-0.1985,0.1961,0.1662,170.4531
10:09:45:541,-1.1252,1.7644,9.6817,27.9504,-0.0947,0.3085,0.0647,170.4531
10:09:45:560,-2.5522,0.9482,8.8319,28.0469,-0.0733,0.3873,-0.033,169.9844
10:09:45:582,-3.5839,0.0024,7.599,27.9909,-0.2071,0.3916,0.1429,169.9844
10:09:45:602,-3.0763,0.285,8.5445,27.8714,-0.4777,0.2498,0.6426,169.8125
10:09:45:620,-2.1978,1.1468,9.5309,27.7454,-0.7245,0.3683,0.9993,169.8125
10:09:45:642,-0.6105,2.1523,10.5461,27.762,-0.8851,0.507,1.1209,169.2812
10:09:45:659,-0.3688,2.758,11.5517,27.6084,-0.7929,0.5644,0.7416,169.2812
10:09:45:682,-1.5419,1.841,11.5517,27.5145,-0.3769,0.3292,0.2052,168.5781
10:09:45:702,-2.7006,0.8282,10.448,27.7896,0.0745,0.0476,-0.0324,168.5781
10:09:45:721,-3.5671,0.3975,10.2395,27.7929,0.2706,-0.0965,0.069,167.875
10:09:45:742,-3.766,0.553,9.8399,27.8946,0.3506,-0.1087,0.3885,167.875
10:09:45:759,-2.5065,1.4462,9.3706,27.9559,0.3702,-0.1765,0.7471,167.25
10:09:45:782,-0.7995,2.5379,9.428,27.9511,0.2205,-0.2401,0.8271,167.1719
10:09:45:802,-0.4597,2.837,10.3834,28.0019,-0.0293,-0.1625,0.5479,166.75
10:09:45:820,-1.0247,2.3892,10.6705,27.9873,-0.1161,0.0342,0.223,166.7031
10:09:45:843,-1.4653,2.0518,10.1821,27.955,0.2065,0.0415,0.0086,166.6094
10:09:45:860,-1.5682,2.2074,9.0951,27.9327,0.3488,-0.0623,-0.0018,166.6094
10:09:45:880,-1.3334,2.2241,9.0281,27.9211,0.4416,-0.1423,-0.0232,165.75
10:09:45:900,-1.3956,2.3916,9.2363,27.884,0.5217,-0.1918,-0.0861,165.6562
10:09:45:921,-1.4868,2.406,9.3227,28.0871,0.6359,-0.1747,-0.1429,163.4219
10:09:45:939,-1.6567,2.4108,8.8798,28.2279,0.7764,-0.168,-0.2071,163.2031
10:09:45:961,-2.0638,2.581,8.741,28.3089,0.865,-0.2498,-0.2608,162.1406
10:09:45:984,-2.2098,2.7173,8.8774,28.4212,0.8979,-0.3366,-0.2492,162.0312
10:09:46:001,-2.5642,2.7748,8.8606,28.5566,0.846,-0.3183,-0.1924,162
10:09:46:019,-3.3087,2.9303,8.9994,28.5335,0.7177,-0.1582,-0.0745,160.8281
10:09:46:039,-3.8115,3.3422,8.231,28.4458,0.5394,0.0373,0.1619,160.8281
10:09:46:059,-3.0356,3.1125,7.3738,28.455,0.2822,-0.0385,0.5467,159.3438
10:09:46:084,-1.7907,2.8705,7.7234,28.501,-0.1045,-0.3189,0.7752,159.3281
10:09:46:101,-1.7094,3.1053,8.4823,28.4266,-0.4759,-0.4441,0.7544,159
10:09:46:120,-1.9896,2.9973,9.7606,28.2646,-0.6994,-0.4343,0.7605,159
10:09:46:142,-1.3406,3.2919,10.9723,28.3454,-0.6585,-0.4923,0.7837,159.0312
10:09:46:160,-0.4884,3.4762,10.9313,28.3539,-0.3543,-0.5278,0.667,159.0312
10:09:46:182,-0.2994,3.1914,10.3232,28.4023,-0.1698,-0.493,0.4416,159.2188
10:09:46:202,-0.0598,2.5232,10.6226,28.5564,-0.3378,-0.2804,0.2712,159.2188
10:09:46:220,-0.6655,1.8769,10.3472,28.5522,-0.6634,0.3152,0.1313,159.7188
10:09:46:241,-1.4127,1.5682,10.3543,28.5099,-0.9957,0.8075,0.1124,159.7188
10:09:46:260,-1.5347,1.4414,10.6849,28.6918,-1.1362,0.8534,0.2223,160.3594
10:09:46:281,-0.9745,1.4653,11.5421,28.7789,-0.9908,0.4215,0.3183,160.4219
10:09:46:302,-0.5363,0.9577,12.4182,28.6046,-0.6096,-0.1698,0.2572,160.7969
10:09:46:319,-0.62,0.1149,12.7367,28.7634,-0.1234,-0.7092,0.1405,160.8438
10:09:46:344,-0.7612,-0.4549,12.9042,28.7377,0.3024,-1.0158,0.1405,160.1719
10:09:46:364,0.1101,0.0502,10.1031,28.8098,0.5485,-0.1857,0.4862,160.1094
10:09:46:380,0.7828,0.6105,8.2478,28.9211,0.3775,0.314,0.5937,158.6562
10:09:46:399,1.0343,0.996,7.2278,29.0171,0.1484,0.4227,0.5608,158.5156
10:09:46:419,0.9194,1.2066,7.4097,29.1224,-0.0269,0.171,0.4545,157.0312
10:09:46:439,0.6129,1.1492,8.1425,29.0348,-0.1112,-0.1246,0.358,156.8906
10:09:46:459,0.3975,1.2305,8.3387,29.4007,-0.1619,-0.2114,0.3323,155.875
10:09:46:481,0.3497,1.4055,8.5995,29.3424,-0.2553,-0.1399,0.3506,155.7812
10:09:46:500,0.3329,1.4462,8.8271,29.4047,-0.4093,0.0531,0.3561,155.3594
10:09:46:519,0.7325,1.5969,9.2821,29.4983,-0.5492,0.2223,0.3396,154.7812
10:09:46:539,0.6416,1.9391,9.7128,29.6243,-0.5064,0.1949,0.2504,154.7812
10:09:46:560,-0.3257,1.4004,9.21,29.6298,-0.292,0.0525,0.1057,154.1094
10:09:46:581,-0.1842,1.1898,9.2964,29.6524,-0.2266,-0.0757,0.182,154.1094
10:09:46:600,-0.0502,1.2975,9.4065,30.1166,-0.2413,-0.0367,0.2627,153.8906
10:09:46:619,0.1795,1.2951,9.6434,30.1427,-0.2822,0.0165,0.2828,153.8906
10:09:46:641,0.0263,1.1898,9.8471,30.2915,-0.2957,0.077,0.2718,153.1094
10:09:46:685,0.0502,1.1587,9.8013,30.3696,-0.2504,0.1045,0.2889,153.1094
10:09:46:686,0.3018,1.3573,9.629,30.4622,-0.1533,0.0843,0.3372,151.7812
10:09:46:700,0.577,1.5682,9.4424,30.5524,-0.0739,0.0525,0.3518,151.7812
10:09:46:719,0.7588,1.7022,9.2701,30.681,-0.0947,0.102,0.3225,150.875
10:09:46:740,0.8764,1.8793,9.373,30.7598,-0.193,0.2187,0.2669,150.875
10:09:46:759,0.984,1.9801,9.6458,30.468,-0.2633,0.3225,0.2016,150.2188
10:09:46:780,0.9769,2.1811,9.9069,30.4568,-0.2419,0.3769,0.135,150.1562
10:09:46:800,0.8306,2.2648,9.9954,30.5613,-0.1778,0.4013,0.0531,149.4531
10:09:46:819,0.5052,2.1954,9.9715,30.6244,-0.1179,0.3971,-0.0403,149.375
10:09:46:840,0.3449,2.2026,10.0887,30.8332,-0.0379,0.3207,-0.0867,149.0156
10:09:46:860,0.2369,2.2983,10.2323,31.0237,0.0745,0.1985,-0.102,148.9688
10:09:46:881,0.146,2.3294,10.3496,31.0624,0.204,0.0593,-0.1625,148.5312
10:09:46:899,0.1795,2.15,10.8093,31.13,0.2095,0.0348,-0.215,148.4844
10:09:46:919,0.0933,1.9753,11.3527,31.4768,0.212,0.0721,-0.2627,147.9375
10:09:46:940,-0.0526,1.6807,11.4413,31.6525,0.2388,0.149,-0.3005,147.875
10:09:46:960,-0.4645,1.4318,11.2857,31.7484,0.2889,0.1833,-0.3183,147.25
10:09:46:980,-0.9793,1.319,11.348,32.0258,0.3335,0.1631,-0.2578,147.1875
10:09:47:000,-1.0941,1.4079,11.2331,31.9728,0.3964,0.2199,-0.0605,146.5
10:09:47:019,-0.7301,1.9487,10.8093,32.0329,0.4368,0.3073,0.1857,145.9062
10:09:47:039,0.3281,2.5017,10.558,32.3086,0.3518,0.1979,0.2456,145.9062
10:09:47:059,0.9314,2.2839,12.6553,32.5615,0.0922,-0.1454,-0.1197,145.6562
10:09:47:080,-0.201,0.6559,14.3623,32.7655,-0.0501,-0.2792,-0.7129,145.6562
10:09:47:100,-1.5299,-0.7636,13.6128,32.8673,0.0635,-0.1558,-1.0305,145.7812
10:09:47:119,-2.4514,-1.7118,11.5253,33.1317,0.2388,0.2529,-0.9468,145.7812
10:09:47:140,-2.6384,-1.628,9.4783,33.4091,0.4349,0.5736,-0.4465,146.0312
10:09:47:160,-1.8003,-0.6105,8.4392,33.7514,0.5699,0.529,0.1997,146.0312
10:09:47:181,-0.5602,0.7564,8.5086,33.9923,0.6249,0.1894,0.5284,146.0312
10:09:47:200,0.4645,2.0471,8.511,34.2017,0.598,-0.1894,0.3347,146.4375
10:09:47:220,0.3066,1.8458,8.9779,34.287,0.4197,-0.3757,-0.2217,147.0625
10:09:47:241,-0.3736,1.0654,9.4735,34.5267,0.1662,-0.2297,-0.6713,147.0625
10:09:47:259,-1.1085,0.577,9.0879,34.9004,0.0024,-0.014,-0.9016,147.7031
10:09:47:281,-1.6543,0.201,8.298,35.14,-0.0519,0.0367,-0.9474,147.7031
10:09:47:300,-2.0853,0.122,7.5006,35.4361,-0.055,-0.0391,-0.8161,147.5781
10:09:47:319,-2.1595,0.2874,7.235,35.6122,-0.0611,-0.2193,-0.5711,147.5781
10:09:47:340,-1.9753,0.5267,7.6062,35.6025,-0.0568,-0.4111,-0.314,147.4531
10:09:47:360,-1.8051,0.7804,8.068,35.7479,-0.011,-0.2798,0.1014,147.4531
10:09:47:381,-1.9391,0.9553,8.2454,35.7878,-0.0525,-0.0263,0.2792,149.2031
10:09:47:399,-2.0997,1.1803,8.3172,35.8367,-0.1497,0.2004,0.4563,149.375
10:09:47:419,-2.1188,1.6424,8.6545,35.8186,-0.2462,0.2773,0.6377,150.75
10:09:47:439,-1.6974,2.1188,9.1167,36.0554,-0.2737,0.2596,0.7904,150.8906
10:09:47:460,-1.1109,2.6456,9.3203,35.898,-0.2132,0.2437,0.8295,150.1875
10:09:47:481,-0.5937,3.3039,8.875,35.9296,-0.1161,0.2126,0.7135,150.0781
10:09:47:499,-0.6799,3.4355,8.6139,36.1013,-0.0904,0.1423,0.4618,150.0781
10:09:47:519,-0.8139,3.2728,8.5995,36.2336,-0.1814,0.1503,0.2572,151.8125
10:09:47:539,-0.9721,3.2154,9.1454,36.5751,-0.3421,0.1747,0.1319,151.8125
10:09:47:559,-1.2377,3.0452,10.0816,36.6868,-0.4484,0.1423,0.0458,153.75
10:09:47:581,-1.209,2.5642,10.8308,36.8726,-0.4441,0.044,0.0079,153.75
10:09:47:600,-0.984,1.9753,11.7861,36.8505,-0.3616,-0.1295,0.0024,154.7812
10:09:47:620,-0.8453,1.3597,12.6,37.0455,-0.2431,-0.2107,0.014,154.7812
10:09:47:640,-0.5578,1.0439,12.6,37.1409,-0.1448,-0.0721,0.0654,154.8438
10:09:47:659,-0.146,1.142,12.3129,37.315,-0.1344,0.1942,0.1081,154.8438
10:09:47:681,0.1723,1.3573,12.0326,37.439,-0.2462,0.5015,0.0464,154.8438
10:09:47:700,0.4813,1.3884,12.1502,37.6313,-0.4129,0.6713,-0.1448,154.0312
10:09:47:719,0.4573,0.766,13.3065,37.8102,-0.5272,0.562,-0.4948,152.4062
10:09:47:741,-0.3975,-0.8859,14.5442,37.9963,-0.4484,0.3048,-0.8937,152.4062
10:09:47:760,-1.3932,-2.5618,14.6949,38.2009,-0.1484,0.1509,-1.0794,150.6562
10:09:47:782,-1.6711,-3.4666,12.9975,38.4475,0.2291,0.2449,-0.934,150.6562
10:09:47:801,-1.2568,-2.9806,10.6298,38.5202,0.5125,0.4154,-0.5571,149.8906
10:09:47:819,-0.146,-1.3932,8.4416,38.7437,0.6298,0.4746,-0.1985,149.8125
10:09:47:841,0.7612,0.1292,7.168,38.8209,0.5382,0.3665,-0.1484,149.5781
10:09:47:860,0.7995,0.7253,7.1225,39.0119,0.2999,0.2321,-0.3702,149.5625
10:09:47:884,-0.6607,0.1627,7.5461,39.3343,0.0183,0.025,-0.7507,149.5156
10:09:47:901,-1.0606,-0.012,7.8144,39.4211,-0.0147,-0.0916,-0.7177,149.5156
10:09:47:919,-1.3047,0.1603,8.2813,39.6543,-0.0434,-0.1576,-0.6121,149.4375
10:09:47:939,-1.1539,0.431,8.5732,39.6958,-0.0195,-0.19,-0.4777,149.4219
10:09:47:961,-0.8764,0.7804,8.5875,39.7449,0.025,-0.1594,-0.3757,149.2344
10:09:47:982,-0.8258,1.1444,8.3172,39.8106,0.033,-0.0556,-0.3299,149.2031
10:09:48:001,-0.9362,1.573,8.135,39.9236,-0.0257,0.0702,-0.3079,149.75
10:09:48:020,-1.0199,1.9558,8.2884,40.0062,-0.1258,0.1655,-0.2944,151.7188
10:09:48:039,-1.1276,2.1643,8.8271,40.0666,-0.2089,0.2083,-0.317,151.7188
10:09:48:060,-1.2736,2.0758,9.3658,40.143,-0.2181,0.2138,-0.3677,153.5781
10:09:48:083,-1.6304,1.7668,9.7846,40.041,-0.1503,0.1686,-0.4239,153.5781
10:09:48:102,-2.1787,1.4844,9.9117,40.2556,-0.0446,0.1106,-0.4251,153.5938
10:09:48:120,-2.5977,1.264,9.9691,40.5834,0.0635,0.0544,-0.328,154.0469
10:09:48:141,-2.7126,1.2688,9.8758,40.4958,0.1582,0.0257,-0.1411,154.0469
10:09:48:159,-2.5232,1.5754,9.5788,40.647,0.193,0.0715,0.077,155.1562
10:09:48:183,-2.4586,1.8649,9.696,40.7553,0.1564,0.0959,0.2254,156.7656
10:09:48:202,-2.77,1.8529,10.1342,40.7828,0.135,0.0428,0.3018,156.7656
10:09:48:221,-3.2249,1.5179,10.4767,40.8374,0.1759,-0.0568,0.3818,157.9844
10:09:48:242,-3.4834,1.1539,10.7112,41.0086,0.2431,-0.1545,0.5241,157.9844
10:09:48:259,-3.4738,1.1228,10.9651,41.0623,0.3121,-0.1985,0.7269,158.7812
10:09:48:283,-3.146,1.5491,10.6466,41.1978,0.3647,-0.1185,0.9505,158.7812
10:09:48:302,-2.3629,2.2098,10.0313,41.3242,0.292,0.069,1.1124,159.3594
10:09:48:321,-1.9968,2.4179,10.1988,41.5288,0.0678,0.1778,1.0763,159.4219
10:09:48:341,-2.0088,1.9968,11.1541,41.6019,-0.1051,0.0629,0.9016,160.0625
10:09:48:360,-1.9825,1.3262,12.2315,41.5607,-0.1387,-0.1252,0.7086,160.125
10:09:48:384,-2.6862,-0.4765,12.7654,41.981,0.1209,-0.0727,0.4392,160.9375
10:09:48:403,-2.6838,-0.711,10.8284,42.1631,0.306,0.201,0.5522,161.0312
10:09:48:420,-1.7453,-0.0191,8.9946,42.3701,0.2737,0.3861,0.7465,161.5156
10:09:48:441,-0.5195,0.6009,8.7027,42.3755,0.0312,0.3146,0.7495,161.5625
10:09:48:459,-0.1412,0.4023,9.574,42.7423,-0.2199,0.0892,0.4881,161.2969
10:09:48:485,-0.51,-0.5602,10.5461,42.8157,-0.2724,-0.1631,0.1771,161.2656
10:09:48:500,-0.6583,-1.209,10.4575,43.0432,-0.1344,-0.2633,0.0464,160.625
10:09:48:519,-0.5578,-1.2903,9.5812,43.3104,-0.0006,-0.1405,0.0678,159.375
10:09:48:540,-0.2512,-0.7971,8.5756,43.3842,0.0226,0.099,0.1484,159.375
10:09:48:559,0.3712,0.0598,7.7474,43.4785,-0.0024,0.2492,0.2077,157.0625
10:09:48:583,0.7493,0.8812,7.491,43.5494,-0.0079,0.1814,0.1319,157.0625
10:09:48:601,0.577,1.439,7.5078,43.881,0.0134,0.0098,-0.0605,157.0312
10:09:48:620,-0.0837,1.7596,7.7115,43.9779,0.0391,-0.1411,-0.2645,154.8594
10:09:48:641,-1.0726,1.9295,7.5894,44.1686,0.0605,-0.2309,-0.4025,154.8281
10:09:48:661,-1.6137,2.3222,7.5437,44.1019,0.0312,-0.3066,-0.4264,153.5
10:09:48:685,-1.7333,2.8442,7.9244,44.2762,-0.0965,-0.3543,-0.4251,153.4844
10:09:48:701,-2.0495,3.0957,8.7051,44.2938,-0.2816,-0.3696,-0.5088,152.4219
10:09:48:762,-2.4419,2.9782,9.5764,44.4133,-0.4087,-0.4459,-0.6365,150.7656
10:09:48:762,-2.8035,2.6192,10.3543,44.3961,-0.4087,-0.5919,-0.744,150.7656
10:09:48:763,-3.2154,1.9968,10.6849,44.2246,-0.3134,-0.6994,-0.7917,149.9844
10:09:48:781,-3.5839,1.4127,10.5987,44.174,-0.2034,-0.6884,-0.7281,149.9844
10:09:48:803,-3.8713,1.0774,10.5293,44.1562,-0.1527,-0.5742,-0.5443,149.875
10:09:48:819,-3.8282,1.1133,10.5461,44.459,-0.1576,-0.4306,-0.2804,149.875
10:09:48:842,-3.2034,1.4892,10.8595,44.5076,-0.1716,-0.3635,-0.0342,149.4844
10:09:48:860,-2.4754,1.7979,11.123,44.7652,-0.1368,-0.3683,0.0947,149.4531
10:09:48:883,-1.6161,1.884,11.3073,44.7851,0.1057,-0.3048,0.1112,149.3594
10:09:48:903,-0.7325,2.6743,10.4815,44.867,0.1753,0.0061,0.1258,149.3594
10:09:48:921,-0.5387,3.201,9.7654,45.2372,0.0421,0.3573,-0.0318,150.0469
10:09:48:941,-1.0798,2.6958,10.0935,45.508,-0.1374,0.4087,-0.3354,150.1094
10:09:48:959,-1.4174,1.9104,10.8643,45.7865,-0.1368,0.1307,-0.5559,151
10:09:48:986,-1.439,1.2497,11.4174,45.7647,-0.0421,-0.1063,-0.6738,151.0938
10:09:49:001,-1.3334,0.6105,11.6689,46.1645,-0.0367,-0.0489,-0.7367,152.2344
10:09:49:019,-1.5538,-0.0861,11.9848,46.3421,-0.1069,0.2474,-0.7611,153.9062
10:09:49:040,-1.9992,-0.7397,11.6043,46.5351,-0.0874,0.587,-0.6719,153.9062
10:09:49:060,-1.9777,-0.9194,10.5748,46.7867,0.0318,0.8057,-0.3989,155.5
10:09:49:083,-1.3741,-0.3162,9.3514,47.0856,0.1301,0.901,-0.0385,155.5
10:09:49:101,-0.6559,0.5363,8.4512,47.1899,0.1429,0.8918,0.2126,155.5
10:09:49:119,-0.3855,0.9242,7.8072,47.3107,0.0916,0.8369,0.2761,155.875
10:09:49:142,-0.7229,0.8163,7.3618,47.6023,0.0079,0.7868,0.2498,155.875
10:09:49:160,-1.1611,0.778,7.1847,47.8853,-0.0702,0.7196,0.2614,155.6719
10:09:49:182,-1.5658,0.8572,6.859,48.053,-0.1264,0.6451,0.328,155.6719
10:09:49:202,-1.8314,0.9242,6.6724,48.3832,-0.2291,0.551,0.4288,155.4375
10:09:49:219,-1.9008,0.7971,7.5341,48.7191,-0.3671,0.3586,0.5412,155.7969
10:09:49:242,-1.6663,0.8306,8.9587,49.009,-0.4074,0.1155,0.6744,155.7969
10:09:49:260,-1.3932,1.0415,9.9691,49.4614,-0.2987,-0.014,0.7996,157.1406
10:09:49:283,-0.9529,1.4629,9.9954,49.637,-0.1729,0.102,0.8979,157.1406
10:09:49:302,-0.6823,1.8721,9.7319,49.8555,-0.1686,0.3708,0.9126,158.7656
10:09:49:320,-1.2305,1.7381,9.5692,49.8135,-0.2309,0.5821,0.8387,158.7656
10:09:49:341,-2.059,1.1874,9.2387,49.9629,-0.2395,0.5919,0.8173,159.7969
10:09:49:359,-2.5522,0.833,8.9468,50.328,-0.1979,0.4001,0.9242,159.9062
10:09:49:385,-1.7261,1.386,9.6242,50.4746,-0.1753,-0.1387,1.3231,159.7031
10:09:49:406,-1.1563,1.8769,10.0433,50.4222,-0.1729,-0.2407,1.427,159.6875
10:09:49:421,-0.6966,2.193,10.3735,50.6186,-0.1881,-0.234,1.4423,159.125
10:09:49:441,-0.5626,2.3988,10.7447,50.8051,-0.2034,-0.204,1.3904,159.0625
10:09:49:459,-0.5339,2.4969,11.0106,50.9748,-0.1607,-0.2266,1.3182,158.4062
10:09:49:486,-0.5602,2.6504,10.9193,51.2645,-0.0574,-0.2926,1.2528,158.3438
10:09:49:500,-0.6176,2.8059,10.625,51.4939,0.044,-0.3726,1.1924,157.2812
10:09:49:519,-0.6535,2.8705,10.3472,51.6923,0.0928,-0.4514,1.1307,155.625
10:09:49:541,-0.8186,2.715,10.4767,51.8458,0.0715,-0.5369,1.05,155.625
10:09:49:559,-1.3334,2.1284,11.1159,52.2286,0.0495,-0.664,0.9627,153.6094
10:09:49:584,-2.0303,1.4222,11.7861,52.4533,0.0965,-0.7648,0.9486,153.6094
10:09:49:602,-2.1715,1.0678,11.9201,53.0932,0.1619,-0.6903,1.0836,153.4219
10:09:49:620,-1.2664,1.5514,11.5804,53.5557,0.1057,-0.3989,1.2871,151.5
10:09:49:641,-0.3066,2.2193,11.6665,53.8491,-0.1063,-0.1069,1.3017,151.4844
10:09:49:659,-0.4836,1.9944,12.2172,54.2476,-0.3164,-0.0098,1.0177,149.1719
10:09:49:686,-1.5921,0.833,12.5976,54.502,-0.3512,-0.1185,0.6518,149.1562
10:09:49:701,-2.5714,-0.3233,11.9225,54.7144,-0.1991,-0.2327,0.4832,146.125
10:09:49:720,-2.7102,-0.5578,10.4169,54.9741,-0.0409,-0.223,0.5766,142.9688
10:09:49:740,-1.8577,0.0335,9.0305,55.1626,-0.0336,-0.1668,0.7422,142.9688
10:09:49:759,-0.5913,0.7062,8.2837,55.3383,-0.1784,-0.1741,0.7397,140.125
10:09:49:786,0.1268,0.8788,8.1975,55.5129,-0.3427,-0.2926,0.5027,140.125
10:09:49:800,0.2512,0.5602,8.2813,55.646,-0.383,-0.4807,0.1643,137.6094
10:09:49:820,0.0646,0.1986,7.9484,55.676,-0.2914,-0.617,-0.1252,137.6094
10:09:49:842,-0.1364,-0.0359,7.4671,55.815,-0.1662,-0.6548,-0.314,135.6562
10:09:49:860,-0.0837,-0.0335,7.3259,56.2175,-0.1399,-0.5565,-0.4197,135.4688
10:09:49:882,-0.1866,-0.0048,8.1568,56.4203,-0.2199,-0.3567,-0.5192,133.5156
10:09:49:903,-0.7445,-0.297,8.8295,56.805,-0.2333,-0.1173,-0.6127,133.3281
10:09:49:922,-1.6543,-0.577,8.6689,56.8381,-0.0641,0.2926,-0.3518,130.7656
10:09:49:944,-1.7453,-0.5937,8.4942,57.1117,-0.0452,0.5174,-0.058,130.5156
10:09:49:959,-1.561,0.3018,8.0417,57.3369,-0.1319,0.7953,0.2364,128.7969
10:09:49:981,-1.0175,1.6926,8.5612,57.5951,-0.2358,0.8417,0.3922,127.5625
10:09:50:002,-0.7875,2.0806,8.6689,57.8875,-0.2333,0.7666,0.3335,127.5625
10:09:50:019,-0.5052,1.9606,8.5062,58.2415,-0.1894,0.5901,0.2413,125.9844
10:09:50:040,-0.3951,2.1308,9.1238,58.4658,-0.2022,0.3476,0.1417,125.9844
10:09:50:059,-0.486,1.9657,10.1581,58.5776,-0.2492,0.1869,0.0153,125.8438
10:09:50:084,-0.4501,1.8649,11.0943,58.8611,-0.2816,0.1875,-0.0623,125.1719
10:09:50:102,-0.1005,2.0614,11.3719,58.9605,-0.2651,0.2682,-0.0922,125.0938
10:09:50:120,0.0191,2.1165,11.2594,59.1105,-0.2352,0.2761,-0.1704,125.6094
10:09:50:140,-0.2058,1.8912,11.3097,59.5178,-0.2596,0.1741,-0.2798,125.6094
10:09:50:161,-0.4214,1.5706,11.9417,59.6828,-0.3592,0.0428,-0.3537,126.6562
10:09:50:183,-0.0215,1.6232,12.7128,59.8922,-0.4673,-0.0134,-0.3769,126.6719
10:09:50:202,0.4741,1.3573,13.4022,60.2736,-0.5382,-0.0061,-0.4673,127.9688
10:09:50:219,0.7851,0.8572,14.039,60.5814,-0.6218,0.1106,-0.6744,128.3906
10:09:50:241,0.3233,0.0407,14.7571,60.683,-0.6756,0.2663,-0.9761,128.3906
10:09:50:259,-1.0965,-1.1946,15.023,60.9457,-0.5272,0.3439,-1.2522,127.6562
10:09:50:285,-2.1882,-1.9848,13.9074,61.211,-0.1093,0.3512,-1.2742,127.6562
10:09:50:301,-2.071,-2.1858,11.391,61.3837,0.3897,0.3115,-1.0183,126.9531
10:09:50:320,-1.0319,-1.8697,9.3299,61.5437,0.6689,0.1472,-0.7348,126.9531
10:09:50:341,-0.1316,-1.4318,9.0999,61.5873,0.7025,-0.1771,-0.6878,126.75
10:09:50:360,0.3473,-1.2975,9.5333,61.4076,0.642,-0.4087,-0.8515,126.7344
10:09:50:383,0,-1.3621,9.8973,61.2721,0.5815,-0.383,-1.1014,126.8438
10:09:50:402,-0.8596,-1.4079,9.1454,61.1985,0.5766,-0.0727,-1.2706,126.8594
10:09:50:420,-1.5347,-1.3143,7.2757,61.194,0.5815,0.3476,-1.2461,127.2656
10:09:50:443,-2.3151,-0.6535,4.5176,61.3139,0.2321,0.5247,-0.8662,127.2969
10:09:50:460,-2.394,-0.0981,5.3052,61.1042,-0.0116,0.1191,-0.6677,127.9688
10:09:50:481,-2.083,0.4525,7.1225,61.0378,-0.1564,-0.3066,-0.5125,129.0938
10:09:50:501,-1.5993,0.8955,8.5516,60.9387,-0.1723,-0.4337,-0.408,129.0938
10:09:50:520,-1.264,1.1324,9.2483,60.9485,-0.1142,-0.2694,-0.3598,131.3438
10:09:50:541,-1.3932,1.2233,9.1549,61.1392,-0.0434,-0.0128,-0.3415,131.3438
10:09:50:559,-1.7931,1.2185,9.1382,61.2609,0.0367,0.08,-0.292,131.5625
10:09:50:584,-1.9463,1.1707,9.3132,61.2244,0.146,0.0067,-0.1771,133.9062
10:09:50:601,-1.9534,1.1803,9.3993,60.9606,0.2663,-0.124,-0.0104,134.125
10:09:50:619,-1.5993,1.4533,9.8662,60.9374,0.3659,-0.2981,0.1863,135.8281
10:09:50:640,-0.9458,2.0183,10.4862,61.1044,0.4465,-0.383,0.3518,135.8438
10:09:50:660,-0.4286,2.5594,11.0297,61.2502,0.5088,-0.3305,0.3952,138.0625
10:09:50:684,-0.2752,2.8178,11.0848,61.1054,0.5382,-0.1588,0.3103,138.0781
10:09:50:701,-0.6488,2.6145,10.8763,60.944,0.4985,0.0214,0.1466,140.9375
10:09:50:720,-1.4222,1.908,11.3575,60.6497,0.4471,-0.0098,-0.0153,143.1406
10:09:50:741,-1.896,1.2209,11.9656,60.3446,0.4942,-0.2566,-0.0782,143.1406
10:09:50:760,-2.4227,0.8378,12.9497,60.4768,0.5901,-0.4887,-0.0458,144.4375
10:09:50:785,-3.2704,0.8979,12.7391,60.4222,0.6945,-0.2761,0.1674,144.4375
10:09:50:846,-2.9782,1.0271,11.001,59.9665,0.6896,0.1429,0.6518,145.2656
10:09:50:846,-1.0415,1.8123,11.0345,59.5361,0.4019,0.1674,1.1111,145.2656
10:09:50:847,0.7038,2.4754,13.6415,59.4018,0.1081,-0.2572,0.9755,145.9688
10:09:50:859,-0.5171,1.2688,14.9225,58.8226,0.2382,-0.5809,0.3402,145.9688
10:09:50:886,-1.5299,0.1125,13.4644,58.7369,0.606,-0.6249,0.0208,146.1875
10:09:50:901,-1.6974,-0.2273,11.2379,58.6071,0.7862,-0.4337,0.0733,146.2031
10:09:50:919,-1.1587,0.213,9.5453,58.0232,0.6854,-0.2468,0.3024,145.7344
10:09:50:942,0.0239,1.3286,7.8766,57.7489,0.1576,-0.2749,0.3824,145.6875
10:09:50:960,0.5506,1.2568,8.3746,57.4353,-0.0672,-0.3683,0.2376,145.0625
10:09:50:982,0.9482,1.3502,9.0114,56.9944,-0.2022,-0.3891,0.0611,145
10:09:51:002,0.8764,1.1898,9.5596,56.7135,-0.2223,-0.3274,-0.1857,144.9219
10:09:51:019,0.201,0.7421,8.9276,56.7214,-0.1301,-0.113,-0.4288,144.9219
10:09:51:039,-0.4549,0.2536,7.4767,56.3711,0.0244,0.0599,-0.5302,145.125
10:09:51:059,-0.862,0.0335,6.3873,56.2254,0.1234,0.0189,-0.452,145.1562
10:09:51:083,-0.9553,0.1077,5.9806,56.2541,0.1203,-0.1038,-0.2523,144.4375
10:09:51:102,-1.2209,0.201,4.1847,55.8549,0.0379,-0.0538,0.047,144.3594
10:09:51:120,-1.1611,0.8692,3.4499,55.5729,-0.2419,-0.0861,0.463,142.3125
10:09:51:140,0.28,2.0207,6.9212,55.6117,-0.7184,-0.4337,0.8033,142.1094
10:09:51:159,1.3454,2.9734,10.5437,55.4483,-0.9358,-0.4771,0.7446,141.8281
10:09:51:185,1.3645,3.335,11.391,55.2005,-0.6762,-0.1185,0.3763,141.8125
10:09:51:201,0.8019,3.0093,9.9069,55.0294,-0.1723,0.1014,-0.0134,141.5312
10:09:51:220,0.5674,2.8011,9.1549,54.7855,0.1607,-0.0024,-0.2266,140.6719
10:09:51:241,0.7038,2.9495,9.7415,54.5298,0.2425,-0.1222,-0.2932,140.6719
10:09:51:259,1.1228,3.1244,10.4958,54.4098,0.2016,-0.0886,-0.3451,140.4062
10:09:51:286,1.2209,3.2536,10.3137,54.3716,0.1704,0.0794,-0.4429,140.4062
10:09:51:302,1.2903,3.1675,10.3161,54.222,0.1387,0.1191,-0.5724,141.1094
10:09:51:319,0.9912,2.7461,10.6442,53.7477,0.0965,0.0086,-0.755,141.1094
10:09:51:341,0.4621,2.1571,11.5756,53.5657,0.058,-0.1949,-0.9358,142.1719
10:09:51:359,0.0144,1.7357,13.0095,53.3925,0.1185,-0.441,-1.0085,142.1719
10:09:51:381,-0.297,1.4462,13.1698,53.1137,0.3115,-0.4508,-0.8576,142.4062
10:09:51:401,0.0837,1.1468,11.9297,53.0378,0.4624,-0.1588,-0.4679,142.4219
10:09:51:419,0.5243,1.5897,11.4437,52.721,0.3867,0.0373,-0.1142,141.2031
10:09:51:442,0.929,1.6137,11.3958,52.4673,-0.1869,0.0947,-0.3079,141.0781
10:09:51:461,1.0008,0.9697,11.7072,52.2634,-0.3799,-0.014,-0.6463,139.9688
10:09:51:486,0.0455,-0.4143,11.9201,52.2767,-0.3854,-0.0715,-0.7923,140.0781
10:09:51:501,-0.2201,-0.6344,10.8165,52.3215,-0.193,-0.0617,-0.6451,140.0781
10:09:51:520,0.3568,-0.2704,9.2701,52.3255,0.0556,-0.0489,-0.3134,140.1094
10:09:51:540,1.0534,0.352,8.2573,52.1545,0.1503,-0.066,-0.0452,140.7656
10:09:51:559,1.1683,0.9027,8.2071,51.9819,0.0421,-0.0654,0,140.8281
10:09:51:584,0.632,1.1492,8.0321,52.133,-0.149,0.0666,-0.1032,141.8281
10:09:51:600,0.1962,1.1444,7.6445,52.1673,-0.3005,0.2187,-0.1729,141.9219
10:09:51:620,-0.0646,1.2377,7.3259,52.1052,-0.3543,0.2596,-0.1466,143.625
10:09:51:639,-0.0933,1.3813,7.357,52.1068,-0.3024,0.1888,-0.0525,143.7969
10:09:51:660,-0.0957,1.7142,7.3116,51.8961,-0.1649,0.1045,0.0629,145.9219
10:09:51:685,0.28,2.2074,7.2948,51.8092,-0.0238,0.0354,0.1643,145.9375
10:09:51:701,0.7923,2.4036,7.5437,51.7989,0.044,0.022,0.2114,146.5938
10:09:51:719,0.7995,2.569,8.0847,51.5702,-0.0098,0.1271,0.1833,146.9844
10:09:51:741,0.833,2.7748,9.0066,51.4494,-0.0922,0.2101,0.1026,146.9844
10:09:51:759,0.9194,2.8202,9.9284,51.3803,-0.1087,0.2627,0.0006,148.5469
10:09:51:782,0.8812,2.691,10.1222,51.3794,-0.0238,0.35,-0.102,148.5469
10:09:51:801,0.8354,2.6216,10.4504,51.2696,0.1191,0.3378,-0.1319,149.6094
10:09:51:819,0.6511,2.7508,10.3304,51.3352,0.2975,0.2889,-0.1057,149.6094
10:09:51:841,0.2728,2.8513,10.005,51.1968,0.46,0.171,-0.0825,149.6875
10:09:51:859,0.2898,2.8418,9.7582,51.2339,0.4997,0.0519,-0.0324,149.6875
10:09:51:881,0.7397,2.8155,10.4169,51.1444,0.3512,-0.077,-0.0018,149.9375
10:09:51:902,0.8668,3.026,12.1095,51.2537,0.1649,-0.1686,-0.088,149.9688
10:09:51:919,-0.2946,3.05,13.2802,51.3263,0.1454,-0.1191,-0.2291,150.125
10:09:51:941,-0.8477,2.6312,12.2554,51.4335,0.2199,0.1497,-0.2138,150.1406
10:09:51:961,-1.0367,1.9534,12.5282,51.3598,0.2059,0.2401,-0.0819,149.9062
10:09:51:984,-0.8644,1.398,12.8013,51.4272,0.0641,0.0421,0.0342,149.8906
10:09:52:003,-1.2975,1.0558,13.0525,51.532,0.1173,-0.0305,-0.091,149.4844
10:09:52:019,-1.8482,0.7373,11.834,51.7584,0.2443,0.1613,-0.1533,149.4531
10:09:52:039,-2.0303,0.6368,9.8375,52.0827,0.3494,0.405,-0.0806,149.3125
10:09:52:060,-1.5634,0.7253,8.0967,52.1171,0.3018,0.4887,0.0782,149.2969
10:09:52:084,-0.7899,0.9888,7.3235,52.547,0.0776,0.3677,0.1668,149.4844
10:09:52:101,-0.3018,1.3406,7.6971,52.5364,-0.223,0.1747,0.0953,149.5156
10:09:52:121,-0.3377,1.2879,8.2908,52.7761,-0.471,0.0922,-0.1106,149.6875
10:09:52:141,-0.6153,1.0343,8.286,52.7148,-0.5986,0.1692,-0.3079,149.7031
10:09:52:160,-0.7253,0.8883,7.855,52.8895,-0.6273,0.3036,-0.383,149.7812
10:09:52:185,-0.8788,0.8043,7.448,52.8404,-0.6023,0.3671,-0.3977,149.7812
10:09:52:201,-1.2784,0.7134,7.4815,53.2557,-0.5443,0.3085,-0.4032,150.1562
10:09:52:220,-1.7022,0.6607,7.5126,53.3965,-0.4478,0.2046,-0.3683,150.4688
10:09:52:242,-1.9223,0.6751,7.8311,53.3269,-0.3225,0.0654,-0.2431,150.4688
10:09:52:260,-1.9032,1.0247,7.9484,53.5963,-0.2138,0.0452,-0.011,150.375
10:09:52:285,-1.5921,1.6304,7.6158,53.783,-0.1668,0.1466,0.2541,150.375
10:09:52:301,-1.1683,2.1954,7.5269,54.1064,-0.2205,0.1802,0.4276,150.6406
10:09:52:319,-0.577,2.4251,8.8582,54.2114,-0.35,0.0122,0.4154,150.6406
10:09:52:341,-0.7588,2.3079,11.1446,54.3928,-0.3793,-0.1985,0.2407,150.5781
10:09:52:359,-1.5682,1.951,11.8173,54.3828,-0.1875,-0.1417,0.1191,150.5781
10:09:52:383,-1.9175,1.9199,10.7207,54.6361,0.099,0.0733,0.2443,150.2344
10:09:52:401,-1.4749,2.3007,9.9739,54.5787,0.2651,0.1613,0.5382,150.2344
10:09:52:421,-0.7684,2.8513,10.0768,54.7245,0.2627,0.0922,0.7458,150.5781
10:09:52:441,-0.0383,3.4164,10.9026,54.9195,0.149,-0.0189,0.7513,150.6094
10:09:52:459,0.1196,3.5073,12.4205,54.9739,0.0183,-0.1185,0.5412,151.2656
10:09:52:486,0.2321,3.0595,13.6726,55.2176,0.0391,0.0202,0.0806,151.3281
10:09:52:501,0.7349,2.1212,15.248,55.3756,0.1839,0.2987,-0.0055,152.0156
10:09:52:519,-0.5794,0.7469,15.7364,55.4939,0.3812,0.7129,0.0006,152.0938
10:09:52:539,-0.874,0.2249,14.0581,55.5251,0.5595,0.813,-0.0055,152.2969
10:09:52:559,-0.7828,-0.1484,13.043,55.6914,0.6744,0.5149,-0.1014,152.3281
10:09:52:585,-0.28,0.0837,11.9417,55.7595,0.7367,0.3366,-0.1582,151.6094
10:09:52:600,0.699,0.4789,10.4097,55.7426,0.7874,0.3354,-0.179,151.5312
10:09:52:620,1.319,0.4956,8.5516,56.017,0.8063,0.3244,-0.3115,150.8281
10:09:52:639,1.3023,0.012,7.1465,56.0824,0.678,0.2114,-0.5211,150.7656
10:09:52:659,0.7564,-0.2273,6.8806,56.4036,0.3683,0.0751,-0.6848,150.3594
10:09:52:683,-0.1292,-0.2273,6.9763,56.5793,0.0189,0.0654,-0.7819,150.3594
10:09:52:701,-0.8835,-0.0837,6.9045,56.9206,-0.2291,0.1613,-0.7507,148.9844
10:09:52:719,-1.4198,0.2441,6.4714,57.0476,-0.3402,0.2498,-0.5864,147.5781
10:09:52:741,-1.6184,0.6942,6.3754,57.2411,-0.3476,0.1765,-0.3482,147.5781
10:09:52:759,-1.5514,1.1204,6.8279,57.6266,-0.2822,-0.0061,-0.1234,147.2031
10:09:52:786,-1.4318,1.3956,7.3068,57.9123,-0.1466,-0.1527,0.0476,147.2031
10:09:52:802,-1.3047,1.5084,7.558,58.3733,0.0287,-0.2144,0.2107,147.1875
10:09:52:819,-0.9817,1.8793,7.9268,58.4761,0.1747,-0.2126,0.3824,147.1875
10:09:52:842,-0.7349,2.7843,7.9819,58.5215,0.2853,-0.1307,0.4771,147.3125
10:09:52:905,-0.4238,3.8617,7.6134,58.5141,0.3647,-0.0428,0.4038,147.3125
10:09:52:905,-0.4023,4.2712,7.6062,59.0459,0.3176,-0.0257,0.1558,147.7812
10:09:52:906,-0.4693,4.1752,7.9292,59.2972,0.1405,0.0305,-0.0996,147.7812
10:09:52:920,-0.9817,3.8785,9.0401,59.3693,-0.0544,0.0782,-0.2938,148.7188
10:09:52:940,-2.1212,3.4307,10.06,59.5961,-0.1234,0.1075,-0.3922,148.8125
10:09:52:959,-3.1077,2.9423,10.5221,59.4777,-0.0373,0.0702,-0.3066,150.2969
10:09:52:986,-3.3039,2.6886,10.8045,59.6662,0.11,-0.0519,-0.0385,150.4375
10:09:53:003,-2.4156,3.6751,11.3862,59.7304,0.1594,-0.0757,0.5773,151.6875
10:09:53:020,-1.8147,4.4889,11.0465,59.9757,0.0599,0.0599,0.6823,151.8125
10:09:53:040,-1.2903,4.6062,11.1637,59.79,-0.1155,0.0379,0.5644,152.2031
10:09:53:059,-1.3836,4.0651,12.2842,59.9917,-0.3561,-0.1545,0.2816,152.25
10:09:53:083,-2.0901,2.9088,13.4142,60.2155,-0.5174,-0.4587,-0.0806,152.0156
10:09:53:100,-2.4036,1.6161,14.4963,60.1012,-0.5046,-0.8344,-0.3971,151.9844
10:09:53:120,-3.1842,0.6248,13.8428,60.1634,-0.2963,-0.8424,-0.5467,151.2188
10:09:53:139,-3.6461,0.2874,11.98,60.1123,0.0605,-0.6817,-0.3372,151.1406
10:09:53:160,-3.2177,0.4454,9.4902,60.3642,0.3604,-0.6628,0.1222,150.6406
10:09:53:184,-2.0351,0.8764,7.7833,60.2472,0.4526,-0.981,0.4868,150.5938
10:09:53:201,-0.7421,1.2329,7.8861,60.5217,0.3103,-1.4679,0.6035,151.0156
10:09:53:221,0.2034,1.573,8.7123,60.5337,0.047,-1.6353,0.5699,151.75
10:09:53:240,0.3497,1.9175,9.0664,60.4709,-0.1686,-1.3464,0.4636,151.75
10:09:53:259,0.5865,2.1165,8.9133,60.4946,-0.2706,-0.8986,0.383,151.5156
10:09:53:284,0.8043,2.2816,8.3363,60.7072,-0.2785,-0.5033,0.3183,151.5156
10:09:53:301,0.8501,2.1835,7.654,60.9382,-0.2621,-0.2388,0.2101,150.1719
10:09:53:320,0.7732,2.0686,7.2589,60.9851,-0.2517,-0.1344,0.0794,150.1719
10:09:53:341,0.6272,2.016,7.3522,61.1124,-0.2437,-0.0977,-0.0385,149.2031
10:09:53:360,0.486,1.7429,7.5628,60.792,-0.2541,0.0012,-0.1637,149.2031
10:09:53:383,0.1268,1.4318,7.6397,60.7227,-0.2633,0.1203,-0.3036,149.7344
10:09:53:401,-0.1268,1.3478,7.8215,60.7563,-0.2498,0.1942,-0.3671,149.7344
10:09:53:420,-0.2321,1.3621,7.7378,60.8792,-0.2315,0.2688,-0.306,150.7188
10:09:53:441,-0.1507,1.6735,8.0895,60.8189,-0.2242,0.2327,-0.1863,150.8125
10:09:53:460,-0.0455,1.9271,8.7601,60.7137,-0.2321,0.2462,-0.1209,150.4219
10:09:53:486,-0.3975,2.1236,9.5764,60.5177,-0.1497,0.3806,-0.1277,150.375
10:09:53:504,-0.3425,2.3629,11.47,60.5926,-0.0275,0.1851,-0.0324,149.5156
10:09:53:521,0.3975,2.7843,13.4883,60.7503,0.1723,0.2327,0.1338,149.4219
10:09:53:540,1.1396,3.2106,14.2496,60.7798,0.4172,0.5632,0.2034,148.7812
10:09:53:559,0.6583,3.1292,12.588,60.942,0.6524,0.7923,0.0684,148.7031
10:09:53:579,0.2154,2.6695,11.3073,60.8895,0.7605,0.4563,-0.1655,148.2344
10:09:53:600,0.4334,2.1117,10.9436,60.8171,0.6304,0.0733,-0.3152,148.2031
10:09:53:620,0.1196,2.0183,10.7351,60.8668,0.2932,0.0476,-0.314,148.1719
10:09:53:639,0.146,1.7477,11.1948,61.2647,-0.1582,0.1582,-0.2431,148.1719
10:09:53:659,0.0024,1.3956,12.1143,61.3545,-0.54,0.2504,-0.2785,148.625
10:09:53:680,-0.4549,1.0654,12.6721,61.4525,-0.7013,0.3109,-0.3971,148.6719
10:09:53:701,-0.5602,0.6751,12.6266,61.504,-0.6469,0.3011,-0.4917,149.375
10:09:53:720,-0.5291,0.2752,11.8436,61.2506,-0.438,0.2645,-0.5614,149.6719
10:09:53:741,-0.3544,0.2297,10.7423,61.2151,-0.1576,0.1527,-0.5449,149.6719
10:09:53:760,0.2512,0.4813,9.6553,61.1934,0.1032,-0.0189,-0.43,149.9062
10:09:53:786,0.8812,0.9194,9.2578,61.3023,0.2162,-0.1637,-0.3097,149.9062
10:09:53:800,1.1755,1.3071,9.2219,61.296,0.1686,-0.1271,-0.2969,149.7656
10:09:53:819,0.821,1.4222,8.7434,61.1663,0.0696,0.1136,-0.4099,149.7656
10:09:53:842,0.1962,1.3382,8.0369,61.3111,-0.0305,0.3879,-0.5369,149.3906
10:09:53:860,-0.4765,1.2066,7.3116,61.2674,-0.1197,0.5858,-0.5809,149.3906
10:09:53:886,-1.1372,1.1468,7.0627,61.3997,-0.1527,0.5827,-0.518,149.9219
10:09:53:902,-1.3119,1.3884,7.113,61.5916,-0.0702,0.3677,-0.3702,149.9219
10:09:53:919,-0.8644,1.9175,7.1082,61.559,0.1203,0.069,-0.2022,150.4688
10:09:53:941,-0.5387,2.4921,6.9284,61.3505,0.3018,-0.1643,-0.1118,150.5156
10:09:53:960,-0.2656,2.636,6.8399,60.8834,0.3097,-0.2596,-0.1246,151.0938
10:09:53:986,-0.1005,2.4969,7.5509,60.9543,0.1478,-0.2425,-0.2016,151.1562
10:09:54:002,-0.3329,2.4108,8.2645,60.8921,-0.0244,-0.1155,-0.2816,152.1094
10:09:54:022,-0.8378,2.2935,9.6027,60.7197,0.0501,-0.0367,-0.1814,152.2031
10:09:54:042,-0.7445,2.5666,9.6673,60.6202,0.2492,-0.0043,-0.0385,153.1719
10:09:54:059,-0.6535,3.1819,9.9428,60.3013,0.3812,-0.0177,0.077,153.2656
10:09:54:080,-0.4071,3.5839,10.3663,60.2109,0.3335,0.0409,0.1185,153.9219
10:09:54:103,-0.4884,3.4499,10.4839,59.7794,0.1692,0.1839,0.0391,153.9844
10:09:54:119,-0.8306,2.9088,11.2762,59.8275,-0.0202,0.1979,-0.0745,154.9062
10:09:54:141,-1.319,2.5307,12.1741,59.3913,-0.0874,0.1277,-0.1374,155
10:09:54:160,-1.8051,2.3438,12.0278,58.8728,-0.0183,0.0464,-0.0702,156
10:09:54:180,-1.4892,2.2313,12.6239,58.6505,0.0281,-0.1894,0.149,156.0938
10:09:54:201,-0.5698,2.339,13.4357,58.3324,0.066,-0.3635,0.328,156.7031
10:09:54:220,-0.3449,2.0686,13.3017,57.996,0.1387,-0.3842,0.3115,157.0625
10:09:54:242,-0.8306,1.5969,13.1124,57.6015,0.2199,-0.4294,0.1912,157.0625
10:09:54:259,-1.5251,1.3382,11.9034,57.7878,0.3152,-0.2889,0.1411,157.625
10:09:54:280,-1.7453,1.2688,10.151,57.4321,0.3409,-0.0391,0.2437,157.625
10:09:54:301,-1.5873,1.3549,9.131,57.2422,0.2382,0.0489,0.3781,158.1406
10:09:54:320,-1.1563,1.3502,8.8032,57.2281,0.0733,-0.0574,0.4111,158.1406
10:09:54:341,-0.8258,1.2185,9.1167,57.0141,-0.0757,-0.2663,0.3176,158.1406
10:09:54:360,-0.6607,1.1204,9.7463,56.8271,-0.1619,-0.4398,0.1973,158.1406
10:09:54:386,-0.6488,1.252,9.5285,56.8236,-0.1735,-0.3793,0.157,158
10:09:54:401,-0.5602,1.3358,8.796,56.6683,-0.1631,-0.1979,0.1979,158
10:09:54:420,-0.4597,1.3693,7.9914,56.4177,-0.1649,-0.0244,0.2468,158.1875
10:09:54:441,-0.3784,1.3525,7.5894,56.2934,-0.1778,0.0538,0.2645,158.1875
10:09:54:460,-0.4286,1.1922,7.3522,56.0011,-0.1686,0.0483,0.2309,158.125
10:09:54:486,-0.6105,1.2497,7.2446,55.7387,-0.1173,-0.0232,0.2162,158.1094
10:09:54:501,-0.4908,1.5873,7.1058,55.5839,-0.0403,-0.0556,0.2914,157.5625
10:09:54:522,-0.2608,2.083,7.0531,55.345,0.0165,-0.0593,0.4514,157.5
10:09:54:543,0.0742,2.4371,6.993,55.0252,-0.0336,-0.0715,0.4471,157.25
10:09:54:560,0.8716,3.0835,7.9268,54.7152,-0.1203,-0.1228,0.3708,157.2344
10:09:54:579,1.1061,3.2225,8.9204,54.4117,-0.1729,-0.2352,0.1997,156.6562
10:09:54:600,0.9218,3.1364,10.0361,53.9574,-0.1429,-0.3457,-0.0128,156.5938
10:09:54:621,0.5889,3.1436,10.6202,53.7642,-0.036,-0.2529,-0.1338,155.8906
10:09:54:640,0.3353,3.4211,10.084,53.5043,0.1038,0.0067,-0.124,155.8281
10:09:54:660,0.2632,3.3996,9.6888,52.9495,0.1429,0.1924,-0.0544,155.5156
10:09:54:684,0.5889,2.9638,10.4575,52.6784,0.0623,0.1552,-0.0153,155.4844
10:09:54:701,0.9099,2.4443,12.1382,52.4452,-0.0202,-0.1625,-0.0892,155.0469
10:09:54:719,1.1085,1.5706,13.6965,52.2246,-0.0232,-0.5363,-0.3005,154.4375
10:09:54:741,0.3999,0.9984,14.1945,51.9328,0.0605,-0.5864,-0.4154,154.4375
10:09:54:759,0.3281,1.1276,12.9162,51.6862,0.1093,-0.1319,-0.0861,153.875
10:09:54:785,1.3621,2.0399,11.8268,51.4846,-0.0202,0.4722,0.4606,153.875
10:09:54:801,2.5642,2.3605,11.4197,51.092,-0.2504,0.7214,0.62,152.9531
10:09:54:819,2.1835,1.7237,12.4445,51.0371,-0.3384,0.595,0.2474,152.9531
10:09:54:840,0.1627,0.7516,11.8938,50.6629,-0.0483,0.3702,-0.2798,152.0625
10:09:54:859,0.1029,0.5554,10.9843,50.5248,0.2639,-0.0647,-0.35,152.0625
10:09:54:882,1.8505,0.8668,10.5389,50.2837,0.3244,-0.1607,-0.1949,151.9062
10:09:54:902,2.581,1.4318,8.499,50.0373,0.2456,0.157,-0.2486,151.9062
10:09:54:934,3.2608,1.992,8.3435,49.893,0.0098,0.0666,-0.4227,152.2031
10:09:54:989,3.4283,2.0806,9.9476,49.592,-0.2175,-0.2052,-0.7281,152.2031
10:09:54:989,2.4538,1.7596,9.883,49.4549,-0.2627,-0.0379,-1.0904,152.25
10:09:54:990,1.3693,1.398,8.5899,49.3318,-0.2511,0.3647,-1.2657,152.25
10:09:55:021,0.7445,1.2018,7.4599,49.4852,-0.2706,0.6475,-1.2602,152.7031
10:09:55:021,0.2827,1.0152,7.0149,49.0369,-0.2926,0.656,-1.2455,152.7344
10:09:55:043,-0.1986,0.929,7.089,48.9826,-0.237,0.43,-1.2486,153.2969
10:09:55:059,-0.2827,1.1252,7.587,48.8894,0.0446,0.0018,-1.0507,153.3594
10:09:55:080,-0.2512,1.5754,7.6086,48.8796,0.1142,0.0336,-0.8876,152.1875
10:09:55:103,-0.1172,1.9777,7.7043,48.8855,0.1246,0.099,-0.7513,152.0781
10:09:55:121,-0.0096,2.1667,8.0321,48.6448,0.099,0.0935,-0.6988,152
10:09:55:139,-0.1196,2.3653,8.4703,48.506,0.088,0.0232,-0.6964,152
10:09:55:160,-0.0861,2.4993,9.3132,48.1214,0.0965,-0.0751,-0.6848,152.5781
10:09:55:180,-0.0909,2.581,10.2467,47.8934,0.1338,-0.1179,-0.667,152.6406
10:09:55:203,-0.3688,2.6671,10.6777,47.6532,0.2205,-0.0996,-0.6347,153.2969
10:09:55:220,-0.5626,2.703,10.5867,47.1509,0.3158,-0.0635,-0.5449,155.3594
10:09:55:241,-0.3879,2.8394,10.5341,46.8188,0.3311,-0.0409,-0.4032,155.3594
10:09:55:260,0.201,2.9375,11.0536,46.6014,0.2529,-0.0849,-0.3005,158.0156
10:09:55:287,0.4382,2.8681,12.2411,46.4519,0.1741,-0.1716,-0.3286,158.0156
10:09:55:304,-0.3377,2.7676,12.775,46.1182,0.1784,-0.1228,-0.4099,160.6562
10:09:55:319,-0.9673,3.0523,11.9824,46.086,0.2138,0.0861,-0.3329,160.6562
10:09:55:341,-0.5363,3.5408,11.2499,45.9944,0.1478,0.2126,-0.1393,163.1094
10:09:55:361,0.5387,3.4068,11.4078,45.715,-0.0263,0.1112,-0.1167,163.1094
10:09:55:384,0.8764,2.2839,12.4947,45.8629,-0.1753,-0.1808,-0.3885,164.7656
10:09:55:400,-0.3042,0.8402,13.9887,45.8453,-0.1161,-0.5272,-0.8002,164.9375
10:09:55:420,-1.8242,0.0574,13.0765,45.7133,0.2016,-0.5064,-0.9639,166.4844
10:09:55:442,-2.1308,-0.0096,10.1031,45.7134,0.5125,-0.1753,-0.722,166.4844
10:09:55:461,-1.4773,0.6392,7.9412,45.6763,0.5314,-0.0452,-0.3573,167.8594
10:09:55:485,-0.3305,1.2497,7.369,45.5633,0.292,-0.2358,-0.212,168.0156
10:09:55:502,0.3233,1.1731,8.0967,45.6066,-0.0611,-0.5314,-0.3586,169.2344
10:09:55:519,0.5937,1.0319,9.1693,45.7587,-0.3732,-0.6499,-0.6194,169.3594
10:09:55:542,0.309,0.8067,8.4153,45.7038,-0.4239,-0.2944,-0.9578,170.125
10:09:55:561,0.5554,0.8378,7.1824,45.7624,-0.4166,-0.0183,-0.9486,170.1875
10:09:55:585,0.1962,0.7756,7.0098,45.7975,-0.5272,0.1759,-0.9609,170.9844
10:09:55:603,-0.6248,0.443,7.3905,45.945,-0.6127,0.1686,-1.0317,171.0625
10:09:55:622,-1.3238,0.3425,7.5556,46.0725,-0.5369,0.0299,-0.9975,171.5469
10:09:55:639,-1.5371,0.6081,7.611,46.1219,-0.3977,-0.0806,-0.7691,171.5938
10:09:55:659,-1.1731,1.2401,7.9077,46.1219,-0.317,-0.0916,-0.43,172.0938
10:09:55:679,-0.778,1.8601,8.365,46.0531,-0.2883,-0.0342,-0.1765,172.1406
10:09:55:701,-0.5435,2.3797,8.9515,46.1493,-0.2773,-0.0238,-0.091,173.9688
10:09:55:720,-0.0526,2.691,10.0505,46.0326,-0.2957,-0.0434,-0.1252,175.4375
10:09:55:739,0.1172,2.691,11.4006,45.8293,-0.2889,-0.0012,-0.2285,175.4375
10:09:55:760,-0.2922,2.4993,12.2411,45.8343,-0.1741,0.1167,-0.317,176.1562
10:09:55:785,-0.4717,2.5283,12.1143,45.7667,0.0672,0.2608,-0.281,176.1562
10:09:55:802,0.0502,2.7867,11.3456,45.67,0.3042,0.3476,-0.1515,177.8125
10:09:55:820,0.7588,3.0691,10.9531,45.5774,0.3744,0.3311,-0.1118,177.8125
10:09:55:841,0.9553,2.6408,11.3408,45.5247,0.2865,0.2114,-0.2932,179.6875
10:09:55:860,0.3233,1.4749,11.7479,45.4619,0.1863,0.0922,-0.6231,179.875
10:09:55:886,-1.2305,0.3401,12.0278,45.5515,0.1881,-0.0305,-0.846,179.8906
10:09:55:901,-1.7189,0.1938,11.8603,45.7565,0.3195,-0.1552,-0.6976,181.9844
10:09:55:919,-0.8644,0.5746,10.8236,45.7367,0.4661,-0.2352,-0.2871,183.875
10:09:55:941,0.4478,1.2233,11.0824,45.6878,0.3665,-0.3598,0.0403,183.875
10:09:55:960,1.1803,1.1683,12.3559,45.9337,0.0819,-0.3702,-0.0031,184.5156
10:09:55:983,0.7995,0.5028,13.1842,46.0871,-0.0941,-0.2028,-0.3512,184.5156
10:09:56:001,-0.28,-0.4167,12.8731,46.3074,-0.0232,-0.0159,-0.6848,184.7031
10:09:56:020,-0.929,-0.9194,11.3073,46.411,0.2327,0.1179,-0.7489,184.7344
10:09:56:042,-0.6464,-0.7277,9.3849,46.6008,0.4429,0.1545,-0.5803,185.25
10:09:56:061,1.4797,0.3425,7.9484,46.8519,0.1704,-0.0428,-0.4551,185.2969
10:09:56:086,1.3478,0.5602,8.5445,46.9776,-0.1338,-0.1344,-0.7801,185.7344
10:09:56:101,0.2656,0.4597,8.3985,47.1562,-0.3085,0.0006,-1.1343,185.7812
10:09:56:120,-0.5889,0.3879,7.2852,47.1585,-0.3464,0.2676,-1.2229,186.2188
10:09:56:140,-1.13,0.4693,6.0715,47.2985,-0.3647,0.4386,-1.0617,186.2656
10:09:56:159,-1.1109,0.9003,5.9255,47.3715,-0.3971,0.3433,-0.8405,187.75
10:09:56:180,-0.7445,1.5778,6.6317,47.6457,-0.3635,0.1283,-0.711,187.9062
10:09:56:202,-0.5913,1.8601,6.9835,47.8427,-0.2749,-0.0281,-0.7281,188.9688
10:09:56:220,-0.5483,1.9992,7.5532,47.9105,-0.2474,-0.1124,-0.7972,189.0938
10:09:56:239,-0.443,2.3055,8.0297,48.1023,-0.2828,-0.0195,-0.8472,189.0938
10:09:56:260,-0.5698,2.5642,8.4655,48.2681,-0.3286,0.1155,-0.9071,190.2344
10:09:56:281,-0.778,2.7508,8.9109,48.4099,-0.3433,0.2022,-0.9871,190.2344
10:09:56:301,-1.2329,2.5499,9.2363,48.7661,-0.3011,0.2095,-1.0794,191.7188
10:09:56:319,-1.6017,2.1619,9.6482,49.0625,-0.2217,0.1313,-1.1069,191.7188
10:09:56:342,-1.7333,1.8649,10.5796,49.1237,-0.1607,0.0098,-1.0427,192.625
10:09:56:359,-1.7931,1.8314,11.3527,49.2801,-0.091,-0.0159,-0.9157,192.7188
10:09:56:381,-1.9367,1.7883,11.7957,49.4321,0.0018,0.0367,-0.7544,192.7344
10:09:56:402,-1.9848,1.5084,12.1932,49.5467,0.0855,0.0641,-0.5956,194.7969
10:09:56:420,-1.9391,1.2712,12.8133,49.7383,0.157,0.0171,-0.4642,197.2188
10:09:56:442,-2.1763,1.209,13.3017,49.9675,0.2193,-0.0403,-0.3812,197.2188
10:09:56:461,-2.5355,0.9362,13.2012,49.9684,0.2511,-0.0098,-0.328,198.8594
10:09:56:486,-2.5594,0.5506,12.9186,49.9434,0.1985,0.0861,-0.234,198.8594
10:09:56:501,-2.0447,0.0861,13.0167,50.302,0.0421,0.1106,-0.1362,200.3594
10:09:56:520,-1.7812,-0.5076,13.6271,50.4439,-0.1032,-0.0226,-0.1442,200.5
10:09:56:542,-2.0423,-1.0606,14.1323,50.506,-0.0696,-0.1588,-0.2156,202.2031
10:09:56:559,-2.5546,-1.3813,13.4716,50.7792,0.204,-0.1338,-0.2169,202.375
10:09:56:583,-2.4395,-0.6272,8.5516,50.8956,0.7098,0.1521,0.2889,204.3906
10:09:56:602,-1.3813,0.1962,7.9244,51.0697,0.5742,-0.1136,0.4972,204.5938
10:09:56:620,-0.6248,0.6775,8.7529,51.3231,0.2688,-0.4502,0.3977,206.7188
10:09:56:640,-0.3808,0.6775,9.3491,51.6214,0.0171,-0.6255,0.0886,206.9375
10:09:56:659,-0.754,0.4813,9.3897,51.5137,-0.1338,-0.584,-0.1985,208.6094
10:09:56:679,-0.9075,0.3185,8.8152,51.5404,-0.1564,-0.4233,-0.2816,208.7656
10:09:56:701,-1.0223,0.2225,7.9101,51.8735,-0.0696,-0.2535,-0.2346,209.8594
10:09:56:721,-0.7804,0.3568,7.2087,51.7827,0.0617,-0.1692,-0.0861,210.7188
10:09:56:739,-0.7325,0.5219,6.3778,51.8779,0.1093,-0.0666,-0.0012,210.7188
10:09:56:761,-0.8955,0.6416,6.6317,51.9805,0.1399,-0.2242,-0.0434,211.2344
10:09:56:784,-1.0247,0.8115,7.0508,52.2165,0.2602,-0.4404,-0.0843,211.2344
10:09:56:802,-1.075,0.9912,6.4304,52.0854,0.3934,-0.3806,-0.0568,211.2344
10:09:56:819,-0.754,1.5419,5.9495,52.1384,0.35,-0.237,0.058,211.6094
10:09:56:841,-0.2154,2.2146,6.2318,52.2423,0.1106,-0.1729,0.1423,211.6094
10:09:56:860,0.0502,2.4706,7.2422,52.3293,-0.1888,-0.226,0.0525,211.9531
10:09:56:881,-0.2536,2.4132,8.8032,52.6667,-0.4025,-0.3464,-0.1582,211.9531
10:09:56:902,-0.4238,2.3366,10.0552,52.7066,-0.4545,-0.4129,-0.3146,211.2188
10:09:56:921,-0.4717,2.3509,11.1398,52.8629,-0.3708,-0.3757,-0.3409,210.7031
10:09:56:940,-0.5602,2.3342,11.8268,52.7724,-0.2016,-0.2077,-0.2682,210.7031
10:09:56:961,-0.6823,2.3701,12.1908,53.0026,0.0061,-0.0605,-0.1668,211.2188
10:09:56:986,-0.6392,2.1739,12.4947,53.3889,0.2046,-0.0538,-0.1032,211.2188
10:09:57:001,-0.6009,1.9657,12.9544,53.5326,0.3213,-0.1594,-0.1179,211.5469
10:09:57:073,-0.7493,1.9104,13.2467,53.4482,0.3433,-0.2498,-0.1594,211.5781
10:09:57:073,-0.5674,1.9199,12.7582,53.5499,0.3195,-0.1784,-0.1197,211.6406
10:09:57:073,0.1842,1.884,11.9201,53.6788,0.2407,-0.0886,-0.0299,211.6406
10:09:57:084,1.2568,1.7644,12.4038,53.7353,0.0605,-0.2419,-0.0519,211.8281
10:09:57:102,1.9681,0.9745,13.8021,53.9073,-0.3824,-0.4233,-0.6389,211.8438
10:09:57:119,0.6344,-1.5993,14.0079,53.7282,-0.3341,-0.1521,-0.8454,211.6719
10:09:57:141,-0.3568,-2.2026,11.001,53.6242,-0.0244,0.0544,-0.7153,211.6562
10:09:57:159,0.0191,-1.963,8.9707,53.4572,0.4325,-0.1478,-0.2517,211.75
10:09:57:180,2.0183,-0.7397,8.4966,53.6743,0.799,-0.5076,0.1668,211.75
10:09:57:201,3.5599,0.8764,8.4129,53.4973,0.8662,-0.5345,0.2083,212.3906
10:09:57:221,3.5575,1.5251,7.6516,53.5702,0.62,-0.3146,-0.0757,212.875
10:09:57:239,2.3629,1.4964,6.9691,53.5661,0.1649,-0.1264,-0.4936,212.875
10:09:57:260,0.8139,1.1731,6.4304,53.345,-0.2566,0.0263,-0.7721,213.1875
10:09:57:284,-0.1077,0.9936,6.4642,53.6454,-0.5125,0.0476,-0.7825,213.1875
10:09:57:300,-0.1771,1.276,7.4671,53.6644,-0.6163,-0.1075,-0.631,213.4844
10:09:57:320,0.3233,1.7596,8.5158,53.7538,-0.5931,-0.1888,-0.4838,213.5156
10:09:57:341,1.0032,2.2911,9.3754,53.5569,-0.4691,-0.1301,-0.4288,213.5156
10:09:57:360,1.3238,2.7652,9.4711,53.5994,-0.2975,0.077,-0.4838,213.625
10:09:57:380,1.0989,2.7604,8.7841,53.4053,-0.1258,0.2657,-0.6438,213.625
10:09:57:401,0.6009,2.2528,8.5828,53.3102,0.0275,0.2071,-0.879,214.6406
10:09:57:420,0.1101,1.8434,8.8558,53.3592,0.1521,0.0611,-1.0586,216.3438
10:09:57:441,-0.0885,1.7692,9.3132,53.0756,0.2553,-0.0073,-1.1075,216.3438
10:09:57:460,-0.2345,1.9295,9.629,52.9715,0.3329,0.0214,-1.0684,216.4844
10:09:57:486,-0.62,2.1117,9.6745,52.8578,0.3702,0.1411,-0.9554,216.4844
10:09:57:501,-0.7373,2.2935,9.7798,52.7075,0.3781,0.2364,-0.7898,216.375
10:09:57:520,-0.055,2.6599,11.1948,52.7028,0.3763,0.2059,-0.6756,216.3594
10:09:57:542,0.5913,3.1531,13.3496,52.6622,0.3573,0.3292,-0.7312,217.625
10:09:57:560,0.4789,3.1819,14.1969,52.4482,0.3665,0.8326,-0.8986,217.75
10:09:57:583,-0.1771,2.3773,12.0688,52.1032,0.5217,1.4686,-1.0036,219.1719
10:09:57:602,-1.1324,1.963,9.5668,52.0619,0.7764,1.2278,-0.8631,219.3125
10:09:57:620,-2.5546,2.2648,10.0816,51.8119,0.7177,0.7623,-0.7245,220.2344
10:09:57:643,-2.4754,2.4562,9.361,51.6758,0.5895,0.7367,-0.587,220.3281
10:09:57:659,-2.3988,2.6719,9.4543,51.6395,0.3415,0.5382,-0.4569,221.4531
10:09:57:679,-1.695,2.4275,10.9313,51.4313,0.0727,0.0623,-0.3891,221.5781
10:09:57:702,-1.4079,1.5993,12.8252,51.251,-0.0312,-0.2981,-0.4374,223.5
10:09:57:720,-1.7453,1.0199,12.6362,51.0507,0.1057,-0.2181,-0.4508,225.875
10:09:57:740,-1.9152,0.7062,10.9146,51.1263,0.3488,-0.0348,-0.3799,225.875
10:09:57:759,-1.7022,0.6464,9.4472,50.9841,0.4991,-0.1362,-0.3005,228
10:09:57:780,-1.4366,0.51,9.0425,50.7587,0.4416,-0.427,-0.2755,228
10:09:57:801,-0.8835,0.2946,9.7965,50.4036,0.2266,-0.7348,-0.2718,228.0156
10:09:57:819,-0.6942,0.28,10.3113,50.3799,-0.0195,-0.7544,-0.2309,229.5469
10:09:57:841,-1.2114,0.3209,10.0122,49.9486,-0.1881,-0.5339,-0.1374,229.5625
10:09:57:859,-1.5084,0.5698,9.3993,49.8509,-0.1955,-0.3409,0.0244,231.5781
10:09:57:881,-1.3884,0.8668,8.6474,49.7018,-0.0788,-0.1888,0.1863,231.5938
10:09:57:902,-1.3358,1.252,8.0321,49.2823,0.0898,-0.1387,0.2993,233.5469
10:09:57:921,-1.3023,1.5538,7.6445,49.1135,0.2627,-0.1399,0.3977,235.0156
10:09:57:940,-1.0463,2.1691,7.3546,48.8445,0.3867,-0.1301,0.5107,235.0156
10:09:57:959,-0.6488,2.7891,6.9547,48.7721,0.4423,-0.0257,0.6047,235.9531
10:09:57:981,-1.0199,2.8274,6.8973,48.3136,0.4423,0.1051,0.6206,235.9531
10:09:58:002,-1.1085,3.2201,7.1465,48.3189,0.4184,0.1411,0.6603,236.9688
10:09:58:019,-0.7373,3.7301,7.2876,48.0461,0.383,0.0666,0.6414,236.9688
10:09:58:041,-0.6655,4.0699,7.5724,47.9395,0.3757,-0.0672,0.4777,237.7344
10:09:58:059,-0.7828,4.1847,7.8526,48.1143,0.3787,-0.2089,0.27,237.7969
10:09:58:081,-0.7277,4.398,8.3339,47.8839,0.3476,-0.3073,0.1362,238.4844
10:09:58:104,-0.5483,4.5488,8.7506,47.8145,0.1845,-0.2156,-0.036,238.5469
10:09:58:120,-0.3927,4.6947,9.3323,47.5394,0.0794,-0.1857,-0.1368,239
10:09:58:141,-0.3114,4.5464,9.8423,47.2973,0.0043,-0.2767,-0.2828,239.0625
10:09:58:159,-0.3114,4.2209,10.6202,46.853,-0.0507,-0.419,-0.4649,238.875
10:09:58:180,-0.6751,3.591,11.6378,46.6198,-0.1087,-0.5308,-0.598,238.8594
10:09:58:202,-1.4605,3.0643,12.2411,46.4299,-0.1625,-0.4508,-0.5546,238.2031
10:09:58:220,-1.0941,2.9566,11.5229,45.9876,-0.1289,-0.2077,-0.2828,237.0781
10:09:58:239,-0.0455,3.5623,10.6801,45.8593,-0.0696,-0.0794,0.0128,237.0781
10:09:58:259,1.3932,3.9287,10.2873,45.6367,-0.113,-0.1423,0.0861,235.7031
10:09:58:281,2.0112,3.414,10.893,45.5096,-0.3183,-0.3054,-0.1209,235.7031
10:09:58:302,1.6424,2.2337,12.023,45.6321,-0.5455,-0.3714,-0.3885,235.5781
10:09:58:320,1.1611,1.1827,13.0693,45.8249,-0.6151,-0.3244,-0.4923,234.375
10:09:58:341,1.1874,0.9003,12.6072,45.6643,-0.4563,-0.0947,-0.4178,234.375
10:09:58:359,1.4868,1.2138,11.0536,45.4362,-0.1619,0.1686,-0.2877,234.0156
10:09:58:381,1.9729,1.5084,9.2821,45.2378,0.0898,0.2877,-0.193,234.0156
10:09:58:401,2.2768,1.774,8.4009,44.7572,0.1594,0.1759,-0.1973,234.0781
10:09:58:420,1.7716,1.6711,8.4344,44.6983,0.0764,-0.0189,-0.3366,234.5938
10:09:58:440,0.6296,1.4557,8.3411,44.3786,-0.055,-0.0336,-0.4612,234.5938
10:09:58:459,-0.1866,1.4557,7.6732,43.8357,-0.1429,0.1069,-0.4264,235.875
10:09:58:482,-0.4214,1.7644,6.7657,43.5827,-0.1674,0.1955,-0.2608,235.875
10:09:58:503,-0.2994,2.3151,5.9997,43.2133,-0.1735,0.1625,-0.1026,236.875
10:09:58:520,0.0167,3.1436,5.9734,43.2543,-0.2504,0.0788,-0.0403,236.875
10:09:58:541,0.189,3.6078,6.6628,43.229,-0.4264,-0.0122,-0.135,236.8125
10:09:58:559,-0.0455,3.3781,7.7785,43.3166,-0.565,-0.0806,-0.3977,236.7969
10:09:58:583,-0.7229,2.7126,8.5181,42.9779,-0.5406,-0.0757,-0.6316,237.3594
10:09:58:600,-1.2305,2.4108,8.6928,42.9959,-0.3854,-0.0238,-0.6585,237.4219
10:09:58:622,-0.8186,2.7293,8.9348,42.7278,-0.2175,-0.1063,-0.4942,238.3438
10:09:58:642,-0.9266,2.6719,9.7606,42.323,-0.2804,-0.0733,-0.4752,238.4375
10:09:58:659,-1.4414,2.3031,10.2251,42.2945,-0.3048,0.0666,-0.4636,238.8906
10:09:58:681,-1.7357,2.1691,10.3113,41.7015,-0.2395,0.2083,-0.347,238.9375
10:09:58:700,-1.628,2.6575,9.9308,41.424,-0.1234,0.3372,-0.1258,239.4531
10:09:58:719,-1.3621,3.2106,9.8471,41.1527,-0.0281,0.3549,0.0483,240.3906
10:09:58:739,-0.9505,3.3541,10.3857,41.1789,0.0409,0.2419,0.0855,240.3906
10:09:58:759,-0.632,3.2704,10.9843,40.9239,0.0886,0.1454,0.0092,240.4844
10:09:58:781,-0.9912,2.983,11.8101,41.0209,0.0678,0.1289,-0.113,240.8125
10:09:58:802,-1.5084,2.5786,12.5139,40.7264,0.0666,0.2065,-0.1808,240.8281
10:09:58:821,-1.8817,2.4682,11.5011,40.5937,0.1423,0.43,-0.1252,241.0156
10:09:58:840,-2.1476,2.6408,11.0465,40.8038,0.1173,0.471,-0.0177,241.0156
10:09:58:860,-1.8386,2.0471,11.712,40.4777,-0.0177,0.347,0.0812,242.1094
10:09:58:880,-1.7381,1.7237,12.3344,40.3835,-0.1411,0.1973,0.1411,242.125
10:09:58:902,-1.3573,1.3047,13.5171,40.1695,-0.1942,0.0489,0.1271,243.4531
10:09:58:919,-1.8793,0.8186,12.533,39.9414,-0.1423,0.2547,0.0641,244.5156
10:09:58:940,-1.7668,0.7995,10.2467,39.846,-0.0202,0.4178,0.1607,244.5156
10:09:58:959,-1.008,1.4004,9.361,39.8801,0.0953,0.1448,0.2517,245.375
10:09:58:981,-0.1053,1.5491,9.6673,39.649,0.1179,-0.2572,0.1582,245.375
10:09:59:003,0.1149,1.3023,10.0528,39.3496,0.0244,-0.4288,-0.0501,245.4375
10:09:59:019,-0.0239,0.9577,10.1629,39.4081,-0.1234,-0.3653,-0.1826,245.4375
10:09:59:041,-0.1244,0.917,9.6506,39.2142,-0.2101,-0.2065,-0.1955,245.3281
10:09:59:059,-0.2608,0.9601,8.365,39.0093,-0.1741,-0.0916,-0.1552,245.3125
10:09:59:144,-0.9314,1.2042,7.8263,38.9271,-0.0794,-0.1161,-0.1106,245.5938
10:09:59:145,-1.4174,1.0032,7.9508,38.6266,0.0434,-0.2651,-0.1032,245.625
10:09:59:145,-1.9367,0.5267,7.8168,38.5101,0.2498,-0.3366,-0.0617,245.7344
10:09:59:145,-1.8864,0.9625,6.4857,38.3692,0.4264,-0.1607,0.3653,245.75
10:09:59:159,-1.7524,1.3813,6.4113,38.1406,0.2529,-0.0916,0.4978,245.5
10:09:59:180,-1.7142,1.6424,6.6796,37.9319,0.0464,-0.0428,0.5534,245.4688
10:09:59:203,-1.7357,1.8912,7.2829,38.0349,-0.1155,-0.0415,0.5827,245.25
10:09:59:220,-1.5323,2.2528,8.152,37.9867,-0.2272,-0.0947,0.5834,244.7969
10:09:59:240,-1.4366,2.4658,9.2052,37.8904,-0.3225,-0.1203,0.5241,244.7969
10:09:59:259,-1.6161,2.5546,10.0672,37.685,-0.3598,-0.0476,0.4429,244.75
10:09:59:279,-1.8697,2.6097,10.1414,37.5157,-0.2957,0.0776,0.3977,244.6719
10:09:59:302,-1.5251,2.8801,10.0911,37.5483,-0.1979,0.077,0.3897,244.6719
10:09:59:320,-0.8931,3.1938,10.6561,37.6418,-0.1674,-0.0446,0.3256,245.0938
10:09:59:339,-1.2066,2.648,11.8125,37.4177,-0.2004,-0.1582,0.1527,245.0938
10:09:59:361,-1.6759,1.8721,13.0549,37.0318,-0.1845,-0.2211,0.0727,245.375
10:09:59:386,-1.5419,1.9032,13.2084,36.7701,-0.0635,-0.1405,0.2541,245.3906
10:09:59:402,-0.2827,2.1906,12.0784,36.8597,0.0562,0.0171,0.554,245.6094
10:09:59:420,1.1803,2.5881,11.3504,36.7724,0.0562,0.0079,0.7006,245.125
10:09:59:441,2.4275,2.7628,11.3456,36.7556,-0.1148,-0.0672,0.5852,245.125
10:09:59:460,2.4132,1.8147,12.6553,36.5954,-0.4368,-0.1484,0.2193,243.9844
10:09:59:482,1.2185,0.1412,14.0797,36.2534,-0.6377,-0.1216,-0.1197,243.9844
10:09:59:503,0.3401,-0.8859,15.0805,36.2907,-0.5382,-0.0507,-0.1515,242.7031
10:09:59:519,0.5387,-0.8955,14.1443,36.1173,-0.1155,0.1063,0.0928,242.7031
10:09:59:540,1.7285,0.1436,11.2881,36.0275,0.4679,0.2382,0.4013,241.625
10:09:59:559,3.335,1.3621,8.8582,35.6603,0.8411,0.1692,0.5125,241.625
10:09:59:580,3.9455,2.059,7.3977,35.6271,0.7752,0.0874,0.2908,240.8125
10:09:59:603,2.7461,1.7022,7.2996,35.2538,0.3433,0.0782,-0.1307,240.7344
10:09:59:619,0.9194,0.8812,7.7402,35.0881,-0.1142,0.1716,-0.4099,240.2344
10:09:59:642,-0.2632,0.687,7.4671,35.1709,-0.3176,0.3286,-0.3726,240.1875
10:09:59:661,-0.6153,0.9529,7.0316,34.9974,-0.3005,0.3372,-0.1833,239.875
10:09:59:681,-0.7086,1.1276,7.0436,34.635,-0.0971,0.1155,0.1332,239.8438
10:09:59:701,-0.2608,1.9056,7.0843,34.3261,-0.0623,0.1723,0.2382,238.5938
10:09:59:720,0.0359,2.3773,6.8949,34.186,-0.1258,0.2529,0.2266,238.4531
10:09:59:739,-0.0981,2.5642,7.1943,33.7828,-0.2401,0.2492,0.1106,237.6562
10:09:59:759,-0.4549,2.4778,7.6995,33.5597,-0.3176,0.2016,-0.0458,237.5781
10:09:59:780,-0.8716,2.2313,8.5636,33.3286,-0.3219,0.1344,-0.146,237.8125
10:09:59:801,-1.3454,1.9992,9.4663,32.884,-0.2425,0.0983,-0.1393,237.8438
10:09:59:820,-1.4486,1.9992,9.8447,32.3959,-0.0776,0.1326,-0.0122,237.3438
10:09:59:840,-1.6687,1.9801,9.8231,32.4484,0.1026,0.1967,0.16,237.2969
10:09:59:859,-1.8793,1.9558,9.9906,32.2757,0.1735,0.2596,0.35,236.4531
10:09:59:881,-1.427,2.5283,10.1318,32.2096,0.0971,0.3934,0.576,236.4531
10:09:59:903,-1.3167,2.9614,10.2467,32.2061,-0.0568,0.5388,0.7013,237.0312
10:09:59:919,-1.3478,3.0547,11.0991,32.2218,-0.1662,0.5064,0.7153,237.5781
10:09:59:942,-0.4836,3.2871,12.3129,32.0339,-0.0819,0.3329,0.6872,237.5781
10:09:59:961,0.067,3.6054,12.2459,32.0436,0.1686,0.2462,0.5156,237.4375
10:09:59:984,-0.0359,3.754,10.9098,32.2408,0.281,0.2553,0.2303,237.4375
10:10:00:005,0.0933,3.7564,10.4599,32.1148,0.1668,0.1216,-0.0244,236.9062
10:10:00:019,-0.5171,3.213,11.0178,32.068,-0.0971,-0.0226,-0.2737,236.9062
10:10:00:041,-1.0343,2.2696,12.0855,31.7202,-0.3751,-0.0935,-0.4441,236.7812
10:10:00:059,-1.2688,1.2855,13.5745,31.4345,-0.5125,-0.1826,-0.5186,236.7812
10:10:00:081,-1.8051,0.5722,14.2448,31.1925,-0.372,-0.1765,-0.4783,237.0312
10:10:00:102,-2.1619,0.3879,12.7128,30.95,0.0544,-0.0379,-0.281,237.0625
10:10:00:120,-1.7453,0.7756,10.0193,30.6409,0.5711,-0.044,-0.0269,236.9062
10:10:00:140,-0.9553,1.3214,8.5277,30.3445,0.8442,-0.3909,0.0678,236.8906
10:10:00:161,-0.5483,0.5746,10.1653,29.9826,0.43,-1.0122,-0.314,235.9688
10:10:00:181,-1.2999,-0.2776,11.0895,29.5779,0.1875,-0.8937,-0.4471,234.4219
10:10:00:202,-1.9271,-0.9577,10.7399,29.3609,0.1521,-0.6414,-0.3531,234.4219
10:10:00:219,-1.8458,-1.0319,9.7415,29.1055,0.2987,-0.6023,-0.0593,234.2656
10:10:00:240,-1.6232,-0.1723,9.9165,28.8644,0.5724,-0.9053,0.2511,233.0469
10:10:00:260,-1.6831,0.5889,9.6721,28.5327,0.9236,-1.0281,0.3793,232.9219
10:10:00:280,-1.908,0.5698,7.8574,28.255,1.1423,-0.7135,0.3696,232.7344
10:10:00:301,-1.8075,0.3664,6.0141,28.0981,1.0488,-0.2957,0.4551,232.7188
10:10:00:319,-1.3454,0.7636,4.8458,27.8683,0.7165,0.0153,0.7312,233.3906
10:10:00:340,-0.6033,1.7142,4.9678,27.5335,0.2877,0.1716,1.0262,233.4688
10:10:00:359,0.1364,2.4467,5.5831,27.3792,-0.102,0.3152,1.1466,234.5
10:10:00:380,0.687,3.0284,5.971,27.3029,-0.3824,0.4948,1.0977,234.5
10:10:00:403,1.2305,3.6437,6.4905,26.9849,-0.5956,0.5779,0.956,234.8906
10:10:00:420,1.1946,3.8976,7.3594,26.8018,-0.788,0.4911,0.7184,235.0625
10:10:00:441,0.7899,3.833,9.2267,26.5958,-0.89,0.2382,0.4655,235.0625
10:10:00:460,0.4286,3.7397,10.9241,26.3548,-0.7697,0.1179,0.3073,236.0156
10:10:00:482,0.0861,3.821,10.7064,26.1191,-0.4966,0.2712,0.2584,236.0312
10:10:00:503,0.4789,4.0795,10.3017,26.0684,-0.2871,0.2663,0.2706,236.5625
10:10:00:520,1.0678,4.3023,10.7925,25.8342,-0.2187,0.0214,0.2187,236.5625
10:10:00:540,1.1803,3.9598,12.5163,25.7028,-0.2144,-0.2908,0.0348,236.0312
10:10:00:560,0.8812,3.2489,13.6965,25.5759,-0.1026,-0.4203,-0.1338,236.0312
10:10:00:582,0.3353,2.9183,13.2802,25.5155,0.1313,-0.3146,-0.0971,235.2969
10:10:00:601,0.8019,2.7652,11.98,25.3221,0.3476,-0.2156,0.1179,235.2344
10:10:00:619,1.6448,2.5161,11.3049,25.0028,0.3934,-0.3445,0.2578,233.4688
10:10:00:640,2.6121,2.272,12.3512,25.1069,0.2004,-0.6225,0.2071,233.2812
10:10:00:660,2.3462,0.7804,15.8513,25.0717,-0.2981,-0.4032,-0.3439,230.9688
10:10:00:683,1.0271,-0.2632,14.161,24.9008,-0.0531,0.1509,-0.4355,230.7344
10:10:00:701,0.8859,-0.3353,10.8667,24.7355,0.5198,0.3659,-0.204,228.9531
10:10:00:719,2.0112,0.5004,8.4392,24.5635,1.0311,0.1045,0.0672,228.7656
10:10:00:739,3.3589,1.4004,7.314,24.2725,1.1618,-0.2456,0.0776,227.9375
10:10:00:760,3.6511,1.5156,6.9571,24.1404,0.857,-0.3384,-0.179,227.8594
10:10:00:780,2.5307,1.0726,6.9117,24.0078,0.2486,-0.1405,-0.4618,227.2812
10:10:00:802,1.0367,0.8067,7.1943,23.8194,-0.3775,0.1393,-0.5046,227.2344
10:10:00:820,0.3497,1.1587,7.3379,23.3741,-0.7294,0.3518,-0.2926,226.9844
10:10:00:841,0.5004,1.7333,7.3522,23.3231,-0.7513,0.3971,-0.0574,226.9531
10:10:00:860,0.8477,2.2385,7.4097,23.1199,-0.5736,0.2914,0.0501,227.2344
10:10:00:879,0.8955,2.5522,7.4073,23.0382,-0.3531,0.1839,0.0281,227.25
10:10:00:902,0.687,2.6934,7.4097,23.0757,-0.1851,0.1509,-0.0574,226.875
10:10:00:919,0.352,2.7508,7.2589,22.8986,-0.1051,0.2175,-0.1252,226.7812
10:10:00:941,0.1196,2.9231,6.9739,22.827,-0.1124,0.2999,-0.1533,226.7812
10:10:00:959,0.0933,3.1699,7.2613,22.6318,-0.2059,0.3011,-0.1741,227.6406
10:10:00:982,0.2512,3.2201,8.1568,22.5738,-0.3262,0.2602,-0.226,227.6406
10:10:01:001,0.1842,3.1627,9.2459,22.4708,-0.3983,0.2517,-0.3158,227.75
10:10:01:020,-0.1555,3.0356,10.2682,22.2307,-0.372,0.2908,-0.3824,227.75
10:10:01:040,-0.5483,2.7843,10.6298,22.3258,-0.2242,0.3549,-0.3751,227.8906
10:10:01:060,-0.7804,2.8633,10.6849,22.0446,-0.0092,0.3537,-0.2767,227.8906
10:10:01:081,-0.7229,3.201,10.783,22.0565,0.1655,0.3268,-0.1344,228.9531
10:10:01:102,-0.3233,3.6703,10.3953,21.8009,0.2291,0.3793,-0.0226,228.9531
10:10:01:120,0.0144,3.7516,10.6753,21.4416,0.1558,0.3549,-0.0104,229.25
10:10:01:141,0.146,3.4259,11.8029,21.3527,0.0733,0.2285,-0.0904,229.2812
10:10:01:207,-0.3233,2.9758,12.7893,21.1527,0.1222,0.157,-0.1753,229.1875
10:10:01:207,-0.9027,2.6384,12.3416,21.0987,0.3225,0.2303,-0.1545,229.1719
10:10:01:208,-0.3712,3.2752,10.3448,20.8345,0.5009,0.1442,0.088,229.3281
10:10:01:222,0.2417,3.2082,11.0154,20.6941,0.2449,-0.0171,0.0593,229.3438
10:10:01:240,0.5267,2.4347,12.8611,20.4448,-0.0599,-0.1301,-0.0825,229.625
10:10:01:259,-0.3497,1.2449,14.161,20.4709,-0.1716,-0.0525,-0.226,229.6562
10:10:01:280,-1.6759,0.3425,12.6721,20.5429,0.0684,0.2358,-0.1808,230.1562
10:10:01:302,-1.8505,0.62,9.5333,20.4981,0.4899,0.3799,0.1289,230.2031
10:10:01:321,-1.0152,1.5826,7.4886,20.0943,0.7239,0.1319,0.3989,230.9219
10:10:01:340,0.079,2.1691,7.3929,20.0413,0.6005,-0.2529,0.3793,230.9844
10:10:01:359,0.4119,1.8529,8.3889,19.8114,0.212,-0.43,0.1301,231.4219
10:10:01:380,0.0335,1.1539,9.4017,19.5642,-0.2309,-0.3323,-0.1124,231.4219
10:10:01:403,-0.5794,0.5722,10.0241,19.4214,-0.5094,-0.1197,-0.1863,231.4375
10:10:01:421,-0.6153,0.6272,9.6625,19.0433,-0.5473,0.088,-0.0727,231.7031
10:10:01:442,-0.4334,1.142,8.9731,18.5651,-0.4416,0.1741,0.0586,231.7031
10:10:01:461,-0.443,1.3119,8.2382,18.28,-0.3134,0.168,0.0849,231.9062
10:10:01:482,-0.7947,1.2449,7.6899,18.3153,-0.2254,0.1148,0.0751,231.9062
10:10:01:501,-1.0606,1.4055,7.4097,18.0058,-0.1771,0.0281,0.1387,231.7812
10:10:01:520,-0.917,1.8936,7.3475,17.8666,-0.1161,-0.0684,0.2688,231.7812
10:10:01:540,-0.3975,2.6623,7.4288,17.7219,-0.044,-0.1124,0.3708,232.1094
10:10:01:560,0.1388,3.1555,7.6421,17.566,-0.0232,-0.0922,0.3457,232.1094
10:10:01:581,0.0598,3.1531,8.2143,17.3815,-0.0641,-0.0892,0.1857,232.1562
10:10:01:602,-0.0885,3.1388,9.8013,17.3015,-0.0348,-0.1845,0.0458,232.1562
10:10:01:620,0.553,3.6918,10.2491,17.2106,0.2162,-0.2297,-0.055,231.4688
10:10:01:640,1.8505,4.6325,10.5126,17.0685,0.5889,-0.2932,-0.2437,231.3906
10:10:01:660,1.2855,4.1369,10.1055,16.8718,0.9291,-0.1729,-0.6066,231.4219
10:10:01:682,-1.9415,3.122,10.1127,16.6046,0.8344,1.0006,-0.6548,231.4375
10:10:01:702,-1.2353,2.9471,8.4894,16.4195,0.4245,1.2871,-0.4068,231.6562
10:10:01:719,-2.1356,3.2441,9.2172,16.0629,0.0641,0.9651,-0.1545,231.6719
10:10:01:740,-2.3844,3.2584,11.2187,15.9766,-0.0556,0.2871,0.014,231.4688
10:10:01:759,-2.3725,3.1484,12.6553,16.0067,0.0751,-0.1454,0.1729,231.4531
10:10:01:779,-0.5865,3.9646,10.9795,15.8275,0.2462,0.0177,0.405,231.2031
10:10:01:803,0.9386,4.7115,9.6625,15.6075,0.1625,0.1209,0.3861,231.1875
10:10:01:821,0.7828,3.955,10.4839,15.3864,-0.0764,-0.2169,0.0599,230.5469
10:10:01:841,0.3616,2.8226,12.5665,15.415,-0.2187,-0.598,-0.215,230.4844
10:10:01:859,0.3042,2.4203,13.7925,15.3312,-0.1222,-0.6725,-0.2975,229.9688
10:10:01:879,0.2632,2.0447,12.9855,15.1403,0.1038,-0.303,-0.3256,229.9062
10:10:01:902,0.189,1.8027,10.4432,14.9382,0.3244,0.1936,-0.3292,229.9531
10:10:01:921,0.6799,1.9534,7.6277,14.7804,0.405,0.35,-0.3042,230.9688
10:10:01:941,1.1348,2.126,6.8925,14.4567,0.212,0.113,-0.3396,230.9688
10:10:01:959,0.2441,1.4438,8.2669,14.5308,-0.1319,-0.19,-0.452,232.6094
10:10:01:981,-0.711,0.7349,10.1486,14.3636,-0.4178,-0.1918,-0.4337,232.6094
10:10:02:003,-0.8139,1.1444,10.6514,14.1484,-0.471,0.0971,-0.2321,233.0312
10:10:02:020,-0.7014,1.9271,9.495,13.9765,-0.303,0.3824,-0.0367,233.0312
10:10:02:041,-0.6823,2.4562,7.5556,14.1672,-0.0947,0.4282,0.0586,232.8125
10:10:02:060,-0.3042,3.0763,6.3682,14.1642,-0.0275,0.2046,0.088,232.8125
10:10:02:081,-0.2321,3.4475,6.5145,14.1716,-0.1051,-0.0428,0.0287,231.9688
10:10:02:104,-0.6799,3.3565,7.3977,14.3006,-0.1552,-0.1955,-0.069,231.9688
10:10:02:120,-0.6799,3.4403,7.6397,14.0085,-0.1148,-0.1558,-0.1148,232.1719
10:10:02:140,-0.2922,3.7708,7.4336,14.0693,-0.1258,0.0373,-0.171,232.1875
10:10:02:159,-0.5818,3.6293,7.7354,13.928,-0.2004,0.1552,-0.2871,232.9219
10:10:02:181,-1.1898,3.0763,8.6354,14.074,-0.2523,0.1429,-0.3598,232.9844
10:10:02:205,-1.0056,3.0957,9.2605,13.8358,-0.1167,0.1888,-0.1533,233.6094
10:10:02:221,-1.7477,2.9183,9.2916,13.8872,-0.0177,0.1741,-0.0476,233.6719
10:10:02:241,-2.2528,2.7461,10.3065,13.6577,0.1655,-0.1203,0.2181,234.4688
10:10:02:259,-0.8835,4.1321,10.2203,13.4497,0.4239,-0.124,0.5944,234.5469
10:10:02:279,0.6535,5.607,9.2507,13.3202,0.6023,0.0171,0.7013,235.1719
10:10:02:304,0.6535,5.8008,8.8965,13.201,0.6457,-0.0764,0.4771,235.2344
10:10:02:320,0.0024,5.0348,9.9141,13.0607,0.5211,-0.2278,0.1942,235.1094
10:10:02:340,-0.2034,4.5727,10.9603,12.6383,0.2981,-0.1222,0.0367,235.1094
10:10:02:360,-0.6344,4.046,12.0326,12.6777,0.1619,0.0171,-0.055,234.9688
10:10:02:380,-1.3262,3.8976,11.5995,12.3093,0.2046,0.1393,-0.0764,234.9531
10:10:02:402,-1.8984,3.8163,10.4216,12.2527,0.2547,0.1478,-0.0336,235.1562
10:10:02:420,-1.8553,3.6894,10.7518,12.2857,0.1833,-0.1118,0.0684,235.625
10:10:02:442,-1.051,3.524,12.1693,12.4236,0.0635,-0.3183,0.1637,235.625
10:10:02:460,-0.4023,3.335,13.4189,12.48,-0.0354,-0.1472,0.1625,236.2812
10:10:02:482,-0.754,2.8777,13.2706,12.6364,0.0281,0.2663,0.0684,236.2812
10:10:02:502,-1.6041,2.2265,11.1111,12.8228,0.2798,0.5663,-0.0079,236.4531
10:10:02:524,-2.016,1.8386,8.7266,12.7604,0.46,0.5437,0.0043,236.4531
10:10:02:540,-2.0303,1.7022,7.7809,12.8871,0.3299,0.3616,0.0538,235.6406
10:10:02:560,-1.6113,1.6759,8.0919,12.8601,-0.0006,0.2248,0.1081,235.6406
10:10:02:582,-0.8306,1.8314,9.0209,12.76,-0.2908,0.1588,0.1264,234.4531
10:10:02:602,-0.3999,2.0734,9.8638,12.5896,-0.4429,0.2419,0.0635,234.4531
10:10:02:620,-0.6559,2.071,9.5907,12.5772,-0.4331,0.4746,-0.0519,234.3125
10:10:02:640,-1.0654,1.9463,8.6785,12.2708,-0.3396,0.689,-0.1271,234.3125
10:10:02:659,-1.5491,1.9681,7.5775,12.2541,-0.2333,0.7483,-0.1338,234.4375
10:10:02:681,-1.8362,1.8625,7.4264,12.3021,-0.1997,0.7049,-0.0794,234.4531
10:10:02:702,-1.9439,2.7628,6.0619,12.2971,-0.1472,0.7684,0.1478,234.4531
10:10:02:723,-2.4682,2.2265,5.6166,12.58,0.0574,0.0599,0.2114,234.4531
10:10:02:740,-1.9319,2.8178,7.0508,12.6765,-0.0421,-0.3396,0.3372,234.1875
10:10:02:759,-2.0782,2.9351,8.2047,12.9271,-0.3311,-0.0428,0.3372,234.1562
10:10:02:779,-2.7867,3.0165,8.7242,13.0344,-0.5479,0.2926,0.2773,234.0156
10:10:02:802,-3.7995,2.5738,8.8032,13.3296,-0.4765,0.0849,0.3219,234
10:10:02:823,-3.7564,2.6073,9.696,13.497,-0.2602,-0.3812,0.5394,233.8906
10:10:02:854,-2.5355,3.4355,10.3232,13.6465,-0.1521,-0.3971,0.7715,233.8906
10:10:02:862,-1.6543,4.3669,10.3496,13.8157,-0.1155,-0.0947,0.7929,233.5781
10:10:02:879,-1.6854,4.5105,10.0648,13.8894,-0.1002,0.1735,0.6133,233.5469
10:10:02:905,-2.2074,4.0914,9.6625,14.0169,-0.088,0.1942,0.4215,233.3438
10:10:02:922,-3.1196,3.4834,9.4184,14.0507,0.011,-0.2065,0.3586,233.3906
10:10:02:941,-3.3087,3.0933,10.3304,14.1425,0.1888,-0.9322,0.4423,233.3906
10:10:02:960,-2.3151,3.0763,11.8484,14.2009,0.3769,-1.4643,0.6426,233.2188
10:10:02:980,-1.0439,3.5169,12.5115,14.3047,0.482,-1.2583,0.8234,233.2188
10:10:03:005,-0.0311,3.6966,11.7048,14.2717,0.2608,-0.2773,0.8595,232.7188
10:10:03:020,-0.067,3.5695,10.328,14.3766,-0.2737,0.7434,0.7281,232.7188
10:10:03:042,-0.7612,2.8035,10.3615,14.3008,-0.8521,1.0959,0.5156,231.9688
10:10:03:059,-1.7453,1.8386,11.3791,14.555,-1.0507,0.6707,0.3751,231.9688
10:10:03:080,-1.9439,1.5586,12.1214,14.477,-0.609,-0.292,0.4129,231.125
10:10:03:105,-0.754,1.6878,11.3216,14.5305,0.1057,-0.846,0.5821,231.125
10:10:03:121,0.5243,2.339,9.4543,14.785,0.5339,-0.7831,0.667,229.7031
10:10:03:141,1.5132,2.5403,7.8981,14.8783,0.3097,-0.4087,0.5461,229.7031
10:10:03:159,1.9872,2.2481,7.2063,15.1099,-0.3555,-0.1716,0.2902,228.2656
10:10:03:180,1.3143,1.5467,7.3522,14.9642,-1.0861,-0.2358,-0.0324,228.125
10:10:03:206,-0.7038,0.4214,8.2023,15.0309,-1.8998,-0.6127,-0.2572,227.3281
10:10:03:274,-0.5698,0.5219,9.2076,14.9556,-1.8522,-0.6194,-0.044,227.25
10:10:03:274,0.0718,0.917,10.0696,15.1339,-1.5981,-0.2517,0.1985,226.4688
10:10:03:275,0.0191,1.2592,9.1478,15.4973,-1.2107,0.2676,0.314,226.3906
10:10:03:293,-0.213,1.343,7.6158,15.2862,-0.8246,0.4239,0.3274,224.9375
10:10:03:301,-0.6679,1.2975,7.1321,15.3417,-0.6212,0.3036,0.3262,224.7969
10:10:03:319,-1.1348,1.1611,8.2573,15.3565,-0.6072,0.1087,0.3586,223.25
10:10:03:339,-1.3478,0.8258,9.5237,15.4544,-0.532,0.0263,0.4258,223.1094
10:10:03:360,-1.1444,0.5794,9.9667,15.5746,-0.2895,0.0391,0.5314,222.125
10:10:03:380,-0.4932,0.7014,10.2634,15.7662,-0.0031,0.0189,0.6591,222.0312
10:10:03:403,-0.6272,0.2608,10.448,15.7834,0.1759,0.0715,0.7416,220.9844
10:10:03:423,0.0024,0.941,10.2491,15.6745,0.1949,0.2596,0.8949,220.0156
10:10:03:443,0.5818,1.5969,10.0528,15.7801,0.1692,0.3848,0.9389,220.0156
10:10:03:460,0.4836,1.8817,9.7367,15.8689,0.1625,0.4264,0.7837,220.2188
10:10:03:482,-0.079,1.8099,9.8399,15.994,0.1674,0.3806,0.6157,220.2188
10:10:03:502,-0.5889,1.427,10.2538,16.4833,0.204,0.2926,0.5626,220.4219
10:10:03:519,-1.0175,0.9529,10.8236,16.5888,0.2755,0.1973,0.6206,220.4219
10:10:03:541,-1.1731,0.5076,11.98,16.7534,0.3744,0.0849,0.7556,219.7344
10:10:03:559,-0.9745,0.5794,12.2913,16.8481,0.5076,0.0489,0.9041,219.7344
10:10:03:581,-0.6416,0.9793,11.7383,16.9418,0.5773,0.1234,1.0189,218.9375
10:10:03:604,-0.3305,1.3047,11.2786,16.9974,0.4704,0.2034,1.0757,218.9375
10:10:03:620,-0.7253,1.3023,11.9345,17.0335,0.2101,0.204,1.069,218.0156
10:10:03:640,-1.1396,0.9912,12.0446,17.1936,-0.1136,0.3183,1.094,218.0156
10:10:03:659,-1.6639,0.3736,12.7032,17.0092,-0.2395,0.3262,1.2247,216.8125
10:10:03:681,-1.9705,0.1005,12.6984,17.2551,-0.1087,0.3787,1.4447,216.6875
10:10:03:701,-1.9487,0.3233,11.6426,17.1701,0.2046,0.4624,1.6756,215.0781
10:10:03:719,-1.1683,0.984,9.7869,17.2806,0.4697,0.5119,1.8094,214.9062
10:10:03:742,-0.2417,1.5179,7.2637,17.413,0.2633,0.1655,1.2987,213.2188
10:10:03:760,-0.4214,0.7564,7.9723,17.3976,-0.0831,-0.2217,0.8613,213.0469
10:10:03:781,-0.7229,-0.067,9.3586,17.3509,-0.3317,-0.5241,0.5821,211.8906
10:10:03:802,-0.5315,-0.2994,10.4001,17.1938,-0.405,-0.5656,0.5571,211.7656
10:10:03:819,-0.0933,-0.0407,10.7806,17.2705,-0.3335,-0.3354,0.6249,210.4375
10:10:03:840,-0.0814,0.1819,9.5453,17.0589,-0.1875,0.1234,0.6475,210.3125
10:10:03:859,-0.4836,0.2536,7.8479,17.1536,-0.0965,0.4563,0.6475,208.4688
10:10:03:880,-0.8139,0.2321,6.8183,17.0488,-0.0647,0.4514,0.6854,208.2812
10:10:03:903,-0.9912,0.3544,6.615,17.1422,-0.0458,0.2223,0.7581,206.1719
10:10:03:920,-0.9314,0.6511,6.8279,17.5279,-0.0379,0.0049,0.857,203.3594
10:10:03:941,-0.4621,1.1827,7.1895,17.7049,-0.0544,-0.0996,0.9499,203.3594
10:10:03:960,0.0598,1.8242,7.6038,18.1373,-0.1209,-0.0953,0.9645,199.9062
10:10:03:980,0.2369,2.2074,7.9627,18.0956,-0.234,-0.0336,0.8625,199.9062
10:10:04:005,-0.201,2.0925,8.6641,18.2258,-0.3592,0.0043,0.697,196.125
10:10:04:020,-0.7158,1.817,9.5764,18.1459,-0.4251,0.0281,0.6084,196.125
10:10:04:041,-0.9362,1.8769,10.2203,18.3888,-0.408,0.0745,0.6524,193.75
10:10:04:059,-1.0152,2.1523,10.6346,18.5863,-0.3439,0.1264,0.7562,193.75
10:10:04:081,-0.7732,2.3222,10.8906,18.4927,-0.2737,0.1417,0.8686,192.4844
10:10:04:102,0.1579,2.703,11.6067,18.5031,-0.2584,0.0617,0.9199,192.4844
10:10:04:122,0.6009,2.4778,12.6888,18.684,-0.2584,-0.0788,0.7471,191.0469
10:10:04:142,0.146,1.3884,13.9768,19.0616,-0.2285,-0.2132,0.4361,191.0469
10:10:04:159,-1.2018,0.1125,14.4915,19.3831,-0.0629,-0.1869,0.3115,189.6562
10:10:04:183,-2.0136,-0.5818,12.8994,19.6386,0.2004,0.1338,0.6414,189.5156
10:10:04:203,-0.9625,-0.3425,11.2283,19.565,0.3256,0.372,1.2828,187.8906
10:10:04:220,0.4214,0.6464,11.1924,19.4184,0.2437,0.3183,1.7098,187.7188
10:10:04:243,2.071,1.7501,11.5373,19.5087,0.0415,0.2004,1.6524,185.7969
10:10:04:261,2.1811,1.4677,12.4971,19.6194,-0.1387,0.0287,1.0562,185.6094
10:10:04:283,0.4789,-0.5985,12.8372,19.53,-0.2144,0.0257,0.405,184
10:10:04:301,-0.632,-1.5251,12.2363,19.6498,-0.0806,0.0495,0.2718,183.8438
10:10:04:322,1.2616,-0.7134,11.1254,19.552,0.6005,-0.0617,0.7575,182.5
10:10:04:340,2.6862,0.2776,10.5126,19.6047,0.8191,-0.0305,0.7813,182.3594
10:10:04:359,3.134,0.9434,9.7989,19.7003,0.8246,0.1252,0.4887,180.6875
10:10:04:380,2.272,0.754,8.9228,19.8075,0.6707,0.383,0.0428,180.5156
10:10:04:403,0.7086,0.2177,8.0201,19.8734,0.4893,0.628,-0.2584,178.7969
10:10:04:421,-0.1699,0.3544,7.302,19.9088,0.3671,0.7904,-0.2492,177.7969
10:10:04:440,-0.4023,0.8186,6.4352,19.9368,0.2938,0.8674,-0.1038,177.7969
10:10:04:459,-0.3401,1.4174,5.8968,19.8343,0.2376,0.7972,0.0238,175.7031
10:10:04:482,-0.2417,1.8218,5.9303,19.7829,0.1857,0.5999,0.0745,175.7031
10:10:04:504,-0.3736,1.9271,6.2486,19.8308,0.1271,0.4056,0.069,172.0156
10:10:04:520,-0.8524,1.7237,6.5958,19.8141,0.0287,0.3097,0.0837,172.0156
10:10:04:542,-1.0008,1.6639,7.29,19.8729,-0.0709,0.2266,0.1961,170.3594
10:10:04:560,-0.7493,1.9825,8.5469,19.961,-0.1167,0.1423,0.3531,170.3594
10:10:04:581,-0.309,2.7269,9.3156,20.0188,-0.0721,0.1448,0.4545,170.3438
10:10:04:605,0.2154,3.2512,9.9236,20.14,-0.0501,0.2388,0.4258,169.5
10:10:04:620,0.2393,3.4307,10.4599,20.2581,-0.0843,0.3958,0.2859,167.9375
10:10:04:642,-0.9099,2.7341,10.3639,20.4767,-0.0373,0.449,0.157,167.9375
10:10:04:659,-2.0901,2.0686,10.4121,20.6045,0.0996,0.2572,0.2529,167.4219
10:10:04:683,-1.841,2.3629,10.8954,20.9446,0.2297,0.0098,0.6102,167.4219
10:10:04:704,-0.8067,3.0739,11.0393,21.1614,0.3005,-0.0464,0.9383,167.8594
10:10:04:721,-0.1053,3.4068,10.7183,21.3525,0.2614,0.0751,1.0519,167.9062
10:10:04:742,-1.3813,2.4036,10.1007,21.8443,0.1087,0.237,0.9059,167.8906
10:10:04:761,-2.7413,1.6926,9.44,21.8204,0.0147,0.2346,1.0091,167.8906
10:10:04:782,-2.7724,1.8505,9.361,22.0425,-0.1527,0.1038,1.372,167.6875
10:10:04:803,-1.2138,2.8753,9.8303,22.1914,-0.2749,-0.179,1.7428,167.6562
10:10:04:820,1.118,4.1393,11.19,22.4635,-0.3066,-0.5418,1.807,167.3281
10:10:04:843,2.4227,4.6277,11.9704,22.7514,-0.2627,-0.7202,1.4056,167.2969
10:10:04:859,1.6472,3.6413,12.521,22.8603,-0.2895,-0.5449,0.7092,166.4375
10:10:04:880,-0.2827,2.0686,12.5904,23.2221,-0.3109,-0.1136,0.1442,166.3438
10:10:04:903,-1.7836,0.9218,11.3001,23.368,-0.2034,0.3592,-0.033,165.5469
10:10:04:920,-2.0973,0.7708,9.6338,23.9988,-0.0843,0.5705,0.0941,164.9531
10:10:04:941,-1.7764,0.9793,7.8,24.3176,-0.0751,0.4404,0.2303,164.9531
10:10:04:960,-1.3382,1.2832,7.934,24.5414,-0.2523,-0.0128,0.2162,163.3438
10:10:04:980,-1.4868,0.8883,9.6936,24.6926,-0.4673,-0.4441,0.0629,163.3438
10:10:05:003,-2.126,0.1651,10.7303,24.7933,-0.485,-0.551,-0.0348,161.125
10:10:05:019,-2.406,-0.2082,9.8495,25.2033,-0.3396,-0.3323,0.0812,161.125
10:10:05:041,-1.386,0.4478,8.3626,25.2446,-0.2932,-0.0055,0.3128,159.1562
10:10:05:059,0.5004,1.8242,7.448,25.3988,-0.394,0.1845,0.394,158.9531
10:10:05:080,1.3119,2.2361,7.3475,25.5003,-0.5724,0.2401,0.1484,158.9375
10:10:05:102,0.5076,1.5538,7.4599,25.7407,-0.7049,0.2468,-0.19,155.4844
10:10:05:119,-0.5746,1.1276,7.922,25.9951,-0.6457,0.0916,-0.3024,152.0625
10:10:05:141,-0.687,1.3693,8.4535,26.4361,-0.4264,-0.0959,-0.1991,152.0625
10:10:05:159,-0.0981,1.9128,8.5038,26.7943,-0.2413,-0.1106,-0.0996,151.125
10:10:05:181,0.4549,2.557,8.7649,26.9512,-0.1729,0.0018,-0.1179,151.125
10:10:05:202,0.1292,2.5714,8.2669,27.2181,-0.0928,0.0654,-0.2633,150.9219
10:10:05:220,-0.4549,1.9319,8.0082,27.5089,-0.0128,-0.0892,-0.3909,150.8906
10:10:05:241,-0.5195,1.5132,8.7482,27.819,-0.0391,-0.3402,-0.3916,150.3594
10:10:05:260,0.4693,2.1715,10.7518,28.113,-0.0941,-0.5418,-0.3207,150.3125
10:10:05:339,1.1803,2.3988,11.3743,28.6323,0.0904,-0.419,-0.5809,150.2969
10:10:05:340,-0.1436,1.4174,10.5987,28.9294,0.1075,-0.2999,-0.7043,150.2969
10:10:05:340,-1.0367,0.8668,10.4886,29.4756,0.0593,-0.3427,-0.5669,149.8906
10:10:05:340,-1.2233,0.7038,11.566,30.0003,0.0134,-0.5021,-0.2944,149.8438
10:10:05:359,-0.7349,0.9075,12.0879,30.6215,-0.0086,-0.5101,0.0183,149.1719
10:10:05:380,0.1747,0.8524,11.6593,31.1989,-0.11,-0.3121,0.2248,149.1094
10:10:05:401,0.4741,0.5171,12.0518,31.6124,-0.3793,-0.1307,0.2291,149.4375
10:10:05:420,0.3018,-0.2034,13.0669,32.0481,-0.6255,-0.0574,0.1222,149.7188
10:10:05:440,-0.1914,-0.7875,14.5872,32.5414,-0.6151,-0.146,0.033,149.7188
10:10:05:461,-0.6368,-1.0056,14.7763,33.096,-0.2902,-0.1509,0.0574,150.125
10:10:05:481,-0.2249,-0.6248,12.7319,33.2381,0.1759,0.0269,0.2077,150.125
10:10:05:504,0.9266,0.1795,9.7582,33.7372,0.5003,0.1674,0.3354,151.0156
10:10:05:520,1.992,0.7469,7.8407,34.0203,0.4954,0.1179,0.2663,151.0156
10:10:05:540,2.4395,0.8258,8.0584,34.0535,0.2071,-0.0305,0.0031,151.0312
10:10:05:559,1.9582,0.3042,9.3658,34.2375,-0.1075,-0.0556,-0.3201,151.8594
10:10:05:580,0.5578,-0.3999,9.6051,34.4042,-0.2169,0.11,-0.5375,151.8594
10:10:05:604,-0.2752,-0.4549,8.5684,34.4851,-0.1668,0.336,-0.493,153.3438
10:10:05:619,-0.1723,0.0526,7.1465,34.5339,-0.1405,0.4862,-0.3134,154.375
10:10:05:640,0.2201,0.6966,6.7418,34.7794,-0.2272,0.4771,-0.1991,154.375
10:10:05:661,0.201,1.1372,7.2517,34.8808,-0.3085,0.3561,-0.1942,154.1562
10:10:05:681,0.1914,1.494,7.6875,34.9208,-0.2541,0.2016,-0.2016,154.1562
10:10:05:702,0.3185,1.7142,7.7091,35.3763,-0.1112,0.0599,-0.1979,153.7656
10:10:05:720,0.4358,1.8147,7.9579,35.5161,-0.0324,-0.0421,-0.2028,153.7344
10:10:05:741,0.364,1.7501,8.8391,35.8021,-0.0458,-0.0623,-0.2114,153.5938
10:10:05:759,0.1436,1.6448,9.8109,36.0015,-0.0617,0.0397,-0.215,153.5781
10:10:05:782,-0.0024,1.5969,9.9188,36.2136,-0.0208,0.2602,-0.1949,153.0781
10:10:05:804,-0.1172,1.5826,9.2387,36.2573,0.0696,0.4526,-0.149,153.0156
10:10:05:819,-0.4143,1.8051,9.2773,36.5596,0.0739,0.3482,-0.1148,152.7812
10:10:05:840,-0.553,1.829,9.6362,37.048,0.0947,0.2596,-0.0611,152.7656
10:10:05:859,-0.8859,1.7261,10.4025,37.2922,0.0977,0.1906,-0.0012,153.5781
10:10:05:879,-1.0917,1.4294,11.5253,37.7044,0.1032,0.1478,0.0696,153.6719
10:10:05:904,-1.2999,0.9314,12.1956,38.0672,0.1582,0.1643,0.1509,154.4062
10:10:05:922,-1.7764,0.6296,12.2937,38.3904,0.1979,0.2523,0.2676,154.7969
10:10:05:940,-1.5467,0.6559,11.834,38.7361,0.1521,0.3445,0.4374,154.7969
10:10:05:959,-0.9721,0.6535,11.9249,39.076,0,0.3115,0.5272,155.2188
10:10:05:980,-0.7899,0.3855,13.3185,39.2869,-0.2028,0.1723,0.4667,155.2188
10:10:06:004,-0.9529,-0.2201,14.2759,39.3769,-0.2413,0.0641,0.3525,155.2188
10:10:06:019,-1.3095,-0.6942,14.0725,39.497,-0.0586,-0.0079,0.2871,155.6719
10:10:06:041,-1.5921,-0.6488,12.5043,39.9189,0.2138,-0.0037,0.3134,155.6719
10:10:06:059,-1.4294,-0.2656,9.9954,40.2336,0.369,0.0922,0.3861,156.1094
10:10:06:082,-0.5985,0.2584,8.1377,40.3479,0.2737,0.1124,0.4062,156.4219
10:10:06:102,-0.0048,0.4119,8.2525,40.5931,0.0018,-0.066,0.2529,156.4219
10:10:06:120,0.1651,0.2994,9.373,40.8898,-0.182,-0.3415,-0.0165,156.5938
10:10:06:141,-0.1125,-0.0502,9.9045,41.1317,-0.1723,-0.5107,-0.284,156.5938
10:10:06:159,-0.7947,-0.3066,9.3634,41.5224,-0.0922,-0.5015,-0.4587,156.5312
10:10:06:182,-1.1587,-0.4382,8.5349,41.755,-0.022,-0.4563,-0.4728,156.5312
10:10:06:202,-1.4151,-0.5411,7.9747,41.7722,-0.0238,-0.4044,-0.3775,156.125
10:10:06:222,-1.5778,-0.5483,7.8526,41.7668,-0.0489,-0.3732,-0.1955,156.0938
10:10:06:242,-1.3167,-0.2297,8.013,41.8279,-0.0733,-0.3018,0.0574,155.1094
10:10:06:260,-0.7038,0.3736,7.5894,42.0297,-0.0599,-0.16,0.317,155.0156
10:10:06:282,0.4645,1.9128,7.1656,42.3226,-0.0214,-0.1399,0.5149,154.125
10:10:06:303,0.6942,2.3605,7.1441,42.4419,-0.0171,-0.1949,0.4129,154.0312
10:10:06:320,0.984,2.4873,7.3451,42.6079,-0.1045,-0.2156,0.2272,153.4531
10:10:06:344,0.8306,2.1404,8.5349,42.4615,-0.2889,-0.2065,-0.0073,153.3906
10:10:06:359,0.1819,1.5371,10.0409,42.4618,-0.4313,-0.1442,-0.1936,152.6562
10:10:06:379,-0.6488,0.8907,11.1446,42.723,-0.4013,-0.0721,-0.226,152.5781
10:10:06:401,-1.0774,0.7301,11.6521,43.2153,-0.2028,-0.0055,-0.047,152.3438
10:10:06:419,-0.1268,1.4055,11.2786,43.3059,0.0641,0.0837,0.27,153.0938
10:10:06:440,2.0973,2.7652,11.2762,43.2623,0.1991,0.1356,0.4282,153.0938
10:10:06:459,3.9598,3.7253,12.2913,43.1819,0.1246,0.1875,0.135,154.1562
10:10:06:480,1.963,2.2265,13.4213,43.2586,0.0941,0.2089,-0.587,154.1562
10:10:06:501,-1.2138,-0.1723,13.6558,43.4271,0.295,0.0678,-0.9926,154.1719
10:10:06:519,-2.8729,-0.8931,13.2156,43.512,0.5443,-0.0446,-0.6756,154.3594
10:10:06:539,-1.4677,-0.2728,11.6378,43.5595,0.6823,0.011,0.0654,154.3594
10:10:06:559,0.6631,1.0582,10.625,43.4764,0.5754,-0.047,0.5565,153.4844
10:10:06:580,2.2887,1.7261,11.1206,43.562,0.212,-0.2132,0.5186,153.4844
10:10:06:601,2.3892,0.7014,13.2132,43.7727,-0.16,-0.3152,0.1075,152.4844
10:10:06:619,1.2832,-0.5961,14.1538,44.0435,-0.1985,-0.182,-0.2682,152.2188
10:10:06:640,0.0096,-1.3406,12.4564,43.847,0.102,0.0983,-0.3891,152.2188
10:10:06:660,-0.2922,-1.4797,9.3395,43.9411,0.4478,0.2285,-0.2761,152.625
10:10:06:680,0.5148,-1.1324,7.2398,44.1531,0.529,0.0647,-0.1087,152.625
10:10:06:702,1.4677,-0.6966,7.491,43.9522,0.2865,-0.2101,-0.0855,152.375
10:10:06:719,1.7812,-0.5291,8.985,43.8225,-0.0806,-0.2498,-0.2217,152.375
10:10:06:740,1.1468,-0.5004,9.5405,43.815,-0.3237,0.0525,-0.3916,151.8281
10:10:06:760,0.2465,-0.3473,8.3315,43.8093,-0.3366,0.4435,-0.4368,151.75
10:10:06:780,-0.1053,0.189,6.5097,43.6443,-0.234,0.6005,-0.3372,153.3438
10:10:06:801,-0.0407,1.331,5.9375,43.4575,-0.1875,0.4545,-0.2382,153.5
10:10:06:820,-0.0981,1.5538,6.5169,43.6793,-0.2877,0.1032,-0.2474,154.2188
10:10:06:840,-0.0239,1.7859,7.2398,43.4057,-0.3396,0.0819,-0.2498,154.2969
10:10:06:859,-0.0383,1.9008,8.0489,43.5577,-0.3647,0.1124,-0.2694,153.3125
10:10:06:879,-0.2154,1.6998,8.6737,43.8953,-0.3549,0.1692,-0.3091,153.2188
10:10:06:900,-0.5985,1.3095,9.2387,43.9062,-0.3476,0.234,-0.3152,153.375
10:10:06:919,-0.8234,1.1611,9.8303,43.9202,-0.3451,0.2828,-0.237,154.0625
10:10:06:939,-0.7708,1.2281,10.491,44.0179,-0.2914,0.2895,-0.1155,154.0625
10:10:06:960,-0.5889,1.264,10.6657,44.2197,-0.1906,0.3189,-0.0055,154.4062
10:10:06:979,-0.5052,1.3549,10.9217,44.1911,-0.1045,0.3464,0.088,154.4062
10:10:07:002,-0.6176,1.6663,10.9385,44.377,-0.014,0.361,0.1778,154.4219
10:10:07:019,-0.5865,2.059,10.4815,44.4873,0.0843,0.3207,0.2645,155.0781
10:10:07:040,0.055,2.2146,10.6011,44.5344,0.124,0.1405,0.3024,155.0938
10:10:07:059,0.4813,2.0016,11.5325,44.4824,0.0874,-0.036,0.2266,155.8125
10:10:07:080,-0.1651,1.4557,12.3559,44.4533,0.0134,-0.0202,0.0764,155.8125
10:10:07:101,-0.7325,0.6176,12.6434,44.4017,-0.0458,0.0916,-0.0024,156.2344
10:10:07:119,-0.8402,-0.1436,12.8228,44.3579,-0.0916,0.1301,0.0342,156.7031
10:10:07:140,-0.9793,-0.5195,13.742,44.4334,-0.1716,0.0678,0.0928,156.7031
10:10:07:160,-1.2784,-0.7828,14.549,44.3309,-0.1942,0.0611,0.1295,157.25
10:10:07:180,-1.6089,-0.9721,14.3046,44.22,-0.0544,0.1759,0.1949,157.25
10:10:07:201,-1.8721,-0.8477,12.3057,44.0649,0.2315,0.3299,0.314,157.75
10:10:07:219,-1.6831,-0.4238,9.8181,44.0339,0.4881,0.314,0.4416,157.75
10:10:07:240,-1.0989,0.0861,8.365,43.8877,0.5406,0.0739,0.4807,157.7969
10:10:07:259,-0.6918,0.2584,8.3267,43.9781,0.3665,-0.1918,0.3635,157.8125
10:10:07:280,-0.7397,-0.1053,9.5213,43.9973,0.08,-0.3128,0.1552,157.5156
10:10:07:301,-1.1635,-0.5076,10.34,43.7363,-0.1203,-0.1955,-0.0043,157.4844
10:10:07:320,-1.6017,-0.7014,9.8614,43.6682,-0.0855,0.1674,-0.0183,156.9219
10:10:07:387,-1.5682,-0.3855,7.7809,43.7831,-0.0018,0.1313,0.0495,156.8594
10:10:07:388,-1.2855,-0.1819,7.1417,43.697,0.0617,0.0073,0.1203,156.5625
10:10:07:388,-0.8812,0.0335,6.8518,43.7713,0.066,-0.0922,0.1973,156.5469
10:10:07:406,-0.4645,0.3401,7.0579,43.7834,0.0226,-0.1387,0.2724,156.4844
10:10:07:419,-0.0909,0.8067,7.2398,43.7199,0.0024,-0.1326,0.3231,156.2031
10:10:07:439,0.1627,1.3382,7.1584,43.8352,0.011,-0.11,0.3262,156.2031
10:10:07:459,0.2584,1.6639,7.1967,43.8946,-0.0189,-0.1191,0.2566,156.1719
10:10:07:480,0.1579,1.7309,7.5676,43.862,-0.1087,-0.1429,0.1393,155.6719
10:10:07:501,-0.0814,1.6089,8.7362,43.4089,-0.2523,-0.1576,0.0208,155.625
10:10:07:519,-0.297,1.4725,10.1773,43.4773,-0.3555,-0.1118,-0.0507,154.7344
10:10:07:540,-0.3233,1.5754,11.4796,43.3383,-0.2877,-0.0647,-0.0672,154.7344
10:10:07:559,-0.1077,1.9271,12.8133,43.3055,-0.0287,-0.0293,-0.0715,154.25
10:10:07:579,-0.2034,2.3749,12.7534,43.4203,0.3616,0.0935,-0.1118,154.25
10:10:07:602,-0.6081,2.5232,11.147,43.3674,0.7019,0.2248,-0.2004,154.2969
10:10:07:619,-0.7899,2.4514,10.1366,43.2137,0.7837,0.1613,-0.2895,154.2188
10:10:07:641,-0.7995,2.193,10.4886,43.3915,0.6322,-0.0312,-0.3677,154.2188
10:10:07:659,-0.7684,1.6208,12.2435,43.6512,0.408,-0.1472,-0.4197,153.9062
10:10:07:680,-1.2281,1.13,13.4548,43.7109,0.3256,-0.0617,-0.4068,153.9062
10:10:07:701,-1.0702,1.0774,12.4875,43.8326,0.4563,0.0965,-0.2676,153.2656
10:10:07:719,0.2321,1.5873,11.0704,43.7236,0.5345,0.0721,-0.1301,153.2656
10:10:07:740,1.0654,1.7237,10.9986,43.6256,0.3268,-0.0654,-0.2498,152.7031
10:10:07:759,0.6966,0.4238,12.8563,43.3923,-0.102,-0.0684,-0.5834,152.6406
10:10:07:781,-0.5913,-0.9553,14.6877,43.7028,-0.3653,0.1503,-0.8118,152.4531
10:10:07:804,-1.8577,-1.7788,13.9887,43.7126,-0.149,0.4423,-0.7507,152.4375
10:10:07:819,-1.9872,-1.9439,10.8787,43.6758,0.3451,0.543,-0.4209,152.4844
10:10:07:841,0.8282,0.2489,7.0531,43.7037,0.4985,0.0336,0.2022,152.4844
10:10:07:860,1.9104,0.8501,8.2525,43.7143,0.1301,-0.2046,0.0977,152.7031
10:10:07:880,1.7716,0.6679,9.7606,44.0191,-0.1527,-0.1643,-0.1857,152.7188
10:10:07:899,0.7804,0.2225,9.6147,43.9257,-0.193,0.1161,-0.4099,153.375
10:10:07:921,-0.0742,-0.0215,8.4727,44.1475,-0.0684,0.3286,-0.4471,154.3438
10:10:07:940,-0.2827,0.2154,7.2135,44.0434,0.1093,0.3231,-0.328,154.3438
10:10:07:959,0.0479,0.8572,6.3323,44.0768,0.2492,0.171,-0.1716,154.4375
10:10:07:980,0.7158,1.707,6.05,44.0419,0.2908,0.0171,-0.0898,155.2188
10:10:08:005,1.2209,2.4132,6.1887,43.9085,0.215,-0.0073,-0.1576,155.2969
10:10:08:022,1.0008,2.5283,6.4208,43.7748,0.058,0.1112,-0.3714,155.8281
10:10:08:042,0.1555,2.2289,6.6485,43.9724,-0.1252,0.2877,-0.5858,155.8281
10:10:08:060,-0.754,1.9439,7.1345,44.1071,-0.2975,0.4093,-0.6701,157.2812
10:10:08:082,-1.1635,2.0016,7.9268,44.2938,-0.3946,0.4007,-0.6139,157.2969
10:10:08:103,-1.2975,2.1954,8.6019,44.3314,-0.3903,0.3237,-0.5107,158.5156
10:10:08:119,-1.3406,2.3294,9.1765,44.4642,-0.35,0.2443,-0.4135,158.4531
10:10:08:140,-1.3167,2.4419,10.06,44.5478,-0.3341,0.1741,-0.3146,158.4531
10:10:08:160,-1.4004,2.6049,11.4245,44.6948,-0.3164,0.1387,-0.2181,158.5781
10:10:08:181,-1.4725,2.7197,12.1095,44.7931,-0.1985,0.1735,-0.1228,158.5781
10:10:08:202,-1.2209,2.6743,12.0422,44.6351,-0.0012,0.1698,-0.0373,159.4375
10:10:08:219,-1.0175,2.3653,12.0637,44.7158,0.1771,0.0452,-0.0159,159.4375
10:10:08:240,-1.3669,1.8529,12.4517,44.652,0.2853,-0.0702,-0.0525,160
10:10:08:259,-2.2098,1.707,12.0063,44.471,0.3299,0.0147,-0.0287,160
10:10:08:281,-2.1763,1.9896,11.0608,44.4463,0.259,0.1662,0.1093,160.3281
10:10:08:302,-1.4486,2.1141,11.4628,44.6521,0.0379,0.1515,0.1888,160.3594
10:10:08:320,-1.276,1.3717,12.7247,44.7227,-0.1802,0.0379,0.0831,161.2656
10:10:08:342,-1.9104,0.285,13.8069,44.741,-0.2309,-0.0599,-0.0635,161.3594
10:10:08:360,-2.4251,-0.3879,13.9481,44.8402,0.2388,0.036,0.0757,162.4688
10:10:08:380,-2.339,-0.4406,9.9643,44.8036,0.4325,0.0806,0.2492,162.5781
10:10:08:404,-1.7237,0.0024,8.7601,44.7196,0.4209,-0.0336,0.3464,163.3438
10:10:08:419,-1.1874,0.3138,8.4392,44.771,0.2828,-0.1936,0.3048,163.4219
10:10:08:440,-1.1803,0.2321,8.8606,44.8751,0.0709,-0.2627,0.157,163.8125
10:10:08:459,-1.5084,-0.0837,9.1741,44.7412,-0.1075,-0.1729,0.0287,163.8594
10:10:08:480,-1.6184,-0.1579,8.7721,44.5921,-0.1936,-0.0177,0.0061,163.9688
10:10:08:504,-1.5084,-0.0455,8.2167,44.7139,-0.2309,0.0519,0.0409,163.9844
10:10:08:520,-1.4629,0.0167,7.9005,44.8379,-0.2468,0.0153,0.08,164.1406
10:10:08:540,-1.4629,0.1388,7.9005,44.9528,-0.248,-0.0623,0.1429,164.1562
10:10:08:560,-1.185,0.5028,7.9843,45.0538,-0.2071,-0.1411,0.2627,164.1562
10:10:08:580,-0.6344,1.2257,7.946,45.4248,-0.1148,-0.2089,0.3928,164.1562
10:10:08:606,-0.146,1.9681,7.6181,45.3535,-0.0238,-0.2217,0.4526,163.8281
10:10:08:620,0.2058,2.6145,7.1871,45.3185,0.0073,-0.2065,0.4184,163.9062
10:10:08:641,0.0814,2.8657,7.381,45.2674,-0.0495,-0.2217,0.2785,163.9062
10:10:08:661,-0.2994,2.6695,8.135,45.2862,-0.1332,-0.2413,0.1069,163.6875
10:10:08:681,-0.7469,2.5714,8.6761,45.2146,-0.1765,-0.2199,-0.0067,163.6875
10:10:08:703,-1.0869,2.4227,9.3299,45.1359,-0.1961,-0.1973,-0.0593,163.125
10:10:08:719,-1.3286,2.3151,10.2108,45.1075,-0.1784,-0.2052,-0.058,163.125
10:10:08:740,-1.2425,2.4897,10.8476,45.0595,-0.0959,-0.1912,-0.0012,162.9531
10:10:08:759,-0.9721,2.7676,11.1159,44.9282,0.0086,-0.1503,0.0421,162.9531
10:10:08:781,-0.8477,2.6551,11.281,44.9293,0.0855,-0.1209,0.0128,162.8281
10:10:08:805,-1.2951,2.059,11.5062,44.9999,0.1301,-0.1289,-0.0464,162.8125
10:10:08:820,-1.7022,1.5251,11.834,45.0415,0.1747,-0.168,-0.0153,162.5
10:10:08:844,-1.6424,1.319,11.7838,44.8882,0.2578,-0.1826,0.1252,162.4844
10:10:08:861,-1.1994,1.5347,11.056,45.0835,0.3354,-0.1509,0.2895,161.7969
10:10:08:880,0.4406,2.4275,10.6872,45.2497,0.3237,-0.16,0.3867,161.7188
10:10:08:899,1.5036,2.217,12.5904,45.0886,-0.014,-0.4355,0.1588,160.8906
10:10:08:920,1.6711,1.0534,14.5083,45.1907,-0.1356,-0.4111,-0.1845,160.7969
10:10:08:939,0.2752,-0.352,15.1235,45.3651,-0.0764,-0.1307,-0.5131,160.4219
10:10:08:960,-1.2879,-1.3262,12.6864,45.481,0.2443,0.2853,-0.5424,160.375
10:10:08:980,-1.118,-0.8234,9.1573,45.5601,0.6328,0.4251,-0.1942,160.4062
10:10:09:005,0.5746,0.6655,6.9165,45.7254,0.7831,0.1216,0.11,160.4062
10:10:09:020,1.7716,1.5969,7.3044,45.3611,0.5412,-0.3005,-0.0324,160.4531
10:10:09:040,1.4055,0.9505,9.1645,45.4198,0.0397,-0.3219,-0.4563,160.4688
10:10:09:060,-0.0359,0.1531,10.127,45.5538,-0.3598,0.0501,-0.7544,160.4375
10:10:09:081,-1.4916,-0.1412,9.7415,45.7538,-0.4691,0.4111,-0.7648,160.5781
10:10:09:104,-2.126,0.1507,8.5325,45.7069,-0.3299,0.5198,-0.5296,160.5781
10:10:09:121,-1.8218,0.9003,7.1752,45.7737,-0.0922,0.3641,-0.2144,160.25
10:10:09:142,-1.2329,1.6926,6.7944,45.8579,0.0782,0.0641,0.0049,160.25
10:10:09:160,-0.7947,2.1165,6.8279,46.1204,0.1442,-0.1228,0.0867,159.5469
10:10:09:182,-0.6751,2.138,6.816,46.358,0.1155,-0.1093,0.0965,159.5469
10:10:09:204,-0.5435,2.272,6.9571,46.2975,0.0183,-0.0104,0.1283,159.6094
10:10:09:221,-0.2776,2.5905,7.3522,46.3717,-0.0886,0.0776,0.1649,159.6094
10:10:09:240,-0.0837,2.8657,7.9101,46.2978,-0.1527,0.1118,0.1478,160.7812
10:10:09:260,-0.285,2.8801,8.741,46.4174,-0.1845,0.0953,0.0721,160.7812
10:10:09:281,-0.3879,2.7245,9.8447,46.4851,-0.1607,0.0495,0.0299,161
10:10:09:304,-0.3066,2.7102,10.9146,46.3671,-0.0715,0.0195,0.0391,161.0312
10:10:09:320,-0.4119,2.624,11.4461,46.1212,0.0739,0.0519,0.0538,161.6562
10:10:09:341,-0.754,2.6623,11.391,46.198,0.2486,0.1179,0.1087,161.7188
10:10:09:361,-0.1029,3.5025,11.1613,46.2814,0.4875,0.0861,0.3274,163.0781
10:10:09:382,0.3473,3.548,11.8005,46.4123,0.46,-0.0305,0.2529,163.2188
10:10:09:404,-0.1196,2.904,12.9879,46.4925,0.3665,-0.0525,0.0739,163.8281
10:10:09:471,-0.8596,2.3342,13.3472,46.2738,0.3317,0.0751,-0.0153,163.9062
10:10:09:471,-1.2855,2.1523,12.7582,46.1853,0.3641,0.2156,0.0287,163.8438
10:10:09:471,-1.439,2.5137,11.5612,46.4607,0.3836,0.2651,0.1289,163.8438
10:10:09:479,-1.3143,2.7365,10.4767,46.5617,0.3189,0.193,0.1845,163.6406
10:10:09:499,-1.2688,2.6073,10.5939,46.6323,0.1973,-0.0263,0.1399,163.625
10:10:09:519,-1.7596,2.1452,11.1422,46.3896,0.1173,-0.1894,0.0354,163.2656
10:10:09:540,-2.5331,1.5179,10.989,46.3026,0.1466,-0.1668,-0.0195,163.2344
10:10:09:560,-3.0667,1.1563,9.7511,46.2217,0.2553,-0.0843,0.066,163.0469
10:10:09:580,-2.8825,1.2999,8.2454,46.5165,0.3201,-0.1069,0.2498,163.0469
10:10:09:604,-1.9801,1.5921,7.7833,46.3685,0.2303,-0.2853,0.3708,162.9375
10:10:09:619,-1.3765,1.3765,8.4631,46.1378,0.0287,-0.4789,0.3115,162.6406
10:10:09:639,-1.386,0.9721,8.9133,46.0462,-0.1924,-0.4759,0.1704,162.6406
10:10:09:660,-1.2832,0.7229,9.0449,45.8309,-0.3714,-0.3329,0.1045,162.1562
10:10:09:680,-1.1874,0.5794,9.1406,45.8748,-0.4508,-0.1759,0.1234,162.1562
10:10:09:701,-1.142,0.8067,9.1573,45.7943,-0.3824,-0.0464,0.2101,162.2031
10:10:09:719,-0.9745,1.1898,8.5875,45.6318,-0.1851,0.0654,0.3128,162.2031
10:10:09:740,-0.7181,1.5873,7.7258,45.4477,0.0305,0.0935,0.3775,162.0938
10:10:09:759,-0.7205,1.8482,7.2494,45.5632,0.1454,0.0336,0.383,162.0938
10:10:09:780,-0.8859,2.1141,7.156,45.5212,0.1564,-0.0312,0.3812,161.7969
10:10:09:802,-1.0152,2.3414,7.2422,45.5706,0.1454,-0.0812,0.3922,161.7969
10:10:09:819,-0.9745,2.5738,7.1154,45.5469,0.1161,-0.0928,0.4044,161.8594
10:10:09:840,-0.4286,2.8681,7.0531,45.7061,0.014,-0.1008,0.4013,161.875
10:10:09:860,0.4262,3.3206,7.6732,45.4915,-0.1509,-0.1539,0.3274,161.6719
10:10:09:882,0.1842,2.7461,9.3467,45.4856,-0.2914,-0.212,-0.0751,161.6562
10:10:09:903,-0.3257,2.1619,9.4208,45.6205,-0.2028,-0.2217,-0.1527,161.1094
10:10:09:919,-0.0694,1.8817,9.2411,45.6241,-0.1081,-0.2853,-0.0654,161.0469
10:10:09:939,0.6655,1.8577,9.7822,45.5549,-0.0806,-0.4423,0.0336,160.7969
10:10:09:960,0.8716,1.7931,10.905,45.4974,-0.1716,-0.4838,0.0238,160.7812
10:10:09:979,0.3114,1.4988,11.6354,45.5899,-0.3317,-0.3091,-0.0031,160.375
10:10:10:000,-0.3138,1.5658,11.6091,45.507,-0.427,-0.1002,0.0928,160.3281
10:10:10:019,0.1603,1.8721,11.3504,45.6256,-0.4447,-0.0299,0.3018,159.5938
10:10:10:039,1.075,2.4156,11.415,45.5091,-0.4398,-0.0953,0.4178,159.5312
10:10:10:059,2.2146,2.5546,11.4867,45.3172,-0.4942,-0.1765,0.306,158.7188
10:10:10:081,2.3414,1.7764,12.5617,45.1488,-0.6609,-0.2413,-0.0544,157.9062
10:10:10:102,1.3813,0.5937,14.2017,45.2296,-0.7452,-0.2584,-0.4032,157.9062
10:10:10:119,0.5865,-0.1819,14.4509,45.2922,-0.543,-0.1362,-0.4948,157.1094
10:10:10:141,0.7325,-0.4501,13.1387,45.1237,-0.1704,0.036,-0.372,157.1094
10:10:10:160,1.5754,-0.2106,11.4245,45.1569,0.1246,0.1075,-0.2358,157.0312
10:10:10:180,2.2744,0.0383,10.2227,45.0493,0.2089,0.1118,-0.2639,157.0312
10:10:10:202,2.1117,-0.0096,9.3945,44.9888,0.1197,0.1814,-0.4459,157.2969
10:10:10:219,1.3502,-0.1555,8.6282,44.9676,-0.0244,0.3347,-0.6133,157.2969
10:10:10:240,0.6655,-0.1149,7.5775,45.1439,-0.11,0.4746,-0.6518,157.3281
10:10:10:259,0.2536,0.0909,6.5073,44.9991,-0.1472,0.5009,-0.595,157.3281
10:10:10:281,-0.0646,0.3257,6.1098,44.6847,-0.2101,0.3897,-0.5229,157.2031
10:10:10:306,-0.352,0.6224,6.428,44.7352,-0.2871,0.2413,-0.4441,157.2031
10:10:10:321,-0.3855,0.9984,6.9165,44.6764,-0.2963,0.157,-0.3268,156.4219
10:10:10:342,-0.1531,1.4916,6.9093,44.6213,-0.2511,0.1741,-0.201,156.3438
10:10:10:360,0.1819,1.9801,7.0484,44.9152,-0.2486,0.1997,-0.1362,156.0156
10:10:10:382,0.2321,2.5259,8.4392,44.8863,-0.3476,0.2004,-0.2486,155.9844
10:10:10:405,-0.268,2.3438,9.1669,44.606,-0.3525,0.2193,-0.3592,156.7969
10:10:10:420,-0.7971,2.0614,9.6386,44.52,-0.3066,0.2431,-0.394,156.875
10:10:10:439,-1.0056,1.9848,10.0241,44.7469,-0.2333,0.248,-0.3115,157.4688
10:10:10:459,-1.0391,2.1978,10.4839,44.6434,-0.1759,0.2523,-0.1826,157.5312
10:10:10:479,-1.0319,2.5475,10.759,44.4695,-0.1264,0.2871,-0.0635,158.25
10:10:10:500,-0.9075,2.7915,10.7207,44.4338,-0.1038,0.3299,0.014,158.3281
10:10:10:521,-0.6655,2.904,11.0178,44.4257,-0.1277,0.2883,0.0214,159.5
10:10:10:540,-0.5794,2.648,11.5612,44.4093,-0.1845,0.2059,-0.0654,159.625
10:10:10:560,-1.2544,1.9319,11.8268,44.5067,-0.2963,0.1686,-0.2114,160.6406
10:10:10:579,-1.8242,1.0391,12.6912,44.4512,-0.5101,0.1655,-0.2889,160.75
10:10:10:603,-2.2744,0.1699,14.2591,44.2336,-0.7068,0.2095,-0.2767,161.5
10:10:10:622,-2.4156,-0.4693,14.4102,44.2498,-0.7184,0.4007,-0.1472,161.7812
10:10:10:643,-2.1021,-0.7947,13.6463,44.21,-0.584,0.4624,0.0409,161.7812
10:10:10:660,-2.1595,-1.3525,14.1538,44.2337,-0.3873,0.1961,0.1362,162.1094
10:10:10:680,-2.5594,-1.8338,14.2352,44.0487,-0.0421,-0.0281,0.2388,162.1094
10:10:10:703,-2.5738,-1.8314,12.0494,43.9255,0.3806,0.0324,0.4862,162.8281
10:10:10:723,-1.7668,-1.1563,9.0736,43.95,0.6151,0.102,0.7801,162.8281
10:10:10:740,-0.7397,-0.3114,7.5823,43.9157,0.5229,-0.0947,0.8827,163.2812
10:10:10:761,-0.1866,-0.0646,8.2143,43.9348,0.2132,-0.4154,0.7403,163.2812
10:10:10:782,-0.4214,-0.2994,9.7247,43.8967,-0.0709,-0.5534,0.4997,163.2812
10:10:10:804,-1.0247,-0.6703,10.4575,43.9398,-0.1521,-0.4526,0.3341,163.2812
10:10:10:820,-1.4438,-0.8835,9.8495,43.8122,0.0073,-0.3005,0.3262,163.2656
10:10:10:842,-1.1922,-0.7325,8.4392,43.6844,0.2822,-0.2315,0.4704,163.2656
10:10:10:860,-0.4884,-0.1172,7.1608,43.5104,0.4942,-0.2663,0.6457,163.6406
10:10:10:881,-0.0455,0.6081,6.3586,43.4595,0.5595,-0.3439,0.6909,163.6719
10:10:10:905,0.3305,0.9936,5.9638,43.264,0.4923,-0.3635,0.6225,163.875
10:10:10:923,0.4454,1.2808,5.6955,43.256,0.3427,-0.2963,0.5052,163.8906
10:10:10:942,0.4573,1.4629,5.9112,43.0632,-0.0617,-0.1338,0.2242,163.5625
10:10:10:960,-0.2369,1.3478,7.6014,42.777,-0.1833,-0.1216,0.0965,163.5312
10:10:10:979,-0.5076,1.2209,8.2095,42.7564,-0.2376,-0.1136,-0.0055,162.8594
10:10:10:999,-0.711,1.0152,9.0808,42.7474,-0.3011,-0.1374,-0.0776,162.7969
10:10:11:023,-0.754,0.7971,10.4001,42.7202,-0.3409,-0.1625,-0.0721,161.3125
10:10:11:040,-0.6942,0.8019,11.5421,42.7558,-0.3103,-0.0629,0.0428,161.1719
10:10:11:060,-0.285,1.1515,12.0206,43.1621,-0.2211,0.1307,0.223,159.9688
10:10:11:083,0.3233,1.4103,12.253,43.0725,-0.1148,0.1997,0.3005,159.1094
10:10:11:099,0.6176,1.0463,13.206,43.2696,-0.0446,0.0617,0.2089,159.1094
10:10:11:121,0.3568,0.2154,14.391,43.2795,0.0452,-0.0959,0.102,158.0312
10:10:11:141,0.5698,0.2058,13.8452,43.0647,0.2468,-0.0531,0.1985,158.0312
10:10:11:160,1.7596,0.8306,11.9536,42.9047,0.3922,0.0654,0.3573,156.7812
10:10:11:181,3.0117,1.6783,11.1302,43.0155,0.248,0.0373,0.2883,156.7812
10:10:11:204,3.1866,1.4486,12.5091,42.8054,-0.171,0.0202,-0.1038,155.9062
10:10:11:223,1.5419,-0.4501,14.6734,42.4923,-0.4991,0.168,-0.5925,155.9062
10:10:11:242,-0.5171,-2.1141,14.8409,42.39,-0.3836,0.3958,-0.766,155.5156
10:10:11:261,-1.331,-2.9016,13.0334,42.097,0.091,0.4649,-0.5186,155.5156
10:10:11:282,-0.1172,-2.4849,11.0465,41.996,0.6047,0.2156,-0.0562,155.5469
10:10:11:302,2.205,-1.1348,9.7917,42.1605,0.8656,-0.11,0.2602,155.5469
10:10:11:324,3.8713,-0.0431,8.9898,42.1204,0.7605,-0.1588,0.16,155.5156
10:10:11:341,3.3924,-0.0096,8.4846,42.1811,0.3964,0.1161,-0.2688,155.5156
10:10:11:360,1.5873,-0.3449,7.7785,42.0284,0.0788,0.4856,-0.6359,154.9375
10:10:11:381,0.1292,-0.3497,6.3706,41.7039,0.0079,0.6536,-0.697,154.875
10:10:11:404,-0.0311,0.5626,5.1257,41.6226,0.0782,0.135,-0.3494,154.5625
10:10:11:422,0.3616,1.0439,5.5424,41.549,0.0195,-0.1319,-0.2517,154.5312
10:10:11:442,0.5291,1.5586,6.1457,41.4554,-0.11,-0.1857,-0.2407,154.0625
10:10:11:459,0.431,1.9777,6.7178,41.2755,-0.2303,-0.1032,-0.2969,154.0156
10:10:11:534,0.1172,2.1069,6.9212,41.1017,-0.2718,-0.011,-0.3995,153.8281
10:10:11:535,-0.2249,1.8864,7.3187,40.8261,-0.2938,0.0061,-0.507,153.8125
10:10:11:535,-0.5387,1.7548,8.3722,40.9029,-0.35,-0.0043,-0.5821,155.0156
10:10:11:539,-0.9147,1.6639,9.4041,40.9644,-0.3812,0.0519,-0.6237,155.1406
10:10:11:560,-1.3071,1.5012,10.1151,40.8616,-0.3635,0.16,-0.6237,155.7812
10:10:11:579,-1.6089,1.3214,10.9385,40.8239,-0.3115,0.248,-0.562,155.8594
10:10:11:600,-1.7979,1.2329,11.5158,40.7548,-0.2107,0.2981,-0.438,155.6562
10:10:11:619,-1.9367,1.3717,11.956,40.8447,-0.1002,0.3213,-0.2682,156.6719
10:10:11:639,-1.7955,1.5969,12.265,40.9315,-0.0043,0.3152,-0.0782,156.6719
10:10:11:659,-1.2497,1.7907,12.5234,40.9086,0.0867,0.2602,0.0794,157.9531
10:10:11:679,-0.7134,2.0423,12.6697,41.0144,0.1625,0.2052,0.157,157.9531
10:10:11:701,-0.9147,2.0183,12.696,41.061,0.2114,0.1723,0.1283,158.6406
10:10:11:719,-1.3214,1.6926,12.1693,41.0346,0.2285,0.1619,0.0996,158.6406
10:10:11:740,-1.3597,1.4605,12.0326,41.1925,0.1649,0.0892,0.1423,159.1875
10:10:11:759,-1.2042,1.2281,12.8994,41.2883,0.036,-0.0489,0.1936,159.1875
10:10:11:780,-1.0008,0.7229,13.6678,41.2162,-0.0458,-0.1295,0.2138,160.0938
10:10:11:802,-1.0056,0.1172,14.1754,41.1257,-0.0171,-0.1588,0.215,160.0938
10:10:11:819,-1.4246,-0.4167,13.8308,41.0792,0.1393,-0.0745,0.2382,161.2969
10:10:11:840,-1.7309,-0.7062,11.6641,40.8683,0.4264,0.0916,0.3494,161.2969
10:10:11:860,-1.5873,-0.3497,8.8941,40.9761,0.6921,0.0855,0.5162,162.375
10:10:11:881,-0.8835,0.2728,7.2182,40.9569,0.7245,-0.1503,0.5931,162.4688
10:10:11:902,-0.201,0.5626,6.9667,40.6222,0.4966,-0.3873,0.4868,163.125
10:10:11:920,-0.7564,-0.3305,8.9922,40.7585,0.1148,-0.4636,0.2413,163.1875
10:10:11:942,-1.2999,-0.644,9.1023,40.895,-0.1936,-0.3537,0.0238,163.1875
10:10:11:959,-1.6328,-0.7588,8.4607,40.9609,-0.2242,-0.0324,-0.0483,163.1875
10:10:11:979,-1.6854,-0.6655,7.5894,41.1157,-0.1313,0.0116,0.0458,162.9688
10:10:12:001,-1.5778,-0.4549,7.1273,41.0174,-0.088,-0.0275,0.157,162.9375
10:10:12:019,-1.2951,-0.2177,7.005,40.8386,-0.0715,-0.0959,0.2657,162.7656
10:10:12:039,-0.7851,0.1531,6.9811,40.7333,-0.0715,-0.1197,0.372,162.7344
10:10:12:059,-0.1436,0.7421,7.1943,40.6431,-0.1216,-0.0776,0.4416,162.3438
10:10:12:081,0.3185,1.5036,7.5556,40.5247,-0.182,-0.0159,0.4282,161.875
10:10:12:102,0.6488,2.1428,7.7665,40.2767,-0.2205,0.0446,0.3268,161.875
10:10:12:119,0.6846,2.4227,7.8168,40.3576,-0.2596,0.066,0.1539,161.0781
10:10:12:140,0.2154,2.3294,8.4057,40.4229,-0.3134,-0.0018,-0.0464,161.0781
10:10:12:159,-0.2225,2.1093,9.373,40.5001,-0.3586,-0.077,-0.1729,160.1562
10:10:12:180,-0.3449,1.9729,10.4695,40.6273,-0.361,-0.077,-0.1918,160.1562
10:10:12:201,-0.7445,1.8482,11.1111,40.5852,-0.2944,-0.0293,-0.1662,159.9062
10:10:12:219,-1.1348,1.6161,11.2714,40.8036,-0.149,-0.0513,-0.0922,159.9062
10:10:12:239,-0.9649,1.5203,11.281,40.8041,-0.0006,-0.1765,0.0397,159.9531
10:10:12:259,-0.4358,1.3932,11.7239,40.9323,0.0263,-0.3176,0.1448,159.9531
10:10:12:280,0.012,1.1539,13.0502,40.8135,-0.0574,-0.4087,0.1747,159.6875
10:10:12:302,-0.1412,0.8234,14.0462,40.835,-0.091,-0.3635,0.1692,159.6875
10:10:12:320,-0.2536,0.8186,13.3902,40.6681,0.0257,-0.2083,0.2572,158.9844
10:10:12:340,0.6846,1.2353,11.7838,40.7754,0.171,-0.1307,0.405,158.9844
10:10:12:359,1.8147,1.6472,11.3169,40.7306,0.1344,-0.248,0.3824,158.0781
10:10:12:381,2.3749,1.3406,12.7869,40.6277,-0.0751,-0.3751,0.1002,157.9844
10:10:12:404,1.9343,0.0837,14.6519,40.7197,-0.2278,-0.2718,-0.3237,157.4219
10:10:12:420,0.5363,-1.3573,14.6973,40.7801,-0.1222,0.0794,-0.6597,157.3594
10:10:12:442,-1.063,-2.569,9.7846,40.8113,0.2401,0.405,-0.7324,157.4844
10:10:12:461,0.3951,-1.5299,7.7833,40.6389,0.8448,0.2364,-0.0892,157.5
10:10:12:480,1.963,-0.352,6.9811,41.0064,0.7061,0.0055,-0.0177,157.75
10:10:12:499,2.0064,-0.1938,7.29,41.1373,0.2504,0.0049,-0.2932,157.7812
10:10:12:521,0.3305,-0.6751,7.7689,41.3641,-0.2395,0.2614,-0.5913,157.8281
10:10:12:540,-1.1659,-0.6918,7.3857,41.6574,-0.4642,0.5033,-0.5656,157.8281
10:10:12:560,-1.3238,-0.146,6.9858,41.8796,-0.441,0.4667,-0.2761,157.5312
10:10:12:580,-0.754,0.6081,7.1034,41.8621,-0.3005,0.1906,-0.0018,157.5
10:10:12:600,-0.4573,1.1252,7.4671,41.967,-0.1729,-0.066,0.1057,157.0938
10:10:12:621,-0.3688,1.4557,7.6205,41.9722,-0.1106,-0.1057,0.1326,156.25
10:10:12:640,-0.3114,1.841,7.4767,42.009,-0.1374,0.0428,0.1423,156.25
10:10:12:660,-0.3185,2.1643,7.4097,42.0263,-0.2187,0.1857,0.1148,156.4688
10:10:12:681,-0.1747,2.3653,7.8407,42.2227,-0.2822,0.1808,0.0544,156.4688
10:10:12:702,-0.0766,2.327,8.8008,42.2047,-0.284,0.0709,-0.047,157.9844
10:10:12:721,-0.0455,2.0423,9.7822,42.0774,-0.2169,0.011,-0.1643,157.9844
10:10:12:742,-0.2034,1.6615,10.3567,42.2683,-0.1307,0.1081,-0.2511,158.7656
10:10:12:760,-0.5363,1.3143,10.3591,42.3794,-0.0531,0.3018,-0.2614,158.7656
10:10:12:780,-0.9003,1.2473,10.06,42.6208,-0.0073,0.4429,-0.1869,159.2656
10:10:12:805,-1.2975,1.2784,10.1988,42.6801,-0.0024,0.4386,-0.0635,159.2656
10:10:12:820,-1.3789,1.4605,10.7542,42.6451,0.0134,0.3396,0.1002,160.375
10:10:12:841,-0.9769,1.7572,11.2403,42.8852,0.0684,0.2175,0.2572,160.375
10:10:12:860,-0.6176,1.8051,11.6785,43.1375,0.1112,0.1112,0.2938,160.5312
10:10:12:881,-0.8979,1.4342,12.1119,43.3382,0.0849,0.0617,0.2181,160.5469
10:10:12:906,-1.1252,0.8572,12.6529,43.4067,0.0006,0.0415,0.1692,160.2656
10:10:12:921,-1.0654,0.4071,13.6798,43.4289,-0.0941,-0.0202,0.16,160.2344
10:10:12:941,-1.1898,0.0407,14.805,43.4046,-0.1875,-0.0092,0.1356,159.9219
10:10:12:961,-1.7883,-0.7875,15.4083,43.5557,-0.1607,0.1393,0.1148,159.8906
10:10:12:983,-2.1212,-1.1731,14.6495,43.7077,0.1002,0.2034,0.1778,159.7812
10:10:13:004,-2.5065,-1.2209,12.4636,43.5264,0.5546,0.2602,0.3158,159.7656
10:10:13:023,-2.2552,-0.7014,9.5836,43.4909,0.9725,0.2248,0.5479,160.125
10:10:13:039,-1.4749,0.1412,7.2589,43.6358,1.138,0.0342,0.7318,160.1719
10:10:13:059,-0.5411,0.8859,6.3802,43.7297,0.9761,-0.2743,0.7159,160.5781
10:10:13:080,-0.0598,1.0702,6.8303,43.7561,0.551,-0.4697,0.4893,160.625
10:10:13:105,-0.4669,0.6679,7.5054,43.7716,0.0715,-0.3824,0.1912,160.5781
10:10:13:123,-1.1204,0.2321,7.733,43.7505,-0.2443,-0.1674,0.0232,160
10:10:13:140,-1.4844,-0.0311,7.678,43.506,-0.3341,-0.0531,0.0226,160
10:10:13:161,-1.3023,-0.0167,7.5221,43.6813,-0.2468,-0.0953,0.1264,159.5781
10:10:13:180,-0.9888,0.146,7.369,43.6927,-0.1014,-0.2046,0.2278,159.5781
10:10:13:205,-0.766,0.3616,7.3905,43.5102,0.0031,-0.281,0.2999,159.2031
10:10:13:219,-0.6751,0.6607,7.3451,43.7069,0.0519,-0.2376,0.358,159.2031
10:10:13:241,-0.6057,1.051,6.7848,43.7174,0.0495,-0.0861,0.4087,158.875
10:10:13:260,-0.4813,1.439,6.4881,43.7763,-0.0171,0.0031,0.4325,158.875
10:10:13:281,-0.2656,1.8697,6.9021,43.7475,-0.1307,-0.0195,0.4044,158.875
10:10:13:306,-0.189,2.1643,7.7426,43.909,-0.2596,-0.0702,0.3024,158.4375
10:10:13:320,-0.146,2.1595,9.3012,43.9092,-0.3653,-0.1216,0.1588,157.4531
10:10:13:341,-0.146,1.9705,10.6107,43.9348,-0.3842,-0.0831,0.0464,157.4531
10:10:13:360,-0.2946,2.0375,11.2953,44.0419,-0.2883,0.0324,0.0092,156.4688
10:10:13:381,-0.4358,2.1619,11.1996,43.7644,-0.1301,0.1643,0.0208,156.4688
10:10:13:406,-0.4095,2.2457,10.905,43.8381,-0.0147,0.201,0.0318,156.2656
10:10:13:420,-0.2898,2.2624,10.7255,43.793,0.0098,0.113,-0.0006,156.2344
10:10:13:443,-0.4836,1.7596,11.4221,43.6795,-0.0562,-0.0874,-0.0971,156.0156
10:10:13:462,-1.1946,0.4501,13.3089,43.591,-0.055,-0.2657,0.0128,155.9844
10:10:13:483,-0.5435,0.9147,12.21,43.3437,0.1155,-0.1533,0.317,155.4688
10:10:13:504,1.0391,1.7022,11.1183,43.1359,0.2034,-0.179,0.5162,155.4219
10:10:13:523,2.406,2.2911,11.4604,42.8022,0.0727,-0.3268,0.3671,154.7031
10:10:13:610,2.473,1.4557,13.1698,42.6562,-0.1833,-0.3971,-0.1155,154.625
10:10:13:610,1.4004,-0.1842,14.7404,42.6069,-0.2963,-0.2944,-0.6212,153.7656
10:10:13:611,-0.2369,-1.5132,14.4461,42.6773,-0.149,-0.0177,-0.8784,153.6875
10:10:13:611,-1.1539,-2.2887,12.2698,42.3501,0.1759,0.2559,-0.7788,153.1406
10:10:13:626,-0.6775,-1.8553,9.6434,42.2406,0.5156,0.3586,-0.3928,152.9062
10:10:13:639,0.7875,-0.6296,7.7354,42.1132,0.7061,0.2052,-0.0434,152.9062
10:10:13:660,2.0255,0.3425,7.1082,42.0076,0.6231,-0.0476,-0.0269,152.7969
10:10:13:679,1.9463,0.5459,7.3522,41.9119,0.2883,-0.1173,-0.3011,152.7969
10:10:13:700,0.8477,0.3401,7.515,41.6916,-0.0874,0.0843,-0.5608,152.8906
10:10:13:722,-0.0526,0.4454,6.9571,41.4355,-0.2798,0.3292,-0.6047,152.8906
10:10:13:742,-0.2656,0.7469,6.2342,41.1606,-0.3237,0.3842,-0.5131,153.0156
10:10:13:760,-0.3736,1.0152,6.4594,41.0772,-0.3109,0.1796,-0.4539,153.0312
10:10:13:781,-0.6703,1.0702,7.1369,41.0414,-0.2755,-0.0342,-0.4423,153.0312
10:10:13:806,-0.7684,1.3167,7.6086,40.8082,-0.2492,-0.0605,-0.3873,152.2031
10:10:13:821,-0.6416,1.7261,7.8526,40.4496,-0.2572,0.0568,-0.3128,151.9531
10:10:13:842,-0.4884,2.059,7.9077,40.3429,-0.292,0.1839,-0.2865,151.9531
10:10:13:859,-0.2776,2.2696,8.6569,40.3808,-0.3292,0.1808,-0.3115,153.5469
10:10:13:882,-0.0526,2.5208,9.5788,40.1334,-0.2957,0.1338,-0.372,153.5469
10:10:13:906,-0.1436,2.4969,10.1605,40.0013,-0.1942,0.1686,-0.4795,154.7812
10:10:13:920,-0.8282,2.1093,10.1246,39.8742,-0.0837,0.2682,-0.5809,154.9062
10:10:13:941,-1.4581,1.7644,10.1916,39.7143,-0.0104,0.3042,-0.5644,155.1719
10:10:13:960,-1.7716,1.6854,10.5413,39.8074,0.0214,0.2999,-0.4239,155.1875
10:10:13:981,-2.0734,1.9992,10.8715,39.7194,0.088,0.2785,-0.0525,156.0781
10:10:14:003,-1.5467,2.1308,11.2331,39.4698,0.1106,0.1723,0.1057,156.1719
10:10:14:023,-1.0941,2.0279,12.0541,39.0621,0.0941,0.0574,0.146,157.1562
10:10:14:040,-1.4725,1.5514,12.6745,38.9938,0.0721,0.0476,0.0812,157.25
10:10:14:059,-2.0471,1.0056,12.4062,38.738,0.0464,0.149,0.0641,158.0469
10:10:14:082,-2.1165,0.7229,12.2746,38.635,-0.025,0.1955,0.157,158.125
10:10:14:103,-1.908,0.5267,13.0502,38.3294,-0.1173,0.1063,0.2511,158.75
10:10:14:123,-1.8075,0.0885,13.7519,38.0083,-0.1124,0,0.2822,159.2969
10:10:14:139,-1.9487,-0.4765,13.7372,37.9075,0.0226,-0.0324,0.2944,159.2969
10:10:14:160,-2.5355,-0.9338,12.5043,37.7257,0.2792,0.0116,0.3347,160.1719
10:10:14:180,-2.5834,-0.9697,10.4432,37.6983,0.554,0.014,0.4832,160.1719
10:10:14:204,-1.8649,-0.3951,8.6809,37.2887,0.6536,-0.0922,0.6622,161.2812
10:10:14:221,-0.9817,0.2177,8.0943,36.9971,0.4777,-0.284,0.6756,161.3906
10:10:14:241,-0.5722,0.285,9.0138,36.8087,0.0898,-0.4221,0.4887,161.4062
10:10:14:259,-0.6559,0.0909,9.8806,36.61,-0.2614,-0.35,0.2682,162.125
10:10:14:281,-1.1468,-0.0144,9.9404,36.2646,-0.3958,-0.1845,0.1484,162.1406
10:10:14:305,-1.264,0.0766,9.6553,36.1996,-0.3091,-0.0757,0.2016,162.0938
10:10:14:324,-0.9218,0.3449,8.8415,36.1511,-0.0739,-0.0055,0.3433,161.875
10:10:14:343,-0.5052,0.5506,7.4743,35.973,0.1686,0.0299,0.4313,161.875
10:10:14:360,-0.4454,0.5363,6.6078,36.0611,0.2859,-0.0324,0.4239,161.625
10:10:14:381,-0.5195,0.4693,6.2916,36.1339,0.2755,-0.1087,0.4166,161.625
10:10:14:406,-0.419,0.632,6.184,35.8327,0.1997,-0.113,0.4783,161.0625
10:10:14:422,-0.0837,1.1587,6.0715,35.8158,0.0959,-0.0641,0.5608,161
10:10:14:443,0.4932,1.7357,6.3586,35.8542,-0.036,-0.0806,0.584,160.4219
10:10:14:462,0.9601,2.2887,7.2972,35.8954,-0.1814,-0.1784,0.5094,160.3594
10:10:14:484,0.996,2.5929,9.5524,35.7392,-0.3531,-0.1771,0.1271,159.4531
10:10:14:505,0.5937,2.3629,10.3089,35.5631,-0.3445,-0.0733,-0.0562,159.3594
10:10:14:523,0.2874,2.126,10.8428,35.5277,-0.3121,0.0305,-0.1594,158.3438
10:10:14:541,0.0694,1.9992,11.2905,35.2375,-0.2724,0.0819,-0.1991,158.2344
10:10:14:559,-0.1196,1.7477,11.7574,35.3581,-0.2266,0.0483,-0.2132,157.7344
10:10:14:580,-0.3257,1.1515,12.6314,35.147,-0.1625,-0.102,-0.226,157.6875
10:10:14:599,-0.565,0.5602,13.608,34.9791,-0.0269,-0.2584,-0.1833,157.0781
10:10:14:622,-0.632,0.51,13.3376,34.7577,0.1686,-0.1942,-0.0079,156.2344
10:10:14:640,-0.0909,0.7062,11.9943,34.6237,0.3085,-0.0189,0.2291,156.2344
10:10:14:660,0.7421,1.3262,10.7686,34.4438,0.2572,0.0269,0.3366,155.2812
10:10:14:680,1.5395,1.5227,11.2451,34.2266,-0.0611,-0.1631,0.1564,155.2812
10:10:14:704,1.8529,0.4262,14.228,34.2423,-0.3946,-0.5235,-0.2529,154.1562
10:10:14:722,1.0032,-0.9051,16.1794,34.1585,-0.4325,-0.5773,-0.6371,154.0469
10:10:14:741,-0.51,-2.1523,15.521,34.0277,-0.1326,-0.226,-0.7697,154.0312
10:10:14:760,-0.8788,-2.7054,12.7295,33.9652,0.449,0.1142,-0.5168,153.0469
10:10:14:782,0.2369,-2.15,9.6673,33.9067,0.9407,0.1771,-0.0776,153.0469
10:10:14:805,1.9032,-0.8234,7.7139,34.0225,1.1007,0.0348,0.1918,152.8594
10:10:14:824,2.8513,0.256,6.6867,34.1572,0.934,-0.066,0.0983,153.1406
10:10:14:842,2.5184,0.6224,5.9088,34.2477,0.5492,0.047,-0.2449,153.1406
10:10:14:860,1.506,0.5267,5.097,34.5066,0.1124,0.3176,-0.5485,153.5625
10:10:14:882,0.6655,0.4597,4.4865,34.3391,-0.2779,0.5162,-0.6603,153.5625
10:10:14:907,0.1651,0.5052,4.7234,34.6477,-0.5846,0.4429,-0.6438,153.7969
10:10:14:920,-0.1364,0.5722,5.9853,34.8376,-0.744,0.1655,-0.5919,153.8281
10:10:14:941,-0.3018,0.7397,7.4647,35.0156,-0.7379,-0.0373,-0.5082,153.3594
10:10:14:960,-0.2994,1.0295,8.2478,35.2872,-0.6108,0.0073,-0.3702,153.3125
10:10:14:982,0.2922,1.9872,8.1999,35.1098,-0.4642,0.1863,-0.2089,153.375
10:10:15:005,0.2752,2.339,8.7027,35.1734,-0.4752,0.3402,-0.1509,153.375
10:10:15:022,0.0455,2.3533,9.6051,34.9327,-0.5204,0.2908,-0.2468,154.7344
10:10:15:042,-0.51,2.0877,10.4934,34.9539,-0.4496,0.2144,-0.3409,154.875
10:10:15:059,-0.9075,1.9319,10.9337,34.8784,-0.2669,0.168,-0.3195,155.6562
10:10:15:082,-0.8234,2.0016,11.2929,34.9684,-0.0922,0.1484,-0.1979,155.7344
10:10:15:105,-0.7828,2.2576,11.5851,35.0422,-0.0031,0.1735,-0.0684,155.75
10:10:15:123,-0.6846,2.5184,11.8388,35.02,0.0367,0.2217,0.0373,156.5938
10:10:15:139,-0.2898,2.6025,12.2459,35.4289,0.0641,0.212,0.0751,156.5938
10:10:15:161,-0.3712,2.3151,12.6936,35.7037,0.11,0.146,-0.0263,157.8906
10:10:15:179,-1.0104,1.4892,12.5785,35.9829,0.1655,0.1045,-0.1826,157.8906
10:10:15:201,-1.3167,0.6918,12.2195,36.5103,0.1344,0.0965,-0.2346,157.9062
10:10:15:221,-1.2616,-0.0048,12.6338,36.9193,-0.033,0.0428,-0.2242,158.8281
10:10:15:241,-1.2162,-0.8692,13.8523,37.1894,-0.226,-0.0605,-0.2382,158.8438
10:10:15:261,-1.5826,-1.6615,14.7882,37.4979,-0.2584,-0.1521,-0.237,159.2812
10:10:15:282,-2.0016,-2.3294,14.6351,37.7504,-0.0586,-0.146,-0.135,159.2812
10:10:15:304,-2.5089,-2.4538,12.6362,38.1132,0.317,0.0324,0.1234,159.3906
10:10:15:324,-2.4754,-1.8697,9.7893,38.2936,0.6896,0.1692,0.5198,159.8281
10:10:15:340,-1.573,-0.8883,7.7928,38.5631,0.8552,0.0324,0.8857,159.8281
10:10:15:360,-0.0096,0.4286,6.7657,38.8731,0.7654,-0.2669,1.0427,160.3281
10:10:15:381,0.9769,1.319,7.3666,39.2219,0.4013,-0.5773,0.8112,160.3281
10:10:15:405,0.486,0.8429,8.8295,39.5006,-0.0495,-0.5907,0.3372,160.3594
10:10:15:423,-0.3018,0.2608,9.1238,39.5658,-0.3011,-0.3549,0.0159,160.3594
10:10:15:441,-0.7421,-0.0311,8.7864,39.819,-0.3372,-0.1692,-0.0837,160.3281
10:10:15:459,-0.7158,-0.0215,8.2047,39.8764,-0.2535,-0.1014,-0.077,160.3281
10:10:15:484,-0.5578,0.079,7.7809,40.1828,-0.1729,-0.1148,-0.0635,160.7969
10:10:15:505,-0.8429,0.1603,7.5966,40.3978,-0.16,-0.0098,-0.0031,160.8438
10:10:15:523,-0.8835,0.4789,7.1225,40.6944,-0.1564,0.149,0.1216,161.2656
10:10:15:541,-0.4214,1.1157,6.7155,40.6477,-0.1545,0.2138,0.2627,161.2969
10:10:15:559,0.2776,1.8075,7.0196,40.9164,-0.1912,0.1332,0.2975,161.625
10:10:15:581,0.6009,2.1691,7.7641,41.1599,-0.2737,0.0385,0.1625,161.6562
10:10:15:605,0.3951,2.0088,8.796,41.3766,-0.3586,0.0037,-0.055,161.2031
10:10:15:625,-0.1101,1.7046,9.629,41.8414,-0.3922,0.0513,-0.2126,159.5469
10:10:15:691,-0.5626,1.4749,10.1557,42.0822,-0.3555,0.1203,-0.2559,159.5469
10:10:15:695,-0.7899,1.3549,10.6514,42.3491,-0.2633,0.1338,-0.2132,158.3438
10:10:15:696,-0.7708,1.439,11.0656,42.6002,-0.1527,0.1063,-0.1307,158.3438
10:10:15:702,-0.687,1.3478,11.4437,43.0698,-0.0831,0.0519,-0.0715,158.25
10:10:15:719,-0.8234,0.9769,12.0613,43.1995,-0.0757,-0.0244,-0.0483,158.2188
10:10:15:742,-1.2927,0.4167,12.8898,43.5758,-0.0538,-0.1417,0.0018,158.2188
10:10:15:759,-1.4294,0.0837,13.6176,44.0179,0.0739,-0.2688,0.171,158.3125
10:10:15:781,-0.7397,0.3616,13.031,44.3697,0.2895,-0.2657,0.4514,158.3125
10:10:15:805,0.8453,1.2808,11.4556,44.5803,0.4288,-0.2303,0.6683,158.3281
10:10:15:824,2.5232,2.138,10.989,44.8542,0.2737,-0.3152,0.5834,157.8281
10:10:15:841,2.8872,1.494,12.6649,44.9347,-0.1173,-0.3854,0.1185,157.8281
10:10:15:859,1.7142,-0.3736,14.8122,45.1847,-0.3873,-0.2957,-0.4325,157.2344
10:10:15:881,-0.1172,-2.126,14.9536,45.5504,-0.2993,-0.0434,-0.7263,157.2344
10:10:15:907,-1.1276,-3.3374,13.4596,45.8333,0.0531,0.2187,-0.6432,157.375
10:10:15:920,-0.6081,-3.0957,10.7375,46.0681,0.5143,0.3494,-0.2614,157.375
10:10:15:941,1.2688,-1.5969,8.6809,46.2979,0.8136,0.2046,0.1155,157.7344
10:10:15:961,3.0547,-0.0622,7.4575,46.5037,0.788,-0.0476,0.0959,157.7812
10:10:15:981,3.0595,0.067,7.867,46.7709,0.4233,-0.1558,-0.3409,157.9375
10:10:16:003,1.3095,-0.6057,8.6856,47.1325,-0.0208,0.0928,-0.7935,157.9531
10:10:16:023,-0.498,-0.9601,8.231,47.3418,-0.223,0.6389,-0.7116,157.9844
10:10:16:043,-0.9625,-0.012,6.7011,47.5028,-0.1203,0.4624,-0.4465,157.9844
10:10:16:060,-0.7469,0.6488,6.8279,47.8069,-0.0183,0.1533,-0.3011,157.4375
10:10:16:082,-0.5841,1.0271,7.0771,47.9421,0.0336,-0.0195,-0.2315,157.3906
10:10:16:105,-0.297,1.4103,7.1847,48.128,0.0159,0.0031,-0.1802,156.2656
10:10:16:124,-0.1795,1.7189,7.4432,48.3086,-0.0586,0.1124,-0.1802,156.3906
10:10:16:140,-0.3975,1.817,7.8048,48.5577,-0.1216,0.2034,-0.2327,156.3906
10:10:16:159,-0.7421,1.7836,8.0991,48.6831,-0.1295,0.2401,-0.2718,156.4219
10:10:16:179,-0.8115,1.7405,8.5828,48.935,-0.1185,0.2291,-0.2627,157.7344
10:10:16:201,-0.7708,1.7572,9.2339,49.2816,-0.1216,0.2187,-0.2382,157.8594
10:10:16:220,-0.9458,1.707,10.2036,49.4174,-0.1478,0.2333,-0.2272,158.25
10:10:16:240,-1.506,1.6352,10.8858,49.5892,-0.1209,0.2859,-0.1997,158.25
10:10:16:260,-2.0638,1.6113,10.5365,49.7709,-0.0171,0.3537,-0.0861,158.75
10:10:16:281,-2.0327,1.6711,10.3304,50.2812,0.0489,0.2449,0.1069,158.75
10:10:16:300,-1.2832,1.7381,11.712,50.3712,0.0006,-0.0403,0.2712,160.5312
10:10:16:321,-0.7181,1.5993,13.8643,50.5885,-0.058,-0.2468,0.3103,161.7188
10:10:16:342,-0.7373,1.1539,14.7093,50.7661,-0.0104,-0.1631,0.2627,161.7188
10:10:16:359,-1.0032,0.5674,14.2926,50.7673,0.0904,0.0721,0.2333,162.3125
10:10:16:382,-1.3071,0.364,13.3352,50.9325,0.1655,0.2327,0.2682,162.3125
10:10:16:406,-1.1779,0.2417,12.5713,51.1061,0.1716,0.2395,0.3164,162.6875
10:10:16:422,-1.2449,0.0144,12.4493,51.1572,0.1429,0.1313,0.303,162.6875
10:10:16:443,-1.5179,-0.352,12.0664,51.2376,0.1869,0.0531,0.2902,163.1406
10:10:16:460,-1.8577,-0.4908,10.6825,51.3576,0.3402,0.0562,0.3445,163.1875
10:10:16:483,-1.9681,-0.1795,8.7721,51.5017,0.5039,0.0599,0.4807,163.6406
10:10:16:505,-1.386,0.5459,7.1154,51.5679,0.5492,-0.0391,0.642,163.6719
10:10:16:525,-0.3736,1.4653,6.3491,51.6247,0.4245,-0.2566,0.6848,164.0469
10:10:16:543,0.0407,1.6687,6.8399,51.6904,-0.237,-0.5773,0.1423,164.0938
10:10:16:561,-1.0271,0.2321,9.4256,51.941,-0.46,-0.5229,-0.0819,164.0781
10:10:16:581,-1.5945,-0.3281,10.1414,52.1895,-0.5174,-0.4093,-0.1613,164.0625
10:10:16:605,-1.8984,-0.5746,10.0768,52.1631,-0.4343,-0.2382,-0.1148,163.4844
10:10:16:621,-2.004,-0.4334,9.2315,52.4696,-0.2822,-0.0263,0.0055,162.9375
10:10:16:639,-2.0088,-0.1507,7.9603,52.5052,-0.1686,0.1662,0.1344,162.9375
10:10:16:660,-1.8936,0.1292,6.9667,52.799,-0.1338,0.2456,0.259,162.8906
10:10:16:681,-1.3382,0.6368,7.1178,53.1585,-0.1283,0.1729,0.3769,162.375
10:10:16:705,-0.4717,1.3167,8.5493,53.3679,-0.0678,0.0605,0.4099,162.3125
10:10:16:723,-0.2728,2.0423,9.1454,53.4858,0.1228,0.124,0.3134,161.7344
10:10:16:739,-1.0606,1.9705,7.3762,53.557,0.3219,0.2889,0.1222,161.7344
10:10:16:760,-1.8123,1.5275,5.6979,53.6393,0.2755,0.2627,0.0257,161.0156
10:10:16:781,-1.7094,1.7022,5.8295,53.7754,-0.0128,0.0067,0.1264,161
10:10:16:807,-0.8979,2.2002,8.0393,54.0196,-0.3439,-0.2822,0.2456,159.7812
10:10:16:820,-0.4908,2.2911,10.1366,54.0236,-0.507,-0.3763,0.2272,159.125
10:10:16:841,-0.3784,2.0566,11.2905,53.9266,-0.4771,-0.3085,0.1442,159.125
10:10:16:860,-0.2946,1.9271,11.4628,53.9984,-0.3512,-0.2052,0.0922,159.25
10:10:16:881,-0.3209,1.8673,11.4078,53.9802,-0.248,-0.1875,0.0415,159.25
10:10:16:905,-0.5865,1.3262,11.8747,54.0991,-0.2285,-0.2657,-0.0287,159.2344
10:10:16:921,-0.833,0.7373,12.8372,54.4078,-0.2358,-0.3354,-0.0312,159.2344
10:10:16:941,-0.8931,0.3688,13.7181,54.3091,-0.2083,-0.3005,0.0709,158.7344
10:10:16:959,-0.2273,0.5435,13.2969,54.3211,-0.1081,-0.1655,0.2523,158.7344
10:10:16:981,0.8258,0.8955,12.5904,54.0727,-0.0629,-0.1234,0.339,157.9062
10:10:17:000,1.5562,0.9529,12.9138,54.193,-0.1692,-0.2083,0.2052,157.8281
10:10:17:019,1.2951,0.079,14.4891,54.2495,-0.3439,-0.2413,-0.102,157.4531
10:10:17:043,-0.6918,-2.1547,14.7547,54.3637,-0.383,-0.1008,-0.3757,157.4062
10:10:17:061,-0.7349,-2.7628,13.4142,54.257,-0.2162,0.088,-0.4423,157.2969
10:10:17:082,0.0215,-2.4491,11.1852,53.9756,0.5076,0.3738,0.0122,157.2812
10:10:17:106,1.2855,-1.3645,8.8869,53.9702,0.8216,0.3268,0.2395,156.6875
10:10:17:122,2.636,-0.2512,7.5126,54.0636,0.8619,0.1381,0.204,156.25
10:10:17:140,2.77,0.1101,7.1656,54.3772,0.5986,0.0348,-0.1301,156.25
10:10:17:160,1.5873,-0.3233,7.3953,54.6263,0.1979,0.1246,-0.532,156.2188
