Time,Acc_X,Acc_Y,Acc_Z,Meg,Gyr_X,Gyr_Y,Gyr_Z,Ore
18:42:40:979,1.0845,0.6464,10.1773,45.5395,0.0391,-0.1289,-0.0202,178.375
18:42:41:111,-0.5865,0.297,9.8949,46.9644,-0.1277,-0.1075,-0.0354,140.8906
18:42:41:128,-0.3832,0.3305,9.8782,47.1196,-0.1326,-0.1197,-0.0855,140.8906
18:42:41:144,-0.6559,0.4573,9.9045,47.3144,-0.113,-0.091,-0.1289,140.8906
18:42:41:162,-0.7493,0.4693,9.9069,47.3412,-0.0867,-0.0171,-0.1093,140.8906
18:42:41:183,-0.7325,0.4645,10.017,47.2179,-0.0947,0.0452,-0.0702,140.8906
18:42:41:200,-0.7684,0.3879,10.151,47.4664,-0.1216,0.0861,-0.0538,140.8906
18:42:41:223,-0.8354,0.3353,10.3834,47.291,-0.1252,0.0623,-0.0421,140.8906
18:42:41:239,-0.6894,0.2249,10.4432,47.1054,-0.0953,0.0055,-0.0312,140.8906
18:42:41:258,-0.6368,0.1795,10.261,46.9377,-0.0305,-0.0403,-0.0348,140.8906
18:42:41:279,-0.5865,0.2345,10.0576,46.9601,0.014,-0.0489,-0.0574,140.8906
18:42:41:297,-0.6057,0.2608,9.859,46.8773,0.0312,-0.0134,-0.0819,140.8906
18:42:41:318,-0.6918,0.2632,9.6841,46.8786,0.0489,0.0195,-0.1038,140.8906
18:42:41:335,-0.8258,0.28,9.5405,47.1204,0.0599,0.0568,-0.1155,140.8906
18:42:41:357,-1.0152,0.3784,9.5812,47.0851,0.0434,0.1069,-0.1203,140.8906
18:42:41:374,-1.1061,0.3999,9.5644,47.218,0.0165,0.1246,-0.1173,140.8906
18:42:41:394,-1.0534,0.4286,9.5046,47.1648,0.0086,0.0874,-0.1051,140.8906
18:42:41:412,-1.0271,0.4358,9.4376,47.0422,0.0098,0.044,-0.1038,140.8906
18:42:41:432,-1.1587,0.4525,9.562,46.9781,0.0104,0.0079,-0.1136,140.8906
18:42:41:451,-1.4222,0.4621,9.708,47.0042,0.0153,0.0299,-0.1002,141.1562
18:42:41:470,-1.4773,0.4358,9.6434,46.9152,-0.0049,0.113,-0.0195,141.1562
18:42:41:489,-1.2473,0.3855,9.8375,46.9113,-0.0788,0.1387,0.0721,141.2969
18:42:41:509,-0.9984,0.3401,10.2371,46.7057,-0.1307,0.0996,0.1155,141.2969
18:42:41:531,-1.1515,0.3736,10.3496,46.7724,-0.0391,0.0257,0.0855,141.3906
18:42:41:549,-1.5156,0.5195,10.005,46.639,0.1484,-0.0061,0.0483,141.3906
18:42:41:570,-1.9104,0.7229,9.5788,46.7975,0.2553,0.0538,0.0715,141.4844
18:42:41:594,-2.1165,0.7899,9.0808,46.8691,0.204,0.1197,0.16,141.5
18:42:41:608,-1.8529,0.8548,9.0688,46.9364,0.0293,0.0904,0.2871,141.6719
18:42:41:630,-1.319,0.8668,9.6099,47.0712,-0.1582,0.0458,0.3848,141.7031
18:42:41:648,-0.7014,0.9529,10.0911,47.081,-0.2498,0.0788,0.4178,141.9219
18:42:41:670,-0.3281,1.0774,10.2921,47.1418,-0.2602,0.1826,0.3665,142
18:42:41:692,-0.201,1.209,10.3089,47.1469,-0.2474,0.2523,0.2559,138.8594
18:42:41:707,-0.2874,1.4103,10.1486,47.4403,-0.2083,0.2376,0.124,138.8438
18:42:41:730,-0.6583,1.6591,9.7247,47.5473,-0.1448,0.1625,-0.0122,139.0938
18:42:41:749,-0.9936,1.8529,9.3132,47.4849,-0.0849,0.0483,-0.0959,139.0938
18:42:41:770,-1.2425,2.0088,9.2411,47.4467,-0.0599,0.0086,-0.0947,139.2188
18:42:41:793,-1.2162,1.9487,9.0879,47.4005,-0.058,0.0849,-0.0055,139
18:42:41:808,-0.9242,1.774,9.1956,47.3675,-0.1081,0.1289,0.091,139
18:42:41:831,-0.766,1.6567,9.8782,47.3342,-0.182,0.0947,0.1124,138.8438
18:42:41:848,-0.7947,1.5897,10.3496,47.3297,-0.1839,0.0935,0.0922,138.8438
18:42:41:869,-0.7923,1.5945,10.2873,47.4816,-0.0965,0.0586,0.0757,138.625
18:42:41:893,-0.7038,1.6639,10.0505,47.3606,0.0049,-0.0305,0.0476,138.625
18:42:41:908,-0.6655,1.7237,9.8662,47.4907,0.0843,-0.0953,0.0086,137.875
18:42:41:930,-0.6942,1.7836,9.5142,47.718,0.1399,-0.088,-0.0202,137.875
18:42:41:949,-0.7086,1.7812,9.2725,47.7215,0.1411,-0.0733,-0.0415,136.9844
18:42:41:970,-0.7014,1.7429,9.4591,47.7531,0.1118,-0.0916,-0.0678,136.9844
18:42:41:987,-0.62,1.6208,9.44,48.1973,0.1222,-0.1142,-0.099,136.5469
18:42:42:009,-0.4406,1.5203,9.3754,48.4963,0.1405,-0.1607,-0.1674,136.5
18:42:42:031,-1.0869,1.3621,10.6753,48.7192,0.2627,-0.0947,-0.3903,136.5938
18:42:42:050,-1.2066,1.4462,10.5006,49.1069,0.4581,-0.0495,-0.4264,136.6875
18:42:42:069,-1.3047,1.4677,10.424,49.2995,0.5302,0.0324,-0.4465,136.6875
18:42:42:089,-1.5347,1.4509,10.8141,49.2539,0.4832,0.1765,-0.4429,136.7031
18:42:42:110,-1.951,1.0798,10.6681,49.5263,0.3708,0.3506,-0.4166,136.4688
18:42:42:128,-2.1571,0.565,10.6537,49.7317,0.2358,0.2975,-0.3299,136.4531
18:42:42:148,-2.0064,0.3832,11.0465,49.8815,0.11,-0.0208,-0.2449,136.2656
18:42:42:169,-1.5945,0.3138,11.3408,49.7632,0.0079,-0.2895,-0.1942,136.25
18:42:42:192,-1.1874,0.079,11.1829,49.6556,-0.0391,-0.4771,-0.146,136.1875
18:42:42:208,-0.553,0.0407,11.0776,49.7826,-0.0507,-0.5809,-0.1216,136.1875
18:42:42:229,-0.285,-0.0718,10.9962,50.0009,-0.0086,-0.5253,-0.1692,136.2812
18:42:42:248,-0.2827,-0.1507,10.3711,50.242,0.077,-0.3421,-0.2089,136.2812
18:42:42:270,-0.0885,-0.0502,9.8614,50.6221,0.1607,-0.2034,-0.223,136.4844
18:42:42:291,0.0096,0.055,9.5166,50.8389,0.1967,-0.0684,-0.2517,137.0156
18:42:42:309,-0.1914,0.1555,9.2243,50.9294,0.1875,0.0733,-0.2963,137.0156
18:42:42:330,-0.2441,0.2345,8.9204,51.2884,0.1075,0.2144,-0.2975,137.9688
18:42:42:350,-0.2946,0.3162,8.8439,51.6886,-0.0922,0.3164,-0.2578,137.9688
18:42:42:369,-0.6105,0.2177,9.4759,51.7658,-0.3732,0.3787,-0.2132,139.0156
18:42:42:389,-0.5961,-0.0383,10.57,51.9346,-0.6102,0.3653,-0.1295,139.0156
18:42:42:411,-0.2082,-0.1603,11.1135,52.2941,-0.6475,0.2266,-0.066,139.8594
18:42:42:429,-0.1723,-0.1603,11.0082,52.4654,-0.5375,0.1319,-0.0745,139.8594
18:42:42:449,-0.3568,-0.067,10.9986,52.7522,-0.3237,-0.0031,-0.113,140.3281
18:42:42:470,-0.5195,0.1771,10.3615,53.0143,0.0006,-0.0647,-0.1167,140.375
18:42:42:492,-0.5746,0.4621,9.2605,53.3694,0.2773,-0.014,-0.0904,140.6719
18:42:42:509,-0.4238,0.7493,8.4535,53.3854,0.35,0.0519,-0.0715,140.7031
18:42:42:532,-0.4047,0.8453,8.2597,53.6856,0.2315,0.0935,-0.0941,141.1094
18:42:42:551,-0.6081,0.8596,8.6952,53.9616,-0.0226,0.0226,-0.1686,141.6562
18:42:42:575,-0.9075,0.8883,9.7846,54.0459,-0.0037,0.1326,-0.1631,141.6562
18:42:42:593,-1.0247,0.8764,9.6936,54.0476,0.1008,0.2804,-0.1319,141.7188
18:42:42:608,-0.8572,0.9386,9.3993,54.2101,0.193,0.3531,-0.0892,142.3125
18:42:42:631,-0.7421,1.0128,9.3012,54.5662,0.2248,0.3641,-0.0825,142.375
18:42:42:649,-0.7612,1.0822,9.21,54.8514,0.2358,0.3561,-0.0996,142.7969
18:42:42:670,-0.8091,1.2066,8.9755,55.267,0.2517,0.314,-0.1258,142.8281
18:42:42:692,-0.9769,1.2353,8.4966,55.6008,0.2352,0.2242,-0.1539,142.9219
18:42:42:708,-1.0869,1.5682,8.6856,55.9922,0.1295,0.0244,-0.1613,142.9375
18:42:42:730,-1.5251,1.6232,9.3371,56.2766,0.0043,-0.1875,-0.1771,143.0781
18:42:42:749,-1.4533,1.6232,9.8351,56.5323,-0.0715,-0.2853,-0.0519,143.0781
18:42:42:769,-1.1252,1.6208,10.3017,56.7387,-0.091,-0.3622,0.1118,143.3281
18:42:42:792,-0.8258,1.5275,11.1278,56.9055,-0.0788,-0.4429,0.1961,143.5469
18:42:42:809,-0.6679,1.4318,12.0422,56.914,0.0373,-0.4251,0.2278,143.5469
18:42:42:830,-0.2489,1.3836,12.1047,57.0938,0.3341,-0.2749,0.2333,143.8906
18:42:42:850,0.0359,1.3932,11.5349,57.4111,0.6475,0.044,0.1753,143.8906
18:42:42:869,-0.8378,1.2784,10.6107,57.6302,0.8191,0.35,0.036,144.2188
18:42:42:938,-2.1452,1.185,9.6099,57.826,0.7813,0.4282,-0.0574,144.2188
18:42:42:938,-2.8513,1.2832,9.6482,58.1309,0.4997,0.3696,0.0177,144.4219
18:42:42:939,-3.0069,1.051,10.8069,58.4125,0.1307,0.3549,0.2248,144.4219
18:42:42:950,-2.9806,0.5291,11.5349,58.4331,-0.0886,0.4148,0.474,144.7031
18:42:42:970,-2.4921,0.3879,11.7503,58.6244,-0.1607,0.4508,0.689,144.7031
18:42:42:993,-2.1021,0.3784,11.4269,59.0481,-0.1881,0.4423,0.7947,145.0469
18:42:43:008,-1.6807,0.4095,10.7614,59.0659,-0.1833,0.2107,0.8295,145.0781
18:42:43:032,-1.2497,0.5435,9.9906,59.0656,-0.1423,-0.1826,0.8039,145.3125
18:42:43:052,-0.9505,0.7062,9.2988,59.4362,0.0073,-0.4288,0.606,145.3438
18:42:43:070,-0.8548,0.7684,8.5134,59.471,-0.0018,-0.0812,0.4801,145.0469
18:42:43:089,-1.1276,0.5841,8.8511,59.6199,-0.1087,0.2957,0.3799,145.0156
18:42:43:108,-1.2832,0.6966,9.3897,59.7775,-0.2169,0.4343,0.3073,144.6094
18:42:43:127,-1.5514,0.8186,9.5931,59.9047,-0.2639,0.361,0.2413,144.5625
18:42:43:148,-1.6807,1.0343,9.1406,59.8124,-0.2724,0.1949,0.2132,144.4375
18:42:43:169,-1.3047,1.3406,8.4081,60.0997,-0.3244,-0.0171,0.2132,144.4375
18:42:43:192,-0.7875,1.4414,7.9723,60.2941,-0.46,-0.1765,0.1814,144.5312
18:42:43:207,-0.5985,1.427,7.666,60.3605,-0.6121,-0.2395,0.11,144.5469
18:42:43:229,-0.4525,1.5036,7.8455,60.6796,-0.744,-0.2364,0.0122,143.7344
18:42:43:248,-0.9912,1.3382,9.2435,60.7947,-0.8253,-0.099,-0.1014,143.7188
18:42:43:269,-1.3525,1.2066,10.4097,60.8757,-0.6707,0.0733,-0.1381,142.0156
18:42:43:292,-1.1659,1.1922,10.2754,61.1092,-0.2767,0.2327,-0.0733,140.1719
18:42:43:309,-0.8043,1.1133,9.3371,61.1098,0.0684,0.361,-0.0195,140.1719
18:42:43:331,-0.6464,1.0726,8.4966,61.2092,0.1845,0.3885,-0.0409,138.7656
18:42:43:350,-0.6176,1.0678,8.243,61.2793,0.0861,0.2425,-0.1148,138.7656
18:42:43:369,-0.7636,1.1468,8.4846,61.3306,-0.0928,-0.044,-0.212,137.7812
18:42:43:390,-0.9745,1.3214,8.9779,61.3811,-0.2291,-0.3097,-0.2602,137.7812
18:42:43:408,-0.9242,1.4701,9.3132,61.555,-0.2645,-0.4862,-0.234,137.0781
18:42:43:431,-0.7181,1.7261,9.428,61.7761,-0.2059,-0.5882,-0.1942,137.0781
18:42:43:450,-0.6392,1.8817,9.361,61.8202,-0.1118,-0.5559,-0.1784,136.5312
18:42:43:470,-0.5578,1.9343,9.1262,62.1569,-0.0195,-0.46,-0.1716,136.5312
18:42:43:489,-0.7421,1.9657,9.0353,62.3567,0.0226,-0.3427,-0.1753,136.1562
18:42:43:509,-1.1444,1.8003,9.306,62.5622,-0.0067,-0.1802,-0.1411,136.125
18:42:43:530,-1.1468,1.5467,9.993,62.8165,-0.0764,-0.0244,-0.0354,136.0781
18:42:43:551,-0.7253,1.2233,10.8667,62.9874,-0.1216,0.0867,0.0611,136.0781
18:42:43:576,0.0742,0.8644,12.0541,63.1201,-0.0916,0.1283,0.0672,136.2031
18:42:43:591,-0.2417,0.7923,11.5708,63.5455,0.2877,-0.0983,-0.2657,136.2031
18:42:43:609,-0.7277,0.8186,11.1446,63.9055,0.4087,-0.3103,-0.4123,136.2812
18:42:43:628,-1.4462,0.7588,11.2977,64.0564,0.314,-0.281,-0.452,136.2812
18:42:43:647,-1.8984,0.5387,11.9345,64.0274,0.0941,-0.0348,-0.3464,136.6094
18:42:43:668,-1.6998,0.1436,13.1818,64.0634,-0.1747,0.2547,-0.1307,136.6406
18:42:43:693,-1.3454,-0.5913,14.0533,63.9969,-0.2908,0.2541,0.0415,137.0938
18:42:43:708,-0.5889,-0.9099,13.759,64.0443,-0.1002,-0.1368,0.0782,137.1406
18:42:43:729,-0.1651,-0.8524,12.2028,64.1384,0.2669,-0.551,-0.0483,137.5156
18:42:43:748,-0.3209,-0.4813,10.4886,63.7422,0.5119,-0.5889,-0.1961,137.5469
18:42:43:768,-0.8234,-0.2608,9.3754,63.6939,0.5186,-0.2718,-0.2651,137.9375
18:42:43:794,-1.0917,-0.1172,9.2773,63.4641,0.3439,0.2046,-0.1942,138.125
18:42:43:808,-1.0845,-0.2177,9.5381,63.344,0.1558,0.6255,-0.0525,138.125
18:42:43:830,-0.6679,-0.3999,9.7678,63.3663,0.0293,0.6841,0.0538,137.9688
18:42:43:849,-0.5554,-0.0191,10.637,63.5389,-0.0324,0.3512,0.0257,137.9688
18:42:43:869,-0.9051,0.0981,10.5772,63.3772,0.1087,0.1124,-0.088,138.3594
18:42:43:892,-1.0056,0.3855,9.5955,63.3279,0.3323,0.1484,-0.0867,138.3594
18:42:43:907,-0.9769,0.5554,9.0138,63.4015,0.4221,0.3073,-0.0458,139.375
18:42:43:931,-0.9314,0.5674,8.3674,63.3321,0.4172,0.4209,-0.0086,139.375
18:42:43:949,-0.5937,0.6751,8.1449,63.3633,0.3567,0.5088,0.0165,139.8906
18:42:43:970,-0.5171,0.7373,8.1999,63.3474,0.2663,0.7678,0.0024,139.8906
18:42:43:987,-1.3214,0.644,7.5126,63.09,0.179,0.9719,0.0409,139.75
18:42:44:008,-1.9391,0.7851,8.6521,62.7971,0.1594,0.7416,0.2443,139.7344
18:42:44:031,-1.185,1.331,6.7848,62.7208,0.2401,0.1387,0.7275,140.0469
18:42:44:050,-0.6416,1.4892,6.4594,62.7016,-0.1936,-0.0965,0.6457,140.0781
18:42:44:075,-0.7062,1.0582,8.0273,62.4341,-0.6756,-0.3586,0.3763,140.5938
18:42:44:092,-1.075,0.7995,10.7949,62.084,-0.9016,-0.5046,0.193,140.6406
18:42:44:108,-1.4055,0.6727,11.4772,61.937,-0.6725,-0.4532,0.2181,140.6094
18:42:44:127,-1.0223,0.8859,10.9436,61.7167,-0.1881,-0.5754,0.347,140.6094
18:42:44:147,-0.146,1.6304,10.0289,61.5756,0.1918,-0.5937,0.3176,140.6562
18:42:44:167,-0.1819,1.8051,8.5923,61.513,0.2474,-0.1979,0.0892,140.6719
18:42:44:189,-0.0191,0.5076,7.3355,61.4436,-0.014,0.2847,-0.0849,140.8438
18:42:44:207,-1.4892,1.1683,8.8008,60.9525,-0.4325,0.2706,-0.1246,140.8594
18:42:44:228,-1.1755,2.016,12.1023,60.923,-0.6194,0.0275,0.0183,140.8906
18:42:44:247,-1.3908,1.7788,13.2251,60.6012,-0.485,0.2144,0.0079,140.8906
18:42:44:268,-2.0064,0.9099,12.1645,60.5987,-0.1698,0.2785,-0.0177,140.7969
18:42:44:289,-2.327,0.5171,11.0536,60.3774,0.0709,0.0348,0.0006,139.9688
18:42:44:308,-1.8888,0.687,10.515,60.5411,0.0299,-0.0702,0.1051,139.9688
18:42:44:327,-1.1779,0.6057,10.005,60.2388,-0.1588,0.0629,0.2107,138.4688
18:42:44:347,-0.6607,0.4836,10.2969,60.0553,-0.3299,0.3201,0.2199,138.4688
18:42:44:367,-1.264,0.2922,11.5612,59.9,-0.2993,0.2938,0.1185,137.6875
18:42:44:390,-1.6424,-0.1244,11.8866,59.601,-0.1063,0.4313,0.0495,137.6875
18:42:44:408,-1.4773,-0.5171,11.8771,59.7514,-0.0293,0.5394,0.1124,137.0156
18:42:44:427,-1.1348,-0.8477,11.3599,59.3806,0.0324,0.2291,0.0757,137.0156
18:42:44:448,-1.319,-0.4047,10.4432,59.0934,0.1503,-0.3103,-0.1209,136.6406
18:42:44:468,-1.9223,-0.3616,9.6075,58.6446,0.2853,-0.8161,-0.369,136.6406
18:42:44:489,-2.2768,0.1196,8.8558,58.4222,0.3378,-0.9413,-0.3958,136.7812
18:42:44:507,-2.2576,0.4549,8.7314,58.1881,0.2559,-0.7361,-0.248,136.7969
18:42:44:528,-1.6161,0.6679,9.3586,58.1105,0.1008,-0.3415,-0.0018,136.6562
18:42:44:548,-1.0606,0.6033,9.6314,57.8747,0.0031,0.0684,0.1527,136.6406
18:42:44:567,-0.7397,0.6057,9.3323,57.4241,-0.0177,0.1924,0.1167,136.6406
18:42:44:590,-0.6081,0.8716,8.7027,57.3261,-0.113,0.055,-0.1564,136.6406
18:42:44:608,-0.9362,1.3023,9.2411,57.2884,-0.1869,0.1802,-0.1655,136.3125
18:42:44:628,-0.996,1.2497,8.8941,57.1503,-0.1472,0.2792,-0.1313,136.2812
18:42:44:647,-1.0678,1.4988,8.0034,57.0182,-0.0916,0.1845,-0.1136,135.8594
18:42:44:668,-1.3789,1.5634,7.599,56.6857,-0.1784,0.0171,-0.0519,135.8281
18:42:44:689,-1.3071,1.4294,8.0154,56.6062,-0.3354,-0.1643,0.0751,135.625
18:42:44:707,-0.9242,1.331,8.6545,56.5165,-0.4129,-0.3158,0.1961,135.6094
18:42:44:728,-0.2417,1.6376,9.2363,56.3695,-0.3732,-0.408,0.2242,135.6719
18:42:44:747,-0.1292,1.6256,9.4184,56.0977,-0.2303,-0.3592,0.1008,135.6719
18:42:44:768,-0.3018,1.7405,9.428,55.8304,-0.0415,-0.1655,-0.066,136.625
18:42:44:790,-0.5219,1.9319,9.0544,55.4711,0.1332,0.0593,-0.215,136.9844
18:42:44:807,-0.8788,2.1619,9.2076,55.1985,0.2364,0.1802,-0.317,136.9844
18:42:44:828,-1.0558,2.3509,9.574,55.2496,0.3042,0.2706,-0.3573,136.6875
18:42:44:848,-1.1228,2.3653,9.6194,54.9592,0.3909,0.405,-0.3573,136.6875
18:42:44:867,-1.1085,2.2816,9.2411,54.855,0.4563,0.595,-0.3665,136.8594
18:42:44:890,-1.1755,2.1954,9.4735,54.6266,0.4349,0.8613,-0.4099,136.8594
18:42:44:908,-1.8817,1.7596,9.6936,54.4095,0.317,1.317,-0.4282,137.1406
18:42:44:928,-2.624,1.3597,11.2164,54.1866,0.1613,1.548,-0.3671,137.1406
18:42:44:978,-3.536,0.5004,11.7933,54.0206,0.2694,1.3775,-0.3042,137.2812
18:42:44:979,-2.4969,0.996,11.4221,53.838,0.5773,0.6689,-0.1026,137.2812
18:42:44:990,-1.2329,1.7979,10.4551,53.3851,0.8924,-0.2608,-0.1051,136.9219
18:42:45:007,-1.0008,1.7261,9.8662,52.9849,0.8509,-0.7746,-0.4429,136.9219
18:42:45:027,-1.185,1.3095,10.3113,52.5761,0.4471,-0.6524,-0.7043,136.5469
18:42:45:048,-1.1372,0.6607,11.3599,52.3609,0.1026,-0.3555,-0.7452,136.5156
18:42:45:068,-0.8186,-0.1101,11.6521,51.9394,0.0024,-0.135,-0.7312,136.7969
18:42:45:089,-0.8835,-0.3999,11.9991,52.0273,0.0134,0.011,-0.8253,136.8281
18:42:45:108,-1.8936,-0.3855,11.6713,51.9188,0.0794,0.1344,-1,137.5469
18:42:45:129,-3.6535,0.3114,9.8279,51.7804,0.0195,-0.0837,-0.8692,137.6094
18:42:45:147,-3.5192,0.5291,9.3467,51.7115,-0.2309,-0.408,-0.5473,138.4062
18:42:45:167,-3.1005,0.4501,9.2363,51.7277,-0.4826,-0.8717,-0.2621,138.4844
18:42:45:190,-2.3007,0.28,8.6737,51.8914,-0.6567,-1.218,-0.0843,139.3438
18:42:45:208,-1.1037,0.5076,8.8439,51.9816,-0.802,-1.2693,-0.0055,139.4375
18:42:45:228,-0.3018,0.8644,10.2467,51.9948,-0.8436,-0.9224,-0.0177,140.0938
18:42:45:247,-0.6511,0.431,11.257,51.5774,-0.5339,-0.3848,-0.0696,140.1562
18:42:45:267,-0.6799,0.213,10.0265,51.3212,0.058,-0.0104,-0.025,140.5781
18:42:45:289,-0.4286,0.2177,7.9196,51.1045,0.5088,-0.0263,0.0257,142.1562
18:42:45:308,-0.309,0.2752,7.0986,51.0396,0.5449,-0.3109,-0.0055,142.1562
18:42:45:328,-0.2393,0.376,7.6493,50.9428,0.3372,-0.5522,-0.0452,143.8281
18:42:45:347,-0.0981,0.5459,8.3459,50.6947,0.1521,-0.5247,-0.0018,143.8281
18:42:45:367,0.1771,0.5913,8.808,50.3453,0.0519,-0.336,0.0861,145.8438
18:42:45:389,0.565,0.5602,9.143,50.4902,0.0018,-0.1472,0.149,145.8438
18:42:45:407,0.8477,0.6631,9.3275,50.2534,-0.0092,-0.069,0.1051,147.9844
18:42:45:427,0.7995,0.8258,9.7534,50.4676,-0.0043,-0.0904,-0.0159,147.9844
18:42:45:448,0.5554,0.9817,10.0768,50.4645,0.0348,-0.0733,-0.1179,148.8281
18:42:45:468,0.2249,1.1611,9.9595,50.2439,0.1057,-0.0006,-0.1625,148.8281
18:42:45:489,0.0048,1.2592,9.8303,50.1318,0.1264,0.0428,-0.1448,148.8125
18:42:45:507,-0.1651,1.3502,9.8877,50.0756,0.0672,0.0073,-0.0849,148.8125
18:42:45:528,-0.1244,1.3143,10.2036,50.1085,-0.0305,-0.0574,0.0049,148.7656
18:42:45:548,-0.1484,1.1468,10.7471,50.0124,-0.113,-0.0776,0.0562,148.7656
18:42:45:569,-0.3616,0.8378,11.482,50.1519,-0.1258,-0.0788,0.047,148.8125
18:42:45:593,-0.6631,0.6631,11.6498,50.04,-0.077,-0.0599,0.0415,148.8281
18:42:45:608,-0.7564,0.7588,11.7072,49.9656,-0.2834,0.0501,0.1839,148.9688
18:42:45:629,-0.7205,0.4573,11.5995,50.0009,-0.4704,-0.0012,0.3097,148.9844
18:42:45:647,1.276,0.2608,12.3775,49.8321,-0.6225,-0.0452,0.3134,148.9219
18:42:45:667,1.494,0.1771,13.1363,49.7082,-0.5913,0.0947,0.1045,148.9219
18:42:45:692,0.5746,-0.0215,12.6601,49.797,-0.2449,0.204,-0.2181,148.6719
18:42:45:708,-0.9984,-0.0885,10.8954,49.4587,0.27,0.1631,-0.4917,148.6406
18:42:45:729,-2.3509,-0.1149,8.985,49.5077,0.598,0.1313,-0.5461,148.7812
18:42:45:747,-2.703,-0.0479,7.7258,49.4727,0.5467,0.2529,-0.3378,148.7969
18:42:45:769,-2.0255,-0.0311,8.0178,49.7967,0.1527,0.3824,-0.0043,149.125
18:42:45:790,-1.0582,-0.1531,9.253,49.9167,-0.2828,0.3525,0.2449,149.25
18:42:45:808,0.0742,-0.0574,10.4336,50.1956,-0.4722,0.1662,0.3073,149.25
18:42:45:828,0.6775,0.1651,10.8165,50.3958,-0.3525,-0.0476,0.1478,149.125
18:42:45:849,0.5315,0.5794,10.2036,50.4463,-0.0647,-0.1301,-0.1228,149.125
18:42:45:868,-0.1244,0.9601,9.0162,50.9763,0.1839,-0.0147,-0.3696,148.9688
18:42:45:892,-0.5626,1.1922,8.3746,51.1914,0.2651,0.1784,-0.4948,148.9688
18:42:45:908,-0.6392,1.4028,8.2956,51.327,0.2596,0.3476,-0.5174,148.3594
18:42:45:931,-0.5961,1.4342,8.1568,51.2804,0.2688,0.4392,-0.4917,148.3594
18:42:45:951,-0.6057,1.4533,7.9819,51.2665,0.2785,0.4404,-0.4508,147.7969
18:42:45:969,-0.6823,1.4605,8.0489,51.375,0.2578,0.3335,-0.4148,147.7969
18:42:45:989,-0.6775,1.4844,8.5205,51.3409,0.2144,0.1802,-0.3806,148.5781
18:42:46:008,-0.8402,1.4892,8.7841,51.6352,0.2205,0.0593,-0.3799,148.5781
18:42:46:031,-1.0702,1.5586,8.6761,51.6213,0.2621,-0.0232,-0.3787,149.5469
18:42:46:049,-1.1228,1.6328,8.4703,51.5414,0.2584,-0.0605,-0.3329,149.6406
18:42:46:070,-0.9194,1.7285,8.4081,51.6445,0.1894,-0.0953,-0.2785,149.3906
18:42:46:094,-1.0128,1.7046,8.6306,51.8508,0.1057,-0.16,-0.2621,149.375
18:42:46:109,-0.917,1.7716,9.7965,52.1008,0.0678,-0.2291,-0.2297,148.8438
18:42:46:131,-1.1109,1.6615,10.1749,52.2283,0.1313,-0.0611,-0.2486,148.7969
18:42:46:151,-1.5299,1.3717,10.5485,52.3229,0.1509,0.1216,-0.2517,149.3438
18:42:46:174,-1.6424,1.2233,11.3456,52.3812,0.1063,0.212,-0.1796,149.3438
18:42:46:192,-1.427,1.1683,12.1286,52.5878,0.1161,0.2486,-0.0757,150.3906
18:42:46:208,-1.2209,0.7804,11.8555,53.0112,0.2407,0.091,0.0122,150.5
18:42:46:229,-0.6535,0.9242,11.0752,53.4023,0.4087,-0.3696,0.0452,151.4844
18:42:46:248,-0.2728,1.3478,10.424,53.39,0.4374,-0.8088,-0.0257,151.5781
18:42:46:270,-0.3401,1.4964,10.1127,53.6445,0.2889,-0.9902,-0.1387,152.4219
18:42:46:291,-0.1819,1.7381,10.759,53.744,-0.0208,-0.8222,-0.1839,153.4062
18:42:46:308,0.1699,1.7022,12.1262,53.9765,-0.383,-0.2718,-0.2114,153.4062
18:42:46:328,0.28,1.0606,13.6702,53.9376,-0.5424,0.3146,-0.2621,154.125
18:42:46:349,0.4884,0.5315,13.7758,54.1494,-0.3244,0.6493,-0.3244,154.125
18:42:46:369,0.6416,0.3353,11.8938,54.3189,0.1136,0.5143,-0.4838,154.7188
18:42:46:390,0.4167,0.3879,9.8207,54.2863,0.3751,0.1167,-0.6958,154.7188
18:42:46:409,0.0455,0.5722,8.8439,54.4194,0.3189,-0.1203,-0.8295,155.2812
18:42:46:430,-0.1005,0.7612,9.0425,54.4445,0.1228,-0.0208,-0.843,155.2812
18:42:46:448,0.0287,0.6894,9.7104,54.646,-0.0073,0.2566,-0.8246,155.7344
18:42:46:468,-0.1962,0.8596,10.3424,54.7572,0.0324,0.4807,-0.868,155.7812
18:42:46:492,-0.4765,0.8043,9.8423,54.9429,0.2205,0.5614,-0.9089,155.8906
18:42:46:509,-0.5889,0.8501,9.1693,54.9722,0.3439,0.4917,-0.9034,155.8906
18:42:46:529,-0.6176,1.0367,8.6737,54.9883,0.3201,0.35,-0.8613,155.9844
18:42:46:549,-0.6464,1.0558,8.5205,55.2122,0.2156,0.1979,-0.8033,155.9844
18:42:46:570,-0.6751,1.0582,8.164,55.3065,0.1246,0.0953,-0.7385,156.3906
18:42:46:591,-0.8477,1.0845,7.6732,55.3954,0.0519,-0.0055,-0.6988,156.4375
18:42:46:608,-0.9123,1.0917,7.3522,55.7453,-0.0324,-0.1686,-0.6658,156.8281
18:42:46:632,-1.0056,1.2784,8.0465,55.7683,-0.2657,-0.427,-0.5663,156.875
18:42:46:649,-0.9553,1.4222,9.2797,56.0573,-0.3115,-0.4184,-0.4649,157.6406
18:42:46:670,-0.8907,1.506,10.1677,56.2188,-0.2126,-0.223,-0.3457,157.7031
18:42:46:693,-0.7158,1.506,10.6322,56.374,0.0177,-0.0153,-0.2437,159.2969
18:42:46:707,-0.4645,1.6496,10.3663,56.4686,0.2559,0.0867,-0.1997,159.4531
18:42:46:729,-0.4549,1.7572,9.8447,56.6866,0.3922,-0.0024,-0.2144,161.125
18:42:46:747,-0.7373,1.9104,9.8037,56.8702,0.3665,-0.1619,-0.2407,161.2969
18:42:46:769,-1.1922,1.9657,9.7989,56.967,0.317,-0.2462,-0.2352,163.0781
18:42:46:790,-1.5203,1.8888,9.6099,57.2495,0.2639,-0.1851,-0.1594,165.25
18:42:46:808,-1.4797,1.7094,9.7582,57.4546,0.1509,-0.0666,-0.0244,165.25
18:42:46:830,-1.2066,1.3143,10.5174,57.4557,0.0049,0.0305,0.1179,166.9844
18:42:46:848,-0.9625,0.9075,10.989,57.691,-0.0519,0.0147,0.1888,166.9844
18:42:46:869,-0.984,0.6153,10.637,57.8701,-0.025,-0.1582,0.1741,168.5
18:42:46:891,-0.9721,0.7828,10.3232,57.9217,-0.0574,-0.3518,0.1423,168.5
18:42:46:908,-0.7205,1.0056,10.7925,57.9923,-0.2114,-0.3567,0.1533,169.7812
18:42:46:928,-0.2994,0.9625,11.6641,57.9047,-0.3457,-0.1668,0.1723,169.7812
18:42:46:948,-0.1077,0.821,12.1119,58.0776,-0.3073,0.0684,0.1332,170.5469
18:42:46:967,-0.6344,0.7636,11.9369,57.9135,-0.149,0.2358,0.0293,170.625
18:42:46:987,-1.5586,0.7995,11.5612,58.2076,-0.0483,0.3244,-0.0073,171.1562
18:42:47:055,-2.0758,0.6105,10.9723,58.3049,-0.0263,0.2077,0.135,171.1562
18:42:47:055,-1.6974,0.2154,10.2682,58.3355,-0.0647,-0.0953,0.4013,171.75
18:42:47:055,-0.6272,0.0766,10.0337,58.652,-0.1863,-0.3714,0.6243,171.75
18:42:47:077,0.2321,0.2201,10.0217,58.7689,-0.3341,-0.4209,0.6469,172.2031
18:42:47:088,0.2946,0.4454,9.9428,58.8921,-0.4245,-0.3292,0.4606,172.25
18:42:47:108,-0.1842,0.8043,9.7487,58.9842,-0.4349,-0.1881,0.2169,172.1719
18:42:47:130,-0.7158,1.0534,9.4232,59.3167,-0.3708,-0.0324,0.047,172.1719
18:42:47:150,-0.9242,1.2401,9.009,59.2848,-0.0764,0.2272,-0.0751,171.7656
18:42:47:174,-0.6942,1.3143,8.3865,59.2231,0.0476,0.3103,-0.1417,171.7656
18:42:47:192,-0.778,1.3023,7.9843,59.2205,0.149,0.3286,-0.226,171.4688
18:42:47:208,-1.0989,1.2209,7.8,59.2454,0.2346,0.2639,-0.2413,171.4375
18:42:47:229,-1.063,1.1827,7.4408,59.1007,0.2315,0.1729,-0.1295,171.0781
18:42:47:247,-0.6272,1.2066,7.7163,59.0944,0.0922,0.0782,0.0153,171.0312
18:42:47:269,-0.3162,1.1994,8.5325,59.0794,-0.0709,0.088,0.0556,170.9844
18:42:47:291,-0.3832,1.2257,9.2605,58.8439,-0.1106,0.204,-0.0177,170.4375
18:42:47:307,-0.4836,1.3071,9.5237,58.8917,-0.0195,0.2987,-0.1069,170.4375
18:42:47:328,-0.4454,1.4605,9.0736,58.9742,0.0965,0.303,-0.1552,168.9531
18:42:47:347,-0.189,1.7405,8.6976,58.8876,0.1081,0.19,-0.1753,168.9531
18:42:47:369,0.0407,2.004,9.1789,59.0058,0.0147,0.0684,-0.223,168.125
18:42:47:391,0.0335,2.1571,9.9882,59.2112,-0.0312,0.0202,-0.3018,168.125
18:42:47:408,0.067,2.2361,10.5413,59.2118,0.0647,-0.0079,-0.3897,168.0469
18:42:47:429,-0.0502,2.1619,10.4432,59.4118,0.2236,-0.0031,-0.4661,168.0469
18:42:47:449,-0.256,2.0255,10.515,59.5674,0.2889,0.0318,-0.5046,168.0469
18:42:47:469,-0.3209,1.8051,11.0824,59.4045,0.2327,0.0898,-0.5027,168.2812
18:42:47:491,-0.3855,1.4581,11.5995,59.5341,0.1545,0.1081,-0.4936,168.8281
18:42:47:508,-0.4334,1.0175,11.3527,59.6687,0.0922,-0.0568,-0.4759,168.8281
18:42:47:531,0.2489,0.8835,10.7973,59.474,-0.0214,-0.4239,-0.4569,169
18:42:47:549,0.9362,0.9051,11.1565,59.4573,-0.248,-0.6072,-0.532,169
18:42:47:569,0.9817,0.8234,12.2674,59.4178,-0.4184,-0.3757,-0.6958,168.9375
18:42:47:591,0.4238,0.5148,13.0932,59.3102,-0.4038,0.1191,-0.8729,168.9375
18:42:47:607,-0.5315,0.146,13.5171,59.0586,-0.2822,0.5296,-1.0219,169.2031
18:42:47:629,-1.4222,0.0933,13.6032,59.1101,-0.033,0.6646,-1.1508,169.2188
18:42:47:650,-2.5834,0,12.3392,58.8196,0.6426,0.3879,-1.1282,169.6406
18:42:47:675,-3.5886,0.2417,8.4727,58.8492,0.6506,-0.0165,-0.8491,169.6719
18:42:47:692,-2.8274,0.4597,8.0847,58.9703,0.3665,-0.3158,-0.4905,170.375
18:42:47:707,-1.8434,0.5219,8.9563,58.9188,0.0281,-0.3867,-0.2291,170.4375
18:42:47:728,-1.0032,0.498,9.8207,58.9847,-0.1307,-0.2541,-0.1362,171.4688
18:42:47:748,-0.5937,0.498,10.005,58.8601,-0.0788,-0.0672,-0.1851,171.5625
18:42:47:768,-0.6081,0.4932,9.4878,58.9144,0.0764,0.044,-0.2926,172.6094
18:42:47:791,-0.874,0.577,8.6809,58.6905,0.1924,0.0476,-0.3665,173.6562
18:42:47:808,-1.319,0.6559,8.0991,58.7047,0.2083,-0.0202,-0.3842,173.6562
18:42:47:829,-1.64,0.7588,7.788,58.4322,0.1558,-0.1038,-0.3323,175.0156
18:42:47:847,-1.5084,0.8067,7.6516,58.2496,0.0922,-0.1613,-0.2193,175.0156
18:42:47:868,-1.2616,0.8354,7.4815,58.2938,0.0238,-0.1845,-0.0739,177.0312
18:42:47:893,-1.0606,0.917,7.5676,58.0719,-0.0739,-0.2077,0.0519,177.0312
18:42:47:909,-0.9482,0.8931,8.152,57.8486,-0.1716,-0.2401,0.1307,179.4531
18:42:47:930,-0.7373,1.0678,8.7912,57.991,-0.1796,-0.2773,0.146,179.7031
18:42:47:948,-0.7181,1.209,9.21,58.1713,-0.1093,-0.2114,0.1185,179.7188
18:42:47:968,-0.5841,1.2712,9.3467,58.1398,-0.0226,-0.0379,0.1271,182.0469
18:42:47:992,-0.2874,1.3214,9.306,57.9794,0.0391,0.0947,0.1442,182.9062
18:42:48:008,0,1.4366,9.186,57.7424,0.0623,0.1026,0.1209,182.9062
18:42:48:028,0.0239,1.5586,9.2483,57.6331,0.0568,0.0263,0.0513,183.2344
18:42:48:049,-0.2393,1.6113,9.2797,57.5622,0.0751,-0.0709,-0.0177,183.2344
18:42:48:068,-0.3951,1.5778,9.0832,57.541,0.0819,-0.1271,-0.0373,183.9219
18:42:48:092,-0.3903,1.4844,9.0951,57.363,0.0024,-0.1613,-0.0336,183.9844
18:42:48:107,-0.4167,1.427,9.7295,57.1634,-0.1704,-0.1307,-0.0556,184.7344
18:42:48:128,-0.62,1.4004,10.9026,56.7191,-0.3115,0.0159,-0.0501,184.8125
18:42:48:149,-0.9721,0.9577,11.4891,56.6372,-0.2957,0.1875,0.0489,185.125
18:42:48:170,-0.1938,0.2752,11.2164,56.4392,-0.273,0.0556,0.2602,185.1562
18:42:48:190,-0.0981,-0.0048,11.9393,56.0655,-0.4282,-0.0709,0.2175,184.9531
18:42:48:207,-0.4334,-0.2874,12.6721,55.7804,-0.507,-0.0916,0.1173,184.9375
18:42:48:228,-0.8716,-0.3162,12.9903,55.6375,-0.4594,0.0354,0.0031,184.6406
18:42:48:247,-1.2114,-0.1627,12.9521,55.2986,-0.3604,0.2737,-0.0788,184.6094
18:42:48:269,-1.6208,-0.0885,13.1387,55.032,-0.2584,0.3922,-0.1118,184.3281
18:42:48:291,-2.0614,-0.1053,12.2387,55.0131,-0.0159,0.2211,-0.0959,184.1406
18:42:48:309,-2.4275,-0.1484,10.2706,54.8588,0.2755,-0.1875,-0.0073,184.1406
18:42:48:329,-2.3653,-0.1005,8.7314,54.6653,0.3879,-0.584,0.1607,184.2031
18:42:48:347,-1.7524,0.1412,8.1111,54.618,0.2865,-0.6579,0.3268,184.2031
18:42:48:368,-0.874,0.3018,8.1784,54.4459,0.0635,-0.3781,0.419,184.2812
18:42:48:390,-0.2058,0.3879,8.7027,54.0921,-0.16,0.0012,0.3983,184.2812
18:42:48:408,0.0742,0.5315,9.3514,54.1131,-0.27,0.2052,0.2712,184.2812
18:42:48:430,0.012,0.7445,9.6721,53.9749,-0.2236,0.2498,0.1014,184.2188
18:42:48:449,-0.2608,0.9673,9.2554,53.8063,-0.0684,0.2437,-0.0513,184.2344
18:42:48:469,-0.5148,1.1731,8.5493,53.6122,0.0635,0.2492,-0.135,183.6875
18:42:48:490,-0.5483,1.2185,7.9986,53.3856,0.11,0.248,-0.1417,183.2188
18:42:48:508,-0.5913,1.1587,7.7043,53.3298,0.0922,0.1924,-0.1136,183.2188
18:42:48:528,-0.5291,0.9673,7.57,53.3299,0.0672,0.077,-0.0507,183.2188
18:42:48:549,-0.2728,0.7756,7.5102,53.4925,0.0367,-0.0049,0.0421,183.2188
18:42:48:568,-0.0383,0.6679,7.7928,53.3359,-0.0257,-0.0153,0.0971,183.4375
18:42:48:592,0.1507,0.6392,8.2238,53.2454,-0.0971,0.0373,0.0953,183.4375
18:42:48:608,0.1101,0.7899,8.7864,53.1414,-0.1558,0.1081,0.0153,183.3281
18:42:48:630,-0.1316,1.063,9.5931,52.9448,-0.179,0.1527,-0.1075,183.3125
18:42:48:651,-0.7301,1.7692,9.8231,53.0032,-0.1203,0.1283,-0.2211,182.5
18:42:48:670,-0.8955,2.138,9.8303,52.6187,0.0079,-0.1203,-0.2785,182.5
18:42:48:689,-1.0869,2.3174,10.0433,52.3979,0.0507,-0.27,-0.2566,181.7969
18:42:48:709,-1.1468,2.3557,10.0265,52.097,0.1155,-0.3567,-0.201,181.7344
18:42:48:729,-1.0247,2.2744,10.4121,51.8066,0.1203,-0.3341,-0.1356,181.6719
18:42:48:747,-0.8091,1.9777,11.324,51.5452,0.0776,-0.1912,-0.0941,181.6562
18:42:48:769,-0.498,1.6017,12.2483,51.1115,0.0764,-0.0476,-0.099,181.9688
18:42:48:792,-0.3975,1.2257,12.545,50.8236,0.1405,0.0263,-0.1765,182.1875
18:42:48:808,-0.4478,1.0869,12.1382,50.3403,0.2272,-0.066,-0.2834,182.1875
18:42:48:829,-0.6176,1.1946,11.7215,50.06,0.212,-0.2529,-0.3635,182.0625
18:42:48:847,-0.8548,1.1492,11.9106,49.7974,0.0702,-0.4044,-0.3812,182.0625
18:42:48:870,-0.5746,1.0845,12.4612,49.5376,-0.0519,-0.4392,-0.3323,181.9219
18:42:48:890,-0.0263,0.9027,12.5234,49.1216,-0.0452,-0.2871,-0.3103,181.9062
18:42:48:908,0.2321,0.6057,12.1238,48.7681,0.0538,-0.0696,-0.3726,181.9062
18:42:48:929,0.0837,0.2922,11.3862,48.6111,0.1833,0.0586,-0.474,182.2344
18:42:48:947,-0.201,0.146,10.515,48.3096,0.2828,0.0678,-0.54,182.25
18:42:48:968,-0.4525,0.1292,9.7702,48.281,0.2914,0.0513,-0.5314,182.8438
18:42:48:991,-0.3712,0.1412,9.4376,48.1192,0.1924,0.08,-0.4569,183.3281
18:42:49:008,-0.2106,0.1651,9.7271,47.6126,0.0531,0.1545,-0.3769,183.3281
18:42:49:030,-0.0981,0.2225,10.0768,47.0371,-0.0385,0.2639,-0.3378,183.5938
18:42:49:050,-0.2154,0.3066,10.3041,46.7488,-0.0483,0.3201,-0.3433,183.5938
18:42:49:068,-0.4358,0.4813,9.8061,46.373,0.0464,0.2517,-0.3549,183.9219
18:42:49:133,-0.5746,0.711,8.9109,46.0619,0.1484,0.1014,-0.3305,183.9219
18:42:49:133,-0.5674,0.8764,8.3339,45.7535,0.1704,-0.0134,-0.2718,184.5938
18:42:49:134,-0.4358,0.9505,8.135,45.4585,0.1552,-0.011,-0.2077,184.6562
18:42:49:149,-0.3042,0.9314,8.2717,45.1121,0.1552,0.0996,-0.1839,185.3438
18:42:49:169,-0.6081,0.9314,7.8574,44.8663,0.2523,0.3024,-0.2401,185.4219
18:42:49:191,-0.7038,1.0152,7.6971,44.9689,0.2321,0.2767,-0.2187,186.0938
18:42:49:208,-0.5052,1.0822,7.934,44.7592,0.1435,0.2211,-0.1497,186.1562
18:42:49:229,-0.2584,1.0726,8.4535,44.6726,0.047,0.1765,-0.1057,187.2031
18:42:49:247,-0.2608,1.0726,8.9611,44.3995,0.0031,0.149,-0.1338,187.3125
18:42:49:269,-0.5602,1.2162,9.2821,44.037,0.0403,0.1301,-0.2052,188.3438
18:42:49:290,-0.8234,1.4103,8.9611,43.4731,0.1313,0.1228,-0.2333,189.1719
18:42:49:309,-1.0654,1.5778,8.6043,43.3096,0.16,0.0965,-0.1991,189.1719
18:42:49:330,-1.4342,1.6208,8.7793,42.9734,0.0983,0.0367,-0.135,189.9688
18:42:49:347,-1.4653,1.5634,9.0066,42.1737,0.0043,-0.0678,-0.0269,189.9688
18:42:49:368,-1.1228,1.2832,9.8157,41.8573,-0.1515,-0.1894,0.0977,190.6719
18:42:49:391,-0.5818,1.0654,11.0704,41.4748,-0.3024,-0.2285,0.179,190.7344
18:42:49:408,0.3544,0.9769,12.9903,40.9011,-0.3421,-0.1216,0.1631,190.7344
18:42:49:430,0.5506,0.5435,14.6255,40.5886,-0.1509,0.1313,0.0189,191.2031
18:42:49:448,-0.1053,0.4741,13.2323,40.2826,0.2798,0.2223,-0.2095,191.2031
18:42:49:469,-0.5411,1.0295,10.8882,39.806,0.5211,-0.0776,-0.394,191.75
18:42:49:491,-0.8282,1.3119,10.1462,39.556,0.3036,-0.2895,-0.4508,192.2031
18:42:49:509,-0.9864,1.3908,10.7925,39.5311,-0.0452,-0.1625,-0.4581,192.2031
18:42:49:528,-1.0726,1.3669,11.5923,39.1322,-0.2602,0.2211,-0.4606,192.4844
18:42:49:549,-1.5802,1.2114,12.1837,38.4945,-0.3097,0.4563,-0.4716,192.4844
18:42:49:569,-1.8003,0.9362,12.1813,38.2512,-0.1735,0.3457,-0.4251,192.9844
18:42:49:591,-1.896,0.6033,11.2259,38.0551,0.0806,0.0525,-0.3396,192.9844
18:42:49:608,-2.2146,0.3377,10.1749,37.7894,0.3048,-0.1643,-0.2682,193.3438
18:42:49:628,-2.5642,0.146,9.1214,37.5149,0.4074,-0.1045,-0.168,193.3906
18:42:49:648,-2.5161,0.1555,8.3052,37.3602,0.3317,0.0947,0.0134,193.2969
18:42:49:668,-2.1236,0.256,8.2932,37.1676,0.091,0.2059,0.2541,193.2969
18:42:49:692,-0.7899,0.565,9.1286,36.9492,-0.1472,0.1399,0.4765,192.875
18:42:49:710,-0.3497,0.8163,8.4296,36.9714,-0.2065,-0.0037,0.6145,192.8438
18:42:49:729,-0.1125,1.1444,7.6205,36.9705,-0.1332,-0.1503,0.642,193.0469
18:42:49:748,0.1053,1.439,7.1656,36.7079,-0.0983,-0.2309,0.5931,193.0625
18:42:49:769,0.256,1.5778,7.0675,36.6552,-0.1466,-0.2022,0.5302,193.9844
18:42:49:793,0.2922,1.6615,7.2733,36.445,-0.2914,0.0305,0.3641,194.9688
18:42:49:808,0.0144,1.7357,7.6086,36.3045,-0.3152,0.146,0.2303,194.9688
18:42:49:829,-0.5171,1.8194,8.0489,36.0634,-0.2993,0.226,0.102,195.9219
18:42:49:848,-1.1324,1.8864,8.4703,35.9121,-0.2523,0.2559,0.0202,195.9219
18:42:49:870,-1.4749,1.9271,8.7171,35.7405,-0.1912,0.2504,0.025,196
18:42:49:889,-1.5945,1.9056,8.9994,35.6536,-0.146,0.2034,0.0874,196.7188
18:42:49:908,-1.4414,1.9056,9.2725,35.7298,-0.0941,0.1051,0.1545,196.7188
18:42:49:928,-1.1085,1.992,9.3538,35.6292,-0.0476,-0.0031,0.1869,196.9688
18:42:49:948,-0.862,2.059,9.4807,35.5133,-0.0367,-0.1289,0.1539,196.9844
18:42:49:969,-0.8043,2.2002,9.9428,35.1856,-0.0391,-0.2614,0.0727,196.1875
18:42:49:991,-0.7899,2.217,10.3735,34.8601,-0.0214,-0.2932,0.0037,194.7656
18:42:50:009,-0.8067,2.1404,11.0417,34.6175,-0.0037,-0.2046,-0.0654,194.7656
18:42:50:030,-1.075,1.8218,11.6904,34.1942,0.0092,-0.0159,-0.1564,193.4844
18:42:50:049,-1.1755,1.5993,12.3033,33.8608,0.022,0.1283,-0.2456,193.4844
18:42:50:068,-1.3621,1.3621,12.3942,33.6496,0.0904,0.1216,-0.339,192.5156
18:42:50:095,-1.5036,1.3238,11.7526,33.4707,0.1936,-0.1173,-0.3799,192.5156
18:42:50:108,-1.6256,1.2233,11.0608,33.4214,0.1753,-0.4013,-0.3433,192.0781
18:42:50:129,-1.3238,1.1827,11.0704,33.4898,-0.0073,-0.5314,-0.2266,192.0781
18:42:50:148,-0.6344,0.9912,11.846,33.64,-0.2578,-0.3842,-0.0874,192
18:42:50:168,0.3114,0.6775,12.909,33.671,-0.4245,-0.033,-0.0354,191.9844
18:42:50:192,0.8354,0.285,13.3759,34.0287,-0.3653,0.223,-0.1552,191.7344
18:42:50:209,-0.0694,0.2536,11.1709,34.2706,-0.1002,0.2352,-0.383,191.7031
18:42:50:229,-0.3951,0.4238,9.9835,34.4178,0.2877,-0.102,-0.6035,191.3438
18:42:50:248,-0.3497,0.5626,9.3993,34.4259,0.2504,-0.1057,-0.54,191.3125
18:42:50:267,-0.2249,0.6559,9.2363,34.7565,0.1533,0.0257,-0.4765,191.2188
18:42:50:292,-0.2154,0.7038,9.3969,35.0672,0.0721,0.2052,-0.4368,191.4219
18:42:50:308,-0.3209,0.7229,9.3802,35.4137,0.0678,0.3219,-0.4068,191.4219
18:42:50:330,-0.4549,0.8282,9.1071,35.8083,0.1167,0.3189,-0.3696,191.4375
18:42:50:347,-0.4932,0.9553,8.7864,36.1456,0.1576,0.2535,-0.3079,192.0312
18:42:50:368,-0.5411,1.0247,8.5445,36.3704,0.1753,0.204,-0.2291,192.0938
18:42:50:391,-0.4262,1.051,8.4296,36.6945,0.1765,0.2034,-0.1503,192.9219
18:42:50:408,-0.3305,1.0104,8.578,37.245,0.1698,0.2321,-0.1203,192.9219
18:42:50:428,-0.4406,1.0104,8.6426,37.5634,0.204,0.2199,-0.1411,193.2188
18:42:50:448,-0.6224,1.0463,8.4823,37.831,0.2639,0.16,-0.1631,193.2188
18:42:50:468,-0.6823,1.1228,8.068,37.9436,0.2993,0.058,-0.1515,193.3594
18:42:50:489,-0.6129,1.2114,7.9292,38.0657,0.2578,-0.0147,-0.1161,194.4219
18:42:50:509,-0.4789,1.2736,8.3315,38.2752,0.1588,-0.0336,-0.0837,194.4219
18:42:50:529,-0.2874,1.3286,8.8726,38.6339,0.0953,-0.025,-0.0855,195.7188
18:42:50:549,-0.1914,1.3956,9.2701,38.7945,0.1112,-0.0043,-0.1283,195.7188
18:42:50:573,-0.2393,1.5156,9.2725,38.8818,0.1778,0.0061,-0.1961,196.7656
18:42:50:588,-0.5363,1.6854,9.1549,39.1642,0.2181,0.0018,-0.2517,196.7656
18:42:50:608,-0.9984,1.7333,9.0449,39.5108,0.2022,-0.0397,-0.2578,197.6562
18:42:50:628,-1.2018,1.6926,9.0616,39.6507,0.1216,-0.1264,-0.201,197.6562
18:42:50:649,-1.2018,1.6711,9.7271,40.1261,-0.0293,-0.1393,-0.1179,198.25
18:42:50:669,-1.0199,1.4414,10.6418,40.4347,-0.1539,-0.0177,-0.0348,198.3125
18:42:50:689,-0.6799,1.0582,11.0465,40.4371,-0.1784,0.0996,0.0061,198.6406
18:42:50:708,-0.8907,0.7349,11.0441,40.7946,-0.1509,0.0544,-0.0446,198.6719
18:42:50:730,-1.2425,0.8429,10.6992,41.1345,-0.1332,-0.1246,-0.0922,199.0312
18:42:50:748,-1.5706,0.6416,11.3384,41.049,-0.4618,-0.1796,0.1002,199.0625
18:42:50:768,-0.6153,0.6176,12.5234,41.0291,-0.6634,0.0562,0.2425,199.4062
18:42:50:792,-0.4023,0.5913,13.3185,41.3779,-0.631,0.2676,0.1686,199.4375
18:42:50:808,-1.1683,0.6416,12.6144,41.3682,-0.3237,0.2059,-0.0134,199.6406
18:42:50:830,-1.9896,0.778,10.7877,41.4993,0.0519,-0.1362,-0.0837,199.6562
18:42:50:847,-2.2696,0.7708,9.3395,41.718,0.2333,-0.427,0.0226,200
18:42:50:869,-2.1547,0.51,8.5995,41.8004,0.204,-0.4068,0.2046,200.0469
18:42:50:890,-1.6807,0.3018,8.4392,42.2666,0.0079,-0.1319,0.3702,200.5938
18:42:50:909,-1.0989,0.28,9.2653,42.4148,-0.2779,0.1833,0.4673,200.6562
18:42:50:930,-0.376,0.4262,10.4408,42.5711,-0.4887,0.3891,0.5052,201.0156
18:42:50:948,0.1364,0.51,11.0752,42.8479,-0.496,0.405,0.4551,201.0156
18:42:50:968,0.3927,0.7684,10.5102,42.9828,-0.2871,0.2089,0.2969,201.0156
18:42:50:992,0.1795,1.0845,9.1549,43.1179,-0.0354,-0.0391,0.0831,201.125
18:42:51:008,-0.2369,1.4246,8.1135,43.3197,0.0867,-0.1411,-0.0874,201.125
18:42:51:030,-0.5554,1.6113,7.6469,43.3854,0.091,-0.0336,-0.1411,200.9688
18:42:51:049,-0.754,1.6017,7.5556,43.4671,0.0684,0.1442,-0.1234,200.9688
18:42:51:068,-0.9075,1.5491,7.6875,43.6098,0.0507,0.2223,-0.0825,200.3906
18:42:51:089,-0.8907,1.494,8.0728,44.0076,0.036,0.1735,-0.0275,200.3906
18:42:51:108,-0.8477,1.4222,8.4703,43.9082,0.0385,0.0733,0.0153,200.4531
18:42:51:129,-0.7947,1.4028,8.6785,44.1766,0.0538,-0.0061,0.0525,200.4531
18:42:51:196,-0.8043,1.4318,8.8678,44.4037,0.0434,-0.066,0.0715,200.25
18:42:51:197,-0.7756,1.6113,9.2821,44.5587,0.0177,-0.1283,0.0709,200.2188
18:42:51:197,-0.6081,1.8314,9.6458,44.7599,0.0195,-0.1686,0.0556,199.375
18:42:51:208,-0.5363,2.0925,9.7295,44.581,0.0629,-0.201,0.0122,199.2812
18:42:51:230,-0.5554,2.2959,9.6266,45.0006,0.1277,-0.2437,-0.0513,198.25
18:42:51:248,-0.7325,2.581,9.9428,44.9002,0.1582,-0.2566,-0.1741,198.1562
18:42:51:269,-0.8043,2.3581,10.649,44.9673,0.1142,-0.1319,-0.1802,197.7344
18:42:51:290,-0.6081,2.0112,11.4724,44.7731,0.077,-0.0037,-0.1668,197.7031
18:42:51:307,-0.3927,1.7716,12.2148,44.6897,0.0953,0.0452,-0.2144,197.9375
18:42:51:328,-0.6894,1.3884,11.8795,44.7612,0.1924,0.0128,-0.3115,197.9531
18:42:51:347,-1.0487,1.1563,11.0441,44.7404,0.2388,-0.2358,-0.3561,198.1875
18:42:51:369,-0.9242,1.1348,10.8045,44.7655,0.1124,-0.5174,-0.3225,198.2188
18:42:51:391,-0.6129,0.9553,11.269,44.5776,-0.1228,-0.5046,-0.2584,198.25
18:42:51:408,-0.0383,0.4932,11.9919,44.4047,-0.3299,-0.2474,-0.1784,198.25
18:42:51:429,0.8115,0.1364,12.6625,44.4137,-0.4306,0.0647,-0.168,198.125
18:42:51:447,1.1204,-0.146,12.612,44.7791,-0.3396,0.2114,-0.3109,198.125
18:42:51:469,0.4669,-0.0766,11.6474,44.7434,-0.0953,0.1319,-0.5675,197.9688
18:42:51:492,-0.4932,0.3592,10.2897,44.616,0.1295,-0.0018,-0.7507,198.0156
18:42:51:509,-1.2616,0.577,9.143,44.7326,0.1881,0.0415,-0.7318,198.0156
18:42:51:529,-1.3741,0.6272,8.7625,44.5748,0.0788,0.1545,-0.565,198.3438
18:42:51:549,-0.9147,0.6272,9.3778,44.5452,-0.0953,0.2327,-0.3708,198.3438
18:42:51:574,-0.4525,0.6009,10.2084,44.5535,-0.1888,0.2902,-0.2456,198.75
18:42:51:590,-0.146,0.5554,10.4719,44.3719,-0.1545,0.3152,-0.2046,198.75
18:42:51:609,0.0502,0.6368,10.3977,44.273,-0.0568,0.2449,-0.2401,199.3594
18:42:51:629,-0.012,0.7828,9.8877,44.3563,0.0819,0.1222,-0.3176,199.3594
18:42:51:649,-0.5076,0.8955,8.9922,44.3633,0.2248,0.0134,-0.4056,200.0469
18:42:51:675,-1.1611,0.9553,8.1135,44.1512,0.3292,-0.025,-0.4441,200.1094
18:42:51:689,-1.506,0.996,7.2852,43.9467,0.3702,0.0122,-0.3916,200.4844
18:42:51:708,-1.4581,0.9745,6.9691,43.7613,0.2981,0.1026,-0.2724,200.5312
18:42:51:730,-0.6942,0.8354,8.1927,43.6954,0.0782,0.2572,-0.0788,200.9531
18:42:51:750,-0.6129,0.874,8.5062,43.9321,0.0837,0.2162,-0.1118,200.9844
18:42:51:774,-0.6009,1.1061,8.5612,43.6239,0.1197,0.1362,-0.1545,202.3125
18:42:51:790,-0.4525,1.3669,8.6617,43.1667,0.1203,0.1038,-0.1466,202.4375
18:42:51:808,-0.1986,1.5897,9.1693,43.08,0.0855,0.0965,-0.1344,203.7656
18:42:51:828,-0.079,1.7812,9.5142,42.8893,0.1081,0.1038,-0.1716,203.9062
18:42:51:847,-0.28,1.8123,9.3754,42.9896,0.1741,0.0855,-0.2462,204.5312
18:42:51:869,-0.6464,1.7644,9.5285,42.9336,0.1582,-0.0342,-0.3176,204.5938
18:42:51:889,-1.3143,1.7979,10.436,42.8512,0.0605,-0.1771,-0.336,205.0469
18:42:51:908,-1.6591,1.8601,11.0608,42.4968,-0.0183,-0.1454,-0.1912,205.0938
18:42:51:929,-1.3836,1.64,11.2044,42.5038,-0.066,-0.0281,0.0483,205.9375
18:42:51:948,-1.2066,1.0798,11.1924,42.8393,-0.1289,0.0275,0.212,205.9375
18:42:51:968,-1.1252,0.874,11.4987,42.5655,-0.1955,-0.0556,0.2614,206.9219
18:42:51:992,-1.2975,0.6655,12.0494,42.3413,-0.2657,-0.0647,0.2798,207.4688
18:42:52:008,-1.3238,0.3162,12.2865,42.3413,-0.3036,-0.011,0.3207,207.4688
18:42:52:028,-1.0152,0.1962,12.1645,42.2351,-0.2981,-0.0434,0.3665,207.7031
18:42:52:049,-0.941,0.2776,12.0206,42.0773,-0.2822,-0.1026,0.3561,207.7031
18:42:52:074,-1.0295,0.3018,11.9656,41.9704,-0.2449,-0.1442,0.3189,208.0781
18:42:52:088,-1.0319,0.2898,11.4867,41.8189,-0.1228,-0.2254,0.2804,208.0781
18:42:52:107,-1.1635,0.201,10.6442,41.2776,0.0452,-0.3109,0.2272,208.4531
18:42:52:129,-1.4438,0.2082,9.7032,41.4211,0.1582,-0.2798,0.1759,208.4531
18:42:52:148,-1.6878,0.3616,8.9683,41.5213,0.1405,-0.1222,0.1539,209.1094
18:42:52:171,-1.6113,0.6033,8.8152,41.2321,-0.0006,0.0501,0.1949,209.1094
18:42:52:191,-1.1563,0.8477,9.0975,41.03,-0.1509,0.1319,0.2682,209.625
18:42:52:208,-0.5961,0.9649,9.1334,41.0409,-0.1912,0.1191,0.3048,209.6875
18:42:52:230,-0.2417,1.0558,8.8008,41.0691,-0.1344,0.0434,0.2834,209.4062
18:42:52:251,-0.1149,1.1779,8.3794,40.9974,-0.0611,-0.0031,0.2278,209.375
18:42:52:275,-0.1675,1.2951,8.1039,40.9651,0.0177,0.0843,0.0837,208.7969
18:42:52:289,-0.352,1.5227,7.8335,40.7304,0.0519,0.1081,0.0489,208.7344
18:42:52:308,-0.565,1.5419,7.7258,40.5254,0.0715,0.0971,0.0373,207.9844
18:42:52:328,-0.8378,1.5586,7.8287,40.572,0.0586,0.0825,0.0452,207.9062
18:42:52:348,-0.996,1.5682,8.1544,40.6198,0.0177,0.1069,0.0733,207.1562
18:42:52:370,-0.9338,1.6017,8.5875,40.4304,-0.0305,0.171,0.1112,207.0938
18:42:52:390,-0.9673,1.6017,8.9157,40.4237,-0.0611,0.2346,0.1344,206.5469
18:42:52:408,-1.0319,1.6711,9.0329,40.3226,-0.0629,0.215,0.1448,206.4844
18:42:52:429,-0.9003,1.8721,8.9611,40.5876,-0.047,0.1179,0.1527,206.1562
18:42:52:449,-0.7253,2.1069,9.0185,40.5957,-0.0385,0.025,0.1344,206.125
18:42:52:469,-0.6272,2.2528,9.3826,40.6705,-0.0214,-0.014,0.091,205.6094
18:42:52:490,-0.6775,2.3151,9.5118,40.3842,0.0354,0.0092,0.0336,204.9375
18:42:52:508,-0.7828,2.3557,9.6458,40.2257,0.0605,0.0373,-0.0342,204.9375
18:42:52:530,-1.0175,2.2624,10.2634,40.2132,0.0049,0.0415,-0.0904,204.5156
18:42:52:548,-1.0941,2.0112,11.1613,40.0689,-0.0825,0.0159,-0.0971,204.5156
18:42:52:568,-0.8835,1.8386,12.0664,39.727,-0.1234,-0.077,-0.0965,204.375
18:42:52:590,-0.9051,1.6591,11.9752,39.3954,-0.0599,-0.1955,-0.1338,204.375
18:42:52:608,-0.5602,1.7309,11.4796,39.3755,0.0098,-0.394,-0.16,204.3125
18:42:52:631,-0.5889,1.7118,11.6067,39.1742,-0.0678,-0.449,-0.1912,204.3125
18:42:52:649,-0.577,1.7046,12.4182,39.3055,-0.2101,-0.2676,-0.1967,204.125
18:42:52:674,-0.4238,1.3645,13.3017,39.3188,-0.2865,0.0935,-0.1796,204.125
18:42:52:691,-0.3353,0.8139,13.3591,39.2362,-0.1894,0.3952,-0.2242,203.8594
18:42:52:708,-0.862,0.4143,12.3535,39.1327,0.0806,0.4966,-0.3683,203.8281
18:42:52:728,-1.5467,0.3736,10.3519,39.4717,0.3842,0.3934,-0.4716,203.5312
18:42:52:751,-0.9051,0.1579,8.7171,39.4449,0.4221,0.1448,-0.4032,203.5156
18:42:52:774,-0.146,0.0311,10.8212,39.3245,0.1081,-0.1032,-0.2065,203.375
18:42:52:790,0.2898,0.0024,12.478,39.2536,-0.2633,-0.1191,-0.1124,203.375
18:42:52:808,0.189,-0.0526,12.4971,39.1913,-0.1032,0.5247,-0.361,203.5
18:42:52:829,-0.3138,-0.0263,11.1733,39.0801,0.2101,0.5669,-0.5241,203.5156
18:42:52:847,-1.0056,0.2082,9.7008,39.0054,0.3934,0.2828,-0.5999,203.6875
18:42:52:870,-1.4868,0.5076,8.7673,38.7827,0.4197,-0.0305,-0.5553,203.7031
18:42:52:891,-1.6161,0.7277,7.9914,38.6767,0.4172,-0.1912,-0.4459,203.9531
18:42:52:907,-1.5251,0.8955,7.2661,38.7408,0.4117,-0.1833,-0.3323,203.9844
18:42:52:930,-1.3789,1.008,6.8662,38.5306,0.3726,-0.1051,-0.2223,204.3125
18:42:52:949,-1.075,1.1109,7.0436,38.4788,0.2938,-0.0208,-0.1222,204.3438
18:42:52:969,-0.8668,1.1348,7.5413,38.2327,0.2272,0.0782,-0.0501,204.7656
18:42:52:990,-0.6751,1.2664,8.0536,38.0783,0.1906,0.1594,-0.0153,205.7969
18:42:53:008,-0.6511,1.4414,8.5014,37.893,0.1637,0.215,0.0067,205.7969
18:42:53:030,-0.6248,1.6137,8.7745,38.0455,0.1344,0.2083,0.0593,206.5312
18:42:53:048,-0.4334,1.7812,9.0018,37.9112,0.1032,0.0696,0.1283,206.5312
18:42:53:070,-0.1627,1.9681,9.3562,37.7857,0.0806,-0.1179,0.1753,206.7969
18:42:53:090,0.0263,2.1619,9.7032,37.8401,0.0904,-0.2547,0.1808,206.7969
18:42:53:108,-0.1172,2.2265,9.8157,37.8483,0.1466,-0.2999,0.1442,207.8594
18:42:53:129,-0.3233,2.26,9.5142,37.8488,0.2144,-0.2688,0.1191,207.8594
18:42:53:149,-0.4669,2.2241,9.253,38.0497,0.2101,-0.1796,0.1319,209.25
18:42:53:175,-0.4358,2.1858,9.3443,38.1555,0.1014,-0.0177,0.1753,209.25
18:42:53:190,-0.5339,2.0303,10.1175,37.9893,-0.0562,0.1295,0.2077,210.1094
18:42:53:268,-0.5554,1.7333,10.4839,37.9631,-0.1295,0.1191,0.234,210.2031
18:42:53:269,-0.5506,1.5156,11.0752,37.8777,-0.1955,0.0947,0.2388,210.625
18:42:53:269,-1.0223,1.1659,12.0855,37.8781,-0.3317,0.2779,0.1851,210.6562
18:42:53:271,-1.1635,0.7636,12.7798,37.8224,-0.3952,0.1833,0.1576,210.7969
18:42:53:293,-0.4334,0.5674,12.9975,37.8288,-0.372,-0.0342,0.1869,210.7969
18:42:53:307,-0.0239,0.268,13.1052,37.5523,-0.273,-0.157,0.1038,210.7812
18:42:53:330,-0.7612,0.0287,12.4205,37.4033,0.0134,-0.2162,-0.1301,210.7812
18:42:53:348,-2.339,0.0072,10.5867,37.238,0.4007,-0.1888,-0.3696,210.5
18:42:53:368,-3.9072,0.0024,8.3219,37.0242,0.6072,-0.0092,-0.4019,210.4688
18:42:53:392,-4.331,0.055,6.6365,37.2523,0.4447,0.1643,-0.1307,210.1562
18:42:53:408,-3.0715,0.213,6.9858,37.0986,-0.0409,0.1448,0.3152,210.125
18:42:53:430,-1.1444,0.2874,8.7003,36.8953,-0.518,0.0171,0.6426,209.9062
18:42:53:447,0.4789,0.5076,10.2873,36.5102,-0.6554,-0.1124,0.6725,209.8906
18:42:53:471,1.2114,0.9338,10.3328,36.4488,-0.4306,-0.1729,0.4154,209.4844
18:42:53:490,0.62,1.398,9.2339,36.3589,-0.102,-0.1387,0.0312,208.9219
18:42:53:508,-0.3999,1.8505,8.1302,36.3363,0.0709,0.0226,-0.2315,208.9219
18:42:53:529,-1.2042,2.1045,7.7354,36.4946,0.0641,0.1594,-0.2926,208.5
18:42:53:548,-1.5299,2.2217,7.8431,36.0938,0.0012,0.1662,-0.2065,208.5
18:42:53:571,-1.5012,2.2098,8.0154,36.1227,-0.0147,0.0825,-0.0745,208.0156
18:42:53:589,-1.3884,2.126,8.0489,35.9627,0.0104,0.0336,0.025,208.0156
18:42:53:609,-1.4174,2.0207,8.0369,36.1608,0.0299,0.0556,0.0922,207.9844
18:42:53:630,-1.386,1.9367,8.1015,35.8836,0.011,0.0898,0.1613,207.9844
18:42:53:649,-1.1635,1.8864,8.3411,35.8552,-0.0495,0.1069,0.2364,208.9531
18:42:53:673,-0.7062,1.8075,8.6378,35.8135,-0.1081,0.0696,0.2871,208.9531
18:42:53:692,-0.1819,1.8936,9.2701,35.1743,-0.1258,-0.0391,0.2737,208.8281
18:42:53:709,-0.0431,2.0686,9.6817,34.8986,-0.0672,-0.1155,0.1527,208.8281
18:42:53:729,-0.2321,2.2935,9.6888,34.588,0.0495,-0.1497,-0.0092,207.375
18:42:53:749,-0.6081,2.4012,9.5716,34.7392,0.1338,-0.1655,-0.1209,207.2344
18:42:53:773,-0.9314,2.2528,10.206,34.824,0.091,-0.1607,-0.1558,206.7031
18:42:53:789,-1.0128,2.0614,10.9361,34.9319,0.0031,-0.0916,-0.1442,206.6406
18:42:53:808,-0.754,1.9558,11.9728,34.6502,-0.0819,-0.0415,-0.1142,207.1875
18:42:53:829,-0.4525,1.8817,12.6215,34.7917,-0.0745,-0.0849,-0.1246,207.2344
18:42:53:848,-0.5913,1.7381,12.1741,35.1724,0.0666,-0.2718,-0.1924,207.5312
18:42:53:874,-0.7086,1.7572,11.3049,35.2053,0.1839,-0.4862,-0.2419,207.5625
18:42:53:889,-0.8139,1.7166,10.7925,35.3252,0.1332,-0.5278,-0.2388,207.4531
18:42:53:908,-0.4214,1.6328,10.9675,35.0971,-0.0342,-0.4215,-0.1674,207.4375
18:42:53:931,0.2345,1.3765,11.5588,34.8366,-0.2077,-0.2315,-0.0861,207.0625
18:42:53:947,0.778,0.9721,12.186,34.8383,-0.2621,-0.0928,-0.0953,207.0156
18:42:53:970,0.8883,0.6559,12.1023,34.9339,-0.1503,-0.0391,-0.2114,206.3594
18:42:53:989,0.3616,0.4167,11.2738,34.6382,0.0214,-0.0287,-0.3659,206.1875
18:42:54:008,-0.0957,0.3832,10.3424,34.3088,0.0837,-0.0067,-0.4423,206.1875
18:42:54:030,-0.1986,0.4693,9.8949,34.2737,0.014,0.0153,-0.4251,206.5156
18:42:54:048,-0.2874,0.6751,10.2108,33.7947,-0.0971,0.0611,-0.3971,206.5156
18:42:54:070,-0.6272,0.929,10.4743,33.6369,-0.1106,0.1545,-0.3842,206.8438
18:42:54:093,-1.0104,1.1228,9.9117,33.3543,-0.0073,0.2236,-0.339,206.8438
18:42:54:109,-1.0941,1.3382,9.0855,32.9818,0.0922,0.1826,-0.234,207.0938
18:42:54:130,-0.9338,1.4342,8.4918,32.6891,0.1264,0.0825,-0.0953,207.0938
18:42:54:150,-0.5961,1.5251,8.1736,32.2706,0.0965,0.0342,0.0367,207.5625
18:42:54:174,-0.3305,1.5203,8.4296,31.9992,0.011,0.014,0.1271,207.5625
18:42:54:191,-0.0096,1.4342,8.9396,31.8408,-0.0354,-0.0324,0.1466,207.9688
18:42:54:209,0.1101,1.3286,9.2578,32.009,0.0483,-0.0544,0.0806,207.9688
18:42:54:229,0.0024,1.2592,8.9204,31.9371,0.2223,0.0024,-0.0049,208.0938
18:42:54:250,-0.0933,1.1994,8.1855,31.6702,0.3439,0.069,-0.0336,208.1094
18:42:54:275,0.1125,1.1204,7.8933,31.6346,0.3048,0.0715,0.0031,208.6719
18:42:54:289,0.3688,1.1133,8.1616,31.5047,0.1808,0.014,0.0147,208.7188
18:42:54:309,0.3808,1.1946,8.4535,31.7301,0.1142,-0.0342,-0.0562,209.5938
18:42:54:329,-0.0622,1.4725,8.5038,31.6335,0.1564,-0.069,-0.237,209.6875
18:42:54:348,-0.6535,1.7357,8.3148,31.3551,0.1692,-0.1924,-0.2382,210.4531
18:42:54:375,-1.0199,2.016,8.2908,30.9455,0.1698,-0.2004,-0.2193,210.5312
18:42:54:389,-1.5299,2.2672,8.3004,30.6979,0.1723,-0.0238,-0.1619,211.1406
18:42:54:407,-1.319,2.083,8.2813,30.8156,0.077,0.1533,-0.0403,211.2031
18:42:54:430,-0.8282,1.817,9.1047,30.5489,-0.1399,0.1448,0.0849,211.2969
18:42:54:447,-0.3616,1.5299,10.4192,30.4067,-0.3409,0.0299,0.1527,211.2969
18:42:54:470,-0.3138,1.2568,11.3001,30.0831,-0.4276,-0.0373,0.1283,211.0312
18:42:54:492,-0.5028,1.1157,11.8364,30.0139,-0.427,-0.0177,0.0721,210.9375
18:42:54:509,-0.5339,1.1587,12.21,30.1104,-0.4447,0.1997,0.058,210.9375
18:42:54:529,-0.7158,1.0702,12.629,30.2314,-0.4826,0.4526,0.0489,211.0469
18:42:54:548,-0.8668,1.0343,12.8851,30.3236,-0.4655,0.5027,0.0568,211.0469
18:42:54:569,-1.0917,1.1276,13.019,30.1965,-0.3989,0.4221,0.0812,211.125
18:42:54:591,-1.3669,1.1468,13.1172,30.1702,-0.3109,0.314,0.1283,211.125
18:42:54:608,-1.439,1.0391,12.7511,29.9005,-0.1753,0.193,0.2199,211.5938
18:42:54:629,-1.4414,0.7923,11.5158,29.8488,0.0342,-0.0446,0.328,211.5938
18:42:54:649,-1.063,0.4382,10.1414,29.736,0.1936,-0.3244,0.4514,212.1094
18:42:54:669,-0.5052,0.1866,9.2653,29.3135,0.2016,-0.3995,0.532,212.1094
18:42:54:689,-0.0359,0.1819,9.143,28.9715,0.0574,-0.1826,0.5125,212.375
18:42:54:709,0.0814,0.2632,9.5883,28.7017,-0.1497,0.1466,0.4227,212.375
18:42:54:730,0.1125,0.5004,10.1342,28.4458,-0.281,0.3109,0.2993,212.1094
18:42:54:750,0.2058,0.8139,10.0768,28.3124,-0.2657,0.3164,0.1674,212.0781
18:42:54:775,-0.0048,1.1803,9.2483,28.427,-0.1521,0.2309,0.0232,211.7969
18:42:54:789,-0.4406,1.5467,8.3674,28.3957,-0.0696,0.1155,-0.0751,211.7656
18:42:54:810,-0.9218,1.8434,7.6445,28.2674,-0.0354,0.0415,-0.0037,211.5938
18:42:54:830,-0.7062,1.7285,7.4169,28.2182,0.0012,0.0232,0.0855,211.5781
18:42:54:849,-0.4908,1.6878,7.3786,28.1392,0.0324,0.0299,0.1313,211.4062
18:42:54:875,-0.3999,1.5514,7.5389,28.0681,0.0385,0.0727,0.1405,211.3906
18:42:54:891,-0.4573,1.4533,7.6995,28.1027,0.0342,0.0757,0.1387,211.0156
18:42:54:907,-0.4789,1.4557,8.0321,28.0852,0.0006,0.0147,0.1478,210.9844
18:42:54:929,-0.3855,1.4844,8.3243,27.7212,-0.0525,-0.047,0.1747,210.2031
18:42:54:947,-0.2345,1.628,8.8152,27.17,-0.1136,-0.1051,0.1833,210.125
18:42:54:969,-0.1866,1.8673,9.3275,27.1169,-0.1454,-0.1319,0.1399,209.0781
18:42:54:989,-0.0909,2.1571,9.7606,27.0526,-0.1148,-0.1332,0.0617,208.1562
18:42:55:009,-0.4717,2.4562,10.1198,26.9825,-0.0428,-0.1026,-0.044,208.1562
18:42:55:028,-1.3454,2.7628,10.3137,26.7995,0.0605,-0.0623,-0.1203,207.9219
18:42:55:048,-1.8817,2.904,10.2251,26.4294,0.1558,-0.0153,-0.0721,207.9219
18:42:55:069,-1.6232,2.7604,10.3113,26.3049,0.1271,0.0611,0.1014,208.0781
18:42:55:092,-0.8979,2.4419,11.2259,25.9441,-0.022,0.1234,0.2419,208.0781
18:42:55:107,-0.2827,2.1332,12.3751,26.0147,-0.1136,0.0935,0.2107,207.9844
18:42:55:129,-0.2273,1.8793,12.3655,26.0128,-0.0287,-0.0843,0.0525,207.9844
18:42:55:148,-0.2082,1.8434,11.4628,25.7775,0.0702,-0.3506,-0.0806,207.7344
18:42:55:174,-0.1866,1.8027,11.4915,25.4505,-0.0611,-0.4502,-0.146,207.7031
18:42:55:188,0.2417,1.7357,13.3878,25.3465,-0.3457,-0.1558,-0.1662,207.4062
18:42:55:208,0.486,1.3502,15.4517,25.4113,-0.4691,0.449,-0.2785,207.4062
18:42:55:228,0.1962,0.7636,15.7484,25.1086,-0.1503,0.8466,-0.5278,207.0156
18:42:55:249,-0.5483,0.4836,13.4333,25.1558,0.485,0.8747,-0.8198,206.9688
18:42:55:273,-1.8817,0.3449,10.005,24.9134,0.9645,0.6512,-1.0079,206.7188
18:42:55:328,-2.7939,0.4382,8.0058,24.5207,0.8973,0.3573,-0.9138,206.7031
18:42:55:329,-2.7269,0.5411,8.365,24.4386,0.452,0.1533,-0.6151,206.8438
18:42:55:329,-1.5108,0.6224,9.9021,24.2954,0.0776,0.1368,-0.3073,206.8594
18:42:55:349,-0.4382,0.5961,10.4815,23.9434,0.1625,0.2657,-0.2614,206.875
18:42:55:369,-0.1723,0.5841,10.1868,23.4682,0.3696,0.1478,-0.3867,206.875
18:42:55:391,-0.9553,0.9984,8.0991,23.1324,0.4966,0.0574,-0.4716,206.4219
18:42:55:408,-1.5491,1.2497,7.3905,22.9339,0.5076,0.088,-0.4673,206.375
18:42:55:428,-2.0423,1.4151,7.0555,22.9499,0.4502,0.135,-0.394,206.375
18:42:55:447,-2.272,1.494,6.8853,22.7864,0.3836,0.1234,-0.2541,206.375
18:42:55:469,-2.2265,1.4701,6.6485,22.3197,0.3158,0.058,-0.058,206.5938
18:42:55:490,-1.8625,1.3741,6.6652,22.1781,0.193,-0.0733,0.1625,207.5312
18:42:55:511,-1.1659,1.2808,7.1704,21.8035,0.0147,-0.212,0.3702,207.5312
18:42:55:528,-0.4932,1.1587,7.8981,21.7075,-0.1399,-0.2883,0.485,209.8594
18:42:55:548,-0.0335,1.1133,8.5253,21.6979,-0.2199,-0.2614,0.4911,209.8594
18:42:55:568,0.3784,1.1492,8.8989,21.3029,-0.2242,-0.1918,0.4392,211.7812
18:42:55:590,0.553,1.2688,9.076,20.775,-0.1814,-0.157,0.347,211.7812
18:42:55:608,0.6081,1.5323,8.8798,20.5421,-0.1222,-0.1521,0.2449,212.3906
18:42:55:631,0.51,1.7213,8.6402,20.3847,-0.0965,-0.1515,0.1607,212.3906
18:42:55:648,0.2656,1.7836,8.5253,19.9931,-0.1161,-0.1668,0.1124,213.125
18:42:55:669,0.0048,1.6543,8.8104,19.9848,-0.1979,-0.1894,0.1142,213.2031
18:42:55:690,-0.0455,1.3908,9.7056,19.8182,-0.3158,-0.1448,0.1381,214.4062
18:42:55:707,0.012,1.1755,10.6609,19.4291,-0.394,0.0373,0.1124,214.4062
18:42:55:729,-0.5674,1.0175,11.2235,19.4191,-0.3873,0.215,-0.0208,215.2656
18:42:55:748,-1.5491,0.9817,11.1709,19.2354,-0.3378,0.1949,-0.1448,215.2656
18:42:55:769,-1.5132,0.9505,11.403,19.1017,-0.3604,-0.0525,-0.1142,215.25
18:42:55:789,-0.0742,0.4836,12.1262,18.9158,-0.4722,-0.2981,-0.0513,215.25
18:42:55:808,0.4047,0.2584,12.32,18.7013,-0.5437,-0.3183,-0.2187,214.3594
18:42:55:830,-2.1954,1.0965,12.5785,18.4823,-0.4233,0.047,-0.7581,214.2812
18:42:55:849,-2.8992,1.3143,12.5665,18.0681,-0.35,0.2804,-0.576,213.1562
18:42:55:869,-2.4658,0.9051,12.2507,17.8737,-0.2621,0.179,-0.1716,213.1562
18:42:55:890,-1.64,0.3879,11.554,17.634,-0.1173,-0.1411,0.1301,212.5156
18:42:55:907,-1.1515,0.3281,10.7542,17.4781,0.0037,-0.3488,0.2059,212.4531
18:42:55:929,-1.1635,0.498,10.1797,17.2274,0.0092,-0.281,0.1704,212.125
18:42:55:947,-1.1372,0.7756,10.0361,17.1354,-0.0635,-0.0953,0.1576,212.0938
18:42:55:969,-0.766,0.9003,9.9787,16.8468,-0.1118,0.0489,0.1918,211.7656
18:42:55:988,-0.3855,0.9793,9.4232,16.5559,-0.0617,0.0629,0.1894,211.5469
18:42:56:008,-0.3449,1.1563,8.6545,16.5824,0.0226,0.0031,0.1228,211.5469
18:42:56:029,-0.5243,1.3884,7.8933,16.401,0.0764,-0.0226,0.0538,211.7188
18:42:56:047,-0.7181,1.6232,7.3977,16.4616,0.0806,-0.0116,0.033,211.7188
18:42:56:068,-0.7899,1.7453,7.1919,16.4888,0.0647,0.0128,0.0617,211.8125
18:42:56:092,-0.6703,1.7022,7.1704,16.4092,0.0483,0.0452,0.1173,211.8125
18:42:56:108,-0.6153,1.6161,7.5006,16.285,0.0226,0.0709,0.16,213.1406
18:42:56:128,-0.6392,1.5179,7.9531,16.2501,0.0037,0.1045,0.1888,213.1406
18:42:56:149,-0.7516,1.4629,8.2956,16.2119,-0.0024,0.1014,0.215,213.1406
18:42:56:173,-0.7684,1.4892,8.5851,16.1171,-0.0202,0.0367,0.2474,213.9219
18:42:56:192,-0.6942,1.5491,8.9013,15.9013,-0.0464,-0.0495,0.273,213.5
18:42:56:208,-0.6751,1.7237,9.0377,15.5753,-0.0593,-0.149,0.2663,213.5
18:42:56:228,-0.6129,2.0303,9.2219,15.4656,-0.055,-0.2504,0.2346,213.0938
18:42:56:249,-0.3808,2.3055,9.3993,15.3879,-0.0177,-0.2938,0.1949,213.0938
18:42:56:274,-0.1795,2.3581,9.1071,15.0096,0.0593,-0.3237,0.1326,212.6875
18:42:56:292,-0.0981,2.2959,8.7984,14.8376,0.0898,-0.3726,0.0379,212.6562
18:42:56:308,-0.3736,2.0734,9.306,14.5428,0.0318,-0.3457,-0.0672,212.4844
18:42:56:329,-0.4238,1.4797,11.2451,14.257,-0.0654,-0.1417,-0.2083,212.4688
18:42:56:349,-0.5818,1.1659,12.0903,14.1915,-0.0696,-0.0171,-0.2767,212.3906
18:42:56:368,-0.6416,0.9936,12.5139,14.0324,-0.0709,-0.0446,-0.295,212.3906
18:42:56:391,-0.4382,1.1324,12.7582,13.6054,-0.1319,-0.1955,-0.2749,212.125
18:42:56:407,-0.2874,1.1946,13.1315,13.1978,-0.2822,-0.2474,-0.2346,212.1094
18:42:56:429,0.256,1.2449,13.9289,13.228,-0.4038,-0.1955,-0.1692,211.7188
18:42:56:448,0.5506,0.9984,14.2137,13.0755,-0.3335,-0.0538,-0.1881,211.6875
18:42:56:473,0.0574,0.6703,13.4836,13.088,-0.0721,0.0721,-0.3231,211.1562
18:42:56:489,-0.9194,0.5267,11.9154,12.9716,0.2205,0.1368,-0.4514,210.5469
18:42:56:508,-1.7118,0.4047,10.273,12.753,0.3665,0.1631,-0.4251,210.5469
18:42:56:529,-1.7501,0.3305,9.3754,12.5676,0.2938,0.1429,-0.2175,210.0781
18:42:56:549,-1.3095,0.2249,9.4567,12.8029,0.0947,0.1442,0.0324,210.0781
18:42:56:572,-0.8234,0.0455,9.6171,12.7834,-0.0611,0.1997,0.2071,210.0625
18:42:56:591,-0.443,-0.0096,9.4232,12.6741,-0.1307,0.2272,0.2761,210.0625
18:42:56:608,-0.1651,0.0455,9.0305,12.7122,-0.1435,0.1533,0.2584,210.375
18:42:56:628,0.0526,0.2177,8.4751,12.6605,-0.1112,-0.0342,0.1814,210.4062
18:42:56:649,0.0383,0.5219,8.0465,12.8014,-0.0757,-0.2572,0.0819,210.4062
18:42:56:672,-0.3209,0.7732,8.1159,12.9212,-0.0556,-0.3299,0.0086,211
18:42:56:689,-0.6248,0.8354,8.08,12.9126,-0.0098,-0.1839,0.0336,211.4844
18:42:56:707,-0.2632,0.8668,8.0489,12.8247,0.0318,0.0574,0.1442,211.4844
18:42:56:728,0.3473,0.7181,8.4535,12.8331,0.033,0.3091,0.2248,211.7656
18:42:56:750,0.443,0.4717,8.6402,12.9087,0.0495,0.4655,0.1936,211.7656
18:42:56:775,0.2994,0.5483,8.9492,13.1188,0.0525,0.4697,0.1332,212.5781
18:42:56:789,0.0526,0.5698,9.1047,13.1748,0.0739,0.3873,0.1148,212.6406
18:42:56:808,-0.0885,0.6129,8.8654,13.0462,0.1319,0.2572,0.1472,213.3906
18:42:56:828,-0.0694,0.644,8.5445,13.1784,0.1625,0.1338,0.2089,213.4688
18:42:56:852,0.2704,0.8835,8.8582,13.3467,0.1234,0.0568,0.292,213.2656
18:42:56:872,0.419,0.9673,8.9683,13.5066,0.1368,0.0898,0.2773,213.25
18:42:56:888,0.3712,0.9649,9.0018,13.5551,0.1466,0.1093,0.2492,212.7188
18:42:56:907,0.2297,0.9147,9.294,13.6764,0.0886,0.1423,0.2278,212.6719
18:42:56:928,-0.0766,0.7971,9.9954,13.5533,-0.0446,0.2346,0.2083,212.3594
18:42:56:947,-0.4167,0.4645,11.1613,13.6195,-0.19,0.3305,0.2144,212.3281
18:42:56:969,-0.5124,0.2249,11.8651,13.7306,-0.2669,0.3531,0.2303,212.2188
18:42:56:990,-0.5219,0.3903,12.5258,13.7779,-0.3518,0.306,0.19,211.8906
18:42:57:008,-1.1061,0.4334,13.1004,14.0485,-0.4099,0.1991,0.0928,211.8906
18:42:57:028,-1.343,0.6081,13.0932,14.07,-0.3164,0.0189,0.0611,211.6094
18:42:57:047,-1.3813,0.8378,12.5282,14.3486,-0.1716,-0.0049,0.0709,211.6094
18:42:57:069,-1.398,1.0702,12.2387,14.3149,-0.1002,0.1405,0.0782,211.4062
18:42:57:093,-1.5323,1.0654,12.0736,14.6932,-0.0385,0.2486,0.0794,211.4062
18:42:57:108,-1.9008,0.8859,11.4006,14.9845,0.1454,0.1558,0.0941,210.9531
18:42:57:129,-2.3414,0.6942,10.3137,14.9645,0.3537,-0.0287,0.1387,210.9531
18:42:57:148,-2.4323,0.687,9.0999,14.9381,0.4221,-0.1155,0.2101,210.9375
18:42:57:168,-2.3509,0.8548,8.4272,14.9013,0.2682,-0.0269,0.3036,210.375
18:42:57:191,-1.7477,0.9721,8.9348,15.0667,-0.0202,0.1179,0.4331,209.8906
18:42:57:207,-0.9386,0.9817,9.6745,15.1124,-0.2175,0.1765,0.5223,209.8906
18:42:57:228,-0.3664,1.0391,9.7774,15.2197,-0.2077,0.1582,0.4807,209.4531
18:42:57:249,-0.2034,1.1276,9.2124,15.2065,-0.0611,0.124,0.3286,209.4531
18:42:57:273,-0.3592,1.197,8.4488,15.2374,0.0837,0.0849,0.1576,209
18:42:57:290,-0.6894,1.2138,7.8191,15.6732,0.1429,0.1026,0.0501,208.9531
18:42:57:309,-1.0008,1.2162,7.4815,15.8966,0.1539,0.1179,0.0147,208.7031
18:42:57:328,-1.2281,1.1922,7.2613,16.0836,0.1753,0.1032,0.0189,208.6875
18:42:57:392,-1.3884,1.2497,7.0244,16.0185,0.2016,0.0819,0.0574,208.5
18:42:57:392,-1.4127,1.3765,7.0196,16.0843,0.1839,0.0531,0.1142,208.4844
18:42:57:392,-1.5754,1.695,8.0513,16.3104,-0.0134,0.1216,0.1991,208.3594
18:42:57:408,-1.3789,1.8505,8.8558,16.2479,-0.1209,0.0904,0.2401,208.3594
18:42:57:429,-1.0941,2.1021,9.8518,16.3859,-0.1949,0.0452,0.2492,208.1094
18:42:57:447,-0.9434,2.3079,10.4121,16.1786,-0.1533,0.0134,0.2187,208.0938
18:42:57:469,-0.7253,2.4538,10.6035,16.5259,-0.0202,-0.066,0.168,207.4062
18:42:57:490,-0.6799,2.5161,10.3783,16.6109,0.1417,-0.2065,0.0971,206.2812
18:42:57:508,-0.6655,2.5594,10.1079,16.9499,0.2395,-0.3702,0.0208,206.2812
18:42:57:529,-0.5004,2.4634,10.4982,17.2189,0.215,-0.4227,-0.0354,205.6562
18:42:57:548,-0.2776,2.1667,11.281,17.309,0.1484,-0.3402,-0.0843,205.6562
18:42:57:573,-0.2536,1.8266,11.8603,17.7713,0.1142,-0.2065,-0.1582,205.6719
18:42:57:588,-0.443,1.4773,11.5011,17.7472,0.1313,-0.0861,-0.2443,205.6719
18:42:57:608,-0.5746,1.3908,11.0536,17.973,0.0812,-0.044,-0.3054,205.6719
18:42:57:629,-0.7923,1.3095,11.2977,17.9291,-0.0886,-0.0757,-0.3317,205.6562
18:42:57:649,-0.7301,1.0989,11.8962,18.0001,-0.2627,-0.1075,-0.2651,205.6719
18:42:57:673,-0.1842,0.7301,12.7965,17.812,-0.3763,-0.0562,-0.1741,205.4219
18:42:57:692,0.2728,0.3401,13.2658,17.8196,-0.3299,0.0214,-0.1997,204.9375
18:42:57:708,0.0407,0.0646,12.4828,17.9345,-0.0996,0.0171,-0.3555,204.9375
18:42:57:729,-0.6583,0.0742,10.6537,17.9723,0.1637,-0.0782,-0.5101,204.3594
18:42:57:749,-1.2975,0.1962,9.1334,18.2686,0.2346,-0.1362,-0.5345,204.3594
18:42:57:775,-1.4509,0.3688,8.4823,18.594,0.1057,-0.0959,-0.4258,204.0625
18:42:57:789,-1.2592,0.4645,8.6761,18.7547,-0.1228,0.0764,-0.2645,204.0625
18:42:57:809,-0.9458,0.4956,9.4328,18.847,-0.3195,0.2804,-0.1295,204.1094
18:42:57:830,-0.5459,0.4717,9.9332,19.2619,-0.3671,0.3451,-0.0593,204.1094
18:42:57:849,-0.3162,0.5554,10.1151,19.4035,-0.2737,0.2297,-0.0593,204.3594
18:42:57:871,-0.996,1.0247,8.6617,19.6099,0.0574,-0.0971,-0.1973,204.375
18:42:57:892,-1.2066,1.2066,8.2071,19.739,0.1118,-0.1417,-0.1735,204.9531
18:42:57:907,-0.9745,1.2162,8.1473,19.7502,0.1216,-0.0812,-0.0959,205
18:42:57:930,-0.62,1.1515,8.3626,19.843,0.1246,0.0165,-0.0483,205.5469
18:42:57:949,-0.4669,1.1468,8.7553,19.903,0.1399,0.1008,-0.069,205.5938
18:42:57:972,-0.7086,1.2281,8.9683,20.2815,0.1735,0.1607,-0.1118,205.8594
18:42:57:989,-0.6344,1.2377,9.253,20.0939,0.19,0.1759,-0.0947,206.75
18:42:58:008,-0.2874,1.1946,9.7415,20.2348,0.1979,0.1558,-0.069,206.75
18:42:58:030,-0.1842,1.1779,9.7941,20.1349,0.2566,0.146,-0.1051,207.8281
18:42:58:048,-0.2465,1.3214,9.4783,20.1051,0.3396,0.11,-0.1692,207.8281
18:42:58:069,-0.4238,1.5179,8.8582,20.4843,0.405,0.0049,-0.2126,208.2969
18:42:58:092,-0.7062,1.774,8.3004,20.5008,0.4032,-0.1607,-0.2114,208.3281
18:42:58:108,-0.8716,2.0447,8.1999,20.8015,0.3134,-0.3201,-0.1533,208.3281
18:42:58:129,-0.8501,2.2983,8.7099,20.8323,0.1521,-0.2908,-0.0568,208.4062
18:42:58:149,-0.6535,2.2098,9.7271,21.0716,-0.0336,-0.0006,0.0525,208.4062
18:42:58:173,-0.2249,1.9391,10.4623,21.2353,-0.1478,0.3292,0.1277,208.7656
18:42:58:189,-0.1268,1.5491,11.0489,21.524,-0.1942,0.4416,0.1277,209.0781
18:42:58:209,-0.3233,1.1611,11.3336,21.5965,-0.1851,0.2627,0.0861,209.0781
18:42:58:229,-0.5602,1.1539,11.2283,21.5021,-0.1814,-0.0116,0.022,209.2656
18:42:58:250,-0.9984,1.2473,11.4413,21.6917,-0.248,-0.1429,-0.0318,209.2656
18:42:58:274,-1.5491,1.0367,11.9058,21.5567,-0.3274,-0.099,-0.025,209.5781
18:42:58:289,-1.7883,0.8453,12.0302,21.8916,-0.3329,0.0318,0.033,209.5781
18:42:58:308,-1.8553,0.9434,12.0975,21.9652,-0.3066,0.1942,0.0947,209.8438
18:42:58:329,-2.0973,0.996,12.265,21.7968,-0.2584,0.2718,0.1533,209.875
18:42:58:349,-2.2098,0.8955,11.6258,22.0774,-0.0947,0.1191,0.2401,210.375
18:42:58:375,-1.9295,0.376,9.361,22.2713,0.2266,-0.3372,0.4893,210.4219
18:42:58:388,-1.5586,0.1962,8.4416,22.3418,0.2004,-0.2187,0.6145,210.875
18:42:58:410,-1.063,0.2034,8.4105,22.3624,-0.0061,0.058,0.7086,210.9219
18:42:58:429,-0.6703,0.268,9.1238,22.4413,-0.2688,0.2737,0.7434,210.9219
18:42:58:450,-0.4406,0.3712,9.7152,22.4299,-0.4044,0.3341,0.7397,210.9219
18:42:58:474,-0.3736,0.5291,9.5955,22.5868,-0.3714,0.2572,0.6896,210.6719
18:42:58:488,-0.4765,0.7875,9.0329,22.9616,-0.2633,0.1008,0.5809,210.5
18:42:58:508,-0.5363,1.142,8.6354,22.8981,-0.182,-0.0202,0.4881,210.5
18:42:58:529,-0.3305,1.3717,8.7362,22.9836,-0.1484,-0.0055,0.452,210.4219
18:42:58:548,-0.2273,1.4462,8.8439,23.1275,-0.0825,0.0446,0.4111,210.4219
18:42:58:573,-0.2776,1.4988,8.5995,23.288,0.0293,0.0293,0.3555,210.4219
18:42:58:588,-0.4406,1.6041,8.3124,23.5141,0.1038,-0.0177,0.3005,210.1875
18:42:58:608,-0.7134,1.7429,8.3315,23.5753,0.1014,-0.0421,0.2614,210.1875
18:42:58:628,-0.8716,1.8769,8.3794,23.6031,0.0702,-0.0153,0.2724,209.7344
18:42:58:647,-0.941,1.9391,8.5899,23.8092,0.0312,0.0043,0.3109,209.7344
18:42:58:669,-0.8282,2.0207,8.8606,23.8141,0.0116,-0.0367,0.3506,208.8281
18:42:58:692,-0.5435,2.1595,9.2148,23.9717,0.0244,-0.0922,0.3647,207.3906
18:42:58:707,-0.2728,2.3007,9.3419,24.0935,0.0776,-0.1032,0.3311,207.3906
18:42:58:729,-0.2345,2.4371,9.2605,24.2137,0.1497,-0.1374,0.2443,205.6875
18:42:58:749,-0.3688,2.624,9.4161,24.2363,0.2059,-0.1888,0.1466,205.6875
18:42:58:772,-0.4956,2.6575,9.6625,24.3192,0.2376,-0.1484,0.0825,204.1875
18:42:58:790,-0.6296,2.5065,10.1246,24.5192,0.226,-0.0312,0.0403,204.1875
18:42:58:808,-0.8716,2.1404,10.759,24.4787,0.1631,0.0953,0.0195,203.1875
18:42:58:828,-0.6296,1.9032,11.9106,24.7859,0.0825,0.1564,0.0116,203.0938
18:42:58:849,-0.4789,1.4629,12.1454,24.9273,0.1222,0.1289,-0.0593,202.3125
18:42:58:874,-1.0869,1.427,11.7191,24.935,0.1045,-0.3402,-0.306,202.2344
18:42:58:889,-1.3789,1.4198,12.3727,25.0284,-0.0617,-0.3457,-0.2993,201.7031
18:42:58:909,-0.9362,1.2592,12.7654,25.3596,-0.1344,-0.1454,-0.1851,201.6562
18:42:58:929,-0.189,0.9553,12.3583,25.5122,-0.0641,0.0189,-0.1118,201.0781
18:42:58:947,0.1675,0.7325,11.3432,25.6163,0.1173,-0.0574,-0.1668,201.0312
18:42:58:968,-0.0024,0.6966,10.1438,25.8443,0.2895,-0.2089,-0.2718,200.3125
18:42:58:989,-0.4501,0.8163,9.2124,25.808,0.3201,-0.1949,-0.3146,199.6875
18:42:59:009,-0.486,1.0463,8.9133,25.8469,0.1387,0.0092,-0.2382,199.6875
18:42:59:029,-0.1699,1.1348,9.8157,26.0358,-0.1747,0.292,-0.0916,199.625
18:42:59:047,0.4095,1.0654,10.9651,26.1904,-0.3971,0.5015,0.025,199.4531
18:42:59:069,0.6751,1.0056,11.7742,26.0763,-0.4038,0.5259,0.0226,199.4375
18:42:59:090,0.3592,1.1228,11.4245,26.0907,-0.1936,0.3989,-0.0849,199.4531
18:42:59:109,-0.3616,1.3525,9.8662,26.1035,0.088,0.2028,-0.1888,199.4531
18:42:59:128,-1.1133,1.5203,8.2454,25.9749,0.237,0.0318,-0.1881,199.5469
18:42:59:149,-1.4438,1.6448,7.2326,26.001,0.2254,-0.0617,-0.0672,199.5469
18:42:59:170,-1.331,1.64,7.046,25.9883,0.1338,-0.0232,0.1124,200.1406
18:42:59:192,-0.7469,1.4725,7.4647,26.1916,0.0513,0.1332,0.2688,200.6094
18:42:59:208,-0.1914,1.2497,7.867,26.0732,0.0489,0.2785,0.3048,200.6094
18:42:59:229,-0.3449,1.2329,8.0297,26.1214,0.0953,0.2963,0.2004,200.9219
18:42:59:249,-0.8163,1.3836,8.0034,26.154,0.1338,0.1936,0.1136,200.9219
18:42:59:272,-1.075,1.5443,7.9651,26.1041,0.1057,0.0727,0.168,201.6562
18:42:59:289,-0.778,1.5897,8.2478,26.3395,0.0098,-0.0403,0.3134,201.6562
18:42:59:309,-0.201,1.6304,8.6713,26.3792,-0.0702,-0.1203,0.4209,202.0312
18:42:59:328,0.0909,1.7213,8.918,26.528,-0.0678,-0.1374,0.4038,202.0312
18:42:59:349,0.0526,1.9271,8.9755,26.4524,-0.0031,-0.08,0.3085,201.9062
18:42:59:375,-0.3233,2.126,8.9515,26.561,0.0611,0.0348,0.212,201.8906
18:42:59:389,-0.8354,2.1691,8.8463,26.7466,0.0635,0.1545,0.1869,202.1875
18:42:59:472,-1.0487,1.8386,9.3586,26.7204,-0.0476,0.1686,0.2798,202.2031
18:42:59:472,-0.6799,1.3525,10.9217,26.9086,-0.2126,0.1301,0.4129,202.5469
18:42:59:473,-0.2922,0.8258,12.186,26.9319,-0.1509,-0.1167,0.3445,202.5781
18:42:59:473,-0.486,0.2106,12.3559,26.9444,-0.0043,-0.4184,0.2028,202.2344
18:42:59:493,-0.9147,-0.0526,11.8531,27.1697,0.0733,-0.5559,0.0983,202.2031
18:42:59:509,-1.9128,0.3664,10.2491,27.4523,0.0837,-0.4025,0.1552,201.7656
18:42:59:528,-1.7572,0.7516,9.574,27.5902,-0.1075,-0.1191,0.3457,201.7188
18:42:59:547,-1.0845,1.1372,10.5963,27.7786,-0.5156,0.088,0.5919,201.4844
18:42:59:568,0.0814,1.0702,12.9305,28.067,-0.8161,0.1374,0.7831,201.4688
18:42:59:589,0.984,0.8453,13.8117,28.2917,-0.6322,0.0226,0.7672,200.7188
18:42:59:609,0.376,0.8019,12.3392,28.4003,-0.11,-0.11,0.5162,200.6406
18:42:59:629,-1.1228,0.8883,10.2036,28.6585,0.2969,-0.1191,0.306,199.8281
18:42:59:649,-1.9681,0.9553,8.5301,28.667,0.3189,0.0666,0.3897,199.8281
18:42:59:674,-1.5179,0.8859,8.5086,28.6075,0,0.215,0.7,199.4219
18:42:59:688,-0.1795,0.8043,9.871,28.7265,-0.3787,0.2138,0.9987,198.625
18:42:59:708,1.0606,0.7851,10.8715,28.7002,-0.5119,0.1087,1.0916,198.625
18:42:59:729,1.6065,0.9458,10.6609,28.6709,-0.3751,-0.0299,0.9633,197.6719
18:42:59:748,1.3908,1.1755,9.6673,28.681,-0.1313,-0.1729,0.6799,197.6719
18:42:59:772,0.6009,1.5347,8.511,28.6796,0.0519,-0.2211,0.3757,197.2969
18:42:59:789,-0.1699,1.7955,7.6205,28.5521,0.1167,-0.1203,0.2132,197.2969
18:42:59:808,-0.6703,1.8601,7.1082,28.3695,0.0983,0.0018,0.19,196.7188
18:42:59:828,-0.7493,1.8218,7.034,28.307,0.0409,0.0727,0.2425,196.7188
18:42:59:849,-0.6248,1.7094,7.2422,28.2033,-0.0165,0.1142,0.3048,195.125
18:42:59:871,-0.443,1.5993,7.5389,28.052,-0.0617,0.1161,0.3231,194.9688
18:42:59:889,-0.3138,1.6424,8.0273,27.941,-0.1014,0.0715,0.3018,193.5312
18:42:59:908,-0.3377,1.6974,8.3818,27.792,-0.1307,0.0953,0.2871,193.3906
18:42:59:929,-0.0957,1.9439,8.7147,27.7616,-0.1796,0.1161,0.2981,192.7969
18:42:59:949,0.067,2.0112,9.052,28.1586,-0.2004,0.1081,0.2963,191
18:42:59:974,0.1125,2.0758,9.119,28.4391,-0.1509,0.055,0.2584,191
18:42:59:990,-0.2249,2.1763,9.0832,28.4087,-0.0562,-0.0605,0.1698,190.8281
18:43:00:008,-0.6368,2.2265,9.1549,28.7814,-0.0159,-0.1246,0.1319,188.5938
18:43:00:028,-0.6703,2.1165,9.7893,29.1388,-0.0935,-0.0238,0.2016,188.3906
18:43:00:047,-0.2752,1.8649,11.2283,29.5154,-0.2315,0.1185,0.303,187.2812
18:43:00:069,0.1699,1.5897,12.5043,29.9278,-0.3109,0.1741,0.3653,187.1719
18:43:00:090,0.5315,1.5156,13.2227,30.1176,-0.2737,-0.0031,0.3396,186.7969
18:43:00:107,0.3736,1.4557,12.6506,30.1706,-0.0904,-0.4325,0.2291,186.7656
18:43:00:128,0.1436,1.6878,11.7694,30.0892,0.0495,-0.7055,0.1344,186.1719
18:43:00:148,-0.0694,1.7237,11.4389,30.4037,-0.0446,-0.5125,0.1234,186.1719
18:43:00:172,0.4047,1.5132,12.3942,30.4553,-0.2688,-0.1576,0.1796,185.4531
18:43:00:188,1.0774,1.0415,13.5912,30.5748,-0.372,0.1478,0.2052,184.7656
18:43:00:208,1.4222,0.6727,13.7686,30.5776,-0.2266,0.3134,0.1161,184.7656
18:43:00:229,0.8524,0.4119,12.763,30.5207,0.0635,0.3189,-0.1136,184.0469
18:43:00:248,-0.2584,0.2752,11.1111,30.8098,0.3567,0.2101,-0.3757,184.0469
18:43:00:273,-1.3262,0.1819,9.7128,30.79,0.4856,0.1704,-0.4697,183.5312
18:43:00:289,-1.762,0.2656,9.143,31.0428,0.3873,0.2999,-0.3341,183.5312
18:43:00:308,-1.5945,0.4358,9.2845,31.0649,0.1466,0.5522,-0.0788,183.125
18:43:00:328,-1.1994,0.5124,9.8471,31.0807,-0.0953,0.7984,0.1839,183.125
18:43:00:348,-1.0128,0.5004,9.9882,30.8969,-0.2059,0.9737,0.3696,182.375
18:43:00:374,-0.5937,0.4214,9.7869,30.938,-0.19,0.8216,0.507,182.2969
18:43:00:388,-0.0335,0.5411,9.1454,30.8385,-0.088,0.5082,0.4844,181.6406
18:43:00:408,0.0072,0.6703,8.4823,30.7592,0.0177,0.234,0.2993,181.5625
18:43:00:430,-0.5052,0.996,8.2837,30.6742,0.1155,0.113,0.0666,181.2656
18:43:00:449,-1.0223,0.833,8.5014,30.6214,0.168,0.2822,0.11,181.2344
18:43:00:473,-1.1228,1.1204,9.373,30.8717,0.3121,0.4282,0.2902,180.7344
18:43:00:488,-0.8306,1.4988,8.6617,30.7809,0.5241,0.6744,0.4691,180.6875
18:43:00:508,-1.0343,1.1946,7.9029,31.0421,0.6035,0.8033,0.5058,180.6719
18:43:00:529,-1.0032,1.2233,7.2063,31.1144,0.5046,0.7434,0.532,180.6719
18:43:00:548,-0.8139,1.3813,7.491,31.48,0.179,0.5052,0.5626,181.6875
18:43:00:574,-0.5339,1.5873,7.8191,31.5942,-0.1509,0.212,0.5046,181.7812
18:43:00:589,-0.5124,1.4653,8.8176,31.9067,-0.4459,-0.0782,0.4093,182.3438
18:43:00:608,-0.3114,1.5132,9.5955,32.0786,-0.5889,-0.2645,0.3445,182.3906
18:43:00:629,-0.4693,1.4725,10.218,32.158,-0.5266,-0.4148,0.2364,181.7812
18:43:00:647,-1.2018,1.2401,11.5421,32.4783,-0.2504,-0.5314,0.1515,181.7812
18:43:00:671,-1.3908,1.1803,11.511,32.6014,0.1582,-0.292,0.2254,180.6719
18:43:00:690,-1.6376,0.7899,11.1278,33.049,0.4087,0.1778,0.3494,180.2344
18:43:00:709,-2.0183,0.3712,10.7136,33.1343,0.4502,0.4526,0.441,180.2344
18:43:00:728,-1.8482,0.3425,10.4671,33.5117,0.328,0.3231,0.5033,180.1094
18:43:00:748,-1.5227,0.4167,10.9771,33.6454,0.08,-0.1032,0.4954,180.1094
18:43:00:774,-1.1611,0.4406,11.8005,33.8477,-0.1839,-0.5137,0.4594,179.5312
18:43:00:787,-0.862,1.0558,12.6168,33.9212,-0.3409,-0.7,0.4099,179.5312
18:43:00:808,-0.4382,1.3262,12.9066,34.1394,-0.3329,-0.5748,0.3329,178.7188
18:43:00:828,-0.2752,1.5371,12.8061,34.2806,-0.2804,-0.2315,0.3073,178.7188
18:43:00:849,-0.6631,1.209,12.1717,34.2122,-0.0928,-0.1002,0.2572,177.6562
18:43:00:872,-1.1731,1.0487,11.0919,34.5665,0.2236,-0.2657,0.1668,177.5625
18:43:00:891,-1.8242,0.8282,9.5812,34.4995,0.5107,-0.4502,0.0806,176.5156
18:43:00:909,-1.9534,0.9912,8.3267,34.4996,0.5779,-0.4349,0.1026,176.4219
18:43:00:930,-1.2042,1.4103,8.1182,34.6055,0.0849,-0.0177,0.4282,175.8125
18:43:00:949,-0.6153,1.439,8.42,34.7671,-0.1423,0.0721,0.5925,175.75
18:43:00:973,-0.0096,1.5443,8.4392,34.543,-0.2278,0.069,0.6365,175.3125
18:43:00:989,0.3066,1.6998,8.3339,34.4909,-0.2236,0.102,0.5595,175.2812
18:43:01:007,0.4214,1.8218,8.2262,34.4345,-0.1857,0.2535,0.43,174.5312
18:43:01:027,0.285,1.9944,8.2908,34.368,-0.1387,0.452,0.3036,174.4688
18:43:01:048,-0.1579,2.0112,8.4129,34.3433,-0.069,0.5504,0.2278,173.4844
18:43:01:072,-0.5363,1.884,7.9819,34.5126,0.0061,0.4386,0.2462,173.3906
18:43:01:091,-0.498,1.9152,7.6516,34.7465,0.0153,0.0886,0.2999,172.5
18:43:01:108,-0.3449,2.0853,7.9149,34.6789,-0.0525,-0.234,0.3244,172.4062
18:43:01:129,-0.285,2.2409,8.2382,34.9158,-0.1069,-0.3109,0.306,171.7031
18:43:01:148,-0.3616,2.2672,8.4823,35.1875,-0.1191,-0.1949,0.2498,171.6875
18:43:01:172,-0.3903,2.3892,8.5732,35.649,-0.11,-0.0544,0.1918,171.625
18:43:01:190,-0.3353,2.5929,8.7123,35.8269,-0.1179,-0.0116,0.1442,171.5312
18:43:01:209,-0.3281,2.7772,9.1286,36.2628,-0.1338,-0.091,0.0867,171.5312
18:43:01:229,-0.5315,2.9471,9.5548,36.599,-0.1002,-0.1674,0.0086,170.4062
18:43:01:249,-0.8186,2.9925,9.8782,36.8502,-0.0385,-0.1417,-0.0647,170.4062
18:43:01:271,-1.0606,2.8155,10.3113,37.2713,-0.014,-0.014,-0.1014,168.9531
18:43:01:289,-0.996,2.6121,10.85,37.8313,-0.033,0.113,-0.08,168.9531
18:43:01:309,-0.8402,2.3653,11.6665,38.3664,-0.0666,0.168,-0.0629,168.0312
18:43:01:331,-0.8091,2.0518,12.1382,38.6929,-0.0446,0.1619,-0.0825,168.0312
18:43:01:349,-0.9386,1.8529,11.9082,38.8689,0.0611,0.014,-0.146,167.4375
18:43:01:370,-1.197,1.6591,11.1972,39.2332,0.1857,-0.2871,-0.223,167.4375
18:43:01:390,-1.197,1.6831,10.4958,39.5632,0.2395,-0.5718,-0.2474,166.8125
18:43:01:408,-0.7828,1.7907,10.1294,39.7421,0.1503,-0.62,-0.1759,166.75
18:43:01:428,-0.1819,1.8912,10.5413,40.1143,-0.0928,-0.4655,-0.0336,166.1719
18:43:01:451,1.6878,1.1779,13.0286,40.293,-0.5076,0.033,0.1545,166.1094
18:43:01:474,1.3884,0.6153,13.1483,40.51,-0.3311,0.11,-0.0458,165.7188
18:43:01:536,0.2922,0.5004,11.9465,40.6456,0.0464,-0.0531,-0.3409,165.6875
18:43:01:536,-0.4932,0.8596,9.9021,40.9855,0.3207,-0.1319,-0.46,165.5312
18:43:01:537,-0.8668,1.0175,8.8152,41.1751,0.223,0.0049,-0.3476,165.5156
18:43:01:548,-0.4693,0.9266,9.2291,41.5344,-0.0996,0.1399,-0.1026,165.6719
18:43:01:568,-0.0167,0.7301,9.9428,41.9235,-0.3586,0.2193,0.077,165.7031
18:43:01:589,0.3664,0.7014,10.3376,42.144,-0.4099,0.1698,0.1148,165.8125
18:43:01:607,0.3592,0.7301,10.139,42.1699,-0.2822,0.0654,0.0513,165.8125
18:43:01:629,0.1029,0.8548,9.5429,42.1253,-0.0806,-0.0061,-0.0379,166.0469
18:43:01:647,-0.1603,1.0319,8.7864,42.2931,0.069,0.0263,-0.0757,166.0625
18:43:01:670,-0.3401,1.1157,8.1592,42.5638,0.1155,0.1155,-0.058,166.7188
18:43:01:688,-0.2994,1.1683,8.0321,42.658,0.099,0.1704,-0.0061,167.0156
18:43:01:708,-0.1101,1.1563,8.0225,42.6306,0.099,0.1973,0.0379,167.0156
18:43:01:728,0.0383,1.1396,8.0297,42.552,0.1118,0.1808,0.033,166.5156
18:43:01:748,0.0574,1.2616,8.2597,42.5493,0.102,0.1625,-0.0037,166.5156
18:43:01:774,-0.1149,1.3478,8.4703,42.6415,0.0782,0.2181,-0.0293,166.8594
18:43:01:789,-0.2034,1.3813,8.7434,42.9164,0.0476,0.2663,-0.0177,166.8594
18:43:01:808,-0.2154,1.3932,9.052,43.1228,0.0244,0.2535,0.0037,167.8906
18:43:01:829,-0.1388,1.5179,9.373,43.1863,0.0354,0.1637,0.011,167.8906
18:43:01:849,-0.0957,1.6998,9.4639,43.4883,0.0867,0.036,0.0006,167.7969
18:43:01:872,-0.1268,1.884,9.3921,43.6372,0.1582,-0.0831,-0.0055,167.7969
18:43:01:889,-0.0885,2.1093,9.1956,43.8116,0.2089,-0.1191,0.0214,167.4688
18:43:01:908,-0.0455,2.1547,9.253,44.1331,0.1881,-0.0629,0.0715,167.4375
18:43:01:928,0.134,2.0925,9.7965,44.424,0.1014,0.0886,0.1155,167.5469
18:43:01:952,0.0407,1.3525,10.9385,44.7074,-0.0336,0.4166,0.11,167.5625
18:43:01:972,-0.4525,1.0128,11.3288,44.9638,-0.0263,0.2889,0.0654,167.6719
18:43:01:989,-1.0367,0.7899,10.838,45.2881,0.0476,0.0342,0.0538,167.6875
18:43:02:009,-0.984,1.2114,10.2323,45.4805,0.0183,-0.1069,0.1179,167.6562
18:43:02:029,-1.1539,1.4916,10.7255,45.7157,-0.2181,0.0147,0.1814,167.6406
18:43:02:047,-1.6304,1.1827,11.5325,46.026,-0.452,0.3079,0.2584,167.7188
18:43:02:070,-1.427,1.0917,11.6976,46.0953,-0.5339,0.4746,0.419,167.7188
18:43:02:092,-0.6511,1.1037,12.1789,46.3907,-0.6163,0.471,0.5797,167.7344
18:43:02:108,0.0933,0.8548,12.9497,46.6001,-0.6475,0.3604,0.6359,167.7344
18:43:02:129,0.2058,0.4478,12.7654,46.7186,-0.3854,0.0446,0.54,167.75
18:43:02:147,-0.1149,0.1627,10.7734,46.7803,0.1069,-0.317,0.3512,167.75
18:43:02:173,-0.7277,0.3544,8.6641,47.0743,0.4087,-0.3433,0.1631,167.8438
18:43:02:188,-1.4797,0.6966,7.7163,47.2815,0.2987,0.0501,0.0867,167.7031
18:43:02:208,-1.6854,0.917,8.013,47.2813,-0.0599,0.4954,0.2034,167.7031
18:43:02:228,-1.2042,0.9864,8.7314,47.6194,-0.4007,0.678,0.4087,167.4062
18:43:02:248,-0.4143,0.9242,9.4017,47.7651,-0.5718,0.6041,0.5388,167.4062
18:43:02:273,0.256,1.0032,9.4926,47.8647,-0.5345,0.3873,0.4875,167.2812
18:43:02:290,0.4836,1.1731,9.3395,47.8881,-0.3726,0.1167,0.2645,167.2812
18:43:02:308,0.1507,1.4462,9.1837,47.9993,-0.1771,-0.0476,0.0092,166.8906
18:43:02:328,-0.443,1.6854,8.9061,47.8865,0.0049,0.0006,-0.1338,166.8906
18:43:02:348,-0.9984,1.6807,8.444,48.0521,0.1484,0.0849,-0.1509,165.8438
18:43:02:373,-1.0606,1.6615,7.946,48.3801,0.2272,0.0397,-0.0794,165.8438
18:43:02:388,-1.0223,1.6854,7.9292,48.349,0.2034,-0.036,0.0055,164.2812
18:43:02:408,-1.0175,1.6496,8.3124,48.7102,0.1319,-0.0458,0.0593,164.125
18:43:02:429,-1.008,1.6854,8.6689,48.7568,0.0898,-0.0128,0.0898,163.1719
18:43:02:449,-1.1013,1.7501,8.9228,49.1689,0.0831,0.0018,0.0959,163.0781
18:43:02:472,-0.754,2.0542,9.4376,49.2087,0.0812,-0.0874,0.1423,163
18:43:02:490,-0.3688,2.1763,9.7965,49.3892,0.1069,-0.1442,0.1374,163
18:43:02:508,-0.3209,2.2074,9.9595,49.5285,0.1863,-0.2162,0.0666,162.2344
18:43:02:528,-0.3879,2.2146,10.2491,49.3717,0.2682,-0.259,-0.022,162.1562
18:43:02:547,-0.6105,1.9606,10.6226,49.6032,0.2963,-0.1607,-0.091,160.7969
18:43:02:568,-0.62,1.6113,11.0321,49.4083,0.2645,-0.0318,-0.1081,160.6562
18:43:02:590,-0.5602,1.185,11.4413,49.7672,0.2071,-0.0825,-0.1307,160.2188
18:43:02:608,-0.3449,1.0008,11.7096,49.68,0.182,-0.3323,-0.1985,160.1719
18:43:02:630,-0.4956,0.9577,11.7263,49.7683,0.1662,-0.4997,-0.2902,160.5
18:43:02:647,-0.7445,1.0056,11.7694,49.9083,0.0678,-0.4154,-0.2993,160.5312
18:43:02:670,-0.7947,1.0295,12.4253,49.9274,-0.1448,-0.0831,-0.1949,160.7344
18:43:02:688,-0.4358,0.5722,13.165,50.1994,-0.3671,0.2914,-0.0525,160.6562
18:43:02:709,0.3305,0.122,13.5123,50.1091,-0.4032,0.336,0.0269,160.6562
18:43:02:729,0.7899,-0.1244,12.4995,50.1947,-0.1704,0.0483,-0.0464,160.4688
18:43:02:748,0.6775,0.1484,10.6083,50.0931,0.1423,-0.3421,-0.2431,160.4688
18:43:02:771,0.1962,0.6655,9.1741,49.8283,0.2724,-0.4545,-0.4209,160.2344
18:43:02:789,-0.3114,1.0128,8.554,49.9397,0.1796,-0.1662,-0.4881,160.2344
18:43:02:809,-0.4693,1.2209,8.9037,49.752,-0.0275,0.2749,-0.4618,160.3438
18:43:02:829,-0.6081,1.2951,9.5118,49.9515,-0.1839,0.6298,-0.3964,160.3438
18:43:02:848,-0.7684,1.2497,9.8566,49.9133,-0.2199,0.7501,-0.314,160.7344
18:43:02:873,-0.7445,1.197,10.0457,50.1676,-0.1515,0.6487,-0.2291,160.7344
18:43:02:890,-0.5818,1.185,9.9141,50.1821,-0.0018,0.4759,-0.1588,161.2344
18:43:02:908,-0.4071,1.1276,9.3993,50.1395,0.1625,0.3018,-0.1442,161.2344
18:43:02:928,-0.3832,1.0678,8.8223,50.2561,0.2785,0.1429,-0.1924,161.9375
18:43:02:948,-0.6224,1.0965,8.3411,50.0631,0.3537,0.0189,-0.2578,162
18:43:02:972,-0.9888,1.1611,8.0106,49.951,0.408,-0.0403,-0.281,162.1094
18:43:02:989,-1.331,1.0319,7.7378,49.6878,0.4288,0.0122,-0.2364,162.125
18:43:03:009,-1.1276,0.8596,8.1401,49.5182,0.3757,0.1332,-0.1484,161.9688
18:43:03:028,-0.8812,0.9434,8.5947,49.2506,0.1271,0.2541,-0.0086,161.9688
18:43:03:049,-0.9362,1.1204,8.93,49.2721,0.0367,0.1454,0.0012,162.75
18:43:03:070,-0.9697,1.4749,9.1406,49.1553,0.0483,-0.0446,0.0024,162.8281
18:43:03:091,-0.9242,1.8984,8.796,49.005,0.1552,-0.1765,0.0086,163.8125
18:43:03:107,-0.7086,2.1571,8.068,49.0813,0.2456,-0.1881,0.0318,163.9219
18:43:03:128,-0.498,2.2672,7.9699,49.1299,0.1814,-0.0886,0.0727,164.4844
18:43:03:147,-0.4765,2.2433,8.7888,48.9042,-0.0031,0.1002,0.0953,164.5469
18:43:03:174,-0.4071,2.2361,10.2634,48.877,-0.1906,0.3531,0.0874,164.8594
18:43:03:188,-0.6846,2.071,11.4126,48.9597,-0.2621,0.5675,0.0599,165.3906
18:43:03:209,-1.2185,1.7405,11.6474,48.746,-0.2034,0.5039,0.0409,165.3906
18:43:03:228,-1.4677,1.561,11.4772,48.7324,-0.102,0.1106,0.0586,166.2188
18:43:03:247,-1.1276,1.8194,11.1733,48.7448,-0.0672,-0.223,0.1258,166.2188
18:43:03:272,-1.2353,1.6687,11.3695,48.7349,-0.1582,-0.2889,0.1894,166.9062
18:43:03:288,-1.0415,1.4988,11.6689,48.6709,-0.2566,-0.2364,0.2853,166.9062
18:43:03:308,-0.984,1.2377,11.8149,48.5333,-0.2724,-0.1503,0.3219,167.0938
18:43:03:328,-1.1013,1.264,12.0326,48.5512,-0.2547,0.0495,0.2999,167.0938
18:43:03:349,-1.5562,1.0534,12.0063,48.441,-0.2156,0.2608,0.281,167.1094
18:43:03:371,-1.7931,0.6368,11.2068,48.2863,-0.0794,0.1399,0.3128,167.1094
18:43:03:389,-1.8434,0.2369,9.8255,48.1251,0.0855,-0.2236,0.3769,167.2188
18:43:03:409,-1.6663,0.1651,8.6856,48.2062,0.124,-0.4453,0.4368,167.2188
18:43:03:428,-1.209,0.4382,8.1135,48.1091,-0.0214,-0.3128,0.4649,167.0938
18:43:03:448,-0.7708,0.7493,8.554,47.8046,-0.3005,0.033,0.4594,167.0781
18:43:03:473,-0.4693,1.0391,9.4137,48.0016,-0.5052,0.2755,0.4105,166.7656
18:43:03:488,-0.3281,1.2449,9.5309,47.7875,-0.4954,0.3005,0.3262,166.7344
18:43:03:509,-0.2728,1.4222,8.942,47.6638,-0.3445,0.1429,0.2315,166.5156
18:43:03:530,-0.2922,1.6113,8.5062,47.5792,-0.1081,-0.0684,0.0825,166.5
18:43:03:591,-0.4334,1.817,8.0608,47.484,-0.0348,0.0214,0.0379,166.125
18:43:03:592,-0.6583,1.7907,8.0082,47.185,0.0275,0.0147,0.0098,166.0938
18:43:03:592,-0.9003,1.8577,7.9149,46.8826,0.0751,-0.0574,0.0171,165.3438
18:43:03:607,-1.1946,1.8793,8.0034,46.897,0.0617,-0.0586,0.0623,165.2656
18:43:03:630,-1.2497,1.8147,8.4727,46.6459,-0.0116,-0.0018,0.1454,164.5312
18:43:03:648,-1.0917,1.7405,8.942,46.5459,-0.0764,0.0208,0.2346,164.4531
18:43:03:673,-0.833,1.7022,9.1884,46.2944,-0.0971,-0.0623,0.2859,163.7812
18:43:03:690,-0.4286,1.8482,9.3419,46.2208,-0.0916,-0.201,0.2865,162.7812
18:43:03:708,-0.1627,2.0806,9.4926,46.0464,-0.0605,-0.2944,0.2162,162.7812
18:43:03:728,-0.2297,2.3103,9.5788,45.8967,0.0165,-0.3011,0.0941,161.5469
18:43:03:748,-0.553,2.4203,9.3754,46.052,0.1179,-0.2431,-0.0202,161.5469
18:43:03:772,-0.8163,2.394,9.2339,45.9464,0.1704,-0.1686,-0.0733,160.6406
18:43:03:789,-0.8043,2.1763,9.6529,45.6322,0.1277,-0.1277,-0.0819,160.6406
18:43:03:808,-0.5052,2.1021,10.8595,45.378,0.0379,-0.2437,-0.1014,160.2812
18:43:03:829,-0.1962,2.2648,11.9201,45.3558,0.0092,-0.3732,-0.1521,160.2812
18:43:03:849,-0.4023,2.3246,12.5163,45.0687,0.0666,-0.3097,-0.182,160.2188
18:43:03:872,-0.7014,2.0518,11.8388,44.8505,0.201,-0.1771,-0.1326,160.2188
18:43:03:888,-0.9864,1.5467,10.9337,44.4311,0.2449,-0.1692,-0.0922,160.1875
18:43:03:908,-0.7493,1.4581,10.8332,43.9577,0.0831,-0.1942,-0.0452,160.1875
18:43:03:928,-0.5363,1.4677,11.578,43.6923,-0.193,-0.1087,-0.0134,159.7812
18:43:03:948,-0.2034,1.2855,12.8827,43.7025,-0.4459,0.0855,0.0238,159.75
18:43:03:972,0.5889,0.7875,13.6319,43.5945,-0.496,0.1997,0.0397,159.125
18:43:03:989,1.1324,0.4693,13.5075,43.3909,-0.2993,0.1338,-0.1008,159.0625
18:43:04:010,-0.2536,0.5674,9.6745,43.3367,0.3311,-0.1234,-0.6243,158.7656
18:43:04:029,-0.5219,0.8859,8.487,43.1885,0.273,-0.0611,-0.6493,158.7344
18:43:04:048,-0.3855,1.0726,8.93,43.2783,-0.014,0.1704,-0.5608,158.9219
18:43:04:071,-0.0167,1.063,9.8061,43.0946,-0.2413,0.4325,-0.4795,158.9375
18:43:04:089,0.1053,0.9553,10.1725,43.026,-0.2718,0.5724,-0.4722,159.1875
18:43:04:107,0.1101,0.9218,10.0552,42.8827,-0.1521,0.4539,-0.5094,159.2188
18:43:04:127,-0.0574,1.0702,9.6386,42.7042,0.0367,0.204,-0.5559,159.5938
18:43:04:148,-0.3377,1.2592,8.808,42.5527,0.2162,0.0709,-0.5693,159.6406
18:43:04:169,-0.5818,1.3621,8.1951,42.479,0.2859,0.0874,-0.5266,160
18:43:04:187,-0.6775,1.3478,7.9244,42.4484,0.273,0.1552,-0.4337,160.0938
18:43:04:207,-0.6392,1.2903,7.879,42.5726,0.2352,0.2114,-0.3244,160.0938
18:43:04:228,-0.577,1.2568,8.1568,42.6826,0.1924,0.2352,-0.2315,159.7344
18:43:04:247,-0.5363,1.2185,8.5493,42.4436,0.1607,0.2443,-0.1613,159.7344
18:43:04:271,-0.6344,1.2162,8.8582,42.4211,0.1527,0.204,-0.1014,160.2031
18:43:04:288,-0.8282,1.2568,8.9515,42.6178,0.1753,0.0916,-0.0312,160.2031
18:43:04:307,-0.8524,1.3167,8.6833,42.6016,0.215,-0.0421,0.0586,161.7812
18:43:04:328,-0.8043,1.3908,8.3172,42.6149,0.2205,-0.1338,0.1405,161.7812
18:43:04:348,-0.8043,1.5084,8.1015,42.6843,0.179,-0.1741,0.1894,162.8438
18:43:04:369,-0.9458,1.6543,7.8838,42.4027,0.1087,-0.1631,0.2199,162.8438
18:43:04:387,-1.3621,1.7429,7.6277,42.4833,0,-0.1014,0.2663,163.7656
18:43:04:408,-1.561,1.7907,7.8933,42.7221,-0.1967,0.036,0.369,163.7656
18:43:04:427,-1.118,1.4557,9.4807,42.7002,-0.4691,0.3128,0.5058,164.9688
18:43:04:448,-0.8716,0.7588,11.147,42.4803,-0.6267,0.5675,0.5504,165.0781
18:43:04:470,-0.9505,0.0096,12.0326,42.4587,-0.5901,0.496,0.4868,166.2031
18:43:04:487,-0.9051,-0.0598,12.4134,42.4182,-0.4985,0.1387,0.3903,166.3125
18:43:04:508,-1.1898,0.0622,12.454,42.303,-0.4563,-0.1429,0.281,167
18:43:04:529,-1.3502,0.0646,12.5234,42.4957,-0.5198,-0.2309,0.2523,167.0625
18:43:04:548,-0.917,0.4478,12.8827,42.3158,-0.5412,0.025,0.2376,167.4219
18:43:04:571,-1.1683,0.5794,13.0262,42.2064,-0.46,0.3256,0.1295,167.4531
18:43:04:587,-1.8338,0.5243,12.1238,42.3208,-0.1771,0.2785,0.0385,167.5469
18:43:04:608,-2.4514,0.5411,10.4599,42.4214,0.157,-0.0232,0.055,167.5625
18:43:04:628,-2.4179,0.5722,8.7099,42.4389,0.3439,-0.2834,0.201,167.3594
18:43:04:647,-1.9247,0.5961,7.5317,42.4704,0.248,-0.2437,0.3946,167.3281
18:43:04:671,-1.2544,0.6224,7.8431,42.3844,-0.102,0.011,0.5577,166.8906
18:43:04:688,-0.6488,0.62,9.1071,42.6312,-0.4746,0.2828,0.6396,165.6562
18:43:04:707,-0.0909,0.5985,10.3256,42.8041,-0.6573,0.4447,0.6151,165.6562
18:43:04:728,0.1771,0.6392,10.8571,42.7578,-0.6005,0.4826,0.4795,164.0781
18:43:04:747,-0.0479,0.7947,10.5748,42.8045,-0.3573,0.3977,0.2669,164.0781
18:43:04:769,-0.6248,1.0582,9.6649,42.7367,-0.0507,0.1991,0.0806,163.0156
18:43:04:787,-1.2497,1.2353,8.5469,42.7871,0.1741,-0.0464,0.0128,163.0156
18:43:04:807,-1.4725,1.3693,7.8838,43.0176,0.2553,-0.2395,0.0574,162.1562
18:43:04:828,-1.4486,1.3741,7.4527,43.1989,0.2676,-0.3011,0.1405,162.1562
18:43:04:848,-1.2497,1.2927,7.2829,43.1488,0.2462,-0.2657,0.223,161.4688
18:43:04:870,-0.9601,1.2425,7.4839,42.9752,0.1839,-0.1851,0.2669,161.4062
18:43:04:887,-0.7875,1.1994,7.934,43.1505,0.1136,-0.0904,0.2584,161.2812
18:43:04:907,-0.7373,1.2305,8.4033,43.1507,0.066,-0.0556,0.2175,161.2812
18:43:04:928,-0.5722,1.3932,8.9324,43.4212,0.0086,-0.0464,0.1643,160.8438
18:43:04:948,-0.3497,1.6783,9.5548,43.5248,-0.0409,-0.0409,0.0971,160.8438
18:43:04:970,-0.3377,1.9606,10.2778,43.4825,0.0031,-0.099,0.0092,159.4688
18:43:04:987,-0.4645,2.0255,10.2012,43.5109,0.1936,-0.2376,-0.0745,159.3438
18:43:05:008,-0.5387,2.071,9.8109,43.4563,0.369,-0.3848,-0.1448,157.8281
18:43:05:030,-0.4597,2.1547,9.8949,43.6208,0.3903,-0.4032,-0.193,157.6875
18:43:05:049,-0.1866,1.5251,11.415,43.7714,0.1784,-0.157,-0.2572,157.1406
18:43:05:069,0.0215,1.1324,11.7766,43.6727,0.1362,-0.1374,-0.2743,157.1406
18:43:05:087,-0.0694,0.862,11.6139,43.7216,0.1234,-0.2639,-0.3537,157.2031
18:43:05:107,-0.1699,0.9218,11.6234,43.6352,0.0134,-0.3818,-0.4465,157.2031
18:43:05:127,-0.3329,0.8306,12.5091,43.7357,-0.1723,-0.35,-0.471,157.0156
18:43:05:147,0.3975,0.7301,13.0765,43.7757,-0.2572,-0.1222,-0.3445,157
18:43:05:171,0.8812,0.4214,12.9927,43.7831,-0.1991,0.0531,-0.3366,156.5781
18:43:05:187,0.5171,0.4047,12.3296,43.9282,0.0079,-0.0305,-0.4789,156.1719
18:43:05:208,-0.2898,0.5411,10.905,43.8248,0.248,-0.168,-0.5925,156.1719
18:43:05:228,-0.5387,0.7445,9.3849,44.0298,0.2957,-0.157,-0.5296,156.0156
18:43:05:247,-0.3927,0.7445,9.0664,43.8665,0.055,-0.0391,-0.3457,156.0156
18:43:05:270,0.297,0.6942,10.2012,44.0073,-0.2865,0.1045,-0.1619,156.4688
18:43:05:287,1.0367,0.5913,11.336,43.8777,-0.4239,0.2114,-0.1118,156.4688
18:43:05:307,1.0343,0.5148,11.3934,43.8064,-0.2639,0.1759,-0.2425,157.1719
18:43:05:328,0.5363,0.6511,10.2586,43.8942,0.0525,0.0318,-0.4306,157.1719
18:43:05:348,-0.1914,0.8429,8.6115,43.7325,0.2889,-0.0886,-0.5516,157.8125
18:43:05:370,-0.6846,1.0367,7.7976,43.5768,0.325,-0.1234,-0.5485,157.875
18:43:05:387,-0.7588,1.0798,7.5604,43.3403,0.2627,-0.0238,-0.4587,158.8125
18:43:05:408,-0.7421,1.0319,7.6636,43.1994,0.2089,0.1289,-0.372,158.8125
18:43:05:428,-0.7875,1.0152,7.8239,43.1399,0.204,0.2529,-0.3164,159.5938
18:43:05:448,-0.8812,1.0247,7.867,42.9039,0.2248,0.3201,-0.2688,159.5938
18:43:05:471,-0.9386,1.1228,8.0608,42.7285,0.2107,0.3256,-0.2083,160.3594
18:43:05:487,-0.8402,1.2018,8.2382,42.4629,0.1753,0.2926,-0.1148,160.4375
18:43:05:507,-0.5889,1.2832,8.4057,42.3766,0.1277,0.2474,-0.0159,161.7188
18:43:05:527,-0.2946,1.398,8.5899,42.3634,0.0825,0.1961,0.0483,161.8438
18:43:05:552,-0.1627,1.494,8.8702,42.304,0.0605,0.1576,0.0037,162.2969
18:43:05:570,-0.9003,2.0207,9.3778,42.2951,0.1326,0.1362,-0.055,162.3438
18:43:05:588,-1.2832,2.1835,9.0832,42.1114,0.2095,0.113,-0.0134,162.5
18:43:05:664,-1.2473,2.0925,8.9874,42.056,0.1826,0.0513,0.1246,162.5156
18:43:05:665,-0.6846,1.8505,9.6721,42.0505,0.0379,0.0318,0.2785,163.5781
18:43:05:665,0.0766,1.4773,10.8284,41.9271,-0.1081,0.1374,0.3409,163.6875
18:43:05:674,0.1244,0.8548,11.7096,41.8083,-0.1503,0.2608,0.2596,164.875
18:43:05:689,-0.644,0.2728,11.6976,41.5563,-0.0898,0.2602,0.1155,165.7969
18:43:05:708,-1.1611,0.2441,11.324,41.2826,-0.0568,0.1888,0.0409,165.7969
18:43:05:728,-1.4366,0.1172,10.8188,41.0445,-0.1393,0.19,0.0568,166.5469
18:43:05:747,-1.2592,0.1005,10.6537,40.8387,-0.3042,0.2071,0.135,166.5469
18:43:05:775,-0.7564,0.3999,11.1685,40.5081,-0.4813,0.2602,0.2114,166.7812
18:43:05:789,-0.3808,0.7181,11.8364,40.2137,-0.5711,0.3054,0.2114,166.7812
18:43:05:808,-0.3544,0.7828,12.0518,40.1212,-0.485,0.157,0.1497,166.7188
18:43:05:829,-0.6511,0.9147,11.4197,39.7465,-0.2211,-0.1356,0.0641,166.7188
18:43:05:847,-1.1204,0.996,10.2586,39.5032,0.0617,-0.328,0.0031,166.7188
18:43:05:872,-1.506,1.008,9.0664,39.3374,0.1533,-0.2107,0.0189,166.8281
18:43:05:889,-1.5921,1.0391,8.6833,39.2959,-0.0367,0.0861,0.1203,166.8438
18:43:05:908,-1.3262,1.0582,9.6123,38.8657,-0.4007,0.3451,0.259,166.8438
18:43:05:930,-0.9864,0.9147,10.8811,38.7461,-0.6457,0.4135,0.3537,166.1406
18:43:05:949,-0.8402,0.8859,11.2714,38.3694,-0.587,0.2358,0.3409,166.1406
18:43:05:971,-1.008,0.996,10.5006,37.9959,-0.3042,-0.0379,0.2553,165.6719
18:43:05:989,-1.2736,1.1755,9.2172,37.872,-0.0202,-0.2566,0.1814,165.6406
18:43:06:008,-1.2784,1.3813,8.3554,37.743,0.1264,-0.3231,0.1607,165.4688
18:43:06:029,-1.1874,1.3597,7.8503,37.3259,0.1619,-0.1961,0.1796,165.4531
18:43:06:049,-0.8859,1.1133,7.6421,36.796,0.1289,-0.0397,0.234,164.8438
18:43:06:071,-0.7038,1.1013,8.0991,36.4158,0.0886,-0.0782,0.2278,164.7812
18:43:06:092,-0.6464,1.0439,8.5804,36.1362,0.0666,-0.0586,0.2107,164.0781
18:43:06:107,-0.6607,1.0104,8.8822,36.0338,0.0776,-0.0208,0.1973,164
18:43:06:128,-0.6153,1.1013,9.0377,35.7648,0.088,-0.0367,0.1826,163.875
18:43:06:147,-0.4286,1.3214,9.2677,35.5174,0.0751,-0.1087,0.168,163.875
18:43:06:172,-0.2201,1.5562,9.5237,35.1037,0.0825,-0.1985,0.1258,163.7656
18:43:06:192,-0.1723,1.7859,9.4974,34.7043,0.1509,-0.2883,0.047,162.8125
18:43:06:208,-0.268,2.004,9.3443,34.4651,0.2303,-0.3793,-0.0421,162.8125
18:43:06:228,-0.3305,2.1835,9.4591,34.3471,0.2462,-0.3824,-0.1026,161.7344
18:43:06:248,-0.3473,2.2457,9.9476,34.0403,0.193,-0.2492,-0.1301,161.7344
18:43:06:273,-0.0933,2.217,10.9146,33.7641,0.1002,-0.0715,-0.1295,161.3906
18:43:06:289,0.1675,1.8673,11.8795,33.3596,0.0495,-0.0147,-0.1484,161.3906
18:43:06:309,0.2752,1.6543,12.5378,32.8089,0.0806,-0.1973,-0.2266,161.3906
18:43:06:328,-0.0957,1.4725,12.2076,32.4629,0.1924,-0.4624,-0.3354,161.0781
18:43:06:348,-0.3808,1.6519,11.482,32.432,0.2333,-0.5748,-0.4093,161.0625
18:43:06:372,-0.8548,1.817,11.1924,32.1327,0.1368,-0.4899,-0.4618,160.6406
18:43:06:388,-1.118,1.9606,11.0584,31.7618,-0.0079,-0.3201,-0.4135,160.25
18:43:06:408,-0.5124,2.0471,11.2762,31.5458,-0.171,-0.1344,-0.2169,160.25
18:43:06:428,0.4406,1.6472,11.5875,31.2205,-0.284,-0.0073,-0.0147,159.9219
18:43:06:448,1.0558,0.9434,11.7072,30.9795,-0.2523,-0.0067,0.0293,159.9219
18:43:06:473,1.1037,0.4382,11.08,30.9159,-0.0941,-0.0122,-0.0819,159.8125
18:43:06:492,0.9745,0.1531,10.0959,30.4053,0.0287,0.0446,-0.2297,159.8125
18:43:06:508,0.9625,0.1268,9.6984,30.0081,-0.0305,0.1716,-0.3231,160.125
18:43:06:528,0.7516,0.055,9.9691,29.8449,-0.1863,0.3054,-0.3848,160.1562
18:43:06:548,0.3449,0.1196,10.1103,29.6823,-0.2456,0.3091,-0.4484,160.5156
18:43:06:574,-0.6823,0.5889,9.1597,29.2583,-0.0263,0.1356,-0.5394,160.5469
18:43:06:590,-1.0343,0.7612,8.5181,29.0491,0.069,0.1484,-0.4954,160.9688
18:43:06:607,-1.0056,0.8644,8.353,28.8872,0.0788,0.273,-0.3787,161
18:43:06:628,-0.8835,0.8402,8.3842,28.4672,0.0611,0.4203,-0.2621,161.8906
18:43:06:647,-0.778,0.8931,8.5038,28.606,0.0727,0.4056,-0.1997,161.9844
18:43:06:672,-0.8306,0.9075,8.5469,28.6649,0.1179,0.2486,-0.171,162.9062
18:43:06:688,-0.6416,0.9817,8.4344,28.639,0.1655,0.1069,-0.0971,163.125
18:43:06:707,-0.4358,1.0032,8.2549,28.6743,0.168,0.0287,-0.0037,163.125
18:43:06:729,-0.1077,1.0319,8.2741,28.6369,0.1295,-0.0354,0.0757,163.0938
18:43:06:748,0.3353,1.0702,8.2621,28.4637,0.0892,-0.0324,0.1124,163.0938
18:43:06:774,0.5148,1.2066,8.3626,28.3226,0.0538,0.0024,0.0617,163.6875
18:43:06:790,0.2752,1.5203,8.633,28.4818,0.0214,0.0599,-0.0373,163.6875
18:43:06:807,-0.0718,1.8458,8.9276,28.4613,0.0128,0.149,-0.1026,163.6875
18:43:06:829,-0.3425,1.9896,9.2773,28.2957,0.0257,0.2236,-0.0965,164.4688
18:43:06:847,-0.5124,1.9271,9.4759,27.9168,0.0483,0.2217,-0.0373,164.4688
18:43:06:873,-0.687,1.7309,9.8471,27.5868,0.0312,0.1435,0.0452,165.5469
18:43:06:889,-0.6057,1.3406,10.5915,27.4625,-0.033,0.0867,0.1381,166.5781
18:43:06:909,-0.2441,0.8429,11.2762,27.4084,-0.0709,0.0556,0.193,166.5781
18:43:06:928,-0.134,0.5339,11.3815,27.5093,-0.0538,-0.0641,0.1619,167.1406
18:43:06:948,-0.0933,0.5219,11.0848,27.2436,-0.0568,-0.2639,0.0977,167.1406
18:43:06:972,-0.3401,0.4908,11.2786,27.0852,-0.1613,-0.4203,0.0745,167.5469
18:43:06:989,-0.3951,0.2728,11.7311,26.6789,-0.2963,-0.449,0.1619,167.5469
18:43:07:008,-0.0837,0.067,11.9632,26.7262,-0.3934,-0.2865,0.2566,167.5625
18:43:07:028,0.2874,0.0694,12.2554,26.7067,-0.4545,-0.0098,0.2407,167.5625
18:43:07:048,0.0502,0.2946,12.8444,26.7246,-0.4642,0.303,0.1271,167.4375
18:43:07:071,-0.754,0.2417,12.7941,26.6935,-0.3011,0.4038,-0.0061,167.4375
18:43:07:090,-2.1643,0.3473,9.7128,26.572,0.2963,-0.1002,-0.0031,167.5781
18:43:07:109,-2.016,0.4573,8.3148,26.6345,0.2987,-0.2657,0.1784,167.5938
18:43:07:128,-1.2999,0.6607,8.3124,26.7046,0.0214,-0.1381,0.3793,167.75
18:43:07:147,-0.7158,0.6727,9.3706,26.9233,-0.3299,0.1704,0.4923,167.7656
18:43:07:172,-0.055,0.687,10.4695,26.9842,-0.4991,0.3818,0.5039,167.5938
18:43:07:188,0.443,0.8139,10.6083,27.0159,-0.4264,0.4972,0.3995,167.1875
18:43:07:207,0.3185,0.9194,9.9643,26.9986,-0.2266,0.4813,0.1961,167.1875
18:43:07:228,-0.1292,1.1803,9.0688,27.0568,-0.0421,0.3091,0.0024,166.8906
18:43:07:248,-0.6966,1.3884,8.2932,27.0681,0.0495,0.099,-0.0867,166.8906
18:43:07:273,-0.874,1.5443,7.9819,27.2521,0.0483,-0.0525,-0.0391,166.2344
18:43:07:290,-0.7181,1.5251,8.3554,27.2344,0.0312,-0.0904,0.0507,166.1719
18:43:07:309,-0.5937,1.2784,8.3674,27.367,0.0996,-0.0281,0.0947,166.1562
18:43:07:328,-0.5315,1.1372,8.2047,27.4791,0.193,-0.0092,0.1002,165.4688
18:43:07:348,-0.5698,1.1348,8.013,27.5913,0.2242,-0.0367,0.0965,165.4531
18:43:07:373,-0.8402,1.1444,8.2525,27.7521,0.1778,-0.0953,0.0855,165.4531
18:43:07:390,-0.8501,1.1946,8.4751,27.8577,0.1258,-0.1319,0.124,165.4531
18:43:07:408,-0.6966,1.209,8.7841,27.8252,0.0855,-0.1332,0.1729,165.4531
18:43:07:429,-0.3473,1.3645,8.9252,28.0896,0.0733,-0.1509,0.1912,164.3906
18:43:07:448,-0.0144,1.5778,9.0185,28.0732,0.0782,-0.2144,0.1258,164.3906
18:43:07:471,-0.1412,1.9367,9.1502,28.1719,0.1136,-0.3225,-0.0244,163.0938
18:43:07:489,-0.5459,2.26,9.1238,28.2836,0.1802,-0.3549,-0.1637,163.0938
18:43:07:508,-0.8955,2.3773,9.2387,28.2252,0.193,-0.2449,-0.223,162.8125
18:43:07:529,-0.8668,2.3964,10.0337,28.434,0.1032,-0.0721,-0.1997,162.7812
18:43:07:548,-0.6631,2.2696,11.214,28.5606,-0.0208,0.0525,-0.1393,162.9375
18:43:07:573,-0.3473,1.9992,12.2794,28.6645,-0.088,0.0238,-0.1063,162.9531
18:43:07:590,-0.2465,1.7022,12.8037,28.5513,-0.0299,-0.1716,-0.1497,162.8594
18:43:07:610,-0.1723,1.5993,12.2602,28.6977,0.1209,-0.4209,-0.223,162.8438
18:43:07:628,-0.2536,1.5132,11.7359,28.7402,0.1234,-0.5626,-0.2498,162.7812
18:43:07:647,0.5961,1.008,12.3918,29.052,-0.2425,-0.2859,-0.0348,162.7656
18:43:07:674,1.1731,0.6799,12.9377,29.3091,-0.3213,0.014,-0.047,162.6562
18:43:07:738,1.1444,0.4932,12.9449,29.4408,-0.2199,0.2132,-0.2034,162.3438
18:43:07:738,0.2728,0.3544,11.9058,29.5742,0.0214,0.215,-0.3995,162.3438
18:43:07:738,-0.5698,0.4621,10.4408,29.8504,0.2126,0.0819,-0.482,162.2656
18:43:07:748,-0.8067,0.5602,9.5405,30.0528,0.1814,0.0324,-0.3971,162.2656
18:43:07:773,-0.4262,0.5674,9.5812,30.2673,0.0018,0.1381,-0.2346,162.2656
18:43:07:788,-0.0191,0.4932,9.8949,30.6678,-0.1307,0.3183,-0.1197,162.8125
18:43:07:808,0.1101,0.4023,9.9356,30.5753,-0.1393,0.4832,-0.0947,162.8125
18:43:07:828,0.2201,0.5219,9.6984,31.1087,-0.0556,0.532,-0.1264,163.2188
18:43:07:848,-0.1196,0.6272,9.3251,31.3818,0.0562,0.4386,-0.248,163.2188
18:43:07:872,-0.6727,0.7397,9.0209,31.7705,0.1668,0.2657,-0.3659,163.4531
18:43:07:888,-1.0175,0.9314,8.6976,32.1304,0.2517,0.1796,-0.3671,164.0469
18:43:07:908,-1.1898,0.9769,8.3076,32.5592,0.303,0.182,-0.2889,164.0469
18:43:07:930,-1.1731,0.9601,7.9484,32.8351,0.317,0.1674,-0.1894,164.1719
18:43:07:948,-0.9888,0.9649,7.7545,33.1296,0.2926,0.1338,-0.0886,164.1719
18:43:07:972,-0.9362,0.996,7.7928,33.5318,0.2407,0.1234,-0.0183,164.2812
18:43:07:988,-0.929,1.0917,7.8909,33.635,0.1851,0.1216,0.0446,164.2812
18:43:08:009,-0.7445,1.2281,8.0991,33.7607,0.1222,0.1301,0.1209,165.2188
18:43:08:028,-0.5387,1.3214,8.2597,33.9502,0.0709,0.1723,0.1851,165.3125
18:43:08:048,-0.2827,1.4581,8.3818,34.3003,0.0324,0.2126,0.2248,166.0156
18:43:08:073,-0.0455,1.6519,8.7027,34.4327,-0.0116,0.2358,0.2285,166.0781
18:43:08:087,-0.0502,1.8984,9.1358,34.8769,-0.025,0.2614,0.1814,166.2344
18:43:08:109,-0.62,2.1835,9.2387,35.0859,0.0134,0.2767,0.1209,166.25
18:43:08:129,-0.5889,1.9463,9.8925,35.3175,-0.0293,0.3054,0.1387,166.6406
18:43:08:148,-0.565,1.6184,11.0345,35.7151,-0.1142,0.3237,0.1161,166.6875
18:43:08:171,-0.6416,1.5251,11.9584,36.0134,-0.1222,0.3115,0.0415,167.5625
18:43:08:188,-0.7516,1.5754,11.7838,36.1716,-0.0312,0.2291,0.0012,168.3281
18:43:08:207,-1.0654,1.398,10.9026,36.201,0.0568,-0.1032,0.014,168.3281
18:43:08:229,-0.5985,1.5323,10.3711,36.6016,0.025,-0.4746,0.1301,168.6875
18:43:08:247,-0.201,1.427,10.5724,36.9161,-0.1619,-0.4484,0.2578,168.6875
18:43:08:274,-0.134,1.0128,11.3599,37.2928,-0.3964,-0.0782,0.2975,168.7188
18:43:08:290,-0.2177,0.7684,11.9178,37.5271,-0.5174,0.3103,0.2504,168.6562
18:43:08:308,-0.3592,0.6129,12.0589,37.7738,-0.5302,0.4612,0.1704,168.6562
18:43:08:328,-0.5626,0.62,12.2459,37.9462,-0.4875,0.3909,0.1069,168.25
18:43:08:348,-1.0343,0.5387,12.0808,38.4137,-0.3024,0.1142,0.0702,168.25
18:43:08:372,-1.5467,0.3544,10.9675,39.0356,0.0183,-0.2376,0.0574,167.7812
18:43:08:389,-1.963,0.4095,9.4687,39.1701,0.2462,-0.3567,0.0654,167.5625
18:43:08:408,-2.1906,0.4932,8.432,39.2689,0.1991,-0.1888,0.1332,167.5625
18:43:08:429,-1.8458,0.711,8.8223,39.5274,-0.0599,0.0299,0.2682,167.2188
18:43:08:448,-1.0726,0.8378,9.6529,39.8689,-0.2676,0.1338,0.3922,167.2188
18:43:08:472,-0.309,0.9745,10.0696,40.0829,-0.2572,0.0183,0.4129,167.125
18:43:08:489,0.0574,1.1204,9.5692,40.5954,-0.0641,-0.1912,0.3109,167.125
18:43:08:508,0.0287,1.3956,8.6617,40.625,0.1264,-0.2914,0.1564,166.9844
18:43:08:528,-0.2656,1.64,8.0058,40.472,0.1906,-0.2211,0.0415,166.9844
18:43:08:548,-0.4717,1.8099,7.7545,40.8515,0.1729,-0.1191,0.0031,166.25
18:43:08:571,-0.4836,1.8123,7.558,41.2097,0.1478,-0.0354,0.025,166.1719
18:43:08:590,-0.4358,1.7118,7.5652,41.5328,0.1075,-0.0122,0.066,165.3906
18:43:08:609,-0.3808,1.6591,8.013,41.8036,0.011,0.0153,0.0996,165.3125
18:43:08:629,-0.4071,1.5538,8.6545,42.055,0.0031,0.0519,0.0965,164.8594
18:43:08:648,-0.4549,1.6041,8.7338,42.2049,-0.0006,-0.0012,0.0886,164.8125
18:43:08:672,-0.3425,1.7668,8.7577,42.5187,-0.0037,-0.1264,0.0776,164.7656
18:43:08:691,-0.1196,2.0136,8.8319,42.8666,-0.011,-0.2217,0.0458,164.7656
18:43:08:708,-0.0335,2.3031,8.8702,43.2181,-0.0012,-0.2504,-0.0257,164.4219
18:43:08:727,-0.1747,2.5762,8.8702,43.4746,0.0244,-0.2682,-0.1155,164.375
18:43:08:747,-0.3544,2.7461,9.2124,43.4171,0.0244,-0.2822,-0.1662,163.3906
18:43:08:773,-0.4167,2.5834,10.0337,43.5409,-0.0018,-0.2016,-0.1747,163.2969
18:43:08:789,-0.4358,2.0112,10.9337,43.825,-0.0098,-0.0269,-0.1808,162.8438
18:43:08:808,-0.2898,1.4821,11.913,43.9777,-0.0153,0.0727,-0.2034,162.7969
18:43:08:829,-0.3808,1.1755,12.6215,44.208,0.0073,0.0623,-0.2676,162.875
18:43:08:848,-0.8835,0.9697,12.2722,44.2359,0.1038,-0.1374,-0.3335,162.875
18:43:08:871,-1.1204,0.917,11.3264,44.3737,0.1607,-0.4991,-0.3109,162.875
18:43:08:888,-1.0223,0.8524,10.8715,44.7737,0.025,-0.6915,-0.1869,162.6875
18:43:08:909,-0.0742,0.9027,11.214,45.2683,-0.248,-0.573,0.0458,162.6875
18:43:08:929,0.833,0.7875,12.641,45.5996,-0.5192,-0.1973,0.1759,162.4844
18:43:08:949,0.4262,0.4167,13.7782,45.7575,-0.5198,0.171,0.0232,162.4844
18:43:08:972,-0.5291,0.2728,12.9975,45.9461,-0.1814,0.3011,-0.1894,162.3438
18:43:08:991,-1.3741,0.2321,10.8021,46.2588,0.1985,0.157,-0.2737,162.3438
18:43:09:009,-1.1468,0.2465,8.8199,46.7188,0.2651,-0.0495,-0.146,162.5
18:43:09:028,-0.3018,0.3018,8.8463,46.8849,-0.0128,-0.0855,0.0373,162.5
18:43:09:049,0.7014,0.2154,10.0816,47.0043,-0.3305,0.1381,0.1246,162.8438
18:43:09:072,1.3119,0.122,11.2546,47.1141,-0.4563,0.4612,0.0525,162.8906
18:43:09:090,1.1922,0.1747,11.7598,47.3826,-0.3732,0.6835,-0.1588,163.2656
18:43:09:107,0.5746,0.3975,11.4102,47.5904,-0.1344,0.6273,-0.4245,163.2969
18:43:09:129,-0.2489,0.687,10.3663,48.0941,0.3543,0.1038,-0.6609,163.9375
18:43:09:148,-1.2855,1.185,8.1951,48.4556,0.449,-0.0147,-0.584,164
18:43:09:173,-1.3789,1.3382,7.5823,48.4797,0.4441,0.0275,-0.4435,164.5469
18:43:09:191,-1.2305,1.2999,7.3546,48.4918,0.369,0.1558,-0.2633,164.6094
18:43:09:207,-0.917,1.1348,7.587,48.3192,0.2651,0.2437,-0.0996,164.1562
18:43:09:228,-0.632,1.051,8.0178,48.3884,0.168,0.2614,0.0061,164.1094
18:43:09:247,-0.431,1.008,8.2597,48.4733,0.0721,0.2724,0.0825,164.0469
18:43:09:273,-0.1125,0.9649,8.4105,48.6517,-0.014,0.2101,0.149,164.0469
18:43:09:289,0.3305,1.0152,8.9252,48.4421,-0.0635,0.0715,0.1649,164.6094
18:43:09:309,0.4334,1.0941,9.306,48.5142,-0.0147,-0.0055,0.0971,164.6719
18:43:09:329,0.1388,1.3214,9.1693,48.8583,0.1087,-0.0305,-0.0134,164.375
18:43:09:347,-0.2608,1.6663,8.8439,49.1441,0.2107,-0.0776,-0.0922,164.375
18:43:09:370,-0.5913,2.0231,8.7218,49.4512,0.2248,-0.1081,-0.102,164.2344
18:43:09:387,-0.6679,2.2193,8.9372,49.753,0.1674,-0.0788,-0.0611,165.4062
18:43:09:408,-0.7062,2.2146,9.2052,50.0912,0.0886,-0.0037,-0.014,165.4062
18:43:09:428,-0.6966,2.1667,9.5955,49.996,0.0043,0.0495,0.0153,167.0781
18:43:09:448,-0.7756,1.9199,10.2873,50.2638,-0.0672,0.0519,0.0153,167.0781
18:43:09:472,-0.7493,1.64,10.8643,50.044,-0.0812,-0.0134,0.0049,168.1719
18:43:09:489,-0.5913,1.3167,10.8117,50.0691,-0.0208,-0.1277,-0.014,168.1719
18:43:09:508,-0.5124,1.1276,10.4384,49.9298,-0.0006,-0.1735,-0.0678,168.4688
18:43:09:528,-0.5052,1.1611,10.6753,50.1876,-0.1271,-0.0232,-0.0788,168.4688
18:43:09:548,-1.0343,0.7253,11.1517,50.1764,-0.3317,0.2944,-0.022,168.2656
18:43:09:572,-1.3956,0.3975,11.7838,49.9735,-0.4911,0.4942,0.0507,168.25
18:43:09:589,-1.3717,0.6057,12.4014,50.2695,-0.6145,0.7397,0.1002,167.9688
18:43:09:608,-1.5778,0.5387,12.9042,50.3169,-0.6756,0.912,0.1234,167.9375
18:43:09:630,-1.7022,0.419,12.8444,50.5764,-0.4905,0.5968,0.1594,168.1406
18:43:09:650,-1.8673,0.1316,11.3599,50.5892,0.3451,-0.4612,0.1246,168.1719
18:43:09:673,-2.0255,0.0766,9.2363,50.8235,0.35,-0.3317,0.1026,168.4531
18:43:09:689,-2.3653,0.3616,7.721,50.731,0.0226,0.0647,0.212,168.4844
18:43:09:707,-1.963,0.778,8.554,50.7543,-0.3671,0.3274,0.4197,168.5312
18:43:09:728,-1.2903,0.9003,9.5692,50.675,-0.5296,0.3128,0.5699,168.5312
18:43:09:793,-0.7947,1.0439,9.8734,50.5499,-0.4465,0.1503,0.5791,168.4531
18:43:09:793,-0.6416,1.209,9.7463,50.4962,-0.2627,-0.055,0.4532,168.4531
18:43:09:794,-0.778,1.386,9.4328,50.5993,-0.0983,-0.2321,0.3256,168.5156
18:43:09:808,-0.7062,1.5945,9.1693,50.7437,0.0043,-0.3195,0.2938,168.5156
18:43:09:828,-0.6416,1.5873,8.8271,50.5502,0.1032,-0.3335,0.2889,168.4688
18:43:09:847,-0.5219,1.5275,8.1975,50.3939,0.2211,-0.303,0.2914,168.4688
18:43:09:871,-0.4382,1.4294,7.6301,50.2578,0.2682,-0.2333,0.2957,167.9219
18:43:09:888,-0.4143,1.4103,7.6828,50.3419,0.2065,-0.149,0.2999,167.2031
18:43:09:908,-0.352,1.2951,8.2143,50.5099,0.1057,-0.0941,0.3176,167.2031
18:43:09:929,-0.2273,1.2832,8.7027,50.3756,0.0574,-0.1283,0.3292,166.9844
18:43:09:948,-0.2512,1.3669,8.8511,50.1954,0.08,-0.223,0.2957,166.9844
18:43:09:972,-0.2393,1.5802,8.7793,50.1727,0.1124,-0.2889,0.2517,166.7812
18:43:09:989,0.0814,1.7979,8.729,50.2996,0.1026,-0.292,0.2254,166.7812
18:43:10:007,0.4478,1.9463,8.8511,50.4198,0.069,-0.3011,0.1594,165.3594
18:43:10:028,0.6799,2.1236,9.3826,50.3941,0.0428,-0.3341,0.0348,165.3594
18:43:10:048,0.6727,2.1643,10.3017,50.3872,0.0281,-0.2914,-0.1161,163.9375
18:43:10:070,0.4741,2.0758,11.2714,50.0999,0.0458,-0.2291,-0.2553,163.9375
18:43:10:089,0.2369,1.8601,11.9704,50.2851,0.099,-0.1753,-0.3543,163.25
18:43:10:108,-0.1244,1.5873,11.9082,50.2222,0.1655,-0.1771,-0.4068,163.1875
18:43:10:129,-0.2704,1.4533,11.4413,49.9659,0.1753,-0.347,-0.4251,162.7031
18:43:10:151,-0.1938,1.5706,11.4532,50.0473,-0.1148,-0.463,-0.3433,162.6562
18:43:10:176,-0.0694,1.5179,11.645,49.7191,-0.3372,-0.2101,-0.2217,162.2344
18:43:10:188,1.252,0.9027,13.6463,49.7613,-0.5565,0.1826,-0.1228,162.1875
18:43:10:207,1.6184,0.2946,14.6925,49.7561,-0.5345,0.4581,-0.1906,161.5938
18:43:10:227,1.1157,-0.1842,13.8308,49.7362,-0.1545,0.4526,-0.4093,161.5312
18:43:10:247,0.3712,-0.122,11.0656,49.2176,0.3427,0.1209,-0.6267,161.0469
18:43:10:270,-0.1579,0.1795,8.6234,49.0245,0.5198,-0.2315,-0.7092,161
18:43:10:288,-0.2106,0.5459,7.9627,48.8744,0.2999,-0.2749,-0.6383,160.6719
18:43:10:308,-0.1699,0.7564,8.8511,48.5093,-0.011,-0.0086,-0.5363,160.6406
18:43:10:329,-0.3951,0.8067,9.4807,48.7693,-0.1301,0.416,-0.4716,160.75
18:43:10:348,-0.7205,0.8139,9.2411,48.6913,-0.0965,0.7367,-0.383,160.75
18:43:10:371,-0.8402,0.7588,8.688,48.3266,-0.0745,0.6994,-0.2523,161.4688
18:43:10:391,-0.5506,0.766,8.1927,48.0695,-0.1209,0.372,-0.1332,162.5156
18:43:10:408,-0.2058,0.8548,8.4105,48.2068,-0.2144,0.0226,-0.0782,162.5156
18:43:10:431,0.1723,0.9242,9.1214,47.9948,-0.2346,-0.0434,-0.0617,163.3125
18:43:10:448,0.2297,0.8596,9.5094,47.7681,-0.113,0.1771,-0.1148,163.3125
18:43:10:470,-0.1651,0.8019,9.3012,47.6552,0.1051,0.3836,-0.2456,163.3906
18:43:10:489,-0.7899,0.8907,8.6569,47.3958,0.2596,0.4459,-0.3164,163.3906
18:43:10:509,-1.0678,0.9362,8.4057,47.2728,0.2297,0.3506,-0.2468,163.8281
18:43:10:530,-0.8788,0.9697,8.8558,47.1067,0.1038,0.1423,-0.11,163.8281
18:43:10:549,-0.5028,1.0702,9.2219,47.0674,0.0507,-0.0421,-0.0079,165.5938
18:43:10:570,-0.3903,1.1755,9.0305,46.8214,0.0953,-0.1228,0.0195,165.5938
18:43:10:589,-0.4334,1.3047,8.6976,46.6849,0.1484,-0.1478,0.0171,166.8594
18:43:10:608,-0.3209,1.5491,8.6043,46.579,0.1576,-0.1264,0.0116,166.9844
18:43:10:632,-0.3162,1.6926,8.499,46.324,0.1619,-0.0764,-0.0116,167.8125
18:43:10:648,-0.3592,1.7907,8.2621,45.8545,0.1692,-0.0843,-0.0379,167.8906
18:43:10:672,-0.6942,1.8051,8.3698,45.5995,0.1246,-0.1057,-0.058,168.2656
18:43:10:690,-0.917,1.7883,8.8726,45.5661,0.0122,0.0043,0,168.2969
18:43:10:708,-0.6272,1.276,10.4432,45.2591,-0.2364,0.3946,0.2895,168.2969
18:43:10:727,-0.7851,0.6272,11.324,44.9659,-0.3317,0.449,0.336,168.2969
18:43:10:748,-0.6176,0.4908,12.143,44.6374,-0.4154,0.4239,0.3347,168.6719
18:43:10:771,-0.3497,0.6631,12.9497,44.3821,-0.5296,0.449,0.2859,168.7188
18:43:10:790,-0.8453,0.4884,13.5027,44.1475,-0.5327,0.3769,0.1527,169.5
18:43:10:808,-1.5873,0.256,12.5187,44.1884,-0.3183,0.1594,0.0611,169.5625
18:43:10:830,-2.0782,0.0694,11.0728,43.9668,-0.16,-0.0373,0.1136,169.75
18:43:10:847,-1.7453,0.0526,11.415,43.5509,-0.3366,0.0556,0.2969,169.7812
18:43:10:871,-0.5841,-0.1795,12.8779,43.427,-0.5656,0.2938,0.4716,169.8125
18:43:10:890,0.1412,-0.577,13.0525,43.3329,-0.3995,0.2608,0.4575,169.9375
18:43:10:908,-0.2512,-0.7134,11.3551,43.3032,0.0843,-0.1118,0.234,169.9375
18:43:10:929,-1.4366,-0.3544,9.2964,43.1659,0.4856,-0.5192,-0.0073,170.1406
18:43:10:947,-2.2935,0.1196,7.6181,43.1941,0.5559,-0.5571,-0.0177,170.1406
18:43:10:973,-2.0925,0.4382,7.0651,42.9157,0.2743,-0.3134,0.2077,169.9531
18:43:10:989,-1.0917,0.5004,8.0943,42.6444,-0.1478,-0.0556,0.4716,169.9531
18:43:11:010,-0.1149,0.5195,9.3969,42.5522,-0.3604,0.055,0.5815,169.0938
18:43:11:030,0.4238,0.6464,9.6147,42.6255,-0.2596,0.0336,0.5204,169.0938
18:43:11:048,0.6153,0.8668,9.1789,42.3285,-0.0568,-0.0544,0.3696,168.0781
18:43:11:070,0.4286,1.1587,8.808,42.1937,0.0684,-0.1448,0.1949,168.0781
18:43:11:091,0.0981,1.4174,8.5684,42.014,0.1258,-0.1863,0.0721,167.5625
18:43:11:110,-0.0359,1.5275,8.2573,41.8966,0.1637,-0.2034,0.025,167.5156
18:43:11:131,-0.134,1.5897,8.0225,41.745,0.1741,-0.2211,-0.0067,166.9062
18:43:11:149,-0.1627,1.7237,8.2525,41.7524,0.1478,-0.2181,-0.0348,166.8438
18:43:11:171,-0.3305,1.7955,8.5373,41.5106,0.1222,-0.1497,-0.0599,165.5781
18:43:11:189,-0.5985,1.7859,8.7888,41.3106,0.0922,-0.0623,-0.0635,165.4531
18:43:11:208,-0.7493,1.8769,9.1741,41.6359,0.0935,-0.102,-0.0452,165.3906
18:43:11:229,-0.6153,2.083,9.1932,41.4072,0.1087,-0.2004,-0.0556,165.4062
18:43:11:248,-0.6272,2.2935,9.2605,41.3629,0.1374,-0.3164,-0.1081,165.4844
18:43:11:272,-0.7038,2.5017,9.1502,41.3945,0.204,-0.3922,-0.1576,165.4844
18:43:11:288,-0.6966,2.5786,9.0138,41.5502,0.2645,-0.3946,-0.1851,164.25
18:43:11:307,-0.5698,2.4873,9.2988,41.4861,0.2346,-0.2908,-0.179,164.125
18:43:11:328,-0.5148,2.2481,10.4049,41.7022,0.1075,-0.1387,-0.1625,163.1094
18:43:11:347,-0.498,1.8027,11.7168,41.6279,-0.0018,0.0018,-0.1429,163.0156
18:43:11:371,-0.5171,1.5347,12.3679,41.3722,0.0049,0.0342,-0.1472,162.7812
18:43:11:389,-0.8258,1.4438,11.9273,41.5687,0.0935,-0.1148,-0.1771,162.875
18:43:11:409,-1.0032,1.5323,11.4102,41.5622,0.066,-0.2877,-0.1588,162.875
18:43:11:429,-1.2879,1.3023,11.6043,41.4476,-0.1203,-0.3421,-0.0672,163.0781
18:43:11:448,-0.498,1.008,12.2459,41.2694,-0.3555,-0.1545,0.1692,163.0781
18:43:11:472,0.821,0.4334,13.2347,41.1383,-0.5522,0.1808,0.3378,163.3125
18:43:11:489,1.841,-0.0933,13.8571,41.1852,-0.5223,0.303,0.2712,163.3125
18:43:11:508,1.8075,-0.2225,12.8324,41.2908,-0.2034,0.1674,-0.022,163.5
18:43:11:529,0.7325,0.2225,10.9337,41.4366,0.1723,-0.0647,-0.4368,163.5
18:43:11:549,-0.5578,0.7134,9.1765,41.4998,0.3506,-0.1307,-0.6872,163.8906
18:43:11:572,-0.9505,1.0415,8.2358,41.6667,0.2376,0.0739,-0.6267,163.8906
18:43:11:590,-0.7014,1.0391,8.729,41.6564,-0.0269,0.3427,-0.4514,164.4062
18:43:11:609,-0.4908,0.9266,9.3467,41.8406,-0.1857,0.5595,-0.328,164.4531
18:43:11:631,-0.5506,0.8692,9.3562,41.9766,-0.1057,0.5748,-0.2101,164.8125
18:43:11:649,-0.309,0.8258,9.1908,41.8961,-0.0391,0.4416,-0.1509,164.8438
18:43:11:672,-0.2273,0.7469,9.1119,41.9416,0.0134,0.2773,-0.1368,165.2031
18:43:11:690,-0.1675,0.7349,8.8941,41.8942,0.0837,0.1515,-0.1167,165.2344
18:43:11:708,-0.055,0.6703,8.5277,41.889,0.1674,0.0709,-0.0776,165.4219
18:43:11:728,0.0742,0.6248,8.1039,41.7314,0.2376,0.0165,-0.0501,165.4375
18:43:11:748,-0.0526,0.6511,7.7904,41.8231,0.2773,-0.0061,-0.0599,164.6406
18:43:11:771,-0.3544,0.6942,7.7091,41.7325,0.2657,0.0092,-0.0764,164.5625
18:43:11:789,-0.5674,0.8524,7.867,41.981,0.204,0.0629,-0.0507,164.0781
18:43:11:858,-0.7469,1.0152,8.2262,42.2152,0.1093,0.1344,0.0128,164.0312
18:43:11:859,-0.7516,1.1779,8.688,42.2334,0.0244,0.1539,0.091,165.3125
18:43:11:859,-0.5291,1.3238,8.875,42.461,-0.0073,0.0922,0.1698,165.4375
18:43:11:875,-0.297,1.5156,8.8678,42.5262,-0.0006,-0.0336,0.2083,166.7188
18:43:11:889,-0.2225,1.7022,8.8008,42.7397,0.0031,-0.1607,0.2089,167.3281
18:43:11:909,-0.285,1.7907,9.0377,42.9091,-0.0458,-0.2547,0.2187,167.3281
18:43:11:928,-0.1436,1.762,9.8327,43.1417,-0.1686,-0.2388,0.2651,167.7188
18:43:11:947,0.0431,1.3549,11.1374,43.259,-0.2981,-0.1069,0.3097,167.7188
18:43:11:972,0.1244,0.7828,12.2865,43.3538,-0.3305,0.0519,0.2822,168.0781
18:43:11:989,-0.1986,0.1603,12.6096,43.4143,-0.2566,0.1081,0.1924,168.0781
18:43:12:008,-0.256,0.189,12.533,43.5293,-0.1888,0.0244,0.1148,168.3906
18:43:12:029,-0.4765,0.2249,12.4301,43.7148,-0.1918,-0.0489,0.0599,168.3906
18:43:12:049,-0.4454,0.0526,12.035,43.8721,-0.1985,-0.1344,0.0849,168.75
18:43:12:070,-0.2177,-0.0861,11.5277,43.8332,-0.2395,-0.2309,0.1527,168.75
18:43:12:091,0.2441,-0.1268,11.633,44.0057,-0.3506,-0.2676,0.1906,168.9375
18:43:12:109,0.8139,-0.1484,12.0087,44.1805,-0.4227,-0.1466,0.1631,168.9375
18:43:12:130,0.8764,-0.2297,11.7526,44.2232,-0.3262,-0.0043,0.0312,168.7031
18:43:12:150,0.2034,-0.1747,10.6346,44.4615,-0.0898,-0.0519,-0.1582,168.6719
18:43:12:171,-1.7285,0.4956,8.2382,44.6386,0.1271,-0.19,-0.3054,168.25
18:43:12:189,-2.2361,0.7636,8.1927,45.1535,-0.0593,0.0312,-0.1613,168.2031
18:43:12:211,-2.1165,0.7516,8.7888,45.5307,-0.3158,0.2847,0.0904,167.625
18:43:12:228,-1.4366,0.6176,9.507,45.9881,-0.4838,0.3696,0.3286,167.5625
18:43:12:248,-0.5315,0.6224,10.0816,46.2558,-0.5125,0.2859,0.4551,166.7344
18:43:12:273,0.0694,0.7516,10.2395,46.3597,-0.4062,0.1252,0.419,166.6562
18:43:12:288,0.0933,0.8812,9.8949,46.7211,-0.2083,-0.0623,0.2456,166.1875
18:43:12:308,-0.2827,1.0965,8.985,46.9972,0.0354,-0.2425,0.0568,166.1406
18:43:12:330,-0.6511,1.2449,7.8383,47.221,0.2034,-0.3091,-0.0275,165.8438
18:43:12:348,-0.9099,1.2903,7.1465,47.4008,0.2352,-0.27,-0.0165,165.8125
18:43:12:370,-1.0941,1.2568,6.9882,47.5082,0.1784,-0.1435,0.0342,165.2344
18:43:12:389,-1.1946,1.2377,7.3929,47.6878,0.0751,0.0617,0.1045,164.6562
18:43:12:408,-1.2305,1.1444,8.0106,47.9178,-0.0373,0.2529,0.1845,164.6562
18:43:12:430,-1.0463,1.075,8.7242,48.2094,-0.1326,0.339,0.2596,165.1406
18:43:12:448,-0.7205,1.1468,9.5237,48.3844,-0.1967,0.3964,0.303,165.1406
18:43:12:469,-0.4071,1.2066,10.0337,48.3983,-0.1979,0.4337,0.3091,165.6719
18:43:12:489,0.1005,1.439,10.1773,48.6389,-0.1411,0.3665,0.2694,165.6719
18:43:12:508,0.1579,1.6854,10.2156,48.5083,-0.0611,0.19,0.1405,164.9531
18:43:12:529,-0.2058,1.9463,10.1103,48.7571,0.044,-0.0409,0.011,164.9531
18:43:12:549,-0.4095,1.9271,9.993,49.0249,0.1338,-0.2101,-0.0238,163.6562
18:43:12:570,-0.2393,1.7836,10.1629,49.1952,0.1741,-0.284,-0.0159,163.6562
18:43:12:591,0.0167,1.573,10.8571,49.502,0.1692,-0.2456,-0.0446,163.2188
18:43:12:608,0.1436,1.3525,11.7646,49.8811,0.1637,-0.0861,-0.0898,163.2188
18:43:12:629,0.2369,1.1563,12.1597,50.4132,0.2187,0.1222,-0.1264,163.375
18:43:12:648,0.3066,0.9458,12.1669,50.5311,0.2865,0.2187,-0.204,163.3906
18:43:12:672,-0.1507,0.4047,11.0584,50.8437,0.3934,-0.2614,-0.3005,163.3438
18:43:12:691,0.4406,0.2656,10.7447,51.2152,0.3305,-0.7287,-0.2449,163.3438
18:43:12:710,0.8186,0.3497,11.3049,51.3831,0.1863,-1.0427,-0.2553,162.875
18:43:12:731,1.1468,0.4334,12.2124,51.697,0.0709,-0.9572,-0.2621,162.8281
18:43:12:748,1.142,0.3114,12.454,51.905,0.044,-0.5125,-0.3445,162.125
18:43:12:770,0.5435,0.3544,12.3727,51.9779,0.1368,-0.0556,-0.5559,162.0469
18:43:12:790,-0.6105,0.3185,11.0632,51.9478,0.3335,0.2553,-0.7202,161.5938
18:43:12:808,-1.5203,0.3688,9.3754,52.3094,0.4233,0.3115,-0.6927,161.5469
18:43:12:831,-1.7716,0.498,8.5564,52.6345,0.2462,0.1942,-0.4624,161.6094
18:43:12:848,-1.1683,0.5195,8.8511,52.7677,-0.0922,0.0898,-0.1387,161.6094
18:43:12:872,0.122,0.4813,10.1486,52.9613,-0.383,0.0867,0.1087,161.7656
18:43:12:889,1.075,0.3114,10.917,53.1701,-0.4093,0.1802,0.1271,162.1875
18:43:12:908,1.3956,0.3855,10.7016,53.1772,-0.1741,0.2126,-0.0751,162.1875
18:43:12:931,0.7493,0.6583,9.5142,53.3718,0.1533,0.2132,-0.3549,163.0156
18:43:12:947,-0.3185,0.9266,8.2669,53.773,0.3341,0.2248,-0.5094,163.0156
18:43:12:970,-1.0463,1.1539,7.9364,53.8358,0.292,0.2248,-0.4655,163.8594
18:43:12:989,-1.3023,1.1659,7.9914,53.8793,0.1698,0.2566,-0.2926,163.8594
18:43:13:009,-1.2449,1.118,7.8574,54.1861,0.0947,0.2535,-0.1008,164.4375
18:43:13:029,-1.2138,1.0726,7.5846,54.418,0.0354,0.2114,0.0525,164.4375
18:43:13:049,-1.063,1.1013,7.611,54.3347,-0.0605,0.1991,0.1833,165.3594
18:43:13:073,-0.8429,1.2066,8.3267,54.945,-0.1771,0.2944,0.2822,165.4531
18:43:13:088,-0.7995,1.2592,9.2868,55.0259,-0.2022,0.4759,0.3103,167.3125
18:43:13:109,-1.2162,1.1492,9.4878,55.1414,-0.0916,0.6475,0.2987,167.3125
18:43:13:130,-1.2592,1.319,9.186,55.5257,0.0287,0.6457,0.3299,168
18:43:13:149,-1.0343,1.4151,9.3682,55.7717,0.0287,0.4777,0.3604,168.0625
18:43:13:171,-0.7086,1.398,9.6601,55.8033,0.0031,0.226,0.3775,167.5938
18:43:13:188,-0.2154,1.5562,9.6649,55.7911,0.0232,-0.0098,0.3867,167.5312
18:43:13:207,0.1651,1.7429,9.4472,56.3475,0.0507,-0.1387,0.3665,167.9844
18:43:13:230,0.4525,1.8577,9.4663,56.1776,0.0409,-0.1197,0.3231,168.0312
18:43:13:249,0.8043,1.6304,9.7582,56.5437,-0.0018,0.1038,0.2773,169.2344
18:43:13:269,1.3765,1.506,11.0967,56.9236,-0.0745,0.3873,0.2266,169.3594
18:43:13:289,1.0726,1.1683,12.5091,57.0289,-0.1478,0.5791,0.1368,169.8906
18:43:13:308,0.201,0.9625,12.6936,57.2739,0.1839,0.6231,-0.1704,169.9375
18:43:13:328,-0.7851,0.6176,11.6761,57.3229,0.3867,0.273,-0.2468,169.7344
18:43:13:348,-1.3597,0.5602,10.9193,57.6779,0.3427,-0.1252,-0.2449,169.7188
18:43:13:371,-1.4222,0.4214,10.1079,57.9721,0.1234,-0.3372,-0.1662,169.0312
18:43:13:390,-1.0989,0.7205,9.7702,57.9707,-0.1674,-0.2566,-0.1014,168.3438
18:43:13:408,-1.3597,1.197,10.716,58.0598,-0.5149,0.1466,-0.1423,168.3438
18:43:13:431,-2.2648,1.2257,11.9584,57.9363,-0.7532,0.5485,-0.1692,167.5938
18:43:13:448,-2.5618,0.8501,12.466,58.1389,-0.6701,0.4575,-0.0385,167.5938
18:43:13:470,-1.9992,0.6727,11.47,58.0788,-0.2859,-0.0195,0.1112,166.7812
18:43:13:490,-1.8003,0.5387,9.8853,58.6219,0.1417,-0.5015,0.077,166.7812
18:43:13:509,-2.0853,0.565,8.5469,58.5777,0.3445,-0.5595,-0.014,166.1406
18:43:13:529,-1.9199,0.7588,7.8383,58.3501,0.2492,-0.223,0.0544,166.1406
18:43:13:548,-1.3382,0.7421,8.0536,58.6337,-0.0208,0.1191,0.2523,165.6875
18:43:13:573,-0.4836,0.6679,8.6498,58.6521,-0.2456,0.2089,0.4258,165.6875
18:43:13:588,0.1412,0.6751,9.0257,58.6448,-0.2847,0.0745,0.4142,166
18:43:13:608,0.1555,0.8163,9.1047,58.4467,-0.193,-0.0458,0.234,166
