Time,Acc_X,Acc_Y,Acc_Z,Meg,Gyr_X,Gyr_Y,Gyr_Z,Ore
13:58:10:093,-0.7708,1.9801,9.318,57.0642,0.2028,0.0819,-0.0116,88.2344
13:58:10:226,-0.146,1.8051,9.2701,57.5103,0.077,-0.2596,-0.3854,238.0312
13:58:10:244,0.2465,2.0016,9.3682,57.5017,-0.3787,0.1277,-0.3909,238.0312
13:58:10:264,-0.1029,1.319,9.2749,57.6016,-0.678,0.3854,-0.2773,238.0312
13:58:10:283,-0.6799,0.8955,9.1454,57.5846,-0.7898,0.3946,-0.011,238.0312
13:58:10:303,-0.7875,1.1372,9.5788,57.707,-0.7458,0.2785,0.2028,238.0312
13:58:10:322,-0.1412,1.5538,10.1151,57.8408,-0.5553,0.1338,0.2297,238.0312
13:58:10:341,0.2994,2.0112,10.9555,57.7328,-0.2779,0.281,0.1216,238.0312
13:58:10:360,0.8019,2.1308,11.0991,57.6288,-0.0116,0.6768,-0.069,238.0312
13:58:10:379,1.0104,1.4629,10.1581,57.6645,0.2089,0.7391,-0.2602,238.0312
13:58:10:399,-1.4151,1.5467,9.4161,57.7131,0.394,0.5803,-0.2987,238.0312
13:58:10:421,-1.0869,1.8386,8.4081,57.6207,0.4429,0.4539,-0.1796,238.0312
13:58:10:437,-1.2903,1.5802,8.5612,57.5757,0.2792,0.2156,-0.102,238.0312
13:58:10:456,-1.1061,1.9968,8.8798,57.5379,0.0208,0.1026,-0.1179,238.0312
13:58:10:476,-0.9218,1.7046,9.3873,57.9412,-0.16,0.0928,-0.1765,238.0312
13:58:10:495,-1.6591,1.3789,9.5022,58.1559,-0.2346,0.0489,-0.2614,238.0312
13:58:10:514,-1.8625,1.197,9.562,58.4658,-0.1949,-0.1344,-0.1888,241.9219
13:58:10:534,-1.6089,1.2257,9.7798,58.6238,-0.1008,-0.4343,-0.0232,241.9531
13:58:10:554,-1.0152,1.506,10.3304,58.6833,-0.0281,-0.7055,0.1313,242.6094
13:58:10:574,0.055,1.9896,11.0297,58.6499,0.0312,-0.7159,0.204,242.2812
13:58:10:592,0.4262,2.1595,10.5891,58.6812,0.0745,-0.3873,0.1484,242.2812
13:58:10:613,-0.0502,2.1715,10.4671,58.5828,0.0397,-0.1588,0.0214,241.8594
13:58:10:633,-0.5004,1.9032,10.3567,58.1542,0.0037,-0.0379,-0.0629,241.8125
13:58:10:655,-0.6511,1.6089,10.005,57.9561,0.033,-0.0287,-0.0953,241.8125
13:58:10:673,-0.9434,1.5275,9.5644,57.596,0.0812,-0.0959,-0.0849,242.0625
13:58:10:693,-1.6878,1.8051,9.1406,57.5957,0.1191,-0.2859,0.0153,242.0625
13:58:10:714,-0.766,1.5538,8.9276,57.5043,0.0922,-0.4435,0.2651,242.5625
13:58:10:732,-0.3305,1.506,8.9157,57.3105,-0.0354,-0.4184,0.3818,242.5625
13:58:10:755,-0.2827,1.4605,9.0951,57.226,-0.2138,-0.4184,0.383,242.7969
13:58:10:773,-0.2106,1.2305,9.507,56.8052,-0.3494,-0.5052,0.405,242.7969
13:58:10:794,0.2608,1.1468,10.0241,56.6257,-0.3628,-0.5852,0.4948,243.25
13:58:10:813,1.0199,1.3669,10.4671,56.3536,-0.2566,-0.529,0.5882,243.5
13:58:10:834,1.4629,1.7788,10.7542,56.1939,-0.0874,-0.2187,0.5687,243.5156
13:58:10:856,1.506,2.0255,10.206,55.7453,0.0977,0.2419,0.4264,243.2969
13:58:10:873,1.1779,2.1595,9.3395,55.5907,0.223,0.452,0.2181,243.2812
13:58:10:894,0.7421,2.2265,8.9085,55.4653,0.2315,0.3402,0.0428,243.1562
13:58:10:913,0.4621,2.1595,8.8008,55.5259,0.1625,0.1668,-0.044,243.1406
13:58:10:933,0.3927,2.1308,8.8056,55.6967,0.0831,0.058,-0.0312,243.3125
13:58:10:956,0.5626,2.2552,9.0066,55.4759,0.0293,-0.014,0.0373,243.3281
13:58:10:973,0.6966,2.4969,9.3036,55.6069,0.0128,-0.0354,0.1002,243.4375
13:58:10:993,0.7995,2.6815,9.306,55.483,0.0342,0.0312,0.1295,243.4531
13:58:11:014,0.7229,2.7987,9.2339,55.5031,0.0531,0.1307,0.1191,242.875
13:58:11:034,0.6464,2.8178,9.186,55.1527,0.0269,0.2162,0.088,242.8125
13:58:11:059,0.6511,2.758,9.2868,55.0177,-0.044,0.2749,0.0495,242.0625
13:58:11:076,0.5722,2.6264,9.629,54.6079,-0.1222,0.2859,0.0079,242
13:58:11:094,0.3544,2.4299,9.8782,54.5278,-0.0391,0.2847,0.011,240.9688
13:58:11:115,0.4167,2.6815,9.5907,54.4454,0.1051,0.2993,0.0776,240.8594
13:58:11:133,0.5961,2.825,9.0951,54.2973,0.2144,0.2669,0.1319,239.8438
13:58:11:159,0.6607,2.8968,8.918,54.2933,0.2602,0.113,0.1075,239.7344
13:58:11:174,0.4573,2.8848,9.186,54.1644,0.2798,-0.0904,0.0446,239.375
13:58:11:193,0.2154,2.6982,9.8614,53.8214,0.2847,-0.1826,0,239.375
13:58:11:215,0.0909,2.4969,10.0863,53.7779,0.2755,-0.0739,0.0128,239.4375
13:58:11:234,0.1675,2.4897,9.8901,53.6398,0.2193,0.1173,0.0898,239.4531
13:58:11:256,0.2608,2.5834,10.0433,53.5355,0.1032,0.1613,0.1649,239.2969
13:58:11:276,0.055,2.4897,10.8811,53.4958,0.0116,0.0403,0.1741,239.2969
13:58:11:294,-0.5148,2.2696,11.5899,53.1752,0.0299,-0.0397,0.1692,239
13:58:11:314,-0.7038,2.1835,11.822,52.7827,0.1387,-0.0104,0.2517,238.8125
13:58:11:335,-0.4143,2.0997,11.6139,52.5546,0.2321,0.0727,0.3726,238.8125
13:58:11:357,-0.3784,2.2433,11.7431,52.5447,0.2376,0.0965,0.4087,238.75
13:58:11:374,-0.4525,2.5283,11.8005,52.3642,0.2236,0.1185,0.347,238.75
13:58:11:394,-0.5291,2.3486,11.0967,52.108,0.2358,0.157,0.2022,238.6094
13:58:11:414,-0.4669,1.5826,10.3567,51.7243,0.1619,0.1344,0.069,238.6094
13:58:11:434,-0.5052,0.9936,10.4456,51.4582,-0.0367,0.0574,0.011,238.3281
13:58:11:457,-0.7875,0.6416,11.2475,51.3895,-0.2126,-0.0281,0.014,238.3281
13:58:11:476,-1.2688,0.5052,11.9058,51.1629,-0.1888,-0.0843,0.0782,238.3281
13:58:11:493,-1.6113,0.62,11.3671,51.0281,0.0312,-0.0605,0.2223,238.3281
13:58:11:514,-1.5347,1.1372,9.8638,50.8501,0.237,0.0177,0.4215,238.2344
13:58:11:534,-1.0247,1.8673,8.7242,50.6127,0.2431,0.0837,0.5889,238.2344
13:58:11:558,-0.3808,2.461,8.3913,50.3442,0.091,0.058,0.6249,237.875
13:58:11:577,0.0383,2.5089,9.1549,50.6698,-0.0825,-0.0849,0.4985,237.8438
13:58:11:594,-0.3951,1.5562,10.1079,50.2258,-0.0947,-0.1374,0.1637,237.4219
13:58:11:614,-0.7277,1.2855,9.4902,50.0317,-0.0281,0.0257,0.1338,237.3906
13:58:11:633,-0.6799,1.2425,8.6426,49.8335,0.0171,0.171,0.1912,236.6094
13:58:11:656,-0.4382,1.4581,8.0943,49.4213,0.0269,0.2199,0.2737,236.5312
13:58:11:677,-0.3066,1.8099,7.6947,49.0683,0.0049,0.2217,0.3274,235.9688
13:58:11:693,-0.1914,2.0662,7.3834,48.7004,-0.0134,0.179,0.3445,235.9062
13:58:11:714,-0.201,2.2122,7.29,48.5056,-0.0434,0.1014,0.3341,235.8125
13:58:11:734,-0.0742,2.3844,7.5078,47.8008,-0.1148,0.0483,0.3366,235.7969
13:58:11:760,0.1914,2.6025,7.7258,47.6391,-0.1857,0.0244,0.3305,235.6875
13:58:11:776,0.1651,2.7508,8.1302,47.2574,-0.2236,-0.0208,0.2804,235.6875
13:58:11:794,0.0574,2.9231,8.4775,47.1163,-0.1857,-0.0953,0.226,235
13:58:11:815,0.1029,3.1125,8.6498,46.905,-0.1319,-0.1197,0.1875,233.6719
13:58:11:835,0.1149,3.2345,8.7936,46.5622,-0.146,-0.0538,0.1399,233.6719
13:58:11:858,0.0191,3.3087,9.0114,46.2328,-0.2071,0.0244,0.0977,232.8125
13:58:11:876,-0.0814,3.3972,9.5501,45.6502,-0.2541,0.0446,0.0739,232.8125
13:58:11:894,-0.1484,3.5192,10.1749,45.0647,-0.2327,0.0257,0.0623,232.4844
13:58:11:914,-0.1986,3.6173,10.4815,44.5705,-0.1442,0.0171,0.0458,232.4844
13:58:11:934,-0.3209,3.603,10.4671,44.0783,-0.0678,0.0519,0.0195,231.9219
13:58:11:960,-0.3999,3.5384,10.4192,43.4625,-0.0556,0.0947,0.0079,231.9219
13:58:11:975,-0.2898,3.4546,10.7566,43.0076,-0.1063,0.0806,-0.0043,231.1406
13:58:12:050,-0.3185,3.1268,11.5373,42.5758,-0.1765,0.0031,-0.0391,231.1406
13:58:12:051,-0.297,2.5666,12.4469,42.1397,-0.193,-0.1057,-0.0684,230.4531
13:58:12:052,0,1.9487,12.6769,41.7525,-0.1264,-0.1765,-0.0654,230.375
13:58:12:064,0.2082,0.6344,11.7479,41.3037,-0.0183,-0.1527,-0.0971,229.75
13:58:12:076,0.268,0.1125,11.0704,40.9223,-0.1484,0.0067,-0.0825,229.6875
13:58:12:093,0.4143,0.0622,11.0967,40.6248,-0.3555,0.1283,-0.0354,229.2969
13:58:12:114,0.5339,0.2321,11.6665,40.2539,-0.4441,0.1209,-0.0293,229.25
13:58:12:133,0.5076,0.1747,11.8292,39.9994,-0.317,0.0299,-0.0959,229
13:58:12:155,0.297,-0.0814,11.3623,39.7712,-0.1185,-0.0055,-0.1906,228.9844
13:58:12:177,0.0431,-0.2536,10.582,39.5626,0.0128,0.0244,-0.2462,228.8125
13:58:12:193,0.0646,-0.2946,9.9763,39.4587,0.0525,0.0287,-0.2437,228.7969
13:58:12:215,0.3305,-0.1627,9.8973,39.5217,0.0147,0.0159,-0.2181,228.7188
13:58:12:233,0.4095,0.0048,10.1438,39.4708,-0.0501,0.0531,-0.2211,228.7188
13:58:12:254,0.2536,0.1412,10.1773,39.3922,-0.0617,0.1668,-0.2425,228.6875
13:58:12:276,0.0981,0.3449,9.3036,39.42,0.0244,0.2792,-0.2315,228.6875
13:58:12:296,-0.0885,0.644,8.0967,39.1446,0.1301,0.2724,-0.1869,228.7969
13:58:12:315,-0.1125,1.063,7.3522,39.1599,0.171,0.1497,-0.1203,228.9844
13:58:12:333,-0.0144,1.3908,7.0819,39.1425,0.1313,0.0495,-0.066,228.9844
13:58:12:354,-0.0144,1.5538,7.1919,39.4384,0.0269,0.0275,-0.0434,229.1875
13:58:12:375,-0.1292,1.6519,7.599,39.381,-0.0562,0.0079,-0.022,229.1875
13:58:12:394,-0.2082,1.7788,7.8383,39.2473,-0.0635,-0.0336,0.0202,229.2188
13:58:12:416,-0.079,1.9487,8.1087,39.2541,-0.0342,-0.0886,0.0709,229.2188
13:58:12:434,0.0598,2.0997,8.4464,39.0208,-0.0092,-0.1301,0.1032,229.5312
13:58:12:456,0.2704,2.1619,8.8822,39.0062,0.0018,-0.1527,0.1081,229.5312
13:58:12:476,0.1938,2.0806,9.4496,38.9558,0.0006,-0.1283,0.088,230.0625
13:58:12:493,0.0479,2.0231,9.8949,38.7575,0.0232,-0.0519,0.091,230.0625
13:58:12:517,-0.0287,2.0638,9.8542,38.5349,0.0965,0.0238,0.1319,230.4844
13:58:12:534,-0.0694,2.1571,9.8901,38.3829,0.1558,0.0519,0.1863,230.5312
13:58:12:560,-0.0861,2.1954,10.3208,38.2094,0.182,0.0379,0.2333,230.9688
13:58:12:576,-0.1579,2.217,10.7542,37.9065,0.2162,0.0299,0.2566,231.0312
13:58:12:596,-0.2393,1.8075,11.4939,37.9888,0.2596,0.0183,0.2608,231.3125
13:58:12:615,-0.5865,1.8027,12.0518,37.7719,0.2957,-0.0385,0.2621,231.3438
13:58:12:635,-0.917,1.6711,11.4293,37.6861,0.4068,-0.033,0.3231,231.4531
13:58:12:659,-0.7397,1.7309,10.3711,37.7175,0.3158,0.0812,0.4166,231.4531
13:58:12:676,-0.201,1.4174,10.6585,37.3264,-0.0183,0.1271,0.46,231.4531
13:58:12:693,0.134,0.6368,13.0621,37.2201,-0.3586,0.0165,0.3903,231.4531
13:58:12:716,-0.4095,-0.0167,15.1355,37.0881,-0.336,-0.0556,0.2804,231.2969
13:58:12:733,-1.1563,-0.3018,14.0127,36.8536,0.0849,0.0922,0.2895,231.2812
13:58:12:757,-1.0702,0.1914,10.194,36.6927,0.5052,0.259,0.4545,231.1094
13:58:12:778,-0.268,0.9649,8.152,36.5722,0.4777,0.1429,0.5614,231.0938
13:58:12:794,0.5076,1.1683,9.1382,36.2906,0.1307,-0.1448,0.474,230.8594
13:58:12:815,0.7493,0.8043,11.001,36.1779,-0.124,-0.3256,0.2724,230.4062
13:58:12:834,0.6942,0.419,11.4509,36.1758,-0.1271,-0.2663,0.0977,230.4062
13:58:12:855,0.3449,0.3066,10.127,36.0553,-0.025,-0.0373,0.0128,229.8438
13:58:12:876,0.1603,0.5267,8.3411,35.9996,0.011,0.1607,0.0312,229.8438
13:58:12:894,0.297,0.8402,7.2996,36.1555,-0.0513,0.1881,0.0892,229.2969
13:58:12:916,0.4358,1.2042,7.1584,35.8963,-0.1173,0.0452,0.1191,229.2969
13:58:12:935,0.6296,1.5562,7.6612,35.8378,-0.1246,-0.1289,0.1246,228.5
13:58:12:955,0.8234,2.016,7.5365,35.8857,-0.0605,-0.1869,0.1136,228.5
13:58:12:975,1.0463,2.4754,7.1273,35.6857,-0.0153,-0.1649,0.08,227.5312
13:58:12:993,1.2425,2.8346,7.1178,35.5183,-0.0855,-0.0886,0.0055,227.5312
13:58:13:016,1.2329,2.9542,7.3355,35.5242,-0.201,0.0116,-0.1222,226.9531
13:58:13:036,0.9888,2.9734,7.7856,35.5031,-0.2627,0.0257,-0.2694,226.8906
13:58:13:062,0.6751,2.8992,8.2837,35.3402,-0.2517,-0.0409,-0.3903,225.875
13:58:13:077,0.3353,2.6767,8.8846,35.4506,-0.2144,-0.1356,-0.4704,225.7656
13:58:13:093,0.0263,2.4491,9.7606,35.448,-0.1594,-0.2254,-0.4856,225.0625
13:58:13:116,-0.1747,2.2385,10.6274,35.5074,-0.0751,-0.2395,-0.4337,225
13:58:13:136,-0.0981,2.1428,11.0824,35.5898,0.0696,0.113,-0.1863,224.9062
13:58:13:152,0.134,2.2887,11.001,35.7076,0.0593,0.248,-0.1191,224.8906
13:58:13:173,-0.012,2.2385,11.0871,35.6867,-0.0391,0.3091,-0.1649,224.7344
13:58:13:193,-0.7205,1.7644,11.8316,35.7796,-0.1038,0.2065,-0.2346,224.7188
13:58:13:215,-1.2592,1.4557,12.411,35.8364,-0.0049,-0.0305,-0.1778,224.4844
13:58:13:234,-0.7062,1.6328,11.7383,36.0876,0.1515,-0.2425,0.0171,224.4531
13:58:13:256,0.7588,1.7261,11.1135,36.3227,0.1118,-0.3586,0.1429,224.2969
13:58:13:278,1.5203,1.2975,12.0183,36.4003,-0.1552,-0.3518,0.0348,224.2812
13:58:13:295,1.051,0.1914,13.4333,36.5571,-0.3616,-0.1955,-0.1936,224.4062
13:58:13:315,0.3162,-0.8812,13.3615,36.6894,-0.2914,0.0299,-0.3097,225.125
13:58:13:334,-0.0144,-1.2879,11.9871,36.9007,-0.0727,0.1881,-0.2431,225.125
13:58:13:357,0.2922,-0.8477,10.2802,36.9148,0.1014,0.1949,-0.0874,226.2031
13:58:13:378,0.9793,-0.1149,9.1358,37.1778,0.1399,0.0629,-0.0043,226.2031
13:58:13:394,1.6496,0.3616,8.7912,37.1293,0.0593,-0.1081,-0.0684,227.0625
13:58:13:415,1.5562,0.3903,9.3849,37.0713,-0.0953,-0.1918,-0.2431,227.0625
13:58:13:436,0.8979,0.352,9.5261,37.1709,-0.1949,-0.0886,-0.3775,227.375
13:58:13:455,0.4597,0.5052,8.633,37.3269,-0.1985,0.0941,-0.3806,227.375
13:58:13:476,0.4669,0.7828,7.6062,37.5231,-0.2016,0.2004,-0.314,227.7656
13:58:13:493,0.4597,0.9625,7.4001,37.507,-0.2492,0.1778,-0.281,227.7656
13:58:13:514,0.2082,1.1515,8.1135,37.3939,-0.2621,0.0904,-0.2883,227.9688
13:58:13:535,-0.0335,1.1827,8.243,37.4232,-0.1368,0.0721,-0.2767,227.9688
13:58:13:561,0.0144,1.2688,7.7809,37.6013,0.0415,0.099,-0.2169,227.8594
13:58:13:576,0.1675,1.6113,7.2159,37.7953,0.1234,0.1552,-0.1435,227.8438
13:58:13:595,0.2417,1.8888,7.0914,37.8388,0.0757,0.2126,-0.1124,228.3438
13:58:13:617,0.2345,1.9582,8.4583,37.8685,-0.0287,0.1057,-0.1124,228.4062
13:58:13:636,0.2584,1.8051,9.6577,37.7485,-0.0428,0.0605,-0.1081,228.7031
13:58:13:653,0.0574,1.7453,11.0513,37.9593,-0.0159,0.0617,-0.0861,228.7344
13:58:13:674,-0.3449,1.7261,12.0541,38.2735,0.1051,0.102,-0.0354,228.8125
13:58:13:693,-0.443,1.7381,11.8508,38.4546,0.2889,0.2034,0.0721,228.8281
13:58:13:715,-0.0598,2.0064,11.0895,38.1326,0.3971,0.2871,0.2059,229.4531
13:58:13:734,0.0933,2.3294,11.0895,38.2499,0.3763,0.237,0.2535,229.5156
13:58:13:755,-0.4167,2.4132,11.4652,38.4147,0.3488,0.0886,0.1918,230.1875
13:58:13:777,-1.0032,1.9657,11.0034,38.4908,0.339,-0.0403,0.1185,230.25
13:58:13:795,-1.1037,1.2257,10.5915,38.8464,0.19,-0.1405,0.1203,230.8438
13:58:13:816,-0.8091,0.3353,11.9967,38.8583,-0.1552,-0.2272,0.1631,231.375
13:58:13:833,-0.8091,-0.3784,14.4556,39.1916,-0.4441,-0.2107,0.1906,231.375
13:58:13:855,-1.3765,-0.6105,15.667,39.2243,-0.3879,-0.0257,0.234,231.625
13:58:13:878,-1.7333,-0.4095,13.5362,39.5031,0.011,0.2944,0.3854,231.625
13:58:13:894,-1.4127,0.419,9.4615,39.6695,0.3824,0.482,0.5944,231.8594
13:58:13:915,-0.7708,1.3262,7.2254,39.6155,0.3781,0.2834,0.6622,231.8594
13:58:13:935,-0.1986,1.5419,8.0943,39.7182,0.1118,-0.1478,0.5217,232.0625
13:58:13:956,-0.134,0.9218,10.1246,39.5633,-0.0935,-0.452,0.2847,232.0625
13:58:13:979,-0.3281,0.4621,10.8619,39.7163,-0.0983,-0.4294,0.124,232.0156
13:58:13:993,-0.3449,0.4119,10.1557,39.6175,-0.0195,-0.1894,0.0874,232.0156
13:58:14:016,-0.1101,0.6775,8.9515,39.7005,0.0153,0.08,0.1118,231.5
13:58:14:034,0.0024,1.1396,7.9771,39.8164,-0.0073,0.2633,0.1185,231.5
13:58:14:121,0.0191,1.4677,7.4336,39.7315,-0.0147,0.2779,0.0849,231.2188
13:58:14:121,-0.0431,1.5491,7.5604,39.7996,0.0037,0.149,0.0189,231.1875
13:58:14:122,-0.1675,1.4509,8.2143,39.9612,0.0183,0.0293,-0.0556,230.9375
13:58:14:122,-0.5913,1.2903,8.5158,40.0696,0.1216,0.113,-0.0782,230.9062
13:58:14:135,-0.5578,1.4557,7.9866,40.1025,0.1545,0.1979,-0.0049,230.4688
13:58:14:154,-0.3185,1.8553,7.9555,40.4882,0.124,0.2211,0.08,230.4375
13:58:14:177,0.0479,2.3366,8.1544,40.675,0.1069,0.1918,0.1271,229.4062
13:58:14:193,0.2946,2.7102,8.4559,40.8801,0.1222,0.1381,0.102,229.2969
13:58:14:215,0.2154,2.8107,8.875,41.1757,0.1423,0.0757,0.022,228.125
13:58:14:233,-0.0502,2.8226,9.5955,41.3658,0.1735,0.0079,-0.0403,228.0156
13:58:14:254,-0.1077,2.8107,9.859,41.6582,0.2297,-0.022,-0.0458,227.6562
13:58:14:278,-0.0957,2.7197,9.8303,42.0652,0.2676,-0.077,-0.0415,227.6406
13:58:14:295,-0.3544,2.5881,10.1318,42.3719,0.2236,-0.1741,-0.0464,227.4375
13:58:14:315,-0.4645,2.3964,10.7399,42.7426,0.1087,-0.2688,-0.0269,227.1406
13:58:14:334,-0.6057,2.0327,11.9369,43.1747,-0.0195,-0.3543,0.0153,227.1406
13:58:14:355,-0.2632,1.9008,12.4971,43.737,-0.0458,-0.4172,0.0941,227.1719
13:58:14:382,0.7086,1.5514,11.8268,44.1079,-0.033,-0.482,0.1234,227.1719
13:58:14:394,1.0223,0.5411,12.3081,44.6772,-0.2181,-0.543,0.0006,227.3594
13:58:14:414,0.486,-0.4167,14.6064,44.9082,-0.4545,-0.4826,-0.1338,227.3594
13:58:14:434,-0.3473,-0.766,14.5705,45.1792,-0.3622,-0.1521,-0.1258,227.25
13:58:14:454,-0.1579,-0.1914,11.9082,45.5278,-0.0458,0.1497,0.0342,227.25
13:58:14:478,0.5387,0.6679,9.8782,45.4635,0.1142,0.1356,0.1142,226.9688
13:58:14:493,0.7588,1.1659,9.3443,45.6491,0.0904,-0.0764,0.0086,226.9688
13:58:14:515,0.7014,1.0558,9.5548,45.5476,0.0183,-0.2486,-0.1582,226.9844
13:58:14:534,0.6511,0.9242,9.5955,45.735,-0.0525,-0.226,-0.2669,226.9844
13:58:14:555,0.4645,1.0487,9.0688,45.7761,-0.102,-0.0507,-0.3005,227.1094
13:58:14:578,0.419,1.3119,8.08,46.1773,-0.1283,0.1552,-0.281,227.125
13:58:14:595,0.4813,1.5514,7.4001,46.6153,-0.1826,0.3005,-0.2682,227.2656
13:58:14:617,0.3401,1.7189,7.4647,46.7962,-0.2431,0.3525,-0.3042,227.2812
13:58:14:635,-0.5937,1.3406,7.733,47.2744,-0.0922,0.2596,-0.3952,227.25
13:58:14:656,-0.9434,1.1157,7.4958,47.4004,0.0086,0.1949,-0.3213,227.25
13:58:14:677,-0.6272,1.2712,7.4551,48.1849,0.0238,0.1588,-0.1552,227.2188
13:58:14:693,0.0024,1.7453,7.7378,48.5327,-0.0122,0.1545,-0.0165,227.2188
13:58:14:715,0.2728,2.1093,7.8957,48.9965,-0.0318,0.1649,0.014,227.5156
13:58:14:733,0.201,2.1093,8.0034,49.226,-0.0379,0.16,-0.0195,227.5625
13:58:14:755,0.0215,2.004,8.4009,49.3827,-0.0489,0.1222,-0.0287,227.3906
13:58:14:777,-0.0574,2.0231,9.3921,49.7028,-0.0452,0.0562,0.0244,227.375
13:58:14:795,0.0622,2.272,10.3472,49.8455,0.0018,0.0428,0.1191,227.5469
13:58:14:815,0.3281,2.7006,10.6418,50.3463,0.0715,0.1307,0.2162,228.2188
13:58:14:833,0.6488,3.0404,10.7183,50.5636,0.1155,0.226,0.2596,228.2188
13:58:14:854,0.8716,3.2536,10.9098,50.9879,0.1264,0.2511,0.2291,228.7656
13:58:14:872,0.6799,3.1077,11.3695,51.2264,0.1148,0.2199,0.1326,228.7656
13:58:14:894,-0.0742,2.5642,12.2411,51.4453,0.1203,0.1533,0.0293,229.4062
13:58:14:915,-1.0247,1.9271,12.6338,51.6525,0.2107,0.1179,0.0128,229.4062
13:58:14:934,-1.774,1.6328,11.3288,52.1172,0.3103,0.1875,0.1277,230.0938
13:58:14:954,-1.4103,1.5826,10.2203,52.505,0.1631,0.2761,0.3317,230.1562
13:58:14:979,-0.3999,1.5754,11.3599,52.855,-0.2315,0.2596,0.4484,230.3281
13:58:14:995,-0.0742,0.6751,13.7444,53.056,-0.5082,0.1338,0.3427,230.3281
13:58:15:014,-1.2281,-0.3353,15.6526,53.1454,-0.4032,0.0073,0.1539,230.2969
13:58:15:034,-2.3964,-0.6966,14.0821,53.3492,0.0354,0.1277,0.1747,230.2969
13:58:15:055,-2.2361,0.055,10.0768,53.6866,0.3787,0.3024,0.4111,230.2812
13:58:15:074,-1.0989,1.1348,8.3291,53.6386,0.2602,0.1735,0.5534,230.2812
13:58:15:095,-0.0383,1.5084,10.0385,53.6086,-0.0849,-0.1539,0.4245,229.9375
13:58:15:118,0.0694,0.9577,12.1789,53.4187,-0.2101,-0.3861,0.1203,229.9062
13:58:15:135,-0.3712,0.2177,12.2291,53.4084,-0.0647,-0.3311,-0.1313,229.375
13:58:15:157,-0.8186,-0.1938,10.6968,53.4144,0.08,-0.0519,-0.2107,229.3281
13:58:15:175,-0.9458,0.0407,8.9994,53.3851,0.1289,0.3787,-0.022,229.1406
13:58:15:193,-0.3951,1.0702,6.117,53.4199,0.1393,0.3183,0.0641,229.125
13:58:15:214,-0.1795,1.4773,6.0069,53.4027,0.0971,0.0892,0.0757,228.9844
13:58:15:233,-0.2225,1.7357,6.8758,53.8092,0.0501,-0.1319,0.044,228.9688
13:58:15:256,-0.1077,1.8505,7.29,53.8345,0.08,-0.2187,0.0208,228.1406
13:58:15:273,-0.0287,2.0375,7.3834,54.2003,0.1051,-0.1961,-0.0018,228.0469
13:58:15:295,-0.1364,2.3103,7.8431,54.2927,0.0751,-0.135,-0.0428,227.4844
13:58:15:315,-0.2994,2.5208,8.3554,54.3177,0.0715,-0.0837,-0.091,226.7656
13:58:15:334,-0.364,2.758,8.2765,54.682,0.1124,-0.0373,-0.1301,226.7656
13:58:15:356,-0.2994,2.9638,8.4464,54.9746,0.1228,-0.0415,-0.171,225.7031
13:58:15:373,-0.4071,3.0763,8.9707,55.2309,0.0983,-0.0647,-0.2272,225.7031
13:58:15:395,-0.4693,3.0835,9.5501,55.208,0.0965,-0.0788,-0.2694,225.7656
13:58:15:415,-0.51,3.0356,9.8782,55.6172,0.1277,-0.0971,-0.2871,225.7656
13:58:15:433,-0.7229,2.8872,10.261,55.7053,0.1484,-0.1326,-0.2969,226.1094
13:58:15:455,-0.9888,2.5475,10.9843,56.0696,0.1264,-0.1826,-0.2895,226.1406
13:58:15:474,-1.0965,1.9271,11.9608,56.4487,0.091,-0.2553,-0.2382,226.1406
13:58:15:495,-1.2233,1.3717,12.8851,56.6104,0.0886,-0.3378,-0.1301,226.0469
13:58:15:516,-1.1037,1.6089,13.1052,56.8931,0.1381,-0.3842,0.0483,225.9219
13:58:15:535,0.2946,1.6854,11.1183,57.1932,0.1637,-0.3244,0.2089,225.9219
13:58:15:555,1.3573,1.1109,9.7654,57.6134,-0.1576,-0.3128,0.1381,225.9531
13:58:15:579,0.8453,-0.067,13.3854,57.5268,-0.7929,-0.3995,-0.1075,225.9531
13:58:15:596,-0.4095,-0.7947,16.0717,57.6823,-0.9523,-0.2468,-0.2315,226.125
13:58:15:617,-0.8812,-0.7756,14.2543,57.3438,-0.4532,-0.0006,-0.135,226.1406
13:58:15:637,0.3162,0.6679,10.4815,57.0377,0.0562,-0.0324,0.0079,226.4531
13:58:15:656,0.4071,0.6176,10.5293,57.006,0.193,-0.3146,-0.1747,226.4844
13:58:15:680,0.1842,0.0909,10.716,56.7007,0.1338,-0.2199,-0.3262,227.0156
13:58:15:697,0.3114,0.1316,10.151,56.4505,0.149,-0.055,-0.3421,227.0625
13:58:15:714,0.7277,0.6823,8.8558,56.0854,0.1894,0.1338,-0.3036,227.6875
13:58:15:735,0.9218,1.2042,7.6684,55.8364,0.1503,0.3018,-0.3329,227.75
13:58:15:754,0.6153,1.2353,6.8853,55.9997,0.0757,0.3641,-0.4398,228.3438
13:58:15:773,-0.0837,0.996,6.8997,56.0004,0.0165,0.2895,-0.5308,228.4062
13:58:15:795,-0.7804,0.7325,7.381,56.1471,0.0153,0.1692,-0.5259,228.5781
13:58:15:815,-1.2975,0.5937,7.558,55.8529,0.0751,0.0849,-0.4087,228.3281
13:58:15:834,-1.3095,0.8764,7.3953,55.8997,0.1338,0.0538,-0.1942,228.3281
13:58:15:855,-0.7828,1.4749,7.4839,55.7801,0.1124,0.088,0.0293,228.6719
13:58:15:873,-0.28,1.9606,7.678,55.7955,0.0348,0.2071,0.1613,228.6719
13:58:15:893,0.1962,2.4179,7.7641,55.9345,-0.0342,0.3415,0.2095,228.7969
13:58:15:915,0.213,2.7772,7.9244,55.542,-0.0605,0.4001,0.1747,228.7969
13:58:15:933,-0.122,2.904,8.0728,55.6404,-0.0086,0.3219,0.1051,229.0469
13:58:15:956,-0.577,2.7963,8.2214,55.744,0.0959,0.1533,0.0647,229.0781
13:58:15:975,-0.7516,2.7078,8.4846,55.6131,0.1686,-0.0061,0.0922,229.8438
13:58:15:994,-0.6272,2.6551,9.186,55.2813,0.1771,-0.0971,0.1545,229.8438
13:58:16:016,-0.5913,2.6456,10.0648,55.0638,0.1607,-0.0684,0.2114,230.5156
13:58:16:036,-0.7301,2.7269,10.424,54.8617,0.193,0.0611,0.2847,230.5156
13:58:16:055,-0.7349,2.9255,10.0433,54.6346,0.2553,0.1973,0.3952,231.5
13:58:16:075,-0.5985,3.0981,10.0433,54.4499,0.2926,0.1888,0.5027,231.5
13:58:16:093,-0.4884,3.1699,10.7255,54.1276,0.3225,0.0702,0.5669,232.4219
13:58:16:117,-0.3425,3.6102,10.6298,53.7102,0.3818,-0.0153,0.5919,232.5156
13:58:16:199,0.4047,3.2512,10.6035,53.5772,0.1637,0.0287,0.5131,232.6875
13:58:16:199,0.2058,2.2528,12.9281,53.4295,-0.1796,-0.1497,0.2694,232.7031
13:58:16:200,-0.8139,1.1037,15.181,53.1796,-0.273,-0.2498,0.0507,232.2656
13:58:16:208,-1.4868,-0.1244,14.3791,52.9637,-0.0825,-0.0263,0.022,232.2344
13:58:16:217,-1.8817,-0.6655,11.6545,52.7773,0.077,0.2895,0.1826,231.875
13:58:16:232,-2.0614,0.0144,9.5883,52.2761,0.0305,0.4532,0.4594,231.8438
13:58:16:253,-1.439,1.2544,8.3028,51.777,-0.0715,0.3653,0.73,231.6719
13:58:16:273,-0.1986,2.2528,7.8168,51.3232,-0.1484,0.0635,0.8405,231.6562
13:58:16:296,0.553,2.6408,8.4727,50.9038,-0.2602,-0.27,0.7006,231.3281
13:58:16:315,0.4549,2.1619,9.775,50.166,-0.3329,-0.4832,0.4123,230.625
13:58:16:333,0.0215,1.3262,10.2275,49.5637,-0.3183,-0.4227,0.1833,230.625
13:58:16:355,-0.4693,0.7636,9.7798,48.9254,-0.2572,-0.1851,0.1093,229.375
13:58:16:373,-0.4621,0.7181,8.7242,48.0584,-0.1698,0.0635,0.1918,229.375
13:58:16:396,0.1268,1.3286,7.3164,47.4987,-0.0874,0.2346,0.3354,228.1094
13:58:16:414,0.6727,2.1117,6.2653,47.1161,-0.0666,0.2706,0.3952,228.1094
13:58:16:434,1.0487,2.7173,6.0978,46.4766,-0.1026,0.1295,0.3378,228.0938
13:58:16:454,1.0965,2.8801,7.0723,45.9471,-0.1894,-0.0641,0.1869,227.2656
13:58:16:474,0.7181,2.5618,8.3435,45.7101,-0.2682,-0.1594,0.0092,227.25
13:58:16:498,0.1699,2.2887,9.5405,45.2258,-0.2657,-0.1802,-0.0953,227.1875
13:58:16:515,-0.2058,2.2002,9.9428,44.8295,-0.1545,-0.1435,-0.0874,226.3906
13:58:16:535,0.0215,2.5307,9.7223,44.6568,-0.0128,-0.091,0.0098,226.3906
13:58:16:555,0.4836,3.1292,9.7415,44.3472,0.0373,-0.0421,0.0745,224.5938
13:58:16:574,0.6176,3.3733,10.127,43.9882,0.0367,-0.0312,0.0214,224.5938
13:58:16:596,0.2827,3.0356,10.4456,43.801,0.0226,-0.0159,-0.0874,223.5469
13:58:16:613,-0.2154,2.3198,11.068,43.3902,-0.0116,-0.0391,-0.1637,223.4375
13:58:16:634,-0.5674,1.5897,11.8843,43.1544,-0.0232,-0.1295,-0.1545,223.1875
13:58:16:655,-0.7373,1.008,12.7008,43.0506,0.0079,-0.2413,-0.0709,223.1562
13:58:16:674,-0.7804,0.9194,12.8563,42.7628,0.1106,-0.3384,0.0874,222.5938
13:58:16:698,0.2898,1.4557,11.9106,42.5156,0.1582,-0.4368,0.3354,222.5469
13:58:16:714,2.3438,1.3502,12.2243,42.4171,-0.1631,-0.4001,0.0629,221.75
13:58:16:735,1.3143,-0.3616,14.4126,42.3669,-0.3787,-0.3482,-0.3268,221.6719
13:58:16:755,-0.1196,-1.8242,14.4221,42.0729,-0.2272,-0.1973,-0.4942,221.4844
13:58:16:774,-0.7804,-2.1523,12.4134,42.1538,0.0476,-0.0147,-0.3635,221.4531
13:58:16:797,-0.2034,-1.051,10.3783,42.2288,0.1808,0.0287,-0.1038,221.6562
13:58:16:815,0.9051,0.2273,9.3754,42.0332,0.1252,-0.011,0.0049,221.6094
13:58:16:835,1.386,0.9051,9.2653,42.0421,-0.0159,0.0092,-0.1228,221.6094
13:58:16:857,1.1276,1.0247,8.9252,41.9732,-0.0922,0.1503,-0.3335,221.6875
13:58:16:874,0.8067,1.1635,7.7761,41.8018,-0.0751,0.3604,-0.4734,221.6875
13:58:16:894,0.4645,1.3669,6.5192,41.601,-0.066,0.5333,-0.5571,222.0156
13:58:16:916,-0.0455,1.4222,6.0691,41.531,-0.1081,0.584,-0.6292,222.0469
13:58:16:935,-0.6009,1.2377,6.4714,41.3051,-0.1472,0.5406,-0.6738,222.0469
13:58:16:956,-1.1946,1.0941,7.0555,41.0466,-0.124,0.4905,-0.6518,222.1094
13:58:16:973,-1.4557,1.1109,7.5437,40.8978,-0.0122,0.4331,-0.5357,222.1094
13:58:16:995,-1.2592,1.5108,7.3977,40.5881,0.1258,0.3977,-0.3525,221.5312
13:58:17:015,-0.9051,2.016,6.8566,40.465,0.1802,0.3928,-0.1863,221.9062
13:58:17:036,-0.4382,2.557,6.8806,40.489,0.1014,0.3323,-0.0702,221.9062
13:58:17:055,0.0144,2.9518,7.9196,40.4077,-0.0336,0.1973,-0.0226,222.8594
13:58:17:074,0.3138,3.1412,9.4854,40.1361,-0.1246,0.0983,-0.0452,222.8594
13:58:17:098,0.0814,2.9997,10.4862,40.0737,-0.0916,0.0794,-0.1032,222.9844
13:58:17:116,-0.2249,2.9399,11.336,39.8499,-0.0568,0.2065,-0.1252,222.9844
13:58:17:134,-0.297,2.8633,11.7168,39.6639,-0.0495,0.4129,-0.0965,223.4219
13:58:17:155,-0.4095,2.7843,11.4604,39.6461,-0.0226,0.471,-0.055,223.4531
13:58:17:175,-0.3712,2.2146,11.4293,39.3371,-0.0562,0.3292,-0.0409,224.3906
13:58:17:199,-0.5698,1.3884,12.7056,38.8923,-0.0965,-0.0318,-0.0574,224.4844
13:58:17:216,-0.4549,0.929,14.9106,38.7513,0.0501,-0.4838,-0.058,225.6562
13:58:17:235,-0.0814,1.2975,16.5263,38.7749,0.915,-0.0348,-0.2993,225.7812
13:58:17:255,-0.711,0.5459,10.7255,38.8803,0.6218,0.0531,-0.5516,226.8594
13:58:17:274,-1.6256,0.1579,10.6753,38.9958,0.0825,0.1179,-0.5119,227.4531
13:58:17:298,-1.7166,0.3329,12.3081,39.1982,-0.3769,0.0421,-0.2602,227.4531
13:58:17:315,-1.774,0.6464,12.588,39.3206,-0.3457,0.2065,-0.0079,227.5469
13:58:17:333,-1.5491,1.0247,9.4424,39.7622,0.0483,0.4697,0.1704,227.5469
13:58:17:356,-1.1755,1.7189,8.2717,40.1051,0.1985,0.1075,0.2401,227.6719
13:58:17:374,-0.2776,2.5137,7.3092,40.4177,0.1949,-0.2621,0.2382,227.6719
13:58:17:395,0.1771,2.9734,7.5126,40.6117,0.0147,-0.5546,0.055,227.6719
13:58:17:417,0.146,2.6791,8.6928,40.5186,-0.2095,-0.7666,-0.2388,227.8438
13:58:17:433,-0.0072,1.908,9.3969,40.5059,-0.2291,-0.8937,-0.4722,227.8438
13:58:17:455,-0.3114,0.9075,8.5493,40.9082,-0.0299,-1.0262,-0.5974,227.8594
13:58:17:474,-0.8354,0.2898,8.3626,41.27,0.1613,-1.2797,-0.6011,227.8594
13:58:17:499,-1.3669,-0.1005,9.4567,41.5133,0.0434,-0.8289,-0.4459,228.0312
13:58:17:516,-0.5722,1.1157,7.7904,41.8086,-0.2059,0.6524,-0.0507,228.6406
13:58:17:535,-0.5243,1.774,6.6532,41.6788,-0.3317,1.2693,0.1692,228.6406
13:58:17:555,-1.0128,1.5706,7.491,41.638,-0.5272,1.1631,0.1918,229.8438
13:58:17:575,-0.7205,1.3884,7.6708,41.3623,-0.5864,1.0268,0.3128,229.8438
13:58:17:599,-0.4932,2.1906,8.432,40.9345,-0.5571,0.799,0.3793,230.0625
13:58:17:617,-0.7516,2.138,8.9204,40.2252,-0.482,0.394,0.2706,230.0625
13:58:17:634,-0.7325,1.8745,8.741,39.2264,-0.3818,0.0147,0.2669,229.6094
13:58:17:655,-1.142,1.6878,9.0305,38.4488,-0.4087,-0.2376,0.284,229.5625
13:58:17:674,-1.829,1.6256,9.8399,37.6979,-0.5046,-0.383,0.3085,229.375
13:58:17:698,-1.7955,1.4533,11.6569,36.9534,-0.4856,-0.369,0.4264,229.3594
13:58:17:716,0.0502,2.636,11.7383,36.4777,0.0165,0.1833,0.7581,230.2188
13:58:17:735,0.3401,2.4993,12.3703,36.0286,0.3048,-0.0312,0.5815,230.2969
13:58:17:754,-0.2874,1.7189,13.4166,35.4496,0.6438,-0.3787,0.3103,231.75
13:58:17:774,-0.9147,1.1755,13.0525,35.345,0.9932,-0.4502,0.1949,231.9062
13:58:17:797,-0.5291,1.4509,11.0919,35.5631,1.0482,-0.1833,0.3079,232.4219
13:58:17:816,0.6416,1.4916,10.9289,35.495,0.5241,0.025,0.3531,231.8281
13:58:17:833,0.2058,-0.3951,13.1602,35.4098,-0.2266,0.0855,0.08,231.8281
13:58:17:854,-1.0534,-2.2241,15.2719,35.5391,-0.4826,0.1399,-0.1014,230.8125
13:58:17:873,-1.1396,-1.9944,13.4836,35.4916,-0.0171,0.2431,0.0831,230.8125
13:58:17:894,0.1388,-0.5267,9.8231,35.5425,0.5553,0.179,0.3292,230.7188
13:58:17:914,1.5275,0.9864,7.448,35.9673,0.7135,-0.091,0.3445,230.0156
13:58:17:934,2.1356,1.7166,6.5001,35.9152,0.463,-0.3622,0.0977,230
13:58:17:956,2.0399,1.3573,7.6181,35.9077,-0.036,-0.5076,-0.2498,229.3281
13:58:17:974,1.4318,1.0391,8.9444,35.8007,-0.4001,-0.4368,-0.5162,229.3281
13:58:17:998,1.1946,1.276,9.0951,36.0122,-0.4484,-0.2089,-0.6408,228.1094
13:58:18:018,0.5076,1.4004,8.2693,36.4282,-0.3201,0.0012,-0.7385,226.6562
13:58:18:035,-0.553,1.2209,7.6349,36.6046,-0.1802,-0.0452,-0.8112,226.6562
13:58:18:054,-1.4749,1.2185,7.2039,37.1168,-0.0874,-0.2755,-0.719,226.2812
13:58:18:075,-1.8793,1.2592,6.9165,37.1996,-0.1356,-0.416,-0.3977,226.2812
13:58:18:093,-1.386,1.2353,7.2589,37.3856,-0.3531,-0.3335,0.0776,225.6719
13:58:18:116,0.4047,1.2329,7.5485,37.3536,-0.5656,-0.1399,0.5253,225.6719
13:58:18:134,2.2935,1.4964,8.7051,37.3002,-0.6316,0.0092,0.5773,225.625
13:58:18:155,1.13,1.884,9.4902,37.1315,-0.4355,0.1759,0.1503,225.6094
13:58:18:175,0.5937,1.7907,9.7128,36.5037,-0.0464,0.1338,-0.0556,225.1875
13:58:18:197,0.4478,1.5203,9.993,36.6646,0.3201,-0.1209,-0.0654,225.1562
13:58:18:282,0.1531,1.5395,9.9476,36.3401,0.4875,-0.1423,-0.0177,224.8281
13:58:18:284,0.2608,1.6854,10.1127,36.3397,0.2126,0.0641,0.1686,224.7969
13:58:18:284,0.0479,1.7213,10.692,36.2845,0,0.0617,0.1826,225.6406
13:58:18:285,0.3114,1.8888,11.9034,36.2716,-0.0874,-0.2169,0.2633,225.7188
13:58:18:293,0.4836,2.0279,13.1411,36.2772,-0.0312,-0.3885,0.3176,227.0781
13:58:18:324,0.5818,1.9343,13.4237,36.0971,0.1741,-0.223,0.3042,228.7656
13:58:18:332,0.2201,2.0686,12.2339,36.2759,0.3726,0.0892,0.2602,228.7656
13:58:18:356,-0.4095,1.4366,11.7048,36.0117,0.2425,0.1399,0.171,228.9219
13:58:18:374,-0.833,-0.0455,12.7534,36.1341,-0.1778,0.1057,0.0531,229.3125
13:58:18:393,-1.0271,-1.0391,14.5849,35.6892,-0.4245,0.1454,0.0324,229.3438
13:58:18:414,-1.1157,-0.941,14.2615,35.5632,-0.1362,0.2144,0.1674,228.0938
13:58:18:434,-0.7038,0.1651,11.3169,35.2388,0.4123,0.4007,0.3775,228.0938
13:58:18:455,0.2536,1.8649,8.0106,35.0265,0.7025,0.4954,0.5046,227.9375
13:58:18:473,1.2568,3.0428,6.5121,34.9902,0.5241,0.3048,0.3885,227.9375
13:58:18:494,1.6065,3.0141,7.2541,34.8234,0.0794,0.0006,0.0147,228.0781
13:58:18:517,1.0295,1.9391,9.198,34.3829,-0.339,-0.1753,-0.4184,227.8125
13:58:18:536,0.2776,0.6799,10.3519,34.0544,-0.5143,-0.0886,-0.6976,227.8125
13:58:18:554,0.1388,0.3377,10.5293,34.1064,-0.4203,0.0605,-0.7458,227.3281
13:58:18:575,0.2321,0.5315,9.8327,33.8445,-0.1692,0.1949,-0.7074,227.3281
13:58:18:593,0.2297,0.833,8.7625,34.0304,0.1045,0.2468,-0.6921,226.7188
13:58:18:616,-0.1579,1.3214,7.6732,34.068,0.317,0.2046,-0.7275,226.7188
13:58:18:635,-1.1994,1.1228,6.9141,34.2872,0.4099,0.1057,-0.7666,226.25
13:58:18:656,-2.5113,0.6057,6.7226,34.6044,0.3757,0.0458,-0.6359,226.25
13:58:18:676,-2.7365,0.9649,6.4642,34.9785,0.2718,0.1374,-0.2437,226.1094
13:58:18:693,-1.9319,1.9391,6.2749,35.2151,0.1179,0.2236,0.1863,226.0938
13:58:18:718,-1.1157,2.6049,7.2063,35.4715,-0.2437,-0.1057,0.3952,225.5
13:58:18:737,-0.9027,2.4419,8.5708,35.3636,-0.3781,-0.3244,0.3861,224.5156
13:58:18:758,-0.778,2.2433,9.6936,35.0382,-0.4282,-0.3806,0.4093,224.5156
13:58:18:775,-0.2728,2.4586,10.7112,34.5654,-0.4276,-0.2596,0.4807,224.4375
13:58:18:799,0.5818,2.8825,11.0321,34.0261,-0.3176,-0.1283,0.5284,224.8281
13:58:18:819,0.917,3.1196,10.9843,33.4887,-0.1558,-0.1387,0.4306,224.875
13:58:18:834,0.4382,2.5379,10.9508,32.9438,-0.0806,-0.2315,0.2407,226.2656
13:58:18:857,0.0383,1.5682,11.6593,32.223,-0.1057,-0.3219,0.124,226.4062
13:58:18:874,-0.3018,0.9577,12.9784,31.404,-0.102,-0.3561,0.1228,227.7656
13:58:18:894,-0.0239,1.3836,12.641,31.0055,0.0776,-0.2767,0.2425,227.8906
13:58:18:917,1.0104,2.2265,10.1773,30.7069,0.1979,-0.168,0.3421,229.4062
13:58:18:933,1.8577,1.9968,9.8231,30.6048,-0.1338,-0.1973,0.179,229.5469
13:58:18:956,1.4342,0.2297,12.4229,30.2572,-0.6579,-0.2767,-0.1814,230.5469
13:58:18:973,-0.134,-1.9056,14.9154,29.9307,-0.7996,-0.3079,-0.4398,230.5625
13:58:18:995,-1.13,-2.7772,15.2647,29.3939,-0.416,-0.2981,-0.3549,229.8906
13:58:19:016,-0.3664,-1.4749,12.5521,29.0107,0.1747,-0.2193,-0.0202,229.0469
13:58:19:035,1.0104,0.1436,9.9595,29.0647,0.4398,-0.1845,0.1381,229.0469
13:58:19:057,1.7788,1.0558,8.7123,28.9952,0.3091,-0.1814,-0.0018,228.0781
13:58:19:074,2.2074,0.8716,8.9922,28.7537,-0.0232,-0.1662,-0.2932,228.0781
13:58:19:093,2.1165,0.0311,10.8667,28.4958,-0.3317,-0.0812,-0.6121,227.0312
13:58:19:118,1.331,-0.5028,11.7311,28.3976,-0.3195,0.1533,-0.821,227.0312
13:58:19:135,0.6392,-0.2656,10.2084,28.1842,-0.0086,0.4478,-0.8503,226.6562
13:58:19:155,0.2177,0.4525,7.8479,28.4257,0.2523,0.6548,-0.7978,226.6562
13:58:19:175,-0.486,0.8019,6.3562,28.4583,0.2712,0.6976,-0.7929,226.3594
13:58:19:193,-0.7851,0.8019,6.2988,28.1717,0.1271,0.6316,-0.788,226.3281
13:58:19:217,-0.4813,0.9817,7.3522,28.062,0.0666,0.5882,-0.8234,225.8438
13:58:19:238,-0.8429,2.0136,8.2502,28.0365,0.4038,0.7471,-1.1032,225.7812
13:58:19:256,-1.0678,2.2983,6.9284,28.3626,0.7819,0.5681,-1.0849,226.4062
13:58:19:274,-1.0271,1.6998,6.7059,28.8385,0.8387,0.1106,-0.9053,226.4688
13:58:19:292,-2.4658,1.0367,6.816,29.4234,0.5571,0.0012,-0.7092,226.875
13:58:19:319,-2.7963,0.5052,8.0082,29.9187,0.0464,0.1619,-0.2101,226.9219
13:58:19:334,-1.6352,1.197,9.5477,30.4131,-0.3476,0.3983,0.3702,226.8281
13:58:19:355,-0.213,2.2074,10.2515,30.7528,-0.3616,0.4416,0.6182,226.8281
13:58:19:373,0.2417,2.4849,11.056,31.0011,-0.1716,0.16,0.5253,227.7344
13:58:19:393,-0.1651,2.2265,11.348,31.079,0.1081,-0.1319,0.361,227.8281
13:58:19:416,-0.4382,2.1332,11.2164,30.691,0.3366,-0.2792,0.3213,229.4375
13:58:19:434,-0.5698,2.126,11.0919,30.2983,0.419,-0.2462,0.3824,229.5938
13:58:19:454,-0.4478,2.3916,10.8882,29.7956,0.3806,-0.1173,0.452,231.2656
13:58:19:473,-0.7229,2.6097,10.8236,29.2059,0.2663,-0.0012,0.4471,231.2656
13:58:19:494,-1.1252,2.6336,10.2491,28.68,0.1301,-0.0122,0.4135,232.8594
13:58:19:516,-1.5491,2.0231,10.4647,28.1273,-0.1155,-0.1955,0.369,234.8906
13:58:19:534,-2.0853,0.6679,11.8914,27.4794,-0.4087,-0.4563,0.3445,234.8906
13:58:19:555,-2.4754,-0.7086,13.6439,27.1389,-0.5113,-0.7,0.4392,237.1562
13:58:19:574,-2.2241,-1.1133,14.0103,26.6561,-0.2712,-0.8301,0.6878,237.1562
13:58:19:594,-1.4127,-0.2201,12.0879,25.9086,0.1136,-0.6689,1.0018,238.2188
13:58:19:618,-0.6081,0.8258,9.7176,25.2638,0.2865,-0.4093,1.1808,238.2188
13:58:19:636,0.3784,1.6208,8.3578,24.7166,0.1588,-0.3384,1.1734,237
13:58:19:656,1.2042,1.7883,8.1401,24.2439,-0.1729,-0.3946,0.9957,237
13:58:19:676,1.5706,1.1827,9.3275,23.3637,-0.5571,-0.529,0.7025,236.0938
13:58:19:693,2.2768,0.4813,11.1063,22.4817,-0.7746,-0.5504,0.4355,236
13:58:19:716,2.1547,0.5363,12.0518,21.3974,-0.741,-0.2889,0.1973,235.4062
13:58:19:733,1.3789,0.6009,10.6561,20.5043,-0.5204,0.1912,0.0489,235.3594
13:58:19:757,0.5794,0.9793,8.0225,19.8051,-0.1338,0.3622,-0.0257,234.5156
13:58:19:776,0.553,1.1659,7.8287,19.2224,0.0293,-0.0031,-0.0641,234.4375
13:58:19:793,0.8186,1.5826,8.0201,18.4713,0.1552,-0.2853,-0.0837,233.6719
13:58:19:815,0.778,1.9295,7.7928,17.6518,0.1814,-0.2449,-0.0977,233.6094
13:58:19:835,0.8955,2.4203,7.5676,17.3664,0.0715,0.0709,-0.08,232.875
13:58:19:856,1.2233,2.849,7.4384,17.0434,-0.0806,0.3409,-0.088,232.7969
13:58:19:873,1.2808,2.9471,7.611,16.8839,-0.2114,0.3732,-0.2046,231.2656
13:58:19:893,1.1731,2.849,8.566,16.9092,-0.2853,0.1326,-0.3604,231.1094
13:58:19:918,0.9362,2.4371,10.3496,16.8521,-0.2266,-0.2932,-0.5168,228.8594
13:58:19:935,0.6607,2.1021,11.8412,16.6574,0.0593,-0.7483,-0.584,228.625
13:58:19:957,0.6272,2.0997,11.8364,16.3567,0.3402,-0.7061,-0.5149,226.8281
13:58:19:973,0.5243,2.2313,11.391,16.3481,0.4264,-0.3384,-0.4025,226.8125
13:58:19:993,0.1484,2.0734,10.5772,16.525,0.4227,-0.0092,-0.3066,226.1875
13:58:20:018,0.0598,2.0495,10.0457,16.7184,0.3836,0.0012,-0.223,226.0625
13:58:20:035,0.0455,1.7118,10.7231,16.8498,0.3262,-0.2785,-0.1857,226.0625
13:58:20:055,-0.1771,1.0798,11.5062,16.7519,0.361,-0.5608,-0.1484,226.125
13:58:20:075,-0.1986,1.2042,11.4867,16.9179,0.5052,-0.6799,-0.0092,226.125
13:58:20:093,0.4071,1.6998,9.4759,16.9398,0.573,-0.5339,0.1894,226.375
13:58:20:118,1.5491,2.0016,8.7506,17.0392,0.1765,-0.2114,0.2706,226.375
13:58:20:135,1.8242,1.0822,10.8523,17.0342,-0.4227,-0.0299,0.1228,226.5156
13:58:20:156,1.2449,-0.3855,13.0837,16.7201,-0.6237,-0.0336,-0.0641,226.5156
13:58:20:175,0.419,-1.063,14.0414,16.4634,-0.3525,-0.0922,-0.1045,227.0781
13:58:20:193,0.0479,-0.7828,12.5665,16.1802,0.1539,-0.025,0.0226,227.0781
13:58:20:220,-0.1842,0.1555,9.8231,15.8765,0.4624,0.2156,0.1869,228.25
13:58:20:234,-0.0957,0.5626,7.9077,15.6243,0.336,0.4691,0.2859,228.375
13:58:20:256,1.0032,1.1013,7.4145,15.5187,-0.0287,0.4667,0.3262,229.3906
13:58:20:277,1.4342,0.0933,10.7782,15.161,-0.5583,-0.113,0.0159,230.0312
13:58:20:294,0.9529,-0.1555,12.0159,14.7023,-0.5272,0.1216,-0.0385,230.0312
13:58:20:362,0.5267,0.2827,10.692,14.3862,-0.2211,0.4954,0.0269,230.0938
13:58:20:363,0.2177,0.8067,8.0369,14.2335,0.0611,0.7623,0.0935,230.5
13:58:20:363,-0.055,1.2209,6.4834,13.9054,0.0654,0.8179,0.1161,230.5469
13:58:20:373,-0.0957,1.4653,6.5384,13.7737,-0.0971,0.6958,0.0977,230.4844
13:58:20:392,0.2177,1.5897,7.6325,13.8045,-0.2016,0.5149,0.0745,230.4844
13:58:20:416,0.9003,1.7405,8.4751,13.9206,-0.1637,0.4123,0.0586,230.125
13:58:20:433,1.1037,1.8864,8.4703,14.0715,-0.0696,0.4172,-0.0024,230.0938
13:58:20:455,0.8429,1.7883,7.788,14.2375,-0.0147,0.4471,-0.0709,230.2656
13:58:20:473,0.6799,1.7261,7.3475,14.6059,-0.0403,0.3861,-0.0874,230.2969
13:58:20:493,0.7564,1.8386,7.6564,14.7932,-0.1472,0.2645,-0.0764,230.0312
13:58:20:518,0.5243,1.8625,8.7745,15.3465,-0.2034,0.0538,-0.0867,229.2656
13:58:20:534,0.3473,1.6974,9.2339,15.5951,-0.1002,-0.182,-0.0715,229.2656
13:58:20:556,0.4286,1.7501,9.3706,15.5954,-0.0079,-0.3036,0.0006,229.0156
13:58:20:574,0.498,1.8458,9.7965,15.4185,-0.0195,-0.3409,0.1051,229.0156
13:58:20:593,0.5674,1.8051,10.1438,15.6922,-0.0464,-0.4068,0.2181,228.9688
13:58:20:617,0.6559,1.3478,10.9866,15.7648,-0.0409,-0.6011,0.3079,228.9688
13:58:20:634,0.5291,0.711,12.0975,15.7416,0.0195,-0.8143,0.4044,228.5938
13:58:20:655,0.0024,0.3712,12.1167,15.7152,0.1185,-0.8564,0.5437,228.5938
13:58:20:674,0.0861,0.8067,11.3432,15.4519,0.1417,-0.8283,0.7385,228.2812
13:58:20:693,0.9936,1.4701,11.0536,15.1327,-0.0495,-0.7617,0.8918,228.2812
13:58:20:719,1.6472,1.1922,11.7742,14.9925,-0.4178,-0.6188,0.8924,228.1406
13:58:20:735,2.4778,0.3568,13.7109,15.1702,-0.675,-0.5699,0.7538,228.125
13:58:20:757,0.8596,-1.8099,15.102,15.4253,-0.4746,-0.0318,0.3555,228.2188
13:58:20:777,0.5722,-1.2855,12.6649,15.6466,-0.0238,0.1949,0.4025,228.2188
13:58:20:795,0.8716,-0.3257,9.5548,15.843,0.3207,0.1203,0.4881,228.3438
13:58:20:816,1.7668,0.5818,7.9555,16.1235,0.3305,-0.1771,0.5351,228.3594
13:58:20:836,3.2943,1.5897,8.3124,16.4484,0.1014,-0.5052,0.4691,228.4688
13:58:20:855,4.168,1.2975,9.2554,16.7583,-0.1802,-0.6218,0.1326,228.4688
13:58:20:872,3.1244,0.1675,9.6769,16.7791,-0.3677,-0.4826,-0.3109,228.2031
13:58:20:893,1.6543,-0.6033,9.6817,16.8031,-0.4398,-0.1949,-0.5168,228.1719
13:58:20:918,0.8835,-0.4956,8.7625,16.5283,-0.405,0.1894,-0.4306,227.5781
13:58:20:934,0.8258,-0.3879,7.1991,16.6107,-0.4123,0.5363,-0.2541,227.5156
13:58:20:956,0.8812,-0.1507,6.6341,16.6883,-0.4728,0.5882,-0.0525,226.375
13:58:20:973,1.3597,0.3329,7.2278,17.0455,-0.4649,0.3439,0.1283,226.2656
13:58:20:993,1.6472,0.7397,8.4153,17.2518,-0.2718,-0.1509,0.1906,224.4219
13:58:21:016,1.7309,0.6153,9.3826,17.4975,0.0128,-0.5302,0.1753,223.1406
13:58:21:036,1.7142,0.6129,9.143,18.0648,0.2462,-0.5577,0.1869,223.1406
13:58:21:056,1.695,0.8764,8.6474,18.3313,0.361,-0.4636,0.2376,222.2969
13:58:21:074,1.9152,1.1109,8.3315,18.8006,0.2877,-0.27,0.3091,222.2969
13:58:21:094,2.4897,1.3143,8.5205,19.2063,0.0983,-0.0672,0.3372,221.1562
13:58:21:119,2.782,1.3502,9.2339,19.3057,-0.1063,0.1087,0.2871,221.1562
13:58:21:135,2.7317,1.331,9.8782,19.3527,-0.2004,0.2242,0.1912,220.5781
13:58:21:155,2.7413,1.2544,10.4815,19.4599,-0.1747,0.2523,0.0849,220.5781
13:58:21:177,2.4778,0.9817,10.6705,19.7574,-0.0586,0.2077,-0.0305,221.5469
13:58:21:194,1.8577,0.4669,10.7638,20.1448,0.0654,0.0623,-0.1277,221.5469
13:58:21:214,1.2736,0.0479,11.257,20.457,0.1301,-0.1564,-0.1478,222.2344
13:58:21:236,0.9864,-0.2752,12.3224,20.532,0.1692,-0.3176,-0.0654,222.2969
13:58:21:257,1.063,-0.1364,12.7678,20.375,0.2651,-0.3366,0.1063,222.2188
13:58:21:276,1.8458,0.4478,11.8651,20.4215,0.3861,-0.2871,0.303,222.2031
13:58:21:295,3.0643,-0.309,11.8149,20.5564,-0.1686,0.0874,0.1796,221.875
13:58:21:319,2.0662,-1.6854,13.6391,20.8163,-0.5766,0.2792,-0.1228,221.8438
13:58:21:337,0.5243,-2.4802,14.5753,21.0884,-0.5626,0.3622,-0.3225,221.4375
13:58:21:357,-0.2874,-2.1739,13.2658,21.1148,-0.099,0.325,-0.2773,221.3906
13:58:21:373,0.1962,-1.2162,10.7136,21.1457,0.4038,0.2364,-0.0745,220.7344
13:58:21:393,0.9649,-0.4167,8.4894,21.4332,0.482,0.3299,0.0678,220.6719
13:58:21:416,1.7644,0.3808,7.3546,21.5637,0.1796,0.4966,0.1209,220.1875
13:58:21:435,2.3414,0.6105,7.558,22.0092,-0.2419,0.5669,-0.0367,220.1406
13:58:21:456,1.8769,0.1914,8.231,22.3409,-0.5632,0.6261,-0.3909,220.0781
13:58:21:473,1.5826,-0.4884,10.6035,22.8911,-0.6542,0.9615,-0.6774,220.0781
13:58:21:495,0.9338,-1.0032,10.4575,23.456,-0.2529,2.146,-0.8668,220.375
13:58:21:520,0.1579,-1.2185,9.4065,24.4641,0.4343,3.2669,-0.8741,220.3438
13:58:21:537,-0.8378,-0.62,5.2143,25.7231,1.1637,3.3115,-0.6713,220.3438
13:58:21:556,-1.9729,1.6783,2.3916,27.1277,1.2712,0.7947,-0.3977,219.5938
13:58:21:574,0.0598,1.4294,9.1525,28.3143,0.7129,-1.8216,-0.2156,219.5938
13:58:21:595,0.984,0.5243,7.7545,28.9885,0.6512,-1.2809,-0.2584,219.5469
13:58:21:621,0.0837,0.2034,7.587,29.7066,0.1924,-0.46,-0.3011,219.5469
13:58:21:635,0.1268,0.6775,7.1201,30.1908,-0.303,0.3451,-0.1478,220.2031
13:58:21:655,0.4884,1.0893,8.353,30.6835,-0.6896,0.54,-0.055,220.2031
13:58:21:675,0.6416,1.0487,10.0505,30.8689,-0.7892,0.4343,-0.0757,220.1562
13:58:21:694,1.4198,0.7062,11.0895,30.9406,-0.6426,0.2535,-0.1307,220.1562
13:58:21:719,1.3717,0.9266,12.6215,30.8662,-0.3635,0.1185,-0.3146,220.0156
13:58:21:736,0.6703,0.6655,12.7869,31.392,0.0812,0.3048,-0.4893,220.0156
13:58:21:756,0.1077,0.364,12.3775,32.1151,0.5656,0.496,-0.4881,221.0312
13:58:21:776,-0.2994,0.3664,11.4174,32.9297,0.937,0.5284,-0.3402,221.1406
13:58:21:794,-0.3473,0.9864,9.8085,33.4427,1.0726,0.2468,-0.1289,222.6875
13:58:21:819,0.6248,1.0965,11.9608,33.68,0.4123,-0.6542,-0.0269,222.8438
13:58:21:837,0.4262,0.5937,11.9776,34.0709,0.0593,-0.0782,-0.2327,223.8906
13:58:21:853,-0.3449,-0.0024,11.4867,34.2903,-0.314,0.4905,-0.4514,224
13:58:21:875,-1.0128,-0.6344,11.4437,34.4364,-0.6481,0.6396,-0.5931,224.7656
13:58:21:893,-1.3119,-0.9075,11.7718,34.6604,-0.7239,0.3812,-0.6793,224.8438
13:58:21:916,-1.5993,-0.7277,11.9082,34.756,-0.4966,-0.0324,-0.7538,225.2969
13:58:21:937,-1.1133,-0.3353,11.5158,34.7074,-0.1313,-0.1185,-0.8167,225.3438
13:58:21:956,-0.4717,0.0407,10.8141,34.979,0.2205,0.2132,-0.9328,225.3281
13:58:21:973,-0.213,-0.0239,10.1007,35.52,0.4807,0.6341,-1.1081,225.3281
13:58:21:995,-0.4119,0.1603,9.1621,35.9269,0.6835,0.6951,-1.2394,225.7188
13:58:22:018,-0.4597,0.0287,8.4248,36.4329,0.6872,0.171,-1.4429,226.7969
13:58:22:036,-0.7421,-0.1771,9.1813,36.697,0.551,-0.5968,-1.6561,226.7969
13:58:22:055,-0.7277,-0.3999,9.7534,36.7303,0.4264,-0.8173,-1.796,227.4531
13:58:22:075,-0.4884,-0.256,9.574,36.7161,0.3647,-0.5864,-1.8687,227.4531
13:58:22:094,-0.2393,0.1651,9.2291,36.8694,0.3036,-0.2352,-1.9169,227.6719
13:58:22:119,-0.0837,0.3401,8.6617,37.0238,0.1833,0.1833,-1.9804,227.6719
13:58:22:139,-0.189,0.3999,8.1736,37.1736,0.0214,0.5174,-2.0342,228.375
13:58:22:156,-0.565,0.5148,7.9795,37.455,-0.1216,0.6829,-2.0464,228.375
13:58:22:176,-0.8186,0.6129,8.0321,37.8137,-0.2223,0.7715,-2.0318,229.5625
13:58:22:193,-0.9482,0.766,8.123,38.6622,-0.2908,0.8582,-2.0049,229.5625
13:58:22:213,-0.8572,0.9505,8.3267,39.4381,-0.3042,0.9279,-1.9719,231.2344
13:58:22:236,-0.9482,1.1946,8.875,40.3841,-0.248,0.9126,-1.9975,231.2344
13:58:22:256,-1.2784,1.2855,9.6386,41.4974,-0.0812,0.7959,-2.0831,233.2969
13:58:22:276,-1.6448,0.9458,10.424,42.5073,0.2095,0.6255,-2.1551,233.5
13:58:22:294,-1.3095,0.7421,10.9819,43.4572,0.5913,0.507,-2.1668,236.2812
13:58:22:314,-0.5076,0.7851,11.08,44.3261,0.9957,0.6298,-2.2804,236.5469
13:58:22:337,-0.3353,0.8716,10.771,45.2643,1.3672,0.9328,-2.6414,240.2031
13:58:22:358,-2.8801,0.7851,10.4599,46.0232,1.694,1.1069,-3.0904,240.5625
13:58:22:435,-3.6703,0.0909,9.6075,46.9869,2.0238,0.628,-3.4123,244.8594
13:58:22:436,-3.4116,-0.268,8.9468,48.0235,1.8656,0.0635,-3.248,244.8594
13:58:22:436,-3.3278,0.0239,9.1597,48.7591,1.496,-0.2908,-3.0781,248.8594
13:58:22:436,-3.1699,0.4717,9.3754,49.6253,0.9914,-0.317,-2.9383,249.2656
13:58:22:457,-2.9327,0.3879,10.2347,50.1698,0.3738,-0.4099,-2.8118,253.2344
13:58:22:473,-2.5403,-0.28,12.1813,50.6874,-0.2303,-0.5656,-2.73,253.625
13:58:22:493,-1.7883,-1.7979,13.1435,51.113,-0.617,-0.5186,-2.7147,257.4688
13:58:22:514,-1.4342,-3.4786,12.6817,51.4512,-0.7471,-0.3024,-2.6878,262.25
13:58:22:534,-1.9343,-3.766,11.0776,51.5356,-0.7226,0.0562,-2.565,262.25
13:58:22:554,-3.1412,-2.8466,9.6936,51.7831,-0.6347,0.3225,-2.2895,267.1562
13:58:22:573,-3.6054,-1.5347,9.2629,52.1467,-0.4978,0.3964,-1.879,267.1562
13:58:22:594,-2.1882,-1.0798,9.1597,52.1662,-0.2908,0.3256,-1.54,273.0469
13:58:22:615,-1.1348,-1.3023,9.0951,52.7955,-0.0373,0.0843,-1.5009,273.0469
13:58:22:637,-1.13,-1.695,8.9803,52.9577,0.2425,-0.2657,-1.6463,280.9688
13:58:22:656,-1.5275,-1.64,8.7673,53.1723,0.518,-0.4942,-1.7783,280.9688
13:58:22:677,-1.6831,-1.4342,8.5301,53.2284,0.7501,-0.4056,-1.8351,289.25
13:58:22:694,-1.9391,-0.9553,8.5038,53.1468,0.9322,-0.1087,-1.8265,289.25
13:58:22:714,-2.4993,-0.7708,8.6091,53.1814,1.1056,0.2474,-1.7862,296.5312
13:58:22:736,-3.146,-1.008,7.8431,52.8876,1.2919,0.4936,-1.6823,296.5312
13:58:22:755,-3.4522,-0.7325,6.7513,53.0523,1.331,0.171,-1.4203,302.1406
13:58:22:775,-3.1747,-0.3616,6.8112,52.6414,1.1405,-0.3958,-1.1508,302.6875
13:58:22:794,-2.9279,0.1029,7.1106,52.0965,0.7898,-0.5968,-1.0226,307.7969
13:58:22:815,-2.8442,0.2297,8.9827,51.6407,-0.1136,-0.4569,-0.8857,308.3125
13:58:22:837,-3.0428,-0.1771,10.2251,51.2938,-0.3409,-0.2559,-0.791,312.9219
13:58:22:857,-3.3924,-0.5961,10.8117,51.2635,-0.284,0.0043,-0.6554,313.375
13:58:22:876,-3.8426,-0.6727,10.7734,50.9886,-0.0195,0.1857,-0.4606,317.0312
13:58:22:893,-4.1776,-0.3975,10.3834,50.6243,0.2602,0.3763,-0.2346,317.0312
13:58:22:915,-4.2855,-0.189,10.0768,50.4113,0.3928,0.5223,-0.0092,320.2188
13:58:22:937,-3.9646,-0.0502,10.4767,50.3844,0.4135,0.2712,0.1936,320.5312
13:58:22:956,-3.5743,-0.3281,11.3192,50.6916,0.4044,-0.0501,0.3018,324.3125
13:58:22:973,-3.1627,-0.5937,11.4078,50.8437,0.3708,-0.1246,0.3335,324.6719
13:58:22:994,-3.0476,-0.8354,10.6729,51.1769,0.215,-0.0922,0.2859,328.6875
13:58:23:017,-3.3278,-1.0487,10.5963,51.3398,-0.1295,-0.0489,0.2248,333.0781
13:58:23:038,-3.6846,-1.6232,11.7455,51.3736,-0.5021,-0.1057,0.2608,333.0781
13:58:23:055,-3.4068,-2.3868,12.8181,51.546,-0.6322,-0.3793,0.4569,335.7656
13:58:23:074,-2.2863,-2.5881,12.8157,51.379,-0.4416,-0.6273,0.7648,335.7656
13:58:23:093,-0.9123,-2.0088,11.6019,50.9952,-0.0898,-0.5974,0.9395,337.75
13:58:23:116,-0.0239,-1.0271,10.3232,50.6598,0.1521,-0.2761,0.7929,337.75
13:58:23:139,-0.1603,-0.3568,9.926,50.3901,0.1698,0.1723,0.4105,339.2344
13:58:23:155,-0.9505,-0.4884,10.0983,50.2145,0.1197,0.325,0.0318,339.2344
13:58:23:175,-1.5945,-1.0223,10.0098,49.9031,0.124,0.0195,-0.1576,340.0156
13:58:23:194,-1.8553,-1.1946,9.5644,49.6142,0.171,-0.4233,-0.1301,340.0938
13:58:23:214,-1.8529,-0.8282,8.9468,49.2772,0.223,-0.5595,0.0079,340.1094
13:58:23:239,-1.6783,-0.0263,8.2549,48.854,0.2523,-0.3244,0.1619,340.1094
13:58:23:256,-1.2879,0.5459,7.4384,48.7109,0.226,0.1032,0.2291,339.5938
13:58:23:277,-1.1348,0.7875,6.7609,48.7083,0.1185,0.4435,0.1723,339.5312
13:58:23:293,-1.5802,0.6248,6.6604,48.6544,-0.0318,0.5534,0.0641,339.0312
13:58:23:314,-2.4036,0.3473,7.1249,48.3589,-0.1326,0.4807,0.022,338.9844
13:58:23:337,-2.8466,0.067,7.6564,48.1528,-0.0037,-0.0116,0.1484,338.0469
13:58:23:357,-2.8633,0.0215,8.1182,47.8715,0.0489,-0.0996,0.182,337.9531
13:58:23:376,-2.9973,0.0335,8.6593,47.8069,0.0409,-0.0409,0.1949,336.0938
13:58:23:394,-2.9447,0.0383,9.0018,47.9016,0.0275,-0.0867,0.2156,335.9062
13:58:23:415,-3.0811,0.0455,9.2916,47.8867,0.0312,-0.2297,0.2297,334.7344
13:58:23:438,-3.1914,0.1723,9.4424,47.4524,0.0354,-0.226,0.2425,334.6094
13:58:23:455,-3.0885,0.4262,9.4591,47.22,0.0269,-0.0678,0.2474,334.7812
13:58:23:473,-2.9183,0.5841,9.3873,47.0869,0.0128,-0.0024,0.2034,334.8125
13:58:23:493,-2.9518,0.4454,9.8157,47.0455,-0.0128,-0.2205,0.1075,334.9219
13:58:23:515,-3.0811,0.1507,10.8476,46.7837,-0.0159,-0.5815,0.0501,334.5625
13:58:23:539,-2.7891,0.1077,11.7526,46.5657,0.0397,-0.7684,0.11,334.5625
13:58:23:554,-2.1356,0.4549,11.8914,46.2863,0.1234,-0.6817,0.2059,334.375
13:58:23:574,-1.3334,0.8115,11.2881,45.9806,0.149,-0.4068,0.1747,334.375
13:58:23:594,-0.9147,0.7516,10.6944,45.8878,0.0556,-0.1949,-0.0562,334.2812
13:58:23:616,-1.0606,0.1962,10.8332,45.2318,-0.1246,-0.3176,-0.3439,334.2812
13:58:23:638,-1.3789,-0.7516,12.1167,44.5349,-0.3237,-0.6701,-0.5064,333.9375
13:58:23:656,-1.4246,-1.6232,13.6343,44.1023,-0.4478,-0.9578,-0.4471,333.9062
13:58:23:675,-0.874,-1.9825,13.5864,43.5781,-0.4514,-0.9218,-0.1918,333.9062
13:58:23:693,-0.012,-1.7118,11.9536,43.1428,-0.4184,-0.5388,0.077,333.4688
13:58:23:714,0.4573,-0.9577,10.2491,42.5948,-0.4319,0.0147,0.1796,332.9375
13:58:23:740,0.5913,-0.3209,9.4089,42.2099,-0.4649,0.5217,0.1014,332.9375
13:58:23:756,0.498,-0.1388,9.2124,42.0949,-0.4374,0.733,-0.1045,332.4375
13:58:23:775,0.1316,-0.5387,9.0473,42.1551,-0.3244,0.4404,-0.3628,332.4375
13:58:23:794,-0.6296,-1.0439,9.2988,42.2899,-0.1759,-0.1759,-0.5327,332.2344
13:58:23:813,-1.0845,-1.185,8.997,41.9164,-0.077,-0.3079,-0.4991,332.2188
13:58:23:839,-1.0893,-0.874,8.3985,42.1247,-0.0409,0.0086,-0.339,331.8438
13:58:23:859,-1.1874,-0.285,7.4312,42.0588,-0.0165,0.3366,-0.201,331.8125
13:58:23:878,-1.5203,-0.1316,7.4767,42.1893,0.0122,0.2193,-0.2193,331.6875
13:58:23:893,-1.6208,-0.1819,7.5894,42.1802,0.0647,0.1539,-0.2236,331.6719
13:58:23:915,-1.6711,-0.1364,7.7019,41.9197,0.1515,0.1081,-0.1961,332.4219
13:58:23:938,-1.6615,0.122,7.8814,42.0095,0.2596,0.1045,-0.1582,332.5
13:58:23:955,-1.6304,0.3808,8.1784,41.9169,0.383,0.1521,-0.1283,332.9375
13:58:23:974,-1.5945,0.5698,8.499,42.2441,0.5162,0.1881,-0.1381,332.9844
13:58:23:995,-1.6472,0.7277,8.93,42.453,0.6237,0.149,-0.1961,332.625
13:58:24:015,-1.9896,0.6344,9.6123,42.7734,0.6744,0.0647,-0.27,332.5938
13:58:24:038,-2.4132,0.376,10.2802,42.8988,0.6628,-0.0049,-0.2773,332.5938
13:58:24:055,-2.7341,0.213,10.5652,43.2319,0.5553,0.0562,-0.1515,333.5469
13:58:24:074,-2.9279,0.4454,10.4456,43.8747,0.3005,0.3079,0.1075,333.5469
13:58:24:094,-2.7676,0.7923,10.3352,43.9724,-0.0281,0.5369,0.3744,334.4219
13:58:24:114,-2.5546,0.8692,10.6944,44.2841,-0.3054,0.4991,0.5003,334.4219
13:58:24:133,-2.2839,0.5865,11.2834,44.4363,-0.4478,0.2559,0.4893,334.9062
13:58:24:155,-2.0255,0.2776,12.0111,44.5314,-0.4551,0.0061,0.4019,334.9531
13:58:24:175,-1.8529,0.419,12.7391,44.7434,-0.3561,-0.1264,0.2963,335.4844
13:58:24:193,-1.5754,0.6846,13.2993,44.9542,-0.2101,-0.0819,0.1539,335.4844
13:58:24:214,-1.3741,0.376,13.9074,45.0004,-0.0568,-0.1026,-0.0721,335.9531
13:58:24:240,-1.6328,-0.9075,14.2974,44.8628,0.1142,-0.3219,-0.2987,335.9531
13:58:24:256,-1.7118,-2.1978,13.4668,44.756,0.3183,-0.3818,-0.2938,336.375
13:58:24:275,-1.5299,-2.6408,11.5875,44.9529,0.5186,-0.0434,-0.0092,336.375
13:58:24:294,-1.0845,-2.2026,9.6625,45.3054,0.6176,0.5082,0.2963,337
13:58:24:314,-0.9051,-1.1874,8.6665,45.2687,0.5895,0.7709,0.3989,337.0625
13:58:24:339,-0.984,-0.2704,9.1047,45.2531,0.5559,0.2847,0.2926,337.6406
13:58:24:357,-0.8282,-0.0072,10.1031,45.5185,0.5638,-0.4612,0.1026,337.6875
13:58:24:377,-0.7875,-0.1866,10.1773,45.4837,0.5308,-0.6402,-0.0696,337.2969
13:58:24:394,-1.0845,-0.4454,9.3323,45.4926,0.27,-0.1637,-0.1466,337.25
13:58:24:415,-1.6759,-0.3832,8.3961,45.8572,0.1069,-0.0134,-0.025,336.2188
13:58:24:439,-2.0566,0.2225,7.7091,45.7924,0.0012,0.0055,0.1454,336.1094
13:58:24:504,-1.6017,0.4645,7.4647,45.5865,-0.0415,0.0171,0.2847,335.2969
13:58:24:505,-1.2473,0.6511,6.9404,45.5676,-0.0593,0.0483,0.3299,335.2188
13:58:24:505,-1.2975,0.917,6.6245,45.5632,-0.0861,0.0641,0.2847,335.0781
13:58:24:515,-1.4557,1.2305,6.5982,45.3981,-0.1057,0.0641,0.2101,335.6719
13:58:24:537,-1.6639,1.398,6.9188,45.4673,-0.0941,0.0635,0.1301,335.6719
13:58:24:554,-1.6113,1.3525,7.302,45.57,-0.0556,0.036,0.0232,335.5938
13:58:24:573,-1.7213,0.9912,7.8933,45.7629,-0.0531,-0.0696,-0.1368,335.5938
13:58:24:594,-2.2265,0.5985,8.8176,45.8964,-0.1063,-0.2327,-0.284,335.0469
13:58:24:615,-2.8681,0.3401,9.775,46.024,-0.1674,-0.2804,-0.3024,335.0469
13:58:24:633,-3.1101,0.352,10.2586,46.2622,-0.1906,-0.1185,-0.1588,335.1094
13:58:24:656,-3.0308,0.7349,10.4288,46.3914,-0.1558,0.08,0.0495,335.125
13:58:24:675,-2.8011,1.3119,10.328,46.3941,-0.0544,0.2199,0.226,335.5312
13:58:24:694,-2.6001,1.7812,10.5245,46.5407,0.0751,0.1362,0.2828,335.5312
13:58:24:714,-2.3079,1.5897,11.0943,46.6638,0.1649,-0.1997,0.1906,335.4219
13:58:24:733,-2.3079,0.8644,12.1071,46.6859,0.1423,-0.5375,0.0574,335.4219
13:58:24:754,-2.1739,0.4382,12.4373,46.7816,0.0281,-0.5846,0.0617,334.7344
13:58:24:774,-1.6137,0.5794,11.968,46.7394,-0.1216,-0.3622,0.1814,334.7344
13:58:24:794,-0.8692,0.8234,12.3129,46.5858,-0.2584,-0.3726,0.2071,334.2344
13:58:24:814,-0.1268,0.3999,13.3543,46.5007,-0.3464,-0.6408,0.033,334.1719
13:58:24:834,0.1316,-0.5626,13.9672,46.5285,-0.3763,-0.6958,-0.2223,334
13:58:24:858,-0.012,-2.1476,12.7391,46.6596,-0.19,-0.08,-0.4166,333.9844
13:58:24:877,0.2441,-1.7764,10.8811,46.3549,0.0342,0.2486,-0.3005,334.375
13:58:24:895,0.6751,-0.8788,9.3634,46.2395,0.1888,0.5944,-0.2138,334.4062
13:58:24:915,1.0295,-0.1938,8.645,46.1184,0.1881,0.8753,-0.2804,334.8125
13:58:24:934,0.6224,-0.2297,8.6545,46.0845,0.1234,0.5736,-0.5101,334.8594
13:58:24:956,0.1579,-0.6488,8.9204,46.248,0.0483,-0.1038,-0.7538,334.5781
13:58:24:973,-0.754,-0.9075,8.5588,46.5805,-0.1124,-0.1863,-0.8479,334.5469
13:58:24:995,-1.7812,-0.7277,7.678,46.7925,-0.3256,0.284,-0.6976,334.0938
13:58:25:014,-2.5065,-0.1077,6.7872,46.9251,-0.4917,0.6225,-0.3586,333.9219
13:58:25:034,-2.1236,0.419,6.3443,47.3297,-0.5907,0.507,0.0043,333.9219
13:58:25:056,-1.3669,0.7301,6.8112,47.7612,-0.6432,0.1338,0.1839,333.4219
13:58:25:074,-1.3095,0.8402,7.7234,48.0036,-0.6133,-0.1326,0.1521,333.4219
13:58:25:095,-1.343,0.7732,8.0991,48.186,-0.4887,-0.1509,0.0495,333.4219
13:58:25:115,-1.386,0.6153,7.989,48.5203,-0.3445,-0.0434,-0.0318,333.5156
13:58:25:133,-1.5586,0.6511,8.1326,48.4349,-0.2449,0.0519,-0.0538,333.5156
13:58:25:156,-1.6328,0.7158,8.6641,48.6329,-0.1613,0.0935,-0.0263,334.3438
13:58:25:175,-1.829,0.6535,9.5405,48.7431,-0.055,0.1051,0.022,334.3438
13:58:25:194,-1.9487,0.5435,10.1055,49.0265,0.1014,0.1063,0.0812,334.9688
13:58:25:215,-1.8266,0.2946,10.0744,48.9425,0.2498,0.0605,0.1155,335.9375
13:58:25:234,-2.1117,0.0694,10.1127,49.205,0.2682,0.0049,0.1289,335.9375
13:58:25:256,-2.461,0.1723,10.3352,49.3677,0.1716,0.0287,0.2126,337.6719
13:58:25:275,-2.3797,0.3999,10.5796,49.484,0.0226,0.1454,0.3427,337.6719
13:58:25:295,-2.1811,0.4095,10.6849,49.9351,-0.1203,0.2804,0.4197,338.7969
13:58:25:315,-2.0758,0.1125,10.9217,50.0067,-0.2248,0.3189,0.3744,338.7969
13:58:25:335,-1.9343,-0.3138,11.4628,50.2814,-0.2669,0.182,0.2443,338.5312
13:58:25:358,-1.331,-0.7995,13.5314,50.4501,-0.2162,-0.157,-0.0568,338.5
13:58:25:376,-1.6304,-1.4414,14.7332,50.6212,-0.1497,-0.3219,-0.2162,338.1562
13:58:25:395,-2.0566,-2.5259,15.3556,50.7701,-0.0073,-0.4642,-0.2663,338.125
13:58:25:416,-1.7596,-3.2656,14.0701,50.9408,0.2346,-0.4245,-0.08,338.1406
13:58:25:434,-1.4438,-3.0476,11.4628,50.9206,0.4734,-0.1283,0.281,338.1406
13:58:25:456,-1.0606,-2.3151,8.8128,50.8673,0.5449,0.3152,0.5882,338.125
13:58:25:474,-0.6535,-1.4174,7.2206,51.2609,0.4025,0.6787,0.6542,338.125
13:58:25:494,-0.7205,-0.5554,7.0531,51.4387,0.1723,0.6487,0.4685,338
13:58:25:514,-0.9673,-0.1914,8.2167,51.6988,0.0195,-0.0464,0.1704,337.6875
13:58:25:533,-0.8019,-0.4693,9.7343,51.8062,-0.0507,-0.7116,-0.0898,337.6875
13:58:25:555,-1.0295,-0.9864,10.4958,51.7016,-0.091,-0.6982,-0.2498,336.9219
13:58:25:574,-1.6161,-1.2927,10.2251,51.901,-0.0831,-0.303,-0.2645,336.9219
13:58:25:593,-2.272,-1.2209,9.0903,52.0806,-0.0348,0.1093,-0.1155,336.8438
13:58:25:615,-2.3916,-0.8402,7.8144,52.1168,0.0275,0.3372,0.1344,336.1406
13:58:25:634,-2.0351,-0.2704,6.9954,52.0772,0.0922,0.2944,0.3604,336.125
13:58:25:657,-1.5945,0.2898,6.8566,51.8484,0.1405,0.1209,0.4526,336.0156
13:58:25:674,-1.343,0.6823,7.0771,51.6353,0.1723,-0.0098,0.4087,336.0156
13:58:25:694,-1.2664,0.862,7.2733,51.8089,0.1997,-0.0556,0.2944,336.4531
13:58:25:715,-1.4892,0.862,7.4671,52.0911,0.2107,-0.0941,0.1558,336.2656
13:58:25:734,-1.8266,0.7756,7.7761,52.2161,0.1857,-0.16,0.0544,336.2656
13:58:25:756,-1.8601,0.8091,8.1664,52.3126,0.1203,-0.2181,0.0238,335.1094
13:58:25:776,-1.6639,1.008,8.7051,52.6809,0.0434,-0.2535,0.0018,335.1094
13:58:25:794,-1.7094,1.0893,9.2578,52.8271,-0.0153,-0.2358,-0.0709,334.4688
13:58:25:815,-2.1117,0.8572,9.6434,52.9994,-0.0483,-0.1967,-0.16,334.4688
13:58:25:835,-2.5546,0.4789,10.0552,53.1992,-0.0702,-0.2291,-0.1894,334.6875
13:58:25:855,-2.6504,0.1651,10.9193,53.0521,-0.0782,-0.3592,-0.1448,334.7188
13:58:25:876,-2.3151,0.0861,12.0879,53.0358,-0.0421,-0.4856,-0.0556,335.0781
13:58:25:894,-1.5969,0.1579,12.9832,53.0025,0.0458,-0.4526,0.0189,335.1094
13:58:25:916,-1.008,0.285,13.177,53.2469,0.1527,-0.2798,0.0318,334.6719
13:58:25:934,-0.3951,0.6057,12.5187,53.1402,0.2413,0.0421,-0.0226,334.625
13:58:25:955,-0.1029,0.5483,13.165,53.2514,0.1918,-0.1295,-0.1594,333.8125
13:58:25:977,-0.1172,-0.3042,13.8787,53.2167,0.102,-0.3415,-0.3757,333.7344
13:58:25:993,-0.5961,-1.6448,13.6271,53.2548,0.0257,-0.2822,-0.4905,333.3125
13:58:26:015,-0.6966,-2.1906,12.0206,53.5753,0.0147,0.0336,-0.3341,333.2188
13:58:26:033,-0.1914,-1.5132,9.871,53.77,0.0269,0.4349,-0.0232,333.2188
13:58:26:058,0.443,-0.5267,8.2382,54.0632,0.0043,0.6444,0.1368,333.2031
13:58:26:075,0.8234,0.0718,8.068,54.0785,-0.0483,0.4447,0.0104,333.25
13:58:26:094,0.7445,-0.2273,9.4304,54.2505,-0.0806,-0.0727,-0.3549,333.2656
13:58:26:115,0.0455,-1.2664,10.4719,54.5354,-0.0611,-0.4453,-0.752,333.6094
13:58:26:134,-1.0223,-2.0088,9.95,55.0069,-0.044,-0.2376,-0.8802,333.6094
13:58:26:158,-2.071,-1.774,8.4344,55.3411,-0.0519,0.2633,-0.6536,333.7656
13:58:26:173,-2.3222,-0.9529,6.9954,55.414,-0.0715,0.5644,-0.2547,333.7656
13:58:26:194,-1.841,-0.0909,6.4786,55.816,-0.0666,0.3842,0.0489,333.6875
13:58:26:214,-1.4342,0.5195,6.7274,55.9628,-0.0464,0.1087,0.1307,333.75
13:58:26:234,-1.2879,0.8668,6.9954,56.2052,-0.0055,0.0128,0.0702,333.75
13:58:26:258,-1.4028,0.9864,7.1584,56.2876,0.0348,-0.011,-0.0354,334.3281
13:58:26:275,-1.5371,0.984,7.4958,56.211,0.0354,-0.0483,-0.1209,334.3281
13:58:26:294,-1.5586,0.9003,8.068,56.1746,-0.0147,-0.0825,-0.1735,335.2344
13:58:26:314,-1.6878,0.7995,8.7553,56.2005,-0.102,-0.077,-0.201,335.2344
13:58:26:334,-1.8194,0.6775,9.4304,56.4325,-0.1802,-0.0177,-0.1826,335.1719
13:58:26:356,-2.0112,0.6392,10.0385,56.4248,-0.2065,0.0727,-0.1307,335.1719
13:58:26:375,-2.1117,0.632,10.3807,56.472,-0.179,0.1747,-0.0574,335.5156
13:58:26:395,-2.15,0.6511,10.5126,56.4453,-0.1173,0.2358,0.0336,335.5469
13:58:26:415,-1.6567,1.264,10.4695,56.5867,0.0263,0.2993,0.2101,337.125
13:58:26:436,-1.6017,1.3023,10.5197,56.8189,0.0489,0.3696,0.1417,337.2969
13:58:26:457,-1.9992,0.7134,10.8165,57.1181,0.0513,0.2889,0.0024,338.2344
13:58:26:474,-2.1763,-0.012,11.3384,57.2114,0.0641,0.1038,-0.0617,338.3281
13:58:26:494,-2.0399,-0.364,11.6091,57.2489,0.0733,0.0666,-0.011,338.1719
13:58:26:568,-1.6926,-0.3305,11.3264,57.3173,0.0415,0.179,0.069,338.125
13:58:26:569,-1.6639,-0.3042,11.1613,57.2858,-0.0782,0.273,0.047,338.125
13:58:26:569,-1.8745,-0.7134,11.8651,57.2902,-0.2321,0.0452,-0.0544,338.125
13:58:26:579,-2.0447,-1.6663,13.2275,57.4945,-0.317,-0.3616,-0.0874,338.4062
13:58:26:593,-1.9801,-2.7269,13.6343,57.4569,-0.2614,-0.5186,0.0586,338.4375
13:58:26:613,-1.6424,-3.1268,12.035,57.2494,-0.0971,-0.2474,0.3818,338.8281
13:58:26:633,-1.3621,-2.5666,9.9165,57.2316,0.0507,0.2303,0.7104,338.8281
13:58:26:657,-1.1731,-1.7309,8.3746,57.1434,0.1142,0.4618,0.835,339.0156
13:58:26:674,-0.9314,-0.8716,8.3387,57.0733,0.1246,0.1545,0.7342,339.0156
13:58:26:694,-0.7397,-0.6679,9.6553,57.221,0.1387,-0.5052,0.4673,338.8281
13:58:26:717,-0.9793,-1.0941,10.8595,57.3011,0.1539,-0.9279,0.1991,338.5
13:58:26:734,-1.5108,-1.4318,10.8643,57.1281,0.1356,-0.8283,0.1295,338.5
13:58:26:754,-1.908,-1.2066,9.95,56.9181,0.1142,-0.5327,0.3048,338.5938
13:58:26:777,-1.7955,-0.5076,8.7003,56.913,0.1326,-0.3189,0.5986,338.5938
13:58:26:796,-1.4318,0.3018,7.8742,56.7734,0.1692,-0.1961,0.8228,338.5625
13:58:26:816,-1.0822,0.8692,7.4049,56.9209,0.1973,-0.0861,0.9187,338.5625
13:58:26:833,-0.6368,1.075,7.0843,56.7072,0.2114,-0.0037,0.8906,338.5625
13:58:26:856,-0.3185,1.0965,6.9428,56.3345,0.2004,-0.0073,0.7391,338.5625
13:58:26:877,-0.577,1.1013,7.1728,56.2344,0.1515,-0.0971,0.5021,338.4688
13:58:26:894,-1.2018,1.1013,7.7474,56.0728,0.0977,-0.1949,0.292,338.4531
13:58:26:916,-1.427,1.0822,8.3722,55.9517,0.0605,-0.2449,0.1826,337.3594
13:58:26:935,-1.4004,1.0415,9.1549,55.8227,0.0226,-0.2517,0.1271,337.25
13:58:26:958,-1.3813,0.984,9.8734,55.8199,-0.0165,-0.2333,0.0696,335.75
13:58:26:977,-1.5586,0.8234,10.3977,55.4913,-0.0312,0.0373,-0.011,335.5938
13:58:26:994,-2.2887,0.9003,10.0193,55.5122,-0.0159,0.2651,0.055,334.875
13:58:27:014,-2.1667,1.2855,9.8566,55.8394,-0.0214,0.3598,0.1503,334.8125
13:58:27:033,-1.561,1.6041,10.558,55.6677,-0.033,0.1258,0.1662,334.3281
13:58:27:058,-0.8354,1.4653,12.0159,55.5454,-0.0189,-0.2908,0.0476,334.2812
13:58:27:076,-0.3353,0.9051,13.0908,55.6198,0.0244,-0.5003,-0.1356,332.8594
13:58:27:094,-0.122,0.3568,13.1988,55.3558,0.0403,-0.3311,-0.2712,332.7188
13:58:27:115,-0.1938,0.0957,13.1435,55.334,-0.0183,-0.0428,-0.35,330.9531
13:58:27:134,-0.486,-0.3473,13.2873,55.4976,-0.1368,-0.0079,-0.4172,330.7656
13:58:27:159,-0.7612,-1.2233,13.4213,55.5065,-0.2468,-0.1362,-0.4355,329.4375
13:58:27:175,-0.8716,-2.0949,12.9233,55.4004,-0.2535,-0.1313,-0.3152,329.4219
13:58:27:193,-0.6583,-2.205,11.4724,55.4648,-0.1362,0.1533,-0.0421,328.9062
13:58:27:214,-0.2752,-1.6591,9.4591,55.6114,0.0098,0.5663,0.2456,328.6562
13:58:27:235,0.2417,-0.8043,7.7569,55.5654,0.0867,0.7452,0.3977,328.6562
13:58:27:260,0.632,-0.0646,7.4336,56.0077,0.0715,0.4832,0.3335,328.6562
13:58:27:275,0.6176,-0.0861,8.4416,55.9473,0.0012,-0.0654,0.0641,328.6562
13:58:27:295,0.2249,-0.7205,9.9452,55.9384,-0.0507,-0.6206,-0.259,328.4375
13:58:27:315,-0.4478,-1.3167,10.6035,55.8557,-0.0666,-0.7831,-0.4233,328.4375
13:58:27:335,-1.2209,-1.4988,9.8853,55.6728,-0.0568,-0.5058,-0.3115,328.2031
13:58:27:359,-1.5826,-1.1611,8.6689,55.5409,-0.0489,-0.1118,0.0183,328.2031
13:58:27:375,-1.3956,-0.6248,7.7067,55.5977,-0.0776,0.19,0.3604,328.5781
13:58:27:394,-1.2281,-0.0311,7.1991,55.687,-0.1356,0.3225,0.5492,328.625
13:58:27:416,-0.9769,0.5124,7.0098,55.4293,-0.1991,0.3195,0.5968,329.375
13:58:27:442,-0.7445,0.9984,7.3618,55.1572,-0.328,0.0183,0.4441,329.4531
13:58:27:460,-0.9099,0.9553,7.7761,54.9967,-0.3543,-0.1613,0.369,330.1562
13:58:27:477,-1.075,0.9434,8.286,54.767,-0.35,-0.2046,0.3714,330.2188
13:58:27:493,-1.2305,0.9123,8.9683,54.6565,-0.3445,-0.0965,0.4337,330.0469
13:58:27:515,-1.3454,0.8306,9.5955,54.6117,-0.3213,0.0293,0.5198,330.0312
13:58:27:533,-1.3406,0.8234,10.2993,54.373,-0.212,0.0049,0.6243,329.3594
13:58:27:556,-1.209,0.8501,10.9122,54.1492,-0.0049,-0.1148,0.7348,329.2969
13:58:27:577,-0.8812,0.9458,11.4509,54.0774,0.2248,-0.1069,0.8118,329.4531
13:58:27:593,-0.5435,1.1157,11.5182,53.9269,0.4239,0.0727,0.8136,329.4688
13:58:27:614,-0.3353,1.1898,11.202,53.8532,0.507,0.3647,0.719,330.1406
13:58:27:633,-0.6488,0.941,10.9699,53.7312,0.4514,0.5467,0.5516,330.2031
13:58:27:657,-1.6878,0.376,11.4532,53.5739,0.3396,0.3781,0.4105,329.7812
13:58:27:676,-2.2983,-0.3544,12.0903,53.5835,0.2773,0.0049,0.4447,329.7812
13:58:27:694,-2.3246,-0.6105,12.1549,53.4712,0.2602,-0.1032,0.6744,328.5312
13:58:27:715,-1.6448,-0.5746,12.0278,53.2299,0.19,0.0812,0.9596,327.4062
13:58:27:735,-1.3789,-0.5985,12.0374,52.9322,0.0464,0.2034,1.0525,327.4062
13:58:27:761,-1.4725,-1.0582,11.9178,52.9902,-0.0837,0.0599,0.9639,326.5
13:58:27:775,-1.6711,-1.7357,11.5301,52.7349,-0.1374,-0.2217,0.8827,326.5
13:58:27:794,-1.9992,-2.004,10.9026,52.906,-0.0977,-0.3775,0.9535,325.3906
13:58:27:815,-1.9606,-1.7883,10.2323,52.9402,0.0043,-0.2315,1.1747,325.3906
13:58:27:835,-1.6137,-1.1946,9.7965,52.7002,0.0959,0.0678,1.3818,323.875
13:58:27:860,-1.0104,-0.3784,9.7247,52.2894,0.1429,0.2602,1.4246,323.875
13:58:27:876,-0.7301,0.1484,9.8255,52.2496,0.1692,0.1521,1.2645,322.2969
13:58:27:894,-0.6823,0.0766,9.8157,52.0227,0.1753,-0.1668,0.9676,322.1406
13:58:27:917,-1.3956,-0.4717,9.2459,51.7647,0.0855,-0.4349,0.5162,320.9844
13:58:27:937,-1.6472,-0.2034,8.5445,51.7052,0.0287,-0.1142,0.5797,320.875
13:58:27:960,-1.5036,0.2898,7.7904,51.3837,-0.0043,0.2694,0.7715,320.0781
13:58:27:978,-1.1707,0.7804,7.3403,51.1079,-0.0208,0.4746,0.9444,320
13:58:27:994,-1.0008,1.0678,7.4169,50.9577,-0.011,0.4606,1.0183,318.4219
13:58:28:015,-1.0582,1.2712,7.8072,51.1661,0.0336,0.3806,1.0134,318.25
13:58:28:032,-1.1874,1.4246,7.8598,51.0193,0.0855,0.3885,0.9719,316.25
13:58:28:059,-1.2185,1.5849,7.8263,51.0414,0.1112,0.372,0.915,316.0469
13:58:28:077,-1.1707,1.8577,8.2334,50.8082,0.1326,0.2004,0.8589,314.1719
13:58:28:093,-1.0271,2.1643,8.863,50.4486,0.1552,0.0257,0.7874,313.9844
13:58:28:117,-1.0056,2.2361,9.5596,50.2733,0.1949,-0.0806,0.6811,311.4375
13:58:28:133,-1.3286,1.9896,10.0337,50.2203,0.2511,-0.077,0.5821,311.1875
13:58:28:157,-1.8099,1.6424,10.2969,50.1558,0.2914,0.0806,0.5913,308.25
13:58:28:177,-2.2361,1.5802,10.4886,50.0489,0.2932,0.358,0.7636,308.2344
13:58:28:194,-1.8099,2.2552,10.8739,50.1898,0.2584,0.5852,1.0311,306.4844
13:58:28:216,-1.1587,3.1412,10.8212,50.089,0.2517,0.5223,1.047,305.2812
13:58:28:235,-1.4844,2.8035,11.3145,50.3437,0.2193,0.1289,0.6994,305.2812
13:58:28:260,-1.7429,1.3741,11.9752,50.4475,0.2169,-0.3109,0.4148,303.3906
13:58:28:278,-1.5275,0.3305,11.822,50.5376,0.2865,-0.5107,0.441,303.3906
13:58:28:294,-1.118,0.3855,11.5493,50.4234,0.2761,-0.4801,0.6304,301.1406
13:58:28:315,-0.4813,0.766,11.5517,50.1642,0.1014,-0.361,0.7196,301.1406
13:58:28:335,-0.4621,0.6488,12.277,50.2327,-0.1912,-0.2944,0.5437,299.0781
13:58:28:355,-1.0893,0.0622,13.6798,49.9068,-0.3732,-0.3134,0.2578,299.0781
13:58:28:376,-1.6208,-0.9051,13.9193,49.943,-0.2413,-0.179,0.1087,297.2812
13:58:28:394,-1.9199,-1.573,11.9871,49.8569,0.1081,0.1576,0.2132,297.2812
13:58:28:417,-1.1037,-0.2656,7.9603,49.7744,0.3347,0.463,0.5345,296.0781
13:58:28:436,-0.5889,0.6153,8.0225,49.7789,0.0605,0.1258,0.926,295.9531
13:58:28:460,-0.3712,0.917,8.645,49.6566,-0.1057,-0.2364,0.8417,294.6406
13:58:28:477,-0.3425,1.0175,9.2291,49.8905,-0.1778,-0.4215,0.7129,292.4531
13:58:28:494,-0.486,0.9721,9.1645,49.6547,-0.1466,-0.3586,0.6096,292.4531
13:58:28:516,-0.5506,0.8402,8.2837,49.8566,-0.0586,-0.1509,0.5766,292.25
13:58:28:533,-0.3497,1.2066,7.2422,49.6139,0.0214,-0.0128,0.6622,291.1719
13:58:28:556,-0.2201,1.6974,6.9811,49.4855,0.011,0.0379,0.7061,291.0781
13:58:28:578,0.3473,2.016,6.7178,49.4439,-0.0367,0.1258,0.678,290.125
13:58:28:645,0.7014,2.6575,6.7059,49.4246,-0.0727,0.0721,0.6298,290.0312
13:58:28:646,0.8501,2.9231,7.2446,49.533,-0.1655,0.0116,0.4765,288.7969
13:58:28:646,0.6224,2.7102,7.9053,49.4253,-0.2712,0.0489,0.273,288.6875
13:58:28:654,0.297,2.3964,8.5804,49.3546,-0.3305,0.1301,0.1533,288.2344
13:58:28:672,0.2898,2.3797,9.3945,49.0206,-0.3036,0.1417,0.1637,288.2344
13:58:28:694,0.376,2.581,10.1557,48.9995,-0.193,0.1032,0.2242,287.4219
13:58:28:714,0.297,2.5232,10.6729,48.9611,-0.0623,0.1075,0.2627,285.4844
13:58:28:733,0.1866,2.3055,10.8117,49.1222,0.0409,0.2138,0.3189,285.4844
13:58:28:755,0.1699,2.2935,11.1733,49.0096,0.0922,0.3488,0.4148,283.7969
13:58:28:775,-0.079,2.1763,11.6282,48.962,0.1466,0.4661,0.5015,283.7969
13:58:28:793,-0.6153,1.8386,11.9393,48.9809,0.2621,0.5272,0.5956,282.5
13:58:28:815,-0.7349,1.8673,11.7455,49.118,0.4044,0.5278,0.7678,282.5
13:58:28:834,-0.2512,2.624,11.2834,49.4293,0.4355,0.5241,0.912,281
13:58:28:854,0.1842,3.0045,10.9193,49.6401,0.2309,0.562,0.821,281
13:58:28:877,-1.506,2.648,11.2929,49.9984,-0.16,0.5223,0.5094,279.5312
13:58:28:894,-1.6448,1.4222,12.277,49.8583,-0.5638,0.4435,0.3482,279.5312
13:58:28:915,-1.1276,0.5818,13.6463,49.7068,-0.7336,0.2272,0.2706,278.7344
13:58:28:935,-2.8346,0.0742,12.6553,49.6635,-0.5858,0.0098,0.0776,278.6406
13:58:28:961,-3.1914,-0.1795,11.578,49.6304,-0.4997,0.4862,0.3225,278.25
13:58:28:977,-2.7628,0.0167,8.4894,49.6312,-0.4087,0.529,0.416,278.2031
13:58:28:997,-2.083,0.5506,7.4934,49.6554,-0.3439,0.2718,0.4594,277.6875
13:58:29:016,-1.4677,1.1492,7.3738,49.8064,-0.3036,-0.2682,0.3598,277.6406
13:58:29:034,-1.2185,1.3836,8.3578,49.5809,-0.2608,-0.8943,0.1558,276.875
13:58:29:056,-1.3884,1.2736,9.3012,49.6715,-0.1448,-1.3017,-0.0721,276.8125
13:58:29:077,-1.6137,1.118,10.1868,49.6203,0.047,-1.3757,-0.2297,275.6719
13:58:29:094,-1.628,0.6033,9.859,49.7674,0.2895,-1.0775,-0.2981,275.5625
13:58:29:115,-1.7788,0.51,9.7654,49.5856,0.4197,-0.7446,-0.237,273.8906
13:58:29:133,-1.6519,0.8524,9.8925,49.3744,0.4826,-0.3781,0.0092,273.7188
13:58:29:154,-1.2042,1.1133,9.6194,49.1217,0.5284,0.0947,0.226,272.2969
13:58:29:174,-1.0463,1.4701,9.3323,48.9425,0.5333,0.5259,0.2975,272.1562
13:58:29:193,-1.8027,2.0255,8.7745,48.9356,0.4972,0.9364,0.3329,271.2344
13:58:29:214,-0.9984,1.7213,7.1369,48.8862,0.3573,1.3794,0.5076,270.8125
13:58:29:233,-0.5794,1.9295,7.0196,49.1143,0.0434,1.4795,0.5211,270.8125
13:58:29:255,-1.1085,1.8649,7.2733,49.1995,-0.1979,1.3035,0.4074,269.7969
13:58:29:278,-1.0415,2.059,7.9149,49.4693,-0.2694,0.9431,0.4154,269.7969
13:58:29:294,-2.0327,1.6854,8.08,49.7337,-0.2303,0.5498,0.3769,268.7969
13:58:29:313,-2.4993,1.1898,8.7553,50.0773,-0.1167,0.2291,0.3952,268.7969
13:58:29:334,-2.3031,1.3956,9.4328,50.2017,0.0464,-0.0696,0.5986,268.7812
13:58:29:354,-1.3071,2.193,9.052,50.234,0.0996,0.0086,0.7129,268.7812
13:58:29:377,-1.3238,2.9518,9.1262,50.5244,-0.11,0.2321,0.6047,269.5312
13:58:29:395,-1.6615,2.8442,10.3472,50.6097,-0.4484,0.2804,0.4777,269.5312
13:58:29:414,-1.8027,2.1811,11.956,50.4186,-0.5779,0.0776,0.4068,269.9219
13:58:29:435,-1.7788,1.6783,13.0023,50.5315,-0.369,-0.3506,0.3635,269.9531
13:58:29:458,-0.6057,1.6543,11.9991,50.4676,-0.1668,-0.5223,0.2578,269.4844
13:58:29:477,-0.9793,1.0463,13.2706,50.4866,-0.4954,-0.4245,0.0153,269.4375
13:58:29:496,-2.2983,-0.2704,14.4293,50.3585,-0.6304,-0.2553,-0.2089,268.4844
13:58:29:518,-3.4068,-1.3621,13.285,50.2901,-0.3537,-0.1503,-0.1045,268.3906
13:58:29:535,-2.4251,-1.3143,11.9632,50.1486,0.0421,-0.0586,0.3274,267.2031
13:58:29:555,-1.5084,-0.079,9.3562,49.9624,0.4007,0.1765,0.5711,267.0938
13:58:29:577,-0.6488,0.9482,7.8574,49.9961,0.4624,0.0086,0.5467,266.0938
13:58:29:593,0.431,1.2473,8.1951,49.8249,0.201,-0.3818,0.3683,266
13:58:29:613,0.3233,0.9577,8.9492,49.8583,-0.1222,-0.6023,0.0287,264.9688
13:58:29:632,-0.1579,0.4836,10.1462,49.6989,-0.3415,-0.6744,-0.248,264.875
13:58:29:653,-1.0798,-0.0766,9.5788,49.7452,-0.3335,-0.5461,-0.3842,263.5312
13:58:29:673,-1.5849,-0.8043,8.8295,49.811,-0.3402,-0.3201,-0.2859,263.4062
13:58:29:692,-1.8482,0.1412,8.2932,49.6873,-0.4368,0.124,-0.0415,262.2344
13:58:29:714,-1.7309,0.7828,7.2733,49.5872,-0.4251,0.4569,0.1503,261.4375
13:58:29:733,-1.3908,0.9817,6.6987,49.4737,-0.3806,0.3274,0.2633,261.4375
13:58:29:754,-1.0917,1.142,6.1217,49.4706,-0.4032,0.0745,0.3702,261.125
13:58:29:775,-0.8572,1.4844,6.6437,49.3141,-0.5632,-0.2627,0.4618,261.125
13:58:29:795,-0.6966,1.6089,7.9029,49.1968,-0.7831,-0.4148,0.5064,261.3594
13:58:29:813,-0.5124,1.5419,10.1677,48.9654,-0.9071,-0.2755,0.5204,261.3594
13:58:29:834,-0.4023,1.4725,10.5844,48.6482,-0.7373,0.113,0.5382,260.4375
13:58:29:853,-0.1364,1.6878,11.1924,48.4079,-0.3439,0.1393,0.5437,260.4375
13:58:29:876,0.1962,1.8721,10.9361,48.4907,0.1594,0.1161,0.5198,259.5312
13:58:29:893,0.285,1.8051,10.6035,48.4636,0.5565,0.0354,0.438,259.5312
13:58:29:913,0.3808,1.8673,10.3663,48.2509,0.7239,0.0464,0.3812,259.8281
13:58:29:934,0.2177,1.9753,10.0433,48.1564,0.7074,0.1814,0.3213,259.8281
13:58:29:954,-0.0861,1.9391,10.2251,48.1424,0.5534,0.3115,0.2584,260.4844
13:58:29:976,-0.4023,1.7955,10.6801,48.1868,0.405,0.3256,0.2223,260.5469
13:58:29:993,-0.7516,1.3597,11.4341,48.246,0.3812,0.1521,0.2089,260.3281
13:58:30:016,-1.3119,0.996,11.2331,48.4816,0.5669,-0.0629,0.3464,260.3125
13:58:30:034,-1.1683,1.1013,10.6131,48.5614,0.4416,0.0244,0.4264,259.5781
13:58:30:056,-1.209,1.1563,11.2211,48.8909,0.0935,0.124,0.4166,259.5
13:58:30:076,-1.4581,0.8163,12.4205,49.03,-0.2541,0.2114,0.3396,258.4219
13:58:30:093,-1.8266,0.0933,13.3878,49.0265,-0.3769,0.2144,0.2651,258.3281
13:58:30:113,-1.5012,-0.2106,14.1084,49.2227,-0.1997,0.1619,0.2004,257.1094
13:58:30:132,-3.5456,-0.7445,11.8603,49.4039,0.2486,0.1955,0.146,256.9844
13:58:30:154,-2.6767,-0.6607,9.5429,49.5281,0.5076,0.3018,0.4838,255.8906
13:58:30:172,-2.5594,0.3688,7.3929,49.5005,0.4514,0.3744,0.7403,255.7812
13:58:30:193,-1.573,1.386,6.615,49.4794,0.1655,0.2285,0.8582,255.0156
13:58:30:214,-0.6799,2.0303,7.9555,49.2046,-0.1759,-0.1778,0.7617,254.4844
13:58:30:234,-0.5171,1.8553,9.6506,49.1774,-0.3042,-0.5663,0.4734,254.4844
13:58:30:253,-0.7995,1.1803,10.4049,49.3487,-0.2388,-0.6499,0.1936,254.0625
13:58:30:277,-1.0558,0.7875,9.8231,49.2422,-0.1148,-0.4007,0.0831,254.0625
13:58:30:293,-1.0271,0.8835,8.6163,49.2071,-0.0421,-0.0373,0.1106,253.5469
13:58:30:314,-0.7708,1.2688,7.5823,49.185,-0.0446,0.1997,0.1625,253.5469
13:58:30:334,-0.6344,1.6113,7.2876,49.1265,-0.0556,0.2034,0.1515,252.6719
13:58:30:354,-0.7899,1.6591,7.4815,49.0467,0.0067,0.0464,0.0971,252.6719
13:58:30:377,-1.1109,1.4557,7.5269,49.0736,0.1503,-0.1399,0.0666,251.8906
13:58:30:393,-1.2903,1.4581,7.4791,49.1345,0.2566,-0.2492,0.1136,251.8906
13:58:30:413,-1.0391,1.9032,7.57,49.0237,0.2529,-0.2596,0.2059,251.4844
13:58:30:433,-0.5913,2.4251,7.9005,48.9763,0.1442,-0.1875,0.2395,251.4844
13:58:30:454,-0.1795,2.7987,8.7099,48.7885,-0.0055,-0.1142,0.1778,250.3125
13:58:30:477,-0.0933,2.9207,9.8231,48.806,-0.0745,-0.0947,0.0495,250.2031
13:58:30:493,-0.3185,2.8585,10.5604,48.6607,0.0153,-0.1093,-0.0843,248.5625
13:58:30:514,-0.6296,2.7508,10.1653,48.7235,0.1723,-0.0678,-0.171,248.4062
13:58:30:535,-1.008,2.6312,9.7295,48.8613,0.0647,0.058,-0.2114,247.7812
13:58:30:554,-1.0774,2.2935,10.7064,48.9258,-0.1038,-0.0324,-0.2101,247.7188
13:58:30:577,-1.2544,1.5873,12.2913,48.891,-0.1771,-0.2205,-0.1961,247.5469
13:58:30:593,-1.3669,1.0391,13.1746,48.7741,-0.1264,-0.3128,-0.1075,247.5312
13:58:30:613,-0.9386,0.8354,12.4947,48.7576,-0.0764,-0.223,0.0428,247.1719
13:58:30:633,-0.1819,0.9673,12.2291,48.8876,-0.2248,-0.11,0.1252,247.1406
13:58:30:691,0.1747,0.8931,13.5888,49.1235,-0.471,-0.1087,0.0324,246.9844
13:58:30:691,-0.4286,-0.0431,15.1355,49.0717,-0.5052,-0.1387,-0.1875,246.9688
13:58:30:698,-1.5706,-1.2951,15.0876,48.9372,-0.2236,-0.0116,-0.2969,246.75
13:58:30:713,-2.1236,-1.8864,12.4134,48.8839,0.2083,0.3018,-0.135,246.3125
13:58:30:733,-1.5514,-1.0917,9.2195,49.1328,0.4728,0.5241,0.1979,246.3125
13:58:30:754,-0.2177,-0.0311,7.3499,49.1109,0.4502,0.4502,0.408,246.3594
13:58:30:777,0.8234,0.7875,7.101,49.2041,0.2468,0.1326,0.3372,246.3594
13:58:30:794,0.9434,1.0104,8.4296,49.1,-0.0147,-0.2297,0.0507,246.8125
13:58:30:813,0.3951,0.5411,10.1845,49.131,-0.1668,-0.3848,-0.2755,246.8125
13:58:30:834,-0.5937,0.0909,10.2634,49.0903,-0.1576,-0.1295,-0.474,247.2812
13:58:30:853,-1.4294,0.0048,8.7601,49.285,-0.1539,0.383,-0.4801,247.2812
13:58:30:874,-1.7836,0.285,7.448,49.3051,-0.2407,0.7739,-0.3543,247.6406
13:58:30:893,-1.7692,0.6727,7.1106,49.2598,-0.3201,0.8411,-0.1881,247.6406
13:58:30:913,-1.439,1.1324,7.2374,49.4336,-0.2865,0.6719,-0.0214,247.4688
13:58:30:934,-0.9147,1.6974,7.2446,49.5841,-0.1454,0.4087,0.1087,247.4688
13:58:30:953,-0.4836,2.1571,7.2613,49.5282,-0.0122,0.1613,0.149,247.5625
13:58:30:973,-0.3544,2.3318,7.29,49.3345,0.0305,0.0489,0.1002,247.5781
13:58:30:995,-0.4789,2.3031,7.6851,49.326,-0.0434,0.0965,0.0134,247.9844
13:58:31:014,-1.0391,2.0782,8.2095,49.0019,-0.1668,0.2663,-0.0647,248.0156
13:58:31:035,-2.1212,1.5945,9.253,48.8637,-0.2114,0.4673,0.036,247.4219
13:58:31:057,-2.0734,1.7764,9.4591,48.4985,-0.1289,0.4245,0.2065,247.3594
13:58:31:079,-1.7836,2.083,9.5931,48.3445,-0.0678,0.3549,0.3561,246.9531
13:58:31:095,-1.5012,2.3653,9.9811,48.0106,-0.0483,0.2682,0.4361,246.9531
13:58:31:114,-1.4028,2.3653,10.6753,48.0288,-0.0635,0.1735,0.4416,247.7188
13:58:31:133,-1.6184,2.1165,11.6498,47.8862,-0.0507,0.0709,0.419,247.7969
13:58:31:154,-1.7859,1.7142,12.1741,47.9454,0.036,0.0012,0.4306,248.5
13:58:31:173,-1.5586,1.7166,11.7144,47.7314,0.1435,-0.0024,0.4923,248.5625
13:58:31:193,-0.996,1.9582,11.2594,47.4982,0.1069,0.0367,0.5033,248.5938
13:58:31:215,-0.8429,1.8458,11.6809,47.5889,-0.1209,0.1087,0.3628,248.25
13:58:31:234,-1.3693,1.1587,12.4134,47.3325,-0.3867,0.1997,0.1368,248.25
13:58:31:255,-2.1906,0.2034,13.1028,47.2619,-0.532,0.2321,-0.0263,248.1094
13:58:31:273,-2.9088,-0.7612,13.3711,46.9062,-0.4673,0.1888,-0.047,248.1094
13:58:31:296,-3.2967,-1.3478,12.6096,46.7524,-0.1869,0.1564,0.0898,248.1406
13:58:31:315,-3.0909,-1.2138,10.3953,46.4178,0.1136,0.2327,0.3409,248.1406
13:58:31:335,-2.5161,-0.3305,8.4296,46.3658,0.1564,0.3268,0.5504,247.7812
13:58:31:355,-1.6878,0.5459,7.5293,46.1243,-0.1002,0.3299,0.5736,247.75
13:58:31:381,-0.8668,0.941,7.9651,45.4571,-0.482,0.1716,0.3873,246.9062
13:58:31:396,-0.5865,0.8979,9.5357,45.0331,-0.7575,-0.1081,0.0531,246.8281
13:58:31:416,-1.1133,0.256,10.8978,44.5438,-0.733,-0.3354,-0.2981,245.8281
13:58:31:436,-1.8482,-0.1986,10.6849,44.2534,-0.4325,-0.3616,-0.4642,245.8281
13:58:31:455,-2.4012,-0.8402,8.8056,43.7978,-0.1735,-0.1063,-0.482,244.9375
13:58:31:474,-2.648,-0.8524,7.3403,43.4407,-0.1271,0.2181,-0.3244,244.8438
13:58:31:493,-2.636,-0.3975,6.6221,42.8924,-0.2236,0.4215,-0.0825,243.9688
13:58:31:517,-2.4682,0.079,6.9428,42.6678,-0.3042,0.3989,0.1081,243.875
13:58:31:536,-1.7453,0.778,7.4815,42.6944,0.0128,-0.1075,0.3341,243.5938
13:58:31:558,-1.4677,1.1444,7.3714,42.6391,0.2046,-0.3482,0.3781,243.5781
13:58:31:574,-1.1252,1.5538,7.2733,42.592,0.3066,-0.5443,0.3702,243.4062
13:58:31:593,-0.7995,1.8625,7.6205,42.2266,0.2572,-0.6506,0.2853,243.3906
13:58:31:615,-0.8043,1.9247,8.4631,42.0649,0.069,-0.5815,0.1429,242.5
13:58:31:634,-1.2736,1.7501,9.3562,41.7727,-0.1466,-0.3757,-0.0024,242.4219
13:58:31:655,-1.8099,1.4366,10.2658,41.4233,-0.2676,-0.2028,-0.0764,241.3281
13:58:31:673,-1.8793,1.5156,10.7542,40.9816,-0.2651,-0.0941,-0.0312,241.2188
13:58:31:694,-1.4797,1.9295,10.8787,40.6398,-0.1649,-0.1484,0.0458,241.2656
13:58:31:715,-1.142,1.8912,11.5011,40.377,-0.0647,-0.4007,0.0195,242.2344
13:58:31:735,-1.0965,1.1157,12.9449,40.0444,-0.011,-0.6866,-0.0825,242.2344
13:58:31:756,-1.1252,0.2441,14.4054,39.9358,0.0568,-0.8082,-0.1246,242.5938
13:58:31:773,-0.6559,-0.122,14.2663,39.595,0.1484,-0.6683,-0.0739,242.5938
13:58:31:795,-0.0431,-0.0885,13.6558,39.5002,0.0733,-0.3531,-0.0806,242.0938
13:58:31:815,-0.0287,-0.4071,14.5131,39.4859,-0.1417,-0.1032,-0.2504,242.0938
13:58:31:833,-0.9649,-1.5323,14.8552,39.5538,-0.1234,-0.0165,-0.4728,241.375
13:58:31:855,-2.0925,-2.6384,14.3312,39.7111,0.1814,-0.0605,-0.5229,241.375
13:58:31:874,-1.9152,-2.6336,12.5809,39.8,0.5968,-0.1081,-0.3256,240.7969
13:58:31:895,-0.3568,-1.5132,10.5102,40.1776,0.8411,-0.1845,-0.0904,240.7969
13:58:31:915,0.5698,-0.9529,8.4153,40.4941,0.824,-0.0562,-0.0843,240.6875
13:58:31:935,1.0845,-0.2177,7.9771,40.9653,0.551,0.1301,-0.2028,240.6875
13:58:31:955,0.7732,-0.0239,8.2573,41.4538,0.1991,0.179,-0.3952,240.7344
13:58:31:975,0.2297,-0.1412,9.0592,41.8871,-0.0275,0.1594,-0.5815,240.7344
13:58:31:993,-0.5506,0.0191,9.3945,42.1407,0.0006,0.1545,-0.6469,240.6719
13:58:32:017,-0.6799,-0.0574,6.0284,42.3366,0.2431,0.5039,-0.5211,240.6562
13:58:32:035,-1.4533,0.0694,5.7649,42.6282,0.069,0.4325,-0.4911,240.9375
13:58:32:058,-1.6519,0.2752,5.7362,42.7782,-0.1032,0.4001,-0.3335,240.9531
13:58:32:076,-1.5012,0.6416,5.8798,42.9171,-0.1985,0.2932,-0.1307,241.2031
13:58:32:093,-1.1635,1.1563,6.6078,42.974,-0.2395,0.1026,0.0257,241.2031
13:58:32:115,-0.5387,1.5706,7.5799,42.7532,-0.2193,-0.0403,0.0886,241.8906
13:58:32:133,-0.2752,1.6567,8.056,42.7439,-0.204,0.0421,0.0391,241.9688
13:58:32:155,-0.5506,1.6783,8.645,42.7106,-0.2352,0.2175,-0.0409,242.9062
13:58:32:173,-1.1252,1.5156,9.4304,42.5817,-0.2443,0.2584,-0.0928,242.9844
13:58:32:193,-1.4964,1.3047,10.0409,42.2508,-0.1839,0.2107,-0.0764,243.3438
13:58:32:217,-1.4127,1.398,10.151,41.712,-0.0666,0.1625,0.0189,244.0312
13:58:32:234,-1.5395,1.6759,9.8925,41.2108,0.0397,0.0837,0.1234,244.0312
13:58:32:257,-1.6448,1.9008,9.8351,40.9191,0.0959,-0.1594,0.1857,245.4219
13:58:32:274,-1.4701,1.2736,10.0696,40.6566,0.1936,-0.7587,0.2364,245.4219
13:58:32:294,-0.7445,1.4222,12.6314,40.2932,0.1912,-1.2168,0.3531,246.6094
13:58:32:316,-0.2728,1.5849,13.9624,40.1512,0.201,-0.7978,0.3812,246.6094
13:58:32:335,-0.6009,1.3693,13.3376,39.8041,0.2193,-0.1637,0.2388,247.4531
13:58:32:356,-1.2401,0.7349,11.8005,39.73,0.0855,0.2511,0.0831,247.4531
13:58:32:375,-1.8697,0.2994,12.1741,39.6188,-0.1674,0.146,0.0244,247.4688
13:58:32:394,-1.9753,-0.5148,13.6343,39.455,-0.3225,-0.2596,0.011,247.5
13:58:32:415,-1.9223,-1.264,14.6303,39.2179,-0.3561,-0.4416,0.0391,247.2969
13:58:32:436,-2.1308,-1.7189,13.7157,38.9776,-0.2889,-0.1209,0.1411,247.2969
13:58:32:456,-2.2122,-1.6496,11.8053,38.8345,-0.16,0.3433,0.3659,247.3438
13:58:32:474,-1.7907,-0.9721,9.3275,38.3926,-0.0214,0.6609,0.6426,247.3438
13:58:32:494,-0.9553,-0.0215,7.989,38.2255,0.0495,0.5461,0.8149,247.3594
13:58:32:516,-0.0024,0.8477,8.3315,37.875,0.0525,0.0739,0.7324,247.3594
13:58:32:537,0.2512,0.8979,9.7271,37.7728,0.036,-0.4264,0.3433,247.0781
13:58:32:556,-0.4717,-0.0072,10.2467,37.4492,0.0354,-0.5064,-0.0831,247.0469
13:58:32:575,-1.8673,-0.7158,8.2286,37.2937,-0.0134,0.2401,-0.1301,246.5625
13:58:32:594,-1.7142,-0.3066,7.1728,37.2107,-0.0538,0.474,0.1051,246.5625
13:58:32:615,-1.1468,0.4669,6.7155,37.0699,-0.1026,0.5113,0.3128,246.0469
13:58:32:633,-0.9697,1.0343,6.7202,37.1382,-0.1057,0.394,0.3494,246
13:58:32:656,-1.2329,1.0295,7.0074,36.8652,-0.0446,0.1875,0.284,245.8438
13:58:32:674,-1.3645,0.9577,7.3522,36.6926,0.0617,-0.0079,0.2743,245.8281
13:58:32:760,-1.1827,1.2903,7.3762,36.3719,0.1497,-0.124,0.3415,245.75
13:58:32:760,-0.7038,1.9391,7.6708,36.2853,0.1497,-0.1912,0.3757,245.1875
13:58:32:761,-0.4071,2.2696,8.5158,36.0469,0.0635,-0.1942,0.2792,245.1875
13:58:32:761,-0.5794,2.1954,9.3251,35.6384,-0.0098,-0.1393,0.1185,243.4688
13:58:32:773,-0.9099,2.0231,10.0457,35.2765,-0.0098,-0.0959,0.0061,243.4688
13:58:32:795,-1.0989,2.0447,10.7734,34.6495,0.0593,-0.0678,-0.025,242.3125
13:58:32:815,-1.1013,2.3031,10.8476,34.654,0.1668,-0.0031,-0.0226,242.3125
13:58:32:833,-0.9793,2.5137,10.7566,34.4811,0.204,0.0568,-0.0635,242.6719
13:58:32:855,-0.9793,2.3988,11.4509,34.4558,0.113,0.069,-0.1814,242.7031
13:58:32:873,-1.5084,1.6041,12.332,34.5843,0.0055,0.0904,-0.3189,242.7031
13:58:32:898,-2.1284,0.6559,12.8468,34.4745,-0.0257,0.1564,-0.3311,242.6875
13:58:32:914,-1.9657,0.3999,12.1813,34.3124,0.0232,0.2456,-0.1619,241.875
13:58:32:934,-1.5419,0.2704,11.3384,34.3692,-0.0092,0.2162,-0.0104,241.875
13:58:32:954,-0.9793,-0.1029,12.4205,34.3306,-0.2303,0.0501,0.0165,241.25
13:58:32:974,-0.8931,-0.7564,14.4054,33.9302,-0.4233,-0.0678,-0.0733,241.25
13:58:32:997,-1.506,-1.5969,15.6,33.6703,-0.3488,-0.0385,-0.1845,240.5938
13:58:33:014,-2.138,-2.339,14.6231,33.6374,0.0165,0.1399,-0.168,240.5156
13:58:33:035,-2.0782,-2.0853,11.1589,33.5552,0.4587,0.3561,0.0293,240.1406
13:58:33:056,-0.1388,-0.3018,6.7274,33.3068,0.5827,0.113,0.2792,240.1094
13:58:33:075,0.4884,0.1723,7.2637,33.4347,0.2975,-0.2309,0.1252,240.1406
13:58:33:098,0.3066,-0.0407,9.1932,33.3865,-0.0238,-0.3812,-0.1246,240.1406
13:58:33:113,-0.3664,-0.4334,9.8207,33.7156,-0.1619,-0.1454,-0.2987,240.2656
13:58:33:132,-0.9553,-0.3377,8.4655,33.8293,-0.1234,0.2718,-0.3054,240.2812
13:58:33:153,-1.13,0.1842,6.6245,33.8984,-0.0733,0.5308,-0.215,240.7812
13:58:33:172,-1.2233,0.6392,5.8152,33.7517,-0.0886,0.5064,-0.1423,240.8281
13:58:33:194,-1.2784,0.8931,6.1744,33.6409,-0.1362,0.3299,-0.1081,241.2969
13:58:33:215,-1.3334,0.9697,6.8542,33.5492,-0.1729,0.2193,-0.0941,241.2969
13:58:33:233,-1.276,1.2233,7.0603,33.3969,-0.1833,0.2425,-0.0709,241.2969
13:58:33:253,-1.1755,1.5323,7.4169,33.1907,-0.2278,0.3054,-0.0727,241.4844
13:58:33:273,-0.7253,1.9128,8.4272,32.9039,-0.2633,0.2999,-0.102,241.4844
13:58:33:293,-0.4358,2.4084,9.5955,32.7781,-0.1759,0.2181,-0.1833,241.6562
13:58:33:315,-0.8091,2.3892,9.6123,32.6737,-0.0116,0.2474,-0.3219,241.6562
13:58:33:334,-1.5036,2.2193,9.1214,32.7162,0.0348,0.3867,-0.4062,241.6719
13:58:33:354,-2.0088,1.963,9.6386,32.5353,-0.0666,0.4618,-0.3964,241.2344
13:58:33:373,-2.6097,1.5706,10.8954,32.5741,-0.1209,0.4013,-0.3146,241.2344
13:58:33:398,-3.0787,1.2329,11.767,32.464,-0.0086,0.2712,-0.1527,241.3125
13:58:33:416,-3.0212,1.2927,11.9154,32.3913,0.2004,0.1405,0.0874,241.9219
13:58:33:435,-2.6791,1.2616,12.1502,32.1649,0.3567,0.0238,0.3066,241.9219
13:58:33:455,-2.3366,1.0343,12.588,31.9414,0.4355,-0.0556,0.4575,242.2188
13:58:33:474,-2.2983,0.9434,12.6482,31.8285,0.471,-0.0709,0.5314,242.2188
13:58:33:498,-2.5208,0.754,12.3559,31.6526,0.4001,0.0226,0.5437,242.3594
13:58:33:517,-2.6527,0.7229,11.8053,31.5119,0.2254,0.171,0.5479,242.3594
13:58:33:537,-2.916,0.5004,11.9345,31.4704,0.0018,0.226,0.5394,242.4219
13:58:33:557,-3.0763,-0.1771,12.1334,31.2513,0.0012,0.0745,0.609,242.4219
13:58:33:575,-3.0021,-0.012,10.8117,31.106,0.2517,0.0269,0.6896,242.6094
13:58:33:596,-2.557,0.6775,8.3961,30.8422,0.4276,0.0727,0.7458,242.625
13:58:33:617,-1.7836,1.5682,6.6461,30.957,0.306,0.077,0.6799,243.3281
13:58:33:636,-0.8764,2.1284,6.9954,30.7869,-0.1057,-0.0183,0.427,243.3906
13:58:33:654,-0.5602,1.6376,9.0353,30.2847,-0.5528,-0.1417,-0.0128,244.0312
13:58:33:673,-1.1037,0.7397,10.7853,30.0068,-0.8253,-0.0757,-0.4807,244.0938
13:58:33:698,-1.9558,-0.256,10.8739,29.6645,-0.8876,0.2975,-0.791,244.1719
13:58:33:715,-2.6312,-0.687,9.4711,29.4544,-0.7739,0.7422,-0.8399,243.5625
13:58:33:733,-3.0523,-0.6009,7.721,29.0957,-0.576,0.9847,-0.6841,243.5625
13:58:33:756,-3.3422,-0.644,6.4041,28.8126,-0.3653,0.9163,-0.4331,242.5781
13:58:33:773,-2.9542,-0.3616,5.7003,28.291,-0.1704,0.5681,-0.1179,242.5781
13:58:33:794,-2.1882,0.4334,5.8774,27.9342,-0.047,0.1332,0.1478,242.4844
13:58:33:815,-1.8793,0.917,6.6293,27.8328,0.0061,-0.19,0.2504,241.2969
13:58:33:833,-1.8458,1.118,7.4862,27.5785,0.0568,-0.3757,0.2621,241.2812
13:58:33:855,-1.7692,1.3023,7.8359,27.4902,0.1057,-0.405,0.2535,239.9844
13:58:33:874,-1.9128,1.4028,8.0752,27.1407,0.0983,-0.3464,0.2169,239.9688
13:58:33:897,-2.3988,1.319,8.7218,26.9691,0.0342,-0.3005,0.1582,238.5156
13:58:33:913,-3.0021,1.1085,9.7798,26.8314,-0.0024,-0.2877,0.1356,237.3281
13:58:33:934,-3.347,1.1085,10.2754,26.6984,0.0788,-0.2694,0.1888,237.3281
13:58:33:954,-3.3781,1.427,9.8518,26.5689,0.193,-0.2022,0.284,237.625
13:58:33:975,-3.256,1.7979,9.8037,26.265,0.1613,-0.1234,0.3488,237.625
13:58:33:993,-3.2393,1.7668,10.3639,26.1687,0.0147,-0.0898,0.3439,239
13:58:34:013,-3.347,1.0893,11.7383,25.9147,-0.0568,-0.2346,0.3183,239
13:58:34:035,-3.122,0.4836,12.8157,25.7974,0.0043,-0.3934,0.3525,239.8438
13:58:34:055,-2.016,0.5985,12.2698,25.4923,0.0935,-0.3812,0.4178,239.9219
13:58:34:075,-0.8429,1.051,11.4652,25.3812,-0.0373,-0.2718,0.3219,239.8281
13:58:34:093,-0.6344,0.7325,12.5665,25.0646,-0.3916,-0.204,-0.0122,239.8125
13:58:34:118,-2.7604,-2.1308,14.4317,24.8076,-0.4459,0.0263,-0.6121,239.3594
13:58:34:137,-3.3326,-2.9016,12.2913,24.7318,0.0073,0.1649,-0.4581,239.2969
13:58:34:155,-2.2863,-2.1858,9.1262,24.5392,0.3073,0.2419,-0.0819,238.9062
13:58:34:173,-0.6033,-0.9458,8.1278,24.4262,0.171,0.1643,0.1319,238.875
13:58:34:193,0.1699,-0.5291,9.3491,24.2823,-0.1356,-0.0067,0.0037,238.6094
13:58:34:219,-0.2225,-0.766,10.7375,24.2529,-0.2737,-0.091,-0.2737,238.1875
13:58:34:233,-1.0869,-0.9936,10.6514,24.2536,-0.1863,0.0513,-0.4545,238.1875
13:58:34:255,-1.7501,-0.941,9.0114,24.3599,-0.0147,0.3317,-0.4551,237.5
13:58:34:273,-1.9128,-0.498,6.7944,24.4063,0.0605,0.5803,-0.3292,237.5
13:58:34:294,-1.8242,0.134,5.8008,24.334,-0.0263,0.6359,-0.1918,237.4375
13:58:34:315,-1.7261,0.644,6.0021,24.3102,-0.1136,0.4691,-0.1093,236.7344
13:58:34:334,-1.695,0.9386,6.4448,24.3091,-0.0776,0.1869,-0.0721,236.7344
13:58:34:354,-1.6089,1.2329,6.8662,24.5905,0.025,-0.0757,-0.0483,235.9844
13:58:34:373,-1.4222,1.6328,7.1919,24.5962,0.0867,-0.2169,-0.0379,235.9688
13:58:34:393,-1.3023,1.9558,7.7091,24.6842,0.0629,-0.2169,-0.0647,236.2969
13:58:34:415,-1.3071,2.0997,8.5445,24.672,-0,-0.1393,-0.1264,237.375
13:58:34:433,-1.494,2.1308,9.3227,24.7687,-0.0147,-0.0709,-0.1942,237.375
13:58:34:455,-1.9032,2.0112,9.8853,24.7773,0.0354,-0.0385,-0.2425,237.3906
13:58:34:474,-2.3318,1.7668,10.5748,24.905,0.1081,-0.0415,-0.2431,237.3906
13:58:34:493,-2.825,1.3645,11.2666,25.0147,0.1924,-0.0208,-0.1851,237.625
13:58:34:513,-3.3182,1.0702,11.6091,24.9644,0.27,0.058,-0.0495,237.625
13:58:34:534,-3.6583,0.7756,11.7861,25.0322,0.3189,0.1179,0.1484,238.4688
13:58:34:555,-3.6535,0.7038,12.0015,25.0606,0.3274,0.1191,0.3702,238.5469
13:58:34:574,-3.3398,0.7229,12.2626,25.0738,0.3537,0.0428,0.5449,239.0312
13:58:34:593,-3.0787,0.7588,11.9536,25.0083,0.3702,0.0354,0.6237,239.0781
13:58:34:616,-3.0165,0.687,11.1565,25.14,-0.0232,0.1888,0.5418,239.2031
13:58:34:636,-3.4116,0.0263,12.332,25.115,-0.2468,-0.0214,0.4148,239.2188
13:58:34:654,-3.9215,-0.9458,13.6319,25.132,-0.2419,-0.295,0.3421,239.3281
13:58:34:675,-4.156,-1.6184,13.4429,24.8288,0.0324,-0.3806,0.4233,239.3438
13:58:34:699,-3.8234,-1.3238,10.6537,24.6182,0.3946,-0.2443,0.6567,239.5625
13:58:34:716,-2.6456,-0.3784,8.0728,24.4365,0.4557,-0.1289,0.8613,240.0312
13:58:34:734,-1.6208,0.3975,7.5413,24.455,0.1918,-0.2059,0.832,240.0312
13:58:34:755,-1.3358,0.4478,8.7051,24.4259,-0.0941,-0.4294,0.6047,240.0781
13:58:34:837,-1.4821,-0.0694,9.5812,24.0711,-0.1973,-0.6102,0.3512,240.5469
13:58:34:837,-1.762,-0.4621,9.6984,23.9806,-0.1576,-0.6536,0.2156,240.6094
13:58:34:838,-1.7142,-0.4765,9.0999,23.7631,-0.0519,-0.5724,0.2346,240.6094
13:58:34:838,-1.3143,-0.0407,8.1206,23.6937,0.0165,-0.3793,0.3292,240.6094
13:58:34:855,-0.7636,0.6296,7.3905,23.7182,-0.0134,-0.1399,0.3977,239.75
13:58:34:873,-0.3353,1.1827,7.1536,23.6177,-0.0861,0.044,0.3732,239.7344
13:58:34:893,-0.4406,1.4079,6.9428,23.1806,-0.1179,0.1197,0.2621,238.4844
13:58:34:915,-0.6823,1.5467,7.0074,22.9335,-0.0861,0.0678,0.1582,237.3594
13:58:34:934,-0.9649,1.7405,7.7713,23.074,-0.0183,-0.0336,0.0892,237.3594
13:58:34:954,-1.2329,1.7142,8.0967,22.9997,0.0849,-0.047,0.0464,236.5312
13:58:34:974,-1.1396,1.9319,7.678,22.9096,0.1637,-0.022,0.055,236.5312
13:58:34:999,-0.7804,2.4921,7.7952,22.7535,0.0996,-0.0128,0.0574,235.0469
13:58:35:014,-0.754,2.7556,9.1597,22.6848,-0.0324,-0.0434,-0.0367,235.0469
13:58:35:034,-0.9912,2.6623,10.716,22.6148,-0.0098,-0.0898,-0.1674,233.5469
13:58:35:055,-1.3119,2.6432,11.2929,22.9989,0.1833,-0.0721,-0.2498,233.5469
13:58:35:074,-1.7477,2.4754,10.6011,23.0098,0.336,0.0709,-0.2932,233.0312
13:58:35:093,-2.4371,1.9391,9.9356,22.8739,0.2443,0.259,-0.2987,232.9844
13:58:35:115,-2.9782,1.252,10.3519,23.0142,0.0024,0.3011,-0.2022,232.4844
13:58:35:135,-2.9375,-0.1268,12.5426,23.0559,-0.135,-0.226,0.2431,232.4531
13:58:35:155,-1.8984,-0.0502,12.6144,23.3963,-0.0391,-0.4771,0.4722,231.6719
13:58:35:174,-0.9362,0.3688,11.9895,23.5049,-0.0757,-0.5131,0.518,231.125
13:58:35:193,-0.6823,0.4932,12.2985,23.5016,-0.3097,-0.4459,0.3525,231.125
13:58:35:220,-1.3502,-0.3449,13.5673,23.3796,-0.5266,-0.3476,0.0684,231.0781
13:58:35:233,-2.4179,-1.5371,14.0414,23.1189,-0.4569,-0.1924,-0.1002,230.9531
13:58:35:256,-3.0643,-2.15,12.2243,23.1299,-0.1264,-0.0031,0.0043,230.9375
13:58:35:274,-2.5137,-1.4342,9.5333,22.9075,0.1533,0.0715,0.3231,230.8594
13:58:35:293,-1.0032,-0.2273,7.8933,22.7559,0.1564,-0.0702,0.5638,230.8594
13:58:35:318,0.3473,0.5483,8.4966,22.5181,-0.0421,-0.383,0.5174,231.0625
13:58:35:334,0.874,0.929,10.0887,22.264,-0.1942,-0.6218,0.2517,231.0781
13:58:35:354,0.7301,0.9577,10.6466,22.1379,-0.1857,-0.5259,-0.077,231.75
13:58:35:373,0.1747,0.9003,9.8133,21.9977,-0.0916,-0.1558,-0.3531,231.7656
13:58:35:393,-0.3544,0.9625,7.8838,22.4135,-0.0379,0.314,-0.5107,232.2812
13:58:35:417,-0.7708,1.0175,6.0954,22.3919,-0.1014,0.6371,-0.5815,232.0156
13:58:35:433,-1.1515,1.1109,5.2741,22.5433,-0.2217,0.6591,-0.5956,232.0156
13:58:35:455,-1.3095,1.142,5.0587,22.6252,-0.2877,0.4313,-0.5485,231.0156
13:58:35:475,-1.2473,1.1133,5.2645,22.7956,-0.2895,0.099,-0.4563,231.0156
13:58:35:493,-1.0463,1.1037,5.8415,23.1023,-0.2902,-0.1625,-0.3378,230.5156
13:58:35:517,-0.766,1.0175,6.9978,23.337,-0.35,-0.2602,-0.2309,230.5156
13:58:35:534,-0.2994,1.1013,8.9731,23.3058,-0.4386,-0.226,-0.1649,230.5469
13:58:35:555,-0.0096,1.3789,10.649,23.3193,-0.4319,-0.0953,-0.1741,230.5469
13:58:35:575,-0.2177,1.3669,11.712,23.3245,-0.3311,0.0898,-0.2743,229.7188
13:58:35:593,-0.7732,0.9769,12.0832,23.3659,-0.1588,0.2792,-0.369,229.625
13:58:35:618,-1.8936,0.5578,11.3264,23.3988,0.1429,0.5895,-0.2443,228.9062
13:58:35:636,-2.2863,0.6583,10.8571,23.3095,0.2181,0.5711,-0.0678,228.8438
13:58:35:657,-2.3916,0.6679,10.9579,23.0506,0.2694,0.317,0.1106,229.2969
13:58:35:676,-2.1428,0.8812,11.7742,23.2677,0.3219,-0.0764,0.2504,230.3281
13:58:35:693,-1.8649,1.1468,12.2219,23.3858,0.369,-0.3085,0.2889,230.3281
13:58:35:714,-1.9729,0.8067,12.0855,23.6049,0.2718,-0.2089,0.1979,230.4375
13:58:35:733,-2.406,0.3353,11.7503,23.9675,-0.0183,0.0874,0.0831,231.4375
13:58:35:756,-2.8801,-0.256,11.9249,23.8798,-0.3415,0.2376,0.0202,231.5312
13:58:35:773,-3.0165,-0.996,12.588,23.8517,-0.4917,0.0623,0.0275,232.2656
13:58:35:794,-2.9734,-1.4318,13.4716,24.1592,-0.4251,-0.2297,0.0983,232.3438
13:58:35:817,-2.837,-1.3525,13.1964,24.3958,-0.1698,-0.2443,0.2266,232.6719
13:58:35:833,-2.5857,-1.0319,10.7662,24.3611,0.1552,0.0312,0.3781,232.7031
13:58:35:854,-2.217,-0.4908,7.7258,24.7215,0.281,0.2908,0.5027,233.0938
13:58:35:874,-1.774,0.0479,6.0404,24.6998,0.0843,0.2883,0.5546,233.1094
13:58:35:893,-1.0941,0.4884,6.7896,24.5306,-0.3005,-0.0116,0.4917,233.8438
13:58:35:916,-0.8931,0.2034,9.1813,24.717,-0.5901,-0.4386,0.2828,234.1875
13:58:35:933,-1.4892,-0.5004,11.3958,24.8632,-0.6157,-0.6811,0.047,234.1875
13:58:35:955,-2.0901,-1.0678,12.1238,24.5499,-0.4355,-0.5382,-0.0342,233.875
13:58:35:974,-2.2217,-1.1228,10.838,24.5409,-0.1264,-0.1869,0.0678,233.875
13:58:35:993,-1.64,-0.4621,8.9659,24.4402,0.1387,0.0837,0.2657,233.4688
13:58:36:019,-0.7756,0.3712,7.7689,24.2773,0.2737,0.1802,0.3916,233.4688
13:58:36:034,-0.1555,1.1061,7.4288,24.1653,0.3659,0.1234,0.3751,233.2812
13:58:36:055,0,1.4677,7.1919,24.3075,0.5009,-0.0208,0.2456,233.2812
13:58:36:076,-0.2177,1.4004,6.7633,24.5393,0.631,-0.1637,0.0831,233
13:58:36:094,-0.4765,1.3262,6.658,24.617,0.6353,-0.2498,-0.0367,233
13:58:36:118,-1.0271,1.3406,7.5245,25.1203,0.5046,-0.2395,-0.0941,232.4219
13:58:36:135,-1.051,1.4318,8.5397,25.3186,0.3299,-0.2223,-0.0953,232.3594
13:58:36:157,-1.0104,1.5706,9.7846,25.6642,0.1478,-0.3567,-0.0055,231.3281
13:58:36:177,-1.0439,1.8147,10.6753,25.9999,0.1802,-0.3103,0.0263,231.2188
13:58:36:193,-1.3143,1.9729,10.6633,26.2622,0.2388,-0.0983,0.0342,230.3438
13:58:36:214,-1.3334,2.059,10.1557,26.5553,0.2181,0.1558,0.0409,230.25
13:58:36:235,-1.3454,2.0279,10.2227,26.7041,0.0611,0.2608,0.0012,230.1562
13:58:36:256,-1.6735,1.2975,11.6593,26.9491,-0.124,0.1521,-0.0916,230.1406
13:58:36:274,-2.0351,0.3616,13.1964,27.0544,-0.1374,-0.0275,-0.1228,229.8125
13:58:36:293,-1.8003,-0.1125,12.5067,27.2705,0.0018,-0.0867,-0.0385,229.7812
13:58:36:318,-1.1085,0.0479,11.7526,27.4558,-0.0556,-0.066,0.0428,229.0781
13:58:36:334,-0.6942,0.1029,12.8133,27.3199,-0.3225,-0.0379,-0.022,229.0156
13:58:36:355,-1.0463,-0.5578,14.2448,27.4776,-0.4508,0.0519,-0.2089,228.8125
13:58:36:373,-1.8386,-1.4821,14.482,27.6557,-0.2798,0.2388,-0.3305,228.8125
13:58:36:395,-2.4849,-1.9705,12.1502,27.5987,0.088,0.4856,-0.2578,229.1406
13:58:36:418,-2.1404,-1.4414,9.2821,27.8647,0.3525,0.5797,-0.0214,229.4062
13:58:36:435,-0.9194,-0.4382,7.5748,27.9877,0.3616,0.3885,0.16,229.4062
13:58:36:456,0.1795,0.4836,7.7234,28.4808,0.2028,-0.0415,0.1179,229.4844
13:58:36:477,0.5291,0.7828,9.1621,28.5788,0.0086,-0.4642,-0.1326,229.4844
13:58:36:494,0.6823,0.5052,10.4671,28.9302,-0.1295,-0.5467,-0.4306,229.4531
13:58:36:514,0.0479,0.1675,10.3639,28.9909,-0.1949,-0.1839,-0.697,229.4531
13:58:36:535,-0.8572,-0.1005,8.8152,29.2578,-0.1942,0.3567,-0.8198,229.5
13:58:36:557,-1.4103,0.0359,7.0074,29.8256,-0.2272,0.7648,-0.777,229.5
13:58:36:575,-1.5538,0.4645,6.2797,30.1514,-0.2816,0.8198,-0.6609,229.6719
13:58:36:594,-1.5778,0.7181,6.5336,30.671,-0.2596,0.5907,-0.562,229.6719
13:58:36:619,-1.5802,0.9266,7.3786,30.8514,-0.1423,0.3024,-0.4795,229.625
13:58:36:634,-1.6376,1.0439,7.867,31.4586,-0.0183,0.1106,-0.3848,229.6094
13:58:36:658,-1.8194,0.9721,8.4464,32.1169,0.0348,0.1167,-0.1888,230.0469
13:58:36:676,-2.15,0.941,8.9611,32.7081,0.0183,0.2358,-0.0593,230.0938
13:58:36:694,-1.9487,1.3406,9.3395,33.0351,0.014,0.3268,0.1136,230.3438
13:58:36:717,-1.4988,1.8984,10.1533,33.1774,0.0409,0.2926,0.2095,230.375
13:58:36:736,-1.1707,2.1595,10.7495,33.2106,0.1448,0.2126,0.1759,230.1406
13:58:36:755,-1.3358,2.1811,10.9289,33.4421,0.2718,0.157,0.0721,230.125
13:58:36:773,-1.8218,1.9367,10.7088,33.8257,0.3421,0.1429,-0.0079,230.75
13:58:36:793,-2.193,1.7477,10.4145,34.184,0.3311,0.102,0.0067,230.8125
13:58:36:818,-2.1547,1.5993,11.0513,34.6827,0.2407,-0.0391,0.0855,232.25
13:58:36:835,-2.1811,1.1779,12.3607,34.8258,0.1955,-0.237,0.1472,232.4062
13:58:36:918,-2.1739,0.7971,12.8252,35.2666,0.2407,-0.2914,0.2052,233.7969
13:58:36:918,-2.0662,0.8186,12.2291,35.6111,0.2327,-0.1124,0.2694,233.8125
13:58:36:918,-1.7836,1.0941,11.6856,36.0843,0.0501,0.1515,0.2895,234.8438
13:58:36:918,-1.8242,0.9673,12.2435,36.4107,-0.1784,0.2449,0.2077,235.5625
13:58:36:935,-2.0638,0.3975,12.909,36.5476,-0.1778,0.0916,0.0861,235.5625
13:58:36:954,-2.5618,-0.2704,12.83,36.6154,0.0935,-0.1619,0.0086,235.8438
13:58:36:975,-3.0858,-0.5315,11.3575,36.5201,0.474,-0.3183,0.0391,235.8438
13:58:36:993,-3.05,-0.1364,8.9779,36.875,0.6896,-0.3372,0.16,235.4531
13:58:37:019,-2.406,0.4836,7.2541,36.8304,0.5314,-0.3268,0.2572,235.4531
13:58:37:034,-1.6208,0.711,7.8503,36.8873,0.0935,-0.4514,0.2199,235.2344
13:58:37:057,-1.1252,0.3999,10.0505,36.797,-0.2559,-0.7184,0.0586,235.2344
13:58:37:075,-1.2879,-0.0718,11.6139,36.6355,-0.2902,-0.9138,-0.1203,235.3438
13:58:37:093,-1.7477,-0.4047,10.9986,36.4294,-0.0702,-0.8833,-0.1723,235.3438
13:58:37:114,-2.2911,-0.2273,9.4687,36.2229,0.1399,-0.6597,-0.047,235.2031
13:58:37:135,-1.7166,0.3018,7.6804,36.1223,0.223,-0.3219,0.2346,235.1875
13:58:37:159,-0.4047,1.4103,6.7872,35.6986,0.1564,-0.1698,0.3897,234.8125
13:58:37:174,-0.3449,1.3908,7.1297,35.4871,0.1484,-0.1888,0.2853,234.7812
13:58:37:194,-0.5841,1.331,6.8877,35.224,0.1888,-0.1423,0.2059,234.2344
13:58:37:219,-0.5865,1.5132,6.67,35.1571,0.2004,-0.0977,0.2022,234.1875
13:58:37:235,-0.2994,1.8601,6.5575,35.0302,0.1484,-0.0739,0.2193,234.0781
13:58:37:256,0.2417,2.2552,7.1249,34.9939,0.0409,-0.1173,0.1918,234.0625
13:58:37:274,0.6176,2.5283,8.2693,35.0399,-0.0538,-0.2169,0.0727,234.0938
13:58:37:293,0.4454,2.3581,9.7893,35.2482,-0.0825,-0.295,-0.1216,234.0938
13:58:37:315,-0.3138,1.8553,10.8715,35.5506,-0.0214,-0.2254,-0.2938,233.7812
13:58:37:335,-1.1755,1.5012,10.6179,35.8753,0.0721,0.0165,-0.3256,233.7656
13:58:37:354,-1.561,1.3478,10.5102,36.0509,0.0348,0.2443,-0.2254,233.8906
13:58:37:373,-1.5969,1.5108,11.2881,36.2057,-0.066,0.2578,-0.0855,233.9062
13:58:37:393,-1.4028,1.6017,12.0736,36.3343,-0.1014,0.0996,0.0049,234.2969
13:58:37:418,-1.1611,1.2951,12.7869,36.6006,-0.0959,-0.0593,0.0458,233.7031
13:58:37:436,-0.821,1.2688,12.3464,36.7724,-0.0702,-0.0874,0.0928,233.7031
13:58:37:455,-0.2874,1.5873,11.767,36.7737,-0.1985,-0.0538,0.1112,233.0469
13:58:37:475,0.3114,1.5921,13.0669,36.8142,-0.4997,-0.1106,0.025,233.0469
13:58:37:494,0.2536,0.9912,15.3054,36.5853,-0.6634,-0.2566,-0.1558,232.6562
13:58:37:521,-0.5267,-0.0933,16.675,36.6616,-0.4777,-0.2902,-0.3097,232.6562
13:58:37:534,-1.2544,-1.1204,15.224,36.7182,0.0073,-0.1167,-0.2755,232.2344
13:58:37:556,-1.2185,-1.1803,11.7526,36.9179,0.4905,0.091,-0.0171,232.2344
13:58:37:574,-0.0742,-0.201,9.0927,36.9465,0.6799,0.0947,0.284,232.3438
13:58:37:593,1.1803,0.6655,7.9412,36.835,0.6261,-0.1503,0.3494,232.3438
13:58:37:614,1.6496,0.7756,7.9077,36.8701,0.4478,-0.4429,0.1484,232.9688
13:58:37:636,1.5156,0.4167,8.0871,36.773,0.2156,-0.532,-0.1356,233.0469
13:58:37:655,1.1587,0.1627,8.1039,36.9726,0.0018,-0.3641,-0.3714,233.2969
13:58:37:675,0.7947,-0.0574,7.6469,37.1681,-0.124,-0.0788,-0.5327,233.3281
13:58:37:695,0.1292,-0.2536,6.2557,37.3658,-0.1991,0.2688,-0.62,233.2656
13:58:37:719,-0.0861,0.2536,6.682,37.4286,-0.2315,0.295,-0.5516,233.25
13:58:37:735,-0.0981,0.6488,6.8303,37.4419,-0.1655,0.347,-0.4765,233.0312
13:58:37:755,-0.1077,0.9266,6.2509,37.9873,-0.0232,0.3708,-0.4435,233.0156
13:58:37:773,0.0766,1.2832,5.8893,38.0816,0.0043,0.3183,-0.4123,233.0781
13:58:37:794,0.1627,1.6184,6.4161,38.5366,-0.1778,0.2651,-0.4203,233.0781
13:58:37:815,0.0311,1.8482,7.9627,38.9659,-0.4215,0.2395,-0.4526,233.6406
13:58:37:836,-0.1675,1.9367,10.139,39.1282,-0.5363,0.2529,-0.4752,233.7031
13:58:37:858,-0.498,1.6496,11.47,39.299,-0.4319,0.2981,-0.4722,233.5312
13:58:37:874,-0.7588,1.5443,12.4684,39.5184,-0.1771,0.3598,-0.3873,233.5156
13:58:37:894,-0.443,2.2863,13.1339,39.9607,0.2236,0.4282,-0.212,233.1406
13:58:37:917,-0.3425,3.2608,12.6168,39.8719,0.6994,0.2779,-0.149,233.8125
13:58:37:936,-0.9147,3.2536,11.2834,40.4228,0.9529,0.0874,-0.2449,233.8125
13:58:37:954,-1.5873,2.7556,11.4748,40.8929,0.7629,0.0171,-0.3024,235.0312
13:58:37:975,-2.1452,2.3486,12.3296,41.483,0.3341,0.2413,-0.2645,235.0312
13:58:37:994,-2.6599,1.6017,12.1765,41.9237,-0.0312,0.5632,-0.1967,236.2188
13:58:38:014,-2.8442,0.9769,12.2052,42.3446,-0.2932,0.6267,-0.0935,236.2188
13:58:38:035,-2.8513,0.3712,13.2132,42.8144,-0.4105,0.3763,-0.0073,237.1562
13:58:38:054,-3.1579,-0.5435,14.1012,43.1054,-0.2743,0.0293,0.0513,237.1562
13:58:38:074,-3.5097,-1.3334,13.8308,43.3672,0.0782,-0.1435,0.1906,238
13:58:38:093,-3.4642,-1.2975,11.0824,43.3548,0.4807,-0.0299,0.4697,238
13:58:38:114,-2.5451,-0.1172,7.7282,43.4582,0.6078,0.1124,0.7776,238.7812
13:58:38:138,-1.2401,1.1228,6.3562,43.0409,0.3464,-0.0183,0.8521,238.8594
13:58:38:156,-0.4597,1.1994,7.2829,42.8936,-0.0941,-0.3464,0.6261,239.5938
13:58:38:175,-0.4119,0.486,9.1837,42.6182,-0.4337,-0.6615,0.295,239.6719
13:58:38:193,-0.7493,0.0455,10.2969,42.1463,-0.5638,-0.6793,0.0672,240.0938
13:58:38:218,-1.2377,0.1053,8.9013,42.0081,-0.394,0.0043,0.0501,240.1406
13:58:38:239,-1.0056,0.6176,7.4001,41.7038,-0.2504,0.2523,0.16,240.8906
13:58:38:253,-0.6823,1.1707,6.3802,41.4718,-0.124,0.2126,0.2144,240.9688
13:58:38:273,-0.5004,1.4653,6.0619,41.0608,-0.0305,-0.0159,0.1778,241.4062
13:58:38:293,-0.4573,1.5347,6.3634,40.944,0.0073,-0.2205,0.1063,241.4375
13:58:38:315,-0.3401,1.7237,6.9188,40.7395,-0.0006,-0.2785,0.0568,241.3594
13:58:38:337,-0.1412,1.9992,7.5676,40.5454,-0.0348,-0.2254,0.0061,241.3438
13:58:38:355,-0.1771,2.1547,7.9675,40.4763,-0.0757,-0.1069,-0.0757,241.0938
13:58:38:374,-0.4478,2.1212,8.5804,39.9994,-0.1289,-0.0067,-0.1704,241.0625
13:58:38:393,-0.917,1.8577,9.3443,39.8892,-0.1515,0.0373,-0.2358,239.8594
13:58:38:414,-1.3645,1.6376,10.218,39.89,-0.0874,0.0006,-0.2187,238.3125
13:58:38:436,-1.5275,1.6639,10.7303,39.9291,0.1038,-0.1289,-0.1063,238.3125
13:58:38:454,-1.4892,1.9944,10.5461,39.9183,0.2999,-0.2425,0.0464,237.9219
13:58:38:474,-1.2305,2.3366,10.5987,39.9037,0.336,-0.358,0.1607,237.9219
13:58:38:494,-0.9649,1.9534,11.8173,39.8722,0.2211,-0.5119,0.1936,237.7812
13:58:38:519,-0.577,1.5156,13.9385,39.8236,0.1368,-0.6518,0.2181,237.7812
13:58:38:535,-0.1364,1.008,14.7356,40.174,0.2376,-0.6145,0.2614,237.2812
13:58:38:555,0.3401,0.6918,13.4022,40.0441,0.4068,-0.4148,0.3225,237.2812
13:58:38:574,1.3717,1.185,11.3743,39.8709,0.4001,-0.2511,0.3934,236.9844
13:58:38:594,2.3605,1.9657,11.0106,39.6138,0.1057,-0.2914,0.2724,236.9844
13:58:38:613,2.1308,1.4581,12.5928,39.4383,-0.2553,-0.4111,-0.1484,236.9531
13:58:38:637,0.821,-0.0837,13.5697,39.2593,-0.3347,-0.4062,-0.5944,236.9531
13:58:38:655,-0.7636,-1.3597,12.9449,39.2792,-0.1368,-0.2065,-0.7648,237.1875
13:58:38:674,-1.9896,-1.7285,10.8595,39.1667,0.0996,0.1509,-0.5999,237.2031
13:58:38:693,-1.7716,-1.0343,8.7601,38.9054,0.2126,0.3439,-0.1692,237.625
13:58:38:716,-0.0383,0.5363,7.9196,39.0474,-0.0385,-0.0702,0.069,237.6719
13:58:38:736,1.3095,1.6663,8.4918,38.9338,-0.215,-0.1405,-0.3189,237.8125
13:58:38:755,1.5586,1.6759,9.5429,38.8742,-0.314,0.1509,-0.7153,237.8281
13:58:38:774,-0.5363,0.6488,9.3467,38.8045,-0.3402,0.6053,-0.9181,237.6094
13:58:38:793,-0.8788,0.4621,8.6282,38.8964,-0.2773,0.9486,-0.8839,237.5938
13:58:38:814,-0.7038,0.8453,7.448,38.8304,-0.1307,1.0665,-0.7385,237.25
13:58:38:838,-0.4406,1.4366,6.8997,38.8825,-0.0202,0.9554,-0.6402,237.2188
13:58:38:859,-0.4597,1.6759,6.7083,39.0711,0.0153,0.8027,-0.6444,236.6406
13:58:38:873,-0.7205,1.6017,6.6365,39.2396,0.0018,0.6933,-0.6628,236.5938
13:58:38:895,-1.0391,1.4797,6.6006,39.6787,-0.0006,0.5626,-0.628,236.5156
13:58:38:915,-1.3525,1.4509,6.8566,39.9591,0.0018,0.3696,-0.5394,238.0312
13:58:38:936,-1.5491,1.4988,7.4504,40.4245,-0.0092,0.1674,-0.4148,238.0312
13:58:38:999,-1.695,1.6759,8.1999,40.6463,-0.0293,0.0171,-0.2822,238.8438
13:58:38:999,-1.9415,1.8314,8.8128,41.0292,-0.069,-0.0476,-0.1692,238.8438
13:58:38:999,-2.2768,1.7668,9.5405,41.2123,-0.1374,-0.0739,-0.0782,238.5938
13:58:39:014,-2.6647,1.5084,10.3232,41.3235,-0.1686,-0.135,0.0287,238.5938
13:58:39:037,-2.8681,1.1922,11.0632,41.4337,-0.1564,-0.2321,0.1839,239.6719
13:58:39:054,-2.5355,0.9458,12.131,41.2876,-0.1515,-0.3402,0.3702,239.6719
13:58:39:075,-2.0901,0.8402,13.2203,41.1732,-0.1374,-0.3598,0.5107,241.4375
13:58:39:094,-1.6974,0.8907,13.6511,40.7938,-0.091,-0.2095,0.5742,241.4375
13:58:39:114,-1.2879,0.9051,12.9832,40.6892,-0.0825,0.0513,0.5418,242.7656
13:58:39:138,-1.1085,0.8186,12.1884,40.2553,-0.2517,0.2205,0.3958,242.7656
13:58:39:156,-1.3908,0.3209,13.0741,40.1254,-0.5284,0.0623,0.1576,243.9531
13:58:39:175,-2.0088,-0.4095,14.2185,39.724,-0.5876,-0.1875,-0.1045,244.0781
13:58:39:193,-2.6145,-1.2353,13.826,39.1935,-0.2975,-0.3018,-0.2724,245.1875
13:58:39:215,-2.9518,-1.6113,11.6952,38.9531,0.1521,-0.1326,-0.1888,245.2969
13:58:39:237,-2.8202,-1.3908,9.1837,38.7946,0.5235,0.0525,0.1277,245.9688
13:58:39:257,-1.1922,0.4932,7.3427,38.5455,0.6628,-0.0531,0.4838,246.0469
13:58:39:273,-0.0359,1.1707,8.4559,38.0653,0.5553,-0.4129,0.6903,246.2969
13:58:39:292,0.2946,1.1922,9.3084,37.9105,-0.0031,-0.7794,0.3195,246.2969
13:58:39:314,-0.1101,0.8812,9.1669,37.3885,-0.2193,-0.482,0.0305,246.0625
13:58:39:337,-0.6727,0.3927,8.6521,37.167,-0.3622,-0.1668,-0.0996,246.0469
13:58:39:354,-1.2162,0.0766,7.8479,36.9929,-0.4306,0.1075,-0.0812,245.1719
13:58:39:373,-1.439,0.0431,7.2326,36.4701,-0.4386,0.2138,0.0421,245.0781
13:58:39:394,-1.3597,0.1507,6.9428,35.9499,-0.3958,0.1655,0.182,243.9531
13:58:39:414,-1.118,0.2874,7.0484,35.5681,-0.3097,0.0061,0.2669,243.0938
13:58:39:439,-0.8764,0.4454,7.503,35.1558,-0.2169,-0.1686,0.303,243.0938
13:58:39:454,-0.5937,0.6583,8.1855,34.8426,-0.1454,-0.2828,0.3311,243.3906
13:58:39:473,-0.2297,0.8883,8.8247,34.6372,-0.0702,-0.2804,0.3586,243.3906
13:58:39:493,0.055,1.1683,9.3251,34.4081,0.0098,-0.1985,0.3525,243.5625
13:58:39:514,0.1723,1.4004,9.7367,34.0523,0.0965,-0.1069,0.3146,243.5625
13:58:39:534,0.1077,1.561,10.0528,33.9122,0.2114,-0.0348,0.2596,242.4844
13:58:39:555,-0.1436,1.6783,10.1151,33.8668,0.3183,0.0696,0.2199,242.4844
13:58:39:574,-0.4238,1.7716,10.0146,33.9485,0.3537,0.1753,0.2309,241.7031
13:58:39:594,-0.6918,1.6735,10.946,34.1364,0.3005,0.1356,0.2706,241.625
13:58:39:614,-0.8282,1.7261,12.2602,34.0111,0.2724,0,0.2993,241.6719
13:58:39:640,-0.8258,1.3645,12.8827,33.9981,0.3433,-0.1881,0.259,241.6719
13:58:39:656,-0.4454,0.7923,12.9425,33.8543,0.3879,-0.3488,0.2376,241.6094
13:58:39:675,0.4047,0.7851,12.9353,33.7988,0.3115,-0.3286,0.2975,241.5938
13:58:39:693,1.1539,1.0104,12.8109,33.6224,0.1704,-0.3073,0.2608,241.0625
13:58:39:715,1.4318,0.9147,13.153,33.2926,0.0024,-0.3677,0.0464,241.0156
13:58:39:740,0.754,-0.0311,13.7686,32.8007,-0.1069,-0.43,-0.2608,240.3594
13:58:39:758,-0.7134,-1.573,12.3488,32.4569,-0.0421,-0.3073,-0.4258,240.2969
13:58:39:777,-0.309,-1.0032,9.8949,32.2995,0.1197,0.0489,-0.3445,239.6094
13:58:39:793,0.7301,0.0215,8.1736,32.3527,0.2382,0.4441,0.0312,239.5312
13:58:39:814,1.3789,0.6607,7.8574,32.3809,0.0812,0.2321,-0.0831,239
13:58:39:837,1.4151,0.6344,8.4296,32.3216,-0.1148,0.033,-0.3549,238.9375
13:58:39:855,0.8548,0.2177,8.7194,32.5211,-0.2828,0.0464,-0.6176,238.5469
13:58:39:873,0.0072,-0.1819,8.5851,32.6123,-0.3983,0.2327,-0.7599,238.5
13:58:39:893,-0.6129,-0.3879,8.3842,32.775,-0.4288,0.4111,-0.741,237.9688
13:58:39:914,-1.1898,-0.4095,7.7306,32.884,-0.372,0.4545,-0.5974,237.5
13:58:39:939,-1.1659,-0.2177,7.8957,33.1024,-0.306,0.3409,-0.3683,237.5
13:58:39:956,-0.8453,0.3592,8.1159,33.1775,-0.1381,0.3091,-0.1497,236.9844
13:58:39:975,-0.4167,1.0702,7.3618,33.303,0.1399,0.306,-0.0147,236.9844
13:58:39:993,-0.0622,1.5323,6.3323,33.6441,0.2633,0.2456,0.0049,237.2812
13:58:40:014,-0.0287,1.9463,6.871,33.758,0.099,0.16,-0.0623,237.2812
13:58:40:033,-0.2441,1.896,8.1111,34.1861,-0.1924,0.2779,-0.1784,238.1562
13:58:40:055,-0.6296,1.8888,9.2605,34.7026,-0.3152,0.3818,-0.2248,238.1562
13:58:40:075,-0.6344,1.9223,9.4735,35.1247,-0.1295,0.2792,-0.1698,238.2188
13:58:40:093,-0.4645,2.1595,9.3826,35.6096,0.077,0.1148,-0.11,238.2188
13:58:40:114,-0.4406,2.3725,9.8231,35.6605,0.0855,0.0403,-0.1051,238.6562
13:58:40:137,-0.5698,2.26,10.4958,36.0102,-0.0342,0.0733,-0.1423,238.6562
13:58:40:155,-0.7564,1.9848,11.4197,36.2558,-0.149,0.1014,-0.1649,240.0781
13:58:40:175,-0.9649,1.7883,12.4899,36.5705,-0.1833,0.047,-0.1472,240.0781
13:58:40:193,-1.1803,1.4557,13.4477,36.9462,-0.0983,-0.0672,-0.1161,241.2812
13:58:40:215,-1.4414,1.1946,13.7181,37.0552,0.0684,-0.0489,-0.0586,241.4062
13:58:40:237,-1.3023,0.8955,12.5737,37.0943,0.2089,0.1497,0.0281,241.8281
13:58:40:256,-1.4509,0.6846,12.8324,37.169,0.1332,-0.1179,-0.0458,241.875
13:58:40:275,-2.1021,-0.7516,13.9935,37.4755,0.2639,-0.1698,-0.091,241.9062
13:58:40:293,-2.4323,-1.0941,12.8372,37.8141,0.46,-0.0171,0.0092,241.9062
13:58:40:314,-2.5857,-0.9673,11.1206,38.0816,0.5492,0.2138,0.2559,242.1094
13:58:40:339,-2.3557,-0.4238,9.2797,38.4008,0.5149,0.3799,0.5473,242.125
13:58:40:355,-2.0423,0.2704,7.8431,38.3707,0.4019,0.3366,0.7177,242.4219
13:58:40:373,-1.5826,0.9147,7.2829,38.5183,0.2248,0.0428,0.7361,242.4531
13:58:40:394,-0.8258,1.3669,7.7665,38.6746,0,-0.3451,0.6334,242.6719
13:58:40:414,-0.2154,1.3908,8.8199,38.5851,-0.212,-0.6225,0.4062,242.9688
13:58:40:437,-0.134,0.9864,9.4974,38.3924,-0.3488,-0.6567,0.1069,242.9688
13:58:40:455,-0.6368,0.4645,9.6075,37.9452,-0.3934,-0.4972,-0.1264,243.25
13:58:40:475,-1.2808,-0.0766,8.9204,37.6606,-0.3421,-0.2107,-0.1851,243.25
13:58:40:493,-1.7309,-0.3042,7.8694,37.3829,-0.2211,0.069,-0.0544,243.3125
13:58:40:513,-1.829,-0.1196,6.9715,37.2174,-0.0776,0.2523,0.2101,243.3125
13:58:40:534,-1.5562,0.4573,6.3347,36.9404,0.0397,0.3635,0.5101,243.375
13:58:40:556,-1.0487,1.2353,6.1241,36.8531,0.0898,0.2993,0.6762,243.375
13:58:40:575,-0.4884,1.9247,6.6245,36.528,0.0574,0.047,0.5821,243.375
13:58:40:594,-0.4932,2.2337,7.0508,36.4893,0.011,-0.1643,0.284,243.5938
13:58:40:614,-0.4813,2.0255,7.4408,36.6285,0.0086,-0.3482,0.0354,242.8125
13:58:40:640,-0.1986,2.0949,8.3794,36.5782,0.011,-0.4099,-0.0806,242.8125
13:58:40:656,-0.1579,2.2074,9.0879,36.5066,0.0709,-0.3934,-0.1576,241.2812
13:58:40:675,-0.2082,2.1858,9.6194,36.4761,0.1264,-0.3983,-0.1955,241.2812
13:58:40:694,-0.4358,2.2504,10.0361,36.5519,0.0562,-0.2676,-0.201,240.2969
13:58:40:715,-0.6775,2.2672,10.5006,36.5292,-0.1387,-0.0275,-0.2101,240.2031
13:58:40:740,-1.1587,1.992,11.0991,36.8538,-0.3445,0.1594,-0.2492,240.2188
13:58:40:757,-1.439,0.7493,14.0342,37.1986,-0.383,-0.0312,-0.1692,240.2188
13:58:40:777,-1.6184,0.2704,14.9417,37.1844,-0.1191,-0.1674,-0.0024,240.4062
13:58:40:794,-1.2425,0.4765,13.5888,37.1712,0.1692,0.0116,0.2743,240.4219
13:58:40:815,-0.2369,1.4127,12.3559,37.3032,0.2785,0.044,0.4893,239.6719
13:58:40:837,0.8788,2.138,12.6769,37.4855,0.1381,-0.1515,0.4166,239.5938
13:58:40:856,0.8524,1.1037,14.5849,37.4978,-0.1417,-0.1759,0.055,238.3125
13:58:40:874,-0.6057,-0.8692,13.5649,37.488,-0.1826,0.1038,-0.2425,238.1875
13:58:40:894,-1.5227,-1.6902,12.32,37.4728,-0.1051,0.3555,-0.1185,237.9062
13:58:40:915,-1.3717,-1.1683,10.7351,37.3381,0.088,0.7348,0.2333,238.1875
13:58:40:939,-0.7086,0.1244,7.9531,37.648,0.4184,0.8295,0.4386,238.1875
13:58:40:957,0.376,1.0175,6.44,37.9636,0.4795,0.3457,0.3543,238.7344
13:58:40:973,1.0223,0.7181,7.8215,38.1354,0.182,-0.3121,0.0128,238.7344
13:58:40:994,0.8139,-0.1316,9.8399,38.1372,-0.0941,-0.6341,-0.3793,239.1875
13:58:41:071,0.2154,-0.7636,10.448,38.4683,-0.223,-0.3971,-0.6286,239.1875
13:58:41:072,-0.5052,-1.0391,9.4926,38.818,-0.1906,0.1448,-0.6866,239.1875
13:58:41:072,-1.1468,-0.941,7.4695,39.2085,-0.0764,0.5467,-0.551,239.5312
13:58:41:073,-1.075,-0.2489,5.8944,39.5754,-0.0489,0.6579,-0.3085,239.5312
13:58:41:094,-0.9936,0.6272,5.1712,40.0101,-0.0574,0.5058,-0.1686,239.25
13:58:41:114,-0.8429,1.2544,5.1544,40.2562,-0.0373,0.1374,-0.1387,238.3125
13:58:41:134,-0.5483,1.5275,6.2366,40.7166,-0.0586,-0.2199,-0.1753,238.3125
13:58:41:154,-0.3879,1.4605,7.3307,41.2079,-0.1191,-0.3066,-0.2407,238.4844
13:58:41:174,-0.3832,1.4725,8.0465,41.6541,-0.204,-0.1417,-0.2779,238.4844
13:58:41:193,-0.4717,1.5897,8.6713,42.0694,-0.2932,0.0867,-0.2883,238.2812
13:58:41:214,-0.7612,1.5586,9.2629,42.3226,-0.3256,0.2217,-0.292,238.2656
13:58:41:233,-0.9817,1.4462,9.6697,42.5414,-0.2761,0.2028,-0.2584,237.4844
13:58:41:255,-1.1468,1.3095,10.7351,42.7796,-0.2071,0.0635,-0.1839,237.4062
13:58:41:275,-1.2784,1.1755,11.7407,43.0264,-0.0928,-0.0281,-0.0776,237.8594
13:58:41:295,-0.687,1.8721,11.4413,43.0302,0.0623,0.1014,0.1814,237.9062
13:58:41:315,-0.4454,2.126,12.5258,43.2946,-0.1283,0.1985,0.1698,239.1875
13:58:41:339,-0.821,1.4725,14.1778,43.446,-0.3543,0.3799,0.0464,239.3125
13:58:41:354,-1.5969,0.7397,14.7093,43.5623,-0.2517,0.427,-0.0147,240.0781
13:58:41:373,-1.7596,0.3497,14.0366,43.7546,-0.0122,0.4655,0.0568,240.1562
13:58:41:393,-1.6711,0.1675,13.2395,44.0201,0.1435,0.4142,0.135,240.4062
13:58:41:414,-1.9681,-0.146,13.1124,44.2541,0.1442,0.2865,0.1374,240.8594
13:58:41:434,-2.5331,-0.6751,13.0023,44.5577,0.1826,0.2144,0.1527,240.8594
13:58:41:455,-2.9758,-0.9721,11.9249,45.0054,0.3958,0.1716,0.2743,241.4531
13:58:41:473,-2.8705,-0.6176,9.6075,45.3123,0.6536,0.1435,0.5009,241.4531
13:58:41:493,-2.1667,0.3449,7.3259,45.4375,0.7251,0.0012,0.6896,241.9062
13:58:41:514,-1.2473,1.1779,6.8207,45.612,0.507,-0.3146,0.6664,241.9531
13:58:41:533,-0.6894,1.2114,8.2047,45.5151,0.1637,-0.6597,0.4245,241.9531
13:58:41:556,-0.687,0.486,9.9021,45.5775,-0.1124,-0.755,0.1002,242.2031
13:58:41:573,-1.2042,-0.0766,10.4456,45.2946,-0.2303,-0.5528,-0.124,242.2031
13:58:41:594,-1.7524,-0.3544,9.9595,45.0606,-0.1924,-0.2718,-0.1655,241.9375
13:58:41:616,-1.9848,-0.3329,8.7482,45.0448,-0.077,-0.0415,-0.0379,241.5938
13:58:41:634,-1.6615,0.1316,7.6469,44.7542,0.0238,0.066,0.179,241.5938
13:58:41:657,-1.0175,0.8186,6.8949,44.6338,0.0983,0.0403,0.3512,241.4531
13:58:41:675,-0.4717,1.3884,6.4953,44.4303,0.1381,-0.058,0.3885,241.4531
13:58:41:694,-0.2656,1.6448,6.548,44.3601,0.1148,-0.1448,0.3073,241.1719
13:58:41:715,-0.3975,1.6208,6.7011,44.1106,0.0513,-0.1539,0.1881,241.1719
13:58:41:734,-0.5028,1.6352,6.9236,44.2107,-0.0312,-0.1246,0.1112,240.8125
13:58:41:757,-0.3712,1.7213,7.5509,44.2697,-0.1173,-0.1252,0.0654,240.7656
13:58:41:775,-0.4262,1.6974,9.4926,44.0514,-0.2156,-0.0922,-0.0849,239.7812
13:58:41:794,-0.6655,1.6184,10.1318,43.8714,-0.179,-0.0165,-0.1594,239.6875
13:58:41:817,-1.0774,1.561,10.2802,43.8986,-0.0507,0.0043,-0.1955,238.7812
13:58:41:835,-1.2257,1.5323,10.0887,43.7805,0.0079,0.0305,-0.1869,238.6875
13:58:41:856,-0.8477,1.8027,10.8404,43.7196,0.0049,-0.1222,-0.1472,238.7656
13:58:41:873,-0.2058,1.8505,12.3296,43.9317,0.0513,-0.4001,-0.1759,238.7656
13:58:41:893,0.2584,1.3262,13.5123,43.8286,0.1674,-0.5656,-0.2908,238.9688
13:58:41:915,0.285,0.5411,13.352,43.9704,0.2541,-0.46,-0.4019,238.4688
13:58:41:933,0.3784,0.4549,11.9273,44.0289,0.1808,-0.1949,-0.4294,238.4688
13:58:41:956,0.6464,0.4669,11.9704,44.0498,-0.1173,-0.1136,-0.4966,237.7656
13:58:41:975,0.4406,-0.1388,13.8356,44.0642,-0.4019,-0.2223,-0.7074,237.7656
13:58:41:994,-0.7038,-1.1707,15.4588,44.1989,-0.3274,-0.3567,-0.8821,237.4375
13:58:42:015,-1.9295,-2.1906,14.4485,44.4863,0.0996,-0.2065,-0.8204,237.4062
13:58:42:035,-2.2409,-2.205,10.9241,44.7208,0.5149,0.2169,-0.4508,237.4062
13:58:42:057,-1.5299,-0.9936,7.6756,44.9642,0.6041,0.4594,0.0067,237.3125
13:58:42:074,-0.364,0.2321,6.5169,45.2138,0.4111,0.2645,0.2132,237.3125
13:58:42:094,0.3832,0.7923,7.4791,45.3025,0.0935,-0.0898,0.1081,237.5312
13:58:42:113,0.6655,0.6176,8.9827,45.7417,-0.1405,-0.3219,-0.1209,237.9375
13:58:42:134,0.6057,0.4095,9.6864,45.8151,-0.2242,-0.2694,-0.3183,237.9375
13:58:42:157,0.1795,0.3568,8.8941,46.1893,-0.2633,0.0898,-0.449,238.3594
13:58:42:175,-0.4597,0.3544,8.0513,46.2621,-0.3299,0.4209,-0.5064,238.3594
13:58:42:194,-0.8812,0.51,7.2589,46.4761,-0.2932,0.4905,-0.4502,239.25
13:58:42:214,-0.9003,0.7397,6.1241,46.5566,-0.1234,0.2621,-0.3054,239.25
13:58:42:234,-0.6105,1.2544,5.8056,46.8224,0.1136,-0.3329,-0.1448,240.2031
13:58:42:257,0.0479,1.9175,6.4738,47.0599,0.3793,-1.0696,-0.0379,240.2969
13:58:42:274,0.8501,2.3342,7.3786,47.1066,0.4807,-1.413,-0.0599,241.8594
13:58:42:294,1.3454,2.3677,8.1254,47.2048,0.2559,-1.0769,-0.1991,242.0156
13:58:42:316,0.7301,2.0638,9.2483,47.1341,-0.5198,0.2541,-0.5137,243.3438
13:58:42:334,-0.2632,1.6974,10.4264,47.4407,-0.6866,0.5748,-0.5791,243.4844
13:58:42:355,-1.1372,1.1539,11.5421,47.2375,-0.5846,0.6414,-0.5327,243.3281
13:58:42:375,-1.5419,0.9194,11.3049,47.4116,-0.3763,0.7019,-0.3506,243.3125
13:58:42:394,-1.4127,1.4103,11.3336,47.3892,-0.1753,0.5992,-0.1209,243.3594
13:58:42:414,-1.1109,1.8434,11.47,47.6322,-0.0733,0.4135,-0.0092,244.0781
13:58:42:433,-1.0534,1.6735,12.3177,47.8548,-0.0257,0.1552,-0.0336,244.0781
13:58:42:458,-1.2497,1.1827,13.206,48.191,0.0635,-0.0483,-0.0593,244.9844
13:58:42:474,-1.1898,0.8812,13.1219,48.516,0.179,-0.1026,-0.0092,244.9844
13:58:42:494,-0.7014,0.7684,12.6841,48.6263,0.1851,-0.1075,0.0379,245.0625
13:58:42:515,-0.5961,0.3233,13.4429,48.9395,-0.0342,-0.1063,-0.0385,245.5625
13:58:42:534,-1.3789,-0.5459,15.0374,49.1423,-0.2425,-0.0672,-0.1649,245.5625
13:58:42:558,-2.4108,-1.4964,14.817,49.2961,-0.0831,0.077,-0.1356,245.9688
13:58:42:575,-2.8944,-1.7189,11.9489,49.4145,0.3415,0.3109,0.1509,245.9688
13:58:42:595,-2.4921,-0.8548,8.4272,49.6097,0.6218,0.3958,0.5522,246.7188
13:58:42:614,-1.7213,0.2512,6.3993,49.5729,0.5424,0.1759,0.7813,247.75
13:58:42:634,-1.0319,0.6942,6.8518,49.3876,0.2022,-0.2242,0.7623,247.75
