Time,Acc_X,Acc_Y,Acc_Z,Meg,Gyr_X,Gyr_Y,Gyr_Z,Ore
20:18:28:602,-0.297,2.9279,9.0449,37.1227,-0.2101,-0.0464,-0.0104,118.3438
20:18:28:610,-0.3473,3.0141,9.6266,37.0777,-0.2859,-0.0666,-0.011,125.875
20:18:28:615,-0.2249,2.9423,10.1892,37.2521,-0.281,-0.0776,-0.011,139.9062
20:18:28:633,-0.1364,2.7532,10.4408,37.3443,-0.1662,-0.0666,-0.0195,139.9062
20:18:28:655,-0.2106,2.7102,10.0672,37.2554,0.0031,-0.0177,-0.0226,139.9219
20:18:28:677,-0.376,2.8035,9.4902,36.9778,0.113,0.0134,-0.0098,139.9219
20:18:28:695,-0.3927,2.9279,9.1621,36.89,0.1234,-0.0183,0.0128,139.9219
20:18:28:713,-0.2058,2.9447,9.1023,36.8738,0.0757,-0.0782,0.0104,139.9219
20:18:28:733,-0.3138,2.9064,9.0999,37.0567,-0.0092,-0.0941,-0.0281,139.9219
20:18:28:753,-0.5124,2.892,9.4089,37.0242,-0.1197,-0.0709,-0.0586,139.9219
20:18:28:779,-0.6248,2.7341,10.1198,37.0648,-0.1942,-0.0281,-0.0513,139.9219
20:18:28:794,-0.565,2.5905,10.3376,36.8679,-0.1338,0.0165,-0.0049,139.9219
20:18:28:814,-0.4789,2.703,10.218,36.7986,0.0257,0.0043,0.0428,139.9219
20:18:28:834,-0.4597,2.8513,10.0457,36.8767,0.182,-0.0403,0.0611,139.9219
20:18:28:853,-0.4597,2.9877,9.5429,36.8454,0.2804,-0.0428,0.0623,139.9219
20:18:28:874,-0.4262,3.1053,9.1071,36.9231,0.2761,-0.0476,0.0421,139.9219
20:18:28:893,-0.3616,3.1029,9.1789,36.5921,0.1698,-0.0586,0.0079,139.9219
20:18:28:915,-0.4501,3.0523,9.2701,36.5258,0.0452,-0.0324,-0.0153,139.9219
20:18:28:934,-0.6272,3.026,9.507,36.3241,-0.0336,-0.0214,-0.0195,139.9844
20:18:28:954,-0.7158,2.9662,9.6888,36.4965,-0.0312,-0.0067,-0.0024,139.9844
20:18:28:975,-0.687,3.0069,9.2868,36.506,0.0312,0.0641,0.0293,139.9844
20:18:28:994,-0.687,3.2082,8.6306,36.5948,0.0611,0.1118,0.0476,139.9844
20:18:29:016,-0.7277,3.3326,8.5828,36.7168,-0.0006,0.0623,0.0501,140.0156
20:18:29:034,-0.5578,3.2297,9.0808,36.8024,-0.0739,-0.044,0.0483,140.0156
20:18:29:054,-0.3281,3.0165,9.4424,36.8639,-0.0684,-0.1014,0.0226,140.1406
20:18:29:076,-0.419,2.8322,9.44,36.837,0.0049,-0.0855,-0.0189,140.1406
20:18:29:094,-0.7708,2.7963,8.8678,36.8594,0.0831,-0.0067,-0.0257,140.1094
20:18:29:117,-1.1324,3.2967,7.9125,36.6109,0.0959,0.0147,0.0189,140.1094
20:18:29:134,-1.2114,3.5599,8.2214,36.6022,-0.1374,-0.0562,0.0819,139.9844
20:18:29:155,-1.1061,3.7421,8.9827,36.6443,-0.2663,-0.0556,0.1057,139.9688
20:18:29:178,-1.0989,3.8545,9.5477,36.666,-0.3219,0,0.1075,139.9375
20:18:29:193,-1.1085,3.8306,9.5285,36.5184,-0.2914,0.0354,0.0739,139.9219
20:18:29:213,-0.9936,3.7325,9.4639,36.5009,-0.2437,-0.047,0.0134,139.9688
20:18:29:233,-0.9577,3.5216,9.6912,36.6049,-0.2596,-0.1723,-0.0709,139.9688
20:18:29:254,-1.2544,3.2465,10.2921,36.6366,-0.3421,-0.2205,-0.1277,139.9375
20:18:29:275,-1.5658,3.026,10.57,36.9875,-0.3946,-0.1252,-0.0831,139.9375
20:18:29:294,-1.6567,2.9471,10.4025,36.9676,-0.3457,0.0299,0.0556,139.8125
20:18:29:314,-1.4821,3.1747,9.883,37.0681,-0.2126,0.157,0.2181,139.8125
20:18:29:333,-1.2425,3.5001,9.2916,37.0256,-0.0623,0.2211,0.3378,139.75
20:18:29:360,-1.0965,3.7995,8.9157,36.8633,0.058,0.1997,0.4032,139.7969
20:18:29:376,-0.862,4.022,8.7338,36.8627,0.1448,0.1118,0.4227,139.7969
20:18:29:395,-0.565,4.1345,8.6569,36.9232,0.2083,0.0165,0.3934,139.7188
20:18:29:417,-0.4717,4.1752,8.5181,36.9764,0.2352,0.0018,0.3121,139.7188
20:18:29:434,-0.6344,4.0555,8.3985,36.7866,0.1949,0.0238,0.2089,139.5312
20:18:29:455,-0.8282,3.8282,8.7099,36.8206,0.0928,-0.0171,0.1246,139.5312
20:18:29:476,-0.8019,3.4259,9.306,36.817,-0.0147,-0.0959,0.0867,139.3281
20:18:29:495,-0.5889,3.134,9.8109,36.846,-0.0764,-0.1148,0.0855,139.3281
20:18:29:516,-0.3066,3.0165,10.2323,37.0149,-0.1045,-0.0904,0.091,139.4219
20:18:29:533,-0.1986,3.0212,10.4647,36.9212,-0.1197,-0.0586,0.0959,139.4219
20:18:29:555,-0.0574,3.0476,10.6226,36.8131,-0.1209,-0.0831,0.0977,139.6719
20:18:29:575,0.4071,2.8896,10.7255,36.6484,-0.1118,-0.1484,0.0898,139.6875
20:18:29:594,0.6033,2.7341,11.0106,36.7195,-0.1264,-0.2401,0.0391,139.4219
20:18:29:618,0.5554,2.6504,11.3169,36.781,-0.2236,-0.369,-0.055,139.3906
20:18:29:635,1.0726,2.3103,11.8244,36.5839,-0.2859,-0.4398,-0.0709,138.625
20:18:29:655,1.4629,2.0207,12.2267,36.6402,-0.3354,-0.4575,-0.0983,138.5312
20:18:29:677,1.5634,1.774,12.2483,36.4436,-0.3244,-0.3347,-0.1209,137.7188
20:18:29:694,1.5658,1.7118,11.5158,36.4992,-0.223,-0.0837,-0.1063,137.625
20:18:29:713,1.4079,1.8194,10.0576,36.6003,-0.0568,0.2089,-0.0831,137.0938
20:18:29:734,1.2903,2.016,8.6163,36.7056,0.1161,0.3427,-0.0825,137.0469
20:18:29:753,1.3908,2.2265,7.6134,36.6747,0.2407,0.2688,-0.1057,136.8438
20:18:29:774,1.6113,2.2863,7.2637,36.6218,0.2749,0.0525,-0.1729,136.8125
20:18:29:794,1.5634,2.2241,7.4982,36.4708,0.2071,-0.1723,-0.3005,136.6562
20:18:29:815,1.2568,2.0782,8.0273,36.4297,0.0446,-0.3085,-0.4398,136.6562
20:18:29:834,0.9505,1.7859,8.4894,36.6197,-0.1607,-0.3085,-0.5211,136.4531
20:18:29:853,0.5435,1.6304,8.9946,36.5661,-0.3518,-0.2333,-0.5302,136.4531
20:18:29:876,0.2946,1.7142,9.4448,36.4509,-0.4532,-0.1313,-0.4697,136.3438
20:18:29:894,0.3927,2.0542,9.5812,36.2726,-0.416,-0,-0.369,136.4844
20:18:29:915,0.4765,2.4419,9.1789,36.285,-0.2773,0.1466,-0.3005,136.4844
20:18:29:935,0.5339,2.8537,8.5588,36.4317,-0.1148,0.2193,-0.284,136.7656
20:18:29:953,0.6631,3.0188,8.2478,36.586,0.0012,0.1374,-0.3134,136.7656
20:18:29:976,0.766,2.9542,8.3172,36.5723,0.0525,-0.0342,-0.3726,137.0625
20:18:29:993,0.7971,2.9399,8.8176,36.5794,0.0446,-0.1826,-0.4258,137.0625
20:18:30:015,0.7971,2.7556,9.4687,36.7068,-0.0012,-0.2566,-0.46,137.2188
20:18:30:033,0.8306,2.4897,9.8303,37.0877,-0.0214,-0.212,-0.4423,137.2188
20:18:30:054,0.7804,2.5642,9.938,37.183,-0.0049,-0.1057,-0.383,137.4531
20:18:30:075,0.6679,2.8896,10.0385,36.9458,0.0293,-0.0373,-0.3207,137.4688
20:18:30:094,0.6272,3.2273,10.1055,36.9897,0.088,-0.022,-0.2706,138.2344
20:18:30:114,0.5578,3.5551,10.2538,37.1669,0.1625,-0.0324,-0.2547,138.3125
20:18:30:134,0.2417,3.5504,10.5891,37.2409,0.2492,0.0049,-0.2981,139.4219
20:18:30:160,0.1484,3.3757,10.9699,37.2442,0.2321,0.0153,-0.2987,139.5312
20:18:30:175,-0.1196,3.3278,11.822,37.4073,0.2052,-0.0409,-0.2999,140.4062
20:18:30:193,-0.699,3.2393,12.6649,37.0677,0.2443,-0.0153,-0.2914,140.5
20:18:30:214,-1.3884,3.2752,12.1525,37.0858,0.3848,0.2169,-0.237,141.0781
20:18:30:233,-1.5514,3.3996,10.6825,37.1764,0.507,0.4135,-0.135,141.1406
20:18:30:253,-1.0247,3.323,9.7558,37.2428,0.4734,0.3054,-0.0489,141.8125
20:18:30:275,-0.28,2.7724,10.1749,37.2753,0.2944,-0.0727,-0.058,141.8906
20:18:30:293,-0.4262,1.7357,11.5373,37.3937,0.0855,-0.4539,-0.1826,142.7969
20:18:30:315,-1.7022,0.8596,12.6745,37.4519,0.0171,-0.5204,-0.2498,142.8906
20:18:30:335,-2.7269,0.5435,12.2028,37.4564,0.19,-0.1399,-0.0476,143.8125
20:18:30:353,-2.4299,0.8859,10.0983,37.5393,0.5021,0.4636,0.3647,143.8125
20:18:30:375,-1.3095,1.7285,7.9149,37.8024,0.7483,0.7794,0.7074,144.4688
20:18:30:393,-0.0933,2.8274,6.8877,38.2314,0.7972,0.5803,0.7996,145.0469
20:18:30:415,0.6966,3.6078,7.113,38.5618,0.6536,0.1631,0.6237,145.0469
20:18:30:434,0.6846,3.3278,7.6086,38.824,0.4007,-0.1069,0.2596,145.6875
20:18:30:462,-0.1651,2.2696,8.2717,38.8653,0.1075,-0.1875,-0.0928,145.6875
20:18:30:475,-1.1061,1.4222,8.8702,39.0881,-0.1271,-0.1289,-0.2187,146.3125
20:18:30:493,-1.5921,1.197,9.2773,39.3012,-0.2346,0.0293,-0.1057,146.3125
20:18:30:563,-1.5084,1.5156,9.1382,39.4561,-0.2132,0.2559,0.1216,146.6562
20:18:30:563,-1.3382,2.1212,8.3578,39.7053,-0.1087,0.4801,0.314,146.6562
20:18:30:563,-1.0893,2.8107,7.6181,39.7336,0.0018,0.5149,0.4172,146.7188
20:18:30:582,-0.8019,3.3446,7.3499,39.5172,0.0684,0.369,0.4423,146.7188
20:18:30:594,-0.5602,3.5767,7.3546,39.5632,0.0843,0.2034,0.4074,147.2344
20:18:30:615,-0.3808,3.6269,7.6253,39.7896,0.0678,0.0605,0.3488,147.2812
20:18:30:634,-0.2154,3.6221,8.013,39.9368,0.0403,-0.0446,0.2914,146.9219
20:18:30:658,0.0263,3.6054,8.4368,40.0567,0.0055,-0.1038,0.237,146.8906
20:18:30:674,-0.1675,3.4475,9.428,40.3241,-0.0751,-0.1093,0.1277,145.2031
20:18:30:693,-0.4047,3.4235,9.6434,40.4606,-0.0599,-0.0434,0.1326,145.0469
20:18:30:713,-0.28,3.4379,9.5094,40.5062,0.0049,-0.0018,0.1771,144.1094
20:18:30:733,0.0263,3.3972,9.7128,40.9022,0.0721,-0.1509,0.1863,144.0312
20:18:30:753,0.2656,3.2776,10.5269,41.0034,0.1106,-0.4025,0.1393,144.3594
20:18:30:776,0.055,3.0643,11.3743,41.3307,0.1155,-0.5039,0.091,144.3906
20:18:30:793,-0.4573,2.904,12.2578,41.5375,0.1191,-0.4832,0.1142,144.3594
20:18:30:813,-0.2898,2.6001,12.2459,41.7861,0.2083,-0.3659,0.237,144.3594
20:18:30:833,0.5554,2.3581,11.8508,42.037,0.2969,-0.3011,0.361,143.4375
20:18:30:854,1.3286,2.2792,11.7503,42.1321,0.2114,-0.3787,0.3812,142.4375
20:18:30:875,1.8482,2.083,12.5569,42.5805,-0.0629,-0.5534,0.3653,142.4375
20:18:30:893,2.3414,1.9391,13.8069,42.569,-0.3183,-0.584,0.3952,141.7188
20:18:30:915,2.7389,1.951,13.1842,42.8561,-0.339,-0.1753,0.4496,141.7188
20:18:30:934,2.8274,2.0758,11.0704,42.8651,-0.157,0.3506,0.4496,141.2969
20:18:30:953,2.8442,2.4036,9.0688,43.3023,0.0709,0.5546,0.3934,141.2969
20:18:30:975,3.0858,2.9423,7.9053,43.5574,0.2474,0.4288,0.295,141.0312
20:18:30:993,3.0571,3.2776,7.4001,43.8329,0.3366,0.2272,0.0849,141.0312
20:18:31:016,2.4491,3.0763,7.2398,43.934,0.3237,0.1307,-0.2205,140.6406
20:18:31:033,1.5443,2.6049,6.9428,43.9011,0.2211,0.237,-0.4697,140.6406
20:18:31:055,0.6176,2.1954,6.4519,44.2291,0.0238,0.4722,-0.5931,140.5
20:18:31:075,-0.146,2.1332,6.0476,44.2538,-0.2553,0.6554,-0.5876,140.5
20:18:31:095,-0.6176,2.3629,6.0715,44.5297,-0.5559,0.7074,-0.5027,140.2344
20:18:31:116,-0.7301,2.7341,6.4618,44.4882,-0.7831,0.6518,-0.3971,140.2031
20:18:31:133,-0.565,3.0452,7.0723,44.8056,-0.8692,0.5094,-0.3231,139.5312
20:18:31:156,-0.2489,3.2752,7.8335,44.8719,-0.675,0.0312,-0.328,139.4531
20:18:31:176,0.1388,3.1651,9.2892,45.1697,-0.4838,-0.1894,-0.3903,138.8438
20:18:31:194,0.0742,2.7317,9.7965,45.578,-0.3097,-0.3286,-0.4282,138.7812
20:18:31:216,0.1005,2.4538,10.1845,45.6016,-0.1881,-0.3726,-0.3757,137.9062
20:18:31:233,0.256,2.4395,10.6609,46.0296,-0.1258,-0.3464,-0.2529,137.8125
20:18:31:253,0.2441,2.7652,11.1159,46.1884,-0.0916,-0.2175,-0.1057,137
20:18:31:277,-0.0646,3.4259,11.2522,46.3913,-0.036,-0.0104,0.0544,136.9062
20:18:31:295,-0.6942,4.089,11.2116,46.4689,0.1087,-0.0202,0.1839,136.9688
20:18:31:313,-0.6033,4.0747,11.8843,46.619,0.4306,-0.595,0.2205,136.9688
20:18:31:334,0.6583,3.3182,12.2339,46.5704,0.9578,-1.3507,0.1655,137.9219
20:18:31:353,0.4717,3.2273,12.3894,46.7272,1.4716,-1.6762,0.0446,139.0781
20:18:31:374,-0.5076,3.9885,11.8555,47.1716,1.7715,-1.471,0.0299,139.0781
20:18:31:393,-0.6488,4.5272,11.147,47.4317,1.8173,-1.1649,0.1539,139.7656
20:18:31:416,-0.1484,4.7306,10.5269,47.6562,1.6494,-0.8094,0.2889,139.7656
20:18:31:434,0.1842,4.8577,9.4448,47.8069,1.3048,-0.2315,0.3934,140.4531
20:18:31:453,0.431,5.042,8.432,47.9681,0.7972,0.2706,0.4899,140.4531
20:18:31:477,1.3621,4.9247,7.8718,48.3321,0.2107,0.5204,0.5889,141.4062
20:18:31:493,2.1045,4.5918,7.9914,48.8452,-0.3262,0.5088,0.5937,141.4062
20:18:31:516,1.5299,4.0723,9.6841,49.0982,-0.6787,0.1979,0.4209,142.1562
20:18:31:535,0.3975,3.3326,10.7064,49.1818,-0.7,0.1582,0.2798,142.1562
20:18:31:560,-0.0837,2.8585,9.8375,49.2392,-0.463,0.5785,0.3262,142.25
20:18:31:577,-0.2082,2.9112,8.3961,49.4011,-0.193,0.9291,0.4435,142.25
20:18:31:593,0.1651,3.2465,7.3331,49.6836,-0.0318,0.8424,0.543,141.875
20:18:31:615,1.2903,3.6102,7.113,49.9406,-0.0189,0.3836,0.5583,141.8438
20:18:31:634,2.2193,3.845,8.1664,49.9883,-0.1472,-0.1729,0.3873,141.8125
20:18:31:653,2.2935,3.4451,9.4113,50.3128,-0.3213,-0.4105,0.055,141.7969
20:18:31:675,0.2994,2.0136,8.8965,50.5065,-0.5614,0.3909,-0.35,141.6875
20:18:31:693,-0.3736,1.7788,8.0967,50.6445,-0.6371,0.7342,-0.2315,141.6875
20:18:31:715,-0.3401,1.992,7.6971,50.7919,-0.6487,0.7715,0.0031,140.8906
20:18:31:733,0.1125,2.5857,7.6732,51.1447,-0.5815,0.6408,0.2156,140.8125
20:18:31:753,0.4095,3.4211,8.001,51.4901,-0.4624,0.4502,0.292,139.5156
20:18:31:774,0.4167,4.0579,8.298,51.662,-0.3256,0.3225,0.237,139.3906
20:18:31:794,0.3951,4.2544,8.5038,51.8859,-0.1833,0.2413,0.1228,138.3281
20:18:31:813,0.3736,4.0507,8.5732,51.7937,-0.0507,0.1692,0.0018,138.2344
20:18:31:834,0.3281,3.8713,8.7553,52.0188,0.0415,0.0874,-0.0843,137.5938
20:18:31:856,0.297,3.8904,8.918,52.1757,0.0776,0.0354,-0.1197,136.1875
20:18:31:877,0.1986,3.8976,9.1119,52.4519,0.0593,-0.0159,-0.1539,136.1875
20:18:31:893,0.3377,3.6341,9.5477,52.4769,0.014,-0.1411,-0.2046,135.125
20:18:31:916,0.6081,3.3326,10.2706,52.5449,-0.0299,-0.2651,-0.2596,135.125
20:18:31:933,0.6033,3.1077,10.8978,52.5188,-0.0623,-0.2938,-0.3152,135.4688
20:18:31:955,0.3712,2.8729,11.2475,52.7346,-0.0867,-0.234,-0.3451,135.4688
20:18:31:978,0.1292,2.6504,11.4389,53.0742,-0.1045,-0.1625,-0.3244,136.0312
20:18:31:993,0.4119,2.4299,11.0608,53.4708,-0.1234,-0.0745,-0.2401,136.0312
20:18:32:016,1.3454,2.2816,10.6298,53.575,-0.2046,-0.0947,-0.1295,135.6875
20:18:32:034,2.3916,2.2481,10.9723,53.8327,-0.3922,-0.2908,-0.1075,135.6875
20:18:32:056,3.1819,2.1356,11.7885,54.0281,-0.6304,-0.4478,-0.1942,135.0625
20:18:32:075,3.524,1.8577,12.5139,54.1129,-0.7965,-0.4429,-0.3341,135.0625
20:18:32:094,3.3613,1.2185,12.7128,54.7081,-0.8002,-0.361,-0.5052,134.8906
20:18:32:116,3.0069,0.2393,12.6577,55.2958,-0.6334,-0.3409,-0.6402,134.875
20:18:32:133,2.6719,-0.2201,12.1884,55.4717,-0.3457,-0.2462,-0.62,135.0625
20:18:32:154,2.5355,0.0814,11.2211,55.5487,-0.0067,-0.0092,-0.4881,135.0781
20:18:32:177,2.2026,1.1707,8.1808,55.9893,0.551,0.543,-0.3506,135.4531
20:18:32:194,1.9199,1.6878,6.8112,56.243,0.642,0.5498,-0.4129,135.4844
20:18:32:217,1.64,2.0518,6.117,56.6168,0.562,0.3335,-0.529,136.125
20:18:32:234,1.3573,2.2265,6.0643,56.921,0.361,0.0721,-0.675,136.1875
20:18:32:253,0.8548,2.2457,6.4041,56.927,0.113,-0.0904,-0.8253,136.9062
20:18:32:274,0.2512,2.1452,6.9882,56.8653,-0.1264,-0.1497,-0.9102,136.9844
20:18:32:294,-0.0718,2.2002,7.666,57.0513,-0.2981,-0.1356,-0.8833,137.3906
20:18:32:313,0.0718,2.4634,8.4488,57.0766,-0.3769,-0.1203,-0.7813,137.4219
20:18:32:334,0.5028,2.7556,9.2411,57.1057,-0.3744,-0.113,-0.6951,137.8438
20:18:32:358,0.7947,2.7867,9.7199,57.2265,-0.3085,-0.0794,-0.6762,137.8906
20:18:32:375,0.7181,2.6192,9.8157,57.115,-0.1997,-0.025,-0.7055,138.9688
20:18:32:393,0.4573,2.581,9.7367,57.5607,-0.0812,0.0232,-0.7006,140.4688
20:18:32:416,0.2632,2.7628,9.507,57.8495,0.0055,0.0556,-0.6298,140.4688
20:18:32:434,0.1029,2.8848,9.5333,58.0894,0.0373,0.0318,-0.5437,141.375
20:18:32:455,-0.1603,2.9758,9.7152,58.3058,0.055,0.036,-0.4496,141.375
20:18:32:475,-0.6846,3.3302,9.5716,58.7064,0.1008,0.179,-0.3164,142.0625
20:18:32:494,-0.8596,3.7469,9.2387,58.9702,0.1582,0.3286,-0.1466,142.0625
20:18:32:515,-0.4334,3.9455,9.0162,59.0941,0.1698,0.3115,-0.0037,143.2969
20:18:32:534,-0.1866,4.2377,9.7893,59.3111,0.0733,0.0586,0.0281,143.2969
20:18:32:553,-0.3975,4.4483,11.7,59.3125,-0.0654,-0.2926,-0.0452,145.2344
20:18:32:623,-0.5124,4.0914,13.0143,59.5307,-0.0727,-0.3812,-0.1167,145.2344
20:18:32:623,-0.9529,3.5456,13.2993,59.6151,0.0684,-0.1967,-0.1545,147.125
20:18:32:624,-1.8123,3.134,12.7152,59.6707,0.2645,0.0684,-0.1271,147.125
20:18:32:634,-2.2265,2.9925,11.6234,59.9163,0.4142,0.2743,0.0269,148.5312
20:18:32:653,-1.4414,2.8107,10.503,60.2738,0.4655,0.259,0.2346,148.6719
20:18:32:674,-0.189,2.2792,10.4073,60.4463,0.4239,-0.0483,0.3213,150.0938
20:18:32:695,-0.1484,1.963,11.5947,60.8674,0.3549,-0.2456,0.1216,150.2344
20:18:32:719,-1.1276,1.7261,12.0736,60.8802,0.482,0.2718,0.1655,151.4062
20:18:32:734,-1.9032,1.4198,8.8247,61.0381,0.5766,0.6133,0.314,151.5312
20:18:32:753,-1.7046,1.9367,7.7665,61.4163,0.5082,0.584,0.4532,152.2656
20:18:32:775,-0.7899,2.4227,7.666,61.8145,0.284,0.339,0.5174,152.3438
20:18:32:794,0.3616,2.3988,8.001,61.9236,-0.0024,0.1069,0.4251,152.4531
20:18:32:813,0.6129,1.695,8.2382,62.0092,-0.2682,0.0238,0.1582,152.4531
20:18:32:833,-0.189,1.0104,8.499,62.2506,-0.4905,0.0324,-0.0953,152.4844
20:18:32:859,-1.1707,0.7205,8.6809,62.3569,-0.6121,0.0764,-0.1393,152.8125
20:18:32:873,-1.6472,0.8883,8.7338,62.6234,-0.5736,0.1228,0.033,152.8125
20:18:32:894,-1.4294,1.5323,8.8247,62.7632,-0.3744,0.1594,0.2975,152.9062
20:18:32:915,-1.0152,2.3366,8.4966,62.8996,-0.0904,0.2706,0.4942,152.9062
20:18:32:933,-0.7875,3.0643,7.7306,63.3096,0.1637,0.3806,0.5663,152.25
20:18:32:959,-0.7756,3.6655,7.2494,63.6498,0.3066,0.2926,0.532,152.25
20:18:32:975,-0.6176,3.9957,7.6469,63.9575,0.3433,0.0183,0.419,151.9062
20:18:32:994,-0.443,3.9311,8.4559,64.2795,0.3219,-0.19,0.2718,151.9062
20:18:33:015,-0.6799,3.8378,9.2629,64.4881,0.2486,-0.215,0.1393,151.2344
20:18:33:033,-1.1396,3.6799,9.6841,64.9133,0.1643,-0.1222,0.0806,151.2344
20:18:33:053,-1.386,3.5575,9.9882,65.167,0.1112,-0.0483,0.0996,151.2344
20:18:33:075,-1.1133,3.3422,10.2897,65.539,0.0837,-0.0501,0.1497,150.0312
20:18:33:094,-0.5841,3.2776,10.7207,65.5853,0.055,-0.0941,0.1967,149.3594
20:18:33:115,-0.122,3.213,11.324,65.5875,0.014,-0.1698,0.2089,149.3594
20:18:33:135,0.1819,3.0141,11.6521,65.6698,0.0092,-0.1973,0.1845,149.5938
20:18:33:159,0.067,2.7556,11.5301,65.6631,0.0617,-0.1808,0.1527,149.625
20:18:33:174,-0.1388,2.7891,11.0106,65.9145,0.149,-0.1814,0.1894,149.2812
20:18:33:193,0.3688,3.0643,10.5293,66.1854,0.2114,-0.2596,0.3323,149.25
20:18:33:216,1.5658,3.5862,10.4049,66.474,0.0861,-0.4942,0.4471,148.125
20:18:33:234,3.4379,3.5815,10.8787,66.3655,-0.1216,-0.5852,0.19,148.0156
20:18:33:254,2.394,2.7963,11.6043,66.3746,-0.325,-0.529,-0.1857,147.0156
20:18:33:275,1.0271,1.8123,11.281,66.755,-0.358,-0.2315,-0.3897,146.9219
20:18:33:294,0.4167,1.2832,10.273,66.9873,-0.2236,0.1008,-0.328,146.5469
20:18:33:313,0.4669,1.3334,9.1525,67.2176,-0.0531,0.2975,-0.1411,146.5
20:18:33:333,0.8163,1.8218,8.4775,67.322,0.0641,0.3011,0.0336,146.3281
20:18:33:353,1.3669,2.4562,8.2502,66.9874,0.1155,0.2089,0.1216,145.9844
20:18:33:374,1.7692,2.8585,8.0489,66.8289,0.1124,0.1631,0.0672,145.9844
20:18:33:395,1.6807,2.9662,7.6851,67.0312,0.0635,0.171,-0.1081,145.5625
20:18:33:413,1.1827,2.8585,7.3164,67.0612,-0.0281,0.1765,-0.3079,145.5625
20:18:33:433,0.6535,2.636,7.1967,66.9262,-0.1448,0.1411,-0.4404,145.2344
20:18:33:458,0.28,2.5762,7.4958,66.9542,-0.2553,0.0837,-0.4771,145.2344
20:18:33:475,0.1723,2.7269,8.1135,66.8389,-0.3341,0.0684,-0.4508,144.4375
20:18:33:493,0.189,2.9566,8.4727,66.8515,-0.3476,0.1521,-0.4044,144.4375
20:18:33:515,0.2369,3.1364,8.4607,66.7729,-0.2871,0.2596,-0.3696,143.875
20:18:33:533,0.2034,3.2177,8.1473,67.0079,-0.1949,0.2932,-0.358,143.875
20:18:33:558,0.352,3.2608,8.0847,66.7442,-0.1216,0.1631,-0.3409,143.875
20:18:33:575,0.7828,3.3015,8.4918,67.0052,-0.1008,-0.0452,-0.3195,144.6406
20:18:33:594,0.9242,3.3422,9.1478,66.9933,-0.1435,-0.1924,-0.3225,145.125
20:18:33:615,0.7134,3.3015,9.9141,66.8148,-0.2205,-0.2449,-0.3476,145.125
20:18:33:633,0.3377,3.2345,10.5532,66.9649,-0.2724,-0.1564,-0.3347,144.9062
20:18:33:658,-0.2728,3.3637,10.6442,66.9129,-0.2584,0.0892,-0.248,144.875
20:18:33:675,-0.6703,3.7636,10.4001,67.2348,-0.182,0.2987,-0.0861,144.875
20:18:33:693,-0.5148,4.1225,10.1151,67.0934,-0.0751,0.3433,0.088,144.875
20:18:33:716,-0.0167,4.1847,10.1462,67.236,-0.0092,0.2022,0.1875,145.5781
20:18:33:735,0.3209,4.2353,10.9217,67.2107,0.0116,-0.0599,0.1765,145.6562
20:18:33:759,-0.5267,3.9168,11.1685,67.0026,0.088,-0.2095,-0.0531,146.5781
20:18:33:774,-1.6807,3.6317,11.511,67.1053,0.113,-0.234,-0.1771,146.6875
20:18:33:793,-2.5232,3.2871,11.6306,66.9363,0.146,-0.1161,-0.1442,147.4219
20:18:33:813,-2.3773,2.8394,11.0776,66.8758,0.1741,0.0733,0.0367,147.5
20:18:33:834,-1.6017,2.2911,10.8906,66.7825,0.1509,0.0666,0.2138,148.1719
20:18:33:858,-1.1587,1.7477,11.0728,66.6087,0.1161,0.0055,0.3128,148.2344
20:18:33:874,-1.4749,1.6089,10.8141,66.4365,0.1411,0.1222,0.3683,148.9062
20:18:33:894,-1.5156,1.6017,9.763,66.2727,0.2077,0.3299,0.4551,149.7812
20:18:33:913,-1.0295,1.6304,8.7529,66.4743,0.2169,0.3867,0.5528,149.7812
20:18:33:934,-0.2512,1.7213,8.1616,66.2054,0.1179,0.2297,0.5919,150.125
20:18:33:956,0.6559,1.9128,8.6258,66.0403,-0.0745,-0.1289,0.5339,150.125
20:18:33:974,1.398,1.9032,10.0887,66.0268,-0.284,-0.4655,0.3641,149.7656
20:18:33:994,1.7381,1.2736,11.001,65.7838,-0.3952,-0.4612,0.1405,149.7656
20:18:34:015,1.2353,0.5818,10.6777,65.7312,-0.3897,-0.1136,-0.0403,149.7656
20:18:34:034,0.3616,0.2584,9.4783,65.5438,-0.3195,0.3195,-0.0935,149.5156
20:18:34:059,-0.2393,0.5363,8.2717,65.3058,-0.2395,0.5718,0.0067,149.7969
20:18:34:075,-0.28,1.252,7.4408,64.905,-0.1729,0.6133,0.1759,149.7969
20:18:34:094,0.0981,2.15,6.591,64.8851,-0.1252,0.6353,0.3152,149.9062
20:18:34:115,0.3497,3.0212,5.5854,64.7657,-0.1472,0.6793,0.328,149.9062
20:18:34:133,0.2082,3.6102,4.6469,64.4649,-0.2761,0.6005,0.1857,149.3281
20:18:34:158,-0.2106,3.591,4.6158,64.5074,-0.5156,0.2682,-0.0556,149.3281
20:18:34:174,-0.4741,3.1101,6.1433,64.1823,-0.7959,-0.273,-0.2828,148.4531
20:18:34:193,-0.5267,2.6312,8.7314,64.152,-0.9731,-0.6909,-0.4166,148.3594
20:18:34:214,-0.8955,2.26,11.0465,64.0466,-0.9578,-0.7672,-0.4539,147.1406
20:18:34:235,-1.4174,1.9343,12.6721,63.9316,-0.4545,-0.2407,-0.204,147.0312
20:18:34:260,-1.0798,2.1212,13.3639,63.6945,-0.1564,-0.1417,-0.0391,146.1875
20:18:34:275,-0.3305,2.1069,14.5107,63.4027,0.1435,-0.2431,0.0764,146.1094
20:18:34:294,0.3377,1.8864,15.4612,63.1095,0.5351,-0.3916,0.1381,146.0781
20:18:34:313,0.6272,1.6232,15.5474,62.7591,1.0256,-0.4288,0.1387,146.0781
20:18:34:333,0.6846,1.6878,14.5418,62.6847,1.4771,-0.2419,0.1283,146.0938
20:18:34:358,0.862,2.3844,12.9688,62.3919,1.7557,0.0397,0.1857,145.5
20:18:34:375,1.276,3.3972,10.7351,62.1141,1.7862,0.3476,0.3018,145.5
20:18:34:394,1.6711,4.4602,8.863,61.5477,1.5119,0.4404,0.3616,144.8281
20:18:34:414,2.1045,4.9654,8.0201,61.2569,0.9945,0.2749,0.2676,144.8281
20:18:34:433,2.4036,4.4052,8.6402,61.0603,0.4038,-0.0666,0.0018,145.125
20:18:34:458,1.5538,2.8681,9.6003,61.1447,-0.0837,-0.2572,-0.3806,145.125
20:18:34:474,0.2273,1.4605,9.5812,60.7346,-0.3628,-0.0898,-0.5956,145.125
20:18:34:494,-0.1795,0.6727,9.0329,60.4815,-0.46,0.058,-0.4954,146.1875
20:18:34:514,0.3401,0.6966,8.8798,60.217,-0.4771,-0.1081,-0.2492,146.1875
20:18:34:533,1.3884,1.0056,9.1789,60.0721,-0.4575,-0.43,-0.0513,146.875
20:18:34:558,2.4873,1.398,9.8279,60.3123,-0.405,-0.6628,0.0165,146.8906
20:18:34:575,3.0188,1.9199,10.3929,60.2794,-0.3213,-0.6206,-0.0733,146.8594
20:18:34:593,2.7389,2.1284,9.8351,60.1403,-0.19,-0.2272,-0.2651,146.5625
20:18:34:615,1.9032,2.0542,8.3363,59.7265,-0.0464,0.2425,-0.4844,146.5625
20:18:34:677,0.7923,1.9128,7.3546,59.7756,0.0452,0.3702,-0.656,146.125
20:18:34:678,0.0431,1.8888,7.1608,59.7396,0.0996,0.2663,-0.7061,146.125
20:18:34:678,-0.2536,2.0949,7.2685,59.7458,0.1307,0.2144,-0.6487,145.2812
20:18:34:694,-0.3473,2.5786,7.1871,59.4975,0.1209,0.2981,-0.554,145.2031
20:18:34:715,-0.3951,3.0763,6.9428,59.4359,0.0678,0.3793,-0.4734,144.8594
20:18:34:733,-0.2249,3.347,7.1991,59.4015,-0.0153,0.2602,-0.4178,144.8281
20:18:34:759,0.3712,3.3015,8.6545,59.4261,-0.0874,-0.0318,-0.3861,145.8438
20:18:34:777,0.553,3.2345,8.9515,59.418,-0.047,-0.0031,-0.3873,145.9531
20:18:34:793,0.644,3.3302,9.3586,59.298,-0.0122,0.0067,-0.3799,146.7344
20:18:34:814,0.3784,3.4522,9.8327,59.1492,-0.0086,0.044,-0.3671,146.8125
20:18:34:833,-0.1484,3.5886,10.2347,59.0332,-0.0147,0.1173,-0.3299,147
20:18:34:856,-0.6846,3.8258,10.4408,59.0066,-0.0159,0.2511,-0.2559,147.0156
20:18:34:877,-0.9529,4.0484,10.4456,58.8339,-0.0275,0.3854,-0.1503,147.4688
20:18:34:894,-0.8043,4.1728,10.3929,58.6033,-0.0531,0.4013,-0.0159,148.5781
20:18:34:913,-0.3162,4.4387,10.7183,58.5532,-0.0525,0.2572,0.0886,148.5781
20:18:34:933,-0.0814,4.6134,11.1924,58.6282,-0.0006,0.1173,0.0812,150.1094
20:18:34:956,-0.3138,4.5105,11.3025,58.8551,0.0764,0.1289,-0.0403,150.1094
20:18:34:974,-1.0774,4.1082,10.8069,58.8391,0.1173,0.2376,-0.1833,150.125
20:18:34:994,-2.0877,3.6269,10.3424,58.9218,0.0819,0.2798,-0.2413,151.1562
20:18:35:014,-2.5642,2.916,10.0002,59.0084,-0.0232,0.1955,-0.1778,151.1719
20:18:35:033,-2.3366,2.1571,10.0217,58.9281,-0.1472,-0.0134,-0.0299,152.0156
20:18:35:057,-2.1452,1.5467,10.6896,59.2218,-0.2132,-0.2895,0.1014,152.0312
20:18:35:075,-2.3797,1.427,11.1781,59.3469,-0.1417,-0.3335,0.2101,152.875
20:18:35:095,-2.4538,1.573,10.704,59.2268,0.0531,-0.0696,0.3525,153.7031
20:18:35:115,-2.0136,1.7955,9.4831,59.387,0.2517,0.2187,0.5174,153.7031
20:18:35:138,-1.2042,2.0782,8.5516,59.4577,0.3384,0.2046,0.5968,154.2969
20:18:35:153,-0.3185,2.2337,8.5325,59.4992,0.2749,-0.1008,0.5284,154.2969
20:18:35:174,0.2321,2.1523,9.1884,59.7235,0.1038,-0.4142,0.3543,154.3906
20:18:35:193,0.2776,1.5969,9.3132,59.7417,-0.0916,-0.4013,0.1686,154.3906
20:18:35:214,-0.1412,1.0128,8.9683,59.7116,-0.2504,-0.1826,0.0556,154.1875
20:18:35:233,-0.51,0.8453,8.487,59.9356,-0.339,0.044,0.069,154.1562
20:18:35:256,-0.4765,1.1898,8.1975,60.2195,-0.3702,0.1784,0.1924,154.3438
20:18:35:275,-0.0096,2.4132,8.377,60.1423,-0.2743,0.1258,0.4135,154.3594
20:18:35:294,-0.0431,2.8466,8.4751,60.4289,-0.1429,0.0953,0.4111,154.7344
20:18:35:313,-0.2154,3.213,8.3507,60.6425,0.0079,0.0977,0.3696,154.7656
20:18:35:337,-0.3281,3.4857,8.1254,60.7751,0.1503,0.0916,0.317,154.7344
20:18:35:354,-0.4358,3.5839,8.176,61.1941,0.2449,0.0037,0.2419,154.2031
20:18:35:373,-0.5794,3.6221,8.3722,61.3537,0.2718,-0.0977,0.1741,154.2031
20:18:35:393,-0.7062,3.6894,8.8989,61.5229,0.2535,-0.1979,0.1356,153
20:18:35:413,-0.9075,3.6413,9.4878,61.8229,0.2052,-0.2462,0.0996,153
20:18:35:433,-1.0822,3.524,9.6075,62.0411,0.1362,-0.1643,0.0892,151.9844
20:18:35:455,-0.8258,3.4666,9.8181,62.0187,0.0385,-0.1527,0.1142,151.9844
20:18:35:474,-0.2441,3.5049,10.6729,62.1222,-0.091,-0.292,0.1295,151.9688
20:18:35:493,0.3257,3.2895,11.8364,62.2944,-0.1961,-0.4514,0.099,151.7969
20:18:35:514,0.5052,2.8346,12.629,62.3895,-0.2107,-0.4642,0.0244,151.7969
20:18:35:533,0.2201,2.5881,12.7271,62.37,-0.1289,-0.2584,-0.0226,151.4844
20:18:35:556,0.2297,2.5618,11.9489,62.5618,-0.0006,0.0269,0.0257,151.4844
20:18:35:574,1.13,2.473,11.0943,62.5197,0.055,0.1026,0.1008,150.625
20:18:35:593,2.083,1.8697,11.0632,62.6922,-0.0654,-0.149,0.0507,149.75
20:18:35:614,1.8721,1.2377,12.2291,63.1362,-0.3244,-0.4673,-0.0916,149.75
20:18:35:633,1.3143,0.8788,12.8707,63.268,-0.5052,-0.3543,-0.1197,149.125
20:18:35:656,1.4079,0.8067,12.2004,63.5029,-0.4734,0.0654,0.0189,149.125
20:18:35:674,1.7046,1.0965,10.9866,63.5695,-0.3079,0.3879,0.157,148.8125
20:18:35:693,2.3055,1.5826,10.0074,64.0951,-0.0971,0.3964,0.2022,148.8125
20:18:35:714,2.8848,1.9152,9.6386,64.083,0.124,0.1662,0.0764,148.6719
20:18:35:733,2.7078,2.0183,9.2868,64.4807,0.317,0.0348,-0.223,148.6406
20:18:35:756,1.8027,1.8075,8.6474,64.8595,0.4526,0.0678,-0.5412,148.4531
20:18:35:774,0.8163,1.5347,7.7809,65.1924,0.4985,0.2089,-0.7434,148.4375
20:18:35:796,-0.4717,1.6759,6.615,65.5867,0.4123,0.2114,-0.6646,148.4219
20:18:35:814,-0.6846,2.205,6.44,65.793,0.2871,0.2144,-0.5259,148.4062
20:18:35:833,-0.6823,2.8442,6.3203,66.1248,0.157,0.2333,-0.3916,148.4375
20:18:35:856,-0.5148,3.3446,6.3036,66.0643,0.0415,0.1778,-0.3054,148.4375
20:18:35:873,-0.2393,3.6293,6.591,66.323,-0.0623,-0.0012,-0.2779,148.2969
20:18:35:893,-0.0215,3.6269,7.3307,66.4396,-0.1552,-0.2596,-0.306,148.5938
20:18:35:913,0.2082,3.4427,8.3554,66.3752,-0.2193,-0.4594,-0.3561,148.5938
20:18:35:933,0.2728,3.1651,9.4328,66.466,-0.2504,-0.529,-0.4019,148.625
20:18:35:954,0.055,2.7891,10.2658,66.4451,-0.2553,-0.463,-0.4166,148.4375
20:18:35:973,-0.3233,2.5977,10.7901,66.5088,-0.2346,-0.2975,-0.3543,148.4219
20:18:35:993,-0.5483,2.7173,11.2116,66.6415,-0.1851,-0.1136,-0.2065,148.0625
20:18:36:013,-0.6416,3.1747,11.3575,67.0869,-0.1063,0.077,-0.0299,148.0469
20:18:36:033,-0.4143,3.6006,11.1661,67.3326,0,0.2132,0.1209,148.8594
20:18:36:056,0.1723,3.9072,11.1996,67.4865,0.113,0.1955,0.2077,148.8594
20:18:36:074,0.3688,4.2401,11.5397,67.7218,0.1888,0.1136,0.1924,150.4062
20:18:36:093,0.2704,4.3765,11.8795,67.6669,0.2547,0.1081,0.099,151.6562
20:18:36:114,-0.3162,4.2209,11.6115,67.9729,0.3299,0.2584,-0.0214,151.6562
20:18:36:133,-1.1587,4.18,11.0943,68.1627,0.3543,0.4618,-0.1057,152.375
20:18:36:155,-1.5275,4.2784,11.001,68.5188,0.3201,0.6799,-0.0971,152.375
20:18:36:173,-1.386,4.2497,9.4807,68.7329,0.3738,0.8717,-0.0525,153.0469
20:18:36:192,-0.2489,3.4881,8.6115,68.9128,0.3977,0.3011,-0.0189,153.0469
20:18:36:213,0.3018,2.6025,10.005,69.1017,0.2498,-0.6444,-0.0983,153.9219
20:18:36:233,-1.1324,2.5522,10.9241,69.3786,0.1008,-1.0403,-0.1942,154
20:18:36:256,-1.343,1.9582,10.8906,69.5064,0.0293,-0.6567,-0.0629,154.875
20:18:36:274,-1.0175,1.5084,9.7726,69.5479,0.0861,0.1222,0.0922,154.9531
20:18:36:307,-1.0032,1.7548,8.3842,69.8188,0.1283,0.5498,0.2688,155.2031
20:18:36:313,0.1484,2.4395,8.176,69.8673,0.0238,0.0678,0.2364,155.2344
20:18:36:332,0.6918,1.829,9.076,69.8705,-0.1142,-0.328,0.0617,154.8594
20:18:36:354,0.3808,1.2257,9.3658,69.9915,-0.2162,-0.3036,-0.1344,154.8281
20:18:36:375,-0.3185,0.9218,9.21,70.2002,-0.2694,-0.08,-0.2211,154.5156
20:18:36:393,-0.8354,1.2042,8.9874,70.3986,-0.2755,0.1258,-0.1497,154.4688
20:18:36:413,-0.6655,1.9056,8.5253,70.6823,-0.204,0.3054,0.025,154.5156
20:18:36:433,-0.122,2.9399,8.0536,71.079,-0.0641,0.4471,0.1344,154.5156
20:18:36:453,-0.1484,3.6511,7.4504,71.0214,0.0892,0.543,0.0684,154.4844
20:18:36:475,-0.699,3.8019,6.8423,71.2727,0.2193,0.4716,-0.1032,154.4844
20:18:36:492,-1.3334,3.6679,6.5384,71.387,0.2944,0.2676,-0.2462,154.6562
20:18:36:513,-1.7692,3.4953,6.5312,71.5043,0.2785,0.0788,-0.2877,154.6719
20:18:36:533,-1.9152,3.5504,7.1178,71.6556,0.1326,-0.0935,-0.2437,155.1875
20:18:36:553,-1.8649,3.5169,8.2406,71.5815,-0.0837,-0.2138,-0.1704,155.1875
20:18:36:576,-1.8697,3.2704,9.4496,71.7154,-0.2608,-0.2205,-0.1063,154.7656
20:18:36:593,-1.9944,3.1388,10.2036,71.723,-0.3482,-0.0666,-0.0049,154.125
20:18:36:615,-1.5299,3.0811,10.3424,72.0544,-0.3494,0.1203,0.1442,154.125
20:18:36:633,-0.5937,3.1436,10.7064,71.9769,-0.3384,0.1093,0.248,154.2812
20:18:36:659,0.4167,3.2201,11.4796,72.058,-0.3464,-0.058,0.2468,154.2812
20:18:36:676,0.8883,3.1268,12.3751,72.3333,-0.3518,-0.2242,0.1381,154.6875
20:18:36:748,0.644,2.9806,13.0214,72.5512,-0.2957,-0.3146,-0.0018,154.6875
20:18:36:748,0.352,2.7915,12.8611,72.4682,-0.1533,-0.2804,-0.066,154.4375
20:18:36:749,0.7971,2.7915,12.6314,72.6701,0.0055,-0.2608,-0.0116,154.4062
20:18:36:757,1.9247,2.8322,12.3296,72.7444,0.1026,-0.2272,0.0605,154.3281
20:18:36:774,2.9255,2.5283,11.7933,72.8454,0.0904,-0.1826,0,154.3125
20:18:36:795,2.1978,1.7022,11.5158,73.1144,-0.1185,-0.1991,-0.3421,154.8125
20:18:36:816,2.2433,1.6519,10.9771,72.884,-0.0635,-0.1454,-0.2993,154.8594
20:18:36:833,2.9399,2.0255,10.0146,72.8308,0.1087,-0.0819,-0.201,155.3281
20:18:36:854,3.5432,2.3797,8.9563,72.4614,0.2822,-0.0495,-0.2346,155.375
20:18:36:877,3.5695,2.5522,8.3052,72.6705,0.3451,-0.1338,-0.4325,155.5156
20:18:36:893,3.1149,2.5232,8.2334,72.6403,0.2621,-0.3097,-0.6982,155.5156
20:18:36:913,2.4419,2.2098,8.1401,72.4991,0.11,-0.3628,-0.9175,155.0938
20:18:36:933,1.6089,1.9391,7.9173,72.2947,-0.0195,-0.2804,-1.0537,155.0469
20:18:36:957,0.8453,1.8123,7.7163,72.2489,-0.0861,-0.1869,-1.1075,154.6875
20:18:36:976,0.4573,1.951,7.491,72.5434,-0.0861,-0.0996,-1.0849,154.6562
20:18:36:993,0.3114,2.2696,7.3259,72.5295,-0.0519,-0.0476,-1.0427,154.7812
20:18:37:014,0.364,2.5834,7.4504,72.6366,-0.0202,-0.0605,-1.0281,154.7812
20:18:37:034,0.419,2.8346,7.7426,72.7261,-0.0098,-0.0764,-1.0342,154.7969
20:18:37:056,0.4597,2.8705,8.0465,72.6841,-0.0348,-0.0806,-1.0604,154.7969
20:18:37:076,0.3975,2.7772,8.6498,72.7682,-0.0996,-0.1032,-1.091,155.0469
20:18:37:095,0.1842,2.6264,9.1932,72.72,-0.171,-0.066,-1.0849,155.7969
20:18:37:116,-0.0287,2.581,9.4831,72.5665,-0.2089,0.0134,-1.0311,155.7969
20:18:37:133,-0.1507,2.624,9.6147,72.3365,-0.2107,0.0757,-0.9578,156.2812
20:18:37:155,-0.3425,2.7389,9.9284,71.9297,-0.1906,0.088,-0.8918,156.2812
20:18:37:176,-0.9242,2.9686,10.3834,71.7855,-0.1619,0.1179,-0.8314,157.5781
20:18:37:194,-1.4533,3.0428,10.6705,71.2994,-0.113,0.182,-0.7385,157.5781
20:18:37:216,-1.4414,2.9638,10.7542,70.8671,-0.0476,0.226,-0.5858,159.8281
20:18:37:233,-1.1109,3.1077,11.281,70.4452,0.0147,0.1686,-0.4154,159.8281
20:18:37:254,-1.0822,3.457,11.8149,70.2803,0.0898,0.1216,-0.303,162.0625
20:18:37:276,-1.6567,3.8306,11.8077,69.9746,0.1991,0.1955,-0.2651,162.2812
20:18:37:293,-2.3462,3.9383,11.2187,69.7611,0.3268,0.3237,-0.2676,164.375
20:18:37:318,-1.5203,3.201,9.253,69.6393,0.3421,0.1851,-0.2266,166.7031
20:18:37:333,-0.2082,2.3079,10.1007,69.2955,0.1093,-0.3903,-0.3543,166.7031
20:18:37:354,-0.6799,1.5562,12.4756,69.1534,-0.1668,-0.8729,-0.6493,166.9062
20:18:37:373,-2.2528,0.577,12.9927,69.1082,-0.2511,-0.6084,-0.7972,169.1094
20:18:37:395,-3.3541,0,11.135,68.9552,-0.0922,0.1344,-0.5394,169.3281
20:18:37:413,-2.9686,0.3042,8.7936,68.5165,0.1716,0.6768,0.0055,171.3125
20:18:37:435,-1.8601,1.4749,7.7976,68.1557,0.3806,0.6353,0.4722,171.5156
20:18:37:458,-0.3688,2.7389,8.1063,67.9156,0.4789,0.2443,0.6463,173.2031
20:18:37:473,1.0319,3.2584,8.3148,67.7934,0.4887,-0.0501,0.5119,173.375
20:18:37:494,1.5873,3.1627,8.2908,67.702,0.4099,-0.2278,0.1381,174.7969
20:18:37:514,1.264,2.7867,8.4727,67.5952,0.2535,-0.3653,-0.2908,174.8125
20:18:37:534,0.4884,2.406,8.5971,67.3278,0.069,-0.3635,-0.5846,175.5625
20:18:37:554,-0.201,1.9681,8.3219,66.9756,-0.1051,-0.1967,-0.689,176.1094
20:18:37:576,-0.7062,1.829,7.9173,66.9465,-0.2517,0.0214,-0.6292,176.1094
20:18:37:594,-0.9673,2.0447,7.5676,66.8173,-0.3549,0.1814,-0.4826,176.5938
20:18:37:615,-1.0463,2.5113,7.6516,66.7496,-0.4093,0.19,-0.3439,176.5938
20:18:37:634,-0.9697,2.9734,7.9508,66.4365,-0.4044,0.1197,-0.2724,177.8594
20:18:37:655,-0.9362,3.3087,8.2095,66.2172,-0.3384,0.0635,-0.2694,177.8594
20:18:37:677,-1.0343,3.3422,8.2717,65.9211,-0.2559,0.0263,-0.3176,179.375
20:18:37:693,-1.2377,3.1699,8.4823,65.609,-0.1839,-0.055,-0.3677,179.375
20:18:37:716,-1.5371,2.9518,8.7194,65.3637,-0.135,-0.102,-0.3818,178.7344
20:18:37:733,-1.7859,2.8729,9.0497,64.9496,-0.1338,-0.1167,-0.3427,178.7344
20:18:37:755,-1.8793,2.691,9.5261,64.709,-0.1539,-0.135,-0.2895,177.5781
20:18:37:775,-1.9271,2.5232,10.3328,64.189,-0.1961,-0.1527,-0.2523,177.4688
20:18:37:794,-1.573,2.3988,11.1398,63.8744,-0.2254,-0.1515,-0.1735,177.7031
20:18:37:816,-0.376,2.4156,12.1573,63.4363,-0.2352,-0.1209,-0.0953,177.7344
20:18:37:840,-0.0502,2.4323,12.5019,62.9009,-0.2333,-0.1277,-0.1533,179.0781
20:18:37:856,0.1962,2.4802,12.7654,62.5082,-0.1924,-0.0776,-0.2144,179.2188
20:18:37:874,0.6559,2.5113,12.2746,62.0314,-0.1112,0.0843,-0.2449,180.2812
20:18:37:893,1.2903,2.5953,11.4724,61.6679,-0.044,0.1472,-0.3335,180.375
20:18:37:913,1.7166,2.2337,11.0513,61.0714,-0.0489,-0.0513,-0.6108,180.9375
20:18:37:934,1.5682,1.4533,11.3815,60.8365,-0.1381,-0.3525,-1.0311,181
20:18:37:956,0.9099,0.8306,11.2594,60.3751,-0.2657,-0.3781,-1.3384,181.5469
20:18:37:973,0.1938,0.4071,10.9723,60.0722,-0.3989,-0.2706,-1.4203,181.5938
20:18:37:993,0.0742,0.0909,11.0895,59.9483,-0.4752,-0.2963,-1.3525,182.3594
20:18:38:013,0.4932,-0.0814,11.056,59.4302,-0.4294,-0.325,-1.229,182.4219
20:18:38:033,0.5865,-0.1029,10.771,59.3095,-0.2688,-0.2853,-1.1453,183.1406
20:18:38:057,0.4836,0.2273,10.1749,58.8236,-0.0214,-0.179,-1.0751,183.1562
20:18:38:076,0.2441,0.5841,9.3299,58.7613,0.2627,-0.11,-0.9981,183.625
20:18:38:094,-0.0718,0.7229,8.4535,58.2816,0.5088,-0.1283,-0.9664,183.8438
20:18:38:114,-0.4908,0.8692,7.812,58.1626,0.6591,-0.1533,-0.9505,183.8438
20:18:38:134,-0.9051,1.1348,7.4121,57.7412,0.7025,-0.1332,-0.8656,184.25
20:18:38:159,-1.0558,1.5826,7.3235,57.5036,0.6921,-0.0904,-0.7232,184.25
20:18:38:175,-0.941,2.059,7.2015,57.2759,0.6548,-0.011,-0.6011,184.8594
20:18:38:193,-0.5219,2.6025,7.3092,56.9602,0.5785,0.0415,-0.5479,184.8594
20:18:38:216,-0.1986,2.9758,7.6516,56.8123,0.4361,0.0226,-0.6023,186.6875
20:18:38:233,-0.1436,2.9423,7.9843,56.5994,0.2242,-0.025,-0.7403,186.6875
20:18:38:255,-0.4501,2.8729,8.6139,56.4526,-0.0116,-0.091,-0.8827,189.4688
20:18:38:275,-0.5937,2.8202,9.7247,55.9602,-0.1075,-0.223,-0.9431,189.75
20:18:38:309,-0.7851,2.5499,10.273,55.8494,-0.0324,-0.2572,-0.9706,192.3438
20:18:38:317,-1.0917,2.6504,10.7806,55.2185,0.1301,-0.2663,-0.9963,192.6094
20:18:38:338,-1.8888,2.7676,10.625,55.1593,0.5473,-0.1057,-0.7898,194.8594
20:18:38:357,-1.992,2.9734,10.3953,54.8116,0.5174,0.0128,-0.5815,195.0781
20:18:38:374,-1.7692,3.3972,10.8858,54.1834,0.372,0.0599,-0.3604,197.0938
20:18:38:393,-1.3502,3.7636,11.0369,53.6056,0.2498,0.1973,-0.1802,197.2969
20:18:38:413,-1.4414,3.8641,10.5844,53.1763,0.1833,0.3726,-0.1368,199.1719
20:18:38:433,-2.4538,4.0436,10.6561,52.7762,0.1148,0.3854,-0.2468,199.3594
20:18:38:456,-3.4618,3.7445,10.3137,52.4975,0.0574,0.361,-0.3628,200.75
20:18:38:474,-3.414,3.0619,9.9356,52.2614,0.0012,0.2132,-0.3867,200.8906
20:18:38:493,-2.5594,2.2265,10.436,51.8467,-0.1038,-0.1167,-0.3854,202.0625
20:18:38:514,-2.1188,1.3789,11.8819,51.6114,-0.2309,-0.4007,-0.4154,202.1875
20:18:38:534,-2.4682,0.9099,12.8539,51.5728,-0.2504,-0.3323,-0.3744,203.9844
20:18:38:555,-3.0428,0.6416,11.968,51.5946,-0.088,0.0623,-0.1759,204
20:18:38:575,-3.0284,0.766,10.1749,51.5792,0.1881,0.3488,0.1405,206.1406
20:18:38:593,-2.3868,1.4127,8.9133,51.6167,0.438,0.281,0.4135,208.3594
20:18:38:615,-1.3382,1.9343,8.3363,51.4141,0.5882,0.0257,0.5266,208.3594
20:18:38:640,-0.067,2.2002,8.2358,51.3553,0.6206,-0.2156,0.4722,209.9219
20:18:38:655,0.7038,2.3031,8.3004,51.325,0.5198,-0.3207,0.2657,209.9219
20:18:38:674,0.3903,2.1667,8.2813,51.5378,0.3048,-0.2847,-0.0226,210.5312
20:18:38:694,-0.3784,1.7477,8.31,51.7346,0.0867,-0.1851,-0.2395,210.5312
20:18:38:715,-1.0534,1.4127,8.1808,51.6626,-0.0116,-0.0916,-0.2895,210.8594
20:18:38:733,-1.5299,1.5514,7.7378,51.4914,0.0483,-0.0415,-0.193,210.8594
20:18:38:814,-1.5682,2.059,7.0914,51.3472,0.1857,-0.0513,-0.0293,211.6094
20:18:38:815,-1.4438,2.636,6.5934,51.2201,0.2767,-0.1112,0.1014,211.6094
20:18:38:815,-1.2903,3.122,6.6844,51.268,0.2694,-0.2022,0.1552,212.4531
20:18:38:816,-1.0989,3.3757,6.9476,51.2917,0.2065,-0.237,0.1381,212.5469
20:18:38:833,-1.063,3.4546,7.2063,51.1382,0.1124,-0.237,0.0629,213.1094
20:18:38:858,-1.2712,3.4068,8.3578,51.0917,-0.0971,-0.3115,-0.0721,213.1719
20:18:38:877,-1.2162,3.3326,9.0281,51.1441,-0.1521,-0.3378,-0.1038,212.5781
20:18:38:893,-1.2281,3.402,9.7989,51.1999,-0.1698,-0.3433,-0.1313,212.5312
20:18:38:915,-0.8716,3.3685,10.625,51.0466,-0.1674,-0.3714,-0.146,211.6094
20:18:38:932,-0.3305,3.122,11.6521,50.9672,-0.1698,-0.4728,-0.2046,211.5312
20:18:38:954,-0.0144,2.8394,12.9473,50.6708,-0.1796,-0.5632,-0.3195,211.3906
20:18:38:975,-0.2465,2.5331,13.7204,50.5476,-0.1545,-0.4807,-0.4099,211.3906
20:18:38:994,-0.9051,2.4586,13.4524,50.2183,-0.0623,-0.2511,-0.3983,211.9531
20:18:39:014,-0.8354,2.7197,12.2794,49.8841,0.0892,-0.0623,-0.2462,212
20:18:39:034,0.3305,2.892,11.3216,49.8398,0.2004,-0.0751,-0.069,212.2812
20:18:39:057,1.6998,3.0981,11.3121,49.8446,0.1747,-0.2468,-0.0476,212.2812
20:18:39:074,2.6097,2.648,11.8316,50.0842,0.0208,-0.3488,-0.2364,212.0781
20:18:39:094,2.1165,1.8673,12.2028,50.0209,-0.1564,-0.2468,-0.5217,211.9531
20:18:39:116,0.862,1.3525,11.5011,50.0238,-0.2034,0.0024,-0.6603,211.9531
20:18:39:140,0.2273,1.0223,10.692,50.0353,-0.1069,0.0757,-0.5846,212.1406
20:18:39:157,0.4406,0.9434,10.4336,50.313,0.077,-0.091,-0.4154,212.1406
20:18:39:176,0.9529,1.1539,10.1916,50.3717,0.3066,-0.2572,-0.2651,212.5
20:18:39:194,1.2305,1.6807,9.4232,50.3426,0.5058,-0.2449,-0.1619,212.5
20:18:39:216,1.3908,2.2289,8.0536,50.4098,0.5895,-0.0733,-0.1045,213.0156
20:18:39:240,1.3214,2.6838,6.7202,50.5085,0.5375,0.1002,-0.1216,213.0156
20:18:39:256,0.9673,3.0117,5.7793,50.821,0.4184,0.1564,-0.2126,213.9688
20:18:39:276,0.3568,3.2632,5.2262,51.1261,0.2914,0.0971,-0.3409,213.9688
20:18:39:294,-0.3066,3.4164,5.0563,51.2189,0.1509,-0.0086,-0.4697,214.6562
20:18:39:315,-0.9242,3.4738,5.4849,51.3763,-0.0458,-0.0996,-0.5614,214.7188
20:18:39:333,-1.2257,3.4618,6.4017,51.3748,-0.2883,-0.1264,-0.573,214.8906
20:18:39:355,-1.0319,3.1053,8.6139,51.5472,-0.6151,-0.0238,-0.4777,214.9219
20:18:39:376,-0.9697,3.0165,9.4065,51.4091,-0.6029,0.0605,-0.4148,215.75
20:18:39:394,-0.7588,3.0428,9.7008,51.2344,-0.4881,0.1209,-0.3262,215.8281
20:18:39:415,-0.4047,3.1125,10.0576,51.2767,-0.3506,0.0776,-0.2504,217.0625
20:18:39:432,-0.2393,3.2512,10.5509,51.2941,-0.2431,0.0043,-0.2193,217.1875
20:18:39:453,-0.6607,3.5886,10.9866,51.2492,-0.1784,0.0165,-0.2138,217.9219
20:18:39:475,-1.118,3.8713,11.1278,51.1293,-0.1191,0.1484,-0.1747,218
20:18:39:494,-1.1372,4.089,10.7255,51.2983,-0.033,0.3158,-0.0843,218.3281
20:18:39:514,-0.8979,4.1752,10.2993,51.1601,0.011,0.3824,-0.0226,218.3594
20:18:39:539,-0.8139,4.2162,10.6705,51.332,-0.0238,0.2853,-0.0409,218.6562
20:18:39:557,-1.0223,4.1082,11.2379,51.3895,-0.0586,0.1399,-0.1209,218.6875
20:18:39:575,-1.7309,3.8593,11.8962,51.1888,-0.044,0.0556,-0.2278,219.5469
20:18:39:595,-2.6647,3.5169,11.7455,51.2572,0.0171,0.1283,-0.2804,220.8438
20:18:39:616,-3.1125,3.0595,10.8787,51.2611,0.066,0.204,-0.237,220.8438
20:18:39:639,-2.8155,2.5259,10.7447,51.0047,0.0324,0.0825,-0.1484,221.9531
20:18:39:658,-2.0471,1.7118,11.5804,51.1278,-0.0428,-0.1057,-0.0806,221.9531
20:18:39:675,-2.1906,1.0415,12.2267,51.1002,-0.0263,-0.1136,-0.0373,222.7188
20:18:39:694,-2.9782,0.8378,11.4293,50.8779,0.1466,0.1423,0.0977,222.7188
20:18:39:716,-3.0428,1.063,9.5668,51.0349,0.3806,0.3775,0.3769,223.2188
20:18:39:733,-2.4467,1.5754,8.1903,50.9985,0.5046,0.3268,0.6444,223.2188
20:18:39:755,-0.8764,1.9534,7.8574,50.9351,0.4862,0.0519,0.7862,223.625
20:18:39:776,0.5865,2.3486,8.4607,51.1284,0.339,-0.2022,0.7196,223.625
20:18:39:794,1.0558,2.5065,9.3084,51.4694,0.069,-0.237,0.4526,223.6406
20:18:39:816,0.5626,1.8936,9.7511,51.4986,-0.179,-0.055,0.1252,223.6406
20:18:39:833,-0.2393,1.2736,9.7917,51.7241,-0.234,0.1411,-0.0916,223.7344
20:18:39:855,-0.7158,1.2903,9.3491,51.7901,-0.0855,0.3054,-0.1093,223.75
20:18:39:876,-0.644,2.7126,7.2685,51.8234,0.2963,0.5186,0.0996,224.2344
20:18:39:896,-0.1507,3.3374,6.3658,51.8851,0.3757,0.4563,0.1038,224.2812
20:18:39:915,-0.2106,3.6655,5.8295,51.8767,0.3598,0.2779,-0.0684,224.6406
20:18:39:939,-0.9553,3.6173,6.1361,51.9037,0.2242,0.0263,-0.3305,224.6719
20:18:39:958,-1.9008,3.2082,7.2326,51.9044,0.0104,-0.1503,-0.496,224.8125
20:18:39:974,-2.4179,2.7532,8.3698,52.0313,-0.1778,-0.1625,-0.4661,224.8281
20:18:39:993,-2.3749,2.5905,8.8271,52.0297,-0.248,-0.0605,-0.2859,224.3125
20:18:40:013,-2.0853,2.8346,9.198,52.3362,-0.2199,-0.0354,-0.0721,224.2656
20:18:40:034,-1.8003,3.189,9.9093,52.4342,-0.1271,-0.1387,0.077,222.8281
20:18:40:057,-1.5802,3.2824,9.8542,52.5373,0.0452,-0.2291,0.1356,222.6875
20:18:40:074,-1.5156,3.1053,9.6099,52.7015,0.1845,-0.35,0.1209,221.4844
20:18:40:094,-1.1037,2.9638,9.8638,52.7631,0.1955,-0.5027,0.1289,221.3906
20:18:40:115,-0.4478,3.1125,10.4169,52.6711,0.0965,-0.5369,0.1613,221.3906
20:18:40:133,0.2154,3.3709,11.1206,52.4877,-0.0495,-0.3958,0.1607,221.4062
20:18:40:154,0.3951,3.6846,10.8117,52.4894,-0.1704,-0.0996,0.1173,221.4062
20:18:40:175,0.201,3.7828,9.7439,52.4978,-0.2761,0.0757,0.025,221.0469
20:18:40:193,0.4167,3.4187,9.3323,52.3167,-0.4111,-0.0727,-0.1038,221.0469
20:18:40:215,1.3262,2.9351,9.5357,52.4303,-0.5968,-0.3628,-0.2046,221.4688
20:18:40:233,1.5467,2.7891,10.582,52.2669,-0.9083,-0.6066,-0.3213,221.4688
20:18:40:255,1.2951,2.2935,12.9832,52.1865,-1.218,-0.7098,-0.4716,222.5625
20:18:40:276,1.1372,1.6137,14.3216,52.0704,-1.196,-0.4728,-0.5149,222.5625
20:18:40:294,0.6607,1.1922,13.4429,51.9383,-0.8259,-0.0861,-0.4526,222.9219
20:18:40:315,0.4143,1.1085,11.7909,51.6638,-0.2957,-0.0043,-0.3366,222.9531
20:18:40:333,0.7612,1.1157,10.8069,51.4015,0.2132,-0.2975,-0.2407,222.8125
20:18:40:353,1.1013,1.0774,9.9356,51.2264,0.5693,-0.5559,-0.2529,222.7812
20:18:40:376,0.9601,1.0917,8.8869,50.7703,0.6646,-0.5931,-0.3464,222.6875
20:18:40:395,-0.0455,0.8524,7.5245,50.6591,0.3219,-0.3677,-0.5107,222.6719
20:18:40:417,-0.4047,0.7325,7.1847,50.4927,0.1655,-0.2547,-0.5186,222.5
20:18:40:434,-0.6894,0.8716,6.7083,50.3069,0.08,-0.1625,-0.4862,222.4844
20:18:40:454,-0.8234,1.1252,6.5958,50.251,0.0244,-0.1387,-0.4465,222.3281
20:18:40:475,-0.6368,1.3143,6.5025,50.3199,-0.0153,-0.1332,-0.419,222.3125
20:18:40:493,-0.5841,1.5012,6.1026,50.2977,-0.0849,-0.1057,-0.4319,222.6562
20:18:40:514,-0.7325,1.9199,6.1935,50.3202,-0.2627,-0.1472,-0.4728,222.6875
20:18:40:535,-0.711,2.1165,7.3786,50.3924,-0.5217,-0.2407,-0.5229,223.5938
20:18:40:556,-0.7038,2.004,8.5325,50.2489,-0.7373,-0.2352,-0.5809,223.6875
20:18:40:575,-0.7947,1.7883,9.2387,49.8441,-0.8619,-0.2059,-0.6115,224.7812
20:18:40:593,-0.754,1.896,10.4288,49.8241,-0.876,-0.3879,-0.5479,225.4688
20:18:40:616,-0.3353,2.5834,12.7558,49.5458,-0.7019,-0.7513,-0.4019,225.4688
20:18:40:639,0.0431,3.2058,14.2591,49.3288,-0.3097,-0.8222,-0.2981,226.2656
20:18:40:656,-0.1029,3.4283,13.7061,49.0533,0.1466,-0.4765,-0.2669,226.2656
20:18:40:677,-0.3688,3.5169,11.8579,48.9967,0.4251,-0.1051,-0.1845,227.4219
20:18:40:694,-0.0263,3.8091,11.5756,48.7567,0.4465,-0.1289,-0.0049,227.4219
20:18:40:716,0.5411,4.2832,12.454,48.4751,0.4062,-0.3427,0.1747,228.5781
20:18:40:740,0.7349,4.5081,12.7271,48.5856,0.4502,-0.3958,0.2327,228.5781
20:18:40:757,0.5841,4.532,12.5689,48.3475,0.5149,-0.295,0.1851,229.5781
20:18:40:777,0.1627,4.4483,11.7311,48.4534,0.5113,-0.0678,0.1362,229.5781
20:18:40:793,-0.2177,4.2879,10.7447,48.3736,0.3787,0.0892,0.1032,230.6094
20:18:40:877,-0.3066,3.778,10.8763,48.2562,0.1356,-0.0312,0.0391,230.6094
20:18:40:878,-0.201,2.7054,11.7024,47.9118,-0.0538,-0.325,-0.0507,231.7656
20:18:40:878,-0.4717,1.5251,12.7654,47.9313,-0.0531,-0.5956,-0.1344,231.8906
20:18:40:878,-0.8378,0.3832,13.0597,48.123,0.1533,-0.5968,-0.1057,233.125
20:18:40:894,-0.6272,-0.4932,12.1286,48.0289,0.4795,-0.3128,0.0849,233.25
20:18:40:918,0.9338,-0.5028,9.5548,48.1378,0.7294,0.0403,0.314,234.1094
20:18:40:933,1.1085,-0.1412,8.6019,48.0728,0.5589,0.7678,0.4209,234.1875
20:18:40:954,0.8186,-0.0479,7.6181,47.939,0.2957,1.1441,0.317,234.6875
20:18:40:975,0.7564,-0.0885,6.0739,47.8381,0.0996,1.3446,0.2425,234.7344
20:18:40:994,0.6607,0.1986,5.0061,47.7877,-0.0721,1.1288,0.2022,234.5938
20:18:41:015,0.2752,0.9601,5.5735,47.3292,-0.3158,0.6139,0.1613,234.5625
20:18:41:040,-0.0694,1.5227,7.3283,47.1034,-0.5516,0.2138,0.1374,234.1875
20:18:41:056,-0.0359,1.7142,8.2645,46.6762,-0.6151,0.1778,0.1894,234.1406
20:18:41:074,0.6631,2.2098,8.2358,46.3559,-0.5119,0.3482,0.3555,233.8594
20:18:41:094,1.9657,2.9542,7.8096,45.9916,-0.4001,0.5614,0.5492,233.8906
20:18:41:115,2.6527,3.9096,7.1369,45.8022,-0.369,0.6677,0.5663,233.8906
20:18:41:133,2.1188,4.4889,7.1225,45.7228,-0.4019,0.4862,0.284,234.2812
20:18:41:155,1.1013,4.1967,8.2119,45.6207,-0.383,0.0507,-0.1637,234.2812
20:18:41:174,0.0239,3.335,9.1143,45.8908,-0.2511,-0.3329,-0.5681,233.8125
20:18:41:193,-0.9912,2.406,9.9715,45.6644,-0.1087,-0.6102,-0.7831,233.8125
20:18:41:215,-1.4964,1.9487,10.9555,45.6169,-0.0031,-0.7642,-0.7709,232.7344
20:18:41:234,-1.7931,1.8386,11.6785,45.5042,0.0886,-0.7898,-0.6548,232.625
20:18:41:254,-1.5802,1.6735,12.1837,45.6905,0.1466,-0.7544,-0.5369,232.6094
20:18:41:275,-1.051,1.2449,12.6577,45.7276,0.1222,-0.7196,-0.4502,231.6094
20:18:41:293,-0.6535,0.9075,13.6869,45.5107,-0.0275,-0.6487,-0.358,230.9531
20:18:41:315,-0.2946,0.8477,14.7212,45.2743,-0.212,-0.43,-0.193,230.9531
20:18:41:339,-0.1819,1.0702,15.2001,44.9172,-0.2804,-0.1142,-0.0061,230.5781
20:18:41:354,0.1795,1.3813,14.7763,44.9699,-0.168,0.1552,0.1643,230.5469
20:18:41:375,1.2568,1.4581,13.8404,44.9958,0.0428,0.2651,0.2853,229.5469
20:18:41:393,2.3725,1.4749,13.1554,44.7497,0.182,0.2358,0.2871,229.4375
20:18:41:419,1.573,0.9793,12.7869,44.4638,0.1875,0.4099,0.0165,228.3594
20:18:41:439,1.3382,0.4525,11.9967,44.0744,0.3091,0.6719,0.0476,228.3594
20:18:41:457,1.6161,0.2946,10.5844,44.0535,0.5235,0.9089,0.2083,229.1094
20:18:41:474,1.8362,0.5913,8.6426,44.1481,0.7214,1.0317,0.3628,229.1875
20:18:41:494,1.8793,1.1898,7.1082,44.2796,0.8277,0.8576,0.4068,230.875
20:18:41:513,1.8482,1.7285,6.4905,44.0215,0.8362,0.4844,0.317,231.0469
20:18:41:534,1.908,1.9582,6.2677,44.0254,0.7776,0.1973,0.1662,232.3906
20:18:41:556,1.9729,1.9487,5.8104,44.0981,0.6622,0.1081,0.0195,232.5312
20:18:41:573,1.7955,2.0973,5.3414,43.8761,0.4728,0.1002,-0.1148,233.4844
20:18:41:593,1.4725,2.3701,5.3605,44.0379,0.2138,0.0812,-0.2285,233.8906
20:18:41:614,1.0415,2.406,5.7553,44.0084,-0.0483,0.0654,-0.3402,233.8906
20:18:41:634,0.4717,2.3988,6.2653,43.7448,-0.2236,0.0513,-0.441,233.3594
20:18:41:656,0.0287,2.3821,6.8638,43.6265,-0.2969,0.0171,-0.4923,233.3594
20:18:41:675,-0.0072,2.4873,7.3834,43.5778,-0.2816,-0.0293,-0.4777,232.8125
20:18:41:693,0.2034,2.9471,7.8072,43.4064,-0.2431,-0.1032,-0.4374,232.8125
20:18:41:714,0.6057,3.4762,8.8702,43.3049,-0.2449,-0.2474,-0.4215,232.625
20:18:41:739,0.9721,3.6511,10.1605,43.3247,-0.237,-0.3372,-0.4716,232.6094
20:18:41:757,0.711,3.7062,10.8571,43.3037,-0.1381,-0.292,-0.5601,232.6094
20:18:41:775,-0.0383,3.8737,11.1541,43.2628,0.0428,-0.2107,-0.6084,231.7188
20:18:41:793,-0.7038,4.156,11.1876,43.3906,0.2639,-0.1417,-0.5803,230.75
20:18:41:815,-1.209,4.3932,10.5293,43.4936,0.474,-0.0397,-0.5204,230.75
20:18:41:833,-1.4725,4.4602,9.8375,43.3254,0.5626,0.0232,-0.471,230.5156
20:18:41:854,-1.6519,4.4124,10.1318,43.1757,0.474,0.0281,-0.4404,230.5
20:18:41:876,-2.2146,3.8617,10.9337,43.0587,0.317,0.1521,-0.3971,230.8125
20:18:41:893,-3.0909,2.9303,11.6258,43.1208,0.2388,0.4661,-0.2413,230.8594
20:18:41:917,-3.9311,2.5953,11.1613,43.0124,0.2981,1.2449,0.5314,231.6875
20:18:41:941,-4.532,3.4881,9.562,42.8075,0.1668,1.2932,0.8564,231.6875
20:18:41:956,-2.0471,4.7617,7.9531,42.6676,-0.1442,0.9205,0.8839,232.6406
20:18:41:975,-0.9649,3.1962,10.4791,42.5554,-0.463,0.3128,0.6487,232.7344
20:18:41:993,-1.1922,2.1882,13.4955,42.6208,-0.5345,-0.0757,0.4618,233.6406
20:18:42:013,-2.1763,1.9753,13.5745,42.5318,-0.2456,0.1258,0.4478,233.7344
20:18:42:035,-2.3007,2.0686,10.8882,42.5435,0.2083,0.4453,0.5711,234.8438
20:18:42:058,-1.8458,2.3868,8.6689,42.4734,0.5272,0.3164,0.6622,236.2031
20:18:42:074,-0.9075,2.8226,8.2669,42.5681,0.5455,-0.0739,0.6964,236.2031
20:18:42:094,-0.0646,3.1842,8.4775,42.5024,0.3341,-0.306,0.653,237.4375
20:18:42:113,0.3736,2.9088,8.8439,42.5773,0.0318,-0.3244,0.518,237.4375
20:18:42:134,0.1962,2.3246,8.5588,42.3468,-0.2083,-0.2266,0.3573,238.3438
20:18:42:156,-0.2584,1.9872,8.3626,42.302,-0.3109,-0.2315,0.2578,238.3438
20:18:42:174,-0.3162,1.9008,8.3746,42.5064,-0.2468,-0.3415,0.2401,238.3594
20:18:42:193,-0.1938,1.8051,7.9364,42.763,-0.0617,-0.408,0.2346,238.2969
20:18:42:215,-0.443,1.9343,7.4121,42.6941,0.1289,-0.4239,0.2517,238.2969
20:18:42:239,-0.577,2.4945,7.0244,42.3417,0.2413,-0.4148,0.3488,236.3438
20:18:42:255,-0.3832,3.3302,6.5121,42.5303,0.2724,-0.4038,0.4471,234.3906
20:18:42:274,-0.3425,3.8091,6.3108,42.5126,0.2431,-0.4667,0.416,234.3906
20:18:42:294,-0.4693,3.9215,7.0074,42.6802,0.1515,-0.595,0.2938,233.3125
20:18:42:316,-0.6057,3.955,8.2502,42.8114,0.0269,-0.6188,0.1912,233.3125
20:18:42:341,-0.6416,3.9455,9.5764,42.749,-0.0464,-0.485,0.1319,231.875
20:18:42:355,-0.8907,3.6559,10.2754,42.7768,0.0086,-0.3115,0.0794,231.875
20:18:42:376,-1.4198,3.3733,10.0648,42.6905,0.2071,-0.2126,0.0489,230.6406
20:18:42:394,-1.9032,3.4451,9.3084,42.9742,0.3873,-0.1759,0.0861,230.5156
20:18:42:416,-1.5586,3.4618,9.009,42.7273,0.3751,-0.1808,0.1698,229.7188
20:18:42:441,-0.7756,3.766,9.2124,42.804,0.1735,-0.1521,0.234,229.6406
20:18:42:456,-0.0742,4.0771,10.0241,42.6718,-0.1356,-0.1087,0.2211,229.2188
20:18:42:476,-0.5004,3.5408,13.0693,42.7117,-0.5217,-0.1509,0.0538,229.1719
20:18:42:493,0.1053,3.2417,13.4213,42.509,-0.46,-0.0831,0.1106,228.8281
20:18:42:514,1.5299,3.2512,13.2778,42.3209,-0.3769,0.0275,0.2242,228.7969
20:18:42:535,3.0933,3.4068,12.8085,42.4567,-0.3378,0.1735,0.2584,228.1562
20:18:42:555,3.5982,3.0452,12.4875,42.1908,-0.3286,0.2895,0.0886,227.5781
20:18:42:574,2.6647,2.4132,12.4732,42.277,-0.2694,0.3561,-0.1594,227.5781
20:18:42:593,1.8769,1.9729,11.1517,41.9062,-0.0593,0.5058,-0.2492,227.4062
20:18:42:614,1.9657,1.9825,9.2291,41.7525,0.2052,0.5143,-0.1839,227.4062
20:18:42:640,2.4514,2.3414,8.2047,41.3247,0.35,0.2535,-0.1319,227.3438
20:18:42:654,3.0885,2.5208,8.068,41.2758,0.3354,-0.0379,-0.1863,227.3438
20:18:42:675,3.1531,2.4634,8.3554,41.2101,0.1924,-0.146,-0.3494,227.3438
20:18:42:693,2.758,2.3486,8.499,40.9575,0.0153,-0.0513,-0.5351,227.1406
20:18:42:715,2.1715,2.2528,8.4009,41.0272,-0.0867,0.0819,-0.678,227.1406
20:18:42:740,1.5993,2.3725,7.9843,40.7587,-0.0794,0.1399,-0.7758,226.6875
20:18:42:755,0.9721,2.5522,7.5365,40.8778,-0.0257,0.1362,-0.8637,226.6875
20:18:42:776,0.0957,2.2816,7.156,40.8009,0.0202,0.1442,-0.9328,226.5781
20:18:42:793,-0.6583,2.0949,6.725,40.9252,0.0452,0.1564,-0.8766,226.2344
20:18:42:815,-0.7301,2.6791,6.428,40.8503,0.0232,0.1191,-0.6854,226.2344
20:18:42:834,-0.7564,3.1699,6.7657,40.7442,-0.0751,0.036,-0.5406,225.7812
20:18:42:855,-0.8835,3.4977,7.2446,40.4755,-0.2004,-0.0214,-0.4655,225.7812
20:18:42:875,-0.3257,3.7516,8.2813,40.3242,-0.2895,-0.0965,-0.4099,226.0469
20:18:42:939,0.1125,4.1608,9.3275,40.2657,-0.3201,-0.0983,-0.4154,226.0781
20:18:42:940,-0.0622,4.1201,10.0361,40.0257,-0.2822,-0.0061,-0.5039,226.2656
20:18:42:940,-1.0941,3.9144,10.6944,39.7771,-0.1881,0.0825,-0.5901,226.2812
20:18:42:959,-2.3294,3.9694,10.8452,39.471,0.2272,0.0012,-0.4416,226.8438
20:18:42:977,-2.3174,4.2185,10.4192,39.3252,0.3903,-0.0507,-0.295,226.9062
20:18:42:993,-2.0997,4.4243,10.3591,39.0262,0.3885,-0.0403,-0.1845,228.1094
20:18:43:014,-2.1308,4.6421,11.0441,38.9707,0.2242,0.0922,-0.1301,228.2188
20:18:43:039,-2.2528,4.8362,11.7909,38.6481,0.022,0.3903,-0.1063,229.8125
20:18:43:054,-2.8729,4.666,12.3679,38.4419,-0.0519,0.6567,-0.1142,229.9844
20:18:43:073,-3.4618,4.7883,11.6306,38.2993,0.124,0.711,-0.0812,231.7344
20:18:43:094,-3.7301,4.7091,10.3783,38.5107,0.3537,0.5461,-0.0409,233.125
20:18:43:114,-3.5886,4.0986,9.8375,38.5766,0.4496,0.2107,-0.0116,233.125
20:18:43:139,-3.2943,2.6169,10.424,38.6689,0.3964,-0.1631,0.0006,234.125
20:18:43:155,-3.8258,1.2592,12.186,38.729,0.3121,-0.4612,0.0702,234.2188
20:18:43:174,-4.1321,0.8907,13.1195,38.5574,0.3677,-0.3317,0.3189,234.2188
20:18:43:194,-3.3876,1.4605,10.3759,38.7239,0.6053,0.2199,0.6658,235.2344
20:18:43:215,-2.5451,2.0064,6.5623,38.7561,0.7434,0.5259,0.8698,235.2344
20:18:43:238,-2.1141,2.1236,5.2693,38.5349,0.5039,0.3506,0.9028,236.4688
20:18:43:256,-1.9104,2.3342,6.6867,38.415,0.0385,0.036,0.887,236.4688
20:18:43:276,-1.8649,2.1811,8.9563,38.1978,-0.2895,-0.1411,0.8362,237.3125
20:18:43:293,-1.8123,1.5084,10.3977,37.9491,-0.325,-0.08,0.7782,237.6719
20:18:43:315,-1.4028,1.3908,9.9547,37.6244,-0.1582,0.1765,0.8045,237.6719
20:18:43:340,-1.0032,1.8697,8.2932,37.6827,0.0385,0.3531,0.8436,237.7344
20:18:43:354,-0.9817,2.1428,7.436,37.2779,0.1435,0.3079,0.8008,237.7344
20:18:43:376,-1.1324,2.3844,6.7848,37.2662,0.146,0.3237,0.7477,237.6719
20:18:43:394,-1.2305,2.6862,6.1361,37.3559,0.0922,0.4093,0.7061,237.6562
20:18:43:415,-1.386,2.9495,5.7051,37.2052,0.0006,0.4539,0.6548,237.7031
20:18:43:438,-1.6519,3.0117,5.9088,37.076,-0.1558,0.4649,0.5986,237.7188
20:18:43:457,-1.8075,3.1268,6.5815,37.0193,-0.3451,0.5039,0.5815,237.5156
20:18:43:477,-1.7548,3.5408,7.4097,37.1736,-0.4917,0.5577,0.5944,237.4844
20:18:43:493,-1.8529,3.6221,9.8997,36.8191,-0.5107,0.5192,0.551,235.8906
20:18:43:515,-2.0614,3.7684,10.5604,36.9789,-0.3879,0.5956,0.576,235.7344
20:18:43:539,-1.7094,4.2329,10.4025,36.7706,-0.2431,0.6909,0.6249,233.8906
20:18:43:556,-0.7899,5.1784,8.6354,36.5463,-0.0971,0.5101,0.5889,232.0938
20:18:43:573,-1.0128,3.8545,9.8157,36.2117,0.0238,-0.3115,0.3671,232.0938
20:18:43:593,-0.9769,3.6559,11.9584,36.1292,-0.1393,-0.7135,0.3066,230.1719
20:18:43:613,-0.6368,4.0484,14.1682,35.877,-0.2828,-0.6481,0.3237,230.1719
20:18:43:636,-0.122,4.343,13.5673,35.5618,-0.2346,-0.2816,0.2407,228.3281
20:18:43:656,0.3473,4.0914,11.3743,35.3135,-0.1032,-0.1442,0.1222,228.1719
20:18:43:678,0.9625,3.7181,10.4862,34.91,-0.0513,-0.4704,0.0177,228.1406
20:18:43:712,1.063,3.0308,11.5229,34.4769,-0.0977,-0.8479,-0.1045,226.4688
20:18:43:720,0.3544,2.557,12.5904,34.2749,-0.157,-0.7923,-0.1619,226.4531
20:18:43:733,-0.2776,2.2576,12.1214,34.1726,-0.0916,-0.3714,-0.1026,224.9062
20:18:43:754,-0.1292,2.26,9.9811,33.8238,0.1112,-0.0153,0.066,223.3125
20:18:43:774,0.3903,2.7006,8.2071,33.8393,0.2602,-0.0257,0.2327,223.3125
20:18:43:793,1.0247,3.1101,7.4456,33.737,0.2236,-0.2682,0.2785,221.7812
20:18:43:815,1.4151,3.2512,8.0465,33.7753,0.0373,-0.5546,0.1704,221.7812
20:18:43:833,1.5371,2.9806,9.4448,33.6558,-0.1564,-0.6787,-0.0452,220.1719
20:18:43:858,1.1922,2.4802,10.005,33.7366,-0.2364,-0.4575,-0.2749,220.1719
20:18:43:874,-0.0526,1.9872,8.997,33.3998,-0.1594,-0.0953,-0.4539,219.625
20:18:43:893,-1.1994,1.8577,8.0847,33.096,-0.0037,-0.0232,-0.4313,219.625
20:18:43:914,-1.0008,2.0231,7.5006,33.101,0.1448,-0.1216,-0.2297,219.2031
20:18:43:933,-0.4645,2.5857,7.2326,32.6681,0.2223,-0.1503,-0.0483,219.1719
20:18:43:957,-0.201,3.2991,7.1178,32.4163,0.193,-0.0727,0.0354,219.125
20:18:43:976,-0.3688,3.8186,7.5197,32.005,0.0513,0.0727,0.0086,219.125
20:18:43:994,-0.3185,3.9263,7.448,31.7131,0.0379,0.1319,0.0018,219.6719
20:18:44:015,-0.4071,4.089,7.235,31.3268,-0.0391,0.1888,-0.0183,219.7344
20:18:44:034,-0.6248,4.1321,7.6325,30.9887,-0.2114,0.102,-0.0525,219.8438
20:18:44:056,-0.6464,3.9263,8.9372,30.6984,-0.3793,-0.1106,-0.0635,219.4062
20:18:44:073,-0.8186,3.7851,10.6705,30.0683,-0.4337,-0.27,-0.0409,219.4062
20:18:44:094,-1.1204,3.9024,11.7718,29.8489,-0.3048,-0.2034,0.0409,219.4688
20:18:44:114,-1.319,4.1871,11.688,29.4928,-0.0367,0.0886,0.179,219.4688
20:18:44:137,-1.1635,4.6756,10.9747,29.347,0.2352,0.3812,0.3451,219.4688
20:18:44:154,-0.7325,5.1616,10.1486,29.1124,0.3934,0.5357,0.4667,220.2969
20:18:44:173,-0.5865,5.4132,9.9619,29.0838,0.4142,0.4795,0.4795,220.375
20:18:44:194,-0.8931,5.2167,10.2371,28.9479,0.3958,0.3286,0.4166,221.1406
20:18:44:214,-1.4366,4.6828,10.4743,28.7754,0.4276,0.2126,0.3396,221.1406
20:18:44:238,-2.1045,4.2377,10.5317,28.7751,0.4893,0.2291,0.3207,221.2031
20:18:44:254,-2.8107,4.1273,9.8877,28.5515,0.5101,0.5314,0.4251,221.2031
20:18:44:275,-3.3039,4.2162,8.7482,28.3858,0.4386,0.8674,0.6096,221.1406
20:18:44:293,-3.2752,3.9359,7.867,28.269,0.2938,0.8711,0.7587,221.0938
20:18:44:315,-2.904,3.1747,8.1039,28.2392,0.1106,0.4936,0.802,221.0938
20:18:44:333,-3.0595,2.4538,9.8279,27.9069,-0.0464,-0.011,0.7813,221.2188
20:18:44:354,-3.3829,1.9463,10.6514,27.8428,-0.0568,-0.066,0.8619,221.2188
20:18:44:375,-3.2824,1.6639,10.1438,27.6466,0.0623,0.1692,1.0519,221.3125
20:18:44:394,-2.9566,1.7668,9.3873,27.6256,0.1692,0.2114,1.2266,221.3125
20:18:44:415,-2.3198,2.1212,9.1454,27.5617,0.1668,0.0483,1.3635,220.7031
20:18:44:439,-1.2042,2.272,9.3227,27.5059,0.0513,-0.0867,1.435,220.6562
20:18:44:454,-0.1795,2.1835,9.3443,27.3885,-0.1087,0.0031,1.3855,219.5312
20:18:44:474,-0.1053,1.8386,8.9492,26.9992,-0.2706,0.2443,1.2309,219.4219
20:18:44:495,-0.6224,1.4438,8.298,26.7593,-0.5559,0.4404,1.1032,218.5625
20:18:44:515,-0.9817,1.4605,8.5469,26.5575,-0.5901,0.2993,1.2125,218.4688
20:18:44:533,-0.6894,1.9199,8.7266,26.2402,-0.4923,0.339,1.3304,217.5781
20:18:44:555,-0.8139,2.3797,8.0584,25.9812,-0.3244,0.6622,1.3665,217.5
20:18:44:574,-1.2233,2.825,6.8662,25.7745,-0.2449,0.9975,1.3176,215.7812
20:18:44:594,-1.4103,3.2584,6.1576,25.5109,-0.3531,1.0201,1.226,215.5938
20:18:44:614,-1.3478,3.3685,6.8255,25.0544,-0.5742,0.6701,1.1185,213.9219
20:18:44:638,-1.2568,3.2943,8.1832,24.8805,-0.7324,0.2413,1.036,213.75
20:18:44:655,-0.7301,2.9183,9.2052,24.8358,-0.7495,-0.0745,1.0262,211.8125
20:18:44:673,-0.2922,2.8681,9.9643,24.5963,-0.6945,-0.1393,1.0439,211.625
20:18:44:693,-0.1244,3.026,10.5054,24.7544,-0.5827,0.0421,1.0433,208.7188
20:18:44:714,0.3664,2.9901,10.917,24.592,-0.4019,0.1839,1.0336,208.7031
20:18:44:742,1.0463,3.0428,11.2953,24.4497,-0.2016,0.1643,1.0067,205.6406
20:18:44:753,1.561,3.3541,12.1621,24.11,-0.066,-0.0764,0.9456,205.6094
20:18:44:774,2.0183,3.3685,13.4524,24.2096,0,-0.3231,0.8796,202.9062
20:18:44:794,2.5427,2.8633,13.6678,24.196,0.0464,-0.1142,0.8589,200.2031
20:18:44:815,2.9542,2.7317,12.4947,24.0252,0.0702,0.4771,0.8662,200.2031
20:18:44:833,3.213,2.7413,10.5891,23.8092,-0.0006,0.8582,0.8308,197.0312
20:18:44:854,3.3374,2.4491,9.3323,23.5271,-0.2853,0.678,0.7348,197.0312
20:18:44:874,2.6432,1.9729,10.261,23.5444,-0.7177,-0.0122,0.5913,193.8281
20:18:44:894,2.327,1.2425,13.2754,23.156,-0.9719,-0.9468,0.471,193.8281
20:18:44:915,2.6791,0.3544,14.5872,23.2078,-0.7837,-1.4007,0.5296,191.5
20:18:44:938,3.7301,0.0885,14.1826,23.2545,-0.3323,-1.1747,0.7575,191.2812
20:18:44:956,4.3047,0.431,12.2674,22.9637,0.1393,-0.2669,0.8595,189.25
20:18:45:010,3.3685,1.1515,9.7534,22.9787,0.4826,0.4581,0.6945,189.0469
20:18:45:010,2.004,1.5586,8.5923,23.0333,0.6218,0.3543,0.4276,186.9375
20:18:45:018,0.6464,0.8453,7.6301,22.7584,0.5595,0.1692,0.1655,186.7344
20:18:45:038,-0.0742,0.699,7.1919,22.5848,0.4728,0.2657,0.157,184.7656
20:18:45:055,-0.2465,0.8859,6.4857,22.7976,0.4001,0.4013,0.2553,184.5781
20:18:45:073,0.1866,1.4342,5.5496,22.6865,0.3066,0.5198,0.3922,182.8906
20:18:45:093,0.6655,2.2504,5.0252,22.2986,0.1228,0.5339,0.4471,182.7188
20:18:45:113,0.7899,2.8968,5.3318,22.1197,-0.1417,0.394,0.3873,180.8281
20:18:45:133,0.8835,3.1747,6.1528,21.9536,-0.3818,0.2046,0.284,180.6406
20:18:45:154,0.9577,3.4116,7.0699,21.8861,-0.5327,0.033,0.1845,179.2344
20:18:45:174,1.13,3.7564,7.9531,22.0578,-0.6188,-0.0941,0.0819,179.0938
20:18:45:192,1.4004,3.8043,8.7912,22.087,-0.6835,-0.2187,-0.0428,178.3594
20:18:45:213,1.4821,3.4403,9.8255,21.8666,-0.7318,-0.3714,-0.171,178.3594
20:18:45:233,1.2425,3.0021,11.1876,21.9431,-0.7257,-0.4765,-0.234,176.7812
20:18:45:253,0.7612,2.7772,12.3655,21.8907,-0.6255,-0.339,-0.1643,175.3594
20:18:45:274,0.3257,2.7604,12.6096,21.9405,-0.4355,0.0635,0.0263,175.3594
20:18:45:293,-0.0407,2.6767,12.3535,21.7723,-0.1973,0.4313,0.2566,174.7969
20:18:45:314,-0.6918,2.6671,11.8173,21.8041,-0.0024,0.6127,0.4936,174.7969
20:18:45:336,-0.9338,3.3182,11.8005,21.6521,0.055,0.609,0.7813,174.1875
20:18:45:353,-0.565,3.5886,12.3033,21.4871,0.0855,0.4899,1.0048,174.1875
20:18:45:374,-0.8644,2.8944,12.4852,21.5041,0.1356,0.5516,1.0244,173.0938
20:18:45:393,-1.2281,3.0404,12.0302,21.406,0.1038,0.8094,1.0904,173.0938
20:18:45:414,-0.5148,3.4116,11.5011,21.5617,-0.044,0.9138,1.309,172.2812
20:18:45:436,0.7995,3.1723,10.7614,21.4174,-0.1613,0.6005,1.3916,172.2812
20:18:45:453,1.4701,2.8561,11.9225,21.3828,-0.1613,-0.2358,1.1576,172.0625
20:18:45:473,0.9099,2.4251,13.6558,21.3001,0.0342,-0.8643,0.7617,172.0312
20:18:45:493,0.0287,1.7453,12.7104,21.1221,0.4178,-0.6536,0.5033,172.375
20:18:45:515,-0.5076,1.2329,10.1127,21.0702,0.9499,-0.0031,0.5571,172.4062
20:18:45:536,-0.8163,1.1922,7.9819,21.0269,0.912,-0.27,0.7086,172.9375
20:18:45:553,0.2512,2.1188,7.8622,20.8936,0.7782,-0.6304,0.8362,173
20:18:45:573,1.3502,2.5929,8.4535,20.8602,0.5882,-0.741,0.7984,172.7031
20:18:45:592,1.5945,2.0973,8.554,20.8127,0.3598,-0.6762,0.5461,172.6719
20:18:45:613,1.1707,1.8314,9.2677,20.7527,0.1857,-0.6799,0.2993,171.2969
20:18:45:635,0.5004,1.4366,9.8686,20.6518,0.0324,-0.5009,0.1637,171.1562
20:18:45:653,0.0574,1.3597,9.8399,20.6905,-0.0177,-0.0721,0.1741,169.0312
20:18:45:673,-0.268,1.5084,9.119,20.8298,0.0428,0.5388,0.2688,168.8125
20:18:45:698,-0.5435,1.9271,7.8957,21.1135,0.11,1.1111,0.3671,166.2656
20:18:45:713,-0.6488,2.5403,6.9715,21.171,0.11,1.3635,0.4349,166
20:18:45:737,-0.5387,2.9949,6.7513,21.1293,0.0446,1.2932,0.4416,163.1719
20:18:45:753,-0.28,3.2656,7.1393,21.3797,-0.0605,1.1313,0.4038,163.1406
20:18:45:774,0.2321,3.2417,7.7856,21.4376,-0.1509,1.0134,0.3512,161.8906
20:18:45:793,0.4358,3.3135,8.3459,21.2603,-0.2205,0.8918,0.2853,160.7188
20:18:45:814,0.1603,3.4522,9.3371,21.3805,-0.2981,0.6017,0.1912,160.7188
20:18:45:835,-0.2273,3.6413,10.7136,21.2066,-0.3317,0.2248,0.0971,159.0469
20:18:45:853,-0.431,3.4546,11.956,20.9033,-0.3103,-0.0214,0.0171,159.0469
20:18:45:874,-0.376,2.9207,12.478,20.8434,-0.2431,-0.0635,-0.0147,157.7031
20:18:45:893,-0.1029,2.4299,12.3177,20.8412,-0.124,0.0342,0.0238,157.7031
20:18:45:914,-0.067,2.1763,11.4915,20.7366,0.0031,0.2217,0.0916,157.3438
20:18:45:935,0.012,2.2959,10.3184,20.7791,0.0458,0.4233,0.2022,157.3438
20:18:45:953,0.8692,2.4945,9.0903,20.9285,-0.058,0.5162,0.3085,156.8281
20:18:45:974,2.071,2.1595,8.5038,20.7298,-0.2914,0.2889,0.2309,156.7812
20:18:45:993,2.569,1.0367,9.8471,20.7082,-0.5644,-0.3439,-0.0721,155.6406
20:18:46:013,2.1236,0.1149,12.4086,20.754,-0.7,-1.025,-0.3848,155.5312
20:18:46:035,1.3454,-0.5746,14.1156,20.7351,-0.2242,-1.4514,-0.4807,154.375
20:18:46:053,1.4486,-0.4645,12.8037,20.7351,0.2175,-0.9578,-0.3286,154.25
20:18:46:073,1.494,0.012,10.1916,20.8212,0.6493,-0.2908,-0.1979,153.375
20:18:46:093,1.4988,0.7971,7.8431,20.9753,0.835,0.0605,-0.1533,153.2812
20:18:46:112,1.6807,1.5562,6.2222,20.8828,0.7672,0.1167,-0.1545,152.8906
20:18:46:134,1.7357,2.0064,5.4179,21.0785,0.5492,0.0232,-0.2425,152.8594
20:18:46:153,1.5036,2.3797,4.5607,21.2271,0.284,-0.0458,-0.4374,152.875
20:18:46:174,0.9458,2.4754,4.4961,21.1371,0.0104,-0.2584,-0.7129,152.875
20:18:46:194,0.6224,2.2768,5.4658,21.1799,-0.1826,-0.5492,-0.937,152.7344
20:18:46:214,0.3401,1.9367,6.3443,21.2423,-0.3066,-0.6396,-1.0879,152.7188
20:18:46:237,-0.0694,1.5251,6.8877,21.3628,-0.3946,-0.5601,-1.1704,152.0469
20:18:46:254,-0.5698,1.4677,7.3164,21.3095,-0.5021,-0.4416,-1.0818,152.0312
20:18:46:275,-0.5889,1.5921,8.3746,21.4878,-0.609,-0.4172,-0.8228,151.8594
20:18:46:293,0.0622,1.8218,9.4232,21.4396,-0.6475,-0.3818,-0.5247,153.1406
20:18:46:314,0.8163,2.26,10.3089,21.5272,-0.6176,-0.3292,-0.3054,153.1406
20:18:46:338,1.3406,2.7102,11.3527,21.6574,-0.5601,-0.2963,-0.2217,154.2812
20:18:46:355,1.3214,2.8872,12.0736,22.0303,-0.4972,-0.2089,-0.234,154.2812
20:18:46:375,1.063,2.6408,12.2889,21.9693,-0.416,-0.0507,-0.2376,154.625
20:18:46:393,0.5698,2.3629,11.9154,21.75,-0.3024,0.1338,-0.1234,154.625
20:18:46:414,0.1292,2.4179,11.3384,21.6409,-0.1564,0.2651,0.1515,154.9844
20:18:46:437,0.2058,2.7604,10.8284,21.814,0.0055,0.3555,0.5186,154.9844
20:18:46:454,0.6105,3.2776,10.3905,22.0254,0.102,0.4423,0.8124,156.1406
20:18:46:474,1.0032,3.6894,10.5365,21.9794,0.0336,0.5327,0.9034,156.2656
20:18:46:493,0.7469,3.6461,10.6226,22.2471,-0.2138,0.6139,0.8045,158.4531
20:18:46:514,-0.0718,3.1723,11.5277,21.982,-0.4319,0.5406,0.7086,158.6719
20:18:46:533,-1.1946,2.4419,12.0589,21.9458,-0.5021,0.5345,0.6866,161.0938
20:18:46:554,-2.8801,1.3621,11.2427,22.058,-0.3421,0.4661,0.8833,161.3438
20:18:46:576,-2.1332,0.7421,12.6888,22.0454,-0.2254,-0.1533,1.0702,162.8594
20:18:46:593,-1.1013,0.0144,14.5059,21.9456,-0.0421,-0.6487,1.2339,163.0156
20:18:46:615,-0.6679,-0.565,15.0805,21.9148,0.281,-0.6304,1.3623,163.6875
20:18:46:639,-0.5626,-0.6655,13.9026,21.9325,0.6719,-0.1381,1.5235,163.75
20:18:46:655,-0.2922,-0.2608,11.3073,21.7324,0.9786,0.4618,1.6909,164.3125
20:18:46:675,0.3233,0.5985,9.0497,21.5664,1.0427,0.7782,1.7721,164.3594
20:18:46:695,1.0989,1.4749,7.879,21.5725,0.8906,0.821,1.7104,164.3281
20:18:46:713,1.8721,1.9008,7.1536,21.4442,0.664,0.7416,1.4881,164.3281
20:18:46:738,2.1428,1.9295,7.0292,21.4339,0.4154,0.5693,1.1209,162.7969
20:18:46:755,1.9777,1.6807,7.7641,21.3756,0.1582,0.347,0.7098,162.7969
20:18:46:775,1.5634,1.13,8.7553,21.2368,0.0189,0.1979,0.3665,160.8281
20:18:46:794,1.0008,0.6224,8.8008,21.1954,0.0764,0.1558,0.1472,159.25
20:18:46:815,0.2225,0.3736,8.3554,20.9711,0.2468,0.088,0.0672,159.25
20:18:46:838,-0.1125,0.5626,7.6205,21.0937,0.383,0.0556,0.1289,157.4219
20:18:46:856,0.0239,1.1492,6.9787,21.2408,0.4044,0.077,0.2474,157.4219
20:18:46:876,0.3903,1.9032,6.7131,21.6767,0.3036,0.149,0.3305,154.9375
20:18:46:894,0.7899,2.406,6.6245,21.8119,0.1228,0.2895,0.3366,154.9375
20:18:46:915,0.6129,2.6025,6.8806,21.9513,-0.1466,0.4685,0.2676,151.7656
20:18:46:939,0.5004,2.6623,7.3929,21.9525,-0.3464,0.493,0.2217,151.7656
20:18:46:955,0.6272,2.7054,7.9914,21.9878,-0.3659,0.2969,0.2291,147.7656
20:18:46:975,0.5363,2.8083,8.3076,22.1952,-0.3274,0.0776,0.2156,147.7656
20:18:46:993,0.5171,2.9016,8.9755,22.3953,-0.3286,-0.1564,0.1997,144.3594
20:18:47:071,0.7828,2.8059,10.1677,22.3441,-0.361,-0.4233,0.1698,144.0156
20:18:47:072,1.0845,2.4538,11.2666,22.2422,-0.3726,-0.6463,0.1038,142.0625
20:18:47:072,1.3932,2.3629,12.1621,22.3116,-0.4154,-0.8405,-0.0819,141.875
20:18:47:076,1.6543,2.0997,13.2969,22.5242,-0.4471,-0.6762,-0.2059,141.3125
20:18:47:094,1.7644,0.9434,13.6582,22.9007,-0.5626,-0.3482,-0.2193,141.25
20:18:47:115,1.7142,1.0032,13.5171,23.187,-0.7202,-0,-0.226,141.0156
20:18:47:137,2.3749,0.833,13.5721,23.6396,-0.6756,-0.0489,-0.2541,141
20:18:47:155,2.394,0.4238,14.1467,23.5668,-0.6597,-0.0843,-0.3683,140.3906
20:18:47:174,1.8123,-0.1029,14.0438,23.7466,-0.4807,-0.0342,-0.5009,140.3281
20:18:47:194,0.9625,-0.6631,13.0095,24.0183,-0.1533,0.1484,-0.5186,139.6406
20:18:47:214,0.268,-0.9123,10.8715,24.1603,0.234,0.4184,-0.3653,139.5625
20:18:47:236,0.0622,-0.5435,8.7769,24.3036,0.5186,0.5504,-0.0874,139.0469
20:18:47:256,0.8716,0.3305,7.6636,24.3527,0.6182,0.3989,0.1729,138.9844
20:18:47:276,2.1188,1.1731,7.5126,24.3605,0.5638,0.0898,0.2169,138.5469
20:18:47:294,2.8322,1.6974,7.8191,24.4227,0.4331,-0.1704,-0.0287,138.375
20:18:47:315,2.624,1.6137,8.3076,24.7761,0.2627,-0.2669,-0.4496,138.375
20:18:47:338,1.7357,1.0487,8.7362,24.9305,0.102,-0.1894,-0.8527,138.6094
20:18:47:354,0.7564,0.2898,8.7003,25.2043,0.0263,-0.0086,-1.0855,138.6094
20:18:47:376,0.012,-0.1005,8.5421,25.229,0.0238,0.1729,-1.105,139.2031
20:18:47:393,-0.3688,-0.0479,8.3889,25.1451,0.0629,0.3189,-0.9505,139.2031
20:18:47:416,-0.2512,0.4214,7.9173,25.3667,0.1295,0.4465,-0.7092,139.8125
20:18:47:438,0.3377,1.1468,7.8335,25.5753,0.1857,0.4569,-0.5039,139.8125
20:18:47:454,1.1635,1.8075,7.8431,25.3774,0.2132,0.4111,-0.4233,140.8281
20:18:47:475,1.6161,2.2457,7.8455,25.376,0.1906,0.3494,-0.4917,140.8281
20:18:47:493,1.6208,2.3079,8.0345,25.7427,0.124,0.2364,-0.6463,141.7031
20:18:47:514,1.3669,2.1141,8.4464,25.6398,0.0495,0.0855,-0.7849,141.7812
20:18:47:539,1.1276,1.9391,8.9994,26.0955,-0.0263,-0.0281,-0.8527,141.6094
20:18:47:554,0.8859,1.8649,9.696,26.4688,-0.102,-0.047,-0.8485,141.5938
20:18:47:577,-0.1914,2.0877,10.6011,26.6972,-0.1069,0.2676,-0.6591,141.375
20:18:47:594,-0.5937,2.581,10.285,26.6067,0.0421,0.3903,-0.46,141.3594
20:18:47:614,-0.4789,3.1436,9.8351,26.8332,0.1649,0.3971,-0.27,142.6562
20:18:47:638,-0.2393,3.6413,9.7128,27.3294,0.1252,0.358,-0.182,142.7969
20:18:47:654,-0.3305,3.7253,10.4216,27.5148,-0.0782,0.2914,-0.2126,144.9688
20:18:47:674,-0.6966,3.347,11.7383,27.9609,-0.2248,0.1588,-0.2712,145.1719
20:18:47:693,-1.2616,3.0165,12.775,28.239,-0.1252,-0.0079,-0.2694,146.7969
20:18:47:713,-1.9056,2.9614,12.332,28.4866,0.1613,-0.036,-0.1747,146.9375
20:18:47:738,-2.1356,3.2871,10.7255,28.8584,0.4068,-0.0055,-0.022,147.8125
20:18:47:754,-1.1396,3.9718,8.7888,29.4014,0.4032,-0.0348,0.0782,147.8906
20:18:47:774,0.3257,3.7469,7.4169,29.8672,0.0556,-0.2333,-0.0623,149.0781
20:18:47:794,0.7205,2.5475,9.4807,30.0965,-0.5589,-0.7281,-0.452,150.875
20:18:47:815,-0.2417,1.3406,13.5218,30.4246,-0.9529,-1.1954,-0.8289,150.875
20:18:47:839,-1.4988,-0.3832,15.3341,30.6347,-0.6964,-1.207,-0.9236,152.6875
20:18:47:853,-2.4132,-1.6735,13.9098,30.7969,0.0757,-0.7318,-0.6322,152.6875
20:18:47:876,-3.0619,-1.6711,11.269,30.9875,0.9334,-0.3323,-0.0812,153.8594
20:18:47:893,-2.7197,-0.5315,9.5429,31.1625,1.4759,-0.3726,0.5693,153.8594
20:18:47:914,-0.8644,0.8067,9.1789,31.5812,1.6121,-0.5718,1.0922,154.2969
20:18:47:939,1.1252,1.7812,9.0616,32.0191,1.4643,-0.5235,1.2547,154.2969
20:18:47:953,1.8697,2.1811,8.2813,32.4909,1.1521,-0.1478,1.0445,154.7812
20:18:47:974,1.695,1.9872,7.1201,32.8816,0.7471,0.2657,0.6713,154.7812
20:18:47:993,0.9051,1.7357,6.4113,33.141,0.3189,0.3964,0.3421,155.2344
20:18:48:015,0.0646,1.6472,7.1034,33.7334,-0.0574,0.2285,0.1515,155.2812
20:18:48:036,-0.4549,1.7261,8.1377,34.2617,-0.2559,0.1093,0.1087,155.25
20:18:48:054,-0.8572,1.9705,8.4105,34.8083,-0.2327,0.1765,0.1472,155.25
20:18:48:075,-1.063,2.2911,7.9651,35.1951,-0.0727,0.3091,0.2175,155.8281
20:18:48:093,-1.1468,2.7867,7.491,35.5019,0.0544,0.3329,0.295,155.8906
20:18:48:114,0.0526,3.6655,8.4942,35.9106,-0.0104,0.1026,0.4019,157.8125
20:18:48:137,0.4597,3.7038,9.2773,36.2145,-0.0342,0.0996,0.3097,158
20:18:48:156,0.1771,3.4187,9.4783,36.8846,-0.0006,0.2321,0.1582,158.7969
20:18:48:173,-0.3736,3.1747,9.2291,37.1677,0.0434,0.3726,0.0947,158.875
20:18:48:194,-0.4789,3.146,9.4567,37.5449,0.0513,0.3457,0.171,157.25
20:18:48:213,0.2417,3.201,9.9356,37.741,0.0525,0.1936,0.3042,157.0938
20:18:48:238,1.3693,3.3015,10.6609,38.1503,0.0354,0.0073,0.3683,154.7812
20:18:48:255,2.2887,3.2991,11.578,38.7225,-0.0531,-0.1191,0.3103,154.5625
20:18:48:278,2.4897,3.213,12.3847,38.9621,-0.1869,-0.1356,0.1771,153.2812
20:18:48:293,2.2433,2.9566,12.9186,39.4024,-0.2859,-0.0959,0.0568,152.9375
20:18:48:315,2.217,2.5786,13.2467,39.7816,-0.2889,-0.0672,0.0312,152.9375
20:18:48:340,2.6288,2.3844,13.2969,40.1843,-0.2175,-0.0617,0.0788,152.4844
20:18:48:355,3.2034,2.4562,13.6798,40.6234,-0.1173,-0.1289,0.0928,152.4844
20:18:48:377,3.3422,2.2289,14.0988,41.1841,0.0556,-0.1796,0.0012,151.6562
20:18:48:394,2.8968,1.5873,13.1698,41.8428,0.3708,-0.0641,-0.1203,151.6562
20:18:48:415,2.2313,1.2257,11.0178,42.1625,0.733,0.1014,-0.1527,150.8438
20:18:48:440,1.9582,1.276,8.875,42.5931,0.956,0.0635,-0.0965,150.8438
20:18:48:454,2.2289,1.5634,7.8766,43.1078,0.9297,-0.1881,-0.0538,150.5
20:18:48:477,2.7652,1.8386,7.9843,43.3039,0.7141,-0.3885,-0.1081,150.4688
20:18:48:493,3.0021,2.004,8.2693,43.6288,0.4526,-0.3323,-0.2755,149.875
20:18:48:515,2.3127,2.0088,7.8239,44.0602,0.2486,-0.0574,-0.5186,149.875
20:18:48:538,1.1133,1.8482,6.9476,44.3143,0.1216,0.1833,-0.7336,149.2031
20:18:48:554,0.1412,1.6615,6.3347,44.4332,0.0525,0.2107,-0.8143,149.1406
20:18:48:575,-0.2345,1.7357,6.4328,44.5999,0.011,0.0751,-0.7458,148.9375
20:18:48:594,0.0455,2.3151,6.9165,44.8379,-0.0104,-0.0379,-0.6053,148.9219
20:18:48:616,0.5387,3.0212,7.0484,44.9028,-0.011,-0.0128,-0.5168,148.8438
20:18:48:638,0.7636,3.9096,7.9675,45.1361,-0.1252,0.047,-0.6053,148.8281
20:18:48:656,0.6775,3.7732,8.7625,45.3941,-0.088,-0.0538,-0.7013,148.7812
20:18:48:673,0.4549,3.5288,9.2243,45.3675,0.0183,-0.1057,-0.7605,148.7812
20:18:48:693,0.28,3.4379,9.3682,45.5387,0.1032,-0.08,-0.7251,149.0156
20:18:48:714,0.2249,3.6054,9.2124,45.5272,0.1448,-0.011,-0.6334,149.0312
20:18:48:738,0.3138,3.9072,9.6888,46.0647,0.1148,0.0049,-0.5498,149.1406
20:18:48:753,0.4693,4.209,10.6657,46.314,0.0696,0.0611,-0.4899,149.1562
20:18:48:775,-0.0981,4.41,10.905,46.6222,0.1124,0.2193,-0.4532,149.6719
20:18:48:793,-0.8788,4.4841,10.4623,46.8084,0.2291,0.3525,-0.3732,151
20:18:48:814,-0.8186,4.5392,9.9308,47.1318,0.3219,0.3946,-0.1955,151
20:18:48:839,-0.3329,4.8529,9.5764,47.4832,0.3268,0.3531,-0.0202,152.6562
20:18:48:857,-0.1268,5.0994,9.6075,47.8028,0.2443,0.2688,0.0342,152.6562
20:18:48:877,-0.3736,5.1808,10.0792,48.2515,0.1564,0.168,-0.0183,153.9219
20:18:48:893,-0.8282,5.1185,9.6984,48.32,0.1472,0.1222,-0.1014,153.9219
20:18:48:914,-1.3406,4.8434,8.9109,48.8294,0.08,0.0733,-0.19,155.1406
20:18:48:939,-1.0152,3.8689,8.8391,49,-0.1918,-0.0867,-0.2559,155.1406
20:18:48:955,-0.297,2.6025,11.1374,49.2489,-0.5687,-0.5046,-0.3244,156.6406
20:18:48:975,-0.5913,2.0471,14.4628,49.4051,-0.708,-0.8143,-0.3763,156.7969
20:18:48:993,-2.0447,1.2497,14.5514,49.6099,-0.3451,-0.5736,-0.3115,158.2969
20:18:49:015,-2.9901,0.5483,12.3416,49.8324,0.3256,0.0434,0.0122,158.2969
20:18:49:037,-2.7604,0.9075,8.7864,49.8835,1.0012,0.518,0.4942,159.3281
20:18:49:056,-1.7955,2.2816,5.1784,49.9869,1.2425,0.4569,0.8631,159.4375
20:18:49:133,-0.0861,3.8856,4.8051,49.9681,0.7929,0.0281,0.9798,160.1719
20:18:49:133,1.7213,4.5535,6.184,50.3088,0.0458,-0.1716,0.7617,160.2344
20:18:49:134,1.5754,3.9598,7.946,50.4456,-0.8277,-0.025,-0.2792,160.3281
20:18:49:134,-1.3167,2.016,9.2677,50.6395,-0.8308,0.0232,-0.4074,160.3438
20:18:49:156,-1.5538,1.7812,9.4184,50.8806,-0.6402,0.0073,-0.2395,160.25
20:18:49:174,-1.2377,2.2887,9.1621,51.0567,-0.3769,0.055,0.0421,160.25
20:18:49:193,-0.9864,3.4164,8.7386,51.2374,-0.1423,0.1692,0.3146,160.5
20:18:49:213,-0.4286,4.4315,8.3363,51.4644,0.0525,0.259,0.5192,160.5312
20:18:49:238,0.4645,5.2693,8.2621,51.4871,0.2034,0.226,0.5864,161.2031
20:18:49:254,0.8883,5.7506,8.1206,51.4649,0.2987,0.1631,0.4526,162.1875
20:18:49:275,0.6631,5.5711,8.2765,51.6393,0.3201,0.0806,0.1698,162.1875
20:18:49:293,-0.2034,4.841,8.6067,51.5803,0.3195,-0.0031,-0.1075,161.6406
20:18:49:313,-1.3597,4.1871,8.8487,51.6454,0.3708,-0.0849,-0.2407,161.6406
20:18:49:337,-1.9534,3.7995,8.7242,51.5156,0.4771,-0.1814,-0.1851,159.5312
20:18:49:355,-1.6017,3.8521,8.5899,51.4109,0.5241,-0.295,-0.0189,159.5312
20:18:49:375,-0.8979,4.0125,8.9731,51.5292,0.4105,-0.4062,0.1026,158.5312
20:18:49:394,-0.1292,3.9239,9.993,51.5417,0.1863,-0.4496,0.1295,158.5312
20:18:49:414,0.5411,3.6006,10.838,51.4548,-0.0104,-0.3989,0.1045,159.1875
20:18:49:438,0.5889,3.3709,11.3862,51.383,-0.1399,-0.3158,0.058,159.2656
20:18:49:454,0.3305,3.2584,11.4221,51.4291,-0.2107,-0.2633,0.0641,159.2656
20:18:49:476,0.5794,3.2082,11.7239,51.3409,-0.2547,-0.3445,0.1374,159.4688
20:18:49:493,1.3908,3.1412,12.3129,51.609,-0.2957,-0.4587,0.2052,158.4844
20:18:49:515,2.3079,2.8537,12.9736,51.9129,-0.328,-0.4594,0.1985,158.4844
20:18:49:538,2.4299,2.4443,13.4309,51.7393,-0.2975,-0.2902,0.1185,157.375
20:18:49:555,1.7788,2.0734,12.3535,51.7933,-0.0849,0.0709,0.0812,157.2656
20:18:49:576,1.1372,2.0542,9.9739,51.7685,0.2663,0.4618,0.1771,157.1719
20:18:49:593,0.9817,2.5546,7.4958,52.01,0.5394,0.5882,0.317,157.1719
20:18:49:617,1.3669,3.2273,6.5264,52.1102,0.3292,0.0825,0.3048,157.6406
20:18:49:638,3.0667,3.6751,7.6158,52.1771,0.0348,-0.0226,0.0489,157.6875
20:18:49:657,2.6982,3.1196,8.2693,52.0306,-0.2052,0.0348,-0.2932,157.75
20:18:49:675,1.7213,2.6791,8.2454,51.9548,-0.3335,0.1759,-0.5345,157.75
20:18:49:693,0.7349,2.4036,8.1664,52.0651,-0.3647,0.2382,-0.617,157.7031
20:18:49:713,0.2512,2.4132,8.231,52.1305,-0.3048,0.2126,-0.5437,157.6875
20:18:49:738,0.419,2.7796,8.0584,52.1422,-0.1698,0.1979,-0.3989,157.6875
20:18:49:754,0.6129,3.2895,7.491,51.9502,-0.0458,0.2303,-0.3036,157.5312
20:18:49:774,0.6392,3.699,6.9835,51.8195,-0.0257,0.2566,-0.2859,157.5312
20:18:49:793,0.5435,4.0053,6.926,51.8903,-0.1136,0.2278,-0.3024,157.3281
20:18:49:814,0.3808,4.2114,7.4886,51.9205,-0.248,0.1539,-0.3299,157.3281
20:18:49:839,0.3042,4.0771,8.3195,51.8935,-0.3555,0.0922,-0.3384,156.9375
20:18:49:854,0.3688,3.9598,8.997,51.9119,-0.3726,0.055,-0.2975,156.9375
20:18:49:874,0.5291,3.967,9.2868,51.8644,-0.2981,0.022,-0.2199,155.9531
20:18:49:893,0.5028,4.2401,9.6386,51.9349,-0.1991,-0.025,-0.1442,155.9531
20:18:49:915,0.4262,4.6923,10.1366,52.1196,-0.0983,-0.0293,-0.0721,155.5625
20:18:49:938,0.2898,5.0898,10.1103,52.1759,0.033,0.077,-0.0208,155.5312
20:18:49:955,0.0502,5.2454,9.4926,52.1324,0.1374,0.2382,-0.0147,155.5312
20:18:49:975,-0.146,5.1162,9.0209,52.0052,0.1197,0.3097,-0.036,156.3906
20:18:49:993,-0.3066,4.9319,9.5572,51.818,0.0208,0.2046,-0.0696,157.5781
20:18:50:016,-0.3209,4.7019,10.6801,51.7531,-0.0049,0.0263,-0.1081,157.5781
20:18:50:038,-0.8907,4.6253,11.013,51.9804,0.0898,-0.0086,-0.1594,158.2656
20:18:50:054,-1.9439,4.6445,10.2347,51.9978,0.1912,0.1209,-0.1936,158.2656
20:18:50:076,-2.6743,4.7498,8.9683,51.6834,0.1527,0.2639,-0.1582,158.7656
20:18:50:095,-2.1643,4.2425,8.1497,51.6765,-0.1093,0.201,-0.1026,158.8281
20:18:50:116,-0.9338,2.217,13.1746,51.4912,-0.5266,-0.2834,-0.1368,159.4375
20:18:50:138,-1.7548,1.4438,14.0342,51.4271,-0.8008,-0.7428,-0.2071,159.5
20:18:50:154,-2.7963,0.62,12.6697,51.5102,-0.1881,-0.2437,-0.0434,160
20:18:50:176,-2.8968,0.498,10.4192,51.3254,0.3079,0.1014,0.3366,160.0469
20:18:50:193,-1.9753,1.185,8.8223,51.1527,0.6041,0.2046,0.7837,160.2812
20:18:50:214,-0.4167,2.1858,7.6516,50.9846,0.6334,0.2785,1.0898,160.2969
20:18:50:239,1.0271,3.0069,6.7609,50.9523,0.4288,0.3885,1.0885,160.2812
20:18:50:254,1.3789,3.2512,5.8343,50.9604,0.1136,0.4105,0.7581,160.2812
20:18:50:273,0.6033,2.7173,6.4905,50.9389,-0.27,0.179,0.306,160.2969
20:18:50:295,-0.3162,1.9439,8.1616,51.3339,-0.5834,-0.0513,0.0342,160.5938
20:18:50:314,-1.1372,1.7094,9.3993,51.1814,-0.6432,-0.0855,0.0098,160.5938
20:18:50:336,-1.6998,1.8529,9.3203,51.1138,-0.4526,0.0599,0.1509,160.9062
20:18:50:355,-1.4581,2.3007,8.2382,51.0122,-0.1851,0.2193,0.369,160.9062
20:18:50:375,-1.0534,2.8418,7.1034,51.1026,-0.047,0.2957,0.5168,160.9062
20:18:50:393,-0.7349,3.3637,6.804,51.214,-0.1246,0.2724,0.5601,161.1719
20:18:50:415,-0.5004,3.7277,7.3116,51.1534,-0.2999,0.2022,0.5247,161.1719
20:18:50:438,-0.6631,3.8976,8.0273,51.3496,-0.4368,0.1472,0.4245,161.8594
20:18:50:454,-0.9482,3.9359,8.6163,51.0299,-0.4875,0.1124,0.3305,161.8594
20:18:50:475,-1.0008,3.8498,9.3754,51.2271,-0.4722,0.0318,0.2743,161.5625
20:18:50:494,-1.0869,3.8545,10.1557,51.3613,-0.4111,-0.0727,0.234,159.4531
20:18:50:516,-0.9625,3.6918,10.6633,51.4081,-0.3341,-0.1539,0.2046,159.4531
20:18:50:538,-0.2752,3.3781,11.3791,51.3708,-0.3048,-0.2523,0.1894,157.2656
20:18:50:554,0.5913,2.9136,12.2028,51.2903,-0.3225,-0.361,0.1381,157.2656
20:18:50:575,1.0463,2.2193,13.3137,51.5347,-0.3604,-0.4722,0.0318,156.875
20:18:50:594,0.8979,1.4581,14.7308,51.3757,-0.3598,-0.4972,-0.0348,156.8438
20:18:50:616,0.8859,1.1779,15.1618,51.5793,-0.19,-0.3421,0.0568,156.6719
20:18:50:638,1.5467,1.398,14.0151,51.5477,0.1374,-0.1509,0.2474,156.6562
20:18:50:655,3.3278,1.9534,11.8747,51.5591,0.4166,-0.2071,0.234,155.6875
20:18:50:676,3.0284,1.5586,11.8436,51.5204,0.2297,-0.0971,-0.0116,155.5938
20:18:50:694,1.9175,0.9194,11.2714,51.6493,0.0501,0.2621,-0.204,154.4219
20:18:50:714,1.0223,0.352,9.9619,51.9521,0.0238,0.5211,-0.1991,154.3125
20:18:50:738,0.7205,0.3185,8.9109,51.7566,0.0965,0.4221,-0.0379,153.5
20:18:50:754,1.0965,0.7516,8.6282,51.9202,0.1643,0.1271,0.1674,152.9062
20:18:50:774,1.7237,1.2425,8.5851,51.7641,0.1961,-0.0489,0.2883,152.9062
20:18:50:794,1.9705,1.6041,8.0441,51.8494,0.2107,0.0012,0.2761,152.5
20:18:50:814,1.7716,1.8529,7.1225,51.9623,0.1979,0.1515,0.1765,152.5
20:18:50:837,1.3813,2.0207,6.1217,52.1865,0.1552,0.2462,0.0452,152.3906
20:18:50:853,0.9745,2.1476,5.4682,52.2247,0.0819,0.204,-0.0898,152.3906
20:18:50:874,0.5865,2.1906,5.3605,52.0798,-0.0397,0.0666,-0.2114,152.4688
20:18:50:893,0.2874,2.2504,6.1887,52.2542,-0.193,-0.0904,-0.292,152.4844
20:18:50:915,0.28,2.3964,7.0122,52.3129,-0.2932,-0.1607,-0.3231,152.4844
20:18:50:938,0.2034,2.6169,7.4384,52.5454,-0.3176,-0.1637,-0.3549,151.875
20:18:50:955,0.189,2.8753,8.1278,52.6638,-0.3213,-0.2022,-0.3775,151.875
20:18:50:974,0.1651,2.9686,8.7266,52.6049,-0.2779,-0.2914,-0.3867,151.6562
20:18:50:993,0.0359,2.8178,9.2916,52.5737,-0.1729,-0.4386,-0.3757,151.9844
20:18:51:015,-0.0909,2.6719,9.8085,52.4986,-0.0605,-0.5913,-0.2969,151.9844
20:18:51:038,0.0431,3.0165,10.3089,52.6956,0.014,-0.6799,-0.149,151.7656
20:18:51:054,0.3257,3.5456,10.905,52.6051,0.025,-0.6396,-0.014,151.7656
20:18:51:075,0.711,3.7325,11.5301,52.4845,-0.0202,-0.4319,0.0776,151.2031
20:18:51:093,0.8859,3.8234,11.6833,52.2538,-0.0275,-0.0983,0.168,151.1562
20:18:51:114,0.8644,4.1895,10.9675,52.1853,0.0916,0.2083,0.2785,150.875
20:18:51:136,0.941,4.6708,9.5907,52.3857,0.2755,0.3237,0.361,150.8438
20:18:51:189,1.2114,5.1688,8.6833,52.4762,0.2016,-0.102,0.2468,151.0938
20:18:51:190,1.573,5.2238,9.3299,52.4003,-0.0134,-0.2065,0.0434,151.125
20:18:51:199,0.4167,4.2592,11.0154,52.0739,-0.2101,-0.047,-0.1338,151.7812
20:18:51:222,-0.3473,3.7086,10.9337,52.1451,-0.4105,0.204,-0.2034,151.8438
20:18:51:235,-0.5411,3.0332,11.0082,52.2251,-0.6347,0.259,-0.1857,152.625
20:18:51:254,-0.0024,2.0782,13.4788,52.3332,-0.8485,-0.0092,-0.1332,152.7031
20:18:51:273,0.2441,1.398,15.8752,52.5467,-0.799,-0.0483,-0.0654,153.5625
20:18:51:293,-0.62,1.0558,14.2759,52.4398,-0.3274,0.4319,0.0122,154.25
20:18:51:314,-1.2114,0.9434,10.3472,52.3843,0.2535,0.813,0.1625,154.25
20:18:51:337,-1.2066,1.1109,7.7019,52.6958,0.493,0.7171,0.3598,154.4062
20:18:51:354,-0.4693,1.4988,7.8646,52.9028,0.3506,0.3158,0.5388,154.4062
20:18:51:374,0.8402,1.7094,9.4926,53.1705,0.157,-0.058,0.6102,154.3906
20:18:51:393,1.8434,1.7309,10.6705,53.4369,0.1197,-0.2223,0.5039,153.8906
20:18:51:414,1.9319,1.5371,10.7471,53.6398,0.157,-0.1643,0.2657,153.8906
20:18:51:438,1.1659,0.9864,10.1246,53.5072,0.1448,0.0147,0.0055,153.0156
20:18:51:454,0.1747,0.4501,9.7463,53.6199,0.0458,0.1942,-0.1393,153
20:18:51:477,-0.5961,0.3162,9.6984,53.7531,-0.0702,0.4178,-0.1148,152.7344
20:18:51:493,-0.9099,0.5865,8.8176,53.8467,-0.1032,0.73,0.0299,153.0938
20:18:51:514,-0.862,1.1587,7.8335,54.0067,-0.0605,0.8876,0.1906,153.0938
20:18:51:539,-0.5985,1.6687,7.2422,53.7674,0.0073,0.8472,0.3066,153.4531
20:18:51:555,-0.2417,2.0997,6.883,53.6668,0.0886,0.7086,0.3751,153.4531
20:18:51:575,-0.1771,2.4873,6.3921,53.6853,0.1729,0.5351,0.3812,153.4844
20:18:51:593,-0.3449,2.8298,5.9399,53.7371,0.1918,0.3628,0.3427,153.4844
20:18:51:616,-0.4717,3.0787,5.9183,53.7292,0.0953,0.234,0.303,152.7969
20:18:51:638,-0.553,3.1579,6.591,53.6866,-0.0739,0.1356,0.2816,152.7344
20:18:51:655,-0.3832,3.1484,7.6229,53.4563,-0.1839,-0.0134,0.2743,151.5469
20:18:51:677,0.3712,3.2871,8.231,53.4833,-0.1509,-0.4697,0.1863,151.4375
20:18:51:693,1.1228,2.837,8.8247,53.6438,-0.347,-0.7129,0.0409,150.7031
20:18:51:714,1.6831,2.2337,11.0967,53.8207,-0.7678,-0.934,-0.1454,150.625
20:18:51:736,1.9295,1.6232,14.4724,53.9456,-1.1203,-1.0085,-0.3018,150.7188
20:18:51:755,1.5156,0.9697,16.809,53.9964,-1.102,-0.8094,-0.3861,150.6875
20:18:51:773,1.2903,0.285,16.986,54.314,-0.6976,-0.4514,-0.3195,150.6875
20:18:51:794,1.7381,0.1101,15.1403,54.2423,-0.1881,-0.0733,-0.1191,149.9844
20:18:51:813,2.5259,0.4741,13.11,54.4336,0.1222,0.1081,0.0409,149.9844
20:18:51:837,3.0691,0.6009,12.5833,54.4883,0.1429,0.0531,-0.011,149.0156
20:18:51:853,2.3844,0.1172,13.2156,54.4269,0.0647,0.0507,-0.223,148.9375
20:18:51:874,1.319,-0.2827,12.0951,54.4061,0.2126,0.2883,-0.3262,148.9219
20:18:51:893,0.8692,-0.5243,9.6601,54.617,0.5272,0.3964,-0.2498,148.1406
20:18:51:915,1.0989,-0.134,7.7952,54.7288,0.6732,0.2181,-0.099,148.1406
20:18:51:937,1.707,0.6607,7.2039,54.5397,0.5382,-0.0379,-0.0037,147.5156
20:18:51:957,2.1308,1.3549,7.6493,54.6474,0.2462,-0.1845,-0.0556,147.5
20:18:51:974,2.0399,1.5921,8.2334,54.9883,-0.0226,-0.1442,-0.2395,147.0938
20:18:51:993,1.4103,1.3908,8.4559,55.1327,-0.1765,0.0122,-0.4594,147.3906
20:18:52:015,0.4836,1.2832,8.0991,55.3266,-0.1906,0.1442,-0.5944,147.3906
20:18:52:038,-0.364,1.4028,7.5317,55.2644,-0.0928,0.1435,-0.6066,148.3281
20:18:52:054,-0.699,1.7429,7.223,55.0867,0.0275,0.033,-0.5223,148.3281
20:18:52:074,-0.5219,2.2313,6.9619,55.0053,0.1038,-0.0458,-0.3971,148.875
20:18:52:093,-0.0144,2.7556,6.9858,55.1523,0.102,-0.0672,-0.303,148.875
20:18:52:114,0.5459,3.2225,7.2972,55.4315,0.0379,-0.0525,-0.2822,148.8438
20:18:52:137,0.8979,3.5934,7.599,55.4486,-0.0403,-0.025,-0.3512,148.8281
20:18:52:155,0.6272,3.591,8.1497,55.4582,-0.1216,-0.044,-0.4972,149.3438
20:18:52:176,0.2058,3.1436,8.8247,55.4128,-0.1643,-0.1729,-0.6334,149.4062
20:18:52:194,-0.0646,2.7628,9.3802,55.4108,-0.1564,-0.201,-0.5827,149.6875
20:18:52:217,-0.1986,2.5786,10.0624,55.5945,-0.1582,-0.1203,-0.4923,149.7188
20:18:52:237,-0.6272,2.6575,11.1302,55.6186,-0.1264,0.0318,-0.3702,149.7969
20:18:52:253,-0.7564,2.7413,11.2594,55.5239,-0.0342,0.149,-0.2095,149.8125
20:18:52:273,-0.4884,2.9973,11.1565,55.4831,0.099,0.1894,-0.0244,150.5156
20:18:52:293,0.0407,3.2776,10.9962,55.2173,0.1979,0.1753,0.1045,151.7656
20:18:52:313,0.2106,3.3685,10.8739,55.2346,0.1936,0.1833,0.1179,151.7656
20:18:52:336,-0.0311,3.4044,11.0369,55.4723,0.0959,0.2223,0.0672,151.875
20:18:52:354,-0.4501,3.3709,10.7423,55.6678,0.0061,0.284,0.0147,152.8125
20:18:52:376,-0.8139,3.2225,10.3615,55.6745,-0.0495,0.2016,-0.022,152.8906
20:18:52:393,-0.4214,2.5113,10.2897,55.6274,-0.1277,-0.1478,-0.055,153.5625
20:18:52:414,0.1675,1.2951,12.4684,55.5159,-0.2853,-0.7391,-0.1368,153.5625
20:18:52:439,-0.3209,0.419,15.4588,55.6241,-0.3537,-0.9523,-0.1967,154.5
20:18:52:454,-1.5634,-0.6775,15.0996,55.6174,-0.0837,-0.4447,-0.091,154.5
20:18:52:476,-2.2193,-0.9434,12.4086,55.598,0.3555,0.088,0.2523,155.8906
20:18:52:493,-1.6184,-0.3449,10.0241,55.4757,0.6426,0.1979,0.6841,157.125
20:18:52:516,-0.0814,0.6009,9.1478,55.2056,0.6408,0.0953,0.978,157.125
20:18:52:537,1.4028,1.4079,8.8774,55.0393,0.4575,0.1307,0.9987,157.75
20:18:52:556,1.9705,1.7237,8.4799,55.2232,0.2278,0.292,0.7452,157.75
20:18:52:576,1.4486,1.398,8.0991,55.2459,0.0043,0.4172,0.3885,157.625
20:18:52:593,0.3114,0.7397,8.3698,54.8644,-0.1411,0.394,0.1356,157.625
20:18:52:615,-0.3999,0.486,8.6785,54.9849,-0.0941,0.2682,0.1051,157.4062
20:18:52:639,-0.7277,0.8019,8.2454,55.0207,0.1307,0.1662,0.2132,157.3906
20:18:52:654,-0.5913,1.6615,7.247,54.7054,0.3366,0.1533,0.3439,157.3438
20:18:52:675,-0.1819,2.4108,6.6245,54.8022,0.3677,0.1888,0.3836,157.3438
20:18:52:695,-0.1627,2.904,6.6365,54.6917,0.011,0.2975,0.1252,157.6094
20:18:52:716,-0.5865,2.5666,7.4408,54.7287,-0.2016,0.2798,-0.0171,157.625
20:18:52:734,-0.6464,2.2768,8.3674,54.8957,-0.3195,0.2181,-0.0574,158.0469
20:18:52:754,-0.443,2.1523,9.2195,55.0323,-0.3415,0.149,-0.033,158.0781
20:18:52:774,-0.297,2.2792,10.0744,55.016,-0.3164,0.1112,-0.0098,157.125
20:18:52:793,-0.4717,2.3509,10.4575,54.7938,-0.2559,0.1301,-0.0226,157.0312
20:18:52:814,-0.4717,1.9872,10.5126,54.8808,-0.1716,0.091,-0.0385,155.0469
20:18:52:838,-0.1723,1.573,10.8715,54.6823,-0.1307,-0.0672,-0.0098,154.8438
20:18:52:854,0.3305,1.3334,11.8747,54.9108,-0.1509,-0.237,0.0483,153.625
20:18:52:874,0.7349,1.1539,12.7893,54.9401,-0.1686,-0.2608,0.0941,153.5
20:18:52:894,0.7062,1.1779,12.4804,54.7467,-0.1332,-0.1258,0.1252,153.1406
20:18:52:915,0.6751,1.2353,11.3001,54.6471,-0.1026,-0.0257,0.171,153.1406
20:18:52:938,1.0463,1.3262,10.4192,54.4679,-0.1888,-0.1356,0.2297,152.5
20:18:52:954,1.5586,1.0295,11.4365,54.5143,-0.4032,-0.4905,0.226,151.7031
20:18:52:976,2.0853,0.5459,13.8954,54.6849,-0.5736,-0.8723,0.16,151.7031
20:18:52:993,2.1093,0.0933,15.37,54.8614,-0.4661,-0.9352,0.0751,151.5156
20:18:53:016,1.3669,-0.4286,14.3839,54.6786,-0.0654,-0.6432,0.047,151.5156
20:18:53:038,0.5722,-0.7469,11.9465,54.4989,0.4331,-0.303,0.1967,151.5469
20:18:53:054,0.6894,-0.5052,9.306,54.5105,0.8283,-0.1619,0.5149,151.5469
20:18:53:076,1.3167,0.2345,7.6947,54.4955,0.9719,-0.2602,0.7972,151.5312
20:18:53:093,2.3533,0.9817,7.1201,54.2587,0.8576,-0.3702,0.887,151.5312
20:18:53:115,3.4164,1.4701,7.2278,54.0154,0.5846,-0.3109,0.7629,151.5781
20:18:53:138,3.6102,1.707,7.4312,53.9579,0.2559,-0.0886,0.463,151.5781
20:18:53:153,2.892,1.6113,7.3977,53.8838,-0.0275,0.1637,0.1246,151.4844
20:18:53:176,1.7094,1.3525,6.9954,54.0956,-0.1735,0.3109,-0.1222,151.4688
20:18:53:254,0.9625,1.2329,6.9882,54.1601,-0.1839,0.2566,-0.2138,151.1875
20:18:53:254,1.4892,1.7859,6.8949,53.9949,-0.0116,0.1759,-0.1338,151.1562
20:18:53:254,1.774,2.4156,6.9763,53.818,-0.0373,0.1662,-0.1753,150.75
20:18:53:255,2.0997,2.8825,7.4288,53.94,-0.1802,0.1509,-0.2749,150.7188
20:18:53:276,2.0949,3.038,7.9268,54.1091,-0.3451,0.1368,-0.441,150.625
20:18:53:293,1.64,2.8657,9.0066,53.8346,-0.4765,0.0733,-0.6237,150.625
20:18:53:313,1.398,2.6719,9.9954,53.7696,-0.5345,0.0489,-0.689,150.4531
20:18:53:338,1.3119,2.648,10.826,53.4161,-0.5211,0.077,-0.6567,150.4375
20:18:53:354,1.1037,2.7628,11.5229,53.2897,-0.449,0.1313,-0.5895,149.1406
20:18:53:375,0.8859,2.8801,11.9417,53.4111,-0.3091,0.2211,-0.493,149
20:18:53:393,0.4932,3.0476,11.6761,53.2463,-0.102,0.3647,-0.3793,147.2188
20:18:53:414,0.2321,3.2106,10.9675,53.3331,0.0953,0.4502,-0.2645,147.2188
20:18:53:437,0.3066,3.3087,10.7614,53.2392,0.1906,0.3378,-0.1545,146.5469
20:18:53:454,0.6966,3.3852,11.3982,53.1757,0.2205,0.0757,-0.0709,146.5469
20:18:53:477,1.008,3.335,12.0206,52.9791,0.2969,-0.1326,-0.0623,146.8438
20:18:53:494,0.5411,3.1914,11.8364,52.8861,0.3989,-0.1515,-0.1521,147.1562
20:18:53:516,-0.6129,2.9949,10.9122,52.8135,0.4239,-0.0299,-0.2352,147.1562
20:18:53:537,-1.3047,2.7939,10.0576,52.6056,0.3299,0.025,-0.1863,147.6094
20:18:53:555,-0.8282,2.4873,10.3256,52.9,0.1423,-0.1723,-0.0476,147.6094
20:18:53:576,0.0479,1.8123,11.8914,52.7119,-0.0501,-0.5131,0.0257,148.7656
20:18:53:593,-0.1579,1.4964,13.6439,52.6618,-0.1075,-0.631,0.0128,148.7656
20:18:53:616,-1.0702,0.9649,12.8874,52.6692,0.099,-0.2431,0.077,150.25
20:18:53:637,-1.4246,0.754,10.0863,52.7352,0.5186,0.1991,0.284,150.25
20:18:53:654,-1.2138,1.0989,7.8694,52.6789,0.8601,0.1038,0.4905,151.3125
20:18:53:676,-0.2994,1.9606,7.4599,52.3618,0.8955,-0.3616,0.6365,151.4219
20:18:53:693,1.1803,2.5232,8.5229,52.2661,0.6292,-0.7043,0.6347,152
20:18:53:716,1.7907,2.26,9.9165,51.8882,0.3042,-0.6756,0.3885,152.0625
20:18:53:737,1.0175,1.5323,10.2826,51.7538,0.1118,-0.339,0.0641,152.2656
20:18:53:762,-0.5554,0.711,8.31,51.7646,0.0379,0.3873,-0.0464,152.2812
20:18:53:773,-0.5913,0.9458,7.5509,51.6959,0.0684,0.3861,0.1002,152.5156
20:18:53:793,-0.2441,1.5538,7.6851,51.4319,0.088,0.2303,0.234,152.5469
20:18:53:813,0.055,2.0471,7.5748,51.1365,0.0977,0.1985,0.2902,152.9688
20:18:53:835,0.0263,2.327,7.0555,51.3124,0.0819,0.2932,0.2529,153.0156
20:18:53:854,-0.0383,2.5738,6.7394,51.0509,-0.0031,0.3928,0.2034,153.1094
20:18:53:873,-0.1292,2.8561,6.8255,51.0026,-0.1558,0.4697,0.1668,153.125
20:18:53:893,-0.2584,3.026,7.2326,50.9162,-0.325,0.5168,0.1356,153.125
20:18:53:914,-0.1723,3.0404,8.0034,50.6792,-0.4514,0.4905,0.1216,153.1094
20:18:53:938,0.0167,2.9758,9.0018,50.4703,-0.4807,0.3512,0.1045,152.2188
20:18:53:954,-0.0455,2.9949,9.9954,50.5126,-0.4154,0.1668,0.0751,152.2188
20:18:53:975,0.213,2.8657,11.1541,50.6653,-0.295,-0.0611,0.058,150.9531
20:18:53:993,0.9601,2.4227,11.688,50.4895,-0.1539,-0.2395,0.0367,150.5781
20:18:54:014,1.64,1.9777,12.4923,50.4458,-0.124,-0.3787,-0.0287,150.5781
20:18:54:036,1.8123,1.6639,13.5362,50.197,-0.2248,-0.3409,-0.1118,150.6562
20:18:54:054,1.2616,1.3119,13.6247,50.0442,-0.2877,-0.0733,-0.1716,150.6562
20:18:54:076,0.7612,1.1563,12.6314,50.0525,-0.2382,0.2089,-0.1203,150.1875
20:18:54:093,1.1779,1.3167,11.8364,49.9969,-0.168,0.2694,0.0495,150.1875
20:18:54:115,2.3414,1.7644,11.3623,49.7626,-0.149,0.1973,0.1839,149.5156
20:18:54:135,3.4499,1.8697,11.3958,49.7437,-0.2059,0.058,0.1093,149.5156
20:18:54:155,3.2704,1.3238,12.1334,49.6279,-0.317,-0.0287,-0.1759,149.0312
20:18:54:174,1.8362,0.4621,12.3727,49.6659,-0.3396,0.0483,-0.4361,148.9844
20:18:54:193,0.8163,-0.3927,11.6833,49.9243,-0.1552,0.0941,-0.4496,148.5938
20:18:54:217,0.644,-0.6033,10.6681,49.7994,0.1503,0.0452,-0.2321,148.5469
20:18:54:239,1.7429,0.7325,8.1401,49.6031,0.6707,-0.0812,0.215,148.3125
20:18:54:254,2.2146,1.319,7.1871,49.4181,0.6664,-0.1497,0.193,148.2812
20:18:54:274,2.4323,1.6376,6.6556,49.4297,0.4563,-0.1069,0.0513,148.2188
20:18:54:293,2.2074,1.762,6.4352,49.1829,0.16,0.0079,-0.1607,148.2188
20:18:54:313,1.5514,1.7237,6.3849,49.1879,-0.1118,0.1246,-0.3806,148.4375
20:18:54:338,0.7828,1.5395,6.4472,48.9837,-0.2908,0.1723,-0.5229,148.4531
20:18:54:353,0.4908,1.4964,6.7801,48.5588,-0.3671,0.1124,-0.5437,148.75
20:18:54:374,0.6272,1.8721,7.1776,48.4947,-0.3824,0.0391,-0.4899,148.7656
20:18:54:393,0.8859,2.3749,7.5293,48.3814,-0.3946,0.014,-0.4557,148.5
20:18:54:414,0.9577,2.7197,7.9723,48.4713,-0.4331,0.0104,-0.4801,148.4688
20:18:54:436,0.8402,2.8226,8.4464,48.5048,-0.4722,-0.0147,-0.532,148.5312
20:18:54:454,0.6775,2.7389,9.052,48.4704,-0.4972,-0.0928,-0.5663,148.5312
20:18:54:475,0.6344,2.5857,9.8949,48.1677,-0.5235,-0.1894,-0.5583,149.4844
20:18:54:493,0.7086,2.3773,11.1446,48.1752,-0.5339,-0.2474,-0.5143,149.6875
20:18:54:514,0.6176,2.2457,12.0784,48.2198,-0.46,-0.1924,-0.4435,149.6875
20:18:54:536,0.2922,2.217,12.5713,48.2498,-0.2902,-0.0293,-0.3323,149.2656
20:18:54:554,-0.012,2.4108,12.1502,48.2621,-0.0495,0.2071,-0.1484,149.2656
20:18:54:575,0.122,2.8848,11.1924,48.0652,0.1949,0.3268,0.0654,149.3906
20:18:54:593,0.3185,3.2512,11.0178,47.9707,0.3494,0.1857,0.1814,149.3906
20:18:54:614,0.3281,3.3996,11.4772,47.9098,0.4349,-0.0244,0.1961,150.3438
20:18:54:639,0.2441,3.3254,11.1111,48.0116,0.5333,-0.0672,0.1771,150.3438
20:18:54:653,0.0861,3.268,9.8925,47.9326,0.5937,-0.0232,0.1417,151.3594
20:18:54:675,0.1747,3.3637,8.4488,47.939,0.4734,-0.0874,0.1014,151.4531
20:18:54:693,0.3951,3.3517,9.2435,47.8934,0.0483,-0.4361,0.0232,152.3906
20:18:54:714,1.1276,2.7078,12.5569,47.8688,-0.4948,-0.8088,-0.0935,152.4844
20:18:54:736,1.8458,1.3621,14.6303,47.9107,-0.6762,-0.8289,-0.2498,153.5781
20:18:54:755,-0.8955,-0.6105,14.0222,47.9706,0.0385,-0.3311,-0.3415,153.6875
20:18:54:776,-1.331,-0.5818,11.5588,47.9425,0.584,0.0202,0.0269,154.7969
20:18:54:793,-0.9745,0.1316,9.4878,48.0421,0.9609,0.0538,0.394,154.9062
20:18:54:813,-0.0837,1.1037,8.566,48.0262,1.0647,-0.1484,0.5986,155.7031
20:18:54:838,0.9601,1.7405,8.4129,48.1402,0.9016,-0.2895,0.587,155.7812
20:18:54:855,1.3502,1.6854,8.0728,48.2129,0.5992,-0.19,0.3604,155.8281
20:18:54:874,0.8907,1.1228,8.1975,48.2594,0.2462,-0.0531,0.0599,155.8281
20:18:54:895,0.201,0.711,8.9252,48.4232,-0.066,0.0312,-0.1216,155.4531
20:18:54:913,-0.352,0.5171,9.3395,48.2783,-0.1997,0.1112,-0.1552,155.4219
20:18:54:935,-0.711,0.6392,9.2797,48.3937,-0.1545,0.2144,-0.0849,155.0938
20:18:54:954,-0.7014,0.9936,8.6689,48.3398,0,0.3641,0.0525,155.0938
20:18:54:974,-0.6823,1.4004,7.5942,48.5209,0.1637,0.5137,0.157,155
20:18:54:993,-0.5578,1.9223,6.6317,48.6039,0.2028,0.609,0.2303,155.5469
20:18:55:014,-0.3233,2.4443,6.1528,48.6788,0.066,0.6597,0.2828,155.5469
20:18:55:037,-0.2584,2.8848,6.3969,48.8242,-0.1778,0.6732,0.2785,156.4844
20:18:55:053,-0.2994,3.0188,7.235,48.9081,-0.383,0.6072,0.2266,156.4844
20:18:55:075,-0.3425,2.8513,8.1975,49.1774,-0.4459,0.4777,0.1857,156
20:18:55:094,-0.2249,2.9183,9.0736,49.371,-0.361,0.303,0.2004,156
20:18:55:114,-0.1484,3.1675,9.2773,49.5728,-0.1955,0.1393,0.2388,154.7031
20:18:55:134,0.0502,3.3398,9.2845,49.4739,-0.0568,-0.0892,0.2492,154.7031
20:18:55:154,0.6918,3.2297,10.072,49.5015,-0.0171,-0.4233,0.2089,154.2344
20:18:55:173,1.6663,2.5137,11.0656,49.4877,-0.0727,-0.6585,0.0965,154.2344
20:18:55:193,1.8649,1.7883,12.7176,49.2318,-0.2498,-0.6951,-0.0513,154.5
20:18:55:213,1.1348,1.2855,13.9696,49.1555,-0.4313,-0.4404,-0.1222,154.5156
20:18:55:234,0.7205,0.9601,14.0605,48.8974,-0.4545,-0.0898,-0.0104,154.5
20:18:55:292,2.5307,1.4462,13.4429,48.6748,-0.215,0.0446,0.3561,154.4844
20:18:55:292,3.5958,1.4055,13.5817,48.6127,-0.1167,-0.0538,0.2706,153.9688
20:18:55:293,2.7915,1.0271,13.5553,48.7967,0.0073,-0.0037,-0.0171,153.9062
20:18:55:313,1.4462,0.3209,12.1167,48.8203,0.2395,0.2547,-0.2169,153.1875
20:18:55:334,0.6272,-0.0622,9.6841,48.7766,0.5198,0.4514,-0.1839,153.1094
20:18:55:353,0.6033,0.1292,7.7474,49.038,0.6732,0.3677,-0.0238,152.5625
20:18:55:373,1.5682,0.6248,7.0316,49.0719,0.6029,0.1075,0.1222,152.5156
20:18:55:393,2.7532,1.1898,7.5341,49.1144,0.3347,-0.0892,0.1069,152.0156
20:18:55:413,3.3876,1.4509,8.3004,49.1255,-0.0006,-0.0421,-0.1203,151.9688
20:18:55:434,2.5953,1.1779,8.6665,48.9797,-0.281,0.1881,-0.4771,151.5625
20:18:55:454,0.9577,0.6535,8.5445,48.9656,-0.4111,0.3751,-0.7367,151.5156
20:18:55:473,-0.079,0.3233,8.4344,48.6601,-0.3683,0.3848,-0.7263,151.625
20:18:55:493,-0.1077,0.4549,8.3243,48.5137,-0.1936,0.292,-0.5039,151.8438
20:18:55:513,0.644,1.2616,7.9914,48.5409,0.0128,0.2126,-0.2437,151.8438
20:18:55:534,1.3717,2.0566,7.4456,48.4737,0.1209,0.226,-0.124,151.2031
20:18:55:553,1.7333,2.624,7.0699,48.6005,0.0709,0.2847,-0.1692,151.2031
20:18:55:574,1.6783,3.0188,6.9858,48.7849,-0.0684,0.2957,-0.3054,150.9375
20:18:55:593,1.0965,3.1866,7.5942,48.6832,-0.2156,0.1875,-0.474,150.9375
20:18:55:613,0.5363,2.9662,8.4583,48.5272,-0.3018,0.0324,-0.587,151.2969
20:18:55:634,0.62,2.892,9.7702,48.8374,-0.314,-0.1234,-0.5876,151.2969
20:18:55:654,1.3502,3.3039,11.3743,48.8678,-0.2584,-0.1625,-0.5516,151.125
20:18:55:674,0.8788,3.9024,11.6785,48.7688,-0.1271,0.0092,-0.6053,151.125
20:18:55:693,-0.5315,3.845,11.554,48.7681,0.0177,0.1093,-0.7006,151.1562
20:18:55:713,-1.13,3.4307,11.7838,48.6883,0.1228,0.0538,-0.6389,151.1562
20:18:55:734,-1.0343,3.1053,12.6577,48.7813,0.2266,-0.0709,-0.4734,152.2969
20:18:55:754,-1.0822,3.0787,13.2945,48.9873,0.4087,-0.1289,-0.3164,152.4219
20:18:55:775,-1.7213,3.146,11.5923,49.207,0.7794,0.0709,-0.091,153.5781
20:18:55:793,-1.951,3.2417,10.5772,49.1355,0.8014,0.113,0.0055,153.6875
20:18:55:814,-2.0566,3.0811,9.9188,49.0491,0.6719,0.124,0.0837,154.0156
20:18:55:834,-1.8194,2.5113,9.9643,48.9357,0.4001,0.102,0.1607,154.0469
20:18:55:853,-1.2975,1.561,10.9914,48.7037,0.1429,-0.066,0.2315,154.4688
20:18:55:873,-1.2544,0.8931,12.8061,48.7836,0.0849,-0.2511,0.2969,154.5
20:18:55:893,-1.5227,0.6392,12.6577,48.4482,0.336,-0.1002,0.4355,155.5312
20:18:55:913,-1.7955,0.8402,9.5907,48.3026,0.7629,0.1997,0.6389,155.625
20:18:55:934,-1.6519,1.3717,6.95,48.0731,0.967,0.182,0.8143,156.7812
20:18:55:954,-0.8115,2.1188,6.0523,47.8964,0.7575,-0.0171,0.9236,158.3125
20:18:55:973,0.1292,2.7676,6.8351,48.0212,0.3036,-0.1906,0.8753,158.3125
20:18:55:993,0.6775,2.5929,8.3363,48.0221,-0.0874,-0.2724,0.6353,159.5625
20:18:56:014,0.7445,2.0303,9.3634,48.0812,-0.3011,-0.1997,0.3409,159.5625
20:18:56:034,0.3114,1.6376,9.7869,48.0279,-0.3836,-0.014,0.113,160.1875
20:18:56:053,-0.2994,1.2879,9.5022,48.1105,-0.3482,0.1704,-0.0006,160.1875
20:18:56:073,-0.6799,1.1348,9.0808,48.1675,-0.2254,0.2138,0.0244,160.3281
20:18:56:093,-0.6918,1.5036,8.9061,48.0993,-0.0782,0.1662,0.1429,160.3281
20:18:56:114,-0.2441,2.1835,8.6474,47.9578,0.0672,0.1625,0.2639,160.0781
20:18:56:135,0.0694,2.8155,8.0776,47.8568,0.1845,0.2395,0.284,160.0781
20:18:56:153,0.0191,3.3757,7.4671,47.7937,0.2175,0.3213,0.1979,159.5469
20:18:56:174,-0.2728,3.5216,7.2159,47.6052,0.1423,0.3073,0.0605,159.5469
20:18:56:193,-0.553,3.1675,7.7521,47.4534,0.0031,0.1967,-0.0684,158.5156
20:18:56:213,-0.8378,2.7963,8.6809,47.0502,-0.1393,0.0904,-0.1283,158.4062
20:18:56:233,-1.1779,2.6647,9.7726,46.8538,-0.1961,0.0153,-0.102,156.7031
20:18:56:253,-1.13,2.691,10.5078,46.7709,-0.1106,-0.0122,0.0079,156.5312
20:18:56:274,-0.3688,2.7245,10.7495,46.6551,0.0709,-0.0373,0.1594,155.0938
20:18:56:294,0.7253,3.3494,10.3424,46.2574,0.2975,-0.2254,0.1973,154.9531
20:18:56:315,0.7493,3.4259,10.2036,45.8859,0.2352,-0.2694,0.0782,154.5
20:18:56:334,0.4071,3.2369,9.9021,45.7825,0.1057,-0.2718,-0.0538,154.4688
20:18:56:353,0.2034,3.0236,9.9547,45.5629,-0.0751,-0.3329,-0.1051,154.3594
20:18:56:373,0.8931,2.691,11.0058,45.6863,-0.3201,-0.4624,-0.0825,154.3594
20:18:56:393,2.1404,2.3366,12.9879,45.5538,-0.584,-0.5608,-0.0983,153.9062
20:18:56:414,2.9638,1.9343,15.533,45.2976,-0.7159,-0.496,-0.2486,153.8594
20:18:56:434,2.0566,0.9242,15.7005,45.1249,-0.5314,-0.1124,-0.4966,153.2969
20:18:56:453,0.1364,-0.2465,13.9313,45.2074,-0.0916,0.4087,-0.5632,153.25
20:18:56:474,-0.4908,-0.6464,10.8236,45.1877,0.4539,0.8766,-0.2065,153.1719
20:18:56:493,-0.0885,0.1914,8.4894,44.8141,0.9034,0.9248,0.295,153.3906
20:18:56:514,0.9242,1.8793,6.6485,44.61,1.0672,0.6793,0.6017,153.3906
20:18:56:535,1.9439,3.3852,5.9447,44.5948,0.8173,0.3818,0.5333,153.2188
20:18:56:554,2.3677,3.7325,5.9566,44.3441,0.2877,0.2828,0.1423,153.2188
20:18:56:576,1.5634,2.9638,6.9141,44.0745,-0.2602,0.292,-0.3335,152.8125
20:18:56:593,0.3353,2.2935,7.7641,43.8295,-0.5974,0.2737,-0.6212,152.8125
20:18:56:614,-0.5411,2.1165,8.7817,43.6304,-0.6273,0.0702,-0.6622,152.875
20:18:56:634,-0.7229,2.0088,9.5429,43.4351,-0.4215,-0.1576,-0.5498,152.875
20:18:56:655,-0.5578,2.1117,9.1813,43.4786,-0.1222,-0.1655,-0.3659,153.2188
20:18:56:675,-0.2827,2.6456,8.4512,43.5211,0.1026,-0.0305,-0.1729,153.2188
20:18:56:693,0.2345,3.4211,7.7258,43.4418,0.2126,0.0171,-0.022,153.75
20:18:56:715,0.778,3.8976,7.6899,43.7094,0.2144,-0.1057,-0.0238,153.75
20:18:56:736,1.0798,3.9526,7.8431,43.8748,0.1704,-0.2114,-0.1497,154.7656
20:18:56:754,1.0175,3.7947,7.922,44.0293,0.0922,-0.2364,-0.3128,154.8594
20:18:56:775,0.8692,3.6751,8.1592,43.9868,-0.0348,-0.2602,-0.4569,154.5625
20:18:56:794,-0.0957,3.5049,9.8877,44.0433,-0.3256,-0.2541,-0.6157,154.5312
20:18:56:818,-0.9912,3.5097,10.1055,44.0114,-0.361,-0.0281,-0.5485,153.1719
20:18:56:836,-1.5897,3.6173,9.8973,43.6798,-0.3042,0.1362,-0.361,153.1719
20:18:56:855,-1.4653,3.7564,10.0935,43.2249,-0.223,0.0709,-0.1228,153.25
20:18:56:873,-0.9266,3.9766,10.8452,42.8483,-0.1435,-0.0861,0.0794,153.25
20:18:56:893,-0.4573,4.2233,11.578,42.6922,-0.0635,-0.1503,0.1845,154.4219
20:18:56:914,-0.0909,4.0627,11.6474,42.5401,0.0079,-0.0928,0.1778,154.5312
20:18:56:936,-0.2898,3.8115,11.6785,42.6357,0.0202,-0.0348,0.0751,155.4844
20:18:56:954,-1.1587,3.6823,11.8938,42.3382,-0.0373,0.0617,-0.0214,155.5781
20:18:56:976,-2.1141,3.5169,11.6354,42.4414,-0.1069,0.2969,-0.0037,155.7969
20:18:56:993,-2.2959,3.2393,10.7064,42.7186,-0.1472,0.4862,0.1258,156.0781
20:18:57:015,-1.3765,2.3318,10.2802,43.0951,-0.1582,0.3262,0.2187,156.0781
20:18:57:035,-0.8955,1.4246,10.9795,43.1564,-0.1338,-0.0147,0.1814,157
20:18:57:053,-1.6567,1.0798,11.2834,43.2685,-0.0281,-0.0696,0.1649,157
20:18:57:075,-2.1667,1.0367,10.0983,43.4244,0.1662,0.1631,0.3323,158.375
20:18:57:093,-1.829,1.1803,8.7864,43.5489,0.3512,0.2584,0.5693,158.375
20:18:57:114,-1.2616,1.4222,8.0178,44.047,0.4215,0.1356,0.7129,159.3281
20:18:57:135,-0.268,1.7453,8.0991,44.1582,0.3476,-0.0764,0.7654,159.3281
20:18:57:154,0.6966,1.9896,8.8558,44.1073,0.1478,-0.201,0.6854,159.3438
20:18:57:175,0.9266,1.9271,9.4902,44.2293,-0.0751,-0.1008,0.4734,159.375
20:18:57:193,0.3257,1.6017,9.3993,44.6207,-0.1967,0.171,0.2401,159.0156
20:18:57:215,-0.5794,1.3741,8.9252,44.8626,-0.1845,0.4019,0.1118,159.0156
20:18:57:237,-1.2138,1.4004,8.2071,44.9756,-0.0812,0.5192,0.1545,158.9531
20:18:57:254,-1.197,1.7046,7.5102,44.9402,0.0678,0.5235,0.3091,158.9375
20:18:57:275,-0.9601,2.1978,6.804,45.1508,0.1973,0.4813,0.4465,158.7031
20:18:57:347,-0.7971,2.6791,6.2821,45.168,0.2333,0.4087,0.5021,158.6719
20:18:57:348,-0.5889,3.323,6.4041,45.4331,0.149,0.3109,0.4954,158.1719
20:18:57:348,-0.687,3.2465,6.5695,45.383,-0.1924,0.1527,0.3555,158.1719
20:18:57:353,-0.8812,3.1005,6.8853,45.1968,-0.3366,0.0287,0.2859,157.6719
20:18:57:375,-0.7349,2.959,7.8933,45.6013,-0.4416,-0.2059,0.2633,157.625
20:18:57:393,-0.51,2.9973,9.143,45.6561,-0.4972,-0.4313,0.2651,156.3281
20:18:57:413,-0.3329,3.0308,10.2371,45.9771,-0.4936,-0.562,0.2596,156.2031
20:18:57:436,0.1172,2.8705,11.0273,45.9766,-0.4435,-0.6432,0.2382,154.8125
20:18:57:453,0.5267,2.6264,12.0494,46.0874,-0.4074,-0.7275,0.1747,153.9219
20:18:57:473,0.7851,2.2193,12.9114,46.1337,-0.3848,-0.7098,0.1155,153.9219
20:18:57:493,0.7636,1.9848,12.8228,46.2987,-0.3256,-0.507,0.113,153.3906
20:18:57:513,1.0391,2.1691,12.023,46.5571,-0.2559,-0.2676,0.1619,153.3906
20:18:57:535,1.8123,2.0327,11.2475,46.4753,-0.2663,-0.2376,0.1545,152.4219
20:18:57:554,2.2361,1.7716,11.458,46.6373,-0.4239,-0.4875,-0.0024,152.4219
20:18:57:575,2.1284,1.2305,12.8563,46.6592,-0.6542,-0.7849,-0.2248,151.2188
20:18:57:593,1.5251,0.5818,14.2185,46.7,-0.7263,-0.8375,-0.3573,151.2188
20:18:57:614,0.5148,-0.1507,14.2232,46.9287,-0.4936,-0.5528,-0.328,150.3594
20:18:57:636,0,-0.4932,12.6,47.2643,-0.0238,-0.1191,-0.0715,150.2656
20:18:57:655,0.376,-0.189,10.5317,47.4499,0.4496,0.1607,0.306,150.2656
20:18:57:675,1.3238,0.7205,9.1932,47.7289,0.6848,0.1637,0.6249,149.6406
20:18:57:693,3.256,1.8099,8.8702,47.9009,0.6249,0.0104,0.755,149.1562
20:18:57:715,4.9199,2.5307,9.4567,48.3532,0.358,-0.099,0.5424,149.1562
20:18:57:737,4.9391,2.4826,9.8423,48.6848,0.0867,0.0452,0.0489,148.8906
20:18:57:754,3.3254,2.0088,9.1813,49.1,-0.0244,0.3219,-0.4447,148.8594
20:18:57:775,1.6831,1.7477,8.0991,49.2536,0.0012,0.4826,-0.6988,148.7656
20:18:57:793,0.7445,1.8577,7.4551,49.4551,0.0757,0.394,-0.7019,148.75
20:18:57:816,0.6248,2.1284,7.7402,49.8189,0.2254,0.0098,-0.4954,148.5
20:18:57:836,1.3478,2.7628,7.5556,49.9483,0.2346,0.014,-0.46,148.4688
20:18:57:855,1.4318,2.9136,7.8168,50.2854,0.146,-0.0061,-0.5082,148.8281
20:18:57:875,1.13,2.8848,8.5134,50.4561,0.0324,-0.0421,-0.5889,148.8594
20:18:57:894,0.4047,2.6169,9.2291,50.3668,-0.0134,-0.099,-0.6286,149.6875
20:18:57:919,0.2321,2.5283,9.8877,50.4271,0.0525,-0.1924,-0.54,149.7656
20:18:57:937,0.6224,2.7102,10.2515,50.7223,0.1857,-0.1875,-0.3781,149.5312
20:18:57:954,0.8453,2.9949,10.0576,50.9248,0.3103,-0.0373,-0.2462,149.5156
20:18:57:974,0.7732,3.2393,9.5285,51.196,0.3714,0.1313,-0.1637,148.1094
20:18:57:993,0.6846,3.2967,9.1621,51.4026,0.372,0.1796,-0.1142,147.3125
20:18:58:015,0.6918,3.2321,9.3395,51.4702,0.3415,0.1014,-0.08,147.3125
20:18:58:036,0.5076,3.0188,10.0887,51.6955,0.2969,0.0244,-0.0721,148.4531
20:18:58:054,-0.1053,2.7317,10.3041,52.2079,0.2938,0.0556,-0.0605,148.4531
20:18:58:076,-0.3568,2.7317,10.0696,52.5675,0.3372,0.0593,-0.0165,149.8125
20:18:58:094,-0.7253,2.5113,9.1047,52.8669,0.3402,0.0263,0.0067,149.8125
20:18:58:115,-1.3908,2.3677,8.9157,53.0502,0.1075,-0.0147,0.0617,149.8281
20:18:58:136,-1.2832,2.4754,9.4232,53.3618,-0.3225,-0.0507,0.2144,150.875
20:18:58:154,-0.1149,2.2313,11.4772,53.7254,-0.7312,-0.2889,0.3207,150.875
20:18:58:175,1.2568,1.386,13.7037,54.193,-0.8259,-0.5913,0.2785,152.0781
20:18:58:193,2.849,1.884,17.9749,54.5159,-0.496,-0.369,0.1008,153.4062
20:18:58:216,-0.0694,1.7812,13.0884,54.5996,0.0226,0.4245,-0.1771,153.4062
20:18:58:238,-1.6041,1.2903,7.5846,55.0358,0.2144,0.5327,-0.1063,154.1406
20:18:58:255,-1.0558,1.695,6.3969,55.248,0.347,-0.1124,0.0892,154.1406
20:18:58:275,0.0407,2.1452,6.4137,55.5864,0.4374,-0.9688,0.1515,154.4062
20:18:58:293,0.8835,2.1236,7.168,55.5008,0.3402,-1.7514,0.0977,154.4219
20:18:58:316,0.8524,1.4868,6.9165,55.662,-0.7116,-1.0885,-0.0232,154.5781
20:18:58:337,1.9968,2.4634,10.5939,55.8134,-1.3708,-0.2566,0.1637,154.5938
20:18:58:355,1.3119,1.4797,10.8787,56.0573,-1.0708,0.4062,0.0464,154.6562
20:18:58:375,1.1755,1.4964,9.2821,56.3799,-0.551,0.5675,0.0965,154.6719
20:18:58:393,1.1587,1.9223,8.1278,56.4268,-0.223,0.4685,0.1936,154.6094
20:18:58:413,0.3784,1.841,8.2071,56.8221,-0.1814,0.4606,0.2462,154.5938
20:18:58:438,0.644,1.6472,8.3698,56.896,-0.2205,0.3476,0.3922,154.0938
20:18:58:453,1.4581,1.7836,8.3602,57.2634,-0.3091,0.2761,0.5027,153.7969
20:18:58:474,1.5467,1.7118,8.0321,57.3801,-0.5052,0.358,0.3854,153.7969
20:18:58:493,1.0439,1.992,9.5501,57.568,-0.7691,0.1405,0.2193,153.9219
20:18:58:514,0.8163,2.0925,11.1087,57.6842,-0.8216,-0.0312,0.1826,153.9219
20:18:58:536,1.0152,2.0949,11.7455,57.7684,-0.609,-0.0037,0.1973,153.8438
20:18:58:554,0.9793,1.9558,11.7048,57.8792,-0.1906,0.0336,0.1069,153.8438
20:18:58:575,1.3382,1.9487,10.7949,57.8205,0.1093,0.1069,-0.0183,154.3281
20:18:58:593,1.1563,1.6998,10.0672,57.8798,0.124,0.0403,-0.1448,154.3281
20:18:58:614,0.4741,1.506,10.0146,57.8674,-0.0018,-0.3964,-0.2211,154.3281
20:18:58:637,0.6488,1.5491,9.9954,58.1768,-0.2217,-0.7929,-0.2046,154.4688
20:18:58:654,1.8242,1.2305,11.0919,58.0537,-0.4728,-0.8399,-0.1515,154.25
20:18:58:675,3.134,0.8139,12.1837,58.2113,-0.5406,-0.5577,-0.1338,154.25
20:18:58:693,3.2249,0.8139,13.2515,58.3034,-0.3916,-0.1912,-0.2052,153.6719
20:18:58:714,2.8609,0.62,12.8228,58.5429,-0.1234,0.1991,-0.2853,153.6719
20:18:58:734,2.7221,0.1531,13.0071,58.6825,0.1093,0.3366,-0.3262,152.6406
20:18:58:755,2.5065,-0.5363,12.5976,59.1319,0.3708,0.4832,-0.4044,152.6406
20:18:58:775,2.5161,-0.2584,11.7694,59.4433,0.5449,0.678,-0.4942,152.0156
20:18:58:793,2.4969,0.309,10.4216,59.4521,0.6029,0.6267,-0.6047,151.9531
20:18:58:816,2.8083,0.2393,8.3889,59.7866,0.5919,0.4294,-0.788,151.5938
20:18:58:837,1.8099,0.8163,7.855,59.921,0.4734,0.441,-1.0201,151.5625
20:18:58:855,0.3736,1.209,8.1302,60.1291,0.0996,0.2523,-0.8979,151.4688
20:18:58:875,0.3138,1.0175,8.8726,59.8508,-0.1191,0.2767,-0.6573,151.4531
20:18:58:893,-0.1077,0.8429,9.7893,59.8695,-0.2248,0.4239,-0.4948,151.8438
20:18:58:915,-0.4023,0.6464,10.2778,59.7432,-0.1552,0.5992,-0.3555,151.875
20:18:58:938,-0.1484,0.711,10.1294,59.7946,0.0061,0.7098,-0.2175,152.3594
20:18:58:953,-0.0335,0.8931,9.6984,59.5514,0.182,0.6414,-0.1613,152.8438
20:18:58:973,-0.0574,1.1635,9.0042,59.3223,0.3372,0.4123,-0.1759,152.8438
20:18:58:993,-0.0024,1.5873,8.1326,59.3668,0.438,0.1216,-0.201,153.4688
20:18:59:014,0.0814,1.9801,7.4384,59.2377,0.4203,-0.1069,-0.2034,153.4688
20:18:59:036,-0.0072,2.3079,7.1154,59.5114,0.2902,-0.2889,-0.1802,154.3906
20:18:59:055,0.1172,2.4969,7.3331,59.6826,0.1124,-0.3867,-0.1222,154.3906
20:18:59:074,0.4143,2.557,7.5942,59.8067,-0.0354,-0.4368,-0.0495,154.4062
20:18:59:094,0.687,2.6408,7.879,59.747,-0.1594,-0.416,0.0086,155.8125
20:18:59:121,0.8091,2.6838,7.9914,60.1656,-0.2981,-0.3292,0.0434,155.8281
20:18:59:134,1.0654,2.6575,8.3626,60.3739,-0.4936,-0.2523,0.0513,158.0312
20:18:59:155,1.1157,2.4323,9.5979,60.1157,-0.7294,-0.1582,0.0336,158.0625
20:18:59:175,0.6679,2.0566,11.4078,60.2638,-0.9144,0.0977,0.0299,159.7031
20:18:59:194,0.0646,1.494,12.8611,60.3417,-0.915,0.4245,0.0794,160.5625
20:18:59:215,0.0167,1.0702,13.2108,60.1651,-0.6725,0.5382,0.1552,160.5625
20:18:59:234,0.4143,0.9386,12.6482,60.0067,-0.2755,0.2932,0.1942,160.8594
20:18:59:255,1.762,1.5275,11.822,60.1115,0.1472,-0.1161,0.1625,160.8594
20:18:59:275,1.5754,1.2066,10.8236,60.0857,0.3433,-0.2059,-0.0745,161.2031
20:18:59:293,0.778,1.1539,10.7136,60.0568,0.2278,0.0104,-0.2358,161.25
20:18:59:315,-0.0598,0.8788,11.19,60.207,0.0324,0.2352,-0.2584,161.6875
20:18:59:334,-0.6559,0.2704,11.3073,60.1832,-0.0281,0.2853,-0.1814,161.7344
20:18:59:411,-0.5961,-0.3329,11.0106,60.1116,-0.0159,0.2382,-0.0312,162
20:18:59:411,0.3018,-0.4382,10.5891,60.2634,0.0373,-0.2291,0.0623,162.0156
20:18:59:412,1.6256,0.3855,9.5692,60.2884,0.1808,-0.6854,-0.1197,162.0312
20:18:59:415,0.9218,0.6918,9.1454,60.1907,0.3555,-1.0048,-0.3347,162.0312
20:18:59:441,-0.3999,0.833,8.8367,60.2396,0.4752,-1.0146,-0.449,161.9688
20:18:59:454,-1.3358,1.008,8.5636,60.2905,0.3879,-0.5797,-0.2938,161.9531
20:18:59:475,-1.1611,1.2233,8.6043,60.2623,0.0739,0.0458,0.1069,161.7812
20:18:59:493,-0.2994,1.0223,9.2701,60.4066,-0.27,0.3732,0.4807,161.3438
20:18:59:514,0.6775,0.8716,10.1438,60.4758,-0.4594,0.3659,0.6334,161.3438
20:18:59:536,1.2712,0.8091,10.7279,60.3988,-0.3836,0.2236,0.5663,161.25
20:18:59:554,1.2353,1.0199,10.7614,60.3941,-0.0751,0.1332,0.3598,161.2344
20:18:59:575,0.6416,1.4605,10.2227,60.4857,0.3598,0.2462,0.1497,161.2344
20:18:59:593,-0.3114,1.6352,8.9994,60.2216,0.799,0.46,0.0568,161.7656
20:18:59:614,-0.4047,1.8721,7.2709,60.1543,0.9945,0.606,0.1545,161.7656
20:18:59:635,-0.0048,2.1595,6.1217,60.0831,0.7703,0.5528,0.2963,161.9688
20:18:59:653,0.1244,2.2337,6.6221,59.8406,0.3164,0.1619,0.2865,161.9688
20:18:59:675,-0.1029,2.2457,8.056,59.7,-0.0403,-0.2706,0.182,161.8125
20:18:59:693,-0.2489,2.4203,9.1454,59.808,-0.1607,-0.441,0.1234,162.4375
20:18:59:715,-0.2417,2.5041,9.8662,59.8584,-0.1344,-0.3433,0.1222,162.4375
20:18:59:737,-0.0479,2.6192,10.4958,59.978,-0.0531,-0.0947,0.1258,163.3906
20:18:59:754,0.0287,2.8226,11.1278,60.2115,0.0812,0.1594,0.1038,163.3906
20:18:59:775,-0.1436,2.9088,11.4293,60.3017,0.2889,0.3201,0.0745,162.7188
20:18:59:793,-0.2297,2.9662,11.4532,60.493,0.4948,0.4429,0.1014,162.7188
20:18:59:814,0.0311,2.904,11.1135,60.6858,0.6029,0.5534,0.2052,161.4844
20:18:59:835,0.632,2.8681,10.4192,60.7594,0.5693,0.5424,0.3213,161.3594
20:18:59:855,1.2544,3.0093,9.6673,60.8111,0.4038,0.3616,0.3409,160.8125
20:18:59:876,1.2879,3.0308,9.3514,60.8429,0.0922,0.1747,0.2523,160.7656
20:18:59:894,0.833,2.6145,10.1055,60.8519,-0.3109,0.1588,0.1765,160.4844
20:18:59:921,0.309,1.6472,11.3432,60.6145,-0.6475,0.3347,0.193,160.4531
20:18:59:935,0.5148,0.3712,12.6673,60.6627,-0.7263,0.7843,0.2908,159.8438
20:18:59:954,1.2832,0.7062,12.4732,60.6245,-0.4789,0.7013,0.2126,159.7812
20:18:59:973,1.506,0.7684,11.6426,60.4422,-0.0849,0.3079,-0.0244,159.5312
20:18:59:994,1.3286,0.8163,10.4312,60.3842,0.3628,-0.1906,-0.2975,159.2969
20:19:00:014,1.1803,1.1157,9.3347,60.3582,0.6958,-0.4044,-0.4539,159.2969
20:19:00:034,0.7995,1.3932,8.3554,60.4968,0.8136,-0.2498,-0.5082,159.2812
20:19:00:055,0.2827,1.5826,7.381,60.1395,0.6921,0.1289,-0.4551,159.0625
20:19:00:073,-0.1196,1.5227,6.8973,60.2253,0.3451,0.4868,-0.314,159.0312
20:19:00:094,-0.2082,1.2999,7.448,60.1541,-0.124,0.6133,-0.1802,158.6094
20:19:00:119,-0.1651,1.1707,8.5804,59.9843,-0.4991,0.4636,-0.124,158.6094
20:19:00:135,0.1627,1.2377,9.4137,60.0015,-0.6029,0.135,-0.1106,157.7969
20:19:00:155,0.4884,1.4844,9.4184,59.9989,-0.4349,-0.2114,-0.149,157.7969
20:19:00:176,0.8043,1.9152,8.7529,59.9079,-0.1435,-0.427,-0.2077,157.2812
20:19:00:193,0.8163,2.2265,8.0321,59.8806,0.1161,-0.493,-0.2669,156.5938
20:19:00:215,0.6009,2.6097,7.5604,60.1206,0.27,-0.4215,-0.3073,156.5938
20:19:00:235,0.0335,3.0909,7.2613,60.1728,0.27,-0.2242,-0.2902,155.8125
20:19:00:254,-0.5267,3.3015,7.2398,59.9842,0.1252,-0.0611,-0.1741,155.8125
20:19:00:274,-0.6224,3.2919,7.8335,59.9791,-0.1283,0.0024,0.0342,156.1719
20:19:00:293,-0.3616,3.0236,9.0257,60.1125,-0.3946,0.0177,0.2474,156.1719
20:19:00:314,0.0598,2.6647,10.3567,60.1256,-0.5437,0.0018,0.3897,157.2656
20:19:00:335,0.5387,2.4395,11.4628,60.0722,-0.5675,0.0232,0.4508,157.375
20:19:00:354,0.6033,2.0183,12.4971,60.0989,-0.4856,0.0983,0.4319,158.1406
20:19:00:376,-0.0024,1.0271,13.1052,60.0453,-0.1216,0.3011,0.2523,158.2188
20:19:00:394,-0.1364,1.0965,12.83,60.1346,0.1203,0.1271,0.1093,158.375
20:19:00:417,-0.0885,1.3741,12.2028,60.5319,0.3219,-0.1435,-0.0195,158.5781
20:19:00:436,-0.3257,1.4342,11.7909,60.7451,0.4239,-0.3616,-0.1045,158.5781
20:19:00:453,-1.3238,0.8788,11.5205,60.6497,0.4306,-0.4087,-0.1222,159.1562
20:19:00:473,-2.4012,0.0311,11.2092,60.7296,0.2651,-0.066,0.0073,159.1562
20:19:00:493,-2.3581,-0.2369,11.4437,60.7751,-0.1032,0.4074,0.3066,159.2188
20:19:00:519,-1.398,-0.5004,12.2937,60.7335,-0.3329,0.3598,0.5553,159.9062
20:19:00:535,0.0311,-0.4813,12.2961,60.9089,-0.1771,-0.0611,0.5846,159.9844
20:19:00:553,0.7469,-0.2154,11.2642,60.9498,0.2376,-0.5003,0.3378,160.1406
20:19:00:575,0.2946,0.1651,10.3304,60.8093,0.6615,-0.7177,-0.0159,160.1406
20:19:00:593,-0.8115,0.7253,9.3849,60.8113,0.9187,-0.5485,-0.2309,159.3906
20:19:00:614,-1.561,1.4438,8.176,60.9431,0.9089,-0.1209,-0.1662,159.3906
20:19:00:634,-1.6328,1.8434,7.2685,60.9806,0.631,0.1997,0.0941,158.3438
20:19:00:655,-0.984,1.8936,7.247,61.0476,0.2346,0.1747,0.3744,158.3438
20:19:00:675,-0.1555,1.9271,7.7139,61.01,-0.0739,-0.0733,0.5357,157.5781
20:19:00:693,0.4167,2.0255,8.0369,60.8921,-0.1888,-0.2963,0.551,157.5
20:19:00:715,0.486,2.2313,8.0704,61.0115,-0.149,-0.3494,0.4704,157.5
20:19:00:734,-0.0215,2.4921,7.8814,60.9709,-0.0641,-0.2132,0.3879,157.875
20:19:00:755,-0.5459,2.6958,7.6445,61.3065,-0.0134,0.0263,0.4025,157.875
20:19:00:776,-0.6607,2.7317,7.3116,61.3872,-0.0403,0.234,0.507,157.5156
20:19:00:793,-0.2728,2.715,7.3211,61.5695,-0.1417,0.2883,0.6151,157.5156
20:19:00:820,0.1268,2.6791,7.6875,61.6655,-0.259,0.234,0.6432,156.3281
20:19:00:834,0.4286,2.7676,8.2573,61.8686,-0.3445,0.1869,0.6047,156.2031
20:19:00:855,0.5698,2.8561,8.9515,62.0927,-0.3787,0.1643,0.5235,156.0312
20:19:00:874,0.6105,2.8131,9.7343,62.196,-0.3586,0.1655,0.4178,156.0312
20:19:00:895,0.9721,2.7963,11.0991,62.3513,-0.1295,0.1949,0.2504,156.5625
20:19:00:920,0.7469,2.6073,11.5588,61.9601,0.022,0.2089,0.1668,156.1562
20:19:00:934,0.4908,2.4371,11.7215,61.901,0.1038,0.2107,0.1185,156.1562
20:19:00:953,0.7516,2.3581,11.9345,61.7925,0.033,0.201,0.1136,155.0625
20:19:00:973,1.1587,2.339,12.253,61.9138,-0.1588,0.1442,0.0751,155.0625
20:19:00:993,1.3884,2.1667,12.6553,61.8586,-0.3225,-0.0336,-0.0446,154.9375
20:19:01:013,1.4366,1.896,13.0358,61.7738,-0.3702,-0.226,-0.201,154.1562
20:19:01:035,1.2975,1.4222,13.1195,61.4328,-0.2834,-0.2737,-0.3347,154.0781
20:19:01:055,1.3478,0.9505,12.6697,61.2684,-0.088,-0.1374,-0.4221,153.125
20:19:01:073,1.6926,0.9793,11.8316,61.3534,0.1784,0.0312,-0.5156,153.0312
20:19:01:093,1.8314,1.1874,10.5604,61.5364,0.4734,0.0745,-0.6646,151.5781
20:19:01:119,1.6974,1.3956,9.1741,61.494,0.73,-0.0171,-0.8124,151.5625
20:19:01:134,1.4797,1.6567,8.1903,61.3266,0.8503,-0.1081,-0.901,150.25
20:19:01:154,1.1635,1.9681,7.5942,61.2514,0.7672,-0.0165,-0.9138,150.25
20:19:01:174,0.778,2.0949,7.5245,61.1135,0.4997,0.2303,-0.8295,149.3594
20:19:01:193,0.3951,1.8242,8.0871,61.3427,0.1179,0.4862,-0.6793,148.8438
20:19:01:215,0.2393,1.4103,9.2076,61.3564,-0.2193,0.5711,-0.5522,148.8438
20:19:01:234,0.2536,1.1587,10.1486,61.1904,-0.408,0.554,-0.4844,148.5312
