Time,Acc_X,Acc_Y,Acc_Z,Meg,Gyr_X,Gyr_Y,Gyr_Z,Ore
19:25:06:641,-0.1029,3.3087,9.2267,27.0183,0.0336,-0.1533,-0.0721,193.2344
19:25:06:660,-0.2728,3.2824,8.9827,26.8787,0.0086,-0.1069,-0.0983,193.2344
19:25:06:686,-0.4597,3.1771,9.0808,26.897,-0.0849,-0.044,-0.1032,193.2344
19:25:06:703,-0.5578,3.1364,9.4496,27.2077,-0.1387,-0.0342,-0.0806,193.2344
19:25:06:720,-0.5243,3.1388,9.5213,27.1634,-0.1106,-0.0745,-0.0501,193.2344
19:25:06:736,-0.4262,3.1244,9.6434,26.9369,-0.0617,-0.113,-0.0299,193.2344
19:25:06:756,-0.4095,3.0643,9.7846,26.767,-0.0006,-0.1607,-0.0079,193.2344
19:25:06:774,-0.3305,3.038,9.5333,26.9294,0.0794,-0.1674,0.0208,193.2344
19:25:06:800,-0.3473,3.1555,9.2243,26.8888,0.1014,-0.1503,0.0483,193.2344
19:25:06:816,-0.2584,3.3302,9.1358,26.9648,0.0654,-0.0861,0.0709,193.2344
19:25:06:833,-0.3736,3.3876,8.9635,27.171,0.022,-0.0092,0.0605,193.2344
19:25:06:852,-0.4932,3.4116,8.8511,26.8639,-0.014,-0.0232,0.0525,193.2344
19:25:06:871,-0.6511,3.4259,8.621,26.8613,-0.0434,-0.0617,0.047,193.2344
19:25:06:890,-0.754,3.4522,8.6761,26.9333,-0.0764,-0.1808,0.0446,193.2344
19:25:06:910,-0.4693,3.4307,8.7936,27.0238,-0.1026,-0.2938,0.0525,193.2344
19:25:06:928,-0.4214,3.4714,8.8487,26.9975,-0.1796,-0.1918,0.047,193.2344
19:25:06:953,-0.7229,3.6197,8.8989,27.0099,-0.3268,0.0867,0.0635,193.2344
19:25:06:970,-0.8282,3.7397,8.8774,26.9751,-0.4325,0.3512,0.113,193.4844
19:25:06:989,-1.0582,3.8545,8.9563,26.7794,-0.4123,0.4355,0.1393,193.6406
19:25:07:010,-1.2832,3.9239,8.8319,26.9333,-0.2523,0.347,0.1472,193.6406
19:25:07:028,-1.0534,3.9215,8.4846,26.9062,-0.0379,0.0849,0.1466,193.6406
19:25:07:048,-0.7325,3.9838,8.2525,26.8503,0.044,-0.1442,0.0922,193.7344
19:25:07:070,-0.644,3.821,8.5445,26.8459,-0.0806,-0.2401,0.0037,193.7344
19:25:07:087,-0.644,3.6535,9.7008,26.7817,-0.2926,-0.2975,-0.058,193.7344
19:25:07:108,-0.6224,3.524,10.7279,26.7322,-0.4013,-0.2633,-0.055,193.7344
19:25:07:128,-0.4645,3.5216,11.0871,26.7927,-0.3531,-0.1307,-0.0098,193.6094
19:25:07:151,-0.3449,3.6126,10.4504,26.9498,-0.215,0.0605,0.0476,193.6094
19:25:07:169,-0.1292,3.7014,9.5548,26.691,-0.1197,0.2077,0.0898,193.5156
19:25:07:188,0.2177,3.6703,8.7242,26.485,-0.1234,0.2309,0.1038,193.5
19:25:07:209,0.3353,3.7301,8.6856,26.4837,-0.2156,0.1405,0.0788,193.5
19:25:07:229,0.1579,3.9574,9.6386,26.637,-0.3048,-0.0305,0.0287,193.3906
19:25:07:251,0.1484,3.9718,10.2443,26.5606,-0.2517,-0.1319,-0.0128,193.3906
19:25:07:268,0.0287,3.7445,9.8303,26.6228,-0.1045,-0.0611,-0.0617,188.1562
19:25:07:287,-0.1507,3.4594,8.9803,26.5091,-0.0159,0.0312,-0.0837,188.0781
19:25:07:309,-0.2489,3.3494,8.5875,26.2835,-0.0574,0.0953,-0.0629,187.6875
19:25:07:328,-0.4669,3.2824,8.6402,26.2807,-0.1417,0.1539,-0.036,187.6406
19:25:07:348,-0.8859,3.2321,8.9372,26.5202,-0.1558,0.1429,-0.0165,187.6094
19:25:07:370,-1.0558,3.05,9.44,26.5354,-0.0421,-0.0232,-0.011,187.6094
19:25:07:389,-1.008,2.7293,9.8351,26.4049,0.1509,-0.1808,-0.025,187.7969
19:25:07:409,-1.2042,2.5666,9.8973,26.62,0.292,-0.2095,0.0086,187.8125
19:25:07:428,-1.2162,2.8753,10.1581,26.667,0.3329,-0.2602,0.1344,187.7812
19:25:07:453,-0.9362,3.3087,10.6179,26.833,0.3152,-0.2547,0.2529,187.7656
19:25:07:470,0.3018,3.9168,10.2706,26.901,0.1753,0.1216,0.2938,187.4844
19:25:07:489,0.4119,3.9455,9.6864,27.2575,-0.0183,0.3305,0.1863,187.4688
19:25:07:509,0.3305,3.7373,8.942,27.2072,-0.3079,0.4117,0.0434,187.3125
19:25:07:528,0.7588,3.1795,8.1425,27.1578,-0.7214,0.3091,-0.0788,187.2969
19:25:07:551,1.3789,2.2409,10.139,27.3591,-1.2528,-0.2071,-0.2297,187.3906
19:25:07:569,1.9056,1.1539,14.307,27.1892,-1.526,-1.0189,-0.4007,187.4062
19:25:07:587,2.406,0.5028,17.4147,27.1467,-1.2681,-1.5284,-0.4844,187.5469
19:25:07:608,2.1093,-0.0694,17.5965,27.1906,-0.656,-1.1514,-0.518,187.5469
19:25:07:627,1.2784,-0.5411,15.3532,27.3426,0.0464,-0.1716,-0.3922,187.5312
19:25:07:653,1.2951,-0.3018,12.2387,27.3662,0.6646,0.6744,-0.066,187.5312
19:25:07:668,1.8434,0.4597,8.9683,27.3366,1.0629,1.1686,0.2034,187.625
19:25:07:687,2.205,1.6663,5.8606,27.5511,1.1197,1.2296,0.3042,187.625
19:25:07:709,2.5403,2.6097,4.7569,27.4984,0.8118,0.8845,0.2278,187.5625
19:25:07:728,2.4754,2.8131,5.1138,27.4048,0.4154,0.4606,-0.0232,187.0312
19:25:07:747,1.8003,2.4754,5.7912,27.5919,0.1484,0.1429,-0.3396,187.0312
19:25:07:769,1.0487,2.0973,6.5934,27.6422,0.0086,-0.1167,-0.5522,186.4219
19:25:07:789,0.7158,1.9223,7.1824,27.5937,-0.0556,-0.2419,-0.6163,186.4219
19:25:07:808,0.5411,1.9753,7.491,27.3008,-0.1057,-0.2449,-0.6066,186.2969
19:25:07:828,0.7038,2.2265,7.934,27.5873,-0.1692,-0.2614,-0.5528,186.2969
19:25:07:847,1.1372,2.4873,8.741,27.4325,-0.2211,-0.3244,-0.5094,187.0938
19:25:07:869,1.4988,2.7461,9.495,27.4023,-0.2223,-0.3744,-0.5094,187.0938
19:25:07:888,1.4868,2.9542,10.0433,27.7941,-0.1833,-0.3775,-0.5473,188.3906
19:25:07:908,1.2209,2.9423,10.5772,27.7624,-0.1045,-0.3946,-0.5766,188.5156
19:25:07:928,1.0702,2.7915,11.0154,27.757,0.0391,-0.4129,-0.562,188.9375
19:25:07:947,0.8764,2.8131,10.9241,27.7365,0.2162,-0.2926,-0.5009,188.9688
19:25:07:969,0.6823,3.1675,10.218,28.001,0.3518,-0.0281,-0.4056,188.2031
19:25:07:989,0.6488,3.6461,9.3108,27.9699,0.3525,0.3305,-0.2792,188.125
19:25:08:011,0.553,3.9694,8.6809,28.1158,0.2559,0.2969,-0.295,187.7656
19:25:08:028,0.2273,4.1154,8.6306,28.2565,0.1735,0.1008,-0.3146,187.7188
19:25:08:048,0.2058,4.046,10.3953,28.1702,0.16,-0.1869,-0.3311,188.6094
19:25:08:067,0.079,3.8426,11.4365,28.3815,0.2065,-0.3787,-0.3799,188.7031
19:25:08:088,-0.352,3.4618,12.3033,28.7861,0.2547,-0.4306,-0.4251,189.9844
19:25:08:107,-0.8907,3.122,12.5617,28.9381,0.2889,-0.2828,-0.3958,190.1094
19:25:08:128,-1.6783,3.1005,12.0015,28.9317,0.2596,0.0788,-0.2993,191.25
19:25:08:151,-2.0136,3.3494,10.8691,29.0424,0.1393,0.4465,-0.1466,191.3594
19:25:08:170,-1.4246,3.1268,10.3905,29.186,-0.036,0.4392,-0.0226,192.625
19:25:08:188,-0.7397,2.2935,11.4772,29.4416,-0.1222,-0.0385,0,192.6406
19:25:08:210,-1.1157,1.7453,13.1698,29.5874,0.047,-0.5858,-0.0489,194
19:25:08:227,-1.9199,1.3693,13.4907,29.5212,0.4722,-0.6377,-0.0324,195.0781
19:25:08:252,-2.2935,1.0223,11.482,29.5357,0.9389,-0.0751,0.1326,195.0781
19:25:08:268,-2.1141,1.3382,7.4839,29.6666,1.1331,0.6591,0.3598,195.6719
19:25:08:288,-1.6759,2.3605,5.3318,29.8835,0.8088,0.8442,0.5296,195.6719
19:25:08:308,-0.5339,2.9806,5.5089,30.0191,0.2376,0.7532,0.598,196.2969
19:25:08:327,0.4214,2.5953,6.5527,30.0135,-0.1698,0.5699,0.4642,196.2969
19:25:08:347,0.7899,1.8769,7.3331,29.8533,-0.3366,0.3793,0.2431,197.1875
19:25:08:370,0.6655,1.4509,7.5724,30.1181,-0.3506,0.3121,0.069,197.1875
19:25:08:389,0.0598,1.2592,7.5461,30.2864,-0.3561,0.3048,-0.0379,198.25
19:25:08:408,-0.3377,1.3765,7.9723,30.3398,-0.4478,0.2822,-0.0538,198.25
19:25:08:470,-0.3114,1.9391,8.9109,30.5118,-0.5925,0.3158,0.0012,198.625
19:25:08:470,-0.2946,2.4921,9.4639,30.7171,-0.667,0.4807,0.0318,198.6719
19:25:08:471,-0.8091,2.7102,9.5812,30.9388,-0.6176,0.5937,0.0024,198.625
19:25:08:488,-1.6543,3.0811,9.076,31.3009,-0.1014,0.3372,0.0489,198.6094
19:25:08:509,-1.8003,3.3087,8.6904,31.6449,0.1784,0.124,0.1008,198.9219
19:25:08:528,-1.4318,3.5504,8.566,31.8254,0.3329,-0.102,0.1759,198.9531
19:25:08:552,-1.075,3.7181,8.6617,32.2045,0.3274,-0.2358,0.2223,198.4375
19:25:08:567,-1.1109,3.7875,9.2629,32.6117,0.2101,-0.3011,0.2187,198.3906
19:25:08:588,-0.9888,3.6461,10.0026,32.8228,0.1161,-0.3109,0.2278,197
19:25:08:607,-0.5339,3.3398,10.1797,33.0185,0.0867,-0.2529,0.2468,196.8594
19:25:08:628,-0.1795,3.3039,10.4551,33.1624,0.0556,-0.2511,0.2504,195.9219
19:25:08:653,0.0359,3.2776,11.0058,33.4304,0.0287,-0.3134,0.2297,195.8281
19:25:08:669,0.4095,2.9901,11.633,33.5032,0.0586,-0.419,0.204,195.6406
19:25:08:688,0.4956,2.9207,12.023,33.6495,0.1423,-0.4484,0.1955,195.6094
19:25:08:707,0.7756,3.2249,11.7742,33.8285,0.2401,-0.3201,0.2327,195.4688
19:25:08:727,1.7046,3.0787,10.9409,34.0122,0.3048,-0.088,0.259,195.125
19:25:08:753,2.8896,2.904,9.3634,34.2247,0.3066,-0.0232,0.1393,195.125
19:25:08:769,2.7413,2.0734,9.2243,34.4618,0.1045,-0.3476,-0.2187,194.8594
19:25:08:788,1.3525,1.1803,10.2108,34.7208,-0.2162,-0.5559,-0.5589,194.8594
19:25:08:809,0.256,0.7038,11.1805,34.8129,-0.4459,-0.361,-0.6249,194.6094
19:25:08:828,0.3855,0.5387,11.5373,35.3783,-0.4832,-0.0446,-0.4581,194.6094
19:25:08:847,1.1037,0.8596,10.7136,35.7214,-0.3934,0.3744,-0.2425,194.2656
19:25:08:869,1.7572,1.4701,9.4376,35.8838,-0.3488,0.7055,-0.1326,194.2656
19:25:08:889,2.004,1.8003,8.9348,35.993,-0.3854,0.6988,-0.1833,193.875
19:25:08:910,1.7979,1.8218,8.8199,36.3896,-0.3983,0.4881,-0.3317,193.875
19:25:08:927,1.1659,1.8769,8.8941,36.6179,-0.3506,0.2107,-0.4704,193.5
19:25:08:947,0.5315,1.9439,9.0497,36.8409,-0.2388,-0.0293,-0.5333,193.4688
19:25:08:969,0.2922,1.9872,9.0616,37.1381,-0.0715,-0.1674,-0.5272,193.2344
19:25:08:989,0.1412,2.2433,8.741,37.2073,0.0983,-0.1643,-0.4985,193.2031
19:25:09:011,-0.1125,2.5379,8.1182,37.2228,0.2077,-0.0605,-0.4771,192.8125
19:25:09:033,-0.4382,2.9016,6.9308,37.2848,0.1594,0.1106,-0.4471,192.7812
19:25:09:050,-0.51,2.9925,7.2541,37.3634,0.0348,0.0232,-0.452,192.9531
19:25:09:069,-0.62,2.9518,8.1206,37.4362,-0.0538,-0.1283,-0.4581,192.9688
19:25:09:087,-0.6559,2.8346,8.8654,37.6909,-0.0641,-0.2266,-0.4282,194.2812
19:25:09:108,-0.5219,2.837,9.1406,37.8535,-0.047,-0.2114,-0.3677,194.4062
19:25:09:127,-0.4956,2.6886,9.2653,38.0232,-0.055,-0.1405,-0.3183,195.0156
19:25:09:147,-0.6679,2.5905,9.4017,38.1148,-0.0476,-0.1118,-0.2657,195.0781
19:25:09:169,-1.1061,2.7389,9.8013,38.3698,-0.0049,-0.1796,-0.1863,195.125
19:25:09:188,-1.1252,2.892,10.2754,38.5829,0.0647,-0.2688,-0.0464,195.125
19:25:09:208,-0.3114,3.026,10.6944,39.0027,0.1264,-0.3274,0.1271,195.8281
19:25:09:227,0.4741,3.481,11.2092,39.205,0.1326,-0.2957,0.2175,197
19:25:09:253,0.8258,3.8569,11.9489,39.4136,0.0672,-0.1613,0.1692,197
19:25:09:268,0.5387,3.5432,12.1358,39.6031,0.0098,0.0654,0.0287,198.1406
19:25:09:288,-0.6823,2.9853,11.5684,39.7692,-0.0073,0.2902,-0.1112,198.1406
19:25:09:309,-1.6232,2.6288,11.0656,39.9382,-0.0446,0.3977,-0.1264,199.1406
19:25:09:327,-1.64,2.4754,10.7997,40.1424,-0.1118,0.358,-0.0238,199.1406
19:25:09:348,-0.8139,1.9008,11.2499,40.5602,-0.1564,0.0672,0.0641,200.1562
19:25:09:368,-0.6224,1.6663,13.2873,40.5491,-0.0904,-0.3989,0.0776,200.1562
19:25:09:389,-1.0463,1.6663,13.0813,40.6391,0.1875,-0.3708,0.0819,201.0938
19:25:09:408,-1.2377,1.6591,10.3711,40.9191,0.4514,0.0281,0.1222,201.0938
19:25:09:427,-1.264,1.6926,8.0513,41.0646,0.4032,0.2566,0.1423,201.7188
19:25:09:452,-0.9721,1.9056,7.4647,41.1863,0.0794,0.2382,0.1435,201.7812
19:25:09:468,-0.5554,1.9896,7.9723,41.5524,-0.259,0.1258,0.0837,202.0938
19:25:09:488,-0.4765,1.6065,8.8176,41.9241,-0.4355,-0.0263,-0.0513,202.125
19:25:09:509,-1.0558,1.1252,9.6218,42.1926,-0.4423,-0.0971,-0.1692,201.8906
19:25:09:528,-1.6232,1.0582,9.5572,42.4146,-0.3457,0.0757,-0.1558,201.875
19:25:09:553,-2.0399,1.5443,7.9747,42.443,-0.1271,0.5241,0.0647,201.6875
19:25:09:570,-1.9295,2.0231,7.5823,42.6943,-0.0788,0.4563,0.182,201.6719
19:25:09:587,-1.5682,2.5618,8.4105,42.9109,-0.0122,0.1307,0.2688,201.7969
19:25:09:607,-0.8907,2.8418,9.0975,42.9501,0.16,-0.1368,0.2969,201.8125
19:25:09:627,-0.6081,3.0885,8.7864,43.0749,0.3464,-0.1576,0.2449,201.6875
19:25:09:653,-0.9505,3.2441,8.1182,43.2257,0.3836,-0.0611,0.1411,201.6719
19:25:09:668,-1.276,3.0452,8.0058,43.3181,0.2676,-0.0373,0.0623,201.6406
19:25:09:689,-1.4964,2.6982,8.5828,43.564,0.1411,-0.1148,0.0495,201.6406
19:25:09:708,-1.628,2.5881,9.2267,43.9927,0.0935,-0.1759,0.1032,201.3594
19:25:09:728,-1.5347,2.758,9.4591,44.2938,0.1087,-0.168,0.1967,201.0312
19:25:09:753,-1.3932,2.7437,9.3275,44.7243,0.1161,-0.1484,0.2706,201.0312
19:25:09:769,-1.3549,2.7317,9.4161,45.1754,0.0605,-0.16,0.3311,201.2188
19:25:09:787,-0.9458,2.8466,9.7534,45.5572,-0.0299,-0.2071,0.4197,201.2188
19:25:09:809,-0.1819,2.9925,10.4192,45.9362,-0.1075,-0.3048,0.4838,201.3438
19:25:09:828,0.2946,3.1364,10.7925,46.1019,-0.1552,-0.3476,0.4759,201.3438
19:25:09:848,0.644,3.1819,10.6561,46.4255,-0.2169,-0.3537,0.4276,200.9062
19:25:09:869,1.561,2.7652,10.7303,46.7366,-0.3854,-0.4667,0.3561,200.9062
19:25:09:888,2.4706,1.8266,11.511,46.7776,-0.6438,-0.7239,0.2089,200.3438
19:25:09:910,2.7676,0.7181,13.4907,46.9666,-0.8179,-1.1386,0.0214,200.2969
19:25:09:927,1.9825,0.5291,15.7101,47.3948,-0.7239,-1.4667,-0.0928,199.9688
19:25:09:954,1.8793,-0.0215,15.7795,47.6865,-0.3683,-1.2174,-0.0189,199.9688
19:25:09:969,2.138,-0.4286,14.3264,47.7326,0.0275,-0.5131,0.1552,199.9062
19:25:09:989,2.3414,-0.0215,12.1765,48.2113,0.3415,0.3225,0.3244,199.9062
19:25:10:008,2.9303,0.8931,10.3256,48.5208,0.5815,0.846,0.4245,199.6719
19:25:10:030,3.1172,2.2935,7.0651,48.8607,0.6799,0.5968,0.1075,199.6562
19:25:10:053,2.4682,2.1739,7.1656,49.2002,0.4594,0.2089,-0.1869,199.1094
19:25:10:069,1.6017,1.8075,7.1632,49.3847,0.306,0.0861,-0.4129,199.0625
19:25:10:087,0.8139,1.6998,6.8303,49.5707,0.2511,0.102,-0.5052,198.2344
19:25:10:108,0.486,2.0375,6.6389,49.9625,0.2211,0.0922,-0.4795,198.1562
19:25:10:128,0.4047,2.5738,6.6269,50.417,0.1863,0.0757,-0.4215,197.3438
19:25:10:151,0.5267,3.0739,6.7298,50.6173,0.1448,0.0538,-0.3751,197.2656
19:25:10:169,0.7445,3.4307,6.9117,50.7511,0.1173,-0.0312,-0.369,196.8281
19:25:10:188,0.7971,3.5839,7.3164,50.9527,0.0916,-0.1527,-0.4099,196.7969
19:25:10:208,0.766,3.5192,7.879,51.2232,0.0611,-0.2486,-0.4453,197.1875
19:25:10:227,0.7373,3.4451,8.4727,51.5321,0.0354,-0.303,-0.4398,197.3438
19:25:10:251,0.8548,3.4044,9.1023,51.7639,0.0434,-0.3775,-0.3995,197.3438
19:25:10:268,0.8907,3.4666,9.6649,51.7981,0.0635,-0.3952,-0.3573,196.3438
19:25:10:289,0.699,3.6775,10.5221,51.7831,0.0464,-0.3018,-0.3213,196.3438
19:25:10:310,0.2728,3.8856,11.0871,52.1912,0.0379,-0.0647,-0.2657,195.625
19:25:10:328,0.012,3.9861,10.7447,52.5257,0.0654,0.2773,-0.193,195.625
19:25:10:348,-0.0742,3.8785,10.3905,52.6907,0.0171,0.5223,-0.1362,196.2344
19:25:10:369,-0.0144,3.8833,10.7423,53.0218,-0.1527,0.5925,-0.0983,196.2344
19:25:10:389,-0.1819,3.6488,11.3695,53.3371,-0.3952,0.642,-0.1222,197.2812
19:25:10:408,-0.917,3.026,12.253,53.7049,-0.631,0.7202,-0.1649,197.2812
19:25:10:428,-2.2337,2.5905,13.0525,54.1266,-0.722,0.8485,-0.1197,198.1562
19:25:10:447,-3.2871,2.2074,12.8444,54.449,-0.5779,1.0183,0.0586,198.1562
19:25:10:469,-3.5862,1.7764,11.2379,54.5748,-0.2999,1.0745,0.35,198.9688
19:25:10:541,-2.8202,1.774,9.938,55.0375,-0.0672,0.7752,0.6768,199.0625
19:25:10:541,-1.9271,1.9606,10.4695,55.3634,0.1778,0.0794,0.857,200.0312
19:25:10:542,-1.3095,2.2241,10.8188,55.6952,0.8918,-0.507,0.7611,200.1406
19:25:10:554,-0.8955,2.1691,6.8231,55.7782,0.9028,-0.46,0.6078,201.0312
19:25:10:569,-0.7134,1.8888,6.7561,56.0224,0.4923,-0.6389,0.463,201.125
19:25:10:588,-0.2369,1.5897,8.7171,56.3702,-0.0373,-0.7947,0.3439,201.7812
19:25:10:608,-0.0383,1.3119,10.8165,56.7751,-0.3176,-0.8051,0.2566,201.8438
19:25:10:627,0.0598,1.0989,11.8986,57.2655,-0.1857,-0.755,0.2303,202.0469
19:25:10:647,0.1244,1.1085,11.1924,57.3134,0.2535,-0.5797,0.2828,202.0625
19:25:10:670,0.4717,1.5467,9.0832,57.6098,0.7025,-0.1833,0.4025,202.0469
19:25:10:688,0.6392,2.1978,6.1481,57.5935,0.8924,0.1881,0.4899,202.0469
19:25:10:709,0.821,3.2225,5.4586,57.9689,0.6774,0.0684,0.5223,202
19:25:10:728,1.5108,3.9215,6.9858,58.207,0.3372,-0.2401,0.482,201.1406
19:25:10:753,1.8099,4.0436,8.1927,58.2743,0.1753,-0.3176,0.3323,201.1406
19:25:10:769,1.3358,4.2688,8.7625,58.2903,0.1784,-0.2651,0.1454,199.3281
19:25:10:788,0.8955,4.41,8.1568,58.1921,0.2639,-0.1258,0.0238,199.3281
19:25:10:808,0.8764,4.4554,6.9165,58.4755,0.2743,-0.0116,-0.0269,197.8281
19:25:10:827,0.9817,4.3071,6.8686,58.7772,0.1203,-0.0977,-0.1002,197.8281
19:25:10:848,0.7732,4.0388,8.0201,59.0672,-0.0928,-0.2285,-0.193,196.9531
19:25:10:869,0.4765,3.8641,9.6362,59.2212,-0.226,-0.2853,-0.2498,196.9531
19:25:10:888,0.3353,3.4786,10.6896,59.4938,-0.2395,-0.146,-0.2504,196.9375
19:25:10:909,0.2632,3.0787,10.6825,59.6144,-0.2193,0.2065,-0.1949,196.5938
19:25:10:927,0.4382,2.825,10.4839,59.8103,-0.2486,0.5198,-0.1081,196.2969
19:25:10:947,0.5435,2.6551,10.8523,59.9087,-0.3268,0.6084,-0.0275,196.2969
19:25:10:969,0.6631,2.7604,11.9728,60.1584,-0.3751,0.5748,0.0434,195.4375
19:25:10:989,1.3645,2.691,12.5833,60.2263,-0.317,0.6909,0.1051,195.3594
19:25:11:010,2.4897,2.1643,11.3025,60.4478,-0.2089,0.9755,0.1362,194.4062
19:25:11:028,3.1364,1.4988,9.4328,60.5517,-0.2022,1.0055,0.0684,194.3125
19:25:11:054,2.3462,1.3167,10.85,60.4963,-0.4557,0.1051,-0.1906,193.9531
19:25:11:069,2.3868,1.209,11.6545,60.4958,-0.4044,-0.1185,-0.2462,193.9219
19:25:11:088,2.2648,1.331,11.8268,60.8794,-0.2523,-0.1393,-0.3158,193.9531
19:25:11:109,2.2624,1.5706,10.9122,61.0529,-0.113,0.0635,-0.3793,193.9531
19:25:11:127,1.7668,1.7812,9.4998,61.0997,-0.1289,0.3702,-0.4783,194.3125
19:25:11:148,1.0223,1.7213,8.2693,61.0623,-0.2834,0.6389,-0.5766,194.3594
19:25:11:168,0.1101,1.6137,7.4073,61.1805,-0.4306,0.7342,-0.6286,194.9375
19:25:11:187,-0.7086,1.7213,7.3331,61.3693,-0.4783,0.5473,-0.6023,195
19:25:11:209,-0.8139,2.0303,7.7641,61.3868,-0.3854,0.2071,-0.5003,195.1562
19:25:11:227,-0.6799,2.5977,8.3842,61.5293,-0.1833,-0.0525,-0.4203,194.875
19:25:11:252,-0.4836,3.0885,8.5684,61.4537,0.047,-0.0745,-0.4325,194.875
19:25:11:269,-0.6559,3.0667,8.1975,61.3797,0.1912,0.0397,-0.5217,194.2344
19:25:11:288,-0.9577,2.8178,7.5509,61.4895,0.1936,0.1778,-0.5834,194.2344
19:25:11:309,-1.2377,2.7987,7.7115,61.3912,0.0806,0.1973,-0.5834,193.875
19:25:11:327,-1.0774,2.983,8.42,61.4621,-0.0269,0.1161,-0.5284,193.875
19:25:11:348,-0.6105,3.4666,9.3706,61.3481,-0.1008,0.0959,-0.4923,194.2656
19:25:11:369,-0.5004,3.6461,9.8085,61.561,-0.193,0.1753,-0.5363,194.2969
19:25:11:388,-0.9505,3.3829,10.3519,61.2787,-0.2877,0.1112,-0.6365,194.3125
19:25:11:409,-1.7644,2.8274,11.7718,61.1914,-0.3244,-0.1081,-0.7086,195.0625
19:25:11:428,-2.3533,1.9801,12.3344,61.2124,-0.2737,-0.1271,-0.6096,196
19:25:11:452,-2.3797,1.774,12.4828,61.076,-0.1845,-0.0904,-0.3354,196
19:25:11:469,-1.9872,2.3174,13.0167,61.1122,-0.0623,-0.2169,-0.0269,197.0469
19:25:11:489,-1.5514,2.703,13.4142,60.7938,0.1338,-0.3066,0.1851,197.0469
19:25:11:508,-1.8553,2.9088,13.3065,60.8511,0.3757,-0.1545,0.2694,197.8906
19:25:11:527,-2.7867,2.7197,11.7957,60.4728,0.6005,0.2523,0.3256,197.9844
19:25:11:548,-3.2632,2.5618,9.052,60.5486,0.7086,0.6286,0.4416,198.9531
19:25:11:570,-1.4222,1.3047,8.3339,60.3977,0.3341,-0.1796,0.5681,199.0469
19:25:11:590,-2.0853,1.0989,11.5469,60.2801,0.179,-0.8112,0.4759,200.1875
19:25:11:610,-1.8003,0.9314,12.1406,59.8846,0.3109,-0.664,0.5394,200.2969
19:25:11:627,-1.5491,0.7588,9.8399,59.6196,0.5259,-0.0293,0.609,201.2812
19:25:11:647,-1.6615,1.1468,6.9212,59.4596,0.4752,0.3518,0.6298,201.375
19:25:11:668,-1.1061,1.7309,6.8207,59.1019,0.0886,0.1075,0.6524,202.4531
19:25:11:687,-0.3329,1.8482,8.5445,59.1403,-0.2993,-0.2388,0.595,203.8594
19:25:11:709,-0.0024,1.9175,9.8351,58.9814,-0.449,-0.2737,0.4789,203.8594
19:25:11:727,-0.1555,1.8266,9.7223,58.9081,-0.3952,-0.0305,0.3671,204.4062
19:25:11:751,-0.6296,1.5658,8.5516,58.7005,-0.2963,0.2804,0.292,204.4062
19:25:11:769,-0.9673,1.4988,7.3762,58.9452,-0.2853,0.4245,0.3048,204.0469
19:25:11:788,-0.6081,1.7716,7.2637,59.0516,-0.3616,0.3164,0.3928,204.0469
19:25:11:808,0.122,2.3198,7.9699,58.9951,-0.4258,0.1454,0.4575,203.2188
19:25:11:827,0.3903,2.9183,8.7123,58.8701,-0.4148,0.0519,0.4172,203.2188
19:25:11:848,0.2728,3.1053,9.1932,58.5634,-0.3195,0.0012,0.2975,203.2031
19:25:11:869,-0.1388,2.8346,9.2988,58.5475,-0.1845,0.014,0.1771,202.0156
19:25:11:887,-0.5076,2.636,9.1095,58.4492,-0.0513,0.0727,0.1387,202
19:25:11:910,-0.6176,2.7173,8.9898,58.4048,0.0538,0.0837,0.1643,201.2188
19:25:11:928,-0.4717,2.9016,9.1741,58.2318,0.1319,0.0623,0.2028,199.8906
19:25:11:947,-0.28,3.2752,9.3491,58.0704,0.1936,0.0593,0.2205,199.8906
19:25:11:968,-0.0622,3.5432,9.2845,57.7915,0.248,0.0452,0.1845,198.5312
19:25:11:988,0.067,3.3087,8.8774,57.8263,0.2657,0.0226,0.0922,198.5312
19:25:12:010,0.2249,3.0643,9.0066,57.741,0.1594,-0.0928,0.0134,197.6719
19:25:12:028,0.2874,2.8729,10.3161,57.6053,-0.0293,-0.306,-0.0556,197.5781
19:25:12:048,-0.0144,2.5499,11.4245,57.5459,-0.1466,-0.3506,-0.1197,196.8125
19:25:12:073,-0.6009,1.9729,11.5517,57.4144,-0.1319,-0.1637,-0.0214,196.7344
19:25:12:090,0.1699,2.4251,11.7933,57.1793,-0.0623,-0.1509,0.1399,195.7344
19:25:12:108,1.4605,2.7197,11.6761,57.0753,-0.0061,-0.1063,0.2052,195.6406
19:25:12:127,2.1787,2.2528,11.6163,57.3017,0.0159,-0.0867,0.0806,194.8594
19:25:12:152,1.64,1.6304,12.0374,56.9246,0.011,-0.1118,-0.1155,194.7656
19:25:12:170,1.4653,1.3478,11.3025,57.1166,0.0428,0.077,-0.1851,194.4219
19:25:12:187,1.6113,1.4797,10.0911,57.1548,0.0562,0.2205,-0.2065,194
19:25:12:208,2.1835,1.6974,9.2677,56.9981,-0.0336,0.157,-0.2517,194
19:25:12:228,2.2792,1.9415,9.4926,57.0749,-0.2486,-0.0043,-0.3891,193.5781
19:25:12:248,1.6328,1.6424,10.3591,57.0204,-0.4893,-0.0947,-0.5748,193.5781
19:25:12:268,0.7851,1.1755,10.7016,56.8603,-0.5821,-0.0073,-0.6683,193.4844
19:25:12:287,-0.1699,1.0415,10.2491,56.6034,-0.4813,0.171,-0.631,193.4844
19:25:12:308,-0.7899,1.3549,9.3849,56.8376,-0.2541,0.3299,-0.4807,193.7812
19:25:12:327,-0.8501,1.8936,8.3483,56.6563,-0.0018,0.4398,-0.2969,193.7812
19:25:12:348,-0.7373,2.4084,7.3618,56.4675,0.1833,0.4679,-0.1533,193.7812
19:25:12:368,-0.419,3.0356,6.9858,56.4499,0.2523,0.3091,-0.0434,193.9844
19:25:12:388,0.1651,3.4834,7.4862,56.3544,0.2517,0.0214,-0.0024,193.9844
19:25:12:408,0.4693,3.5169,8.2262,56.4529,0.2657,-0.1759,-0.0654,193.6406
19:25:12:428,0.5267,3.3972,8.6976,56.5356,0.2993,-0.2156,-0.157,193.7188
19:25:12:447,0.4406,3.2225,9.1167,56.6964,0.3079,-0.1881,-0.2303,193.7188
19:25:12:468,0.364,2.904,9.6147,56.6042,0.2785,-0.1399,-0.2657,194.1094
19:25:12:489,0.1771,2.8083,10.4121,56.5723,0.2828,-0.0635,-0.2596,194.1094
19:25:12:509,-0.3808,3.0619,10.5078,56.5698,0.3201,0.2077,-0.2376,194.7031
19:25:12:527,-0.8378,3.2369,9.5524,56.5814,0.2407,0.5773,-0.1924,194.75
19:25:12:548,-0.766,3.3541,9.8973,56.6855,-0.0061,0.6304,-0.1319,195.9375
19:25:12:616,-0.644,3.4259,11.7957,56.5997,-0.171,0.4142,-0.1271,196.0469
19:25:12:617,-1.774,2.849,12.3942,56.6288,0.0953,0.496,-0.2504,197.0312
19:25:12:617,-2.0782,2.7652,10.4982,56.5612,0.1668,0.6542,-0.2236,197.125
19:25:12:628,-1.9056,2.339,9.0449,56.585,0.0379,0.4777,-0.223,197.4688
19:25:12:647,-1.9175,0.9984,9.9763,56.7359,-0.2175,-0.1289,-0.3121,197.5156
19:25:12:671,-3.5527,0.122,13.086,56.9246,-0.3671,-0.7654,-0.3714,197.5625
19:25:12:687,-4.5918,-0.28,14.0103,57.175,-0.1381,-0.7819,-0.1301,197.5625
19:25:12:708,-3.4331,-0.0455,11.8938,57.2552,0.3262,-0.1454,0.3409,197.8906
19:25:12:727,-2.6551,0.8883,8.135,57.7169,0.6872,0.6011,0.6206,198.5312
19:25:12:749,-2.2146,2.2648,4.8793,57.8831,0.7104,0.6017,0.7184,198.5312
19:25:12:769,-0.9123,3.1101,5.9734,58.1107,0.3097,-0.1472,0.6658,199.1719
19:25:12:788,-0.1986,2.7221,8.0704,58.3646,-0.1814,-0.4227,0.4001,199.1719
19:25:12:809,-1.0056,2.0327,9.1597,58.4973,-0.5266,-0.1173,0.0825,199.1875
19:25:12:828,-2.0327,1.3214,9.3347,58.4522,-0.6933,0.2749,-0.0709,199.3438
19:25:12:848,-2.6121,0.8931,9.0784,58.5376,-0.6866,0.5088,-0.0275,199.3594
19:25:12:870,-2.3988,1.1827,8.5732,58.6284,-0.5266,0.5412,0.1515,199.5312
19:25:12:889,-1.64,1.8745,7.9986,58.5341,-0.2999,0.4685,0.3256,199.5312
19:25:12:909,-0.9601,2.5929,7.7354,58.6861,-0.1075,0.3409,0.3818,199.8906
19:25:12:928,-0.6129,3.1747,7.8359,58.8586,0.0018,0.2071,0.3299,200.3906
19:25:12:948,-0.6799,3.3206,7.8263,58.9319,0.0348,0.1686,0.2205,200.3906
19:25:12:969,-1.0726,3.0595,7.8622,59.016,0.0293,0.1417,0.1246,201.125
19:25:12:990,-1.2401,2.837,8.2286,59.2265,0.011,0.0745,0.1124,201.125
19:25:13:010,-1.0295,2.9399,9.1717,59.352,-0.0018,0.0409,0.1509,200.2344
19:25:13:027,-1.1252,3.0667,9.7774,59.4387,0.0849,0.19,0.1423,200.1406
19:25:13:050,-1.6208,3.2321,9.1143,59.6183,0.2327,0.3054,0.1057,198.8125
19:25:13:068,-1.197,3.0715,8.4129,59.5487,0.2285,0.1582,0.1106,198.6875
19:25:13:089,-0.7253,2.1811,9.6027,59.7553,-0.3427,-0.0635,-0.0159,198.1875
19:25:13:109,-1.319,1.8003,10.9843,59.9256,-0.5931,-0.1888,-0.1136,198.1406
19:25:13:127,-1.6328,1.5419,13.596,59.9831,-0.6304,-0.5797,-0.1564,197.9531
19:25:13:155,-1.051,1.6424,14.4628,60.1426,-0.4215,-0.4893,-0.0415,197.9219
19:25:13:170,0.4884,1.9558,12.9473,60.1816,-0.099,0.0727,0.0623,197.1875
19:25:13:187,0.8043,1.7501,11.1398,60.4059,0.1222,0.2205,-0.1045,197.1094
19:25:13:207,0.6583,0.984,10.7016,60.4288,0.0916,-0.2114,-0.314,196.3125
19:25:13:227,0.687,0.5315,12.2913,60.8167,-0.1112,-0.7068,-0.4074,195.8438
19:25:13:248,1.1109,0.285,13.043,61.1969,-0.1888,-0.6469,-0.4062,195.8438
19:25:13:271,1.3956,0.5506,12.4875,61.3177,-0.1155,-0.2969,-0.3793,195.5
19:25:13:288,1.9223,1.063,11.0584,61.5783,-0.0086,-0.0104,-0.3867,195.5
19:25:13:307,2.0949,1.3334,9.9476,61.7652,0.036,0.0751,-0.5223,195.4844
19:25:13:327,1.7285,1.209,9.1502,62.0177,-0.0104,0.0971,-0.733,195.1875
19:25:13:347,0.9697,0.8596,8.6641,62.2814,-0.0733,0.1075,-0.9144,195.1719
19:25:13:371,0.0526,0.6894,8.1879,62.5295,-0.0702,0.1063,-1.0036,195
19:25:13:388,-0.486,0.8812,7.7737,62.5405,0.0287,0.069,-0.9786,195.0469
19:25:13:408,-0.4382,1.4533,7.5556,62.5128,0.1839,0.0324,-0.9022,195.0469
19:25:13:428,-0.4358,2.0662,6.9547,62.7133,0.328,0.1594,-0.8784,195.2656
19:25:13:447,-0.7804,2.4897,5.7386,62.6699,0.3781,0.3445,-0.9163,195.2656
19:25:13:472,-1.3119,2.8298,5.2549,62.8087,0.2614,0.2553,-0.9633,195.2812
19:25:13:489,-1.4509,2.8561,6.0954,62.777,0.0281,-0.0086,-0.9853,195.2812
19:25:13:509,-1.6735,2.5161,7.4192,62.6616,-0.1753,-0.1558,-0.9914,196.2031
19:25:13:527,-2.0064,2.2911,8.5158,62.5527,-0.2767,-0.1845,-0.9401,196.2031
19:25:13:547,-2.0327,2.1308,9.4807,62.5062,-0.2859,-0.2187,-0.8179,197.0781
19:25:13:574,-1.8721,1.9199,10.6346,62.5883,-0.2376,-0.284,-0.6683,197.1719
19:25:13:589,-1.7166,1.7477,11.4006,62.4498,-0.1185,-0.2645,-0.5015,198.0781
19:25:13:609,-1.6113,1.7381,11.4197,62.5629,0.0464,-0.1356,-0.3189,198.1719
19:25:13:630,-1.3095,2.0279,11.2905,62.5411,0.168,-0.0605,-0.1301,199.7812
19:25:13:652,0.0191,3.2345,12.3655,62.3781,0.1924,-0.0751,0.0672,199.9375
19:25:13:671,0.1795,3.548,12.7582,62.4708,0.2175,0.0593,-0.011,201.8906
19:25:13:688,-0.3257,3.3948,11.7694,62.6442,0.2706,0.3183,-0.157,202.0781
19:25:13:707,-1.1468,3.1795,9.8638,62.6911,0.2022,0.5235,-0.3103,203.9219
19:25:13:727,-1.2664,2.6312,8.9204,62.4863,-0.1081,0.4545,-0.427,206
19:25:13:747,-0.431,1.427,10.0146,62.5763,-0.5113,0.0409,-0.5375,206
19:25:13:771,-0.8955,0.2345,13.031,62.6413,-0.6921,-0.5803,-0.6933,206.1875
19:25:13:788,-2.5714,-0.3784,14.8313,62.836,-0.4355,-0.7862,-0.7251,208.1719
19:25:13:808,-3.0715,-0.644,13.3807,63.0356,0.1356,-0.2987,-0.4704,208.3594
19:25:13:827,-2.636,-0.2465,9.7319,62.8139,0.6725,0.3439,-0.1735,210.2656
19:25:13:848,-2.4347,0.7397,6.804,62.5154,0.8283,0.3659,-0.0476,210.2812
19:25:13:870,-1.9582,1.2257,7.5006,62.6168,0.5357,-0.1344,-0.0287,211.5469
19:25:13:888,-0.8788,1.4844,8.8319,62.6698,0.2602,-0.394,-0.033,211.5625
19:25:13:909,-0.8835,1.4127,9.0568,62.8362,0.1423,-0.2938,-0.1918,212.125
19:25:13:927,-1.0415,0.9529,8.578,62.7185,0.0843,-0.1374,-0.3543,212.0938
19:25:13:948,-0.917,0.7469,8.4703,62.5189,0.0391,-0.1185,-0.408,212.0938
19:25:13:969,-1.0439,0.9817,8.6282,62.561,0.0104,-0.1997,-0.3457,212.3125
19:25:13:988,-1.343,1.5132,9.0018,62.6489,0.033,-0.3268,-0.204,212.3125
19:25:14:010,-1.4079,1.9657,9.3562,62.9137,0.1332,-0.3268,-0.0861,213.0312
19:25:14:027,-1.5156,2.0064,8.9635,62.7345,0.2559,-0.0476,-0.055,213.0312
19:25:14:048,-1.6352,2.0183,7.9005,62.6661,0.3103,0.3787,-0.0348,214.1094
19:25:14:070,-1.8553,2.2409,6.9332,62.532,0.2627,0.6341,0.0586,214.2188
19:25:14:089,-1.6854,2.6599,6.6939,62.5336,0.1472,0.5766,0.2077,215.4688
19:25:14:111,-0.6176,3.3111,8.3961,62.7187,-0.0825,-0.0586,0.2266,215.5938
19:25:14:129,-0.3473,3.2943,9.6099,62.4773,-0.1014,-0.3237,0.0159,215.9844
19:25:14:147,-0.1603,2.7556,10.2562,62.4285,-0.077,-0.449,-0.2535,216.0312
19:25:14:170,-0.0072,1.8123,10.5724,62.2614,-0.0922,-0.5705,-0.5003,216.2812
19:25:14:189,0.2249,1.1204,11.348,62.2309,-0.2004,-0.7055,-0.6273,216.2969
19:25:14:208,0.3544,0.8524,12.3631,62.1539,-0.361,-0.733,-0.6102,216.9219
19:25:14:228,0.3903,1.0319,13.11,61.8331,-0.4508,-0.5876,-0.4966,216.9844
19:25:14:247,0.5578,1.2209,13.1794,61.4166,-0.3995,-0.3305,-0.3531,217.7812
19:25:14:270,0.8596,1.2209,12.5713,61.0406,-0.2431,-0.0654,-0.2511,217.8594
19:25:14:288,1.2066,1.2162,11.6713,60.958,-0.0684,0.1155,-0.2578,218.25
19:25:14:309,1.075,0.9027,10.8332,60.887,0.0183,0.0727,-0.4691,218.2812
19:25:14:327,0.2536,0.1101,10.637,60.6392,-0.0379,-0.2266,-0.8381,218.4375
19:25:14:347,-0.6272,-0.874,11.1709,60.4033,-0.2046,-0.4832,-1.094,218.4375
19:25:14:369,-0.9864,-1.3908,11.6833,60.1325,-0.3714,-0.3989,-1.0103,218.0625
19:25:14:388,-0.6129,-1.0487,11.5588,59.9832,-0.4465,-0.066,-0.689,218.0625
19:25:14:409,0.1388,-0.1172,11.1015,59.8612,-0.4245,0.2596,-0.4001,217.4531
19:25:14:429,0.7732,0.5483,10.2419,59.6975,-0.3305,0.4844,-0.3268,217.7656
19:25:14:453,0.8764,0.7756,9.21,59.6266,-0.2052,0.5986,-0.4478,217.7656
19:25:14:470,0.3855,0.8378,8.3291,59.1424,-0.1045,0.6328,-0.6353,219.1094
19:25:14:489,-0.5291,0.941,7.8838,59.0878,-0.0672,0.5797,-0.7874,219.1094
19:25:14:510,-1.1444,1.1157,7.8287,58.7688,-0.066,0.4532,-0.835,220.3594
19:25:14:527,-1.2568,1.118,7.8048,58.5932,-0.0483,0.35,-0.8014,220.3594
19:25:14:548,-1.1396,1.264,7.9412,58.1651,0.0018,0.3042,-0.7379,220.9219
19:25:14:570,-1.0893,1.5012,7.8072,57.9344,0.0733,0.369,-0.6756,220.9688
19:25:14:589,-1.1468,1.7261,7.5485,57.6397,0.1576,0.3983,-0.6182,221.6875
19:25:14:609,-1.0367,1.9056,7.7833,57.1938,0.2669,0.2602,-0.5718,221.75
19:25:14:683,-0.8931,2.0112,8.3028,57.025,0.3903,0.047,-0.5785,223.7031
19:25:14:684,-1.075,2.0351,9.6912,56.5798,0.4881,-0.306,-0.7104,223.8906
19:25:14:684,-1.3023,1.9872,10.3881,56.3181,0.4453,-0.4025,-0.7251,225.5312
19:25:14:687,-1.6232,2.0064,11.3767,55.8557,0.4032,-0.4728,-0.7116,225.6875
19:25:14:707,-1.7907,1.8314,12.198,55.6787,0.4197,-0.4392,-0.664,226.2969
19:25:14:727,-1.8984,1.6448,12.3966,55.3351,0.4551,-0.2413,-0.5589,226.3438
19:25:14:748,-2.1069,1.6974,11.9943,54.8863,0.4197,0.0171,-0.3653,227.3125
19:25:14:772,-2.059,2.0782,11.8149,54.607,0.3616,0.1753,-0.1069,227.4062
19:25:14:788,-2.1332,2.5786,11.4054,54.1796,0.3317,0.3421,0.0867,228.9531
19:25:14:807,-2.557,2.8083,10.3113,53.6997,0.3097,0.5015,0.1124,229.1094
19:25:14:827,-3.1962,2.7891,9.253,53.2747,0.2407,0.4978,0.0189,230.7656
19:25:14:847,-3.5599,2.4084,9.1095,53.1611,0.0904,0.2553,-0.055,230.7812
19:25:14:869,-2.9279,1.6232,10.2084,52.8494,-0.1637,-0.058,-0.0586,232.2031
19:25:14:889,-3.0212,0.8859,12.4397,52.6254,-0.3873,-0.3152,-0.0806,232.2188
19:25:14:910,-3.2512,0.2512,13.261,52.4673,-0.1539,-0.4032,0.0214,233.5938
19:25:14:928,-3.2584,0.1651,11.7694,52.166,0.2187,-0.0086,0.2407,235.2969
19:25:14:948,-2.9303,0.7134,9.1023,51.9832,0.5076,0.3903,0.4575,235.2969
19:25:14:970,-2.26,1.4988,7.4456,51.9082,0.5082,0.419,0.5504,237.0781
19:25:14:988,-1.506,2.0782,7.4982,51.9324,0.2449,0.2437,0.4936,237.0781
19:25:15:009,-0.9864,2.2863,8.3172,51.5589,-0.0586,0.1344,0.2987,238.625
19:25:15:027,-0.9601,1.884,8.8032,51.5117,-0.2156,0.1588,0.0153,238.625
19:25:15:048,-1.6352,1.051,8.4655,51.4161,-0.2254,0.2602,-0.2437,239.2812
19:25:15:069,-2.4682,0.3927,7.9675,51.16,-0.182,0.3005,-0.3329,239.2812
19:25:15:089,-2.9207,0.1172,7.9843,50.8748,-0.1417,0.2114,-0.223,239.1562
19:25:15:110,-2.5427,0.3664,8.0417,50.4622,-0.0806,0.1307,0.0195,239.1406
19:25:15:127,-1.9705,1.0104,8.0441,50.2649,-0.0122,0.1515,0.2358,239.1719
19:25:15:150,-1.4773,2.1404,6.8997,50.0197,0.1136,0.3085,0.3543,239.1875
19:25:15:172,-1.5778,2.4371,6.5504,49.9249,0.0996,0.2016,0.2804,239.25
19:25:15:192,-1.6998,2.5283,6.6891,49.5523,0.0159,-0.0134,0.1607,239.25
19:25:15:209,-2.0231,2.3701,7.2876,49.2508,-0.1118,-0.2199,0.0305,239.0312
19:25:15:227,-2.2337,2.3677,8.5493,48.995,-0.2621,-0.3402,-0.0421,239.0156
19:25:15:247,-2.0136,2.3007,9.9332,48.7089,-0.3323,-0.3555,-0.058,238.125
19:25:15:270,-1.5921,2.1428,10.6753,48.5365,-0.2498,-0.3537,-0.0849,238.0469
19:25:15:287,-1.0917,1.8984,10.9938,48.2156,-0.1032,-0.4178,-0.1442,237.25
19:25:15:308,-0.5387,1.6304,11.3982,47.8376,-0.0092,-0.5345,-0.2395,237.1719
19:25:15:327,-0.3042,1.3741,11.7981,47.4497,-0.0122,-0.5559,-0.3738,237.2812
19:25:15:347,-0.5483,1.0104,11.8771,47.2987,-0.0898,-0.4209,-0.496,237.2812
19:25:15:368,-0.4789,0.7636,11.6689,46.8203,-0.1961,-0.1924,-0.5308,237.7812
19:25:15:388,-0.1005,0.7397,10.9409,46.2567,-0.3085,-0.0031,-0.5229,237.7969
19:25:15:408,0.1795,0.5746,10.3567,45.8826,-0.4612,-0.0226,-0.6011,237.4688
19:25:15:427,0.2034,0.0646,10.8045,45.6557,-0.6738,-0.2859,-0.7703,236.6875
19:25:15:447,-0.0407,-0.256,12.4325,45.5838,-0.8692,-0.5626,-0.9358,236.6875
19:25:15:468,-0.4836,-0.7421,13.7252,45.2064,-0.8827,-0.5754,-1.0055,236.2188
19:25:15:488,-0.8429,-1.3167,13.5482,44.9651,-0.6341,-0.3555,-0.9395,236.2188
19:25:15:512,-0.8067,-1.5179,11.7383,44.5576,-0.2902,-0.0299,-0.7544,236.1875
19:25:15:527,-0.7158,-1.0893,9.8447,44.4678,-0.1032,0.1784,-0.5406,236.1875
19:25:15:548,-0.3927,-0.3425,9.2004,44.6767,-0.1155,0.1674,-0.3879,236.2812
19:25:15:569,-0.0335,0.2154,9.4615,44.6935,-0.1814,0.0861,-0.3525,236.2812
19:25:15:589,-0.0694,0.4167,9.5213,44.6929,-0.1784,0.1124,-0.4282,236.7031
19:25:15:608,-0.3185,0.4789,9.2195,44.4085,-0.1026,0.2193,-0.5076,236.75
19:25:15:627,-0.4765,0.6464,8.5588,44.3042,0.0208,0.3152,-0.5382,237.6562
19:25:15:647,-0.6775,0.874,7.7354,44.1978,0.1381,0.328,-0.5693,237.75
19:25:15:670,-0.8596,1.398,7.381,44.2893,0.1344,0.0782,-0.6603,238.7344
19:25:15:689,-0.821,1.5179,8.2262,44.3055,0.0415,-0.0525,-0.7177,238.8281
19:25:15:708,-1.1133,1.319,8.9133,44.2377,-0.0165,-0.0751,-0.7843,240.0312
19:25:15:728,-1.8601,1.2185,9.2773,43.9866,-0.0275,-0.0299,-0.7898,240.1406
19:25:15:746,-2.406,1.13,9.6888,43.831,-0.0018,-0.0434,-0.6756,241.8281
19:25:15:769,-2.5355,1.1085,10.1318,43.7814,0.0397,-0.0953,-0.4545,242
19:25:15:788,-2.1021,1.4246,10.8858,43.7215,0.0586,-0.1301,-0.1753,243.5469
19:25:15:809,-1.3286,2.0016,11.8579,43.6086,0.0733,-0.1069,0.0507,243.7031
19:25:15:827,-0.8043,2.473,12.8874,43.1496,0.1258,-0.011,0.1313,244.6094
19:25:15:847,-0.6344,2.4227,13.1076,42.9763,0.2584,0.1252,0.0953,244.7031
19:25:15:870,-0.7421,2.1523,12.9832,43.0042,0.4734,0.1222,0.0269,245.5
19:25:15:888,-1.0056,1.9247,12.8228,43.1666,0.7092,-0.0128,-0.0385,245.5156
19:25:15:909,-1.2975,1.6974,12.0063,43.0555,0.8839,-0.0696,-0.0892,246.6406
19:25:15:928,-1.4821,1.6639,11.3432,42.951,0.8973,-0.0434,-0.1289,248
19:25:15:947,-1.7668,1.8482,10.8236,43.0687,0.7617,0.0721,-0.1784,248
19:25:15:970,-2.0925,1.8242,10.1629,43.0861,0.5479,0.2364,-0.2596,249.5469
19:25:15:988,-2.2983,1.3908,9.9882,43.53,0.3073,0.2682,-0.3537,249.5469
19:25:16:008,-2.3653,0.5076,10.8308,43.6255,0.1411,0.091,-0.4337,251.2812
19:25:16:028,-2.9279,-0.3305,11.8795,43.5494,0.1753,-0.1002,-0.4685,251.2812
19:25:16:048,-3.699,-0.9051,11.47,43.9196,0.4233,-0.0269,-0.369,252.5312
19:25:16:070,-3.8809,-0.833,9.3562,44.3276,0.7245,0.2211,-0.1124,252.5312
19:25:16:088,-3.5456,-0.3018,7.0771,44.5136,0.8534,0.3317,0.1472,252.6875
19:25:16:109,-2.6862,0.2345,6.0045,44.5042,0.7,0.2327,0.3109,252.7031
19:25:16:127,-1.6041,0.8234,6.2988,44.857,0.3598,0.0727,0.3842,252.5312
19:25:16:147,-0.6153,1.4797,7.7545,44.8381,0.0159,-0.0751,0.3732,252.5312
19:25:16:170,-0.2058,2.2146,9.2124,45.074,-0.0617,-0.0055,0.0788,252.7344
19:25:16:190,-0.8234,1.8075,7.5966,45.3239,0.1277,0.0788,-0.1038,252.75
19:25:16:210,-1.1635,1.5323,7.0651,45.2827,0.1539,-0.0654,-0.1826,253.2656
19:25:16:228,-1.3214,1.5897,7.8191,45.1066,-0.0165,-0.223,-0.1759,253.3125
19:25:16:252,-1.5682,1.6472,9.0281,45.3164,-0.1863,-0.2688,-0.1515,253.9688
19:25:16:270,-1.8386,1.5993,9.9284,45.6542,-0.1747,-0.2401,-0.1307,254.0312
19:25:16:287,-1.9439,1.5156,9.8207,45.5621,0.022,-0.1271,-0.0898,254.8906
19:25:16:308,-2.1858,1.5945,8.7194,45.6884,0.2504,0.0299,-0.0312,254.9688
19:25:16:328,-2.3725,1.8553,7.4839,45.6615,0.3702,0.1008,0.0385,255.9062
19:25:16:348,-2.4108,2.1212,7.0196,45.5634,0.3451,-0.0018,0.0959,256.0156
19:25:16:371,-2.2361,2.3581,7.4575,45.6194,0.2407,-0.2181,0.1295,256.2656
19:25:16:389,-1.8194,2.5017,8.4129,45.7663,0.1252,-0.4319,0.1112,256.2656
19:25:16:410,-1.4103,2.4395,9.5596,45.4903,0.0098,-0.5681,0.0305,255.7031
19:25:16:428,-1.0654,2.2816,10.8547,45.282,-0.0874,-0.6084,-0.0751,254.9688
19:25:16:447,-0.9625,2.0949,11.645,45.2837,-0.1307,-0.5375,-0.1881,254.9688
19:25:16:470,-1.4988,1.7812,11.403,45.2256,-0.0977,-0.43,-0.2981,255
19:25:16:488,-1.9319,1.5802,10.4145,45.2952,-0.0916,-0.3366,-0.3109,255
19:25:16:509,-1.6663,1.5347,9.6171,45.35,-0.2046,-0.3702,-0.2309,255.4375
19:25:16:528,-0.9003,1.3669,9.7678,45.2444,-0.4306,-0.5724,-0.1942,255.4375
19:25:16:547,-0.3018,0.8378,11.5301,45.431,-0.7251,-0.8876,-0.2352,255.7031
19:25:16:570,0.2922,0.5459,14.3647,45.5641,-0.912,-1.0983,-0.2443,255.7031
19:25:16:589,1.1157,0.4334,16.3708,45.6425,-0.7727,-1.0012,-0.19,255.8906
19:25:16:609,1.4533,0.3832,15.9039,45.7452,-0.3586,-0.4954,-0.1374,255.8906
19:25:16:627,1.3143,0.5602,13.1964,45.8718,0.0666,0.171,-0.0739,255.875
19:25:16:649,2.1404,0.577,10.4958,45.8836,0.2944,0.5546,-0.0165,255.875
19:25:16:670,2.3892,1.0702,7.9699,46.0055,0.1918,0.4697,-0.2724,255.75
19:25:16:747,1.7907,1.2975,8.0489,46.1122,0.0715,0.2755,-0.4594,255.7344
19:25:16:747,1.0678,1.2185,8.3291,45.842,0.0428,0.1362,-0.5992,255.8281
19:25:16:748,0.766,1.1874,8.243,45.8105,0.1148,0.1032,-0.6365,255.8438
19:25:16:748,0.5841,1.4151,7.7258,45.7223,0.193,0.1588,-0.6108,256.3438
19:25:16:775,0.4095,1.7907,7.1967,45.5372,0.2144,0.1973,-0.5864,256.3906
19:25:16:787,0.189,2.1093,7.2015,45.3352,0.1857,0.1454,-0.5925,256.9375
19:25:16:807,0.0526,2.2935,7.6086,45.2084,0.1723,0.0104,-0.6206,256.9844
19:25:16:827,-0.2273,2.4036,8.1326,44.778,0.204,-0.1381,-0.6499,257.3438
19:25:16:848,-0.3497,2.5232,8.5301,44.5836,0.2285,-0.2132,-0.656,257.375
19:25:16:869,-0.6679,2.6767,8.7194,44.4406,0.179,-0.1888,-0.6567,257.6875
19:25:16:888,-0.8716,2.6575,9.1908,44.3508,0.0788,-0.1723,-0.6334,257.7188
19:25:16:909,-1.2855,2.5089,10.0361,44.3252,-0.014,-0.2004,-0.565,257.9219
19:25:16:927,-1.3693,2.2744,10.7901,44.2647,-0.0831,-0.1839,-0.419,258.0781
19:25:16:947,-0.699,2.5881,12.0613,44.0441,-0.1338,-0.0727,-0.2382,258.0781
19:25:16:968,-0.9529,2.8537,11.9919,44.0261,-0.0751,0.204,-0.1674,258.8906
19:25:16:987,-0.7349,2.8609,11.7694,43.9839,0.0342,0.3024,-0.077,258.8906
19:25:17:008,-0.0048,3.0308,12.2698,43.9927,0.1429,0.2425,-0.0073,260.2656
19:25:17:027,0.0526,3.1316,12.131,43.7271,0.3073,0.2065,-0.0788,260.2656
19:25:17:048,-0.8402,2.7939,11.3934,43.6029,0.4649,0.1655,-0.2669,261.625
19:25:17:067,-2.0303,2.3342,10.7662,43.3687,0.5302,0.0733,-0.408,261.625
19:25:17:089,-2.9183,1.963,10.072,43.158,0.493,-0.0122,-0.4331,263.0156
19:25:17:108,-2.8178,1.4629,9.9476,43.2219,0.3183,-0.1448,-0.3659,263.0156
19:25:17:128,-1.884,0.5818,11.47,43.1093,0.0702,-0.3909,-0.2749,264.375
19:25:17:147,-1.9056,0.0718,13.5099,43.0891,-0.0489,-0.4172,-0.2169,264.5156
19:25:17:170,-2.8896,0.079,12.0422,42.7934,0.1075,0.0867,-0.0489,265.8594
19:25:17:190,-1.7668,1.2712,6.7801,42.8969,0.43,0.6848,0.4337,265.9844
19:25:17:209,-1.8984,1.951,5.9183,42.756,0.4227,0.2767,0.3176,266.9844
19:25:17:229,-1.5586,2.016,6.9835,42.7625,0.248,-0.2779,0.1784,267.0781
19:25:17:246,-0.9075,1.5658,8.729,42.7661,0.0024,-0.5174,0.0599,267.4531
19:25:17:269,-1.2664,1.0702,9.3754,42.714,-0.1283,-0.3592,-0.0751,267.5
19:25:17:289,-2.1236,0.7301,8.8941,42.6025,-0.0971,-0.0983,-0.1228,267.5938
19:25:17:308,-2.4586,0.6488,8.068,42.4842,0.0128,0.025,-0.0153,267.6094
19:25:17:327,-2.3031,0.8163,7.2302,42.3592,0.1155,-0.0073,0.1674,268.0312
19:25:17:347,-1.908,1.4198,7.3044,42.3575,0.1332,-0.1594,0.3311,268.0781
19:25:17:370,-1.1468,2.1523,7.8861,42.0337,0.0904,-0.2382,0.4355,269.0469
19:25:17:388,-0.4717,2.4802,8.1832,41.8239,0.0525,-0.1362,0.4465,269.1406
19:25:17:408,-0.4645,2.7102,7.9029,41.5224,0.0293,0.0495,0.3836,269.9375
19:25:17:428,-0.7181,2.9375,7.5628,41.2882,0.011,0.11,0.3207,270.25
19:25:17:448,-0.7828,2.9399,7.8335,41.0291,-0.0134,-0.0367,0.2822,270.25
19:25:17:471,-0.7564,2.8466,8.5756,40.7891,-0.0428,-0.2413,0.2572,269.5156
19:25:17:488,-0.7325,2.837,9.9715,40.6507,-0.0593,-0.3806,0.2474,269.5156
19:25:17:510,-0.3018,2.9016,10.9074,40.1862,-0.0043,-0.3696,0.2645,269.0625
19:25:17:528,0.1914,2.7461,11.0225,40.429,0.0641,-0.2908,0.2303,269.0625
19:25:17:547,0.7014,2.4012,10.6035,40.314,0.0647,-0.2584,0.1393,269.1094
19:25:17:570,0.6368,2.2122,10.6609,40.4302,-0.0996,-0.2822,0.0098,269.1094
19:25:17:589,0.2249,2.0351,11.6952,40.3581,-0.3696,-0.2877,-0.0953,269.25
19:25:17:608,-0.0072,1.8147,12.4349,40.4094,-0.5394,-0.1759,-0.0953,269.25
19:25:17:628,0.6559,1.8697,12.4517,40.5559,-0.5174,-0.0757,0.0128,268.7969
19:25:17:647,1.774,2.1308,12.0832,40.5472,-0.3836,-0.1515,0.0782,268.75
19:25:17:669,2.394,1.8601,12.1693,40.6904,-0.2798,-0.3665,-0.0446,267.9219
19:25:17:689,1.7166,1.3382,12.9568,40.48,-0.2376,-0.4911,-0.2566,267.8281
19:25:17:710,1.051,0.7947,12.545,40.233,-0.1258,-0.3457,-0.3323,267.125
19:25:17:729,1.4701,0.6679,10.8835,39.9901,0.0495,-0.2114,-0.2566,267.0469
19:25:17:747,2.0255,1.1515,9.5812,39.9683,0.3128,-0.0336,-0.0855,266.5156
19:25:17:771,2.5594,1.5514,8.4464,39.6697,0.2645,-0.0092,-0.1338,266.4688
19:25:17:788,2.1523,1.8075,8.1855,39.4069,0.0574,0.0061,-0.2957,265.9844
19:25:17:808,1.209,1.695,8.4512,39.1787,-0.1448,0.022,-0.4612,265.9375
19:25:17:828,0.4813,1.5012,8.4775,38.9681,-0.1881,0.0507,-0.5143,265.625
19:25:17:847,0.1723,1.6472,8.1473,38.9788,-0.0861,0.0977,-0.4642,265.5938
19:25:17:869,0.1029,2.1667,7.3786,39.165,0.0672,0.1533,-0.3848,265.6562
19:25:17:888,0.146,2.6216,6.4089,39.0175,0.1778,0.1289,-0.3421,265.6719
19:25:17:909,0.2584,3.0691,6.1098,39.0136,0.1643,-0.0098,-0.3512,265.6562
19:25:17:927,0.2106,3.1962,6.7346,38.9781,0.0202,-0.1716,-0.4233,265.5781
19:25:17:948,-0.0048,3.05,7.9795,38.9834,-0.1588,-0.2468,-0.5003,265.5781
19:25:17:969,-0.3042,2.8848,9.1143,39.152,-0.2682,-0.2346,-0.5296,266.2188
19:25:17:988,-0.7564,2.9375,10.1533,39.2073,-0.2443,-0.2724,-0.5003,266.2188
19:25:18:008,-0.577,2.7508,11.4963,39.2642,-0.0507,-0.4887,-0.4251,266.7031
19:25:18:030,0.4143,2.3605,12.3272,39.0064,0.3268,-0.7257,-0.3402,266.7031
19:25:18:047,0.2898,2.3844,11.5301,39.0527,0.7068,-0.6512,-0.3219,267
19:25:18:068,-0.4286,2.7843,10.4001,38.9156,0.8204,-0.3873,-0.2504,267
19:25:18:089,-0.1149,3.2943,10.2658,38.8478,0.6774,-0.1405,-0.0764,267.8281
19:25:18:109,0.7947,3.7205,10.5102,38.7991,0.496,0.1142,0.036,267.8281
19:25:18:128,1.5467,4.0436,9.7487,38.4532,0.3659,0.3928,0.0189,268.8594
19:25:18:147,1.4079,4.1273,9.1525,38.2653,0.2101,0.5266,-0.1142,268.8594
19:25:18:172,0.4262,3.7181,9.3491,38.1079,0.0702,0.4306,-0.2792,269.6094
19:25:18:188,-1.1085,3.1986,9.4854,38.0767,-0.0049,0.2773,-0.3659,269.6875
19:25:18:208,-1.7477,2.6456,9.2387,38.04,-0.1136,0.1533,-0.3103,270.4844
19:25:18:230,-0.6727,0.9912,13.4524,37.8774,-0.5925,-0.3103,-0.0965,270.5625
19:25:18:254,-0.7277,1.0774,15.3891,37.6459,-0.4985,-0.1698,0.0458,271.5781
19:25:18:273,-0.8354,0.8955,12.7822,37.5264,-0.0739,0.3653,0.1949,271.6719
19:25:18:288,-1.0654,0.8067,9.294,37.515,0.2443,0.6457,0.3176,272.5938
19:25:18:308,-0.9505,1.2425,7.8957,37.5513,0.2517,0.4404,0.4251,272.6875
19:25:18:328,-0.4908,1.7979,8.3052,37.0595,0.033,0.1686,0.4539,273.4844
19:25:18:349,-0.012,1.4725,9.5644,37.0338,-0.2608,0.1222,0.383,273.5625
19:25:18:368,0.1244,0.8091,10.1438,36.9632,-0.5076,0.4459,0.2999,274
19:25:18:388,0.3401,1.331,8.9324,37.0733,-0.7477,1.0775,0.2676,274.0469
19:25:18:409,0.0837,1.9872,7.2111,37.2514,-1.0268,1.5883,0.146,274.0156
19:25:18:427,-1.2808,2.0566,6.4041,37.1804,-1.2767,1.7013,-0.0421,274.4062
19:25:18:447,-1.7142,1.6113,7.7067,37.4575,-1.2736,1.2241,-0.1057,274.4062
19:25:18:471,-1.1444,1.7189,9.0257,37.3299,-0.868,0.5131,-0.055,275.0938
19:25:18:488,-0.9027,1.9729,8.6761,37.5511,-0.3604,0.1081,-0.0647,275.0938
19:25:18:509,-1.331,1.8458,8.3004,37.5324,-0.0788,-0.0476,-0.1484,275.375
19:25:18:528,-2.071,1.4701,8.0178,37.5752,-0,-0.0574,-0.2077,275.375
19:25:18:547,-2.2074,1.2975,8.0058,37.2353,-0.0348,-0.0263,-0.1552,275.0625
19:25:18:571,-2.1763,1.3573,7.9531,37.1599,-0.1362,0.0568,-0.0556,275.0625
19:25:18:588,-2.0806,1.2999,8.9276,37.0929,-0.2547,0.0733,0.0476,275.0469
19:25:18:609,-1.7596,1.3406,9.5501,36.8116,-0.2156,-0.0312,0.149,274.2188
19:25:18:627,-1.4581,1.5371,9.8901,36.7908,-0.0721,-0.2462,0.2059,273.2656
19:25:18:647,-1.0223,1.3573,10.3017,36.7528,0.0605,-0.5449,0.2071,273.2656
19:25:18:670,-0.5674,1.0845,11.5011,36.6697,0.102,-0.7923,0.1588,272.5
19:25:18:689,-0.3616,0.7181,12.7678,36.6167,0.0531,-0.8075,0.0831,272.4219
19:25:18:709,-0.5315,0.2752,13.0908,36.9378,-0.0116,-0.5858,0.0428,271.9531
19:25:18:727,-0.3784,0.2827,12.4971,36.8475,-0.0409,-0.3714,0.0861,271.9062
19:25:18:811,1.2855,0.4836,13.1988,36.7128,-0.0202,-0.6829,0.1203,271.7344
19:25:18:811,1.908,0.2776,14.7021,36.7419,0.0965,-0.9218,0.0403,271.7188
19:25:18:811,1.5491,0.2106,15.2958,36.562,0.3567,-0.8601,-0.0574,271.8594
19:25:18:811,0.9003,0.0191,12.5952,36.6143,0.7159,-0.4374,-0.091,271.875
19:25:18:827,0.9817,0.268,9.3897,36.3926,0.8815,-0.1161,-0.011,272.2344
19:25:18:847,1.6161,1.0965,7.6301,36.1654,0.7642,-0.1038,0.0733,272.2812
19:25:18:869,2.5232,1.9944,7.57,35.7877,0.5015,-0.2712,0.0525,272.2188
19:25:18:888,3.134,2.4084,8.2334,35.6674,0.2046,-0.4154,-0.1313,272.2188
19:25:18:909,2.3509,1.9657,8.3913,35.3792,-0.025,-0.4532,-0.4423,271.8281
19:25:18:929,1.0271,1.2066,9.0832,35.0998,-0.2511,-0.3464,-0.6903,271.3906
19:25:18:947,0.2776,0.9027,10.3567,35.0533,-0.3848,-0.168,-0.6725,271.3906
19:25:18:970,-0.3114,1.0152,10.0146,34.7383,-0.179,0.0122,-0.5614,271.2344
19:25:18:988,-0.4549,1.2066,8.796,34.8022,0.1888,0.0342,-0.4245,271.2344
19:25:19:008,-0.1866,1.4844,7.7426,34.5715,0.4496,-0.0324,-0.2865,270.9688
19:25:19:027,0.0359,1.7955,7.0795,34.5547,0.5149,-0.0678,-0.2101,270.9688
19:25:19:049,0.2154,2.0686,6.804,34.3583,0.4251,-0.0605,-0.1991,270.7969
19:25:19:071,0.1771,2.339,6.9547,34.6751,0.2596,-0.025,-0.2297,270.7969
19:25:19:088,0.0718,2.6288,7.3427,34.662,0.0739,0.033,-0.2578,271.0625
19:25:19:108,0.2512,2.7628,7.7569,34.3436,-0.1038,0.1002,-0.2535,271.0625
19:25:19:127,0.766,2.8729,8.4248,34.341,-0.2456,0.1246,-0.2346,271.1406
19:25:19:147,1.2162,3.1077,9.4783,34.2126,-0.3335,0.1393,-0.2486,271.1406
19:25:19:169,1.2018,3.4618,9.9595,34.0253,-0.3738,0.2902,-0.3103,271.2969
19:25:19:188,0.3736,3.6607,9.9787,33.7319,-0.4154,0.518,-0.4178,271.3125
19:25:19:207,-0.3975,3.0619,10.6777,33.5379,-0.4123,0.5663,-0.4899,272.4375
19:25:19:228,-0.6057,2.2935,11.8531,33.116,-0.2456,0.4013,-0.4612,272.5469
19:25:19:249,-0.5722,1.9582,12.3464,32.8494,0.2755,0.0299,-0.2749,273.75
19:25:19:270,-0.9697,1.3071,12.1908,32.6352,0.3354,0.0183,-0.1778,273.8594
19:25:19:287,-1.4677,1.5395,10.9627,32.2914,0.2828,0.1442,-0.0513,274.625
19:25:19:308,-1.4581,1.4557,10.0528,31.9679,0.0831,0.1515,0.0788,274.7031
19:25:19:327,-0.4813,0.9099,11.5035,31.6517,-0.2242,-0.1057,0.1631,275.1875
19:25:19:347,-0.9027,0.1531,14.901,31.3427,-0.3848,-0.3561,0.1533,275.2344
19:25:19:369,-2.1691,0.4645,15.0302,31.2451,-0.1313,-0.1258,0.2443,275.7344
19:25:19:388,-1.9223,1.0032,10.8093,30.9628,0.3836,0.2822,0.4722,275.7969
19:25:19:409,-0.9529,1.628,7.1034,30.85,0.6579,0.3225,0.62,276.25
19:25:19:428,-0.4167,2.2361,6.2103,30.6872,0.5339,0.0153,0.5644,276.8438
19:25:19:447,-0.5818,2.1141,7.9914,30.449,0.2175,-0.2969,0.3592,276.8438
19:25:19:472,-1.1898,1.3382,9.2387,30.1616,0.0024,-0.2828,0.1637,277.75
19:25:19:488,-1.6639,0.6057,9.574,30.1978,-0.0825,-0.0916,0.0788,277.75
19:25:19:510,-1.7859,0.0502,9.0616,29.9741,-0.1081,0.0886,0.0855,278.6406
19:25:19:527,-2.2146,-0.1364,8.8989,29.7033,-0.1356,0.1472,0.1362,278.6406
19:25:19:547,-2.3844,0.0718,9.0616,29.3823,-0.1222,0.1527,0.2596,279.1406
19:25:19:570,-2.1212,0.4501,8.2573,29.1505,-0.0257,0.2193,0.4209,279.1875
19:25:19:589,-1.707,0.9266,7.2015,29.1675,0.044,0.2431,0.5528,279.2031
19:25:19:609,-1.4486,1.4342,6.7178,28.9602,0.0269,0.1619,0.6218,279.2031
19:25:19:628,-1.5945,1.8027,7.3666,28.7021,-0.0391,-0.0464,0.6334,278.8125
19:25:19:647,-1.1779,1.7309,8.7553,28.2369,-0.0159,-0.3677,0.6548,278.8125
19:25:19:668,-0.7014,1.6448,9.8013,27.9711,0.1289,-0.5217,0.6713,278.1094
19:25:19:688,-0.5004,1.951,9.6697,27.6538,0.2278,-0.3189,0.6609,278.0469
19:25:19:709,-0.419,2.2911,9.318,27.4945,0.1484,-0.0031,0.6261,276.9688
19:25:19:727,-0.2776,2.3318,9.6458,27.2167,-0.0086,0.157,0.5675,276.8594
19:25:19:748,0.1196,2.5259,10.4982,26.6659,-0.1124,0.1747,0.5266,276.3594
19:25:19:771,1.5634,2.6312,11.1159,26.3095,-0.1387,0.1155,0.3299,276.3125
19:25:19:788,1.3119,2.2792,11.9943,26.1833,-0.1765,-0.0574,0.1429,276.125
19:25:19:808,1.0582,2.1476,13.3232,25.8802,-0.2144,-0.1148,0.0507,276.1094
19:25:19:827,1.4366,2.5137,12.6024,25.6123,-0.2077,0.1662,0.0507,275.6875
19:25:19:847,1.9223,2.8083,10.1605,25.3717,-0.1674,0.2401,-0.033,275.6406
19:25:19:870,1.4677,1.2449,11.4772,25.0134,-0.2132,-0.2614,-0.2596,274.6562
19:25:19:888,-0.0766,0.51,13.9672,24.579,-0.3861,-0.2999,-0.3531,274.5625
19:25:19:907,-1.1707,0.134,14.0605,24.1607,-0.27,0.047,-0.2443,273.3125
19:25:19:927,-0.3018,0.1795,11.2834,23.7375,0.0342,0.4099,0.0342,271.7656
19:25:19:947,0.1771,0.3018,9.0353,23.2204,0.1759,0.4374,0.2303,271.7656
19:25:19:973,0.4813,0.8306,7.424,22.9707,0.215,0.0287,0.3268,270.3906
19:25:20:006,1.1037,0.8306,8.4607,22.8944,0.0849,-0.496,0.2871,270.3906
19:25:20:012,1.0008,0.565,10.1366,22.7212,-0.146,-0.5247,0.1539,269.1562
19:25:20:040,-0.0215,0.2632,10.6131,22.4843,-0.2596,-0.1503,0.0525,269.1562
19:25:20:050,-0.6679,0.1603,9.9308,22.3045,-0.1826,0.1802,0.1002,269.1406
19:25:20:068,-0.687,0.4501,8.6785,22.2106,-0.0189,0.3268,0.2761,268.2344
19:25:20:089,-0.1412,1.2305,7.7067,22.2273,0.0837,0.3531,0.4447,268.2344
19:25:20:109,0.2082,1.9415,7.7809,22.0392,0.0544,0.3934,0.4655,267.9844
19:25:20:128,-0.3233,2.1691,7.8168,21.8789,-0.0232,0.5345,0.3824,267.9062
19:25:20:147,-1.1444,1.8027,7.5197,21.4732,-0.0244,0.6011,0.3323,267.9062
19:25:20:167,-1.0175,1.6591,7.4432,20.9831,0.0788,0.3543,0.4203,268.5469
19:25:20:189,-0.778,1.7429,7.733,20.9333,0.1918,0.0263,0.5241,268.5469
19:25:20:209,-0.3162,2.1356,8.9539,20.7556,0.237,-0.2077,0.6084,268.7188
19:25:20:227,0.0191,2.4467,9.2339,20.6017,0.2645,-0.1197,0.62,268.7344
19:25:20:248,0.0574,2.6719,9.6984,20.4483,0.2382,0.0397,0.5546,268.2188
19:25:20:268,0.5794,2.9136,9.5333,20.5391,0.2492,0.2175,0.474,268.1562
19:25:20:289,-1.7261,2.2863,9.0497,20.3019,0.201,0.4575,0.4056,267.7344
19:25:20:308,-1.2879,2.4371,9.306,20.1508,0.0635,0.3525,0.6658,267.7031
19:25:20:327,-0.9362,2.581,11.1183,20.1034,-0.0568,0.1631,0.8558,267.5
19:25:20:347,0.297,2.77,12.6745,20.1351,-0.1038,0.1845,0.967,267.4844
19:25:20:368,0.5124,2.9255,13.0047,19.7225,-0.0757,0.4899,0.9071,266.7656
19:25:20:387,-0.5363,2.9782,12.411,19.487,-0.0177,0.8167,0.7147,266.6875
19:25:20:408,-1.7213,2.8298,10.2251,19.2065,0.0586,1.0555,0.5492,265.8125
19:25:20:428,-2.9183,2.4802,7.7713,18.7602,-0.0324,1.0488,0.4783,264.9531
19:25:20:448,-3.2824,1.8027,8.4631,18.6684,-0.3763,0.5687,0.5052,264.9531
19:25:20:471,-2.9806,0.5339,12.0063,18.5944,-0.6047,-0.2101,0.5907,263.6875
19:25:20:488,-3.1077,-0.2273,14.8938,18.4945,-0.3525,-0.7471,0.708,263.6875
19:25:20:508,-2.7652,-0.2898,13.5194,18.1199,0.2676,-0.6506,0.948,262.4531
19:25:20:528,-2.339,0.1866,9.6673,18.3736,0.6982,-0.27,1.1875,262.4531
19:25:20:548,-1.992,0.6607,7.5078,18.5138,0.6108,-0.0544,1.3035,262.4375
19:25:20:570,-1.4988,1.0702,7.0122,18.525,0.2077,0.066,1.3372,261.625
19:25:20:588,-1.0319,1.2592,7.6828,18.3996,-0.215,0.1362,1.2962,261.6094
19:25:20:608,-0.5674,1.2401,8.8678,18.4616,-0.4313,0.1698,1.2101,260.4375
19:25:20:629,-0.6583,0.9338,9.0138,18.472,-0.3897,0.2834,1.0989,258.3906
19:25:20:647,-1.0845,0.5148,8.377,18.6834,-0.2792,0.4636,1.0354,258.3906
19:25:20:671,-1.209,0.5483,7.1752,18.7995,-0.2578,0.6304,1.072,256.5
19:25:20:688,-1.1827,0.9601,6.9523,18.9314,-0.3647,0.6047,1.1087,256.5
19:25:20:709,-0.8931,1.1946,8.0824,18.7691,-0.4954,0.4551,1.1191,255.3438
19:25:20:727,-0.4884,1.6567,9.0688,18.905,-0.4325,0.2822,1.1264,255.2344
19:25:20:748,-0.3138,1.8936,8.7553,19.3862,-0.2254,0.1961,1.0751,253.9688
19:25:20:771,-0.7923,1.573,9.1573,19.3459,-0.1277,0.1008,0.9431,253.8438
19:25:20:790,-0.352,1.9439,9.8973,19.3385,-0.1716,0.0935,0.9859,252.25
19:25:20:809,0.1292,2.2337,10.3113,19.1223,-0.1594,0.1069,0.9566,252.0938
19:25:20:872,0.2752,2.3773,10.637,19.141,-0.124,0.1014,0.8283,249.7969
19:25:20:873,-0.0191,2.0614,10.9026,19.0494,-0.1087,0.0611,0.6695,249.5781
19:25:20:873,-0.2249,1.6711,11.712,19.2932,-0.0776,-0.1179,0.565,246.9219
19:25:20:892,0.012,1.1444,12.8157,19.4015,-0.0055,-0.3085,0.5198,246.6562
19:25:20:908,0.0981,1.1252,13.0071,19.3278,0.0489,-0.2449,0.5143,244.2031
19:25:20:928,0.3473,1.4797,12.5043,19.6057,0.0391,-0.0257,0.5064,241.6875
19:25:20:948,0.6488,1.506,11.4939,19.7273,-0.0318,0.1991,0.4557,241.6875
19:25:20:972,1.0295,1.4677,10.5245,20.0304,-0.1209,0.2388,0.3903,238.7812
19:25:20:989,1.2162,1.2688,10.8236,20.1878,-0.201,-0.0177,0.2663,238.7812
19:25:21:009,0.5578,0.4765,12.1669,20.334,-0.2187,-0.3073,0.0928,236.2031
19:25:21:028,-0.6416,-0.2946,12.7726,20.2932,-0.091,-0.3311,0.036,236.2031
19:25:21:047,-0.9984,-0.4597,11.0058,20.3432,0.171,-0.1026,0.1833,236.1875
19:25:21:071,-0.4956,-0.2393,8.875,20.3688,0.325,0.0134,0.4025,234.0469
19:25:21:088,0.7564,0.4071,8.1377,20.5531,0.1851,-0.0586,0.5565,234.0312
19:25:21:109,1.8027,1.209,9.009,20.612,-0.1381,-0.2138,0.5143,231.8438
19:25:21:128,1.6041,1.5993,10.7495,20.8163,-0.4557,-0.2346,0.2627,230.125
19:25:21:147,0.553,1.3071,11.4867,20.9626,-0.5485,-0.0415,-0.0263,230.125
19:25:21:173,-0.5076,0.8019,10.6944,20.9202,-0.4056,0.234,-0.168,228.9688
19:25:21:190,-0.9458,0.6296,9.0497,21.0971,-0.2004,0.4313,-0.1069,228.9688
19:25:21:210,-0.7804,1.0319,7.9244,21.088,-0.0959,0.471,0.0513,227.9688
19:25:21:227,-0.3951,1.7094,7.6971,21.0889,-0.0617,0.4068,0.1759,227.875
19:25:21:247,-0.0885,2.1595,7.6277,20.8914,0.011,0.325,0.2059,226.9688
19:25:21:271,0.0096,2.3055,7.1584,21.1367,0.124,0.2639,0.1613,226.875
19:25:21:289,0.0598,2.2122,6.6365,20.806,0.1765,0.1961,0.0959,226.4844
19:25:21:309,0.1292,2.0734,6.7442,20.7818,-0.091,0.1148,0.0373,226.4531
19:25:21:327,0.189,2.15,8.3722,20.909,-0.204,0.0733,0.0269,226.2812
19:25:21:348,0.3568,2.0471,8.6282,20.9762,-0.215,-0.0745,0,226.2656
19:25:21:371,0.6751,2.1739,9.2653,21.0832,-0.2004,-0.325,-0.0293,225.375
19:25:21:390,0.644,2.3174,10.3759,21.2761,-0.1613,-0.5528,-0.058,225.2812
19:25:21:407,0.3066,2.2887,11.458,21.5035,-0.044,-0.708,-0.0696,224.4844
19:25:21:428,0.4167,2.059,12.8659,21.5891,0.1368,-0.8601,-0.0128,224.4531
19:25:21:447,0.7756,1.8625,13.474,21.9542,0.3237,-0.7807,0.0715,224.4531
19:25:21:472,0.6416,1.8386,12.9497,22.0824,0.3983,-0.4508,0.1045,224.4062
19:25:21:488,0.0311,1.7237,12.047,21.998,0.2993,-0.036,0.1069,224.4062
19:25:21:509,-0.9242,1.5395,11.2044,21.7387,0.0947,0.3219,0.1313,224.4062
19:25:21:527,-1.386,1.5323,10.6609,21.7709,-0.1075,0.4612,0.2321,223.9219
19:25:21:548,-1.2066,1.3454,10.5939,21.8731,-0.2498,0.3183,0.3445,223.9062
19:25:21:572,-0.7708,0.7899,12.1789,22.0638,-0.3525,-0.0183,0.3873,223.625
19:25:21:588,-0.7445,0.1053,13.8595,21.8831,-0.2773,-0.2682,0.4056,223.625
19:25:21:608,-1.6113,-0.2321,13.4142,21.8051,0.0354,-0.1576,0.4557,223.5
19:25:21:627,-2.3055,-0.0885,10.5245,21.7684,0.3799,0.2217,0.6316,223.4062
19:25:21:647,-1.9729,0.2249,7.5126,22.1263,0.4978,0.4349,0.8692,223.4062
19:25:21:670,-1.386,0.5219,6.1624,22.4179,0.336,0.3512,1.0152,223.5312
19:25:21:690,-0.7038,1.0558,6.4448,22.5617,0.0208,0.1478,1.0568,223.5312
19:25:21:708,0.0287,1.6232,7.424,22.5683,-0.2621,-0.0257,0.9908,223.7656
19:25:21:728,0.2536,1.8003,8.6426,22.4662,-0.4178,-0.1619,0.788,223.7656
19:25:21:748,0.079,1.5012,9.8447,22.6254,-0.419,-0.2376,0.554,223.7812
19:25:21:768,-0.4334,0.9769,10.1031,22.7091,-0.2718,-0.1875,0.3958,223.7812
19:25:21:789,-0.7134,0.4741,9.21,22.8429,-0.0635,-0.0593,0.3653,223.5469
19:25:21:812,-0.6918,0.4047,8.7506,22.6246,0.0635,-0.0464,0.4484,223.5312
19:25:21:828,-0.3353,1.0558,9.5309,22.5616,0.1662,-0.1918,0.5742,222.8438
19:25:21:847,0.1053,2.1117,8.6234,22.5105,0.6848,-0.2633,0.573,222.7812
19:25:21:872,-0.134,2.0183,7.3211,22.5591,0.7642,-0.179,0.474,221.9531
19:25:21:887,-0.134,1.9343,6.7035,22.7169,0.5736,-0.0678,0.4423,221.8594
19:25:21:906,0.0144,2.1332,7.1728,22.5612,0.2309,-0.0049,0.4471,220.8125
19:25:21:927,0.2082,2.1906,8.7649,22.5111,-0.0928,-0.0391,0.4166,218.8438
19:25:21:947,0.5339,2.0518,10.5556,22.4191,-0.2425,-0.1283,0.3604,218.8438
19:25:21:971,0.4621,1.8194,11.3767,22.4262,-0.201,-0.2107,0.2767,218.6406
19:25:21:988,0.3449,1.4127,11.6354,22.5872,-0.1301,-0.3091,0.2114,216.5625
19:25:22:008,0.3592,0.9864,12.2291,22.5907,-0.146,-0.4728,0.1949,216.3594
19:25:22:038,0.4525,0.5315,13.6726,22.3912,-0.2162,-0.6151,0.2132,214.8281
19:25:22:048,0.9051,0.3305,14.6231,22.5117,-0.2578,-0.4606,0.284,214.8125
19:25:22:071,1.9534,0.3832,14.0103,22.5702,-0.273,-0.0678,0.3726,213.9688
19:25:22:089,2.916,0.3975,13.2323,22.6724,-0.3201,0.201,0.3335,213.9688
19:25:22:109,2.5834,0.1627,13.2826,22.626,-0.3659,0.27,0.1405,212.8906
19:25:22:127,1.1492,-0.1914,13.1172,22.7008,-0.2755,0.361,-0.0434,211.7344
19:25:22:147,0.6464,-0.7636,11.8053,22.5681,0.0098,0.4765,-0.0049,211.7344
19:25:22:172,0.9817,-0.8453,10.1079,22.6679,0.3128,0.5241,0.1851,210.875
19:25:22:188,1.5658,-0.2106,8.4942,22.7662,0.4459,0.5504,0.3757,210.875
19:25:22:208,2.016,0.7158,7.235,22.3992,0.394,0.5033,0.4416,209.9375
19:25:22:228,2.1811,1.3813,7.1225,22.5275,0.2138,0.3311,0.3121,209.9375
19:25:22:249,2.0375,1.561,7.4671,22.507,-0.0012,0.1888,0.0635,209.3125
19:25:22:270,1.3095,1.3789,7.7785,22.8087,-0.2028,0.1484,-0.2071,209.25
19:25:22:288,0.4741,1.0367,8.3746,22.7852,-0.3812,0.1723,-0.3671,208.9062
19:25:22:308,0.0431,0.7995,8.9946,22.8099,-0.4514,0.2107,-0.3512,208.875
19:25:22:329,0.3784,1.2544,9.3706,22.7394,-0.1674,0.2449,-0.0507,208.4844
19:25:22:348,0.8258,1.774,8.8295,22.7904,0.055,0.2785,0.0623,208.4531
19:25:22:372,0.9505,2.1308,8.176,22.8614,0.1912,0.2957,0.0684,207.7031
19:25:22:387,0.874,2.1954,8.0178,22.7678,0.1845,0.2895,0.0238,207.625
19:25:22:407,0.8931,2.2792,8.5971,22.6841,0.0971,0.284,0.0165,207.4219
19:25:22:427,1.1922,2.2959,9.3419,22.3183,0.0721,0.2596,0.0373,207.125
19:25:22:447,1.2018,2.2241,9.5501,22.2726,0.1655,0.2242,0.0312,207.125
19:25:22:471,1.0295,2.2839,9.4639,22.1908,0.2865,0.1839,0.047,207.0938
19:25:22:487,0.7564,2.4562,9.4759,22.0977,0.3616,0.1264,0.0794,206.2188
19:25:22:508,0.3473,2.461,9.4256,21.9505,0.3989,0.0782,0.102,206.1406
19:25:22:527,-0.122,2.3438,9.7104,21.9656,0.3793,0.025,0.135,205.6562
19:25:22:547,-0.0885,2.3246,10.7925,22.0707,0.3598,-0.1234,0.2162,205.6562
19:25:22:570,0.4214,2.4849,11.9393,22.0125,0.4343,-0.2932,0.2859,206.1875
19:25:22:588,0.5698,2.5857,12.3751,22.1837,0.598,-0.3396,0.2645,206.1875
19:25:22:609,0.364,2.6456,12.2124,22.2126,0.7104,-0.2297,0.19,206.6875
19:25:22:628,0.0431,2.7078,11.4174,22.4195,0.6725,-0.0238,0.1045,206.6094
19:25:22:648,-0.3688,2.5283,10.4049,22.4974,0.3922,0.2248,0.0055,206.6094
19:25:22:673,-0.6535,2.1236,11.0106,22.6297,-0.0886,0.3231,-0.0458,206.4844
19:25:22:688,-0.8883,1.4366,13.4883,22.7419,-0.3708,0.1698,-0.0409,206.4844
19:25:22:709,-1.3454,0.778,14.1275,22.8243,-0.1271,0.1209,0.044,206.375
19:25:22:727,-1.8003,0.8644,11.5875,22.8673,0.4135,0.2755,0.2425,206.375
19:25:22:747,-1.6496,1.2927,7.8957,22.5811,0.7513,0.4184,0.4563,206.2969
19:25:22:771,-1.2473,1.8458,5.6453,22.5577,0.6078,0.3378,0.5608,206.2812
19:25:22:788,-0.929,2.3198,5.9566,22.4331,0.1191,0.0617,0.5211,206.1562
19:25:22:810,-0.3879,2.2935,7.9268,22.4376,-0.3757,-0.2181,0.3812,206.1562
19:25:22:829,-0.0622,1.8458,9.7319,22.3176,-0.6047,-0.2578,-0.0275,205.8906
19:25:22:849,-0.4645,0.3855,9.3299,22.095,-0.5369,-0.1454,-0.1729,205.875
19:25:22:872,-0.7086,0.3018,9.1382,22.0571,-0.5137,-0.1674,-0.1875,205.5156
19:25:22:948,-0.9769,0.486,9.1645,22.0416,-0.4936,-0.1784,-0.1411,205.3594
19:25:22:949,-1.506,0.6272,8.9994,22.2238,-0.3848,-0.1478,-0.0696,205.3594
19:25:22:949,-1.7357,0.6392,8.5588,22.0631,-0.1729,-0.0935,0.0825,205.3438
19:25:22:949,-1.1659,0.8306,7.867,22.0372,0.058,-0.0232,0.3329,205.3281
19:25:22:976,-0.3568,1.3358,7.2398,22.0054,0.1759,0.0647,0.565,205.3281
19:25:22:987,0.4717,2.0566,6.9212,21.9478,0.0874,0.2346,0.686,205.2188
19:25:23:009,1.0271,2.892,7.1297,22.1191,-0.1686,0.3916,0.675,205.2031
19:25:23:027,0.8788,3.6413,7.7689,22.0203,-0.3995,0.3873,0.5363,204.4531
19:25:23:047,-0.1172,3.2776,10.1629,22.253,-0.4954,0.0507,0.3097,204.4531
19:25:23:071,-0.3879,1.9152,12.7558,22.3237,-0.2175,-0.5027,0.2083,203.2969
19:25:23:088,-0.0598,1.0271,12.4636,22.49,0.2944,-0.7232,0.2895,202.6562
19:25:23:108,0.7158,1.4174,11.4054,22.6121,0.5437,-0.7171,0.4416,202.6562
19:25:23:127,1.4198,1.9657,11.3791,22.9156,0.2999,-0.5504,0.5021,202.8125
19:25:23:147,1.4892,2.3557,12.0494,22.9388,-0.1973,-0.1576,0.3983,202.8125
19:25:23:172,1.5443,2.3821,12.1406,22.9342,-0.5064,0.1985,0.2749,203.125
19:25:23:189,1.8505,2.2768,11.3719,23.0801,-0.5614,0.3268,0.1784,203.125
19:25:23:208,2.4538,2.3701,10.7758,22.9369,-0.5577,0.2138,0.0678,203.0938
19:25:23:227,2.825,1.9705,11.1781,22.9145,-0.6218,-0.022,-0.1765,203.0938
19:25:23:248,2.3294,1.0295,12.4397,22.9604,-0.5614,-0.3775,-0.5229,202.125
19:25:23:272,1.4533,0.2249,13.7468,22.928,-0.3891,-0.54,-0.7355,202.125
19:25:23:288,0.8067,-0.8644,13.4429,22.9582,-0.0354,-0.4416,-0.7391,200.6719
19:25:23:309,0.6464,-1.4509,11.2881,23.0885,0.3787,-0.2217,-0.5601,200.5312
19:25:23:328,0.9242,-1.0606,8.9779,23.156,0.5766,-0.1155,-0.3036,199.5156
19:25:23:349,1.5586,-0.1986,8.4033,23.238,0.2101,-0.1332,-0.1564,199.4219
19:25:23:372,1.963,0.4286,8.9731,23.3194,0.0031,0.1264,-0.3011,199.1094
19:25:23:389,1.2233,0.443,8.5971,23.5687,-0.1081,0.449,-0.43,198.375
19:25:23:408,0.5291,0.419,7.9005,23.7235,-0.0935,0.6304,-0.4557,198.375
19:25:23:427,0.1196,0.6607,7.1345,23.9512,0.0238,0.5925,-0.3683,198.3125
19:25:23:447,0.1412,1.1731,6.7609,23.9406,0.1753,0.3531,-0.2217,197.5781
19:25:23:472,0.5076,1.7333,6.5647,23.7945,0.27,0.0983,-0.1344,197.5156
19:25:23:490,0.8764,2.1547,6.603,23.7713,0.1863,0.0476,-0.157,197.1094
19:25:23:508,0.8835,2.4443,6.8255,23.9036,-0.0586,0.182,-0.2651,197.0781
19:25:23:527,0.3592,2.2768,7.3211,24.2131,-0.3152,0.3054,-0.4251,197.7969
19:25:23:548,-0.3329,1.9463,8.3411,24.3563,-0.4557,0.2871,-0.5272,197.7969
19:25:23:571,-0.7301,1.6998,9.2219,24.6892,-0.3806,0.0812,-0.4838,199.5
19:25:23:589,-0.7493,1.7189,10.1079,24.7673,-0.2004,-0.212,-0.3372,199.5156
19:25:23:609,-0.1866,1.6496,11.19,24.9311,-0.0586,-0.3702,-0.1429,200.5781
19:25:23:629,0.352,2.016,11.6856,25.2629,0.0238,-0.2236,0.0495,201
19:25:23:647,0.6033,2.8322,11.7574,25.5448,0.0104,0.1038,0.1765,201
19:25:23:672,0.9194,2.8657,11.8077,25.5878,-0.047,0.3183,0.2083,201.7031
19:25:23:688,1.4366,2.5953,11.9632,25.745,-0.0409,0.2865,0.1869,201.7031
19:25:23:708,1.9391,2.5666,11.621,25.8808,-0.0012,0.1582,0.1466,202.4375
19:25:23:728,2.8418,2.8274,11.391,26.1946,-0.0495,-0.0745,-0.0745,202.4375
19:25:23:748,0.8572,2.7365,13.0741,26.6178,-0.1918,-0.0971,-0.4777,202.8125
19:25:23:772,-0.0933,1.6902,12.1143,27.0184,-0.1203,0.2511,-0.4325,202.8125
19:25:23:788,-0.3688,1.0678,10.7566,27.385,-0.0354,0.3225,-0.2822,203.2031
19:25:23:808,-0.2225,0.9505,10.6705,27.7671,-0.0654,0.055,-0.1826,203.25
19:25:23:827,0.0024,0.6751,11.8651,28.0992,-0.1539,-0.2737,-0.124,204.0469
19:25:23:848,-0.6105,0.1579,11.6761,28.3501,-0.1112,-0.2352,-0.0819,204.125
19:25:23:872,-1.3621,-0.1436,9.6171,28.5457,0.2144,0.2645,0.3488,204.9219
19:25:23:889,-1.3669,0.0144,7.5461,28.7113,0.2046,0.0061,0.5235,204.9844
19:25:23:907,-0.2608,1.2497,8.9492,28.7676,0.0867,-0.46,0.5412,205.1562
19:25:23:927,0.632,1.2401,10.6681,28.9604,-0.0171,-0.6206,0.3903,205.1719
19:25:23:948,0.2946,0.8115,10.7782,29.3318,-0.0837,-0.3482,0.1295,204.7344
19:25:23:972,-0.6727,0.3377,9.9308,29.665,-0.1582,0.033,-0.0391,204.7031
19:25:23:989,-1.1539,0.0718,9.0712,30.1352,-0.2107,0.3066,-0.0128,204.3125
19:25:24:009,-1.0295,0.1436,8.3411,30.6718,-0.1955,0.4734,0.113,204.2656
19:25:24:028,-0.6464,0.5841,7.9412,31.1015,-0.1277,0.5424,0.2199,204.8125
19:25:24:048,-0.1962,0.9769,7.5485,31.1945,-0.0257,0.5656,0.2272,204.8594
19:25:24:073,-0.1603,1.0965,7.3116,31.7308,0.0275,0.5479,0.0977,205.5625
19:25:24:088,-0.6033,0.754,7.4145,32.1176,-0.0269,0.4972,-0.0849,205.5625
19:25:24:110,-1.2185,0.3999,7.6086,32.5416,-0.1332,0.4752,-0.1753,205.9062
19:25:24:127,-1.343,0.5363,8.0536,32.8334,-0.2449,0.452,-0.0953,205.9219
19:25:24:148,-0.6775,1.0295,8.7434,33.2872,-0.3079,0.4209,0.0825,205.9219
19:25:24:168,-0.0933,1.5371,9.3347,33.5209,-0.2688,0.328,0.1826,204.9844
19:25:24:189,-0.0766,1.9657,9.8662,33.9734,-0.1912,0.1411,0.124,204.9844
19:25:24:208,-0.1005,1.7907,10.5437,34.7022,-0.1472,-0.1527,-0.0153,204.0938
19:25:24:228,0.0574,1.1659,11.6952,35.136,-0.1307,-0.4728,-0.1497,204.0938
19:25:24:247,0.3736,0.5578,13.2036,35.4769,-0.099,-0.5937,-0.2462,204
19:25:24:272,0.1005,0.0407,13.2586,35.6705,-0.0721,-0.3561,-0.3439,204
19:25:24:290,-0.2994,-0.3401,12.2818,36.077,-0.1374,-0.0922,-0.3042,203.7812
19:25:24:307,0.0837,-0.1077,11.7503,36.6589,-0.3415,0.0269,-0.1008,203.75
19:25:24:328,0.285,-0.146,12.5952,37.1967,-0.587,-0.0843,-0.0385,203.1719
19:25:24:348,-0.2536,-0.7588,13.6295,37.5907,-0.667,-0.2694,-0.1167,203.125
19:25:24:369,-0.4956,-1.2497,14.6686,37.7786,-0.1295,-0.1875,0.1075,203
19:25:24:387,-0.5363,-1.7022,13.7109,38.051,0.3396,0.0128,0.3482,202.9844
19:25:24:407,0.51,-1.3789,9.5022,38.3235,0.7068,0.1191,0.6396,203.1094
19:25:24:426,0.754,-0.4645,8.2382,38.7875,0.7739,-0.0104,0.7581,203.1094
19:25:24:447,1.963,0.7229,7.7665,39.1031,0.8338,-0.4197,0.711,202.7031
19:25:24:470,2.0136,0.7995,7.8957,38.9294,0.4948,-0.4478,0.3146,202.6719
19:25:24:488,1.1563,0.3855,8.5828,39.0427,0.0012,-0.1759,-0.0764,202.5156
19:25:24:507,0.1651,-0.2584,8.5971,39.3683,-0.3366,0.2462,-0.2321,202.5
19:25:24:527,-0.5794,-0.364,8.432,39.6158,-0.3983,0.4215,-0.2095,202.9531
19:25:24:547,-0.4956,0.0981,8.1999,39.8586,-0.2718,0.3732,-0.0513,203.0156
19:25:24:569,-0.134,0.687,8.0991,40.2915,-0.1069,0.2449,0.0935,203.7344
19:25:24:587,0.309,1.2473,7.9531,40.6474,0.0116,0.1674,0.1594,203.7344
19:25:24:607,0.8091,1.6974,7.8455,41.1278,0.0476,0.1497,0.1454,203.7812
19:25:24:627,1.0702,2.0542,8.1473,41.5074,-0.0189,0.1863,0.0629,203.9062
19:25:24:648,1.1492,2.2792,8.7625,41.8364,-0.1124,0.2358,-0.0287,203.9062
19:25:24:669,1.1133,2.3605,9.1837,41.8944,-0.1142,0.2419,-0.1038,203.4375
19:25:24:687,1.0175,2.2768,9.1023,42.1659,-0.0305,0.1894,-0.1716,203.4375
19:25:24:708,0.9745,2.1284,9.3395,42.3037,0.0293,0.0501,-0.2382,202.0781
19:25:24:727,0.6009,1.9582,9.8901,42.4873,0.0208,-0.0525,-0.2932,202.0781
19:25:24:747,0.0622,1.7333,10.5556,42.5544,-0.0037,-0.044,-0.2804,201.1719
19:25:24:770,-0.2321,1.6496,10.946,42.6728,-0.0037,0.0428,-0.1735,201.1719
19:25:24:787,-0.0407,1.8099,11.5062,42.8468,0.0342,0.0733,-0.025,201.4375
19:25:24:808,0.1962,1.9175,11.9465,42.9117,0.124,0.0354,0.0538,201.4688
19:25:24:827,0.3377,1.5586,11.4485,43.127,0.2535,-0.0226,0.0281,201.5781
19:25:24:847,0,0.9984,11.0704,43.2467,0.2749,-0.1625,-0.0886,201.5938
19:25:24:870,-0.9218,0.5124,11.4532,43.4752,0.0983,-0.259,-0.2059,201.2969
19:25:24:888,-2.3916,-0.4358,12.612,43.6718,-0.2364,0.0061,0.0079,201.2656
19:25:24:907,-2.0207,-0.6918,12.4708,43.9047,-0.1338,0.0715,0.3274,201.0312
19:25:24:926,-1.2975,-0.2584,12.5474,43.9995,0.0941,-0.0305,0.6292,201.0156
19:25:24:946,-0.7253,0.3401,11.2451,44.1511,0.3763,0.0098,0.8155,201.0625
19:25:24:995,-0.256,0.766,8.9587,44.3219,0.5357,0.1484,0.8656,201.0781
19:25:24:995,0.0526,1.0917,7.4671,44.5274,0.4471,0.1271,0.7965,201.4531
19:25:25:007,0.2512,1.4103,7.599,44.8078,0.1845,-0.0983,0.6481,201.5
19:25:25:027,0.5865,1.4294,8.9874,44.8885,-0.0788,-0.3561,0.4594,202.0781
19:25:25:048,0.6392,1.2185,10.503,44.704,-0.2138,-0.4258,0.2401,202.1406
19:25:25:070,0.5267,0.6679,10.7471,44.7194,-0.1759,-0.2602,0.0544,202.3594
19:25:25:087,0.134,0.3209,9.9571,44.697,-0.0409,-0.0257,-0.0544,202.3594
19:25:25:108,-0.2874,0.1268,8.6737,44.6064,0.055,0.168,-0.0898,202.3125
19:25:25:127,-0.5818,0.0144,8.0513,44.5733,0.055,0.1894,-0.0519,202.7344
19:25:25:148,-0.6799,0.256,8.6689,44.6818,0.014,0.0959,0.0434,202.7344
19:25:25:170,-0.1412,0.7612,9.4543,44.6518,0.0672,0.1173,0.1845,202.9062
19:25:25:187,0.4214,1.343,9.198,44.5782,0.2236,0.3335,0.2596,202.9062
19:25:25:207,0.213,1.6472,8.2406,44.7604,0.347,0.5809,0.2297,201.8438
19:25:25:227,-0.1005,1.7716,7.5245,44.8613,0.3647,0.6347,0.226,201.8438
19:25:25:248,-0.1125,2.0949,7.2852,44.9,0.3115,0.4612,0.2969,200.0938
19:25:25:269,-0.0981,2.3677,7.6828,45.1274,0.2052,0.1539,0.3366,200.0938
19:25:25:288,0.3688,2.3055,9.143,45.4476,0.0996,-0.2052,0.3219,198.5781
19:25:25:307,0.9458,1.9777,10.8619,45.3698,0.0916,-0.4331,0.2504,198.5781
19:25:25:327,0.9601,1.7572,11.214,45.3557,0.1668,-0.3604,0.1362,197.9219
19:25:25:347,0.5865,1.5586,10.6466,45.5605,0.2071,-0.2486,0.0232,197.8594
19:25:25:371,0.1986,1.1803,10.3857,45.7424,0.1478,-0.2969,-0.0641,197.8594
19:25:25:388,0.0287,0.8572,10.6681,45.6778,0.0324,-0.4361,-0.088,197.8594
19:25:25:409,0.6823,0.8572,11.1063,45.7975,-0.2401,-0.4636,-0.0538,197.9844
19:25:25:427,1.2281,0.7181,11.2092,45.807,-0.4233,-0.43,-0.1283,197.9844
19:25:25:446,1.6639,0.2465,11.9417,45.7145,-0.6506,-0.4936,-0.2834,197.75
19:25:25:467,1.4318,-0.309,13.9983,45.7497,-0.835,-0.6377,-0.4716,197.7188
19:25:25:487,0.8907,-0.8115,15.5857,45.8863,-0.7489,-0.5901,-0.5797,197.1875
19:25:25:507,0.431,-1.6041,14.616,45.8312,-0.3231,-0.2779,-0.5412,197.1406
19:25:25:527,0.3712,-1.9104,12.2483,45.6434,0.1961,-0.0128,-0.3616,196.5625
19:25:25:546,0.9314,-1.3406,9.9882,45.7964,0.5601,0.0519,-0.1155,196.5
19:25:25:568,1.6687,-0.376,8.7673,45.7713,0.6622,-0.0214,0.0238,195.8906
19:25:25:588,2.2002,0.4406,8.3602,45.7051,0.5632,-0.0635,-0.0226,195.8281
19:25:25:607,2.1739,0.8378,7.9268,45.3984,0.361,0.0562,-0.2046,195.5469
19:25:25:627,1.7213,0.8234,7.6469,45.3516,0.1112,0.2486,-0.4178,195.7031
19:25:25:647,1.0582,0.6176,7.6181,45.3449,-0.0977,0.4111,-0.5766,195.7031
19:25:25:670,0.352,0.4286,7.5126,45.2346,-0.171,0.507,-0.62,196.0156
19:25:25:687,0.0096,0.51,7.223,45.2674,-0.1142,0.5156,-0.5272,196.0156
19:25:25:707,0.3066,0.8979,6.8327,45.1619,-0.0031,0.4441,-0.358,196.2812
19:25:25:727,0.7899,1.5299,6.5671,45.2244,0.0666,0.3134,-0.2285,196.2812
19:25:25:748,1.1874,2.1739,6.7322,45.2731,0.0153,0.193,-0.212,197.1094
19:25:25:772,1.3262,2.4132,7.1824,45.5304,-0.1368,0.1362,-0.2999,197.1094
19:25:25:789,1.1037,2.3055,8.0034,45.498,-0.3152,0.1228,-0.4135,198.3594
19:25:25:808,0.862,2.1643,9.1765,45.5819,-0.4514,0.1228,-0.4649,198.3594
19:25:25:827,0.7134,1.951,10.2371,45.5595,-0.4795,0.1429,-0.4453,198.8906
19:25:25:847,0.5148,1.8314,10.9531,45.553,-0.3916,0.1564,-0.3818,198.9531
19:25:25:871,0.2345,1.9753,11.511,45.5269,-0.2529,0.1649,-0.2792,199.0625
19:25:25:889,0.0574,2.1667,11.7598,45.4606,-0.1167,0.2004,-0.1503,199.0625
19:25:25:909,0.1675,2.2002,12.0398,45.5956,0.0189,0.1735,-0.022,199.6875
19:25:25:929,0.699,2.2935,12.0637,45.587,0.4502,-0.0825,0.1228,199.75
19:25:25:948,0.7636,2.2241,10.9651,45.5775,0.5608,-0.1521,0.1209,200.7969
19:25:25:973,1.0606,2.2816,10.9436,45.3681,0.4429,-0.2804,0.1057,200.9062
19:25:25:987,1.0152,2.2648,11.7,45.5666,0.1955,-0.3464,0.0195,201.6719
19:25:26:007,0.5363,1.7094,12.0784,45.7387,-0.0715,-0.2608,-0.1093,201.75
19:25:26:027,-0.1125,0.7923,12.83,45.6875,-0.2999,-0.2095,-0.1723,202.1406
19:25:26:048,-0.1938,-0.0526,13.9289,45.5665,-0.3219,-0.2682,-0.1069,202.1875
19:25:26:072,-0.4382,-0.4597,14.1108,45.6401,-0.0464,-0.2138,0.0281,202.8125
19:25:26:088,-1.0989,-0.122,11.8555,45.6899,0.3977,0.1075,0.2156,202.875
19:25:26:109,-1.1779,0.3473,8.5636,45.7517,0.7355,0.3964,0.4203,203.7344
19:25:26:129,-0.8979,0.7373,6.1959,45.8162,0.7721,0.3861,0.5424,204.3438
19:25:26:148,-0.4741,1.2855,5.4945,45.6165,0.5113,0.1582,0.5626,204.3438
19:25:26:174,0.1172,1.9223,6.3682,45.2296,0.0886,-0.088,0.471,204.4844
19:25:26:189,0.565,1.9825,7.8359,45.2624,-0.2944,-0.2223,0.237,204.4844
19:25:26:209,0.0933,1.2664,9.3945,45.3401,-0.5137,-0.2462,-0.0947,204.3594
19:25:26:228,-0.8501,0.4478,10.6466,45.2561,-0.5101,-0.1973,-0.306,204.3594
19:25:26:249,-1.6926,-0.1316,10.826,45.1309,-0.2621,-0.0812,-0.2889,204.2812
19:25:26:274,-1.9128,-0.2273,9.9165,45.0674,0.1063,0.0721,-0.0647,204.2812
19:25:26:289,-1.1348,0.4525,8.4081,45.114,0.4087,0.1942,0.2627,204.4844
19:25:26:310,-0.146,1.427,7.6875,45.472,0.5015,0.2285,0.5003,204.4844
19:25:26:327,0.6703,2.3151,7.7354,45.7995,0.4245,0.2443,0.5766,204.7344
19:25:26:347,1.0128,2.8681,7.7282,45.6031,0.3109,0.3054,0.4991,204.7656
19:25:26:373,0.7564,3.05,7.6516,45.6288,0.2071,0.3195,0.2981,204.5781
19:25:26:389,0.1866,2.5977,7.9723,45.6557,0.113,0.1924,0.0684,204.5469
19:25:26:411,-0.8501,1.6543,9.6673,45.806,0.0452,-0.2651,-0.1203,203.6719
19:25:26:428,-0.9745,1.6831,10.5724,45.9476,0.0867,-0.3983,-0.0733,203.5781
19:25:26:448,-0.8067,1.6543,10.9819,46.0166,0.1289,-0.3897,-0.0195,202.6094
19:25:26:473,-0.5818,1.4988,11.0417,45.7252,0.1112,-0.3305,0.0043,202.5156
19:25:26:488,-0.3664,1.2018,11.403,45.7352,0.0208,-0.303,0.011,202.3281
19:25:26:507,-0.2946,0.8835,11.9704,45.9509,-0.0831,-0.2718,0.022,202.3125
19:25:26:527,-0.1675,0.7421,12.0736,45.8578,-0.1588,-0.1808,0.08,202.8594
19:25:26:547,0.7373,0.874,11.9584,45.7826,-0.2602,-0.1051,0.1869,202.9062
19:25:26:570,2.0686,0.929,12.411,45.5849,-0.4074,-0.1576,0.2199,202.7344
19:25:26:590,2.6456,0.6368,14.4245,45.6373,-0.5296,-0.3586,0.0971,201.5938
19:25:26:608,2.2409,0.2369,16.11,45.6453,-0.4038,-0.3971,-0.0574,201.5938
19:25:26:627,1.9487,-0.5315,14.5992,45.6656,0.069,-0.1625,-0.0886,200.6875
19:25:26:647,1.9534,-0.8043,11.8986,45.5969,0.5663,0.0006,0.0116,200.6875
19:25:26:673,2.2504,-0.2345,9.4113,45.5498,0.8191,0.0391,0.1607,200.6875
19:25:26:689,2.5977,0.8524,7.7856,45.6771,0.7788,0.033,0.2132,200.6875
19:25:26:709,2.7173,1.5993,6.9643,45.6433,0.5119,0.0684,0.0751,201.0156
19:25:26:728,2.3557,1.8051,6.6867,45.7186,0.1429,0.1741,-0.2071,201.0156
19:25:26:752,1.3143,1.4821,6.9021,45.564,-0.201,0.317,-0.518,201.1719
19:25:26:772,0.1723,1.0056,6.8997,45.4287,-0.4007,0.4502,-0.7019,201.1719
19:25:26:789,-0.9242,0.7564,6.749,45.7517,-0.4361,0.4575,-0.7184,201.2188
19:25:26:808,-1.7596,0.8139,7.1249,45.941,-0.3506,0.2596,-0.5931,201.2344
19:25:26:827,-1.8577,0.9864,7.4408,46.1076,-0.1521,-0.0024,-0.3696,200.9375
19:25:26:848,-1.3645,1.2544,7.4408,45.962,0.099,-0.2291,-0.1515,200.9375
19:25:26:874,-0.6679,1.5802,7.29,45.9077,0.2572,-0.336,-0.0275,200.5938
19:25:26:889,0.0096,1.9415,7.3834,45.8933,0.2285,-0.2596,0.0153,200.5625
19:25:26:910,1.0223,2.5522,8.056,46.0516,-0.1552,0.2138,-0.0812,200.75
19:25:26:929,1.1372,2.5786,8.7984,46.0788,-0.3317,0.3402,-0.1735,200.7656
19:25:26:949,1.0558,2.5977,9.8133,45.831,-0.4032,0.3152,-0.2278,200.7188
19:25:26:974,0.6248,2.6815,10.7183,45.6903,-0.3677,0.2382,-0.2346,200.7188
19:25:26:989,0.2297,2.7532,11.9106,45.7374,-0.2517,0.1429,-0.1686,200.5156
19:25:27:067,0.5794,2.581,12.4756,45.9037,-0.0373,0.0507,-0.0263,200.5
19:25:27:067,1.0678,2.6336,12.6936,46.0854,0.1649,0.0147,0.1234,201.125
19:25:27:067,1.6304,2.971,12.5163,46.0525,0.2401,0.0861,0.2523,201.2031
19:25:27:068,1.9848,3.5001,12.5115,45.9789,0.193,0.1759,0.292,202.3906
19:25:27:090,1.5586,3.8809,12.2076,45.9221,0.1173,0.2676,0.1924,203.4062
19:25:27:108,0.7301,3.6488,11.4628,45.9756,0.0501,0.273,0.014,203.4062
19:25:27:127,-0.0407,2.8609,11.458,45.9709,-0.0629,0.055,-0.1576,203.8125
19:25:27:147,-0.7038,1.695,12.696,45.8026,-0.1576,-0.3402,-0.2517,203.8125
19:25:27:170,-1.1348,0.4813,14.3097,45.8836,-0.033,-0.7263,-0.2248,203.875
19:25:27:187,-1.7836,-0.4525,14.1562,45.8932,0.3946,-0.7715,-0.0617,203.875
19:25:27:207,-2.0734,-0.419,11.4844,46.0584,0.9071,-0.4551,0.2639,204.0156
19:25:27:227,-1.5586,0.3377,8.1616,46.1088,1.1765,-0.1662,0.6041,204.0156
19:25:27:248,-0.6464,1.0822,6.3658,46.207,1.0146,-0.1075,0.7562,204.3594
19:25:27:270,0.0598,1.7477,6.5432,45.9139,0.5223,-0.1075,0.7092,204.3594
19:25:27:287,0.4645,2.1069,7.7904,45.7398,0.0012,-0.0269,0.5302,204.3594
19:25:27:308,0.2512,1.896,8.5732,45.8637,-0.2877,0.1075,0.2828,204.5156
19:25:27:327,-0.3114,1.252,8.9228,45.789,-0.3079,0.1533,0.0721,204.1406
19:25:27:348,-0.7684,0.7756,8.7912,45.6331,-0.1692,0.1533,0.011,204.1406
19:25:27:369,-0.9051,0.6942,8.0201,45.5769,-0.0159,0.1912,0.0892,203.6406
19:25:27:387,-0.699,0.9003,7.4862,45.3608,0.0403,0.2352,0.2211,203.5781
19:25:27:408,-0.2321,1.4246,7.235,45.276,0.0086,0.3024,0.3409,203.6719
19:25:27:428,0.1053,2.0997,7.2326,45.6077,-0.0684,0.4001,0.3903,203.6719
19:25:27:448,0.3018,2.6527,7.1728,45.6644,-0.1344,0.5174,0.3592,204.2656
19:25:27:470,-0.0766,2.959,7.4145,45.78,-0.2553,0.4441,0.1112,204.3281
19:25:27:488,-0.1484,2.6695,8.5804,45.6418,-0.3183,0.234,0.0214,204.4375
19:25:27:507,-0.1699,2.4203,9.696,45.8016,-0.3109,0.069,-0.0061,204.4531
19:25:27:527,-0.2441,2.3844,10.4791,45.8045,-0.2236,-0.0244,0.0049,203.3594
19:25:27:547,-0.1196,2.3797,10.6322,45.9549,-0.0977,-0.0647,0.0415,203.25
19:25:27:567,0.2922,2.1643,10.6872,45.846,-0.0171,-0.1289,0.0672,202.0781
19:25:27:587,0.6631,1.9032,11.2522,45.9077,-0.0367,-0.2364,0.0641,201.5
19:25:27:608,0.7349,1.6472,11.9465,45.9844,-0.1038,-0.2798,0.0544,201.5
19:25:27:627,0.6511,1.3741,12.2363,45.7951,-0.1576,-0.2156,0.0721,201.25
19:25:27:647,0.7421,1.3382,11.9441,46.1149,-0.1979,-0.1057,0.1429,201.25
19:25:27:668,1.3884,1.5849,11.7359,45.8877,-0.2706,-0.0605,0.2321,200.5469
19:25:27:687,2.3246,1.6161,12.1813,45.8898,-0.4074,-0.1063,0.2028,200.5469
19:25:27:708,2.5089,1.0606,13.6247,45.9783,-0.5718,-0.1759,0.0024,199.5312
19:25:27:727,1.6831,0.4143,15.0278,46.0757,-0.562,-0.1527,-0.2181,199.5312
19:25:27:748,0.8186,-0.5506,14.3575,46.1742,-0.2181,-0.0079,-0.3048,198.8906
19:25:27:771,0.553,-1.0056,12.0111,46.1494,0.2376,0.113,-0.2034,198.8906
19:25:27:787,0.9194,-0.6296,9.9069,46.152,0.4832,0.0745,-0.0177,198.75
19:25:27:808,1.6376,0.055,9.0209,45.8146,0.46,-0.0782,0.08,198.75
19:25:27:827,1.8984,0.6392,9.198,45.8383,0.273,-0.1558,0.0116,198.6719
19:25:27:848,1.4462,0.8883,9.2052,45.8366,0.0892,-0.0153,-0.1594,198.6719
19:25:27:871,0.5052,0.7732,8.3698,45.7146,0.0024,0.2547,-0.3195,198.5781
19:25:27:888,-0.3329,0.699,7.3355,45.5078,-0.036,0.4759,-0.3787,198.5781
19:25:27:908,-0.6607,0.9625,6.6126,45.2373,-0.1087,0.6231,-0.3317,198.5
19:25:27:927,-0.7469,1.4318,6.3802,45.2201,-0.2902,0.7733,-0.2798,198.4844
19:25:27:948,-0.9625,1.8888,6.7681,45.1865,-0.565,0.8827,-0.2743,198.0938
19:25:27:975,-1.0558,2.4419,9.4519,45.279,-0.6218,0.4826,-0.2749,198.0625
19:25:27:989,-0.8644,2.3868,10.0505,45.4958,-0.2737,0.2572,-0.2682,197.7969
19:25:28:008,-0.6057,2.3318,9.3993,45.4578,0.0666,0.2358,-0.2462,197.7656
19:25:28:029,-0.4023,2.3797,8.7314,45.3778,0.1735,0.3109,-0.2217,198.2344
19:25:28:047,-0.2345,2.2887,8.6976,45.427,0.0556,0.3812,-0.1851,198.2812
19:25:28:068,0.0072,2.1069,9.6553,45.3379,-0.0996,0.3561,-0.1264,198.5469
19:25:28:091,0.1842,2.0758,10.8835,45.3678,-0.1161,0.2676,-0.0544,198.5938
19:25:28:109,-0.0311,2.0973,11.19,45.2565,-0.0061,0.2779,0.0232,198.5938
19:25:28:128,-0.0933,2.2337,10.9508,44.9088,0.1209,0.2914,0.1423,199.0781
19:25:28:147,0.1699,2.5065,11.1183,44.6004,0.2309,0.1631,0.2645,199.0781
19:25:28:169,0.5459,2.8226,11.415,44.5382,0.3476,-0.0012,0.3066,199.6719
19:25:28:189,0.5578,2.8801,11.147,44.3782,0.4392,-0.0641,0.2248,199.6719
19:25:28:210,0.0215,2.5331,10.6729,44.372,0.4099,-0.036,0.0672,199.9219
19:25:28:228,-0.7253,2.1739,10.3089,44.1257,0.2694,0.0244,-0.0446,199.9219
19:25:28:248,-1.1922,2.0207,9.8758,43.9024,0.0745,0.0715,-0.0782,200.125
19:25:28:272,-1.1635,1.6759,9.7893,43.5669,-0.1503,-0.0464,-0.0965,200.1562
19:25:28:289,-1.0917,0.8019,11.123,43.6643,-0.328,-0.4429,-0.1497,200.1562
19:25:28:310,-1.4486,0.0191,13.1004,43.5403,-0.2847,-0.8387,-0.1881,200.625
19:25:28:328,-2.1787,-0.498,12.9162,43.3846,0.0574,-0.8069,-0.1142,201.0156
19:25:28:348,-2.5113,-0.4501,10.2778,43.3846,0.4679,-0.4667,0.1032,201.0156
19:25:28:373,-2.3701,0.122,7.5942,43.4033,0.5974,-0.2297,0.3354,201.0938
19:25:28:388,-1.829,0.5339,6.8016,43.2693,0.358,-0.2217,0.4801,201.0938
19:25:28:408,-0.9338,1.0175,7.6493,43.1027,-0.0342,-0.2755,0.5388,200.8906
19:25:28:428,-0.0885,1.2353,8.554,43.2421,-0.2975,-0.3219,0.4685,200.875
19:25:28:449,0.1292,0.8788,9.2387,43.0926,-0.3708,-0.408,0.2596,200.375
19:25:28:475,-0.2225,0.2369,9.7774,42.9356,-0.3421,-0.4337,-0.044,200.3281
19:25:28:489,-1.2281,-0.4549,10.5054,42.731,-0.2804,-0.2645,-0.0073,200.1875
19:25:28:510,-1.4797,-0.4621,9.9667,42.5991,-0.2059,0.0446,0.1381,200.1719
19:25:28:527,-1.2999,-0.0239,9.0281,42.1552,-0.1692,0.3653,0.3464,200.3438
19:25:28:547,-0.9577,0.5985,8.3554,42.1228,-0.1631,0.5754,0.5357,200.3594
19:25:28:567,-0.5243,1.2329,7.5293,41.9246,-0.124,0.6554,0.6658,200.5938
19:25:28:590,-0.2273,1.8338,6.7609,41.6136,-0.091,0.5992,0.6994,201.0938
19:25:28:609,-0.0837,2.3773,6.3849,41.5565,-0.1411,0.449,0.6316,201.0938
19:25:28:629,-0.2441,2.6121,6.7274,41.6156,-0.2706,0.2217,0.4862,200.9531
19:25:28:647,-0.5052,2.3629,8.0249,41.5037,-0.3806,-0.0794,0.3445,200.9531
19:25:28:670,-0.3736,1.9825,9.7606,41.5039,-0.3702,-0.4117,0.2822,199.9375
19:25:28:691,0.3473,1.8888,11.3097,41.7875,-0.2364,-0.7061,0.259,199.9375
19:25:28:709,1.4079,1.4509,12.4373,41.8707,-0.0861,-0.9431,0.1668,199.1562
19:25:28:728,1.9558,0.8258,14.0079,41.8274,-0.0293,-1.0861,-0.0214,199.1562
19:25:28:747,1.6926,0.1316,15.023,41.76,-0.033,-0.8918,-0.2095,199.1406
19:25:28:774,0.9864,-0.51,14.4341,41.6132,-0.0336,-0.3671,-0.2602,199.1875
19:25:28:790,0.8402,-0.4621,12.7558,41.6672,-0.0519,0.1332,-0.1093,199.0156
19:25:28:808,1.6878,0.0096,11.7622,41.5704,-0.1118,0.2767,0.0886,199.0156
19:25:28:828,2.5786,0.364,11.9417,41.5295,-0.1552,0.1057,0.1087,197.8906
19:25:28:848,2.5283,0.1723,12.909,41.2994,-0.1075,-0.1063,-0.0568,197.8906
19:25:28:868,1.7357,-0.364,12.6745,41.2787,0.1008,-0.0684,-0.226,196.1719
19:25:28:889,1.0271,-0.6751,10.558,41.5281,0.3799,0.1771,-0.27,196.1719
19:25:28:908,0.8306,-0.9338,8.152,41.5522,0.5009,0.3011,-0.2107,194.9062
19:25:28:927,1.0199,-0.7564,6.8471,41.436,0.347,0.1888,-0.1075,194.7812
19:25:28:948,1.6232,-0.2994,7.2709,41.1993,0.0073,-0.0855,-0.0409,194.1094
19:25:28:974,2.1476,0.213,10.6944,41.3328,-0.5156,-0.2523,-0.2596,194.0469
19:25:28:990,1.3549,0.0933,10.8787,41.2598,-0.4862,0.0281,-0.4313,193.7656
19:25:29:011,0.3975,-0.1316,9.926,41.1839,-0.3066,0.2767,-0.4917,193.75
19:25:29:030,-0.0646,0.0646,8.8822,41.2379,-0.0843,0.3622,-0.4013,194.2031
19:25:29:047,0.122,0.4741,7.7809,40.9004,0.1014,0.3763,-0.2449,194.25
19:25:29:135,0.4214,1.0295,7.0122,40.7135,0.1906,0.3598,-0.1319,194.6406
19:25:29:135,0.7588,1.6496,6.5958,40.9245,0.1533,0.3366,-0.1032,194.4219
19:25:29:136,1.0702,2.1069,6.4065,40.9972,0.0324,0.2853,-0.1613,194.4219
19:25:29:136,1.0917,2.3366,6.9882,40.7273,-0.1167,0.1417,-0.3018,194.6875
19:25:29:147,0.9218,2.2457,8.1927,40.7015,-0.2144,-0.0452,-0.4594,194.6875
19:25:29:167,0.6488,1.8099,9.0832,40.77,-0.2193,-0.1631,-0.5656,195.2812
19:25:29:188,0.3473,1.4151,9.7606,40.7646,-0.1814,-0.2138,-0.5864,195.2812
19:25:29:207,0.0239,1.3262,10.3615,40.8243,-0.149,-0.1997,-0.5266,195.4688
19:25:29:227,-0.3832,1.4557,10.9508,40.9369,-0.1313,-0.1045,-0.4087,195.4688
19:25:29:247,-0.6583,1.5897,11.5182,40.8057,-0.1026,0.0299,-0.2529,195.4688
19:25:29:267,-0.3879,1.573,11.9249,40.5981,-0.0177,0.1203,-0.0593,195.8438
19:25:29:288,0.1914,1.7046,12.1717,40.8032,0.1246,0.1087,0.1234,196.7344
19:25:29:307,0.8019,2.205,12.3535,40.6285,0.2706,0.0391,0.2321,196.7344
19:25:29:327,1.2114,2.6671,12.0565,40.7888,0.3543,0.022,0.2132,197.3594
19:25:29:348,1.0558,2.7197,11.6928,40.7864,0.3066,0.0513,0.0702,197.3594
19:25:29:371,0.4669,2.4395,11.6186,40.8778,0.1393,0.0623,-0.1014,197.5938
19:25:29:387,-0.134,1.8099,12.131,40.9435,-0.0672,-0.0238,-0.2285,197.5938
19:25:29:408,-0.376,0.9817,13.6463,40.8601,-0.1814,-0.3079,-0.2694,198
19:25:29:427,-0.5554,-0.0287,15.8417,40.9446,-0.0257,-0.6359,-0.2425,198.0312
19:25:29:447,-1.1109,-0.9027,15.2719,41.0329,0.4789,-0.5314,-0.102,199.0312
19:25:29:468,-1.5108,-0.7947,11.5062,41.2415,1.0281,-0.0654,0.1918,199.125
19:25:29:488,-0.5195,0.5363,5.4754,41.1842,0.9401,0.2504,0.6573,200.25
19:25:29:508,0.309,1.2305,5.9662,41.2178,0.3934,0.0159,0.6548,200.3438
19:25:29:527,0.9817,1.5467,7.8574,41.2447,-0.0867,-0.2162,0.4985,201
19:25:29:547,0.9003,1.1157,9.3873,41.4631,-0.2932,-0.2895,0.2217,201.0625
19:25:29:567,0.1771,0.4573,9.8495,41.6877,-0.2456,-0.2205,-0.022,201
19:25:29:588,-0.711,-0.1077,9.5524,41.9163,-0.0831,-0.1051,-0.1209,200.625
19:25:29:607,-1.2784,-0.5746,8.9779,42.0044,0.0702,-0.0073,-0.0562,200.625
19:25:29:628,-1.4246,-0.6272,8.5062,42.2903,0.179,0.0678,0.1381,200.6562
19:25:29:647,-1.1922,0,8.1015,42.6161,0.2486,0.1503,0.3799,200.6562
19:25:29:668,-0.7038,0.7229,7.5775,42.6149,0.303,0.2553,0.565,201.2031
19:25:29:688,-0.2584,1.276,6.6652,42.789,0.3189,0.3775,0.6457,201.2031
19:25:29:707,-0.0885,1.7572,5.9495,42.8971,0.2327,0.4435,0.6286,201.2188
19:25:29:728,-0.122,2.1787,5.8223,43.0359,0.0593,0.3952,0.5369,201.7656
19:25:29:748,-0.2154,2.2887,6.3084,43.0574,-0.1387,0.2413,0.3824,201.7812
19:25:29:770,-0.577,1.9848,7.5102,43.2962,-0.3335,0.0647,0.2083,201.25
19:25:29:787,-0.6081,1.7094,9.1167,43.1721,-0.4649,-0.0599,0.1289,201.25
19:25:29:807,-0.3616,1.6878,10.3735,42.8693,-0.4813,-0.1417,0.1393,199.9375
19:25:29:827,0.4765,1.5658,11.2618,43.1193,-0.4453,-0.1979,0.1607,199.1719
19:25:29:847,1.5491,1.3502,12.1095,43.1844,-0.463,-0.2223,0.1411,199.1719
19:25:29:868,1.9992,1.1587,13.352,43.4571,-0.5644,-0.1625,0.0593,199.3438
19:25:29:888,2.1045,1.0822,14.3169,43.5957,-0.6316,0.0446,0.0043,199.3438
19:25:29:908,2.3653,1.1587,14.0055,43.945,-0.5711,0.3219,0.0232,199.2656
19:25:29:927,2.8992,1.4055,12.9473,43.8471,-0.4441,0.4508,0.0568,199.2656
19:25:29:947,3.6583,1.7142,12.4277,44.0258,-0.3665,0.3256,0.0116,198.3281
19:25:29:969,4.0986,1.5945,13.043,44.3685,-0.3402,0.0715,-0.1869,198.2344
19:25:29:991,1.884,-0.2584,13.6869,44.5839,0.011,-0.0806,-0.7373,196.8906
19:25:30:011,0.7899,-1.1444,11.8196,44.7434,0.3555,0.0892,-0.7483,196.7656
19:25:30:031,0.3544,-1.3884,9.5261,44.7792,0.6017,0.1564,-0.5803,195.7344
19:25:30:047,0.4454,-1.0941,7.9914,44.913,0.6273,0.0098,-0.3787,195.625
19:25:30:069,0.6894,-0.6344,7.7139,44.9769,0.4606,-0.248,-0.2578,195.1875
19:25:30:092,0.8163,-0.4525,8.4392,45.18,0.1979,-0.4117,-0.2449,195.1562
19:25:30:107,0.6033,-0.4382,9.1334,45.2949,-0.0379,-0.3366,-0.2743,194.7969
19:25:30:128,0.134,-0.4143,9.0425,45.4405,-0.1442,-0.1155,-0.2737,194.5156
19:25:30:147,-0.1723,-0.2058,8.6593,45.54,-0.1216,0.0415,-0.2089,194.5156
19:25:30:168,-0.0502,0.0933,7.9962,45.7116,0.0018,0.088,-0.1026,194.4844
19:25:30:189,0.1507,0.4238,7.1417,45.7859,0.1558,0.0568,-0.0373,194.2812
19:25:30:209,0.2536,0.8453,6.3156,45.6638,0.2401,-0.0171,-0.0324,194.2812
19:25:30:228,0.3185,1.2879,6.0547,45.8018,0.1875,-0.0983,-0.0709,194.0156
19:25:30:247,0.28,1.6448,6.4208,46.1521,0.033,-0.1545,-0.1338,194
19:25:30:269,0.2898,1.7836,7.3762,46.2783,-0.124,-0.1942,-0.193,194.6875
19:25:30:290,0.5746,1.9319,8.2717,46.3306,-0.2352,-0.1637,-0.2187,194.7031
19:25:30:308,0.9266,2.1117,9.3826,46.4137,-0.3384,-0.0678,-0.2462,196.3594
19:25:30:328,1.1994,2.0997,10.448,46.5215,-0.4209,0.0776,-0.2957,197.5625
19:25:30:349,0.754,1.8314,11.3551,47.0094,-0.4319,0.1967,-0.3616,197.5625
19:25:30:374,-0.1388,1.4414,12.1119,47.3779,-0.347,0.2456,-0.3531,198.2812
19:25:30:390,-0.4956,1.1611,12.4732,47.4947,-0.1613,0.2541,-0.1723,198.2812
19:25:30:408,-0.2297,1.3621,12.4684,47.4111,0.0586,0.2535,0.1222,198.9219
19:25:30:429,0.5722,2.059,12.5187,47.5931,0.2401,0.2401,0.3842,198.9219
19:25:30:447,1.4916,2.5786,12.0422,47.9377,0.405,0.2169,0.4649,199.2188
19:25:30:468,1.4605,2.5089,10.9217,47.8941,0.4838,0.2004,0.3152,199.2344
19:25:30:492,0.6296,2.0853,9.8566,48.1099,0.3812,0.1521,0.1038,199.3594
19:25:30:510,-0.2297,1.6089,9.7774,47.9254,0.1203,0.0098,-0.0299,199.3594
19:25:30:530,-0.5483,1.0343,10.6849,48.03,-0.4832,-0.507,-0.0049,199.625
19:25:30:548,0.2201,0.0048,16.2775,47.9491,-0.4587,-0.7122,0.0764,199.6406
19:25:30:573,-0.2512,-0.6631,16.3397,48.1066,-0.0043,-0.46,0.168,200.0625
19:25:30:590,-0.9242,-0.6751,12.7558,48.4283,0.6139,0.0782,0.3836,200.0938
19:25:30:607,-0.5985,-0.1603,8.8439,48.2413,0.9987,0.3726,0.6866,200.5625
19:25:30:627,0.1819,0.5171,6.8183,48.5951,0.9932,0.2822,0.8876,201.1875
19:25:30:647,1.2257,1.6041,6.8447,48.7847,0.73,0,0.9297,201.1875
19:25:30:669,2.1212,2.3868,7.7737,48.815,0.4447,-0.2419,0.7458,201.25
19:25:30:689,2.1356,2.1212,8.3842,49.0034,0.2523,-0.3207,0.358,201.25
19:25:30:708,1.2066,0.9601,8.3722,49.3683,0.1191,-0.2535,-0.0305,201.25
19:25:30:728,0.2034,0.2922,8.3818,49.5286,-0.0024,-0.146,-0.2083,200.3594
19:25:30:748,-0.4573,-0.0479,8.6569,49.3323,-0.0806,-0.066,-0.1875,200.3438
19:25:30:772,-0.5722,-0.0167,9.0832,49.4272,-0.0709,0.0037,-0.0391,199.9531
19:25:30:789,-0.376,0.3832,8.8534,49.4226,0.0287,0.1497,0.1411,200.0625
19:25:30:809,-0.0909,1.0391,7.8598,49.3135,0.1478,0.3292,0.2871,200.0625
19:25:30:828,0.1842,1.6878,7.0436,49.3761,0.19,0.4361,0.358,200.0156
19:25:30:848,0.419,2.217,6.5719,49.4764,0.1295,0.4606,0.3586,200.0156
19:25:30:873,0.3449,2.5786,6.5312,49.4228,-0.0159,0.4337,0.2877,199.5156
19:25:30:891,0.079,2.648,7.1178,49.3622,-0.2052,0.3506,0.1875,199.5156
19:25:30:909,-0.0215,2.5427,8.3052,49.5095,-0.3622,0.226,0.1179,197.9531
19:25:30:927,-0.1699,2.5161,9.9619,49.6316,-0.4331,0.0941,0.0727,197.9531
19:25:30:947,0.1029,2.3533,11.7263,49.6217,-0.339,-0.0464,0.0593,196.4219
19:25:30:968,0.3616,2.0614,12.6314,49.7944,-0.0623,-0.1668,0.0379,196.2812
19:25:30:991,0.4167,1.7405,12.9999,49.8597,0.2425,-0.2309,-0.0037,196.0625
19:25:31:011,0.2898,0.7397,11.7455,49.8513,0.3836,-0.0086,0.0195,196.0312
19:25:31:029,0.4071,0.7828,11.2379,49.6019,0.1387,0.1729,0.1674,196.4531
19:25:31:049,1.3119,1.3836,11.5828,49.6657,-0.1802,0.2352,0.3372,196.5
19:25:31:068,2.5738,1.8912,12.7989,49.5497,-0.3708,0.1002,0.35,196.375
19:25:31:090,3.3182,1.8242,13.5817,49.7641,-0.339,-0.0593,0.1509,195.625
19:25:31:108,2.8442,0.9745,13.7324,49.8748,-0.16,-0.1338,-0.1686,195.625
19:25:31:128,1.5682,0.0742,13.1435,49.6805,0.0819,-0.0421,-0.3885,195.5625
19:25:31:199,0.8979,-0.3568,11.0608,49.491,0.3677,0.19,-0.3751,194.7812
19:25:31:200,1.0654,-0.3592,8.4799,49.4222,0.5522,0.3201,-0.234,194.7031
19:25:31:200,1.7142,0.213,6.9045,49.6446,0.4777,0.2175,-0.1228,194.2344
19:25:31:208,2.4203,0.8477,6.8255,49.5688,0.2022,-0.0446,-0.1497,194.1875
19:25:31:228,2.7843,0.941,7.8742,49.5936,-0.1222,-0.3079,-0.3482,193.9531
19:25:31:248,2.2146,0.5387,9.1478,49.3259,-0.3573,-0.3842,-0.6292,193.9531
19:25:31:267,1.0247,0.0646,9.7319,49.1843,-0.4306,-0.2553,-0.8338,193.9844
19:25:31:287,-0.2201,-0.431,9.4161,49.1988,-0.3305,-0.0556,-0.8552,194.1094
19:25:31:307,-0.7732,-0.5267,8.6163,49.2616,-0.1368,0.0855,-0.6579,194.1094
19:25:31:327,-0.4717,0.189,7.5652,49.0132,0.0647,0.1472,-0.3512,193.4844
19:25:31:347,0.146,1.0702,6.871,48.8054,0.1924,0.1228,-0.1307,193.4844
19:25:31:367,0.6775,1.7668,6.2677,48.4949,0.2162,0.0965,-0.0562,192.8438
19:25:31:388,1.0008,2.3844,6.1792,48.2882,0.1051,0.0678,-0.0941,192.8438
19:25:31:407,1.2138,2.8848,6.7274,48.1581,-0.0959,0.025,-0.1924,193.4688
19:25:31:427,1.2951,3.1053,7.5054,47.8724,-0.2853,-0.0147,-0.3164,193.4688
19:25:31:447,1.1444,2.9925,8.8558,47.6566,-0.4258,-0.0696,-0.452,194.1094
19:25:31:468,0.9099,2.7389,10.139,47.5276,-0.4862,-0.0977,-0.5437,194.1719
19:25:31:488,0.4789,2.4467,11.578,47.4737,-0.4642,-0.1173,-0.5742,194.5
19:25:31:508,-0.0431,2.1188,12.8085,47.2027,-0.3231,-0.1051,-0.5192,194.5312
19:25:31:528,-0.4836,1.8769,13.0334,47.2951,-0.0782,-0.0024,-0.3518,195.5469
19:25:31:549,-0.5435,1.884,12.6048,47.2265,0.3152,0.1209,0.1985,195.6562
19:25:31:571,1.4844,2.5857,12.3224,47.0539,0.4484,0.069,0.3494,197.2969
19:25:31:587,1.7548,2.7485,11.7885,47.013,0.518,0.0586,0.2889,197.4688
19:25:31:607,1.2832,2.6264,10.8595,46.7703,0.4868,0.099,0.1326,198.4375
19:25:31:626,0.4478,2.4012,9.7846,46.503,0.3635,0.1087,-0.0049,198.5312
19:25:31:646,-0.0885,2.1021,9.4065,46.3532,0.124,0.0116,-0.0709,198.75
19:25:31:667,-0.0072,1.5778,10.3424,46.2613,-0.1802,-0.2327,-0.0831,198.7656
19:25:31:688,-0.146,0.874,13.0167,45.9459,-0.3555,-0.6249,-0.0892,199.0469
19:25:31:707,-0.7301,0.146,15.4011,45.9509,-0.157,-0.7776,-0.0385,199.0781
19:25:31:728,-1.3262,-0.4549,13.086,45.8058,0.4368,-0.361,0.1631,199.8281
19:25:31:747,-1.4462,-0.0502,8.2286,45.4471,0.9199,0.1185,0.4569,199.8281
19:25:31:767,-1.1396,0.6727,5.2502,45.2324,0.8668,0.1759,0.6927,200.9688
19:25:31:788,-0.122,1.7166,5.4108,44.9989,0.3995,-0.0666,0.8246,200.9688
19:25:31:807,1.1779,2.6384,7.2972,44.8542,-0.0764,-0.3812,0.7611,201.875
19:25:31:827,1.7333,2.5714,9.3873,44.6423,-0.3378,-0.5944,0.449,201.7969
19:25:31:848,1.1755,1.8338,10.9675,44.56,-0.4105,-0.5748,0.0715,201.7969
19:25:31:867,0.1675,0.8955,11.0871,44.3719,-0.3286,-0.3219,-0.1668,201.2188
19:25:31:887,-0.9434,0.1029,10.3065,43.8592,-0.1674,-0.0165,-0.1997,201.2188
19:25:31:907,-1.2329,-0.1244,9.2868,43.7728,-0.0244,0.2156,0.0079,201.1562
19:25:31:927,-0.6081,0.5626,8.8056,43.7152,0.08,0.3164,0.328,201.1562
19:25:31:947,0.3353,1.5467,8.2884,43.7226,0.1765,0.4044,0.551,201.3594
19:25:31:968,0.8091,2.2744,7.156,43.4746,0.2504,0.5229,0.5931,201.3594
19:25:31:989,0.9338,2.7676,6.3036,43.3798,0.2254,0.5327,0.5137,201.6094
19:25:32:009,0.9553,3.0909,6.1457,43.1242,0.1118,0.4166,0.3842,201.6406
19:25:32:027,0.941,3.134,6.658,42.8613,-0.0519,0.248,0.2346,201.2188
19:25:32:048,0.6488,2.5953,9.361,42.9492,-0.314,-0.0458,0.0079,201.1719
19:25:32:074,0.7229,2.4514,10.6968,42.6035,-0.2523,-0.1833,-0.0238,199.7812
19:25:32:089,1.1204,2.2313,11.4796,42.5081,-0.099,-0.3011,-0.0513,198.5469
19:25:32:108,1.4028,1.9705,12.3153,42.4711,0.0012,-0.3317,-0.11,198.5469
19:25:32:128,1.439,1.5658,13.153,42.2331,0.0391,-0.248,-0.1716,198.4531
19:25:32:147,1.2138,0.9984,12.7822,41.9895,0.0721,-0.0507,-0.1936,198.5938
19:25:32:168,1.0223,0.9027,11.5397,41.6886,-0.0012,0.1649,-0.1326,198.625
19:25:32:191,1.5132,1.1372,10.9313,41.4696,-0.2559,0.2077,-0.0293,198.7656
19:25:32:209,2.1643,1.1085,11.8531,41.1973,-0.6072,0.0593,-0.0257,198.7812
19:25:32:228,2.3964,0.699,14.0581,41.0421,-0.8766,-0.1405,-0.1405,197.8125
19:25:32:247,1.9008,-0.0598,15.6861,40.7553,-0.8216,-0.1955,-0.2737,197.7188
19:25:32:269,1.051,-1.0295,15.0302,40.5405,-0.3799,-0.0959,-0.2914,196.375
19:25:32:291,0.7301,-1.5897,12.7176,40.3606,0.19,-0.0037,-0.1026,196.3594
19:25:32:309,1.3741,-1.1779,10.3065,40.3269,0.5944,-0.0403,0.2059,195.5625
19:25:32:328,2.3773,-0.1747,8.7625,40.571,0.7471,-0.1723,0.4013,195.375
19:25:32:347,3.1149,0.8668,7.8646,40.7447,0.7245,-0.2975,0.3549,195.375
19:25:32:368,3.2201,1.4749,7.1919,41.0206,0.5693,-0.3109,0.0696,195.5
19:25:32:392,2.5283,1.3741,6.7083,41.4248,0.2902,-0.1674,-0.339,195.5
19:25:32:409,1.4004,0.8477,6.9428,41.6588,-0.069,0.08,-0.6738,195.9219
19:25:32:429,0.4238,0.577,7.1106,41.6992,-0.3341,0.3506,-0.7972,195.9219
19:25:32:448,-0.0455,0.7445,7.1776,41.9334,-0.43,0.4948,-0.7342,196.2656
19:25:32:469,0.1077,1.1946,7.4647,41.9464,-0.3934,0.4789,-0.5858,196.2656
19:25:32:491,0.5889,1.6256,7.4623,41.9701,-0.2889,0.4447,-0.4606,196.1875
19:25:32:508,0.9769,2.059,7.1249,41.9774,-0.2089,0.4282,-0.419,196.1875
19:25:32:528,1.0487,2.4706,7.0412,41.9658,-0.2187,0.358,-0.4569,196.4844
19:25:32:548,0.8139,2.7389,7.5389,41.9538,-0.3085,0.2462,-0.5363,196.5
19:25:32:569,0.2994,2.2576,9.9476,42.0471,-0.3848,0.0452,-0.6035,196.8906
19:25:32:592,0.0861,1.9487,11.135,41.9891,-0.3244,0.0324,-0.5375,196.9375
19:25:32:610,-0.0622,1.7716,12.2267,42.0022,-0.2285,0.1075,-0.4117,196.4844
19:25:32:628,-0.3832,1.5323,12.708,42.213,-0.0843,0.292,-0.2474,196.4531
19:25:32:646,-0.7086,1.6089,12.023,42.2927,0.0556,0.5681,-0.0263,196.2344
19:25:32:667,-0.419,1.963,11.7503,42.2277,0.1332,0.6567,0.2083,196.2031
19:25:32:691,0.297,2.2265,12.2076,42.0932,0.2144,0.5192,0.3512,197.25
19:25:32:708,0.8091,2.2768,12.399,42.1128,0.3683,0.306,0.3561,197.3438
19:25:32:729,0.8139,2.1476,12.3057,41.9881,0.4948,0.1252,0.259,198.6875
19:25:32:748,0.4932,1.9992,11.7646,42.2634,0.5064,0.0886,0.1368,198.8125
19:25:32:768,-0.0167,1.8649,11.1661,42.3317,0.4007,0.1497,0.0232,199.7344
19:25:32:790,-0.5865,1.5084,10.6226,42.364,0.1906,0.2621,-0.0513,199.75
19:25:32:808,-0.3329,1.3884,11.1159,42.6637,0.0043,0.1662,-0.0269,200.5312
19:25:32:828,-0.4813,0.7301,12.2602,43.0779,0.0348,-0.1136,-0.0446,201.6406
19:25:32:848,-0.8692,0.364,12.3105,43.4028,0.2914,-0.2083,-0.0202,201.6406
19:25:32:869,-1.2138,0.4717,10.0098,43.6179,0.6108,-0.014,0.1069,202.7812
19:25:32:891,-1.4127,1.0199,7.3116,43.7047,0.7819,0.0751,0.2376,202.7812
19:25:32:908,-1.3214,1.6902,6.2581,43.9663,0.628,-0.0489,0.2889,203.4219
19:25:32:928,-0.9218,2.138,6.9787,44.2106,0.2388,-0.135,0.2614,203.4219
19:25:32:947,-0.632,1.9487,8.0728,44.7672,-0.1191,-0.0904,0.1533,203.1094
19:25:32:968,-0.6727,1.4414,8.5062,44.75,-0.281,-0.0525,0.0287,203.1094
19:25:32:991,-0.8354,1.0271,8.985,44.9664,-0.3225,-0.1051,-0.0379,202.4062
19:25:33:009,-0.9864,0.6559,9.4184,45.276,-0.3396,-0.1173,-0.0342,202.3281
19:25:33:027,-1.2903,0.5483,9.5596,45.477,-0.3317,-0.0061,0.0611,202.0625
19:25:33:047,-1.3645,0.7445,9.1262,46.0816,-0.2627,0.1729,0.234,202.0312
19:25:33:069,-0.4549,1.7859,7.6493,46.2182,0.0464,0.2706,0.5492,202.0938
19:25:33:089,-0.3784,2.3605,6.7705,46.6889,0.1472,0.2162,0.543,202.1094
19:25:33:111,-0.1101,2.6599,6.7585,46.688,0.113,0.124,0.4893,202.1719
19:25:33:128,0.1244,2.9183,7.0843,46.9934,0.0244,0.0593,0.3769,202.1875
19:25:33:147,-0.0694,2.8944,7.4719,47.0541,-0.0867,0.0214,0.2114,202.2656
19:25:33:167,-0.3999,2.636,8.3889,47.2977,-0.2352,-0.0226,0.055,202.2812
19:25:33:192,-0.6057,2.3677,9.9715,47.716,-0.3641,-0.091,-0.025,201.9844
19:25:33:268,-0.7373,2.1715,11.2881,47.9223,-0.3696,-0.1381,-0.0458,201.9531
19:25:33:269,-0.6153,1.7668,12.4062,48.2196,-0.2767,-0.2071,-0.0507,201.5781
19:25:33:269,-0.2393,1.1061,12.8157,48.4275,-0.1106,-0.2902,-0.0305,201.5469
19:25:33:270,-0.1747,0.9147,12.6936,48.7487,0.0452,-0.3799,0.0006,201.4844
19:25:33:291,-0.1484,0.9075,12.8827,49.0788,0.0843,-0.4551,0.0293,201.3594
19:25:33:307,-0.0502,0.8859,12.8252,49.4898,0.0281,-0.3891,0.0751,201.3594
19:25:33:328,0.3138,1.0941,12.8109,49.8481,-0.099,-0.2248,0.1393,200.4844
19:25:33:347,0.8644,1.1539,12.9688,50.1458,-0.2126,-0.0843,0.1698,200.4844
19:25:33:367,1.1683,1.075,13.0454,50.1967,-0.2028,-0.0476,0.1374,199.25
19:25:33:389,1.0175,0.7995,12.9951,50.4205,-0.0428,-0.0819,0.0593,199.25
19:25:33:407,0.6057,0.3855,11.9297,50.4335,0.2291,-0.0208,0.0116,198.2812
19:25:33:427,0.3114,0.201,10.0505,50.7486,0.4551,0.1264,0.0599,198.2812
19:25:33:448,0.4501,0.3568,8.4775,50.745,0.5156,0.2028,0.1716,197.9219
19:25:33:467,1.0822,0.687,7.6875,50.9199,0.405,0.1729,0.2584,197.9219
19:25:33:488,1.6639,0.9721,7.7378,51.1226,0.1716,0.0776,0.2413,197.9219
19:25:33:507,2.0518,1.0534,8.4272,51.372,-0.0751,-0.0177,0.1203,197.9219
19:25:33:527,1.9295,0.862,9.2315,51.5969,-0.2242,-0.066,-0.0574,198.0156
19:25:33:548,1.2473,0.6894,9.4783,51.8484,-0.2419,-0.0654,-0.1949,198.0156
19:25:33:567,0.6631,0.6679,9.3538,52.2304,-0.1319,-0.1118,-0.2193,198.125
19:25:33:589,0.1866,1.2233,8.1712,52.2709,0.2303,-0.1753,-0.0318,198.1406
19:25:33:608,0.2656,1.6113,6.9715,52.6199,0.3512,-0.1484,0.0562,198
19:25:33:627,0.5411,2.1332,6.3826,52.7417,0.325,-0.1643,0.099,197.9844
19:25:33:646,0.9601,2.4993,6.6628,52.9084,0.1637,-0.1374,0.0874,197.6406
19:25:33:667,1.252,2.9542,7.4097,52.895,-0.0928,0.0421,-0.0232,197.6094
19:25:33:689,1.2927,3.0763,7.8718,53.2261,-0.2682,0.1826,-0.171,197.5781
19:25:33:708,1.2808,2.9231,8.2813,53.3505,-0.3091,0.1545,-0.306,197.5781
19:25:33:727,1.3454,2.7843,9.1167,53.4793,-0.3048,0.0202,-0.4044,197.4219
19:25:33:748,1.6089,2.8155,10.3834,53.7788,-0.2584,-0.1338,-0.471,197.4062
19:25:33:767,1.5491,3.1747,11.578,54.035,-0.146,-0.1643,-0.5498,196.9531
19:25:33:789,0.4789,3.0547,11.5564,54.1701,-0.1148,0.0922,-0.6835,196.7969
19:25:33:807,-0.2584,2.4562,11.4987,54.1546,-0.0324,0.1509,-0.6933,196.7969
19:25:33:828,-0.3784,1.8075,11.8723,54.2084,0.1368,-0.0373,-0.529,197.2188
19:25:33:847,-0.2273,1.4366,12.5378,54.1622,0.273,-0.0354,-0.3097,197.2188
19:25:33:868,-0.4286,1.695,11.7144,54.397,0.2089,0.4502,-0.1167,197.5312
19:25:33:888,-0.0215,2.3486,10.4982,54.4593,0.3366,0.507,0.0397,197.5312
19:25:33:907,-0.3066,2.5184,10.0552,54.6048,0.1698,0.5809,0.0501,197.5156
19:25:33:927,-0.7732,2.4012,10.005,54.729,-0.0641,0.5931,0.0263,197.5156
19:25:33:947,-0.9721,1.6615,10.4575,54.8152,-0.2498,0.408,0.0208,197.4688
19:25:33:967,-0.9769,0.6368,12.0518,55.0905,-0.3274,0.0238,0.0586,197.4688
19:25:33:989,-1.5347,0.1699,13.7324,55.3497,-0.2254,-0.1655,0.157,197.8438
19:25:34:007,-1.9056,0.3185,11.7646,55.6445,0.1429,0.1081,0.3537,197.8438
19:25:34:027,-1.9032,0.8067,8.001,55.5379,0.4532,0.3366,0.5204,198.6719
19:25:34:047,-1.6519,1.2927,6.1409,55.5704,0.3708,0.1161,0.5797,198.75
19:25:34:072,-1.197,1.6065,6.9284,55.5378,0.0214,-0.3018,0.5534,199.9531
19:25:34:090,-0.7995,1.4892,8.8271,55.6044,-0.2669,-0.5669,0.4545,200.0781
19:25:34:110,-0.0933,0.5674,8.2167,55.9944,-0.2107,-0.3244,0.2456,201.2969
19:25:34:129,0.0909,0.2034,7.8503,56.0581,-0.2834,-0.234,0.1674,201.4219
19:25:34:147,-0.0502,0.0598,9.0688,56.0641,-0.518,-0.2077,0.1319,201.8594
19:25:34:168,-0.1412,0.3568,10.8332,56.0538,-0.6542,-0.1063,0.1851,201.9062
19:25:34:192,0.0455,0.929,11.3886,56.1856,-0.4844,0.1032,0.2938,201.75
19:25:34:208,0.4645,1.4773,10.2203,56.3988,-0.1063,0.2944,0.3708,201.7188
19:25:34:228,0.7158,1.9848,8.566,56.4322,0.212,0.3366,0.372,201.4844
19:25:34:247,0.7971,2.2935,7.5676,56.4316,0.3158,0.2278,0.3152,201.4531
19:25:34:268,0.9266,2.3964,7.29,56.2155,0.2462,0.0898,0.2248,201.1719
19:25:34:292,1.008,2.4395,7.4551,56.4158,0.091,-0.0324,0.1051,201.1406
19:25:34:310,0.7899,2.2361,8.3794,56.5077,-0.1124,-0.1472,-0.0446,200.2188
19:25:34:328,0.4238,1.8314,9.5716,56.4508,-0.2651,-0.2358,-0.1594,199.0781
19:25:34:348,-0.0814,1.3741,10.6729,56.5222,-0.317,-0.2926,-0.2004,199.0781
19:25:34:368,-0.1555,1.0558,11.7383,56.3987,-0.2944,-0.3347,-0.1387,198.2812
19:25:34:393,0.2465,0.9027,12.4325,56.4766,-0.2162,-0.3561,-0.0269,198.2812
19:25:34:410,0.443,0.8907,12.6024,56.325,-0.113,-0.3396,0.0501,197.8438
19:25:34:430,0.3138,0.7708,12.4517,56.5291,-0.0269,-0.2816,0.1057,197.8438
19:25:34:448,0.3138,0.6416,11.7335,56.4785,0.0061,-0.1362,0.201,197.3594
19:25:34:470,0.7804,0.9194,10.8547,56.4629,-0.0348,-0.0397,0.3146,197.3594
19:25:34:491,1.4629,1.3238,10.4408,56.6756,-0.124,-0.1069,0.3201,196.4844
19:25:34:509,1.6687,0.984,11.1661,56.585,-0.3121,-0.1802,0.1564,196.4844
19:25:34:527,1.6567,0.7684,12.6434,56.6612,-0.5235,-0.0977,-0.0409,195.7969
19:25:34:549,1.0056,-0.0335,13.2347,56.7695,-0.4148,0.0293,-0.1613,195.7188
19:25:34:571,0.2489,-0.6248,11.8699,57.0365,-0.1032,0.2248,-0.1918,195.4219
19:25:34:592,0.2489,-0.5506,10.4288,56.9879,0.0922,0.2737,-0.0709,195.3906
19:25:34:611,1.6567,0.3808,9.7726,56.9255,0.0574,-0.0898,0.0635,195.6094
19:25:34:629,1.9896,0.6464,10.625,56.8683,-0.0556,-0.1845,-0.0696,195.625
19:25:34:648,1.4988,0.5267,10.4288,56.7143,-0.0928,-0.0116,-0.2669,195.9688
19:25:34:669,0.4765,0.2082,9.4902,56.8089,-0.0525,0.2046,-0.4062,196
19:25:34:693,-0.2827,0.1555,8.5612,56.9151,0.0324,0.3005,-0.3806,196.0312
19:25:34:708,-0.4621,0.4765,7.7234,56.7103,0.1564,0.2676,-0.2272,196.0312
19:25:34:727,-0.1244,0.8596,6.993,56.6103,0.2669,0.1521,-0.0599,195.7812
19:25:34:747,0.4286,1.3454,6.7872,56.5571,0.2816,0.0202,0.0409,195.7656
19:25:34:770,0.9864,1.896,7.2039,56.8143,0.1729,-0.0171,0.0666,195.125
19:25:34:791,1.2281,2.1236,7.6947,56.8854,0.0208,0.0721,0.0086,195.0625
19:25:34:809,1.0702,2.2241,8.5086,56.8436,-0.0898,0.1509,-0.0727,194.8594
19:25:34:829,0.5483,1.9199,9.2605,56.6566,-0.1142,0.1991,-0.1399,195.1562
19:25:34:847,0.1842,1.506,9.775,56.5493,-0.0709,0.2419,-0.1289,195.1562
19:25:34:869,0.6559,1.5108,10.3543,56.6473,0.0562,0.201,-0.0055,195.1406
19:25:34:892,0.6679,1.319,9.3921,56.6407,0.2792,0.0904,0.1283,195.1406
19:25:34:908,0.8764,2.1547,9.6984,56.6895,0.2963,-0.025,0.2272,195.1719
19:25:34:928,0.8835,2.5137,10.1964,56.3059,0.0629,0.1936,0.2144,195.1719
19:25:34:948,0.8453,2.5786,10.8906,56.2298,-0.1203,0.438,0.1796,195.8594
19:25:34:968,1.0774,2.7413,11.2834,56.3681,-0.0861,0.4649,0.1655,195.8594
19:25:34:992,1.1109,2.8083,11.3623,56.5616,0.0837,0.3201,0.0837,196.5
19:25:35:010,0.833,2.5427,11.3886,56.4109,0.2132,0.1979,-0.0574,196.5
19:25:35:027,-0.012,2.0279,11.2786,56.3282,0.2217,0.2346,-0.1924,196.5625
19:25:35:048,-1.2018,1.6974,11.0919,56.1696,0.1405,0.3842,-0.2456,196.5625
19:25:35:069,-1.9825,1.6304,10.8045,55.9309,0.0782,0.4679,-0.1784,196.5156
19:25:35:092,-1.9705,1.2736,10.8715,55.9865,0.0977,0.3066,-0.0476,196.5156
19:25:35:110,-1.7094,0.6751,11.6689,56.088,0.1778,-0.0055,0.0696,196.6562
19:25:35:128,-0.941,0.7923,9.8997,56.034,0.4368,-0.1833,0.2498,196.6719
19:25:35:148,-0.766,0.8572,8.918,55.9899,0.2743,-0.19,0.1888,196.75
19:25:35:168,-1.0056,0.565,9.5716,56.2523,-0.1124,-0.2266,0.0666,196.75
19:25:35:192,-1.2066,0.5889,11.2546,56.336,-0.4697,-0.2138,0.0134,196.4688
19:25:35:207,-1.1133,0.6679,12.4517,56.3465,-0.6347,-0.0971,0.0281,196.4375
19:25:35:229,-1.1563,0.7923,13.4309,56.5102,-0.6903,0.1692,0.0391,195.9531
19:25:35:248,-1.3549,0.8692,13.4716,56.6214,-0.576,0.5302,0.0831,195.9219
19:25:35:268,-1.4677,0.7588,12.076,56.7241,-0.1716,0.7391,0.2016,195.5625
19:25:35:292,-1.4028,0.7756,9.6673,56.9124,0.4148,0.6683,0.3873,195.5156
19:25:35:351,-1.0869,1.0008,7.2302,56.8041,0.9187,0.3983,0.5901,195.7812
19:25:35:352,-0.498,1.494,5.6333,56.7488,1.1734,0.0733,0.7526,196.1719
19:25:35:352,0.3018,2.2217,5.2023,56.7029,1.1392,-0.1448,0.8063,196.1719
19:25:35:370,0.7636,2.7532,5.3916,56.6171,0.9193,-0.1662,0.7098,196.1562
19:25:35:390,0.874,2.8131,5.8534,56.5591,0.617,-0.022,0.5064,196.1562
19:25:35:409,0.5411,2.4251,6.3371,56.5982,0.3115,0.1399,0.273,195.8906
19:25:35:428,0.0335,1.9582,7.0675,56.5886,0.0751,0.1619,0.1222,195.8906
19:25:35:449,-0.1172,1.6854,7.8503,56.5291,-0.0745,0.0702,0.0874,195.7031
19:25:35:468,0.1077,1.5299,8.7027,56.2418,-0.1527,-0.0849,0.0947,195.7031
19:25:35:491,0.6392,1.4749,9.9452,56.2258,-0.1814,-0.2938,0.0757,195.5312
19:25:35:508,0.7373,1.3406,10.9579,56.4376,-0.201,-0.3861,-0.0183,195.5156
19:25:35:527,0.3185,1.075,11.6545,56.7326,-0.2449,-0.2932,-0.135,195.0469
19:25:35:547,-0.3497,0.6296,11.5205,56.8824,-0.2657,-0.1081,-0.19,195.0469
19:25:35:568,-1.1468,0.4023,10.7901,56.8201,-0.2908,0.0409,-0.1344,194.3125
19:25:35:592,-1.1013,0.5841,10.2562,56.6853,-0.3824,0.0819,0.0513,194.25
19:25:35:609,-0.1053,1.0271,10.3711,56.8433,-0.5272,0.0134,0.2456,193.2031
19:25:35:629,1.051,1.3047,11.2929,57.2698,-0.6591,-0.1203,0.2895,193.1094
19:25:35:649,1.6065,1.2544,12.5809,57.3108,-0.7037,-0.2413,0.1552,192
19:25:35:668,1.1779,0.8258,13.3543,57.1382,-0.6163,-0.248,-0.0709,191.875
19:25:35:687,0.1531,-0.4071,12.775,57.1576,-0.1478,-0.1319,-0.2126,191.2344
19:25:35:710,0.2225,-0.376,11.3001,57.1209,0.1429,-0.1106,-0.1075,191.1562
19:25:35:727,0.5913,0.0742,9.8662,57.3484,0.2999,-0.1167,-0.0202,190.9062
19:25:35:748,1.2736,0.4932,8.8487,57.5016,0.3354,-0.1558,-0.0006,190.875
19:25:35:768,1.494,0.6057,8.0249,57.3964,0.2443,-0.1283,-0.1026,190.7188
19:25:35:793,1.1444,0.7899,8.0058,57.6035,0.0281,-0.0525,-0.2517,190.7188
19:25:35:809,0.778,0.8163,8.0967,57.8685,-0.1649,0.0672,-0.3476,190.9219
19:25:35:828,0.5913,0.9242,7.9962,58.0551,-0.1173,0.0006,-0.3464,191.2031
19:25:35:848,0.5506,0.9817,7.1632,58.3277,0.102,-0.1912,-0.2779,191.2031
19:25:35:868,0.7469,1.1611,6.1552,58.4654,0.2456,-0.3854,-0.1918,190.7188
19:25:35:888,1.1133,1.7142,6.1002,58.4908,0.1344,-0.5137,-0.1326,190.7188
19:25:35:908,1.5945,2.2744,7.0962,58.7924,-0.1466,-0.5082,-0.1478,190.0625
19:25:35:928,1.8888,2.4945,8.3937,58.9279,-0.3714,-0.4306,-0.248,190.0625
19:25:35:947,1.8553,2.2696,9.9356,59.0581,-0.4416,-0.3604,-0.3781,190.2812
19:25:35:968,1.5634,1.8793,10.8332,58.8403,-0.408,-0.1802,-0.4655,190.2812
19:25:35:987,1.1755,1.5993,11.068,59.0469,-0.347,0.0562,-0.4618,190.625
19:25:36:010,0.7875,1.6687,11.5708,59.0833,-0.2993,0.2016,-0.3781,190.6719
19:25:36:028,0.5171,1.9319,12.3296,59.2557,-0.1863,0.2511,-0.2449,190.8438
19:25:36:048,0.6033,2.193,12.0254,59.3016,0.0354,0.2999,-0.0861,190.8438
19:25:36:069,1.0989,2.473,11.5851,59.2704,0.2511,0.248,0.0409,191.2656
19:25:36:093,1.707,2.6982,11.5134,59.535,0.3885,0.1332,0.0702,191.2969
19:25:36:109,1.7333,2.7078,11.0824,59.6666,0.4484,0.1228,-0.0342,191.9375
19:25:36:128,0.8859,2.394,10.4192,59.9465,0.3744,0.2132,-0.204,192
19:25:36:149,-0.6368,1.9128,10.1629,59.9399,0.1148,0.1081,-0.2779,192.625
19:25:36:174,-0.8524,1.817,10.2634,60.0133,0.0153,-0.0916,-0.2169,192.6875
19:25:36:193,-0.1986,1.3143,11.1063,60.1089,-0.1277,-0.3476,-0.1668,193.1094
19:25:36:209,-0.1196,0.3401,13.529,60.4612,-0.2468,-0.6005,-0.19,193.1562
19:25:36:227,-0.9338,-0.1053,14.3958,60.7296,-0.1173,-0.4746,-0.1515,193.7969
19:25:36:248,-1.8123,-0.213,11.2546,60.757,0.2963,-0.0953,0.0513,193.8594
19:25:36:268,-1.8123,0.1484,7.6684,60.9586,0.5968,-0.0922,0.3488,194.7031
19:25:36:291,-0.5363,1.0869,7.2494,61.006,0.5278,-0.5327,0.5834,194.7969
19:25:36:308,1.0869,1.8458,8.9085,61.185,0.2407,-0.846,0.5797,195.2969
19:25:36:328,1.5778,1.7142,10.3977,61.4225,-0.0421,-0.7049,0.3024,195.3594
19:25:36:348,1.0128,1.0391,10.6514,61.3595,-0.1765,-0.2749,-0.0195,195.3594
19:25:36:368,-0.0502,0.4621,9.6266,61.2579,-0.1118,0.1106,-0.1949,195.4219
19:25:36:388,-0.754,0.1747,8.0513,61.199,0.0513,0.2773,-0.1698,195.4219
19:25:36:410,-0.6894,0.3999,6.9404,61.2868,0.1454,0.2401,-0.0067,196
19:25:36:429,-0.3018,0.929,7.0938,61.3946,0.0977,0.1368,0.1423,196
19:25:36:447,0.0455,1.4725,7.7234,61.5598,-0.0092,0.1802,0.2046,196.5625
19:25:36:468,0.2225,1.8769,7.5556,61.7133,-0.0641,0.3854,0.2004,196.5625
19:25:36:493,0.146,2.2241,6.8518,61.7637,-0.0782,0.4875,0.1582,196.5625
19:25:36:509,0.134,2.5499,6.9715,61.8291,-0.1509,0.3751,0.1155,197.0312
19:25:36:527,0.268,2.648,7.7019,61.8938,-0.295,0.2816,0.0647,197.2656
19:25:36:547,0.2201,2.4658,8.4703,61.9535,-0.4319,0.2712,-0.0134,197.2656
19:25:36:568,-0.1579,2.1188,9.6745,62.1744,-0.5345,0.2535,-0.0819,196.5
19:25:36:591,-0.5554,1.8482,11.1709,62.3202,-0.5583,0.2327,-0.0825,196.5
19:25:36:608,-0.6535,1.7022,12.0087,62.3842,-0.427,0.2199,-0.0018,195.8906
19:25:36:629,-0.3664,1.6496,12.3751,62.2629,-0.2541,0.2175,0.0837,195.8281
19:25:36:648,0.0215,1.3238,12.6482,62.0926,-0.1796,0.2541,0.1087,196.0156
19:25:36:670,-0.2345,0.0144,12.9808,62.2905,-0.2908,0.2651,0.0965,196.0469
19:25:36:692,-0.1436,-0.0766,13.6582,62.4714,-0.303,0.1558,0.2346,196.1562
19:25:36:709,0.5339,0.0885,13.7806,62.6468,-0.19,0.0586,0.3964,196.1719
19:25:36:727,1.2951,0.3688,13.5123,62.4425,-0.0617,-0.0024,0.452,195.7969
19:25:36:747,1.64,0.3975,13.4022,62.2508,0.0293,-0.0641,0.358,195.75
19:25:36:768,1.2353,-0.1077,13.2562,62.1177,0.1417,-0.0886,0.1863,195.25
19:25:36:787,0.7851,-0.8067,12.2507,62.1257,0.3445,-0.025,0.1142,194.8594
19:25:36:809,0.7445,-1.1109,10.3663,62.0412,0.5577,0.0941,0.1936,194.8594
19:25:36:829,1.1228,-0.6775,8.5325,61.8828,0.6359,0.1216,0.3054,194.6875
19:25:36:847,1.6089,0.0814,7.7067,61.7807,0.5791,-0.0464,0.3378,194.6875
19:25:36:868,1.762,0.577,7.587,61.6575,0.4105,-0.1655,0.2144,194.5781
19:25:36:887,1.2664,0.4525,7.6038,62.0098,0.2175,-0.1368,0.0037,194.5781
19:25:36:910,0.8019,0.6248,7.5293,61.9789,0.1216,-0.0977,-0.1283,194.2344
19:25:36:930,0.1292,0.4119,6.9906,62.0507,0.1271,-0.1026,-0.1863,194.2344
19:25:36:949,-0.0383,0.6823,7.0436,62.019,0.1051,-0.1875,-0.1668,194.2188
19:25:36:969,0.2752,0.821,7.6971,62.1783,0.0947,-0.3225,-0.0904,193.875
19:25:36:992,0.6153,1.118,7.9843,62.2404,0.0825,-0.2633,-0.0263,193.875
19:25:37:009,0.7684,1.628,7.7402,62.4007,0.1093,-0.1619,0.0018,193.0781
19:25:37:028,1.0726,2.1882,7.6014,62.3583,0.1313,-0.149,-0.0012,192.1875
19:25:37:049,1.5179,2.5714,7.8048,62.0145,0.0971,-0.1655,-0.0476,192.1875
19:25:37:068,1.8099,2.8729,8.2837,62.0762,0.0104,-0.1368,-0.1552,191.9375
19:25:37:092,1.9032,2.8322,8.7577,62.1459,-0.0654,-0.1032,-0.295,191.9375
19:25:37:110,1.8458,2.624,9.2339,62.2804,-0.1454,-0.0812,-0.4197,191.5938
19:25:37:129,1.5969,2.3127,10.5054,62.4124,-0.2504,-0.0861,-0.5204,191.5625
19:25:37:148,1.0582,1.7812,11.8771,62.7857,-0.2999,0.0177,-0.5498,191.1719
19:25:37:170,0.1675,1.5873,11.5253,62.5092,0.0037,0.6047,-0.1912,191.1406
19:25:37:192,0.4095,2.2744,10.6442,62.6253,0.1319,0.7758,0.0611,191.3438
19:25:37:209,0.874,2.7389,10.3376,62.6485,0.1478,0.7672,0.1741,191.3594
19:25:37:229,0.9577,2.6527,10.2658,62.402,0.1264,0.6432,0.1338,191.7812
19:25:37:247,0.7421,2.3821,10.3065,62.4019,0.1179,0.4245,0.0263,191.8281
19:25:37:267,0.0048,1.9582,10.2203,62.3054,0.0794,0.2169,-0.0782,192.0781
19:25:37:292,-0.7301,1.7644,9.8949,62.3526,-0.0715,0.1283,-0.1118,192.1719
19:25:37:309,-0.6799,1.3214,10.5532,62.2371,-0.3464,-0.0568,-0.0825,192.1719
19:25:37:328,-0.4836,0.5746,13.4548,62.5691,-0.5882,-0.4306,-0.0782,192.4531
19:25:37:348,-1.008,-0.0215,16.5144,62.56,-0.4985,-0.6053,-0.0556,192.4531
19:25:37:416,-1.774,-0.3784,14.7787,62.6311,0.0983,-0.2871,0.1234,193.25
19:25:37:417,-1.762,0.0191,10.072,62.7884,0.7477,0.0684,0.4319,193.25
19:25:37:417,-0.9817,1.0487,6.4328,62.8203,0.8992,0.0531,0.6823,194.3594
19:25:37:430,0.0981,2.0566,5.8439,62.8778,0.5412,-0.2523,0.7251,194.3594
19:25:37:449,1.1157,2.4084,7.8263,62.8632,0.0153,-0.5473,0.5498,194.375
19:25:37:467,1.4677,1.9008,10.1294,62.7821,-0.3231,-0.5742,0.2297,194.8906
19:25:37:492,0.833,1.0965,10.2443,62.6033,-0.3384,-0.3231,-0.0843,194.4375
19:25:37:509,-0.1986,0.6368,8.6091,62.4577,-0.1558,-0.1448,-0.2541,194.4375
19:25:37:529,-0.6942,0.376,7.6708,62.4902,-0.066,-0.179,-0.248,194.125
19:25:37:547,-0.7947,0.256,8.001,62.5453,-0.1301,-0.2236,-0.1435,194.125
19:25:37:569,-0.5913,0.5985,8.6091,62.5743,-0.1985,-0.1216,-0.0116,194.2656
19:25:37:590,-0.2874,1.0439,8.6115,62.5927,-0.1582,0.066,0.0922,194.2656
19:25:37:608,-0.0407,1.5491,8.2597,62.5299,-0.0684,0.2376,0.1472,194.3438
19:25:37:628,0.1507,1.8242,7.6205,62.6925,0.0202,0.3128,0.1515,194.3594
19:25:37:647,-0.0096,2.0447,7.2996,62.7011,0.0257,0.2883,0.1167,194.3438
19:25:37:669,0.0263,2.2002,7.6229,62.8904,-0.0788,0.2401,0.0959,194.3438
19:25:37:692,-0.443,1.9343,9.8279,62.836,-0.3922,0.2816,0.0226,193.4844
19:25:37:710,-0.9099,1.6304,11.3862,62.9057,-0.4331,0.3366,0.036,193.3906
19:25:37:728,-1.1228,1.2185,12.1286,62.964,-0.3115,0.3958,0.1258,192.3281
19:25:37:746,-0.8524,1.0702,11.9273,63.1792,-0.1588,0.4569,0.2486,192.2188
19:25:37:767,-0.4597,1.0104,11.5708,63.1088,-0.1295,0.482,0.3042,192.125
19:25:37:791,-0.443,0.9817,11.6521,62.9566,-0.2303,0.4838,0.2761,192.625
19:25:37:807,-0.4143,0.687,12.0589,62.881,-0.3659,0.4862,0.2352,192.625
19:25:37:828,-0.2225,0.3736,11.8101,62.9031,-0.4416,0.4618,0.2156,192.8594
19:25:37:847,0.2584,0.4669,11.8914,62.9436,-0.4875,0.2792,0.1973,192.8594
19:25:37:868,1.0487,0.498,12.763,62.9406,-0.5021,-0.0269,0.1454,192.5312
19:25:37:893,1.209,0.0814,13.8356,62.8666,-0.4361,-0.2608,-0.0067,192.5312
19:25:37:909,0.7588,-0.5865,14.2328,62.6993,-0.2621,-0.2804,-0.1674,192.1719
19:25:37:928,0.3592,-1.3119,13.2538,62.9771,0.0312,-0.1271,-0.1985,192.1406
19:25:37:947,0.3879,-1.3908,11.4389,63.2733,0.35,0.0617,-0.0666,192.125
19:25:37:969,0.8453,-0.8644,9.1095,63.3191,0.5125,0.2364,0.0635,191.8438
19:25:37:993,1.6065,-0.1819,7.57,63.3628,0.5162,0.1038,0.1069,191.8281
19:25:38:010,2.1117,0.3257,7.156,63.4037,0.43,-0.2462,0.0067,191.5469
19:25:38:028,2.0088,0.6296,7.8072,63.582,0.2376,-0.4978,-0.2291,190.9219
19:25:38:048,1.4725,0.6655,8.3961,63.4754,0.0281,-0.4716,-0.5039,190.9219
19:25:38:069,0.4406,0.2536,8.6258,63.4376,-0.1264,-0.2358,-0.7434,190.0781
19:25:38:092,-0.6344,-0.2201,8.0895,63.2753,-0.2101,0.1081,-0.843,190.0781
19:25:38:108,-1.2353,-0.2225,7.5341,63.0631,-0.259,0.3415,-0.7483,189.3594
19:25:38:127,-1.398,0.0622,7.1871,63.0511,-0.2688,0.4148,-0.5693,189.2969
19:25:38:147,-0.8429,0.3855,7.3714,63.0136,-0.2688,0.4148,-0.4123,188.75
19:25:38:168,-0.2489,0.9099,7.3762,62.8451,-0.3335,0.5174,-0.3702,188.6875
19:25:38:193,-0.1412,0.8402,7.3283,62.76,-0.204,0.273,-0.4258,188.7969
19:25:38:210,0.3999,1.1348,8.7697,62.8258,-0.2395,0.0513,-0.4337,188.8125
19:25:38:228,0.5985,1.252,9.6888,62.8679,-0.2645,0.0513,-0.4166,189.1562
19:25:38:247,0.4454,1.3573,10.4288,62.7511,-0.2724,0.0715,-0.4325,189.1875
19:25:38:267,0.2898,1.2497,10.9938,62.482,-0.2315,0.0244,-0.4197,189.1406
19:25:38:287,0.0144,1.1659,11.7287,62.5645,-0.1716,-0.047,-0.3732,189.5781
19:25:38:309,0.2874,1.4438,12.1956,62.7235,-0.0935,-0.0147,-0.2254,189.5781
19:25:38:327,0.6846,1.4629,11.8986,62.809,0.0202,0.0623,-0.1045,190.9375
19:25:38:347,1.1444,1.5945,12.035,62.8011,0.0531,0.1069,-0.0709,190.9375
19:25:38:368,1.0319,1.4773,12.8994,62.7908,-0.0122,0.2315,-0.1533,191.0625
19:25:38:387,0.1005,0.4765,12.8827,62.828,-0.0788,0.5418,-0.273,192.6719
19:25:38:409,-0.2874,0.3927,12.3105,63.0541,-0.0403,0.6884,-0.1723,192.6875
19:25:38:427,-0.51,1.0702,11.257,63.2637,0.1631,0.5015,-0.0214,193.5469
19:25:38:447,-0.8115,1.5778,10.3881,63.2494,0.3103,0.204,-0.0006,193.5625
19:25:38:468,-0.8644,1.561,9.9236,63.1303,0.2614,-0.0098,-0.0507,194.2188
19:25:38:487,-1.1563,0.9912,10.8045,63.1906,0.1148,-0.2462,-0.1533,194.2344
19:25:38:509,-1.8458,-0.0574,11.9417,63.0748,0.0947,-0.4074,-0.2169,195.0938
19:25:38:527,-2.2911,-0.4789,11.214,63.28,0.3152,-0.4001,-0.0751,195.8906
19:25:38:548,-2.3509,-0.309,9.2291,63.2864,0.5235,-0.3329,0.1637,195.8906
19:25:38:568,-1.9487,0.1819,7.9244,63.2693,0.4862,-0.358,0.3696,196.6875
19:25:38:592,-1.2688,0.7421,8.3028,63.197,0.2504,-0.4899,0.4752,196.6875
19:25:38:608,-0.6511,0.8716,9.009,63.2548,0.014,-0.595,0.4465,197.0312
19:25:38:628,-0.4071,0.6679,10.273,63.1863,-0.1374,-0.7013,0.3121,197.0312
19:25:38:648,-0.4262,0.6081,11.7287,63.3082,-0.1539,-0.7232,0.1533,197.25
19:25:38:668,-0.6775,0.3185,11.7885,63.3607,-0.0336,-0.4807,-0.0043,197.2656
19:25:38:693,-1.2832,-0.1819,10.0792,63.2816,0.146,-0.0794,-0.1051,197.5781
19:25:38:712,-1.6783,-0.2922,6.9284,63.2591,0.2639,0.2529,0.091,197.6094
19:25:38:729,-1.4318,0.146,6.5886,63.1729,0.2028,0.2181,0.2578,197.6875
19:25:38:747,-1.0367,0.6607,6.3347,63.26,0.1674,0.1069,0.3867,197.6875
19:25:38:768,-0.711,0.9266,6.1792,63.0638,0.1429,-0.0812,0.4392,198
19:25:38:791,-0.4167,1.2832,6.5862,63.0629,0.1619,-0.4728,0.4649,198.4688
19:25:38:807,-0.1053,1.8099,7.4551,63.2493,0.2468,-0.9254,0.449,198.4688
19:25:38:827,-0.0742,1.9343,8.3459,63.3654,0.1472,-0.9096,0.3219,198.2656
19:25:38:847,-0.3975,1.7094,9.3586,63.5485,-0.2321,-0.3323,0.149,198.2656
19:25:38:868,-0.941,1.0654,10.1629,63.6444,-0.6829,0.4447,0.0189,198.2344
19:25:38:892,-1.0439,0.3473,10.692,63.7568,-0.9364,0.868,0.0354,197.4844
19:25:38:909,-0.6129,0.067,11.7694,63.9034,-0.8851,0.6817,0.1674,197.4062
19:25:38:929,0.2058,0.0861,12.8827,64.184,-0.5827,0.1649,0.284,197
19:25:38:947,0.7564,-0.122,13.0597,64.1516,-0.2327,-0.2321,0.2798,197
19:25:38:968,0.7636,-0.3473,12.7558,64.2109,-0.0928,-0.3048,0.2181,197.2031
19:25:38:991,0.7277,-0.577,12.4134,64.0716,-0.2052,-0.1197,0.2107,197.2031
19:25:39:009,1.0917,-0.3903,12.8874,63.935,-0.361,-0.0098,0.2688,197.2031
19:25:39:028,1.7094,-0.0526,13.6606,63.9923,-0.3201,-0.0867,0.3011,196.5312
19:25:39:048,2.0542,-0.0598,13.6726,63.8588,-0.0843,-0.1729,0.2395,196.5312
19:25:39:068,1.9199,-0.3999,12.6793,63.8212,0.1961,-0.1332,0.135,195.6719
19:25:39:093,1.8362,-0.5794,10.5939,63.7487,0.3964,0.011,0.0782,195.6719
19:25:39:109,1.8793,-0.4334,8.6713,63.8288,0.3928,0.0611,0.0385,195.125
19:25:39:128,1.8362,-0.2177,8.729,63.5084,0.1478,-0.0782,-0.0556,195.125
19:25:39:147,1.8147,-0.4119,10.6944,63.5457,-0.146,-0.2449,-0.1985,194.8125
19:25:39:168,1.2808,-0.7732,12.1119,63.5037,-0.2517,-0.1918,-0.3433,194.7812
19:25:39:191,0.4813,-0.9505,11.645,63.4431,-0.1319,0.0452,-0.3977,194.125
19:25:39:207,-0.012,-0.7086,10.0313,63.6363,0.0727,0.2559,-0.336,194.0625
19:25:39:229,-0.3832,0.2946,7.5894,63.5497,0.2688,0.4074,-0.1497,193.375
19:25:39:248,-0.5076,0.7708,6.8183,63.576,0.2828,0.416,-0.077,193.3125
