Time,Acc_X,Acc_Y,Acc_Z,Meg,Gyr_X,Gyr_Y,Gyr_Z,Ore
10:18:28:450,-0.8931,2.2935,9.5955,50.0611,-1.3714,-0.1246,-0.1228,20.1562
10:18:28:451,-0.8378,2.3677,9.1669,50.1663,-0.0977,0.066,0.0006,47.4062
10:18:28:464,-0.644,2.3916,9.4424,50.1063,-0.11,0.0153,0.0031,47.4062
10:18:28:484,-0.6511,2.3342,9.6386,49.6641,-0.1148,0.0122,-0.0238,52.7344
10:18:28:505,-0.7828,2.2481,9.7319,49.4977,-0.1026,0.0312,-0.0525,52.7344
10:18:28:523,-0.7923,2.2265,9.6649,49.8882,-0.0721,0.036,-0.0574,52.7344
10:18:28:541,-0.7205,2.2337,9.5477,49.9473,-0.0635,0.0342,-0.0568,52.7344
10:18:28:560,-0.7158,2.2026,9.4591,50.0338,-0.0996,0.0599,-0.069,52.7344
10:18:28:581,-0.7923,2.2313,9.7965,50.0635,-0.1558,0.0794,-0.0831,52.7344
10:18:28:599,-0.8163,2.2313,10.2132,50.0947,-0.1448,0.0538,-0.0831,52.7344
10:18:28:618,-0.6942,2.2146,10.1486,49.9556,-0.0269,0.0018,-0.0776,52.7344
10:18:28:644,-0.5937,2.2528,9.8638,50.1246,0.0678,-0.0269,-0.0782,52.7344
10:18:28:659,-0.6105,2.2552,9.5836,50.0827,0.0702,0.0202,-0.0916,52.7344
10:18:28:679,-0.8115,2.2624,9.3251,49.816,0.0208,0.0654,-0.1045,52.7344
10:18:28:699,-0.862,2.2648,9.3945,49.5693,-0.0538,0.0586,-0.1008,52.7344
10:18:28:720,-0.7923,2.2935,9.4041,49.5376,-0.1136,0.0641,-0.0916,52.7344
10:18:28:739,-0.8115,2.3055,9.4472,49.4253,-0.1387,0.0513,-0.0935,52.7344
10:18:28:759,-0.8306,2.2839,10.0672,49.3509,-0.1344,0.0043,-0.088,52.7344
10:18:28:779,-0.8548,2.3151,10.2395,49.4969,-0.047,-0.0092,-0.0745,52.7344
10:18:28:799,-0.929,2.2887,9.8351,49.4794,0.066,0.0134,-0.0715,52.7969
10:18:28:819,-0.8955,2.2576,9.4998,49.7053,0.1161,0.0202,-0.0647,52.7969
10:18:28:840,-0.8524,2.4227,9.198,49.6686,0.1173,0.0293,-0.0617,52.9062
10:18:28:858,-0.9362,2.5089,9.0449,49.9113,0.0696,0.0293,-0.0739,53.0469
10:18:28:880,-1.0104,2.5208,9.3634,49.6738,0.0012,0.014,-0.0819,53.0469
10:18:28:899,-1.197,2.4921,9.4567,49.6912,-0.0281,0.0171,-0.0794,53.2031
10:18:28:919,-1.3836,2.3844,9.6075,49.7357,-0.0165,-0.011,-0.0696,53.2031
10:18:28:941,-1.1468,2.4873,9.6123,49.4743,0.0055,0.0122,-0.0373,53.4062
10:18:28:959,-0.8979,2.7006,9.2387,49.4194,0.0024,0.0843,-0.0275,53.4062
10:18:28:980,-0.8091,2.7197,9.1549,49.3263,-0.0275,0.0385,-0.0605,53.6094
10:18:28:998,-0.9099,2.5594,9.4328,49.1491,-0.0501,-0.0617,-0.1124,53.6094
10:18:29:019,-1.118,2.4562,9.6529,48.9234,-0.0593,-0.0825,-0.1582,53.7656
10:18:29:039,-1.2377,2.3174,9.7367,49.0597,-0.0434,-0.0495,-0.1833,53.7812
10:18:29:058,-1.276,2.4012,9.6864,49.0805,0.0024,-0.036,-0.1949,53.9375
10:18:29:080,-0.9936,2.8083,9.2483,48.9629,0.0751,-0.0605,-0.1881,53.9531
10:18:29:101,-0.1149,2.8011,8.9204,49.0814,-0.0104,-0.1637,-0.1448,54.0938
10:18:29:119,-0.3066,2.8394,9.8518,49.0327,-0.1539,-0.2083,-0.1942,54.0781
10:18:29:141,-0.5387,2.8442,10.1342,49.0247,-0.2132,-0.0745,-0.2107,51.3125
10:18:29:159,-0.498,2.7221,9.9308,49.2577,-0.1527,-0.022,-0.2107,51.2969
10:18:29:179,-0.6488,2.569,9.7798,49.4248,-0.0299,-0.1197,-0.2523,51.4531
10:18:29:198,-0.7828,2.4084,9.7989,49.2911,0.0678,-0.2431,-0.2785,51.4844
10:18:29:219,-0.984,2.2361,9.7606,49.2288,0.1051,-0.2724,-0.2761,51.5938
10:18:29:240,-1.0726,2.0255,9.7176,49.2509,0.0996,-0.2065,-0.2456,51.6719
10:18:29:259,-1.0439,2.1858,9.6386,49.4325,0.0684,-0.0941,-0.1802,51.7344
10:18:29:279,-0.9123,2.4849,9.7056,49.4352,0.0354,-0.0189,-0.1136,51.75
10:18:29:299,-0.8812,2.5786,9.6697,49.4378,0.0312,-0.0043,-0.0825,52.0625
10:18:29:319,-0.7277,2.394,9.5907,49.3705,0.0489,-0.0654,-0.0819,52.0156
10:18:29:344,-0.364,2.0997,9.7032,49.3459,0.0617,-0.1686,-0.088,52.4375
10:18:29:360,-0.0502,2.1571,9.8037,49.3608,0.0446,-0.2065,-0.1008,52.9375
10:18:29:381,-0.0335,2.461,9.6984,49.4693,-0.0263,-0.1497,-0.1295,52.9375
10:18:29:399,-0.2728,2.5041,9.8399,49.5171,-0.1106,-0.1075,-0.1588,53.3438
10:18:29:419,-0.4143,2.3294,10.0385,49.365,-0.113,-0.1075,-0.1454,53.3438
10:18:29:442,-0.4023,2.4299,10.0816,49.5967,-0.0324,-0.113,-0.0855,53.7969
10:18:29:459,-0.2752,2.7772,9.629,49.6599,0.077,-0.0831,-0.0226,53.7969
10:18:29:481,0.0383,2.971,9.0425,49.7292,0.1326,-0.0666,0.0043,54.4375
10:18:29:500,0.201,3.1101,8.6761,49.5914,0.0727,-0.069,-0.0202,54.4375
10:18:29:520,0.1292,3.0885,8.9803,49.6093,-0.0788,-0.0971,-0.0709,54.9219
10:18:29:544,0.1555,2.7341,9.6888,49.3045,-0.2107,-0.1258,-0.0941,54.9844
10:18:29:561,0.2249,2.5137,10.1677,49.2543,-0.223,-0.0849,-0.0855,55.2969
10:18:29:583,0.285,2.6671,9.8949,49.2093,-0.1203,0.0024,-0.0568,55.3594
10:18:29:601,0.553,2.9351,8.8678,48.8712,0.0318,0.0202,-0.0751,55.5469
10:18:29:621,0.6823,2.9351,9.0257,48.5901,-0.0562,-0.0238,-0.1234,55.5469
10:18:29:645,0.6105,2.782,9.4496,48.4349,-0.1521,-0.0501,-0.1747,55.7812
10:18:29:661,0.5363,2.6647,9.7439,48.3649,-0.1564,-0.0574,-0.1967,55.7969
10:18:29:680,0.5171,2.6767,9.6529,48.3298,-0.0898,-0.0458,-0.182,56.1094
10:18:29:699,0.4693,2.8178,9.4065,48.4664,-0.0586,-0.014,-0.1729,56.1406
10:18:29:719,0.5243,2.8059,9.4161,48.3099,-0.0898,0.0006,-0.1698,56.4062
10:18:29:746,0.5506,2.7341,9.7223,48.2095,-0.1429,-0.0006,-0.1826,56.4219
10:18:29:760,0.352,2.7078,10.2993,48.2547,-0.1649,-0.0049,-0.2138,56.4688
10:18:29:780,0.1436,2.7293,10.4336,48.3472,-0.1081,0.0385,-0.2309,56.4688
10:18:29:799,-0.0096,2.8083,10.2395,48.2976,-0.014,0.0654,-0.234,56.5938
10:18:29:819,-0.0407,2.983,10.3065,48.347,0.0379,0.0556,-0.2248,56.5938
10:18:29:846,0.0837,3.0428,10.3881,48.3902,0.033,0.099,-0.2242,56.8125
10:18:29:861,-0.1388,2.959,10.4575,48.3897,0,0.1735,-0.2541,56.9219
10:18:29:882,-0.6823,2.9542,10.7542,48.2849,-0.0067,0.2004,-0.2694,56.9219
10:18:29:900,-0.7134,2.9231,10.5867,48.3536,0.0672,0.1997,-0.2175,57.125
10:18:29:920,-0.5243,2.7556,10.4934,48.481,0.1619,0.1307,-0.1765,57.125
10:18:29:942,-0.4382,2.4371,10.3161,48.3309,0.2266,0.0428,-0.182,57.5469
10:18:29:961,-0.6416,1.9247,10.1557,48.3054,0.2358,-0.0324,-0.2156,57.5469
10:18:29:981,-1.0798,1.427,10.3711,48.2656,0.1991,-0.1069,-0.223,57.9375
10:18:30:000,-1.3023,1.2664,10.6681,48.0724,0.1655,-0.0947,-0.1484,57.9375
10:18:30:019,-1.2903,1.4462,10.4288,47.9991,0.1845,0.0397,-0.0336,58.2812
10:18:30:044,-1.3119,1.8051,9.6769,48.1161,0.295,0.1686,0.0501,58.3125
10:18:30:062,-1.2664,2.0566,8.5349,48.1234,0.4642,0.2126,0.0812,58.75
10:18:30:081,-1.2114,2.3174,7.6421,48.0908,0.562,0.1368,0.0745,58.7969
10:18:30:101,-0.9601,2.3151,7.3738,48.2417,0.5088,-0.0183,0.0367,59.2344
10:18:30:122,-0.8043,1.4342,8.3339,48.4259,0.044,-0.1338,-0.135,59.2812
10:18:30:145,-0.7636,1.0582,9.0616,48.4042,-0.2315,-0.1356,-0.1478,59.7344
10:18:30:161,-0.6966,1.2377,10.3161,48.5546,-0.4581,-0.1668,-0.1051,59.7812
10:18:30:180,-0.5818,1.6256,11.0608,48.7427,-0.5314,-0.077,-0.0525,60.2188
10:18:30:199,-0.486,1.9319,11.0752,48.7517,-0.3946,0.0214,-0.0391,60.2656
10:18:30:219,-0.352,1.9681,10.2682,48.8256,-0.1032,0.0275,-0.0562,60.625
10:18:30:240,-0.419,1.9705,9.7104,48.6967,0.146,-0.0867,-0.0782,60.6719
10:18:30:263,-0.4262,2.2457,9.2124,48.794,0.2468,-0.1411,-0.0666,61.1406
10:18:30:279,-0.4382,2.4658,8.7745,48.5803,0.2364,-0.0922,-0.0611,61.1875
10:18:30:300,-0.5602,2.4849,8.3554,48.7344,0.1741,-0.025,-0.088,61.4219
10:18:30:319,-0.8091,2.3749,8.3459,48.5244,0.0837,-0.0159,-0.11,61.4219
10:18:30:344,-0.9912,2.4873,8.6785,48.4897,0.0134,-0.0293,-0.0819,61.2656
10:18:30:436,-1.1539,3.189,8.6521,48.4509,0.0342,0.0232,-0.0037,61.1875
10:18:30:436,-0.9577,3.8617,8.1592,48.2631,0.1277,0.0629,0.0574,61.1875
10:18:30:437,-0.4765,4.0555,7.3953,48.4455,0.1643,-0.0067,0.0165,61.4531
10:18:30:442,0.1675,3.7301,7.5676,48.228,0.0006,-0.2388,-0.1435,61.4531
10:18:30:442,-0.055,2.7676,9.4591,48.3248,-0.3372,-0.5082,-0.3916,61.7344
10:18:30:458,-0.9697,1.9056,12.0736,48.316,-0.6298,-0.5363,-0.5284,61.7344
10:18:30:479,-1.2425,1.5897,13.2108,48.488,-0.6133,-0.2266,-0.4264,61.7969
10:18:30:499,-0.8477,1.9657,12.3942,48.4102,-0.2871,0.069,-0.2291,61.7969
10:18:30:519,-0.4286,2.4802,11.5035,48.2174,0.0996,0.0275,-0.1289,61.9531
10:18:30:540,-0.201,2.8298,10.7327,48.482,0.3604,-0.1026,-0.1381,61.9531
10:18:30:558,-0.3951,2.9901,10.1749,48.4594,0.4502,-0.1527,-0.2077,62.1406
10:18:30:580,-0.5746,3.0404,9.9188,48.6196,0.3885,-0.1167,-0.2456,62.1562
10:18:30:598,-0.1579,2.8561,9.6577,48.6596,0.234,-0.047,-0.2254,62.375
10:18:30:620,0.2752,2.6504,9.641,48.4099,0.0348,-0.0513,-0.2474,62.3906
10:18:30:643,0.5985,1.6328,11.3049,48.4644,-0.2767,-0.2584,-0.3861,62.4844
10:18:30:659,0.862,1.4151,12.0494,48.5175,-0.3292,-0.1833,-0.3518,62.4844
10:18:30:679,0.7469,1.5275,11.6474,48.7509,-0.2254,0.0324,-0.3103,62.4219
10:18:30:699,0.2898,1.7596,10.6968,48.681,0.022,0.1692,-0.2669,62.4062
10:18:30:719,0.3329,2.0183,9.1358,48.5769,0.2865,0.19,-0.1704,63.0312
10:18:30:739,0.6583,2.4203,8.1784,48.3745,0.4056,0.0635,-0.0843,63.0938
10:18:30:759,0.9075,2.892,7.8574,48.3412,0.35,-0.0373,-0.0531,64.0938
10:18:30:779,0.8596,3.2154,7.7354,48.3012,0.2052,-0.0134,-0.0898,64.1875
10:18:30:799,0.6488,3.2536,7.8861,47.8337,0.0623,0.0104,-0.1607,64.5312
10:18:30:818,0.4621,3.1125,8.176,47.6631,-0.0281,-0.0073,-0.2187,64.5781
10:18:30:840,0.2922,3.0476,8.3483,47.5793,-0.0837,-0.014,-0.2401,65.0156
10:18:30:858,0.256,3.1364,8.4607,47.5894,-0.1216,-0.0147,-0.2248,65.5781
10:18:30:879,0.2827,3.2106,8.6976,47.4172,-0.1478,-0.0122,-0.2083,65.5781
10:18:30:900,0.1914,3.1986,9.1143,47.332,-0.182,0.0232,-0.204,66.25
10:18:30:919,0.0933,3.0739,9.574,47.106,-0.1851,0.0947,-0.1863,66.25
10:18:30:940,-0.0431,3.0021,9.3682,47.2635,-0.0819,0.1619,-0.1509,67.0938
10:18:30:960,-0.0526,3.0141,8.9037,47.6021,0.0764,0.1026,-0.1038,67.0938
10:18:30:979,0.2946,3.1675,8.7171,47.7353,0.1704,-0.0367,-0.0434,67.7031
10:18:30:999,0.4813,3.3589,8.5181,47.8078,0.1417,-0.0666,-0.0257,67.7031
10:18:31:019,0.2704,3.4164,8.3985,47.6465,0.0031,0.0055,-0.055,67.9844
10:18:31:039,0.0144,3.4283,8.8032,47.7155,-0.1747,0.0415,-0.0611,67.9844
10:18:31:060,-0.1316,3.3278,10.0265,47.8301,-0.2749,0.0195,-0.0281,68.1562
10:18:31:080,-0.055,3.3613,10.6609,48.0553,-0.1936,0.0513,0.033,68.1719
10:18:31:099,0.055,3.699,10.2443,48.2339,0.0049,0.1209,0.0825,68.5469
10:18:31:120,0.1364,3.9048,9.5572,48.3604,0.1356,0.1484,0.0874,68.5938
10:18:31:143,-0.4836,3.5504,10.1151,48.3445,-0.0458,0.1674,0.0159,69.0469
10:18:31:160,-0.8596,3.1675,10.8523,48.5422,-0.1209,0.2095,0.022,69.0938
10:18:31:179,-1.4892,2.8681,11.269,48.622,-0.0965,0.2865,0.0531,69.5
10:18:31:199,-1.9896,2.904,11.2379,48.9718,-0.0275,0.3897,0.1576,69.5312
10:18:31:218,-2.0495,3.2393,10.5628,49.0711,0.0629,0.4795,0.3128,69.8281
10:18:31:240,-1.7189,3.5216,9.4735,48.8584,0.1552,0.4722,0.4355,69.8594
10:18:31:262,-1.1468,3.2345,9.0114,48.7576,0.1478,0.2889,0.4642,70.0156
10:18:31:279,-0.7181,1.9367,10.0768,48.639,-0.0116,0.0128,0.3964,70.0312
10:18:31:299,-1.1994,0.7875,11.9465,48.8228,-0.1888,-0.1063,0.347,70.125
10:18:31:318,-2.1188,0.5483,12.6817,48.5286,-0.1338,0.0819,0.463,70.125
10:18:31:340,-1.9008,1.4079,10.8117,48.3207,0.2382,0.438,0.7672,70.2031
10:18:31:361,-0.8115,2.5403,8.2406,48.0614,0.6212,0.5308,1.0079,70.0469
10:18:31:381,0.1292,3.4522,6.9715,48.1012,0.711,0.3005,0.9938,70.0469
10:18:31:400,0.1819,3.4834,7.3522,48.3469,0.5015,0.0629,0.7452,69.875
10:18:31:419,-0.6703,2.272,8.4464,48.2892,0.1759,0.0556,0.43,69.875
10:18:31:441,-1.5467,1.252,8.9994,48.1899,-0.0764,0.1979,0.3066,69.7656
10:18:31:464,-1.7524,1.1468,9.5261,48.122,-0.2187,0.2621,0.408,69.7656
10:18:31:481,-1.2066,1.6926,9.5572,48.1812,-0.2437,0.3195,0.5876,69.4375
10:18:31:500,-1.0343,2.3103,9.4807,48.4032,-0.193,0.3732,0.6652,69.4375
10:18:31:519,-1.1611,2.6288,8.8941,48.5504,-0.088,0.4502,0.6707,68.5156
10:18:31:542,-1.5586,2.6097,8.3124,48.4105,0.0171,0.4649,0.6725,68.5156
10:18:31:563,-1.7644,2.5762,8.1111,48.1979,0.0812,0.3879,0.7373,67.625
10:18:31:581,-1.5012,2.8418,8.2525,48.2035,0.0819,0.3201,0.854,67.5312
10:18:31:600,-0.7421,3.2847,8.5469,48.2712,-0.0165,0.3488,0.9499,66.7031
10:18:31:619,-0.0933,3.6655,9.0784,48.0962,-0.1649,0.3757,0.9285,66.625
10:18:31:642,0.055,3.591,9.7678,47.9708,-0.2059,0.2431,0.628,64.7812
10:18:31:663,-0.3927,3.2393,10.6514,47.8393,-0.1167,0.2309,0.5461,64.5938
10:18:31:683,-0.4573,2.8131,11.3647,47.5957,-0.0531,0.3922,0.5363,62.8906
10:18:31:700,-1.1635,2.1428,11.5517,47.72,-0.0916,0.7061,0.6255,62.7188
10:18:31:719,-0.9003,2.6958,11.4509,47.9282,-0.168,0.8711,0.755,61.9375
10:18:31:739,0.3257,4.0292,10.0911,47.7702,-0.0977,0.7648,0.7758,61.8594
10:18:31:764,-0.1771,4.6062,9.8758,47.9264,0.1802,0.0599,0.496,60.75
10:18:31:779,-0.7038,2.8202,11.0943,47.8069,0.284,-0.5266,0.1973,60.6406
10:18:31:799,-0.3544,2.7939,11.6833,47.8678,0.2535,-0.5785,0.1356,59.1562
10:18:31:818,-0.2465,2.394,11.7311,47.9863,0.1936,-0.5217,-0.014,59.0156
10:18:31:839,-1.0343,1.3956,11.3192,48.1543,0.2773,-0.5369,-0.1576,57.3281
10:18:31:858,-1.2281,1.4004,10.1246,47.9544,0.3659,-0.3659,-0.0305,55.2344
10:18:31:883,-1.008,2.4371,8.796,47.8322,0.3806,-0.0641,0.27,55.2344
10:18:31:907,-0.4884,3.4714,7.5006,47.8301,0.4019,0.0983,0.4691,53.2031
10:18:31:919,-0.1268,3.8139,6.7681,47.5329,0.3708,0.0018,0.4587,53.2031
10:18:31:940,-0.1101,3.4546,7.1991,47.7534,0.1881,-0.1918,0.3066,51.7969
10:18:31:964,-0.2584,2.8944,8.2214,47.6546,-0.0458,-0.2627,0.1582,51.7969
10:18:31:979,-0.2273,2.5929,9.1095,47.5315,-0.2596,-0.1668,0.1167,50.3125
10:18:31:999,-0.2994,2.5953,10.4216,47.4005,-0.4765,-0.0147,0.1582,50.3125
10:18:32:019,-0.3951,2.8178,10.5987,47.4727,-0.5669,0.2132,0.2138,48.3281
10:18:32:039,-0.7612,2.9231,9.8303,47.4438,-0.4771,0.3518,0.2083,48.3281
10:18:32:058,-1.1204,3.0141,8.3267,47.599,-0.339,0.4319,0.1906,47.6875
10:18:32:081,-1.4844,3.1579,7.8072,47.643,-0.3103,0.3836,0.2236,47.6875
10:18:32:099,-1.4653,3.2656,8.2525,47.3625,-0.3256,0.2608,0.3323,47.7656
10:18:32:120,-1.2497,3.3135,8.5277,47.4119,-0.2553,0.1826,0.4276,47.7812
10:18:32:139,-1.2568,3.2249,8.5493,47.4496,-0.124,0.0935,0.4624,48.1719
10:18:32:161,-1.1563,2.8609,8.5612,47.3981,0.0018,0.0006,0.496,48.2031
10:18:32:181,-1.1444,2.581,8.4918,47.3615,0.0672,0.1283,0.6817,47.5312
10:18:32:199,-1.2377,3.4259,8.164,47.2085,-0.014,0.2352,0.8283,47.4531
10:18:32:218,-1.0534,3.8402,8.7841,47.0415,-0.0971,0.2688,0.9334,46.7656
10:18:32:239,-0.8163,3.8354,9.6027,47.1309,-0.0745,0.2963,0.9554,46.7031
10:18:32:258,-0.8091,3.6559,9.3658,47.2473,0.0702,0.419,0.9297,46.4688
10:18:32:278,-1.0152,3.4307,8.9133,47.1884,0.2059,0.4545,0.9132,46.4531
10:18:32:299,-1.1779,3.1962,9.1095,47.0594,0.2431,0.3335,0.937,45.9844
10:18:32:319,-1.0965,2.9207,9.7654,46.9987,0.2175,0.2376,1.0012,45.9375
10:18:32:339,-1.1037,2.6288,10.2251,47.1758,0.1747,0.3354,1.072,45.3438
10:18:32:360,-1.4294,2.5041,10.4862,47.3811,0.1319,0.5357,1.16,44.5156
10:18:32:380,-1.9367,3.0045,10.4432,47.7647,0.1368,0.73,1.306,44.5156
10:18:32:399,-2.083,3.4642,8.8726,47.991,0.2156,0.9273,1.4985,43.4531
10:18:32:419,-0.8788,3.2824,7.5221,48.066,0.1942,0.7257,1.5901,43.4531
10:18:32:487,0.0287,2.5929,8.9515,47.9949,-0.0672,0.0916,1.4038,42.2969
10:18:32:488,-0.6392,1.6926,11.5612,48.1463,-0.3952,-0.2395,1.1142,42.2969
10:18:32:488,-1.9175,1.5467,12.4947,48.461,-0.5101,0.0953,1.0329,40.5781
10:18:32:499,-2.4132,1.5562,10.6585,48.2877,-0.3402,0.6634,1.1783,40.5781
10:18:32:520,-2.2959,1.8027,8.6785,48.3548,-0.1234,0.7776,1.3494,38.5781
10:18:32:539,-1.4916,2.3533,8.365,48.1431,-0.1142,0.3946,1.4722,38.3906
10:18:32:560,-0.1292,2.3629,9.1932,48.1854,-0.3476,0.0299,1.4741,36.2188
10:18:32:579,0.2704,1.7381,11.0704,48.0399,-0.6896,-0.1173,1.2681,36.2188
10:18:32:599,-0.1484,1.0295,12.4229,48.5832,-0.8796,0.0556,1.0513,34.2188
10:18:32:619,-0.9386,0.6655,12.3272,48.5128,-0.7727,0.4044,0.9896,34.0156
10:18:32:639,-1.0869,0.8692,11.1781,48.4779,-0.3671,0.6127,1.0959,31.6406
10:18:32:661,-0.5961,1.4509,9.2629,48.6437,0.1234,0.6444,1.2388,31.4062
10:18:32:681,-0.1507,2.2863,7.8168,48.4237,0.3983,0.4948,1.2779,28.3281
10:18:32:699,-0.2106,2.8968,7.6301,48.5121,0.1087,0.3091,1.0537,28.0312
10:18:32:719,-0.5674,2.7054,7.8479,48.1658,-0.1356,0.4551,0.9395,24.875
10:18:32:738,-0.941,2.6647,7.9531,48.392,-0.2938,0.5724,0.8827,24.5625
10:18:32:762,-1.0702,2.6288,8.2597,48.2086,-0.3879,0.5308,0.8882,22.3594
10:18:32:779,-0.9888,2.6743,9.3897,48.3248,-0.4276,0.3665,0.923,22.1406
10:18:32:799,-0.5889,2.6504,10.7638,48.2343,-0.3726,0.234,0.959,19.3125
10:18:32:818,-0.122,2.461,11.4102,48.2553,-0.2089,0.2517,0.9609,19.0312
10:18:32:838,0.1244,2.2385,11.2738,48.27,-0.0177,0.292,0.9291,15.9688
10:18:32:860,0.1412,2.126,10.9555,48.2698,0.11,0.2529,0.915,13.0156
10:18:32:879,0.134,2.205,10.8045,48.6346,0.1539,0.1851,0.9615,13.0156
10:18:32:899,0.1651,2.5451,10.5126,48.5451,0.1203,0.2095,1.0433,10.4531
10:18:32:919,0.9482,2.9518,9.5261,48.6089,0.025,0.2443,1.0959,10.4531
10:18:32:940,2.0686,3.0933,9.3658,48.5822,-0.248,0.0232,0.9486,7.5156
10:18:32:961,1.9175,2.2624,12.198,48.7626,-0.6866,-0.4166,0.5644,7.5156
10:18:32:979,1.1372,0.7181,13.9983,48.6833,-0.8882,-0.427,0.2737,4.9375
10:18:33:000,0.4167,-0.4884,14.5633,49.0259,-0.7391,-0.1686,0.2449,4.9375
10:18:33:019,0.0239,-0.4789,13.0932,48.9964,-0.3183,0.2926,0.4496,2.9062
10:18:33:040,0.0455,0.5411,10.6346,48.9348,0.1454,0.6084,0.741,2.7031
10:18:33:061,0.2946,1.7142,8.7242,49.14,0.405,0.5479,0.9083,0.4688
10:18:33:079,0.5435,2.272,8.001,49.0132,0.4239,0.3109,0.9028,0.4688
10:18:33:100,0.6655,2.2552,7.9531,48.882,0.3109,0.1888,0.813,358.4219
10:18:33:119,0.8402,2.3031,7.7234,48.897,0.1515,0.2504,0.6994,358.2344
10:18:33:140,0.9314,2.624,7.515,49.0944,-0.0611,0.3573,0.573,356.2812
10:18:33:163,0.6823,2.9112,8.0225,48.9649,-0.2865,0.3744,0.4392,356.0938
10:18:33:179,0.3066,2.9064,8.8199,48.7809,-0.3744,0.3048,0.3268,354.0312
10:18:33:200,-0.1507,2.8155,8.7218,48.6478,-0.0605,0.2682,0.2254,353.8281
10:18:33:219,-0.1938,2.9614,7.9723,48.3669,0.058,0.3402,0.2285,351.7188
10:18:33:239,-0.1771,3.0595,7.879,48.406,0.0287,0.3201,0.2584,351.5156
10:18:33:258,-0.0167,3.0069,8.2717,48.5798,-0.0367,0.2321,0.2779,350.7188
10:18:33:284,0.268,2.8896,9.1813,48.543,-0.0519,0.0727,0.273,350.6562
10:18:33:298,0.297,2.758,9.5883,48.37,-0.0159,0.044,0.2645,349.8906
10:18:33:319,-0.079,2.7389,9.763,48.2784,-0.0428,0.1723,0.2792,349.8125
10:18:33:339,-0.2827,2.9375,10.3232,48.4586,-0.1093,0.2706,0.3476,348.0156
10:18:33:360,-0.1819,3.2656,10.9146,48.6134,-0.0874,0.2737,0.4172,345.8906
10:18:33:384,-0.0431,3.4116,10.8141,48.8629,0.0244,0.2853,0.4258,345.8906
10:18:33:400,-0.189,3.2106,10.7758,48.7693,0.058,0.303,0.372,344.375
10:18:33:420,-0.5841,2.5977,11.8579,48.7594,-0.0195,0.3354,0.3653,344.375
10:18:33:441,-0.9577,2.7413,12.2554,48.8182,-0.0024,0.5211,0.4306,343.3594
10:18:33:463,-1.817,3.5982,11.6019,48.8888,0.1497,0.7727,0.4704,343.3594
10:18:33:482,-2.126,4.3741,9.7917,49.0214,0.2761,0.8815,0.5247,342.7812
10:18:33:500,-1.2353,4.2257,8.1975,49.055,0.2162,0.6353,0.5553,342.7188
10:18:33:519,-0.2201,2.8585,9.4926,49.0184,-0.058,-0.0531,0.4123,342.7188
10:18:33:540,0.1675,1.5634,13.3304,48.9431,-0.3457,-0.6683,0.182,342.0625
10:18:33:563,-0.8907,0.4095,15.8919,49.091,-0.2987,-0.5864,-0.011,341.3906
10:18:33:581,-2.2983,0.3233,14.5298,49.1615,0.2132,0.1216,0.0287,341.3906
10:18:33:601,-2.1954,1.2592,10.0505,48.9692,0.8979,0.9089,0.3439,340.75
10:18:33:620,-1.5802,2.6216,5.8319,49.0138,1.2412,1.0604,0.5858,340.75
10:18:33:641,-1.628,2.6743,4.2879,48.8857,1.0488,0.5424,0.5632,339.8906
10:18:33:659,-2.083,2.2911,5.8391,48.9758,0.4881,-0.0513,0.5443,339.7969
10:18:33:683,-1.1204,2.7556,7.7785,48.8257,0.0727,-0.3274,0.6212,338.9062
10:18:33:701,-0.5937,2.4347,8.6617,48.738,0.0208,-0.3952,0.5467,338.8281
10:18:33:721,-0.9649,2.2457,7.7043,48.7627,0.0721,-0.2492,0.2822,337.8906
10:18:33:741,-1.1898,2.1739,7.4384,48.5979,0.0574,0.0079,0.1179,337.7812
10:18:33:759,-1.1755,2.3844,7.6349,48.5686,-0.0837,-0.1497,0.1063,336.5469
10:18:33:781,-1.0845,2.6097,8.1855,48.5461,-0.1155,-0.2272,0.179,336.4219
10:18:33:801,-0.7493,2.8107,8.2884,48.4034,-0.113,-0.1209,0.2352,335.3594
10:18:33:819,-0.4478,3.1484,7.9579,48.2461,-0.1081,0.0446,0.2358,335.2656
10:18:33:839,-0.3281,3.4259,7.7904,48.4616,-0.1399,0.1222,0.179,335.2344
10:18:33:859,-0.3353,3.603,8.1377,48.5456,-0.1918,0.0696,0.1075,334.7812
10:18:33:888,-0.3736,3.5599,9.1693,48.3075,-0.2046,-0.0501,0.0452,334.7812
10:18:33:916,-0.51,3.2991,10.1031,48.4191,-0.1112,-0.1515,0.0116,333.3594
10:18:33:921,-0.5865,3.2465,10.2706,48.3402,0.0434,-0.1564,0.0171,333.3594
10:18:33:941,-0.5483,3.4164,10.0481,48.1794,0.1008,-0.1484,0.025,332.2188
10:18:33:960,-0.4238,3.6221,9.9236,48.4352,-0,-0.1497,-0.011,332.2188
10:18:33:981,-0.4262,3.7229,9.8207,48.5486,-0.2089,-0.1216,-0.102,331.4531
10:18:34:001,-0.2632,3.3326,10.1079,48.417,-0.4771,-0.0678,-0.2315,331.4531
10:18:34:020,-0.0742,2.4108,11.0871,48.494,-0.7324,-0.0623,-0.3793,331.4531
10:18:34:041,-0.3114,1.6232,12.3344,48.5946,-0.8656,-0.1478,-0.4862,331.25
10:18:34:064,-0.1723,0.9793,13.73,48.3066,-0.821,-0.3231,-0.4771,331.0156
10:18:34:080,0.4454,0.5913,14.2926,48.2201,-0.5809,-0.347,-0.3555,331.0156
10:18:34:100,0.7158,0.7229,12.9257,48.1475,-0.2205,-0.0739,-0.2162,330.4844
10:18:34:120,0.632,1.209,11.0345,47.8162,0.0867,0.1564,-0.1368,330.4844
10:18:34:140,0.9314,1.5921,9.4759,47.749,0.237,0.1973,-0.0874,330.1406
10:18:34:164,1.3789,1.6663,8.5636,47.6624,0.2016,0.1826,-0.0971,330.1094
10:18:34:180,1.4533,1.896,8.1182,47.4852,0.0538,0.2315,-0.1643,330.0625
10:18:34:200,1.1133,2.2792,7.7785,47.1578,-0.0812,0.3085,-0.2266,330.0625
10:18:34:221,0.6176,2.6025,7.6899,47.2255,-0.0702,0.1161,-0.2865,330.0938
10:18:34:241,0.5411,2.7197,8.0919,47.1129,0.036,-0.0892,-0.3225,330.0938
10:18:34:265,0.6176,2.7843,8.3076,46.9149,0.0953,-0.1747,-0.3702,330.25
10:18:34:285,0.4597,2.9495,8.3602,46.8979,0.0501,-0.0983,-0.4105,330.2656
10:18:34:299,0.2704,3.0835,8.578,46.5734,-0.0458,0.0006,-0.4227,330.8281
10:18:34:320,0.3042,3.0476,8.9635,46.4373,-0.0819,0.0446,-0.4105,330.875
10:18:34:339,0.3736,3.0093,9.0903,46.2954,-0.0189,0.0513,-0.4105,331.8281
10:18:34:360,0.2704,3.1196,8.9085,46.3964,0.0525,0.0501,-0.4361,332.5156
10:18:34:382,0.0191,3.2991,8.7529,46.417,0.0544,0.0281,-0.438,332.5156
10:18:34:401,-0.1723,3.4283,9.2076,46.4782,-0.0079,-0.0623,-0.4154,332.7812
10:18:34:420,-0.4717,3.5456,10.1916,46.4108,-0.0721,-0.1124,-0.3873,332.7812
10:18:34:440,-0.9027,3.4905,11.2905,46.3682,-0.0696,-0.0501,-0.347,333
10:18:34:459,-1.0845,3.3924,11.3073,46.2837,0.033,0.0935,-0.259,333
10:18:34:482,-1.1228,3.4235,10.9627,46.0459,0.1393,0.135,-0.1698,333.0156
10:18:34:568,-1.0845,3.3709,11.4389,46.1221,0.1765,0.0275,-0.1222,333.4219
10:18:34:568,-1.2999,3.2369,11.913,45.9926,0.2034,0.0195,-0.1203,333.4219
10:18:34:568,-2.2289,3.1531,12.0135,45.6963,0.2437,0.1936,-0.1356,334.0781
10:18:34:569,-3.1986,2.9471,11.0728,45.6819,0.3244,0.4416,-0.0446,335
10:18:34:584,-2.9662,2.7006,9.7582,45.5441,0.4129,0.474,0.182,335
10:18:34:600,-1.276,2.2002,9.2267,45.0713,0.4404,0.1399,0.3482,335.9062
10:18:34:619,-0.1675,1.5108,9.9667,44.7677,0.3744,-0.2773,0.2553,335.9062
10:18:34:640,-0.7181,1.1898,11.1685,44.3892,0.2254,-0.4129,0.011,336.7344
10:18:34:659,-2.0255,1.1204,10.7734,43.9657,0.1313,-0.1564,-0.1087,336.8125
10:18:34:680,-2.4826,1.0128,9.6266,43.6533,0.1185,0.1051,0.011,337.6875
10:18:34:699,-1.8888,1.1468,8.9635,43.3056,0.1197,0.11,0.2425,337.7656
10:18:34:719,-1.0439,1.5586,8.7673,42.9096,0.0861,0.0483,0.3885,338.5312
10:18:34:740,-0.6535,1.8362,9.1789,42.7968,-0.0501,0.0513,0.3702,338.5938
10:18:34:759,-1.0367,1.5634,8.8798,42.8943,-0.2578,0.2724,0.2126,339.0156
10:18:34:780,-1.3789,1.6424,8.7936,43.0682,-0.1936,0.2254,0.2071,339.0469
10:18:34:799,-1.3023,1.8769,8.3842,43.1166,-0.0538,0.1686,0.2614,339.3281
10:18:34:818,-1.0917,2.193,7.8646,43.0143,0.0568,0.1625,0.3286,339.3438
10:18:34:839,-0.8453,2.5786,7.5341,42.9666,0.088,0.1515,0.3781,339.4844
10:18:34:859,-0.4525,2.8753,7.2685,43.0328,0.0611,0.1216,0.3824,338.9531
10:18:34:882,-0.364,3.0428,7.2159,42.8781,-0.0098,0.08,0.3097,338.9531
10:18:34:899,-0.7349,3.1484,7.9938,42.8458,-0.0935,0.0037,0.2022,338.7969
10:18:34:919,-0.9984,3.0141,8.633,42.6852,-0.1258,0.0116,0.1472,338.7969
10:18:34:939,-1.0415,2.782,8.6354,42.3565,-0.1014,0.0837,0.1637,338.9375
10:18:34:959,-0.9458,2.8777,9.1454,42.3012,-0.0654,0.0373,0.2083,338.9375
10:18:34:982,-0.699,3.2082,9.5812,42.2355,-0.014,-0.0049,0.2486,338.9375
10:18:35:000,-0.2656,3.3326,9.8662,42.0679,0.0232,-0.0086,0.2437,338.25
10:18:35:020,0.1149,3.1699,10.3567,41.9959,0.0092,-0.0189,0.1655,338.2344
10:18:35:039,0.1651,2.8178,10.5532,42.0041,-0.0336,0.0122,0.0446,337.4531
10:18:35:059,-0.0383,2.4969,10.6825,41.9824,-0.0733,0.0171,-0.0458,336.8281
10:18:35:081,-0.1771,2.5161,10.9436,42.0057,-0.0739,-0.0348,-0.0458,336.8281
10:18:35:099,-0.0335,2.7748,10.9193,41.8967,-0.0415,-0.066,0.0128,336.1094
10:18:35:119,0.5148,2.8298,10.8906,41.7683,-0.0324,-0.099,0.0483,336.1094
10:18:35:140,1.0845,2.6838,11.1063,41.5788,-0.0672,-0.1429,-0.0122,335.2344
10:18:35:158,1.4004,2.1787,11.2331,41.3777,-0.1185,-0.1454,-0.1466,335.2344
10:18:35:182,1.2473,1.5203,11.5325,41.0714,-0.1765,-0.1136,-0.2877,334.6875
10:18:35:199,0.6057,1.2832,11.4676,40.7787,-0.1961,0.0202,-0.3323,334.6406
10:18:35:219,0.1484,1.4438,10.7088,40.4768,-0.1344,0.1662,-0.2468,334.2812
10:18:35:241,0.7732,1.9319,9.21,40.1608,0.0415,0.0153,-0.022,334.25
10:18:35:261,1.3836,2.1236,9.0497,40.036,0.0147,-0.1405,-0.0446,333.7812
10:18:35:282,1.5634,2.0614,9.0449,39.7547,-0.0996,-0.1765,-0.1729,333.7344
10:18:35:299,1.3262,2.0088,8.9539,39.7235,-0.2474,-0.0977,-0.2938,333.3281
10:18:35:318,0.8234,2.004,9.0353,39.5011,-0.3836,-0.0079,-0.347,333.2969
10:18:35:341,0.3879,2.0949,9.2124,39.4187,-0.4038,0.0177,-0.3347,333.2656
10:18:35:358,0.0957,2.2887,9.0209,39.1521,-0.2688,0.0244,-0.295,333.3125
10:18:35:385,-0.0359,2.5331,8.5732,38.9958,-0.044,0.0134,-0.2388,333.3125
10:18:35:401,0.1029,2.8944,7.9412,38.8218,0.1527,0.0214,-0.1741,333.3125
10:18:35:419,0.3808,3.3852,7.6732,38.6884,0.2114,0.0501,-0.1307,333.3125
10:18:35:440,0.5554,3.6655,7.4599,38.6122,0.1362,0.1173,-0.135,333.3125
10:18:35:459,0.4741,3.7899,7.6134,38.1295,-0.0012,0.1295,-0.1967,333.8125
10:18:35:485,0.376,3.5456,8.4105,37.937,-0.1063,0.0165,-0.3207,333.8125
10:18:35:500,0.0598,2.9806,9.076,37.6227,-0.1277,-0.0397,-0.4539,334.375
10:18:35:521,-0.4478,2.6815,9.428,37.5707,-0.1136,-0.0073,-0.4807,334.375
10:18:35:540,-0.7947,2.9016,9.9141,37.5249,-0.1081,0.0428,-0.3799,334.5
10:18:35:558,-0.8692,3.1316,10.1605,37.1678,-0.0928,0.1234,-0.2425,334.7812
10:18:35:586,-1.0008,3.2058,10.2491,36.6871,-0.0751,0.1949,-0.1478,334.7812
10:18:35:599,-1.1372,3.3661,10.7853,36.3354,-0.0812,0.1924,-0.0782,335.4375
10:18:35:619,-1.0032,3.39,11.214,36.174,-0.0483,0.1686,0.0037,335.4375
10:18:35:640,-0.7421,3.39,11.214,36.0149,0.0513,0.1784,0.0568,336.0625
10:18:35:659,-0.8931,3.524,10.9436,35.7571,0.1264,0.2272,0.0464,336.0625
10:18:35:685,-1.3478,3.7732,10.6801,35.4833,0.1026,0.292,0.0244,336.4844
10:18:35:700,-1.2616,3.6488,10.3017,34.9027,-0.0202,0.303,0.036,336.5156
10:18:35:720,-0.5459,2.7772,10.4264,34.7027,-0.1979,0.1209,-0.0049,336.7969
10:18:35:741,-0.5674,1.6759,11.9273,34.6971,-0.383,-0.2181,-0.1619,336.8281
10:18:35:761,-1.6017,0.821,13.8093,34.2698,-0.0965,0.0586,-0.2486,337.3125
10:18:35:784,-3.5958,0.2536,10.3352,33.9933,0.4636,0.5724,0.1081,337.3594
10:18:35:800,-3.0356,0.929,7.3857,33.6189,0.8876,0.6249,0.5656,338.2656
10:18:35:819,-1.9128,1.9056,6.2653,33.3712,0.9486,0.237,0.8717,338.3594
10:18:35:839,-0.6464,2.9399,6.3969,33.1874,0.6951,-0.1075,0.9609,338.9375
10:18:35:859,0.2584,3.2058,6.8423,33.0476,0.259,-0.1753,0.7959,339.1562
10:18:35:879,0.0526,2.5137,7.4934,32.8661,-0.1814,-0.0568,0.4416,339.1562
10:18:35:899,-0.9075,1.5538,7.5823,32.2128,-0.4349,0.1142,0.1497,339.1562
10:18:35:919,-1.9487,1.2233,8.0345,32.2258,-0.5149,0.1277,0.1008,339.0469
10:18:35:940,-2.2313,1.4438,8.6067,32.2059,-0.4801,0.0788,0.2767,339.0469
10:18:35:959,-1.7022,2.0495,8.5875,32.127,-0.3378,0.1209,0.5339,338.9062
10:18:35:980,-1.2185,2.569,7.8909,31.9146,-0.1826,0.2278,0.6579,338.9062
10:18:36:001,-1.1611,3.1005,7.4264,31.2479,-0.1246,0.273,0.6499,338.7656
10:18:36:020,-1.1157,3.3661,7.3355,31.2187,-0.1845,0.2517,0.6231,338.7656
10:18:36:042,-0.9553,3.5839,7.8574,30.9854,-0.325,0.1955,0.6249,339.2656
10:18:36:060,-0.4908,3.7205,8.9922,31.3188,-0.4514,0.0904,0.6316,339.375
10:18:36:081,0.1364,3.7349,10.1414,31.0012,-0.4862,0.0458,0.5852,339.375
10:18:36:103,0.3808,3.7636,11.1302,30.7399,-0.4539,0.0495,0.4661,337.9062
10:18:36:119,0.2393,3.6341,11.8077,30.6817,-0.3714,0.0183,0.3134,337.9062
10:18:36:141,0.1029,3.2608,12.2602,30.5117,-0.2449,-0.0898,0.1674,336.1719
10:18:36:159,0.0502,2.7963,12.6697,30.7684,-0.1112,-0.2107,0.0409,336.1719
10:18:36:181,-0.0861,2.4538,12.8898,30.3367,0.0067,-0.2486,-0.0428,335.4844
10:18:36:201,-0.3401,2.3892,12.6841,29.9222,0.1045,-0.1674,-0.0489,335.4062
10:18:36:220,-0.2441,2.6169,11.822,29.509,0.1686,-0.0421,0.0281,334.875
10:18:36:242,0.3664,2.7126,10.8858,29.6635,0.1515,-0.0171,0.0971,334.8281
10:18:36:259,1.2162,2.1954,10.6035,29.5663,0.0367,-0.1918,0.0403,333.5
10:18:36:284,1.6519,1.0295,11.9201,29.4458,-0.3195,-0.5583,-0.3616,333.375
10:18:36:303,1.0175,-0.2441,14.1682,29.5962,-0.2926,-0.1313,-0.3738,331.9688
10:18:36:319,0.4693,-0.0574,12.5713,29.179,-0.0238,0.4282,-0.2309,331.8281
10:18:36:338,0.8115,0.0861,10.1342,29.1153,0.3818,0.6677,-0.0275,330.4219
10:18:36:359,1.4581,0.5435,8.164,29.1758,0.7184,0.5259,0.0971,329.0938
10:18:36:380,1.9152,1.1898,7.235,28.8401,0.8198,0.1906,0.0507,329.0938
10:18:36:403,1.9896,1.7285,6.8495,28.5755,0.6603,-0.0281,-0.1448,328.9844
10:18:36:419,1.3382,1.7883,6.8662,28.2987,0.3311,-0.0757,-0.4258,328.4375
10:18:36:441,0.1603,1.4533,7.0747,28.0718,-0.0098,0.0171,-0.6426,328.375
10:18:36:459,-0.8453,1.3645,7.2517,27.6778,-0.234,0.1344,-0.6481,328.4375
10:18:36:480,-1.2329,1.6496,7.2709,27.6795,-0.3152,0.2016,-0.4636,328.4375
10:18:36:501,-0.9194,2.193,7.3666,27.6216,-0.3097,0.1759,-0.2254,328.5312
10:18:36:521,-0.3712,2.7508,7.7689,27.6709,-0.2877,0.0721,-0.0812,328.5312
10:18:36:542,0.1986,3.0117,8.5062,27.7592,-0.2749,-0.055,-0.0831,328.4375
10:18:36:560,0.5076,2.8944,9.076,27.6382,-0.2474,-0.0922,-0.1979,329.1562
10:18:36:581,0.2489,2.5283,9.3371,27.7907,-0.2156,-0.0348,-0.3476,329.1562
10:18:36:654,-0.3353,2.2816,9.2243,27.458,-0.1967,0.0507,-0.4093,329.7344
10:18:36:654,-0.6488,2.2576,9.5046,27.4742,-0.1784,0.0312,-0.3354,329.7344
10:18:36:655,-0.4262,2.3342,10.1533,27.3898,-0.1332,-0.036,-0.193,329.5938
10:18:36:658,-0.2417,2.6169,10.5556,27.2192,-0.0623,-0.0122,-0.0776,329.5938
10:18:36:679,-0.2922,2.9686,10.4288,26.9763,0.0153,0.0996,-0.0043,329.8594
10:18:36:704,-0.4406,3.2154,10.3017,27.055,0.0702,0.1631,0.0525,329.8594
10:18:36:720,-0.4549,3.3757,10.2778,26.9999,0.1008,0.182,0.1142,330.9688
10:18:36:741,-0.3042,3.4522,10.3352,26.5988,0.1222,0.1985,0.1735,331.0781
10:18:36:760,-0.2994,3.4762,10.4192,26.6922,0.1368,0.2242,0.1949,332.0625
10:18:36:786,-0.5794,3.5097,10.4575,26.49,0.1753,0.2535,0.1881,332.1562
10:18:36:801,-1.1563,3.5264,10.3783,26.5182,0.2651,0.2614,0.1826,332.3594
10:18:36:820,-1.8697,3.2776,9.1621,26.5279,0.5186,0.2126,0.2285,332.375
10:18:36:840,-1.4366,3.05,8.5445,26.6,0.4496,0.1106,0.2413,332.625
10:18:36:860,-0.8644,2.624,9.1262,26.5825,0.0965,-0.1081,0.1564,332.6406
10:18:36:878,-0.6823,1.9558,11.3647,26.5451,-0.3916,-0.3934,-0.0122,333.3438
10:18:36:899,-0.984,1.5108,13.7973,26.4938,-0.6506,-0.4209,-0.1613,333.4062
10:18:36:920,-1.8721,1.1396,13.6702,26.4564,-0.4911,0.0079,-0.2456,333.8906
10:18:36:939,-2.6025,1.0941,11.08,26.585,-0.0721,0.5107,-0.182,333.9531
10:18:36:960,-2.4514,1.4533,8.729,26.5993,0.2511,0.5211,0,334.0156
10:18:36:981,-1.7859,1.8673,8.3267,26.6221,0.2639,0.1564,0.1338,334.0156
10:18:37:002,-1.1492,1.8912,9.2291,26.5886,0.0409,-0.058,0.1503,333.8125
10:18:37:020,-0.9864,1.6065,9.6864,26.5123,-0.1765,0.0916,0.1045,333.8125
10:18:37:040,-1.1659,1.3621,9.4089,26.6364,-0.2407,0.3311,0.0861,333.3906
10:18:37:059,-1.4004,1.3358,8.8534,26.819,-0.1613,0.4105,0.1509,332.9531
10:18:37:082,-1.4605,1.6376,8.5732,26.8753,-0.0195,0.3128,0.2834,332.9531
10:18:37:103,-0.9817,2.0686,8.578,27.1069,0.1423,0.19,0.4313,332.5625
10:18:37:120,-0.3353,2.6336,8.2286,27.2431,0.2883,0.2022,0.5137,332.5625
10:18:37:142,-0.1125,3.1388,7.4575,27.3734,0.369,0.2969,0.4856,332.2031
10:18:37:158,-0.1268,3.4522,6.8136,27.3878,0.3775,0.2975,0.3818,332.2031
10:18:37:180,-0.2273,3.7062,6.4232,27.5057,0.3268,0.1784,0.2413,332.375
10:18:37:202,-0.6105,3.7804,6.9045,27.4196,0.1936,-0.0116,0.0874,332.375
10:18:37:220,-0.9003,3.6269,7.9531,27.6706,0.0116,-0.1423,-0.0134,332.6406
10:18:37:242,-0.8091,3.5049,9.1047,27.7901,-0.124,-0.1753,-0.0489,332.6719
10:18:37:259,-0.7325,3.4164,10.1988,27.6298,-0.171,-0.1509,-0.0867,332.5156
10:18:37:283,-0.7373,3.3589,10.7662,27.7657,-0.1613,-0.0702,-0.1258,332.5
10:18:37:303,-0.8644,2.9183,10.9603,27.5688,-0.0605,-0.066,-0.1875,332.2188
10:18:37:321,-0.8692,2.7006,11.1374,27.7514,0.0116,-0.1771,-0.1808,332.1875
10:18:37:340,-0.699,2.6169,11.2714,27.7822,0.0654,-0.2755,-0.1387,331.7812
10:18:37:361,-0.5339,2.8681,11.3025,27.7344,0.0678,-0.3042,-0.0928,331.7344
10:18:37:379,-0.0814,3.0476,10.8547,27.6312,0.0293,-0.281,-0.0544,330.9531
10:18:37:399,0.5315,2.8968,11.1135,27.6512,-0.0709,-0.3537,-0.0831,330.875
10:18:37:419,0.9386,2.2792,11.9034,27.7383,-0.1924,-0.4704,-0.1881,329.9062
10:18:37:440,0.9458,1.5036,12.8109,27.6669,-0.2346,-0.5143,-0.3073,329.8125
10:18:37:459,0.6176,0.9769,13.1148,27.9622,-0.1081,-0.3885,-0.369,329.2188
10:18:37:481,0.0311,1.0965,11.6019,27.9844,0.2126,-0.0391,-0.3005,329.1562
10:18:37:504,-0.0622,1.7022,9.2435,27.95,0.5638,0.2095,-0.1161,329.1406
10:18:37:519,0.4669,2.2289,7.1441,28.2947,0.7104,0.1906,0.0214,329.125
10:18:37:541,1.1563,2.6767,6.4137,28.3565,0.5608,-0.044,0.0037,329.2969
10:18:37:559,1.5802,2.758,6.7633,28.5448,0.223,-0.2706,-0.1704,329.5625
10:18:37:581,1.2185,2.4084,7.6947,28.5424,-0.1503,-0.3066,-0.4197,329.5625
10:18:37:604,0.4908,2.1021,8.2645,28.6095,-0.4392,-0.146,-0.5534,330.0156
10:18:37:620,0,2.0518,8.5516,28.5854,-0.5766,-0.0018,-0.5101,330.0156
10:18:37:640,-0.0981,2.3342,8.863,28.5438,-0.529,-0.0165,-0.3677,330.4062
10:18:37:659,0.1316,2.8059,9.0927,28.5705,-0.3292,-0.0983,-0.2266,330.4062
10:18:37:681,0.443,3.1364,8.8128,28.4822,-0.0739,-0.1313,-0.157,330.6719
10:18:37:703,0.5937,3.3948,8.1326,28.7738,0.1307,-0.1283,-0.1619,330.6719
10:18:37:722,0.5291,3.7469,7.6923,28.6744,0.2089,-0.1552,-0.2095,331.2656
10:18:37:741,0.5698,3.8282,7.855,28.6092,0.1808,-0.215,-0.2834,331.3281
10:18:37:760,0.4454,3.6197,8.08,28.6535,0.1063,-0.2046,-0.3775,332.0781
10:18:37:782,-0.0096,3.39,8.3507,28.8964,0.0073,-0.1503,-0.4423,332.1562
10:18:37:804,-0.2898,3.2512,8.9587,29.0974,-0.0892,-0.1106,-0.4117,332.375
10:18:37:822,-0.6559,3.5527,10.2084,29.261,-0.0965,0.0147,-0.2181,332.3906
10:18:37:841,-0.8453,3.7804,10.3161,29.2121,0,0.0654,-0.124,332.7188
10:18:37:860,-0.6464,3.7445,10.3639,29.2342,0.0745,0.0764,-0.0342,332.75
10:18:37:880,-0.4214,3.7899,10.8356,29.5625,0.0421,0.0843,0.0195,333.7344
10:18:37:905,-0.3544,3.9407,11.6545,29.9502,-0.0483,0.1326,0.0434,333.8281
10:18:37:919,-0.6799,4.1058,12.2195,29.9125,-0.0776,0.2382,0.033,334.5469
10:18:37:940,-1.331,3.9909,11.6282,29.9754,-0.0049,0.3787,-0.0092,334.625
10:18:37:960,-1.6998,3.7349,10.4743,30.1226,0.0678,0.4258,-0.0421,334.9844
10:18:37:980,-1.3119,3.1699,10.1151,30.1077,-0.0208,0.2272,-0.0476,335.0312
10:18:38:002,-0.6057,2.1715,11.3001,30.4362,-0.2834,-0.1344,-0.0812,335.5469
10:18:38:019,-0.8019,1.3789,13.6534,30.5319,-0.5125,-0.3476,-0.1747,335.5469
10:18:38:040,-2.1715,0.7851,14.0821,30.7221,-0.3763,-0.0244,-0.1906,336.375
10:18:38:060,-3.1196,0.6799,11.7048,30.8752,0.1435,0.5504,0.0666,337.3594
10:18:38:080,-2.7652,1.3023,8.31,31.0809,0.6793,0.8039,0.5125,337.3594
10:18:38:103,-1.7094,2.4443,6.2677,31.0967,0.8778,0.5186,0.832,337.9219
10:18:38:121,-0.309,3.6437,6.0045,31.1771,0.7135,0.0605,0.9065,337.9219
10:18:38:141,0.8234,3.9024,6.9045,31.3142,0.3158,-0.171,0.6799,338.0781
10:18:38:160,0.6344,3.0045,7.8766,31.4667,-0.1057,-0.0574,0.2309,338.0781
10:18:38:181,-0.5913,2.016,7.9962,31.1408,-0.3549,0.19,-0.1497,337.9844
10:18:38:202,-1.8242,1.6041,8.2358,30.9677,-0.4166,0.2266,-0.2401,337.9844
10:18:38:221,-2.1811,1.5275,8.7147,30.9781,-0.3256,0.1191,-0.0452,337.8438
10:18:38:241,-1.5634,2.0231,8.7936,30.9699,-0.102,0.0373,0.2706,337.8438
10:18:38:259,-0.8668,2.8394,8.1302,30.8943,0.1649,0.0464,0.4759,337.8438
10:18:38:280,-0.4549,3.4522,7.1178,30.8733,0.3231,0.0806,0.4752,337.8438
10:18:38:303,-0.5148,3.6365,6.7825,31.0786,0.1216,-0.0134,0.2083,338.0469
10:18:38:322,-0.51,3.3852,7.7043,30.9898,-0.091,-0.0855,0.1222,338.0625
10:18:38:342,-0.4621,3.3685,8.6785,31.2636,-0.2321,-0.11,0.0941,338.0781
10:18:38:360,-0.5387,3.6102,9.428,31.3262,-0.259,-0.1008,0.0733,338.0781
10:18:38:380,-0.486,3.7325,9.7822,31.5521,-0.2101,-0.1093,0.044,336.7969
10:18:38:399,-0.1771,3.5264,9.8542,31.6993,-0.1668,-0.1558,-0.0098,336.6719
10:18:38:419,0.0311,3.2345,10.1797,31.7135,-0.2065,-0.2431,-0.102,335.2656
10:18:38:440,0.067,2.9327,11.0058,31.7311,-0.3323,-0.3323,-0.1808,335.125
10:18:38:459,0.0335,2.6838,12.076,31.7772,-0.4783,-0.3396,-0.2199,334.9219
10:18:38:480,0.0263,2.6121,12.7223,31.7401,-0.5656,-0.226,-0.2205,334.9062
10:18:38:503,0.1412,2.3103,12.5545,31.741,-0.5498,-0.0898,-0.2089,335.0156
10:18:38:521,0.3281,1.7979,12.7846,31.8108,-0.4813,-0.1014,-0.2175,335.0312
10:18:38:541,0.5411,1.264,13.3041,31.881,-0.3799,-0.1307,-0.1997,334.2031
10:18:38:559,0.7828,0.9314,13.2132,31.9677,-0.2223,-0.011,-0.1264,333.3906
10:18:38:581,0.9649,0.9386,12.2459,32.1097,0.0031,0.1765,-0.0165,333.3906
10:18:38:605,1.2401,1.2209,10.9938,32.0944,0.2016,0.2566,0.0965,333.0312
10:18:38:620,1.8123,1.628,10.2323,31.8383,0.2889,0.19,0.179,333.0312
10:18:38:641,2.5881,1.9657,9.7223,31.9483,0.2779,0.1442,0.1723,332.8125
10:18:38:717,2.9853,2.193,8.93,32.1343,0.212,0.2169,0.0421,332.8125
10:18:38:718,2.6169,2.1739,7.7856,32.3565,0.1148,0.2999,-0.1967,332.75
10:18:38:718,1.5299,1.8505,7.1752,32.2679,-0.0171,0.2175,-0.4545,332.75
10:18:38:719,0.3233,1.6639,7.5102,32.2892,-0.1423,0.025,-0.5693,333.0781
10:18:38:743,-0.3066,1.8314,8.001,32.3373,-0.1698,-0.0819,-0.4728,333.0781
10:18:38:759,-0.2321,2.1619,7.7952,32.5764,-0.0568,-0.0464,-0.2712,333.4531
10:18:38:780,0.0407,2.6169,7.2709,32.8505,0.1173,0.0165,-0.1289,333.4844
10:18:38:803,0.1005,3.0571,6.7609,32.9906,0.2223,0.0538,-0.102,333.7969
10:18:38:822,0.2201,3.3972,6.6556,32.9934,0.212,0.0104,-0.1191,333.8281
10:18:38:842,0.5291,3.3876,7.1824,32.8483,0.124,-0.1362,-0.1875,334.0938
10:18:38:860,0.0239,2.8418,9.1884,32.7019,-0.0977,-0.1704,-0.4172,334.1094
10:18:38:879,-0.3497,2.8418,9.9236,32.72,-0.1564,-0.033,-0.3958,334.0156
10:18:38:904,-0.5602,2.983,10.7638,32.634,-0.1802,0.069,-0.3005,334
10:18:38:921,-0.7708,3.146,11.3839,32.7402,-0.1405,0.1197,-0.1826,333.6875
10:18:38:939,-0.8788,3.402,11.98,32.6869,-0.0324,0.1319,-0.0501,333.6562
10:18:38:960,-0.6248,3.7756,12.1813,32.7485,0.1008,0.1924,0.1045,333.7812
10:18:38:979,-0.122,4.168,12.0374,32.7356,0.2083,0.2767,0.212,333.7969
10:18:39:001,-0.0814,4.4339,11.889,32.8717,0.2639,0.3195,0.1906,334.75
10:18:39:021,-0.687,4.4626,11.8244,33.181,0.2859,0.3573,0.0776,334.8438
10:18:39:040,-1.4557,4.209,11.3169,33.1042,0.3097,0.43,-0.0202,335.6562
10:18:39:059,-2.0423,3.7804,10.826,33.0575,0.3323,0.4093,-0.0629,335.9531
10:18:39:080,-1.9848,3.0619,10.6131,33.0493,0.3402,0.2413,-0.0464,335.9531
10:18:39:104,-1.6065,2.2241,11.2044,33.3509,0.314,0.0006,-0.0128,336.375
10:18:39:122,-1.896,1.7213,11.6713,33.3461,0.3103,-0.0623,0.0018,336.375
10:18:39:141,-2.461,1.5682,10.9193,33.4568,0.3928,0.1075,0.0745,337.2344
10:18:39:159,-2.3677,1.6543,9.4902,33.4444,0.4991,0.2468,0.2272,337.2344
10:18:39:181,-1.8218,1.841,8.5516,33.4156,0.4978,0.2199,0.3525,337.9375
10:18:39:203,-1.0726,2.0088,8.3794,33.5481,0.3567,0.1277,0.4001,337.9375
10:18:39:222,-0.3808,1.8601,8.7099,34.1507,0.1387,0.0715,0.3696,338.125
10:18:39:240,-0.3975,1.628,9.076,34.2851,-0.0452,0.1106,0.2669,338.125
10:18:39:258,-0.8788,1.4749,9.0425,34.308,-0.0874,0.2052,0.1967,337.8125
10:18:39:281,-1.2879,1.5491,8.4894,34.4575,0.0281,0.2926,0.2388,337.7656
10:18:39:299,-1.2568,1.9056,7.5604,34.424,0.2278,0.3482,0.369,337.5
10:18:39:321,-0.8979,2.4467,6.2988,34.5918,0.3842,0.372,0.5107,337.4844
10:18:39:341,-0.632,3.2106,5.7218,34.5912,0.2523,0.1997,0.628,337.5625
10:18:39:360,-0.3114,4.0005,6.0069,35.0472,0.1045,0.2028,0.5687,337.5625
10:18:39:380,0.0239,4.4985,6.1911,34.9002,-0.0116,0.215,0.3922,337.7031
10:18:39:398,-0.5506,4.9247,6.8016,34.9534,-0.1069,0.1643,0.1888,337.7188
10:18:39:421,-0.8402,4.6995,7.1393,35.1049,-0.2004,0.0922,0.0538,337.7656
10:18:39:441,-0.9721,4.5176,7.8191,35.1838,-0.2926,-0.0507,-0.0012,337.7656
10:18:39:460,-0.833,4.3095,9.0832,35.6172,-0.3378,-0.2327,-0.0061,337.3125
10:18:39:479,-0.498,4.1297,9.8925,35.8377,-0.3011,-0.3066,0.0049,337.2656
10:18:39:500,-0.2946,4.0149,10.1414,35.8522,-0.248,-0.3005,-0.0305,336.5625
10:18:39:522,-0.2345,3.845,10.2251,35.641,-0.2474,-0.3189,-0.0965,336.4844
10:18:39:540,-0.0502,3.6583,10.8236,35.9027,-0.3201,-0.4258,-0.1344,335.875
10:18:39:559,0.1268,3.5719,11.8053,35.8598,-0.4319,-0.4807,-0.1423,335.1406
10:18:39:580,0.3377,3.536,12.1095,35.794,-0.5272,-0.3573,-0.1374,335.1406
10:18:39:599,0.7373,3.1938,12.2004,35.987,-0.595,-0.2456,-0.1533,333.9531
10:18:39:620,1.1946,2.5427,12.8731,35.7889,-0.6225,-0.2621,-0.2162,333.9531
10:18:39:640,1.5203,1.7285,13.4094,35.7063,-0.5485,-0.2254,-0.295,332.6094
10:18:39:659,1.0965,1.2018,12.9114,35.8207,-0.3622,-0.0122,-0.3616,332.6094
10:18:39:680,0.3616,1.0702,11.7024,35.9059,-0.1185,0.1881,-0.3525,331.8594
10:18:39:699,0.3903,1.0295,10.218,35.8709,0.1173,0.2132,-0.2162,331.8594
10:18:39:723,1.0702,1.276,9.052,35.9087,0.2547,0.1014,-0.0629,331.6719
10:18:39:740,1.6711,1.7309,8.4488,35.9715,0.2156,0.0098,-0.0367,331.6719
10:18:39:760,1.6831,2.2457,7.8933,36.0432,0.0397,0.077,-0.1283,331.6562
10:18:39:780,1.1635,2.5232,7.3834,36.3352,-0.1869,0.2065,-0.2761,331.6562
10:18:39:799,0.5148,2.4586,7.1752,36.5346,-0.3714,0.2498,-0.4013,331.7969
10:18:39:820,0.0287,2.2839,7.2111,36.8899,-0.4502,0.2034,-0.4514,331.8281
10:18:39:841,-0.3281,2.3079,7.4384,36.9503,-0.4386,0.124,-0.4331,332.125
10:18:39:860,-0.4501,2.4778,7.6253,36.9671,-0.3134,0.0629,-0.303,332.1562
10:18:39:882,-0.2512,2.7939,8.3076,37.4868,-0.1985,0.0764,-0.2755,332.3594
10:18:39:899,0.0502,2.9997,8.3794,37.8322,-0.0507,0.1258,-0.328,332.375
10:18:39:919,-0.3592,2.9758,7.9484,37.8504,0.0299,0.1228,-0.3848,332.7656
10:18:39:940,-0.6129,2.9542,8.0082,37.8894,-0.025,0.0764,-0.3726,332.7969
10:18:39:960,-0.51,2.9136,8.8654,37.9137,-0.1784,0.0214,-0.3115,333.4062
10:18:39:979,-0.4478,2.916,10.1079,37.8861,-0.3201,0.0385,-0.2511,333.4688
10:18:40:000,-0.9601,3.0188,10.9771,37.928,-0.361,0.1362,-0.2089,333.7656
10:18:40:024,-1.7118,3.2345,11.7622,38.2353,-0.2969,0.1796,-0.1124,333.7969
10:18:40:039,-1.7596,3.3039,12.3177,38.1839,-0.1393,0.1503,0.0947,334
10:18:40:059,-0.996,3.4642,12.4804,38.0372,0.0696,0.08,0.3305,334.5781
10:18:40:080,-0.1795,3.8163,12.8755,38.2211,0.2291,0.0073,0.4349,334.5781
10:18:40:100,-0.1364,3.9885,12.897,38.309,0.3183,0.0953,0.3616,335.3125
10:18:40:124,-1.0032,3.8569,12.1573,38.5042,0.3744,0.3109,0.1918,335.3125
10:18:40:142,-2.2959,3.5169,10.7255,38.8513,0.438,0.4985,0.066,335.8906
10:18:40:159,-3.1531,3.134,9.5357,39.3553,0.4795,0.4978,0.0721,335.8906
10:18:40:180,-3.0452,2.7102,9.076,39.336,0.4532,0.2669,0.2071,336.4688
10:18:40:199,-2.0566,2.1236,9.8255,39.589,0.3659,-0.0702,0.3616,336.4688
10:18:40:223,-1.6017,1.8553,11.0249,40.125,0.2859,-0.2223,0.4209,337.2812
10:18:40:241,-1.6663,1.7907,10.7806,40.1899,0.2926,-0.0348,0.4404,337.2812
10:18:40:259,-1.5395,1.8027,9.5788,40.3093,0.3494,0.182,0.4832,337.7812
10:18:40:281,-0.9314,1.7692,8.6976,40.4131,0.3274,0.1991,0.5247,337.7812
10:18:40:299,-0.1196,1.8864,8.7075,40.3397,0.1741,0.0922,0.5235,337.9375
10:18:40:320,0.4525,2.0088,9.2845,40.1836,-0.0544,0.0629,0.4325,337.9531
10:18:40:340,0.4334,1.8649,9.3227,40.5218,-0.2285,0.2395,0.2718,337.5
10:18:40:359,-0.2922,1.6304,8.8032,40.3587,-0.2798,0.4386,0.1167,337.4531
10:18:40:381,-0.9601,1.6783,7.2135,40.1699,-0.0501,0.3836,0.1973,336.75
10:18:40:400,-0.7397,2.2313,6.8901,40.4907,0.0647,0.1582,0.3176,336.6875
10:18:40:422,-0.4836,3.0523,7.2278,40.717,0.0702,-0.0067,0.3744,336.5
10:18:40:439,-0.2321,3.5982,7.1417,41.0276,0.0214,0.0434,0.3561,336.4844
10:18:40:458,-0.4621,3.8952,6.7872,41.3039,-0.0305,0.146,0.2462,336.3125
10:18:40:479,-1.051,4.0196,6.7609,41.5751,-0.0733,0.1142,0.1124,336.2969
10:18:40:499,-1.3238,3.9766,7.2948,41.4213,-0.0831,-0.0391,0.0483,335.6875
10:18:40:524,-1.2473,3.9287,7.6612,41.786,-0.0788,-0.1643,0.0208,335.625
10:18:40:542,-1.3214,3.9526,8.3985,41.8468,-0.1228,-0.273,-0.0452,334.8281
10:18:40:560,-1.2401,3.7349,9.5285,41.8164,-0.2028,-0.35,-0.1093,333.6562
10:18:40:580,-0.862,3.5097,10.3687,41.7774,-0.2676,-0.3317,-0.1362,333.6562
10:18:40:600,-0.6823,3.3972,11.2164,41.6194,-0.3219,-0.3121,-0.1741,332.7656
10:18:40:622,-0.5387,3.0763,11.956,41.7538,-0.3225,-0.3457,-0.2333,332.7656
10:18:40:641,-0.4597,2.5762,12.4756,42.0065,-0.2633,-0.4087,-0.2981,332.25
10:18:40:659,-0.5865,2.2983,12.9281,42.3674,-0.2132,-0.4001,-0.3213,332.25
10:18:40:681,-0.4669,2.1595,12.521,42.3959,-0.1918,-0.2553,-0.2474,331.5938
10:18:40:699,-0.0431,1.9872,12.4445,42.6757,-0.2193,-0.1802,-0.1607,331.5938
10:18:40:719,0.364,1.5706,13.1076,42.7281,-0.2553,-0.204,-0.1203,330.875
10:18:40:791,0.8354,1.0893,13.7542,42.9975,-0.1918,-0.1741,-0.0751,330.7969
10:18:40:791,1.0199,0.8979,12.9712,43.3932,0.0269,0.0348,-0.0147,330.3281
10:18:40:792,0.7373,1.0965,11.2953,43.3475,0.2908,0.2511,0.0489,330.3281
10:18:40:800,0.7205,1.5562,9.6314,43.1984,0.4685,0.2859,0.1448,330.25
10:18:40:819,1.276,2.0327,8.5971,43.3682,0.5082,0.1649,0.2205,330.25
10:18:40:840,1.9247,2.4371,8.001,43.3416,0.416,0.0776,0.1808,330.4219
10:18:40:860,1.9558,2.7269,7.3929,43.4787,0.2352,0.1155,0.0195,330.4531
10:18:40:883,0.8453,2.7197,6.5743,43.8664,-0.1258,0.1307,-0.3592,330.7344
10:18:40:900,0.067,2.6121,6.9667,44.3832,-0.2248,0.0018,-0.4716,330.7656
10:18:40:920,-0.3951,2.5834,7.3259,44.5411,-0.2504,-0.0733,-0.4777,331.2812
10:18:40:941,-0.3855,2.6121,7.9531,44.8515,-0.2065,-0.1203,-0.4117,331.3281
10:18:40:959,-0.2034,2.7772,8.2621,45.1809,-0.0886,-0.1014,-0.3433,331.9062
10:18:40:979,-0.1412,3.0332,8.0776,45.3666,0.0605,-0.0464,-0.3268,331.9688
10:18:40:999,-0.2898,3.1579,7.6445,46.031,0.1729,-0.0452,-0.3494,332.2188
10:18:41:024,-0.4382,3.189,7.5652,46.3742,0.1668,-0.0941,-0.3726,332.2344
10:18:41:041,-0.565,3.1603,7.9412,46.672,0.0159,-0.113,-0.3683,332.3125
10:18:41:059,-0.62,3.05,8.8295,46.6424,-0.1985,-0.1069,-0.3378,332.1875
10:18:41:080,-0.996,2.9949,10.0289,46.7169,-0.3433,-0.0605,-0.2926,332.1875
10:18:41:099,-1.5826,3.201,10.7662,47.0061,-0.3561,0.0684,-0.1924,331.9219
10:18:41:124,-1.9056,3.4881,11.2116,47.298,-0.292,0.171,-0.014,331.9219
10:18:41:141,-1.3382,3.5886,11.9417,47.5679,-0.1894,0.157,0.2004,332.1094
10:18:41:160,-0.4501,3.821,12.2961,47.5562,-0.036,0.1655,0.3555,332.1094
10:18:41:180,-0.0837,4.319,11.9752,47.6414,0.1332,0.2388,0.3726,332.9219
10:18:41:199,-0.5674,4.7306,11.1135,47.7265,0.2511,0.3402,0.2468,332.9219
10:18:41:219,-1.4342,4.8553,9.8375,47.901,0.2944,0.4355,0.0922,332.9219
10:18:41:242,-1.9729,4.7019,8.7458,48.3248,0.2321,0.4013,-0.0257,333.8281
10:18:41:259,-1.6304,3.9024,8.5684,48.6961,0.0507,0.1631,-0.1264,334.5781
10:18:41:281,-0.9051,2.5065,9.5931,48.6863,-0.2285,-0.1857,-0.2511,334.5781
10:18:41:299,-1.1683,1.5443,12.1238,48.9443,-0.5082,-0.4532,-0.3989,335.4688
10:18:41:320,-2.1787,0.7014,13.4285,49.384,-0.5473,-0.2559,-0.4111,335.4688
10:18:41:341,-2.7461,0.0837,12.4038,49.5701,-0.2437,0.226,-0.1643,336.1719
10:18:41:359,-2.3725,0.1795,9.9691,49.754,0.1826,0.5553,0.237,336.2344
10:18:41:381,-1.6591,0.7516,8.2023,50.0235,0.4038,0.5107,0.5626,336.5781
10:18:41:401,0.268,1.6496,8.0321,50.1463,0.3146,0.2694,0.7275,336.6094
10:18:41:422,0.3281,1.7405,8.6354,50.0583,-0.2132,0.0434,0.5601,336.2969
10:18:41:440,-0.5243,1.7166,8.4966,50.6298,-0.3079,0.1655,0.372,336.25
10:18:41:458,-1.2664,1.7692,8.0656,50.6719,-0.259,0.2126,0.317,335.5
10:18:41:479,-1.276,1.9657,7.7186,50.6926,-0.1484,0.1356,0.405,335.4219
10:18:41:499,-0.9362,2.4538,7.9531,50.9716,-0.0434,-0.0147,0.5082,335.1094
10:18:41:520,-0.6272,2.8825,8.0178,51.2929,0.044,-0.077,0.5424,335.0781
10:18:41:544,-0.5411,3.1842,7.6612,51.3847,0.1014,-0.0403,0.5064,335.2188
10:18:41:559,-0.6894,3.39,7.3738,51.708,0.1038,-0.033,0.4233,335.8438
10:18:41:580,-0.8907,3.5743,7.3762,51.9835,0.0519,-0.0641,0.3464,335.8438
10:18:41:599,-0.9218,3.6365,7.8838,51.8001,-0.0476,-0.1081,0.284,336.2812
10:18:41:620,-0.8931,3.5456,8.8223,52.2445,-0.1613,-0.1246,0.223,336.2812
10:18:41:641,-0.6535,3.3709,9.6075,52.4586,-0.2352,-0.1142,0.1692,335.4375
10:18:41:660,-0.0622,3.134,10.218,52.7677,-0.27,-0.1222,0.102,335.4375
10:18:41:680,0.3138,2.8537,10.7447,53.066,-0.3128,-0.1686,-0.0232,334.0312
10:18:41:700,0.1436,2.4849,11.5086,53.4094,-0.3867,-0.2395,-0.1869,333.8906
10:18:41:719,-0.0861,1.9343,12.2746,53.5419,-0.4453,-0.2792,-0.2847,333.875
10:18:41:741,-0.1938,1.4988,12.8516,53.9457,-0.4453,-0.2474,-0.2492,332.6875
10:18:41:759,0.1125,1.5706,12.8037,54.4033,-0.3793,-0.1668,-0.0947,331.7344
10:18:41:782,1.0606,1.9104,12.6024,54.4713,-0.2908,-0.1723,0.0733,331.7344
10:18:41:799,2.15,1.8673,13.2036,54.9534,-0.2584,-0.2779,0.0928,330.5938
10:18:41:819,2.7915,1.319,13.8093,55.1193,-0.2401,-0.2767,-0.025,330.5938
10:18:41:841,2.7867,0.6631,13.663,55.5091,-0.146,-0.1179,-0.1888,329.7188
10:18:41:859,2.4371,0.3305,12.6386,55.8599,0.0544,0.0654,-0.2932,329.625
10:18:41:880,2.0806,0.3855,11.0943,56.2729,0.281,0.1906,-0.3158,329.0156
10:18:41:899,1.9848,0.7923,9.6123,56.3018,0.4319,0.1826,-0.2822,328.9688
10:18:41:922,1.992,1.4438,8.0656,56.3529,0.43,0.0183,-0.3036,328.5
10:18:41:943,1.7094,1.6567,7.18,56.5894,0.3457,0.0177,-0.3518,328.4531
10:18:41:960,1.4964,1.951,6.7155,56.4819,0.2303,-0.0611,-0.3879,328.2812
10:18:41:980,1.3573,2.1356,6.7466,56.6624,0.1087,-0.1894,-0.438,328.2812
10:18:41:999,0.9338,2.138,7.2422,56.5111,-0.0037,-0.2682,-0.5174,328.625
10:18:42:019,0.5004,2.2816,7.7139,56.7053,-0.0428,-0.2126,-0.551,328.6562
10:18:42:040,0.3736,2.5355,7.6301,56.7264,0.0373,-0.0409,-0.5113,328.8906
10:18:42:059,0.3568,2.8944,7.0508,57.018,0.1906,0.0782,-0.4697,328.6719
10:18:42:079,0.1364,3.2177,6.5049,57.3067,0.3091,0.0495,-0.4954,328.6719
10:18:42:099,-0.1819,3.5121,6.3419,57.4062,0.2969,-0.0538,-0.5534,328.8438
10:18:42:120,-0.3808,3.6102,6.6676,57.6343,0.1387,-0.1338,-0.5986,328.8438
10:18:42:141,-0.5841,3.4905,7.4504,57.9148,-0.1069,-0.171,-0.6353,329.5469
10:18:42:159,-1.0367,3.3829,8.7386,58.278,-0.3628,-0.1747,-0.6518,329.5469
10:18:42:181,-1.6639,3.3637,10.2251,58.5467,-0.5333,-0.1326,-0.5925,330.2656
10:18:42:200,-1.9848,3.414,11.5875,58.5954,-0.5638,-0.0434,-0.4282,330.3438
10:18:42:219,-1.6304,3.5288,12.4397,58.7919,-0.4911,0.0647,-0.1949,330.3438
10:18:42:241,-0.9721,3.8378,13.2036,58.8601,-0.3952,0.1295,-0.0024,331.2344
10:18:42:259,-0.6727,4.1584,13.7901,59.1261,-0.2724,0.1778,0.0544,332.2656
10:18:42:281,-1.0917,4.0842,13.0813,59.3895,-0.0874,0.3207,-0.0275,332.2656
10:18:42:299,-1.7094,3.5815,11.6354,59.5991,0.0702,0.3744,-0.149,333.5
10:18:42:319,-1.9681,2.7389,10.7853,59.8439,0.0831,0.1863,-0.2211,333.5
10:18:42:342,-1.6161,1.8027,11.336,59.8622,-0.0409,-0.1655,-0.2266,334.5312
10:18:42:359,-1.3908,0.8716,12.8731,60.0782,-0.1344,-0.4532,-0.2089,334.625
10:18:42:380,-2.0949,0.0885,13.7925,60.0588,-0.0214,-0.3702,-0.1435,335.8125
10:18:42:399,-2.9423,-0.2752,12.2052,60.076,0.3561,0.1026,0.1161,335.9219
10:18:42:423,-1.9872,0.8043,7.5823,60.084,0.9285,0.5308,0.9413,337.2031
10:18:42:444,-0.8067,1.4366,6.2342,60.0842,0.8411,0.4001,1.1447,337.3281
10:18:42:459,0.3018,2.0231,5.8558,59.8866,0.5327,0.1857,1.1282,338.4219
10:18:42:481,0.8429,2.3533,6.2175,59.7587,0.099,0.0415,0.8992,338.5156
10:18:42:499,0.4478,2.2792,7.1441,59.6794,-0.3274,0.0464,0.573,338.9219
10:18:42:520,-0.364,1.7261,7.8144,59.7358,-0.5809,0.1509,0.3231,338.9688
10:18:42:541,-1.063,1.427,8.1015,59.8729,-0.5907,0.2083,0.2498,338.75
10:18:42:559,-1.6376,1.494,8.1159,59.8875,-0.4465,0.1949,0.3115,338.8438
10:18:42:579,-1.5562,1.6735,7.788,60.146,-0.2431,0.1423,0.4575,338.8438
10:18:42:599,-1.0654,2.0064,7.3714,60.1834,-0.0782,0.0757,0.5962,339.3438
10:18:42:620,-0.6679,2.4993,7.4145,60.268,-0.047,0.0324,0.6499,339.3438
10:18:42:642,-0.3784,2.9207,7.5556,60.3537,-0.1326,0.0855,0.6402,339.7344
10:18:42:660,-0.2034,3.1675,8.1278,60.1062,-0.2492,0.1387,0.565,339.7656
10:18:42:681,-0.0646,3.2034,8.875,60.0628,-0.3054,0.1698,0.4392,339.7656
10:18:42:700,0.0718,3.1507,9.7199,60.0882,-0.3244,0.2028,0.3115,339.25
10:18:42:720,0.3066,3.1531,10.2036,60.0783,-0.347,0.2132,0.2272,339.25
10:18:42:743,0.7373,3.0595,10.9241,60.0803,-0.3824,0.0806,0.1216,337.3125
10:18:42:760,0.8716,2.7461,12.2746,60.2306,-0.3873,-0.1649,-0.066,335.2031
10:18:42:782,0.6129,2.2337,13.2586,60.5498,-0.3366,-0.306,-0.2431,335.2031
10:18:42:856,0.3784,1.8051,13.8236,60.3827,-0.2535,-0.3066,-0.2865,333.9531
10:18:42:857,0.5841,1.6902,13.3926,60.8806,-0.1539,-0.1515,-0.1955,333.9531
10:18:42:857,1.0965,1.6998,12.2698,60.9824,-0.1026,0.0263,-0.0941,333.0156
10:18:42:858,1.6974,1.506,11.8436,60.9151,-0.1936,-0.0073,-0.1087,333.0156
10:18:42:881,1.8482,0.9099,13.1243,61.1893,-0.3677,-0.2052,-0.2126,331.8594
10:18:42:899,2.0423,0.2704,14.3743,60.7938,-0.4105,-0.1997,-0.2492,331.75
10:18:42:919,2.0112,-0.0861,13.8308,60.5949,-0.226,0.0855,-0.1979,330.4062
10:18:42:944,1.7022,0.3042,10.2945,60.4808,0.3726,0.4594,0.0067,330.2656
10:18:42:961,2.2863,0.5961,9.1119,60.4331,0.518,0.303,0.1173,329.0938
10:18:42:981,2.8561,0.9601,8.3507,60.2327,0.5296,0.1167,0.1093,328.9688
10:18:42:999,2.7413,1.2473,7.7952,59.964,0.4429,0.014,-0.047,328.2344
10:18:43:019,1.9104,1.3693,7.2015,59.764,0.3311,0.0226,-0.2511,328.1562
10:18:43:043,0.9505,1.3095,6.6078,59.6575,0.2602,0.0702,-0.3732,327.9219
10:18:43:061,0.486,1.3597,5.8845,59.8416,0.2437,0.1081,-0.3573,328.3594
10:18:43:080,0.431,1.7644,5.097,59.8953,0.2181,0.1179,-0.2767,328.3594
10:18:43:099,0.5195,2.4443,4.9391,59.5167,0.1063,0.0397,-0.2266,328.6562
10:18:43:119,0.7301,3.0141,5.3509,59.525,-0.08,-0.0599,-0.2511,328.6719
10:18:43:143,0.8429,3.2082,6.2366,59.4154,-0.2761,-0.1142,-0.3751,328.6719
10:18:43:160,0.5818,3.0715,7.2757,59.4326,-0.4178,-0.1179,-0.5601,328.9062
10:18:43:181,-0.0287,2.8394,8.1473,59.6873,-0.5046,-0.0935,-0.7232,328.9062
10:18:43:201,-0.5961,2.6336,9.2773,59.6379,-0.5705,-0.0806,-0.7843,329.2656
10:18:43:219,-0.7899,2.5618,10.3232,59.5117,-0.5718,-0.0635,-0.7165,329.2656
10:18:43:243,-0.9505,2.5857,11.2546,59.5338,-0.4905,-0.0971,-0.617,329.4219
10:18:43:263,-1.2138,2.6432,12.0664,59.6755,-0.3793,-0.0874,-0.5107,329.3906
10:18:43:281,-1.4103,2.8274,12.7295,59.5179,-0.2902,0.0067,-0.35,329.3906
10:18:43:300,-1.3502,3.1196,13.153,59.3584,-0.2052,0.1301,-0.1558,329.9062
10:18:43:320,-1.0869,3.3039,13.4477,59.4156,-0.0874,0.2095,-0.0122,329.9062
10:18:43:343,-1.0869,3.4235,13.5649,59.274,0.0751,0.2523,0.0367,330.8281
10:18:43:362,-1.5849,3.5504,12.8922,59.3517,0.2541,0.3354,0.0428,330.8281
10:18:43:381,-2.0925,3.6197,11.1972,59.2753,0.383,0.4282,0.069,331.3906
10:18:43:400,-2.1045,3.5097,10.1988,59.1635,0.3628,0.3427,0.1155,331.4531
10:18:43:420,-1.2138,2.8609,10.6944,59.0197,0.1839,0.0892,0.1417,332.0156
10:18:43:443,-0.5985,1.8625,12.4373,59.0941,-0.0153,-0.171,0.0831,332.0625
10:18:43:463,-1.0175,0.9314,13.8284,59.0247,0.2737,0.0788,0.0195,333.1562
10:18:43:482,-2.6432,0.0167,10.3184,58.586,0.7122,0.3983,0.2785,333.25
10:18:43:499,-2.3414,0.6009,8.219,58.3091,0.9926,0.4123,0.6243,334.5
10:18:43:519,-1.5012,1.3525,7.0149,58.1035,0.9719,0.2883,0.8857,334.6094
10:18:43:543,-0.2369,2.016,6.3467,57.8187,0.6841,0.2034,0.9987,335.5469
10:18:43:560,0.7516,2.3844,6.6628,57.715,0.2321,0.1454,0.8784,336.0312
10:18:43:579,0.6464,2.461,7.3714,57.6127,-0.1704,0.1448,0.5632,336.0312
10:18:43:601,-0.3425,2.3725,7.9125,57.3717,-0.3903,0.2034,0.2437,336.0625
10:18:43:619,-1.1994,2.1835,7.9173,57.3705,-0.4416,0.2908,0.0733,336.0156
10:18:43:648,-1.5395,2.0183,7.8981,57.3277,-0.3879,0.3054,0.0421,336.0156
10:18:43:660,-1.5491,1.7716,8.1302,57.2927,-0.2706,0.2382,0.066,336.0312
10:18:43:681,-1.4318,1.398,8.0608,57.1329,-0.0892,0.1484,0.1118,336.0312
10:18:43:700,-1.3382,1.3023,8.0106,57.1261,0.0794,0.0055,0.1826,335.875
10:18:43:719,-1.1061,1.7764,9.1286,56.8267,0.1057,-0.1362,0.2865,335.875
10:18:43:743,-0.2082,2.3892,10.3137,56.541,0.0641,-0.0367,0.3958,335.8125
10:18:43:759,0.5004,3.0523,10.8954,56.4897,0.0983,0.182,0.3793,335.7188
10:18:43:781,0.297,3.3829,10.7925,56.2518,0.2291,0.3622,0.1845,335.7188
10:18:43:800,-0.3832,3.1603,9.9595,56.137,0.3659,0.43,-0.0519,334.5781
10:18:43:820,-0.8043,2.6312,9.4878,56.0314,0.4111,0.3183,-0.1771,334.5781
10:18:43:844,-0.874,2.2839,9.4065,55.8993,0.372,0.1686,-0.1753,332.7344
10:18:43:862,-0.862,2.2839,9.0233,55.8569,0.2871,0.1442,-0.1185,332.7344
10:18:43:880,-0.7947,2.3749,8.6785,55.94,0.1319,0.1435,-0.0458,331.7344
10:18:43:900,-0.711,2.5594,9.0257,56.0072,-0.0959,0.0367,0.0287,331.625
10:18:43:920,-0.4119,2.6384,9.8133,55.7134,-0.3286,-0.1191,0.1155,331.2188
10:18:43:944,0.2752,2.4419,10.5126,55.6025,-0.4795,-0.306,0.1961,331.1875
10:18:43:962,1.5562,1.1539,13.0813,55.6626,-0.598,-0.7184,0.1991,330.8594
10:18:43:983,1.8721,0.8477,14.5011,55.3481,-0.5412,-0.6921,0.2132,330.8281
10:18:43:999,1.7859,0.9003,14.5322,55.1168,-0.3079,-0.419,0.237,330.4219
10:18:44:018,1.7118,1.2855,12.7199,55.2459,0.0599,-0.0812,0.2926,330.3906
10:18:44:040,1.8745,1.7907,10.4695,54.9283,0.3714,0.0629,0.3091,329.6406
10:18:44:061,2.0782,2.3198,9.3084,54.7324,0.4826,-0.025,0.2272,329.5
10:18:44:080,2.0638,2.5355,8.4392,54.9135,0.4386,-0.0635,0.0354,329.5
10:18:44:099,1.6639,2.557,7.5775,54.8122,0.3189,0.014,-0.2138,329.4844
10:18:44:119,1.1276,2.3797,6.7968,54.9503,0.1576,0.1545,-0.4508,330
10:18:44:145,0.9458,1.9295,5.7649,54.921,-0.0122,0.3439,-0.6298,330.0469
10:18:44:160,0.5554,1.7405,4.9223,54.7819,-0.2089,0.4313,-0.7904,330.3281
10:18:44:180,-0.3185,1.7022,5.2813,54.4423,-0.4661,0.3482,-0.9578,330.3281
10:18:44:201,-1.0223,1.5634,6.1672,54.4431,-0.6762,0.2352,-1.0378,330.0469
10:18:44:220,-1.5275,1.3549,7.2063,54.3905,-0.7556,0.1613,-1.0164,330.0469
10:18:44:246,-1.8505,1.4557,8.2908,54.2242,-0.7294,0.1802,-0.8943,329.4062
10:18:44:261,-2.0423,1.9367,8.8726,54.2755,-0.6182,0.2743,-0.6976,328.7812
10:18:44:281,-2.1691,2.4634,8.6569,53.9249,-0.46,0.3641,-0.5235,328.7812
10:18:44:300,-2.4371,2.7461,8.7027,54.0613,-0.3928,0.3384,-0.4087,328.1875
10:18:44:320,-2.691,2.7628,9.1693,54.2098,-0.4325,0.2621,-0.2847,328.1875
10:18:44:346,-2.6934,2.7676,10.1916,54.1577,-0.4997,0.1271,-0.1069,327.8281
10:18:44:360,-2.3701,2.7843,11.5732,54.0099,-0.5119,-0.0397,0.102,327.8281
10:18:44:382,-1.5754,2.6886,12.7295,53.9277,-0.438,-0.1393,0.306,328.25
10:18:44:400,-0.5052,2.6527,13.8691,53.9232,-0.306,-0.1356,0.4478,328.25
10:18:44:420,0.2225,2.9279,14.4867,53.7508,-0.135,-0.0043,0.4752,329.2969
10:18:44:445,-0.0933,3.2752,13.9481,53.5427,0.0739,0.1607,0.3604,329.4062
10:18:44:459,-0.9697,3.0547,13.3328,53.3798,0.2663,0.1704,0.204,330.875
10:18:44:482,-2.2792,2.5403,11.5158,53.3326,0.5162,0.2462,0.2138,331.0312
10:18:44:500,-2.3103,2.4132,10.2515,53.3608,0.5204,0.3085,0.3378,332.6406
10:18:44:519,-1.9391,1.9582,10.2873,53.3938,0.4087,0.1826,0.4478,332.7969
10:18:44:538,-1.3813,1.2568,11.1876,53.2896,0.3054,0.0098,0.5168,333.9844
10:18:44:560,-1.5443,0.5865,11.4748,53.2358,0.3488,0.0012,0.565,334.75
10:18:44:580,-2.0016,0.5076,10.3184,53.3006,0.5345,0.1655,0.711,334.75
10:18:44:599,-1.6424,1.0247,8.3626,53.4912,0.7379,0.2694,0.956,334.8125
10:18:44:618,-0.2898,1.5802,6.9763,53.5946,0.7776,0.1344,1.1295,334.9062
10:18:44:640,0.984,2.5184,6.7848,53.4068,0.5443,-0.0788,1.0843,334.9219
10:18:44:660,1.2951,3.3517,7.9005,53.4377,0.1075,-0.1344,0.7788,334.1719
10:18:44:682,0.5889,3.0188,8.2717,53.6628,-0.2071,0.0605,0.3464,334.1562
10:18:44:702,-0.7947,2.0949,7.8455,53.627,-0.2566,0.2486,-0.0073,333.0156
10:18:44:719,-1.4629,1.4151,7.0364,53.5957,-0.1973,0.336,-0.077,333
10:18:44:741,-1.0917,1.1946,6.4017,53.6963,-0.2114,0.3109,0.0672,332.4844
10:18:44:762,-0.644,1.8793,7.369,53.8192,-0.3573,0.1338,0.2169,332.375
10:18:44:781,-0.3257,2.5259,8.8606,53.769,-0.4752,0.0061,0.27,332.375
10:18:44:801,-0.268,2.7078,10.1438,53.9176,-0.3848,-0.022,0.2248,331.7969
10:18:44:821,-0.3999,2.6958,9.9284,53.8462,-0.0519,0.058,0.171,331.7969
10:18:44:846,-0.4334,2.6551,8.5181,53.8068,0.3329,0.0935,0.1362,330.8281
10:18:44:861,-0.5363,2.691,7.5556,54.2284,0.482,0.0043,0.0928,330.8281
10:18:44:924,-0.5459,2.758,7.8574,54.2166,0.358,-0.1106,0.0617,329.3906
10:18:44:925,-0.3018,2.9614,8.7601,54.0595,0.1863,-0.1466,0.0446,329.3906
10:18:44:925,-0.3377,3.2943,8.9133,53.9988,0.0971,-0.0666,-0.0165,327.5781
10:18:44:942,-0.3568,3.4259,8.6282,54.1766,0.0079,-0.0189,-0.1216,327.3906
10:18:44:965,-0.0526,3.3135,9.3658,54.313,-0.1839,-0.1753,-0.2486,326.2344
10:18:44:982,-0.0455,3.0691,10.9603,54.6224,-0.4019,-0.3989,-0.4215,326.125
10:18:45:002,-0.7564,2.2457,13.0238,54.7756,-0.6127,-0.361,-0.7196,325.9688
10:18:45:020,-0.4214,1.3095,12.3942,54.7095,-0.6194,-0.1814,-0.7544,325.9688
10:18:45:039,0.3425,0.4836,12.3177,54.9453,-0.6628,-0.2199,-0.788,325.4531
10:18:45:062,0.996,-0.1555,13.4524,55.0186,-0.7782,-0.3237,-0.8717,325.3906
10:18:45:079,0.7923,-0.6535,14.659,55.2048,-0.8491,-0.1716,-0.967,324.6406
10:18:45:099,-0.6248,-1.1204,14.7643,55.4433,-0.733,0.182,-0.9841,324.5625
10:18:45:119,-1.4892,-1.7118,13.6511,55.7132,-0.3586,0.3812,-0.7226,324.3125
10:18:45:139,-0.8186,-1.7453,11.9871,55.743,0.1729,0.2957,-0.1576,324.2969
10:18:45:162,0.687,-0.8139,10.7686,55.9511,0.6603,0.0678,0.43,324.4062
10:18:45:181,2.2504,0.6464,9.4711,56.1678,0.9548,-0.0953,0.7733,324.4219
10:18:45:200,2.9375,2.1978,8.0608,56.26,0.9578,-0.0861,0.7318,324.5156
10:18:45:220,2.3222,3.0909,6.737,56.5616,0.7416,0.0892,0.3464,324.5156
10:18:45:241,1.2018,3.1484,5.8415,56.6086,0.4679,0.2388,-0.0837,324.8906
10:18:45:262,0.2345,2.6838,5.7482,56.4029,0.2181,0.2559,-0.3464,325.8125
10:18:45:281,-0.2034,2.2337,6.373,56.457,0.0538,0.234,-0.4093,325.8125
10:18:45:302,-0.2536,2.3916,6.9476,56.5033,0.0458,0.2321,-0.3231,327.0938
10:18:45:320,-0.1101,2.9207,6.8447,56.4934,0.193,0.2291,-0.2327,327.0938
10:18:45:339,-0.2632,3.3398,6.4304,56.6077,0.3378,0.16,-0.2303,328.4844
10:18:45:363,-0.5674,3.4164,6.428,56.6391,0.3213,0.047,-0.2767,328.4844
10:18:45:380,-0.833,3.457,6.8447,56.6851,0.1533,-0.0183,-0.2963,330.125
10:18:45:401,-0.9123,3.3494,7.8838,56.9986,-0.0507,-0.0971,-0.2938,330.125
10:18:45:420,-0.9505,3.1914,9.7798,57.5215,-0.1851,-0.193,-0.2798,330.9219
10:18:45:442,-1.2688,3.4044,11.1733,57.5823,-0.1765,-0.1228,-0.2254,331.0156
10:18:45:462,-1.5084,3.7995,11.1781,57.6573,-0.0861,0.0941,-0.1252,330.3125
10:18:45:480,-1.3765,3.9503,11.1135,57.7998,-0.069,0.2223,-0.036,330.2344
10:18:45:501,-0.7086,3.8019,12.7199,57.9548,-0.1527,0.2431,-0.0012,329.6719
10:18:45:520,-0.9482,3.7373,12.2722,58.1954,-0.0751,0.3854,-0.0611,329.625
10:18:45:539,-1.6711,3.6173,10.9098,58.3135,-0.0006,0.5204,-0.1307,330.2031
10:18:45:562,-2.1858,3.39,10.1916,58.4662,0.022,0.4416,-0.1454,330.2656
10:18:45:580,-2.0901,2.9375,10.6968,58.3358,0.0519,0.1454,-0.1203,330.9844
10:18:45:599,-1.6998,2.1643,11.403,58.6252,0.1607,-0.1301,-0.1118,331.0625
10:18:45:619,-1.9992,1.386,10.9795,59.0883,0.2957,-0.1472,-0.1155,331.6562
10:18:45:639,-2.7508,1.142,10.1127,59.2197,0.3518,-0.0428,-0.0214,331.7188
10:18:45:663,-2.5834,1.3717,9.373,59.4889,0.3115,-0.011,0.2236,332.4375
10:18:45:681,-1.5251,1.7477,9.318,59.7223,0.1955,-0.1063,0.4355,332.5156
10:18:45:701,-0.5578,1.8888,10.0863,59.9436,-0.0409,-0.1307,0.4288,333.0938
10:18:45:719,-0.5961,1.707,10.7925,60.1585,-0.3616,0.113,0.2584,333.0938
10:18:45:739,-1.2401,1.1372,11.0393,60.5026,-0.5235,0.4025,0.0874,333.3906
10:18:45:765,-1.8314,0.5722,10.1246,60.7467,-0.3427,0.5052,0.0501,333.3125
10:18:45:781,-2.0782,0.5219,8.863,60.8814,-0.0098,0.3861,0.1613,333.3125
10:18:45:801,-1.8147,0.7708,7.9196,61.1006,0.2107,0.1906,0.3457,333.25
10:18:45:820,-1.3525,1.3143,7.8861,61.242,0.2517,0.0495,0.507,333.25
10:18:45:840,-1.0343,1.8649,7.9101,61.4834,0.2425,0.0843,0.5919,333.4844
10:18:45:864,-0.8139,2.3055,7.558,61.7911,0.2657,0.2425,0.606,333.4844
10:18:45:880,-0.62,2.8059,7.1369,61.8229,0.2902,0.3867,0.584,333.8125
10:18:45:900,-0.6799,3.4451,6.5671,61.8483,0.2749,0.46,0.5198,333.8125
10:18:45:919,-0.8764,3.8713,6.4594,61.9554,0.2382,0.3402,0.405,334.2344
10:18:45:941,-0.7708,4.0196,6.5599,62.4437,0.2401,0.091,0.2737,334.2344
10:18:45:961,-0.8402,4.0268,6.7968,62.8011,0.2248,-0.1179,0.1026,333.7656
10:18:45:980,-1.1731,3.8258,7.1728,62.8645,0.1106,-0.1869,-0.0715,333.7188
10:18:45:999,-1.2927,3.5575,7.6516,62.9352,-0.0855,-0.204,-0.1888,332.8906
10:18:46:020,-0.9218,2.8825,10.436,62.9811,-0.4459,-0.5162,-0.3702,332.8125
10:18:46:040,-0.7349,2.7461,11.6067,63.2634,-0.5418,-0.5046,-0.4368,332.2969
10:18:46:062,-0.9769,2.5738,12.2483,63.6004,-0.5882,-0.3909,-0.5046,332.25
10:18:46:080,-1.0774,2.2457,12.6482,63.8604,-0.606,-0.3036,-0.5229,331.75
10:18:46:099,-0.6057,1.7477,13.1172,63.6987,-0.6243,-0.2969,-0.4801,331.7188
10:18:46:119,-0.1149,1.1109,14.0797,63.9005,-0.6389,-0.3439,-0.4618,330.7812
10:18:46:138,-0.0072,0.4071,15.2695,64.0793,-0.565,-0.3244,-0.452,330.6875
10:18:46:163,-0.3305,-0.2345,15.2647,64.2327,-0.3005,-0.146,-0.3598,329.625
10:18:46:179,-0.4525,-0.3664,13.5075,64.6723,0.1106,0.0666,-0.1271,329.5156
10:18:46:200,-0.0766,0.067,11.5229,64.6021,0.4526,0.1209,0.168,328.5938
10:18:46:219,0.7636,0.6942,10.206,64.564,0.5852,0.0861,0.405,328.5781
10:18:46:241,1.5754,1.3334,9.3682,64.5578,0.5638,0.0831,0.5039,328.3594
10:18:46:258,1.7477,1.8529,8.5229,64.5137,0.4801,0.1735,0.4361,328.7031
10:18:46:282,1.5084,2.2409,7.3953,64.3469,0.3964,0.292,0.2926,328.7031
10:18:46:299,1.1133,2.581,6.4977,64.3595,0.3207,0.284,0.1374,329.25
10:18:46:320,0.6416,2.9351,6.1505,64.4223,0.2449,0.1405,-0.0147,329.25
10:18:46:340,0.3281,3.1986,6.2079,64.2601,0.1704,-0.0269,-0.135,329.9688
10:18:46:363,0.3975,3.1699,6.9404,64.4817,0.102,-0.1753,-0.2278,329.9688
10:18:46:381,0.5148,3.0885,7.6038,64.786,0.0739,-0.2059,-0.3274,330.6719
10:18:46:400,0.2201,3.0715,7.8024,64.8852,0.0977,-0.1374,-0.4502,330.6719
10:18:46:419,-0.2393,2.9542,7.7833,64.9445,0.1381,-0.099,-0.5424,331.2969
10:18:46:439,-0.6296,2.7963,7.8239,64.9641,0.1521,-0.1209,-0.554,331.2969
10:18:46:459,-0.874,2.7796,8.219,65.1759,0.1387,-0.1747,-0.4856,331.7344
10:18:46:480,-0.711,2.8801,8.3698,65.2609,0.1228,-0.1747,-0.3628,331.7656
10:18:46:500,-0.6033,3.213,8.729,65.253,0.0562,-0.1448,-0.2657,331.5312
10:18:46:520,-0.8572,3.5862,9.4304,65.0382,-0.0544,-0.1106,-0.2236,331.5
10:18:46:541,-1.6328,3.845,11.1374,64.8282,-0.1515,-0.0831,-0.0843,330.8906
10:18:46:559,-1.2353,3.7899,12.2052,64.7776,-0.1246,-0.0525,0.0745,330.8281
10:18:46:580,-0.7038,4.0603,12.7917,64.9467,-0.0079,0.0318,0.2211,330.5781
10:18:46:599,-0.4047,4.6923,12.4493,64.87,0.1912,0.1393,0.2639,330.5625
10:18:46:619,-0.5124,5.0085,11.4054,64.8092,0.3512,0.2211,0.1619,330.8281
10:18:46:639,-0.9147,4.678,10.4025,64.4921,0.3262,0.2932,-0.0312,330.8594
10:18:46:664,-1.3621,3.9933,10.0935,64.4061,0.124,0.2382,-0.2059,331.5156
10:18:46:680,-1.6902,2.9949,11.2235,64.3319,-0.0977,-0.0214,-0.3244,331.5781
10:18:46:700,-2.1236,2.1787,12.8324,64.2088,-0.1063,-0.1814,-0.3537,332.6719
10:18:46:720,-2.8298,1.5849,11.4437,63.9585,0.1924,0.0617,-0.237,332.7812
10:18:46:741,-2.9638,1.628,8.4105,63.7536,0.4954,0.3091,0.0012,334.0625
10:18:46:759,-2.5331,1.8362,6.4232,63.658,0.4783,0.1759,0.215,334.8594
10:18:46:782,-1.6974,2.0183,6.7561,63.5213,0.1057,-0.1478,0.3305,334.8594
10:18:46:801,-0.833,1.9391,8.8798,63.6672,-0.4056,-0.2743,0.3512,335.2656
10:18:46:819,-0.6392,1.7931,10.3208,63.4698,-0.7025,-0.0568,0.3085,335.2656
10:18:46:840,-1.0678,1.6854,10.1701,63.2816,-0.6133,0.2413,0.2669,335.1875
10:18:46:863,-1.5514,1.628,8.918,63.2934,-0.281,0.4172,0.3073,335.1875
10:18:46:881,-1.4725,1.7453,7.2422,63.1863,0.0299,0.4594,0.4575,334.7031
10:18:46:901,-1.1276,2.1739,6.4113,62.9737,0.149,0.3555,0.6029,334.7031
10:18:46:920,-0.6846,2.6551,6.6772,62.7522,0.1258,0.2016,0.6725,334.7656
10:18:46:998,-0.3114,3.0885,7.2446,62.5639,0.099,0.1466,0.6579,334.7656
10:18:46:998,-0.3736,3.4977,7.1608,62.4038,0.1435,0.2333,0.5595,335.2812
10:18:46:999,-0.7971,3.9072,6.6532,62.3628,0.1759,0.3531,0.4154,335.3281
10:18:46:999,-1.3884,4.1847,6.2725,62.3004,0.0953,0.4148,0.2877,335.9531
10:18:47:019,-1.5467,4.2927,6.6532,61.9446,-0.044,0.3152,0.2236,336.0156
10:18:47:043,-1.3095,4.4865,7.3881,61.7926,-0.1307,-0.0788,0.0892,336.0938
10:18:47:066,-0.9051,4.2855,7.9771,61.4254,-0.2138,-0.2657,-0.0214,336.1094
10:18:47:080,-0.3712,3.7397,9.131,61.5798,-0.4398,-0.4044,-0.179,335.375
10:18:47:099,-0.1795,3.1531,11.2881,61.4099,-0.7782,-0.485,-0.3702,335.2969
10:18:47:118,-0.3664,2.1165,13.6319,61.0114,-1.0232,-0.4856,-0.5217,334.2656
10:18:47:139,-0.9266,1.0319,14.9345,60.7634,-0.9731,-0.4386,-0.5406,334.1562
10:18:47:159,-1.0606,0.4501,14.956,60.7808,-0.7141,-0.3836,-0.3341,333.2188
10:18:47:183,-0.2393,0.6464,14.3504,60.7587,-0.4801,-0.3286,0.0177,333.125
10:18:47:200,1.1085,1.13,14.4126,60.6301,-0.3787,-0.3066,0.2633,331.8906
10:18:47:220,1.9848,1.0367,14.3216,60.6791,-0.3341,-0.1466,0.2688,331.7656
10:18:47:241,1.9032,0.5578,13.8787,60.1796,-0.2511,0.0757,0.1344,330.4844
10:18:47:264,1.5802,0.1292,12.4612,59.7538,-0.0483,0.2627,0.055,329.7031
10:18:47:282,1.4773,0.0383,10.8332,59.7955,0.171,0.3176,0.0947,329.7031
10:18:47:299,1.8242,0.5219,9.7917,59.6432,0.284,0.2743,0.2156,329.1406
10:18:47:320,2.5355,1.3334,9.2363,59.0678,0.2761,0.2419,0.281,329.1406
10:18:47:341,3.1005,1.7453,8.3722,58.811,0.2065,0.2981,0.1503,328.9688
10:18:47:358,2.8585,1.8984,7.3403,58.341,0.0874,0.3042,-0.1466,328.9688
10:18:47:381,1.6807,2.0925,7.4097,58.0535,-0.08,0.1594,-0.4752,329.2031
10:18:47:399,0.4095,2.1667,7.9699,57.7364,-0.1662,0.047,-0.6689,329.2031
10:18:47:420,-0.3879,2.3222,7.9723,57.6796,-0.091,0.0788,-0.6829,329.7031
10:18:47:440,-0.5554,2.4802,7.1201,57.1318,0.1002,0.113,-0.6121,329.7031
10:18:47:464,-0.5698,2.6504,6.3036,56.8823,0.2059,0.0189,-0.5687,329.6719
10:18:47:482,-0.8067,2.9064,6.7322,56.8309,0.0611,-0.1539,-0.5644,329.6719
10:18:47:500,-0.9194,3.4355,8.3626,56.5657,-0.204,-0.234,-0.5577,328.9531
10:18:47:520,-0.941,3.4475,10.0816,56.5788,-0.3512,-0.1252,-0.5974,328.875
10:18:47:541,-1.3813,2.703,11.3815,56.4099,-0.3134,0.1234,-0.6713,328.5625
10:18:47:565,-1.7524,1.8553,11.3575,56.3684,-0.1222,0.4062,-0.6127,328.5156
10:18:47:583,-1.9582,2.4084,10.8811,55.9226,0.1063,0.4826,-0.3897,328.3281
10:18:47:599,-1.9032,2.8226,11.3504,55.8692,0.452,0.0745,0.0806,328.2969
10:18:47:619,-1.5514,2.5475,11.2092,55.4663,0.6463,-0.0342,0.2651,328
10:18:47:640,-1.2784,2.648,10.4288,55.2818,0.7648,0.0037,0.4453,327.9688
10:18:47:659,-0.9242,3.3852,9.763,55.1234,0.73,0.1209,0.6151,328.5469
10:18:47:684,-0.6105,3.9766,9.4472,55.04,0.5846,0.2395,0.6896,328.6094
10:18:47:700,-0.7899,4.4961,9.8495,54.8058,0.4349,0.2449,0.6383,329.8594
10:18:47:719,-0.9003,4.7955,9.8375,54.6132,0.3812,0.2303,0.5259,329.9844
10:18:47:741,-0.8572,4.8099,9.0473,54.6641,0.3488,0.237,0.3641,331.3906
10:18:47:765,-0.7947,4.1632,8.5732,54.4622,0.1802,0.1497,0.1393,332.5938
10:18:47:782,-0.5985,2.9949,9.2749,54.3902,-0.1038,-0.0696,-0.0806,332.5938
10:18:47:801,-1.1324,2.1811,11.0895,54.3428,-0.3244,-0.3653,-0.2798,333.75
10:18:47:820,-2.0949,1.2497,12.5067,54.1467,-0.3189,-0.4838,-0.3775,333.75
10:18:47:840,-2.557,0.2321,12.3488,53.9138,-0.1203,-0.3054,-0.2327,334.8125
10:18:47:865,-2.5427,-0.1627,10.8619,53.6918,0.1289,-0.0226,0.1185,334.8125
10:18:47:883,-2.016,0.5794,9.3658,53.6937,0.2932,0.1497,0.5504,335.1562
10:18:47:901,-0.7636,1.5156,8.2597,53.6627,0.3549,0.1979,0.8717,335.1562
10:18:47:919,0.6894,1.951,7.5078,53.9191,0.3213,0.1704,0.9187,334.9531
10:18:47:941,1.3717,2.2265,7.5485,54.0448,0.1936,0.0733,0.6994,334.9531
10:18:47:965,1.1037,2.4897,7.9962,53.9503,0.0428,0.0397,0.372,334.0312
10:18:47:984,0.5411,2.3079,7.7091,53.9908,0.011,0.0904,0.0837,334.0312
10:18:47:999,0.0407,1.7572,7.1082,54.1576,0.0757,0.0409,-0.1216,333.125
10:18:48:020,-0.443,1.4509,6.8997,54.3247,0.0806,-0.0782,-0.2309,333.0312
10:18:48:042,-0.7923,1.573,7.4815,54.5257,-0.0189,-0.099,-0.2547,332.6875
10:18:48:058,-1.0008,1.7716,7.8048,54.6362,-0.1216,0.0904,-0.2413,332.6562
10:18:48:084,-1.6161,2.0375,7.788,54.4712,-0.1741,0.3683,-0.2395,332.8906
10:18:48:102,-2.1117,3.0452,6.6724,54.6768,-0.0147,0.584,-0.0312,332.9219
10:18:48:118,-2.0495,3.7588,6.5432,54.9258,0.0189,0.4197,0.0501,333.4375
10:18:48:139,-2.0279,4.6181,7.3211,55.1363,-0.0983,0.1955,0.0623,333.4844
10:18:48:159,-1.5395,4.8218,8.6139,55.084,-0.2559,-0.022,0.0098,332.9688
10:18:48:183,-0.9625,4.343,10.2419,55.1725,-0.3543,-0.2682,-0.1295,332.9062
10:18:48:200,-0.4621,3.766,12.1358,55.1899,-0.3928,-0.463,-0.2926,331.3438
10:18:48:221,0.0167,3.2441,13.4572,55.4776,-0.3793,-0.4453,-0.4325,331.1875
10:18:48:240,-0.5722,2.624,13.6534,55.6586,-0.3219,-0.2364,-0.5815,330.1719
10:18:48:260,-1.4725,1.9944,13.1124,55.8511,-0.2285,-0.0507,-0.5974,330.125
10:18:48:282,-1.1803,1.4725,12.5378,56.038,-0.1307,0.0165,-0.3848,330.125
10:18:48:301,-0.1364,1.2736,12.344,56.2289,-0.0654,0.0171,-0.149,330.7031
10:18:48:320,0.5387,1.2281,11.8244,56.6401,-0.0483,0.0922,-0.0641,330.7031
10:18:48:340,0.4143,1.209,11.6282,57.091,-0.1356,0.1912,-0.0947,331.0625
10:18:48:359,0.0287,1.2832,11.4102,57.4333,-0.234,0.2834,-0.0892,331.0625
10:18:48:385,0.1292,1.5203,10.9555,57.515,-0.226,0.2395,-0.0061,331.0938
10:18:48:401,0.7875,1.829,10.5987,57.6449,-0.1191,0.0128,0.0501,331.0938
10:18:48:420,1.3262,2.0136,10.1103,57.6403,-0.0611,-0.135,-0.0067,330.875
10:18:48:442,1.209,2.1715,9.6075,57.7999,-0.1655,-0.0519,-0.1533,330.8594
10:18:48:458,0.4813,2.4514,9.5022,58.1146,-0.3628,0.1845,-0.3115,330.7656
10:18:48:482,-0.3329,2.6288,8.9779,58.1808,-0.4765,0.5015,-0.4111,330.7656
10:18:48:502,-1.0415,2.9207,8.2358,58.1577,-0.4557,0.7263,-0.4209,331.2812
10:18:48:520,-1.3549,3.3254,7.2613,58.2833,-0.3347,0.7654,-0.3482,331.3281
10:18:48:541,-1.3789,3.4857,6.9356,58.3589,-0.1955,0.5809,-0.2798,332.3125
10:18:48:565,-1.2257,3.4475,7.3666,58.6265,-0.0861,0.3347,-0.2407,332.4062
10:18:48:583,-0.5267,3.1795,8.1254,59.0108,0.2272,0.0641,-0.1802,332.875
10:18:48:601,-0.4669,3.1316,7.5293,59.3343,0.4288,0.0519,-0.1857,332.9219
10:18:48:621,-1.1324,3.2489,6.5575,59.2619,0.5302,0.0299,-0.2083,333
10:18:48:639,-1.3382,3.1747,6.1887,59.5869,0.4685,-0.1277,-0.1643,333.0156
10:18:48:660,-0.8835,2.9566,7.3786,60.0593,0.2443,-0.3781,-0.091,332.8906
10:18:48:683,-0.6488,3.1196,9.4352,60.159,-0.0611,-0.471,-0.0513,332.8906
10:18:48:700,-0.7086,3.3494,11.2187,60.4167,-0.2828,-0.3183,-0.0434,332.7812
10:18:48:719,-1.1994,3.3541,12.6072,60.6045,-0.3488,-0.0855,-0.0739,332.7656
10:18:48:740,-1.9558,3.0691,12.3918,60.6661,-0.2914,0.2095,-0.0788,333.0156
10:18:48:759,-2.7796,2.9662,12.0927,60.6645,-0.2431,0.3323,0.0061,333.4844
10:18:48:784,-3.189,3.3637,12.4971,60.9355,-0.1716,0.2468,0.1869,333.4844
10:18:48:801,-2.9734,3.9431,12.1813,61.0803,0.0073,0.1979,0.3537,333.8906
10:18:48:819,-2.3988,4.0173,10.9241,61.162,0.1588,0.1552,0.3769,333.8906
10:18:48:842,-2.0351,3.2154,10.3663,61.506,0.0831,-0.0611,0.2431,334.3438
10:18:48:858,-1.8458,2.0901,12.0832,61.8365,-0.1484,-0.4465,0.0709,334.3438
10:18:48:881,-2.2983,1.2185,14.1395,62.1485,-0.1582,-0.6139,-0.0367,335.0469
10:18:48:901,-3.2369,0.7612,13.6893,62.4117,0.2248,-0.3134,0.044,335.0469
10:18:48:921,-3.3924,0.9984,10.3639,62.593,0.7361,0.1527,0.3433,335.9219
10:18:48:940,-2.4347,1.439,7.4527,62.8384,0.9767,0.3256,0.6396,335.9219
10:18:48:959,-1.2401,1.7189,5.4491,62.8693,0.8356,0.2755,0.7367,336.2031
10:18:48:985,-0.5506,1.8553,5.2478,62.9321,0.3958,0.1002,0.6243,336.2031
10:18:49:068,-0.4214,1.5826,6.3347,62.9182,-0.1045,-0.0049,0.4215,336.0781
10:18:49:069,-0.7804,0.9123,7.3738,62.8841,-0.4282,0.0654,0.2566,336.0625
10:18:49:069,-1.1157,0.644,7.4288,62.8531,-0.4954,0.1851,0.2346,335.9062
10:18:49:070,-1.3047,1.0271,7.2876,62.8738,-0.427,0.1576,0.3146,335.8906
10:18:49:088,-1.2832,1.7094,7.3594,63.2998,-0.3231,0.0049,0.427,335.2656
10:18:49:101,-1.1396,2.0901,7.7426,63.3368,-0.1942,-0.1881,0.4966,335.2188
10:18:49:121,-1.185,2.4467,6.7968,63.4603,0.0727,-0.2535,0.5259,334.6875
10:18:49:141,-1.118,2.8131,6.4448,63.5901,0.0098,-0.1942,0.543,334.6406
10:18:49:159,-0.7349,3.1986,6.8495,63.6636,-0.1936,-0.1332,0.5351,334.5
10:18:49:179,-0.4836,3.4738,8.0584,63.9503,-0.4019,-0.1368,0.4343,334.4844
10:18:49:200,-0.3449,3.2704,9.3443,64.2477,-0.4856,-0.2028,0.2566,334.5
10:18:49:222,-0.3664,2.7796,10.1821,64.5554,-0.4667,-0.2407,0.0672,334.5
10:18:49:239,-0.5961,2.2241,10.8835,64.4163,-0.4636,-0.237,-0.0849,333.8438
10:18:49:258,-0.5171,1.6807,11.9106,64.6749,-0.4972,-0.2523,-0.1808,332.75
10:18:49:285,-0.7971,1.1922,13.0932,64.7709,-0.5363,-0.2181,-0.2517,332.75
10:18:49:301,-1.4151,0.8234,13.8021,64.8305,-0.5504,-0.0232,-0.2248,331.7656
10:18:49:319,-1.1683,0.8402,13.5266,65.013,-0.5015,0.2584,-0.0061,331.7656
10:18:49:341,0.0933,1.1731,12.6362,65.0049,-0.3891,0.43,0.2474,330.5938
10:18:49:358,1.4174,1.5706,11.7861,65.1465,-0.3066,0.3952,0.3036,330.5938
10:18:49:380,2.0758,1.8003,11.9991,65.0336,-0.3256,0.1912,0.1332,329.4062
10:18:49:401,1.6639,1.1994,13.3663,64.9366,-0.3635,0.0214,-0.1576,329.4062
10:18:49:421,0.8812,0.3688,13.4237,64.7386,-0.2639,0.0849,-0.3231,329.4062
10:18:49:440,0.8907,0.0263,12.2459,64.7616,-0.0495,0.1106,-0.2737,328.3125
10:18:49:458,1.4055,0.1699,11.6282,64.6363,0.0849,-0.0495,-0.1704,327.0156
10:18:49:485,1.7836,0.3185,11.5158,64.619,0.1093,-0.1912,-0.1576,327.0156
10:18:49:501,1.6807,0.3664,10.9747,64.4489,0.1472,-0.182,-0.2254,326.2812
10:18:49:520,1.0678,0.7158,9.7606,64.3405,0.2285,-0.0507,-0.303,326.2812
10:18:49:541,0.3808,1.2066,8.2382,64.2377,0.2804,0.1417,-0.3292,326.2031
10:18:49:559,0.1579,1.707,6.9117,64.3263,0.2651,0.2828,-0.2969,326.2031
10:18:49:585,0.2369,2.1787,5.9016,64.3506,0.1955,0.3262,-0.2816,326.2812
10:18:49:599,0.0933,2.7054,5.9064,64.2374,0.0586,0.2486,-0.347,326.2812
10:18:49:621,-0.2728,2.6527,7.18,64.1456,-0.1161,0.1454,-0.5553,325.6094
10:18:49:640,-0.5602,2.3581,7.6851,64.0016,-0.0421,0.0629,-0.6408,325.6094
10:18:49:658,-1.0774,2.2289,7.6014,64.1019,0.0593,0.0165,-0.6683,324.8906
10:18:49:679,-1.4246,2.0758,7.7641,63.9469,0.0837,-0.0745,-0.6237,324.8125
10:18:49:700,-1.5132,1.8697,8.4057,63.7726,0.0428,-0.1674,-0.5204,325.0312
10:18:49:719,-1.3525,1.9008,9.44,63.7678,-0.0165,-0.1753,-0.361,325.0469
10:18:49:739,-1.3813,2.2935,10.3017,63.7593,-0.0476,-0.0764,-0.1863,325.5
10:18:49:759,-1.7118,2.5786,10.6298,63.7462,-0.0214,0.0421,-0.0336,326.0625
10:18:49:780,-1.8099,2.7293,10.8165,63.7101,0.0434,0.0538,0.1552,326.0625
10:18:49:800,-1.2544,3.0093,11.1087,63.5677,0.0776,-0.014,0.3891,327.0156
10:18:49:819,-0.5124,3.5886,12.1071,63.3903,0.0702,-0.1075,0.5473,327.0156
10:18:49:840,-0.2584,4.1058,12.9832,63.1484,0.1173,-0.0983,0.5418,327.8281
10:18:49:858,-0.6464,4.113,12.6864,63.0722,0.2511,0.0672,0.4093,327.8281
10:18:49:879,-1.0893,3.8043,11.5684,62.589,0.358,0.2914,0.2828,328.6094
10:18:49:901,-1.0774,3.603,10.0768,62.3608,0.3409,0.4368,0.2138,328.6875
10:18:49:919,-1.0199,3.4068,9.8279,62.0829,0.1655,0.2676,0.0898,328.6875
10:18:49:942,-1.0487,2.703,11.8531,62.066,-0.0611,-0.1735,-0.1289,329.9219
10:18:49:959,-1.8482,1.7716,13.6965,61.8691,-0.0635,-0.419,-0.3488,331.4062
10:18:49:979,-2.7676,0.6846,13.0454,61.5911,0.2162,-0.2413,-0.3806,331.4062
10:18:50:001,-2.6456,-0.0646,11.0178,61.385,0.4862,0.0464,-0.1539,332.4062
10:18:50:019,-1.841,-0.1436,9.5285,61.0785,0.4752,0.2095,0.1429,332.4062
10:18:50:040,-1.1755,0.268,9.3945,60.801,0.2517,0.2449,0.3494,332.6094
10:18:50:059,-0.7804,0.644,9.5716,60.3248,0.0739,0.2883,0.4429,332.625
10:18:50:086,-0.4549,0.8835,9.3873,60.0668,0.08,0.3512,0.4844,332.1406
10:18:50:100,0.0359,1.051,8.1927,59.4915,0.2407,0.427,0.5094,332.0781
10:18:50:122,0.2608,1.3645,6.4376,59.0409,0.2999,0.2669,0.3916,331.0781
10:18:50:141,-0.4047,2.7461,6.9021,58.7262,0.1521,0.0611,0.3146,330.9844
10:18:50:159,-0.285,2.6815,7.4192,58.5044,0.1643,-0.0935,0.2303,330.5156
10:18:50:179,-0.2321,2.557,6.8686,58.3222,0.3128,-0.1472,0.1179,330.4688
10:18:50:202,-0.5794,2.4921,6.0835,57.9561,0.3476,-0.1448,0.0086,330.3438
10:18:50:219,-1.1922,2.7437,6.0858,57.8863,0.1771,-0.11,-0.0428,330.3438
10:18:50:239,-1.4821,3.201,6.2462,57.5843,-0.025,-0.0562,-0.0171,330.7812
10:18:50:258,-1.2808,3.5456,6.3514,57.4188,-0.1607,-0.0953,-0.0061,331.6562
10:18:50:280,-1.1204,3.5695,7.4145,57.3027,-0.3451,-0.2248,-0.0641,331.6562
10:18:50:301,-1.0463,3.4618,9.3802,57.2853,-0.5718,-0.2877,-0.1271,331.5
10:18:50:319,-0.9242,3.0787,10.8284,57.1617,-0.6353,-0.2523,-0.1668,331.5
10:18:50:340,-0.9266,2.5232,11.348,56.8703,-0.4997,-0.2584,-0.2028,330.5156
10:18:50:359,-1.1587,2.2074,10.9193,56.6043,-0.3531,-0.2669,-0.1961,330.5156
10:18:50:380,-1.1874,2.1284,10.4145,56.1864,-0.4032,-0.2364,-0.1155,330.5156
10:18:50:401,-0.9864,2.1045,11.391,55.6795,-0.6518,-0.1973,-0.0318,329.6719
10:18:50:419,-0.4143,1.8386,12.1956,55.3583,-0.8417,-0.036,0.0507,329.6562
10:18:50:440,0.3568,1.3789,12.277,55.0374,-0.8643,0.0941,0.1191,329.0781
10:18:50:458,0.9123,1.2138,12.2818,54.5802,-0.7825,0.0177,0.1332,328.9219
10:18:50:479,1.1611,1.0391,12.6673,54.0112,-0.6298,-0.2309,0.0556,328.9219
10:18:50:501,1.0391,0.6057,13.1868,53.8075,-0.4178,-0.4135,-0.0861,329.2344
10:18:50:519,0.5865,-0.0024,12.5521,53.5255,-0.2095,-0.3164,-0.2071,329.2344
10:18:50:540,0.1507,-0.3616,11.4772,53.0664,-0.1203,-0.1045,-0.2181,329.2031
10:18:50:559,0.6033,-0.3808,10.6298,52.7153,-0.1246,-0.0018,-0.1051,329.1875
10:18:50:580,1.2879,-0.1029,10.4934,52.4496,-0.1558,-0.0397,-0.0275,329.0469
10:18:50:602,1.2736,0.419,10.4216,51.9205,-0.1539,-0.0336,-0.0782,329.0156
10:18:50:620,0.7277,0.8644,9.5453,51.4096,-0.0635,0.0776,-0.1692,328.9531
10:18:50:641,-0.1795,1.6352,7.4982,51.1278,0.1991,-0.0116,-0.2059,328.9531
10:18:50:660,-0.3473,2.1021,6.8447,50.5611,0.2706,-0.1387,-0.1692,328.9844
10:18:50:679,-0.1196,2.3222,6.4714,50.1804,0.2156,-0.146,-0.1228,328.9844
10:18:50:702,0.5746,2.3701,6.6891,49.9497,0.0079,-0.025,-0.0892,328.375
10:18:50:720,0.9769,2.6862,7.3379,49.7541,-0.2596,0.1545,-0.1173,328.3281
10:18:50:738,0.7804,3.0212,8.5493,49.0054,-0.4172,0.2107,-0.2211,327.3906
10:18:50:759,0.2584,2.6647,9.3682,48.5965,-0.3225,0.1191,-0.3464,326.9375
10:18:50:780,-0.498,2.2313,9.3514,48.1504,-0.0867,0.0153,-0.3928,326.9375
10:18:50:803,-1.0678,2.193,8.997,47.4923,0.0617,0.0116,-0.2847,327.2188
10:18:50:819,-1.1444,2.5161,9.0353,47.2284,0.0458,0.0556,-0.0855,327.2188
10:18:50:840,-1.0104,2.77,9.7869,46.7066,-0.0354,0.0257,0.0776,327.25
10:18:50:858,-0.8043,2.9064,10.8858,46.1921,-0.0825,-0.0379,0.1875,327.25
10:18:50:879,-0.4214,3.0691,12.0999,45.8552,-0.0812,-0.0953,0.2718,327.25
10:18:50:903,0.1675,2.9853,13.3161,45.3934,-0.0586,-0.0977,0.3042,327.4375
10:18:50:920,0.5961,2.7724,14.8313,45.1477,-0.0024,-0.0696,0.2572,327.4375
10:18:50:942,0.1316,2.6049,15.4421,44.8865,0.1906,0.1038,0.1448,328
10:18:50:959,-1.2018,2.4586,13.6774,44.5053,0.507,0.449,0.0544,328.5312
10:18:50:979,-1.9391,2.272,10.9675,43.787,0.7385,0.6628,0.0971,328.5312
10:18:51:002,-1.7907,2.1404,9.8207,43.4156,0.7226,0.4728,0.2156,328.6562
10:18:51:019,-1.1492,1.7596,11.3097,42.9817,0.5773,0.0458,0.2785,328.6562
10:18:51:040,-0.9793,1.4892,12.5043,42.2492,0.5986,-0.1778,0.2266,328.9688
10:18:51:059,-1.4294,1.0558,11.324,42.0472,0.8002,-0.0709,0.1277,328.9688
10:18:51:128,-1.398,0.553,9.5668,41.5696,0.8662,0.0739,0.1081,329.625
10:18:51:129,-0.8668,0.2608,8.511,41.0443,0.642,0.1289,0.1497,329.7031
10:18:51:129,-0.352,0.1244,8.9683,40.4992,0.2327,0.0953,0.1576,329.7188
10:18:51:141,-0.055,0.0479,10.1222,40.1915,-0.1435,0.2291,0.0837,329.7188
10:18:51:160,-0.4765,-0.1125,8.8941,39.7823,0.0525,0.3714,0.0922,329.2031
10:18:51:181,-0.1962,0.134,7.5628,39.3756,0.2889,0.4459,0.2114,329.1406
10:18:51:201,0.2154,0.9386,6.3945,38.9972,0.4746,0.4612,0.3451,328.5625
10:18:51:220,0.268,1.817,5.1138,38.5459,0.6157,0.4221,0.3671,328.5
10:18:51:239,0.3209,2.3773,4.2015,37.9079,0.6958,0.2547,0.2908,328.5625
10:18:51:258,0.5387,2.4754,3.2632,37.5308,0.656,0.0678,0.1607,328.8438
10:18:51:279,0.268,2.7389,2.8442,37.2505,0.383,-0.0623,-0.0024,328.8438
10:18:51:301,-0.4836,3.1029,3.9766,36.9868,-0.0935,-0.1619,-0.1234,328.8438
10:18:51:320,-0.6009,3.5432,5.8992,36.7135,-0.5412,-0.1924,-0.135,328.8438
10:18:51:339,-0.5961,4.0531,7.7617,36.4939,-0.7862,-0.1949,-0.1594,328.8438
10:18:51:358,-0.5794,4.3693,9.7128,36,-0.8344,-0.2688,-0.2468,329.3438
10:18:51:379,-0.7229,4.3597,11.5205,35.7876,-0.7049,-0.4478,-0.3744,329.3438
10:18:51:402,-0.9769,3.8282,12.8707,35.4052,-0.4807,-0.6481,-0.4991,329.3906
10:18:51:419,-0.7971,3.0452,13.6056,35.1014,-0.2657,-0.7403,-0.5424,329.3906
10:18:51:440,-0.8572,2.5113,13.6989,34.7413,-0.1704,-0.5754,-0.5113,329.0312
10:18:51:459,-1.1013,2.6264,13.2251,34.2196,-0.2297,-0.201,-0.3909,328.7969
10:18:51:480,-1.0056,3.1555,12.6721,33.6822,-0.3934,0.1723,-0.204,328.7969
10:18:51:502,-0.2273,3.3111,12.1932,33.2032,-0.5577,0.3476,-0.069,328.4531
10:18:51:520,0.7851,2.9471,12.3918,33.0967,-0.6805,0.2205,-0.0928,328.4531
10:18:51:541,1.4294,1.7931,13.5888,32.6182,-0.7593,-0.0733,-0.2596,328.5781
10:18:51:559,1.8003,0.6057,15.722,32.418,-0.7342,-0.2676,-0.4166,328.5781
10:18:51:579,1.2185,-0.1675,16.3636,32.1453,-0.4203,-0.0922,-0.4948,328.8438
10:18:51:601,0.3688,-0.3544,14.0222,31.933,0.1613,0.3341,-0.4264,328.875
10:18:51:619,0.4023,-0.3975,10.5365,31.7679,0.675,0.5375,-0.2028,328.625
10:18:51:640,1.2209,0.0502,7.9843,31.7758,0.8399,0.4154,0.0397,328.6094
10:18:51:661,2.1571,0.7253,7.3881,31.6705,0.6756,0.1332,0.1271,328.625
10:18:51:681,2.3653,1.3932,7.5221,31.3147,0.3916,0.0421,-0.0067,328.625
10:18:51:703,0.2082,1.7237,6.0858,31.1833,0.0489,0.4673,-0.471,329.4219
10:18:51:721,-0.3281,1.7381,5.0731,31.0592,-0.0562,0.5968,-0.4911,329.5
10:18:51:739,-0.0526,1.8745,4.7091,30.8626,-0.2376,0.5278,-0.4245,330.2812
10:18:51:758,0.2154,2.1978,5.6405,30.4151,-0.5027,0.3066,-0.4007,330.2344
10:18:51:779,-0.0024,2.394,7.4384,30.4674,-0.7092,0.0476,-0.438,330.2344
10:18:51:803,-0.2082,2.2528,9.5022,30.2055,-0.7006,-0.1826,-0.4716,330.2344
10:18:51:820,-0.1986,1.9295,10.8811,29.9685,-0.441,-0.2663,-0.4478,329.9844
10:18:51:840,-0.2632,1.8529,10.4408,29.9304,-0.0635,-0.0953,-0.3744,329.9688
10:18:51:859,-0.4501,2.3629,9.1119,29.7703,0.2046,0.0843,-0.2792,330.4531
10:18:51:879,-0.2465,2.8298,8.7697,29.6902,0.2572,0.0385,-0.1936,330.4531
10:18:51:900,-0.1196,3.1077,9.6912,29.554,0.179,-0.0971,-0.1741,331.5156
10:18:51:919,-0.3832,3.4881,11.1422,29.7922,0.0935,-0.0904,-0.2101,331.5156
10:18:51:939,-0.6679,3.6583,11.7957,29.4168,0.1093,0.1045,-0.2474,332.0312
10:18:51:958,-1.1013,3.524,11.8508,29.3836,0.2242,0.2315,-0.2749,332.5938
10:18:51:979,-1.4892,3.4522,11.9225,29.3917,0.3702,0.1576,-0.2492,332.5938
10:18:52:001,-1.5969,3.6006,12.641,29.4091,0.4942,-0.0397,-0.1747,333.6406
10:18:52:019,-1.5634,3.6918,12.8181,29.3968,0.6102,-0.0892,-0.1246,333.6406
10:18:52:040,-1.9104,3.5791,12.1334,29.3591,0.6585,0.0788,-0.1448,334.1875
10:18:52:058,-2.4299,3.4283,10.9026,29.2787,0.5913,0.3268,-0.16,334.1875
10:18:52:079,-2.7843,3.3254,9.696,29.2171,0.4331,0.4313,-0.1326,334.4844
10:18:52:101,-2.636,2.7891,9.7247,29.2796,0.2388,0.2089,-0.0904,334.5
10:18:52:119,-2.3821,2.0638,11.1661,29.4813,0.1405,-0.2358,-0.0727,335.0938
10:18:52:139,-2.7006,1.5419,11.8819,29.5055,0.2382,-0.4288,-0.0574,335.1562
10:18:52:158,-3.0045,1.1874,10.4623,29.6365,0.4239,-0.2676,0.0446,335.8281
10:18:52:181,-2.6671,1.1803,8.6856,29.6595,0.223,-0.0751,0.3537,335.8906
10:18:52:200,-0.6894,1.1731,9.2701,29.869,-0.0525,-0.0684,0.3928,336.4062
10:18:52:218,-0.5363,1.0654,9.4998,30.0044,-0.1454,0.0195,0.3244,336.4531
10:18:52:239,-0.8764,1.0343,8.7912,30.0526,-0.0287,0.1283,0.2541,337.125
10:18:52:258,-0.9434,1.1539,7.5775,30.1214,0.1466,0.2138,0.2639,338.0156
10:18:52:278,-0.9386,1.4222,6.1385,30.0541,0.1997,0.3024,0.2963,338.0156
10:18:52:302,-1.2281,1.8075,5.8367,29.972,0.0458,0.2743,0.3018,338.0938
10:18:52:319,-1.0845,1.9415,6.9476,30.0298,-0.1283,0.1002,0.3317,338.9219
10:18:52:339,-1.0056,2.2481,7.7641,30.1946,-0.1014,-0.0379,0.3531,339
10:18:52:358,-1.2233,2.7197,7.5006,30.174,0.0819,-0.0367,0.3415,339.8438
10:18:52:379,-1.4246,2.9638,6.3802,30.3842,0.2285,0.0232,0.336,339.8594
10:18:52:402,-1.6113,3.2584,5.7864,30.5519,0.1863,0.0018,0.3561,340.2188
10:18:52:419,-1.4438,3.5169,6.3634,30.8011,-0.0073,-0.1374,0.4019,340.2188
10:18:52:440,-1.1085,3.699,7.503,31.2231,-0.193,-0.2963,0.4135,340.5469
10:18:52:458,-0.9338,3.9239,8.7458,31.3301,-0.2938,-0.419,0.3573,340.25
10:18:52:479,-0.5315,3.8904,9.7128,31.4303,-0.3616,-0.4349,0.2602,340.25
10:18:52:501,0.1125,3.5791,10.4791,31.4358,-0.4545,-0.3488,0.1271,339.375
10:18:52:519,0.2082,3.2489,11.2211,31.5157,-0.5944,-0.2254,-0.0483,339.375
10:18:52:539,-0.1388,2.9758,12.0879,31.6427,-0.7355,-0.113,-0.1961,338.8438
10:18:52:558,-0.2656,2.3581,12.6144,31.7536,-0.8033,-0.0324,-0.2547,338.8438
10:18:52:579,0.1579,1.5826,12.5426,31.922,-0.7746,-0.0232,-0.2278,338.3125
10:18:52:602,0.4884,1.1037,12.533,31.7115,-0.766,-0.1295,-0.1967,338.3125
10:18:52:619,0.8572,0.6703,13.8858,31.8699,-0.8503,-0.3274,-0.1643,337.5312
10:18:52:639,1.6448,0.201,15.801,31.7442,-0.8509,-0.3781,-0.0837,337.4375
10:18:52:659,2.4395,-0.134,15.7555,31.7319,-0.5882,-0.1093,-0.0012,336.8906
10:18:52:680,2.4012,-0.0191,11.7933,31.8397,0.1203,0.4331,0.0751,336.8438
10:18:52:702,2.3414,0.3592,10.0409,31.8037,0.3329,0.4789,0.1423,336.1719
10:18:52:719,2.2839,0.7804,7.9986,31.7566,0.5211,0.4667,0.1735,336.1094
10:18:52:738,2.1284,1.3932,5.8295,31.585,0.6108,0.3647,0.1472,335.1406
10:18:52:758,2.1212,2.0686,4.4794,31.5267,0.4844,0.0996,0.0702,334.3281
10:18:52:779,2.1332,2.5905,4.5631,31.7585,0.1613,-0.234,-0.0886,334.3281
10:18:52:798,1.8601,2.5041,5.9423,32.0535,-0.1778,-0.4722,-0.3207,334.25
10:18:52:819,1.6424,1.9056,6.9882,32.1795,-0.3299,-0.5131,-0.5162,333.9375
10:18:52:839,1.5706,1.5754,7.5197,32.024,-0.2682,-0.496,-0.6023,333.9062
10:18:52:859,1.7333,1.7907,7.2876,31.9317,-0.1301,-0.4649,-0.6341,333.7188
10:18:52:879,1.506,2.2696,7.0508,32.0214,-0.1277,-0.4038,-0.7348,333.6875
10:18:52:900,0.6799,2.5259,7.4719,32.1854,-0.2969,-0.3268,-0.8894,333.3438
10:18:52:919,-0.2034,2.4419,8.8367,32.3362,-0.4728,-0.3219,-0.9786,333.3281
10:18:52:940,-0.7325,2.2002,10.1103,32.3252,-0.4826,-0.3635,-0.9401,332.7656
10:18:52:958,-1.0391,2.1619,10.9002,32.4299,-0.3494,-0.3592,-0.7947,332.625
10:18:52:979,-1.1803,2.4203,11.5923,32.4944,-0.2101,-0.2865,-0.5968,332.625
10:18:52:999,-1.1635,2.5881,11.9991,32.7374,-0.0904,-0.1552,-0.4068,332.6875
10:18:53:019,-1.1372,2.715,12.0398,32.8484,-0.0055,-0.0092,-0.2541,332.6875
10:18:53:039,-0.8477,2.7341,12.4517,32.9425,0.0098,0.0837,-0.1216,332.9844
10:18:53:058,-0.6224,2.8537,13.0262,32.9854,0.0342,0.1521,-0.0183,332.9844
10:18:53:080,-0.7181,3.026,13.2323,33.0751,0.1655,0.2095,0.0318,333.4219
10:18:53:102,-1.1874,3.1029,12.4852,33.2449,0.3616,0.317,0.047,333.4219
10:18:53:119,-1.6184,3.0141,10.8117,33.1433,0.4832,0.4789,0.0739,334.2656
10:18:53:178,-1.9439,2.8992,9.7846,33.1574,0.4148,0.5162,0.1216,334.3438
10:18:53:179,-1.9008,2.7796,10.5963,33.27,0.2126,0.3262,0.1894,335.5781
10:18:53:179,-1.5443,2.2409,11.7215,33.453,0.1216,0.0904,0.2382,335.7031
10:18:53:200,-1.5682,1.5419,12.21,33.5582,0.2395,-0.1411,0.226,337.2344
10:18:53:220,-1.1204,0.7971,11.5182,33.8144,0.408,-0.3005,0.2865,338.75
10:18:53:239,-0.6081,0.5722,11.6234,33.7675,0.2004,-0.1399,0.3109,338.75
10:18:53:259,-0.4334,0.4813,11.6952,33.7763,-0.047,0.1747,0.3018,338.8906
10:18:53:278,-0.7229,0.2154,11.2714,33.6465,-0.149,0.496,0.2853,339.75
10:18:53:304,-1.0558,-0.1388,10.1845,33.7639,-0.0574,0.697,0.3451,339.8281
10:18:53:319,-1.0726,-0.1292,8.7266,33.7068,0.146,0.7642,0.5253,340.2344
10:18:53:339,-0.6081,0.201,7.0508,33.6901,0.3268,0.722,0.7403,340.2656
10:18:53:359,-0.1172,0.6607,5.9303,33.8876,0.372,0.5345,0.8717,340.3594
10:18:53:381,0.0431,1.4103,6.2629,33.913,0.2559,0.3079,0.9126,340.3594
10:18:53:405,0.1388,1.9104,7.0699,33.8333,0.1271,0.2352,0.915,340.6719
10:18:53:419,0.2106,2.2241,7.3092,33.764,0.1558,0.2938,0.8943,340.6719
10:18:53:440,0.2656,2.5283,6.5647,34.1898,0.2987,0.3671,0.8625,340.6875
10:18:53:458,0.2922,3.0739,5.662,34.165,0.3567,0.383,0.8161,340.3281
10:18:53:480,0.2177,3.7612,5.0515,34.2354,0.2529,0.3109,0.7312,340.3281
10:18:53:505,0.0383,4.2015,5.9279,34.3501,0.0312,0.0867,0.5803,340.0781
10:18:53:521,0.4789,4.113,7.4647,34.3445,-0.1405,-0.1686,0.4087,340.0781
10:18:53:540,0.5148,3.8952,8.3794,34.3316,-0.223,-0.2987,0.1845,339.4688
10:18:53:558,0.189,3.5934,9.0233,34.6082,-0.3195,-0.3751,-0.0421,339.4688
10:18:53:580,0.2608,3.0093,10.1701,34.5689,-0.4875,-0.4875,-0.1985,338.75
10:18:53:599,0.4813,2.2935,11.7191,34.5163,-0.6915,-0.5498,-0.3115,338.75
10:18:53:620,0.3114,1.5658,13.6941,34.478,-0.8711,-0.4917,-0.3928,337.7344
10:18:53:641,-0.1196,0.874,15.3341,34.4329,-0.8802,-0.3207,-0.3604,337.6406
10:18:53:658,-0.1125,0.2946,15.6861,34.5716,-0.6206,-0.0971,-0.1472,336.1406
10:18:53:680,0.7445,0.5076,14.1802,34.5177,-0.2022,0.0843,0.179,336
10:18:53:700,1.7453,1.0965,12.7199,34.3529,0.1161,0.0757,0.3848,334.3125
10:18:53:722,2.8298,1.1922,12.0398,34.4047,0.2651,-0.0666,0.1869,334.1562
10:18:53:742,2.5594,0.7349,11.2331,34.3278,0.325,0.014,-0.0092,332.75
10:18:53:760,2.2385,0.4932,10.1366,34.3476,0.3757,0.077,-0.1063,332.6094
10:18:53:780,2.2887,0.6392,9.0616,34.7164,0.3409,0.0971,-0.1142,331.4062
10:18:53:800,2.5041,1.0534,8.4894,34.8353,0.1906,0.0916,-0.1374,331.2969
10:18:53:824,2.5208,1.4964,8.3937,34.7253,-0.0379,0.1497,-0.2333,330.5469
10:18:53:840,2.1667,1.8529,8.1592,34.6692,-0.2376,0.3005,-0.3806,330.4688
10:18:53:858,1.6496,1.8434,7.5775,34.9369,-0.3085,0.3977,-0.5492,330.375
10:18:53:880,0.9817,1.7046,6.9763,34.8522,-0.2755,0.3335,-0.6829,330.3594
10:18:53:899,0.3664,1.7309,6.871,35.103,-0.2248,0.1594,-0.7202,330.4062
10:18:53:923,0.1149,1.9175,7.089,34.8847,-0.1747,0.025,-0.6622,330.4062
10:18:53:941,0.1149,2.0471,7.3857,34.5586,-0.11,-0.0226,-0.5962,330.2656
10:18:53:958,0.1053,2.1308,7.3164,34.4418,-0.025,0.0043,-0.5589,329.6094
10:18:53:980,-0.201,2.4514,7.1536,34.5462,-0.0012,0.0495,-0.5388,329.6094
10:18:53:999,-0.4382,2.6551,7.235,34.6688,-0.0727,0.0867,-0.5162,329.2344
10:18:54:023,-0.3999,2.5857,7.5748,34.6983,-0.2059,0.0996,-0.5027,329.2344
10:18:54:039,-0.6153,2.4227,8.4703,34.7209,-0.3537,0.0641,-0.5101,329.6719
10:18:54:059,-0.7947,2.2816,9.7582,34.6923,-0.4453,-0.0171,-0.4704,329.6719
10:18:54:080,-0.8306,2.394,10.9723,34.8753,-0.4319,-0.0849,-0.3671,330.2031
10:18:54:100,-0.9386,2.6719,11.9297,34.9458,-0.3329,-0.0922,-0.2639,330.2031
10:18:54:123,-1.0774,2.6743,12.5067,35.055,-0.1973,-0.0611,-0.1625,330.7344
10:18:54:140,-0.9984,2.4754,13.1818,34.8999,-0.0599,-0.0385,-0.0195,330.7344
10:18:54:159,-0.632,2.569,13.3304,34.9954,0.1026,0.0635,0.1716,331.7188
10:18:54:180,-0.2489,3.1795,12.588,34.7958,0.2938,0.2321,0.3158,331.8125
10:18:54:198,0.0837,3.6894,11.4054,34.7705,0.4508,0.3189,0.3103,333.0156
10:18:54:221,-0.2154,3.7181,10.3328,34.8132,0.2657,0.2993,-0.0483,333.1406
10:18:54:243,-1.0128,3.3159,9.763,34.8949,-0.0507,0.2016,-0.1686,334.2344
10:18:54:261,-1.5778,2.6169,9.9308,34.9737,-0.3097,-0.0843,-0.2028,334.3438
10:18:54:280,-1.2616,0.6799,12.8851,34.9177,-0.3671,-0.4416,-0.1973,335.375
10:18:54:301,-1.5395,0.1077,13.7758,35.0226,-0.1521,-0.5272,-0.1326,335.4688
10:18:54:321,-2.0566,0.0455,12.3033,35.0566,0.2223,-0.2126,0.0489,336.25
10:18:54:339,-1.6017,0.4836,9.6984,35.1417,0.4905,0.1301,0.3311,336.3281
10:18:54:359,-0.7828,1.0702,8.3698,35.1532,0.4911,0.215,0.518,336.7812
10:18:54:379,-0.0311,1.3597,7.4527,35.0805,0.3195,0.2431,0.5559,336.8125
10:18:54:401,0.553,1.3956,7.1393,35.0827,0.0935,0.16,0.4826,337
10:18:54:420,0.6368,1.2449,7.3068,35.2772,-0.1075,0.022,0.3213,337.0156
10:18:54:442,0.4334,1.0893,7.6612,35.4818,-0.2651,-0.0092,0.1662,336.875
10:18:54:459,0.2154,1.0893,7.7856,35.3894,-0.369,0.0757,0.0776,336.5938
10:18:54:481,-0.0885,1.0798,7.9938,35.1026,-0.3983,0.1142,0.0275,336.5938
10:18:54:499,-0.4573,1.0271,8.5229,35.1389,-0.3323,0.0495,0.022,336.8906
10:18:54:522,-0.8043,1.1157,8.8487,35.0755,-0.1564,0.0037,0.0916,336.8906
10:18:54:541,-1.0247,1.5969,8.3937,35.0147,0.0727,0.0715,0.2217,337.125
10:18:54:559,-1.0056,2.0136,7.3044,34.9457,0.2682,0.1716,0.339,337.125
10:18:54:582,-0.9577,2.3581,6.4065,34.5809,0.3268,0.1552,0.3873,337.1562
10:18:54:600,-0.6846,2.6504,6.4328,34.5414,0.2132,0.0086,0.3909,337.1562
10:18:54:619,-0.2874,2.8537,7.223,34.6372,-0.033,-0.11,0.3341,337.0781
10:18:54:640,-0.1914,2.758,8.5349,34.7982,-0.3115,-0.1442,0.1869,337.0781
10:18:54:659,-0.5387,2.4969,10.1773,34.8293,-0.5211,-0.1454,0.022,336.4062
10:18:54:682,-0.5674,2.0518,11.2905,35.0126,-0.5705,-0.1405,-0.0678,336.3281
10:18:54:700,-0.4406,1.5491,12.2722,35.3331,-0.5015,-0.1881,-0.1038,335.5312
10:18:54:720,-0.4358,1.2018,13.0047,35.5137,-0.3641,-0.2285,-0.1093,335.4531
10:18:54:743,-0.6176,0.9577,12.8635,35.6275,-0.1924,-0.2016,-0.0709,334.9219
10:18:54:759,0.2034,0.8812,11.7072,35.5586,-0.0501,-0.1704,0.234,334.8594
10:18:54:781,1.4079,1.0654,11.6976,35.5467,-0.168,-0.2291,0.3531,334.4844
10:18:54:798,2.3988,1.142,12.6721,35.4928,-0.3641,-0.2987,0.3005,334.4531
10:18:54:822,2.8801,0.5219,14.2878,35.5217,-0.5131,-0.2627,0.113,334.0938
10:18:54:839,2.6527,-0.2584,15.0206,35.4965,-0.4575,-0.0733,-0.0647,334.0625
10:18:54:859,1.9896,-0.5028,14.1203,35.325,-0.1527,0.1252,-0.1246,333.625
10:18:54:879,1.8529,-0.376,12.4038,35.0728,0.2419,0.171,-0.047,333.5781
10:18:54:899,2.5857,0.0933,10.905,35.1653,0.4972,0.0586,0.0819,332.9375
10:18:54:925,3.3829,0.6344,10.194,35.0187,0.5296,-0.0495,0.0837,332.875
10:18:54:941,3.3374,1.0582,9.4208,35.1776,0.43,0.0574,-0.1081,332.2031
10:18:54:959,2.3557,1.2497,8.2167,35.1947,0.3244,0.2761,-0.3897,331.8438
10:18:54:980,1.1204,1.209,6.9236,35.1243,0.2798,0.3732,-0.6133,331.8438
10:18:54:999,0.2369,1.0869,5.9207,35.1893,0.2682,0.2718,-0.6976,331.7344
10:18:55:024,-0.3233,1.0917,5.6213,35.0157,0.1955,0.0947,-0.6762,331.7344
10:18:55:041,-0.5171,1.3262,5.8726,34.8838,0.0568,-0.0092,-0.5889,331.3438
10:18:55:059,-0.4382,1.6376,6.2749,34.9252,-0.0959,0.0195,-0.4954,331.3438
10:18:55:081,-0.2369,1.8242,6.5982,35.0155,-0.2162,0.1216,-0.4447,330.3438
10:18:55:099,0.0766,1.8984,7.1369,34.912,-0.2755,0.1619,-0.4331,330.3438
10:18:55:125,0.2297,1.9872,7.9843,34.9794,-0.2694,0.088,-0.4514,329.7969
10:18:55:141,0.0167,1.9872,8.5708,34.9575,-0.2242,0.0073,-0.4923,329.7969
10:18:55:158,-0.285,1.9391,9.6482,34.7309,-0.1973,-0.0745,-0.5021,330.0156
10:18:55:241,-0.6559,1.9463,10.2921,34.6852,-0.1503,-0.0153,-0.4429,330.0469
10:18:55:241,-1.1779,2.2122,10.558,34.9943,-0.0843,0.1448,-0.3219,330.3281
10:18:55:241,-1.573,2.5283,10.6944,35.05,-0.0287,0.2535,-0.1332,330.3594
10:18:55:242,-0.6559,2.9136,11.7526,35.2253,0.1069,0.1552,0.3567,331.2031
10:18:55:261,0.1938,3.1747,12.265,35.2595,0.2052,0.0953,0.4911,331.2812
10:18:55:280,0.6153,3.3972,12.5904,35.3487,0.2822,0.1216,0.4765,332.875
10:18:55:301,0.3688,3.3661,12.3464,35.3595,0.3421,0.2309,0.3561,333.0312
10:18:55:319,-0.6057,3.3924,11.6904,35.6779,0.369,0.3586,0.2193,334.4219
10:18:55:339,-1.4246,3.2584,10.5006,35.8912,0.3537,0.4435,0.1625,334.5625
10:18:55:359,-1.8027,3.0523,10.3857,35.7694,0.2553,0.3073,0.1759,335.375
10:18:55:379,-1.7094,2.5307,11.08,35.8726,0.1594,0.0257,0.226,335.4531
10:18:55:399,-1.774,1.6998,11.7598,35.6892,0.1863,-0.2676,0.2621,336.1094
10:18:55:424,-1.9032,1.0247,11.846,35.6144,0.328,-0.4001,0.3299,336.1719
10:18:55:441,-1.209,0.6727,10.3567,35.6228,0.4801,-0.2724,0.5015,337.0625
10:18:55:459,-0.1555,0.7421,9.1908,35.7201,0.4618,-0.2046,0.6359,337.7969
10:18:55:480,1.1492,0.7875,8.8726,35.4747,0.2388,-0.2095,0.6377,337.7969
10:18:55:499,1.9968,0.9051,9.8447,35.5732,-0.0904,-0.2382,0.496,337.875
10:18:55:519,1.9872,0.9505,10.6011,35.6176,-0.3305,-0.1093,0.2474,337.875
10:18:55:541,1.3358,0.9003,10.6226,35.442,-0.3427,0.1167,0.0122,337.1406
10:18:55:559,1.0989,0.9266,10.0983,35.4375,-0.1637,0.303,-0.1032,337.1406
10:18:55:581,1.3549,1.4127,8.9922,35.5083,0.0684,0.4985,-0.1148,336.5625
10:18:55:600,1.0678,2.3581,7.2589,35.5181,0.2144,0.6176,-0.1668,336.5625
10:18:55:624,0.4047,2.6934,6.6365,35.5397,0.234,0.3971,-0.2932,336.5781
10:18:55:641,0.285,2.3653,7.3331,35.6674,0.1851,0.036,-0.369,336.5781
10:18:55:659,0.419,2.3581,8.1063,35.776,0.1765,-0.1203,-0.3635,336.3906
10:18:55:681,-0.0742,2.8705,8.0201,35.8108,0.215,-0.0104,-0.3659,336.3906
10:18:55:699,-0.5985,3.323,8.3913,35.8581,0.2413,0.0373,-0.3622,336
10:18:55:720,-0.5363,3.3087,8.8822,35.8549,0.3415,-0.0568,-0.3427,335.9531
10:18:55:741,-0.8378,3.1603,8.9109,35.8971,0.4716,-0.1564,-0.3702,335.25
10:18:55:761,-1.9199,2.7915,9.306,36,0.4807,-0.2266,-0.3323,335.1719
10:18:55:783,-1.6328,2.6862,9.2363,35.8395,0.4135,-0.1497,-0.1839,334.0938
10:18:55:799,-1.1276,3.038,9.6745,35.7841,0.2694,-0.0922,-0.0647,333.9844
10:18:55:818,-0.577,3.1053,10.1318,35.7436,0.1063,-0.0702,-0.0415,333.4062
10:18:55:841,-0.4478,2.849,10.5341,35.8955,0.0006,-0.1277,-0.1075,333.3594
10:18:55:859,-0.3473,2.5594,11.0967,35.7895,-0.0501,-0.2327,-0.1497,333.5469
10:18:55:879,0.1316,2.2935,11.0393,35.8317,-0.077,-0.2346,-0.1093,333.5625
10:18:55:898,0.4836,2.1452,11.1254,36.1326,-0.1564,-0.2278,-0.0715,334.2656
10:18:55:919,0.6823,1.9681,11.4939,36.1954,-0.2578,-0.248,-0.0599,334.3281
10:18:55:941,0.9912,1.5395,11.9345,36.3908,-0.2853,-0.2559,-0.0531,335.2344
10:18:55:959,1.343,1.2066,11.9536,36.5536,-0.19,-0.1698,-0.0208,336.375
10:18:55:981,1.3358,1.3669,10.9555,36.4089,-0.0226,0.0299,0.0617,336.375
10:18:56:000,1.3358,1.9992,9.7056,36.3953,0.0721,0.1393,0.1619,337.5781
10:18:56:023,1.7189,2.1763,9.0425,36.5971,0.0574,0.0611,0.1851,337.5781
10:18:56:042,2.0758,1.8864,8.9563,36.7534,-0.0202,-0.0342,0.0727,338.8906
10:18:56:060,1.8864,1.7213,8.863,36.4724,-0.1197,-0.0098,-0.113,338.8906
10:18:56:080,1.2329,1.7142,8.5756,36.2493,-0.2364,0.1026,-0.2376,339.5156
10:18:56:099,0.8091,1.7213,8.3842,36.3215,-0.3396,0.168,-0.237,339.5156
10:18:56:119,0.8788,1.9439,8.7697,36.3026,-0.3653,0.0941,-0.1576,339.7344
10:18:56:143,1.1707,2.2193,9.0162,36.4315,-0.2547,0.0501,-0.1038,339.7344
10:18:56:158,1.2425,2.5041,8.7266,36.5147,-0.0531,0.1093,-0.1246,339.9375
10:18:56:180,0.8501,2.8585,8.1616,36.7032,0.1374,0.1607,-0.1845,339.9375
10:18:56:199,0.9218,2.9901,7.7952,36.9366,0.2706,0.0916,-0.2223,339.8594
10:18:56:219,1.4868,2.9877,7.9795,37.1485,0.3457,-0.0776,-0.2553,339.8594
10:18:56:241,1.7716,3.1005,8.31,37.4725,0.3744,-0.1637,-0.3237,339.6875
10:18:56:258,1.6256,3.3063,8.5349,37.3837,0.3512,-0.1448,-0.4178,339.6719
10:18:56:281,0.6918,3.3781,9.0209,37.572,0.1655,-0.0037,-0.5388,339.4844
10:18:56:302,0.3305,3.469,9.5453,37.6211,0.0593,0.0782,-0.5217,339.4688
10:18:56:318,-0.1579,3.6413,9.993,37.5899,-0.0208,0.1845,-0.4471,339.2188
10:18:56:340,-0.5578,4.034,10.7088,37.3401,-0.0556,0.2407,-0.2981,339.2031
10:18:56:361,-0.5435,4.41,11.08,37.4446,-0.0348,0.2877,-0.1124,339.3906
10:18:56:379,-0.4525,4.5775,11.1541,37.478,0.0067,0.3317,-0.0031,339.4062
10:18:56:400,-0.5506,4.5344,11.5588,37.5739,0.0458,0.3018,0.0006,339.5
10:18:56:419,-1.0678,4.4507,11.8603,37.7703,0.1112,0.3347,-0.0281,339.5
10:18:56:440,-1.908,4.3214,10.917,37.8305,0.1802,0.5211,-0.0385,339.6094
10:18:56:465,-2.3821,3.9742,9.871,38.0353,0.1753,0.5473,-0.0171,340.2812
10:18:56:480,-1.9056,3.2297,9.9523,38.2567,0.077,0.2395,0.0098,340.2812
10:18:56:499,-1.2855,2.2026,11.1374,38.5485,-0.0202,-0.1637,-0.0049,341.2656
10:18:56:519,-1.6543,1.4438,12.0951,38.5589,-0.0232,-0.3085,-0.0586,341.2656
10:18:56:543,-2.3916,1.0534,11.6474,38.6721,0.1026,-0.0513,-0.0037,342.5781
10:18:56:560,-2.339,1.2425,9.7032,38.7408,0.2718,0.3506,0.2486,342.5781
10:18:56:581,-1.5993,2.004,8.0201,38.9078,0.3011,0.4923,0.5229,343.8594
10:18:56:600,-0.7588,2.7341,7.3259,39.1019,0.1387,0.3488,0.617,343.8594
10:18:56:619,-0.0048,2.916,7.5221,39.1824,-0.1356,0.1423,0.5156,344.6094
10:18:56:643,0.1149,2.4491,8.0465,39.2037,-0.3818,0.0898,0.2816,344.6875
10:18:56:658,-0.4525,1.9415,7.9268,39.2466,-0.4844,0.2401,0.0861,344.8594
10:18:56:680,-1.1444,1.7118,7.3307,39.0159,-0.4484,0.3708,0.0574,344.8594
10:18:56:700,-1.4198,1.5826,6.603,38.9157,-0.3372,0.3445,0.1619,345.0156
10:18:56:719,-1.0941,1.5203,6.1146,38.9202,-0.2065,0.16,0.3042,345.0312
10:18:56:741,-1.0008,1.8505,6.1241,39.0127,-0.1264,-0.0464,0.4093,345.3438
10:18:56:761,-1.3095,2.2576,6.0667,38.9783,-0.1277,-0.1368,0.4691,345.375
10:18:56:782,-0.5267,2.581,6.3491,38.8958,-0.2932,-0.2401,0.5339,345.4062
10:18:56:800,-0.0957,2.7939,7.8359,38.9627,-0.427,-0.3323,0.4569,345.4062
10:18:56:819,-0.4406,3.0045,9.2507,39.1209,-0.5003,-0.3011,0.325,345.4844
10:18:56:842,-0.7349,3.038,10.1462,39.5025,-0.4484,-0.1655,0.2217,345.4844
10:18:56:860,-0.7014,3.1077,10.7806,39.9838,-0.3134,-0.0739,0.1802,345.0625
10:18:56:879,-0.2225,3.146,10.9026,40.1782,-0.1906,0.0122,0.1698,345.0156
10:18:56:899,0.2177,3.0452,11.08,40.3122,-0.1826,0.011,0.1087,343.9219
10:18:56:918,0.1962,2.6599,11.7335,40.392,-0.2785,-0.0947,-0.0312,343.8125
10:18:56:942,0.0263,2.0877,12.3177,40.8271,-0.3665,-0.1704,-0.1576,343.0312
10:18:56:960,0.067,1.5227,12.897,40.9581,-0.4099,-0.2126,-0.1839,342.3125
10:18:56:981,0.431,1.2305,13.3854,40.9091,-0.4282,-0.2156,-0.1051,342.3125
10:18:57:001,0.9625,1.0582,13.2371,40.9784,-0.4062,-0.1191,0.0299,341.3438
10:18:57:019,1.7501,0.9218,13.0119,40.9588,-0.3647,-0.0586,0.1381,341.3438
10:18:57:042,2.4826,0.6846,12.8851,41.1141,-0.3237,-0.0226,0.1423,340.0625
10:18:57:059,2.3103,0.6344,12.4612,41.1191,-0.3048,0.1038,0.0293,340.0625
10:18:57:081,1.4797,0.6918,11.9201,41.1206,-0.2908,0.1875,-0.0947,338.5312
10:18:57:100,1.4725,0.4167,11.5517,41.1175,-0.1918,0.0959,-0.1051,338.5312
10:18:57:119,2.4371,0.3712,10.7303,41.0823,-0.0006,0.022,-0.0238,338.5156
10:18:57:144,3.2369,0.7516,9.6817,41.2641,0.1264,-0.0202,-0.0403,337.375
10:18:57:160,2.9877,1.1611,9.0042,41.4764,0.0666,-0.0629,-0.2657,336.7031
10:18:57:181,1.7405,1.0869,8.8726,41.7247,-0.1405,-0.0293,-0.5809,336.7031
10:18:57:200,0.3425,0.8234,8.487,41.5742,-0.3079,0.146,-0.7428,336.3594
10:18:57:220,-0.5985,0.6966,7.6134,41.5654,-0.295,0.3109,-0.686,336.3594
10:18:57:244,-1.0175,0.8067,6.3873,41.6304,-0.1283,0.3525,-0.5033,336.2812
10:18:57:307,-1.1061,1.3454,5.7697,41.813,0.0489,0.1796,-0.3054,336.2812
10:18:57:307,-0.941,2.0255,5.8008,41.8676,0.1155,-0.058,-0.1625,335.9219
10:18:57:307,-0.4525,2.4108,6.3132,41.7929,0.0507,-0.1747,-0.1014,335.8906
10:18:57:322,-0.0215,2.5331,7.2948,41.7919,-0.3299,0.193,-0.2242,335.2656
10:18:57:345,-0.4813,2.3342,7.5461,41.4222,-0.5247,0.3506,-0.3054,335.2031
10:18:57:359,-0.3209,1.9681,8.9587,41.4101,-0.6389,0.1582,-0.3042,334.9844
10:18:57:379,-0.2106,1.9104,10.6801,41.478,-0.6591,-0.0825,-0.2486,334.9688
10:18:57:400,-0.5052,2.0016,12.588,41.5264,-0.5956,-0.2046,-0.1851,335
10:18:57:418,-0.8716,1.9606,13.4405,41.193,-0.3989,-0.069,-0.0721,335.0156
10:18:57:444,-0.7421,1.992,12.9114,41.0835,-0.1032,0.1588,0.146,335.4062
10:18:57:459,0.055,2.3749,12.5234,41.2551,0.1246,0.1759,0.3683,336.5469
10:18:57:480,0.6535,2.7221,12.7415,41.4137,0.2254,0.0861,0.4154,336.5469
10:18:57:500,0.2417,2.6886,12.7582,41.6171,0.2957,0.1362,0.2669,337.8125
10:18:57:519,-0.778,2.3031,11.9154,41.7064,0.4007,0.3262,0.0806,337.8125
10:18:57:543,-1.3549,1.5969,10.4767,41.7046,0.4978,0.4856,0.0232,338.4375
10:18:57:560,-1.4414,1.1922,9.5692,41.5384,0.4667,0.4154,0.0867,338.4375
10:18:57:581,-0.7636,1.1779,9.8686,41.5915,0.2767,0.1118,0.1674,338.6094
10:18:57:600,0.2297,0.5794,11.482,41.5774,0.0037,-0.2333,0.1417,338.625
10:18:57:619,-0.0814,0.0502,13.019,41.3913,-0.1985,-0.2889,-0.0293,338.625
10:18:57:644,-1.1085,-0.3688,12.7487,41.2516,-0.171,0.0287,-0.1393,338.8125
10:18:57:659,-1.3741,-0.5028,11.1015,41.0351,0.0415,0.3439,-0.0348,338.7188
10:18:57:681,-1.0008,-0.285,9.6003,40.928,0.2126,0.3909,0.16,338.7188
10:18:57:700,-0.5435,0.2465,9.0185,40.7381,0.2272,0.2614,0.3011,338.4062
10:18:57:720,-0.0144,0.5889,8.4224,40.8443,0.1423,0.212,0.358,338.4062
10:18:57:743,0.1938,0.6727,8.0249,40.7442,-0.0043,0.1949,0.2987,337.9531
10:18:57:760,-0.2082,0.5722,8.1568,40.8823,-0.1692,0.1381,0.1607,337.9062
10:18:57:780,-0.8572,0.5028,8.1832,40.995,-0.2504,0.1527,0.099,337.5156
10:18:57:799,-1.1922,0.6272,7.8742,40.8204,-0.226,0.2205,0.1784,337.4844
10:18:57:822,-1.276,0.8931,7.235,40.7583,-0.0611,0.2309,0.4526,337.9844
10:18:57:842,-0.6105,1.707,6.9284,40.8486,-0.0165,0.11,0.5461,337.9844
10:18:57:859,-0.0311,2.2528,7.1776,41.0132,-0.0312,0.0531,0.5815,338.2031
10:18:57:879,0.4501,2.7963,7.5509,41.1248,-0.1136,0.0599,0.5516,338.2188
10:18:57:899,1.1204,3.0858,8.1497,41.081,-0.2425,0.1008,0.4734,337.9375
10:18:57:918,1.6878,3.2895,9.294,41.1138,-0.3757,0.091,0.3311,337.9219
10:18:57:944,1.6759,3.5049,10.273,41.1142,-0.4087,0.066,0.0922,338.0625
10:18:57:959,1.0774,3.1795,10.9217,41.0659,-0.2871,-0.0232,-0.2633,337.9375
10:18:57:980,0.1723,2.2696,10.905,41.1409,-0.0562,-0.1759,-0.6316,337.9375
10:18:58:000,-0.8572,1.331,11.2044,41.0414,0.1332,-0.4123,-0.8497,337.3281
10:18:58:018,-1.3358,0.5243,11.6115,41.2079,0.2016,-0.5644,-0.8338,337.3281
10:18:58:045,-1.3262,0.0574,12.076,41.1661,0.1674,-0.5785,-0.653,336.8281
10:18:58:059,-1.1133,0.0646,12.4445,41.18,0.0721,-0.5107,-0.4239,336.8281
10:18:58:081,-0.8788,0.3975,12.7534,41.1259,-0.0354,-0.4313,-0.1991,336.8281
10:18:58:100,-0.201,0.5794,12.8444,41.2183,-0.1173,-0.3531,0.0061,336.1094
10:18:58:119,0.8788,0.7947,13.0023,41.2744,-0.1735,-0.2895,0.168,336.1094
10:18:58:144,1.8386,0.9553,12.9736,41.4072,-0.2107,-0.234,0.2272,335.0156
10:18:58:159,2.5137,0.7923,13.2347,41.4226,-0.1991,-0.2278,0.1588,333.6875
10:18:58:180,2.7197,0.5339,13.2802,41.1091,-0.0501,-0.2095,0.0232,333.6875
10:18:58:199,2.4969,0.3425,12.1741,40.6847,0.2504,-0.0635,-0.1075,332.4375
10:18:58:219,2.0901,0.2994,10.2993,40.6526,0.5559,0.055,-0.1991,332.4375
10:18:58:246,2.0399,0.3257,8.4727,40.6242,0.7177,-0.011,-0.2517,332.2031
10:18:58:259,2.2313,0.2704,7.4623,40.3561,0.6768,-0.2657,-0.3347,332.1875
10:18:58:281,2.2289,0.0694,7.4623,40.1164,0.4514,-0.4795,-0.4838,333.6406
10:18:58:299,1.7548,0.0144,7.6899,39.9847,0.1338,-0.4331,-0.6334,333.7812
10:18:58:319,0.9099,0.146,7.8622,39.9778,-0.146,-0.2059,-0.7165,335.3438
10:18:58:346,0.3808,0.3114,7.6038,39.9447,-0.2639,0.0574,-0.6829,335.5
10:18:58:359,0.7014,1.3621,7.733,40.205,-0.1912,0.1692,-0.3995,336.0312
10:18:58:380,0.9386,1.9343,7.6516,40.2988,-0.1057,0.223,-0.3372,336.0938
10:18:58:398,0.7516,2.272,7.2757,40.3157,-0.0031,0.2822,-0.3806,335.6875
10:18:58:418,0.3688,2.4897,7.0316,40.1967,0.0947,0.2358,-0.5027,335.6562
10:18:58:439,-0.1101,2.7389,7.1991,40.0158,0.1148,0.1564,-0.6328,335
10:18:58:462,-0.6272,2.7485,7.745,39.7826,0.011,0.0672,-0.7,335.0781
10:18:58:480,-0.8067,2.4826,8.8319,39.6753,-0.1344,-0.0458,-0.697,335.0781
10:18:58:500,-1.063,2.2409,10.218,39.4294,-0.215,-0.1271,-0.6518,336.3125
10:18:58:520,-1.5873,2.3581,11.3121,39.1597,-0.1955,-0.1075,-0.5583,336.3125
10:18:58:544,-1.7788,2.4275,11.9225,39.036,-0.1301,-0.0269,-0.3891,337.75
10:18:58:561,-1.3502,2.3509,12.399,38.8495,-0.0788,0.0397,-0.1808,337.75
10:18:58:581,-0.8115,2.3868,13.0167,38.807,-0.0489,0.0922,0.0012,337.7656
10:18:58:601,-0.4478,2.5905,13.5577,38.9854,-0.0122,0.1997,0.1313,339.1406
10:18:58:620,-0.419,2.9064,13.8787,38.8882,0.069,0.358,0.201,339.1562
10:18:58:645,-0.7636,3.1364,13.2826,38.8133,0.226,0.554,0.2114,340.25
10:18:58:660,-1.319,2.9925,11.6139,38.9407,0.4044,0.6866,0.1839,340.9688
10:18:58:681,-1.8505,2.6695,10.7614,39.0906,0.46,0.5198,0.1637,340.9688
10:18:58:700,-1.6448,2.0662,11.2331,38.6551,0.4142,0.1429,0.2217,342.0781
10:18:58:720,-1.2616,1.3167,12.119,38.5093,0.4032,-0.1423,0.3073,342.0781
10:18:58:745,-1.5203,0.833,12.0518,38.3468,0.5162,-0.1503,0.3586,343.6562
10:18:58:763,-1.7572,0.6894,10.5197,38.3146,0.7074,0.0098,0.4569,343.6562
10:18:58:780,-1.2257,0.7588,9.0903,38.2524,0.8069,0.058,0.5968,344.8125
10:18:58:800,-0.2154,0.862,8.2095,38.1733,0.7196,0.0043,0.6732,344.9219
10:18:58:819,0.51,0.9051,7.7139,37.9636,0.4777,-0.0629,0.6127,345.7031
10:18:58:842,-0.285,0.3449,8.6665,37.8925,-0.0733,-0.1826,0.2553,345.7812
10:18:58:861,-0.7947,0.3185,8.9133,37.8685,-0.1203,-0.0916,0.292,345.9219
10:18:58:881,-0.8859,0.6607,8.5588,37.9206,0.0104,0.0971,0.4649,345.9375
10:18:58:900,-0.5171,1.1204,7.4647,38.0683,0.2144,0.3512,0.6536,345.75
10:18:58:918,0.0311,1.7333,6.1983,37.9056,0.336,0.5162,0.7892,345.7344
10:18:58:939,0.3712,2.5977,5.9279,37.9723,0.2798,0.4771,0.8308,345.8906
10:18:58:963,0.5554,3.3709,6.3179,37.8738,0.1301,0.4044,0.7831,346.0781
10:18:58:980,0.6392,3.6461,6.3179,37.7272,0.0244,0.4557,0.6597,346.0781
10:18:58:999,0.4908,3.8163,6.0308,37.5428,-0.0379,0.5107,0.4679,345.8594
10:18:59:020,0.1938,3.9359,5.8319,37.6304,-0.157,0.4441,0.2517,345.8594
10:18:59:045,-0.0215,3.7445,6.7729,37.3965,-0.3726,0.1607,0.069,345.8281
10:18:59:060,-0.0359,3.4714,8.6306,37.2071,-0.5681,-0.2712,-0.0629,345.5469
10:18:59:080,-0.0287,3.1866,10.6155,37.2221,-0.6102,-0.5937,-0.1839,345.5469
10:18:59:100,0.0311,2.703,11.7598,37.102,-0.5363,-0.6145,-0.3103,344.7969
10:18:59:120,-0.1244,2.0973,12.2961,37.2251,-0.4716,-0.4532,-0.4013,344.7969
10:18:59:140,-0.5387,1.5538,12.344,37.2696,-0.4649,-0.2504,-0.3995,344.0625
10:18:59:160,-0.833,1.2401,12.3679,37.4526,-0.5088,-0.1197,-0.2462,343.1719
10:18:59:181,-0.1866,1.4294,12.6144,37.2586,-0.5571,-0.1142,0.0385,343.1719
10:18:59:199,0.9553,1.908,13.1148,37.3144,-0.5931,-0.1411,0.2676,341.9844
10:18:59:219,1.5826,2.0997,13.7901,37.0595,-0.6035,-0.1497,0.2767,341.9844
10:18:59:239,1.4174,1.7548,13.8523,37.1189,-0.4881,-0.091,0.1527,340.5469
10:18:59:262,0.6607,1.2138,13.1028,36.9492,-0.2059,-0.0153,0.0507,340.5469
10:18:59:281,0.1986,0.9912,11.7455,36.7226,0.1509,0.0678,0.0886,339.4688
10:18:59:300,0.4693,1.1755,10.4982,36.6045,0.4032,0.1008,0.2474,339.3594
10:18:59:368,1.1061,1.6017,9.6769,36.4353,0.4288,0.0788,0.3635,338.7812
10:18:59:369,2.1165,1.5873,9.44,36.6121,0.2621,-0.0287,0.3329,338.7188
10:18:59:369,2.2122,1.0439,11.1422,36.8321,-0.1032,-0.1307,-0.0495,338.25
10:18:59:382,1.5682,1.1204,10.3783,36.9464,-0.0275,0.1484,-0.1484,338.2031
10:18:59:400,1.5156,1.1803,8.7601,36.8571,0.1539,0.394,-0.1888,338.2812
10:18:59:418,1.4844,1.2951,7.089,36.8589,0.2407,0.4496,-0.2504,338.2812
10:18:59:440,0.7947,1.7812,7.3953,36.8994,0.1277,0.2382,-0.3751,338.375
10:18:59:462,0.3616,2.1093,8.4392,37.0244,0.0147,0.1246,-0.46,337.4375
10:18:59:479,0.4836,2.1811,8.5851,37.0577,0.0776,0.3409,-0.4881,337.4375
10:18:59:499,0.5746,2.6575,7.7569,37.1171,0.2504,0.6304,-0.5192,336.3125
10:18:59:520,0.1029,3.2752,7.0316,36.651,0.3464,0.653,-0.5821,336.3125
10:18:59:540,-0.2154,3.3541,7.6445,36.7635,0.2932,0.3506,-0.6249,336.2188
10:18:59:561,-0.0431,3.0308,8.997,36.6687,0.237,-0.0031,-0.628,336.0312
10:18:59:580,-0.0335,2.6767,10.06,36.7531,0.2834,-0.1118,-0.6542,336.0312
10:18:59:601,-0.6368,2.7102,10.3089,36.7826,0.3726,0.0305,-0.6695,335.8594
10:18:59:620,-1.2497,2.8418,9.8013,36.6492,0.4325,0.1845,-0.5925,335.8594
10:18:59:640,-1.1731,2.6982,10.0648,36.7186,0.4276,0.0867,-0.4575,335.4688
10:18:59:662,-0.6679,2.4395,10.9026,36.7359,0.4148,-0.0684,-0.3128,335.6094
10:18:59:681,-0.443,2.2792,11.2211,36.8623,0.4215,-0.0721,-0.1796,335.6094
10:18:59:700,-0.3616,2.3725,11.2283,36.796,0.4221,0.0092,-0.0495,336.4219
10:18:59:720,-0.4214,2.8178,11.755,36.6335,0.3971,0.0971,0.0397,336.4219
10:18:59:740,-0.6966,3.0236,11.9106,36.4697,0.3726,0.3213,0.0415,337.4531
10:18:59:762,-1.5132,3.0452,10.0098,36.3184,0.3525,0.7446,-0.0122,337.4531
10:18:59:780,-2.4156,3.2154,8.4679,36.2871,0.2333,0.8772,-0.022,338.75
10:18:59:800,-2.4419,3.1507,8.2765,35.8679,0.044,0.5711,0.0647,338.875
10:18:59:820,-1.9175,2.4921,9.2243,35.557,-0.1118,0.069,0.1313,340.5625
10:18:59:839,-2.2385,2.1404,10.3113,35.342,-0.1558,-0.3079,0.0898,340.7344
10:18:59:863,-2.9662,1.9801,9.8471,35.4338,-0.058,-0.3647,0.0812,342.2969
10:18:59:881,-3.189,1.8242,8.4655,35.4766,0.0709,-0.4117,0.3451,342.4375
10:18:59:899,-2.0614,1.6663,7.4145,35.5771,-0.1142,-0.449,0.4887,344.1875
10:18:59:918,-0.7516,1.5826,7.5942,35.7227,-0.4343,-0.4172,0.5705,344.3594
10:18:59:939,0.0167,1.5323,7.9771,35.6886,-0.7801,-0.3586,0.5168,345.6094
10:18:59:963,-0.3281,1.1348,8.8223,35.9698,-1.0329,-0.3158,0.347,346.4219
10:18:59:979,-0.9147,0.6535,9.3012,36.2295,-1.0085,-0.3024,0.27,346.4219
10:18:59:999,-0.8402,0.8091,8.3818,36.2977,-0.7013,-0.2492,0.3842,346.4844
10:19:00:019,-0.5674,1.319,6.7418,36.0303,-0.4142,-0.2449,0.5327,346.8906
10:19:00:040,-0.62,1.8625,5.8582,36.0542,-0.4361,-0.4911,0.5742,346.9375
10:19:00:062,0.0814,2.3103,5.9806,36.0622,-0.6603,-0.9212,0.5748,347.5781
10:19:00:080,2.0614,2.8202,5.2956,35.9197,-0.956,-1.0403,0.5278,347.5938
10:19:00:100,6.4472,4.9391,8.7601,36.1056,-1.4435,-0.8943,0.2156,347.4219
10:19:00:119,6.0188,5.6094,10.1222,36.018,-1.6628,-0.4496,-0.8155,347.4219
10:19:00:139,1.8075,1.8242,12.1334,35.9084,-1.504,-0.5424,-2.0611,347
10:19:00:163,-1.5012,0.3138,13.8643,36.0094,-1.0629,-0.7471,-2.405,346.3906
10:19:00:181,-1.8601,-0.3712,14.8026,36.1312,-0.1753,-0.8039,-1.9933,346.3906
10:19:00:201,-2.0303,-0.3664,13.7252,36.1667,0.9511,-0.8619,-1.5168,344.7812
10:19:00:220,-0.3855,1.319,8.4631,36.2616,1.2241,-0.4942,-0.3977,344.7812
10:19:00:240,3.6631,2.9806,9.6218,36.1881,0.4581,-0.6426,0.6334,342.6406
10:19:00:262,1.5371,1.0223,10.7662,36.1685,0.1051,-0.628,0.2395,342.6406
10:19:00:281,0.6799,1.7118,10.4623,36.3981,-0.0128,-0.3543,0.2847,340.8125
10:19:00:301,1.6807,1.4294,10.1103,36.5443,-0.1753,-0.5632,0.5437,340.8125
10:19:00:319,3.6221,0.7708,10.8284,36.8605,-0.4099,-0.8271,0.6481,339.1406
10:19:00:339,5.6046,0.3305,13.2036,37.0706,-0.5675,-0.7978,0.4655,338.9844
10:19:00:363,6.0667,0.3305,15.1092,37.1674,-0.4728,-0.2828,0.011,336.7812
10:19:00:382,3.5121,1.0487,12.2195,37.1766,0.8375,0.9969,-0.7361,336.5625
10:19:00:400,2.2552,1.142,9.2052,37.3705,1.2602,1.317,-0.7043,335.375
10:19:00:419,2.2983,1.2449,7.8766,37.5956,1.0775,2.3311,-0.4386,335.2656
10:19:00:439,3.591,1.4773,5.5519,37.6454,0.6194,4.0293,-0.2724,338.2031
10:19:00:464,1.1204,1.0678,5.2621,37.7611,0.0886,1.9737,-0.3231,342.0312
10:19:00:479,1.3023,0.5506,9.4328,37.7476,-0.9218,-1.1478,-0.3598,342.0312
10:19:00:499,2.0686,0.4406,11.6976,37.9181,-1.2015,-2.0012,-0.3073,342.375
10:19:00:519,1.3454,0.0766,12.7247,38.1949,-0.857,-1.9102,-0.3549,342.6719
10:19:00:540,1.1468,0.4549,11.7287,38.5512,-0.2138,-1.135,-0.2578,342.7031
10:19:00:563,1.3956,0.7612,9.9188,38.7171,0.3378,0.0165,-0.1271,342.0312
10:19:00:580,1.7668,0.9003,8.3459,38.7863,0.6615,0.8198,-0.0257,341.9531
10:19:00:601,1.8147,1.1683,7.2613,38.8728,0.7868,1.0281,-0.0128,340.0938
10:19:00:620,1.5826,1.5084,6.5815,38.8738,0.813,0.7636,-0.0354,340.0781
10:19:00:641,1.2903,1.9032,6.3323,39.2222,0.7177,0.4019,-0.0409,338.8594
10:19:00:663,1.2305,2.3509,6.6867,39.5838,0.5247,0.0916,-0.0385,340.8906
10:19:00:680,1.3047,2.6719,7.0627,39.658,0.3305,-0.1155,-0.0458,340.8906
10:19:00:700,1.2257,2.4395,7.7928,39.7399,0.1552,-0.2785,-0.0782,344.0469
10:19:00:721,0.7732,2.0973,8.7123,40.0415,0.0031,-0.3909,-0.1552,344.0469
10:19:00:740,0.5195,2.1212,9.4663,40.1318,-0.0928,-0.4233,-0.1759,346.4062
10:19:00:763,0.5052,2.1404,10.5341,40.1424,-0.1338,-0.3335,-0.1264,346.4062
10:19:00:780,0.201,1.8266,11.1948,40.5198,-0.1045,-0.0055,-0.0489,345.2656
10:19:00:800,0.1531,1.6639,11.0082,40.4567,-0.0269,0.3616,0.0599,345.2656
10:19:00:820,0.3281,1.7046,10.5532,40.2728,0.0104,0.5296,0.1552,344.6875
10:19:00:841,0.376,1.8458,10.0624,40.4228,-0.0269,0.4728,0.1851,344.625
10:19:00:864,0.8354,2.1021,10.0696,40.5992,-0.1264,0.3036,0.1942,345.4219
10:19:00:882,1.0774,1.963,10.0816,40.8492,-0.2144,0.2407,0.1552,345.4844
10:19:00:903,0.5363,1.8075,11.4939,41.0637,-0.273,0.6212,0.0214,346.6719
10:19:00:920,0.1795,1.5419,12.1047,41.4364,-0.088,0.8729,0.0122,346.7969
10:19:00:940,-0.0814,1.3502,11.2714,41.4607,0.237,1.0885,0.0556,347.5781
10:19:00:963,-0.9434,0.984,9.2219,41.6404,0.474,1.1203,0.124,347.6406
10:19:00:982,-1.5562,0.8859,7.8191,41.8691,0.2957,0.9144,0.2938,347.9219
10:19:01:000,-1.3813,0.8955,8.0489,42.0519,-0.2456,0.5516,0.5375,347.9531
10:19:01:019,-1.1348,0.3185,9.8518,42.0633,-0.8692,0.2395,0.7397,348.0781
10:19:01:039,-0.5865,-0.1579,11.8149,42.1204,-1.218,0.0715,0.8515,348.0938
10:19:01:064,0.2704,-0.1388,12.8372,42.4059,-1.1698,0.0721,0.8589,348.0938
