Time,Acc_X,Acc_Y,Acc_Z,Meg,Gyr_X,Gyr_Y,Gyr_Z,Ore
20:26:50:075,0.0167,0.4501,9.9571,39.7401,-0.7171,-0.0953,-0.7068,135.4844
20:26:50:196,1.6711,2.2816,9.5716,39.4577,-0.0391,0.0006,-0.0788,218.0156
20:26:50:213,1.5802,2.2026,9.8853,39.4495,-0.1179,-0.0195,-0.1387,218.0156
20:26:50:233,1.3884,2.1739,10.0481,39.5561,-0.1472,-0.0159,-0.1765,218.0156
20:26:50:253,1.2544,2.2983,9.9547,39.6034,-0.1344,0.0012,-0.1869,218.0156
20:26:50:273,1.2209,2.4036,9.7774,39.497,-0.1106,0.0067,-0.1924,218.0156
20:26:50:294,1.2209,2.461,9.6769,39.5349,-0.091,-0.0043,-0.212,218.0156
20:26:50:313,1.252,2.5041,9.6841,39.3963,-0.0776,-0.0067,-0.2395,218.0156
20:26:50:333,1.3023,2.5738,9.5548,39.3521,-0.0721,0.0293,-0.2651,218.0156
20:26:50:353,1.3454,2.6121,9.4998,39.2631,-0.0611,0.0373,-0.2987,218.0156
20:26:50:379,1.264,2.6216,9.2339,39.21,-0.0305,0.0415,-0.347,218.0156
20:26:50:394,1.1874,2.5307,9.0018,39.1981,-0.0177,0.0116,-0.3964,218.0156
20:26:50:414,1.1037,2.4371,8.8893,38.9836,-0.0421,-0.0373,-0.441,218.0156
20:26:50:435,1.0319,2.4395,8.9922,38.6871,-0.113,-0.0434,-0.4679,218.0156
20:26:50:454,0.9888,2.4778,9.1813,38.3937,-0.2211,-0.0086,-0.474,218.0156
20:26:50:476,1.0295,2.5355,9.4687,38.2366,-0.303,0.0006,-0.4807,219.5469
20:26:50:496,0.8477,2.4873,9.4735,38.094,-0.317,0.0153,-0.5162,219.5469
20:26:50:514,0.6105,2.4156,9.4998,38.0597,-0.3036,0.0098,-0.5473,219.9219
20:26:50:535,0.4836,2.4203,9.574,37.9279,-0.2883,0.0024,-0.5437,219.9219
20:26:50:554,0.4214,2.4945,9.6027,37.5925,-0.2755,0.0208,-0.5278,220.3594
20:26:50:579,0.3688,2.5113,9.6482,37.6496,-0.2724,0.0501,-0.5198,220.3594
20:26:50:595,0.3497,2.4897,9.7176,37.8113,-0.2712,0.0635,-0.5162,220.8281
20:26:50:615,0.2752,2.4467,9.8303,37.7725,-0.2553,0.0715,-0.5174,220.875
20:26:50:637,0.1077,2.4179,9.8758,37.6794,-0.2199,0.0874,-0.5119,221.4375
20:26:50:654,0.0167,2.3844,9.9763,37.4718,-0.1686,0.0904,-0.4868,221.4844
20:26:50:677,0.0479,2.3892,9.9715,37.5849,-0.1051,0.088,-0.449,222.2188
20:26:50:696,0.0167,2.4395,9.8255,37.5983,-0.0379,0.1167,-0.3946,222.2969
20:26:50:716,-0.0048,2.3509,9.95,37.6454,-0.0635,0.1124,-0.3647,223.2188
20:26:50:733,0.012,2.2744,10.1605,37.5124,-0.0947,0.0916,-0.3244,223.3125
20:26:50:753,0.1531,2.083,10.5939,37.3033,-0.1216,0.0391,-0.2871,224.2969
20:26:50:778,0.3018,1.9367,11.2905,37.3727,-0.1264,-0.0122,-0.2535,224.5
20:26:50:794,0.1172,1.8984,11.7503,37.2491,-0.0806,0.0208,-0.2248,221.6562
20:26:50:814,-0.4813,1.8577,11.9082,37.1697,0.011,0.1179,-0.1967,222.8906
20:26:50:835,-1.0175,2.0686,11.3432,36.953,0.1295,0.2504,-0.1234,222.8906
20:26:50:855,-0.754,2.2098,10.6226,36.6495,0.2199,0.2651,-0.0336,224.1562
20:26:50:877,-0.2273,1.8817,10.2491,36.168,0.2303,0.1234,-0.0574,224.1562
20:26:50:896,-0.1795,1.0941,10.4264,36.0348,0.1222,-0.1203,-0.1839,225.2812
20:26:50:913,-0.6559,0.3353,11.3815,36.0159,-0.0831,-0.4416,-0.2877,225.2812
20:26:50:934,-1.2233,-0.0933,12.8874,35.7256,-0.2211,-0.6536,-0.2914,226.3125
20:26:50:953,-1.9175,-0.4956,13.5673,35.9289,-0.1533,-0.4838,-0.179,226.3125
20:26:50:979,-2.5475,-0.5195,12.6625,35.996,0.1405,0.0458,0.1112,226.3125
20:26:50:995,-2.6384,0.2369,10.1653,35.69,0.5424,0.6176,0.5211,227.1719
20:26:51:014,-2.3892,1.0582,7.8526,35.6602,0.8277,0.8863,0.8075,227.9219
20:26:51:034,-2.0806,1.7501,6.3586,35.9098,0.8576,0.8265,0.8937,227.9219
20:26:51:054,-1.5802,2.2098,6.0069,35.9266,0.6579,0.5204,0.8234,228.5156
20:26:51:077,-0.9099,2.272,6.8016,35.873,0.3415,0.1148,0.6249,228.5156
20:26:51:096,-0.5937,1.5873,8.2741,35.874,0.0354,-0.2266,0.3286,228.9375
20:26:51:115,-1.0295,0.7851,9.7463,35.6587,-0.182,-0.4404,0.0696,228.9688
20:26:51:135,-1.6998,0.3473,11.2307,35.5661,-0.2834,-0.4966,-0.0464,229.0625
20:26:51:159,-2.3438,-0.134,11.8508,35.7436,-0.2272,-0.2437,0.0116,229.0781
20:26:51:176,-2.406,0.5937,8.8199,35.868,0.1857,0.5864,0.6206,229.3125
20:26:51:195,-1.7333,1.3813,7.8,35.794,0.2425,0.6958,0.8393,229.3281
20:26:51:215,-1.2784,1.9606,7.0603,35.7321,0.1839,0.6915,0.8967,230.0312
20:26:51:234,-0.9793,2.3222,6.8016,35.98,0.0531,0.5504,0.8332,230.1094
20:26:51:255,-0.7469,2.3868,7.3331,36.1091,-0.1026,0.3036,0.6964,230.2344
20:26:51:273,-0.7253,2.0949,8.2741,36.2339,-0.2181,0.1038,0.562,230.25
20:26:51:293,-0.7277,1.9271,8.9563,36.36,-0.2541,0.0287,0.518,228.7188
20:26:51:314,-0.7014,2.0231,9.4208,36.2673,-0.2333,0.0208,0.54,226.6562
20:26:51:334,-0.5818,2.1691,9.4424,36.2883,-0.1662,0.0446,0.5742,226.6562
20:26:51:353,-0.3688,2.4299,9.4113,36.3195,-0.0953,0.025,0.5901,225.4219
20:26:51:378,-0.0215,2.6815,9.4328,36.2929,-0.0629,-0.0476,0.5638,225.4219
20:26:51:393,0.2584,2.7748,9.6769,36.3609,-0.091,-0.1649,0.471,225.5312
20:26:51:414,0.4765,2.6121,10.2945,36.4443,-0.1716,-0.3164,0.3323,225.5312
20:26:51:435,0.6583,2.3892,11.2307,36.7056,-0.2572,-0.4716,0.1881,225.2344
20:26:51:453,0.6296,2.1595,12.1262,36.7451,-0.2981,-0.5577,0.0654,225.2344
20:26:51:476,0.3473,1.9319,12.8396,36.9952,-0.2596,-0.5559,-0.0067,225.2344
20:26:51:496,0.1555,1.9175,12.8181,37.034,-0.1344,-0.4398,0.025,223.4375
20:26:51:514,0.553,2.2576,12.1573,37.1994,0.0159,-0.3183,0.1295,223.4219
20:26:51:536,1.2712,2.5857,11.5923,37.3695,0.1026,-0.295,0.1558,221.3438
20:26:51:553,1.7692,2.4586,11.4532,37.4155,0.0904,-0.3494,0.0287,219.8906
20:26:51:575,1.6304,1.7931,11.7215,37.5477,0.0153,-0.4038,-0.1833,219.8906
20:26:51:595,1.3908,0.9577,12.0518,37.7085,-0.0495,-0.4172,-0.3323,218.7188
20:26:51:614,1.2999,0.3808,12.5617,37.7056,-0.0324,-0.4166,-0.3824,218.7188
20:26:51:634,1.1731,-0.0766,12.5617,37.9131,0.1032,-0.2938,-0.3598,217.5469
20:26:51:653,1.1515,-0.2369,11.4509,38.1555,0.3146,-0.0269,-0.2401,217.4219
20:26:51:678,1.386,0.0742,9.8566,38.3233,0.5009,0.1942,-0.0843,216.4219
20:26:51:695,1.8147,0.5291,8.6904,38.5457,0.5876,0.2266,-0.0116,216.3125
20:26:51:716,2.5762,0.9697,7.9843,38.743,0.4948,0.0024,-0.2004,215.8906
20:26:51:735,2.3701,1.0271,7.8072,38.8597,0.3476,-0.0342,-0.3653,215.8594
20:26:51:754,1.9657,1.0439,7.6086,38.6135,0.1588,-0.0061,-0.5003,215.9375
20:26:51:774,1.5778,1.051,7.503,38.9533,-0.0269,0.0238,-0.587,215.9531
20:26:51:795,1.1324,1.0893,7.6373,38.9615,-0.1643,0.0128,-0.6328,215.8906
20:26:51:813,0.7804,1.209,8.0824,39.0181,-0.2187,-0.0348,-0.6328,215.7656
20:26:51:833,0.7229,1.4892,8.0824,39.127,-0.1698,-0.0189,-0.5766,215.7656
20:26:51:854,0.8716,1.8793,7.5341,39.1762,-0.0947,0.0299,-0.5149,216.3594
20:26:51:876,0.9266,2.2911,7.3283,39.3721,-0.1087,-0.0232,-0.496,216.3594
20:26:51:894,0.9769,2.4993,8.1063,39.5017,-0.2034,-0.2028,-0.5192,217.3281
20:26:51:913,1.0463,2.4132,9.1143,39.9258,-0.2614,-0.3299,-0.5467,217.3281
20:26:51:934,1.0415,2.2792,9.696,39.9702,-0.2401,-0.3482,-0.5461,217.3438
20:26:51:953,1.185,2.2839,10.1725,40.072,-0.1814,-0.3476,-0.5027,217.625
20:26:51:978,1.4749,2.4395,10.582,40.2539,-0.1081,-0.3341,-0.4441,217.625
20:26:52:041,1.6208,2.7221,10.9627,40.6048,-0.0263,-0.2816,-0.4178,217.5781
20:26:52:042,1.4892,2.9423,11.0034,40.6448,0.0751,-0.1655,-0.4245,218.1562
20:26:52:042,1.1061,3.1986,10.6298,40.6685,0.1906,-0.0165,-0.4374,218.1562
20:26:52:055,0.6966,3.4211,10.06,41.0395,0.2877,0.099,-0.4447,219.3281
20:26:52:078,0.4789,3.5264,9.8207,41.124,0.328,0.1417,-0.4575,219.3281
20:26:52:095,0.3568,3.4762,9.8949,41.4349,0.3048,0.1588,-0.4862,220.75
20:26:52:113,0.256,3.3733,10.1653,41.8156,0.2388,0.1729,-0.5296,220.75
20:26:52:134,-0.1795,3.134,10.5054,42.2307,0.1582,0.1955,-0.595,221.8594
20:26:52:154,-1.1994,2.892,10.8547,42.3177,0.091,0.2376,-0.6518,221.9688
20:26:52:177,-2.3438,2.8633,10.8141,42.7693,0.0403,0.3702,-0.6078,223.0312
20:26:52:193,-2.7939,2.8346,10.273,42.9119,-0.025,0.5278,-0.4484,223.1406
20:26:52:214,-1.9944,2.5137,9.7893,42.9943,-0.3195,0.2724,-0.2456,224.3438
20:26:52:235,0.0167,0.6488,11.7479,43.4171,-0.5229,-0.2352,-0.394,224.4688
20:26:52:259,-1.1946,-0.0455,14.1299,43.5804,-0.5791,-0.5559,-0.5718,225.5312
20:26:52:275,-2.8561,-0.8955,14.4197,43.84,-0.2834,-0.2291,-0.4447,225.6406
20:26:52:293,-3.2417,-1.1276,11.6761,43.9649,0.2749,0.4276,0.1008,226.5469
20:26:52:313,-2.1093,-0.2082,8.9994,44.0652,0.7281,0.6713,0.7214,227.4844
20:26:52:333,-0.565,1.1515,8.1832,44.3223,0.865,0.4123,1.0336,227.4844
20:26:52:354,0.9338,2.3103,8.2406,44.6783,0.7611,0.1093,0.9822,228.4375
20:26:52:377,1.3406,2.4514,8.0178,44.7611,0.5223,0.0018,0.6157,228.4375
20:26:52:393,0.6464,1.5036,7.8168,44.867,0.2138,-0.0342,0.1668,229.5781
20:26:52:413,-0.4478,0.6655,8.298,45.0801,-0.0776,-0.1112,-0.08,229.6875
20:26:52:435,-1.3119,0.6033,9.052,44.966,-0.2517,-0.1191,-0.058,229.6875
20:26:52:453,-1.5514,0.9673,9.3682,45.1901,-0.2486,0.0177,0.1222,230.9531
20:26:52:476,-1.4366,1.4151,8.9109,45.4657,-0.0941,0.2352,0.2957,230.9688
20:26:52:496,-1.386,1.7692,7.4886,45.7622,0.0886,0.4856,0.4129,231.5781
20:26:52:514,-1.4079,2.2074,6.4232,45.7654,0.1399,0.5437,0.4917,232.2969
20:26:52:536,-1.2808,2.7006,6.3849,46.1541,0.0605,0.3671,0.5363,232.2969
20:26:52:557,-0.9673,3.0571,7.0388,46.3709,-0.0403,0.1289,0.5211,233.5469
20:26:52:575,-0.6631,3.0404,7.8,46.8773,-0.1057,-0.0202,0.4313,233.5469
20:26:52:594,-0.577,2.9423,8.2478,47.3293,-0.1423,-0.0446,0.3366,232.4688
20:26:52:614,-0.6081,2.8298,8.9133,47.6992,-0.1869,-0.077,0.2639,232.4688
20:26:52:634,-0.7181,2.691,9.5405,47.8385,-0.1997,-0.1087,0.2101,230.375
20:26:52:654,-0.9266,2.4897,9.8542,48.0712,-0.168,-0.1222,0.1729,230.1562
20:26:52:676,-0.7516,2.3174,10.2108,48.3853,-0.1277,-0.1857,0.1759,229.3594
20:26:52:694,-0.2369,2.2481,10.5891,48.6098,-0.1136,-0.2767,0.1985,229.2812
20:26:52:715,0.4454,2.1619,11.4461,48.8189,-0.1655,-0.4795,0.1417,229.4531
20:26:52:736,0.577,2.0399,12.9042,48.8135,-0.1851,-0.551,0.0715,229.4688
20:26:52:760,0.6464,2.0542,13.2275,49.0259,-0.1808,-0.5217,0.0739,229.0156
20:26:52:778,1.5227,1.9367,13.0334,49.1093,-0.1918,-0.4142,0.1326,228.9688
20:26:52:793,2.4395,1.7213,13.1219,49.5896,-0.2682,-0.361,0.113,227.8906
20:26:52:814,2.7293,1.2377,13.7013,49.8239,-0.3506,-0.328,-0.0122,226.6406
20:26:52:833,2.272,0.7277,13.6439,50.3455,-0.3195,-0.146,-0.1319,226.6406
20:26:52:855,1.841,0.4167,12.521,50.6803,-0.1472,0.1368,-0.1289,225.7656
20:26:52:877,1.8338,0.4047,11.0943,50.9152,0.0764,0.347,-0.0354,225.7656
20:26:52:893,2.1284,0.5985,9.8133,51.115,0.2602,0.4099,0.0611,225.6875
20:26:52:913,2.8609,0.6846,9.0473,51.2998,0.3873,0.2816,0.0843,225.2031
20:26:52:933,3.335,0.8883,8.6306,51.5309,0.4734,0.1057,-0.0079,225.2031
20:26:52:954,3.0547,1.1515,7.9747,51.7055,0.482,0.0525,-0.1851,224.875
20:26:52:976,2.3055,1.2568,7.2661,51.8377,0.3769,0.0855,-0.3622,224.875
20:26:52:995,1.4342,1.2377,6.7896,52.0105,0.2052,0.1191,-0.4777,224.5781
20:26:53:014,0.7947,1.2664,6.5886,52.1482,0.0538,0.1179,-0.5156,224.5625
20:26:53:035,0.486,1.4438,6.469,52.4257,-0.0428,0.1026,-0.4911,224.5156
20:26:53:058,0.4143,1.7692,6.5982,52.8725,-0.1173,0.0531,-0.452,224.4688
20:26:53:077,0.5219,2.1739,6.9332,53.3059,-0.1857,-0.0128,-0.4258,224.4688
20:26:53:095,0.7493,2.5403,7.4647,53.5175,-0.2407,-0.0861,-0.4404,224.5
20:26:53:113,0.8716,2.6958,8.0871,53.6365,-0.2724,-0.1533,-0.5247,224.5
20:26:53:135,0.7995,2.5283,8.8534,53.7942,-0.2853,-0.2095,-0.6334,224.8125
20:26:53:153,0.9553,2.1404,9.4567,53.8984,-0.273,-0.2553,-0.6909,224.8125
20:26:53:176,1.1396,1.8625,10.0648,54.1472,-0.2645,-0.303,-0.7025,224.6719
20:26:53:198,0.9314,1.817,10.9938,54.311,-0.2743,-0.2902,-0.6475,224.6562
20:26:53:214,0.4597,1.8338,11.846,54.3806,-0.1503,-0.0635,-0.5149,224.4844
20:26:53:236,-0.4741,2.5953,11.1709,54.3848,0.0953,0.2162,-0.2724,224.4688
20:26:53:254,0.0933,3.3135,10.2227,54.5408,0.3457,0.3158,-0.0489,224.9531
20:26:53:276,1.0558,3.9287,9.95,54.8915,0.485,0.2095,0.0324,225
20:26:53:294,1.7429,4.3502,10.2419,55.0151,0.5082,0.0281,-0.0641,225.9531
20:26:53:313,1.4557,4.2015,10.6753,55.0949,0.4557,-0.0666,-0.3262,226.9688
20:26:53:333,0.2393,3.5934,10.9651,55.109,0.3787,-0.0617,-0.5876,226.9688
20:26:53:354,-0.9577,3.1077,10.8356,55.1993,0.3176,0.0031,-0.6872,227.9531
20:26:53:376,-1.063,2.7867,10.2658,55.3239,0.2217,0.0409,-0.6347,227.9531
20:26:53:394,-0.3712,2.2265,10.4527,55.5719,0.0092,-0.1802,-0.6102,228.0469
20:26:53:413,0.0479,1.1539,12.2124,55.7735,-0.2578,-0.6463,-0.7324,229.3906
20:26:53:435,-1.0104,0.1627,14.6279,55.9164,-0.358,-0.8906,-0.8882,229.4062
20:26:53:458,-3.1986,-0.8043,14.3456,56.1026,-0.1387,-0.3604,-0.7599,231.0312
20:26:53:476,-4.0173,-0.9362,11.7168,56.3733,0.2755,0.4184,-0.1802,231.0469
20:26:53:494,-3.2752,-0.1866,8.9324,56.6046,0.6078,0.7923,0.4991,232.6406
20:26:53:514,-1.9152,0.9218,7.5652,56.8663,0.6707,0.6707,0.9395,233.4844
20:26:53:535,-0.0598,2.2433,7.721,57.2648,0.4844,0.3305,1.0934,233.4844
20:26:53:558,1.3238,2.9758,8.7242,57.1589,0.1881,0.058,0.8894,233.4062
20:26:53:576,1.1922,2.5642,9.1693,57.2323,-0.0409,0.0312,0.441,233.4062
20:26:53:594,0.0526,1.5419,8.9396,57.3097,-0.1203,0.1613,0.0647,233.8281
20:26:53:614,-0.8644,0.9338,8.3411,57.687,-0.0953,0.281,-0.0116,233.8281
20:26:53:635,-1.142,1.0223,7.9771,57.8259,-0.0348,0.3036,0.1368,235.2031
20:26:53:653,-1.0008,1.6161,7.8598,58.2213,0.044,0.2987,0.3311,235.2031
20:26:53:675,-1.0606,2.3988,7.5341,58.4975,0.1093,0.3806,0.4636,236.4844
20:26:53:695,-1.0463,3.0933,6.9978,58.5394,0.1161,0.4789,0.529,236.6094
20:26:53:714,-0.7253,3.4235,6.5527,59.1688,0.0397,0.4423,0.5039,238.5
20:26:53:737,-0.7086,3.1316,9.0903,59.6473,-0.2663,-0.1509,0.157,238.6875
20:26:53:755,-0.9817,2.782,10.4432,59.7447,-0.2767,-0.2462,0.055,239.625
20:26:53:776,-1.319,2.4514,11.0417,60.0881,-0.1484,-0.1527,0.0464,239.7188
20:26:53:794,-1.6854,2.1117,10.9651,60.6089,0.0672,-0.0299,0.1026,238.0312
20:26:53:813,-1.6711,2.0877,10.3807,60.52,0.2871,0.0367,0.237,235.7969
20:26:53:833,-0.7995,2.3486,10.0146,60.6772,0.4166,-0.0067,0.3995,235.7969
20:26:53:853,0.067,2.6767,10.2395,61.0053,0.4178,-0.1148,0.4606,235.5938
20:26:53:876,0.5363,2.825,10.4264,61.0959,0.3207,-0.1497,0.4221,235.0312
20:26:53:893,0.6942,2.648,10.5221,61.2953,0.171,-0.1295,0.3512,234.9844
20:26:53:913,0.5913,2.5475,10.5174,61.7921,0.0177,-0.1002,0.3115,234.75
20:26:53:933,0.7804,2.6743,10.6777,61.9305,-0.1051,-0.1136,0.3421,234.7188
20:26:53:955,1.5849,2.8418,11.0201,62.2088,-0.171,-0.1961,0.3763,233.7188
20:26:53:975,2.4754,2.7556,11.4939,62.6178,-0.1949,-0.3451,0.303,233.7031
20:26:53:995,2.9088,2.016,12.2794,62.8811,-0.2236,-0.5479,0.1081,232.3906
20:26:54:014,2.5089,1.4004,13.395,63.1902,-0.2413,-0.6872,-0.0971,231.8125
20:26:54:035,1.8123,0.8692,13.8356,63.3589,-0.1423,-0.5565,-0.1716,231.8125
20:26:54:060,1.4462,0.4573,12.7941,63.8023,0.1057,-0.1753,-0.0385,231.7812
20:26:54:124,1.8505,0.8524,11.0106,64.0006,0.394,0.1716,0.2028,231.7812
20:26:54:125,2.7461,1.5323,9.2605,64.1616,0.5876,0.3378,0.336,231.4062
20:26:54:125,3.268,2.1069,8.1688,64.3886,0.6121,0.2633,0.2425,231.4062
20:26:54:134,3.0715,2.2265,7.7474,64.7643,0.4813,0.0831,-0.0409,230.4844
20:26:54:160,2.1691,1.7883,7.5823,64.867,0.2737,-0.0134,-0.3482,230.4844
20:26:54:176,1.0128,1.5036,7.4336,64.8911,0.0751,0.0049,-0.5101,229.75
20:26:54:195,0.2776,1.4916,7.4815,65.2563,-0.047,0.0495,-0.5015,229.6875
20:26:54:213,0.067,1.7166,7.3499,65.317,-0.0672,0.1307,-0.3971,229.0781
20:26:54:234,0.268,2.3366,7.0074,65.282,-0.036,0.2401,-0.2853,229.0156
20:26:54:260,0.6033,2.782,6.5719,65.312,-0.0305,0.3335,-0.2388,228.4375
20:26:54:277,0.8163,3.2632,6.4546,65.2296,-0.0916,0.2517,-0.2706,228.3906
20:26:54:294,1.506,3.5862,8.7625,65.2575,-0.2242,-0.4056,-0.4355,228.6094
20:26:54:313,1.908,3.5839,9.5883,65.4043,-0.1478,-0.5253,-0.5498,228.9844
20:26:54:333,2.1595,3.591,9.7439,65.5806,-0.0367,-0.5003,-0.6273,228.9844
20:26:54:354,2.7126,3.7828,9.883,65.5487,0.0293,-0.4697,-0.6255,229.0156
20:26:54:377,3.1196,4.1201,10.1103,65.4474,0.0428,-0.4154,-0.6115,228.3594
20:26:54:393,2.8322,4.4315,10.1988,65.7477,0.0556,-0.2755,-0.6402,228.2812
20:26:54:413,2.0518,4.5846,9.993,66.0549,0.1038,-0.0764,-0.6829,227.9688
20:26:54:433,1.427,4.7907,9.7008,66.1996,0.1686,0.0715,-0.7037,227.9375
20:26:54:453,1.1013,4.7907,9.5405,66.2414,0.2028,0.1045,-0.7294,228.8594
20:26:54:474,0.7756,4.6205,9.8758,66.4481,0.179,0.0031,-0.7923,228.8594
20:26:54:495,0.2249,4.3023,10.4958,66.4604,0.1307,-0.1075,-0.857,229.8125
20:26:54:514,-0.5363,3.8282,11.0824,66.3876,0.1203,-0.1448,-0.8949,230.25
20:26:54:535,-1.4892,3.3948,11.415,66.5911,0.1833,-0.1435,-0.9047,230.25
20:26:54:558,-2.5355,3.1053,11.2857,66.359,0.2718,-0.0574,-0.8589,230.8906
20:26:54:576,-3.3637,2.9207,10.8787,66.334,0.306,0.0849,-0.6939,230.8906
20:26:54:595,-3.1412,2.691,10.1031,66.1883,0.2718,0.1906,-0.4129,232.1875
20:26:54:615,-2.8083,2.5905,9.5812,65.9894,0.1869,0.0806,-0.1875,232.1875
20:26:54:636,-2.3557,1.9343,9.5237,65.653,0.1008,-0.2211,-0.055,233.7812
20:26:54:653,-2.3103,1.3119,10.1653,65.5245,0.036,-0.5913,0.0055,233.7812
20:26:54:675,-2.5953,0.9338,10.5915,65.5683,0.0012,-0.7483,0.0812,235.1719
20:26:54:695,-2.6001,0.6248,10.2969,65.4089,0.0018,-0.5827,0.2596,235.3125
20:26:54:714,-2.0542,0.5459,9.7726,65.6607,0.0226,-0.3971,0.4801,236.7031
20:26:54:735,-1.1372,0.7899,9.5859,65.4057,0.044,-0.4068,0.6506,236.8281
20:26:54:753,-0.0957,1.1611,9.9356,65.4081,0.0318,-0.5046,0.7129,238.3281
20:26:54:778,0.862,1.427,10.218,65.8043,-0.1423,-0.0892,0.5968,238.4688
20:26:54:794,0.5554,1.2353,8.9204,65.9484,-0.2785,0.3543,0.5516,240.2812
20:26:54:813,0.2994,1.3693,8.0728,66.2555,-0.3995,0.6151,0.6023,240.4531
20:26:54:833,0.2994,1.9872,7.5918,66.1679,-0.4862,0.7116,0.7153,242.2656
20:26:54:853,0.4501,2.6456,7.4145,66.1458,-0.5241,0.6884,0.799,242.4375
20:26:54:878,0.6368,3.2034,7.5509,66.0809,-0.5058,0.5632,0.8057,243.5
20:26:54:894,0.6799,3.7899,8.013,66.2255,-0.4398,0.4331,0.722,243.5938
20:26:54:913,0.7253,3.9909,8.5253,66.2788,-0.325,0.3115,0.5669,243.8906
20:26:54:933,0.6105,3.7684,9.1956,66.1609,-0.1826,0.1497,0.3806,243.9062
20:26:54:953,0.2201,3.3398,9.8447,66.2173,-0.0507,0.0073,0.2364,244.1562
20:26:54:976,-0.1627,2.8825,10.2538,66.1022,0.0495,-0.0403,0.1918,244.1562
20:26:54:996,-0.3855,2.6097,10.4336,66.1784,0.1246,0.0116,0.223,243.5938
20:26:55:014,-0.2321,2.6216,10.4527,66.1988,0.1851,0.1552,0.2908,243.5938
20:26:55:035,0.2106,2.8178,10.2754,66.2183,0.2114,0.3702,0.3433,242.3281
20:26:55:060,0.3879,2.8753,10.0624,66.1,0.1839,0.4704,0.3292,241.0781
20:26:55:073,0.5698,2.7054,9.9954,66.0842,0.1142,0.3005,0.3018,241.0781
20:26:55:096,1.1635,2.4897,10.4169,65.8174,0.0318,-0.0531,0.3109,239.5938
20:26:55:114,2.0351,2.8107,11.135,65.5886,-0.0324,-0.3586,0.3653,239.5938
20:26:55:135,3.1268,3.5695,11.8125,65.3499,-0.0519,-0.4771,0.441,237.6562
20:26:55:159,4.2425,4.2664,12.2842,65.1011,-0.0287,-0.3995,0.4575,237.6562
20:26:55:174,4.9774,4.6229,12.5139,64.7421,0.011,-0.1967,0.3305,235.7812
20:26:55:196,4.9989,4.3334,11.9082,64.6125,0.0391,0.0672,0.0263,235.7812
20:26:55:215,4.252,2.7867,10.8284,64.2589,0.011,0.1814,-0.3971,234.75
20:26:55:235,2.3701,1.0798,10.8452,64.1972,-0.077,-0.1662,-0.7764,234.6562
20:26:55:258,0.7612,-0.0215,11.1183,63.9882,-0.1313,-0.6023,-0.8393,234.2344
20:26:55:278,1.2616,0.2321,10.0265,63.9051,-0.0702,-0.014,-0.223,234.1875
20:26:55:298,1.7524,0.7612,9.3802,63.9458,-0.0134,0.2278,-0.1283,233.625
20:26:55:314,1.992,0.9673,9.2148,63.9013,0.0079,0.1784,-0.2004,233.5781
20:26:55:334,1.5227,0.8692,9.0473,64.0061,-0.0263,0.0953,-0.3189,232.7188
20:26:55:353,0.9434,0.8402,8.487,63.6418,-0.0843,0.1778,-0.3647,232.6406
20:26:55:373,0.3927,0.8186,7.7593,63.7107,-0.1411,0.3512,-0.3744,231.9688
20:26:55:394,-0.1125,0.941,7.0747,63.1824,-0.2034,0.5088,-0.372,231.9062
20:26:55:413,-0.3832,1.2616,6.6102,62.9951,-0.2785,0.62,-0.339,231.2656
20:26:55:434,-0.5148,1.6376,6.3491,62.7265,-0.3653,0.6585,-0.3073,231.2031
20:26:55:453,-0.6846,1.9558,6.4642,62.368,-0.4545,0.5577,-0.2889,230.5312
20:26:55:476,-0.7086,2.2193,6.9236,62.2141,-0.5186,0.3372,-0.2492,230.4688
20:26:55:495,-0.2441,2.2744,7.4097,61.8221,-0.5375,0.1252,-0.1851,230.7969
20:26:55:513,0.3281,2.3246,7.8838,61.6543,-0.5272,-0.0202,-0.1429,232.75
20:26:55:536,0.6535,2.3677,8.2382,61.3395,-0.5046,-0.113,-0.1313,232.75
20:26:55:559,0.8234,2.3533,8.6952,61.3603,-0.485,-0.2401,-0.1124,233.7188
20:26:55:576,1.5156,2.6647,9.7463,61.0896,-0.4435,-0.4563,-0.0305,233.7188
20:26:55:595,2.5451,3.2417,11.281,61.0458,-0.3506,-0.6768,0.0489,234
20:26:55:615,2.9423,3.7612,12.478,60.7402,-0.2193,-0.6903,0.0159,234
20:26:55:635,2.4754,3.9479,12.8252,60.5815,-0.0507,-0.4294,-0.1081,234.6875
20:26:55:658,1.6017,3.8928,12.3296,60.6091,0.1399,-0.0965,-0.2248,234.6875
20:26:55:675,0.8764,3.7851,11.5134,60.3812,0.3066,0.1381,-0.2779,235.3438
20:26:55:695,0.5219,3.6126,10.9074,60.2483,0.3977,0.2199,-0.3024,235.3438
20:26:55:714,0.1125,3.3446,10.8811,60.0818,0.4001,0.1771,-0.3512,235.7656
20:26:55:735,-0.766,2.9853,11.2475,60.1735,0.3781,0.1167,-0.4117,235.7969
20:26:55:759,-1.6926,2.6551,11.2379,59.8359,0.3983,0.1741,-0.3977,236.1875
20:26:55:777,-1.9657,2.4251,10.8763,59.8799,0.4343,0.2993,-0.2834,236.2344
20:26:55:797,-1.4509,2.3198,10.4432,59.7119,0.3952,0.3341,0.0171,236.5469
20:26:55:814,0.0311,1.9128,9.9069,59.5328,0.2926,0.237,0.1112,236.5781
20:26:55:834,1.2975,1.2664,10.2682,59.4531,0.1118,-0.1625,0.0525,236.8906
20:26:55:858,0.8402,0.6344,12.076,59.4297,-0.0531,-0.7709,-0.1833,236.9062
20:26:55:876,-0.6224,0.0024,13.0549,59.113,-0.0275,-0.967,-0.3543,237.0781
20:26:55:893,-1.2975,-0.5913,12.0784,58.7554,0.1539,-0.4752,-0.2553,237.0938
20:26:55:913,-1.197,-0.6033,10.2132,58.9648,0.3042,0.3549,0.0214,237.3594
20:26:55:933,-0.8234,0.2656,8.6761,58.9269,0.3244,0.9774,0.3024,237.375
20:26:55:954,-0.2297,1.5036,7.7641,58.7557,0.2248,0.9896,0.474,237.8594
20:26:55:975,0.4286,2.2026,8.1449,58.6262,0.0531,0.3879,0.4752,237.9062
20:26:55:994,0.8429,2.1452,8.9587,58.5246,-0.0623,-0.1442,0.3158,238.5469
20:26:56:015,1.1276,1.7333,8.8319,58.4273,-0.0373,-0.1942,0.0031,239.3594
20:26:56:035,-0.134,1.2305,8.0417,58.4151,-0.0299,-0.0189,-0.3879,239.3594
20:26:56:058,-1.3525,1.3071,7.8239,58.3498,-0.1026,0.088,-0.361,239.6875
20:26:56:076,-1.2401,1.5012,7.3594,58.1158,-0.2114,0.2474,-0.0006,239.6875
20:26:56:096,-0.8812,2.138,7.2685,57.9443,-0.3732,0.3274,0.3341,239.4375
20:26:56:113,-0.6488,2.7485,7.4192,57.8845,-0.5608,0.3115,0.4868,239.4375
20:26:56:189,-0.4478,2.8657,7.7474,57.8455,-0.7245,0.204,0.4746,239.7656
20:26:56:190,-0.3616,2.825,8.3459,57.7265,-0.8289,0.0275,0.3952,239.7656
20:26:56:198,-0.3305,2.8848,9.2219,57.776,-0.8448,-0.1387,0.3317,240.7188
20:26:56:198,-0.3305,2.4227,9.7822,57.7045,-0.7593,-0.2199,0.2871,240.7188
20:26:56:213,-0.443,2.0303,10.3567,57.9193,-0.6072,-0.1949,0.2095,240.1562
20:26:56:235,-1.0845,1.7764,10.4862,57.9761,-0.449,-0.0415,0.19,240.0938
20:26:56:253,-1.2784,1.7692,10.5126,58.1553,-0.2932,0.1216,0.3103,238.8906
20:26:56:276,-0.862,1.8577,10.5174,58.3823,-0.135,0.2346,0.5033,238.7656
20:26:56:294,-0.2369,1.9825,10.503,58.4871,0.0092,0.2932,0.6108,238.5
20:26:56:314,0.4334,1.9367,10.3711,58.7254,0.1136,0.2504,0.5718,238.4688
20:26:56:335,0.862,1.5227,10.1103,58.4292,0.1283,0.0941,0.4166,239.2031
20:26:56:358,0.5195,0.9601,10.4671,58.6422,-0.1155,-0.3347,0.1918,239.2812
20:26:56:376,0.9051,1.0032,10.7782,58.5452,-0.2969,-0.3744,0.2834,238.8438
20:26:56:393,1.6878,0.9888,11.2283,58.6501,-0.4777,-0.3995,0.3916,238.8125
20:26:56:413,2.6623,0.6535,11.9991,58.6113,-0.6145,-0.5027,0.3799,237.75
20:26:56:433,3.0212,-0.0933,12.8659,58.5319,-0.6603,-0.6481,0.2022,237.6406
20:26:56:455,2.0734,-0.7349,13.5553,58.4872,-0.5675,-0.6457,-0.0336,236.9219
20:26:56:475,1.1827,-1.0845,12.8779,58.3295,-0.3305,-0.2132,-0.0538,236.8594
20:26:56:495,1.2257,-0.6416,11.3432,58.7299,-0.0623,0.4099,0.1845,236.375
20:26:56:515,1.8697,0.3401,10.2754,58.6554,0.1295,0.6536,0.369,235.8125
20:26:56:535,2.6097,0.9099,9.8566,58.8114,0.2272,0.4478,0.2566,235.8125
20:26:56:556,2.4993,0.8139,9.9835,58.9612,0.2462,0.0843,-0.1295,234.5156
20:26:56:575,1.5419,0.3903,9.871,59.0762,0.1955,-0.0165,-0.5211,234.5156
20:26:56:596,0.3281,0.0383,9.1095,59.2697,0.0861,0.168,-0.6854,233.375
20:26:56:613,-0.4525,0.146,8.2167,59.3681,-0.0458,0.3836,-0.617,233.375
20:26:56:635,-0.7325,0.5913,7.6804,59.7234,-0.157,0.5308,-0.4508,232.9688
20:26:56:658,-0.8306,1.0271,7.4073,59.776,-0.2309,0.6011,-0.3109,232.9688
20:26:56:674,-0.8788,1.343,7.4216,60.268,-0.2602,0.5748,-0.2205,232.3438
20:26:56:695,-0.8043,1.5921,7.3786,60.4825,-0.2621,0.5162,-0.16,232.3438
20:26:56:714,-0.6583,1.8003,7.3642,60.6407,-0.2492,0.336,-0.1271,231.8906
20:26:56:735,-0.1675,2.1284,8.2621,60.5684,-0.1765,-0.0776,-0.1179,231.8906
20:26:56:759,0.5435,2.1141,9.2629,60.7105,-0.025,-0.4251,-0.1826,232.0938
20:26:56:775,1.1396,1.9152,9.9236,60.7186,0.1845,-0.5211,-0.2895,232.1094
20:26:56:794,1.3358,1.8482,10.3352,60.9125,0.3806,-0.4172,-0.4007,231.4531
20:26:56:814,1.1946,1.8003,10.7136,61.0365,0.5345,-0.0531,-0.5516,231.3906
20:26:56:837,0.7971,1.6974,10.6681,61.012,0.5033,0.11,-0.4936,231.1875
20:26:56:859,-0.3999,1.5826,10.4599,61.1061,0.4239,0.3769,-0.2932,231.1719
20:26:56:875,-0.51,2.3127,10.4743,61.0694,0.2969,0.5931,0.0208,232.3438
20:26:56:893,0.0574,3.1531,10.8787,61.4009,0.2291,0.573,0.27,232.4531
20:26:56:913,0.443,3.5432,11.3958,61.5426,0.281,0.4551,0.2749,233.4375
20:26:56:933,0.3162,3.0885,11.4221,61.9733,0.4209,0.3977,0.0476,233.5156
20:26:56:954,-1.1061,2.782,10.6226,61.9724,0.4325,0.4337,-0.2834,233.9375
20:26:56:976,-2.4658,2.8466,10.6944,62.0367,0.325,0.2639,-0.4221,233.9688
20:26:56:995,-1.8817,2.3151,11.0584,62.2191,0.2272,0.0525,-0.3604,234.1719
20:26:57:015,-0.4478,0.8931,10.6729,62.3324,0.0006,-0.2816,-0.3848,234.5781
20:26:57:036,-0.7229,-0.1603,12.4684,62.5294,-0.3176,-0.934,-0.5773,234.5781
20:26:57:058,-2.3294,-1.0726,14.0414,62.7984,-0.4258,-1.025,-0.6597,235.4375
20:26:57:075,-3.6823,-1.7979,12.7702,62.9705,-0.2908,-0.2388,-0.3958,235.4375
20:26:57:096,-3.5264,-1.6878,10.1868,63.066,-0.1014,0.5681,0.1674,236.6406
20:26:57:114,-2.2074,-0.5339,8.8487,63.262,-0.0061,0.7226,0.7025,236.6406
20:26:57:136,-0.7756,0.8668,9.1286,63.7775,0.0153,0.3011,0.9132,237.4375
20:26:57:159,0.486,1.6184,10.1653,63.9748,0.1118,-0.1222,0.8112,237.4375
20:26:57:174,0.7301,1.3478,10.1438,64.4502,0.2694,-0.1118,0.493,236.9688
20:26:57:195,-0.1531,0.7373,9.4687,64.7636,0.3653,0.1136,0.1686,236.9688
20:26:57:214,-1.1085,0.285,8.566,65.0133,0.3372,0.3995,0.0586,236.5156
20:26:57:235,-1.4964,0.5698,7.7928,65.4588,0.1845,0.689,0.193,236.5156
20:26:57:260,-1.209,1.2568,7.2159,65.8986,-0.0629,0.9493,0.4233,237.125
20:26:57:275,-1.0463,1.7142,7.0412,66.3169,-0.3354,1.0342,0.5504,237.1875
20:26:57:294,-1.0606,1.9008,7.3307,66.5685,-0.5113,0.8967,0.5363,237.9844
20:26:57:314,-1.2281,1.8697,7.7737,66.8889,-0.5015,0.6933,0.4429,238.0625
20:26:57:336,-1.5491,1.3956,8.5971,66.9779,-0.0483,0.4697,0.2608,239.5469
20:26:57:356,-1.4438,1.3573,7.9866,67.1585,0.3671,0.3732,0.2272,239.7031
20:26:57:374,-1.4797,1.5275,7.3451,67.4886,0.5577,0.1112,0.2523,239.8906
20:26:57:393,-1.2449,2.0327,7.3451,67.7371,0.4606,-0.2315,0.3207,239.9062
20:26:57:413,-0.6751,2.5184,8.0728,67.8288,0.1399,-0.5424,0.3445,238.1719
20:26:57:433,-0.1316,2.4108,9.4998,68.2373,-0.2932,-0.609,0.2401,238
20:26:57:455,0.1938,1.7644,10.5006,68.3095,-0.5846,-0.4068,0.0794,236.7188
20:26:57:477,0.7325,1.3525,11.4269,68.5221,-0.6292,-0.3781,-0.0947,236.5938
20:26:57:500,0.9577,0.929,12.9473,68.7656,-0.5131,-0.6347,-0.3152,236.3125
20:26:57:524,0.8572,0.7229,13.85,69.1725,-0.273,-0.7147,-0.4606,235.3438
20:26:57:541,1.5778,0.7564,12.6601,69.3186,-0.0367,-0.4697,-0.4813,235.3438
20:26:57:554,2.1643,0.5267,10.7471,69.2776,-0.0947,-0.2297,-0.6096,233.7969
20:26:57:578,2.0279,-0.2393,10.7016,69.7154,-0.4624,-0.3964,-0.8656,233.7969
20:26:57:596,1.5754,-0.8764,12.4253,69.6179,-0.7526,-0.7556,-1.0366,232.7031
20:26:57:613,1.4103,-1.2927,13.7662,69.694,-0.675,-0.8937,-1.0213,232.7031
20:26:57:634,1.707,-1.3119,13.8021,69.8045,-0.2651,-0.7208,-0.8668,232.0625
20:26:57:654,2.3438,-0.8091,12.4397,69.8928,0.2633,-0.3183,-0.6701,232.0625
20:26:57:677,2.7126,-0.8091,10.3857,69.9181,0.6903,0.0269,-0.5388,231.5312
20:26:57:695,3.0667,0.4525,9.131,69.8895,0.843,0.1222,-0.4862,231.5312
20:26:57:713,3.2536,1.2497,8.6641,70.1802,0.7886,-0.0819,-0.6628,231.0625
20:26:57:734,2.4299,0.8306,8.6737,70.1493,0.6365,-0.3292,-0.992,231.0625
20:26:57:753,1.1515,0.6057,8.0608,70.2312,0.3683,-0.19,-1.2345,231.1094
20:26:57:777,0.1675,0.4238,7.7043,70.1874,0.099,-0.0715,-1.182,231.125
20:26:57:795,-0.0646,0.8378,7.381,70.1693,-0.0898,0.1185,-0.8992,232.0312
20:26:57:813,0.3497,1.6065,7.491,70.272,-0.1704,0.1558,-0.5937,232.125
20:26:57:835,1.7261,2.7389,8.808,70.3915,-0.1246,-0.0092,-0.4044,233.2969
20:26:57:861,1.9056,2.8992,8.9133,70.6891,0.0299,-0.0892,-0.3952,233.4219
20:26:57:877,1.6543,2.6958,8.7936,70.6926,0.2107,-0.0702,-0.5663,235.4219
20:26:57:893,0.8979,2.1117,8.8654,70.5792,0.2645,-0.237,-1.0861,235.6094
20:26:57:914,0.2201,1.8099,9.5022,70.6772,0.1295,-0.3598,-1.1459,237.6562
20:26:57:933,0.2465,1.9128,10.2969,70.8549,-0.0067,-0.3164,-1.0006,237.8594
20:26:57:953,0.0455,2.0566,10.3687,70.9659,-0.1332,-0.0122,-0.8277,239.125
20:26:57:977,-0.5913,2.2193,10.3496,71.0287,-0.2388,0.2627,-0.7031,239.25
20:26:57:994,-0.9936,2.3629,10.5915,70.9752,-0.2865,0.3635,-0.562,240.4219
20:26:58:014,-0.5554,2.2241,10.5867,70.6044,-0.2785,0.4074,-0.3848,243.0781
20:26:58:034,0.0383,2.3055,11.3719,70.5314,-0.2401,0.2761,-0.2474,243.0781
20:26:58:055,0.2058,2.4443,12.5306,70.7551,-0.1338,0.1435,-0.1869,245.3594
20:26:58:075,-0.0239,2.2337,12.4373,70.8574,0.0678,0.2859,-0.1723,245.3594
20:26:58:095,-0.8258,2.1547,12.035,70.9045,0.3036,0.3946,-0.2187,246.4531
20:26:58:114,-1.4725,2.1811,11.645,70.7916,0.4881,0.3977,-0.2724,246.4531
20:26:58:134,-1.197,1.9319,10.7064,70.623,0.5339,0.3573,-0.2932,247.5312
20:26:58:157,-0.364,1.3143,10.3328,70.6026,0.383,0.0287,-0.3665,247.5312
20:26:58:174,-0.3209,0.5865,11.6282,70.5791,0.1338,-0.5339,-0.5388,249.7188
20:26:58:242,-1.6137,-0.1364,12.7654,70.5641,-0.0183,-0.7,-0.6848,249.7188
20:26:58:243,-2.7628,-0.7158,11.8866,70.3256,0.0452,-0.2559,-0.5345,252.1875
20:26:58:243,-2.6336,-0.6703,10.0576,70.1647,0.2346,0.2669,-0.1405,252.1875
20:26:58:259,-1.9606,-0.0263,9.1478,70.1054,0.4056,0.3366,0.1625,253.8281
20:26:58:276,-1.1348,0.6607,9.2172,70.2498,0.5217,0.0501,0.2266,253.8281
20:26:58:295,-0.2082,0.9793,9.7487,70.276,0.6041,-0.3103,0.091,254.6719
20:26:58:313,-0.0766,0.6918,9.7869,70.3257,0.6298,-0.408,-0.1888,254.75
20:26:58:336,-1.4557,0.0837,7.9699,70.4068,0.4673,0.0556,-0.3482,255.125
20:26:58:359,-1.6543,0.3329,6.9523,70.3889,0.3366,0.3042,-0.1429,255.1562
20:26:58:376,-1.4821,1.008,6.3347,70.3193,0.2126,0.4306,0.1014,255.4844
20:26:58:394,-1.142,1.829,6.2725,70.2692,0.1008,0.3946,0.2737,255.5156
20:26:58:413,-0.8668,2.5475,6.6509,70.1102,0.0098,0.2437,0.3128,256.0469
20:26:58:433,-0.9051,3.0523,7.2876,70.0837,-0.0513,0.0623,0.2407,256.0938
20:26:58:453,-0.9625,3.3446,7.7569,70.0929,-0.0684,-0.0238,0.1326,257.1094
20:26:58:475,-1.1157,3.3278,7.9603,69.867,-0.0629,-0.0342,0.0177,257.2031
20:26:58:495,-1.3884,3.1842,8.3722,69.7286,-0.0696,-0.0819,-0.0696,258.5625
20:26:58:513,-1.5754,3.0909,9.0353,69.6501,-0.0776,-0.1668,-0.0971,258.6406
20:26:58:533,-1.6065,3.0667,9.7941,69.3902,-0.0672,-0.2089,-0.0776,258.6406
20:26:58:557,-1.5323,3.0981,10.273,69.3214,-0.0324,-0.1466,-0.0446,258.4062
20:26:58:575,-1.0989,3.0404,10.3759,69.2481,-0.0018,-0.0293,-0.0257,258.4062
20:26:58:597,-0.4597,2.8274,10.625,68.7615,-0.0452,-0.0421,-0.0696,259.2188
20:26:58:613,-0.0455,2.5594,11.4963,68.2722,-0.157,-0.2285,-0.1692,259.2188
20:26:58:634,0.0024,2.2528,12.4421,67.9853,-0.2596,-0.3561,-0.2596,259.75
20:26:58:658,-0.2922,2.0231,12.7989,67.7007,-0.2908,-0.2877,-0.2822,259.75
20:26:58:676,-0.1771,2.0614,12.4277,67.3642,-0.2382,-0.0922,-0.1839,259.2656
20:26:58:695,1.008,1.9944,11.5636,67.2667,-0.1759,0.0599,-0.0654,259.2188
20:26:58:713,2.3797,1.6304,11.3958,67.033,-0.2034,-0.1063,-0.1326,258.5469
20:26:58:734,2.7724,0.8907,12.3631,66.7551,-0.3189,-0.5351,-0.4172,258.5469
20:26:58:756,2.2696,0.0144,12.9114,66.5727,-0.3922,-0.7312,-0.6964,258.375
20:26:58:776,1.5945,-0.7229,12.3799,66.5071,-0.3445,-0.4905,-0.7489,258.375
20:26:58:797,1.1803,-0.9888,11.0321,66.245,-0.2376,-0.0134,-0.5693,258.5781
20:26:58:813,1.331,-0.4549,9.562,66.0268,-0.1655,0.4215,-0.2779,258.5938
20:26:58:834,1.9582,0.4358,8.741,65.7347,-0.1271,0.5369,-0.0312,258.7656
20:26:58:858,2.2935,1.3382,8.6282,65.5766,-0.0941,0.3744,-0.0128,258.7812
20:26:58:877,1.7859,1.817,8.4799,65.3424,0.0104,0.1527,-0.1662,258.9062
20:26:58:894,0.7636,1.5371,7.8526,65.1863,0.2944,0.1912,-0.6909,258.9062
20:26:58:913,-0.3664,1.2233,6.9284,65.109,0.281,0.2932,-0.8289,259.4062
20:26:58:935,-1.0199,1.3789,6.5384,65.1044,0.1582,0.2578,-0.7953,259.4531
20:26:58:954,-0.996,1.9104,6.9595,64.8935,0.0067,0.0458,-0.6945,259.9531
20:26:58:976,-0.419,2.2863,7.9244,64.5956,-0.0709,-0.1771,-0.6334,260
20:26:58:995,-0.0742,2.3844,8.6354,64.2842,-0.0495,-0.2614,-0.6701,260.1875
20:26:59:014,-0.1196,2.2863,9.2291,63.8264,0.0104,-0.314,-0.7715,261.4688
20:26:59:034,-0.0981,1.9247,9.9643,63.3242,0.0641,-0.4288,-0.8411,261.4688
20:26:59:056,0.0718,1.7022,10.4958,62.6996,0.0825,-0.4526,-0.8253,263.0938
20:26:59:075,0.0479,1.6496,10.9795,62.1968,0.0843,-0.3732,-0.7538,263.0938
20:26:59:094,-0.3401,1.7668,11.2929,61.7389,0.0861,-0.2181,-0.6402,263.2812
20:26:59:113,-0.6535,1.9825,11.6904,61.4987,0.1228,-0.0892,-0.474,263.2812
20:26:59:134,-0.8234,2.3605,11.8531,61.0635,0.2126,0.0825,-0.27,263.3906
20:26:59:155,-0.5267,2.6767,11.4532,60.7699,0.3347,0.2828,-0.0672,263.3906
20:26:59:174,0.1842,2.9566,11.269,60.5568,0.4319,0.336,0.0513,264.4844
20:26:59:194,0.5004,3.2512,11.3001,60.0982,0.4783,0.336,0.0379,264.5938
20:26:59:214,0.1388,3.3422,10.6825,60.0195,0.4826,0.4642,-0.0379,266.3281
20:26:59:234,-0.6942,3.1484,9.6051,59.7181,0.4221,0.6145,-0.1332,266.3281
20:26:59:257,-1.829,2.9207,8.9228,59.168,0.2663,0.606,-0.2291,267.8125
20:26:59:276,-2.473,2.6743,9.1382,58.7724,0.0385,0.4001,-0.2645,267.8125
20:26:59:297,-1.9319,2.0949,9.7869,58.6629,-0.2181,0.0916,-0.2645,269.3281
20:26:59:313,-0.8596,1.0534,11.2762,58.2369,-0.4355,-0.3592,-0.336,269.4844
20:26:59:334,-1.1779,0.1986,13.1195,57.9023,-0.4942,-0.664,-0.4838,271.2812
20:26:59:358,-2.6599,-0.419,13.1004,57.8947,-0.3433,-0.3751,-0.4734,271.4531
20:26:59:378,-2.4682,-0.4406,8.8869,57.6227,0.1637,0.6481,0.4258,272.9531
20:26:59:396,-1.4964,0.4717,8.1159,57.4509,0.2614,0.5107,0.7287,273.1094
20:26:59:414,-0.134,1.5275,8.7553,57.3633,0.2651,0.0635,0.7599,273.8906
20:26:59:435,0.8788,2.0734,9.507,57.3712,0.2382,-0.2737,0.5357,273.9531
20:26:59:457,0.62,1.841,9.6338,57.0631,0.1771,-0.3464,0.1191,273.9531
20:26:59:473,-0.5913,1.2497,9.4807,57.1006,0.077,-0.248,-0.234,273.9531
20:26:59:494,-1.3334,0.8453,9.0592,57.0682,-0.0269,-0.0183,-0.3244,273.9219
20:26:59:514,-1.6998,0.6248,8.2956,56.8505,-0.1173,0.3011,-0.2327,274.1406
20:26:59:533,-1.8529,0.7971,7.6301,56.6723,-0.1802,0.5693,-0.0605,274.1406
20:26:59:555,-1.7644,1.3238,7.1512,56.5196,-0.2095,0.73,0.1283,274.6406
20:26:59:573,-1.6448,1.9729,6.8351,56.212,-0.237,0.7703,0.2645,274.6406
20:26:59:595,-1.5108,2.581,7.0074,55.975,-0.2639,0.6347,0.3152,275.6094
20:26:59:614,-1.5156,3.0739,7.654,55.9164,-0.2651,0.4062,0.2767,275.6094
20:26:59:634,-1.5323,3.2058,8.3985,55.6139,-0.2346,0.1784,0.1674,276.2031
20:26:59:657,-1.5347,2.9064,9.2507,55.0376,-0.1729,-0.011,0.0373,276.2031
20:26:59:675,-1.7381,2.4993,9.8806,54.6763,-0.1118,-0.0886,-0.0574,276.2031
20:26:59:695,-2.0207,2.0997,10.2299,54.2574,-0.0727,-0.0788,-0.0672,274.8125
20:26:59:714,-2.0877,1.8051,10.4145,54.0025,-0.0476,-0.0434,0.0049,273.4844
20:26:59:735,-1.9199,1.6519,10.5987,53.9199,-0.0275,-0.0244,0.1155,273.4844
20:26:59:755,-1.5108,1.6519,10.8452,53.4174,-0.0031,-0.0513,0.2333,273.7344
20:26:59:774,-0.9936,1.8529,10.946,53.2307,0.0226,-0.0709,0.3164,273.7344
20:26:59:796,-0.5459,2.1452,10.9795,52.9927,0.025,-0.0794,0.3335,274.2188
20:26:59:814,-0.2656,2.4682,11.0824,52.7628,-0.011,-0.0941,0.2938,274.2656
20:26:59:837,-0.0072,2.6384,11.0178,52.6167,-0.0684,-0.1051,0.2175,273.9688
20:26:59:857,0.309,2.5208,10.8739,52.2766,-0.1411,-0.1454,0.1124,273.9375
20:26:59:875,0.6416,2.0183,10.9122,51.768,-0.2407,-0.2572,-0.0373,273.0781
20:26:59:895,0.7134,0.2994,12.6553,51.3998,-0.4624,-0.73,-0.4551,273
20:26:59:914,-0.3664,-0.213,13.5218,51.2551,-0.4093,-0.7006,-0.573,272.3906
20:26:59:934,-0.7445,-0.498,12.1549,50.796,-0.1888,-0.1503,-0.3818,272.3438
20:26:59:959,-0.4645,-0.1292,10.2227,50.4567,0.0214,0.2889,-0.0476,272.3281
20:26:59:973,0.3592,0.8931,9.4998,50.3582,0.1344,0.2908,0.1906,272.3281
20:26:59:994,1.4725,1.5251,9.428,50.211,0.1778,0.0647,0.1466,272.3906
20:27:00:013,1.8505,1.5419,9.5859,50.2901,0.1826,-0.1802,-0.1875,272.0625
20:27:00:034,1.2066,1.1874,9.2554,50.3677,0.2132,-0.2236,-0.5724,272.0625
20:27:00:058,0.28,0.711,8.4799,50.3947,0.2596,-0.1155,-0.8191,271.3438
20:27:00:074,-0.4167,0.4789,7.5724,50.4106,0.2822,0.0165,-0.8589,271.3438
20:27:00:095,-0.8402,0.7588,6.8255,50.4442,0.2614,0.1161,-0.7342,270.7969
20:27:00:113,-0.862,1.3095,6.6963,50.4053,0.2401,0.0971,-0.5608,270.7969
20:27:00:134,-0.6655,1.8194,6.9452,50.3181,0.2388,0.0476,-0.463,270.7188
20:27:00:158,-0.6918,2.2289,6.8327,50.016,0.2046,0.0348,-0.4704,270.7188
20:27:00:174,-0.5794,2.6049,7.3546,50.0228,0.1277,-0.1393,-0.5284,270.7188
20:27:00:195,-0.3616,2.6049,8.0608,50.005,0.0428,-0.3573,-0.598,271.5469
20:27:00:214,-0.3927,2.4179,8.7793,49.9162,-0.0293,-0.5339,-0.6725,272.6406
20:27:00:234,-0.6535,2.138,9.6936,49.7756,-0.058,-0.7862,-0.7232,272.6406
20:27:00:259,-0.3114,1.9463,11.5229,49.6227,0.014,-1.1826,-0.7385,272.4375
20:27:00:317,0.2034,1.8266,13.3041,49.6037,0.2242,-1.38,-0.7434,272.4375
20:27:00:317,-0.51,1.9463,13.5673,49.7054,0.5162,-1.0323,-0.6866,272.5469
20:27:00:317,-1.4462,2.2672,12.1813,49.6327,0.7153,-0.3683,-0.4649,272.5469
20:27:00:335,-1.0487,2.6862,10.7183,49.4494,0.6945,0.0837,-0.1203,274.0156
20:27:00:358,0.0742,3.5097,10.5915,49.1545,0.496,0.2278,0.1466,274.1562
20:27:00:374,0.6799,4.252,10.9843,48.9966,0.2578,0.3445,0.1955,275.7969
20:27:00:396,0.3712,4.2114,10.7973,48.8952,-0.0819,0.5944,-0.1839,275.9688
20:27:00:414,-2.1236,2.9782,10.3687,48.6454,-0.1808,0.5626,-0.317,277.0312
20:27:00:434,-2.959,2.3605,10.4695,48.4322,-0.2529,0.4673,-0.2999,277.125
20:27:00:458,-2.3605,1.7309,10.515,48.176,-0.3219,0.2908,-0.149,278.1875
20:27:00:474,-1.1659,0.9314,11.3671,48.3946,-0.3659,-0.0556,-0.0403,278.2969
20:27:00:493,-1.6161,0.6129,12.7032,48.5698,-0.3066,-0.2718,-0.0544,279.6875
20:27:00:513,-2.7054,0.3257,12.0446,48.9103,-0.1045,-0.0055,0.0183,281.5469
20:27:00:533,-2.6575,0.2704,10.3591,49.0333,0.1289,0.3518,0.2804,281.5469
20:27:00:556,-2.0806,0.5913,9.0903,49.0387,0.2474,0.4288,0.5284,283.5469
20:27:00:573,-1.3525,1.0558,8.7362,49.4901,0.2205,0.2327,0.6151,283.5469
20:27:00:594,-0.4478,1.2712,9.2172,49.658,0.124,-0.0739,0.543,284.5312
20:27:00:613,-0.1484,1.1803,9.6506,50.1402,0.055,-0.2114,0.3592,284.5312
20:27:00:635,-0.6248,0.874,9.253,50.282,0.0519,-0.0684,0.1759,284.5469
20:27:00:656,-1.3214,0.6224,8.3076,50.4157,0.0715,0.2169,0.1124,284.1406
20:27:00:676,-1.8745,0.5483,7.0962,50.2918,0.0599,0.5082,0.201,284.1406
20:27:00:696,-2.083,0.9003,6.1959,50.3944,-0.0079,0.6634,0.3818,284.1094
20:27:00:714,-1.8051,1.5658,6.0117,50.7522,-0.1051,0.6328,0.5797,284.5625
20:27:00:734,-1.3813,2.3773,6.1816,50.6359,-0.1833,0.5369,0.7135,284.5625
20:27:00:758,-1.2712,3.1699,6.6772,50.7792,-0.2291,0.3964,0.6976,284.6562
20:27:00:776,-1.2999,3.6365,7.235,50.8108,-0.2511,0.2211,0.5485,284.6562
20:27:00:796,-1.2664,3.548,7.9771,50.6855,-0.2376,0.0128,0.3299,284.6875
20:27:00:814,-1.5443,2.9375,8.5947,50.8114,-0.2034,-0.1295,0.1026,284.6875
20:27:00:836,-2.1069,2.5089,9.0736,50.9744,-0.2022,-0.1894,-0.0012,283.8125
20:27:00:857,-2.2433,2.4179,9.8109,51.1722,-0.2291,-0.2327,0.0593,283.7344
20:27:00:875,-1.8482,2.4658,10.637,51.1999,-0.2443,-0.2376,0.1668,282.5938
20:27:00:894,-1.3262,2.3868,11.147,51.3574,-0.2327,-0.1955,0.2034,282.4688
20:27:00:914,-1.1276,2.1715,11.4532,51.8022,-0.2187,-0.182,0.1649,281.9844
20:27:00:935,-0.9003,1.9032,11.7455,51.743,-0.2077,-0.2413,0.1252,281.9375
20:27:00:958,-0.5148,1.5778,12.4971,52.0359,-0.149,-0.3445,0.0947,281.5156
20:27:00:974,-0.376,1.6687,12.1741,51.9536,-0.1283,-0.2462,0.1197,281.4844
20:27:00:994,0.352,1.6783,11.956,52.0803,-0.171,-0.2144,0.1784,280.3125
20:27:01:013,1.6304,1.6065,12.2746,52.082,-0.2669,-0.2914,0.179,278.5781
20:27:01:034,2.636,1.1779,12.8635,52.0443,-0.3683,-0.3867,0.0122,278.5781
20:27:01:058,1.9657,0.364,13.6032,52.0598,-0.4197,-0.4331,-0.3109,277.4531
20:27:01:076,0.8979,-0.5387,13.1291,51.8773,-0.3189,-0.2498,-0.5033,277.4531
20:27:01:094,0.5794,-0.8402,11.566,51.8636,-0.0715,0.1142,-0.3641,277.2344
20:27:01:113,0.8234,-0.5435,9.7439,51.8154,0.201,0.3946,-0.1167,277.2188
20:27:01:133,1.2281,0.0622,8.2956,51.9876,0.3995,0.4471,-0.0018,277.2188
20:27:01:157,1.276,0.7134,7.9795,51.9921,0.463,0.1869,-0.11,276.9844
20:27:01:175,1.142,1.0032,8.365,52.1396,0.4087,-0.1252,-0.3537,276.9844
20:27:01:196,0.5076,0.8716,8.0273,52.1558,0.2767,-0.1222,-0.5601,276.5938
20:27:01:214,-0.2704,0.821,7.3929,52.2538,0.1258,0.033,-0.6066,276.3906
20:27:01:236,-0.862,0.929,6.859,52.1628,0.0024,0.1814,-0.5485,276.3906
20:27:01:257,-1.2066,1.2784,6.5527,52.3162,-0.0892,0.2669,-0.4569,276.2031
20:27:01:275,-1.2185,1.7907,6.6365,52.4403,-0.1411,0.2535,-0.3402,276.2031
20:27:01:296,-0.8477,2.2624,7.1058,52.3672,-0.1326,0.1399,-0.2657,275.8438
20:27:01:313,-0.6559,2.5137,7.5532,52.1432,-0.1014,0.0415,-0.3018,275.8438
20:27:01:335,-0.7373,2.4658,7.7809,51.6014,-0.1045,-0.0189,-0.4062,276.1719
20:27:01:358,-0.8354,2.1691,8.152,51.5165,-0.1649,-0.0898,-0.4985,276.2031
20:27:01:376,-0.8306,1.8266,8.8104,51.4476,-0.2608,-0.2095,-0.5363,277.0469
20:27:01:395,-0.5913,1.5897,9.8399,51.4639,-0.3347,-0.3573,-0.5149,277.1406
20:27:01:414,-0.6655,1.4462,11.1087,51.3028,-0.3567,-0.4673,-0.4832,277.2188
20:27:01:442,-1.8553,1.8864,12.8659,51.0864,-0.1466,-0.2388,-0.2627,277.2188
20:27:01:456,-1.4749,2.4849,12.6817,50.9826,0.1112,0.0489,0.0031,277.75
20:27:01:476,-1.2329,2.5929,11.8986,51.2131,0.3268,0.2517,0.1338,277.8125
20:27:01:493,-1.0989,2.9542,12.0015,51.3446,0.4105,0.248,0.1692,279.0156
20:27:01:512,-0.7947,2.8896,11.5612,51.1199,0.4349,0.2749,0.1955,280.0781
20:27:01:534,-1.5395,2.6767,10.9771,50.9686,0.3977,0.3048,0.1124,280.0781
20:27:01:558,-2.7796,2.3509,10.704,50.9563,0.306,0.2663,-0.014,280.7031
20:27:01:574,-3.3159,1.762,10.4551,50.9229,0.2059,0.1826,-0.0226,280.7031
20:27:01:594,-2.6647,1.1779,10.5365,51.0216,0.0806,-0.0397,0.0647,281.4375
20:27:01:613,-1.3549,0.4478,11.6163,50.7761,-0.0489,-0.4649,0.1008,281.5156
20:27:01:635,-1.7572,0.0814,13.5601,50.6559,-0.0812,-0.7709,-0.0055,281.5156
20:27:01:657,-3.4211,-0.4789,13.541,50.7713,0.0867,-0.4532,-0.0226,282.625
20:27:01:676,-4.1345,-0.9864,11.1422,50.9826,0.3879,0.2382,0.3085,282.6406
20:27:01:695,-3.5647,-0.833,8.5253,50.9814,0.595,0.5968,0.7819,283.75
20:27:01:713,-2.5762,0.1149,7.8215,50.8614,0.6023,0.3879,1.1221,284.5625
20:27:01:734,-1.1372,1.2664,8.7218,50.8618,0.5204,-0.011,1.2516,284.5625
20:27:01:758,0.0024,1.9199,9.3897,50.8639,0.4612,-0.1875,1.1117,284.4219
20:27:01:775,0.0048,1.8003,8.9492,51.0785,0.419,-0.0629,0.7709,284.4219
20:27:01:795,-0.8234,1.3573,7.8335,50.8822,0.3488,0.1985,0.485,284.0625
20:27:01:814,-1.4151,0.984,6.8997,51.0337,0.2327,0.4135,0.4184,284.0625
20:27:01:836,-1.5395,0.8234,5.9495,51.0399,0.0867,0.5864,0.5101,283.9531
20:27:01:858,-1.7429,1.2544,5.6309,51.1472,-0.088,0.6225,0.6457,283.9531
20:27:01:875,-1.6232,1.8601,5.8992,51.0782,-0.2602,0.54,0.7727,283.9219
20:27:01:895,-1.2066,2.2481,6.3562,51.1156,-0.3812,0.4374,0.8198,283.9219
20:27:01:913,-1.0822,2.5881,6.9523,50.9803,-0.4355,0.2999,0.7263,283.9688
20:27:01:937,-1.5227,2.4514,8.2932,50.9385,-0.3891,-0.0128,0.3971,283.9688
20:27:01:959,-1.6184,2.3055,8.8893,51.0048,-0.3573,-0.0953,0.3335,283.7656
20:27:01:976,-1.6113,2.3916,9.9452,50.6868,-0.3573,-0.2236,0.3195,281.8438
20:27:01:994,-1.3071,2.4634,11.403,50.6477,-0.3341,-0.3598,0.3109,281.8438
20:27:02:014,-0.5387,2.3079,12.1262,50.4349,-0.2156,-0.369,0.2999,279.4062
20:27:02:035,-0.0144,2.1667,12.4517,50.3796,-0.0617,-0.3335,0.2401,279.4062
20:27:02:057,0.1412,2.0734,12.4421,50.4526,0.0495,-0.2914,0.1356,277.9688
20:27:02:073,0.3473,2.0375,12.3296,50.3954,0.0819,-0.2242,0.0507,277.9688
20:27:02:095,0.4454,2.1045,12.2219,50.2094,0.0452,-0.1368,0.0067,277.8438
20:27:02:113,0.9529,2.1404,11.8029,50.1883,-0.022,-0.0568,0.0055,276.7656
20:27:02:134,1.7883,1.9753,11.5636,50.1572,-0.1356,-0.1435,-0.0678,276.6562
20:27:02:156,2.4084,1.4581,12.3488,50.0627,-0.3445,-0.4997,-0.3396,274.8438
20:27:02:176,2.3773,0.7038,14.5298,50.1183,-0.6267,-0.8961,-0.7055,274.8281
20:27:02:196,2.0016,-0.0455,16.3804,50.1087,-0.7581,-0.8466,-0.8821,272.9062
20:27:02:213,1.3765,-0.6727,15.88,49.8504,-0.6053,-0.2333,-0.7898,271.75
20:27:02:235,0.9577,-0.8596,13.3567,49.901,-0.2938,0.5327,-0.5107,271.75
20:27:02:258,1.2329,-0.6176,10.6083,49.8782,-0.0079,0.9578,-0.1741,271
20:27:02:276,1.9199,0.1149,9.1765,49.6381,0.1729,0.8851,0.0507,271
20:27:02:296,2.3916,0.874,8.863,49.4737,0.2963,0.5437,0.0513,270.3906
20:27:02:313,2.2959,1.3693,8.9061,49.4136,0.4245,0.2303,-0.1264,270.3906
20:27:02:383,1.6902,1.3645,8.4081,49.2691,0.5693,0.1069,-0.3598,270.0938
20:27:02:384,0.9075,1.3095,7.4001,49.1146,0.6982,0.1277,-0.5119,270.0938
20:27:02:384,0.3281,1.4462,6.3826,49.0709,0.7587,0.1729,-0.5418,270.0938
20:27:02:393,-0.0072,1.9247,5.7242,48.7502,0.7281,0.1509,-0.5015,270.0938
20:27:02:413,0.1196,2.4156,5.7984,48.6983,0.6121,0.0214,-0.4783,270.1719
20:27:02:436,0.146,2.7508,6.481,48.6097,0.281,-0.1875,-0.6347,270.1875
20:27:02:457,-0.0646,2.8848,7.6636,48.333,0.1417,-0.1686,-0.711,271.3438
20:27:02:476,0.134,2.8705,8.1377,48.0874,0.0287,-0.1723,-0.7532,273.2031
20:27:02:494,0.0263,2.8035,8.9013,47.9561,-0.0745,-0.2144,-0.8027,273.2031
20:27:02:513,-0.2776,2.5857,9.9093,47.7942,-0.1387,-0.2712,-0.832,273.8594
20:27:02:534,-0.6511,2.5379,10.7279,47.4842,-0.1124,-0.2211,-0.7849,273.8594
20:27:02:557,-1.1563,2.8226,11.013,47.4916,-0.0128,-0.025,-0.6585,273.9219
20:27:02:574,-1.2808,3.2967,10.7877,47.2784,0.0904,0.1912,-0.4838,273.6719
20:27:02:594,-0.766,3.5408,10.5987,47.2143,0.1423,0.2755,-0.3476,273.6562
20:27:02:614,-0.3281,3.6703,11.1685,47.2878,0.1539,0.2004,-0.3531,274.1719
20:27:02:633,-0.5674,3.4618,11.7383,46.9493,0.1955,0.1735,-0.4765,274.2344
20:27:02:657,-1.6448,2.904,11.5971,46.8071,0.2785,0.2871,-0.5956,275.4844
20:27:02:676,-3.0308,2.4586,10.9361,46.7839,0.347,0.4258,-0.595,275.5
20:27:02:697,-3.8617,2.327,10.3137,46.8688,0.3445,0.4765,-0.4465,276.7031
20:27:02:714,-3.5216,2.1811,9.7558,46.7349,0.2584,0.419,-0.2572,278.125
20:27:02:736,-2.4993,1.6735,10.4575,46.621,0.1118,0.171,-0.171,278.125
20:27:02:756,-2.3007,1.0247,11.6713,46.3352,0.0489,0.0079,-0.1991,279.8125
20:27:02:775,-2.9662,0.6176,11.1805,46.1999,0.1594,0.1967,-0.1814,279.8125
20:27:02:796,-3.3517,0.4741,9.6721,46.151,0.3109,0.4386,-0.0397,281.6719
20:27:02:815,-3.2465,0.687,8.2621,46.0229,0.3415,0.5137,0.1332,281.6719
20:27:02:834,-2.7102,1.0128,7.2948,45.8009,0.1814,0.4838,0.2419,283.2969
20:27:02:853,-2.0495,1.3382,7.18,45.6693,-0.1472,0.3775,0.259,283.2969
20:27:02:875,-1.3358,1.4509,8.1927,45.4252,-0.4917,0.1979,0.204,284.0938
20:27:02:896,-1.008,1.506,9.3275,45.5035,-0.6298,0.0617,0.0892,284.1719
20:27:02:913,-1.2353,1.5036,9.3514,45.6164,-0.5125,0.0666,-0.0421,284.9844
20:27:02:934,-1.6615,1.4509,8.6426,45.7836,-0.2981,0.1264,-0.1246,285.0625
20:27:02:957,-1.7548,1.4366,8.001,45.7084,-0.1179,0.1423,-0.1173,286.2188
20:27:02:976,-1.9056,1.7668,7.5389,45.8062,-0.0226,0.0556,-0.0043,286.3281
20:27:02:994,-1.9872,2.3821,7.6732,45.7001,-0.088,0.0134,0.0122,286.9844
20:27:03:013,-2.0207,2.4371,7.6995,45.4445,-0.1271,-0.0018,0.0067,287.0469
20:27:03:034,-1.9606,2.5834,7.8048,45.4563,-0.1319,-0.0275,0,287.4219
20:27:03:059,-1.7883,2.7532,8.123,45.3872,-0.1387,-0.0788,-0.0122,287.4531
20:27:03:074,-1.6519,2.7173,8.7506,45.3123,-0.1393,-0.1252,-0.055,287.6406
20:27:03:094,-1.8625,2.6623,9.44,45.0313,-0.0867,-0.1454,-0.1148,287.6562
20:27:03:113,-1.7453,2.648,9.3132,44.9569,0.044,-0.1631,-0.1423,287.2031
20:27:03:135,-1.4964,2.4969,9.253,44.5973,0.1222,-0.2816,-0.1784,287.1562
20:27:03:157,-1.1109,2.3366,10.0385,44.5578,0.0806,-0.4783,-0.226,286.4219
20:27:03:175,-0.3185,2.3174,10.8763,44.5017,-0.0147,-0.5626,-0.273,286.4219
20:27:03:195,-0.1196,2.2289,11.7287,44.491,-0.1552,-0.5058,-0.369,286.1406
20:27:03:213,-0.5937,1.9705,12.629,44.3222,-0.2553,-0.3964,-0.4502,286.2656
20:27:03:234,-0.9721,1.8099,12.5115,44.1347,-0.215,-0.2755,-0.4258,286.2656
20:27:03:256,-0.3688,1.8984,11.9417,44.0574,-0.1203,-0.2572,-0.2999,286.3125
20:27:03:275,0.7588,2.0973,11.7168,44.0326,-0.0983,-0.3409,-0.2144,286.3125
20:27:03:294,1.8003,1.817,11.9752,44.2986,-0.1716,-0.405,-0.3018,286.25
20:27:03:314,1.4127,1.0941,12.5593,44.1617,-0.281,-0.361,-0.532,286.25
20:27:03:334,0.5698,0.4238,12.332,44.0382,-0.3134,-0.1686,-0.6793,286.2188
20:27:03:356,0.4262,0.0215,11.5086,43.9126,-0.2431,-0.0171,-0.6554,286.2188
20:27:03:375,0.6009,0.0957,10.625,44.0204,-0.1271,-0.0189,-0.5748,286.4062
20:27:03:394,1.1468,0.2608,9.8614,44.0956,-0.0354,-0.1161,-0.5259,286.4062
20:27:03:414,1.3095,0.376,9.6745,43.7495,-0.0318,-0.2156,-0.5632,286.8281
20:27:03:433,1.1468,0.4765,9.6984,43.7086,-0.0928,-0.1833,-0.6365,286.8594
20:27:03:456,0.7899,0.6368,8.9922,43.325,-0.1289,-0.0232,-0.6884,287.5312
20:27:03:477,-0.1268,0.8907,7.7809,43.3994,-0.0501,0.0232,-0.7556,287.5938
20:27:03:494,-0.4095,1.2473,7.3953,43.4117,0.0495,-0.0965,-0.7538,288.4844
20:27:03:513,-0.4525,1.5299,7.3714,43.1043,0.1466,-0.2547,-0.7416,288.5625
20:27:03:533,-0.4358,1.8266,7.3953,42.7853,0.2242,-0.3457,-0.7287,289.3125
20:27:03:557,-0.4382,2.1117,7.3403,42.3222,0.2193,-0.3439,-0.7269,289.3906
20:27:03:573,-0.5578,2.1906,7.5269,42.2034,0.0916,-0.3128,-0.7342,289.9688
20:27:03:594,-0.6799,2.0183,8.2454,41.9334,-0.0971,-0.3066,-0.7318,290.0312
20:27:03:613,-0.7373,1.8793,9.3275,41.7362,-0.2401,-0.2889,-0.6829,291.2188
20:27:03:634,-0.3903,2.0064,10.1845,41.3269,-0.2553,-0.2443,-0.587,291.3438
20:27:03:656,-0.4406,2.0877,10.637,41.2652,-0.1637,-0.2193,-0.5253,292.6406
20:27:03:675,-0.9051,2.1571,11.5636,41.3152,-0.0507,-0.2737,-0.4826,292.6562
20:27:03:696,-1.142,2.2624,12.2459,40.9238,0.1014,-0.2315,-0.3879,293.875
20:27:03:713,-1.4677,2.6169,11.6521,40.9916,0.2584,0.0269,-0.2541,295.3281
20:27:03:735,-1.1898,2.8442,11.2379,41.0911,0.336,0.2175,-0.11,295.3281
20:27:03:755,-0.821,3.1029,11.4628,40.8842,0.4117,0.2052,-0.0525,296.9219
20:27:03:775,-0.553,3.0909,11.2499,40.959,0.5137,0.1576,-0.1075,296.9219
20:27:03:795,-1.0295,2.6719,11.0321,40.8808,0.5485,0.0983,-0.2376,298.6406
20:27:03:813,-2.0734,2.1308,11.3599,40.4402,0.5278,0.0153,-0.3219,298.6406
20:27:03:834,-2.959,1.707,10.9986,39.8506,0.5064,0.0202,-0.2718,300.3906
20:27:03:856,-3.0236,1.3143,10.5102,39.8331,0.3751,-0.0244,-0.1283,300.3906
20:27:03:875,-1.8769,0.6248,11.4197,39.6533,0.1258,-0.2651,0.0202,302.0781
20:27:03:896,-1.5036,0.2656,13.7037,39.4525,-0.036,-0.4985,0.1209,302.0781
20:27:03:914,-2.0279,0.6176,13.7109,39.175,0.091,-0.2486,0.2523,303.3281
20:27:03:934,-1.8745,0.7325,11.2451,38.8813,0.4148,0.223,0.4227,303.4531
20:27:03:953,-1.5849,0.874,8.1015,38.8554,0.6652,0.4331,0.5247,304.4688
20:27:03:976,-0.5937,1.8434,7.6301,38.9955,0.5858,0.2572,0.543,304.5781
20:27:03:996,-0.711,1.6711,9.198,39.2407,0.2376,-0.0128,0.4667,305.2812
20:27:04:014,-0.687,0.9577,9.4687,39.3,-0.1429,0.1075,0.1405,305.3594
20:27:04:034,-0.687,0.7708,8.4296,39.1766,-0.0538,0.3292,0.0977,305.5938
20:27:04:057,-0.929,0.9434,7.4049,38.9091,0.0012,0.3494,0.0983,305.6094
20:27:04:073,-1.4028,1.252,7.424,38.7759,-0.0079,0.1307,0.0996,306.0781
20:27:04:094,-1.3573,1.6208,7.879,38.7439,-0.0177,-0.0837,0.1222,306.125
20:27:04:113,-1.2855,1.8147,7.9005,38.4944,-0.0452,-0.0977,0.1167,306.8594
20:27:04:135,-1.8386,1.8673,8.0824,38.0728,-0.124,-0.0214,0.0849,306.9219
20:27:04:156,-2.1523,2.0088,8.5158,37.9732,-0.1637,0.0202,0.1191,307.1406
20:27:04:174,-1.9801,2.2313,8.5325,37.6446,-0.1191,0.011,0.2016,307.1562
20:27:04:194,-1.6328,2.3509,8.7553,37.3484,-0.0629,-0.0941,0.2706,306.8594
20:27:04:213,-1.4366,2.3892,9.6553,37.323,-0.033,-0.2126,0.3042,305.8906
20:27:04:235,-1.6089,2.5475,10.2491,37.2751,0,-0.1808,0.328,305.8906
20:27:04:256,-1.6041,2.7772,10.2108,37.1183,0.0709,-0.08,0.3659,304.8594
20:27:04:276,-1.0534,2.8442,9.9763,37.1428,0.1552,-0.0623,0.4044,304.8594
20:27:04:295,-0.3784,3.0909,10.0959,37.1914,0.1894,-0.1155,0.4123,304.3438
20:27:04:313,-0.067,3.2345,10.3232,36.9188,0.1637,-0.1649,0.3384,304.3438
20:27:04:334,0.1029,2.9806,10.7375,36.8469,0.1161,-0.2242,0.2077,304.0312
20:27:04:356,0.0359,2.5714,10.9962,36.8144,0.0715,-0.2694,0.0837,304.0312
20:27:04:375,-0.1699,2.2959,11.3647,36.6434,0.0318,-0.3189,0.0177,303.7656
20:27:04:449,-0.0096,2.1906,11.4221,36.7053,-0.0031,-0.3183,0.0257,303.7656
20:27:04:449,0.4023,2.2289,11.4509,36.5537,-0.08,-0.3036,0.0501,303.5469
20:27:04:449,1.0941,2.0327,11.7861,36.2676,-0.2089,-0.2694,0.0367,303.5312
20:27:04:453,1.3597,1.4318,13.0358,36.055,-0.3183,-0.2449,-0.0489,303.1719
20:27:04:478,0.7253,0.7301,13.9433,35.9507,-0.2578,-0.1222,-0.1307,303.1406
20:27:04:498,0.0048,0.8282,9.9595,35.5833,0.2975,0.3097,-0.014,302.5938
20:27:04:515,0.2225,0.9147,8.1903,35.516,0.383,0.1906,0.0067,302.5312
20:27:04:535,0.28,0.9458,7.9747,35.4998,0.2437,-0.0299,-0.0269,301.8906
20:27:04:556,0.3808,1.0319,9.2195,35.4849,-0.025,-0.1161,-0.058,301.8281
20:27:04:576,0.3927,1.0869,9.7678,35.3219,-0.2181,0.0733,-0.0788,301.0625
20:27:04:593,0.376,1.197,9.2964,35.0368,-0.2779,0.3305,-0.0867,301
20:27:04:613,0.3736,1.4916,8.6234,34.6906,-0.2584,0.4502,-0.0971,300.5312
20:27:04:634,-0.0837,1.6256,8.0632,34.5354,-0.204,0.43,-0.1503,300.4844
20:27:04:656,-0.7373,1.6519,7.7474,34.74,-0.1387,0.3219,-0.1906,300.4844
20:27:04:673,-1.0965,1.6974,7.7378,34.5779,-0.0794,0.1936,-0.1637,300.4688
20:27:04:694,-1.3286,1.8027,8.0728,34.3722,-0.0654,0.171,-0.0672,300.4844
20:27:04:714,-1.1515,2.2241,8.1855,34.0955,-0.099,0.3183,0.0843,300.5156
20:27:04:740,-0.8979,2.5499,8.0106,33.8968,-0.1594,0.5204,0.204,300.5156
20:27:04:756,-0.8931,2.5208,8.2813,33.927,-0.2376,0.6225,0.2706,300.7344
20:27:04:776,-0.862,2.624,8.4775,34.0359,-0.2993,0.6903,0.3299,300.7344
20:27:04:795,-0.3832,3.0452,8.7266,33.9779,-0.3409,0.7074,0.3433,300.7344
20:27:04:812,-0.0191,3.0021,9.1238,33.8032,-0.3555,0.6121,0.2468,300.7344
20:27:04:833,-0.5363,2.6575,9.5836,33.7878,-0.2688,0.2895,0.1185,300.8906
20:27:04:853,-0.6655,2.837,10.9409,33.7475,-0.0739,-0.182,0.0941,300.8906
20:27:04:874,-0.6272,3.4499,11.3886,33.6356,0.1625,-0.3439,0.1087,300.9531
20:27:04:894,-1.0128,3.6221,11.0321,33.6637,0.3427,-0.3085,0.0806,300.9531
20:27:04:913,-1.3454,3.5791,10.9508,33.5051,0.4398,-0.3604,0.0812,301.0156
20:27:04:943,-1.1898,3.7684,11.2116,33.1719,0.5968,-0.6683,0.1045,301.0312
20:27:04:958,-0.5889,3.7612,11.8292,33.0783,0.7611,-0.9554,0.0617,301.2812
20:27:04:980,-1.2401,3.2465,11.8508,32.8925,0.8882,-0.9609,-0.0635,301.3125
20:27:04:994,-2.7485,2.7987,10.9962,32.5725,0.8924,-0.6988,-0.0965,301.2188
20:27:05:014,-3.8593,2.4873,9.6888,32.3276,0.3842,-0.0324,0.3347,301.2031
20:27:05:035,-2.8178,2.4012,9.9978,32.1896,0.055,0.0476,0.5944,300.5312
20:27:05:056,-1.4342,1.7381,11.0871,31.9532,-0.1179,-0.1484,0.697,300.4688
20:27:05:073,-1.2832,1.209,11.8699,31.8061,-0.0421,-0.3457,0.6646,299.5156
20:27:05:094,-1.7309,1.075,11.2187,31.911,0.1643,-0.2608,0.6628,299.4219
20:27:05:113,-2.1141,0.874,9.5764,31.6249,0.2792,-0.0098,0.7342,298.8594
20:27:05:133,-1.8051,0.9338,8.6569,31.245,0.2126,0.0617,0.8424,298.7969
20:27:05:158,-1.0032,1.1085,8.3818,30.9687,0.0892,-0.0367,0.9163,298.6719
20:27:05:175,-0.3449,1.118,8.2669,30.801,-0.0666,-0.1057,0.8888,298.6562
20:27:05:194,-0.2994,0.9362,8.6115,30.5335,-0.2865,-0.0617,0.7843,298.6875
20:27:05:213,-0.51,0.8091,9.0999,30.3618,-0.4667,0.1167,0.7055,298.9531
20:27:05:234,-0.5865,0.8186,8.645,30.2596,-0.5033,0.4093,0.7031,298.9531
20:27:05:258,-0.5674,0.6894,7.7234,29.9844,-0.4478,0.5565,0.7452,299.6406
20:27:05:275,-0.3162,0.778,7.0026,29.7104,-0.2895,0.3592,0.8185,299.6406
20:27:05:294,-0.6248,1.398,6.5886,29.683,-0.1203,-0.0177,0.9114,299.4219
20:27:05:314,-0.5195,2.406,7.1465,29.589,-0.0458,-0.3286,0.9835,299.4219
20:27:05:334,-0.079,2.7317,7.2637,29.5635,-0.0495,-0.3549,0.9761,298.0312
20:27:05:358,-0.3162,2.9231,7.9125,29.3981,-0.1625,-0.2621,0.8643,298.0312
20:27:05:376,-0.0239,2.7963,8.7386,29.2013,-0.2975,-0.135,0.7984,296.6875
20:27:05:394,0.0359,2.7724,9.4376,29.0905,-0.3781,0.0098,0.7239,296.6875
20:27:05:414,-0.0144,2.8466,10.1151,28.7515,-0.4068,0.1258,0.6664,295
20:27:05:434,-0.2369,2.9303,10.7686,28.7014,-0.3158,0.0965,0.6249,295
20:27:05:456,-0.3209,2.8681,11.3025,28.3497,-0.1252,-0.0104,0.5944,293.2188
20:27:05:476,0.3497,2.7867,11.1183,28.2381,0.0623,-0.0751,0.598,293.0469
20:27:05:494,0.9793,2.8777,11.214,28.0202,0.1179,-0.1222,0.5461,291.4844
20:27:05:514,1.2449,2.1667,12.7917,27.7088,-0.2144,-0.1643,0.2211,291.3281
20:27:05:540,0.9099,1.8003,13.6534,27.4494,-0.3121,-0.1258,0.1405,289.625
20:27:05:559,1.3119,1.6974,13.328,26.9498,-0.2297,-0.0202,0.2132,289.4531
20:27:05:577,2.2457,1.9128,12.5402,26.9154,-0.1093,0.0855,0.314,287.625
20:27:05:593,3.2225,2.1595,11.712,26.5313,-0.0476,0.1429,0.2847,287.4531
20:27:05:613,3.1077,1.9175,11.6498,26.3367,-0.0922,0.1625,0.0507,285.5938
20:27:05:634,2.2816,1.5706,11.8986,26.2447,-0.099,0.2382,-0.2431,285.4062
20:27:05:657,1.1133,0.9434,10.0983,25.9406,0.1845,0.3476,-0.4288,283.7812
20:27:05:673,0.5411,0.4932,8.1975,25.6569,0.4911,0.1625,-0.3647,283.625
20:27:05:694,0.3544,0.8115,7.2398,25.7061,0.5278,-0.16,-0.1949,282.1562
20:27:05:713,1.0104,1.3573,7.7091,25.5373,0.3421,-0.4771,-0.0342,280.625
20:27:05:741,1.5179,1.4725,8.8463,25.2202,0.1228,-0.6585,-0.0489,280.625
20:27:05:755,1.4749,1.276,9.5716,25.121,-0.0831,-0.5223,-0.2175,279.4062
20:27:05:775,0.8453,0.9864,9.5405,25.0902,-0.2663,-0.1423,-0.3225,279.4062
20:27:05:795,-0.4669,0.1388,9.2725,24.8003,-0.3769,0.2266,-0.2718,278.75
20:27:05:813,-1.4844,-0.2632,8.5205,24.7402,-0.4313,0.5546,0.0171,278.75
20:27:05:836,-0.7828,0.996,8.176,25.0412,-0.4966,0.7385,0.5266,278.375
20:27:05:856,0.2752,2.0782,7.8574,24.8337,-0.4728,0.7562,0.8674,278.375
20:27:05:875,0.8258,2.8753,7.3427,24.687,-0.358,0.7031,0.8326,277.6719
20:27:05:897,0.8453,3.2154,7.3475,24.6316,-0.2382,0.5003,0.5559,277.6719
20:27:05:914,0.5865,3.1244,7.4791,24.6022,-0.1576,0.2095,0.2566,277.7969
20:27:05:936,0.431,2.758,8.135,24.5349,-0.0831,-0.1466,0.0458,277.7969
20:27:05:956,0.5195,2.6336,9.1478,24.6335,0.0018,-0.4203,-0.0794,278.5312
20:27:05:976,0.5483,2.6121,10.1055,24.4269,0.0916,-0.4875,-0.1619,278.6094
20:27:05:995,0.28,2.461,10.5532,24.1134,0.1716,-0.4007,-0.2248,278.9844
20:27:06:013,-0.4645,1.884,11.2068,23.8932,0.2266,-0.2767,-0.237,279.0156
20:27:06:041,-1.2927,1.7572,10.5485,23.9693,0.1826,0.0312,-0.0727,279.4844
20:27:06:055,-0.5554,2.8322,10.8978,23.6606,-0.0269,0.3879,0.6634,279.5312
20:27:06:074,0.012,3.3613,11.4126,23.6874,-0.1209,0.4978,0.8106,280.0938
20:27:06:094,0.4238,3.5815,12.0111,23.4104,-0.146,0.5143,0.7929,280.1562
20:27:06:113,0.1962,3.3039,12.387,23.005,-0.0586,0.4478,0.6463,279.375
20:27:06:139,-1.0845,2.7891,12.1573,22.946,0.1026,0.3952,0.4875,279.2969
20:27:06:155,-2.217,2.4921,11.4963,22.9911,0.2407,0.3525,0.4887,277.3438
20:27:06:173,-2.1212,2.3844,10.6777,22.6324,0.2785,0.2712,0.6273,277.1406
20:27:06:194,-1.0032,1.8577,10.9627,22.462,0.1845,0.0055,0.6872,276.1875
20:27:06:214,-0.9553,0.8067,12.4445,22.5138,0.0794,-0.3158,0.554,276.2031
20:27:06:240,-2.1858,0.2177,13.194,22.4484,0.1423,-0.3018,0.4789,276.2031
20:27:06:254,-2.6838,-0.1627,11.3121,22.2634,0.3751,0.0739,0.7006,276.7812
20:27:06:275,-2.2146,0.0215,8.9874,22.1957,0.5333,0.3317,1.0281,276.7812
20:27:06:295,-1.2808,0.7732,8.1473,21.9919,0.4838,0.2566,1.251,277.2031
20:27:06:314,-0.0526,1.6448,8.3052,21.4707,0.3286,0.0696,1.3231,277.2031
20:27:06:340,0.6392,2.0327,8.6689,21.665,0.1894,-0.0544,1.1881,276.0312
20:27:06:354,0.6344,1.8864,8.5373,21.5003,0.1472,-0.066,0.937,276.0312
20:27:06:375,0.4956,1.4629,7.7426,21.4504,0.179,0.033,0.7141,274.0938
20:27:06:395,0.1196,0.9482,6.4137,21.1582,0.1112,0.1784,0.5522,274.0938
20:27:06:415,-0.419,0.8043,6.3443,21.3559,-0.1888,0.2352,0.4917,272.7031
20:27:06:438,-0.2608,0.9793,7.8861,21.3514,-0.4899,0.193,0.5467,272.7031
20:27:06:456,-0.0024,1.1874,8.7936,21.3666,-0.5192,0.1613,0.6157,271.5156
20:27:06:513,-0.1986,1.4462,8.5636,21.4507,-0.394,0.2223,0.6347,271.3906
20:27:06:514,-0.4956,1.8745,8.4512,21.1455,-0.2743,0.2199,0.6444,270.2031
20:27:06:514,-0.6368,2.0136,8.5899,20.8507,-0.1894,0.157,0.6273,270.0938
20:27:06:535,-0.577,1.8362,9.0066,20.8953,-0.1423,0.0935,0.5992,268.9688
20:27:06:555,-0.4454,1.6304,9.1789,20.8655,-0.157,0.1203,0.6011,268.8594
20:27:06:575,-0.1795,1.9872,10.8452,20.4304,-0.1729,0.099,0.6481,266.5469
20:27:06:593,-0.3401,1.695,11.482,20.1816,0.0403,0.0745,0.6322,266.3125
20:27:06:613,-0.2704,1.3478,11.8675,20.1277,0.1381,0.0874,0.6506,263.8125
20:27:06:638,0.0383,1.4079,11.9848,20.0056,0.1399,0.0544,0.6536,263.5625
20:27:06:655,0.8234,1.8625,12.4588,20.1107,0.0867,-0.1234,0.5821,261.9219
20:27:06:674,1.3908,2.0925,13.2395,20.2683,0.0635,-0.306,0.3922,261.7656
20:27:06:693,1.561,1.7668,12.6191,19.9355,0.0018,-0.1765,0.1619,260.625
20:27:06:713,1.8912,0.9482,12.2004,19.8214,-0.1631,-0.0495,-0.0012,259.125
20:27:06:736,2.1691,0.3592,13.2658,20.0615,-0.4154,-0.0513,-0.0904,259.125
20:27:06:754,1.5993,0.2082,14.6184,20.2721,-0.5296,0.0379,-0.1405,257.6094
20:27:06:776,1.1587,0.1101,13.7276,20.0946,-0.2773,0.3085,-0.0892,257.6094
20:27:06:794,1.3813,-0.0598,11.3121,20.0009,0.1784,0.449,0.0446,256.1875
20:27:06:813,1.6472,0.1077,9.2677,19.7327,0.5479,0.2523,0.1802,256.1875
20:27:06:840,2.1547,0.7971,8.4631,19.7053,0.719,-0.1472,0.2889,254.7656
20:27:06:854,2.6647,1.4964,8.5421,19.7031,0.7342,-0.4948,0.2669,254.7656
20:27:06:874,2.7245,1.6831,8.377,19.942,0.6426,-0.5272,0.0843,253.3281
20:27:06:894,1.8697,1.2784,7.7498,19.8379,0.3525,-0.1484,-0.1478,253.3281
20:27:06:914,0.8979,1.1922,7.3164,19.5817,-0.0318,0.3274,-0.2621,251.8594
20:27:06:939,0.3879,1.4581,7.0771,19.7622,-0.2773,0.5858,-0.2541,251.8594
20:27:06:961,0.2154,1.8147,7.436,19.8096,-0.3079,0.5058,-0.2193,250.875
20:27:06:978,0.1723,2.016,7.6086,20.0986,-0.1435,0.2749,-0.1906,250.875
20:27:06:995,0.3401,2.3318,7.5078,20.1582,0.0397,0.0965,-0.1631,250.75
20:27:07:014,0.6416,2.5307,7.4025,20.3214,0.0947,0.0403,-0.1466,250.7344
20:27:07:036,0.7899,2.7556,7.4121,20.3451,-0.0061,0.0916,-0.1839,250.9531
20:27:07:055,0.4478,2.9614,7.8407,20.5263,-0.212,0.1649,-0.2676,250.9688
20:27:07:077,0.067,2.8083,9.1334,20.6474,-0.3873,0.1307,-0.3378,250.8906
20:27:07:094,-0.134,2.0471,10.7638,20.6262,-0.1613,-0.0623,-0.2407,250.8906
20:27:07:113,-0.4549,2.3103,10.6777,20.8325,-0.0128,-0.0104,-0.088,250.4219
20:27:07:138,-0.7469,2.8825,10.9002,20.9085,0.0605,0.0647,0.0959,250.375
20:27:07:154,-0.632,3.3924,10.7303,20.8369,0.1631,0.1173,0.2755,250.2344
20:27:07:173,-0.3138,3.615,10.0002,20.8762,0.2663,0.1307,0.3977,250.2188
20:27:07:193,0.309,3.8521,10.3711,20.638,0.2761,0.036,0.4606,250.5938
20:27:07:214,1.0941,4.1728,11.1661,20.7181,0.3085,-0.102,0.4392,250.875
20:27:07:237,1.0415,3.8904,11.1135,20.6604,0.3714,-0.1264,0.2456,250.875
20:27:07:253,-0.0694,3.3254,11.0321,20.7015,0.3121,-0.0324,0.0012,251.2188
20:27:07:274,-1.3717,2.8202,10.9531,20.8232,0.1448,0.171,-0.0953,251.2188
20:27:07:302,-2.1236,2.6049,10.6705,20.7905,-0.0153,0.3561,-0.0293,251.5469
20:27:07:313,-1.896,2.3127,10.8069,21.0522,-0.1374,0.3506,0.1002,251.5469
20:27:07:335,-0.9625,1.0391,11.9417,21.1177,-0.1949,0.1155,0.1692,252.1406
20:27:07:354,-1.2592,0.2584,13.2562,21.4289,-0.1362,-0.0043,0.1784,252.1406
20:27:07:375,-2.2289,0.3209,12.2387,21.3218,0.0611,0.2963,0.3005,252.75
20:27:07:394,-2.4514,0.7588,9.7941,21.5199,0.2785,0.6432,0.54,252.75
20:27:07:413,-1.9657,1.1587,7.6995,21.709,0.325,0.6829,0.7361,252.7344
20:27:07:437,-1.5467,1.6208,7.2996,21.6285,0.1741,0.4184,0.8069,252.7344
20:27:07:454,-0.8596,1.963,8.31,22.0035,-0.0312,0.0922,0.777,251.9844
20:27:07:476,-0.3257,1.7501,9.2363,22.0588,-0.1564,-0.0464,0.6365,251.9844
20:27:07:495,-0.5267,1.319,9.4208,22.1125,-0.2278,0.0904,0.4496,251.1094
20:27:07:514,-0.9721,1.0175,8.93,21.9369,-0.2792,0.3916,0.3586,251.0156
20:27:07:539,-1.3549,0.8501,7.9436,22.0313,-0.2822,0.6469,0.3861,250.8125
20:27:07:556,-1.5873,0.9721,7.0364,22.1821,-0.2627,0.7263,0.496,250.7969
20:27:07:579,-1.5395,1.4486,6.3921,22.2235,-0.2584,0.6261,0.6451,250.8281
20:27:07:594,-0.3879,2.6025,7.022,22.4916,-0.0855,-0.0134,0.7739,250.8281
20:27:07:613,-0.1627,2.77,7.1034,22.6481,-0.0605,-0.1338,0.6426,250.4531
20:27:07:641,-0.1196,2.5666,7.8,22.9228,-0.1949,-0.1423,0.474,250.4219
20:27:07:654,-0.5602,2.3605,8.8056,23.1704,-0.3323,-0.0886,0.3225,249.875
20:27:07:673,-0.8764,2.1858,9.4352,23.6406,-0.3341,-0.1032,0.2602,249.8281
20:27:07:694,-0.9984,1.9992,9.7917,24.0159,-0.1967,-0.2358,0.273,248.3281
20:27:07:713,-0.9745,2.1763,10.005,24.2379,-0.077,-0.3158,0.3128,246.4844
20:27:07:738,-0.7253,2.5499,10.1246,24.6338,-0.1045,-0.2462,0.3158,246.4844
20:27:07:754,-0.1507,2.6647,10.7255,24.8985,-0.1997,-0.226,0.2468,245.0938
20:27:07:775,-0.055,2.2552,11.348,24.9985,-0.2437,-0.3268,0.088,245.0938
20:27:07:794,-0.2321,1.2903,11.8675,25.2914,-0.2242,-0.5388,-0.0519,244.0156
20:27:07:813,-0.309,0.6248,12.9018,25.8622,-0.2376,-0.7318,-0.0605,244.0156
20:27:07:840,-0.146,0.498,13.6391,26.3054,-0.3146,-0.6554,0.0696,242.4375
20:27:07:853,0.565,0.5865,13.8069,26.6985,-0.3476,-0.482,0.2364,242.4375
20:27:07:874,1.6424,0.5554,13.9265,27.2033,-0.3842,-0.328,0.317,240.8125
20:27:07:894,2.2744,0.268,14.5801,27.6351,-0.416,-0.2095,0.2584,240.6562
20:27:07:913,1.7453,-0.1555,14.5561,27.9323,-0.3347,0.0171,0.1552,239.4688
20:27:07:938,1.3358,-0.3951,12.7056,28.2194,-0.0336,0.2517,0.1723,239.4688
20:27:07:953,1.5251,-0.285,11.0441,28.5917,0.3085,0.1979,0.2749,238.8281
20:27:07:975,2.4514,0.1962,9.883,28.7424,0.5791,-0.0654,0.3506,238.8281
20:27:07:994,3.2895,0.6272,9.076,29.1201,0.6951,-0.3176,0.2639,238.3281
20:27:08:014,3.4116,0.8859,8.8487,29.5514,0.598,-0.4306,0.014,238.2656
20:27:08:037,2.6647,0.6583,8.7147,29.7238,0.3983,-0.3317,-0.2877,237.7812
20:27:08:055,1.4222,0.2536,8.2717,29.8666,0.2181,-0.1057,-0.5021,237.7344
20:27:08:078,0.4932,0.1196,7.6421,30.1794,0.1179,0.0867,-0.5186,237.8438
20:27:08:094,0.1125,0.4262,7.1034,30.5648,0.0837,0.1674,-0.3897,237.8438
20:27:08:114,0.8402,1.6161,6.682,30.7796,0.088,0.1429,-0.2211,238.0625
20:27:08:139,1.0295,2.2624,6.5456,30.9838,0.0806,0.1118,-0.1179,238.0938
20:27:08:154,1.0343,2.5905,6.792,31.1534,-0.0647,0.0641,-0.2034,237.6719
20:27:08:173,0.8883,2.581,7.314,31.2664,-0.1283,-0.0635,-0.3085,237.6406
20:27:08:194,0.7875,2.4491,8.0417,31.5929,-0.1588,-0.1967,-0.3744,237.25
20:27:08:213,0.996,2.4371,8.93,31.9939,-0.1686,-0.2614,-0.3836,236.7031
20:27:08:237,1.331,2.4634,9.7295,32.2859,-0.1515,-0.2297,-0.3909,236.7031
20:27:08:255,1.2377,2.4586,10.0098,32.6945,-0.1222,-0.1155,-0.4282,236.0312
20:27:08:274,0.9218,2.4371,10.4623,33.2133,-0.1069,-0.0257,-0.4532,236.0312
20:27:08:294,0.4454,2.4897,10.8117,33.8162,-0.0415,0.0183,-0.43,236.4531
20:27:08:313,-0.0837,2.5738,10.8452,34.1437,0.088,0.0336,-0.3427,236.4531
20:27:08:338,-0.1651,2.7078,10.6179,34.4754,0.2291,0.0165,-0.1839,237.5781
20:27:08:354,0.2608,3.0332,10.7183,34.8823,0.3189,-0.0159,-0.0061,237.5781
20:27:08:377,0.6272,3.3565,10.4719,35.0951,0.3445,0.0342,0.0825,237.5781
20:27:08:394,0.6009,3.8234,10.3161,35.3937,0.2633,0.1326,0.058,238.1875
20:27:08:413,0.1531,3.7875,11.2044,35.694,0.1509,0.1191,-0.0342,238.4062
20:27:08:438,-0.9314,2.8418,12.0111,35.9751,0.1252,0.1295,-0.1258,238.4062
20:27:08:454,-1.4988,2.5738,11.8962,36.0333,0.157,0.2474,-0.0159,238.9688
20:27:08:474,-1.4509,2.9877,11.47,36.4443,0.2022,0.3121,0.1784,238.9688
20:27:08:496,-0.8258,2.9183,11.2068,36.6575,0.2181,0.2541,0.2407,239.8906
20:27:08:513,-0.2827,1.992,11.7933,37.0537,0.1729,0.1313,0.1619,239.8906
20:27:08:576,-0.7301,1.1827,12.0832,37.5434,0.1588,0.1197,0.0764,240.7812
20:27:08:577,-1.3502,0.8764,10.9938,37.9261,0.2346,0.2651,0.113,240.8594
20:27:08:577,-1.4844,0.8115,9.4328,38.2455,0.2938,0.3354,0.2211,241.75
20:27:08:596,-0.5554,1.1515,8.7027,38.7072,0.0012,0.0983,0.3659,241.8438
20:27:08:613,-0.4741,1.4294,9.6841,39.2783,-0.2395,0.0055,0.3262,242.3594
20:27:08:634,-0.2154,1.319,10.8547,39.6233,-0.3097,-0.0867,0.2504,242.4219
20:27:08:654,0.268,1.0534,11.0704,40.2164,-0.1252,-0.1222,0.1912,242.3438
20:27:08:674,0.201,0.9482,9.8542,40.5387,0.1008,0.0147,0.1234,242.3438
20:27:08:693,-0.3425,0.9529,8.2286,41.0224,0.1338,0.2327,0.0757,242.2656
20:27:08:713,-0.8378,1.0869,7.9603,41.3638,-0.0134,0.317,0.0916,242.3281
20:27:08:735,-0.8668,1.4988,8.3818,41.5184,-0.1283,0.3372,0.1949,242.3281
20:27:08:753,-0.5291,1.9128,8.0824,41.6254,-0.1081,0.4001,0.3005,241.7656
20:27:08:773,-0.3257,2.2887,7.721,42.0007,-0.0568,0.419,0.3225,241.7656
20:27:08:793,-0.7445,2.2887,7.5823,42.0809,-0.1185,0.4581,0.2553,241.4531
20:27:08:813,-1.142,2.0782,7.9795,42.295,-0.1888,0.4172,0.2346,241.4531
20:27:08:835,-1.2736,2.0375,8.6521,42.5976,-0.1405,0.2584,0.3091,240.9531
20:27:08:853,-1.0845,1.9606,9.1573,42.8187,-0.0849,0.2156,0.4056,240.9531
20:27:08:874,-1.0271,2.2457,9.0353,43.3108,-0.0214,0.2761,0.493,240.9531
20:27:08:893,-1.0319,2.5137,9.21,43.8871,0.036,0.2816,0.5339,240.1406
20:27:08:913,-0.7804,2.3486,9.009,44.3981,0.0996,0.2431,0.5479,239.5156
20:27:08:935,-0.3688,2.4419,9.198,44.4716,0.0965,0.1411,0.5351,239.5156
20:27:08:953,0.146,2.2839,9.7534,44.9382,-0.0214,0.0635,0.463,239.1875
20:27:08:975,0.7253,2.2337,10.6274,45.3894,-0.1704,-0.0086,0.3323,239.1875
20:27:08:993,0.9266,2.0375,11.6904,45.6139,-0.2651,-0.1002,0.1381,238.875
20:27:09:013,0.3664,1.6687,12.1023,45.7927,-0.2993,-0.0983,-0.0788,238.875
20:27:09:035,0.0048,1.5227,12.2746,46.1335,-0.2755,-0.0812,-0.157,238.2344
20:27:09:053,-0.1962,1.1898,11.6282,46.3618,-0.273,0.0171,-0.1399,238.1562
20:27:09:074,0.1316,1.1228,11.9178,46.4339,-0.3897,0.0586,-0.0788,237.4062
20:27:09:094,0.9482,0.9051,12.8348,46.7753,-0.4722,-0.0098,-0.0202,237.3281
20:27:09:114,1.3478,0.5818,13.7782,47.1402,0.0244,-0.1045,0.0067,236.6406
20:27:09:135,1.4366,0.7205,10.9651,47.2781,0.4545,-0.0739,0.0177,236.5625
20:27:09:153,1.5538,0.9314,9.0712,47.5995,0.6713,-0.2498,-0.0379,235.5625
20:27:09:173,1.7046,0.7564,8.554,47.9289,0.6469,-0.573,-0.1393,235.4688
20:27:09:193,1.9319,0.4741,9.3945,47.8906,0.4801,-0.7471,-0.2315,234.2812
20:27:09:213,1.9199,0.6655,9.871,48.0373,0.1796,-0.3964,-0.2987,233.125
20:27:09:236,1.5706,0.7158,8.5181,48.3157,0.1826,-0.1258,-0.3799,233.125
20:27:09:253,1.1228,0.8402,7.491,48.5504,0.0855,0.0635,-0.43,232.5625
20:27:09:273,0.565,1.0415,7.2135,48.6792,-0.1142,0.2309,-0.4563,232.5625
20:27:09:293,0.4956,1.4988,7.0436,48.7367,-0.1277,0.1521,-0.4288,232.7812
20:27:09:313,0.5506,1.8984,6.7968,48.8303,-0.0794,-0.0073,-0.4349,232.7812
20:27:09:336,0.5004,2.1787,6.6891,48.7068,-0.0996,-0.1246,-0.4759,232.7812
20:27:09:354,0.8139,2.5834,7.2135,48.7998,-0.2358,-0.1533,-0.5284,232.9844
20:27:09:374,1.1061,2.8322,8.2334,48.9363,-0.3683,-0.1497,-0.6359,232.9844
20:27:09:393,0.8234,2.6695,8.8511,48.8543,-0.4319,-0.0733,-0.7874,233.0156
20:27:09:413,0.1675,2.2552,9.2435,48.9995,-0.4368,-0.0177,-0.8949,233.0469
20:27:09:434,-0.2512,1.6328,9.6577,48.996,-0.3848,-0.0611,-0.8931,233.0469
20:27:09:453,-0.6081,1.3071,10.1749,49.0395,-0.3134,-0.1155,-0.7813,233.4375
20:27:09:474,-0.7732,1.5179,10.8715,48.8765,-0.2614,-0.0825,-0.5785,233.4375
20:27:09:495,-0.8548,1.9896,11.3815,48.9504,-0.1771,0.0568,-0.3586,234.2812
20:27:09:513,-0.9386,2.3821,10.7997,48.9746,0.0024,0.2407,-0.1655,234.2812
20:27:09:534,-0.9864,2.7867,9.6601,49.0018,0.1466,0.3885,0.0043,235.1094
20:27:09:554,-0.7301,3.1723,9.1478,49.1383,0.1435,0.4264,0.1533,235.1875
20:27:09:573,-0.3688,3.2632,9.4184,48.8851,0.0757,0.3354,0.2333,236
20:27:09:594,0.0024,3.3111,10.4767,48.8106,0.0568,0.1277,0.2291,236.0781
20:27:09:615,-0.1077,3.1723,11.1972,48.8216,0.1393,-0.0421,0.146,237.0156
20:27:09:635,-1.7022,2.7772,10.6729,49.2298,0.2077,-0.0617,0.0403,237.1094
20:27:09:653,-2.0806,2.8418,10.4623,49.2861,0.0281,-0.0128,0.0647,238.3125
20:27:09:673,-2.0064,2.1739,10.6298,49.4733,-0.1735,-0.0983,0.0739,238.4375
20:27:09:693,-1.7213,0.565,11.8819,49.5769,-0.4337,-0.2895,0.088,240.1094
20:27:09:713,-2.272,-0.8234,15.0422,49.7786,-0.6389,-0.4502,0.1765,241.9688
20:27:09:735,-2.7461,-0.7732,17.0291,49.9501,-0.4392,-0.2254,0.4917,241.9688
20:27:09:753,-2.3964,-0.2584,14.0557,49.9128,0.27,0.3195,0.9132,243.0625
20:27:09:773,-1.5993,0.5076,9.1071,49.9096,0.8821,0.6896,1.2076,243.0625
20:27:09:793,-0.5794,1.2879,5.959,49.6942,0.9212,0.6261,1.3072,243.1562
20:27:09:813,0.3138,1.9968,5.3533,49.7222,0.5461,0.2633,1.2076,243.2344
20:27:09:834,1.0152,2.3916,6.524,49.7339,0.1008,-0.1881,0.926,243.2344
20:27:09:853,1.3789,2.0231,8.1736,49.6797,-0.2272,-0.4691,0.5198,242.6719
20:27:09:874,0.9075,1.2305,9.1669,49.5356,-0.4209,-0.4471,0.0959,242.6719
20:27:09:894,-0.2441,0.3544,9.21,49.6457,-0.5137,-0.1973,-0.2052,242.25
20:27:09:913,-1.4414,-0.3449,8.9587,49.817,-0.5412,0.0617,-0.2798,242.2031
20:27:09:934,-2.0303,-0.6775,8.7649,50.179,-0.5149,0.2077,-0.1234,242.2031
20:27:09:953,-1.8386,-0.3879,8.5086,50.3444,-0.4197,0.2486,0.1765,242.0781
20:27:09:974,-1.0582,0.486,8.2932,50.5671,-0.3201,0.248,0.4606,242.0781
20:27:09:993,-0.3425,1.5084,8.1015,50.6236,-0.2847,0.2798,0.5931,241.875
20:27:10:013,-0.1244,1.9968,8.0321,50.533,-0.2975,0.303,0.5443,241.875
20:27:10:034,-0.5435,1.8529,8.1832,50.4406,-0.3274,0.2669,0.4209,240.4531
20:27:10:054,-0.862,1.6615,8.8798,50.2259,-0.347,0.171,0.3775,240.3125
20:27:10:075,-0.8883,1.7381,9.4902,50.192,-0.2914,0.0678,0.4105,237.6406
20:27:10:093,-0.778,1.8721,9.8423,49.9098,-0.1808,-0.0086,0.4429,237.375
20:27:10:113,-0.364,2.0877,10.0576,49.7754,-0.0837,-0.0531,0.4343,235.2344
20:27:10:137,-0.1412,2.2289,10.5245,49.621,-0.0996,-0.0922,0.2022,235.0312
20:27:10:155,-0.1149,1.2401,12.1956,49.6003,-0.0757,-0.248,0.0904,234.5469
20:27:10:175,0.9529,0.8019,13.7686,49.5758,-0.0446,-0.4612,0.0128,234.9844
20:27:10:193,1.5395,1.2784,15.0924,49.5744,-0.0825,-0.3744,-0.0928,234.9844
20:27:10:213,1.2473,1.5491,14.8962,49.7147,-0.1185,0.0275,-0.2382,234.875
20:27:10:237,1.197,1.2162,13.9241,49.7313,-0.1283,0.3787,-0.3384,234.875
20:27:10:254,1.4246,1.0487,13.3926,49.7521,-0.1552,0.5119,-0.3861,233.7188
20:27:10:274,1.2999,0.8043,13.0693,49.6192,-0.1338,0.4856,-0.4697,233.7188
20:27:10:294,0.5937,0.1771,12.8061,49.627,0.0067,0.3121,-0.5852,232.5312
20:27:10:313,-0.1795,-0.4908,12.5689,49.5323,0.2602,0.066,-0.6157,232.4219
20:27:10:335,-0.6966,-0.9769,11.6665,49.5164,0.5766,-0.0922,-0.5058,232.4062
20:27:10:353,-0.8186,-1.1133,10.06,49.74,0.8301,-0.1124,-0.295,231.4844
20:27:10:374,-0.5435,-0.9673,8.4607,49.5431,0.9059,-0.099,-0.0434,231.4688
20:27:10:394,0,-0.4167,7.745,49.3306,0.8106,-0.1405,0.1778,230.5156
20:27:10:413,0.6081,0.2776,7.6253,49.4625,0.6615,-0.179,0.2999,229.9375
20:27:10:436,1.0917,0.8234,7.3786,49.4447,0.5437,-0.1429,0.3024,229.9375
20:27:10:454,1.2281,1.1396,6.7418,49.4162,0.4398,-0.0446,0.2095,229.9375
20:27:10:475,1.1444,1.4174,6.0452,49.3824,0.2957,0.0379,0.0757,229.9375
20:27:10:494,0.9075,1.6663,6.1241,49.4419,0.11,0.0012,-0.0739,230.3438
20:27:10:514,0.6176,1.6807,7.1154,49.1484,-0.0293,-0.1161,-0.2181,230.3438
20:27:10:537,0.2489,1.5586,7.4719,49.2955,-0.0544,-0.1393,-0.3158,231
20:27:10:553,0.0431,1.7572,7.2709,49.3702,-0.0525,-0.0709,-0.3421,231
20:27:10:576,0.2728,2.0518,6.926,49.2706,-0.1087,-0,-0.3329,231.9375
20:27:10:649,0.4741,2.3055,6.993,49.4829,-0.2413,0.0324,-0.361,232.0312
20:27:10:650,0.1842,2.4275,7.8431,49.4071,-0.4062,0.0116,-0.4251,233.1719
20:27:10:650,-0.5578,2.1715,9.1167,49.181,-0.3128,-0.3005,-0.3909,233.2969
20:27:10:655,-0.4693,1.4222,10.3089,49.2891,-0.1344,-0.3714,-0.2291,233.7344
20:27:10:676,-0.4119,1.6687,10.6609,49.2908,-0.0764,-0.2425,-0.0226,233.7812
20:27:10:693,-0.4334,2.2122,10.8069,49.3187,-0.0721,0.0299,0.1778,233.4219
20:27:10:713,-0.2728,2.8777,10.4958,49.268,-0.0195,0.2608,0.3396,232.9375
20:27:10:739,-0.0909,3.1196,10.2108,49.3083,0.0476,0.3121,0.4203,232.9375
20:27:10:754,0.0407,3.0476,11.1637,49.2183,0.0861,0.1765,0.4343,232.8906
20:27:10:774,0.51,2.9471,11.9919,49.2402,0.2028,0.011,0.4209,232.8906
20:27:10:794,0.5004,2.7987,11.7191,49.4697,0.3482,-0.0232,0.3329,232.8906
20:27:10:814,-0.1723,2.6934,11.3192,49.4091,0.3769,0.0086,0.2187,233.4688
20:27:10:836,-0.8524,2.7867,10.8212,49.4619,0.3207,0.0617,0.1674,233.5312
20:27:10:855,-1.276,2.9016,10.1677,49.2971,0.1985,0.1069,0.1613,234.2812
20:27:10:876,-0.6033,2.7317,9.9571,49.4343,-0.0476,0.0751,0.1686,234.2812
20:27:10:895,0.3257,1.6352,11.7622,49.338,-0.3598,-0.1796,0.0941,235.1094
20:27:10:913,-0.419,0.9793,14.7571,49.4124,-0.4734,-0.3757,-0.0324,236.1094
20:27:10:937,-1.7142,0.4765,14.6207,49.541,-0.1246,-0.1271,-0.0079,236.1094
20:27:10:955,-2.272,0.2417,10.8404,49.6889,0.4233,0.2468,0.2077,236.5
20:27:10:976,-1.8505,0.5554,8.1254,49.7987,0.6414,0.273,0.4887,236.5
20:27:10:995,-0.3784,1.3621,7.9005,49.9163,0.5247,0.0214,0.7122,235.875
20:27:11:013,0.9888,2.1787,8.5134,50.2906,0.3952,-0.2621,0.7214,235.875
20:27:11:036,1.7094,2.3366,8.554,50.4055,0.3427,-0.4337,0.4875,234.8594
20:27:11:053,1.5227,1.5706,8.0943,50.6476,0.2443,-0.4306,0.1271,234.8594
20:27:11:076,0.5674,0.5363,7.6205,50.58,0.0067,-0.2676,-0.1668,234.1094
20:27:11:095,-0.5746,-0.2512,8.0776,50.7494,-0.3128,-0.1185,-0.27,234.0469
20:27:11:113,-1.1659,-0.5363,9.373,50.8292,-0.5229,-0.0654,-0.1723,233.6562
20:27:11:136,-1.3071,-0.2608,9.7511,50.9165,-0.2621,0.1552,0.2498,233.625
20:27:11:155,-1.1228,0.3664,8.4751,51.049,-0.1252,0.2028,0.3659,233.2656
20:27:11:177,-0.9194,0.8931,7.0316,50.9837,-0.1539,0.1894,0.4044,233.2344
20:27:11:193,-0.8668,1.4222,6.2055,51.0193,-0.2737,0.146,0.4203,233.2344
20:27:11:213,-0.5889,1.6543,6.6844,51.0971,-0.4007,0.0788,0.4557,233.0312
20:27:11:237,-0.1555,1.9463,7.515,51.44,-0.5058,-0.0006,0.4936,233.0312
20:27:11:254,0.3592,2.2863,8.6856,51.4892,-0.5913,-0.0354,0.5039,233.0156
20:27:11:275,0.7421,2.5451,9.6793,51.6415,-0.5968,-0.0397,0.452,231.7812
20:27:11:294,0.9027,2.5857,10.0337,51.6452,-0.496,-0.0983,0.3384,231.6562
20:27:11:313,0.8979,2.2576,10.3232,51.6284,-0.4197,-0.2236,0.2095,230.5938
20:27:11:336,1.2736,1.5299,11.6809,51.7633,-0.4484,-0.3952,0.1167,230.5
20:27:11:355,1.7644,0.9745,13.6846,51.9792,-0.5039,-0.4991,0.0556,230.6875
20:27:11:375,1.8529,0.687,15.0302,51.9855,-0.5021,-0.4044,-0.0031,230.6875
20:27:11:395,1.561,0.4813,15.1762,51.8184,-0.4386,-0.1826,-0.0483,231.2031
20:27:11:413,1.6017,0.2082,14.5585,51.8953,-0.3647,-0.0177,-0.0458,230.8438
20:27:11:436,1.9801,0.0239,14.5226,51.9741,-0.3396,-0.0312,-0.0287,230.8438
20:27:11:453,2.5738,-0.1316,15.0709,52.2442,-0.3018,-0.146,-0.047,229.9219
20:27:11:476,2.3581,-0.5435,16.0119,52.5441,-0.1545,-0.2327,-0.1423,229.9219
20:27:11:495,1.1898,-0.9242,15.0326,52.5508,0.1814,0.0006,-0.1826,228.9062
20:27:11:513,0.8115,-0.8764,11.1661,52.626,0.6072,0.4319,-0.033,228.9062
20:27:11:536,1.1276,-0.5722,7.9436,52.8382,0.788,0.5058,0.1509,227.8125
20:27:11:554,1.8649,0.0048,7.0843,53.0622,0.6725,0.1845,0.2456,227.8125
20:27:11:575,2.5232,0.632,7.7904,53.0508,0.485,-0.2358,0.1985,227.0469
20:27:11:596,2.6097,0.8716,8.7099,53.1028,0.3885,-0.4881,0.014,226.9688
20:27:11:613,2.2672,0.6296,8.6904,53.0737,0.3977,-0.5009,-0.2022,226.7344
20:27:11:636,2.0495,0.5794,8.0106,53.0669,0.4148,-0.3683,-0.35,226.7188
20:27:11:654,1.8194,0.7971,7.1991,53.3905,0.3451,-0.1588,-0.4502,226.8125
20:27:11:679,1.0558,1.1946,6.2175,53.3882,0.0709,0.124,-0.667,226.9531
20:27:11:694,0.8453,1.2449,6.2294,53.4534,-0.0635,0.1222,-0.7617,226.9531
20:27:11:714,0.8354,1.3167,6.7513,53.6894,-0.1912,0.058,-0.8259,226.9688
20:27:11:737,0.8139,1.5299,7.7402,54.0421,-0.306,0.0049,-0.8564,227.0781
20:27:11:754,0.6033,1.628,8.9994,54.227,-0.3409,-0.0611,-0.843,227.0938
20:27:11:773,0.9218,1.4916,9.8085,54.3342,-0.223,-0.1619,-0.7593,227.4375
20:27:11:794,1.4318,1.4749,9.8157,54.3485,-0.0397,-0.2352,-0.6628,227.4844
20:27:11:814,1.7596,1.7692,9.6458,54.3334,0.0415,-0.2248,-0.6078,227.2031
20:27:11:834,1.4246,2.0303,10.0193,54.3078,-0.036,-0.102,-0.6212,227.1875
20:27:11:854,0.833,2.0877,10.6968,54.3684,-0.1326,0.0928,-0.6414,226.6875
20:27:11:874,0.1651,1.9825,10.9531,54.4572,-0.1106,0.2914,-0.6041,226.6875
20:27:11:896,-0.5411,2.0471,10.3929,54.4649,-0.0275,0.4746,-0.4801,227.0312
20:27:11:913,-0.778,2.2911,9.9404,54.2073,-0.0195,0.5656,-0.2804,227.9844
20:27:11:935,-0.7732,2.4395,10.436,54.3648,-0.0666,0.4746,-0.0831,227.9844
20:27:11:954,-0.5076,2.581,11.1374,54.5285,-0.0336,0.2718,0.0898,229.2969
20:27:11:975,0.268,2.6862,11.2546,54.6224,0.1112,0.047,0.204,229.2969
20:27:11:994,0.5506,2.9279,11.1183,54.7595,0.2175,-0.0941,0.1888,231.0156
20:27:12:013,0.134,2.8107,10.8452,55.0559,0.2101,-0.0922,0.0874,231.0156
20:27:12:036,-0.8402,2.3557,10.759,55.0399,0.1387,-0.0177,0.0024,232.9062
20:27:12:054,-1.4581,2.1021,10.1773,54.9729,0.0916,0.077,0.0513,232.9062
20:27:12:075,-1.2544,1.7548,10.1749,55.3285,0.0672,-0.0177,0.1833,234.5469
20:27:12:095,-0.6105,1.1133,11.2977,55.4922,0.1185,-0.3237,0.2902,234.5469
20:27:12:118,-0.553,0.8835,11.8843,55.444,0.2669,-0.4942,0.3671,235.8438
20:27:12:134,-0.6081,1.0726,10.8093,55.5812,0.4423,-0.4526,0.4441,235.9688
20:27:12:154,-0.5219,1.063,9.8973,55.8405,0.4893,-0.4673,0.4691,237.1562
20:27:12:176,-0.352,0.7923,11.2881,55.7682,0.1753,-0.4087,0.4484,237.2656
20:27:12:196,-0.2728,0.6607,11.3551,55.9171,0.1387,-0.2248,0.441,237.8594
20:27:12:219,-0.0694,0.3449,10.7327,56.1499,0.1692,-0.0208,0.4197,237.9219
20:27:12:235,0.2082,0.2827,9.8758,56.1705,0.1429,0.2162,0.4032,237.8125
20:27:12:253,0.3592,0.4645,9.5022,56.1743,0.0061,0.5058,0.3726,237.7969
20:27:12:274,0.1866,0.5554,9.0114,56.4838,-0.1222,0.8179,0.3219,237.4219
20:27:12:293,-0.2225,0.6416,8.4966,56.5633,-0.149,1.0146,0.2865,237.375
20:27:12:315,-0.201,0.6464,7.4384,56.5248,-0.0415,1.0134,0.3079,237.3125
20:27:12:335,0.0933,0.4047,6.0882,56.5933,0.0782,0.7575,0.328,237.2969
20:27:12:353,0.2201,0.687,6.6197,56.409,-0.0214,0.3781,0.3335,237.0625
20:27:12:373,0.7397,1.4916,8.3052,56.4925,-0.2187,0.1784,0.3396,237.0469
20:27:12:394,0.8477,1.6424,9.1358,56.5844,-0.2541,0.1692,0.2358,236.4688
20:27:12:419,0.4382,1.1563,9.428,56.6328,-0.1894,0.1942,0.1063,235.6562
20:27:12:436,0.1795,0.862,9.2988,56.6431,-0.0941,0.1869,0.102,235.6562
20:27:12:453,0.2536,1.2257,8.633,56.6157,-0.014,0.1613,0.1906,234.8438
20:27:12:475,0.5363,1.7333,8.2597,56.6402,-0.0305,0.0782,0.2553,234.8438
20:27:12:495,0.9099,2.0351,8.7003,56.6313,-0.1289,-0.0654,0.2443,233.9375
20:27:12:513,0.9912,2.0638,9.4089,56.8574,-0.2217,-0.2132,0.1716,233.9375
20:27:12:535,0.8234,1.8266,9.8949,57.0388,-0.2895,-0.2889,0.0928,232.9219
20:27:12:554,0.7205,1.5586,9.7391,57.1565,-0.3543,-0.284,0.0568,232.9219
20:27:12:576,0.9577,1.5132,9.5213,57.1059,-0.4624,-0.3146,0.0434,231.875
20:27:12:596,1.5945,1.398,9.9165,57.0677,-0.656,-0.4197,-0.0098,231.875
20:27:12:613,2.1141,0.984,10.9843,57.2919,-0.9175,-0.584,-0.1564,230.9062
20:27:12:635,2.4179,0.2946,13.2132,57.4273,-1.1588,-0.8369,-0.3659,230.8125
20:27:12:654,2.2265,-0.6392,16.4043,57.6332,-1.2107,-1.047,-0.5681,230.0312
20:27:12:718,1.0989,-1.4533,17.7547,57.5811,-0.8998,-0.8289,-0.6469,229.9531
20:27:12:718,-0.189,-1.5754,11.6521,57.3853,0.2523,0.3189,-0.0397,229.5469
20:27:12:719,0.7899,-0.5459,9.1167,57.2742,0.5388,0.3995,0.361,229.5
20:27:12:736,1.9367,0.6057,8.2047,57.3957,0.6243,0.1747,0.5351,229.1406
20:27:12:753,3.0404,1.3884,7.8574,57.566,0.6609,-0.1527,0.4557,229.1094
20:27:12:773,3.5264,1.6208,7.2876,57.4953,0.6554,-0.4215,0.157,228.5938
20:27:12:794,3.2967,1.2712,6.9428,57.6188,0.5149,-0.5675,-0.2333,228.5469
20:27:12:818,2.4395,0.6918,7.2948,57.6105,0.2474,-0.5693,-0.5669,228.3594
20:27:12:834,1.4462,0.3568,7.7019,57.7384,-0.0043,-0.4258,-0.7422,228.3438
20:27:12:854,0.7828,0.1412,7.9268,57.8713,-0.1497,-0.2492,-0.766,228.3438
20:27:12:873,0.6655,0.1651,7.8598,57.9778,-0.2095,-0.0812,-0.6799,228.3438
20:27:12:894,1.0941,0.5794,7.4695,58.0506,-0.2413,0.0647,-0.5632,228.6875
20:27:12:918,1.5491,1.0774,7.1919,58.1175,-0.3219,0.1576,-0.5192,230.0312
20:27:12:935,1.7883,1.2808,7.4312,58.0863,-0.4722,0.1949,-0.5675,230.0312
20:27:12:953,1.7022,1.1922,8.6282,58.1199,-0.6102,0.1387,-0.6524,231.4219
20:27:12:974,1.4246,0.9529,9.8686,58.0423,-0.6157,0.0525,-0.6976,231.4219
20:27:12:994,1.063,0.766,10.491,57.9833,-0.4942,0.0098,-0.6628,230.9688
20:27:13:013,1.1061,0.6655,10.8165,57.8683,-0.3439,-0.0049,-0.5461,230.9688
20:27:13:038,1.2377,0.8258,11.1613,57.8699,-0.2382,0.0269,-0.3952,229.8438
20:27:13:054,1.209,1.1683,11.257,57.9372,-0.1808,0.1497,-0.2511,229.8438
20:27:13:074,0.9673,1.6424,11.3145,58.0332,-0.1405,0.2969,-0.1155,230.0312
20:27:13:094,1.0415,2.0614,11.3049,58.0834,-0.0629,0.3787,0.0165,230.0312
20:27:13:112,1.3214,2.2911,11.4891,58.071,0.0373,0.3567,0.0953,231.4688
20:27:13:136,1.5538,2.473,11.8771,57.915,0.1368,0.2657,0.1038,231.625
20:27:13:154,1.6256,2.4012,12.0927,58.0959,0.2449,0.1393,0.0531,233.125
20:27:13:175,1.5873,2.0686,12.6096,58.0122,0.3427,-0.0452,-0.0305,233.2812
20:27:13:196,0.7062,1.4677,11.7407,57.9414,0.3781,0.0483,-0.1179,234.3594
20:27:13:220,0.4717,1.3454,11.458,57.7693,0.2291,0.1326,-0.102,234.4531
20:27:13:235,0.4238,0.8668,12.1597,57.4415,0.0757,0.0452,-0.1106,235.6719
20:27:13:253,0.2465,0.0526,13.5745,57.4673,0.036,-0.0751,-0.1148,235.7969
20:27:13:274,-0.3473,-0.3544,13.3687,57.2083,0.2083,0.0751,-0.0428,237.1719
20:27:13:293,-0.7684,-0.1292,10.637,57.2295,0.4948,0.3726,0.1051,237.3125
20:27:13:313,-0.6679,0.1005,8.3124,56.8271,0.5736,0.4093,0.2132,238.2656
20:27:13:336,-0.3281,0.2345,8.0154,56.89,0.3604,0.1784,0.2309,238.3594
20:27:13:353,-0.1077,0.2273,9.3251,56.9227,0.0635,-0.0965,0.1796,238.6875
20:27:13:373,0.1412,-0.0598,10.8021,56.8211,-0.0935,-0.314,0.0977,238.7188
20:27:13:394,0.1962,-0.3329,12.0183,56.8381,-0.0782,-0.427,0.0232,238.5156
20:27:13:413,0.1196,-0.5746,12.5354,56.4922,0.058,-0.3219,-0.0116,238.2812
20:27:13:435,-0.2704,-0.711,11.5971,56.543,0.2657,0.0122,0.0104,238.2812
20:27:13:453,-0.6344,-0.5315,9.7726,56.61,0.4465,0.3769,0.1038,238.4531
20:27:13:475,-0.5459,-0.1172,8.3722,56.6468,0.5418,0.5864,0.248,238.4531
20:27:13:495,-0.189,0.5554,7.3475,56.461,0.5797,0.6793,0.3696,238.6562
20:27:13:513,0.1436,1.2999,6.2031,56.2388,0.5809,0.7171,0.4001,238.6562
20:27:13:536,0.2489,1.9681,5.4467,55.9109,0.4985,0.6273,0.3176,238.9062
20:27:13:553,0.1866,2.4371,5.7673,55.6385,0.3158,0.4349,0.1613,238.9062
20:27:13:575,-0.0909,2.2959,6.7059,55.5704,0.1258,0.2529,-0.0147,238.7812
20:27:13:596,-0.3951,1.8817,7.587,55.3305,-0.0012,0.1112,-0.1301,238.7812
20:27:13:614,-0.6488,1.7788,8.688,55.071,-0.0593,-0.0244,-0.1533,238.2031
20:27:13:634,-0.7588,1.6735,9.6266,55.008,-0.0336,-0.1087,-0.1319,238.2031
20:27:13:654,-0.778,1.4533,10.0337,55.1015,0.0556,-0.1319,-0.0996,237.9844
20:27:13:675,-0.8306,1.3047,9.9691,55.0222,0.1374,-0.1277,-0.047,237.9688
20:27:13:694,-0.62,1.2473,9.9906,55.0922,0.1552,-0.1539,0.0348,238.0625
20:27:13:721,0.5315,1.3095,10.6753,55.0194,0.1252,-0.2382,0.1167,238.0625
20:27:13:738,1.0295,1.3214,11.1948,54.9322,0.0544,-0.3256,0.1521,237.8906
20:27:13:754,1.2855,1.2736,11.6856,54.9691,-0.2223,-0.4032,0.069,237.875
20:27:13:773,1.2808,1.1157,12.7774,54.7912,-0.3738,-0.4722,0.0049,237.0625
20:27:13:793,1.4868,0.984,14.2759,54.6538,-0.416,-0.5443,0.0055,236.9844
20:27:13:813,2.4538,0.9721,15.2982,54.2549,-0.2621,-0.5455,0.0757,236.0469
20:27:13:834,3.1388,1.2114,15.9757,54.1317,0.036,-0.493,0.0892,235.9531
20:27:13:853,3.0667,1.0487,15.6144,54.329,0.4685,-0.4068,0.0055,235.6875
20:27:13:873,2.3701,0.6679,14.0175,54.3465,0.9987,-0.3347,-0.0721,235.6562
20:27:13:894,1.7237,0.5243,11.6498,54.3551,1.4728,-0.2834,-0.0373,235.9531
20:27:13:913,1.5826,0.577,9.3371,54.2682,1.7349,-0.2578,0.0812,236.25
20:27:13:934,1.7931,1.0965,7.6732,54.1177,1.7074,-0.2071,0.2059,236.25
20:27:13:954,2.083,1.8099,6.9476,53.9542,1.424,-0.0959,0.2694,236.3281
20:27:13:977,2.3127,2.3103,6.9691,54.176,1.0458,0.0257,0.2333,236.3281
20:27:13:995,2.5259,2.3509,7.0484,54.1041,0.7251,0.1203,0.1081,236.1562
20:27:14:014,2.4012,2.461,6.9811,53.6049,0.4447,0.2333,-0.0599,236.1562
20:27:14:035,1.9032,2.8011,6.9093,53.472,0.1771,0.358,-0.2205,236.0938
20:27:14:054,1.4581,2.9351,6.9069,53.2222,-0.0208,0.3842,-0.3604,236.0938
20:27:14:076,1.0247,2.8633,7.2781,53.1164,-0.1387,0.2908,-0.4862,236.2656
20:27:14:101,0.7325,2.6862,7.9125,53.1629,-0.201,0.1997,-0.5546,236.2656
20:27:14:119,0.8234,2.5738,8.3435,53.0351,-0.1784,0.1826,-0.5479,236.2969
20:27:14:135,0.9697,2.7197,8.1111,52.5805,-0.1155,0.2743,-0.5223,236.2969
20:27:14:154,0.9242,2.8968,7.599,52.4946,-0.1118,0.4074,-0.5241,236.4688
20:27:14:175,0.754,2.8848,7.4934,52.3447,-0.1729,0.4545,-0.5382,236.4844
20:27:14:194,0.5937,2.703,7.6756,52.3434,-0.2456,0.3958,-0.5296,236.4844
20:27:14:213,0.5076,2.5522,8.2406,52.3166,-0.2981,0.2712,-0.4722,236.4688
20:27:14:236,0.4597,2.6025,8.8822,52.1027,-0.281,0.1942,-0.2523,235.9844
20:27:14:254,-0.1364,3.1699,9.6362,52.0832,-0.223,0.2627,-0.1142,235.9375
20:27:14:276,-0.8835,3.6583,10.0385,51.9492,-0.0898,0.2975,0.0531,235.5
20:27:14:293,-1.6137,3.9574,10.4791,52.0168,0.179,0.1185,0.2529,235.4688
20:27:14:318,-0.6607,3.8139,11.3288,52.1172,0.6218,-0.3775,0.4368,235.5625
20:27:14:335,0.8501,3.9311,10.7662,52.2782,1.0696,-0.6017,0.485,235.5625
20:27:14:353,1.1109,4.4626,9.2797,51.9518,1.16,-0.3995,0.3384,236.2344
20:27:14:374,0.5148,4.8793,9.4878,51.884,0.8741,-0.0134,0.0812,236.2969
20:27:14:394,-0.8477,4.7234,8.8319,51.7129,0.5601,0.2559,-0.1051,237.2969
20:27:14:419,-0.941,4.2808,9.5046,51.5139,0.171,0.3415,-0.0287,238.3438
20:27:14:434,-0.6631,4.0842,9.8638,51.6201,-0.0983,0.5363,0.1539,238.3438
20:27:14:454,-0.0981,3.9215,9.5405,51.2988,-0.234,0.6677,0.2871,239.2656
20:27:14:475,0.6153,3.2919,9.361,51.071,-0.3079,0.5553,0.2926,239.2656
20:27:14:494,0.2489,2.4945,10.0289,50.9323,-0.3378,0.2517,0.1405,240.0625
20:27:14:512,-1.1396,1.9657,10.3328,51.0566,-0.2584,0.1387,0.0446,240.0625
20:27:14:535,-1.8817,1.7788,9.0999,50.6827,-0.1014,0.3628,0.2028,240.3281
20:27:14:554,-1.884,2.1571,7.1465,50.4048,-0.0446,0.584,0.4942,240.3281
20:27:14:575,-1.2688,2.7556,6.3156,50.4347,-0.1869,0.4832,0.7171,239.875
20:27:14:595,0.0837,3.1579,6.5815,50.0943,-0.4264,0.1417,0.7776,239.875
20:27:14:619,1.1324,3.2321,8.0776,50.1559,-0.6389,-0.3054,0.5785,239.2031
20:27:14:634,0.7564,2.6432,10.139,50.0229,-0.7532,-0.6475,0.1753,239.2031
20:27:14:653,-0.1053,1.5299,11.3862,49.7408,-0.6658,-0.7122,-0.1319,238.9375
20:27:14:675,-0.9218,0.6344,10.7662,49.5951,-0.3366,-0.4612,-0.1686,238.9062
20:27:14:695,-1.4773,0.5291,8.6306,49.6951,0.0715,-0.077,0.055,238.875
20:27:14:719,-0.941,1.051,6.1146,49.8406,0.3531,0.2052,0.405,238.875
20:27:14:785,-0.256,1.6831,4.0675,49.5797,-0.0421,0.2266,0.5656,238.0781
20:27:14:786,-0.1436,2.5714,4.2329,49.7001,-0.6909,-0.0275,0.4514,238
20:27:14:786,0.1603,2.5618,6.7107,49.7396,-1.2901,-0.2358,0.3201,237.2969
20:27:14:794,0.2034,2.3222,9.4663,49.6737,-1.5852,-0.3158,0.1686,237.2344
20:27:14:817,0.067,1.8888,10.7949,49.6342,-1.5083,-0.1973,0.0525,236.8281
20:27:14:835,-0.5315,1.5921,11.2546,49.5129,-1.2113,-0.0983,-0.0055,236.7812
20:27:14:855,-0.6129,1.5993,11.5636,49.5843,-0.8491,-0.0965,0.0562,235.2656
20:27:14:873,1.2257,1.9848,12.4182,49.7175,-0.4844,-0.0684,0.1906,235.1094
20:27:14:893,2.9853,2.8035,13.1172,49.8033,-0.1594,0.1368,0.193,233.7656
20:27:14:917,2.4108,3.7588,12.0374,49.5063,0.1161,0.2908,-0.0293,233.9219
20:27:14:935,0.5506,3.9024,11.2857,49.1882,0.4025,-0.1026,-0.4502,233.9219
20:27:14:954,-0.3568,2.916,11.3432,49.0385,0.7239,-0.7978,-0.7623,234.2031
20:27:14:975,0.0263,2.0638,11.5325,48.8774,0.8466,-1.2217,-0.7122,234.2031
20:27:14:996,0.51,2.2504,11.4987,48.8116,0.5363,-1.113,-0.4478,232.9688
20:27:15:019,1.3119,2.6551,12.4205,48.7311,-0.1564,-0.6634,-0.1484,232.9688
20:27:15:035,2.4682,2.7556,14.252,48.5681,-0.8772,-0.0892,0.0812,231.7812
20:27:15:054,4.034,2.7939,15.4588,48.2685,-1.2174,0.4496,0.1539,231.7812
20:27:15:075,4.5009,2.5355,14.9943,48.2338,-1.2168,0.9157,-0.0232,231.3594
20:27:15:095,3.0885,1.9705,13.7519,47.9597,-1.1026,1.2425,-0.3274,231.3594
20:27:15:112,1.6567,1.3286,12.2794,47.8979,-0.8326,1.2987,-0.4777,231.3594
20:27:15:136,1.1946,1.1013,10.9122,47.8362,-0.3903,1.0036,-0.438,231.3594
20:27:15:153,1.1898,1.1157,9.8877,47.6959,0.0446,0.4728,-0.3757,231.1406
20:27:15:175,0.9553,0.7469,9.4687,47.3498,0.2889,-0.0959,-0.3696,231.125
20:27:15:195,1.3023,0.0407,9.9954,47.0653,0.3256,-0.5046,-0.3647,230.875
20:27:15:220,1.4366,-0.4549,10.1868,47.1118,0.2413,-0.5076,-0.3347,230.8594
20:27:15:235,0.122,-0.9147,8.4368,47.1456,0.1081,-0.1863,-0.2755,232.2188
20:27:15:256,-0.2058,-0.8477,7.4623,47.4784,-0.0006,0.1228,-0.1448,232.3594
20:27:15:276,-0.1244,-0.5339,6.6509,47.4237,-0.0476,0.2614,0.0354,234.1562
20:27:15:294,0.3473,-0.0479,6.4089,47.7209,-0.1319,0.1729,0.3494,234.1562
20:27:15:314,1.1109,0.6224,6.993,47.7939,-0.2535,0.1527,0.3781,234.4062
20:27:15:337,1.7309,1.4151,7.879,47.8957,-0.3506,0.2523,0.2706,234.4375
20:27:15:355,1.0104,1.8888,7.8503,47.9894,-0.3573,0.3793,0.0348,234.0938
20:27:15:374,0.0215,1.4868,7.8861,48.1092,-0.2688,0.2504,-0.1845,234.0625
20:27:15:393,-0.2034,0.9386,8.7171,48.0601,-0.1075,-0.1148,-0.2437,234.4375
20:27:15:419,0.012,0.8186,9.5309,48.043,0.0684,-0.3647,-0.1649,235.1094
20:27:15:435,0.1723,1.2257,9.6745,48.029,0.1588,-0.3409,-0.047,235.1094
20:27:15:455,0.376,1.6807,9.9045,47.6424,0.1155,-0.1778,0.0336,236.0312
20:27:15:476,0.2632,1.6376,10.2754,47.5715,0.0238,0.0116,0.0501,236.0312
20:27:15:495,0.0191,1.5251,10.6155,47.75,-0.0373,0.1552,0.0788,236.8438
20:27:15:514,0.4573,1.573,11.0991,47.7208,-0.0287,0.1961,0.1607,236.8438
20:27:15:535,1.1348,1.774,11.8364,47.784,0.0562,0.1045,0.1979,236.9062
20:27:15:553,1.0247,1.9558,12.2076,47.7382,0.19,0.0116,0.1277,236.9062
20:27:15:575,0.3784,1.6639,11.822,47.7814,0.2938,0.0055,0.0263,236.2031
20:27:15:596,-0.2776,1.1659,11.482,48.0053,0.2773,0.0562,-0.0018,236.2031
20:27:15:618,-0.8139,1.0223,11.0967,48.3069,0.1631,0.1692,0.0855,235.3906
20:27:15:635,-0.8501,1.3286,10.8763,48.4309,0.011,0.2657,0.2523,235.3906
20:27:15:654,-0.3616,1.4773,10.6992,48.5596,-0.0928,0.2059,0.3879,235.4219
20:27:15:675,0.1101,0.8477,11.0489,48.7566,-0.1607,-0.0061,0.4087,235.4219
20:27:15:694,-0.1388,0.4238,11.9632,48.6865,-0.1857,-0.2059,0.4099,235.9062
20:27:15:719,-0.7636,0.6224,11.889,49.0343,-0.0525,-0.1625,0.4893,235.9531
20:27:15:735,-0.7971,1.0152,9.9404,49.1285,0.1881,0.0495,0.6121,236.0469
20:27:15:756,-0.4525,1.197,7.8574,48.9757,0.3036,0.1313,0.6609,236.0625
20:27:15:777,-0.0885,1.5945,7.4432,48.9437,0.1454,0.0299,0.6292,235.9062
20:27:15:794,0.7421,1.5778,9.3012,49.1263,-0.2474,-0.2877,0.3268,235.8906
20:27:15:813,0.7134,0.9027,10.1103,48.9199,-0.2162,-0.4349,0.1069,235.4844
20:27:15:835,0.2345,0.3425,10.7327,49.0374,-0.0892,-0.5247,-0.0409,235.4531
20:27:15:854,-0.0837,-0.1316,10.5221,49.132,0.0892,-0.4545,-0.069,235.2969
20:27:15:873,-0.2106,-0.2608,9.5213,49.0321,0.2504,-0.2608,-0.0031,235.2969
20:27:15:894,-0.2704,0.1723,8.2693,49.0924,0.3207,-0.0428,0.0947,235.1875
20:27:15:919,-0.2994,0.711,7.1034,49.2058,0.2706,0.1442,0.1545,234.4531
20:27:15:935,-0.3736,1.209,6.1672,49.1599,0.1185,0.2407,0.1631,234.4531
20:27:15:954,-0.4789,1.6352,6.5121,48.9659,-0.091,0.1277,0.124,233.5156
20:27:15:975,-0.443,1.8218,7.8383,49.1079,-0.2535,-0.0782,0.0678,233.5156
20:27:15:995,-0.3042,1.9343,9.0329,49.0489,-0.3225,-0.1613,0.0189,232.3281
20:27:16:013,-0.1795,1.9487,9.5907,49.1341,-0.3525,-0.0959,-0.033,232.3281
20:27:16:036,0.0311,1.9558,10.3208,49.0167,-0.4129,0.0079,-0.0812,230.8906
20:27:16:054,0.5602,2.2265,11.2977,49.061,-0.441,0.0666,-0.0996,230.8906
20:27:16:075,0.8859,2.4993,11.9345,49.1324,-0.347,0.0415,-0.1613,230.0156
20:27:16:095,0.699,2.2792,12.3823,49.2972,-0.1435,-0.1271,-0.2957,230.0156
20:27:16:120,0.1172,1.4868,12.9592,49.344,0.0794,-0.3488,-0.4319,230.0938
20:27:16:136,-0.2827,0.4358,13.2299,49.2628,0.2559,-0.4276,-0.4343,230.0938
20:27:16:153,-0.3975,-0.201,12.8228,49.2753,0.3824,-0.3567,-0.2718,230.3125
20:27:16:175,-0.2369,-0.0311,11.9178,49.1437,0.4239,-0.2114,-0.0147,230.3125
20:27:16:194,0.6224,0.5219,11.1015,49.1619,0.3531,-0.0965,0.2309,230.0469
20:27:16:219,1.6591,1.1228,10.8117,48.9954,0.2028,-0.0764,0.3244,230.0156
20:27:16:234,2.4467,1.4294,10.9651,48.8403,0.0257,-0.1319,0.2364,229.6719
20:27:16:254,2.5208,1.0199,11.6139,48.7057,-0.1185,-0.2272,0.0031,229.6406
20:27:16:277,1.0175,-0.778,11.6713,48.5522,-0.0837,-0.1863,-0.2816,229.5781
20:27:16:293,0.8139,-1.0439,11.3886,48.6095,0.0476,-0.1387,-0.1668,229.5781
20:27:16:314,1.1659,-0.821,10.8188,48.4458,0.2101,-0.0751,0.0122,229.7031
20:27:16:335,1.4174,-0.4167,9.9165,48.5107,0.3763,0.0183,0.1429,229.7188
20:27:16:353,1.7285,-0.0957,8.6115,48.5902,0.5247,0.1051,0.204,229.9531
20:27:16:373,1.6807,0.1172,7.1943,48.7372,0.6072,0.1197,0.1967,229.9844
20:27:16:394,1.6926,0.3879,6.0667,48.7776,0.5656,0.0684,0.1668,230.7812
20:27:16:418,1.7572,0.766,5.4156,48.8567,0.3885,-0.0275,0.1026,231.6719
20:27:16:436,1.8793,1.1539,5.6572,48.7855,0.0928,-0.1374,-0.0238,231.6719
20:27:16:455,1.6065,1.2975,6.725,48.5217,-0.2468,-0.1949,-0.2162,231.5781
20:27:16:474,0.9362,1.0008,8.0991,48.6216,-0.4893,-0.2004,-0.4117,231.5781
20:27:16:494,0.3114,0.565,9.4926,48.2596,-0.5302,-0.2266,-0.4936,231
20:27:16:517,0.2393,0.3951,10.2012,47.9745,-0.3885,-0.2242,-0.427,231
20:27:16:536,0.5578,0.6392,9.8662,47.8987,-0.2126,-0.1038,-0.2895,231.3281
20:27:16:554,0.9242,1.2832,9.3108,47.7657,-0.168,0.0867,-0.1851,231.3281
20:27:16:576,1.3836,1.5969,9.2387,47.4311,-0.2382,0.237,-0.16,231.3281
20:27:16:601,1.4749,1.6687,9.3802,47.3797,-0.3207,0.3335,-0.1881,231.875
20:27:16:619,1.2544,1.7812,9.763,47.4011,-0.3641,0.3696,-0.2016,231.7188
20:27:16:635,1.0152,1.8529,10.0911,47.3108,-0.3244,0.3494,-0.1735,231.7188
20:27:16:653,0.8548,1.9657,10.3208,47.3247,-0.2272,0.3219,-0.1124,231.2188
20:27:16:675,0.7732,2.1763,10.5006,47.2815,-0.1161,0.3396,-0.0275,231.2188
20:27:16:695,0.7158,2.4371,10.1821,46.7925,0.0049,0.4074,0.0623,230.9062
20:27:16:717,0.7229,2.6312,9.5596,46.4923,0.0739,0.4746,0.135,230.8906
20:27:16:735,1.2185,2.7652,9.4543,46.6633,0.0232,0.463,0.1765,231.1875
20:27:16:754,1.5227,2.7532,10.0959,46.4967,-0.1069,0.3751,0.1264,231.2188
20:27:16:775,0.8764,2.1715,11.1278,46.2966,-0.2205,0.2944,0.0079,232.2188
20:27:16:795,0.146,1.7046,11.3504,45.9972,-0.2975,0.223,-0.1222,232.3125
20:27:16:858,-0.8043,1.1515,11.0417,45.9419,-0.416,0.3109,-0.259,233.0938
20:27:16:859,-1.386,0.8091,10.5844,45.7561,-0.5571,0.4691,-0.1747,233.1719
20:27:16:859,-1.0247,0.5243,10.5221,45.7284,-0.7196,0.485,-0.0354,233.4844
20:27:16:873,-0.4645,-0.3257,11.4604,45.5709,-0.8509,0.2547,0.0287,233.5156
20:27:16:893,-0.5483,-0.9266,14.336,44.9454,-0.8766,-0.0983,0.0525,233.7969
20:27:16:917,-1.075,-1.0606,16.3875,44.6748,-0.5113,-0.182,0.1576,234.0156
20:27:16:934,-1.2736,-1.2832,13.8858,44.3695,0.2877,0.0855,0.3604,234.0156
20:27:16:955,-1.0869,-1.1707,9.6864,44.1236,0.959,0.2297,0.5785,233.875
20:27:16:973,-0.5219,-0.6751,7.491,43.8818,1.0891,0.0348,0.733,233.875
20:27:16:993,0.1484,0.122,7.3092,43.7911,0.8515,-0.2743,0.7782,233.375
20:27:17:018,0.711,0.6176,8.2884,43.6128,0.5388,-0.5131,0.6615,233.375
20:27:17:035,0.8115,0.4023,9.4208,43.6114,0.2914,-0.5412,0.4355,233.1406
20:27:17:054,0.4597,-0.0072,9.7295,43.6144,0.1167,-0.2926,0.2364,233.1094
20:27:17:076,0.2321,-0.4047,8.9563,43.4685,0.011,0.0055,0.1393,233.1094
20:27:17:093,-0.1053,-0.7181,8.9468,43.5705,-0.0819,0.0556,0.1038,233.4062
20:27:17:115,-0.2776,-0.3999,9.9308,43.655,-0.1552,0.0238,0.1472,233.7344
20:27:17:136,-0.2898,0.1627,9.708,43.3317,-0.0617,0.1387,0.2077,233.7344
20:27:17:153,-0.4741,0.4908,8.2621,43.239,0.1093,0.2975,0.204,233.5781
20:27:17:174,-0.4884,0.6607,6.9523,43.2141,0.1668,0.3549,0.1906,233.5781
20:27:17:194,-0.6464,0.9817,6.5671,42.9507,0.0751,0.3011,0.1839,233.3281
20:27:17:217,-0.5746,1.3406,7.0579,42.8559,-0.069,0.1949,0.1918,233.3281
20:27:17:235,-0.4789,1.4821,7.9101,43.0054,-0.1747,0.0861,0.1912,232.4062
20:27:17:254,-0.3233,1.4246,8.6043,42.7743,-0.2107,-0.0092,0.1973,232.3281
20:27:17:277,-0.0694,1.6496,10.285,42.4907,-0.1607,-0.2761,0.2474,230.7656
20:27:17:295,0.268,1.9271,10.8236,42.52,-0.0324,-0.438,0.2529,230.7656
20:27:17:314,0.8501,2.004,10.893,42.5513,0.113,-0.5919,0.1918,229.8281
20:27:17:335,1.5682,1.829,11.2642,42.3655,0.1374,-0.689,0.0519,229.7344
20:27:17:353,2.0542,1.1492,11.5277,42.3337,-0,-0.6451,-0.1631,229.3906
20:27:17:373,1.8601,0.2154,12.3081,42.3638,-0.2865,-0.5266,-0.3848,229.3594
20:27:17:394,1.2712,-0.285,13.8787,42.2986,-0.5956,-0.3427,-0.4856,229.0938
20:27:17:418,0.8835,-0.5339,15.0326,42.0753,-0.689,-0.0874,-0.4331,228.5938
20:27:17:435,0.7828,-0.6511,14.9728,42.0974,-0.5345,0.2022,-0.2932,228.5938
20:27:17:454,1.2377,-0.7397,13.7133,42.0363,-0.2608,0.4123,-0.1258,228.0781
20:27:17:474,1.6663,-0.8572,12.6864,41.7266,-0.0067,0.4209,-0.0202,228.0781
20:27:17:494,1.7405,-0.7493,12.0326,41.5574,0.2236,0.3409,0.0269,227.5625
20:27:17:517,1.5897,-0.6942,10.9723,41.6265,0.4917,0.2755,0.0489,227.5625
20:27:17:534,1.5084,-0.5913,9.6147,41.6341,0.7348,0.2242,0.0757,227.5469
20:27:17:555,1.6878,-0.3879,8.3483,41.5869,0.887,0.1234,0.11,227.1094
20:27:17:575,2.0112,-0.0072,7.2948,41.7118,0.9224,-0.0293,0.1045,227.1094
20:27:17:595,2.3103,0.364,6.5623,41.6508,0.824,-0.204,0.014,226.6719
20:27:17:615,2.4132,0.5267,6.3562,41.7414,0.5962,-0.3598,-0.1716,226.6719
20:27:17:636,2.0638,0.3449,6.8255,42.1087,0.2914,-0.4532,-0.4044,226.5938
20:27:17:655,1.4749,0.0215,7.587,42.4364,0.0104,-0.4306,-0.5937,227.375
20:27:17:676,0.6679,-0.2273,8.001,42.3628,-0.1582,-0.3097,-0.6805,227.375
20:27:17:695,0.1579,-0.2106,8.0871,42.5919,-0.2052,-0.1716,-0.6341,228.4688
20:27:17:714,0.1723,0.134,7.7115,42.7078,-0.1765,-0.0733,-0.4997,228.4688
20:27:17:735,0.5578,0.7038,7.3475,42.891,-0.1564,-0.0385,-0.3738,228.8281
20:27:17:754,0.996,1.2281,7.3092,43.0611,-0.2004,-0.0434,-0.3189,228.8594
20:27:17:776,1.1707,1.6352,7.7426,43.3146,-0.2889,-0.0764,-0.3451,228.7656
20:27:17:793,1.118,1.7788,8.4535,43.3702,-0.3622,-0.1362,-0.4148,228.75
20:27:17:815,0.9697,1.6304,9.3323,43.5868,-0.4337,-0.1808,-0.4795,228.5781
20:27:17:836,0.7851,1.3238,11.3623,43.8339,-0.408,-0.0904,-0.4233,228.5469
20:27:17:853,0.5483,1.2927,11.8795,43.7608,-0.3097,0.0684,-0.3305,228.3438
20:27:17:874,0.3664,1.4174,11.9369,43.7899,-0.1545,0.2425,-0.1918,228.3125
20:27:17:894,0.4358,1.5419,10.9555,44.0477,0.0318,0.3928,-0.0403,228.5625
20:27:17:917,0.4693,1.64,9.9308,44.1747,0.0977,0.4838,0.0489,229.7344
20:27:17:936,0.5219,1.6304,9.9858,44.3003,-0.0525,0.565,0.0702,229.7344
20:27:17:955,0.3473,1.494,10.6849,44.4006,-0.2834,0.6866,0.0305,231.2344
20:27:17:973,-0.0239,1.0439,11.269,44.385,-0.4056,0.755,-0.0403,231.2344
20:27:17:993,-0.4836,0.6416,11.4365,44.3765,-0.3848,0.6909,-0.0782,232.3594
20:27:18:018,-0.8692,0.4143,11.202,44.5166,-0.2889,0.4972,-0.0654,232.3594
20:27:18:034,-0.6344,0.1938,10.9627,44.6871,-0.2291,0.1918,-0.0287,232.375
20:27:18:054,-0.0814,-0.3185,11.8053,44.6314,-0.3121,-0.1888,-0.0428,233.125
20:27:18:074,0.2106,-0.8883,13.9361,44.9166,-0.4624,-0.4465,-0.102,233.125
20:27:18:094,-0.7062,-1.3836,15.6168,45.0259,-0.4044,-0.3286,-0.1264,234.1562
20:27:18:114,-2.0471,-1.5586,14.2711,45.0438,-0.0018,0.1802,0.0623,235.1875
20:27:18:136,-1.9992,-1.0319,10.4527,45.1773,0.5455,0.6438,0.485,235.1875
20:27:18:153,-0.9697,-0.2584,7.0026,45.6417,0.8417,0.675,0.8564,235.7344
20:27:18:175,0.3114,1.0128,5.9088,45.7156,0.7165,0.3286,0.9951,235.7344
20:27:18:194,1.5156,2.2002,6.8279,46.0126,0.3573,-0.1051,0.8509,235.5938
20:27:18:213,2.1188,2.3366,8.6067,46.3019,0.0147,-0.419,0.4404,235.5938
20:27:18:235,1.6065,1.3286,10.3041,46.4145,-0.2114,-0.5009,-0.0745,235.3125
20:27:18:253,0.2034,0.4238,11.2403,46.6394,-0.2847,-0.3488,-0.4288,235.2812
20:27:18:277,-1.0056,-0.1819,11.2427,47.0224,-0.168,-0.113,-0.5137,235.1875
20:27:18:294,-1.2688,-0.5841,10.0481,47.2554,0.0867,0.0593,-0.3702,235.1875
20:27:18:316,-1.063,-0.2728,8.8774,47.4795,0.2792,0.0928,-0.1442,235.1719
20:27:18:335,-0.4884,0.5602,8.5325,47.8504,0.2981,0.0788,0.0421,235.1719
20:27:18:355,-0.1316,1.4533,8.0393,48.1595,0.2089,0.1338,-0.0092,235.3594
20:27:18:376,-0.7181,1.2185,7.9364,48.4547,0.1906,0.0391,-0.1356,235.375
20:27:18:393,-1.2329,1.0247,8.1808,48.6565,0.179,-0.11,-0.1686,235.4375
20:27:18:417,-1.3406,1.1444,8.918,48.967,0.157,-0.223,-0.1032,234.0156
20:27:18:433,-1.2162,1.1707,9.7487,49.2817,0.1381,-0.2449,-0.0257,234.0156
20:27:18:453,-1.1492,1.1515,10.3448,49.6243,0.1478,-0.1698,0.025,232.0469
20:27:18:473,-1.0295,1.0678,10.3953,49.7563,0.1814,-0.0421,0.0684,232.0469
20:27:18:495,-0.7684,0.9338,10.5867,50.3312,0.1881,0.0177,0.1002,231.875
20:27:18:518,-0.3018,0.7899,11.2259,50.444,0.1875,-0.0312,0.1136,231.5781
20:27:18:534,-0.0096,0.6823,11.6641,50.77,0.2468,-0.1057,0.0971,231.5781
20:27:18:554,-0.0191,0.6033,11.3647,51.0779,0.3543,-0.1448,0.0507,232.6562
20:27:18:575,-0.2177,0.7301,10.6298,51.3639,0.4184,-0.1393,0.014,232.6719
20:27:18:594,-0.0167,1.0367,9.9069,51.6291,0.3671,-0.1228,0.0031,233.2188
20:27:18:614,0.1149,1.2185,9.696,51.8204,0.1729,-0.1411,-0.0446,233.0781
20:27:18:635,0.2584,1.0128,10.3519,52.3654,-0.1118,-0.2156,-0.1167,233.0781
20:27:18:654,0.8019,0.3951,11.7981,52.2917,-0.3836,-0.3048,-0.1778,233.2188
20:27:18:675,1.0989,-0.2273,13.7468,52.6084,-0.543,-0.3335,-0.2358,233.2188
20:27:18:694,0.9003,-0.7493,15.2121,52.6917,-0.5064,-0.1576,-0.2498,233.5938
20:27:18:717,0.4238,-1.0487,14.9249,53.1985,-0.1924,0.1796,-0.157,233.5938
20:27:18:735,0.4382,-0.9529,12.6529,53.3845,0.2785,0.4581,0.0299,233.6719
20:27:18:754,0.8596,-0.6703,10.4551,53.4886,0.6108,0.5217,0.2077,233.6719
20:27:18:775,1.5538,-0.2034,9.2821,53.7023,0.7147,0.4496,0.3115,233.5156
20:27:18:801,2.1021,0.2946,8.4224,53.6541,0.686,0.3744,0.2999,233.5
20:27:18:815,2.2002,0.6966,7.7545,53.8943,0.5614,0.3292,0.1778,233.3281
20:27:18:836,1.963,0.9362,7.4815,54.1037,0.3744,0.2822,0.0061,233.3125
20:27:18:855,0.8644,0.9553,8.2406,54.5261,0.1216,0.0489,-0.2572,233.3125
20:27:18:932,0.5315,1.1085,8.6952,54.4543,0.1539,-0.0495,-0.2621,233.3125
20:27:18:933,0.3855,1.4151,8.5947,54.6492,0.2676,-0.1014,-0.2248,233.4062
20:27:18:933,0.4238,1.7405,8.1111,55.0069,0.3555,-0.1136,-0.1784,233.7812
20:27:18:933,0.5004,2.1165,7.8503,55.4478,0.3225,-0.0715,-0.1435,233.7812
20:27:18:953,0.6416,2.5184,7.8335,55.8329,0.2004,-0.0128,-0.1277,234.3594
20:27:18:973,0.6344,2.6647,8.2597,56.0921,0.0641,0.0012,-0.1527,234.3594
20:27:18:995,0.5387,2.4969,8.9803,56.2768,-0.0147,-0.0214,-0.1741,234.4219
20:27:19:017,0.6488,2.4132,9.562,56.4116,0.0128,-0.0403,-0.1539,234.4531
20:27:19:033,0.8907,2.5475,9.6697,56.5806,0.1038,-0.0134,-0.1289,234.4688
20:27:19:054,0.711,2.7796,9.4974,56.7896,0.1668,0.0666,-0.1381,233.7656
20:27:19:075,0.2489,2.9638,9.6123,56.8357,0.1723,0.1668,-0.1448,233.75
20:27:19:101,-0.012,3.1316,9.6051,56.8478,0.2016,0.2614,-0.1069,233.1406
20:27:19:116,0.0479,3.323,9.4472,56.9331,0.2718,0.2926,-0.0525,233.2344
20:27:19:136,0.2034,3.3374,9.5883,56.9818,0.3176,0.2401,-0.0299,233.2344
20:27:19:154,0.285,3.213,10.1462,57.2603,0.3201,0.1607,-0.0568,233.8125
20:27:19:175,0.1507,3.0835,10.4432,57.4975,0.3201,0.1136,-0.1142,233.8125
20:27:19:194,-0.2417,2.7532,10.4934,57.6754,0.3158,0.0764,-0.1851,234.3438
20:27:19:213,-0.9314,2.6695,10.6872,57.8625,0.2456,0.0715,-0.2205,234.3438
20:27:19:236,-1.4222,2.9686,10.7518,58.1189,0.1301,0.1332,-0.1869,234.6875
20:27:19:254,-1.8553,3.026,10.7471,58.2341,0.014,0.1839,-0.1625,234.6875
20:27:19:276,-1.8194,2.3844,10.9436,58.3036,-0.0812,0.1307,-0.1466,235.0156
20:27:19:300,-1.3047,1.3286,11.5732,58.5289,-0.1155,-0.0489,-0.1057,235.0469
20:27:19:317,-1.1827,0.687,12.7917,58.4662,-0.0696,-0.201,-0.0415,235.3438
20:27:19:336,-1.6567,0.874,10.2132,58.4116,0.3824,0.2144,0.3054,235.375
20:27:19:356,-1.2736,1.2185,7.9651,58.5044,0.5088,0.2474,0.46,235.625
20:27:19:376,-0.6416,1.7046,7.0484,58.6743,0.3775,0.0812,0.5272,235.6562
20:27:19:398,0.1388,2.1882,7.3307,58.9312,0.1038,-0.157,0.4771,235.7344
20:27:19:417,0.5746,1.9128,8.9587,58.9753,-0.19,-0.3518,0.2767,235.7812
20:27:19:433,0.2249,1.2903,10.4504,59.0995,-0.3787,-0.306,0.0678,235.7812
20:27:19:454,-0.6703,1.0415,10.7518,59.0091,-0.3567,-0.0562,0.0086,235.7812
20:27:19:473,-0.7947,1.1827,9.5548,59.3366,-0.1643,0.1918,0.1539,236.0781
20:27:19:495,-0.1388,1.6065,8.0536,59.4559,0.0055,0.2761,0.3708,236.1094
20:27:19:517,0.4669,2.2241,7.2637,59.6288,0.0086,0.2205,0.4826,236.4844
20:27:19:534,0.8186,2.9016,7.666,59.6763,-0.1191,0.1148,0.4471,236.5312
20:27:19:553,0.7516,3.1077,8.3435,59.6348,-0.1875,0.0147,0.2792,236.7812
20:27:19:575,0.3879,2.8298,8.7027,59.8966,-0.1277,-0.0837,0.058,236.7969
20:27:19:599,-0.2441,2.4323,8.5804,59.975,-0.0305,-0.1558,-0.1161,237
20:27:19:616,-0.6272,2.071,8.6306,60.2934,0.0171,-0.2132,-0.1857,237
20:27:19:636,-0.7516,1.9319,8.9061,60.3885,0.0134,-0.2364,-0.1674,236.5625
20:27:19:655,-0.9936,2.0375,9.253,60.5444,-0.0079,-0.201,-0.1124,235.4688
20:27:19:676,-1.2138,2.3055,9.3491,60.757,0.0116,-0.1442,-0.0324,235.4688
20:27:19:695,-1.1037,2.4682,8.875,60.8035,0.0715,-0.1148,0.0519,234.75
20:27:19:715,-0.7923,2.5307,8.5971,60.8607,0.0684,-0.1594,0.1057,234.75
20:27:19:736,-0.3736,2.7293,9.1262,60.7786,-0.0318,-0.2431,0.1191,234.7188
20:27:19:754,0.0215,2.6982,9.9069,60.8781,-0.1435,-0.3048,0.0672,234.7188
20:27:19:775,-0.0167,2.3198,10.6609,60.9013,-0.2205,-0.336,-0.0403,234.0781
20:27:19:800,-0.2417,2.0949,11.2666,60.7504,-0.2596,-0.3158,-0.1069,234.0156
20:27:19:817,-0.4071,1.9175,11.2355,60.8212,-0.2639,-0.2767,-0.1057,233
20:27:19:836,-0.4573,1.5299,11.3671,60.6731,-0.2902,-0.3128,-0.0464,232.9062
20:27:19:855,1.1372,1.3478,12.6386,60.6867,-0.3415,-0.408,0.0971,232.5625
20:27:19:876,2.4706,1.4103,13.5841,60.9712,-0.3818,-0.5003,0.2706,232.5312
20:27:19:893,3.026,1.4103,13.4501,61.2091,-0.2975,-0.2938,0.2871,232.9062
20:27:19:913,2.461,1.2066,12.1669,61.0415,-0.0965,-0.0513,0.1497,233.3125
20:27:19:934,1.8027,1.0319,10.5844,61.1608,0.1442,0.0733,0.0684,233.3125
20:27:19:953,1.5897,0.9936,8.9396,61.3204,0.3439,0.0739,0.0586,233.3594
20:27:19:973,1.6065,1.0128,7.6493,61.241,0.4013,-0.0189,0.0409,233.4062
20:27:19:994,1.8003,1.0965,7.3307,61.5928,0.2712,-0.1448,-0.0147,233.4062
20:27:20:016,2.2337,1.1396,8.0249,61.5847,0.0403,-0.2431,-0.1112,233.2812
20:27:20:034,2.2935,0.9458,9.0855,61.5562,-0.1997,-0.2132,-0.2657,233.2656
20:27:20:055,1.9896,0.5794,9.9045,61.4813,-0.3726,-0.077,-0.4129,233.375
20:27:20:075,1.4868,0.3544,10.3496,61.5378,-0.4129,0.0562,-0.4844,233.375
20:27:20:099,1.1109,0.4238,10.0361,61.4498,-0.2987,0.1387,-0.4691,233.7344
20:27:20:114,0.941,0.7134,9.2988,61.5066,-0.1362,0.1631,-0.4148,233.8281
20:27:20:135,1.0223,1.0032,8.5277,61.4225,-0.0428,0.1942,-0.3671,233.8281
20:27:20:154,1.0845,1.3836,7.9771,61.2235,-0.0409,0.2535,-0.3494,233.3594
20:27:20:179,0.8812,1.7836,7.7378,61.0898,-0.0947,0.2853,-0.3677,233.3594
20:27:20:198,0.5746,1.9295,8.0154,60.7646,-0.1228,0.2095,-0.3971,232.9531
20:27:20:215,0.2946,1.9247,8.4033,60.7363,-0.0623,0.0305,-0.3983,232.9531
20:27:20:235,-0.0502,2.0662,8.6545,60.858,0.0159,-0.1264,-0.3628,232.7812
20:27:20:253,-0.3616,2.2887,9.2315,61.0416,-0.0269,-0.1118,-0.2963,232.7812
20:27:20:275,-0.2297,2.4012,9.8638,60.9387,-0.1686,0.1185,-0.2089,232.7969
20:27:20:298,0.1675,2.5857,10.1725,60.96,-0.2804,0.4068,-0.1405,232.7969
20:27:20:315,0.0479,2.9303,10.3472,60.8712,-0.3152,0.6157,-0.1313,233.2656
20:27:20:335,-0.4406,3.2465,10.1605,60.6689,-0.2547,0.6884,-0.1356,233.3125
20:27:20:353,-0.9673,3.2034,9.9117,60.6207,-0.1313,0.5962,-0.135,234.2031
20:27:20:375,-1.0415,2.6862,11.415,60.4149,0.0122,0.1319,-0.0018,234.2969
20:27:20:400,-0.874,2.5161,12.1549,60.393,0.0764,0.0837,0.0892,235.1094
20:27:20:414,-0.9434,2.3198,11.8292,60.0192,0.1161,0.2657,0.171,235.1875
20:27:20:433,-1.1635,2.3844,11.2259,59.8387,0.0764,0.4642,0.2743,235.8281
20:27:20:453,-1.3454,2.6145,11.0656,59.591,0.0024,0.5272,0.3854,235.8906
20:27:20:474,-1.1324,2.8178,10.8212,59.7745,-0.0061,0.4343,0.4813,236.5469
20:27:20:500,-0.189,2.4538,10.5939,60.0678,0.0269,0.1631,0.5015,236.6094
20:27:20:515,0.6272,1.3478,11.901,60.3119,-0.0336,-0.2175,0.3903,237.3906
20:27:20:534,0.0766,0.6966,13.9481,60.4295,-0.0837,-0.3415,0.259,237.4688
20:27:20:553,-1.1372,0.2106,13.5338,60.3538,0.1271,0.0519,0.2773,238.0312
20:27:20:573,-1.4749,0.4095,9.8638,60.4353,0.518,0.5925,0.5131,238.0312
20:27:20:594,-0.9434,1.1133,6.373,60.8651,0.7006,0.6939,0.7526,238.0938
20:27:20:618,0.3162,2.1404,5.219,61.0937,0.4881,0.3244,0.8277,238.1094
20:27:20:635,1.5706,2.9016,6.7944,61.0318,0.0257,-0.1637,0.6243,238.1094
20:27:20:654,1.8912,2.4179,9.3754,61.0066,-0.3598,-0.4716,0.1655,238.125
20:27:20:675,0.778,1.3621,11.1183,60.8113,-0.5094,-0.4435,-0.3134,238.125
20:27:20:700,-0.7875,0.256,11.2259,60.857,-0.4123,-0.1973,-0.5705,237.7812
20:27:20:714,-1.7453,-0.6081,10.0887,60.931,-0.1698,0.0819,-0.5302,237.7812
20:27:20:735,-1.7764,-0.6918,8.164,60.8472,0.0538,0.2541,-0.2785,236.8594
20:27:20:753,-1.4844,0.0024,7.2087,60.6912,0.0971,0.2419,-0.0226,236.8594
20:27:20:775,-1.063,0.9434,7.0316,60.6767,0,0.2211,0.1216,235.6562
20:27:20:797,-1.0391,1.6208,6.7418,60.4573,-0.1161,0.27,0.1106,235.6562
20:27:20:814,-1.4151,1.9534,6.3491,60.5413,-0.2156,0.2792,0.0079,235.0938
20:27:20:835,-1.8099,1.884,6.5862,60.6095,-0.3311,0.1576,-0.0861,235.0469
20:27:20:854,-1.8123,1.7405,7.8,60.5751,-0.4618,-0.0116,-0.11,234.1719
20:27:20:876,-1.8577,1.5634,10.8763,60.5351,-0.4563,-0.2871,-0.0739,234.0938
20:27:20:899,-1.8147,1.5012,11.8771,60.7212,-0.2651,-0.3512,-0.0257,232.3906
20:27:20:915,-1.5682,1.5443,11.6163,60.7179,-0.0635,-0.2981,0.0434,232.2344
20:27:20:991,-1.2473,1.4438,11.5277,60.6088,-0.0116,-0.2645,0.0794,231.5312
20:27:20:992,-0.8572,1.1779,12.2842,60.5435,-0.0861,-0.2572,0.0837,231.4688
20:27:20:992,-0.6153,0.8115,12.7606,60.3555,-0.1191,-0.1802,0.0849,232.4062
20:27:21:003,-0.6511,0.7421,12.4899,60.4115,-0.0812,-0.0654,0.1093,232.5
20:27:21:014,-0.5243,0.9362,11.7,60.2731,-0.0721,0.022,0.1802,233.2344
20:27:21:034,0.3281,1.0606,11.2642,60.3772,-0.1729,0.0226,0.2694,233.3125
20:27:21:053,2.0088,1.2209,11.9632,60.42,-0.4251,0.0134,0.3073,233.1406
20:27:21:074,3.3972,1.2162,13.5266,60.5285,-0.7581,0.1594,0.1716,233.125
20:27:21:099,2.8681,0.7875,14.4867,60.5843,-0.9053,0.452,-0.1374,232.8438
20:27:21:116,1.4701,-0.1029,14.1323,60.6636,-0.6457,0.5724,-0.3922,232.9688
20:27:21:135,0.7062,-0.8596,12.8133,60.7619,-0.0495,0.3989,-0.4166,232.9688
20:27:21:153,0.7828,-0.9793,10.448,60.809,0.5864,0.168,-0.2755,233.1562
20:27:21:174,1.1157,-0.6727,8.001,60.6864,0.9352,0.0092,-0.1631,233.1562
20:27:21:201,1.4028,-0.419,6.4857,60.6821,0.8839,-0.0904,-0.168,233.2344
20:27:21:216,1.3932,-0.2946,6.1074,60.4089,0.5608,-0.1277,-0.2712,233.2344
20:27:21:236,1.0606,-0.2632,6.3562,60.2912,0.1362,-0.0464,-0.4093,233.1562
20:27:21:253,0.4741,-0.2154,7.0508,60.3324,-0.2462,0.0867,-0.5088,233.1562
20:27:21:275,-0.0646,-0.1938,7.599,60.3355,-0.4704,0.1662,-0.5443,232.9688
20:27:21:293,-0.3568,-0.1795,8.0943,60.3201,-0.5577,0.1631,-0.5345,232.9688
20:27:21:313,-0.4789,-0.134,8.7529,60.2273,-0.54,0.0544,-0.5027,232.5
20:27:21:336,-0.6081,-0.0694,9.2554,60.3778,-0.4038,-0.1216,-0.4765,232.4531
20:27:21:354,-0.7445,0.0622,9.2219,60.2537,-0.2126,-0.259,-0.4416,231.875
20:27:21:378,-0.8501,0.28,8.8152,60.307,-0.1093,-0.1936,-0.3439,231.8281
20:27:21:399,-0.7995,0.4813,8.4679,60.2418,-0.2223,-0.077,-0.2963,232.0938
20:27:21:415,-0.6703,0.9147,9.0879,60.1864,-0.3464,0.0116,-0.2511,232.125
20:27:21:434,-0.5865,1.0008,9.8231,60.1688,-0.3787,0.0318,-0.2034,232.7812
20:27:21:454,-0.5435,1.1204,10.273,60.0578,-0.2981,0.0159,-0.1423,232.8438
20:27:21:473,-0.5339,1.276,10.6657,59.843,-0.1698,-0.0006,-0.0702,233.3281
20:27:21:493,-0.352,1.4964,10.7471,59.9194,-0.0312,0.0287,0.0171,233.375
20:27:21:515,-0.1555,1.7931,10.5078,59.8749,0.0678,0.0977,0.0971,234.125
20:27:21:533,0.2393,1.9825,10.4671,59.8158,0.0721,0.1527,0.1503,234.2031
20:27:21:554,0.778,2.0279,10.9026,59.7895,0.0183,0.1539,0.1484,235.1562
20:27:21:573,0.9314,2.083,11.4174,59.8404,-0.0134,0.1216,0.069,235.25
20:27:21:594,0.5435,2.1021,11.5564,59.9471,0.0067,0.0916,-0.0696,236.2656
20:27:21:617,-0.1125,1.7955,11.336,60.0523,0.0568,0.0195,-0.2187,237.2812
20:27:21:635,-0.9577,1.5203,11.1685,60.1336,0.088,-0.0861,-0.317,237.2812
20:27:21:653,-1.7166,1.386,10.9675,60.1396,0.0672,-0.1442,-0.3305,238.1406
20:27:21:675,-2.2457,1.2209,10.9866,60.0843,-0.0403,-0.135,-0.2834,238.1406
20:27:21:699,-2.2959,0.7971,11.4317,60.0928,-0.1765,-0.1448,-0.1979,238.7031
20:27:21:714,-1.9128,-0.1316,11.8627,59.7492,-0.226,-0.3048,-0.1142,238.7031
20:27:21:735,-2.0255,-0.9266,13.4261,59.6731,-0.1851,-0.5632,-0.0489,239.0156
20:27:21:753,-2.3916,-1.2281,14.3288,59.4249,0.0104,-0.4734,0.1179,239.0156
20:27:21:775,-2.4802,-1.2138,12.3727,59.3145,0.3647,0.0171,0.4087,239.0625
20:27:21:799,-2.2265,-0.6296,9.4639,59.3728,0.6298,0.3971,0.6994,239.0625
20:27:21:816,-1.6304,-0.1364,7.7545,59.3513,0.5907,0.4661,0.876,238.7969
20:27:21:836,-0.5387,0.3209,7.4815,59.551,0.3409,0.3396,0.9254,238.7656
20:27:21:854,0.4597,0.7636,8.432,59.7324,0.0757,0.1008,0.7801,238.5156
20:27:21:875,0.6033,0.5483,9.6362,60.1994,-0.0751,-0.0947,0.4508,238.5
20:27:21:899,-0.1938,-0.2656,10.2467,60.1839,-0.0641,-0.1564,0.1148,238.7656
20:27:21:916,-1.5778,-1.5323,9.0162,60.342,0.2596,-0.1319,-0.0208,238.7969
20:27:21:935,-1.6137,-1.343,8.1975,60.4061,0.3317,-0.0709,0.1442,239.4844
20:27:21:953,-1.3789,-0.7253,7.6612,60.3998,0.3042,0.0281,0.3207,239.5625
20:27:21:973,-1.0965,-0.0215,7.3331,60.6207,0.223,0.1515,0.4251,240.0469
20:27:21:993,-0.8788,0.3784,6.926,60.5094,0.1442,0.2492,0.452,240.1094
20:27:22:017,-0.7588,0.62,6.6269,60.4691,0.0647,0.2547,0.4331,240.3281
20:27:22:034,-0.5674,0.8812,6.8997,60.3531,-0.0501,0.1613,0.4038,240.3594
20:27:22:053,-0.3999,1.1611,7.7569,60.6458,-0.168,0.0489,0.3586,239.9219
20:27:22:073,-0.4621,1.3741,8.7529,60.5827,-0.2187,-0.0171,0.2902,239.875
20:27:22:099,-0.6511,1.4629,9.1621,60.5945,-0.2046,0.0104,0.2205,238.1406
20:27:22:115,-0.7804,1.5371,9.0975,60.4975,-0.2144,0.0831,0.1771,236.2344
20:27:22:136,-0.9697,1.3549,8.9994,60.0732,-0.3085,0.0739,0.149,236.2344
20:27:22:153,-1.0175,0.9745,10.06,60.1084,-0.4813,-0.0965,0.1472,235.625
20:27:22:174,-0.5937,0.7062,12.0832,60.0251,-0.595,-0.3366,0.1808,235.625
20:27:22:199,-0.2177,0.3257,13.5171,59.828,-0.5467,-0.4752,0.2004,235.75
20:27:22:214,0.1675,-0.0622,14.027,59.6072,-0.4178,-0.4997,0.2236,235.75
20:27:22:235,0.6966,-0.146,14.5107,59.5223,-0.3427,-0.4801,0.2694,235.3125
20:27:22:253,1.3525,-0.0502,15.3293,59.308,-0.3189,-0.4227,0.2981,235.3125
20:27:22:274,1.7213,-0.0167,15.2623,59.3669,-0.234,-0.2627,0.2584,234.3125
20:27:22:299,1.6089,-0.3999,14.4365,59.438,-0.0647,-0.1466,0.1466,234.3125
20:27:22:315,1.3071,-0.9864,13.7854,59.1786,0.1466,-0.1515,0.0464,233.3281
20:27:22:336,0.9099,-1.3645,12.8444,59.2333,0.3983,-0.1319,0.0287,233.3281
20:27:22:353,0.7038,-1.3597,11.3671,59.3142,0.6573,-0.022,0.1075,232.6406
20:27:22:375,0.9793,-1.008,9.3467,59.2983,0.8643,0.1057,0.2303,232.5781
20:27:22:400,1.4821,-0.5889,7.448,59.467,0.9077,0.1631,0.2853,232.125
20:27:22:415,2.0255,-0.2297,6.5121,59.5878,0.4044,0.0782,0.0757,232.0781
20:27:22:436,2.3294,0.5243,7.0002,59.734,0.1002,0.0647,-0.1826,231.7344
20:27:22:453,1.4916,0.2922,7.3092,60.0022,-0.0959,0.0556,-0.4856,231.6875
20:27:22:473,0.5339,-0.1507,7.5628,60.169,-0.1735,0.0006,-0.6896,231.3438
20:27:22:493,-0.0909,-0.3233,7.6899,60.1282,-0.1668,-0.0715,-0.7281,231.3125
20:27:22:517,-0.2632,-0.0837,7.7474,60.2549,-0.1264,-0.1246,-0.6506,230.9062
20:27:22:533,0.1196,0.4765,7.5437,60.3369,-0.1008,-0.1289,-0.54,230.8594
20:27:22:553,0.3927,1.0271,7.4145,60.3422,-0.135,-0.0965,-0.5082,230.3594
20:27:22:573,0.3855,1.3167,7.5413,60.2818,-0.2272,-0.0421,-0.5571,230.3125
20:27:22:594,0.0239,1.3286,7.7928,60.2015,-0.3311,-0.0073,-0.6212,230.1562
20:27:22:615,-0.5483,1.1037,8.6665,59.9654,-0.419,-0.0745,-0.6359,230.0469
20:27:22:636,-0.778,0.9218,10.1246,60.0634,-0.4209,-0.226,-0.54,230.0469
20:27:22:653,-0.4501,0.7588,11.1302,59.9615,-0.281,-0.3482,-0.3714,229.5312
20:27:22:674,-0.0024,0.8931,11.4628,59.9025,-0.1142,-0.3341,-0.201,229.5312
20:27:22:698,0.1675,1.1468,11.8053,59.6806,-0.0305,-0.2022,-0.0776,229.2031
20:27:22:714,0.055,1.3382,12.0111,59.6757,0.0379,-0.0006,0.0244,229.2031
