Time,Acc_X,Acc_Y,Acc_Z,Meg,Gyr_X,Gyr_Y,Gyr_Z,Ore
10:22:38:049,-0.6918,2.6647,9.2821,31.71,0.0165,-0.0116,-0.0153,134.0625
10:22:38:070,-0.711,2.6073,9.428,31.6331,-0.0195,-0.0147,-0.0153,134.0625
10:22:38:088,-0.7062,2.6384,9.6697,31.4622,-0.0605,0.0024,0.0012,134.0625
10:22:38:106,-0.5937,2.6719,9.7774,31.3319,-0.0629,0.0177,0.0153,134.0625
10:22:38:126,-0.4549,2.758,9.8157,31.2865,-0.0257,0.0128,0.0165,134.0625
10:22:38:147,-0.4454,2.7939,9.6601,31.2877,0.0153,0.0147,-0.0006,134.0625
10:22:38:165,-0.5124,2.8035,9.4137,31.1116,0.0275,0.022,-0.0232,134.0625
10:22:38:185,-0.4454,2.8442,9.306,30.8928,0.0128,0.0098,-0.0281,134.0625
10:22:38:204,-0.285,2.9327,9.3826,30.9534,-0.0049,-0.011,-0.0324,134.0625
10:22:38:222,-0.2345,3.0595,9.5118,30.975,-0.011,-0.0153,-0.0495,134.0625
10:22:38:241,-0.2369,3.0811,9.6194,31.1646,0.0086,-0.0189,-0.0776,134.0625
10:22:38:260,-0.2704,3.0332,9.5764,31.4508,0.0605,-0.025,-0.1093,134.0625
10:22:38:283,-0.3664,3.0236,9.3826,31.4062,0.1161,-0.0324,-0.1393,134.0625
10:22:38:301,-0.5171,3.0093,9.1813,31.4659,0.1442,-0.0476,-0.1515,134.0625
10:22:38:319,-0.5698,3.0811,9.0162,31.4968,0.1264,-0.055,-0.1368,134.0625
10:22:38:339,-0.5698,3.28,9.0951,31.9107,0.0562,-0.0599,-0.1191,134.0625
10:22:38:358,-0.6009,3.4379,9.2291,31.7632,-0.0183,-0.0544,-0.1228,135.5
10:22:38:379,-0.6703,3.4594,9.2387,31.7959,-0.0709,-0.033,-0.1478,135.6562
10:22:38:399,-0.7038,3.3876,9.3778,31.7619,-0.1075,-0.0464,-0.1716,135.6562
10:22:38:419,-0.754,3.2752,9.6147,31.474,-0.124,-0.0721,-0.1765,135.6406
10:22:38:439,-0.9051,3.1651,9.6697,31.5393,-0.1075,-0.0647,-0.1637,135.625
10:22:38:458,-1.0295,3.146,9.5501,31.4625,-0.0702,-0.0495,-0.1277,135.6719
10:22:38:480,-1.0343,3.1699,9.2749,31.6639,-0.0238,-0.033,-0.0825,135.6719
10:22:38:499,-0.9817,3.2632,8.9587,31.5736,0.0049,-0.0073,-0.0428,135.7812
10:22:38:519,-0.917,3.3876,8.8199,31.669,0.0018,-0.0031,0.0012,135.7812
10:22:38:540,-0.7708,3.5695,8.729,31.5286,-0.0153,-0.0061,0.0324,135.9844
10:22:38:558,-0.62,3.7205,8.7314,31.4501,-0.022,-0.0232,0.0293,135.9844
10:22:38:580,-0.6775,3.8186,8.7864,31.6723,-0.014,-0.0428,-0.0104,136.3125
10:22:38:599,-0.8931,3.833,8.7123,31.5637,-0.0037,-0.0342,-0.0421,136.3125
10:22:38:620,-0.9864,3.8498,8.6833,31.6813,-0.0012,-0.0379,-0.0269,136.3281
10:22:38:640,-0.8139,3.9335,8.645,31.5581,-0.0024,-0.0709,0.025,136.2969
10:22:38:659,-0.4119,4.0795,8.7051,31.2202,-0.036,-0.1045,0.044,136.6406
10:22:38:680,-0.2776,3.9933,8.9037,31.3581,-0.1246,-0.1417,-0.0244,136.6406
10:22:38:700,-0.4908,3.7349,9.2195,31.3176,-0.2431,-0.1649,-0.1442,137.0781
10:22:38:720,-0.7971,3.3182,9.3778,31.5426,-0.3421,-0.1423,-0.2181,137.0781
10:22:38:739,-1.1204,2.9734,9.5142,31.4589,-0.3958,-0.1118,-0.1863,137.4375
10:22:38:759,-1.3717,2.9447,9.7056,31.6493,-0.3983,-0.0641,-0.0605,137.5938
10:22:38:780,-1.3669,3.0957,9.6649,31.3333,-0.3549,0.0336,0.0977,137.7344
10:22:38:801,-1.1444,3.2871,9.5764,31.3281,-0.2987,0.1142,0.2022,137.8281
10:22:38:823,-1.1228,3.3829,9.7199,31.4815,-0.2511,0.099,0.2132,137.8125
10:22:38:841,-0.9601,3.2824,9.8085,31.4957,-0.1723,0.0177,0.2052,137.8125
10:22:38:859,-0.6751,3.0523,9.9763,31.4792,-0.1332,-0.011,0.2089,137.7969
10:22:38:880,-0.5387,3.0811,10.273,31.1489,-0.0971,-0.0403,0.2126,137.7969
10:22:38:902,-0.3664,3.0045,10.5221,31.2268,-0.0654,-0.0342,0.2083,137.875
10:22:38:920,-0.055,2.904,10.6346,31.1442,-0.0189,-0.0147,0.2089,137.8906
10:22:38:940,0.189,2.9471,10.7351,31.4049,0.0397,-0.022,0.2107,137.8438
10:22:38:959,0.4262,2.9925,10.6585,31.5107,0.1087,-0.0342,0.2052,138.0469
10:22:38:986,0.7253,2.9782,10.3591,31.7305,0.1723,-0.0275,0.1796,138.0469
10:22:39:003,0.9027,2.8825,10.1079,31.6069,0.2059,-0.0476,0.1228,138.5156
10:22:39:020,0.8572,2.7724,9.883,31.7664,0.1894,-0.0641,0.047,138.5156
10:22:39:041,0.8764,2.7724,9.7582,32.257,0.1222,-0.0874,-0.0128,138.4531
10:22:39:059,1.0917,2.8107,9.7846,32.1512,0.0226,-0.1607,-0.047,138.4531
10:22:39:081,1.3143,2.8801,9.9691,32.1136,-0.0819,-0.2706,-0.0757,137.9531
10:22:39:101,1.3238,2.8131,10.285,32.1854,-0.1716,-0.3567,-0.1356,137.9531
10:22:39:121,1.0726,2.5786,10.4145,32.1044,-0.2242,-0.3726,-0.2193,137.5
10:22:39:141,0.7804,2.3174,10.1629,32.0737,-0.2193,-0.2908,-0.2688,137.4688
10:22:39:161,0.8019,2.1691,9.6721,32.1548,-0.149,-0.1454,-0.2541,137
10:22:39:185,0.9242,2.3868,9.2004,31.978,-0.0415,-0.0043,-0.1955,137
10:22:39:202,1.1109,2.6623,8.5708,31.7352,0.066,0.1136,-0.1503,136.5469
10:22:39:221,1.1946,2.8226,8.001,31.9664,0.1356,0.1558,-0.1759,136.5469
10:22:39:242,0.9721,2.8466,7.6851,32.0321,0.1381,0.1063,-0.2712,136.1406
10:22:39:259,0.6942,2.7102,7.8024,32.0667,0.077,-0.0385,-0.3763,136.0938
10:22:39:286,0.4836,2.5618,8.2382,32.1991,-0.0324,-0.1979,-0.4294,135.8125
10:22:39:298,0.4621,2.6121,8.6282,32.0861,-0.1588,-0.281,-0.408,135.7812
10:22:39:321,0.6009,2.7461,8.7721,32.1363,-0.2614,-0.237,-0.3396,135.7812
10:22:39:339,0.8716,3.256,8.7051,32.6436,-0.2963,-0.0519,-0.2627,135.7812
10:22:39:359,0.8644,3.323,8.7362,32.6832,-0.2376,-0.0452,-0.295,135.9531
10:22:39:378,0.8692,3.2824,8.8463,32.5382,-0.1576,-0.0739,-0.3415,135.9688
10:22:39:399,0.8091,3.1819,8.942,32.4989,-0.0843,-0.08,-0.3848,136.4219
10:22:39:419,0.5459,3.1484,9.0784,32.4493,-0.0379,-0.0513,-0.4001,136.4688
10:22:39:439,0.3401,3.2034,9.2243,32.3976,-0.0238,0.0177,-0.3696,137.0469
10:22:39:458,0.2704,3.3111,9.4496,32.3752,-0.0336,0.0312,-0.3109,137.4375
10:22:39:479,0.3209,3.3829,9.9811,32.4255,-0.0483,-0.0226,-0.2449,137.4375
10:22:39:500,0.122,3.414,10.5485,32.1672,-0.0556,0.036,-0.1851,137.9219
10:22:39:519,-0.4262,3.39,10.3424,32.2769,-0.0666,0.3183,-0.1258,137.9219
10:22:39:539,-0.7564,3.4857,10.0696,32.3737,-0.0947,0.5198,-0.0305,138.8438
10:22:39:559,-0.6368,3.6317,10.5748,32.517,-0.1387,0.3329,0.0806,138.8438
10:22:39:580,-0.1388,3.6389,11.7383,32.7019,-0.1839,-0.0165,0.1533,139.7344
10:22:39:599,0.0167,3.4666,12.909,32.8284,-0.1955,-0.19,0.149,139.7344
10:22:39:619,-0.3784,2.9351,13.2299,32.9378,-0.1258,-0.0654,0.1069,139.75
10:22:39:639,-1.2353,2.3797,11.9513,33.0878,0.022,0.3299,0.1081,140.3438
10:22:39:659,-1.6807,2.1858,10.4599,33.305,0.1826,0.6451,0.2175,141.0469
10:22:39:680,-1.1874,2.2074,9.4089,33.4746,0.2798,0.5125,0.35,141.0469
10:22:39:699,-0.2201,2.0423,9.5381,33.5899,0.3115,-0.2083,0.3622,141.9219
10:22:39:720,0.0574,1.5491,11.2762,33.5946,0.3213,-1.1001,0.1625,141.9219
10:22:39:740,-0.5746,0.9266,12.6168,33.6842,0.3604,-1.3696,-0.0953,142.6094
10:22:39:759,-1.4509,0.4286,11.4867,33.7304,0.4655,-0.7031,-0.1393,142.6719
10:22:39:780,-1.7931,0.4597,9.2052,34.0904,0.5663,0.193,0.0745,143.0938
10:22:39:800,-1.2832,1.1444,7.7186,34.1189,0.5705,0.5351,0.3537,143.1406
10:22:39:820,-0.4167,2.1667,7.6564,34.3001,0.4587,0.3256,0.5058,143.2031
10:22:39:875,0.8091,2.3103,8.4607,34.2125,0.0702,-0.0507,0.2529,143.2031
10:22:39:876,0.3377,1.6759,8.1015,34.3187,-0.113,0.0415,0.0385,142.9219
10:22:39:884,-0.3951,1.5084,7.9843,34.4523,-0.2236,0.0794,-0.0293,142.8906
10:22:39:899,-0.7995,1.6926,7.9555,34.1921,-0.2327,0.058,0.0776,142.6562
10:22:39:919,-0.4717,2.1236,8.1254,34.3562,-0.1442,0.0086,0.2651,142.6406
10:22:39:939,0.1268,2.5642,8.5923,34.2224,0.0195,-0.055,0.3781,142.2188
10:22:39:958,0.4884,2.8801,8.9731,34.2552,0.204,-0.0195,0.3598,141.4375
10:22:39:979,0.364,3.0332,8.7242,34.1348,0.3402,0.1723,0.2816,141.4375
10:22:40:000,0.0718,3.1196,8.0369,34.3878,0.3757,0.3677,0.234,141.6406
10:22:40:019,0.0766,3.3159,7.8287,34.6301,0.3024,0.336,0.2364,141.6406
10:22:40:039,0.3497,3.5767,8.3722,34.7724,0.1448,0.1277,0.2449,141.8125
10:22:40:058,0.6344,3.7134,9.1071,35.129,-0.0434,-0.0348,0.2242,141.8125
10:22:40:080,0.7516,3.7134,9.696,35.1401,-0.2144,-0.0654,0.1759,140.75
10:22:40:100,0.7421,3.6727,10.0457,35.3019,-0.3274,-0.0049,0.1417,140.75
10:22:40:120,0.687,3.6488,10.3783,35.3718,-0.3635,0.0257,0.1344,140.75
10:22:40:139,0.7564,3.6488,10.9122,35.4546,-0.3274,-0.0556,0.1155,139.9844
10:22:40:159,0.9697,3.5767,11.4078,35.4975,-0.2553,-0.1509,0.0544,139.9375
10:22:40:180,0.917,3.402,11.4915,35.5296,-0.1912,-0.1442,-0.0281,139.9375
10:22:40:199,1.1707,3.0093,10.8619,35.4569,-0.1765,-0.0629,-0.0788,139.5469
10:22:40:219,1.762,2.4945,10.6777,35.6419,-0.2541,-0.1643,-0.1442,139.5469
10:22:40:239,2.1835,2.0064,11.7981,35.9894,-0.4197,-0.5608,-0.2877,138.75
10:22:40:259,2.1236,1.4868,13.4501,36.2094,-0.5705,-0.8918,-0.4166,138.75
10:22:40:279,1.7429,0.7899,13.5745,36.2335,-0.5803,-0.6958,-0.3922,138.1562
10:22:40:300,1.5514,0.6368,11.7861,36.5104,-0.4099,-0.1148,-0.1588,138.0938
10:22:40:320,1.64,1.1827,10.0528,36.8166,-0.1393,0.3659,0.1155,137.5625
10:22:40:341,2.7676,2.4395,8.6737,37.1856,0.3732,0.5027,0.1778,137.5
10:22:40:360,3.1651,2.6384,8.1808,37.5339,0.4282,0.474,-0.1026,137.1094
10:22:40:380,2.5232,2.557,7.7761,37.3325,0.2657,0.3628,-0.4997,137.0625
10:22:40:400,1.1324,2.2648,7.7091,37.3872,-0.0208,0.1289,-0.7953,136.7812
10:22:40:418,0.0981,1.8721,7.6923,37.621,-0.3121,-0.0202,-0.8564,136.75
10:22:40:439,-0.1029,1.4821,7.9101,38.0908,-0.5247,-0.1118,-0.7501,136.5938
10:22:40:458,0.0981,1.5012,8.4846,38.2023,-0.6194,-0.1405,-0.5962,136.7031
10:22:40:479,0.2106,1.8529,8.8439,38.1863,-0.5944,0.0153,-0.4752,136.7031
10:22:40:500,0.2704,2.1165,8.7075,38.0888,-0.4545,0.2223,-0.4142,137.2812
10:22:40:519,0.4478,2.2839,8.5516,38.3247,-0.2352,0.2871,-0.4105,137.2812
10:22:40:539,0.6081,2.3414,8.6904,38.8157,0.0006,0.2419,-0.4496,138.3906
10:22:40:558,0.6607,2.3844,8.9324,39.1181,0.2034,0.2138,-0.4752,138.3906
10:22:40:580,0.498,2.5184,9.2605,39.4668,0.347,0.2095,-0.4545,138.4062
10:22:40:600,0.3185,2.715,9.6147,39.5588,0.4233,0.2016,-0.394,138.4219
10:22:40:619,0.2512,2.8825,10.0241,39.7385,0.4306,0.2077,-0.3274,138.4219
10:22:40:639,-0.0718,3.0093,10.4791,40.0737,0.3714,0.2083,-0.284,137.8281
10:22:40:659,-0.3544,3.1244,10.9531,40.3864,0.2773,0.19,-0.2401,138.375
10:22:40:679,-0.3855,3.0619,11.2666,40.5876,0.1808,0.1833,-0.1759,138.375
10:22:40:700,-0.3042,2.9351,11.482,40.7243,0.1185,0.1802,-0.1045,140.1562
10:22:40:720,-0.6081,2.8753,11.7072,40.7011,0.1155,0.204,-0.0525,140.1562
10:22:40:740,-1.5706,2.8801,11.4628,40.6477,0.1698,0.3396,0.0006,141.6562
10:22:40:759,-2.3294,2.9518,10.3834,40.9737,0.2529,0.5736,0.1289,141.6562
10:22:40:780,-2.15,3.1196,9.4304,41.1413,0.306,0.6243,0.3054,142.5
10:22:40:800,-1.0152,3.0308,9.2725,41.1603,0.2761,0.2828,0.3806,142.5781
10:22:40:821,-0.3042,2.4634,10.2945,41.2057,0.1533,-0.2932,0.2523,143.375
10:22:40:842,-2.3916,0.6966,10.8858,41.2704,0.0086,-0.6347,0.0421,143.4531
10:22:40:860,-2.9399,0.0885,9.3586,41.1564,0.0079,0.0232,0.2285,144.375
10:22:40:881,-2.648,0.5291,8.2908,41.3563,0.1197,0.2199,0.5913,144.4531
10:22:40:902,-1.6352,1.5323,8.3435,41.463,0.2474,0.1136,0.8686,145.1719
10:22:40:919,-0.1484,2.394,9.0114,41.7064,0.3488,-0.1032,0.8973,145.25
10:22:40:939,0.6344,2.7078,9.4591,42.0668,0.3744,-0.1942,0.6512,145.75
10:22:40:959,0.3473,2.26,9.1765,42.2903,0.303,-0.1106,0.2761,146.0625
10:22:40:979,-0.4454,1.5443,8.7123,42.6147,0.1643,-0.0409,0.0092,146.0625
10:22:41:002,-1.0271,1.0223,8.4344,42.864,0.0104,-0.0275,-0.0018,146.0781
10:22:41:020,-0.984,1.1085,8.3076,43.3829,-0.1161,0.0128,0.2077,146.0781
10:22:41:039,-0.3616,1.6663,8.1473,43.4798,-0.1765,0.1674,0.4759,146.0781
10:22:41:058,0.1101,2.3007,7.8215,43.6977,-0.1833,0.3726,0.6145,145.4844
10:22:41:080,0.2082,2.971,7.558,43.7214,-0.1576,0.5009,0.6163,145.4844
10:22:41:103,0.146,3.5958,7.5437,43.3955,-0.1075,0.5009,0.5669,144.8125
10:22:41:121,0.2273,4.0196,7.7378,43.5536,-0.0428,0.3793,0.5003,144.8125
10:22:41:141,0.3066,4.2449,8.152,43.5974,0.0049,0.2236,0.4123,144.9219
10:22:41:158,0.1268,4.3454,8.8558,43.6339,0.0263,0.0458,0.3042,144
10:22:41:179,-0.0861,4.1824,9.6075,43.7387,0.0421,-0.1411,0.2071,144
10:22:41:205,-0.1196,4.0053,10.2706,44.0446,0.0641,-0.2144,0.1478,142.0938
10:22:41:220,-0.0479,3.8163,10.4671,44.185,0.0721,-0.1124,0.1063,142.0938
10:22:41:240,0.0215,3.5958,10.4886,44.1428,0.0495,-0.055,0.055,141.1562
10:22:41:259,0.1125,3.2752,10.8906,44.6034,0.0018,-0.2016,-0.0128,141.1562
10:22:41:280,0.1125,3.0547,11.6402,44.7816,-0.0507,-0.3641,-0.0525,141.1562
10:22:41:303,0.6129,2.7987,11.7311,45.038,-0.1045,-0.273,-0.0409,141.1562
10:22:41:320,1.4725,2.3055,11.5971,45.2427,-0.2028,-0.1716,-0.091,140.4375
10:22:41:342,1.762,1.6041,12.2411,45.3962,-0.5485,-0.7611,-0.4398,140.3594
10:22:41:361,1.5778,0.2584,13.6367,45.5528,-0.5742,-0.7232,-0.3525,138.9844
10:22:41:386,2.1954,0.2297,12.3823,45.8419,-0.427,-0.3488,-0.0373,138.8594
10:22:41:403,2.7485,0.9864,11.3695,46.2116,-0.2138,0.0299,0.2517,137.6406
10:22:41:422,3.0981,2.0351,10.424,46.4203,-0.0336,0.358,0.336,137.5156
10:22:41:439,3.2154,2.5786,9.3227,46.7058,0.0941,0.5675,0.1991,136.7656
10:22:41:459,2.9016,2.4826,8.0704,46.9637,0.149,0.6512,-0.0916,136.3906
10:22:41:479,1.9872,2.0255,6.8375,47.1705,0.1063,0.6945,-0.4441,136.3906
10:22:41:503,0.6488,1.6376,5.8128,47.5574,0.0061,0.6805,-0.6976,136.2188
10:22:41:521,-0.309,1.4892,5.1903,47.6934,-0.0886,0.584,-0.7294,136.2188
10:22:41:539,-0.6655,1.5826,5.0515,48.0151,-0.157,0.3909,-0.598,136.2031
10:22:41:559,-0.5483,1.9657,5.5519,48.2655,-0.2138,0.1118,-0.4416,136.3594
10:22:41:580,-0.3042,2.3844,6.5408,48.636,-0.2547,-0.1484,-0.3537,136.375
10:22:41:602,0.3401,2.5642,7.3977,48.6415,-0.2651,-0.2468,-0.35,136.5625
10:22:41:622,0.6727,2.5184,7.9555,48.6798,-0.2608,-0.1991,-0.4435,136.5781
10:22:41:640,0.498,2.406,8.4009,48.9729,-0.2639,-0.1435,-0.5705,137.5
10:22:41:659,0.0622,2.2983,8.9922,49.1618,-0.2804,-0.1949,-0.6292,138.0625
10:22:41:679,0.0574,2.2648,9.8351,49.5322,-0.2914,-0.3628,-0.5644,138.0625
10:22:41:701,0.486,2.4658,11.001,49.4814,-0.2785,-0.4923,-0.4172,137.375
10:22:41:721,0.7875,2.8657,11.9943,49.6665,-0.248,-0.3732,-0.2792,137.375
10:22:41:740,0.6129,3.3063,12.5641,49.8293,-0.1881,-0.1332,-0.193,137.0781
10:22:41:759,0.2827,3.5504,12.4732,50.3755,-0.102,0.102,-0.1423,137.0781
10:22:41:780,0.2058,3.6559,12.545,50.9129,-0.0006,0.1112,-0.0977,138.1406
10:22:41:805,0.1938,3.7181,12.9592,51.2646,0.1069,-0.0531,-0.058,138.1406
10:22:41:820,0.0191,3.7325,13.3974,51.2671,0.2346,-0.2022,-0.0275,139.3281
10:22:41:840,-0.309,3.6365,13.3759,51.4337,0.3971,-0.1778,-0.0055,139.4375
10:22:41:859,-0.7947,3.3182,12.2387,51.8063,0.5485,0.1515,-0.0104,140.2188
10:22:41:939,-1.2425,2.7915,10.0409,52.2589,0.6267,0.2657,0.0238,140.2969
10:22:41:940,-0.5602,2.3605,10.1127,52.5779,0.5779,-0.1985,0.0507,141.1094
10:22:41:940,-0.4765,1.8793,10.9555,52.696,0.5113,-0.6964,-0.0122,141.1875
10:22:41:940,-0.874,1.3908,11.4006,52.7814,0.4679,-0.8045,-0.0757,142.3906
10:22:41:958,-1.0343,1.1013,10.8404,53.1215,0.4514,-0.4215,-0.0281,143.5469
10:22:41:978,-0.644,1.0917,9.8614,53.5524,0.4258,-0.0269,0.0672,143.5469
10:22:42:001,-0.2177,1.3789,9.4496,53.7663,0.3592,0.0666,0.0941,144.1562
10:22:42:019,0.1603,1.4868,9.2749,53.9762,0.2486,0.0195,0.0299,144.1562
10:22:42:039,0.2369,1.3167,8.942,54.2222,0.1234,0.0263,-0.069,144.2031
10:22:42:059,0.189,1.1946,8.3339,54.5034,0.0183,0.2114,-0.0928,144.4375
10:22:42:080,0.2369,1.2329,7.3451,54.8553,-0.0428,0.5211,-0.0104,144.4375
10:22:42:101,0.285,1.4318,6.457,55.213,-0.0702,0.7746,0.0959,144.5781
10:22:42:119,-0.1005,1.8577,6.1098,55.2911,-0.0996,0.8753,0.1423,144.5938
10:22:42:140,-0.7253,2.3174,6.1576,55.4011,-0.124,0.7385,0.1283,144.6562
10:22:42:158,-0.9242,2.5642,6.6102,55.6435,-0.099,0.3531,0.1374,144.6406
10:22:42:179,-0.5794,2.7389,7.247,56.1502,-0.0464,0.1124,0.1649,144.6406
10:22:42:200,-0.3903,2.8968,7.5078,56.25,-0.0061,0.2077,0.1478,144.7812
10:22:42:220,-0.6823,3.2393,7.6732,56.4027,0.011,0.3518,0.1026,144.7812
10:22:42:240,-1.0654,3.5312,7.8072,56.491,0.0079,0.2926,0.0666,145.125
10:22:42:258,-0.8282,3.5623,8.3363,56.7044,0.0086,-0.047,0.0409,145.125
10:22:42:279,-0.2106,3.5719,9.4184,56.9266,0.0159,-0.427,-0.0122,144.9844
10:22:42:301,0.2034,3.7445,10.436,57.2972,0.0257,-0.5834,-0.0403,144.9844
10:22:42:319,1.1396,4.0101,11.2331,57.7362,0.0446,-0.4954,0.0513,145.0156
10:22:42:340,2.217,4.4698,11.7096,57.8178,0.0568,-0.2871,0.1704,145.0312
10:22:42:359,2.4251,4.8625,11.3169,58.0558,0.0379,-0.0043,0.1393,145.0156
10:22:42:379,1.8314,4.908,10.5844,58.1776,-0.0049,0.1124,-0.0794,145.0156
10:22:42:401,1.7261,3.6583,10.5006,58.3731,-0.0538,-0.1381,-0.3854,144.5312
10:22:42:420,1.4844,2.7891,11.3719,58.708,-0.2792,-0.8839,-1.1557,144.4688
10:22:42:438,0.8453,1.4844,13.086,59.1086,-0.4862,-1.5168,-1.5913,144.0312
10:22:42:458,-0.0622,-0.3305,14.1873,59.4283,-0.631,-1.7245,-1.7685,143.625
10:22:42:479,-0.7995,-1.7548,13.759,59.3693,-0.595,-1.2834,-1.4783,143.625
10:22:42:502,-0.766,-2.2935,12.612,59.5149,-0.3995,-0.609,-0.81,143.5938
10:22:42:519,0.0311,-1.6687,11.4915,59.6422,-0.1179,0.0037,0.0018,143.3281
10:22:42:539,1.276,-0.3736,10.4025,59.8284,0.1674,0.518,0.6658,143.2969
10:22:42:558,2.0614,0.8596,9.1741,60.1868,0.3958,0.879,0.9664,143.3281
10:22:42:579,1.9896,1.7764,7.7928,60.0621,0.5406,1.0647,0.9205,143.3438
10:22:42:601,1.3741,2.3151,6.5216,59.982,0.5919,1.0555,0.6573,143.5156
10:22:42:619,0.6535,2.5017,5.461,59.8841,0.5559,0.8735,0.3482,143.5156
10:22:42:640,0.1196,2.581,4.9008,60.082,0.4478,0.6646,0.1448,143.2188
10:22:42:660,0.1388,2.6695,4.8434,60.1252,0.281,0.5559,0.0794,143.7344
10:22:42:679,0.4334,2.8681,5.1592,60.3468,0.0531,0.5815,0.0654,143.7344
10:22:42:701,0.3951,3.3159,5.6094,60.6036,-0.2278,0.697,0.0281,145.9688
10:22:42:720,0.0766,3.7828,6.1481,60.5493,-0.5156,0.6945,-0.0312,145.9688
10:22:42:739,-0.1914,3.9383,6.9356,60.7127,-0.7501,0.449,-0.1075,150.0781
10:22:42:758,-0.3784,3.7277,7.9938,61.0475,-0.8753,0.0904,-0.1955,150.0781
10:22:42:779,-0.2827,3.5001,9.3993,61.1826,-0.868,-0.2358,-0.2504,152.8438
10:22:42:803,-0.28,3.5216,10.9289,61.2736,-0.752,-0.4062,-0.2511,152.8438
10:22:42:820,-0.256,3.5097,12.0206,61.2103,-0.5742,-0.3409,-0.1991,152.1406
10:22:42:840,-0.146,3.414,12.4923,61.15,-0.3683,-0.1075,-0.1057,152.0781
10:22:42:859,0.134,3.5121,12.7176,61.0742,-0.1558,0.1118,0.0403,149.9844
10:22:42:879,0.2752,3.9096,12.6601,61.0605,0.0336,0.2669,0.2059,149.7812
10:22:42:903,-0.0646,4.4195,11.8053,60.9012,0.3158,0.2902,0.3128,148.5625
10:22:42:923,-0.6966,4.319,11.3695,60.7092,0.4087,0.193,0.2175,148.4375
10:22:42:939,-1.2999,4.0819,10.9484,60.8655,0.4398,0.077,0.1057,148.0625
10:22:42:959,-1.6424,3.6437,10.8021,60.7774,0.3671,-0.0128,0.0348,148.0312
10:22:42:979,-1.7453,3.1723,10.8739,60.9203,0.2107,-0.1014,0.0305,147.7344
10:22:42:999,-1.4366,2.6815,11.403,60.9752,0.058,-0.3494,0.0745,147.7031
10:22:43:021,-1.4773,2.2289,12.6625,61.0343,-0.0073,-0.7611,0.1002,147.5781
10:22:43:040,-1.6639,1.4605,13.019,61.1397,0.0812,-0.865,0.16,147.5625
10:22:43:059,-1.5108,0.9027,12.119,61.3998,0.292,-0.5082,0.3384,147.875
10:22:43:080,-1.1109,1.1922,10.8811,61.23,0.4893,-0.0458,0.5754,147.9062
10:22:43:105,-0.2058,1.841,9.993,60.9761,0.5742,0.2071,0.7422,148.3594
10:22:43:123,0.4501,2.4179,9.5931,60.928,0.518,0.1765,0.7367,148.375
10:22:43:141,0.8596,2.4251,9.1478,60.6914,0.3726,0.1497,0.5797,148.3906
10:22:43:159,0.7828,2.0542,8.5469,60.18,0.212,0.2468,0.325,147.7812
10:22:43:180,0.1723,1.5993,7.6588,59.9421,0.08,0.4459,0.0947,147.7812
10:22:43:204,-0.3377,1.3717,6.7681,59.7856,0.0061,0.6029,0.0073,147.2031
10:22:43:222,-0.4286,1.5012,6.6221,59.5422,-0.014,0.584,0.0562,147.2031
10:22:43:240,-0.1507,2.1715,7.6612,59.6046,0.0098,0.452,0.1619,147.1094
10:22:43:259,0.1436,2.9638,8.5493,59.6286,0.0666,0.5889,0.2419,147.1094
10:22:43:280,0.28,3.4092,8.1254,59.5614,0.1234,1.0983,0.2242,147.0781
10:22:43:305,-0.3066,3.6126,6.9141,59.6494,0.1148,1.5052,0.0574,147.0781
10:22:43:320,-1.3741,3.6535,6.3179,59.6489,0.0305,1.3995,-0.1503,147.0156
10:22:43:340,-1.8793,3.4379,6.5862,59.37,-0.0544,0.9981,-0.2486,147.0312
10:22:43:359,-2.1476,3.1627,7.1393,59.2503,-0.1069,0.5992,-0.27,146.2344
10:22:43:381,-2.4514,3.0667,8.1664,59.2691,-0.1625,0.2034,-0.2596,146.1562
10:22:43:399,-2.5259,2.9877,9.2028,59.0336,-0.2028,-0.1075,-0.1839,144.6875
10:22:43:423,-1.1133,2.3749,11.1996,58.7492,-0.1625,-0.5675,0.0464,144.5469
10:22:43:441,-0.4023,2.1356,12.0518,58.4282,-0.0764,-0.6823,0.1582,143.6094
10:22:43:459,0,2.0949,12.4588,58.0568,0.0104,-0.6548,0.3054,143.5156
10:22:43:479,0.4047,2.2146,12.4588,58.1048,0.0971,-0.4997,0.507,143.2656
10:22:43:499,1.0845,2.3725,11.7263,58.0123,0.2077,-0.1912,0.7391,143.2344
10:22:43:522,1.6304,2.715,10.625,57.7278,0.3195,0.0702,0.8778,142.8594
10:22:43:540,1.9128,3.1699,9.5596,57.3123,0.3702,0.0318,0.8149,142.8281
10:22:43:559,1.9199,3.3541,9.4113,56.9824,0.2957,-0.3121,0.5388,142.1094
10:22:43:579,1.8123,2.8705,10.0122,56.7435,0.1381,-0.6371,0.19,142.0469
10:22:43:599,1.7213,2.3294,10.1725,56.6724,-0.0293,-0.6102,-0.0489,141.6719
10:22:43:621,1.6472,2.2002,10.2802,56.6494,-0.2333,-0.474,-0.1741,141.6562
10:22:43:641,1.4605,2.3079,11.0441,56.4678,-0.4203,-0.5217,-0.2694,141.9375
10:22:43:659,1.3047,2.2959,11.8819,56.4149,-0.4416,-0.6267,-0.3622,142.3438
10:22:43:681,1.0582,1.9825,11.4365,56.1005,-0.2669,-0.4911,-0.4532,142.3438
10:22:43:699,0.2994,1.8242,9.6386,55.9698,-0.0684,-0.0593,-0.5284,142.4688
10:22:43:721,-0.4525,1.9152,7.6253,55.9233,-0.0171,0.3903,-0.5296,142.4688
10:22:43:740,-0.778,2.1117,6.1911,55.7462,-0.1045,0.5962,-0.4587,142.1562
10:22:43:759,-0.6918,2.3581,5.6764,55.5026,-0.2309,0.5308,-0.3934,142.1562
10:22:43:780,-0.4765,2.5642,5.8176,55.5675,-0.3299,0.3384,-0.383,140.9375
10:22:43:799,-0.4167,2.7054,6.2725,55.407,-0.4038,0.1796,-0.4197,140.9375
10:22:43:821,-0.5554,2.8083,6.9021,55.2173,-0.4587,0.1142,-0.4551,139.1406
10:22:43:841,-0.577,2.959,7.6397,55.222,-0.4697,0.0977,-0.4581,139.1406
10:22:43:859,-0.6655,3.122,8.135,55.3796,-0.4447,0.1289,-0.4453,138.6094
10:22:43:880,-0.9362,3.2608,8.5828,55.3481,-0.4251,0.1521,-0.4178,138.5469
10:22:43:905,-0.9649,3.3087,9.4113,55.4541,-0.4117,0.0611,-0.361,138.9219
10:22:43:921,-0.6009,3.1819,10.7207,55.5099,-0.3537,-0.1057,-0.2773,138.9531
10:22:44:005,-0.3999,3.0284,12.3727,55.2097,-0.2162,-0.1894,-0.1808,139.7031
10:22:44:006,-0.3018,3.189,12.1238,55.257,0.2016,0.0183,0.1081,139.7656
10:22:44:006,0.2704,3.5551,11.846,55.1992,0.3164,0.0696,0.2785,140.8125
10:22:44:006,0.754,4.0866,11.9895,55.0088,0.3415,0.0544,0.3537,140.9062
10:22:44:021,0.644,4.319,11.8986,54.8695,0.3518,0.0483,0.2932,141.75
10:22:44:039,-0.0502,4.0651,11.4054,54.8504,0.3628,0.0446,0.1607,141.8281
10:22:44:058,-0.6679,3.5456,10.5006,54.6905,0.3213,0.055,0.0702,142.4375
10:22:44:079,-0.9649,3.146,9.9739,54.619,0.1423,-0.0012,0.0538,142.5
10:22:44:100,-0.917,2.7078,10.7064,54.5766,-0.1344,-0.2749,0.0764,143.25
10:22:44:121,-1.0319,2.2409,12.6362,54.5166,-0.292,-0.6524,0.0898,143.3281
10:22:44:140,-1.5634,1.6567,13.6152,54.6066,-0.1521,-0.6921,0.1155,144.1875
10:22:44:158,-2.1691,0.7684,11.7024,54.7684,0.2315,-0.2859,0.2645,144.9219
10:22:44:180,-2.1141,0.6009,9.1813,54.8735,0.5553,0.1216,0.5815,144.9219
10:22:44:198,-1.4844,1.3669,7.934,54.9172,0.6426,0.1326,0.887,145.3906
10:22:44:223,-0.3377,2.5834,8.5373,54.9429,0.529,-0.1649,1.0226,145.3906
10:22:44:241,0.8859,3.1436,9.3634,54.8136,0.3207,-0.2737,0.9169,145.375
10:22:44:259,0.9697,2.7652,9.2507,54.9009,0.1319,-0.0562,0.5718,145.375
10:22:44:281,0.1268,2.1787,8.4942,54.9166,0.0043,0.2566,0.2333,144.7344
10:22:44:299,-0.4382,1.8099,7.7713,54.9299,-0.0825,0.4881,0.1081,144.7344
10:22:44:322,-0.8186,1.7788,7.3307,55.1223,-0.1258,0.5467,0.1466,144.3125
10:22:44:341,-0.8378,1.9223,7.4862,55.1397,-0.0831,0.3787,0.237,144.3125
10:22:44:359,-0.4023,2.1452,8.0704,55.1978,0.0617,0.1271,0.3183,144.2188
10:22:44:380,-0.0502,2.3773,7.9388,55.2473,0.234,0.1264,0.3531,144.2188
10:22:44:405,0.0909,2.5881,7.1608,55.5661,0.3097,0.3262,0.3402,144.125
10:22:44:422,0.4095,3.5073,6.4376,55.6521,0.0831,0.5241,0.2602,144.1094
10:22:44:442,0.2728,3.8976,6.9021,55.6501,-0.1258,0.4386,0.1344,143.8594
10:22:44:461,0.1292,3.8354,8.0249,55.7891,-0.2737,0.1863,-0.0281,143.8281
10:22:44:480,0.0574,3.6078,9.3132,55.7386,-0.2889,-0.1093,-0.1649,142.4375
10:22:44:499,0.0167,3.3517,10.127,55.682,-0.2077,-0.3299,-0.2425,142.2969
10:22:44:522,0.0072,3.1101,10.6035,55.4701,-0.1643,-0.4624,-0.2785,140.5
10:22:44:540,0.3855,2.7413,11.391,55.575,-0.2175,-0.5821,-0.2743,140.3125
10:22:44:560,0.8931,2.4347,12.332,55.6727,-0.3347,-0.5705,-0.2462,139.4688
10:22:44:579,1.1563,2.0925,12.8827,55.7674,-0.4569,-0.3476,-0.2132,139.3906
10:22:44:600,1.4103,1.963,12.3918,56.0244,-0.5168,0.0134,-0.1332,138.9688
10:22:44:623,1.9104,2.406,11.8364,56.0871,-0.5046,0.1765,-0.0183,138.9219
10:22:44:641,2.4969,2.9423,12.1382,56.2207,-0.449,-0.0354,-0.0336,138.2188
10:22:44:659,2.4993,2.7556,12.8396,56.4003,-0.35,-0.3916,-0.2627,137.4375
10:22:44:680,2.0231,1.896,13.3041,56.7415,-0.2034,-0.5876,-0.5632,137.4375
10:22:44:699,1.5251,0.6679,12.7822,57.0564,-0.0519,-0.4673,-0.7214,136.6562
10:22:44:722,1.1898,0.1962,11.9369,57.2178,0.0538,-0.1515,-0.6273,136.6562
10:22:44:740,1.3669,0.6727,11.1254,57.3851,0.1515,0.1497,-0.3537,136.3906
10:22:44:759,2.1452,1.3717,10.0696,57.5318,0.2767,0.3073,-0.1295,136.3906
10:22:44:780,2.6145,2.1141,8.7864,58.0034,0.3537,0.3683,-0.1197,136.8438
10:22:44:800,2.4012,2.6025,7.5823,58.0019,0.3048,0.3616,-0.303,136.8438
10:22:44:825,1.9487,2.6695,6.9811,58.1356,0.1533,0.2706,-0.5455,137.5781
10:22:44:841,1.427,2.4658,6.9356,58.4394,-0.0037,0.1564,-0.7452,137.5781
10:22:44:859,1.0367,2.193,7.1656,58.4675,-0.091,0.0678,-0.8637,138.1094
10:22:44:882,0.7828,2.1117,7.1656,58.6579,-0.0745,0.0263,-0.8961,138.1562
10:22:44:899,0.5578,2.272,6.9954,58.6673,-0.0147,-0.0275,-0.879,138.2031
10:22:44:922,0.5219,2.6049,7.3355,58.7982,0.0299,-0.1857,-0.843,138.2031
10:22:44:942,0.4836,2.9782,8.2167,58.7047,0.0855,-0.4233,-0.8185,138.4844
10:22:44:960,0.4047,3.1699,8.918,58.9474,0.1967,-0.5687,-0.8228,138.5156
10:22:44:982,0.3066,3.1172,8.8965,59.0609,0.3274,-0.5302,-0.8259,139.8906
10:22:44:999,-0.1962,3.5216,8.5038,59.1119,0.3677,0.0159,-0.73,140.0312
10:22:45:020,-0.6176,4.089,8.5014,59.1182,0.1808,0.2511,-0.6579,141.0312
10:22:45:039,-0.553,4.5416,9.4591,59.2235,-0.033,0.2083,-0.5931,141.125
10:22:45:059,-0.256,4.6804,10.9866,59.3388,-0.1399,0.0067,-0.5711,141.3594
10:22:45:080,-0.0383,4.7139,12.6024,59.496,-0.1289,-0.1631,-0.6029,141.375
10:22:45:099,-0.1555,4.6851,13.4548,59.4795,-0.0434,-0.1393,-0.6481,142.1875
10:22:45:124,-0.5554,4.5272,13.5841,59.5781,0.0764,0.022,-0.6615,142.2656
10:22:45:140,-0.9912,4.319,12.8683,59.8559,0.2211,0.1888,-0.6237,143.9844
10:22:45:159,-1.1946,4.1034,11.4078,59.8154,0.3604,0.3775,-0.4881,145.9375
10:22:45:180,-1.0128,4.1058,10.5532,59.9796,0.4233,0.2822,-0.3329,145.9375
10:22:45:199,-0.1388,3.9503,10.7782,59.9556,0.3769,-0.1362,-0.3299,147.8594
10:22:45:224,0.4908,3.3757,11.9369,60.1215,0.2211,-0.6823,-0.562,147.8594
10:22:45:241,0.0096,2.0853,12.4229,60.2871,0.0538,-0.9205,-0.8918,149.8594
10:22:45:259,-1.6615,0.8091,11.1852,60.5764,-0.0263,-0.5882,-1.0287,149.8594
10:22:45:281,-2.8537,0.1866,9.8061,61.1021,-0.0079,-0.1845,-0.7898,151.6562
10:22:45:298,-2.825,0.3185,8.9013,61.0915,0.0904,-0.0006,-0.3097,151.6562
10:22:45:321,-2.0088,0.9123,8.5732,61.3683,0.2175,0.0012,0.146,153
10:22:45:340,-1.0893,1.3502,8.3219,61.7178,0.3176,0.0049,0.3995,153
10:22:45:359,-0.2393,1.4004,7.9173,61.9437,0.3476,0.1246,0.438,154.2812
10:22:45:381,0.2082,1.5969,7.9531,62.1998,0.2749,0.2419,0.328,154.2812
10:22:45:400,0.0359,1.7907,8.0034,62.2222,0.0922,0.2932,0.135,155.6094
10:22:45:421,-0.443,1.8242,7.8742,62.4075,-0.1387,0.223,-0.0177,155.7344
10:22:45:442,-0.62,1.8123,8.231,62.1312,-0.3183,-0.0165,-0.0464,156.8594
10:22:45:461,-0.5028,1.9319,8.5086,62.1621,-0.3616,0.2963,0.1112,156.9688
10:22:45:483,-0.3664,2.5546,6.7777,62.2272,-0.2993,0.8631,0.1613,157.7031
10:22:45:500,-0.6176,2.971,6.172,62.2348,-0.2553,1.08,0.1234,157.7812
10:22:45:521,-1.1157,3.4164,6.7131,62.186,-0.2217,0.7837,0.0495,159.4531
10:22:45:541,-1.0487,3.5743,7.8838,62.3206,-0.1698,0.303,0.0232,159.625
10:22:45:559,-0.7947,3.5145,9.0927,62.3554,-0.0928,-0.0531,0.0403,161.5312
10:22:45:579,-0.6559,3.3781,9.7104,62.2128,-0.0049,-0.0519,0.0715,161.7188
10:22:45:600,-0.4669,3.3206,9.7271,62.2376,0.055,0.2089,0.0812,161.9219
10:22:45:624,-0.419,3.1364,9.5836,62.3094,0.0495,0.2694,0.055,161.9531
10:22:45:642,-0.3257,2.8992,10.1079,62.2985,-0.0134,-0.058,0.0483,161.1719
10:22:45:659,0.122,2.6886,11.2546,62.2607,-0.0953,-0.4777,0.0935,160.5469
10:22:45:681,0.2225,2.6767,12.1286,62.3047,-0.149,-0.5504,0.1753,160.5469
10:22:45:699,0.1866,2.9207,11.9058,62.1252,-0.1393,-0.1784,0.2932,160.5156
10:22:45:724,0.6009,3.1771,10.7949,62.1222,-0.0953,0.3604,0.383,160.5156
10:22:45:741,1.1085,3.3829,9.9069,62.1422,-0.1075,0.5711,0.2999,160.2656
10:22:45:761,1.276,3.0452,10.1725,62.2252,-0.1918,0.1936,0.0171,160.2656
10:22:45:781,0.9338,2.1954,11.4126,62.2593,-0.314,-0.4227,-0.3115,159.6406
10:22:45:799,0.1149,1.4892,12.1621,62.1879,-0.3958,-0.6389,-0.4386,159.6406
10:22:45:824,-0.3114,1.0989,11.5899,62.1674,-0.3573,-0.3384,-0.2877,159.3594
10:22:45:842,0.1316,1.4414,10.704,62.2009,-0.2217,-0.0073,-0.0324,159.3594
10:22:45:859,0.9577,2.0638,10.3977,62.0407,-0.069,0.0666,0.0782,159.2344
10:22:45:881,1.439,2.4227,10.34,62.1855,0.0257,0.0061,-0.047,159.2344
10:22:45:900,1.2018,2.4993,10.0313,62.1125,0.0354,0.0507,-0.3066,159.0625
10:22:45:920,0.2946,2.4873,9.4711,61.9877,-0.0079,0.1973,-0.5528,159.0312
10:22:45:940,-0.8429,2.2935,8.6163,61.6485,-0.0837,0.3903,-0.6805,158.9375
10:22:45:959,-1.5179,2.1428,7.8239,61.5075,-0.1845,0.4349,-0.6365,158.9375
10:22:45:982,-1.6089,2.1691,7.5293,61.3755,-0.3409,0.2847,-0.2938,158.5156
10:22:45:999,-0.4813,2.5065,7.788,61.0606,-0.3305,0.2712,-0.1912,158.4688
10:22:46:069,0.0144,2.5403,7.8957,61.0154,-0.259,0.2871,-0.1765,157.6562
10:22:46:078,0.0455,2.624,7.9196,60.7385,-0.1478,0.3402,-0.2132,157.5781
10:22:46:078,-0.1268,2.6647,8.0967,60.6844,-0.0098,0.3445,-0.2608,157.8125
10:22:46:079,-0.3018,2.5881,8.1784,60.5367,0.1301,0.3134,-0.295,157.8438
10:22:46:099,-0.4765,2.4706,8.298,60.598,0.2346,0.2676,-0.3091,158.5625
10:22:46:123,-0.687,2.4132,8.6498,60.3961,0.2688,0.226,-0.3066,158.6406
10:22:46:141,-0.996,2.5977,9.4184,60.2494,0.2291,0.182,-0.2712,158.5625
10:22:46:159,-1.4198,3.0523,10.4192,60.3725,0.1588,0.1093,-0.1851,158.9375
10:22:46:181,-1.5993,3.4594,11.0919,60.2452,0.1148,0.0867,-0.0434,158.9375
10:22:46:199,-1.0845,3.5025,11.1446,59.9151,0.1258,0.2016,0.1112,160.2188
10:22:46:223,-0.7349,3.4642,11.0393,59.6718,0.1533,0.317,0.1545,160.2188
10:22:46:242,-0.6583,3.4211,11.1829,59.4224,0.1564,0.2431,0.0641,161.2812
10:22:46:259,-1.2185,3.5025,12.0087,59.3001,0.1142,0.1002,-0.0886,161.2812
10:22:46:281,-2.5065,3.5073,12.0494,59.3783,0.0434,0.2559,-0.1979,161.6719
10:22:46:299,-3.4475,3.3063,10.5748,59.1384,-0.0043,0.689,-0.1368,161.6719
10:22:46:325,-3.1292,3.0356,8.8917,58.795,-0.036,0.9389,0.0428,161.9844
10:22:46:340,-1.9729,2.6982,8.7123,58.7506,-0.1051,0.5663,0.1509,161.9844
10:22:46:359,-1.2305,2.4897,10.2515,58.6578,-0.2199,-0.113,0.1087,162.5625
10:22:46:380,-1.5921,2.1667,10.9531,58.5549,-0.3066,-0.3018,0.0183,162.5625
10:22:46:399,-1.9729,1.8434,10.4097,58.6071,-0.2779,-0.0544,0.0318,163.2344
10:22:46:420,-1.9534,1.6424,9.4328,58.3894,-0.1558,0.1545,0.1222,163.2969
10:22:46:441,-1.4701,1.6304,8.6234,58.0197,-0.0189,0.1454,0.1875,163.7969
10:22:46:459,-0.7564,1.6615,8.6115,57.8102,0.069,-0.044,0.1417,163.8438
10:22:46:483,-0.5961,1.5203,9.6314,57.6235,0.0104,-0.2401,-0.2114,163.7969
10:22:46:501,-1.5203,1.3765,8.7721,57.3355,-0.0605,0.1087,-0.2853,163.7969
10:22:46:522,-2.138,1.4653,7.6851,57.0996,-0.0874,0.4374,-0.2071,163.5938
10:22:46:542,-2.3533,1.7285,6.8877,56.8125,-0.0696,0.5266,-0.0727,163.5781
10:22:46:559,-2.3198,2.1188,6.5886,56.3739,-0.0385,0.4636,0.0324,163.8594
10:22:46:579,-2.126,2.5929,7.0026,56.1522,-0.025,0.273,0.0617,163.875
10:22:46:599,-1.9753,2.8944,7.6612,55.8641,-0.0269,0.0605,0.0385,163.8438
10:22:46:619,-1.896,2.9399,7.9531,55.7175,-0.0299,0.0287,0.0116,163.8281
10:22:46:641,-2.0279,2.9423,7.9196,55.5274,-0.0226,0.0983,-0.0067,163.4688
10:22:46:659,-2.2792,3.0332,8.1278,55.145,0.0079,0.0696,-0.0104,163.2812
10:22:46:681,-2.2744,3.038,8.5828,54.8672,0.0525,-0.0202,0.0043,163.2812
10:22:46:699,-2.0686,2.9806,9.2243,54.8939,0.0977,-0.1423,0.0287,162.875
10:22:46:721,-1.841,2.9686,9.8303,54.6923,0.1405,-0.201,0.0421,162.875
10:22:46:742,-1.5586,3.0428,10.2682,54.3146,0.1759,-0.1387,0.036,162.7969
10:22:46:759,-1.7979,3.1029,10.3232,54.0501,0.1826,-0.0385,0.0006,162.7969
10:22:46:781,-2.0423,3.0739,10.1318,53.6549,0.16,-0.0342,-0.014,163.3438
10:22:46:799,-1.8697,2.9901,10.2108,53.2615,0.1142,-0.171,0.0079,163.3438
10:22:46:820,-1.774,2.971,10.3639,52.9687,0.0318,-0.2902,0.0263,163.5312
10:22:46:841,-1.4318,2.7389,10.2754,52.6638,-0.0904,-0.3616,0.0464,163.5469
10:22:46:860,-0.6488,2.1212,10.4862,52.0569,-0.2657,-0.5492,0.0312,163.375
10:22:46:880,0.2728,1.439,11.4389,51.7087,-0.5076,-0.8931,-0.0727,163.375
10:22:46:899,0.644,0.6464,12.7534,51.3402,-0.7611,-1.174,-0.2248,163.2969
10:22:46:922,-0.055,0.0718,13.5362,51.0441,-0.9132,-1.1148,-0.3109,163.2969
10:22:46:941,-0.6823,0.1268,13.0406,50.7056,-0.8369,-0.6872,-0.1338,163.2969
10:22:46:960,-0.0885,0.7612,12.1549,50.4444,-0.5296,-0.2236,0.2694,163.2969
10:22:46:981,1.2592,1.5897,11.4891,50.2387,0.2755,0.1417,0.4667,163.2969
10:22:47:000,2.0542,2.327,10.8236,49.9142,0.5681,0.3085,0.0629,163.2969
10:22:47:026,1.319,2.2337,8.2167,49.6042,0.7287,0.4001,-0.474,163.3125
10:22:47:041,0.1172,1.6974,6.9284,49.2224,0.7452,0.3958,-0.89,163.3125
10:22:47:059,-0.7851,1.3406,6.0165,49.167,0.6469,0.3018,-1.0171,163.4062
10:22:47:080,-1.1061,1.3884,5.6405,48.9488,0.4557,0.157,-0.9034,163.4219
10:22:47:099,-0.9721,1.8553,6.0691,48.8052,0.212,-0.0513,-0.7086,163.4531
10:22:47:120,-0.6105,2.2552,6.7202,48.469,-0.0452,-0.1283,-0.5864,163.4531
10:22:47:143,-0.5387,2.1906,6.95,48.1074,-0.2883,-0.0409,-0.5742,163.375
10:22:47:159,-0.8596,1.8218,7.0316,48.082,-0.4826,-0.0293,-0.5809,163.5625
10:22:47:181,-1.1922,1.628,7.4862,47.878,-0.5968,-0.1509,-0.4856,163.5625
10:22:47:199,-1.0415,1.8625,8.4775,47.7437,-0.6029,-0.3237,-0.2657,163.8594
10:22:47:221,-0.6703,2.3533,9.6194,47.3838,-0.4985,-0.3378,-0.0287,163.8594
10:22:47:242,-0.2776,2.7652,10.3232,46.9506,-0.3109,-0.1857,0.1069,162.8594
10:22:47:259,0.0598,3.1795,11.001,46.6341,-0.0977,-0.0654,0.1173,162.8594
10:22:47:280,-0.1962,3.7158,11.8651,46.4565,0.0837,0.0049,0.0281,162.4062
10:22:47:299,-0.7828,3.8641,12.5043,46.2855,0.2278,0.0024,-0.1106,162.4062
10:22:47:320,-0.9912,3.4905,12.8228,45.8496,0.3543,-0.171,-0.2413,163.9531
10:22:47:341,-0.9266,2.8633,13.1028,45.574,0.4649,-0.4215,-0.3109,164.1094
10:22:47:359,-1.1348,2.6384,13.5577,45.4489,0.5638,-0.5889,-0.2828,166.4062
10:22:47:381,-1.7883,2.8059,13.6295,45.3878,0.6677,-0.4691,-0.1631,166.4062
10:22:47:399,-2.3294,2.8896,12.6577,45.4347,0.7477,-0.0489,-0.0189,167.875
10:22:47:421,-2.4682,2.7843,11.1063,45.3212,0.7581,0.317,0.1155,167.875
10:22:47:441,-1.8673,2.7532,9.8399,45.3035,0.664,0.3525,0.2437,168.9062
10:22:47:460,-0.6918,3.0763,10.2634,45.3188,0.4887,-0.0684,0.3201,169
10:22:47:481,-0.6511,3.402,11.0895,45.4418,0.3073,-0.4135,0.2749,169.5625
10:22:47:499,-0.9864,3.0021,10.4049,45.6952,0.2217,-0.2443,0.1839,169.625
10:22:47:521,-1.2138,2.4945,9.2363,45.7862,0.2321,0.0092,0.113,169.4375
10:22:47:542,-0.7947,2.2792,7.9771,45.7236,0.2663,0.1075,0.0745,169.4219
10:22:47:559,-0.1962,2.3462,8.1951,45.869,0.1924,-0.0825,-0.0446,169.2656
10:22:47:580,0.1029,2.2265,8.2597,46.0431,0.0373,-0.022,-0.1875,169.25
10:22:47:598,-0.2704,2.0088,7.7904,46.2156,-0.1692,0.2737,-0.3415,169.7031
10:22:47:619,-0.7325,1.7094,7.0149,46.2087,-0.3518,0.573,-0.4398,169.75
10:22:47:643,-1.0798,1.4797,6.4496,46.307,-0.471,0.6744,-0.4649,170.5469
10:22:47:659,-1.4605,1.439,6.3491,46.3013,-0.5259,0.5296,-0.4264,171.0469
10:22:47:679,-1.5921,1.7501,7.1465,46.2732,-0.4985,0.1607,-0.3018,171.0469
10:22:47:699,-1.2066,2.1954,8.1568,46.3691,-0.3763,-0.077,-0.1167,170.9062
10:22:47:721,-0.3879,2.6527,8.5947,46.2528,-0.1869,0.0666,0.0177,170.9062
10:22:47:741,-0.1029,3.0933,8.3507,46.2672,-0.0006,0.3683,-0.0079,170.4375
10:22:47:759,-0.5578,3.4857,7.9316,46.2202,0.1319,0.5516,-0.1558,170.4375
10:22:47:781,-1.118,3.6894,7.7545,46.3787,0.1936,0.4905,-0.3207,170.2188
10:22:47:799,-1.1635,3.6583,8.2741,46.4007,0.1759,0.1668,-0.4667,170.2031
10:22:47:820,-1.1204,3.5767,9.4519,46.1264,0.0861,-0.1826,-0.5925,170.2031
10:22:47:840,-0.8572,3.3852,10.692,46.2372,-0.0373,-0.3207,-0.6848,170.1406
10:22:47:858,-0.6416,3.1149,11.7287,46.235,-0.1594,-0.3164,-0.7746,170.4531
10:22:47:880,-0.7373,2.7556,12.2961,46.1661,-0.2486,-0.2254,-0.8668,170.4531
10:22:47:899,-0.9673,2.4156,12.5809,46.082,-0.2804,-0.1484,-0.9047,171.125
10:22:47:920,-1.1348,2.2241,12.6144,45.883,-0.2462,-0.1252,-0.8619,171.125
10:22:47:939,-1.0343,2.2337,12.4828,45.8357,-0.1643,-0.1619,-0.7593,171.7656
10:22:47:958,-0.6176,2.2002,12.3105,45.8776,-0.0702,-0.2407,-0.6762,171.8281
10:22:47:981,-0.0239,1.8769,12.4134,46.1063,-0.011,-0.3824,-0.711,172.0781
10:22:47:999,0.3042,1.276,12.5856,45.8781,-0.0159,-0.4917,-0.8589,172.1094
10:22:48:022,-0.7397,0.2249,11.7383,45.8155,-0.1118,-0.2358,-0.9444,172.0312
10:22:48:041,-0.9314,0.3473,10.771,46.078,-0.0709,-0.0299,-0.6903,172.0312
10:22:48:059,-0.2393,0.711,9.8085,46.3124,0.0464,0.0745,-0.3824,172.5156
10:22:48:127,0.5985,1.2808,9.2124,46.6396,0.1845,0.0446,-0.2193,172.5625
10:22:48:128,0.7875,1.7189,8.6426,46.4669,0.2816,0.0189,-0.2718,173.6562
10:22:48:128,0.2369,1.8314,7.7785,46.3928,0.306,0.0501,-0.4514,173.7812
10:22:48:145,-0.3903,1.6902,6.9069,46.4185,0.2688,0.0599,-0.6023,175.2344
10:22:48:159,-0.8115,1.6615,6.3299,46.5914,0.1973,0.0617,-0.6359,177.0625
10:22:48:179,-0.8716,1.9199,6.0643,46.644,0.1118,0.077,-0.5736,177.0625
10:22:48:199,-0.7277,2.3653,6.2581,46.5779,0.0367,0.0745,-0.4905,178.9531
10:22:48:219,-0.644,2.8035,6.6437,46.4551,-0.0092,0.055,-0.4612,178.9531
10:22:48:241,-0.5961,3.0571,6.9739,46.3457,-0.0269,0.0397,-0.5107,180.4844
10:22:48:259,-0.6224,2.9399,7.3331,46.3811,-0.0507,-0.0018,-0.6347,180.4844
10:22:48:280,-0.6703,2.5762,8.0441,46.3843,-0.1038,-0.113,-0.7862,182.5156
10:22:48:299,-1.1228,2.2983,8.8463,46.2169,-0.1936,-0.1637,-0.8851,182.5156
10:22:48:320,-1.6902,2.1045,9.4974,46.181,-0.2957,-0.1527,-0.8619,182.5312
10:22:48:340,-2.0207,2.0279,10.2108,46.2293,-0.3787,-0.1558,-0.7263,184.2969
10:22:48:359,-1.9606,1.9944,11.1924,46.138,-0.4154,-0.1796,-0.5498,185
10:22:48:380,-1.9367,2.0471,11.9848,46.2037,-0.3916,-0.1148,-0.3861,185
10:22:48:399,-2.2313,2.2289,12.3009,46.0273,-0.314,0.0501,-0.2046,185.9062
10:22:48:420,-2.1763,2.5977,12.3655,45.7935,-0.182,0.1564,0.0458,185.9062
10:22:48:442,-1.7859,3.1699,12.5139,45.6713,-0.0006,0.1515,0.2883,187.3594
10:22:48:460,-1.6591,3.6583,12.5306,46.0176,0.2144,0.1533,0.3891,187.3594
10:22:48:480,-1.7524,3.9191,11.9417,45.9278,0.4154,0.2621,0.3488,188.4375
10:22:48:500,-1.8817,4.0627,10.7566,45.7612,0.5217,0.4056,0.2511,188.5469
10:22:48:520,-1.9825,4.0173,9.7846,45.7034,0.4685,0.3134,0.1252,189.5156
10:22:48:541,-1.2999,2.5977,10.328,45.4775,-0.0843,-0.744,-0.2181,189.6094
10:22:48:561,-1.0726,1.4868,12.0589,45.5427,-0.3415,-1.2974,-0.3995,191
10:22:48:581,-1.7405,0.5626,12.7941,45.7132,-0.3903,-1.2412,-0.4251,191.1406
10:22:48:599,-2.6791,0.0909,11.7144,45.9523,-0.1839,-0.6145,-0.1869,192.8125
10:22:48:620,-2.9016,0.2922,10.0193,45.5942,0.1784,0.0391,0.2156,192.9688
10:22:48:642,-2.5546,0.8955,8.8487,45.5484,0.5369,0.2883,0.5449,194.125
10:22:48:661,-1.8697,1.6735,8.4057,45.4843,0.7996,0.2107,0.6884,194.7188
10:22:48:679,-0.9266,2.1571,8.0489,45.6255,0.9267,0.099,0.6475,194.7188
10:22:48:700,-0.2369,2.1667,7.3499,45.4806,0.8772,0.1716,0.4649,194.4062
10:22:48:720,-0.4501,2.0375,6.3969,45.35,0.6383,0.3335,0.2144,194.4062
10:22:48:741,-1.3095,1.8218,5.7051,45.2132,0.2456,0.3769,-0.0098,194.375
10:22:48:760,-2.3222,1.5514,6.2605,44.894,-0.2285,0.1093,-0.1271,193.6875
10:22:48:781,-2.4562,1.3525,7.9914,44.967,-0.6359,-0.2834,-0.0641,193.6875
10:22:48:799,-1.9223,1.1515,9.5237,44.7793,-0.8448,-0.2859,0.1197,193.4688
10:22:48:820,-1.5132,1.2042,9.8662,44.6323,-0.8656,0.2541,0.2822,193.4688
10:22:48:840,-1.5251,1.6113,9.3275,44.5085,-0.7733,0.8906,0.3628,193.7656
10:22:48:860,-1.7764,2.0518,8.7673,44.4781,-0.628,1.0934,0.394,194.5156
10:22:48:882,-1.6543,2.2696,8.4966,44.4564,-0.4441,0.8772,0.4239,194.5156
10:22:48:899,-1.2425,2.3151,8.5875,44.4652,-0.2291,0.5094,0.4184,194.4844
10:22:48:921,-1.1085,2.4467,9.052,44.3077,0.0037,0.2138,0.3518,194.4844
10:22:48:943,-1.3454,2.7173,9.4113,43.776,0.2327,0.1209,0.2816,193.3438
10:22:48:960,-1.3573,2.9997,9.6194,43.6688,0.4142,0.1332,0.2431,193.3438
10:22:48:981,-1.1061,3.2249,9.7726,43.6896,0.493,0.0678,0.1881,192.4844
10:22:48:999,-0.7229,3.2991,10.2658,43.4054,0.4416,-0.124,0.0623,192.4062
10:22:49:020,-0.6655,3.1627,10.8763,43.1796,0.2779,-0.3011,-0.1038,192.3125
10:22:49:042,-1.0845,2.5618,11.6928,42.9035,-0.193,-0.4178,-0.2413,192.3125
10:22:49:060,-0.4789,2.4156,12.521,42.7743,-0.3897,-0.5498,-0.1845,192.3594
10:22:49:082,0.3832,2.1739,13.5123,42.6058,-0.4801,-0.7849,-0.1936,192.375
10:22:49:099,0.8234,1.6543,14.4174,42.6112,-0.4142,-0.9743,-0.3366,191.7188
10:22:49:120,0.6918,0.7804,14.3551,42.4493,-0.201,-0.8851,-0.5156,191.6406
10:22:49:142,0.1675,0.0431,13.1363,42.3234,0.0825,-0.4985,-0.5681,190.6562
10:22:49:160,-0.1196,-0.0191,11.7215,42.1494,0.3451,-0.0959,-0.3916,189.6094
10:22:49:179,0.0024,0.553,10.6418,42.3068,0.5449,0.1057,-0.0776,189.6094
10:22:49:199,0.8596,1.008,9.6601,42.1526,0.6738,0.0605,0.1527,188.9219
10:22:49:219,1.6687,1.3095,9.0832,41.9421,0.7336,-0.0678,0.1643,188.9219
10:22:49:243,1.561,1.4581,8.0919,41.855,0.7239,0.0018,-0.0018,188.8594
10:22:49:260,0.929,1.5108,6.7729,41.8812,0.6444,0.1668,-0.1906,188.5781
10:22:49:281,0.2776,1.628,5.729,41.8763,0.5064,0.2651,-0.2993,188.5781
10:22:49:299,-0.1507,1.8482,5.0133,41.5417,0.328,0.3152,-0.3201,188.7656
10:22:49:319,-0.1771,2.2146,4.8362,41.4081,0.1093,0.2895,-0.3073,188.7656
10:22:49:343,-0.1149,2.703,5.3653,41.1208,-0.1417,0.1625,-0.3305,189.2656
10:22:49:358,-0.067,3.0835,6.2988,41.089,-0.3635,0.0012,-0.4007,189.5156
10:22:49:380,0.2512,3.2465,7.5174,40.905,-0.4832,-0.1564,-0.496,189.5156
10:22:49:399,0.4836,3.1962,8.5875,40.63,-0.4789,-0.2083,-0.6273,190.3281
10:22:49:420,0.0981,3.1029,9.0066,40.4374,-0.394,-0.0971,-0.7758,190.3281
10:22:49:445,-0.4741,2.9949,9.1502,40.3113,-0.2944,0.0043,-0.8729,191.4531
10:22:49:459,-0.929,2.9351,9.5189,40.1269,-0.2223,0.0006,-0.8821,191.4531
10:22:49:481,-1.4414,2.9375,9.9811,40.1165,-0.1851,0.0031,-0.8246,191.5625
10:22:49:499,-1.9247,2.9877,10.5197,39.9345,-0.1649,0.0367,-0.7263,191.5625
10:22:49:519,-2.4371,3.1412,10.8691,39.9449,-0.1478,0.1478,-0.584,191.6094
10:22:49:542,-2.5905,3.4283,11.1876,39.7831,-0.1332,0.2169,-0.394,191.625
10:22:49:563,-2.1978,3.8306,12.1525,39.8093,-0.11,0.1087,-0.2059,192.2656
10:22:49:581,-1.331,4.2305,13.3974,39.7544,-0.0318,0.0031,-0.1032,192.3281
10:22:49:599,-2.2552,3.9144,12.2387,39.6914,0.2999,0.4374,-0.2388,193.0156
10:22:49:620,-3.1077,3.5145,10.9193,39.7692,0.4539,0.5382,-0.273,193.0781
10:22:49:643,-3.6655,3.201,9.7989,39.549,0.5021,0.5082,-0.2431,193.7344
10:22:49:660,-3.754,2.7724,9.1717,39.5353,0.4032,0.2547,-0.1851,194.7656
10:22:49:679,-3.1723,2.0853,9.8734,39.2196,0.1894,-0.2511,-0.1356,194.7656
10:22:49:699,-2.9734,1.398,11.4078,39.0505,0.0006,-0.6683,-0.1203,196.4062
10:22:49:719,-3.335,0.8883,11.5493,38.9104,-0.0244,-0.5082,0.0012,196.4062
10:22:49:744,-3.6221,0.6823,10.0576,38.7201,0.0947,-0.0348,0.295,196.5625
10:22:49:759,-3.1771,1.0008,8.7362,38.5894,0.2236,0.1448,0.609,198.3594
10:22:49:780,-2.3318,1.4605,8.2741,38.5781,0.2639,-0.0305,0.7684,198.375
10:22:49:800,-1.8003,1.5778,8.2932,38.5648,0.1839,-0.2382,0.7636,199.7656
10:22:49:821,-1.5514,1.4557,8.1951,38.3895,0.0128,-0.2065,0.7092,199.7812
10:22:49:844,-1.4318,1.2353,7.6062,38.4225,-0.1936,0.1484,0.6915,200.3906
10:22:49:861,-1.1827,1.2305,6.5958,38.4343,-0.4117,0.6841,0.7245,200.6875
10:22:49:880,-0.3712,1.331,5.3462,38.4533,-0.6371,1.1881,0.7648,200.6875
10:22:49:899,-0.0191,1.5921,4.2015,38.2683,-0.8552,1.3971,0.7336,201.4062
10:22:49:920,-0.6775,2.0853,4.2808,38.0681,-1.0562,0.9566,0.606,201.4062
10:22:49:943,-0.9147,2.3701,6.5025,37.9493,-1.1692,-0.1142,0.4484,202.0469
10:22:49:959,-0.6464,2.5403,9.3514,37.655,-1.0983,-0.8918,0.3109,202.0469
10:22:49:980,-0.3951,2.5113,10.8643,37.4899,-0.846,-0.8454,0.1845,202.375
10:22:49:999,-0.6129,2.4419,10.7782,37.2239,-0.5351,-0.3134,0.0513,202.375
10:22:50:020,-1.1228,2.6169,10.151,37.0617,-0.2944,0.091,-0.0501,202.0781
10:22:50:042,-1.6926,2.9686,9.9428,36.9663,-0.1851,0.0953,-0.0983,202.0625
10:22:50:061,-1.8314,3.3422,11.0106,36.8803,-0.1674,-0.2737,-0.1081,200.7656
10:22:50:081,-1.1228,3.335,12.4373,36.7817,-0.0495,-0.6273,-0.1936,200.6406
10:22:50:100,-0.2946,3.1125,13.2658,36.5213,0.0495,-0.5901,-0.3842,199.2031
10:22:50:120,-0.4023,2.4826,13.8571,36.5559,0.1271,-0.5834,-0.5913,199.0469
10:22:50:144,-0.6081,1.8888,13.8093,36.5892,0.1924,-0.6432,-0.708,197.5312
10:22:50:204,-0.2656,1.1922,13.3759,36.6159,0.2596,-0.6921,-0.708,195.6094
10:22:50:204,0.4095,0.7421,13.1052,36.6916,0.3115,-0.7953,-0.6762,195.6094
10:22:50:204,1.0654,0.3927,12.9353,36.5578,0.3292,-0.9493,-0.7,195.4062
10:22:50:218,1.13,0.0287,12.7893,36.4456,0.3073,-1.0073,-0.791,193.9375
10:22:50:240,0.4334,-0.2417,12.5928,36.4227,0.2578,-0.813,-0.8521,193.7812
10:22:50:262,-0.2273,-0.4765,11.6617,36.308,0.2401,-0.3292,-0.7147,192.8594
10:22:50:279,-0.1795,-0.443,10.1462,36.2744,0.2834,0.1026,-0.3903,192.7812
10:22:50:299,0.443,0.0718,9.3658,35.9821,0.3922,0.0831,-0.0721,192.5938
10:22:50:320,1.0032,0.7923,9.1071,35.8342,0.5504,-0.0812,0.0757,192.5938
10:22:50:344,1.4868,1.3621,8.645,35.7305,0.7251,-0.11,0.0287,192.7344
10:22:50:359,1.6615,1.7477,7.9723,35.4967,0.8601,-0.0586,-0.1588,192.9688
10:22:50:380,1.4414,1.8434,7.2661,35.6328,0.8979,0.025,-0.4135,192.9688
10:22:50:400,0.7469,1.7692,6.6532,35.6041,0.8069,0.1417,-0.6542,194
10:22:50:420,-0.0861,1.7692,6.1959,35.7169,0.6157,0.2498,-0.752,194
10:22:50:442,-0.5841,2.059,6.16,35.764,0.3818,0.2957,-0.6683,195.5625
10:22:50:461,-0.7158,2.4443,6.457,35.826,0.1484,0.27,-0.5137,195.5625
10:22:50:479,-0.7564,2.8729,7.0292,35.5356,-0.0458,0.1924,-0.3983,197.0781
10:22:50:499,-0.7373,3.1723,7.8,35.5298,-0.1704,0.0959,-0.3384,197.0781
10:22:50:520,-0.5387,3.4475,8.7051,35.4086,-0.2077,0.0599,-0.2902,198.7031
10:22:50:544,-0.3736,3.7708,9.4663,35.1819,-0.16,0.146,-0.2657,198.875
10:22:50:559,-0.2417,3.7899,9.9356,34.9844,-0.058,0.2694,-0.3018,200.0312
10:22:50:582,-0.3879,3.615,10.3256,34.5688,0.0623,0.3115,-0.383,200.1406
10:22:50:601,-0.8524,3.5169,10.448,34.2651,0.2309,0.3818,-0.4294,200.25
10:22:50:620,-1.5443,3.5216,10.3232,34.3216,0.2822,0.3958,-0.284,200.25
10:22:50:646,-1.6424,3.687,10.2658,34.3972,0.325,0.2785,-0.1112,200.5312
10:22:50:660,-0.2393,4.0771,10.9914,34.0775,0.3537,0.1277,-0.0507,200.5625
10:22:50:679,-0.3712,3.9215,10.8476,33.9465,0.3567,0.2352,-0.1209,201.7812
10:22:50:699,-1.4629,3.3422,9.8566,33.8085,0.3097,0.485,-0.2352,201.9219
10:22:50:719,-2.8513,2.7485,8.7171,33.321,0.1881,0.628,-0.2676,203.4375
10:22:50:740,-3.6197,2.6862,8.1206,33.2907,0,0.5388,-0.1277,203.5781
10:22:50:761,-2.8537,2.7963,8.1808,32.9653,-0.223,0.2034,0.1319,204.5156
10:22:50:780,-1.4844,2.6743,9.4352,32.7059,-0.4459,-0.3451,0.2877,204.6094
10:22:50:800,-1.2305,2.2409,10.7973,32.6363,-0.6188,-0.7074,0.2352,205.2656
10:22:50:820,-2.1595,1.707,10.7973,32.2572,-0.6848,-0.5125,0.1662,205.2656
10:22:50:844,-2.6551,1.3238,9.8037,32.1311,-0.6151,-0.0531,0.2657,205.8594
10:22:50:859,-2.7102,1.573,9.2195,31.9644,-0.4368,0.1521,0.4459,206.7969
10:22:50:879,-2.0734,1.9729,8.7553,31.9866,-0.2028,0.1625,0.5944,206.7969
10:22:50:899,-0.8812,2.2337,8.4009,31.7715,0.0134,0.1344,0.6573,207.6562
10:22:50:920,-0.1077,2.461,8.3315,31.9064,0.1497,0.1155,0.5821,207.6562
10:22:50:944,-0.2441,2.6384,8.1302,31.6098,0.1942,0.1729,0.4068,207.9375
10:22:50:961,-0.8835,2.569,7.7163,31.4236,0.1674,0.2773,0.2321,207.9375
10:22:50:979,-1.3119,2.3151,7.3092,31.4491,0.0977,0.3176,0.1374,208.4219
10:22:51:000,-1.6184,2.2839,7.0747,31.369,-0.0031,0.2889,0.1374,208.4219
10:22:51:020,-1.7261,2.4227,6.7561,31.1965,-0.1112,0.2993,0.215,208.8281
10:22:51:045,-1.5419,2.5905,6.6437,31.1824,-0.2077,0.3482,0.3176,208.875
10:22:51:063,-1.331,2.8944,7.0484,31.0284,-0.281,0.2755,0.3543,208.3594
10:22:51:083,-1.1827,3.1053,9.2219,30.5002,-0.3494,-0.1949,0.1985,208.3125
10:22:51:101,-1.319,3.0811,10.1773,30.3939,-0.3708,-0.2474,0.1399,207.7188
10:22:51:121,-1.3669,2.9518,10.7088,30.1623,-0.3586,-0.2114,0.1515,207.6719
10:22:51:145,-1.3669,2.8609,11.0417,29.908,-0.2981,-0.1258,0.1894,206.8125
10:22:51:161,-1.3956,2.9231,11.4102,29.5904,-0.1888,-0.0415,0.2156,206.7344
10:22:51:179,-1.2544,2.8729,11.5828,29.2842,-0.0501,0.0525,0.2199,205.4531
10:22:51:199,-1.2401,2.6815,11.5469,29.054,0.08,0.0971,0.1918,205.3281
10:22:51:218,-1.5778,2.5881,11.5158,28.76,0.1625,0.124,0.1552,204.375
10:22:51:240,-1.8075,2.7006,11.3886,28.7384,0.1729,0.1997,0.1619,204.2969
10:22:51:261,-1.3741,2.624,10.9986,28.4607,0.0996,0.2755,0.2022,203.9531
10:22:51:279,-0.4286,2.138,10.7231,28.1225,-0.0611,0.1558,0.179,203.9219
10:22:51:298,0.644,1.5156,11.2379,28.006,-0.3097,-0.2737,0.0428,203.5156
10:22:51:320,1.0702,1.0271,12.9138,27.7417,-0.595,-0.824,-0.1136,203.5156
10:22:51:344,0.766,0.51,13.7973,27.8102,-0.799,-0.8112,-0.1203,202.6875
10:22:51:360,0.4645,0.3329,13.0621,27.5379,-0.8179,-0.1894,0.1173,202.0156
10:22:51:381,0.4741,0.7373,11.7814,27.4435,-0.6292,0.3922,0.4636,202.0156
10:22:51:399,1.2999,1.3717,10.448,27.2238,-0.2895,0.5571,0.719,201.5625
10:22:51:421,2.3342,2.0112,9.5524,27.0005,0.0922,0.4807,0.7562,201.5625
10:22:51:443,2.715,2.4132,8.8008,27.1779,0.4038,0.4899,0.5247,201.0312
10:22:51:461,2.1835,2.5834,8.0201,26.9338,0.5968,0.5638,0.1197,201.0312
10:22:51:480,1.0965,2.5307,7.3403,26.7881,0.6768,0.5546,-0.2902,200.5938
10:22:51:499,0.0048,2.3246,6.8016,26.6633,0.6597,0.4368,-0.5449,200.5938
10:22:51:520,-0.5794,2.1787,6.5743,26.446,0.5565,0.237,-0.5925,200.2969
10:22:51:545,-0.6966,2.327,6.8255,26.4595,0.383,0.0171,-0.485,200.2969
10:22:51:561,-0.5028,2.715,7.4432,26.2357,0.1759,-0.1631,-0.3366,199.9219
10:22:51:580,-0.0646,3.1125,8.1927,26.3495,-0.0079,-0.2822,-0.2462,199.8906
10:22:51:599,0.201,3.2512,8.6713,26.0463,-0.1344,-0.2663,-0.2621,199.7969
10:22:51:622,0.1244,3.0885,8.9396,25.9585,-0.1619,-0.2382,-0.4386,199.7812
10:22:51:645,-0.1436,2.892,9.361,26.0626,-0.0794,-0.2889,-0.4697,199.5312
10:22:51:662,-0.3712,2.7508,9.95,25.8984,0.0269,-0.2156,-0.4545,199.5
10:22:51:680,-1.3334,2.6934,10.0433,25.9734,0.1228,-0.0024,-0.3983,198.2188
10:22:51:699,-1.8769,2.9518,9.7606,25.8976,0.182,0.1747,-0.2987,198.0938
10:22:51:719,-2.0806,3.2177,9.5572,25.9428,0.1894,0.2065,-0.1826,196.9219
10:22:51:739,-1.8649,3.4594,9.7439,25.6275,0.1307,0.1191,-0.091,196.8125
10:22:51:762,-1.5491,3.481,10.1868,25.4578,0.0116,0.0055,-0.066,197.2188
10:22:51:780,-1.4438,3.3422,10.704,25.4671,-0.1503,-0.0727,-0.1032,197.25
10:22:51:799,-1.8194,3.0909,11.1709,25.2984,-0.3128,-0.0134,-0.1362,198.75
10:22:51:819,-2.8633,2.9471,11.458,25.0795,-0.4374,0.1765,-0.1387,198.7656
10:22:51:841,-3.3015,2.5905,11.2499,24.7306,-0.482,0.3311,-0.0751,199.7656
10:22:51:862,-2.9303,2.0471,11.1111,24.5024,-0.4349,0.1833,0.014,200.2969
10:22:51:881,-2.2504,1.4294,11.5684,24.3811,-0.3176,-0.2285,0.0819,200.2969
10:22:51:899,-2.0686,0.9817,11.9991,24.2809,-0.1576,-0.4398,0.1185,201.0938
10:22:51:921,-2.6001,0.778,11.3049,24.0626,0.0324,-0.1649,0.1759,201.0938
10:22:51:944,-2.8394,1.0032,9.8327,23.6981,0.2095,0.3121,0.3201,202.0781
10:22:51:964,-2.5137,1.5443,8.7171,23.4675,0.303,0.5137,0.4691,202.0781
10:22:51:982,-1.8362,2.0662,8.5205,23.2909,0.2908,0.3555,0.5009,202.9062
10:22:51:999,-1.1539,2.0853,8.4512,23.0175,0.1564,0.1368,0.408,202.9062
10:22:52:020,-0.8644,1.8194,8.3889,23.0456,-0.1063,0.0391,0.2822,203.2812
10:22:52:045,-1.3262,1.3789,8.3076,22.7236,-0.4306,0.0678,0.1936,203.2812
10:22:52:062,-1.9534,0.8883,8.0178,22.5893,-0.7226,0.2395,0.1961,203.4219
10:22:52:080,-2.3079,0.6129,7.654,22.4709,-0.9218,0.4484,0.2993,203.4375
10:22:52:099,-2.3725,0.7253,7.2637,22.5221,-1.0152,0.606,0.4795,203.5938
10:22:52:122,-0.8501,1.8697,8.0369,22.393,-0.7813,0.1857,0.8228,203.6094
10:22:52:147,-0.6703,2.3844,8.918,22.3487,-0.4673,-0.0513,0.7807,203.5312
10:22:52:160,-0.7612,2.6671,9.5453,22.5874,-0.0409,-0.113,0.6237,203.5156
10:22:52:179,-1.0271,2.6169,9.8566,22.0289,0.4264,-0.0391,0.3995,203.2188
10:22:52:199,-1.13,2.5283,9.7487,22.0157,0.8295,0.0751,0.1662,203.1875
10:22:52:267,-1.3454,2.3629,9.5357,21.6774,1.0623,0.1014,-0.0195,202.7344
10:22:52:268,-1.7285,2.3079,9.7534,21.4834,1.0965,-0.0104,-0.088,202.6875
10:22:52:268,-2.016,2.3725,10.1892,21.3004,0.9877,-0.2089,-0.0232,201.8594
10:22:52:283,-1.6472,2.4969,10.3448,20.9434,0.8045,-0.3097,0.1216,201.7812
10:22:52:299,-0.9601,2.569,10.273,20.4874,0.5803,-0.2669,0.2095,201.0938
10:22:52:319,-0.9147,2.7293,10.3328,20.065,0.3231,-0.201,0.1723,201.0312
10:22:52:340,-1.2544,2.9303,10.5461,20.1028,0.0837,-0.1906,0.1197,200.375
10:22:52:362,-0.9362,3.1507,10.5461,19.7548,-0.0666,-0.2278,0.1435,199.1719
10:22:52:382,0.0239,3.134,10.5509,19.7393,-0.1478,-0.3164,0.1264,199.1719
10:22:52:399,0.7158,2.5307,11.0728,19.6769,-0.2254,-0.5094,-0.0611,197.1562
10:22:52:420,0.5459,1.4677,12.0999,19.5055,-0.3097,-0.7575,-0.3305,197.1562
10:22:52:444,-0.0933,0.7397,13.0956,19.528,-0.3482,-0.8924,-0.4539,195.4844
10:22:52:460,-0.4119,0.2345,12.7511,19.4965,-0.2877,-0.5992,-0.3152,195.4844
10:22:52:480,-0.0718,0.5124,11.4102,19.2244,-0.1533,0.011,0.0073,195.1406
10:22:52:499,0.5746,1.3358,10.0505,19.0949,-0.0073,0.4447,0.2718,195.1406
10:22:52:520,1.3095,2.126,9.2554,18.9331,0.113,0.4294,0.3158,195.7344
10:22:52:540,1.4773,2.3701,8.6234,18.6726,0.1655,0.3079,0.1393,195.7344
10:22:52:558,1.0104,2.1069,7.7498,18.4309,0.1399,0.339,-0.1283,196
10:22:52:581,0.1244,1.8027,6.8686,18.3421,0.0495,0.4074,-0.3195,196.0156
10:22:52:600,-0.5961,1.8458,6.1959,18.125,-0.0715,0.3909,-0.3354,195.8281
10:22:52:623,-0.62,2.4419,6.2916,18.2229,-0.2987,0.2529,-0.1283,195.7969
10:22:52:646,-0.565,2.624,6.8758,18.4305,-0.4074,0.3751,-0.1393,195.5469
10:22:52:661,-0.7708,2.5642,6.8207,18.2783,-0.5192,0.7147,-0.2236,195.5156
10:22:52:680,-1.331,2.2983,6.4137,18.2987,-0.6243,0.9169,-0.2871,195.375
10:22:52:699,-1.5203,2.0925,6.6844,18.3446,-0.6988,0.6964,-0.2669,195.3594
10:22:52:719,-1.4773,2.1787,7.7689,18.3115,-0.7275,0.2871,-0.1955,196
10:22:52:740,-1.4725,2.2146,8.8654,17.9389,-0.7031,0.0617,-0.1393,196.0781
10:22:52:762,-1.7309,2.1547,9.6697,18.0623,-0.6163,0.0647,-0.1051,196.2969
10:22:52:779,-2.1858,2.1212,10.2993,17.7275,-0.4868,0.1142,-0.0629,196.3281
10:22:52:799,-2.6623,2.26,10.8835,17.313,-0.3335,0.1136,0.0318,195.7656
10:22:52:820,-2.5113,2.3581,11.3695,17.0486,-0.1833,0.0226,0.1906,195.7188
10:22:52:840,-1.9128,2.2433,11.6474,16.5962,-0.0623,-0.1613,0.3696,195.7656
10:22:52:863,-1.0654,2.2002,12.2985,16.4231,0.025,-0.3384,0.5241,196.4844
10:22:52:880,-0.7014,2.4156,13.4022,16.0938,0.099,-0.3769,0.6432,196.4844
10:22:52:899,-0.8186,2.6791,13.759,16.1147,0.1839,-0.0776,0.7709,196.7969
10:22:52:920,-1.2353,2.9112,13.0238,15.768,0.2578,0.4679,0.8943,196.7969
10:22:52:939,-2.004,2.9351,11.7503,15.4417,0.2755,0.9902,0.948,197.0156
10:22:52:959,-3.0957,3.0933,10.4312,15.1695,0.259,1.1637,0.959,197.0156
10:22:52:981,-3.2369,2.959,9.1813,15.1698,0.2248,0.7709,0.9822,197.3906
10:22:53:000,-2.3653,2.4873,9.3802,15.2245,0.1906,-0.4013,0.9108,197.3906
10:22:53:021,-2.1093,2.2337,11.3695,15.0383,0.193,-1.7813,0.7135,197.4375
10:22:53:039,-1.8625,1.8362,12.708,15.0157,0.295,-2.3659,0.5644,197.4375
10:22:53:060,-1.6807,1.4677,12.4875,14.8223,0.4954,-2.0629,0.5498,197.375
10:22:53:081,-1.5849,1.3549,11.2164,14.8304,0.7129,-1.4166,0.5809,197.375
10:22:53:099,-1.3813,1.4294,9.8853,14.9764,0.8497,-0.959,0.565,197.0469
10:22:53:120,-1.1061,1.5347,9.1382,15.0395,0.8576,-0.7599,0.5198,197.0156
10:22:53:140,-0.8139,1.4701,8.5708,14.8902,0.719,-0.5113,0.4771,196.0781
10:22:53:164,-0.5913,1.0726,6.9595,14.7748,0.0996,0.2902,0.4142,195.9844
10:22:53:181,-0.9051,1.0558,6.3443,14.6156,-0.2486,0.5437,0.427,194.5938
10:22:53:199,-1.1994,1.0798,6.1289,14.476,-0.5137,0.5608,0.4936,194.4688
10:22:53:219,-1.3454,1.3238,6.6102,14.5298,-0.6542,0.3518,0.5986,192.8281
10:22:53:240,-1.2879,1.7261,7.5556,14.2985,-0.6646,0.135,0.7,192.6562
10:22:53:263,-1.0415,2.138,8.3698,14.1232,-0.5705,0.179,0.7807,190.9219
10:22:53:279,-0.8186,2.4036,8.5947,14.2846,-0.4276,0.4966,0.8002,190.75
10:22:53:300,-0.7445,2.5738,8.5325,14.2656,-0.2895,0.7562,0.7428,189.1406
10:22:53:319,-0.8931,2.6886,8.3387,14.3545,-0.1851,0.7855,0.6713,188.9844
10:22:53:341,-0.8378,2.8513,8.6091,14.428,-0.1081,0.5094,0.6402,187.8438
10:22:53:362,-0.3664,3.1675,9.8877,14.3983,-0.0202,-0.1148,0.6121,186.875
10:22:53:380,0.4478,3.1819,11.1996,14.3517,0.0696,-0.5846,0.5302,186.875
10:22:53:400,1.0056,2.8633,11.9728,14.3913,0.1167,-0.6139,0.3812,186.0781
10:22:53:420,0.9601,2.4993,12.6769,14.4211,0.1252,-0.4655,0.2181,186.0781
10:22:53:440,0.6535,2.1452,13.1578,14.2328,0.1319,-0.2193,0.1478,185.2344
10:22:53:465,0.6631,2.1093,13.0238,14.1588,0.1313,0.157,0.2144,185.2344
10:22:53:481,1.1635,2.3486,12.0446,14.3156,0.0672,0.5986,0.3237,184.0469
10:22:53:499,1.4557,2.4419,11.3982,14.296,-0.0684,0.6359,0.3421,184.0469
10:22:53:521,1.4294,2.0853,11.9273,14.1365,-0.1668,-0.0501,0.2346,182.3594
10:22:53:540,1.5251,1.4964,13.7468,13.986,-0.0953,-1.149,0.0947,182.3594
10:22:53:564,1.8625,0.7828,15.0589,13.9578,0.1881,-1.6866,0.0495,180.4219
10:22:53:580,2.1954,0.2946,14.4102,13.9984,0.6096,-1.2144,0.1539,180.4219
10:22:53:599,2.5738,0.6224,12.3081,14.1581,1.0042,-0.2169,0.3476,178.8906
10:22:53:620,2.7245,1.4677,9.8758,14.0954,1.2412,0.6359,0.493,178.7344
10:22:53:641,2.6671,2.2122,7.8479,13.8099,1.2944,0.9657,0.4813,177.4531
10:22:53:658,2.3749,2.6264,6.4953,13.9769,1.1966,0.8662,0.3183,177.3281
10:22:53:683,1.1085,2.5762,4.8218,14.4663,0.6548,0.6066,-0.1387,176.4688
10:22:53:701,-0.1196,2.4658,4.5248,14.7322,0.2877,0.4667,-0.2798,176.375
10:22:53:720,-1.0702,2.3749,4.7091,14.8272,-0.0556,0.2205,-0.2938,176.0625
10:22:53:739,-1.2592,2.2624,5.461,15.0288,-0.3237,-0.0513,-0.2016,176.0312
10:22:53:763,-1.0247,2.3055,6.6556,15.0285,-0.5266,-0.1423,-0.0959,175.5156
10:22:53:779,-0.9673,2.4251,7.4432,15.1393,-0.6915,0.1552,-0.0257,175.4531
10:22:53:799,-1.0295,2.5738,7.6134,15.3921,-0.8136,0.6176,0.0641,174.8125
10:22:53:819,-0.8477,2.8848,7.6636,15.4536,-0.8674,0.8692,0.2046,174.75
10:22:53:840,-0.3832,3.3565,7.9986,15.1379,-0.8521,0.8045,0.3415,174.7188
10:22:53:864,0.146,3.8521,8.7123,15.3107,-0.7868,0.5363,0.4032,174.5
10:22:53:880,0.3832,4.1584,9.5572,15.4005,-0.6903,0.2456,0.361,174.5
10:22:53:899,0.2898,4.1058,10.4743,15.5024,-0.5632,-0.0965,0.2547,173.75
10:22:53:920,0.2728,3.9239,11.4915,15.7049,-0.405,-0.4349,0.2028,173.75
10:22:53:940,0.577,3.9072,12.1789,15.769,-0.2364,-0.4624,0.2834,173.5469
10:22:53:964,0.4693,4.3813,12.3177,15.7943,-0.0825,-0.1765,0.4264,173.5469
10:22:53:981,-0.1531,5.1688,12.1406,15.7428,0.0605,0.113,0.5369,174.0625
10:22:53:999,-0.4286,5.8152,12.2243,15.942,0.226,0.1576,0.5809,174.0625
10:22:54:021,-0.352,6.3538,12.6434,16.1918,0.3714,0.0599,0.5125,174.5156
10:22:54:040,-0.1819,6.1433,12.143,16.3292,0.3842,0.1093,0.2737,174.5156
10:22:54:062,-0.4932,4.975,10.9241,16.3276,0.2028,0.0886,-0.0965,174.4062
10:22:54:080,-0.419,3.2345,10.1868,16.3479,-0.0935,-0.3781,-0.4239,174.4062
10:22:54:101,-0.1244,1.7022,10.5724,16.691,-0.3738,-1.1789,-0.6255,173.6719
10:22:54:121,-0.3425,0.7708,11.3599,16.8224,-0.5369,-1.6781,-0.7104,173.6094
10:22:54:140,-0.7947,0.2465,10.9122,16.9765,-0.5418,-1.3127,-0.6518,172.4375
10:22:54:159,-1.051,0.1149,9.5046,17.1138,-0.4514,-0.3476,-0.4349,172.3125
10:22:54:184,-1.817,0.3401,7.2278,16.8104,-0.2077,0.8906,0.124,171.4062
10:22:54:201,-1.5897,0.5291,7.2805,16.8695,-0.0299,0.4557,0.3464,171.3281
10:22:54:220,-0.9601,0.7469,8.0584,16.7031,0.1326,-0.1301,0.4722,170.7344
10:22:54:239,-0.2704,0.917,8.8319,16.6823,0.2413,-0.3891,0.4862,170.6875
10:22:54:264,0.2177,1.1085,9.0999,16.7348,0.2865,-0.1851,0.4496,169.7188
10:22:54:279,0.0694,1.3645,8.6115,16.5381,0.2535,0.3781,0.4276,169.625
10:22:54:338,-0.4095,1.5921,7.8909,16.5139,0.1607,0.7965,0.4294,168.6406
10:22:54:338,-0.7349,1.6304,7.5846,16.3681,0.0421,0.7501,0.4642,168.5469
10:22:54:349,-0.6751,1.6089,7.8885,16.396,-0.0788,0.5608,0.5528,168.4688
10:22:54:362,-0.3425,1.8003,8.3483,16.4573,-0.1936,0.5699,0.6719,169.6094
10:22:54:381,-0.0096,2.2265,8.6306,16.6118,-0.2963,0.7917,0.766,169.6094
10:22:54:399,0.2321,2.6886,8.741,16.5843,-0.3714,0.989,0.7978,171.0625
10:22:54:420,0.4262,3.0933,9.0544,16.4382,-0.4062,0.9816,0.7593,171.0625
10:22:54:439,0.6224,3.347,9.6601,16.828,-0.4001,0.7721,0.653,171.5625
10:22:54:458,0.5913,3.4068,10.2778,16.9139,-0.3445,0.4759,0.5052,171.5625
10:22:54:481,0.6823,3.4164,10.7949,17.0385,-0.2272,0.1448,0.3598,170.9531
10:22:54:500,1.2879,3.2847,11.1206,17.1139,-0.0702,-0.2065,0.182,170.9531
10:22:54:521,2.0638,3.1723,11.3791,17.183,0.0702,-0.5687,-0.0947,170
10:22:54:541,2.5546,3.2297,11.913,17.393,0.1686,-0.9224,-0.4465,170
10:22:54:563,2.7867,2.8585,11.9776,17.6238,0.2211,-0.9841,-0.7752,169.125
10:22:54:581,3.1436,1.9271,11.6521,17.68,0.2199,-0.8198,-1.0177,169.125
10:22:54:599,2.2792,1.0917,11.6617,17.7363,0.1552,-0.7495,-1.1912,168.1875
10:22:54:621,0.8306,0.7181,12.8731,17.9367,0.0739,-1.1301,-1.295,168.0938
10:22:54:639,0.4549,0.1029,15.1307,18.1397,0.0544,-1.6152,-1.306,166.75
10:22:54:664,0.0814,-0.7899,15.181,18.4386,0.1607,-1.1838,-1.1288,166.625
10:22:54:681,-0.1795,-0.9984,13.2921,18.5785,0.369,-0.2449,-0.6725,164.8125
10:22:54:701,-0.3473,-0.4095,10.7231,18.4769,0.5143,0.5937,-0.1051,164.6406
10:22:54:721,-0.0885,0.6799,8.9755,18.2806,0.5003,0.8931,0.3775,162.9375
10:22:54:740,1.2975,2.1093,7.9579,18.3325,0.2517,0.6481,0.6225,162.7656
10:22:54:765,1.2449,2.2313,7.3235,17.9651,0.1228,0.5834,0.3848,161.7188
10:22:54:780,0.62,2.2002,6.8064,17.8195,0.033,0.4991,0.1032,161.625
10:22:54:799,-0.0622,2.126,6.361,17.8529,-0.011,0.4471,-0.0751,161.5625
10:22:54:820,-0.352,2.0901,5.8104,17.6044,-0.0238,0.4227,-0.1246,161.5469
10:22:54:839,-0.3449,2.3605,5.6405,17.5972,-0.044,0.2816,-0.1155,162.9531
10:22:54:863,-0.2584,3.0069,6.8853,17.778,-0.0965,-0.1295,-0.1118,165.6875
10:22:54:880,0.0861,3.5384,8.7482,18.1365,-0.1057,-0.4978,-0.1112,165.6875
10:22:54:899,0.51,3.5886,9.6936,18.2527,0.0189,-0.5162,-0.1387,168.7188
10:22:54:921,0.4621,3.4211,9.3538,18.5638,0.2144,-0.2517,-0.2266,168.7188
10:22:54:939,0.0407,3.3757,8.7147,18.7724,0.325,-0.0073,-0.2957,170.875
10:22:54:963,-0.3138,3.4786,8.4272,18.9513,0.2633,0.1051,-0.2559,170.875
10:22:54:981,-0.2752,3.5839,9.1502,19.1769,0.0574,0.099,-0.1558,170.7031
10:22:55:000,-0.1842,3.6583,10.4432,19.429,-0.1631,0.11,-0.0574,170.7031
10:22:55:020,-0.3855,3.687,11.2475,19.3766,-0.2724,0.234,0.0562,169.375
10:22:55:040,-0.5674,3.6775,11.6067,19.5294,-0.2321,0.3464,0.223,169.375
10:22:55:062,-0.2273,3.7851,11.9178,19.7217,-0.0599,0.3457,0.4251,168.7812
10:22:55:080,0.1675,4.0364,11.8579,19.9794,0.1771,0.3354,0.5656,168.7812
10:22:55:099,0.2154,4.2401,11.2857,20.1873,0.3647,0.358,0.5718,168.9219
10:22:55:121,-0.1914,4.1225,10.3256,20.3048,0.4117,0.4062,0.4673,168.9219
10:22:55:140,-0.8453,3.7756,9.2701,20.4815,0.2889,0.4905,0.3573,169.1094
10:22:55:158,-1.5443,3.4164,8.9468,20.5034,0.0232,0.4795,0.314,169.125
10:22:55:182,-1.5467,2.2935,11.135,20.8023,-0.3738,0.0208,0.463,169.4219
10:22:55:201,-1.4581,1.8912,11.8388,20.8421,-0.2987,-0.1301,0.5889,169.4531
10:22:55:222,-1.6735,1.8003,11.403,21.0619,-0.1014,-0.069,0.7452,170.0938
10:22:55:240,-1.561,1.9415,10.4719,21.1735,0.149,-0.0287,0.8839,170.1562
10:22:55:265,-1.0941,2.2935,9.7917,21.4108,0.3128,-0.1228,0.934,170.625
10:22:55:279,-0.5004,2.4108,9.4902,21.4776,0.2969,-0.1833,0.8753,170.6719
10:22:55:301,-0.0191,2.2481,9.3826,21.7571,0.124,-0.0702,0.7495,170.5781
10:22:55:320,0.1484,2.0327,9.306,22.0214,-0.0819,0.2016,0.5999,170.5625
10:22:55:340,-0.2297,1.8362,8.7649,22.1928,-0.2016,0.5418,0.4679,169.8125
10:22:55:358,-0.8091,1.5586,8.0441,22.4841,-0.2193,0.7397,0.405,168.6719
10:22:55:381,-0.6272,1.276,7.7665,22.7162,-0.1552,0.689,0.4484,168.6719
10:22:55:399,-0.3233,1.3932,7.4719,22.8955,-0.0281,0.5485,0.5583,167.75
10:22:55:420,-0.4167,2.0423,7.3905,23.1648,0.1032,0.3702,0.6518,167.75
10:22:55:440,-0.285,2.7485,7.7306,23.677,0.2126,0.2046,0.7061,166.875
10:22:55:463,0.079,3.1316,7.5461,23.9586,0.3066,0.2223,0.7043,166.875
10:22:55:480,0.309,3.347,6.8303,24.3552,0.3537,0.3366,0.6225,165.5625
10:22:55:499,0.2393,3.6583,6.3969,24.934,0.2718,0.3628,0.4771,165.5625
10:22:55:520,0.067,3.9431,6.6939,25.3762,0.0434,0.3073,0.3036,163.9531
10:22:55:540,-0.189,3.821,7.7498,25.8324,-0.2175,0.1716,0.1332,163.7969
10:22:55:565,-0.309,3.5647,9.2701,26.2459,-0.3531,-0.0831,0.014,161.9844
10:22:55:581,0.0048,3.4331,10.4839,26.6171,-0.3317,-0.3299,-0.0367,161.9844
10:22:55:599,0.3497,3.1579,11.2714,26.8155,-0.2694,-0.4881,-0.0916,160.4844
10:22:55:620,0.309,2.7102,11.5445,27.0713,-0.2559,-0.5003,-0.1668,160.4844
10:22:55:640,-0.0335,2.0949,11.7383,27.3232,-0.3286,-0.4056,-0.1991,159.375
10:22:55:659,-0.146,1.6065,11.8651,27.7395,-0.4642,-0.2486,-0.1112,159.2656
10:22:55:681,0.4023,1.5036,11.7766,28.1675,-0.5889,-0.1319,0.0843,158.0781
10:22:55:700,1.4988,1.6735,12.641,28.6151,-0.6408,-0.2633,0.2443,157.9688
10:22:55:724,2.3318,1.4004,14.7954,29.2707,-0.2712,-0.5375,0.1313,156.6094
10:22:55:741,1.7501,0.7469,13.4524,29.7771,0.099,-0.2517,0.0122,156.4844
10:22:55:760,1.1827,0.4669,11.281,30.3721,0.3207,0.1588,0.0202,155.2344
10:22:55:783,1.1994,0.7086,9.4639,31.0051,0.3115,0.4172,0.1619,155.1094
10:22:55:799,1.6902,1.3478,8.6498,31.5011,0.1625,0.4526,0.2908,154.3125
10:22:55:819,2.083,2.004,8.5301,31.8172,-0.0012,0.3873,0.2682,154.2344
10:22:55:839,2.0064,2.2002,8.135,32.0277,-0.102,0.3818,0.0721,153.9219
10:22:55:859,1.2712,1.9848,7.2278,32.2814,-0.1539,0.4386,-0.1942,153.9844
10:22:55:881,0.4262,1.6591,6.1792,32.5028,-0.2089,0.4508,-0.3806,153.9844
10:22:55:900,-0.1866,1.5275,5.8391,32.863,-0.3128,0.3628,-0.4264,154.3594
10:22:55:922,-0.28,1.7094,6.361,33.1725,-0.4209,0.2511,-0.3677,154.3594
10:22:55:940,-0.0287,2.0782,7.0244,33.3811,-0.441,0.1942,-0.3024,154.1875
10:22:55:958,0.3185,2.3773,7.2182,33.9646,-0.3653,0.201,-0.2895,154.1875
10:22:55:982,0.5171,2.636,7.0412,34.3389,-0.2926,0.2236,-0.3317,153.5
10:22:56:000,0.51,2.8992,7.302,34.7446,-0.3115,0.1747,-0.4007,153.4219
10:22:56:021,0.3808,3.0284,8.3411,35.1353,-0.3769,0.0574,-0.4783,153.4219
10:22:56:041,0.3712,2.8896,9.5644,35.2787,-0.3799,-0.0452,-0.5479,153.3125
10:22:56:059,0.2728,2.6456,10.4551,35.6187,-0.3097,-0.0983,-0.5944,153.2031
10:22:56:082,-0.1196,2.5355,11.0943,36.1318,-0.2425,-0.0874,-0.5907,153.2031
10:22:56:099,-0.766,2.4275,11.7981,36.7191,-0.1912,-0.0819,-0.5088,152.5312
10:22:56:121,-1.1061,2.2337,12.7032,36.8724,-0.1081,-0.1026,-0.3256,152.5312
10:22:56:141,-0.8501,2.1978,13.273,37.3184,0.0434,-0.0483,-0.0385,152.4844
10:22:56:158,-0.2489,2.7556,13.1076,37.8323,0.2095,0.149,0.2688,152.4844
10:22:56:181,0.3449,3.6461,12.3368,38.232,0.3066,0.3836,0.449,153.0781
10:22:56:199,0.443,4.0077,11.3408,38.8547,0.3091,0.4587,0.383,153.1406
10:22:56:222,-0.5052,3.7469,11.1111,39.2321,0.0935,0.0428,-0.0086,153.6094
10:22:56:241,-1.3262,2.8968,11.2331,39.522,-0.0556,-0.088,-0.014,153.6094
10:22:56:260,-1.9872,1.5514,11.9656,39.8073,-0.1594,-0.1942,0.0947,154.0312
10:22:56:281,-1.9343,1.1204,12.6912,40.1137,-0.1326,-0.3207,0.2682,154.0625
10:22:56:301,-1.5227,0.8139,13.5745,40.5522,0.0867,-0.3751,0.4423,154.75
10:22:56:319,-1.2927,0.4143,12.1669,40.679,0.4807,-0.1326,0.5791,154.8281
10:22:56:400,-1.4127,0.51,9.3347,41.1056,0.8082,0.1533,0.6927,155.7969
10:22:56:401,-0.9864,1.2473,7.6947,41.3673,0.8179,0.099,0.799,156.8906
10:22:56:401,-0.0407,2.2026,7.8096,41.8165,0.5119,-0.066,0.81,156.8906
10:22:56:401,0.8979,2.4969,8.7314,42.1003,0.0843,-0.0305,0.6243,157.3906
10:22:56:420,0.7636,2.3198,8.9348,42.3316,-0.2211,0.2382,0.3183,157.3906
10:22:56:439,-0.0694,1.9367,8.2908,42.5564,-0.3207,0.4496,0.0654,156.7344
10:22:56:459,-0.3736,1.1922,7.6301,42.6404,-0.2712,0.3439,-0.0342,156.7344
10:22:56:482,-0.4789,0.9314,7.5942,43.0111,-0.1735,-0.0147,0.0079,156.7188
10:22:56:499,-0.2225,1.2951,8.7003,43.2408,-0.0965,-0.3531,0.124,156.2344
10:22:56:522,0.3712,1.8051,9.5931,43.6511,0.011,-0.303,0.2187,156.2344
10:22:56:541,0.4406,2.2552,9.2195,43.6005,0.1594,0.1387,0.2016,156.2656
10:22:56:565,-0.2058,2.5137,7.9053,43.7957,0.2248,0.6854,0.0971,155.8281
10:22:56:582,-1.0199,2.5379,6.5169,44.0426,0.1051,1.0445,0.0257,155.8281
10:22:56:599,-1.2497,2.6001,6.2773,44.1538,-0.1216,1.014,0.0721,154.8906
10:22:56:620,-0.7756,2.7796,7.2111,44.3139,-0.2743,0.6799,0.182,154.8906
10:22:56:640,-0.4143,3.0619,8.6904,44.4725,-0.2779,0.2523,0.1949,153.6875
10:22:56:659,-0.4478,3.2321,9.9452,44.2421,-0.157,-0.0702,0.1032,153.6875
10:22:56:682,-0.3305,2.9925,10.6011,44.2454,0.0367,-0.273,-0.0049,152.4062
10:22:56:701,0.2776,2.3294,10.5628,44.5791,0.2278,-0.408,-0.1167,152.2812
10:22:56:724,0.376,1.5706,11.4844,44.9005,0.2718,-0.6218,-0.3323,151.6875
10:22:56:742,0.1531,1.2568,11.9297,44.9445,0.1564,-0.5339,-0.3647,151.625
10:22:56:760,0.2704,0.984,12.3272,45.1331,-0.0043,-0.3573,-0.314,151.5
10:22:56:782,0.6799,0.8907,12.1932,45.2611,-0.1924,-0.088,-0.2077,151.4844
10:22:56:799,1.0271,0.984,12.6553,45.5795,-0.4471,0.0611,-0.1613,151.1875
10:22:56:820,1.0893,0.7732,13.2084,45.8618,-0.6402,0.1912,-0.1973,151.1562
10:22:56:839,0.6823,0.3209,12.5234,46.0408,-0.6151,0.3457,-0.2254,150.8594
10:22:56:860,0.5028,0.0024,11.4054,46.13,-0.4203,0.3439,-0.1313,150.5156
10:22:56:882,0.5985,0.189,10.3783,45.8486,-0.1203,0.2254,0.0623,150.5156
10:22:56:899,1.1779,0.8186,9.5213,45.9655,0.2083,0.0635,0.2413,149.8594
10:22:56:919,1.9175,1.6113,8.4057,45.9551,0.4325,-0.0373,0.2578,149.8594
10:22:56:939,2.126,2.1763,7.168,46.1243,0.4013,-0.0959,0.0403,149.7969
10:22:56:959,1.7142,2.1069,6.3108,46.042,0.0922,-0.0599,-0.325,149.6875
10:22:56:982,0.754,1.6591,6.3491,46.1147,-0.3378,0.033,-0.6799,149.6875
10:22:57:000,-0.2345,1.2927,6.7418,46.0369,-0.6793,0.1466,-0.8931,150.3438
10:22:57:022,-1.0558,1.0989,7.0843,46.137,-0.857,0.2633,-0.9511,150.3438
10:22:57:040,-1.4892,1.0965,7.3834,46.3126,-0.9157,0.3952,-0.8906,151.375
10:22:57:058,-1.3454,1.2855,8.0369,46.3367,-0.9315,0.5546,-0.7709,151.9375
10:22:57:080,-1.0989,1.6496,8.6593,46.3939,-0.9187,0.7947,-0.6817,151.9375
10:22:57:099,-1.2808,1.9032,8.8367,46.5471,-0.8686,1.0036,-0.6591,152
10:22:57:120,-1.6065,1.9463,9.0281,46.5659,-0.7758,0.9474,-0.6701,152
10:22:57:140,-1.908,1.8003,9.5788,46.6338,-0.6145,0.6145,-0.678,152.0312
10:22:57:159,-1.9463,1.6854,10.491,46.7384,-0.3702,0.2046,-0.6334,152.0312
10:22:57:181,-1.6232,1.7285,11.7215,46.5997,-0.0782,-0.0935,-0.5492,151.7188
10:22:57:200,-1.4414,1.8099,12.3607,46.6688,0.2065,-0.1155,-0.4777,151.6875
10:22:57:221,-1.7501,1.8529,12.1837,46.7354,0.4276,0.0623,-0.4209,151.625
10:22:57:242,-2.5594,1.8266,11.2953,46.8377,0.5345,0.1613,-0.1802,151.625
10:22:57:260,-2.5208,1.9463,11.8125,46.6323,0.482,-0.0464,0.0324,152.5625
10:22:57:281,-2.1428,2.0112,12.3105,46.6225,0.4856,-0.1851,0.2798,152.6406
10:22:57:301,-1.7716,2.2002,12.3057,46.7854,0.5656,-0.1649,0.4661,154.0312
10:22:57:321,-1.8912,2.3701,11.4772,46.6893,0.6597,-0.0452,0.5278,154.1719
10:22:57:339,-2.1595,2.4897,10.7806,46.6294,0.6732,-0.055,0.4881,155.2656
10:22:57:359,-2.3725,2.3031,10.759,46.3409,0.5253,-0.3592,0.3744,156.1406
10:22:57:383,-2.5259,1.774,12.2722,45.9703,0.2816,-0.9303,0.2578,156.1406
10:22:57:400,-2.7508,1.0319,13.4237,46.1045,0.1778,-1.1808,0.2529,157.125
10:22:57:420,-2.8226,0.3401,12.4852,46.2468,0.3262,-0.8619,0.4142,157.125
10:22:57:439,-2.5977,0.5698,10.8978,46.0795,0.6127,-0.4099,0.6927,157.2188
10:22:57:459,-1.8745,1.5897,9.9093,45.8229,0.846,-0.2388,0.9212,158.3594
10:22:57:484,-1.0271,2.5475,9.3538,45.6775,0.9291,-0.3268,0.9645,158.3594
10:22:57:500,-0.122,2.8777,8.8367,45.6917,0.868,-0.4484,0.8002,159.5625
10:22:57:520,0.3736,2.6647,8.4655,45.7928,0.7147,-0.5266,0.474,159.5781
10:22:57:541,0.28,2.1452,8.0393,46.1159,0.5369,-0.493,0.1124,160.5312
10:22:57:559,-0.1675,1.7213,7.599,45.9071,0.3653,-0.4526,-0.149,160.5469
10:22:57:582,-0.4645,1.6567,7.6612,45.9137,0.2126,-0.5021,-0.2504,160.5469
10:22:57:599,-0.0694,1.9439,8.3674,46.0565,0.1155,-0.5846,-0.2333,159.8906
10:22:57:622,0.2584,2.1595,8.9539,46.0932,0.1234,-0.5754,-0.19,159.8906
10:22:57:641,0.1555,2.2433,9.1621,46.2768,0.2101,-0.3916,-0.1399,159.375
10:22:57:660,-0.1866,2.2433,8.7649,46.1649,0.3537,-0.0531,-0.0757,159.375
10:22:57:685,-0.5483,2.3174,8.3291,46.3607,0.5156,0.2847,-0.0037,159.0781
10:22:57:701,-0.5052,2.6001,8.2095,46.262,0.6573,0.4942,0.0764,159.0469
10:22:57:721,-0.1866,2.9686,8.5493,46.2673,0.7575,0.5638,0.1429,158.2656
10:22:57:740,0.1699,3.3063,9.0879,46.134,0.8069,0.5608,0.146,158.1875
10:22:57:759,0.1484,3.414,9.3826,45.9936,0.8082,0.4551,0.0666,156.8438
10:22:57:785,0.4214,2.8155,9.8949,45.8853,0.741,0.0464,-0.0727,156.7031
10:22:57:800,0.6129,2.6192,10.4264,45.6419,0.6756,-0.1533,-0.1326,155.9375
10:22:57:820,0.4597,2.7508,10.7973,45.7641,0.5705,-0.0702,-0.1423,155.8594
10:22:57:839,0.2608,3.0835,10.2586,45.5502,0.4355,0.3415,-0.0623,156.2031
10:22:57:859,0.3951,3.3733,8.9372,45.2444,0.2621,0.8106,0.0525,156.9219
10:22:57:884,0.7493,3.5815,8.0297,45.0005,0.022,0.9132,0.08,156.9219
10:22:57:899,0.8282,3.6775,8.4655,45.0378,-0.2743,0.4942,-0.055,157.5
10:22:57:919,0.5483,3.3135,9.8207,45.0868,-0.5699,-0.0654,-0.2651,157.5
10:22:57:940,0.1555,2.6934,10.5844,45.043,-0.7526,-0.2883,-0.3415,157.5469
10:22:57:959,0.1627,2.2361,10.3376,44.961,-0.7593,-0.1417,-0.2285,157.8438
10:22:57:982,0.5841,2.2552,9.7271,44.5729,-0.6347,0.0281,-0.0727,157.8438
10:22:58:000,1.3382,2.4778,9.5907,44.6078,-0.4526,0.022,-0.0214,157.8594
10:22:58:022,1.6831,2.569,9.6888,44.746,-0.3079,-0.0678,-0.1497,157.8594
10:22:58:041,1.2138,2.3581,9.1717,45.0281,-0.2541,-0.0611,-0.3659,157.9219
10:22:58:059,0.3185,1.963,8.2478,44.8293,-0.2785,0.0318,-0.5046,158.4062
10:22:58:085,-0.5913,1.817,7.2733,44.6629,-0.3317,0.1295,-0.4587,158.4062
10:22:58:099,-0.7947,2.0734,6.44,44.5466,-0.3677,0.2401,-0.2193,159.1094
10:22:58:121,-0.3616,2.6551,5.9901,44.4836,-0.3873,0.3073,0.058,159.1094
10:22:58:141,0.0048,3.4427,6.1887,44.5221,-0.4062,0.2614,0.2046,159.125
10:22:58:159,0.1388,4.089,6.7298,44.3839,-0.4056,0.1478,0.1991,159.125
10:22:58:181,0.431,4.2664,7.3857,44.2323,-0.3641,-0.055,0.0806,158.75
10:22:58:201,0.5171,4.0603,8.2932,44.0843,-0.2975,-0.317,-0.1112,158.75
10:22:58:222,0.201,3.7493,9.2725,44.0683,-0.2132,-0.5253,-0.2566,159.0312
10:22:58:242,-0.1914,3.6703,9.6338,44.1829,-0.1112,-0.4734,-0.2541,159.0469
10:22:58:259,-0.0287,3.7564,9.6338,44.3804,-0.0385,-0.295,-0.1539,158.9688
10:22:58:282,0.5602,4.0627,9.8662,44.4178,-0.0367,-0.1228,-0.0733,158.9688
10:22:58:301,-0.0718,4.331,10.3161,44.462,-0.2944,0.3176,-0.1906,158.9219
10:22:58:321,-0.4621,4.0364,10.7471,44.4388,-0.4233,0.2633,-0.2236,158.9062
10:22:58:339,-0.4478,3.7445,11.5397,44.5159,-0.4752,-0.0421,-0.1833,159.625
10:22:58:358,-0.4597,3.6269,12.5402,44.5629,-0.4233,-0.3244,-0.099,160.125
10:22:58:383,-0.6081,3.4164,12.7965,44.5714,-0.2932,-0.2242,-0.0092,160.125
10:22:58:401,-1.1779,3.1651,11.9106,44.5252,-0.1319,0.2181,0.0733,160.1719
10:22:58:467,-1.7955,3.1675,10.7997,44.4196,0.0391,0.6133,0.1735,159.625
10:22:58:467,-1.8984,3.2991,10.1318,44.5983,0.2101,0.6951,0.2859,159.5625
10:22:58:468,-1.3884,3.2106,9.8638,44.4473,0.3433,0.5009,0.317,159.0469
10:22:58:480,-1.1874,2.7485,10.1653,44.4412,0.4282,0.0336,0.204,158.9844
10:22:58:501,-1.3908,2.0997,10.9795,44.4583,0.4893,-0.4832,0.0794,159.3125
10:22:58:520,-1.7548,1.7118,11.3145,44.3666,0.5382,-0.5766,0.1057,159.3125
10:22:58:541,-1.5849,1.5897,10.5628,44.2877,0.5345,-0.1264,0.2822,159.7969
10:22:58:558,-1.2162,1.8314,9.4304,44.4159,0.4178,0.3793,0.4264,159.9531
10:22:58:582,-0.7229,2.2504,9.1382,44.4489,0.1985,0.408,0.4325,159.9531
10:22:58:602,-0.3257,2.2863,9.3347,44.3998,-0.0544,0.1038,0.3225,160.125
10:22:58:622,-0.419,1.7405,9.0616,44.7305,-0.2902,-0.0379,0.1888,160.125
10:22:58:640,-0.7181,1.3071,8.2908,44.8871,-0.4642,0.1258,0.1435,160.1719
10:22:58:660,-0.9769,1.2712,7.4839,44.856,-0.5455,0.3934,0.2114,160.1719
10:22:58:682,-0.6727,1.5706,7.046,44.8589,-0.5351,0.5528,0.3512,159.9688
10:22:58:701,-0.1077,2.2289,7.3187,44.9301,-0.4636,0.4691,0.4563,159.9688
10:22:58:722,0.1842,2.8537,8.0465,44.7626,-0.3518,0.2309,0.4459,159.5
10:22:58:741,0.1077,3.1436,8.7482,44.8649,-0.1808,-0.0281,0.3347,159.4375
10:22:58:759,-0.1364,3.1005,9.0736,44.9996,0.0299,-0.1472,0.1668,159.1094
10:22:58:782,-0.5004,2.8705,8.6498,44.7523,0.2046,-0.0312,-0.0024,159.0781
10:22:58:802,-0.9553,2.7054,7.9484,44.5102,0.1845,0.2395,-0.0525,159.2812
10:22:58:822,-1.2305,2.703,7.5918,44.4297,0.0342,0.0831,0.055,159.3125
10:22:58:839,-1.0271,2.8729,7.9531,44.2222,-0.1252,-0.1405,0.146,158.8594
10:22:58:859,-0.5961,3.2489,9.2797,44.1341,-0.2431,-0.1698,0.1869,158.8125
10:22:58:885,-0.2177,3.1986,9.6123,44.1076,-0.2785,-0.1332,0.179,158.0469
10:22:58:899,0.5937,2.9471,10.194,43.8193,-0.2272,-0.2865,0.1014,157.9688
10:22:58:920,1.1611,2.5259,11.0178,43.5931,-0.1429,-0.5559,-0.0776,157.4062
10:22:58:941,1.008,1.8745,11.5205,43.6712,-0.088,-0.6615,-0.2712,157.3438
10:22:58:959,0.7828,1.4294,11.6641,43.6993,-0.066,-0.6475,-0.3231,156.3594
10:22:58:980,1.0989,1.3334,11.6785,43.8223,-0.0739,-0.6218,-0.1839,156.2656
10:22:59:000,1.6424,1.5826,11.8364,44.0734,-0.1216,-0.6145,0.0183,154.9062
10:22:59:022,2.0471,1.7668,11.8005,43.972,-0.1869,-0.5925,0.1228,154.8906
10:22:59:040,2.0255,1.7548,11.3001,43.9249,-0.2443,-0.4875,0.0886,154.3125
10:22:59:059,1.6902,1.6328,10.6202,44.1929,-0.2755,-0.3726,0.0171,154.5469
10:22:59:085,1.7189,1.64,10.3929,44.1239,-0.2621,-0.306,-0.0012,154.5469
10:22:59:101,2.0399,1.7333,10.436,43.9821,-0.2303,-0.2065,-0.0189,154.5938
10:22:59:120,2.3342,1.8984,10.6561,44.0269,-0.204,-0.1326,-0.1063,154.5938
10:22:59:140,2.3174,1.8912,10.1892,43.6018,-0.1985,-0.0244,-0.2743,154.1406
10:22:59:160,1.7046,1.439,8.9898,43.3003,-0.2388,0.1252,-0.471,154.1406
10:22:59:182,0.8883,0.9912,7.9268,43.4221,-0.2944,0.1393,-0.5889,153.7031
10:22:59:202,0.2489,0.7301,7.1225,43.4527,-0.3225,0.0727,-0.5687,153.7031
10:22:59:222,-0.1484,0.6942,6.6269,43.0989,-0.3115,0.0702,-0.4386,154.0938
10:22:59:241,-0.2776,0.7421,6.2821,43.2528,-0.2669,0.1875,-0.2663,154.1406
10:22:59:259,-0.352,0.9601,5.8774,43.2114,-0.2193,0.4948,-0.1032,154.7188
10:22:59:285,-0.3832,1.4462,5.5759,43.1106,-0.1997,0.923,0.0324,154.7812
10:22:59:302,-0.699,2.1954,5.6429,43.2801,-0.2077,1.1759,0.1246,154.6719
10:22:59:322,-1.1061,3.9503,7.3905,43.4101,-0.2388,0.562,0.1649,154.6719
10:22:59:341,-0.6559,4.4124,9.0329,43.2259,-0.3005,0.1258,0.022,154.5
10:22:59:359,-0.3688,4.2305,10.6729,43.0795,-0.4093,-0.1332,-0.2847,154.4844
10:22:59:381,-0.754,3.4642,11.8077,43.0077,-0.5467,-0.2309,-0.6615,154.4219
10:22:59:398,-1.5897,2.5379,12.6577,42.7294,-0.6817,-0.3677,-0.9157,154.4219
10:22:59:419,-2.3486,1.9175,13.8811,42.5649,-0.7953,-0.5553,-0.865,154.7031
10:22:59:439,-2.0423,1.5921,15.0278,42.3296,-0.8253,-0.5852,-0.4404,154.7344
10:22:59:459,-0.996,1.4844,15.4325,42.1204,-0.7214,-0.3775,0.1173,155.6406
10:22:59:481,-0.8644,1.6017,15.1858,41.8229,-0.5064,0.0018,0.5235,155.7188
10:22:59:499,-1.1874,1.6807,14.1251,41.7668,-0.1973,0.4215,0.7788,156.6406
10:22:59:520,-1.4486,1.6926,12.5928,41.4906,0.1222,0.7727,0.923,156.6562
10:22:59:539,-1.7836,1.9008,11.281,41.1989,0.3415,0.981,0.9731,156.875
10:22:59:558,-2.1332,2.0471,10.6298,40.9358,0.4398,0.7587,0.9486,156.4688
10:22:59:581,-1.7883,1.5347,10.8858,40.4009,0.4581,-0.0177,0.8662,156.4688
10:22:59:599,-1.439,0.8091,11.9321,40.1073,0.4423,-0.9169,0.7752,155.875
10:22:59:620,-1.0822,0.1388,11.9776,39.628,0.4319,-1.0555,0.802,155.875
10:22:59:639,-0.6511,0.0144,11.3432,39.3914,0.4013,-0.5156,0.8937,155.9062
10:22:59:659,-0.5674,0.5363,10.8476,38.989,0.3476,-0.0757,0.9193,155.9062
10:22:59:682,-0.4765,0.8692,10.2969,38.7007,0.292,0.1118,0.8717,157.25
10:22:59:699,-0.28,0.8354,9.4615,38.6372,0.2315,0.2431,0.7947,157.25
10:22:59:719,-0.2321,0.6918,8.5014,38.3761,0.171,0.3738,0.7153,158.1875
10:22:59:740,-0.3473,0.687,7.5054,38.3891,0.1295,0.5351,0.6744,158.1875
10:22:59:758,-0.419,0.7062,6.5097,38.4421,0.1057,0.7074,0.6817,157.2031
10:22:59:782,-0.1364,0.778,6.0045,38.3407,0.1002,0.719,0.6915,157.1094
10:22:59:799,0.8258,0.9194,6.5336,38.1292,0.1374,0.4337,0.6487,155.3906
10:22:59:821,1.3669,1.2855,7.9388,38.2101,0.4936,0.0794,0.4746,155.2344
10:22:59:840,-0.3736,1.841,8.0776,38.0959,0.7807,0.6163,0.5241,153.5312
10:22:59:859,-0.2177,1.7644,6.9547,37.7879,1.036,1.0323,0.5595,153.3594
10:22:59:882,-0.1986,2.1787,6.5695,37.7132,1.1392,1.1307,0.4264,152
10:22:59:898,-0.3855,2.9279,6.8447,37.668,1.0391,1.0128,0.1643,151.875
10:22:59:918,-0.4789,3.4881,7.4408,37.4507,0.7348,0.4795,-0.1038,150.4844
10:22:59:939,-0.1053,3.39,9.4304,37.549,0.2614,-0.4233,-0.3146,150.3438
10:22:59:959,0.1938,2.77,11.324,37.4424,-0.2596,-0.8601,-0.4978,148.7344
10:22:59:980,-0.2776,1.9463,12.0206,37.0875,-0.7061,-0.6536,-0.6744,148.5781
10:22:59:998,-1.2736,1.3143,12.2219,36.8678,-0.9877,-0.3396,-0.741,147.125
10:23:00:020,-1.4629,1.0678,12.4445,36.8669,-1.058,-0.1203,-0.595,146.9844
10:23:00:040,-0.6607,1.4151,13.1339,36.4041,-0.9377,-0.0354,-0.325,145.4531
10:23:00:058,0.3162,2.0734,13.9744,36.3213,-0.7104,0.0458,-0.1558,143.9375
10:23:00:079,1.0415,2.1643,14.0964,36.11,-0.474,0.1289,-0.2657,143.9375
10:23:00:098,1.0845,1.6232,13.8045,36.0524,-0.2938,0.0061,-0.62,143.0469
10:23:00:120,0.5722,0.6751,13.4213,35.8787,-0.171,-0.2932,-0.9627,143.0469
10:23:00:139,-0.0766,-0.2728,12.2889,35.9405,-0.0507,-0.3824,-1.0232,142.25
10:23:00:158,-0.1412,-0.7062,11.056,35.8375,0.0947,-0.2895,-0.7776,142.25
10:23:00:180,-0.0814,-0.4262,10.5078,35.7657,0.2401,-0.2541,-0.4416,142.0469
10:23:00:199,0.1723,0.3975,10.4097,36.0943,0.3506,-0.2437,-0.1735,142.0469
10:23:00:220,1.1659,0.9745,10.2299,36.0406,0.4282,-0.1924,-0.0483,142.875
10:23:00:240,1.7166,1.1061,9.4759,35.7614,0.4392,0.0458,-0.124,142.875
10:23:00:259,1.2233,1.0917,7.9101,35.7658,0.3567,0.4917,-0.3066,143.9531
10:23:00:280,0.0622,1.0893,6.3706,35.9667,0.2169,0.8246,-0.4343,144.0625
10:23:00:299,-0.8163,1.2688,5.5017,35.8276,0.0794,0.8509,-0.4074,144.7812
10:23:00:319,-0.862,1.6256,5.4538,35.917,-0.0275,0.6536,-0.2602,144.8594
10:23:00:341,-0.0239,2.4538,6.9452,35.8004,-0.091,0.3305,-0.1264,144.7969
10:23:00:359,0.2273,2.7556,7.3786,35.7072,-0.0971,0.1307,-0.1264,144.7812
10:23:00:383,0.1603,2.8872,7.6564,35.4902,-0.0757,0.1509,-0.2376,145.3906
10:23:00:399,-0.0574,2.9255,8.0776,35.8344,-0.0702,0.0812,-0.3854,145.4531
10:23:00:418,-0.3449,2.7652,8.7242,35.9065,-0.0751,-0.0959,-0.5033,147.4062
10:23:00:438,-0.4454,2.4634,9.4998,35.8498,-0.0666,-0.2321,-0.5235,147.6094
10:23:00:459,-0.9051,2.3773,10.1318,35.9381,-0.0367,-0.1692,-0.4539,148.9844
10:23:00:504,-1.386,2.5451,10.2084,35.9069,0.0061,0.0605,-0.3054,149.125
10:23:00:504,-1.4151,2.8848,10.3161,35.9148,0.0452,0.1662,-0.0935,149.6406
10:23:00:518,-0.9458,3.3326,10.5604,35.7491,0.0745,0.1698,0.1381,149.6875
10:23:00:539,-0.8234,3.7397,10.5915,35.8941,0.091,0.2352,0.2773,150.4062
10:23:00:559,-1.319,3.8402,10.491,35.8679,0.1112,0.2297,0.2981,151.2969
10:23:00:580,-1.5108,3.4235,10.3834,35.5466,0.1503,0.1075,0.2785,151.2969
10:23:00:599,-1.4749,2.9207,10.1845,35.3539,0.1545,0.0867,0.2266,151.5938
10:23:00:619,-1.7094,2.7197,10.261,35.0699,0.0605,0.0629,0.157,151.5938
10:23:00:639,-1.9199,2.6456,10.8188,35.1359,-0.1142,-0.2547,0.1112,151.7188
10:23:00:658,-1.7309,2.2241,12.1525,35.1359,-0.306,-0.887,0.0709,151.7188
10:23:00:683,-1.5108,1.4318,13.6176,35.0763,-0.4313,-1.3562,0.0214,152.3281
10:23:00:699,-1.7118,0.2632,13.3448,34.9203,-0.4142,-1.2199,0.0367,152.3281
10:23:00:719,-2.2863,-0.376,11.8029,34.9193,-0.27,-0.5968,0.2132,153.4219
10:23:00:740,-2.2409,0.0574,10.3161,35.153,-0.0635,-0.0538,0.5516,153.4219
10:23:00:759,-1.3573,1.118,10.1318,35.2704,0.157,0.0428,0.8582,154.1719
10:23:00:780,-0.3879,2.0183,10.3472,35.5479,0.3366,-0.0641,0.901,154.25
10:23:00:799,0.1316,2.2481,9.8686,35.4945,0.4251,-0.0617,0.6817,154.2344
10:23:00:820,0.055,1.951,9.0784,35.5739,0.3995,0.0171,0.35,154.2344
10:23:00:841,-0.9075,1.1707,7.5102,35.9495,0.146,0.2749,-0.0232,153.7188
10:23:00:860,-1.2975,1.0965,6.804,36.174,0,0.4374,0.0153,153.6562
10:23:00:886,-1.4294,1.319,6.5743,36.0489,-0.1179,0.4673,0.1435,153.25
10:23:00:901,-1.252,1.6591,6.7729,35.9269,-0.1839,0.3561,0.2914,153.2188
10:23:00:920,-0.6248,1.9872,7.3881,36.0042,-0.1863,0.2052,0.4038,152.9375
10:23:00:939,-0.2656,2.3366,7.8646,35.8858,-0.1271,0.1985,0.4447,152.9062
10:23:00:959,-0.4549,2.4371,7.3714,36.0341,-0.0287,0.427,0.4203,152.7031
10:23:00:980,-0.8859,2.5161,6.7059,35.983,0.0751,0.6096,0.3885,152.6719
10:23:01:002,-0.7181,2.5331,6.591,35.8984,0.1692,0.5143,0.3818,152.2969
10:23:01:019,0.0622,2.5618,7.2422,36.203,0.2321,0.2382,0.3561,152.2656
10:23:01:039,0.4669,2.9901,8.7434,36.4249,0.223,-0.0067,0.2321,150.7656
10:23:01:058,0.4621,3.3063,10.4049,36.6399,0.1209,-0.2144,-0.0006,149.2969
10:23:01:080,0.6033,2.959,12.0015,36.6446,-0.0452,-0.532,-0.2969,149.2969
10:23:01:101,0.5435,2.1141,12.9879,36.8634,-0.2566,-0.6689,-0.5919,149.0469
10:23:01:122,0.0048,1.2138,13.2467,37.1782,-0.4795,-0.5094,-0.7709,149.0469
10:23:01:141,-0.4478,0.565,13.395,37.6808,-0.667,-0.3598,-0.7348,149.0312
10:23:01:159,-0.2922,0.3473,13.608,37.7696,-0.7794,-0.2541,-0.4813,149.0312
10:23:01:180,0.3568,0.5674,13.6726,37.772,-0.7984,-0.1271,-0.1674,148.3594
10:23:01:203,0.9027,0.7612,13.759,37.9726,-0.7355,-0.1026,-0.0177,148.3594
10:23:01:221,0.9434,0.4597,13.3926,38.2194,-0.5974,-0.1258,-0.066,147.2656
10:23:01:241,0.7421,-0.0167,12.2722,38.5037,-0.3714,-0.077,-0.1277,147.2656
10:23:01:259,0.5554,-0.2154,10.8954,38.9077,-0.0715,0.0171,-0.0544,146.2812
10:23:01:281,0.6368,0.0383,9.7989,38.7322,0.2297,0.1026,0.1161,146.2812
10:23:01:303,1.0391,0.8139,9.4639,38.5908,0.4594,0.1081,0.2535,145.5938
10:23:01:320,1.9705,1.5227,9.507,38.8947,0.5815,0.069,0.2346,145.5156
10:23:01:340,2.4036,1.7142,8.9468,38.8985,0.5693,0.1313,0.011,145.4375
10:23:01:360,1.7692,1.5993,7.7019,39.129,0.1888,0.4032,-0.5736,145.4219
10:23:01:387,0.3592,1.4486,6.5025,39.1581,-0.0415,0.3561,-0.6451,146.3281
10:23:01:399,-1.0056,1.4342,5.7338,39.2664,-0.2211,0.2297,-0.5217,146.4219
10:23:01:419,-0.6009,1.7501,6.2414,39.2507,-0.3421,0.0983,-0.3396,147.625
10:23:01:439,-0.1866,2.1595,6.9476,39.5077,-0.4062,0.0092,-0.2492,147.75
10:23:01:459,-0.0766,2.4945,7.6923,39.9703,-0.4056,-0.066,-0.2883,147.9062
10:23:01:480,-0.2776,2.7102,8.6115,40.0593,-0.3372,-0.1814,-0.3909,147.9219
10:23:01:502,-0.5818,2.6504,9.294,40.3337,-0.2223,-0.2779,-0.4899,147.5781
10:23:01:519,-0.9218,2.4562,9.9547,40.4551,-0.1038,-0.3128,-0.5492,147.5469
10:23:01:541,-1.0558,2.2457,10.7016,40.6574,0.014,-0.336,-0.5449,147.5781
10:23:01:558,-1.209,2.0806,11.5684,41.0027,0.1381,-0.339,-0.4673,147.4219
10:23:01:580,-1.4677,2.0782,12.1262,41.2157,0.2669,-0.2052,-0.3195,147.4219
10:23:01:601,-1.6974,2.2217,12.21,41.3037,0.3836,-0.025,-0.1161,147.5469
10:23:01:621,-1.5586,2.5379,11.9584,41.5465,0.4801,0.1246,0.1454,147.5469
10:23:01:640,-0.9745,3.0739,11.6258,41.7407,0.5479,0.2431,0.4197,148.6875
10:23:01:659,-0.3305,3.5264,11.3216,42.0531,0.5534,0.3005,0.5766,148.6875
10:23:01:680,-0.4501,3.7564,10.9409,42.199,0.5168,0.3036,0.554,149.8281
10:23:01:702,-0.8354,3.548,10.1653,42.6724,0.485,0.2932,0.438,149.8281
10:23:01:721,-1.2401,3.2177,9.6625,42.7518,0.3983,0.1961,0.3128,150.1875
10:23:01:740,-1.5514,3.0212,9.5333,42.9013,0.1564,0.124,0.2211,150.1875
10:23:01:759,-1.4797,2.7867,10.7399,43.3096,-0.2541,-0.0739,0.1484,150.6562
10:23:01:780,-1.2616,2.1356,13.3376,43.5167,-0.6182,-0.4642,0.0452,150.6562
10:23:01:801,-1.2209,0.7828,14.0868,43.8399,-0.6353,-0.7373,-0.0385,151.6094
10:23:01:821,-1.6113,-0.699,12.7104,43.8821,-0.3854,-0.6096,0.0324,151.7031
10:23:01:840,-2.0064,-0.9912,10.9627,44.0506,-0.0525,-0.0916,0.3115,152.7812
10:23:01:859,-1.8817,-0.0479,9.8566,44.2618,0.2724,0.3555,0.6762,152.8906
10:23:01:881,-0.1077,2.3174,9.143,44.4916,0.6328,0.5357,0.8876,153.5625
10:23:01:902,0.3927,2.6958,7.6708,44.8784,0.5302,0.5186,0.5925,153.625
10:23:01:922,-0.0622,2.6719,7.3187,45.1441,0.1936,0.3195,0.2107,153.4062
10:23:01:939,-0.8477,2.3509,7.9125,45.1388,-0.2242,0.1686,-0.066,153.375
10:23:01:959,-1.3238,1.8745,8.5038,45.3236,-0.5027,0.0238,-0.1796,152.5938
10:23:01:980,-1.4773,1.3813,8.8367,45.7573,-0.573,-0.0874,-0.1662,152.5156
10:23:02:003,-1.4844,1.0247,8.5923,46.0074,-0.4667,-0.0434,-0.0476,152.0312
10:23:02:019,-1.4438,1.0367,8.3339,46.1488,-0.2651,0.0409,0.1264,151.9844
10:23:02:040,-1.118,1.3549,8.1401,46.3544,-0.0312,0.1191,0.2981,151.5781
10:23:02:059,-0.6511,1.8721,8.2597,46.4877,0.1912,0.1252,0.4013,151.1406
10:23:02:081,-0.2465,2.2504,8.5923,46.4426,0.3763,0.0831,0.3946,151.1406
10:23:02:101,0,2.2863,8.8295,46.6111,0.5198,0.0483,0.2865,150.6406
10:23:02:121,-0.1579,2.1188,8.875,46.8036,0.6084,0.0452,0.1307,150.6406
10:23:02:141,-0.5459,1.9944,8.8678,46.7662,0.6292,0.0519,0.0189,149.125
10:23:02:159,-0.5913,2.126,9.2387,46.9367,0.5858,0,-0.0024,149.125
10:23:02:181,-0.0144,2.0375,9.8327,46.862,0.5003,-0.0709,0.0147,147.8281
10:23:02:201,0.486,1.7979,10.3639,47.1533,0.4007,-0.1387,-0.0147,147.8281
10:23:02:221,0.5339,1.6496,10.7782,47.4353,0.3115,-0.1814,-0.0825,147.5938
10:23:02:242,0.3473,1.6089,11.0034,47.5237,0.2291,-0.1545,-0.1448,147.5938
10:23:02:259,0.2201,1.5586,10.989,47.7441,0.1326,-0.0837,-0.1613,147.5625
10:23:02:279,0.4214,1.5586,10.9819,47.8595,0.0067,-0.0006,-0.1075,147.5625
10:23:02:303,0.6894,1.7022,11.5708,48.1657,-0.1472,-0.047,-0.0324,147.2188
10:23:02:320,0.8282,1.8817,13.0454,48.1182,-0.273,-0.1894,0.0049,147.2031
10:23:02:341,0.9601,1.5443,13.4261,48.2878,-0.2254,-0.0806,0.0159,146.5312
10:23:02:359,0.8402,1.1444,12.5641,48.1663,0.0159,0.157,0.0531,146.4688
10:23:02:382,0.6416,1.3358,11.0608,47.9965,0.5626,0.2511,0.2718,146.0781
10:23:02:404,0.6296,1.9606,9.4902,48.1331,0.5498,0.0415,0.339,146.0469
10:23:02:421,1.2138,2.7006,8.5325,48.0735,0.3183,-0.0556,0.2462,146.3125
10:23:02:442,1.908,3.2465,8.3889,48.0957,0.0195,0.1234,-0.0171,146.3438
10:23:02:458,1.13,2.9375,7.3235,47.9449,-0.1814,0.3647,-0.3152,146.7188
10:23:02:479,0.1986,2.6145,6.5408,47.9888,-0.2547,0.4068,-0.5186,146.7656
10:23:02:502,-0.4717,2.4467,5.9518,48.0504,-0.2419,0.2547,-0.5736,147.1406
10:23:02:578,-0.6344,2.5137,5.9064,48.1339,-0.2022,-0.0128,-0.5278,147.1875
10:23:02:579,-0.3209,2.8537,6.4762,48.0042,-0.1778,-0.2566,-0.4728,147.6406
10:23:02:580,-0.0239,3.201,7.0508,47.9071,-0.1949,-0.3292,-0.4893,147.7969
10:23:02:580,0.1603,3.3589,7.503,47.8162,-0.2608,-0.2578,-0.5821,147.7969
10:23:02:599,0.0072,3.402,8.3937,47.9606,-0.3494,-0.1924,-0.7092,147.625
10:23:02:620,-0.3784,3.1723,9.0568,47.9725,-0.3873,-0.091,-0.8149,147.625
10:23:02:640,-0.5315,2.7843,9.5022,47.9312,-0.3433,-0.0086,-0.8448,147.4688
10:23:02:659,-0.6464,2.6695,9.8085,47.8046,-0.2724,0.0519,-0.8002,147.4688
10:23:02:680,-1.0487,2.7939,10.1175,47.9365,-0.2456,0.1338,-0.7043,147.1875
10:23:02:703,-1.7931,3.0021,10.6896,48.1182,-0.2743,0.2107,-0.5559,147.1875
10:23:02:720,-2.0877,3.0885,11.415,48.3651,-0.3005,0.2419,-0.3421,147.0469
10:23:02:740,-1.7812,3.0523,12.2483,48.4235,-0.2627,0.2285,-0.0971,147.0469
10:23:02:759,-1.051,3.1268,12.8587,48.4857,-0.1399,0.2468,0.1326,147.6719
10:23:02:780,-0.4238,3.5671,12.7104,48.5545,0.0513,0.3219,0.2816,147.6719
10:23:02:804,-0.5171,3.9383,11.6498,48.6399,0.2437,0.4038,0.2914,148.5781
10:23:02:821,-1.1827,3.9933,10.1127,48.8083,0.3354,0.3806,0.2046,148.6719
10:23:02:840,-1.8553,4.0053,9.2004,48.6408,0.2761,0.1631,0.1118,149.5625
10:23:02:859,-2.2217,3.6894,9.44,48.5574,0.0495,-0.1484,0.0232,149.6562
10:23:02:879,-2.1787,2.8825,11.1111,48.5006,-0.2639,-0.441,-0.0324,150.7656
10:23:02:903,-2.3151,0.9864,14.2089,48.6986,-0.2407,-0.2987,0.0367,150.8906
10:23:02:921,-2.9136,0.189,11.8962,48.332,0.2621,0.0837,0.2633,152.2969
10:23:02:940,-2.837,0.5889,9.1478,48.2635,0.7037,0.1857,0.6499,152.4219
10:23:02:958,-1.6208,1.8123,8.2789,48.2605,0.8228,-0.0782,0.9945,153.7344
10:23:02:979,-0.0526,2.8801,8.7123,47.9685,0.6591,-0.2895,1.0531,153.8594
10:23:03:004,1.0965,3.1699,9.4376,47.6751,0.3861,-0.2217,0.7965,154.5312
10:23:03:020,1.0343,2.8202,9.8013,47.556,0.1539,0.0171,0.3842,154.5938
10:23:03:039,-0.0263,2.2146,9.4783,47.1165,0.0684,0.2706,0.0391,154.3906
10:23:03:059,-0.9577,1.5873,8.6713,46.5864,0.1356,0.3934,-0.1075,153.8125
10:23:03:079,-1.4605,1.2808,7.6062,46.648,0.2364,0.394,-0.0586,153.8125
10:23:03:102,-1.5802,1.5658,7.314,46.3631,0.2431,0.2938,0.1155,153.6875
10:23:03:121,-1.1779,2.1811,7.7043,46.0307,0.2107,0.1997,0.3176,153.6875
10:23:03:141,-0.7181,2.6169,7.5341,46.0998,0.2584,0.1924,0.4282,153.6562
10:23:03:159,-0.5602,2.8801,6.9188,46.1757,0.3317,0.2181,0.4233,153.6562
10:23:03:180,-0.3568,3.1149,6.4496,45.9841,0.3323,0.2059,0.3744,153.4219
10:23:03:203,-0.2465,3.4307,6.3945,45.8906,0.2468,0.1594,0.2859,153.4219
10:23:03:221,-0.4813,3.7493,6.6963,45.7579,0.1014,0.1142,0.1521,152.7969
10:23:03:241,-0.9314,3.5862,7.6923,45.4555,-0.0525,0.0336,0.0031,152.7969
10:23:03:259,-1.5108,3.3039,8.5828,45.2499,-0.1216,-0.0593,-0.0678,151.2031
10:23:03:279,-1.4246,3.0212,9.6027,45.0626,-0.1002,-0.2278,-0.0195,151.2031
10:23:03:305,-0.4836,2.8825,10.6298,44.6475,-0.036,-0.4258,0.0727,150.1406
10:23:03:320,0.0167,2.9423,11.068,44.1768,-0.0098,-0.4991,0.0831,150.1406
10:23:03:341,0.0048,2.7341,11.4867,43.9336,-0.102,-0.4423,0.014,150.1875
10:23:03:359,-0.2704,1.9848,12.1238,43.8492,-0.2926,-0.2303,-0.0293,150.2031
10:23:03:379,-0.4597,1.4438,12.7869,43.8522,-0.4813,0.0733,0.0501,150.25
10:23:03:405,-0.2874,1.3406,13.5625,43.5882,-0.573,0.2847,0.2169,150.25
10:23:03:423,0.1651,1.7261,13.9959,43.3095,-0.5284,0.4001,0.3518,149.625
10:23:03:440,0.2776,1.3358,12.2698,43.0898,-0.0348,0.6689,0.3647,149.5781
10:23:03:459,0.3855,1.2162,10.0672,42.8373,0.19,0.689,0.3732,148.9688
10:23:03:479,0.6344,1.427,8.5564,42.8029,0.2059,0.4936,0.4148,148.9062
10:23:03:502,1.2329,2.1404,8.3148,42.697,0.0776,0.1283,0.4386,148.5625
10:23:03:521,1.707,2.6647,8.5205,42.4603,-0.088,-0.1264,0.3183,148.5312
10:23:03:539,1.7237,2.8178,8.4177,42.0924,-0.2132,-0.1484,0.0825,148.5312
10:23:03:559,1.1157,2.6527,7.8359,42.0671,-0.2981,-0.022,-0.1839,148.5156
10:23:03:580,0.3305,2.3773,7.0364,41.9718,-0.3787,0.146,-0.3622,148.5156
10:23:03:603,-0.1866,2.2146,6.5815,41.8684,-0.4294,0.1949,-0.3995,148.5156
10:23:03:621,-0.2369,2.406,6.7322,41.9854,-0.4178,0.0983,-0.3427,148.5156
10:23:03:642,-0.0239,2.8083,6.8016,41.93,-0.3464,0.0067,-0.2902,148.2031
10:23:03:659,0.1388,3.1603,6.792,41.7718,-0.2511,-0.0764,-0.3024,148.2031
10:23:03:680,0.2656,3.347,7.168,41.7925,-0.1918,-0.1906,-0.3635,147.0312
10:23:03:699,0.5076,3.4259,8.0393,41.7542,-0.19,-0.2584,-0.4306,147.0312
10:23:03:722,0.6344,3.5312,8.9085,41.4866,-0.2028,-0.2327,-0.4985,147.0156
10:23:03:741,0.4932,3.6269,9.5668,41.443,-0.1863,-0.1814,-0.5742,145.875
10:23:03:759,0.0622,3.603,10.1127,41.4336,-0.1387,-0.168,-0.6365,145
10:23:03:780,-0.201,3.4594,11.0393,41.1819,-0.0849,-0.1582,-0.6463,145
10:23:03:803,-0.5459,3.3781,12.047,41.008,-0.0397,-0.0189,-0.6011,144.1562
10:23:03:821,-1.0654,3.4427,12.3177,40.9317,-0.0159,0.3268,-0.5082,144.1562
10:23:03:841,-1.561,3.5264,11.9632,40.7474,0.0446,0.5913,-0.369,144.0781
10:23:03:860,-1.841,3.5551,11.7885,40.6585,0.1869,0.5192,-0.1875,144.0625
10:23:03:880,-1.6161,3.6221,11.7239,40.6485,0.3818,0.2401,0.0171,144.4531
10:23:03:904,-1.3789,3.766,11.3719,40.7482,0.5375,0.0055,0.1802,144.5
10:23:03:923,-1.13,3.8258,10.9217,40.5513,0.5864,-0.3445,0.2822,144.8125
10:23:03:943,-1.0391,4.0101,10.7183,40.4989,0.3885,-0.4368,0.1949,144.8438
10:23:03:960,-1.2377,3.3589,12.0254,40.4105,0.0214,-0.3928,0.0476,145.375
10:23:03:979,-1.7261,2.2265,14.051,40.5181,-0.2523,-0.2181,-0.044,145.4219
10:23:04:004,-2.5355,1.1348,14.4963,40.6122,-0.0874,0.0635,0.0104,146.25
10:23:04:021,-2.9734,0.443,11.8986,40.6548,0.4917,0.3726,0.2523,146.3281
10:23:04:040,-2.8178,0.874,8.0752,40.903,1.0458,0.449,0.598,147.4375
10:23:04:059,-2.2504,1.9391,5.7745,40.9922,1.1362,0.2046,0.8503,148.7656
10:23:04:080,-1.3095,2.904,5.9183,41.1933,0.7129,0.0275,0.9236,148.7656
10:23:04:105,-0.3473,3.3182,7.4551,41.1655,0.102,0.1869,0.8039,149.7969
10:23:04:120,-0.1651,3.0476,8.3483,41.3286,-0.3085,0.5461,0.5369,149.7969
10:23:04:140,-0.8258,2.2911,8.2908,41.3301,-0.4276,0.7819,0.2578,150.1719
10:23:04:159,-1.8218,1.829,7.855,41.3892,-0.3696,0.7544,0.1283,150.1719
10:23:04:181,-2.2433,1.6902,7.6325,41.6767,-0.2486,0.5443,0.1955,150.1875
10:23:04:204,-2.0279,1.8314,7.3786,41.9557,-0.0806,0.2895,0.3573,150.2031
10:23:04:222,-1.5538,2.2768,6.9715,41.9912,0.0647,0.0959,0.4881,150.2031
10:23:04:241,-1.1492,2.7389,6.8734,42.1613,0.0855,0.0189,0.5296,150.2031
10:23:04:260,-0.9314,3.038,6.9978,42.4699,0.0195,0.0684,0.4997,150.1719
10:23:04:281,-0.8306,3.0885,6.8973,42.5635,-0.0519,0.1631,0.4337,150.1719
10:23:04:303,-0.766,3.2608,6.9763,42.5982,-0.1301,0.1949,0.3665,150
10:23:04:321,-0.711,3.536,7.2039,42.7103,-0.2614,0.2535,0.3042,150
10:23:04:340,-0.8429,3.7086,7.7976,42.5909,-0.4361,0.339,0.2266,149.3594
10:23:04:359,-1.1396,3.6583,9.3347,42.5801,-0.5638,0.3054,0.1521,149.2812
10:23:04:379,-1.5658,3.28,10.8045,42.7389,-0.5339,0.234,0.1252,147.8594
10:23:04:404,-1.8697,2.9806,11.0871,43.0789,-0.3738,0.1949,0.1735,147.7188
10:23:04:422,-1.6591,2.6312,10.8236,43.2254,-0.2162,0.0513,0.2779,146.4219
10:23:04:442,-1.1085,2.6623,10.9579,43.5937,-0.1912,-0.4319,0.5064,146.2812
10:23:04:460,0.5411,2.916,11.9824,43.8532,-0.2834,-0.5473,0.5192,145.4844
10:23:04:481,1.6974,2.8011,12.8276,44.0097,-0.408,-0.5638,0.4465,145.4062
10:23:04:499,2.339,2.8178,14.2807,44.1003,-0.5046,-0.5492,0.2492,144.5
10:23:04:519,1.8075,2.3366,15.2456,44.1399,-0.4331,-0.4306,-0.055,144.4062
10:23:04:540,0.7851,1.2664,14.5035,44.372,-0.1387,-0.1906,-0.2975,143.4062
10:23:04:559,0.2106,0.5387,12.4804,44.3135,0.2376,0.0428,-0.3329,142.3594
10:23:04:636,0.3616,0.7134,10.2323,44.4851,0.493,0.1515,-0.2095,142.3594
10:23:04:637,1.008,1.3813,8.5445,44.6981,0.5663,0.0458,-0.1112,141.2344
10:23:04:637,1.6783,1.8864,8.0847,44.862,0.4649,-0.223,-0.1576,141.2344
10:23:04:640,2.1117,2.0112,8.3842,44.9841,0.27,-0.3952,-0.3335,140.3125
10:23:04:659,1.8505,1.8505,8.4751,45.4409,0.0751,-0.2669,-0.595,140.3125
10:23:04:680,0.8524,1.5586,7.7043,45.6515,-0.0678,0.0904,-0.8424,140.2969
10:23:04:704,-0.213,1.343,6.5958,45.9163,-0.1613,0.3738,-0.9578,139.4688
10:23:04:721,-0.6918,1.4342,5.9782,46.4121,-0.2236,0.4074,-0.912,139.4688
10:23:04:740,-0.632,1.7859,5.8869,46.7035,-0.2498,0.2828,-0.7996,138.4219
10:23:04:760,-0.4119,2.2002,6.1313,46.9102,-0.2395,0.1026,-0.719,137.2656
10:23:04:781,-0.2082,2.4682,6.5695,47.2153,-0.2016,-0.0733,-0.7098,137.2656
10:23:04:804,-0.1531,2.5427,6.9093,47.3945,-0.1686,-0.1747,-0.7538,136.8125
10:23:04:822,-0.1914,2.6025,7.2326,47.6477,-0.1936,-0.1851,-0.8069,136.8125
10:23:04:840,-0.5841,2.6408,7.8861,47.8411,-0.2853,-0.1674,-0.8411,137.5625
10:23:04:859,-0.8453,2.5522,8.8056,47.9122,-0.3659,-0.1448,-0.8161,137.5625
10:23:04:880,-0.711,2.6097,9.7343,47.9352,-0.3567,-0.1796,-0.7416,138.2656
10:23:04:899,-0.8163,2.9877,10.2395,48.1906,-0.3079,-0.1912,-0.6896,138.3438
10:23:04:924,-1.7859,3.1795,11.3121,48.6121,-0.4759,-0.0098,-0.6359,139.2344
10:23:04:941,-2.0949,2.8777,12.3392,48.9607,-0.5406,0.0702,-0.5125,139.3281
10:23:04:960,-2.3174,2.6886,13.1195,49.2114,-0.4704,0.1497,-0.2969,140.7812
10:23:04:981,-2.0471,2.7413,13.3376,49.6141,-0.2987,0.2614,-0.0195,140.9375
10:23:05:004,-1.5826,3.1053,12.6984,49.9927,-0.0861,0.3744,0.201,142.5312
10:23:05:023,-1.3645,3.1531,11.5588,50.3813,0.0495,0.427,0.2669,142.6875
10:23:05:039,-1.5849,2.8155,11.0919,50.7066,0.011,0.408,0.2248,143.9531
10:23:05:059,-2.0351,2.4347,11.4461,50.8252,-0.1063,0.3738,0.1961,145.4219
10:23:05:079,-2.6815,1.9223,11.6354,50.8898,-0.1161,0.3586,0.215,145.4219
10:23:05:105,-3.2632,1.2951,11.1757,51.2468,0.0373,0.317,0.3054,147.0469
10:23:05:122,-3.4738,0.9888,10.1677,51.647,0.2834,0.2132,0.5033,147.0469
10:23:05:139,-2.904,1.4246,8.7673,51.7125,0.4856,0.0678,0.7471,148.4844
10:23:05:160,-1.6854,2.327,8.1832,51.7652,0.4832,-0.1778,0.8643,148.6094
10:23:05:180,-0.9051,3.146,9.0425,51.8487,0.2236,-0.4386,0.7239,148.625
10:23:05:205,-0.7421,2.8202,11.3408,51.9366,-0.1374,-0.5797,0.3928,149.8281
10:23:05:221,-1.3358,1.8769,12.6215,52.0984,-0.295,-0.3922,0.0812,149.8438
10:23:05:243,-2.1093,0.7875,11.9919,52.174,-0.1643,-0.0495,-0.0629,150.6406
10:23:05:260,-2.3725,0.201,10.0768,52.2722,0.0739,0.2602,0.0312,150.625
10:23:05:281,-2.1308,0.5435,8.377,52.3464,0.1723,0.4184,0.2706,150.625
10:23:05:305,-1.6041,1.343,7.9029,52.4982,0.0568,0.4722,0.4777,150.0625
10:23:05:321,-1.1109,1.7716,7.8885,52.5924,-0.1271,0.5711,0.5418,150.0625
10:23:05:341,-1.1085,1.7381,8.3291,52.6487,-0.328,0.7593,0.4642,149.5156
10:23:05:359,-1.4127,1.6783,8.6737,52.8171,-0.5284,1.1197,0.3824,149.5156
10:23:05:381,-1.6376,1.7979,8.1784,52.9712,-0.5827,1.482,0.3958,148.9219
10:23:05:404,-1.5897,2.0471,7.611,53.0811,-0.4135,1.4631,0.4618,148.8594
10:23:05:422,-1.4028,2.4873,7.0412,53.0285,-0.1289,1.1472,0.4991,147.9375
10:23:05:443,-1.6208,3.1172,7.1201,53.3353,0.0531,0.4655,0.3409,147.8594
10:23:05:460,-1.4486,3.038,8.0489,53.4781,0.0073,0.1716,0.2095,146.625
10:23:05:483,-1.4028,2.9183,8.8152,53.9201,0.0061,-0.0544,0.0684,146.5
10:23:05:499,-1.5993,2.6982,9.4496,54.2011,0.0208,-0.2223,-0.08,145.9062
10:23:05:521,-1.6424,2.2289,10.151,54.3734,0.0012,-0.328,-0.2107,145.8594
10:23:05:540,-1.7812,1.774,10.7566,54.3979,-0.0348,-0.3726,-0.2932,145.8281
10:23:05:560,-1.5586,1.4246,10.8906,54.5791,-0.0709,-0.3763,-0.3164,145.1094
10:23:05:579,-1.1611,1.1133,10.7566,54.6539,-0.1833,-0.4074,-0.3512,145.1094
10:23:05:600,-1.0917,0.7181,12.0039,54.8958,-0.4612,-0.5449,-0.4649,143.7031
10:23:05:624,-1.2951,-0.0646,14.3886,55.0298,-0.7177,-0.617,-0.5773,143.7031
10:23:05:640,-1.6567,-1.0343,15.6431,54.9235,-0.6444,-0.4276,-0.5779,143.5625
10:23:05:659,-1.9056,-1.9295,14.6686,55.0542,-0.2138,-0.0898,-0.3995,141.8594
10:23:05:680,-1.829,-1.9705,12.2937,55.2247,0.3128,0.1881,-0.0385,141.8438
10:23:05:699,-1.185,-1.0917,10.3304,55.3959,0.6597,0.2052,0.3879,140.2188
10:23:05:721,0.1555,0.2082,9.0209,55.3399,0.7801,0.0318,0.6695,140.2031
10:23:05:740,1.2497,1.2879,8.2167,55.5684,0.7348,-0.1362,0.6328,139.2344
10:23:05:758,1.5227,1.8769,7.3714,55.437,0.5809,-0.1301,0.3366,138.9219
10:23:05:780,1.118,1.9534,6.4738,55.4473,0.3543,0.0232,-0.0458,138.9219
10:23:05:798,0.2058,1.7453,5.7912,55.5374,0.0996,0.1814,-0.3812,139.3125
10:23:05:821,-0.6296,1.5443,5.3318,55.4045,-0.1008,0.2486,-0.5693,139.3125
10:23:05:840,-1.0798,1.5634,5.3414,55.3343,-0.2242,0.1429,-0.6115,140.0156
10:23:05:859,-0.9673,1.7644,5.9877,55.4677,-0.2785,-0.0928,-0.5858,140.0156
10:23:05:880,-0.632,2.1643,6.8255,55.501,-0.2871,-0.2883,-0.5754,140.6094
10:23:05:905,-0.6153,2.5065,7.6636,55.3118,-0.284,-0.3702,-0.6267,140.6562
10:23:05:923,-0.7205,2.6838,8.3913,55.1235,-0.2504,-0.4172,-0.7092,141.2344
10:23:05:940,-0.6966,2.7245,9.1717,55.056,-0.1716,-0.5113,-0.8039,141.2969
10:23:05:959,-0.9936,2.6192,9.7439,55.1107,-0.0965,-0.5406,-0.9083,141.7812
10:23:05:983,-1.8434,2.1978,10.9938,55.2802,-0.1362,-0.3219,-0.9786,141.8281
10:23:06:005,-2.5594,1.9295,11.5899,55.4561,-0.1875,-0.0996,-0.9022,141.4531
10:23:06:022,-3.457,1.707,11.9584,55.3992,-0.19,0.1509,-0.6964,141.4219
10:23:06:039,-3.9838,1.8984,12.1071,55.6297,-0.146,0.3775,-0.3329,141.1094
10:23:06:059,-3.7684,2.4156,12.2148,55.9444,-0.0611,0.485,0.0977,141.7031
10:23:06:079,-2.8753,3.0595,12.4517,56.1896,0.0776,0.4649,0.4508,141.7031
10:23:06:099,-2.2409,3.6413,11.968,56.5503,0.2651,0.4239,0.609,142.75
10:23:06:123,-2.2911,3.8593,10.716,56.5732,0.4148,0.3653,0.5754,142.75
10:23:06:139,-2.5499,3.8258,9.5596,56.6469,0.4025,0.1936,0.4374,142.8438
10:23:06:158,-3.0356,3.4355,9.5812,56.652,0.1326,-0.0507,0.2535,143.8594
10:23:06:180,-3.5551,2.2863,11.4006,56.9137,-0.273,-0.3054,0.1093,143.8594
10:23:06:198,-3.4044,0.8668,13.7901,56.9341,-0.416,-0.4972,0.1051,145.0938
10:23:06:222,-3.3996,-0.2608,14.4245,56.7974,-0.0782,-0.496,0.1985,145.0938
10:23:06:241,-3.7086,-0.6248,11.9106,56.9119,0.5333,-0.1851,0.4056,146.8906
10:23:06:258,-3.6607,0.0215,8.2765,56.7781,0.9694,0.0611,0.6872,148.9531
10:23:06:280,-2.8585,0.996,6.2701,56.6633,0.9352,-0.069,0.8705,148.9531
10:23:06:300,-1.6663,1.8075,6.6772,56.6475,0.5009,-0.3366,0.857,150.5156
10:23:06:320,-0.9458,2.059,8.5708,56.6159,-0.0379,-0.4105,0.6444,150.5156
10:23:06:340,-0.9697,1.5849,9.8207,56.473,-0.3842,-0.1784,0.3488,150.6719
10:23:06:359,-1.5132,1.1037,9.6673,56.3924,-0.4361,0.1087,0.1222,150.6719
10:23:06:380,-2.1667,0.833,8.7194,56.4755,-0.3292,0.2358,0.0312,149.7031
10:23:06:404,-2.6551,0.833,7.9531,56.558,-0.2633,0.2004,0.0709,149.7031
10:23:06:422,-2.7508,1.0869,7.9819,56.5286,-0.2614,0.0312,0.2034,149.0781
10:23:06:440,-2.3103,1.1946,8.2956,56.6147,-0.1918,-0.1869,0.3518,149.0156
10:23:06:459,-1.6591,1.3406,8.5181,56.6579,-0.0666,-0.27,0.4563,148.5781
10:23:06:481,-0.7253,2.0638,7.8766,56.5764,-0.0342,0.2755,0.4905,148.5469
10:23:06:505,-1.0391,2.4036,7.1967,56.4075,-0.1448,0.5614,0.394,148.0312
10:23:06:520,-1.3765,2.5475,7.3475,56.4165,-0.2621,0.5314,0.2761,147.9844
10:23:06:539,-1.2401,2.5307,7.9914,56.5614,-0.2914,0.284,0.1936,147.6094
10:23:06:559,-0.9745,2.5232,9.064,56.5945,-0.2395,-0.0538,0.1167,146.5625
10:23:06:579,-0.8883,2.5355,10.0481,56.7688,-0.1246,-0.3341,0.0336,146.5625
10:23:06:599,-0.6583,2.2696,10.2778,56.7526,0.0147,-0.4807,-0.0483,146.4531
10:23:06:623,-0.1005,1.7764,10.4001,56.5891,0.0751,-0.6035,-0.1435,145.3125
10:23:06:681,0.6368,1.4055,11.3073,56.7034,0.0153,-0.7049,-0.2596,145.2031
10:23:06:681,0.766,1.1707,12.1262,56.9,-0.0544,-0.5962,-0.4227,144.6562
10:23:06:682,0.2154,0.9027,12.1143,57.0961,-0.0776,-0.3299,-0.5308,144.5938
10:23:06:699,0.256,0.6727,11.7,57.0227,-0.1552,-0.0721,-0.4862,144
10:23:06:723,0.5506,0.5698,11.8508,56.7851,-0.3305,-0.1203,-0.4618,144
10:23:06:741,0.6559,0.3664,12.7798,56.6248,-0.5437,-0.4129,-0.5467,143.0312
10:23:06:759,0.4334,-0.2946,13.2347,56.7196,-0.6719,-0.5388,-0.6615,141.8906
10:23:06:780,0,-1.0558,12.6529,56.6372,-0.6359,-0.4074,-0.6609,141.8906
10:23:06:800,-0.2106,-1.3382,11.4174,56.6466,-0.452,-0.2291,-0.4587,140.8281
10:23:06:824,-0.0646,-1.0774,10.3905,56.5731,-0.1906,-0.1466,-0.0898,140.8281
10:23:06:840,0.711,-0.256,9.9667,56.3503,0.0898,-0.1448,0.2938,140.1875
10:23:06:859,1.8625,0.6392,9.9093,56.2512,0.3549,-0.1393,0.4991,140.1875
10:23:06:880,2.5232,1.331,9.4759,56.2682,0.5394,0.0232,0.4178,140.2188
10:23:06:900,2.1236,1.6807,8.1616,56.3326,0.5919,0.3476,0.1051,140.2188
10:23:06:921,1.1157,1.8075,6.5264,56.5678,0.5064,0.5565,-0.2724,140.7812
10:23:06:940,0.1029,1.8912,5.528,56.9263,0.3146,0.4612,-0.5663,140.8438
10:23:06:959,-0.2946,1.8984,5.5639,57.0089,0.0483,0.1704,-0.6958,141.8125
10:23:06:982,0.0359,1.8649,6.239,57.2415,-0.3806,-0.1552,-0.6524,141.9062
10:23:07:006,0.5818,2.1906,7.7186,57.5121,-0.4771,-0.1771,-0.6799,142.6562
10:23:07:023,0.2489,2.3988,8.5397,57.6713,-0.4905,-0.2144,-0.766,143.4688
10:23:07:040,-0.1077,2.3653,9.3443,57.8199,-0.4282,-0.2828,-0.8924,143.4688
10:23:07:059,-0.3855,1.9753,9.9452,57.6615,-0.3299,-0.3598,-1.0445,143.5625
10:23:07:080,-0.6703,1.5419,10.4958,57.6047,-0.2425,-0.3635,-1.1514,144.2344
10:23:07:099,-1.1946,1.3884,10.9313,57.7078,-0.19,-0.2297,-1.1282,144.2969
10:23:07:124,-1.884,1.4414,11.1852,57.7167,-0.1674,-0.0122,-0.9621,144.0625
10:23:07:139,-2.4467,1.6448,11.3456,57.8241,-0.1582,0.2101,-0.6817,144.0469
10:23:07:159,-2.8729,2.1595,11.4389,57.932,-0.1478,0.4636,-0.3286,143.5156
10:23:07:179,-2.9279,2.6719,11.5612,58.1497,-0.1429,0.6121,0.0037,143.4531
10:23:07:198,-2.8274,2.8825,11.8771,58.2004,-0.1552,0.5363,0.201,144.0781
10:23:07:221,-2.7748,2.5499,12.4158,58.6096,-0.1564,0.314,0.2449,144.0938
10:23:07:241,-3.1364,1.8625,12.7917,58.7604,-0.091,0.0971,0.2364,145.6094
10:23:07:260,-3.5623,1.1396,12.8492,58.8233,0.0635,-0.0812,0.306,146.8125
10:23:07:282,-3.4451,0.6296,12.7582,59.0362,0.281,-0.2303,0.493,146.8125
10:23:07:300,-2.782,0.3592,12.6215,59.0047,0.5125,-0.3781,0.7049,147.9531
10:23:07:324,-1.8601,0.1029,12.5354,59.1522,0.7031,-0.5369,0.8277,147.9531
10:23:07:340,-1.0487,-0.3305,12.3081,59.3611,0.8283,-0.6017,0.8424,149.7188
10:23:07:359,-0.7851,-0.7756,11.0465,59.4817,0.9077,-0.3402,0.8485,149.7188
10:23:07:381,-0.9386,-0.821,9.2459,59.535,0.9413,0.1478,0.9358,152.0156
10:23:07:399,-0.821,-0.4119,7.7545,59.6585,0.915,0.4997,1.0763,152.0156
10:23:07:422,-0.4789,0.4741,7.1369,59.9465,0.7965,0.5638,1.1698,153.5312
10:23:07:441,-0.1962,1.6137,7.3594,59.959,0.5718,0.3879,1.1466,153.6875
10:23:07:459,0.3592,2.2409,7.7426,60.1155,0.2761,0.1533,0.9969,153.9531
10:23:07:482,0.984,2.0806,8.0393,60.1545,-0.022,0.0312,0.7116,153.9844
10:23:07:499,0.7014,1.5921,8.3148,60.2484,-0.273,0.0544,0.3409,153.4531
10:23:07:523,-1.1228,1.1372,8.3913,60.4259,-0.46,0.1246,0.0721,153.4062
10:23:07:541,-1.1539,1.0463,8.6043,60.4728,-0.5528,0.1949,0.0299,152.8438
10:23:07:559,-0.9075,1.2305,9.2172,60.5666,-0.4087,-0.0244,0.325,152.7969
10:23:07:579,-1.2688,1.7118,9.3969,60.6279,-0.2401,0.0928,0.4288,151.9219
10:23:07:599,-2.1739,2.1188,8.808,60.8567,-0.047,0.2364,0.5088,151.8281
10:23:07:624,-2.2672,2.1595,8.7553,61.1463,0.2034,-0.0244,0.6047,150.7812
10:23:07:640,-1.0223,2.0518,9.5405,61.3311,0.5094,-0.3854,0.6701,150.6875
10:23:07:659,-0.122,2.2241,9.6721,61.3939,0.7611,-0.2083,0.6438,149.6719
10:23:07:680,-0.055,2.8466,9.0114,61.4611,0.8326,0.3164,0.5827,149.5781
10:23:07:699,-0.1053,3.6365,8.3076,61.6375,0.708,0.5791,0.5546,147.875
10:23:07:720,0.5124,4.0651,8.3219,61.6391,0.4447,0.4001,0.5235,147.8438
10:23:07:742,1.3932,4.0842,9.1238,61.5863,0.1362,0.0556,0.4001,145.875
10:23:07:759,1.9944,3.8019,9.9212,61.5501,-0.1277,-0.1497,0.1582,144.5469
10:23:07:780,2.3174,3.3135,10.285,61.5233,-0.3201,-0.16,-0.1497,144.5469
10:23:07:800,2.3414,2.7748,10.5532,61.5005,-0.4685,-0.0941,-0.4435,143.9219
10:23:07:825,1.8625,2.3892,10.7279,61.6105,-0.5962,0.0452,-0.6524,143.9219
10:23:07:840,0.984,2.1739,10.8117,61.6068,-0.6915,0.1509,-0.752,142.9219
10:23:07:860,0.6631,1.762,11.2307,61.6793,-0.711,-0.0153,-0.802,142.9219
10:23:07:880,1.0056,1.2329,12.1741,61.7225,-0.6463,-0.4221,-0.8924,141.7188
10:23:07:899,1.1922,0.4669,13.0908,61.8086,-0.5119,-0.7642,-1.0342,141.7188
10:23:07:923,0.6368,-0.1962,13.0693,62.1059,-0.3225,-0.7941,-1.1026,140.7031
10:23:07:941,0.2201,-0.7014,12.4301,62.3591,-0.0941,-0.7025,-1.0048,140.7031
10:23:07:959,0.4836,-0.8354,12.2554,62.3473,0.1319,-0.7031,-0.7776,140.1406
10:23:07:981,1.0152,-0.5004,12.0855,62.2538,0.3189,-0.5669,-0.5259,140.0938
10:23:07:999,1.1444,0.0359,10.9385,62.3166,0.4178,-0.1576,-0.3671,139.3906
10:23:08:025,-0.1484,0.6607,7.4886,62.2661,0.405,0.2608,-0.3103,139.3125
10:23:08:047,-0.4932,0.9027,6.5504,62.3192,0.2138,0.3793,-0.1356,138.7656
10:23:08:060,-0.3568,1.197,5.8968,62.3603,0.1399,0.3268,0.0226,138.7188
10:23:08:082,0.0909,1.5969,5.461,62.1938,0.1014,0.2694,0.157,139
10:23:08:099,0.5267,2.2504,5.5496,61.9888,0.0855,0.1503,0.204,139.0156
10:23:08:119,0.6966,3.0428,6.0236,62.1645,0.0709,-0.0049,0.1362,139.8281
10:23:08:141,0.8163,3.5001,6.2725,62.3909,0.058,-0.168,-0.0538,139.9219
10:23:08:159,1.0798,3.3709,6.6054,62.6061,0.0434,-0.4233,-0.347,141.0469
10:23:08:180,1.1731,2.8705,7.4839,62.6895,-0.0183,-0.6677,-0.6487,141.1719
10:23:08:199,1.1276,2.6432,8.6856,62.844,-0.1448,-0.6719,-0.8424,143.0625
10:23:08:220,1.0726,2.8107,9.938,62.8477,-0.2816,-0.4392,-0.937,143.25
10:23:08:241,0.7014,3.0284,10.7518,63.1435,-0.4166,-0.0415,-1.014,145.3125
10:23:08:259,-0.2345,2.9782,10.637,63.3199,-0.5699,0.394,-1.0952,146.6562
10:23:08:282,-1.2616,2.7796,10.6202,63.4746,-0.7141,0.543,-1.105,146.6562
10:23:08:298,-1.9487,2.4969,11.202,63.2612,-0.81,0.3891,-0.9712,147.5781
10:23:08:324,-2.3916,2.2552,12.2842,63.317,-0.7978,0.08,-0.7025,147.5781
10:23:08:340,-2.5929,1.908,13.3089,63.1966,-0.6053,-0.2468,-0.3537,147.8281
10:23:08:358,-2.217,1.3478,13.8547,63.3056,-0.2285,-0.4905,-0.0012,147.8281
10:23:08:380,-2.0638,0.9817,13.7542,63.464,0.2278,-0.4856,0.2969,147.5
10:23:08:399,-2.2002,1.0391,12.6841,63.338,0.6096,-0.2107,0.5571,147.5
10:23:08:426,-1.6974,1.3789,11.7766,63.2473,0.7794,-0.1051,0.7807,147.4688
10:23:08:441,-0.7277,1.8673,12.2459,63.1483,0.6945,-0.3628,0.9444,147.4688
10:23:08:459,0.5674,1.7453,12.8874,63.3273,0.4893,-0.5546,1.0384,148.5312
10:23:08:481,1.6424,1.1468,12.4469,63.2615,0.3378,-0.4068,1.036,148.6406
10:23:08:499,1.4844,0.8859,11.0297,63.4898,0.303,0.0257,0.9651,150.2812
10:23:08:523,0.917,1.1946,9.3323,63.4708,0.3506,0.4759,0.915,150.4375
10:23:08:542,0.8859,2.7293,8.0895,63.499,0.4001,0.6603,0.8912,152.1562
10:23:08:561,1.075,2.9997,8.2765,63.6355,0.2321,0.2419,0.5162,152.3281
10:23:08:580,1.3167,2.4156,8.5038,63.7429,0.0654,-0.0067,0.1613,153.7969
10:23:08:599,0.8764,1.6448,8.554,63.7542,-0.058,-0.0605,-0.1423,153.9375
10:23:08:625,-0.0885,1.2353,8.5277,63.602,-0.1356,0.0324,-0.2773,154.4219
10:23:08:639,-0.6966,1.1683,8.7721,63.5289,-0.1759,0.0232,-0.2071,154.4688
10:23:08:659,-0.3305,1.264,9.3156,63.4613,-0.1374,-0.088,-0.0073,154.1406
10:23:08:680,0.1364,1.6448,9.629,63.5405,0.0147,-0.1167,0.182,154.1094
10:23:08:754,0.3114,1.9247,9.1119,63.3263,0.2621,0.0171,0.3005,153.3125
10:23:08:755,0.1627,2.1212,8.2525,63.1934,0.5296,0.2004,0.3549,153.2344
10:23:08:755,-0.0694,2.3294,7.5197,63.3156,0.7391,0.347,0.3708,151.5625
10:23:08:759,-0.1555,2.6264,7.113,63.061,0.8472,0.3989,0.372,149.6406
10:23:08:780,-0.0311,2.9495,6.9715,62.9749,0.8246,0.3891,0.3512,149.6406
10:23:08:799,0.1603,3.268,7.0675,63.0177,0.6677,0.3341,0.2883,147.9219
10:23:08:826,0.0526,3.5073,7.4695,63.0517,0.4129,0.1839,0.1839,147.9219
10:23:08:840,0.0694,3.6197,8.2932,63.0533,0.1362,-0.0067,0.0886,146.7031
10:23:08:860,0.4454,3.5791,9.4208,63.0616,-0.1026,-0.204,0.0067,146.7031
10:23:08:881,0.8644,3.256,10.5939,63.0429,-0.273,-0.3812,-0.1051,146.6875
10:23:08:899,0.9888,2.8274,11.6067,62.8531,-0.3592,-0.4429,-0.2419,146.6875
10:23:08:926,0.9458,2.4179,12.2578,62.9929,-0.3879,-0.3543,-0.35,147.0781
10:23:08:941,0.6559,1.9801,12.3224,63.1542,-0.4184,-0.1991,-0.394,147.0781
10:23:08:959,0.5746,1.6256,12.4947,63.2034,-0.4649,-0.1894,-0.361,146.8594
10:23:08:980,1.0726,1.427,13.1148,63.0128,-0.4966,-0.306,-0.2883,146.8438
10:23:08:999,1.8864,1.2449,13.8571,62.5133,-0.4801,-0.3299,-0.2694,146.4844
10:23:09:025,1.992,0.8955,13.6319,62.5704,-0.4025,-0.088,-0.3409,146.4531
10:23:09:042,1.3549,0.5794,12.2291,62.4369,-0.1161,0.6896,-0.3262,146.2969
10:23:09:061,0.5554,0.6535,8.9204,62.2732,0.014,0.7214,-0.1356,146.2812
10:23:09:082,0.9194,1.2257,8.3985,62.2758,0.1057,0.4459,0.0702,146.1875
10:23:09:099,1.896,1.8099,8.6091,62.2192,0.1472,0.1081,0.1533,146.1719
10:23:09:123,2.4203,2.1739,8.8439,61.9263,0.1063,-0.0452,0.0373,146.1094
10:23:09:142,1.8601,2.1547,8.2813,61.9435,-0.0147,0.0501,-0.1924,146.1094
10:23:09:159,0.9458,1.9104,7.4839,62.2215,-0.1649,0.1539,-0.369,146.1094
10:23:09:179,0.3114,1.7142,6.9476,62.2921,-0.2712,0.1399,-0.3952,146.1094
10:23:09:199,0.2393,1.7022,6.6891,62.4211,-0.3042,0.088,-0.2969,146.4688
10:23:09:225,0.565,1.9032,6.8471,62.5609,-0.2737,0.0202,-0.168,146.5156
10:23:09:240,1.0582,2.3174,7.2733,62.4928,-0.2028,-0.0037,-0.0928,146.9844
10:23:09:258,1.2544,2.7413,7.5078,62.3348,-0.1252,0.0538,-0.1191,147.2344
10:23:09:281,1.2305,3.1053,7.6684,62.3347,-0.0641,0.0739,-0.2376,147.2344
10:23:09:299,0.8378,3.2465,8.0082,62.2043,-0.0605,-0.025,-0.427,147.7344
10:23:09:323,0.62,3.0212,8.8008,62.0526,-0.1545,-0.1521,-0.6096,147.7344
10:23:09:341,0.4143,2.7485,9.9236,61.9356,-0.2999,-0.1704,-0.7239,148.1094
10:23:09:359,-0.0431,2.5355,10.8069,61.6441,-0.3946,-0.0935,-0.7544,148.1094
10:23:09:381,-0.5219,2.3821,11.6426,61.6061,-0.4074,-0.0012,-0.6805,147.9531
10:23:09:399,-1.0104,2.3151,12.1095,61.5534,-0.3237,0.1362,-0.493,147.9531
10:23:09:421,-1.1683,2.3581,12.2315,61.4393,-0.1319,0.2352,-0.2199,148.1562
10:23:09:440,-0.7851,2.5065,12.3942,61.563,0.1411,0.2187,0.0599,148.1562
10:23:09:459,-0.2946,2.7437,12.3081,61.4825,0.4343,0.234,0.2553,148.7812
10:23:09:481,-0.2656,3.0045,11.5995,61.5177,0.6652,0.3616,0.3268,148.7812
10:23:09:499,-0.5148,3.2728,10.5509,61.433,0.7434,0.4502,0.3036,149
10:23:09:526,-0.778,3.5312,9.9811,61.4515,0.6121,0.35,0.2248,149.0156
10:23:09:542,-1.0008,3.4451,10.4839,61.4926,0.2712,0.1417,0.1118,149.0781
10:23:09:560,-1.0582,2.8035,11.7072,61.506,-0.1289,-0.0409,0.0147,149.0938
10:23:09:582,-1.2664,1.6926,12.5163,61.8136,-0.3445,-0.1924,-0.022,149.7031
10:23:09:599,-1.8649,0.5554,12.1382,61.5817,-0.0006,-0.0177,0.3836,149.7656
10:23:09:621,-2.5232,0.1986,10.5006,61.8408,0.3799,0.1631,0.8088,150.9062
10:23:09:642,-1.7118,1.4438,8.1302,61.82,0.6738,0.0812,1.0928,151.0156
10:23:09:658,-0.7158,2.3103,7.8598,61.8192,0.7709,-0.1222,1.1221,152.125
10:23:09:679,0.5698,2.8202,7.8814,61.958,0.6157,-0.2608,0.9303,152.2188
10:23:09:699,1.0774,2.8992,8.1736,61.8996,0.2401,-0.2401,0.5962,152.75
10:23:09:720,0.4406,2.6288,8.5732,61.9402,-0.1961,-0.0348,0.237,152.8125
10:23:09:742,-0.5985,2.1715,8.6258,61.854,-0.5003,0.1246,-0.025,152.75
10:23:09:759,-1.264,1.6663,8.5014,61.9209,-0.5974,0.1454,-0.0971,152.7188
10:23:09:781,-1.3502,1.4198,8.3961,62.0389,-0.5101,0.1362,0.0183,152.7188
10:23:09:799,-1.1659,1.6232,8.2669,62.1856,-0.2773,0.1692,0.2248,152.7812
10:23:09:820,-0.7708,2.0806,7.946,62.2344,0.0147,0.2822,0.4001,152.7812
10:23:09:840,-0.4334,2.5017,7.369,62.2249,0.2785,0.449,0.4557,152.5625
10:23:09:858,-0.5267,2.9566,6.7777,62.2521,0.4447,0.5473,0.3946,152.5625
10:23:09:880,-0.5578,3.39,6.4376,62.0857,0.4569,0.5125,0.2743,151.9219
10:23:09:899,-0.4908,3.7493,6.8566,61.8724,0.2853,0.2883,0.1228,151.9219
10:23:09:921,-0.4645,3.8545,8.1401,62.0921,-0.0079,0.0403,-0.0354,150.3281
10:23:09:941,-0.2393,3.7421,9.8638,61.832,-0.234,-0.1655,-0.1735,150.3281
10:23:09:960,0.1053,3.3254,11.1494,61.7726,-0.306,-0.314,-0.3152,148.7812
10:23:09:980,0.5554,2.6527,12.2722,61.6609,-0.3054,-0.3977,-0.4581,148.7812
10:23:09:999,0.5411,2.0471,13.2156,61.7214,-0.3054,-0.3494,-0.5681,147.9688
10:23:10:019,-0.0239,1.5921,13.4189,61.6157,-0.3091,-0.1283,-0.5608,147.8906
10:23:10:041,-0.4406,1.2592,12.8348,61.5978,-0.3079,0.1179,-0.3958,147.5156
10:23:10:059,-0.4214,1.2114,12.2602,61.5917,-0.2957,0.1912,-0.1356,147.4844
10:23:10:081,0.1579,1.2903,12.1956,61.522,-0.2278,-0.0825,0.1875,146.875
10:23:10:099,2.0112,1.1946,13.5721,61.6366,-0.1936,-0.124,0.0971,146.8125
10:23:10:120,1.6711,0.7947,13.086,61.5327,-0.1283,0.0806,-0.0458,146.0312
10:23:10:140,0.941,0.4238,11.4963,61.6642,0.0012,0.3543,-0.0721,145.9531
10:23:10:160,0.5387,0.4789,10.2132,61.6158,0.1509,0.3854,0.0446,145.6094
10:23:10:179,1.0678,0.8402,9.8973,61.7241,0.2755,0.1417,0.2107,145.5625
10:23:10:198,2.0542,1.2784,9.9811,62.0005,0.3714,-0.066,0.3011,145.5781
10:23:10:220,2.4108,1.6232,9.3443,62.0997,0.4288,0.0177,0.2217,145.5781
10:23:10:242,1.7357,1.8888,7.8933,61.935,0.4068,0.2657,0.0287,145.8594
10:23:10:259,0.8402,2.0423,6.481,61.9935,0.2938,0.4386,-0.1539,146.7656
10:23:10:280,0.1938,2.0925,5.7888,62.0447,0.1411,0.4343,-0.2676,146.7656
10:23:10:299,-0.0191,2.1691,5.5639,62.0655,0.0165,0.3433,-0.2987,147.5156
10:23:10:323,0.2177,2.3629,5.8391,61.9709,-0.0654,0.204,-0.2981,147.5156
10:23:10:341,0.4813,2.7413,6.4161,61.8676,-0.1136,0.0874,-0.3347,147.2656
10:23:10:358,0.5052,3.1436,6.9045,61.6226,-0.1295,0.0434,-0.4337,147.2656
10:23:10:380,0.2752,3.3446,7.3187,61.6902,-0.1252,0.0031,-0.5785,146.7656
10:23:10:399,0.0814,3.2034,7.9531,61.835,-0.1448,-0.0843,-0.7196,146.7656
10:23:10:419,-0.1172,3.0739,8.8678,61.676,-0.215,-0.124,-0.8027,146.7969
10:23:10:440,-0.1244,2.9471,9.9667,61.6314,-0.2798,-0.0886,-0.8332,146.7969
10:23:10:459,-0.3449,2.8968,10.9337,61.6462,-0.2847,0.0024,-0.8491,146.7031
10:23:10:480,-1.1157,2.8944,11.3527,61.8907,-0.2376,0.1716,-0.8436,146.7031
10:23:10:499,-1.9558,2.7628,11.3647,61.7236,-0.1851,0.3366,-0.7568,146.5469
10:23:10:520,-2.3198,2.5666,11.2905,61.6912,-0.1442,0.3989,-0.5601,146.5312
10:23:10:541,-2.4371,2.6264,11.4628,61.5711,-0.0751,0.2963,-0.2981,146.9375
10:23:10:560,-2.0997,2.8418,12.0159,61.5946,0.0593,0.0904,-0.0324,146.9844
10:23:10:582,-1.5993,2.9566,12.2052,61.6137,0.2254,0.0177,0.1619,147.5625
10:23:10:600,-1.8386,2.8418,10.0887,61.7042,0.4282,0.3011,0.2303,147.625
10:23:10:624,-2.3677,2.7317,9.4161,61.693,0.2932,0.3189,0.2071,148.1562
