Time,Acc_X,Acc_Y,Acc_Z,Meg,Gyr_X,Gyr_Y,Gyr_Z,Ore
19:05:50:162,-0.8835,0.3401,9.8566,63.9069,-0.0189,0.044,-0.0269,20.9375
19:05:50:182,-0.8931,0.3281,9.8997,64.0551,-0.0189,0.0458,-0.0299,20.9375
19:05:50:201,-0.8835,0.3233,9.9428,64.2078,-0.0189,0.0446,-0.0305,20.9375
19:05:50:219,-0.8548,0.3377,9.993,63.8924,-0.0134,0.0409,-0.033,20.9375
19:05:50:240,-0.8931,0.3449,9.9787,63.7798,-0.0031,0.0544,-0.0397,20.9375
19:05:50:266,-0.9266,0.3664,9.9356,63.7587,0.0043,0.058,-0.0403,20.9375
19:05:50:278,-0.9601,0.4071,9.9117,63.8986,0.0067,0.0403,-0.0428,20.9375
19:05:50:300,-1.0032,0.4382,9.9212,63.8289,0.0049,0.0403,-0.0409,20.9375
19:05:50:316,-1.0391,0.4334,9.8997,64.0303,0.0037,0.0501,-0.0336,20.9375
19:05:50:336,-1.0128,0.4167,9.883,64.0185,0.0043,0.0397,-0.0269,20.9375
19:05:50:355,-1.0247,0.4382,9.8351,64.0352,0.0092,0.0275,-0.0244,20.9375
19:05:50:373,-1.0798,0.4501,9.8231,63.9924,0.0086,0.0318,-0.0195,20.9375
19:05:50:401,-1.063,0.4095,9.8423,63.8615,-0.0049,0.0562,-0.0024,20.9375
19:05:50:417,-1.0056,0.3544,9.8638,63.7813,-0.0159,0.0574,0.0098,20.9375
19:05:50:431,-1.0104,0.3425,9.8614,63.7076,-0.0177,0.0397,0.0079,20.9375
19:05:50:451,-1.0199,0.3449,9.7941,63.7621,-0.0177,0.033,0.0079,20.9375
19:05:50:469,-1.0032,0.3401,9.763,63.6679,-0.0257,0.033,0.0128,20.9375
19:05:50:488,-0.9984,0.3425,9.7558,63.7533,-0.0367,0.0324,0.0134,21
19:05:50:509,-0.9817,0.3592,9.8279,63.7829,-0.0415,0.0281,0.0128,21
19:05:50:534,-0.941,0.352,9.8758,63.9291,-0.044,0.0428,0.0153,21.0781
19:05:50:552,-0.929,0.364,9.8877,63.8779,-0.0434,0.0507,0.0122,21.0781
19:05:50:640,-0.941,0.4167,9.9476,63.8693,-0.0403,0.0415,0.0043,21.1719
19:05:50:640,-0.9625,0.4549,9.9906,63.7877,-0.0421,0.0513,0.0012,21.1719
19:05:50:640,-1.0008,0.4454,10.0146,63.9158,-0.0397,0.0611,0.0012,21.25
19:05:50:641,-1.0104,0.4238,10.1031,63.9346,-0.0324,0.055,0.0061,21.25
19:05:50:650,-0.9936,0.4023,10.0552,63.6614,-0.0122,0.0324,0.014,21.3125
19:05:50:667,-0.9625,0.3999,9.993,63.4114,0.0092,0.0031,0.0165,21.3125
19:05:50:689,-0.929,0.3616,9.8925,63.2947,0.0159,0,0.0165,21.3281
19:05:50:707,-0.9242,0.3425,9.8303,63.4787,0.0128,0.0049,0.0165,21.3281
19:05:50:728,-0.9553,0.3162,9.8109,63.5933,0.0092,0.0049,0.014,21.3125
19:05:50:750,-0.9194,0.3138,9.775,63.6848,0.0092,-0.0055,0.014,21.2812
19:05:50:768,-0.8644,0.309,9.7223,63.4077,0.0061,-0.0116,0.0079,21.2969
19:05:50:789,-0.9099,0.3401,9.7032,63.5396,-0.0024,-0.0049,-0.0043,28.1406
19:05:50:808,-0.9888,0.3712,9.6841,63.8521,-0.0122,0.0159,-0.0128,28.2031
19:05:50:835,-1.0175,0.3879,9.7247,63.9025,-0.0287,0.0312,-0.0092,28.1719
19:05:50:852,-1.0439,0.3855,9.8638,64.1159,-0.0513,0.0464,-0.0037,28.1562
19:05:50:867,-1.0965,0.3784,9.9978,63.7527,-0.0599,0.0428,-0.0018,28.1406
19:05:50:888,-1.0582,0.3975,10.0193,63.6081,-0.0538,0.0177,0.0055,28.125
19:05:50:908,-0.9697,0.4095,10.0528,63.6005,-0.0409,-0.0122,0.0079,28.1094
19:05:50:932,-0.9266,0.4047,10.0289,63.5385,-0.0257,0,0.0031,28.1094
19:05:50:949,-0.9649,0.3999,9.9619,63.379,-0.014,0.0299,-0.0061,28.0781
19:05:50:968,-1.0008,0.4262,9.9236,63.1963,-0.0079,0.0269,-0.0122,28.0625
19:05:50:989,-1.0032,0.4406,9.8925,63.3612,-0.0079,0.0165,-0.0092,28.0312
19:05:51:008,-0.9817,0.419,9.9165,63.2365,-0.0159,0.0177,-0.0037,28.0312
19:05:51:032,-1.075,0.3664,9.9595,63.611,-0.0061,0.022,-0.0031,28
19:05:51:050,-0.9649,0.3281,9.8782,63.6755,0.0098,0.0116,0.0134,28
19:05:51:069,-0.8378,0.285,9.8327,63.6464,0.0049,0.0067,0.0195,28
19:05:51:089,-0.8234,0.256,9.8542,63.8824,-0.0153,0.0049,0.0037,28
19:05:51:108,-0.8501,0.2489,9.9332,63.9257,-0.0232,0.0055,-0.0159,28.0312
19:05:51:132,-0.8596,0.2728,9.9547,64.0471,-0.0159,0.0263,-0.0287,28.0312
19:05:51:150,-0.9505,0.3209,9.8471,64.1446,0.0079,0.0348,-0.0409,28.0156
19:05:51:168,-1.0199,0.4071,9.7176,64.043,0.0244,0.0263,-0.0464,28.0156
19:05:51:190,-1.0295,0.4717,9.6482,63.8739,0.0092,0.0269,-0.0415,28
19:05:51:208,-1.0654,0.4717,9.7893,63.701,-0.0324,0.0586,-0.0312,27.9844
19:05:51:231,-1.0558,0.4143,10.0552,63.6852,-0.0635,0.0928,-0.022,27.9844
19:05:51:250,-1.0702,0.3712,10.1222,63.6366,-0.0544,0.0941,-0.0177,28
19:05:51:268,-1.0702,0.3568,10.2347,63.5103,-0.0354,0.0574,-0.0177,28
19:05:51:289,-1.0534,0.309,10.1629,63.4441,-0.0061,0.0177,-0.0171,28
19:05:51:307,-0.984,0.3233,10.0002,63.3063,0.0238,-0.0165,-0.0128,28
19:05:51:331,-0.9482,0.3353,9.883,63.3226,0.0336,-0.0263,-0.0171,27.9844
19:05:51:348,-0.9529,0.3329,9.7893,63.404,0.036,-0.0128,-0.0244,27.9844
19:05:51:369,-1.0199,0.364,9.7152,63.626,0.0373,0.0061,-0.0281,27.9688
19:05:51:388,-1.0391,0.3592,9.6817,63.8543,0.0312,0.0171,-0.0238,27.9688
19:05:51:409,-1.0152,0.3473,9.696,63.9274,0.0092,0.0336,-0.0165,28.0156
19:05:51:430,-1.0463,0.3449,9.7343,64.143,-0.0147,0.0367,-0.0177,28.0156
19:05:51:448,-1.0893,0.3592,9.8013,64.0265,-0.0336,0.0299,-0.0208,28.1094
19:05:51:469,-1.0463,0.3449,9.8925,63.9808,-0.0476,0.033,-0.0104,28.1094
19:05:51:489,-0.9649,0.3162,9.993,64.187,-0.0531,0.0403,-0.0031,28.1875
19:05:51:509,-0.9936,0.3138,10.0528,64.234,-0.0397,0.0348,-0.0134,28.1719
19:05:51:533,-1.0175,0.3568,9.9858,64.3471,-0.0018,0.0116,-0.0171,28.2031
19:05:51:549,-1.0128,0.352,9.9332,64.1402,-0.0061,0.0238,-0.0153,28.2031
19:05:51:568,-1.0774,0.3855,9.9356,64.0038,-0.0073,0.0134,-0.0238,28.2344
19:05:51:588,-1.1037,0.4143,9.9188,63.9423,0.0012,-0.0018,-0.0202,28.25
19:05:51:607,-1.0534,0.3999,9.8447,63.9127,0.0104,0.0061,-0.0061,28.2812
19:05:51:633,-1.0582,0.3664,9.7989,64.0254,0.0079,0.014,-0.0006,28.2812
19:05:51:649,-1.0678,0.352,9.7941,63.8722,-0.0061,0.0153,0,28.3438
19:05:51:667,-1.0008,0.3209,9.9021,63.8138,-0.0226,0.0165,0.0055,28.3438
19:05:51:688,-0.917,0.297,9.9667,63.6108,-0.0287,0.0257,0.0067,28.3906
19:05:51:708,-0.941,0.2728,9.9906,63.7069,-0.0202,0.0287,-0.0061,28.3906
19:05:51:732,-0.9745,0.2946,9.9739,63.685,-0.0055,0.0177,-0.0183,28.4375
19:05:51:748,-1.0223,0.3209,9.8949,63.7381,0.0043,0.0122,-0.0226,28.4375
19:05:51:768,-1.0941,0.3688,9.8327,63.6994,0.0043,0.0073,-0.0263,28.4375
19:05:51:789,-1.1659,0.3879,9.7726,63.6115,0.0031,-0.0073,-0.0232,28.4688
19:05:51:807,-1.051,0.4023,9.763,63.5224,-0.0073,-0.0116,-0.0037,28.4688
19:05:51:833,-1.0128,0.3855,9.7846,63.415,-0.0238,0.0147,0.0043,28.5
19:05:51:849,-1.0439,0.352,9.8686,63.3285,-0.0342,0.0373,-0.0012,28.5
19:05:51:868,-1.063,0.3353,9.9308,63.4381,-0.0367,0.0415,-0.0024,28.5469
19:05:51:889,-1.0319,0.3209,9.9428,63.3791,-0.0305,0.0226,0.0018,28.5469
19:05:51:909,-1.0415,0.3305,9.9452,63.3807,-0.0263,0.0122,0.0012,28.5469
19:05:51:931,-1.0056,0.3185,9.9452,63.5249,-0.0324,0.0177,0.0018,28.5469
19:05:51:983,-0.9769,0.2874,9.9715,63.6769,-0.0336,0.0098,0,28.5312
19:05:51:984,-1.0463,0.3042,9.883,63.7858,-0.022,0.0055,-0.0073,28.5312
19:05:51:992,-1.0893,0.3209,9.7726,63.9411,-0.0086,-0.0092,-0.0086,28.5312
19:05:52:009,-0.9984,0.3353,9.6721,64.1755,-0.0122,-0.0031,0.0055,28.5469
19:05:52:028,-0.9338,0.3209,9.6888,64.2504,-0.0336,0.0098,0.0116,28.5781
19:05:52:050,-0.8812,0.3066,9.7893,64.2893,-0.0513,0.0134,0.0073,28.5781
19:05:52:070,-0.9314,0.3233,9.8973,64.1661,-0.0599,0.0367,-0.0018,28.6406
19:05:52:092,-1.0032,0.3449,10.0528,64.2654,-0.0751,0.0257,-0.0269,28.6406
19:05:52:108,-0.9912,0.3257,10.1821,64.1059,-0.0696,0.025,-0.0238,28.6406
19:05:52:131,-0.9888,0.3401,10.1725,64.0738,-0.0397,0.0238,-0.0244,28.625
19:05:52:149,-1.0534,0.3832,10.0624,64.2277,-0.0024,0.011,-0.0312,28.625
19:05:52:167,-1.0343,0.4214,9.9428,63.981,0.0159,0.0043,-0.0257,28.625
19:05:52:189,-1.0415,0.4143,9.8399,63.5959,0.0134,0.0122,-0.0214,28.625
19:05:52:207,-1.0774,0.4023,9.7822,63.5067,0.0061,0.0159,-0.0214,28.6094
19:05:52:233,-0.984,0.3999,9.7965,63.4586,0,0.0122,-0.0092,28.6094
19:05:52:248,-0.8859,0.3568,9.8231,63.592,-0.0098,0.0269,0,28.625
19:05:52:268,-0.8835,0.3018,9.8614,63.6749,-0.0177,0.0324,-0.0055,28.625
19:05:52:289,-0.8835,0.268,9.9093,63.8271,-0.022,0.0275,-0.011,28.6094
19:05:52:307,-0.8548,0.2465,9.8662,63.6465,-0.0263,0.0263,-0.0116,28.6094
19:05:52:331,-0.8402,0.2512,9.8853,63.7867,-0.0354,0.0098,-0.0183,28.5781
19:05:52:349,-0.9099,0.2608,9.8853,63.9118,-0.0397,-0,-0.0299,28.5781
19:05:52:370,-0.9769,0.3066,9.8423,63.9837,-0.033,-0.0092,-0.033,28.625
19:05:52:391,-0.9458,0.3257,9.8255,64.1001,-0.025,-0.0086,-0.0275,28.625
19:05:52:409,-0.8572,0.297,9.8109,63.9126,-0.025,0.0104,-0.0171,28.6562
19:05:52:430,-0.8835,0.2728,9.8566,63.8626,-0.0324,0.0202,-0.025,28.6562
19:05:52:450,-0.9793,0.285,9.9141,63.829,-0.0391,0.0153,-0.0348,28.7188
19:05:52:468,-0.9769,0.2898,9.9811,63.6775,-0.0421,0.0171,-0.0299,28.7188
19:05:52:491,-0.9147,0.2608,9.9882,63.7404,-0.0415,0.0293,-0.0238,28.75
19:05:52:508,-0.9075,0.256,10.0217,63.8441,-0.0348,0.0293,-0.033,28.75
19:05:52:531,-0.9793,0.2994,10.0241,63.886,-0.0244,0.0275,-0.047,28.75
19:05:52:550,-1.0152,0.3497,9.926,64.1466,-0.011,0.0171,-0.0513,28.75
19:05:52:570,-0.9745,0.3712,9.8061,64.1861,-0.0086,0.0073,-0.0324,28.7656
19:05:52:589,-0.8596,0.3999,9.7128,64.1694,-0.0226,0.0189,-0.0293,28.7656
19:05:52:607,-0.6918,0.3712,9.6793,64.1199,-0.0342,0.0324,-0.0305,28.7969
19:05:52:631,-0.6511,0.3616,9.7511,64.2372,-0.0421,0.055,-0.0348,28.7969
19:05:52:650,-0.7014,0.3209,9.7989,64.0659,-0.0495,0.0861,-0.036,28.8594
19:05:52:667,-0.7062,0.2584,9.8495,63.8441,-0.0593,0.088,-0.0263,28.8594
19:05:52:689,-0.699,0.1938,9.8925,64.029,-0.0733,0.0617,-0.0202,28.9062
19:05:52:707,-0.7421,0.1364,9.95,63.7697,-0.0812,0.0586,-0.0189,28.9062
19:05:52:731,-0.8477,0.0837,9.9332,63.6752,-0.08,0.0745,-0.011,28.9531
19:05:52:749,-0.8716,0.0263,9.9404,63.4474,-0.0782,0.0739,0.0024,29.0156
19:05:52:768,-0.8429,-0.0167,9.8973,63.4647,-0.0831,0.0739,0.0128,29.0156
19:05:52:789,-0.862,-0.0167,9.8207,63.4627,-0.0849,0.0684,0.0061,29.0938
19:05:52:808,-1.0175,0.0598,9.7917,63.645,-0.08,0.0635,-0.0147,29.0938
19:05:52:831,-1.1874,0.1244,9.7439,63.6651,-0.066,0.0861,-0.0122,29.2031
19:05:52:849,-1.2927,0.1579,9.6721,63.5745,-0.0568,0.1258,0.0147,29.2031
19:05:52:870,-1.4677,0.1795,9.6242,63.5693,-0.0641,0.1527,0.0367,29.2656
19:05:52:890,-1.4701,0.1962,9.6434,63.7046,-0.0916,0.1625,0.0819,29.2656
19:05:52:908,-1.2377,0.1172,9.6817,63.9959,-0.1319,0.1393,0.1381,29.3125
19:05:52:933,-1.0893,0.012,9.696,64.0266,-0.1368,0.0476,0.1515,29.3125
19:05:52:948,-1.1898,-0.0096,9.7774,64.0804,-0.0928,-0.0177,0.1307,29.3594
19:05:52:968,-1.4127,-0.055,9.7774,64.1033,-0.0269,0.0586,0.1338,29.3594
19:05:52:989,-1.5012,0.0167,9.8181,64.0788,-0.0275,0.2358,0.1771,29.3906
19:05:53:008,-1.5299,0.1101,10.1868,64.1812,-0.1484,0.3891,0.2107,29.3906
19:05:53:031,-1.5849,0.1723,10.8619,64.3346,-0.3213,0.3995,0.1912,29.3906
19:05:53:048,-1.5802,0.3688,11.214,64.156,-0.405,0.2327,0.1228,29.4062
19:05:53:068,-1.9367,0.5746,10.7136,64.1883,-0.2938,-0.0654,0.0305,29.375
19:05:53:089,-2.0901,0.8907,9.7941,64.3482,-0.0263,-0.3744,0.0079,29.3906
19:05:53:108,-1.7883,1.5658,8.013,64.289,0.2474,0.0043,0.1839,29.4062
19:05:53:131,-1.5826,1.5802,8.0608,64.3459,-0.0055,0.3842,0.2627,29.4062
19:05:53:148,-1.4629,1.3621,9.0425,64.6012,-0.3696,0.3885,0.2566,29.3438
19:05:53:167,-1.3358,1.2066,10.3977,64.3639,-0.5528,0.0702,0.179,29.3281
19:05:53:188,-1.4964,1.1324,10.8069,64.3217,-0.4502,-0.1442,0.0941,29.0938
19:05:53:207,-1.5658,0.9721,10.5915,64.4268,-0.1668,-0.1539,0.1026,29.0625
19:05:53:231,-1.1276,0.9601,9.9571,64.4625,0.0739,-0.0153,0.1808,28.7656
19:05:53:249,-0.7516,0.821,9.294,64.3907,0.1332,0.0654,0.1869,28.3906
19:05:53:268,-0.5315,0.7205,9.3299,64.4376,0.0318,-0.0373,0.0971,28.3906
19:05:53:289,-0.6559,0.699,9.708,64.3074,-0.0757,-0.1381,-0.0403,27.9219
19:05:53:308,-1.1444,0.7971,9.871,64.2317,-0.0611,-0.1503,-0.1594,27.9219
19:05:53:330,-1.5682,0.9123,9.7606,64.4028,0.0342,-0.091,-0.204,27.6875
19:05:53:348,-1.7644,0.9099,9.4304,64.5667,0.1075,-0.0458,-0.1875,27.6875
19:05:53:368,-1.8147,0.8668,9.4041,64.5922,0.1112,-0.0861,-0.1643,27.6094
19:05:53:388,-1.8075,0.7875,9.6194,64.5264,0.0678,-0.1295,-0.1545,27.6094
19:05:53:408,-1.6591,0.6105,9.8157,64.3891,0.0464,-0.1796,-0.1521,27.1875
19:05:53:432,-1.4174,0.498,9.9595,64.3349,0.077,-0.2376,-0.1668,27.1406
19:05:53:450,-1.3358,0.4286,9.9787,64.4691,0.1472,-0.2584,-0.2193,26.5938
19:05:53:469,-1.2927,0.4884,9.9667,64.4664,0.2162,-0.2236,-0.273,26.5938
19:05:53:488,-1.343,0.4382,9.8614,64.2953,0.2388,-0.1503,-0.3097,26.3125
19:05:53:508,-1.4988,0.3281,9.9021,64.2038,0.2059,-0.1124,-0.3384,26.3125
19:05:53:533,-1.5778,0.3473,10.3376,64.3057,0.1112,-0.0458,-0.339,25.9688
19:05:53:548,-1.5467,0.1914,10.9579,64.1311,-0.0287,0.0452,-0.3005,25.9219
19:05:53:569,-1.439,-0.0431,11.5588,64.2415,-0.1338,0.047,-0.2566,25.8594
19:05:53:589,-1.3908,-0.189,11.9824,64.3134,-0.0623,-0.0159,-0.2193,25.8594
19:05:53:609,-1.3836,-0.2154,12.0135,64.2272,0.033,0.0171,-0.1918,26.2031
19:05:53:632,-1.427,-0.3066,11.566,64.0975,0.1258,-0.0654,-0.1564,26.25
19:05:53:649,-0.8716,-0.2728,9.9595,64.1478,0.2187,-0.2236,-0.1448,26.6094
19:05:53:667,-0.6129,-0.1364,9.143,63.8555,0.2773,-0.3158,-0.1558,26.6562
19:05:53:688,-0.4478,-0.1651,8.729,63.7127,0.2645,-0.2395,-0.1594,26.9531
19:05:53:707,-0.4956,-0.2994,8.499,63.6753,0.19,-0.0287,-0.1533,26.9844
19:05:53:731,-0.6631,-0.4741,8.6067,63.6502,0.0849,0.1417,-0.1429,27.375
19:05:53:748,-0.6775,-0.6559,8.985,63.5881,-0.044,0.2022,-0.1026,28.0312
19:05:53:767,-0.3712,-0.8931,9.6649,63.4975,-0.1723,0.1387,-0.0421,28.0312
19:05:53:789,0.0622,-1.0893,10.5389,63.5871,-0.2492,0.0385,-0.0134,28.8594
19:05:53:808,0.2393,-1.1468,11.1422,63.6318,-0.2016,-0.0202,-0.058,28.8594
19:05:53:832,0.1388,-1.0152,11.1302,63.5539,-0.0312,-0.0202,-0.146,29.4531
19:05:53:848,-0.1747,-0.8139,10.4384,63.3486,0.1435,0.0299,-0.2126,29.4531
19:05:53:869,-0.4645,-0.5363,9.8662,63.1292,0.2065,0.047,-0.2309,29.9375
19:05:53:889,-0.632,-0.297,9.7295,62.8267,0.1503,0.0409,-0.2065,29.9375
19:05:53:908,-0.6033,-0.1364,10.0193,62.5274,0.0654,0.0312,-0.1631,29.9531
19:05:53:930,-0.5219,0.0048,10.3807,62.57,0.0299,0.0495,-0.1307,30.3438
19:05:53:949,-0.5387,0.1292,10.4049,62.318,0.0654,0.0806,-0.1209,30.6875
19:05:53:968,-0.6679,0.3042,10.127,62.1961,0.1332,0.077,-0.1191,30.6875
19:05:54:040,-0.7373,0.4836,9.7343,62.085,0.1857,0.0611,-0.1063,31.0625
19:05:54:040,-0.6583,0.565,9.4352,62.3034,0.1875,0.0617,-0.0788,31.0625
19:05:54:040,-0.5435,0.5626,9.361,62.515,0.1442,0.077,-0.055,31.3125
19:05:54:052,-0.4525,0.5506,9.44,62.6943,0.0928,0.0733,-0.0446,31.3438
19:05:54:068,-0.3616,0.5267,9.6099,62.9762,0.0446,0.0739,-0.0483,31.375
19:05:54:089,-0.5267,0.4454,10.139,62.5442,-0.0061,0.1735,-0.0721,31.375
19:05:54:110,-0.6033,0.4334,10.1964,62.7706,0.0312,0.1808,-0.0696,31.5625
19:05:54:131,-0.6224,0.4334,10.0624,62.6095,0.0751,0.1704,-0.0617,31.5938
19:05:54:149,-0.6248,0.4765,9.7917,62.5871,0.1038,0.1423,-0.0574,32.0469
19:05:54:168,-0.5219,0.5841,9.4735,62.467,0.1002,0.0806,-0.0531,32.0938
19:05:54:188,-0.3951,0.7732,9.2629,62.4996,0.0623,0.0012,-0.0611,32.4844
19:05:54:207,-0.3808,1.0654,9.2243,62.5169,0.0018,-0.0305,-0.0874,32.5156
19:05:54:230,-0.5578,1.3932,9.3299,62.3954,-0.0507,0.0012,-0.1289,32.7812
19:05:54:249,-0.8043,1.6591,9.3706,62.7119,-0.0788,0.0733,-0.1503,33.0469
19:05:54:269,-0.9458,1.774,9.6673,62.6015,-0.1075,0.1313,-0.1319,33.0469
19:05:54:290,-0.8883,1.7668,10.0505,62.7224,-0.1106,0.1833,-0.077,33.2344
19:05:54:307,-0.6129,1.5562,10.4025,62.9565,-0.0635,0.2077,-0.0098,33.2344
19:05:54:330,-0.3257,1.2544,10.503,63.1172,0.0177,0.2138,0.0244,33.3438
19:05:54:350,-0.1771,1.1707,10.4504,63.1563,0.1588,0.1704,-0.0293,33.3438
19:05:54:369,-0.6368,1.2999,10.1701,63.1748,0.3335,0.1662,-0.1356,33.4844
19:05:54:390,-1.252,1.4151,9.7534,63.3531,0.4532,0.2303,-0.1845,33.4844
19:05:54:408,-1.5586,1.3908,9.2653,63.3004,0.4649,0.3024,-0.1332,33.4844
19:05:54:430,-1.7836,1.1683,9.0066,63.389,0.3457,0.347,-0.0452,33.6406
19:05:54:449,-2.0877,0.8524,9.2749,63.3066,0.1277,0.3439,0.0446,33.7812
19:05:54:470,-2.0471,0.4741,9.8806,63.19,-0.1045,0.2877,0.1527,33.7812
19:05:54:489,-1.7429,-0.0335,10.4886,62.9765,-0.3036,0.1839,0.2401,33.9531
19:05:54:510,-1.4462,-0.5148,11.1183,62.9962,-0.4111,-0.0336,0.2431,33.9531
19:05:54:531,-1.0989,-0.766,11.336,63.0062,-0.394,-0.1997,0.1826,34.2188
19:05:54:548,-1.142,-0.833,11.1972,62.9348,-0.3201,-0.1643,0.0739,34.2344
19:05:54:568,-1.7237,-0.7277,10.9193,62.9867,-0.2529,0.0214,-0.0489,34.4375
19:05:54:590,-2.394,-0.5195,10.649,62.7019,-0.212,0.1979,-0.1045,34.4531
19:05:54:615,-2.5834,-0.2273,10.4599,62.7665,-0.1631,0.168,0.0183,34.4375
19:05:54:631,-2.569,-0.2704,10.1557,62.7743,-0.0666,0.014,0.077,34.4375
19:05:54:648,-2.4993,-0.2608,9.8037,62.8236,0.0568,-0.0647,0.1362,34.625
19:05:54:683,-2.3318,-0.3927,9.3706,62.6181,0.1191,0.0342,0.2169,34.6562
19:05:54:688,-2.071,-0.5195,9.2411,62.4755,0.0819,0.1454,0.2834,35.0469
19:05:54:707,-1.951,-0.5937,9.5548,62.2731,-0.0147,0.1668,0.2926,35.0781
19:05:54:729,-1.908,-0.5339,9.8734,62.061,-0.0599,0.0916,0.2596,35.1094
19:05:54:749,-1.8362,-0.2827,9.8901,62.0546,-0.011,0.0049,0.2205,34.6875
19:05:54:769,-1.8721,0.0622,9.5261,62.1689,0.091,-0.044,0.1857,34.6875
19:05:54:789,-1.8625,0.4406,9.0903,62.2048,0.157,-0.055,0.1741,34.0938
19:05:54:807,-1.7405,0.699,8.9348,62.3387,0.1448,-0.0214,0.19,34.0938
19:05:54:829,-1.5682,0.8115,8.7888,62.4568,0.0996,0.0024,0.2193,34
19:05:54:850,-1.4151,0.8668,8.7936,62.4993,0.0794,-0.0678,0.2272,34
19:05:54:868,-1.2616,0.8955,8.741,62.4445,0.0812,-0.1258,0.2193,34
19:05:54:888,-1.3023,0.9912,8.6354,62.54,0.0837,-0.1124,0.1997,34.125
19:05:54:908,-1.3956,1.0702,8.5875,62.8202,0.0782,-0.0397,0.1845,34.1406
19:05:54:931,-1.5108,1.0774,8.4057,62.6401,0.0538,0.0617,0.1857,34
19:05:54:949,-1.4366,0.7851,8.0154,62.5134,-0.0031,0.1173,0.2004,33.6406
19:05:54:968,-1.6591,1.1157,8.3698,62.2008,-0.0819,-0.1008,0.1814,33.6406
19:05:54:989,-2.1619,1.3669,8.9587,62.2465,-0.1069,-0.3696,0.1588,33.0156
19:05:55:009,-1.494,1.4318,9.1214,62.2018,-0.0696,-0.4209,0.2566,33.0156
19:05:55:029,-0.5171,1.4127,8.808,62.4508,-0.0092,-0.3854,0.2871,32.5156
19:05:55:049,-0.3114,1.5443,8.6115,62.5468,0.0104,-0.3457,0.1417,32.4844
19:05:55:068,-0.8859,1.7979,8.8893,62.2456,-0.0305,-0.2541,-0.0293,32.1406
19:05:55:090,-1.695,1.5897,9.7391,62.3379,-0.0757,0.055,-0.0391,32.1094
19:05:55:115,-1.7429,1.3119,10.1007,62.4794,-0.0892,0.0819,0.0348,31.7188
19:05:55:130,-1.6256,1.1276,10.5485,62.7759,-0.1136,0.0159,0.0825,31.6719
19:05:55:148,-1.1898,1.0534,11.0297,62.5853,-0.1429,-0.0538,0.0916,31.25
19:05:55:168,-0.8019,1.0702,11.2044,62.4174,-0.1246,-0.1112,0.0287,31.2031
19:05:55:188,-0.6368,1.118,11.0536,62.4195,-0.0623,-0.1729,-0.0941,30.8438
19:05:55:207,-0.8764,1.2209,10.9026,62.2922,0.0134,-0.2175,-0.2266,30.8125
19:05:55:230,-1.319,1.3334,10.5509,62.4743,0.0605,-0.0898,-0.303,30.4219
19:05:55:249,-1.4773,1.0798,10.9385,62.4741,-0.0214,0.1466,-0.2865,30.0312
19:05:55:269,-1.142,0.3329,11.7933,62.3836,-0.1826,0.416,-0.223,30.0312
19:05:55:289,-0.9936,-0.3951,12.2698,62.2842,-0.3054,0.4642,-0.1918,29.4062
19:05:55:308,-0.7588,-0.9673,12.5904,62.3082,-0.3604,0.1435,-0.1906,29.4062
19:05:55:330,-0.5363,-1.1013,13.0765,62.5992,-0.3543,-0.1753,-0.1936,29.2812
19:05:55:349,-1.8601,-1.427,12.9521,62.5128,-0.2651,-0.215,-0.1087,29.2812
19:05:55:368,-1.6017,-1.1013,12.3296,62.4443,-0.0757,-0.2376,0.2327,29.2812
19:05:55:390,-0.9003,-0.3066,10.826,62.4222,0.2737,-0.3537,0.4319,29.4062
19:05:55:408,-0.2369,-0.1699,9.4998,62.3094,0.565,-0.4991,0.3714,29.4062
19:05:55:430,-0.1029,-0.0407,8.5205,62.2356,0.6426,-0.295,0.2285,29.25
19:05:55:450,-0.2656,-0.0479,8.4392,62.2977,0.5266,0.1093,0.1295,29.0938
19:05:55:467,-0.5004,-0.067,8.3746,62.1827,0.3121,0.5186,0.1173,29.0938
19:05:55:489,-0.8067,-0.0048,8.2334,61.6653,0.0672,0.7013,0.1167,29.4531
19:05:55:514,-1.1755,0.1484,9.0042,61.6582,-0.1558,0.5827,0.0904,29.4531
19:05:55:530,-1.4103,0.3233,9.6984,61.8739,-0.2999,0.4685,0.0452,30.0938
19:05:55:549,-1.2233,0.3377,8.6928,61.7771,-0.3665,0.3806,0.0147,30.0938
19:05:55:568,-1.1061,-0.1125,8.1999,61.8911,-0.4166,0.0153,-0.077,30.4688
19:05:55:589,-0.8019,-0.2249,7.9149,61.9505,-0.4368,-0.317,-0.1527,30.5
19:05:55:610,-0.7493,0.8139,8.3459,61.8412,-0.3867,-0.5754,-0.2266,30.8281
19:05:55:632,-0.6966,0.8764,8.6115,61.8077,-0.2627,-0.4526,-0.2785,30.8594
19:05:55:649,-0.8429,0.268,8.7888,62.1675,-0.2065,-0.0177,-0.2779,30.7188
19:05:55:669,-0.8716,0.0598,8.8463,62.1648,-0.1839,0.631,-0.2523,30.7031
19:05:55:688,-0.8596,0.0718,9.6147,62.0924,-0.1527,0.328,-0.2676,29.9688
19:05:55:707,-1.0008,0.1866,10.2754,62.1569,-0.0415,-0.0617,-0.317,29.8906
19:05:55:729,-1.2329,0.3066,10.3857,61.9032,0.1161,-0.1484,-0.2822,29.6094
19:05:55:748,-0.9817,0.4741,9.7558,61.9439,0.2792,-0.0715,-0.1716,29.3594
19:05:55:767,-0.4956,0.5363,9.294,61.7203,0.3854,-0.0922,-0.1081,29.3594
19:05:55:789,0.079,0.754,8.5612,61.8959,0.4172,-0.259,-0.1906,29.1406
19:05:55:808,0.1699,0.6033,8.5158,62.0721,0.3079,-0.5406,-0.3732,29.1406
19:05:55:830,-0.5746,1.0798,9.5189,62.1156,0.0446,-0.7336,-0.4642,29.1094
19:05:55:849,-0.9721,0.6009,10.4862,62.1541,-0.1112,-0.7825,-0.4068,29.1094
19:05:55:868,-0.7708,0.6942,10.9361,62.2515,-0.1472,-0.6603,-0.2297,29.1094
19:05:55:890,-1.0917,0.2898,11.3049,62.6576,-0.0928,-0.4917,-0.0983,29.4375
19:05:55:908,-1.0726,-0.0694,11.3312,62.8048,0.0079,-0.2498,0.0257,29.4375
19:05:55:930,-1.118,-0.4765,11.7503,63.061,0.0745,0.0049,0.0635,30
19:05:55:948,-1.4151,-0.9601,12.2435,63.2261,0.0593,0.3378,0.077,30.5625
19:05:55:968,-0.6464,-0.431,12.3153,63.0965,-0.0055,0.6267,0.1894,30.5625
19:05:55:989,-0.7684,-0.4501,12.1262,63.1836,-0.066,0.6707,0.1668,31.1875
19:05:56:009,-1.1683,-0.4501,12.1286,63.2544,-0.1381,0.4942,0.0922,31.1875
19:05:56:031,-1.3932,-0.1531,12.1884,63.1579,-0.1576,0.2376,0.0849,31.7344
19:05:56:049,-1.6352,-0.0479,11.712,62.8716,-0.0367,0,0.0965,31.7344
19:05:56:112,-1.7524,-0.0024,10.692,62.8793,0.1851,-0.1771,0.135,32.0938
19:05:56:112,-1.9463,-0.2321,9.4711,63.0358,0.3628,-0.2327,0.1979,32.1406
19:05:56:113,-1.9343,-0.4932,8.6378,62.8303,0.3903,-0.1435,0.3066,33
19:05:56:132,-1.5849,-0.5602,8.5301,62.8537,0.2498,0.1075,0.4374,33.0781
19:05:56:149,-0.644,-0.9194,9.4783,62.6003,-0.0061,0.3445,0.5327,33.6875
19:05:56:169,-0.4214,-0.6511,10.0696,62.3437,-0.2346,0.2712,0.408,33.75
19:05:56:189,-0.7038,-0.2273,9.9045,62.3182,-0.1026,0.2083,0.2071,33.8125
19:05:56:208,-1.2401,0.3233,9.0999,62.4703,0.0709,0.1991,0.0654,33.8281
19:05:56:230,-1.6639,0.7923,8.3004,62.3714,0.1564,0.149,0.0385,33.6875
19:05:56:248,-1.9391,1.1731,7.745,62.3297,0.1118,0.0629,0.113,33.3281
19:05:56:268,-1.9558,1.2257,7.5006,62.5445,-0.0367,0.0275,0.2578,33.3281
19:05:56:289,-1.6878,1.1468,7.5078,62.4073,-0.2401,0.0336,0.4209,33.1094
19:05:56:308,-1.4868,1.0199,8.1135,62.4842,-0.4392,0.0892,0.532,33.1094
19:05:56:329,-1.6831,0.9673,9.4017,62.6675,-0.5449,0.284,0.6115,33.0781
19:05:56:349,-1.8027,0.8859,10.1581,62.7338,-0.4215,0.5424,0.7006,32.8438
19:05:56:368,-1.5538,0.8907,9.7463,62.8042,-0.1155,0.5773,0.7336,32.8438
19:05:56:389,-1.1611,1.0343,9.143,62.6742,0.1594,0.3549,0.6719,32.3438
19:05:56:407,-0.6081,1.1468,9.1238,62.3507,0.2645,0.0177,0.5443,32.3438
19:05:56:430,-1.3645,1.707,9.1023,62.35,0.2834,-0.4056,0.328,31.3125
19:05:56:450,-1.5682,1.8194,8.9683,62.727,0.2926,-0.4728,0.2767,30.2188
19:05:56:468,-1.2999,2.0016,8.6761,62.6095,0.2187,-0.339,0.369,30.2188
19:05:56:489,-0.8163,1.7501,9.1406,62.4861,0.1032,-0.1833,0.3989,29.9062
19:05:56:508,-0.285,1.6831,9.859,62.3428,-0.0208,0.0409,0.3085,29.9062
19:05:56:529,-2.0255,2.0973,12.0494,62.3451,-0.0483,0.1319,0.1631,29.7656
19:05:56:548,-2.2481,1.7692,11.3264,62.4767,0.2419,0.4258,0.2144,29.7656
19:05:56:568,-1.7883,1.8458,10.558,62.4681,0.4642,0.2462,0.3042,29.0625
19:05:56:589,-1.3765,1.9896,10.0361,62.2459,0.4514,-0.5137,0.2169,29
19:05:56:608,-1.6448,1.8553,9.1765,61.9564,0.3402,-0.9254,0.0935,27.7656
19:05:56:631,-2.2744,1.8218,8.9994,62.0805,0.1264,-0.8961,0.1045,27.6406
19:05:56:648,-2.5184,1.2401,11.0154,62.1952,-0.1588,-0.6896,0.2169,26.1562
19:05:56:669,-1.7548,0.0622,13.826,62.3156,-0.2285,-0.1674,0.5656,26.0156
19:05:56:700,-0.4669,-0.7804,14.8385,62.291,0.0696,-0.2926,0.4661,24.8438
19:05:56:708,0.067,0.0646,11.7263,62.0542,0.3616,-0.7862,0.2718,24.7188
19:05:56:729,-0.2584,0.2154,10.57,62.085,0.4532,-1.4215,0.0819,24.1719
19:05:56:748,-0.3114,0.201,9.294,62.0481,0.4105,-1.5345,-0.0177,24.1094
19:05:56:768,0.067,0.0287,8.8199,62.0489,0.2712,-1.2956,0.0843,23.375
19:05:56:788,0.6248,-0.0981,8.7338,61.8626,0.0617,-0.7764,0.2181,22.8281
19:05:56:809,0.984,-0.1484,9.9308,61.6488,-0.1991,-0.1246,0.2816,22.8281
19:05:56:832,0.5315,-0.577,11.8053,61.4643,-0.3494,0.5528,0.3732,22.7812
19:05:56:849,0.941,-0.1507,12.2507,61.3761,-0.1558,1.0195,0.5094,22.2812
19:05:56:868,1.2281,0.1364,10.7255,61.4414,-0.0275,1.1661,0.3396,22.2656
19:05:56:889,0.6727,0.0287,10.0098,61.5462,-0.157,0.9517,0.0067,22.0469
19:05:56:907,0.1005,0.5148,9.6075,61.399,-0.3219,0.821,-0.1417,22.0469
19:05:56:930,-0.4956,0.821,8.7888,61.0055,-0.394,0.7843,-0.1411,21.7344
19:05:56:949,-0.8258,0.7899,7.9388,60.771,-0.3916,0.7202,-0.0415,20.6094
19:05:56:969,-1.0702,0.8354,7.9412,60.5679,-0.369,0.6469,0.146,20.6094
19:05:56:991,-1.0175,0.9745,7.9962,60.6206,-0.2627,0.6371,0.3586,19.8438
19:05:57:015,-1.2616,0.754,7.721,60.3836,-0.0336,0.6047,0.5033,19.8438
19:05:57:030,-1.6232,0.5578,7.6397,60.2988,0.2669,0.3641,0.6493,19.9062
19:05:57:047,-1.3167,1.1396,7.9436,59.9625,0.5461,0.0031,0.8534,19.9062
19:05:57:068,-0.7756,1.6256,7.6086,59.7241,0.6573,-0.1124,0.9523,19.6562
19:05:57:089,-0.8668,1.561,6.9906,59.8085,0.4325,-0.0409,0.8918,19.6562
19:05:57:114,-0.7253,1.2592,6.7466,59.8191,-0.047,-0.1997,0.8656,18.9844
19:05:57:130,0.3209,1.4028,7.9149,59.8816,-0.5455,-0.6298,0.9047,18.9219
19:05:57:148,1.0271,1.3908,9.5596,59.7126,-0.912,-0.7715,0.8246,18
19:05:57:170,0.8019,1.5299,11.6665,59.4826,-1.0207,-0.5003,0.6426,17.9062
19:05:57:190,1.3095,1.6735,11.3504,59.2879,-0.7428,-0.4594,0.4581,17.9688
19:05:57:209,0.7421,0.8378,10.8978,59.326,0.2181,-1.471,-0.3073,17.9688
19:05:57:229,1.2497,1.1803,10.1629,59.2976,0.3598,-1.5431,-0.3024,18.0781
19:05:57:249,1.8194,2.0877,9.6577,59.1243,0.2358,-1.0555,0.0104,18.0938
19:05:57:268,1.7644,2.0399,10.3807,59.1319,0.0275,-0.4716,0.1582,17.5156
19:05:57:288,1.3454,1.4964,11.6833,59.1169,-0.0312,-0.0562,0.0171,17.4688
19:05:57:308,1.0606,0.6846,12.0589,59.1887,0.1295,0.2932,-0.171,16.3281
19:05:57:330,1.2736,0.3401,11.9656,59.2704,0.2101,0.7446,-0.2596,16.2031
19:05:57:349,0.5411,0.3377,11.7957,59.2191,-0.0849,1.2095,-0.3207,14.3438
19:05:57:368,0.0909,0.3281,15.2647,59.0228,-0.5241,0.9871,-0.358,14.3281
19:05:57:389,0.1627,0.0407,14.307,58.9911,-0.5437,1.0067,-0.4862,12.4531
19:05:57:408,-1.9175,-1.3502,11.9082,58.8438,-0.4142,0.9028,-0.6066,12.4375
19:05:57:430,-2.4706,-1.0487,9.7917,58.6034,-0.2059,0.281,-0.4606,10.4688
19:05:57:449,-3.0165,-0.6153,9.5477,58.5565,0.1026,-0.4239,-0.226,9.1562
19:05:57:469,-2.7915,-0.4286,9.076,58.283,0.5235,-0.7709,0.0916,9.1562
19:05:57:490,-2.1188,-0.7995,8.645,58.0937,0.8998,-0.8308,0.4606,9.3906
19:05:57:513,-0.0479,-0.297,7.8,57.9461,0.9322,-0.4997,0.8589,9.3906
19:05:57:527,1.2401,0.1675,6.4762,57.9145,0.3702,0.135,0.9865,9.75
19:05:57:547,1.0152,0.0215,7.4312,57.7618,-0.3928,0.361,0.8821,9.75
19:05:57:567,1.1228,0.4167,8.8702,57.7263,-0.8124,0.3372,0.7892,9.5781
19:05:57:588,0.9721,0.6894,8.942,57.4965,-0.7605,0.2608,0.6615,9.5781
19:05:57:608,0.7899,0.8788,8.1159,57.26,-0.4288,0.0916,0.5669,9.9844
19:05:57:629,0.8835,1.1659,7.4719,56.9429,-0.1643,0.058,0.5443,10.0312
19:05:57:647,0.5076,1.331,7.0771,56.8891,-0.0953,0.2712,0.554,10.6562
19:05:57:667,0.0359,1.1276,8.1182,56.7834,-0.0312,0.3891,0.6231,10.7188
19:05:57:689,0.3568,1.494,9.064,56.6341,0.1179,0.573,0.7532,11.7656
19:05:57:711,-0.1795,0.7301,8.8558,56.6902,0.2034,0.3366,0.2804,11.8594
19:05:57:728,-0.51,1.561,8.9037,56.4293,-0.0336,-0.3164,0.2144,12.5469
19:05:57:748,-0.6248,1.7094,9.507,56.4893,-0.2462,-0.8479,0.1808,12.1562
19:05:57:767,-0.419,1.762,10.1533,56.2815,-0.3506,-1.0342,0.2101,12.1562
19:05:57:787,-0.0407,1.7357,10.8212,56.3368,-0.2847,-0.9315,0.2498,12.1094
19:05:57:808,0.6033,1.6017,11.7335,55.9303,-0.0513,-0.6298,0.1802,10.3281
19:05:57:828,1.3262,1.0367,12.3727,55.9254,0.2486,-0.1051,0.0104,10.1406
19:05:57:847,1.2544,0.9984,12.9951,55.7298,0.4667,0.2883,-0.1875,8.4062
19:05:57:868,0.2827,0.7277,12.0063,55.394,0.6744,0.3738,-0.4093,8.2344
19:05:57:888,-0.0694,0.8907,11.1972,55.2175,0.6988,0.1949,-0.3848,6.8281
19:05:57:907,0.0383,1.1276,10.7375,54.8416,0.5009,0.0342,-0.2175,6.8125
19:05:57:928,0.0957,1.0199,11.3695,54.4267,0.1399,-0.1008,-0.0819,5.5938
19:05:57:948,0.5195,0.632,12.2411,54.0599,-0.1539,-0.1448,0.0312,4.0781
19:05:57:968,1.2353,0.1149,12.6673,53.8224,-0.295,-0.0996,0.1008,4.0781
19:05:57:987,1.7022,-0.2106,12.612,53.5573,-0.314,-0.025,0.0275,3.0625
19:05:58:007,1.4868,-0.4621,11.8866,53.3217,-0.2205,-0.0244,-0.201,3.0625
19:05:58:027,1.0534,-0.4382,10.1581,53.1242,-0.1216,-0.0586,-0.4569,2.625
19:05:58:047,-0.4167,-1.0702,10.0122,52.9267,-0.1564,-0.1802,-0.6218,2.625
19:05:58:067,-0.6272,-0.8764,10.0361,52.4813,-0.1399,-0.1771,-0.4233,2.1094
19:05:58:087,-0.0957,-0.5578,9.5166,52.2959,-0.1533,0.1374,-0.0916,2.1094
19:05:58:107,0.5315,-0.6129,9.4831,52.1041,-0.3054,0.4471,0.1014,1.9219
19:05:58:128,0.9386,-0.553,10.06,51.9849,-0.4331,0.5369,0.0745,1.9062
19:05:58:173,0.6966,-0.1914,9.9117,51.5069,-0.3751,0.4801,-0.1411,2.5312
19:05:58:173,0.2441,-0.134,9.1813,51.1988,-0.1845,0.3274,-0.3683,2.5938
19:05:58:188,-0.2922,0.3329,8.8822,50.8672,-0.0012,0.193,-0.4801,3.2344
19:05:58:212,-0.4525,0.7325,8.6856,50.501,0.2181,0.2999,-0.4471,3.2812
19:05:58:228,-0.577,0.8043,8.1135,50.6107,0.3079,0.3085,-0.4032,3.3438
19:05:58:247,-0.5602,0.7756,7.9101,50.4876,0.3494,0.2584,-0.3537,3.3594
19:05:58:267,-0.3784,0.6918,7.8383,50.2257,0.3244,0.2175,-0.2737,3.2188
19:05:58:288,-0.0598,0.4765,7.733,49.8624,0.2388,0.1258,-0.1814,3.2031
19:05:58:308,0.28,0.5435,8.1401,49.9359,0.1008,-0.0757,-0.1435,3.8438
19:05:58:328,0.1842,0.5171,8.7386,49.9209,0.0483,-0.1148,-0.1429,3.9062
19:05:58:347,0.0407,0.7851,9.1789,49.628,0.0373,0.0483,-0.0953,4.9375
19:05:58:368,-0.2584,1.0247,9.7152,49.6197,0.0916,0.2407,-0.0452,5.0469
19:05:58:388,-0.5602,1.2425,9.8877,49.1693,0.2217,0.3396,0.0428,5.0312
19:05:58:408,-0.7995,1.427,9.8231,48.9523,0.3433,0.3152,0.1918,5.0312
19:05:58:428,-0.9553,1.4797,9.6338,48.5324,0.3482,0.2236,0.3848,5.0469
19:05:58:447,-0.577,1.4294,9.8085,48.4155,0.212,0.0831,0.5986,5.9688
19:05:58:467,0.1005,1.2832,10.3137,47.9433,0.0012,-0.0257,0.7733,5.9688
19:05:58:487,0.7349,1.0678,11.0943,47.6383,-0.1881,-0.0947,0.8265,7.0156
19:05:58:507,1.1492,0.8716,11.9345,47.454,-0.2798,-0.1478,0.7177,7.0156
19:05:58:528,0.9888,0.6368,12.2435,46.8586,-0.2395,-0.1912,0.4875,7.8906
19:05:58:547,0.9577,0.6942,12.5856,46.816,-0.1448,-0.1906,0.2517,7.8906
19:05:58:568,0.7325,1.1228,13.4812,46.654,-0.0544,0.0348,0.0104,8.4219
19:05:58:587,-0.5339,1.1468,13.6558,46.5155,0.157,0.3439,-0.2498,8.4219
19:05:58:608,-2.1236,0.941,12.7798,46.2334,0.4111,0.4465,-0.3757,8.7344
19:05:58:628,-2.7341,0.7373,12.3607,46.1241,0.4704,0.4526,-0.2627,8.7656
19:05:58:648,-2.406,0.3377,12.2435,45.7383,0.3445,0.4887,0.0299,8.9062
19:05:58:667,-1.9295,-0.6009,11.4532,45.5377,0.2804,0.1973,0.2963,8.9219
19:05:58:688,-1.3836,-1.4004,9.5357,45.6898,0.3494,-0.4032,0.4361,8.7031
19:05:58:713,-0.5219,-0.9314,7.4527,45.5493,0.1747,-0.7391,0.3622,7.75
19:05:58:730,-0.2441,-0.6416,7.8718,45.1797,-0.0544,-0.2407,0.3488,7.75
19:05:58:747,0.2632,-0.431,7.9579,44.9988,-0.2083,0.2578,0.4056,7.6406
19:05:58:767,0.7038,-0.0335,7.9101,45.0594,-0.2987,0.4172,0.3799,6.0469
19:05:58:787,0.7181,0.5171,7.9364,44.6641,-0.3622,0.314,0.2413,5.875
19:05:58:808,0.62,1.0391,7.879,44.567,-0.3726,0.1478,0.1057,4.6406
19:05:58:828,0.553,1.4246,7.6086,44.4158,-0.35,0.0678,0.0452,4.5312
19:05:58:847,0.4621,1.6591,7.2852,44.002,-0.3231,0.0421,0.0421,4.2344
19:05:58:867,0.443,1.7788,7.1991,43.5944,-0.3085,-0.0018,0.0586,4.2188
19:05:58:888,0.376,1.8984,7.5293,43.3064,-0.2987,-0.0257,0.0647,4.9062
19:05:58:914,0.0861,1.9534,7.9173,43.4302,-0.2566,-0.0147,0.0574,4.9219
19:05:58:930,-0.2225,1.9295,8.2262,43.1447,-0.1924,-0.0238,0.0733,5.2031
19:05:58:949,-0.3951,1.8649,8.5684,43.0949,-0.1784,-0.0128,0.146,4.4688
19:05:58:968,-0.3688,1.841,9.2821,42.8334,-0.2303,0.0092,0.2352,4.4688
19:05:58:988,-0.1627,1.8505,10.1725,42.6339,-0.2596,-0.0336,0.2822,3.7031
19:05:59:008,-0.0287,1.9056,10.7327,42.4056,-0.1906,-0.1381,0.2523,3.7031
19:05:59:030,-0.146,1.9487,10.7279,42.371,-0.044,-0.2957,0.1497,2.8594
19:05:59:048,-0.3592,2.0566,10.5078,42.2875,0.0794,-0.4459,0.044,2.8594
19:05:59:068,-0.5937,2.0447,10.6777,41.8114,0.1081,-0.4661,-0.0043,2.0938
19:05:59:089,-0.6679,1.9463,11.4796,41.5127,0.069,-0.2877,0.0079,2.0938
19:05:59:114,-0.5124,1.6328,12.3153,41.2927,0.0629,-0.033,0.0568,1.8594
19:05:59:130,0.0957,1.2473,12.909,41.2379,0.135,0.0745,0.0684,1.8594
19:05:59:148,0.498,1.0702,12.6215,40.8675,0.2865,0.0428,-0.0244,1.7031
19:05:59:167,0.3401,1.063,11.5588,40.6175,0.4258,-0.1399,-0.1582,1.6875
19:05:59:191,0.0479,1.3478,9.7606,40.4329,0.3189,-0.7556,-0.1961,1.5312
19:05:59:213,0.2704,1.2855,9.9811,40.1648,0.0764,-0.6866,-0.0776,1.5156
19:05:59:231,0.8163,0.9553,10.7518,39.606,-0.1808,-0.3079,0.0947,1.2656
19:05:59:248,1.4725,0.2776,12.0637,39.5362,-0.358,0.1576,0.2059,1.25
19:05:59:268,1.9343,-0.3233,13.0071,39.4344,-0.3433,0.5485,0.1704,0.7031
19:05:59:287,1.5514,-0.7851,12.629,39.149,-0.1319,0.664,0.0067,0.6406
19:05:59:307,0.8115,-0.9482,10.8787,39.2366,0.1228,0.3818,-0.1588,0.2344
19:05:59:331,0.3879,-0.5746,9.4639,39.1752,0.1582,0.014,-0.2156,0.1875
19:05:59:349,0.2154,-0.189,9.3873,39.021,-0.0593,-0.0287,-0.1515,0.1719
19:05:59:368,0.3449,-0.0191,10.0337,38.6923,-0.2944,0.1961,-0.0403,0.1719
19:05:59:388,0.2417,0.1651,9.7989,38.8217,-0.3598,0.3854,0.0134,0.125
19:05:59:407,-0.0239,0.4597,8.9468,38.5263,-0.3262,0.3812,0.0177,0.1094
19:05:59:430,-0.0622,0.8091,8.432,38.3251,-0.3134,0.2468,0.0305,0.0938
19:05:59:449,0.0933,1.13,8.9468,37.999,-0.3085,0.1784,0.0342,0.5781
19:05:59:468,0.0431,1.185,9.2701,37.6524,-0.1888,0.2969,0.0024,0.5781
19:05:59:490,-0.1436,1.1444,8.9061,37.3164,0.0489,0.4221,-0.0684,0.9531
19:05:59:508,-0.3808,1.1779,8.2143,36.9264,0.2511,0.43,-0.1191,0.9531
19:05:59:530,-0.5985,1.1946,7.6493,36.7295,0.3262,0.3262,-0.1124,0.6094
19:05:59:551,-0.5746,1.0917,7.5942,36.4265,0.2865,0.2071,-0.0348,0.6094
19:05:59:569,-0.4478,0.9649,7.9627,36.2992,0.1961,0.135,0.0678,0.3594
19:05:59:588,-0.3209,0.8859,8.5253,35.8199,0.1393,0.1014,0.1478,0.3594
19:05:59:608,-0.0837,0.9577,8.942,35.7051,0.1515,0.1222,0.1869,0.7656
19:05:59:629,0.012,1.0271,9.1262,35.3848,0.1936,0.2022,0.1894,0.7656
19:05:59:648,0.0526,1.13,9.198,35.2083,0.2223,0.2932,0.1839,0.9375
19:05:59:667,-0.0096,1.252,9.4041,35.1232,0.2242,0.2914,0.1741,0.9531
19:05:59:688,-0.189,1.2353,9.7271,35.0214,0.2315,0.2095,0.1741,0.875
19:05:59:715,-0.5363,0.6775,10.6083,34.887,0.1417,0.0379,0.2663,0.875
19:05:59:731,-0.3209,0.3808,11.5469,34.4941,-0.0122,-0.1332,0.3244,0.7656
19:05:59:749,-0.1029,-0.0048,12.5067,34.4068,-0.1552,-0.3751,0.3299,0.75
19:05:59:768,-0.2465,-0.3425,12.6601,34.0789,-0.1472,-0.7025,0.2712,0.7969
19:05:59:788,-0.486,-0.1938,12.1956,33.7885,-0.0409,-0.8796,0.1991,0.7969
19:05:59:808,-0.6846,-0.134,11.8843,33.6436,-0.0024,-0.6334,0.2028,1.0625
19:05:59:831,-0.8282,-0.0909,11.6833,33.3867,-0.0147,-0.1497,0.27,1.0938
19:05:59:849,-0.766,0.0909,11.7718,33.2167,-0.0867,0.2608,0.372,1.0938
19:05:59:868,-0.5076,0.1938,12.3559,32.9803,-0.2022,0.4642,0.5119,1.0938
19:05:59:888,-0.4023,-0.1938,12.3894,32.851,-0.1961,0.3189,0.6139,0.7812
19:05:59:907,-0.2922,-0.2827,11.3886,32.7299,0.0079,-0.1344,0.6145,0.75
19:05:59:929,-0.9553,-0.1364,9.9141,32.4785,0.2193,-0.4233,0.5211,0.3594
19:05:59:948,-1.6256,0.2106,8.6713,32.5041,0.2504,-0.2865,0.4899,0
19:05:59:969,-1.4677,0.4525,8.4392,32.4813,0.0605,0.08,0.6341,0
19:05:59:988,-0.7612,0.486,8.688,32.3427,-0.2083,0.347,0.8534,359.5156
19:06:00:012,0.1484,0.4573,9.1214,32.1551,-0.3977,0.3445,0.9896,359.5156
19:06:00:029,0.7397,0.577,8.9611,32.1872,-0.4471,0.2114,0.9877,358.7969
19:06:00:048,0.8402,0.7995,8.6402,32.0785,-0.4203,0.0709,0.8747,358.7969
19:06:00:069,0.7756,1.1133,8.4631,31.8703,-0.3445,-0.0049,0.7355,358.3281
19:06:00:089,0.6057,1.3836,8.3172,31.8723,-0.223,0.0293,0.6273,358.3281
19:06:00:113,0.3832,1.4486,8.1039,31.7801,-0.0831,0.069,0.5522,357.8281
19:06:00:128,0.256,1.4079,7.8215,31.6944,0.0574,0.0043,0.496,357.8281
19:06:00:148,0.0766,1.4677,7.4336,31.4629,0.1686,-0.1381,0.4093,356.9062
19:06:00:167,-0.2656,1.6519,7.3259,31.413,0.201,-0.2266,0.3421,356.8125
19:06:00:232,-0.5841,1.8075,7.3762,31.2101,0.1637,-0.1894,0.3402,355.5625
19:06:00:232,-0.6057,1.9872,7.9627,31.146,0.0764,-0.0739,0.3812,355.4531
19:06:00:232,-0.0024,2.2122,9.938,31.1048,-0.0403,0.2303,0.4282,354.4844
19:06:00:252,0.0479,2.1906,10.4527,31.1569,0.0318,0.2822,0.3628,354.3906
19:06:00:268,0.0694,2.2385,10.3881,31.0337,0.1497,0.1264,0.2889,352.875
19:06:00:289,-0.1005,2.3222,10.5365,30.8638,0.1924,-0.091,0.2254,352.7344
19:06:00:307,-0.3138,2.1523,11.1206,31.0307,0.157,-0.135,0.215,350.6719
19:06:00:330,-0.1364,1.8625,11.8843,30.9168,0.1228,-0.0293,0.248,350.4688
19:06:00:350,0.0239,1.4916,12.3631,31.0241,0.1698,0.0629,0.2297,348.7969
19:06:00:367,-0.0526,1.0439,11.8771,31.0249,0.2895,-0.014,0.168,348.625
19:06:00:389,-0.4262,0.7134,10.6418,30.9823,0.3372,-0.3066,0.1075,347.4219
19:06:00:412,-0.4549,0.778,10.1486,30.879,0.1692,-0.6817,0.1155,347.2969
19:06:00:429,-0.1149,0.9051,10.7925,30.8289,-0.1448,-0.7703,0.2016,346.3125
19:06:00:449,0.376,0.7421,12.1382,30.7193,-0.4178,-0.474,0.3128,345.6094
19:06:00:468,1.1611,0.4717,13.7662,30.5174,-0.5168,0.0623,0.3512,345.6094
19:06:00:489,1.7213,0.213,14.1682,30.5997,-0.3421,0.5259,0.2364,344.7188
19:06:00:512,1.1898,0.0909,12.7487,30.4604,0.0128,0.5492,-0.0134,344.7188
19:06:00:529,-0.0455,0.2776,10.2802,30.614,0.3244,0.1167,-0.2376,343.8281
19:06:00:550,-0.7373,0.5913,8.511,30.7194,0.3329,-0.2175,-0.2114,343.8281
19:06:00:568,-0.4669,0.8501,8.3315,30.6065,0.0568,-0.1509,0.0244,343.2656
19:06:00:588,0.2369,0.833,9.4424,30.4945,-0.2651,0.1936,0.2743,343.2656
19:06:00:613,0.7158,0.6344,9.9212,30.8257,-0.3867,0.5479,0.4056,342.7969
19:06:00:629,0.8091,0.5626,9.6242,30.9967,-0.3622,0.6499,0.4056,342.7969
19:06:00:648,0.8716,0.699,9.3706,31.1488,-0.3189,0.4997,0.3445,342.3906
19:06:00:668,1.0965,0.8812,9.7367,31.0918,-0.2706,0.3207,0.2645,342.3906
19:06:00:688,0.9817,0.9075,9.7941,30.9314,-0.1161,0.2718,0.1454,342.25
19:06:00:715,0.553,0.9649,9.4663,31.069,0.1246,0.2718,0.0043,342.2344
19:06:00:737,-0.1101,1.0534,8.8271,31.5039,0.3506,0.2602,-0.091,341.75
19:06:00:749,-0.5722,1.051,7.5269,31.8335,0.4881,0.1173,0.0147,341.7031
19:06:00:768,-0.3209,0.9458,7.5724,31.823,0.3867,0.0678,0.1307,341.0625
19:06:00:789,-0.0933,0.9194,8.1927,31.8606,0.2694,0.1008,0.204,340.9844
19:06:00:812,-0.1866,0.9099,8.7171,31.8859,0.226,0.1796,0.2114,341.2188
19:06:00:830,-0.2656,0.9745,8.9539,32.2483,0.248,0.2211,0.1979,341.25
19:06:00:848,-0.376,1.1061,8.9707,32.4299,0.2645,0.2101,0.1906,341.4688
19:06:00:867,-0.5004,1.2664,9.0736,32.4038,0.2462,0.1552,0.2059,341.5
19:06:00:888,-0.4525,1.3621,9.1167,32.5681,0.2199,0.1112,0.2572,340.75
19:06:00:907,-0.2177,1.3262,9.2148,32.7287,0.1723,0.0531,0.3256,340.6719
19:06:00:929,0.146,1.2185,9.6529,32.9947,0.091,-0.022,0.3757,339.75
19:06:00:948,0.4119,1.0223,10.3017,33.2819,-0.0037,-0.0324,0.3964,339.2344
19:06:00:968,0.3903,0.7373,11.3073,33.4097,-0.0837,-0.0183,0.3738,339.2344
19:06:00:989,-0.0191,0.2058,11.8292,33.5525,-0.0696,-0.0287,0.3054,339.3438
19:06:01:014,-0.2297,0.0885,11.3647,33.6426,0.0159,-0.1381,0.237,339.3438
19:06:01:029,-0.4119,0.3281,11.6665,33.8919,-0.0275,-0.1924,0.2071,339.4844
19:06:01:048,-0.9242,0.2417,12.2291,34.0086,-0.1564,0.0324,0.2523,339.4844
19:06:01:068,-1.1252,0.055,12.3894,34.2025,-0.2425,0.2547,0.3983,339.1719
19:06:01:089,-0.6392,0.0933,12.5163,34.3264,-0.3396,0.314,0.5846,339.1719
19:06:01:112,-0.2225,-0.0048,13.0071,34.4927,-0.4581,0.2828,0.722,338.75
19:06:01:129,-0.1125,-0.2584,12.6191,34.9098,-0.3977,0.1026,0.7629,338.75
19:06:01:148,-0.364,-0.297,11.3886,34.9677,-0.1655,-0.1845,0.6884,338.3281
19:06:01:168,-0.9266,-0.0742,9.8133,35.4553,0.0483,-0.2792,0.5345,338.3281
19:06:01:188,-1.4438,0.4143,8.9683,35.5453,0.0861,-0.0434,0.405,337.7812
19:06:01:213,-1.6711,0.7229,8.7003,35.6404,-0.0104,0.3677,0.4178,337.7188
19:06:01:230,-1.2401,0.7828,8.4775,35.9861,-0.1222,0.5779,0.573,336.9688
19:06:01:248,-0.2393,0.7923,8.2047,36.2877,-0.2095,0.4697,0.7086,336.8906
19:06:01:269,0.8402,0.9984,8.0034,36.4184,-0.3433,-0.0495,0.5101,336.1875
19:06:01:289,1.0774,1.2138,8.2406,36.5893,-0.3286,-0.1533,0.3488,336.125
19:06:01:307,0.8692,1.3334,8.1449,37.0799,-0.2297,-0.0794,0.2126,335.7031
19:06:01:330,0.376,1.4055,7.9843,37.0783,-0.0916,-0.033,0.1106,335.6562
19:06:01:348,-0.0479,1.4821,7.6923,37.5983,0.025,-0.0397,0.0764,334.9531
19:06:01:367,-0.4047,1.5203,7.4839,37.9567,0.0727,-0.08,0.0874,334.8906
19:06:01:388,-0.6176,1.6113,7.6253,38.2952,0.0336,-0.1008,0.1301,333.4688
19:06:01:407,-0.8163,1.8218,8.3722,38.4769,-0.0605,-0.0452,0.1784,333.3281
19:06:01:430,-1.0893,2.0566,9.2411,38.7958,-0.1045,0.066,0.1985,331.8281
19:06:01:448,-1.3908,2.3821,9.7726,39.2533,-0.0501,0.1662,0.1949,330.6719
19:06:01:468,-1.5873,2.6025,9.8207,39.3578,0.0586,0.1961,0.2065,330.6719
19:06:01:489,-1.6639,2.6432,9.5692,39.774,0.1552,0.1167,0.2676,329.5
19:06:01:508,-1.4318,2.5594,9.2749,39.9642,0.1906,-0.0586,0.3757,329.5
19:06:01:529,-0.9027,2.2911,9.3849,40.2337,0.1301,-0.2291,0.4942,327.8906
19:06:01:549,-0.1196,2.0231,10.3113,40.3381,0.011,-0.3109,0.562,327.8906
19:06:01:567,0.4956,1.7716,11.5397,40.4619,-0.0666,-0.2004,0.5247,326.875
19:06:01:588,0.9194,1.4916,12.399,40.7804,-0.0519,-0.0324,0.4148,326.875
19:06:01:617,1.1515,1.2257,12.7606,41.0639,0.047,-0.0031,0.2676,326.5156
19:06:01:631,0.9673,0.996,12.0927,41.3739,0.1949,-0.1509,0.11,326.4844
19:06:01:648,0.419,0.7971,11.0201,41.5479,0.2614,-0.4783,-0.0079,326.3125
19:06:01:669,0.0383,0.6703,10.5724,41.8084,0.1771,-0.7746,-0.0342,326.3125
19:06:01:690,-0.079,0.6153,10.5365,42.0933,-0.0086,-0.7819,0.0257,326.0156
19:06:01:714,0.2201,0.7684,11.6282,42.6687,-0.2908,-0.4679,0.146,325.9844
19:06:01:730,0.754,0.4645,13.8188,42.9429,-0.5131,0.0574,0.2376,325.5625
19:06:01:748,1.1611,-0.1914,14.3839,43.3473,-0.3561,0.4288,0.2187,325.5156
19:06:01:769,-0.1962,-0.5028,9.5118,43.4573,0.452,-0.3396,-0.1429,325.0469
19:06:01:791,-0.8354,0.0766,7.855,43.8349,0.4074,-0.5834,-0.1625,325
19:06:01:807,-0.7828,0.4095,8.1449,44.2744,0.0379,-0.2474,0.0159,324.1875
19:06:01:830,0.1795,0.443,9.8686,44.5532,-0.3824,0.3903,0.2535,324.1094
19:06:01:850,0.8835,0.2082,11.2164,44.7825,-0.551,0.824,0.3299,323.0469
19:06:01:868,1.1109,0.3281,11.1972,44.8012,-0.4105,0.7202,0.2114,322.9375
19:06:01:889,0.778,0.8019,10.3232,45.2029,-0.1319,0.2755,-0.0061,322.25
19:06:01:913,0.0479,1.2473,8.9659,45.3294,0.0971,-0.0635,-0.1643,322.1875
19:06:01:930,-0.4214,1.5969,8.1879,45.6189,0.1698,-0.1411,-0.1723,322.1562
19:06:01:949,-0.2704,1.7955,8.2525,45.8906,0.1625,-0.0098,-0.0751,322.2969
19:06:01:968,0.0742,1.6591,8.4751,46.1456,0.19,0.2138,0.0336,322.2969
19:06:01:990,0.2058,1.3956,8.2837,46.1352,0.2798,0.2914,0.077,321.8594
19:06:02:012,0.2946,1.3023,8.3411,46.4215,0.3292,0.1716,0.0922,321.8594
19:06:02:029,0.2249,1.2688,8.365,46.515,0.3237,0.0556,0.1057,321.5
19:06:02:049,0.3185,1.2736,8.3411,46.7356,0.3018,-0.0202,0.1338,321.5
19:06:02:068,0.5937,1.3645,8.4488,46.9028,0.2724,-0.0666,0.149,321.9531
19:06:02:089,0.6511,1.5802,8.8199,46.9504,0.259,-0.0715,0.1032,321.9531
19:06:02:114,0.4573,1.7859,9.1023,47.0757,0.3183,-0.1008,0.0061,321.625
19:06:02:130,0.3305,2.0925,9.3586,47.0877,0.4099,-0.204,-0.1038,321.625
19:06:02:149,0.1388,2.4012,9.6482,47.3756,0.4948,-0.328,-0.2205,320.8594
19:06:02:167,-0.1292,2.5451,9.6817,47.455,0.5589,-0.3971,-0.2608,320.8594
19:06:02:189,-0.1627,2.4562,9.6386,47.8763,0.565,-0.3464,-0.179,321
19:06:02:214,0.3209,2.3318,9.7415,48.1122,0.4545,-0.1228,-0.0275,321.0156
19:06:02:230,0.6583,1.7836,10.3017,48.25,0.2193,0.1949,0.1118,321.2969
19:06:02:298,0.5937,0.6966,10.9819,48.3905,-0.0452,0.3781,0.2089,321.3281
19:06:02:299,1.0774,0.3114,11.8914,48.4228,-0.2663,0.314,0.2413,321.2188
19:06:02:299,0.6392,-0.6224,12.6338,48.6709,-0.3971,0.2083,0.0971,321.2031
19:06:02:315,0.6631,-0.565,12.2746,48.9598,-0.3775,0.2242,0.1069,321.0469
19:06:02:330,0.7277,-0.0096,12.8372,49.1229,-0.4594,0.3464,0.1301,321.0312
19:06:02:348,0.067,0.1172,13.4381,49.2148,-0.4759,0.4673,0.1142,320.7969
19:06:02:367,-0.8644,-0.0144,12.3105,49.3374,-0.2236,0.3176,0.1161,320.7656
19:06:02:389,-1.5706,-0.012,10.0457,49.5455,0.1216,-0.0959,0.1729,320.7188
19:06:02:412,-1.9152,0.1579,7.8574,49.8813,0.2712,-0.383,0.295,320.7188
19:06:02:430,-1.7142,0.4478,6.8399,50.2521,0.1081,-0.2712,0.4777,321.1406
19:06:02:449,-0.917,0.5937,7.1847,50.3248,-0.2541,0.1142,0.6933,321.8438
19:06:02:468,0.1125,0.5339,8.3172,50.4559,-0.5925,0.4264,0.8509,321.8438
19:06:02:489,0.9314,0.6344,9.4232,50.6216,-0.7287,0.4331,0.8301,321.7969
19:06:02:512,1.2066,0.8812,9.9332,50.7782,-0.6402,0.2236,0.6542,321.7969
19:06:02:530,1.0774,1.3525,10.0552,50.9325,-0.4105,-0.0049,0.4245,321.1875
19:06:02:549,0.5483,1.7357,9.2821,51.0806,-0.1405,-0.1063,0.2175,321.1875
19:06:02:568,-0.0215,2.0207,8.3626,51.1806,0.0501,-0.1619,0.0996,320.7812
19:06:02:588,-0.5459,2.193,7.7282,51.1932,0.1271,-0.1753,0.1008,320.7812
19:06:02:608,-0.7875,2.26,7.4886,51.5782,0.1301,-0.1387,0.1802,320.7812
19:06:02:630,-0.8043,2.1787,7.5748,51.7034,0.0977,-0.0312,0.2926,320.4062
19:06:02:648,-0.7181,1.9223,7.7426,51.8917,0.0702,0.0568,0.3873,320
19:06:02:669,-0.419,1.762,8.1377,52.0088,0.0275,0.0153,0.438,320
19:06:02:690,-0.2058,1.7644,8.9348,52.2043,-0.0379,-0.0379,0.4319,319.5625
19:06:02:712,-0.1986,1.7668,9.4137,52.4483,-0.0574,-0.0024,0.408,319.5625
19:06:02:728,-0.0287,1.8888,9.6649,52.7046,-0.0348,0.0287,0.3671,318.4062
19:06:02:763,0.0215,2.0686,9.7893,53.0502,-0.0104,0.0458,0.2999,318.2969
19:06:02:767,-0.0383,2.2433,9.9021,52.8761,0.0391,-0.0257,0.2205,316.4375
19:06:02:790,0.0144,2.4036,9.8061,53.2622,0.1191,-0.1374,0.1674,316.25
19:06:02:813,0.4095,2.1667,10.8093,53.5921,0.0244,0.0507,0.1881,315.0625
19:06:02:830,0.8572,1.7692,12.1765,53.9597,-0.0421,0.2492,0.1631,314.9375
19:06:02:848,1.1133,1.3789,12.7678,54.2306,0.0293,0.2749,0.0458,314.625
19:06:02:867,0.9218,1.252,12.1334,54.5301,0.1826,0.0617,-0.1319,314.5938
19:06:02:890,0.2465,1.319,11.2283,54.8553,0.2395,-0.2175,-0.2645,314.3594
19:06:02:912,-0.1914,1.2927,10.905,55.0304,0.1008,-0.3207,-0.2236,314.3281
19:06:02:933,-0.0287,1.142,11.4102,55.5478,-0.1503,-0.2114,-0.0715,313.6562
19:06:02:948,0.5267,0.9003,12.5521,55.6469,-0.3702,0.0702,0.0629,312.6406
19:06:02:968,1.1539,0.5195,13.5266,55.8196,-0.4532,0.4313,0.0928,312.6406
19:06:02:989,1.1827,0.0311,13.9624,55.9948,-0.3531,0.6249,-0.0073,311.7812
19:06:03:013,0.6129,-0.2273,12.8348,56.1418,-0.0324,0.5039,-0.2077,311.7812
19:06:03:030,-0.1316,-0.1364,10.5389,56.4432,0.3189,0.1985,-0.4001,311.2031
19:06:03:050,-0.7301,0.0957,8.633,56.6949,0.3848,0.033,-0.4319,311.2031
19:06:03:068,-0.6488,0.3329,8.1832,56.7997,0.1527,0.0971,-0.2963,310.875
19:06:03:089,-0.2608,0.3688,8.942,56.9803,-0.1393,0.2871,-0.1429,310.875
19:06:03:107,0.055,0.376,9.119,57.2451,-0.2529,0.4148,-0.0709,310.875
19:06:03:129,0.309,0.4908,9.294,57.4113,-0.2474,0.3702,-0.0996,310.4688
19:06:03:150,0.2201,0.6416,9.4089,57.6404,-0.1698,0.2682,-0.1875,310.5312
19:06:03:169,-0.0646,0.8378,9.3467,57.8694,-0.011,0.1784,-0.2676,310.5312
19:06:03:190,-0.5195,0.9769,8.9037,57.9077,0.1808,0.1393,-0.303,311.1406
19:06:03:211,-0.8501,1.0415,8.1254,57.9077,0.3317,0.1271,-0.2651,311.1406
19:06:03:230,-0.8859,1.0654,7.7761,58.1396,0.358,0.0916,-0.1607,311.1406
19:06:03:248,-0.7205,1.0367,7.855,58.1918,0.3091,0.0195,-0.0269,311.1406
19:06:03:269,-0.3592,0.9434,8.1855,58.3761,0.2437,-0.0751,0.0996,310.9062
19:06:03:290,0.4119,0.7684,8.4751,58.5421,0.1997,-0.223,0.1985,310.8906
19:06:03:313,0.7325,0.8572,8.432,58.6009,0.1961,-0.2321,0.1753,311.4531
19:06:03:329,0.7564,1.0845,8.4033,58.9179,0.1784,-0.1735,0.1002,311.5156
19:06:03:348,0.4669,1.4557,8.9803,59.2156,0.1478,-0.069,-0.014,312.2812
19:06:03:367,0.1914,1.7788,9.6553,59.3422,0.1643,0.1063,-0.0959,312.3594
19:06:03:388,-0.0215,1.9343,9.6936,59.4118,0.2321,0.2767,-0.0874,312.4844
19:06:03:413,-0.1531,1.9271,9.6769,59.6364,0.2242,0.2932,-0.0061,312.5
19:06:03:431,-0.0885,1.9681,10.2323,59.8096,0.1075,0.2114,0.0867,312.6875
19:06:03:448,0.0885,1.8242,11.2953,60.0378,-0.0257,0.2175,0.1552,313.2812
19:06:03:467,0.2369,1.5108,11.6617,60.2908,-0.0629,0.2938,0.1912,313.2812
19:06:03:489,-0.0909,1.13,11.4485,60.1863,-0.0452,0.2107,0.1588,313.8594
19:06:03:514,-0.553,0.9936,11.1254,60.2923,-0.0495,0.0483,0.1185,313.8594
19:06:03:530,-1.0104,0.9912,11.1422,60.6352,-0.1307,0.0819,0.1381,313.8594
19:06:03:549,-1.6161,0.2752,11.5445,60.7618,-0.2584,0.2645,0.2773,313.8594
19:06:03:567,-1.5658,-0.1795,11.846,60.8941,-0.3292,0.4563,0.4893,313.5312
19:06:03:589,-1.6113,-0.3281,11.2211,61.105,-0.292,0.4398,0.606,313.5312
19:06:03:613,-1.4127,-0.0694,10.6346,61.0534,-0.3164,0.2474,0.7171,313.5312
19:06:03:628,-0.9386,-0.0144,10.2826,61.2898,-0.3903,-0.0153,0.8527,313.3125
19:06:03:648,-0.2728,-0.1364,9.8686,61.4487,-0.3964,-0.2847,0.9248,313.4688
19:06:03:668,0.5195,-0.0933,9.7343,61.41,-0.3708,-0.2743,0.8631,313.4688
19:06:03:688,0.8091,0.0622,9.9835,61.3915,-0.3934,0.149,0.6426,313.5469
19:06:03:714,0.2946,0.4836,10.625,61.5701,-0.4514,0.6683,0.3598,313.5469
19:06:03:729,-0.4501,0.8282,11.2451,61.5936,-0.463,0.887,0.1655,313.2812
19:06:03:749,-0.644,1.1659,11.2068,61.4042,-0.3476,0.642,0.0983,313.25
19:06:03:769,-0.6894,1.4797,10.3807,61.5819,-0.1356,0.1509,0.0825,312.8438
19:06:03:790,-0.6224,1.5706,8.8032,61.493,0.0599,-0.3366,0.1026,312.7969
19:06:03:814,-0.1149,1.8099,7.3259,61.6253,0.1258,-0.6005,0.1662,312.5
19:06:03:830,-0.1292,1.8075,7.1178,61.4899,0.1472,-0.4209,0.1527,312.4844
19:06:03:848,-0.2058,1.7501,6.8949,61.4445,0.1759,-0.1985,0.1454,311.5781
19:06:03:868,-0.2082,1.6041,7.168,61.5078,0.1283,-0.0159,0.1643,311.4844
19:06:03:889,-0.1412,1.5084,7.9364,61.5678,0.0324,0.1087,0.1784,310.0312
19:06:03:913,-0.2034,1.4509,8.6737,61.8699,-0.0415,0.1888,0.1631,309.875
19:06:03:931,-0.2827,1.5012,9.2483,61.9129,-0.0941,0.2089,0.1326,308.0312
19:06:03:948,-0.4214,1.6591,9.7678,61.9652,-0.1246,0.1845,0.0922,306.2656
19:06:03:967,-0.5363,1.9128,9.9715,62.153,-0.1106,0.1063,0.0538,306.2656
19:06:03:989,-0.7086,2.1667,9.9787,62.4348,-0.0446,-0.0525,0.0195,305.25
19:06:04:008,-0.8931,2.3653,9.5764,62.5721,0.0757,-0.2596,0.0055,305.25
19:06:04:029,-1.0702,2.4132,9.1238,62.3829,0.1576,-0.35,0.0373,304.9062
19:06:04:051,-1.1348,2.3174,9.5692,62.589,0.1289,-0.2321,0.1179,304.9062
19:06:04:068,-1.075,2.0207,10.5197,62.5522,0.08,-0.0098,0.223,304.9062
19:06:04:089,-0.7038,1.7716,11.4341,62.409,0.0849,0.1136,0.3128,304.7344
19:06:04:112,-0.0933,1.5132,11.7383,62.5508,0.1173,0.0489,0.3433,304.7344
19:06:04:129,0.1651,1.264,11.5493,62.5033,0.1087,-0.1637,0.2981,304.5
19:06:04:149,0.0694,1.0798,11.4652,62.4073,0.0263,-0.3799,0.2181,304.2188
19:06:04:168,-0.1436,0.8644,12.076,62.3343,-0.1167,-0.3103,0.1405,304.2188
19:06:04:189,-0.0311,0.297,12.8085,62.6199,-0.2431,0.0263,0.1264,303.8125
19:06:04:211,0.5315,-0.1938,12.9473,62.6721,-0.2889,0.2462,0.1258,303.8125
19:06:04:229,0.8043,-0.3712,12.8707,62.7129,-0.2572,0.1509,0.0024,303.5312
19:06:04:248,0.4478,-0.5171,12.1765,62.8539,-0.1191,-0.0776,-0.1973,303.5
19:06:04:268,0.2512,-0.3808,10.9747,62.7969,0.0495,-0.2046,-0.3384,303.4062
19:06:04:289,0.1029,-0.376,9.9212,62.8065,0.0782,-0.0855,-0.4019,303.4062
19:06:04:314,0.1172,-0.0694,10.194,62.8536,-0.2101,0.3354,-0.4233,303.4375
19:06:04:371,-0.0311,0.1842,10.4647,62.8693,-0.2395,0.4251,-0.4581,303.4375
19:06:04:372,-0.2201,0.4334,9.993,62.8194,-0.1374,0.3873,-0.4862,303.1406
19:06:04:372,-0.3018,0.6631,8.9611,62.614,-0.0049,0.2333,-0.4905,303.1094
19:06:04:390,-0.3042,0.9027,8.2454,62.5085,0.0501,0.1051,-0.4697,302.4688
19:06:04:412,-0.3425,1.0008,7.9866,62.4844,0.0476,0.0977,-0.4258,302.4062
19:06:04:429,-0.3473,1.0008,7.8622,62.4028,0.0538,0.1497,-0.361,301.9531
19:06:04:448,-0.268,0.8835,7.9005,62.3439,0.0764,0.1723,-0.2987,301.625
19:06:04:467,-0.0622,0.7253,7.8885,62.1754,0.1112,0.1723,-0.2419,301.625
19:06:04:489,-0.1053,0.6224,7.8885,62.3513,0.1319,0.1643,-0.223,301.3594
19:06:04:511,-0.3808,0.711,8.0943,62.3633,0.1381,0.1637,-0.2364,301.3594
19:06:04:529,-0.6511,0.8091,8.1544,62.4786,0.1448,0.2223,-0.2352,301.9531
19:06:04:549,-0.8234,0.9218,8.243,62.4106,0.1203,0.2871,-0.1955,301.9531
19:06:04:568,-0.929,0.9817,8.365,62.2849,0.0757,0.27,-0.1356,301.9531
19:06:04:589,-0.7851,1.0893,8.5899,62.2429,0.0202,0.1973,-0.0556,302.8438
19:06:04:611,-0.5746,1.1492,9.0903,62.1177,-0.0421,0.1588,0.0031,302.8594
19:06:04:628,-0.4597,1.1587,9.6123,62.2984,-0.066,0.1539,0.0104,303.7031
19:06:04:648,-0.6511,1.1539,9.9404,62.183,-0.047,0.1741,-0.0165,304.7031
19:06:04:669,-0.9314,1.0798,10.2443,62.1075,-0.0507,0.27,-0.0189,304.7031
19:06:04:689,-1.0774,0.9625,10.8069,61.8623,-0.1167,0.3891,0.0073,305.6875
19:06:04:711,-1.2903,0.7995,11.6354,61.8957,-0.2114,0.4478,0.0336,305.6875
19:06:04:728,-1.963,0.4669,11.7574,61.9332,-0.2449,0.3842,0.0421,306.4062
19:06:04:748,-2.2696,0.2584,11.7287,62.0813,-0.2773,0.2114,0.1051,306.4062
19:06:04:778,-1.9872,0.2417,12.6168,62.0629,-0.4007,0.2871,0.2327,306.8906
19:06:04:788,-1.7237,-0.2417,13.7566,61.8925,-0.5058,0.6365,0.3537,306.9375
19:06:04:809,-1.2233,-0.6775,14.1156,61.7805,-0.4294,0.752,0.3928,307.4062
19:06:04:832,-1.4557,-0.7804,10.2084,61.8812,0.1918,-0.1283,0.1698,307.4688
19:06:04:849,-1.9582,-0.632,8.7003,61.9333,0.2449,-0.2932,0.1087,307.7812
19:06:04:869,-2.2528,-0.5865,8.4081,61.9835,0.0849,-0.0745,0.1423,307.8125
19:06:04:888,-1.9729,-0.6392,9.0449,61.6834,-0.1613,0.3152,0.2431,307.8438
19:06:04:908,-1.4342,-0.8258,9.7534,61.5032,-0.3903,0.5595,0.3201,307.8438
19:06:04:930,-0.9051,-0.7923,10.7758,61.5529,-0.5595,0.4471,0.3036,307.8125
19:06:04:948,-0.5961,-0.419,11.4413,61.6244,-0.5766,0.1271,0.2101,307.7344
19:06:04:967,-0.7134,0.0431,10.9866,61.5716,-0.3604,-0.2419,0.0739,307.7344
19:06:04:990,-0.9984,0.5195,9.4974,61.295,-0.0403,-0.4887,-0.0452,307.5312
19:06:05:012,-1.4342,0.8644,7.9627,61.3976,0.1564,-0.5058,-0.099,307.5312
19:06:05:029,-1.762,1.0822,6.9045,61.1557,0.1906,-0.4105,-0.0666,307.0312
19:06:05:049,-1.6232,1.1755,6.3873,61.3406,0.1148,-0.3115,0.0556,306.9844
19:06:05:067,-1.2209,1.0463,6.6341,61.1644,-0.0324,-0.2211,0.1979,306.9688
19:06:05:089,-0.8477,0.7564,7.3594,60.8914,-0.1509,-0.1466,0.2895,305.8906
19:06:05:113,-0.5076,0.6511,8.0058,60.6912,-0.157,-0.157,0.2883,305.875
19:06:05:130,-0.4765,0.7708,8.1927,60.4809,-0.0935,-0.1631,0.2211,305.375
19:06:05:149,-0.5985,1.0391,8.1159,60.2874,-0.047,-0.1289,0.1564,305.1719
19:06:05:168,-0.5794,1.4294,8.3913,60.1963,-0.0489,-0.1271,0.1148,305.1719
19:06:05:190,-0.8282,1.817,8.7147,60.2274,-0.0354,-0.1209,0.0617,304.3906
19:06:05:212,-0.9912,2.2624,8.7817,60.0514,0.0177,-0.0898,0.0092,304.3906
19:06:05:229,-1.2066,2.4203,8.8989,60.0627,0.044,-0.0287,-0.0116,303.5625
19:06:05:248,-1.1898,2.4036,9.1621,60.0137,0.0342,0.0049,0.0195,303.5625
19:06:05:268,-0.874,2.1523,9.6697,59.9431,-0.0171,0.058,0.1051,303.4844
19:06:05:288,-0.4573,1.6208,10.4001,59.9884,-0.0935,0.1332,0.1814,303.4844
19:06:05:313,-0.1795,1.1061,11.4987,59.9066,-0.1637,0.1338,0.1967,303.7812
19:06:05:331,-0.0048,0.7564,12.6168,59.5249,-0.19,0.0776,0.1435,303.7812
19:06:05:350,0.2441,0.5411,13.273,59.3139,-0.1497,-0.0354,0.0428,303.5625
19:06:05:368,-0.079,0.2417,12.0135,59.3055,0.2187,-0.8833,-0.3134,303.5469
19:06:05:388,-0.5626,0.0144,10.5915,59.0723,0.3677,-1.2333,-0.4349,302.9375
19:06:05:409,-0.6918,0.1388,10.3472,59.0277,0.2498,-1.0213,-0.4716,302.875
19:06:05:427,-0.4932,0.1412,11.8627,59.1276,-0.0562,-0.2553,-0.441,302.4844
19:06:05:449,-0.7588,-0.6296,13.4764,58.9414,-0.237,0.5699,-0.3909,302.2656
19:06:05:467,-0.9984,-1.4294,13.4118,59.0319,-0.1173,0.7892,-0.3421,302.2656
19:06:05:488,-1.2544,-1.7644,12.076,59.0069,0.0874,0.3934,-0.336,302.25
19:06:05:512,-1.3454,-1.5538,10.5772,58.8513,0.1228,-0.1222,-0.3335,302.2656
19:06:05:529,-0.9625,-0.984,10.3472,58.7333,-0.0849,-0.2694,-0.2633,302.2656
19:06:05:549,-0.8043,-0.5698,11.1374,58.7647,-0.2859,-0.0916,-0.2114,302.125
19:06:05:569,-0.62,-0.2369,11.147,58.5313,-0.2376,0.0843,-0.2144,302.125
19:06:05:590,-0.4956,0.055,10.1031,58.1693,-0.0318,0.1264,-0.2559,301.6562
19:06:05:612,-0.5124,0.376,9.1956,58.024,0.1313,-0.0098,-0.3085,301.6562
19:06:05:631,-0.6703,0.7301,8.7482,57.6988,0.2217,-0.1851,-0.3433,301.3906
19:06:05:648,-0.7325,1.0654,8.6378,57.4353,0.3042,-0.2291,-0.3292,301.9688
19:06:05:669,-0.699,1.1157,8.4177,57.1531,0.4264,-0.1521,-0.2767,301.9688
19:06:05:690,-0.8716,1.0199,7.6421,56.9106,0.5724,-0.0849,-0.2346,303.1719
19:06:05:711,-0.9266,1.1228,7.1943,56.627,0.628,-0.0904,-0.1814,303.1719
19:06:05:729,-0.9123,1.252,7.314,56.4448,0.5882,-0.0287,-0.0971,304.0312
19:06:05:748,-0.929,1.1946,7.5293,56.4267,0.5076,0.1393,0.0043,304.0312
19:06:05:770,-0.644,1.1874,7.8598,56.1688,0.394,0.2639,0.1209,304.6562
19:06:05:790,-0.2704,1.142,8.5253,56.1658,0.2425,0.3402,0.2169,304.7188
19:06:05:813,0.0048,1.0941,9.2483,56.049,0.1222,0.3598,0.2578,305.3438
19:06:05:829,0.1962,1.0439,9.5166,55.9941,0.0898,0.2871,0.2407,305.4062
19:06:05:848,0.3257,1.1133,9.574,55.7772,0.1106,0.1619,0.1698,305.7656
19:06:05:871,0.3712,1.0295,9.0879,55.4779,0.1411,0.1313,-0.0043,305.7969
19:06:05:891,0.1699,0.8091,8.9803,55.2472,0.0415,0.2425,-0.0886,306.375
19:06:05:909,-0.3257,0.3305,9.0712,54.5786,-0.1332,0.4227,-0.1723,306.4219
19:06:05:929,-0.9218,-0.5459,9.198,54.5491,-0.3421,0.5974,-0.2278,307.1875
19:06:05:948,-1.075,-1.2257,10.0648,54.3942,-0.6029,0.7379,-0.2706,307.9219
19:06:05:968,-1.5802,-1.4246,12.0589,54.239,-0.8509,0.8998,-0.3781,307.9219
19:06:05:990,-2.9303,-1.4797,13.7204,54.0534,-0.9199,1.0812,-0.5412,308
19:06:06:011,-4.3262,-1.1109,14.2304,53.9816,-0.7819,1.0195,-0.5773,308.4531
19:06:06:029,-4.4124,-0.6607,13.6439,53.9476,-0.5901,0.6255,-0.3543,308.4844
19:06:06:048,-3.457,-0.5028,12.7319,53.9328,-0.5168,0.1374,0.0134,308.4688
19:06:06:067,-2.4921,-0.5985,12.0688,54.0832,-0.4649,-0.4038,0.2621,308.4688
19:06:06:089,-1.8769,-0.2082,11.2881,54.1466,-0.2627,-0.7953,0.3079,307.9531
19:06:06:111,-2.2313,0.1938,9.9308,53.9502,0.0318,-0.7678,0.1955,307.9531
19:06:06:129,-2.4778,0.7732,8.3052,53.9494,0.2248,-0.4679,0.1203,307.5
19:06:06:148,-2.2863,1.1755,7.7234,53.959,0.1344,-0.0684,0.1949,307.4375
19:06:06:167,-1.6328,1.1085,8.3387,53.8378,-0.1448,0.2456,0.3726,307.4375
19:06:06:188,-0.7445,0.7229,9.5094,53.8119,-0.3518,0.2834,0.4985,307.6562
19:06:06:212,0.0479,0.5171,10.2156,53.4553,-0.3384,0.1283,0.4618,307.6562
19:06:06:228,0.3855,0.4167,10.1294,53.3826,-0.1362,-0.0745,0.3024,307.9219
19:06:06:248,0.3329,0.4119,9.0927,53.0455,0.1393,-0.2395,0.1118,307.9219
19:06:06:268,0.1029,0.3544,7.6612,52.7336,0.3366,-0.3561,-0.0312,308.4375
19:06:06:289,-0.0263,0.1555,6.7083,52.5953,0.3665,-0.4557,-0.0959,308.4375
19:06:06:312,0.1077,-0.0646,6.306,52.4976,0.2822,-0.5656,-0.1191,309.0312
19:06:06:329,0.4214,-0.1675,6.2988,52.339,0.1454,-0.6218,-0.1246,309.0938
19:06:06:348,0.7277,-0.0837,6.7274,52.1713,0.0031,-0.5546,-0.1503,308.625
19:06:06:370,-0.1771,0.6966,8.2813,52.431,-0.2297,0.0965,-0.3781,308.5781
19:06:06:434,-1.4868,1.185,9.1262,52.4303,-0.2633,0.3763,-0.4807,308.0625
19:06:06:435,-2.6767,1.5897,9.9547,52.501,-0.2181,0.4294,-0.4374,308.0156
19:06:06:435,-2.8633,1.8075,10.3663,52.6333,-0.0983,0.2889,-0.2138,307.7812
19:06:06:447,-2.3725,1.7405,10.3208,52.7344,0.0128,0.0293,0.0605,306.7812
19:06:06:467,-1.7333,1.3765,10.2945,52.587,0.0599,-0.3488,0.2297,306.7812
19:06:06:488,-1.1515,1.2329,10.9146,52.8804,0.0421,-0.6622,0.2608,306.6875
19:06:06:510,-0.9649,1.118,12.0159,53.1006,0.0183,-0.5834,0.204,305.8281
19:06:06:529,-0.9194,0.8572,12.9449,53.0733,0.055,-0.1863,0.1301,305.75
19:06:06:548,-1.0941,0.3855,13.3113,53.1261,0.1301,0.1216,0.0525,305.7656
19:06:06:569,-1.5227,-0.2441,12.8037,53.1703,0.19,0.0202,-0.0147,305.7656
19:06:06:590,-1.4629,-0.3975,12.3727,53.3817,0.1332,-0.3189,-0.0452,306.1562
19:06:06:612,-0.9147,-0.5578,12.3966,53.2649,-0.0715,-0.4545,-0.0409,306.1719
19:06:06:629,-0.0502,-0.6009,13.3902,53.5171,-0.2914,-0.339,-0.0244,306.5312
19:06:06:651,0.1436,-0.9817,13.6893,53.6155,-0.2676,-0.1545,-0.0959,307.1562
19:06:06:668,-0.1986,-1.2688,11.7909,53.4513,0.0128,-0.1057,-0.2291,307.1562
19:06:06:689,-0.9338,-1.2568,9.7487,53.6174,0.2193,-0.2944,-0.3366,308.0625
19:06:06:714,-1.427,-0.8931,8.2573,53.8339,0.2016,-0.372,-0.3237,308.0625
19:06:06:728,-1.3669,-0.5291,7.9053,53.8369,-0.0739,-0.1692,-0.1539,308.2031
19:06:06:748,-0.6057,-0.4573,9.3706,53.8641,-0.4587,0.1405,0.0764,308.2031
19:06:06:768,0.3329,-0.4645,10.9675,54.0561,-0.6389,0.4453,0.1784,307.7188
19:06:06:797,0.2994,-0.1747,11.7407,54.1151,-0.4978,0.4557,0.0183,307.7188
19:06:06:814,-0.5411,0.3066,11.0991,54.0593,-0.0831,0.1045,-0.237,307.4062
19:06:06:829,-1.0391,0.687,9.0497,54.3418,0.3384,-0.3268,-0.3286,307.375
19:06:06:851,-0.9721,0.8764,7.7378,54.245,0.4728,-0.6163,-0.2449,307.3906
19:06:06:869,-0.3808,0.8668,7.2159,54.5042,0.4337,-0.6768,-0.0959,307.3906
19:06:06:890,0.376,0.7684,7.18,54.7492,0.3738,-0.5363,0.022,307.5
19:06:06:913,0.8234,0.6176,7.3379,54.8095,0.3928,0.0354,-0.0348,307.5156
19:06:06:930,0.8163,0.6368,7.8885,55.0525,0.4032,0.3427,-0.1313,307.5625
19:06:06:949,0.2369,0.754,8.1592,55.2465,0.3757,0.5913,-0.2095,307.5781
19:06:06:967,-0.2393,0.8788,8.4177,55.3222,0.3103,0.6854,-0.212,308.1875
19:06:06:989,-0.4262,1.0774,8.5588,55.2794,0.2315,0.6438,-0.1497,308.2344
19:06:07:013,-0.6009,1.2377,8.8128,55.3585,0.1582,0.5119,-0.0715,308.75
19:06:07:028,-0.7134,1.3525,9.1956,55.3839,0.1252,0.3311,0.0006,308.7969
19:06:07:050,-0.6176,1.2736,9.5237,55.4887,0.1448,0.1637,0.0684,308.3906
19:06:07:068,-0.4932,1.0439,9.6673,55.848,0.1619,0.1081,0.1295,308.3438
19:06:07:089,-0.3209,0.6392,9.8925,55.8905,0.1136,0.1924,0.1918,308.4844
19:06:07:112,0.0239,0.189,10.6059,56.0793,-0.0275,0.3659,0.2278,308.4844
19:06:07:130,0.1053,-0.2154,11.5062,56.2639,-0.1881,0.5039,0.1716,309.25
19:06:07:148,-0.6153,-0.7397,12.0159,56.5551,-0.281,0.4875,0.0281,309.4844
19:06:07:168,-1.4964,-1.0415,12.1167,56.8755,-0.3219,0.306,-0.0867,309.4844
19:06:07:190,-1.5897,-0.9793,12.6888,56.9188,-0.441,0.2932,-0.0849,309.5938
19:06:07:213,-1.319,-1.1085,13.8356,56.9258,-0.5791,0.5418,-0.0428,309.5938
19:06:07:228,-0.9864,-1.3358,13.8547,57.0785,-0.4728,0.6053,-0.0275,310.0469
19:06:07:248,-1.0439,-1.2377,12.6338,57.357,-0.1716,0.2957,-0.0721,310.0469
19:06:07:269,-1.9606,-1.0175,11.0465,57.191,0.0611,-0.0525,-0.1307,310.4688
19:06:07:288,-2.6695,-0.6751,10.1629,57.2972,0.0886,-0.182,-0.0544,310.4688
19:06:07:311,-2.6958,-0.4956,9.7415,57.4093,-0.0202,-0.1087,0.1515,310.5625
19:06:07:330,-2.2337,-0.4167,9.708,57.5977,-0.1826,0.0049,0.3751,310.5625
19:06:07:349,-1.5275,-0.3497,9.8614,57.5137,-0.3219,0.0183,0.529,310.4062
19:06:07:368,-0.929,-0.1412,10.0576,57.7657,-0.3854,-0.066,0.5601,310.3906
19:06:07:391,-0.8429,0.498,9.3036,57.6546,-0.2602,-0.2639,0.3952,309.9531
19:06:07:411,-0.8043,0.7493,8.7888,57.5204,-0.1399,-0.3409,0.3207,309.9219
19:06:07:429,-0.6559,0.8716,8.0895,57.5828,0.0153,-0.4019,0.2706,309.5938
19:06:07:447,-0.5171,0.8812,7.3427,57.5208,0.1594,-0.4361,0.2407,309.5469
19:06:07:467,-0.4143,0.8907,6.8758,57.446,0.2352,-0.441,0.2175,309.5625
19:06:07:488,-0.3832,0.8931,6.8375,57.4949,0.2547,-0.3836,0.1912,309.5625
19:06:07:511,-0.4765,0.8163,7.0603,57.697,0.2602,-0.273,0.1784,309.4062
19:06:07:529,-0.3879,0.7445,7.2326,57.4294,0.2694,-0.1857,0.2016,309.3906
19:06:07:548,-0.1938,0.6942,7.5532,57.3911,0.2388,-0.1161,0.2352,309.5625
19:06:07:568,-0.2034,0.7564,8.1278,57.63,0.179,-0.0189,0.2346,309.5781
19:06:07:589,-0.28,1.0319,8.8798,57.9213,0.1252,0.1185,0.1942,309.5
19:06:07:612,-0.5171,1.2808,9.4304,58.1434,0.1093,0.27,0.1289,309.5
19:06:07:628,-0.5195,1.6232,9.7343,58.03,0.1332,0.3237,0.0831,308.4062
19:06:07:648,-0.6583,1.9439,9.859,57.9672,0.1662,0.1692,0.069,307.1094
19:06:07:667,-0.7756,2.0662,10.1438,58.1446,0.1814,-0.1472,0.1051,307.1094
19:06:07:689,-0.2752,2.0112,10.7877,58.4373,0.1594,-0.3732,0.1888,306.25
19:06:07:710,0.2106,1.6496,11.7574,58.613,0.1014,-0.3036,0.2223,306.25
19:06:07:728,0.3951,1.1922,12.5785,58.6462,0.0819,-0.099,0.1527,305.7344
19:06:07:748,0.3497,0.833,12.7439,58.4333,0.1283,-0.0232,0.025,305.7344
19:06:07:768,0.0814,0.4238,12.3224,58.4917,0.1723,-0.1875,-0.0764,305.4062
19:06:07:789,0.1029,0.6224,12.0278,58.8105,0.1155,-0.3799,-0.1411,305.4062
19:06:07:812,-0.0957,0.9051,12.3129,58.8759,-0.0324,-0.3305,-0.27,305.1094
19:06:07:829,-0.4167,1.2329,13.3567,58.8523,-0.1448,-0.0312,-0.3989,305.0938
19:06:07:851,-1.1228,1.0558,13.7061,58.897,-0.0379,0.2602,-0.4801,304.6875
19:06:07:867,-1.4318,0.5004,12.0302,58.9133,0.2779,0.1997,-0.4154,304.6562
19:06:07:890,-0.4693,-0.3305,8.8941,58.7981,0.2926,-0.3677,-0.0599,304.3438
19:06:07:912,0.189,-0.352,8.9085,59.0246,-0.0342,-0.3916,0.0324,304.3125
19:06:07:931,0.8907,-0.2441,10.0337,59.0615,-0.3732,-0.1863,0.0519,304.1875
19:06:07:950,1.3908,-0.2489,11.2331,58.8863,-0.5027,0.1124,-0.036,304.1719
19:06:07:968,1.4079,-0.1699,11.2666,58.9901,-0.3152,0.2614,-0.2511,303.9688
19:06:07:989,0.8907,0.1795,9.8399,58.949,0.0342,0.19,-0.5082,303.9375
19:06:08:012,0.1101,0.6392,8.3459,58.904,0.2456,0.0623,-0.6658,303.625
19:06:08:028,-0.4238,0.9051,7.6229,58.7926,0.248,-0.0531,-0.6432,303.5781
19:06:08:048,-0.3592,1.0008,7.5532,58.7383,0.1668,-0.1252,-0.5064,303.6875
19:06:08:067,-0.1436,1.0008,7.7115,58.507,0.1228,-0.1075,-0.369,303.7031
19:06:08:089,0.2752,0.9099,7.9699,58.1828,0.1429,-0.0226,-0.2908,304.2031
19:06:08:112,0.5554,0.7851,8.3124,58.1701,0.2132,0.1185,-0.2834,304.2188
19:06:08:130,0.3329,0.577,8.2789,57.8561,0.336,0.2162,-0.3244,305.125
19:06:08:149,0.1579,0.6344,8.08,57.5255,0.4209,0.2181,-0.3262,305.9531
19:06:08:167,0.1196,0.7899,8.3052,57.3245,0.383,0.215,-0.2779,305.9531
19:06:08:188,-0.0096,0.9075,9.0353,57.1343,0.2853,0.2596,-0.2205,306.0781
19:06:08:211,-0.079,1.008,9.8303,57.1211,0.2449,0.3146,-0.1765,306.0781
19:06:08:228,0.0024,1.1635,10.5748,56.9937,0.2584,0.3763,-0.1527,305.9375
19:06:08:248,-0.2874,1.1731,10.6681,57.0443,0.3231,0.3616,-0.1509,305.9375
19:06:08:269,-0.687,1.3262,10.0624,57.0255,0.3708,0.1338,-0.1167,306.6875
19:06:08:289,-1.0032,1.4079,9.6434,56.7686,0.2792,-0.1326,-0.0104,306.6875
19:06:08:311,-0.9888,1.4773,9.9117,56.8876,0.0415,-0.2248,0.135,308.2031
19:06:08:331,-1.0965,1.2353,10.8835,56.8483,-0.2144,-0.1686,0.234,308.2031
19:06:08:349,-1.5251,0.8354,11.4987,56.7756,-0.3036,-0.1393,0.2333,309.1406
19:06:08:368,-1.9175,0.7828,11.4054,56.4464,-0.2676,-0.1002,0.1985,309.2344
19:06:08:390,-1.6113,0.5363,12.119,56.3508,-0.325,0.11,0.2327,309.8594
19:06:08:411,-1.4246,0.419,12.641,56.0301,-0.4746,0.518,0.3421,309.9219
19:06:08:430,-2.1356,0.3879,11.8364,55.8285,-0.2095,0.4862,0.2052,310.6719
19:06:08:492,-2.9997,0.2922,10.4169,55.7545,0.0843,0.4123,0.1332,310.75
19:06:08:493,-3.3709,-0.1627,9.1573,55.4983,0.1674,0.4038,0.2755,311.3281
19:06:08:493,-2.6145,-0.7516,9.0616,55.1526,-0.0324,0.3812,0.5827,311.375
19:06:08:514,-0.821,-0.9697,9.9404,55.0903,-0.3433,0.3011,0.843,311.75
19:06:08:528,0.7516,-0.7971,10.7375,54.9329,-0.5394,0.1631,0.857,311.7969
19:06:08:547,1.5443,-0.3808,11.2857,54.7491,-0.5382,0.0189,0.6524,312.1406
19:06:08:567,1.2784,0.0479,10.5102,54.7111,-0.3128,-0.1038,0.3439,312.1875
19:06:08:589,0.7397,0.5195,8.8152,54.3953,-0.0434,-0.2346,0.0874,312.1406
19:06:08:612,0.2441,1.0056,7.436,54.2489,0.0623,-0.2987,-0.0324,312.1406
19:06:08:630,-0.0622,1.3693,6.7322,54.115,0.0379,-0.3109,-0.0367,311.5469
19:06:08:648,-0.0479,1.5467,6.4376,53.8492,-0.0287,-0.2694,0.0348,310.9688
19:06:08:668,0.0981,1.561,6.5815,53.614,-0.0922,-0.1619,0.1057,310.9688
19:06:08:688,0.201,1.4797,6.95,53.5478,-0.1252,-0.0189,0.1313,310
19:06:08:712,0.1627,1.3717,7.4934,53.4027,-0.135,0.0904,0.1112,310
19:06:08:729,0.0215,1.4581,8.2262,53.0672,-0.1521,0.1497,0.0751,309.5312
19:06:08:748,-0.3114,1.5084,9.1837,52.9191,-0.1894,0.234,0.0586,309.5312
19:06:08:767,-0.4358,1.4916,10.0696,52.7798,-0.1985,0.2657,0.0635,308.5625
19:06:08:790,-0.4549,1.5945,10.491,52.6166,-0.1283,0.1411,0.0489,308.5625
19:06:08:812,-0.6464,1.817,10.4025,52.7719,0.0128,-0.1417,-0.0061,306.4844
19:06:08:832,-0.9888,2.0471,9.763,52.4814,0.1588,-0.4258,-0.0525,306.4844
19:06:08:848,-1.0487,2.2074,9.4735,52.3298,0.1912,-0.5485,-0.0354,305.3281
19:06:08:868,-0.8115,2.126,9.7917,52.0454,0.1271,-0.4563,-0.0037,305.2031
19:06:08:890,-0.3616,1.7788,10.6155,51.9974,0.0635,-0.2358,-0.0147,305.1719
19:06:08:912,-0.0239,1.4366,11.6282,51.9161,0.0782,-0.0342,-0.1136,305.1719
19:06:08:929,0.2584,1.197,12.8037,52.0061,0.441,0.2749,-0.5314,305.2031
19:06:08:948,-0.8115,0.28,12.2172,51.7551,0.744,0.3079,-0.6689,305.2188
19:06:08:967,-0.9817,0.6799,10.9074,51.3947,0.7226,0.1185,-0.708,304.9531
19:06:08:987,-0.9362,0.8883,11.4532,51.4551,0.2602,-0.0525,-0.6371,304.9219
19:06:09:012,-0.8835,0.6799,13.2491,51.2583,-0.2144,-0.0757,-0.4862,304.6719
19:06:09:029,-0.7875,0.3903,14.0892,51.122,-0.2944,-0.0556,-0.3848,304.6562
19:06:09:050,-0.766,0.1819,13.2084,50.7804,-0.0354,-0.1472,-0.3971,304.4219
19:06:09:068,-1.0606,0.0885,11.0441,50.384,0.2315,-0.3641,-0.4526,304.4062
19:06:09:089,-1.2353,0.3114,8.9324,49.8553,0.2156,-0.6102,-0.4032,304.3438
19:06:09:111,-0.699,0.6583,8.7673,49.8104,-0.1014,-0.7355,-0.2352,304.3281
19:06:09:130,0.1125,0.8258,9.7487,49.7076,-0.4203,-0.5088,-0.069,304.5469
19:06:09:149,0.8091,0.917,10.1533,49.4464,-0.4606,-0.1038,-0.0531,304.6562
19:06:09:169,0.8019,0.9673,9.7415,49.3237,-0.3036,0.1967,-0.2065,304.6562
19:06:09:190,0.4956,1.2114,9.1884,49.0579,-0.1417,0.2957,-0.3824,305.1562
19:06:09:212,0.3257,1.4653,9.44,49.0463,-0.0489,0.3543,-0.4716,305.1562
19:06:09:229,-0.1101,1.494,9.0233,48.8992,0.0953,0.441,-0.5021,306.6562
19:06:09:249,-0.5171,1.4988,8.3004,48.9058,0.2529,0.4001,-0.4997,306.6562
19:06:09:267,-0.5722,1.4701,7.855,48.7399,0.3372,0.314,-0.4386,308.3281
19:06:09:290,-0.553,1.264,7.302,48.5501,0.3812,0.1955,-0.3635,308.3281
19:06:09:310,-0.4262,1.2233,7.1489,48.1526,0.3775,-0.0031,-0.317,309.2031
19:06:09:330,-0.3784,1.3693,7.5894,48.0577,0.328,-0.0654,-0.2987,309.2031
19:06:09:348,-0.5435,1.4892,8.0513,48.1004,0.3036,0.1118,-0.2859,310.1094
19:06:09:368,-0.7636,1.5682,8.3698,47.8556,0.2963,0.3549,-0.2474,310.2031
19:06:09:389,-0.874,1.6711,8.9204,47.8738,0.2352,0.4978,-0.1716,310.9375
19:06:09:412,-0.8883,1.7309,9.7247,47.5573,0.1545,0.4954,-0.0788,311.0156
19:06:09:432,-0.778,1.8003,10.2012,47.0912,0.1741,0.1124,0.0764,311.0469
19:06:09:449,-0.5459,1.7166,9.6266,46.9958,0.2034,-0.1051,0.1258,311.0469
19:06:09:467,-0.5459,1.5969,9.6577,46.8903,0.135,-0.1637,0.1539,311.5312
19:06:09:491,-0.6344,1.3597,10.2778,46.5181,-0.0018,0.0031,0.1613,311.5781
19:06:09:512,-1.1109,1.008,10.9675,46.4376,-0.1118,0.2407,0.1301,312.5312
19:06:09:529,-2.0351,0.4214,11.1374,46.4212,-0.1619,0.2847,0.0867,312.625
19:06:09:549,-2.1165,0.309,11.1757,46.3875,-0.2193,0.1258,0.1289,313.6406
19:06:09:568,-2.0806,0.1292,11.7981,46.3909,-0.3714,0.0556,0.2346,313.7344
19:06:09:589,-1.762,-0.189,12.9018,46.4631,-0.5296,0.1277,0.3696,314.5469
19:06:09:610,-1.3956,-0.3401,13.4572,46.4002,-0.4954,0.1503,0.4245,314.625
19:06:09:630,-1.5203,-0.2201,12.8755,46.6687,-0.2779,0.08,0.3604,315.3906
19:06:09:649,-2.1428,-0.079,11.5612,46.5452,-0.0214,-0.0861,0.2908,315.9219
19:06:09:668,-2.2361,-0.0359,9.8877,46.4746,0.1503,-0.2816,0.3635,315.9219
19:06:09:690,-1.4246,-0.0933,8.7171,46.5639,0.1228,-0.3641,0.5412,316
19:06:09:710,-0.2584,-0.0048,8.5851,46.4268,-0.0544,-0.2871,0.6377,316
19:06:09:731,0.4047,0.3162,9.1095,46.399,-0.2278,-0.0275,0.5327,315.8594
19:06:09:750,0.1675,0.7158,9.5644,46.5583,-0.2859,0.3146,0.3121,315.8594
19:06:09:768,-0.4119,1.0606,9.6649,46.3968,-0.2474,0.496,0.1405,315.5625
19:06:09:789,-0.6248,1.4004,9.4831,46.1097,-0.1692,0.3836,0.088,315.5625
19:06:09:813,-0.7421,1.7022,9.0018,46.1853,-0.091,0.1203,0.1209,315.2188
19:06:09:830,-0.6272,1.8505,8.3554,45.9982,-0.0287,-0.1716,0.212,315.2188
19:06:09:847,-0.201,1.9008,7.6995,45.8091,0.0104,-0.3744,0.3091,314.6875
19:06:09:868,0.0718,1.8434,7.2182,45.6799,0.0379,-0.4361,0.3451,314.6875
19:06:09:889,0.0981,1.7883,7.0149,45.8231,0.0635,-0.3708,0.325,313.6719
19:06:09:912,-0.012,1.7764,7.1154,45.5771,0.0843,-0.204,0.2779,313.5625
19:06:09:932,-0.7899,1.7501,7.4934,45.4018,0.0825,0.0177,0.193,312.8594
19:06:09:949,-0.8548,1.8242,7.9603,45.4264,0.0122,0.0012,0.2376,312.7812
19:06:09:968,-0.6559,1.8864,8.7147,45.32,-0.0861,0.0055,0.306,311.9688
19:06:09:990,-0.2417,1.9391,9.6482,45.2555,-0.1545,0.0501,0.336,311.8906
19:06:10:011,0.0479,1.9487,10.3496,44.9493,-0.1326,0.0819,0.27,310.6875
19:06:10:030,-0.1029,2.0279,10.4288,44.9679,-0.0153,0.0195,0.1362,310.5625
19:06:10:050,-0.4334,2.1332,10.1438,44.7744,0.1038,-0.1435,0.0202,309.9375
19:06:10:069,-0.6631,2.1739,10.1175,44.8838,0.1038,-0.2046,-0.0287,309.8906
19:06:10:089,-0.7636,2.0183,10.6466,44.9748,-0.0018,-0.0837,-0.025,309.5938
19:06:10:108,-0.5483,1.7118,11.6067,45.0476,-0.1277,0.0928,-0.0061,309.5781
19:06:10:131,-0.3449,1.4844,12.545,45.0406,-0.1906,0.1625,-0.036,309.0312
19:06:10:149,-0.7636,1.0822,12.5091,45.0664,-0.1332,0.0073,-0.1301,308.3594
19:06:10:168,-0.8378,0.8501,11.5612,45.1115,-0.0458,-0.3891,-0.16,308.3594
19:06:10:190,0.0239,0.874,11.0297,45.1003,-0.1258,-0.6438,-0.088,307.8594
19:06:10:212,1.0032,0.6727,11.4532,45.1463,-0.3378,-0.5681,-0.044,307.8594
19:06:10:229,1.817,0.6033,12.7941,44.9892,-0.4704,-0.2975,-0.1167,307.4062
19:06:10:249,1.4916,0.419,13.2658,44.8251,-0.3213,0.0385,-0.358,307.4062
19:06:10:269,0.1077,0.3042,11.9489,44.7662,0.0312,0.1888,-0.6316,306.6562
19:06:10:290,-1.0534,0.3233,10.1653,44.7447,0.2407,0.1197,-0.6964,306.6562
19:06:10:311,-1.0822,0.352,9.1669,44.716,0.1136,0.0935,-0.4838,306.1562
19:06:10:329,-0.1412,0.3233,9.7989,45.0038,-0.2358,0.193,-0.1863,306.1562
19:06:10:349,0.8596,0.1819,11.1757,44.9643,-0.5162,0.3775,-0.0061,306.2344
19:06:10:368,1.2568,0.0885,11.5158,45.0464,-0.4966,0.4777,-0.0165,306.2344
19:06:10:390,1.063,0.1842,10.7136,45.3221,-0.27,0.3818,-0.2028,306.2344
19:06:10:412,0.4406,0.6464,9.5477,45.3129,-0.011,0.1087,-0.4783,306.25
19:06:10:430,-0.4501,1.2114,8.6115,45.2846,0.1686,-0.091,-0.6701,306.3438
19:06:10:448,-1.0391,1.3932,7.6947,45.4546,0.2627,-0.1179,-0.6512,306.3438
19:06:10:469,-0.3832,1.2377,7.6684,45.5428,0.2425,-0.0452,-0.3622,306.625
19:06:10:495,-0.2994,1.0319,8.0704,45.381,0.2743,0.0257,-0.3292,306.6562
19:06:10:556,-0.352,0.984,8.3076,45.4478,0.3555,0.066,-0.3427,306.7344
19:06:10:556,-0.5004,0.9362,8.1975,45.4071,0.4123,0.1216,-0.317,306.7344
19:06:10:556,-0.4741,0.941,8.2669,45.1427,0.3677,0.1484,-0.226,307.6562
19:06:10:567,-0.2704,0.9721,8.8367,45.3551,0.2407,0.1753,-0.1063,307.75
19:06:10:589,-0.0622,1.0487,9.6697,45.3805,0.1319,0.2388,-0.0342,308.9844
19:06:10:609,-0.0957,1.1707,10.4647,45.3254,0.1252,0.2785,-0.0568,309.1094
19:06:10:629,-0.3736,1.2353,10.2562,45.0975,0.2627,0.19,-0.1167,309.1562
19:06:10:648,-0.6105,1.2329,9.2605,44.9784,0.4111,-0.0721,-0.135,309.2188
19:06:10:667,-0.644,1.2832,8.9157,44.8535,0.3848,-0.2572,-0.1081,309.2188
19:06:10:690,-0.8859,1.1348,9.3562,44.6841,0.2419,-0.1338,-0.088,310.5
19:06:10:710,-1.2185,0.8163,10.0026,44.7603,0.0916,0.1613,-0.0562,310.5
19:06:10:729,-1.8218,0.2441,10.4767,44.6942,-0.0391,0.3372,-0.0012,311.875
19:06:10:750,-1.8793,-0.0814,10.8763,44.5345,-0.1771,0.2559,0.0819,311.875
19:06:10:769,-1.5084,-0.122,11.7335,44.5487,-0.3476,0.1374,0.1631,312.75
19:06:10:789,-1.2425,-0.5937,12.5067,44.6264,-0.4893,0.1362,0.2541,312.75
19:06:10:810,-0.553,-0.9649,13.0358,44.8103,-0.5394,0.0983,0.3683,313.5469
19:06:10:829,0.1723,-0.9218,13.1842,45.0819,-0.496,-0.0116,0.3799,313.625
19:06:10:863,0.0718,-0.6607,12.8707,45.1131,-0.3818,-0.1289,0.2431,314.1094
19:06:10:868,-0.7947,-0.3808,11.8531,44.969,-0.1942,-0.2804,0.0855,314.1094
19:06:10:890,-1.3836,-0.1029,10.2323,44.7635,0.0024,-0.4545,0.0525,314.2344
19:06:10:911,-1.3454,0.1842,8.8965,44.7688,0.0519,-0.474,0.1179,314.25
19:06:10:929,-0.9912,0.553,8.4846,44.7669,-0.0947,-0.2596,0.19,314.625
19:06:10:948,-0.7062,0.7875,8.9037,44.7895,-0.3024,0.025,0.2382,314.6719
19:06:10:968,-0.0957,1.1731,9.4711,44.5126,-0.3885,0.11,0.2352,315
19:06:10:995,0.0646,1.3262,9.3203,44.3036,-0.2902,0.0483,0.1796,315.0469
19:06:11:010,0.1029,1.4028,8.9013,44.2909,-0.1655,-0.0012,0.1136,315.0781
19:06:11:031,0.012,1.4557,8.4751,44.3711,-0.0513,-0.0751,0.0458,315.0938
19:06:11:049,-0.1675,1.4916,7.9531,44.5212,0.0519,-0.1698,-0.0073,314.7188
19:06:11:067,-0.3377,1.5156,7.4647,44.4955,0.1173,-0.2449,-0.0232,314.6875
19:06:11:089,-0.5076,1.5275,7.3522,44.3321,0.1234,-0.2346,-0.0018,313.8438
19:06:11:111,-0.5961,1.5275,7.587,44.2463,0.088,-0.1045,0.0367,313.7656
19:06:11:128,-0.7038,1.506,8.0704,44.2076,0.0354,0.0806,0.0635,312.9531
19:06:11:149,-0.8907,1.5419,8.6402,44.1579,-0.0208,0.2285,0.0647,312.7031
19:06:11:168,-1.0008,1.5419,9.3323,44.0952,-0.0696,0.3305,0.0806,312.7031
19:06:11:189,-0.821,1.5347,9.6362,44.1641,-0.0672,0.3329,0.1234,312.3906
19:06:11:211,-0.5722,1.5538,9.7439,43.8447,-0.0428,0.1808,0.146,312.3906
19:06:11:230,-0.3855,1.6184,9.8806,43.8377,-0.0098,-0.0739,0.1148,311.6875
19:06:11:249,-0.3425,1.7572,9.9643,43.782,0.0513,-0.2676,0.0397,311.6875
19:06:11:269,-0.4071,1.8769,10.0624,43.7381,0.1173,-0.2773,-0.055,311.0938
19:06:11:290,-0.6655,1.7907,10.2658,43.7406,0.1484,-0.1289,-0.1338,311.0938
19:06:11:310,-0.7181,1.6017,10.7614,43.8158,0.1289,0.0599,-0.1729,310.8594
19:06:11:329,-0.6679,1.4844,11.6163,43.6968,0.0715,0.1973,-0.1997,310.8594
19:06:11:349,-1.0199,1.1755,11.9991,43.4724,0.0623,0.2181,-0.2285,310.9375
19:06:11:368,-1.118,0.9218,11.5493,43.8253,0.0721,0.0586,-0.1521,310.9375
19:06:11:391,-0.5387,0.9123,11.3647,43.7665,-0.0647,-0.1655,0.0012,310.9531
19:06:11:412,0.1101,0.6918,12.2028,43.8549,-0.325,-0.2242,0.1051,310.9688
19:06:11:430,1.0128,0.4573,13.6846,43.8807,-0.4868,-0.0947,0.1374,310.8281
19:06:11:449,1.6113,0.1484,14.482,44.0212,-0.4038,0.1356,0.0397,310.8125
19:06:11:468,1.3238,-0.189,13.7734,43.9737,-0.113,0.212,-0.1759,310.5625
19:06:11:490,0.0359,-0.1316,10.0768,43.9928,0.328,-0.3622,-0.4404,310.5469
19:06:11:511,0.2608,0.0861,9.2124,44.1039,0.2175,-0.3781,-0.3653,310.2656
19:06:11:531,0.5124,0.1388,9.2629,44.096,0.033,-0.1955,-0.3109,310.2344
19:06:11:547,0.5818,0.2417,9.5907,44.2147,-0.069,0.0397,-0.3439,310.2969
19:06:11:567,0.2154,0.3927,9.2725,44.122,-0.025,0.1875,-0.427,310.2969
19:06:11:590,-0.1986,0.6631,8.5875,44.3063,0.0586,0.182,-0.4765,310.6562
19:06:11:612,-0.376,0.8692,8.3674,44.5241,0.0825,0.1411,-0.449,310.7031
19:06:11:630,-0.0646,0.9266,8.7625,44.4742,0.0776,0.168,-0.3726,311.1406
19:06:11:649,0.0622,0.7804,9.0353,44.4695,0.1283,0.19,-0.3384,311.3594
19:06:11:667,0.1292,0.699,8.9444,44.4403,0.2309,0.1057,-0.3378,311.3594
19:06:11:690,0.1077,0.6607,8.6234,44.3688,0.3176,-0.0507,-0.3378,310.9375
19:06:11:712,-0.0048,0.6559,8.2454,44.3743,0.3653,-0.1735,-0.3256,310.9375
19:06:11:730,-0.2752,0.7851,8.0752,44.5533,0.369,-0.1655,-0.3097,310.9688
19:06:11:748,-0.7349,0.9482,8.001,44.3292,0.3451,-0.0318,-0.292,310.9688
19:06:11:769,-1.1874,1.1013,8.0895,44.2756,0.3005,0.1258,-0.2401,312
19:06:11:791,-1.2999,1.1444,8.3267,44.5483,0.2382,0.2175,-0.1307,312
19:06:11:809,-1.1228,1.1803,8.7123,44.6756,0.1723,0.1942,-0.0086,312
19:06:11:829,-0.7684,1.2832,9.1238,44.7536,0.1295,0.1173,0.08,312.7969
19:06:11:849,-0.4549,1.3286,9.3849,44.8507,0.1258,0.0855,0.1264,313.625
19:06:11:869,-0.2465,1.2879,9.4902,44.8968,0.1381,0.091,0.1411,313.625
19:06:11:890,0.0072,1.331,9.9188,44.6881,0.0983,0.1484,0.1435,314.6719
19:06:11:911,0.055,1.051,10.4527,44.9413,0.0098,0.2822,0.1368,314.6875
19:06:11:929,0.201,0.7995,10.783,44.8848,-0.0715,0.3201,0.1258,315.4219
19:06:11:949,-0.0526,0.5698,11.1159,44.7209,-0.1539,0.2004,0.0739,315.4844
19:06:11:968,-0.4765,0.5004,11.415,44.8417,-0.2242,0.0574,0.0134,316.2812
19:06:11:991,-0.7277,0.6511,11.9225,44.8172,-0.2981,0.0312,-0.0018,316.3438
19:06:12:011,-1.3382,-0.0694,12.6912,45.0417,-0.3665,0.2816,0.1362,317.125
19:06:12:030,-0.8354,-0.297,12.1621,45.0743,-0.3158,0.1478,0.281,317.2031
19:06:12:048,-0.5961,-0.4621,11.7718,45.4873,-0.2999,-0.0354,0.3518,317.8594
19:06:12:067,-0.7828,-0.7062,11.1183,45.4121,-0.234,-0.2162,0.3635,317.9219
19:06:12:089,-1.3119,-0.9817,10.206,45.6848,-0.1136,-0.4221,0.372,318.1406
19:06:12:111,-1.7548,-1.1468,9.1406,45.946,-0.0324,-0.5235,0.4233,318.1562
19:06:12:129,-1.5826,-1.0343,8.4655,46.1797,-0.1075,-0.4526,0.5149,318
19:06:12:148,-0.9075,-0.7636,8.7793,46.5132,-0.3445,-0.2431,0.5901,317.75
19:06:12:167,-0.0814,-0.4693,9.6386,46.5959,-0.5443,-0.0287,0.5974,317.75
19:06:12:189,0.4717,-0.0144,10.1605,46.7978,-0.551,0.0611,0.4795,317.3906
19:06:12:211,0.3305,0.5602,9.8495,46.84,-0.3616,-0.0086,0.2462,317.3906
19:06:12:230,-0.0933,1.2018,8.8104,46.9389,-0.1045,-0.1515,0.0562,317.2031
19:06:12:248,-0.2874,1.5849,7.7617,46.9927,0.0214,-0.1735,0.0257,317.2031
19:06:12:269,-0.067,1.7357,7.4288,46.9746,-0.0238,-0.1228,0.1014,317.0156
19:06:12:288,0.3162,1.6591,8.0201,46.9146,-0.1216,-0.0452,0.1753,317.0156
19:06:12:308,0.5722,1.5562,8.5277,46.9553,-0.1295,0.0696,0.1796,317.0156
19:06:12:330,0.4789,1.4844,8.8104,46.9748,-0.0745,0.1014,0.1191,316.3906
19:06:12:349,0.256,1.4605,9.0281,47.0972,-0.0232,0.0354,0.0629,315.4844
19:06:12:367,0.0359,1.4103,9.1382,47.2851,-0.0043,-0.0195,0.0489,315.4844
19:06:12:389,-0.0144,1.3884,9.2578,47.5975,-0.014,-0.0764,0.0629,314.5938
19:06:12:409,0.1938,1.4294,9.3849,47.7247,-0.0202,-0.1619,0.0776,314.5938
19:06:12:428,0.5028,1.506,9.4065,47.6952,-0.0037,-0.2395,0.0605,313.4219
19:06:12:448,0.6607,1.6831,9.4137,47.8407,0.0434,-0.3201,-0.0128,313.2969
19:06:12:469,0.6176,1.9367,9.361,47.991,0.1124,-0.3616,-0.1173,312.0156
19:06:12:493,0.1938,2.1882,9.495,48.1985,0.2236,-0.2523,-0.2669,311.8906
19:06:12:510,0.146,2.1212,9.7917,48.2989,0.2346,-0.1246,-0.259,311.4531
19:06:12:529,0.2441,1.8912,10.3615,48.4043,0.1808,0.0153,-0.2101,311.4531
19:06:12:548,0.486,1.6137,11.1326,48.4826,0.1069,0.0922,-0.1533,311.3281
19:06:12:611,0.7732,1.3765,11.9584,48.4922,0.0434,0.0965,-0.1332,311.3125
19:06:12:612,0.8931,1.1515,12.3775,48.6559,0.033,0.0018,-0.179,310.9062
19:06:12:612,0.5459,0.9769,11.9297,48.9457,0.0965,-0.2327,-0.2633,310.8594
19:06:12:633,0.2946,0.9649,11.5349,48.9347,0.1038,-0.4563,-0.306,310.6719
19:06:12:648,0.2584,0.7301,11.5086,48.9913,-0.0147,-0.4221,-0.2889,310.5312
19:06:12:667,0.7421,0.4454,12.076,49.0952,-0.1723,-0.2205,-0.2431,310.5312
19:06:12:688,1.4438,0.0598,12.964,49.0656,-0.2706,0.0421,-0.248,310.3594
19:06:12:710,1.7501,-0.3114,13.4237,49.1871,-0.212,0.226,-0.3696,310.3594
19:06:12:730,1.0319,-0.6511,12.6362,49.5867,0.0293,0.1839,-0.6035,310.5469
19:06:12:749,0.0981,-0.6344,10.7495,50.1081,0.3066,-0.0189,-0.7855,310.5469
19:06:12:768,-0.364,-0.4836,9.1645,50.3834,0.372,-0.1167,-0.7794,311.1562
19:06:12:788,-0.2632,-0.3329,8.9133,50.5258,0.2052,-0.0226,-0.6493,311.1562
19:06:12:810,0.0598,-0.2656,9.8686,50.9399,0,0.2217,-0.5284,311.1719
19:06:12:829,0.2369,-0.1675,10.3783,51.0723,-0.0397,0.463,-0.4856,311.7656
19:06:12:849,0.1412,0.0479,10.2873,51.3114,0.0415,0.4697,-0.5033,312.0938
19:06:12:882,-0.079,0.3162,9.708,51.8502,0.1454,0.27,-0.5039,312.0938
19:06:12:894,-0.1866,0.5554,9.0305,51.6342,0.204,0.0403,-0.4423,312.6094
19:06:12:908,-0.1149,0.7253,8.7075,51.7617,0.1979,-0.0812,-0.3573,312.6094
19:06:12:929,0.1172,0.8163,8.7075,51.5628,0.1906,-0.0556,-0.2926,313.2344
19:06:12:948,0.0766,0.8402,8.7362,51.7079,0.2187,0.0635,-0.2902,313.2969
19:06:12:968,-0.3233,0.9362,8.621,51.603,0.2834,0.1173,-0.3354,313.7188
19:06:12:993,-0.7325,1.0678,8.365,51.6058,0.3421,0.0849,-0.3354,313.7656
19:06:13:010,-0.8692,1.1252,8.0656,51.7351,0.3476,0.0134,-0.2614,314.7031
19:06:13:032,-0.7612,1.142,7.8742,51.1371,0.2853,-0.0379,-0.1405,314.7969
19:06:13:048,-0.0622,1.1228,8.7864,51.5516,0.0562,0.1203,0.0446,316.4688
19:06:13:068,0.0287,1.1204,9.2964,51.4494,0.0232,0.2566,0.0299,316.6406
19:06:13:089,-0.1507,1.2018,9.4424,51.6771,0.0568,0.295,-0.0171,317.8594
19:06:13:110,-0.309,1.2879,9.2916,51.8695,0.099,0.2449,-0.0232,317.9688
19:06:13:129,-0.2728,1.3669,9.1717,51.8894,0.0916,0.1936,0.0208,318.9688
19:06:13:148,-0.1842,1.3956,9.3275,52.2055,0.0421,0.1875,0.0672,320.0625
19:06:13:168,-0.1986,1.439,9.5572,52.3553,-0.0092,0.2248,0.0947,320.0625
19:06:13:195,-0.2656,1.4749,9.8181,52.7388,-0.0629,0.2816,0.1075,320.9688
19:06:13:209,-0.2417,1.5467,10.2156,52.7728,-0.1246,0.3048,0.1228,320.9688
19:06:13:229,-0.3544,1.5538,10.5413,52.9878,-0.1607,0.2651,0.1442,321.75
19:06:13:247,-0.6464,1.386,10.328,53.1349,-0.1558,0.1704,0.171,321.75
19:06:13:268,-0.7564,1.3095,10.2873,53.2607,-0.1894,0.0861,0.2114,321.7656
19:06:13:294,-0.984,1.2664,10.7255,53.5278,-0.2932,0.1545,0.2614,322.5469
19:06:13:310,-1.1874,0.8644,11.3958,53.6043,-0.3964,0.306,0.3518,322.5469
19:06:13:331,-1.0726,0.3688,11.6545,53.7197,-0.4459,0.3518,0.4789,322.8125
19:06:13:348,-0.6416,0.0909,11.8125,53.7488,-0.4893,0.2847,0.5803,322.75
19:06:13:367,0.0814,0.1747,12.5187,53.8881,-0.5492,0.2419,0.6182,322.75
19:06:13:390,0.5052,0.1771,13.0238,54.0488,-0.4948,0.1894,0.5663,322.8125
19:06:13:411,0.4286,0.0933,12.32,54.081,-0.2346,-0.0531,0.4453,322.8125
19:06:13:429,-0.1795,0.189,10.6729,54.3775,0.1179,-0.4209,0.2932,322.75
19:06:13:447,-1.1515,0.3497,9.1071,54.3311,0.3457,-0.5296,0.1881,322.7344
19:06:13:469,-1.884,0.5387,8.1808,54.1857,0.3488,-0.2627,0.2059,322.5156
19:06:13:493,-2.0064,0.7373,8.4918,54.3224,0.1399,0.1393,0.3427,322.4844
19:06:13:511,-0.766,0.6631,10.2586,54.4662,-0.1747,0.2443,0.6823,322.1094
19:06:13:531,-0.1172,0.7253,10.6609,54.2638,-0.1222,-0.0226,0.6976,322.1094
19:06:13:549,0.2369,0.8668,10.3328,54.094,0.025,-0.2364,0.6194,321.6562
19:06:13:567,0.5363,1.0056,9.7654,54.1011,0.1497,-0.2755,0.5211,321.6094
19:06:13:588,0.7516,1.0487,9.2773,53.867,0.2132,-0.2278,0.4282,320.8594
19:06:13:612,0.7899,1.0702,8.7745,54.0888,0.2682,-0.2559,0.3372,320.7812
19:06:13:629,0.7038,1.1731,8.2143,54.2953,0.3158,-0.3305,0.2425,319.5156
19:06:13:649,0.3903,1.3382,7.7354,54.2556,0.3433,-0.3641,0.1503,317.9844
19:06:13:667,0.0574,1.4725,7.4192,54.2832,0.336,-0.3213,0.0953,317.9844
19:06:13:688,-0.0885,1.5514,7.2398,54.4545,0.2853,-0.2107,0.1038,316.9844
19:06:13:710,-0.0861,1.5299,7.3259,54.247,0.1863,-0.1032,0.1515,316.9844
19:06:13:729,0.1723,1.4677,7.5966,54.2529,0.0635,-0.0629,0.2107,316.7188
19:06:13:748,0.553,1.4581,7.8838,54.6045,-0.0562,-0.0751,0.2413,316.7188
19:06:13:768,0.9314,1.5826,8.3363,54.436,-0.1698,-0.1167,0.2114,316.7188
19:06:13:792,1.0845,1.8051,9.0114,54.4758,-0.2236,-0.1851,0.1179,315.7656
19:06:13:809,1.008,2.0662,9.1334,54.4802,-0.1625,-0.2706,-0.0232,315.75
19:06:13:829,0.862,2.3151,8.7218,54.451,-0.0861,-0.3274,-0.146,314.1719
19:06:13:848,0.7804,2.4897,8.8032,54.5018,-0.1185,-0.2859,-0.215,312.9688
19:06:13:868,0.6966,2.4826,9.5453,55.0417,-0.2205,-0.1228,-0.2486,312.9688
19:06:13:889,0.5722,2.272,10.436,55.1722,-0.3024,0.0861,-0.2908,312.25
19:06:13:911,0.4406,2.126,11.3839,54.9461,-0.3702,0.259,-0.3482,312.25
19:06:13:929,0.0144,1.9319,12.198,54.8681,-0.3812,0.2932,-0.3995,311.9844
19:06:13:948,-0.0861,1.8147,12.2172,54.8987,-0.2957,0.0874,-0.3842,311.9844
19:06:13:967,0.2776,1.7142,11.956,54.8962,-0.2755,-0.1448,-0.3225,311.9219
19:06:13:991,0.6248,1.3502,12.6266,55.2263,-0.4038,-0.11,-0.2969,311.9219
19:06:14:010,0.7516,0.9051,14.106,55.459,-0.5595,0.554,-0.438,311.6094
19:06:14:031,0.2776,0.7804,13.8667,55.4323,-0.4545,0.6414,-0.5565,311.5781
19:06:14:050,-0.0359,0.7253,13.1124,55.3345,-0.2089,0.4502,-0.6145,311.0938
19:06:14:067,-0.055,0.3975,11.2475,55.4527,0.1631,0.1918,-0.6298,311.0469
19:06:14:088,-0.1842,0.0981,9.0185,55.7438,0.4459,-0.0086,-0.6359,310.9062
19:06:14:112,-0.0646,0.0144,8.2214,56.1277,0.4325,-0.0525,-0.6408,310.8906
19:06:14:128,0.1101,-0.1268,8.875,56.1876,0.2431,0.2285,-0.6554,311.2344
19:06:14:150,0.0981,-0.2321,10.0672,56.09,0.113,0.6133,-0.6774,311.7188
19:06:14:169,-0.1364,-0.3209,10.7088,56.003,0.1466,0.7697,-0.6805,311.7188
19:06:14:192,-0.3377,-0.352,10.7064,55.9315,0.2468,0.6237,-0.6304,312.3594
19:06:14:212,-0.4741,-0.2752,10.4073,56.138,0.3189,0.2908,-0.5363,312.3594
19:06:14:229,-0.4478,-0.0957,10.0074,56.3043,0.3476,-0.0397,-0.4209,313.0781
19:06:14:248,-0.3855,0.1125,9.5166,56.5089,0.3696,-0.2217,-0.3262,313.0781
19:06:14:267,-0.4382,0.2922,8.863,56.5617,0.408,-0.2969,-0.2608,313.0938
19:06:14:289,-0.4932,0.5578,8.3076,56.7626,0.4227,-0.3103,-0.2083,313.5938
19:06:14:310,-0.6153,0.7588,7.9412,56.9682,0.4135,-0.2798,-0.16,313.5938
19:06:14:330,-0.5746,0.9434,7.6828,57.3729,0.3763,-0.201,-0.0953,314.4688
19:06:14:348,-0.364,1.1228,7.7713,57.6103,0.2883,-0.0672,-0.022,315.8281
19:06:14:368,-0.0885,1.1898,8.3291,57.654,0.171,0.0806,0.033,315.8281
19:06:14:389,0.1149,1.1946,8.942,57.6104,0.1081,0.1808,0.0464,317.4219
19:06:14:408,0.1579,1.1683,9.0975,57.8343,0.1258,0.2065,0.0232,317.4219
19:06:14:428,0.0909,1.2257,9.0257,57.8428,0.1527,0.1662,-0.014,318.9844
19:06:14:448,-0.0957,1.3573,9.0066,58.1087,0.1472,0.1155,-0.0428,318.9844
19:06:14:467,-0.2608,1.4222,8.985,58.1933,0.1222,0.1051,-0.0403,320.3906
19:06:14:490,-0.3329,1.4916,8.9157,58.1613,0.0935,0.1155,-0.0116,320.5312
19:06:14:510,-0.4765,1.5467,8.9109,58.2634,0.0574,0.1209,0.0098,321.6406
19:06:14:531,-0.6033,1.5993,9.0138,58.4677,-0.0367,0.1209,0.0647,321.75
19:06:14:549,-0.6894,1.5251,9.4232,58.511,-0.1106,0.1405,0.1142,322.5156
19:06:14:568,-0.5171,1.4151,10.017,58.4388,-0.2162,0.16,0.1497,322.5938
19:06:14:588,-0.5435,1.209,10.5389,58.6183,-0.2944,0.157,0.1552,323.1406
19:06:14:610,-0.7971,0.8163,10.7279,58.56,-0.3457,0.1246,0.1448,323.1875
19:06:14:682,-0.8282,0.6775,11.3504,58.6727,-0.4508,0.1026,0.1417,323.4531
19:06:14:683,-0.862,0.51,12.2626,58.6372,-0.5809,0.2248,0.171,323.4688
19:06:14:684,-0.941,0.0526,12.6864,58.8653,-0.6267,0.3323,0.226,323.4688
19:06:14:696,-0.8572,-0.1388,12.521,59.1527,-0.5687,0.2285,0.234,323.5156
19:06:14:710,-0.9362,0.1795,12.2746,59.2737,-0.5027,0.0886,0.1564,323.5156
19:06:14:729,-0.9434,0.754,12.4971,59.381,-0.4813,0.1075,0.0941,323.5156
19:06:14:749,-1.1563,0.9266,12.6697,59.3754,-0.3647,0.1637,0.0696,323.6719
19:06:14:767,-1.6137,0.8788,11.1924,59.6211,-0.0336,0.0086,0.0745,323.6719
19:06:14:790,-2.0303,0.8524,9.4113,59.7676,0.2688,-0.3292,0.1271,323.7031
19:06:14:810,-2.2002,0.8115,8.3124,59.8715,0.3848,-0.5088,0.2492,323.7031
19:06:14:830,-2.0638,0.6918,7.9101,59.9074,0.3085,-0.3726,0.441,323.5781
19:06:14:848,-1.2616,0.5052,8.2956,59.9424,0.0837,-0.044,0.6732,323.2031
19:06:14:867,-0.3138,0.3281,9.4017,60.1556,-0.1558,0.2266,0.8326,323.2031
19:06:14:899,0.2249,0.3329,10.2682,60.1787,-0.2425,0.2449,0.8283,322.7031
19:06:14:910,0.2417,0.6081,10.6561,60.2319,-0.16,0.0647,0.6939,322.7031
19:06:14:929,-0.1507,0.9482,10.0002,60.0717,0.0409,-0.1417,0.5302,322.1094
19:06:14:949,-0.4573,1.2353,8.8941,59.946,0.1839,-0.2492,0.4478,322.1094
19:06:14:968,-0.4765,1.4366,8.2741,59.8967,0.1845,-0.2645,0.4496,321.3594
19:06:14:994,-0.3066,1.494,7.9771,59.6134,0.1368,-0.2486,0.4868,321.2969
19:06:15:009,-0.0072,1.4629,7.7809,59.474,0.099,-0.2425,0.5131,320.8125
19:06:15:029,0.2489,1.5227,7.8,59.4959,0.0733,-0.2132,0.4923,320.75
19:06:15:049,0.2034,1.6137,7.879,59.6622,0.0629,-0.1271,0.4239,320.5156
19:06:15:069,0.0335,1.6854,7.8933,59.6879,0.0519,-0.0269,0.3665,320.5
19:06:15:093,-0.0455,1.7788,8.0034,59.754,0.0018,0.044,0.3506,320.2656
19:06:15:109,0.079,1.7836,8.2502,59.8801,-0.0782,0.0544,0.3598,320.2344
19:06:15:128,0.3903,1.8027,8.4894,60.0984,-0.2004,-0.1497,0.3439,319.2188
19:06:15:148,1.4079,2.0112,9.0951,60.3812,-0.2291,-0.2443,0.2633,317.3594
19:06:15:167,1.5323,2.1356,9.2868,60.6282,-0.2083,-0.2847,0.11,317.3594
19:06:15:188,1.3741,2.3079,9.4017,60.4257,-0.1588,-0.2804,-0.0684,317.1875
19:06:15:209,1.0223,2.3844,9.7128,60.4704,-0.1234,-0.2181,-0.223,315.9375
19:06:15:230,0.5506,2.3414,10.1486,60.5612,-0.1118,-0.0971,-0.3354,315.8125
19:06:15:249,0.1938,2.1954,10.8212,60.7084,-0.1289,0.0232,-0.3897,314.9219
19:06:15:268,0.1484,1.992,11.6737,60.8967,-0.1576,0.1142,-0.3873,314.9062
19:06:15:291,0.0933,1.6663,12.0518,61.098,-0.1246,0.069,-0.3708,313.875
19:06:15:309,-0.0359,1.276,11.4221,61.2458,-0.0409,-0.2052,-0.3354,313.875
19:06:15:331,0.1555,1.2712,11.056,61.4329,-0.0696,-0.4948,-0.2828,312.9062
19:06:15:347,0.1603,1.118,11.4939,61.8943,-0.2346,-0.4484,-0.2645,312.1406
19:06:15:368,0.2898,0.9458,12.5282,62.08,-0.4025,-0.0782,-0.2407,312.1406
19:06:15:392,0.5363,0.6176,13.5171,62.441,-0.4985,0.3421,-0.2401,311.2812
19:06:15:408,0.7875,0.2106,14.2256,62.4663,-0.4868,0.5027,-0.2804,311.2812
19:06:15:429,0.9147,-0.012,14.2208,62.6226,-0.3213,0.3439,-0.3787,310.5312
19:06:15:448,0.8067,0.0837,13.0167,62.4714,-0.0293,0.0507,-0.5369,310.5312
19:06:15:467,0.3999,0.2946,11.1661,62.7431,0.2211,-0.215,-0.6835,310.4062
19:06:15:488,0.0814,0.4669,9.8061,62.6181,0.3427,-0.3671,-0.7605,310.4062
19:06:15:511,-0.0766,0.6033,8.8989,62.5661,0.3958,-0.2902,-0.7935,310.9219
19:06:15:530,-0.1172,0.6846,8.5469,62.3889,0.3909,0.0171,-0.7984,310.9688
19:06:15:548,-0.055,0.6655,8.7314,62.2266,0.339,0.4111,-0.777,311.6875
19:06:15:569,0.0981,0.5913,9.428,62.2608,0.273,0.6719,-0.73,311.75
19:06:15:593,0.2441,0.5124,10.1055,62.1399,0.2443,0.6958,-0.6787,312.4219
19:06:15:609,0.1795,0.4789,10.5987,62.1967,0.2761,0.5449,-0.6469,312.5
19:06:15:630,-0.4406,0.7014,9.9476,62.111,0.3702,0.3372,-0.6218,313
19:06:15:648,-0.929,0.8501,9.2411,61.9954,0.5406,0.0495,-0.5479,313.3438
19:06:15:667,-1.2305,0.9697,8.4607,61.9336,0.576,-0.0415,-0.4447,313.3438
19:06:15:689,-1.1874,1.0056,7.8191,61.759,0.5595,-0.0721,-0.303,313.375
19:06:15:711,-0.7229,0.9362,7.5006,61.74,0.4649,-0.0122,-0.1344,313.875
19:06:15:730,-0.0431,0.8378,7.8431,61.694,0.3054,0.1008,0.0012,313.9375
19:06:15:749,0.4454,0.7301,8.4775,61.5688,0.182,0.1845,0.0397,315.3125
19:06:15:768,0.7181,0.7325,8.6952,61.5063,0.168,0.2077,-0.0104,315.3125
19:06:15:795,0.6296,0.8067,8.4823,61.5919,0.1942,0.2065,-0.1032,317.1719
19:06:15:809,0.2898,0.9649,8.2406,61.6303,0.193,0.1741,-0.1784,317.1875
19:06:15:829,-0.0766,1.1492,8.1664,61.7349,0.1497,0.1594,-0.1955,319.0625
19:06:15:848,-0.3664,1.264,8.2167,61.906,0.0861,0.1949,-0.1582,320.7656
19:06:15:867,-0.6703,1.3573,8.4105,61.7717,0.0171,0.2511,-0.1045,320.7656
19:06:15:890,-0.8931,1.4079,8.6904,61.9844,-0.0446,0.2798,-0.0287,322.3281
19:06:15:911,-0.9529,1.3693,8.8247,62.3302,-0.1032,0.2645,0.0788,322.3281
19:06:15:931,-0.9003,1.2832,9.1286,62.2736,-0.1967,0.2083,0.1906,323.8438
19:06:15:948,-0.6894,1.185,9.7702,62.2235,-0.3213,0.1704,0.2889,323.8438
19:06:15:969,-0.3688,1.0989,10.5126,62.3034,-0.4319,0.1839,0.35,324.9531
19:06:15:993,-0.4358,0.9721,11.2187,62.1587,-0.4905,0.1753,0.3451,324.9531
19:06:16:010,-0.7684,0.9936,11.5588,62.251,-0.4868,0.1203,0.306,325.2656
19:06:16:030,-1.0678,1.1731,11.7957,62.1761,-0.4875,0.099,0.2944,325.2969
19:06:16:048,-1.4725,1.2018,12.131,62.0772,-0.5149,0.1277,0.3292,325.3594
19:06:16:067,-1.7931,1.0128,12.198,61.9147,-0.5101,0.0861,0.4038,325.3594
19:06:16:090,-1.4653,0.8524,12.0183,62.0849,-0.4911,0.0018,0.5211,325.7188
19:06:16:110,0.1029,0.7253,13.285,62.1438,-0.4759,-0.0122,0.6292,326.1719
19:06:16:129,-0.0024,0.5794,12.6721,62.2271,-0.2046,-0.2114,0.4942,326.1719
19:06:16:147,-0.7349,0.5961,10.8787,62.178,0.1826,-0.5711,0.3237,326.2031
19:06:16:167,-1.5179,0.6129,9.1956,62.037,0.4392,-0.7214,0.2529,326.3281
19:06:16:188,-1.8529,0.6344,8.1568,62.3852,0.4435,-0.4777,0.3066,326.3438
19:06:16:212,-1.7596,0.5818,8.2597,62.2938,0.2138,-0.0501,0.4349,326
19:06:16:228,-1.3095,0.4908,9.2554,62.1336,-0.0421,0.2077,0.573,325.9688
19:06:16:248,-0.7014,0.4717,9.8423,61.9851,-0.1112,0.1374,0.6212,325.1406
19:06:16:268,-0.3233,0.6679,9.7702,61.7838,-0.0281,-0.1075,0.5626,325.0625
19:06:16:290,-0.2489,0.9194,8.9803,61.5616,0.1051,-0.3152,0.4594,324.0781
19:06:16:308,-0.1101,1.13,8.2525,61.5141,0.1668,-0.358,0.3909,324.0625
19:06:16:329,0.1555,1.2616,7.7809,61.4504,0.1545,-0.2969,0.3531,323.1094
19:06:16:348,0.4047,1.3597,7.6205,61.0659,0.1026,-0.2144,0.325,321.8125
19:06:16:368,0.4765,1.4533,7.5652,60.9096,0.0428,-0.1258,0.2957,321.8125
19:06:16:393,0.4693,1.5108,7.6828,60.9037,-0.0153,-0.0531,0.2651,320.1406
19:06:16:409,0.4956,1.5754,7.9555,60.9952,-0.0666,0.0202,0.2401,320.125
19:06:16:430,0.4358,1.6232,8.3076,61.0415,-0.1136,0.0983,0.2162,319.2188
19:06:16:448,0.3951,1.6113,8.5397,61.2,-0.1637,0.1411,0.2077,319.2188
19:06:16:468,0.4765,1.6065,8.8152,61.3156,-0.2236,0.0922,0.2065,318.8281
19:06:16:493,0.7277,1.6543,9.0377,61.4542,-0.2688,-0.033,0.2022,318.8281
19:06:16:510,1.0415,1.8314,9.2411,61.6847,-0.2853,-0.1674,0.1564,317.8594
19:06:16:530,1.0654,2.0495,9.2916,61.9624,-0.2608,-0.2376,0.0525,317.7656
19:06:16:548,0.9027,2.2481,9.0927,61.9638,-0.2169,-0.2346,-0.0568,316.5469
19:06:16:567,0.7397,2.406,9.0281,61.8895,-0.2052,-0.2187,-0.135,316.4375
19:06:16:591,0.565,2.4826,9.2821,61.6932,-0.2181,-0.2052,-0.1894,315.6406
19:06:16:612,0.5291,2.2552,10.1462,61.6538,-0.2327,-0.1466,-0.2132,315.5625
19:06:16:631,0.4382,1.9968,11.013,61.6638,-0.2633,-0.0501,-0.2266,314.9531
19:06:16:649,0.4813,1.7883,11.9178,61.7036,-0.3115,0.0452,-0.2486,314.8906
19:06:16:667,0.3401,1.5969,12.5378,61.7109,-0.3451,0.0709,-0.3152,314.3438
19:06:16:740,0.3018,1.506,12.2363,61.5845,-0.2541,-0.1967,-0.3231,314.2812
19:06:16:740,0.4813,1.5921,11.6426,61.6165,-0.1979,-0.4587,-0.3231,313.7812
19:06:16:741,0.4549,1.6113,11.9273,61.5645,-0.2639,-0.3867,-0.3616,313.7344
19:06:16:750,0.4836,1.4246,12.7726,61.5437,-0.3207,-0.0476,-0.4001,313.2188
19:06:16:767,0.5459,0.9984,13.2754,61.4403,-0.2804,0.284,-0.4331,313.1719
19:06:16:790,0.5913,0.6751,13.4357,61.371,-0.1509,0.3598,-0.5039,312.6406
19:06:16:810,0.2441,0.4645,13.1916,61.2694,0.0525,0.2779,-0.6133,312.6406
19:06:16:829,-0.2728,0.2994,12.0613,61.0275,0.2834,0.1393,-0.686,312.5312
19:06:16:848,-0.2922,0.2369,10.989,61.1545,0.3971,-0.033,-0.6573,312.7969
19:06:16:867,-0.0861,0.1244,10.3496,61.3316,0.4239,-0.16,-0.5931,312.7969
19:06:16:890,0.0383,-0.0215,9.9404,61.366,0.4416,-0.1032,-0.5724,313.1562
19:06:16:910,0.0981,-0.1053,9.8423,61.448,0.4313,0.1454,-0.5882,313.1562
19:06:16:936,0.055,-0.1149,10.0744,61.4497,0.4007,0.3964,-0.6029,313.5938
19:06:16:948,0.0096,-0.1364,10.1845,61.6288,0.3885,0.4661,-0.5589,313.5938
19:06:16:968,0.1029,-0.1101,10.0792,61.6747,0.3946,0.3262,-0.4862,314.1406
19:06:16:992,0.1077,0.0215,9.7343,61.9327,0.4154,0.113,-0.4349,314.1406
19:06:17:009,-0.0718,0.2201,9.2148,61.7591,0.4453,-0.0391,-0.4117,314.7188
19:06:17:029,-0.201,0.3449,8.566,61.7448,0.4771,-0.088,-0.3671,314.7812
19:06:17:049,-0.0718,0.4238,7.8335,61.7137,0.4826,-0.0959,-0.2944,315.4844
19:06:17:068,0.0957,0.5195,7.4264,61.747,0.4349,-0.0928,-0.2291,315.5625
19:06:17:093,0.3832,0.7397,7.3211,61.6423,0.2676,0.0012,-0.1649,316.6719
19:06:17:111,0.577,0.8453,7.4767,61.5047,0.1833,0.0867,-0.1539,316.7969
19:06:17:130,0.7014,0.9434,7.6923,61.5896,0.1136,0.1698,-0.1625,318.2812
19:06:17:149,0.5985,1.1109,8.0728,61.5338,0.0525,0.2352,-0.1875,318.4219
19:06:17:168,0.3114,1.2951,8.5014,61.5512,0.0116,0.2877,-0.2144,319.7656
19:06:17:193,-0.1627,1.4581,8.7697,61.2951,-0.0006,0.3256,-0.2248,319.9062
19:06:17:209,-0.5889,1.5754,8.9683,61.5101,-0.0061,0.3292,-0.1906,321.2969
19:06:17:229,-0.7828,1.6615,9.1813,61.1567,-0.025,0.2969,-0.0965,321.4219
19:06:17:248,-0.9123,1.6232,9.3395,61.0638,-0.0531,0.2382,0.0202,322.6719
19:06:17:267,-0.9769,1.494,9.5357,61.0271,-0.0922,0.1814,0.135,322.7969
19:06:17:294,-0.9027,1.3238,9.8542,61.0498,-0.1588,0.1875,0.2382,323.9375
19:06:17:308,-0.8477,1.1037,10.2347,61.0029,-0.2474,0.2566,0.3152,323.9531
19:06:17:330,-0.7828,0.9529,10.6681,61.0954,-0.3415,0.2926,0.3622,324.9062
19:06:17:348,-0.7708,0.766,11.1254,61.1823,-0.43,0.2718,0.3946,325.5469
19:06:17:368,-0.5937,0.687,11.6067,60.9484,-0.5101,0.2321,0.4172,325.5469
19:06:17:394,-0.4693,0.6464,12.119,61.3884,-0.576,0.2401,0.4105,326.0156
19:06:17:409,-0.3688,0.5602,12.6024,61.7238,-0.5925,0.2645,0.3854,326.0156
19:06:17:431,-0.2874,0.4908,12.7702,61.7075,-0.5375,0.2737,0.3525,326.4375
19:06:17:448,-0.4358,0.632,12.8611,61.7062,-0.4319,0.2333,0.2957,326.4375
19:06:17:468,-0.8788,0.9003,12.8468,61.6937,-0.2957,0.1814,0.2535,326.9375
19:06:17:492,-1.4868,0.917,12.3559,61.7299,-0.1112,0.0318,0.2694,326.9375
19:06:17:509,-1.8577,0.7995,11.1039,61.946,0.1197,-0.2828,0.361,327.25
19:06:17:527,-2.1093,0.6153,9.7654,62.0298,0.2975,-0.5546,0.482,327.25
19:06:17:547,-1.9896,0.4071,8.6426,62.205,0.347,-0.5608,0.6157,327.0781
19:06:17:567,-1.3693,0.2393,8.2262,62.2916,0.2285,-0.3268,0.744,327.0625
19:06:17:588,-0.4454,0.1196,8.8032,62.6489,0.0147,-0.0751,0.821,326.4219
19:06:17:609,0.7947,0.4119,9.5309,62.7306,-0.0721,-0.1478,0.6212,326.3594
19:06:17:629,0.6248,0.8282,8.9444,62.7873,0.0458,-0.2584,0.4032,325.4062
19:06:17:648,0.3497,1.2162,8.3339,62.579,0.1161,-0.2175,0.2431,325.3125
19:06:17:667,0.2082,1.4868,8.0201,62.3523,0.1075,-0.088,0.1637,324.2188
19:06:17:688,0.0622,1.6352,8.0058,62.3908,0.0672,-0.0189,0.1319,324.125
19:06:17:707,-0.1172,1.7285,8.0321,62.41,0.0507,-0.0476,0.1234,323.0938
19:06:17:727,-0.1507,1.7859,7.8574,62.4609,0.0513,-0.0922,0.1466,323
19:06:17:747,0.0359,1.7548,7.6493,62.3627,0.0165,-0.0935,0.2016,322.2656
19:06:17:768,0.4095,1.6615,7.7809,62.2891,-0.077,-0.0629,0.2517,322.1875
19:06:17:789,0.7756,1.5562,8.3124,62.6266,-0.1906,-0.0214,0.2633,321.5469
19:06:17:807,1.0606,1.4605,8.8343,62.9043,-0.2621,-0.0031,0.2254,321.4844
19:06:17:828,1.276,1.5634,9.2076,63.1914,-0.281,-0.0189,0.1387,320.4375
19:06:17:848,1.1731,1.8194,9.3586,63.1729,-0.2645,-0.0776,0.0055,318.7812
19:06:17:867,0.8186,2.0901,9.1597,63.1149,-0.2248,-0.1888,-0.1197,318.7812
19:06:17:888,0.5028,2.3294,8.8295,62.9474,-0.1955,-0.2932,-0.1942,317.1719
19:06:17:907,0.3257,2.5232,8.6761,63.0518,-0.1991,-0.3146,-0.2382,317.1719
19:06:17:928,0.2752,2.5786,8.942,63.1226,-0.2303,-0.2236,-0.259,316.5
19:06:17:948,0.1507,2.4849,9.6171,62.9947,-0.2724,-0.0452,-0.2676,316.5
19:06:17:968,-0.0718,2.1763,10.4671,63.048,-0.3011,0.1173,-0.2694,316.2188
19:06:17:990,-0.0215,2.0542,11.5182,62.8304,-0.3347,0.2413,-0.2504,316.2188
19:06:18:008,-0.1053,1.8553,12.6697,63.045,-0.3598,0.3054,-0.2382,315.9375
19:06:18:028,-0.4286,1.5945,13.1028,63.0305,-0.2859,0.1503,-0.2352,315.9375
19:06:18:047,-0.7086,1.494,12.4517,63.3082,-0.1374,-0.2413,-0.2181,315.4844
19:06:18:067,-0.6799,1.4964,11.9776,63.0538,-0.0819,-0.507,-0.1771,315.4375
19:06:18:089,-1.1276,0.8668,12.1262,63.0703,-0.1631,-0.3323,-0.1045,314.8281
19:06:18:107,-0.9242,0.3257,12.6793,62.9007,-0.2633,-0.047,0.0024,314.7812
19:06:18:128,-0.297,0.1077,13.165,62.874,-0.2938,0.0861,0.0507,314.5
19:06:18:147,0.5913,-0.2922,12.6314,62.9139,0.0336,-0.0635,-0.1185,314.4688
19:06:18:167,0.6009,-0.5243,11.3791,62.8536,0.2706,-0.201,-0.2468,314.6875
19:06:18:187,0.7397,-0.5506,9.9906,62.894,0.4258,-0.2572,-0.3464,314.7031
19:06:18:207,0.8091,-0.51,8.9204,62.738,0.4447,-0.1545,-0.4258,315.0938
19:06:18:228,0.9434,-0.2752,8.9515,62.9881,0.3152,0.1142,-0.4899,315.1406
19:06:18:247,0.8477,-0.0479,9.9643,62.9068,0.1759,0.4673,-0.5504,315.5469
19:06:18:267,0.5602,0.0144,10.2897,63.0817,0.2028,0.6371,-0.5882,315.5781
19:06:18:291,0.2656,0.1579,10.0361,63.0352,0.3085,0.5168,-0.5913,315.9219
19:06:18:307,-0.0431,0.3497,9.4567,63.1886,0.3824,0.2792,-0.5516,315.9688
19:06:18:328,-0.1125,0.5219,9.0185,63.0129,0.3952,0.0837,-0.4685,316.3438
19:06:18:347,-0.0431,0.6033,8.7625,63.0434,0.3824,0.0153,-0.3836,316.5625
19:06:18:367,0.0359,0.5889,8.3746,62.9485,0.3903,0.0189,-0.325,316.5625
19:06:18:387,0.1029,0.6296,7.934,62.6712,0.394,0.0049,-0.2853,316.375
19:06:18:407,0.1842,0.7732,7.7258,62.76,0.361,0.0018,-0.2559,316.375
19:06:18:428,0.2106,0.9338,7.7067,62.4894,0.2975,0.0568,-0.2266,316.4688
19:06:18:447,0.2584,1.0702,8.013,62.4225,0.2138,0.1613,-0.1881,316.4688
19:06:18:467,0.3305,1.1539,8.3889,62.3377,0.1448,0.248,-0.1509,317.2656
19:06:18:488,0.3544,1.2473,8.7242,62.5122,0.0928,0.27,-0.1295,317.2656
19:06:18:507,0.3185,1.398,9.0879,62.5084,0.0586,0.2266,-0.1191,318.4531
19:06:18:528,0.1842,1.5227,9.253,62.3791,0.0586,0.1576,-0.1051,318.4531
19:06:18:547,0.079,1.6496,9.2578,62.1907,0.0733,0.0965,-0.088,319.7188
19:06:18:568,-0.1292,1.7333,9.2964,62.2333,0.0721,0.0947,-0.0721,319.8438
19:06:18:590,-0.3616,1.707,9.3299,62.3173,0.0513,0.1209,-0.0452,321.1719
19:06:18:608,-0.6129,1.695,9.4974,62.3598,0.0073,0.1283,-0.0049,321.2969
19:06:18:630,-1.051,1.6113,10.1151,62.2174,-0.135,0.1985,0.0935,322.3438
19:06:18:648,-1.1204,1.5203,10.4432,61.9319,-0.1918,0.1692,0.1454,322.4531
19:06:18:667,-1.2425,1.4103,10.4647,61.9124,-0.2114,0.1081,0.1839,323.25
19:06:18:687,-1.3334,1.2114,10.1773,62.1028,-0.2223,0.0837,0.2223,323.3281
19:06:18:707,-1.0391,1.2425,10.3376,62.5212,-0.3219,0.1723,0.2926,323.9688
19:06:18:727,-0.929,1.075,11.5899,62.2976,-0.5052,0.4025,0.3653,324.0312
19:06:18:775,-0.711,0.833,13.0071,62.558,-0.6145,0.6481,0.4221,324.4688
19:06:18:775,-0.6583,0.7014,13.9768,62.5701,-0.576,0.7006,0.4258,324.5156
19:06:18:793,-0.6033,0.7851,14.348,62.7875,-0.4154,0.4966,0.4025,324.8125
19:06:18:807,-0.8501,0.7516,13.6391,62.7867,-0.1509,0.1008,0.3812,324.8438
19:06:18:828,-1.3334,0.5841,11.7168,62.7088,0.1949,-0.4276,0.3732,325.0938
19:06:18:848,-1.7572,0.3664,9.6912,62.3856,0.4526,-0.7532,0.4105,325.2656
19:06:18:867,-1.9199,0.1795,8.0178,62.179,0.5076,-0.6548,0.485,325.2656
19:06:18:888,-1.4222,0.1747,7.4336,62.1119,0.3121,-0.2651,0.5962,325.2188
19:06:18:907,-0.6224,0.2058,8.4081,61.8188,-0.0128,0.0892,0.6982,325.2188
19:06:18:928,0.256,0.2273,9.2653,61.6514,-0.1625,0.102,0.7269,324.875
19:06:18:953,0.9529,0.4262,9.306,61.3952,-0.0898,-0.1277,0.6353,324.875
19:06:18:968,0.9936,0.699,8.578,61.4189,0.0629,-0.2926,0.4325,324.3125
19:06:18:989,0.5913,1.0869,7.8718,61.0957,0.1509,-0.2706,0.2321,324.3125
19:06:19:010,0.213,1.3454,7.4408,61.2368,0.1405,-0.1387,0.1301,323.375
19:06:19:029,0.1005,1.4414,7.3522,60.9854,0.0702,-0.0562,0.1197,323.375
19:06:19:048,0.0909,1.5514,7.6732,60.9122,-0.0092,-0.0446,0.135,322.1406
19:06:19:067,0.0072,1.5993,8.1449,60.5206,-0.0562,-0.0067,0.1332,322.1406
19:06:19:092,-0.0861,1.6161,8.499,60.1507,-0.0776,0.0556,0.1252,321.2031
19:06:19:110,-0.1795,1.5849,8.7984,60.0464,-0.1051,0.0715,0.1295,321.1094
19:06:19:130,-0.2441,1.695,9.4878,59.9284,-0.157,-0.066,0.1381,320.4688
19:06:19:148,-0.0431,1.8529,9.5046,60.0169,-0.1423,-0.157,0.1313,320.4062
19:06:19:169,0.2728,1.9848,9.3084,59.8532,-0.1167,-0.2413,0.1118,319.5312
19:06:19:193,0.5506,2.1356,9.0784,59.9663,-0.0886,-0.328,0.0519,319.4375
19:06:19:208,0.62,2.3007,8.9492,59.7898,-0.0623,-0.3494,-0.0446,317.9844
19:06:19:230,0.4214,2.3486,8.8774,60.0676,-0.0415,-0.2871,-0.1484,317.8281
19:06:19:248,0.1531,2.2792,9.1095,60.083,-0.0556,-0.1741,-0.2223,316.75
19:06:19:268,-0.0455,2.1045,10.0457,60.1767,-0.1313,-0.0049,-0.2443,316.6406
19:06:19:292,-0.1268,1.8266,11.0393,59.9423,-0.2077,0.1735,-0.2236,316.3438
19:06:19:309,-0.0287,1.5682,11.8053,59.8347,-0.2523,0.1912,-0.182,316.3125
19:06:19:329,0.0335,1.118,11.9776,59.7308,-0.2553,-0.0104,-0.1313,316.0469
19:06:19:348,0.4645,0.9649,11.8005,59.8129,-0.2706,-0.2785,-0.0794,315.7344
19:06:19:368,0.6751,0.8402,12.2698,59.8046,-0.3616,-0.3231,-0.0977,315.7344
19:06:19:393,0.9577,0.7516,13.2778,59.6386,-0.4496,-0.0928,-0.1448,315.3594
19:06:19:411,1.2233,0.5698,14.1299,59.6212,-0.4526,0.2132,-0.2071,315.3594
19:06:19:430,1.3167,0.3257,14.4102,59.4039,-0.3286,0.27,-0.3079,314.9844
19:06:19:448,1.008,0.1627,13.5793,59.4559,-0.069,0.0189,-0.4355,314.9844
19:06:19:469,0.565,0.2154,11.5732,59.4942,0.2248,-0.3732,-0.5479,314.75
19:06:19:493,0.3473,0.3784,9.775,59.715,0.3598,-0.5937,-0.5821,314.75
19:06:19:510,0.3233,0.5052,8.7242,59.6479,0.3464,-0.5174,-0.5773,314.9219
19:06:19:529,0.4454,0.498,8.6928,59.2498,0.2388,-0.1741,-0.5663,314.9219
19:06:19:549,0.5148,0.5435,9.6218,59.1709,0.1209,0.3335,-0.5827,315.3906
19:06:19:568,0.2058,0.4693,10.3232,59.4106,0.0983,0.7031,-0.606,315.3906
19:06:19:593,-0.1125,0.5028,10.6872,59.4851,0.1497,0.6817,-0.5724,315.6875
19:06:19:609,-0.28,0.6464,10.4934,59.613,0.2559,0.3653,-0.4978,315.7188
19:06:19:629,-0.2898,0.8091,9.6099,59.4105,0.3775,0.0232,-0.405,315.7969
19:06:19:649,-0.3138,0.9123,8.7793,59.0356,0.474,-0.1814,-0.2407,315.7969
19:06:19:668,-0.2922,0.8955,8.0225,58.8856,0.4746,-0.1148,-0.1643,315.8438
19:06:19:693,-0.146,0.8501,7.4815,59.0607,0.4178,0.0086,-0.0983,315.8438
19:06:19:710,0.0574,0.8258,7.6612,59.1385,0.328,0.1258,-0.0593,316.1875
19:06:19:730,0.0239,0.8764,8.1015,58.69,0.259,0.1814,-0.0348,316.2188
19:06:19:749,0.0072,0.9529,8.3435,58.6687,0.2138,0.1839,-0.0049,317.2188
19:06:19:767,-0.0024,1.0726,8.6067,58.4009,0.1649,0.1552,0.0208,317.3281
19:06:19:791,-0.0144,1.1755,8.7697,58.5152,0.1344,0.1234,0.0373,318.6094
19:06:19:810,0.1292,1.2712,8.7912,58.8045,0.1173,0.1142,0.0586,318.7344
19:06:19:829,0.268,1.3693,8.9157,58.7676,0.0916,0.1417,0.0599,319.9688
19:06:19:849,0.2632,1.4701,9.0473,58.7199,0.0819,0.1894,0.0293,321.5156
19:06:19:869,-0.0479,1.5084,8.9946,58.5303,0.088,0.2175,-0.0092,321.5156
19:06:19:892,-0.4119,1.573,9.0066,58.6753,0.0544,0.2468,-0.011,322.7031
19:06:19:910,-0.7038,1.6256,9.5046,58.6276,-0.0556,0.3512,0.0305,322.7031
19:06:19:931,-0.7277,1.506,10.1294,58.966,-0.1949,0.4612,0.1216,323.5469
19:06:19:947,-0.4621,1.1994,10.5987,59.0237,-0.3134,0.43,0.2376,323.5469
19:06:19:967,-0.2082,0.8429,10.8787,58.7306,-0.4093,0.2676,0.3085,324.0781
19:06:19:992,-0.1244,0.8354,11.5134,58.7747,-0.5064,0.2156,0.2932,324.0781
19:06:20:008,-0.3736,0.7229,12.0135,58.9387,-0.5846,0.3799,0.2285,324.3281
19:06:20:029,-0.1507,0.5004,12.2052,59.1975,-0.6011,0.4453,0.2065,324.3438
19:06:20:047,0.4693,0.4214,12.3727,59.538,-0.5742,0.3518,0.1802,324.4375
19:06:20:068,0.2632,0.5506,12.6,59.537,-0.4844,0.2889,0.0446,324.4375
19:06:20:091,-0.9051,0.9075,12.4469,59.4689,-0.3042,0.3237,-0.1338,324.4062
19:06:20:110,-1.9152,1.0439,11.5301,59.5007,-0.1075,0.3256,-0.1472,324.4062
19:06:20:129,-2.0949,0.9864,10.2443,59.6513,-0.0086,0.1093,0.0684,324.375
19:06:20:148,-1.4055,0.7086,9.7798,59.7389,-0.025,-0.2596,0.3573,324.3594
19:06:20:168,-0.256,0.2922,9.8303,59.7722,-0.0348,-0.3971,0.5296,324.4219
19:06:20:190,-0.4071,0.268,9.9978,59.6739,-0.0079,-0.1857,0.5125,324.4375
19:06:20:209,-0.4669,0.3927,10.3352,59.5188,-0.0428,0.2022,0.3647,324.2188
19:06:20:230,-0.2827,0.5889,10.515,59.708,-0.0367,0.0159,0.3555,324.2031
19:06:20:247,-0.2345,0.7612,9.775,59.5348,0.0623,-0.2883,0.317,323.4844
19:06:20:267,-0.1555,1.0941,8.8463,59.3411,0.1545,-0.5174,0.2596,323.4062
19:06:20:293,-0.2512,1.2879,8.1159,59.2572,0.1967,-0.5204,0.1979,322.5938
19:06:20:309,-0.309,1.3956,7.5006,59.177,0.2114,-0.3909,0.1478,322.5156
19:06:20:329,-0.3855,1.4414,7.1106,58.9742,0.1869,-0.2676,0.113,321.8281
19:06:20:348,-0.364,1.4821,7.0026,58.9818,0.1258,-0.1894,0.1038,321.6094
19:06:20:368,-0.297,1.4868,7.2063,59.0331,0.0428,-0.1112,0.1051,321.6094
19:06:20:390,-0.2154,1.4557,7.6875,59.0255,-0.0342,-0.0122,0.0935,321.6875
19:06:20:408,-0.1196,1.4198,8.2956,59.1571,-0.1008,0.1222,0.069,321.6875
19:06:20:429,-0.1196,1.4605,9.0018,59.2838,-0.1613,0.226,0.0263,320.6719
19:06:20:448,-0.1842,1.5778,9.6888,59.2843,-0.1949,0.2242,-0.0189,320.6719
19:06:20:468,-0.146,1.7692,10.0696,59.1931,-0.1753,0.11,-0.0458,319.6406
19:06:20:493,-0.1077,1.9753,10.0337,59.4135,-0.1045,-0.091,-0.0702,319.6406
19:06:20:509,-0.146,2.2146,9.5333,59.3899,-0.0043,-0.3054,-0.1045,318.8281
19:06:20:529,-0.1723,2.4419,9.1382,59.2453,0.058,-0.3952,-0.1381,318.8281
19:06:20:548,-0.2154,2.4754,8.9515,59.1751,0.0843,-0.3299,-0.1521,318.2344
19:06:20:567,-0.256,2.3438,8.9827,59.2876,0.0776,-0.2052,-0.1417,318.2344
19:06:20:591,-0.0766,2.1308,9.5955,59.3036,0.0116,-0.0684,-0.11,317.9844
19:06:20:608,0.1651,1.8864,10.5341,59.4665,-0.0733,0.0318,-0.0843,317.9531
19:06:20:629,0.3401,1.7692,11.4676,59.426,-0.1142,0.0079,-0.0855,317.8125
19:06:20:648,0.3114,1.4844,11.7885,59.59,-0.0825,-0.1264,-0.0996,317.7969
19:06:20:667,0.1747,1.1515,11.0249,59.7829,-0.011,-0.3708,-0.1136,317.6094
19:06:20:692,0.4023,1.2712,11.2738,59.7645,-0.2022,-0.3292,-0.1619,317.5938
19:06:20:709,0.6655,1.0487,12.3057,59.7311,-0.3323,-0.0049,-0.1497,317.4219
19:06:20:729,1.0534,0.8091,13.1964,59.6656,-0.369,0.2162,-0.1613,317.4062
19:06:20:748,1.2162,0.6799,13.8476,59.786,-0.2792,0.2046,-0.2535,317.375
19:06:20:767,0.8043,0.6033,13.6343,59.6192,-0.0593,0.0574,-0.394,317.375
19:06:20:792,0.1819,0.4334,12.143,59.6834,0.2095,-0.1759,-0.4942,317.5
19:06:20:852,-0.0024,0.3568,10.6944,59.4401,0.3415,-0.3292,-0.4893,317.5156
19:06:20:852,0.1651,0.3712,9.9141,59.2985,0.3213,-0.2822,-0.4532,317.8281
19:06:20:853,0.3855,0.3305,10.017,59.2837,0.2419,-0.066,-0.4398,318.1562
19:06:20:867,0.4047,0.2536,10.3929,59.009,0.2144,0.1955,-0.4594,318.1562
19:06:20:889,0.1364,0.3018,10.4551,58.7841,0.2767,0.2895,-0.5119,318.2969
19:06:20:908,-0.3209,0.4358,9.8758,58.4643,0.3897,0.1826,-0.5437,318.2969
19:06:20:930,-0.5818,0.553,9.0377,58.3159,0.4618,0.0104,-0.4948,318.4844
19:06:20:962,-0.5339,0.6488,8.554,58.0539,0.4532,-0.0867,-0.4001,318.4844
19:06:20:967,-0.4406,0.7038,8.2071,57.8224,0.4276,-0.0831,-0.3164,318.7188
19:06:20:988,-0.4406,0.7373,7.8909,57.5479,0.4001,-0.0159,-0.2572,318.7188
19:06:21:009,-0.4238,0.7205,7.6397,57.4214,0.372,0.0367,-0.1949,318.875
19:06:21:029,-0.28,0.7493,7.3355,57.502,0.3305,0.0519,-0.1155,318.875
19:06:21:048,-0.0383,0.7684,7.2302,57.5403,0.2358,0.0867,-0.0214,319.5
19:06:21:068,0.3066,0.754,7.4862,57.3427,0.1075,0.1429,0.0635,319.5
19:06:21:090,0.644,0.7564,8.0489,57.2611,-0.0012,0.2138,0.1087,320.7031
19:06:21:108,0.8453,0.8979,8.8367,57.1852,-0.0476,0.3097,0.0892,320.7031
19:06:21:129,0.8572,1.1731,9.3203,57.358,0.0257,0.3732,0.0134,321.7188
19:06:21:148,0.5004,1.4892,9.0616,57.4626,0.1833,0.3763,-0.0794,321.8281
19:06:21:168,-0.0742,1.8697,8.4057,57.2726,0.284,0.336,-0.1313,322.9375
19:06:21:192,-1.0152,2.4634,8.4488,57.0875,0.0122,0.4355,-0.0202,323.0469
19:06:21:208,-1.4557,2.4969,8.6665,56.8128,-0.1716,0.5443,0.1136,324.3125
19:06:21:230,-1.6232,2.5113,9.428,56.7867,-0.372,0.5375,0.2828,324.4219
19:06:21:247,-1.3095,2.461,11.0225,56.7804,-0.5363,0.5058,0.4514,325.375
19:06:21:267,-0.9505,2.272,11.8316,56.7061,-0.5119,0.551,0.5748,325.4531
19:06:21:293,-1.0128,2.0207,11.6713,56.4167,-0.3671,0.5296,0.6053,326.1094
19:06:21:307,-1.3932,1.6854,11.0393,55.8937,-0.2511,0.3702,0.5614,326.1719
19:06:21:329,-1.4414,1.6352,10.7231,55.9086,-0.2553,0.1209,0.5455,326.4531
19:06:21:348,-1.3047,1.6232,11.5875,55.9578,-0.3708,-0.0122,0.5546,326.3438
19:06:21:368,-1.0247,1.4629,12.3296,56.0038,-0.3903,0.0434,0.5809,326.3438
19:06:21:390,-0.6081,1.6017,12.0808,55.9669,-0.3225,0.2175,0.5553,326.2344
19:06:21:409,-0.3975,1.6448,12.332,55.8741,-0.3176,0.3018,0.4685,326.2344
19:06:21:429,-0.2827,1.6448,12.9855,55.7178,-0.3244,0.3054,0.4203,326.6094
19:06:21:448,-0.6153,1.3741,12.5833,55.4685,-0.157,0.1912,0.3604,326.6094
19:06:21:468,-1.051,0.8716,11.2953,55.3813,0.1472,-0.0647,0.2969,326.8281
19:06:21:493,-1.7261,0.6057,9.8758,55.1048,0.3854,-0.3598,0.2584,326.8281
19:06:21:511,-1.8123,0.5052,8.554,54.5951,0.3726,-0.3824,0.3128,326.8438
19:06:21:529,-1.5443,0.2321,8.3698,54.2929,0.1594,-0.1979,0.4801,326.2656
19:06:21:547,-0.9601,0.0814,8.0154,54.119,-0.1222,0.16,0.6768,324.8281
19:06:21:567,-0.5435,0.0742,7.2039,53.8868,-0.4368,0.463,0.7849,324.8281
19:06:21:593,-0.6942,0.0766,6.6724,53.7068,-0.8362,0.617,0.7801,323.375
19:06:21:609,-1.0271,0.1196,7.2972,53.5243,-1.218,0.5693,0.7636,323.375
19:06:21:629,-1.6663,-0.2827,8.8582,53.5187,-1.3598,0.5528,0.832,322.0781
19:06:21:648,-0.6846,1.0654,9.9739,53.2255,-1.0788,0.6554,1.0702,321.9531
19:06:21:667,0.0311,2.0255,9.5764,53.0933,-0.5192,0.7367,0.9993,320.6094
19:06:21:691,-1.1013,1.2233,8.2095,52.7095,0.4972,0.3726,0.408,320.4688
19:06:21:710,-0.7732,1.4988,6.859,52.476,0.5046,0.4813,0.358,319.375
19:06:21:729,-1.0271,1.319,6.9667,52.2134,0.1466,0.6304,0.3244,319.2812
19:06:21:748,-1.0702,1.0845,7.9938,51.8915,-0.2871,0.6536,0.35,318.6094
19:06:21:767,-0.7516,0.9912,9.8061,51.8896,-0.5522,0.471,0.3769,318.5469
19:06:21:790,-0.1531,1.1372,11.1159,51.8741,-0.5229,0.1741,0.2993,318.2031
19:06:21:808,0.1005,1.4462,11.1972,51.7195,-0.2498,-0.1637,0.0568,318.1562
19:06:21:830,-0.2632,1.6998,10.7136,51.618,0.091,-0.474,-0.2443,317.0312
19:06:21:847,-0.5363,1.9367,9.9332,51.563,0.3402,-0.5986,-0.4502,314.9531
19:06:21:868,-1.0271,2.0949,9.4974,51.2455,0.4343,-0.5748,-0.5565,314.9531
19:06:21:889,-1.4725,1.9247,9.7032,51.0856,0.4178,-0.5424,-0.5693,312.0781
19:06:21:908,-1.3406,1.7668,10.5796,50.9878,0.347,-0.4917,-0.5113,312.0781
19:06:21:929,-0.9936,1.6902,11.6904,50.6743,0.2749,-0.4264,-0.4966,309.2188
19:06:21:948,-0.8234,1.4653,12.3607,50.3224,0.2816,-0.5076,-0.587,309.2188
19:06:21:968,-1.0582,1.0175,11.9536,50.2168,0.3531,-0.7251,-0.6597,308.3125
19:06:21:992,-0.9673,1.0678,11.1876,50.0221,0.3152,-0.9664,-0.576,308.3125
19:06:22:009,-0.5052,1.2377,11.2355,49.645,0.0611,-1.0549,-0.4038,308.3125
19:06:22:030,0.431,1.3167,12.3942,49.3807,-0.2828,-0.9181,-0.2749,307.8125
19:06:22:047,0.8907,1.2784,13.9409,49.1774,-0.4704,-0.5736,-0.317,306.6719
19:06:22:067,0.5554,1.0774,14.5777,48.9696,-0.3286,-0.2608,-0.5156,306.6719
19:06:22:089,-0.1531,0.7995,13.7133,48.7489,0.0831,-0.1771,-0.7312,305.9375
19:06:22:109,-0.833,0.5411,11.8244,48.2154,0.4917,-0.2382,-0.8301,305.9375
19:06:22:128,-1.1898,0.4071,10.1366,47.6205,0.6432,-0.306,-0.7458,306.7812
19:06:22:148,-1.1228,0.5028,9.4448,47.296,0.5125,-0.2773,-0.5626,306.875
19:06:22:168,-0.62,0.553,9.8157,47.1555,0.2535,-0.1069,-0.3934,308.2969
19:06:22:191,-0.1388,0.2536,10.3905,46.985,0.1014,0.2993,-0.3445,308.4531
19:06:22:212,-0.2345,0.2512,9.9715,46.4121,0.2584,0.2376,-0.4502,309.6875
19:06:22:232,-0.4741,0.4095,9.2629,46.0441,0.4484,0.1411,-0.5388,309.7969
19:06:22:248,-0.9075,0.5052,8.4344,45.598,0.5858,0.1051,-0.565,311.2656
19:06:22:267,-1.1731,0.5985,7.7952,45.5053,0.6096,0.0959,-0.4954,311.4062
19:06:22:293,-1.2233,0.6129,7.4408,45.4367,0.5388,0.0751,-0.3622,312.5
19:06:22:307,-1.0343,0.6057,7.29,45.1854,0.4215,0.0079,-0.2126,312.6094
19:06:22:330,-0.7708,0.6057,7.2637,44.7864,0.2834,-0.0715,-0.0831,312.9531
19:06:22:348,-0.4956,0.6176,7.3642,44.3358,0.1582,-0.1167,0.0055,314.1562
19:06:22:367,-0.1364,0.5889,7.6325,44.2136,0.0586,-0.1026,0.0519,314.1562
19:06:22:389,0.0909,0.6344,7.9508,44.0533,-0.0086,-0.0226,0.0635,316.3438
19:06:22:408,0.1077,0.6799,8.1616,43.6873,-0.0312,0.0458,0.0415,316.3438
19:06:22:430,0.0718,0.7445,8.1425,43.3882,-0.0305,0.0849,0.0183,317.6406
19:06:22:448,0.0957,0.8931,8.1473,42.914,-0.0586,0.1057,0.0024,317.6406
19:06:22:467,0.0502,1.0678,8.3794,42.5275,-0.1283,0.1283,-0.0232,317.6406
19:06:22:491,-0.1005,1.2305,8.8152,42.3298,-0.2016,0.1374,-0.0501,318.4219
19:06:22:508,-0.352,1.2497,9.2195,42.1715,-0.2449,0.1124,-0.0452,318.4375
19:06:22:529,-0.3209,1.319,9.6482,41.9767,-0.2773,0.0764,0.0073,319.75
19:06:22:547,-0.3592,1.3956,10.1916,41.4697,-0.3402,0.149,0.055,321.3125
19:06:22:567,-0.5148,1.4438,10.9289,41.4337,-0.4111,0.3146,0.1008,321.3125
19:06:22:591,-0.7397,1.3406,11.5182,41.2864,-0.441,0.441,0.1527,322.2656
19:06:22:610,-1.0534,1.0391,11.5756,41.1507,-0.427,0.3873,0.193,322.2656
19:06:22:629,-1.1061,1.1276,11.7144,40.9044,-0.4465,0.2034,0.2358,322.4844
19:06:22:647,-1.331,1.2138,12.2674,40.6552,-0.5345,0.1613,0.2798,322.5
19:06:22:668,-1.4581,1.1994,13.0262,40.2763,-0.6108,0.2712,0.3494,322.3906
19:06:22:692,0.0239,1.3047,13.596,40.1205,-0.5999,0.3274,0.4447,322.3906
19:06:22:709,0.0694,1.1109,13.0406,39.9899,-0.5015,0.2785,0.4777,322.3125
19:06:22:730,-0.3544,0.754,11.4365,39.6555,0.0507,-0.2413,0.2376,322.2969
19:06:22:749,-0.8716,0.5052,9.7343,39.2675,0.3207,-0.4557,0.1307,322.2656
19:06:22:767,-1.5084,0.2441,8.7793,39.0174,0.4227,-0.3873,0.0812,322.2656
19:06:22:792,-1.8482,0.0048,8.4488,38.8056,0.3677,-0.0501,0.1258,322.2344
19:06:22:808,-1.6448,-0.0957,8.7625,38.4871,0.1918,0.3268,0.2614,322.2344
19:06:22:827,-1.0965,-0.189,9.3203,38.2084,-0.022,0.452,0.4135,321.9844
19:06:22:847,-0.3879,-0.1675,9.859,37.9416,-0.1637,0.2187,0.507,321.4688
19:06:22:889,0.1507,-0.0287,9.7654,37.7811,-0.1662,-0.2052,0.4954,321.4688
19:06:22:889,0.4334,0.2536,8.9922,37.2002,-0.0672,-0.5284,0.3934,320.6719
19:06:22:907,0.5841,0.6057,8.2071,36.7888,0.0055,-0.554,0.248,320.6719
