Time,Acc_X,Acc_Y,Acc_Z,Meg,Gyr_X,Gyr_Y,Gyr_Z,Ore
11:15:35:844,-1.0965,1.5849,9.7534,22.2894,0.2633,-0.0819,0.3213,131.7656
11:15:35:861,-0.7421,1.8721,9.4472,22.1712,0.2236,-0.0568,0.3384,131.7656
11:15:35:883,-0.3185,2.2002,8.9444,22.1556,0.1173,-0.0489,0.3066,131.7656
11:15:35:903,-0.2154,2.2409,9.2677,22.0681,-0.0012,-0.0757,0.2706,131.7656
11:15:35:923,-0.1077,2.2217,9.4591,21.9216,-0.0898,-0.0489,0.2486,131.7656
11:15:35:940,-0.0622,2.1763,9.5836,21.8981,-0.1484,0.0031,0.234,131.7656
11:15:35:959,0.0048,2.0806,9.6601,21.9674,-0.1668,0.0342,0.223,131.7656
11:15:35:979,-0.0263,2.0088,9.7774,21.926,-0.1613,0.0287,0.2101,131.7656
11:15:36:001,-0.134,1.9534,9.7678,21.9867,-0.1271,0.025,0.2022,131.7656
11:15:36:019,-0.3281,1.9247,9.5955,22.2201,-0.0886,0.0391,0.2107,140.7188
11:15:36:039,-0.4789,2.0183,9.2964,22.2019,-0.0739,0.0684,0.2498,140.7188
11:15:36:060,-0.419,2.1141,9.0281,22.2982,-0.0916,0.0721,0.3054,140.6094
11:15:36:080,-0.2752,2.1428,8.8128,22.4168,-0.1393,0.0391,0.3354,139.2969
11:15:36:100,-0.189,2.0853,8.7434,22.3289,-0.215,-0.0342,0.3164,139
11:15:36:120,-0.2584,1.9801,8.7027,22.4285,-0.3091,-0.099,0.284,142.9844
11:15:36:141,-0.1484,1.7381,8.8247,22.127,-0.4343,-0.1649,0.27,139.0469
11:15:36:159,-0.0144,1.4725,9.1047,22.1021,-0.565,-0.2401,0.2651,136.75
11:15:36:179,0.0096,1.1803,9.7128,22.0709,-0.6811,-0.3268,0.2376,136.0938
11:15:36:199,-0.0742,0.8378,10.3304,22.2291,-0.7403,-0.3647,0.2071,136.7656
11:15:36:219,-0.0766,0.62,10.6298,22.2628,-0.7196,-0.3256,0.2144,141.5
11:15:36:241,0.0359,0.4765,10.6202,22.39,-0.6481,-0.2547,0.2584,139.9844
11:15:36:260,0.1316,0.4741,10.5078,22.6232,-0.5681,-0.1875,0.317,140.3281
11:15:36:279,0.3185,0.644,10.558,22.5876,-0.4948,-0.1558,0.369,139.875
11:15:36:300,0.51,0.9075,10.5532,23.0218,-0.4361,-0.1106,0.3928,139.8281
11:15:36:320,0.6823,1.063,10.5365,23.2026,-0.4032,-0.0605,0.3671,139.2969
11:15:36:342,0.6751,1.0893,10.5891,23.2272,-0.3757,-0.0244,0.2908,139.2969
11:15:36:360,0.4214,1.0367,10.6729,23.1923,-0.3262,0.0049,0.1967,138.5781
11:15:36:380,0.1531,0.9984,10.5987,23.3441,-0.2285,0.047,0.1423,138.5625
11:15:36:403,-0.0287,0.9721,10.206,23.318,-0.099,0.1014,0.1381,137.9062
11:15:36:427,-0.0814,0.9817,9.763,23.4236,0.0098,0.1338,0.1552,137.9062
11:15:36:445,-0.7612,1.343,9.4663,23.4061,0.0464,0.2089,0.1912,137.3438
11:15:36:460,-1.0032,1.6591,9.2629,23.4137,0.0348,0.314,0.2792,137.3438
11:15:36:481,-0.6799,2.0686,8.7123,23.3782,0.0421,0.4068,0.4111,136.9375
11:15:36:499,-0.0311,2.5594,8.3578,23.4686,0.0018,0.3848,0.4484,136.9219
11:15:36:520,0.5961,2.9327,8.7817,23.458,-0.1442,0.2431,0.2584,136.4688
11:15:36:544,0.565,2.5089,9.708,23.5125,-0.3237,0.1271,-0.1252,136.4688
11:15:36:563,-0.0263,1.5012,10.2156,23.6129,-0.4142,0.088,-0.4606,135.75
11:15:36:579,-0.5052,0.7301,10.2132,23.4253,-0.408,0.0226,-0.5809,134.9219
11:15:36:601,-0.5961,0.3162,10.0433,23.3948,-0.3641,-0.113,-0.5314,134.9219
11:15:36:620,-0.5339,0.3401,10.3113,23.2211,-0.314,-0.3201,-0.4099,134.4062
11:15:36:643,-0.2922,0.6846,10.838,23.1539,-0.2462,-0.4911,-0.2553,134.4062
11:15:36:660,0.1579,1.2425,11.348,23.2359,-0.1497,-0.5296,-0.1087,134.0938
11:15:36:681,0.4071,1.8817,11.3192,23.3963,-0.0305,-0.3903,-0.0495,134.0938
11:15:36:701,0.7708,2.3103,10.8595,23.2599,0.0678,-0.1765,-0.0874,133.7188
11:15:36:719,1.1276,2.4682,10.4192,23.338,0.0886,0.0122,-0.2382,133.7188
11:15:36:745,0.9147,2.2409,10.3857,23.3568,0.0122,0.1692,-0.5033,133.1719
11:15:36:760,0.2201,1.5514,10.6131,23.3416,-0.1057,0.3409,-0.7684,133.1719
11:15:36:780,-0.4478,0.687,10.7806,23.6701,-0.1759,0.5101,-0.9248,132.1719
11:15:36:803,-0.8139,-0.1699,10.7806,23.8417,-0.1576,0.6102,-0.9706,132.1719
11:15:36:820,-1.1922,-0.8548,10.7614,23.8922,-0.0556,0.5944,-0.9444,132.0312
11:15:36:844,-1.4653,-1.3884,10.4695,23.9136,0.1338,0.5113,-0.8082,132.0156
11:15:36:866,-1.0726,-1.7142,9.8734,24.1467,0.3641,0.3879,-0.5284,133.0625
11:15:36:882,-0.1316,-1.4964,9.0975,24.0498,0.5174,0.2712,-0.1857,133.1719
11:15:36:905,0.7564,-0.929,8.3602,24.3906,0.1576,0.0611,0.1307,134.1406
11:15:36:928,1.1444,-0.352,8.1664,24.7013,-0.3091,-0.0727,0.1045,134.2344
11:15:36:944,0.754,0.1292,9.1143,24.5081,-0.7043,-0.1045,0.1228,134.625
11:15:36:961,0.0526,0.4813,10.558,24.47,-0.802,-0.0079,0.234,134.6562
11:15:36:979,-0.28,1.0175,11.6952,24.3383,-0.5889,0.0922,0.3683,134.7969
11:15:36:999,-0.1412,1.1037,11.3001,24.3859,-0.212,0.1185,0.4264,134.8125
11:15:37:019,-0.0407,0.9888,10.6202,24.4144,0.1631,0.0702,0.3854,135.5469
11:15:37:044,0.0646,0.5315,9.8207,24.5127,0.4276,0.0257,0.2944,135.625
11:15:37:060,0.0455,-0.0957,9.0162,24.315,0.5375,0.0281,0.2095,137.3125
11:15:37:080,-0.1747,-0.6248,8.42,24.3979,0.4771,0.0428,0.1686,139.3906
11:15:37:100,-0.3999,-0.9314,8.3076,24.5268,0.2828,0.0367,0.1967,139.3906
11:15:37:120,-0.6464,-0.996,8.4272,24.5598,0.047,0.0434,0.3024,141.0469
11:15:37:145,-0.5411,-0.7014,8.6713,24.7955,-0.1442,0.0525,0.493,141.0469
11:15:37:161,0.1053,-0.0335,9.0879,24.8738,-0.2669,0.0409,0.7098,141.2031
11:15:37:180,0.8115,0.6918,9.6936,24.8523,-0.336,0.0165,0.8167,141.2031
11:15:37:200,1.2281,1.1539,10.3567,25.163,-0.3396,0.0043,0.7648,140.9375
11:15:37:220,1.3382,1.1731,10.6418,25.4305,-0.2645,0.0202,0.6163,140.9375
11:15:37:246,1.1874,0.9505,10.5796,25.3549,-0.1393,0.0367,0.4649,140.9375
11:15:37:260,0.8596,0.7325,10.3834,25.4529,-0.0165,0.0336,0.3732,140.5312
11:15:37:280,0.6823,0.687,10.206,25.577,0.0678,0.0354,0.3665,140.5312
11:15:37:303,0.7445,0.8402,10.0289,25.683,0.1081,0.0641,0.4117,139.6562
11:15:37:320,0.9601,1.185,10.0457,26.1449,0.124,0.0983,0.4545,138.9062
11:15:37:344,1.0678,1.4821,9.9141,26.094,0.1295,0.1674,0.4398,138.9062
11:15:37:362,0.9864,1.5849,9.7726,26.1671,0.11,0.2382,0.3635,138.5469
11:15:37:381,0.766,1.4366,9.7606,26.4324,0.0935,0.2517,0.2621,138.5156
11:15:37:404,0.4214,1.1827,10.0122,26.7321,0.0971,0.2052,0.182,138
11:15:37:420,0.1795,0.8979,10.3256,26.9666,0.1167,0.1704,0.1637,137.9688
11:15:37:446,-0.0861,0.8644,10.6729,27.1458,0.1784,0.2205,0.2969,136.75
11:15:37:461,-0.1723,1.1874,10.5389,27.2233,0.2199,0.2547,0.3928,136.6406
11:15:37:484,-0.3855,1.4581,10.4934,26.9641,0.2743,0.1851,0.4496,135.0469
11:15:37:500,-0.6368,1.561,10.6442,27.2955,0.3482,-0.0367,0.4575,134.8906
11:15:37:520,-0.9817,1.6831,11.2642,27.2713,0.4545,-0.3897,0.4404,133.7969
11:15:37:544,-0.7684,1.8242,11.956,27.3954,0.5907,-0.664,0.4349,133.6875
11:15:37:562,-0.3712,1.8099,12.3248,27.4199,0.6341,-0.5956,0.3781,132.9375
11:15:37:579,-0.3401,1.3741,12.2483,27.5129,0.5241,-0.2468,0.2126,132
11:15:37:601,-1.1683,0.431,11.7383,27.6743,0.3537,0.1148,-0.0122,132
11:15:37:666,-2.3844,-0.5985,10.8141,27.8438,0.2278,0.3543,-0.1063,131.0312
11:15:37:667,-2.983,-0.9577,9.9547,28.0702,0.2083,0.3964,0.1277,131.0312
11:15:37:667,-2.4945,-0.3209,9.361,28.3043,0.2706,0.303,0.5992,130.5312
11:15:37:679,-1.0798,0.9553,8.8846,28.8333,0.3317,0.1869,0.97,130.5312
11:15:37:701,0.1316,1.8505,8.6186,28.9574,0.2895,0.1136,0.9493,130.5312
11:15:37:720,0.3377,1.9199,8.4009,29.0692,0.1209,0.1203,0.5821,130.1406
11:15:37:744,-0.2249,1.3382,8.3626,29.0908,-0.1246,0.1955,0.1423,130.125
11:15:37:761,-1.0822,0.6511,8.3052,29.0664,-0.3604,0.3268,-0.1307,129.375
11:15:37:780,-1.7596,0.1292,7.9914,29.0942,-0.5302,0.427,-0.1619,129.375
11:15:37:803,-1.9032,-0.079,7.9986,29.3324,-0.6365,0.3714,0.0195,128.4062
11:15:37:819,-1.5227,0.1531,8.5732,29.5672,-0.6829,0.2022,0.3103,127.5
11:15:37:844,-0.8692,0.6559,9.3084,29.4897,-0.6634,0.0531,0.5608,127.5
11:15:37:861,-0.4382,1.0965,9.8662,29.4993,-0.5699,-0.0128,0.6677,126.9688
11:15:37:882,-0.2584,1.3214,9.8638,29.9095,-0.3989,0.0153,0.6536,126.9062
11:15:37:902,-0.3449,1.2951,9.2195,30.3202,-0.19,0.0831,0.5687,127.0156
11:15:37:919,-0.5291,1.1204,8.4392,30.6318,-0.0385,0.102,0.4789,127.0156
11:15:37:947,-0.5411,1.0606,7.8431,30.949,-0.0568,0.0153,0.449,126.2812
11:15:37:964,-0.2728,1.4844,8.1063,31.0411,-0.1851,0.0153,0.5039,126.2031
11:15:37:982,0.1675,1.9534,8.3961,31.056,-0.3451,0.0855,0.5369,124.2812
11:15:38:001,0.4214,2.3366,8.9515,31.4658,-0.5039,0.1228,0.5046,124.0938
11:15:38:019,0.4741,2.5427,9.5859,31.8092,-0.587,0.0965,0.4258,123.3438
11:15:38:046,0.4836,2.5786,10.2634,31.9684,-0.5473,0.0189,0.328,123.2656
11:15:38:061,0.4932,2.4706,10.7495,31.9755,-0.4068,-0.0788,0.2254,123.4688
11:15:38:080,0.5315,2.2504,11.2235,32.4191,-0.2401,-0.1558,0.1142,123.0938
11:15:38:100,0.6344,1.8529,11.5182,32.7683,-0.1038,-0.1552,-0.0043,123.0938
11:15:38:120,0.6655,1.4988,11.3815,33.1365,-0.0269,-0.0751,-0.1338,121.6562
11:15:38:144,0.5818,1.1898,11.0752,33.4113,-0.0367,-0.0165,-0.2773,121.6562
11:15:38:162,0.1077,0.8979,11.1039,33.283,-0.1246,-0.0525,-0.4239,120.2812
11:15:38:179,-0.7469,0.8019,11.6378,33.4342,-0.2187,-0.1698,-0.4752,120.2812
11:15:38:199,-0.7516,0.6224,12.2363,33.4309,-0.2297,-0.3323,-0.3518,120.2656
11:15:38:220,-0.297,0.3736,13.0765,33.9489,-0.16,-0.5302,-0.2162,119.2656
11:15:38:246,0.3138,0.2297,13.7085,33.7904,-0.1045,-0.5785,-0.1692,119.25
11:15:38:261,0.9147,-0.134,14.1251,33.7671,-0.1875,-0.4068,-0.2608,118.2031
11:15:38:280,0.4478,-0.874,14.3022,33.9119,-0.3512,-0.1387,-0.5766,118.1875
11:15:38:301,-0.7756,-1.9367,14.3097,34.1599,-0.3751,0.0489,-0.9902,117.0156
11:15:38:320,-1.7381,-2.9734,13.4118,34.4441,-0.1185,0.1478,-1.2712,116.125
11:15:38:345,-2.1356,-3.5886,11.7048,34.6379,0.3518,0.1564,-1.3115,116.125
11:15:38:360,-1.9825,-3.5456,9.696,34.9968,0.835,0.0812,-1.1508,115.75
11:15:38:380,-1.3167,-3.0523,7.9771,34.9708,1.1362,-0.0483,-0.9004,115.7188
11:15:38:403,-0.9003,-2.2313,6.9117,35.1112,1.1582,-0.1698,-0.6701,115.8438
11:15:38:419,-0.431,-1.4151,6.1624,35.2702,0.9028,-0.1912,-0.4398,115.8594
11:15:38:444,0.3066,0.4095,6.6604,35.3608,-0.0977,0.022,0.0916,116.5469
11:15:38:464,0.498,1.3143,7.5389,35.3855,-0.4923,0.1875,0.2266,116.6094
11:15:38:482,0.3712,1.5969,8.2884,35.4726,-0.6328,0.2932,0.1521,117.4219
11:15:38:501,-0.134,1.3286,8.7362,35.7471,-0.5339,0.3225,-0.0293,117.5
11:15:38:519,-0.6105,0.8644,8.8343,35.8687,-0.273,0.2614,-0.1771,117.875
11:15:38:541,-0.6799,0.4836,8.7482,35.8739,0.0764,0.1179,-0.2437,117.9219
11:15:38:563,-0.6057,0.28,8.123,36.1414,0.405,0.0318,-0.2297,118.7344
11:15:38:580,-0.1484,0.5171,7.4982,36.312,0.5327,-0.0134,-0.1668,121.0625
11:15:38:601,0.5315,0.9769,7.3092,36.558,0.4123,-0.022,-0.113,121.0625
11:15:38:620,0.766,1.3573,7.4575,36.6449,0.1387,0.0006,-0.1161,124.0156
11:15:38:646,1.2688,1.5969,8.8247,36.9007,-0.1258,-0.1833,-0.1747,124.0156
11:15:38:661,1.9128,2.1523,11.9178,37.1255,-0.2297,-0.4642,-0.2773,125.8125
11:15:38:680,1.6567,2.4873,13.6152,37.1479,-0.1136,-0.2547,-0.416,125.8125
11:15:38:700,1.0558,2.4299,12.1119,37.5782,0.1509,0.2205,-0.543,125.8281
11:15:38:719,1.4028,2.1045,11.1972,37.738,0.3341,0.1802,-0.6121,126.5312
11:15:38:746,0.6272,1.5251,12.8803,38.0663,0.3971,-0.2193,-0.777,126.5469
11:15:38:762,-1.386,0.3832,14.185,38.0107,0.5357,-0.2639,-0.9486,126.1719
11:15:38:780,-2.7197,-0.6009,12.4421,38.3102,0.7232,0.2077,-0.7538,126
11:15:38:802,-2.5522,-0.2465,9.7343,38.4606,0.6787,0.6383,-0.1735,126
11:15:38:820,-1.1037,0.9936,8.5325,38.378,0.2816,0.6286,0.3824,126.4531
11:15:38:847,0.9003,1.3932,9.6003,38.6107,-0.2767,0.2688,0.5156,126.4531
11:15:38:861,0.7014,0.5315,11.6378,38.6296,-0.6976,-0.1032,0.0996,126.9219
11:15:38:882,-1.2018,-1.008,13.7372,38.858,-0.7605,-0.3977,-0.4019,126.9219
11:15:38:902,-2.9542,-1.6161,13.893,38.9587,-0.3983,-0.419,-0.4642,127.1719
11:15:38:919,-2.8585,-1.1204,12.1549,39.166,0.146,-0.2333,-0.036,127.1875
11:15:38:947,-1.3334,0.28,10.0146,39.4301,0.4361,0.047,0.4923,127.6406
11:15:38:961,0.2177,1.4892,8.6043,39.5733,0.2498,0.2889,0.6328,127.6875
11:15:38:982,0.297,1.5849,9.1262,39.8838,-0.3085,0.1839,-0.2382,128.6406
11:15:39:002,-1.6711,0.6224,9.428,39.9861,-0.0941,0.1448,-0.5314,128.75
11:15:39:019,-1.9152,0.754,7.8239,40.2908,0.2266,0.1674,-0.5546,130.1406
11:15:39:041,-1.4797,1.197,6.1768,40.3581,0.3879,0.1655,-0.4636,130.2812
11:15:39:063,-0.9529,1.6711,5.5687,40.5191,0.3237,0.0464,-0.4398,132.0156
11:15:39:080,-0.2154,1.707,5.9806,41.024,0.1301,-0.1197,-0.5534,131.9688
11:15:39:100,0.6176,1.4103,7.4647,41.2575,-0.0892,-0.2828,-0.7843,131.9688
11:15:39:120,0.6583,0.6727,8.4894,41.3384,-0.2236,-0.204,-1.0665,131.2969
11:15:39:144,-1.0726,-0.5698,8.4512,41.5581,-0.2792,0.1698,-1.2871,131.2969
11:15:39:163,-3.5145,-1.5993,8.0082,41.9528,-0.2798,0.4404,-1.2803,131.2344
11:15:39:180,-4.6181,-1.8266,7.6062,42.073,-0.2559,0.4563,-0.8876,132.1719
11:15:39:201,-4.1058,-1.2903,7.599,42.3563,-0.2602,0.3121,-0.2883,132.1719
11:15:39:220,-3.1436,-0.4621,7.9196,42.6523,-0.3109,0.1753,0.2101,131.7031
11:15:39:242,-2.0351,0.3879,8.8128,42.6185,-0.3885,0.0849,0.5027,131.6875
11:15:39:261,-1.2616,1.0056,9.4687,43.0698,-0.4441,0.1057,0.6334,130.6875
11:15:39:280,-0.6057,1.4151,10.0337,43.4215,-0.4771,0.1216,0.6506,131.5
11:15:39:302,-0.1842,1.5921,11.2977,43.4917,-0.485,-0.0031,0.551,131.5
11:15:39:320,-0.3329,1.4028,12.8779,43.7022,-0.4093,-0.1778,0.3537,132.625
11:15:39:344,-1.0343,1.0104,13.8117,43.9906,-0.2004,-0.3415,0.1686,132.625
11:15:39:362,-1.3358,0.8907,14.1754,44.2422,0.0922,-0.5131,0.1484,133.7344
11:15:39:382,-0.3329,1.0798,13.1315,44.4396,0.339,-0.5143,0.3183,133.7344
11:15:39:404,0.6966,1.398,12.035,44.8013,0.3042,-0.4172,0.4117,135.5938
11:15:39:420,1.6328,1.0032,12.7391,44.8628,-0.0904,-0.3482,0.2773,135.7812
11:15:39:445,1.1779,-2.2768,16.9143,45.1446,-0.7147,-0.1588,-0.5223,138.3125
11:15:39:462,-0.4621,-3.5599,17.2615,45.5654,-0.3036,-0.014,-0.8008,138.5625
11:15:39:485,-1.4438,-4.3214,14.8696,45.8022,0.5473,0.157,-0.7672,139.7188
11:15:39:503,-1.5108,-4.4794,11.2738,46.0257,1.3806,0.1888,-0.4917,139.8281
11:15:39:519,-1.3262,-3.8713,8.0608,46.4316,1.7563,0.1057,-0.1258,139.0938
11:15:39:542,-0.941,-2.1212,5.219,46.4146,1.5119,0.1173,0.2657,139.0156
11:15:39:562,-0.4717,-0.1101,4.2425,46.4906,0.8332,-0.0195,0.493,137.6875
11:15:39:580,0.4765,1.6974,5.7147,46.3434,0.2285,-0.3714,0.4514,136.5938
11:15:39:600,0.917,2.1978,6.7274,46.5767,-0.0403,-0.5162,0.1967,136.5938
11:15:39:619,0.754,2.205,8.2167,46.628,-0.1271,-0.5424,-0.0709,136.5
11:15:39:642,0.0455,1.8362,9.3586,46.5684,-0.0635,-0.4245,-0.2975,136.1719
11:15:39:663,-0.7828,1.1468,9.5883,46.9817,0.1869,-0.3018,-0.4807,136.1406
11:15:39:738,-1.0104,0.8572,8.7817,47.0027,0.4978,-0.1778,-0.5278,135.3594
11:15:39:739,-0.6583,1.0822,7.7163,47.379,0.667,-0.0079,-0.4581,135.3594
11:15:39:739,-0.4932,1.2473,6.725,47.8461,0.6115,0.2114,-0.4203,135.1094
11:15:39:748,-0.6966,1.1252,6.1552,48.1716,0.4606,0.3341,-0.4282,135.0938
11:15:39:761,-0.8812,1.0128,5.8582,48.1735,0.3231,0.3274,-0.3726,136.5156
11:15:39:781,-0.6176,1.2568,5.8606,48.5253,0.1662,0.2364,-0.2175,136.5156
11:15:39:803,-0.1675,1.7429,6.5121,48.8021,-0.0654,0.1307,-0.0574,137.9531
11:15:39:819,0.3592,2.2983,7.733,48.8255,-0.3366,0.08,0.0599,137.9219
11:15:39:844,0.3903,2.7006,9.1286,48.9335,-0.5809,0.1478,0.1118,137.9219
11:15:39:862,0.067,2.7461,10.4145,49.1704,-0.7428,0.2853,0.1203,136.9375
11:15:39:882,-0.0574,2.7126,11.8053,49.1058,-0.7501,0.3286,0.1472,136.9375
11:15:39:902,0.0311,2.4849,12.9784,49.3169,-0.6072,0.284,0.1448,136.8438
11:15:39:920,-0.0239,1.8338,13.8212,49.8372,-0.3702,0.2193,0.0593,136.8438
11:15:39:944,-0.7038,0.941,14.0103,50.1193,-0.0874,0.2107,-0.0446,137.6406
11:15:39:963,-2.0375,0.3736,13.4716,50.5138,0.1698,0.2822,0.0189,137.7344
11:15:39:981,-3.0045,0.6535,12.3535,50.741,0.3916,0.3854,0.4062,138.7344
11:15:40:004,-0.364,2.6862,9.9093,51.0509,0.3635,0.3824,1.4179,138.8281
11:15:40:020,1.7166,3.1292,11.7598,51.306,-0.1692,0.3066,1.3586,139.6719
11:15:40:043,2.1667,2.3414,14.2902,51.4845,-0.5699,0.248,0.8228,139.75
11:15:40:062,0.1125,0.0622,16.3182,51.7849,-0.3928,0.0073,0.0086,140.3125
11:15:40:080,-2.0542,-1.707,15.2647,51.8761,0.4239,-0.2303,-0.4887,140.375
11:15:40:099,-2.3964,-2.1954,11.7168,51.9583,1.229,-0.2572,-0.4545,140.3594
11:15:40:120,-1.7548,-1.5706,8.2837,52.2968,1.4447,-0.1723,-0.2639,140.3438
11:15:40:141,-1.2999,-0.6823,6.2629,52.5104,1.0372,-0.0898,-0.1735,140.0625
11:15:40:163,-1.0056,0.0694,5.9495,52.5544,0.3262,-0.0434,-0.1619,140.0312
11:15:40:180,-1.0774,0.9003,6.749,52.8476,-0.2908,-0.0281,-0.1301,139.625
11:15:40:201,-1.0032,1.6496,7.6612,53.1029,-0.5864,-0.0562,-0.0397,139.625
11:15:40:219,-0.3903,2.3581,8.0776,53.2232,-0.5718,-0.1338,0.0751,139.5781
11:15:40:240,0.3353,2.6384,8.3578,53.2843,-0.438,-0.215,0.0947,139.5781
11:15:40:263,0.6607,2.2265,8.8439,53.3167,-0.3256,-0.2676,-0.0586,139.1094
11:15:40:280,0.2417,1.2449,9.1047,53.2125,-0.2413,-0.2352,-0.2981,136.4688
11:15:40:303,-0.4573,0.4789,9.0162,53.354,-0.1564,-0.1478,-0.4575,136.4688
11:15:40:319,-1.2855,0.0909,8.6785,53.4484,-0.0507,-0.0489,-0.4759,134
11:15:40:344,-1.5371,0.1412,7.7689,53.2222,0.1155,0.0275,-0.3482,134
11:15:40:362,-1.2784,0.6057,6.5599,53.3045,0.2547,0.0421,-0.1753,134.5156
11:15:40:380,-1.008,1.2066,5.7123,53.1484,0.2303,0.0061,-0.0715,134.5156
11:15:40:402,-1.1468,1.7524,5.729,53.2685,0.0385,-0.0336,-0.0385,135.4688
11:15:40:419,-1.1659,2.2576,6.4113,53.3368,-0.1997,-0.0593,-0.0031,135.4688
11:15:40:443,-0.4932,2.7843,7.8144,53.3378,-0.4093,-0.069,0.0458,135.8906
11:15:40:461,0.5267,3.3422,11.0417,53.2556,-0.5516,-0.0556,0.0397,135.9219
11:15:40:484,0.5961,3.9766,14.1945,53.4917,-0.4117,0.0928,-0.1081,136.0625
11:15:40:504,-0.6081,4.0149,14.7476,53.8162,0.1692,0.1771,-0.4349,136.0781
11:15:40:522,-3.1507,0.8668,10.8452,53.7562,1.0201,0.022,-0.6646,135.8906
11:15:40:544,-3.4738,0.9673,10.582,54.0471,0.8308,-0.1637,-0.2889,136.2344
11:15:40:564,-3.0356,1.8075,11.1613,54.3733,0.4465,-0.2095,0.1875,136.2344
11:15:40:580,-1.0917,2.8633,10.6896,54.6028,0.1888,-0.0489,0.6591,136.2656
11:15:40:599,0.5243,3.4834,9.9332,54.6707,-0.0635,0.0501,0.7678,137.2031
11:15:40:619,1.5156,2.5208,10.9627,54.8338,-0.4881,-0.0721,0.4771,137.2969
11:15:40:640,1.3956,0.2656,13.7109,54.8667,-0.923,-0.2743,-0.0043,137.8438
11:15:40:661,0.0766,-1.9753,16.1363,54.9775,-0.9975,-0.3201,-0.3757,137.8906
11:15:40:680,-1.1779,-3.038,15.88,55.183,-0.5046,-0.1655,-0.3964,138.0156
11:15:40:702,-1.1252,-2.9686,13.0621,55.2695,0.2688,0.0159,-0.1045,138.0312
11:15:40:720,-0.1077,-2.0183,9.6314,54.918,0.8069,0.0709,0.2071,137.9688
11:15:40:746,0.7014,-0.7995,7.0364,54.6182,0.8362,0.0483,0.3121,137.9688
11:15:40:763,0.9434,0.1819,5.7242,54.492,0.4465,0.0318,0.2871,138
11:15:40:779,1.1204,1.0726,5.5352,54.2375,-0.1203,0.0495,0.2877,139.2969
11:15:40:802,1.3454,1.8147,6.0667,54.0545,-0.6408,0.0745,0.2908,139.2969
11:15:40:820,1.6926,2.2217,7.6851,53.6258,-0.9505,-0.0195,0.201,140.4531
11:15:40:843,1.6304,2.217,9.9787,53.4508,-0.9389,-0.1307,-0.0336,140.4531
11:15:40:862,0.5794,1.7883,10.8667,53.2705,-0.6072,-0.0623,-0.3299,139.5781
11:15:40:881,-0.486,1.1587,10.0265,53.2267,-0.0794,0.0464,-0.5143,139.5781
11:15:40:901,-0.6535,0.7995,8.3411,53.2784,0.383,0.0696,-0.5125,138.2031
11:15:40:920,-0.4765,0.9362,7.1297,53.4119,0.5461,0.0666,-0.4025,138.2031
11:15:40:943,-0.0598,1.3621,6.3754,53.3086,0.4038,0.1503,-0.3005,138.5312
11:15:40:963,0.2417,1.6448,6.16,53.1721,0.1051,0.2651,-0.2572,138.5781
11:15:40:981,0.1149,1.7836,6.7801,53.0706,-0.1845,0.273,-0.2547,139.0781
11:15:41:005,-0.1962,1.8745,7.8933,52.9087,-0.3402,0.2004,-0.2388,139.125
11:15:41:022,-0.4669,2.0399,9.6769,52.6132,-0.2437,0.099,-0.0562,138.6562
11:15:41:045,-0.2465,2.2193,10.0887,52.5818,-0.1307,0.1063,0.0733,138.6094
11:15:41:063,-0.146,2.3151,10.8858,52.3314,-0.1271,0.1429,0.1442,138.0312
11:15:41:082,-0.4836,1.9705,11.7766,52.2399,-0.2004,0.2388,0.1588,137.9844
11:15:41:099,-1.1659,1.3573,12.5306,52.3523,-0.193,0.3073,0.1802,137.4375
11:15:41:120,-1.7764,0.6918,13.2491,52.3411,-0.0153,0.1918,0.2602,137.375
11:15:41:139,-2.5499,0.3497,13.8021,52.3121,0.273,0.0092,0.4313,137.7031
11:15:41:162,-3.1531,0.6344,13.5458,52.2981,0.5443,0.0153,0.7831,137.7344
11:15:41:181,-1.6926,1.3765,11.8196,52.2447,0.6518,0.2254,1.3286,138.7656
11:15:41:200,1.951,2.648,10.9603,51.8989,0.3207,0.2871,1.6683,138.8594
11:15:41:220,4.2544,2.8202,12.4445,51.7884,-0.529,0.1698,1.2199,139.6719
11:15:41:240,2.6743,0.5602,15.3006,51.486,-1.2987,-0.0006,0.0556,139.6719
11:15:41:265,-1.1324,-1.5443,15.9661,51.1854,-1.2742,-0.0452,-0.9859,140.1875
11:15:41:280,-3.8713,-2.6695,13.3974,50.8226,-0.5467,-0.0519,-1.237,140.6094
11:15:41:303,-3.7134,-2.569,10.9122,50.6063,0.358,-0.2303,-0.6787,140.6094
11:15:41:320,-2.1547,-1.185,8.7888,50.3222,0.981,-0.4044,0.0684,140.5625
11:15:41:343,-0.2728,0.6176,7.8455,50.2449,0.9187,-0.5003,0.3567,140.5625
11:15:41:363,0.0861,0.8019,7.7928,50.101,0.372,-0.3744,0.1222,140.2031
11:15:41:381,-1.1228,0.067,7.8957,49.8683,-0.1545,-0.0849,-0.2272,140.2031
11:15:41:403,-2.0566,-0.3592,7.9723,49.6934,-0.358,0.0348,-0.2926,139.6719
11:15:41:421,-2.1858,-0.3425,7.8718,49.5346,-0.2847,-0.0244,-0.1381,139.6719
11:15:41:447,-1.9343,-0.067,7.678,49.5965,-0.1106,-0.1582,0.0538,138.5156
11:15:41:463,-1.5371,0.1723,7.5894,49.4125,-0.0037,-0.2572,0.201,138.3906
11:15:41:483,-1.1348,0.3425,7.6971,49.5559,-0.0098,-0.2798,0.2859,135.4219
11:15:41:505,-0.5506,0.3592,7.9125,49.3606,-0.1545,-0.149,0.2883,135.125
11:15:41:521,-0.51,0.3185,8.2741,49.3414,-0.2046,-0.149,0.2388,133.7344
11:15:41:545,-0.6081,0.419,8.8008,49.193,-0.2193,-0.1484,0.2346,133.5938
11:15:41:563,-0.5148,0.8716,8.8152,48.8374,-0.1753,-0.0617,0.3121,135.6875
11:15:41:582,-0.012,1.6089,8.5038,48.7641,-0.0983,0.0208,0.4142,135.9062
11:15:41:600,0.6224,2.3988,8.1903,48.562,-0.0324,0.0525,0.4264,136.6094
11:15:41:619,0.8019,2.8633,8.056,48.5813,-0.0312,0.0483,0.3073,136.6875
11:15:41:641,0.4454,2.9758,8.7936,48.2667,-0.1026,-0.0312,0.1356,136.3125
11:15:41:662,-0.0263,2.715,9.629,48.1995,-0.135,-0.0654,0.0373,136.2656
11:15:41:680,-0.5124,2.3222,10.1031,48.1169,-0.066,-0.0269,0.0507,136.7656
11:15:41:700,-0.5985,2.4012,10.3065,48.0176,0.0531,0.0043,0.1509,136.8125
11:15:41:721,-0.4095,2.4658,10.716,48.1194,0.1454,-0.0318,0.1955,136.9062
11:15:41:740,-0.1029,2.2289,10.9675,47.9074,0.1942,-0.0745,0.1503,136.9062
11:15:41:805,-0.1388,2.016,11.3934,47.486,0.1991,-0.1301,0.0764,136.4062
11:15:41:805,-0.5483,1.896,12.1884,47.027,0.1839,-0.2052,0.0299,135.75
11:15:41:805,-0.941,1.9152,13.2706,46.8181,0.1833,-0.2437,0.077,135.75
11:15:41:820,-0.6416,1.9705,13.6534,46.5703,0.2578,-0.1362,0.2309,135.2188
11:15:41:841,1.1085,1.5323,13.0334,46.2732,0.4019,-0.0031,0.3787,135.2188
11:15:41:860,2.0255,0.6248,12.3296,46.1968,0.4343,-0.0214,0.2175,134.4219
11:15:41:879,1.6831,-1.0606,12.9162,45.9394,0.1924,-0.1985,-0.2004,134.4219
11:15:41:903,0.3832,-2.4132,14.0055,45.9948,-0.0672,-0.2865,-0.4856,133.6094
11:15:41:919,-0.8596,-2.4658,13.7109,46.2031,-0.0476,-0.0684,-0.4184,133.6094
11:15:41:941,-0.8931,-1.7907,11.5158,46.3558,0.2492,0.303,-0.1002,133.4062
11:15:41:963,-0.1172,-0.5889,8.7553,46.3518,0.5375,0.4691,0.1509,133.4062
11:15:41:980,0.5411,0.4573,7.2087,46.2417,0.5675,0.2773,0.157,133.2031
11:15:42:001,0.7493,0.941,6.9619,46.2402,0.3317,0.0165,0.047,133.1875
11:15:42:019,0.917,1.5658,7.2517,46.1857,-0.0134,-0.058,0.0501,132.8594
11:15:42:044,1.4342,2.8944,7.946,46.1878,-0.4374,0.1338,0.1362,132.8125
11:15:42:064,1.0152,2.7221,8.4129,45.9858,-0.3702,0.1515,-0.0788,132.7344
11:15:42:083,-0.1699,1.8817,8.3578,45.9732,-0.1038,0.1539,-0.383,132.7188
11:15:42:100,-1.5084,0.9194,7.7833,45.7,0.2486,0.1576,-0.5644,132.4375
11:15:42:119,-2.2504,0.2922,6.8471,45.579,0.5119,0.1857,-0.5064,132.4062
11:15:42:140,-2.1452,0.134,6.1528,45.5253,0.5748,0.2352,-0.2834,131.8281
11:15:42:162,-1.5658,0.4023,5.7529,45.5013,0.3861,0.3744,0.0061,131.7656
11:15:42:181,-0.8402,1.0271,6.0212,45.4199,0.0147,0.507,0.2724,132.4688
11:15:42:201,-0.1603,1.7261,7.1225,45.3836,-0.3677,0.5278,0.4795,132.5469
11:15:42:219,0.4813,2.3605,8.7888,45.4349,-0.5815,0.4184,0.6188,133.1094
11:15:42:240,0.6511,2.9183,10.3687,45.3825,-0.5577,0.2437,0.6579,133.1094
11:15:42:264,0.6176,3.2273,12.0613,45.4735,-0.3726,0.0116,0.6035,132.75
11:15:42:279,0.5889,3.0356,13.0238,45.5156,-0.1381,-0.0599,0.5418,132.6406
11:15:42:301,0.632,2.6456,13.2156,45.8005,0.0122,0.0483,0.5174,132.6406
11:15:42:319,0.4167,2.0327,13.3328,45.8773,0.0421,0.1411,0.4612,132.3125
11:15:42:341,-0.577,1.3238,13.9696,46.1481,0.0641,0.0599,0.3702,132.3125
11:15:42:359,-1.4844,1.343,14.324,46.2867,0.2767,-0.1136,0.449,132.7812
11:15:42:380,-0.5626,2.4084,13.0525,46.3288,0.6078,-0.1619,0.7703,132.7812
11:15:42:401,1.5227,3.5958,11.6761,46.5807,0.6396,-0.1894,0.9719,133.9531
11:15:42:420,2.4275,3.7062,11.9178,46.758,0.2071,-0.2957,0.6829,133.9531
11:15:42:441,1.573,2.193,12.8755,46.9281,-0.2297,-0.4447,0.0043,134.25
11:15:42:464,-0.8931,0.2776,12.9879,46.933,-0.1814,-0.5834,-0.7355,134.25
11:15:42:480,-2.6145,-0.7229,11.9082,46.9459,0.336,-0.6463,-1.058,133.4219
11:15:42:502,-2.7485,-1.4486,9.0497,46.971,0.9193,-0.5235,-0.9419,133.3438
11:15:42:519,-2.071,-0.9817,6.9571,47.125,1.0916,-0.4734,-0.6927,131.9688
11:15:42:543,-0.7636,0.1603,6.6054,47.217,-0.1448,-0.284,-0.4606,131.8281
11:15:42:564,-0.8067,0.2082,7.9938,47.2085,-0.8961,-0.1533,-0.3885,130.6562
11:15:42:583,-0.7708,0.5028,9.3706,47.2817,-1.2956,-0.0073,-0.2059,130.5469
11:15:42:602,-0.1029,1.0726,9.7726,47.3919,-1.2736,0.135,0.0373,129.5469
11:15:42:619,0.6176,1.5491,9.6266,47.4055,-0.9664,0.1191,0.1771,129.4531
11:15:42:639,1.1587,1.6854,9.6242,47.6209,-0.5388,-0.0837,0.1442,128.6562
11:15:42:663,1.0893,1.4653,9.4687,47.9566,-0.1161,-0.234,-0.0263,128.5781
11:15:42:680,0.3018,0.9027,8.6641,47.9741,0.2291,-0.2223,-0.2046,126.9219
11:15:42:701,-0.2297,0.5554,7.6804,48.0463,0.4697,-0.16,-0.2272,126.75
11:15:42:719,-0.4167,0.6703,6.8949,48.3709,0.5675,-0.0336,-0.1185,126.1094
11:15:42:740,-0.4669,1.1515,6.3443,48.6431,0.485,0.1405,0.014,126.0469
11:15:42:764,-0.3568,1.5921,6.3371,48.9037,0.2614,0.2449,0.1057,128.0938
11:15:42:780,-0.0287,1.9944,6.9667,49.2582,0.022,0.2651,0.1839,130.0312
11:15:42:802,0.3305,2.5857,7.6181,49.4781,-0.1442,0.2993,0.2682,130.0312
11:15:42:820,0.8764,3.6727,8.8774,49.3932,-0.259,0.2706,0.358,131.2031
11:15:42:842,1.3908,4.587,10.9385,49.6187,-0.3427,0.1264,0.4032,131.2031
11:15:42:863,1.6639,4.5894,12.8228,50.0443,-0.35,0.0483,0.2785,131.8438
11:15:42:881,1.0128,3.5862,14.4628,50.0695,-0.3262,0.0544,-0.0928,131.8438
11:15:42:901,-0.4573,1.8314,15.7029,50.3012,-0.281,-0.0281,-0.4868,131.5625
11:15:42:920,-2.2959,0.7804,16.9837,50.3569,-0.0153,-0.2071,-0.5156,131.5625
11:15:42:941,-2.3007,0.941,15.7938,50.6211,0.5351,-0.0733,-0.0519,131.4531
11:15:42:965,-0.4214,1.4342,12.9257,50.5668,0.9902,0.2004,0.5614,131.4531
11:15:42:980,1.0965,2.327,11.482,50.9063,0.9016,0.2175,0.8033,131.9062
11:15:43:002,2.3557,2.2935,11.9848,51.1317,0.4001,0.0702,0.5601,131.9531
11:15:43:019,1.7859,1.2233,12.6048,51.2948,0.0086,0.0696,-0.0147,132.0625
11:15:43:041,0.3281,-0.189,12.0688,51.3326,0.0232,0.102,-0.5583,132.0625
11:15:43:062,0.0766,-1.4509,9.3491,51.8291,0.5229,-0.1118,-0.8198,131.75
11:15:43:082,0.3281,-1.3023,7.7952,51.9493,0.5968,-0.1252,-0.7819,131.7188
11:15:43:100,0.431,-0.8139,6.4424,52.1099,0.4178,-0.0348,-0.7294,131.0469
11:15:43:119,0.3473,-0.0024,6.0547,52.472,0.0208,0.0202,-0.6585,130.9844
11:15:43:139,0.2489,0.8429,6.2581,52.7967,-0.4111,0.0635,-0.5779,130.2812
11:15:43:163,0.1795,1.4916,6.9404,52.9376,-0.7281,0.0312,-0.5333,130.2031
11:15:43:180,-0.0167,1.7836,8.2717,52.9951,-0.8686,-0.1087,-0.5711,130.7656
11:15:43:201,-0.4071,1.5993,9.6314,53.3735,-0.7996,-0.2297,-0.6677,130.8125
11:15:43:219,-0.6894,1.2305,10.1198,53.1661,-0.5278,-0.193,-0.7159,131.4062
11:15:43:240,-0.8596,0.8402,9.6769,53.3512,-0.1759,-0.036,-0.6768,131.4688
11:15:43:265,-1.0726,0.486,8.8008,53.4334,0.099,0.1704,-0.5754,129.9844
11:15:43:279,-1.2879,0.419,7.7474,53.5774,0.2303,0.4013,-0.3958,129.375
11:15:43:301,-1.13,0.6129,6.9141,53.6736,0.2462,0.5125,-0.1527,129.375
11:15:43:319,-0.8572,0.8596,6.8088,54.0383,0.1839,0.4111,0.0434,130.8438
11:15:43:340,-0.4549,1.1492,7.3738,54.2748,0.088,0.2364,0.1839,130.8438
11:15:43:364,-0.012,1.6831,8.0656,54.4611,-0.0031,0.1759,0.3213,132.6562
11:15:43:380,0.3329,2.3581,8.7075,54.8027,-0.069,0.1845,0.4416,132.6562
11:15:43:401,0.4143,3.0284,9.5548,55.0639,-0.0904,0.1326,0.5088,134.2031
11:15:43:420,0.5794,3.7995,10.6585,55.2111,-0.0397,0.0159,0.5247,134.2031
11:15:43:440,1.0654,4.2305,11.4389,55.2929,0.0568,-0.025,0.4502,135.3906
11:15:43:463,1.1683,3.8904,11.8747,55.2966,0.0947,-0.0055,0.2327,135.3906
11:15:43:480,-0.0024,2.569,12.5091,55.2518,0.0324,-0.0715,-0.0709,136.6094
11:15:43:502,-1.3621,1.2712,13.165,55.3265,0.0061,-0.1564,-0.2193,136.7344
11:15:43:519,-1.4004,0.4789,12.7822,55.5113,0.0867,-0.1484,-0.091,138.1094
11:15:43:541,-0.8524,0.6392,12.3655,55.5751,0.1038,-0.1264,0.1771,138.25
11:15:43:566,0.0598,1.1731,12.478,55.7304,-0.0843,-0.1283,0.4038,139.2188
11:15:43:583,0.364,1.1109,13.4644,56.0271,-0.3476,-0.2065,0.4251,139.2969
11:15:43:602,-1.8386,-0.6368,12.253,56.3585,-0.0959,0.0788,0.1283,139.375
11:15:43:619,-2.0997,-0.7732,10.0792,56.5733,0.2755,0.2834,0.193,139.3906
11:15:43:639,-1.4725,-0.3449,8.3794,56.7218,0.438,0.2419,0.3103,138.8594
11:15:43:663,-0.8931,0.1723,7.6756,57.023,0.2511,0.1051,0.3164,138.8125
11:15:43:681,-0.6894,0.4334,8.0728,57.238,-0.1808,0.0043,0.2443,137.8281
11:15:43:700,-0.7158,0.4741,8.9348,57.6106,-0.5803,0.014,0.1912,137.7344
11:15:43:719,-0.6583,0.5841,9.4017,57.8412,-0.741,0.1161,0.1973,136.75
11:15:43:740,-0.3233,0.8835,9.294,57.8005,-0.6536,0.1698,0.2346,136.6562
11:15:43:763,-0.0646,1.1276,9.0855,57.9699,-0.4349,0.1045,0.2443,136.4844
11:15:43:780,0.0311,1.1157,8.808,58.1152,-0.2059,-0.0031,0.2223,136.8438
11:15:43:801,0.1842,1.1515,8.4344,58.3384,-0.025,-0.0617,0.2205,136.8438
11:15:43:871,0.3999,1.3478,7.8359,58.3992,0.0794,-0.0195,0.2181,136.2344
11:15:43:880,0.4095,1.4533,7.3092,58.2564,0.0977,0.036,0.1662,136.2344
11:15:43:880,0.0766,1.3071,7.2278,58.2327,0.0574,0,0.0709,135.5
11:15:43:881,-0.2034,1.1013,7.5628,58.0957,0.0232,-0.0996,0.0012,135.5
11:15:43:901,-0.1053,1.1898,7.8168,58.2953,0.0208,-0.1197,-0.0018,135.125
11:15:43:921,-0.0909,1.64,8.0369,58.2547,0.011,-0.0593,0.0263,135.125
11:15:43:941,0.055,2.26,8.3698,58.3925,-0.0177,-0.0055,0.0757,134.4375
11:15:43:965,0.4095,3.1125,8.9827,58.2929,-0.0599,0.0513,0.1228,134.4375
11:15:43:980,0.443,3.8928,9.5548,58.3093,-0.1246,0.1613,0.1136,133.9219
11:15:44:001,0.4621,4.0938,9.9787,58.4213,-0.2107,0.2663,0.0232,133.9219
11:15:44:019,0.2994,3.4379,10.8021,58.513,-0.3011,0.1796,-0.1637,133.4062
11:15:44:040,-0.2369,2.1452,11.9871,58.6532,-0.2932,-0.0941,-0.3775,133.3594
11:15:44:064,-0.6655,0.9123,12.8157,58.7228,-0.0983,-0.3378,-0.5033,132.8594
11:15:44:083,-1.4581,0.4119,12.7822,58.6465,0.3543,-0.3433,-0.234,132.8125
11:15:44:104,-0.7086,1.3669,12.0951,58.5064,0.3842,-0.149,0.1576,132.3281
11:15:44:120,0.8692,1.951,11.3886,58.7236,0.2718,-0.0519,0.4441,132.3281
11:15:44:139,2.2816,2.138,11.7096,58.6773,0.0305,-0.1662,0.4294,132.1094
11:15:44:163,3.1555,1.3621,12.7941,58.9302,-0.2395,-0.3628,0.1191,132.0781
11:15:44:180,2.0136,-0.1125,14.1347,58.7749,-0.3763,-0.4306,-0.4001,132.0938
11:15:44:200,-0.1364,-1.9534,14.252,58.7504,-0.1845,-0.2963,-0.8424,132.0938
11:15:44:219,-1.276,-3.1579,12.7582,58.5979,0.2785,-0.0825,-0.9499,131.9844
11:15:44:239,-1.506,-3.2177,10.3352,58.7613,0.6732,0.1839,-0.791,131.9844
11:15:44:263,-1.427,-2.5113,7.6947,58.9155,0.7061,0.4361,-0.5375,131.7344
11:15:44:279,-1.4653,-1.5634,6.2222,58.719,0.3586,0.4557,-0.3073,131.8125
11:15:44:300,-1.1683,-0.3951,6.4424,58.778,-0.149,0.2529,-0.0538,131.8125
11:15:44:320,-0.4836,1.0056,7.5078,58.5897,-0.5901,0.0874,0.2107,132.7656
11:15:44:340,0.1723,2.2002,8.8534,58.6915,-0.8381,0.0098,0.3537,132.7656
11:15:44:364,0.4956,2.6599,10.2275,58.8116,-0.8234,-0.0928,0.2859,133.5938
11:15:44:381,0.1172,2.2624,11.0656,58.9198,-0.5351,-0.1753,0.0379,133.5938
11:15:44:402,-0.9529,1.197,10.7112,58.9359,-0.0782,-0.1057,-0.2169,132.9844
11:15:44:420,-1.7429,0.3808,9.2988,58.8085,0.3677,0.0922,-0.2309,132.9844
11:15:44:440,-1.6974,0.4023,7.7498,58.835,0.6469,0.2688,-0.0177,132.4062
11:15:44:459,-0.9362,0.7971,6.5384,58.8603,0.6915,0.3818,0.2242,132.4062
11:15:44:482,-0.352,1.1635,5.7218,58.8214,0.5369,0.4771,0.3488,133.7812
11:15:44:502,0.0526,1.561,5.6309,58.6953,0.2724,0.4722,0.3909,133.7812
11:15:44:520,0.5483,1.9008,6.4642,58.6989,-0.0159,0.3421,0.4062,135.5312
11:15:44:541,1.0152,2.2146,8.0752,58.491,-0.2407,0.1442,0.405,135.7031
11:15:44:565,1.3621,2.5379,9.6673,58.4467,-0.325,0.0116,0.3781,136.5469
11:15:44:581,1.2951,2.6312,10.9361,58.2533,-0.2792,-0.0318,0.2828,136.625
11:15:44:602,0.7253,2.6336,12.3655,58.2951,0.0031,0.0367,0.1332,136.4375
11:15:44:621,0.687,2.4203,12.2578,57.9156,0.1271,0.1631,0.0788,136.4062
11:15:44:640,-0.1292,1.7022,12.3512,57.6955,0.1949,0.179,-0.0764,135.7188
11:15:44:659,-1.3071,0.833,12.3679,57.4203,0.2578,0.1704,-0.19,135.6562
11:15:44:680,-1.4629,0.4813,11.6761,57.1084,0.303,0.2535,-0.0562,135.8125
11:15:44:699,-0.4932,1.0271,11.2857,57.0391,0.2144,0.2688,0.2236,135.8281
11:15:44:720,0.3066,1.5969,11.7957,56.8316,-0.0348,0.1778,0.3231,136.0938
11:15:44:740,0.5052,1.4127,12.9616,56.7438,-0.2523,0.0037,0.1912,136.125
11:15:44:760,-0.5387,0.5459,13.663,56.421,-0.2468,-0.1069,-0.0892,135.5625
11:15:44:781,-2.3438,-0.553,12.976,56.4003,-0.0067,-0.0202,-0.3225,134.5938
11:15:44:800,-3.3637,-1.2449,10.9603,56.3239,0.3036,0.1539,-0.3024,134.5938
11:15:44:819,-2.9351,-0.984,8.8941,56.2777,0.4441,0.2095,-0.0599,133.6875
11:15:44:840,-1.7931,-0.2369,7.9316,56.068,0.2834,0.102,0.1228,133.6875
11:15:44:865,-1.0917,0.1364,8.4607,56.0929,-0.0776,-0.1167,0.1008,133.1719
11:15:44:882,-1.0199,0.2225,9.4472,55.8692,-0.383,-0.2126,0.0098,133.1719
11:15:44:901,-1.118,0.4358,9.6171,55.6827,-0.4771,-0.1038,-0.0128,132.9219
11:15:44:920,-1.1444,0.7971,9.2339,55.6726,-0.4251,0.0049,0.0556,132.9219
11:15:44:941,-0.5913,1.3382,8.6976,55.4412,-0.3146,0.0171,0.1716,133.2188
11:15:44:964,-0.0646,1.7213,8.1473,55.1554,-0.2187,-0.0086,0.201,133.2188
11:15:44:981,0.0814,1.7142,8.0608,54.8844,-0.1637,-0.0971,0.113,133.0469
11:15:45:000,-0.1938,1.2449,8.1087,54.7916,-0.0739,-0.2004,-0.0281,133.0469
11:15:45:020,-0.6392,0.8572,7.8526,54.4308,0.0782,-0.2028,-0.113,132.5
11:15:45:041,-0.6416,0.8354,7.2924,54.1674,0.2071,-0.1295,-0.1032,132.4531
11:15:45:064,-0.62,0.9003,6.615,54.0714,0.215,0.0024,-0.0757,132.8438
11:15:45:083,-0.7708,0.862,6.2892,53.8992,0.0977,0.0568,-0.0727,132.8906
11:15:45:102,-0.364,1.4246,7.1991,53.6316,-0.1784,-0.1442,0.0403,133.2812
11:15:45:121,0.2489,2.3964,8.0752,53.3316,-0.3024,-0.1991,0.1185,133.3125
11:15:45:143,0.28,3.3757,9.1525,53.1953,-0.4496,-0.1851,0.0904,133.1094
11:15:45:165,0.0431,3.9622,10.558,52.9086,-0.565,-0.201,-0.0159,133.0938
11:15:45:183,0.146,3.8641,11.9584,52.4513,-0.5424,-0.3128,-0.16,133.0469
11:15:45:200,0.1603,2.7461,12.7534,52.2244,-0.3934,-0.408,-0.3916,133.0469
11:15:45:220,-0.3951,0.9434,13.2395,51.9016,-0.2291,-0.4893,-0.6316,132.7812
11:15:45:239,-1.3286,-0.4908,13.8045,51.4267,-0.0831,-0.5492,-0.6744,132.75
11:15:45:265,-2.0255,-0.8429,13.8835,51.2001,0.08,-0.4154,-0.3842,132.4219
11:15:45:281,-1.5706,0.4262,13.1172,51.0963,0.2474,-0.08,0.1668,132.5625
11:15:45:300,0.6153,1.8434,11.4628,50.8258,0.328,0.2193,0.6194,132.5625
11:15:45:320,2.3462,2.5762,10.8547,50.4435,0.1796,0.215,0.6011,132.7812
11:15:45:340,2.6671,1.561,11.7383,50.257,-0.1271,-0.0318,0.1326,132.7812
11:15:45:367,1.8745,-0.565,13.3711,50.1739,-0.2895,-0.3433,-0.372,132.9219
11:15:45:379,0.7253,-2.3462,13.9959,49.9583,-0.1692,-0.3891,-0.5858,132.9219
11:15:45:401,-0.1962,-3.2465,12.9616,49.9528,0.1319,-0.0641,-0.5247,132.7344
11:15:45:420,-0.2249,-2.9542,10.6107,49.9126,0.4276,0.408,-0.2663,132.7344
11:15:45:441,0.5794,-2.0471,8.1975,49.8151,0.5107,0.6524,-0.0238,132.6094
11:15:45:466,1.2855,-1.2688,6.8662,49.5145,0.2889,0.5644,0.0171,132.6094
11:15:45:480,1.075,-0.8812,7.2517,49.7982,-0.113,0.3048,-0.0874,133.2031
11:15:45:502,0.4071,-0.4621,8.6809,49.9127,-0.4313,0.0684,-0.1417,133.2031
11:15:45:519,0.1436,0.2225,9.3873,49.5686,-0.5009,0.0464,-0.0544,134.6406
11:15:45:541,0.2441,1.1922,9.4687,49.5523,-0.3848,0.0886,0.0684,134.6406
11:15:45:565,0.5124,1.9319,9.318,49.7191,-0.2132,0.0922,0.0861,134.8906
11:15:45:581,0.4286,1.9391,8.9827,49.6258,-0.0647,0.091,-0.0562,134.9219
11:15:45:604,-0.1172,1.3334,8.7003,49.7221,0.0599,0.0965,-0.2449,133.7031
11:15:45:622,-0.1292,0.364,7.6612,49.7233,0.2028,0.2614,-0.2321,133.5938
11:15:45:643,0.3975,0.352,7.5078,49.5452,0.1833,0.2853,-0.1374,133.8281
11:15:45:663,0.9003,0.5937,7.7091,49.4863,0.1087,0.2737,-0.069,133.8281
11:15:45:682,1.1563,0.833,8.1278,49.7781,0.0299,0.2553,-0.0556,134.9531
11:15:45:699,1.2329,1.0534,8.5229,49.5879,-0.0373,0.2834,-0.0672,135.0625
11:15:45:719,1.1324,1.2281,9.0951,49.3134,-0.1155,0.295,-0.0782,135.3594
11:15:45:740,0.8644,1.3454,10.1127,49.2834,-0.1399,0.182,-0.077,135.3906
11:15:45:766,0.6727,1.628,11.2307,48.9736,-0.0611,0.069,-0.0354,135.4375
11:15:45:783,0.5363,1.8721,12.0063,48.7866,0.0641,0.0959,0.0336,135.5938
11:15:45:800,0.2922,1.7883,12.2507,48.6619,0.1552,0.2523,0.0831,135.5938
11:15:45:820,0.1842,1.142,13.0813,48.3376,0.2474,0.4618,0.077,135.4062
11:15:45:839,-1.4318,0.2489,11.9249,48.1482,0.5595,0.6463,-0.0733,135.4062
11:15:45:861,-2.9327,-0.3233,10.9699,48.1483,0.8191,0.4148,-0.0476,135.7344
11:15:45:917,-2.9423,0.5913,9.4591,47.9812,0.7849,0.2382,0.3164,135.7344
11:15:45:918,-2.126,1.5634,10.1845,47.9699,0.2816,-0.0006,0.7061,136.3125
11:15:45:924,-0.7038,2.1763,12.6506,47.8586,-0.3164,-0.1081,0.879,136.3125
11:15:45:940,0.0933,1.8458,13.5242,48.0337,-0.4545,-0.1161,0.6909,136.3281
11:15:45:960,-0.297,0.6823,14.7667,48.0505,-0.1979,-0.5369,0.2199,136.5469
11:15:45:991,-2.0638,-0.7181,14.3551,48.1164,0.3488,-0.7294,-0.1918,136.6719
11:15:46:006,-3.6583,-1.4246,11.482,48.1473,0.9279,-0.3286,-0.1619,136.6719
11:15:46:019,-3.2321,-0.7923,8.1855,48.3244,1.1545,0.1888,0.2773,136.8125
11:15:46:041,-2.3007,0.644,6.2509,48.3667,0.8143,0.4453,0.6762,136.8125
11:15:46:060,-1.2832,1.4629,7.0675,48.334,0.1234,0.2449,0.7972,136.8125
11:15:46:084,-0.4549,1.4629,9.2459,48.7276,-0.4221,-0.0208,0.6163,136.8125
11:15:46:100,-0.4382,0.929,10.3881,48.8995,-0.5021,-0.047,0.284,136.6562
11:15:46:119,-1.0391,0.431,9.9356,48.9262,-0.2156,0.0263,0.0678,136.6406
11:15:46:143,-0.2656,0.7397,7.2517,48.97,0.4111,0.0483,0.3152,136.8594
11:15:46:167,0.5411,1.3884,6.2318,49.0988,0.4276,0.0513,0.4465,136.8594
11:15:46:183,0.9386,2.0471,5.7841,49.3091,0.2046,0.0971,0.4642,135.9219
11:15:46:200,1.0295,2.5786,6.2127,49.5068,-0.1014,0.08,0.3897,135.8281
11:15:46:220,0.9936,2.7389,6.8423,49.6022,-0.3097,0.036,0.2205,134.2031
11:15:46:240,0.6631,2.5834,7.5078,49.6845,-0.3604,-0.044,-0.0195,134.0469
11:15:46:259,0.309,2.2648,8.2837,49.6587,-0.2963,-0.1723,-0.2278,134.0781
11:15:46:285,0.3449,2.1811,8.8367,49.659,-0.182,-0.2223,-0.3036,134.125
11:15:46:300,0.9099,2.6551,9.1693,49.9192,-0.1081,-0.1417,-0.2755,134.125
11:15:46:320,1.4509,3.2082,9.6482,49.9598,-0.1112,-0.0324,-0.2902,132.5312
11:15:46:340,1.6161,3.591,10.503,49.8714,-0.1295,-0.0037,-0.4056,132.5312
11:15:46:364,1.5012,3.7564,11.1135,49.8492,-0.0892,0.0324,-0.5827,131.4688
11:15:46:379,1.1061,3.5001,11.3192,50.0464,0,0.0538,-0.7868,131.4688
11:15:46:401,1.0128,2.7054,11.4556,49.7425,0.1155,-0.0666,-0.9865,131.2344
11:15:46:420,0.7923,1.5467,11.6019,49.9012,0.2346,-0.2969,-1.1997,131.2344
11:15:46:442,0.1077,0.5315,11.8675,49.9797,0.3457,-0.5229,-1.3397,131.2188
11:15:46:461,-0.8907,0.4382,12.5976,49.9273,0.4429,-0.6377,-1.2406,130.4531
11:15:46:481,-0.1795,1.4151,12.198,49.9124,0.5406,-0.4423,-0.8234,130.4531
11:15:46:502,1.4174,2.904,11.3336,49.9201,0.4545,-0.1271,-0.4807,129.5
11:15:46:522,2.9638,2.8513,11.7574,49.9587,0.0134,-0.0959,-0.6371,129.2188
11:15:46:543,2.5208,0.4621,12.9544,49.881,-0.5027,-0.1796,-1.2773,129.2188
11:15:46:569,-0.0024,-2.1284,14.3456,50.2237,-0.6664,-0.3128,-1.9481,129.75
11:15:46:588,-1.5156,-3.4499,14.2113,50.286,-0.325,-0.3769,-2.1026,129.7969
11:15:46:603,-1.4797,-3.4235,12.3559,50.5215,0.2162,-0.1833,-1.7783,130.3594
11:15:46:620,-0.2177,-2.3677,9.7869,50.9813,0.5638,0.0996,-1.3341,130.4219
11:15:46:644,1.0726,-0.364,7.1178,51.0705,0.0928,0.1356,-1.1924,131.3906
11:15:46:664,0.5411,0.0215,7.745,51.2992,-0.3806,-0.0018,-1.27,131.4844
11:15:46:681,0.6009,0.6296,8.3602,51.4657,-0.6157,-0.0776,-1.1979,133.2656
11:15:46:699,0.9745,1.3956,8.6713,51.8075,-0.5711,-0.135,-1.1191,133.4375
11:15:46:719,1.1228,1.8649,8.9898,52.1006,-0.3714,-0.2401,-1.185,136.0781
11:15:46:739,1.0152,1.7357,9.2363,52.1538,-0.0971,-0.306,-1.3733,136.3281
11:15:46:761,0.364,1.1827,8.9085,52.3062,0.1857,-0.2132,-1.57,138.5469
11:15:46:779,-0.6248,0.5124,8.0465,52.2354,0.4056,-0.0275,-1.6891,139.9375
11:15:46:799,-1.3502,0.1101,7.1249,52.5564,0.4911,0.1356,-1.6549,139.9375
11:15:46:820,-1.3908,0.2608,6.5767,52.6553,0.4142,0.2187,-1.4661,143.5469
11:15:46:839,-0.9769,0.7038,6.6389,52.9759,0.2248,0.2126,-1.2852,143.5469
11:15:46:860,-1.0391,1.0439,7.1824,52.9718,0.0098,0.1808,-1.2174,147.8594
11:15:46:880,-1.3454,1.6711,7.6038,53.0012,-0.1203,0.1509,-1.1533,147.8594
11:15:46:900,-0.9817,2.7628,7.6899,53.024,-0.149,-0.0073,-1.0256,147.8906
11:15:46:919,-0.5746,3.7828,9.2028,53.0853,-0.1466,-0.4917,-0.97,150.625
11:15:46:939,-0.3329,4.0292,11.5612,53.0991,-0.1411,-0.923,-1.1014,150.6562
11:15:46:959,-0.4765,3.3613,12.9784,53.038,-0.1924,-0.8326,-1.3176,153.3125
11:15:46:980,-0.7875,2.1882,13.4333,53.1776,-0.2944,-0.4789,-1.4264,155.7969
11:15:47:001,-1.1228,1.1085,13.8954,53.2023,-0.2541,-0.27,-1.394,155.7969
11:15:47:019,-1.5658,0.2058,13.9241,53.1559,0.0684,-0.2364,-1.3158,158.5938
11:15:47:041,-2.4921,-0.577,12.9664,53.2071,0.5162,-0.1613,-1.193,158.5938
11:15:47:063,-3.1531,-0.7181,11.8101,53.4672,0.7733,-0.0342,-0.8656,162.2344
11:15:47:080,-2.2385,0.6153,12.0135,53.8218,0.6921,0.0305,-0.3152,162.2344
11:15:47:100,-0.4908,2.1069,12.0613,53.8,0.3011,0.303,0.1112,165.4062
11:15:47:120,0.0598,2.1906,13.1818,53.9598,-0.2559,0.5076,0.0489,165.7188
11:15:47:140,-1.6304,0.5435,14.0103,53.9597,-0.4991,0.6072,-0.3879,168.2344
11:15:47:163,-2.9471,-1.7261,10.5078,54.0086,0.4655,0.3305,-0.5107,168.4844
11:15:47:180,-1.5275,-1.0798,8.5875,54.4297,0.8436,-0.0189,-0.2223,170.6562
11:15:47:199,-0.0622,0.0096,7.6277,54.5576,0.7825,-0.3011,-0.0519,170.8594
11:15:47:219,0.1507,0.8548,7.8455,54.6557,0.3421,-0.3354,-0.0635,172.9688
11:15:47:239,-0.6272,1.2233,7.989,54.6465,-0.1607,-0.0941,-0.11,173.1719
11:15:47:260,-1.2903,1.4127,7.8287,54.9019,-0.4313,0.0605,-0.0623,175.9219
11:15:47:279,-1.2473,1.5897,7.7402,55.119,-0.405,-0.0647,0.0599,178.9062
11:15:47:300,-0.6559,2.1643,7.4647,55.3666,-0.1936,-0.2193,0.1704,178.9062
11:15:47:319,0.3616,2.7437,7.0244,55.5465,0.0611,-0.2853,0.1362,181.5312
11:15:47:340,0.62,2.5666,6.5862,55.506,0.2535,-0.2895,-0.1521,181.5312
11:15:47:359,-0.0144,2.1691,6.5001,55.8682,0.3066,-0.3506,-0.518,181.8281
11:15:47:380,-0.7134,1.2927,6.6509,55.8909,0.2291,-0.3958,-0.7471,181.8281
11:15:47:400,-1.1013,0.2512,6.8734,56.183,0.1081,-0.394,-0.8277,181.8281
11:15:47:420,-1.1946,-0.0526,7.9627,56.4819,0.033,-0.4679,-0.7794,182.1094
11:15:47:439,-1.3023,0.2225,8.6833,56.4346,0.0599,-0.3048,-0.6383,182.1094
11:15:47:460,-1.2903,1.0367,8.6306,56.4274,0.1338,0.1888,-0.3989,183.375
11:15:47:480,-1.3071,2.2504,8.4153,56.3881,0.1784,0.7294,-0.1075,183.8125
11:15:47:500,-1.7716,3.1579,8.796,56.4398,0.168,0.9523,0.1582,183.8125
11:15:47:519,-1.6017,3.3206,9.3802,56.3022,0.069,0.7721,0.4245,184.0625
11:15:47:540,-0.2177,3.0595,10.4815,56.7504,-0.1014,0.3494,0.5546,184.0625
11:15:47:560,-0.0598,2.7389,12.4732,56.7916,-0.3219,-0.0959,0.35,184
11:15:47:580,-2.0518,1.9247,14.8648,56.7412,-0.4673,-0.3635,0.0226,184
11:15:47:600,-1.5778,1.6974,15.157,57.0947,-0.3818,-0.1564,0.0678,183.7031
11:15:47:619,1.3525,2.2361,12.9209,57.4561,-0.1552,0.193,0.3225,183.6719
11:15:47:640,3.4379,2.2672,11.4317,58.0041,-0.2773,0.2724,0.1301,184.3906
11:15:47:663,2.9638,0.5961,13.2251,58.4166,-0.7862,-0.0764,-0.4514,184.4688
11:15:47:681,0.443,-2.3533,16.043,58.9646,-0.686,-0.6512,-0.9719,186.0938
11:15:47:700,1.1061,-2.016,14.0581,58.8537,-0.0244,-0.5162,-0.7739,186.25
11:15:47:719,2.4945,-1.2951,10.716,58.9454,0.4251,-0.2346,-0.6316,187.7188
11:15:47:739,3.2608,-0.6727,8.6856,59.2593,0.4441,-0.179,-0.6689,187.8594
11:15:47:760,2.758,-0.1029,8.3554,59.3804,0.2364,-0.204,-0.7746,188.3438
11:15:47:779,1.8577,0.6727,8.1544,59.4434,0.0928,-0.0641,-0.7691,187.75
11:15:47:800,1.2449,1.2568,7.2015,59.4942,0.0709,0.1466,-0.6884,187.75
11:15:47:820,0.7038,1.4151,6.4762,59.4761,0.069,0.1759,-0.6664,186.7344
11:15:47:840,0.1603,1.3119,6.9523,59.3461,0.033,-0.0287,-0.711,186.7344
11:15:47:860,-0.3305,0.929,8.1015,59.5039,0.0195,-0.2071,-0.7703,186.5156
11:15:47:880,-0.7636,0.5076,8.7673,59.5463,0.0696,-0.1521,-0.7794,186.5
11:15:47:901,-1.118,0.1986,8.4057,59.3839,0.124,0.1234,-0.6994,186.5
11:15:47:956,-0.9817,0.2728,7.5126,59.3379,0.1662,0.3635,-0.5455,185.9531
11:15:47:956,-0.4836,0.5698,6.7729,59.1462,0.1613,0.4282,-0.4007,185.9531
11:15:47:973,0.7134,1.0702,6.8949,59.0535,0.0513,0.3421,-0.3616,187.3438
11:15:47:988,0.3616,1.6113,7.7019,59.2458,-0.0935,0.2486,-0.5656,189.2344
11:15:48:000,-0.9123,1.4151,7.7354,59.5145,-0.1484,0.1869,-0.7752,189.2344
11:15:48:019,-1.1587,1.142,8.2908,59.6199,-0.1429,-0.0043,-0.62,190.7188
11:15:48:040,-1.3813,1.6519,9.1884,59.6777,-0.1057,-0.1497,-0.3329,190.7188
11:15:48:064,-0.9482,2.2074,9.9021,59.8456,-0.0629,-0.1527,-0.014,192.4375
11:15:48:080,-0.0263,2.9112,10.5532,59.8816,-0.0489,-0.0458,0.2419,192.4375
11:15:48:101,0.8139,3.5599,11.2283,60.2397,-0.0715,0.1185,0.3091,193.7969
11:15:48:120,1.2233,3.3948,11.755,60.292,-0.099,0.2669,0.1179,193.9375
11:15:48:141,0.7636,2.4682,12.1406,60.1099,-0.0593,0.2908,-0.2138,195.4219
11:15:48:160,-0.5841,1.506,12.8372,60.1102,0.0745,0.1826,-0.4423,195.5781
11:15:48:181,-2.0495,2.1954,12.4636,60.227,0.4508,0.3115,-0.0831,197.0781
11:15:48:203,-0.6248,3.2824,11.4365,60.2388,0.3647,0.4697,0.2071,197.2188
11:15:48:219,1.3932,3.5527,11.8531,60.3646,-0.0739,0.3977,0.0812,198.1719
11:15:48:240,1.3621,1.7166,13.7997,60.5148,-0.5956,0.2028,-0.6225,198.2656
11:15:48:260,-1.4127,-1.2162,15.5258,60.3582,-0.7196,0.0819,-1.4527,199.1875
11:15:48:282,-4.0029,-3.4977,14.9513,60.4259,-0.2211,0.0446,-1.7459,200.6562
11:15:48:308,-4.9415,-4.5416,12.1382,60.5416,0.5803,-0.0092,-1.3696,200.6562
11:15:48:320,-3.9718,-3.8019,9.5477,60.1642,1.116,-0.2272,-0.6273,201.1406
11:15:48:339,-1.7764,-1.8218,8.6234,59.967,1.0843,-0.5137,0.0183,201.1406
11:15:48:360,-0.4454,-0.1125,8.6928,59.8817,0.5852,-0.4991,0.2627,201.1719
11:15:48:384,-0.352,0.6942,8.5445,59.7471,-0.0092,-0.1533,0.2358,200.5625
11:15:48:401,-0.6775,1.0917,8.1473,59.4001,-0.383,0.1179,0.1936,200.5625
11:15:48:421,-0.8812,1.4174,8.0847,59.044,-0.419,0.0635,0.1857,200.6562
11:15:48:442,-0.7493,1.6735,8.0656,58.8716,-0.1906,-0.1833,0.1784,201.5781
11:15:48:459,-0.4525,1.7812,7.7426,58.6098,0.1209,-0.3946,0.1356,201.5781
11:15:48:481,-0.4095,1.6831,7.2494,58.5665,0.3464,-0.4752,0.0452,201.5938
11:15:48:502,-0.4501,1.4294,6.6628,58.4277,0.4245,-0.4154,-0.0458,201.5156
11:15:48:520,-0.6846,1.2449,6.0547,58.1553,0.3598,-0.2785,-0.0947,202.0312
11:15:48:542,-0.8067,1.2712,5.9327,58.0888,0.2016,-0.179,-0.0861,202.0312
11:15:48:560,-0.7971,1.4438,6.2318,58.234,0.0336,-0.1142,-0.0501,205.4375
11:15:48:582,-0.5889,1.7501,6.6078,58.4053,-0.0849,-0.0678,-0.0183,205.4375
11:15:48:603,-0.285,2.2265,6.7872,58.2857,-0.1747,-0.0165,-0.0073,207.5938
11:15:48:621,-0.2273,2.6671,7.2326,58.1073,-0.2889,-0.0098,-0.0556,207.8125
11:15:48:643,-0.5889,2.8083,7.9914,57.9549,-0.4068,-0.0544,-0.1497,207.7188
11:15:48:660,-1.1157,2.9351,8.9611,57.6356,-0.4917,-0.0898,-0.223,207.7031
11:15:48:682,-1.4318,2.9112,9.6649,57.3886,-0.5443,-0.1051,-0.2486,207.2344
11:15:48:705,-1.1803,1.8697,12.5593,57.0922,-0.5992,-0.3977,-0.2676,207.2031
11:15:48:720,-1.0845,1.0032,14.6088,56.9398,-0.5327,-0.5522,-0.2718,206.7812
11:15:48:742,-2.0136,0.0479,16.8712,56.947,-0.3781,-0.5339,-0.1833,206.6094
11:15:48:759,-2.892,-0.6129,16.5431,56.8518,-0.077,-0.1454,0.2034,206.6094
11:15:48:780,-1.142,-0.1101,14.6016,56.5722,0.2022,0.2578,0.9218,206.7969
11:15:48:801,2.4754,1.3789,13.73,56.3206,0.2193,0.3818,1.4325,206.7969
11:15:48:820,4.721,1.7429,13.6678,56.1356,-0.0464,0.4172,1.1191,206.8281
11:15:48:840,3.979,0.4119,14.2041,55.9713,-0.3176,0.3787,0.2443,206.9844
11:15:48:860,1.6137,-1.5969,13.9528,55.5967,-0.1912,0.317,-0.5553,207
11:15:48:883,0.1101,-2.8992,12.2195,55.09,0.3378,0.2132,-0.8289,207.0156
11:15:48:900,0.0933,-2.9088,10.218,54.3504,0.9303,0.0147,-0.6774,207.0156
11:15:48:921,0.8067,-2.0136,8.3052,53.6977,1.2748,-0.1668,-0.4667,207.2031
11:15:48:939,1.3765,-1.0319,6.9811,53.3736,1.2388,-0.2413,-0.4142,207.2031
11:15:48:960,1.1204,-0.285,5.9734,52.9516,0.8399,-0.1411,-0.5113,207.6562
11:15:48:983,0.1244,0.4047,5.5663,52.5287,0.2059,0.0941,-0.5424,208.1719
11:15:49:002,-0.0359,1.2616,5.6357,52.1066,-0.3757,0.2566,-0.3818,208.1719
11:15:49:021,0.4932,2.2098,6.7202,51.6851,-0.73,0.1741,-0.2511,208.625
11:15:49:042,0.8501,2.5379,8.3004,51.2005,-0.7972,-0.0177,-0.3494,208.625
11:15:49:060,0.4669,2.0734,9.3108,51.0194,-0.6133,-0.1014,-0.6206,207.4062
11:15:49:082,-0.4454,1.3454,9.2243,50.7648,-0.284,-0.0611,-0.8692,207.4062
11:15:49:102,-1.0104,0.6727,8.1664,50.4346,0.0428,0.0238,-0.9438,204.625
11:15:49:121,-1.2401,0.4549,6.9571,50.1001,0.2248,0.0696,-0.8534,204.625
11:15:49:142,-1.0917,0.5913,6.3036,49.8705,0.1924,0.0825,-0.6762,204.8906
11:15:49:160,-0.9482,0.8115,6.1289,49.7689,-0.0067,0.1124,-0.518,204.9219
11:15:49:181,-1.252,1.0128,6.792,49.4824,-0.2669,0.0538,-0.4209,206.4844
11:15:49:205,-2.15,1.1707,11.3456,49.4171,-0.2749,-0.6457,-0.2462,206.6406
11:15:49:221,-1.6376,1.7357,12.344,49.168,0.1026,-0.7306,-0.0018,207.6719
11:15:49:242,-0.6894,2.6719,12.4947,48.8383,0.3604,-0.4789,0.2333,207.7656
11:15:49:270,0.0502,2.9925,12.3129,48.4993,0.3115,-0.0513,0.2975,208.875
11:15:49:282,-0.0646,2.2552,12.4158,48.1906,0.1405,0.2608,0.1753,209.5625
11:15:49:300,-1.0917,1.1707,12.5091,47.8678,0.1246,0.3573,0.014,209.5625
11:15:49:320,-1.8817,0.6799,12.1741,47.286,0.2987,0.3286,0.0189,209.6094
11:15:49:339,-1.2544,0.778,10.8882,46.9895,0.4447,0.3011,0.212,210.5156
11:15:49:361,-0.3808,1.3047,10.7399,46.4144,0.2779,0.193,0.3763,210.5938
11:15:49:384,0.2608,1.5084,12.4182,46.0464,-0.1845,0.0434,0.408,212.3906
11:15:49:400,0.7205,0.9386,14.4556,45.5849,-0.6023,0.0342,0.3433,212.5625
11:15:49:420,0.2608,-0.1723,15.6168,45.315,-0.6774,0.1619,0.1863,214.2812
11:15:49:441,-1.0917,-1.3214,14.7835,44.9506,-0.2877,0.3323,0.0018,214.2969
11:15:49:460,-2.1069,-2.0566,11.7718,44.4182,0.3482,0.5033,-0.0232,215.3125
11:15:49:483,-2.2241,-2.1236,8.7051,44.0665,0.7801,0.4526,0.135,215.9375
11:15:49:501,-1.6926,-1.6424,6.8351,43.6972,0.7666,0.2059,0.3115,215.9375
11:15:49:521,-1.0702,-0.9051,6.7226,43.4929,0.3457,-0.044,0.3995,215.7031
11:15:49:542,-1.0032,-0.0479,7.6181,43.1093,-0.2285,-0.0739,0.4135,215.7031
11:15:49:559,-0.7301,0.6751,8.0943,42.8051,-0.6341,0.0702,0.4184,215.2031
11:15:49:582,-0.565,1.142,8.2119,42.5487,-0.7587,0.1619,0.3653,215.2031
11:15:49:601,-0.309,1.2784,8.1401,42.2407,-0.6548,0.0837,0.2663,215.1875
11:15:49:620,-0.1747,1.1085,8.2693,41.9598,-0.4594,-0.1222,0.1368,215.1875
11:15:49:641,-0.0742,0.7564,8.4679,41.7477,-0.2645,-0.3115,0.022,214.625
11:15:49:659,0.1795,0.699,8.4248,41.2302,-0.1075,-0.3653,-0.0202,214.5625
11:15:49:683,0.3592,0.8979,8.1401,40.889,-0.0134,-0.2895,-0.036,213.7812
11:15:49:701,0.2106,1.0271,7.7785,40.7107,0.0367,-0.182,-0.088,213.7031
11:15:49:722,0.0191,1.2281,7.3881,40.5143,0.0751,-0.102,-0.1729,213.4531
11:15:49:742,-0.0431,1.4533,7.113,40.0524,0.0513,-0.1448,-0.2089,213.4375
11:15:49:759,-0.3425,2.0973,7.1632,39.8228,-0.0318,-0.1942,-0.2181,213.375
11:15:49:782,-0.376,2.4251,7.8503,39.4921,-0.1759,-0.2523,-0.2205,213.375
11:15:49:800,-0.364,2.7604,9.1837,39.3788,-0.3274,-0.2895,-0.234,212.7344
11:15:49:820,-0.3999,2.916,10.3735,39.4759,-0.4319,-0.2346,-0.2853,212.6719
11:15:49:840,-0.7301,2.2122,11.6402,39.1815,-0.4661,-0.2114,-0.4416,211.7812
11:15:49:859,-1.118,0.9194,12.8109,38.6472,-0.4093,-0.2285,-0.6078,211.7031
11:15:49:882,-1.5323,-0.1819,13.4859,38.4634,-0.2504,-0.2297,-0.6359,210.9688
11:15:49:900,-2.2696,-0.5315,13.6654,38.4163,-0.025,-0.2266,-0.482,210.8906
11:15:49:919,-2.4802,0.2994,13.273,38.1264,0.1826,-0.1863,-0.1411,210.6562
11:15:49:940,-0.7612,1.4342,12.131,38.0677,0.2621,-0.0757,0.2327,210.6562
11:15:50:023,0.8955,1.9825,11.6258,37.6115,0.1277,-0.0696,0.2895,210.7031
11:15:50:023,1.9128,1.4414,12.3751,37.3273,-0.1723,-0.1637,0.0214,210.9531
11:15:50:023,1.7716,-0.2441,14.1132,37.29,-0.4343,-0.2468,-0.347,210.9531
11:15:50:024,0.7421,-1.5586,15.3509,37.1895,-0.4123,-0.1588,-0.5864,211.375
11:15:50:040,0.268,-2.26,14.9201,37.0959,-0.0397,0.0324,-0.6237,211.375
11:15:50:060,0.565,-2.4108,13.0669,36.6078,0.485,0.1784,-0.5754,211.8594
11:15:50:083,0.984,-2.2337,11.2044,36.3669,0.8308,0.2132,-0.5803,211.8594
11:15:50:102,1.2401,-1.951,9.5501,36.0164,0.9053,0.2773,-0.6212,212.375
11:15:50:119,0.9697,-1.6184,8.0919,35.5144,0.7697,0.3958,-0.6347,212.375
11:15:50:143,0.4334,-0.9912,7.1656,35.0173,0.5217,0.4606,-0.5412,213.375
11:15:50:159,0.309,-0.0311,6.6509,34.4685,0.2456,0.4551,-0.3329,213.4688
11:15:50:183,0.6464,1.0032,6.8112,34.1207,0.0061,0.3311,-0.1411,214.5781
11:15:50:203,0.6296,1.9295,8.9133,33.7815,-0.1484,-0.0037,-0.2523,214.6719
11:15:50:221,-0.1579,1.5275,9.4113,33.358,-0.0128,0.0263,-0.4691,214.6094
11:15:50:244,-0.7325,0.9936,9.1454,33.0645,0.2474,0.0965,-0.598,214.6094
11:15:50:260,-0.7636,0.7373,8.1664,32.6485,0.5113,0.2303,-0.6005,214.2812
11:15:50:282,-1.1085,0.7421,7.3427,32.3968,0.6066,0.4221,-0.5736,214.25
11:15:50:301,-1.2568,0.7134,6.4424,32.3089,0.5052,0.6121,-0.5082,215.1406
11:15:50:320,-1.0104,0.9075,5.9183,31.9661,0.3329,0.6127,-0.4038,215.2344
11:15:50:339,-0.984,1.2784,5.8678,31.8247,0.1576,0.4697,-0.3201,216.4531
11:15:50:360,-1.2473,1.3932,6.6891,31.5284,-0.0043,0.234,-0.2309,216.5781
11:15:50:383,-1.1157,1.9777,7.6684,31.487,-0.1216,0.0641,-0.0861,217.8438
11:15:50:400,-1.1204,2.4993,8.3052,31.3703,-0.1784,0.0513,-0.0073,217.9688
11:15:50:420,-1.2114,2.8202,9.1932,31.4577,-0.2089,0.0617,0.0073,219.3125
11:15:50:440,-1.1659,2.9806,10.3759,31.4364,-0.2059,0.0501,-0.0165,219.3281
11:15:50:460,-0.9458,2.782,11.0895,31.1582,-0.1588,0.0672,-0.0977,219.8594
11:15:50:483,-0.778,2.2744,11.712,31.1097,-0.099,-0.0037,-0.2517,220.2344
11:15:50:501,-1.118,1.7285,12.9497,31.0576,-0.0147,-0.1655,-0.4374,220.2344
11:15:50:520,-2.0806,1.4462,13.6606,30.8534,0.1851,-0.2498,-0.5039,221.4219
11:15:50:542,-2.624,1.628,13.0765,30.7439,0.452,-0.1918,-0.3195,221.4219
11:15:50:559,-2.1165,2.6934,12.4517,30.6361,0.5143,-0.1014,0.0452,222.7656
11:15:50:584,-0.2874,3.6775,13.273,30.2856,0.2627,-0.0568,0.2853,222.7656
11:15:50:601,0.8979,2.7843,14.458,30.1962,-0.1234,-0.022,0.1271,223.8281
11:15:50:621,0.5291,0.9625,16.5625,30.0418,-0.3598,-0.1723,-0.2529,223.8281
11:15:50:643,-0.0024,-0.7062,17.8026,29.8869,-0.0757,-0.4074,-0.5363,224.4375
11:15:50:660,-0.2704,-1.6567,16.5553,29.4962,0.7397,-0.4478,-0.6365,224.4375
11:15:50:682,-0.4501,-1.7524,12.7917,29.1638,1.6353,-0.1796,-0.5882,224.5
11:15:50:701,-0.4406,-1.2353,8.6976,29.0406,2.0708,0.1319,-0.4838,224.5156
11:15:50:719,-0.4956,-0.51,6.3873,28.6128,1.8424,0.4099,-0.4673,224.4844
11:15:50:744,0.2249,0.0502,5.0611,28.4303,1.2504,0.5375,-0.4349,224.4844
11:15:50:760,-1.1372,1.0774,4.9678,28.1622,-0.0043,0.6664,-0.5015,224.8125
11:15:50:783,-1.0869,1.2233,4.4626,27.8119,-0.3506,0.6628,-0.4294,224.8438
11:15:50:800,-1.3765,1.8697,3.8258,27.5502,-0.5461,0.463,-0.3744,225.7969
11:15:50:819,-2.3342,1.9391,5.0157,27.2595,-0.7196,-0.1301,-0.3744,225.8906
11:15:50:839,-2.461,1.4581,7.29,27.1469,-0.7477,-0.7581,-0.3213,226.25
11:15:50:859,-1.5419,1.2305,8.6665,26.7822,-0.5522,-0.9315,-0.1765,226.2812
11:15:50:883,-0.6966,1.0678,9.7152,26.5767,-0.3024,-0.6713,-0.0751,225.8906
11:15:50:900,-0.7469,1.0917,9.5237,26.4753,-0.2303,0.0874,-0.0147,225.8438
11:15:50:920,-1.0845,1.4462,8.8271,26.3638,-0.2828,0.7691,0.0629,226.6875
11:15:50:941,-2.5427,1.3669,8.4153,26.3378,-0.3268,1.0623,0.1234,226.6875
11:15:50:959,-3.6918,1.5108,8.808,26.0695,-0.2767,0.9523,0.306,228.2031
11:15:50:986,-3.1747,2.4658,9.0951,25.8596,-0.1283,0.7373,0.6237,229.4844
11:15:51:001,-1.8912,3.9574,8.5588,25.5959,-0.0428,0.7049,0.8088,229.4844
11:15:51:020,-1.5179,4.7545,8.8846,25.2379,-0.1509,0.7703,0.6866,230.5156
11:15:51:041,-2.6312,4.3262,9.8518,25.1692,-0.2669,0.7623,0.3622,230.5156
11:15:51:059,-3.8139,2.9471,11.0776,25.0357,-0.2065,0.5473,0.0959,231.3906
11:15:51:084,-3.7205,2.0399,12.2554,24.6617,0.0079,0.2663,0.0733,231.3906
11:15:51:102,-3.0428,1.8529,12.5976,24.2824,0.234,0.1949,0.171,232.0625
11:15:51:120,-3.1555,1.8123,12.2363,24.1757,0.3934,0.2792,0.2449,232.0625
11:15:51:141,-3.3087,2.4156,10.6585,24.207,0.5492,0.3256,0.3793,232.5938
11:15:51:159,-2.5594,3.1196,7.678,24.193,0.6249,0.1625,0.5149,232.5938
11:15:51:185,-2.0399,3.1244,6.4448,24.0764,0.2706,-0.2511,0.4594,232.6875
11:15:51:200,-1.3358,2.3844,8.5062,23.6643,-0.6615,-0.4423,0.3189,232.6875
11:15:51:220,-0.1196,1.5179,14.8866,23.3831,-1.6543,-0.3378,0.204,232.375
11:15:51:243,-0.2034,0.4573,18.65,23.0519,-1.7526,-0.0324,0.025,232.3438
11:15:51:261,-0.4549,0.0191,17.4027,22.905,-0.923,0.1796,-0.0611,231.2969
11:15:51:283,-0.2201,0.285,13.2562,22.668,0.2511,0.0764,-0.1252,231.2031
11:15:51:301,-0.0335,0.0622,9.0257,22.3098,1.0158,-0.2303,-0.3231,229.6094
11:15:51:319,-0.4741,0.4645,6.4208,21.9771,0.4728,-0.2193,-0.6176,229.4531
11:15:51:339,-0.6775,1.1013,6.8016,21.9063,-0.0556,-0.0464,-0.6548,228.875
11:15:51:359,-0.9242,1.7285,7.8407,21.5169,-0.3671,0.0018,-0.6732,228.8125
11:15:51:384,-1.5706,1.8194,8.8032,21.226,-0.3763,-0.0434,-0.7336,228.5781
11:15:51:400,-2.1165,1.5802,9.076,21.1831,-0.1209,-0.1698,-0.7617,228.5625
11:15:51:421,-2.3222,1.3047,8.9563,21.1219,0.1735,-0.248,-0.73,228.0312
11:15:51:440,-2.3725,1.1994,8.31,20.926,0.3433,-0.135,-0.6744,227.9844
11:15:51:459,-2.4275,1.1707,7.879,20.7541,0.3769,0.058,-0.6261,227.0625
11:15:51:486,-2.7963,1.0917,7.7665,20.5684,0.3659,0.2614,-0.5858,226.1875
11:15:51:502,-3.0236,1.0702,7.2589,20.2077,0.3842,0.4911,-0.4746,226.1875
11:15:51:520,-2.9255,1.2688,6.1146,20.4193,0.427,0.595,-0.3109,225.8281
11:15:51:541,-2.9542,1.4342,5.5567,20.363,0.3635,0.4685,-0.1888,225.8125
11:15:51:560,-2.7245,1.7357,6.9212,20.2178,0.1142,0.2767,-0.0654,226.5
11:15:51:586,-2.2887,2.4491,8.93,19.7813,-0.1393,0.3091,0.0641,226.5
11:15:51:601,-2.6743,2.8011,9.7798,19.6524,-0.1936,0.474,0.0971,227.9688
11:15:51:620,-3.5145,2.8825,9.7391,19.4522,-0.0324,0.4624,0.1197,227.9688
11:15:51:642,-3.5049,3.2943,9.2148,19.1698,0.0782,0.3971,0.1979,229.375
11:15:51:660,-3.0643,3.3781,9.4783,19.0427,-0.022,0.347,0.2046,229.375
11:15:51:682,-2.904,2.9016,11.1398,18.5384,-0.2162,0.2761,0.1203,230.8125
11:15:51:701,-3.5743,2.1308,13.1363,18.2342,-0.2559,0.2462,0.0434,230.9531
11:15:51:720,-3.7421,2.2768,12.6912,17.982,-0.0312,0.3421,0.1399,232.4375
11:15:51:741,-3.134,3.0763,10.4982,17.8361,0.2248,0.3549,0.2785,232.5781
11:15:51:761,-2.7772,2.7652,10.9098,17.5363,-0.1326,0.0593,0.0415,233.875
11:15:51:787,-3.7923,0.8524,13.7061,17.4546,-0.3977,-0.0006,-0.1857,234.0156
11:15:51:800,-4.5392,-0.4813,14.8265,17.4824,-0.2724,0.0611,-0.2071,234.875
11:15:51:819,-4.4507,-1.0152,12.842,17.1344,0.1857,0.1387,-0.0672,234.9531
11:15:51:839,-3.7325,-1.0152,9.5644,16.9764,0.5113,0.1692,0.0867,235.2656
11:15:51:859,-2.7963,-0.5148,7.5365,16.7038,0.4068,0.1613,0.1582,235.2969
11:15:51:885,-2.3868,-0.1388,7.1512,16.4509,0.0794,0.0764,0.1045,235.0469
11:15:51:901,-2.3749,0.1292,7.491,16.2923,-0.2511,0.011,0.0159,235.0312
11:15:51:920,-2.4802,0.6033,8.3172,16.0106,-0.4911,0.0214,-0.0244,234.6875
11:15:51:940,-2.8801,0.8091,8.7338,15.7508,-0.5333,0.036,-0.036,234.6562
11:15:51:960,-3.1196,0.917,8.432,15.3533,-0.4025,-0.0116,0.0171,234.2188
11:15:51:985,-2.9279,1.2879,8.0584,15.2814,-0.2816,-0.0843,0.124,233.9375
11:15:52:004,-2.6312,1.5754,8.013,15.2915,-0.2278,-0.1155,0.2028,233.9375
11:15:52:020,-2.2935,1.7309,7.7976,15.1395,-0.1955,-0.0745,0.2437,233.4219
11:15:52:096,-1.8673,1.8625,7.5846,14.9144,-0.16,-0.0464,0.2358,233.4219
11:15:52:096,-1.8529,1.695,7.599,14.9352,-0.1338,-0.0611,0.1497,233.4688
11:15:52:097,-2.083,1.4868,7.448,14.8804,-0.1191,-0.0544,0.0397,233.4688
11:15:52:101,-2.4371,1.2353,7.7545,14.5636,-0.135,-0.0354,-0.0458,233.7344
11:15:52:120,-2.636,1.3693,7.8957,14.5017,-0.1613,0.055,-0.0702,233.7344
11:15:52:140,-2.8561,1.9439,8.0273,14.2808,-0.1429,0.1417,-0.0574,233.6406
11:15:52:159,-3.0715,2.4921,7.4456,14.1826,-0.066,0.2175,-0.0605,233.6406
11:15:52:179,-3.4187,2.7437,6.9715,14.1196,-0.0727,0.2407,-0.0935,233.4844
11:15:52:201,-3.7708,3.026,7.1943,14.0456,-0.1973,0.1716,-0.1075,233.4688
11:15:52:219,-3.9479,2.9925,8.3674,13.9382,-0.3518,0.0086,-0.1368,233.3438
11:15:52:240,-4.1536,2.2959,9.9428,13.7064,-0.4832,-0.1075,-0.1967,233.3281
11:15:52:259,-4.5488,1.3932,12.0135,13.8208,-0.5357,-0.1472,-0.212,233.0625
11:15:52:280,-4.6373,1.3502,13.1602,13.5653,0.0819,-0.1545,0.0727,233.0312
11:15:52:301,-3.6006,2.2624,10.7662,13.3463,0.3696,0.0018,0.2236,232.5156
11:15:52:319,-2.782,2.7772,8.9683,12.9949,0.2205,0.1069,0.149,232.4688
11:15:52:339,-2.2026,2.3462,9.6434,12.7235,-0.2602,-0.0501,-0.1191,232.0312
11:15:52:359,-3.0093,0.0191,13.2538,12.6347,-0.7477,-0.3152,-0.4862,231.9844
11:15:52:379,-5.3219,-2.648,16.512,12.2731,-0.9053,-0.2272,-0.6396,231.9375
11:15:52:399,-5.5376,-3.5025,16.2488,12.2739,-0.5162,0.2364,-0.2975,231.9375
11:15:52:419,-3.5958,-2.3198,13.0358,11.8706,0.1582,0.5693,0.1894,232
11:15:52:439,-2.1069,-1.5203,10.3711,11.6829,0.5773,0.5919,0.295,232.0156
11:15:52:459,-1.9801,-1.2808,8.8654,11.631,0.6286,0.5834,0.1155,232.1406
11:15:52:479,-2.7197,-1.0989,7.0723,11.3511,0.4074,0.7978,-0.0599,232.2969
11:15:52:500,-3.4187,-0.5937,5.7386,11.2418,0.1649,0.7318,-0.0861,232.2969
11:15:52:519,-2.9255,0.2154,6.0308,11.0047,0.0006,0.3262,0.0202,232.5312
11:15:52:540,-2.3103,0.9888,5.8869,10.9798,-0.1381,0.0965,0.0745,232.5312
11:15:52:559,-2.5881,1.1396,6.6006,10.4338,-0.3195,-0.0507,-0.0049,232.5469
11:15:52:579,-3.7851,0.9505,7.9244,10.4955,-0.4807,-0.1643,-0.1185,232.5469
11:15:52:600,-4.9199,0.0502,9.0688,10.2907,-0.3329,-0.5351,-0.1295,232.25
11:15:52:619,-4.8912,-0.2154,9.4184,10.0419,0.0855,-1.0244,0.0922,232.25
11:15:52:641,-3.6583,0.0837,8.9157,10.0635,0.3048,-0.9719,0.3616,232.7188
11:15:52:660,-2.7221,0.6703,7.2541,10.0008,0.3042,-0.5913,0.4997,232.7188
11:15:52:681,-2.3725,1.2927,6.4666,9.8693,0.1759,-0.4606,0.5052,233.4688
11:15:52:700,-2.7126,1.4629,6.6509,9.7931,0.0617,-0.5962,0.452,233.4688
11:15:52:719,-2.8944,1.3214,6.8614,9.8271,0.0061,-0.7703,0.4734,233.1406
11:15:52:741,-2.3103,1.4629,7.302,9.6077,0.0342,-1.069,0.5999,233.1094
11:15:52:759,-1.6759,2.1117,8.0919,9.4475,0.1258,-1.413,0.6945,233.2656
11:15:52:782,-1.3167,2.7413,9.2195,9.3632,0.1106,-1.6054,0.7214,233.2812
11:15:52:802,-1.2042,3.1316,10.1103,9.133,-0.6389,-0.6267,0.562,233.3906
11:15:52:819,-1.9008,1.9271,10.649,9.014,-1.0244,-0.2498,0.4807,233.4062
11:15:52:840,-2.2481,0.3233,12.5521,8.779,-1.2144,-0.4203,0.4166,233.2344
11:15:52:859,-3.8545,-1.9295,16.0669,8.4084,-1.1179,-0.6793,0.3983,233.2188
11:15:52:880,-4.5511,-2.9112,16.4904,8.4596,-0.6707,-0.1368,0.7746,233.2969
11:15:52:902,-4.2377,-1.8697,13.2873,8.4314,0.1173,0.4795,1.5174,233.2969
11:15:52:920,-1.8338,0.6511,11.7455,8.3117,0.6872,0.1216,2.0208,232.8906
11:15:52:939,1.2425,2.4658,10.8332,8.3942,0.7636,-0.2682,1.8821,232.8594
11:15:52:959,1.8123,2.3103,10.2467,8.4505,0.4313,-0.3879,1.1093,231.9375
11:15:52:982,-0.4047,0.3497,10.9627,8.2834,0.0287,-0.4728,0.223,230.8281
11:15:53:000,-2.9853,-1.817,11.8938,8.1397,-0.0177,-0.5259,-0.1973,230.8281
11:15:53:020,-4.1177,-3.4618,11.5158,8.3538,0.3231,-0.4624,0.0098,229.4531
11:15:53:041,-3.3159,-3.5504,9.9404,8.046,0.6927,-0.3531,0.6341,229.4375
11:15:53:061,-1.2353,-1.9128,8.377,7.925,0.7568,-0.2517,1.2565,227.9219
11:15:53:080,0.0359,-0.1244,7.5532,8.0017,0.43,-0.069,1.4838,227.9219
11:15:53:101,0.0383,0.941,7.1943,7.7723,-0.11,0.1729,1.3543,226.5781
11:15:53:121,-0.5674,1.1994,7.5365,7.5073,-0.5797,0.2926,1.1423,226.5781
11:15:53:143,-1.2927,1.051,8.2382,7.4312,-0.7403,0.2291,1.0103,225.4062
11:15:53:159,-1.7142,0.8019,8.7458,7.3281,-0.5534,0.0428,1.0012,225.4062
11:15:53:181,-1.64,0.5746,8.9587,7.1244,-0.1784,-0.1472,1.0971,222.8438
11:15:53:202,-1.0558,0.5052,8.6139,7.3084,0.1759,-0.2144,1.2321,222.8438
11:15:53:219,-0.2608,0.8524,7.7976,7.2789,0.3696,-0.1686,1.3219,219.0938
11:15:53:242,0.3568,1.3789,7.2661,7.2495,0.3628,-0.1051,1.2871,218.7188
11:15:53:260,0.1795,1.7166,7.0412,7.2763,0.2016,-0.0122,1.1044,217.3906
11:15:53:281,-0.2273,1.6448,7.1919,7.3594,-0.0159,0.0544,0.8906,217.2656
11:15:53:304,-0.5794,1.5299,7.6971,7.4021,-0.149,0.0367,0.766,217.4688
11:15:53:320,-0.1531,2.2648,9.0066,7.5287,-0.1649,0.0092,0.857,217.4844
11:15:53:341,-0.1795,2.9734,9.428,7.4179,-0.1539,0.0751,0.9273,215.7344
11:15:53:360,-0.0215,3.778,9.9476,7.4654,-0.1313,0.0965,0.9541,215.5625
11:15:53:380,0.577,4.2377,10.448,7.7033,-0.1136,0.0495,0.8332,212.75
11:15:53:401,0.9362,3.8306,11.9513,7.905,-0.1234,-0.0825,0.4832,212.4688
11:15:53:420,0.3664,2.3677,14.8409,7.7516,-0.0812,-0.1313,0.036,210.1875
11:15:53:440,-1.4725,0.3808,15.7316,7.9704,0.2932,-0.0134,-0.2034,209.9688
11:15:53:460,-2.636,0.1292,14.5418,8.1762,0.9315,0.146,0.0586,207.8125
11:15:53:481,-0.2225,2.1811,11.4724,8.3668,1.3298,0.5162,0.7055,204.8281
11:15:53:500,1.561,3.6679,10.1557,8.5214,1.1331,1.003,0.9511,204.8281
11:15:53:520,0.1771,2.8561,10.9843,8.3699,0.6634,1.3005,0.5266,202.25
11:15:53:541,-3.2201,-0.0622,12.8252,8.1724,0.4697,1.3054,0.0525,202.25
11:15:53:560,-1.6376,-0.6272,12.909,8.0242,0.6799,1.1496,0.2266,200.4062
11:15:53:579,0.3185,1.0534,11.7574,8.4101,0.9957,0.8008,0.4337,200.4062
11:15:53:603,0.5913,1.3884,10.8332,8.2779,1.0201,0.711,0.2321,198.5781
11:15:53:621,-0.8139,0.4478,9.5309,8.3994,0.6487,1.2779,-0.0849,198.5781
11:15:53:644,-1.7381,-0.0885,7.7043,8.6114,0.099,2.1344,-0.1472,196.4844
11:15:53:660,-2.1045,0.1507,6.8973,8.6484,-0.3476,2.4117,-0.0421,196.4844
11:15:53:680,-1.4462,1.0845,7.1728,8.9576,-0.5534,2.102,0.0757,195
11:15:53:701,-1.8793,1.8027,7.3044,9.0352,-0.5754,1.6396,0.0764,195
11:15:53:720,-2.983,2.5017,6.9356,9.3237,-0.2871,0.7403,0.0837,195.1719
11:15:53:740,-3.8163,1.2832,8.5253,9.2004,0.0079,-0.2083,0.1442,195.1875
11:15:53:759,-4.3525,1.7644,9.0209,9.3755,-0.2211,0.1045,0.3488,194.5625
11:15:53:779,-4.6134,2.016,8.1903,9.1421,-0.3897,0.4838,0.4985,194.5
11:15:53:803,-4.7474,1.6783,7.1536,9.1864,-0.416,0.3549,0.6029,193.0312
11:15:53:841,-4.41,1.0989,7.113,9.4394,-0.4478,-0.0751,0.7385,192.875
11:15:53:847,-1.7716,2.6551,9.1238,9.5884,-0.5546,-0.4514,0.9089,192.5156
11:15:53:861,-1.8745,2.3222,9.7582,9.8282,-0.4471,-0.2969,0.7239,192.4844
11:15:53:880,-2.0327,2.071,9.6075,9.9265,-0.2248,-0.08,0.6591,191.9062
11:15:53:905,-1.9223,2.2361,8.8343,10.0587,0.0409,0.0202,0.7171,191.8594
11:15:53:919,-1.439,2.7987,7.7234,10.1766,0.1967,0.0098,0.7782,191.8125
11:15:53:940,-1.3095,3.3613,8.0824,10.4361,0.1185,-0.0531,0.7416,191.8125
11:15:53:960,-1.3741,3.457,9.1214,10.4304,-0.0086,-0.0397,0.6481,191.1094
11:15:53:982,-1.7166,3.4546,9.6697,10.415,-0.0446,0.1234,0.5937,190.375
11:15:54:004,-1.8458,3.6197,10.0074,10.5044,0.0476,0.1539,0.5907,190.375
11:15:54:020,-1.7979,3.821,10.1797,10.5402,0.2431,0.0257,0.5644,189.7969
11:15:54:039,-2.3055,3.5336,10.3543,10.5426,0.3592,-0.0244,0.449,189.7969
11:15:54:060,-3.7277,2.916,10.7806,10.892,0.3543,0.0531,0.3543,188.2812
11:15:54:079,-4.4411,2.6575,10.1749,10.9273,0.3696,0.2089,0.4587,188.2812
11:15:54:104,-4.4459,2.9877,9.2773,11.2819,0.3268,0.2779,0.689,186.2344
11:15:54:160,-4.2233,3.6365,9.4878,11.4781,0.1466,0.1582,0.8558,186.2344
11:15:54:161,-3.5216,3.8761,10.0672,11.8353,-0.0385,-0.0232,0.8992,184.2812
11:15:54:161,-3.0308,3.4307,11.5612,11.8092,-0.1533,-0.2773,0.7862,184.2812
11:15:54:180,-3.5839,2.5065,12.7032,11.9184,-0.1087,-0.4019,0.5779,182.7188
11:15:54:204,-4.4028,1.7022,11.8244,12.1366,0.069,-0.1478,0.4813,182.7188
11:15:54:220,-4.5272,1.4581,9.6147,11.8856,0.1332,0.4013,0.5779,181.125
11:15:54:241,-4.2015,1.9992,7.2948,12.064,0.0898,0.7171,0.7568,181.125
11:15:54:260,-3.8282,2.2337,6.4519,11.9702,0.0092,0.4526,0.8338,179.8594
11:15:54:279,-3.9,1.829,7.3499,12.1242,-0.0739,-0.1332,0.7825,179.7344
11:15:54:303,-3.9,1.5993,8.5947,12.0256,-0.1295,-0.4862,0.7532,178.6094
11:15:54:323,-3.4427,1.6615,8.9204,12.0152,-0.2902,0.3323,0.8375,178.5
11:15:54:342,-3.1842,1.8936,7.4886,12.12,-0.4197,0.7684,0.9248,177.8281
11:15:54:359,-3.1962,2.1835,4.3549,12.233,-0.5834,0.6359,1.0158,177.7656
11:15:54:379,-2.9638,1.9896,3.5001,12.2427,-0.8027,0.0098,1.0977,176.7031
11:15:54:404,-2.461,1.8314,4.7689,12.2081,-1.2376,-0.7776,1.1734,176.5938
11:15:54:421,-2.126,1.3621,8.2454,12.249,-1.7404,-0.97,1.2382,174.8438
11:15:54:439,-1.4821,1.3382,9.3849,12.3715,-2.0886,-0.314,1.3298,174.6719
11:15:54:460,-1.2018,1.4868,10.1916,12.3657,-2.1246,0.1643,1.3806,173.3438
11:15:54:480,-1.0199,1.5347,9.7271,12.5869,-1.8363,0.3922,1.3965,172.1562
11:15:54:503,-0.9147,1.8314,9.4065,12.9371,-1.3739,0.2529,1.4692,172.1562
11:15:54:521,-0.0933,2.4802,9.2773,13.0782,-0.9712,-0.0464,1.5309,170.1094
11:15:54:540,0.4789,2.6934,9.5309,13.3275,-0.6261,-0.3757,1.4032,170.1094
11:15:54:559,0.268,2.8178,9.8423,13.7255,-0.4111,-0.5418,1.1802,168.4844
11:15:54:579,0.0215,2.7221,9.9715,14.0724,-0.405,-0.4893,1.0329,168.4844
11:15:54:604,0.1795,2.7628,10.0816,14.3042,-0.5443,-0.3482,0.9987,166.6094
11:15:54:621,0.8354,2.7604,11.3623,14.7399,-0.7312,-0.3799,0.9657,166.6094
11:15:54:641,0.9003,2.4562,12.976,14.8653,-0.7862,-0.5266,0.7611,166.5938
11:15:54:660,0.4286,2.1093,14.1108,14.9312,-0.5724,-0.6371,0.5003,164
11:15:54:680,-0.1962,1.9753,13.2658,15.0867,-0.182,-0.5241,0.3592,161.2344
11:15:54:702,0.1149,2.193,11.1087,15.581,0.0336,-0.3213,0.4019,161.2344
11:15:54:720,0.9769,2.4395,10.4025,15.6073,-0.1277,-0.2718,0.4355,157.9375
11:15:54:742,1.5012,2.2863,12.0063,15.9798,-0.4508,-0.438,0.2181,157.9375
11:15:54:760,1.4174,0.917,14.3121,15.9932,-0.6652,-0.6451,-0.2309,154.4844
11:15:54:782,0.1484,-0.6918,15.382,16.0428,-0.6927,-0.7208,-0.7416,154.1562
11:15:54:802,-1.4892,-1.8577,15.6574,16.5503,-0.4697,-0.678,-1.0812,150.7656
11:15:54:820,-2.6121,-2.7054,14.173,16.9509,0.0244,-0.4642,-1.1203,150.4375
11:15:54:843,-1.7429,-2.5905,9.0544,17.0587,0.6597,0.0171,-0.4923,147.7656
11:15:54:860,-1.1779,-1.951,7.9579,17.1368,0.5021,0.0819,-0.259,147.5
11:15:54:880,-1.2544,-1.4892,7.6971,17.4961,0.2321,0.1319,-0.1729,145.4062
11:15:54:903,-1.1946,-1.1085,7.1106,17.3009,-0.0348,0.3415,-0.0238,145.2031
11:15:54:920,-1.1037,-0.4358,6.4618,17.5122,-0.2993,0.5681,0.2541,143.3594
11:15:54:939,-1.0032,0.5961,6.9571,17.9209,-0.4978,0.5504,0.54,143.1719
11:15:54:959,-0.6081,1.6926,7.7737,18.0117,-0.4917,0.336,0.6841,142.2969
11:15:54:980,-0.3162,2.1739,8.2813,18.0813,-0.3201,0.0757,0.5907,141.4062
11:15:55:001,-0.443,1.9056,8.3674,18.2623,-0.1564,-0.0623,0.3781,141.4062
11:15:55:022,-0.5746,1.4821,7.9388,18.2743,-0.0928,-0.0208,0.2602,141.2812
11:15:55:040,-0.4525,1.1827,7.4886,18.2943,-0.1839,0.1637,0.2498,141.2812
11:15:55:061,-0.2058,0.8764,7.3307,18.4541,-0.4013,0.4496,0.273,143.25
11:15:55:079,-0.0239,0.4119,7.7952,18.5859,-0.6218,0.6805,0.2822,143.25
11:15:55:101,-0.0814,-0.0574,8.2047,18.6131,-0.7458,0.7996,0.2969,145.2812
11:15:55:121,-0.122,-0.2369,8.6545,18.8574,-0.7275,0.722,0.3775,145.4844
11:15:55:142,0.0957,-0.0861,9.2148,19.0646,-0.6194,0.4704,0.5162,145.5
11:15:55:160,0.2393,0.4119,10.3591,19.208,-0.5406,0.1906,0.6255,146.4219
11:15:55:179,0.1531,0.9123,11.5277,19.6214,-0.4722,0.0525,0.6591,146.625
11:15:55:201,0.297,1.3932,12.2052,19.9535,-0.3628,0.0788,0.6622,146.625
11:15:55:220,0.7038,1.573,12.5593,20.4176,-0.2853,0.2437,0.5754,145.6406
11:15:55:243,0.5243,0.9721,12.4373,20.7683,-0.2004,0.4093,0.2755,145.6406
11:15:55:260,-0.376,-0.3114,11.6617,20.981,-0.0086,0.2932,-0.0971,144.2812
11:15:55:282,-1.1372,-1.13,11.3647,21.1975,0.1161,-0.0043,-0.2559,144.1406
11:15:55:305,-1.6926,-1.4151,11.281,21.3024,0.0593,-0.0434,-0.1759,143.4688
11:15:55:320,-2.0255,-0.9673,11.0752,21.6771,-0.1063,0.2065,0.0843,143.4062
11:15:55:344,-0.6703,1.2544,11.4628,21.8469,-0.5198,0.5626,0.5235,142.75
11:15:55:361,-0.2898,0.8453,13.0573,22.0806,-0.6023,0.4423,0.0855,142.75
11:15:55:386,-2.339,-1.5179,14.1945,22.1647,-0.3427,0.1521,-0.6182,142.0156
11:15:55:405,-4.4865,-3.026,13.1004,22.572,0.1863,-0.1063,-0.8534,141.9375
11:15:55:420,-5.1449,-3.2512,10.7853,23.0254,0.5565,-0.0977,-0.4978,140.875
11:15:55:439,-4.2855,-2.2074,8.6378,23.3974,0.5113,0.1588,0.1332,140.7812
11:15:55:459,-2.2911,-0.5674,8.4009,23.5939,0.1942,0.2938,0.5143,139.375
11:15:55:480,-1.5132,0.1651,9.1525,23.8905,-0.077,0.2999,0.2456,137.9219
11:15:55:502,-2.3151,-0.9625,9.2964,24.2765,-0.1063,0.3299,-0.303,137.9219
11:15:55:520,-3.0835,-2.0471,8.1664,24.5611,0.0214,0.3751,-0.5601,137.5469
11:15:55:541,-3.1029,-2.0686,6.0452,24.787,0.0794,0.4184,-0.452,137.5469
11:15:55:560,-2.4873,-1.2832,4.9271,25.0081,-0.1063,0.3958,-0.1539,138.0469
11:15:55:579,-1.4677,-0.4789,5.2765,25.015,-0.4276,0.2859,0.1668,138.0469
11:15:55:604,-0.6846,0.4382,6.9523,24.9865,-0.6115,0.0183,0.3518,138.0469
11:15:55:621,-0.5124,0.984,8.6306,25.4235,-0.5113,-0.2847,0.3341,137.4531
11:15:55:641,-0.9003,1.1755,9.7199,25.7412,-0.2456,-0.4068,0.1961,137.4531
11:15:55:661,-1.4916,0.874,9.763,25.8971,0.0214,-0.2651,0.0373,136.625
11:15:55:679,-2.1978,0.2345,9.0688,26.1618,0.1619,0.0281,-0.0678,138.1875
11:15:55:701,-2.5089,-0.122,8.4894,26.5894,0.201,0.2254,-0.0379,138.1875
11:15:55:722,-2.715,-0.2536,8.0082,26.667,0.226,0.2346,0.0733,138.7656
11:15:55:742,-2.7628,-0.2321,7.7761,26.9596,0.2181,0.1179,0.2468,138.7656
11:15:55:761,-2.3533,0.1651,8.0058,27.4187,0.1356,-0.0531,0.4801,137.9844
11:15:55:780,-1.7333,0.8258,8.7673,27.5209,-0.0373,-0.1796,0.6713,137.9844
11:15:55:803,-0.9051,1.561,9.8157,27.7819,-0.2352,-0.2297,0.697,138.8125
11:15:55:820,-0.7301,1.8697,11.1159,28.146,-0.3354,-0.2908,0.4722,138.8906
11:15:55:841,-1.1204,1.1635,11.9154,28.3286,-0.2975,-0.3818,0.1338,139.5156
11:15:55:871,-3.1507,-0.778,13.0621,28.5428,0.0128,-0.6267,-0.088,139.5781
11:15:55:881,-3.3206,-0.7684,13.0238,28.8416,0.1356,-0.6053,0.201,138.9062
11:15:55:901,-2.0183,-0.2704,12.478,29.1538,0.1429,-0.4844,0.5626,138.8438
11:15:55:919,-0.3353,0.1627,13.2371,29.3237,-0.0098,-0.3897,0.6787,138.1719
11:15:55:940,1.4653,-0.1268,15.2025,29.5338,-0.1857,-0.2694,0.4044,138.0938
11:15:55:960,0.8596,-1.7237,16.1243,29.6367,-0.1564,0.0147,-0.284,138.1406
11:15:55:980,-1.5443,-4.113,14.6542,29.7513,0.1374,0.3518,-0.9431,138.1875
11:15:56:002,-2.9662,-5.4945,11.8077,29.9784,0.5064,0.5406,-1.0916,138.1875
11:15:56:020,-2.8657,-5.1736,8.432,30.3496,0.6866,0.5962,-0.8234,137.4688
11:15:56:041,-1.3525,-3.9957,6.481,30.5022,0.4966,0.4856,-0.5186,137.4688
11:15:56:060,0.5028,-2.3462,6.6772,30.6375,0.0617,0.284,-0.4875,135.9219
11:15:56:079,0.8668,-1.0798,8.0895,30.8612,-0.3744,0.2101,-0.7165,135.9219
11:15:56:104,0.055,-1.0893,8.8295,31.2729,-0.6115,0.2804,-0.9291,135.9062
11:15:56:121,-1.3454,-1.561,9.2148,31.3977,-0.598,0.3256,-0.9193,135.125
11:15:56:141,-1.7716,-1.2712,9.4854,31.6366,-0.3537,0.2437,-0.5345,135.1094
11:15:56:161,-1.2951,-0.4406,9.6769,32.0741,-0.0342,0.1857,-0.0476,135.2969
11:15:56:217,-1.252,0.2225,8.7123,32.0385,0.2712,0.3109,0.1338,134.4844
11:15:56:218,-1.5395,0.2273,7.2422,32.3696,0.4355,0.4881,0.0483,134.4844
11:15:56:226,-2.0949,-0.4238,5.7099,32.4818,0.4459,0.6133,-0.0654,133.25
11:15:56:240,-2.3964,-0.7995,4.9558,32.6409,0.3525,0.565,-0.0153,133.25
11:15:56:260,-1.9391,-0.5794,5.1592,32.7054,0.193,0.3836,0.1448,134.5781
11:15:56:280,-0.941,-0.0502,5.851,32.9819,0.0238,0.2132,0.2468,134.5781
11:15:56:303,-0.3449,0.2608,6.8399,33.285,-0.1264,0.11,0.171,136.6719
11:15:56:320,-0.6823,0.0526,7.7665,33.3663,-0.2559,0.1063,-0.0165,136.875
11:15:56:341,-1.5634,-0.443,8.6545,33.7464,-0.3647,0.1429,-0.1374,137.9844
11:15:56:360,-2.2337,-0.7636,9.7319,33.8378,-0.4239,0.1234,-0.0855,138.0938
11:15:56:383,-2.1763,0.0072,11.8914,33.9083,-0.1796,-0.2156,0.306,139.5938
11:15:56:406,-1.4605,0.3042,12.9353,34.294,-0.0092,-0.3299,0.427,139.75
11:15:56:420,-0.7253,0.3066,13.7877,34.5227,0.1319,-0.3091,0.4007,141.0781
11:15:56:439,-1.3932,-0.1268,14.5059,34.5892,0.3005,-0.2352,0.1888,141.2031
11:15:56:459,-2.8872,-0.7086,14.0438,34.3802,0.5485,-0.1839,0.0324,141.1875
11:15:56:481,-2.7508,-0.8378,12.1167,34.4451,0.6964,-0.1362,0.171,141.375
11:15:56:503,-2.0662,-0.352,11.9297,34.6654,0.5217,-0.1875,0.3671,141.375
11:15:56:522,-0.9003,0.055,13.5123,34.8937,0.2242,-0.2895,0.3854,141.375
11:15:56:540,-0.0359,-0.285,14.5011,35.2115,0.1356,-0.3244,0.0874,141.375
11:15:56:560,-1.2784,-1.5491,14.0605,35.1431,0.2785,-0.2254,-0.471,140.9531
11:15:56:579,-3.5647,-2.959,12.2219,35.3288,0.5168,-0.0305,-0.879,140.9062
11:15:56:604,-5.152,-3.3996,8.9731,35.6495,0.697,0.1814,-0.8417,140.9062
11:15:56:621,-4.8697,-2.4012,5.8606,36.0107,0.5913,0.2462,-0.4355,140.9531
11:15:56:642,-2.8848,-0.6488,5.1209,36.2345,0.1808,0.0403,-0.0684,140.9531
11:15:56:659,-1.2927,0.4765,7.3953,36.3238,-0.2663,-0.2785,-0.0672,140.7656
11:15:56:680,-0.9194,0.7875,9.3227,36.436,-0.4862,-0.2682,-0.3433,140.7812
11:15:56:706,-1.4653,0.6511,9.1406,36.7105,-0.3488,-0.0965,-0.6322,139.9219
11:15:56:720,-2.1595,0.1579,7.0388,37.1185,-0.0464,-0.055,-0.7684,139.3281
11:15:56:743,-2.5307,-0.2393,5.3725,37.1168,0.0721,-0.1912,-0.7232,139.3281
11:15:56:760,-2.4706,-0.5865,6.1098,37.2556,-0.1075,-0.3604,-0.573,139.3438
11:15:56:781,-2.2648,-0.929,7.6373,37.4844,-0.3464,-0.35,-0.4068,139.3438
11:15:56:802,-1.8936,-1.0965,8.4655,37.7377,-0.4123,-0.2217,-0.2553,138.7188
11:15:56:822,-1.3286,-0.8234,9.0401,37.8248,-0.2657,-0.2169,-0.1442,138.6562
11:15:56:843,-0.9434,-0.3042,9.2773,38.0757,0.014,-0.3109,-0.1472,139.0938
11:15:56:859,-1.0965,0.0407,8.7242,38.0462,0.3164,-0.3836,-0.2785,139.1406
11:15:56:881,-1.7907,-0.0766,7.6158,37.7808,0.5388,-0.4441,-0.4001,141.0469
11:15:56:904,-2.4275,-0.0479,6.4328,37.8111,0.5522,-0.4948,-0.3231,141.2344
11:15:56:920,-1.118,1.4533,8.2095,37.7653,0.0776,-0.8112,0.2272,141.875
11:15:56:940,0.1125,2.0375,10.7638,37.7691,-0.1912,-0.8906,0.2914,141.9531
11:15:56:961,0.7181,1.992,13.2969,37.534,-0.2755,-0.8198,0.1014,142.2344
11:15:56:982,0.0814,0.8282,14.3623,37.45,-0.1081,-0.6426,-0.2364,143.5938
11:15:57:003,-1.3741,-0.8234,14.228,37.4336,0.1833,-0.5608,-0.4368,143.5938
11:15:57:020,-2.3725,-1.7429,13.407,37.4396,0.394,-0.5058,-0.2633,145.0156
11:15:57:040,-2.3294,-1.4701,12.6191,37.5417,0.4319,-0.4453,0.1991,145.0156
11:15:57:060,-1.1683,-0.2898,12.1262,37.6266,0.3537,-0.4117,0.708,145.1562
11:15:57:080,0.6918,0.8883,11.9895,37.669,0.2517,-0.5229,0.9657,145.75
11:15:57:103,2.2409,0.9386,13.3065,37.5431,0.0996,-0.7422,0.8191,145.7656
11:15:57:121,3.3302,-0.3736,15.5904,37.5317,-0.1002,-0.6145,0.4368,146.0156
11:15:57:143,2.2481,-1.8553,16.1674,37.5974,-0.1051,-0.0959,-0.044,146.0312
11:15:57:160,0.3903,-3.1149,14.0055,37.2803,0.2779,0.2297,-0.3824,146.875
11:15:57:181,-0.5435,-3.7181,11.2211,37.5496,0.7623,0.1484,-0.4264,147.4062
11:15:57:206,-0.5889,-3.4714,8.9779,37.8414,0.9627,0.0336,-0.2804,147.4062
11:15:57:220,0.146,-2.4156,7.0244,37.791,0.8326,0.088,-0.0715,146.8125
11:15:57:242,0.7947,-1.2209,6.0643,37.8666,0.4636,0.2303,0.0513,146.8125
11:15:57:261,0.9218,-0.2512,6.0284,38.1376,0.0373,0.3726,0.0776,146.8906
11:15:57:281,1.0845,0.6224,6.1217,38.2747,-0.248,0.3928,0.113,146.8906
11:15:57:304,1.6807,1.3382,6.8662,38.2671,-0.3702,0.2022,0.1344,147.6406
11:15:57:320,2.3486,1.762,8.5421,38.4942,-0.3586,-0.0513,0.0342,147.7031
11:15:57:342,1.7788,1.6854,9.871,38.385,-0.2089,-0.0782,-0.2547,146.875
11:15:57:359,0.3449,0.9769,9.0042,38.2789,0.0593,0.135,-0.5638,146.7969
11:15:57:381,-0.7493,0.285,7.2685,38.5459,0.2804,0.2828,-0.6664,145.0469
11:15:57:406,-1.2568,0.364,5.7769,38.613,0.3085,0.3109,-0.5504,144.8594
11:15:57:421,-0.4382,0.5052,6.3036,38.6698,-0.0721,0.3042,-0.1179,144.4531
11:15:57:441,-0.0814,0.4789,7.6325,38.6734,-0.2376,0.2431,-0.0385,144.4062
11:15:57:459,-0.1196,0.4836,8.8319,38.6411,-0.2779,0.179,0.011,145.2656
11:15:57:480,-0.3042,0.6679,9.8181,38.8034,-0.2187,0.1106,0.1051,145.8125
11:15:57:503,-0.352,1.0845,10.4623,38.6747,-0.1258,0.0544,0.2566,145.8125
11:15:57:522,-0.134,1.3813,11.3719,38.6519,-0.0593,0.0031,0.4001,145.75
11:15:57:540,-0.0574,1.6831,12.9855,38.455,-0.0037,-0.0318,0.4649,145.75
11:15:57:560,0.0837,1.6831,14.1132,38.3889,0.1368,-0.014,0.4404,145.7344
11:15:57:579,-0.256,1.0917,14.7045,38.2581,0.3793,-0.0275,0.3054,145.3906
11:15:57:606,-1.2855,0.2608,14.3791,38.4258,0.6756,-0.0525,0.201,145.3906
11:15:57:620,-1.8242,0.0479,12.7989,38.6962,0.8527,0.0586,0.3543,145.5938
11:15:57:641,-1.1204,0.4071,12.1741,38.6337,0.7526,0.1802,0.6848,145.5938
11:15:57:660,0.1101,1.075,12.6266,38.8667,0.5363,0.1784,0.9297,146.9531
11:15:57:680,1.9487,1.8625,12.478,38.4919,0.4142,0.0965,0.9688,147.9219
11:15:57:706,2.9638,2.2744,12.7391,38.4155,0.361,-0.0702,0.6194,147.9219
11:15:57:720,1.5754,1.6615,12.5354,38.4252,0.4276,-0.1228,-0.0727,148.0625
11:15:57:741,-0.4956,0.3114,10.8356,38.4033,0.6622,-0.0861,-0.656,148.0625
11:15:57:760,-2.0686,-0.7899,8.0345,38.2618,0.8265,0.0049,-0.8723,147.875
11:15:57:781,-2.9136,-1.3095,6.0356,38.0266,0.7037,0.0195,-0.7752,147.875
11:15:57:804,-2.8633,-1.4557,5.4203,37.8569,0.325,-0.0684,-0.4923,147.1406
11:15:57:823,-1.9534,-1.2018,6.172,37.7814,-0.1643,-0.1374,-0.1576,147.1406
11:15:57:843,-1.3454,-0.443,7.6612,38.0832,-0.6182,-0.0745,0.0684,146.25
11:15:57:860,-0.874,0.309,8.2908,38.4442,-0.8833,0.1417,0.1991,146.1562
11:15:57:882,-0.4549,0.8429,8.1449,38.4245,-0.9291,0.2523,0.2388,145.75
11:15:57:904,-0.1292,1.1731,8.2525,38.2306,-0.7306,-0.0794,0.0788,145.7031
11:15:57:921,-0.1842,1.0869,8.741,38.3852,-0.5742,-0.284,-0.0281,144.8125
11:15:57:942,-0.1603,0.754,9.4615,38.414,-0.3861,-0.3622,-0.0812,144.7188
11:15:57:959,-0.3281,0.1962,9.7487,38.5663,-0.1613,-0.3482,-0.058,142.8906
11:15:57:982,-0.2058,0.431,9.1573,38.5959,0.0403,-0.2932,0.0757,142.2344
11:15:58:003,0.1771,1.0534,8.3865,38.8211,0.1466,-0.2028,0.2272,142.2344
11:15:58:022,0.6344,1.7357,7.6134,38.869,0.1264,-0.1106,0.2834,142.1875
11:15:58:040,0.821,2.339,7.2996,38.934,-0.0073,-0.0367,0.2431,143.8438
11:15:58:060,0.6033,2.7197,7.5823,39.0833,-0.1796,-0.0079,0.1472,144
11:15:58:079,0.5291,3.0739,8.1903,39.1271,-0.3121,-0.0189,0.0483,145.375
11:15:58:104,0.5267,3.2536,8.8917,39.2073,-0.3702,-0.0538,-0.077,145.5
11:15:58:120,0.1005,2.7078,9.3562,39.2831,-0.3983,-0.0654,-0.2767,145.5625
11:15:58:140,-0.1747,1.494,9.5859,39.4631,-0.4484,-0.0635,-0.4514,145.5625
11:15:58:161,-0.3138,0.1627,10.4886,39.5152,-0.5186,-0.1936,-0.5278,144.875
11:15:58:180,-0.9601,-0.9984,12.1382,39.396,-0.5986,-0.3311,-0.5143,144.3906
11:15:58:206,-1.8123,-1.5467,13.3783,39.5777,-0.6475,-0.295,-0.2847,144.3906
11:15:58:220,-1.8075,-1.1324,14.6495,39.5984,-0.5992,-0.2486,0.2187,144.4531
11:15:58:283,-0.577,0.079,15.0757,39.6305,-0.4093,-0.2022,0.7892,144.4531
11:15:58:283,2.3366,1.2114,14.9848,39.5471,-0.1888,-0.2303,1.1001,144.4531
11:15:58:284,4.4148,1.2975,15.7986,39.7591,-0.11,-0.2816,0.7746,144.4531
11:15:58:301,4.4339,-0.6918,17.2543,39.9158,-0.1399,-0.0489,-0.0024,143.9375
11:15:58:320,1.6902,-2.7197,16.22,40.1181,0.1179,0.3934,-0.719,143.9375
11:15:58:344,-0.3353,-3.9407,13.1339,40.2154,0.686,0.5785,-0.9523,143.5312
11:15:58:360,-1.2784,-4.1704,9.3227,40.1967,1.149,0.5913,-0.8057,143.5
11:15:58:380,-1.1061,-3.4834,6.4666,40.5782,1.2021,0.4997,-0.4923,143.4688
11:15:58:406,-0.309,-2.3605,5.1927,40.6063,0.8619,0.3567,-0.2077,143.4688
11:15:58:422,-0.0598,0.0431,7.4408,40.9036,-0.1863,0.2193,-0.1607,144.125
11:15:58:443,-0.2752,0.6799,7.7976,40.9171,-0.3854,0.3537,-0.182,144.2031
11:15:58:460,-0.3281,1.0989,7.934,40.8927,-0.347,0.3048,-0.1918,145.1719
11:15:58:480,-0.3616,1.2305,8.3459,40.7543,-0.1784,0.0941,-0.2321,145.2656
11:15:58:505,-0.5291,0.7923,8.5469,41.1099,0.0061,-0.0269,-0.3048,145.2656
11:15:58:520,-1.051,0.3018,8.1688,41.1689,0.1008,0.0684,-0.3427,145.2656
11:15:58:540,-1.5251,0.2034,7.7402,41.1205,0.1167,0.2077,-0.2639,143.3594
11:15:58:559,-1.5682,0.3999,7.369,41.1411,0.1179,0.2578,-0.0983,143.1562
11:15:58:579,-1.2497,0.632,7.0196,41.1662,0.1209,0.2248,0.058,142.3594
11:15:58:601,-0.7588,0.7756,6.9619,41.1718,0.0776,0.135,0.1729,142.2812
11:15:58:622,-0.2225,0.9721,7.5365,41.3139,-0.0452,0.0831,0.2559,144.1562
11:15:58:640,0.146,1.209,8.4272,41.7165,-0.1771,0.0837,0.3097,144.1719
11:15:58:659,0.2177,1.6256,9.4735,41.9212,-0.259,0.1289,0.3433,145.75
11:15:58:679,0.1244,1.9753,9.8949,42.1337,-0.3347,0.3225,0.3512,146.2031
11:15:58:707,-0.2273,2.1045,10.4551,42.3194,-0.4991,0.6029,0.3152,146.2031
11:15:58:721,-0.6296,2.1691,11.4963,42.6488,-0.5846,0.7019,0.2614,146.5156
11:15:58:743,-0.6224,1.6974,12.1095,42.938,-0.471,0.62,0.1851,146.5156
11:15:58:760,-0.4908,0.7373,11.8149,43.2744,-0.3635,0.6273,0.0684,146.9062
11:15:58:780,-1.0487,-0.2201,12.0565,43.341,-0.3696,0.6255,-0.0476,146.9062
11:15:58:806,-1.7429,-0.8524,12.3272,43.2298,-0.2938,0.4178,-0.0281,147.6406
11:15:58:820,-1.3406,-0.8979,12.7463,43.1128,-0.2083,0.1136,0.2034,147.6406
11:15:58:841,-0.2154,-0.0574,13.8619,43.2247,-0.2627,-0.0458,0.496,148.0156
11:15:58:859,1.2377,1.051,14.8672,43.2228,-0.3549,0.0379,0.5754,148.0469
11:15:58:880,1.4988,1.1611,15.3126,43.2223,-0.2743,0.1582,0.1582,147.8281
11:15:58:906,-3.8521,-2.9064,12.4062,43.341,0.6854,0.1264,-1.0635,147.8125
11:15:58:921,-5.394,-3.7493,8.8534,43.414,1.0916,0.0605,-0.9401,147.2188
11:15:58:944,-5.3773,-3.6317,6.2653,43.5861,1.0439,-0.091,-0.4447,146.3906
11:15:58:960,-3.5121,-2.7437,5.892,43.9057,0.6133,-0.3482,0.1277,146.3906
11:15:58:984,-1.7213,-1.0654,7.7043,44.1226,0.0464,-0.551,0.4306,146.3125
11:15:59:004,-0.6033,0.2393,9.5788,44.5605,-0.3647,-0.4361,0.3995,145.5938
11:15:59:022,-0.833,0.7253,9.6577,44.7621,-0.4105,-0.2144,0.1515,145.5156
11:15:59:040,-1.4438,0.5363,8.8606,44.8099,-0.2223,-0.2095,-0.0751,145.125
11:15:59:060,-1.9343,0.1795,8.3339,44.8593,0.022,-0.3897,-0.1393,145.0938
11:15:59:080,-2.2576,-0.1244,8.0154,44.737,0.2511,-0.5705,-0.0519,145.0625
11:15:59:105,-2.1093,-0.285,7.7498,44.8677,0.3891,-0.6176,0.1521,145.0625
11:15:59:123,-1.5203,-0.0526,7.5054,45.0143,0.3995,-0.485,0.3897,144.2344
11:15:59:141,-0.9601,0.3425,7.1034,45.0625,0.3641,-0.3005,0.543,144.2188
11:15:59:160,-0.4813,0.5698,6.9835,44.8309,0.3164,-0.2248,0.5656,143.3281
11:15:59:179,-0.2321,0.8234,7.2254,44.8537,0.2614,-0.2303,0.4991,145.2812
11:15:59:200,-0.1196,1.0056,7.3307,45.0492,0.1991,-0.2223,0.4044,145.2812
11:15:59:221,-0.1149,1.2449,7.6732,45.2694,0.1136,-0.2315,0.3506,147.1562
11:15:59:243,-0.0598,1.5969,8.4799,45.579,0.0031,-0.2395,0.3781,147.1562
11:15:59:260,0.0526,2.1595,9.4304,45.6682,-0.0867,-0.1991,0.4746,146.6875
11:15:59:280,0.3712,2.7724,10.2012,45.7576,-0.146,-0.1087,0.5748,146.6875
11:15:59:305,0.7708,3.0763,11.0776,45.66,-0.204,-0.0544,0.5498,145.9844
11:15:59:321,0.9003,2.4156,12.708,45.8844,-0.1985,-0.1503,0.3292,145.9844
11:15:59:341,0.1316,0.7612,13.8141,45.9084,-0.0727,-0.2175,0.0599,146.1875
11:15:59:360,-0.9697,-0.1795,14.0797,46.1025,0.0605,-0.113,0.0513,146.1875
11:15:59:380,-0.5435,0.1747,13.1868,46.1682,0.0996,0.1448,0.3799,146.1875
11:15:59:406,1.2497,1.0893,11.5851,46.4213,-0.0116,0.3812,0.6725,146.1875
11:15:59:421,3.7014,1.5969,11.7168,46.4325,-0.3476,0.3818,0.554,145.375
11:15:59:446,1.3023,-1.9343,15.935,46.5448,-0.7318,0.3494,-0.1026,145.2812
11:15:59:462,-1.3358,-3.5336,14.324,46.8,0.0037,0.4135,-1.1301,144.2969
11:15:59:483,-2.0088,-3.7445,10.6609,46.7724,0.6719,0.3244,-0.8845,144.2031
11:15:59:499,-1.0128,-2.8872,7.7856,46.9852,0.9041,0.1124,-0.4887,143.4844
11:15:59:520,0.8524,-2.0495,6.816,47.1637,0.6933,-0.1093,-0.2712,143.4219
11:15:59:541,1.5084,-1.4222,7.6851,47.2636,0.2944,-0.2462,-0.3464,142.5781
11:15:59:561,0.8572,-0.9721,8.4009,47.2988,-0.0788,-0.0819,-0.4948,142.4844
11:15:59:580,-0.1316,-0.6296,7.9675,47.4112,-0.2682,0.1643,-0.4862,141.3438
11:15:59:606,-0.5435,-0.0933,7.6588,47.3945,-0.2547,0.1112,-0.2633,141.2344
11:15:59:622,0.3353,1.008,7.9268,47.3664,-0.088,-0.2498,0.0202,140.8281
11:15:59:640,1.4486,2.1835,8.9133,47.3212,0.0947,-0.5632,0.0385,140.7812
11:15:59:660,1.2951,2.0901,9.2315,47.4175,0.2474,-0.5217,-0.27,140.3281
11:15:59:679,0.2393,1.2616,8.4009,47.3226,0.3195,-0.2083,-0.5705,138.9062
11:15:59:700,-0.431,0.7899,7.3499,47.2443,0.2566,0.1222,-0.6316,138.9062
11:15:59:722,-0.6488,0.5578,6.8949,47.2459,0.1319,0.2621,-0.5369,139.7812
11:15:59:743,-0.3927,0.565,7.2302,47.2814,0.058,0.1454,-0.3824,139.7812
11:15:59:761,-0.012,0.7421,7.6899,47.2723,-0.0043,0.0208,-0.2401,142.0469
11:15:59:781,0.3401,1.1252,8.5158,47.4822,-0.1399,0.0367,-0.1387,142.0469
11:15:59:805,0.5315,1.6711,9.5764,47.5109,-0.2639,0.1136,-0.0867,143.0781
11:15:59:822,0.3927,2.1882,10.4623,47.7606,-0.2957,0.1759,-0.0892,143.0781
11:15:59:840,0.0574,2.5137,11.3288,47.8515,-0.2566,0.2004,-0.1142,144.0469
11:15:59:860,-0.3473,2.473,12.1717,48.1527,-0.1778,0.2193,-0.135,144.0469
11:15:59:881,-0.4454,1.9487,12.9329,48.0685,-0.1124,0.2773,-0.1521,144.7344
11:15:59:906,-1.2329,0.996,14.0701,48.4486,-0.0061,0.292,-0.2046,144.8125
11:15:59:925,-2.7006,-0.1268,14.1897,48.6468,0.2975,0.1881,-0.1765,144.7812
11:15:59:946,-2.4778,-0.5339,11.3216,48.4648,0.733,0.1576,0.6622,144.7812
11:15:59:964,-0.5841,1.8386,11.0201,48.4414,0.4783,0.1594,1.1362,145.6875
11:15:59:988,1.319,3.8498,11.7263,48.3309,0.1093,0.1448,1.1197,145.7812
11:16:00:003,1.4988,2.9925,12.7271,48.3194,-0.0073,0.0208,0.5675,146.9844
11:16:00:020,-0.3449,1.142,13.3783,48.1677,0.1649,-0.1509,-0.058,147.0938
11:16:00:039,-2.3318,-0.419,12.521,48.2339,0.4618,-0.1613,-0.3897,147.7188
11:16:00:059,-3.3709,-1.5132,10.4408,48.0895,0.6695,-0.0367,-0.3879,147.7812
11:16:00:079,-3.5001,-1.8362,8.0871,47.8154,0.6774,0.0336,-0.1716,147.9688
11:16:00:101,-2.8705,-1.64,6.9188,47.8144,0.5027,-0.1283,0.0874,147.9844
11:16:00:121,-1.8649,-1.1803,7.3187,47.9802,0.182,-0.3427,0.2767,148.125
11:16:00:140,-1.1061,-0.443,8.31,47.8969,-0.1796,-0.317,0.3641,148.1406
11:16:00:159,-0.9123,0.2536,8.3746,47.7435,-0.4416,-0.0079,0.3916,148.3906
11:16:00:179,-0.9314,0.8644,7.381,47.6674,-0.5162,0.2578,0.4325,148.8438
11:16:00:201,-0.6559,1.4414,6.4881,47.5132,-0.4575,0.1894,0.474,148.8438
11:16:00:223,-0.3209,1.6878,6.5192,47.3484,-0.4178,-0.0641,0.4404,148.1562
11:16:00:244,0.0383,1.5897,7.3451,47.2503,-0.4575,-0.2431,0.3476,148.1562
11:16:00:262,0.28,1.4028,8.068,47.2866,-0.4899,-0.3109,0.2193,145.75
11:16:00:280,0.2584,1.1396,8.7314,47.1701,-0.4496,-0.3268,0.0904,145.75
11:16:00:338,0.1531,0.9505,8.9492,47.2849,-0.2853,-0.3286,0.0226,145.1875
11:16:00:338,0.2058,0.9003,8.8654,47.2608,-0.0837,-0.3311,0.0073,145.1875
11:16:00:341,0.0144,0.9458,8.5708,47.3516,0.0305,-0.2633,0.0067,146.1875
11:16:00:359,-0.2704,1.1133,8.0536,47.2373,0.0238,-0.1326,0.0507,146.1875
11:16:00:380,-0.1507,1.5036,8.056,46.9855,-0.0733,-0.0519,0.168,146.4375
11:16:00:400,0.2034,2.0375,8.7673,47.0393,-0.1875,-0.0458,0.2804,146.4531
11:16:00:422,0.6272,2.5161,9.8375,46.962,-0.2682,-0.0574,0.3219,145.875
11:16:00:441,0.7875,2.5642,11.2714,47.0443,-0.3158,-0.0342,0.2614,145.8125
11:16:00:462,0.4454,1.7453,12.5593,47.0683,-0.339,0.0354,0.0971,144.8594
11:16:00:481,-0.5865,0.5578,14.2567,47.083,-0.2895,0.0147,-0.0495,144.7656
11:16:00:507,-2.2816,-1.0199,14.0342,46.9396,-0.0568,-0.0147,-0.0122,143.75
11:16:00:522,-1.2903,0.2249,11.9178,46.9728,0.4233,0.3213,0.9096,143.6562
11:16:00:540,1.3789,1.9681,10.5867,47.1352,0.3983,0.1631,1.3182,143.0156
11:16:00:560,3.8928,2.9542,11.482,47.0997,0.2388,-0.2712,1.1191,142.9375
11:16:00:579,5.0276,1.5658,13.5506,46.9653,-0.0794,-0.4545,0.3335,142.7969
11:16:00:600,3.3111,-0.7373,15.3102,46.8051,-0.292,-0.2401,-0.6017,142.7812
11:16:00:621,0.6703,-2.569,13.9457,46.512,0.0061,0.091,-1.0934,142.7812
11:16:00:640,-0.5746,-3.2991,10.8763,46.5086,0.6304,0.058,-0.9712,142.7812
11:16:00:660,-0.0024,-2.4443,8.511,46.1398,1.0525,-0.295,-0.5742,142.5469
11:16:00:680,1.5108,-1.185,6.9619,46.1178,0.9596,-0.4282,-0.3183,141.8438
11:16:00:701,2.1882,-0.3401,6.5575,45.8115,0.3714,-0.1973,-0.3653,141.8438
11:16:00:723,1.3669,0.1555,7.3475,45.4748,-0.3158,0.1545,-0.5437,141.3906
11:16:00:742,0.4645,0.6392,7.5676,45.3238,-0.6615,0.3537,-0.6145,141.3906
11:16:00:760,0.4741,1.2377,8.0536,45.0802,-0.6273,0.1692,-0.5693,141.4219
11:16:00:780,0.8668,1.7381,9.0042,44.9211,-0.3659,-0.1778,-0.5546,141.4219
11:16:00:801,0.8955,1.8577,9.5859,44.5636,-0.0739,-0.3384,-0.6609,140.1094
11:16:00:822,0.3736,1.439,9.0784,44.4562,0.1582,-0.2272,-0.8362,140.1094
11:16:00:840,-0.3281,0.8067,8.1159,44.1722,0.3231,-0.0721,-0.9413,137.5156
11:16:00:861,-1.1874,0.3855,7.0771,43.8693,0.4282,-0.0079,-0.8943,137.5156
11:16:00:881,-1.3454,0.1747,6.6126,43.6709,0.4117,-0.0391,-0.6615,137.7656
11:16:00:906,-0.7301,0.4597,7.2829,43.4365,0.2785,-0.0928,-0.3531,137.7812
11:16:00:922,-0.134,0.8453,8.0536,43.2427,0.1741,-0.1222,-0.1258,139.875
11:16:00:942,-0.0407,1.3932,9.3586,42.9449,0.2346,-0.2651,0.0367,140.0938
11:16:00:960,-0.1268,2.0662,9.8542,42.853,0.4856,-0.3824,0.1894,141.2031
11:16:00:982,0.0096,2.7389,9.0233,42.7924,0.6121,-0.2303,0.3494,141.3281
11:16:01:004,1.427,4.3837,10.2251,42.402,-0.0782,0.1484,0.4447,142.2344
11:16:01:022,1.5658,3.9981,13.1483,42.3458,-0.3427,0.1845,0.1368,142.3281
11:16:01:039,0.3018,2.6336,14.0821,42.3529,-0.2101,0.2779,-0.2498,143.375
11:16:01:060,-1.0152,1.6639,13.0884,42.1209,0.0318,0.3934,-0.3738,143.4844
11:16:01:079,-1.2688,1.2042,11.5636,41.9608,0.0837,0.5003,-0.1881,144.6875
11:16:01:101,-0.1603,1.5706,11.8412,41.6734,-0.1045,0.4135,0.1234,144.7969
11:16:01:121,1.5275,1.9777,13.7109,41.3162,-0.3573,0.2584,0.2517,146.625
11:16:01:141,2.0471,1.3789,15.5522,40.9779,-0.3903,0.182,-0.0086,146.8125
11:16:01:160,0.4621,-0.0287,15.0589,41.0083,-0.1258,0.3109,-0.4899,148.6094
11:16:01:179,-1.8936,-1.4868,12.2459,41.0074,0.3213,0.4911,-0.8167,149.2188
11:16:01:200,-3.4834,-2.2911,8.8295,40.8813,0.7165,0.4264,-0.7556,149.2188
11:16:01:220,-3.5001,-2.0614,6.481,40.9374,0.7978,0.0367,-0.3781,149.0781
11:16:01:240,-2.1643,-1.2497,6.6461,40.7818,0.4575,-0.372,0.08,149.0781
11:16:01:261,-0.5004,0.0191,8.3698,40.8126,-0.1142,-0.4087,0.3653,148.2656
11:16:01:279,0.0957,0.9697,9.5716,40.7771,-0.5773,-0.066,0.3934,148.2656
11:16:01:301,0.0263,1.386,9.7391,40.6402,-0.7159,0.2547,0.2853,147.5625
11:16:01:322,0.0431,1.3836,9.4591,40.5499,-0.5284,0.2969,0.1448,147.5625
11:16:01:342,-0.5052,1.4222,9.0568,40.2203,-0.204,0.146,0.0012,148.1719
11:16:01:360,-1.0702,1.3214,8.1879,39.8549,0.0654,0.0269,-0.0593,148.1719
11:16:01:382,-1.1994,1.13,7.3187,39.4592,0.1875,-0.0299,-0.0183,148.1719
11:16:01:404,-0.8402,1.118,6.9045,39.1741,0.1637,-0.047,0.0886,148.1719
11:16:01:421,-0.4406,1.4004,7.0962,38.9536,0.0727,-0.0623,0.1698,147.8281
11:16:01:441,-0.2512,1.5347,7.4815,39.0542,0.0269,-0.0916,0.1704,147.7969
11:16:01:460,-0.2082,1.439,7.503,38.869,0.014,-0.0831,0.1228,149.0625
11:16:01:480,-0.3736,1.3908,7.357,38.5568,-0.0403,-0.0336,0.0806,149.1719
11:16:01:503,-0.941,1.7907,7.5389,38.4002,-0.2346,0.0134,0.1112,150.4531
11:16:01:522,-1.1133,2.0973,7.8694,38.2473,-0.328,-0.0098,0.1845,150.5781
11:16:01:542,-1.0271,2.2935,8.7123,38.1136,-0.43,-0.0776,0.2651,150.2031
11:16:01:559,-0.5004,2.3701,10.1581,38.0502,-0.5302,-0.157,0.3237,150.2031
11:16:01:579,0.3185,2.0518,12.1956,37.7138,-0.5895,-0.2382,0.3011,149.375
11:16:01:601,0.6248,1.4222,14.2089,37.3688,-0.5516,-0.2547,0.1857,149.2969
11:16:01:622,0.3257,0.8282,15.2145,37.139,-0.3622,-0.2028,0.0953,149.0469
11:16:01:640,-0.2752,0.9458,14.5633,36.968,-0.0788,-0.102,0.1759,149.0156
11:16:01:660,0.6009,1.8123,12.7846,36.8279,0.0794,0.0428,0.4013,149.125
11:16:01:679,2.6097,2.5618,12.5019,36.6919,0.0354,-0.0971,0.4239,148.8906
11:16:01:700,3.7397,1.7788,14.913,36.5791,-0.16,-0.2443,0.0446,148.8906
11:16:01:723,2.3749,-0.4238,16.5239,36.4748,-0.2242,0.0849,-0.5094,148.5781
11:16:01:743,0.4789,-1.7931,15.1618,36.266,0.135,0.5272,-0.7739,148.5781
11:16:01:760,-0.0837,-2.217,11.391,35.9664,0.7061,0.6622,-0.7171,148.3906
11:16:01:780,-0.0359,-2.4754,8.7553,36.013,0.9908,0.4349,-0.6237,148.3906
11:16:01:800,0.352,-2.5355,7.7641,36.0345,0.887,0.1826,-0.5437,148
11:16:01:823,0.62,-2.2146,7.424,35.9215,0.5516,0.1246,-0.4612,148
11:16:01:841,0.3784,-1.4964,7.4839,35.6611,0.1264,0.2309,-0.3616,147.2656
11:16:01:861,0.3401,-0.201,7.5918,35.4989,-0.2236,0.3879,-0.1906,147.2656
11:16:01:880,0.6583,1.3334,7.2446,35.4002,-0.3427,0.3806,-0.0324,146.6406
11:16:01:902,0.7971,2.2528,7.1441,35.4804,-0.2682,0.0757,-0.0287,146.6406
11:16:01:924,0.8477,2.473,7.9029,35.3904,-0.179,-0.2706,-0.1338,146.3281
11:16:01:941,0.5411,2.1141,8.9779,35.2274,-0.1643,-0.2944,-0.2889,146.2969
11:16:01:961,-0.2608,1.6352,9.1525,35.0376,-0.1258,-0.0428,-0.4105,145.4844
11:16:01:981,-0.7038,1.1994,8.2741,34.8633,0,0.1765,-0.4245,145.4062
11:16:02:004,-0.7181,1.1563,6.9045,34.8467,0.0996,0.1429,-0.2987,145.8438
11:16:02:022,-0.7373,0.9912,7.2541,34.9577,-0.0446,0.1387,-0.2608,145.875
11:16:02:041,-0.6416,1.2257,7.9603,34.8311,-0.2028,0.1723,-0.1796,147.5469
11:16:02:060,-0.5052,1.6663,8.3578,34.722,-0.27,0.19,-0.0837,147.5469
11:16:02:079,-0.309,2.1308,8.9324,34.5945,-0.2651,0.1246,-0.0086,148.875
11:16:02:101,-0.2201,2.4491,9.7176,34.532,-0.2553,0.0586,0.0244,149.0156
11:16:02:123,-0.3449,2.5714,10.9938,34.4418,-0.2608,0.0324,0.0177,149.8906
11:16:02:139,-0.6224,2.4562,12.3559,34.3866,-0.2114,0.0525,-0.011,149.9844
11:16:02:160,-0.8429,1.7453,12.9162,34.4285,-0.0666,0.1264,-0.0641,150.0938
11:16:02:179,-1.5179,0.6464,12.6362,34.1433,0.1136,0.1839,-0.1191,150.2344
11:16:02:200,-2.1811,-0.0359,11.8316,33.983,0.234,0.1985,-0.044,150.2344
11:16:02:221,-2.1523,0.2584,10.9962,34.0046,0.1881,0.2162,0.2065,150.9844
11:16:02:240,-1.5347,0.9027,10.989,33.989,-0.033,0.1857,0.5033,150.9844
11:16:02:260,-0.3855,1.5921,12.0951,33.8721,-0.2938,0.0556,0.7269,151.8594
11:16:02:280,1.3406,1.7022,14.051,33.5187,-0.419,-0.1851,0.7434,151.8594
11:16:02:300,1.8099,0.9194,15.746,33.3445,-0.3048,-0.3512,0.4056,152.4688
11:16:02:323,0.1723,-0.4286,15.5282,33.273,0.022,-0.2175,-0.0977,152.4688
11:16:02:400,-1.9534,-1.695,12.8874,33.2048,0.4581,0.0354,-0.3958,152.6719
11:16:02:401,-2.9542,-2.0518,9.3514,33.0522,0.7917,0.1075,-0.3213,152.6719
11:16:02:401,-2.9518,-1.695,6.8877,32.9633,0.7843,-0.0128,-0.0629,152.5781
11:16:02:401,-2.3629,-1.1874,6.5169,32.7731,0.4636,-0.2162,0.1863,152.5781
11:16:02:426,-1.4004,-0.2827,7.7115,32.4832,0.0599,-0.3091,0.3738,152.5156
11:16:02:441,-0.6009,0.5889,8.633,32.5502,-0.2016,-0.215,0.43,152.5
11:16:02:460,-0.3855,0.9266,8.6067,32.5422,-0.2755,-0.0666,0.3457,152.6719
11:16:02:480,-0.7612,1.0367,8.1425,32.4555,-0.2523,-0.0073,0.2358,152.7031
11:16:02:501,-0.8644,1.0702,7.7904,32.4522,-0.2034,-0.0489,0.2065,152.5781
11:16:02:524,-0.364,1.0989,7.7091,32.5051,-0.1545,-0.1271,0.2376,152.5625
11:16:02:541,0.1651,1.398,7.5942,32.3243,-0.0971,-0.1918,0.2987,151.2812
11:16:02:560,0.4095,1.6089,7.2159,32.4462,0.036,-0.1906,0.2407,151.1562
11:16:02:579,0.4358,1.6735,7.0986,32.562,0.0519,-0.2358,0.0928,149.9375
11:16:02:600,0.3879,1.6926,7.1273,32.7226,-0.0043,-0.2676,-0.0421,149.8125
11:16:02:623,0.3927,1.6472,7.4575,32.7253,-0.1497,-0.2474,-0.1313,150.3594
11:16:02:641,0.4238,1.7501,8.2597,32.5695,-0.3011,-0.1942,-0.1564,150.4062
11:16:02:660,0.6153,2.0471,9.1693,32.4854,-0.3109,-0.1826,-0.1185,151
11:16:02:679,0.7947,2.4299,9.5357,32.2919,-0.1741,-0.2608,-0.0855,150.5625
11:16:02:700,0.4741,2.6121,10.2706,32.2621,-0.0593,-0.3781,-0.1185,150.5625
11:16:02:722,-0.0287,2.5594,10.4336,32.1068,-0.0519,-0.3189,-0.1338,149.6719
11:16:02:740,-0.1436,2.3198,10.8212,32.1071,-0.1631,-0.2211,-0.0904,149.6719
11:16:02:761,-0.0383,1.7453,12.332,31.8684,-0.295,-0.2566,-0.0531,149.125
11:16:02:779,-0.2536,1.1492,13.9457,31.6232,-0.2566,-0.3732,-0.0403,149.125
11:16:02:801,-0.6823,1.0654,15.0063,31.7404,-0.047,-0.4368,0.0385,148.5156
11:16:02:826,-0.5459,1.8434,14.0103,31.6747,0.226,-0.314,0.2382,148.5156
11:16:02:842,0.7923,2.2624,12.0494,31.8292,0.3775,-0.2596,0.3952,147.9688
11:16:02:860,2.3749,1.9657,12.6841,31.7905,0.2052,-0.4545,0.2999,147.9062
11:16:02:880,3.7253,0.3305,15.3796,31.6434,-0.1716,-0.4105,-0.0367,147.8906
11:16:02:900,2.8944,-1.707,17.0937,31.507,-0.3085,-0.0147,-0.5192,147.8906
11:16:02:923,0.8091,-3.1149,15.813,31.5629,0.0055,0.3781,-0.8167,148.1719
11:16:02:941,-0.3975,-3.8282,13.3041,31.7464,0.5308,0.4435,-0.7654,148.1719
11:16:02:961,-0.443,-3.5264,10.4958,31.5403,0.937,0.3543,-0.4917,148.3438
11:16:02:980,-0.1125,-2.8083,8.1449,31.6872,1.0079,0.3176,-0.2199,148.3594
11:16:03:000,0.3425,-2.0566,7.005,31.7382,0.7324,0.3488,-0.0055,148.6406
11:16:03:023,1.1922,0.8644,7.491,31.6654,0.0776,0.4795,0.347,148.6562
11:16:03:043,1.6256,2.1571,6.8351,31.7264,0.0421,0.4807,0.3806,148.7812
11:16:03:060,2.0925,3.0763,6.2509,31.7873,0.099,0.2755,0.2511,148.7969
11:16:03:080,1.8649,3.3039,6.469,31.7706,0.1271,0.0073,-0.0715,148.8125
11:16:03:099,0.5315,2.3725,7.2613,31.7025,0.0983,-0.0788,-0.4618,148.8125
11:16:03:122,-0.6846,1.5036,7.4049,31.698,0.0757,0.088,-0.6237,148.25
11:16:03:141,-1.252,1.2162,6.6461,31.572,0.0666,0.3329,-0.5424,148.2031
11:16:03:160,-1.2401,1.1013,6.038,31.4198,0.0073,0.4642,-0.3928,147.9688
11:16:03:179,-1.1659,0.9936,5.959,31.658,-0.1002,0.4496,-0.2676,149.2344
11:16:03:199,-0.9266,0.8429,6.4424,31.6614,-0.2333,0.361,-0.1558,149.2344
11:16:03:223,-0.6894,0.8258,7.3283,31.5935,-0.3848,0.3005,-0.0428,150.8281
11:16:03:240,-0.5387,0.9649,8.1879,31.5449,-0.5076,0.2755,0.0702,150.8281
11:16:03:260,-0.5076,1.2951,9.3826,31.464,-0.5314,0.1759,0.1839,151.2188
11:16:03:280,-0.2632,1.8817,10.3304,31.4796,-0.4331,0.0458,0.3115,151.2188
11:16:03:301,0.1101,2.6384,10.989,31.2887,-0.2993,-0.0415,0.4032,150.6094
11:16:03:323,0.4238,3.1603,11.5875,31.5168,-0.2059,-0.0812,0.3995,150.6094
11:16:03:343,0.8548,3.1507,12.3799,31.4954,-0.1955,-0.0446,0.2987,150.5938
11:16:03:361,0.8477,2.5857,13.6606,31.4955,-0.2443,0.0849,0.0983,149.8594
11:16:03:380,-0.4023,1.4988,14.549,31.5002,-0.1851,0.2388,-0.1216,150.4688
11:16:03:401,-1.6448,0.62,14.2807,31.4383,0.0403,0.3091,-0.1277,150.4688
11:16:03:421,-1.4004,0.8979,12.8755,31.3244,0.2401,0.3299,0.1484,151.7188
11:16:03:441,-0.2898,2.0207,12.143,31.4416,0.2266,0.2999,0.4135,151.7188
11:16:03:460,0.9386,2.4873,12.4875,31.6414,0.0849,0.2059,0.4007,152.3125
11:16:03:480,1.1013,1.5658,13.7396,31.5063,0.0006,0.0794,0.0745,152.375
11:16:03:500,-0.6966,-0.3281,14.1778,31.2711,0.0904,0.1014,-0.3525,152.4531
11:16:03:523,-2.5953,-1.7453,12.7056,31.3153,0.3696,0.2327,-0.5113,152.4688
11:16:03:542,-3.2919,-1.8769,7.4049,31.2279,0.7758,0.1845,-0.0611,152.0469
11:16:03:560,-2.3629,-1.2544,6.2653,31.2062,0.551,-0.0312,0.1979,152.0156
11:16:03:581,-1.2305,-0.5363,6.8806,31.2695,0.149,-0.2144,0.3225,151.2031
11:16:03:599,-0.6942,0.0837,7.9484,31.1682,-0.2315,-0.1723,0.2908,151.125
11:16:03:623,-0.6894,0.4932,8.1855,31.0621,-0.4673,0.0348,0.1851,150.3906
11:16:03:641,-1.2209,0.4932,7.8526,30.9025,-0.5394,0.1484,0.0996,150.3125
11:16:03:661,-1.4127,0.5243,7.6349,30.6682,-0.4997,0.0599,0.1545,150.25
11:16:03:679,-0.9505,0.8019,7.7426,30.4924,-0.4227,-0.1148,0.3146,150.2344
11:16:03:700,-0.3257,1.0798,8.2119,30.5329,-0.3488,-0.2456,0.4471,150.2344
11:16:03:722,0.2874,1.4103,8.729,30.4128,-0.2431,-0.3146,0.4832,149.3594
11:16:03:740,0.5411,1.6137,8.7984,30.4894,-0.0867,-0.3225,0.4068,149.3594
11:16:03:760,0.2898,1.5084,8.3746,30.2523,0.0739,-0.3115,0.2639,149.6562
11:16:03:780,-0.1029,1.4294,7.7809,30.1777,0.1368,-0.2639,0.16,149.6562
11:16:03:803,-0.0646,1.5586,7.4288,30.057,0.0464,-0.1564,0.1277,149.6562
11:16:03:823,0.0766,1.7405,7.8766,30.1792,-0.124,-0.077,0.1014,150.75
11:16:03:841,0.0431,1.9681,8.5756,30.1888,-0.2291,-0.0586,0.0605,150.75
11:16:03:860,-0.0933,2.2959,8.9755,30.1339,-0.2223,-0.1038,0.0318,150.8125
11:16:03:881,-0.1603,2.7461,9.2195,30.149,-0.1936,-0.1527,0.0226,150.1562
11:16:03:901,0.0455,3.1244,9.5812,30.0553,-0.2492,-0.1338,-0.0159,150.1562
11:16:03:923,0.0598,2.7245,10.4551,30.1665,-0.3683,-0.1356,-0.1484,149.6719
11:16:03:942,-0.3927,1.4749,11.6163,30.1037,-0.4868,-0.1576,-0.3158,149.6719
11:16:03:961,-0.8163,0.4597,12.6864,30.1297,-0.5308,-0.1979,-0.3525,149.0781
11:16:03:982,-0.917,0.2249,13.7925,30.0046,-0.4612,-0.2584,-0.2285,149.0156
11:16:04:006,-0.7971,0.9697,14.3886,29.9309,-0.2828,-0.2462,-0.0195,148.0312
11:16:04:024,0.3185,1.8769,12.9066,29.8018,-0.0287,-0.2181,0.168,147.9375
11:16:04:044,2.7724,1.4198,13.7495,29.8054,0.0611,-0.3824,0.1686,147.2969
11:16:04:062,3.3972,0.1842,14.9441,29.784,-0.0666,-0.4765,-0.0165,147.2344
11:16:04:081,2.0136,-1.0534,14.8986,29.7666,-0.0336,0.0874,-0.6854,146.9844
11:16:04:101,0.268,-2.3892,12.9903,29.6525,0.3347,0.3916,-0.9493,146.9688
11:16:04:124,-0.6009,-3.2895,10.0935,29.7626,0.7355,0.4777,-0.9719,146.7656
11:16:04:141,-1.0128,-3.6054,7.4623,29.7861,0.8918,0.4172,-0.8399,146.75
11:16:04:160,-1.0534,-3.3852,5.8295,29.6958,0.7275,0.2932,-0.6102,146.6562
11:16:04:180,-0.766,-2.6456,5.1951,29.6154,0.3439,0.1668,-0.3305,146.75
11:16:04:200,-0.2417,-1.3813,5.7721,29.3352,-0.1326,0.0721,-0.0544,146.75
11:16:04:224,0.4454,0.1149,6.7011,29.2717,-0.5113,-0.0122,0.1576,147.375
11:16:04:243,1.1587,1.4079,7.7019,29.1001,-0.6799,-0.1851,0.2333,147.375
11:16:04:261,1.6304,2.3414,9.3491,29.171,-0.689,-0.4038,0.1374,147.5781
11:16:04:280,1.3836,2.4323,10.7853,29.021,-0.5779,-0.4209,-0.124,147.5781
11:16:04:300,0.7588,1.5873,11.2211,29.0347,-0.3897,-0.1845,-0.408,147.5625
11:16:04:324,-0.7445,0.7564,10.1988,29.2165,-0.1435,0.1197,-0.5815,147.2344
11:16:04:343,-1.4749,0.5459,8.6713,29.2089,0.0819,0.2767,-0.4966,147.2188
11:16:04:361,-1.1276,0.9147,7.4934,29.3021,0.1888,0.2938,-0.2688,147.5781
11:16:04:382,-0.6823,0.9577,7.0316,29.4031,0.1613,0.2682,-0.1637,147.5781
11:16:04:401,-0.6153,0.6368,7.1106,29.3906,0.0617,0.2468,-0.1515,149.375
11:16:04:464,-0.5602,0.5148,7.8096,29.0886,-0.0312,0.1991,-0.0935,151.5312
11:16:04:464,-0.4334,0.7564,8.432,29.1494,-0.066,0.1649,0.0208,151.5312
11:16:04:465,-0.0814,1.3406,8.7194,28.9337,-0.0666,0.1539,0.1582,152.7031
11:16:04:479,0.3903,2.0997,9.2124,28.5845,-0.0941,0.1118,0.2608,152.7031
11:16:04:502,0.5435,2.8896,10.194,28.47,-0.1509,0.0415,0.2737,152.5312
11:16:04:524,0.62,3.536,11.7431,28.5287,-0.2199,0.0006,0.2126,152.5156
11:16:04:544,1.3502,2.2074,15.3365,28.2909,-0.2889,0.2785,-0.215,151.9531
11:16:04:563,-0.4645,0.632,15.5474,28.4642,-0.1136,0.573,-0.5107,151.9531
11:16:04:581,-1.9152,-0.3592,13.8141,28.5642,0.215,0.6951,-0.4911,152.375
11:16:04:601,-1.9705,-0.2827,11.9728,28.2774,0.427,0.5473,-0.1484,152.4219
11:16:04:624,-0.7229,0.711,11.6569,28.3788,0.3415,0.3494,0.2523,153.4844
11:16:04:640,0.8692,1.5108,12.32,28.5255,0.0745,0.2724,0.3512,153.5938
11:16:04:661,0.9027,0.6703,13.783,28.701,-0.1234,0.2101,-0.0666,154.0625
11:16:04:679,-1.3071,-1.7237,14.4174,28.6706,-0.0305,0.1955,-0.6652,154.3594
11:16:04:700,-3.5599,-3.3087,13.4453,28.991,0.3085,0.3024,-0.8778,154.3594
11:16:04:724,-4.9558,-3.8474,10.3663,29.0414,0.6841,0.4759,-0.6408,154.1562
11:16:04:742,-5.1497,-3.1555,6.9643,28.9734,0.8485,0.4484,-0.1289,154.1562
11:16:04:760,-4.1536,-1.9534,5.2143,29.3664,0.6848,0.1478,0.3922,153.5312
11:16:04:780,-2.5089,-0.821,5.6453,29.5201,0.3085,-0.2144,0.7116,153.5312
11:16:04:800,-1.197,0.1507,7.1967,29.5167,-0.0849,-0.3445,0.8069,153.5312
11:16:04:825,-0.7301,0.6511,7.8981,29.6928,-0.3085,-0.19,0.7116,153.1406
11:16:04:841,-0.9673,0.7134,7.5293,29.7214,-0.3445,-0.0287,0.5522,153.875
11:16:04:860,-1.5849,0.4741,7.1465,29.7109,-0.2944,-0.0764,0.4545,153.875
11:16:04:881,-1.6831,0.3281,7.4575,29.9977,-0.2541,-0.2462,0.5088,154.6719
11:16:04:901,-1.2018,0.5411,8.0201,30.4102,-0.2352,-0.3195,0.6536,154.6719
11:16:04:924,-0.4454,0.9721,8.3435,30.5358,-0.1979,-0.2761,0.7575,154.0781
11:16:04:942,-0.0646,1.3502,8.3483,30.7116,-0.1038,-0.2291,0.7361,154.0781
11:16:04:961,0.1053,1.5012,8.1592,30.9183,0.0373,-0.2553,0.628,154.8281
11:16:04:981,0.2201,1.5778,7.8981,30.9842,0.1155,-0.2657,0.5027,154.8281
11:16:05:002,0.1268,1.6663,7.8718,31.2174,0.047,-0.1802,0.3903,156.5
11:16:05:025,0.1531,1.7261,8.1278,31.1078,-0.077,-0.0837,0.3183,156.6562
11:16:05:042,0.1819,1.8912,8.7266,31.0011,-0.1552,-0.0623,0.273,156.6562
11:16:05:062,-0.0096,2.1356,9.1454,31.1558,-0.1582,-0.0965,0.2315,156.6562
11:16:05:081,-0.2249,2.3581,9.7271,31.3442,-0.1264,-0.2114,0.1906,155.2188
11:16:05:101,-0.5004,1.5849,12.2889,31.5138,-0.1723,-0.4142,0.0806,155.0625
11:16:05:125,-0.4286,0.8354,13.6558,31.8274,-0.2169,-0.3433,0.0849,153.7031
11:16:05:143,-0.4406,0.7971,14.7332,31.9648,-0.1112,-0.3354,0.1716,153.5625
11:16:05:160,0.3114,1.5778,13.9409,32.1536,0.149,-0.3476,0.3311,152.5156
11:16:05:179,1.6137,2.0447,12.3679,32.6683,0.259,-0.3427,0.3732,150.9531
11:16:05:199,2.9112,1.7381,12.4253,33.0748,0.025,-0.3806,0.19,150.9531
11:16:05:220,3.5958,0.1795,15.2886,33.2935,-0.3598,-0.3677,-0.1845,149.4531
11:16:05:241,1.9606,-1.6256,17.5199,33.3801,-0.4227,-0.0819,-0.6341,149.4531
11:16:05:261,-0.2704,-2.7652,15.6526,33.8987,0.0409,0.361,-0.8308,148.4531
11:16:05:280,-0.9912,-3.2489,11.6091,34.0902,0.7031,0.4667,-0.6976,148.375
11:16:05:300,-0.7708,-2.7867,8.3339,34.4936,1.0635,0.2486,-0.4478,148.3594
11:16:05:325,-0.0718,-2.1308,6.615,34.6287,0.9822,-0.0092,-0.2645,147.6875
11:16:05:342,0.4789,-1.6208,6.7298,34.8438,0.5546,-0.0727,-0.1716,147.6875
11:16:05:361,0.8812,-0.7205,7.879,35.1031,0.0635,0.1002,-0.0776,147.1875
11:16:05:380,1.4414,0.5124,7.8407,35.2699,-0.1429,0.292,0.0367,146.9375
11:16:05:401,2.2504,1.7453,7.2589,35.5698,-0.0702,0.204,0.0611,146.9375
11:16:05:424,2.4275,2.5113,7.1441,35.478,0.0538,-0.055,-0.1197,146.6406
11:16:05:443,1.3167,2.3916,7.4815,35.6492,0.1124,-0.1808,-0.4563,146.6406
11:16:05:460,-0.3353,1.4773,7.3762,35.7966,0.1374,-0.1032,-0.7104,145.9531
11:16:05:481,-1.1803,1.1061,7.0412,36.2146,0.1307,0.0452,-0.697,145.9531
11:16:05:503,-1.3597,1.1204,6.6269,36.4605,0.0861,0.1759,-0.5553,145.9375
11:16:05:524,-1.3693,1.1635,6.3586,36.6456,0.0067,0.2449,-0.4282,145.9219
11:16:05:542,-1.1133,1.142,6.4953,37.1302,-0.1069,0.2449,-0.3158,147.3281
11:16:05:560,-0.7469,1.0965,7.2924,37.3601,-0.2456,0.2138,-0.2132,147.4688
11:16:05:581,-0.4071,1.2568,8.298,37.8231,-0.3457,0.1942,-0.1142,148.7969
11:16:05:603,-0.0526,1.9008,9.9882,38.1281,-0.361,0.1191,0.0354,148.9219
11:16:05:619,-0.2656,2.3055,11.056,38.4028,-0.3176,0.0629,0.0727,149.5625
11:16:05:642,-0.486,2.7485,12.131,38.6711,-0.237,0.0568,0.11,149.625
11:16:05:659,-0.3018,3.0165,12.7367,38.7558,-0.1081,0.1014,0.1295,149.6406
11:16:05:680,-0.1986,2.6791,12.9855,38.8212,0.0177,0.1778,0.0483,149.6875
11:16:05:700,-0.996,1.4581,13.1339,38.9556,0.0855,0.2981,-0.1203,149.6875
11:16:05:726,-2.1188,0.3425,13.019,39.1665,0.1319,0.4282,-0.1344,150.8906
11:16:05:743,-2.3653,0.5052,12.0446,39.295,0.1833,0.5046,0.1313,150.8906
11:16:05:760,-1.2544,1.2209,11.2235,39.4592,0.1668,0.3909,0.4783,151.0156
11:16:05:780,0.079,1.6687,12.1214,39.9043,0.0086,0.1417,0.6396,152.4062
11:16:05:800,1.1444,1.6328,14.2783,40.1091,-0.1808,0.0324,0.5094,152.4219
11:16:05:821,0.3903,0.4406,14.9273,40.5848,-0.1161,0.1362,0.0593,153.1875
11:16:05:842,-2.004,-1.2951,13.2538,40.7998,0.2016,0.2547,-0.3873,153.2031
11:16:05:860,-3.6317,-2.5857,11.0728,40.7413,0.5296,0.2095,-0.4722,153.4531
11:16:05:882,-4.1776,-2.9925,8.6928,40.9222,0.6554,0.0812,-0.2474,153.3281
11:16:05:902,-3.5264,-2.8346,7.4695,41.1738,0.4435,-0.047,0.1167,153.3281
11:16:05:926,-2.1715,-1.9801,8.068,41.4625,0.044,-0.1277,0.4374,153.0312
11:16:05:942,-0.8139,-0.6607,8.9444,41.7059,-0.2492,-0.0812,0.5858,153.0312
11:16:05:961,-0.4262,0.2489,8.6067,41.773,-0.3439,0.0782,0.5333,152.8125
11:16:05:980,-0.5171,0.7469,7.7306,41.8225,-0.3201,0.1258,0.4447,152.8125
11:16:06:002,-0.5746,1.0822,7.3403,42.1086,-0.2627,-0.0159,0.438,153.0625
11:16:06:025,-0.0933,1.5538,7.5269,42.507,-0.226,-0.1936,0.5046,153.0938
11:16:06:043,0.5506,1.9199,8.0034,42.8522,-0.2162,-0.2443,0.5174,152.5156
11:16:06:061,0.5483,1.707,8.1568,43.0379,-0.1643,-0.2034,0.3952,152.4531
11:16:06:081,0.1029,1.4151,8.0178,43.0833,-0.0189,-0.2388,0.2486,151.2656
11:16:06:104,-0.0502,1.3645,6.7753,42.7888,0.1423,-0.2449,0.0806,151.4688
11:16:06:120,-0.3281,1.2903,6.5862,43.1566,-0.0067,-0.1472,-0.0098,151.4688
11:16:06:142,-0.5913,1.3286,6.9212,43.1187,-0.1997,-0.0825,-0.0531,151.5
11:16:06:161,-0.3903,1.6735,7.4527,43.1557,-0.3464,-0.0635,-0.0446,152.3906
11:16:06:180,-0.1986,2.1715,8.243,42.9829,-0.4251,-0.1063,-0.0568,152.0312
11:16:06:200,-0.3951,2.5475,9.064,43.2315,-0.441,-0.168,-0.1142,152.0312
11:16:06:220,-0.7349,2.8131,9.6171,43.4708,-0.4398,-0.2052,-0.1637,151.9844
11:16:06:240,-0.9888,2.5881,10.6035,43.817,-0.5015,-0.2517,-0.2022,150.7812
11:16:06:261,-1.3908,1.5873,12.7128,44.1274,-0.6029,-0.3128,-0.2419,150.6562
11:16:06:280,-2.0136,0.1507,15.0302,44.2964,-0.5516,-0.3775,-0.2395,149.5625
11:16:06:299,-2.0949,-0.6918,16.0765,44.7702,-0.1985,-0.5143,-0.0855,149.5625
11:16:06:320,-1.4916,-0.0072,15.0805,45.1685,0.2187,-0.4759,0.2382,148.3906
11:16:06:342,0.0287,0.9888,12.5067,45.7996,0.3781,-0.2065,0.5253,148.375
11:16:06:360,1.7142,1.4629,11.3862,45.688,0.2291,-0.1686,0.5577,147.6719
11:16:06:381,3.0021,1.1085,12.7223,45.7996,-0.0953,-0.2743,0.3518,147.6562
11:16:06:402,3.2177,-0.2321,14.2926,45.8391,-0.2816,-0.2401,-0.0171,147.4688
11:16:06:426,2.205,-1.6304,14.482,46.232,-0.2291,-0.0367,-0.3757,147.5156
11:16:06:444,0.754,-2.6336,13.1291,46.0979,-0.0269,0.2682,-0.5791,147.5156
11:16:06:460,-0.2082,-2.9949,10.9337,46.2194,0.2883,0.4539,-0.5937,147.5156
11:16:06:532,-0.3305,-2.691,8.231,46.2686,0.5742,0.4258,-0.4649,147.5156
11:16:06:533,0.055,-2.1332,6.1074,46.2434,0.5992,0.2822,-0.3317,147.7031
11:16:06:533,0.5578,-1.6376,5.5831,46.5311,0.2847,0.1252,-0.2456,147.7031
11:16:06:544,0.9338,-0.9649,7.1608,46.3458,-0.2162,0.0452,-0.168,148.0469
11:16:06:560,1.3549,-0.0837,8.4679,46.552,-0.54,0.0544,-0.0641,148.0469
11:16:06:580,2.138,0.9888,9.6673,46.647,-0.5583,-0.0739,-0.0055,148.2969
11:16:06:603,2.4227,1.8505,10.3424,46.7685,-0.3525,-0.2114,-0.1185,148.3125
11:16:06:626,0.6416,1.3525,9.4878,46.653,0.0593,-0.0134,-0.6988,147.6406
11:16:06:642,-0.5124,0.6105,8.4033,46.8127,0.1497,0.1881,-0.832,147.5781
11:16:06:659,-1.1492,0.122,7.4216,47.0178,0.2016,0.2926,-0.7862,146.7031
11:16:06:680,-1.3167,-0.0909,6.4017,46.9117,0.2303,0.284,-0.6469,146.9375
11:16:06:699,-1.2305,-0.1388,5.8295,47.3234,0.1875,0.171,-0.4826,146.9375
11:16:06:720,-0.8907,0.0814,6.1361,47.1233,0.0464,0.0305,-0.3103,146.9844
11:16:06:740,-0.5076,0.5195,6.9954,47.0611,-0.1643,0.0122,-0.1662,148.1562
11:16:06:759,-0.5004,0.9529,7.8694,47.4407,-0.328,0.0654,-0.0867,148.2812
11:16:06:779,-0.7229,1.3262,8.5804,47.7625,-0.3567,0.0415,-0.0336,149.2031
11:16:06:799,-0.9529,1.5826,9.2459,47.7427,-0.3201,-0.0476,0.0299,149.2812
11:16:06:819,-1.1946,1.7692,10.1533,47.7367,-0.3347,-0.0867,0.11,149.75
11:16:06:840,-1.0487,1.8769,11.4126,47.893,-0.4007,-0.047,0.2065,149.7656
11:16:06:860,-0.4573,1.6519,12.6024,47.9066,-0.4374,0.0415,0.2559,149.6875
11:16:06:879,-0.5315,0.8812,13.7662,48.193,-0.3983,0.1387,0.1564,150.1875
11:16:06:900,-2.272,-0.498,14.3671,48.4354,-0.2511,0.2395,-0.0324,150.1875
11:16:06:923,-4.3095,-1.5514,13.6702,48.5913,-0.0104,0.3311,0.0134,151.8906
11:16:06:940,-4.2999,-1.7883,11.8579,48.5298,0.1741,0.3231,0.4465,151.8906
11:16:06:960,-1.8984,-1.1898,12.2172,48.7305,0.0971,0.0977,1.0226,153.5312
11:16:06:979,0.6105,0.0455,14.1873,48.6812,-0.0916,-0.033,1.3794,153.5312
11:16:07:000,2.4969,0.929,14.5825,48.9289,-0.0055,0.0226,1.35,154.4375
11:16:07:020,2.837,0.8788,13.4907,48.9558,0.3176,0.0018,0.9554,154.4375
11:16:07:040,1.6184,-0.1053,12.0637,48.9037,0.576,-0.0495,0.4618,154.625
11:16:07:060,0.5865,-0.8931,10.826,48.8263,0.6396,0.0128,0.1704,154.6562
11:16:07:079,0.0766,-1.2425,9.3826,48.66,0.584,0.1429,0.0617,154.5625
11:16:07:101,-0.1579,-1.3549,8.123,48.6058,0.46,0.1857,0.0086,154.5625
11:16:07:124,0.134,-0.5985,7.7809,48.5269,0.0342,-0.0379,-0.0617,154.1406
11:16:07:140,0.2536,0.2465,9.0138,48.4107,-0.2358,-0.0183,-0.1662,154.1094
11:16:07:160,-0.1101,0.7947,9.2076,48.206,-0.4221,0.215,-0.3329,153.5781
11:16:07:179,-0.2608,1.1109,9.1286,47.9985,-0.4624,0.3244,-0.4759,153.5156
11:16:07:199,0.0933,1.5826,9.6577,48.0755,-0.3781,0.2382,-0.5785,153.5156
11:16:07:219,0.2034,1.5634,9.696,47.7758,-0.1912,0.2016,-0.7287,153.5156
11:16:07:240,-0.3544,0.7899,9.4376,47.6533,0.0244,0.2425,-0.9187,152.0938
11:16:07:259,-1.4438,-0.1507,8.6856,47.6924,0.2462,0.3213,-0.9987,151.9531
11:16:07:280,-2.7173,-0.7899,7.1536,47.6905,0.4618,0.3573,-0.8863,149.2188
11:16:07:300,-3.3446,-1.0845,5.9542,47.9216,0.5858,0.2059,-0.6023,148.9531
11:16:07:320,-3.1172,-0.9314,5.4538,47.9401,0.493,0.0037,-0.2511,147.5156
11:16:07:340,-2.3127,-0.4525,6.0835,48.0543,0.1625,-0.1057,0.0238,147.5
11:16:07:360,-2.1476,-0.2177,7.5102,47.8908,-0.179,-0.0892,0.1338,147.4375
11:16:07:379,-2.4826,-0.1388,8.2119,48.1479,-0.2926,-0.0305,0.2211,147.5469
11:16:07:400,-2.0183,0.3449,8.2262,48.1282,-0.212,-0.0855,0.4264,147.5469
11:16:07:420,-0.9529,1.1635,8.2262,47.9853,-0.1429,-0.2297,0.6328,147.7812
11:16:07:440,0.1172,2.0997,8.8463,47.8977,-0.2181,-0.3836,0.6951,147.7812
11:16:07:459,1.1611,2.5113,10.6633,47.7662,-0.4148,-0.4899,0.5705,148.5
11:16:07:480,1.4103,2.1069,12.909,47.6125,-0.5418,-0.5082,0.2889,148.5
11:16:07:500,0.9553,1.3454,14.2807,47.6232,-0.4478,-0.5156,0.0287,149.8281
11:16:07:519,0.6248,1.2879,15.3509,47.9474,-0.2303,-0.5333,-0.0458,149.8281
11:16:07:540,1.0558,2.1858,14.3767,48.0315,0.0293,-0.3812,-0.0073,151.7812
11:16:07:559,2.0638,2.0375,12.6769,47.9703,0.2071,-0.3732,-0.1228,151.9844
11:16:07:580,2.5355,0.3377,13.6008,48.2121,0.0446,-0.5052,-0.4575,153.6406
11:16:07:600,1.8601,-2.1141,15.9589,48.0598,-0.3195,-0.2767,-0.8014,153.8125
11:16:07:620,0.2058,-3.1795,17.1706,48.296,-0.372,0.2211,-0.9279,154.1562
11:16:07:641,-0.9194,-3.4666,10.2371,48.503,0.9462,0.5449,-0.4801,154.2031
11:16:07:660,0.2994,-2.5403,7.9268,48.4319,1.2571,0.0892,-0.1729,153.7656
11:16:07:679,1.6831,-1.439,7.1058,48.2016,0.9328,-0.0324,-0.08,153.7344
11:16:07:699,1.6974,-0.5004,7.3331,47.8133,0.2046,0.2859,-0.2309,152.625
11:16:07:720,0.7516,0.0359,7.7569,47.8849,-0.4032,0.7068,-0.4453,152.5
11:16:07:741,-0.256,0.4501,7.8455,47.8254,-0.5302,0.7422,-0.576,151.1562
11:16:07:760,-1.3023,0.577,7.7569,48.0551,-0.3335,0.4496,-0.6554,151.0156
11:16:07:780,-1.8505,0.2417,7.5341,47.8939,-0.124,0.1826,-0.6542,150.5469
11:16:07:800,-2.4754,0.0407,7.5509,47.7216,-0.0696,0.1313,-0.5852,150.5
11:16:07:820,-2.7437,0.4765,7.5823,47.7583,-0.0855,0.2278,-0.4386,150.5156
11:16:07:841,-2.7197,0.874,7.1632,47.6544,-0.0513,0.2847,-0.3054,150.5156
11:16:07:860,-2.4945,0.6416,6.9428,48.0768,-0.0177,0.2107,-0.2462,151.1875
11:16:07:879,-2.5786,-0.0742,7.3642,48.1265,-0.0421,0.0886,-0.2187,152.9844
11:16:07:900,-2.6719,-0.7349,8.2214,48.0774,-0.0971,0.0165,-0.1136,152.9844
11:16:07:920,-2.4299,-0.9482,9.0688,48.0097,-0.1466,0.0757,0.0971,154.5938
11:16:07:940,-1.8553,-0.6153,9.2578,48.0891,-0.1234,0.1936,0.3561,154.5938
11:16:07:960,-1.0726,0.1603,8.9779,48.2139,0.0061,0.1649,0.5882,155.2188
11:16:07:979,-0.3353,0.984,8.7314,48.5095,0.1515,-0.0073,0.7245,155.2188
11:16:08:000,0.2345,1.7716,8.8463,48.5888,0.1753,-0.1381,0.7678,155.9062
11:16:08:019,0.6368,2.4251,9.5764,48.5578,0.0476,-0.1503,0.7312,155.9062
11:16:08:041,1.1396,2.6958,10.8835,48.6503,-0.1277,-0.0776,0.6102,157.1094
11:16:08:059,1.4028,2.1404,12.3679,48.6361,-0.1949,-0.0263,0.3708,157.1094
11:16:08:079,0.9649,1.1252,13.3567,48.7963,-0.0965,-0.0153,0.0947,158.3125
11:16:08:102,-0.3353,0.6823,13.529,48.7809,0.0922,0.0269,-0.0806,158.4375
11:16:08:124,-1.3908,0.4525,11.9441,48.7148,0.3024,0.0647,-0.1032,159.1719
11:16:08:146,-2.4514,0.213,10.6418,48.56,-0.1008,0.0238,0.0709,159.2344
11:16:08:162,-2.5738,0.0359,11.0895,48.5789,-0.5046,-0.0751,0.1326,159.7031
11:16:08:180,-1.5802,-2.0064,16.5407,48.2932,-0.6108,-0.2437,0.0812,159.75
11:16:08:199,-2.3725,-2.7317,18.0299,48.2491,-0.3042,-0.0892,0.0727,159.7188
11:16:08:221,-3.0571,-2.9949,15.2839,48.4893,0.3983,0.2413,0.248,159.7188
11:16:08:245,-2.2385,-2.0303,10.5293,48.2788,1.1698,0.2401,0.6188,158.7656
11:16:08:260,-0.9003,-0.6416,7.0244,48.2716,1.5248,-0.0788,0.8643,158.6719
11:16:08:280,0.256,0.1268,5.6836,48.2635,1.3054,-0.3402,0.8564,157.2344
11:16:08:299,1.331,0.9266,6.0332,47.9818,0.6939,-0.2932,0.7373,157.0938
11:16:08:321,1.6687,1.494,7.0122,47.8966,0.0214,0.0122,0.5211,155.6094
