Time,Acc_X,Acc_Y,Acc_Z,Meg,Gyr_X,Gyr_Y,Gyr_Z,Ore
10:45:44:731,-0.0335,1.4055,9.1047,57.0891,0.0776,0.1765,-0.3671,32.1875
10:45:44:752,-0.2728,1.7955,8.9659,57.1454,-0.0696,0.3042,-0.2016,32.1875
10:45:44:769,-0.1292,1.4725,8.8152,57.0632,-0.1912,0.1423,-0.0745,32.1875
10:45:44:787,0.4908,1.6639,8.9109,57.0616,-0.3384,-0.1179,-0.0751,32.1875
10:45:44:806,0.5291,1.3334,9.4304,57.0161,-0.4697,-0.2071,-0.1979,32.1875
10:45:44:827,0.5626,1.2329,10.1845,56.8662,-0.5174,0.0024,-0.281,32.1875
10:45:44:845,0.4143,1.3502,10.9651,56.8261,-0.4838,0.3757,-0.3329,32.1875
10:45:44:865,-0.201,1.343,10.7542,56.9773,-0.306,0.4007,-0.3415,32.1875
10:45:44:883,-0.6918,1.439,10.6059,57.0722,-0.0336,-0.0874,-0.2981,32.1875
10:45:44:904,-0.7325,1.4079,10.5389,57.0675,0.1759,-0.5247,-0.2126,32.1875
10:45:44:922,-0.1436,1.5969,10.328,57.1474,0.2761,-0.5699,-0.0904,32.1875
10:45:44:941,0.3138,1.5802,9.7893,57.1931,0.3244,-0.4013,-0.0012,32.1875
10:45:44:962,0.4454,1.5706,9.2988,57.141,0.3653,-0.4178,-0.0067,32.1875
10:45:44:980,0.2874,1.5634,9.1549,57.42,0.347,-0.6677,-0.0733,32.1875
10:45:45:001,0.2827,1.7548,9.0497,57.5474,0.2236,-0.7202,-0.0776,32.1875
10:45:45:019,0.28,1.7213,8.164,57.3347,0.0165,-0.6084,0.0183,32.1875
10:45:45:039,0.9242,1.7189,9.5142,57.1524,-0.2712,-0.8625,0.1381,32.1875
10:45:45:072,1.5897,1.6567,10.8739,57.1353,-0.4074,-1.0354,0.1381,32.1875
10:45:45:080,1.7142,1.063,10.4958,57.0348,-0.1704,-0.9694,0.0232,32.3281
10:45:45:098,1.2544,1.6352,10.0648,57.0285,0.0684,-0.7746,-0.1405,32.8281
10:45:45:119,1.0319,1.7189,10.285,56.788,0.1527,-0.3909,-0.1881,32.8281
10:45:45:139,1.1515,1.6496,10.1964,56.7277,0.2303,0.2266,-0.0159,33.4688
10:45:45:163,1.051,1.5993,9.6027,56.6158,0.2645,0.5174,0.1478,33.4688
10:45:45:179,1.0415,1.398,8.3291,56.4479,0.1888,0.0806,0.201,34.1562
10:45:45:199,1.3478,1.2185,7.6899,56.2705,-0.0299,-0.8815,0.1686,34.1562
10:45:45:219,2.0925,1.4677,8.2334,56.1103,-0.3641,-1.5498,0.1252,34.1719
10:45:45:239,1.9582,1.7237,8.5732,56.0162,-0.6768,-1.631,0.0867,34.3594
10:45:45:259,1.2855,1.3956,7.8144,55.558,-0.9346,-1.8387,0.1484,34.3594
10:45:45:279,2.2433,1.185,9.3778,55.5098,-1.1368,-2.6719,0.281,34.5625
10:45:45:298,4.5129,0.9051,12.6024,55.0702,-1.0617,-2.893,0.3097,34.7812
10:45:45:319,5.2167,0.8692,12.3703,54.3938,-0.4673,-1.9071,0.1668,34.7812
10:45:45:338,3.0957,0.766,9.6099,54.0756,0.0922,-0.879,-0.0354,34.7031
10:45:45:359,-0.3784,1.0319,9.5764,53.8811,0.2187,-0.5693,0.0043,34.7031
10:45:45:379,0.0431,0.6799,10.9675,53.6965,0.2883,-0.193,0.543,35.0156
10:45:45:399,5.1449,1.6639,9.5764,53.4942,0.656,0.4423,1.4246,35.0156
10:45:45:420,7.2278,1.7836,6.3203,53.226,0.7764,0.6011,1.6433,35.2188
10:45:45:438,6.871,0.3903,7.5461,53.0186,0.3415,0.1246,1.0042,35.2344
10:45:45:460,6.5815,-0.1125,7.7904,52.6336,-0.2297,0.157,0.2254,34.8125
10:45:45:479,4.7979,0.498,8.8223,52.691,-0.5589,-0.1014,-0.4172,34.7656
10:45:45:500,3.414,1.1085,10.1868,52.6191,-0.5388,0.8656,-0.7367,34.7344
10:45:45:521,2.9183,1.0128,10.218,52.9208,-0.3769,1.3775,-0.6499,34.7344
10:45:45:539,2.5499,0.9218,11.0704,52.8985,-0.1179,1.5834,-0.5534,34.9688
10:45:45:559,2.825,0.8524,11.1326,53.079,0.2388,1.9047,-0.46,34.9844
10:45:45:579,3.1244,0.7971,10.6298,53.4066,0.5797,2.2834,-0.5088,35.0938
10:45:45:599,2.5427,1.0463,9.7343,53.669,0.766,2.5046,-0.7013,35.2188
10:45:45:618,1.4438,1.2449,9.0305,54.0571,0.7898,2.2779,-0.7886,35.2188
10:45:45:639,0.9912,1.2832,8.7362,54.2728,0.6292,1.6365,-0.6915,34.625
10:45:45:660,1.5586,1.5467,9.5309,54.5102,0.3793,0.9627,-0.6151,34.625
10:45:45:680,1.3693,1.5873,9.9906,54.6371,0.2346,0.6799,-0.6738,34.5625
10:45:45:699,0.4478,1.4414,9.3323,54.8339,0.2352,0.6438,-0.7397,30.8281
10:45:45:719,-0.0885,1.6543,8.5181,54.831,0.2364,0.4105,-0.6371,30.7969
10:45:45:738,0.0191,1.9582,8.4918,55.0806,0.0861,0.1112,-0.3763,29.4219
10:45:45:759,0.2393,1.9271,8.9515,55.133,-0.1961,0.0892,-0.1191,29.4062
10:45:45:779,0.2201,1.5562,9.3586,55.0101,-0.4355,0.2052,0.0079,30.9531
10:45:45:799,-0.1484,1.3573,9.775,55.1899,-0.5174,0.1747,0.0183,32.5469
10:45:45:819,-0.1699,1.3525,10.5126,55.2657,-0.4447,0.014,0.0287,32.5469
10:45:45:838,0.2441,1.2233,10.9555,55.3261,-0.2553,-0.0281,0.1002,33.4531
10:45:45:859,0.297,1.1755,10.5341,55.5759,-0.0214,0.0562,0.1521,33.4531
10:45:45:880,0.2273,1.1683,10.0289,55.6296,0.1704,-0.0208,0.1515,34.3125
10:45:45:899,0.4238,1.2281,9.8758,55.6589,0.2321,-0.1167,0.1344,34.3125
10:45:45:919,0.4908,1.1444,9.7678,55.5912,0.193,-0.047,0.0916,35.5312
10:45:45:939,0.4621,1.1635,9.562,55.775,0.113,0.0299,0.0458,35.5312
10:45:45:959,0.4836,1.2903,9.361,55.7381,0.0458,-0.0513,0.0067,36.6562
10:45:45:979,0.7851,1.506,9.6171,55.601,-0.0104,-0.223,-0.0519,36.7656
10:45:45:999,0.6583,1.6089,9.6171,55.4957,-0.0385,-0.2517,-0.1142,38.0469
10:45:46:021,0.4765,1.5826,9.4567,55.1422,-0.0409,-0.2052,-0.1161,38.1719
10:45:46:039,0.5818,1.9056,9.95,55.1199,-0.1252,-0.0458,-0.0055,38.6562
10:45:46:059,0.5506,1.7357,10.0863,55.015,-0.1155,0.0043,0.0354,38.7031
10:45:46:080,0.7277,1.5754,9.8734,55.0462,-0.0452,-0.0269,0.11,38.6562
10:45:46:099,1.0606,1.6496,9.7678,54.8066,-0.0055,-0.099,0.1478,38.5312
10:45:46:119,1.1276,1.6472,9.9284,54.5735,-0.0098,-0.0861,0.0837,38.5312
10:45:46:139,0.929,1.7166,9.993,54.6648,-0.0165,0.0171,0.0116,38.2188
10:45:46:159,0.929,1.8673,9.8518,54.6553,0.0257,0.0281,0.0092,38.2188
10:45:46:180,1.0175,2.0064,9.641,54.8142,0.091,-0.0385,0.0275,38.1719
10:45:46:199,1.0367,2.0327,9.6338,54.7553,0.1191,-0.0696,0.0421,37.9375
10:45:46:219,1.1611,2.0231,9.6745,54.8409,0.1087,0.0202,0.0715,37.9375
10:45:46:239,1.3549,2.059,9.6242,54.7809,0.0715,0.1698,0.1136,37.875
10:45:46:259,1.4773,2.1547,9.7319,54.9695,0.0574,0.1955,0.1063,37.875
10:45:46:280,1.6208,2.2241,9.5836,55.0435,0.1136,0.0947,0.0354,38.1094
10:45:46:298,1.7453,2.2098,9.2052,55.0055,0.1875,-0.0501,-0.0208,38.3281
10:45:46:320,1.7979,2.3677,9.0305,54.9144,0.1796,-0.102,-0.0617,38.3281
10:45:46:339,1.4868,2.3079,8.8582,54.8808,0.0983,-0.036,-0.1026,38.3125
10:45:46:359,1.252,2.2528,8.7673,54.9515,-0.0092,0.0348,-0.1057,38.3125
10:45:46:380,1.4557,2.3868,8.918,54.9073,-0.1497,0.0996,-0.044,38.0469
10:45:46:399,1.4414,2.2983,9.294,54.9855,-0.2688,0.1374,0.0037,38.0469
10:45:46:420,1.2568,2.1763,9.4663,54.9706,-0.3134,0.1258,0.0012,37.9375
10:45:46:439,1.1372,2.15,9.4352,55.1054,-0.2871,0.0397,-0.0189,37.9375
10:45:46:459,1.264,2.2265,9.6434,55.1328,-0.2724,-0.0342,-0.0275,37.9062
10:45:46:482,1.3836,2.2744,9.9236,55.3338,-0.2828,0.0012,-0.0421,37.8906
10:45:46:498,1.2185,2.2504,10.0265,55.1733,-0.2504,0.0959,-0.0855,37.7812
10:45:46:565,0.8186,2.1236,9.9093,55.4313,-0.1454,0.113,-0.1423,37.7656
10:45:46:565,0.833,2.2672,9.6769,55.1672,-0.0647,0.0806,-0.1674,37.5156
10:45:46:566,0.7516,2.1858,9.7367,55.2161,-0.0788,0.1472,-0.1991,37.5
10:45:46:582,0.4789,2.0207,9.6912,55.2119,-0.0776,0.1283,-0.2223,37.4688
10:45:46:598,0.7923,2.205,10.0648,55.1901,-0.1399,0.0916,-0.193,37.6406
10:45:46:618,0.929,2.0662,10.6274,55.3308,-0.1949,0.0977,-0.1686,37.6406
10:45:46:639,0.6679,1.5754,10.7614,55.3173,-0.1203,0.0977,-0.1778,37.6562
10:45:46:658,0.7947,1.5802,10.625,55.2698,-0.0098,0.124,-0.1839,37.7969
10:45:46:680,1.0439,1.6807,10.6418,55.1348,0.0183,0.1759,-0.1955,37.8125
10:45:46:699,0.7205,1.3478,10.649,55.2549,0.0275,0.1851,-0.2364,37.7969
10:45:46:719,0.4501,1.1922,10.3065,55.2255,0.0513,0.1185,-0.27,37.7969
10:45:46:738,0.4741,1.3669,10.2443,55.085,0.0238,0.0379,-0.2792,37.8594
10:45:46:760,0.3951,1.1731,10.3591,54.8966,-0.0147,-0.0244,-0.2767,37.7344
10:45:46:779,0.2489,0.8115,10.3519,54.8056,0.0098,-0.0641,-0.2504,26.5
10:45:46:799,0.2874,0.6679,10.1151,54.7779,0.0446,-0.0385,-0.2138,26.7188
10:45:46:819,0.4119,0.5913,10.2371,54.9329,0.0012,0.0409,-0.1833,26.7188
10:45:46:839,0.2225,0.4167,10.7901,54.9977,-0.0611,0.168,-0.1814,27.1094
10:45:46:859,-0.1388,0.1651,11.0656,54.9501,-0.0116,0.2205,-0.2016,27.1094
10:45:46:880,-0.1866,0.2297,10.8547,55.1501,0.1521,0.1521,-0.2046,27.5625
10:45:46:899,-0.1244,0.5195,10.1988,55.346,0.3366,0.0385,-0.1961,27.5625
10:45:46:919,-0.3042,0.5602,9.562,55.3939,0.4642,-0.0574,-0.193,27.9375
10:45:46:938,-0.4621,0.644,9.0257,55.4871,0.4936,-0.0525,-0.1888,27.9375
10:45:46:959,-0.7421,0.833,8.4775,55.3783,0.4386,-0.0208,-0.1674,28.2812
10:45:46:979,-0.7923,1.0726,8.3267,55.4163,0.2993,-0.058,-0.0922,28.3125
10:45:46:999,-0.6727,1.1779,8.6258,55.23,0.0892,-0.0318,0.0409,28.7969
10:45:47:019,-0.6799,1.0798,8.9372,55.3874,-0.0935,0.0556,0.1747,28.8438
10:45:47:039,-0.6727,1.0726,9.1621,55.1398,-0.1936,0.0348,0.2529,29.3906
10:45:47:061,-0.5004,1.2281,9.883,55.189,-0.2602,-0.0165,0.2816,29.4531
10:45:47:080,-0.2201,1.331,10.3089,55.2974,-0.3341,0.1564,0.3354,29.9219
10:45:47:098,-0.2874,1.3836,10.1605,55.226,-0.2199,0.2682,0.2834,29.9688
10:45:47:118,-0.5746,1.5514,9.4567,55.1514,-0.0379,0.2187,0.1869,30.3125
10:45:47:138,-0.5076,1.8864,9.1238,55.1413,0.0348,0.1362,0.1527,30.3438
10:45:47:158,-0.4167,2.071,9.1621,55.2278,-0.025,0.1869,0.1869,30.7188
10:45:47:180,-0.4932,2.0183,9.2195,55.2645,-0.0605,0.2223,0.2138,30.75
10:45:47:199,-0.577,1.9992,9.0688,55.4331,-0.0464,0.16,0.2248,31.125
10:45:47:219,-0.6368,2.0997,8.8511,55.154,-0.0843,0.0977,0.2584,31.1562
10:45:47:239,-0.4047,2.0327,9.1669,54.9609,-0.193,0.0843,0.3152,31.5312
10:45:47:259,-0.2752,1.7979,9.7463,54.6425,-0.317,0.2187,0.361,31.5312
10:45:47:281,-0.2704,1.7357,10.1677,54.7946,-0.3476,0.3347,0.3525,31.5781
10:45:47:298,-0.1125,1.8458,10.2586,54.7141,-0.2498,0.2602,0.2798,31.1094
10:45:47:319,-0.0167,1.9657,9.9452,54.5227,-0.0971,0.077,0.1741,31.1094
10:45:47:339,-0.0479,2.0375,9.7295,54.2817,0.0024,-0.0305,0.0971,30.4844
10:45:47:359,-0.4047,2.0734,9.5022,54.1554,0.022,-0.0031,0.0593,30.4844
10:45:47:381,-0.443,2.2959,9.5261,54.2352,-0.0183,-0.0018,0.0562,29.7656
10:45:47:402,-0.4023,2.3462,9.8471,54.2253,-0.0977,0.0012,0.0819,29.7656
10:45:47:419,-0.486,2.083,10.3089,54.4329,-0.1234,0.0507,0.1142,29.3438
10:45:47:439,-0.213,1.9801,10.7758,54.4379,-0.0617,0.135,0.1478,29.3438
10:45:47:460,0.1507,2.0207,10.989,54.2835,0.0476,0.2297,0.1552,28.8594
10:45:47:481,0.0814,2.0088,10.8595,54.4178,0.1826,0.2706,0.1203,28.8594
10:45:47:499,-0.2417,1.7668,10.6729,54.3473,0.2981,0.2511,0.0782,28.3594
10:45:47:520,-0.364,1.7955,10.3881,54.3429,0.3048,0.2132,0.0666,28.2969
10:45:47:539,-0.0981,1.896,10.3304,54.4185,0.2162,0.1185,0.0812,27.6094
10:45:47:560,0.4717,1.8147,10.2275,54.2903,0.1148,-0.1839,-0.0122,27.5312
10:45:47:581,0.2417,1.8793,10.3161,53.9595,0.1228,-0.2657,-0.1759,26.8594
10:45:47:599,-0.7205,1.7405,10.3328,53.9525,0.1087,-0.237,-0.2676,26.7969
10:45:47:619,-1.3262,1.343,10.7064,53.822,0.0281,-0.1008,-0.1631,26.5156
10:45:47:639,-1.0367,1.0319,10.704,53.6307,-0.1032,0.1008,0.0861,26.4844
10:45:47:659,-0.012,0.9362,10.7949,53.8518,-0.2248,0.088,0.3079,26.375
10:45:47:681,0.8234,0.8453,10.7231,53.7937,-0.3195,-0.0446,0.3812,26.3594
10:45:47:699,1.2449,0.7086,10.4791,53.6432,-0.3506,-0.1759,0.3079,26.1562
10:45:47:719,1.6017,0.874,10.0433,53.7037,-0.3079,-0.2566,0.1607,26.1406
10:45:47:738,1.8075,1.3095,9.5285,53.6453,-0.1967,-0.328,-0.022,25.7969
10:45:47:758,1.6998,1.4581,8.9013,53.4617,-0.0281,-0.3732,-0.2132,25.7656
10:45:47:780,1.185,1.2927,8.2358,53.3838,0.1234,-0.3036,-0.3451,25.4844
10:45:47:799,1.0104,1.4701,8.0704,53.304,0.1497,-0.1179,-0.3622,25.2812
10:45:47:820,0.7229,1.5084,8.1111,53.0174,0.0819,0.1075,-0.3262,25.2812
10:45:47:838,0.4597,1.2066,8.3794,52.7574,0.0263,0.2407,-0.2547,25.2188
10:45:47:860,0.5219,1.0726,8.6593,52.6864,-0.0159,0.3451,-0.1564,25.2188
10:45:47:882,0.8788,1.2449,8.9037,52.5446,-0.0507,0.4068,-0.11,25.7656
10:45:47:898,1.2209,1.439,8.9635,52.7401,-0.0397,0.3317,-0.1607,25.7656
10:45:47:920,1.2879,1.4916,8.8798,52.691,0.0189,0.1668,-0.2694,25.8594
10:45:47:938,1.209,1.6041,8.5564,52.7369,0.0629,0.0373,-0.3555,25.8594
10:45:47:960,1.3023,1.8482,8.4488,52.79,0.025,-0.0684,-0.3824,25.1094
10:45:47:981,1.3119,1.8553,8.6737,53.0378,-0.0641,-0.1405,-0.3879,25.1094
10:45:48:000,1.051,1.7692,8.9635,53.2605,-0.135,-0.102,-0.4013,24.6875
10:45:48:019,0.8354,1.8099,9.428,52.9223,-0.1955,0.0476,-0.3854,24.6406
10:45:48:039,0.6105,1.8147,10.1533,52.9315,-0.2333,0.1881,-0.3641,24.9375
10:45:48:059,0.4669,1.7429,10.6083,52.8562,-0.193,0.2223,-0.3708,24.9688
10:45:48:081,0.2441,1.5419,10.7566,52.8194,-0.1063,0.1045,-0.3561,25.7031
10:45:48:101,-0.2273,1.5179,10.9508,52.7557,-0.0562,-0.0116,-0.3042,25.7812
10:45:48:121,-0.8692,1.561,11.1446,52.7349,-0.0562,0.0086,-0.2999,26.3281
10:45:48:139,-0.941,1.4581,11.6186,52.5208,-0.1014,-0.0892,-0.2614,26.3906
10:45:48:159,-0.5985,1.185,11.8388,52.4197,-0.0647,-0.0519,-0.1631,26.5938
10:45:48:179,-0.3903,0.984,11.5708,52.6238,0.0843,0.025,-0.1051,26.6094
10:45:48:200,-0.6248,1.1396,10.6801,52.6495,0.2676,-0.0385,-0.1362,26.9844
10:45:48:219,-1.0487,1.1827,9.8181,52.5478,0.3219,-0.2175,-0.1942,27.0312
10:45:48:239,-1.695,0.632,9.4807,52.6979,0.1362,-0.2004,-0.1637,27.7656
10:45:48:258,-2.2839,-0.2441,9.8758,52.5275,-0.2303,0.1118,0.0312,27.8438
10:45:48:281,-2.059,-0.5267,10.7064,52.6792,-0.5632,0.4594,0.306,28.7344
10:45:48:299,-0.8163,-0.2632,11.2642,52.6964,-0.642,0.452,0.4862,29.5469
10:45:48:321,0.5004,0.1268,11.3384,52.6735,-0.4239,0.1625,0.4484,29.5469
10:45:48:338,0.5578,0.1268,10.4336,52.6661,-0.0367,-0.058,0.2132,30.3125
10:45:48:359,-0.2922,0.0335,9.5213,52.3994,0.3115,-0.0837,-0.0617,30.3125
10:45:48:380,-1.0726,0.4286,8.5947,52.5022,0.4288,0.1203,-0.2028,30.9844
10:45:48:400,-1.5203,0.711,8.3722,52.3677,0.314,0.2388,-0.1497,30.9844
10:45:48:419,-1.6232,0.4693,8.6761,52.639,0.0385,0.2755,0.1148,31.625
10:45:48:439,-1.2377,0.1675,9.3514,52.4493,-0.215,0.2321,0.419,31.625
10:45:48:460,-0.2776,0.4836,9.8013,52.3653,-0.2938,0.1118,0.5076,31.9375
10:45:48:482,0.0837,0.874,9.7726,52.4317,-0.1765,-0.0501,0.3329,31.9375
10:45:48:500,-0.28,1.1444,9.5046,52.4598,0.0318,-0.1148,0.0959,32.2812
10:45:48:520,-1.1109,1.2903,9.0855,52.7406,0.2217,-0.0165,-0.0177,32.3125
10:45:48:538,-2.0471,1.5371,8.5756,52.4678,0.3311,0.1112,0.0104,32.4531
10:45:48:559,-2.3246,1.8482,8.2621,52.3245,0.2914,0.1405,0.215,32.4688
10:45:48:614,-1.7333,1.9247,8.5493,52.0613,0.1338,0.1045,0.4783,31.6094
10:45:48:614,-0.9362,1.8123,9.198,52.0742,-0.0183,0.2474,0.5467,31.5312
10:45:48:620,-1.0845,1.8075,9.6362,51.9194,0.0739,0.2083,0.4154,30.8438
10:45:48:638,-1.1348,2.0518,9.629,51.5567,0.146,0.1289,0.3372,30.7812
10:45:48:658,-0.7469,2.3509,9.7846,51.4512,0.1283,0.066,0.3427,31.0312
10:45:48:679,-0.3233,2.3222,10.2156,51.2375,0.0806,-0.0086,0.3506,31.0625
10:45:48:700,-0.189,2.0973,10.716,51.3991,0.0794,0.0104,0.2969,31.0625
10:45:48:719,-0.3425,1.9606,10.9938,51.4198,0.1374,0.0849,0.2046,31.0625
10:45:48:738,-0.2034,2.0495,10.838,51.4143,0.2077,0.0531,0.1417,30.1094
10:45:48:759,0.3688,2.2792,10.6753,51.1469,0.2089,-0.0971,0.1283,30.0156
10:45:48:780,0.6751,2.2193,10.7399,51.1616,0.1319,-0.226,0.1008,29.5469
10:45:48:799,0.6033,1.7979,10.9579,50.9572,0.0751,-0.3488,0.0281,29.5469
10:45:48:819,0.1268,1.13,10.8595,50.8263,0.0525,-0.4636,-0.0165,29.5469
10:45:48:839,0.2273,0.699,10.8835,50.6018,-0.0385,-0.4197,0.0037,28.7656
10:45:48:860,0.7947,0.6894,11.779,50.3763,-0.2749,-0.1295,0.0519,28.7656
10:45:48:879,0.8979,0.5171,12.5474,50.1028,-0.4245,0.1924,0.0403,27.4688
10:45:48:899,0.7899,0.2273,12.3751,49.9891,-0.2847,0.2621,-0.0568,27.4688
10:45:48:920,0.9529,0.5124,10.9627,49.9844,0.0409,0.0195,-0.1888,26.5938
10:45:48:939,1.4366,1.1228,9.6577,49.7346,0.3476,-0.4294,-0.3402,26.5938
10:45:48:959,1.3071,1.118,8.5493,49.5953,0.4813,-0.54,-0.4581,25.8281
10:45:48:980,0.7445,1.0654,7.9699,49.4776,0.4704,-0.2694,-0.4923,25.8281
10:45:49:000,-0.0191,1.319,7.6947,49.388,0.372,0.0409,-0.4465,25.2656
10:45:49:019,-0.4023,1.4342,7.9938,49.2553,0.2052,0.1466,-0.317,25.2656
10:45:49:039,-0.2728,1.0917,8.6378,49.224,-0.0318,0.2327,-0.0489,25
10:45:49:059,0.2704,0.7493,9.0568,49.1568,-0.1668,0.3024,0.2022,24.9688
10:45:49:079,1.0128,0.7851,8.9276,48.9275,-0.1185,0.2169,0.2541,24.9062
10:45:49:100,1.9463,1.2257,8.8152,48.7752,-0.0134,0.0031,0.0959,24.9062
10:45:49:120,1.9968,1.5682,8.5851,48.6852,0.1051,-0.1112,-0.3793,25
10:45:49:140,0.6153,2.0375,7.8718,48.5019,0.1295,-0.1448,-0.4691,25.0156
10:45:49:159,0.7181,2.3414,8.0632,48.593,0.0788,-0.2199,-0.4349,24.9062
10:45:49:179,0.9386,2.3031,8.5038,48.6837,-0.0293,-0.1423,-0.3268,24.9062
10:45:49:200,0.6799,2.0064,9.0664,48.5704,-0.0843,0.0287,-0.2584,25.125
10:45:49:218,0.3832,2.1308,9.3538,48.213,-0.0623,0.1209,-0.2743,25.1406
10:45:49:239,0.376,2.2528,10.0146,48.1398,-0.0324,0.0715,-0.2993,26.0312
10:45:49:258,0.1914,1.9992,10.5628,48.1872,-0.0226,0.0794,-0.2651,26.125
10:45:49:279,-0.1819,1.7166,10.7614,48.22,0.0073,0.0721,-0.2169,27.0781
10:45:49:299,-0.079,1.6831,11.2427,48.3789,0.0067,0.0483,-0.2278,27.5312
10:45:49:319,-0.3736,1.6472,11.6402,48.301,-0.0531,0.1955,-0.2694,27.5312
10:45:49:339,-0.9147,1.4581,11.7239,47.984,-0.0531,0.2822,-0.2724,26.9844
10:45:49:360,-1.0175,1.4055,11.6139,47.9785,-0.0037,0.2266,-0.2083,26.9844
10:45:49:379,-0.699,1.4892,11.7072,48.3534,0.0024,0.1894,-0.1252,27.0625
10:45:49:401,-1.2066,0.9099,11.5158,48.3247,-0.0171,0.3042,-0.0898,27.0625
10:45:49:420,-2.2002,0.1172,11.3097,48.4486,-0.0751,0.4575,-0.0556,28.0156
10:45:49:439,-2.5475,-0.134,11.1159,48.5819,-0.215,0.4899,0.0666,28.0156
10:45:49:459,-1.1755,0.486,11.3145,48.4436,-0.3372,0.1552,0.2346,28.9062
10:45:49:479,-0.0239,0.6392,11.4006,48.2758,-0.2553,-0.2614,0.2376,28.9062
10:45:49:500,-0.5961,0.067,10.5772,48.3823,0.0629,-0.3036,0.0324,29.4844
10:45:49:520,-1.7836,0.1149,9.4496,48.3125,0.3903,-0.0745,-0.1918,29.4844
10:45:49:538,-2.8011,0.8477,8.3818,48.0363,0.4923,0.1503,-0.2566,30.0312
10:45:49:559,-3.457,1.0487,7.9771,48.1047,0.3518,0.19,-0.102,30.0781
10:45:49:579,-3.5504,0.4549,8.0584,47.9834,0.0696,0.2236,0.2737,30.5156
10:45:49:601,-2.7197,0.2584,8.5588,47.7084,-0.215,0.2785,0.6652,30.5625
10:45:49:622,-1.2209,0.6799,9.1717,47.7203,-0.3799,0.2223,0.8265,31.0469
10:45:49:640,-0.3497,0.8859,9.5094,47.7209,-0.3659,0.0727,0.7251,31.0938
10:45:49:659,-1.2401,1.0487,8.3937,47.784,0.077,-0.0855,0.2944,31.3906
10:45:49:679,-1.5467,1.5275,7.9555,47.557,0.19,-0.0922,0.2511,31.4219
10:45:49:701,-1.427,1.8888,8.1784,47.7752,0.0861,0.044,0.3262,31.4844
10:45:49:718,-1.6998,1.7859,8.6067,47.7163,-0.0544,0.237,0.4337,31.4844
10:45:49:739,-1.7812,1.695,8.8822,47.8277,-0.0409,0.2798,0.5009,31.1094
10:45:49:759,-1.2999,1.9681,9.0951,48.0501,0.0458,0.1912,0.5223,31.0781
10:45:49:779,-0.9458,2.0471,9.6936,47.877,0.0519,0.157,0.5119,30.8594
10:45:49:799,-0.9386,1.9487,9.9906,47.9564,0.055,0.2114,0.4862,31.3281
10:45:49:819,-0.5267,2.0399,10.2538,48.098,0.146,0.135,0.4319,31.3281
10:45:49:839,-0.0502,2.4156,10.4288,48.3267,0.2352,0.0232,0.314,31.1094
10:45:49:860,-0.3903,2.3916,10.6609,48.205,0.284,-0.0116,0.1649,31.1094
10:45:49:879,-0.8716,2.2074,10.6849,48.3321,0.3079,0.0843,0.1222,29.4062
10:45:49:901,-0.7469,2.1691,10.692,48.2961,0.2981,0.1069,0.2114,29.4062
10:45:49:919,0.0622,2.2409,10.6753,48.2433,0.2272,-0.0299,0.295,28.0312
10:45:49:939,0.2489,1.9056,10.6777,48.3855,0.1228,-0.2382,0.2614,28.0312
10:45:49:959,-0.1507,1.4533,10.6896,48.3783,0.0147,-0.3653,0.1594,27.4531
10:45:49:979,-0.3377,1.0343,11.7431,47.9885,-0.1246,-0.2932,0.1032,27.4531
10:45:50:002,-0.3353,0.7564,12.5809,48.048,-0.2602,0.0874,0.1203,26.5938
10:45:50:019,0.2177,0.8453,12.3033,47.8915,-0.1668,0.2755,0.1271,26.5938
10:45:50:040,1.0822,1.13,10.7447,47.8559,0.168,-0.0574,0.0647,25.4062
10:45:50:060,1.5084,1.3047,9.0999,47.6857,0.4759,-0.5388,-0.0812,25.4062
10:45:50:079,1.1659,1.4294,8.0536,47.4712,0.5058,-0.598,-0.2358,24.3594
10:45:50:101,0.1292,1.4486,7.6851,47.2607,0.2553,-0.2669,-0.2889,24.2656
10:45:50:119,-0.917,1.2664,7.9149,47.0612,-0.1087,0.044,-0.1997,23.5
10:45:50:140,-0.2177,0.5698,10.0193,47.0007,-0.7477,0.2743,0.3427,23.4375
10:45:50:160,0.5698,0.5578,10.5221,46.7677,-0.7739,0.2853,0.4771,23.125
10:45:50:179,1.4174,0.9529,10.4575,46.6826,-0.565,0.0525,0.3744,23.125
10:45:50:203,1.6902,1.2903,9.9236,46.4273,-0.2346,-0.1991,0.0916,22.625
10:45:50:219,1.13,1.3238,9.0784,46.1639,0.0953,-0.2407,-0.1625,22.5625
10:45:50:240,0.4884,1.6902,8.432,46.0796,0.3036,-0.0977,-0.2401,22.2188
10:45:50:259,-0.055,2.1858,7.8694,46.1429,0.3696,0.0073,-0.212,22.1875
10:45:50:279,-0.2608,2.2935,7.9316,46.0153,0.306,-0.0696,-0.1161,21.9844
10:45:50:301,-0.0622,2.2361,8.4488,46.2008,0.1307,-0.1417,0.0415,21.7188
10:45:50:319,0.4023,2.1069,9.2387,46.2152,-0.0012,-0.1497,0.157,21.7188
10:45:50:339,0.553,1.9391,9.6458,46.2208,-0.0128,-0.1356,0.1936,22.2344
10:45:50:360,0.079,1.7501,10.0433,46.4214,-0.0177,-0.1283,0.1863,22.2344
10:45:50:379,-0.3616,1.6615,10.8763,46.5002,-0.0977,-0.0733,0.171,22.8125
10:45:50:403,-0.8378,1.4079,11.5708,46.761,-0.171,0.0452,0.1961,22.8125
10:45:50:419,-1.0582,0.7971,11.8819,46.7473,-0.124,0.0855,0.2889,22.3125
10:45:50:439,-0.5961,0.8115,11.4915,47.2725,-0.0257,0.0727,0.4044,22.3125
10:45:50:460,0.0502,1.2999,10.9531,47.3109,0.0434,-0.0635,0.4019,21.3281
10:45:50:479,-0.6488,1.1396,10.4551,47.3495,0.033,-0.1753,0.27,21.3281
10:45:50:502,-2.059,0.7253,10.6083,47.4196,-0.1264,-0.1228,0.2077,21.4375
10:45:50:520,-2.5977,0.5794,11.1159,47.2647,-0.3598,0.0232,0.35,21.4375
10:45:50:540,-2.1045,0.2776,11.5011,47.3588,-0.4551,0.168,0.6347,21.9531
10:45:50:559,-1.4174,-0.0263,11.3336,47.244,-0.35,0.2584,0.8992,21.9531
10:45:50:579,-0.8186,0.0359,10.9843,47.168,-0.1668,0.2627,0.9725,22.0625
10:45:50:598,-0.6081,0.2898,10.4216,46.9027,0.0134,0.2529,0.8509,22.0625
10:45:50:665,-1.0367,0.6296,9.2411,46.766,0.215,0.1326,0.6389,21.75
10:45:50:666,-1.4725,0.8812,8.7027,46.6678,0.3665,-0.1148,0.5088,21.7188
10:45:50:666,-2.1045,1.118,8.1159,46.5572,0.3274,-0.0727,0.5718,21.3906
10:45:50:680,-2.473,0.7708,8.0034,46.225,-0.0116,0.0428,0.912,21.3594
10:45:50:699,-1.9415,0.7301,8.6498,46.2723,-0.215,-0.0837,1.036,20.8594
10:45:50:720,-1.3047,0.7923,9.7176,46.1451,-0.3861,0.0263,1.1099,20.7969
10:45:50:740,-1.2449,0.6655,9.9667,46.0329,-0.4178,0.3946,1.174,20
10:45:50:759,-1.561,0.7181,9.4424,45.6607,-0.2981,0.5198,1.2443,19.9219
10:45:50:778,-1.4773,1.4004,8.4559,45.456,-0.1643,0.1356,1.2785,19.4688
10:45:50:799,-0.5339,1.951,8.6115,45.2964,-0.1558,-0.4392,1.1912,18.4219
10:45:50:819,-0.7421,1.7237,8.9348,45.2237,-0.2248,-0.3708,1.014,18.4219
10:45:50:839,-1.1635,1.6448,8.8941,45.3996,-0.2242,0.0318,0.9706,16.2031
10:45:50:859,-0.7253,1.762,8.997,45.3312,-0.1246,0.0452,1.0592,16.2031
10:45:50:879,0.0335,1.6902,9.1119,45.3826,-0.0067,-0.0415,1.0879,14.5156
10:45:50:899,-0.2874,1.4749,8.8271,45.5019,0.1753,-0.044,0.9731,14.5156
10:45:50:921,-0.1962,2.0207,10.2993,45.9389,0.7306,-0.3916,0.8656,13.3438
10:45:50:938,-0.2441,2.6097,8.7649,46.119,0.9022,0.0983,0.8558,13.3438
10:45:50:959,-0.3903,2.4826,7.9627,46.2684,0.5363,0.6139,0.9798,11.6719
10:45:50:979,-0.2106,2.0542,8.2095,46.231,-0.0037,0.6438,1.1582,11.5156
10:45:51:000,0.1866,1.4916,9.4831,46.231,-0.2456,0.124,1.1563,9.1562
10:45:51:020,0.4214,1.3765,11.1111,46.2257,-0.1985,-0.2016,0.9651,9.1562
10:45:51:060,0.6416,1.992,12.8492,46.153,0.0489,-0.1466,0.7666,6.4062
10:45:51:060,-0.0957,2.0542,12.2052,46.1098,0.5186,-0.0177,0.642,6.4062
10:45:51:088,-0.9266,1.6448,10.5126,45.955,1.0885,-0.2804,0.6811,3.9531
10:45:51:099,-0.1603,1.8266,10.6825,45.9147,1.4099,-0.5681,0.9041,3.7188
10:45:51:125,0.1723,1.3932,11.3599,46.109,1.427,-0.0635,1.1734,1.75
10:45:51:139,-0.4765,1.0678,11.5708,46.4142,1.3005,0.9951,1.4777,1.5625
10:45:51:160,-0.7253,1.3956,10.7949,46.6788,1.149,1.4234,1.62,359.4062
10:45:51:181,2.6169,2.4347,10.4216,46.7209,1.0042,-0.3268,1.2217,359.2031
10:45:51:200,2.3486,1.9175,9.3634,46.9389,0.9847,-0.6945,0.832,357.3594
10:45:51:222,1.0367,2.126,9.1573,47.4967,0.8937,-0.7434,0.452,357.1719
10:45:51:239,2.217,3.0045,8.8415,47.6313,0.7483,-0.7709,0.2963,355.2188
10:45:51:258,2.5065,3.3326,9.3108,47.877,0.5504,-0.6414,0.2114,355.0312
10:45:51:279,1.1803,2.916,10.4169,48.077,0.3726,-0.0055,0.1741,352.6406
10:45:51:299,-2.0542,1.9367,8.9611,48.0451,0.4545,0.5467,0.4881,350.6875
10:45:51:322,-1.3645,3.5527,6.9021,48.2854,0.5479,0.369,1.2712,350.6875
10:45:51:339,1.2473,3.6942,7.1273,48.4945,0.4985,-0.3763,1.8998,349.0312
10:45:51:358,2.581,3.7445,9.198,48.4647,0.5632,-0.6334,2.1692,349.0312
10:45:51:379,3.6293,4.7234,9.2701,48.3386,0.8161,0.146,2.0476,346.6875
10:45:51:401,3.335,4.8506,7.4767,48.4272,1.0299,0.9743,1.6072,346.6875
10:45:51:419,2.6791,4.6923,5.9973,48.6081,1.0739,0.9468,1.229,342.7656
10:45:51:439,2.7796,4.4363,6.6078,48.6446,1.069,0.1063,1.105,342.7656
10:45:51:459,3.3589,4.3525,8.176,48.9731,1.0024,-0.4429,0.9731,342.7344
10:45:51:480,2.9997,4.1752,8.487,49.0803,0.8662,-0.3231,0.6292,339.6094
10:45:51:503,2.3653,4.721,8.1254,49.2586,0.8753,-0.4203,0.3323,338.3594
10:45:51:520,2.2146,5.3605,8.2454,49.7025,1.0213,-1.149,0.3036,338.3594
10:45:51:539,2.1882,5.3124,9.1573,49.7575,1.0684,-1.4478,0.4068,338.0156
10:45:51:560,2.5113,5.5902,8.5277,50.1483,0.8772,-0.6542,0.5705,338.0156
10:45:51:580,3.0858,5.9973,8.7458,50.2834,0.711,-0.0415,0.7446,337.0938
10:45:51:599,3.1795,5.6477,8.5134,50.6479,0.6157,0.1698,0.7623,337.0938
10:45:51:620,3.2393,5.6309,8.1087,50.867,0.4704,0.113,0.6328,333.8438
10:45:51:640,3.4666,5.9614,8.5971,51.0867,0.2712,-0.0635,0.4429,333.5312
10:45:51:659,2.5283,6.1098,8.8271,51.4038,0.0501,0.1203,0.2217,329.2812
10:45:51:681,1.1324,5.7793,11.1015,51.5361,-0.1619,0.4997,0.3671,328.8594
10:45:51:703,2.2863,5.6237,10.273,51.9474,0.0452,0.5082,0.7807,325.3125
10:45:51:719,3.2752,5.662,8.6593,52.3134,0.2052,0.3103,1.003,324.9688
10:45:51:739,2.5041,5.5328,7.4886,52.4671,0.1332,0.1484,0.81,322.7031
10:45:51:759,1.3645,5.6524,8.231,52.4088,-0.022,0.0953,0.4795,322.4844
10:45:51:778,0.3114,5.6405,9.3897,52.4148,0.0446,0.1912,0.3311,321.4844
10:45:51:799,0.2034,5.1497,9.0927,52.5039,0.3665,0.295,0.5156,321.0938
10:45:51:819,0.7397,5.0157,8.0201,52.3343,0.5601,0.4759,0.8582,321.0938
10:45:51:839,1.4581,5.1281,7.3187,52.3298,0.4545,0.7263,1.1197,319.6875
10:45:51:859,2.1811,5.4203,7.2996,52.1653,0.2242,0.8515,1.1698,319.6875
10:45:51:879,2.2193,5.1736,7.3834,51.8129,0.0348,0.7923,1.0164,317.7031
10:45:51:898,1.9319,4.7593,7.223,51.9551,-0.0696,0.7538,0.8393,317.7031
10:45:51:919,1.9343,4.8553,7.2852,51.9314,-0.1319,0.7617,0.766,317.6875
10:45:51:939,2.004,4.9606,7.1584,52.1541,-0.1643,0.8417,0.7446,316.875
10:45:51:960,2.2792,5.0348,6.8973,52.1042,-0.2211,0.9969,0.7098,316.8594
10:45:51:979,2.5953,5.4658,6.7896,52.2867,-0.3604,1.2003,0.6402,316.0781
10:45:51:999,2.6456,5.8223,6.5456,52.2764,-0.5986,1.4191,0.529,313.7969
10:45:52:020,2.4873,5.3677,6.9141,52.5046,-0.9004,1.6023,0.3317,313.7969
10:45:52:039,2.217,4.9319,7.9723,52.5306,-1.1618,1.6854,0.0391,312.25
10:45:52:059,1.6759,4.8075,9.4519,52.5464,-1.1667,1.5553,-0.2437,312.25
10:45:52:079,0.996,4.6253,9.993,52.5703,-0.8955,1.3727,-0.3274,311.0625
10:45:52:099,0.7516,4.4507,10.0265,52.4691,-0.54,1.1496,-0.2511,311.0625
10:45:52:120,1.1683,4.7186,10.2084,52.5637,-0.2462,0.8808,-0.1936,308.5312
10:45:52:139,0.7995,4.8721,10.0983,52.7157,-0.0415,0.606,-0.2645,308.2812
10:45:52:159,0.4478,4.4004,9.5883,52.7874,0.0837,0.3183,-0.3091,305.5469
10:45:52:179,0.8907,4.0244,9.1884,52.9382,0.066,0.0751,-0.2608,305.2656
10:45:52:202,1.7213,4.2281,9.6123,53.0067,-0.1002,-0.0281,-0.2169,303.25
10:45:52:221,0.9553,4.1608,10.1749,52.9901,-0.4722,0.4917,-0.2114,303.0469
10:45:52:240,0.3927,3.5192,9.8013,53.1873,-0.6951,0.7855,-0.1362,301.1406
10:45:52:259,0.7421,3.1962,9.9595,53.167,-0.9743,0.8338,-0.0098,300.9531
10:45:52:278,1.5179,2.8657,10.0911,53.107,-1.1808,0.6738,-0.0495,299.2344
10:45:52:298,1.2544,2.5137,10.1725,53.2084,-1.2174,0.3928,-0.2706,298.1719
10:45:52:320,0.6153,2.0327,9.6218,53.1072,-1.1124,0.099,-0.4679,298.1719
10:45:52:339,0.1938,1.8242,9.4496,52.9282,-0.9322,-0.2486,-0.5272,298.2344
10:45:52:359,-0.079,1.8003,9.6242,52.918,-0.7165,-0.5119,-0.4441,298.2344
10:45:52:378,-0.1675,1.908,9.5022,52.6675,-0.5149,-0.5094,-0.2321,298.2344
10:45:52:398,-0.0622,1.8625,9.0018,52.3658,-0.3799,-0.306,0.0489,298.3438
10:45:52:420,0.4501,1.9199,9.1669,52.5559,-0.3409,-0.0721,0.2883,298.3438
10:45:52:439,0.7397,2.1882,8.9563,52.4829,-0.3341,0.16,0.3732,298.75
10:45:52:460,1.0343,2.2911,8.4177,52.2415,-0.3457,0.2712,0.3042,298.7656
10:45:52:480,1.439,2.3414,8.3363,52.1007,-0.3775,0.2016,0.1167,299.2656
10:45:52:499,1.5275,2.1978,8.3674,52.092,-0.4038,0.1142,-0.1136,299.6562
10:45:52:521,1.4103,2.2528,8.2382,51.9477,-0.4374,0.0843,-0.2883,299.6562
10:45:52:539,1.2018,2.3103,7.8909,52.11,-0.4429,-0.0409,-0.3971,299.5781
10:45:52:559,1.118,2.126,7.6325,52.1665,-0.4111,-0.2932,-0.4752,299.5781
10:45:52:579,1.0247,2.2002,8.5134,51.8973,-0.4111,-0.4355,-0.4893,299.8281
10:45:52:599,0.5028,2.4084,9.3634,51.7086,-0.4478,-0.1997,-0.4508,299.8281
10:45:52:621,0.2249,2.4682,9.1286,51.4156,-0.4423,0.0849,-0.4117,300.8906
10:45:52:639,-0.0096,2.1763,9.2964,51.4188,-0.3647,-0.0299,-0.4123,301
10:45:52:659,-0.3712,1.7501,10.0217,51.3635,-0.2834,-0.2401,-0.4025,301.8594
10:45:52:716,-0.8453,1.7692,10.4169,51.447,-0.2822,-0.1545,-0.27,301.9531
10:45:52:716,-0.5315,2.0231,10.1533,51.292,-0.3641,0.0128,-0.0483,301.7031
10:45:52:724,0.419,2.0327,10.8619,51.2202,-0.4966,-0.0849,-0.1381,301.6719
10:45:52:740,-0.2946,0.4382,12.131,51.2257,-0.3396,-0.2437,-0.2559,300.9688
10:45:52:759,-0.2656,0.6535,11.968,51.3293,-0.1075,-0.3677,-0.1466,300.9062
10:45:52:778,-0.256,1.1133,10.8619,51.5009,-0.0055,-0.2932,-0.0238,300.8906
10:45:52:799,-1.2281,0.8354,10.9193,51.1968,-0.1442,-0.0446,0.0079,301.5938
10:45:52:821,-2.1188,0.1316,11.7957,50.8825,-0.3903,0.4508,0.182,301.5938
10:45:52:839,-1.561,-0.0359,12.6191,50.7425,-0.4655,0.8857,0.6011,302.7344
10:45:52:859,0.0048,0.3544,11.8555,50.7186,-0.1961,0.7855,0.959,302.7344
10:45:52:879,0.498,0.5722,9.8037,50.644,0.1918,0.2504,0.9804,302.8438
10:45:52:898,0.4454,0.7086,8.4081,50.3439,0.2755,-0.1344,0.8179,303.8438
10:45:52:921,0.213,0.9242,8.93,50.2958,0.044,-0.1277,0.6964,303.8594
10:45:52:939,-0.2632,1.3645,9.4472,50.1429,-0.1735,0.1759,0.7239,304.7969
10:45:52:959,-0.5028,1.3669,8.8463,50.428,-0.2792,0.4251,0.9254,304.8125
10:45:52:979,-0.2489,0.0048,9.2219,50.5919,-0.4801,0.5186,1.2877,305.2031
10:45:52:998,0.7062,-0.7588,9.5022,50.3385,-0.7196,0.6872,1.5907,305.375
10:45:53:032,1.3286,-0.4334,8.9731,50.1741,-0.9267,0.7629,1.4411,305.375
10:45:53:042,2.1212,1.0199,9.1693,50.3188,-1.0189,0.4215,0.8778,305.875
10:45:53:060,2.059,1.5897,9.3634,50.2266,-0.9401,-0.0947,0.1643,305.875
10:45:53:080,2.3725,2.1117,9.0042,50.1851,-0.7452,-0.4526,-0.4288,305.9375
10:45:53:099,-0.0359,-0.1412,8.3124,50.1456,-0.5711,-0.6133,-0.879,305.9375
10:45:53:122,-1.4055,-1.5419,7.6923,49.8281,-0.5901,-0.6108,-0.8442,305.0469
10:45:53:139,-1.1683,-1.1779,8.8343,49.5056,-0.741,-0.6127,-0.4551,305.0469
10:45:53:159,-0.0694,0.2898,11.2355,49.3248,-0.7703,-0.3971,-0.0666,303.0625
10:45:53:180,0.3449,1.0582,10.5078,49.0281,-0.5302,0.0904,0.0886,302.8594
10:45:53:199,0.055,0.8812,9.3514,48.7651,-0.2413,0.1997,0.0452,301.3281
10:45:53:222,0.2776,0.7875,9.8375,48.8482,0.058,-0.179,-0.0018,301.1875
10:45:53:241,0.833,1.2544,11.8436,48.4319,0.5296,-0.5412,-0.022,299.5156
10:45:53:261,0.0191,1.0702,11.3815,48.3948,1.2419,-0.4606,-0.1216,299.3594
10:45:53:279,0.3185,-0.1795,9.5596,48.5657,1.964,-0.1161,0.2425,296.4688
10:45:53:299,1.6232,1.3884,7.9101,48.6569,1.1062,0.7428,0.62,296.1719
10:45:53:323,1.9032,1.6639,9.2172,48.9112,0.2181,0.8027,0.5149,293.8438
10:45:53:339,1.5156,0.9099,11.5086,49.3624,-0.0794,0.0421,0.2621,293.875
10:45:53:365,1.6639,0.6894,11.8819,49.2551,-0.0464,-0.3995,0.1533,293.875
10:45:53:379,2.0877,0.6918,11.2714,49.2658,0.0489,-0.4306,0.0513,293.9062
10:45:53:398,2.2983,0.3832,11.0489,49.5941,0.1283,-0.336,-0.1521,295.625
10:45:53:419,2.1523,0.5459,10.5437,49.7606,0.0983,-0.0794,-0.2902,295.7969
10:45:53:439,2.1787,0.8477,11.0728,49.7693,-0.0568,0.1442,-0.2957,296.4219
10:45:53:460,1.9008,0.352,11.2666,49.5893,-0.0983,0.2981,-0.3231,296.4375
10:45:53:480,1.9558,0.0096,10.3905,49.6577,-0.0195,0.3879,-0.3427,296.3281
10:45:53:499,1.7405,-0.0024,9.2315,49.6336,-0.0226,0.2926,-0.3812,296.2969
10:45:53:521,1.185,-0.0287,9.1454,49.8043,-0.2248,0.0647,-0.408,296.2969
10:45:53:539,1.2042,-0.1316,10.084,49.788,-0.4551,-0.0977,-0.3677,296.3594
10:45:53:559,1.051,-0.5339,10.7542,49.7149,-0.4923,-0.0269,-0.2963,296.3594
10:45:53:580,0.8019,-0.7086,10.7782,49.4394,-0.3696,0.3048,-0.2388,295.25
10:45:53:599,0.9673,-0.3018,10.0385,49.2454,-0.1753,0.6139,-0.2303,295.25
10:45:53:619,0.6918,-0.0502,8.8487,49.4936,0.0727,0.4661,-0.3011,294.3594
10:45:53:640,0.9721,0.6368,7.8814,49.2966,0.1942,0.1478,-0.3396,294.3594
10:45:53:660,1.0798,1.0295,7.5054,48.9049,0.1942,-0.0776,-0.3531,294.1719
10:45:53:680,0.8306,1.1252,7.2135,48.834,0.1649,-0.1246,-0.3775,294.1562
10:45:53:699,0.7875,1.4103,7.1154,48.8763,0.0849,0.0147,-0.3683,294.5938
10:45:53:720,0.8091,1.5395,8.0369,48.6781,-0.0348,0.1619,-0.3219,294.6406
10:45:53:740,0.28,1.1133,8.7434,48.5451,0.0086,0.306,-0.1686,295.25
10:45:53:761,0.2898,0.9458,9.3873,48.6533,0.0293,0.3244,-0.0861,295.3125
10:45:53:779,0.7851,1.008,10.7758,48.338,0.11,0.284,-0.0904,296.0156
10:45:53:799,0.3879,0.6583,10.7375,48.212,0.2089,0.2089,-0.1179,296.0938
10:45:53:819,-0.0933,0.4119,11.001,48.0695,0.2132,0.1808,-0.1277,296.8906
10:45:53:840,-0.2584,0.3951,11.0297,47.8502,0.1393,0.2065,-0.1148,296.9688
10:45:53:864,0.1651,0.4334,11.5086,47.5693,0.0684,0.1539,-0.091,297.5469
10:45:53:879,0.3568,0.3449,11.3264,47.419,0.0709,0.1087,-0.1295,297.5938
10:45:53:899,0.0144,0.2994,10.8882,47.5485,0.0721,0.113,-0.1967,298.1094
10:45:53:925,-0.5363,0.2154,10.9579,47.1706,-0.0287,0.1625,-0.2217,298.1719
10:45:53:942,-0.917,0.0837,12.5737,47.1635,-0.1552,0.284,-0.1997,298.9219
10:45:53:960,-1.4222,-0.1244,12.7199,46.8955,-0.0489,0.5052,-0.1625,298.9219
10:45:53:982,-2.1978,-0.6176,12.0063,46.9634,0.1423,0.6512,-0.0574,299.7344
10:45:53:999,-1.9753,-0.443,11.2546,46.7095,0.1796,0.6878,0.124,300.3906
10:45:54:021,-1.1635,0.256,10.1007,46.5825,0.223,0.3457,0.2382,300.3906
10:45:54:042,-0.5889,0.5722,8.7936,46.7131,0.2761,-0.215,0.2584,300.6562
10:45:54:060,-0.5124,0.5411,8.3435,46.4185,0.2052,-0.5779,0.2199,300.6562
10:45:54:080,-1.2209,0.1723,8.4296,46.4652,0.0739,-0.5632,0.16,300.875
10:45:54:100,-2.0542,0.1651,8.7266,46.331,-0.0715,-0.3121,0.193,300.875
10:45:54:126,-2.2816,0.3066,9.5596,46.1263,-0.1558,-0.0886,0.3781,301.125
10:45:54:141,-1.4079,0.2417,9.6769,45.802,-0.0812,0.044,0.6267,301.125
10:45:54:161,-0.2177,0.1244,9.4783,45.612,0.0458,0.1228,0.7501,301.3594
10:45:54:181,0.3401,0.2489,8.796,45.2712,0.1106,0.1973,0.6481,301.3594
10:45:54:199,0.0191,0.6392,8.1278,44.8682,0.0922,0.0996,0.4294,301.7656
10:45:54:225,-0.3784,1.3334,8.2813,44.754,0.0122,-0.1161,0.2902,301.8125
10:45:54:243,-0.5315,1.6615,8.2669,44.5177,0.0147,-0.2669,0.2883,302.1406
10:45:54:266,-0.4621,1.7381,8.068,44.1492,0.069,-0.2602,0.3506,302.1875
10:45:54:281,-0.1412,1.8864,8.6976,43.9,0.0079,0.0086,0.3653,302.0781
10:45:54:300,-0.201,1.9848,9.361,43.808,0.025,0.066,0.328,302.0781
10:45:54:320,0.1866,2.2457,10.0672,43.7069,0.0953,0.1759,0.2999,301.5781
10:45:54:344,0.4549,2.3964,10.0505,43.6506,0.2443,0.292,0.2278,301.5469
10:45:54:359,0.3185,2.4969,9.4926,43.4146,0.3781,0.3121,0.1209,301.2031
10:45:54:380,0.2922,2.4969,9.2677,43.3017,0.3781,0.2248,0.0214,301.1719
10:45:54:399,0.3951,2.3701,9.7056,43.0758,0.2718,0.1387,-0.0519,300.6094
10:45:54:421,0.4573,2.1835,10.5413,42.9119,0.1503,0.1032,-0.1124,300.5625
10:45:54:441,0.3832,2.1069,11.7024,43.0346,0.1026,0.1319,-0.1582,299.0469
10:45:54:459,0.3808,1.8218,12.2148,43.0622,0.2156,0.2144,-0.1704,299.0312
10:45:54:481,0.4765,1.5778,11.3623,43.2306,0.3732,0.2401,-0.1808,297.8438
10:45:54:499,0.376,1.5203,10.1821,43.2313,0.3861,0.0611,-0.2199,297.2188
10:45:54:520,0.2058,1.5347,9.3275,43.0861,0.1888,-0.2046,-0.2419,297.2188
10:45:54:541,0.3042,1.3669,9.6984,42.8418,-0.1417,-0.449,-0.2114,296.4062
10:45:54:560,0.4573,0.9123,11.4939,42.7269,-0.4368,-0.5039,-0.1686,296.4062
10:45:54:580,0.6775,0.5865,13.0837,42.4586,-0.4618,-0.3464,-0.1759,295.625
10:45:54:600,1.0606,0.7038,12.8372,42.209,-0.171,-0.1527,-0.2456,295.625
10:45:54:620,1.0391,0.7469,11.1422,41.6361,0.226,-0.0702,-0.3433,295.0312
10:45:54:642,0.443,0.7373,8.7075,40.8884,0.394,0.0195,-0.3751,295.0312
10:45:54:662,-0.0574,0.644,7.4671,40.5519,0.1289,0.0409,-0.2932,294.8438
10:45:54:680,0.0024,0.4789,8.7577,40.5215,-0.4142,-0.0446,-0.1662,294.8438
10:45:54:700,0.3018,0.0502,11.0441,40.2518,-0.7471,-0.1051,-0.0776,295
10:45:54:764,0.5195,-0.309,12.0975,40.0784,-0.6304,0.0232,-0.0611,295.0156
10:45:54:764,0.2584,-0.4382,11.1087,39.754,-0.2315,0.2071,-0.1399,295.3281
10:45:54:764,0.3066,0.0431,9.1525,39.3164,0.0892,0.1735,-0.2303,295.3594
10:45:54:782,1.1779,1.1061,8.1254,39.0781,0.1484,-0.3586,-0.3958,295.7656
10:45:54:800,0.7851,1.1539,7.4575,38.9394,0.2376,-0.4203,-0.4997,295.7969
10:45:54:820,0.4454,1.4294,6.591,38.3241,0.2621,-0.3146,-0.5149,296.2969
10:45:54:843,0.4597,1.7859,6.8542,37.8279,0.1515,-0.2156,-0.4502,296.3438
10:45:54:859,0.3736,1.7142,7.5748,37.4022,0.0476,-0.0519,-0.3885,296.7344
10:45:54:879,0.1651,1.3789,7.812,36.7758,0.0037,0.1613,-0.3433,296.7812
10:45:54:899,-0.201,1.3214,8.5301,36.6866,-0.1185,0.3268,-0.306,297.375
10:45:54:920,-0.4238,1.3717,9.7678,36.4415,-0.2767,0.35,-0.2584,297.4375
10:45:54:942,-0.297,1.4414,11.6904,36.0827,-0.325,0.2236,-0.1924,298.1094
10:45:54:959,-0.7062,0.9769,12.2387,35.8214,-0.135,0.1759,-0.1643,298.1719
10:45:54:979,-0.8163,0.6751,11.6593,35.6949,0.0635,0.2871,-0.1142,298.4531
10:45:54:999,-0.6823,0.833,11.1254,35.2031,0.0745,0.3268,-0.0825,298.6562
10:45:55:021,-0.5124,1.0439,10.7303,34.6971,-0.0153,0.1942,-0.0727,298.6562
10:45:55:041,-0.4501,1.0008,11.0273,34.552,-0.1454,0.0299,-0.0452,299.2188
10:45:55:062,-0.6751,0.8955,11.7694,34.3209,-0.2223,-0.0757,-0.0721,299.2188
10:45:55:080,-1.1779,0.754,12.3105,34.0224,-0.1582,-0.0788,-0.1295,300.25
10:45:55:099,-2.1619,0.4143,12.0398,33.9218,-0.0202,0.0855,-0.1558,300.25
10:45:55:120,-3.5025,-0.0048,11.6856,33.5114,0.0073,0.3164,-0.0727,301.3438
10:45:55:143,-3.3398,-0.067,11.6833,33.2253,-0.0531,0.4355,0.2199,301.3438
10:45:55:160,-1.6256,0.3688,11.4509,32.9461,0.0006,0.2993,0.5424,302.1562
10:45:55:180,-0.4932,0.5818,10.2012,32.8363,0.2114,0.0421,0.6047,302.1562
10:45:55:200,-0.778,0.4047,8.7338,32.6418,0.3635,-0.11,0.4563,302.6875
10:45:55:219,-1.6041,0.2922,8.1278,32.0856,0.2895,-0.0476,0.3451,302.7344
10:45:55:242,-2.2241,0.3114,8.2549,31.8004,0.0812,0.1167,0.4019,303.0625
10:45:55:261,-2.0662,0.2874,9.0281,31.6419,-0.1081,0.2407,0.6041,303.1094
10:45:55:279,-1.4198,0.0861,9.1525,31.7095,-0.1857,0.2926,0.8002,303.2812
10:45:55:301,0.079,0.3999,9.1765,31.8204,-0.2559,-0.0281,0.7752,303.2969
10:45:55:321,0.1579,0.7062,9.1789,32.1337,-0.19,-0.1979,0.595,303.4062
10:45:55:343,-0.268,0.9314,8.432,32.2235,-0.0586,-0.1985,0.4441,303.4062
10:45:55:362,-0.6559,1.3095,7.9436,32.1778,-0.0049,-0.0983,0.3812,303.6094
10:45:55:380,-0.821,1.6424,7.9388,31.9929,-0.0489,0.033,0.3952,303.625
10:45:55:400,-0.699,1.6735,8.2717,32.1978,-0.0928,0.0959,0.4484,303.8438
10:45:55:419,-0.6799,1.6759,8.4368,32.1141,-0.11,0.0336,0.46,303.8594
10:45:55:443,-0.5889,1.9439,8.6737,31.8251,-0.1252,-0.0611,0.4368,303.0781
10:45:55:461,-0.4669,2.2504,9.6529,31.5567,-0.1234,-0.0593,0.4319,303
10:45:55:480,-0.3855,2.2337,10.2754,31.2681,-0.0171,0.0849,0.4423,301.8594
10:45:55:499,-0.0909,2.2624,9.9212,31.1611,0.1662,0.1625,0.4471,301.0312
10:45:55:520,0.4167,2.1188,9.7008,30.9203,0.2535,0.0391,0.4142,301.0312
10:45:55:543,0.6918,1.7979,10.2012,31.1273,0.1967,-0.1252,0.3024,299.4531
10:45:55:561,0.3975,1.5969,10.946,30.7784,0.1301,-0.2205,0.1374,299.4531
10:45:55:579,0.1819,1.7907,11.3432,30.6708,0.1069,-0.2083,0.0391,297.6094
10:45:55:600,0.0622,1.7955,11.5875,30.5705,0.1326,-0.1936,0.0275,297.6094
10:45:55:620,0.2752,1.5347,11.0082,30.611,0.2077,-0.1802,0.044,296.4688
10:45:55:644,0.5483,1.4797,10.273,30.642,0.1778,-0.1222,0.0183,296.4688
10:45:55:660,0.9625,1.6519,10.4527,30.6117,0.0116,-0.1741,-0.0647,295.6094
10:45:55:680,1.4127,1.8577,11.1278,30.7973,-0.1112,-0.3537,-0.1716,295.6094
10:45:55:699,1.1611,1.7501,10.9074,30.8977,-0.0678,-0.4881,-0.2828,294.6094
10:45:55:721,0.9051,1.5323,10.2251,30.8364,0.0061,-0.4991,-0.3256,294.6094
10:45:55:743,1.4964,1.319,10.9026,30.6871,-0.0696,-0.3189,-0.3201,293.7344
10:45:55:761,1.6567,0.9673,12.2698,30.8443,-0.0593,0.0012,-0.3946,293.6406
10:45:55:780,1.3047,0.7158,11.5062,30.6433,0.2144,0.2944,-0.5082,292.75
10:45:55:800,0.3903,0.6488,10.0528,30.5601,0.3036,0.3128,-0.5143,292.6562
10:45:55:822,-0.3209,0.5171,9.1573,30.3753,-0.0354,0.1515,-0.3213,291.9531
10:45:55:845,0.4813,0.122,10.5293,30.1624,-0.3097,0.0177,-0.1729,291.875
10:45:55:859,0.9123,-0.3497,11.2499,29.8768,-0.3158,0.0531,-0.1863,291.7188
10:45:55:879,0.5315,-0.3927,10.5939,29.7,-0.149,0.1356,-0.3244,291.7031
10:45:55:899,-0.0359,0.0335,9.4902,29.5507,-0.0208,0.0922,-0.4258,291.6562
10:45:55:919,-0.0909,0.6416,8.7051,29.3239,0.0348,-0.0696,-0.4111,291.6562
10:45:55:944,0.4908,1.075,8.123,29.2746,0.1081,-0.1924,-0.3341,291.7188
10:45:55:960,0.9051,1.2999,7.5341,29.3384,0.2022,-0.0861,-0.3048,291.7188
10:45:55:980,0.9864,1.6831,7.101,29.2599,0.259,0.2297,-0.339,292.2188
10:45:56:000,0.7708,2.0542,6.9165,29.2382,0.2602,0.4923,-0.3824,293.0312
10:45:56:020,0.6081,2.1452,7.5126,29.0682,0.204,0.5864,-0.3799,293.0312
10:45:56:043,0.4095,2.0782,8.1616,29.1618,0.1552,0.609,-0.3494,294
10:45:56:061,-0.1364,1.8529,8.1712,29.135,0.1368,0.5125,-0.3372,294
10:45:56:081,-0.4214,1.9681,8.5995,29.2273,0.0293,0.3146,-0.3073,295.1562
10:45:56:099,-0.3999,2.0949,10.1031,29.1604,-0.1319,0.1173,-0.2743,295.1562
10:45:56:119,-0.7804,1.6376,11.0967,28.9569,-0.1472,-0.0024,-0.2645,295.7031
10:45:56:143,-1.3956,1.3525,11.1494,28.8858,-0.0837,-0.0593,-0.248,295.7031
10:45:56:161,-1.5179,1.4246,10.649,28.6985,-0.0776,-0.1283,-0.1912,296.25
10:45:56:180,-0.7684,1.5897,10.7853,28.8203,-0.1643,-0.2755,-0.1008,296.25
10:45:56:200,-0.1962,1.6878,11.2451,28.6957,-0.2016,-0.3732,-0.0861,297.1719
10:45:56:220,-0.3353,1.4677,11.1876,28.69,-0.0916,-0.2456,-0.1533,297.1719
10:45:56:245,-0.6918,1.4988,10.917,28.6786,0.0049,0.124,-0.226,297.8281
10:45:56:260,-1.3717,1.6089,11.0608,28.4382,-0.011,0.4862,-0.2761,297.8906
10:45:56:279,-2.406,1.2664,11.3336,28.2331,-0.0244,0.6554,-0.2498,298.5781
10:45:56:299,-3.1172,0.6607,10.7949,28.2829,-0.0391,0.7074,-0.0916,298.6562
10:45:56:322,-1.8912,0.3329,10.8667,28.3056,-0.3787,0.3128,0.4264,299.3281
10:45:56:344,-0.5794,0.929,10.3543,28.2038,-0.3237,-0.1698,0.5351,299.3906
10:45:56:363,-0.146,1.0941,9.5285,28.2733,-0.1399,-0.4636,0.4832,300.0469
10:45:56:379,-0.7875,0.6105,9.1813,28.1245,-0.0434,-0.3451,0.358,300.0469
10:45:56:400,-2.0973,0.0981,9.3299,28.1225,-0.0837,0.1185,0.2914,300.5781
10:45:56:420,-3.0236,0.067,9.6242,28.3059,-0.1759,0.4679,0.3971,300.625
10:45:56:444,-2.7102,0.0335,9.8542,28.4764,-0.2511,0.4215,0.656,301.0625
10:45:56:460,-1.5802,0.0646,10.0744,28.2738,-0.2706,0.1698,0.8674,301.1094
10:45:56:480,-0.5913,0.2177,9.8085,28.2145,-0.204,-0.047,0.8643,301.3281
10:45:56:499,-0.0502,0.687,9.2483,28.3237,-0.1167,-0.1637,0.6683,301.7656
10:45:56:521,-0.2994,1.1396,8.5062,28.3056,-0.0348,-0.2333,0.4099,301.7656
10:45:56:539,-0.7971,1.5443,7.7234,28.5642,0.0061,-0.2193,0.2712,302.2812
10:45:56:561,-1.1109,1.8888,7.2182,28.6074,-0.0623,-0.1478,0.2908,302.2812
10:45:56:582,-0.6416,1.992,7.7282,28.7556,-0.226,-0.1106,0.3946,302.1094
10:45:56:599,-0.2273,1.8793,9.1119,28.8846,-0.3158,-0.0965,0.4258,302.1094
10:45:56:620,-0.3138,1.7166,9.5788,29.2162,-0.201,0.0336,0.3464,301
10:45:56:644,-0.687,1.8123,9.4376,29.4408,-0.033,0.1674,0.2456,301
10:45:56:661,-0.8596,2.0112,9.7032,29.5596,0.0745,0.1063,0.1784,300.0938
10:45:56:681,-0.8139,1.8984,9.6864,29.8255,0.1967,-0.0403,0.1448,300.0938
10:45:56:700,-0.3712,2.0088,9.4304,29.6703,0.2566,-0.0544,0.1112,299.2969
10:45:56:721,-0.1675,2.0877,9.5836,29.7424,0.2089,-0.0403,0.0244,299.2969
10:45:56:744,-0.3353,1.8697,10.0983,29.9906,0.16,-0.0696,-0.0794,297.7188
10:45:56:763,-0.5076,1.6998,10.7758,30.0186,0.1252,-0.0458,-0.1472,297.5625
10:45:56:816,-0.7732,1.4868,11.3001,29.9742,0.1234,-0.0373,-0.1918,296.0156
10:45:56:817,-0.7516,1.4103,11.3719,30.2262,0.1545,-0.0904,-0.1979,295.8594
10:45:56:824,-0.5291,1.4222,11.3073,30.1979,0.1753,-0.1594,-0.1863,295.1875
10:45:56:845,-0.2058,1.264,10.7973,30.1385,0.0733,-0.0061,-0.2095,295.1094
10:45:56:859,-0.2536,1.4581,10.9122,30.368,-0.0373,-0.0159,-0.201,294.4219
10:45:56:880,0.1555,1.2209,11.5517,30.155,-0.0782,-0.1716,-0.1301,294.3594
10:45:56:899,0.8979,0.7684,11.8364,30.0625,0.0073,-0.2181,-0.1051,293.5469
10:45:56:919,1.427,0.7756,11.1541,30.117,0.1594,-0.102,-0.2181,293.4688
10:45:56:939,1.1133,0.8668,9.6601,30.1576,0.295,-0.0623,-0.4148,293.0312
10:45:56:961,0.4549,0.8835,8.8654,30.1103,0.2407,-0.0593,-0.5198,293
10:45:56:979,0.0167,0.7828,8.9659,30.188,0.0055,-0.0043,-0.4893,292.7656
10:45:56:999,-0.1316,0.6655,9.3227,30.2508,-0.2382,0.044,-0.3891,292.8281
10:45:57:019,-0.2874,0.3449,9.5931,30.4334,-0.405,0.0079,-0.2798,292.8281
10:45:57:039,-0.6368,-0.0957,9.4902,30.6786,-0.5186,-0.0916,-0.2059,293.2031
10:45:57:061,-0.5124,-0.1675,9.9595,30.6848,-0.6536,-0.2352,-0.1466,293.2031
10:45:57:079,0.3233,0.0263,11.4796,30.6752,-0.6835,-0.3531,-0.1252,293.6719
10:45:57:099,1.0223,0.4167,11.7861,30.6199,-0.3543,-0.3415,-0.2303,293.6719
10:45:57:119,0.8764,0.7181,9.7822,30.4389,0.2065,-0.2254,-0.4142,294.125
10:45:57:140,0.4956,1.1515,7.4862,30.2514,0.5534,-0.1381,-0.518,294.125
10:45:57:162,0.5961,1.5849,6.2964,30.2402,0.5241,-0.1448,-0.5253,294.5
10:45:57:180,0.8955,1.9056,7.0316,30.0474,0.3079,-0.1545,-0.5204,294.5
10:45:57:199,0.6846,1.9825,7.6493,29.9915,0.2083,-0.0476,-0.5546,294.875
10:45:57:220,0.122,2.0877,7.1919,29.9357,0.2138,0.0446,-0.5742,294.875
10:45:57:239,-0.0957,2.1906,6.926,30.0119,0.0568,-0.0617,-0.518,295.9375
10:45:57:259,-0.2249,2.1452,8.2956,29.7766,-0.2859,-0.3256,-0.4453,295.9375
10:45:57:279,-0.5124,1.9343,10.072,29.7624,-0.5235,-0.5094,-0.3683,296.7969
10:45:57:300,-0.6631,1.573,11.3815,29.7848,-0.5247,-0.5107,-0.2395,296.8906
10:45:57:319,-0.2489,1.1827,12.5689,29.763,-0.3738,-0.3219,-0.1002,297.3438
10:45:57:339,0.1507,0.778,12.6386,29.9039,-0.0629,0.0043,-0.0611,297.3906
10:45:57:360,0.4669,0.6846,11.415,29.9186,0.2572,0.3201,-0.1014,297.625
10:45:57:381,0.7708,0.9745,10.3448,30.0862,0.3628,0.4325,-0.2071,297.6562
10:45:57:399,-0.5148,1.0032,10.4839,29.8634,0.1283,0.3201,-0.4282,298.2969
10:45:57:419,-1.331,1.0678,10.6801,30.1563,0.0086,0.2474,-0.4294,298.375
10:45:57:439,-2.3581,0.4932,10.5006,30.0991,-0.0849,0.1429,-0.3482,299.4531
10:45:57:462,-2.9327,-0.486,10.7542,30.2099,-0.2877,0.1814,-0.1338,299.5625
10:45:57:479,-2.3892,-1.0415,12.4205,30.0683,-0.5864,0.4642,0.1851,300.6562
10:45:57:499,-0.8668,-0.5794,13.5936,29.9478,-0.5901,0.5742,0.4117,301.875
10:45:57:519,0.2536,0.0407,12.9305,29.8269,-0.1796,0.3158,0.4019,301.875
10:45:57:540,-0.3736,-0.1172,10.3519,29.5914,0.3146,-0.0092,0.1814,302.8906
10:45:57:560,-1.5467,-0.1412,8.3698,29.8843,0.452,-0.1197,0.0287,302.8906
10:45:57:579,-2.4682,0.0598,8.2549,29.8602,0.2309,-0.0293,0.0733,303.2812
10:45:57:598,-2.4203,0.2417,9.009,30.1715,-0.036,0.1521,0.3305,303.2812
10:45:57:621,-1.2951,0.2369,9.5477,30.2494,-0.1051,0.1985,0.6408,303.4688
10:45:57:639,-0.1938,0.2512,9.1382,30.5195,-0.0324,0.1875,0.7697,303.4688
10:45:57:659,0.1962,0.3233,8.4918,30.69,0.0153,0.1564,0.6768,304.0469
10:45:57:680,-0.0981,0.5554,8.1951,30.8296,-0.0342,0.099,0.4832,304.0469
10:45:57:699,-0.7493,0.8354,8.4631,31.0622,-0.0996,0.0147,0.3366,304.9844
10:45:57:719,-0.9242,1.142,8.8846,30.8019,-0.091,-0.0037,0.314,304.9844
10:45:57:739,-0.7277,1.2855,8.9444,30.9413,0.0189,0.0843,0.3482,305.4844
10:45:57:760,-0.8163,1.3836,8.5301,30.8068,0.1368,0.2114,0.3433,305.4844
10:45:57:782,-1.0606,1.6137,8.3004,30.9113,0.1619,0.226,0.3115,304.8281
10:45:57:800,-1.0295,1.8194,8.9779,30.9419,0.1289,0.0794,0.2853,304.7656
10:45:57:820,-1.0175,1.7357,9.2004,30.9419,0.171,-0.0825,0.2566,304.1719
10:45:57:839,-1.2736,1.7285,9.0449,31.2596,0.2193,-0.1833,0.223,304.125
10:45:57:864,-0.8067,2.0758,9.507,31.382,0.3262,-0.2761,0.2065,304.0469
10:45:57:881,0.2273,2.2026,11.0225,31.5026,0.5485,-0.135,0.1588,304.0469
10:45:57:899,0.1986,1.9271,9.9404,31.5456,0.7892,0.0757,0.058,303.0625
10:45:57:918,-0.0837,2.2433,9.1789,31.7963,0.7776,0.2077,-0.0354,302.9688
10:45:57:939,0.0526,2.7532,9.3036,31.7329,0.5314,0.2272,-0.0635,301.5156
10:45:57:962,0.6129,2.7939,10.5509,31.9834,0.2413,0.1326,-0.0605,301.3594
10:45:57:979,0.3018,2.2528,11.1326,32.0029,0.077,0.047,-0.1228,300.5312
10:45:57:999,-0.4023,2.0518,11.1446,31.887,-0.0586,0.011,-0.1735,299.7656
10:45:58:021,-0.4454,2.0542,10.5174,31.8012,-0.2627,-0.08,-0.1277,299.7656
10:45:58:039,0.3305,1.5921,11.324,31.8764,-0.4642,-0.358,-0.0067,298.9844
10:45:58:061,1.2568,1.0175,12.5904,32.0209,-0.551,-0.4197,0.0067,298.9844
10:45:58:079,1.8482,0.941,12.7056,31.8477,-0.3421,-0.2633,-0.1588,298.4062
10:45:58:099,1.6735,1.1922,10.8356,31.8648,0.0037,-0.0269,-0.3775,298.4062
10:45:58:120,1.0391,1.573,9.253,31.8066,0.1698,0.091,-0.5064,297.9688
10:45:58:138,0.4621,1.4725,8.3387,32.1843,0.0709,0.1686,-0.5186,297.9688
10:45:58:161,0.2225,1.0726,8.6617,32.0251,-0.1405,0.1698,-0.3989,297.9531
10:45:58:181,0.1771,0.5626,9.294,31.8721,-0.3451,0.2834,-0.2908,297.625
10:45:58:199,0.1819,0.1531,9.8542,32.083,-0.4722,0.3372,-0.2419,297.6562
10:45:58:220,0.6224,0.1196,10.0217,31.9676,-0.4508,0.2028,-0.2278,297.6562
10:45:58:239,0.9553,0.3855,9.8399,32.1668,-0.3347,0.0128,-0.2895,297.8125
10:45:58:264,0.6296,0.5554,8.7601,32.1171,-0.1607,-0.1955,-0.416,297.8125
10:45:58:279,0.3736,0.8812,7.8574,31.9772,-0.0733,-0.3531,-0.4948,298.1406
10:45:58:298,0.5602,1.2401,7.7474,31.7173,-0.1008,-0.3439,-0.5021,298.1406
10:45:58:319,0.6057,1.3717,7.6636,31.6085,-0.1045,-0.2987,-0.5064,298.2656
10:45:58:339,0.5148,1.5347,8.2382,31.7144,-0.0727,-0.2181,-0.5217,298.2812
10:45:58:363,-0.1196,1.6735,8.1832,31.6183,-0.0116,0.0159,-0.551,298.4219
10:45:58:381,-0.8596,1.7453,8.3961,31.7081,0.0086,0.1625,-0.3848,298.4375
10:45:58:399,-1.1803,1.6807,9.143,31.5906,-0.011,0.2199,-0.2437,299.3281
10:45:58:421,-1.4004,1.4004,9.708,31.5968,-0.055,0.2779,-0.0928,299.4062
10:45:58:439,-0.821,1.0463,11.7096,31.5243,-0.1411,0.2712,0.0018,300.3125
10:45:58:461,-0.8163,0.5506,12.2483,31.451,-0.1026,0.193,0.0031,300.4062
10:45:58:479,-0.7134,0.6535,11.6617,31.5879,-0.0049,0.0757,-0.0189,300.8594
10:45:58:499,-0.8067,0.7277,10.9675,31.6407,0.0208,-0.1222,-0.0226,301.375
10:45:58:520,-0.7253,0.5411,10.8069,31.4506,-0.1051,-0.2621,0.0177,301.375
10:45:58:538,-0.9027,0.2393,11.2929,31.3135,-0.3121,-0.2022,0.0495,302.3438
10:45:58:562,-1.7596,-0.067,12.5474,31.2358,-0.4575,0.0446,0.0507,302.3438
10:45:58:579,-2.8442,-0.2728,12.8539,31.2672,-0.4178,0.3702,0.1093,303.5469
10:45:58:600,-3.323,-0.7229,12.1262,31.2727,-0.3195,0.5681,0.3268,303.5469
10:45:58:620,-1.7022,-0.4836,11.834,31.419,-0.2883,0.4325,0.6096,304.6406
10:45:58:638,-0.0407,-0.0837,11.5086,31.7723,-0.1478,-0.0037,0.6622,304.7344
10:45:58:665,0.0383,-0.0981,10.3448,31.9936,0.1277,-0.3237,0.4496,304.75
10:45:58:679,-1.0199,-0.0837,8.6952,32.3353,0.3042,-0.3005,0.1961,305.7188
10:45:58:698,-2.3127,0.1507,7.9292,32.444,0.2352,-0.1136,0.1008,306.0781
10:45:58:719,-3.0069,0.3951,8.2669,32.6686,0.0409,0.0464,0.2223,306.0781
10:45:58:739,-2.8466,0.268,8.875,32.9477,-0.0745,0.1319,0.4887,306.0469
10:45:58:764,-2.272,-0.0287,9.0855,33.215,-0.1008,0.2169,0.711,306.0469
10:45:58:779,-1.4366,0.0885,9.3371,33.6142,-0.1283,0.2285,0.7904,306.0938
10:45:58:800,-0.7181,0.3879,10.436,33.5627,-0.0794,0.1216,0.6848,306.0938
10:45:58:860,-0.8163,0.5746,9.574,33.8912,0.2175,0.0965,0.4759,306.0156
10:45:58:860,-1.264,0.7947,7.5509,33.9218,0.4759,0.1332,0.3384,306.0156
10:45:58:861,-1.5634,1.1515,6.4546,34.3957,0.3818,0.171,0.3005,305.7969
10:45:58:880,-1.1731,1.5347,7.4767,34.6126,0.1106,0.0806,0.3109,305.7656
10:45:58:900,-0.9147,1.6137,8.6163,34.8049,0.0263,0.0647,0.3231,304.7969
10:45:58:920,-1.1611,2.0064,7.6373,34.7696,0.0812,0.2462,0.3396,304.6875
10:45:58:938,-0.3975,2.2217,8.8534,34.6291,-0.0696,0.2034,0.3598,303.5781
10:45:58:959,-0.3401,2.1188,10.0385,34.6291,-0.0574,0.1961,0.2932,303.4688
10:45:58:979,-0.5602,2.1882,9.9332,34.424,0.0654,0.3671,0.1814,303.2031
10:45:58:999,-0.8234,2.4443,9.2988,34.7529,0.1112,0.3231,0.0806,302.4531
10:45:59:018,-1.1133,2.2768,8.9539,34.5926,0.0104,-0.0348,0.0507,302.4531
10:45:59:038,-1.1803,1.8745,9.6051,34.6812,-0.226,-0.339,0.0898,300.875
10:45:59:060,-0.8282,1.6424,11.5851,34.5159,-0.4844,-0.3586,0.1503,300.875
10:45:59:080,-0.8043,1.5897,13.1315,34.85,-0.4435,-0.1326,0.1771,300.7188
10:45:59:099,-0.5698,1.5873,12.3081,34.6979,-0.0727,0.1057,0.2187,299.4375
10:45:59:119,0.0957,1.4725,10.7375,34.6302,0.1997,0.2052,0.2694,299.4219
10:45:59:139,0.3401,1.3741,9.4448,34.5797,0.1942,0.1747,0.1979,298.7812
10:45:59:163,0.7349,1.6208,9.7247,34.3147,-0.0599,0.171,0.0861,298.7812
10:45:59:179,0.996,1.1611,11.4365,34.1577,-0.3018,0.3409,0.0098,298.0938
10:45:59:199,0.9577,0.3377,12.5833,33.9873,-0.2889,0.6866,-0.0922,297.375
10:45:59:221,0.5722,0.0502,12.6,34.1836,-0.0941,0.9523,-0.2511,297.375
10:45:59:239,-0.0598,0.1316,11.08,34.1022,0.1466,0.8027,-0.3732,296.6406
10:45:59:262,-0.3903,0.0718,9.3203,34.3229,0.1607,0.3604,-0.3409,296.6406
10:45:59:279,0.122,-0.0048,9.4328,34.3479,-0.1668,-0.0678,-0.2474,296.3281
10:45:59:300,0.4765,-0.5076,10.9675,34.389,-0.4899,-0.2614,-0.2474,296.3281
10:45:59:321,-0.0479,-0.9649,12.2746,34.4501,-0.5308,-0.1216,-0.3806,296.1875
10:45:59:338,-1.0439,-0.7038,12.5617,34.4915,-0.2767,0.193,-0.5076,296.1719
10:45:59:359,-1.2712,-0.0933,10.7806,34.8059,0.1765,0.2724,-0.4978,295.7812
10:45:59:381,-0.6009,0.2994,9.0927,34.8532,0.5058,0.099,-0.3806,295.7344
10:45:59:400,-0.3305,0.2752,7.7593,34.7075,0.6066,0.0067,-0.3518,295.25
10:45:59:421,-0.9529,1.0869,6.4041,34.6989,0.562,-0.0177,-0.4239,295.2031
10:45:59:439,-1.3334,1.3693,7.022,34.8506,0.1747,-0.1045,-0.4099,294.9219
10:45:59:460,-1.6041,1.2903,8.0465,34.8278,0.0531,-0.0202,-0.2932,294.8906
10:45:59:480,-1.9992,1.0367,8.9683,34.9488,0.0318,0.1808,-0.1582,294.8906
10:45:59:499,-1.884,1.0223,8.8822,35.1857,0.0678,0.2651,0,295.4844
10:45:59:519,-0.874,1.3406,9.4113,35.3831,0.0776,0.0825,0.1607,295.4844
10:45:59:539,-0.2752,1.1827,9.9763,35.5042,0.1155,-0.0495,0.1802,296.125
10:45:59:559,-0.5506,0.8234,9.8542,35.7814,0.157,-0.022,0.0617,296.125
10:45:59:579,-1.142,0.9003,10.1198,35.7562,0.0391,0.0281,-0.0556,296.1875
10:45:59:599,-1.2257,1.0415,11.3551,36.0182,-0.0971,-0.0568,-0.0855,296.75
10:45:59:620,-0.7708,1.0582,11.9034,36.3363,-0.0434,-0.1209,-0.055,296.7656
10:45:59:638,-0.821,0.8716,11.0154,36.5491,0.1148,-0.1271,-0.0599,297.8438
10:45:59:660,-1.3741,0.6751,10.3881,36.7679,0.0794,-0.1582,-0.0916,297.8594
10:45:59:679,-1.9896,0.6535,11.0321,36.5784,-0.1723,-0.1949,-0.1173,298.7969
10:45:59:699,-3.0619,0.2827,12.5641,36.8658,-0.3396,-0.2169,-0.1442,299.8906
10:45:59:720,-4.3549,-0.364,12.7989,37.0727,-0.2553,-0.0776,-0.0886,299.8906
10:45:59:738,-4.2401,-0.5411,12.2172,37.59,-0.1271,0.1942,0.1723,300.7031
10:45:59:759,-2.5546,-0.1172,11.2714,37.4623,-0.0269,0.2413,0.4807,300.7031
10:45:59:782,-1.1396,0.1125,10.4886,37.651,0.0819,0.0367,0.5406,300.875
10:45:59:799,-0.8378,0.0598,9.859,37.5678,0.1839,-0.1228,0.3567,300.875
10:45:59:820,-1.7142,-0.0502,9.3921,37.8065,0.2694,-0.1136,0.102,300.5312
10:45:59:838,-2.6504,0.2536,8.5564,38.1131,0.2657,0.0727,-0.0024,300.5312
10:45:59:860,-2.9207,0.4262,7.7856,38.3643,0.1662,0.0898,0.0996,300.5469
10:45:59:880,-2.2409,0.4478,7.8239,38.6371,-0.0244,-0.0391,0.2792,300.5469
10:45:59:899,-1.5012,0.4525,9.0808,38.733,-0.2046,-0.1051,0.3476,300.6719
10:45:59:921,-1.9271,0.9194,8.8534,39.2403,0.0189,0.0238,0.1668,300.6875
10:45:59:941,-2.1571,1.2688,8.1254,39.584,0.1246,-0.0678,0.1545,300.875
10:45:59:965,-1.9175,1.4028,8.1063,39.9704,0.1478,-0.19,0.2132,300.8906
10:45:59:979,-1.6807,1.427,7.7713,40.198,0.193,-0.1423,0.2566,301.1094
10:45:59:998,-1.7764,1.5993,7.1034,40.5451,0.1649,0.0238,0.2608,301
10:46:00:018,-1.6496,1.884,7.3857,40.7554,0,0.0092,0.2743,301
10:46:00:038,-1.4055,1.9199,8.5851,40.9257,-0.1435,-0.1277,0.2859,299.9688
10:46:00:059,-1.2951,1.9104,9.4113,40.9788,-0.1197,-0.1454,0.2553,299.9688
10:46:00:079,-1.1252,2.1835,9.8351,41.1463,-0.0031,-0.0336,0.1973,299.875
10:46:00:099,-0.9769,2.3844,9.8949,41.4373,0.1142,0.0666,0.1338,299.4531
10:46:00:120,-0.9362,2.3222,9.9667,41.9072,0.1692,0.0513,0.0764,299.4219
10:46:00:139,-0.9553,2.1165,10.3834,42.2108,0.1668,-0.0464,0.025,299.3594
10:46:00:159,-0.8692,1.9223,11.4365,42.4589,0.1271,-0.0006,0.0128,299.3594
10:46:00:181,-0.6751,1.8505,12.5043,42.652,0.1503,0.1527,0.0183,298.6562
10:46:00:199,-0.4693,1.7812,12.4014,42.7847,0.3402,0.2126,0.0006,298.1562
10:46:00:219,-0.4813,1.6424,10.838,43.3137,0.4978,0.1674,-0.0336,298.1562
10:46:00:239,-0.5315,1.628,9.7391,43.7901,0.3683,-0.055,-0.0544,297.7969
10:46:00:261,-0.352,1.7453,10.0672,43.7367,0.0415,-0.3757,-0.0373,297.7969
10:46:00:281,-0.1244,1.3334,11.0178,43.8497,-0.1845,-0.5608,0.0171,297.2656
10:46:00:299,0.3018,0.9864,11.6521,43.8716,-0.1991,-0.4484,0.0464,297.2656
10:46:00:319,0.7493,1.0654,11.5011,44.0105,-0.0312,-0.1771,-0.0568,296.6406
10:46:00:339,0.2106,1.1492,10.5724,44.3049,0.1759,0.0147,-0.2761,296.6406
10:46:00:359,-0.7469,1.276,8.9898,44.7828,0.2743,-0.0244,-0.4184,296.1719
10:46:00:379,-1.5156,1.0965,7.8096,45.0016,0.149,-0.2327,-0.3573,296.125
10:46:00:399,-1.4701,0.9625,7.9651,45.0866,-0.2028,-0.3683,-0.1533,295.9375
10:46:00:420,-0.4286,0.8186,9.3969,45.6233,-0.5492,-0.3708,0.0434,295.9219
10:46:00:441,-0.0598,-0.0024,10.8954,45.7338,-0.3726,0.102,-0.0922,295.9219
10:46:00:464,-0.6368,0.2177,9.5644,46.1246,-0.135,0.295,-0.2437,295.9219
10:46:00:480,-0.7564,0.699,8.8463,46.5164,-0.077,0.1423,-0.314,295.9375
10:46:00:499,-0.1412,1.0965,8.8439,46.4756,-0.0354,-0.1448,-0.3164,296.1094
10:46:00:519,-0.1651,1.0367,8.2573,46.7183,0.11,-0.2517,-0.3525,296.1094
10:46:00:538,-0.3377,1.331,7.1991,46.8221,0.1833,-0.0855,-0.3983,296.125
10:46:00:559,-0.4549,1.817,7.2206,46.96,0.1112,-0.0116,-0.3989,296.1875
10:46:00:582,-0.3353,1.9343,8.2286,46.9731,0.044,0.0031,-0.3409,296.1875
10:46:00:599,-0.2898,1.7118,8.6474,47.2033,0.0916,0.1448,-0.2663,296.2188
10:46:00:619,-0.5219,1.5921,8.31,47.347,0.1203,0.2865,-0.2315,296.2188
10:46:00:638,-0.5865,1.7907,8.5373,47.4159,-0.0128,0.2309,-0.2059,297.0156
10:46:00:660,-0.3975,1.9415,10.0074,47.637,-0.1894,0.0037,-0.1808,297.0312
10:46:00:682,-0.486,1.6328,10.8404,47.5187,-0.1674,-0.1344,-0.1894,297.6094
10:46:00:699,-0.9793,1.3238,10.3807,47.8731,-0.0672,-0.055,-0.2138,297.4375
10:46:00:719,-1.13,1.439,10.3881,47.9471,-0.1167,-0.0214,-0.2138,297.4375
10:46:00:739,-0.7421,1.6208,10.7183,48.0529,-0.1979,-0.0684,-0.1973,297.7344
10:46:00:760,-0.6392,1.6496,10.5485,48.3321,-0.2132,-0.0305,-0.1991,297.7344
10:46:00:781,-1.2927,1.4246,10.4288,48.6327,-0.2914,0.1539,-0.2181,298.4219
10:46:00:799,-2.0399,1.1994,11.6043,48.929,-0.5003,0.3952,-0.1997,298.4219
10:46:00:820,-2.5307,1.0606,13.1868,49.4207,-0.6084,0.5785,-0.1576,299.2812
10:46:00:839,-3.2393,0.5387,13.9313,49.8222,-0.4227,0.7196,-0.0788,299.2812
10:46:00:859,-3.8234,-0.4908,12.4421,49.9517,-0.1161,0.7788,0.124,300.0312
10:46:00:880,-3.2943,-1.1085,10.7806,50.19,-0.0959,0.6121,0.3964,300.1094
10:46:00:924,-1.3454,-0.4286,10.5891,50.8776,-0.2847,0.055,0.5718,300.625
10:46:00:925,0.2273,0.2752,10.5485,51.0766,-0.2211,-0.6707,0.5052,300.6719
10:46:00:939,-0.2922,0.213,9.5022,51.3437,0.0605,-0.9004,0.2456,301.0312
10:46:00:961,-3.1795,0.1842,7.5532,51.6042,0.1209,-0.325,0.1112,301.0781
10:46:00:983,-3.0165,0.3832,8.0058,51.834,-0.0922,-0.1271,0.3946,301.4531
10:46:00:999,-2.0112,0.1986,8.997,52.1059,-0.2144,-0.0159,0.7043,301.5
10:46:01:018,-1.2233,0.0957,9.1502,52.4033,-0.179,0.0043,0.8063,301.8906
10:46:01:038,-0.7038,0.3568,8.6498,52.658,-0.1264,-0.1014,0.7214,301.9219
10:46:01:059,-0.6655,0.7756,8.1206,52.5435,-0.1448,-0.3225,0.5699,302.2969
10:46:01:083,-0.711,1.1659,7.9819,52.9148,-0.1814,-0.5211,0.4539,302.3281
10:46:01:098,-0.7493,1.5826,8.0776,53.0222,-0.1845,-0.5406,0.3903,302.5625
10:46:01:119,-0.7253,1.8003,8.554,53.2058,-0.1509,-0.3207,0.3573,302.5938
10:46:01:139,-0.9266,1.8194,9.1071,53.3018,-0.0635,0.0226,0.3262,302.4688
10:46:01:158,-1.1707,1.8051,9.076,53.5981,0.0849,0.1741,0.3024,302.4531
10:46:01:181,-1.0463,1.9223,8.8463,53.8113,0.1399,0.1344,0.3213,301.3594
10:46:01:199,-1.0439,1.9753,9.119,54.2071,0.066,0.0238,0.3433,300.5
10:46:01:221,-0.7875,1.762,9.9739,54.6394,-0.036,-0.1014,0.3628,300.5
10:46:01:239,-0.0598,1.6591,11.348,54.8317,-0.0367,-0.149,0.3476,300.3594
10:46:01:259,0.4501,1.7213,11.5851,55.0908,0.1429,-0.1069,0.2333,300.3594
10:46:01:280,0.644,1.6113,10.7279,55.5427,0.3952,-0.1435,0.0721,299.125
10:46:01:301,0.9625,1.8912,10.5413,55.8106,0.416,-0.1875,-0.0409,299.125
10:46:01:320,0.9075,1.9223,10.826,55.9638,0.2963,-0.1735,-0.1631,297.4219
10:46:01:339,1.2927,1.4366,11.6856,56.2095,0.168,0.1106,-0.2816,297.4219
10:46:01:359,1.3813,2.4323,11.7598,56.5062,0.1191,0.6695,-0.441,296.2656
10:46:01:379,0.7397,1.9295,11.7622,56.676,0.2199,0.4777,-0.463,296.2656
10:46:01:398,-0.0144,1.0774,11.0776,56.8185,0.2755,0.1918,-0.4826,295.4844
10:46:01:419,-0.2106,0.8548,10.7901,57.1138,0.1283,0.2052,-0.3995,295.4062
10:46:01:438,0.1364,0.1723,11.9967,57.0396,-0.0837,0.2034,-0.2541,294.7656
10:46:01:461,1.9872,-1.0343,12.1717,57.3746,0.2627,0.2297,-0.2822,294.0625
10:46:01:484,1.6065,-0.5865,10.5509,57.3953,0.5101,-0.1949,-0.5705,294.0625
10:46:01:499,0.1795,-0.1603,8.2047,57.5594,0.5101,-0.2773,-0.81,294
10:46:01:519,-0.5171,0.498,8.5349,57.66,0.19,-0.3335,-0.722,293.2812
10:46:01:539,-0.1795,0.6368,10.4527,57.8632,-0.0464,-0.2486,-0.5149,293.2031
10:46:01:558,0.1053,0.3712,10.9914,57.8995,0.0965,0.1295,-0.358,292.9375
10:46:01:581,0.0383,0.2058,10.4647,58.0995,0.416,0.6383,-0.3036,292.9219
10:46:01:599,-0.2249,0.4119,8.4368,58.3296,0.6188,1.0794,-0.336,293.1719
10:46:01:619,-0.3018,0.9075,6.5073,58.3421,0.656,0.8979,-0.3671,293.2031
10:46:01:641,0.4454,1.6376,6.2103,58.4263,0.4704,0.2559,-0.3525,293.9219
10:46:01:658,0.3951,1.494,6.5671,58.635,0.2669,-0.3292,-0.4478,294
10:46:01:679,-0.134,1.427,6.5025,58.8291,0.0788,-0.5675,-0.5412,295.0625
10:46:01:701,-0.3209,1.9104,6.3826,59.0063,-0.1381,-0.6664,-0.5266,295.7812
10:46:01:722,-0.2994,2.2313,6.7944,59.1953,-0.358,-0.8051,-0.4154,295.7812
10:46:01:739,-0.0263,2.2241,8.4488,59.2322,-0.5522,-0.854,-0.2773,296.2812
10:46:01:759,0.2058,1.8386,10.1533,59.4017,-0.6457,-0.6231,-0.201,296.2812
10:46:01:781,0.5818,1.3741,11.2977,59.5919,-0.5705,-0.3812,-0.1888,297.9219
10:46:01:800,0.9936,1.4198,13.4189,59.7567,-0.3641,-0.3598,-0.2676,297.9219
10:46:01:819,0.8931,1.3167,15.7125,59.5413,0.0544,-0.091,-0.43,299.3281
10:46:01:838,-0.3401,0.7325,14.7906,59.6136,0.6841,0.5473,-0.5791,299.3281
10:46:01:861,-1.5873,0.711,11.3695,59.4811,1.1154,0.8448,-0.606,300.0781
10:46:01:882,-1.9777,1.3525,8.7769,59.8106,1.0024,0.4545,-0.543,300.0781
10:46:01:899,-2.2648,1.506,8.444,59.7799,0.4875,-0.2107,-0.4807,300.8438
10:46:01:919,-1.8793,1.5562,10.1127,59.8041,-0.0489,-0.7581,-0.3861,300.9219
10:46:01:939,-1.7883,1.4294,11.9249,59.8816,-0.2602,-0.8625,-0.3641,301.8125
10:46:01:960,-2.7341,0.7684,12.344,59.9631,-0.1264,-0.449,-0.3873,301.8906
10:46:01:982,-2.8155,0.7397,9.143,60.1055,0.0421,0.1881,0.0299,303.0312
10:46:02:000,-1.5251,0.9147,9.131,60.0893,-0.1399,-0.2199,0.2462,303.1406
10:46:02:021,-0.5865,0.8764,9.0018,60.0962,-0.1466,-0.7465,0.2865,303.8125
10:46:02:039,-0.984,1.0439,8.0967,59.9043,-0.0428,-0.9853,0.1973,303.8906
10:46:02:058,-2.071,1.2114,6.8399,59.9691,-0.1368,-0.8949,0.1631,304.2031
10:46:02:080,-2.1452,1.4103,7.6277,59.9099,-0.4899,-0.7281,0.3757,304.2344
10:46:02:102,-1.075,1.0223,9.8375,59.8405,-0.755,-0.3891,0.7593,304.9219
10:46:02:119,-0.2584,0.3736,10.3352,59.7951,-0.6469,0.1081,0.9835,304.9844
10:46:02:139,-0.0981,0.3808,9.0425,59.7756,-0.4404,0.4795,0.9664,306.2812
10:46:02:158,0.1196,0.8163,8.2406,59.989,-0.3891,0.3305,0.8442,306.4062
10:46:02:181,0.632,1.3358,9.1119,60.0113,-0.3903,-0.0629,0.7379,307.6875
10:46:02:199,0.5746,1.2712,9.6793,60.0717,-0.1778,-0.2333,0.6243,308.5781
10:46:02:220,0.0144,1.4366,8.2143,59.9805,0.1277,0.0385,0.496,308.5781
10:46:02:239,0.1412,2.2361,6.7226,59.8262,0.1985,0.2963,0.4777,309.2969
10:46:02:261,0.4717,2.6862,7.8957,59.9411,0.0043,0.3659,0.5174,309.2969
10:46:02:283,0.3401,2.2265,8.729,59.8899,-0.1435,0.4783,0.5388,309
10:46:02:299,0.2874,1.9343,8.8893,59.7484,-0.234,0.507,0.5113,309
10:46:02:319,0.8429,2.0542,10.4504,59.7112,-0.3738,0.3873,0.4343,308.5312
10:46:02:339,1.0941,1.8888,12.8731,59.7238,-0.3732,0.3592,0.2889,308.5312
10:46:02:360,0.5243,1.5036,13.7252,59.4782,0,0.4203,0.088,307.9844
10:46:02:383,-0.2632,1.4151,12.4612,59.6231,0.4997,0.3873,-0.0867,307.9844
10:46:02:399,-0.5865,1.5467,11.5229,59.8277,0.7306,0.2523,-0.1362,306.0156
10:46:02:421,-0.3736,1.2927,10.6083,59.8571,0.7196,0.0849,-0.0745,306.0156
10:46:02:438,0.376,1.1563,9.8997,59.8064,0.6035,-0.1484,0.0024,304.1406
10:46:02:460,0.9625,1.2018,9.8614,60.2377,0.4007,-0.2755,-0.0061,303.9688
10:46:02:483,0.9075,0.9936,10.1725,60.0215,0.1826,-0.2944,-0.0794,302.5625
10:46:02:503,0.5578,0.8548,10.5389,60.1519,-0.0916,-0.3201,-0.16,302.4375
10:46:02:522,0.5195,0.7086,10.4312,60.3531,-0.2077,-0.2193,-0.1454,301.4531
10:46:02:539,1.0008,0.2034,12.3583,60.2148,-0.1857,0.0134,-0.2309,301.3594
10:46:02:559,0.4071,0.3281,11.7574,59.8666,0.0666,0.1631,-0.4148,300.2812
10:46:02:580,-0.4454,0.6511,9.9906,59.5319,0.2938,0.1655,-0.5101,300.1719
10:46:02:600,-1.1109,0.8139,8.1592,59.6749,0.2676,0.0226,-0.4343,299.1719
10:46:02:619,-1.1204,0.833,7.9029,59.3272,-0.0476,-0.1631,-0.2578,299.0781
10:46:02:638,-0.6129,0.754,9.3227,59.3604,-0.4245,-0.1753,-0.0867,298.6562
10:46:02:659,-0.4478,0.376,10.989,59.2201,-0.5314,-0.0122,0.0073,298.625
10:46:02:680,-0.6535,0.2776,10.5963,59.0177,-0.3097,0.2034,0.0238,298.9062
10:46:02:699,-0.5243,0.6081,8.9468,59.0071,-0.0922,0.2309,0.0415,299.125
10:46:02:719,-0.0311,0.8163,8.013,59.2607,-0.0776,-0.0385,0.044,299.125
10:46:02:739,0.4669,0.8835,7.9603,59.1421,-0.1295,-0.3604,0.0031,299.2969
10:46:02:761,0.4549,1.0056,8.2286,58.8912,-0.1191,-0.4349,-0.091,299.2969
10:46:02:782,0.0455,1.3238,8.2382,58.7784,-0.0727,-0.1851,-0.1594,299.6562
10:46:02:799,0.0479,1.6352,8.1951,58.6352,0.0183,0.0654,-0.1264,299.6562
10:46:02:820,0.3497,1.6161,8.3411,58.5472,0.1051,0.2541,-0.0513,300.0469
10:46:02:839,-0.0191,1.4725,7.9555,58.4907,0.1472,0.4013,-0.0464,300.0469
10:46:02:860,-0.5315,1.8793,8.3411,58.4249,-0.0086,0.438,-0.047,301.0781
10:46:02:879,-0.4071,1.9777,10.3448,58.1463,-0.204,0.3164,0.0281,301.0781
10:46:02:903,-0.1436,1.7189,11.7622,58.3088,-0.1778,0.2449,0.1313,301.8594
10:46:02:919,-0.2201,1.3478,12.1286,58.3516,0.0367,0.2492,0.1716,301.8594
10:46:02:968,0.0096,1.3932,11.5995,58.3154,0.2162,0.3164,0.1704,301.8906
10:46:02:969,0.2752,1.2377,11.3504,58.3902,0.2883,0.3427,0.1649,301.8906
10:46:02:979,0.4023,1.2664,10.8165,58.2608,0.2749,0.3812,0.1142,301.7969
10:46:02:999,0.376,1.4414,10.558,58.2433,0.19,0.2975,0.0446,301.7812
10:46:03:020,-0.2177,1.2257,10.6011,58.1006,0.1057,0.1619,-0.0049,301.7344
10:46:03:040,-1.3502,0.862,10.7016,58.0374,-0.0959,0.4001,0.1307,301.7344
10:46:03:059,-1.2497,0.553,11.0058,57.9578,-0.2596,0.6261,0.2682,301.9844
10:46:03:079,-0.8453,0.1244,11.4796,57.7572,-0.3402,0.5968,0.3323,302
10:46:03:100,-0.2441,0.1675,11.7239,57.5839,-0.2859,0.4001,0.2883,302.1875
10:46:03:119,-0.1364,0.5124,10.2395,57.2553,-0.0391,-0.0061,0.1081,302.2031
10:46:03:138,-0.1938,0.8883,8.5349,56.9606,0.0739,-0.4288,-0.077,302.2812
10:46:03:158,-1.276,0.6583,8.7242,56.8193,-0.0874,-0.6206,-0.2034,302.2969
10:46:03:179,-1.9343,0.7947,9.7415,56.5617,-0.2743,-0.4105,-0.1484,302.0938
10:46:03:200,-2.1906,0.7828,9.8279,56.523,-0.2657,-0.0073,0.0757,301.7188
10:46:03:220,-1.8194,0.5674,8.9013,56.2198,-0.1912,0.2792,0.3451,301.7188
10:46:03:239,-1.1252,0.6559,9.143,56.0178,-0.237,0.284,0.5021,301.4375
10:46:03:259,-0.553,0.8453,9.7152,56.0321,-0.2303,0.1674,0.4997,301.4375
10:46:03:279,-0.6488,0.9769,9.0257,56.0137,-0.0214,0.0122,0.4001,301.4062
10:46:03:300,-1.1372,1.2832,7.6875,56.0341,0.1338,-0.058,0.3195,301.4062
10:46:03:320,-1.3286,1.5538,7.3116,55.9697,0.0819,-0.0489,0.3415,301.2188
10:46:03:338,-1.1946,1.5778,7.9316,55.9569,-0.055,0.025,0.4019,301.2188
10:46:03:360,-1.4438,1.4294,8.6139,56.0691,-0.1161,0.1319,0.4386,300.4531
10:46:03:380,-1.6184,1.5395,8.7123,56.0171,-0.1057,0.1716,0.4856,300.4531
10:46:03:401,-1.0774,1.7094,8.7314,56.0248,-0.1295,0.1179,0.5577,299.9688
10:46:03:419,-0.2608,1.695,9.8061,55.8535,-0.1649,0.0367,0.5742,299.9688
10:46:03:439,0.1101,1.7572,10.2562,55.7066,-0.069,0.0385,0.4722,300.2656
10:46:03:461,0.1149,2.0255,9.6314,55.6709,0.044,0.0324,0.2981,300.2969
10:46:03:479,0.0287,2.2265,9.7439,55.4508,-0.0055,-0.0941,0.1411,300.3281
10:46:03:501,-0.2536,1.8984,11.4844,55.508,-0.1142,-0.2114,0.0281,300.3281
10:46:03:519,-0.4645,1.494,12.9784,55.0234,-0.0257,-0.1081,-0.0153,299.4375
10:46:03:540,0.3903,1.1348,11.3743,55.0212,0.2798,0.1405,0.0287,299.3594
10:46:03:559,0.5698,1.1803,10.5293,54.9533,0.4056,0.2773,-0.0849,298.4219
10:46:03:579,0.687,1.5921,10.0193,54.9841,0.2303,-0.1197,-0.2443,298.3281
10:46:03:601,0.7421,1.7883,10.448,54.7669,0.0049,-0.584,-0.3451,297.6875
10:46:03:619,0.8644,1.6783,11.3169,54.4933,-0.0892,-0.777,-0.3861,297.625
10:46:03:639,0.553,1.4342,11.2307,54.4548,0.0226,-0.5663,-0.4117,296.7656
10:46:03:659,0.4238,1.118,10.5389,54.0354,0.1191,-0.1521,-0.4093,296.6719
10:46:03:679,0.2946,0.9386,10.6274,54.0541,0.0776,0.055,-0.43,295.5938
10:46:03:702,0.3042,0.7301,10.6298,54.0334,0.0702,-0.0153,-0.4716,294.3125
10:46:03:719,0.4095,0.6176,9.9643,53.9097,0.124,-0.0983,-0.4985,294.3125
10:46:03:739,0.1101,0.6344,9.0999,53.6034,0.1075,-0.0935,-0.5406,293.8281
10:46:03:760,-0.4789,0.6368,8.4272,53.5323,0.0012,-0.1026,-0.5351,293.8281
10:46:03:779,-0.7421,0.4358,8.1401,53.537,-0.1753,-0.1161,-0.4294,293.7969
10:46:03:802,-0.443,0.0598,8.8463,53.7698,-0.4129,-0.0238,-0.2871,293.7969
10:46:03:819,-0.4621,-0.3066,10.4767,53.8528,-0.5583,0.1539,-0.2169,293.7969
10:46:03:839,-0.2704,-0.1292,10.6801,53.7702,-0.4618,0.3592,-0.2083,293.7969
10:46:03:860,0.1125,0.2369,9.7439,53.6036,-0.2303,0.3464,-0.2205,294.2344
10:46:03:880,0.874,0.5674,9.294,53.537,-0.0849,0.1619,-0.2767,294.2344
10:46:03:901,0.8234,0.6631,8.6761,53.5306,0.0556,-0.0293,-0.4178,295.0625
10:46:03:919,0.297,0.9817,7.721,53.5218,0.1649,-0.0397,-0.5479,295.0625
10:46:03:939,-0.1603,1.4028,7.0627,53.5659,0.1362,0.0281,-0.5675,296
10:46:03:960,0.0694,1.6639,7.5126,53.3285,0.0037,0.0269,-0.485,296
10:46:03:979,0.2922,1.4581,8.4703,53.0819,-0.0647,0.0501,-0.4148,296.9219
10:46:04:001,-0.0383,1.3382,9.1765,53.0163,-0.0208,0.2132,-0.4203,297.0156
10:46:04:019,-0.4382,1.573,9.0664,53.108,0.0373,0.35,-0.4209,298.0938
10:46:04:041,-0.6344,1.3884,10.4958,53.0804,0.0244,0.2743,-0.3635,298.1875
10:46:04:061,-0.4621,1.3932,10.515,53.1047,0.0153,0.2034,-0.3042,299.1562
10:46:04:079,-0.0072,1.4055,11.2475,53.3909,-0.0018,0.0495,-0.1942,299.25
10:46:04:100,0.189,1.2233,11.8579,53.2894,-0.0061,-0.0214,-0.2187,299.6719
10:46:04:119,0.4717,1.3406,12.0183,53.2428,0.1063,-0.0684,-0.2859,299.7031
10:46:04:139,0.2489,1.0917,11.3934,53.6031,0.2511,-0.044,-0.3665,300.0625
10:46:04:159,-0.3879,0.8019,10.6825,53.7231,0.2645,0.0837,-0.4361,300.1094
10:46:04:178,-1.1372,1.0917,10.448,53.3642,0.1032,0.1582,-0.4746,300.7969
10:46:04:200,-2.0375,0.9817,10.3615,53.4387,-0.0281,-0.0183,-0.4343,302.0156
10:46:04:220,-2.8609,0.1771,9.9476,53.5105,-0.1515,-0.1533,-0.2737,302.0156
10:46:04:239,-2.9686,-0.5506,10.261,53.4215,-0.4423,0.0232,-0.0391,303.1094
10:46:04:260,-1.5969,-0.122,12.6673,53.3821,-0.708,0.179,0.1655,303.1094
10:46:04:279,-0.3401,-0.0096,13.9074,53.4841,-0.4099,0.1081,0.1704,304.0469
10:46:04:302,-0.7349,-0.2704,11.5612,53.5052,0.2914,0.0525,-0.033,304.0469
10:46:04:320,-1.8864,0.0072,7.9005,53.65,0.7104,0.0122,-0.2278,304.7812
10:46:04:339,-2.983,0.2922,6.1552,53.9582,0.4832,-0.1106,-0.2156,304.7812
10:46:04:360,-3.122,0.6559,7.4719,53.9999,-0.0922,-0.234,0.0257,305.2344
10:46:04:379,-2.0351,0.3353,9.7654,54.1796,-0.4416,-0.2254,0.3854,305.2656
10:46:04:402,-1.0271,-0.0957,11.0058,54.0176,-0.4044,0.044,0.6102,305.8281
10:46:04:419,-0.3018,0.0837,10.3041,54.5012,-0.1771,0.3641,0.6017,305.8281
10:46:04:439,-0.0933,0.3855,9.3706,54.5264,0.0079,0.3421,0.4484,306.7812
10:46:04:460,-0.0766,0.5698,8.8678,54.5974,0.077,0.1307,0.2798,306.7812
10:46:04:479,-0.4765,0.699,8.2837,54.606,0.0996,-0.0128,0.1545,307.7031
10:46:04:502,-0.9027,0.9218,7.8981,54.8597,0.0666,-0.0183,0.0971,307.7969
10:46:04:520,-1.1683,1.2664,7.5724,55.0972,-0.0238,0.0226,0.1087,308.0469
10:46:04:539,-0.7899,1.5467,7.7856,55.1437,-0.1222,-0.0556,0.1753,308.0781
10:46:04:560,-0.3903,1.4868,8.9707,55.3475,-0.0788,-0.0073,0.1228,307.625
10:46:04:581,-0.699,1.8099,8.7482,55.2571,0.0214,0.2101,0.0501,307.5781
10:46:04:602,-0.6464,2.0758,9.0592,55.5605,0.0458,0.2541,0.0385,307.9375
10:46:04:619,-0.3736,2.0973,9.8181,55.8107,0.0605,0.1784,0.0428,307.9844
10:46:04:639,-0.3114,2.1571,9.9978,55.945,0.1435,0.0757,-0.0067,308.2188
10:46:04:659,-0.7038,2.2576,10.0002,56.0064,0.212,-0.0495,-0.0861,308.2344
10:46:04:678,-1.0343,2.1212,10.8882,56.1338,0.1942,-0.1087,-0.1148,307.1562
10:46:04:699,-1.264,1.8577,12.0589,56.5398,0.2175,-0.0489,-0.0849,305.9844
10:46:04:719,-1.6184,1.4222,12.0784,57.0821,0.3653,0.0409,-0.0226,305.9844
10:46:04:739,-1.3693,1.331,11.1733,57.3926,0.4624,0.0409,0.0788,305.4219
10:46:04:759,-0.6942,1.0774,11.0465,57.4383,0.3659,-0.1112,0.1405,305.4219
10:46:04:779,-0.2225,0.9027,11.2522,57.6334,0.2114,-0.3011,0.11,305.1875
10:46:04:802,-0.498,0.9553,10.9337,58.1275,0.1112,-0.4197,0.0336,305.1875
10:46:04:819,-0.7588,0.8453,11.2451,58.4489,-0.0403,-0.3763,0.0379,304.75
10:46:04:839,-0.1412,0.577,12.5091,58.6137,-0.1405,-0.2621,0.1106,304.75
10:46:04:860,0.3185,0.297,12.521,58.7506,0.0006,-0.1368,0.0941,304.7344
10:46:04:879,0.2898,0.309,10.7136,58.6467,0.2162,-0.0745,-0.0183,304.5469
10:46:04:899,-0.0335,0.5076,8.9109,58.7256,0.2364,-0.1778,-0.1161,304.4688
10:46:04:919,-0.2201,0.5674,7.9531,58.9451,0.0232,-0.3176,-0.1148,304.4688
10:46:04:939,0.4334,0.5841,9.0114,59.0398,-0.2969,-0.3097,-0.0373,304.625
10:46:04:959,0.6655,0.1842,10.5604,58.8987,-0.4239,-0.08,-0.0348,304.625
10:46:05:007,0.0646,0.1938,10.4743,59.0222,-0.2529,0.2718,-0.1435,304.875
10:46:05:007,-0.754,0.3281,8.9827,58.9287,-0.0556,0.4728,-0.2211,304.8906
10:46:05:021,-0.8019,0.6296,7.5628,59.1861,-0.0916,0.3128,-0.2022,304.9375
10:46:05:039,0.1675,0.9745,8.7171,59.2673,-0.3073,-0.0935,-0.1552,304.9375
10:46:05:059,0.4501,0.8402,9.8157,59.6341,-0.2627,-0.358,-0.2107,304.7656
10:46:05:080,-0.268,1.3765,7.1824,59.7735,0.2498,0.0605,-0.3518,304.75
10:46:05:103,-0.146,1.7213,7.1393,59.7808,0.1808,0.0916,-0.3091,304.7031
10:46:05:119,0.0622,1.6448,7.8526,59.8363,0.0776,0.0654,-0.2474,304.6875
10:46:05:139,-0.2369,1.6184,7.7665,59.9808,0.0513,0.1136,-0.2114,304.4844
10:46:05:159,-0.1914,2.0207,8.0513,60.3492,-0.0647,0.1142,-0.1527,304.4531
10:46:05:179,0.2827,2.071,9.8109,60.1878,-0.193,0.0079,-0.0916,304.6406
10:46:05:199,0.5028,1.9558,10.6825,60.2934,-0.0892,0.0342,-0.0806,304.7969
10:46:05:219,0.5267,2.2624,9.5859,60.3714,0.1075,0.1307,-0.1057,304.7969
10:46:05:240,0.4047,2.4514,9.6362,60.4674,0.0483,0.0593,-0.1252,304.9375
10:46:05:259,0.1603,2.0327,11.5636,60.8206,-0.212,-0.022,-0.1472,304.9375
10:46:05:279,-0.1484,1.5682,13.96,61.182,-0.3567,0.135,-0.1839,305.375
10:46:05:298,-0.7684,1.0702,14.8528,61.2396,-0.1888,0.3635,-0.2504,305.375
10:46:05:320,-1.3573,0.7684,13.3974,61.1643,0.1759,0.4453,-0.2682,305.6875
10:46:05:339,-1.5467,0.644,11.1135,61.4081,0.3323,0.4111,-0.2291,305.7188
10:46:05:360,-2.339,0.3138,10.57,61.6872,0.0684,0.3244,-0.237,305.7188
10:46:05:379,-3.3278,-0.0502,11.2235,61.8796,-0.3103,0.1607,-0.2095,306.4844
10:46:05:399,-3.3948,-0.5435,11.8675,61.8762,-0.5235,0.0263,-0.0159,307.125
10:46:05:419,-1.4821,-0.297,12.3535,62.0383,-0.4832,-0.0342,0.223,307.125
10:46:05:439,0.4956,0.2082,12.6697,62.1332,-0.0831,-0.0794,0.2114,307.5312
10:46:05:459,0.1436,-0.0479,10.6944,62.3399,0.5644,0.0495,-0.1332,307.5312
10:46:05:479,-1.6687,-0.0766,7.8885,62.7875,1.0006,0.259,-0.5119,307.6875
10:46:05:499,-3.7397,0.1316,5.8992,62.8812,0.978,0.3439,-0.6078,307.6875
10:46:05:520,-4.5511,0.6416,5.3557,63.0942,0.5626,0.3861,-0.3134,307.9375
10:46:05:539,-3.8115,0.8378,5.6548,62.9519,0.0098,0.3818,0.1985,307.9531
10:46:05:559,-2.1763,0.4382,7.5966,63.2779,-0.452,0.1662,0.5956,308.2344
10:46:05:579,-1.1157,0.1412,9.7822,63.3715,-0.5803,0.0287,0.6579,308.25
10:46:05:600,-1.3478,0.2297,10.0863,63.3291,-0.3494,0.2071,0.4752,308.7656
10:46:05:619,-1.2927,1.2736,7.9268,63.5371,0.0513,0.2162,0.2584,308.8281
10:46:05:639,-1.051,1.1539,7.733,63.5717,0.0531,0.0147,0.2126,309.3438
10:46:05:658,-1.5467,1.4004,7.0699,63.8588,0.0104,-0.0287,0.135,309.4062
10:46:05:678,-2.0327,1.9152,7.089,63.9186,-0.1655,-0.0702,0.135,309.5156
10:46:05:699,-1.6352,2.1906,8.6426,64.1398,-0.3525,-0.1417,0.2431,309.0312
10:46:05:719,-1.2999,1.9199,9.9021,64.3557,-0.3262,-0.0495,0.3317,309.0312
10:46:05:739,-1.1731,1.8817,9.4496,64.2571,-0.1607,0.1686,0.3329,309.8125
10:46:05:759,-0.9434,2.1188,9.0927,64.4817,-0.1045,0.1655,0.2798,309.8125
10:46:05:779,-0.5602,2.2193,10.3687,64.4888,-0.1399,-0.044,0.2046,311.125
10:46:05:798,-0.5004,2.0231,10.8882,64.35,-0.055,-0.1912,0.1167,311.125
10:46:05:822,-0.8453,2.0662,10.8811,64.3964,0.0489,-0.2718,0.0128,311.1406
10:46:05:840,-0.9625,2.15,11.19,64.5577,0.0696,-0.2987,-0.0385,310.2031
10:46:05:860,-0.5961,1.9271,11.834,64.6075,0.0886,-0.2676,-0.0171,310.1875
10:46:05:879,0.1484,1.7812,11.9536,64.6362,0.16,-0.2126,-0.0385,308.8125
10:46:05:899,0.3257,1.5132,11.3886,64.9897,0.2773,-0.2804,-0.1729,308.1875
10:46:05:921,0.0096,1.1755,10.4121,64.9532,0.3201,-0.4368,-0.3109,308.1875
10:46:05:939,-0.9625,0.917,9.9954,64.8664,0.1167,-0.5131,-0.3488,307.8125
10:46:05:959,-1.4414,0.5985,11.9967,65.0358,-0.3775,-0.2223,-0.193,307.8125
10:46:05:980,-0.9051,-0.1292,14.7452,64.8136,-0.6261,0.1124,0.0269,307.3125
10:46:05:999,-0.0287,-0.1723,15.0876,64.6537,-0.2688,0.2535,0.1075,307.3125
10:46:06:020,0.2273,-0.2345,11.3671,64.852,0.3567,0.1747,0.0623,306.5781
10:46:06:039,-0.0957,-0.0766,8.0824,64.7618,0.5046,-0.0605,0.0018,306.5156
10:46:06:061,-0.5602,0.1268,7.5918,64.5792,0.1002,-0.2462,0.0012,305.9844
10:46:06:080,-0.7038,0.4071,9.0353,64.7646,-0.3769,-0.2181,0.1002,305.9375
10:46:06:100,-0.256,0.2393,10.5102,64.8673,-0.5333,-0.0476,0.2578,305.7969
10:46:06:120,0.8091,0.1292,9.5405,64.7118,-0.0501,0.3751,0.2767,305.7812
10:46:06:139,0.7445,0.486,7.7115,64.9431,0.1368,0.3983,0.1087,305.8594
10:46:06:159,0.7636,0.996,7.3259,64.6647,0.0837,0.1973,-0.0599,305.8594
10:46:06:178,0.5076,1.1348,7.7952,64.4411,0.0055,-0.0531,-0.1942,306.1406
10:46:06:198,0.055,1.2736,7.3355,64.1268,0.0684,-0.1735,-0.281,306.8906
10:46:06:223,-0.1364,1.4653,6.6006,64.0193,0.0837,-0.1692,-0.2779,306.8906
10:46:06:239,0.2946,1.7094,7.2541,63.6564,-0.0079,-0.1869,-0.2114,307.0156
10:46:06:259,0.577,1.6854,7.8933,63.4004,-0.0379,-0.0977,-0.1729,307.0156
10:46:06:279,0.51,1.7812,7.8861,63.2642,0.0116,0.1264,-0.1851,307.0156
10:46:06:299,0.0837,1.9032,7.678,62.9158,-0.0214,0.3189,-0.212,306.8438
10:46:06:321,-0.1507,1.9872,7.6325,62.7431,-0.2016,0.3763,-0.182,306.8438
10:46:06:339,-0.1723,1.628,8.2525,62.6146,-0.4936,0.2584,-0.1008,306.9219
10:46:06:359,0.0167,1.2305,9.9236,62.3715,-0.8589,0.1729,-0.0635,306.9219
10:46:06:380,-0.4789,0.5506,13.0334,62.0338,-1.1026,0.2388,-0.1356,306.4062
10:46:06:399,-0.6105,-0.0455,15.2408,62.0054,-0.8643,0.3262,-0.2004,305.6719
10:46:06:421,-0.4501,-0.0957,14.2065,61.8251,-0.1796,0.273,-0.2456,305.6719
10:46:06:439,-0.62,-0.0622,11.8436,61.676,0.372,-0.0281,-0.3409,305.6562
10:46:06:462,-1.7788,-0.2656,9.7511,61.3668,0.4099,-0.4728,-0.4233,305.6562
10:46:06:480,-2.9112,-0.6488,8.9515,61.3557,-0.0318,-0.8344,-0.3812,306.1719
10:46:06:499,-3.3541,-1.1827,11.0154,61.1131,-0.7941,-0.8717,-0.1716,306.1719
10:46:06:521,-3.1747,-1.7285,14.3097,61.0159,-1.2663,-0.6273,0.1307,306.7188
10:46:06:540,-1.8649,-1.5921,15.2551,60.8841,-1.0623,-0.3268,0.4404,306.7188
10:46:06:560,-0.4334,-1.1372,13.4644,60.4435,-0.419,-0.2614,0.5559,307.0938
10:46:06:580,0.1795,-0.8163,11.1111,60.2,0.1894,-0.3677,0.4044,307.125
10:46:06:599,-0.6799,-0.7804,9.7056,59.975,0.5229,-0.3793,0.1344,307.5
10:46:06:624,-2.2457,-0.8453,8.6737,59.6944,0.565,0.1625,0.0721,307.5312
10:46:06:640,-3.1292,-0.6511,7.7785,59.2971,0.303,0.4123,0.3848,307.5156
10:46:06:659,-2.1452,-0.4214,7.5652,58.9604,-0.0678,0.3335,0.7642,307.5156
10:46:06:678,-0.7899,-0.5267,8.8176,58.7143,-0.3958,0.1405,0.9822,307.6094
10:46:06:699,-0.055,-0.5506,9.4065,58.4109,-0.4795,0.0134,0.9529,308.2188
10:46:06:720,0.1436,-0.2154,9.4472,58.2001,-0.3543,-0.1484,0.733,308.2188
10:46:06:739,0.0837,0.486,9.1669,57.9503,-0.1478,-0.3128,0.4801,309.0938
10:46:06:758,-0.2082,0.8067,8.8415,57.6591,0.0617,-0.3146,0.3268,309.0938
10:46:06:779,-0.5124,0.8764,8.1497,57.7036,0.1881,-0.1295,0.2504,309.1719
10:46:06:799,-0.7636,1.1803,7.6253,57.6379,0.1625,-0.0415,0.2052,308.9062
10:46:06:821,-0.62,1.3454,7.8718,57.5742,0.0104,-0.1655,0.2022,308.875
10:46:06:839,-0.3257,1.2736,8.8295,57.3447,-0.1637,-0.3354,0.2223,307.5469
10:46:06:859,-0.6129,0.9864,9.7295,57.1343,-0.2138,-0.4087,0.146,307.5469
10:46:06:879,-0.9817,0.9936,10.5078,56.8721,-0.1411,-0.2779,0.0922,306.9844
10:46:06:899,-0.7899,1.0199,10.7447,56.5465,-0.0153,-0.0293,0.1698,307.0625
10:46:06:920,-0.1172,0.6416,10.7088,56.159,0.1118,0.0928,0.273,307.0625
10:46:06:939,0.4478,0.2345,11.0345,55.8904,0.1411,0.1607,0.273,305.875
10:46:06:960,0.9936,0.2827,11.6498,55.578,0.1918,0.2107,0.1961,305.875
10:46:06:980,1.185,-0.0502,11.3073,55.1688,0.3635,0.1552,0.0617,303.6562
10:46:06:999,0.8115,-0.0861,11.6665,54.9224,0.4661,0.0654,-0.0849,303.6562
10:46:07:021,1.3047,-0.0598,11.2116,54.6482,0.5589,0.1258,-0.1478,302.2188
10:46:07:049,0.7828,-0.0646,9.9763,54.5164,0.5492,0.2321,-0.2126,302.2188
10:46:07:060,-0.4645,-0.3138,9.5788,54.4175,0.2077,0.0904,-0.2407,301.625
10:46:07:080,-0.8067,-0.7229,9.9117,54.4856,-0.3995,0.025,-0.069,301.5781
10:46:07:099,0.3114,-0.6105,11.8436,54.0428,-1.0152,0.1637,0.1796,301.1719
10:46:07:125,1.8529,-1.1492,15.2719,53.8406,-1.1753,0.35,0.2963,301.125
10:46:07:141,1.7979,-1.1061,12.1789,53.5376,-0.5302,0.4734,0.1533,300.6875
10:46:07:161,1.1085,-0.5674,8.6019,53.2861,0.5198,0.4239,-0.1594,300.6406
10:46:07:179,-0.0718,0.1196,6.4714,52.8958,1.1325,-0.1539,-0.6896,300.3438
10:46:07:199,-0.7828,0.4956,5.8271,52.5928,0.6267,-0.4319,-0.5492,300.3281
10:46:07:221,-0.778,0.3449,6.6365,52.2959,-0.0751,-0.4844,-0.2346,299.8125
10:46:07:242,-0.5913,-0.2465,8.6091,51.9676,-0.6402,-0.4007,0.0324,299.7656
10:46:07:259,-0.2632,-0.3544,10.273,51.8827,-0.8417,-0.2187,0.19,299.5625
10:46:07:280,0.5985,-0.0694,10.8691,51.685,-0.6615,-0.058,0.2993,299.5469
10:46:07:298,1.6472,0.0861,10.6011,51.412,-0.281,-0.0116,0.2975,299.8906
10:46:07:319,2.0303,0.0263,9.775,51.2727,0.135,-0.1008,0.0904,299.9375
10:46:07:339,1.5275,0.1077,8.8702,51.2216,0.493,-0.2511,-0.2584,300.5312
10:46:07:361,0.8115,0.6655,7.9627,50.614,0.6707,-0.2694,-0.543,300.5312
10:46:07:381,0.498,1.3669,7.5461,50.2727,0.6664,-0.284,-0.6432,300.25
10:46:07:398,0.2273,1.7166,7.6469,50.0476,0.5785,-0.3201,-0.6231,299.5781
10:46:07:420,-0.1364,1.5491,7.7737,49.7939,0.4813,-0.2621,-0.5546,299.5781
10:46:07:440,-0.2922,1.6113,7.8168,49.4188,0.3073,-0.08,-0.4441,300.5938
10:46:07:460,-0.1675,1.8601,8.4607,49.5048,0.044,-0.0031,-0.3237,300.5938
10:46:07:481,-0.012,1.6496,10.4384,49.3106,-0.2107,-0.0464,-0.2187,302.1719
10:46:07:500,-0.2489,0.9027,12.0832,49.3335,-0.226,0.011,-0.1564,302.1719
10:46:07:526,-0.644,0.3664,12.0927,49.6691,-0.0086,0.1405,-0.1118,302.2812
10:46:07:540,-0.1938,0.4597,11.3791,49.8802,0.1723,0.1582,-0.047,302.2812
10:46:07:560,0.486,0.5578,11.0034,49.8361,0.2456,-0.044,-0.0134,301.625
10:46:07:580,0.3688,0.2874,9.5453,49.8666,0.3525,-0.4966,-0.1112,301.5625
10:46:07:600,-0.1914,-0.1412,8.0513,50.0023,0.3262,-1.1948,-0.2162,301.1406
10:46:07:621,-0.8524,-1.0822,8.9396,49.8144,-0.0593,-1.5486,-0.2413,301.1094
10:46:07:643,-1.5371,-1.2257,11.3958,50.0756,-0.642,-0.81,-0.1313,302
10:46:07:662,-1.8505,-0.8716,13.3041,50.0321,-0.8943,0.3628,0.1515,302.0781
10:46:07:681,1.075,-0.6559,10.783,50.1728,-0.2101,0.7294,0.7978,303.4531
10:46:07:699,1.9896,-0.4382,8.5397,50.1877,0.0495,0.066,0.6683,303.5938
10:46:07:719,1.1013,-0.3162,7.7163,50.3923,-0.0342,-0.3176,0.3018,304.6562
10:46:07:743,-0.5028,-0.0766,8.6713,50.5568,-0.3677,-0.1344,0.0843,304.7656
10:46:07:759,-1.7501,-0.0957,10.1749,50.5542,-0.5986,0.2401,0.171,305.2969
10:46:07:779,-1.9681,-0.3616,10.6274,50.645,-0.6255,0.5724,0.4893,305.3438
10:46:07:799,-1.0128,-0.1771,10.261,50.6605,-0.5913,0.678,0.8289,305.6094
10:46:07:820,0.6775,0.1699,10.4815,50.7272,-0.5791,0.4911,1.0055,305.625
10:46:07:842,1.6615,0.0837,10.5796,50.8199,-0.416,0.1668,0.879,305.75
10:46:07:859,1.7142,0.0263,10.2993,50.8284,-0.0977,0.0031,0.5223,305.75
10:46:07:881,0.5626,0.5004,9.44,50.8174,0.1869,0.0983,0.1417,306.125
10:46:07:899,-0.5674,0.9793,8.6091,50.8649,0.3586,0.1466,-0.0177,306.4375
10:46:07:920,-1.0558,1.2305,8.2095,51.074,0.3628,0.0953,0.0764,306.4375
10:46:07:942,-0.9194,1.2018,8.0297,51.3449,0.2346,0.069,0.2816,305.5938
10:46:07:961,-0.4071,1.209,8.4177,51.3374,0.0611,-0.036,0.438,305.5938
10:46:07:980,0.364,1.3382,9.294,51.7547,-0.0678,-0.1875,0.4691,304.0156
10:46:07:999,0.4741,1.2138,10.1533,51.6624,-0.058,-0.1997,0.3738,304.0156
10:46:08:019,0.3688,1.2209,10.6777,52.084,0.0434,-0.0428,0.248,303.5312
10:46:08:043,0.4501,1.4198,11.068,52.1816,0.149,0.0831,0.1802,303.5312
10:46:08:061,0.2369,1.4533,11.3073,52.5483,0.2822,0.0379,0.1148,302.7344
10:46:08:081,-0.055,1.1755,11.6163,52.7454,0.4294,-0.0556,0.0837,302.7344
10:46:08:099,-0.3209,0.5722,12.1717,53.1689,0.5369,0.055,0.1295,300.875
10:46:08:120,-0.213,0.1675,12.0518,53.3091,0.6188,0.3109,0.2071,300.6875
10:46:08:141,0.1053,0.067,10.7255,53.4108,0.678,0.2908,0.2443,299.2344
10:46:08:162,0.7134,0.067,9.5453,53.8327,0.496,-0.1161,0.2382,299.0938
10:46:08:181,1.7333,-0.4119,11.1159,53.9234,0.0403,-0.6359,0.2004,299.0156
10:46:08:200,1.6926,-0.8019,12.8946,54.3611,-0.3738,-0.9096,0.1142,299.0156
10:46:08:219,1.6065,-1.0798,13.043,54.7137,-0.3073,-0.0073,-0.047,298.7344
10:46:08:242,1.8601,-0.833,11.458,55.1219,0.1161,0.2718,-0.1411,298.7031
10:46:08:259,1.8864,-0.4956,8.7003,55.1149,0.4313,0.2266,-0.2419,297.7812
10:46:08:279,1.9415,-0.268,7.0914,55.5422,0.3409,0.1264,-0.3183,297.6875
10:46:08:299,1.6184,-0.1795,7.6923,55.6261,-0.1252,0.2498,-0.3763,297.0625
10:46:08:320,0.5913,-0.3568,9.3969,55.8317,-0.5198,0.4349,-0.4276,296.9844
10:46:08:341,-0.4741,-0.4645,9.7487,56.2325,-0.565,0.5363,-0.3769,296.7344
10:46:08:359,-0.4717,-0.3257,9.2387,56.1962,-0.4917,0.5308,-0.1716,296.7188
10:46:08:379,0.644,-0.2608,9.7319,56.1907,-0.5039,0.4447,0.0281,296.5781
10:46:08:399,1.6113,-0.2417,10.1701,56.4196,-0.4025,0.3793,0.0336,296.25
10:46:08:419,1.9391,-0.2489,9.6386,56.5613,-0.0733,0.3525,-0.1362,296.25
10:46:08:442,1.5993,0.0311,8.2741,56.6523,0.259,0.3231,-0.3885,295.8125
10:46:08:460,1.142,0.51,7.302,56.9069,0.3836,0.2114,-0.5565,295.8125
10:46:08:481,1.051,0.7493,7.2494,56.9597,0.3066,0.0556,-0.5687,295.5312
10:46:08:499,0.9601,0.7397,7.4599,57.0144,0.1771,-0.0428,-0.5388,295.5312
10:46:08:520,1.051,0.9721,8.056,57.3084,0.0342,-0.047,-0.4917,295.7188
10:46:08:541,1.0439,1.0774,9.0664,57.6814,-0.0983,-0.0263,-0.4453,295.7188
10:46:08:560,1.0152,0.9075,10.3232,57.9439,-0.1435,-0.0428,-0.3934,296.4219
10:46:08:580,1.2592,0.833,11.3049,58.3778,-0.0965,0.0153,-0.3354,296.4219
10:46:08:600,1.2401,0.6296,12.0302,58.8492,0.0061,0.1148,-0.3323,297.1875
10:46:08:619,0.699,-0.0359,12.5139,59.3595,0.1032,0.2211,-0.369,297.2656
10:46:08:643,0.1484,-0.4119,12.6864,60.1384,0.1942,0.193,-0.4288,297.75
10:46:08:663,0.0072,-0.1555,12.4158,60.7041,0.3292,-0.0641,-0.5113,297.7969
10:46:08:682,-0.9051,-0.5267,9.5812,61.0662,0.4856,-0.5999,-0.6689,297.6719
10:46:08:700,-2.0255,-0.8306,8.3195,61.2339,0.0275,-0.5614,-0.6182,297.6562
10:46:08:721,-2.5834,-0.9147,10.261,61.6204,-0.8234,-0.3909,-0.3464,298.2344
10:46:08:743,-1.2879,-1.2497,14.0725,61.9636,-1.3733,-0.2492,0.0757,298.2812
10:46:08:759,0.6009,-1.4605,15.3461,62.2819,-1.036,-0.1588,0.2401,299.5
10:46:08:779,1.0798,-1.2903,13.1076,62.2728,-0.1032,-0.0867,-0.0397,299.625
10:46:08:799,-0.2177,-0.9864,9.9236,62.4621,0.7074,-0.0525,-0.5168,300.6875
10:46:08:819,-1.9992,-0.6009,7.7976,62.1637,0.9077,0.1087,-0.7507,300.7969
10:46:08:843,-3.3565,-0.213,7.3427,62.3723,0.6005,0.3054,-0.6237,301.6094
10:46:08:860,-3.8043,-0.1603,8.0824,62.6331,0.1759,0.3659,-0.2144,301.6875
10:46:08:880,-2.7102,-0.2656,8.7841,62.6657,-0.0983,0.2352,0.2792,302.4219
10:46:08:899,-1.0798,-0.2608,8.8534,62.7873,-0.1576,-0.0354,0.5693,303.3594
10:46:08:920,0.1555,-0.1771,8.8822,63.0298,-0.1014,-0.2004,0.5656,303.3594
10:46:08:943,0.3449,-0.1268,8.8439,63.2681,0.0128,-0.1753,0.339,304.6562
10:46:08:961,-0.486,0.2106,8.3794,63.4529,0.1686,-0.0544,0.0666,304.6562
10:46:08:980,-1.0056,0.7636,7.6181,63.8168,0.2413,0.0501,-0.0122,306.0938
10:46:08:999,-1.0199,0.9984,7.4527,63.8639,0.1692,0.0409,0.0519,306.0938
10:46:09:019,-0.8091,0.9673,7.8359,63.9532,0.0043,-0.0354,0.1301,306.125
10:46:09:042,-0.766,0.9314,8.1592,64.0687,-0.0745,-0.2022,0.1533,306.125
10:46:09:061,-0.7756,0.9697,8.2406,64.1707,-0.1112,-0.234,0.1729,305.7656
10:46:09:111,-0.3233,1.118,9.1214,64.0939,-0.2077,-0.0647,0.1881,305.7656
10:46:09:111,-0.1149,1.2832,10.3783,64.3485,-0.2382,0.1503,0.1625,307.1719
10:46:09:120,-0.5626,1.2855,10.7255,64.5931,-0.0464,0.2089,0.0678,307.3281
10:46:09:144,-1.2162,1.6567,10.0648,64.8307,0.212,0.1264,-0.0073,308.2812
10:46:09:160,-0.9194,2.0183,10.1821,65.1364,0.284,0.0977,0.0342,308.375
10:46:09:180,-0.7851,1.3238,11.6186,65.2486,0.2126,0.1906,0.1148,307.5156
10:46:09:200,0.8067,-0.5004,11.5134,65.3664,0.2627,0.2957,0.1991,307.4375
10:46:09:221,2.6695,-0.3568,11.5325,65.4769,0.361,0.237,0.3164,306.5
10:46:09:243,3.2536,-0.2776,12.023,65.8662,0.2895,0.1197,0.2871,306.4062
10:46:09:260,2.0088,-0.5841,11.7933,66.2767,0.1955,-0.0757,-0.3952,306.3906
10:46:09:279,0.565,-0.6248,11.1996,66.0712,0.1283,-0.011,-0.5644,306.3906
10:46:09:299,-0.0167,-0.3616,11.2283,66.0902,-0.1081,0.0348,-0.4734,306.2188
10:46:09:319,1.0678,-0.2417,11.8125,66.2179,-0.2651,-0.0874,-0.2743,306.2031
10:46:09:343,2.6527,-0.256,11.482,66.3312,-0.1075,-0.2572,-0.212,305.8438
10:46:09:361,2.7054,-0.2704,9.775,66.1811,0.2364,-0.2853,-0.4392,305.8125
10:46:09:380,1.4916,0.256,8.0154,66.2272,0.3225,-0.0739,-0.7135,305.375
10:46:09:399,-0.1172,0.754,7.3403,66.0486,0.0678,0.0464,-0.7984,305.3438
10:46:09:420,-1.0199,1.0152,8.0752,65.7898,-0.361,0.0055,-0.6023,305.3438
10:46:09:444,-0.9075,0.5411,9.7774,65.8909,-0.6799,-0.0513,-0.2327,305.25
10:46:09:461,-0.6846,-0.1819,10.7495,66.0126,-0.7037,-0.0012,0.0629,305.25
10:46:09:482,-0.0239,-0.1986,10.4575,65.7679,-0.5498,0.11,0.2248,304.7812
10:46:09:500,1.1994,0.1866,10.5245,65.5547,-0.3873,0.0996,0.2431,304.7812
10:46:09:520,1.7501,0.1842,10.4456,65.7119,-0.157,0.0501,0.0825,304.5312
10:46:09:543,1.2233,-0.0479,9.3682,65.681,0.2205,-0.0764,-0.212,304.5312
10:46:09:562,0.3329,0.4167,7.7402,65.5439,0.5058,-0.1716,-0.452,305.6094
10:46:09:580,0.0909,1.0343,6.6485,65.3769,0.5345,-0.2639,-0.4826,305.6094
10:46:09:601,0.577,1.4844,6.6389,65.2793,0.3714,-0.2999,-0.3891,306.3906
10:46:09:621,0.874,1.5491,6.9811,65.2184,0.2071,-0.2517,-0.3329,306.3906
10:46:09:640,0.3975,1.7118,7.0555,65.195,0.1374,-0.2498,-0.4209,307.0469
10:46:09:659,-0.4286,2.3653,7.4097,65.2419,0.0434,-0.3152,-0.5064,307.1094
10:46:09:682,-1.3023,2.4562,8.4416,65.172,-0.1155,-0.3573,-0.3806,308.6562
10:46:09:700,-1.5706,1.6113,10.6801,65.0659,-0.35,-0.1521,-0.0269,308.8125
10:46:09:722,-0.6488,0.443,13.4477,65.0885,-0.4239,0.5241,0.5779,309.5469
10:46:09:744,0.9912,-0.28,14.3886,65.0787,-0.146,0.314,0.5107,309.625
10:46:09:761,2.5208,-0.6464,13.6965,64.9216,0.124,-0.1362,0.1845,309.2188
10:46:09:779,2.2122,-0.8282,11.8173,64.8017,0.1319,-0.2676,-0.2071,309.1875
10:46:09:799,0.4167,-1.0175,12.6625,64.909,-0.0263,-0.0904,-0.4832,308.8125
10:46:09:819,-0.8979,-0.8859,13.2395,64.6832,-0.0385,0.1716,-0.5204,308.7656
10:46:09:844,-1.884,-0.9434,12.2459,64.5271,0.1796,0.317,-0.3488,309.4844
10:46:09:861,-1.9391,-1.2114,10.2993,64.2417,0.2981,0.3512,-0.0134,309.5625
10:46:09:879,-0.5267,-0.9601,9.9236,63.9504,0.0892,0.2419,0.3421,310.4844
10:46:09:899,0.8282,-0.6081,10.9313,63.6413,-0.0928,-0.047,0.4294,311.4219
10:46:09:920,0.7349,-0.5674,10.6968,63.3608,0.1283,-0.2773,0.2205,311.4219
10:46:09:943,-0.4741,-0.3425,9.3514,62.9761,0.5046,-0.2419,-0.0226,312.3438
10:46:09:962,-1.9657,-0.2321,7.57,62.4697,0.6524,-0.0238,-0.0391,312.3438
10:46:09:980,-2.5881,0.1484,6.4618,62.1147,0.3842,0.1778,0.2413,311.9219
10:46:10:000,-1.6304,0.3473,6.9763,61.9445,-0.1405,0.1753,0.7098,311.9219
10:46:10:020,-0.3497,0.0287,8.8439,61.6378,-0.5577,-0.0061,1.0281,310.7344
10:46:10:044,0.6727,0,9.9021,61.3287,-0.6108,-0.0391,1.083,310.7344
10:46:10:061,0.9721,0.1412,9.7822,61.1328,-0.3586,0.014,0.9193,310.7344
10:46:10:080,0.7804,0.4478,8.7625,60.9158,-0.0428,0.0092,0.664,310.7344
10:46:10:099,0.7828,0.8835,8.0895,60.745,0.113,-0.0379,0.4911,311.8281
10:46:10:121,0.6105,0.9912,8.1449,60.5583,0.1179,-0.0165,0.3806,311.8281
10:46:10:139,0.1125,1.0678,8.0991,60.612,0.1209,0.0507,0.2963,312.2969
10:46:10:162,0.1292,1.4004,7.9508,60.3553,0.0959,0.1191,0.3054,312.3438
10:46:10:181,0.4358,1.4892,8.5899,60.3515,-0.0006,0.0886,0.3286,311.5781
10:46:10:201,0.6655,1.3765,9.5022,60.2444,-0.0641,0.0318,0.3073,311.5156
10:46:10:221,1.0558,1.3023,10.1079,59.9195,-0.0397,0.0336,0.2694,311.3281
10:46:10:244,1.4294,1.264,11.2307,59.551,0.0629,0.1185,0.0788,311.3281
10:46:10:261,1.5179,0.9697,11.5397,59.1672,0.16,0.0904,-0.0153,311.2188
10:46:10:279,1.5538,0.7301,11.4485,58.8987,0.3054,-0.0128,-0.08,311.2031
10:46:10:299,1.4964,0.6679,10.9651,58.5081,0.3738,-0.0916,-0.1448,309.4219
10:46:10:319,1.4797,0.6703,10.8906,58.242,0.3018,-0.1588,-0.2346,309.25
10:46:10:339,1.3095,0.6775,11.1661,57.7023,0.1729,-0.2016,-0.3292,307.1406
10:46:10:363,1.0295,0.7181,11.0895,57.3074,0.0764,-0.2327,-0.3848,306.9375
10:46:10:380,0.6918,0.7397,10.7447,56.9738,-0.0324,-0.3219,-0.3598,305.7656
10:46:10:400,0.8524,0.5746,10.8739,56.9264,-0.1845,-0.4765,-0.2737,304.9375
10:46:10:420,1.6878,0.2728,11.7455,56.6249,-0.3036,-0.543,-0.2046,304.9375
10:46:10:439,2.4993,-0.0335,12.1597,56.2934,-0.179,-0.4282,-0.2682,304.25
10:46:10:461,2.4084,-0.0072,10.8523,55.9816,0.1588,-0.1692,-0.4728,304.25
10:46:10:481,1.6065,0.2512,9.1382,55.2693,0.3793,0.011,-0.6579,303.6094
10:46:10:499,1.0702,0.4597,8.3937,55.0284,0.2529,0.11,-0.6603,303.6094
10:46:10:520,0.7756,0.364,8.511,54.3776,-0.0776,0.19,-0.5253,303.3281
10:46:10:544,0.1962,-0.0263,9.2868,54.1615,-0.4099,0.1619,-0.394,303.3281
10:46:10:563,-0.486,-0.1555,9.8495,53.3076,-0.6194,0.0299,-0.2608,303.4844
10:46:10:581,0.1627,0.0096,10.1773,52.9262,-0.6451,-0.1955,-0.0727,303.4844
10:46:10:600,1.5538,0.0048,10.3304,52.2269,-0.474,-0.4166,0.0226,303.9688
10:46:10:622,2.0566,-0.1819,9.495,51.515,-0.1515,-0.4948,-0.1374,303.9688
10:46:10:639,1.6017,0.1651,7.8622,51.1785,0.124,-0.4563,-0.4025,304.7656
10:46:10:661,1.2497,0.754,6.7633,50.616,0.1881,-0.4777,-0.5217,304.7656
10:46:10:680,1.5371,1.1372,6.9523,50.2535,0.0654,-0.4832,-0.4752,305.3594
10:46:10:700,1.7907,1.2066,7.5676,49.66,-0.0531,-0.3134,-0.3861,305.4219
10:46:10:722,1.5921,1.0295,7.6732,49.2986,-0.0867,0.0293,-0.2932,305.8125
10:46:10:741,1.8984,1.197,9.6003,48.7421,-0.1839,0.0922,-0.2437,305.8594
10:46:10:763,1.884,0.9099,10.625,48.4529,-0.215,0.1997,-0.223,307.0312
10:46:10:780,1.5802,0.8378,11.2235,48.1836,-0.1545,0.2034,-0.2144,307.1406
10:46:10:798,1.3932,0.5818,11.9584,47.7499,-0.1002,0.1747,-0.1692,308.3594
10:46:10:819,2.071,-0.2058,13.6941,47.3989,-0.0959,0.2883,-0.0782,308.4688
10:46:10:839,2.5834,-1.5993,14.3862,46.947,0.1185,0.4447,-0.0855,309.0625
10:46:10:864,3.0547,-1.6424,12.5474,46.5723,0.5247,0.3335,-0.2914,309.125
10:46:10:879,2.8083,-0.4597,10.5844,46.1362,0.7324,-0.1319,-0.6573,309.0625
10:46:10:901,1.9753,0.2369,9.8877,45.8127,0.5779,-0.4936,-0.9169,309.5312
10:46:10:921,0.8453,0.376,9.9954,45.4892,0.2969,-0.5485,-0.9743,309.5312
10:46:10:939,-0.1651,0.5626,9.8399,44.9911,0.0275,-0.3366,-0.8753,310.625
10:46:10:962,-1.1276,0.5435,9.7798,44.4942,-0.1698,-0.2083,-0.6408,310.625
10:46:10:980,-0.941,0.3473,9.8566,43.9068,-0.3292,-0.1264,-0.2425,311.4062
10:46:11:000,0.3329,0.122,10.1964,43.5522,-0.4135,-0.0715,0.1277,311.4062
10:46:11:021,0.9242,0.0311,10.1629,43.0461,-0.3445,-0.0837,0.1833,312
10:46:11:039,0.6727,0.0167,10.127,42.6487,-0.1796,-0.0892,0.0593,312
10:46:11:060,-0.1484,-0.3951,9.6529,42.1313,0.022,-0.0305,-0.0623,312.4844
10:46:11:080,-1.0343,-0.7851,8.918,41.4862,0.0819,0.1142,-0.0593,312.4844
10:46:11:099,-1.2712,-0.7732,8.499,41.0299,-0.0764,0.1778,0.1161,312.5
10:46:11:165,-0.3808,-0.6966,8.7745,40.7588,-0.3158,0.033,0.3763,312.7812
10:46:11:165,0.9027,-0.4669,9.5716,40.4463,-0.4618,-0.1497,0.5052,313.2969
10:46:11:166,1.5371,-0.2201,9.7654,39.921,-0.3909,-0.2285,0.416,313.2969
10:46:11:182,1.0917,0.0287,9.1741,39.3437,-0.1582,-0.2993,0.179,314.9062
10:46:11:199,0.6296,0.632,8.7482,39.1062,0.0018,-0.2614,0.0165,315.0781
10:46:11:220,0.0766,0.9721,8.7984,38.5588,0.0788,-0.0983,-0.0055,316.9062
10:46:11:241,-0.2704,1.2114,8.3961,38.2402,0.1484,0.0733,0.0751,317.0781
10:46:11:262,-0.2417,1.5514,7.7593,37.9202,0.1625,0.0531,0.2266,317.9375
10:46:11:282,0.6081,1.4821,9.3108,37.3566,-0.0776,-0.1381,0.3995,318.0156
10:46:11:300,0.1651,1.494,9.8327,36.8235,-0.0452,-0.0061,0.3451,317.6875
10:46:11:321,0.2898,1.7477,10.0002,36.6105,0.0702,0.1649,0.3738,317.6406
10:46:11:339,0.8907,1.896,10.3184,36.2632,0.1326,0.2419,0.4484,317.6406
10:46:11:363,1.0989,1.5036,10.2012,35.6989,0.2382,-0.0244,0.4404,317.6406
10:46:11:380,1.1515,1.2784,9.5692,35.431,0.3158,-0.5156,0.3781,317.5938
10:46:11:399,1.3167,1.0678,9.3921,35.1994,0.2156,-0.9377,0.3543,316.6719
10:46:11:419,1.9271,0.6799,10.8882,34.6776,-0.0257,-0.9407,0.4019,316.6719
10:46:11:439,2.5762,0.2201,13.0573,34.4609,-0.0721,-0.4777,0.4355,315.8594
10:46:11:463,2.9925,-0.0909,13.3448,34.1278,0.2321,0.2138,0.4105,315.8594
10:46:11:481,3.213,-0.1962,11.846,33.7985,0.6011,0.6438,0.3531,315.8125
10:46:11:501,2.9136,-0.2082,10.1677,33.5396,0.5992,0.7232,0.284,315.8125
10:46:11:522,2.849,-0.3712,10.2275,33.4989,0.1674,0.4276,0.2431,315.5
10:46:11:540,3.5599,-0.6655,12.0688,33.2811,-0.2718,-0.0122,0.1967,315.5
10:46:11:562,3.8521,-0.9482,12.8994,32.7397,-0.2504,-0.2028,0.0092,314.7188
10:46:11:581,3.0763,-0.9577,10.9914,32.7623,0.1698,-0.1008,-0.3018,314.6562
10:46:11:599,2.1811,-0.4621,8.365,32.3406,0.4392,0.0623,-0.4789,313.8594
10:46:11:621,1.6759,0.0981,7.5413,32.1995,0.2083,0.2407,-0.4142,313.8594
10:46:11:639,1.398,-0.0024,8.8056,31.8528,-0.2376,0.4667,-0.1845,312.9219
10:46:11:665,1.0869,-0.4908,9.9428,31.5291,-0.4691,0.6066,0.0232,312.9219
10:46:11:680,0.9003,-0.3832,9.3084,30.8897,-0.4997,0.6218,0.1802,312.1094
10:46:11:699,1.6998,-0.0933,9.0353,30.6468,-0.5718,0.4148,0.317,312.0312
10:46:11:720,2.6001,-0.1723,10.1964,30.5508,-0.6903,0.2272,0.328,311.1094
10:46:11:739,2.8346,-0.2704,10.5844,30.4847,-0.5498,0.1741,0.1338,311.0156
10:46:11:765,2.2504,0.0814,9.7798,30.461,-0.1826,0.1582,-0.1539,310.3125
10:46:11:781,1.4821,0.5435,8.3387,30.3662,0.1435,0.146,-0.3286,310.2344
10:46:11:801,1.3095,1.1396,7.2805,30.1318,0.2388,0.0806,-0.2223,309.7812
10:46:11:820,1.5395,1.2018,6.8614,30.2441,0.2022,0.0782,-0.1381,309.75
10:46:11:840,1.8721,1.5012,6.8495,30.2872,0.1045,0.1313,-0.0928,309.5156
10:46:11:859,2.0662,1.7166,8.6067,30.394,-0.0257,0.2095,-0.0831,309.4844
10:46:11:879,1.1707,1.2736,9.8877,30.0411,0.0776,0.2682,-0.1087,310.2812
10:46:11:899,0.4836,1.0343,9.8279,29.6964,0.3299,0.3341,-0.0385,310.9844
10:46:11:919,0.9123,1.2185,9.5644,29.6949,0.3769,0.3567,0.1564,310.9844
10:46:11:939,1.6208,0.917,10.3496,29.5801,0.2272,0.2932,0.2712,310.8438
10:46:11:964,1.7477,0.297,11.834,29.5925,0.0886,0.2804,0.2352,310.8438
10:46:11:982,1.4294,-0.0144,12.7989,29.543,0.1381,0.2847,0.091,310.1719
10:46:12:000,1.1252,0.1388,12.0855,29.4245,0.3054,0.182,-0.0562,310.1094
10:46:12:021,0.8979,0.2776,10.7973,28.9807,0.361,-0.0666,-0.1362,310.0938
10:46:12:039,0.3018,0.1484,10.4839,29.2137,0.1778,-0.2963,-0.1698,310.0938
10:46:12:066,-0.6823,-0.2106,10.8476,29.1495,-0.1014,-0.3897,-0.1552,310.0938
10:46:12:080,-1.2999,-0.498,11.0871,28.9516,-0.3531,-0.2688,0.0061,310.8594
10:46:12:099,-1.1276,-0.8859,11.1159,29.0985,-0.5681,-0.1075,0.3091,311.2969
10:46:12:121,0.2728,-1.0893,11.4197,28.9707,-0.6976,-0.1863,0.5974,311.2969
10:46:12:139,1.9681,-0.7899,11.8412,28.8156,-0.609,-0.339,0.6389,311.5312
10:46:12:165,2.4275,-0.766,11.901,29.0363,-0.281,-0.2529,0.3763,311.5312
10:46:12:180,0.6344,-1.0319,10.8404,28.9092,0.1362,0.0965,-0.0263,311.7656
10:46:12:200,-1.1037,-0.7062,9.2028,29.0232,0.3299,0.4826,-0.157,311.7656
10:46:12:220,-1.8817,-0.4358,8.377,28.7846,0.1588,0.5149,0.0654,311.4219
10:46:12:240,-1.13,-0.4669,8.432,28.6379,-0.1747,0.1888,0.4343,311.3906
10:46:12:266,0.565,-0.3353,9.3945,28.6065,-0.4251,-0.2144,0.6927,311.1094
10:46:12:281,1.6567,-0.1651,10.1892,28.5526,-0.4264,-0.3708,0.6402,311.0781
10:46:12:301,1.4557,0.1388,10.2538,28.7238,-0.1545,-0.2718,0.3653,311.3281
10:46:12:321,0.5674,0.8883,7.4527,28.4518,0.5015,0.0086,0.0666,311.3594
10:46:12:339,0.632,1.252,7.0699,28.6076,0.4337,0.1374,0.0953,311.6562
10:46:12:361,0.7205,1.4222,7.3355,28.4576,0.2749,0.2022,0.1289,311.6875
10:46:12:379,0.9386,1.5849,7.4384,28.8247,0.1814,0.1246,0.135,311.2969
10:46:12:398,1.3645,1.7261,7.9723,29.0745,0.0965,-0.0116,0.1045,309.8906
10:46:12:419,1.3502,1.5682,9.1119,28.8577,0.0232,-0.0788,0.0037,309.8906
10:46:12:438,0.9769,1.5682,9.8157,29.1087,0.0599,0.0086,-0.1063,309.3594
10:46:12:460,0.7038,1.5778,10.0337,29.3383,0.1399,0.1674,-0.1228,309.3594
10:46:12:479,0.8402,1.6017,10.7973,29.4662,0.1069,0.3128,-0.066,309.5312
10:46:12:499,1.0989,1.3669,11.9536,29.6526,0.088,0.3097,-0.0153,309.5312
10:46:12:520,1.5419,1.0343,12.6553,30.031,0.1839,0.292,0.0006,309.5469
10:46:12:538,1.6854,0.778,12.1908,30.1113,0.3146,0.2914,-0.0525,308.25
10:46:12:560,1.6543,0.7804,11.2187,30.2399,0.3726,0.0941,-0.1539,308.2344
10:46:12:579,1.7812,0.9051,10.5915,30.2894,0.2737,-0.1533,-0.2052,307.0469
10:46:12:598,1.9606,0.6823,10.7471,30.3837,0.0898,-0.3347,-0.2083,306.875
10:46:12:620,2.0136,0.486,10.9098,30.1483,-0.0715,-0.3873,-0.2059,306.875
10:46:12:638,1.9415,0.3879,10.7423,30.2946,-0.1497,-0.3732,-0.2126,306.7188
10:46:12:660,2.0662,0.2776,10.8332,30.3239,-0.2059,-0.3696,-0.2193,306.7188
10:46:12:679,2.904,0.0048,11.6306,30.0254,-0.1875,-0.3146,-0.2645,306.4844
10:46:12:699,2.6671,-0.4286,11.3097,29.8772,0.0159,-0.091,-0.4514,306.4844
10:46:12:720,1.7453,-0.1627,9.5285,29.7721,0.2052,0.1655,-0.6328,306.5781
10:46:12:739,0.8019,0.0981,8.2406,29.9928,0.1136,0.1845,-0.6133,306.5938
10:46:12:759,0.6009,0.1077,8.7386,29.8376,-0.2346,0.0562,-0.4331,306.8281
10:46:12:780,0.9553,-0.285,10.4169,29.8831,-0.5485,0.0281,-0.2254,306.8594
10:46:12:800,0.9482,-0.6368,11.3408,29.8916,-0.3525,0.168,-0.2089,306.9219
10:46:12:821,0.9505,-0.4836,10.8739,29.8908,-0.0483,0.0391,-0.2773,306.9219
10:46:12:838,1.5658,0.376,8.2143,30.0526,0.1075,-0.1405,-0.3329,307.2188
10:46:12:859,1.573,0.4525,7.8335,29.823,0.146,-0.281,-0.4398,307.25
10:46:12:879,1.3238,0.7134,7.2613,29.7269,0.1979,-0.3201,-0.573,307.6719
10:46:12:898,0.9386,1.1779,6.7274,29.6809,0.2254,-0.2816,-0.6163,308.0938
10:46:12:918,0.9075,1.4988,7.0149,29.8831,0.1533,-0.1674,-0.5528,308.0938
10:46:12:938,1.1755,1.5179,8.0034,29.7939,0.0599,0.025,-0.4178,308.5469
10:46:12:959,0.6296,1.1803,8.5086,29.7329,0.0977,0.179,-0.3323,308.5469
10:46:12:980,0.4645,1.2473,8.8367,29.8881,0.1307,0.3189,-0.1918,308.5938
10:46:12:998,1.0989,1.0774,10.1198,29.7468,0.0531,0.4349,0.0018,309.7969
10:46:13:019,1.5299,0.6559,11.4652,30.0751,0.0226,0.562,0.0727,309.8125
10:46:13:038,1.7166,0.5961,11.9154,30.2831,0.1448,0.5937,0.0183,310.9688
10:46:13:060,1.963,0.5052,12.0302,30.3952,0.2779,0.4539,-0.113,310.9688
10:46:13:079,1.8936,0.2776,11.8029,30.343,0.3311,0.2651,-0.2816,311.3125
10:46:13:099,1.7094,0.3592,11.2977,30.4007,0.3366,-0.0409,-0.4642,311.8281
10:46:13:119,1.2832,0.7684,10.4121,30.5478,0.3097,-0.4166,-0.5937,311.8281
10:46:13:138,0.2177,0.565,10.1438,30.4105,0.2046,-0.7239,-0.6304,312.6719
10:46:13:160,-1.0104,0.134,10.3496,30.5697,-0.0861,-0.5418,-0.5351,312.6719
10:46:13:180,-1.8147,0.0646,11.4748,30.6208,-0.4917,-0.0165,-0.2572,313.9688
10:46:13:223,-1.2305,-0.3042,12.8851,30.5096,-0.6951,0.2914,0.1381,313.9688
10:46:13:223,0.309,-0.5339,12.7893,30.3305,-0.4832,0.1619,0.4227,314.9531
10:46:13:239,0.9314,-0.3018,10.7925,30.502,-0.0104,-0.1985,0.3647,315.0625
10:46:13:259,0.0694,-0.0167,8.4775,30.5295,0.317,-0.438,0.1252,315.625
10:46:13:280,-0.9864,0.3066,7.8694,30.5562,0.2181,-0.3421,0.0342,315.6875
10:46:13:299,-1.6232,0.553,8.5947,30.7365,-0.0617,-0.0031,0.1674,315.6875
10:46:13:321,-1.9343,-0.0814,9.2124,30.5906,-0.3714,0.4337,0.8191,315.6875
10:46:13:339,-0.8115,0.0096,9.2004,30.4203,-0.5327,0.3128,1.1081,315.8594
10:46:13:359,0.9075,0.2536,10.1868,30.5652,-0.6414,0.1197,1.2339,315.8906
10:46:13:380,1.8864,0.2465,10.6274,30.7735,-0.4752,0.0177,1.0733,316.7031
10:46:13:398,1.5682,0.3042,9.9428,30.658,-0.0354,-0.0257,0.6933,318
10:46:13:418,0.5243,0.7875,8.2047,30.7213,0.3964,0.0073,0.3616,318
10:46:13:438,0.1771,1.4605,7.0026,30.6698,0.5149,0.0837,0.2969,318.8438
10:46:13:460,0.4573,1.8505,7.357,30.5522,0.3018,0.1796,0.3659,318.8438
10:46:13:480,0.1292,1.6878,8.1254,30.7989,0.1271,0.1796,0.369,318.9219
10:46:13:498,-0.3616,1.9271,7.6708,31.0727,0.0672,0.2217,0.3781,318.25
10:46:13:520,-1.0534,2.2074,7.4647,30.9437,-0.1289,0.3262,0.4587,318.2344
10:46:13:539,-1.2018,2.0136,9.3993,30.8253,-0.4728,0.4948,0.6249,317.6875
10:46:13:559,-0.8091,1.4749,12.3966,30.8585,-0.6396,0.8393,0.8643,317.6875
10:46:13:581,0.4884,0.7158,14.5083,30.9524,-0.3836,1.1686,1.0763,317.4531
10:46:13:598,2.2002,-0.0359,14.2113,31.0519,0.1643,1.1325,1.1014,316.0312
10:46:13:619,3.3063,-0.3018,12.4684,31.2167,0.6341,0.6151,0.7733,316.0312
10:46:13:639,3.3948,-0.1149,11.5086,31.3241,0.6872,0.0391,0.2614,313.3906
10:46:13:660,2.6288,-0.268,11.5947,31.2833,0.518,-0.3769,-0.1735,313.3906
10:46:13:680,1.4892,-0.213,11.7215,31.4488,0.3983,-0.6334,-0.4355,311.375
10:46:13:698,0.7301,-0.0957,11.1398,31.7021,0.3299,-0.6756,-0.4526,311.375
10:46:13:720,0.4286,-0.1077,10.4575,31.8026,0.1833,-0.5559,-0.2871,310.7344
10:46:13:739,0.8668,-0.2728,11.0536,31.7342,-0.0513,-0.314,-0.0959,310.7344
10:46:13:759,1.4605,-0.4286,12.478,31.9753,-0.1429,-0.0238,-0.0696,310.0625
10:46:13:780,1.4004,-0.4382,12.4517,31.904,0.1057,0.2785,-0.2199,309.9844
10:46:13:798,0.7205,-0.3951,10.218,31.5682,0.5266,0.3751,-0.3824,309.1719
10:46:13:820,0.4693,0.1172,7.6971,31.7014,0.6524,0.3213,-0.4019,309.0938
10:46:13:839,0.5841,0.3736,7.3379,31.5368,-0.0892,0.3592,-0.2993,307.5625
10:46:13:860,-0.2417,-0.1603,9.883,31.3909,-0.3806,0.4826,-0.2792,307.4219
10:46:13:880,-0.644,-0.0215,10.3953,31.6203,-0.3934,0.7245,-0.2535,305.3438
10:46:13:898,-0.4597,0.189,10.0098,31.7884,-0.1869,0.7849,-0.1393,304.3125
10:46:13:918,0.1364,0.3066,8.9444,31.3977,0.0208,0.6451,-0.0562,304.3125
10:46:13:938,0.5698,0.4406,7.7569,31.3435,0.1417,0.2712,-0.1209,304.2188
10:46:13:958,0.553,0.6846,6.9835,31.5189,0.1155,-0.0421,-0.2828,304.9062
10:46:13:981,0.3927,1.0702,7.2972,31.4958,-0.0202,-0.1784,-0.3879,304.9844
10:46:13:999,-0.1029,1.2305,7.8407,31.6033,-0.0678,-0.2333,-0.4282,305.75
10:46:14:019,-0.5483,1.4079,7.946,31.717,-0.0409,-0.1484,-0.3628,305.8281
10:46:14:039,-0.5004,1.6089,8.1087,31.5085,-0.0299,-0.0593,-0.1942,305.9688
10:46:14:059,0.201,1.5826,9.2004,31.6003,-0.0354,0.0513,-0.0171,305.9688
10:46:14:079,0.3329,1.2975,9.5524,31.8223,0.069,0.1881,0.025,306.7344
10:46:14:098,-0.0024,1.4127,9.0999,31.8947,0.1716,0.2608,-0.0214,307.7031
10:46:14:119,0.1077,1.6711,9.4591,31.8274,0.0922,0.2425,-0.0287,307.7031
10:46:14:138,-0.2297,1.3717,10.838,31.8401,-0.0257,0.149,-0.0458,308.3125
10:46:14:159,-0.6511,0.9458,11.5325,31.9159,-0.0012,0.1912,-0.0635,308.3125
10:46:14:181,-0.6129,0.7756,11.4413,31.7505,0.0531,0.3011,-0.0421,308.7031
10:46:14:199,-0.1842,0.821,11.554,31.629,0.0654,0.2266,-0.0391,308.7031
10:46:14:220,0,0.8282,11.7838,31.5404,0.0996,0.1307,-0.0965,308.9531
10:46:14:239,-0.5411,0.8186,11.2355,31.3943,0.1503,0.1881,-0.1918,308.9531
10:46:14:259,-1.8218,0.6416,10.5126,31.4309,0.0971,0.193,-0.2364,309.6406
10:46:14:281,-2.691,0.364,10.5461,31.5698,-0.1252,0.091,-0.124,309.7031
10:46:14:299,-2.4299,0.0479,11.4341,31.4014,-0.3995,0.0874,0.1344,310.4688
10:46:14:319,-1.2688,-0.3568,12.277,31.4004,-0.496,0.11,0.3677,310.5469
10:46:14:340,0.0263,-0.0167,11.578,31.3179,-0.2651,-0.0024,0.3995,310.75
10:46:14:360,-0.3257,0.2536,8.31,31.5641,0.091,-0.1833,0.2285,310.7656
10:46:14:383,-1.5538,0.1244,8.6019,31.435,-0.014,-0.0446,-0.1588,310.8281
10:46:14:400,-2.7365,0.122,8.9587,31.3303,-0.1765,0.1637,-0.1209,310.8281
10:46:14:418,-2.8011,0.0766,9.0497,31.1268,-0.3079,0.3323,0.1393,310.9375
10:46:14:438,-1.7907,-0.067,9.6147,31.0323,-0.4197,0.2559,0.4099,310.9375
10:46:14:458,-0.6105,0.1651,10.139,30.965,-0.4019,0.1106,0.4759,311.0781
10:46:14:480,-0.2465,0.3449,9.7415,30.9786,-0.1894,-0.0171,0.3421,311.0781
10:46:14:499,-0.6535,0.6894,8.3291,31.2903,0.0367,-0.0837,0.1399,311.2656
10:46:14:518,-0.9888,1.1683,7.1704,31.322,0.0757,-0.1729,0.0593,311.2812
10:46:14:539,-0.9266,1.6113,7.0795,31.4278,-0.0379,-0.3305,0.088,311.8125
10:46:14:559,-0.5746,1.841,7.8861,31.5592,-0.1515,-0.2889,0.1503,311.8125
10:46:14:582,-0.644,1.7261,8.5756,31.9288,-0.1521,-0.0263,0.1808,311.7188
10:46:14:599,-0.7158,1.7094,8.7888,31.9881,-0.0727,0.1509,0.1894,310.7344
10:46:14:620,-0.1866,1.8027,9.3132,32.1826,-0.0318,0.149,0.2095,310.7344
10:46:14:639,0.0574,1.6519,10.4097,32.3053,0.0098,0.1203,0.157,310.5
10:46:14:660,-0.3784,1.6041,10.6514,32.2919,0.1649,0.1148,0.0159,310.5
10:46:14:682,-0.8139,1.8649,9.9763,32.3585,0.2889,0.0287,-0.0776,310.7812
10:46:14:699,-0.5698,1.9896,10.4551,32.3335,0.1985,-0.1393,-0.066,310.7812
10:46:14:719,-0.6224,1.5227,11.5923,32.5642,0.1063,-0.2547,-0.0721,310.0625
10:46:14:738,-0.4573,1.3525,12.2172,32.4964,0.1362,-0.1393,-0.0788,310.0625
10:46:14:759,-0.3281,1.2664,12.5833,32.7561,0.2248,0.0232,-0.0702,309.0469
10:46:14:780,-0.4071,1.0391,11.8388,32.8408,0.3799,0.1026,-0.0611,309.0469
10:46:14:799,-0.5602,0.8091,10.0361,32.8862,0.4111,0.1246,-0.0116,308.8594
10:46:14:820,-0.5219,0.4334,8.729,32.8659,0.1069,-0.0367,0.0654,308.8281
10:46:14:838,0.1795,-0.0072,10.1318,32.9728,-0.4649,-0.2785,0.1387,308.5312
10:46:14:862,0.5961,-0.6559,12.6215,33.1588,-0.6151,-0.1655,-0.0122,308.5
10:46:14:881,1.0295,-0.8572,13.3902,33.36,-0.1264,-0.0556,-0.2474,308.0938
10:46:14:899,1.4414,0.1196,9.5189,33.2909,0.3421,-0.1448,-0.4978,308.0625
10:46:14:919,1.0032,0.2393,7.812,33.3231,0.449,-0.1778,-0.6334,307.7031
10:46:14:939,0.0718,0.0024,6.9691,33.1217,0.2266,-0.1014,-0.6817,307.6562
10:46:14:958,-0.5698,-0.1029,7.2829,32.9931,-0.1448,-0.0391,-0.6066,307.8125
10:46:14:980,-0.553,-0.3018,8.4703,33.1215,-0.4691,0.1051,-0.4459,307.8281
10:46:14:999,-0.3592,-0.4573,9.8255,32.806,-0.5931,0.3237,-0.3066,308
10:46:15:019,0.0598,-0.376,9.9212,32.596,-0.4844,0.4777,-0.2437,308.0156
10:46:15:039,0.498,-0.1388,9.44,32.2037,-0.306,0.3366,-0.27,308.2344
10:46:15:059,0.5148,0.1149,9.1023,32.2185,-0.1851,-0.0079,-0.3928,308.25
10:46:15:080,0.2728,0.3951,8.6402,32.1075,-0.0898,-0.212,-0.5143,308.5
10:46:15:100,-0.0502,0.7038,8.2621,32.4432,-0.0318,-0.1833,-0.5485,308.1875
10:46:15:119,-0.4382,0.984,8.2143,32.6367,-0.0446,-0.0452,-0.5107,308.1875
10:46:15:138,-0.4741,1.1013,8.7506,32.6074,-0.0892,0.11,-0.3848,307.7812
10:46:15:159,-0.1914,0.9888,9.6601,32.8058,-0.1069,0.223,-0.2382,307.7812
10:46:15:180,-0.2106,0.8812,10.5532,32.8226,-0.0403,0.2401,-0.1894,308.625
10:46:15:199,-0.2034,1.0056,10.5437,32.951,0.1179,0.1851,-0.1839,308.625
10:46:15:219,-0.0981,1.0845,10.5532,32.8777,0.2333,0.1106,-0.1692,310.1719
10:46:15:278,0.0263,0.8692,11.3671,33.0348,0.2688,0.1448,-0.179,310.1719
10:46:15:279,0.3544,0.5889,12.5665,32.9395,0.3274,0.3751,-0.2156,311.2344
10:46:15:279,0.1388,0.1651,12.9712,32.9941,0.5235,0.6579,-0.3213,311.2344
10:46:15:301,-0.4669,-0.0383,12.0159,33.1121,0.8503,0.6341,-0.4759,311.6562
10:46:15:319,-0.9099,-0.0072,9.7128,33.2807,1.1539,0.1307,-0.5595,311.7031
10:46:15:338,-1.2377,0.0359,7.3762,33.4475,1.0397,-0.4142,-0.5369,312.3125
10:46:15:360,-1.5371,-0.067,7.3666,33.7059,0.3262,-0.6603,-0.4826,312.375
10:46:15:384,-2.0877,-0.0048,10.5389,33.8461,-0.5992,-0.5302,-0.4423,313.375
10:46:15:399,-2.8083,-0.644,14.2567,33.7542,-0.7336,0.2663,0.0458,313.4844
10:46:15:419,-1.4892,-0.3185,11.5086,33.7717,-0.1808,0.1484,0.3659,314.3594
10:46:15:439,-0.6799,-0.0383,9.119,33.9766,0.0318,-0.2181,0.4056,314.4531
10:46:15:459,-0.5028,-0.0383,9.0927,34.0675,-0.0782,-0.5125,0.2498,314.9062
10:46:15:480,-1.4004,-0.0239,9.6338,34.0026,-0.1759,-0.3861,0.0684,314.9375
10:46:15:499,-2.892,0.0957,9.4065,33.8487,-0.1533,-0.0269,0.0342,315.3906
10:46:15:519,-3.8402,0.0694,8.4607,33.5616,-0.1613,0.1472,0.2767,315.4219
10:46:15:539,-2.8011,0.1364,8.578,33.6347,-0.3573,0.11,0.6945,315.9688
10:46:15:558,-1.1492,-0.0024,9.9428,33.5027,-0.5339,0.0018,1.0036,316.0312
10:46:15:580,-0.2034,-0.122,10.34,33.6909,-0.43,-0.0263,0.9969,317.2812
10:46:15:599,-0.1196,-0.0096,9.4687,33.6298,-0.1191,-0.0764,0.7752,318.9219
10:46:15:619,-0.309,0.4693,8.3339,33.609,0.1124,-0.1368,0.5272,318.9219
10:46:15:638,-0.6559,0.7804,7.8144,33.7427,0.1387,-0.1307,0.4032,319.8281
10:46:15:660,-0.9266,0.941,7.7545,33.8945,0.0623,-0.1087,0.3781,319.8281
10:46:15:683,-0.8258,1.1731,7.7498,34.1414,-0.0434,-0.0898,0.4245,319.7812
10:46:15:700,-0.0646,1.3573,8.4009,34.3679,-0.1637,-0.0971,0.4655,319.7812
10:46:15:719,0.0957,1.3597,9.4854,34.6641,-0.2126,-0.0348,0.3971,318.9062
10:46:15:739,-0.2584,1.4438,10.1557,34.7604,-0.1301,0.0874,0.2706,318.9062
10:46:15:759,-0.3329,1.7501,10.5748,34.7904,-0.0165,0.2236,0.2107,318.4219
10:46:15:779,-0.0407,1.9606,11.1781,34.9496,0.0599,0.3036,0.2083,318.4219
10:46:15:800,0.2465,1.7261,11.7311,35.0038,0.1497,0.3024,0.1906,318.0625
10:46:15:819,0.6153,1.3358,11.9704,35.1835,0.273,0.2468,0.1093,318.0312
10:46:15:839,0.9123,1.1755,11.8866,35.3261,0.3983,0.1918,-0.0238,316.2031
10:46:15:860,0.4501,1.0822,11.5253,35.3967,0.4991,0.1075,-0.1765,316.0156
10:46:15:879,-0.1125,1.0343,11.0728,35.611,0.5235,0.0134,-0.2578,314.1406
10:46:15:901,-0.1555,0.9194,11.1541,35.6938,0.416,0.0318,-0.2187,313.9531
10:46:15:919,0.0263,0.419,10.2658,35.7482,0.1894,-0.0171,-0.1246,313.0312
10:46:15:938,0.4262,0.1364,10.6561,35.7577,0.0079,-0.2107,-0.0977,312.9375
10:46:15:959,0.9888,-0.1005,11.5421,35.8281,-0.0605,-0.2614,-0.1607,312.125
10:46:15:979,1.0415,-0.3305,11.6139,36.1174,0.0959,-0.0794,-0.3152,312.0312
10:46:16:000,0.1842,-0.3425,10.3065,36.2842,0.3054,0.1778,-0.4985,311.0938
10:46:16:019,-0.3281,0.0048,8.7075,36.5506,0.3103,0.2474,-0.5107,311
10:46:16:038,-0.4214,-0.0383,7.7545,36.4276,0.0831,0.0299,-0.3696,310.5156
10:46:16:059,0.0622,-0.2728,8.1832,36.1335,-0.3085,-0.182,-0.2144,310.4688
10:46:16:079,0.4765,-0.5865,9.7056,35.9754,-0.6512,-0.1826,-0.1692,310.1094
10:46:16:100,0.3544,-0.5794,10.9914,36.1189,-0.7239,0.0128,-0.2559,310.1875
10:46:16:119,-0.0766,-0.3879,10.7662,36.3241,-0.4777,0.146,-0.3702,310.1875
10:46:16:139,-0.2465,0.0526,9.4783,36.2898,-0.1326,0.0305,-0.438,310.875
10:46:16:160,0.1627,0.4765,8.286,36.0576,0.0501,-0.182,-0.4294,310.875
10:46:16:179,0.2728,0.4717,7.7737,35.945,0.0855,-0.3659,-0.4563,311.4688
10:46:16:199,0.0861,0.6081,7.5556,36.4183,0.0727,-0.347,-0.5101,311.4688
10:46:16:219,-0.0263,0.996,7.7354,36.8671,0.066,-0.2175,-0.5082,311.7344
10:46:16:239,0.2827,1.3071,8.0058,36.9711,0.0916,-0.0672,-0.4465,311.7344
10:46:16:259,0.3257,1.2808,8.068,37.089,0.146,0.0171,-0.3977,312.25
10:46:16:279,-0.0909,1.1994,7.9914,36.8137,0.1747,0.0495,-0.3842,312.25
10:46:16:301,-0.2082,1.3047,8.5732,36.8422,0.1002,0.0819,-0.3146,313.5
10:46:16:319,0.055,1.1827,9.9906,37.0407,-0.0073,0.1203,-0.2272,313.5
10:46:16:339,-0.1938,0.8596,11.001,36.9932,0.0086,0.1949,-0.212,314.0469
10:46:16:360,-0.5865,0.6176,11.3169,36.91,0.1106,0.2315,-0.2242,314.1094
10:46:16:380,-0.9075,0.4573,11.47,36.8814,0.124,0.2419,-0.2004,314.2812
10:46:16:401,-1.0654,0.2177,11.3791,37.0062,0.0684,0.1716,-0.1423,314.2812
10:46:16:421,0.2297,0.3042,12.0206,36.9994,-0.0916,-0.0959,-0.0855,315
10:46:16:439,-0.1938,0.0335,12.0278,37.4212,0.0275,-0.0385,-0.2327,315.0781
10:46:16:459,-1.2425,-0.1531,11.0728,37.4829,0.1851,0.124,-0.3757,315.9375
10:46:16:478,-2.7556,-0.431,9.8279,37.5326,0.149,0.2669,-0.438,316.0312
10:46:16:501,-3.615,-0.1603,9.5836,37.9395,-0.1729,0.2511,-0.2932,317.0312
10:46:16:519,-2.2648,0.2656,10.4862,37.8085,-0.4655,-0.1118,0.0458,317.125
10:46:16:539,-0.6272,0.268,10.6011,38.0691,-0.394,-0.5461,0.2529,318.0156
10:46:16:559,-1.0104,-0.3162,9.6936,38.1162,-0.1167,-0.6188,0.1649,318.0938
10:46:16:579,-2.3916,-0.6057,9.1143,38.3056,-0.0843,-0.2181,0.0623,318.8594
10:46:16:601,-3.1507,-0.3544,10.1845,38.1424,-0.3073,0.2572,0.149,319.4531
10:46:16:619,-2.9949,-0.632,10.9002,38.0681,-0.4013,0.4801,0.4337,319.4531
10:46:16:639,-2.1356,-0.7301,10.3639,38.0846,-0.3641,0.4569,0.6964,320
10:46:16:660,-0.6894,-0.2608,9.763,38.0806,-0.358,0.1796,0.7715,320
10:46:16:679,0.4717,0.146,9.859,38.217,-0.2926,-0.2413,0.5901,320.25
10:46:16:702,0.3329,0.3162,9.3371,37.9847,-0.055,-0.3854,0.2608,320.25
10:46:16:719,-0.7636,0.3544,8.1616,38.2726,0.2553,-0.2498,-0.0043,320.5781
10:46:16:739,-1.6041,0.6846,6.859,38.2787,0.3714,-0.0189,-0.0409,320.5781
10:46:16:760,-1.5634,1.209,6.2988,38.5857,0.2242,0.0947,0.1277,321.5781
10:46:16:779,-0.8115,1.3597,7.1201,38.6964,-0.0403,0.0562,0.3317,321.5781
10:46:16:800,-0.4765,1.0439,8.5899,39.1499,-0.2034,0.0079,0.4032,321.75
10:46:16:819,-0.5985,1.0008,9.3156,39.4622,-0.1765,0.0544,0.3549,321.75
10:46:16:838,-0.376,1.2927,9.7199,39.5025,-0.0715,0.1332,0.3189,321.1406
10:46:16:860,-0.0981,1.427,10.4982,39.9381,-0.0257,0.2266,0.2877,321.0781
10:46:16:879,-0.297,1.1946,10.9699,40.221,0.0776,0.1716,0.2028,320.7969
10:46:16:900,-0.5578,1.1779,10.7136,40.2705,0.2144,0.033,0.1155,320.7812
10:46:16:920,-0.4095,1.2832,11.1422,40.3885,0.1918,-0.0092,0.0959,319.6094
10:46:16:941,-0.51,0.917,11.846,40.6776,0.1289,0.0415,0.11,319.5
10:46:16:958,-0.3162,0.6464,12.8013,40.5533,0.1142,0.0354,0.157,318.0156
10:46:16:979,0.3832,0.5674,12.9425,40.6621,0.2071,-0.0684,0.182,317.8594
10:46:17:001,0.9123,0.4167,11.5134,41.207,0.4667,-0.1973,0.1118,317.5625
10:46:17:019,1.0534,0.7636,9.6482,41.0158,0.5632,-0.2254,0.0067,317.5312
10:46:17:039,1.5084,0.9984,9.6841,41.1895,0.3598,-0.2694,-0.0751,317.5625
10:46:17:059,1.6759,0.8186,11.1709,41.6699,0.1869,-0.2376,-0.1564,317.5625
10:46:17:078,1.0941,0.3927,10.9002,41.6218,0.3213,-0.0953,-0.2419,316.7969
10:46:17:103,0.5913,0.1771,9.2578,41.7656,0.4441,0.022,-0.2388,315.9375
10:46:17:119,0.4645,-0.079,8.9444,41.9307,0.1753,0.0586,-0.1619,315.9375
10:46:17:139,0.6799,-0.3305,10.2778,41.7033,-0.2401,-0.044,-0.1081,315.4531
10:46:17:160,0.8692,-0.4621,11.8364,41.5076,-0.4404,-0.1197,-0.1423,315.4531
10:46:17:179,0.3162,-0.699,12.0087,41.6329,-0.3128,-0.0892,-0.2785,315.2969
10:46:17:201,-0.5267,-0.6153,10.5556,41.5826,-0.055,-0.0544,-0.4001,315.2969
10:46:17:219,-0.6105,-0.189,8.8176,41.2506,0.0348,-0.1069,-0.3995,315.1406
10:46:17:239,0.4765,0.3784,8.7793,41.4036,-0.0715,-0.2993,-0.3494,315.1406
10:46:17:260,1.1468,0.431,8.8774,41.3704,-0.0397,-0.4062,-0.3909,314.8281
10:46:17:322,0.8764,0.4741,7.7665,41.4704,0.1753,-0.3286,-0.5382,314.8281
10:46:17:322,0.498,0.9817,6.7394,41.5171,0.2755,-0.1796,-0.6261,314.8594
10:46:17:322,0.2608,1.276,6.737,41.6121,0.223,-0.1002,-0.6206,314.8594
10:46:17:339,0.5171,1.386,7.515,41.6436,0.1338,0.0568,-0.5406,315.1875
10:46:17:359,0.1627,1.2497,7.8144,41.7192,0.1393,0.1784,-0.4978,315.1875
10:46:17:379,-0.2946,1.2879,7.4001,41.839,0.16,0.1613,-0.438,315.7969
10:46:17:402,0.2273,1.4151,8.3937,41.7982,0.0195,0.0745,-0.3146,315.8594
