Time,Acc_X,Acc_Y,Acc_Z,Meg,Gyr_X,Gyr_Y,Gyr_Z,Ore
19:43:55:831,0.0528,3.3573,9.2489,57.7847,0.0911,0.0348,0.6282,42.625
19:43:55:886,0.4107,3.6865,8.9437,58.3633,0.2144,0.0971,0.4135,41.3438
19:43:55:896,0.449,3.7667,8.4337,58.0062,0.2352,0.0963,0.4447,41.3438
19:43:55:916,0.4586,3.8194,8.2793,56.0442,0.2072,0.1261,0.5001,41.3438
19:43:55:936,0.4706,3.7559,8.3284,56.2915,0.1896,0.0963,0.5493,149.8906
19:43:55:968,0.5735,3.8864,8.2697,58.1704,0.1712,0.0074,0.5779,149.3438
19:43:55:984,0.7316,4.0444,8.2015,56.8349,0.1246,-0.0731,0.5975,148.7031
19:43:56:001,0.8381,4.1653,8.2637,57.0905,0.0916,-0.1604,0.6151,148.0469
19:43:56:014,1.1314,4.2731,8.5474,57.8502,0.1007,-0.1516,0.6322,147.4062
19:43:56:034,1.5911,4.3054,8.6683,57.5336,0.1302,-0.0984,0.6029,146.7344
19:43:56:056,1.9801,4.315,8.7354,57.101,0.1374,-0.052,0.523,146.0625
19:43:56:085,2.1333,4.3138,8.8826,57.8767,0.1228,-0.0219,0.4298,145.4062
19:43:56:103,2.2507,4.3066,9.395,57.4515,0.1081,0.0593,0.3363,144.7656
19:43:56:114,2.4446,4.23,10.0689,57.5336,0.1593,0.1251,0.2151,143.9844
19:43:56:135,2.6242,4.2276,10.5226,57.6456,0.2892,0.1184,0.0617,143.5938
19:43:56:152,2.6206,4.3952,10.4496,56.9303,0.4437,0.0108,-0.0616,143.3125
19:43:56:185,2.5571,4.4945,9.7553,58.8941,0.4764,-0.0502,-0.1231,143.2031
19:43:56:201,2.4602,4.5843,9.4237,59.2026,0.3931,0.0087,-0.1359,143.2031
19:43:56:211,2.5284,4.485,9.4943,58.7561,0.2884,0.0497,-0.0898,143.2969
19:43:56:236,3.0767,4.1713,9.4859,58.1571,0.1691,0.0236,-0.081,143.4375
19:43:56:254,3.5352,3.8206,9.2405,58.5373,-0.0274,-0.006,-0.1665,143.5469
19:43:56:270,3.6142,3.4566,9.3543,59.9817,-0.2983,0.1496,-0.2781,143.5938
19:43:56:302,3.4801,3.0113,10.2377,58.6435,-0.4503,0.3464,-0.3979,143.7188
19:43:56:310,3.3185,2.6019,11.0661,60.0265,-0.3292,0.361,-0.5306,143.9688
19:43:56:336,3.1353,2.3745,10.8075,57.206,-0.0216,0.1181,-0.6691,144.3125
19:43:56:353,2.8947,2.5492,9.4057,58.8816,0.1806,-0.1298,-0.7468,144.7344
19:43:56:373,2.8349,2.8353,8.3188,57.8786,0.1294,-0.0512,-0.7444,145.3594
19:43:56:402,2.7331,2.8222,7.8854,57.3751,-0.0344,0.112,-0.6957,146.6406
19:43:56:409,2.6098,2.5887,8.0602,58.7427,-0.1923,0.202,-0.6579,147.4531
19:43:56:439,2.3452,2.165,8.466,59.3274,-0.3127,0.1914,-0.6499,148.2188
19:43:56:448,2.046,1.7663,8.9736,57.7681,-0.3502,0.0529,-0.6741,148.9219
19:43:56:471,1.718,1.5532,9.2094,56.3334,-0.2517,-0.2028,-0.7298,149.5938
19:43:56:502,1.3576,1.6514,8.6707,59.8664,-0.0932,-0.4555,-0.7878,150.3438
19:43:56:507,1.0955,1.9675,7.7729,55.3724,0.0061,-0.5591,-0.8035,151.2344
19:43:56:544,0.9027,2.2931,7.0175,59.4988,0.0511,-0.5216,-0.7692,152.2031
19:43:56:546,0.8477,2.6474,6.3807,57.0498,0.0336,-0.4222,-0.7053,153.2656
19:43:56:566,0.856,2.9934,6.0922,59.268,-0.0671,-0.264,-0.6118,154.2812
19:43:56:586,0.8943,3.2448,6.2107,56.9901,-0.2139,-0.1026,-0.513,155.1875
19:43:56:607,0.9326,3.3669,6.7829,58.182,-0.3244,-0.0041,-0.4504,155.9219
19:43:56:634,0.9386,3.5368,7.8926,57.5799,-0.3374,0.0907,-0.4163,156.5312
19:43:56:650,0.6382,3.6841,8.8395,57.1216,-0.2503,0.0875,-0.3591,157.0469
19:43:56:667,0.8321,3.7906,8.8922,58.1545,-0.1819,-0.035,-0.3508,157.0469
19:43:56:688,1.2918,3.9486,8.6516,58.7113,-0.2077,-0.003,-0.4326,157.6875
19:43:56:706,1.0129,4.0767,9.1352,57.5446,-0.2863,0.2204,-0.4565,157.6875
19:43:56:730,0.1581,4.1174,10.2545,57.9105,-0.3403,0.4806,-0.3276,158.75
19:43:56:749,-0.5075,4.0743,11.5246,58.9829,-0.3284,0.6452,-0.1266,159.2188
19:43:56:765,-0.6858,3.8217,12.456,58.3661,-0.236,0.5823,0.0101,159.2188
19:43:56:785,-0.7924,3.4554,13.1203,57.4503,-0.0903,0.3972,0.075,159.4844
19:43:56:805,-0.869,2.9958,12.997,59.1622,0.045,0.2066,0.0814,159.4688
19:43:56:831,-0.8582,2.8473,12.2333,59.1622,0.069,0.107,0.0932,159.1562
19:43:56:847,-1.1359,2.5205,11.4875,59.3986,-0.0397,0.1618,0.1933,159.0156
19:43:56:867,-1.1515,2.2164,11.3271,57.2787,-0.163,0.2303,0.3123,158.9688
19:43:56:885,-0.9288,1.7173,11.7329,57.65,-0.2005,0.2015,0.4029,158.7969
19:43:56:908,-0.4787,1.2899,12.0609,56.6794,-0.0652,0.0002,0.3957,158.4531
19:43:56:931,0.0061,1.1438,11.9017,58.5535,0.1965,-0.2188,0.3003,157.9688
19:43:56:949,-0.104,1.339,10.9536,56.903,0.44,-0.2656,0.2314,157.5
19:43:56:966,-0.6966,1.6957,9.7505,58.0157,0.4815,-0.0198,0.3168,157.2812
19:43:56:985,-1.1707,1.965,8.9077,57.7159,0.3545,0.2497,0.5406,157
19:43:57:005,-1.2545,1.8322,8.4852,57.6892,0.1651,0.2942,0.7898,156.8125
19:43:57:030,-0.6128,1.5712,8.2314,57.8863,0.0165,0.1109,0.9027,156.4844
19:43:57:046,0.1557,1.4778,7.8148,58.6456,-0.0469,-0.1554,0.8801,155.8125
19:43:57:065,0.6992,1.5844,7.2665,58.0532,-0.0434,-0.3349,0.7877,154.8438
19:43:57:084,1.0404,1.8382,6.7554,58.3726,-0.0109,-0.3192,0.698,153.8281
19:43:57:104,1.2679,2.0896,6.4537,57.884,0.0272,-0.1431,0.6287,152.8594
19:43:57:125,1.2487,2.3529,6.3352,56.3904,0.049,0.0492,0.5765,152.0469
19:43:57:148,1.0763,2.6402,6.4214,57.7266,0.0463,0.1312,0.5549,151
19:43:57:166,0.8153,2.882,6.8068,58.2218,0.0386,0.1277,0.5885,150.3281
19:43:57:185,0.7483,3.0125,7.3216,59.4179,0.0562,0.1008,0.6537,149.6562
19:43:57:207,0.9781,3.1765,7.6831,58.0756,0.0495,0.1293,0.715,149.0156
19:43:57:233,1.3073,3.2065,7.9153,56.5129,-0.0093,0.1469,0.7331,148.2812
19:43:57:247,1.5719,3.2914,8.1751,59.3027,-0.1063,0.0646,0.7059,147.4688
19:43:57:265,1.7575,3.3525,8.6863,59.1558,-0.1931,-0.0654,0.6524,146.5938
19:43:57:284,2.0148,3.3896,9.304,57.6357,-0.2173,-0.2227,0.5659,145.7812
19:43:57:307,2.3967,3.5105,9.8116,58.2026,-0.1633,-0.3514,0.4458,145
19:43:57:330,2.7056,3.7044,10.0306,58.2848,-0.0943,-0.3306,0.3232,144.3281
19:43:57:348,2.9234,3.9594,10.5837,57.4361,-0.0509,-0.2198,0.2029,143.8438
19:43:57:365,3.1257,3.9678,10.9871,57.8855,0.0024,-0.0701,0.1075,143.5
19:43:57:391,3.5759,4.1366,10.8746,60.7689,0.0898,-0.0773,0.0085,143.2656
19:43:57:404,4.0092,4.5292,10.5681,58.0429,0.122,-0.2933,-0.1364,143.125
19:43:57:426,4.0236,4.9518,10.5334,58.7556,0.0378,-0.4592,-0.297,143.0625
19:43:57:450,3.7554,4.9327,10.8662,58.3,-0.1457,-0.5165,-0.3881,143.1719
19:43:57:466,3.7315,4.4682,12.4931,57.2975,-0.4016,-0.3149,-0.3753,143.5156
19:43:57:484,3.6716,3.2687,14.4467,56.8363,-0.5595,0.1978,-0.3455,144.0156
19:43:57:505,3.5148,2.1039,14.9962,56.6726,-0.3745,0.4625,-0.4105,144.5781
19:43:57:530,3.4633,1.7783,13.2005,56.2481,0.1228,0.1738,-0.6238,145.0156
19:43:57:547,2.7918,2.0477,10.0246,55.7766,0.6005,-0.3839,-0.9258,145.3594
19:43:57:565,2.2507,2.5085,7.3898,56.3631,0.6855,-0.6385,-1.0741,145.8594
19:43:57:584,1.7682,2.712,6.1843,55.4083,0.4472,-0.5389,-1.0739,146.75
19:43:57:606,1.5887,2.5816,7.0558,57.2148,0.0876,-0.2198,-0.9732,148.0312
19:43:57:630,1.0141,1.9998,8.162,55.8354,-0.1252,0.2872,-0.8842,149.3281
19:43:57:646,0.5544,1.6789,8.5235,55.3934,-0.0751,0.5669,-0.819,150.5938
19:43:57:664,0.2383,1.5999,8.0207,55.3246,0.1036,0.5477,-0.7671,151.6562
19:43:57:684,-0.1268,1.8633,6.7685,54.6606,0.2653,0.3355,-0.7439,152.4688
19:43:57:706,-0.1675,2.2356,6.5231,56.2934,0.2466,0.1006,-0.6882,153.2344
19:43:57:732,-0.1783,2.1422,7.2067,55.4347,0.1039,0.0795,-0.5625,154.375
19:43:57:749,0.0755,2.0608,7.6879,57.0442,0.0732,0.0271,-0.4262,155.0938
19:43:57:766,0.6214,2.2045,7.5574,55.6105,0.1502,-0.1261,-0.3178,155.7188
19:43:57:832,0.8872,2.4307,7.087,54.032,0.2096,-0.2382,-0.2536,156.2031
19:43:57:832,0.874,2.6187,7.251,54.9628,0.1651,-0.2603,-0.2126,156.5781
19:43:57:833,0.7603,2.6378,8.1584,52.5568,0.0479,-0.0992,-0.1513,156.9219
19:43:57:859,0.8836,2.6103,9.3986,54.8881,-0.0053,0.1336,-0.0736,157.2344
19:43:57:864,0.9075,2.4702,10.0905,53.2794,0.0522,0.3056,-0.0336,157.3594
19:43:57:884,0.8465,2.5014,10.3467,52.9802,0.146,0.2681,-0.0451,157.4844
19:43:57:904,0.7423,2.4642,10.64,53.1263,0.1526,0.1903,-0.0704,157.4688
19:43:57:930,0.6418,2.3481,11.1882,54.6834,0.0983,0.1149,-0.0837,157.4375
19:43:57:947,0.4371,2.0967,11.4552,53.9069,0.0914,-0.039,-0.1234,157.4375
19:43:57:965,0.2156,1.983,11.1463,52.2946,0.1521,-0.1831,-0.203,157.5312
19:43:57:989,-0.2225,2.1853,10.4544,53.0023,0.2192,-0.1993,-0.3098,157.9531
19:43:58:013,-1.1144,2.1123,9.5925,51.9091,0.0131,-0.0358,-0.224,158.3594
19:43:58:025,-1.5406,1.8274,8.8623,51.2465,-0.2953,0.1355,-0.0288,158.7969
19:43:58:048,-1.3083,1.5844,9.1687,50.4827,-0.5385,0.4625,0.0841,158.7969
19:43:58:065,-0.8786,1.3581,10.3407,52.4759,-0.5031,0.903,0.1214,159.0469
19:43:58:084,-0.7589,1.2983,10.5095,53.2931,-0.3047,0.948,0.1752,159.0469
19:43:58:105,-0.9241,1.5712,9.1364,50.389,-0.3377,0.5166,0.2868,158.8125
19:43:58:132,-1.1707,1.807,7.4844,53.8342,-0.6938,-0.0883,0.4559,158
19:43:58:148,-0.7122,1.916,7.0666,51.8214,-1.1215,-0.4512,0.6093,158
19:43:58:164,0.0169,1.898,7.8651,51.4633,-1.3428,-0.5421,0.6785,157.5312
19:43:58:188,0.4418,1.7939,8.8898,52.9825,-1.2557,-0.5048,0.6972,157
19:43:58:203,0.8943,1.6466,9.1807,51.5457,-0.9641,-0.3658,0.6692,156.4062
19:43:58:225,1.5635,1.8848,9.1148,51.1159,-0.6043,-0.0829,0.4969,155.7031
19:43:58:248,1.2092,1.9878,8.618,50.2896,-0.2815,0.1168,0.3459,154.6094
19:43:58:265,0.8034,2.3254,7.8244,50.8345,-0.0943,0.1711,0.3014,154
19:43:58:288,0.7423,2.6163,7.1995,51.6346,-0.0871,0.1464,0.3145,153.5156
19:43:58:303,0.7842,2.7348,7.3336,52.3669,-0.1499,0.0617,0.3339,153.1406
19:43:58:325,0.8189,2.8329,8.1883,51.4407,-0.1705,0.0028,0.3419,152.9531
19:43:58:348,0.9626,2.9563,9.0789,50.0693,-0.1662,0.0409,0.3549,152.5781
19:43:58:367,0.9087,3.0951,9.705,49.6292,-0.1779,0.0795,0.3699,152.1875
19:43:58:384,0.7016,3.0831,10.4364,49.909,-0.1843,0.0196,0.4114,151.7969
19:43:58:404,0.892,2.9167,11.3199,49.8212,-0.1129,-0.1072,0.4205,151.4062
19:43:58:425,1.4857,2.7288,11.7784,49.5937,0.0663,-0.2749,0.3081,150.9688
19:43:58:448,1.9358,2.8174,11.4671,51.0986,0.2581,-0.4664,0.0982,150.4844
19:43:58:465,1.9514,3.0257,11.0446,48.5913,0.3899,-0.5772,-0.0866,150.0156
19:43:58:484,1.6521,3.1849,10.7034,49.0348,0.4706,-0.594,-0.1689,149.7344
19:43:58:505,1.4019,3.0891,10.2748,48.0879,0.465,-0.4885,-0.0762,149.7656
19:43:58:528,1.9131,2.9275,10.0917,48.2867,0.3878,-0.3735,0.0444,150.0312
19:43:58:545,2.5727,2.4954,9.863,47.6753,0.2727,-0.5154,0.0593,150.2812
19:43:58:563,3.3065,2.5181,9.4405,47.7045,0.029,-0.7232,-0.0299,150.3438
19:43:58:583,3.3783,2.7863,9.6559,46.4204,-0.3129,-0.8124,-0.0938,150.3281
19:43:58:603,3.1509,2.8617,10.5035,47.3383,-0.6128,-0.7754,-0.0725,150.4219
19:43:58:624,3.1425,2.6079,11.9783,46.5458,-0.7771,-0.4877,0.0007,150.6562
19:43:58:644,3.5914,1.9327,13.4364,47.3577,-0.6842,-0.2236,-0.0216,150.9375
19:43:58:663,4.1816,1.3964,13.8075,47.3475,-0.3502,-0.2779,-0.2906,151.1406
19:43:58:684,4.3384,1.2169,12.6319,47.4218,-0.0152,-0.4643,-0.7007,151.2344
19:43:58:703,3.4178,1.5233,10.7082,47.9803,0.1151,-0.4046,-0.9633,151.4375
19:43:58:723,2.198,2.0824,9.2729,45.3511,0.1137,-0.1154,-0.9689,152.0781
19:43:58:745,1.1493,2.3326,8.0949,47.8719,0.0993,0.1496,-0.836,153.0938
19:43:58:770,1.0021,2.2751,7.8088,45.8012,0.1249,0.2912,-0.7117,154.2656
19:43:58:784,1.1469,2.1362,7.743,47.1503,0.1406,0.3554,-0.6041,155.2969
19:43:58:803,1.2894,1.9267,8.0015,46.6825,0.1089,0.3304,-0.5407,156.0938
19:43:58:824,1.1781,1.6837,8.3762,46.3071,0.0921,0.2353,-0.5615,156.7656
19:43:58:844,0.9554,1.6131,8.5714,46.4198,0.1598,0.1408,-0.6019,157.3438
19:43:58:866,0.5137,1.552,8.399,45.7646,0.3321,0.0705,-0.6363,157.8906
19:43:58:882,0.2707,1.667,8.3619,46.3222,0.4836,0.0513,-0.5857,158.5156
19:43:58:902,0.5711,1.5293,8.3655,45.5352,0.5537,0.0865,-0.4413,159.2031
19:43:58:923,0.9865,1.4036,8.4062,45.5352,0.5611,0.1272,-0.288,159.8906
19:43:58:948,1.1409,1.224,8.4469,45.7511,0.5534,0.1099,-0.2328,160.4219
19:43:58:963,1.1266,1.2121,8.6719,44.2184,0.5148,0.0905,-0.2137,160.7969
19:43:58:986,1.1589,1.2695,8.9628,45.5149,0.4469,0.1549,-0.174,161.0312
19:43:59:003,1.0739,1.2695,9.0239,46.3725,0.3904,0.2481,-0.1495,161.25
19:43:59:024,0.467,1.4228,9.0682,45.8574,0.3087,0.2159,-0.1684,161.4375
19:43:59:046,0.1569,1.5772,9.0981,44.5077,0.1683,0.1586,-0.1242,161.5625
19:43:59:063,0.3676,1.5281,9.365,46.3784,-0.0194,0.1946,0.0516,161.6719
19:43:59:085,0.9063,1.1618,9.8163,46.1568,-0.2232,0.1805,0.2287,161.8125
19:43:59:102,1.3038,0.92,9.5614,46.8194,-0.3401,0.0233,0.2471,161.8281
19:43:59:124,1.0703,1.2061,9.3387,46.0488,-0.4168,-0.0483,0.1038,161.4531
19:43:59:146,-0.0957,1.2097,9.9325,47.6573,-0.5771,0.2263,-0.0142,161.1719
19:43:59:162,-0.9396,0.6925,10.7824,46.4178,-0.7566,0.5589,0.0796,161.0625
19:43:59:183,-0.6212,-0.009,11.8394,47.0213,-0.9398,0.6558,0.3294,161.0469
19:43:59:203,0.3808,-0.6159,12.9551,46.5604,-1.0525,0.5168,0.4985,160.8438
19:43:59:223,1.208,-0.4926,12.9444,46.4436,-0.9353,0.1746,0.4173,160.3438
19:43:59:247,0.6094,0.3083,11.7066,48.7748,-0.5862,-0.1607,0.0708,159.6719
19:43:59:269,-1.2712,1.0469,9.7768,47.3777,-0.2205,-0.1391,-0.2272,159.1875
19:43:59:285,-2.4599,1.6849,7.9153,47.7459,-0.0682,0.2305,-0.1103,159.125
19:43:59:304,-2.0218,1.7196,7.47,47.5098,-0.2637,0.6044,0.3749,159.4062
19:43:59:324,-0.6619,1.0241,8.3966,46.5896,-0.637,0.7283,0.8567,159.5
19:43:59:345,0.4742,0.6949,9.6883,47.3349,-0.8695,0.5048,1.0133,158.9688
19:43:59:363,0.7675,0.7847,10.2425,47.9888,-0.7923,0.1485,0.8846,158.4688
19:43:59:383,0.6418,1.2228,9.2094,46.718,-0.4288,-0.1628,0.6817,157.2344
19:43:59:403,0.5975,1.7328,7.6843,48.2593,-0.0634,-0.2696,0.576,156.125
19:43:59:424,0.6705,2.0512,6.741,47.1896,0.0812,-0.1628,0.5664,154.8594
19:43:59:448,0.6501,2.1829,6.7326,48.0537,-0.0288,0.0191,0.5944,154.2344
19:43:59:464,0.6178,2.1674,7.3659,49.2295,-0.0802,0.0638,0.6215,154.2344
19:43:59:483,0.6789,2.1817,8.2027,47.9863,-0.0727,0.0803,0.6404,152.9844
19:43:59:503,0.8345,2.1889,9.0813,49.2804,-0.0085,0.0883,0.6495,152.3125
19:43:59:523,1.05,2.2679,9.8546,49.8743,0.0945,0.1,0.6303,151.625
19:43:59:545,1.1912,2.2979,10.2258,49.3608,0.1923,0.0601,0.5864,150.875
19:43:59:564,1.3935,2.3074,10.5334,48.8673,0.2762,-0.0164,0.524,150.125
19:43:59:584,1.6509,2.2547,10.7908,49.7891,0.3633,-0.125,0.4402,149.3906
19:43:59:602,1.8365,2.2236,10.8267,50.6839,0.3941,-0.2686,0.3435,148.75
19:43:59:622,2.0256,2.2308,10.9967,50.6349,0.3553,-0.3684,0.2548,148.1562
19:43:59:648,2.3476,2.232,11.685,49.2205,0.3649,-0.4616,0.1781,147.6719
19:43:59:664,3.0946,2.1961,12.0442,49.7438,0.4296,-0.5346,0.0657,147.3281
19:43:59:687,3.9601,2.165,11.4624,50.4543,0.4176,-0.5844,-0.1519,147.0781
19:43:59:707,4.16,2.299,10.8842,50.8176,0.2525,-0.4939,-0.3769,146.9062
19:43:59:722,3.4466,2.487,11.3079,50.3766,0.0101,-0.0912,-0.4786,147.0156
19:43:59:742,2.3213,2.3146,13.0772,52.2251,-0.1534,0.5245,-0.3969,147.4062
19:43:59:768,1.6054,1.3713,15.1039,52.2514,-0.0282,0.7475,-0.2794,147.9688
19:43:59:788,1.7527,0.3118,15.1446,52.704,0.327,0.2963,-0.3772,148.4375
19:43:59:803,1.8736,0.1239,12.42,50.9743,0.5619,-0.5231,-0.6589,148.7031
19:43:59:824,1.5336,0.6602,8.9568,52.9701,0.4258,-0.9724,-0.827,148.9375
19:43:59:849,1.3732,1.3497,7.2557,51.2921,0.1132,-0.7029,-0.7942,149.9531
19:43:59:894,1.2295,1.6131,7.2318,52.2228,-0.0929,-0.1069,-0.6786,149.9531
19:43:59:895,1.0272,1.4503,8.0004,50.7149,-0.13,0.4407,-0.5484,151.6094
19:43:59:904,0.9051,1.1989,8.7497,51.4943,-0.0645,0.6732,-0.4491,152.5312
19:43:59:923,0.7639,0.981,8.9137,52.2104,0.0232,0.5661,-0.3676,153.1719
19:43:59:946,0.9446,0.8877,8.6252,52.9121,0.0695,0.2897,-0.3367,153.625
19:43:59:963,1.275,0.8733,8.2493,50.1179,0.0775,0.0241,-0.3647,153.9844
19:43:59:983,1.5288,1.0217,8.0027,52.4697,0.0983,-0.2009,-0.4563,154.2812
19:44:00:005,1.4079,1.3055,8.132,53.1,0.1835,-0.3338,-0.586,154.6406
19:44:00:022,0.8752,1.6622,8.2278,53.0618,0.3452,-0.3487,-0.6536,155.125
19:44:00:044,0.1845,2.0572,8.1225,52.7763,0.4916,-0.247,-0.5942,155.7656
19:44:00:067,-0.1854,2.3266,7.7394,52.3182,0.5651,-0.2371,-0.4126,156.5312
19:44:00:083,0.1342,2.5025,7.1696,51.6496,0.4844,-0.2803,-0.2219,157.3125
19:44:00:103,0.9638,2.5576,7.0534,52.8629,0.282,-0.349,-0.1306,157.6562
19:44:00:124,1.6581,2.4595,7.7813,54.6271,0.1079,-0.4161,-0.1732,158.1719
19:44:00:150,1.4558,2.3769,10.1467,52.77,0.0602,-0.3434,-0.2525,158.5625
19:44:00:166,1.4319,2.3697,10.7262,52.7105,0.1177,-0.1591,-0.2541,158.8125
19:44:00:189,1.5947,2.3194,10.7932,52.7376,0.2032,0.0276,-0.2105,159.1406
19:44:00:203,1.6808,2.22,10.6711,52.4017,0.2093,0.1586,-0.1894,159.4688
19:44:00:223,1.5109,2.1027,10.7285,53.8118,0.1353,0.1448,-0.2169,159.75
19:44:00:249,1.2942,2.0034,10.9273,52.3932,0.0336,0.0753,-0.2653,159.9375
19:44:00:271,0.5149,1.7544,10.5609,53.5618,-0.0359,0.0556,-0.317,160.125
19:44:00:284,-0.1459,1.7891,9.4165,53.1602,-0.1025,0.034,-0.2978,160.375
19:44:00:306,-0.4368,1.7795,9.5949,52.4339,-0.3763,0.1373,-0.1338,160.6875
19:44:00:322,0.2312,0.6961,11.5234,52.5276,-0.8096,0.389,0.233,161.0312
19:44:00:343,1.3229,-0.4914,12.5505,51.0601,-0.9217,0.3376,0.458,161.2969
19:44:00:365,2.0591,-0.4471,11.4492,52.4244,-0.5662,-0.0576,0.2679,161.2031
19:44:00:383,1.0727,0.4304,9.0789,51.6641,-0.0077,-0.4291,-0.1926,160.6719
19:44:00:408,-0.687,1.4216,7.215,52.6529,0.2503,-0.1998,-0.4496,160.2031
19:44:00:422,-2.5401,1.7687,6.8404,52.775,0.0751,0.5003,-0.2877,160.4219
19:44:00:445,-2.6191,1.4599,7.9561,50.9179,-0.3542,1.1048,0.2391,160.9688
19:44:00:470,-1.4711,0.7033,9.5937,51.9194,-0.7955,1.2085,0.7901,161.1875
19:44:00:486,-0.1196,0.3142,10.3694,51.5625,-0.9966,0.7373,1.0316,160.7031
19:44:00:503,0.9566,0.5405,9.7733,52.0522,-0.8914,-0.0366,0.9371,159.5625
19:44:00:523,1.1948,1.0517,9.0047,51.66,-0.6384,-0.6616,0.6599,158.2969
19:44:00:548,0.8094,1.6059,8.3834,51.1465,-0.3683,-0.6739,0.4415,157.2031
19:44:00:568,0.4155,1.9555,7.5179,51.6411,-0.0844,-0.3176,0.3608,156.5312
19:44:00:583,0.3389,2.2859,6.6189,50.9532,0.1095,-0.0086,0.3643,156.3125
19:44:00:603,0.4442,2.5409,6.3627,51.4608,0.1204,0.1413,0.3989,155.9688
19:44:00:623,0.7076,2.7061,7.2941,51.0593,-0.0149,0.1831,0.4364,155.5781
19:44:00:650,0.9458,2.5576,8.6635,50.5875,-0.1547,0.1986,0.4655,155.125
19:44:00:666,1.1661,2.5133,9.638,51.2192,-0.1635,0.1147,0.4617,154.6562
19:44:00:683,1.6904,2.56,10.385,50.663,-0.0844,-0.0166,0.442,154.1094
19:44:00:703,2.1561,2.3158,11.0123,50.4353,-0.0019,-0.0646,0.421,153.2812
19:44:00:724,2.6673,2.1829,11.0889,50.1811,0.1135,-0.1554,0.3368,152.7969
19:44:00:749,3.03,2.2152,11.0374,50.6054,0.2298,-0.4187,0.148,152.3281
19:44:00:767,3.1952,2.2607,11.1786,49.5953,0.3007,-0.6118,-0.0669,151.9688
19:44:00:782,3.1126,2.4247,11.4229,48.9986,0.4051,-0.7008,-0.2818,151.8594
19:44:00:803,3.1245,2.5241,11.5809,49.7972,0.5617,-0.6619,-0.4403,152.0156
19:44:00:824,3.3699,2.3768,11.0937,49.8449,0.7129,-0.5192,-0.5018,152.4375
19:44:00:850,3.9266,2.3781,10.3,49.2132,0.7649,-0.5397,-0.5548,153.0312
19:44:00:864,4.4294,2.414,9.638,48.0409,0.3619,-0.6305,-0.7436,153.6406
19:44:00:882,4.4282,2.4128,9.4021,48.4173,-0.0463,-0.3508,-0.8123,153.6406
19:44:00:902,3.6094,2.1506,10.5047,47.4515,-0.4605,0.1048,-0.7468,154.3438
19:44:00:922,3.2371,1.4228,12.7588,48.4566,-0.5957,0.4217,-0.632,155.1562
19:44:00:951,3.285,0.6411,14.1343,48.6506,-0.4187,0.3807,-0.648,156.0625
19:44:00:968,3.17,0.2867,13.3502,48.517,-0.1987,0.1022,-0.7868,157.0625
19:44:00:987,2.4207,0.3657,11.0422,48.0921,-0.2019,-0.0845,-0.8696,159.25
19:44:01:004,1.4091,0.5393,9.2669,47.8469,-0.3374,-0.162,-0.8137,160.1406
19:44:01:023,0.7818,0.5501,8.3726,46.7092,-0.4088,-0.2148,-0.7151,160.6406
19:44:01:049,0.7064,0.5046,8.0219,46.7092,-0.3209,-0.2504,-0.693,161.5938
19:44:01:065,0.6142,0.5489,7.7849,45.8994,-0.1244,-0.2654,-0.738,162.5156
19:44:01:089,0.6729,0.8517,7.6424,47.7888,0.0938,-0.1964,-0.7956,163.3438
19:44:01:102,0.4825,1.0924,7.816,45.5886,0.3452,-0.0811,-0.8267,163.7812
19:44:01:128,0.1905,1.2707,7.6616,46.3515,0.5606,0.001,-0.7742,164.625
19:44:01:149,0.0516,1.5449,7.3467,44.3491,0.653,0.0207,-0.6339,165.5625
19:44:01:165,0.2312,1.6981,7.1851,43.8853,0.6157,0.0047,-0.4627,166.5156
19:44:01:183,0.6478,1.7496,7.5119,45.9703,0.5252,0.0383,-0.3394,167.3906
19:44:01:203,1.1422,1.7232,7.9991,45.4152,0.4591,0.0052,-0.309,168.0625
19:44:01:222,1.3648,1.7711,8.32,43.9754,0.4075,-0.0925,-0.3401,168.5781
19:44:01:249,1.0823,2.0728,8.3367,44.9648,0.3172,-0.1439,-0.3255,168.9531
19:44:01:266,0.7555,2.3469,8.4648,44.4204,0.1422,-0.0867,-0.2246,169.2812
19:44:01:284,0.6801,2.5049,8.9449,44.4742,-0.0423,0.0002,-0.08,170.0781
19:44:01:302,0.8548,2.3757,9.8582,42.2479,-0.1446,0.0766,0.0639,170.2344
19:44:01:323,1.0691,2.0022,10.7297,44.3859,-0.1441,0.0942,0.1557,170.4219
19:44:01:350,1.2559,1.6358,11.2074,43.8328,-0.0751,0.0159,0.1698,170.4062
19:44:01:369,1.542,1.4814,11.096,42.2834,-0.0059,0.0313,0.0764,170.2656
19:44:01:387,1.0847,1.3737,10.8231,43.505,0.0064,0.2281,-0.0105,170.0625
19:44:01:403,0.2563,1.3845,10.5478,43.1176,-0.049,0.3546,0.0686,169.9062
19:44:01:422,-0.1196,1.1498,9.9624,43.5916,-0.2157,0.2199,0.2567,169.8594
19:44:01:450,0.2395,1.0217,9.4033,42.322,-0.5348,0.058,0.4415,169.7969
19:44:01:466,0.8501,0.7356,9.948,43.7505,-0.8107,-0.0267,0.5733,169.5469
19:44:01:484,1.4905,0.2951,11.2505,43.3802,-0.7886,-0.1357,0.5451,169.125
19:44:01:502,1.6497,0.0676,11.8023,40.6156,-0.4748,-0.2116,0.3917,168.5312
19:44:01:523,1.433,0.3645,10.7908,41.6601,-0.1436,-0.2081,0.2729,167.9062
19:44:01:549,0.376,1.1414,7.0606,42.142,-0.1222,-0.0411,0.3243,167.4062
19:44:01:565,0.2276,1.0924,6.8822,41.8685,-0.4677,0.2052,0.5185,167.0938
19:44:01:582,0.8489,0.8506,7.8735,42.4227,-0.9148,0.2313,0.7632,166.9531
19:44:01:604,1.5061,0.6818,9.0287,42.8342,-1.1689,0.009,0.8428,166.3438
19:44:01:622,1.9514,0.7811,9.6643,42.8978,-1.1335,-0.2257,0.7597,165.5625
19:44:01:642,1.8245,1.1618,9.3854,42.6228,-0.8432,-0.3229,0.5696,164.6094
19:44:01:665,1.2319,1.6454,8.8515,42.4241,-0.5004,-0.2318,0.3749,163.7656
19:44:01:684,0.8309,1.8824,8.7976,43.4001,-0.2764,-0.0155,0.3155,163.0625
19:44:01:710,0.8872,1.9124,8.6635,42.5095,-0.0868,0.1168,0.3629,162.5938
19:44:01:721,1.2475,2.0596,8.2374,42.5636,0.0828,0.0936,0.417,162.2656
19:44:01:742,1.4067,2.2081,8.3846,42.3076,0.1254,0.0356,0.422,161.875
19:44:01:769,1.226,2.2188,9.2465,40.1773,0.0895,0.0364,0.4039,161.4219
19:44:01:785,1.2523,2.08,10.361,43.2733,0.09,0.0835,0.4194,160.9375
19:44:01:802,1.4103,1.7927,11.2397,42.6869,0.1862,0.1501,0.4474,160.4688
19:44:01:823,1.712,1.5999,11.2888,41.4923,0.3891,0.1589,0.437,159.9844
19:44:01:842,2.2255,1.6742,10.5933,43.8718,0.6085,0.062,0.3773,159.4688
19:44:01:865,2.6888,1.8537,9.8978,43.5728,0.6895,-0.1026,0.2977,158.7031
19:44:01:882,2.9869,2.0764,9.9911,42.0398,0.6115,-0.2052,0.1909,158.2344
19:44:01:949,3.2598,2.0991,11.0613,42.6876,0.453,-0.1469,0.1083,157.9062
19:44:01:950,3.3747,1.8896,11.9939,43.0372,0.3822,-0.0789,0.0447,157.6875
19:44:01:950,3.5292,1.7232,11.9675,43.8706,0.4517,-0.1199,-0.0427,157.5625
19:44:01:970,3.6489,1.7508,10.9739,44.3067,0.5385,-0.2547,-0.1447,157.5156
19:44:01:983,3.6513,1.813,10.3443,44.6657,0.4293,-0.4169,-0.2371,157.5625
19:44:02:004,3.6154,1.6059,10.9596,42.997,0.1475,-0.4411,-0.2821,157.75
19:44:02:023,3.504,0.8266,11.9891,42.8978,-0.0804,-0.2281,-0.273,158.0625
19:44:02:055,3.6489,0.313,11.861,43.129,-0.0887,-0.0899,-0.288,158.4219
19:44:02:070,3.7734,0.2879,10.4747,41.8614,0.0197,-0.1884,-0.3854,158.6094
19:44:02:084,3.3915,0.4172,9.3423,43.6883,-0.0019,-0.1921,-0.5119,158.9375
19:44:02:102,2.6026,0.5465,9.3698,40.7337,-0.1981,0.0055,-0.5844,159.3438
19:44:02:122,1.8784,0.4292,10.634,44.4409,-0.3981,0.2665,-0.5697,159.8594
19:44:02:142,1.597,0.1024,11.5557,43.4059,-0.391,0.3906,-0.5053,160.5156
19:44:02:169,1.6533,0.2508,11.0542,42.0794,-0.1065,0.2633,-0.5473,161.5
19:44:02:186,1.7634,0.9044,9.9277,43.116,0.2826,0.0521,-0.7183,162
19:44:02:203,1.2403,1.473,9.0574,42.1097,0.5891,0.0478,-0.937,162.5938
19:44:02:222,0.3545,1.8837,7.8651,43.0297,0.7832,0.1155,-1.0784,163.3906
19:44:02:249,-0.298,2.2691,7.0211,43.6063,0.7686,-0.1825,-1.0166,164.3906
19:44:02:267,-0.3064,2.7815,7.0834,41.0021,0.7289,-0.141,-0.8752,164.3906
19:44:02:284,-0.2956,2.8916,7.7789,41.7724,0.8253,-0.0259,-0.6826,166.8125
19:44:02:306,0.0707,2.9419,7.8746,41.4842,0.9561,0.0188,-0.4597,166.8125
19:44:02:321,0.7531,3.0616,7.3443,41.1279,0.9297,0.0849,-0.2882,168
19:44:02:342,1.2714,3.0664,6.9792,42.5495,0.7358,0.0811,-0.1894,169.7344
19:44:02:368,1.3768,3.1322,7.3994,44.8435,0.4839,0.0803,-0.1205,170.25
19:44:02:388,1.1398,3.1777,8.387,42.9351,0.2658,0.1357,-0.0025,170.5312
19:44:02:406,1.2236,2.9969,9.8941,41.3945,0.208,0.1594,0.0977,170.7188
19:44:02:422,1.3026,2.6701,10.8626,43.7683,0.306,0.1094,0.1467,170.7969
19:44:02:442,1.384,2.4954,10.6459,41.4453,0.3665,0.0516,0.1752,170.7344
19:44:02:467,1.4941,2.5696,10.1144,41.8723,0.2764,0.0713,0.2109,170.5469
19:44:02:483,1.554,2.4403,9.9121,43.4159,0.1316,0.0239,0.2242,170.3438
19:44:02:507,1.4235,2.2607,9.8882,41.8615,0.0085,-0.0177,0.1824,170.1094
19:44:02:521,0.8273,2.3014,9.7948,42.7008,-0.1063,0.0489,0.1619,169.8438
19:44:02:542,-0.0334,2.2212,9.4488,43.9582,-0.2581,0.1104,0.2924,169.7188
19:44:02:570,-0.3985,2.074,9.1579,41.1107,-0.4951,0.2329,0.5326,169.5156
19:44:02:585,0.0049,1.4695,10.0618,43.2462,-0.5979,0.3738,0.6782,169.3281
19:44:02:602,0.449,0.8865,11.1451,40.3387,-0.3593,0.4361,0.6023,168.9688
19:44:02:627,0.4825,0.8039,10.774,41.1917,0.0061,0.4084,0.4641,168.2969
19:44:02:648,0.06,1.1821,8.9353,41.6664,0.1268,0.3331,0.4061,167.4844
19:44:02:665,-0.7337,1.5473,6.7721,41.1264,-0.1635,0.2697,0.5272,166.6875
19:44:02:683,-1.0486,1.6921,5.9916,41.8061,-0.6969,0.2585,0.7898,166.0625
19:44:02:702,-0.5781,1.5054,7.1097,43.079,-1.0695,0.1842,0.9837,165.5156
19:44:02:722,0.0935,1.1917,8.6121,41.271,-1.0914,0.0217,1.0149,164.4375
19:44:02:742,0.7303,1.1917,9.4333,41.6966,-0.8032,-0.1658,0.9166,163.3438
19:44:02:764,1.0583,1.4503,8.9999,40.699,-0.4405,-0.1988,0.7954,162.1562
19:44:02:782,1.1278,1.8178,8.0243,42.3073,-0.2431,0.0066,0.7635,161.125
19:44:02:802,1.2379,2.153,7.4593,42.1433,-0.1585,0.206,0.7635,160.2031
19:44:02:822,1.1984,2.244,7.0678,41.3921,-0.1571,0.1917,0.7699,159.3594
19:44:02:842,1.2954,2.4774,7.3192,39.736,-0.2059,0.1104,0.7818,158.5
19:44:02:864,1.4019,2.5624,8.1081,41.9858,-0.1965,0.0119,0.7832,157.5938
19:44:02:889,1.4103,2.7096,8.6001,41.7239,-0.1726,-0.0504,0.801,156.6719
19:44:02:902,1.5659,2.8976,8.9077,42.5591,-0.2085,-0.0368,0.8734,155.8281
19:44:02:923,2.1681,2.9072,9.4752,41.5808,-0.2583,-0.0089,0.9201,154.9375
19:44:02:953,3.522,2.639,10.6663,43.183,-0.2756,-0.0792,0.8623,154.4688
19:44:02:971,4.032,2.6426,10.9105,41.8214,-0.2567,-0.28,0.7097,152.9688
19:44:02:985,4.6042,2.7096,11.017,40.6144,-0.2088,-0.4616,0.5254,151.9844
19:44:03:001,5.1369,2.7467,11.7485,41.4973,-0.1896,-0.4337,0.3163,151.125
19:44:03:024,5.3392,2.6175,12.7002,40.8001,-0.1161,-0.2465,0.0631,150.5
19:44:03:040,5.0662,2.384,13.343,41.8377,0.0503,0.0084,-0.2046,150.1094
19:44:03:062,4.4521,2.2188,12.6655,43.1654,0.2927,0.1171,-0.46,149.9531
19:44:03:084,4.0882,2.3577,11.3462,42.4683,0.4117,0.0074,-0.603,150.0625
19:44:03:101,3.6513,2.0991,10.9967,41.9517,0.1854,-0.0819,-0.6217,150.4219
19:44:03:122,3.7435,1.3581,12.2369,43.2661,-0.228,-0.2185,-0.5442,150.9844
19:44:03:141,4.0978,0.5393,13.1143,43.8641,-0.4189,-0.3631,-0.5159,151.6875
19:44:03:168,4.1217,0.2951,12.4488,43.8641,-0.2439,-0.5058,-0.6392,152.3906
19:44:03:187,3.589,0.5884,10.4616,42.6624,0.0788,-0.5309,-0.8392,153.0156
19:44:03:202,2.6744,0.9176,8.5343,42.0083,0.2011,-0.3279,-0.953,153.75
19:44:03:231,1.8137,1.0038,7.6556,42.7243,0.0322,-0.0339,-0.9215,154.6875
19:44:03:248,1.2523,0.8278,8.1165,42.301,-0.3111,0.1762,-0.7854,155.7344
19:44:03:266,1.0847,0.4759,9.0227,43.0926,-0.5822,0.2718,-0.6185,157.3594
19:44:03:284,1.3038,0.3777,9.5099,44.8252,-0.612,0.2366,-0.5244,158.25
19:44:03:301,1.4342,0.5285,9.4225,44.2748,-0.4511,0.1317,-0.5447,158.9219
19:44:03:323,1.451,0.8027,8.9832,45.0194,-0.2,0.0164,-0.639,159.5156
19:44:03:351,1.2942,1.1307,8.4313,43.9358,0.0599,-0.0435,-0.7463,160.1406
19:44:03:367,0.8848,1.394,7.8351,45.033,0.2839,-0.0302,-0.8355,160.8438
19:44:03:388,0.5424,1.6574,7.4617,44.7169,0.4434,-0.0038,-0.856,161.7031
19:44:03:404,0.4382,1.8477,7.1336,47.7931,0.5444,0.0659,-0.798,162.6562
19:44:03:422,0.5436,1.9495,6.8188,45.9116,0.6032,0.1509,-0.6832,163.1406
19:44:03:441,0.8105,1.892,6.8631,47.1775,0.575,0.1991,-0.5561,164.0156
19:44:03:467,1.0177,1.8453,7.4221,46.132,0.4738,0.2169,-0.4672,164.8438
19:44:03:485,1.1613,1.7149,8.5151,48.3417,0.3518,0.2758,-0.3966,165.4844
19:44:03:501,1.3337,1.5868,9.6308,45.7168,0.2658,0.3347,-0.3327,166.0156
19:44:03:524,1.5037,1.4635,10.5741,47.9505,0.2392,0.3219,-0.2957,166.4375
19:44:03:540,1.4654,1.3677,11.0362,49.255,0.2823,0.2321,-0.2954,166.9375
19:44:03:562,1.0679,1.4563,10.5909,48.5913,0.388,0.1094,-0.3154,167.2031
19:44:03:583,0.7962,1.6873,10.1779,48.7337,0.4123,0.0303,-0.2818,167.4844
19:44:03:601,0.9602,1.5844,10.1623,49.6933,0.2948,0.0071,-0.1974,167.8125
19:44:03:621,1.2176,1.3976,10.0199,49.8102,0.1595,-0.0571,-0.1617,168.125
19:44:03:641,0.6358,1.4168,10.0175,49.1635,-0.1622,-0.0949,-0.2688,168.3438
19:44:03:667,-0.2262,1.3916,9.9181,50.4056,-0.3278,0.0154,-0.1029,168.5312
19:44:03:685,-0.4787,1.2647,9.6188,50.1835,-0.5641,0.2188,0.1413,168.8438
19:44:03:701,-0.4404,0.9978,9.8056,50.4308,-0.8051,0.3565,0.3757,169.1562
19:44:03:722,0.1162,0.4016,10.616,50.5991,-0.9172,0.2987,0.4433,169.2656
19:44:03:740,0.4299,0.0066,11.3726,51.6489,-0.8117,0.1536,0.3336,169.0625
19:44:03:766,0.0851,0.0605,11.612,49.625,-0.5726,0.1096,0.222,168.5625
19:44:03:784,-0.9695,0.3083,10.8662,50.7482,-0.3912,0.1621,0.2926,167.6094
19:44:03:802,-1.5621,0.5585,9.6033,51.5881,-0.3811,0.1765,0.5113,167.3438
19:44:03:821,-1.0557,0.7045,8.4109,52.9723,-0.5377,0.0625,0.711,167.1875
19:44:03:843,-0.11,0.7943,7.9956,53.4716,-0.7231,-0.1295,0.7773,166.375
19:44:03:867,0.5747,0.9367,8.3619,52.7677,-0.7641,-0.2473,0.7581,165.9688
19:44:03:881,1.1362,1.1343,8.9305,51.9226,-0.5992,-0.2089,0.7033,165.5469
19:44:03:900,1.4127,1.339,9.0538,54.5884,-0.3238,-0.076,0.6189,164.7188
19:44:03:921,1.4414,1.6598,8.7342,54.305,-0.0637,0.0401,0.5342,163.8906
19:44:03:940,1.2583,1.9543,8.2493,52.4905,0.1132,0.0468,0.4652,162.75
19:44:03:965,0.8967,2.2643,7.895,54.0816,0.2016,-0.0275,0.4436,162.125
19:44:04:028,0.6585,2.5744,7.81,54.4593,0.2125,-0.0704,0.503,161.5469
19:44:04:029,0.6094,2.6582,8.1631,53.4331,0.1878,-0.1013,0.6015,161.0469
19:44:04:029,0.971,2.6534,8.9221,54.4001,0.1832,-0.1399,0.6593,160.5156
19:44:04:044,1.2607,2.5504,9.7912,56.1351,0.2336,-0.1559,0.6543,159.9219
19:44:04:069,1.518,2.4978,10.4604,56.0778,0.3254,-0.1455,0.6228,159.2031
19:44:04:088,1.7239,2.4331,10.8435,57.1866,0.4232,-0.1327,0.5541,158.4531
19:44:04:103,1.9263,2.3649,11.0613,57.1217,0.5292,-0.1644,0.4753,158.125
19:44:04:121,2.2662,2.4056,10.9404,54.5138,0.5768,-0.2262,0.3816,157.4219
19:44:04:141,2.5021,2.5301,10.8171,58.7604,0.5428,-0.2464,0.2881,156.7969
19:44:04:167,2.7439,2.5588,11.3522,55.6045,0.5305,-0.1881,0.1997,156.2656
19:44:04:184,3.109,2.3409,12.2094,58.7811,0.6474,-0.1274,0.0686,155.8594
19:44:04:201,3.3257,2.3266,12.0884,57.0828,0.7729,-0.113,-0.0893,155.5469
19:44:04:221,3.2239,2.584,11.1822,58.8443,0.7193,-0.1266,-0.1782,155.3281
19:44:04:242,3.0815,2.8413,10.391,57.1396,0.4589,-0.1705,-0.1804,155.2656
19:44:04:267,2.9701,2.8605,10.6771,57.3352,0.1209,-0.097,-0.0997,155.4219
19:44:04:285,3.0216,2.384,11.8742,57.0687,-0.0751,-0.0446,0.0015,155.6406
19:44:04:302,3.4657,1.4838,12.9073,58.3404,-0.0445,-0.1269,-0.0035,155.8125
19:44:04:320,4.2678,0.7955,12.6415,56.4546,0.1374,-0.3807,-0.2038,155.875
19:44:04:342,3.7435,0.7691,9.9768,58.3017,0.3116,-0.5381,-0.5002,155.8594
19:44:04:365,2.702,1.1869,8.4038,59.1574,0.3712,-0.4747,-0.6733,156
19:44:04:383,1.9885,1.473,7.7154,58.9407,0.229,-0.2196,-0.6627,156.4844
19:44:04:400,1.791,1.2085,8.4026,58.5663,-0.0312,0.0356,-0.5447,157.2656
19:44:04:421,1.8377,0.993,9.0562,59.8847,-0.1566,0.0939,-0.4709,158.1094
19:44:04:440,1.6653,1.1606,8.7318,58.848,-0.0469,-0.0994,-0.5636,158.7812
19:44:04:461,1.2726,1.6059,8.1093,58.3872,0.1095,-0.3463,-0.6888,159.3281
19:44:04:482,0.771,2.0309,7.4604,60.0942,0.2027,-0.4845,-0.7335,159.9062
19:44:04:500,0.619,2.4391,6.9864,58.0512,0.2439,-0.5764,-0.6872,160.6406
19:44:04:524,0.5663,2.6737,6.6979,60.6549,0.2397,-0.5903,-0.5798,162.0156
19:44:04:540,0.6238,2.8114,6.6344,58.8262,0.2115,-0.5674,-0.4456,162.9219
19:44:04:561,1.1039,2.8605,7.0355,59.7297,0.176,-0.5234,-0.2914,163.6562
19:44:04:583,1.5623,2.7432,7.2964,58.9713,0.188,-0.422,-0.1734,163.9844
19:44:04:603,1.6701,2.8509,7.0151,59.4211,0.2392,-0.357,-0.1431,164.5156
19:44:04:620,1.6713,3.0652,7.0379,58.6615,0.1963,-0.3066,-0.1236,164.875
19:44:04:640,1.791,2.9658,7.834,59.9798,0.0272,-0.2507,-0.0674,165.1094
19:44:04:669,2.1693,2.7767,9.0095,59.5882,-0.1225,-0.2808,-0.0219,165.3281
19:44:04:688,2.5883,2.6187,9.723,59.5704,-0.1553,-0.3484,-0.0145,165.4844
19:44:04:702,2.6984,2.4331,9.6966,60.257,-0.1276,-0.304,-0.0352,165.5938
19:44:04:726,2.514,2.3278,9.7002,60.6798,-0.1404,-0.1927,-0.0589,165.7031
19:44:04:739,2.4613,2.1865,10.0941,60.483,-0.1963,-0.006,-0.056,165.8125
19:44:04:763,2.0472,2.0177,10.3993,60.0226,-0.2032,0.16,-0.0909,165.9375
19:44:04:784,1.2786,1.916,10.0977,59.8166,-0.1547,0.267,-0.1519,166.0469
19:44:04:801,0.965,1.7352,9.5662,60.4618,-0.1659,0.3946,-0.0893,166.1719
19:44:04:820,1.1338,1.4455,9.2932,60.6747,-0.3169,0.4753,0.0955,166.2812
19:44:04:845,1.4905,1.0708,9.6751,59.6777,-0.5726,0.5464,0.2988,166.125
19:44:04:870,2.0017,0.6973,11.3905,58.4642,-0.8794,0.8891,0.3978,165.9531
19:44:04:886,1.7251,0.4699,13.1802,60.6225,-0.5065,0.867,0.2149,165.4531
19:44:04:904,0.9901,0.7847,12.857,60.8206,0.085,0.6108,0.0841,164.8281
19:44:04:924,0.2108,1.4467,10.0594,59.1961,0.3073,0.4875,0.1853,164.1875
19:44:04:943,-0.3135,1.8298,7.0858,59.0526,-0.0336,0.5237,0.4644,163.9844
19:44:04:967,-0.2716,1.716,6.091,59.4308,-0.6503,0.4377,0.776,163.6562
19:44:04:983,0.3928,1.0157,7.3731,59.4081,-1.0762,0.1807,0.9321,163.0312
19:44:05:001,1.2882,0.5489,9.225,60.4102,-1.0951,-0.0177,0.8926,162.1406
19:44:05:021,1.7778,0.4112,10.4448,59.0055,-0.7523,-0.0329,0.7185,161.0781
19:44:05:041,1.6222,0.6662,10.3694,59.4048,-0.2943,0.088,0.5699,161.0781
19:44:05:067,1.2834,1.0612,9.3004,58.7084,-0.0061,0.3174,0.5291,160.0938
19:44:05:083,1.0883,1.3007,8.3451,58.1707,0.1007,0.3813,0.5264,159.3125
19:44:05:100,0.7794,1.5125,7.6484,59.3213,0.0788,0.2012,0.5627,158.7031
19:44:05:121,0.6537,1.7388,7.3383,59.2573,-0.025,0.0082,0.6495,158.0469
19:44:05:141,0.6406,1.8429,7.4796,60.5167,-0.1292,-0.0646,0.76,157.3906
19:44:05:167,0.9003,1.8382,8.1296,58.104,-0.1443,-0.068,0.8511,156.75
19:44:05:184,1.372,1.7113,8.6408,58.3502,-0.0663,-0.0768,0.8764,156
19:44:05:200,2.0077,1.746,8.7557,61.2932,0.0013,-0.0686,0.8287,155.1406
19:44:05:220,2.4518,1.8322,8.9963,59.5391,0.0378,-0.0385,0.7499,153.7344
19:44:05:240,2.8768,1.8382,9.553,58.4344,0.0743,-0.0568,0.6516,152.7656
19:44:05:268,3.5268,1.8585,10.3347,57.7712,0.1435,-0.101,0.5123,151.8594
19:44:05:287,3.9805,1.9483,10.6076,57.7712,0.1934,-0.1429,0.3299,151.0938
19:44:05:301,4.1038,2.0955,10.9296,57.7467,0.1619,-0.0512,0.1848,150.4219
19:44:05:320,4.1002,2.1027,11.7113,58.5121,0.1356,0.043,0.0713,149.9531
19:44:05:340,4.0355,2.0261,12.766,59.4985,0.1965,0.0268,-0.0517,149.7969
19:44:05:368,4.0798,1.8968,13.197,58.6473,0.3667,-0.1825,-0.2105,149.5938
19:44:05:384,4.1481,2.0321,12.2381,58.8636,0.4503,-0.4012,-0.3527,149.5
19:44:05:403,4.1301,2.1913,11.0398,58.4588,0.3135,-0.4763,-0.4129,149.5312
19:44:05:420,4.2558,1.9076,10.537,59.3874,0.1087,-0.4638,-0.4488,149.7812
19:44:05:441,4.6999,1.4671,10.7812,57.7428,-0.024,-0.2715,-0.5559,150.1875
19:44:05:468,4.8627,0.89,11.3905,57.3388,0.0338,-0.1021,-0.762,150.7188
19:44:05:485,4.6628,0.6494,11.1954,57.8989,0.2117,-0.0954,-1.0097,151.2969
19:44:05:502,3.8907,0.9248,9.8618,57.5425,0.2578,0.022,-1.1442,151.9375
19:44:05:520,2.7798,1.3174,8.5809,56.76,0.0141,0.349,-1.0699,153.375
19:44:05:543,1.8496,1.3246,8.6121,59.1388,-0.3641,0.548,-0.8635,154.625
19:44:05:567,1.53,0.6686,9.4955,56.6276,-0.5896,0.3078,-0.7388,155.8281
19:44:05:583,1.6892,0.3418,10.0534,57.8742,-0.5768,-0.1365,-0.7713,156.8594
19:44:05:601,1.609,0.574,9.796,58.1299,-0.4232,-0.403,-0.8408,157.7031
19:44:05:622,1.2056,0.8996,9.0897,57.0168,-0.2408,-0.4307,-0.8858,158.5156
19:44:05:641,0.6932,1.2707,8.5522,57.0559,-0.0818,-0.2829,-0.8587,159.5156
19:44:05:664,0.4323,1.5137,8.624,55.9626,0.1124,-0.0467,-0.7969,160.5938
19:44:05:681,0.206,1.5341,8.703,56.8912,0.3771,0.035,-0.7348,161.6562
19:44:05:699,0.0707,1.6849,8.2254,57.7228,0.5827,-0.0281,-0.6496,162.5938
19:44:05:720,-0.0394,1.813,7.324,53.9888,0.595,-0.1743,-0.5157,163.4531
19:44:05:742,0.1234,2.1147,6.6141,55.68,0.4594,-0.358,-0.3631,164.2188
19:44:05:766,0.5077,2.147,7.069,54.8095,0.2852,-0.4206,-0.187,164.8438
19:44:05:783,1.2415,1.971,8.0183,55.1713,0.1502,-0.3042,0.0007,165.375
19:44:05:800,1.9095,1.752,8.8814,56.4499,0.1393,-0.1349,0.0995,165.75
19:44:05:820,2.2279,1.716,9.395,57.1255,0.212,0.0084,0.095,165.9062
19:44:05:839,2.0436,1.7484,9.7733,55.4832,0.2927,0.1376,0.0364,165.875
19:44:05:860,1.9682,1.5125,10.2234,55.8588,0.3047,0.3397,0.0758,165.7344
19:44:05:881,2.2052,1.1019,10.7238,54.4596,0.2317,0.4739,0.1669,165.6406
19:44:05:899,2.4458,0.7883,11.442,56.1651,0.0945,0.4052,0.1941,165.5469
19:44:05:919,2.3369,0.7548,11.8119,55.6887,0.02,0.1554,0.0969,165.2969
19:44:05:939,1.7,1.1223,11.1284,54.9908,0.0839,-0.0518,-0.0624,164.8438
19:44:05:960,0.7519,1.4323,9.9744,55.4832,0.1358,-0.002,-0.126,164.7031
19:44:05:983,0.3341,1.3821,9.389,54.9492,0.0072,0.1746,0.046,164.7812
19:44:06:001,1.0189,0.7093,10.2712,52.9413,-0.3079,0.3717,0.3794,164.9219
19:44:06:019,1.7802,0.0557,11.454,55.5887,-0.5356,0.4084,0.5757,164.8438
19:44:06:105,1.8592,0.1275,11.4169,55.4733,-0.473,0.1805,0.487,164.6406
19:44:06:105,0.9877,0.7572,9.4512,54.1181,-0.24,-0.141,0.2995,163.9844
19:44:06:105,-0.055,1.2875,7.4892,53.3186,-0.2107,-0.2789,0.2937,163.2969
19:44:06:106,-0.2585,1.26,7.4617,54.7133,-0.5806,-0.0648,0.5456,162.8906
19:44:06:126,0.1809,0.6614,9.1136,53.6868,-1.1076,0.1664,0.8902,162.6406
19:44:06:138,1.1601,0.1454,10.8315,53.9531,-1.387,-0.0262,1.0737,162.25
19:44:06:160,2.022,0.2053,11.3917,54.9534,-1.2871,-0.4414,1.0234,161.4844
19:44:06:185,2.1274,0.5872,10.3143,54.3675,-0.8559,-0.7234,0.8042,160.375
19:44:06:200,2.0759,1.1642,9.0574,54.4985,-0.3811,-0.6507,0.5962,159.2344
19:44:06:226,1.8676,1.4252,8.3667,54.3982,-0.0314,-0.2808,0.4801,158
19:44:06:249,1.6006,1.5305,7.2438,53.9855,0.448,0.0782,0.4055,156.9062
19:44:06:262,1.5887,1.8142,6.3974,54.8087,0.4354,0.0699,0.4189,156.4219
19:44:06:286,1.6928,2.0776,6.4058,53.1115,0.322,0.1621,0.4964,155.9062
19:44:06:302,1.9945,2.0776,7.3467,54.5767,0.24,0.2409,0.5712,155.3906
19:44:06:321,2.3476,1.9279,8.4516,53.8398,0.2176,0.2122,0.6047,154.7656
19:44:06:342,2.7822,1.8214,9.4357,55.7014,0.2546,0.0881,0.5808,154.1094
19:44:06:366,3.1976,1.7364,10.1001,54.9538,0.2895,-0.0283,0.5248,153.375
19:44:06:383,3.7183,1.6131,10.4436,54.6939,0.3081,-0.1817,0.4109,152.6719
19:44:06:401,4.2175,1.6885,10.6435,55.0301,0.3081,-0.2422,0.2591,152.0781
19:44:06:421,4.5084,1.7436,10.8734,52.9062,0.2967,-0.2124,0.0913,151.6094
19:44:06:442,4.5946,1.8789,11.2038,53.557,0.2735,-0.0888,-0.0674,151.6094
19:44:06:465,4.5862,1.8477,11.9675,54.9449,0.2921,0.1022,-0.2307,151.3281
19:44:06:483,4.3755,1.6167,12.5912,54.2185,0.392,0.1546,-0.3974,151.2344
19:44:06:499,3.9362,1.5975,12.1519,54.404,0.4405,0.0343,-0.5332,151.2344
19:44:06:519,3.522,1.7579,11.0565,54.6604,0.3017,-0.1295,-0.5577,151.5156
19:44:06:538,3.5986,1.716,10.4257,56.2182,0.0626,-0.1913,-0.5407,151.9062
19:44:06:560,4.0355,1.4204,10.5095,54.7846,-0.1196,-0.0331,-0.6123,152.4531
19:44:06:585,4.0092,0.9822,11.2756,54.6558,-0.1113,0.3022,-0.7535,153.0938
19:44:06:602,3.6058,0.5992,11.7365,53.0851,0.1049,0.4904,-0.9263,153.7344
19:44:06:623,2.9617,0.6375,10.9261,54.8842,0.3132,0.5024,-1.0824,154.4062
19:44:06:640,2.1657,1.084,9.1627,55.0178,0.2442,0.5219,-1.1048,155.2344
19:44:06:659,1.1697,1.3952,7.9118,54.1077,-0.0855,0.5059,-0.9612,156.2031
19:44:06:685,0.6454,1.491,7.9393,56.682,-0.4778,0.3291,-0.7351,157.2812
19:44:06:700,0.9829,1.2336,9.371,55.288,-0.624,0.152,-0.5889,158.4375
19:44:06:719,1.4498,0.9176,10.6735,54.7857,-0.4314,0.0257,-0.5892,159.4688
19:44:06:739,1.5647,0.853,10.7645,54.2347,-0.0676,-0.068,-0.6398,160.2656
19:44:06:759,1.2966,1.0876,9.468,55.4528,0.1979,-0.0992,-0.6488,160.9062
19:44:06:783,0.8584,1.3677,8.1464,54.6254,0.2876,-0.0731,-0.5719,161.9531
19:44:06:801,0.6489,1.5532,7.5431,54.8252,0.2983,-0.0249,-0.4376,162.7031
19:44:06:818,0.7339,1.479,7.9668,55.9142,0.3856,0.0297,-0.3178,163.3906
19:44:06:839,0.7076,1.2157,8.0255,54.647,0.5278,-0.0984,-0.2155,163.9688
19:44:06:858,0.9339,1.2324,7.3743,54.6753,0.5145,-0.2371,-0.105,164.3906
19:44:06:883,1.5468,1.1845,7.3192,54.8125,0.4224,-0.2899,-0.0728,164.6719
19:44:06:904,1.8544,1.145,7.9489,55.2247,0.4274,-0.1833,-0.1252,164.875
19:44:06:921,1.5611,1.3713,8.557,55.9767,0.4988,0.1152,-0.1252,165
19:44:06:940,1.1302,1.503,8.6611,55.7314,0.5111,0.3219,-0.0232,165.1406
19:44:06:960,1.2032,1.5437,8.6336,56.1905,0.4016,0.2843,0.0796,165.2969
19:44:06:984,1.4283,1.5664,8.3511,57.0743,0.1502,0.1205,0.1389,165.3281
19:44:07:001,1.7718,1.6275,8.5654,55.4901,-0.2005,0.0822,0.164,165.2812
19:44:07:019,2.0244,1.4407,10.0043,55.3674,-0.4139,0.1701,0.131,165.125
19:44:07:039,2.3285,1.1522,11.6228,55.0502,-0.3747,0.2082,-0.0067,164.9375
19:44:07:060,2.1154,1.011,12.2656,54.1409,-0.1449,0.2082,-0.2275,164.7344
19:44:07:085,1.4139,1.2875,11.3223,56.7295,0.0013,0.3474,-0.3484,164.5312
19:44:07:101,0.5233,1.6167,9.796,54.5956,-0.1254,0.5538,-0.2885,164.625
19:44:07:119,-0.0035,1.8777,8.8922,55.9471,-0.5025,0.6465,-0.1149,164.9375
19:44:07:139,0.1031,0.9559,12.025,53.4095,-0.9068,0.6316,0.136,165.2188
19:44:07:160,0.8716,0.2269,13.7979,56.5143,-0.9944,0.3869,0.2868,165.3438
19:44:07:185,1.2918,0.337,12.9659,56.6496,-0.6336,-0.1157,0.1845,165.2031
19:44:07:201,0.6777,0.9619,10.4712,55.4236,-0.1185,-0.4843,-0.0512,164.8125
19:44:07:219,-0.2178,1.4084,8.4205,56.067,0.1276,-0.2901,-0.1061,164.4844
19:44:07:239,-0.5889,1.2612,7.8004,54.9427,0.0226,0.1512,0.0894,164.4688
19:44:07:259,0.2048,0.7213,8.5175,56.6909,-0.2884,0.3054,0.3856,164.6719
19:44:07:287,0.9494,0.5489,9.4261,55.5074,-0.5167,0.0638,0.4772,164.7188
19:44:07:303,1.2475,0.7943,9.7577,55.7597,-0.5073,-0.2523,0.376,164.3906
19:44:07:319,0.8189,1.2228,9.0813,55.6924,-0.2623,-0.3777,0.1837,163.8281
19:44:07:339,0.5915,1.5664,7.8866,53.7123,0.0479,-0.2744,0.0878,163.3281
19:44:07:358,0.5652,1.7232,6.8296,54.5438,0.2362,-0.0025,0.1094,163.0156
19:44:07:385,0.7112,1.8944,6.334,56.3547,0.2634,0.1411,0.1632,162.9531
19:44:07:400,1.0631,1.9818,6.6955,56.3547,0.1427,0.1365,0.221,162.8438
19:44:07:425,1.3612,2.0117,7.6975,56.6686,-0.0232,0.0305,0.2393,162.625
19:44:07:439,1.6018,2.1171,8.8132,56.6686,-0.1073,-0.0885,0.2202,162.3594
19:44:07:459,1.7491,2.2152,9.3662,56.1142,-0.0783,-0.1402,0.1951,162.0781
19:44:07:484,2.1968,2.2799,9.5386,56.1485,0.0083,-0.1575,0.1789,161.9688
19:44:07:502,2.7738,2.1614,9.9504,53.6051,0.0471,-0.0912,0.1456,161.75
19:44:07:518,3.109,2.062,10.4496,54.1245,0.0764,-0.0872,0.0236,161.5625
19:44:07:539,3.2562,2.1207,10.5107,54.3431,0.1603,-0.1961,-0.1729,161.3906
19:44:07:559,3.4442,2.2332,10.5166,55.6085,0.2458,-0.3045,-0.383,161.2969
19:44:07:583,3.5316,2.2847,11.1044,53.5274,0.2706,-0.2544,-0.5793,161.3906
19:44:07:601,3.4777,2.1482,12.1016,54.9255,0.3217,-0.0283,-0.7508,161.75
19:44:07:618,3.3568,1.8118,12.5266,53.4566,0.4495,0.206,-0.8904,162.3125
19:44:07:638,3.3616,1.649,11.7928,53.2674,0.6179,0.2002,-1.0198,163.5469
19:44:07:658,3.4825,1.7137,10.3024,54.0714,0.6959,-0.0715,-1.1375,164.5312
19:44:07:683,3.504,1.74,9.3567,54.8289,0.5161,-0.3772,-1.2456,165.5938
19:44:07:701,3.6082,1.7029,9.3291,53.9403,0.1409,-0.59,-1.2984,166.9219
19:44:07:722,3.692,1.4335,10.3311,52.8699,-0.2642,-0.5905,-1.313,169.9375
19:44:07:741,3.6034,0.7296,11.8921,54.1397,-0.5681,0.0058,-1.3727,171.5469
19:44:07:760,3.5232,0.0138,12.7768,52.4324,-0.3151,-0.1003,-1.5127,173.1094
19:44:07:785,3.5028,-0.2855,11.4815,54.1009,-0.0069,-0.4696,-1.7412,174.6875
19:44:07:800,3.1401,0.2508,8.9065,52.7148,-0.0059,-0.4465,-1.8787,176.3438
19:44:07:819,2.4637,0.7811,7.409,51.8008,-0.241,-0.0845,-1.8409,178.4219
19:44:07:839,1.8018,0.8362,7.5538,50.8618,-0.4714,0.1797,-1.7122,178.4219
19:44:07:860,1.384,0.4902,8.7186,51.7076,-0.5132,0.1986,-1.595,180.6406
19:44:07:885,1.4905,0.2053,9.7218,51.7562,-0.3678,0.0108,-1.5439,182.6562
19:44:07:902,1.9227,0.1706,9.7637,51.8797,-0.1856,-0.2001,-1.5671,184.5781
19:44:07:920,2.3165,0.4196,9.2609,51.4484,-0.0988,-0.3037,-1.6084,186.3594
19:44:07:939,2.3608,0.5776,8.9784,50.1784,-0.0482,-0.4446,-1.6456,189.8438
19:44:07:959,2.2447,0.8134,8.788,51.5255,-0.0072,-0.4742,-1.6304,189.8438
19:44:07:986,2.186,0.9583,8.6994,50.5033,0.0256,-0.3817,-1.5655,191.7188
19:44:08:003,2.2722,0.9164,8.8204,49.2678,0.0652,-0.3005,-1.5194,193.6719
19:44:08:021,2.2962,0.8278,9.0885,50.3134,0.1286,-0.2766,-1.4941,195.5156
19:44:08:038,2.2794,0.7943,9.0753,49.2456,0.1731,-0.3279,-1.4579,197.3594
19:44:08:058,2.271,0.8517,8.7174,49.0027,0.1414,-0.4465,-1.4275,199.1406
19:44:08:082,2.1776,0.9284,8.5019,48.1701,0.0469,-0.5503,-1.383,200.8125
19:44:08:100,2.0831,1.0636,8.7186,49.5374,-0.0394,-0.5509,-1.3431,202.5312
19:44:08:183,1.8927,1.2013,9.2932,48.229,-0.0432,-0.4233,-1.3175,204.25
19:44:08:184,1.3971,1.3485,10.0462,48.7395,0.0637,-0.2209,-1.2621,205.8125
19:44:08:184,0.9554,1.4503,10.3239,49.0314,0.2123,-0.0486,-1.1439,207.4375
19:44:08:185,0.8118,1.6023,10.0186,49.2338,0.2445,0.0521,-0.9846,210.4844
19:44:08:207,0.8309,1.5952,9.6404,48.7712,0.0983,0.043,-0.8328,211.7344
19:44:08:218,1.0177,1.4551,9.9229,47.963,-0.0871,-0.0688,-0.7276,212.3281
19:44:08:242,1.2966,1.2767,10.4975,47.8478,-0.1633,-0.1801,-0.7053,213.3594
19:44:08:258,1.4103,1.2408,10.452,47.122,-0.1673,-0.1532,-0.7119,214.2344
19:44:08:278,1.2224,1.3605,9.8235,45.9073,-0.2392,0.0263,-0.6416,215.0156
19:44:08:300,1.1242,1.3785,9.1699,48.1949,-0.4874,0.2729,-0.5055,215.8594
19:44:08:318,1.2403,0.9415,9.9397,46.5225,-0.7625,0.422,-0.3958,216.6562
19:44:08:343,1.8209,0.0952,11.7413,47.7434,-0.6898,0.1738,-0.4533,217.25
19:44:08:358,2.4985,-0.4926,12.0358,46.3349,-0.2661,-0.3285,-0.7575,217.6562
19:44:08:380,2.6134,0.0078,10.1851,45.902,0.127,-0.6196,-1.0952,218.0312
19:44:08:400,1.8221,0.9523,7.7334,46.4621,0.1843,-0.3501,-1.1854,218.6406
19:44:08:418,0.9901,1.7208,6.2741,45.2042,-0.0671,0.2337,-1.0264,219.1406
19:44:08:443,0.2946,1.7484,6.492,46.9119,-0.4344,0.6534,-0.733,220.4688
19:44:08:457,0.2491,1.321,8.0243,45.8446,-0.7345,0.6487,-0.4837,221.875
19:44:08:479,0.6801,0.829,9.7349,45.9014,-0.893,0.3304,-0.3476,222.9688
19:44:08:500,1.3445,0.4567,11.3079,46.0968,-0.8088,-0.0795,-0.3585,223.9688
19:44:08:519,1.8293,0.331,11.7113,45.9288,-0.5012,-0.3831,-0.488,224.3125
19:44:08:539,1.299,0.6937,9.2729,45.8988,-0.1198,-0.4062,-0.6504,224.6094
19:44:08:560,0.5963,1.0373,7.8004,45.5428,0.1739,-0.1863,-0.729,225.0469
19:44:08:584,0.3557,1.2911,6.7925,46.2657,0.2847,0.0438,-0.6536,225.7031
19:44:08:602,0.8417,1.406,6.3819,44.9566,0.2168,0.054,-0.4797,226.5
19:44:08:618,1.3624,1.4299,6.5614,45.318,0.0359,-0.133,-0.3535,227.3281
19:44:08:638,1.7431,1.673,7.482,44.7753,-0.18,-0.3666,-0.3186,228
19:44:08:658,1.8161,1.8729,8.9341,43.966,-0.3401,-0.3959,-0.3173,228.4688
19:44:08:678,1.5348,1.8872,10.2162,43.6545,-0.3441,-0.1865,-0.2893,228.8281
19:44:08:701,1.5743,1.734,11.1966,44.9279,-0.2344,0.0106,-0.2288,229.2031
19:44:08:720,1.8448,1.6215,11.3798,45.2173,-0.045,0.0502,-0.194,229.5625
19:44:08:737,2.1357,1.6598,10.8375,43.5816,0.1276,-0.146,-0.2403,229.8281
19:44:08:758,2.289,1.9148,10.3898,44.6802,0.1673,-0.4579,-0.3569,230.0469
19:44:08:783,2.2914,2.1674,10.6639,41.0824,0.0919,-0.696,-0.4805,230.4531
19:44:08:800,2.4111,2.165,11.4636,43.092,0.0346,-0.7125,-0.5402,230.875
19:44:08:818,2.532,1.9794,12.1794,42.5496,0.1143,-0.5623,-0.5921,231.4531
19:44:08:838,2.5679,1.7831,12.0046,42.624,0.3047,-0.3751,-0.6645,232.1094
19:44:08:858,2.6445,1.7568,10.8578,42.5225,0.4879,-0.3343,-0.7245,232.7812
19:44:08:885,2.8995,1.734,9.9612,44.5427,0.4461,-0.4489,-0.7492,233.5781
19:44:08:902,3.3927,1.5664,10.0582,41.9522,0.1835,-0.5737,-0.7346,234
19:44:08:926,3.6441,1.1498,11.1918,43.447,-0.1361,-0.5631,-0.7276,234.8906
19:44:08:937,3.4621,0.7356,12.1986,42.7518,-0.2743,-0.4057,-0.7668,235.7344
19:44:08:959,3.3759,0.4196,12.5661,42.8081,-0.2091,-0.243,-0.8057,236.6094
19:44:08:984,3.4454,0.2065,11.9424,43.273,-0.0495,-0.1753,-0.8416,237.5
19:44:09:002,3.2658,0.3418,10.5933,41.7904,0.1068,-0.2766,-0.9261,238.8438
19:44:09:019,2.9127,0.5058,9.2872,41.3649,0.1369,-0.3788,-0.9753,239.8125
19:44:09:038,2.4733,0.7775,8.4002,39.1404,0.0277,-0.3788,-0.9774,240.8906
19:44:09:058,1.7323,0.8889,8.1859,41.0992,-0.1928,-0.2715,-0.9279,241.9688
19:44:09:084,1.3816,0.8254,8.8623,40.5425,-0.4269,-0.0885,-0.7817,243.1094
19:44:09:102,1.597,0.483,9.7768,40.6461,-0.5475,0.0894,-0.5772,244.2031
19:44:09:118,1.955,0.3358,9.9899,39.4422,-0.449,0.1118,-0.4888,245.0938
19:44:09:138,2.3093,0.3382,9.5925,37.2076,-0.2112,0.0199,-0.5319,245.7188
19:44:09:159,2.0531,0.5429,8.7557,38.0197,0.0546,-0.1064,-0.7034,246.2812
19:44:09:184,1.3193,0.9727,8.1643,39.7459,0.2642,-0.157,-0.8901,246.875
19:44:09:201,0.7603,1.2779,7.8268,38.6321,0.412,-0.0542,-0.9298,247.6562
19:44:09:219,1.0524,1.5066,7.0882,39.4475,0.599,-0.0821,-0.6893,248.6719
19:44:09:239,1.6988,1.7292,6.4776,37.8542,0.4767,-0.0824,-0.6003,248.6719
19:44:09:258,2.3931,1.6873,7.2366,38.7332,0.3638,-0.0009,-0.6067,250.6406
19:44:09:280,2.38,1.5149,8.4612,37.0207,0.3888,0.1347,-0.6571,251.0469
19:44:09:301,1.943,1.6765,9.2848,38.778,0.4149,0.3232,-0.619,252.8125
19:44:09:321,1.5923,1.6885,9.9432,36.6913,0.4211,0.3608,-0.5324,253.5156
19:44:09:342,1.4366,1.6287,10.2078,38.0115,0.3734,0.1972,-0.4533,253.5156
19:44:09:357,1.4857,1.5568,10.2018,36.7098,0.2783,-0.0614,-0.4171,254.2031
19:44:09:379,1.627,1.5592,10.1659,37.5849,0.1736,-0.1823,-0.3979,254.7812
19:44:09:404,1.5803,1.552,10.3491,36.168,0.122,-0.161,-0.3998,255.2656
19:44:09:420,1.3947,1.5676,10.4891,36.9978,0.1345,-0.0568,-0.4115,255.75
19:44:09:439,0.8979,1.5066,10.5262,36.168,0.1888,0.0918,-0.4161,256.2344
19:44:09:458,0.0755,1.2971,9.9995,34.8651,0.1808,0.1773,-0.3298,256.7031
19:44:09:484,-0.4285,1.2863,9.1735,35.1515,0.0179,0.1682,-0.1521,257.1562
19:44:09:501,-0.693,1.3497,8.1691,34.9063,-0.3707,0.0361,0.1171,257.625
19:44:09:517,-0.5625,1.2001,8.0374,34.9063,-0.9177,-0.0776,0.4151,257.9844
19:44:09:538,0.0935,0.5213,9.9516,35.3971,-1.2376,-0.1274,0.5904,258.1406
19:44:09:558,0.9231,-0.1454,12.6607,34.1432,-0.9939,-0.0896,0.5302,257.5156
19:44:09:583,1.135,-0.3502,13.2915,34.6903,-0.3494,-0.1186,0.3358,257.1719
19:44:09:602,0.4742,0.2101,11.1547,34.193,0.1321,-0.0379,0.2388,256.5312
19:44:09:619,-0.681,0.9296,8.0243,35.1238,0.0655,0.2281,0.4258,256.0312
19:44:09:638,-1.3251,1.1762,6.1221,33.1242,-0.4376,0.3829,0.8244,255.7344
19:44:09:658,-0.6236,0.8086,6.4106,32.9974,-0.967,0.2601,1.1384,255.4219
19:44:09:687,0.6106,0.3334,8.0782,33.6174,-1.1931,0.0369,1.2061,254.6875
19:44:09:702,1.627,0.0425,9.7673,33.0627,-1.0472,-0.1074,1.0649,253.5
19:44:09:719,2.1884,0.1766,10.4963,33.0092,-0.6663,-0.113,0.8117,252.0938
19:44:09:739,2.1681,0.5561,10.4843,33.8614,-0.2011,-0.0121,0.5832,250.8281
19:44:09:759,1.7539,0.908,9.6978,34.3654,0.2104,0.0723,0.4391,249.7344
19:44:09:784,1.3121,1.3114,8.4385,33.2428,0.44,0.1296,0.3933,249.2969
19:44:09:801,1.2786,1.7579,7.2222,34.4105,0.4362,0.1911,0.4178,248.6719
19:44:09:818,1.287,2.135,6.8655,33.9304,0.2557,0.2702,0.4764,248.1562
19:44:09:838,1.2104,2.1829,7.5766,35.9105,0.0618,0.2873,0.5621,247.7188
19:44:09:859,1.3014,2.1386,8.8958,34.6607,-0.0258,0.2068,0.6553,247.2344
19:44:09:884,1.7455,1.9351,10.3646,33.7222,0.0519,0.022,0.6889,246.4062
19:44:09:900,2.4781,1.7711,10.9464,32.5063,0.1846,-0.2411,0.6252,245.7031
19:44:09:917,3.2778,1.7197,11.0003,33.4344,0.2701,-0.4206,0.4607,244.9062
19:44:09:938,3.8536,2.0465,10.9739,33.4344,0.3332,-0.5189,0.2556,244.1875
19:44:09:958,3.8859,2.2811,11.1296,33.9265,0.3553,-0.4813,0.0756,243.5781
19:44:09:984,3.9733,2.3745,11.5031,34.8405,0.351,-0.3381,-0.0528,243.1875
19:44:10:002,3.911,2.2416,11.8227,33.3099,0.326,-0.203,-0.1609,243.0312
19:44:10:018,3.8237,2.1961,11.6898,33.1732,0.3092,-0.2523,-0.2733,243.0625
19:44:10:042,3.862,2.1674,11.369,35.2275,0.2424,-0.3737,-0.3441,243.1875
19:44:10:056,4.2019,2.0632,11.3917,35.0043,0.0919,-0.4132,-0.3694,243.4375
19:44:10:078,4.4306,1.5784,12.0753,34.5878,-0.0794,-0.2909,-0.4027,243.8125
19:44:10:101,4.5587,0.9822,12.7313,35.3049,-0.1334,-0.1271,-0.4928,244.25
19:44:10:120,4.5623,0.568,12.59,35.6303,0.0045,-0.0638,-0.6534,244.7031
19:44:10:136,4.0858,0.6123,11.2409,35.16,0.2501,-0.1343,-0.8802,245.2031
19:44:10:159,3.1808,0.7799,9.8032,35.7871,0.3965,-0.1535,-1.0526,246.25
19:44:10:184,2.4494,0.8362,9.0897,35.6729,0.3318,0.0537,-1.0659,247.2656
19:44:10:265,2.0472,0.6099,9.3327,36.2191,0.1449,0.2441,-0.9737,248.4219
19:44:10:266,2.0543,0.337,9.9037,36.1165,-0.0016,0.2308,-0.8789,249.625
19:44:10:266,1.9945,0.2759,9.7026,35.8126,0.0282,0.0774,-0.8605,250.1875
19:44:10:266,1.6018,0.574,8.8287,37.9252,0.1723,-0.0707,-0.9109,251.2188
19:44:10:279,0.9075,0.9355,7.6065,37.2858,0.2946,-0.1426,-0.9516,252.1562
19:44:10:304,0.2515,1.2396,6.6165,37.5413,0.2794,-0.1799,-0.8954,253.1562
19:44:10:319,0.1701,1.5652,6.6763,39.2938,0.1571,-0.2409,-0.7745,254.25
19:44:10:338,0.2479,1.57,7.0223,38.2463,0.0511,-0.1524,-0.6363,255.2656
19:44:10:357,0.4311,1.655,6.9337,39.7513,0.0517,-0.1269,-0.5095,256.25
19:44:10:377,0.3437,1.9052,7.5634,39.484,0.0828,-0.1988,-0.415,257.0625
19:44:10:401,0.2623,1.9004,7.7142,38.8947,0.188,-0.1322,-0.2917,257.7031
19:44:10:419,0.7926,1.9411,7.2629,40.2347,0.3406,-0.0688,-0.0863,258.4688
19:44:10:438,1.4163,1.916,7.409,39.1619,0.3009,0.1344,0.0825,258.8125
19:44:10:458,1.5671,1.8106,8.1895,41.525,0.1406,0.3158,0.1232,258.9219
19:44:10:479,1.1553,1.667,9.3351,40.3921,-0.0096,0.3261,0.074,258.8125
19:44:10:502,0.5699,1.6394,10.0498,40.9049,-0.0557,0.19,0.0455,258.6406
19:44:10:518,0.5017,1.6346,10.3048,41.5951,-0.0293,0.0833,0.1137,258.5312
19:44:10:538,1.1194,1.5257,10.7238,41.8668,-0.0658,0.193,0.2692,258.4531
19:44:10:557,1.8006,1.3785,11.0925,40.8464,-0.1073,0.3658,0.3714,258.3281
19:44:10:578,1.8305,1.1534,11.3367,40.6855,-0.1177,0.4337,0.3248,258
19:44:10:600,0.886,1.0086,11.1715,41.6055,-0.1369,0.4518,0.1874,257.5625
19:44:10:618,-0.4608,0.7823,11.0673,42.374,-0.2171,0.4825,0.1129,257.1406
19:44:10:639,-0.9384,0.4794,10.9811,41.8786,-0.5555,0.3243,0.4633,256.8906
19:44:10:660,-0.3267,0.1957,11.4001,42.4503,-0.6629,0.1741,0.6319,256.7188
19:44:10:685,0.6609,-0.0569,12.1483,43.2403,-0.5103,-0.0568,0.6388,256.4062
19:44:10:699,1.4785,-0.0856,11.8502,44.2888,-0.1371,-0.2387,0.4828,255.8281
19:44:10:720,1.3361,0.3166,10.312,44.6129,0.1824,-0.1471,0.3446,254.375
19:44:10:738,0.3784,0.8889,8.4792,44.7378,0.2016,0.2276,0.422,254.375
19:44:10:758,-0.523,1.1738,7.3455,45.0291,-0.0839,0.5299,0.6689,253.8281
19:44:10:779,-0.8678,0.8398,7.2306,44.3571,-0.4671,0.4478,0.8873,253.4531
19:44:10:803,-0.5793,0.6279,7.804,45.2572,-0.7737,0.247,1.0197,252.9844
19:44:10:819,-0.134,0.4998,8.8467,46.8756,-0.8461,0.1493,1.0356,252.1719
19:44:10:838,0.3197,0.58,9.7146,46.4954,-0.6503,0.1797,0.9869,251.1094
19:44:10:856,0.4742,0.574,9.9875,46.1054,-0.2839,0.2564,0.9134,249.9688
19:44:10:880,0.5065,0.7392,9.3064,46.5368,0.0764,0.2433,0.8468,248.7344
19:44:10:901,0.6322,1.1091,8.2996,46.1555,0.2565,0.2079,0.8077,247.5781
19:44:10:918,0.7268,1.3701,7.4365,45.9584,0.2631,0.0827,0.7688,246.5156
19:44:10:936,0.6897,1.5736,7.0056,46.235,0.143,-0.0568,0.7656,245.5938
19:44:10:957,0.8321,1.7041,7.4928,46.386,0.0128,-0.0265,0.8031,244.2344
19:44:10:977,1.1864,1.6119,8.7509,48.4899,0.0194,0.0393,0.8207,243.4062
19:44:11:000,1.5695,1.503,9.7625,46.1459,0.1529,0.1011,0.7922,242.5156
19:44:11:020,1.9945,1.6107,10.1731,47.7009,0.2839,0.1413,0.7225,241.5781
19:44:11:038,2.3285,1.7149,10.2353,48.0366,0.3747,0.0505,0.6117,240.6562
19:44:11:059,2.7295,1.9698,10.0629,48.6562,0.4128,-0.1503,0.4647,239.8281
19:44:11:084,2.9965,2.2104,10.1276,47.4882,0.4237,-0.3248,0.3107,239.0625
19:44:11:101,3.0827,2.4978,10.0713,47.2366,0.3883,-0.353,0.1911,238.4531
19:44:11:120,3.2107,2.724,10.2748,47.9656,0.3164,-0.2182,0.1105,238.0781
19:44:11:138,3.267,2.6654,10.9632,48.713,0.2975,-0.059,0.0495,237.8281
19:44:11:159,3.5076,2.5085,11.5988,48.6364,0.3611,0.051,-0.0283,237.6875
19:44:11:188,3.6549,2.1913,11.521,50.5816,0.4096,0.0188,-0.1324,237.625
19:44:11:203,3.5411,1.8813,10.4544,49.1466,0.2338,-0.1136,-0.2035,237.6094
19:44:11:217,3.6573,1.4982,9.5697,50.3148,-0.2131,-0.1711,-0.2699,237.6562
19:44:11:237,3.7231,0.9595,10.3862,51.3754,-0.6128,-0.1383,-0.382,237.8125
19:44:11:257,3.7051,0.4387,12.0956,49.4372,-0.6775,-0.1548,-0.529,238.0469
19:44:11:277,3.8057,0.1395,13.0198,49.5724,-0.3934,-0.3048,-0.7468,238.5625
19:44:11:302,3.7063,0.1287,12.2393,51.3314,-0.0232,-0.37,-0.995,239.0781
19:44:11:320,2.9965,0.4244,10.549,48.9412,0.1244,-0.0936,-1.1008,239.75
19:44:11:338,1.2271,0.4651,8.6659,52.484,0.0208,0.2092,-1.0368,240.7812
19:44:11:357,0.9793,0.1921,8.6803,49.0201,-0.2221,0.2657,-0.8976,242.0312
19:44:11:377,1.1409,0.0736,9.2573,49.3687,-0.4538,0.0918,-0.7945,243.2656
19:44:11:403,1.0919,0.076,9.7996,51.7159,-0.5252,-0.109,-0.7801,244.2969
19:44:11:420,1.0081,0.1957,9.4141,49.6279,-0.3758,-0.2933,-0.8065,245.2344
19:44:11:436,1.0428,0.7272,8.9006,50.6439,-0.1502,-0.4172,-0.8227,246.1094
19:44:11:456,1.1302,0.9906,8.041,50.6462,0.086,-0.2984,-0.7971,246.9688
19:44:11:478,1.3445,1.2827,7.245,50.7135,0.2586,-0.1413,-0.7322,247.9219
19:44:11:501,1.1912,1.4467,6.7039,51.0305,0.3236,-0.0265,-0.7311,248.8906
19:44:11:518,1.2092,1.6418,6.7985,51.1578,0.2719,0.0273,-0.6992,249.7188
19:44:11:536,1.3923,1.6538,7.3826,51.5026,0.1696,0.0364,-0.624,250.5625
19:44:11:557,1.597,1.5592,7.9429,50.3839,0.1095,0.1091,-0.55,251.7812
19:44:11:577,1.5025,1.5257,8.302,51.5094,0.1023,0.2167,-0.5402,252.4688
19:44:11:604,0.9937,1.6825,9.1256,50.247,0.0679,0.3434,-0.5697,253.0938
19:44:11:622,0.5568,1.7807,10.1503,51.7801,0.0637,0.409,-0.5508,253.7031
19:44:11:638,0.7998,1.8789,10.1192,51.7801,0.1819,0.3522,-0.4611,254.0156
19:44:11:656,1.2607,2.0333,9.2992,51.3596,0.3132,0.2428,-0.3868,254.6094
19:44:11:676,0.9171,2.0045,9.2693,50.8042,0.282,0.262,-0.4025,255.1719
19:44:11:702,0.4359,1.7041,9.9432,51.5137,0.1353,0.4047,-0.4296,255.6406
19:44:11:719,-0.0107,1.3138,11.0003,51.6043,0.0029,0.5499,-0.4587,256.0625
19:44:11:736,-0.6284,0.7979,11.8406,51.8757,-0.0543,0.5067,-0.5213,256.5312
19:44:11:757,-0.9001,0.683,12.3159,51.3161,-0.0479,0.3192,-0.5396,257
19:44:11:777,-1.3526,0.6267,11.8801,52.9158,0.0072,0.2092,-0.5119,257.5312
19:44:11:802,-1.4628,0.6698,11.266,52.107,-0.0312,0.2127,-0.3687,258.0781
19:44:11:819,-1.537,0.4806,11.6922,51.9533,-0.2759,0.3123,-0.2014,258.9531
19:44:11:836,-1.5741,0.3382,12.7397,51.575,-0.5241,0.2337,-0.0834,259.3594
19:44:11:857,-1.1,0.5357,12.687,50.8846,-0.4567,-0.153,0.0186,259.5312
19:44:11:878,-0.9013,0.9296,11.0961,52.3481,-0.0969,-0.5439,0.0521,259.5625
19:44:11:902,-1.3335,1.3055,8.9365,49.9162,0.2464,-0.6473,0.0678,259.5156
19:44:11:921,-1.3502,1.6251,7.5754,50.0732,0.3012,-0.3967,0.2117,259.4844
19:44:11:938,-1.0342,1.5377,7.5071,51.4788,0.1012,0.0433,0.4572,259.4531
19:44:11:957,-0.4512,1.2169,7.9393,50.9604,-0.1523,0.2449,0.6977,259.25
19:44:11:978,0.382,0.8913,8.0147,49.5805,-0.319,0.0321,0.8375,258.7656
19:44:12:001,1.2439,0.8015,7.9165,51.9061,-0.3904,-0.358,0.8498,257.9531
19:44:12:018,1.6737,0.9343,8.0183,51.6513,-0.3606,-0.5887,0.7534,256.9688
19:44:12:037,1.6629,1.1726,7.8651,50.9379,-0.188,-0.4273,0.6069,255.9844
19:44:12:059,1.196,1.4754,7.5203,49.6805,0.0402,-0.0787,0.4378,255.1719
19:44:12:078,0.6382,1.7101,7.3072,49.8343,0.2072,0.1578,0.3201,254.4844
19:44:12:103,0.3569,1.9136,6.9038,51.3322,0.355,0.173,0.3941,254.2188
19:44:12:119,0.3341,2.2655,6.4477,51.2122,0.1965,0.226,0.4492,254.2188
19:44:12:139,0.4347,2.3792,6.966,49.0013,-0.061,0.2417,0.5254,253.6406
19:44:12:157,0.3533,2.1087,8.144,50.785,-0.2365,0.0886,0.5629,252.8281
19:44:12:177,0.2719,2.0273,9.4393,49.2061,-0.2738,-0.1314,0.5539,252.3281
19:44:12:202,0.449,2.0165,10.4867,50.3764,-0.1585,-0.4065,0.5688,251.7188
19:44:12:219,1.1158,1.8884,10.883,50.5636,0.0666,-0.463,0.5065,251.0625
19:44:12:236,1.949,1.91,10.112,49.4272,0.1127,-0.3825,0.3392,250.4219
19:44:12:256,2.2219,1.9339,9.954,51.1119,-0.0583,-0.3484,0.0963,249.8125
19:44:12:342,2.1381,2.0512,10.2868,50.0275,-0.4527,-0.6374,-0.0967,249.2656
19:44:12:342,1.4091,1.4467,11.7748,49.6774,-0.735,-1.1591,-0.0936,248.8906
19:44:12:343,2.0412,1.5114,13.4388,51.3026,-0.5689,-1.255,-0.1655,248.8125
19:44:12:343,2.6385,1.3785,13.6662,50.014,-0.2701,-0.9474,-0.2131,248.9375
19:44:12:361,3.2826,1.2001,13.3394,49.4317,0.0093,-0.5759,-0.2568,249.0938
19:44:12:375,3.826,1.0959,12.6415,50.2905,0.1984,-0.1343,-0.3425,249.3281
19:44:12:396,3.9888,0.9798,12.1627,51.1528,0.3017,0.3717,-0.4182,249.75
19:44:12:419,3.8859,0.7859,11.7569,49.7386,0.3824,0.6518,-0.5229,250.0938
19:44:12:436,3.4095,0.5776,10.6136,48.6964,0.3609,0.4175,-0.6238,250.5
19:44:12:457,2.4362,1.1175,8.7641,49.0664,0.0149,-0.2041,-0.549,251
19:44:12:478,1.2774,1.2755,6.9816,48.826,-0.7039,-1.1716,-0.2227,251.6406
19:44:12:504,2.696,0.8553,7.1911,48.5256,-1.3396,-2.4401,-0.0927,252.3438
19:44:12:520,3.8296,0.2795,9.7852,48.8772,-1.334,-2.7346,-0.3292,252.8125
19:44:12:537,3.1497,-0.009,10.9093,48.7752,-0.6405,-2.1996,-0.534,253.0156
19:44:12:562,3.7889,0.5609,9.0777,49.5826,-0.1949,-0.557,-0.9554,253.375
19:44:12:577,2.2183,-0.5142,8.0746,47.8236,-0.0088,0.4971,-0.8403,253.9531
19:44:12:596,3.1317,0.4112,9.48,49.503,0.3169,0.6774,-0.5849,254.8281
19:44:12:618,3.0024,-0.1371,10.0318,49.1974,0.7577,0.5954,-0.4941,255.4375
19:44:12:638,3.3999,-0.155,8.7174,49.6799,0.9454,0.5048,-0.6595,256.3906
19:44:12:657,3.5495,0.5237,6.9996,47.9076,0.73,0.6707,-0.7716,257
19:44:12:678,2.8947,1.2923,6.7111,48.3261,0.4844,0.8702,-0.6488,257.4844
19:44:12:700,1.5216,1.2612,8.065,47.2712,0.4437,1.1208,-0.3119,258.5469
19:44:12:717,1.354,1.0337,8.5642,47.9972,0.4538,1.3797,0.0202,259.2812
19:44:12:736,2.945,0.7404,7.4557,48.8817,0.3329,1.2311,0.2647,259.7812
19:44:12:756,3.6034,1.0038,8.1093,49.3166,0.0719,0.3016,0.3531,259.8438
19:44:12:778,3.1198,0.7308,9.2178,47.194,-0.1656,-0.1961,0.2308,259.5938
19:44:12:802,2.7798,0.6075,9.9013,47.0603,-0.2431,0.0667,0.1685,259.1406
19:44:12:819,3.0827,0.4208,10.2162,47.7393,-0.184,0.5315,0.1944,258.8125
19:44:12:838,3.0443,0.0652,10.9177,48.3376,-0.1883,0.7672,0.1304,258.6094
19:44:12:855,3.8045,0.3621,11.2169,45.9612,-0.183,0.6676,-0.0307,258.3906
19:44:12:876,2.0124,0.3741,10.4065,46.7357,-0.1609,0.4819,-0.4999,258.1562
19:44:12:904,1.1709,0.9032,9.8199,47.5558,-0.2479,0.34,-0.726,258.0312
19:44:12:920,0.388,0.8434,9.2968,46.1926,-0.3569,0.1107,-0.5918,258.25
19:44:12:937,0.2958,0.6542,8.5103,46.8458,-0.5169,0.2106,-0.3814,259.0312
19:44:12:958,-0.0957,0.3825,8.7078,46.8623,-0.8365,0.1544,-0.2179,259.7812
19:44:12:976,0.1797,-0.4004,11.2277,45.3801,-1.2133,-0.3532,0.0516,260.4844
19:44:13:002,0.862,-0.6243,13.173,48.0725,-1.3321,-1.2491,0.2037,260.7188
19:44:13:021,0.5448,-0.2675,12.7337,45.2843,-0.861,-1.3993,0.192,260.6406
19:44:13:036,0.3066,0.1179,10.6459,47.4932,-0.2533,-0.8164,0.2836,260.4062
19:44:13:057,0.2515,0.1718,8.9592,45.8704,0.0945,-0.0571,0.4596,260.1875
19:44:13:083,1.123,-0.2675,8.454,46.4527,0.078,0.4548,0.6782,259.8594
19:44:13:100,1.8401,-0.7153,8.9688,44.3336,-0.0993,0.4159,0.7456,259.3594
19:44:13:115,2.0759,-0.8254,9.2956,46.2282,-0.2799,0.054,0.6676,259
19:44:13:135,2.2411,-0.4866,9.2896,45.5374,-0.3646,-0.369,0.5874,258.1562
19:44:13:156,2.7834,0.0317,8.909,45.2402,-0.3276,-0.452,0.5789,257.3438
19:44:13:177,3.2024,-0.0712,9.2609,45.4902,-0.2013,-0.1807,0.5549,256.6719
19:44:13:203,3.3197,0.0293,9.6009,46.4367,0.0439,0.5248,0.4258,256
19:44:13:221,2.4302,0.428,8.8072,45.1641,0.4248,1.1586,0.2061,255.3438
19:44:13:236,1.4043,0.9751,7.8998,46.3262,0.6807,1.5336,0.0764,254.7656
19:44:13:256,0.7256,1.3521,7.9716,46.0988,0.6935,1.5672,0.0657,254.375
19:44:13:277,0.0707,1.7005,8.3786,47.1538,0.6141,1.3725,0.095,254.3125
19:44:13:302,-0.4991,1.9016,8.788,44.8773,0.5784,1.2031,0.1722,254.2656
19:44:13:318,-0.9145,1.9399,9.2789,44.6898,0.5609,1.1195,0.2876,254.2031
19:44:13:336,-0.6583,1.9208,9.6344,45.0888,0.5502,1.0266,0.4479,254.0312
19:44:13:356,-0.4859,1.886,9.693,44.9094,0.5164,0.8228,0.5262,253.7188
19:44:13:377,-0.2453,1.9519,9.8367,43.2077,0.436,0.3709,0.5126,253.2656
19:44:13:402,0.2826,2.1961,9.4871,44.2178,0.3619,-0.1788,0.4705,252.6875
19:44:13:419,0.7663,2.4666,9.3243,44.9156,0.2431,-0.6275,0.3736,252.125
19:44:13:436,1.0835,2.3398,10.106,44.3715,-0.0756,-0.5897,0.1605,251.6562
19:44:13:456,1.3313,1.9303,12.0082,43.8837,0.041,-0.1804,0.0202,251.6562
19:44:13:476,1.6605,2.0129,13.0964,43.6799,0.3774,0.0649,-0.1905,251.2812
19:44:13:502,0.8956,2.0896,12.0382,45.0049,0.5603,0.0761,-0.2869,251.0156
19:44:13:519,0.3389,2.5301,10.2784,43.9531,0.3478,-0.0305,-0.2334,250.8438
19:44:13:536,0.2551,2.5684,9.6811,43.2481,-0.1047,-0.1162,-0.1047,251.0781
19:44:13:555,0.4849,2.001,11.0434,43.0826,-0.441,-0.0507,0.0322,251.5938
19:44:13:575,1.2846,0.9499,13.2221,42.4556,-0.3981,0.0468,0.0298,251.7188
19:44:13:598,2.2435,0.0341,14.0409,42.1869,-0.0652,0.0319,-0.175,251.8438
19:44:13:619,2.0041,-0.3885,12.3698,42.3644,0.228,-0.2278,-0.4126,251.7656
19:44:13:635,2.2758,0.4699,9.8439,42.3213,0.2226,-0.427,-0.5601,251.7031
19:44:13:659,1.39,0.4711,7.9548,42.2649,-0.0754,-0.5056,-0.5942,251.9062
19:44:13:674,0.8884,0.8111,8.0782,42.8772,-0.3782,-0.553,-0.4856,252.4062
19:44:13:696,0.7088,0.4914,9.3698,40.9455,-0.4727,-0.4414,-0.3143,253.0781
19:44:13:720,0.9638,0.3573,10.78,42.6796,-0.2509,-0.1266,-0.1745,253.75
19:44:13:739,1.2499,0.4016,9.9684,42.317,-0.0629,0.2247,-0.1231,254.2969
19:44:13:755,1.1086,0.5884,8.8467,42.317,-0.0346,0.5179,-0.0909,254.6562
19:44:13:775,0.9422,0.5573,9.3698,43.1158,0.1081,0.646,-0.0786,254.8438
19:44:13:797,1.0165,0.5537,9.8044,41.4676,0.4517,0.5642,-0.1585,254.9688
19:44:13:820,0.8596,0.8134,8.6588,41.7435,0.686,0.5259,-0.2307,255.125
19:44:13:837,0.7615,1.1079,7.5,41.7435,0.7231,0.5368,-0.2584,255.2031
19:44:13:859,0.6382,1.3102,6.5842,41.4929,0.608,0.4252,-0.2603,255.4531
19:44:13:874,0.5556,1.4347,6.5231,41.2925,0.4456,0.2108,-0.22,255.7656
19:44:13:898,0.6861,1.4,7.0522,42.4153,0.3443,0.0593,-0.191,256.0938
19:44:13:918,1.1146,1.2947,7.743,40.6139,0.339,0.0806,-0.2315,256.3906
19:44:13:937,1.214,1.1594,8.5678,40.5269,0.408,0.2393,-0.3095,256.6406
19:44:13:956,0.8932,1.1845,8.7988,40.9537,0.4431,0.3719,-0.3644,256.9062
19:44:13:974,0.449,1.26,8.9772,40.1048,0.351,0.4649,-0.3271,257.2188
19:44:13:996,0.2156,1.2671,9.6057,40.7604,0.2661,0.5219,-0.2704,257.6406
19:44:14:017,-0.4751,1.2264,9.9564,41.7942,0.1598,0.6487,-0.1473,258.0469
19:44:14:039,-1.2796,1.4192,10.1264,38.8968,-0.016,0.899,0.0921,258.3594
19:44:14:055,-1.6543,1.4048,10.7692,42.6182,-0.1244,1.1552,0.331,258.5938
19:44:14:076,-1.7955,1.3138,11.3498,40.7557,-0.0155,1.0953,0.4623,258.625
19:44:14:105,-1.0737,0.7488,10.6076,40.4307,0.1174,0.5275,0.4383,258.4531
19:44:14:121,-0.8343,1.4551,9.1903,40.9664,-0.1358,0.2606,0.0569,257.9688
19:44:14:139,-2.594,0.7356,7.7106,39.3572,-0.7111,-0.0523,-0.0773,257.0469
19:44:14:156,-3.1112,0.2436,9.9384,40.9178,-1.3228,-0.2859,0.005,256.7188
19:44:14:175,-2.831,-0.4507,12.8893,41.8918,-1.6647,-0.1671,0.1272,256.7188
19:44:14:196,-1.8027,-0.738,13.9416,41.0927,-1.4205,0.0891,0.2673,256.5938
19:44:14:217,-0.8403,0.1359,12.4296,41.4116,-0.7156,-0.0456,0.2588,256.3125
19:44:14:237,-1.8698,0.6171,8.6169,42.2114,0.0101,-0.3397,0.0212,255.8438
19:44:14:255,-2.2624,1.2803,6.2825,40.865,0.1188,-0.3269,0.0071,255.3438
19:44:14:279,-2.0661,1.2001,6.5099,40.2967,-0.2381,-0.1604,0.1904,255.125
19:44:14:302,-0.5613,0.4352,7.8782,41.8161,-0.6075,-0.1884,0.4093,255.1875
19:44:14:319,-0.3626,0.5525,9.0107,39.4508,-0.7579,-0.5061,0.4077,255.0938
19:44:14:335,0.0636,0.4076,9.1424,39.5419,-0.657,-0.8065,0.3696,254.6875
19:44:14:409,0.3568,0.902,9.219,42.1802,-0.4834,-0.9104,0.3368,254.0625
19:44:14:410,-0.1196,1.0684,8.4516,43.2063,-0.2059,-0.5261,0.1866,253.6094
19:44:14:410,-0.3183,1.4072,7.6927,41.8779,-0.0123,-0.1389,0.2647,253.0781
19:44:14:425,-0.1663,1.2911,7.7466,41.5654,0.0344,0.1123,0.3786,252.6562
19:44:14:433,-0.0011,1.2576,8.0159,41.9436,-0.0107,0.0976,0.4639,252.3594
19:44:14:454,-0.1603,1.309,8.2877,41.4386,-0.0408,-0.0345,0.4524,251.9375
19:44:14:480,-0.3075,1.3402,8.8383,42.104,-0.1132,-0.2427,0.4508,251.4062
19:44:14:501,-0.1627,1.3246,9.2465,41.2048,-0.1513,-0.4065,0.4897,250.9062
19:44:14:520,-0.0202,1.424,9.365,41.8837,-0.1462,-0.5844,0.4969,250.375
19:44:14:535,0.0157,1.4072,9.6978,41.9366,-0.1742,-0.7338,0.4697,249.7969
19:44:14:565,0.6549,1.5221,10.5645,41.8708,-0.2211,-0.7109,0.4561,249.2188
19:44:14:574,0.9003,1.4276,11.351,43.1849,-0.167,-0.7232,0.3717,248.6875
19:44:14:596,1.1302,1.6071,11.5258,42.1423,0.0208,-0.6845,0.3049,248.4219
19:44:14:636,1.2894,1.6047,11.7628,41.7616,0.1883,-0.5229,0.2449,247.9219
19:44:14:639,1.6437,1.6358,12.7528,42.9532,0.2972,-0.2417,0.1525,247.5469
19:44:14:658,1.5168,1.4994,13.3933,42.9313,0.4725,0.1895,-0.0134,247.2344
19:44:14:675,1.2774,1.6394,12.7636,41.7547,0.7201,0.5538,-0.2035,247.0156
19:44:14:695,0.9243,1.8334,12.1184,43.296,0.841,0.5451,-0.3567,246.9531
19:44:14:719,0.9398,1.6502,11.4935,44.1552,0.7484,0.4295,-0.3828,247.2656
19:44:14:738,1.2092,1.3055,11.9149,42.9565,0.506,0.2167,-0.3878,247.7188
19:44:14:754,1.3181,0.6985,12.8091,43.3891,0.3052,0.1637,-0.4161,248.2031
19:44:14:778,1.4797,0.2245,13.1347,44.3688,0.3388,0.1789,-0.4435,248.6562
19:44:14:802,1.8592,0.179,11.46,42.2559,0.6144,0.1488,-0.477,249.1562
19:44:14:820,1.9849,0.5944,8.8407,44.2163,0.8344,-0.0105,-0.5332,249.6875
19:44:14:836,1.9215,1.1055,7.2198,43.7896,0.2807,-0.0968,-0.5689,250.25
19:44:14:859,1.5611,1.1115,7.3144,44.33,-0.1641,0.0332,-0.5575,250.25
19:44:14:875,1.0631,0.9786,8.9197,43.4123,-0.3627,0.2353,-0.5146,250.9375
19:44:14:896,0.8728,0.647,10.4424,44.7283,-0.2517,0.4228,-0.492,251.6562
19:44:14:919,0.777,0.4759,10.7645,45.5474,0.0309,0.4321,-0.5295,252.9219
19:44:14:939,0.4909,0.7105,9.2609,45.2552,0.2232,0.2585,-0.562,253.4688
19:44:14:957,0.3772,1.2564,7.4198,43.7379,0.2112,0.1099,-0.5726,253.4688
19:44:14:975,0.3233,1.5078,7.1564,45.4888,0.2232,0.0995,-0.5769,253.9844
19:44:14:996,-0.0035,1.485,7.4066,44.0852,0.359,0.1504,-0.5766,255.5312
19:44:15:022,-0.2082,1.5724,7.1648,47.1103,0.4791,0.1701,-0.5394,256.1719
19:44:15:038,-0.1316,1.5939,7.0151,44.4975,0.5092,0.0601,-0.4967,256.8594
19:44:15:058,-0.0418,1.5437,7.0259,47.1678,0.4445,-0.2371,-0.4581,257.2031
19:44:15:075,0.1749,1.6107,6.8427,47.0057,0.2541,-0.6385,-0.427,257.8594
19:44:15:095,0.3676,1.6718,7.0893,44.9589,0.0328,-0.92,-0.4022,258.4531
19:44:15:120,0.3628,1.7412,7.7669,44.7751,-0.1063,-0.9178,-0.3468,259.0469
19:44:15:138,0.449,1.7891,8.5869,46.6063,-0.1473,-0.6611,-0.2653,259.6094
19:44:15:155,0.5819,1.6346,9.0167,46.8175,-0.1766,-0.3676,-0.1854,260.1406
19:44:15:179,0.6406,1.4994,9.3997,46.8319,-0.3273,-0.2438,-0.1242,260.5781
19:44:15:194,0.6513,1.2683,10.1563,47.5444,-0.5505,-0.3215,-0.1042,260.9219
19:44:15:215,0.6789,1.0277,11.5773,47.7788,-0.6642,-0.4779,-0.1332,261.1406
19:44:15:238,0.5197,0.8865,13.3586,46.8037,-0.4831,-0.4664,-0.1947,261.2656
19:44:15:255,-0.2656,0.8158,13.8494,48.255,-0.1025,-0.2558,-0.175,261.5
19:44:15:275,-0.9037,0.8972,12.6631,47.9918,0.1406,0.1171,-0.0632,261.7031
19:44:15:296,-1.1563,0.7715,11.4959,48.9198,0.176,0.4263,0.0513,261.8281
19:44:15:319,-1.4484,0.5154,10.6196,48.0798,0.0599,0.3685,0.1866,261.9688
19:44:15:336,-1.2449,0.3789,10.1527,48.8812,-0.1782,0.1624,0.3352,261.9688
19:44:15:354,-0.5637,-0.076,10.7549,48.6301,-0.3105,-0.0891,0.4133,261.8438
19:44:15:376,0.3174,-0.513,11.3283,47.4196,-0.1893,-0.2478,0.364,261.5156
19:44:15:397,1.0045,-0.2041,11.1786,47.9698,0.0735,-0.0622,0.1544,261.0625
19:44:15:420,0.1486,0.3765,10.0294,48.3962,0.2474,0.3677,0.0636,260.5781
19:44:15:436,-0.9947,0.9786,8.6575,48.1335,0.168,0.9088,0.1888,260.2969
19:44:15:456,-1.689,1.1965,8.1129,49.385,-0.0898,1.2833,0.4186,260.2031
19:44:15:479,-1.5214,1.0002,8.6887,48.6123,-0.2906,1.2915,0.5589,260.0781
19:44:15:503,-1.0976,0.8338,9.3339,49.863,-0.2613,1.0665,0.5464,259.6875
19:44:15:521,-0.7636,1.0445,9.3028,47.8284,-0.0533,0.8646,0.4609,259.0312
19:44:15:539,-0.8438,1.5437,6.9948,49.8042,0.1401,0.7525,0.4016,258.2812
19:44:15:555,-0.93,1.7113,6.3412,49.017,0.1222,0.545,0.3821,257.9375
19:44:15:576,-0.6236,1.7591,6.2466,49.8148,0.0099,0.238,0.4135,257.1562
19:44:15:596,-0.4332,1.8848,6.4788,49.7214,-0.0788,-0.0209,0.4423,256.7031
19:44:15:621,-0.1962,1.9698,6.7973,49.3108,-0.1151,-0.154,0.4841,256.2344
19:44:15:636,0.1198,2.0728,7.0103,49.6565,-0.11,-0.1708,0.5451,255.7656
19:44:15:655,0.2276,2.1949,7.6508,49.066,-0.143,-0.0973,0.5752,255.2188
19:44:15:674,0.3221,2.1362,8.9652,49.7561,-0.2061,0.0316,0.5986,254.625
19:44:15:694,0.479,1.9758,10.1348,50.523,-0.1896,0.0979,0.6015,254
19:44:15:719,0.5352,2.0644,10.719,49.7317,-0.0818,-0.0587,0.5539,253.3125
19:44:15:736,0.6501,2.3002,10.719,51.0356,0.0373,-0.329,0.4977,252.5938
19:44:15:754,0.8692,2.4978,10.8925,49.8417,0.0674,-0.508,0.4772,251.8906
19:44:15:774,1.0667,2.3565,11.7569,51.8365,-0.0234,-0.5447,0.4663,251.3438
19:44:15:795,1.3229,1.9818,13.1742,50.1621,-0.127,-0.4968,0.4399,250.8125
19:44:15:819,1.6605,1.7819,13.6423,50.9368,-0.0591,-0.4752,0.3528,250.3125
19:44:15:839,1.8113,2.0129,12.7684,50.073,0.1356,-0.5658,0.2021,249.5938
19:44:15:854,1.6078,2.2919,11.7281,51.8246,0.2117,-0.6603,0.0434,249.2031
19:44:15:874,1.4833,2.1063,11.1092,51.6515,0.0954,-0.6345,-0.0211,249.0312
19:44:15:895,1.8269,1.3078,11.8766,51.6515,-0.1779,-0.4805,0.0005,249.0469
19:44:15:921,2.6313,0.2221,13.3286,50.7749,-0.3811,-0.2646,-0.0072,249.1094
19:44:15:942,3.3688,-0.3609,13.2245,51.634,-0.2471,-0.1948,-0.1694,249.125
19:44:15:959,3.0432,-0.003,11.1619,52.1903,0.118,-0.2819,-0.541,249.125
19:44:15:975,1.7814,0.7524,9.0191,51.3653,0.3204,-0.2603,-0.9133,249.2969
19:44:15:996,0.7232,1.145,7.9189,50.4298,0.224,0.0236,-1.0483,249.9531
19:44:16:021,0.2036,1.1187,8.1787,50.7432,-0.0386,0.2942,-0.9844,250.4531
19:44:16:037,-0.0502,0.993,9.0658,52.5863,-0.2639,0.3719,-0.8909,251.5938
19:44:16:056,0.0181,0.9248,10.1001,52.191,-0.3081,0.3296,-0.8123,252.7656
19:44:16:081,0.0492,0.8661,10.282,52.6009,-0.1292,0.341,-0.7737,253.7969
19:44:16:093,-0.0765,1.0457,9.4788,51.2451,0.1816,0.336,-0.7934,254.6875
19:44:16:117,-0.5099,1.2875,8.2673,52.1379,0.4543,0.2862,-0.8238,255.5469
19:44:16:139,-0.9624,1.5329,7.1169,51.7463,0.6128,0.1674,-0.7982,256.8906
19:44:16:156,-1.0857,1.734,6.3867,51.3027,0.6519,0.0327,-0.6954,257.8125
19:44:16:180,-0.8067,1.7915,6.0646,53.4015,0.6048,-0.076,-0.5258,258.7812
19:44:16:193,-0.3866,1.7041,6.1831,52.5599,0.4903,-0.1692,-0.3633,259.6406
19:44:16:215,-0.0909,1.6107,6.7745,51.4776,0.3438,-0.2928,-0.2461,260.2812
19:44:16:238,0.0073,1.5449,7.6281,52.2143,0.0762,-0.2121,-0.0674,260.7656
19:44:16:258,0.0576,1.424,8.63,51.8328,0.0213,-0.0512,0.0417,261.0938
19:44:16:276,0.2168,1.2145,9.4285,51.9858,0.0189,0.0436,0.1142,261.3281
19:44:16:294,0.4275,1.1151,10.1731,51.5857,0.0453,0.0585,0.1376,261.4219
19:44:16:323,0.3174,1.0995,10.3766,51.4409,0.0437,0.0233,0.1451,261.375
19:44:16:340,0.1354,1.1163,10.3275,51.7152,-0.0397,-0.0475,0.1661,261.2344
19:44:16:358,-0.0154,1.0289,10.6447,51.5593,-0.1435,-0.0723,0.1762,261.0938
19:44:16:376,-0.1507,0.8194,11.5234,53.1223,-0.1276,-0.1,0.1243,260.9219
19:44:16:394,-0.4704,0.7105,11.5773,50.3385,-0.0525,-0.1378,0.0668,260.5312
19:44:16:422,-0.7804,0.7715,10.6878,52.3174,-0.1057,-0.1833,0.0865,260.3906
19:44:16:489,-0.8786,0.9487,9.6847,51.2382,-0.3281,-0.2193,0.196,260.3594
19:44:16:489,-0.5948,1.0026,9.3159,52.4477,-0.6868,-0.1564,0.3174,260.2812
19:44:16:489,-0.2417,0.495,10.7178,51.5459,-0.9305,-0.1136,0.3493,260.1406
19:44:16:501,0.0576,-0.1969,13.495,51.7081,-0.7153,-0.0571,0.2311,259.8125
19:44:16:522,-0.0705,-0.2735,14.9986,52.3663,-0.094,0.0574,0.0543,259.3438
19:44:16:539,-1.1611,0.0557,13.2101,51.2498,0.4013,0.1775,0.0082,259.125
19:44:16:554,-2.3977,0.5788,9.8678,52.2517,0.3816,0.3197,0.2058,258.8125
19:44:16:575,-2.5401,0.9475,7.9046,51.4738,0.0469,0.3118,0.5113,258.75
19:44:16:594,-1.5789,0.7955,7.7346,49.8205,-0.248,0.1213,0.6615,258.7656
19:44:16:620,-0.681,0.6614,8.2721,51.7366,-0.3049,-0.1037,0.6303,258.5469
19:44:16:638,-0.347,0.8757,8.4529,51.7692,-0.1491,-0.1556,0.5382,257.9688
19:44:16:657,-0.5565,1.2528,7.8962,50.4758,0.0399,-0.0749,0.5291,257.1875
19:44:16:675,-0.4344,1.5221,7.0499,52.2622,0.1529,-0.0243,0.5517,256.4375
19:44:16:696,-0.2094,1.7747,6.2825,50.4161,0.1699,-0.0214,0.5531,255.8594
19:44:16:721,0.0049,2.0309,5.8898,50.1503,0.1254,-0.0358,0.5462,254.9375
19:44:16:736,-0.0011,2.226,6.006,51.2135,0.0623,-0.0238,0.5677,254.3281
19:44:16:754,-0.0322,2.3481,6.6093,50.5682,0.0261,0.0643,0.6194,253.75
19:44:16:777,0.024,2.4116,7.2091,51.864,-0.0091,0.1733,0.6956,253.125
19:44:16:793,0.1653,2.4463,7.822,50.7523,-0.0708,0.2066,0.7699,252.4531
19:44:16:814,0.5999,2.4104,8.6647,50.301,-0.1188,0.1395,0.7824,251.7344
19:44:16:838,1.0344,2.3074,9.5913,50.1974,-0.0956,-0.0092,0.7102,250.875
19:44:16:854,1.4474,2.4439,10.1898,50.6319,-0.0306,-0.1578,0.5992,249.9531
19:44:16:878,1.8293,2.6402,10.2377,50.2564,-0.0248,-0.2779,0.47,249.0781
19:44:16:893,2.2602,2.73,10.5669,48.916,-0.0748,-0.2702,0.3248,248.3594
19:44:16:914,2.2112,2.6857,11.6168,49.9104,-0.0527,-0.1527,0.2029,247.75
19:44:16:937,1.9586,2.3876,12.705,48.7627,0.0301,-0.063,0.1384,247.3125
19:44:16:955,2.1286,2.5181,12.2896,49.867,0.082,-0.105,0.0836,247.0469
19:44:16:981,2.2435,2.5265,11.9604,49.1428,-0.0075,-0.2153,0.0314,246.8594
19:44:16:993,2.3931,2.0034,12.3973,49.1068,-0.2125,-0.2592,0.017,246.75
19:44:17:016,2.5775,0.9152,13.9607,46.6482,-0.4242,-0.0536,0.0223,246.7031
19:44:17:039,2.9785,-0.1538,14.8178,48.2051,-0.376,0.1466,-0.0416,246.6875
19:44:17:054,3.3987,-0.2616,12.936,48.3508,0.0274,0.0462,-0.2704,246.6562
19:44:17:074,2.7415,0.428,9.5997,47.7781,0.4192,-0.1293,-0.6137,246.625
19:44:17:097,1.4725,0.999,7.8172,48.1624,0.3526,-0.0835,-0.8539,246.75
19:44:17:121,0.4047,0.9954,8.2733,47.8326,-0.0432,0.1054,-0.8749,247.2656
19:44:17:137,0.1809,0.4364,10.039,48.2217,-0.3952,0.3307,-0.7234,248.1719
19:44:17:154,0.6908,-0.2975,11.5857,46.3902,-0.4709,0.4609,-0.5921,249.1562
19:44:17:174,1.5983,-0.4734,11.0506,44.8007,-0.1822,0.4588,-0.6576,250.0625
19:44:17:194,0.6633,0.1071,9.8403,46.0066,0.2162,0.5996,-0.9671,250.7344
19:44:17:214,-0.6595,0.3909,9.608,47.0337,0.4746,0.8982,-1.1631,251.3281
19:44:17:237,-0.942,0.6075,8.0794,47.0281,0.7952,1.0598,-1.0882,252.2188
19:44:17:258,-1.1958,0.9044,6.1209,45.275,1.0045,0.9496,-0.9287,253.4844
19:44:17:274,-1.4735,1.1738,5.1093,45.6618,0.8826,0.5389,-0.7596,254.8125
19:44:17:294,-1.0905,1.2803,5.5343,43.7809,0.5332,0.0052,-0.5482,256.5
19:44:17:319,-0.6607,1.23,6.9265,46.2324,0.2245,-0.37,-0.382,257.4531
19:44:17:338,-0.3027,1.3066,7.579,44.4258,0.1537,-0.4542,-0.2917,258.1406
19:44:17:358,-0.3207,1.5975,7.7789,44.4132,0.2133,-0.2845,-0.2621,258.6094
19:44:17:374,-0.4668,1.752,8.2996,45.291,0.2282,-0.0329,-0.2296,259
19:44:17:396,-0.5182,1.9256,8.7102,44.3175,0.2043,0.0833,-0.17,259.3438
19:44:17:422,-0.4895,2.0405,9.1148,45.5441,0.1164,0.0606,-0.0991,259.625
19:44:17:439,-0.4081,1.9878,9.8882,44.1617,-0.0341,-0.0608,-0.0126,259.8438
19:44:17:456,-0.292,1.8968,10.5538,42.74,-0.1409,-0.2052,0.0516,259.9531
19:44:17:474,-0.4847,1.8346,11.181,44.6616,-0.1803,-0.2534,0.0745,259.9844
19:44:17:494,-0.7277,1.7244,11.1415,43.9132,-0.135,-0.226,0.0812,259.9219
19:44:17:521,-1.1694,1.643,10.288,45.2883,-0.0597,-0.166,0.0846,259.8281
19:44:17:542,-1.4137,1.3904,9.7254,42.634,-0.1174,-0.1242,0.1648,259.7969
19:44:17:558,-1.0031,1.0457,9.8439,43.0868,-0.3417,-0.1916,0.3075,259.7031
19:44:17:577,-0.5865,0.7596,10.0737,43.4646,-0.592,-0.3967,0.3943,259.5938
19:44:17:595,-0.5194,0.6183,10.5466,43.0929,-0.7971,-0.5306,0.4111,259.0938
19:44:17:621,-0.5446,0.3897,11.788,42.3995,-0.9273,-0.4643,0.4458,258.625
19:44:17:637,-0.2345,0.1215,12.5757,43.1921,-0.5752,-0.1088,0.4732,258.125
19:44:17:655,-0.4285,0.1814,12.1327,44.0402,-0.2522,-0.0504,0.4266,258.125
19:44:17:674,-1.0174,0.4615,9.9516,42.7621,-0.1707,-0.0611,0.4828,256.9375
19:44:17:693,-1.4615,0.7081,8.0111,43.487,-0.3872,-0.0779,0.6415,256.3594
19:44:17:713,-1.3191,0.4663,7.7011,45.036,-0.6227,-0.0611,0.8239,255.8438
19:44:17:737,-0.6966,0.1239,8.29,43.9777,-0.6866,-0.0395,0.9113,255.2812
19:44:17:754,0.1917,-0.0581,8.654,42.492,-0.5712,-0.0486,0.8751,254.5625
19:44:17:773,1.1517,0.015,8.6204,42.7317,-0.3553,-0.0385,0.6932,253.5625
19:44:17:794,1.621,0.2975,8.4744,44.0975,-0.1156,0.0745,0.4372,252.4531
19:44:17:820,1.3265,0.7057,8.0674,43.0547,0.053,0.1959,0.2396,251.4688
19:44:17:841,0.6777,1.1845,7.8124,44.508,0.1476,0.1954,0.1653,250.6406
19:44:17:855,0.3054,1.558,7.8639,42.3312,0.1944,0.1336,0.1962,249.9688
19:44:17:872,0.127,1.7556,7.9273,43.8717,0.1699,0.0484,0.2982,249.7812
19:44:17:895,0.285,1.7723,8.545,42.8817,0.131,0.0516,0.3778,249.4844
19:44:17:920,0.5927,1.716,9.9061,43.7347,0.1968,0.1813,0.3938,249.4844
19:44:17:938,0.5663,1.6251,11.0901,44.3346,0.4035,0.266,0.3699,249.1562
19:44:17:956,0.4203,1.5844,11.2205,43.7009,0.6341,0.2007,0.3435,248.75
19:44:17:973,0.2958,1.7292,10.4436,45.3977,0.7372,0.0542,0.3323,248.3125
19:44:17:996,0.2671,1.9639,9.5554,45.2034,0.6796,-0.1546,0.3339,247.9219
19:44:18:021,0.3796,2.2069,9.0047,45.2034,0.4788,-0.3487,0.3547,247.4375
19:44:18:037,0.5759,2.2763,9.0598,44.3305,0.2099,-0.431,0.3664,247.1406
19:44:18:055,0.7088,2.1614,10.2317,44.2339,0.0621,-0.3759,0.3637,246.8125
19:44:18:078,0.9398,1.8477,11.5438,45.7116,0.1305,-0.3429,0.3168,246.4688
19:44:18:092,1.3397,1.7879,11.4791,44.3007,0.2445,-0.4331,0.2202,246.0781
19:44:18:117,1.6162,2.0656,9.8403,45.5936,0.0783,-0.5354,0.135,245.7188
19:44:18:137,1.8149,2.2775,9.1663,44.0304,-0.3348,-0.4973,0.1115,245.4531
19:44:18:158,1.785,1.8717,10.1803,46.203,-0.7398,-0.3567,0.1499,245.2969
19:44:18:174,1.9706,0.8948,12.5864,45.7085,-0.8575,-0.1524,0.1501,245.2031
19:44:18:194,2.7008,-0.1682,15.3769,45.481,-0.4503,-0.0371,-0.0331,245.0625
19:44:18:216,3.2538,-0.6794,15.0046,47.4417,0.2221,-0.2233,-0.3996,244.8438
19:44:18:237,2.921,0.1251,11.205,46.4342,0.4328,-0.2166,-0.6707,244.7188
19:44:18:257,1.9837,0.9559,8.1488,46.9413,0.13,0.103,-0.696,244.7656
19:44:18:273,1.1015,1.1271,7.7861,46.3166,-0.2775,0.4124,-0.5817,245.25
19:44:18:293,0.6884,0.6626,9.3902,45.1694,-0.4786,0.5639,-0.4672,246.0156
19:44:18:314,0.7351,0.0461,11.1894,46.9495,-0.3768,0.4747,-0.4547,247.1562
19:44:18:336,0.522,0.1969,10.446,45.531,-0.0884,0.2731,-0.5287,247.6719
19:44:18:356,0.048,0.7021,8.9556,45.7785,0.1451,0.0689,-0.5833,248.125
19:44:18:373,-0.1687,1.2516,8.0686,46.8058,0.2663,-0.0592,-0.5689,248.6562
19:44:18:394,-0.2405,1.4431,8.0434,47.8419,0.3467,0.0074,-0.5061,249.2969
19:44:18:413,-0.6703,1.5042,8.0614,46.3268,0.4796,0.2132,-0.4565,249.9531
19:44:18:438,-0.9492,1.6335,7.3527,46.1062,0.6554,0.3459,-0.3777,250.5938
19:44:18:454,-0.6894,1.5341,6.9529,47.4597,0.7012,0.3227,-0.2286,251.1562
19:44:18:473,-0.2369,1.3761,7.2462,45.8611,0.5992,0.1842,-0.0837,251.6562
19:44:18:540,0.3712,1.1666,7.9034,46.9914,0.4748,0.0489,0.0276,252.0469
19:44:18:540,0.5747,0.9715,8.6001,44.739,0.3976,0.071,0.0559,252.25
19:44:18:540,0.3317,0.9643,8.97,45.6554,0.3965,0.2068,0.0282,252.3281
19:44:18:554,0.1881,0.9308,8.7246,45.9595,0.4125,0.3352,0.0484,252.2969
19:44:18:572,0.2419,0.9595,8.624,45.6872,0.3223,0.3,0.0987,252.2656
19:44:18:592,0.4047,0.8817,8.9473,47.093,0.1337,0.1528,0.1422,252.25
19:44:18:613,0.4514,0.8278,9.7086,46.8549,-0.0636,0.0726,0.1627,252.1094
19:44:18:635,0.4418,0.7703,10.531,45.5537,-0.1835,0.1373,0.1573,251.9531
19:44:18:654,0.2419,0.8326,10.9321,46.3065,-0.1955,0.2319,0.1166,251.75
19:44:18:672,-0.4285,0.8266,10.2545,47.1896,-0.1425,0.2377,0.0378,251.5469
19:44:18:694,-0.766,0.8278,9.3016,46.0047,-0.1641,0.1773,0.042,251.375
19:44:18:713,-0.9121,0.732,8.8084,46.0862,-0.3436,0.149,0.1195,251.2969
19:44:18:739,-1.1072,0.7332,8.9461,46.9417,-0.6133,0.1376,0.2236,251.2344
19:44:18:757,-1.622,0.3777,10.2701,46.6417,-1.1175,0.152,0.5001,250.8906
19:44:18:778,-1.6172,-0.0449,12.0585,47.0968,-1.0149,-0.0406,0.5957,250.4844
19:44:18:796,-1.1491,-0.2304,12.7061,45.2283,-0.6839,-0.3208,0.5659,249.8906
19:44:18:815,-1.0797,0.1754,11.4061,48.175,-0.4168,-0.398,0.532,249.1406
19:44:18:835,-1.5453,0.6147,9.6045,46.2304,-0.4003,-0.1956,0.6279,248.3594
19:44:18:856,-2.0266,0.7249,8.5785,47.8653,-0.5683,0.0292,0.8125,247.75
19:44:18:876,-2.1583,0.4794,8.6456,47.5699,-0.7936,0.0473,1.005,246.6719
19:44:18:905,-1.4436,0.0796,9.4129,48.2112,-0.9052,-0.1679,1.1001,245.6875
19:44:18:914,-0.2848,-0.2065,10.1048,48.9328,-0.8173,-0.467,1.0183,244.5156
19:44:18:938,0.3748,-0.009,10.1204,47.3578,-0.583,-0.5628,0.8697,243.1719
19:44:18:958,0.4754,0.4603,9.3794,49.0686,-0.3236,-0.3692,0.7797,241.9375
19:44:18:979,0.4071,0.8374,8.6001,48.6886,-0.1172,-0.1008,0.7387,240.8906
19:44:18:994,0.3461,1.0301,8.0698,49.4113,0.037,0.0747,0.7217,240.0156
19:44:19:013,0.2874,1.175,7.652,48.8653,0.1308,0.1158,0.7137,239.1562
19:44:19:035,0.3126,1.3378,7.3922,48.5942,0.1686,0.059,0.7294,238.3438
19:44:19:054,0.4215,1.4311,7.1037,49.0849,0.1358,0.0146,0.7475,238.3438
19:44:19:077,0.5807,1.5161,7.6101,48.6355,0.1087,0.0931,0.743,237.1719
19:44:19:092,0.7196,1.479,8.6839,49.7164,0.175,0.2753,0.7099,237.1719
19:44:19:113,0.4538,1.406,9.7122,48.298,0.3223,0.3839,0.6857,235.9062
19:44:19:136,0.2204,1.4922,10.2928,50.3513,0.4392,0.3696,0.6942,235.1094
19:44:19:154,0.4012,1.6023,10.4041,48.8176,0.4879,0.164,0.6734,234.3125
19:44:19:172,0.6489,1.8118,9.9468,48.6975,0.3947,-0.1277,0.6247,233.5469
19:44:19:191,0.8824,1.983,10.0031,48.1265,0.1904,-0.3072,0.5704,232.7812
19:44:19:212,1.2738,1.746,11.5438,50.2419,0.1249,-0.3373,0.4633,232.0938
19:44:19:236,1.5145,1.4635,12.9755,48.9747,0.273,-0.2986,0.3168,231.4219
19:44:19:254,1.7,1.3007,12.8666,49.9714,0.425,-0.3415,0.1571,230.7812
19:44:19:272,1.761,1.479,11.618,49.2955,0.3167,-0.3993,0.0172,230.3125
19:44:19:298,1.4797,1.564,11.3295,47.0358,0.0815,-0.3785,-0.0523,229.9844
19:44:19:311,1.038,1.4156,11.8335,49.9277,-0.0985,-0.0752,-0.0081,229.8438
19:44:19:332,0.856,0.738,12.9216,49.0916,-0.119,0.3445,0.0473,229.875
19:44:19:359,1.1936,-0.1838,14.0876,50.1827,0.1361,0.4755,-0.0096,229.9531
19:44:19:375,1.4821,-0.7105,13.4507,48.7361,0.5105,0.1986,-0.1764,229.9688
19:44:19:391,1.5348,-0.4399,10.2557,49.9196,0.5081,-0.1663,-0.3428,229.8594
19:44:19:411,1.2451,0.1203,7.737,50.407,0.0868,-0.2555,-0.4057,229.9688
19:44:19:436,0.9793,0.2077,8.0375,50.4061,-0.2993,-0.0313,-0.3966,230.3125
19:44:19:455,0.6286,-0.2292,9.5661,48.3779,-0.3854,0.247,-0.3873,230.7969
19:44:19:471,0.3652,-0.4196,10.0965,49.8084,-0.3084,0.4055,-0.3897,231.25
19:44:19:492,0.1438,-0.3166,9.5302,51.4624,-0.2674,0.349,-0.3828,231.6562
19:44:19:512,0.2407,-0.0437,9.1376,49.8446,-0.244,0.1733,-0.4169,232.0469
19:44:19:537,0.2994,0.149,9.4321,52.0064,-0.0839,0.0044,-0.4917,232.4219
19:44:19:554,0.0695,0.4244,9.1639,50.6708,0.1904,-0.0976,-0.5764,232.8438
19:44:19:575,-0.3279,0.8458,8.2685,51.1801,0.4163,-0.0385,-0.595,233.3438
19:44:19:596,-0.6511,1.2719,7.3599,49.3959,0.5561,0.1075,-0.5276,233.9219
19:44:19:611,-0.693,1.4395,6.838,50.4515,0.6397,0.205,-0.4249,234.6406
19:44:19:632,-0.4261,1.5269,6.3065,51.6323,0.632,0.2023,-0.3335,235
19:44:19:652,-0.0921,1.5952,6.2298,51.9786,0.5286,0.19,-0.2842,235.6562
19:44:19:673,0.0157,1.4886,6.8535,49.1548,0.424,0.1839,-0.2829,236.1562
19:44:19:692,-0.1663,1.491,7.9477,50.18,0.3846,0.3323,-0.2485,236.7812
19:44:19:711,-0.511,1.4168,8.7557,50.0123,0.3478,0.4617,-0.1591,237.125
19:44:19:732,-0.5829,1.3773,9.5183,50.4083,0.2274,0.4489,-0.0648,237.4531
19:44:19:752,-0.7241,1.3222,10.4281,52.1802,0.0338,0.3453,-0.0147,237.7031
19:44:19:773,-1.1144,1.0648,11.8095,50.697,-0.1563,0.2843,0.009,237.8125
19:44:19:794,-1.1778,0.8434,12.9073,51.4781,-0.212,0.2422,0.0481,237.8438
19:44:19:813,-1.1144,0.7548,12.9073,48.4639,-0.0996,0.1517,0.0519,237.8125
19:44:19:837,-1.3335,0.8158,11.357,50.4623,0.0914,0.0236,0.0045,237.7344
19:44:19:852,-1.5394,0.9918,9.8714,51.1432,0.0988,-0.0518,0.0031,237.625
19:44:19:871,-1.6878,0.7668,9.371,49.4769,-0.1531,-0.113,0.0966,237.5781
19:44:19:891,-1.6351,0.3609,9.608,49.1748,-0.4919,-0.1809,0.2447,237.6094
19:44:19:919,-1.4939,-0.015,10.859,49.9804,-0.7907,-0.1607,0.3746,237.5781
19:44:19:939,-0.8582,-0.5261,12.5996,51.3122,-0.8871,-0.0339,0.4982,237.1719
19:44:19:954,-0.7265,-0.4806,11.9376,50.7301,-0.6139,0.0313,0.482,236.9375
19:44:19:972,-1.2233,0.0904,9.6033,51.3314,-0.2458,-0.052,0.385,235.9844
19:44:19:991,-1.5813,0.3322,8.1093,50.9235,-0.1654,-0.072,0.4016,235.3906
19:44:20:012,-1.7333,0.2316,8.041,51.9559,-0.3206,-0.0281,0.5161,234.9219
19:44:20:033,-1.3394,0.0712,8.6145,50.5984,-0.4986,0.009,0.6705,234.4375
19:44:20:054,-0.5123,0.0389,8.8587,50.3394,-0.5659,-0.1042,0.7922,233.8438
19:44:20:072,0.2,0.2125,8.9628,52.4257,-0.5151,-0.3024,0.8002,233.0312
19:44:20:092,0.4287,0.4807,8.6264,51.4814,-0.3505,-0.4467,0.7158,232.0625
19:44:20:113,0.2707,0.9008,7.9824,50.0728,-0.139,-0.4409,0.6207,231.5625
19:44:20:139,0.218,1.1235,7.4832,50.0728,0.0224,-0.3333,0.5941,230.7031
19:44:20:156,0.2719,1.2145,7.2139,50.5519,0.1113,-0.2417,0.5997,229.9219
19:44:20:173,0.3652,1.3055,7.6472,51.5164,0.127,-0.2054,0.5989,229.25
19:44:20:192,0.3461,1.2588,8.2469,50.3559,0.1321,-0.1967,0.5906,228.5781
19:44:20:212,0.2395,1.4168,8.569,49.243,0.1779,-0.1817,0.5808,227.9531
19:44:20:238,0.0085,1.4299,9.316,50.4949,0.1782,-0.1146,0.5861,227.2812
19:44:20:255,0.0576,1.3318,9.9265,51.4699,0.187,-0.0893,0.625,226.3125
19:44:20:274,0.4179,1.3569,9.9696,49.6633,0.2256,-0.2174,0.6641,225.7031
19:44:20:292,0.9506,1.4395,9.9528,50.4396,0.2362,-0.4038,0.6519,225
19:44:20:311,1.5192,1.5904,10.1839,49.8595,0.2131,-0.5791,0.5829,224.2812
19:44:20:331,1.9119,1.6909,10.622,48.8762,0.2045,-0.6121,0.4697,223.5938
19:44:20:356,2.1453,1.7663,10.853,50.9201,0.245,-0.4712,0.3414,222.9844
19:44:20:374,2.1453,1.8286,11.1571,48.7626,0.2858,-0.2667,0.1951,222.4844
19:44:20:392,1.8987,1.8226,11.4073,50.5642,0.3081,-0.1245,0.0415,222.1562
19:44:20:412,1.7048,1.9603,11.0709,50.068,0.3302,-0.0422,-0.0674,221.9688
19:44:20:438,1.4139,1.9878,10.6124,49.7367,-0.0471,0.0151,-0.0903,221.9531
19:44:20:457,1.3445,1.728,11.3175,49.2652,-0.3294,0.05,-0.0206,222.0312
19:44:20:473,1.9286,1.0181,12.7217,48.8692,-0.3694,0.0505,-0.0294,222.2812
19:44:20:492,2.9103,0.3083,13.5776,48.8159,-0.0916,-0.1042,-0.2376,222.2812
19:44:20:513,3.34,0.2448,12.2812,47.5142,0.1822,-0.2158,-0.5428,222.2812
19:44:20:537,2.9486,0.7931,9.9612,47.6531,0.1449,-0.0765,-0.7319,222.2969
19:44:20:555,2.0651,1.1043,8.5151,47.3632,-0.1534,0.14,-0.758,222.5625
19:44:20:614,1.2152,0.9379,8.909,48.2496,-0.4338,0.3126,-0.6677,223.2188
19:44:20:615,0.8429,0.5333,10.2713,47.5441,-0.4772,0.3072,-0.5769,224.0156
19:44:20:615,1.0284,0.0269,11.2612,47.1751,-0.2799,0.0966,-0.5972,224.875
19:44:20:638,1.2631,-0.2065,10.9009,47.1151,-0.0192,-0.1841,-0.7362,225.5938
19:44:20:657,0.8094,-0.0784,9.4333,45.9613,0.082,-0.3199,-0.8486,226.2031
19:44:20:672,-0.3123,0.2173,8.6384,46.4625,0.0818,-0.2707,-0.778,226.8438
19:44:20:697,-1.0258,0.4088,8.5259,46.6473,0.123,-0.1327,-0.5559,227.6875
19:44:20:711,-0.6822,0.4124,8.8539,45.2112,0.2594,-0.0065,-0.3639,228.6875
19:44:20:732,-0.1016,0.185,8.8826,45.8931,0.4895,0.0175,-0.3223,229.5469
19:44:20:754,-0.1735,0.3729,8.0877,45.9979,0.6413,0.0002,-0.2818,230.2031
19:44:20:772,-0.468,0.6351,7.069,45.7196,0.6328,0.0257,-0.1591,230.625
19:44:20:791,-0.5206,0.8027,6.6201,44.0169,0.5428,0.0606,0.0034,231.3594
19:44:20:811,-0.2776,0.8733,6.6608,44.0383,0.3931,0.1011,0.1515,231.4844
19:44:20:831,0.1833,0.7225,7.5838,45.5507,0.2693,0.1621,0.2268,231.6094
19:44:20:853,0.4801,0.5178,8.7042,43.796,0.2136,0.1935,0.2383,231.4375
19:44:20:871,0.6837,0.5118,9.4871,44.276,0.1502,0.1821,0.2239,231.3125
19:44:20:891,0.7268,0.4687,10.0199,45.0517,0.0602,0.099,0.1941,231.0312
19:44:20:911,0.807,0.5166,10.294,42.3573,-0.0618,0.0388,0.1653,230.7656
19:44:20:932,0.9638,0.6063,10.6543,43.5445,-0.1625,0.0827,0.0977,230.5312
19:44:20:956,0.6645,0.5836,11.2995,43.5461,-0.1518,0.1565,-0.0051,230.3281
19:44:20:971,-0.1017,0.4172,11.3127,41.4524,-0.1079,0.2225,-0.0318,230.1562
19:44:20:993,-0.5972,0.4016,10.3814,43.6709,-0.1867,0.2769,0.0601,230.0781
19:44:21:017,-0.5697,0.3094,9.5685,42.6446,-0.3971,0.2327,0.1965,230.0938
19:44:21:039,-0.2345,0.2053,9.2202,42.3715,-0.6517,0.1488,0.2982,230.0625
19:44:21:055,-0.1304,0.0605,9.7361,42.4083,-0.8232,0.2364,0.3861,229.8906
19:44:21:073,-0.2896,-0.2149,10.7956,43.0051,-0.8277,0.422,0.4665,229.5312
19:44:21:097,-0.5254,-0.5058,11.7245,41.65,-0.6703,0.4273,0.5177,229.3281
19:44:21:110,-0.8103,-0.5189,11.855,42.6567,-0.4607,0.197,0.5826,228.8125
19:44:21:134,-0.9851,-0.3454,9.4692,40.3055,-0.3329,-0.0675,0.6857,227.875
19:44:21:155,-0.9552,-0.3861,8.563,42.0751,-0.3705,-0.1985,0.8258,227.1875
19:44:21:171,-0.5314,-0.4818,8.3044,40.7863,-0.5215,-0.2406,0.9936,226.4375
19:44:21:191,0.2228,-0.4543,8.4373,42.1694,-0.6567,-0.305,1.1134,225.5938
19:44:21:212,0.9913,-0.2867,8.739,41.4901,-0.6948,-0.427,1.1147,224.5312
19:44:21:231,1.2714,0.0509,8.6887,40.7903,-0.612,-0.5719,0.9936,223.2812
19:44:21:254,1.1039,0.5106,8.369,42.2777,-0.4397,-0.6433,0.8316,222.0156
19:44:21:273,0.7818,0.9236,8.4169,41.4256,-0.2541,-0.5479,0.7267,220.7656
19:44:21:291,0.6489,1.2169,8.296,41.0698,-0.0258,-0.3138,0.687,219.7031
19:44:21:311,0.71,1.3773,7.6759,41.3726,0.2011,-0.0728,0.6886,218.8125
19:44:21:332,0.7399,1.5293,7.6328,40.7979,0.2812,0.0249,0.6908,218.0469
19:44:21:355,0.54,1.6107,8.4529,40.9865,0.2448,0.0404,0.6788,217.2656
19:44:21:373,0.3365,1.6095,9.6176,41.9965,0.22,0.0899,0.7075,216.4844
19:44:21:391,0.3257,1.5281,10.2485,41.0411,0.2866,0.19,0.7805,215.75
19:44:21:411,0.6298,1.4228,10.5969,42.5416,0.3918,0.2393,0.8596,214.5625
19:44:21:433,1.0129,1.418,10.3934,39.8125,0.4788,0.1882,0.87,213.6719
19:44:21:455,1.0081,1.7137,9.7816,39.1972,0.5262,0.0252,0.7746,212.75
19:44:21:472,0.7507,1.8429,10.0318,41.6339,0.4416,-0.0896,0.683,211.7656
19:44:21:492,0.3557,1.9555,10.6124,40.8642,0.3521,-0.0089,0.6439,210.9062
19:44:21:513,0.467,1.7232,11.3762,40.8821,0.3233,0.1818,0.7067,210.1875
19:44:21:537,1.0117,1.3641,11.381,39.4669,0.3462,0.2739,0.7778,209.4688
19:44:21:555,1.4462,1.3234,10.6986,39.4265,0.3193,0.0902,0.732,209.0781
19:44:21:573,1.6581,1.2384,10.7321,39.5638,0.1015,-0.2563,0.6287,208.2188
19:44:21:591,1.6366,1.0086,11.5869,39.0766,-0.1811,-0.4864,0.5184,207.3906
19:44:21:611,1.6366,0.495,12.6547,40.5736,-0.2993,-0.3644,0.4631,206.6094
19:44:21:632,1.8939,-0.3466,13.6543,39.0605,-0.2354,0.0478,0.4484,205.9844
19:44:21:655,2.2315,-0.7919,13.1347,39.5755,0.0557,0.2705,0.3512,205.4688
19:44:21:671,2.1094,-0.2616,10.3574,38.1086,0.4554,0.2223,0.1414,204.9688
19:44:21:691,1.8365,0.4459,7.8675,39.8152,0.5255,0.1035,-0.0054,204.2969
19:44:21:711,1.6042,0.6758,7.9668,40.1149,0.1297,0.0795,-0.0198,204.125
19:44:21:733,1.0476,0.1287,9.9456,40.3159,-0.3712,0.3027,0.0263,204.1562
19:44:21:757,0.7663,-0.4998,11.6611,38.8568,-0.6527,0.6271,0.1169,204.1719
19:44:21:774,0.8118,-0.5261,11.4169,39.3185,-0.6325,0.6159,0.1549,204.0938
19:44:21:790,1.1912,-0.1658,10.2353,40.8825,-0.4866,0.2878,0.1262,203.9062
19:44:21:811,1.6581,0.0892,9.7505,39.3602,-0.3662,-0.071,0.0188,203.6562
19:44:21:832,1.3864,0.4004,9.2824,38.8904,0.155,-0.4009,-0.4528,203.4531
19:44:21:854,0.558,0.9415,8.2865,39.7116,0.433,-0.1554,-0.5111,203.4531
19:44:21:871,-0.183,1.3042,7.2462,39.9763,0.5473,0.1208,-0.4131,203.4219
19:44:21:890,-0.4632,1.4276,7.2378,37.459,0.6115,0.2926,-0.2467,203.6719
19:44:21:911,0.0013,1.3055,7.5251,38.9682,0.669,0.2742,-0.1306,204.2188
19:44:21:932,0.7196,1.1271,7.4054,38.8095,0.6219,0.0825,-0.1548,204.8438
19:44:21:955,0.8022,1.0505,7.8663,38.0708,0.5201,-0.0789,-0.2174,205.7656
19:44:21:973,0.3114,1.0744,8.6659,38.4033,0.4384,-0.0478,-0.182,205.8438
19:44:21:990,-0.0598,1.0289,9.7565,38.9289,0.4003,0.1421,-0.0645,205.9688
19:44:22:011,0.0205,0.8206,10.9129,39.1948,0.4557,0.3592,0.0434,206.25
19:44:22:031,0.0157,0.6171,11.2445,39.8482,0.5105,0.446,0.1211,206.4844
19:44:22:055,-0.0202,0.3969,10.7932,37.8133,0.4357,0.3067,0.16,206.5781
19:44:22:074,-0.0119,0.313,10.3036,39.7442,0.2613,0.0622,0.1762,206.5156
19:44:22:091,0.1234,0.2759,10.5621,39.5112,0.1683,-0.0824,0.1597,206.3594
19:44:22:110,-0.0346,0.2388,10.4951,38.2262,0.172,-0.0909,0.1368,206.1719
19:44:22:130,-0.4069,0.2352,9.3578,39.2211,0.0751,0.0912,0.1893,206
19:44:22:155,-0.778,0.0341,8.2613,39.1258,-0.2184,0.2835,0.3398,205.8438
19:44:22:171,-0.9372,-0.574,7.4545,39.7671,-0.7153,0.3299,0.5603,205.7031
19:44:22:190,-0.1914,-1.2097,7.9441,39.5802,-1.2618,0.2675,0.6732,205.5
19:44:22:211,0.8728,-1.8489,10.7142,39.3976,-1.4165,0.0715,0.5451,205.0625
19:44:22:232,1.457,-1.9531,13.1215,38.8095,-1.0059,-0.1109,0.2034,204.3125
19:44:22:254,0.7076,-1.1319,12.8019,38.8095,-0.4069,-0.109,-0.0619,203.0469
19:44:22:274,-0.6619,-0.0629,10.1958,38.759,-0.1582,0.1805,-0.0376,202.5156
19:44:22:291,-2.12,0.4687,8.0494,39.2741,-0.3563,0.4393,0.2407,202.4219
19:44:22:312,-2.685,0.5106,8.0351,37.1332,-0.7095,0.3932,0.6378,202.5
19:44:22:332,-2.0338,0.0832,9.286,38.4519,-0.8844,-0.0539,0.9123,202.375
19:44:22:357,-0.438,-0.0377,10.4113,38.077,-0.8104,-0.517,0.9243,201.8125
19:44:22:372,0.291,0.0605,11.0075,39.0982,-0.4709,-0.7248,0.7936,200.7969
19:44:22:391,0.2659,0.5357,10.3131,39.7623,-0.0754,-0.6164,0.7472,199.7188
19:44:22:411,0.2826,0.9511,8.9473,37.2514,0.1936,-0.3985,0.7632,198.7031
19:44:22:431,0.2958,1.2049,7.7106,37.6234,0.2852,-0.3034,0.7954,197.8438
19:44:22:456,0.4897,1.3809,6.8164,38.5432,0.2306,-0.2765,0.8231,197.0469
19:44:22:473,0.5999,1.5042,6.8667,37.9206,0.1167,-0.2251,0.837,196.1875
19:44:22:490,0.546,1.3976,8.1572,38.7902,0.1065,-0.1101,0.8567,195.2812
19:44:22:511,0.4442,1.2097,9.4967,39.4887,0.2421,0.0055,0.8878,194.4062
19:44:22:533,0.953,1.0576,9.6823,37.6315,0.3814,0.0268,0.9035,193.9219
19:44:22:555,1.0919,1.1115,9.6464,38.2857,0.4133,-0.0377,0.8556,192.4531
19:44:22:571,1.3181,1.1941,9.5458,41.0932,0.3827,-0.1796,0.7834,191.4375
19:44:22:591,1.7395,1.3533,9.2824,39.0373,0.3491,-0.3314,0.7046,190.4844
19:44:22:610,2.0543,1.3665,9.7421,37.4983,0.2498,-0.3583,0.6103,189.5625
19:44:22:684,2.1369,1.315,10.6172,39.0649,0.168,-0.2435,0.4894,188.75
19:44:22:684,1.8867,1.1786,11.5701,38.5473,0.1667,-0.0339,0.3616,188.0625
19:44:22:685,1.4534,1.0301,11.6527,39.8419,0.2296,0.1171,0.2457,187.4688
19:44:22:689,1.2822,1.1247,10.8518,39.4256,0.2405,0.0476,0.1781,186.9844
19:44:22:710,1.293,1.0948,10.9249,41.5628,0.0288,-0.1349,0.1842,186.6719
19:44:22:729,1.1864,0.8577,12.3805,39.6502,-0.2788,-0.2076,0.2141,186.4219
19:44:22:755,0.8189,0.088,14.0289,39.9032,-0.4147,0.0015,0.2388,186.2344
19:44:22:772,0.5711,-0.677,14.8609,40.2279,-0.2458,0.3397,0.2497,186.0156
19:44:22:794,0.4083,-0.8457,13.0054,39.2315,0.2264,0.6329,0.2117,185.7812
19:44:22:815,0.2383,-0.5082,8.9221,42.2665,0.669,0.7626,0.1904,185.3125
19:44:22:829,0.5268,-0.3537,6.2191,38.7135,0.53,0.6047,0.2476,185.0312
19:44:22:850,1.2319,-0.6207,6.6177,39.7482,-0.1167,0.1331,0.3022,184.7812
19:44:22:872,1.8724,-0.6841,8.5821,40.9236,-0.7031,-0.301,0.2516,184.4688
19:44:22:890,2.0603,-0.4962,10.1096,40.3245,-0.8701,-0.2438,0.1179,184.1094
19:44:22:913,1.6473,-0.0904,10.4281,38.9354,-0.6828,0.1629,-0.0437,183.8281
19:44:22:929,1.1625,0.3777,9.3016,39.1488,-0.3555,0.6204,-0.1599,183.7344
19:44:22:951,1.0045,0.847,8.3523,39.8951,-0.1555,0.9027,-0.2081,183.6719
19:44:22:980,1.2463,0.7632,8.8886,39.272,-0.1167,0.9187,-0.2235,183.75
19:44:22:994,1.2499,0.5489,9.2872,39.4316,0.2461,0.3943,-0.4347,184.0781
19:44:23:023,1.0823,0.6351,8.8228,39.2346,0.4405,0.1751,-0.5423,184.2969
19:44:23:036,0.7124,0.7344,8.3738,39.7873,0.5324,0.0297,-0.5604,184.9375
19:44:23:057,0.6238,0.8458,8.3319,41.1362,0.6101,-0.0259,-0.5322,185.5781
19:44:23:074,0.5891,0.8697,8.0111,40.3968,0.6232,0.0052,-0.472,186.2656
19:44:23:093,0.4191,0.8637,8.2194,39.9371,0.5625,0.197,-0.3942,186.8906
19:44:23:113,0.0947,0.7117,9.3339,39.842,0.5188,0.4542,-0.2701,187.4844
19:44:23:131,-0.1076,0.3956,10.4209,40.8678,0.531,0.4138,-0.1612,187.9688
19:44:23:154,-0.2321,0.1897,10.4867,40.4479,0.4605,0.1267,-0.0749,188.2812
19:44:23:172,-0.3937,0.1347,10.1204,41.1404,0.2722,-0.1192,0.013,188.4688
19:44:23:191,-0.3614,-0.021,10.4664,40.1379,0.0919,-0.1927,0.0985,188.5781
19:44:23:211,-0.1076,-0.3202,11.2625,41.6673,0.07,-0.1668,0.0979,188.6094
19:44:23:232,-0.1016,-0.3956,11.3259,41.4512,0.1236,-0.2281,0.0569,188.6094
19:44:23:257,-0.1352,-0.313,10.476,41.1404,0.1137,-0.3045,-0.0155,188.4375
19:44:23:274,-0.6056,-0.1586,9.3495,40.4927,-0.0256,-0.2531,-0.024,188.4375
19:44:23:291,-0.9695,0.0724,8.6588,41.7059,-0.2783,-0.1218,0.0628,188.4688
19:44:23:310,-1.0881,0.0569,8.4792,41.4288,-0.5848,-0.0209,0.1786,188.4688
19:44:23:333,-0.9624,-0.0042,8.8287,40.2875,-0.9201,0.0087,0.2756,188.5312
19:44:23:355,-0.7373,-0.3992,10.3838,40.6606,-1.101,-0.1338,0.2833,188.3438
19:44:23:372,-0.608,-0.7584,12.5386,41.0151,-0.8964,-0.2781,0.1632,188.2031
19:44:23:389,-1.0761,-0.6865,13.4029,41.2037,-0.4099,-0.2507,0.0665,187.8125
19:44:23:410,-2.0864,-0.4483,12.0597,40.8234,-0.0165,-0.0155,0.1225,187.4062
19:44:23:432,-3.2081,-0.1826,9.5913,42.9517,0.0013,0.2076,0.3667,187.1719
19:44:23:455,-3.4056,-0.0988,7.6783,42.1858,-0.326,0.091,0.7075,187.0938
19:44:23:472,-2.2145,-0.2616,7.3491,42.7135,-0.6924,-0.2582,0.9067,186.9531
19:44:23:489,-0.7421,-0.4304,8.1332,42.913,-0.8059,-0.5474,0.8964,186.5156
19:44:23:510,0.2958,-0.1742,9.1723,42.3618,-0.5814,-0.4867,0.735,185.7188
19:44:23:530,0.2216,0.1514,9.389,42.4504,-0.1835,-0.1911,0.5826,184.6562
19:44:23:554,-0.4021,0.5178,8.5163,43.7863,0.1262,0.038,0.5632,183.5938
19:44:23:573,-0.5087,0.8434,7.1612,43.5956,0.2035,0.0465,0.5992,182.75
19:44:23:590,-0.2848,1.0529,6.3783,43.7742,0.11,-0.0781,0.6095,182.1094
19:44:23:610,-0.1687,1.1881,7.0056,42.4504,0.0559,-0.117,0.6194,181.4688
19:44:23:630,-0.2321,1.1295,8.1667,43.6079,0.1393,0.0098,0.6639,180.4844
19:44:23:655,-0.1184,1.1474,8.7904,44.0257,0.2389,0.2385,0.719,179.7969
19:44:23:674,0.0229,1.2923,8.9784,43.5283,0.2567,0.3837,0.7454,179.0781
19:44:23:689,0.0779,1.4407,9.4345,44.7223,0.228,0.3834,0.7366,178.2812
19:44:23:710,0.0396,1.7041,10.2365,43.1321,0.257,0.3325,0.6484,177.4688
19:44:23:731,-0.6332,2.0632,10.768,43.9344,0.3385,0.2702,0.5866,176.6094
19:44:23:756,-1.3107,2.3014,10.932,42.9331,0.3997,0.1687,0.6503,175.7969
19:44:23:772,-1.0557,2.2835,10.9488,44.5474,0.4032,0.0534,0.7278,175.1406
19:44:23:792,-0.11,2.1398,11.3379,45.8994,0.3941,0.0548,0.6878,174.4531
19:44:23:814,0.5304,1.7855,12.4607,44.5314,0.4786,0.1363,0.5576,173.6719
19:44:23:829,0.5257,1.2599,13.1443,45.1476,0.6458,0.0681,0.4252,172.8594
19:44:23:851,0.6717,1.066,12.2991,44.9278,0.6256,-0.1636,0.3467,172.2031
19:44:23:872,1.19,0.9547,11.4336,45.0367,0.3654,-0.3418,0.2612,171.6719
19:44:23:891,1.5719,0.4986,12.0118,46.4744,0.1609,-0.3072,0.1469,171.4688
19:44:23:911,1.3516,0.0377,13.2161,45.5396,0.2234,-0.0813,0.0596,171.1406
19:44:23:932,1.1613,-0.6291,11.4743,45.3046,0.4735,-0.0494,0.0212,170.8281
19:44:23:955,1.2008,-0.4459,9.116,45.6708,0.5918,-0.1548,-0.0395,170.75
19:44:23:974,0.9901,-0.1646,8.0458,46.6246,0.3742,-0.1705,-0.0853,170.7344
19:44:23:990,0.6645,-0.179,8.7976,45.0921,-0.0554,0.0124,-0.0659,170.7812
19:44:24:010,0.4909,-0.3705,10.5346,45.9699,-0.4128,0.2561,-0.0118,170.9062
19:44:24:029,0.2216,-0.3633,11.2756,46.5306,-0.4706,0.4545,-0.0121,171.0312
19:44:24:049,-0.2968,0.0377,10.4867,46.9093,-0.2895,0.4923,-0.1013,171.0469
19:44:24:073,-0.8522,0.6662,9.0526,45.1583,-0.073,0.3147,-0.2059,170.9688
19:44:24:090,-0.9995,1.1391,8.3008,46.7491,0.036,0.0835,-0.2256,170.9375
19:44:24:110,-0.7253,1.2205,8.1236,47.2256,0.1087,-0.0899,-0.1668,171.0469
19:44:24:129,-0.5745,1.2707,7.8339,47.7572,0.236,-0.1559,-0.142,171.2812
19:44:24:150,-0.5135,1.4204,7.3731,48.5808,0.3721,-0.1476,-0.1348,171.5156
19:44:24:172,-0.2956,1.4659,7.2617,48.0442,0.4237,-0.174,-0.1037,171.7031
19:44:24:192,-0.0298,1.4742,7.1995,47.6906,0.4368,-0.2473,-0.0587,171.9062
19:44:24:209,0.2096,1.3641,7.7502,46.5622,0.4123,-0.2198,-0.0198,172.0938
19:44:24:229,0.4143,1.1618,8.4959,47.4698,0.4032,-0.0446,0.0186,172.2969
19:44:24:249,0.4251,1.0589,8.369,46.2965,0.4834,0.1725,0.0346,172.375
19:44:24:272,0.4825,1.0744,7.9405,48.5507,0.5108,0.2481,0.0426,172.3906
19:44:24:300,0.4825,1.0768,7.9908,48.1683,0.3918,0.1743,0.0338,172.3438
19:44:24:309,0.522,1.0553,8.3846,46.2965,0.2011,0.1054,0.013,172.2969
19:44:24:332,0.5508,0.9703,9.2022,48.061,-0.0067,0.0681,-0.011,172.2656
19:44:24:358,0.4945,0.8098,10.622,47.1693,-0.1654,0.0971,-0.0616,172.2344
19:44:24:373,0.3377,0.6746,11.7389,47.1693,-0.171,0.1456,-0.1404,172.2344
19:44:24:389,0.0133,0.6423,10.7896,49.6518,0.0213,0.1107,-0.2541,172.2656
19:44:24:410,-0.0071,0.7177,8.8395,48.0404,0.1425,0.0114,-0.3151,172.3281
19:44:24:430,-0.1986,0.7225,7.877,49.5147,-0.0607,0.0553,-0.3375,172.5312
19:44:24:451,-0.4009,0.3825,8.0961,48.8899,-0.5023,0.1647,-0.2869,172.8438
19:44:24:471,-0.6535,-0.1562,9.1855,47.931,-0.9998,0.2007,-0.207,173.2344
19:44:24:489,-0.2273,-0.732,12.1411,49.957,-1.424,0.1307,-0.118,173.5625
19:44:24:509,0.0935,-1.0672,14.5078,48.0869,-1.4474,0.0713,-0.1276,173.7969
19:44:24:530,-0.8367,-0.5321,13.9236,48.9577,-0.9691,-0.0483,-0.3583,173.7812
19:44:24:555,-2.5449,0.3035,10.9225,47.7369,-0.3689,-0.1519,-0.546,173.7969
19:44:24:574,-4.1071,0.8601,8.3331,49.733,-0.1665,-0.0944,-0.4267,174.125
19:44:24:590,-4.3573,0.8697,7.5299,49.6954,-0.3958,-0.0904,-0.0121,174.7344
19:44:24:610,-2.9184,0.2927,8.5295,47.6808,-0.7904,-0.1429,0.5504,175.2188
19:44:24:631,-1.3586,-0.015,9.9408,48.999,-0.9574,-0.431,0.9081,175.2188
19:44:24:658,-0.4608,0.0066,10.883,48.8945,-0.5792,-0.4659,0.7688,174.5312
19:44:24:674,-0.2896,0.3071,10.4101,48.795,-0.1129,-0.3937,0.6439,173.4531
19:44:24:692,-0.3183,0.7608,8.636,49.7242,0.1547,-0.2779,0.5965,172.375
19:44:24:753,-0.304,1.1199,7.0714,49.11,0.1768,-0.2017,0.6024,171.5312
19:44:24:753,-0.1208,1.3821,6.5064,48.011,0.0868,-0.1927,0.6199,170.8125
19:44:24:753,0.0133,1.4778,7.057,48.4962,0.0365,-0.1397,0.6215,170.1562
19:44:24:771,0.0372,1.4659,8.4959,48.0726,0.1009,0.05,0.6372,168.4688
19:44:24:792,-0.0538,1.3234,9.6727,48.2431,0.2378,0.2146,0.6561,168.4688
19:44:24:810,-0.0382,1.2408,10.2629,47.9661,0.3694,0.1703,0.6774,167.75
19:44:24:832,0.2084,1.2109,10.039,49.3395,0.3989,-0.0254,0.6596,167.0625
19:44:24:858,0.5113,1.1247,9.6799,49.7825,0.3252,-0.2686,0.5874,166.2812
19:44:24:876,0.7914,1.0864,9.9241,49.1944,0.2724,-0.3775,0.4894,165.9062
19:44:24:891,1.0548,1.0014,10.6854,48.3235,0.3553,-0.3112,0.3736,165.1719
19:44:24:909,1.2954,1.0026,11.0087,47.9341,0.4852,-0.1743,0.2375,164.5625
19:44:24:929,1.3612,1.0026,11.0422,49.7793,0.5521,-0.1426,0.0913,164.0469
19:44:24:949,1.4211,1.1343,11.0889,47.9517,0.5673,-0.1927,-0.0557,163.6562
19:44:24:973,1.1517,1.181,10.8626,48.254,0.5092,-0.2587,-0.1402,163.4375
19:44:24:991,0.965,1.2683,10.2425,47.6673,0.2951,-0.304,-0.1287,163.3594
19:44:25:009,1.1529,1.2707,10.1886,47.4785,-0.0163,-0.2933,-0.0834,163.4531
19:44:25:029,1.4319,1.0469,10.9033,48.1999,-0.29,-0.1972,-0.0443,163.6562
19:44:25:050,1.5456,0.5692,12.1663,48.6069,-0.4245,-0.0528,-0.0424,163.8438
19:44:25:075,1.767,-0.0892,13.7596,46.3942,-0.2623,0.0018,-0.1007,164
19:44:25:090,2.2507,-0.5752,13.8326,45.6488,0.1047,-0.1088,-0.2773,164.0469
19:44:25:109,2.1836,-0.3418,11.2792,46.2847,0.2256,-0.1365,-0.4531,164.1094
19:44:25:132,1.5516,0.1897,9.2669,45.7765,0.0322,0.0652,-0.4792,164.3125
19:44:25:156,0.9554,0.4651,8.8228,46.3539,-0.2384,0.2652,-0.4035,164.7656
19:44:25:175,0.4706,0.5321,9.3183,46.5207,-0.3981,0.4023,-0.3721,165.3125
19:44:25:193,-0.4404,0.9008,9.2561,45.9103,-0.4863,0.5363,-0.3295,165.7969
19:44:25:210,-1.4987,1.2923,8.9113,45.3094,-0.5686,0.6108,-0.1537,166.1875
19:44:25:230,-1.2533,1.4874,8.6157,45.2487,-0.6567,0.5448,0.058,166.5312
19:44:25:250,-0.2022,1.0972,9.9337,44.9405,-0.5116,0.4351,0.0977,166.75
19:44:25:273,0.0492,0.6578,11.0446,45.3903,-0.0807,0.3427,0.0852,166.7188
19:44:25:290,0.4275,0.489,11.0338,44.1962,0.4234,0.3541,0.0588,166.5469
19:44:25:310,0.5173,0.4579,8.3942,44.1797,0.7878,0.2622,-0.0171,166.3906
19:44:25:330,0.2742,0.5716,6.8978,43.1525,0.9175,0.0883,-0.0725,166.2812
19:44:25:356,0.2994,0.6387,6.34,44.3219,0.7971,-0.153,-0.0563,166.2656
19:44:25:377,0.6322,0.5034,7.0918,43.9487,0.5713,-0.3578,-0.0056,166.375
19:44:25:395,0.6681,0.1359,8.1129,42.1765,0.4591,-0.3519,0.0157,166.5156
19:44:25:409,0.6633,-0.0138,8.5761,44.535,0.5297,-0.1325,0.0087,166.625
19:44:25:428,0.5508,-0.1514,9.0071,41.9493,0.6125,0.1664,0.0087,166.6719
19:44:25:451,0.121,-0.0425,9.2202,42.5706,0.64,0.3408,-0.0256,166.7188
19:44:25:473,-0.5063,0.021,9.4021,42.5521,0.575,0.3371,-0.0573,166.7344
19:44:25:491,-0.7876,0.0449,9.978,41.743,0.4096,0.2138,-0.0232,166.7344
19:44:25:509,-0.5817,0.1335,10.4484,42.6772,0.257,0.0843,0.0487,166.7812
19:44:25:529,-0.5721,0.0545,10.8889,41.1449,0.1334,0.0281,0.063,166.8281
19:44:25:548,-0.6284,0.082,10.8207,42.2859,0.0839,-0.0531,0.0279,166.7969
19:44:25:573,-0.8319,0.1742,10.0869,44.072,0.0711,-0.071,-0.0163,166.7344
19:44:25:589,-0.8247,0.3047,8.824,41.7528,-0.0125,-0.0086,0.0021,166.6875
19:44:25:609,-0.3351,0.598,8.6779,42.07,-0.2922,0.1243,0.1019,166.7031
19:44:25:630,-1.0246,0.3837,11.1331,41.3772,-0.7252,0.4673,0.1382,166.7344
19:44:25:649,-1.9631,0.1778,13.9344,44.1484,-0.8783,0.7142,0.1384,166.5625
19:44:25:672,-2.1068,0.2472,14.2636,41.1697,-0.5031,0.6702,0.1741,166.2812
19:44:25:690,-2.0888,0.7081,10.4831,41.2152,0.1766,0.4878,0.201,165.9844
19:44:25:709,-2.4958,1.0253,6.7578,40.8764,0.3641,0.3959,0.2838,165.6562
19:44:25:729,-2.7281,0.8074,6.2693,42.155,-0.1617,0.2715,0.4758,165.375
19:44:25:748,-1.938,-0.0233,8.2948,43.4912,-0.8559,-0.023,0.7475,165.0312
19:44:25:775,-0.4177,-0.6207,10.0941,42.3169,-1.1673,-0.3546,0.9278,164.4688
19:44:25:792,1.1026,-0.5944,10.7106,41.839,-0.9891,-0.5314,0.8996,163.5312
19:44:25:810,0.9985,-0.0676,9.4464,42.6435,-0.4783,-0.4715,0.6122,162.4062
19:44:25:828,-0.0047,0.6554,7.6915,41.5742,-0.0032,-0.3029,0.3262,161.4062
19:44:25:849,-0.5925,1.0181,6.7326,43.3046,0.1838,-0.1343,0.27,161.0156
19:44:25:874,-0.4536,1.2372,6.4824,42.6036,0.1936,-0.0957,0.3493,160.5156
19:44:25:890,-0.2561,1.3318,7.0451,41.2697,0.1132,-0.1508,0.4306,160.25
19:44:25:908,-0.0657,1.2803,8.2601,41.8949,0.0189,-0.1951,0.4673,159.9375
19:44:25:930,0.0265,1.224,9.4153,40.829,-0.0051,-0.2377,0.4985,159.5
19:44:25:950,0.2419,1.4491,9.6487,42.0926,0.0879,-0.3418,0.5067,158.7812
19:44:25:975,0.5256,1.7364,9.2298,41.229,0.1846,-0.508,0.5195,158.2344
19:44:25:993,0.8046,2.0261,8.7916,41.9205,0.1907,-0.6675,0.5102,157.6875
19:44:26:010,1.1733,2.2164,8.9149,40.9786,0.1015,-0.7431,0.487,157.1562
19:44:26:029,1.5228,2.2679,9.4943,42.397,0.0011,-0.7072,0.4434,156.6875
19:44:26:050,1.8748,2.2356,10.4604,40.7766,-0.0173,-0.5064,0.2231,156.2344
19:44:26:073,2.01,2.2655,11.4109,40.6702,0.0935,-0.3681,0.0601,156.2344
19:44:26:090,1.785,2.2368,11.6659,41.9773,0.1774,-0.1974,-0.0613,155.7969
19:44:26:108,1.4151,2.1063,11.3522,41.8077,0.1145,-0.0875,-0.0757,155.4844
19:44:26:128,1.2463,1.904,10.8411,41.9308,-0.1707,-0.0539,0.0039,155.25
19:44:26:149,1.5611,1.4311,11.3738,41.6889,-0.588,-0.0166,0.0742,155.3438
19:44:26:174,2.2136,0.3609,13.7656,40.7456,-0.6932,0.0039,0.0133,155.4375
19:44:26:191,2.6924,-0.6458,15.718,41.5628,-0.3382,-0.0385,-0.1985,155.4375
19:44:26:211,2.7666,-1.0995,14.8932,40.3005,0.1696,-0.1708,-0.4864,155.3594
19:44:26:228,2.3488,-0.811,11.8598,40.1245,0.4051,-0.1522,-0.6776,155.4219
19:44:26:250,1.7311,-0.2891,8.8922,40.9719,0.2541,-0.0337,-0.7,155.8281
19:44:26:275,1.4115,0.1059,7.4401,42.975,-0.0919,0.0489,-0.6464,156.5312
19:44:26:292,1.3588,0.0796,7.7813,41.8015,-0.3651,0.1365,-0.603,157.3125
19:44:26:310,1.2391,-0.1407,9.0502,42.5468,-0.4027,0.2675,-0.5934,158.0938
19:44:26:329,1.056,-0.1945,10.0115,44.1542,-0.241,0.4609,-0.5748,158.7812
19:44:26:349,0.9375,-0.1179,9.9816,40.4643,-0.0447,0.6188,-0.5569,159.4219
19:44:26:373,0.9339,-0.0497,9.3399,42.0885,0.0786,0.5914,-0.5745,159.7344
19:44:26:391,0.9626,0.1143,8.4253,42.3726,0.1127,0.4026,-0.6334,160.3438
19:44:26:408,0.8967,0.3358,8.1129,44.1627,0.1427,0.2345,-0.7053,160.9219
19:44:26:429,0.6226,0.5369,7.9034,41.8345,0.2242,0.1991,-0.7516,161.5
19:44:26:450,0.2324,0.8601,7.8639,42.9968,0.3063,0.3038,-0.7338,162.1875
19:44:26:473,-0.1471,1.0349,8.2266,42.3654,0.4285,0.365,-0.6754,162.9688
19:44:26:494,-0.3518,1.145,8.1368,42.3654,0.5212,0.3112,-0.59,163.7812
19:44:26:510,-0.3159,1.3521,7.7047,45.0499,0.493,0.213,-0.4978,164.5938
19:44:26:528,-0.2094,1.3605,7.7729,44.2885,0.408,0.0819,-0.4187,165.7031
19:44:26:550,-0.183,1.3258,8.1524,43.0011,0.3401,0.0137,-0.3471,166.2812
19:44:26:574,-0.0334,1.2707,8.6252,42.433,0.3214,0.0042,-0.2885,166.8125
19:44:26:590,-0.0214,1.3114,8.7342,44.0068,0.2794,0.083,-0.2179,167.2656
19:44:26:608,-0.2058,1.3186,8.6719,45.3368,0.1281,0.2207,-0.1031,167.6562
19:44:26:628,-0.3339,1.0852,9.4141,43.2344,-0.0578,0.3344,0.0157,167.9375
19:44:26:648,-0.1926,0.7045,10.5753,43.9255,-0.1787,0.2928,0.0841,168.125
19:44:26:673,-0.0394,0.0712,11.4887,44.3925,-0.2005,0.0811,0.0295,168.1406
19:44:26:691,-0.5937,-0.5058,11.7987,46.0981,-0.1119,-0.0531,-0.0914,168.0156
19:44:26:708,-1.768,-0.5201,10.774,44.8321,-0.0748,0.0177,-0.0858,167.8906
19:44:26:729,-2.6982,0.1215,8.46,45.807,-0.3721,0.1682,0.1584,167.9219
19:44:26:751,-1.2868,-0.677,10.3311,46.072,-0.9302,0.1506,0.5427,168.0469
19:44:26:775,0.1641,-1.6705,13.0461,45.5118,-1.3265,-0.0736,0.7587,168.0156
19:44:26:857,1.3493,-2.0788,14.7161,45.9155,-1.2405,-0.2907,0.6753,167.5469
19:44:26:858,1.6761,-1.7256,14.151,45.6882,-0.7004,-0.4044,0.368,167.1406
19:44:26:869,0.5244,-0.8122,11.5737,46.727,-0.0061,-0.3479,-0.024,165.7812
19:44:26:869,-1.0198,-0.07,8.9293,47.695,0.3771,-0.0656,-0.2158,165.125
19:44:26:870,-2.175,0.3645,7.3994,46.8839,0.3193,0.1842,-0.122,164.9375
19:44:26:889,-2.1152,0.2496,7.5012,47.8271,-0.0485,0.1181,0.188,165.1406
19:44:26:908,-0.7182,-0.2221,8.4516,46.9321,-0.4458,-0.1658,0.5392,165.375
19:44:26:929,0.5975,-0.4639,9.456,46.5283,-0.6573,-0.4355,0.6886,165.3594
19:44:26:948,1.2092,-0.2915,9.9552,47.2105,-0.5976,-0.5399,0.6146,164.9219
19:44:26:974,1.0488,0.0449,9.4764,48.4666,-0.3284,-0.3913,0.4591,164.2031
19:44:26:992,0.6082,0.4447,8.5103,47.9873,-0.0418,-0.1676,0.3398,163.4375
19:44:27:008,0.4095,0.7739,7.5419,48.5037,0.1238,-0.0731,0.291,162.8438
19:44:27:029,0.303,1.0313,7.0499,47.8423,0.1454,-0.1378,0.2849,162.4219
19:44:27:051,0.2659,1.2025,7.1911,47.4768,0.0884,-0.2632,0.2918,162.0781
19:44:27:072,0.1964,1.3689,7.5083,47.5959,0.0565,-0.2976,0.3054,161.7656
19:44:27:090,-0.116,1.4778,8.0554,49.3542,0.0578,-0.1761,0.3224,161.3125
19:44:27:108,-0.3483,1.6011,8.733,48.8577,0.0732,-0.0323,0.3762,160.9844
19:44:27:128,-0.3758,1.6011,9.4201,50.9073,0.1132,0.0928,0.458,160.6406
19:44:27:147,0.0312,1.4838,10.0103,49.2312,0.1667,0.0918,0.5467,160.2344
19:44:27:171,0.479,1.4335,10.1635,49.6396,0.2413,-0.0574,0.5632,159.7031
19:44:27:191,0.8524,1.5844,9.4297,50.465,0.3148,-0.2843,0.5046,159.0781
19:44:27:208,1.1374,1.8298,9.2274,48.5278,0.2586,-0.4281,0.4378,158.4688
19:44:27:231,1.2403,1.6789,10.294,49.2769,0.0916,-0.3346,0.4005,157.9219
19:44:27:258,1.3947,1.315,11.454,50.9702,0.0005,-0.1069,0.3994,157.4688
19:44:27:274,1.852,0.7632,12.3542,51.1882,-0.0184,0.0337,0.3904,157.0312
19:44:27:291,2.3153,0.416,12.4368,51.0006,0.0152,-0.0643,0.3089,156.6094
19:44:27:310,2.283,0.3418,12.0226,51.1153,0.0064,-0.2486,0.1382,156.1562
19:44:27:328,2.3213,0.185,11.8131,50.7268,-0.1055,-0.3437,0.0268,155.9688
19:44:27:352,2.5344,-0.2532,12.5146,50.7705,-0.2911,-0.3386,-0.0145,155.7188
19:44:27:375,2.8696,-0.8158,13.7895,51.662,-0.3907,-0.1977,-0.0629,155.6719
19:44:27:390,2.9869,-1.2097,13.9823,50.8763,-0.224,0.0691,-0.1673,155.7344
19:44:27:409,2.7439,-1.175,11.9304,52.9168,0.1617,0.1823,-0.3444,155.8125
19:44:27:428,2.1932,-0.7823,9.3363,51.1198,0.2445,0.1219,-0.5745,156
19:44:27:449,1.7527,-0.5297,8.0207,52.6893,-0.0818,0.205,-0.5516,156.375
19:44:27:474,1.5192,-0.4998,7.9967,51.4877,-0.3414,0.2468,-0.5423,156.375
19:44:27:492,1.2702,-0.3513,8.2685,52.1169,-0.4658,0.2846,-0.5119,156.9688
19:44:27:508,1.5324,-0.2328,9.1232,52.0322,-0.4136,0.3988,-0.5292,157.5781
19:44:27:530,1.6126,-0.0605,9.8774,51.2272,-0.1651,0.4798,-0.643,158.1875
19:44:27:548,1.1936,0.3107,9.9504,52.4733,0.1587,0.5413,-0.7138,159.3281
19:44:27:574,0.6525,0.6423,9.2501,52.3034,0.4256,0.5592,-0.6997,159.8906
19:44:27:593,0.3892,0.7775,8.3487,52.2276,0.5364,0.4724,-0.6358,160.5938
19:44:27:608,0.4658,0.9104,7.7693,52.9057,0.5047,0.2414,-0.6158,161.375
19:44:27:628,0.5137,1.0648,8.2386,52.8733,0.5332,0.0036,-0.6523,162.1094
19:44:27:649,0.0552,1.2121,8.6121,54.2174,0.6967,-0.1218,-0.6211,163.5312
19:44:27:673,-0.2405,1.3342,8.0865,50.7559,0.7771,-0.0315,-0.4712,164.2656
19:44:27:690,-0.0753,1.3569,7.5838,54.24,0.6685,0.1597,-0.309,164.6562
19:44:27:709,0.1366,1.1762,8.0446,52.0291,0.4786,0.2865,-0.1772,165.3438
19:44:27:728,0.5292,0.7129,9.2381,52.0818,0.3856,0.2076,-0.1615,165.8125
19:44:27:749,0.9015,0.3729,10.2377,54.2249,0.4232,0.0273,-0.2581,166.0625
19:44:27:773,0.8034,0.3322,10.4269,52.9163,0.4767,-0.0201,-0.3737,166.2344
19:44:27:791,0.2455,0.4902,10.1396,52.7198,0.4344,0.0963,-0.3846,166.4688
19:44:27:815,-0.2381,0.4723,10.1204,52.2649,0.3404,0.2779,-0.3181,166.8438
19:44:27:827,-0.2561,0.2544,10.3981,52.3054,0.2586,0.3485,-0.2882,167.0781
19:44:27:848,-0.2034,-0.0473,10.628,51.4205,0.2248,0.2287,-0.358,167.5469
19:44:27:872,-0.7313,-0.2987,10.3958,51.817,0.2077,0.1594,-0.4278,167.8906
19:44:27:893,-1.5214,-0.234,9.7661,51.7823,0.119,0.2175,-0.3657,168.1719
19:44:27:909,-2.0769,-0.24,8.9066,51.8425,-0.1276,0.303,-0.1588,168.5625
19:44:27:929,-2.0757,-0.3813,8.4576,51.8142,-0.5494,0.4169,0.0822,169.0469
19:44:27:950,-1.859,-0.9858,9.316,51.3266,-0.9428,0.3054,0.2362,169.4219
19:44:27:973,-1.0857,-1.6897,11.879,51.3425,-0.8786,-0.0243,0.185,169.4844
19:44:27:990,-0.3518,-1.8202,12.8965,51.1853,-0.3696,-0.3229,-0.0667,169.1562
19:44:28:008,-0.5865,-1.0074,10.774,51.4927,0.0333,-0.3871,-0.2563,168.7812
19:44:28:029,-1.6435,-0.1299,7.6029,51.3966,-0.0557,-0.1676,-0.1812,168.6719
19:44:28:049,-2.4527,0.5884,5.7773,50.2213,-0.5396,0.0798,0.1278,168.9219
19:44:28:074,-2.2935,0.6219,6.3902,49.9996,-1.0623,0.1339,0.4774,169.25
19:44:28:091,-1.0976,0.1371,8.8347,50.7891,-1.2618,-0.0435,0.597,169.2812
19:44:28:109,0.0648,-0.0784,11.0039,50.2512,-1.0557,-0.2891,0.498,168.8281
19:44:28:132,0.4754,0.7201,10.6124,49.642,-0.5886,-0.4204,0.3211,168.0781
19:44:28:147,0.0791,1.2995,8.9556,51.1007,-0.164,-0.3394,0.201,167.375
19:44:28:168,-0.1495,1.6215,7.5323,51.8877,0.0583,-0.1761,0.1975,166.875
19:44:28:190,-0.1759,1.8214,6.8978,50.6457,0.0839,-0.1527,0.2516,166.5938
19:44:28:209,-0.2333,1.8896,7.2438,50.0858,0.0088,-0.1865,0.319,166.4062
19:44:28:229,-0.4751,1.8669,8.0135,49.487,-0.0168,-0.1626,0.388,166.1562
19:44:28:248,-0.3842,1.8585,8.5977,48.9693,0.0578,-0.1061,0.4745,165.8438
19:44:28:275,-0.0777,1.7184,9.1663,47.2879,0.1571,-0.0102,0.5608,165.25
19:44:28:293,0.1294,1.5748,9.9636,48.0057,0.2155,0.0537,0.5888,165
19:44:28:310,0.3413,1.5916,10.2389,48.187,0.2948,-0.0235,0.5845,164.0938
19:44:28:331,0.6681,1.6287,10.033,47.9971,0.3603,-0.2062,0.5664,163.7656
19:44:28:348,1.0536,1.6107,10.3275,48.4267,0.2999,-0.4132,0.5187,163.125
19:44:28:373,1.1864,1.6191,11.3199,46.929,0.1891,-0.5112,0.4244,162.5
19:44:28:394,1.1493,1.4276,12.8378,47.6273,0.1305,-0.3796,0.3254,161.9062
19:44:28:411,0.8692,1.2408,13.5525,47.7668,0.2117,-0.1676,0.2287,161.4375
19:44:28:429,0.6082,1.3474,13.3993,44.8997,0.3622,-0.0757,0.1275,161.0625
19:44:28:448,0.2599,1.3629,12.754,46.44,0.4216,-0.0403,0.0601,160.7812
19:44:28:473,0.5699,1.1259,12.4763,46.4243,0.3209,-0.1514,0.0678,160.5938
19:44:28:491,1.4881,0.7416,12.5864,45.0735,0.179,-0.3221,0.1051,160.5156
19:44:28:507,1.9107,0.3047,12.6511,45.1699,0.1374,-0.3258,0.0308,160.4688
19:44:28:528,1.6761,-0.1766,12.2177,45.0837,0.2202,-0.1767,-0.1327,160.375
19:44:28:547,1.2463,-0.4423,10.9512,45.1701,0.355,-0.0691,-0.301,160.375
19:44:28:567,1.1003,-0.4483,9.4955,44.0456,0.4003,0.0121,-0.3987,160.5469
19:44:28:589,1.032,-0.3454,8.642,44.4372,0.2661,0.1203,-0.4462,160.9062
