Time,Acc_X,Acc_Y,Acc_Z,Meg,Gyr_X,Gyr_Y,Gyr_Z,Ore
13:19:09:725,-1.428,2.147,9.1843,54.4796,0.009,-0.2478,0.291,38.9844
13:19:09:741,-1.3406,2.2727,8.806,55.5377,0.0554,-0.4345,0.3403,38.9844
13:19:09:756,-1.2832,2.4367,8.4193,54.8872,0.1174,-0.7397,0.3816,203.7812
13:19:09:775,-0.9372,2.6175,8.0051,56.7064,0.118,-1.0981,0.3909,203.4844
13:19:09:795,-0.5601,2.5421,7.4066,56.3539,0.004,-1.4619,0.381,203.1562
13:19:09:828,-0.2058,2.8701,7.6077,55.1872,-0.1726,-1.5612,0.3115,202.8281
13:19:09:843,0.6633,3.1801,8.308,54.4743,-0.3627,-1.3799,0.0476,202.5625
13:19:09:856,0.5903,2.8342,9.5362,56.5569,-0.4277,-0.8584,-0.2568,202.3594
13:19:09:874,0.066,2.1231,10.3802,55.7381,-0.33,-0.1229,-0.3886,202.3281
13:19:09:894,-0.6296,1.8609,10.1707,55.2029,-0.1965,0.2119,-0.3982,202.6094
13:19:09:914,-1.4388,1.8501,9.7421,54.8933,-0.0882,0.1618,-0.3284,203.0312
13:19:09:942,-1.9284,1.9064,9.5937,55.0763,0.0253,-0.0315,-0.2139,203.4844
13:19:09:954,-2.0326,2.1721,9.5422,55.0036,0.1611,-0.0369,-0.1143,204.0469
13:19:09:975,-1.9296,2.481,8.9796,54.008,0.2543,0.055,-0.0635,204.2812
13:19:09:993,-2.2133,2.7887,8.2326,54.6295,0.2455,0.0295,-0.0198,204.4219
13:19:10:012,-2.4408,2.9335,7.8854,53.7859,0.1382,-0.2757,-0.0062,204.4844
13:19:10:043,-2.3546,2.8473,8.4301,53.6582,-0.0083,-0.6638,-0.0328,204.5156
13:19:10:052,-2.199,2.487,9.5889,53.7096,-0.0759,-0.7194,-0.0302,204.5469
13:19:10:078,-2.1978,2.1829,10.2365,54.2177,-0.0336,-0.3719,0.033,204.6719
13:19:10:095,-2.0386,2.0429,9.7697,54.4926,0.0455,0.0225,0.0985,204.7969
13:19:10:112,-2.1906,2.3062,8.8443,53.6964,0.0756,0.1179,0.1171,204.7969
13:19:10:130,-2.4911,2.9479,8.0829,52.4697,0.016,-0.0512,0.1555,204.6875
13:19:10:149,-2.345,2.9275,7.7513,56.3672,-0.1174,-0.3229,0.1451,204.5312
13:19:10:175,-2.3103,2.748,7.9668,53.7223,-0.2325,-0.4004,0.1613,204.4375
13:19:10:197,-2.3725,2.56,8.1955,52.8509,-0.2778,-0.3655,0.2641,204.2969
13:19:10:210,-2.2241,2.3768,7.9261,54.9188,-0.2613,-0.4893,0.4122,204.1875
13:19:10:230,-2.1978,2.2392,7.7298,53.6035,-0.1947,-0.8094,0.6447,204.0156
13:19:10:249,-1.9607,2.5804,8.4792,53.1305,-0.0823,-0.8952,0.9392,203.7031
13:19:10:277,-0.7984,2.572,9.0155,53.3767,0.0362,-0.5996,1.1057,202.8438
13:19:10:294,0.3604,2.5947,8.903,52.8939,0.0892,-0.1037,1.082,201.8594
13:19:10:310,0.5951,2.7743,8.3619,52.4535,0.0652,0.0406,0.9312,200.7188
13:19:10:328,0.6956,2.7934,7.7645,52.2079,0.0029,-0.2411,0.7446,199.4844
13:19:10:348,0.71,2.9299,7.737,53.4434,-0.0479,-0.7359,0.5462,199.4844
13:19:10:374,0.5999,3.0544,8.223,53.829,-0.1502,-1.1426,0.3163,198.4062
13:19:10:394,0.461,2.4726,8.976,53.4606,-0.2341,-1.0901,0.205,197.625
13:19:10:410,0.145,2.0812,9.6763,54.7439,-0.2764,-0.6385,0.3006,197.0781
13:19:10:427,-0.4476,2.3206,10.112,53.5652,-0.3457,-0.0952,0.5997,196.8438
13:19:10:448,-0.3638,2.8784,9.7661,54.2698,-0.4546,0.2532,0.8878,196.75
13:19:10:475,0.5484,3.216,9.5674,53.3498,-0.5683,0.157,0.9749,196.5
13:19:10:494,1.7036,3.4602,10.2174,53.8421,-0.5683,-0.0286,0.834,195.875
13:19:10:507,2.6313,3.4638,10.6806,53.3275,-0.478,-0.0797,0.5653,193.875
13:19:10:527,3.1976,3.0568,10.8123,52.5718,-0.4104,-0.1958,0.3025,193
13:19:10:548,3.4478,2.2452,11.0709,53.1957,-0.3896,-0.2696,0.1752,192.6719
13:19:10:570,3.8823,1.3833,11.8035,53.8658,-0.3736,-0.1173,0.1488,192.25
13:19:10:589,3.7075,1.0588,12.0705,53.4113,-0.3398,0.177,0.2553,192.0625
13:19:10:609,3.0862,1.3055,11.849,54.2627,-0.2756,0.3925,0.4508,191.9531
13:19:10:627,2.7822,1.2719,11.2696,55.6668,-0.1926,0.4084,0.6245,191.7969
13:19:10:647,3.0719,1.2899,10.7908,55.6668,-0.1689,0.3429,0.6034,191.6406
13:19:10:670,3.5926,1.4515,10.4173,54.0176,-0.2192,0.3573,0.3438,191.1719
13:19:10:691,3.6788,1.4778,10.1084,53.0201,-0.2714,0.4316,-0.0152,190.4531
13:19:10:710,3.1449,1.0744,10.0558,54.7401,-0.2639,0.4218,-0.3255,189.7812
13:19:10:727,2.1106,0.8266,10.0989,54.0181,-0.1579,0.2694,-0.4856,189.4219
13:19:10:746,1.0691,0.7943,9.9935,53.4627,0.0344,0.0505,-0.5218,189.4688
13:19:10:766,0.279,0.6925,9.6176,52.7177,0.2674,-0.2606,-0.4911,189.8594
13:19:10:787,-0.14,0.5225,9.1124,52.356,0.5097,-0.5208,-0.4123,190.9844
13:19:10:806,-0.1495,0.4388,8.3918,52.994,0.6607,-0.6755,-0.3276,191.2656
13:19:10:827,0.2156,0.5728,7.6651,54.0386,0.5952,-0.7061,-0.2935,191.75
13:19:10:847,0.291,1.0325,7.2977,52.8137,0.3244,-0.553,-0.3111,192.1094
13:19:10:867,0.1258,1.4311,7.4628,52.5781,-0.0186,-0.1988,-0.3591,192.4062
13:19:10:887,-0.1567,1.3114,7.8495,53.3553,-0.2786,0.275,-0.3703,192.7188
13:19:10:911,-0.4548,1.0912,7.8172,52.5837,-0.4229,0.6558,-0.2768,193.1094
13:19:10:928,-0.6068,1.1331,7.5143,54.3025,-0.5057,0.7672,-0.0872,193.5312
13:19:10:946,-0.1735,1.4491,7.5083,54.1884,-0.5015,0.6324,0.091,193.9375
13:19:10:966,0.5687,1.8429,7.6448,52.7294,-0.4341,0.3882,0.124,194.1875
13:19:10:987,1.0081,2.1937,7.8316,54.2045,-0.3718,0.1775,0.0492,194.1875
13:19:11:007,1.111,2.3481,8.1452,54.8202,-0.3627,0.156,-0.0571,194.0781
13:19:11:031,0.3126,2.4379,8.405,52.3334,-0.4181,0.2766,-0.1359,194
13:19:11:047,-0.1854,2.5421,8.6037,55.1183,-0.5204,0.4225,-0.1431,194.0312
13:19:11:068,-0.3219,2.6462,9.0622,54.0668,-0.6227,0.4902,-0.0936,194.1875
13:19:11:091,-0.3626,2.7444,9.9816,54.9442,-0.6876,0.3988,-0.0501,194.3906
13:19:11:107,-0.3878,2.6378,11.3666,54.4607,-0.702,0.1794,-0.0107,194.5
13:19:11:126,-0.5937,2.4619,12.9551,54.4262,-0.682,0.018,0.0295,194.7031
13:19:11:146,-0.8008,2.2536,14.333,53.7089,-0.6549,0.1096,0.1166,194.7969
13:19:11:167,-0.5146,2.1506,15.1614,55.0472,-0.6168,0.3461,0.2785,194.8438
13:19:11:191,0.1821,2.0644,15.3876,54.3876,-0.5654,0.564,0.4407,194.8281
13:19:11:209,0.7818,1.7508,15.5134,54.5414,-0.5228,0.6103,0.4916,194.6562
13:19:11:227,0.8441,1.1953,16.1179,53.569,-0.4179,0.4052,0.4343,194.2969
13:19:11:248,0.6884,0.428,16.6266,54.5369,-0.1409,0.0636,0.392,193.8281
13:19:11:274,0.4251,-0.3466,15.7109,54.8769,0.3223,-0.0584,0.4242,193.3438
13:19:11:292,0.364,-0.7823,13.1754,54.018,0.8773,0.1299,0.5392,192.9062
13:19:11:310,0.631,-0.8266,9.778,55.3057,1.3731,0.2974,0.6886,192.4531
13:19:11:327,0.7854,-0.4016,7.0594,53.5815,1.5676,0.1642,0.78,191.9062
13:19:11:349,0.8836,0.2771,5.9844,54.7186,1.3936,-0.1721,0.8157,191.1562
13:19:11:374,1.2379,0.7081,6.2897,55.8639,1.0213,-0.558,0.8213,190.2344
13:19:11:393,1.3337,0.8493,7.148,56.6474,0.6908,-0.8973,0.7336,189.2969
13:19:11:409,1.1673,0.659,7.7669,55.6273,0.5252,-1.1061,0.6002,187.8125
13:19:11:427,0.9398,0.4184,7.8603,54.7392,0.4895,-1.1586,0.5179,186.9531
13:19:11:448,0.813,0.2843,7.7753,54.7153,0.4927,-1.0736,0.5099,186.2969
13:19:11:468,0.8105,0.3178,7.3024,54.6183,0.4986,-0.859,0.5446,185.6875
13:19:11:491,0.8584,0.4627,6.4884,54.8598,0.4844,-0.5724,0.5744,185.0938
13:19:11:508,0.789,0.5992,5.7522,54.0031,0.4152,-0.3501,0.5683,184.5
13:19:11:527,0.6861,0.6363,5.429,54.783,0.3041,-0.2611,0.5515,183.7969
13:19:11:549,0.6884,0.7093,5.6097,53.7562,0.1862,-0.2955,0.5648,183.125
13:19:11:574,0.7052,0.8326,6.1113,53.476,0.086,-0.3839,0.5922,182.4688
13:19:11:591,0.9183,1.0876,6.7254,54.2041,-0.0056,-0.4441,0.6103,181.8438
13:19:11:607,1.2966,1.3174,7.3431,54.5406,-0.1065,-0.4206,0.5781,181.5156
13:19:11:702,1.3421,1.5724,7.9393,53.815,-0.2448,-0.3154,0.4591,180.8281
13:19:11:702,1.0955,1.7915,8.5929,54.2834,-0.4232,-0.2009,0.2833,180.1719
13:19:11:702,1.1386,1.9148,9.3567,53.7573,-0.6392,-0.1461,0.1195,179.6406
13:19:11:703,1.3672,1.6873,10.6591,54.0957,-0.9095,-0.2049,-0.06,179.2656
13:19:11:710,1.3433,1.1019,12.8761,53.8492,-1.2237,-0.3168,-0.264,179.1406
13:19:11:730,1.2774,-0.0317,15.0728,53.9963,-1.4115,-0.2986,-0.3993,179.3594
13:19:11:747,1.4546,-1.0612,15.8689,55.4518,-1.1404,0.2071,-0.1998,179.8594
13:19:11:773,1.9083,-0.9942,15.5397,53.418,-0.8413,0.5203,-0.015,179.8594
13:19:11:789,2.5523,-0.4699,14.6083,54.1919,-0.5449,0.5504,-0.0536,180.5469
13:19:11:806,2.4183,-0.0305,13.6291,52.9398,-0.395,0.5877,-0.1924,181.1719
13:19:11:826,1.8568,-0.2628,13.0354,51.9096,-0.2637,0.7917,-0.2097,181.5938
13:19:11:846,1.7168,-0.7955,12.1734,54.6863,-0.0354,0.968,-0.0991,181.9375
13:19:11:866,2.1034,-1.084,10.3754,51.619,0.1526,0.9373,0.067,182.2344
13:19:11:888,2.9043,-0.7584,8.5342,55.5027,0.1619,0.6359,0.1485,182.5625
13:19:11:907,3.8416,-0.2688,7.5179,53.7022,-0.045,0.2633,0.0202,182.7188
13:19:11:926,4.0535,0.3454,7.543,52.1959,-0.3465,0.0902,-0.2392,182.6875
13:19:11:946,3.534,0.6458,8.4301,52.611,-0.5278,0.2215,-0.4984,182.5156
13:19:11:966,2.6864,0.4579,9.0023,52.3908,-0.4706,0.5091,-0.6456,182.8281
13:19:11:992,1.8161,0.3107,8.7366,51.0252,-0.2344,0.6934,-0.6192,183.1094
13:19:12:008,1.2283,0.4675,7.9189,52.5206,0.081,0.6617,-0.4707,184.2812
13:19:12:026,1.0871,0.8003,6.7027,53.8981,0.3135,0.4484,-0.3295,184.6875
13:19:12:047,1.1876,1.2456,5.9234,50.7876,0.4269,0.1693,-0.2499,185.3281
13:19:12:068,1.5288,1.6155,5.6002,51.7519,0.4285,-0.0691,-0.2571,185.7969
13:19:12:092,1.9394,1.9375,5.7654,51.824,0.3084,-0.2273,-0.3529,186.1094
13:19:12:106,2.2483,2.226,6.4573,51.66,0.1308,-0.2837,-0.5258,186.3438
13:19:12:127,2.2471,2.3146,7.7442,50.3169,0.0149,-0.2933,-0.7375,186.4844
13:19:12:146,1.633,2.1314,9.2705,50.6017,0.0003,-0.1868,-0.8946,186.8438
13:19:12:166,0.4478,1.7795,10.6148,49.7454,0.0384,0.0537,-0.8757,187.4219
13:19:12:186,-0.3578,1.4563,11.5234,50.3815,0.1366,0.2998,-0.7157,188.2031
13:19:12:208,-0.2609,1.3402,11.4863,48.3629,0.1784,0.4004,-0.5758,189.2344
13:19:12:225,0.0468,1.309,11.2146,49.3768,0.0487,0.315,-0.5479,190.2344
13:19:12:249,0.1115,1.1726,12.031,49.7073,-0.143,0.2521,-0.5939,191.0156
13:19:12:267,-0.0143,0.6518,13.6435,47.6959,-0.1691,0.4193,-0.6443,191.9844
13:19:12:293,-0.6763,0.1383,13.9571,49.575,-0.0655,0.6468,-0.5841,192.6406
13:19:12:308,-1.6315,0.2556,13.2077,47.8469,-0.0221,0.7131,-0.3593,193.3438
13:19:12:326,-1.6842,0.3502,12.7038,48.8812,-0.0107,0.585,-0.1662,194.0938
13:19:12:346,-1.6423,-0.0856,12.8773,47.7118,0.1374,0.3485,-0.0627,194.6719
13:19:12:366,-2.1212,-0.8757,12.5721,47.6,0.3758,0.0761,0.1576,194.9688
13:19:12:388,-1.9739,-1.5449,11.7281,48.0458,0.5651,-0.1149,0.4681,195.1094
13:19:12:406,-1.0294,-1.7819,10.3311,49.4134,0.5758,-0.2813,0.6884,195.0781
13:19:12:426,-0.3004,-1.3414,8.891,47.6962,0.3633,-0.4947,0.7651,194.6875
13:19:12:446,0.0767,-0.7452,8.5977,48.4048,0.1156,-0.7101,0.7502,194
13:19:12:467,0.0444,-0.5357,9.4093,47.7899,0.0439,-0.7173,0.707,193.125
13:19:12:488,-0.3949,-0.3693,8.8108,48.434,0.1417,-0.5016,0.7504,192.2344
13:19:12:511,-0.4548,-0.1335,7.4652,46.1209,0.3116,-0.2049,0.9097,191.4375
13:19:12:527,0.0289,0.3059,6.1975,46.8478,0.4453,0.0169,1.1062,190.6094
13:19:12:547,0.9913,0.8039,5.3571,47.249,0.4991,0.0665,1.25,189.6406
13:19:12:568,1.6808,1.2456,5.2674,47.6654,0.4466,-0.0369,1.2436,187.8438
13:19:12:588,2.0244,1.5688,5.8527,46.0795,0.3481,-0.21,1.1012,187.125
13:19:12:605,2.1525,1.5963,6.8619,47.3259,0.2972,-0.4137,0.8729,184.9219
13:19:12:626,2.1848,1.424,7.5012,47.1838,0.3329,-0.6086,0.6127,184.2344
13:19:12:645,1.7886,1.2324,8.314,47.0327,0.315,-0.7189,0.3659,183.125
13:19:12:666,1.3887,0.9858,9.5278,45.9016,0.1808,-0.6273,0.205,182.2656
13:19:12:689,1.1254,0.7811,9.875,44.97,0.0661,-0.227,0.1208,181.6719
13:19:12:707,0.9554,0.8757,9.5183,44.97,-0.0439,0.1938,0.0479,181.3594
13:19:12:725,0.9231,0.8266,9.6476,46.7652,-0.1971,0.3016,-0.043,181.1719
13:19:12:745,0.9195,0.5118,10.7202,46.2128,-0.3561,0.1237,-0.1508,181.0781
13:19:12:768,0.9422,-0.1514,12.3027,46.6288,-0.4754,-0.043,-0.2547,181.0781
13:19:12:787,1.3708,-1.0457,13.0246,46.8752,-0.4831,0.0156,-0.2882,181.2031
13:19:12:809,1.554,-1.3318,12.4356,45.7692,-0.4341,0.2657,-0.272,181.4844
13:19:12:835,1.6318,-0.9738,11.8215,45.3126,-0.4906,0.451,-0.2467,182.0625
13:19:12:845,1.5791,-0.4304,12.177,45.3878,-0.6549,0.454,-0.2874,182.3906
13:19:12:866,1.2319,-0.5632,13.2472,45.2339,-0.7875,0.3352,-0.4462,182.7344
13:19:12:893,0.8872,-1.2121,13.3394,45.7383,-0.7148,0.3677,-0.5583,183.125
13:19:12:910,0.9099,-1.3497,11.7832,45.7405,-0.478,0.5767,-0.488,183.6875
13:19:12:926,1.6342,-0.993,9.948,44.7204,-0.2895,0.6281,-0.3015,184.3906
13:19:12:946,2.4135,-0.3813,8.8323,46.2685,-0.2429,0.4042,-0.1726,185.0156
13:19:12:965,2.5691,0.2269,8.4086,45.1134,-0.281,0.0774,-0.2163,185.3906
13:19:12:989,2.2076,0.3825,8.2302,45.0023,-0.3095,-0.1205,-0.3596,185.625
13:19:13:007,1.5994,0.5405,7.6699,46.6953,-0.3047,-0.0483,-0.4888,185.8906
13:19:13:026,1.0775,0.8015,6.9241,45.9611,-0.2754,0.1328,-0.5473,186.3125
13:19:13:047,0.801,1.0948,6.559,47.9752,-0.257,0.2095,-0.5434,186.8594
13:19:13:068,0.7088,1.2432,6.571,46.8169,-0.2144,0.1504,-0.5316,187.5156
13:19:13:099,0.7148,1.2827,6.9265,46.7466,-0.1214,0.0244,-0.5197,188.4844
13:19:13:109,0.7495,1.4012,7.2677,46.16,0.151,-0.0736,-0.4541,189.375
13:19:13:128,1.0129,1.5449,7.3826,46.7419,0.286,-0.2305,-0.4249,189.375
13:19:13:147,0.8668,1.7137,7.8723,47.0284,0.4152,-0.4779,-0.3926,189.9375
13:19:13:168,0.5304,1.7867,8.551,46.6627,0.5031,-0.647,-0.3244,190.4219
13:19:13:189,0.2252,1.5042,9.3399,48.08,0.5087,-0.6619,-0.2203,190.875
13:19:13:206,0.1186,1.3318,10.3503,47.0506,0.436,-0.4539,-0.0648,191.2656
13:19:13:227,0.1426,1.4886,11.5054,46.3382,0.3452,-0.0382,0.0718,191.5781
13:19:13:245,0.1186,1.5832,12.3422,46.4186,0.2525,0.3783,0.1677,191.75
13:19:13:267,0.0576,1.6873,12.839,46.7228,0.2136,0.4984,0.2473,191.7656
13:19:13:291,0.5759,1.497,13.5322,49.2207,0.3089,0.353,0.2082,191.6406
13:19:13:310,0.558,1.0002,13.6052,46.7504,0.3989,0.19,0.1376,191.4531
13:19:13:326,0.0265,0.6351,13.0114,49.5872,0.3201,0.1264,0.1682,191.1562
13:19:13:345,-0.2728,0.6099,12.6834,48.8883,0.1811,0.0814,0.2343,190.9062
13:19:13:367,-0.3913,0.6051,12.8366,48.9089,0.1427,0.0939,0.286,190.625
13:19:13:392,-0.608,0.5321,12.7409,50.1085,0.2828,0.2071,0.3472,190.375
13:19:13:409,-0.5374,0.4064,11.2912,49.0182,0.4431,0.2841,0.3701,190.0625
13:19:13:426,-0.3746,0.434,9.1041,49.4404,0.3755,0.1208,0.3408,189.6875
13:19:13:447,-0.1244,0.4483,7.628,50.1655,0.0373,-0.2749,0.2426,189.2656
13:19:13:466,-0.2238,0.4004,7.9453,51.1394,-0.3795,-0.7069,0.1547,188.8125
13:19:13:493,-0.3566,0.1861,9.9384,48.4594,-0.5678,-0.6968,0.1102,188.625
13:19:13:509,-0.4596,-0.0964,11.3822,48.8426,-0.4866,-0.2603,0.0947,188.3594
13:19:13:530,-0.6751,0.0413,11.1667,49.4748,-0.2983,0.2971,0.1254,188.2031
13:19:13:546,-0.5529,0.3358,9.978,50.9312,-0.0905,0.7616,0.1472,188.125
13:19:13:566,-0.304,0.4507,8.2362,50.4582,0.1028,0.976,0.1464,188.0625
13:19:13:591,-0.2082,0.5573,6.4525,50.1063,0.2341,0.9323,0.1517,187.9531
13:19:13:611,-0.1028,0.586,5.1488,51.6199,0.2788,0.7552,0.1504,187.8125
13:19:13:626,-0.1507,0.349,4.3791,51.3327,0.2123,0.5815,0.1832,187.6562
13:19:13:646,-0.3937,0.1838,4.3073,49.2466,0.0762,0.4481,0.2937,187.4062
13:19:13:667,-0.2262,0.3394,4.8639,50.9555,-0.0349,0.2364,0.3669,187.2188
13:19:13:692,0.1677,0.4866,5.8599,51.5972,-0.0858,-0.0928,0.3193,186.9531
13:19:13:713,0.0779,0.4483,7.3228,49.6963,-0.0863,-0.4078,0.2439,186.5781
13:19:13:767,-0.0598,0.0365,9.2693,51.4681,-0.0221,-0.5583,0.1901,186.1719
13:19:13:767,-0.2202,-0.5405,10.8183,52.421,0.0831,-0.4459,0.1858,185.8594
13:19:13:767,-0.0179,-0.8661,10.9404,51.8803,0.0296,-0.2747,0.1866,185.625
13:19:13:787,0.3078,-0.9355,11.0398,52.7622,-0.2162,-0.137,0.1603,185.4062
13:19:13:810,0.6142,-1.0157,11.8921,52.3726,-0.4586,-0.0281,0.1094,185.1719
13:19:13:826,0.8405,-1.2863,13.0737,50.9507,-0.493,0.059,0.0801,184.9844
13:19:13:846,1.4534,-1.5963,13.1622,52.1873,-0.4024,0.1416,0.0497,184.8438
13:19:13:867,2.2016,-0.3897,10.9751,53.1997,-0.4487,0.1158,-0.1045,184.7812
13:19:13:891,1.8029,0.0245,12.1232,51.4378,-0.6892,-0.1418,-0.4406,184.7188
13:19:13:910,1.123,-0.7847,14.5162,52.147,-0.8711,-0.4307,-0.868,184.75
13:19:13:928,0.0779,-1.8657,15.7336,52.0384,-0.7795,-0.3506,-1.1801,185.0781
13:19:13:946,-0.1723,-1.8621,13.835,52.0063,-0.4743,0.1664,-1.1497,185.8594
13:19:13:968,0.2719,-0.8194,11.1918,53.2938,-0.2354,0.4883,-0.9679,187.75
13:19:13:991,0.4442,0.0078,9.6811,51.7142,-0.1758,0.3142,-0.9423,189.0938
13:19:14:010,0.2659,0.179,9.231,51.8779,-0.1483,-0.0848,-1.044,189.7031
13:19:14:027,-0.14,-0.0126,8.6372,52.0729,-0.0274,-0.3303,-1.0981,191.3125
13:19:14:045,-0.6332,-0.0616,7.5658,51.5014,0.1209,-0.2507,-1.0182,191.8906
13:19:14:066,-0.9133,0.1,6.3088,51.1525,0.2195,0.079,-0.7844,193.125
13:19:14:091,-0.5565,0.4807,5.1584,51.3289,0.2703,0.4012,-0.4664,194.3438
13:19:14:108,0.1821,0.8733,4.1074,51.6385,0.3177,0.4982,-0.2288,195.3281
13:19:14:125,0.4155,1.3414,3.6489,51.8178,0.3156,0.311,-0.1678,196.0312
13:19:14:146,0.1857,1.643,3.9027,51.2919,0.2091,0.0273,-0.2254,196.4219
13:19:14:166,-0.359,1.473,4.931,50.066,0.0605,-0.2331,-0.2989,196.625
13:19:14:192,-1.0821,0.9966,6.832,51.5056,-0.1079,-0.4028,-0.3082,196.8281
13:19:14:209,-1.4723,0.5297,9.0825,50.8611,-0.2421,-0.4062,-0.1718,197.1094
13:19:14:226,-1.3586,0.4471,11.138,50.7124,-0.2831,-0.2917,0.0583,197.4688
13:19:14:250,-1.2413,0.568,12.8678,50.2779,-0.229,-0.1319,0.2463,197.8125
13:19:14:265,-0.9695,0.4052,13.7668,50.6462,-0.0828,0.096,0.3635,197.75
13:19:14:287,-0.5637,0.1981,13.4077,51.8333,0.1145,0.4018,0.4652,197.4688
13:19:14:309,-0.3518,0.2807,12.5864,50.0207,0.2471,0.622,0.5627,197.0938
13:19:14:326,-0.2249,0.4519,12.5074,48.8308,0.2804,0.5954,0.638,196.5781
13:19:14:345,0.1366,0.495,12.4021,48.7041,0.3151,0.5235,0.6697,195.9375
13:19:14:366,0.2312,0.7955,11.2493,49.3768,0.388,0.5826,0.6287,195.2656
13:19:14:394,0.1186,1.3378,10.1827,49.147,0.3364,0.5877,0.5185,194.5
13:19:14:409,-0.0286,1.2719,10.5262,49.9661,0.1012,0.2537,0.3451,193.7812
13:19:14:427,-0.5817,0.3262,12.6702,48.6854,-0.1848,-0.4294,0.1488,193.2031
13:19:14:447,-0.5996,-1.1331,15.9946,48.2635,-0.2706,-1.0246,0.135,192.8281
13:19:14:467,0.3772,-2.1494,16.0592,46.0842,0.1079,-1.0241,0.3507,192.6562
13:19:14:491,1.536,-1.6969,12.1088,48.6721,0.7164,-0.4923,0.6572,192.4688
13:19:14:511,2.4518,-0.562,8.308,47.9655,0.9428,-0.1389,0.8082,192.0469
13:19:14:527,2.4614,0.0269,6.7482,48.5638,0.6983,-0.2515,0.6143,191.6719
13:19:14:546,1.7898,-0.2017,7.3312,47.7246,-0.1238,-0.6028,0.0226,190.7344
13:19:14:568,0.8943,-0.5357,8.326,47.3613,-0.2301,-0.3815,-0.015,189.5156
13:19:14:591,0.1115,-0.6027,8.5773,47.112,-0.1084,-0.068,0.1027,189.1719
13:19:14:607,-0.3279,-0.6087,7.798,47.1895,0.0969,0.1256,0.2756,189.1719
13:19:14:628,-0.608,-0.3202,6.5854,46.4217,0.2746,0.1259,0.4679,189.0938
13:19:14:645,-0.4668,0.0114,5.5738,44.2603,0.3934,-0.0504,0.6213,189.0938
13:19:14:665,0.0049,0.3645,4.931,44.8871,0.441,-0.362,0.6617,188.7812
13:19:14:685,0.4047,0.5716,4.9226,45.5129,0.38,-0.7237,0.5999,188.2188
13:19:14:708,0.449,0.7009,5.9844,45.3656,0.2434,-0.9794,0.4953,187.5156
13:19:14:726,0.1809,0.6063,8.0446,44.4208,0.1212,-0.9812,0.381,186.7188
13:19:14:744,-0.1759,0.2688,10.3874,45.4017,0.0298,-0.5751,0.266,185.9844
13:19:14:767,-0.4787,0.3059,11.7137,45.4017,-0.1478,0.0343,0.1222,185.4219
13:19:14:791,-0.9947,0.6099,12.6212,43.4205,-0.3606,0.7059,-0.0017,184.9688
13:19:14:809,-0.9252,0.4771,13.0677,45.4664,-0.3981,1.0289,-0.1007,184.6562
13:19:14:825,-0.6427,0.0616,12.9946,44.4366,-0.2333,0.8247,-0.1876,184.5469
13:19:14:845,-1.0605,-0.1215,13.0198,43.3399,0.0402,0.4739,-0.1591,184.6562
13:19:14:865,-1.2269,-0.4543,12.7397,42.4907,0.2876,0.4202,0.0058,184.875
13:19:14:886,-0.5589,-0.744,11.4372,43.1483,0.3289,0.6116,0.2316,185.125
13:19:14:907,0.6741,-0.5417,9.7254,43.1676,0.1662,0.7344,0.3576,185.2031
13:19:14:926,1.706,0.1012,8.5031,43.04,-0.1204,0.5581,0.2713,185.0469
13:19:14:946,2.1776,0.6147,8.5594,41.9559,-0.4144,0.0944,0.0425,184.6719
13:19:14:966,2.5823,0.0377,10.5358,41.153,-0.5228,-0.2792,-0.1636,184.2969
13:19:14:993,2.872,-1.2085,12.4978,41.8454,-0.3364,-0.2025,-0.269,184.1875
13:19:15:011,2.4841,-2.0093,12.1758,44.2237,-0.0786,0.2473,-0.1814,184.1562
13:19:15:030,2.3656,-1.8561,9.6655,41.6036,-0.0567,0.4758,-0.0246,184.375
13:19:15:045,2.8229,-1.0421,7.5371,41.911,-0.3052,0.3067,-0.0621,184.6875
13:19:15:066,2.8815,-0.1407,7.0918,41.6852,-0.6354,0.0734,-0.2808,184.9062
13:19:15:094,2.3369,0.2616,8.1667,41.0032,-0.7681,0.0092,-0.4901,184.9375
13:19:15:109,1.5875,0.1323,9.0574,42.7303,-0.6243,0.079,-0.6097,185.0312
13:19:15:126,0.5855,0.1514,8.7844,41.4807,-0.3627,0.1442,-0.5814,185.6719
13:19:15:145,-0.122,0.234,7.713,41.2051,-0.1646,0.0976,-0.4238,186.3594
13:19:15:166,-0.3135,0.3502,7.0714,40.8677,-0.0338,-0.003,-0.2049,187.0469
13:19:15:191,0.1234,0.75,6.9241,41.7917,0.093,-0.0723,-0.0411,187.6562
13:19:15:209,0.8022,1.3749,6.723,39.7587,0.1995,-0.1338,-0.0331,188.0312
13:19:15:226,1.4115,1.8609,6.4477,39.3265,0.2064,-0.1902,-0.1673,188.1406
13:19:15:245,1.6102,2.2667,7.0738,39.9423,0.0975,-0.2001,-0.3932,188.1562
13:19:15:266,1.044,2.1386,8.2781,39.667,-0.082,-0.1689,-0.6331,188.2344
13:19:15:292,-0.0538,1.7651,10.1743,38.9079,-0.2445,-0.1138,-0.8126,188.5312
13:19:15:309,-1.045,1.224,12.0669,39.4069,-0.2693,0.0106,-0.8517,189.0781
13:19:15:327,-1.8159,0.732,12.7026,40.9037,-0.1025,0.2106,-0.7135,189.9219
13:19:15:345,-2.3187,0.246,13.2556,38.2113,0.1076,0.1815,-0.472,190.9219
13:19:15:371,-1.6878,-0.0473,13.859,40.5601,0.2485,-0.0116,-0.1172,191.8125
13:19:15:392,-0.7193,-0.0186,13.9032,39.4835,0.3577,-0.0467,0.2015,192.5156
13:19:15:409,-0.0166,0.2197,12.8259,38.9426,0.4016,0.1674,0.3597,192.8594
13:19:15:425,0.0109,0.6411,11.9041,38.4771,0.2762,0.4183,0.3714,192.6094
13:19:15:448,-0.2082,0.5465,11.9639,40.2632,0.0216,0.4782,0.3155,192.1875
13:19:15:466,-0.5913,0.2472,12.6319,38.4198,-0.135,0.3453,0.2857,191.7656
13:19:15:492,-0.614,-0.2544,13.1012,40.4728,-0.0538,0.0883,0.3448,191.4375
13:19:15:509,-0.438,-0.7177,11.9256,39.0813,0.2575,-0.0148,0.4484,191.125
13:19:15:528,0.1019,-0.6949,9.6476,39.0813,0.5366,0.0002,0.5528,190.9531
13:19:15:545,0.8141,-0.3023,8.1859,40.4779,0.5084,-0.0864,0.576,190.5
13:19:15:566,0.886,0.0413,8.4469,39.7595,0.1995,-0.3125,0.4165,189.9375
13:19:15:591,0.3066,-0.0138,9.6667,40.5738,-0.1321,-0.4765,0.1619,189.2344
13:19:15:610,-0.2321,-0.2508,10.4532,38.5395,-0.2035,-0.4401,0.0114,188.625
13:19:15:627,-0.5793,-0.3334,9.9097,38.5821,0.0181,-0.2097,0.0138,188.2812
13:19:15:645,-0.4273,-0.2412,8.0159,40.543,0.3425,0.1216,0.1113,188.2188
13:19:15:666,-0.0645,0.0988,6.0251,41.5395,0.5212,0.3903,0.2165,188.2188
13:19:15:690,0.2659,0.4256,4.9992,40.25,0.4844,0.4068,0.2758,188.1406
13:19:15:708,0.467,0.5872,4.9382,41.7474,0.3475,0.2273,0.2846,187.7969
13:19:15:726,0.4909,0.6482,5.5738,40.5107,0.224,-0.0608,0.2657,187.4531
13:19:15:745,0.3928,0.908,6.5291,39.1332,0.1372,-0.394,0.2617,187.1094
13:19:15:765,0.2383,1.2492,8.1691,39.1348,0.0506,-0.713,0.2833,186.8125
13:19:15:826,0.7184,1.6406,10.3323,42.3788,0.0466,-0.973,0.389,186.5
13:19:15:827,1.7347,2.2512,11.296,40.1326,0.2916,-1.0755,0.478,186.1719
13:19:15:827,2.4877,2.7982,10.7417,38.941,0.6328,-0.9634,0.3456,185.75
13:19:15:844,2.3488,2.6713,9.547,38.3576,0.7595,-0.6643,-0.0294,185.1719
13:19:15:865,1.2942,1.7963,9.3615,41.0251,0.4914,-0.3242,-0.4818,184.7188
13:19:15:885,0.1354,0.5549,10.707,39.6127,0.0011,-0.0584,-0.7426,184.6875
13:19:15:909,-0.7672,-0.7177,12.7277,39.7892,-0.355,0.0843,-0.7031,185.1719
13:19:15:926,-0.6727,-1.3701,13.5609,39.7555,-0.3561,0.2137,-0.3545,186.0156
13:19:15:946,0.0959,-1.0708,11.9149,41.1541,0.139,0.3592,0.4564,186.8594
13:19:15:966,0.9817,-0.2077,9.8295,39.2311,0.0253,0.0769,0.5296,187.2656
13:19:15:993,1.8425,0.2927,9.1867,41.5439,-0.2959,-0.3772,0.3733,187.2656
13:19:16:010,2.3895,0.173,10.7106,39.8396,-0.481,-0.6909,0.1528,186.9062
13:19:16:028,2.7319,-0.4663,12.3255,39.6667,-0.4205,-0.6555,-0.0563,186.9062
13:19:16:048,2.7989,-1.0145,12.1782,40.9245,-0.3305,-0.2792,-0.1828,186.0156
13:19:16:067,2.69,-0.7859,10.3658,39.0509,-0.376,0.0838,-0.2944,185.5
13:19:16:091,2.6397,-0.3585,8.5271,40.309,-0.5518,0.239,-0.4653,185.6094
13:19:16:111,1.949,0.0102,7.5526,41.3845,-0.738,0.2588,-0.5926,185.8594
13:19:16:126,1.22,0.1706,7.488,39.7336,-0.8216,0.2241,-0.6267,186.2344
13:19:16:145,0.7423,0.2735,7.8926,40.2896,-0.7569,0.2249,-0.6054,186.8281
13:19:16:164,0.4071,0.3969,8.1572,40.7538,-0.5662,0.2415,-0.542,187.5625
13:19:16:186,0.1701,0.4735,8.2948,39.9617,-0.2852,0.3075,-0.4382,188.3594
13:19:16:208,0.1569,0.5692,7.7765,40.9836,-0.0234,0.3975,-0.3212,189.1406
13:19:16:226,0.2515,0.8482,6.7039,38.9428,0.1055,0.3783,-0.2195,189.7969
13:19:16:245,0.5627,1.1714,5.9964,39.9617,0.1044,0.2428,-0.1724,190.3438
13:19:16:267,0.7818,1.5042,5.9413,39.6944,0.0067,0.0137,-0.1884,190.7344
13:19:16:283,0.8345,1.8298,7.0475,39.6077,-0.122,-0.1253,-0.2416,191.1719
13:19:16:305,0.7399,1.8082,9.0263,39.7357,-0.1822,0.0367,-0.3023,191.2812
13:19:16:327,0.2982,1.558,10.8231,39.8243,-0.1422,0.3501,-0.3125,191.5312
13:19:16:344,-0.14,1.3605,12.1663,39.1643,-0.0163,0.6572,-0.2573,191.8438
13:19:16:364,-0.0717,1.0229,12.3614,38.4764,0.1063,0.7554,-0.1929,192.2188
13:19:16:384,-0.0358,0.653,12.0322,37.8585,0.1214,0.6111,-0.0738,192.5781
13:19:16:409,0.0109,0.2161,12.4655,37.4678,0.1073,0.4404,0.1248,192.8594
13:19:16:427,0.5795,-0.1263,12.8426,39.0407,0.1089,0.3427,0.2561,193.0312
13:19:16:444,0.9638,0.2448,12.6092,39.9834,0.0186,0.2068,0.2559,193.0156
13:19:16:470,1.3373,0.7057,12.5984,37.1976,-0.1768,-0.0715,0.1275,192.7969
13:19:16:491,1.5085,0.8493,13.8446,39.0803,-0.2892,-0.4832,-0.1244,192.5
13:19:16:511,0.6262,0.0377,16.0808,38.2957,-0.0858,-0.5309,-0.2789,192.2656
13:19:16:526,-0.3578,-1.3078,16.7823,41.2323,0.4093,-0.0291,-0.1758,192.2344
13:19:16:544,-0.6188,-1.9255,13.6842,40.0279,0.718,0.3927,0.0463,192.375
13:19:16:566,-0.4081,-1.2803,9.772,41.7677,0.62,0.2572,0.1821,192.6562
13:19:16:593,-0.2225,-0.6291,7.9034,39.4586,0.3518,-0.2084,0.1829,192.8281
13:19:16:610,-0.2716,-0.5465,7.8603,40.4236,0.1555,-0.5785,0.1794,192.6406
13:19:16:627,-0.4045,-0.6434,8.4636,41.1062,0.1396,-0.6672,0.2665,192.3906
13:19:16:646,0.0037,-0.2005,7.4641,41.9847,0.2594,-0.6177,0.3853,192.1875
13:19:16:664,0.3221,0.0174,6.3675,42.3721,0.3273,-0.4798,0.4663,191.9219
13:19:16:685,0.5268,0.1059,5.8671,42.017,0.2618,-0.3186,0.5238,191.5312
13:19:16:710,0.698,0.1107,5.7857,41.8761,0.179,-0.1698,0.5832,191.0156
13:19:16:726,0.9303,0.3334,6.146,43.1631,0.1537,-0.0795,0.6516,190.4062
13:19:16:744,1.3421,0.592,6.6033,42.5917,0.2352,-0.0656,0.7107,189.7656
13:19:16:765,1.4977,0.7189,6.972,42.3204,0.4155,-0.1927,0.6892,189.0781
13:19:16:785,1.1158,0.9056,7.1767,42.3469,0.555,-0.3359,0.6111,188.2656
13:19:16:809,0.8668,1.0732,7.7047,42.009,0.5151,-0.2864,0.5691,187.4219
13:19:16:826,1.1505,1.4563,8.3511,43.6742,0.3574,-0.0704,0.5395,186.2969
13:19:16:849,1.4714,1.8872,8.4109,42.5558,0.2296,0.1837,0.4122,185.5938
13:19:16:863,1.542,2.0249,8.369,42.5558,0.1089,0.2316,0.1603,184.9375
13:19:16:884,1.4486,1.5556,8.9963,43.5164,-0.0988,0.0265,-0.1431,184.4688
13:19:16:908,1.3648,0.3705,10.8351,43.6213,-0.3824,-0.2576,-0.4081,184.3281
13:19:16:927,1.2032,-0.8984,12.6415,44.7088,-0.6304,-0.3735,-0.5583,184.3125
13:19:16:945,1.4342,-1.5532,13.1814,44.4505,-0.7944,-0.1463,-0.546,184.6719
13:19:16:968,1.7311,-1.3581,12.8103,44.1279,-0.9316,0.1975,-0.4869,185.2656
13:19:16:993,1.5935,-1.1079,13.106,46.196,-1.0698,0.2881,-0.5332,185.9844
13:19:17:010,0.7148,-1.3833,14.6239,45.9876,-1.1079,0.0681,-0.6611,186.6719
13:19:17:029,-0.0418,-2.2092,15.0441,45.6451,-0.8461,-0.0536,-0.6797,187.3125
13:19:17:044,0.1246,-2.5301,12.9815,45.4637,-0.3766,0.1466,-0.4669,188.1094
13:19:17:064,1.3612,-1.8968,9.9624,44.3332,-0.012,0.3823,-0.1226,189
13:19:17:084,2.7151,-0.7847,7.5191,46.567,0.0581,0.385,0.0758,189.7656
13:19:17:110,2.9857,0.0904,6.7745,48.3733,-0.1678,0.1299,-0.0184,190.1094
13:19:17:126,2.295,0.404,7.7729,47.5451,-0.498,-0.1378,-0.2507,190.0625
13:19:17:145,1.4247,0.4124,8.6432,48.0838,-0.6165,-0.2243,-0.4272,190.1094
13:19:17:164,0.7184,0.5226,8.5642,46.7112,-0.4549,-0.1229,-0.485,190.4219
13:19:17:188,0.6106,0.6566,7.6137,47.5413,-0.179,0.0446,-0.4288,190.9531
13:19:17:210,0.8836,0.9188,6.7589,48.085,0.0442,0.0875,-0.3431,191.5469
13:19:17:227,1.1218,1.2516,6.7326,47.6976,0.1228,0.0305,-0.3103,192.0312
13:19:17:246,1.2942,1.3689,7.0235,49.8414,0.1702,-0.0323,-0.3319,192.4219
13:19:17:264,1.4163,1.4072,7.3419,48.6368,0.2426,-0.0851,-0.374,192.7656
13:19:17:284,1.4749,1.3378,7.9213,51.2663,0.3167,-0.1436,-0.4105,193.1094
13:19:17:308,1.3492,1.1726,8.4983,49.8042,0.3598,-0.1929,-0.4291,193.5156
13:19:17:326,0.9063,1.1055,9.5937,49.1138,0.3526,-0.2206,-0.4049,193.9375
13:19:17:353,0.8165,1.2288,10.713,50.6372,0.4738,-0.0403,-0.1189,194.375
13:19:17:364,1.615,1.6586,11.4947,50.6791,0.604,0.0199,-0.0786,194.375
13:19:17:388,2.2076,2.2583,12.2776,50.8706,0.735,0.0247,-0.2025,195.0469
13:19:17:411,1.9993,2.7168,12.4907,52.2642,0.8402,-0.0472,-0.4331,195.1406
13:19:17:426,1.5887,2.3505,12.4991,52.1803,0.7902,0.0154,-0.6643,195.1562
13:19:17:444,1.3026,1.2683,12.7193,51.5479,0.5446,0.4385,-0.7993,195.3125
13:19:17:464,0.4861,0.5848,12.2955,53.7951,0.1515,0.7845,-0.7532,195.7188
13:19:17:484,-0.5494,0.6327,12.1794,53.6478,-0.1646,0.5935,-0.5607,196.3438
13:19:17:510,-1.3047,0.5812,13.6088,52.6123,-0.089,0.1038,-0.2848,197.2031
13:19:17:528,-1.5082,0.0832,14.8226,52.9965,0.372,-0.2094,0.0324,198.0312
13:19:17:545,-1.1742,-0.4411,13.5082,55.032,0.7968,-0.2558,0.3003,198.6875
13:19:17:563,-0.614,-0.6901,10.3526,54.2191,0.8312,-0.2616,0.4908,199
13:19:17:584,-0.1124,-0.6913,7.6735,53.6898,0.4799,-0.4419,0.6117,198.9375
13:19:17:609,0.0552,-0.5309,6.8308,55.2503,-0.009,-0.7019,0.7272,198.5156
13:19:17:626,0.1569,-0.3741,7.8483,53.1197,-0.3073,-0.8259,0.8537,197.9219
13:19:17:643,0.3126,-0.1562,8.9473,53.4288,-0.3409,-0.6979,0.9539,197.1875
13:19:17:663,0.6142,0.1155,9.4285,53.5922,-0.1899,-0.3865,1.0037,195.4688
13:19:17:684,0.959,0.2747,8.8862,54.5393,0.0155,-0.0851,0.9747,193.9375
13:19:17:708,1.196,0.3897,7.9333,54.9131,0.212,0.067,0.9222,193.9375
13:19:17:727,1.3097,0.4567,6.9768,55.8387,0.376,0.0577,0.8359,192.8125
13:19:17:743,1.1733,0.4483,5.9605,53.3683,0.4165,-0.0289,0.7507,191.7656
13:19:17:763,1.0548,0.3071,5.4541,54.967,0.3321,-0.0768,0.7283,190.7031
13:19:17:784,1.22,0.3083,5.7079,54.6161,0.2037,-0.1218,0.7059,189.75
13:19:17:809,1.5623,0.5932,6.2406,54.6343,0.0972,-0.2353,0.6263,188.8594
13:19:17:827,1.8664,0.9463,7.1289,56.6204,0.0304,-0.3506,0.4892,188.0469
13:19:17:893,1.7599,1.2049,8.1129,58.095,0.0069,-0.357,0.3488,187.25
13:19:17:893,1.5492,1.3916,8.7461,54.7085,-0.0115,-0.1708,0.2426,186.6094
13:19:17:894,1.5587,1.564,8.6025,57.1678,-0.1063,0.0087,0.1485,186.1562
13:19:17:909,1.706,1.7651,8.4696,58.1297,-0.2874,-0.0443,0.0657,185.9844
13:19:17:927,2.028,1.8106,9.4536,56.5793,-0.428,-0.3128,-0.0437,185.7188
13:19:17:949,2.5332,1.072,11.1918,54.8419,-0.4421,-0.6347,-0.1612,185.5625
13:19:17:964,3.0479,-0.1083,12.7504,56.5766,-0.4352,-0.7583,-0.2137,185.5312
13:19:17:987,3.6585,-0.8769,13.3119,56.1708,-0.5318,-0.5932,-0.2624,185.6562
13:19:18:011,3.7411,-0.9164,13.173,56.2658,-0.7683,-0.4342,-0.3727,186.0625
13:19:18:028,3.2467,-0.7476,14.0972,56.2224,-0.955,-0.2917,-0.501,186.3906
13:19:18:043,1.9203,-2.1937,16.0927,55.9942,-0.8762,0.2161,-0.5415,186.8594
13:19:18:064,1.6114,-2.1434,13.1383,57.7486,-0.5196,0.9195,-0.3492,187.5156
13:19:18:085,2.2219,-1.4838,9.7625,56.1268,-0.2027,1.262,-0.0262,188.2812
13:19:18:109,2.8624,-0.4782,7.8148,59.314,-0.1286,1.0284,0.1965,188.9688
13:19:18:126,2.9869,0.5824,7.5466,56.9239,-0.1936,0.4681,0.2444,189.2812
13:19:18:143,2.8013,1.1211,8.0255,57.6276,-0.2013,-0.0651,0.1472,189.2188
13:19:18:165,2.3093,1.1343,7.9548,55.6874,-0.0924,-0.2688,-0.0408,189
13:19:18:182,1.6725,1.0792,7.3719,57.2588,0.0048,-0.1471,-0.2075,188.7969
13:19:18:203,1.2092,1.0481,6.8607,58.6589,0.0237,0.091,-0.2877,188.75
13:19:18:229,0.9758,1.078,6.6357,58.0497,0.0224,0.2654,-0.2994,188.8906
13:19:18:248,1.0069,1.2133,6.4118,55.3348,0.0679,0.3339,-0.2675,189.1875
13:19:18:267,1.2655,1.4168,6.1604,56.7134,0.1587,0.3134,-0.2195,189.5312
13:19:18:283,1.5923,1.6969,5.9796,56.8199,0.2349,0.2199,-0.207,190
13:19:18:303,1.9035,1.9603,6.3424,56.9799,0.2328,0.0622,-0.2597,190.2344
13:19:18:328,2.1022,2.0117,7.5359,57.1705,0.1542,-0.0944,-0.3796,190.4531
13:19:18:344,1.9909,1.8346,8.8263,57.132,0.0754,-0.1,-0.5258,190.7031
13:19:18:364,1.5504,1.6442,10.0342,57.975,0.0272,0.0425,-0.6387,191.1094
13:19:18:384,1.0655,1.418,11.1188,58.3487,0.0341,0.2702,-0.6768,191.3906
13:19:18:409,0.7675,1.1797,11.4001,58.1126,0.1278,0.5123,-0.6302,192.0469
13:19:18:428,0.8632,1.0038,10.8027,56.9652,0.2418,0.7323,-0.5431,192.7812
13:19:18:444,0.9207,0.9188,10.1898,57.6977,0.2506,0.8305,-0.4731,193.5312
13:19:18:464,0.6142,0.6602,10.4125,58.2718,0.1198,0.7677,-0.4771,194.1875
13:19:18:484,0.3437,0.1933,10.9644,56.9635,-0.077,0.6263,-0.4715,194.7188
13:19:18:509,-0.5553,0.4016,11.6288,56.5233,-0.2762,0.5419,-0.4081,195.2344
13:19:18:528,-1.2329,0.5166,12.6942,57.1071,-0.4245,0.3986,-0.2105,195.7812
13:19:18:545,-0.9037,0.6327,13.7548,57.0849,-0.375,0.1299,0.1145,196.5312
13:19:18:568,-0.1519,0.4364,14.1343,56.9222,-0.1358,-0.1511,0.4133,196.7188
13:19:18:593,0.0743,0.2137,12.912,56.7718,0.3553,-0.3887,0.6537,196.25
13:19:18:606,0.8441,0.0928,11.5114,57.0299,0.192,-0.3788,0.6926,195.625
13:19:18:628,1.4725,0.2316,11.126,55.8395,-0.012,-0.4433,0.5898,194.8438
13:19:18:644,1.269,0.4567,11.3055,56.1495,-0.0762,-0.467,0.466,194.0312
13:19:18:664,1.0775,0.1981,11.1894,55.1744,0.0037,-0.3708,0.3925,193.3906
13:19:18:686,0.6214,-0.1371,10.3742,56.5515,0.1907,-0.1887,0.4455,192.8594
13:19:18:712,0.3161,-0.3274,9.2417,55.1149,0.4381,0.0135,0.6111,192.3906
13:19:18:729,0.37,-0.2436,7.8986,55.865,0.6919,0.1882,0.7954,191.8906
13:19:18:744,0.7268,0.0509,6.0491,53.6908,0.8117,0.1355,0.9163,191.8906
13:19:18:764,1.1948,0.3873,4.8484,55.8713,0.7603,0.0036,0.943,191.1406
13:19:18:784,1.6497,0.6806,4.4102,55.5429,0.5721,-0.116,0.875,190.1562
13:19:18:811,1.8113,0.7668,4.9406,55.7082,0.3542,-0.1713,0.7549,189.0156
13:19:18:827,1.5767,0.8063,5.8563,54.0753,0.163,-0.1855,0.6314,186.8594
13:19:18:845,1.3636,0.8541,6.8595,53.7466,-0.0072,-0.174,0.5011,186.8594
13:19:18:862,1.2032,1.1007,8.2469,54.8974,-0.0964,-0.0677,0.3555,185.9531
13:19:18:883,1.1817,1.1367,9.371,53.4017,-0.0706,0.1181,0.188,185.25
13:19:18:906,0.9805,1.0445,9.5123,53.3197,-0.0945,0.2771,0.03,184.6719
13:19:18:926,0.6741,0.9343,9.6583,53.3197,-0.2344,0.2689,-0.0608,184.2812
13:19:18:943,0.6106,0.6015,10.8195,53.26,-0.3489,0.087,-0.1077,184.0781
13:19:18:969,0.8513,-0.0353,12.845,52.8218,-0.2655,-0.0512,-0.1314,184.0625
13:19:18:981,1.718,-0.9367,13.4519,53.1596,-0.1712,0.058,-0.1601,184.1406
13:19:19:003,2.7343,-1.2013,12.3769,53.4447,-0.3358,0.2295,-0.2661,184.3125
13:19:19:029,3.5543,-0.5201,11.2648,53.3883,-0.844,0.0987,-0.6225,184.4844
13:19:19:046,3.0958,-0.0952,13.5824,54.3354,-1.3151,-0.1317,-1.0976,184.6719
13:19:19:063,1.0476,-1.7101,18.9694,53.5361,-0.9606,0.4002,-1.1913,185.0156
13:19:19:084,-0.4775,-3.7236,19.3297,52.4448,0.0266,1.2542,-0.709,185.7812
13:19:19:109,-0.1328,-3.7116,13.4064,53.2889,0.6045,1.4785,-0.0062,187.1719
13:19:19:128,1.6449,-2.2883,8.1165,53.7995,0.5606,0.9746,0.3581,189.1719
13:19:19:145,2.8648,-0.2185,6.0874,53.5221,0.2969,0.2476,0.2934,189.5781
13:19:19:169,3.4346,0.9116,6.4417,52.4583,0.1984,-0.1961,-0.0078,189.2812
13:19:19:181,3.5244,0.9906,6.8044,53.762,0.2591,-0.1599,-0.3588,188.8594
13:19:19:204,3.1533,0.9535,5.8204,54.4948,0.2304,0.1608,-0.6275,188.6562
13:19:19:227,2.4949,0.9535,4.4066,52.2134,0.0442,0.341,-0.8179,188.8594
13:19:19:244,1.6617,1.1307,3.9877,52.3318,-0.1545,0.2609,-0.9311,189.4219
13:19:19:263,1.1996,1.1845,4.6628,53.8511,-0.2333,0.0603,-0.9886,190.25
13:19:19:285,0.9494,1.2228,5.8923,52.4888,-0.1862,-0.0387,-1.0089,191.2188
13:19:19:310,0.9255,1.3186,7.1049,53.789,-0.0013,0.005,-1.0075,192.3438
13:19:19:328,1.056,1.667,7.2917,53.6433,0.1582,0.0566,-1.0608,193.5
13:19:19:344,0.771,2.0153,7.0056,52.8496,0.1566,0.0343,-1.121,194.0781
13:19:19:363,0.5532,2.2703,7.0486,53.6127,-0.0021,-0.1266,-1.1351,195.1719
13:19:19:383,0.6801,2.5433,8.0422,53.5193,-0.224,-0.4118,-1.1636,196.3906
13:19:19:404,0.5783,2.5301,9.8918,53.8941,-0.4005,-0.6821,-1.2515,197.6562
13:19:19:425,-0.3159,2.5002,12.6104,53.7815,-0.3944,-0.7253,-1.2699,199.5469
13:19:19:443,-1.7812,1.734,15.4583,52.7961,-0.1643,-0.4411,-1.1876,200.9531
13:19:19:464,-1.8925,1.5461,14.1427,53.6446,0.1185,0.0928,-0.9628,202.4375
13:19:19:482,-1.0928,1.485,11.9771,52.7502,0.2354,0.6364,-0.6824,203.8125
13:19:19:502,-0.4464,1.5927,10.8327,54.0047,0.098,0.883,-0.5375,205.0625
13:19:19:525,-0.0214,1.3222,11.8251,54.9017,-0.1819,0.6569,-0.5473,205.9844
13:19:19:541,-0.3913,0.4854,14.4575,53.9401,-0.3907,0.0606,-0.6272,206.6094
13:19:19:562,-0.9911,-0.6255,17.0959,53.6493,-0.2618,-0.5658,-0.648,207.2188
13:19:19:581,-1.2377,-1.6705,16.3154,52.043,0.2735,-0.6046,-0.5162,207.9062
13:19:19:601,-1.0737,-1.8741,12.7576,54.3354,0.7944,-0.0419,-0.2509,208.6719
13:19:19:623,-0.5709,-1.9172,9.5781,52.946,0.9199,0.4335,-0.0123,209.3125
13:19:19:642,-0.863,-1.5484,8.1584,54.2827,0.6924,0.4835,0.1022,209.7344
13:19:19:662,-1.0438,-1.0038,8.5271,53.1256,0.3939,0.2204,0.2857,209.7969
13:19:19:682,-0.0981,-0.7667,9.3148,54.0297,0.2682,-0.0512,0.5757,209.6875
13:19:19:705,0.5723,-0.3765,8.8694,54.0086,0.4037,-0.1365,0.7816,209.2344
13:19:19:728,1.0368,-0.0581,7.5634,54.0498,0.6453,-0.1445,0.8745,208.5625
13:19:19:744,1.4462,0.1167,6.1963,54.131,0.7968,-0.1362,0.9033,207.6875
13:19:19:763,1.6473,0.2915,5.2638,52.2449,0.799,-0.1333,0.862,206.6562
13:19:19:783,1.6138,0.495,4.743,54.2838,0.694,-0.0872,0.7733,205.5781
13:19:19:804,1.3756,0.8757,5.2745,54.5737,0.5233,-0.0587,0.6436,204.5938
13:19:19:826,1.384,0.7512,6.0443,51.5319,0.4008,-0.0313,0.486,203.6719
13:19:19:844,1.1972,0.0988,6.2514,52.7491,0.3473,0.0167,0.2934,202.9062
13:19:19:863,0.8704,-0.173,6.0515,52.5302,0.2791,0.1549,0.2154,202.5781
13:19:19:883,0.7974,0.4076,5.9342,52.5139,0.139,0.2758,0.3057,202.1406
13:19:19:940,1.3026,1.2623,6.4621,51.1489,-0.0589,0.2822,0.3896,201.8438
13:19:19:941,1.7251,1.8848,7.5478,51.991,-0.2423,0.128,0.2567,201.5312
13:19:19:941,1.7634,1.9662,8.5606,52.8011,-0.3561,-0.0677,-0.0877,201.0938
13:19:19:962,1.2044,1.4922,9.7098,52.1705,-0.4903,-0.2496,-0.497,200.6875
13:19:19:982,0.3533,0.7428,11.8646,52.1552,-0.7425,-0.3556,-0.8158,200.7188
13:19:20:003,-0.5901,-0.0245,14.181,51.3895,-0.9779,-0.178,-0.9894,201.2969
13:19:20:029,-0.9324,-0.7093,14.9148,53.231,-1.028,0.2931,-1.0102,202.2969
13:19:20:044,-0.4153,-0.744,13.7273,51.0437,-0.9345,0.7642,-0.9021,203.5156
13:19:20:062,-0.1735,0.0257,12.7097,52.2406,-0.9542,0.9581,-0.8525,204.7188
13:19:20:085,-0.8379,0.4711,14.0972,51.766,-1.1409,0.7158,-1.0004,205.7344
13:19:20:110,-1.7728,-0.6063,16.6266,51.679,-1.1803,0.3445,-1.1929,206.7344
13:19:20:128,-2.6455,-2.1231,17.1127,50.4558,-0.869,0.4164,-1.187,207.9219
13:19:20:145,-2.2516,-2.3553,14.108,50.8691,-0.3382,0.9168,-0.8115,207.9219
13:19:20:163,-0.3387,-1.5532,11.0206,51.7097,0.1926,0.8524,0.1126,210.6406
13:19:20:183,1.3636,-0.4878,9.4405,51.4944,0.2807,0.3181,0.115,210.6406
13:19:20:203,1.9466,0.2915,8.9293,49.0519,0.3987,-0.0323,-0.0544,211.5938
13:19:20:225,2.0101,0.5776,8.4301,50.02,0.4855,0.0193,-0.2496,211.875
13:19:20:242,1.9083,0.6147,7.4736,49.8623,0.4834,0.3408,-0.399,211.7656
13:19:20:262,1.7251,0.6614,6.4417,48.3271,0.4288,0.679,-0.4659,211.7031
13:19:20:283,1.7084,0.9511,5.599,51.0263,0.3984,0.809,-0.5223,212.2031
13:19:20:304,1.773,1.3581,5.0447,50.9537,0.4314,0.6931,-0.628,212.7031
13:19:20:327,1.712,1.7101,4.8053,49.6145,0.5012,0.4572,-0.7652,213.2656
13:19:20:344,1.5097,2.1745,5.0507,51.4748,0.5824,0.2292,-0.9364,213.8906
13:19:20:362,1.4905,2.2093,5.3811,48.9701,0.6101,0.0393,-1.1277,214.2656
13:19:20:382,1.4055,2.056,5.508,50.2964,0.4738,-0.0515,-1.2938,215.1562
13:19:20:402,0.5508,2.0632,6.1819,48.5686,0.2184,-0.0712,-1.3692,216.25
13:19:20:426,-0.796,2.0536,7.6221,50.0058,-0.0173,-0.0808,-1.236,217.5
13:19:20:444,-1.9153,2.2368,9.6284,47.7523,-0.1273,-0.1229,-0.8802,219.0156
13:19:20:462,-1.8722,2.6618,11.8287,48.0916,0.0168,-0.21,-0.5314,220.5938
13:19:20:481,-0.7612,2.8461,13.185,47.8188,0.3143,-0.3399,-0.4419,221.9375
13:19:20:503,0.0528,2.6881,13.2365,48.5989,0.4746,-0.4198,-0.5583,222.9375
13:19:20:525,0.115,2.3002,13.0258,47.2937,0.4184,-0.4353,-0.7276,223.5625
13:19:20:544,-0.2812,1.8501,13.5142,46.4428,0.3699,-0.3221,-0.9021,224.0625
13:19:20:562,-0.8163,1.4036,13.3933,47.5304,0.2815,-0.1277,-1.0352,224.7344
13:19:20:582,-0.7421,1.1151,12.7971,48.1929,-0.0096,0.0052,-1.2169,226.1094
13:19:20:602,-0.8594,0.4232,13.3502,47.3418,-0.285,-0.0909,-1.4976,227.1875
13:19:20:628,-1.6495,-1.3066,15.6139,45.4063,-0.0999,-0.0627,-1.6009,228.4688
13:19:20:644,-2.3785,-3.4171,16.3597,46.2124,0.5135,0.2476,-1.3804,230.0156
13:19:20:663,-2.5904,-4.3533,13.0497,44.9221,0.9036,0.438,-0.9053,231.8438
13:19:20:683,-1.6292,-3.787,9.1136,45.7905,0.8173,0.16,-0.4816,233.5
13:19:20:705,0.0432,-2.5396,7.4305,44.34,0.5063,-0.3492,-0.4379,234.8438
13:19:20:727,0.7004,-1.4144,7.6604,43.9779,0.2408,-0.7607,-0.6416,235.6094
13:19:20:744,0.6358,-0.9511,8.2613,43.3608,0.1609,-0.9146,-0.8089,236.0938
13:19:20:762,0.3808,-0.8948,8.3068,44.9711,0.1992,-0.8057,-0.8731,236.7656
13:19:20:782,-0.377,-0.9595,7.5562,43.6094,0.2072,-0.5314,-0.7327,237.6719
13:19:20:804,-0.9815,-0.671,6.9062,43.8769,0.1782,-0.2526,-0.432,238.6875
13:19:20:827,-0.9312,0.155,6.3459,44.35,0.1545,-0.1125,-0.1921,239.6875
13:19:20:846,0.4023,1.5772,5.9258,41.6275,0.1334,-0.1674,-0.1316,240.4062
13:19:20:863,0.6394,2.0129,6.4453,44.1628,0.1033,-0.309,-0.1918,240.75
13:19:20:883,0.8105,2.1662,7.0882,40.6786,0.1358,-0.456,-0.2794,240.8281
13:19:20:904,0.5951,2.2871,7.0965,42.2531,0.2719,-0.5767,-0.3854,241.1094
13:19:20:926,0.3568,2.4619,7.1827,42.7331,0.3454,-0.6438,-0.4731,241.4219
13:19:20:944,0.0923,2.5744,7.8064,42.2732,0.282,-0.6297,-0.5279,241.8281
13:19:20:962,-0.1902,2.6486,8.9053,42.0031,0.1752,-0.5466,-0.5742,242.375
13:19:20:985,-0.2573,2.5756,9.3962,42.0031,0.1691,-0.3737,-0.594,243.0156
13:19:21:001,-0.3207,2.4283,9.1184,41.1479,0.2565,-0.3133,-0.6374,243.6719
13:19:21:027,-0.377,2.232,9.2836,39.9701,0.2397,-0.4646,-0.7162,244.375
13:19:21:044,-0.3111,1.6849,10.8267,41.1522,0.0037,-0.7157,-0.8046,245.1094
13:19:21:061,-0.1842,0.8158,13.6495,39.6387,-0.2799,-0.8284,-0.8701,245.9219
13:19:21:082,0.358,-0.1586,15.1841,39.8764,-0.3071,-0.6531,-0.86,246.7969
13:19:21:102,1.2331,-0.5584,13.7452,38.4405,-0.0783,-0.2355,-0.7964,247.8594
13:19:21:126,1.9921,-0.021,11.7245,38.6901,0.028,0.0273,-0.8035,248.9688
13:19:21:143,2.1908,0.1969,12.25,38.5892,-0.2165,-0.1375,-1.0406,249.9219
13:19:21:162,1.4654,-1.0469,14.3115,37.3742,-0.5625,-0.3306,-1.4739,251.2969
13:19:21:182,-0.0885,-2.3206,15.0668,39.134,-0.6842,0.0193,-1.7652,252.5156
13:19:21:201,0.0995,-2.7431,12.8127,38.2642,-0.4764,0.7088,-1.6068,254.1875
13:19:21:224,1.0967,-2.311,9.7361,39.7755,-0.1651,0.9901,-1.2374,256.25
13:19:21:244,1.7623,-1.4168,8.053,35.1953,-0.0005,0.5541,-0.9519,258.0312
13:19:21:263,1.7431,-0.6662,7.883,37.1807,0.0455,-0.2172,-0.8224,259.3125
13:19:21:282,1.3157,-0.2951,7.9692,37.7146,0.074,-0.7218,-0.8019,260.3438
13:19:21:302,1.0811,-0.1287,7.4688,36.3831,0.1382,-0.708,-0.7636,261.3125
13:19:21:327,0.9578,0.1957,6.3783,35.3056,0.228,-0.3804,-0.6672,261.7969
13:19:21:345,1.135,0.7572,5.0447,35.8023,0.2706,0.0071,-0.5503,262.7344
13:19:21:362,1.3756,1.2899,4.0224,36.6473,0.2208,0.1991,-0.5133,263.5938
13:19:21:382,1.3504,1.7101,3.8009,35.9073,0.0671,0.1565,-0.59,264.3125
13:19:21:402,1.1601,2.0321,4.3995,36.5776,-0.1451,-0.011,-0.7258,264.875
13:19:21:426,0.9303,2.0285,5.3631,35.4529,-0.335,-0.1588,-0.8813,265.4375
13:19:21:442,0.3461,2.056,6.504,34.6434,-0.4575,-0.2851,-1.0304,266.625
13:19:21:465,-0.3111,2.1015,7.7537,35.0181,-0.5473,-0.3405,-1.1234,267.5938
13:19:21:481,-0.766,1.922,9.3842,35.6741,-0.6272,-0.333,-1.1676,268.8125
13:19:21:503,-1.5777,1.8226,11.272,35.0393,-0.6783,-0.2126,-1.1796,270.1562
13:19:21:531,-2.3845,1.7137,12.6092,35.1984,-0.641,0.0697,-1.1663,271.5312
13:19:21:546,-3.0812,1.3426,13.3406,35.3812,-0.6021,0.4398,-1.1271,272.8438
13:19:21:569,-3.7348,0.7201,14.1738,35.8326,-0.6629,0.8372,-0.877,274.1875
13:19:21:581,-4.2328,-0.0042,15.2596,35.7676,-0.5143,0.8614,-0.5852,275.4688
13:19:21:601,-4.1024,-0.6782,15.1817,34.6882,-0.2959,0.8124,-0.2174,275.4688
13:19:21:630,-3.5302,-0.5453,14.2851,35.9792,-0.2357,0.5592,0.1286,276.5781
13:19:21:646,-2.4156,-0.1167,14.7556,35.0373,-0.176,0.1379,0.2748,278.1562
13:19:21:665,-1.8183,-0.4471,16.1658,34.2224,0.184,-0.198,0.3403,278.3594
13:19:21:681,-1.4137,-1.0588,16.3118,35.1511,0.7137,-0.1708,0.4828,278.1875
13:19:21:702,-0.3016,-1.5293,13.9404,36.6418,1.053,0.0737,0.5813,277.875
13:19:21:726,0.9386,-1.7017,10.6783,36.0413,1.0227,0.112,0.568,277.2812
13:19:21:744,1.8927,-1.5604,8.4516,36.2528,0.7523,-0.0699,0.4535,276.6719
13:19:21:761,1.7263,-0.9104,7.488,37.0191,0.3902,-0.2547,0.2244,276.0312
13:19:21:781,0.8333,-0.483,7.6951,38.6406,0.1009,-0.2419,0.0705,275.7188
13:19:21:803,0.3245,-0.7236,8.0363,35.7937,-0.0274,0.0007,0.0713,275.2344
13:19:21:827,-0.0981,-0.7643,7.7717,37.5639,0.0186,0.1946,0.1941,275.0156
13:19:21:845,-0.1854,-0.6171,6.9517,38.6096,0.1755,0.1155,0.3605,274.9531
13:19:21:862,0.0384,-0.2221,6.2622,39.2532,0.3505,-0.1708,0.4809,274.875
13:19:21:881,0.3425,0.0425,5.9365,38.9678,0.4916,-0.3897,0.532,274.6562
13:19:21:900,0.5364,0.2137,5.5762,40.3541,0.538,-0.4425,0.5427,274.2344
13:19:21:920,0.7902,0.3777,5.2686,40.1979,0.5017,-0.4276,0.5238,273.7031
13:19:21:942,1.1697,0.7213,5.0411,40.1064,0.3928,-0.5154,0.4356,273.1719
13:19:21:986,1.4211,1.0409,5.3524,39.9869,0.2304,-0.6939,0.2742,272.5938
13:19:21:986,1.2247,1.2408,6.2131,38.8481,0.078,-0.8374,0.1126,272.0469
13:19:22:003,0.6525,1.2528,7.6903,41.4258,0.0109,-0.8872,0.0127,271.4688
13:19:22:028,0.1366,1.0301,9.2513,40.7303,0.0834,-0.7615,-0.0102,271.3438
13:19:22:045,0.1115,0.8517,9.6488,41.1805,0.159,-0.6425,-0.0211,271.3906
13:19:22:062,0.2599,1.0026,9.1352,40.0349,-0.0067,-0.6734,-0.0882,271.4844
13:19:22:082,0.5795,1.1714,9.5925,42.2911,-0.396,-0.7458,-0.24,271.5781
13:19:22:103,1.0595,0.7392,11.4193,41.8608,-0.7662,-0.6664,-0.4507,271.6875
13:19:22:127,1.4115,-0.3932,13.5848,42.6279,-0.9582,-0.4417,-0.5974,271.9688
13:19:22:143,2.0543,-1.6957,15.0058,43.1531,-0.9931,-0.2193,-0.6368,272.4688
13:19:22:161,2.1453,-2.1685,15.4978,42.7823,-0.9316,-0.0741,-0.5836,273.2031
13:19:22:181,1.8532,-1.7986,15.8258,44.1417,-0.8147,0.0084,-0.5719,274.0312
13:19:22:200,1.4941,-1.9686,16.4698,45.9741,-0.5465,0.344,-0.5804,274.7812
13:19:22:221,0.9446,-2.4175,15.3936,45.5623,-0.1566,0.8606,-0.3942,275.4844
13:19:22:242,2.3392,-1.6705,9.4189,43.9343,0.0916,1.0681,-0.0885,276.2188
13:19:22:263,3.0467,-0.507,7.7681,44.8643,0.1398,0.7901,0.042,276.7656
13:19:22:287,3,0.5022,7.5335,46.6355,0.0738,0.2412,-0.06,276.9688
13:19:22:301,2.7259,0.8625,7.579,45.5723,0.0373,-0.1982,-0.2983,276.8906
13:19:22:321,2.0651,0.7464,7.0271,46.4427,0.0527,-0.305,-0.6054,276.8438
13:19:22:344,1.2655,0.6195,6.3304,47.8208,0.0293,-0.1716,-0.8515,277.0156
13:19:22:363,0.5089,0.4687,6.0263,46.7918,-0.0573,0.03,-0.99,277.5625
13:19:22:380,-0.0083,0.4052,6.0658,45.2932,-0.1329,0.1738,-1.0161,278.4219
13:19:22:401,-0.1974,0.3717,6.1496,49.7561,-0.094,0.1956,-0.9538,279.4375
13:19:22:422,-0.1998,0.4495,6.0407,47.7883,0.0445,0.1091,-0.8629,280.5938
13:19:22:445,-0.1268,0.6554,5.9306,46.1402,0.168,-0.0001,-0.7785,281.7344
13:19:22:464,-0.0095,0.9056,6.0694,47.1137,0.1968,-0.0448,-0.7181,282.75
13:19:22:480,0.0791,1.2276,6.832,47.3866,0.1302,-0.0539,-0.6909,283.6406
13:19:22:502,-0.0933,1.321,8.3415,50.1971,0.0312,-0.1303,-0.6909,284.4844
13:19:22:521,-0.8259,1.1797,10.2222,49.4843,0.0109,-0.2124,-0.6866,285.2969
13:19:22:542,-1.197,1.0995,11.4456,50.5328,0.1105,-0.1655,-0.579,286.0469
13:19:22:560,-0.796,1.2647,11.5067,50.4238,0.2591,0.0478,-0.3865,286.8594
13:19:22:581,-0.4608,1.5413,11.1607,53.024,0.298,0.2763,-0.2901,287.6094
13:19:22:602,-0.2824,1.4467,11.8335,49.7254,0.1172,0.4199,-0.3167,288.3281
13:19:22:627,-0.0107,0.6925,13.0677,52.8547,-0.1361,0.4987,-0.3934,288.625
13:19:22:644,-0.0574,-0.015,13.9523,53.4295,-0.2722,0.5131,-0.4704,288.9531
13:19:22:663,-0.3207,-0.4004,14.9603,52.936,-0.3678,0.3696,-0.4749,289.3438
13:19:22:687,-0.8115,-0.7464,16.5213,52.242,-0.4189,0.1307,-0.4009,289.8281
13:19:22:700,-1.4699,-1.3952,18.0847,53.8774,-0.3071,-0.0443,-0.2635,290.3594
13:19:22:721,-1.6435,-2.3074,16.4255,52.8304,0.1949,0.0958,-0.0078,290.7812
13:19:22:748,-0.9863,-2.3266,11.9867,53.0945,0.8261,0.4431,0.3834,291.0781
13:19:22:768,0.2192,-1.898,8.4002,52.2328,1.045,0.4827,0.7286,291.0938
13:19:22:780,0.9817,-1.1175,7.306,51.8034,0.8181,0.0505,0.879,290.6094
13:19:22:801,0.6825,-0.422,8.1931,52.4081,0.4218,-0.5061,0.8058,290.25
13:19:22:823,0.5233,-0.3166,9.3219,55.7775,0.1361,-0.7847,0.6868,289.2812
13:19:22:843,0.5472,-0.4112,9.0418,53.7728,0.1156,-0.7692,0.6452,288.3125
13:19:22:860,0.2168,-0.0569,7.8483,54.9021,0.2408,-0.623,0.6383,287.5469
13:19:22:881,0.6023,0.1694,7.0798,53.8576,0.314,-0.4667,0.7147,286.9219
13:19:22:901,1.2583,0.5441,6.6452,53.1849,0.3326,-0.2973,0.7802,285.9219
13:19:22:928,1.5815,1.2564,6.5423,53.7173,0.269,-0.0299,0.7227,285.1875
13:19:22:947,1.8903,1.7448,6.6189,52.9366,0.0597,0.418,0.5451,284.3125
13:19:22:961,1.5564,1.8022,6.9373,54.6896,-0.3302,1.324,0.041,283.4844
13:19:22:982,0.6801,1.6526,7.2785,54.0813,-0.1779,1.2274,-0.0211,283.4844
13:19:23:002,0.1521,1.5868,7.2055,54.3926,0.1308,0.7482,0.0276,282.7969
13:19:23:028,0.1629,1.7137,6.9289,56.8956,0.4256,0.0614,0.0617,282.4062
13:19:23:045,0.2826,1.9818,6.966,55.6014,0.5955,-0.5458,0.0085,282.0938
13:19:23:062,0.4969,2.0034,7.3802,55.6014,0.5966,-0.774,-0.1447,281.9844
13:19:23:080,0.7172,1.7292,7.8699,55.1816,0.4392,-0.6904,-0.3457,281.9062
13:19:23:100,0.3892,1.2408,8.4576,54.817,0.1979,-0.5698,-0.4904,281.9688
13:19:23:122,-0.2609,0.6147,9.608,55.6266,-0.0408,-0.3921,-0.5157,282.2344
13:19:23:144,-0.7086,0.1335,10.8183,55.4045,-0.2141,-0.2355,-0.4632,283.3438
13:19:23:162,-0.4428,-0.4711,11.9161,54.8221,-0.2756,-0.0219,-0.4003,283.6719
13:19:23:180,0.3868,-0.9547,11.5102,54.4156,-0.4059,0.1416,-0.4038,284.2812
13:19:23:203,0.8369,-0.8158,10.7764,56.3684,-0.7116,-0.0717,-0.5266,284.7656
13:19:23:227,0.5161,-0.7009,11.879,56.0379,-0.9814,-0.4739,-0.7583,285.2188
13:19:23:246,-0.693,-1.5078,14.8083,55.4519,-0.8775,-0.4214,-0.8227,285.7188
13:19:23:262,-1.5238,-2.9167,16.1299,54.2107,-0.429,0.2055,-0.5428,286.0312
13:19:23:281,-1.6674,-3.1969,13.3969,55.0621,-0.11,0.7509,-0.0408,286.9844
13:19:23:301,-0.359,-2.4068,9.5458,54.3802,-0.1435,0.7917,0.2974,287.9844
13:19:23:323,1.4079,-1.4623,7.1229,54.1077,-0.4072,0.385,0.3187,288.5938
13:19:23:342,2.4901,-0.5201,7.1265,54.9767,-0.5595,-0.1642,0.1499,288.5625
13:19:23:362,2.7774,0.1622,8.1177,53.965,-0.4378,-0.5788,-0.1385,288.1562
13:19:23:380,1.9861,0.4591,8.6432,54.9032,-0.2069,-0.6741,-0.3852,287.75
13:19:23:404,0.8572,0.4196,8.4516,53.6297,-0.0141,-0.4704,-0.4344,287.5938
13:19:23:428,0.1294,0.5285,7.8208,55.6414,0.1161,-0.19,-0.3559,288.2969
13:19:23:444,0.0037,0.7931,6.9864,54.1869,0.1302,0.0915,-0.28,288.8125
13:19:23:461,0.1138,1.2324,6.2502,53.7634,0.0583,0.2854,-0.2629,289.0312
13:19:23:480,0.0731,1.5784,5.7366,54.1406,-0.0349,0.3059,-0.2717,289.3906
13:19:23:501,0.1102,1.8525,5.6971,53.8936,-0.1262,0.1205,-0.2946,289.6719
13:19:23:525,0.0791,2.0405,6.4046,54.8232,-0.2064,-0.1895,-0.3577,289.9375
13:19:23:545,-0.1495,1.9902,8.0758,53.2977,-0.2495,-0.4273,-0.4147,290.25
13:19:23:562,-0.7625,1.576,10.4209,53.0361,-0.1641,-0.4307,-0.3569,290.6094
13:19:23:581,-1.3383,1.145,12.7061,52.0305,0.0831,-0.1796,-0.1865,291.0938
13:19:23:602,-1.2628,1.2001,13.4902,54.8305,0.3566,0.1618,-0.0184,291.5781
13:19:23:627,-0.5529,1.3964,12.6439,51.928,0.4431,0.345,0.0023,291.9062
13:19:23:646,-0.2429,1.4371,11.8251,53.8736,0.3249,0.3165,-0.0571,292.0156
13:19:23:663,-0.1878,0.4076,13.3334,53.0106,0.1726,0.1829,-0.1082,291.9688
13:19:23:681,-0.3566,-0.064,14.1175,53.9756,0.1167,0.1309,-0.1133,291.9688
13:19:23:703,-0.5984,0.0676,14.4312,53.7522,0.1225,0.1514,-0.0174,292.0312
13:19:23:727,-0.5542,0.1299,14.849,51.8893,0.1726,0.1384,0.1256,292.1562
13:19:23:747,-0.2357,-0.3561,15.007,52.8554,0.3302,0.1581,0.217,292.2344
13:19:23:764,0.23,-0.7153,13.2305,52.6567,0.6991,0.2492,0.3046,292.1562
13:19:23:780,0.8441,-0.6566,10.3263,51.314,1.0264,0.1863,0.3784,291.9375
13:19:23:804,1.0021,-0.2161,8.6157,51.4131,0.9785,-0.1911,0.3416,291.625
13:19:23:828,0.5963,0.252,9.2106,53.234,0.5697,-0.6944,0.2165,291.2031
13:19:23:844,0.2132,0.4328,10.8626,50.6156,0.1534,-0.9461,0.1256,290.7656
13:19:23:862,0.1534,0.2699,11.4252,51.4827,0.0727,-0.8497,0.1214,290.5
13:19:23:880,-0.0933,0.3897,10.0905,49.0839,0.3108,-0.5133,0.2021,290.4375
13:19:23:900,-0.1783,0.7368,8.2158,51.9711,0.6096,-0.1833,0.3864,290.4219
13:19:23:921,0.042,1.0373,6.5722,50.3635,0.828,0.0273,0.588,290.3594
13:19:23:945,0.4897,1.2264,5.4553,49.1788,0.9542,0.0646,0.7648,290.0625
13:19:23:961,0.935,1.3857,4.9394,48.5605,0.9974,-0.0281,0.895,289.4844
13:19:23:980,1.3157,1.3988,4.9322,50.0181,0.9832,-0.1623,0.9637,288.6562
13:19:24:052,1.5492,1.6287,5.0196,47.8078,0.918,-0.2427,0.9968,287.6875
13:19:24:052,1.87,1.9926,5.496,48.9912,0.8013,-0.337,0.972,286.5781
13:19:24:052,2.3141,2.2117,6.3591,49.5522,0.6863,-0.5301,0.8292,284.8594
13:19:24:070,2.3979,2.2248,7.2857,47.9377,0.6101,-0.675,0.5531,283.8281
13:19:24:080,2.2028,2.0022,8.0626,48.5108,0.5348,-0.6579,0.2308,282.9375
13:19:24:100,1.7239,1.564,8.2757,47.4016,0.4381,-0.4736,-0.0773,282.3906
13:19:24:120,1.0141,1.2683,8.2505,48.3884,0.2722,-0.3152,-0.3268,282.2344
13:19:24:145,0.6573,1.0062,8.9999,46.1471,-0.0325,-0.3508,-0.4589,282.375
13:19:24:161,0.5747,0.5908,10.7621,48.9878,-0.4229,-0.4441,-0.5199,282.7969
13:19:24:180,0.7722,0.0844,12.6523,48.3083,-0.7377,-0.4206,-0.5447,283.4062
13:19:24:200,1.0895,-0.3585,13.4316,46.8578,-0.8551,-0.1969,-0.5431,284.1094
13:19:24:221,0.953,-0.2412,12.7121,47.2193,-0.8418,0.1147,-0.5186,284.9219
13:19:24:249,0.6465,0.2652,12.3506,46.6833,-0.8748,0.2289,-0.481,285.6719
13:19:24:260,0.5879,0.3166,13.3658,47.4415,-0.9705,0.1371,-0.4531,286.2969
13:19:24:281,0.4694,0.0712,14.0026,46.7813,-0.9188,0.1906,-0.4129,286.8906
13:19:24:301,0.6394,0.0305,12.602,46.6307,-0.6333,0.4401,-0.2959,287.1875
13:19:24:320,1.5623,0.234,10.2449,45.1809,-0.3393,0.5858,-0.0914,287.7656
13:19:24:346,2.4733,0.5022,8.2601,47.0434,-0.2365,0.455,0.042,288.1875
13:19:24:363,2.8923,0.6866,7.2031,45.2025,-0.3292,0.177,0.0122,288.3438
13:19:24:381,2.6553,0.7596,7.2689,45.9774,-0.8083,-0.0318,-0.2589,288.2344
13:19:24:399,1.9442,0.7691,7.8591,45.8174,-0.8985,0.1666,-0.3348,288.2188
13:19:24:421,1.3576,0.8039,8.4373,46.3094,-0.7601,0.4036,-0.329,288.2188
13:19:24:445,1.0177,0.9894,8.1931,45.9078,-0.5156,0.5301,-0.2949,288.7656
13:19:24:462,0.6537,1.1474,7.33,46.0083,-0.2953,0.5408,-0.248,289.1719
13:19:24:479,0.3209,1.1774,6.3424,45.7048,-0.18,0.4654,-0.1553,289.5469
13:19:24:499,0.3545,1.3258,5.763,45.6098,-0.1622,0.3285,-0.0664,289.8594
13:19:24:519,0.6094,1.5987,5.7905,46.8629,-0.1816,0.1773,-0.0549,290.0781
13:19:24:545,0.886,1.7448,5.9306,45.4061,-0.2677,-0.031,-0.1234,290.2031
13:19:24:564,0.7782,1.9208,6.8176,45.6992,-0.4187,-0.1698,-0.2051,290.25
13:19:24:582,0.6023,1.7843,8.6384,45.6618,-0.5057,-0.1423,-0.2579,290.3125
13:19:24:599,-0.0705,1.5592,10.8231,44.3825,-0.4141,0.0167,-0.2195,290.7188
13:19:24:620,-0.6559,1.1989,12.5804,43.2495,-0.1385,0.2422,-0.0608,291.0625
13:19:24:645,-0.7852,0.9834,12.6954,45.0193,0.0828,0.3709,0.1363,291.1875
13:19:24:663,-0.5793,1.1654,12.2141,44.978,0.0898,0.3363,0.2708,291.3594
13:19:24:680,-0.1435,1.2252,12.3937,44.899,-0.0445,0.2766,0.3185,291.2812
13:19:24:699,0.6298,0.7201,13.1562,44.0198,-0.1718,0.2604,0.3288,291
13:19:24:719,1.129,0.3154,13.8721,43.1603,-0.2402,0.2332,0.4101,290.6406
13:19:24:743,1.4666,0.647,14.4384,43.0945,-0.1585,0.0691,0.503,290.4531
13:19:24:764,1.8999,1.0565,14.9316,43.0382,0.0762,-0.1828,0.4639,290.0625
13:19:24:780,1.5468,1.1008,14.9316,42.6228,0.3771,-0.3072,0.4165,289.5781
13:19:24:800,1.1003,0.8493,14.1223,43.1611,0.6336,-0.1386,0.4489,289.0312
13:19:24:820,1.2271,0.6686,12.2285,43.1721,0.71,0.1522,0.4433,288.5
13:19:24:845,1.5755,0.6566,10.0809,41.4702,0.5926,0.1376,0.3608,288.0469
13:19:24:862,1.7946,0.6506,8.7773,42.9907,0.3691,-0.1918,0.2127,287.2656
13:19:24:879,1.5312,0.513,8.7354,41.2594,0.1467,-0.5397,0.0591,286.7656
13:19:24:904,0.7734,0.2209,9.6906,41.3013,0.089,-0.5391,-0.0001,286.4062
13:19:24:919,0.1474,-0.0772,9.8965,40.5646,0.1593,-0.2345,0.0407,286.2969
13:19:24:940,-0.523,-0.0832,9.2178,42.3404,0.2924,0.0777,0.1951,286.3438
13:19:24:961,-0.5386,-0.0724,8.0542,41.8031,0.4522,0.198,0.3842,286.3906
13:19:24:979,-0.2525,0.1574,6.7266,42.1204,0.5454,0.0952,0.5283,286.2656
13:19:25:000,0.0839,0.4639,5.9569,40.9989,0.5886,-0.1333,0.6189,285.8906
13:19:25:020,0.5436,0.6698,5.8204,42.1592,0.6306,-0.3711,0.6418,285.3125
13:19:25:049,0.9602,0.8506,5.9162,42.2512,0.6482,-0.4776,0.5997,284.625
13:19:25:066,1.6761,1.2348,5.8887,41.9449,0.5968,-0.5005,0.5296,283.9375
13:19:25:087,1.9418,1.4503,6.413,42.3802,0.4557,-0.496,0.4039,283.2344
13:19:25:100,1.9598,1.5497,6.9744,40.7679,0.2937,-0.4233,0.2263,282.625
13:19:25:120,1.6653,1.6335,7.5885,39.976,0.1494,-0.3421,0.0085,282.1406
13:19:25:149,1.2954,1.3485,8.5091,39.976,0.0013,-0.2994,-0.2054,281.8281
13:19:25:168,0.6226,0.8505,9.6679,39.9788,-0.1499,-0.2747,-0.3673,281.75
13:19:25:183,0.2431,0.3454,10.7537,42.5776,-0.2884,-0.21,-0.4094,281.875
13:19:25:199,0.2443,0.0329,11.8754,40.7005,-0.4112,-0.1716,-0.3497,282.2812
13:19:25:219,0.8884,-0.5369,13.1168,41.1182,-0.4948,-0.1983,-0.2328,282.7969
13:19:25:246,1.7323,-0.8457,13.3885,40.0652,-0.502,-0.1439,-0.1071,283.3125
13:19:25:261,2.3177,-0.5788,12.8678,40.4806,-0.4908,-0.0142,-0.024,283.7031
13:19:25:281,2.18,-0.185,12.8666,41.517,-0.5348,-0.0598,-0.0872,283.9688
13:19:25:299,1.4965,-0.3322,14.2827,41.5271,-0.6453,-0.248,-0.2509,284.0938
13:19:25:319,0.7794,-0.9786,15.6546,39.3505,-0.6669,-0.1735,-0.313,284.1719
13:19:25:346,1.1828,-1.2983,14.521,39.8662,-0.4072,0.2873,-0.1295,284.4531
13:19:25:362,2.2866,-0.8326,11.5892,38.7138,-0.0027,0.6521,0.1808,284.9062
13:19:25:379,3.2646,-0.0712,8.9903,42.6824,0.2578,0.5656,0.3669,285.25
13:19:25:399,3.5352,0.6794,7.6221,41.1611,0.3044,0.2002,0.3318,285.1719
13:19:25:419,3.2562,1.0277,6.9062,40.9302,0.2258,-0.0462,0.1243,284.7344
13:19:25:443,2.5763,1.011,6.3076,41.7286,0.0932,-0.0052,-0.1409,284.2344
13:19:25:460,1.8891,0.9918,5.8384,41.1548,-0.0695,0.218,-0.3263,283.8906
13:19:25:479,1.4067,1.0612,5.6852,40.9242,-0.2205,0.4308,-0.4102,284.0469
13:19:25:500,1.1362,1.1055,5.8575,42.2042,-0.2645,0.4809,-0.4371,284.4062
13:19:25:519,0.9889,1.151,5.9509,42.5546,-0.1816,0.3967,-0.4214,284.8125
13:19:25:539,0.9219,1.2983,5.9341,41.3577,-0.0482,0.2966,-0.3737,285.2656
13:19:25:562,1.0536,1.4706,5.6492,42.3838,0.074,0.2332,-0.3298,285.7188
13:19:25:580,1.1098,1.8453,5.4613,42.0944,0.0914,0.152,-0.3292,286.0938
13:19:25:599,0.9793,2.1949,5.9808,42.3351,-0.0453,0.0553,-0.3748,286.4375
13:19:25:620,0.5663,2.311,7.5203,44.1667,-0.2874,-0.0627,-0.4475,286.7812
13:19:25:648,0.1641,2.2284,9.7242,42.8189,-0.4695,-0.1024,-0.4901,287.2031
13:19:25:664,0.0564,2.0022,11.7844,44.0066,-0.4679,-0.1176,-0.4664,287.7188
13:19:25:681,-0.2357,1.8645,12.5302,44.218,-0.2722,-0.0606,-0.419,288.3125
13:19:25:700,-0.3638,1.7783,12.9061,43.7255,-0.1031,-0.0571,-0.3394,288.6094
13:19:25:720,0.0372,1.5245,13.7668,43.2075,-0.0751,-0.0627,-0.2219,289.125
13:19:25:744,0.8153,1.2839,14.4,43.5545,-0.0932,0.0223,-0.1255,289.7656
13:19:25:760,1.3133,1.3246,14.6969,44.926,-0.1433,0.1874,-0.0973,290.0312
13:19:25:780,1.4977,1.4228,15.1039,41.9626,-0.2115,0.2193,-0.2097,290.1562
13:19:25:799,0.9949,1.1247,15.6331,45.1269,-0.0141,0.1043,-0.2624,290.2656
13:19:25:820,-0.0047,0.4196,15.5888,44.1257,0.3443,0.2004,-0.1449,290.375
13:19:25:847,-0.2489,-0.3573,13.7596,44.9356,0.6844,0.4415,0.0535,290.6094
13:19:25:863,0.0707,-0.5596,10.5657,46.5628,0.7481,0.4202,0.1885,290.875
13:19:25:882,0.4622,-0.3897,8.0578,44.2767,0.5151,0.0361,0.2095,291.0156
13:19:25:898,0.4586,-0.1921,7.4305,43.2641,0.1638,-0.4012,0.1637,290.875
13:19:25:919,0.1881,-0.2508,8.5103,45.684,-0.0543,-0.5855,0.1714,290.6094
13:19:25:941,-0.0394,-0.3789,9.6835,46.8726,-0.0317,-0.4329,0.2527,290.3438
13:19:25:963,-0.3782,-0.2544,9.6607,47.7078,0.1148,-0.1452,0.4047,290.2031
13:19:25:980,-0.4129,0.015,8.6145,47.0724,0.2554,0.0838,0.5901,290.0938
13:19:25:999,0.0253,0.2125,7.2462,47.305,0.3081,0.1027,0.715,289.0781
13:19:26:022,0.218,0.4866,6.6249,46.7514,0.3446,-0.0281,0.8018,289.0781
13:19:26:044,0.4335,0.6387,6.5914,48.0631,0.3936,-0.1921,0.841,288.3438
13:19:26:064,0.4993,0.6111,6.8056,47.291,0.4671,-0.222,0.8599,287.4375
13:19:26:118,0.7172,0.5788,6.7685,48.5308,0.5422,-0.1897,0.8737,286.5
13:19:26:118,1.1242,0.738,6.2873,47.3234,0.5529,-0.2204,0.8146,285.5312
13:19:26:119,1.3445,1.0565,5.8851,47.7449,0.457,-0.3583,0.6785,284.5781
13:19:26:144,1.3014,1.2181,6.255,47.0597,0.3119,-0.4465,0.5257,283.5938
13:19:26:165,1.2978,1.3318,6.9373,50.3015,0.172,-0.4342,0.3754,283.1406
13:19:26:181,1.3133,1.321,7.6747,47.6237,0.0383,-0.3998,0.2138,282.3906
13:19:26:199,1.3409,1.2743,8.2206,49.5546,-0.1371,-0.4276,0.0527,281.8594
13:19:26:219,1.6102,1.0397,9.3423,49.6582,-0.3374,-0.5021,-0.1063,281.4844
13:19:26:245,1.9717,0.5932,11.0685,48.8407,-0.4964,-0.4675,-0.2483,281.2969
13:19:26:265,2.0555,0.0269,12.699,50.4994,-0.5992,-0.2401,-0.3226,281.3281
13:19:26:280,2.2543,-0.4579,13.4687,48.9695,-0.6573,0.1331,-0.3418,281.5625
13:19:26:299,2.7151,-0.574,12.9527,49.8703,-0.7356,0.336,-0.4256,282.2031
13:19:26:320,2.5823,-0.1395,12.5888,48.6672,-0.832,0.1725,-0.6126,282.6406
13:19:26:346,1.7838,-0.1778,13.7009,50.0041,-0.8187,0.0223,-0.7838,283.1094
13:19:26:366,0.5556,-1.1175,15.2512,48.6745,-0.5478,0.2939,-0.692,283.7344
13:19:26:381,-0.116,-2.1602,14.6682,48.6425,-0.1374,0.712,-0.2861,284.5938
13:19:26:399,0.2743,-2.1195,11.709,49.9489,0.1497,0.7147,0.189,285.5469
13:19:26:421,1.5671,-1.4132,8.6994,50.714,0.2064,0.226,0.4527,286.1094
13:19:26:445,2.7367,-0.5441,7.0499,49.3033,0.0272,-0.3426,0.4418,286.0469
13:19:26:462,2.8672,0.6399,7.9836,50.5099,-0.2349,-0.5682,0.2447,285.5938
13:19:26:479,2.1106,0.5273,8.1895,51.0464,-0.4109,-0.3237,0.0146,285.0469
13:19:26:499,1.2858,0.5501,7.9261,50.5,-0.482,0.1554,-0.1031,284.7031
13:19:26:520,0.7579,0.756,7.2605,51.0951,-0.4346,0.5426,-0.0863,284.6562
13:19:26:548,0.4921,1.011,6.5961,50.3778,-0.2578,0.6178,0.0013,284.7812
13:19:26:564,0.7315,1.3617,6.0227,51.2728,-0.0426,0.4489,0.1358,284.9062
13:19:26:580,1.3409,1.831,5.575,52.0369,0.1305,0.2268,0.2559,284.8906
13:19:26:598,1.858,2.2476,5.3715,52.0369,0.1835,0.0731,0.2599,284.7031
13:19:26:619,2.21,2.5552,5.5247,50.4131,0.1193,0.0199,0.1555,284.5469
13:19:26:640,2.186,3.0568,6.5375,50.7229,-0.0423,-0.051,0.0154,284.0625
13:19:26:663,2.8157,3.5021,8.6216,51.3792,-0.2045,-0.2108,-0.0448,283.9531
13:19:26:682,4.2319,3.8469,10.7728,51.459,-0.22,-0.4001,-0.0701,283.8594
13:19:26:701,4.7706,4.1426,12.4188,52.7726,-0.1105,-0.4315,-0.3167,283.9219
13:19:26:719,3.5962,3.6829,12.9252,50.2108,0.0421,-0.2217,-0.8161,284
13:19:26:738,1.7096,2.3002,12.8115,51.5456,0.1116,0.0763,-1.2928,284.2344
13:19:26:761,0.0923,0.7835,13.1012,51.8781,0.0461,0.3118,-1.464,284.9062
13:19:26:778,-0.9971,-0.1419,13.8518,51.3588,-0.0799,0.4295,-1.2627,286.0625
13:19:26:798,-1.3023,-0.337,14.3713,53.6482,-0.1212,0.4569,-0.8139,287.6719
13:19:26:818,-1.0366,-0.0317,14.6502,53.841,-0.0288,0.3035,-0.3207,289.25
13:19:26:839,-0.9001,0.1574,14.7173,54.287,0.1744,-0.0009,0.0567,290.4219
13:19:26:863,-0.6858,-0.009,14.6862,54.0915,0.4173,-0.2486,0.2934,291.0938
13:19:26:880,-0.2118,-0.5441,13.5669,52.8194,0.6663,-0.1892,0.4751,291.0156
13:19:26:899,0.1569,-0.9032,11.2864,53.791,0.8778,0.0404,0.5584,290.6875
13:19:26:919,0.5628,-1.0528,9.116,52.6283,0.9209,0.0769,0.5983,290.1406
13:19:26:938,0.4718,-0.7201,8.3391,53.1487,0.6993,-0.1727,0.5965,289.4531
13:19:26:962,0.2443,-0.2544,9.5614,52.208,0.3382,-0.5578,0.6037,288.7031
13:19:26:980,0.4047,-0.1646,10.804,53.3815,0.172,-0.7421,0.6346,288.0312
13:19:27:001,0.704,-0.1419,10.391,51.792,0.2895,-0.5839,0.6519,287.3906
13:19:27:019,0.728,0.1395,8.6444,52.3853,0.4743,-0.1823,0.6652,286.7656
13:19:27:039,0.7878,0.4962,6.9505,53.1994,0.5468,0.2297,0.6961,286.1094
13:19:27:063,1.0596,0.7009,5.9473,52.0877,0.5385,0.4135,0.7099,285.3281
13:19:27:080,1.2271,0.7907,5.2386,53.4002,0.5252,0.4132,0.6852,284.4375
13:19:27:100,1.4713,0.9511,4.901,51.4655,0.4884,0.319,0.6543,283.5156
13:19:27:118,1.8616,1.1666,4.9286,52.7682,0.4269,0.1608,0.6242,282.6562
13:19:27:139,1.9873,1.3102,5.4517,54.8548,0.3787,-0.0454,0.5307,282.2344
13:19:27:162,1.9274,1.2073,5.8683,53.155,0.3385,-0.2528,0.2439,281.4219
13:19:27:180,1.6928,1.1594,5.9425,53.0966,0.1928,-0.1929,0.1328,281.4219
13:19:27:199,1.5527,1.2624,6.3974,52.9274,-0.0368,-0.137,0.0343,280.4375
13:19:27:219,1.4079,1.1714,7.4174,52.9274,-0.2828,-0.0741,-0.0706,280
13:19:27:240,0.7471,0.8613,8.9042,53.4455,-0.477,-0.063,-0.0738,279.7188
13:19:27:262,0.4622,0.3777,10.7417,52.3626,-0.534,-0.1436,0.0375,279.5938
13:19:27:279,0.9147,-0.2005,12.3027,54.5796,-0.4815,-0.2803,0.1882,279.7188
13:19:27:298,1.609,-0.3789,13.5944,52.7939,-0.3766,-0.2105,0.3491,279.8594
13:19:27:319,2.9103,-0.4232,13.4496,52.5149,-0.3137,-0.0044,0.336,279.8906
13:19:27:338,3.8201,0.0581,12.1303,54.5257,-0.4703,-0.0148,0.0894,279.7812
13:19:27:362,3.8248,0.7129,11.7868,54.1925,-0.836,-0.2576,-0.2661,279.4531
13:19:27:381,3.0563,0.5537,13.9332,54.209,-1.0554,-0.2478,-0.5479,279.125
13:19:27:398,1.8472,-0.5118,16.5931,53.4597,-0.7824,0.3187,-0.5202,279.0781
13:19:27:418,1.6126,-1.1558,15.5253,53.984,-0.2634,0.9371,-0.2328,279.5156
13:19:27:440,2.3369,-0.823,11.7006,52.6104,0.0093,0.9754,0.0367,280.6406
13:19:27:462,3.5938,-0.1143,8.5546,52.2809,0.0045,0.5597,0.0508,281.0625
13:19:27:480,4.0523,0.6722,6.9122,52.0623,-0.1579,0.0686,-0.1868,281.0312
13:19:27:504,3.5579,1.0134,6.6069,52.1462,-0.3665,-0.1399,-0.4565,280.8438
13:19:27:517,2.6373,0.902,6.887,53.2711,-0.5302,0.0404,-0.6304,280.875
13:19:27:538,1.7599,0.8063,7.0798,51.4289,-0.58,0.3802,-0.6643,281.2812
13:19:27:564,1.2176,0.9523,6.8942,52.8441,-0.4802,0.6327,-0.611,281.9688
13:19:27:582,1.0703,1.2731,6.1688,52.2096,-0.3132,0.6098,-0.5535,282.7188
13:19:27:597,1.1673,1.4491,5.435,54.1194,-0.1553,0.3754,-0.5226,283.0938
13:19:27:619,1.0177,1.6179,4.9142,52.6974,-0.0682,0.0673,-0.5005,283.7656
13:19:27:638,0.9722,1.7939,4.8484,53.5305,-0.0615,-0.223,-0.5015,284.3594
13:19:27:664,1.1314,1.8777,5.1357,51.9604,-0.1798,-0.4369,-0.5527,284.8906
13:19:27:680,1.0536,1.9914,6.2334,52.5319,-0.4136,-0.4915,-0.6286,285.4688
13:19:27:700,0.5244,1.7627,8.4325,51.6913,-0.587,-0.2864,-0.6635,286.0625
13:19:27:718,-0.4153,1.3509,11.0146,51.5477,-0.5521,0.0593,-0.5623,286.7188
13:19:27:739,-0.6799,1.0648,12.7684,52.6929,-0.3095,0.3187,-0.4046,287.9219
13:19:27:763,-0.3902,1.0541,12.8223,51.7264,-0.1113,0.2777,-0.3197,288.6875
13:19:27:779,-0.2333,1.0146,12.7038,52.7678,-0.1097,0.0444,-0.2893,289.2188
13:19:27:798,0.0755,0.6219,13.7249,50.7379,-0.1907,-0.0957,-0.2869,289.6094
13:19:27:818,0.7136,-0.0305,14.849,52.1037,-0.2535,-0.0749,-0.2986,289.9375
13:19:27:838,0.8118,-0.3298,15.4379,51.7652,-0.2711,-0.1905,-0.2861,290.2656
13:19:27:862,-0.2166,-0.4878,17.9686,49.8213,-0.1313,-0.4134,-0.1987,290.625
13:19:27:880,-0.0574,-1.2276,17.3126,50.0197,0.274,-0.3343,-0.0467,290.9844
13:19:27:898,0.3904,-1.637,13.1802,50.6227,0.7971,0.21,0.1238,291.3125
13:19:27:918,0.7016,-1.5305,9.0083,52.1745,0.9982,0.6231,0.2346,291.4688
13:19:27:938,0.4287,-1.1666,7.3623,50.7078,0.7454,0.4183,0.2556,291.3906
13:19:27:963,0.1186,-0.9343,8.5797,52.6568,0.2807,-0.1612,0.2929,291.2656
13:19:27:979,0.2312,-0.8457,10.4281,51.9906,-0.0099,-0.6036,0.3943,290.7031
13:19:27:998,0.309,-0.8505,10.4197,51.566,0.0732,-0.6345,0.5043,290.3594
13:19:28:017,0.1749,-0.5836,9.4309,50.7357,0.289,-0.3538,0.6484,290.0156
13:19:28:038,0.4035,-0.0629,8.0255,51.7989,0.4802,-0.0185,0.845,289.5938
13:19:28:064,0.7028,0.3502,6.8164,52.6534,0.62,0.112,0.9749,288.9688
13:19:28:081,0.9422,0.5381,6.2681,52.3424,0.6922,0.0143,1.013,288.1094
13:19:28:099,1.3193,0.6387,6.2993,51.869,0.7406,-0.1442,1.0372,287
13:19:28:118,1.7623,0.8386,6.0299,52.8016,0.828,-0.271,1.0372,285.8594
13:19:28:180,2.0711,1.0193,5.6995,53.436,0.8887,-0.3817,0.9528,284.625
13:19:28:180,2.2375,1.078,5.5511,52.4342,0.8504,-0.4467,0.8055,283.3906
13:19:28:181,2.3141,1.1953,5.6265,52.5371,0.7204,-0.4262,0.6252,282.2656
13:19:28:198,2.356,1.2121,6.0622,52.9998,0.522,-0.3948,0.425,281.2188
13:19:28:218,2.0974,1.0972,6.9349,54.5474,0.3119,-0.3397,0.2021,280.375
13:19:28:238,1.7239,0.7847,7.731,53.9077,0.1409,-0.2395,0.0007,279.7969
13:19:28:261,1.4486,0.4878,8.0865,53.0164,0.0021,-0.1005,-0.137,279.375
13:19:28:279,1.4785,0.234,8.9688,53.2373,-0.225,-0.1029,-0.2182,279.3906
13:19:28:305,1.7934,-0.1287,10.4209,54.1765,-0.4903,-0.2227,-0.2866,279.8438
13:19:28:331,2.0352,-0.6614,12.438,54.1503,-0.8317,-0.2861,-0.4216,280.2812
13:19:28:341,2.2878,-1.0732,13.7153,53.2982,-0.8072,-0.0209,-0.4339,280.8594
13:19:28:377,2.2578,-0.9056,13.5285,53.2943,-0.7774,0.0833,-0.4837,281.4531
13:19:28:380,1.761,-0.6039,13.5848,53.3444,-0.7809,0.0659,-0.5354,282.0625
13:19:28:412,1.0236,-0.8326,14.6538,54.4701,-0.6216,0.2446,-0.5018,282.7031
13:19:28:419,0.5604,-1.5724,14.5317,55.3419,-0.3268,0.601,-0.2856,283.375
13:19:28:440,0.7758,-1.7639,12.4045,55.4908,-0.1217,0.7594,0.0338,284
13:19:28:464,1.8844,-1.4407,9.9552,56.2885,-0.0815,0.5349,0.2428,284.2031
13:19:28:482,2.9486,-0.8481,8.229,55.5237,-0.1774,0.1474,0.2559,284.2812
13:19:28:501,3.2754,-0.2113,7.33,55.9757,-0.3678,-0.0837,0.1299,284.0469
13:19:28:527,2.8492,0.1742,7.0558,55.3604,-0.5728,-0.0124,-0.0155,283.5938
13:19:28:547,2.0783,0.2245,7.1145,56.9779,-0.7004,0.3032,-0.0837,283.4844
13:19:28:563,1.4462,0.4352,6.8463,55.9335,-0.7225,0.5829,-0.0789,283.5625
13:19:28:579,1.3971,0.8589,6.3567,56.2404,-0.6964,0.5802,-0.0981,283.6875
13:19:28:598,1.293,1.2683,6.4154,57.4204,-0.6227,0.3775,-0.134,283.6875
13:19:28:618,0.9518,1.424,7.1899,56.9779,-0.4224,0.2047,-0.1111,283.9219
13:19:28:640,0.7471,1.4599,7.6855,56.9119,-0.1617,0.1096,-0.0549,283.9219
13:19:28:664,0.698,1.5928,7.8639,56.9593,0.0389,0.1067,-0.0033,284.1094
13:19:28:679,0.6753,1.6239,7.8375,56.5469,0.0865,0.2148,0.0338,284.25
13:19:28:697,0.7555,1.8322,7.9022,58.226,-0.0264,0.336,0.0207,284.3125
13:19:28:718,1.0727,1.9998,8.3631,57.6947,-0.2053,0.3994,-0.0882,284.3125
13:19:28:737,1.1769,2.0165,9.3315,57.2064,-0.331,0.3965,-0.2536,284.25
13:19:28:764,1.0033,1.4802,10.5801,59.1409,-0.3452,0.3879,-0.3881,284.2188
13:19:28:782,0.5783,0.7919,11.5222,57.1849,-0.2903,0.4154,-0.4057,284.2969
13:19:28:798,0.2742,0.167,12.0298,58.7596,-0.2914,0.4865,-0.3588,284.5938
13:19:28:818,-0.0262,-0.2604,12.6918,59.9249,-0.3212,0.5863,-0.2688,285.2656
13:19:28:837,-0.0214,-0.7189,13.4292,59.055,-0.2562,0.6585,-0.1513,285.6719
13:19:28:864,0.2383,-0.975,13.422,59.1284,-0.1201,0.6454,-0.0786,286.0469
13:19:28:882,0.5077,-0.9056,12.3781,58.5415,-0.1137,0.4763,-0.0752,286.25
13:19:28:898,0.5544,-0.7859,11.6683,58.9856,-0.2376,0.0255,-0.162,286.3594
13:19:28:918,-0.3111,-0.9415,12.8282,58.247,-0.2069,-0.598,-0.1622,286.4219
13:19:28:939,-1.1276,-1.7196,14.7173,58.6869,0.126,-0.9229,0.0108,286.5312
13:19:28:962,-1.2425,-2.6246,15.2859,57.7662,0.6232,-0.7487,0.2995,286.75
13:19:28:980,-0.5553,-2.9012,12.7828,57.3339,0.8131,-0.3631,0.5352,286.8906
13:19:28:998,0.1258,-2.1889,9.5781,58.0141,0.5561,-0.2494,0.5912,286.8594
13:19:29:018,0.394,-1.5365,8.3008,56.5094,0.1345,-0.3804,0.5275,286.5156
13:19:29:038,0.1749,-1.3294,9.1747,57.8802,-0.0708,-0.4326,0.5211,285.9219
13:19:29:062,-0.2848,-1.1941,9.9516,58.5919,0.0471,-0.3546,0.6125,285.2344
13:19:29:080,-0.6044,-0.9475,9.2286,57.4134,0.2658,-0.2342,0.7728,284.6406
13:19:29:098,-0.5865,-0.6506,7.8627,57.8948,0.4093,-0.1873,0.9419,283.4062
13:19:29:117,-0.1878,-0.416,6.9301,59.0288,0.5249,-0.1879,1.0596,282.9844
13:19:29:138,0.2958,-0.1323,6.1424,58.28,0.6005,-0.2161,1.1126,282
13:19:29:163,0.7543,0.1024,5.4445,57.7661,0.6053,-0.3085,1.098,280.8125
13:19:29:182,1.3385,0.2723,5.1692,57.2675,0.5396,-0.4339,1.001,279.5938
13:19:29:197,1.6797,0.4064,5.3883,59.259,0.4298,-0.5024,0.8338,278.2969
13:19:29:219,1.7946,0.3909,5.9174,58.3039,0.2764,-0.5042,0.6348,277.0469
13:19:29:239,1.6892,0.1419,6.7733,57.8366,0.1023,-0.4044,0.4553,276.0312
13:19:29:266,0.6884,-0.3226,8.897,58.2991,-0.0471,-0.1295,0.3744,275.2031
13:19:29:282,0.9087,-0.2723,9.1496,58.3939,-0.0855,0.1088,0.3672,274.6094
13:19:29:299,1.1709,-0.2843,8.7258,58.3939,-0.049,0.0998,0.2974,274.1875
13:19:29:322,1.5791,-0.4028,8.6492,57.4326,-0.1052,-0.1522,0.184,273.7812
13:19:29:336,2.1322,-0.7835,9.8582,56.9164,-0.3265,-0.5271,0.0319,273.3906
13:19:29:357,2.5033,-1.4491,12.4117,57.9077,-0.6581,-0.8624,-0.1567,273.1094
13:19:29:378,2.5966,-2.2236,15.1303,57.627,-0.9215,-0.8425,-0.3039,273.0312
13:19:29:398,2.3824,-2.4726,15.73,58.1757,-0.9428,-0.3072,-0.3564,273.2188
13:19:29:417,1.8951,-1.9938,14.3629,59.4967,-0.7944,0.3562,-0.3529,273.9219
13:19:29:437,1.4247,-1.7496,13.598,59.3849,-0.6951,0.67,-0.3561,274.4531
13:19:29:466,1.0045,-2.0764,13.3658,58.4668,-0.5968,0.7621,-0.338,274.9531
13:19:29:481,1.1026,-2.4882,12.3075,58.6973,-0.3281,0.764,-0.2102,275.4219
13:19:29:499,2.0101,-2.5863,10.3526,58.8748,-0.0061,0.6795,0.0063,275.625
13:19:29:517,3.0048,-1.9878,8.5187,58.5643,0.1531,0.4138,0.1728,276
13:19:29:539,3.3388,-0.9978,7.9656,60.3176,0.0474,0.0108,0.1414,276.125
13:19:29:564,2.8061,-0.6255,8.8216,58.5877,-0.196,-0.2973,-0.0952,275.9688
13:19:29:579,1.6605,-0.8457,9.2214,57.4084,-0.3467,-0.206,-0.3761,275.75
13:19:29:597,0.3545,-0.7919,8.6695,57.7379,-0.3657,0.238,-0.4805,275.7188
13:19:29:618,-0.2788,-0.4004,7.5047,57.7249,-0.2852,0.6604,-0.3497,276.0312
13:19:29:638,-0.0669,0.0988,6.5483,57.5208,-0.1156,0.7222,-0.105,276.5625
13:19:29:661,0.3628,0.6051,5.9581,58.2885,0.0938,0.4596,0.1126,277.0938
13:19:29:678,0.9746,0.9942,5.6313,57.5289,0.2767,0.1091,0.2356,277.375
13:19:29:696,1.5767,1.3294,5.6337,57.2997,0.3609,-0.1519,0.2519,277.2656
13:19:29:719,2.0196,1.4766,5.9497,58.5986,0.343,-0.2853,0.1624,276.9688
13:19:29:738,2.1429,1.4443,6.6141,56.4691,0.2621,-0.3522,-0.0054,276.6562
13:19:29:763,2.1118,1.3007,7.7609,57.7322,0.1361,-0.358,-0.1865,276.4531
13:19:29:780,2.0328,1.1103,9.0322,57.5056,0.0024,-0.2451,-0.3308,276.4531
13:19:29:797,1.6988,0.8709,10.2162,58.245,-0.1422,0.0462,-0.4808,276.6562
13:19:29:818,0.8716,0.1885,11.5785,57.6878,-0.3156,0.455,-0.6472,277.0469
13:19:29:839,0.0983,-0.5333,12.851,57.1831,-0.4453,0.8383,-0.7045,277.5781
13:19:29:863,-0.14,-0.8733,13.3825,55.901,-0.372,1.0428,-0.5537,278.3438
13:19:29:882,-0.2441,-0.981,13.4184,58.0333,-0.1217,0.8851,-0.3505,278.7656
13:19:29:897,0.1497,-1.1917,12.9922,57.4938,0.1558,0.5735,-0.1721,279.5156
13:19:29:917,0.3341,-1.1091,12.1591,57.9706,0.2991,0.3845,-0.0975,280
13:19:29:938,0.1521,-0.6602,11.934,56.4593,0.1949,0.3288,-0.1162,280.3438
13:19:29:965,-0.3315,-0.6015,13.0485,57.1678,-0.1372,0.1168,-0.2957,280.4375
13:19:29:984,-1.0126,-1.3054,14.3103,55.5614,0.0658,0.1762,-0.2536,280.4375
13:19:30:000,-1.1623,-2.3026,13.8805,56.5127,0.4181,0.3602,-0.0925,280.7656
13:19:30:017,-0.6152,-2.7048,11.3953,56.551,0.5819,0.3189,0.0191,281.1094
13:19:30:040,0.0791,-2.5085,8.8886,55.904,0.4085,0.0252,-0.0161,281.375
13:19:30:063,0.3664,-2.0213,7.889,54.7327,0.0194,-0.3173,-0.1687,281.4531
13:19:30:079,0.2755,-1.8334,8.6408,52.8103,-0.3052,-0.4214,-0.2872,281.4219
13:19:30:097,-0.11,-1.5365,9.5506,54.3003,-0.3694,-0.3644,-0.2499,281.4219
13:19:30:116,-0.5542,-1.1187,10.0043,55.9973,-0.1443,-0.3354,-0.0254,281.625
13:19:30:141,-0.4715,-0.7165,9.638,54.582,0.2437,-0.3642,0.2553,281.9844
13:19:30:162,-0.1938,-0.3118,8.4505,53.2542,0.6104,-0.4451,0.5089,282.2969
13:19:30:181,0.1725,0.003,6.9948,52.8575,0.8189,-0.5759,0.7078,282.0469
13:19:30:245,0.4251,0.2568,6.158,53.5151,0.877,-0.6497,0.85,281.7812
13:19:30:246,0.9398,0.3825,5.9138,52.4341,0.8613,-0.651,0.9075,281.0469
13:19:30:246,1.5156,0.4507,5.8575,55.6891,0.7737,-0.651,0.8415,280.1875
13:19:30:260,1.7,0.3837,6.1939,53.3522,0.6394,-0.6598,0.6993,279.1406
13:19:30:281,1.4881,0.0449,7.1863,50.4068,0.5345,-0.6081,0.576,278.0938
13:19:30:297,1.1912,-0.179,8.2469,51.0389,0.4866,-0.4949,0.4782,277.25
13:19:30:318,0.9746,-0.2795,8.7545,50.1069,0.416,-0.3777,0.3504,276.875
13:19:30:338,0.7483,-0.3573,9.0729,50.071,0.3081,-0.3951,0.2189,276.2188
13:19:30:362,0.9745,-0.896,9.4117,49.997,0.1579,-0.529,0.0761,275.6562
13:19:30:380,1.0955,-1.4539,9.8894,49.8654,-0.0898,-0.655,-0.0222,275.2656
13:19:30:397,1.3672,-2.1338,11.0601,49.8409,-0.3657,-0.6379,-0.0744,275.0156
13:19:30:417,1.7634,-2.7336,12.2381,48.7391,-0.5683,-0.394,-0.1207,274.9688
13:19:30:437,1.9227,-2.9933,12.3195,49.7538,-0.7593,-0.17,-0.1665,275.0625
13:19:30:456,1.433,-2.5959,12.2081,47.2982,-0.9444,-0.1559,-0.1905,275.25
13:19:30:480,0.443,-2.1015,13.1299,46.4143,-0.9734,-0.1937,-0.1394,275.6562
13:19:30:499,-0.4727,-2.0201,14.4982,46.8647,-0.7167,0.006,0.1067,275.9844
13:19:30:517,-0.1232,-2.0464,14.0361,47.2672,-0.3047,0.2675,0.4575,276.3438
13:19:30:538,1.4055,-1.7101,11.7413,46.2373,-0.0983,0.2777,0.6913,276.5312
13:19:30:563,3.0587,-1.2384,9.8858,47.6491,-0.1371,0.0542,0.6796,276.2969
13:19:30:581,3.5591,-0.7081,9.4237,47.5458,-0.2514,-0.0459,0.5166,275.6094
13:19:30:597,3.0635,-0.2173,9.8116,46.005,-0.2562,0.1765,0.3235,274.7969
13:19:30:617,2.3416,-0.1634,9.237,46.7917,-0.1912,0.5208,0.14,274.125
13:19:30:638,1.4127,-0.0904,7.8914,46.7476,-0.1838,0.7613,0.0923,273.7188
13:19:30:662,0.6645,0.0784,6.3459,46.4612,-0.1649,0.7714,0.1645,273.4688
13:19:30:681,0.6454,0.3549,6.2274,45.8511,-0.0916,0.5669,0.2633,273.375
13:19:30:697,0.8848,0.5513,6.2083,44.8294,0.0293,0.3096,0.3573,273.25
13:19:30:716,1.0943,0.7691,6.0634,45.655,0.1601,0.1259,0.405,273
13:19:30:739,1.2044,1.0816,6.0299,44.4456,0.2218,0.0494,0.4002,272.6406
13:19:30:766,1.5288,1.3234,6.1329,43.5502,0.2269,-0.007,0.3773,272.2031
13:19:30:782,2.022,1.5856,6.4513,43.9016,0.1909,-0.1367,0.3086,271.7031
13:19:30:798,2.4578,1.7783,7.1025,44.8487,0.1033,-0.3333,0.168,271.2344
13:19:30:816,2.5033,1.6071,8.2242,44.3581,-0.0336,-0.5567,-0.0571,270.6719
13:19:30:836,2.1405,0.9056,9.7302,42.8709,-0.1563,-0.7596,-0.3063,270.5312
13:19:30:858,1.4235,-0.0126,11.4217,43.8785,-0.2354,-0.8145,-0.4744,270.4688
13:19:30:880,0.6549,-0.6865,13.0461,44.02,-0.2839,-0.595,-0.4334,270.7188
13:19:30:897,0.3664,-1.0169,14.0337,41.6812,-0.286,-0.1429,-0.1995,271.2031
13:19:30:917,0.801,-1.157,14.0637,41.9414,-0.2144,0.3703,0.1011,271.8125
13:19:30:938,1.8401,-1.1941,13.501,41.999,-0.1278,0.6806,0.3131,272.25
13:19:30:955,2.259,-1.0086,13.2616,42.3644,-0.122,0.6084,0.3147,272.3281
13:19:30:976,1.5982,-1.0325,14.4551,41.2146,-0.2413,0.2018,0.135,272.0938
13:19:30:997,0.7004,-1.6969,15.9491,41.6785,-0.2623,-0.1447,-0.0113,271.7031
13:19:31:016,0.2216,-2.7192,15.894,41.4263,-0.0146,-0.1074,0.0212,271.4531
13:19:31:039,0.2395,-3.4327,12.9779,40.801,0.444,0.2921,0.2157,271.4375
13:19:31:064,0.3006,-3.2902,9.1783,42.3839,0.7571,0.63,0.4362,271.4844
13:19:31:082,-0.0358,-2.6917,6.9732,40.6489,0.6626,0.5,0.5986,271.3281
13:19:31:099,-0.5577,-2.1338,7.3383,40.7279,0.2703,-0.0355,0.7137,270.5625
13:19:31:116,-0.3471,-1.8753,9.3052,41.7068,-0.1025,-0.55,0.871,269.7969
13:19:31:137,0.2719,-1.6466,10.2377,41.5736,-0.1281,-0.676,1.0767,268.9531
13:19:31:159,0.2695,-1.3282,9.1771,40.6806,0.1619,-0.4957,1.2072,268.0312
13:19:31:182,0.0803,-1.0469,7.6125,40.1301,0.4453,-0.3005,1.3315,268.0312
13:19:31:198,0.2719,-0.7272,6.5698,43.12,0.5824,-0.2137,1.4988,265.4375
13:19:31:217,0.801,-0.428,6.1975,43.2562,0.6253,-0.2507,1.6301,263.9375
13:19:31:237,1.3337,-0.155,6.2442,41.7324,0.6408,-0.3453,1.6657,262.1406
13:19:31:257,1.5827,0.0281,6.5507,41.3754,0.6472,-0.4374,1.6,260.2031
13:19:31:282,1.8448,0.1083,6.8152,41.8947,0.6541,-0.4552,1.4929,258.2031
13:19:31:296,1.9538,0.0928,7.1289,42.7048,0.6384,-0.3943,1.3534,256.3906
13:19:31:316,1.7946,-0.088,7.6951,41.8294,0.5752,-0.2688,1.1933,254.5938
13:19:31:338,1.5851,-0.337,8.32,41.8294,0.474,-0.0606,1.0575,252.9531
13:19:31:365,1.4522,-0.4363,8.806,42.0704,0.3515,0.2311,0.9619,251.5781
13:19:31:382,1.8448,-0.4866,9.0717,41.3346,0.1427,0.3251,0.653,249.125
13:19:31:401,2.4865,-0.7153,9.2765,41.3346,-0.0623,0.0636,0.3366,248.5781
13:19:31:418,2.9594,-1.2599,10.3203,41.7082,-0.3646,-0.0188,0.041,248.0781
13:19:31:436,3.2263,-2.1135,12.0118,41.5119,-0.5641,0.1797,-0.1622,247.3438
13:19:31:456,3.4095,-2.9479,12.693,39.6104,-0.6176,0.5059,-0.2661,246.9531
13:19:31:481,3.4214,-3.0317,11.703,39.7536,-0.7278,0.6641,-0.321,246.9688
13:19:31:500,3.176,-2.3541,10.7058,41.3087,-0.9955,0.4737,-0.4722,247.2188
13:19:31:518,2.2207,-2.1614,11.879,41.2682,-1.1244,0.1775,-0.6035,247.6094
13:19:31:541,0.7555,-3.0927,13.8865,40.8986,-0.8051,0.0902,-0.3974,248.7188
13:19:31:556,0.2407,-3.6829,13.5752,41.4433,-0.2149,0.0572,0.1579,248.7188
13:19:31:575,1.2966,-3.4099,11.2373,41.1538,0.2341,-0.2105,0.7134,249.5625
13:19:31:599,2.9007,-2.1123,8.4948,41.4292,0.3302,-0.5924,0.9201,250.125
13:19:31:615,3.8883,-0.4639,6.978,40.8188,0.1348,-0.8755,0.7086,249.9688
13:19:31:640,3.9793,0.6399,6.6021,42.7435,-0.1633,-0.8845,0.2671,248.0469
13:19:31:655,3.1617,0.8637,6.9852,40.7657,-0.3915,-0.6353,-0.134,247.2031
13:19:31:676,2.0639,0.6195,7.2378,41.6674,-0.5372,-0.2845,-0.358,246.9844
13:19:31:697,1.0212,0.3897,7.6783,42.8101,-0.534,0.017,-0.3806,246.9688
13:19:31:716,0.297,0.3382,8.1129,41.0619,-0.3209,0.1618,-0.2627,247.3594
13:19:31:738,0.0241,0.4052,8.0327,41.4456,-0.0413,0.1458,-0.0813,247.9062
13:19:31:756,0.0731,0.3669,7.743,39.3422,0.1595,0.1517,0.1089,248.3438
13:19:31:779,0.2994,0.4579,7.3479,42.2039,0.2277,0.1488,0.2623,248.5781
13:19:31:798,0.9051,0.9284,7.3264,39.3185,0.22,0.0452,0.2886,248.5625
13:19:31:816,1.8149,1.1953,7.8663,40.5747,0.1763,-0.1293,0.1382,248.3125
13:19:31:837,2.2028,0.9906,8.8515,40.4977,0.0834,-0.1692,-0.0565,248.1406
13:19:31:857,1.615,0.4794,10.136,40.1981,-0.0035,0.0042,-0.1234,247.7656
13:19:31:880,0.8141,-0.0461,11.7066,41.7283,0.0498,0.2795,-0.0184,247.5781
13:19:31:896,0.2922,-0.489,12.4272,40.5715,0.2195,0.4407,0.192,247.6094
13:19:31:916,0.1115,-0.6794,12.4117,40.9546,0.3523,0.418,0.4303,247.7656
13:19:31:937,0.206,-0.6973,12.4667,41.0305,0.4298,0.2987,0.5928,247.7812
13:19:31:956,0.4981,-0.823,12.6894,40.6672,0.4754,0.2468,0.6548,247.3125
13:19:31:980,1.1852,-1.4168,12.5553,43.5167,0.4109,0.1986,0.6111,246.6562
13:19:31:997,1.463,-2.1614,12.1782,41.9243,0.147,-0.0393,0.4908,245.8594
13:19:32:018,0.6023,-2.6031,13.1263,42.111,-0.1369,-0.3271,0.4745,245.0938
13:19:32:036,-0.274,-3.2543,15.1662,39.7069,-0.0802,-0.427,0.6388,244.4219
13:19:32:057,-0.6906,-3.7415,15.997,42.0645,0.372,-0.1508,0.9629,243.8906
13:19:32:082,0.0612,-2.6282,9.4488,43.1778,0.7462,0.2119,1.2854,243.2969
13:19:32:100,0.4622,-1.7041,7.081,41.865,0.6637,0.19,1.4221,242.4219
13:19:32:119,0.5699,-1.0038,7.142,41.8138,0.2615,-0.1724,1.4213,241.0156
13:19:32:136,0.5939,-0.483,8.4828,40.6281,-0.0892,-0.6377,1.4125,239.3281
13:19:32:157,0.7782,-0.0605,9.2082,41.5144,-0.0991,-1.0377,1.4333,237.7031
13:19:32:181,0.9889,0.0904,9.1172,39.9088,0.1686,-1.2627,1.4444,236.0625
13:19:32:198,1.1864,0.1802,8.6983,42.6075,0.4882,-1.2201,1.4527,234.4375
13:19:32:216,1.5264,0.2759,7.3012,42.2158,0.796,-0.8648,1.4692,232.7656
13:19:32:239,1.8365,0.4352,5.8109,40.8293,0.9225,-0.3897,1.4412,230.2031
13:19:32:255,1.9981,0.5249,5.1488,43.1854,0.8109,-0.0054,1.3371,228.3438
13:19:32:319,1.9693,0.4806,5.4038,42.5532,0.5974,0.1994,1.2048,226.5625
13:19:32:320,1.8688,0.1287,6.0778,41.7302,0.4607,0.2199,1.0798,225.6875
13:19:32:320,1.6976,-0.3861,6.8631,42.8563,0.4237,0.1192,0.9781,224.0938
13:19:32:341,1.8568,-0.7811,7.719,44.3722,0.4096,-0.0078,0.9536,222.6719
13:19:32:354,2.3752,-1.0062,8.7629,41.9087,0.3747,-0.1247,0.9691,221.4844
13:19:32:378,3.0072,-1.072,9.6942,42.3544,0.3513,-0.2646,0.9342,220.2969
13:19:32:398,3.6082,-1.0505,10.2258,41.8371,0.3262,-0.3261,0.8005,219.1094
13:19:32:415,4.0798,-1.2216,10.7692,42.6112,0.2099,-0.2829,0.572,217.9375
13:19:32:436,4.4545,-1.8358,11.5952,42.5211,0.0197,-0.1977,0.3025,216.9062
13:19:32:458,4.4162,-2.4151,11.8119,42.8044,-0.1262,-0.1003,0.0734,216.0469
13:19:32:480,4.5826,-2.7515,11.7784,45.403,-0.2317,-0.0763,-0.0256,215.5156
13:19:32:498,4.7203,-2.3122,11.3786,43.2758,-0.3358,-0.0755,-0.0344,215.3281
13:19:32:515,4.0535,-1.0074,11.0805,42.6654,-0.5031,0.0667,-0.077,215.4062
13:19:32:536,2.7163,-0.1921,11.4073,44.0208,-0.6983,0.267,-0.224,215.5312
13:19:32:558,1.39,-0.1371,12.0441,44.254,-0.7814,0.5725,-0.3894,215.7188
13:19:32:583,0.7483,-0.7153,11.5078,44.1927,-0.6096,0.9006,-0.4121,216.1406
13:19:32:600,1.2834,-1.3162,9.729,44.002,-0.229,0.9845,-0.2342,216.7656
13:19:32:618,2.6409,-1.5927,7.8938,45.9739,0.0943,0.715,0.0247,217.375
13:19:32:635,3.5531,-0.7883,6.9936,44.8601,0.1489,0.116,0.1666,217.7344
13:19:32:657,3.7578,0.2759,7.2821,44.7989,-0.0703,-0.3948,0.0756,217.7188
13:19:32:682,3.4921,0.4759,8.1847,44.404,-0.3907,-0.5234,-0.2688,217.5
13:19:32:703,2.453,0.0281,8.7402,44.2098,-0.6469,-0.2851,-0.7242,217.4219
13:19:32:716,0.8908,-0.2029,9.4057,44.3815,-0.7987,0.0465,-1.0235,217.7812
13:19:32:736,-0.2321,-0.2652,10.1587,45.0562,-0.7198,0.296,-1.036,218.7188
13:19:32:757,-0.5458,-0.264,9.2812,44.6897,-0.2626,0.4313,-0.8262,219.9844
13:19:32:781,-0.3542,-0.1059,7.2785,45.0973,0.2927,0.4449,-0.5063,221.3438
13:19:32:796,0.1019,0.404,5.4996,47.2922,0.604,0.3775,-0.1684,222.3594
13:19:32:816,0.6274,0.8948,4.9226,46.566,0.3771,0.0212,0.1986,222.7031
13:19:32:836,0.8716,1.1558,5.909,47.8234,0.1209,0.0039,0.2455,222.7031
13:19:32:856,0.9877,1.2324,7.4533,45.963,-0.0003,0.1482,0.2418,222.9844
13:19:32:882,1.1505,1.2827,8.9341,46.866,0.0551,0.2385,0.1744,222.5
13:19:32:898,1.1841,1.0337,9.9816,45.6109,0.1744,0.2902,0.1091,222.2188
13:19:32:917,0.7028,0.4938,10.6543,47.8056,0.1846,0.3349,0.1547,221.9375
13:19:32:934,0.2886,0.0257,11.6096,48.5893,0.1758,0.3102,0.2844,221.75
13:19:32:958,0.2455,-0.5058,12.5804,47.5206,0.2186,0.1954,0.413,221.6094
13:19:32:980,0.4215,-0.7524,13.2616,48.8243,0.2495,0.0681,0.5145,221.4062
13:19:32:998,0.8429,-0.902,13.8398,46.7033,0.2669,0.0356,0.5336,221.0625
13:19:33:017,1.2295,-0.9834,13.7117,49.302,0.1417,0.0497,0.4418,220.5938
13:19:33:035,0.9015,-0.8733,13.9392,50.2007,-0.1143,-0.1152,0.3635,219.9688
13:19:33:057,0.3868,-1.1714,15.7887,50.1449,-0.1712,-0.2337,0.3858,219.3125
13:19:33:080,0.1318,-2.0213,17.8824,49.8876,0.2591,0.0167,0.5147,218.7969
13:19:33:097,0.5029,-2.9957,16.0724,50.6667,0.7238,0.4324,0.6916,218.2031
13:19:33:115,0.692,-2.5612,11.703,49.6659,0.6895,0.4183,0.8202,217.7031
13:19:33:135,0.9123,-1.5532,9.2848,51.1424,0.3827,0.0558,0.8133,216.9375
13:19:33:156,1.22,-0.9463,9.3243,50.8102,0.1912,-0.218,0.7161,216
13:19:33:183,1.3995,-0.6542,9.6607,50.6633,0.1971,-0.2781,0.6679,214.9688
13:19:33:198,1.7419,-0.2975,9.31,49.5722,0.2477,-0.2001,0.7376,214.0469
13:19:33:216,2.5368,0.1383,8.9113,50.0012,0.2772,0.0742,0.8623,213.2812
13:19:33:235,3.4286,0.7392,8.5809,51.0871,0.3201,0.4673,0.8884,212.4531
13:19:33:257,3.7387,1.2755,8.3116,49.4258,0.4775,0.7871,0.7534,211.4844
13:19:33:281,3.4274,1.4012,7.9872,49.3525,0.8083,0.8063,0.4902,210.4844
13:19:33:299,2.6469,1.0349,7.3192,50.4699,1.1835,0.6119,0.2676,209.4688
13:19:33:317,1.7551,0.4399,6.3555,51.4575,1.4112,0.4737,0.2018,209.0312
13:19:33:336,1.0464,-0.2795,5.7594,50.4853,1.4805,0.3626,0.2721,208.375
13:19:33:356,0.5616,-0.5501,5.4637,49.3564,1.4117,0.3336,0.3952,207.9375
13:19:33:381,0.2276,-0.3717,4.8819,49.6208,1.1414,0.2087,0.4985,207.5312
13:19:33:398,0.1342,0.0401,4.9801,49.6208,0.7486,-0.0582,0.5632,207.0469
13:19:33:416,0.4993,0.3669,6.1245,49.0613,0.4109,-0.2995,0.5347,206.0938
13:19:33:435,1.123,0.7045,7.142,50.0835,0.1507,-0.5517,0.3536,205.375
13:19:33:456,1.5683,0.6913,8.1895,50.4035,-0.1252,-0.8387,0.0745,204.6875
13:19:33:480,1.1003,-0.9224,11.9999,49.0245,-0.3563,-0.8148,-0.1569,204.1719
13:19:33:497,0.7854,-1.4455,12.5493,50.2781,-0.4738,-0.4598,-0.1878,203.9688
13:19:33:516,0.8189,-1.0684,11.3008,49.2355,-0.5089,0.0766,-0.0789,204.1406
13:19:33:535,1.1098,-0.1048,10.7285,49.4928,-0.6884,0.3429,-0.0128,204.4688
13:19:33:555,0.9374,0.1957,12.3099,49.3997,-0.999,0.2327,-0.1367,204.7031
13:19:33:574,0.2742,-0.5848,14.3737,49.2103,-1.0903,-0.0592,-0.3585,204.7969
13:19:33:599,-0.1052,-1.6622,13.8039,49.9344,-0.7617,-0.003,-0.4259,204.9688
13:19:33:614,0.3138,-1.5951,10.5849,49.4186,-0.3433,0.4446,-0.2366,205.375
13:19:33:635,1.7156,-0.9188,7.4078,48.7396,-0.2101,0.7427,0.013,205.9844
13:19:33:655,2.6194,-0.0748,5.9198,48.6694,-0.4663,0.6329,0.0042,206.4688
13:19:33:682,2.3644,0.4711,6.9493,49.1726,-0.9481,0.2769,-0.2331,206.5938
13:19:33:701,1.5911,0.3621,9.0478,46.224,-1.2386,-0.0539,-0.4768,206.625
13:19:33:715,0.6753,0.1933,9.7888,48.2903,-1.0871,-0.1897,-0.5964,207
13:19:33:735,-0.0119,0.2245,8.9413,47.5691,-0.7079,-0.0627,-0.5434,207.6406
13:19:33:758,-0.1579,0.6171,7.9189,48.6077,-0.44,0.1456,-0.3463,208.4531
13:19:33:782,0.0755,1.0169,7.6831,48.2456,-0.3172,0.2143,-0.1263,208.8281
13:19:33:800,0.6046,1.4443,7.7346,46.7188,-0.2061,0.2268,0.0367,209.4062
13:19:33:817,1.1601,1.8453,7.3611,47.027,-0.0274,0.2265,0.1342,209.7031
13:19:33:835,1.4366,2.1973,6.8918,47.9201,0.1377,0.1472,0.1232,209.7969
13:19:33:856,1.287,2.4008,6.8822,46.1789,0.1928,-0.0331,0.0324,209.7031
13:19:33:885,0.807,2.3816,8.0291,48.048,0.1129,-0.2339,-0.0661,209.5469
13:19:33:900,0.3174,2.0177,9.7218,46.2764,0.0197,-0.2949,-0.0975,209.4219
13:19:33:920,-0.1507,1.6478,11.5521,46.4625,0.0176,-0.2001,-0.0453,209.4844
13:19:33:936,-0.5841,1.4168,12.7708,44.9541,0.1329,-0.0294,0.0886,209.5781
13:19:33:957,-0.9839,1.1199,13.3861,44.9605,0.3095,0.075,0.2559,209.625
13:19:33:982,-0.8786,0.6207,13.9092,45.9335,0.4402,-0.0377,0.4543,209.5
13:19:33:996,0.1091,0.1095,14.8513,45.2895,0.4634,-0.2243,0.6987,209.1719
13:19:34:015,1.3169,0.0545,15.0177,44.9495,0.4586,-0.2289,0.8796,208.625
13:19:34:035,1.8305,0.5213,14.6227,45.8706,0.3976,-0.1016,0.8908,207.7656
13:19:34:058,1.6174,0.6973,14.4324,44.4464,0.245,-0.0267,0.752,206.7031
13:19:34:082,1.2882,0.0952,15.2021,43.1572,0.0972,-0.1373,0.6029,206.7031
13:19:34:099,1.4618,-0.8553,14.7017,44.3921,0.2288,-0.1213,0.5493,204.7969
13:19:34:114,1.7239,-1.3629,12.1782,44.1176,0.591,0.1882,0.5315,204.0938
13:19:34:136,1.7048,-1.303,8.6384,43.7412,0.861,0.4428,0.5107,203.4375
13:19:34:156,1.3433,-0.7823,6.571,44.1481,0.7582,0.2385,0.4647,202.7812
13:19:34:181,0.9422,-0.3849,7.0678,42.9031,0.0136,-0.7098,0.377,202.1094
13:19:34:199,0.9578,-0.4136,8.6456,43.5279,-0.0538,-0.6813,0.3885,201.7812
13:19:34:216,0.8345,-0.4351,8.976,42.6091,0.0514,-0.3399,0.4404,201.0156
13:19:34:236,0.5352,-0.2556,8.0482,43.4917,0.146,0.0239,0.5597,200.5781
13:19:34:257,0.5137,0.0449,6.7362,44.4183,0.1963,0.2177,0.6934,200.1406
13:19:34:283,0.7471,0.3298,5.6516,42.8049,0.1995,0.2412,0.7635,199.6719
13:19:34:300,0.7136,0.5848,5.0579,43.4917,0.2024,0.0966,0.8066,199
13:19:34:317,0.3748,0.5836,4.9789,43.4923,0.2666,-0.2952,0.8993,198.1875
13:19:34:390,0.7495,0.4962,5.3895,42.9629,0.3827,-0.7282,0.9882,197.2812
13:19:34:390,1.4354,0.5441,6.0347,42.2655,0.4791,-1.0087,0.9754,196.375
13:19:34:390,1.6749,0.7165,6.7182,41.5585,0.4839,-1.0097,0.8809,195.3125
13:19:34:402,1.5623,0.8302,7.4557,43.6531,0.3665,-0.8055,0.7874,194.1406
13:19:34:416,1.6234,0.8218,8.6588,44.2321,0.1731,-0.3974,0.6921,193.0156
13:19:34:438,1.8592,0.9918,9.6033,43.6531,-0.0469,0.0548,0.5613,191.9375
13:19:34:455,2.1729,1.2037,10.3287,42.3774,-0.2517,0.1482,0.3635,190.9844
13:19:34:474,2.5679,0.9643,11.5809,43.2478,-0.3611,-0.0134,0.1411,190.1719
13:19:34:499,2.8229,0.3502,12.8223,43.3979,-0.3742,-0.0949,-0.0083,189.3594
13:19:34:517,3.2957,-0.2891,13.3957,43.0267,-0.3787,-0.0233,-0.1242,189.125
13:19:34:540,3.856,-0.6375,12.8725,44.2779,-0.5087,0.1272,-0.3188,189.125
13:19:34:553,3.5543,-0.1778,12.1651,44.4974,-0.8501,0.1243,-0.5593,189.2656
13:19:34:577,2.5511,0.0533,13.4316,43.9747,-1.069,0.0508,-0.7524,189.5781
13:19:34:596,1.1362,-0.8122,15.8677,44.794,-0.7848,0.2526,-0.7135,190.2031
13:19:34:616,0.3365,-1.9842,15.8976,42.4488,-0.1537,0.6958,-0.358,191.0938
13:19:34:642,0.5915,-2.1805,12.1854,42.6908,0.2386,0.8132,0.1139,192.1719
13:19:34:654,1.8077,-1.3425,8.405,44.1925,0.175,0.496,0.3645,192.9219
13:19:34:676,2.8971,-0.2508,6.5016,43.452,-0.1893,0.0755,0.3145,193.0625
13:19:34:700,3.2502,0.6566,6.9601,44.5807,-0.4951,-0.0928,0.119,192.9219
13:19:34:715,3.0994,0.9391,8.0087,44.8701,-0.5238,-0.0062,-0.1279,192.5
13:19:34:735,2.5356,0.847,8.4612,45.346,-0.3467,0.2316,-0.3037,192.1562
13:19:34:758,1.712,0.7907,7.8423,46.8164,-0.1081,0.4739,-0.346,192.0938
13:19:34:781,1.0177,0.9224,6.48,45.5006,0.0389,0.5032,-0.2917,192.3281
13:19:34:799,0.7327,1.0038,5.5068,45.221,0.0868,0.3344,-0.1884,192.7344
13:19:34:817,0.8165,1.1558,5.2063,45.2198,0.1111,0.1102,-0.077,193.3281
13:19:34:842,1.36,1.4527,5.3763,45.4054,0.1305,-0.104,-0.0456,193.625
13:19:34:853,1.9215,1.7735,5.9629,44.8879,0.1457,-0.2638,-0.1319,193.7656
13:19:34:876,2.5428,2.1219,7.5945,45.6918,0.1204,-0.3397,-0.2768,193.7969
13:19:34:898,2.757,1.9986,8.9772,45.6954,0.0072,-0.3104,-0.4515,193.8594
13:19:34:919,2.5966,1.6658,10.2557,45.6698,-0.1188,-0.1138,-0.6651,194.0625
13:19:34:935,2.3381,1.2911,11.1786,45.9025,-0.2152,0.1451,-0.8608,194.4531
13:19:34:954,2.0508,0.8493,11.8574,46.4928,-0.2948,0.3794,-1.0009,195.0625
13:19:34:975,1.4522,0.3394,12.262,47.292,-0.3294,0.4907,-1.0901,195.9688
13:19:34:998,0.2898,-0.4232,12.6307,45.4861,-0.2842,0.3578,-1.1202,197.0781
13:19:35:017,-0.8534,-1.2659,12.9743,48.9074,-0.1542,0.0369,-1.0083,198.2812
13:19:35:035,-1.1671,-1.716,12.7636,50.6057,-0.0373,-0.1492,-0.7215,199.625
13:19:35:054,-0.7517,-1.2767,12.5984,48.1107,-0.1284,-0.0001,-0.3231,200.9062
13:19:35:075,-0.0717,-0.6375,13.6483,49.6732,-0.4016,0.2375,0.0114,201.8906
13:19:35:099,-0.3746,-0.3789,15.1734,50.1648,-0.4847,0.246,0.1619,202.625
13:19:35:118,-0.6535,-0.732,14.5581,50.8802,-0.1595,0.2857,0.2865,202.6875
13:19:35:135,-0.0406,-0.9212,11.7473,49.7332,0.3537,0.3365,0.5217,202.5781
13:19:35:154,1.3062,-0.8206,9.7014,51.0227,0.5926,0.0966,0.7432,202.2812
13:19:35:175,2.4949,-0.5716,9.1256,51.7473,0.5081,-0.3871,0.7944,202.0156
13:19:35:198,2.7918,-0.3777,9.778,52.1001,0.2365,-0.7802,0.6343,201.2344
13:19:35:216,2.3704,-0.4806,10.3203,52.3491,0.0205,-0.7599,0.4138,200.2812
13:19:35:236,1.5276,-0.6243,9.7373,51.0147,0.004,-0.4225,0.2649,199.375
13:19:35:254,1.0141,-0.6662,8.326,53.2759,0.1257,-0.0121,0.2889,198.7344
13:19:35:274,1.0033,-0.4866,6.7554,52.4782,0.2727,0.2731,0.4556,198.3438
13:19:35:299,1.287,-0.1,5.5535,53.7016,0.3862,0.3189,0.6375,198.0625
13:19:35:317,1.4941,0.258,4.8196,53.8132,0.4418,0.1898,0.7296,197.6094
13:19:35:337,1.5923,0.398,4.6089,55.4453,0.4408,-0.0488,0.7235,196.9531
13:19:35:358,1.5288,0.2927,5.0986,52.8151,0.3859,-0.2917,0.6668,196.1406
13:19:35:373,1.281,0.1766,6.0886,54.7908,0.2852,-0.4161,0.6292,194.7969
13:19:35:394,1.2918,0.2915,7.1552,55.341,0.2019,-0.4196,0.6679,193.9844
13:19:35:414,1.3528,0.4423,8.4289,53.3378,0.1545,-0.316,0.7054,193.25
13:19:35:434,1.518,0.6363,8.9796,54.6075,0.1808,-0.1024,0.7129,192.4375
13:19:35:454,1.785,0.835,8.879,54.6075,0.2045,0.1413,0.6609,191.6094
13:19:35:474,2.0256,1.084,9.371,55.3551,0.0828,0.1608,0.515,190.7969
13:19:35:499,2.6002,0.7763,10.774,56.3462,-0.1289,-0.0584,0.295,190.0156
13:19:35:515,2.842,-0.015,12.4643,56.1174,-0.2935,-0.3367,0.0138,189.4062
13:19:35:534,3.036,-0.738,13.8602,56.9981,-0.3856,-0.4331,-0.1804,189.1094
13:19:35:554,3.5579,-1.1797,13.5118,57.3124,-0.3649,-0.1895,-0.2435,189.125
13:19:35:575,3.4382,-0.8613,12.5637,56.7205,-0.478,0.1642,-0.5234,189.3906
13:19:35:600,2.6254,-0.398,12.8833,57.0765,-0.5577,-0.0211,-0.6808,189.7188
13:19:35:616,1.5516,-0.7739,14.7185,56.1633,-0.3161,-0.0134,-0.6872,190.8438
13:19:35:636,0.9135,-1.9495,14.9567,56.4166,0.1539,0.2585,-0.4651,191.7031
13:19:35:654,0.9901,-2.5013,12.3769,55.668,0.4434,0.4047,-0.1066,191.7031
13:19:35:674,1.8113,-2.0931,9.3531,58.2589,0.3784,0.1826,0.1411,193.0312
13:19:35:699,2.6876,-1.0421,7.8603,55.8202,0.0701,-0.0771,0.1216,193.0312
13:19:35:715,3.1221,-0.1682,7.7513,56.3808,-0.2586,-0.0661,-0.1122,193.0938
13:19:35:733,2.9641,0.2819,7.9333,56.0747,-0.5305,0.2657,-0.4374,192.8906
13:19:35:753,2.3309,0.2879,7.7035,55.4041,-0.8013,0.8375,-0.693,192.7344
13:19:35:773,1.1613,0.0988,7.4066,57.2067,-0.9776,1.3794,-0.7418,192.9062
13:19:35:801,0.1605,0.2029,7.5263,57.1871,-0.8767,1.5922,-0.5953,193.5
13:19:35:820,-0.2238,0.4555,7.6197,56.7065,-0.4661,1.3733,-0.3687,194.4062
13:19:35:836,-0.2058,0.6997,7.1624,55.9431,0.0282,0.9411,-0.1418,195.4531
13:19:35:853,0.0408,0.9846,6.3723,55.09,0.392,0.4793,0.0292,196.3281
13:19:35:874,0.3365,1.4419,5.7749,55.4031,0.5633,0.0603,0.0942,196.875
13:19:35:900,0.6932,1.7903,5.7043,55.822,0.5225,-0.2166,0.0359,197.0938
13:19:35:915,0.8189,1.8681,6.3412,55.5564,0.3177,-0.2638,-0.089,196.9062
13:19:35:935,0.7363,1.7376,7.7801,54.3007,0.1364,-0.154,-0.1926,196.8125
13:19:35:953,0.467,1.4491,9.3866,53.9617,0.0663,0.0652,-0.2635,196.8281
13:19:35:974,-0.1495,1.072,10.452,54.3386,0.032,0.2241,-0.2312,196.9688
13:19:35:999,-0.6475,0.5836,11.3989,54.7348,0.016,0.1797,-0.093,197.2188
13:19:36:016,-0.9265,0.0784,12.8678,53.7707,0.1292,0.0148,0.1379,197.5156
13:19:36:035,-0.7493,-0.2592,13.9451,52.4188,0.3712,-0.1008,0.3941,197.7344
13:19:36:053,0.2216,-0.2999,13.5776,52.5054,0.5031,-0.1176,0.5086,197.7188
13:19:36:073,0.9734,0.0772,12.7229,52.7166,0.3638,-0.1618,0.4503,197.3906
13:19:36:099,1.6198,0.4735,12.7217,53.7722,0.025,-0.39,0.2521,196.7969
13:19:36:119,1.6485,0.3729,14.661,52.3135,-0.1497,-0.5335,0.0348,196.1875
13:19:36:136,1.2044,-0.5106,17.1175,51.3054,0.1928,-0.2366,-0.0589,195.7656
13:19:36:154,0.9303,-1.6251,16.0772,51.1544,0.7169,0.3743,0.013,195.6094
13:19:36:175,0.9099,-1.728,11.509,51.1349,0.7835,0.6103,0.1571,195.6094
13:19:36:199,1.2236,-1.0816,8.0949,50.2434,0.4653,0.2779,0.1922,195.6562
13:19:36:215,1.1817,-0.5034,7.1935,50.037,0.1238,-0.2171,0.1334,195.5781
13:19:36:234,0.7926,-0.2616,7.7466,50.0382,-0.017,-0.5285,0.119,195.2188
13:19:36:253,0.5592,-0.2675,8.1117,50.7336,0.0735,-0.6121,0.1832,195
13:19:36:276,0.2802,0.0042,6.2873,47.6405,0.2384,-0.61,0.3123,194.875
13:19:36:297,0.4873,0.064,5.2171,48.114,0.3143,-0.5503,0.4641,194.7031
13:19:36:315,0.6932,0.3035,4.7849,49.2322,0.2322,-0.4712,0.5957,194.4062
13:19:36:333,1.0272,0.4399,5.1848,48.4488,0.0975,-0.4406,0.6966,193.9531
13:19:36:353,1.2954,0.5561,5.7558,46.6601,0.0517,-0.4968,0.7427,193.3125
13:19:36:373,1.5432,0.5202,6.1436,47.6407,0.0993,-0.59,0.7499,192.5469
13:19:36:399,1.8461,0.5321,6.4716,48.1712,0.1558,-0.6654,0.7398,191.7031
13:19:36:467,2.21,0.677,7.1779,46.5268,0.1353,-0.6869,0.711,190.875
13:19:36:467,2.5344,0.9332,8.1703,46.0721,0.0413,-0.6363,0.6327,190.0156
13:19:36:468,2.8217,1.2468,9.1759,46.3752,-0.0668,-0.5333,0.4713,189.1406
13:19:36:482,2.9306,1.2097,9.8032,46.1247,-0.1611,-0.4414,0.2023,188.3906
13:19:36:502,2.6589,0.8182,10.8985,45.2051,-0.315,-0.4182,-0.1234,187.75
13:19:36:516,2.2531,0.0545,12.6642,44.923,-0.5137,-0.3769,-0.3846,187.3594
13:19:36:534,1.9263,-0.6291,14.157,44.1209,-0.6245,-0.1902,-0.5119,187.4844
13:19:36:557,2.3177,-1.1115,14.0984,42.9293,-0.5593,0.1301,-0.4928,188.0156
13:19:36:572,2.8552,-1.0062,12.6786,42.7036,-0.4429,0.426,-0.4541,188.7031
13:19:36:594,3.0048,-0.586,11.4193,42.6523,-0.5321,0.5107,-0.5423,189.3438
13:19:36:617,2.0843,-0.5309,13.1012,43.4831,-0.8975,0.2793,-0.8001,189.9531
13:19:36:636,0.4227,-1.5125,16.0125,43.1185,-1.1249,0.0348,-1.0251,190.6719
13:19:36:654,-0.8247,-2.487,15.6091,43.5358,-0.788,0.3437,-0.9394,191.1562
13:19:36:674,-0.3387,-2.4583,11.9137,42.3237,-0.1633,0.8044,-0.4704,192.3438
13:19:36:698,1.1996,-1.667,8.7773,40.7736,0.1989,0.789,0.0905,193.7031
13:19:36:716,2.4242,-0.5142,7.3527,39.9193,0.2115,0.3608,0.4034,194.6719
13:19:36:733,2.8803,0.4447,7.2964,40.4303,0.0695,-0.1106,0.4189,194.9062
13:19:36:757,2.9079,0.7368,7.3216,39.839,-0.0565,-0.2504,0.258,194.5938
13:19:36:773,2.4865,0.8613,6.8032,39.8093,-0.1326,-0.0126,0.0324,194.0625
13:19:36:793,2.1178,1.1091,6.3124,39.7253,-0.1718,0.3134,-0.1308,193.5469
13:19:36:815,1.6677,1.1295,5.927,39.8749,-0.1302,0.442,-0.2507,193.5312
13:19:36:834,0.9901,1.1462,5.6816,39.6946,-0.0218,0.3586,-0.3215,193.7188
13:19:36:854,0.8333,1.1115,5.514,39.6351,0.098,0.1903,-0.2805,194.0469
13:19:36:875,1.0009,1.1498,5.8671,38.1456,0.1593,-0.0044,-0.1868,194.4219
13:19:36:900,1.3468,1.2827,6.4764,38.6469,0.1569,-0.1181,-0.101,194.75
13:19:36:917,1.7934,1.4671,7.2701,36.9717,0.1361,-0.1698,-0.0392,194.9375
13:19:36:933,2.1788,1.4766,8.2386,38.1402,0.1023,-0.259,-0.0643,195.0156
13:19:36:956,2.1729,1.4671,9.8175,36.4729,-0.0016,-0.2686,-0.1609,195.0312
13:19:36:973,1.9622,1.5317,11.9424,36.5503,-0.0938,0.1533,-0.3569,195.0781
13:19:36:995,1.5827,1.5772,13.6231,36.1707,0.1422,0.3546,-0.4462,195.0781
13:19:37:015,0.8932,1.4587,13.9296,35.6688,0.3715,0.4651,-0.448,195.2344
13:19:37:033,-0.0514,1.4323,13.7979,35.2858,0.4642,0.5637,-0.3007,195.5469
13:19:37:058,-0.4775,1.4168,13.8075,34.5465,0.4927,0.6662,-0.0765,195.9688
13:19:37:071,0.1641,1.4623,13.7979,35.8605,0.4581,0.7387,0.0686,196.4844
13:19:37:093,1.0524,1.6634,13.5309,35.3464,0.2932,0.5317,0.0569,197.25
13:19:37:116,1.2798,1.922,14.9794,34.9679,0.1843,0.1147,-0.028,197.2969
13:19:37:135,1.0931,1.23,17.6909,33.6122,0.53,0.0646,-0.0943,197.2031
13:19:37:153,1.0045,-0.4639,17.2372,35.8735,0.9963,0.3778,-0.0754,197.1094
13:19:37:173,0.6561,-1.3665,14.0421,34.032,1.1489,0.5616,0.0963,197.125
13:19:37:199,1.0691,-1.7472,10.774,34.8511,0.9619,0.4172,0.2071,197.1875
13:19:37:218,1.0763,-1.6167,8.9676,33.9434,0.6322,0.1618,0.2364,197.1719
13:19:37:233,0.6897,-1.4515,8.5953,34.6665,0.4069,0.0193,0.3121,196.9531
13:19:37:253,0.3952,-1.382,8.4445,33.5547,0.4109,0.0343,0.4383,196.625
13:19:37:274,0.2144,-1.2252,7.2438,34.8289,0.5377,0.0838,0.597,196.3125
13:19:37:301,0.2467,-0.914,5.3129,34.7047,0.6109,0.0241,0.7627,195.9219
13:19:37:321,0.6705,-0.5656,3.4633,35.097,0.6091,-0.202,0.8751,195.3906
13:19:37:339,1.1218,-0.1718,2.2339,33.695,0.5228,-0.6102,0.9041,194.6875
13:19:37:352,1.3325,0.3178,2.0867,32.0698,0.3622,-1.0023,0.8553,192.7344
13:19:37:373,1.4953,0.4435,2.836,33.3488,0.1438,-1.1687,0.7419,192.2031
13:19:37:397,1.3923,0.1933,4.1684,32.7514,-0.1606,-0.9463,0.6607,191.2344
13:19:37:414,0.9722,0.1838,5.9413,32.9784,-0.433,-0.4212,0.6828,190.3438
13:19:37:434,0.7651,0.8134,7.5849,33.726,-0.4807,0.0638,0.691,189.625
13:19:37:453,1.1026,1.4299,8.3367,33.4559,-0.3313,0.1871,0.5723,188.9375
13:19:37:473,1.5743,1.9531,8.3152,33.0732,-0.1819,0.0161,0.3723,188.25
13:19:37:502,2.1154,2.0764,7.8914,33.0732,-0.2149,-0.2979,0.1011,187.5625
13:19:37:519,1.9921,1.7879,8.478,31.9718,-0.4354,-0.6308,-0.1636,187.0469
13:19:37:539,1.7994,1.151,10.9045,32.8587,-0.6469,-0.6169,-0.3015,186.8125
13:19:37:554,1.6856,0.2065,13.343,31.2691,-0.755,-0.2662,-0.3221,186.9219
13:19:37:574,2.0136,-0.6734,14.4647,33.3279,-0.8019,0.2004,-0.2102,187.2969
13:19:37:599,3.1341,-1.0265,13.9308,32.8671,-0.9025,0.4313,-0.1231,187.7656
13:19:37:615,3.6297,-0.4292,13.4699,34.1564,-1.0328,0.206,-0.2006,188.2031
13:19:37:633,3.0336,-0.0964,14.9064,31.7116,-0.9992,-0.1184,-0.3338,188.375
13:19:37:653,2.1633,-1.157,16.8804,33.5637,-0.6727,0.0697,-0.2637,188.6562
13:19:37:674,1.5264,-1.7148,13.1586,32.6266,-0.2024,0.5469,0.0471,189.2656
13:19:37:698,2.5236,-0.4806,10.3072,33.116,0.0581,0.6638,0.3989,189.7812
13:19:37:717,3.17,0.7859,9.0358,31.3982,0.0362,0.4577,0.4711,190
13:19:37:733,3.0779,1.4695,8.8862,33.774,-0.0756,0.2143,0.2508,189.7812
13:19:37:753,2.4781,1.5293,8.4888,32.732,-0.0764,0.1922,-0.0722,189.2344
13:19:37:772,1.7958,1.4647,7.2785,32.8304,0.0519,0.353,-0.3551,188.8125
13:19:37:793,1.2116,1.4551,5.7977,33.9499,0.1915,0.5387,-0.5524,188.7188
13:19:37:818,0.7316,1.4108,4.6293,33.2223,0.2679,0.5413,-0.6656,189
13:19:37:834,0.1749,1.3438,4.1433,33.7213,0.2714,0.3115,-0.7327,189.5312
13:19:37:853,-0.1723,1.1474,4.7335,34.734,0.1995,-0.0089,-0.734,190.2188
13:19:37:872,-0.0382,1.0289,5.5642,32.3194,0.1134,-0.1543,-0.6403,190.9688
13:19:37:892,0.1426,1.09,6.1939,34.2543,0.0439,-0.1418,-0.5189,191.7969
13:19:37:918,0.2707,1.3809,6.8272,33.9697,-0.0096,-0.0813,-0.4073,192.9219
13:19:37:935,0.6968,1.5951,7.6364,33.1144,-0.0362,-0.0984,-0.305,193.4844
13:19:37:952,1.1433,1.7975,8.6623,31.7074,-0.0463,-0.1562,-0.2374,193.9531
13:19:37:972,1.5767,1.9926,9.8116,34.1187,-0.0344,-0.2065,-0.2035,194.2969
13:19:37:998,1.9897,1.9986,10.7142,33.0327,0.028,-0.2158,-0.1958,194.5625
13:19:38:016,1.9789,1.8477,11.2122,33.0052,0.0924,-0.1905,-0.2374,194.7969
13:19:38:033,1.8616,1.6502,11.7964,31.7274,0.0615,-0.1136,-0.2914,195.0156
13:19:38:053,1.9466,1.1666,12.5996,32.7757,-0.0602,-0.0369,-0.3074,195.125
13:19:38:073,1.8879,0.5525,13.5788,31.5881,-0.2264,-0.0417,-0.3561,195.4062
13:19:38:093,1.4965,0.0269,14.7831,34.1866,-0.4061,-0.096,-0.4118,195.75
13:19:38:115,0.7435,-0.1335,16.0916,33.5603,-0.5308,-0.1261,-0.3556,196.1406
13:19:38:132,0.2204,-0.0353,16.969,34.627,-0.4597,-0.1327,-0.1484,196.5938
13:19:38:152,0.3365,-0.0293,16.4279,32.6412,-0.0788,-0.0582,0.1355,197.125
13:19:38:173,0.7387,-0.325,13.0365,32.7672,0.5308,0.1655,0.3414,197.5
13:19:38:200,0.8728,-0.2173,9.6428,32.5062,0.8956,0.1877,0.4143,197.4219
13:19:38:217,1.269,-0.0401,8.3056,34.5235,0.7968,-0.1839,0.4902,196.9688
13:19:38:235,1.4702,0.0341,9.0574,35.2194,0.4314,-0.6907,0.5288,196.3906
13:19:38:252,1.3672,-0.2269,10.2401,33.2937,0.1513,-0.9056,0.5073,195.7656
13:19:38:274,0.807,-0.3202,10.0282,33.6862,0.1566,-0.6883,0.5182,195.0938
13:19:38:299,0.6238,-0.1766,8.2003,35.3323,0.3494,-0.2603,0.6324,194.5
13:19:38:318,0.8261,0.0461,6.1424,34.564,0.4762,0.088,0.7738,193.875
13:19:38:335,1.0033,0.4579,4.8723,33.9451,0.4471,0.1935,0.8479,193.1406
13:19:38:353,1.2367,0.7488,4.8208,33.3321,0.3268,0.0324,0.87,192.1719
13:19:38:374,1.5264,0.7787,5.247,37.4829,0.2703,-0.3,0.752,191.1406
13:19:38:400,1.6785,0.5513,5.4709,35.4951,0.2876,-0.2981,0.662,190.1406
13:19:38:414,1.6354,0.4064,5.5188,35.1943,0.2064,-0.203,0.6031,190.1406
13:19:38:434,1.761,0.416,5.8109,34.4747,0.0466,-0.1373,0.5408,189.1406
13:19:38:453,2.0747,0.5872,6.8703,37.1835,-0.0874,-0.1282,0.4444,188.2344
13:19:38:540,2.1417,0.8338,8.5678,35.0342,-0.1249,-0.0454,0.2987,186.75
13:19:38:540,1.706,0.9451,10.1396,36.2035,-0.0511,0.1847,0.1664,185.8594
13:19:38:541,1.4414,0.762,10.7046,35.9186,0.0173,0.4047,0.0708,185.625
13:19:38:541,1.5791,0.6961,10.4472,36.7323,-0.0682,0.4518,-0.0003,185.3281
13:19:38:554,2.1609,0.6039,10.3515,35.8517,-0.3204,0.3251,-0.1226,185.1562
13:19:38:572,2.5619,0.319,11.3319,37.1666,-0.6157,0.1794,-0.26,185.0625
13:19:38:591,2.8145,-0.2903,13.41,37.471,-0.6815,0.2548,-0.2901,185.0781
13:19:38:616,3.2874,-0.8649,14.3174,37.6443,-0.5268,0.4542,-0.272,185.2656
13:19:38:634,3.7494,-0.5764,13.3526,37.159,-0.4328,0.4902,-0.35,185.6562
13:19:38:652,3.8452,-0.0437,12.426,37.711,-0.5009,0.2239,-0.6145,186.0938
13:19:38:678,3.1676,-0.398,13.0808,39.4947,-0.4951,-0.0267,-0.8547,186.4688
13:19:38:699,2.1214,-1.7819,13.9775,40.0396,-0.3199,0.1445,-0.8379,186.9375
13:19:38:717,1.0775,-2.7934,13.0808,37.0681,-0.0996,0.5195,-0.4858,187.7188
13:19:38:733,1.0955,-2.6749,10.6423,38.0422,0.0338,0.5877,-0.0416,188.7031
13:19:38:760,1.9358,-1.6993,8.2793,36.4963,0.0663,0.2681,0.1997,189.7031
13:19:38:771,2.5655,-0.4687,6.9158,37.8161,0.0189,-0.125,0.1845,190.2969
13:19:38:794,2.7355,0.3382,6.4585,38.4409,-0.0346,-0.3636,0.0322,190.2656
13:19:38:816,2.5595,0.6099,6.334,38.2679,-0.0437,-0.4148,-0.1346,190.0156
13:19:38:836,2.1549,0.6746,6.0203,38.2857,-0.0461,-0.3532,-0.2651,189.875
13:19:38:852,1.7383,0.7261,5.6624,37.9983,-0.0802,-0.2627,-0.3508,189.9219
13:19:38:873,1.4642,0.7548,5.5702,38.206,-0.142,-0.1436,-0.394,190.1406
13:19:38:893,1.3492,0.7811,5.8659,38.078,-0.1598,0.0367,-0.3982,190.5
13:19:38:917,1.5288,0.9008,6.0024,38.6864,-0.1286,0.1043,-0.4155,190.9375
13:19:38:934,1.7706,1.2875,5.994,37.6074,-0.1297,-0.0366,-0.4704,191.3906
13:19:38:952,1.9215,1.5987,6.5112,39.3021,-0.2162,-0.2715,-0.5713,191.875
13:19:38:973,1.761,1.7184,7.998,39.5456,-0.323,-0.284,-0.6861,192.4062
13:19:38:993,1.2906,1.5999,10.0785,39.2811,-0.3249,-0.0121,-0.7418,192.9688
13:19:39:017,0.692,1.2983,11.7161,39.1569,-0.2189,0.4151,-0.7002,193.7188
13:19:39:034,0.3485,1.309,12.3482,38.8121,-0.1414,0.7778,-0.6086,194.5938
13:19:39:054,0.2814,1.4012,12.4823,38.2513,-0.0999,0.936,-0.521,195.4375
13:19:39:073,-0.0298,0.8266,13.1347,40.3805,-0.0514,0.8561,-0.4382,195.8438
13:19:39:093,0.1976,0.2041,13.8123,39.5024,-0.0197,0.6883,-0.3135,196.9375
13:19:39:118,0.3557,0.1957,14.5305,37.8932,-0.0498,0.5906,-0.1798,197.5312
13:19:39:134,0.4933,0.3693,14.7652,38.7888,-0.0975,0.7088,-0.1002,197.9688
13:19:39:151,0.1031,0.2472,14.4755,39.1079,-0.0868,0.8503,-0.1338,198.2812
13:19:39:176,-0.8079,-0.3418,13.774,38.8198,0.0035,0.8676,-0.1809,198.4531
13:19:39:200,-1.6495,-0.9774,12.3686,39.9931,0.1646,0.7879,-0.0925,198.6094
13:19:39:219,-1.8506,-1.2576,10.7513,38.7172,0.2959,0.6588,0.1861,198.8281
13:19:39:238,-1.173,-1.2755,9.3219,37.7544,0.3475,0.3927,0.5829,199.0469
13:19:39:252,-0.2537,-1.0313,8.5594,40.0685,0.3161,-0.0813,0.9288,199.0312
13:19:39:276,0.4933,-0.5549,8.4253,37.3755,0.2205,-0.5831,1.1419,198.6094
13:19:39:291,1.0488,-0.1287,8.5761,38.2935,0.1204,-0.9181,1.2202,197.7188
13:19:39:312,1.3708,0.2735,8.3331,36.5301,0.0663,-0.9924,1.1933,196.4844
13:19:39:334,1.3433,0.337,8.0075,36.8241,0.078,-0.8997,1.1129,195.1562
13:19:39:352,1.0763,0.3394,7.5921,36.389,0.1414,-0.7248,1.0553,193.7344
13:19:39:372,1.0344,0.4579,6.9122,35.9471,0.2495,-0.5088,1.0988,192.375
13:19:39:393,1.3373,0.6889,6.2753,36.9421,0.3553,-0.3743,1.1797,190.5625
13:19:39:422,1.7503,0.8972,6.0227,35.8614,0.4432,-0.3956,1.2039,189.25
13:19:39:434,2.1393,1.06,5.7809,36.0287,0.5452,-0.5048,1.1384,187.8594
13:19:39:451,2.186,1.0181,5.8252,37.5655,0.6021,-0.6417,0.972,186.5
13:19:39:472,1.9669,0.8362,6.4537,35.7191,0.5457,-0.7189,0.7525,185.1094
13:19:39:492,1.5623,0.7069,7.6987,35.1418,0.3846,-0.6425,0.5757,183.9219
13:19:39:516,1.2451,0.7823,9.3806,34.9764,0.1987,-0.3727,0.4625,183.0312
13:19:39:534,1.5731,1.0134,10.0606,34.9764,0.1425,0.1291,0.4069,182.3125
13:19:39:552,2.1274,1.2815,9.4297,33.8248,0.2032,0.4937,0.2761,182.0156
13:19:39:572,2.3321,1.2588,9.0263,34.6181,0.1707,0.466,0.0196,181.5
13:19:39:591,2.3848,0.4232,10.2401,33.3245,-0.0599,0.096,-0.2901,181.0938
13:19:39:617,2.2962,-0.7979,12.9659,35.793,-0.3555,-0.3223,-0.5375,180.875
13:19:39:635,2.7534,-1.9124,14.4587,33.2382,-0.4535,-0.3591,-0.5939,181.0312
13:19:39:655,3.3257,-1.8441,14.1163,33.5463,-0.3665,-0.0558,-0.5396,181.5469
13:19:39:672,4.0128,-1.072,12.8019,33.161,-0.2802,0.2577,-0.4762,182.6094
13:19:39:696,3.4574,-0.5704,12.1268,32.9586,-0.2796,0.2619,-0.6182,183.2656
13:19:39:715,2.2231,-0.9906,11.8562,33.268,-0.2037,0.0769,-0.9343,184.5781
13:19:39:732,1.5396,-1.564,10.8387,34.7966,-0.1545,0.1884,-0.7415,185.625
13:19:39:752,1.6006,-1.3832,8.9293,33.4603,-0.2381,0.0484,-0.4946,186.7188
13:19:39:772,1.9227,-0.7057,7.5706,31.9084,-0.4671,-0.3623,-0.3644,186.7188
13:19:39:793,1.9921,0.4591,7.8459,31.2752,-0.6626,-0.5969,-0.3756,188.1406
13:19:39:817,2.277,1.0409,8.8443,31.7624,-0.6232,-0.4563,-0.55,188.6094
13:19:39:834,1.779,1.0157,8.4193,33.0618,-0.4972,-0.1053,-0.7402,188.6094
13:19:39:854,0.5939,0.7919,6.7913,32.0153,-0.4503,0.1608,-0.7402,189.0781
13:19:39:871,-0.1986,0.6339,5.5175,31.4617,-0.4653,0.1432,-0.5575,189.7812
13:19:39:892,-0.3387,0.7919,5.3141,30.8302,-0.4466,-0.1506,-0.3093,190.7031
13:19:39:917,0.4191,1.0804,6.3507,29.2886,-0.3049,-0.46,-0.1615,191.6094
13:19:39:936,1.0979,1.4682,7.4162,30.6577,-0.1073,-0.5226,-0.1702,192.2812
13:19:39:951,1.536,1.6658,7.9644,30.3778,0.0445,-0.2765,-0.272,192.8125
13:19:39:971,1.8903,1.4611,7.6675,29.4653,0.0322,0.0414,-0.3892,192.9844
13:19:39:993,2.198,1.4431,7.5419,29.5031,-0.1806,0.1839,-0.4917,193.2031
13:19:40:016,2.4841,1.4467,8.8886,30.6635,-0.3728,0.1863,-0.6131,193.5625
13:19:40:036,2.362,1.3713,11.1224,28.5549,-0.3651,0.2806,-0.7434,194.0781
13:19:40:051,1.8006,1.1343,13.0725,28.5556,-0.1087,0.458,-0.7929,194.375
13:19:40:071,1.2822,0.6063,13.3909,29.077,0.188,0.5861,-0.7505,195.1406
13:19:40:091,0.5723,0.3418,12.5038,28.1094,0.2282,0.5597,-0.6014,196.0625
13:19:40:116,-0.055,0.2807,12.8678,27.9326,0.1739,0.4566,-0.3689,197.0156
13:19:40:134,-0.1699,-0.1706,14.0553,26.0313,0.2732,0.4415,-0.1119,197.8281
13:19:40:150,-0.1256,-0.4088,13.9942,27.8346,0.4085,0.5192,0.1834,198.5156
13:19:40:172,0.3736,-0.149,12.7696,26.7652,0.3635,0.4838,0.4303,198.9375
13:19:40:192,1.0631,0.5261,12.0489,27.9069,0.1896,0.2215,0.5004,199.0469
13:19:40:216,1.378,0.9511,12.7816,25.6077,0.1348,0.0297,0.4133,198.7969
13:19:40:237,1.3983,0.7727,13.1982,25.4902,0.2522,0.051,0.2724,198.2812
13:19:40:252,1.0081,0.3083,11.7688,27.7163,0.2634,-0.002,0.1547,197.4531
13:19:40:276,0.3796,-0.2077,10.4029,25.9528,0.0993,-0.2907,0.1621,197.0469
13:19:40:290,-0.0729,-0.4627,10.4664,23.7429,-0.0493,-0.6518,0.2897,196.7812
13:19:40:312,-0.1124,-0.3729,11.3295,24.2953,0.0197,-0.7378,0.475,196.6094
13:19:40:333,0.0935,-0.2484,11.4444,25.8298,0.2898,-0.5327,0.638,196.3594
13:19:40:353,0.1653,-0.0832,10.0474,24.1528,0.4868,-0.3122,0.809,195.9062
13:19:40:372,0.2623,0.0844,8.4552,24.419,0.4469,-0.2113,0.972,195.2188
13:19:40:392,0.4119,0.1538,8.205,24.5683,0.4354,-0.0832,1.1062,194.375
13:19:40:417,0.2934,0.1742,8.3978,24.5587,0.6085,0.1094,1.2399,193.2812
13:19:40:433,0.5292,0.0114,7.9058,25.1388,0.882,0.287,1.372,192.0156
13:19:40:452,1.056,-0.1395,6.7063,24.0423,1.0762,0.3554,1.4402,190.6875
13:19:40:472,1.9071,0.7332,4.8556,24.4375,1.1018,0.2787,1.4133,189.0781
13:19:40:493,2.1693,1.1199,5.0184,26.1566,0.9726,0.0987,1.2506,187.3281
13:19:40:517,2.1118,1.2396,5.7654,23.9223,0.8056,-0.0904,0.9928,185.625
13:19:40:535,2.1752,1.2911,6.7685,22.0368,0.6487,-0.1682,0.7427,184.75
13:19:40:601,2.3883,0.9978,7.561,24.0247,0.4887,-0.043,0.5086,182.5312
13:19:40:602,2.271,0.5776,8.3966,24.045,0.2229,0.2098,0.2679,181.4531
13:19:40:602,2.3907,0.1706,10.039,22.7756,-0.1609,0.4396,0.0905,180.7031
13:19:40:617,2.5033,-0.3621,12.0801,23.119,-0.4559,0.5083,-0.0296,180.2188
13:19:40:632,2.4877,-1.0504,13.3526,23.2976,-0.4724,0.4654,-0.1399,180
13:19:40:650,2.9486,-1.1714,12.5374,25.2861,-0.2591,0.5488,-0.1729,180
13:19:40:674,3.2574,-0.4148,10.3922,24.7131,-0.127,0.7296,-0.2565,180.1406
13:19:40:690,2.8672,0.3885,9.4476,25.4351,-0.3372,0.6449,-0.5423,180.375
13:19:40:711,1.9382,-0.2065,11.3151,25.3027,-0.7321,0.1504,-0.9734,180.5938
13:19:40:736,1.4139,-1.746,12.5134,25.1124,-0.8163,-0.3077,-1.2579,181
13:19:40:753,1.0847,-2.5109,11.0601,23.5596,-0.5814,-0.3319,-1.2432,181.9062
13:19:40:775,1.4965,-2.3158,7.798,25.5216,-0.3934,-0.1253,-0.9644,183.2969
13:19:40:790,1.7347,-1.1546,6.1197,25.6407,-0.6517,-0.1447,-0.7133,184.7812
13:19:40:811,1.779,-0.4076,7.9082,24.2086,-1.3183,-0.4755,-0.6701,186.625
13:19:40:833,1.3959,-0.0616,10.6088,25.6065,-1.808,-0.6246,-0.7617,187.5
13:19:40:853,0.8991,0.2783,11.8562,26.8999,-1.7766,-0.3983,-0.8693,188.3594
13:19:40:871,0.5508,0.7452,11.0757,25.9547,-1.3859,0.0718,-0.9016,189.4062
13:19:40:892,0.2958,1.054,9.3207,25.1265,-0.935,0.6223,-0.8723,190.5781
13:19:40:918,0.1174,1.2707,7.7118,27.1121,-0.5872,0.9256,-0.811,191.7344
13:19:40:935,0.1126,1.4156,6.4142,26.6279,-0.3148,0.9134,-0.7311,192.8906
13:19:40:953,0.0971,1.6047,5.994,25.8201,-0.1151,0.6316,-0.6454,193.9531
13:19:40:972,0.0863,1.7903,6.2394,26.1233,0.0423,0.2255,-0.5633,194.9062
13:19:40:992,-0.0502,1.9112,7.5239,25.837,0.1614,-0.2246,-0.5098,195.6719
13:19:41:017,-0.2262,1.9291,9.0298,26.0966,0.2701,-0.5231,-0.4675,196.3281
13:19:41:033,-0.3051,1.5054,10.3251,25.8961,0.3646,-0.4859,-0.4214,196.625
13:19:41:060,-0.2022,1.0684,11.6551,28.2285,0.3941,-0.1831,-0.3284,197.0938
13:19:41:071,0.1833,0.7895,12.6188,27.6135,0.3979,0.2609,-0.2001,197.5312
13:19:41:092,0.6992,0.7859,12.7229,27.6832,0.4453,0.6058,-0.1029,197.9062
13:19:41:117,1.0476,0.3945,13.0964,26.8914,0.4828,0.6082,-0.1314,198.25
13:19:41:134,1.1685,-0.2352,13.5166,29.1803,0.4685,0.5,-0.2347,198.3594
13:19:41:150,1.4259,-0.6087,13.2556,29.3675,0.408,0.5267,-0.325,198.5
13:19:41:175,1.2343,-0.2292,12.6295,29.8737,-0.0519,0.7195,-0.6192,199.0938
13:19:41:191,0.4143,0.0688,12.7564,29.9222,-0.2583,0.5384,-0.7681,199.0938
13:19:41:211,-0.5829,-0.5704,13.7907,29.7531,-0.1451,0.34,-0.7705,199.6094
13:19:41:233,-1.3897,-1.4754,13.6231,31.4892,0.1417,0.3421,-0.5735,200.3594
13:19:41:253,-1.6651,-1.7986,11.3953,30.2909,0.236,0.2335,-0.2746,201.2344
13:19:41:271,-1.2054,-1.3306,9.316,32.0348,0.0415,-0.1293,-0.0528,202.1406
13:19:41:297,-0.5254,-1.011,9.073,32.7196,-0.2216,-0.4422,0.0543,202.7969
13:19:41:317,-0.2285,-0.8984,10.1216,32.2759,-0.2959,-0.4534,0.1163,203.0938
13:19:41:334,-0.5913,-0.7584,10.8482,33.2995,-0.1438,-0.2004,0.2346,203.1562
13:19:41:349,-0.9815,-0.5034,10.5789,32.9253,0.1372,0.1687,0.4495,203.0781
13:19:41:370,-0.5003,-0.1395,9.3232,32.9019,0.4402,0.4236,0.6359,202.9531
13:19:41:391,0.4694,0.3657,7.1779,32.7799,0.6136,0.3669,0.6548,202.6875
13:19:41:411,1.0751,1.0253,5.6169,33.4845,0.6285,0.0271,0.5201,201.8281
13:19:41:433,0.8082,1.248,5.2482,34.8091,0.637,-0.3788,0.3536,201.0469
13:19:41:450,0.2527,0.756,5.4553,34.6493,0.6482,-0.6342,0.2961,200.375
13:19:41:471,-0.353,0.1586,5.7917,35.2433,0.596,-0.5884,0.4023,199.8438
13:19:41:492,-0.5661,0.0389,5.9509,33.9268,0.4658,-0.4923,0.5632,199.4531
13:19:41:517,-0.3483,0.325,6.6596,35.2689,0.3649,-0.4758,0.6439,199.0469
13:19:41:534,-0.1435,0.5872,7.8076,36.0128,0.3667,-0.4709,0.6311,198.7656
13:19:41:551,-0.0286,0.738,8.7832,37.8959,0.3886,-0.4574,0.5643,198.0938
13:19:41:577,-0.0885,0.6087,9.535,36.6687,0.3468,-0.3849,0.4865,197.3281
13:19:41:590,0.2862,0.5166,10.5466,38.1619,0.3057,-0.4893,0.3973,196.6094
13:19:41:611,0.8524,0.2005,11.9951,38.1618,0.3896,-0.7602,0.2665,195.9375
13:19:41:633,0.9315,-0.5022,12.772,37.8528,0.4546,-0.9578,0.2295,195.3438
13:19:41:654,1.4247,-1.1821,13.2089,37.1308,0.4144,-0.814,0.3115,194.8906
13:19:41:678,2.9282,-1.3366,12.9384,37.1195,0.2911,-0.4542,0.2686,194.5625
13:19:41:689,4.2654,-0.6602,11.5198,39.092,-0.012,-0.1122,-0.0818,194.0781
13:19:41:711,4.5706,0.2436,10.3993,37.577,-0.5494,0.0779,-0.709,193.7031
13:19:41:732,3.5076,-0.155,11.5952,38.7265,-0.9486,0.3594,-1.2251,193.5312
13:19:41:752,2.0867,-1.3533,12.6678,41.913,-0.8919,0.7048,-1.3085,193.9844
13:19:41:770,1.7718,-2.0022,10.6962,40.0651,-0.7374,0.6439,-1.1253,195.1875
13:19:41:792,2.0687,-1.8812,8.5953,39.4574,-0.7121,0.1733,-0.856,196.8125
13:19:41:816,2.5715,-1.1175,7.7753,38.8095,-0.7494,-0.2374,-0.6723,198.3125
13:19:41:834,2.3823,-0.5369,7.6651,40.9206,-0.8597,-0.3072,-0.6049,199.5312
13:19:41:851,1.6533,-0.2472,7.6675,40.7591,-0.9739,-0.092,-0.5628,200.4062
13:19:41:874,0.2312,0.3178,7.7454,41.1044,-1.0693,0.1655,-0.4802,201.2188
13:19:41:890,-0.0322,0.6207,8.2936,39.732,-1.0426,0.2995,-0.3548,202
13:19:41:910,-0.2657,0.8913,8.6204,42.1561,-0.7896,0.2862,-0.2203,202.6875
13:19:41:933,-0.2106,1.0972,8.3774,40.1769,-0.3622,0.1685,-0.0699,203.0156
13:19:41:950,0.2228,1.2779,7.4305,40.6162,0.0991,0.0513,0.087,203.7656
13:19:41:969,0.7004,1.6095,6.7266,41.4605,0.375,0.0028,0.1837,204
13:19:41:990,1.0823,1.9184,6.5219,41.4832,0.4197,0.0508,0.1821,204.0156
13:19:42:012,1.1876,1.9662,6.9912,42.3905,0.2839,0.1139,0.0785,203.8125
13:19:42:033,1.1493,1.8274,8.2817,41.8422,0.0474,0.1411,-0.0472,203.5469
13:19:42:051,0.9925,1.6131,10.6723,42.7841,-0.1888,0.054,-0.1441,203.3594
13:19:42:070,0.7267,1.4383,13.2748,42.8396,-0.2394,-0.048,-0.2011,203.3281
13:19:42:090,0.394,0.9475,14.2935,41.6943,-0.0139,-0.0608,-0.2017,203.4531
13:19:42:114,-0.0346,0.5034,14.1235,42.0009,0.2647,-0.0432,-0.125,203.6719
13:19:42:133,0.3425,0.2065,13.932,44.4728,0.4032,-0.0499,0.0726,203.9219
13:19:42:151,1.2762,-0.0233,13.9104,43.9963,0.4296,-0.097,0.2769,204.1094
13:19:42:170,1.8927,0.1347,13.5226,44.4802,0.4029,-0.0736,0.3544,204.1094
13:19:42:190,2.0136,0.3549,13.5513,45.3719,0.2575,0.0492,0.279,203.8594
13:19:42:211,1.6461,0.1167,14.4012,42.7505,0.0639,0.1541,0.1078,203.4375
13:19:42:233,0.8776,-0.5704,15.0333,46.1753,0.0309,0.2625,-0.0283,202.8594
13:19:42:250,0.4035,-1.2552,13.2293,46.258,0.3159,0.5642,-0.0001,202.75
13:19:42:270,0.2455,-1.3773,10.2114,48.7396,0.6754,0.7882,0.1488,202.7812
13:19:42:290,0.3197,-1.0493,7.8734,45.9273,0.7942,0.5967,0.315,202.7812
13:19:42:311,0.54,-0.513,7.2139,46.9678,0.62,0.0311,0.3973,202.5625
