Time,Acc_X,Acc_Y,Acc_Z,Meg,Gyr_X,Gyr_Y,Gyr_Z,Ore
19:56:12:343,-0.5601,1.6119,7.0917,55.3739,-0.3185,-0.1969,0.1414,54.8281
19:56:12:405,-1.0509,1.995,8.1201,55.9912,-0.8139,-0.2566,0.1275,54.5
19:56:12:424,-1.6782,2.3206,9.0885,55.9669,-0.7489,-0.0417,0.3235,54.5
19:56:12:440,-1.4795,2.5361,10.0402,55.52,-0.5188,0.1565,0.5142,54.5
19:56:12:458,-1.1587,2.8114,9.8415,56.2322,-0.2764,0.2372,0.6143,163.1562
19:56:12:479,-0.6655,2.7923,8.9269,56.4336,-0.1025,0.2894,0.6599,162.5156
19:56:12:506,0.6106,2.2212,7.6592,55.144,0.0264,0.5134,0.5419,162.1562
19:56:12:524,0.9351,2.4403,6.9768,55.8991,0.0309,0.8271,0.3118,161.4062
19:56:12:540,-0.5589,2.803,7.5215,55.2469,-0.1225,0.7767,0.3214,160.6562
19:56:12:558,-1.2952,3.3094,8.3822,57.4556,-0.2093,0.5893,0.5635,160.1094
19:56:12:575,-1.3442,3.5428,7.9441,56.9343,-0.3758,0.3466,0.735,159.7188
19:56:12:602,-0.4332,2.9155,7.2893,55.3731,-0.6567,0.0047,0.6961,159.1406
19:56:12:619,0.1605,3.1813,8.4385,55.1118,-0.7686,-0.2603,0.6553,158.2969
19:56:12:635,-0.1076,3.1502,9.717,55.5844,-0.7462,-0.5706,0.6559,157.3906
19:56:12:654,0.9482,2.9251,10.6052,54.6069,-0.4722,-0.4627,0.5933,157.0156
19:56:12:674,1.6988,2.8114,11.4121,56.0867,0.0075,-0.1948,0.4258,156.2188
19:56:12:706,1.9693,2.7791,10.6124,56.5448,0.3571,-0.1176,0.2686,155.4531
19:56:12:722,1.8556,3.0065,9.134,56.0512,0.3864,-0.1945,0.1427,154.7656
19:56:12:737,2.3584,2.9419,8.2362,56.9204,0.2397,-0.1096,-0.0664,154.3125
19:56:12:754,1.7251,3.064,8.326,56.9118,-0.0535,-0.1402,-0.1591,154.0469
19:56:12:773,1.1948,3.3273,9.9995,56.3469,-0.3281,-0.0741,-0.1234,153.9531
19:56:12:792,1.0236,3.3932,11.9651,56.3934,-0.3494,-0.0494,-0.0035,154.125
19:56:12:820,1.3121,3.392,12.8318,56.1435,-0.1281,0.0071,0.0987,154.2969
19:56:12:836,1.6605,2.955,12.7397,55.6195,0.1438,0.1525,0.1592,154.3438
19:56:12:852,2.192,2.7958,11.758,56.4581,0.1638,0.2369,0.082,154.2812
19:56:12:871,2.3177,2.5025,11.1068,57.2607,-0.0533,0.2798,-0.0826,154.1094
19:56:12:891,2.678,2.1398,11.3498,55.5107,-0.3609,0.3464,-0.3391,153.9531
19:56:12:922,2.3776,1.4982,12.0669,55.0941,-0.5308,0.4577,-0.5652,153.9219
19:56:12:937,2.0735,0.8936,12.5086,54.9755,-0.4362,0.5613,-0.6693,154.125
19:56:12:952,1.8604,0.6219,12.0908,55.6502,-0.1105,0.5227,-0.7516,154.5938
19:56:12:969,1.7814,0.5154,10.4843,56.3693,0.2061,0.3235,-0.8621,155.2344
19:56:12:989,1.6677,0.0724,8.6204,57.3658,0.3302,0.0548,-0.9532,155.9375
19:56:13:009,2.0471,-0.0485,7.7944,55.215,0.3297,-0.2401,-1.0826,156.8438
19:56:13:038,2.2854,-0.3106,7.8986,55.3021,0.3164,-0.3892,-1.2331,157.9062
19:56:13:056,2.0843,-0.8661,8.5247,55.7651,0.3049,-0.1868,-1.2728,159.0469
19:56:13:069,1.3026,-0.337,8.1847,56.8912,0.2647,-0.0387,-1.2869,161.1875
19:56:13:088,1.5731,-0.1873,7.9082,56.0842,0.2003,0.1163,-1.4371,162.6875
19:56:13:107,0.9901,0.1778,7.4628,56.8778,0.1159,0.2364,-1.5205,164.1094
19:56:13:137,-0.4895,0.5285,6.887,54.6929,0.0224,0.2705,-1.3833,164.9219
19:56:13:152,-0.517,0.8027,6.4621,55.0808,-0.0959,0.1701,-1.219,166.6406
19:56:13:167,-0.4057,1.145,6.6871,56.414,-0.1689,0.0689,-1.1924,168.3281
19:56:13:186,-0.5422,1.6861,6.9421,53.866,-0.245,-0.0132,-1.2022,169.7031
19:56:13:206,-0.4081,1.9387,7.4353,55.812,-0.3129,-0.1026,-1.2558,171.0625
19:56:13:226,-0.6715,1.9746,8.326,54.1989,-0.3433,-0.1466,-1.3026,172.3906
19:56:13:255,-1.3454,1.8418,9.3519,55.3418,-0.2921,-0.0741,-1.2483,173.7031
19:56:13:265,-1.8841,1.9172,9.8068,53.8344,-0.2229,0.0364,-1.1237,175.1406
19:56:13:286,-2.2887,2.159,9.7026,55.179,-0.22,0.1687,-0.9556,176.5781
19:56:13:305,-2.3211,2.3541,9.6619,55.2561,-0.265,0.25,-0.7553,177.8438
19:56:13:325,-2.0888,2.6019,10.1432,54.4847,-0.2296,0.2367,-0.5876,179.0156
19:56:13:353,-2.1056,2.8054,10.9871,54.7132,-0.0285,0.2055,-0.4304,180.3438
19:56:13:367,-2.3115,2.8282,11.1331,55.1084,0.2336,0.1632,-0.2714,180.9688
19:56:13:385,-2.4863,2.6558,10.5885,54.9287,0.3997,0.1259,-0.0991,181.4531
19:56:13:403,-2.6802,2.5947,9.7445,54.1985,0.3712,0.1389,0.0878,181.7812
19:56:13:422,-2.187,2.4283,8.9856,55.7906,0.1308,0.1179,0.2061,181.9531
19:56:13:442,-1.4256,2.3673,9.1388,55.0352,-0.1976,-0.1578,0.1882,181.9062
19:56:13:469,-1.1647,2.4511,11.0961,55.6765,-0.2652,-0.4691,0.0995,181.6875
19:56:13:482,-0.8833,2.0704,12.3518,55.0563,-0.1995,-0.5636,-0.0512,181.4531
19:56:13:504,-1.0725,1.1738,12.4129,53.9695,-0.2349,-0.3543,-0.1356,181.3125
19:56:13:521,-2.0158,0.3154,12.1088,53.8716,-0.3856,-0.015,-0.036,181.3594
19:56:13:543,-2.7173,-0.1347,12.0765,54.4224,-0.4386,0.2273,0.2178,181.4844
19:56:13:563,-2.3582,-0.2843,11.9472,54.8026,-0.3145,0.2641,0.4109,181.5156
19:56:13:588,-1.6292,-0.404,11.29,53.953,-0.1236,0.1062,0.4684,181.3594
19:56:13:607,-1.0521,-0.574,10.4364,54.4817,0.0157,-0.1998,0.437,180.6719
19:56:13:623,-1.1587,-0.6566,10.0677,54.4566,0.1188,-0.4941,0.4026,180.125
19:56:13:641,-1.5645,-0.8649,10.0043,53.2048,0.1729,-0.5466,0.4828,180.125
19:56:13:664,-1.7668,-1.011,9.9851,53.0087,0.2045,-0.2819,0.6705,179.6562
19:56:13:687,-1.507,-0.8398,9.5446,53.991,0.2503,0.0079,0.8689,178.6719
19:56:13:706,-0.9564,-0.5094,8.7174,53.2669,0.3137,0.165,1.0087,178.6719
19:56:13:723,-0.3135,-0.0461,7.6304,53.1309,0.3401,0.1227,1.0516,177.9688
19:56:13:740,0.1976,0.4004,6.8858,53.5711,0.3135,-0.0116,1.0047,177
19:56:13:759,0.1833,0.7332,6.6883,54.2911,0.2684,-0.0851,0.9275,175.875
19:56:13:780,-0.0609,0.8769,6.6021,52.2425,0.1947,-0.0552,0.8852,174.7656
19:56:13:804,0.048,1.066,6.4417,51.0681,0.0408,0.005,0.8319,173.6406
19:56:13:822,0.1354,1.509,6.5339,54.0184,-0.1835,0.0028,0.728,172.625
19:56:13:839,0.206,1.7496,7.5826,53.4856,-0.3417,-0.0262,0.6071,171.625
19:56:13:859,0.1497,1.7723,9.1244,51.3682,-0.3143,0.0148,0.5121,170.7188
19:56:13:880,-0.1028,1.819,9.9157,52.4969,-0.1782,0.0377,0.4716,169.875
19:56:13:905,-0.0717,1.9016,10.1132,51.7469,-0.0562,-0.0137,0.4476,168.8281
19:56:13:920,0.2348,2.0584,10.1994,53.4854,0.0245,-0.0909,0.3741,168.2656
19:56:13:939,0.5472,2.2105,10.2928,52.3046,0.0607,-0.2571,0.2444,167.7188
19:56:13:960,0.8297,2.135,10.476,51.9403,0.0517,-0.5394,0.0788,167.25
19:56:13:981,0.5592,1.5604,11.0422,51.6571,-0.0053,-0.7357,0.0021,166.9062
19:56:14:005,0.1007,1.1175,12.1579,52.612,-0.0554,-0.6078,0.1355,166.75
19:56:14:022,0.4885,0.8146,13.1,51.989,0.0213,-0.2489,0.335,166.75
19:56:14:040,1.4115,1.0756,12.3997,51.1754,0.0988,0.009,0.4149,166.7344
19:56:14:061,2.1836,1.8729,10.9237,51.584,0.0149,-0.0424,0.2735,166.4688
19:56:14:087,2.4135,2.3433,9.9612,50.128,-0.2413,-0.3924,0.03,166.0156
19:56:14:106,2.5092,2.1398,10.6543,50.3508,-0.5686,-0.6869,-0.1822,165.7969
19:56:14:122,2.5069,1.2791,13.0246,51.4123,-0.628,-0.5271,-0.3849,165.4844
19:56:14:140,1.8628,0.2041,14.4264,51.1222,-0.3409,-0.0848,-0.448,165.4531
19:56:14:160,1.0835,-0.653,13.1586,49.9482,0.0354,0.2439,-0.2983,165.6562
19:56:14:179,1.1134,-0.7416,11.2361,50.1599,0.3981,0.2513,-0.1212,166.0625
19:56:14:203,1.7706,-0.5716,9.2693,47.6692,0.6266,-0.0315,-0.1026,166.5312
19:56:14:220,2.1573,-0.2388,7.8435,50.6084,0.6586,-0.2217,-0.1708,166.9688
19:56:14:239,2.3488,0.0497,7.0307,48.3427,0.5587,-0.1892,-0.3223,167.0938
19:56:14:260,1.9322,0.3454,6.4453,49.8001,0.3941,-0.0262,-0.4651,167.2812
19:56:14:279,1.3923,0.5321,5.769,48.8317,0.1928,0.1368,-0.5426,167.6094
19:56:14:303,1.0272,0.8063,5.2434,49.0532,-0.0359,0.1919,-0.5902,168.0938
19:56:14:366,0.4359,1.2169,5.7773,47.9376,-0.2477,0.1171,-0.6456,168.6719
19:56:14:367,0.3174,1.2121,7.0343,49.8859,-0.4232,0.005,-0.68,169.3125
19:56:14:373,0.2288,1.4527,8.2182,47.2665,-0.5071,0.0406,-0.6603,170
19:56:14:391,0.2623,1.673,8.8527,48.5462,-0.4855,0.1863,-0.6344,170.7031
19:56:14:399,0.1725,1.8669,9.1986,46.7287,-0.4381,0.3669,-0.64,171.4531
19:56:14:422,0.1653,2.0369,9.5458,49.2934,-0.3923,0.5533,-0.6424,172.1406
19:56:14:444,-0.0945,2.074,9.535,49.2934,-0.306,0.6516,-0.6685,173.1562
19:56:14:466,-1.0067,1.9866,9.48,46.7599,-0.2027,0.6204,-0.7276,173.8438
19:56:14:488,-1.9284,1.9543,10.0151,45.8937,-0.1617,0.5605,-0.6885,174.2031
19:56:14:509,-2.4815,1.9914,10.8746,47.6098,-0.1063,0.5051,-0.5093,175.3594
19:56:14:519,-2.5725,2.1889,10.9775,45.5636,0.0674,0.422,-0.2448,175.75
19:56:14:539,-2.2145,2.2069,10.628,46.6001,0.2642,0.1847,0.0077,176.4375
19:56:14:559,-1.6459,2.1027,10.3503,45.2073,0.3169,-0.1029,0.1792,176.875
19:56:14:580,-0.942,2.0896,11.0434,45.2907,0.1491,-0.2843,0.2788,177.0156
19:56:14:605,-0.8917,2.0093,12.5649,46.0404,-0.0988,-0.423,0.2862,176.9375
19:56:14:621,-1.3418,1.6825,13.8063,45.704,-0.2075,-0.5343,0.2348,176.6875
19:56:14:640,-1.8973,0.7967,14.0804,46.6194,-0.1206,-0.5756,0.213,176.3594
19:56:14:659,-1.8279,-0.1897,13.6052,43.8165,0.081,-0.557,0.3246,176.0625
19:56:14:681,-1.6076,-0.5525,12.614,43.4467,0.3057,-0.4465,0.544,175.7969
19:56:14:705,-0.9181,-0.4232,10.5131,45.8181,0.5313,-0.2033,0.7632,175.5156
19:56:14:724,-0.0023,-0.2963,8.2517,45.1145,0.6362,-0.0861,0.8524,175.0781
19:56:14:742,0.5125,-0.2221,7.1648,45.4268,0.4677,-0.1831,0.7619,173.9062
19:56:14:760,0.4011,-0.2125,7.6628,45.1191,0.0921,-0.3796,0.5643,172.9844
19:56:14:780,0.2814,-0.3741,8.8012,46.0163,-0.2621,-0.5293,0.396,172.2031
19:56:14:804,0.1821,-0.5369,9.1268,44.4815,-0.4384,-0.4787,0.3134,171.5781
19:56:14:822,0.0049,-0.5704,8.6121,44.6667,-0.4602,-0.3016,0.3155,171.125
19:56:14:839,0.0552,-0.398,7.9153,43.7569,-0.4296,-0.1423,0.405,170.7656
19:56:14:860,0.3473,-0.173,7.148,45.6189,-0.4229,0.0372,0.5246,170.3906
19:56:14:879,0.7543,-0.0497,6.4932,43.5769,-0.4767,0.255,0.6186,169.9062
19:56:14:905,0.449,0.3346,6.9241,44.4269,-0.6067,0.3765,0.645,169.2812
19:56:14:922,0.0588,0.6015,7.6951,45.1927,-0.6344,0.3711,0.6721,168.5781
19:56:14:940,0.0875,0.7943,8.2218,45.1709,-0.5033,0.3592,0.7307,167.8125
19:56:14:961,0.4442,1.0361,8.5498,45.4888,-0.3049,0.315,0.7938,167
19:56:14:979,0.6059,1.3198,8.235,44.8213,-0.1387,0.2375,0.7645,166.1719
19:56:15:004,0.5316,1.4311,8.3822,43.9118,-0.1656,0.0843,0.6335,165.7188
19:56:15:021,0.4035,1.0529,9.5362,44.8477,-0.3819,0.0193,0.4697,164.7969
19:56:15:040,-0.0119,0.5644,10.8614,45.022,-0.6163,0.4284,0.3454,163.6719
19:56:15:064,-0.1208,0.3023,11.3163,44.328,-0.5473,0.5909,0.4031,163.0938
19:56:15:079,0.4634,0.1383,11.1715,44.6334,-0.4733,0.4849,0.3882,162.6562
19:56:15:100,0.9793,0.0545,11.266,45.8044,-0.4149,0.1701,0.2569,162.2188
19:56:15:122,0.9075,-0.2807,11.7329,45.4162,-0.3443,-0.1679,0.1302,161.7656
19:56:15:140,0.722,-0.9655,12.359,44.6191,-0.2338,-0.3386,0.1331,161.2812
19:56:15:159,0.8608,-1.4646,12.0047,45.6526,-0.208,-0.3572,0.2063,160.9531
19:56:15:179,1.2906,-1.3677,11.5354,44.3885,-0.3164,-0.3452,0.2074,160.7812
19:56:15:206,1.6533,-1.1785,11.788,44.848,-0.4405,-0.3042,0.1137,160.5938
19:56:15:221,1.5851,-1.1869,12.7959,45.6404,-0.4365,-0.1362,0.0495,160.3281
19:56:15:239,1.5037,-1.5054,13.6962,44.1378,-0.142,0.1477,0.0588,160.0625
19:56:15:258,1.3983,-1.7855,12.8737,45.9534,0.3289,0.2484,0.1251,159.875
19:56:15:280,1.761,-1.5724,10.4867,46.662,0.6453,-0.0371,0.1733,159.7656
19:56:15:308,3.1892,-1.2085,8.648,45.7763,0.6362,-0.4712,-0.008,159.6719
19:56:15:326,4.3324,-1.0133,8.0901,45.1676,0.371,-0.668,-0.4496,159.5312
19:56:15:343,4.1169,-1.1342,8.3966,46.405,0.0301,-0.4494,-0.8997,159.4375
19:56:15:360,2.9127,-1.5413,8.7916,45.1396,-0.2043,0.009,-1.1535,159.6875
19:56:15:379,1.4582,-1.7077,8.4983,47.1176,-0.3156,0.4004,-1.1894,159.9844
19:56:15:404,0.3808,-1.5137,7.7908,46.5453,-0.3574,0.5312,-1.0813,161
19:56:15:422,-0.189,-1.1678,7.4269,45.419,-0.3092,0.4082,-0.8994,162.2969
19:56:15:440,-0.2357,-0.7404,7.4964,47.3253,-0.1523,0.2172,-0.7199,163.5938
19:56:15:461,0.0851,-0.2688,7.3515,45.5932,0.0293,0.0683,-0.5966,164.8438
19:56:15:479,0.3353,0.2328,6.9649,47.1801,0.1316,-0.0707,-0.5394,166.3125
19:56:15:505,0.5101,0.7955,7.16,46.1347,0.1739,-0.1674,-0.545,167.0156
19:56:15:522,0.6454,1.1929,7.5562,48.0499,0.1675,-0.1399,-0.6504,167.6719
19:56:15:538,0.4167,1.3426,7.6891,48.0142,0.0551,-0.0555,-0.7711,168.2812
19:56:15:559,-0.0226,1.3485,8.1344,47.2161,-0.1238,-0.0081,-0.8715,168.9531
19:56:15:579,-0.5182,1.0624,9.3279,48.627,-0.2248,0.0944,-0.9039,169.7344
19:56:15:603,-1.0031,0.7213,10.6603,48.5347,-0.1704,0.2742,-0.8549,170.6875
19:56:15:621,-1.5621,0.513,11.442,49.116,-0.0141,0.4984,-0.7191,171.7031
19:56:15:639,-2.0517,0.5644,11.2541,48.4632,0.126,0.589,-0.5157,172.6562
19:56:15:658,-2.0948,0.7428,11.1595,49.6281,0.2756,0.4313,-0.3215,173.6094
19:56:15:680,-1.9344,0.7907,11.2577,48.4089,0.4453,0.1277,-0.1836,174.3438
19:56:15:704,-1.7273,0.677,11.0841,48.7688,0.486,-0.0872,-0.0589,174.8594
19:56:15:721,-0.9336,0.4531,10.9213,48.9485,0.3894,-0.0137,0.0543,175.1875
19:56:15:740,-0.8199,0.7141,10.865,49.4894,0.1571,0.1709,0.1081,175.375
19:56:15:759,-0.7038,0.5968,11.7449,50.579,-0.1633,0.2159,0.0945,175.4062
19:56:15:781,-0.8307,0.0748,12.9192,51.1005,-0.3651,0.1429,0.0601,175.3281
19:56:15:804,-1.0749,-0.677,14.1822,49.9846,-0.3374,0.0207,0.0532,175.2188
19:56:15:822,-0.869,-1.3461,14.2396,48.9242,-0.021,-0.0448,0.1608,175.1094
19:56:15:839,-0.4045,-1.7053,11.6467,50.5492,0.4682,0.1387,0.3166,175.0312
19:56:15:858,0.2228,-1.5508,8.5546,51.7852,0.7747,0.2044,0.4042,174.9062
19:56:15:878,0.6478,-1.4539,7.063,51.1393,0.6932,-0.0694,0.3557,174.6562
19:56:15:905,0.358,-1.4419,7.4078,50.2344,0.3521,-0.4201,0.1856,174.2969
19:56:15:922,-0.1771,-1.394,8.1608,51.9352,0.0186,-0.5999,0.0516,173.9375
19:56:15:938,-0.2393,-1.2719,8.2039,51.2948,-0.159,-0.5809,0.0569,173.6562
19:56:15:959,0.1426,-1.2049,7.8052,49.3055,-0.2535,-0.4451,0.1294,173.5312
19:56:15:979,0.2778,-1.0744,7.579,51.2027,-0.3457,-0.2917,0.1864,173.4688
19:56:16:005,0.2539,-0.8505,7.9728,49.4387,-0.4202,-0.1136,0.2338,173.3281
19:56:16:021,0.1186,-0.7201,8.5067,49.264,-0.4045,0.0537,0.2915,173.1094
19:56:16:038,-0.6044,-0.4399,8.3092,51.3112,-0.2434,0.2119,0.3475,172.7031
19:56:16:060,-0.7996,-0.1,7.9477,50.6506,0.0011,0.1517,0.4857,172.3438
19:56:16:078,0.0217,0.3454,7.1839,49.9481,0.2493,-0.0363,0.6732,171.9375
19:56:16:107,0.8297,0.9655,6.7661,50.6796,0.3316,-0.2209,0.7073,171.4062
19:56:16:124,1.1433,1.2468,7.9704,52.9367,0.1691,-0.3927,0.5347,170.6562
19:56:16:143,0.6561,0.9738,10.1994,51.7535,-0.0344,-0.463,0.2583,169.8594
19:56:16:159,-0.1962,0.4818,11.2648,52.2218,-0.004,-0.2614,0.0615,169.2656
19:56:16:179,-0.7253,0.2855,10.8351,52.5848,0.2112,0.0039,0.0593,168.9531
19:56:16:203,-0.5446,0.4878,9.9696,52.0311,0.3694,0.1765,0.168,168.875
19:56:16:220,0.151,0.5178,9.6643,50.9994,0.3587,0.1584,0.2276,168.8281
19:56:16:238,0.8441,0.1119,10.1336,53.9161,0.2053,-0.0771,0.1536,168.7656
19:56:16:259,1.1409,-0.7416,11.6802,52.3021,-0.0285,-0.3319,0.0164,168.5469
19:56:16:279,1.2918,-1.5748,13.0689,52.056,-0.2178,-0.3042,-0.04,168.3281
19:56:16:304,1.949,-1.8872,12.1435,53.2357,-0.2312,0.083,0.0551,168.2344
19:56:16:323,2.4374,-1.3809,10.4173,53.4224,-0.2408,0.3307,0.1169,168.25
19:56:16:340,2.4219,-1.09,10.4747,50.7833,-0.4546,0.0739,0.0087,168.1875
19:56:16:362,2.1154,-1.819,12.1279,51.0269,-0.7452,-0.3961,-0.1881,168.0469
19:56:16:378,1.6701,-2.7815,13.7811,52.7092,-0.8735,-0.5969,-0.2802,168.0156
19:56:16:436,1.8293,-3.1011,14.0672,49.6394,-0.7782,-0.4451,-0.1497,168.1875
19:56:16:436,2.8145,-2.9263,13.2245,52.8625,-0.3649,0.1219,0.2183,168.4219
19:56:16:440,3.7411,-2.3134,12.177,51.8028,-0.1292,0.2247,0.193,168.5156
19:56:16:461,4.1158,-1.5736,10.9524,52.3644,0.1475,0.2604,0.0513,168.2656
19:56:16:478,3.9314,-0.9691,9.2106,51.3824,0.3787,0.2406,-0.1409,168.2656
19:56:16:498,3.3448,-0.489,7.3755,51.0538,0.4626,0.1506,-0.337,167.9375
19:56:16:521,2.7187,-0.1239,6.0251,51.7031,0.4091,-0.0078,-0.5106,167.9062
19:56:16:538,2.1645,0.0305,5.4362,51.1484,0.2743,-0.1575,-0.6342,168.1094
19:56:16:558,1.6078,0.0748,5.6085,51.1484,0.1398,-0.2105,-0.6914,168.5312
19:56:16:578,1.22,0.0784,6.3591,50.9705,0.0879,-0.1599,-0.6824,169.1094
19:56:16:600,1.0572,0.0736,6.8571,51.2409,0.0852,-0.0393,-0.6238,169.8281
19:56:16:622,1.1374,0.185,7.1193,52.0412,0.0826,0.0409,-0.5663,170.625
19:56:16:640,1.2283,0.4471,7.2246,51.4725,0.0842,-0.0028,-0.5447,171.3594
19:56:16:658,1.226,0.6758,7.7226,51.0513,0.1233,-0.1354,-0.5274,172.0781
19:56:16:678,1.2319,0.847,8.2038,48.9899,0.188,-0.2579,-0.5149,172.7344
19:56:16:698,1.2894,1.011,8.5295,48.9656,0.1806,-0.3061,-0.5314,173.3281
19:56:16:722,0.971,1.3162,9.2477,49.0556,0.1483,-0.2984,-0.5585,173.9219
19:56:16:738,0.716,1.3198,10.0414,49.3391,0.1284,-0.2323,-0.5726,175.0938
19:56:16:758,0.4945,1.1402,11.0099,50.4188,0.1417,-0.0134,-0.5423,175.7031
19:56:16:778,0.0157,1.0026,11.5486,48.4031,0.224,0.2588,-0.4323,176.0156
19:56:16:798,-0.3913,0.9451,11.3522,50.0283,0.3438,0.4178,-0.2475,176.6719
19:56:16:820,-0.4285,1.0098,10.6316,48.0586,0.4176,0.4052,-0.0744,177.2188
19:56:16:840,-0.3267,1.1881,9.9205,48.5023,0.388,0.3046,0.0295,177.6406
19:56:16:858,-0.4033,1.2504,9.8678,48.3698,0.2674,0.2801,0.1118,177.8438
19:56:16:879,-0.1663,1.2947,10.4173,48.0513,0.142,0.4398,0.1483,177.8906
19:56:16:899,0.1976,1.2695,10.5789,47.5009,0.0381,0.5578,0.0833,177.8281
19:56:16:922,0.4418,0.9535,9.6559,48.8097,-0.2133,0.088,-0.0544,177.6875
19:56:16:939,0.3353,0.1431,10.7489,47.1226,-0.5129,-0.5634,-0.158,177.5625
19:56:16:958,0.2407,-0.8781,14.2384,45.944,-0.38,-0.5825,-0.1314,177.5469
19:56:16:980,0.4742,-1.995,15.8318,47.4016,0.1689,-0.0132,-0.0222,177.5938
19:56:17:006,0.4047,-2.3733,12.8378,46.9534,0.4962,0.4438,0.1493,177.7188
19:56:17:023,0.6023,-1.7867,9.0071,45.7481,0.3396,0.2697,0.2521,177.8438
19:56:17:040,1.0332,-1.2468,7.634,46.1672,-0.0551,-0.2323,0.1856,177.8594
19:56:17:059,1.0476,-1.2264,8.8491,46.2005,-0.314,-0.4976,0.0971,177.6094
19:56:17:078,0.6837,-1.4479,10.1072,45.3615,-0.3193,-0.3735,0.1243,177.3594
19:56:17:099,0.0731,-1.0145,9.9373,47.5009,-0.1982,-0.1687,0.2561,177.1875
19:56:17:123,0.0145,-0.0485,7.7094,45.4713,-0.094,-0.1466,0.4037,177.0469
19:56:17:140,0.2575,0.179,7.5083,44.7935,-0.0517,-0.2925,0.5065,176.8281
19:56:17:158,0.4574,0.398,7.7705,45.2876,-0.0226,-0.4427,0.5704,176.4531
19:56:17:177,0.5723,0.5154,8.1165,45.0212,0.0296,-0.4662,0.6197,175.9219
19:56:17:198,0.7483,0.659,8.1356,46.5873,0.1206,-0.3751,0.6564,175.2812
19:56:17:222,0.9638,0.7739,7.9525,46.1473,0.1965,-0.2504,0.6639,174.5781
19:56:17:238,1.0847,0.9224,7.707,44.2152,0.2392,-0.1522,0.634,173.8594
19:56:17:266,1.1912,0.9798,7.6125,44.057,0.2466,-0.1452,0.5669,173.0938
19:56:17:277,1.1805,0.9631,8.0303,45.3909,0.2056,-0.2001,0.4633,172.3438
19:56:17:301,0.9937,0.9475,8.6887,43.222,0.1233,-0.1847,0.3637,171.6719
19:56:17:325,0.9518,0.9068,9.1567,44.2789,0.0618,-0.0877,0.3011,171.0781
19:56:17:342,1.1841,0.8051,9.468,43.0002,0.0224,-0.0073,0.2537,170.4219
19:56:17:357,1.7191,0.5824,9.6595,42.7892,-0.0298,-0.0137,0.1888,170.0781
19:56:17:378,2.4973,0.0293,10.4388,41.6791,-0.1569,-0.2124,0.0729,169.7969
19:56:17:399,2.86,-0.7404,12.584,42.9691,-0.3971,-0.4558,-0.0962,169.5781
19:56:17:422,2.368,-1.564,14.8741,41.4853,-0.5633,-0.3719,-0.231,169.4844
19:56:17:441,2.0579,-2.1638,14.0385,42.2062,-0.4221,0.1794,-0.1833,169.5156
19:56:17:460,2.2914,-1.7436,11.205,41.8672,-0.1824,0.7552,0.0034,169.7031
19:56:17:478,2.8157,-1.1043,9.2489,41.8688,-0.1617,0.8465,0.0982,169.9531
19:56:17:499,2.9366,-0.8194,9.3195,41.4492,-0.3582,0.4582,-0.0174,170.0781
19:56:17:526,2.5942,-1.2635,11.2158,39.7369,-0.6229,-0.0289,-0.2515,170.0469
19:56:17:542,1.8484,-2.0584,13.27,40.304,-0.7204,-0.2302,-0.4137,170
19:56:17:559,1.7144,-2.3254,13.4675,41.3669,-0.5396,0.0215,-0.3386,170.1406
19:56:17:578,2.465,-2.0883,11.6048,41.6695,-0.2016,0.3594,-0.1489,170.5156
19:56:17:598,3.2933,-1.5473,9.7457,41.8105,0.0352,0.3925,-0.0674,170.9531
19:56:17:625,3.2203,-1.1319,8.8575,40.6092,0.0804,0.1725,-0.2025,171.3125
19:56:17:642,2.1776,-1.0253,8.308,40.4469,0.0429,0.0217,-0.4469,171.4219
19:56:17:659,1.0129,-1.0145,7.6879,40.5849,-0.0032,0.0758,-0.6009,171.6562
19:56:17:678,0.2527,-0.817,6.8368,40.4643,-0.024,0.2137,-0.5892,172.1719
19:56:17:698,-0.0346,-0.4758,6.2394,40.8001,-0.0365,0.2745,-0.4789,172.8438
19:56:17:722,0.1617,-0.0413,6.1041,40.5486,-0.0495,0.2092,-0.3319,173.5312
19:56:17:740,0.5328,0.3226,6.2789,40.9563,-0.0269,0.0833,-0.2256,174.0938
19:56:17:759,0.8165,0.6063,6.4321,41.1478,0.0226,-0.0457,-0.191,174.4688
19:56:17:780,0.7064,0.8829,6.6117,41.9835,0.061,-0.1301,-0.2142,174.7344
19:56:17:805,0.5412,0.926,7.2713,39.7044,0.0205,-0.2033,-0.2536,174.9531
19:56:17:822,0.558,1.1067,8.7366,39.8551,-0.1883,-0.0707,-0.2712,175.1719
19:56:17:839,0.7495,1.2791,10.1491,40.6884,-0.1201,0.0995,-0.3484,175.1719
19:56:17:866,0.7722,1.1714,10.8806,40.627,-0.0037,0.263,-0.4411,176.0312
19:56:17:878,0.2659,0.9906,11.0134,39.6,0.0732,0.3626,-0.4366,176.0312
19:56:17:899,-0.2848,0.8182,11.1559,39.9477,0.1164,0.3546,-0.2968,176.4219
19:56:17:924,-0.5996,0.7069,11.5545,40.6678,0.1931,0.2494,-0.0467,176.9531
19:56:17:941,-0.2884,0.7656,12.1435,40.3359,0.3462,0.0582,0.2109,177.4844
19:56:17:958,0.5089,0.7536,12.5505,40.8201,0.5182,-0.0789,0.3581,177.8438
19:56:17:977,1.4725,0.489,12.3746,41.0861,0.5867,-0.0262,0.3754,177.9219
19:56:17:997,1.8975,0.5022,11.6012,38.7038,0.4796,0.1344,0.2942,177.7031
19:56:18:022,1.548,0.7368,10.8399,41.42,0.1923,0.2721,0.1744,177.3125
19:56:18:039,1.0524,0.8146,10.8016,40.7846,-0.1766,0.3847,0.0689,176.9062
19:56:18:058,0.7447,0.3358,11.6132,39.7179,-0.3819,0.365,-0.0243,176.5938
19:56:18:077,0.0001,-0.4663,12.9276,40.5897,-0.2589,0.1882,-0.0091,176.4219
19:56:18:097,-0.6559,-1.1582,13.9763,41.7747,0.2322,0.0889,0.1528,176.3594
19:56:18:122,-0.6296,-1.5389,12.4895,41.4158,0.6887,0.0609,0.3248,176.3906
19:56:18:140,-0.0394,-1.4599,9.6033,40.8574,0.7366,-0.097,0.3525,176.4062
19:56:18:165,0.7483,-1.5712,7.8351,39.8856,0.4637,-0.3287,0.2063,175.9219
19:56:18:176,0.801,-1.7532,7.6735,40.416,0.1494,-0.5146,0.0623,175.5625
19:56:18:200,0.461,-1.558,8.5079,40.7439,0.0003,-0.6259,0.0364,175.4219
19:56:18:224,0.4646,-1.0864,9.3279,41.171,0.0107,-0.6017,0.0575,175.2812
19:56:18:239,0.9901,-0.7835,9.7996,41.7422,0.1406,-0.4507,0.0013,175.2188
19:56:18:257,0.8704,-0.6997,9.2717,40.2686,0.2666,-0.2853,-0.0376,175.1562
19:56:18:278,0.461,-0.7093,8.4062,40.9821,0.339,-0.1918,0.0428,175.0781
19:56:18:297,0.297,-0.6518,7.7681,41.6347,0.4011,-0.1985,0.1747,175.1094
19:56:18:323,0.1186,-0.4687,7.1684,40.3485,0.4192,-0.2459,0.3238,175.125
19:56:18:343,0.224,-0.2843,6.8834,41.0898,0.3808,-0.2238,0.4886,175
19:56:18:359,0.6777,-0.0317,6.8822,41.0878,0.331,-0.0502,0.6106,174.7344
19:56:18:381,1.1852,0.2364,6.4154,40.0435,0.1904,0.0795,0.6359,174.2812
19:56:18:406,1.4414,0.6183,6.4657,39.6444,-0.0447,0.12,0.5954,173.6406
19:56:18:424,1.4725,0.896,7.5598,40.8194,-0.2234,0.0787,0.523,172.9531
19:56:18:440,1.1386,0.8003,9.3303,41.2693,-0.1928,0.0896,0.5033,172.5938
19:56:18:503,0.9446,0.7308,10.4891,41.8334,0.0027,0.161,0.5334,171.9062
19:56:18:503,1.2032,0.8781,10.118,41.2677,0.1108,0.0923,0.5025,171.3125
19:56:18:504,1.36,1.0624,9.9732,40.4206,0.0493,-0.0755,0.4042,170.4531
19:56:18:528,1.7742,0.489,11.4348,39.6462,-0.0663,-0.2371,0.2758,169.8594
19:56:18:540,1.4486,0.1407,12.45,41.1149,-0.1814,-0.1958,0.1895,169.3281
19:56:18:557,1.111,-0.1071,12.2309,38.5743,-0.1963,0.0984,0.2143,168.9531
19:56:18:586,1.4713,-0.228,10.9273,38.5578,-0.1148,0.2886,0.3318,168.7031
19:56:18:607,2.4075,-0.3226,9.9013,39.965,-0.1505,0.1104,0.4252,168.4844
19:56:18:626,3.4298,-0.4627,11.3594,39.6465,-0.4738,-0.3077,0.3746,168.1875
19:56:18:643,3.9649,-1.0708,14.8047,39.6465,-0.9148,-0.5469,0.1898,167.75
19:56:18:658,4.0224,-1.8537,17.0157,39.9867,-1.0091,-0.2057,-0.0014,167.2656
19:56:18:676,3.3281,-2.2727,14.8669,38.9331,-0.5417,0.4231,-0.138,166.9062
19:56:18:696,3.2143,-2.0776,11.5869,39.6031,0.0192,0.6066,-0.1314,166.7812
19:56:18:717,3.5256,-1.5856,9.8427,40.7575,0.2852,0.2921,-0.0978,166.875
19:56:18:739,3.3233,-1.0828,8.7366,40.511,0.3723,-0.0302,-0.1865,167.0781
19:56:18:758,2.8923,-0.7296,7.7561,41.2443,0.3752,-0.0651,-0.3133,167.2188
19:56:18:777,2.4889,-0.3286,6.5495,39.8413,0.3547,0.0779,-0.4003,167.5
19:56:18:797,1.9933,0.0533,5.344,38.9622,0.2831,0.2449,-0.4834,167.8594
19:56:18:823,1.6006,0.3549,4.822,38.9791,0.1182,0.2947,-0.5529,168.3125
19:56:18:840,1.1996,0.6291,5.2327,40.8992,-0.1047,0.2561,-0.6057,168.875
19:56:18:857,0.7076,0.7213,6.0814,39.2908,-0.2615,0.1818,-0.6395,169.5312
19:56:18:879,0.3449,0.9703,6.8763,39.6177,-0.2943,0.1224,-0.6078,170.1875
19:56:18:899,0.2838,1.3593,7.8028,39.8125,-0.245,0.1048,-0.5253,170.9219
19:56:18:922,0.6238,1.6346,8.3224,38.7292,-0.1116,0.1562,-0.4536,171.2812
19:56:18:942,0.886,1.8896,8.2841,38.129,0.0543,0.2279,-0.4581,171.9219
19:56:18:958,0.6849,1.9423,8.2206,38.8996,0.1398,0.2476,-0.554,172.4531
19:56:18:977,0.2671,1.8561,8.5797,38.6703,0.1041,0.2068,-0.6752,172.9688
19:56:18:997,-0.201,1.4647,9.3914,38.1662,-0.0037,0.1701,-0.7617,173.5469
19:56:19:023,-0.7026,0.8506,10.6136,38.6846,-0.1143,0.1869,-0.7844,174.2344
19:56:19:039,-1.1994,0.4244,11.7964,37.5102,-0.143,0.2918,-0.6826,175.0625
19:56:19:058,-1.0557,0.234,12.0094,38.4839,-0.0384,0.3863,-0.4619,176.4219
19:56:19:077,-0.6703,0.1861,11.8646,37.9967,0.1063,0.3272,-0.2323,177.1719
19:56:19:098,-0.4476,0.0629,12.0801,38.1329,0.2248,0.0398,-0.069,177.7188
19:56:19:123,-0.5218,0.0174,13.2592,37.3194,0.4282,-0.6374,0.083,178
19:56:19:141,-0.5422,-0.0425,13.525,38.8515,0.8093,-1.4827,0.2023,178.0938
19:56:19:157,-0.5314,-0.0581,13.4232,37.7929,0.9183,-1.7525,0.2737,178
19:56:19:177,-0.6344,-0.3286,15.0525,38.5413,0.5385,-1.4513,0.3315,177.75
19:56:19:197,-0.5733,-0.9224,17.0552,39.8526,0.159,-0.7439,0.4599,177.4219
19:56:19:218,-0.2154,-1.2911,15.7899,38.1686,0.7934,0.805,1.0617,177.0312
19:56:19:240,0.5915,-1.005,11.8706,39.8628,1.249,0.6673,1.2961,177.0312
19:56:19:257,1.4306,-0.3693,8.1177,41.1034,1.355,0.0465,1.2841,176.4844
19:56:19:279,2.0531,0.2532,6.231,41.7058,1.0751,-0.3974,1.1001,173.0469
19:56:19:297,2.2938,0.519,6.1317,40.2316,0.6107,-0.3466,0.8727,173.0469
19:56:19:322,2.1848,0.4579,6.6668,41.9346,0.2091,0.0324,0.7107,171.5938
19:56:19:339,1.9131,0.3956,6.9924,41.9723,-0.0048,0.3807,0.6548,170.3438
19:56:19:356,1.6318,0.5118,6.9648,42.4888,-0.0096,0.5046,0.6711,169
19:56:19:377,1.5635,0.6841,6.6105,42.6845,0.1039,0.3988,0.7126,168.5938
19:56:19:397,1.8197,0.7799,6.0347,43.0341,0.2173,0.1472,0.7155,167.8281
19:56:19:422,1.9682,0.9894,5.5714,43.5313,0.2357,-0.1234,0.6817,167.0781
19:56:19:441,2.1788,1.2935,5.6349,45.6805,0.1507,-0.2424,0.5983,166.2344
19:56:19:457,2.2531,1.3952,6.0682,45.0926,-0.0005,-0.1362,0.4897,165.4219
19:56:19:477,1.8987,1.5461,6.5147,44.5358,-0.1766,0.0718,0.4367,164.6719
19:56:19:497,1.5947,1.6406,7.1684,43.1699,-0.2842,0.1594,0.4258,164.0156
19:56:19:522,1.5587,1.7819,7.8363,45.3706,-0.3246,0.0492,0.429,163.4531
19:56:19:543,1.8484,2.0967,8.9855,46.0795,-0.319,-0.1152,0.3922,162.9531
19:56:19:557,2.2543,2.2691,10.3323,44.5265,-0.2653,-0.1698,0.2609,162.4844
19:56:19:577,2.3788,2.135,11.035,46.2254,-0.2871,0.0257,0.1025,161.9844
19:56:19:597,2.0879,1.7735,11.1858,47.2827,-0.4706,0.3837,-0.0118,161.5469
19:56:19:622,1.5947,1.3653,11.5043,47.5585,-0.6559,0.6031,-0.081,161.2656
19:56:19:639,1.0236,0.8493,12.116,47.9741,-0.6996,0.5917,-0.081,161.1406
19:56:19:658,0.5556,0.3945,12.5745,48.697,-0.6227,0.5059,0.0503,161.1719
19:56:19:679,0.856,0.1802,12.5146,50.0483,-0.4969,0.4918,0.2404,161.25
19:56:19:695,1.9023,0.3178,11.6443,50.0917,-0.4551,0.4063,0.294,161.2656
19:56:19:716,2.4554,0.6231,10.9296,50.5619,-0.5249,0.1933,0.2236,161.0781
19:56:19:736,2.6804,0.6135,11.2553,50.0483,-0.6346,0.0375,0.1965,160.7344
19:56:19:756,3.6692,0.4591,12.4009,52.2946,-0.6671,0.0145,0.0591,160.4219
19:56:19:777,4.1828,0.0928,13.8494,51.0832,-0.4623,0.1469,-0.2214,160.1719
19:56:19:797,3.3472,-0.5608,14.2325,51.858,-0.0011,0.3778,-0.3889,159.9688
19:56:19:823,2.69,-1.1498,12.0896,53.066,0.4362,0.364,-0.3684,160.0312
19:56:19:841,3.0886,-1.0564,9.2298,52.0393,0.6045,-0.0558,-0.4206,160.4062
19:56:19:857,3.7446,-0.6363,7.4221,52.1567,0.425,-0.468,-0.6893,160.875
19:56:19:877,3.7279,-0.4962,7.057,53.0032,0.021,-0.4712,-1.0507,161.3125
19:56:19:897,2.8229,-0.817,7.5885,53.3854,-0.3401,-0.1109,-1.3037,161.9375
19:56:19:921,1.4953,-1.1953,7.816,52.4731,-0.5188,0.2846,-1.3394,162.3906
19:56:19:938,0.127,-0.8505,7.3348,54.796,-0.5193,0.4662,-1.1743,164.2344
19:56:19:957,0.4335,-0.41,7.1504,54.2607,-0.3752,0.3645,-0.9599,165.7656
19:56:19:977,0.5879,-0.009,6.7314,54.8421,-0.1563,0.1786,-0.8264,167.2188
19:56:19:997,0.637,0.1107,5.8228,54.7483,0.0589,0.0209,-0.7596,168.4219
19:56:20:020,0.4562,0.2412,5.0579,55.7519,0.1294,-0.092,-0.721,169.375
19:56:20:039,0.3628,0.2448,5.1572,56.2297,-0.0024,-0.1839,-0.685,170.2812
19:56:20:057,0.3006,0.1886,6.5997,56.2783,-0.2653,-0.2789,-0.6288,171.1406
19:56:20:079,0.5053,0.1682,8.6085,57.9277,-0.4666,-0.2321,-0.5338,171.8906
19:56:20:098,0.7842,0.3562,10.1922,57.0879,-0.453,-0.1343,-0.4579,172.6406
19:56:20:122,0.6154,0.671,10.4508,56.4599,-0.2535,-0.0614,-0.4358,173.2812
19:56:20:142,-0.019,0.8458,10.5298,58.7697,-0.1422,-0.0462,-0.4621,173.7969
19:56:20:157,-0.5853,0.7859,11.3259,58.2235,-0.2362,0.0305,-0.4288,174.2812
19:56:20:176,-0.6404,0.8589,12.1184,58.5373,-0.3646,0.2231,-0.2965,174.7969
19:56:20:196,-0.6032,1.2216,12.535,58.9455,-0.4096,0.3741,-0.1583,175.3125
19:56:20:215,-0.2321,1.4886,13.003,58.491,-0.4208,0.4202,-0.0475,175.8594
19:56:20:238,0.4957,1.5568,13.5645,59.091,-0.4336,0.4388,-0.0041,176.0469
19:56:20:257,0.4083,1.4994,13.6554,62.0148,-0.4352,0.4761,-0.1245,176.1094
19:56:20:276,-0.5446,0.8182,14.0768,59.8316,-0.4645,0.4239,-0.3308,176.125
19:56:20:298,-1.683,-0.6015,15.5421,58.5952,-0.428,0.2305,-0.4249,176.2812
19:56:20:322,-2.1259,-1.8334,15.4463,59.0035,-0.1095,0.2502,-0.2443,176.6719
19:56:20:340,-1.5022,-1.9459,12.2357,60.1432,0.4115,0.569,0.1555,177.125
19:56:20:357,0.127,-1.7089,8.5785,59.4579,0.702,0.7744,0.5043,177.4375
19:56:20:377,1.269,-1.6119,6.7266,60.5473,0.5731,0.5733,0.5163,177.3281
19:56:20:397,1.3768,-2.1326,7.081,60.0785,0.1593,0.197,0.2276,177.125
19:56:20:422,0.1497,-3.0664,8.223,61.6542,-0.2378,-0.0547,-0.1631,176.625
19:56:20:439,-1.6974,-3.5955,8.8551,59.3903,-0.4107,-0.1394,-0.3396,176.2344
19:56:20:457,-2.5449,-3.295,9.146,61.6276,-0.4045,-0.1194,-0.1039,176.1875
19:56:20:477,-2.1906,-2.7072,8.8024,59.6917,-0.2328,-0.112,0.3461,176.4844
19:56:20:497,-1.525,-2.0321,7.8651,60.2271,0.0139,-0.1807,0.7453,176.7344
19:56:20:523,-0.7241,-1.327,7.221,60.1441,0.1742,-0.2446,1.0359,176.7188
19:56:20:577,-0.0478,-0.8625,6.8487,60.0825,0.249,-0.2931,1.2024,175.4844
19:56:20:577,0.3377,-0.507,6.6033,60.4093,0.2906,-0.316,1.262,174.2969
19:56:20:590,0.8836,-0.0964,6.1855,61.1151,0.3183,-0.3373,1.2791,172.9062
19:56:20:598,1.7623,0.4567,5.7785,61.2646,0.2629,-0.394,1.2234,172.9062
19:56:20:617,1.791,0.4998,6.7099,60.9247,0.0562,-0.4835,1.0215,170.0625
19:56:20:639,1.4594,0.343,8.2469,60.4483,-0.3941,-0.1042,0.5507,168.6562
19:56:20:656,1.0679,0.185,9.1005,60.3452,-0.6432,0.5224,0.3797,168.6562
19:56:20:676,0.8177,0.0736,9.4716,60.3952,-0.9095,1.1283,0.2489,167.4688
19:56:20:695,0.9195,0.1227,9.8894,59.897,-1.0064,1.2236,0.0567,165.9375
19:56:20:717,0.8465,-0.2723,10.64,60.2024,-0.9015,0.7616,-0.1705,165.5
19:56:20:740,0.5568,-1.1067,12.1028,60.2024,-0.6232,0.0622,-0.3231,165.2344
19:56:20:756,0.0588,-2.2224,14.1618,61.2608,-0.2053,-0.4787,-0.3314,165.3594
19:56:20:777,-0.4057,-3.0604,15.2201,61.2608,0.1747,-0.569,-0.1604,165.5
19:56:20:797,-0.1471,-3.204,14.5557,59.5976,0.3289,-0.3647,0.0689,165.8125
19:56:20:822,0.698,-2.9024,13.1682,60.4614,0.2703,-0.2409,0.1896,166.0625
19:56:20:840,0.4646,-2.311,12.4368,59.929,0.0847,-0.4318,0.4452,166.0938
19:56:20:857,2.0759,-1.3964,13.5501,61.2356,-0.016,-0.5077,0.6071,166
19:56:20:875,4.2259,-0.8493,15.0429,60.8832,0.257,-0.2869,0.1901,165.7969
19:56:20:896,3.3293,-1.6753,13.9679,60.1805,0.6663,-0.2028,-0.1908,165.25
19:56:20:915,1.767,-2.6797,11.6036,60.1805,0.8956,-0.3056,-0.1769,164.5
19:56:20:941,1.7802,-2.7922,10.2365,61.0523,1.0029,-0.5021,-0.0714,164.2812
19:56:20:958,2.5356,-2.2045,9.5602,59.5157,1.0623,-0.5913,-0.1021,164.5312
19:56:20:975,2.9953,-1.6083,8.9604,59.6693,1.114,-0.4481,-0.2856,164.7656
19:56:20:997,2.4925,-1.1797,7.6233,58.0986,1.1209,-0.2182,-0.4571,164.875
19:56:21:023,1.9035,-0.8314,5.9461,59.6723,1.0131,-0.0041,-0.5612,165.0156
19:56:21:041,1.6318,-0.5177,4.4569,60.4772,0.767,0.1256,-0.6422,165.375
19:56:21:060,1.53,-0.1562,3.777,59.2088,0.4346,0.1823,-0.7253,166.2344
19:56:21:076,1.4953,0.2292,4.2031,59.9739,0.1204,0.2428,-0.8368,166.9688
19:56:21:096,1.3445,0.5046,5.3679,59.5471,-0.1345,0.5743,-0.9788,167.7812
19:56:21:117,1.293,0.4387,6.2909,59.9441,-0.4139,1.2713,-1.1138,168.6875
19:56:21:139,0.1857,0.8889,6.7087,59.2503,-0.7079,2.18,-1.0432,169.6875
19:56:21:157,0.2683,1.3078,7.4497,58.9349,-0.8551,2.5901,-1.0203,170.8906
19:56:21:175,-0.2094,1.576,8.6815,61.0125,-0.6666,2.303,-1.0613,172.125
19:56:21:196,-0.7026,1.57,10.1432,59.0707,-0.1856,1.6601,-1.0499,173.2188
19:56:21:217,-1.1084,1.57,10.531,59.9585,0.3244,0.9104,-1.0608,174.4219
19:56:21:241,-1.8434,1.4479,10.3179,59.2044,0.6128,0.2649,-1.0733,175.6719
19:56:21:257,-2.8095,1.054,10.6603,59.2148,0.6828,0.0271,-0.9854,176.9531
19:56:21:276,-3.736,0.6686,11.1667,60.2281,0.6762,0.1634,-0.7479,178.2344
19:56:21:296,-4.2999,0.7033,11.1679,57.9965,0.64,0.3525,-0.4368,179.5625
19:56:21:316,-3.8857,1.2396,10.6579,56.5873,0.599,0.4116,-0.1918,180.7031
19:56:21:340,-3.7983,1.0912,10.4125,58.1326,0.5585,0.3344,-0.048,181.1562
19:56:21:359,-3.9563,1.0062,10.1312,57.63,0.5108,0.2276,0.0697,181.9531
19:56:21:382,-4.0497,0.999,10.1467,58.2171,0.4376,0.099,0.1933,182.2031
19:56:21:394,-3.9144,0.932,9.6954,59.4428,0.3419,0.0726,0.3163,182.2969
19:56:21:415,-3.523,0.8074,9.3375,58.1441,0.1814,0.0998,0.3973,182.2344
19:56:21:439,-3.4033,0.3262,9.7589,57.607,-0.045,-0.0203,0.3896,182.0312
19:56:21:456,-3.7013,-0.5046,10.1587,58.8411,-0.1931,-0.1034,0.3387,181.6562
19:56:21:475,-3.9779,-1.0588,9.7433,57.9177,-0.2176,-0.0592,0.3653,181.2344
19:56:21:496,-3.8498,-1.2468,8.8239,57.6445,-0.2163,-0.0307,0.4833,180.7969
19:56:21:516,-3.4835,-1.0936,8.2948,57.4921,-0.298,-0.1583,0.6071,180.3594
19:56:21:541,-2.8143,-0.7763,9.1591,57.7287,-0.4879,-0.3831,0.7067,179.875
19:56:21:560,-2.1331,-0.7488,10.0127,57.4457,-0.5957,-0.4363,0.7683,179.1875
19:56:21:576,-1.756,-0.7548,9.7397,56.4259,-0.486,-0.2829,0.8071,178.3594
19:56:21:596,-1.5082,-0.5596,8.5438,56.8236,-0.2402,-0.0896,0.8759,177.4062
19:56:21:615,-0.7349,-0.1335,7.1588,57.4097,-0.0059,-0.0142,0.9794,175.9219
19:56:21:639,0.1677,0.3322,6.2262,56.5488,0.1185,-0.1101,1.0181,174.875
19:56:21:656,0.4634,0.6662,5.9569,57.2689,0.135,-0.3242,0.9041,173.8125
19:56:21:676,0.4622,0.7668,6.1891,56.8927,0.0546,-0.5048,0.7214,172.6719
19:56:21:695,0.2898,0.4316,6.8715,54.5084,-0.0631,-0.5447,0.548,171.6562
19:56:21:715,-0.2202,0.1059,7.6807,53.8084,-0.188,-0.3535,0.4537,170.8438
19:56:21:740,-0.7684,0.4232,8.4828,56.9258,-0.2706,-0.0656,0.4838,170.2344
19:56:21:757,-0.6547,0.6399,9.0753,56.0734,-0.2501,0.0494,0.5611,169.6875
19:56:21:776,-0.286,0.896,9.644,56.4095,-0.1297,-0.0909,0.5893,169.0781
19:56:21:796,0.1031,1.1821,9.9384,54.8165,0.0125,-0.3072,0.5419,168.4375
19:56:21:817,0.2108,1.236,9.6966,55.2012,0.1036,-0.4145,0.3949,168.0781
19:56:21:839,0.1917,1.0265,9.6667,55.6056,0.0376,-0.4859,0.2002,167.4062
19:56:21:859,0.2096,0.5285,10.5166,54.0428,-0.176,-0.5895,0.0098,166.875
19:56:21:879,0.1677,-0.2077,12.0896,53.8963,-0.433,-0.631,-0.1409,166.5625
19:56:21:896,0.4502,-0.9463,13.0677,55.5871,-0.5859,-0.4973,-0.2027,166.4375
19:56:21:916,0.7866,-1.1953,12.3207,55.5575,-0.6203,-0.1423,-0.2182,166.4844
19:56:21:940,0.1665,-0.9631,11.5557,54.769,-0.7017,0.1,-0.3055,166.6875
19:56:21:957,-0.8163,-1.1307,12.438,54.2449,-0.8581,-0.0174,-0.4246,166.8594
19:56:21:976,-1.4568,-1.9136,14.0038,56.8394,-0.8759,-0.2718,-0.4336,167.125
19:56:21:996,-1.4592,-2.2799,14.3641,54.8843,-0.6104,-0.3668,-0.2371,167.4844
19:56:22:017,-0.7996,-1.9902,13.2556,55.642,0.0865,-0.3032,0.2998,167.8594
19:56:22:039,0.2096,-1.6454,11.9819,54.919,0.2586,-0.2845,0.3973,168.0312
19:56:22:056,0.6681,-1.2935,10.8889,54.9274,0.3875,-0.1769,0.4311,168.0312
19:56:22:082,0.8297,-0.8972,9.5458,55.6719,0.5161,-0.1093,0.4287,167.9219
19:56:22:094,0.9243,-0.3298,8.132,55.0561,0.6141,-0.0915,0.3906,167.5781
19:56:22:117,1.0667,0.264,6.6895,55.318,0.6221,-0.1085,0.2913,166.6719
19:56:22:140,1.3253,0.7404,5.5523,54.6533,0.4759,-0.1642,0.1275,166.25
19:56:22:159,1.4989,1.2157,5.5211,54.3654,0.3012,-0.1748,-0.0951,165.8594
19:56:22:181,1.3672,1.2683,5.7666,54.9032,0.1736,-0.1309,-0.3186,165.5938
19:56:22:195,0.8213,1.224,6.0048,54.146,0.045,0.0132,-0.448,165.5312
19:56:22:221,0.2024,1.1558,6.3184,55.0508,-0.0652,0.1187,-0.4579,165.7969
19:56:22:243,-0.0502,1.3198,7.0032,54.5423,-0.1204,0.1086,-0.424,166.25
19:56:22:261,-0.1017,1.4682,8.1644,54.8844,-0.069,-0.0424,-0.403,166.7656
19:56:22:276,-0.0095,1.4635,9.3255,55.2153,0.0538,-0.1498,-0.3995,167.0156
19:56:22:295,0.0336,1.6933,10.2748,55.301,0.1798,-0.1415,-0.4328,167.5
19:56:22:315,0.0181,1.7508,10.6196,55.8839,0.2309,-0.0872,-0.5178,167.9531
19:56:22:339,-0.3686,1.5161,10.9081,55.5992,0.1774,0.0726,-0.5583,168.3906
19:56:22:357,-0.9995,1.1414,11.5222,56.506,0.1276,0.3181,-0.4773,168.8906
19:56:22:374,-1.373,0.8757,11.9568,56.4344,0.1529,0.4939,-0.3151,169.5156
19:56:22:398,-1.4867,0.817,12.0358,56.278,0.2344,0.4907,-0.1298,170.125
19:56:22:413,-1.343,0.744,11.934,54.8746,0.3417,0.4058,0.041,170.7031
19:56:22:435,-1.021,0.7404,11.2912,54.7246,0.3667,0.2833,0.1411,171.0781
19:56:22:459,-0.9791,0.8565,10.9548,55.2164,0.286,0.1802,0.2346,171.2656
19:56:22:477,-0.8953,1.1462,11.0733,55.9341,0.1438,0.1451,0.2948,171.2188
19:56:22:495,-0.6092,1.3402,11.4157,54.867,-0.0152,0.0319,0.2753,171.0469
19:56:22:515,-0.2585,0.8769,12.3889,54.9618,-0.1028,-0.0797,0.2263,170.7656
19:56:22:540,-0.3303,-0.0569,13.9056,54.9378,0.1422,0.0588,0.2191,170.4531
19:56:22:557,-0.8474,-0.8266,12.9779,55.318,0.571,0.2833,0.3057,170.1406
19:56:22:574,-0.8822,-0.9056,9.5015,56.5107,0.6479,0.2348,0.4045,169.9062
19:56:22:641,-0.2118,-0.6267,6.82,54.6034,0.2951,-0.1154,0.3339,169.6719
19:56:22:642,-0.1543,-0.1454,6.6344,57.6774,-0.2043,-0.4619,0.1464,169.3281
19:56:22:642,-0.3494,-0.5561,8.5319,53.6355,-0.5025,-0.521,0.0428,168.9375
19:56:22:660,-0.5889,-1.0193,10.3874,54.1097,-0.4471,-0.3085,0.0615,168.6875
19:56:22:675,-1.0857,-0.8697,10.3981,55.8105,-0.2226,-0.0747,0.1773,168.5625
19:56:22:695,-1.3706,-0.5896,9.1615,55.1031,-0.0437,0.0151,0.3424,168.4688
19:56:22:716,-0.438,-0.0964,7.0151,56.3433,0.0461,-0.0158,0.4886,168.3125
19:56:22:735,-0.037,0.1359,6.8092,56.4192,0.041,-0.1482,0.5493,168.0156
19:56:22:758,0.1318,0.1454,7.1576,55.6066,0.0197,-0.3053,0.5685,167.5312
19:56:22:777,0.0324,0.0617,7.4617,55.0319,0.0413,-0.353,0.5858,166.9219
19:56:22:794,0.1497,0.3837,7.3108,55.4323,0.0895,-0.2363,0.6593,166.3281
19:56:22:817,0.6597,0.7656,7.0379,56.4921,0.1143,-0.1365,0.7166,165.6719
19:56:22:841,0.8429,1.0936,7.3383,56.0472,0.0541,-0.1455,0.6591,164.9844
19:56:22:858,0.8417,1.309,8.2912,56.0472,-0.0642,-0.1887,0.5422,164.2344
19:56:22:876,0.6465,1.3964,8.8216,54.8626,-0.1055,-0.1772,0.4021,163.4375
19:56:22:894,0.3664,1.4994,9.1017,55.0704,-0.1073,-0.1354,0.2692,162.75
19:56:22:915,0.2527,1.5329,9.3303,56.1806,-0.1422,-0.0861,0.1733,162.2031
19:56:22:941,0.2036,1.3893,9.7733,56.1589,-0.2333,-0.0941,0.07,161.8438
19:56:22:959,0.4395,1.1402,10.7728,56.5107,-0.3941,-0.1261,-0.0312,161.5781
19:56:22:976,0.4766,0.6889,12.359,56.4911,-0.5595,-0.2121,-0.162,161.4375
19:56:22:995,0.1342,-0.1873,14.102,56.2518,-0.6661,-0.2084,-0.2912,161.375
19:56:23:015,0.1653,-0.9906,14.3881,54.8975,-0.6184,0.0484,-0.2706,161.4531
19:56:23:041,0.7028,-0.9559,12.8127,56.8604,-0.4597,0.4002,-0.1351,161.6719
19:56:23:059,1.5779,-0.5142,11.5881,55.1856,-0.429,0.5459,-0.069,162.0625
19:56:23:076,1.8676,-0.507,11.9029,55.2611,-0.6045,0.4713,-0.2214,162.1875
19:56:23:095,1.1565,-1.3569,13.5166,55.8556,-0.841,0.4164,-0.5042,162.2344
19:56:23:117,-0.1028,-2.0788,14.8083,56.2734,-0.8991,0.6641,-0.6379,162.4219
19:56:23:140,-0.5278,-2.2092,13.6914,56.7631,-0.5723,1.123,-0.4874,162.9375
19:56:23:158,0.8453,-1.9016,10.7776,57.3012,0.0037,1.1925,-0.1788,163.6094
19:56:23:174,2.4602,-1.2073,9.2705,56.5038,0.367,0.703,-0.0448,164.1562
19:56:23:198,2.4793,-0.9343,9.4764,54.4916,0.4842,0.0327,-0.2549,164.4219
19:56:23:214,1.2188,-1.2169,9.4237,52.2937,0.5611,-0.3045,-0.582,164.5625
19:56:23:238,0.0827,-1.2743,8.4373,55.6507,0.6594,-0.1785,-0.7055,164.9219
19:56:23:257,-0.1364,-0.8457,6.9912,54.2888,0.7018,0.1714,-0.6035,165.625
19:56:23:275,0.2455,-0.179,5.8923,55.2388,0.6365,0.454,-0.4808,166.0625
19:56:23:294,0.5711,0.3837,5.4673,54.7935,0.4698,0.6185,-0.4675,166.9219
19:56:23:317,0.5687,0.6411,5.3667,54.7639,0.3119,0.6303,-0.5625,167.6406
19:56:23:341,-0.0238,0.7117,5.3931,53.9474,0.2213,0.4881,-0.7101,168.2344
19:56:23:360,-0.6607,0.6195,6.1748,54.7344,0.1222,0.2822,-0.8046,168.875
19:56:23:375,-0.778,0.6458,7.2593,54.5315,0.0333,0.1541,-0.7932,170.1094
19:56:23:396,-0.6619,1.0181,8.5642,52.7345,0.0128,0.0537,-0.7449,171.0156
19:56:23:414,-0.7337,1.3378,9.6404,53.0485,0.0956,-0.0776,-0.7221,171.9219
19:56:23:435,-1.3466,1.5245,10.0498,54.6984,0.4168,-0.1335,-0.6494,172.7812
19:56:23:456,-1.4771,1.7149,9.9361,52.3328,0.4658,-0.0406,-0.5255,173.5781
19:56:23:474,-1.8327,1.9351,9.881,55.014,0.4123,0.0795,-0.3921,174.4531
19:56:23:498,-1.7967,2.1051,9.729,54.0386,0.3063,0.0718,-0.2347,175.25
19:56:23:513,-1.0186,2.074,10.0294,54.0966,0.1457,-0.0291,-0.1987,175.9062
19:56:23:533,-0.1555,1.5066,11.1308,53.0376,0.0144,-0.125,-0.2952,176.4219
19:56:23:558,0.0336,0.8278,12.5182,54.177,-0.0027,-0.1074,-0.3785,176.7344
19:56:23:573,-0.1124,0.2424,13.5226,53.1239,0.1324,0.1067,-0.3969,176.9844
19:56:23:595,-0.5529,-0.0784,13.009,53.3076,0.3103,0.3663,-0.325,177.9688
19:56:23:613,-0.517,0.2029,11.0841,51.4971,0.2932,0.4431,-0.2589,178.2188
19:56:23:633,0.23,0.8637,9.7194,51.6859,0.0117,0.2686,-0.3937,178.4375
19:56:23:655,0.3832,0.8338,10.2569,51.8991,-0.3281,0.0646,-0.6219,178.9688
19:56:23:678,-0.025,-0.0629,12.5002,52.5476,-0.4032,0.0891,-0.7407,179.1719
19:56:23:694,-0.4823,-1.0912,14.3653,52.302,-0.0091,0.353,-0.7111,179.7344
19:56:23:714,-0.6691,-1.734,13.2365,50.9041,0.5452,0.5166,-0.5764,180.4219
19:56:23:740,-0.2058,-1.5892,9.7876,48.889,0.7444,0.3666,-0.5074,181.2344
19:56:23:757,0.8153,-1.1941,7.5909,50.2865,0.612,0.0103,-0.6595,181.6562
19:56:23:773,1.3684,-1.1773,7.1193,51.4233,0.3792,-0.3349,-0.9458,182.4219
19:56:23:797,1.5994,-1.5185,7.6149,49.0528,0.1766,-0.4675,-1.2512,183.1094
19:56:23:813,1.3792,-1.9746,7.9106,48.878,0.0107,-0.4014,-1.4938,183.9844
19:56:23:833,0.54,-2.2284,7.8962,49.9977,-0.1454,-0.2126,-1.5564,185.125
19:56:23:856,-0.3219,-2.0931,7.877,50.0086,-0.2304,-0.0755,-1.4584,186.5
19:56:23:877,-0.6176,-1.8633,7.7908,47.3281,-0.2378,-0.0797,-1.3008,188.2031
19:56:23:894,-0.5194,-1.5149,7.4808,48.7771,-0.2591,-0.1298,-1.1601,191.5938
19:56:23:913,-0.4464,-1.1043,7.3647,48.8754,-0.2993,-0.2193,-1.0496,192.2656
19:56:23:933,-0.5051,-0.8589,7.6604,49.0648,-0.2796,-0.3681,-0.9593,193.625
19:56:23:954,-0.7888,-0.7548,8.1572,49.1267,-0.2061,-0.4837,-0.8323,194.8281
19:56:23:973,-0.6308,-0.3537,8.4864,47.609,-0.1497,-0.566,-0.7322,195.875
19:56:23:997,0.0707,0.1395,8.8802,49.7827,-0.1593,-0.618,-0.7804,196.8438
19:56:24:013,0.71,0.5896,9.8139,47.4666,-0.1875,-0.6707,-0.958,197.6562
19:56:24:034,1.9155,0.9559,11.5988,47.8187,-0.1127,-0.577,-1.28,198.4375
19:56:24:054,2.1022,0.9403,12.596,45.9095,0.0205,-0.2829,-1.688,199.3125
19:56:24:073,0.37,0.3166,12.5062,47.4045,0.0935,0.0992,-1.8217,200.5
19:56:24:096,-1.3107,-0.3837,11.9508,46.9785,0.1926,0.3597,-1.5673,202.1719
19:56:24:114,-0.4021,0.3885,11.0613,46.7246,0.384,0.2404,-1.1852,204.125
19:56:24:134,0.7627,0.5285,10.7357,45.9916,0.6527,-0.1274,-0.9996,206.1562
19:56:24:155,0.8872,0.2149,10.1803,47.2771,0.8599,-0.4382,-1.0315,207.7812
19:56:24:175,0.5328,-0.2256,9.7278,45.9508,0.8722,-0.5764,-1.0872,208.9844
19:56:24:197,0.3521,-0.4747,9.4584,45.968,0.7332,-0.5282,-1.0592,210.1875
19:56:24:216,0.7866,-0.6219,9.4464,46.606,0.4844,-0.3764,-0.9721,210.8125
19:56:24:239,1.4773,-0.6351,9.3997,45.5464,0.2237,-0.2701,-0.9101,212.7344
19:56:24:255,1.9083,-0.6949,9.6164,45.0278,0.0048,-0.4371,-0.9961,213.8594
19:56:24:278,1.8461,-1.2324,10.8279,45.3706,-0.2173,-0.8462,-1.2153,214.9375
19:56:24:293,0.7435,-2.1051,13.173,44.8794,-0.4495,-1.0739,-1.4597,215.9844
19:56:24:312,-0.2692,-2.8964,14.8693,44.6756,-0.4503,-0.7687,-1.5112,217.1406
19:56:24:334,-0.0071,-2.9395,13.1814,43.6594,-0.0202,-0.1551,-1.2874,218.6094
19:56:24:357,2.0232,-2.0201,10.221,43.8674,0.4455,0.2028,-0.9516,220.2656
19:56:24:373,3.9015,-1.2276,8.6815,43.3588,0.5811,0.0737,-0.9202,221.8594
19:56:24:397,4.0439,-1.1426,8.2386,43.0545,0.4453,-0.1756,-1.3066,223.0781
19:56:24:412,2.9091,-1.5257,8.539,43.6484,0.1633,-0.178,-1.7724,224.1094
19:56:24:433,1.4821,-1.7962,8.49,41.3386,-0.0506,0.0739,-2.0563,226.0938
19:56:24:456,0.6765,-1.6837,7.9094,41.6087,-0.0951,0.3661,-2.0717,228.1094
19:56:24:477,0.4383,-1.1055,7.1301,42.8519,-0.0453,0.5536,-1.9362,230.4688
19:56:24:493,0.4538,-0.5668,6.4645,41.1523,0.0445,0.5978,-1.7903,232.8594
19:56:24:513,0.4766,-0.1024,6.0024,44.1185,0.1587,0.4827,-1.6936,235
19:56:24:533,0.376,0.2879,5.7606,42.6163,0.2328,0.308,-1.6494,237.0938
19:56:24:554,-0.0035,0.6004,5.7534,41.4615,0.2256,0.1719,-1.6494,239.0625
19:56:24:575,-0.2489,0.7608,6.3495,41.5641,0.1348,0.0454,-1.6416,240.875
19:56:24:594,-0.4356,0.9667,7.4772,41.6442,-0.0077,-0.0228,-1.6257,242.7969
19:56:24:613,-0.6415,1.0134,8.7294,40.2698,-0.1361,0.0148,-1.6283,243.7344
19:56:24:633,-0.9935,1.0972,9.7517,40.8648,-0.2221,0.1418,-1.6206,245.6094
19:56:24:656,-1.6495,1.242,10.5562,41.6679,-0.2591,0.2588,-1.5767,247.375
19:56:24:708,-2.2361,1.2707,11.6324,40.9019,-0.2365,0.283,-1.4574,249.25
19:56:24:711,-2.3199,1.4359,12.4739,41.0531,-0.1297,0.2926,-1.198,251.0781
19:56:24:721,-1.9775,1.9387,12.5481,40.3254,0.0783,0.2918,-0.8589,252.7656
19:56:24:739,-1.507,2.2428,12.2584,38.2322,0.2852,0.1959,-0.5929,254.9688
19:56:24:754,-0.9324,2.4128,12.0274,38.9864,0.3971,0.0896,-0.4507,255.9688
19:56:24:773,-0.4057,2.5253,11.7963,39.1151,0.371,0.1277,-0.4246,256.6406
19:56:24:793,-0.7373,2.1578,11.5653,39.0472,0.2586,0.2873,-0.5737,257.1875
19:56:24:814,-1.4185,1.2205,11.6455,41.2319,0.0261,0.3253,-0.7905,257.6875
19:56:24:835,-1.7357,0.4675,11.8167,39.252,0.0013,0.079,-0.7279,257.6875
19:56:24:858,-1.8626,-0.0616,12.4978,38.4515,0.024,-0.19,-0.6589,258.375
19:56:24:874,-2.2361,-0.8062,13.5824,35.6036,0.2067,-0.1809,-0.5151,259.2188
19:56:24:911,-2.4348,-1.4934,13.7057,37.5709,0.5574,0.1171,-0.2944,260.9844
19:56:24:914,-2.2804,-1.7615,11.2864,37.9507,0.7918,0.2971,-0.0842,261.6875
19:56:24:935,-1.6279,-1.5353,8.5582,39.0949,0.722,0.1155,-0.0091,262.2656
19:56:24:957,-1.2844,-1.3054,7.488,37.2211,0.4866,-0.2089,-0.0472,262.7812
19:56:24:977,-1.4795,-1.254,7.9273,37.2211,0.2477,-0.418,-0.0549,262.8125
19:56:24:998,-1.343,-1.3461,9.0071,37.6135,0.1206,-0.402,-0.0145,262.8438
19:56:25:013,-1.2509,-1.1331,9.7529,36.575,0.1055,-0.2166,0.0412,262.9531
19:56:25:034,-1.1264,-0.811,9.6655,36.6583,0.1537,0.0034,0.0916,262.9531
19:56:25:056,-1.0294,-0.5716,8.9018,36.5513,0.1952,0.152,0.1438,262.9375
19:56:25:074,-1.045,-0.337,8.0566,36.009,0.2338,0.177,0.2489,262.9062
19:56:25:099,-0.8846,0.1095,7.3276,35.0817,0.2674,0.091,0.3475,262.8125
19:56:25:112,-0.7086,0.5393,6.8511,35.5169,0.2474,0.035,0.4178,262.6562
19:56:25:134,-0.6894,0.7943,6.6991,34.8698,0.2229,0.0297,0.5131,262.3906
19:56:25:159,-0.6104,1.1821,6.6644,35.4901,0.2059,0.0337,0.605,262
19:56:25:177,-0.3399,1.6502,6.6512,34.5065,0.164,0.0081,0.6711,261.5625
19:56:25:194,0.0767,2.0896,6.8607,34.2655,0.1017,-0.0968,0.6724,260.9844
19:56:25:214,0.4849,2.4427,7.4844,34.2371,0.0602,-0.2619,0.5997,260.2969
19:56:25:234,0.5448,2.6366,8.4289,33.6825,0.0903,-0.3969,0.4854,259.5312
19:56:25:259,0.3963,2.6689,9.1532,34.1987,0.1702,-0.4694,0.3869,258.7969
19:56:25:280,0.5939,2.5732,9.2717,33.7358,0.1931,-0.4707,0.2623,257.8281
19:56:25:298,0.643,2.5325,9.0562,33.4965,0.0828,-0.4651,0.1155,257.3281
19:56:25:314,0.7806,2.3457,9.2082,34.7399,-0.1055,-0.524,-0.0547,256.9844
19:56:25:333,0.9518,1.9232,9.8918,36.2218,-0.3015,-0.6286,-0.2294,256.7656
19:56:25:359,0.7902,1.3653,11.2169,34.066,-0.4373,-0.6318,-0.342,256.7344
19:56:25:376,0.4466,0.6255,12.8115,33.5644,-0.4128,-0.4358,-0.3085,256.8906
19:56:25:394,0.9386,-0.2065,13.3885,35.6055,-0.2346,-0.1682,-0.1897,257.2344
19:56:25:413,1.8724,-0.2747,11.9017,34.2061,-0.1489,-0.1,-0.1966,257.6406
19:56:25:435,2.6301,0.064,10.2976,32.2844,-0.2892,-0.3077,-0.4062,257.9062
19:56:25:460,2.8935,-0.1059,10.0941,34.2516,-0.5529,-0.5221,-0.7125,258.0938
19:56:25:476,2.3249,-0.683,11.5569,32.2246,-0.7404,-0.4387,-0.9279,258.4062
19:56:25:494,1.3492,-1.2408,13.1287,32.0891,-0.6693,0.0076,-0.9545,259.0625
19:56:25:515,0.6442,-1.3677,10.9249,33.6934,-0.4184,0.4529,-0.8038,259.9844
19:56:25:534,1.5599,-0.9391,9.5446,33.4345,-0.2061,0.4311,-0.6283,260.5312
19:56:25:559,2.1357,-0.5441,9.5422,33.1358,-0.0778,-0.0451,-0.6006,262.1562
19:56:25:577,1.9263,-0.5824,9.7589,34.4655,0.0408,-0.5098,-0.741,262.9531
19:56:25:593,1.0164,-0.6207,8.9676,34.0031,0.1121,-0.4627,-0.8917,263.6406
19:56:25:614,0.3497,-0.4304,7.5598,34.8913,0.1052,-0.1053,-0.9175,264.375
19:56:25:641,0.1282,0.1024,6.4333,33.0936,0.0069,0.2343,-0.864,265.2969
19:56:25:658,0.0372,0.5405,6.0826,35.6296,-0.1265,0.3946,-0.8166,266.2812
19:56:25:678,0.066,0.7931,6.1053,35.5394,-0.1822,0.3355,-0.7798,267.3125
19:56:25:692,0.2683,1.1199,6.3675,34.3668,-0.1342,0.1285,-0.7362,268.2969
19:56:25:716,0.2826,1.4192,6.3567,34.8309,-0.0501,-0.0728,-0.7439,269.1719
19:56:25:741,0.0672,1.7125,6.4262,36.1523,-0.0471,-0.186,-0.7995,270.0625
19:56:25:758,-0.0526,1.8154,7.1887,35.3978,-0.1947,-0.1913,-0.8637,270.8906
19:56:25:777,-0.0885,1.8741,8.211,35.329,-0.3878,-0.0923,-0.9287,271.7344
19:56:25:793,-0.456,1.8298,9.1747,35.8235,-0.538,0.046,-1.015,272.6719
19:56:25:813,-1.3957,1.6682,10.3515,37.5697,-0.64,0.1618,-1.096,273.7031
19:56:25:836,-2.4432,1.2623,12.1196,37.6185,-0.6794,0.2255,-1.0832,275.375
19:56:25:858,-3.1734,0.7608,13.4029,37.0803,-0.5425,0.3118,-0.9066,276.6719
19:56:25:874,-3.4667,0.8015,13.2807,38.2865,-0.2333,0.4028,-0.5652,277.9375
19:56:25:893,-2.8825,1.1534,12.6164,37.88,0.0727,0.3341,-0.17,278.9688
19:56:25:913,-1.6974,1.1833,12.4392,36.8924,0.1963,0.19,0.1198,279.6562
19:56:25:934,-0.881,0.9918,12.7887,38.7714,0.1374,0.1451,0.2284,279.875
19:56:25:957,-0.7481,0.4519,13.3011,38.4179,0.0394,0.1482,0.2074,279.75
19:56:25:976,-0.8965,-0.2795,13.6028,39.8834,0.0157,0.1147,0.1749,279.5
19:56:25:993,-0.9336,-1.0672,13.0557,40.1831,0.1204,0.1235,0.2154,279.2812
19:56:26:014,-0.96,-1.5844,11.9424,40.9232,0.3228,0.0622,0.2982,279.1719
19:56:26:034,-0.2848,-1.8585,11.3869,41.4394,0.4874,-0.1796,0.4234,278.9688
19:56:26:059,0.8213,-2.0464,10.9081,42.1304,0.5622,-0.2872,0.4796,278.7031
19:56:26:077,0.7734,-2.1063,9.8965,41.9872,0.542,-0.218,0.3504,278.2812
19:56:26:094,-0.0346,-2.1494,9.4823,42.6287,0.3364,-0.1034,0.1664,277.7188
19:56:26:117,-0.6679,-2.5396,10.0007,41.9403,0.0421,-0.0393,0.0806,276.8281
19:56:26:141,-1.1599,-2.4475,10.3802,43.1009,-0.0895,0.0047,0.3118,276.7344
19:56:26:155,-1.2245,-1.9387,10.1862,42.3858,0.0421,-0.1207,0.466,276.5938
19:56:26:184,-1.1264,-1.4419,9.7433,44.4152,0.18,-0.2241,0.5896,276.2344
19:56:26:194,-0.9444,-1.218,9.2573,42.6924,0.2932,-0.153,0.7081,275.7031
19:56:26:223,-0.8474,-1.1307,8.2338,44.6027,0.3526,0.0465,0.85,275.7031
19:56:26:244,-0.7996,-0.8649,6.9936,44.0737,0.3707,0.1964,1.0114,275.0469
19:56:26:263,-0.4464,-0.6171,5.9306,45.35,0.3659,0.2159,1.1467,274.2188
19:56:26:278,-0.031,-0.2053,5.2267,44.1125,0.3414,0.1533,1.2314,273.2344
19:56:26:294,0.4706,0.2879,4.8388,45.4944,0.2953,0.017,1.2109,272.0781
19:56:26:313,0.9315,0.8434,4.6413,45.5905,0.1819,-0.1668,1.0727,270.8281
19:56:26:332,0.9662,1.248,5.0531,45.8311,-0.0112,-0.2883,0.8732,269.4062
19:56:26:358,0.5352,1.509,6.1724,45.3218,-0.2107,-0.3104,0.7126,266.8438
19:56:26:377,0.3293,1.5508,7.6089,47.6346,-0.3294,-0.3168,0.5893,265.8438
19:56:26:394,0.3736,1.479,9.0789,44.8947,-0.3337,-0.3413,0.4777,265.4219
19:56:26:413,0.4778,1.4647,10.1719,46.6294,-0.2613,-0.403,0.3296,264.3906
19:56:26:433,0.7052,1.4252,10.6423,47.5355,-0.2565,-0.4648,0.1368,264.0938
19:56:26:459,0.9315,1.0912,10.8459,47.5582,-0.4093,-0.5357,-0.0861,263.625
19:56:26:481,0.874,0.4986,11.9783,48.9356,-0.6139,-0.4691,-0.2467,263.4688
19:56:26:498,0.2826,-0.1466,13.6147,47.8879,-0.673,-0.1865,-0.248,263.2969
19:56:26:513,-0.1112,-0.8062,14.4,48.8735,-0.5353,0.1022,-0.0528,263.3906
19:56:26:533,0.5041,-1.0193,13.6914,49.59,-0.376,0.1847,0.168,263.6875
19:56:26:556,1.5731,-0.568,12.5098,48.6677,-0.3087,0.042,0.1917,264
19:56:26:575,2.1717,-0.4148,12.0142,49.237,-0.3028,-0.1247,0.062,264.0781
19:56:26:592,1.8592,-0.6985,12.256,50.0298,-0.2847,-0.1607,-0.0123,263.9219
19:56:26:618,1.39,-1.0361,12.8426,50.7533,-0.1465,-0.0446,0.0505,263.7188
19:56:26:632,1.4929,-1.1582,12.6978,49.4708,0.0796,0.0404,0.1658,263.6562
19:56:26:653,2.5392,-1.2731,11.7569,50.6922,0.2573,-0.0451,0.1888,263.6719
19:56:26:675,3.5555,-1.2168,10.7369,50.5927,0.3124,-0.2009,0.0436,263.5469
19:56:26:694,3.9086,-1.3354,10.2485,49.9333,0.3103,-0.1479,-0.1886,263.3281
19:56:26:776,3.2634,-1.236,9.6727,50.2552,0.338,0.1165,-0.3766,263.1406
19:56:26:777,2.1501,-1.0062,8.2948,51.9492,0.3689,0.3637,-0.4541,263.1875
19:56:26:777,1.2822,-0.726,6.5255,49.682,0.3278,0.4702,-0.4392,263.5156
19:56:26:778,0.8632,-0.2448,5.1524,49.9557,0.1963,0.4023,-0.4046,263.9688
19:56:26:799,0.8237,0.337,4.8113,49.7204,0.0607,0.2486,-0.4046,264.5
19:56:26:812,0.9135,0.6291,5.1046,51.3138,-0.0032,0.1,-0.4648,264.9844
19:56:26:834,0.8046,0.8733,5.3631,50.8111,-0.0575,0.0263,-0.5295,265.4375
19:56:26:858,0.5759,1.1235,5.812,53.4035,-0.1587,0.0367,-0.5833,265.9375
19:56:26:872,0.3832,1.339,6.3831,51.4732,-0.2823,0.0537,-0.6432,266.5156
19:56:26:898,0.1078,1.3964,7.5347,51.6773,-0.3372,0.0652,-0.6872,267.1094
19:56:26:913,-0.7122,1.4144,9.6607,51.6864,-0.253,0.1163,-0.6941,267.8281
19:56:26:935,-0.8307,1.4407,9.8642,50.8733,-0.1127,0.1719,-0.6698,268.6094
19:56:26:966,-0.9492,1.3761,10.2138,53.0442,-0.0477,0.205,-0.6581,269.4219
19:56:26:974,-1.3311,1.1606,10.8746,51.4863,-0.081,0.2803,-0.6552,270.1875
19:56:26:992,-1.8913,0.908,11.2852,52.6232,-0.1188,0.4231,-0.5972,270.9531
19:56:27:017,-1.9859,0.671,11.77,52.4122,-0.1196,0.4476,-0.4445,271.7188
19:56:27:031,-1.379,0.428,12.7576,52.3733,-0.1065,0.291,-0.227,272.4531
19:56:27:053,-0.7193,0.2233,13.7213,52.3733,-0.0783,0.1624,-0.0397,273.0938
19:56:27:075,-0.523,0.3322,14.1942,52.5649,-0.0197,0.1701,0.0854,273.5
19:56:27:094,-0.6044,0.6937,14.2241,53.2651,0.0466,0.2641,0.2042,273.6562
19:56:27:113,-0.4021,0.9487,13.7285,53.0713,0.1308,0.3363,0.3248,273.6406
19:56:27:132,-0.1388,0.7452,13.3083,53.8428,0.1933,0.311,0.3797,273.4844
19:56:27:159,-0.4177,0.0976,13.4388,53.868,0.2754,0.1552,0.3493,273.1875
19:56:27:176,-0.869,-0.7751,12.2058,53.0548,0.5143,0.0726,0.339,272.8125
19:56:27:194,-0.8989,-1.2396,9.6416,53.4948,0.8291,0.0545,0.4031,272.4062
19:56:27:212,-0.4931,-1.4587,7.4772,52.9631,0.9172,-0.0707,0.4631,272.0312
19:56:27:236,-0.3746,-1.6263,6.9828,51.8641,0.6847,-0.3879,0.397,271.6406
19:56:27:259,-1.0378,-1.8214,8.1883,50.2964,0.2698,-0.6813,0.2508,270.8438
19:56:27:277,-1.7357,-1.9638,10.1527,52.3132,-0.1087,-0.7149,0.2007,270.375
19:56:27:294,-1.5513,-2.1314,11.4121,51.4122,-0.2471,-0.394,0.3379,270.0938
19:56:27:320,-1.9536,-1.7579,10.3083,52.0203,-0.0155,0.0574,0.5003,269.8594
19:56:27:341,-1.7548,-1.3785,8.1811,51.7564,0.5979,0.2835,1.0247,268.9219
19:56:27:356,-1.0545,-0.92,6.3819,51.723,0.7108,0.1216,1.1997,268.0625
19:56:27:375,-0.3459,-0.3669,5.2973,51.915,0.6778,-0.0108,1.2649,266.875
19:56:27:395,0.3102,0.2352,4.7646,52.1421,0.5225,-0.0249,1.2191,265.4844
19:56:27:415,0.7291,0.823,4.6784,50.7018,0.3132,0.0268,1.0892,264.1094
19:56:27:435,0.8812,1.224,4.737,50.6425,0.0562,0.0609,0.9105,262.6875
19:56:27:459,0.6142,1.5951,5.2123,51.8834,-0.2168,-0.0001,0.7454,262.0312
19:56:27:479,0.2635,1.728,6.4262,51.43,-0.3995,-0.1306,0.6234,260.8906
19:56:27:497,0.0336,1.6071,8.0243,51.8886,-0.4882,-0.2419,0.5608,260
19:56:27:516,-0.1172,1.5054,9.9001,51.9212,-0.4312,-0.2624,0.5422,259.2344
19:56:27:540,-0.0502,1.4419,11.1379,50.9921,-0.2661,-0.2648,0.5126,258.2812
19:56:27:554,0.3844,1.3521,11.2481,50.9721,-0.1822,-0.3737,0.4247,257.6719
19:56:27:575,1.0895,1.1319,11.4755,52.5173,-0.3015,-0.5229,0.2551,257.0938
19:56:27:594,1.2547,0.7009,13.1108,52.2601,-0.4187,-0.4118,0.091,256.6094
19:56:27:613,0.8932,-0.1024,14.746,51.9618,-0.3649,0.0223,0.0969,256.6094
19:56:27:635,1.1912,-0.8457,14.4874,52.2411,-0.2021,0.4585,0.2316,256.2344
19:56:27:659,1.9454,-0.6267,12.535,52.4877,-0.1286,0.4867,0.2559,256.2344
19:56:27:677,2.757,-0.3681,11.0278,52.0293,-0.1723,0.2335,0.103,256.1406
19:56:27:692,3.0156,-0.3621,10.4556,51.2009,-0.3294,0.0148,-0.1109,255.9219
19:56:27:713,2.6792,-0.4746,11.0613,50.9921,-0.4642,-0.0536,-0.2896,255.6406
19:56:27:736,2.0256,-0.92,12.4775,52.2138,-0.3928,0.1336,-0.322,255.5312
19:56:27:758,1.5528,-1.1917,12.681,51.4283,-0.1294,0.3972,-0.1985,255.6719
19:56:27:777,1.9047,-0.9296,11.0146,52.7432,0.1063,0.3424,-0.1066,256
19:56:27:792,2.8576,-0.6422,9.3794,50.4303,0.1827,0.0454,-0.1862,256.3906
19:56:27:811,3.3712,-0.4232,8.4744,49.5881,0.1161,-0.1695,-0.3993,256.7031
19:56:27:833,3.024,-0.2891,8.077,51.0509,-0.0112,-0.1402,-0.6198,256.8594
19:56:27:858,2.1058,-0.2448,7.707,51.0906,-0.0943,0.0316,-0.741,257.1719
19:56:27:876,1.3121,-0.2005,6.9888,48.8237,-0.1467,0.1743,-0.7655,257.75
19:56:27:893,0.7603,-0.015,6.2406,50.8414,-0.2128,0.2082,-0.745,258.5
19:56:27:913,0.4299,0.2508,6.0563,49.9695,-0.2333,0.1315,-0.7074,259.3906
19:56:27:935,0.358,0.428,6.0132,50.5975,-0.2053,-0.0155,-0.6749,260.7031
19:56:27:958,0.2898,0.7715,6.1233,49.4456,-0.1989,-0.1301,-0.6494,260.7031
19:56:27:978,0.145,1.1797,6.4908,48.9366,-0.229,-0.1791,-0.6302,261.4844
19:56:27:994,-0.2668,1.5999,7.3288,50.3572,-0.2541,-0.1911,-0.5303,262.2656
19:56:28:012,0.0181,2.0608,8.5821,49.1357,-0.1904,-0.1692,-0.4752,263
19:56:28:037,0.7375,2.4966,9.4321,48.8136,-0.0772,-0.1455,-0.5929,263.6719
19:56:28:059,1.0488,2.7108,9.5709,49.3322,-0.0863,-0.133,-0.8528,264.2812
19:56:28:075,0.5807,2.5444,10.3,47.2191,-0.176,-0.0182,-1.0877,264.8281
19:56:28:094,-0.4117,1.916,11.6335,48.3171,-0.1758,0.283,-1.1593,265.4531
19:56:28:112,-1.2952,1.3378,12.3997,50.43,-0.028,0.5762,-1.0725,267.0312
19:56:28:133,-1.695,1.0792,11.9029,48.7151,0.1159,0.6188,-0.9322,268.3594
19:56:28:158,-1.786,0.9308,11.1786,47.5555,0.1209,0.409,-0.8217,269.625
19:56:28:175,-1.7405,0.513,11.4779,45.9753,0.0397,0.2396,-0.7271,270.8125
19:56:28:193,-1.2832,-0.2065,11.8143,46.7516,-0.1364,0.152,-0.6645,271.8438
19:56:28:217,-1.2221,-0.6806,12.3841,48.8834,-0.3926,0.0063,-0.6374,272.75
19:56:28:231,-1.7022,-1.3414,14.1307,48.2584,-0.5369,0.002,-0.5141,273.5
19:56:28:253,-2.0194,-2.4451,16.0185,48.8676,-0.3507,0.3088,-0.2445,274.2656
19:56:28:275,-2.0374,-2.973,15.6678,47.3121,0.0812,0.4753,0.1318,274.9531
19:56:28:294,-1.4795,-2.7803,13.331,48.4934,0.4581,0.3863,0.4482,275.3906
19:56:28:313,-0.5111,-1.9375,8.1847,46.8146,0.6176,0.1376,0.6223,275.5
19:56:28:333,-0.4632,-1.6909,7.0355,46.5891,0.5366,-0.169,0.6543,275.1875
19:56:28:359,-0.7373,-1.485,7.1181,48.519,0.2836,-0.4134,0.625,274.5938
19:56:28:374,-0.7301,-1.3581,7.4652,47.275,0.0538,-0.586,0.6495,273.8438
19:56:28:392,-0.3794,-0.9499,7.5969,46.916,-0.0802,-0.7357,0.7118,273.0938
19:56:28:412,-0.0143,-0.7165,7.9237,47.4151,-0.2051,-0.8459,0.7347,272.3438
19:56:28:432,-0.1854,-0.6159,8.6145,45.1378,-0.318,-0.8459,0.6905,271.5781
19:56:28:452,-0.3734,-0.6985,8.7749,47.3454,-0.2999,-0.7138,0.6972,270.6875
19:56:28:475,-0.6535,-0.9248,7.9465,46.3208,-0.1345,-0.4475,0.7861,269.8281
19:56:28:493,-0.5757,-1.0433,6.4166,46.8939,0.0879,-0.2243,0.9845,269.0469
19:56:28:512,0.115,-0.7284,5.4433,45.8831,0.2221,-0.2467,1.2277,268.1875
19:56:28:534,1.038,-0.094,5.8695,47.3939,0.1904,-0.4206,1.3829,267.1719
19:56:28:559,1.4689,0.3262,6.3902,45.8045,0.1553,-0.5144,1.3664,265.9375
19:56:28:577,1.6653,0.4483,6.4046,43.5302,0.1606,-0.4654,1.241,264.4062
19:56:28:595,1.6964,0.5489,6.8356,43.3818,0.0804,-0.3831,1.0929,262.75
19:56:28:612,1.7263,0.6075,7.889,44.0936,-0.0993,-0.354,0.9339,261.2031
19:56:28:635,1.8293,0.5369,9.0909,44.557,-0.2754,-0.3303,0.76,259.9062
19:56:28:659,2.1166,0.3526,9.8307,45.3933,-0.3952,-0.2816,0.5754,258.7188
19:56:28:677,2.3416,-0.0736,10.2617,44.7905,-0.5017,-0.2491,0.3371,257.7344
19:56:28:693,2.3572,-0.7344,11.4839,43.6931,-0.6876,-0.2728,0.0737,256.7188
19:56:28:717,1.706,-1.473,13.2903,45.3377,-0.8924,-0.239,-0.1726,256.3438
19:56:28:731,0.8082,-2.3445,14.1774,44.9162,-0.927,0.0026,-0.2741,256.2969
19:56:28:752,0.607,-2.9215,13.4795,43.045,-0.7976,0.3155,-0.134,256.5312
19:56:28:775,1.7646,-2.821,12.5206,44.5129,-0.6717,0.4452,0.1717,256.9219
19:56:28:857,3.3807,-2.5456,12.2776,44.8608,-0.632,0.275,0.3677,257.1875
19:56:28:858,3.7937,-2.4894,13.0485,44.2051,-0.6365,-0.0102,0.2841,257.1094
19:56:28:858,2.6517,-2.9275,14.3031,44.0469,-0.6109,-0.1343,0.0492,256.7656
19:56:28:859,1.208,-3.3776,15.147,42.5583,-0.4924,0.1416,-0.0259,256.4844
19:56:28:880,1.5851,-3.3309,13.9715,44.0996,-0.1196,0.6082,0.2223,256.4531
19:56:28:901,3.4693,-2.5791,11.1763,43.1357,0.4458,0.7312,0.5499,256.5469
19:56:28:912,4.9932,-1.4359,9.2848,42.6408,0.8141,0.3128,0.5706,256.5469
19:56:28:932,5.2769,-0.9726,8.7521,42.0161,0.8674,-0.2222,0.2005,255.8438
19:56:28:960,4.2139,-1.0098,8.9975,43.2241,0.7188,-0.4236,-0.3316,255.5156
19:56:28:977,2.8001,-1.1977,8.3248,42.0373,0.6165,-0.2006,-0.7263,255.0156
19:56:28:995,1.7718,-1.0816,6.6524,42.2891,0.5758,0.1996,-0.8999,255
19:56:29:014,1.3469,-0.817,5.2961,41.525,0.2016,0.5389,-0.9806,255.9375
19:56:29:034,1.1242,-0.513,4.992,42.1878,-0.0296,0.5192,-1.0198,258.0625
19:56:29:058,0.8836,-0.3094,5.4792,40.8436,-0.1174,0.4561,-1.0488,258.0625
19:56:29:074,0.4814,-0.2197,6.0539,42.5513,-0.0695,0.3943,-1.0246,259.2344
19:56:29:092,0.1354,-0.0461,6.2753,41.2694,-0.0075,0.3291,-0.9351,260.3906
19:56:29:111,-0.1591,0.2783,6.7877,41.1377,0.0668,0.2156,-0.815,261.6562
19:56:29:131,-0.0897,0.6662,7.4174,40.1507,0.1643,0.0481,-0.7386,262.875
19:56:29:151,-0.11,0.9822,8.0734,41.2454,0.2495,-0.1048,-0.7239,263.9219
19:56:29:174,-0.3626,1.1666,8.6863,41.2454,0.2692,-0.1538,-0.7316,264.875
19:56:29:194,-0.7672,1.1654,9.2669,40.5829,0.2141,-0.0704,-0.7029,265.7188
19:56:29:211,-1.0797,1.066,9.8941,40.6749,0.1257,0.0825,-0.643,266.4844
19:56:29:231,-1.4687,0.9224,10.464,39.7724,0.0487,0.222,-0.5378,267.2969
19:56:29:254,-1.4185,0.7308,10.962,39.5263,-0.0027,0.2582,-0.4371,268.0781
19:56:29:277,-1.282,0.4507,11.4181,39.3267,-0.0642,0.1759,-0.35,269.1094
19:56:29:298,-1.1563,0.1323,12.4093,39.6761,-0.078,0.1219,-0.2603,269.6875
19:56:29:311,-0.8295,-0.4938,12.833,40.1114,-0.1079,0.0862,-0.1641,270.1719
19:56:29:331,-0.541,-0.9583,12.9839,40.226,-0.2514,0.0524,-0.0504,270.5312
19:56:29:352,-0.3997,-1.0313,13.7392,38.4599,-0.3968,0.0846,0.0745,270.7656
19:56:29:375,-0.3183,-1.1426,14.5365,39.6566,-0.4075,0.1988,0.1893,270.9062
19:56:29:394,-0.5805,-1.5508,14.843,39.677,-0.188,0.3368,0.3738,270.9375
19:56:29:413,-0.7361,-1.8274,13.9787,40.0524,0.232,0.4231,0.6394,270.8594
19:56:29:432,-0.4033,-1.6646,11.6838,39.485,0.6605,0.3301,0.8418,270.6875
19:56:29:451,0.2587,-1.2695,8.8503,40.1355,0.8631,0.0513,0.8311,270.3125
19:56:29:476,0.6717,-1.0373,6.5387,39.61,0.7121,-0.2289,0.6167,269.6094
19:56:29:493,0.1809,-1.0445,5.3607,40.2726,0.2964,-0.4776,0.3957,268.7031
19:56:29:511,-0.45,-1.5688,5.8683,40.4097,-0.1172,-0.7493,0.3232,267.7344
19:56:29:532,-0.8235,-2.0967,7.2474,40.624,-0.4301,-0.9418,0.3536,266.5312
19:56:29:551,-1.0976,-2.0261,9.3758,41.2298,-0.5614,-0.8116,0.4788,266.3125
19:56:29:577,-0.7924,-1.8693,11.2206,39.6693,-0.453,-0.3652,0.5579,265.8906
19:56:29:595,-0.517,-1.8884,11.1439,39.5368,-0.3382,0.0809,0.5912,265.375
19:56:29:611,-0.6858,-1.9004,10.6136,38.8018,-0.3577,0.5653,0.6758,264.7812
19:56:29:632,-0.802,-1.7017,10.361,41.4009,-0.3036,0.9962,0.8018,264.1406
19:56:29:652,-1.0031,-1.3246,9.6308,42.9652,-0.078,1.1895,0.9613,263.4688
19:56:29:677,-0.8367,-1.0134,8.1679,41.3695,0.1958,1.0479,1.1563,262.7188
19:56:29:693,-0.0119,-0.5177,6.7578,41.3473,0.3638,0.6622,1.2346,261.8906
19:56:29:712,1.1003,0.9834,6.2957,40.8319,0.3443,0.2902,1.1094,260.7969
19:56:29:732,0.9458,1.1845,6.6847,41.3083,0.2485,0.1067,0.8721,259.4688
19:56:29:753,0.5161,0.9858,7.0894,41.8311,0.1286,0.0276,0.6154,258.2188
19:56:29:777,0.2012,0.9308,7.7681,41.0507,-0.0599,0.042,0.4463,257.0938
19:56:29:795,0.1857,0.8625,8.5737,40.6454,-0.2455,0.096,0.36,256.2656
19:56:29:811,0.6597,0.5656,9.0155,40.7823,-0.3412,0.0303,0.278,255.7031
19:56:29:831,1.6042,-0.161,9.6787,41.4503,-0.3931,-0.2997,0.1565,255.25
19:56:29:853,2.3464,-0.9858,11.5031,41.3252,-0.5047,-0.7887,-0.0254,254.7344
19:56:29:878,2.0615,-1.7687,14.2157,42.8199,-0.6551,-1.0281,-0.2355,254.5312
19:56:29:894,1.1721,-2.5588,14.9866,42.6263,-0.6171,-0.6542,-0.3575,254.4688
19:56:29:911,0.8165,-2.5564,13.1515,40.5868,-0.3973,-0.0302,-0.2704,254.5156
19:56:29:931,1.2164,-2.1566,11.4803,41.9308,-0.2,0.1578,-0.109,254.7812
19:56:29:951,1.7347,-2.0476,11.6994,41.9342,-0.1236,-0.1476,-0.0714,255.125
19:56:29:976,1.7874,-2.4247,13.2161,43.1471,-0.0599,-0.4632,-0.1479,255.3594
19:56:29:994,1.7287,-2.7001,12.7157,42.5758,0.176,-0.3269,-0.1889,255.4375
19:56:30:010,2.2662,-2.4894,10.6842,42.4829,0.4362,0.0249,-0.1537,255.5156
19:56:30:032,3.3867,-2.3936,8.8551,43.8797,0.5036,0.1722,-0.1766,255.6562
19:56:30:052,3.6716,-2.1865,7.9453,42.1828,0.3774,0.0731,-0.3846,255.8438
19:56:30:078,2.9282,-2.0955,7.7908,43.0348,0.1217,0.0114,-0.7063,256.0156
19:56:30:093,1.6449,-2.1003,7.5718,42.9924,-0.0938,0.1024,-0.9737,256.2969
19:56:30:111,0.6777,-2.0117,6.9529,44.0458,-0.1784,0.2329,-1.0896,256.9062
19:56:30:131,0.0899,-1.7879,6.2765,45.0293,-0.2197,0.2865,-1.0709,258.4844
19:56:30:151,-0.4249,-1.3916,6.577,43.7397,-0.3041,0.1972,-0.9921,259.7031
19:56:30:175,-1.0114,-1.1067,7.5167,44.3324,-0.3366,0.0526,-0.8845,260.9688
19:56:30:195,-1.1778,-0.7284,7.7825,44.2704,-0.2178,0.0558,-0.7103,262.1406
19:56:30:212,-0.7337,-0.0102,7.2605,43.9815,-0.0155,0.1813,-0.4786,263.1094
19:56:30:231,-0.0298,0.5465,6.6919,44.4508,0.1433,0.2388,-0.3119,263.9375
19:56:30:252,0.625,1.0541,6.5638,43.7555,0.1915,0.1999,-0.2738,264.5156
19:56:30:275,0.7938,1.4575,6.9289,44.2752,0.1361,0.1195,-0.375,264.875
19:56:30:298,0.3748,1.479,8.0279,45.272,0.0075,0.0603,-0.5822,265.2031
19:56:30:312,-0.1938,1.0852,8.9939,46.4684,-0.0751,0.0505,-0.7764,265.6406
19:56:30:332,-1.0486,0.5992,9.8858,45.2431,-0.1427,0.1144,-0.9077,266.3125
19:56:30:350,-1.7417,-0.0545,10.8435,45.1161,-0.2067,0.2247,-0.9221,267.1719
19:56:30:372,-2.09,-0.8266,11.7904,45.1962,-0.2285,0.2468,-0.8238,268.2344
19:56:30:393,-1.9356,-1.309,12.5074,45.5319,-0.2083,0.2201,-0.6216,268.7812
19:56:30:414,-1.4256,-1.6885,13.519,47.0725,-0.1846,0.124,-0.3884,270.25
19:56:30:431,-0.9576,-1.9543,13.9607,47.3413,-0.0828,0.364,0.0103,270.9844
19:56:30:453,-0.8654,-1.6071,13.4268,46.025,-0.086,0.4494,0.1664,271.6719
19:56:30:476,-0.7301,-1.2085,13.0892,46.3102,-0.1105,0.3472,0.2942,271.6719
19:56:30:495,-0.3363,-1.054,13.2413,46.5984,-0.0767,0.1903,0.3411,271.7031
19:56:30:511,-0.274,-1.1905,13.4088,47.1287,0.0264,0.0231,0.3368,271.5781
19:56:30:531,-0.705,-1.5508,13.9272,47.6999,0.2839,0.0705,0.4135,271.2812
19:56:30:553,-0.772,-1.9052,13.173,47.2954,0.7015,0.2942,0.5352,270.9375
19:56:30:576,-0.535,-1.9172,9.9863,48.6861,0.9361,0.2976,0.5906,270.5625
19:56:30:594,0.0659,-1.7915,6.741,47.4785,0.796,-0.0313,0.502,270.0938
19:56:30:611,0.3928,-1.467,5.1105,49.6526,0.3459,-0.6017,0.2346,269.5469
19:56:30:630,0.1282,-1.655,6.0957,47.8787,-0.1649,-1.0843,-0.0485,268.9062
19:56:30:650,-0.687,-2.4642,8.8311,48.3482,-0.4746,-1.0622,-0.1476,268.3438
19:56:30:676,-1.9081,-2.8018,11.5773,48.751,-0.4157,-0.5181,0.0447,268.0156
19:56:30:693,-2.1918,-2.6869,11.9472,49.7725,-0.0767,0.0516,0.3454,268.0469
19:56:30:713,-2.0206,-2.305,9.6918,48.5228,0.2195,0.189,0.6817,268.0312
19:56:30:730,-0.7038,-1.8358,7.7478,49.2891,0.3393,-0.0459,0.8759,267.8125
19:56:30:752,0.5232,-1.1462,7.336,48.5168,0.396,-0.2795,0.8751,267.2344
19:56:30:777,0.9362,-0.6482,7.6664,49.9406,0.4919,-0.2981,0.7994,266.3125
19:56:30:793,0.8812,-0.3645,7.5155,50.094,0.6024,-0.1538,0.7565,265.2656
19:56:30:820,0.8249,-0.0712,6.5566,49.8062,0.612,-0.0225,0.7406,264.3125
19:56:30:829,0.8644,0.325,5.5774,47.904,0.4474,-0.0108,0.7027,263.3906
19:56:30:852,1.0392,0.7919,5.3512,50.2264,0.1614,-0.1466,0.6023,262.9531
19:56:30:876,0.9722,0.9751,6.4836,48.8513,-0.0754,-0.3239,0.4711,262.0781
19:56:30:948,0.7268,0.7919,8.3774,50.5519,-0.1486,-0.4092,0.4087,261.3125
19:56:30:948,0.558,0.6722,10.1479,50.5278,-0.0692,-0.3892,0.3909,260.6094
19:56:30:949,0.7387,0.5405,11.0087,50.912,0.0759,-0.3018,0.3531,260.0469
19:56:30:963,1.105,0.3777,10.6244,51.3382,0.0956,-0.3461,0.2646,259.5625
19:56:30:981,1.7024,0.0664,10.373,50.4933,-0.0597,-0.5354,0.09,258.875
19:56:30:997,2.1429,-0.6051,11.3008,49.0352,-0.2791,-0.6108,-0.0935,258.4844
19:56:31:013,2.2028,-1.4204,13.0054,51.4568,-0.3558,-0.3721,-0.1748,258.25
19:56:31:031,2.362,-2.1877,13.416,49.8089,-0.3167,-0.0092,-0.1729,258.2188
19:56:31:051,2.8313,-2.2236,12.1734,51.4018,-0.3577,0.1701,-0.2446,258.3594
19:56:31:076,3.0204,-2.0381,11.345,51.8628,-0.4658,0.0886,-0.4387,258.5625
19:56:31:093,2.4338,-2.1518,11.8873,52.5371,-0.4988,0.0268,-0.6094,258.8125
19:56:31:112,0.4526,-2.8413,12.7971,50.2978,-0.3068,0.2268,-0.5593,259.2188
19:56:31:131,1.1278,-2.4618,10.5621,52.1466,0.0559,0.5352,-0.2893,259.8438
19:56:31:151,2.7941,-1.813,8.2278,51.5835,0.3382,0.4737,-0.076,260.5781
19:56:31:177,3.8919,-1.2552,7.2953,51.1004,0.3473,0.0143,-0.1671,261.1406
19:56:31:194,3.7901,-1.2252,7.9704,51.5709,0.0834,-0.4238,-0.5263,261.3594
19:56:31:210,2.3536,-1.6442,9.0394,51.6956,-0.2866,-0.394,-0.946,261.4531
19:56:31:230,0.5101,-1.7316,8.9509,50.2383,-0.5047,0.0857,-1.1756,261.7969
19:56:31:251,-0.4895,-1.3521,7.8663,50.2726,-0.5332,0.5829,-1.1127,262.6094
19:56:31:277,-0.4177,-0.7524,7.0558,50.2726,-0.4623,0.7014,-0.8837,264.5156
19:56:31:295,0.0504,-0.1371,6.9972,51.6387,-0.3345,0.4734,-0.6778,265.8906
19:56:31:311,0.4754,0.3214,6.9074,51.6387,-0.1427,0.1911,-0.5705,267
19:56:31:330,0.7339,0.6614,6.5016,52.3633,0.0352,0.0492,-0.545,267.4062
19:56:31:350,0.8896,0.9727,6.1676,51.7624,0.0818,0.0353,-0.5726,268.1562
19:56:31:375,0.965,1.321,6.4106,51.5103,-0.0173,0.0606,-0.6384,268.7969
19:56:31:395,0.7926,1.4168,7.33,52.4892,-0.179,0.0627,-0.7556,269.4219
19:56:31:411,0.0684,1.2336,8.9197,52.3249,-0.3148,0.0268,-0.9045,270.0781
19:56:31:430,-0.6739,0.7811,10.3945,52.1222,-0.3095,0.0007,-0.9767,270.8906
19:56:31:450,-1.288,0.3645,11.0577,51.9947,-0.1734,0.0215,-0.95,272.4062
19:56:31:476,-1.6806,0.1227,11.3977,53.062,-0.0652,0.1078,-0.843,273.4844
19:56:31:493,-1.7943,-0.1502,11.5605,54.3355,-0.0461,0.255,-0.6994,274.5781
19:56:31:511,-1.8662,-0.5848,12.1711,53.3931,-0.0874,0.3147,-0.5513,275.5625
19:56:31:530,-1.7848,-1.0756,13.4891,52.5958,-0.1377,0.2388,-0.3923,276.3594
19:56:31:553,-1.5202,-1.643,14.0864,53.2494,-0.0668,0.263,-0.2017,277.0312
19:56:31:576,-1.4268,-1.8022,12.8869,54.1489,0.1055,0.4652,-0.0072,277.5156
19:56:31:594,-1.3418,-1.2264,11.6168,53.8793,0.1734,0.6068,0.2002,277.7812
19:56:31:611,-0.7265,-1.066,11.533,53.5102,0.0831,0.5011,0.3438,277.8438
19:56:31:630,-0.4069,-1.157,11.6802,53.6414,-0.024,0.3967,0.3627,277.7812
19:56:31:651,-1.1192,-1.5724,12.6152,53.2078,-0.0804,0.2193,0.2817,277.5156
19:56:31:677,-1.7477,-2.3529,13.7452,51.1894,-0.0037,0.0007,0.2993,277.1562
19:56:31:694,-1.7692,-2.8389,12.4057,52.202,0.3068,0.1125,0.4854,276.8281
19:56:31:712,-1.0785,-2.7994,9.3411,52.2524,0.6732,0.2766,0.7304,276.5312
19:56:31:737,-0.025,-2.6953,7.1923,52.1644,0.7494,0.1048,0.8697,275.0156
19:56:31:759,0.3988,-2.578,6.8822,51.8285,0.1537,-0.5855,0.6729,274.0156
19:56:31:771,-0.1914,-2.3206,7.8363,51.2179,-0.1441,-0.6193,0.6093,273.0938
19:56:31:792,-0.6224,-2.2464,9.0765,51.6509,-0.233,-0.3612,0.6753,272.2656
19:56:31:810,-0.8019,-2.056,9.3962,51.8545,-0.0866,-0.1399,0.8013,272.2656
19:56:31:831,-0.9444,-1.6239,8.3068,52.2257,0.0836,-0.1152,0.9853,271.5156
19:56:31:850,-0.2405,-1.1307,7.3216,50.0192,0.1598,-0.2283,1.1257,270.7188
19:56:31:872,0.8058,-0.7057,6.9996,52.072,0.1702,-0.3684,1.1219,269.8281
19:56:31:895,1.4259,-0.2975,7.2474,51.9316,0.1547,-0.4417,1.0276,268.6875
19:56:31:912,1.4582,-0.0928,8.1979,50.7142,0.2115,-0.3487,0.9478,267.375
19:56:31:930,1.2343,-0.0413,8.6552,49.026,0.3497,-0.1413,0.9374,266.1094
19:56:31:949,1.3768,0.2125,7.8375,51.5872,0.3923,-0.0478,0.9043,264.8906
19:56:31:970,1.5288,0.5441,7.1839,51.6306,0.2727,-0.1322,0.8189,263.7656
19:56:31:995,1.4857,0.8074,7.6448,50.2321,0.1465,-0.255,0.727,261.6719
19:56:32:013,1.524,0.92,8.6815,49.5397,0.1326,-0.3615,0.6172,261.1719
19:56:32:030,1.8377,0.8326,9.1675,50.169,0.142,-0.5045,0.4551,260.2656
19:56:32:049,2.0436,0.7213,9.5075,50.9876,0.0559,-0.6752,0.2447,259.4531
19:56:32:070,2.2531,0.1251,10.519,50.7667,-0.0919,-0.7261,0.0276,258.8281
19:56:32:093,2.0148,-0.6758,11.9843,48.8027,-0.1755,-0.5455,-0.1037,258.375
19:56:32:111,1.4809,-1.3916,13.246,50.8184,-0.0874,-0.2419,-0.077,258.2344
19:56:32:129,1.7263,-1.9938,12.8893,49.6778,0.0645,-0.0238,0.0311,258.1562
19:56:32:150,2.8708,-2.0213,11.0841,49.1033,0.0415,-0.1016,-0.0022,258.2344
19:56:32:170,4.2618,-1.7951,9.7816,49.9952,-0.2322,-0.3498,-0.3351,258.3125
19:56:32:193,4.1325,-2.068,10.1324,48.4776,-0.6208,-0.4398,-0.7758,258.2656
19:56:32:210,2.2626,-2.9419,11.7712,47.7531,-0.8575,-0.2084,-0.9271,258.2656
19:56:32:229,0.0504,-3.4662,13.853,49.2746,-0.6506,0.2598,-0.639,258.6406
19:56:32:251,-0.4225,-3.5261,13.5501,48.614,-0.118,0.5722,-0.171,259.5312
19:56:32:273,0.8213,-2.7922,10.5693,48.002,0.2213,0.3498,0.0953,260.5938
19:56:32:291,2.5188,-1.8489,8.4086,48.1272,0.2149,-0.1612,0.0103,261.6094
19:56:32:309,3.5914,-1.2635,8.205,47.3432,0.0392,-0.4097,-0.3165,261.6406
19:56:32:329,3.3257,-1.0445,8.8742,47.7694,-0.139,-0.1167,-0.6587,261.5469
19:56:32:352,2.1896,-1.0481,8.8204,46.6283,-0.22,0.4244,-0.8621,261.6406
19:56:32:378,0.9422,-1.0421,7.4916,47.0289,-0.2964,0.826,-0.8992,262.1875
19:56:32:398,0.2958,-0.823,6.4286,47.8785,-0.3377,0.9376,-0.8459,263.0625
19:56:32:414,0.0827,-0.5201,5.9198,45.6432,-0.2852,0.7765,-0.7945,264.1875
19:56:32:430,-0.0059,-0.1239,5.7857,47.3254,-0.1752,0.5416,-0.7588,265.2969
19:56:32:450,-0.0645,0.1478,5.678,45.0406,-0.1017,0.4079,-0.7263,266.3594
19:56:32:470,-0.0765,0.4543,5.5247,44.8871,-0.1289,0.3227,-0.7013,267.2656
19:56:32:493,-0.1148,0.7452,5.8168,46.26,-0.2389,0.2044,-0.696,268.1875
19:56:32:514,-0.371,0.9499,8.1009,44.8871,-0.3627,0.0798,-0.6936,269.0469
19:56:32:533,-0.687,0.7177,9.7266,45.995,-0.4416,-0.0291,-0.7039,269.8281
19:56:32:552,-1.0438,0.3765,11.2792,45.13,-0.4597,-0.0512,-0.6818,270.6719
19:56:32:577,-1.367,0.0233,12.1244,44.3699,-0.3816,0.0433,-0.5902,271.4844
19:56:32:594,-1.6998,-0.228,12.4607,44.8297,-0.2828,0.1762,-0.4472,272.2656
19:56:32:610,-1.4867,-0.4471,12.8175,43.2818,-0.2251,0.2681,-0.2118,273.0156
19:56:32:629,-1.2509,-0.6183,13.6578,44.4229,-0.1784,0.1983,0.0164,273.6562
19:56:32:649,-0.7912,-0.7871,14.1786,43.7901,-0.053,0.1,0.2186,274.0781
19:56:32:669,-0.0765,-0.8721,13.7548,42.4595,0.1073,0.1205,0.392,274.2188
19:56:32:694,0.3389,-0.5812,13.0832,43.4741,0.1654,0.2361,0.4889,274.1094
19:56:32:712,0.7339,-0.349,13.0138,42.7795,0.1017,0.2649,0.482,273.7656
19:56:32:729,1.1182,-0.7368,13.3945,41.82,-0.0125,0.259,0.3427,273.2812
19:56:32:749,0.0169,-1.5975,13.7404,42.8246,-0.0402,0.2295,0.0878,272.75
19:56:32:770,-1.5406,-2.6869,13.6746,42.9879,0.127,0.1546,-0.0515,272.2969
19:56:32:793,-1.932,-3.3501,11.545,42.0069,0.526,0.2351,0.1094,272.0625
19:56:32:810,-1.3718,-3.3716,8.0901,42.8977,0.8871,0.3261,0.3941,272.1094
19:56:32:829,-0.5494,-3.0293,5.8085,41.1899,0.882,0.136,0.5667,272.1406
19:56:32:849,-0.5984,-2.5804,5.9545,41.188,0.4852,-0.293,0.5227,271.8594
19:56:32:869,-1.2078,-2.5863,8.0674,43.1088,-0.0061,-0.6856,0.4149,271.3281
19:56:32:893,-1.0569,-2.6893,10.5562,41.4279,-0.277,-0.8129,0.4543,270.6562
19:56:32:911,-0.9588,-2.4319,11.0506,42.0744,-0.1747,-0.5791,0.5845,269.8125
19:56:32:937,-1.0737,-1.995,9.4931,42.2784,0.1366,-0.1876,0.7099,269.2344
19:56:32:948,-0.5565,-1.4838,8.0123,42.696,0.3699,0.0335,0.8921,268.5156
19:56:33:029,-0.031,-1.0756,7.2534,42.4406,0.4863,0.0114,1.0245,267.6719
19:56:33:029,0.4023,-0.6734,6.7913,43.3098,0.576,-0.0704,1.1084,266.7031
19:56:33:029,0.9973,-0.3621,6.2406,43.3459,0.6701,-0.1178,1.1435,265.5156
19:56:33:030,1.451,-0.015,5.4888,43.0541,0.7031,-0.1476,1.1017,264.2188
19:56:33:050,1.5013,0.252,5.0555,43.0807,0.6027,-0.1868,0.9531,262.9375
19:56:33:071,1.3014,0.2963,5.4577,45.5014,0.3558,-0.2558,0.7499,261.6406
19:56:33:096,0.8836,0.2149,6.7218,43.0579,0.0634,-0.3205,0.5616,260.5156
19:56:33:112,0.6178,0.0257,8.4181,42.4003,-0.1486,-0.3855,0.4492,259.6406
19:56:33:129,0.5412,-0.2508,9.8343,44.8354,-0.2091,-0.3972,0.4093,259
19:56:33:152,0.9267,-0.3849,10.0713,43.814,-0.1153,-0.3881,0.4165,258.4688
19:56:33:174,1.5983,-0.4794,9.9708,44.1555,-0.0272,-0.5021,0.388,257.7344
19:56:33:197,2.6074,-0.9152,10.6771,44.2696,-0.289,-0.9279,0.0681,257.25
19:56:33:212,2.6349,-1.5185,12.4248,43.3901,-0.4655,-0.8068,-0.1133,257.25
19:56:33:230,2.277,-2.2368,14.1822,43.8382,-0.4466,-0.3437,-0.0818,256.6406
19:56:33:251,2.8241,-2.5815,13.6459,45.0207,-0.3601,0.0417,-0.0195,256.6094
19:56:33:269,3.4909,-1.9028,11.7245,45.6348,-0.4733,-0.0116,-0.1548,256.6094
19:56:33:294,3.425,-1.6287,11.1164,45.5386,-0.7121,-0.1727,-0.4105,256.7188
19:56:33:313,2.1429,-1.8358,12.2369,43.6772,-0.8429,-0.1069,-0.5101,256.7656
19:56:33:329,0.7196,-2.0656,13.6997,44.5779,-0.6421,0.226,-0.3474,256.9688
19:56:33:348,-0.0202,-1.9052,13.3681,46.5614,-0.1816,0.4444,-0.0211,257.4844
19:56:33:368,0.8848,-1.4048,11.0841,44.2545,0.1949,0.2604,0.1896,258.1406
19:56:33:394,2.8229,-0.8122,8.9449,44.2544,0.2589,-0.2512,0.0396,258.5938
19:56:33:412,4.1217,-0.3166,8.6588,44.8399,0.074,-0.6265,-0.4182,258.6875
19:56:33:429,4.0607,-0.5369,9.9277,45.0187,-0.1281,-0.4742,-0.9412,258.5
19:56:33:448,2.684,-1.3581,10.6579,45.6471,-0.2386,0.1125,-1.2368,258.3906
19:56:33:470,0.7591,-1.9291,10.2246,45.7694,-0.2192,0.6633,-1.2155,258.7812
19:56:33:494,-0.5123,-2.0237,8.9544,45.155,-0.1055,0.895,-0.966,260.5156
19:56:33:512,-0.9695,-1.5532,7.6711,47.1618,0.0732,0.7501,-0.6485,261.9531
19:56:33:528,-0.5805,-0.9918,6.9409,46.4248,0.2991,0.4156,-0.4166,263.3438
19:56:33:549,0.1067,-0.6638,6.6285,46.2977,0.5161,0.2271,-0.3037,264.375
19:56:33:571,0.5089,-0.3346,5.9341,43.7799,0.6277,0.1877,-0.2885,265.0156
19:56:33:594,0.6214,0.0257,5.1524,45.2829,0.6045,0.2028,-0.3346,265.3906
19:56:33:612,0.7064,0.3526,4.7346,44.7076,0.4684,0.2207,-0.4179,265.6875
19:56:33:630,0.7722,0.7835,4.7383,44.7778,0.2399,0.2026,-0.5298,266.0156
19:56:33:653,0.6897,1.169,5.2458,45.3069,-0.0759,0.124,-0.6408,266.2031
19:56:33:679,0.1306,1.4072,6.6823,45.1715,-0.4482,0.0654,-0.6507,266.6406
19:56:33:696,-0.3375,1.4312,9.3004,45.9022,-0.7132,0.124,-0.5042,267.25
19:56:33:714,-0.5099,1.1678,12.1447,45.1473,-0.734,0.2292,-0.2027,268
19:56:33:729,-0.0418,1.4778,14.5317,44.711,-0.465,0.2433,0.1246,268.75
19:56:33:752,1.6354,2.2045,15.7348,45.8607,0.0197,0.1442,0.0673,269.3906
19:56:33:768,2.3189,2.2835,15.0872,45.828,0.4322,0.01,-0.2722,269.6875
19:56:33:789,1.2511,1.4611,13.2221,45.3185,0.5513,-0.0893,-0.5247,269.5312
19:56:33:810,0.3389,0.5321,11.9484,45.7744,0.3941,-0.0105,-0.6363,269.6406
19:56:33:829,-0.1495,-0.3454,11.3846,45.5529,0.1164,0.1682,-0.7223,270.0781
19:56:33:848,-0.6703,-1.0098,11.3726,47.8942,-0.1784,0.3139,-0.7971,270.6875
19:56:33:869,-1.1958,-1.8609,11.9604,45.128,-0.3638,0.3826,-0.8587,271.4531
19:56:33:898,-2.5713,-3.1143,12.9156,45.6922,-0.2828,0.3546,-0.73,272.3438
19:56:33:914,-5.2049,-4.4706,12.0645,45.8205,0.1207,0.4271,-0.1604,273.3594
19:56:33:934,-3.9168,-3.8373,8.7916,46.103,0.6024,0.5035,0.613,274.3125
19:56:33:948,-2.0457,-3.3501,6.2789,48.7708,0.7742,0.2678,1.1424,274.9219
19:56:33:969,-1.0928,-3.3585,5.7139,47.3595,0.5566,-0.2534,1.2966,274.6875
19:56:33:994,-0.8989,-3.3932,7.3779,47.8036,0.1385,-0.8134,1.3027,273.6719
19:56:34:011,-0.8151,-3.1921,10.197,48.3284,-0.2285,-1.0955,1.3619,272.2031
19:56:34:031,-0.9109,-2.7599,11.7114,48.0938,-0.3012,-0.8278,1.4804,270.6719
19:56:34:048,-1.0749,-2.3158,10.2162,49.4877,-0.0437,-0.2281,1.6378,269.1562
19:56:34:069,-0.79,-1.7137,7.9596,47.6141,0.2607,0.1605,1.8551,267.4688
19:56:34:094,-0.0023,-0.981,6.4932,48.8916,0.4301,0.1805,2.0679,264.7031
19:56:34:112,0.941,-0.3214,5.7713,49.3499,0.5145,0.0012,2.1662,262.6875
19:56:34:128,1.6246,0.2005,5.4433,48.7646,0.5393,-0.2542,2.0982,260.3125
19:56:34:148,1.7311,0.5034,5.6002,48.2064,0.4623,-0.4251,1.8793,259.0469
19:56:34:169,1.682,0.5944,5.9222,49.3824,0.3081,-0.4534,1.6279,256.5469
19:56:34:195,1.3492,0.5884,6.9122,50.7924,0.0679,-0.3836,1.3826,254.3125
19:56:34:213,0.9901,0.4818,8.4026,49.9695,-0.1947,-0.2606,1.1829,252.25
19:56:34:229,0.692,0.3741,9.8822,51.884,-0.3305,-0.1511,1.0588,250.4844
19:56:34:249,0.5867,0.2843,10.8818,50.9245,-0.282,-0.0901,0.9991,249.0781
19:56:34:270,0.8189,0.3094,10.6699,49.9994,-0.073,-0.0595,0.9749,247.8125
19:56:34:294,1.2942,0.0844,9.8367,51.814,0.1228,-0.162,0.9097,246.6562
19:56:34:311,1.9682,-0.2867,10.2509,52.579,0.0967,-0.4409,0.7861,245.5312
19:56:34:328,2.0256,-0.902,12.0789,52.6878,-0.1489,-0.6478,0.5978,244.5
19:56:34:349,1.6294,-1.813,13.7895,52.0105,-0.3531,-0.5005,0.4383,243.4844
19:56:34:370,1.8437,-2.6115,13.683,53.1538,-0.3393,-0.116,0.4697,242.2969
19:56:34:395,2.8097,-2.4068,12.0022,53.3074,-0.1902,0.1807,0.6652,241.8125
19:56:34:412,3.7422,-2.1901,10.6651,52.538,-0.0932,0.0628,0.7472,241.2812
19:56:34:432,3.5782,-2.2116,10.8267,53.6799,-0.1593,-0.284,0.6197,240.5625
19:56:34:448,2.6014,-2.214,12.037,53.4218,-0.3017,-0.4001,0.4814,239.75
19:56:34:471,1.8808,-2.3002,12.5206,52.6499,-0.2986,-0.1559,0.4801,239.0312
19:56:34:495,2.447,-2.0081,10.9392,52.7942,-0.0676,0.2745,0.6481,238.4531
19:56:34:513,3.7482,-1.5449,8.6767,53.1357,0.2083,0.3786,0.7464,237.9375
19:56:34:531,4.828,-1.0301,7.7154,52.3907,0.2562,-0.011,0.5973,237.2344
19:56:34:548,4.6521,-1.0169,8.9544,53.4304,0.0075,-0.4867,0.1706,236.8281
19:56:34:570,3.2347,-1.5796,10.1372,54.1648,-0.2778,-0.4574,-0.3133,236.0156
19:56:34:594,1.2379,-1.9136,9.6918,54.0036,-0.3518,0.0177,-0.5836,235.5312
19:56:34:612,0.1354,-1.6047,7.9561,51.6114,-0.2546,0.6702,-0.3133,235.8125
19:56:34:630,-0.0238,-0.908,7.0103,53.3375,-0.2378,0.5379,-0.0991,237.1562
19:56:34:649,0.2802,-0.2484,7.0367,54.9461,-0.1254,0.3416,0.0087,237.1562
19:56:34:670,0.5125,0.234,6.8667,54.0106,0.0003,0.2127,0.0553,237.625
19:56:34:695,0.8082,0.5609,6.5842,53.6214,0.0397,0.1474,0.0346,237.8125
19:56:34:715,0.8034,0.8757,6.4525,55.0701,-0.0152,0.1032,-0.0208,237.8438
19:56:34:731,0.7268,1.0732,6.814,54.8378,-0.1286,0.0955,-0.0714,237.8125
19:56:34:748,0.862,1.1534,7.9249,53.366,-0.1491,0.107,-0.1404,237.7969
19:56:34:768,0.6585,1.1654,8.6695,53.2735,-0.1158,0.0161,-0.207,237.8281
19:56:34:790,0.2312,0.9499,9.5925,52.7247,-0.0775,-0.0904,-0.1889,237.9219
19:56:34:811,-0.0585,0.5609,10.9716,53.4081,0.053,-0.1429,-0.081,238.1094
19:56:34:828,-0.055,0.24,12.2608,54.8644,0.3209,-0.0534,0.0812,238.3438
19:56:34:854,-0.0286,0.416,11.8347,53.2045,0.5289,0.1027,0.2244,238.5469
19:56:34:867,0.2383,0.8601,10.3634,53.307,0.4634,0.0739,0.2652,238.5781
19:56:34:888,0.631,0.8625,9.9253,54.0856,0.2128,-0.0667,0.2223,238.375
19:56:34:916,0.7387,0.5273,11.1906,54.469,0.0003,-0.1373,0.1821,238.0938
19:56:34:931,0.8046,-0.0545,12.9168,53.6626,-0.0093,0.0358,0.1672,237.5312
19:56:34:949,0.2551,-0.2747,13.0737,53.5966,0.0189,0.2204,0.2346,237.5312
19:56:34:970,-0.0334,0.0629,12.517,54.5277,-0.1161,0.3458,0.3251,237.3438
19:56:34:994,0.1737,0.0485,13.076,53.4851,-0.1603,0.4588,0.3158,237.1562
19:56:35:013,-0.3016,-0.477,13.1886,55.3159,0.0219,0.3706,0.3192,236.8438
19:56:35:030,-1.2784,-1.1307,12.7816,54.4916,0.31,0.1647,0.5187,236.6875
19:56:35:092,-1.3658,-1.9124,12.1088,54.6726,0.6607,0.2241,0.7805,236.3906
19:56:35:092,-1.2401,-2.1482,9.632,53.7943,0.861,0.2769,1.004,236.0781
19:56:35:092,-0.4285,-2.0141,6.7374,55.3846,0.6826,0.0425,1.0679,235.4844
19:56:35:108,0.4275,-1.8501,5.5152,53.6546,0.2671,-0.3796,0.9307,234.5938
19:56:35:131,0.212,-1.8681,6.079,51.9938,-0.1119,-0.8358,0.8151,233.5156
19:56:35:154,-0.0502,-2.2057,7.9513,53.5482,-0.3025,-0.9391,0.8617,231.7031
19:56:35:167,0.1869,-2.2428,9.5961,53.5191,-0.2967,-0.6521,0.9763,230.7188
19:56:35:188,0.6549,-1.8393,9.8307,52.6071,-0.1989,-0.3293,1.0199,229.7031
19:56:35:210,0.8297,-1.333,9.0107,52.8265,-0.1864,-0.0209,1.0237,228.5938
19:56:35:229,1.0835,-0.8493,8.405,53.0371,-0.2165,0.1962,1.0159,227.4062
19:56:35:249,1.524,-0.4938,8.1907,52.1163,-0.1358,0.2164,0.9496,226.2812
19:56:35:272,1.8676,-0.2915,7.7489,53.4646,-0.029,0.0689,0.8567,225.125
19:56:35:297,2.1034,-0.1921,7.3731,50.5026,0.0133,-0.1463,0.7398,224.0312
19:56:35:313,1.9143,-0.3992,8.2493,52.5513,0.033,-0.3072,0.617,223.0625
19:56:35:332,1.5935,-0.4124,8.9999,52.1431,0.0365,-0.3232,0.5155,222.1406
19:56:35:347,1.2834,-0.4854,9.7601,51.5187,0.0477,-0.2741,0.4415,221.3281
19:56:35:369,1.1458,-0.4818,10.039,53.1738,0.1167,-0.1634,0.4143,220.6562
19:56:35:396,1.8999,-0.4758,9.541,53.6131,0.2107,-0.0635,0.4343,220.1094
19:56:35:412,2.6409,-0.489,9.3267,51.0273,0.2157,-0.1631,0.3632,219.5938
19:56:35:431,2.9845,-0.8865,10.3072,51.3164,0.065,-0.4164,0.1744,219.0938
19:56:35:448,2.7882,-1.3414,11.6934,51.4159,-0.1257,-0.537,-0.0278,218.4219
19:56:35:468,2.4027,-1.965,12.9061,50.8134,-0.2551,-0.3956,-0.1535,218.1719
19:56:35:496,2.6266,-2.6115,12.6427,50.8134,-0.216,-0.0869,-0.1292,218.1562
19:56:35:510,3.5184,-2.6306,10.8195,49.4961,-0.0916,0.1655,-0.0139,218.2188
19:56:35:529,4.1086,-2.4032,9.9612,49.8164,-0.138,0.0928,-0.0187,218.3906
19:56:35:548,3.3688,-2.5684,10.7656,49.4047,-0.3507,-0.1703,-0.2352,218.4844
19:56:35:568,1.7108,-3.0269,12.5613,50.2434,-0.5854,-0.2387,-0.4483,218.5
19:56:35:589,0.6633,-3.3429,13.5944,50.2472,-0.6168,0.0857,-0.3865,218.625
19:56:35:610,1.0428,-3.2495,12.3243,50.4736,-0.3268,0.5072,-0.0858,219.0312
19:56:35:631,2.6589,-2.5947,9.4405,49.1344,0.0927,0.6548,0.233,219.5781
19:56:35:648,4.1397,-1.8812,7.7705,48.1683,0.2663,0.2436,0.275,219.9219
19:56:35:669,4.6066,-1.4419,8.3786,48.9753,0.0927,-0.3495,-0.0081,219.9219
19:56:35:694,3.2945,-1.6801,9.9456,48.1683,-0.2378,-0.4944,-0.4533,219.625
19:56:35:712,1.1122,-1.8298,10.0522,48.7548,-0.3973,-0.0704,-0.7527,219.4688
19:56:35:729,-0.4201,-1.4982,8.4002,48.2687,-0.3161,0.4913,-0.733,219.9219
19:56:35:748,-0.6403,-0.8553,6.8583,48.2304,-0.1992,0.7823,-0.4712,220.7969
19:56:35:769,0.0432,-0.1957,6.2167,46.715,-0.106,0.7235,-0.1732,221.6875
19:56:35:794,0.5616,0.3466,5.9772,46.1696,0.0314,0.4478,-0.0168,222.3438
19:56:35:813,1.0775,0.7404,5.4661,47.6373,0.1806,0.2084,0.0394,222.6406
19:56:35:828,1.3852,1.1845,5.2961,46.0958,0.2213,0.0657,0.0103,222.7188
19:56:35:848,1.7096,1.637,5.7498,46.9594,0.1435,-0.023,-0.0717,222.7031
19:56:35:868,1.9885,1.892,6.5255,45.8115,0.0083,-0.072,-0.2291,222.6875
19:56:35:888,2.0112,1.7603,7.5119,46.2168,-0.1617,-0.0502,-0.4706,222.7656
19:56:35:912,1.2116,1.3797,8.8012,45.214,-0.4008,0.0649,-0.7588,223
19:56:35:929,0.0504,0.6985,10.2736,44.7689,-0.6496,0.275,-0.9753,223.5469
19:56:35:948,-0.851,-0.0832,11.5282,43.9969,-0.8107,0.5469,-1.0195,223.9375
19:56:35:970,-1.4376,-0.7727,12.523,45.8414,-0.886,0.8977,-0.8717,225
19:56:35:996,-1.6459,-1.0612,13.3215,43.8669,-0.8645,1.1805,-0.5681,226.1875
19:56:36:013,-1.3167,-1.3342,14.0289,44.4929,-0.3545,0.7645,0.1581,227.9844
19:56:36:031,-0.4177,-1.7316,14.503,42.3232,0.0429,0.2806,0.4268,229.2656
19:56:36:048,0.5687,-1.886,14.5102,44.5571,0.3441,-0.0398,0.5384,229.2656
19:56:36:068,0.886,-1.5089,13.9451,43.5705,0.449,-0.165,0.5262,229.2031
19:56:36:089,0.8608,-1.2863,13.7536,43.388,0.4312,-0.0299,0.4671,228.1875
19:56:36:113,0.9937,-1.4874,13.3741,42.0986,0.44,0.3064,0.3587,228.1875
19:56:36:133,0.5939,-1.7172,11.8849,43.5919,0.436,0.4231,0.2764,227.5625
19:56:36:149,0.0863,-1.9806,11.0111,44.8324,0.4991,0.344,0.2431,227.0312
19:56:36:167,-0.3387,-2.3697,10.3957,42.0722,0.7252,0.2649,0.238,226.6875
19:56:36:188,-0.6356,-2.6893,8.7282,41.6701,0.9516,0.116,0.2556,226.4531
19:56:36:214,-0.6164,-2.8138,6.2095,42.3148,0.8823,-0.2225,0.2188,226.25
19:56:36:232,-0.7972,-2.5696,4.512,40.6329,0.4085,-0.6699,0.1214,226.0312
19:56:36:249,-0.7912,-2.6809,4.8436,42.5802,-0.3574,-0.957,0.0181,225.5469
19:56:36:266,-0.8822,-3.1681,7.9596,40.1575,-0.9795,-0.8121,0.0101,225.3438
19:56:36:288,-1.0569,-3.3417,12.3973,40.2752,-0.9372,-0.1895,0.1022,225.2656
19:56:36:313,-1.1826,-3.119,13.1646,40.9211,-0.6149,0.7416,0.2005,225.1562
19:56:36:331,-1.2233,-2.5049,9.8726,41.4481,-0.8136,1.7294,0.2729,225.0156
19:56:36:350,-0.7134,-1.8214,7.464,41.3045,-1.3391,2.4729,0.2122,224.875
19:56:36:370,-0.9181,-1.4778,7.081,43.0844,-1.6067,2.6569,0.1123,224.7812
19:56:36:394,-1.6854,-1.5652,7.6987,40.9174,-1.3824,2.2466,0.1658,224.7969
19:56:36:412,-2.2864,-1.6406,8.326,42.2802,-0.7574,1.3845,0.4109,224.9844
19:56:36:428,-2.2876,-1.6071,8.5019,40.3627,0.0314,0.3357,0.7161,225.2031
19:56:36:448,-1.6268,-1.4467,7.9908,39.9018,0.6314,-0.4691,0.9158,225.2188
19:56:36:468,-0.9217,-1.1426,7.3396,42.0387,0.8647,-0.7855,0.9352,224.9531
19:56:36:487,-0.5398,-1.0624,6.7362,39.6632,0.7369,-0.7501,0.8439,224.2188
19:56:36:511,-0.377,-1.1402,6.7817,41.0997,0.4296,-0.6068,0.7328,223.2188
19:56:36:529,-0.45,-1.2276,7.7777,41.6256,0.1939,-0.4411,0.646,222.1094
19:56:36:555,-0.4596,-1.3521,8.7904,40.1536,0.1273,-0.345,0.5701,221.0938
19:56:36:566,-0.4524,-1.4838,9.0765,41.1886,0.1534,-0.3772,0.5043,219.4531
19:56:36:588,-0.3267,-1.667,8.6408,40.9207,0.1433,-0.6118,0.437,219.0938
19:56:36:615,-0.1507,-1.8836,8.5845,41.8621,0.0386,-0.9319,0.3515,218.4375
19:56:36:633,-0.2178,-2.2691,9.5817,40.2025,-0.0772,-1.124,0.3161,217.8594
19:56:36:653,-0.0945,-2.8641,11.0541,39.657,-0.0964,-1.0276,0.389,217.2969
19:56:36:667,1.0607,-3.3417,11.2086,41.2917,-0.1345,-0.81,0.3858,216.75
19:56:36:688,2.1681,-3.2711,10.4281,40.653,-0.3254,-0.7282,0.1858,216.1719
19:56:36:714,2.4637,-3.313,11.4683,42.3356,-0.5491,-0.7522,-0.1274,215.5781
19:56:36:730,1.1434,-3.4854,12.3793,40.5907,-0.6546,-0.717,-0.4395,215.0781
19:56:36:748,-0.298,-3.5931,12.9097,39.9269,-0.6338,-0.5005,-0.5764,214.8906
19:56:36:767,0.0181,-3.5273,11.7796,40.7003,-0.4613,-0.0696,-0.4176,215.0469
19:56:36:788,1.4259,-2.6989,9.5901,40.6707,-0.265,0.2886,-0.1886,215.5156
19:56:36:816,2.368,-2.1015,8.9173,39.6674,-0.2565,0.169,-0.2123,216.0469
19:56:36:828,2.3201,-2.129,9.5398,40.6481,-0.3452,-0.1514,-0.4749,216.375
19:56:36:847,1.3205,-2.3266,9.8379,39.1151,-0.3814,-0.2105,-0.741,216.75
19:56:36:869,0.3353,-2.1398,8.9006,41.0341,-0.2884,-0.0259,-0.8398,217.25
19:56:36:893,0.0396,-1.7184,7.7406,39.736,-0.1851,0.1666,-0.795,218.0156
19:56:36:913,0.0648,-1.2863,6.9589,39.913,-0.1545,0.2819,-0.7199,218.9531
19:56:36:931,0.0097,-0.9044,6.6955,40.2482,-0.172,0.3357,-0.6904,219.4375
19:56:36:948,-0.1866,-0.6363,6.7973,39.9302,-0.1702,0.3216,-0.6832,220.3438
19:56:36:967,-0.4332,-0.5225,7.1815,39.7222,-0.1063,0.2018,-0.6792,221.1562
19:56:36:988,-0.4404,-0.4208,7.5586,40.1533,0.0027,0.0715,-0.6472,222.0156
19:56:37:011,-0.4428,-0.3262,8.0422,39.608,0.1065,-0.0821,-0.6222,222.8594
19:56:37:030,-0.6499,-0.3142,8.6432,40.3213,0.1561,-0.2108,-0.6443,223.6406
19:56:37:047,-0.9791,-0.4232,9.6308,40.553,0.1427,-0.2646,-0.6752,224.3281
19:56:37:067,-1.3837,-0.6889,10.6483,38.3077,0.1174,-0.1895,-0.6784,225.0156
19:56:37:087,-1.7249,-1.0301,10.962,38.753,0.1443,0.0098,-0.6347,225.7344
19:56:37:112,-1.9105,-1.3761,10.9201,39.5798,0.1774,0.2247,-0.5237,226.4219
19:56:37:187,-1.8315,-1.6861,10.9991,39.9545,0.1633,0.3293,-0.3644,227.5156
19:56:37:187,-1.7632,-2.2559,11.788,40.4418,0.1209,0.246,-0.224,228.1719
19:56:37:188,-1.6519,-2.8425,12.8366,39.1679,0.1071,0.1176,-0.0829,228.625
19:56:37:188,-1.1539,-3.3669,12.705,39.3476,0.1947,0.1421,0.0844,228.9375
19:56:37:207,-0.9827,-3.3716,11.7317,40.0783,0.2442,0.2646,0.2119,229.0625
19:56:37:231,-0.7541,-3.216,12.1196,39.9798,0.074,0.3075,0.3043,229
19:56:37:247,-0.5075,-3.398,12.705,38.993,-0.1089,0.3275,0.3515,228.8125
19:56:37:268,-0.7804,-3.7415,12.6906,40.3955,-0.1039,0.3096,0.3669,228.5312
19:56:37:287,-0.9049,-4.0121,12.6427,40.0977,0.0613,0.0966,0.4535,228.2031
19:56:37:312,-0.7289,-3.9905,11.5557,39.6797,0.327,-0.0542,0.6311,227.8594
19:56:37:330,-0.2513,-3.8397,9.2262,39.432,0.584,-0.0773,0.7794,227.3594
19:56:37:348,0.3437,-3.7248,7.4724,39.7761,0.5878,-0.1682,0.8561,226.625
19:56:37:367,0.0695,-3.3118,7.0822,39.9142,0.3523,-0.3516,0.8061,225.7812
19:56:37:389,-0.5757,-2.9981,8.0997,39.9453,-0.0152,-0.8489,0.7456,224.7969
19:56:37:413,-0.6415,-2.8341,9.2489,40.9173,0.065,-0.8294,0.8242,224.2969
19:56:37:432,-0.7816,-2.5337,9.48,38.8942,0.2828,-0.7367,0.9249,224.2969
19:56:37:453,-0.9001,-2.2081,8.5247,40.0909,0.465,-0.6371,1.07,222.9219
19:56:37:466,-0.6583,-1.7376,7.2881,40.8167,0.5278,-0.5578,1.1946,220.8281
19:56:37:487,-0.0047,-1.3725,6.486,39.8473,0.5191,-0.5208,1.2314,220.8281
19:56:37:511,0.4562,-1.157,6.0024,40.6761,0.4341,-0.5003,1.192,218.375
19:56:37:528,0.6633,-0.8972,5.9389,40.4832,0.3161,-0.4981,1.136,216.9219
19:56:37:546,0.7531,-0.7655,6.3938,38.8804,0.2413,-0.5096,1.0745,215.4219
19:56:37:566,0.9542,-0.6722,7.057,40.0618,0.2256,-0.4949,1.0266,214.0469
19:56:37:586,1.5168,-0.4962,7.4712,40.6358,0.1933,-0.4638,0.907,212.6719
19:56:37:614,1.8652,-0.1718,7.798,40.6358,0.098,-0.4449,0.6966,211.375
19:56:37:629,1.8053,-0.1179,8.5043,41.6082,-0.0048,-0.3892,0.462,210.1875
19:56:37:651,1.3732,-0.3873,9.3195,40.4282,-0.0674,-0.2515,0.2955,209.0781
19:56:37:666,0.9111,-0.6578,9.9756,41.2688,-0.0527,-0.1162,0.2119,207.6406
19:56:37:688,0.959,-0.9643,9.9373,39.452,-0.0304,-0.1487,0.1384,207.1406
19:56:37:711,1.2523,-1.3186,9.8415,42.0198,-0.1041,-0.3061,0.0561,207.1406
19:56:37:731,1.8664,-1.904,10.3945,41.8002,-0.2583,-0.488,-0.0581,206.9219
19:56:37:748,2.1537,-2.6258,11.9065,40.0794,-0.3843,-0.4361,-0.1263,206.7812
19:56:37:774,2.1992,-3.3237,13.197,39.9711,-0.3832,-0.1133,-0.0848,206.7344
19:56:37:786,2.7163,-3.7032,12.784,40.5972,-0.3545,0.2113,-0.0491,206.7812
19:56:37:807,3.273,-3.4339,11.2601,41.286,-0.4437,0.2026,-0.1505,206.8906
19:56:37:829,3.1269,-3.1418,11.0146,40.3913,-0.5468,0.043,-0.3204,206.9688
19:56:37:848,2.2124,-3.1957,12.025,40.601,-0.4788,0.0257,-0.3679,207.0156
19:56:37:872,1.3002,-3.5285,12.5469,40.9344,-0.2386,0.21,-0.2139,207.2344
19:56:37:886,1.2355,-3.4387,11.4911,40.2474,0.0027,0.2817,0.0023,207.625
19:56:37:906,2.3572,-2.9957,10.0833,39.5316,0.1071,0.0891,0.0436,208.0469
19:56:37:929,3.5555,-2.6426,9.3339,42.0216,0.0679,-0.1295,-0.1276,208.3281
19:56:37:948,3.7806,-2.3302,9.4668,40.768,-0.0125,-0.0813,-0.3913,208.375
19:56:37:967,3.0144,-2.1757,9.3962,39.593,-0.0394,0.2175,-0.6043,208.3438
19:56:37:990,1.7335,-2.1147,8.2936,40.5919,-0.0394,0.4817,-0.6573,208.6406
19:56:38:014,0.8501,-1.8561,7.0151,40.3146,-0.0679,0.5728,-0.599,209.2344
19:56:38:030,0.4586,-1.4263,6.1113,41.5467,-0.1065,0.4651,-0.5063,210.0156
19:56:38:048,0.3509,-0.8781,5.9174,40.9223,-0.1209,0.2556,-0.4336,210.8438
19:56:38:066,0.4778,-0.4914,6.2502,40.8965,-0.0866,0.0979,-0.3934,211.5625
19:56:38:088,0.7411,-0.2855,6.5674,42.5456,-0.0698,0.0444,-0.4059,212.1406
19:56:38:112,0.6238,0.0341,7.3982,41.7294,-0.1087,0.0675,-0.456,212.6406
19:56:38:128,0.4957,0.0305,7.9153,40.7973,-0.1694,0.1557,-0.4994,213.0938
19:56:38:148,0.2886,-0.0078,8.5151,42.4838,-0.2189,0.2177,-0.5295,213.5938
19:56:38:166,0.1534,-0.1107,9.1041,40.7967,-0.2429,0.2356,-0.5516,214.1406
19:56:38:186,-0.1268,-0.2951,10.0725,42.3908,-0.2666,0.2526,-0.5655,214.7656
19:56:38:214,-0.3351,-0.5177,10.7166,42.9921,-0.2453,0.3512,-0.5607,215.4375
19:56:38:231,-0.8427,-0.9511,10.5562,42.191,-0.1478,0.4588,-0.5569,216.0938
19:56:38:247,-1.5118,-1.2623,10.452,43.1545,-0.1044,0.5144,-0.4845,216.7969
19:56:38:269,-1.7608,-1.722,11.302,42.3432,-0.126,0.4194,-0.3362,217.8906
19:56:38:287,-1.5334,-2.3206,12.2345,43.0119,-0.1116,0.299,-0.1468,218.5156
19:56:38:311,-1.1012,-2.8593,12.0465,43.9196,-0.0176,0.319,0.0295,218.9844
19:56:38:330,-0.8235,-2.876,11.1044,42.9802,0.0165,0.4478,0.1704,219.125
19:56:38:350,-0.6954,-2.9155,11.2816,42.5585,-0.1326,0.4372,0.2457,219.25
19:56:38:372,-1.0462,-3.4471,12.5086,43.8997,-0.3593,0.2928,0.2655,219.2031
19:56:38:385,-1.8315,-4.0312,13.9152,44.3806,-0.4541,0.1466,0.3283,219.0469
19:56:38:406,-2.0793,-4.6298,14.837,43.6988,-0.2887,0.0124,0.539,218.8125
19:56:38:432,-1.6375,-4.9159,13.0904,44.3292,0.1473,0.0731,0.8814,218.5469
19:56:38:450,-0.7409,-4.9291,9.9947,43.2113,0.5606,0.1259,1.2101,218.0938
19:56:38:468,0.3628,-4.9135,7.9345,44.3929,0.6474,-0.0518,1.4183,217.2812
19:56:38:486,0.6322,-4.7639,7.221,43.0584,0.4778,-0.3546,1.4396,216.1094
19:56:38:512,0.0181,-4.291,7.6388,44.8063,0.2147,-0.5929,1.3877,214.6875
19:56:38:529,-0.2621,-3.6542,8.5378,45.0341,0.0069,-0.6712,1.4314,213.0156
19:56:38:546,0.151,-3.0101,8.8862,46.8854,-0.0272,-0.6089,1.551,210.5469
19:56:38:567,0.4837,-2.3541,8.8048,46.1217,0.0724,-0.5413,1.6109,208.7812
19:56:38:587,0.7495,-1.9722,8.5522,45.3566,0.2386,-0.5684,1.6056,206.9062
19:56:38:612,0.9961,-1.7591,8.1488,45.8902,0.433,-0.6544,1.5664,204.9531
19:56:38:630,1.19,-1.4347,7.6831,46.2775,0.5896,-0.6774,1.5363,203.125
19:56:38:649,1.3121,-1.151,7.1863,44.9526,0.6756,-0.6039,1.491,201.2344
19:56:38:667,1.627,-1.011,6.6823,47.3448,0.6839,-0.4619,1.4484,199.375
19:56:38:687,1.8987,-0.7165,6.3938,47.7843,0.6101,-0.3325,1.3869,197.6719
19:56:38:714,2.1226,-0.5333,6.5866,46.5663,0.4541,-0.2587,1.2812,195.9688
19:56:38:729,1.9945,-0.4543,7.543,47.1418,0.2692,-0.2526,1.1225,194.3438
19:56:38:748,1.8185,-0.6506,8.5702,46.2066,0.1643,-0.272,0.9664,192.9375
19:56:38:767,1.5947,-1.0169,9.2226,47.603,0.1704,-0.3282,0.8434,191.6094
19:56:38:786,1.6198,-1.1774,9.5709,47.23,0.2085,-0.3889,0.7888,190.4844
19:56:38:811,2.0567,-1.1558,9.456,48.2903,0.1867,-0.577,0.675,189.9688
19:56:38:827,2.6972,-1.2516,9.3842,48.899,0.0091,-0.7405,0.5264,188.5781
19:56:38:847,3.1976,-1.5927,10.2437,48.0648,-0.1904,-0.8371,0.3587,187.6562
19:56:38:866,3.2024,-1.8585,11.6683,47.5799,-0.2503,-0.8004,0.2535,186.8125
19:56:38:886,3.4789,-2.3421,12.6259,48.5933,-0.1491,-0.5966,0.1927,186.1562
19:56:38:914,4.0092,-2.4319,11.9592,48.9739,-0.135,-0.3229,0.0543,185.2656
19:56:38:931,4.2582,-1.9986,10.5598,49.7515,-0.3475,-0.1298,-0.2339,185.2656
19:56:38:948,3.9625,-1.7124,10.3096,50.1416,-0.6386,-0.0193,-0.6012,184.9688
19:56:38:965,2.921,-1.9483,11.4695,49.5564,-0.7257,0.1293,-0.8611,184.8906
19:56:38:985,1.5707,-2.2739,12.4703,47.9733,-0.5361,0.3821,-0.9143,185.1406
19:56:39:017,0.5436,-2.4044,12.0226,49.844,-0.2354,0.5672,-0.79,185.8438
19:56:39:031,0.6178,-2.3074,10.294,49.539,-0.0674,0.5067,-0.6488,187.9219
19:56:39:046,1.4438,-2.1027,9.073,48.7143,-0.0786,0.2161,-0.668,187.9219
19:56:39:066,1.8676,-2.0153,9.0298,48.8992,-0.1848,-0.0326,-0.8161,189.7031
19:56:39:086,1.5683,-2.2224,10.0342,49.1832,-0.1832,0.0452,-0.9316,190.0938
19:56:39:112,0.728,-2.3421,9.9935,49.0646,-0.1169,0.3829,-0.9239,190.9375
19:56:39:130,-0.1615,-2.2009,8.8658,50.3988,-0.0892,0.703,-0.7793,191.9531
19:56:39:147,-0.602,-1.8345,7.6999,48.619,-0.0682,0.8292,-0.5641,193.0156
19:56:39:170,-0.5099,-1.3785,6.8571,49.4774,0.0021,0.7163,-0.3588,194.0938
19:56:39:185,-0.0071,-0.914,6.2705,48.4039,0.0738,0.4614,-0.2416,195
19:56:39:250,0.3748,-0.5118,6.0946,48.9645,0.0985,0.2108,-0.216,195.6406
19:56:39:250,0.5376,-0.2496,6.3472,49.0589,0.053,0.1027,-0.2251,196.0469
19:56:39:251,0.3904,-0.2197,6.9505,48.85,-0.0336,0.1517,-0.2083,196.2031
19:56:39:266,0.2575,-0.1024,7.6472,49.5851,-0.1137,0.2018,-0.1495,196.4844
19:56:39:287,0.4514,0.0006,8.6659,50.1354,-0.1332,0.2162,-0.1114,196.75
19:56:39:312,0.6286,0.1239,9.9361,48.1635,-0.0517,0.254,-0.1162,197.0156
19:56:39:328,0.643,0.1035,10.9368,50.536,0.0948,0.3493,-0.1489,197.2188
19:56:39:346,0.3545,-0.1766,11.0242,48.1518,0.1614,0.4641,-0.1383,197.375
19:56:39:366,-0.2453,-0.3645,11.0015,48.4512,0.1481,0.4777,-0.023,197.5312
19:56:39:386,-0.6308,-0.519,11.4851,49.3599,0.1675,0.3533,0.1901,197.8906
19:56:39:409,-0.6978,-0.5261,12.3183,49.8496,0.2764,0.1434,0.4505,198.0781
19:56:39:429,-0.2094,-0.4962,12.93,49.1962,0.4671,-0.0787,0.6814,198.0625
19:56:39:446,0.6262,-0.4543,13.0389,50.2725,0.6778,-0.2952,0.7896,197.7344
19:56:39:466,1.4019,-0.4339,12.2177,47.7486,0.7649,-0.4398,0.727,197.0938
19:56:39:486,1.1601,-0.1945,11.2996,49.2205,0.6115,-0.4193,0.6197,196.2656
19:56:39:513,0.7735,-0.7859,11.284,48.2179,0.3534,-0.1628,0.4181,195.3594
19:56:39:529,-0.5206,-1.6562,10.3419,46.8727,0.2162,0.181,0.1893,194.5469
19:56:39:548,-1.1515,-2.2547,9.9133,46.6543,0.1808,0.1602,0.1786,193.9375
19:56:39:565,-1.2329,-2.7096,9.8139,46.1416,0.1971,-0.0896,0.2822,193.625
19:56:39:586,-1.1563,-3.143,8.9257,47.2198,0.2538,-0.2262,0.369,193.4844
19:56:39:613,-0.9815,-3.2831,8.0135,47.0273,0.1755,-0.2824,0.4465,193.2188
19:56:39:632,-0.7241,-3.0927,8.7078,46.0979,-0.0996,-0.468,0.5083,192.8594
19:56:39:648,-0.2992,-2.797,10.6232,44.7857,-0.3617,-0.6861,0.5853,192.0938
19:56:39:667,0.1354,-2.4151,11.3774,46.5903,-0.3111,-0.7043,0.6756,191.4844
19:56:39:686,0.7746,-1.9435,10.6483,45.5479,-0.0562,-0.5524,0.7813,190.7344
19:56:39:715,1.1374,-1.3988,9.4895,45.0213,0.1784,-0.3511,0.8468,189.8906
19:56:39:731,1.2942,-1.0744,8.3319,45.0213,0.3329,-0.1554,0.87,189.4219
19:56:39:749,1.2678,-0.92,7.1157,45.7773,0.4471,-0.0446,0.8567,188.4844
19:56:39:766,1.2774,-0.7236,6.3076,44.2445,0.4719,-0.0361,0.8543,187.4688
19:56:39:785,1.5228,-0.5716,6.0168,45.3936,0.4426,-0.1207,0.8551,186.4688
19:56:39:805,1.8448,-0.3801,5.9485,44.9576,0.388,-0.2523,0.8335,185.4844
19:56:39:829,2.1106,-0.1155,6.498,42.7948,0.2788,-0.3884,0.7605,184.5625
19:56:39:848,2.0543,0.0736,7.5838,42.3824,0.134,-0.4803,0.6252,183.5781
19:56:39:865,1.7814,0.0485,8.2422,43.8645,0.0495,-0.4353,0.4636,182.625
19:56:39:886,1.5204,0.064,8.5151,44.5081,-0.0301,-0.2672,0.3448,181.8281
19:56:39:913,1.554,0.1179,8.7725,43.8515,-0.1486,-0.0832,0.2732,181.1719
19:56:39:931,1.5695,0.0042,9.1615,44.5997,-0.2519,-0.0323,0.1824,180.5
19:56:39:949,1.8269,-0.319,9.5458,43.6434,-0.3044,-0.1229,0.0753,180.1875
19:56:39:966,2.0998,-0.8924,10.3443,44.6548,-0.3494,-0.3479,-0.0528,179.9844
19:56:39:987,2.022,-1.6789,11.5354,42.1933,-0.4128,-0.6009,-0.1732,179.8906
19:56:40:015,1.7192,-2.4822,13.1239,42.7274,-0.486,-0.7058,-0.224,179.9219
19:56:40:032,2.2351,-3.1154,13.8446,40.8783,-0.4759,-0.5072,-0.1122,180.0625
19:56:40:049,3.03,-3.0077,12.177,42.4566,-0.3601,-0.0451,0.0284,180.2656
19:56:40:065,3.2981,-2.6474,10.3491,43.4671,-0.3502,0.2196,-0.0097,180.3594
19:56:40:086,2.6984,-2.7384,10.7178,40.8111,-0.5819,0.1456,-0.2177,180.3281
19:56:40:113,1.5204,-3.2208,12.7349,42.2995,-0.8123,-0.0148,-0.3979,180.375
19:56:40:131,0.2515,-3.4614,13.8075,41.6348,-0.7036,0.0449,-0.3697,180.6562
19:56:40:148,0.2671,-3.4147,11.855,40.7111,-0.2216,0.3163,-0.0722,181.125
19:56:40:166,1.6593,-2.7384,8.3547,42.2139,0.2772,0.4897,0.3137,181.3594
19:56:40:187,3.2634,-1.7975,6.2921,42.2318,0.3987,0.2726,0.4862,181.6875
19:56:40:213,3.9673,-1.0971,6.4393,42.3152,-0.2357,-0.2744,-0.0595,181.4219
19:56:40:231,3.4059,-0.9535,7.8256,42.2636,-0.4855,-0.043,-0.4222,180.5156
19:56:40:246,2.0077,-1.2468,8.648,40.7276,-0.5332,0.3549,-0.5652,180.5156
19:56:40:265,0.6154,-1.2959,8.3535,42.5132,-0.5015,0.6417,-0.4544,180.5469
19:56:40:292,0.0791,-1.0145,7.9465,42.3744,-0.4256,0.6188,-0.2219,181.0156
19:56:40:313,0.528,-0.4112,8.2529,41.251,-0.2344,0.4353,-0.0698,181.7344
19:56:40:330,1.2188,0.1526,8.4385,42.3152,0.0075,0.2412,-0.0568,182.3438
19:56:40:349,1.6521,0.422,8.1751,40.7859,0.1475,0.1549,-0.1399,182.6875
19:56:40:364,1.6665,0.5477,7.9273,41.526,0.1337,0.1975,-0.2605,182.8438
19:56:40:387,1.4163,0.5561,8.071,42.6689,0.037,0.2907,-0.338,182.9375
19:56:40:404,1.0979,0.4495,8.9018,39.8045,0.0107,0.3376,-0.358,183.125
19:56:40:425,0.9746,0.2783,9.6296,39.9972,0.0751,0.3394,-0.3657,183.4531
19:56:40:447,0.6346,0.2304,10.1755,41.535,0.1856,0.3187,-0.3431,184.5469
19:56:40:465,0.3485,0.0102,10.4664,41.7528,0.3116,0.2761,-0.2861,184.5469
19:56:40:486,0.1497,-0.3705,10.4017,40.5771,0.3984,0.19,-0.162,185.0156
19:56:40:506,0.0935,-0.6039,10.2281,42.5672,0.4088,0.0287,-0.0019,185.4219
19:56:40:530,0.1474,-0.677,10.5502,42.077,0.3883,-0.1881,0.1595,185.7344
19:56:40:549,0.528,-0.9272,10.9727,42.2333,0.3332,-0.3197,0.286,185.8438
19:56:40:565,1.0871,-1.2456,11.266,41.6225,0.1627,-0.301,0.3621,185.75
19:56:40:589,1.7335,-1.3078,12.0513,43.3569,-0.0434,-0.2196,0.3331,185.4531
19:56:40:614,2.0172,-1.3988,12.9659,42.2621,-0.2019,-0.2678,0.218,185.0625
19:56:40:631,1.8317,-1.7484,14.4036,42.7454,-0.2224,-0.2723,0.1137,184.6094
19:56:40:650,0.9662,-2.5768,15.6929,41.4482,0.0618,-0.1546,0.1507,184.4219
19:56:40:665,-0.0849,-3.3573,15.2919,43.2088,0.6237,-0.0872,0.4306,184.125
19:56:40:685,-0.0573,-3.4686,12.3841,42.9797,1.0282,-0.1207,0.7496,183.9688
19:56:40:706,0.935,-3.064,9.0382,42.9586,1.0256,-0.2401,0.8508,183.7812
19:56:40:730,1.7706,-2.5624,6.8631,41.6185,0.7089,-0.3578,0.7448,183.2812
19:56:40:747,1.9071,-2.1793,6.1113,43.1097,0.2882,-0.5061,0.5552,182.4531
19:56:40:764,1.3971,-2.1781,6.8356,43.0845,0.0104,-0.6417,0.4311,181.4531
19:56:40:785,0.6837,-2.3828,7.9058,42.4745,-0.0234,-0.6347,0.4636,180.1875
19:56:40:805,0.1126,-2.2428,8.132,41.7015,0.0914,-0.6121,0.6183,179.625
19:56:40:830,0.1043,-1.8549,7.5862,42.94,0.208,-0.6712,0.7912,179.0781
19:56:40:849,0.6968,-1.4108,6.9696,44.3774,0.2091,-0.7453,0.8775,178.4062
19:56:40:866,1.4103,-1.06,7.0798,44.4282,0.1656,-0.7296,0.8652,177.5312
19:56:40:885,1.6557,-0.6183,7.5395,44.4448,0.1446,-0.5759,0.8002,176.5312
19:56:40:908,1.4115,-0.0401,8.3738,44.5577,0.1904,-0.2944,0.7813,175.4531
19:56:40:931,1.5444,0.2077,8.6312,44.3414,0.2884,0.014,0.7733,174.4375
19:56:40:948,1.7814,0.1311,7.9058,45.14,0.4384,0.2002,0.7264,173.5469
19:56:40:967,1.9131,0.3705,6.6273,45.129,0.5145,0.2761,0.6559,172.625
19:56:40:990,2.0364,0.677,6.255,45.7533,0.3689,0.2106,0.5398,171.75
19:56:41:004,2.113,0.4459,7.0379,44.4296,0.106,-0.0153,0.3491,170.9844
19:56:41:029,2.0256,-0.4016,8.4133,45.171,-0.1585,-0.2049,0.1398,170.2969
19:56:41:050,2.1501,-1.1019,9.5674,47.0302,-0.372,-0.1817,0.0402,169.7656
19:56:41:068,2.5547,-1.6107,10.6148,47.4604,-0.5374,-0.0992,0.0276,169.4375
19:56:41:085,3.1078,-1.8022,11.8682,47.0103,-0.6701,-0.093,0.0314,169.3906
19:56:41:105,3.4825,-2.0955,12.7804,45.8454,-0.7143,-0.072,-0.0105,169.3906
19:56:41:130,3.5651,-2.5157,12.6798,46.636,-0.6647,0.0295,-0.0816,169.375
19:56:41:148,3.2491,-2.7336,11.794,47.2224,-0.6171,0.1842,-0.117,169.375
19:56:41:164,2.8025,-2.9227,11.4181,47.5208,-0.6479,0.1709,-0.0861,169.4688
19:56:41:188,2.5248,-2.7779,11.8383,47.5247,-0.7119,0.0249,0.0231,169.625
19:56:41:204,2.4554,-2.4187,12.7923,47.7383,-0.7081,-0.1551,0.1621,169.7969
19:56:41:225,2.6433,-2.0201,14.0146,48.0849,-0.6043,-0.2624,0.323,169.8906
19:56:41:246,3.5711,-1.8238,15.074,47.3054,-0.3633,-0.1807,0.4716,169.7969
19:56:41:265,5.1836,-1.6526,14.0888,47.5238,0.1361,-0.0073,0.5531,169.5312
19:56:41:332,6.5339,-1.4192,11.6383,49.3772,0.7143,0.0079,0.4412,169.0781
19:56:41:333,7.1085,-1.4874,9.8702,47.6581,1.003,-0.1844,0.0913,168.4688
19:56:41:333,6.419,-1.7843,8.7018,49.83,1.0184,-0.2962,-0.4222,167.6094
19:56:41:354,4.6185,-2.0057,7.4832,49.5493,0.8714,-0.088,-0.9175,167.4531
19:56:41:364,2.6972,-2.1386,5.7869,49.2485,0.6852,0.2843,-1.2355,167.8438
19:56:41:384,1.3062,-1.9411,4.439,50.649,0.424,0.6201,-1.3032,168.8438
19:56:41:404,0.467,-1.4886,4.2642,49.6274,0.0783,0.7421,-1.1918,170.1875
19:56:41:426,0.4083,-1.1474,5.2638,51.4874,-0.2131,0.6676,-0.9873,171.7031
19:56:41:449,0.9003,-0.829,6.5291,51.5311,-0.282,0.4633,-0.7609,173.1406
19:56:41:468,1.1924,-0.4495,7.2701,51.8072,-0.1481,0.2593,-0.6054,174.2812
19:56:41:484,1.129,-0.0892,7.2115,51.5824,0.0575,0.1371,-0.529,175.2031
19:56:41:507,1.2966,0.2819,7.0091,50.3078,0.1603,0.1325,-0.4347,175.9219
19:56:41:529,1.925,0.829,7.2701,53.2517,0.13,0.1618,-0.3284,176.5312
19:56:41:547,2.5643,1.3414,7.9632,52.5262,0.0522,0.1347,-0.3127,177.0156
19:56:41:566,2.7463,1.3952,8.5845,54.2658,-0.0322,0.1157,-0.5993,177.4062
19:56:41:588,2.4135,1.0744,9.0514,54.0676,-0.0844,0.1823,-0.6877,178.25
19:56:41:608,1.8532,0.7775,9.5075,54.7456,-0.1108,0.3062,-0.6701,178.5781
19:56:41:630,1.2116,0.4771,9.6248,53.6388,-0.0969,0.3722,-0.5383,178.5781
19:56:41:647,0.9578,0.2436,9.3878,54.8363,-0.1097,0.2598,-0.3556,179.75
19:56:41:667,1.1589,0.1251,9.6452,54.3205,-0.1454,0.0004,-0.2264,181.1562
19:56:41:686,1.8053,-0.1718,9.9109,55.4331,-0.2884,-0.337,-0.1878,181.1562
19:56:41:708,2.2866,-0.3729,11.1056,55.7269,-0.5286,-0.5732,-0.2824,181.5938
19:56:41:731,1.8077,-0.8829,12.8486,56.352,-0.7276,-0.5247,-0.3489,181.8594
19:56:41:750,1.1721,-1.6227,14.6083,56.913,-0.836,-0.161,-0.2957,182.0312
19:56:41:765,0.3999,-2.463,16.0317,56.2199,-0.649,0.2921,-0.113,182.3125
19:56:41:790,0.0456,-2.8832,15.5684,57.6805,-0.2767,0.565,0.1757,182.6875
19:56:41:803,0.4466,-2.7252,13.331,57.277,-0.0016,0.6135,0.3768,183.0156
19:56:41:824,1.2571,-2.5612,10.8518,57.277,0.0935,0.4007,0.3824,183.2031
19:56:41:849,1.7551,-2.7408,9.0119,59.2524,0.0131,0.0119,0.2577,183.0781
19:56:41:867,1.5336,-3.0724,8.6085,57.8981,-0.1084,-0.37,0.1573,182.75
19:56:41:889,0.8022,-3.1526,8.9784,57.3339,-0.1103,-0.5692,0.2053,182.3594
19:56:41:903,0.4323,-2.7719,9.122,57.4117,-0.0091,-0.5823,0.3177,181.9688
19:56:41:926,0.2024,-2.3637,8.5378,58.7052,0.1159,-0.4574,0.4559,181.7188
19:56:41:949,-0.0011,-2.0847,7.2474,57.7831,0.1752,-0.3239,0.6431,181.3438
19:56:41:967,0.0217,-1.813,6.2155,56.7161,0.1875,-0.2185,0.8567,180.8438
19:56:41:985,0.5699,-1.5532,5.5415,57.3313,0.2003,-0.2017,1.037,180.1719
19:56:42:005,1.4067,-1.2923,4.9848,56.051,0.1744,-0.3684,1.1206,179.3125
19:56:42:029,2.2112,-1.0457,4.9729,58.3939,0.0514,-0.6241,1.1044,178.1875
19:56:42:049,2.69,-0.8146,6.3304,57.771,0.0075,-0.7306,1.0338,176.8906
19:56:42:065,3.0312,-0.7739,7.5993,58.5535,0.0634,-0.6467,0.923,175.6094
19:56:42:084,3.2083,-0.6841,8.0243,56.1434,0.036,-0.423,0.7821,174.9375
19:56:42:105,3.3221,-0.5465,8.2218,55.3247,-0.1129,-0.1985,0.637,173.6719
19:56:42:131,3.5483,-0.3513,8.7378,56.592,-0.3129,-0.0813,0.4487,172.5312
19:56:42:148,3.5376,-0.3885,9.9768,57.595,-0.3974,-0.0496,0.2497,171.625
19:56:42:167,3.3077,-0.6997,11.0601,56.5906,-0.3449,-0.0374,0.0937,170.875
19:56:42:185,3.103,-1.0313,11.3786,55.2807,-0.281,-0.0781,-0.0168,170.375
19:56:42:205,3.3472,-1.3162,11.4061,57.2982,-0.3401,-0.1295,-0.1327,170.0469
19:56:42:230,3.753,-1.7915,11.9903,55.8503,-0.5238,-0.0323,-0.2746,170.0156
19:56:42:246,3.844,-2.4068,13.2784,56.6403,-0.669,0.3112,-0.3567,170.0938
19:56:42:264,4.1062,-3.2232,13.9188,56.1151,-0.6482,0.7442,-0.3588,170.3281
19:56:42:285,4.3839,-3.5536,12.8965,54.0525,-0.5848,1.0452,-0.3902,170.75
19:56:42:304,4.2678,-3.0257,9.7912,54.5184,-0.6522,0.9786,-0.5218,171.2969
19:56:42:330,3.607,-3.3309,10.215,54.4065,-0.873,0.7637,-0.7636,171.8594
19:56:42:351,2.3033,-3.8996,11.29,56.6904,-1.028,0.6031,-0.962,172.5781
19:56:42:365,1.8257,-4.4742,11.8801,54.2634,-0.9148,0.5629,-0.9221,173.4844
19:56:42:384,2.5128,-4.8524,11.272,54.7272,-0.5675,0.5219,-0.6925,174.6562
19:56:42:404,3.3855,-4.3999,10.1467,52.9313,-0.1936,0.4665,-0.4403,175.8438
19:56:42:431,3.856,-4.1019,9.4381,52.0672,0.0788,0.2281,-0.3439,176.9062
19:56:42:449,3.3783,-3.7367,8.7653,52.7395,0.2855,0.0039,-0.399,177.6719
19:56:42:466,2.2207,-3.2256,7.239,51.986,0.4567,0.0697,-0.4557,178.1406
19:56:42:483,1.457,-2.639,5.569,52.4315,0.5619,0.1693,-0.4075,178.8125
19:56:42:504,1.1757,-2.0357,4.6185,52.8135,0.5449,0.1445,-0.3037,179.3438
19:56:42:532,1.2247,-1.2959,4.682,52.458,0.4075,0.0281,-0.207,179.8125
19:56:42:550,1.3744,-0.9906,5.7773,50.8398,0.2519,-0.1205,-0.1676,180.1719
19:56:42:568,1.4737,-0.9224,6.9122,50.2674,0.1981,-0.1841,-0.1569,180.4062
19:56:42:584,1.1841,-0.9882,7.7466,50.183,0.2722,-0.162,-0.1593,180.5625
19:56:42:605,0.9063,-1.0529,7.8184,51.09,0.4445,-0.1383,-0.1023,180.6406
19:56:42:631,1.1039,-0.8326,7.5095,49.8043,0.5899,-0.1375,0.0125,180.7812
19:56:42:648,1.8879,-0.6339,7.7154,51.0105,0.5688,-0.186,0.0838,180.9062
19:56:42:666,2.423,-0.3789,8.6336,50.1799,0.3345,-0.1801,0.005,180.9219
19:56:42:685,2.3764,-0.3944,10.2724,48.713,-0.0727,-0.0414,-0.1966,180.8125
19:56:42:708,1.8844,-0.981,12.754,50.5324,-0.5388,0.2644,-0.4501,180.6875
19:56:42:732,0.7711,-1.6741,15.1219,49.3379,-0.8445,0.8894,-0.5921,180.75
19:56:42:753,-0.5877,-1.7747,15.6319,49.0912,-0.6583,1.4529,-0.4962,181.1406
19:56:42:771,-0.9731,-1.7268,14.4371,49.1931,-0.0514,1.414,-0.2025,181.875
19:56:42:784,-0.3913,-1.5604,13.0557,48.3075,0.5758,0.9147,0.1107,183.125
19:56:42:805,0.2,-1.2396,12.0729,46.6429,0.9388,0.4225,0.2761,183.625
19:56:42:832,0.0516,-1.0744,11.5043,48.0018,0.9891,0.205,0.2668,183.6719
19:56:42:850,-0.3339,-1.1546,12.1064,46.8458,0.8269,0.1349,0.2348,183.4531
19:56:42:869,-0.0945,-1.5317,13.197,45.7115,0.6794,0.128,0.3163,183.2188
19:56:42:884,0.1533,-2.0189,13.7069,46.2373,0.7598,0.1285,0.426,182.9844
19:56:42:905,0.4203,-2.408,12.8474,45.346,1.0679,0.0889,0.5491,182.6562
19:56:42:925,1.0344,-2.6606,10.9668,44.2239,1.428,-0.0148,0.699,182.25
19:56:42:946,1.5707,-2.3996,8.9341,44.397,1.6597,-0.2648,0.8018,181.6562
19:56:42:963,1.8413,-1.7376,7.7358,44.3259,1.6147,-0.582,0.8157,180.9062
19:56:42:984,1.876,-1.3617,7.8758,42.4914,1.2983,-0.8121,0.7129,180.0312
19:56:43:005,2.0843,-1.3342,8.4995,43.5503,0.6906,-0.3788,0.5731,179.1562
19:56:43:031,2.113,-0.9595,8.3056,42.3012,0.6828,-0.1082,0.4924,179.1562
19:56:43:049,1.8616,-0.6398,7.4174,43.6522,0.7625,-0.0688,0.4242,178.3281
19:56:43:065,1.6796,-0.5273,6.3376,41.3532,0.8216,-0.1639,0.385,177.5938
19:56:43:084,1.5061,-0.3083,5.5391,41.8309,0.8168,-0.3884,0.3552,176.4062
19:56:43:104,1.378,-0.1514,5.3404,42.175,0.7824,-0.6028,0.3509,175.9219
19:56:43:131,1.2295,0.0736,5.6097,41.8868,0.6693,-0.6318,0.3906,175.5
19:56:43:149,1.275,0.3693,6.1772,40.3075,0.4767,-0.4158,0.4572,175.1094
19:56:43:167,1.4414,0.8158,7.1013,41.1032,0.3289,-0.1495,0.494,174.7188
19:56:43:183,1.6306,1.1283,7.7549,41.028,0.2607,0.0167,0.4974,174.2656
19:56:43:203,1.8065,1.5066,8.156,39.2725,0.2384,0.0569,0.4585,173.7656
19:56:43:224,2.1693,1.7424,8.49,38.8821,0.1997,0.0692,0.3616,173.2031
19:56:43:248,2.2531,1.8597,8.9006,39.243,0.1641,0.0609,0.2447,172.625
19:56:43:267,2.1681,1.813,9.4907,39.7359,0.1563,0.0542,0.1613,172.125
19:56:43:283,2.18,1.6179,9.8487,40.0388,0.1651,-0.0472,0.1094,171.7031
19:56:43:304,2.4099,1.3629,9.9133,39.6509,0.1047,-0.1948,0.0812,171.4219
19:56:43:323,2.6732,1.1175,10.4688,38.6862,-0.0333,-0.1927,0.0764,171.2344
19:56:43:347,2.7487,1.0708,11.5162,38.3095,-0.077,-0.0595,0.1123,171.1094
19:56:43:413,3.1892,0.8733,11.5785,36.6195,-0.0328,0.0207,0.1445,171
19:56:43:413,4.0056,0.8003,10.8231,36.6133,-0.0687,-0.0832,0.0857,170.9062
19:56:43:413,4.8029,0.8865,10.057,37.2454,-0.2738,-0.2409,-0.1479,170.75
19:56:43:428,4.9609,0.7416,10.0019,36.3988,-0.6141,-0.3418,-0.4925,170.5938
19:56:43:452,4.3061,0.0425,11.0266,36.9051,-0.9223,-0.1988,-0.7386,170.625
19:56:43:469,2.945,-0.5884,12.5709,36.204,-0.9875,0.2058,-0.7719,171
19:56:43:483,1.767,-0.8194,13.5717,36.0151,-0.6642,0.6934,-0.6022,171.75
19:56:43:503,1.4534,-0.7955,11.8215,35.6941,-0.2551,0.8409,-0.3625,172.6875
19:56:43:523,1.9203,-0.325,9.1867,34.4986,-0.0554,0.5419,-0.2027,173.4688
19:56:43:543,2.8229,0.3107,7.7238,36.1044,-0.0314,0.0372,-0.2544,174.0312
19:56:43:563,3.3328,0.841,7.5622,36.2113,-0.082,-0.252,-0.464,174.3281
19:56:43:583,3.1234,0.9667,7.5694,34.5912,-0.208,-0.1066,-0.696,174.4375
19:56:43:603,2.3835,0.8996,7.3814,37.3156,-0.3337,0.2652,-0.839,174.7188
19:56:43:623,1.5791,0.9188,6.8056,35.8391,-0.3912,0.5341,-0.8581,175.25
19:56:43:644,1.0943,1.1534,6.2873,34.9919,-0.3723,0.5576,-0.8123,176.0469
19:56:43:665,0.7746,1.3904,6.2095,34.1515,-0.2882,0.4028,-0.7213,177.4531
19:56:43:684,1.0105,1.5101,6.2825,34.2586,-0.167,0.2723,-0.6624,178.4375
19:56:43:704,1.0153,2.1135,5.9844,33.3233,-0.1598,0.1637,-0.6539,179.3125
19:56:43:723,0.9494,2.3338,6.8284,34.0424,-0.2927,0.0918,-0.6488,180.0625
19:56:43:748,1.1374,2.2919,8.393,33.4132,-0.4546,0.0587,-0.6323,180.8125
19:56:43:764,1.3253,2.3002,9.6703,34.2018,-0.5388,0.0793,-0.6235,181.5625
19:56:43:782,1.2056,2.2571,10.8614,32.9078,-0.5454,0.0553,-0.6443,182.25
19:56:43:802,0.7734,2.0584,11.9843,33.2881,-0.4487,-0.0829,-0.6763,182.9688
19:56:43:822,0.1222,1.7256,12.6523,33.0384,-0.1803,-0.3578,-0.6967,183.6719
19:56:43:847,-0.4261,1.1247,12.1926,32.6654,0.1776,-0.635,-0.6893,184.4219
19:56:43:865,-1.1264,0.5249,11.5486,33.4922,0.2874,-0.6326,-0.6451,185.1562
19:56:43:882,-1.2521,-0.2807,11.8179,31.8986,0.0378,-0.3258,-0.5173,185.9375
19:56:43:902,-1.2162,-1.0026,12.9492,32.7515,-0.3417,0.0417,-0.3133,186.6719
19:56:43:922,-1.0055,-1.3198,14.0888,32.7827,-0.5446,0.2265,-0.0432,187.2969
19:56:43:945,0.0049,-1.2959,14.3881,32.7827,-0.4509,0.2031,0.2833,187.9375
19:56:43:962,0.9913,-1.1127,13.7368,32.1306,-0.1505,0.0963,0.5137,188
19:56:43:983,1.1781,-1.3665,11.9783,32.5255,0.2181,0.0111,0.5488,187.7031
19:56:44:003,0.8213,-1.5185,9.5338,33.9921,0.4775,-0.0188,0.5238,187.125
19:56:44:023,0.9446,-1.5892,7.9537,32.8223,0.4298,-0.0408,0.5589,186.4844
19:56:44:044,1.5575,-1.7723,7.8699,31.622,0.1095,-0.1767,0.5922,186.1875
19:56:44:063,1.7874,-2.1374,8.9473,30.7271,-0.314,-0.3248,0.5533,185.6094
19:56:44:087,1.1517,-2.5899,9.5578,33.2788,-0.5742,-0.3109,0.4878,184.9375
19:56:44:103,0.7052,-2.7431,9.1125,33.2384,-0.6016,-0.1745,0.5443,184.25
19:56:44:123,1.1541,-2.2464,8.2805,32.748,-0.5444,-0.0243,0.7291,183.6719
19:56:44:146,1.8508,-1.5149,7.5455,31.7498,-0.5726,0.1512,0.8631,183.1094
19:56:44:165,1.9215,-0.9726,7.2845,30.6757,-0.7151,0.3863,0.8466,182.375
19:56:44:182,1.6677,-0.6243,7.7573,31.2634,-0.7992,0.4228,0.7755,181.4688
19:56:44:202,1.3552,-0.5429,8.1919,33.0111,-0.6458,0.1866,0.7195,180.0781
19:56:44:222,1.0308,-0.489,8.3822,31.5047,-0.3595,-0.0941,0.7286,179.2344
19:56:44:245,1.1206,-0.4423,8.4157,32.2431,-0.0469,-0.3162,0.8303,178.4688
19:56:44:262,1.354,-0.3801,8.1895,31.239,0.2352,-0.5085,0.9251,177.6094
19:56:44:283,1.7503,-0.2005,8.1177,30.1561,0.3614,-0.5815,0.9763,176.625
19:56:44:302,2.2794,-0.0066,8.6468,30.9779,0.2663,-0.4869,0.9696,175.5156
19:56:44:323,2.6457,0.2963,9.9816,31.9975,0.0802,-0.3421,0.8916,174.4062
19:56:44:345,2.8612,0.349,10.7561,31.3745,0.0016,-0.1684,0.7536,173.25
19:56:44:363,2.6194,0.1478,10.4233,31.8772,0.0679,-0.0291,0.5688,172.1875
19:56:44:383,2.6445,-0.228,9.9959,31.5782,-0.0165,-0.3205,0.2982,171.3594
19:56:44:404,3.1293,-0.325,10.7417,32.0236,-0.224,-0.5788,0.0921,170.7031
19:56:44:424,3.352,-0.9691,12.3829,32.3583,-0.3721,-0.6198,-0.0975,170.2188
19:56:44:445,3.194,-1.8441,14.1858,31.6458,-0.3417,-0.3178,-0.1156,169.8594
19:56:44:464,3.5088,-2.5612,14.509,30.9346,-0.1318,0.0713,-0.0501,169.7031
19:56:44:483,3.7159,-2.487,12.7744,31.0425,0.0325,0.1733,-0.0347,169.875
19:56:44:502,3.7482,-2.0165,10.9332,30.6387,0.0754,-0.0819,-0.1362,169.9062
19:56:44:524,3.2658,-1.6095,10.4317,30.4122,0.0397,-0.3285,-0.2339,169.9375
19:56:44:546,2.8528,-1.4479,11.3055,31.688,0.1145,-0.231,-0.2496,169.9844
19:56:44:568,2.8349,-1.5221,11.2756,31.8756,0.3244,0.0622,-0.2419,170.1406
19:56:44:583,3.2072,-1.4467,9.2106,30.6312,0.3888,0.1363,-0.293,170.3594
19:56:44:602,3.7279,-1.4694,7.6268,32.3895,0.2216,-0.0715,-0.428,170.6094
19:56:44:623,4.202,-1.8154,7.6747,31.258,-0.0139,-0.2901,-0.619,170.8906
19:56:44:649,4.0703,-2.0955,8.9257,30.657,-0.1649,-0.2084,-0.8062,171.2188
19:56:44:664,2.9929,-2.2847,9.784,31.8677,-0.1111,0.1312,-0.8683,171.6719
19:56:44:684,1.6605,-2.2081,9.0418,32.2191,0.0453,0.459,-0.7596,172.3594
19:56:44:704,0.9722,-1.8286,7.1097,32.4832,0.1228,0.5243,-0.5806,173.2656
19:56:44:721,0.8596,-1.1965,5.6947,32.8015,0.0967,0.3733,-0.4256,174.2344
19:56:44:742,1.1218,-0.5932,5.1895,32.8075,0.0368,0.1309,-0.3537,175.1406
19:56:44:762,1.5348,-0.0126,5.4781,32.371,-0.0146,-0.0899,-0.3631,176.3438
19:56:44:782,1.8461,0.2652,6.2071,33.8124,-0.0618,-0.1817,-0.4432,176.5469
19:56:44:802,1.7191,0.4088,6.6967,33.2798,-0.1667,-0.1626,-0.5234,176.9531
