Time,Acc_X,Acc_Y,Acc_Z,Meg,Gyr_X,Gyr_Y,Gyr_Z,Ore
21:09:38:076,-1.422,1.0744,5.52,65.4314,0.6306,0.3341,-0.3884,73.5156
21:09:38:089,-2.2528,0.896,5.2566,65.1685,0.5505,0.3094,-0.2935,73.5156
21:09:38:111,-2.2301,1.2504,5.1345,65.6433,0.461,0.1546,-0.0754,73.5156
21:09:38:129,-1.4843,2.0201,5.1345,64.4935,0.3108,0.0889,0.0766,73.5156
21:09:38:148,-0.9528,2.6594,5.4386,64.0732,0.1031,0.05,0.0061,72.1875
21:09:38:166,-0.8139,2.9431,6.3866,63.3673,-0.0985,-0.1719,-0.2326,72.1875
21:09:38:186,-0.966,2.6821,7.5634,63.3792,-0.2136,-0.3386,-0.4869,72.1562
21:09:38:214,-1.5992,2.3613,8.2015,63.165,-0.2562,-0.3325,-0.6323,72.1719
21:09:38:233,-2.0673,1.9387,7.5778,62.5468,-0.3292,-0.3602,-0.607,72.4375
21:09:38:245,-3.2237,1.6682,8.2314,65.1172,-0.5968,-0.3631,-0.4187,72.9688
21:09:38:265,-2.989,1.9734,9.4907,64.9897,-0.7856,0.4327,-0.0949,73.6719
21:09:38:288,-2.6479,2.3409,10.7046,62.1119,-0.8203,0.8862,0.128,74.7344
21:09:38:306,-2.521,2.6283,11.9628,62.6122,-0.7358,0.7797,0.132,74.7344
21:09:38:325,-2.7951,2.481,13.3945,63.7482,-0.4794,0.3048,0.0447,74.6719
21:09:38:345,-2.9112,1.7783,14.0565,63.5703,-0.0887,-0.0736,-0.0262,74.3125
21:09:38:365,-2.843,1.3282,13.9799,64.347,0.2911,-0.0861,-0.0728,73.8281
21:09:38:385,-2.9005,1.1821,13.2963,63.992,0.5758,-0.0028,-0.1207,73.8125
21:09:38:407,-3.4811,1.0313,12.4009,63.4341,0.7332,-0.1953,-0.0794,73.9062
21:09:38:427,-3.7684,0.6889,11.5821,65.0872,0.8392,-0.5463,0.1454,74.0938
21:09:38:445,-3.4727,0.5106,10.8303,62.7301,0.9196,-0.5604,0.4548,74.3594
21:09:38:467,-3.0836,0.7703,9.8654,62.6726,0.9609,-0.1631,0.752,74.5156
21:09:38:489,-2.8897,1.1786,8.4708,62.7202,0.9201,0.2225,1.0026,74.4062
21:09:38:506,-2.8873,1.4503,7.3755,60.1592,0.7603,0.1142,1.1949,74.2188
21:09:38:525,-3.0537,1.716,6.9672,61.5353,0.5089,-0.3591,1.3299,73.5469
21:09:38:545,-2.9448,1.8717,7.3671,60.3981,0.2221,-0.7762,1.4183,72.5312
21:09:38:565,-2.2385,1.6658,8.1141,61.883,-0.0053,-0.9788,1.4463,71.3438
21:09:38:585,-1.6052,1.4635,8.7174,60.4973,-0.0618,-0.9628,1.4402,69.9531
21:09:38:605,-1.1826,1.2851,8.2601,60.4432,0.0176,-0.7881,1.4351,68.4844
21:09:38:625,-0.8427,1.3031,7.5227,58.6963,0.0836,-0.5676,1.4474,66.9844
21:09:38:645,-0.6655,1.5808,6.9254,58.8683,-0.0043,-0.2289,1.4567,64.7969
21:09:38:665,-0.5996,1.8034,6.7482,58.2077,-0.236,0.091,1.3997,63.2656
21:09:38:685,-0.4321,2.0764,7.0846,56.9903,-0.4538,0.2612,1.2737,61.6875
21:09:38:707,-0.1412,2.1817,7.3671,58.488,-0.5462,0.3506,1.0743,60.1094
21:09:38:725,-0.1998,2.3242,7.6795,57.165,-0.5196,0.2825,0.8482,58.5156
21:09:38:745,-0.2956,2.414,7.8363,56.9818,-0.4112,0.1253,0.6407,57.0625
21:09:38:765,-0.3219,2.3397,7.8531,58.3737,-0.3129,-0.0523,0.4247,55.9219
21:09:38:786,-0.5877,2.0979,7.8926,57.7551,-0.2988,-0.1077,0.2103,55
21:09:38:806,-0.954,1.8226,7.913,58.113,-0.3752,-0.0017,0.0692,54.3438
21:09:38:826,-1.3311,1.7173,8.0135,57.697,-0.4786,0.1799,0.0271,54
21:09:38:846,-1.1743,1.9698,7.8112,57.5966,-0.5875,0.3104,0.0732,53.8438
21:09:38:866,-0.6619,2.3816,7.8651,58.6005,-0.7105,0.1882,0.0532,53.75
21:09:38:890,-0.2333,2.481,8.624,58.2755,-0.8136,-0.206,-0.0736,53.625
21:09:38:908,0.0444,2.0752,10.2234,56.7517,-0.8437,-0.6353,-0.1995,53.4375
21:09:38:926,0.2922,1.2133,11.8562,56.3519,-0.7571,-0.8465,-0.2283,53.4219
21:09:38:946,0.4383,0.398,13.1084,58.2824,-0.5798,-0.7631,-0.0858,53.6406
21:09:38:965,1.1182,0.1203,13.2413,57.1794,-0.322,-0.5767,0.2,53.9219
21:09:38:985,2.1932,0.4447,12.6511,56.3202,-0.2261,-0.4968,0.3696,54.0312
21:09:39:006,2.6445,0.9128,12.7061,56.8363,-0.3867,-0.4909,0.2681,54
21:09:39:026,2.2112,0.9164,13.5058,55.5972,-0.6368,-0.3506,0.005,53.6875
21:09:39:046,1.1888,0.4807,14.0625,55.5234,-0.7033,0.0241,-0.1796,53.3125
21:09:39:078,0.5975,0.0341,13.1706,55.0807,-0.4938,0.4478,-0.1657,53.1719
21:09:39:086,0.7471,0.1203,11.3223,55.4271,-0.1649,0.5965,-0.0416,53.2812
21:09:39:109,1.2451,0.6255,9.5961,55.2811,0.0621,0.2894,-0.0155,53.4531
21:09:39:125,1.3876,1.1678,9.2202,55.3352,0.0783,-0.2539,-0.179,53.5312
21:09:39:145,1.2068,1.0864,9.9468,54.2598,-0.024,-0.5666,-0.4555,53.5
21:09:39:165,0.5795,0.4256,10.5346,53.4943,-0.102,-0.4094,-0.6619,53.5781
21:09:39:185,-0.4069,-0.0173,10.1635,54.8706,-0.1049,0.0598,-0.6704,54.2969
21:09:39:208,-1.118,0.0173,9.0358,54.7879,-0.0442,0.5048,-0.497,55.0625
21:09:39:227,-1.3179,0.3202,7.5275,55.1805,0.0091,0.7126,-0.2701,55.7969
21:09:39:250,-1.3885,0.647,6.5159,55.7941,0.0085,0.6673,-0.0656,56.3281
21:09:39:264,-1.2928,0.902,6.0778,56.5312,-0.0077,0.4931,0.1086,56.5
21:09:39:284,-1.0366,1.1797,6.0838,54.5899,-0.0418,0.2774,0.2375,56.6406
21:09:39:306,-0.7241,1.4467,6.4896,54.8992,-0.0977,0.1115,0.3073,56.5
21:09:39:325,-0.4979,1.4946,7.397,53.8279,-0.168,0.0478,0.3272,56.2031
21:09:39:351,-0.3913,1.552,8.4062,54.4531,-0.2155,0.1445,0.3427,55.8438
21:09:39:366,-0.1591,1.8537,8.9137,53.7207,-0.2368,0.2705,0.3579,55.4688
21:09:39:386,-0.0562,2.2404,9.5757,53.4452,-0.2645,0.2718,0.3046,55.0469
21:09:39:417,-0.2178,2.5049,10.5035,55.3625,-0.2703,0.2601,0.2037,54.8281
21:09:39:429,-0.6044,2.3948,11.2517,53.515,-0.2242,0.3131,0.1275,54.4062
21:09:39:444,-1.4556,2.0704,11.6383,55.4944,-0.1254,0.3725,0.18,54.0938
21:09:39:466,-2.1642,1.801,11.8418,54.4931,0.0911,0.3006,0.4431,53.8906
21:09:39:485,-1.7991,1.5341,11.5162,56.7681,0.4352,0.0572,0.8077,53.5781
21:09:39:507,-1.0701,1.6526,10.9177,53.6299,0.7697,-0.2638,1.1275,53.0781
21:09:39:527,1.2595,2.1398,10.027,52.1769,0.9638,-0.8166,1.2945,52.1875
21:09:39:554,2.0352,2.2236,10.4951,54.4074,0.7691,-0.9122,1.1051,49.6562
21:09:39:565,2.4602,2.1602,11.4097,53.5189,0.4373,-0.7389,0.8277,49.6562
21:09:39:592,2.271,1.8501,12.5541,54.1352,0.086,-0.4012,0.5331,47.1719
21:09:39:626,1.36,1.2216,13.5812,53.5602,-0.1409,-0.1498,0.3089,47.1719
21:09:39:627,-0.0861,0.6051,14.4551,53.1636,-0.0645,-0.0092,0.2979,46.3594
21:09:39:649,-0.547,-0.003,13.8769,53.1378,0.4128,0.1136,0.487,45.7969
21:09:39:666,-0.3195,-0.4459,11.017,55.0547,0.894,0.2702,0.6767,45.4531
21:09:39:685,-0.1711,-0.1969,7.9572,53.6425,0.942,0.303,0.8436,45.1094
21:09:39:711,-0.0035,0.6375,6.5878,53.9237,0.5859,0.0308,0.9685,44.5781
21:09:39:726,0.6741,1.2516,7.4233,53.7114,0.1324,-0.4214,0.9957,42.8594
21:09:39:745,1.3576,1.163,8.9556,54.7145,-0.1001,-0.7253,0.8727,42.375
21:09:39:764,1.3109,0.9619,9.863,52.776,-0.0916,-0.6776,0.6902,41.2656
21:09:39:787,1.0188,0.7464,9.5219,53.7635,0.0123,-0.3269,0.5717,40.2656
21:09:39:807,0.7866,0.762,8.3487,53.5335,0.0551,0.0755,0.524,39.4688
21:09:39:825,0.8141,0.9691,7.2629,54.0259,0.0146,0.3421,0.486,39.1719
21:09:39:846,0.8596,1.2013,6.5722,51.8459,-0.0525,0.4963,0.4069,38.5625
21:09:39:864,0.941,1.3557,6.316,53.9022,-0.0943,0.5791,0.2915,37.9531
21:09:39:884,0.309,1.4467,5.8815,54.5086,-0.0911,0.6012,0.1861,37.3438
21:09:39:906,0.0217,1.5101,5.3871,54.6036,-0.0983,0.507,0.1898,36.8438
21:09:39:925,-0.1435,1.6275,5.1919,54.6036,-0.1523,0.2497,0.2183,36.4375
21:09:39:945,-0.1759,1.9507,5.3799,53.4826,-0.2445,-0.1143,0.283,36.1406
21:09:39:965,0.0193,2.493,6.5052,53.1034,-0.3334,-0.5138,0.3467,35.8594
21:09:40:066,0.2503,2.8832,7.9752,51.9299,-0.3427,-0.7927,0.3496,35.5781
21:09:40:067,0.6849,3.0412,9.4656,53.2068,-0.3071,-0.8401,0.3041,35.0781
21:09:40:067,0.9973,3.0915,10.634,51.9168,-0.2767,-0.607,0.196,34.7656
21:09:40:067,1.0607,3.2388,11.3427,51.8157,-0.3156,-0.2499,0.0527,34.4844
21:09:40:075,0.856,3.1921,12.1782,50.7939,-0.3894,-0.0166,-0.0933,34.2812
21:09:40:084,0.5879,2.5911,13.1084,51.5113,-0.396,0.1253,-0.207,34.1875
21:09:40:104,0.4155,1.5844,13.5369,52.4779,-0.3065,0.3682,-0.2099,34.2344
21:09:40:124,1.0236,0.5728,12.942,50.8301,-0.1926,0.6199,-0.0949,34.4062
21:09:40:144,1.9298,0.1419,11.8227,52.1285,-0.1153,0.6502,0.001,34.6406
21:09:40:164,2.6709,0.1706,10.7285,49.7769,-0.1595,0.3544,-0.0672,34.75
21:09:40:184,2.6026,0.1119,10.8734,51.6837,-0.3529,-0.1932,-0.317,34.7344
21:09:40:210,1.8664,-0.6363,12.6954,51.6063,-0.5369,-0.5674,-0.5964,34.6875
21:09:40:226,0.7184,-1.6885,14.5162,51.8169,-0.4919,-0.296,-0.6797,34.875
21:09:40:245,0.3126,-2.2092,13.8542,49.556,-0.1505,0.4345,-0.4754,35.4375
21:09:40:265,1.0164,-1.7819,10.4843,50.077,0.1806,0.8542,-0.1891,35.8281
21:09:40:286,2.0124,-0.9296,7.7573,51.1754,0.2019,0.467,-0.0374,36.8906
21:09:40:310,2.4518,-0.0377,7.5706,51.3902,-0.0402,-0.3178,-0.0872,37.2188
21:09:40:325,2.4446,0.3956,9.3626,51.7618,-0.2455,-0.7785,-0.2536,37.2656
21:09:40:344,2.2902,0.1873,10.3826,50.5414,-0.2149,-0.5711,-0.4523,37.3125
21:09:40:364,1.773,0.3202,9.1747,50.2324,-0.0943,-0.0001,-0.5857,37.5312
21:09:40:384,1.2164,0.8003,7.1755,49.2996,-0.0985,0.4335,-0.6387,37.9844
21:09:40:407,1.0177,1.2767,6.2358,49.2772,-0.1973,0.511,-0.6576,38.6094
21:09:40:426,0.8584,1.5317,6.3376,48.8717,-0.237,0.3733,-0.6906,39.2656
21:09:40:451,0.6645,1.6263,6.5806,49.5045,-0.1569,0.2207,-0.7026,39.9688
21:09:40:464,0.5675,1.6538,6.4393,51.0827,-0.0461,0.1275,-0.6818,40.7031
21:09:40:484,0.4814,1.9998,6.2131,50.4712,-0.0346,0.0566,-0.6584,41.4375
21:09:40:507,0.5352,2.232,6.4178,48.9907,-0.139,-0.0616,-0.693,42.2344
21:09:40:524,0.5101,2.2931,7.4736,48.8625,-0.2863,-0.1791,-0.7684,42.9844
21:09:40:544,0.5448,2.2033,8.8778,49.8447,-0.3976,-0.2022,-0.8539,44.1094
21:09:40:565,0.2898,2.1757,10.1168,48.6302,-0.4535,-0.0763,-0.9447,44.9844
21:09:40:584,-0.1052,2.0608,11.1643,48.2523,-0.4685,0.1522,-0.9926,45.9531
21:09:40:606,-0.6404,1.8789,12.1232,47.8486,-0.4024,0.4686,-0.9655,47.0312
21:09:40:625,-1.0462,1.6658,12.3123,47.7483,-0.2075,0.8013,-0.8454,48.0938
21:09:40:644,-1.27,1.588,11.6515,49.0193,0.0344,0.9658,-0.6728,49.1562
21:09:40:664,-1.4735,1.6215,10.8135,48.9851,0.2123,0.8883,-0.4845,50.0938
21:09:40:684,-1.5214,1.4754,10.3479,46.4357,0.285,0.5618,-0.2925,50.7969
21:09:40:704,-1.2724,1.2193,10.604,47.1697,0.228,0.1584,-0.1151,51.3438
21:09:40:726,-0.7397,0.9727,11.4959,46.3925,0.078,-0.109,-0.0056,51.6719
21:09:40:744,-0.4632,0.823,12.8223,46.3925,-0.1398,-0.1583,0.0034,51.8125
21:09:40:764,-0.6008,0.6004,14.4312,44.5943,-0.3324,-0.0827,-0.0179,51.8281
21:09:40:785,-1.1228,0.0461,16.1263,45.2348,-0.3129,-0.0094,0.0242,51.8281
21:09:40:809,-1.3801,-0.8697,16.8194,46.732,0.0991,0.1216,0.2039,51.8281
21:09:40:825,-0.9803,-1.5101,14.3917,46.1884,0.6985,0.4044,0.4503,51.8125
21:09:40:844,-0.4021,-1.3126,10.6376,47.1306,0.9912,0.4926,0.6569,51.6875
21:09:40:864,-0.037,-0.7201,8.4588,46.3631,0.8408,0.213,0.7294,51.0781
21:09:40:884,0.0013,-0.1095,8.818,45.7023,0.4653,-0.0933,0.6969,50.4219
21:09:40:911,0.2623,-0.337,10.057,45.7897,0.2575,-0.1114,0.6154,49.6562
21:09:40:928,0.1785,-0.3442,8.2458,45.1371,0.4125,0.2803,0.5254,48.9062
21:09:40:946,0.1869,-0.0066,6.6704,46.7008,0.3742,0.312,0.5081,48.2656
21:09:40:964,0.0456,0.2568,5.8958,45.4902,0.2474,0.1999,0.4551,47.6719
21:09:40:984,-0.1974,0.24,5.7989,45.9088,0.1182,0.0979,0.4343,47.0781
21:09:41:010,-0.3315,0.2388,5.8671,46.3995,0.0495,0.0353,0.4876,46.0312
21:09:41:026,-0.365,0.3837,6.067,45.7906,0.0445,-0.0691,0.5797,46.0312
21:09:41:047,-0.1651,0.6961,6.2693,44.3586,0.0868,-0.2009,0.6593,45.5312
21:09:41:072,0.224,0.9523,6.3615,45.159,0.1465,-0.3519,0.662,44.9688
21:09:41:083,0.5496,1.2336,6.4058,43.6323,0.1462,-0.468,0.5784,44.3438
21:09:41:104,0.7399,1.4491,6.7254,44.1008,0.0394,-0.4765,0.4282,42.5938
21:09:41:124,0.6669,1.5628,7.4593,44.2224,-0.1252,-0.4121,0.2553,42.3125
21:09:41:149,0.552,1.6083,8.6492,44.7303,-0.2211,-0.3354,0.1366,42.0938
21:09:41:163,0.6442,1.5377,9.5027,42.1513,-0.187,-0.2475,0.0564,41.75
21:09:41:184,0.8285,1.6023,9.8092,43.3001,-0.1116,-0.2483,-0.0283,41.5625
21:09:41:205,0.874,1.5341,10.1827,44.2239,-0.1292,-0.2968,-0.1548,41.4688
21:09:41:227,0.6454,1.2719,10.9129,42.6146,-0.2591,-0.2313,-0.2837,41.4688
21:09:41:245,0.303,0.8637,11.7066,41.8343,-0.4205,-0.0198,-0.3793,41.5156
21:09:41:263,0.2168,0.3621,12.2884,44.4341,-0.5313,0.2074,-0.3817,41.8594
21:09:41:283,0.2922,-0.0748,12.6427,43.6447,-0.5435,0.2335,-0.326,42.0156
21:09:41:304,0.3916,-0.4064,12.8989,43.7728,-0.4431,0.1003,-0.2413,42.4375
21:09:41:325,0.8477,-0.744,12.6762,45.3444,-0.3012,-0.0667,-0.1998,42.8281
21:09:41:344,0.8369,-0.7871,12.3698,43.5963,-0.2296,-0.1775,-0.2219,43.1406
21:09:41:363,0.6106,-0.7368,12.4895,43.7734,-0.2341,-0.1785,-0.2347,43.375
21:09:41:384,0.6825,-0.732,12.511,43.3961,-0.1758,0.0204,-0.1979,43.5938
21:09:41:410,1.3157,-0.4806,11.2984,44.6784,-0.021,0.2295,-0.1471,43.8438
21:09:41:428,2.1824,-0.0174,9.6104,43.526,0.0828,0.1251,-0.2006,44.2031
21:09:41:445,2.5871,0.4364,8.6468,44.7729,0.0338,-0.2467,-0.4137,44.3906
21:09:41:466,2.1705,0.5405,8.952,45.4745,-0.1483,-0.5386,-0.7266,44.5625
21:09:41:483,1.3098,0.088,9.6906,45.3173,-0.2804,-0.4598,-0.97,44.875
21:09:41:505,0.3114,-0.2735,9.4943,45.7252,-0.2751,-0.0712,-1.0262,45.5469
21:09:41:525,-0.2537,-0.094,8.4564,45.1718,-0.2136,0.3488,-0.9039,46.5625
21:09:41:544,-0.4105,0.4375,7.1947,46.4329,-0.1476,0.5179,-0.7229,47.6719
21:09:41:569,-0.207,0.8517,6.4034,46.3506,-0.0722,0.3671,-0.5862,48.7812
21:09:41:583,-0.14,1.1295,6.0203,46.0803,0.0133,0.1096,-0.522,49.6719
21:09:41:605,-0.11,1.4299,5.8947,45.9468,0.0429,-0.0811,-0.4805,50.3906
21:09:41:629,0.0564,1.6406,6.1197,46.232,0.0029,-0.1642,-0.4781,50.9688
21:09:41:646,0.1581,1.8238,6.6787,46.5598,-0.0783,-0.1721,-0.5237,51.5469
21:09:41:665,0.2108,1.8633,7.5227,46.3998,-0.1523,-0.1229,-0.5956,52.0938
21:09:41:686,0.1809,1.8046,8.2829,46.5806,-0.1856,-0.0347,-0.6747,52.6406
21:09:41:710,-0.1364,1.722,8.8682,46.7467,-0.2125,0.0398,-0.7444,53.625
21:09:41:727,-0.4955,1.5461,9.5159,46.7203,-0.2642,0.1059,-0.7668,53.9844
21:09:41:744,-0.9061,1.3605,10.4017,46.5495,-0.2969,0.2249,-0.7298,54.7656
21:09:41:764,-1.0019,1.1223,11.0326,48.2995,-0.2613,0.3565,-0.6448,55.6094
21:09:41:785,-1.1204,0.9128,11.1691,47.4925,-0.1989,0.4335,-0.5359,56.4531
21:09:41:811,-1.2305,0.8517,11.3331,46.8505,-0.1782,0.3866,-0.3929,57.2188
21:09:41:828,-1.191,0.6638,11.8406,49.4687,-0.1649,0.2308,-0.2499,57.8438
21:09:41:847,-0.8367,0.3789,12.4763,47.6328,-0.1513,0.0478,-0.0989,58.3594
21:09:41:863,-0.4955,0.3274,13.1862,48.7821,-0.1462,-0.0885,0.0346,58.7031
21:09:41:885,-0.1878,0.5429,13.7883,48.2078,-0.1577,-0.1306,0.1347,58.8906
21:09:41:911,0.0743,0.7584,14.2815,48.48,-0.1806,-0.1399,0.1525,58.9062
21:09:41:933,-0.2932,0.3454,14.7316,49.7592,-0.1529,-0.1708,0.0745,58.7812
21:09:41:947,-1.5765,-0.4208,15.0477,50.3551,0.0405,-0.1626,0.1259,58.5938
21:09:41:969,-1.9967,-1.0205,14.1846,48.062,0.416,-0.0608,0.4178,58.4531
21:09:41:984,-1.4029,-1.1821,11.7545,47.8302,0.7217,-0.0076,0.7549,58.2812
21:09:42:004,-0.7301,-0.7907,9.8092,47.8302,0.7683,-0.2701,0.9587,57.8594
21:09:42:028,-0.2872,-0.4375,9.6356,48.9023,0.6778,-0.729,1.0117,57.0625
21:09:42:045,-0.2716,-0.2484,10.3,47.6064,0.6503,-0.9647,0.996,56.0156
21:09:42:133,0.0504,-0.5333,10.3096,47.1924,0.7071,-0.8923,0.9925,54.9219
21:09:42:133,0.0815,-0.58,9.4979,47.5535,0.7883,-0.6449,1.0045,53.9219
21:09:42:134,0.1809,-0.3071,8.1584,47.8905,0.7952,-0.3583,1.0303,52.8594
21:09:42:134,0.4347,-0.0976,7.0858,47.3018,0.7073,-0.1615,1.0202,51.7656
21:09:42:144,0.5544,-0.0162,6.3292,47.5851,0.6266,-0.0441,0.9747,50.7031
21:09:42:163,0.5328,0.0616,5.5152,45.5435,0.5811,-0.0422,0.9336,49.5625
21:09:42:183,0.455,0.24,4.9992,46.6953,0.5092,-0.153,0.9179,49
21:09:42:203,0.5783,0.4519,4.9346,46.9881,0.4131,-0.2923,0.9075,47.9375
21:09:42:223,0.8369,0.6818,5.15,47.5458,0.3217,-0.4105,0.87,46.9531
21:09:42:243,1.044,1.0026,5.4972,46.9274,0.2216,-0.48,0.7904,45.9375
21:09:42:264,1.2271,1.4,5.8539,47.2983,0.1087,-0.4949,0.6783,44.9531
21:09:42:285,1.2774,1.6981,6.4501,47.2506,-0.0197,-0.5066,0.531,43.6719
21:09:42:312,1.1721,1.8418,7.2845,47.274,-0.1465,-0.4686,0.373,42.9531
21:09:42:327,0.9386,1.6634,8.703,47.6442,-0.3641,-0.1072,0.1483,42.4062
21:09:42:344,1.0117,1.4898,9.0753,47.179,-0.4812,0.0034,0.0583,42.4062
21:09:42:364,1.1122,1.2037,9.9803,48.3453,-0.6631,-0.1333,-0.0331,41.8125
21:09:42:384,0.8955,0.7931,12.2046,46.7261,-0.8261,-0.3215,-0.0898,41.6719
21:09:42:403,1.1517,-0.2616,14.4575,48.1242,-0.759,-0.182,-0.0304,41.6094
21:09:42:425,1.8436,-1.3581,14.2217,47.1161,-0.466,0.2572,0.1166,41.6875
21:09:42:443,2.2064,-1.2468,11.7102,48.2789,-0.2754,0.6066,0.295,41.8438
21:09:42:463,2.9211,-0.7727,9.6942,47.7237,-0.3212,0.3738,0.3587,41.9062
21:09:42:483,3.4011,-0.5812,9.444,48.1976,-0.551,-0.309,0.2034,41.7812
21:09:42:504,3.2215,-0.7464,11.5545,49.5356,-0.8866,-0.9333,-0.0222,41.4062
21:09:42:529,2.6804,-1.1773,14.7855,47.9726,-1.061,-0.8446,-0.113,40.9844
21:09:42:546,2.5703,-1.2635,15.9587,47.2793,-0.8133,-0.0843,-0.0003,40.7969
21:09:42:568,3.6166,-0.4974,13.3957,48.4424,-0.3132,0.6063,0.1331,40.9844
21:09:42:582,4.3947,0.4196,9.6559,48.1104,0.0868,0.5213,0.063,41.1406
21:09:42:603,4.5527,0.9475,7.4724,47.5767,0.1305,-0.0177,-0.121,41.0625
21:09:42:623,4.1134,1.1678,7.6412,50.4893,-0.0938,-0.4861,-0.3721,40.9062
21:09:42:648,3.1904,0.8458,9.0694,47.2459,-0.277,-0.603,-0.6118,40.9219
21:09:42:664,2.0639,0.4627,9.8403,46.7035,-0.2216,-0.5002,-0.7276,41.1875
21:09:42:682,1.4366,0.4088,9.4285,47.3725,0.0112,-0.3761,-0.6986,41.4375
21:09:42:703,1.0368,0.5273,8.162,49.0097,0.2202,-0.268,-0.6139,42.1719
21:09:42:723,1.1326,0.75,6.8535,49.0402,0.2815,-0.1908,-0.522,43.0156
21:09:42:743,1.4534,1.0732,6.2346,47.4681,0.1979,-0.1066,-0.4922,43.7812
21:09:42:763,1.8341,1.3629,6.2538,49.2308,0.069,0.0087,-0.5431,44.4844
21:09:42:783,1.7982,1.4551,6.4681,49.1654,-0.0392,0.0867,-0.6816,45.0625
21:09:42:804,1.4271,1.2612,6.9433,48.0671,-0.1129,0.1181,-0.8126,45.625
21:09:42:824,1.0655,0.9008,7.4593,49.7485,-0.1617,0.1235,-0.8517,46.2031
21:09:42:843,0.7172,0.6399,8.0746,50.1237,-0.1981,0.1413,-0.8019,47.4375
21:09:42:862,0.4897,0.4699,8.6623,50.6124,-0.2242,0.1874,-0.6776,48.4062
21:09:42:882,0.4514,0.5142,9.4572,50.7689,-0.2314,0.2524,-0.5047,49.3281
21:09:42:903,0.7016,0.6686,10.0953,50.273,-0.1718,0.3701,-0.3428,50.1875
21:09:42:925,1.038,0.7715,10.1024,51.6768,-0.0828,0.4534,-0.2587,50.875
21:09:42:942,1.2822,0.8446,9.9157,52.006,-0.0921,0.4476,-0.2368,51.3281
21:09:42:963,1.3241,0.8242,10.3586,50.2134,-0.2344,0.3429,-0.236,51.6562
21:09:42:983,1.2224,0.5537,11.715,50.814,-0.3965,0.2068,-0.2155,51.9375
21:09:43:003,1.4606,0.1347,13.4412,51.5469,-0.4746,0.1709,-0.1167,52.1875
21:09:43:024,2.3608,-0.0018,14.4336,52.6401,-0.4549,0.2454,0.009,52.4531
21:09:43:044,2.5739,0.4842,14.898,49.768,-0.4298,0.2172,0.0575,52.6562
21:09:43:063,2.3057,0.8709,16.0484,52.7257,-0.3721,0.1501,0.0862,52.7344
21:09:43:083,2.2519,0.5106,17.0528,51.3092,-0.0256,0.2761,0.1227,52.6875
21:09:43:104,2.344,-0.0748,15.1698,49.7483,0.583,0.6335,0.1832,52.625
21:09:43:125,2.3608,-0.0257,11.2445,51.6,0.9907,0.9144,0.2292,52.4375
21:09:43:144,2.4242,0.2484,8.3667,52.9506,0.9785,0.7842,0.1674,52.2344
21:09:43:163,2.2231,0.3322,7.658,50.0181,0.7348,0.2572,0.0111,51.9531
21:09:43:185,1.943,0.0605,8.7976,50.645,0.5089,-0.3397,-0.1772,51.8438
21:09:43:208,1.9155,-0.6997,10.0857,51.1459,0.4208,-0.6664,-0.3516,51.7344
21:09:43:226,1.354,-1.2504,10.8459,49.213,0.3779,-0.6145,-0.4725,51.8438
21:09:43:244,0.3545,-1.3976,10.9416,51.3542,0.371,-0.3255,-0.46,52.1875
21:09:43:266,-0.3638,-1.3653,10.2748,52.149,0.4471,-0.0422,-0.3141,52.6875
21:09:43:283,-0.4117,-1.3569,8.9556,50.6688,0.5699,0.1376,-0.1077,53.2344
21:09:43:303,-0.2752,-1.1965,7.2665,51.6645,0.6408,0.2188,0.1011,53.7031
21:09:43:327,-0.2022,-0.7991,5.9533,49.7487,0.6059,0.1637,0.3011,53.9375
21:09:43:345,0.054,-0.3346,5.2566,49.9236,0.4943,0.0249,0.4713,53.9375
21:09:43:363,0.4047,0.1682,5.1979,50.041,0.3747,-0.1575,0.6103,53.6875
21:09:43:382,1.05,0.6087,5.5858,50.1126,0.3089,-0.3548,0.6812,53.2344
21:09:43:402,1.6677,1.0732,6.1233,49.6608,0.2748,-0.4933,0.6082,52.2969
21:09:43:428,2.0292,1.3198,6.5147,50.3045,0.2389,-0.4672,0.4114,51.5312
21:09:43:452,1.8939,1.2767,6.7039,50.175,0.1659,-0.2544,0.1651,50.875
21:09:43:462,1.4462,1.2372,6.48,50.7899,0.049,0.0697,-0.0208,50.4688
21:09:43:489,1.0057,1.2085,6.2442,50.0522,-0.094,0.2992,-0.1268,50.2969
21:09:43:502,0.5843,1.3126,6.3495,48.9851,-0.2333,0.3498,-0.1649,50.3125
21:09:43:524,0.3999,1.315,7.1037,48.9692,-0.3156,0.181,-0.1628,50.4375
21:09:43:544,0.4646,1.2037,7.8543,49.5614,-0.3507,-0.1386,-0.1516,50.5938
21:09:43:567,0.388,0.9631,9.4249,49.4314,-0.5002,-0.4614,-0.1189,50.7656
21:09:43:585,0.5316,0.6447,11.9376,50.7899,-0.6765,-0.5197,-0.0456,50.9531
21:09:43:608,1.3205,-0.1059,14.0122,49.7146,-0.6943,-0.207,0.0338,51.125
21:09:43:625,2.4566,-0.9762,13.9152,50.8616,-0.6237,0.2271,0.0998,51.2344
21:09:43:644,3.1509,-1.1378,12.9492,49.4348,-0.685,0.3845,0.1339,51.25
21:09:43:669,3.4118,-0.896,13.3933,49.7115,-0.9015,0.2484,0.0921,51.1719
21:09:43:683,3.3077,-1.3114,15.3673,47.2663,-1.0133,0.1988,-0.0051,51.0469
21:09:43:704,2.6325,-1.8334,16.2615,48.9511,-0.7976,0.52,0.0196,50.8594
21:09:43:725,3.8596,-1.4563,11.5114,48.8139,0.1073,0.7501,0.3725,50.875
21:09:43:746,4.931,-0.8314,9.1101,48.3559,0.3246,0.2052,0.3033,50.8594
21:09:43:763,4.9884,0.0892,7.9369,47.5517,0.277,-0.3458,0.0175,50.5938
21:09:43:786,4.4952,0.5333,7.7214,50.0014,0.0759,-0.5066,-0.3932,49.8281
21:09:43:811,3.4334,0.3705,7.6364,48.1886,-0.102,-0.3253,-0.7889,49.8281
21:09:43:829,2.174,0.1622,7.1097,48.5081,-0.1952,-0.0014,-1.0217,49.8281
21:09:43:847,1.0811,0.1574,6.3591,49.7473,-0.2442,0.2388,-1.0629,50.2812
21:09:43:862,0.4167,0.3226,5.7941,50.282,-0.2498,0.2638,-0.9687,51.1875
21:09:43:882,0.1462,0.6327,5.6971,49.7473,-0.2112,0.0889,-0.8243,52.2969
21:09:43:903,0.224,0.8996,5.8731,48.724,-0.1595,-0.105,-0.6991,53.5156
21:09:43:929,0.4622,1.2169,6.2286,49.8688,-0.1483,-0.2435,-0.6086,54.625
21:09:43:946,0.8393,1.5533,6.7386,48.4088,-0.2016,-0.3455,-0.5908,55.5156
21:09:43:965,1.1242,1.7639,7.9393,48.579,-0.3193,-0.406,-0.6576,56.3125
21:09:43:982,1.1745,1.6406,9.4584,49.815,-0.4227,-0.3106,-0.754,57.3438
21:09:44:002,0.8967,1.4886,10.7417,48.4964,-0.4759,-0.0741,-0.8233,58.0312
21:09:44:026,0.6501,1.4335,11.7569,49.5278,-0.4698,0.2819,-0.8166,58.8438
21:09:44:046,0.5149,1.4299,12.1255,48.2038,-0.3635,0.6534,-0.77,60.2344
21:09:44:069,0.2108,1.3018,11.6503,48.5684,-0.2112,0.8519,-0.7162,60.2344
21:09:44:082,-0.353,1.1127,11.0661,49.5276,-0.1329,0.8463,-0.6094,61.125
21:09:44:103,-0.6918,0.835,11.187,49.5276,-0.1361,0.6574,-0.4227,62.0156
21:09:44:127,-0.7433,0.3394,11.9915,48.2337,-0.1167,0.3837,-0.2078,63.5312
21:09:44:146,-0.4572,-0.2424,12.7349,47.5239,-0.0844,0.2058,0.0327,64.0312
21:09:44:237,-0.1124,-0.2927,13.2472,47.2686,-0.1063,0.2023,0.3155,64.2656
21:09:44:238,0.5197,0.0784,13.7871,47.1718,-0.1491,0.1722,0.5379,64.2812
21:09:44:239,0.8453,0.0317,14.8669,47.8207,-0.0959,-0.019,0.5872,64.0938
21:09:44:239,0.1928,-0.4244,15.6319,48.0949,0.1742,-0.1591,0.6221,63.5938
21:09:44:254,-0.128,-1.0732,14.7999,45.5758,0.6088,-0.0891,0.793,62.9219
21:09:44:261,0.4119,-1.4958,12.2297,46.5123,0.9508,0.0795,0.9965,62.2812
21:09:44:284,1.117,-1.3306,9.5961,46.0364,1.0392,0.0018,1.0833,61.5
21:09:44:302,1.4067,-0.817,8.3906,45.7046,0.8951,-0.3623,1.0237,60.4844
21:09:44:323,1.3301,-0.3166,8.9413,45.8222,0.6828,-0.7034,0.8868,59.3125
21:09:44:343,1.2595,-0.5142,9.9971,44.3288,0.6189,-0.8052,0.715,58.1875
21:09:44:362,0.868,-0.647,9.9349,45.2964,0.7025,-0.6286,0.6048,57.125
21:09:44:383,0.9063,-0.6123,8.7952,46.2166,0.7697,-0.3389,0.6154,56.2344
21:09:44:402,1.2978,-0.2735,7.7729,43.8544,0.7372,-0.1242,0.6434,55.5625
21:09:44:425,1.8855,0.0401,7.2438,44.5294,0.6538,0.0169,0.5997,55.2344
21:09:44:444,2.1417,0.2472,6.8703,44.4181,0.5835,0.1647,0.4764,54.5625
21:09:44:463,2.1118,0.3346,6.4309,44.98,0.5148,0.2793,0.3081,53.5
21:09:44:481,1.682,0.4016,6.2191,45.6363,0.4282,0.3328,0.1272,52.875
21:09:44:501,1.0979,0.1873,6.1281,43.6692,0.3409,0.3549,-0.0134,52.4062
21:09:44:525,0.5771,-0.0186,6.0299,45.3254,0.2397,0.3429,-0.052,52.1406
21:09:44:547,0.1857,-0.0389,6.2179,44.0973,0.1326,0.2084,0.0047,52.0625
21:09:44:562,-0.0574,0.1562,6.9768,45.0517,0.089,-0.0749,0.1211,52.0938
21:09:44:582,0.1881,0.4292,7.9644,45.2348,0.151,-0.3335,0.2213,52.1094
21:09:44:601,0.5376,0.4998,8.126,43.1847,0.2234,-0.3652,0.2218,52.0312
21:09:44:622,0.6489,0.5106,7.9513,43.3935,0.1438,-0.251,0.1802,51.8594
21:09:44:641,0.7459,0.5142,8.1201,43.5441,-0.078,-0.1655,0.1422,51.625
21:09:44:662,0.7854,0.3645,8.8682,42.872,-0.3475,-0.1969,0.087,51.4375
21:09:44:682,0.6633,0.1155,10.3598,43.396,-0.588,-0.251,0.0567,51.2656
21:09:44:702,1.3564,-0.7955,11.9999,44.5252,-0.6772,-0.1743,0.1086,51.1562
21:09:44:728,2.35,-1.9124,12.2333,42.6522,-0.6487,0.0452,0.1834,51.0938
21:09:44:744,2.7247,-2.0895,11.4707,43.5252,-0.6325,0.1703,0.3488,50.9688
21:09:44:763,3.7267,-1.3581,10.519,42.7615,-0.6591,-0.0318,0.5528,50.7656
21:09:44:782,4.9956,-0.4543,10.5442,43.0136,-0.7593,-0.6121,0.5115,50.3594
21:09:44:801,5.3655,0.1993,12.2357,43.4081,-0.8741,-1.1844,0.1938,49.7656
21:09:44:822,4.9513,0.2173,14.26,42.6012,-0.8746,-1.1738,-0.15,49.2031
21:09:44:842,4.8376,-0.0449,14.4443,44.8603,-0.6788,-0.5809,-0.3713,49.0469
21:09:44:866,4.6916,0.0676,12.4775,43.1837,-0.436,-0.0411,-0.5447,49.2812
21:09:44:882,4.1912,0.6351,10.4329,43.4239,-0.2999,0.0891,-0.7213,49.75
21:09:44:902,3.6848,1.1055,9.3243,42.6497,-0.2589,-0.0134,-0.9498,50.3906
21:09:44:923,3.0096,1.1642,8.7761,43.2618,-0.2431,-0.0302,-1.2182,50.7812
21:09:44:941,2.1178,0.9451,8.4277,41.1374,-0.224,0.1096,-1.4267,51.6875
21:09:44:962,1.1769,0.7907,7.8998,42.3266,-0.1872,0.3466,-1.5332,52.9531
21:09:44:982,0.4179,0.7261,7.2869,45.2927,-0.13,0.557,-1.5426,54.4844
21:09:45:002,0.0169,0.6794,6.5183,45.5903,-0.0597,0.6572,-1.4981,56.1094
21:09:45:022,-0.2932,0.7452,5.9856,44.1024,-0.028,0.622,-1.4411,57.8906
21:09:45:042,-0.4751,0.8362,5.9006,45.688,-0.0591,0.5022,-1.3828,60.4844
21:09:45:062,-0.6056,0.9894,6.4764,44.9788,-0.1385,0.3522,-1.3263,62.0469
21:09:45:082,-0.5996,0.9882,7.561,47.1357,-0.1936,0.2502,-1.2739,63.6406
21:09:45:101,-0.6379,0.9607,8.7378,44.9552,-0.1939,0.2569,-1.2179,65.1562
21:09:45:123,-1.2736,0.5656,10.1013,46.1434,-0.1569,0.5586,-0.9996,66.5312
21:09:45:143,-1.5944,0.313,10.4388,45.5745,-0.1587,0.7616,-0.7649,66.5312
21:09:45:162,-1.7477,0.0485,10.6232,46.1076,-0.1286,0.9067,-0.4336,67.9375
21:09:45:183,-1.7261,-0.003,10.3419,46.8668,-0.0722,0.8881,-0.0437,70.3906
21:09:45:201,-1.3969,0.1574,10.3275,45.5275,-0.0652,0.6228,0.3589,70.3906
21:09:45:222,-0.8247,0.1897,11.2301,45.4059,-0.0439,0.148,0.7155,71.2188
21:09:45:246,0.0181,0.0305,12.4536,46.9118,0.045,-0.3008,0.9992,71.7188
21:09:45:262,0.8393,0.2544,13.3681,45.4578,0.1081,-0.4544,1.1624,71.3906
21:09:45:282,1.6413,0.7572,13.7632,44.8423,0.1182,-0.3719,1.1456,70.5625
21:09:45:301,1.8891,1.1833,13.9763,45.8246,0.0708,-0.3064,0.9262,69.4219
21:09:45:322,0.959,1.0217,14.8346,46.4466,0.0642,-0.2853,0.6577,68.0938
21:09:45:345,0.1378,0.2783,14.9531,44.983,0.2799,-0.0986,0.5597,66.8438
21:09:45:362,-0.055,-0.3741,13.0437,45.0924,0.5297,0.1134,0.5789,65.7969
21:09:45:381,-0.2788,-0.2819,11.3438,45.4357,0.5646,-0.0347,0.6442,65.0312
21:09:45:401,-0.1986,-0.2508,11.7509,44.0633,0.4788,-0.4686,0.683,64.4375
21:09:45:422,-0.1567,-0.7105,12.8845,42.4278,0.5129,-0.6741,0.6862,63.7812
21:09:45:444,-0.4548,-1.1079,12.7983,44.5957,0.7364,-0.5556,0.7621,63.0625
21:09:45:462,-0.4608,-1.254,10.9273,43.5378,0.9976,-0.2566,0.9331,62.3438
21:09:45:481,-0.1914,-1.157,8.5642,45.3311,1.1313,-0.0166,1.1118,60.7344
21:09:45:502,0.2479,-1.0301,6.6584,44.3624,1.143,0.0569,1.2314,60.2344
21:09:45:523,0.5472,-0.8541,5.4026,45.3325,1.0655,0.0002,1.2982,59.1406
21:09:45:545,0.8094,-0.7296,4.7837,43.9234,0.947,-0.1138,1.3376,57.7812
21:09:45:562,1.0907,-0.6063,4.5862,41.3887,0.8301,-0.2238,1.3427,56.3281
21:09:45:585,1.281,-0.483,4.6042,42.2886,0.726,-0.2744,1.3329,54.8125
21:09:45:601,1.5504,-0.2915,4.5599,43.5305,0.6043,-0.2861,1.3089,53.375
21:09:45:624,1.8544,0.0485,4.6844,42.2559,0.4237,-0.3018,1.2556,51.8594
21:09:45:642,2.0927,0.4627,5.3224,42.4395,0.2016,-0.3309,1.1563,50.3594
21:09:45:666,2.1717,0.7093,6.1891,42.3296,0.0035,-0.2939,1.0157,48.9844
21:09:45:687,2.01,0.896,7.1049,42.4379,-0.2285,-0.0547,0.9062,47.625
21:09:45:701,2.5942,1.1821,7.8579,41.7032,-0.5236,0.422,0.8583,46.4219
21:09:45:722,3.9242,1.6789,8.7701,43.3316,-0.7518,0.6867,0.7581,45.875
21:09:45:742,5.2746,2.2859,9.8606,43.9299,-0.7739,0.5088,0.4655,44.9062
21:09:45:763,5.6792,2.1063,10.7585,40.9737,-0.6898,0.0063,-0.0336,43.8906
21:09:45:782,4.8065,1.0289,11.7425,43.7704,-0.7073,-0.305,-0.501,42.9844
21:09:45:803,4.0655,-0.4794,12.4763,41.0073,-0.8514,-0.1082,-0.7056,42.3906
21:09:45:829,3.7422,-0.9738,12.5912,43.1599,-1.0333,0.2689,-0.7159,42.75
21:09:45:848,3.8069,-0.8158,12.6774,42.125,-1.139,0.2108,-0.7588,43.5312
21:09:45:863,3.1581,-0.6817,13.7189,43.5465,-1.1627,-0.2744,-0.9684,44.3438
21:09:45:882,1.5372,-1.3186,15.9299,41.7432,-1.0408,-0.3951,-1.1298,45.1719
21:09:45:901,0.1402,-2.4654,16.1861,41.6498,-0.6402,0.2646,-0.9894,46.1719
21:09:45:922,-0.0226,-2.4187,12.7983,44.9953,-0.1795,0.9797,-0.5759,47.3906
21:09:45:946,1.026,-1.4575,9.3914,43.9603,0.0578,0.903,-0.1838,48.6875
21:09:45:962,2.0555,-0.2987,7.8998,45.4471,0.0884,0.1895,-0.0581,49.5938
21:09:45:982,2.4829,0.507,8.4696,42.2201,0.029,-0.5152,-0.1761,49.9844
21:09:46:001,2.5033,0.5596,9.3698,44.5924,0.0408,-0.6973,-0.4081,50.0625
21:09:46:022,2.0843,0.2568,9.1508,44.4114,0.1204,-0.4315,-0.6294,50.1719
21:09:46:046,1.3169,0.149,7.9333,45.9223,0.151,-0.0124,-0.7271,50.5156
21:09:46:068,0.783,0.2496,6.8463,44.6379,0.1103,0.2582,-0.7061,51.0938
21:09:46:081,0.6525,0.3645,6.255,47.1387,0.0746,0.3256,-0.6304,52.3125
21:09:46:102,0.7722,0.5417,5.9258,44.7533,0.0871,0.2745,-0.5417,53.1094
21:09:46:123,1.1122,0.8541,5.5571,45.9021,0.1113,0.1706,-0.488,53.7812
21:09:46:142,1.3516,1.1738,5.3512,45.7325,0.0767,0.014,-0.5061,54.4062
21:09:46:165,1.5288,1.406,5.8156,46.5644,-0.0229,-0.1863,-0.5868,54.9531
21:09:46:182,1.6545,1.4479,6.8392,47.2327,-0.1683,-0.2702,-0.7026,55.5
21:09:46:204,1.4462,1.3797,7.8926,47.4643,-0.3007,-0.2097,-0.8318,55.8281
21:09:46:229,1.0188,1.2037,8.9449,47.4643,-0.42,0.0236,-0.8941,56.5625
21:09:46:246,0.5807,1.145,10.0007,47.9376,-0.4804,0.341,-0.8637,57.4688
21:09:46:300,0.4694,1.1797,10.4795,48.4599,-0.4211,0.5839,-0.7886,58.4219
21:09:46:301,0.5687,1.1091,10.6256,48.8626,-0.3217,0.6004,-0.7282,59.4375
21:09:46:301,0.4622,0.9822,10.7968,50.0285,-0.3135,0.4777,-0.6635,60.3906
21:09:46:322,0.1689,0.9355,11.7688,49.7065,-0.4072,0.3648,-0.5487,61.25
21:09:46:347,0.1306,0.7608,13.1036,48.8977,-0.4573,0.2974,-0.4145,62.375
21:09:46:363,0.5292,0.5142,14.1295,50.638,-0.4368,0.2881,-0.3026,62.9844
21:09:46:388,0.7184,0.5609,14.6598,49.435,-0.3981,0.3403,-0.2459,63.4375
21:09:46:401,0.5053,0.4699,15.2524,49.9308,-0.3459,0.2891,-0.2605,63.7812
21:09:46:423,-0.3075,0.0293,15.9754,51.6917,-0.1558,0.222,-0.2302,64.0625
21:09:46:446,-1.0545,-0.6243,15.347,51.1984,0.1752,0.3552,-0.0336,64.3438
21:09:46:466,-1.1048,-1.0265,13.1754,53.0096,0.4725,0.573,0.2892,64.5938
21:09:46:484,-0.7229,-1.0517,10.7992,52.075,0.6171,0.5059,0.5936,64.6562
21:09:46:510,-0.3686,-0.9846,9.4859,52.7607,0.6003,0.0641,0.8109,64.3594
21:09:46:521,-0.1507,-0.9691,9.8499,52.9188,0.5273,-0.443,0.9952,63.7344
21:09:46:542,0.7579,-1.0086,10.2605,53.7969,0.71,-0.6726,1.2522,62.8438
21:09:46:562,0.698,-0.7751,9.0191,53.6085,0.8376,-0.5293,1.3179,61.7188
21:09:46:582,0.8369,-0.5716,7.6292,52.7409,0.8597,-0.3737,1.3741,61.7188
21:09:46:602,1.0859,-0.2735,6.492,53.9536,0.7942,-0.2805,1.3696,59.0938
21:09:46:622,1.2367,-0.0724,5.7965,54.9532,0.6799,-0.267,1.3198,58.3594
21:09:46:645,1.2858,0.0724,5.5104,52.0686,0.5545,-0.3343,1.2514,56.0625
21:09:46:662,1.2726,0.1622,5.6756,52.6587,0.4669,-0.4108,1.168,54.5938
21:09:46:681,1.2678,0.1837,5.66,52.7346,0.4112,-0.41,1.0689,53.0938
21:09:46:703,1.3169,0.3083,5.4589,54.9513,0.2866,-0.2869,0.9334,51.6875
21:09:46:727,1.3433,0.3861,5.5295,53.1775,-0.0224,-0.0049,0.7406,50.4375
21:09:46:746,1.0739,0.3094,6.3448,56.4104,-0.5225,0.5325,0.5097,48.1875
21:09:46:762,0.4311,0.6039,8.0626,53.8015,-0.9689,1.1685,0.3254,48.1875
21:09:46:781,0.127,0.9559,9.6942,54.6579,-0.9907,1.4167,0.1587,47.3438
21:09:46:804,-0.0885,0.9571,10.039,54.2723,-0.6831,1.201,-0.0025,46.7656
21:09:46:819,-0.11,0.6746,9.7828,55.8846,-0.4306,0.7874,-0.0909,46.3281
21:09:46:842,0.0935,0.3921,10.1037,56.6343,-0.3542,0.2966,-0.15,46.0469
21:09:46:864,0.1198,-0.392,11.4528,55.2928,-0.3672,-0.2044,-0.2014,45.9844
21:09:46:881,0.5747,-1.3425,13.2496,55.3544,-0.3691,-0.3434,-0.1242,46.0469
21:09:46:901,1.9119,-2.05,14.0254,57.877,-0.3183,-0.0401,0.0138,46.3125
21:09:46:921,3.4095,-1.8633,13.1024,57.607,-0.2562,0.3975,0.0817,46.5
21:09:46:946,4.3911,-1.3018,11.6455,57.6942,-0.3241,0.4558,-0.0664,46.5469
21:09:46:965,4.421,-1.1929,11.6431,57.6942,-0.4634,0.1445,-0.3404,46.4688
21:09:46:982,3.7219,-1.7232,12.7612,56.1833,-0.4759,-0.0875,-0.5607,46.4062
21:09:47:000,2.6445,-2.293,12.6511,57.8942,-0.2431,-0.0864,-0.5814,46.6094
21:09:47:023,2.7187,-2.3685,11.1248,59.5184,0.0096,-0.0142,-0.3987,47.125
21:09:47:044,3.6716,-1.7256,9.4871,58.0349,0.1143,-0.0813,-0.2653,47.7969
21:09:47:061,4.3252,-0.7488,8.5139,58.8178,0.0855,-0.353,-0.3716,48.3438
21:09:47:081,4.1553,0.0449,8.4612,60.1942,-0.0242,-0.5506,-0.6962,48.7031
21:09:47:102,3.2897,0.0796,8.399,57.9915,-0.0953,-0.496,-1.1111,49.0312
21:09:47:123,2.0053,-0.2843,7.7095,60.659,-0.1838,-0.1943,-1.4416,49.5938
21:09:47:143,0.892,-0.501,7.0091,58.8349,-0.3169,0.2172,-1.5886,50.625
21:09:47:161,0.0564,-0.5393,6.6117,60.19,-0.4003,0.463,-1.5801,51.3125
21:09:47:181,-0.5434,-0.3777,6.3891,60.7861,-0.3707,0.4516,-1.4651,52.9531
21:09:47:202,-0.7625,-0.0868,6.3088,59.4381,-0.2775,0.2545,-1.3138,54.6875
21:09:47:222,-0.7433,0.0389,6.4489,60.4817,-0.1891,-0.0251,-1.198,57.3438
21:09:47:247,-0.7744,0.1203,6.9289,61.717,-0.1388,-0.227,-1.1151,58.9375
21:09:47:263,-0.7708,0.0952,7.3874,61.5672,-0.1337,-0.2856,-1.0611,60.2812
21:09:47:282,-0.9109,0.149,8.0374,60.6912,-0.216,-0.2102,-1.0137,61.5938
21:09:47:302,-0.8702,0.3705,9.0825,60.8772,-0.3156,-0.0755,-0.9508,62.8281
21:09:47:321,-0.7026,0.6734,10.2066,62.7422,-0.3337,0.0297,-0.8944,63.9531
21:09:47:345,-0.4931,0.9415,11.2493,62.6255,-0.2514,0.1347,-0.8573,65.0625
21:09:47:364,-0.4524,0.9379,11.3044,62.4316,-0.1044,0.2731,-0.8571,66.1094
21:09:47:381,-0.7864,0.8649,10.9344,62.947,-0.0708,0.4071,-0.8411,67.0469
21:09:47:401,-0.7457,0.8721,11.199,62.7457,-0.1683,0.5277,-0.7391,68.0312
21:09:47:421,-0.1986,0.8769,11.8299,63.9055,-0.2626,0.5368,-0.6488,69.0312
21:09:47:447,0.4143,0.6327,12.7169,63.4539,-0.3265,0.34,-0.6432,69.9531
21:09:47:464,0.6334,0.1155,14.3031,64.2686,-0.4003,-0.0219,-0.7127,70.7188
21:09:47:481,-0.0897,-0.6794,16.6721,64.0789,-0.4021,-0.358,-0.7575,71.4688
21:09:47:502,-1.1216,-1.8777,18.9969,64.4936,-0.1587,-0.4715,-0.5937,72.6406
21:09:47:522,-1.7393,-2.8796,19.3572,65.5025,0.3505,-0.2012,-0.1671,73.4219
21:09:47:545,-1.2245,-3.3058,16.6039,63.1056,0.9249,0.3355,0.4018,74.0625
21:09:47:561,0.0097,-3.1657,12.171,64.7678,1.2762,0.7054,0.8561,74.25
21:09:47:581,0.9339,-2.9491,8.6133,64.8314,1.261,0.6036,1.0732,73.8438
21:09:47:606,0.9662,-2.2739,7.0594,63.7336,1.0147,0.1666,1.2005,72.9531
21:09:47:621,0.8932,-1.5975,7.3288,63.5071,0.7577,-0.3101,1.3022,71.8125
21:09:47:642,1.0751,-1.3401,8.1979,62.8966,0.6605,-0.5929,1.356,71.1562
21:09:47:665,1.1817,-1.1151,8.2206,63.1602,0.7076,-0.6526,1.3728,69.8438
21:09:47:681,1.2427,-0.8841,7.4365,62.3193,0.7574,-0.6275,1.3443,68.3438
21:09:47:701,1.0452,-0.5872,6.5471,62.9337,0.7047,-0.586,1.2657,66.8125
21:09:47:721,0.9745,-0.4232,6.079,61.8491,0.5774,-0.5508,1.1885,65.3594
21:09:47:746,1.0009,-0.3549,5.9808,61.1776,0.4487,-0.5493,1.107,63.9062
21:09:47:762,0.8417,-0.3382,6.1376,62.4248,0.3534,-0.5282,1.0466,62.5156
21:09:47:780,0.7196,-0.24,6.3184,60.2197,0.2911,-0.4462,1.0415,60.6875
21:09:47:801,0.9434,-0.1024,6.2729,61.2553,0.2727,-0.37,1.0514,59.5156
21:09:47:821,1.2774,0.2113,6.0227,60.8035,0.2557,-0.3338,1.0343,58.3438
21:09:47:846,1.6904,0.6674,5.8863,61.0041,0.1835,-0.3623,0.9669,57.2188
21:09:47:864,2.0388,1.1738,6.231,59.0991,0.0695,-0.3961,0.8197,56.0469
21:09:47:882,2.186,1.5401,6.838,60.616,-0.0445,-0.3969,0.5973,54.9531
21:09:47:901,2.1166,1.6011,7.3419,59.8263,-0.1563,-0.3,0.3611,54.0469
21:09:47:923,1.7479,0.9056,8.2446,61.1902,-0.5569,-0.2957,-0.0145,53.4219
21:09:47:946,1.7347,0.0413,10.4604,61.9286,-0.8099,-0.7027,-0.0912,53.0312
21:09:47:962,1.5779,-0.8948,14.2995,59.8781,-0.8903,-0.9498,-0.0437,52.9375
21:09:47:982,1.7048,-1.8202,16.4016,59.8673,-0.5984,-0.5756,0.1933,52.9375
21:09:48:002,2.7319,-2.4104,14.7628,59.6527,-0.1523,0.1032,0.5488,53.2344
21:09:48:023,3.8967,-1.9184,11.5617,59.3444,0.0511,0.7107,0.7382,53.0625
21:09:48:047,4.7658,-0.908,9.2848,61.0845,-0.0863,0.8076,0.6649,53.0625
21:09:48:069,5.5714,-0.4292,8.7497,59.4538,-0.4064,0.507,0.3227,52.4688
21:09:48:081,5.1297,-0.3142,9.8678,58.9413,-0.7276,0.1296,-0.1822,51.6094
21:09:48:100,4.0583,-0.7069,11.6862,60.2152,-0.8109,-0.0046,-0.5274,50.8438
21:09:48:120,3.5459,-1.4323,12.2776,58.6462,-0.6184,0.1557,-0.6403,50.5
21:09:48:144,3.5519,-1.7256,11.0123,58.8646,-0.3404,0.3301,-0.5979,50.75
21:09:48:164,3.8452,-1.4048,9.3315,58.5517,-0.2192,0.2071,-0.5436,51.375
21:09:48:180,3.8787,-0.7739,8.9987,58.2037,-0.2991,-0.1274,-0.6113,52.0938
21:09:48:200,3.4885,-0.3885,9.7661,58.6199,-0.3699,-0.2595,-0.795,52.7969
21:09:48:220,2.6038,-0.3142,9.8247,59.0959,-0.334,0.0364,-0.9514,53.4375
21:09:48:246,1.6844,-0.2173,8.6755,57.8622,-0.2272,0.4926,-0.9825,54.1406
21:09:48:264,1.3073,-0.021,7.0451,60.6949,-0.1316,0.7437,-0.9127,55.0156
21:09:48:280,1.2128,0.3322,5.9066,59.5285,-0.0727,0.7022,-0.8044,56.125
21:09:48:301,1.4462,0.7404,5.3081,59.7587,-0.0224,0.4148,-0.7231,57.2656
21:09:48:350,1.7407,1.1702,5.2853,59.7587,-0.0269,0.0295,-0.7282,58.2812
21:09:48:351,1.9263,1.3737,6.0024,59.5239,-0.0993,-0.2662,-0.8464,59.6562
21:09:48:366,1.6449,1.1738,7.069,59.9152,-0.2149,-0.3208,-1.0334,60.4844
21:09:48:381,0.8764,0.8206,8.2924,59.126,-0.334,-0.1026,-1.166,61.3125
21:09:48:400,0.0995,0.4148,9.3447,59.4658,-0.3875,0.254,-1.1455,62.3906
21:09:48:422,-0.4859,0.3454,10.0701,59.7622,-0.3478,0.6116,-1.0001,63.6562
21:09:48:446,-0.8103,0.5453,10.2557,58.6007,-0.2357,0.8289,-0.8073,64.9531
21:09:48:459,-0.9288,0.5118,10.215,60.1614,-0.1249,0.7807,-0.6347,66.2188
21:09:48:480,-0.9767,0.2005,10.3993,60.0706,-0.1017,0.5123,-0.4725,67.2969
21:09:48:499,-0.8055,-0.3717,11.6946,60.2173,-0.1683,0.1858,-0.2677,68.1562
21:09:48:519,-0.2752,-0.9475,13.6195,58.4667,-0.1918,-0.0448,-0.056,68.7812
21:09:48:541,0.5807,-1.2396,14.8873,59.3973,-0.1478,-0.2688,0.1145,69.2344
21:09:48:561,1.0188,-1.3198,16.3034,58.513,-0.1249,-0.6537,0.2029,69.4219
21:09:48:580,0.795,-1.4443,18.5456,58.6643,-0.0067,-0.8089,0.2905,69.375
21:09:48:600,0.461,-1.8992,19.1657,57.1343,0.4655,-0.3578,0.4426,69.1562
21:09:48:620,0.6693,-2.3086,14.9471,57.4754,1.0354,0.5008,0.6322,69
21:09:48:644,1.2247,-2.0788,9.5434,57.5593,1.1204,1.0439,0.7464,68.625
21:09:48:661,1.3684,-1.5473,6.4716,55.8223,0.7222,0.7738,0.7552,67.7812
21:09:48:680,0.947,-1.0612,7.2258,57.4767,0.175,-0.0217,0.7467,67
21:09:48:700,0.8213,-1.2061,10.4341,56.4226,0.0083,-0.6686,0.7989,66.1562
21:09:48:720,0.637,-1.4946,11.7712,57.3347,0.3547,-0.8228,0.8689,65.3594
21:09:48:742,0.2958,-1.3509,10.4448,56.912,0.746,-0.5764,1.009,64.4844
21:09:48:761,0.4742,-0.9942,8.2541,54.9478,0.8701,-0.2307,1.1667,63.5156
21:09:48:779,0.7938,-0.5465,6.7542,55.3681,0.7992,-0.0478,1.2292,62.5
21:09:48:800,1.0967,-0.2281,6.0227,55.9827,0.686,-0.0531,1.2138,61.2344
21:09:48:822,1.2798,-0.0221,5.8575,55.7234,0.6112,-0.1729,1.1712,59.8281
21:09:48:846,1.4223,0.076,6.0527,54.3404,0.5904,-0.3082,1.1134,58.5
21:09:48:863,1.5575,0.1287,6.2801,55.1523,0.5995,-0.3783,1.0466,57.125
21:09:48:882,1.7515,0.1706,6.3747,54.2499,0.5928,-0.3865,0.9557,55.8125
21:09:48:900,1.9322,0.2472,6.6177,53.3062,0.5348,-0.3199,0.829,54.5625
21:09:48:920,1.9418,0.2915,7.2378,53.8306,0.4426,-0.1828,0.6801,53.4688
21:09:48:941,2.0663,0.0461,7.6053,53.1285,0.3603,0.0028,0.5371,51.9844
21:09:48:962,2.0651,0.0126,7.4617,54.3677,0.245,0.2082,0.4199,51.2031
21:09:48:980,2.3704,0.1227,7.5119,53.8511,0.0677,0.2873,0.3043,50.6094
21:09:49:000,2.9258,0.0413,8.1787,54.3677,-0.1622,0.2335,0.1102,50.1094
21:09:49:019,3.2754,-0.3681,9.5099,54.118,-0.3981,0.1301,-0.1436,49.7344
21:09:49:041,3.0144,-1.0493,11.2517,54.5729,-0.5864,0.1368,-0.3601,49.6094
21:09:49:061,2.7415,-1.819,12.1926,54.2488,-0.6453,0.3648,-0.4195,49.7812
21:09:49:080,2.9055,-2.3206,11.3462,54.8818,-0.6842,0.6236,-0.383,50.1875
21:09:49:100,3.109,-2.0333,10.4269,54.4889,-0.877,0.618,-0.3676,50.6562
21:09:49:120,2.9234,-1.6418,11.0661,54.6349,-1.151,0.2161,-0.4451,50.875
21:09:49:145,2.1322,-1.8896,13.3717,54.2004,-1.2408,-0.2635,-0.5247,51.2812
21:09:49:163,1.1972,-2.4535,15.3146,53.721,-0.9896,-0.3468,-0.4344,51.7344
21:09:49:180,1.1661,-2.8353,14.9794,53.8528,-0.5089,-0.0177,-0.1399,52.2812
21:09:49:200,2.4542,-2.6294,12.5697,54.7705,-0.1073,0.3573,0.2135,52.875
21:09:49:220,4.2714,-1.7053,10.0582,55.0631,0.0634,0.4454,0.373,53.2344
21:09:49:241,5.5451,-0.5321,8.3176,55.0635,0.0194,0.214,0.1605,53.0312
21:09:49:264,5.5666,0.3693,8.0913,54.7296,-0.1643,-0.0209,-0.3428,52.625
21:09:49:280,4.5659,0.3921,8.6671,54.0258,-0.2708,-0.003,-0.9322,52.4375
21:09:49:300,3.1772,-0.2209,8.4409,56.0853,-0.2381,0.3227,-1.3474,52.7969
21:09:49:320,1.949,-0.5812,7.3371,56.605,-0.187,0.7008,-1.5303,53.875
21:09:49:341,0.5951,-0.325,6.0455,54.5828,-0.0828,0.7589,-1.4361,55.4219
21:09:49:365,0.4993,0.0174,5.83,55.7588,0.0219,0.4822,-1.3316,55.4219
21:09:49:381,0.5101,0.3418,5.7797,55.8458,0.0815,0.201,-1.2581,57.2031
21:09:49:400,0.5472,0.5441,6.1053,55.6732,0.0706,-0.0448,-1.2145,60.5625
21:09:49:420,0.3604,0.6626,6.7554,55.4683,0.0163,-0.2118,-1.1804,62.1094
21:09:49:440,0.1126,0.7488,7.6532,56.7965,-0.0639,-0.2949,-1.1301,63.4844
21:09:49:462,-0.1364,0.8493,8.8634,55.7588,-0.1465,-0.207,-1.0523,66.2188
21:09:49:480,-0.3554,1.0253,9.6619,56.1021,-0.1896,0.0545,-0.9729,66.2188
21:09:49:499,-0.5326,1.2348,9.9289,57.3312,-0.2487,0.3903,-0.9151,68.0469
21:09:49:519,-0.9025,1.2037,10.2545,56.6477,-0.3513,0.5839,-0.8688,68.625
21:09:49:541,-1.4077,0.835,11.0685,56.313,-0.4277,0.5067,-0.7633,69.75
21:09:49:563,-1.7967,0.1395,12.4883,56.479,-0.4328,0.1893,-0.558,71.2656
21:09:49:580,-1.9212,-0.6889,14.5078,57.433,-0.343,-0.1591,-0.2264,71.7656
21:09:49:604,-1.3059,-1.1019,16.2867,55.6138,-0.1411,-0.2707,0.1733,72.6406
21:09:49:618,-0.1914,-0.9738,16.8134,56.6832,0.134,-0.1234,0.494,73.2812
21:09:49:640,1.0165,-0.5992,15.9994,56.5757,0.3302,0.1125,0.6066,73.5156
21:09:49:664,1.1529,-0.3897,15.2835,57.176,0.4019,0.2574,0.5198,73.2969
21:09:49:683,0.5448,-0.7392,14.8609,56.3264,0.5212,0.41,0.4482,72.7188
21:09:49:704,0.2228,-1.2288,13.4124,57.8107,0.7518,0.6265,0.5139,72.0469
21:09:49:720,0.3724,-1.5461,11.1978,56.5799,0.9433,0.6031,0.6423,71.5
21:09:49:739,0.6358,-1.5903,9.6655,56.3992,0.9662,0.1964,0.7603,71.0312
21:09:49:762,0.8836,-1.4299,9.9744,55.6538,0.8717,-0.3524,0.8351,70.5
21:09:49:781,1.1948,-1.4287,11.0206,54.9979,0.8634,-0.6305,0.853,69.8594
21:09:49:799,1.281,-1.5927,11.132,54.8984,0.9766,-0.5756,0.8308,68.6094
21:09:49:819,1.0667,-1.4599,10.0175,55.7213,1.0991,-0.3788,0.8479,67.6719
21:09:49:842,1.0931,-1.169,8.5307,55.3948,1.1313,-0.1626,0.87,66.7969
21:09:49:863,1.269,-0.9307,7.2905,53.838,1.0778,0.0311,0.849,65.9062
21:09:49:879,1.2858,-0.6506,6.1149,54.8386,0.9848,0.1988,0.829,64.9531
21:09:49:900,1.5731,-0.2723,5.0878,55.1659,0.8695,0.2401,0.8482,64.0469
21:09:49:919,1.8724,0.2316,4.4904,54.0293,0.7428,0.0899,0.8242,63.125
21:09:49:939,1.9729,0.5596,4.4677,54.8706,0.6181,-0.1769,0.7267,62.1719
21:09:49:961,1.8676,0.5644,4.852,51.6062,0.4927,-0.3642,0.5957,61.2188
21:09:49:979,1.7084,0.3406,5.2063,52.847,0.3617,-0.3687,0.4974,60.3906
21:09:49:999,1.7275,0.228,5.49,52.7238,0.2226,-0.268,0.4695,59.6875
21:09:50:019,1.931,0.2843,5.8839,51.1914,0.0546,-0.1719,0.4777,59.125
21:09:50:041,2.1573,0.4818,6.8811,52.6514,-0.1337,-0.0584,0.475,58.6406
21:09:50:060,2.8911,0.9236,7.8986,53.7897,-0.2131,0.047,0.4007,58.125
21:09:50:080,3.6154,1.3031,8.1751,51.5388,-0.2019,-0.0888,0.1198,57.8594
21:09:50:100,3.7482,1.06,8.563,53.5151,-0.3145,-0.403,-0.2952,57.0781
21:09:50:119,3.334,0.1838,10.13,51.5256,-0.6035,-0.5623,-0.6435,56.75
21:09:50:139,2.836,-0.756,12.3614,52.414,-0.8448,-0.3279,-0.8033,56.875
21:09:50:162,3.2862,-1.5688,13.1706,52.6607,-0.8788,0.1091,-0.8297,57.4844
21:09:50:183,4.1505,-1.7124,12.3398,52.4442,-0.8906,0.4095,-0.9093,58.3438
21:09:50:200,4.2953,-1.1905,11.691,52.6869,-1.0578,0.4737,-1.1604,59.2969
21:09:50:220,4.0008,-1.1977,12.3219,53.3212,-1.277,0.2771,-1.549,60.25
21:09:50:240,2.8277,-1.7508,13.8829,53.1906,-1.4291,0.108,-1.9333,61.3125
21:09:50:264,0.7543,-2.4044,15.9599,54.6648,-1.3438,0.3645,-2.0318,62.8125
21:09:50:286,-0.0765,-2.7276,15.4439,52.0591,-0.8349,0.94,-1.7852,64.7969
21:09:50:300,0.6968,-2.2535,11.6264,53.5148,-0.3124,1.3009,-1.4653,67.0938
21:09:50:320,1.7778,-1.2001,8.3068,53.9321,-0.135,1.1054,-1.334,69.1719
21:09:50:340,2.1322,-0.3238,6.9134,53.8018,-0.2312,0.5307,-1.4584,71
21:09:50:365,1.8089,-0.1622,7.6281,53.2698,-0.3934,0.013,-1.6725,73.2656
21:09:50:420,1.0919,-0.5704,8.6671,53.9023,-0.3984,-0.1293,-1.8331,74.9219
21:09:50:421,0.1605,-0.8362,8.9329,52.8428,-0.3097,0.0995,-1.8318,76.8125
21:09:50:421,-0.4715,-0.5489,8.375,52.8428,-0.1776,0.4481,-1.6691,78.8906
21:09:50:441,-0.4871,-0.0629,7.3252,53.0789,-0.0293,0.5839,-1.4827,80.8594
21:09:50:464,-0.3147,0.4878,6.5267,52.9743,0.0905,0.5059,-1.3138,82.7812
21:09:50:485,0.0576,1.0995,6.2071,53.6125,0.1726,0.2926,-1.1572,84.5
21:09:50:499,0.4981,1.5652,6.2693,54.5439,0.2048,0.0164,-1.0392,85.9531
21:09:50:518,1.3864,2.0261,6.9026,53.0539,0.1854,-0.2627,-0.9812,87.3125
21:09:50:540,2.3788,2.39,8.1213,52.8717,0.168,-0.488,-1.1098,87.9375
21:09:50:563,2.6732,2.2404,9.292,53.1114,0.1862,-0.5413,-1.4257,89.0781
21:09:50:579,1.864,1.7364,9.7469,51.8392,0.1542,-0.362,-1.7801,90.1875
21:09:50:599,0.4873,1.0912,10.2653,53.3138,0.0088,0.0082,-1.9841,91.6094
21:09:50:619,-0.7684,0.4196,10.9979,54.1466,-0.1017,0.5173,-1.9623,93.4375
21:09:50:639,-1.537,0.0652,10.9704,53.8276,-0.0764,0.9658,-1.7562,95.5156
21:09:50:663,-2.0457,0.0197,10.3203,51.8697,0.0077,1.0907,-1.4424,98.9375
21:09:50:682,-2.0326,-0.0557,9.9816,53.2223,0.0748,0.7405,-1.1348,101
21:09:50:699,-1.7309,-0.5106,10.5107,51.848,0.0551,0.2177,-0.8909,102.625
21:09:50:719,-1.2545,-1.0672,11.8957,51.6837,-0.0115,-0.1069,-0.6909,103.9688
21:09:50:742,-0.5039,-0.9391,13.6279,52.77,-0.1236,0.1227,-0.4201,105
21:09:50:764,-0.2549,-1.0062,13.6207,52.7931,-0.151,0.2303,-0.4339,105
21:09:50:781,-0.7002,-1.2552,13.9571,51.2841,-0.1454,0.1735,-0.4464,106.8125
21:09:50:800,-1.3347,-1.7328,14.3342,51.9719,-0.0003,0.1914,-0.3556,107.3125
21:09:50:819,-1.5741,-2.299,13.185,51.9798,0.2855,0.3885,-0.1463,107.3125
21:09:50:838,-1.1683,-2.214,10.7501,52.1427,0.4815,0.4766,0.1304,107.7969
21:09:50:862,-0.365,-1.7041,9.1388,51.5424,0.4663,0.2071,0.323,108.2188
21:09:50:880,0.23,-1.2312,9.3986,50.9099,0.3523,-0.2494,0.3781,108.4375
21:09:50:899,0.2802,-0.9846,10.4831,50.679,0.3726,-0.5879,0.3762,108.0625
21:09:50:919,0.2826,-0.8003,10.7992,50.6493,0.5257,-0.6731,0.4258,107.6562
21:09:50:940,0.7495,-0.4782,10.1958,50.8306,0.6756,-0.5373,0.5581,107.4375
21:09:50:962,1.4546,0.0892,9.1448,49.1876,0.7638,-0.3588,0.6519,107.0312
21:09:50:981,2.0998,0.6243,8.0374,48.7318,0.8075,-0.3093,0.625,106.5156
21:09:50:998,2.4003,0.9595,7.1899,50.204,0.7963,-0.3892,0.4873,105.8438
21:09:51:019,2.2878,0.9966,6.8858,49.2981,0.7377,-0.4912,0.3134,105.5
21:09:51:039,1.8377,0.8122,6.8619,48.7151,0.6962,-0.5104,0.1808,104.875
21:09:51:064,1.7251,0.5968,6.4884,49.3142,0.6765,-0.4699,0.1328,104.375
21:09:51:081,1.8389,0.6937,6.1041,48.8639,0.5963,-0.4313,0.1041,104.0625
21:09:51:100,2.1645,0.9367,6.006,48.0682,0.4759,-0.4353,0.0322,103.9062
21:09:51:118,2.3117,1.1606,6.0515,47.6357,0.3526,-0.4995,-0.121,103.8125
21:09:51:138,2.2387,1.4,6.395,49.0103,0.2248,-0.5793,-0.3117,103.7344
21:09:51:164,2.0974,1.3665,6.8236,46.5904,0.1055,-0.5852,-0.525,103.7344
21:09:51:183,1.6497,1.1462,6.9254,46.4177,-0.0418,-0.5034,-0.7364,103.9062
21:09:51:200,1.1158,0.7751,7.3348,45.6244,-0.2724,-0.4267,-0.8773,104.9219
21:09:51:221,0.8967,0.2963,8.3427,45.4109,-0.5417,-0.472,-0.9434,105.3281
21:09:51:237,1.2247,-0.5608,10.452,46.9035,-0.7979,-0.7716,-1.0033,106.2344
21:09:51:258,1.5073,-1.7831,13.7692,45.1612,-0.9143,-0.9469,-1.0006,107.2969
21:09:51:282,2.6876,-3.3453,15.6953,44.7805,-0.7159,-0.5604,-0.8347,108.4219
21:09:51:301,3.8524,-3.9391,13.9404,44.6097,-0.3609,0.0923,-0.6272,109.5625
21:09:51:319,4.2307,-2.797,10.4939,44.5643,-0.2045,0.5632,-0.4826,110.6562
21:09:51:339,4.6257,-1.2839,7.7801,44.6894,-0.3372,0.5104,-0.6001,111.4844
21:09:51:362,4.1816,-0.6554,6.9792,44.5079,-0.7095,-0.047,-1.0627,112.0781
21:09:51:380,2.6625,-0.5632,8.6564,44.953,-1.1569,-0.6358,-1.4936,112.6406
21:09:51:399,2.3237,-1.4431,11.4109,44.5112,-1.3801,-1.018,-1.7021,113.5625
21:09:51:419,1.4785,-2.3972,14.3546,44.4491,-1.3316,-1.0827,-1.7695,115.0625
21:09:51:439,0.4682,-2.4786,15.7623,42.9787,-1.0022,-0.6616,-1.5777,116.8125
21:09:51:461,0.4251,-1.8992,14.2241,42.5454,-0.5212,-0.0443,-1.2763,118.8281
21:09:51:482,0.971,-0.8469,11.011,42.1268,-0.1955,0.446,-1.092,120.7656
21:09:51:511,1.4618,-0.0724,8.3762,43.6968,-0.0911,0.6806,-1.0856,122.3281
21:09:51:518,1.597,0.4124,6.4693,44.2056,-0.0914,0.7248,-1.2049,123.0312
21:09:51:541,1.4426,0.659,5.2769,44.6716,-0.1574,0.6497,-1.3695,124.9688
21:09:51:563,1.2104,0.6758,4.8113,45.0329,-0.2567,0.4854,-1.5261,126.25
21:09:51:578,0.8105,0.5525,5.0244,44.122,-0.3449,0.2694,-1.6411,127.7656
21:09:51:599,0.4035,0.3406,5.8707,43.5817,-0.4029,0.0596,-1.7021,129.4688
21:09:51:619,0.0265,0.173,6.8248,43.8544,-0.4615,-0.0643,-1.7135,131.3281
21:09:51:639,-0.274,0.0126,8.1919,43.247,-0.535,-0.088,-1.6739,133.1719
21:09:51:661,-0.4847,-0.173,9.6559,43.5243,-0.5635,0.0564,-1.5727,135.1406
21:09:51:682,-0.7421,-0.1431,10.6603,44.5647,-0.506,0.3416,-1.4057,137.0938
21:09:51:699,-0.9671,0.1778,10.8028,43.4099,-0.3891,0.6414,-1.1932,138.8906
21:09:51:718,-0.9887,0.5704,10.3814,42.614,-0.2863,0.8359,-0.9743,140.6406
21:09:51:739,-0.851,0.8074,9.9636,45.1462,-0.2293,0.8092,-0.8051,142.1875
21:09:51:763,-0.7804,0.7608,10.0941,43.8588,-0.2522,0.5392,-0.6736,143.5156
21:09:51:780,-0.7373,0.4124,11.3355,42.7592,-0.3057,0.1341,-0.5314,144.5625
21:09:51:799,-0.7804,-0.0365,13.1395,44.3674,-0.3076,-0.055,-0.3298,145.875
21:09:51:823,-0.5027,-0.4256,14.2827,42.8252,-0.208,0.0401,-0.06,146.4844
21:09:51:838,0.0097,-0.3394,14.424,43.0747,-0.0703,0.2228,0.2111,146.8438
21:09:51:858,0.8393,0.0533,14.0074,42.941,0.0096,0.2873,0.3821,146.9219
21:09:51:879,1.275,0.2256,14.3282,43.1827,0.0418,0.1051,0.3821,146.7031
21:09:51:898,0.9698,-0.1,15.5385,44.1686,0.1776,-0.1359,0.3368,146.3281
21:09:51:920,0.5879,-0.8841,15.7432,43.8282,0.5105,-0.1013,0.3885,145.8906
21:09:51:939,0.8321,-1.5317,13.932,44.0605,0.8402,0.0782,0.5248,145.5
21:09:51:962,1.4522,-1.4323,12.0657,46.2277,0.939,0.063,0.6468,145.0625
21:09:51:980,2.0436,-1.1738,11.5821,43.9239,0.9073,-0.1921,0.6407,144.4688
21:09:51:998,1.9418,-1.1079,11.7533,47.0352,0.9239,-0.3687,0.5049,143.75
21:09:52:018,1.269,-1.3054,11.3067,46.2533,1.008,-0.3165,0.3805,143.3594
21:09:52:041,0.5699,-1.4096,10.045,47.1872,1.0594,-0.0733,0.3656,142.7031
21:09:52:063,0.1282,-1.3473,8.6001,47.2774,1.0645,0.1866,0.4519,142.1875
21:09:52:080,0.1198,-1.2576,7.1073,44.7799,1.0501,0.3299,0.5781,141.7656
21:09:52:098,0.2635,-1.0265,5.9234,48.0285,0.9902,0.3181,0.7065,141.0625
21:09:52:123,0.5592,-0.7177,5.2674,46.17,0.9111,0.1853,0.8125,140.4062
21:09:52:148,1.36,-0.1454,5.0938,47.4198,0.7947,-0.2065,0.8324,139.6094
21:09:52:168,1.6342,-0.0221,5.162,48.8186,0.7209,-0.3077,0.7587,139.6094
21:09:52:181,1.7766,0.1431,5.4194,47.8501,0.6099,-0.3274,0.6609,137.7656
21:09:52:200,1.8137,0.319,5.8515,48.3497,0.4543,-0.2946,0.5579,135.9688
21:09:52:218,1.8915,0.5573,6.3627,50.3135,0.3057,-0.1871,0.4556,135.9688
21:09:52:238,2.0627,0.8709,6.4333,48.811,0.1864,-0.0472,0.3312,135.25
21:09:52:266,2.0855,1.0732,6.4046,50.4569,0.0149,0.018,0.152,134.625
21:09:52:286,1.9346,1.1127,6.8308,48.9929,-0.2141,0.0076,-0.0387,134.1094
21:09:52:303,1.6641,0.8182,7.8435,49.9429,-0.4703,-0.0736,-0.2131,133.75
21:09:52:318,1.633,0.1035,9.1603,49.3744,-0.7036,-0.2057,-0.3394,133.5781
21:09:52:340,1.8556,-0.835,11.0482,50.6816,-0.926,-0.3394,-0.3947,133.8438
21:09:52:366,2.7331,-1.6514,12.8893,49.5547,-1.135,-0.2355,-0.3913,134.0469
21:09:52:383,3.4322,-1.9878,13.9811,50.4151,-1.2924,0.0074,-0.4627,134.4844
21:09:52:399,3.1976,-1.8286,14.4587,51.5089,-1.3555,0.1706,-0.6281,134.9531
21:09:52:417,2.1262,-2.0692,15.0357,50.6002,-1.3404,0.2923,-0.8123,135.4219
21:09:52:478,0.4825,-2.4211,15.4882,52.626,-1.2123,0.6793,-0.7687,135.7188
21:09:52:479,0.1378,-2.3349,14.3366,51.8953,-0.8711,1.1032,-0.4142,136.4688
21:09:52:479,1.4426,-1.6227,11.922,53.9857,-0.4155,1.058,-0.0096,137.4219
21:09:52:499,3.267,-0.7667,9.7828,53.1096,-0.041,0.4191,0.1627,138.2969
21:09:52:518,4.3348,0.2173,8.739,53.1096,0.1244,-0.4363,0.0172,138.8438
21:09:52:537,4.3899,0.89,9.0346,52.9534,0.1028,-0.958,-0.3697,138.9219
21:09:52:558,3.9673,0.5237,9.4967,54.6211,0.0216,-0.843,-0.8408,138.75
21:09:52:579,2.6649,-0.1814,9.2489,54.9136,-0.065,-0.2065,-1.1988,138.7188
21:09:52:597,1.3409,-0.2771,8.0818,54.241,-0.1417,0.5208,-1.3202,139.0781
21:09:52:618,0.5077,-0.1778,6.9361,55.3022,-0.179,0.8875,-1.3218,140.5625
21:09:52:639,-0.1268,0.0006,6.1891,54.0008,-0.1393,0.8481,-1.2275,142.0469
21:09:52:663,-0.4332,0.2304,5.8851,54.0141,-0.0498,0.5475,-1.0584,143.625
21:09:52:683,-0.3243,0.5177,6.1149,54.2379,0.0482,0.1693,-0.8888,145.1562
21:09:52:701,0.0061,0.8111,6.5255,54.2203,0.1225,-0.0859,-0.7681,146.4531
21:09:52:718,0.3305,1.0995,6.9948,55.2439,0.1372,-0.1799,-0.718,147.5938
21:09:52:738,0.4442,1.333,7.7382,55.3548,0.1143,-0.202,-0.7255,148.5312
21:09:52:764,0.4478,1.3761,8.5019,55.2203,0.0927,-0.162,-0.7745,149.3281
21:09:52:780,0.1701,1.2923,9.1723,54.9586,0.0594,-0.007,-0.802,150.1406
21:09:52:797,0.0863,1.1247,9.6823,55.3584,0.0277,0.1869,-0.7681,150.9688
21:09:52:822,0.1222,0.6925,10.1084,55.6808,-0.0096,0.3096,-0.7111,151.8281
21:09:52:838,0.4263,0.2269,10.519,55.3396,-0.0583,0.3091,-0.599,152.75
21:09:52:860,0.6813,0.0664,11.2828,57.7498,-0.0977,0.1163,-0.4603,153.6094
21:09:52:883,0.6298,-0.0796,13.0521,57.0681,0.0405,-0.411,-0.2776,154.3906
21:09:52:908,1.2463,-0.4387,14.175,57.5308,0.4722,-0.9868,-0.0563,154.6875
21:09:52:918,1.9298,-0.0533,13.5226,56.4735,0.8732,-1.3378,0.0612,155.4062
21:09:52:938,2.1848,0.9116,12.2513,56.6149,0.8333,-1.2571,-0.011,155.5469
21:09:52:963,1.9167,1.175,11.9639,56.1639,0.3625,-0.7903,-0.2579,155.4531
21:09:52:980,0.8357,0.8446,12.9216,56.5544,-0.176,-0.0555,-0.4483,155.2969
21:09:52:997,-0.1962,0.3107,13.7859,57.5992,-0.3262,0.5839,-0.4062,155.375
21:09:53:018,-0.6631,-0.2113,13.0605,58.111,-0.0461,0.797,-0.183,155.7969
21:09:53:038,-0.7577,-0.5237,10.9033,57.2835,0.2866,0.4737,0.0985,156.3125
21:09:53:058,-0.2645,-0.5968,9.6488,58.5141,0.3398,-0.1991,0.3728,156.7031
21:09:53:080,0.1234,-0.2747,10.5047,58.6453,0.2522,-0.863,0.531,156.7812
21:09:53:097,0.4359,0.021,11.879,60.4648,0.3241,-1.1956,0.5933,156.5156
21:09:53:117,0.7579,0.1742,11.6647,58.1704,0.5507,-1.0654,0.5384,155.9531
21:09:53:138,0.7136,0.0114,9.699,59.1362,0.7225,-0.6201,0.4474,155.25
21:09:53:158,0.3832,-0.0449,7.5395,58.3949,0.7244,-0.1634,0.434,154.5625
21:09:53:179,0.1988,0.0173,6.0658,59.7717,0.6437,0.0585,0.5107,153.9375
21:09:53:197,0.224,0.1107,5.3021,58.0565,0.547,0.0255,0.5992,153.1094
21:09:53:217,0.3963,0.234,5.2973,59.5476,0.4274,-0.1,0.6737,152.5156
21:09:53:238,0.7734,0.3885,5.9928,59.833,0.3436,-0.2515,0.7278,151.7969
21:09:53:264,1.1326,0.4388,6.644,59.4156,0.3443,-0.4041,0.7278,151
21:09:53:284,1.3492,0.4567,7.0977,59.1996,0.3683,-0.5058,0.7003,150.1406
21:09:53:303,1.6126,0.5118,7.4904,59.9109,0.3441,-0.4939,0.6583,149.3281
21:09:53:317,1.9131,0.6411,7.9022,59.8068,0.2722,-0.3418,0.5936,148.5156
21:09:53:338,2.1417,0.7584,7.9824,60.3972,0.1715,-0.1143,0.4822,147.7344
21:09:53:364,2.2531,0.8374,8.0542,60.2306,0.0168,0.0851,0.3358,147.0781
21:09:53:381,2.4362,0.853,8.5235,59.7551,-0.1571,0.1451,0.1653,146.5156
21:09:53:403,2.6146,0.3549,9.1986,60.375,-0.3244,0.1118,-0.031,146.125
21:09:53:420,2.538,-0.4399,10.3562,60.7456,-0.5302,0.0201,-0.1678,146
21:09:53:438,2.4554,-1.3509,12.2692,62.0505,-0.6599,-0.0052,-0.1455,145.9531
21:09:53:463,3.2778,-2.5827,12.9719,61.9717,-0.539,0.1592,0.0497,146.1094
21:09:53:481,4.2187,-2.7228,11.4384,62.0559,-0.3835,0.3014,0.2591,146.375
21:09:53:497,5.3272,-1.9255,9.5853,60.6297,-0.4397,0.1328,0.3235,146.4688
21:09:53:517,5.5834,-0.8481,9.377,62.1196,-0.7172,-0.3258,0.0716,146.2031
21:09:53:538,3.182,-1.0361,12.0453,62.1662,-0.9526,-0.2715,-0.5332,145.8594
21:09:53:560,2.4314,-1.2013,11.4743,62.6378,-0.8029,0.1075,-0.4632,145.8594
21:09:53:580,2.6313,-0.7392,10.3586,61.3549,-0.6541,0.0867,-0.2749,146.2812
21:09:53:598,3.0623,0.0724,10.4329,60.5868,-0.5752,-0.3743,-0.2443,146.2812
21:09:53:616,3.0719,0.5968,11.4959,62.1228,-0.4738,-0.7549,-0.3785,147.5469
21:09:53:637,2.6074,0.6327,11.8215,60.2326,-0.3396,-0.5844,-0.5857,147.5469
21:09:53:657,1.8245,0.4866,10.9751,59.0027,-0.2397,-0.0337,-0.7348,147.9375
21:09:53:678,1.1805,0.416,9.3746,60.1379,-0.1595,0.4955,-0.7854,148.6719
21:09:53:696,0.722,0.3956,7.646,60.1909,-0.0786,0.7802,-0.7708,149.3125
21:09:53:721,0.4395,0.4232,6.2753,60.651,-0.0125,0.814,-0.7151,151.125
21:09:53:741,0.3533,0.5357,5.4864,61.1371,0.0205,0.6673,-0.6368,151.6094
21:09:53:763,0.3533,0.8015,5.2901,59.8152,0.0176,0.4308,-0.5729,152.4844
21:09:53:781,0.285,1.0529,5.8515,59.8152,-0.0101,0.1847,-0.5455,153.3125
21:09:53:800,0.3174,1.0924,6.7386,60.7488,-0.041,0.035,-0.5114,154.0312
21:09:53:819,0.5592,1.1546,7.7178,58.5347,-0.0887,0.0255,-0.4477,154.6562
21:09:53:837,0.9793,1.2157,8.8575,58.9484,-0.1268,0.0958,-0.4102,155.2812
21:09:53:858,1.0105,1.1905,9.8858,59.0514,-0.1366,0.2132,-0.4174,155.5625
21:09:53:879,0.8548,1.0349,10.8566,59.6943,-0.118,0.3802,-0.4027,156.0781
21:09:53:899,0.473,0.6075,11.3283,59.4778,-0.0756,0.5922,-0.3343,156.5469
21:09:53:917,0.2,0.3406,11.5905,59.4471,-0.0618,0.748,-0.1503,157.0469
21:09:53:939,0.303,0.2795,11.8945,59.1064,-0.0463,0.7283,0.082,157.5469
21:09:53:962,0.9099,0.1526,12.2919,57.5897,0.0146,0.5067,0.2782,157.9531
21:09:53:981,1.9322,-0.0605,12.4081,60.6995,0.0442,0.2673,0.372,158.1875
21:09:53:999,2.514,0.0964,12.6247,59.6385,-0.0562,0.1184,0.3283,158.1406
21:09:54:016,2.514,0.0641,13.6519,59.6035,-0.2397,-0.0616,0.1712,157.8594
21:09:54:037,1.6629,-0.3873,15.499,59.7362,-0.3172,-0.0896,0.0274,157.2656
21:09:54:057,0.2671,-1.0923,16.398,59.472,-0.077,0.2082,0.0801,156.9844
21:09:54:082,-0.2022,-1.8382,14.1343,59.2482,0.3862,0.6396,0.3667,156.8906
21:09:54:099,0.0719,-1.8537,10.3993,59.1422,0.6695,0.6324,0.6913,156.8906
21:09:54:116,0.5149,-1.4072,8.2122,59.3697,0.6349,0.0715,0.9075,156.6875
21:09:54:138,0.7291,-0.908,8.6288,58.7566,0.4344,-0.6355,0.9728,156.0938
21:09:54:157,0.7926,-0.7715,10.2928,57.6222,0.338,-0.9676,0.9374,155.2188
21:09:54:181,0.6418,-0.8218,11.0039,58.7666,0.3997,-0.8832,0.8796,154.0938
21:09:54:199,0.3257,-0.8386,10.6759,57.3427,0.5222,-0.5706,0.903,152.9219
21:09:54:216,0.1306,-0.756,9.8666,58.2088,0.6501,-0.2856,1.0029,151.875
21:09:54:238,0.2826,-0.6279,8.7856,57.8184,0.8171,-0.0747,1.1257,150.8125
21:09:54:257,0.5867,-0.4339,7.3324,59.2584,0.9518,0.0449,1.2077,149.6719
21:09:54:283,1.0009,-0.1467,6.2693,58.0426,0.9721,0.0516,1.2346,148.4688
21:09:54:298,1.4618,0.1203,5.7271,57.7685,0.9089,-0.0387,1.1765,147.0781
21:09:54:317,1.7646,0.3023,5.6325,56.7265,0.8008,-0.1769,1.0327,146.3438
21:09:54:337,1.9322,0.2711,5.8803,56.4424,0.6671,-0.2731,0.8396,143.5469
21:09:54:358,1.8712,0.1957,6.3842,58.2727,0.4964,-0.3074,0.6378,142.9062
21:09:54:382,1.6018,0.1107,7.1971,57.8093,0.318,-0.2454,0.4833,141.7969
21:09:54:398,1.4366,0.1466,7.9716,56.7935,0.1933,-0.1056,0.4146,140.9219
21:09:54:417,1.6473,0.3334,8.4421,59.2225,0.1427,0.0454,0.4026,140.2969
21:09:54:437,2.1621,0.4148,8.6432,57.405,0.1172,0.0846,0.3683,139.7812
21:09:54:457,2.6002,0.3214,9.0921,56.0374,0.0389,0.0633,0.2641,139.3125
21:09:54:485,2.9366,-0.1287,9.7385,56.9857,-0.1324,0.1299,0.1043,138.8438
21:09:54:546,2.8432,-0.6829,10.7537,56.2233,-0.3745,0.3152,-0.0171,138.4844
21:09:54:546,3.1712,-1.2169,11.594,57.8967,-0.5143,0.5208,-0.0161,138.2656
21:09:54:546,3.8943,-1.5365,11.5007,58.23,-0.5116,0.5499,0.0095,138.25
21:09:54:557,4.7167,-1.4275,10.5717,56.3907,-0.5635,0.3259,-0.0592,138.2969
21:09:54:579,4.6904,-0.9858,10.5897,56.4241,-0.8213,-0.1487,-0.3151,138.3281
21:09:54:596,3.5376,-1.2348,12.8797,56.4241,-1.0773,-0.5666,-0.6517,138.4219
21:09:54:616,1.4438,-2.3433,15.0692,55.6374,-1.0389,-0.2302,-0.7942,138.8125
21:09:54:636,0.0731,-3.0173,14.2504,56.0747,-0.6735,0.5845,-0.5077,139.5938
21:09:54:656,1.0368,-2.6833,10.8135,57.3629,-0.3151,0.9315,-0.0299,140.5625
21:09:54:678,2.6206,-1.3713,8.5283,58.2306,-0.2221,0.5592,0.2348,141.1875
21:09:54:696,3.7794,0.0485,8.1679,57.3704,-0.2525,-0.0856,0.1368,141.2656
21:09:54:717,3.8871,0.7033,8.7425,57.3612,-0.2501,-0.4196,-0.2501,141.0312
21:09:54:737,3.1353,0.5848,8.3116,56.0537,-0.2245,-0.2449,-0.6864,140.875
21:09:54:759,2.1405,0.3753,7.2773,56.1825,-0.2993,0.1437,-0.9476,141.1406
21:09:54:779,1.3145,0.5178,6.6967,54.8304,-0.4117,0.4249,-1.0054,141.9219
21:09:54:798,0.9889,0.7847,6.6488,53.9079,-0.4131,0.4441,-0.9495,143.0312
21:09:54:821,1.0643,0.9978,6.7805,55.4579,-0.2914,0.3187,-0.8808,143.625
21:09:54:837,1.0117,1.3294,6.8799,56.2822,-0.1313,0.1615,-0.8669,143.625
21:09:54:857,0.8333,1.5101,6.9098,53.7838,-0.0136,0.0377,-0.8792,145.8281
21:09:54:881,0.6262,1.5784,7.1097,53.8584,0.0115,-0.0307,-0.8723,146.8438
21:09:54:898,0.5436,1.5628,7.7286,54.9699,-0.0338,-0.0259,-0.8342,148.2969
21:09:54:921,0.5376,1.4862,8.6133,54.4497,-0.1049,0.0646,-0.7889,149.2969
21:09:54:938,0.5675,1.5317,10.6735,55.2264,-0.2392,0.3858,-0.7466,150.25
21:09:54:957,0.4598,1.1845,11.7341,54.9553,-0.2104,0.4958,-0.766,150.25
21:09:54:980,-0.0825,0.6039,12.1435,53.9966,-0.1236,0.5493,-0.73,151.125
21:09:54:998,-0.5673,0.0222,12.0956,52.7439,-0.061,0.5048,-0.5777,152.8906
21:09:55:017,-0.7636,-0.3861,12.3877,51.5486,-0.0567,0.3152,-0.3434,153.7656
21:09:55:037,-0.5063,-0.6279,13.2856,54.0627,-0.0575,0.112,-0.1159,154.6406
21:09:55:057,-0.3339,-0.7787,14.1211,52.9138,0.0096,-0.0025,0.0487,155.3438
21:09:55:080,-0.2692,-0.8553,14.3701,53.7001,0.1055,-0.0065,0.1986,155.875
21:09:55:098,-0.1543,-0.914,14.4228,52.8505,0.2072,0.0252,0.3427,155.875
21:09:55:120,0.0839,-0.8984,14.1199,52.5226,0.3675,0.1192,0.4926,155.5938
21:09:55:137,0.3245,-0.8194,12.7421,51.1506,0.5643,0.3347,0.6037,155.5938
21:09:55:157,0.6346,-0.756,10.4915,54.0564,0.6842,0.462,0.6607,154.9531
21:09:55:180,0.9171,-0.6913,8.6408,51.5775,0.6344,0.307,0.6628,154.3281
21:09:55:200,1.0703,-0.58,8.1248,52.7694,0.4256,-0.1319,0.6218,153.625
21:09:55:223,0.8979,-0.4555,9.3172,50.5795,0.2085,-0.5548,0.556,152.9219
21:09:55:237,0.8632,-0.6434,10.5789,51.1609,0.1489,-0.6774,0.4971,152.1875
21:09:55:256,0.6011,-0.8062,10.9536,51.6916,0.1731,-0.4976,0.4513,151.5
21:09:55:283,0.0947,-0.8098,10.5155,50.1432,0.241,-0.2009,0.4892,151.1875
21:09:55:299,-0.201,-0.8027,9.4129,51.1245,0.3563,0.0143,0.5888,150.6094
21:09:55:317,-0.432,-0.7129,8.0901,49.828,0.4551,0.1285,0.7342,150.0781
21:09:55:338,-0.2321,-0.7033,6.8799,49.9218,0.538,0.1269,0.9174,149.5
21:09:55:355,0.0803,-0.4447,5.976,50.54,0.5947,0.0191,1.1017,148.8594
21:09:55:379,0.6274,-0.0748,5.3691,50.9017,0.6171,-0.1689,1.2359,148.0156
21:09:55:399,1.2068,0.313,5.1895,50.7779,0.6115,-0.3879,1.2777,146.9531
21:09:55:416,1.7934,0.659,5.1908,51.666,0.5611,-0.6015,1.2127,145.7656
21:09:55:436,2.1621,0.9559,5.6708,50.1539,0.4352,-0.7498,1.0519,144.3281
21:09:55:456,2.18,1.1223,6.5626,50.4587,0.2599,-0.7594,0.8463,142.1406
21:09:55:480,2.1202,1.1438,7.6197,48.9119,0.0866,-0.6044,0.6495,140.8906
21:09:55:497,2.1908,1.1438,8.4409,49.1013,-0.0397,-0.3114,0.4535,139.7969
21:09:55:517,2.1693,1.0265,8.6252,49.9386,-0.142,0.0247,0.2242,138.9375
21:09:55:536,1.9155,0.7165,8.5917,48.6348,-0.2945,0.2729,-0.0179,138.3125
21:09:55:565,1.6653,0.349,8.7294,48.6222,-0.5334,0.3624,-0.2704,137.9531
21:09:55:582,1.105,0.0784,9.8008,49.4605,-0.8298,0.2385,-0.5625,137.8438
21:09:55:598,0.1629,-0.6327,12.0585,47.9355,-0.9976,0.1597,-0.7793,138.0156
21:09:55:616,-0.2142,-1.8226,13.3789,49.1812,-0.9417,0.3424,-0.7724,138.5
21:09:55:637,0.0276,-2.3421,13.2221,49.3086,-0.8493,0.6436,-0.5484,139.3438
21:09:55:657,1.0153,-1.7292,12.4919,48.63,-0.8629,0.8598,-0.2952,140.3125
21:09:55:683,1.7766,-0.9439,12.4691,48.9433,-0.9151,0.777,-0.2579,141.1094
21:09:55:699,1.7802,-0.7344,13.2329,47.3268,-0.9039,0.6074,-0.3524,141.6094
21:09:55:719,1.1841,-0.92,13.8781,49.4571,-0.746,0.6369,-0.358,141.9531
21:09:55:737,1.1254,-1.0564,13.1586,47.0923,-0.42,0.7682,-0.1801,142.5625
21:09:55:757,2.1764,-1.0576,11.5976,47.8793,-0.0724,0.6423,-0.0003,143.0312
21:09:55:780,3.3185,-1.1462,10.1515,48.7247,0.1502,0.1978,-0.0035,143.2969
21:09:55:797,3.4011,-0.981,9.5602,48.2179,0.1803,-0.2044,-0.1724,143.3281
21:09:55:822,2.7977,-0.9643,9.5135,47.605,0.0924,-0.251,-0.4081,143.3438
21:09:55:836,1.791,-1.1438,9.2094,49.6804,0.0053,0.0412,-0.5852,143.4219
21:09:55:856,0.8453,-1.1666,8.29,46.368,-0.0442,0.401,-0.6203,143.7344
21:09:55:882,0.297,-0.8817,7.2414,49.8066,-0.0629,0.6135,-0.5394,144.2812
21:09:55:900,0.1055,-0.5177,6.3723,49.105,-0.0519,0.5765,-0.4206,145
21:09:55:916,0.1653,-0.0221,5.9701,49.1358,-0.0202,0.3983,-0.3138,145.7188
21:09:55:936,0.3377,0.3897,5.9174,49.3127,0.0107,0.1682,-0.2717,146.3125
21:09:55:956,0.3461,0.7093,6.1113,49.7097,0.0099,0.0311,-0.2829,146.75
21:09:55:984,0.7471,1.0888,6.413,50.138,-0.1284,0.0556,-0.3511,147.0938
21:09:56:000,1.1817,1.643,7.5778,49.681,-0.4935,0.4111,-0.5466,147.4062
21:09:56:017,1.4163,1.8274,9.1915,49.3756,-0.9065,1.213,-0.8725,147.9688
21:09:56:036,0.5687,1.5078,10.4556,48.1555,-1.0778,1.9986,-1.2419,148.5938
21:09:56:056,-0.966,0.6853,10.6986,48.0138,-0.885,2.2764,-1.411,149.6875
21:09:56:081,-2.8933,0.1885,10.1898,48.4298,-0.5039,2.0031,-1.2685,151.1875
21:09:56:096,-4.1766,-0.2053,9.6021,49.886,-0.1081,1.3096,-0.8837,153
21:09:56:116,-4.2867,-0.5632,9.4608,48.7469,0.1718,0.4803,-0.4158,154.6562
21:09:56:136,-3.6044,-0.7177,10.0977,49.6207,0.2975,-0.1852,-0.0485,155.7812
21:09:56:156,-2.8191,-0.999,11.0278,48.2743,0.2783,-0.4792,0.1283,156.3438
21:09:56:180,-2.0876,-1.4,12.0657,50.2593,0.1396,-0.4401,0.1895,156.4062
21:09:56:198,-1.8386,-1.4539,13.1491,49.3676,-0.041,-0.2539,0.172,156.2344
21:09:56:216,-1.598,-1.224,13.9906,47.7305,-0.1949,-0.0145,0.1296,155.9844
21:09:56:236,-1.3454,-1.3581,14.7939,50.0318,-0.2272,0.1794,-0.0046,155.875
21:09:56:256,-2.6024,-2.1386,14.6574,50.7117,0.0016,0.2143,-0.1497,155.6562
21:09:56:281,-4.2628,-2.9072,13.1251,48.0742,0.3848,0.2042,0.0252,155.5625
21:09:56:300,-4.0557,-3.2376,10.6376,51.6113,0.6658,0.156,0.4633,155.6719
21:09:56:318,-2.4252,-3.0209,8.6875,49.5188,0.6389,0.002,0.7749,155.8281
21:09:56:335,-1.118,-2.6318,8.5067,52.2948,0.3936,-0.2981,0.7877,155.4219
21:09:56:357,-1.0869,-2.1769,9.9935,51.197,-0.0061,-0.1285,0.3451,154.6094
21:09:56:382,-1.3837,-2.0596,9.5674,50.463,-0.143,0.3861,0.2332,153.7344
21:09:56:400,-1.5382,-1.983,8.4756,49.8422,-0.1691,0.696,0.2226,153.0312
21:09:56:421,-1.7584,-1.8262,7.0941,51.1596,-0.1151,0.6574,0.3155,152.3906
21:09:56:436,-1.7979,-1.6562,6.2981,51.7648,-0.033,0.3365,0.5046,152.3906
21:09:56:456,-1.5274,-1.5664,5.9868,51.3711,0.0961,-0.0875,0.723,152.1875
21:09:56:481,-1.1778,-1.254,5.7558,51.8923,0.2152,-0.4651,0.9129,151.8906
21:09:56:500,-0.7134,-0.8745,5.8013,52.6462,0.2879,-0.7511,1.042,150.5312
21:09:56:517,-0.1878,-0.5321,5.8372,53.638,0.3196,-0.8744,1.0724,150.5312
21:09:56:535,0.3856,-0.1897,5.7258,51.8295,0.286,-0.8502,1.0087,149.4688
21:09:56:606,0.8596,0.2316,5.6756,53.2325,0.1595,-0.8052,0.8372,148.2969
21:09:56:606,0.9339,0.5357,6.2083,53.5495,-0.0258,-0.7831,0.5659,145.375
21:09:56:607,0.6274,0.513,7.2593,53.8522,-0.1787,-0.7056,0.2809,145.375
21:09:56:619,0.2551,0.3071,8.2326,53.8289,-0.2312,-0.5612,0.0654,144.5156
21:09:56:640,-0.0166,0.0006,8.7222,53.7383,-0.2056,-0.4001,-0.0784,143.9688
21:09:56:654,-0.1304,-0.428,8.7952,53.8289,-0.2144,-0.3708,-0.1969,143.7188
21:09:56:675,-0.0921,-0.8876,9.5518,52.9161,-0.3441,-0.5253,-0.3215,143.6875
21:09:56:698,-0.1819,-1.5915,11.6168,52.9161,-0.5185,-0.7405,-0.4762,143.7188
21:09:56:719,-0.6739,-2.6534,13.768,53.5913,-0.5593,-0.7178,-0.5354,143.9219
21:09:56:742,-0.7732,-3.5368,14.4838,53.1164,-0.4045,-0.476,-0.3729,144.2031
21:09:56:754,-0.1028,-3.8026,13.1335,53.9526,-0.1715,-0.2867,-0.0832,144.6406
21:09:56:777,0.443,-3.1825,11.5103,55.2705,-0.0471,-0.4286,0.1126,145.1562
21:09:56:802,0.6154,-2.2452,10.8985,53.7045,-0.0879,-0.7232,0.1038,145.5
21:09:56:819,0.8465,-2.1039,11.7197,54.3638,-0.2373,-0.7911,-0.0613,145.5781
21:09:56:837,1.0177,-2.5899,12.505,53.7045,-0.318,-0.4491,-0.2131,145.3906
21:09:56:856,1.2343,-2.803,11.9628,55.5038,-0.3116,0.0135,-0.2552,145.1562
21:09:56:882,1.852,-2.5947,10.9739,54.3541,-0.2985,0.1333,-0.2848,145.25
21:09:56:898,2.0424,-2.1243,10.9584,55.3053,-0.2977,-0.0648,-0.4302,145.5
21:09:56:917,1.6808,-1.9303,11.1786,55.3912,-0.2168,-0.1154,-0.6254,145.8125
21:09:56:935,1.0296,-1.9076,10.4017,54.2093,-0.0887,0.0912,-0.7583,146.1875
21:09:56:956,0.2216,-1.6394,8.7916,54.0572,-0.0176,0.3397,-0.7735,146.7656
21:09:56:976,-0.3231,-1.2671,7.4676,54.9512,-0.0181,0.438,-0.7034,147.5625
21:09:57:001,-0.4991,-0.9331,6.6368,54.6457,-0.0543,0.4407,-0.5945,148.5
21:09:57:016,-0.5948,-0.5812,6.2669,54.932,-0.0722,0.3911,-0.4832,149.3594
21:09:57:036,-0.5506,-0.2352,5.988,55.4319,-0.0346,0.307,-0.3838,150.1562
21:09:57:056,-0.4153,0.0353,5.6983,55.7884,-0.0003,0.1664,-0.3252,150.8125
21:09:57:085,-0.2704,0.1802,5.8085,55.691,-0.0189,0.0132,-0.3223,151.3281
21:09:57:098,-0.219,0.3909,6.3292,55.0697,-0.0762,-0.1034,-0.3527,151.7656
21:09:57:115,-0.116,0.3214,7.2593,55.5108,-0.1284,-0.1881,-0.4094,152.1406
21:09:57:136,-0.3327,0.1909,8.308,54.9329,-0.1662,-0.1713,-0.4728,152.5
21:09:57:156,-0.8031,-0.0425,9.462,56.244,-0.212,-0.0238,-0.4869,153.125
21:09:57:181,-1.4436,-0.1718,10.8435,56.5686,-0.261,0.3102,-0.407,153.6406
21:09:57:199,-1.8063,-0.1179,11.7772,54.5561,-0.2085,0.7195,-0.2573,154.1719
21:09:57:215,-1.847,-0.0401,11.8203,58.4486,-0.0602,0.9933,-0.1258,154.6719
21:09:57:236,-1.8626,-0.1383,11.3618,56.9483,0.0999,0.9616,-0.0043,154.875
21:09:57:255,-1.5801,-0.1502,11.108,54.5907,0.2328,0.6316,0.1115,155.2188
21:09:57:276,-1.0473,-0.2951,11.363,56.8221,0.2977,0.2353,0.152,155.4375
21:09:57:297,-0.6212,-0.5944,11.9316,57.2334,0.2874,0.001,0.1179,155.5
21:09:57:316,-0.2381,-0.5704,12.0118,56.746,0.2274,-0.0619,0.0399,155.4062
21:09:57:335,-0.0681,-0.4699,12.3506,55.8033,0.0439,-0.109,-0.1332,155.2812
21:09:57:357,-0.6415,-1.0553,13.6614,57.3744,-0.1438,-0.2225,-0.3718,155.1875
21:09:57:383,-2.2863,-2.1494,15.645,56.4638,-0.135,-0.2156,-0.4113,155.2344
21:09:57:399,-3.1363,-3.4219,15.8114,57.4228,0.2416,0.0755,-0.0448,155.5
21:09:57:419,-2.4132,-3.7607,12.4703,56.8693,0.6288,0.3877,0.4617,155.9219
21:09:57:435,-1.8303,-3.0867,9.6176,57.773,0.6088,0.2628,0.7877,156.2031
21:09:57:456,-1.9476,-2.317,9.1915,57.5098,0.3539,-0.2241,0.9158,155.75
21:09:57:475,-1.6136,-2.3038,11.0937,56.9216,0.1928,-0.5921,1.0199,154.9531
21:09:57:499,-1.1994,-2.4187,11.7257,56.6578,0.3475,-0.5517,1.1222,153.9062
21:09:57:516,-1.1455,-1.9974,10.0234,56.5115,0.6264,-0.3961,1.2532,152.6875
21:09:57:538,-0.8834,-1.4754,7.9489,57.2898,0.7667,-0.3442,1.3853,151.4219
21:09:57:558,-0.3949,-1.2671,6.4381,56.8496,0.7774,-0.3873,1.4673,149.9844
21:09:57:580,-0.1208,-1.0959,5.575,58.9122,0.6988,-0.3908,1.5257,148.4062
21:09:57:599,0.1629,-0.8853,5.1488,57.6779,0.5726,-0.3402,1.5877,146.7188
21:09:57:616,0.4754,-0.5632,5.0818,59.5053,0.4703,-0.3016,1.6194,145.0781
21:09:57:635,0.8896,-0.1311,5.065,56.7554,0.4216,-0.3953,1.5787,143.25
21:09:57:655,1.2379,0.0916,5.3631,58.0097,0.3859,-0.577,1.4404,141.4062
21:09:57:676,1.0536,-0.082,6.0191,58.646,0.33,-0.6502,1.2796,139.6875
21:09:57:701,0.4598,-0.3406,6.9074,56.9157,0.2061,-0.4805,1.1957,138.0156
21:09:57:718,0.3365,-0.0928,7.8016,57.3342,0.0612,-0.1682,1.1896,137.2656
21:09:57:737,1.0787,0.4639,8.8922,58.4643,-0.0383,-0.0949,0.8106,135.8438
21:09:57:758,1.633,0.1035,9.3315,59.6829,-0.0956,-0.3394,0.4647,133.8594
21:09:57:782,1.8209,-0.7416,10.6926,59.5904,-0.282,-0.5631,0.103,132.625
21:09:57:799,1.384,-1.4826,12.7696,58.8986,-0.4458,-0.4257,-0.1287,131.6875
21:09:57:817,1.4558,-2.4654,13.665,58.7524,-0.424,0.0982,-0.1729,131.1719
21:09:57:835,2.0208,-2.8102,12.3099,58.065,-0.3318,0.7086,-0.1114,131.0469
21:09:57:855,2.8875,-2.3577,10.2868,58.6667,-0.3393,0.9086,-0.0802,131.1719
21:09:57:877,3.6632,-1.503,9.0957,58.0712,-0.4951,0.5672,-0.276,131.5156
21:09:57:900,3.2969,-1.0948,9.8199,58.4461,-0.7694,-0.0379,-0.7141,131.5156
21:09:57:916,2.1836,-2.0033,12.3338,60.9015,-0.9657,-0.4949,-1.1178,131.6406
21:09:57:934,0.5568,-3.3812,14.3785,57.7058,-0.9486,-0.35,-1.2102,131.9688
21:09:57:957,-0.4979,-3.5787,14.57,59.0597,-0.7092,0.1072,-0.8773,132.75
21:09:57:981,0.2204,-2.8186,13.0234,59.8967,-0.3502,0.3086,-0.4137,133.9688
21:09:58:000,1.3397,-1.4802,11.0194,60.286,-0.0394,0.1855,-0.1729,136.2656
21:09:58:015,2.204,-0.5764,9.3578,59.5746,0.1412,-0.0105,-0.2254,136.5781
21:09:58:035,2.4733,0.1778,7.9991,60.6047,0.1297,-0.0041,-0.4773,136.875
21:09:58:054,2.2076,0.4926,7.2234,59.2194,-0.0551,0.2372,-0.831,137.0781
21:09:58:076,1.4079,0.6734,6.8439,60.1494,-0.2431,0.5714,-1.1655,137.4531
21:09:58:097,0.5915,0.3861,6.7518,60.2071,-0.334,0.9371,-1.3599,138.2031
21:09:58:117,-0.3243,0.2089,6.2897,59.9075,-0.3278,1.2625,-1.3673,138.75
21:09:58:134,-0.6906,0.4112,5.8815,59.3774,-0.2551,1.3618,-1.2198,140.0625
21:09:58:158,-0.6367,0.7608,5.6492,59.618,-0.1651,1.2236,-1.0811,141.7031
21:09:58:174,-0.6439,0.9224,6.012,59.0377,-0.0575,0.8745,-0.9966,143.4062
21:09:58:195,-0.8211,0.7189,6.7757,60.68,0.094,0.4287,-0.9383,144.9375
21:09:58:217,-1.1348,0.519,7.3755,59.5902,0.2136,0.0625,-0.8725,146.25
21:09:58:235,-1.5262,0.3549,8.229,59.4038,0.2043,-0.1402,-0.7988,148.625
21:09:58:258,-1.7967,0.173,9.6009,59.8259,0.1499,-0.2417,-0.6949,149.1562
21:09:58:274,-2.0122,0.0066,10.9883,58.9992,0.1435,-0.1953,-0.5868,150.0781
21:09:58:295,-1.9595,-0.2269,11.6587,59.4116,0.1561,-0.0347,-0.4786,150.9219
21:09:58:316,-1.6292,-0.4196,12.0166,59.3702,0.0551,0.2122,-0.411,151.625
21:09:58:335,-1.5394,-0.4747,12.8546,59.5746,-0.1848,0.5906,-0.3993,152.2031
21:09:58:355,-1.5944,-0.841,13.8721,60.3849,-0.3505,0.9485,-0.4193,152.7188
21:09:58:376,-1.7477,-1.2013,13.823,59.0469,-0.3619,1.1483,-0.4153,153.2188
21:09:58:399,-2.3618,-1.2468,13.6016,59.8009,-0.3499,0.9818,-0.358,153.7344
21:09:58:415,-3.0022,-1.9914,14.4479,59.8648,-0.2392,0.3786,-0.2949,154.3281
21:09:58:435,-4.4615,-3.1262,15.59,58.4741,0.0621,-0.2097,-0.0882,154.875
21:09:58:456,-4.4028,-4.3102,15.08,60.1948,0.4983,-0.2321,0.4146,155.3281
21:09:58:476,-3.2309,-4.3365,11.7928,60.222,0.7494,0.0636,0.9094,155.5625
21:09:58:499,-2.2696,-3.6039,9.1148,59.9438,0.6016,-0.003,1.1781,155.3906
21:09:58:516,-1.9607,-3.1358,8.8132,61.4332,0.3087,-0.4201,1.2508,154.6719
21:09:58:539,-2.266,-2.8473,9.8582,59.4799,0.188,-0.753,1.3371,153.5781
21:09:58:556,-2.3426,-2.4834,9.9277,59.2929,0.3236,-0.8321,1.5286,151.4688
21:09:58:582,-1.9488,-1.8262,8.6899,62.6115,0.5145,-0.7567,1.7701,149.875
21:09:58:603,-0.9037,-1.2599,7.1504,61.7201,0.5867,-0.6353,1.9318,148.1562
21:09:58:619,-0.2345,-0.7129,6.1173,63.5256,0.5508,-0.5298,1.9467,146.1094
21:09:58:681,0.0684,-0.2424,5.5343,63.0023,0.4943,-0.4694,1.9097,145
21:09:58:681,0.5257,0.0497,5.2542,62.2203,0.4525,-0.4635,1.8386,142.7656
21:09:58:681,0.8548,0.398,5.3631,64.4859,0.4168,-0.52,1.7134,140.6719
21:09:58:694,1.1266,0.6075,5.7199,63.7398,0.4269,-0.6078,1.5371,138.5312
21:09:58:716,1.275,0.6351,6.0934,62.9213,0.4376,-0.6957,1.3097,136.5
21:09:58:734,1.1589,0.4794,6.644,63.921,0.383,-0.6566,1.0764,134.7188
21:09:58:754,1.2056,0.3202,7.3324,65.055,0.2754,-0.5141,0.8647,133.0781
21:09:58:775,1.3241,0.1467,8.0123,63.665,0.2029,-0.3703,0.6388,131.7188
21:09:58:798,1.4498,-0.2975,8.2098,63.665,0.1436,-0.2592,0.3848,130.6094
21:09:58:816,1.7826,-1.2276,8.0853,65.1222,0.0192,-0.1452,0.1627,129.7969
21:09:58:835,1.9562,-2.0022,8.3391,64.3804,-0.2162,-0.166,-0.015,129.2031
21:09:58:855,1.9765,-2.6354,9.8941,66.1687,-0.4887,-0.3365,-0.1569,128.8438
21:09:58:876,1.955,-3.38,12.1627,64.2569,-0.6187,-0.4052,-0.2422,128.8438
21:09:58:898,2.6074,-3.9929,12.9001,66.8379,-0.5822,-0.1503,-0.244,129
21:09:58:914,3.3736,-3.7176,11.5306,66.5804,-0.587,0.2228,-0.2879,129.2656
21:09:58:934,3.6429,-2.7707,10.0007,66.8198,-0.7808,0.2974,-0.525,129.5156
21:09:58:954,2.5499,-1.8764,10.2724,65.5245,-1.1129,0.062,-0.9492,129.8438
21:09:58:975,0.9195,-1.995,12.2357,67.2197,-1.3153,-0.1183,-1.3197,130.4375
21:09:58:998,-0.5326,-2.8796,13.9212,66.305,-1.2133,0.0151,-1.3972,131.4375
21:09:59:014,-0.9001,-3.0891,13.9906,66.7597,-0.8887,0.2545,-1.1308,132.9062
21:09:59:034,0.1474,-2.3014,12.7911,66.1595,-0.5452,0.243,-0.8299,134.4844
21:09:59:059,1.0811,-1.3162,11.8885,66.6967,-0.3156,-0.0065,-0.8038,135.7969
21:09:59:074,1.2212,-0.981,11.2529,67.0684,-0.1513,-0.112,-0.9681,136.7188
21:09:59:096,0.9267,-0.9583,10.0594,66.0262,-0.0466,0.1054,-1.1048,137.625
21:09:59:119,0.5113,-0.9296,8.4241,65.8754,-0.0101,0.3946,-1.1559,138.7188
21:09:59:136,-0.3961,-0.5441,6.1209,68.1662,-0.0186,0.5453,-1.1287,139.9375
21:09:59:155,-0.4823,-0.3202,5.8001,66.7837,-0.0474,0.4404,-0.9109,140.6094
21:09:59:177,-0.7206,-0.2005,5.824,66.3967,-0.0176,0.3403,-0.8131,142.6562
21:09:59:199,-0.687,-0.0281,5.8767,68.2601,0.0218,0.2558,-0.6983,144.9375
21:09:59:219,-0.5637,0.1826,6.0886,66.7739,0.0376,0.1621,-0.6118,145.9062
21:09:59:235,-0.5781,0.3849,6.82,67.642,0.0051,0.0537,-0.5508,145.9062
21:09:59:254,-0.5757,0.586,8.1236,67.475,-0.0184,-0.0044,-0.5117,146.7344
21:09:59:274,-0.4859,0.6255,9.1771,68.038,0.024,-0.0102,-0.5114,147.4219
21:09:59:302,-0.6475,0.6782,9.978,69.0171,0.0663,0.047,-0.5292,148.0469
21:09:59:318,-0.6523,0.5932,10.7166,70.5005,0.0916,0.2055,-0.5362,148.6406
21:09:59:337,-0.6367,0.4699,10.847,67.0507,0.1055,0.4084,-0.562,149.2031
21:09:59:353,-0.7625,0.2843,10.8889,68.5704,0.0338,0.5384,-0.5886,149.8125
21:09:59:375,-1.1563,-0.0473,11.6036,68.9312,-0.0714,0.5493,-0.5686,150.4531
21:09:59:399,-1.4592,-0.313,12.7828,70.8455,-0.0828,0.4558,-0.476,151.1094
21:09:59:417,-1.5836,-0.5321,13.4866,69.2245,-0.0141,0.3722,-0.3484,152.5625
21:09:59:433,-1.513,-0.5968,13.8195,69.6049,0.0128,0.4188,-0.2246,153.1562
21:09:59:454,-1.6627,-0.5573,13.7931,69.6277,-0.0061,0.4553,-0.1298,153.375
21:09:59:473,-1.8386,-0.7093,14.6873,70.4618,-0.0237,0.349,-0.0448,153.75
21:09:59:499,-2.691,-1.0445,15.9479,70.18,0.2056,0.0902,0.0777,154
21:09:59:517,-3.0621,-1.9016,15.6139,71.1059,0.6434,0.0193,0.413,154.1562
21:09:59:535,-2.3127,-2.1314,12.918,71.4536,0.979,0.1283,0.8149,154.1875
21:09:59:556,-1.355,-1.4874,10.6136,71.5458,1.0016,-0.0246,1.0434,153.9688
21:09:59:574,-0.5494,-1.2049,10.4281,70.3331,0.8456,-0.3919,1.0546,153.3125
21:09:59:600,-0.6655,-1.2061,11.345,72.3595,0.7667,-0.6084,0.9443,152.8281
21:09:59:616,-1.0761,-1.5999,11.2409,70.1891,0.8373,-0.5431,0.8737,151.75
21:09:59:634,-1.3634,-1.8214,9.9408,71.5513,0.9135,-0.3005,0.9321,150.5625
21:09:59:654,-1.2497,-1.6694,8.3343,71.2347,0.9305,-0.0933,1.0633,149.4844
21:09:59:675,-1.015,-1.4,6.9768,71.2433,0.9284,-0.0302,1.1776,148.5469
21:09:59:699,-0.7002,-1.2025,5.8922,71.4489,0.9305,-0.0776,1.2652,147.5
21:09:59:716,-0.3925,-1.0576,4.9992,70.8035,0.9215,-0.1828,1.315,145.6875
21:09:59:734,-0.1292,-0.9391,4.3408,71.3292,0.8708,-0.3048,1.3374,144.3906
21:09:59:755,0.042,-0.7308,4.3145,71.6784,0.7505,-0.423,1.3406,142.9531
21:09:59:774,0.2587,-0.5321,4.7275,70.9564,0.6227,-0.5109,1.3238,141.4688
21:09:59:803,0.6142,-0.3561,5.3428,70.6377,0.5241,-0.5841,1.2519,140.0469
21:09:59:821,0.8956,-0.1526,6.2634,69.9968,0.4104,-0.5937,1.1123,138.5469
21:09:59:837,1.038,-0.0054,7.1756,70.9172,0.2948,-0.468,0.9075,137.1094
21:09:59:854,0.8309,0.0054,7.9585,69.6535,0.1715,-0.2409,0.6657,135.7656
21:09:59:876,0.7686,0.1478,8.2482,70.1356,0.0551,0.0404,0.4474,134.6875
21:09:59:903,0.9003,0.3178,8.0566,70.6291,-0.065,0.1714,0.173,133.8125
21:09:59:919,0.953,0.3358,8.15,71.0043,-0.2352,0.0729,-0.1362,133.1719
21:09:59:934,0.8979,-0.2448,9.0358,71.2635,-0.4487,-0.1271,-0.435,132.8281
21:09:59:957,0.5711,-1.157,10.4341,71.427,-0.6866,-0.1383,-0.5961,132.7969
21:09:59:973,0.4897,-2.0428,11.6946,71.7405,-0.9015,0.0798,-0.5404,133.125
21:09:59:994,1.378,-2.3134,12.1615,69.9241,-1.0211,0.3205,-0.3591,134.0625
21:10:00:016,2.6517,-2.0201,11.8059,71.9755,-1.1076,0.3059,-0.3106,134.6719
21:10:00:034,2.6601,-1.6095,12.3075,71.8643,-1.2442,0.0383,-0.4853,135.0781
21:10:00:058,1.4151,-1.9555,13.7835,71.1932,-1.2789,-0.0787,-0.6688,135.3906
21:10:00:073,0.0564,-2.548,14.0277,70.3963,-1.1116,0.2295,-0.6086,135.625
21:10:00:097,-0.0442,-2.5133,12.3542,70.4297,-0.8599,0.5797,-0.2778,136.2812
21:10:00:117,1.0236,-1.6825,10.4269,71.5815,-0.6741,0.516,0.0447,137.0469
21:10:00:134,2.2411,-0.8697,9.4369,70.1805,-0.5579,0.0593,0.1246,137.5469
21:10:00:154,2.6577,-0.1119,9.2429,69.9768,-0.5326,-0.313,-0.0152,137.6719
21:10:00:174,2.5308,0.2771,9.3327,70.2834,-0.5713,-0.2986,-0.2722,137.5312
21:10:00:202,1.7838,0.4088,9.0634,71.5237,-0.6259,0.0353,-0.5476,137.4375
21:10:00:218,0.892,0.3418,8.5283,68.7034,-0.6631,0.3879,-0.734,137.5469
21:10:00:235,-0.1878,0.3801,8.0315,70.8825,-0.6184,0.5277,-0.7806,137.9844
21:10:00:260,-0.7002,0.4459,7.8088,70.4345,-0.4749,0.4596,-0.6704,138.75
21:10:00:273,-0.7756,0.6853,7.5969,70.6823,-0.2586,0.2481,-0.5149,140.0781
21:10:00:295,-0.6248,1.017,7.3695,69.4564,-0.0858,0.0383,-0.3812,140.8906
21:10:00:319,-0.2633,1.3138,7.5095,69.434,-0.0069,-0.1152,-0.3122,141.5
21:10:00:336,0.0396,1.4,8.0542,66.2864,0.0109,-0.2036,-0.3388,141.9062
21:10:00:354,0.1342,1.2468,8.709,69.9765,0.0101,-0.1695,-0.4094,142.25
21:10:00:375,0.0899,1.1378,9.0586,68.6473,-0.0205,-0.0254,-0.4698,142.625
21:10:00:401,-0.0717,1.06,9.5111,67.6679,-0.1079,0.1315,-0.5319,143.0469
21:10:00:417,-0.7828,0.8613,10.5143,69.2143,-0.1563,0.2084,-0.5561,143.5781
21:10:00:437,-1.8925,0.3094,11.691,68.2354,-0.0623,0.1424,-0.431,144.2031
21:10:00:454,-1.8566,-0.24,12.7983,67.892,0.2325,-0.1026,-0.105,144.8281
21:10:00:475,-1.2161,-0.4555,12.6571,68.5646,0.6219,-0.4217,0.2319,145.3438
21:10:00:500,-0.7062,-0.0629,11.958,67.8239,0.7769,-0.709,0.4727,145.4531
21:10:00:516,0.2419,0.2987,12.2716,68.0187,0.6554,-0.7793,0.58,145.3438
21:10:00:535,1.36,0.416,12.9408,68.7589,0.4591,-0.5098,0.4881,144.9062
21:10:00:556,0.2838,0.4268,13.4902,67.4171,0.1361,0.2066,0.1272,143.8438
21:10:00:575,-0.4668,-0.1119,13.6219,67.334,0.1587,0.3893,0.1224,143.2344
21:10:00:601,-1.622,-0.5058,13.1694,64.8079,0.3196,0.5581,0.3254,142.9375
21:10:00:620,-1.5741,-0.8912,11.6048,65.8033,0.5734,0.5903,0.7051,142.7031
21:10:00:638,-0.8606,-0.9296,9.8271,65.7469,0.7396,0.2881,1.0218,142.7031
21:10:00:653,-0.0143,-0.7667,9.2489,66.7544,0.7034,-0.2513,1.1837,142.4062
21:10:00:673,0.6226,-0.5632,10.5981,64.6593,0.5657,-0.7101,1.192,141.6562
21:10:00:739,0.8261,-0.7021,12.1627,65.0715,0.5228,-0.8137,1.091,140.5156
21:10:00:739,0.2347,-0.7919,13.2005,64.4198,0.5768,-0.4883,0.9949,139.1719
21:10:00:739,-0.3123,-1.0086,12.6032,63.4335,0.7774,0.0633,1.0074,137.8438
21:10:00:753,-0.4692,-1.1139,10.1575,63.2129,1.02,0.4566,1.1211,136.5781
21:10:00:772,-0.1711,-0.835,8.0111,64.4542,1.154,0.5299,1.2897,135.4062
21:10:00:794,0.5975,-0.5788,6.5949,64.2772,1.2599,0.3442,1.3938,133.7188
21:10:00:821,1.2954,-0.234,5.508,63.07,1.3396,0.0039,1.3819,132.3594
21:10:00:841,1.858,0.2388,4.7083,61.0745,1.3002,-0.3607,1.2487,130.8281
21:10:00:854,2.1561,0.574,4.5335,63.8717,1.1018,-0.5772,0.9829,129.3281
21:10:00:874,2.0555,0.598,4.9789,61.1279,0.8091,-0.6044,0.649,127.8438
21:10:00:900,1.5803,0.4304,5.4924,62.1497,0.5201,-0.4419,0.3744,126.5938
21:10:00:918,1.2224,0.1239,6.2083,62.1497,0.2876,-0.2587,0.2239,125.7344
21:10:00:937,0.795,0.0221,6.8296,60.9625,0.1542,-0.0845,0.2021,125.2031
21:10:00:959,0.8201,-0.0964,7.1947,60.913,0.1249,-0.0805,0.2575,125.0312
21:10:00:973,1.1924,-0.2017,7.3551,59.77,0.0959,-0.2424,0.311,124.7969
21:10:00:996,1.8915,-0.3382,8.0051,61.1044,-0.0218,-0.4411,0.328,124.5938
21:10:01:016,2.5643,-0.7069,9.1077,60.348,-0.208,-0.5751,0.2577,124.2969
21:10:01:038,2.9893,-1.0636,10.5729,58.382,-0.4285,-0.5218,0.1861,123.9531
21:10:01:053,3.838,-1.4395,11.2457,58.3881,-0.6069,-0.2627,0.1371,123.6094
21:10:01:073,4.2822,-1.005,11.1595,58.9672,-0.7952,-0.0403,-0.0014,123.3906
21:10:01:094,4.2678,-0.4112,11.345,58.8096,-1.0176,0.0212,-0.277,123.1562
21:10:01:117,3.5028,-0.4914,11.9759,58.274,-1.1891,0.0297,-0.6664,123.0938
21:10:01:136,2.1549,-0.9283,12.5086,56.8141,-1.2738,0.1869,-0.9431,123.25
21:10:01:155,0.795,-1.3378,12.602,58.7564,-1.2384,0.4332,-0.9609,123.8281
21:10:01:173,0.2826,-1.3665,12.1028,57.5978,-1.0991,0.524,-0.7468,124.8125
21:10:01:194,0.8465,-0.9834,11.4073,58.132,-0.947,0.3512,-0.4818,125.9219
21:10:01:216,1.5324,-0.3454,11.0015,57.0326,-0.8256,0.0146,-0.3596,126.9531
21:10:01:233,1.53,0.3154,10.8985,57.5172,-0.755,-0.2672,-0.403,127.6719
21:10:01:254,1.4127,0.6973,10.7549,58.0556,-0.7153,-0.2366,-0.4925,128.1094
21:10:01:274,1.3038,0.8434,10.221,57.7082,-0.6682,0.014,-0.5929,128.5469
21:10:01:298,0.9482,0.9212,9.5219,57.351,-0.5702,0.3165,-0.6534,129.0625
21:10:01:318,0.5723,1.1307,8.6372,56.8049,-0.4069,0.5469,-0.6222,129.6875
21:10:01:333,0.5005,1.406,7.4557,57.5504,-0.2157,0.6337,-0.5577,130.3906
21:10:01:359,0.4323,1.722,6.4058,57.8322,-0.0804,0.5602,-0.5239,131.1719
21:10:01:373,0.4239,1.9148,5.9413,57.1257,-0.0423,0.446,-0.5191,132.1875
21:10:01:395,0.297,2.001,6.1233,56.7673,-0.0762,0.3733,-0.537,132.8281
21:10:01:423,-0.0238,1.9974,6.8451,56.5193,-0.11,0.3554,-0.5388,133.4531
21:10:01:437,-0.4751,1.8609,7.7142,55.7758,-0.0993,0.3568,-0.4898,134.0938
21:10:01:453,-0.6308,1.8358,8.5319,57.2757,-0.0698,0.3783,-0.3769,134.375
21:10:01:473,-0.6296,1.9028,9.1759,55.8771,-0.0258,0.3307,-0.2789,135
21:10:01:496,-0.5326,1.8789,9.7888,54.9335,-0.0021,0.2095,-0.2262,135.5312
21:10:01:516,-0.3291,1.552,10.4568,54.6555,-0.0282,0.0819,-0.2094,135.9219
21:10:01:533,-0.1914,1.0409,11.4671,55.4991,-0.1007,-0.1194,-0.2001,136.2031
21:10:01:554,-0.4009,0.4531,13.4735,54.5012,-0.1832,-0.263,-0.1362,136.4688
21:10:01:573,-0.2477,-0.1024,15.3948,54.7921,-0.1153,-0.1788,0.001,136.6875
21:10:01:595,0.358,-0.5177,15.6833,53.3976,0.0959,0.0353,0.1371,136.875
21:10:01:615,0.692,-0.4064,14.4048,53.7843,0.2253,0.1948,0.2021,136.9375
21:10:01:633,0.5699,-0.2089,13.8003,54.1773,0.1752,0.1131,0.1589,136.8438
21:10:01:653,-0.025,-0.6027,14.6035,53.6992,0.1382,0.0398,0.1067,136.5469
21:10:01:677,-0.9875,-1.005,14.5174,52.055,0.3092,0.2321,0.205,136.3906
21:10:01:699,-1.1288,-1.2671,12.2213,52.7125,0.5643,0.524,0.4428,136.2656
21:10:01:717,-0.8582,-1.1211,9.4237,51.741,0.6701,0.4462,0.6455,136.0625
21:10:01:734,-0.8534,-0.9104,8.0949,52.7443,0.5537,-0.1104,0.7486,135.6094
21:10:01:753,-1.1383,-0.8948,9.4141,52.4223,0.3739,-0.7812,0.8135,134.9219
21:10:01:774,-1.13,-1.2145,11.2337,53.4822,0.384,-1.0286,0.9003,134.0781
21:10:01:794,-1.3311,-1.3078,11.7509,52.5182,0.5462,-0.7844,1.0258,133.1719
21:10:01:816,-1.1695,-1.2635,10.5693,52.4156,0.7222,-0.3133,1.2072,132.1094
21:10:01:834,-0.778,-0.9092,8.6073,52.0193,0.8253,0.0364,1.3675,130.9219
21:10:01:855,-0.2477,-0.6482,7.154,53.5626,0.8677,0.0753,1.454,129.5938
21:10:01:875,0.1258,-0.4914,6.1556,51.3236,0.8924,-0.0427,1.479,128.0469
21:10:01:900,0.3928,-0.3083,5.5152,52.09,0.8703,-0.1828,1.4863,126.375
21:10:01:918,0.801,-0.0389,5.259,53.2773,0.8067,-0.3255,1.4498,125.5469
21:10:01:934,1.2355,0.2316,5.3344,51.2182,0.7143,-0.4411,1.351,123.9219
21:10:01:960,1.8472,0.7153,6.0706,51.3686,0.5974,-0.484,1.1872,121.4375
21:10:01:974,1.9083,0.8661,6.7997,52.1287,0.2802,-0.3868,0.7147,119.9062
21:10:01:995,1.554,0.8051,7.8806,51.3565,0.1265,-0.2448,0.4657,117.5312
21:10:02:020,1.1601,0.6458,8.9712,52.1717,0.0477,-0.035,0.3025,117.5312
21:10:02:039,0.9817,0.3322,9.3207,49.5071,0.0352,0.1733,0.2151,116.7188
21:10:02:060,1.1039,0.1347,9.1795,51.7424,-0.004,0.2172,0.1837,116.2188
21:10:02:072,1.6976,-0.0269,9.4021,50.4833,-0.1614,0.0676,0.1286,115.875
21:10:02:097,1.7455,-0.0976,10.7788,51.1176,-0.4232,-0.0451,0.0085,115.6094
21:10:02:118,1.779,-0.5752,12.3662,51.2182,-0.5667,0.1163,-0.0392,115.3906
21:10:02:136,2.4302,-1.1558,12.274,49.8275,-0.5372,0.459,-0.0206,115.2656
21:10:02:153,2.5056,-0.8481,10.7549,49.8884,-0.5244,0.6976,-0.0019,115.2656
21:10:02:172,2.5404,-0.3873,9.5661,50.1906,-0.5779,0.4462,-0.0368,115.3125
21:10:02:192,2.2471,0.009,9.8594,48.9795,-0.6879,-0.1618,-0.1713,115.3281
21:10:02:217,1.7563,-0.1347,11.7904,51.3998,-0.7899,-0.5112,-0.2842,115.3125
21:10:02:233,1.4546,-0.5764,13.1479,50.7882,-0.7651,-0.2539,-0.2919,115.4219
21:10:02:252,1.3098,-0.5189,12.8402,49.7742,-0.6512,0.2739,-0.178,115.7031
21:10:02:272,1.5911,0.0198,11.3175,50.0195,-0.5071,0.4867,-0.0488,116.0469
21:10:02:293,1.9562,0.3956,10.3874,49.4621,-0.383,0.2681,-0.0414,116.3438
21:10:02:319,2.0543,0.3717,9.9073,50.6016,-0.2884,0.03,-0.1236,116.4688
21:10:02:339,1.8425,0.3023,9.5338,49.3743,-0.2471,0.0132,-0.207,116.5156
21:10:02:354,1.4378,0.3334,9.0227,49.37,-0.2397,0.156,-0.2616,116.6094
21:10:02:373,0.9961,0.4184,8.5534,48.8956,-0.2109,0.2742,-0.281,116.6875
21:10:02:393,0.6561,0.4411,7.9417,51.9047,-0.1071,0.3259,-0.2488,116.9219
21:10:02:417,0.522,0.5525,7.0642,50.6379,0.0298,0.315,-0.1676,117.2188
21:10:02:433,0.6394,0.8122,6.1915,48.8956,0.1228,0.2436,-0.097,117.5469
21:10:02:459,1.0165,1.1211,5.6504,50.2663,0.1212,0.1277,-0.0943,117.8281
21:10:02:472,1.2259,1.424,5.6899,49.2045,0.004,0.0217,-0.1852,118.0312
21:10:02:494,1.0979,1.5054,6.5566,48.6231,-0.1726,-0.0195,-0.3183,118.2031
21:10:02:520,0.8524,1.3773,7.7166,49.4234,-0.2977,0.0263,-0.4376,118.3438
21:10:02:541,0.4454,1.3653,8.8251,50.8135,-0.3614,0.1133,-0.492,118.625
21:10:02:552,0.0552,1.26,9.9229,49.3774,-0.3798,0.2199,-0.4805,119.0625
21:10:02:572,-0.4704,1.3186,10.8016,49.9109,-0.3385,0.3834,-0.4153,119.6094
21:10:02:592,-0.8343,1.2875,11.0051,50.1313,-0.2384,0.4931,-0.3218,120.1406
21:10:02:617,-0.9779,1.0995,10.7872,49.4273,-0.1609,0.4199,-0.2131,120.6719
21:10:02:636,-1.1084,0.9176,11.3139,49.3198,-0.1553,0.1871,-0.0765,121.1094
21:10:02:653,-1.0246,0.6626,12.6271,50.5284,-0.1087,-0.0211,0.0812,121.4219
21:10:02:673,-0.626,0.3597,13.2676,50.131,0.0003,0.0098,0.2255,121.5938
21:10:02:692,-0.2262,0.3633,12.9049,49.5047,0.0509,0.1248,0.3163,121.5938
21:10:02:717,0.121,0.6506,12.6666,49.6557,-0.0035,0.0638,0.3118,121.4219
21:10:02:733,0.2814,0.4723,13.7069,48.9846,-0.1151,-0.2438,0.1885,121.1094
21:10:02:801,-0.4213,-0.1395,15.5936,49.0238,-0.1673,-0.4931,0.0857,120.75
21:10:02:801,-1.5346,-1.0098,17.5712,50.1854,-0.0253,-0.2305,0.1752,120.4375
21:10:02:801,-1.543,-1.8705,16.2412,49.3794,0.3619,0.5757,0.4734,120.2188
21:10:02:821,-0.9001,-1.6729,11.8287,50.24,0.6258,1.1222,0.7842,120
21:10:02:835,-0.0657,-1.1211,8.6109,50.7676,0.5662,0.9248,0.9246,119.5156
21:10:02:852,-0.0238,-0.7655,8.0303,51.6515,0.3302,0.2763,0.8766,118.7344
21:10:02:872,-0.7229,-0.9882,9.5697,49.263,0.2511,-0.2875,0.8585,118.2344
21:10:02:892,-1.0617,-1.3198,9.9744,50.9418,0.4807,-0.476,0.9712,117.2344
21:10:02:917,-1.1024,-1.2145,8.4576,49.7491,0.7175,-0.3916,1.156,116.2812
21:10:02:934,-0.6655,-0.8685,6.7302,50.4486,0.7678,-0.2646,1.3241,115.2969
21:10:02:956,-0.1268,-0.507,5.7199,50.5469,0.722,-0.2414,1.396,114.1094
21:10:02:972,0.3042,-0.2209,5.0603,50.5469,0.6496,-0.3274,1.3731,112.7188
21:10:02:993,0.4801,0.1215,4.9693,50.6353,0.5435,-0.4489,1.2948,111.25
21:10:03:016,0.4909,0.3047,5.4218,50.42,0.4373,-0.529,1.1885,109.6875
21:10:03:033,0.5304,0.3071,6.1233,50.7818,0.3665,-0.5484,1.0878,108.1719
21:10:03:052,0.631,0.4471,6.741,52.6674,0.2961,-0.4526,0.9973,106.8594
21:10:03:072,0.8141,0.6913,7.3611,49.6756,0.2171,-0.3189,0.8721,104.9688
21:10:03:092,0.8884,0.7751,8.053,51.7459,0.1457,-0.2286,0.6897,103.8438
21:10:03:118,0.7016,0.6961,8.8407,51.4718,0.0972,-0.1128,0.5257,102.9062
21:10:03:134,0.7651,0.6363,9.0694,49.8514,0.0432,0.0755,0.3994,102.1406
21:10:03:152,1.0835,0.4603,9.1735,49.8413,-0.0815,0.2343,0.2442,101.5469
21:10:03:173,1.5037,0.1802,9.5685,51.4316,-0.2892,0.3506,0.0508,101.0938
21:10:03:192,1.4654,-0.4328,10.7824,51.9372,-0.5204,0.3493,-0.1548,100.8125
21:10:03:216,0.8896,-1.1235,12.3195,49.195,-0.5854,0.3232,-0.2243,100.7344
21:10:03:235,1.1841,-1.8549,12.4775,51.522,-0.4591,0.3592,-0.1031,100.8906
21:10:03:259,1.9729,-1.801,11.2481,51.9512,-0.3806,0.3608,0.0156,101.1094
21:10:03:272,2.4566,-1.4168,10.5873,51.8271,-0.4653,0.1184,-0.0302,101.2188
21:10:03:294,2.0412,-1.2839,11.5641,49.5224,-0.5926,-0.2566,-0.2009,101.1875
21:10:03:320,1.1134,-1.6538,13.1467,50.5328,-0.5681,-0.3551,-0.2624,101.2031
21:10:03:337,0.7519,-2.0429,13.1622,50.835,-0.33,-0.0715,-0.0872,101.2812
21:10:03:353,2.8049,-0.7296,8.9401,51.5132,0.0719,0.108,0.3006,101.5625
21:10:03:375,3.6944,0.0317,7.7502,50.5538,0.0282,-0.3213,0.1123,101.7969
21:10:03:403,3.4071,0.4986,8.1045,51.1947,-0.1784,-0.6472,-0.2693,101.5781
21:10:03:420,2.3572,0.2951,9.134,50.4229,-0.3518,-0.5482,-0.6571,101.1094
21:10:03:438,1.0212,-0.0569,9.1376,50.0757,-0.4136,-0.0856,-0.9023,101.4062
21:10:03:452,-0.2561,-0.1431,8.3176,51.046,-0.4487,0.4502,-0.9367,101.4062
21:10:03:474,-0.8295,0.0605,7.4389,51.5591,-0.4525,0.7435,-0.8222,103.1719
21:10:03:492,-1.0103,0.3406,6.8631,50.9157,-0.3811,0.6966,-0.6488,103.1719
21:10:03:517,-0.875,0.677,6.4561,50.7301,-0.2501,0.4026,-0.484,104.2031
21:10:03:534,-0.62,0.9858,6.304,51.9514,-0.1755,0.1046,-0.3947,105.1562
21:10:03:551,-0.3578,1.1522,6.6368,51.1618,-0.2069,-0.0867,-0.3841,105.9219
21:10:03:571,-0.1938,1.2408,7.6891,51.7881,-0.3023,-0.1578,-0.4355,106.4844
21:10:03:591,-0.0585,1.1714,8.8658,51.7077,-0.3694,-0.1176,-0.5133,106.9062
21:10:03:616,-0.2261,1.0576,9.8559,51.5858,-0.4099,0.0055,-0.582,107.3281
21:10:03:635,-0.3183,0.9607,10.695,51.4504,-0.4075,0.2066,-0.5774,108.0625
21:10:03:652,-0.4452,1.0146,10.9691,51.3743,-0.3254,0.4327,-0.5314,108.6875
21:10:03:672,-0.5039,1.1343,10.2461,51.1838,-0.2131,0.5642,-0.4784,109.3438
21:10:03:696,-0.687,1.0684,9.5135,53.8095,-0.2011,0.4553,-0.4368,110.2656
21:10:03:717,-0.9085,0.9308,10.1791,52.0224,-0.2722,0.1893,-0.3654,110.5625
21:10:03:735,-1.0641,0.6447,11.776,54.6361,-0.2892,-0.0574,-0.2776,111.125
21:10:03:752,-1.1934,0.3526,12.8091,51.1974,-0.2349,-0.0968,-0.1505,111.5938
21:10:03:773,-0.8055,0.2005,13.1994,52.5234,-0.2051,0.0159,-0.0296,111.9375
21:10:03:792,-0.7433,0.3945,12.9982,52.579,-0.2541,0.091,0.0053,112.1719
21:10:03:820,-1.0653,0.4986,13.1347,52.9798,-0.4999,0.0963,-0.0387,112.2344
21:10:03:837,-2.2792,-0.4926,16.3585,53.835,-0.6807,0.246,-0.0632,112.25
21:10:03:852,-4.2113,-1.0421,17.1833,54.3116,0.0178,0.1259,0.1954,112.25
21:10:03:873,-3.9527,-2.0177,13.4879,54.8474,0.7225,0.0452,0.7997,112.2812
21:10:03:892,-3.0896,-1.8106,10.0462,55.2017,0.8722,-0.1396,1.3062,112.3438
21:10:03:917,-2.0074,-1.3809,9.1017,55.459,0.6541,-0.6004,1.5661,111.2656
21:10:03:935,-1.3981,-1.2995,11.0685,56.3223,0.4229,-0.9077,1.6466,110.5938
21:10:03:957,-0.9468,-1.5113,12.3207,56.1135,0.4954,-0.7871,1.6759,108.9375
21:10:03:972,-0.6631,-1.5724,11.4085,54.758,0.7209,-0.4414,1.7158,107.1406
21:10:03:992,-0.5218,-1.4,9.4177,53.8421,0.877,-0.1705,1.776,105.2031
21:10:04:016,-0.3518,-1.1319,7.8316,54.903,0.9321,-0.1311,1.8378,103.25
21:10:04:034,-0.0526,-1.0277,6.9002,55.3067,0.9507,-0.2084,1.8655,101.25
21:10:04:053,0.1593,-0.8948,6.3603,54.6466,0.935,-0.2502,1.8716,99.3125
21:10:04:072,0.443,-0.7572,6.0946,56.0477,0.8637,-0.2097,1.8468,97.2031
21:10:04:092,0.7962,-0.4507,6.1353,56.3428,0.7542,-0.1183,1.7731,95.0781
21:10:04:117,1.1733,-0.0605,6.3687,56.2855,0.6711,-0.0835,1.625,93.0625
21:10:04:135,1.4414,0.2029,6.7637,55.2163,0.6144,-0.1117,1.4021,91
21:10:04:151,1.3121,0.2963,7.3599,54.6479,0.5659,-0.1426,1.1347,89.0625
21:10:04:172,1.0272,0.1167,7.9453,56.7625,0.5009,-0.0547,0.9038,87.4219
21:10:04:192,1.0512,-0.155,8.3559,56.2848,0.4,0.1759,0.7432,85.9688
21:10:04:218,1.3504,-0.4076,8.6803,56.3727,0.2879,0.3823,0.5975,84.3438
21:10:04:237,1.4977,-0.6039,8.9832,56.6504,0.1704,0.4548,0.429,83.5312
21:10:04:253,1.7527,-0.9248,9.4668,56.7676,0.0445,0.3861,0.2809,82.8281
21:10:04:271,2.1501,-1.4766,10.2856,56.6504,-0.0826,0.2825,0.1645,82.3125
21:10:04:294,2.7044,-1.9674,10.8506,55.5708,-0.1806,0.2883,0.1033,82.125
21:10:04:317,3.6369,-2.1793,10.4604,57.5763,-0.2847,0.3299,0.0133,81.875
21:10:04:332,4.1074,-1.6789,9.796,56.8389,-0.53,0.2287,-0.2304,81.7031
21:10:04:351,3.6848,-1.3557,10.8016,57.617,-0.9409,-0.0398,-0.6456,81.5938
21:10:04:372,1.6761,-2.1231,13.6387,57.8613,-1.2424,-0.0121,-0.9822,81.6719
21:10:04:392,-0.4656,-3.0616,15.2476,55.8937,-1.0786,0.5347,-0.8374,82.0938
21:10:04:417,-0.0502,-3.0508,12.7624,55.0062,-0.5364,0.9821,-0.2531,83.0469
21:10:04:435,1.7814,-1.588,9.2908,57.7703,-0.1476,0.6601,0.2671,84.1094
21:10:04:452,3.5579,0.0485,7.7454,56.9845,0.0021,-0.2547,0.3722,84.6875
21:10:04:471,4.2822,1.2875,8.1404,56.9704,-0.0274,-1.0049,0.0218,84.625
21:10:04:492,4.1361,1.2348,9.1627,57.1963,-0.1742,-0.9908,-0.546,83.9844
21:10:04:523,3.1449,0.592,9.4165,56.2381,-0.3539,-0.3154,-1.084,83.9688
21:10:04:539,1.3804,0.2304,8.8527,57.0105,-0.5135,0.4731,-1.4219,84.5781
21:10:04:553,-0.298,0.0365,8.545,57.799,-0.5273,0.8785,-1.4909,85.8125
21:10:04:573,-1.3897,-0.0389,8.0925,56.2573,-0.3329,0.8628,-1.3042,87.3438
21:10:04:592,-1.677,0.0545,7.4724,57.7478,-0.0272,0.6106,-0.9647,89.0469
21:10:04:617,-1.2772,0.4938,6.4716,58.6286,0.2336,0.2817,-0.6283,90.5469
21:10:04:635,-0.6499,1.1079,5.9485,57.4433,0.3329,-0.0787,-0.4259,91.6719
21:10:04:652,-0.0645,1.5592,6.2203,57.7168,0.294,-0.3807,-0.358,92.3594
21:10:04:672,0.3892,1.8717,7.1875,57.203,0.1835,-0.5517,-0.4046,92.875
21:10:04:691,0.382,1.892,8.49,57.7313,0.0687,-0.537,-0.5194,93.2969
21:10:04:712,0.0695,1.8011,9.5841,58.1481,-0.0437,-0.2688,-0.6102,93.7344
21:10:04:734,-0.2082,1.6346,10.1575,56.0122,-0.1686,0.1882,-0.6501,94.3281
21:10:04:754,-1.1072,1.175,10.8315,57.5738,-0.2812,0.5666,-0.6523,95.0156
21:10:04:772,-1.5489,0.8278,11.8323,58.1929,-0.2961,0.2779,-0.4334,95.375
21:10:04:796,-1.7261,0.4399,13.0689,57.2796,-0.167,-0.0851,-0.2115,96.4688
21:10:04:818,-1.4927,0.1179,13.9475,58.2078,-0.021,-0.2113,0.0306,97.125
21:10:04:872,-1.2616,0.3609,13.8637,57.5674,0.0967,-0.112,0.2322,97.8281
21:10:04:873,-1.209,0.75,13.2005,56.9112,0.1502,-0.1445,0.3318,97.8281
21:10:04:873,-1.7608,0.6686,13.5669,58.3434,0.1633,-0.3732,0.38,97.7812
21:10:04:891,-2.1523,0.2053,14.0086,56.059,0.2884,-0.4656,0.528,97.5156
21:10:04:911,-2.2253,-0.1814,13.246,55.5614,0.5004,-0.4262,0.7486,97.1562
21:10:04:933,-2.1199,-0.2412,11.7628,54.8047,0.6059,-0.4369,0.9717,96.7188
21:10:04:950,-1.7596,-0.2376,11.2648,54.6736,0.5494,-0.6254,1.1238,96.125
21:10:04:970,-1.677,-0.2783,12.0836,54.6226,0.4953,-0.8153,1.2122,95.3281
21:10:04:994,-1.5142,-0.5932,12.6786,54.6189,0.5806,-0.8209,1.3161,92.9531
21:10:05:017,-1.3562,-0.9248,12.2764,54.1593,0.7513,-0.5815,1.4572,92.9531
21:10:05:035,-1.0222,-1.1043,10.6866,52.1377,0.922,-0.2097,1.6306,91.5781
21:10:05:052,-0.5266,-0.9786,8.5666,52.1377,1.0219,0.132,1.7779,88.5
21:10:05:070,0.1953,-0.7847,6.4884,52.6001,1.0344,0.3325,1.8524,86.6406
21:10:05:091,0.6861,-0.4627,5.0567,53.0402,0.9532,0.3179,1.8476,85.6406
21:10:05:113,0.9913,-0.0533,4.3995,51.7839,0.8328,0.1035,1.7795,83.6406
21:10:05:134,0.9602,0.1814,4.8795,51.1431,0.7012,-0.2113,1.6444,82.5625
21:10:05:154,0.8967,0.1431,6.0862,51.8071,0.555,-0.2899,1.4956,80.4375
21:10:05:171,0.9123,0.1335,6.9996,50.3094,0.3396,0.0545,1.3323,78.4062
21:10:05:192,0.9291,0.2532,7.8256,50.2386,0.0938,0.5248,1.1771,76.6406
21:10:05:212,0.9339,0.3813,8.4337,51.9485,-0.02,0.7216,1.0524,74.9531
21:10:05:234,1.2451,0.6327,9.0035,49.3031,0.0408,0.6068,0.9789,72.7656
21:10:05:251,2.1872,0.6674,9.0358,48.6618,0.1515,0.5022,0.8428,71.4375
21:10:05:271,2.854,0.6231,8.5941,50.1516,0.1156,0.5568,0.5778,70.2188
21:10:05:291,3.164,0.4292,8.3774,49.5708,-0.0866,0.6662,0.2569,69.1094
21:10:05:311,3.3316,-0.173,8.6743,51.783,-0.3412,0.6417,-0.0621,68.2812
21:10:05:334,3.3245,-0.9451,9.5446,50.0752,-0.5755,0.4974,-0.3045,67.75
21:10:05:357,3.5591,-1.4862,10.2377,50.1578,-0.7356,0.3176,-0.4544,67.5781
21:10:05:373,3.6537,-1.5257,10.5322,50.7528,-0.897,0.1301,-0.6528,67.7188
21:10:05:390,3.1784,-1.57,11.3474,49.4059,-1.1297,-0.1194,-0.9319,68.0938
21:10:05:412,1.5133,-2.1266,13.1467,49.8867,-1.3028,-0.203,-1.1684,68.6562
21:10:05:436,-0.8343,-2.6797,14.6526,49.625,-1.2248,0.1938,-1.0792,69.4688
21:10:05:452,-1.3945,-2.8306,13.2975,49.5971,-0.8144,0.7251,-0.5934,70.6562
21:10:05:477,0.0324,-2.1183,9.8702,51.1252,-0.4234,0.6803,-0.035,71.9531
21:10:05:491,1.8688,-0.8757,7.8639,50.011,-0.281,-0.0086,0.2492,72.8906
21:10:05:512,2.9641,0.3933,7.9165,49.805,-0.3079,-0.897,0.1432,73.1719
21:10:05:535,2.9522,0.9547,9.5506,50.0592,-0.3989,-1.2822,-0.2347,73.1094
21:10:05:551,2.5033,0.5644,10.634,51.7683,-0.437,-0.9551,-0.6627,72.6875
21:10:05:571,1.3217,0.094,10.391,50.8237,-0.4527,-0.1849,-0.9774,72.6875
21:10:05:591,-0.0226,0.0186,9.0346,51.573,-0.4756,0.5368,-1.0973,73.1719
21:10:05:612,-0.8905,0.0473,8.0291,50.629,-0.4549,0.8111,-1.0459,74.125
21:10:05:635,-1.4137,0.1071,7.2031,51.2917,-0.3206,0.6854,-0.8661,75.3281
21:10:05:651,-1.4747,0.2783,6.4824,50.9447,-0.1446,0.3533,-0.6198,76.5156
21:10:05:671,-1.045,0.6542,6.158,51.6397,-0.0455,0.0164,-0.4049,77.6406
21:10:05:691,-0.3973,0.9679,6.4202,50.8318,-0.041,-0.1927,-0.3058,78.5
21:10:05:711,0.0384,1.1558,7.1408,51.3499,-0.1004,-0.2555,-0.3191,79.0469
21:10:05:736,0.2922,1.2468,8.1715,51.6278,-0.1609,-0.2486,-0.3921,79.4219
21:10:05:752,0.279,1.157,9.1807,51.5854,-0.1987,-0.17,-0.4896,79.7656
21:10:05:772,-0.0585,0.9703,10.2126,52.6477,-0.2381,0.0252,-0.554,80.125
21:10:05:791,-0.4033,0.7189,10.9871,52.0159,-0.2562,0.3112,-0.5314,80.6094
21:10:05:811,-0.4871,0.4543,11.3953,52.7198,-0.2208,0.4771,-0.4531,81.5312
21:10:05:836,-0.5781,0.1826,11.7868,52.7763,-0.1555,0.459,-0.3495,82.1094
21:10:05:852,-0.6703,0.0114,12.256,51.0967,-0.081,0.352,-0.2129,82.6406
21:10:05:871,-0.5709,-0.1287,12.5661,53.096,-0.0083,0.2755,-0.0792,83.0625
21:10:05:890,-0.2022,-0.3382,12.3901,50.3747,0.0253,0.2705,0.0351,83.3281
21:10:05:911,-0.2716,-0.2616,12.2381,52.9932,0.0139,0.1967,0.1174,83.4219
21:10:05:937,-0.1759,-0.2328,12.1806,52.6772,0.0048,0.018,0.1629,83.3906
21:10:05:952,-0.4967,-0.3597,12.6247,53.2826,-0.0586,-0.3109,0.1483,83.2656
21:10:05:970,-1.3526,-0.7117,14.4408,53.8884,-0.0945,-0.6108,0.2002,83.0938
21:10:05:992,-2.3115,-1.1809,15.7193,52.9397,0.1017,-0.4861,0.4175,82.9062
21:10:06:012,-2.1008,-1.5628,14.3498,52.8243,0.482,-0.015,0.784,82.6406
21:10:06:035,-1.2161,-1.2923,10.8866,53.03,0.6788,0.2713,1.0743,82.4375
21:10:06:052,-0.4715,-1.0325,9.0035,52.6134,0.5915,0.0177,1.2098,81.7812
21:10:06:071,-0.1352,-1.0014,9.632,54.7543,0.4637,-0.508,1.2439,80.7344
21:10:06:092,-0.031,-1.0876,10.8327,53.4562,0.53,-0.7636,1.2767,79.4375
21:10:06:112,-0.043,-1.06,10.4041,52.7137,0.7438,-0.7642,1.319,77.4062
21:10:06:134,0.2096,-0.8254,8.8682,53.8228,0.8565,-0.6182,1.347,75.9531
21:10:06:151,0.5891,-0.5441,7.7298,52.7566,0.7958,-0.4693,1.299,74.4531
21:10:06:172,0.8943,-0.24,6.7374,53.2822,0.5915,-0.1788,1.0543,73.0156
21:10:06:191,0.7555,-0.2544,6.3376,54.5547,0.5382,-0.1269,0.9539,73.0156
21:10:06:212,0.5292,-0.3047,6.1389,53.9534,0.4983,-0.1354,0.9014,71.5469
21:10:06:236,0.5017,-0.3873,6.0562,52.9417,0.4503,-0.1658,0.8953,70.2031
21:10:06:251,0.722,-0.2747,6.2945,53.2626,0.38,-0.2078,0.8953,67.9844
21:10:06:271,1.0643,-0.1347,6.8739,53.2754,0.3023,-0.2318,0.8519,66.9688
21:10:06:291,1.3205,0.07,7.5191,54.116,0.2415,-0.1905,0.7496,65.9531
21:10:06:312,1.6785,0.2089,8.0207,54.2566,0.1859,-0.0488,0.5968,64.9844
21:10:06:335,1.9717,0.185,7.998,54.697,0.0866,0.2449,0.3754,64.0156
21:10:06:352,2.0352,0.088,7.7861,56.4782,-0.1177,0.532,0.1318,63.1719
21:10:06:370,2.0675,-0.185,8.2469,55.5343,-0.3846,0.6572,-0.0808,62.0781
21:10:06:390,1.9298,-0.5357,9.5159,56.8311,-0.5928,0.6076,-0.2501,61.9531
21:10:06:411,1.4211,-0.8577,11.1008,56.686,-0.6852,0.4968,-0.3679,61.9062
21:10:06:435,1.2331,-1.3844,11.9975,56.4999,-0.6341,0.5187,-0.3527,62.2031
21:10:06:452,1.6282,-1.7101,11.3331,56.1926,-0.5649,0.5925,-0.2627,62.375
21:10:06:470,2.1058,-1.4623,10.5334,57.547,-0.6298,0.5514,-0.1977,62.7812
21:10:06:492,2.6397,-1.2061,10.3419,57.7028,-0.7891,0.2718,-0.2967,63.0938
21:10:06:510,2.2423,-1.2851,11.6754,57.7935,-0.975,-0.1471,-0.5226,63.2969
21:10:06:534,1.4989,-1.9243,13.7333,59.0827,-1.0253,-0.3847,-0.6803,63.3906
21:10:06:556,0.06,-2.3182,15.2775,59.454,-0.8799,-0.1748,-0.6259,63.6875
21:10:06:571,-0.0741,-2.4092,14.74,58.6004,-0.4914,0.266,-0.3132,64.2188
21:10:06:590,1.2295,-1.8154,11.8119,58.7969,-0.089,0.4377,-0.0121,64.9531
21:10:06:613,2.4578,-0.8697,9.4859,59.0225,0.0818,0.1512,0.0415,65.625
21:10:06:634,3.012,-0.1862,8.563,59.8203,0.0498,-0.2414,-0.1785,65.9688
21:10:06:653,2.4542,-0.0293,8.806,60.586,-0.1012,-0.3085,-0.4967,65.9844
21:10:06:670,1.6629,-0.1658,9.0131,60.4185,-0.1603,-0.0797,-0.7109,65.9531
21:10:06:690,0.9686,-0.1431,8.3786,61.3253,-0.1159,0.2023,-0.7854,66.3594
21:10:06:711,0.3808,0.0222,7.4473,60.0493,-0.0746,0.4018,-0.7442,67.0625
21:10:06:734,0.2671,0.2688,6.7829,60.879,-0.0304,0.451,-0.639,67.9375
21:10:06:753,0.4538,0.6722,6.3843,62.1011,0.0418,0.357,-0.5585,68.8281
21:10:06:770,0.5651,1.0014,6.164,62.7118,0.1161,0.1837,-0.5612,69.6094
21:10:06:790,0.5819,1.1211,6.2574,64.5185,0.1294,0.0209,-0.6105,70.2969
21:10:06:811,0.4407,1.0098,6.8296,64.7625,0.0844,-0.0539,-0.6786,70.9375
21:10:06:834,0.2252,0.8972,7.6137,63.7639,0.0218,-0.0395,-0.7029,71.5781
21:10:06:852,0.2419,0.8649,8.5283,64.9231,-0.0253,0.026,-0.696,72.3281
21:10:06:871,0.1354,0.7632,9.292,65.9358,-0.0866,0.1765,-0.7066,73.125
21:10:06:947,-0.0992,0.835,10.1348,67.073,-0.151,0.3949,-0.7042,73.9219
21:10:06:948,-0.3064,0.8003,10.7225,65.3996,-0.1337,0.5403,-0.7034,74.6875
21:10:06:948,-0.772,0.5525,10.8231,65.6586,-0.0591,0.5203,-0.6858,75.5
21:10:06:950,-1.1946,0.2628,10.7908,69.1012,-0.0208,0.4084,-0.5924,76.3281
21:10:06:973,-1.5346,-0.094,11.2253,68.645,-0.0405,0.2079,-0.4352,77.5
21:10:06:991,-1.2054,-0.4411,12.1543,69.3507,-0.0551,-0.0403,-0.2437,78.2031
21:10:07:019,-0.7732,-0.4627,13.2424,66.8462,-0.0634,-0.2281,-0.1308,78.7031
21:10:07:035,-0.5972,-0.5058,14.0457,67.7986,-0.0607,-0.271,-0.1114,78.9531
21:10:07:054,-0.9731,-0.7069,14.3797,69.0347,-0.065,-0.1982,-0.1322,79.0312
21:10:07:071,-1.9069,-0.9691,14.7819,69.3384,-0.0455,-0.1101,-0.0693,79.1406
21:10:07:091,-2.6527,-1.4287,14.9064,70.448,0.1265,0.0721,0.1589,79.2656
21:10:07:111,-2.4324,-1.8154,13.1239,68.4234,0.4083,0.2899,0.5073,79.375
21:10:07:137,-1.7668,-1.6741,10.6459,70.233,0.575,0.222,0.8189,79.3594
21:10:07:152,-1.1443,-1.4599,9.134,70.233,0.579,-0.1852,1.0087,79.0156
21:10:07:170,-0.7756,-1.2887,9.2453,68.1956,0.481,-0.5921,1.0902,78.3281
21:10:07:190,-0.4177,-1.1474,9.948,69.6896,0.4298,-0.6845,1.1118,77.3125
21:10:07:212,-0.2441,-1.1007,9.7517,68.4507,0.4722,-0.5655,1.0844,76.1094
21:10:07:234,-0.2788,-0.9715,8.9987,69.2228,0.5041,-0.3711,1.0761,74.9219
21:10:07:249,-0.3099,-0.7272,8.2781,67.7312,0.4906,-0.2305,1.082,73.0625
21:10:07:270,-0.2597,-0.6446,7.8531,67.2931,0.514,-0.1753,1.1006,71.8594
21:10:07:291,-0.1268,-0.5884,7.2426,67.9492,0.5715,-0.1764,1.1307,70.6875
21:10:07:311,0.0037,-0.5525,6.8428,66.5701,0.5907,-0.1783,1.1757,69.4531
21:10:07:337,0.3736,-0.3166,6.4872,65.4894,0.5835,-0.158,1.2253,68.1875
21:10:07:354,1.0512,-0.0521,6.2406,66.0665,0.5508,-0.1687,1.1992,66.875
21:10:07:369,1.4881,0.0712,6.2645,65.5141,0.4767,-0.2233,1.0745,65.5625
21:10:07:390,1.7072,0.1287,6.5914,66.22,0.3838,-0.2664,0.9046,64.2031
21:10:07:411,1.7096,0.0976,7.2186,65.1909,0.2746,-0.2678,0.7091,63
21:10:07:436,1.4678,-0.1538,7.8986,64.7547,0.1758,-0.1375,0.5526,62.0312
21:10:07:452,1.3983,-0.4842,8.0578,62.7915,0.0796,0.128,0.47,61.2344
21:10:07:471,1.7503,-0.4591,7.9177,64.4482,-0.021,0.2891,0.4186,60.625
21:10:07:490,2.3069,-0.4495,7.8746,63.9959,-0.1446,0.1237,0.2846,60.1094
21:10:07:511,2.8708,-0.7512,8.7461,63.4015,-0.3206,-0.2305,0.0822,59.8438
21:10:07:535,3.3927,-1.2719,10.4676,63.2712,-0.5052,-0.4816,-0.1383,59.4219
21:10:07:553,4.1217,-2.1219,12.1734,63.0302,-0.7223,-0.0113,-0.5716,59.1875
21:10:07:570,3.6166,-1.9926,11.2253,63.0808,-0.8317,0.1296,-0.8584,59.3438
21:10:07:592,2.5715,-1.9674,11.7592,63.1558,-1.0256,-0.0875,-1.1428,60.3906
21:10:07:611,1.0164,-2.5564,13.5262,62.2381,-1.1548,-0.116,-1.329,61.3125
21:10:07:636,-0.7876,-3.3549,14.6538,62.0133,-1.0536,0.3134,-1.202,61.3125
21:10:07:652,-1.0198,-3.3668,13.2053,63.0885,-0.7507,0.7877,-0.6965,62.6094
21:10:07:669,0.5364,-2.4726,10.7082,62.7048,-0.4533,0.6742,-0.166,64.1094
21:10:07:689,2.028,-1.303,9.2968,63.975,-0.2333,0.035,0.0825,65.4219
21:10:07:709,2.7199,-0.1838,8.7809,61.1803,-0.1225,-0.517,0.0117,66.2188
21:10:07:731,2.7606,0.4256,8.7258,62.0358,-0.1768,-0.525,-0.2725,66.4219
21:10:07:753,2.4123,0.4687,8.5606,60.7649,-0.2972,-0.1109,-0.6254,66.3125
21:10:07:769,1.5659,0.4112,8.1404,60.7212,-0.4213,0.4055,-0.9378,66.2812
21:10:07:789,0.5244,0.2532,7.7753,61.6592,-0.5039,0.8114,-1.1269,66.5781
21:10:07:810,-0.4332,0.1467,7.4497,61.4984,-0.5012,1.1112,-1.1713,67.7812
21:10:07:829,-1.0294,0.155,6.8906,62.5357,-0.3971,1.2231,-1.0773,68.9375
21:10:07:853,-1.2305,0.3142,6.1772,60.9034,-0.2349,1.0545,-0.9109,70.3125
21:10:07:870,-1.203,0.562,5.6959,62.66,-0.094,0.6151,-0.7639,71.6719
21:10:07:890,-1.1862,0.6518,6.079,60.2731,-0.0343,0.0697,-0.6739,72.8281
21:10:07:910,-1.0761,0.4459,7.2809,59.6134,-0.0426,-0.3,-0.6201,73.8281
21:10:07:930,-1.1671,0.2185,8.8874,59.4709,-0.1025,-0.3506,-0.5897,74.2656
21:10:07:954,-1.4113,0.0497,10.2665,59.9064,-0.18,-0.1112,-0.5497,75.0469
21:10:07:970,-1.8231,0.0545,11.4504,59.8626,-0.2333,0.2939,-0.4706,75.6875
21:10:07:990,-1.92,-0.1371,11.7784,59.8051,-0.1824,0.6431,-0.3569,76.3281
21:10:08:010,-1.8219,-0.3238,11.3762,59.7566,-0.135,0.7435,-0.2227,76.9375
21:10:08:035,-1.8638,-0.3202,11.8658,60.027,-0.1715,0.6255,-0.0837,77.4688
21:10:08:052,-1.7393,-0.5333,13.0389,58.5794,-0.1587,0.52,0.0591,77.9062
21:10:08:070,-1.6579,-0.7308,13.5752,58.1863,-0.0647,0.5006,0.1983,78.2188
21:10:08:089,-1.5262,-0.8266,13.5286,56.6595,0.0413,0.5091,0.336,78.3594
21:10:08:110,-1.2413,-0.8302,13.0772,56.7096,0.0868,0.4931,0.4327,78.25
21:10:08:135,-1.3119,-0.8577,13.1814,54.9987,0.0794,0.3703,0.4636,78
21:10:08:153,-1.7919,-1.1642,13.8398,55.8486,0.1563,0.165,0.5227,77.5938
21:10:08:170,-1.8434,-1.7244,13.9224,55.271,0.3662,0.1221,0.674,77.1562
21:10:08:190,-1.4352,-1.9794,12.608,54.2895,0.5819,0.1938,0.8511,76.625
21:10:08:210,-0.6858,-1.8872,11.2409,54.4331,0.6586,0.063,0.9358,76
21:10:08:235,-0.3028,-1.7615,11.1595,53.322,0.6336,-0.2267,0.8916,75.2344
21:10:08:252,-0.4285,-1.9411,11.7724,52.342,0.6695,-0.4046,0.8034,74.2812
21:10:08:270,-0.7325,-2.2356,11.3714,51.721,0.816,-0.373,0.7651,73.2969
21:10:08:290,-0.8379,-2.147,9.881,50.289,0.9247,-0.1812,0.8159,72.4219
21:10:08:310,-0.6308,-1.7532,8.2062,49.8641,0.9217,-0.0004,0.8644,71.6094
21:10:08:335,-0.3207,-1.4395,6.9265,49.8907,0.8456,0.0867,0.8612,70.8125
21:10:08:352,-0.0825,-1.1247,6.061,49.3361,0.7305,0.1064,0.8199,69.9375
21:10:08:371,0.0025,-0.8529,5.6301,49.1924,0.6234,0.0596,0.7542,68.6406
21:10:08:391,-0.11,-0.7691,5.5918,47.5034,0.5324,-0.051,0.6852,67.7969
21:10:08:410,-0.4847,-0.7955,6.0754,46.2263,0.4333,-0.1045,0.6857,67.0469
21:10:08:435,-0.3782,-0.6805,6.6297,46.6352,0.3816,-0.0755,0.7667,66.6719
21:10:08:453,0.1988,-0.3896,6.8631,46.3449,0.4021,-0.0728,0.7901,65.9688
21:10:08:469,0.5807,0.0712,6.8128,43.887,0.4019,-0.104,0.7083,65.1719
21:10:08:489,0.7651,0.4244,6.9912,45.2458,0.3236,-0.1183,0.5328,64.3594
21:10:08:510,0.643,0.5788,7.3503,44.3481,0.2013,-0.0358,0.3102,63.5469
21:10:08:537,0.3976,0.513,7.4676,43.1989,0.0655,0.1701,0.1102,62.8594
21:10:08:555,0.2072,0.4244,7.3994,43.5985,-0.0977,0.3453,-0.031,62.4219
21:10:08:570,0.1294,0.2113,7.549,41.2658,-0.2951,0.3384,-0.1324,62.2031
21:10:08:590,0.1031,-0.1287,8.3415,42.2643,-0.5103,0.132,-0.2118,62.1562
21:10:08:610,0.1043,-0.6063,10.045,43.2033,-0.689,-0.1636,-0.2504,62.2031
21:10:08:638,0.3772,-1.1869,11.6527,43.6268,-0.7398,-0.3333,-0.191,62.3281
21:10:08:656,1.0883,-1.2875,12.4943,41.5223,-0.6956,-0.357,-0.1002,62.6406
21:10:08:672,1.9873,-1.011,12.28,42.5593,-0.661,-0.3817,-0.1689,62.7969
21:10:08:690,1.9502,-0.8362,12.4512,42.5511,-0.7633,-0.5748,-0.4605,62.8438
21:10:08:710,0.7136,-1.3138,14.3605,41.885,-0.8884,-0.6741,-0.774,62.9688
21:10:08:738,-0.9839,-2.2368,15.9802,41.7379,-0.7992,-0.252,-0.836,63.4219
21:10:08:756,-1.4484,-2.7264,14.819,41.9242,-0.4687,0.385,-0.5402,64.1875
21:10:08:774,-0.0083,-2.2416,11.6838,41.8237,-0.1587,0.5134,-0.1636,65.0781
21:10:08:790,1.463,-1.2157,9.9624,41.5851,-0.0453,0.0564,-0.0366,65.6562
21:10:08:810,1.9382,-0.477,9.7828,39.9889,0.0208,-0.4363,-0.1886,65.8438
21:10:08:836,1.524,-0.2532,9.3028,41.2078,0.1031,-0.4859,-0.4299,65.875
21:10:08:852,0.9662,-0.1443,7.9297,40.8472,0.1366,-0.2193,-0.5926,66.0781
21:10:08:869,0.4275,0.1071,6.6045,41.6547,0.0767,0.055,-0.6797,66.5781
21:10:08:890,-0.2202,0.2903,6.0778,41.0375,-0.0365,0.2119,-0.7271,66.9062
21:10:08:910,-0.7672,0.4388,6.2095,41.7619,-0.1198,0.2609,-0.717,67.6094
21:10:08:936,-1.2054,0.6159,6.6033,39.9502,-0.1204,0.2753,-0.6581,68.4219
21:10:08:956,-1.4807,0.829,6.8942,41.2496,-0.0671,0.291,-0.5681,69.625
21:10:09:019,-1.4819,1.2025,7.4269,40.5725,0.0293,0.2303,-0.4017,70.375
21:10:09:020,-1.4628,1.2755,8.0638,39.4465,0.0306,0.1323,-0.342,71.0156
21:10:09:020,-1.1958,1.3677,9.0011,40.8955,0.0338,0.0862,-0.2917,71.5781
21:10:09:030,-0.869,1.3629,9.7481,41.5179,0.0581,0.1072,-0.2856,72.0156
21:10:09:052,-0.7696,1.248,10.1216,40.8944,0.069,0.2598,-0.3109,72.4062
21:10:09:069,-0.7684,1.0433,10.0055,39.8781,0.0179,0.5102,-0.3215,72.75
21:10:09:096,-0.7912,0.7883,9.8427,39.3231,-0.0711,0.606,-0.3077,73.0781
21:10:09:108,-0.9444,0.5537,10.2581,40.9806,-0.1459,0.4236,-0.2544,73.4375
21:10:09:130,-0.9073,0.1838,11.4695,39.427,-0.1862,0.0944,-0.174,74.1875
21:10:09:151,-0.7517,-0.1682,12.7768,40.1712,-0.1627,-0.1157,-0.0959,74.1875
21:10:09:169,-0.8438,-0.2101,13.5094,38.6298,-0.1326,-0.1378,-0.0581,74.4688
21:10:09:190,-1.0258,-0.1359,13.8494,38.6361,-0.1332,-0.1239,-0.0477,74.7031
21:10:09:208,-1.5992,-0.3262,14.6359,38.8695,-0.1286,-0.2222,-0.052,74.75
21:10:09:230,-2.4935,-0.8374,15.6857,38.8695,0.0077,-0.1793,0.0678,74.7812
21:10:09:253,-2.4695,-1.4156,14.8059,38.7493,0.3457,0.1661,0.3629,74.8281
21:10:09:272,-1.75,-1.321,11.4576,38.9887,0.6128,0.3871,0.6561,74.8281
21:10:09:290,-0.9217,-1.0552,9.0143,39.6686,0.6237,0.0401,0.813,74.7656
21:10:09:311,-0.8738,-0.7153,9.055,37.5754,0.4658,-0.6267,0.8292,74.3906
21:10:09:335,-1.0222,-0.8314,10.883,38.676,0.4125,-0.9916,0.8234,73.7344
21:10:09:351,-1.1,-1.0505,10.9811,39.0987,0.543,-0.884,0.8327,72.875
21:10:09:371,-1.1467,-0.9643,9.5566,40.3832,0.6429,-0.6006,0.9091,72.0156
21:10:09:394,-0.7768,-0.659,7.9668,38.3159,0.6256,-0.3911,0.9739,71.1094
21:10:09:408,-0.3399,-0.3944,6.9756,38.7192,0.5425,-0.2968,0.9629,70.2031
21:10:09:429,-0.1232,-0.337,6.5746,38.8474,0.4804,-0.3096,0.9099,69.2812
21:10:09:452,-0.1735,-0.4579,6.3843,38.6063,0.4682,-0.3189,0.8679,67.6875
21:10:09:471,-0.3016,-0.6099,6.2765,37.7245,0.4503,-0.2315,0.8958,66.6562
21:10:09:488,-0.0119,-0.4375,6.0922,38.7669,0.42,-0.0659,0.9741,65.75
21:10:09:510,0.6669,0.0317,5.7905,37.4785,0.3827,-0.0214,0.989,64.7812
21:10:09:529,1.2583,0.3765,5.8384,36.4097,0.3012,-0.1008,0.8721,63.75
21:10:09:552,1.5899,0.6327,6.4226,37.0827,0.172,-0.1807,0.6734,62.6875
21:10:09:570,1.5827,0.7883,7.4616,38.0026,0.0658,-0.2094,0.4276,61.6406
21:10:09:589,1.2367,0.6135,8.205,36.0605,0.0213,-0.1199,0.1781,60.7656
21:10:09:609,0.9506,0.2256,8.2565,36.354,-0.0663,0.0596,-0.0099,60.1562
21:10:09:629,0.7399,-0.0066,8.6181,35.5182,-0.2442,0.1608,-0.1231,59.8438
21:10:09:652,0.9159,-0.1766,9.5997,37.5136,-0.4131,0.1038,-0.2065,59.7656
21:10:09:677,1.0141,-0.4962,10.8854,36.3166,-0.5135,0.0332,-0.321,59.8281
21:10:09:689,1.384,-1.1378,11.3379,35.4196,-0.5486,0.1411,-0.3732,59.9844
21:10:09:709,1.761,-1.4539,10.8315,37.3768,-0.6453,0.2825,-0.3697,60.25
21:10:09:731,2.2614,-1.5329,10.5897,36.5629,-0.7966,0.239,-0.3654,60.625
21:10:09:752,2.6996,-1.6765,10.9907,37.5043,-0.927,-0.1122,-0.493,61.1719
21:10:09:769,2.0196,-1.9471,12.5278,37.8802,-1.041,-0.5373,-0.709,61.5312
21:10:09:789,0.5975,-2.4726,14.4288,38.0863,-1.0354,-0.4848,-0.8091,61.75
21:10:09:809,-0.711,-2.8401,14.7855,37.4174,-0.861,0.1189,-0.6281,62.375
21:10:09:828,-0.0226,-2.5037,12.5697,37.2867,-0.5462,0.6503,-0.232,63.1719
21:10:09:849,1.8413,-1.5281,9.796,38.8114,-0.3113,0.6044,0.0018,63.9844
21:10:09:870,3.0084,-0.7009,7.9537,36.4619,-0.2365,0.0798,-0.0885,64.4531
21:10:09:888,2.8935,-0.1323,7.8687,36.3968,-0.3672,-0.4891,-0.4097,64.5312
21:10:09:914,2.022,-0.1311,9.298,38.1506,-0.5393,-0.5951,-0.7663,64.5312
21:10:09:939,0.9087,-0.5501,10.1479,38.6104,-0.5819,-0.2145,-1.0179,64.7656
21:10:09:959,-0.1699,-0.4495,9.9516,39.0559,-0.4996,0.3456,-1.0523,65.3594
21:10:09:975,-0.7265,-0.1047,9.1017,38.4995,-0.2977,0.6207,-0.9474,66.3438
21:10:09:989,-0.7852,0.2077,7.9501,38.9732,-0.0346,0.5275,-0.8043,67.5312
21:10:10:009,-0.6679,0.6099,7.075,39.0964,0.1366,0.2947,-0.6829,68.7031
21:10:10:029,-0.4835,0.9128,6.8799,39.3702,0.1704,0.1203,-0.6323,70.1406
21:10:10:054,-0.3794,1.0062,7.3252,40.7917,0.1321,0.0609,-0.6435,70.9531
21:10:10:070,-0.4105,0.9439,8.0279,40.9469,0.1017,0.0612,-0.6669,71.6875
21:10:10:091,-0.4811,0.8134,8.812,40.6382,0.102,0.088,-0.6736,72.4062
21:10:10:109,-0.7433,0.6566,9.4285,41.3867,0.1174,0.1869,-0.6512,73.1719
21:10:10:129,-1.2018,0.5609,9.8954,41.214,0.1377,0.348,-0.575,73.9531
21:10:10:154,-1.4053,0.4543,9.9432,40.5061,0.196,0.4979,-0.4379,74.6875
21:10:10:168,-1.44,0.3418,9.4476,40.5456,0.2501,0.5517,-0.2901,75.375
21:10:10:189,-1.4029,0.2783,9.0741,40.9468,0.2208,0.4518,-0.1519,75.9219
21:10:10:212,-1.3275,0.1335,9.3662,40.8866,0.1081,0.2396,-0.0536,76.3125
21:10:10:228,-1.2305,-0.2879,10.6017,41.0078,-0.0392,-0.0126,0.0141,76.5156
21:10:10:249,-1.1647,-0.6722,12.5098,41.056,-0.1691,-0.2409,0.058,76.5781
21:10:10:268,-1.0928,-1.011,14.7508,40.7865,-0.2261,-0.4089,0.0913,76.6094
21:10:10:288,-1.2892,-1.5089,16.3202,42.5318,-0.1515,-0.3807,0.1131,76.5469
21:10:10:310,-1.6782,-1.9639,16.4758,42.5501,-0.0099,-0.1471,0.2023,76.3438
21:10:10:329,-1.9404,-2.0752,15.7492,42.6928,0.1486,0.148,0.3581,76.1875
21:10:10:353,-1.7117,-2.135,11.624,42.562,0.4975,0.5895,0.7304,75.9531
21:10:10:371,-1.367,-2.0285,9.3986,41.7384,0.555,0.4263,0.8996,75.9531
21:10:10:394,-1.2556,-1.831,8.3547,40.8789,0.4951,-0.0211,1.0258,74.2344
21:10:10:409,-1.1838,-1.6825,8.6073,41.4124,0.4171,-0.4619,1.1249,73.3281
21:10:10:430,-1.0007,-1.3186,9.1663,39.8848,0.4304,-0.6561,1.2146,72.2031
21:10:10:454,-0.5901,-0.8613,8.7797,42.6951,0.5049,-0.6246,1.2468,70.9531
21:10:10:471,-0.1711,-0.3166,7.9704,41.361,0.5119,-0.4715,1.1968,70.9531
21:10:10:487,0.0803,0.1885,7.3072,39.1438,0.4466,-0.3367,1.0641,69.6406
21:10:10:508,-0.1447,0.4004,7.4353,40.4263,0.4005,-0.3146,0.8849,68.2656
21:10:10:528,-0.5757,0.3178,7.6963,41.104,0.4602,-0.293,0.7523,66.9219
21:10:10:554,-0.8582,-0.094,7.6017,41.5246,0.5795,-0.1815,0.7027,64.8125
21:10:10:572,-1.0342,-0.4723,6.9493,39.4311,0.6328,0.0247,0.744,64.3906
21:10:10:589,-0.845,-0.4842,6.1724,39.2776,0.5862,0.1714,0.8559,63.6094
21:10:10:610,-0.1806,-0.1419,5.8635,40.3008,0.4839,0.0769,0.9134,62.875
21:10:10:629,0.4299,0.1107,6.4405,38.1939,0.3694,-0.1548,0.8519,62
21:10:10:653,0.607,0.1431,7.5658,41.2608,0.2876,-0.2731,0.7102,61
21:10:10:671,0.4383,-0.1059,8.2003,39.0983,0.2346,-0.1218,0.5842,60.5
21:10:10:688,0.3988,-0.4447,7.9572,39.5918,0.1454,0.1693,0.5392,59.6094
21:10:10:709,0.5292,-0.4854,7.7106,38.1623,-0.0224,0.319,0.5597,58.1719
21:10:10:728,1.1254,-0.2436,8.1105,38.833,-0.1814,0.1581,0.5565,58.1719
21:10:10:754,1.5372,-0.0676,8.806,37.0173,-0.3044,-0.1828,0.4146,57.5781
21:10:10:771,1.5982,-0.313,9.9923,38.9473,-0.4607,-0.4451,0.2359,56.9219
21:10:10:795,1.8484,-0.6937,11.5246,38.2575,-0.6394,-0.4851,0.1049,56.2656
