Time,Acc_X,Acc_Y,Acc_Z,Meg,Gyr_X,Gyr_Y,Gyr_Z,Ore
13:29:06:877,-3.7229,1.8441,8.241,56.4969,-0.029,-0.1133,-0.293,56.8906
13:29:06:939,-1.8626,2.3385,10.5322,56.661,0.1143,-0.1761,0.1698,57.375
13:29:06:954,-2.1918,2.0153,9.729,57.0995,0.2828,-0.3863,0.0527,57.375
13:29:06:972,-2.248,1.8238,9.6571,56.0506,0.3899,-0.7386,0.0194,57.375
13:29:06:991,-1.6172,1.5556,9.7996,57.5201,0.3457,-0.8246,-0.0049,183.1875
13:29:07:018,-1.428,1.248,9.7984,56.4861,0.1547,-0.6715,0.0564,183.2031
13:29:07:035,-1.6124,1.2456,9.8762,55.8871,-0.0341,-0.3871,0.2433,183.375
13:29:07:051,-1.2916,1.4898,9.541,56.2813,-0.0935,-0.0861,0.4316,183.5
13:29:07:070,-1.0785,1.8429,8.8036,57.2657,-0.0549,0.0111,0.5611,183.4219
13:29:07:091,-0.9061,2.1817,8.302,56.2769,0.0258,-0.2201,0.5739,183.0469
13:29:07:122,-0.5769,2.299,8.63,56.4851,0.1127,-0.5098,0.4476,182.4688
13:29:07:138,-0.1028,2.1494,9.28,55.0348,0.168,-0.5924,0.2319,181.8125
13:29:07:155,0.2276,1.9471,9.7804,55.2294,0.1425,-0.5746,-0.003,181.2969
13:29:07:169,0.194,1.6909,10.5214,55.0423,0.0842,-0.541,-0.1681,180.9844
13:29:07:190,0.3736,1.4036,10.9715,56.0537,0.0868,-0.3828,-0.2427,180.9531
13:29:07:209,0.4849,1.1893,10.8267,55.3109,0.1736,-0.1644,-0.2456,181.125
13:29:07:234,0.7208,1.005,10.2736,55.2923,0.3095,0.0524,-0.2611,181.4531
13:29:07:250,0.6382,1.1666,9.705,56.6926,0.3995,0.2337,-0.3221,181.7812
13:29:07:267,0.5185,1.2169,8.9999,56.8838,0.3947,0.2939,-0.3734,182.0781
13:29:07:288,0.1845,1.2647,8.3786,56.5628,0.3119,0.2593,-0.3844,182.5469
13:29:07:307,-0.3099,1.5413,8.0363,56.5628,0.1854,0.1631,-0.3319,182.9375
13:29:07:327,-0.5913,1.9998,7.8423,57.6291,0.0509,0.0585,-0.2722,183.3281
13:29:07:352,-0.7002,2.4738,8.0351,56.8655,-0.0724,-0.0558,-0.2486,183.6875
13:29:07:366,-0.7984,2.7839,8.4983,58.4099,-0.1454,-0.166,-0.2933,184
13:29:07:388,-0.9683,2.7851,8.9855,56.3993,-0.1864,-0.2267,-0.3617,184.1406
13:29:07:406,-1.2461,2.7108,9.3603,55.8696,-0.2045,-0.157,-0.3471,184.4375
13:29:07:426,-1.4185,2.7336,9.371,57.8584,-0.1843,-0.0813,-0.2704,184.8438
13:29:07:451,-1.3837,2.9263,9.1328,55.7998,-0.1542,-0.0539,-0.2043,185.2969
13:29:07:464,-1.2018,3.0987,8.867,56.3665,-0.1364,-0.1069,-0.1828,185.6562
13:29:07:487,-1.1264,3.1358,8.7114,57.6753,-0.1214,-0.1705,-0.1934,185.9062
13:29:07:504,-1.1635,2.9718,8.6133,56.5862,-0.1129,-0.1551,-0.1908,186.125
13:29:07:523,-1.3777,2.8138,8.5809,56.5054,-0.1055,-0.1325,-0.1596,186.3594
13:29:07:544,-1.5705,2.5875,8.5761,55.6471,-0.0954,-0.0899,-0.1066,186.5938
13:29:07:568,-1.4029,2.499,8.3894,55.4772,-0.1164,0.0084,-0.043,186.8125
13:29:07:583,-0.9935,2.6187,8.5462,56.7722,-0.1222,0.1328,-0.0121,187.0469
13:29:07:603,-0.796,2.712,8.9209,55.9127,-0.0072,0.2052,-0.0049,187.0781
13:29:07:627,-0.8187,2.9766,9.1807,56.4585,0.1947,0.2944,-0.0118,187.0781
13:29:07:641,-1.0366,3.392,8.8144,56.6783,0.331,0.3949,-0.035,187.0469
13:29:07:664,-1.3131,3.6434,8.0961,56.3195,0.2775,0.299,-0.0906,187.0156
13:29:07:685,-1.7213,3.5237,8.1404,56.5931,0.0935,0.042,-0.1966,187.0156
13:29:07:703,-1.9667,3.0819,9.1615,57.2373,-0.0658,-0.1303,-0.289,187.0938
13:29:07:721,-1.8123,2.5947,10.604,55.9627,-0.1049,-0.0715,-0.3335,187.3125
13:29:07:740,-1.9476,2.2272,11.278,57.0043,-0.0479,0.0878,-0.2872,187.6406
13:29:07:762,-2.187,2.0943,11.047,56.2139,0.0639,0.1877,-0.1527,188.0312
13:29:07:786,-2.448,2.1853,10.3778,57.2956,0.1566,0.1996,-0.0078,188.3438
13:29:07:803,-2.6922,2.2308,9.7325,57.1024,0.1984,0.0183,0.1107,188.4844
13:29:07:821,-2.8909,2.1314,9.5542,55.4556,0.2176,-0.1045,0.2253,188.4844
13:29:07:841,-2.9879,1.9112,9.6009,55.8821,0.2631,-0.0084,0.3557,188.4688
13:29:07:861,-3.1818,1.8405,9.5266,57.9296,0.3656,0.2537,0.5339,188.125
13:29:07:885,-3.2033,2.0321,9.1639,56.9093,0.4948,0.5011,0.6852,187.75
13:29:07:902,-3.2548,2.3062,8.6959,56.6984,0.5209,0.4721,0.7531,187.75
13:29:07:919,-3.5649,2.2715,8.6576,56.6723,0.4,0.2116,0.7914,187.1094
13:29:07:939,-3.9635,1.9758,9.2681,58.2672,0.2144,0.0718,0.8764,186.2656
13:29:07:961,-3.9898,1.5221,10.0917,54.9821,0.0453,0.1219,1.0197,184.4688
13:29:07:984,-3.4918,1.1893,10.5514,57.4973,-0.0487,0.3376,1.1805,184.4688
13:29:08:002,-2.6551,1.1582,10.0438,56.5608,-0.0756,0.5184,1.2868,183.4688
13:29:08:019,-1.9236,1.3737,8.8347,56.0488,-0.1044,0.4707,1.2849,182.3438
13:29:08:040,-1.2556,1.8238,7.494,56.6328,-0.2163,0.2422,1.1579,180.9219
13:29:08:061,-0.4991,2.1386,6.5099,56.7532,-0.3997,-0.0206,0.948,179.3438
13:29:08:084,0.0061,2.4559,6.4333,55.9451,-0.6067,-0.1498,0.6745,177.8594
13:29:08:104,0.1354,2.3421,7.0618,56.4245,-0.788,0.043,0.3842,176.4688
13:29:08:119,-0.0669,1.9016,7.1767,58.0815,-0.9611,0.4313,0.222,175.375
13:29:08:139,-0.4775,1.4359,6.9481,57.0918,-1.1593,0.8095,0.2426,174.5938
13:29:08:159,-0.8762,1.3378,6.9553,58.1864,-1.2948,0.9994,0.4205,173.7812
13:29:08:185,-0.8642,1.825,7.4006,57.6839,-1.2634,0.9427,0.6111,173.5625
13:29:08:201,-0.1615,2.3781,8.047,57.5892,-1.0637,0.7445,0.6127,173
13:29:08:219,0.2503,2.5648,8.4768,56.3781,-0.7678,0.402,0.4785,172.2188
13:29:08:245,0.048,2.73,8.6037,55.8889,-0.4943,-0.0052,0.3533,171.2969
13:29:08:258,-0.3949,2.8102,9.0047,55.8623,-0.2921,-0.3711,0.2447,170.5312
13:29:08:279,-0.9145,2.7432,9.717,55.8383,-0.1462,-0.684,0.1126,170
13:29:08:302,-1.6064,2.5073,10.4496,57.6568,-0.1214,-0.9144,-0.0009,169.6562
13:29:08:321,-1.8482,2.135,11.8155,58.8359,-0.1862,-0.9996,-0.0565,169.4844
13:29:08:340,-1.3514,1.7939,13.2999,56.9377,-0.2538,-0.7019,-0.1242,169.4844
13:29:08:362,-0.9911,1.6646,13.8554,58.3395,-0.2985,-0.2156,-0.2099,169.6094
13:29:08:387,-0.8403,1.6813,13.6698,59.7956,-0.319,0.0926,-0.3244,169.7812
13:29:08:401,-0.8403,1.746,13.1563,55.2541,-0.3302,0.0984,-0.4568,169.875
13:29:08:420,-1.1946,1.6706,12.8247,58.829,-0.2895,-0.1338,-0.5844,170.1094
13:29:08:439,-1.871,1.1462,12.8295,56.3889,-0.1579,-0.2928,-0.5513,170.4531
13:29:08:460,-2.3043,0.4531,12.2465,57.6799,-0.0828,-0.2193,-0.2912,170.9531
13:29:08:486,-2.0134,0.4028,11.2816,57.9545,-0.1118,-0.1362,0.091,171.9375
13:29:08:503,-0.5637,0.9044,10.5418,56.9751,-0.2218,-0.2291,0.34,172.4688
13:29:08:520,2.2267,1.9818,10.5933,57.7589,-0.3084,-0.2733,0.2777,172.5781
13:29:08:539,2.2734,1.9351,10.3754,55.8964,-0.306,-0.1929,-0.0493,172.2969
13:29:08:560,1.5683,1.6143,9.8235,57.3864,-0.2165,-0.0265,-0.4238,171.9375
13:29:08:587,0.613,1.2839,8.3631,55.9567,-0.0035,0.2596,-0.6794,171.7812
13:29:08:604,-0.0945,1.005,6.7506,56.488,0.2386,0.365,-0.7756,172.0625
13:29:08:622,-0.4548,0.9332,5.5499,56.8833,0.4194,0.2175,-0.7372,172.6875
13:29:08:638,-0.4141,1.1235,5.1919,57.6711,0.4874,-0.0401,-0.6227,173.5156
13:29:08:658,-0.2884,1.2504,5.3691,55.0079,0.4573,-0.2291,-0.538,174.3906
13:29:08:679,-0.3794,1.3964,5.9006,54.4102,0.379,-0.3144,-0.5311,175.1562
13:29:08:701,-0.3734,1.4407,6.662,56.8605,0.2956,-0.3551,-0.5442,175.8438
13:29:08:719,-0.3698,1.5712,7.3132,57.8148,0.2479,-0.333,-0.5476,176.4688
13:29:08:738,-0.432,1.8034,7.901,55.6931,0.233,-0.3184,-0.5375,177.125
13:29:08:758,-0.6116,1.9399,8.3583,55.1472,0.244,-0.3538,-0.5252,178.0781
13:29:08:778,-0.954,1.9926,8.6935,57.4768,0.2711,-0.4433,-0.5239,178.7344
13:29:08:804,-1.209,2.0405,9.2585,55.629,0.2935,-0.5421,-0.48,179.3281
13:29:08:819,-1.3263,2.165,10.0007,54.9822,0.2967,-0.5213,-0.3889,179.9844
13:29:08:890,-1.5741,2.3457,10.4891,56.3322,0.2882,-0.267,-0.2773,180.5781
13:29:08:891,-1.8841,2.5097,11.1763,56.7657,0.2448,0.0343,-0.1655,181.0781
13:29:08:891,-2.2828,2.5516,11.6108,54.6577,0.2133,0.3134,-0.0334,181.4062
13:29:08:899,-2.4013,2.5768,11.9484,56.7104,0.1872,0.4811,0.1323,181.5156
13:29:08:919,-1.7022,2.5468,11.7269,55.5364,0.1894,0.5304,0.323,181.625
13:29:08:938,-0.9504,2.7515,11.5043,56.0344,0.1563,0.3789,0.3994,181.5312
13:29:08:959,-0.6703,2.9024,12.3003,54.3905,0.0056,0.0076,0.3248,181.2188
13:29:08:978,-0.7241,2.4559,13.7728,55.0496,-0.139,-0.3788,0.1746,180.7344
13:29:09:001,-0.8726,1.6562,14.5676,54.0452,-0.0685,-0.5868,0.0455,180.2812
13:29:09:019,-1.0246,1.0397,13.598,55.6338,0.1526,-0.3913,0.0138,179.9688
13:29:09:039,-1.264,0.8817,11.4085,55.4595,0.3225,0.1285,0.1091,179.9844
13:29:09:059,-1.1431,1.0816,9.1149,54.0822,0.3619,0.508,0.2852,180
13:29:09:085,-0.5889,1.333,7.9608,53.7239,0.2733,0.3711,0.4268,179.875
13:29:09:102,-0.0454,1.4742,8.1356,53.7523,0.1326,-0.1695,0.4652,179.5
13:29:09:118,0.2623,1.4359,8.4708,53.3209,0.036,-0.6574,0.4098,178.9688
13:29:09:139,0.1593,1.2624,8.7246,53.3689,-0.0525,-0.8355,0.3033,178.4844
13:29:09:159,-0.195,1.0253,8.8383,52.5294,-0.1404,-0.6595,0.2279,178.0938
13:29:09:180,-0.432,0.8266,8.1488,51.6432,-0.1252,-0.2973,0.2396,177.8594
13:29:09:204,-0.3471,0.8206,6.7877,52.5491,-0.013,0.035,0.3235,177.6719
13:29:09:221,-0.0945,1.1618,5.6971,52.5149,0.0602,0.1339,0.4274,177.4531
13:29:09:241,0.0049,1.5832,5.5355,51.3924,0.0091,-0.1189,0.4436,176.5625
13:29:09:259,-0.1076,1.6861,5.8096,54.5187,0.0208,-0.1407,0.4037,176.5625
13:29:09:279,-0.3578,1.5556,5.921,50.9075,0.0189,-0.1205,0.434,176.0469
13:29:09:303,-0.7756,1.7484,6.1329,51.7722,0.016,-0.1724,0.5704,175.1094
13:29:09:318,-0.9552,2.1386,7.1959,51.2652,0.1393,-0.3586,0.7438,174.875
13:29:09:338,-0.6619,2.4894,8.3248,51.2652,0.3811,-0.6158,0.8828,174.6406
13:29:09:359,0.1689,3.0436,8.8623,51.7701,0.551,-0.7652,0.8687,174.0156
13:29:09:379,0.9758,3.7583,8.7342,50.7814,0.4168,-0.8172,0.6553,172.25
13:29:09:402,1.536,4.3257,9.1519,53.7468,-0.0645,-0.6449,0.2644,172.25
13:29:09:419,1.2655,3.8206,11.2481,50.5286,-0.599,-0.1202,-0.1236,171.375
13:29:09:438,0.1186,2.5612,13.8554,50.7739,-0.7982,0.5182,-0.2344,170.7031
13:29:09:460,-0.8187,1.2432,15.6043,48.8381,-0.5007,0.9592,0.0037,170.5
13:29:09:484,-0.5063,0.4256,15.2619,50.4185,0.0594,1.136,0.3672,170.6875
13:29:09:505,0.6178,0.4244,12.5242,48.9748,0.3422,0.9517,0.5563,170.9531
13:29:09:521,1.3648,1.5161,10.3371,49.8272,0.175,0.4907,0.4567,170.8594
13:29:09:544,2.1286,2.2009,10.3443,50.4727,-0.1667,-0.003,0.0588,170.3438
13:29:09:557,1.9346,1.886,11.9867,49.7156,-0.3683,-0.2462,-0.3508,169
13:29:09:580,1.123,0.7727,14.0553,48.8255,-0.232,0.0324,-0.4773,168.8906
13:29:09:605,0.637,-0.2723,13.8913,49.3317,0.1023,0.5115,-0.3601,169.1094
13:29:09:624,0.6669,-0.5728,11.3271,49.6763,0.2834,0.798,-0.1407,169.6562
13:29:09:638,1.0093,0.0485,8.2398,48.9849,0.1585,0.6838,-0.0091,170.125
13:29:09:659,1.293,0.9619,6.6895,48.7165,-0.074,0.2699,-0.0366,170.3438
13:29:09:678,1.3696,1.5221,6.6632,49.1242,-0.1742,-0.1042,-0.1623,170.2969
13:29:09:700,1.2822,1.6813,6.8751,48.0479,-0.1167,-0.2118,-0.2893,170.25
13:29:09:718,1.1828,1.7771,6.5123,47.8594,-0.0133,-0.1178,-0.3817,170.3594
13:29:09:738,1.2403,1.9279,5.7031,48.4522,0.0439,-0.0313,-0.4872,170.625
13:29:09:758,1.2666,2.1698,5.174,47.4749,0.0163,0.0308,-0.6278,171.0312
13:29:09:779,1.05,2.2619,5.3069,48.9468,-0.0136,0.0803,-0.7508,171.5312
13:29:09:804,0.9243,2.3577,6.0706,47.8161,0.073,0.0518,-0.8195,172.125
13:29:09:823,0.7112,2.396,7.2605,48.1191,0.3449,0.0633,-0.8643,172.5
13:29:09:840,0.145,2.6582,6.6033,49.4822,0.502,-0.0313,-0.8525,173.3594
13:29:09:859,-0.0023,3.2591,5.6959,48.9552,0.3193,-0.2169,-0.8757,174.2969
13:29:09:888,-0.3913,3.4183,6.4238,48.7777,-0.0642,-0.1982,-0.9396,175.7188
13:29:09:901,-1.6016,3.3992,8.4852,46.7913,-0.3617,0.1544,-0.8912,176.7031
13:29:09:920,-3.1267,4.2982,12.0322,49.1883,-0.4759,0.4803,-0.7844,177.7812
13:29:09:939,-3.8258,4.3593,13.4184,47.7632,-0.4168,0.5027,-0.7095,178.8125
13:29:09:958,-4.3262,3.7487,14.5593,47.3653,-0.2344,0.1791,-0.5977,179.7188
13:29:09:980,-4.3358,2.5325,15.6139,47.5001,-0.0759,-0.2438,-0.3947,180.5
13:29:10:003,-3.6893,1.4036,17.0325,47.2326,-0.0085,-0.5477,-0.0637,181.1875
13:29:10:021,-2.509,0.7045,18.2655,47.9549,0.0679,-0.6547,0.3824,181.7656
13:29:10:038,-1.264,0.3466,18.53,47.7211,0.326,-0.6579,0.7882,182.0938
13:29:10:058,0.4526,-0.0437,15.736,47.0952,0.8346,-0.4422,1.0487,181.9844
13:29:10:079,1.4354,0.3023,10.2186,48.5617,1.2943,0.1493,1.0665,181.3906
13:29:10:102,1.4738,1.1953,5.5188,48.0709,1.2014,0.7062,0.8354,180.375
13:29:10:120,0.7016,1.6598,3.862,48.5969,0.5401,0.7874,0.4684,179.1406
13:29:10:137,-0.0442,1.5389,5.435,49.5344,-0.2748,0.3008,0.1475,178.0156
13:29:10:158,-0.1687,1.2288,7.6257,48.8179,-0.759,-0.2907,-0.0075,177.125
13:29:10:177,-0.3518,1.2995,8.1883,48.3971,-0.7936,-0.6292,-0.04,176.6406
13:29:10:202,-0.3997,1.3725,7.4844,50.2803,-0.6053,-0.7836,-0.0049,176.6875
13:29:10:221,-0.3913,1.4467,6.808,47.4324,-0.4498,-0.9197,0.0828,176.8125
13:29:10:238,-0.3028,1.2731,6.7829,49.091,-0.3696,-0.8718,0.2079,176.9219
13:29:10:264,-0.5194,0.9954,7.002,48.9558,-0.338,-0.6433,0.3483,176.9531
13:29:10:277,-0.5972,1.0301,7.1265,48.5073,-0.3638,-0.1863,0.5493,176.9531
13:29:10:299,-0.1471,1.1235,7.2342,48.9396,-0.4141,0.3557,0.768,176.5156
13:29:10:320,0.4395,1.2887,7.2174,48.4053,-0.3854,0.7301,0.9003,175.9219
13:29:10:338,0.6681,1.8022,6.802,49.4238,-0.2338,0.7964,0.9504,175.5469
13:29:10:361,0.722,2.7994,6.9924,49.909,-0.0892,0.5645,0.9139,174.5469
13:29:10:377,0.3796,3.0281,7.6041,50.3303,0.0674,0.0968,0.7001,173.4062
13:29:10:399,0.2156,2.5133,9.1496,49.6306,0.208,-0.4811,0.3973,172.25
13:29:10:421,0.4382,2.0955,12.6702,50.0722,0.3119,-0.8734,0.1485,171.3281
13:29:10:438,1.3576,2.2308,17.1941,50.5015,0.576,-0.8307,-0.0299,170.7188
13:29:10:457,1.2906,2.1051,18.5636,51.8498,1.2197,-0.3317,-0.3543,170.4531
13:29:10:478,0.9961,0.2915,14.6012,53.158,1.7156,0.6574,-0.7988,170.5469
13:29:10:502,0.2407,0.264,9.383,52.733,1.4908,1.8508,-0.9447,170.9375
13:29:10:519,0.2695,2.05,7.0163,51.8011,0.7614,2.3943,-0.7045,171.6719
13:29:10:538,0.4778,3.3262,7.7645,53.8703,0.1531,1.8276,-0.6115,172.3906
13:29:10:558,-0.7553,2.7599,9.3088,54.8145,-0.0093,0.5256,-0.9774,172.7969
13:29:10:579,-1.9057,1.0014,11.0362,52.2133,-0.0048,-0.5447,-1.2371,173.2031
13:29:10:605,-2.2576,-0.0449,12.0142,52.3682,-0.0205,-0.7442,-1.0773,174.1719
13:29:10:619,-1.5322,0.0054,10.8889,53.1703,-0.2125,0.164,-0.3766,175.6875
13:29:10:638,0.1593,0.9439,10.0582,52.0377,-0.3949,0.2785,-0.3271,175.6875
13:29:10:658,1.1805,1.6227,9.8128,54.2214,-0.3976,0.1291,-0.5801,177.0469
13:29:10:678,0.6753,1.503,8.9748,54.2397,-0.3883,0.0827,-0.8009,177.9062
13:29:10:704,-0.0286,1.1414,7.8507,53.6173,-0.4559,0.213,-0.8403,178.2812
13:29:10:720,-0.4428,1.163,6.7925,54.6775,-0.4927,0.2961,-0.8014,179.2188
13:29:10:738,-0.5206,1.4635,5.8144,53.0641,-0.4866,0.1722,-0.7556,180.0625
13:29:10:758,-0.4356,1.7723,5.356,52.6407,-0.4663,-0.0944,-0.7274,181.4062
13:29:10:778,-0.5565,1.7568,5.3224,53.9375,-0.3776,-0.3215,-0.6533,181.8125
13:29:10:805,-0.7948,1.6873,5.326,53.1241,-0.2887,-0.4456,-0.4845,182.5938
13:29:10:821,-0.8917,1.9686,5.7354,53.5077,-0.2144,-0.3604,-0.2869,183.4062
13:29:10:837,-0.6164,2.5265,6.2011,54.2095,-0.1904,-0.2393,-0.2086,184.1719
13:29:10:858,-0.8606,2.9982,6.7781,53.2716,-0.2429,-0.174,-0.2179,184.75
13:29:10:879,-1.3466,3.3872,7.992,54.7034,-0.2229,-0.1743,-0.2208,185.0938
13:29:10:904,-1.367,3.6182,9.5925,54.9413,0.0091,-0.276,-0.264,185.3438
13:29:10:954,-1.9296,3.4507,10.6866,54.6577,0.245,-0.2925,-0.3063,185.5938
13:29:10:955,-3.0489,2.8904,11.4252,54.5818,0.3159,-0.1149,-0.2177,185.8594
13:29:10:964,-3.5972,2.323,11.9364,55.7,0.2394,0.1027,-0.0158,186.1875
13:29:10:977,-3.3398,2.1853,12.5709,54.8463,0.0863,0.1259,0.1472,186.5781
13:29:10:999,-2.6802,2.0967,14.0158,53.773,0.0029,0.1339,0.2029,186.8438
13:29:11:019,-2.2157,1.3198,15.2727,53.1906,0.094,0.5493,0.2559,186.8594
13:29:11:038,-1.7489,0.9786,13.6399,53.443,0.0967,1.0926,0.3203,186.5625
13:29:11:058,-2.1391,1.989,10.8051,53.6046,-0.1939,0.9408,0.3304,186.2969
13:29:11:078,-2.9184,2.9155,11.0506,55.1437,-0.3995,0.0521,0.2934,185.875
13:29:11:104,-2.8945,2.007,14.3043,52.2191,-0.1393,-0.5306,0.2593,185.3594
13:29:11:120,-2.3821,0.0293,15.6211,51.1708,0.4059,-0.2515,0.388,184.9062
13:29:11:138,-1.6914,-0.5896,12.4248,53.2544,0.6171,0.247,0.5762,184.6406
13:29:11:157,-0.8702,0.7261,8.4469,51.5973,0.3249,0.0311,0.5195,184.3594
13:29:11:177,-0.049,1.6849,7.6185,53.1681,-0.081,-0.6459,0.1845,183.8125
13:29:11:201,0.0492,1.2755,8.8874,51.7491,-0.2884,-1.0342,-0.1087,183.1719
13:29:11:220,-0.4296,0.4878,9.3662,52.0773,-0.2455,-1.1091,-0.154,182.7969
13:29:11:238,-0.9252,0.1335,8.739,51.2373,-0.0935,-0.9698,0.0018,182.8906
13:29:11:258,-1.1359,0.0569,7.4078,51.9815,-0.029,-0.6896,0.2607,183.1719
13:29:11:278,-1.1503,0.1035,6.5255,51.9523,-0.0461,-0.3056,0.5416,183.4062
13:29:11:303,-0.8738,0.2891,5.8875,51.9384,-0.0671,0.0002,0.7896,183.3594
13:29:11:322,0.6669,0.9427,4.3851,50.9261,-0.0804,0.0923,0.9366,183.2031
13:29:11:341,1.1876,1.1797,4.0619,49.6732,-0.1023,-0.1117,0.9565,182.2188
13:29:11:358,1.3852,1.0361,3.8775,49.2201,-0.1417,-0.5157,0.8932,181.2031
13:29:11:378,1.2188,1.3701,4.4138,50.0797,-0.2474,-1.0481,0.8151,180.1094
13:29:11:404,1.1745,1.8585,6.7973,49.6714,-0.4844,-1.451,0.7134,179.125
13:29:11:421,1.0464,2.0788,10.8231,49.6714,-0.64,-1.4483,0.5331,178.2344
13:29:11:437,0.3425,1.8082,12.8989,49.934,-0.4855,-0.7636,0.2939,177.5
13:29:11:462,-0.6032,1.7855,12.1315,48.2118,-0.1214,0.1424,0.1563,176.9688
13:29:11:476,-0.9803,2.2703,10.2976,48.2597,0.1784,0.7083,0.1611,176.6406
13:29:11:499,-0.511,2.7108,10.5406,47.0775,0.1622,0.6777,0.1616,176.4688
13:29:11:521,-0.1004,2.4906,13.112,46.9091,-0.0229,0.1789,-0.019,176.2344
13:29:11:537,0.1126,1.1187,16.5357,48.129,-0.1345,-0.2853,-0.284,175.9844
13:29:11:558,0.139,0.1383,17.6418,46.6251,0.0075,-0.284,-0.4102,175.8125
13:29:11:578,0.3066,0.7991,15.8246,48.5672,0.2381,0.3701,-0.2991,176.0156
13:29:11:604,0.6932,1.8322,14.8166,44.8707,0.2562,0.8606,-0.1833,176.4531
13:29:11:623,0.5831,1.339,15.2691,47.6034,0.1803,0.7658,-0.3857,177
13:29:11:640,-0.1579,0.1933,14.339,45.9415,0.3041,0.7554,-0.6406,177.1094
13:29:11:658,-0.1028,0.2604,10.9811,46.1453,0.5742,1.0481,-0.509,177.4531
13:29:11:678,0.9901,1.7436,7.4162,46.6044,0.693,1.0732,-0.2009,178.1094
13:29:11:704,1.7072,2.9072,6.498,45.9987,0.4993,0.466,-0.1713,178.5781
13:29:11:719,1.2152,2.7396,7.7382,46.4796,0.1947,-0.3596,-0.4949,178.6875
13:29:11:737,-0.1124,1.9471,8.29,46.149,0.0804,-0.6571,-0.8158,178.8281
13:29:11:758,-0.7553,1.4695,7.871,45.004,0.1681,-0.5762,-0.8326,179.0625
13:29:11:778,-0.7625,1.4838,7.0103,44.4887,0.3212,-0.3804,-0.6454,179.9219
13:29:11:803,-0.6715,1.8058,6.644,44.555,0.4192,-0.2467,-0.4185,180.9375
13:29:11:819,-0.6487,2.2954,6.9385,45.5506,0.4815,-0.2065,-0.2296,181.8594
13:29:11:837,-0.3207,2.7192,7.6592,43.4818,0.6067,-0.248,-0.1402,182.5
13:29:11:858,0.3509,2.6821,7.4114,43.6286,0.8397,-0.1849,-0.1356,182.8906
13:29:11:879,0.0935,2.7527,6.583,45.1955,0.9992,-0.0102,-0.2342,183.1875
13:29:11:905,-0.4237,3.307,6.6033,43.5811,0.9438,0.0862,-0.2994,183.375
13:29:11:919,-0.6655,3.5356,8.0087,43.9823,0.7774,-0.0616,-0.2922,183.625
13:29:11:938,-0.7361,3.1789,8.9556,44.3539,0.7529,-0.093,-0.2661,183.9375
13:29:11:958,-0.7265,3.9678,9.5757,44.1803,0.7454,0.0761,-0.1748,184.2812
13:29:11:978,-0.5817,3.7475,9.729,43.116,0.7553,0.4337,-0.1409,184.5938
13:29:12:004,-1.0892,3.7547,10.197,43.8925,0.6759,0.5197,-0.2493,184.7656
13:29:12:022,-0.9707,3.4423,10.6172,41.4194,0.628,0.3165,-0.2158,184.8281
13:29:12:039,-0.8905,3.3058,11.193,43.2882,0.6288,0.1245,-0.1945,184.8281
13:29:12:058,-1.519,3.1131,11.1619,41.7427,0.5912,0.1725,-0.0693,185
13:29:12:079,-2.3067,3.1334,10.8207,43.0745,0.4533,0.4883,0.2197,185.3438
13:29:12:103,-2.084,3.3944,10.1396,43.8781,0.2551,0.4324,0.4703,185.4531
13:29:12:120,-1.27,3.5668,10.5562,41.3198,0.1649,0.2042,0.4945,185.4531
13:29:12:137,-0.8833,3.3273,10.7752,43.0244,0.2469,0.0872,0.4252,185.5938
13:29:12:157,-1.3215,3.0077,9.3064,44.5357,0.3105,0.0207,0.425,184.6094
13:29:12:177,-1.4496,2.9634,6.9996,43.0951,0.1321,-0.1698,0.458,183.9844
13:29:12:203,-0.9839,2.9383,5.6349,41.3474,-0.2613,-0.4869,0.4141,183.5156
13:29:12:221,-0.2896,2.7132,6.2933,41.5209,-0.6165,-0.6931,0.3091,183.0312
13:29:12:237,-0.0023,2.2512,7.8172,41.0963,-0.6975,-0.582,0.2521,182.5469
13:29:12:257,-0.3327,2.0129,8.3822,42.4305,-0.5422,-0.284,0.3219,182.2188
13:29:12:280,-0.5625,2.0045,7.5969,42.6783,-0.3105,0.0345,0.4756,182.0469
13:29:12:303,-0.2417,2.147,5.8216,42.7301,-0.2056,0.0833,0.6047,181.9062
13:29:12:321,0.2036,2.6115,4.7335,42.8738,-0.2807,-0.1032,0.6383,181.6094
13:29:12:337,0.5089,2.9814,5.174,41.8252,-0.3611,-0.2451,0.5874,181.0781
13:29:12:360,0.5233,3.1861,6.3112,41.9478,-0.2871,-0.2648,0.5299,180.375
13:29:12:376,0.4778,3.3166,7.0558,42.1157,-0.1161,-0.2254,0.4948,179.6719
13:29:12:399,0.6226,3.3728,7.324,42.9258,0.0386,-0.1386,0.4463,178.8125
13:29:12:418,0.6585,3.4842,7.1612,42.6386,0.0921,-0.0965,0.3683,178.2969
13:29:12:438,0.4083,3.6961,7.1492,42.5804,0.0368,-0.0443,0.287,177.7969
13:29:12:458,0.4778,4.0516,7.3216,41.1973,-0.0916,0.0731,0.197,177.3594
13:29:12:477,0.7866,4.4814,7.5921,42.6915,-0.2626,0.0361,0.0045,177
13:29:12:504,0.8429,4.6765,8.3463,42.4036,-0.4466,-0.1655,-0.2874,176.7188
13:29:12:522,0.5544,4.2192,9.8163,41.7796,-0.6285,-0.3586,-0.5194,176.5781
13:29:12:540,0.0229,3.1119,11.9496,43.3609,-0.7265,-0.2968,-0.5383,176.75
13:29:12:557,-0.444,2.1027,13.7871,41.4705,-0.6272,0.1149,-0.2728,177.3125
13:29:12:578,0.0791,1.8202,13.2221,41.715,-0.5055,0.5855,0.0268,178.0781
13:29:12:603,0.9135,2.5145,11.2768,41.8114,-0.4735,0.5634,0.0678,178.5938
13:29:12:619,1.6306,3.2292,9.8307,42.7743,-0.5401,-0.1381,-0.2366,178.6562
13:29:12:637,1.7862,3.0436,10.4556,41.5339,-0.6538,-0.917,-0.7037,178.5625
13:29:12:658,0.9937,1.7592,12.2489,42.6888,-0.7396,-1.1365,-0.9713,178.3906
13:29:12:677,0.2599,0.0928,13.1491,42.685,-0.8424,-0.8582,-0.9189,178.6875
13:29:12:704,-0.5458,-0.4016,12.8342,42.8442,-0.9686,-0.3663,-0.6248,180.3281
13:29:12:724,-0.1711,0.5956,10.5047,40.6854,-1.0203,-0.0677,-0.3386,181.5938
13:29:12:738,-0.0645,0.9954,9.0777,42.4276,-0.8823,-0.0219,-0.178,182.6406
13:29:12:758,0.1078,1.3114,7.4593,41.7132,-0.5952,-0.1314,-0.0405,183.25
13:29:12:776,0.6549,1.661,6.0287,42.9741,-0.2839,-0.3056,0.0998,183.5938
13:29:12:797,1.2655,2.0824,5.4457,42.0445,-0.0938,-0.5237,0.1493,183.75
13:29:12:819,1.2487,2.2763,6.176,41.1824,-0.0975,-0.6537,0.0559,183.7656
13:29:12:836,0.8285,2.2751,7.1983,41.9062,-0.1609,-0.513,-0.0872,183.6562
13:29:12:858,0.4778,2.3745,7.1289,40.3449,-0.1497,-0.0731,-0.1729,183.5938
13:29:12:877,0.6465,2.6546,6.638,40.5431,-0.1188,0.3112,-0.1846,183.7031
13:29:12:901,0.9351,3.1023,7.1169,40.5879,-0.167,0.4468,-0.2131,183.9062
13:29:12:920,0.9781,3.3525,8.2841,40.0725,-0.2112,0.3805,-0.33,184.1094
13:29:12:936,0.6621,3.3178,9.2058,41.7623,-0.1329,0.2569,-0.5223,184.2812
13:29:13:010,0.0492,2.9527,9.4931,39.4877,-0.0229,0.2271,-0.7037,184.5469
13:29:13:010,-0.7002,2.6235,9.9301,39.959,-0.0141,0.2468,-0.798,185
13:29:13:011,-0.9528,2.22,11.0266,41.9207,-0.094,0.1815,-0.7727,186.0781
13:29:13:025,-0.8893,1.8837,12.7552,41.271,-0.1529,-0.0289,-0.6754,186.9688
13:29:13:037,-0.517,1.1917,14.6311,41.3682,-0.1025,-0.2273,-0.5617,187.8281
13:29:13:062,0.0241,0.6925,14.5581,39.042,0.0951,-0.2379,-0.3937,188.5781
13:29:13:076,0.1641,1.321,13.0904,40.8117,0.233,-0.0393,-0.1915,189.25
13:29:13:099,0.3497,2.0441,13.3753,40.2739,0.0586,-0.0294,-0.0741,189.7188
13:29:13:121,0.2336,1.8118,15.5816,40.2487,-0.2189,-0.222,-0.1428,189.9219
13:29:13:142,-0.4895,0.8589,15.5732,40.1596,-0.2128,-0.0584,-0.2629,190
13:29:13:157,-1.7536,0.4447,12.8127,40.6321,0.0341,0.3909,-0.2557,190.0781
13:29:13:177,-2.3773,0.5309,10.3347,40.8072,0.1537,0.5208,-0.0611,190.3594
13:29:13:203,-1.9284,0.7105,9.9803,43.0199,0.0197,0.2383,0.1986,190.6562
13:29:13:221,-1.094,0.6937,10.5681,41.2329,-0.1577,-0.0116,0.3587,190.7969
13:29:13:237,-0.4799,0.8972,9.881,40.6139,-0.1619,0.104,0.426,190.6719
13:29:13:257,-0.3566,1.1211,8.4229,42.3793,-0.1017,0.3999,0.4436,190.3438
13:29:13:277,-0.6236,1.2013,7.3012,41.3626,-0.0823,0.5672,0.4359,189.6406
13:29:13:297,-0.6679,1.1654,6.9625,43.4923,-0.1167,0.5821,0.4814,189.0938
13:29:13:320,-0.7217,1.0014,7.7873,41.928,-0.1609,0.556,0.5541,188.5625
13:29:13:338,-1.2545,0.7117,8.8263,41.1713,-0.098,0.6425,0.6495,187.9688
13:29:13:356,-1.2868,0.7763,8.5235,42.9167,0.1891,0.8305,0.8537,187.2812
13:29:13:377,-0.7864,1.1007,7.2941,42.3669,0.5281,0.9221,1.0612,186.4844
13:29:13:403,-0.1807,1.7208,6.3352,44.0612,0.7052,0.8761,1.1502,185.4688
13:29:13:421,0.2431,2.3266,6.5554,43.1453,0.522,0.5056,0.8178,184.1719
13:29:13:441,0.2802,2.4702,7.7717,42.507,0.4698,0.3858,0.5102,182.7656
13:29:13:456,0.0875,2.1554,8.8694,42.1723,0.478,0.4002,0.2415,181.5312
13:29:13:476,-0.1591,1.7197,9.389,43.1452,0.4429,0.438,0.0351,180.5469
13:29:13:497,-0.2465,1.2947,9.8714,43.1452,0.347,0.3807,-0.1109,179.9219
13:29:13:518,-0.0382,0.8829,10.8183,44.243,0.2695,0.2572,-0.1974,179.625
13:29:13:536,0.4574,0.5501,11.6671,44.2318,0.208,0.1783,-0.3007,179.5312
13:29:13:557,0.8967,0.3047,11.9783,45.047,0.1425,0.1847,-0.411,179.625
13:29:13:577,1.469,0.1071,11.4001,44.7015,0.0245,0.1879,-0.5548,179.9531
13:29:13:597,1.6677,0.1419,10.2162,44.7415,-0.2661,0.0923,-0.8246,180.3438
13:29:13:620,1.0021,0.0425,10.1479,45.2737,-0.6844,0.0135,-1.1396,180.8594
13:29:13:639,-0.62,-0.8434,11.4516,45.8352,-0.9662,0.1797,-1.1964,181.1875
13:29:13:656,-2.2026,-1.5257,12.675,45.1458,-0.8951,0.3879,-0.8222,182.0469
13:29:13:677,-2.0505,-1.3007,12.4368,46.6012,-0.4839,0.2455,-0.2994,183.3125
13:29:13:696,-0.2297,-0.4244,10.7884,46.2761,-0.0618,-0.3397,-0.0467,184.6094
13:29:13:722,1.3265,0.744,9.444,47.3709,0.1382,-0.863,-0.1918,185.4062
13:29:13:739,1.6533,1.3102,8.7294,45.5718,0.1068,-0.9296,-0.5306,185.6875
13:29:13:757,0.9901,1.2683,8.2996,45.9524,0.0117,-0.6182,-0.7607,185.7812
13:29:13:781,0.3628,1.1091,7.7322,46.9243,-0.0264,-0.2201,-0.8454,186.0938
13:29:13:806,-0.1148,1.163,6.9289,46.6664,-0.0064,0.0494,-0.8525,186.7812
13:29:13:822,-0.4596,1.2863,6.0814,48.4556,0.0298,0.1096,-0.8105,187.7188
13:29:13:839,-0.5853,1.5401,5.7785,48.8436,0.09,0.0486,-0.7633,188.7031
13:29:13:860,-0.5134,1.8609,5.8348,47.5108,0.1649,-0.0254,-0.7727,190.0938
13:29:13:878,-0.687,2.1458,5.8013,50.7699,0.183,-0.0864,-0.8091,190.9844
13:29:13:895,-1.0402,2.4415,6.1807,49.37,0.1433,-0.1485,-0.8366,191.8594
13:29:13:917,-1.6998,2.6701,7.4652,48.8891,0.1824,-0.1769,-0.8307,192.7344
13:29:13:936,-2.3474,2.6654,8.6145,50.8335,0.2812,-0.0555,-0.7673,193.7031
13:29:13:956,-3.0728,2.7899,8.9532,50.3026,0.3228,0.173,-0.6339,194.6875
13:29:13:977,-3.7827,3.0628,8.9161,48.7047,0.3025,0.2468,-0.4645,195.5938
13:29:13:997,-4.0784,3.2412,9.2286,50.1429,0.2653,0.1032,-0.2848,196.4219
13:29:14:022,-4.0485,3.3681,10.0582,50.1041,0.2724,-0.1066,-0.1231,197.0312
13:29:14:038,-4.0425,3.3477,10.9584,50.9161,0.2812,-0.2558,0.0138,197.4688
13:29:14:058,-3.669,3.04,11.5294,51.0187,0.1614,-0.2121,0.1374,197.6875
13:29:14:079,-2.916,2.7491,12.1734,51.6585,-0.1329,0.0718,0.2095,197.7969
13:29:14:103,-2.6108,2.8545,13.0066,50.5755,-0.4722,0.2542,0.2021,197.75
13:29:14:120,-3.1962,1.7795,16.9068,52.319,-0.5888,0.1344,0.1488,197.6719
13:29:14:137,-3.6331,0.6722,16.6781,52.5043,-0.2647,0.1408,0.229,197.5781
13:29:14:158,-3.2141,0.1838,13.6794,53.4061,0.29,0.3951,0.5467,197.0312
13:29:14:177,-1.7333,0.4998,9.8283,51.9735,0.6916,0.5994,0.9544,196.7969
13:29:14:196,-0.4847,1.3366,7.0415,52.7003,0.7553,0.4977,1.1834,196.375
13:29:14:222,-0.183,1.8585,6.4441,53.1735,0.4884,0.0289,1.0865,195.4844
13:29:14:239,-0.286,1.5054,8.0614,53.381,0.0695,-0.4893,0.8186,194.1875
13:29:14:257,-0.6176,1.0134,9.1951,53.3792,-0.2016,-0.5564,0.5938,192.9219
13:29:14:280,-0.954,0.9535,8.9305,53.422,-0.2192,-0.2249,0.5067,191.8906
13:29:14:295,-1.0114,1.0481,7.5538,53.6504,-0.0868,0.1962,0.5342,191.1719
13:29:14:315,-0.8044,1.1498,6.2813,51.9883,0.0298,0.4324,0.5949,190.6406
13:29:14:340,-1.0617,1.1618,5.6349,55.1459,0.0685,0.4537,0.6183,190.0469
13:29:14:356,-1.2999,0.9715,5.8492,54.3123,0.0759,0.3315,0.6719,189.3438
13:29:14:376,-1.2616,0.8913,6.2442,54.6514,0.1406,0.1802,0.8095,188.5938
13:29:14:396,-0.9899,1.1055,6.4321,55.1749,0.261,0.0574,0.9725,187.8438
13:29:14:421,-0.5877,1.6035,6.6608,55.1579,0.3721,-0.0989,1.0985,186.9688
13:29:14:438,-0.1795,2.1985,7.2055,55.8005,0.4232,-0.2808,1.123,185.375
13:29:14:456,0.2419,2.6187,7.8483,56.1827,0.4314,-0.382,1.0314,184.2031
13:29:14:480,0.6035,2.9706,8.2817,55.596,0.4192,-0.3658,0.846,182.9844
13:29:14:495,0.6334,3.295,8.2625,56.062,0.3622,-0.2267,0.5752,181.8906
13:29:14:516,0.2922,3.1083,8.97,55.4776,0.1547,-0.1469,0.2383,181.0469
13:29:14:539,-0.1004,2.3038,10.7405,55.1571,-0.1531,-0.1391,-0.0597,180.4375
13:29:14:556,-0.438,1.7029,12.2417,56.4643,-0.3529,-0.0685,-0.1942,180.2031
13:29:14:577,0.0648,1.6119,12.608,55.9183,-0.3675,0.0175,-0.1484,180.2812
13:29:14:599,1.5049,2.0213,12.1495,56.8888,-0.2972,0.0148,-0.0685,180.5
13:29:14:621,2.1381,2.3649,12.031,56.603,-0.363,-0.1458,-0.2304,180.6562
13:29:14:638,1.1386,1.6969,14.1175,56.3306,-0.6559,-0.3817,-0.6757,180.6875
13:29:14:656,-0.845,-0.0808,15.8354,58.3583,-0.8621,-0.2952,-1.0922,180.8125
13:29:14:676,-1.8291,-0.8374,14.2624,55.2255,-0.6514,0.2108,-1.0723,181.3438
13:29:14:696,-0.9121,-0.1383,10.458,57.4406,-0.2341,0.5773,-0.6206,182.4375
13:29:14:720,1.0129,1.1031,7.5897,57.0511,0.0059,0.3168,-0.2001,183.6719
13:29:14:737,2.1717,1.9651,6.9457,54.6773,-0.0253,-0.353,-0.1852,184.8438
13:29:14:755,2.2986,2.0045,7.3276,55.6312,-0.1933,-0.8217,-0.4829,185.0312
13:29:14:776,1.4594,1.825,7.8256,55.8292,-0.3635,-0.7855,-0.8528,185.2656
13:29:14:796,0.3999,1.3892,7.9106,57.2347,-0.4418,-0.4022,-1.1351,185.9375
13:29:14:819,-0.7169,1.0624,7.7765,57.1332,-0.3481,0.45,-1.2134,187
13:29:14:837,-1.5813,0.8769,7.3527,55.2601,-0.11,0.6002,-1.007,188.3438
13:29:14:856,-1.8386,1.0217,6.5399,58.5195,0.1862,0.519,-0.7529,189.7031
13:29:14:876,-1.7441,1.4563,5.4302,57.8749,0.3798,0.2992,-0.5585,191.0312
13:29:14:896,-1.4053,2.0943,4.6951,58.7736,0.3965,0.0372,-0.4643,192.125
13:29:14:920,-0.9947,2.8246,4.9729,58.2833,0.2916,-0.211,-0.4951,192.8906
13:29:14:938,-1.1048,3.3692,6.3328,56.305,0.1976,-0.4475,-0.5846,193.5156
13:29:14:954,-1.4508,3.5464,8.7246,59.3256,0.2687,-0.5652,-0.6435,194.0625
13:29:14:976,-1.6208,3.453,10.7357,60.1666,0.4996,-0.373,-0.6794,194.6406
13:29:14:995,-2.1379,3.5345,10.5705,57.3478,0.5774,-0.0385,-0.6896,196.1875
13:29:15:021,-2.5892,3.6482,9.6069,56.4799,0.3353,0.2635,-0.6949,196.6094
13:29:15:081,-2.9735,3.556,9.6188,59.8311,-0.0791,0.4841,-0.6848,197.4062
13:29:15:082,-3.5254,3.1394,11.1906,57.3431,-0.3736,0.5277,-0.5961,198.2031
13:29:15:082,-4.0724,2.548,13.3514,58.1638,-0.3396,0.5775,-0.3854,198.9531
13:29:15:097,-4.5321,2.0943,13.7596,58.4234,-0.1715,0.5847,-0.0475,199.6094
13:29:15:122,-4.6315,2.1793,13.003,59.2986,-0.0485,0.397,0.3368,199.8594
13:29:15:139,-4.0066,2.4008,12.5661,58.5223,0.0224,0.0316,0.5821,200.2031
13:29:15:155,-3.5648,2.2643,13.1167,59.3889,0.1537,-0.2222,0.7438,200.1719
13:29:15:175,-3.2392,1.7424,13.2161,58.0972,0.3622,-0.2235,0.9203,199.7344
13:29:15:196,-2.6742,1.5006,11.8035,59.9925,0.4426,-0.2084,1.0423,199.0938
13:29:15:218,-1.5417,1.3426,10.2329,58.3125,0.3033,-0.3085,1.0271,198.2812
13:29:15:237,-0.5194,1.1953,9.6607,56.7605,0.0509,-0.3841,0.8647,197.2812
13:29:15:256,0.0193,1.078,9.7278,58.1079,-0.1683,-0.3034,0.6205,196.2031
13:29:15:275,-0.3051,0.8206,9.8559,58.7158,-0.2668,-0.076,0.4242,194.1562
13:29:15:296,-1.1515,0.4352,9.5757,58.334,-0.2048,0.2071,0.437,193.5156
13:29:15:321,-1.4197,0.0521,8.4169,57.7503,-0.0543,0.3735,0.6245,193.2656
13:29:15:339,-1.191,0.0509,6.8942,56.7033,0.0706,0.3528,0.8354,192.7812
13:29:15:355,-0.8319,0.4076,5.9461,57.0313,0.1574,0.1882,0.9904,192.1406
13:29:15:375,-0.3411,0.7201,5.6145,55.5639,0.2565,0.0425,1.0516,191.2969
13:29:15:396,0.0336,1.0014,5.2949,57.3012,0.3313,-0.0667,1.046,190.2031
13:29:15:420,0.2994,1.3031,5.1153,56.1959,0.3545,-0.146,1.0047,189.0156
13:29:15:436,0.6178,1.7484,5.0818,58.0849,0.3254,-0.2329,0.8998,187.875
13:29:15:454,0.8118,2.2416,5.4505,55.3353,0.2495,-0.3274,0.7323,186.7344
13:29:15:475,0.9374,2.4295,6.4262,57.7693,0.1832,-0.3759,0.5296,185.6719
13:29:15:497,0.8548,2.5792,7.5454,56.0151,0.1462,-0.3602,0.3011,184.7812
13:29:15:522,0.4083,2.4834,8.9664,56.0448,0.0706,-0.2435,0.0564,184.1562
13:29:15:538,0.2599,2.0764,10.0833,55.6499,-0.1009,-0.1841,-0.1796,183.75
13:29:15:556,-0.0909,1.2923,11.8538,55.9478,-0.3076,-0.1876,-0.3814,183.5938
13:29:15:575,-0.274,0.4375,13.1287,54.3885,-0.432,-0.0686,-0.4531,183.7031
13:29:15:596,0.4083,0.0664,12.7373,54.3885,-0.4211,0.1608,-0.3127,184.0625
13:29:15:621,1.5444,0.6375,11.7425,54.52,-0.4008,0.1996,-0.1316,184.5781
13:29:15:639,2.0196,1.406,12.7457,55.5661,-0.5446,-0.2025,-0.1958,185.0312
13:29:15:655,1.2247,1.0325,15.5301,54.8094,-0.755,-0.6987,-0.5617,185.2188
13:29:15:674,0.2467,-0.2125,16.4495,56.0952,-0.7326,-0.5935,-0.9045,185.3438
13:29:15:694,-0.6487,-0.665,14.3246,54.2694,-0.5148,0.0135,-0.9538,185.8125
13:29:15:716,-0.7098,-0.003,11.9125,55.6342,-0.3406,0.3735,-0.7364,186.7344
13:29:15:738,-0.0562,0.7165,11.114,56.2427,-0.2703,0.1706,-0.5292,187.8906
13:29:15:755,0.2874,1.2288,10.3993,56.0305,-0.139,-0.0981,-0.4965,188.8438
13:29:15:776,0.3545,1.5257,8.4959,56.4861,0.0618,-0.0387,-0.5327,189.4844
13:29:15:795,0.2407,1.819,6.3124,54.6497,0.2139,0.1227,-0.5929,190.0469
13:29:15:822,0.1354,2.062,4.5766,53.8676,0.265,0.1815,-0.6661,190.6406
13:29:15:842,0.048,2.256,3.941,54.8694,0.2171,0.0822,-0.7484,191.2812
13:29:15:858,-0.2704,2.2931,4.3576,53.2255,0.1233,-0.0976,-0.8547,192.3281
13:29:15:875,-0.8091,2.1255,5.2482,56.289,0.0519,-0.1775,-0.9535,193.1875
13:29:15:896,-1.525,2.0584,5.8037,54.4429,0.0408,-0.056,-0.9807,194.1719
13:29:15:920,-1.9763,2.4056,6.2502,55.5036,0.0384,0.1469,-0.9032,195.2344
13:29:15:937,-1.9751,2.9036,7.057,55.1741,0.0336,0.2489,-0.77,196.3594
13:29:15:956,-2.2648,3.4818,7.9656,54.7769,0.0874,0.1813,-0.6877,197.3906
13:29:15:975,-2.5641,3.7104,8.9149,55.8655,0.1787,-0.0038,-0.6336,197.7812
13:29:15:995,-2.7365,3.7272,9.7864,53.4442,0.2597,-0.1516,-0.5556,198.5781
13:29:16:015,-2.8047,3.7104,10.3143,55.5229,0.2759,-0.1085,-0.4616,199.3281
13:29:16:039,-2.7939,3.5596,10.9308,54.9978,0.2027,0.0276,-0.3766,200.0469
13:29:16:058,-2.4863,3.1442,12.2237,55.9188,0.0527,0.0803,-0.2805,200.625
13:29:16:079,-2.3019,2.4774,13.7728,56.6902,-0.0535,0.0566,-0.1748,201.1094
13:29:16:094,-1.932,2.0393,14.0517,54.9398,-0.0282,0.1749,-0.0014,201.625
13:29:16:116,-1.6651,2.2188,13.0174,55.4526,0.033,0.4164,0.2013,201.8125
13:29:16:140,-1.3299,2.633,12.3889,55.2454,-0.0205,0.5251,0.3555,201.7812
13:29:16:155,-1.0701,2.5564,13.4567,54.4012,-0.1071,0.2391,0.4098,201.5
13:29:16:175,-0.9707,1.7292,14.6766,55.9231,-0.0312,-0.1634,0.3853,201.0469
13:29:16:196,-0.875,0.6698,13.6686,55.8353,0.2557,-0.2001,0.3802,200.5312
13:29:16:222,-0.6846,0.4747,10.7345,54.0273,0.5076,0.0486,0.4239,200.125
13:29:16:240,-0.213,0.8087,8.5378,55.1031,0.168,-0.0518,0.3738,199.75
13:29:16:255,0.0707,0.92,8.2517,54.1706,-0.0959,-0.2353,0.1861,199.2812
13:29:16:274,-0.213,0.8194,8.387,55.4763,-0.2437,-0.1996,0.0481,198.75
13:29:16:295,-0.5721,0.7021,8.0243,54.3059,-0.3068,-0.0587,0.0159,198.3438
13:29:16:322,-1.0222,0.5776,7.3108,54.6674,-0.3039,0.0662,0.0844,198.1406
13:29:16:339,-1.3466,0.5405,6.322,54.285,-0.306,0.0638,0.2593,198.1406
13:29:16:356,-1.2042,0.7057,5.842,54.4438,-0.3529,-0.0526,0.4252,198.1094
13:29:16:374,-0.9935,1.0205,6.2849,54.4697,-0.3412,-0.1527,0.5326,198.0156
13:29:16:398,-0.8642,1.1438,7.063,53.5038,-0.2069,-0.178,0.6079,197.6875
13:29:16:420,-0.6188,1.1055,7.5706,54.2954,-0.0016,-0.1072,0.6607,197.1875
13:29:16:439,-0.3698,1.09,7.3252,52.5264,0.155,0.0271,0.6727,196.625
13:29:16:454,-0.1651,1.2887,6.7171,53.3767,0.1787,0.0899,0.6226,195.9375
13:29:16:479,0.0372,1.5544,6.5854,53.7697,0.1177,0.0292,0.4695,195.2031
13:29:16:493,-0.1268,1.7364,7.3659,53.5921,0.0434,-0.0747,0.2521,194.4375
13:29:16:514,-0.93,1.5293,8.8132,52.2558,0.0485,-0.0691,0.1078,193.75
13:29:16:537,-1.695,1.1702,9.6488,52.4485,0.0961,0.0161,0.0918,193.2031
13:29:16:554,-1.6303,1.1869,9.7673,53.5808,0.0597,-0.0257,0.071,192.9375
13:29:16:575,-1.0402,1.4491,10.2976,53.3104,-0.0716,-0.1591,-0.0768,192.8281
13:29:16:597,-0.3566,1.2516,11.5713,54.5133,-0.2301,-0.1293,-0.3287,192.7188
13:29:16:620,0.0935,0.5549,12.5577,53.2726,-0.4013,0.1181,-0.5319,192.6562
13:29:16:638,0.6035,0.0497,12.6487,54.6835,-0.6205,0.4066,-0.6922,192.8906
13:29:16:655,1.0871,0.264,12.4428,52.2852,-0.9127,0.471,-0.9519,193.4062
13:29:16:675,0.5999,0.2328,13.5633,53.0885,-1.118,0.4585,-1.2368,194.0469
13:29:16:695,-0.8187,-0.8469,15.5995,52.6889,-1.0088,0.7514,-1.1932,194.8281
13:29:16:720,-1.7249,-1.7687,15.9611,52.6103,-0.5782,1.1408,-0.7482,196.0156
13:29:16:737,-1.1922,-1.4323,13.4998,52.9825,-0.1462,1.0995,-0.182,197.375
13:29:16:755,0.7986,-0.1466,10.8051,51.407,0.089,0.4332,0.1208,198.3906
13:29:16:774,2.8372,1.2384,10.039,51.7547,0.2732,-0.4275,-0.0078,198.7812
13:29:16:795,3.7818,2.0405,10.3251,50.8472,0.4653,-0.8473,-0.4395,198.6875
13:29:16:823,3.5352,1.9243,10.0402,51.7469,0.6029,-0.68,-0.8853,198.5781
13:29:16:841,2.7463,1.5616,8.5091,51.1101,0.595,-0.2204,-1.2278,198.875
13:29:16:858,1.8305,1.2157,6.5495,51.0975,0.4426,0.1908,-1.4254,199.2656
13:29:16:879,1.1745,0.9703,5.4014,51.0975,0.2975,0.3733,-1.5045,200.375
13:29:16:893,0.625,0.7703,5.0627,49.7024,0.2993,0.3349,-1.5058,201.8438
13:29:16:917,-0.1687,0.6877,4.3468,49.6874,0.4061,0.1594,-1.4376,204.25
13:29:16:936,-0.6092,0.8996,4.4282,51.0595,0.4682,-0.097,-1.3583,205.9688
13:29:16:955,-0.7984,1.0936,5.1201,49.2743,0.4378,-0.3836,-1.2994,207.6719
13:29:16:975,-1.3179,1.2588,6.4106,49.93,0.3481,-0.6369,-1.2824,209.2188
13:29:16:994,-2.0314,1.4647,8.6037,50.4634,0.2757,-0.8808,-1.2874,210.8125
13:29:17:015,-2.4887,1.576,10.7788,48.2678,0.326,-1.0137,-1.2536,212.375
13:29:17:037,-3.2835,1.5916,10.956,48.9547,0.5073,-0.8252,-1.2121,213.875
13:29:17:054,-4.0521,1.9615,10.4544,47.986,0.4932,-0.3386,-1.1189,215.4688
13:29:17:074,-4.1742,2.3613,11.4037,46.8092,0.1385,0.1948,-0.9657,217.0156
13:29:17:148,-4.2915,2.6749,12.3267,46.8169,-0.1989,0.683,-0.8533,218.4688
13:29:17:148,-4.2927,2.8341,12.6942,46.0143,-0.3148,0.9549,-0.7649,219.625
13:29:17:149,-4.4268,2.7408,13.2748,48.3257,-0.2969,0.7293,-0.688,220.6094
13:29:17:153,-4.6171,2.1841,15.177,48.3035,-0.253,0.0947,-0.6222,221.4062
13:29:17:175,-4.4854,1.1402,18.1661,45.2143,-0.1742,-0.4709,-0.4544,222.0781
13:29:17:199,-3.9707,-0.2652,19.2531,46.7095,0.1153,-0.3903,-0.1846,222.75
13:29:17:221,-2.8442,-0.6662,15.5385,46.4324,0.7321,0.2486,0.2391,223.6406
13:29:17:239,-0.9025,-0.2592,10.7273,46.126,1.1745,0.7706,0.6812,223.8906
13:29:17:255,1.0787,0.1837,8.1931,44.0499,1.1438,0.6401,0.9035,223.6406
13:29:17:274,2.0843,0.5118,7.658,45.5115,0.8757,0.0473,0.8463,222.9062
13:29:17:296,1.3085,0.6327,8.0422,46.8495,0.6037,-0.5032,0.5302,221.9531
13:29:17:321,0.3676,0.4854,8.1919,44.5338,0.4011,-0.7338,0.2551,221.0781
13:29:17:338,0.2383,0.3957,7.6041,43.7657,0.278,-0.5359,0.217,220.6094
13:29:17:354,0.3126,0.6674,6.5387,44.7896,0.2048,-0.1524,0.2841,220.5156
13:29:17:374,0.3329,1.2971,5.5954,44.9171,0.1712,0.0912,0.3456,220.4219
13:29:17:395,0.4311,1.6993,5.186,44.4203,0.1683,0.055,0.3587,220.2188
13:29:17:415,0.6525,1.8525,5.2973,42.9337,0.1742,-0.1173,0.3222,219.875
13:29:17:438,0.7423,1.9686,5.66,45.5817,0.18,-0.2164,0.2593,219.4844
13:29:17:455,0.8537,2.0812,5.8527,44.0348,0.1949,-0.2068,0.192,219.0938
13:29:17:474,0.8716,2.1781,5.8013,45.3958,0.2272,-0.1202,0.1038,218.7031
13:29:17:496,0.4107,2.2895,5.909,42.1261,0.2093,-0.0424,-0.0302,218.5469
13:29:17:520,-0.359,2.4583,6.3053,43.179,0.1156,0.0361,-0.1535,218.4688
13:29:17:538,-1.0881,2.4654,7.3419,43.8867,0.0064,0.0209,-0.2291,218.5156
13:29:17:555,-1.5849,2.4415,8.636,41.4261,-0.0101,-0.1245,-0.2621,218.7031
13:29:17:574,-1.6974,2.7252,9.2274,41.6281,0.0863,-0.248,-0.2592,218.9375
13:29:17:596,-1.3251,2.9646,10.2114,41.8253,0.1414,-0.451,-0.297,219.2656
13:29:17:613,-0.9217,2.6223,11.3355,41.3073,0.1087,-0.6342,-0.4504,219.6094
13:29:17:636,-0.9073,1.7999,13.0234,42.9669,-0.163,-0.3423,-0.7295,220.0312
13:29:17:655,-0.3913,1.1582,14.1151,41.5598,-0.1782,0.1557,-0.6994,220.6719
13:29:17:674,0.5149,1.1821,13.7093,41.5598,-0.1518,0.4492,-0.7063,220.6719
13:29:17:702,1.2607,1.7735,12.3195,41.302,-0.2237,0.3272,-0.856,221.5312
13:29:17:713,1.4295,2.0129,11.928,41.7837,-0.3172,-0.1373,-1.1085,222.375
13:29:17:735,1.0057,1.3426,13.1551,39.7004,-0.2565,-0.41,-1.2872,223.1406
13:29:17:755,0.5436,0.422,13.7153,41.3265,-0.0882,-0.2523,-1.2866,225.9688
13:29:17:779,0.4945,-0.0461,12.3099,40.4601,0.0093,-0.0491,-1.1367,228.2656
13:29:17:798,1.1457,0.1682,10.2006,38.6485,-0.0394,-0.2185,-1.0091,228.2656
13:29:17:821,1.9801,0.6841,9.128,40.2519,-0.1049,-0.598,-1.0555,229.6875
13:29:17:839,2.2758,1.1438,8.8539,39.3592,-0.1241,-0.8387,-1.239,230.25
13:29:17:858,2.125,1.1175,8.5402,39.5769,-0.1068,-0.7658,-1.456,231.4375
13:29:17:874,1.3768,0.7356,7.8926,40.4603,-0.1238,-0.504,-1.5668,232.7344
13:29:17:894,0.4287,0.5668,7.2067,37.735,-0.1441,-0.1913,-1.5106,234.2812
13:29:17:914,0.03,0.7105,6.838,39.5829,-0.0866,-0.0022,-1.3924,235.9531
13:29:17:937,-0.1232,0.9272,6.4896,40.0869,0.078,0.0297,-1.2829,237.8281
13:29:17:956,-0.298,1.2731,6.0132,37.9612,0.2424,-0.0441,-1.195,239.5625
13:29:17:974,-0.3949,1.7316,5.6157,38.3511,0.3023,-0.1466,-1.1615,241.0781
13:29:17:994,-0.9013,2.3242,5.5056,38.0439,0.2296,-0.2691,-1.1628,242.5469
13:29:18:016,-1.5382,2.7372,6.5794,36.9725,0.1579,-0.2957,-1.1346,243.9375
13:29:18:038,-2.084,3.0736,8.0602,37.0086,0.1926,-0.2014,-1.0792,245.25
13:29:18:055,-2.6634,3.3932,9.1017,37.3928,0.3167,-0.0571,-0.9897,247.3125
13:29:18:074,-3.0106,3.7547,9.395,36.3272,0.3832,0.1171,-0.9018,248.6406
13:29:18:095,-3.1638,4.0061,9.3962,35.9571,0.2866,0.3205,-0.843,249.8125
13:29:18:114,-3.2584,4.0109,9.6535,36.6343,0.1023,0.405,-0.7854,250.9219
13:29:18:138,-3.4272,3.5536,10.8279,37.2354,-0.0383,0.3456,-0.6754,251.9219
13:29:18:155,-3.171,2.7551,12.4823,35.8715,-0.0687,0.2787,-0.4962,252.7656
13:29:18:173,-2.4755,2.2619,13.519,36.4417,-0.0924,0.267,-0.3188,253.5625
13:29:18:194,-1.8374,2.2978,14.0708,35.5145,-0.138,0.1821,-0.2227,254.1875
13:29:18:214,-1.4196,2.1925,14.916,35.7364,-0.1052,-0.0326,-0.2113,254.5938
13:29:18:237,-1.2736,1.5508,15.9814,36.0201,0.0871,-0.0496,-0.1844,254.8281
13:29:18:255,-1.4053,0.5585,15.7755,35.4614,0.3891,0.3078,-0.0683,255.0469
13:29:18:273,-1.4472,-0.0497,13.0102,35.5285,0.5627,0.6175,0.14,255.2969
13:29:18:295,-1.1683,0.0102,9.5937,36.1373,0.4913,0.4596,0.3185,255.4531
13:29:18:314,-0.6547,0.5118,7.6448,35.8453,0.2245,-0.0443,0.3547,255.4062
13:29:18:338,-0.1854,0.9954,8.9592,37.1814,-0.0205,-0.4646,0.2543,255.1094
13:29:18:356,-0.6655,0.817,8.8168,36.4421,-0.065,-0.5599,0.1166,254.7344
13:29:18:374,-1.2784,0.7069,8.0806,35.9148,-0.0482,-0.4246,0.0652,254.4375
13:29:18:393,-1.2413,0.8422,7.306,36.0029,-0.0543,-0.2132,0.1776,254.3125
13:29:18:413,-0.5781,1.169,7.3312,36.8511,-0.0807,-0.096,0.3533,254.2969
13:29:18:441,-0.0645,1.5437,7.6268,37.0777,-0.0277,-0.1202,0.4471,254.2344
13:29:18:457,0.4801,1.6514,7.47,35.7092,0.1787,-0.1674,0.4748,253.9375
13:29:18:477,0.6046,1.7149,6.6153,37.028,0.4256,-0.1564,0.4303,253.4688
13:29:18:494,0.4071,1.9267,5.7031,38.1898,0.5409,-0.0403,0.3363,253
13:29:18:513,0.3353,2.2476,5.4733,38.2761,0.4855,0.0436,0.2473,252.5156
13:29:18:538,0.1078,2.5863,6.2621,37.4971,0.327,-0.0164,0.1445,252.1406
13:29:18:554,-0.4141,2.6031,7.9716,39.2576,0.1846,-0.1519,0.0063,251.875
13:29:18:573,-1.3131,2.2236,9.3267,38.0509,0.1904,-0.1618,-0.1103,251.6875
13:29:18:593,-1.8291,1.9124,9.2022,38.3456,0.3119,0.0058,-0.1077,251.6406
13:29:18:613,-1.3921,1.8705,8.8802,39.886,0.3406,0.1227,0.0149,251.75
13:29:18:637,-0.5553,2.05,9.2525,38.5765,0.2149,-0.0305,0.1019,252
13:29:18:653,0.3712,1.7639,11.0482,38.8573,-0.0234,-0.3868,0.0559,251.9844
13:29:18:673,0.953,1.2803,12.4799,38.4484,-0.2184,-0.5969,-0.0672,251.8906
13:29:18:692,1.7395,0.8661,12.6247,39.9735,-0.3167,-0.5506,-0.1729,251.9062
13:29:18:713,1.6904,1.2037,12.5146,41.4986,-0.4605,-0.4504,-0.3412,252.0781
13:29:18:739,0.7447,1.0828,14.1642,42.1994,-0.7433,-0.4662,-0.6334,252.3594
13:29:18:757,-0.7182,-0.1048,16.75,41.7627,-0.9071,-0.5538,-0.9053,252.7812
13:29:18:774,-0.9983,-0.9248,16.5405,42.1291,-0.6266,-0.2504,-0.8158,253.5312
13:29:18:795,0.0121,-0.2675,12.4188,41.1682,-0.028,0.2809,-0.3974,254.5938
13:29:18:815,1.6832,1.2384,8.6803,41.9852,0.3545,0.3736,-0.0291,255.5312
13:29:18:839,2.8157,2.5768,7.3204,41.9107,0.3569,-0.0566,-0.0592,255.7812
13:29:18:854,2.6924,2.5684,8.0446,41.9099,0.1505,-0.5482,-0.4986,255.9375
13:29:18:873,1.8293,1.9579,8.7569,42.8259,-0.0426,-0.6393,-1.0134,255.9219
13:29:18:893,0.8644,1.5269,8.4289,44.5993,-0.1204,-0.3149,-1.3586,256.25
13:29:18:914,-0.0214,1.2468,7.9764,42.8424,-0.1515,0.0707,-1.5442,257.2344
13:29:18:938,-0.602,1.0433,7.3228,43.5496,-0.0874,0.3413,-1.5841,259.5156
13:29:18:954,-0.8774,1.0792,6.3855,43.5682,0.0831,0.4319,-1.4954,261.1875
13:29:18:973,-0.8534,1.4443,5.2015,43.9784,0.2802,0.3653,-1.3239,262.9375
13:29:18:993,-0.7864,1.9746,4.5575,44.0436,0.3891,0.1656,-1.1641,264.5938
13:29:19:014,-0.8522,2.4152,4.8927,44.3433,0.3902,-0.1048,-1.081,266.0781
13:29:19:039,-1.1228,2.7228,5.7869,45.6086,0.2445,-0.3386,-1.0249,267.3594
13:29:19:056,-1.7357,2.9108,7.1073,45.7874,0.1707,-0.2512,-0.9383,268.6562
13:29:19:073,-2.2516,3.1286,8.8168,44.2273,0.2152,-0.0851,-0.8022,269.9375
13:29:19:093,-2.6203,3.1813,9.8211,47.5712,0.3419,0.0524,-0.643,272.2656
13:29:19:113,-2.9879,3.246,9.8941,45.5605,0.3899,0.0958,-0.456,272.2656
13:29:19:139,-2.8526,3.3968,10.0222,45.9959,0.3342,0.0247,-0.3324,273.2188
13:29:19:156,-2.4288,3.4159,10.7321,46.7351,0.2269,-0.0337,-0.329,273.9531
13:29:19:223,-2.0457,3.0377,11.5462,48.0623,0.077,0.1301,-0.3793,274.5
13:29:19:223,-2.1295,2.7324,11.8107,46.845,-0.146,0.3413,-0.4272,275.1094
13:29:19:223,-2.3953,2.7396,12.2094,48.2637,-0.3798,0.2992,-0.4557,275.5156
13:29:19:235,-2.679,2.4894,13.6064,47.8986,-0.4716,-0.0222,-0.4792,275.9375
13:29:19:254,-3.5409,1.5101,15.8186,49.2084,-0.2442,-0.2166,-0.3561,276.1406
13:29:19:272,-4.0246,0.088,16.6015,49.2737,0.2202,0.0231,-0.0134,276.5625
13:29:19:292,-3.6558,-0.5094,13.9044,49.358,0.5124,0.3839,0.3893,277.0312
13:29:19:312,-2.861,0.0138,9.9145,48.793,0.4077,0.3389,0.6441,277.4375
13:29:19:332,-1.8925,0.5309,7.8136,51.0573,0.0831,0.0004,0.6878,277.4688
13:29:19:358,-1.4137,0.7033,7.9752,50.0423,-0.1662,-0.271,0.6806,277.0312
13:29:19:374,-1.2664,0.7703,8.9149,50.9273,-0.1593,-0.3056,0.7078,276.3281
13:29:19:393,-0.9504,0.829,8.6324,49.9797,-0.0477,-0.211,0.7456,275.5625
13:29:19:415,-0.8271,0.9343,7.6005,51.1832,0.0051,-0.0771,0.7909,274.8125
13:29:19:439,-0.7433,1.2061,6.6273,52.0498,-0.032,-0.011,0.8229,274.0625
13:29:19:458,-0.5733,1.3258,6.5279,52.586,-0.0429,0.0561,0.8245,273.2344
13:29:19:472,-0.5218,1.4048,6.5578,52.5381,0.0184,0.128,0.829,271.875
13:29:19:492,-0.4273,1.5389,6.3388,51.5952,0.0855,0.1671,0.8204,270.9844
13:29:19:512,-0.3087,1.7723,6.0862,53.0309,0.123,0.1618,0.7757,270.0156
13:29:19:533,-0.2728,1.9615,6.0335,51.7472,0.1316,0.0912,0.7062,269.0469
13:29:19:553,-0.3279,2.1339,6.3364,50.4025,0.1465,-0.0361,0.6306,268.1562
13:29:19:573,-0.5446,2.4331,6.8655,53.2914,0.1606,-0.2108,0.5459,267.2812
13:29:19:592,-0.608,2.7061,7.8591,53.3246,0.1838,-0.3184,0.4452,266.5312
13:29:19:613,-0.6092,2.9215,8.8383,52.6609,0.2003,-0.2523,0.3025,265.9219
13:29:19:637,-0.6487,3.0137,9.231,53.6878,0.147,-0.097,0.1411,265.4219
13:29:19:653,-0.6822,2.9048,9.2489,52.6098,-0.012,-0.0422,0.0034,265.0625
13:29:19:672,-0.5817,2.6246,10.0079,55.2838,-0.1942,-0.1112,-0.101,264.8594
13:29:19:692,-0.6858,2.1279,11.7281,53.6818,-0.2402,-0.1146,-0.1175,264.8125
13:29:19:715,0.2611,1.5341,11.8502,54.3066,-0.134,0.0492,-0.0107,264.875
13:29:19:738,1.0823,2.2284,10.0618,53.3142,-0.0815,0.1674,0.0529,265.0312
13:29:19:756,1.718,2.548,9.9696,55.1832,-0.2205,-0.0736,-0.0912,265.0938
13:29:19:772,1.287,1.8525,12.3075,55.1832,-0.4618,-0.5647,-0.4624,265.0156
13:29:19:792,0.2407,0.398,14.5461,52.248,-0.5414,-0.7865,-0.803,264.9688
13:29:19:811,-0.4129,-0.5513,14.0397,55.0783,-0.3795,-0.4374,-0.8563,265.2969
13:29:19:832,-0.049,-0.337,10.9105,54.9411,-0.1294,0.201,-0.6155,266.1094
13:29:19:853,0.8465,0.6147,8.2757,53.3927,-0.0639,0.4167,-0.3471,267.1875
13:29:19:874,1.3983,1.4527,7.409,54.8124,-0.1995,0.1509,-0.329,268.0625
13:29:19:895,0.9985,1.5149,8.3894,54.7756,-0.4402,-0.2259,-0.5708,268.4844
13:29:19:911,0.1426,1.2157,9.2956,53.9535,-0.5981,-0.2885,-0.8283,268.7656
13:29:19:931,-0.7816,0.9822,8.885,54.9795,-0.5641,-0.0076,-0.9649,269.25
13:29:19:954,-1.3945,0.8685,7.7298,53.1809,-0.4266,0.3118,-0.9514,270.0156
13:29:19:972,-1.7692,0.9691,6.8176,54.4593,-0.3028,0.4809,-0.8233,271.0312
13:29:19:992,-1.9284,1.2659,6.3723,53.5223,-0.1633,0.4462,-0.6206,272.0938
13:29:20:011,-1.8602,1.6765,6.1161,52.9172,0.0237,0.2433,-0.3977,273.0312
13:29:20:032,-1.7477,2.1123,5.903,54.6595,0.1867,0.0476,-0.2304,273.7344
13:29:20:053,-1.8338,2.5911,6.0024,54.4756,0.2285,-0.0547,-0.1354,274.4531
13:29:20:074,-1.9536,3.0424,7.1755,53.7785,0.1483,-0.1122,-0.0877,274.7344
13:29:20:094,-2.023,3.1741,9.1927,53.0248,0.0839,-0.1985,-0.073,274.9062
13:29:20:112,-2.3282,3.1358,10.4819,54.2716,0.1561,-0.1495,-0.0717,275.0469
13:29:20:132,-2.4456,3.0173,10.2868,55.7323,0.2961,0.1088,-0.0288,275.1562
13:29:20:153,-2.4683,2.912,10.0103,53.5377,0.3393,0.3416,0.0497,275.2656
13:29:20:172,-2.2672,2.7743,10.6986,52.6274,0.2498,0.3965,0.1389,275.3281
13:29:20:193,-1.9081,2.6378,11.4779,54.4634,0.2003,0.2801,0.2229,275.25
13:29:20:212,-1.3933,2.5385,12.0717,55.978,0.1832,0.124,0.2686,275.0781
13:29:20:233,-1.0354,2.5049,12.5206,53.9742,0.1278,0.0763,0.2407,274.9375
13:29:20:256,-1.0067,2.5851,12.6367,53.4321,-0.004,0.1839,0.1334,274.6562
13:29:20:272,-1.8338,2.1686,13.8673,53.0359,-0.2277,0.1786,-0.0435,274.3594
13:29:20:292,-3.2512,1.0337,15.9695,51.1017,-0.3792,0.0135,-0.1529,274.1406
13:29:20:312,-3.8522,-0.185,15.9024,52.1418,-0.1963,0.1437,-0.0033,274.0312
13:29:20:332,-3.2297,-0.2879,12.5433,52.7417,0.245,0.4969,0.413,274.1875
13:29:20:353,-2.1607,0.398,9.3483,52.3556,0.5108,0.5267,0.8141,274.1406
13:29:20:372,-1.3993,0.8889,8.5151,51.3355,0.4573,0.0561,0.9584,273.6406
13:29:20:392,-1.1539,0.7045,9.5183,52.1612,0.2626,-0.414,0.886,272.6875
13:29:20:415,-1.3407,0.5896,9.8786,50.3593,0.1614,-0.411,0.7968,271.7031
13:29:20:438,-1.0725,0.6219,8.7402,51.4745,0.2431,0.242,0.8386,270.7812
13:29:20:456,-0.8857,0.8517,7.1528,52.265,0.2815,0.3102,0.8623,269.9531
13:29:20:471,-0.6715,1.084,5.909,51.2913,0.294,0.1975,0.8908,269.0781
13:29:20:492,-0.2525,1.3306,5.2518,51.9518,0.2762,0.0441,0.8751,268.1562
13:29:20:512,0.1545,1.5999,5.1788,51.0988,0.2509,-0.0496,0.7968,267.1406
13:29:20:532,0.5257,1.8501,5.2518,52.1927,0.2149,-0.0811,0.6604,266.1094
13:29:20:554,0.5412,2.1901,5.4601,51.4917,0.1316,-0.043,0.4817,265.1875
13:29:20:571,0.2886,2.3948,6.0287,50.606,0.0589,0.0012,0.3137,264.3125
13:29:20:593,-0.3375,2.5899,6.826,51.4434,0.0477,-0.0193,0.2106,263.5781
13:29:20:611,-1.3359,2.5935,7.7932,50.5041,0.0983,-0.153,0.2223,262.7344
13:29:20:634,-1.9069,2.4714,8.9616,51.7112,0.2338,-0.2379,0.3533,262.6094
13:29:20:656,-1.4795,2.6127,9.3543,50.2223,0.3494,-0.2337,0.4231,262.5
13:29:20:673,-0.7517,2.973,8.9963,48.5235,0.2701,-0.3205,0.3406,262.1562
13:29:20:694,-0.0095,2.9407,9.5949,49.3715,0.0676,-0.4049,0.1544,261.9688
13:29:20:712,0.2503,2.4343,11.017,49.932,-0.0812,-0.3964,0.0074,261.5625
13:29:20:733,0.5532,1.7975,12.1639,50.4959,-0.1188,-0.345,-0.0275,261.2656
13:29:20:757,1.536,1.4096,12.4093,50.2931,-0.1137,-0.252,-0.0778,261.1875
13:29:20:776,2.5523,1.6837,11.4181,49.5284,-0.249,-0.2347,-0.3529,261.2656
13:29:20:792,2.2375,2.1458,11.023,49.5561,-0.4855,-0.3319,-0.8278,261.3594
13:29:20:812,0.5544,1.3761,12.1255,49.3117,-0.5894,-0.2342,-1.1356,261.4844
13:29:20:840,-1.1898,0.167,12.444,49.1815,-0.534,0.0889,-1.0273,261.9219
13:29:20:855,-2.1056,-0.2819,11.2241,47.5995,-0.4456,0.1533,-0.6374,262.9062
13:29:20:873,-1.7297,0.0856,9.6488,48.5615,-0.461,-0.3232,-0.2829,265.2656
13:29:20:892,-0.4955,0.8553,9.7864,48.8061,-0.5289,-0.757,-0.1407,265.6562
13:29:20:912,0.6501,1.4766,10.1815,49.9767,-0.5513,-0.753,-0.2256,266.1406
13:29:20:933,1.4402,1.8968,9.7086,48.0759,-0.5875,-0.3823,-0.489,266.4219
13:29:20:955,1.4809,1.9998,8.6623,49.1427,-0.6312,0.0396,-0.8035,266.6875
13:29:20:972,0.7447,1.8441,7.7478,49.6354,-0.5731,0.2982,-1.0203,267.1406
13:29:20:991,-0.2848,1.5461,6.7649,46.9537,-0.4575,0.3533,-1.0408,267.875
13:29:21:013,-1.1228,1.4024,6.1724,47.3377,-0.2967,0.2862,-0.8688,268.8281
13:29:21:038,-1.3706,1.5963,6.0179,48.1982,-0.0855,0.1629,-0.6352,269.9531
13:29:21:055,-0.8893,2.0381,5.8061,48.6155,0.1044,0.0798,-0.4778,271
13:29:21:074,-0.4967,2.73,5.6145,46.6711,0.2072,0.0572,-0.4603,271.8125
13:29:21:093,-0.4201,3.3561,5.5128,46.6748,0.2008,0.0255,-0.5335,272.375
13:29:21:113,-0.6439,3.8385,6.2143,47.6783,0.1526,0.0305,-0.6336,272.9062
13:29:21:138,-1.4125,3.7176,8.2398,46.9875,0.0818,0.0947,-0.7284,273.4844
13:29:21:156,-2.3247,3.3178,10.8231,47.7295,-0.1494,0.1035,-0.799,274.125
13:29:21:173,-3.1171,2.7168,14.1199,46.6574,-0.3654,0.1387,-0.7625,274.9062
13:29:21:192,-3.2871,1.983,16.2891,45.9245,-0.249,0.1477,-0.5894,275.7812
13:29:21:211,-3.0776,1.7819,15.6965,46.4339,0.1854,0.2212,-0.2826,276.6094
13:29:21:300,-2.2983,2.05,13.5513,45.7165,0.5691,0.3427,0.0436,277.3438
13:29:21:301,-1.9284,2.6139,12.2165,45.2543,0.6224,0.3498,0.1997,277.8281
13:29:21:301,-2.1116,2.6498,13.197,44.7502,0.3404,0.198,0.1454,277.9688
13:29:21:301,-2.4911,1.8226,15.347,45.013,0.0863,-0.0014,0.0495,277.8281
13:29:21:310,-3.2452,0.8098,15.7061,44.2271,0.1449,0.0617,0.029,277.625
13:29:21:332,-3.3757,0.343,13.0689,45.6965,0.441,0.4529,0.2021,277.5156
13:29:21:352,-2.8909,0.5465,9.9516,43.7774,0.6701,0.7243,0.4639,277.5156
13:29:21:371,-2.509,0.7584,8.1979,43.6514,0.6842,0.5325,0.6119,277.4062
13:29:21:391,-2.5808,0.6375,8.3607,45.8354,0.531,0.0036,0.5949,277
13:29:21:411,-2.6371,0.3118,9.3327,45.8962,0.3526,-0.4049,0.5706,276.3594
13:29:21:431,-2.1595,0.2699,9.2346,44.1562,0.265,-0.3807,0.6415,275.6875
13:29:21:451,-1.4879,0.6818,8.1524,43.4517,0.2466,-0.1729,0.7342,275.1406
13:29:21:473,-0.8774,1.1295,6.917,44.2906,0.2317,-0.0419,0.7712,274.2656
13:29:21:491,-0.2273,1.4132,6.176,42.5904,0.1704,-0.0347,0.7518,273.4844
13:29:21:511,0.3832,1.5832,5.8767,45.5616,0.0445,0.0188,0.6697,272.6406
13:29:21:531,0.4993,1.4347,5.6816,44.5905,-0.1153,0.2007,0.5273,271.7969
13:29:21:557,0.3269,1.2683,5.7055,44.4141,-0.2394,0.4129,0.4061,271.0625
13:29:21:574,-0.0119,1.2145,6.1484,42.7156,-0.2762,0.4904,0.3818,270.4219
13:29:21:591,-0.1759,1.3773,6.3543,42.9013,-0.171,0.4881,0.4519,269.8438
13:29:21:619,-0.1699,1.6586,6.2657,43.1798,0.0146,0.3916,0.5331,269.3125
13:29:21:637,-0.2776,2.0345,6.4106,43.7382,0.1257,0.2047,0.5517,268.6875
13:29:21:653,-0.7206,2.323,7.2953,42.6075,0.1015,0.0172,0.5011,268
13:29:21:671,-1.0031,2.1973,8.5271,43.2598,0.0642,-0.1538,0.438,267.375
13:29:21:691,-0.7265,1.977,9.1927,40.8726,0.1065,-0.2776,0.3989,267.0781
13:29:21:711,-0.2872,1.9639,9.8163,42.6162,0.1225,-0.3189,0.3448,266.5625
13:29:21:732,-0.1806,1.8693,10.5418,41.6613,0.0509,-0.3484,0.2095,266.1406
13:29:21:754,-0.4332,1.7448,11.5665,41.5414,-0.0847,-0.3479,0.0505,265.7969
13:29:21:772,-0.2393,1.4347,11.9831,41.321,-0.1667,-0.2986,-0.0344,265.5469
13:29:21:791,0.376,1.4695,11.3211,41.321,-0.1846,-0.1945,-0.047,265.5
13:29:21:811,0.947,1.977,10.8638,41.9332,-0.2927,-0.1415,-0.0909,265.5781
13:29:21:831,0.6573,2.086,11.4157,40.7808,-0.6485,-0.2595,-0.7074,265.6562
13:29:21:854,-0.6499,1.1989,12.1627,40.7808,-0.6831,-0.0297,-0.8869,265.6562
13:29:21:872,-2.0218,0.3466,11.7724,41.4279,-0.6935,0.3408,-0.7207,265.7656
13:29:21:891,-2.0386,0.3298,10.7082,41.0018,-0.7723,0.5435,-0.4888,266.1094
13:29:21:911,-0.5123,1.1271,9.7541,42.0047,-1.0629,0.6161,-0.5729,267.875
13:29:21:934,0.771,1.6861,10.6555,41.8291,-1.2783,0.8068,-0.9535,268.9688
13:29:21:956,0.4873,1.5377,11.2672,40.7151,-1.2016,1.1147,-1.3527,268.9688
13:29:21:972,-0.7804,0.9391,10.0977,41.9409,-1.0267,1.4319,-1.5157,269.4219
13:29:21:991,-2.1283,0.4567,8.4552,42.7017,-0.8405,1.5611,-1.398,270.25
13:29:22:010,-3.1902,0.2053,7.1301,43.2693,-0.5409,1.3451,-1.0717,271.4688
13:29:22:032,-3.5457,0.1945,5.8228,41.6944,-0.1955,0.8116,-0.6438,274.2344
13:29:22:053,-3.1997,0.3837,4.8915,39.4694,0.0692,0.2023,-0.2501,275.2188
13:29:22:071,-2.3701,0.9092,4.7406,41.7349,0.2264,-0.1903,-0.0477,275.5938
13:29:22:091,-1.786,1.4299,4.6964,40.7142,0.2261,-0.3064,-0.0619,276.0469
13:29:22:111,-2.187,1.6849,5.1058,42.2579,0.0762,-0.2496,-0.1114,276.2031
13:29:22:131,-2.9124,1.7783,6.5914,42.5312,-0.0405,-0.1466,-0.0584,276.3125
13:29:22:155,-3.2608,1.8884,8.636,43.0895,0.0037,0.0225,0.0247,276.4844
13:29:22:170,-3.5361,2.1171,10.0965,42.9345,0.1603,0.2217,0.086,276.5938
13:29:22:191,-3.7636,2.493,10.5633,41.6402,0.2908,0.328,0.0649,276.625
13:29:22:211,-3.8486,2.4307,10.5346,40.549,0.2943,0.3866,-0.015,276.5938
13:29:22:231,-4.4747,2.0141,10.7525,40.1495,0.2019,0.4415,-0.0033,276.5156
13:29:22:252,-4.9978,1.4994,11.3019,41.853,0.1177,0.4457,0.1376,276.4688
13:29:22:275,-4.9188,1.0936,11.9975,40.1918,0.114,0.4068,0.3254,276.5156
13:29:22:291,-4.3011,0.8182,12.3111,42.0388,0.1598,0.3594,0.4942,276.5312
13:29:22:310,-3.5768,1.1486,11.8251,43.0771,0.1252,0.2356,0.528,276.3594
13:29:22:332,-3.189,1.7639,11.5881,41.4166,-0.029,-0.0401,0.3712,275.9688
13:29:22:355,-3.1507,1.5461,12.5769,42.7848,-0.1795,-0.3101,0.1336,275.125
13:29:22:373,-4.2448,0.4794,14.2612,43.2746,-0.1372,-0.3125,0.1038,274.5938
13:29:22:391,-5.1402,-1.0145,15.1817,42.0094,0.1944,0.0409,0.4247,274.3125
13:29:22:411,-4.5573,-1.5257,12.8701,41.6273,0.4972,0.3453,0.87,274.2031
13:29:22:431,-2.9735,-0.8062,9.2597,43.9283,0.4775,0.0675,1.0716,273.9688
13:29:22:455,-1.4879,0.1407,7.6316,42.0583,0.2666,-0.5032,0.8865,273.2812
13:29:22:472,-1.0294,0.3585,8.2434,42.5879,0.0676,-0.7205,0.5699,272.25
13:29:22:492,-1.2556,-0.0569,8.8108,43.9358,-0.0413,-0.5018,0.3584,271.1875
13:29:22:511,-1.9823,0.0186,8.2206,42.0371,-0.1081,-0.1895,0.3238,270.4688
13:29:22:532,-1.4244,0.4531,6.6129,43.0622,-0.1268,-0.1317,0.3416,270.0625
13:29:22:556,-1.7321,0.3992,6.4633,45.074,-0.024,-0.2992,0.3259,269.7344
13:29:22:572,-2.0733,0.0413,6.2586,43.781,0.1683,-0.4217,0.3872,269.3281
13:29:22:591,-2.0409,0.064,5.9605,43.3375,0.3068,-0.3754,0.5872,268.9688
13:29:22:610,-1.3227,0.4926,5.7486,44.5709,0.3643,-0.2425,0.8279,268.6406
13:29:22:631,-0.7445,1.1678,5.4697,44.6428,0.3776,-0.1817,0.9163,268.2031
13:29:22:654,-0.7206,1.9004,5.6456,43.327,0.3121,-0.1977,0.8407,267.0312
13:29:22:672,-0.4033,2.3338,6.9086,44.2823,0.1992,-0.3237,0.7065,266.5938
13:29:22:691,-0.5709,2.6151,8.4792,45.9614,0.1611,-0.4262,0.5057,265.6562
13:29:22:711,-0.9755,2.5432,9.4859,46.6425,0.2546,-0.452,0.2844,264.8438
13:29:22:735,-1.1587,2.3529,9.316,46.085,0.4392,-0.4718,0.1001,264.2188
13:29:22:756,-1.1443,2.1255,9.4967,44.5677,0.4522,-0.5194,-0.0845,263.8906
13:29:22:775,-0.9372,1.5724,11.0158,45.3888,0.1971,-0.5034,-0.2613,263.7969
13:29:22:791,-0.8642,1.1211,12.6367,44.4286,-0.0892,-0.3279,-0.4145,263.9375
13:29:22:810,-0.3638,0.8314,12.8259,47.1644,-0.2171,-0.0451,-0.4531,264.2656
13:29:22:831,0.5125,1.0349,12.1064,45.7712,-0.2125,0.0678,-0.4387,264.7344
13:29:22:856,0.9351,1.1426,12.1543,45.877,-0.2346,-0.166,-0.5511,265.2656
13:29:22:872,-0.3387,0.3897,13.6949,45.8379,-0.3353,-0.4901,-0.8712,265.7031
13:29:22:891,-2.0733,-0.6111,14.1044,46.6086,-0.3875,-0.3152,-1.0643,266.2188
13:29:22:911,-2.2888,-0.6997,12.2632,45.565,-0.2964,0.3181,-0.8424,267.0469
13:29:22:931,-1.2281,0.1766,9.5111,45.6564,-0.1174,0.6255,-0.431,268.7656
13:29:22:954,0.0516,1.0134,7.9692,46.738,0.0125,0.2553,-0.2049,269.6562
13:29:22:974,0.6358,1.4383,8.4684,46.5229,0.0053,-0.4611,-0.2611,270.0312
13:29:22:991,0.3221,1.2468,9.316,47.0956,-0.082,-0.7961,-0.5173,270.2344
13:29:23:011,-0.4979,1.0217,8.9341,47.2277,-0.1752,-0.4939,-0.7809,270.5938
13:29:23:032,-1.27,0.9427,8.0111,45.5966,-0.261,0.0279,-0.93,271.2812
13:29:23:056,-1.7644,0.9296,7.2366,46.1218,-0.2961,0.3541,-0.9596,272.2188
13:29:23:073,-2.2971,0.8338,7.0582,45.6169,-0.2328,0.3924,-0.8941,273.2031
13:29:23:090,-2.3749,0.9655,6.5806,47.1447,-0.0085,0.271,-0.7135,274.2188
13:29:23:111,-2.0386,1.5018,5.6768,46.0187,0.2511,0.1581,-0.4768,275.1719
13:29:23:133,-1.6124,2.1386,5.1644,46.9065,0.3646,0.0577,-0.3188,275.9219
13:29:23:157,-1.6722,2.5828,5.5224,48.0774,0.3199,-0.0454,-0.3069,276.4844
13:29:23:173,-2.1295,2.6833,6.802,46.3231,0.2059,-0.1226,-0.3689,276.6875
13:29:23:191,-2.4432,2.7228,7.9932,48.468,0.1436,-0.0872,-0.3785,277.0781
13:29:23:212,-2.77,2.827,8.8168,47.8945,0.1585,0.0087,-0.3298,277.7344
13:29:23:233,-3.0884,2.8725,9.1819,47.6631,0.196,0.2369,-0.1612,278.2031
13:29:23:257,-2.9567,2.9155,9.0777,47.2525,0.139,0.2233,-0.1013,278.2031
13:29:23:275,-2.7963,2.8581,9.3519,46.5108,-0.0008,0.0633,-0.093,278.5938
13:29:23:290,-2.6874,2.5289,10.5585,47.4893,-0.1571,-0.027,-0.1093,278.8906
13:29:23:363,-2.7856,2.135,12.1244,47.1167,-0.2474,0.075,-0.1013,279.1875
13:29:23:364,-2.5425,1.7424,12.8761,46.9598,-0.277,0.2878,-0.0994,279.2812
13:29:23:364,-2.8598,1.898,12.4643,47.8936,-0.3353,0.2489,-0.1133,279.375
13:29:23:378,-3.426,1.7388,12.8773,45.1217,-0.3939,-0.1199,-0.1404,279.4844
13:29:23:391,-4.3178,0.9667,14.9986,47.1023,-0.2887,-0.2262,-0.0318,279.4844
13:29:23:413,-5.0457,-0.1048,16.1933,45.9229,0.0461,0.1158,0.3027,279.5312
13:29:23:430,-4.8063,-0.6243,14.157,48.0574,0.363,0.422,0.7446,279.625
13:29:23:450,-3.5685,-0.1586,10.7681,47.9478,0.4456,0.2092,1.0181,279.6406
13:29:23:473,-2.2253,0.3418,8.7725,48.3152,0.3217,-0.2949,1.0261,278.4844
13:29:23:490,-1.6375,0.5393,8.9963,48.1284,0.159,-0.5242,0.9219,277.3594
13:29:23:511,-1.689,0.3681,9.6212,48.713,0.1284,-0.407,0.8588,276.7969
13:29:23:531,-1.8889,0.3286,9.0729,48.0846,0.1803,-0.1956,0.9179,275.8281
13:29:23:555,-1.6363,0.5321,7.6723,48.4823,0.2011,-0.0462,1.0197,274.9062
13:29:23:574,-1.0653,0.7249,6.4106,49.3164,0.164,-0.019,1.0727,273.9688
13:29:23:591,-0.7864,1.0888,6.231,48.6336,0.1494,-0.0448,1.0908,272.9531
13:29:23:614,-0.3554,1.4,6.5459,47.475,0.2133,0.0004,1.0644,271.7812
13:29:23:629,0.0133,1.5688,6.6943,47.346,0.31,0.1078,1.0018,270.5625
13:29:23:652,0.1905,1.7532,6.4405,50.7742,0.3944,0.1839,0.9219,269.9531
13:29:23:674,0.364,2.135,6.0551,49.4241,0.4197,0.1333,0.7984,268.8125
13:29:23:693,0.4909,2.6558,5.9593,50.004,0.3483,-0.0294,0.5755,267.6875
13:29:23:711,0.3114,2.6905,6.7925,49.4838,0.2487,-0.1628,0.3347,266.6562
13:29:23:731,-0.4081,2.4774,8.387,49.1327,0.2453,-0.1231,0.197,265.7656
13:29:23:755,-0.9456,2.1183,9.4165,51.0723,0.3286,0.0145,0.1629,265.1875
13:29:23:772,-1.0354,1.8848,9.4129,49.3673,0.3609,0.051,0.189,264.7656
13:29:23:791,-0.5482,1.9591,9.4357,50.4804,0.3004,-0.1144,0.1464,264.6094
13:29:23:811,0.2683,2.0333,10.0187,50.4613,0.1814,-0.3423,-0.0259,264.4531
13:29:23:831,0.3868,1.7137,11.3247,51.201,0.0791,-0.3572,-0.1766,264.2812
13:29:23:858,0.3999,1.1762,12.098,51.201,0.0943,-0.1426,-0.1684,264.2812
13:29:23:873,1.0703,1.0995,11.029,50.9191,0.061,-0.0219,-0.1628,264.5
13:29:23:893,1.8915,1.716,9.5949,50.8879,-0.1316,-0.1844,-0.3788,264.7812
13:29:23:911,2.1669,1.983,9.5099,50.6513,-0.4115,-0.4853,-0.8099,264.9688
13:29:23:931,0.1534,0.1945,11.9819,52.049,-0.6043,-0.5594,-1.1791,265.2344
13:29:23:957,-0.7684,-0.2735,11.9196,50.6958,-0.6799,-0.3181,-1.2371,265.9375
13:29:23:974,-0.5589,-0.0281,10.944,52.0709,-0.6589,-0.0986,-1.0488,267.1719
13:29:23:991,-0.1974,0.6303,9.8954,51.0372,-0.5843,-0.1346,-0.8893,268.625
13:29:24:016,-0.0442,1.0002,9.371,50.689,-0.5398,-0.3375,-0.8581,269.8594
13:29:24:030,-0.3195,1.0433,8.6743,51.3415,-0.5036,-0.4137,-0.9301,270.8906
13:29:24:052,-0.9336,0.9308,8.0554,50.9381,-0.4991,-0.3258,-1.0017,272.3125
13:29:24:074,-1.5525,0.8889,7.6005,52.3847,-0.4866,-0.1644,-0.9846,273.375
13:29:24:091,-1.8781,0.9834,6.7805,49.4292,-0.4085,-0.0065,-0.8677,274.5312
13:29:24:111,-1.8279,1.4623,6.0167,51.9726,-0.2858,0.0585,-0.6656,275.625
13:29:24:130,-1.4628,2.0237,5.7342,51.3645,-0.1947,-0.0209,-0.4951,276.0781
13:29:24:151,-1.2952,2.5349,6.0551,52.2487,-0.1768,-0.1085,-0.4318,276.9219
13:29:24:173,-1.5908,2.7599,7.0379,52.9905,-0.2197,-0.109,-0.4664,277.5469
13:29:24:191,-2.0493,2.8665,8.0004,51.4705,-0.2021,-0.0339,-0.5125,278.0469
13:29:24:211,-2.4288,3.0532,8.047,52.9844,-0.0921,0.1259,-0.5093,278.5156
13:29:24:230,-2.7197,3.2998,8.5175,52.0757,-0.0072,0.2079,-0.4621,279.0781
13:29:24:250,-2.7939,3.2543,9.7074,52.5599,0.0533,0.1429,-0.4161,279.6562
13:29:24:275,-2.9663,3.0221,9.9456,53.9524,0.1553,0.1935,-0.3615,280.1562
13:29:24:292,-2.8813,3.0879,9.6416,53.2292,0.175,0.3762,-0.2507,280.6406
13:29:24:310,-2.5772,2.979,10.5382,52.4224,0.0629,0.3693,-0.1785,281.0938
13:29:24:332,-2.5665,2.5552,12.0585,52.0206,-0.077,0.2646,-0.1756,281.4375
13:29:24:358,-2.5952,2.0572,13.2113,52.2353,-0.1313,0.2047,-0.1577,281.7188
13:29:24:375,-2.7556,1.9172,13.3107,53.7701,-0.1201,0.1746,-0.1037,281.875
13:29:24:392,-3.177,2.001,14.2277,53.675,-0.1638,0.0343,-0.0592,282
13:29:24:410,-4.0198,1.0636,16.7835,56.0181,-0.2586,-0.2883,-0.0818,282.0938
13:29:24:430,-4.7476,-0.422,18.1422,54.6997,-0.1747,-0.2321,-0.0065,282.125
13:29:24:450,-4.3526,-0.9296,15.3302,54.56,0.1995,0.3272,0.3712,282.2188
13:29:24:471,-2.9364,-0.246,11.3331,55.478,0.5329,0.6947,0.8836,282.2188
13:29:24:493,-1.531,0.2747,9.2489,53.844,0.6003,0.3839,1.1573,281.7812
13:29:24:511,-0.9372,0.2807,9.1053,56.1498,0.485,-0.1399,1.1334,280.7812
13:29:24:531,-1.1084,0.3633,9.1879,55.4685,0.3382,-0.3202,1.0255,279.5625
13:29:24:558,-1.0641,0.5393,8.5319,55.3092,0.2589,-0.1799,0.9691,278.3438
13:29:24:575,-0.705,0.5501,7.4628,56.7468,0.2181,0.0508,0.9544,277.25
13:29:24:592,-0.9276,0.726,6.753,55.5756,0.1715,0.1983,0.9363,276.7344
13:29:24:610,-0.8953,0.6865,6.6859,58.327,0.1683,0.2039,0.9669,276.25
13:29:24:631,-0.7193,0.586,6.7039,55.8862,0.4653,0.1173,1.1222,274.0938
13:29:24:657,-0.4835,0.58,6.2586,56.1074,0.5848,0.1315,1.1874,272.9844
13:29:24:677,-0.0382,0.7727,5.7654,56.5937,0.5987,0.1735,1.1946,271.8594
13:29:24:690,0.4011,1.2528,5.3416,58.5547,0.4916,0.2076,1.0974,270.6094
13:29:24:710,0.9542,1.7675,5.5487,57.4695,0.3174,0.1591,0.8649,269.2969
13:29:24:729,1.2595,2.384,6.5758,59.5261,0.1955,0.0601,0.5475,268.0312
13:29:24:749,1.1302,2.7611,7.9237,59.9888,0.1689,-0.0081,0.1752,266.7969
13:29:24:774,0.5161,2.6175,8.4804,57.99,0.1374,0.0236,-0.125,265.8125
13:29:24:792,-0.2812,2.147,8.5043,58.7218,-0.0019,-0.0188,-0.2704,265.2188
13:29:24:809,-0.7541,1.643,9.4034,59.7415,-0.1206,-0.1974,-0.2848,265.0312
13:29:24:830,-0.869,1.1199,10.8842,59.5058,-0.1095,-0.4395,-0.2033,265.1875
13:29:24:850,-0.7265,0.7272,12.0789,60.2758,-0.0282,-0.5905,-0.0198,265.5
13:29:24:874,0.3724,0.6925,12.3015,59.5544,-0.0072,-0.6217,0.124,265.8438
13:29:24:896,1.785,1.333,11.618,58.4423,-0.1915,-0.6747,0.0098,266.2344
13:29:24:910,2.4901,1.898,12.0896,60.0655,-0.4788,-0.7599,-0.3996,266.2969
13:29:24:930,1.864,1.2169,14.0421,59.9529,-0.6189,-0.4558,-0.7833,266.2812
13:29:24:952,0.1078,0.0521,14.6454,60.8982,-0.5537,0.144,-0.8054,266.6094
13:29:24:974,-1.203,-0.1059,12.8749,63.0284,-0.3995,0.4574,-0.53,266.9531
13:29:24:992,-0.9707,0.4555,10.3239,60.7682,-0.2818,0.1882,-0.3263,267.8906
13:29:25:009,-0.4009,1.26,8.7964,61.2216,-0.2293,-0.3295,-0.3127,268.6875
13:29:25:033,-0.0502,1.8358,8.5833,61.3686,-0.2362,-0.5767,-0.4422,269.1875
13:29:25:056,0.0576,2.1039,8.5953,62.1418,-0.274,-0.4017,-0.6248,269.5
13:29:25:074,-0.0562,2.1721,8.0303,63.977,-0.3313,-0.0749,-0.8224,269.875
13:29:25:093,-0.4955,2.0692,7.2522,61.9793,-0.3965,0.1496,-0.983,270.4531
13:29:25:110,-1.2425,1.7687,7.0738,62.5525,-0.3822,0.251,-1.0275,271.6562
13:29:25:132,-2.0613,1.4635,7.3192,62.4212,-0.2128,0.3232,-0.9082,272.6094
13:29:25:150,-2.3558,1.3749,6.8116,62.9509,0.0029,0.3618,-0.6978,273.7188
13:29:25:174,-2.3306,1.6897,5.8719,61.8277,0.1073,0.3147,-0.5343,274.7812
13:29:25:191,-2.4168,2.0907,5.5044,62.2315,0.1209,0.2292,-0.4429,275.6094
13:29:25:209,-2.4647,2.2727,5.4984,61.7504,0.0258,0.2106,-0.3519,276.2656
13:29:25:230,-2.5844,2.4619,6.3124,62.4993,-0.0948,0.1962,-0.2352,276.7812
13:29:25:251,-2.6946,2.6522,7.9596,62.9451,-0.0796,0.1046,-0.1372,277.2344
13:29:25:274,-2.746,2.6905,9.5506,62.6521,0.0253,0.0798,-0.024,277.5156
13:29:25:290,-2.8729,2.4989,10.5023,62.935,0.1318,0.1269,0.1246,277.6875
13:29:25:311,-2.4839,2.3912,10.8542,64.9157,0.1992,0.1943,0.2918,277.7812
13:29:25:333,-2.0589,2.5277,10.9811,65.5828,0.1843,0.1911,0.4215,277.7188
13:29:25:357,-1.4244,2.5229,11.7964,65.4841,0.0999,0.0942,0.4695,277.4844
13:29:25:376,-0.8941,2.4762,12.3159,63.8233,0.0338,0.0212,0.4343,277.0625
13:29:25:440,-1.0031,2.3481,12.6738,63.9732,-0.0578,0.0018,0.2844,276.5625
13:29:25:440,-1.4232,1.7029,13.325,65.82,-0.2024,0.0332,0.0796,276.0312
13:29:25:441,-2.6323,0.835,14.175,65.2725,-0.3233,0.0542,-0.0957,275.6094
13:29:25:454,-3.5744,0.0557,13.3346,64.9572,-0.2684,0.2588,-0.0818,275.375
13:29:25:478,-3.681,0.0473,10.3646,63.5833,-0.0509,0.5701,0.1496,275.3594
13:29:25:492,-3.5517,0.349,7.5179,64.6064,0.0701,0.5895,0.4127,275.4375
13:29:25:513,-3.5852,0.2819,6.7589,65.8396,-0.0567,0.156,0.5576,275.3438
13:29:25:528,-3.6714,-0.2245,8.3212,64.4422,-0.3521,-0.4108,0.6282,274.9531
13:29:25:549,-3.432,-0.4447,9.8762,64.056,-0.5835,-0.6627,0.7509,274.3281
13:29:25:574,-2.8071,-0.3047,10.5011,64.8629,-0.6503,-0.5895,0.9238,273.6406
13:29:25:593,-2.4276,-0.003,10.3083,63.392,-0.5691,-0.3343,1.0713,272.9219
13:29:25:610,-2.1798,0.4208,9.9397,63.8769,-0.4258,-0.08,1.2223,271.9688
13:29:25:630,-1.5226,0.7117,8.794,64.7882,-0.1675,0.1517,1.4117,270.8125
13:29:25:651,-0.9636,1.0684,7.4832,64.9343,0.114,0.2428,1.5683,269.4844
13:29:25:673,-0.3123,1.4048,6.7781,63.7612,0.3145,0.1887,1.6804,267.1562
13:29:25:691,0.4897,1.7699,6.2741,63.974,0.4775,0.1062,1.7275,265.3438
13:29:25:709,1.0895,2.1674,5.8815,63.0874,0.5957,0.0233,1.6351,263.4219
13:29:25:730,1.1685,2.4403,5.6552,63.9162,0.6181,-0.0403,1.4045,261.5781
13:29:25:751,0.7387,2.56,6.2933,63.3274,0.4868,-0.0992,1.0852,259.75
13:29:25:774,0.1115,2.2117,8.2027,62.9981,0.2495,-0.1466,0.7605,258.2031
13:29:25:791,-0.8331,1.637,10.1037,61.8458,0.1084,-0.0986,0.5086,257.0781
13:29:25:809,-0.8498,1.1163,11.1284,62.082,0.1292,-0.002,0.425,256.25
13:29:25:834,-0.1866,1.0576,11.375,63.3076,0.2397,-0.0299,0.4471,255.6875
13:29:25:849,0.4802,1.1211,11.6216,63.4974,0.3108,-0.1487,0.4119,255.2344
13:29:25:870,0.9375,0.8697,11.5677,63.1093,0.2711,-0.1796,0.2881,254.9844
13:29:25:892,1.4366,0.8661,10.549,61.6395,0.1774,-0.0576,0.1581,254.5312
13:29:25:909,1.773,1.2683,10.0773,62.5581,-0.0394,-0.0161,0.0034,254.1719
13:29:25:930,1.4342,1.2384,11.2625,62.5581,-0.3707,-0.1431,-0.2904,253.9688
13:29:25:949,0.1905,0.3226,13.5836,63.767,-0.6392,-0.2872,-0.6603,253.875
13:29:25:973,-1.5537,-0.5441,14.5616,62.3222,-0.6594,-0.0954,-0.832,254.2344
13:29:25:990,-1.7429,-0.343,12.6355,60.4187,-0.4085,0.3706,-0.5961,254.9531
13:29:26:009,-0.6344,0.5357,9.7972,61.7688,-0.1047,0.5499,-0.2041,255.875
13:29:26:030,0.4598,1.2767,8.7294,62.0847,-0.0189,-0.4299,-0.1236,256.4844
13:29:26:050,0.7292,1.4682,9.5805,61.459,-0.0959,-0.4529,-0.3199,256.4844
13:29:26:080,0.5137,1.3833,9.9492,60.7212,-0.1134,-0.0361,-0.4789,256.6094
13:29:26:092,0.054,1.4395,8.6109,61.6661,-0.1539,0.3261,-0.5913,256.625
13:29:26:110,-0.438,1.5209,7.2282,61.3583,-0.2083,0.4146,-0.6342,257.2656
13:29:26:134,-0.9827,1.5185,6.6596,62.0209,-0.1843,0.3392,-0.5804,258.3906
13:29:26:158,-1.2437,1.5497,6.4657,61.0497,-0.0578,0.2462,-0.4501,258.3906
13:29:26:175,-1.2281,1.7041,5.9569,59.6865,0.0597,0.1964,-0.3098,259.0312
13:29:26:192,-0.9971,2.062,5.3967,60.7478,0.1009,0.2076,-0.2304,259.6094
13:29:26:209,-0.6763,2.5038,5.0639,59.3118,0.0687,0.1568,-0.2704,260.0938
13:29:26:229,-0.7672,2.8078,5.3871,59.9244,-0.0133,0.03,-0.3889,260.4062
13:29:26:249,-1.6782,2.8928,6.6823,61.5307,-0.09,-0.0816,-0.4464,260.7812
13:29:26:274,-2.4623,2.7635,8.7354,59.7087,-0.0639,-0.0121,-0.3862,261.1406
13:29:26:292,-3.2321,2.6546,10.2796,59.5459,0.0716,0.226,-0.2368,261.6406
13:29:26:314,-4.1586,2.5241,10.4747,59.3306,0.2314,0.3709,0.0133,262.1094
13:29:26:329,-4.8446,2.2583,10.1228,59.0232,0.3835,0.2492,0.3331,262.4688
13:29:26:349,-4.5357,2.3086,9.7014,58.5428,0.4208,0.0524,0.568,262.5625
13:29:26:373,-4.082,2.6378,9.7002,59.1809,0.2823,-0.0502,0.6346,262.5156
13:29:26:395,-4.1526,2.7001,10.6938,57.1783,0.0908,0.1299,0.6399,262.1562
13:29:26:411,-4.2101,2.4283,11.5892,58.165,-0.0549,0.6756,0.6822,261.5469
13:29:26:435,-4.0425,2.3768,10.5502,57.5603,-0.3033,1.0681,0.736,260.8594
13:29:26:448,-4.1886,2.7527,10.118,58.9447,-0.5651,0.8724,0.8034,260.1094
13:29:26:469,-3.8163,2.7156,11.7209,55.9791,-0.6179,0.4497,0.7723,259.25
13:29:26:490,-4.4387,1.7771,13.7524,58.6949,-0.4019,0.2156,0.8732,258.2031
13:29:26:511,-4.5764,0.5285,14.2696,56.5845,-0.0783,0.3293,1.192,257.0625
13:29:26:529,-3.4679,0.1981,12.5002,55.9048,0.1079,0.3762,1.4466,255.5781
13:29:26:549,-1.8494,0.7105,10.5538,57.9944,0.094,0.1355,1.4692,254.3281
13:29:26:574,-0.3674,1.2229,9.7122,56.0566,0.0019,-0.0952,1.2316,252.7344
13:29:26:592,0.0468,1.345,9.2561,55.7026,-0.188,-0.104,0.8982,251.0938
13:29:26:609,-0.1531,0.9463,9.383,55.078,-0.3633,0.1032,0.6977,249.5156
13:29:26:632,-0.3758,0.5932,9.5733,54.9459,-0.3529,0.3195,0.6543,248.3125
13:29:26:648,-0.6092,0.4711,9.201,53.5317,-0.1835,0.4002,0.7371,247.4375
13:29:26:669,-0.5266,0.598,8.545,55.3633,0.0695,0.3943,0.8444,246.6094
13:29:26:693,-0.292,0.7488,7.4389,53.8849,0.249,0.3328,0.8641,245.7344
13:29:26:709,-0.377,0.9332,6.6129,57.1942,0.2714,0.336,0.8293,244.75
13:29:26:730,-1.191,1.1702,6.5219,52.9634,0.1678,0.3754,0.7773,243.7656
13:29:26:751,-1.7333,1.1426,7.6448,54.6243,0.0386,0.4074,0.7717,242.7656
13:29:26:776,-1.6196,1.3438,8.2996,53.5298,0.0972,0.385,0.8921,241.8125
13:29:26:792,-0.7601,1.916,8.1057,54.8114,0.3755,0.2044,1.0599,240.9375
13:29:26:809,0.2982,2.5827,7.3707,53.6188,0.637,-0.0374,1.1012,240.4531
13:29:26:829,0.6489,2.9682,7.0558,53.0547,0.6844,-0.2446,0.9177,238.1719
13:29:26:849,0.2695,2.8162,7.834,53.8713,0.5193,-0.4462,0.584,237.625
13:29:26:874,-0.2094,2.2021,9.535,52.1077,0.2538,-0.6292,0.2655,236.5469
13:29:26:892,-0.7182,1.5149,11.2433,53.0463,0.0322,-0.6648,0.0729,235.8125
13:29:26:908,-0.4332,1.0062,12.0765,50.569,-0.0554,-0.6068,0.0532,235.5156
13:29:26:928,0.6286,1.4862,10.64,51.8648,-0.016,-0.472,0.1243,235.5156
13:29:26:951,1.0368,2.3601,9.972,52.3014,-0.1638,-0.4526,0.0013,235.6094
13:29:26:972,0.1809,1.7759,12.274,50.7084,-0.5622,-0.6355,-0.4323,235.6094
13:29:26:988,-1.3981,0.4388,14.1283,51.3121,-0.7609,-0.6132,-0.848,235.5938
13:29:27:008,-2.8215,-0.3083,13.3909,50.2075,-0.6413,-0.1863,-0.9194,235.8906
13:29:27:029,-2.4611,-0.0485,10.8087,50.4271,-0.4378,0.1557,-0.591,236.75
13:29:27:049,-0.7684,0.8625,9.134,50.2044,-0.3702,-0.035,-0.2006,237.8125
13:29:27:072,0.5005,1.655,9.4955,49.9612,-0.4764,-0.4808,-0.0959,238.6719
13:29:27:094,1.0093,1.8286,9.4357,49.4926,-0.5417,-0.6393,-0.256,239.125
13:29:27:112,0.9494,1.8657,8.4133,48.8207,-0.5374,-0.3863,-0.5146,239.2812
13:29:27:129,0.5053,1.9303,7.0415,48.7924,-0.538,-0.0044,-0.7396,239.6406
13:29:27:150,-0.3183,1.8262,6.3412,49.7612,-0.526,0.1544,-0.917,240.2656
13:29:27:176,-1.3969,1.5281,6.4477,50.0557,-0.4818,0.1187,-1.0054,241.0781
13:29:27:195,-2.2181,1.3809,6.4345,47.7106,-0.3569,0.1048,-0.934,242.0312
13:29:27:215,-2.4001,1.5221,5.9545,48.1213,-0.2005,0.1387,-0.738,243.125
13:29:27:229,-2.3271,2.171,5.5906,48.7365,-0.0945,0.1626,-0.5244,244.1562
13:29:27:249,-2.199,2.821,6.0754,47.3822,-0.0589,0.0486,-0.3876,244.9219
13:29:27:274,-2.2385,3.1921,7.1552,47.5648,-0.0418,-0.1202,-0.3588,245.5
13:29:27:290,-2.3953,3.3525,8.5211,46.7524,-0.0013,-0.1988,-0.3687,245.9375
13:29:27:308,-2.8502,3.4494,9.1819,47.3615,0.0788,-0.1021,-0.3764,246.3281
13:29:27:329,-3.2357,3.4638,9.5015,47.7906,0.1332,0.0481,-0.3575,246.5469
13:29:27:349,-3.1375,3.5967,9.4871,47.7895,0.1433,0.2004,-0.2853,247
13:29:27:373,-2.9184,3.7284,10.057,47.3371,0.0834,0.2257,-0.2472,247.4531
13:29:27:391,-2.6826,3.4219,11.0398,46.6052,0.0176,0.0633,-0.2968,247.7969
13:29:27:409,-3.4978,2.5289,12.5182,45.0983,-0.0778,0.0095,-0.3788,248.2031
13:29:27:429,-4.24,1.6909,13.7728,47.2992,-0.0722,0.1112,0.0175,248.5312
13:29:27:499,-3.9348,1.7567,14.1702,47.1136,0.0533,-0.2225,0.3155,248.9375
13:29:27:499,-3.2404,1.7999,14.9771,44.8275,0.147,-0.5471,0.4513,248.9375
13:29:27:500,-3.0884,1.1654,16.0101,44.7754,0.2935,-0.4923,0.5824,249.2344
13:29:27:513,-2.5713,0.4567,15.8031,46.4789,0.4541,0.009,0.74,248.8906
13:29:27:528,-2.1247,0.1838,13.3873,46.2591,0.5087,0.4646,0.8447,248.4531
13:29:27:549,-1.8602,0.1287,10.2952,45.3632,0.387,0.4377,0.8745,247.875
13:29:27:574,-1.9081,0.1215,8.6013,45.379,0.1656,0.0721,0.8921,247.0625
13:29:27:591,-2.4599,0.173,8.982,46.9667,0.0671,-0.2419,0.9779,246.1094
13:29:27:607,-2.5617,0.1275,9.7912,46.6314,0.1779,-0.3229,1.1382,245.0781
13:29:27:630,-2.0517,0.1275,9.3183,46.482,0.3406,-0.2012,1.2751,244.0625
13:29:27:648,-1.7285,0.4627,7.8244,47.104,0.4099,-0.0299,1.3848,241.7969
13:29:27:674,-1.0773,0.6399,6.3531,45.0649,0.3987,0.0729,1.4423,240.3906
13:29:27:692,-0.6128,0.9319,5.4278,45.135,0.3372,0.0939,1.4375,239.625
13:29:27:708,-0.3183,1.1965,5.1967,45.1579,0.2921,0.0436,1.3824,238.0938
13:29:27:728,-0.025,1.3426,5.6995,44.9415,0.2977,0.0553,1.274,236.4375
13:29:27:749,0.0145,1.3569,5.9892,43.6093,0.285,0.1655,1.168,234.8125
13:29:27:774,-0.0729,1.6167,6.3088,46.8457,0.2312,0.2814,1.078,233.2969
13:29:27:791,0.0372,2.1183,6.9373,43.1647,0.2224,0.2723,0.9403,232.6562
13:29:27:808,0.1414,2.5373,7.47,44.1249,0.2448,0.1426,0.7488,231.2969
13:29:27:828,0.1749,2.6354,8.0387,44.7469,0.2431,0.0729,0.5432,230.0156
13:29:27:848,0.1797,2.3972,8.2362,44.6433,0.1526,0.0548,0.3565,228.9375
13:29:27:869,-0.0406,2.0644,8.6276,45.343,-0.0509,-0.0302,0.2188,228.0625
13:29:27:889,-0.1711,1.6502,10.2138,44.9177,-0.196,-0.0947,0.1651,227.4375
13:29:27:910,0.0193,1.309,11.8311,45.4917,-0.1851,-0.1069,0.1512,227.0156
13:29:27:930,0.303,0.9942,12.6535,45.2559,-0.0892,-0.0179,0.1991,226.6094
13:29:27:949,1.038,0.9679,11.867,43.5925,-0.0895,0.0638,0.2263,226.5312
13:29:27:975,2.1465,1.5209,10.5262,44.8623,-0.2842,-0.08,0.0143,226.3594
13:29:27:993,2.5128,1.886,10.7944,43.7718,-0.5566,-0.2478,-0.4235,226.0938
13:29:28:009,1.6653,1.1414,12.614,44.2302,-0.657,-0.0997,-0.7663,225.9062
13:29:28:027,0.0588,0.0018,13.1814,44.2302,-0.5721,0.2604,-0.73,226.1562
13:29:28:048,-0.8522,-0.2939,11.873,42.574,-0.4437,0.3576,-0.4067,226.875
13:29:28:068,-0.201,0.1526,9.9528,45.7483,-0.376,-0.0297,-0.1671,227.7656
13:29:28:091,0.6609,0.9032,9.0538,46.0807,-0.4149,-0.5269,-0.186,228.3594
13:29:28:110,0.9099,1.1821,9.3854,42.8296,-0.5036,-0.6081,-0.325,228.5938
13:29:28:129,0.1282,1.4335,8.4313,41.1611,-0.5688,-0.2683,-0.4219,228.7969
13:29:28:149,-0.2681,1.6107,7.0546,43.7197,-0.6048,0.1469,-0.5013,229.1719
13:29:28:177,-0.6379,1.7376,6.1508,43.4508,-0.6093,0.3394,-0.5308,229.6719
13:29:28:191,-0.9241,1.8944,5.9593,43.5891,-0.5446,0.2508,-0.488,230.1719
13:29:28:214,-0.9073,2.0381,5.8635,44.0285,-0.3843,0.0433,-0.3894,230.7188
13:29:28:236,-0.7636,2.323,5.5894,42.5096,-0.2155,-0.1136,-0.2933,231.25
13:29:28:247,-0.7936,2.736,5.6612,43.5322,-0.1654,-0.1399,-0.2539,231.7031
13:29:28:268,-1.2509,3.0676,6.9577,43.7325,-0.2466,-0.1383,-0.2682,232.0781
13:29:28:292,-1.7728,3.0484,8.9892,43.0813,-0.3036,-0.1532,-0.2741,232.3906
13:29:28:309,-2.2289,2.8713,10.1755,42.9079,-0.184,-0.0885,-0.2129,232.6875
13:29:28:328,-2.333,2.8988,10.2653,43.2308,0.0192,0.0561,-0.0659,233.0156
13:29:28:350,-1.7955,3.04,10.3538,42.7084,0.1627,0.1014,0.1097,233.3125
13:29:28:374,-1.3059,2.6665,10.537,43.2958,0.1989,0.0697,0.1824,233.4844
13:29:28:392,-1.2317,2.0069,11.4097,42.2354,0.0855,0.0473,0.2087,233.4375
13:29:28:409,-1.3119,1.5221,13.015,43.4839,-0.1137,0.1056,0.3374,233.25
13:29:28:428,-1.0043,1.473,14.151,41.8994,-0.1678,0.1805,0.5619,233.0312
13:29:28:448,-0.8247,1.6945,12.7385,44.079,0.066,0.2532,0.7813,232.75
13:29:28:468,-1.1647,2.475,10.7142,43.037,0.2533,0.1586,0.8993,232.2188
13:29:28:492,-1.4651,2.8329,10.7872,43.283,0.1265,-0.2387,0.9302,231.4062
13:29:28:511,-1.9895,2.1207,14.2121,43.4845,-0.1361,-0.9421,0.8719,230.4219
13:29:28:535,-2.4575,1.0433,16.7978,43.3314,-0.0586,-1.3383,0.9131,228.9062
13:29:28:552,-2.8538,0.6877,14.4862,43.556,0.4461,-0.9517,1.1174,228.0312
13:29:28:576,-2.3654,1.4503,10.6759,43.8502,0.7542,-0.2552,1.3965,227.1875
13:29:28:592,-1.6399,2.1626,9.5386,45.8764,0.5244,0.0257,1.5182,226.0312
13:29:28:608,-1.5106,2.1973,11.2505,44.8229,0.1832,-0.1724,1.4231,224.4531
13:29:28:627,-1.8997,1.4204,12.1387,45.3845,0.1729,-0.3628,1.2761,222.7031
13:29:28:648,-2.3462,0.8015,10.7549,44.1502,0.4376,-0.2204,1.2596,221.1719
13:29:28:668,-2.0038,0.5561,8.5295,45.7091,0.6575,0.0875,1.4045,219.75
13:29:28:693,-1.2413,0.5644,6.6632,44.5656,0.7385,0.3325,1.5717,218.3281
13:29:28:708,-0.5314,0.7895,5.2195,45.1738,0.7649,0.4148,1.6642,216.7656
13:29:28:733,0.0396,1.0014,4.4258,46.2365,0.7699,0.3211,1.6609,214.875
13:29:28:747,0.4658,1.1402,4.6473,45.3171,0.731,0.0822,1.5704,213.875
13:29:28:770,0.6478,1.0002,5.162,46.6031,0.6927,-0.1391,1.4104,211.8438
13:29:28:793,0.5113,0.7632,5.5427,45.6581,0.6394,-0.1764,1.2298,210
13:29:28:812,0.6968,0.8362,5.7893,46.6202,0.4922,0.0137,1.0876,207.4688
13:29:28:830,1.2714,1.0193,6.0981,46.8723,0.2155,0.3176,0.9185,206.0625
13:29:28:852,1.2295,0.8996,7.3659,47.5356,-0.5151,0.7395,0.3842,204.8438
13:29:28:873,0.5328,0.5345,9.1723,45.1348,-0.5113,0.7909,0.2894,203.7031
13:29:28:889,0.2072,0.3011,10.0414,47.1486,-0.343,0.7869,0.3201,203.7031
13:29:28:909,0.5209,0.252,9.8199,47.6099,-0.3004,0.761,0.384,202.8594
13:29:28:928,1.4079,0.4771,9.7697,46.8784,-0.4421,0.6926,0.376,201.8906
13:29:28:958,2.423,0.8769,10.8219,47.8343,-0.5862,0.662,0.2194,200.8281
13:29:28:968,3.0036,1.0768,11.8598,46.5543,-0.5971,0.7136,0.0157,200.8281
13:29:28:991,3.2969,1.0541,11.5114,47.7547,-0.6479,0.6907,-0.1668,200.3281
13:29:29:008,3.3448,1.5281,11.0553,48.8482,-0.8405,0.5701,-0.4166,199.9844
13:29:29:028,3.2969,1.7939,11.7269,47.402,-1.0626,0.4593,-0.8299,199.9531
13:29:29:047,2.1154,1.0253,13.088,47.9967,-1.1516,0.6524,-1.1269,199.9531
13:29:29:069,0.1474,0.0233,13.7117,48.5578,-1.0195,1.0425,-1.0073,201.25
13:29:29:091,-1.185,-0.0461,12.5469,48.8705,-0.7452,1.0202,-0.5908,202.9531
13:29:29:110,-0.8343,0.337,10.8758,48.1808,-0.4208,0.3621,-0.2139,202.9531
13:29:29:127,0.2862,0.9691,9.9001,49.1101,-0.1164,-0.4931,-0.0547,203.75
13:29:29:148,1.4905,1.4,9.5578,48.5763,0.1345,-1.0246,-0.13,204.0938
13:29:29:168,1.9394,1.4886,8.6683,50.1814,0.2346,-1.0824,-0.3359,204.2031
13:29:29:189,1.7646,1.3533,7.3156,48.1204,0.1585,-0.8813,-0.5255,204.3438
13:29:29:210,1.4438,1.345,6.1413,48.783,-0.0037,-0.6888,-0.7082,204.7188
13:29:29:228,1.0488,1.3066,5.5822,49.2829,-0.142,-0.6094,-0.8752,204.9844
13:29:29:248,0.6106,1.2947,5.6708,48.7036,-0.1968,-0.5924,-1.0083,205.6406
13:29:29:269,0.1797,1.2169,6.1568,48.2112,-0.18,-0.5777,-1.0999,206.5156
13:29:29:291,-0.2393,1.1774,6.5399,50.0339,-0.1712,-0.5583,-1.1314,207.5625
13:29:29:311,-0.4668,1.4563,6.9684,50.6206,-0.2381,-0.5258,-1.166,208.7188
13:29:29:328,-0.8367,1.7603,8.1416,47.9672,-0.2796,-0.3791,-1.1799,210.0312
13:29:29:351,-1.2772,1.904,9.6655,48.3875,-0.1896,-0.1343,-1.138,211.375
13:29:29:375,-1.7668,1.9962,10.3155,50.1996,-0.0658,0.0761,-1.0589,213.3906
13:29:29:393,-2.5102,2.1135,10.6495,49.5415,0.0413,0.2212,-0.9226,214.75
13:29:29:408,-2.8825,2.3266,11.0601,48.2828,0.1784,0.295,-0.7788,216.0312
13:29:29:428,-2.861,2.584,11.0266,51.1715,0.1928,0.2971,-0.7205,217.1562
13:29:29:452,-3.4032,2.5073,11.284,51.2571,0.0373,0.2976,-0.6507,218.0469
13:29:29:476,-4.1335,1.9267,12.2453,49.2585,-0.196,0.3773,-0.4901,218.875
13:29:29:497,-4.6387,0.9691,13.4208,48.951,-0.4077,0.5171,-0.2011,219.6406
13:29:29:509,-5.0433,0.4747,14.6981,50.8454,-0.5241,0.4955,0.2023,220.25
13:29:29:565,-4.0952,-0.2783,18.305,50.5298,-0.2927,0.3482,0.605,220.625
13:29:29:565,-3.3697,-1.011,16.3633,48.3947,0.3401,0.2833,0.9696,220.5938
13:29:29:577,-2.1774,-0.9451,12.9001,47.4418,0.906,0.364,1.3073,220.1094
13:29:29:593,0.4071,0.0557,10.6064,49.1421,1.0613,0.2106,1.4879,219.1875
13:29:29:608,1.8389,0.7751,10.5286,49.4827,0.9476,-0.2805,1.2538,217.8594
13:29:29:628,0.6142,-0.1634,11.3582,48.1793,0.8261,-0.7439,0.6865,216.2031
13:29:29:649,-1.0845,-1.2576,10.847,48.2812,0.7329,-0.5655,0.3113,214.6719
13:29:29:666,-1.3622,-1.1929,8.8407,47.4693,0.5289,0.2473,0.417,213.3594
13:29:29:689,-1.0821,-0.6027,7.3371,47.5426,0.2703,0.8337,0.6841,213.2031
13:29:29:708,-0.7828,-0.2879,6.8655,47.8129,0.1265,0.7994,0.9004,212.5781
13:29:29:727,-0.4488,-0.173,6.7709,46.3041,0.1758,0.4745,1.098,212.1719
13:29:29:749,0.2084,0.2005,6.2873,48.034,0.3475,0.2172,1.3017,211.1406
13:29:29:776,1.1122,0.5345,5.6732,48.301,0.4727,0.1147,1.4271,209.9688
13:29:29:793,1.9346,0.8218,5.0746,46.8856,0.5153,0.1429,1.4399,208.5469
13:29:29:814,2.4997,1.1702,4.8544,47.8076,0.4429,0.2204,1.3448,206.9531
13:29:29:827,2.6325,1.5461,5.1704,46.001,0.2727,0.3141,1.1531,205.2812
13:29:29:848,2.2112,1.9064,6.0946,45.1935,0.0807,0.3608,0.8908,203.7344
13:29:29:868,1.7599,1.8669,7.0905,45.5359,-0.0304,0.3943,0.6039,202.25
13:29:29:890,1.269,1.7999,7.2845,46.0828,-0.0024,0.409,0.3749,201.0156
13:29:29:910,1.0224,1.8022,6.7542,45.0643,0.0682,0.3376,0.2063,200.1406
13:29:29:928,0.7675,1.4587,7.391,44.7137,0.008,-0.0632,0.0322,199.5312
13:29:29:948,0.3592,0.6638,9.1915,44.5102,-0.1627,-0.562,-0.1375,199.0156
13:29:29:967,0.3329,0.1467,11.3678,45.1216,-0.3678,-0.8294,-0.1737,198.9844
13:29:29:991,1.2954,-0.4208,12.8498,43.7575,-0.4879,-0.8401,-0.1045,199.2344
13:29:30:011,2.3261,-0.3178,13.0485,45.3959,-0.5161,-0.7687,-0.0552,199.5625
13:29:30:027,2.9689,0.5285,13.2987,44.8235,-0.596,-0.7996,-0.1045,199.8125
13:29:30:047,2.3345,0.683,14.9268,45.0684,-0.7723,-0.9903,-0.3881,200
13:29:30:069,0.7423,-0.1981,15.9838,44.0689,-0.8706,-0.7634,-0.738,200.25
13:29:30:094,-0.4931,-0.8709,13.8542,42.9779,-0.7233,0.0127,-0.7788,200.8438
13:29:30:110,-0.6391,-0.2448,10.8087,42.9779,-0.5215,0.548,-0.4712,201.7812
13:29:30:130,0.4634,0.5788,9.0909,42.9715,-0.3894,0.3285,-0.0866,202.7031
13:29:30:148,1.214,1.5832,9.0083,44.4134,-0.2879,-0.4028,0.0503,203.2031
13:29:30:168,1.6246,2.0249,9.3172,41.1185,-0.2091,-0.9386,-0.0387,203.2812
13:29:30:194,1.5516,2.1446,8.551,44.9062,-0.1675,-0.8331,-0.2413,203.2656
13:29:30:212,1.0931,2.1602,7.1253,41.4754,-0.1846,-0.4012,-0.4808,203.3125
13:29:30:228,0.4299,2.0309,6.1185,43.3473,-0.2733,-0.0315,-0.6954,203.5781
13:29:30:249,-0.28,1.7077,5.9772,41.9302,-0.3702,0.2169,-0.8952,204.3594
13:29:30:281,-1.13,1.4874,6.1664,42.4473,-0.2807,0.2827,-0.8086,206.1562
13:29:30:296,-1.4675,1.5078,6.2203,44.3589,-0.1593,0.3243,-0.6539,206.1562
13:29:30:309,-1.4663,1.8238,6.2717,43.3932,-0.0647,0.3285,-0.5181,208.0469
13:29:30:327,-1.4819,2.408,6.5088,43.5144,-0.0381,0.255,-0.4339,208.0469
13:29:30:347,-1.3263,2.7923,7.4425,42.872,-0.0107,0.1464,-0.4176,208.7812
13:29:30:369,-1.2545,3.0113,8.6444,43.4342,0.0437,0.0657,-0.4406,209.3125
13:29:30:391,-1.604,2.9096,9.8175,43.9715,0.0642,0.087,-0.4328,209.7969
13:29:30:410,-2.2169,2.5169,11.0051,43.3062,0.0916,0.2236,-0.3117,210.25
13:29:30:427,-2.5904,1.9567,11.7221,44.6188,0.1108,0.3605,-0.0762,210.75
13:29:30:451,-2.4958,1.7029,12.2608,43.7457,0.1302,0.3932,0.1874,211.2188
13:29:30:466,-1.8734,1.6251,12.6523,42.0912,0.147,0.3251,0.3504,211.5469
13:29:30:487,-1.1551,1.5796,12.9073,44.2123,0.1012,0.2761,0.381,211.5938
13:29:30:511,-0.6092,1.5341,13.246,42.3848,-0.0368,0.2668,0.303,211.1562
13:29:30:533,-0.3925,1.4048,13.9164,43.4422,-0.2211,0.1373,0.1579,210.7031
13:29:30:546,-0.8462,0.8877,15.6642,44.5987,-0.2716,0.0124,0.0849,210.2656
13:29:30:568,-1.689,-0.1466,17.8513,44.8996,0.004,0.2241,0.1941,210
13:29:30:592,-2.1176,-1.3641,17.2994,45.3033,0.4727,0.7672,0.515,209.875
13:29:30:609,-1.9404,-1.4778,13.1335,44.9608,0.7031,1.005,0.87,209.75
13:29:30:630,-1.3454,-0.9104,9.1998,43.1895,0.6461,0.6732,1.0599,209.3438
13:29:30:647,-1.1551,-0.3717,7.2833,45.9018,0.4474,0.124,1.123,208.4531
13:29:30:668,-1.2784,-0.258,7.2821,45.7318,0.2914,-0.2094,1.1877,207.2344
13:29:30:692,-1.349,-0.3322,7.8052,45.2684,0.2663,-0.2262,1.3086,205.9531
13:29:30:709,-1.0833,-0.1335,7.4389,45.8252,0.2757,-0.0848,1.4247,205.3594
13:29:30:727,-0.5996,0.3011,6.3771,45.3621,0.2226,-0.0036,1.4644,204.0312
13:29:30:748,-0.189,0.7332,5.8324,45.0004,0.1521,-0.0571,1.4274,202.5625
13:29:30:767,-0.0933,0.8793,6.1305,45.8684,0.1747,-0.1389,1.3701,200.9531
13:29:30:794,-0.122,0.7524,6.6129,46.758,0.2812,-0.1551,1.352,199.3438
13:29:30:809,-0.0154,0.6004,7.0211,45.5873,0.416,-0.0472,1.3773,197.7188
13:29:30:827,0.2874,0.5166,6.8739,46.8087,0.5137,0.0633,1.3989,195.4844
13:29:30:847,1.0907,0.9439,7.3563,44.5266,0.6296,-0.0299,1.3313,193.9375
13:29:30:867,1.9586,1.6478,8.2469,46.8212,0.8165,-0.2153,1.0484,192.3281
13:29:30:892,0.886,1.8429,7.8543,47.0103,0.8056,-0.4611,0.7781,190.7188
13:29:30:909,-1.1862,1.309,8.0698,47.4084,0.6751,-0.6614,0.8721,189.3906
13:29:30:927,0.1545,0.993,9.6356,47.5279,0.6498,-0.8055,1.1874,188.4062
13:29:30:948,2.0986,2.0488,9.4177,46.2378,0.6245,-0.8225,1.3291,187.5938
13:29:30:966,3.7626,2.7168,10.0414,47.7929,0.3396,-0.7194,1.136,186.5625
13:29:30:990,4.1995,2.7001,11.3786,48.1297,-0.1084,-0.305,0.6465,185.1875
13:29:31:008,3.267,2.25,11.6467,47.1934,-0.4908,0.4079,0.1062,183.8281
13:29:31:027,2.2973,2.1913,10.8925,47.3602,-0.6653,0.9387,-0.2043,182.9219
13:29:31:046,2.0077,2.5361,10.3574,48.1199,-0.7225,0.9041,-0.2928,182.5312
13:29:31:066,1.9909,2.7061,11.5222,49.3575,-0.7776,0.4313,-0.3777,182.5469
13:29:31:094,1.7778,2.4008,13.1551,49.5866,-0.7835,0.0936,-0.5202,182.8594
13:29:31:112,1.3971,1.9926,12.8857,48.1129,-0.5963,0.2034,-0.6235,183.2656
13:29:31:126,1.6102,1.9734,11.3439,49.756,-0.3254,0.3624,-0.6049,183.8906
13:29:31:147,2.1357,2.2236,10.2377,49.1127,-0.1483,0.2372,-0.5545,184.625
13:29:31:167,2.4386,2.2763,10.209,50.3664,-0.1081,-0.1346,-0.6475,184.9375
13:29:31:192,2.3644,1.9567,10.0677,49.0016,-0.1425,-0.2443,-0.8432,185.5312
13:29:31:210,1.8281,1.5999,8.7689,50.8069,-0.1878,0.0601,-1.0672,186.2031
13:29:31:227,1.1697,1.4084,6.9936,50.6148,-0.2506,0.4841,-1.2366,187.0938
13:29:31:247,0.3114,1.2803,6.0072,49.7171,-0.3329,0.6753,-1.3378,188.1562
13:29:31:267,-0.7828,1.1307,5.6445,50.6074,-0.3774,0.6332,-1.3535,189.4531
13:29:31:291,-1.4807,1.096,5.3595,52.3991,-0.3313,0.5288,-1.2097,190.875
13:29:31:309,-1.6543,1.503,5.3188,51.3457,-0.2479,0.4132,-0.9199,192.2812
13:29:31:328,-1.264,2.0907,5.5355,53.3417,-0.1342,0.2622,-0.6009,193.7031
13:29:31:348,-0.93,2.7204,5.8408,52.3606,-0.0107,0.0295,-0.3777,194.8906
13:29:31:367,-1.1024,3.1262,6.5878,51.9305,0.0165,-0.1754,-0.2941,195.6719
13:29:31:394,-1.3658,3.2328,8.1236,53.5758,-0.0471,-0.2909,-0.2661,196.3906
13:29:31:411,-1.5154,3.2914,10.1084,53.9038,-0.1089,-0.2374,-0.224,196.75
13:29:31:428,-1.6375,3.2567,11.6719,53.8413,-0.0394,-0.0755,-0.1721,197.0625
13:29:31:446,-1.9991,3.2112,12.0334,55.0877,0.1731,0.1331,-0.1063,197.3438
13:29:31:467,-2.515,3.0496,11.6695,54.0462,0.3731,0.2082,-0.008,197.5625
13:29:31:494,-2.5689,2.7827,11.8969,54.9961,0.4109,0.1291,0.1419,197.6562
13:29:31:513,-1.756,2.6438,12.7133,54.9523,0.2858,0.0817,0.3328,197.6406
13:29:31:528,-0.9073,2.7767,13.0988,53.7118,0.1409,0.2036,0.4282,197.4688
13:29:31:547,-0.936,2.8725,13.2269,56.8067,0.0077,0.3027,0.3459,197.0938
13:29:31:621,-1.8506,2.3661,14.8909,55.5212,-0.1643,0.1213,0.1904,196.5938
13:29:31:622,-2.4611,1.151,17.3042,56.0555,-0.1971,-0.145,0.1672,196.1562
13:29:31:622,-2.0206,0.082,16.3765,54.1148,0.1747,0.0332,0.3685,195.9219
13:29:31:627,-1.2018,0.234,11.8945,55.6011,0.7191,0.5269,0.6814,195.75
13:29:31:648,-0.2908,1.0576,8.4888,55.6697,0.8349,0.2644,0.8495,195.5938
13:29:31:668,0.2288,1.5904,7.0989,54.8463,0.5502,-0.0837,0.6532,194.4844
13:29:31:693,0.4047,1.4347,7.494,55.5083,0.2855,-0.109,0.4298,193.4062
13:29:31:710,0.0456,1.1079,7.8208,55.1517,0.1254,0.1221,0.3081,191.7188
13:29:31:726,-0.4512,0.9367,7.3982,54.4929,0.02,0.3248,0.2774,191.7188
13:29:31:746,-0.8642,0.9667,6.7697,55.9633,-0.085,0.3898,0.2902,191.25
13:29:31:767,-0.9671,0.9906,6.7877,55.6971,-0.1353,0.3834,0.3147,190.9062
13:29:31:791,-1.0378,1.0588,6.9888,57.0269,-0.0828,0.3869,0.3528,190.5312
13:29:31:814,-1.1958,0.999,6.984,55.5521,0.0447,0.3427,0.4247,189.7344
13:29:31:830,-1.4352,0.817,6.3723,54.2239,0.134,0.251,0.5773,189.7344
13:29:31:845,-1.2628,0.9727,5.8791,55.5366,0.1396,0.0833,0.7565,189.2656
13:29:31:866,-0.675,1.491,6.006,55.6759,0.1111,-0.1258,0.8388,188.7188
13:29:31:888,-0.1304,2.1302,6.6428,54.775,0.0868,-0.26,0.801,188.0156
13:29:31:910,0.2276,2.6665,7.6281,54.6931,0.0908,-0.256,0.6383,187.1875
13:29:31:926,-0.1651,2.9754,8.4277,53.669,0.1156,-0.1426,0.4577,186.25
13:29:31:946,-0.8211,2.9299,8.7306,53.5385,0.1031,-0.0566,0.3501,185
13:29:31:969,-1.1311,2.7492,9.0311,54.7167,0.0511,-0.0494,0.3075,184.0156
13:29:31:993,-0.9396,2.7072,9.3794,52.9897,-0.0333,-0.1088,0.2471,184.0156
13:29:32:013,-0.5649,2.5205,9.8259,52.22,-0.1638,-0.1884,0.1334,183.6562
13:29:32:030,-0.7457,2.1937,10.7728,53.6383,-0.2615,-0.1176,0.1059,183.3594
13:29:32:047,-0.3937,1.716,10.9452,53.7644,-0.3004,0.0374,0.1616,183.1719
13:29:32:068,-0.0789,2.1733,9.705,52.8356,-0.4621,-0.0278,0.1496,183.0781
13:29:32:093,0.5304,2.9,9.4237,52.5376,-0.7332,-0.4411,-0.0834,182.9375
13:29:32:110,0.9638,2.9682,11.357,51.0636,-0.9782,-0.8542,-0.4797,182.75
13:29:32:126,0.3353,1.8561,14.9914,50.0604,-0.939,-0.6009,-0.7505,182.6875
13:29:32:152,-0.9923,0.2077,16.3262,51.9794,-0.62,0.116,-0.6214,182.8438
13:29:32:165,-1.7704,-0.2328,13.8661,51.9794,-0.3105,0.3994,-0.1769,183.5
13:29:32:187,-0.9959,0.1909,10.9847,51.7317,-0.1555,0.0654,0.1845,184.4531
13:29:32:211,0.303,0.8398,9.4907,50.8148,-0.1513,-0.4659,0.29,185.1719
13:29:32:230,1.2152,1.2264,9.9325,52.2955,-0.1135,-0.5793,0.1973,185.3281
13:29:32:251,1.4881,1.2264,9.3615,50.0119,-0.0764,-0.2726,0.0473,184.9688
13:29:32:267,1.3229,1.1869,7.8914,51.1525,-0.1047,0.189,-0.0557,184.75
13:29:32:287,1.1577,1.1618,6.1796,51.6749,-0.1633,0.5152,-0.1258,184.6719
13:29:32:317,1.0117,1.2145,4.9645,49.1868,-0.212,0.6004,-0.1694,184.6875
13:29:32:327,0.5735,1.7256,4.5335,50.7046,-0.1808,0.4774,-0.1868,184.75
13:29:32:348,0.6011,2.1087,4.8699,48.4744,-0.1068,0.2569,-0.1873,184.8594
13:29:32:367,0.5005,2.5421,5.4373,48.6885,-0.0714,0.0438,-0.2254,185
13:29:32:392,-0.0214,2.9347,6.6931,49.5044,-0.1342,-0.1021,-0.3239,185.1719
13:29:32:411,-0.6619,3.1705,8.551,49.2931,-0.2748,-0.0872,-0.4283,185.3906
13:29:32:426,-1.2449,3.4183,10.5597,48.7418,-0.3436,0.0952,-0.5047,185.6875
13:29:32:447,-1.6375,3.4147,11.9975,47.0089,-0.334,0.4486,-0.5884,186.125
13:29:32:465,-2.3498,3.1226,11.849,48.697,-0.315,1.1134,-0.6978,186.6719
13:29:32:485,-3.3925,2.8856,11.363,46.4105,-0.3571,1.7062,-0.7324,187.2656
13:29:32:510,-4.5333,2.4942,11.5737,47.2622,-0.3268,1.7142,-0.6102,187.8906
13:29:32:528,-5.1606,1.9339,12.2057,45.6353,-0.0836,1.1046,-0.3319,188.9219
13:29:32:546,-4.5668,1.4036,12.1459,46.5916,0.2634,0.3895,0.0476,189.4219
13:29:32:566,-3.5146,1.4311,11.7078,45.294,0.4213,-0.0006,0.3728,189.7031
13:29:32:589,-2.7724,1.6059,12.1543,45.6888,0.2706,-0.0883,0.5089,189.6406
13:29:32:610,-2.946,1.2216,14.5593,45.1023,-0.0155,-0.2377,0.4561,189.25
13:29:32:626,-3.1147,0.1323,16.1598,44.6222,-0.0426,-0.2249,0.434,189
13:29:32:645,-2.7772,-0.726,13.8398,43.7345,0.3103,0.1288,0.5653,188.4531
13:29:32:665,-2.0709,-0.2903,10.1803,42.6171,0.6378,0.3834,0.8071,187.9844
13:29:32:685,-0.9827,0.0473,8.7689,44.0341,0.6035,0.0816,0.9597,187.4531
13:29:32:713,-0.7385,0.0616,9.1412,42.5726,0.3867,-0.3793,0.8716,186.7188
13:29:32:732,-0.8079,-0.088,9.2405,42.1163,0.2149,-0.5,0.7453,185.6875
13:29:32:745,-0.8163,-0.0569,8.3906,41.1247,0.1281,-0.3026,0.6886,184.6562
13:29:32:767,-0.7193,0.2963,7.1612,41.4888,0.0554,-0.0315,0.6982,183.8594
13:29:32:792,-0.3794,0.7919,6.5638,41.5828,-0.0216,0.104,0.7515,183.125
13:29:32:811,-0.4249,1.5018,6.2634,40.9202,-0.0293,0.1086,0.772,181.9531
13:29:32:827,-0.4811,2.3398,5.9162,41.3766,0.0639,0.0809,0.7848,181.125
13:29:32:846,0.1893,3.0915,5.8515,38.531,0.1798,0.0071,0.8061,180.2188
13:29:32:867,0.8357,3.635,6.1293,39.8956,0.2655,-0.0694,0.7233,179.3125
13:29:32:890,0.8656,3.8086,6.5925,40.5338,0.2871,-0.0414,0.4383,178.4531
13:29:32:910,0.2036,3.4507,6.9218,39.48,0.2906,0.0907,0.0516,177.6406
13:29:32:927,-0.5446,2.7767,7.0582,38.5273,0.2802,0.2566,-0.2491,177.1562
13:29:32:947,-0.7744,2.5684,7.312,39.966,0.2711,0.3195,-0.3418,177.0938
13:29:32:966,-0.602,2.5708,7.9201,37.8701,0.2746,0.1909,-0.334,177.3438
13:29:32:987,-0.5529,2.3481,8.6073,39.358,0.2679,-0.0467,-0.3809,177.7031
13:29:33:010,-0.9707,1.6335,9.9851,36.7421,0.1683,-0.2835,-0.4872,178.0625
13:29:33:028,-1.5238,0.9499,11.4923,37.248,-0.1124,-0.2595,-0.4352,178.5
13:29:33:046,-1.8434,0.4052,12.4356,36.3251,-0.1358,-0.1226,-0.211,178.5
13:29:33:067,-1.2485,0.1371,12.2776,36.8007,-0.089,-0.0393,0.045,179.1094
13:29:33:087,-0.1328,0.4962,10.9572,36.1996,-0.1209,-0.272,0.1201,180.0625
13:29:33:111,0.8884,1.0002,10.1958,36.1584,-0.3161,-0.7338,-0.06,180.4844
13:29:33:130,0.9997,1.1474,11.3091,37.9922,-0.5545,-1.0449,-0.3801,180.4844
13:29:33:149,0.2934,0.5225,13.7835,35.9846,-0.5928,-0.8108,-0.6152,180.375
13:29:33:165,-0.6068,-0.3406,14.6754,35.3521,-0.4453,-0.214,-0.5926,180.5469
13:29:33:185,-0.6966,-0.4459,12.8438,36.9564,-0.2791,0.2223,-0.4467,181.1094
13:29:33:209,-0.0945,0.2951,9.8714,37.4944,-0.2746,0.0697,-0.4746,181.9219
13:29:33:227,0.0289,0.8015,8.5211,36.6661,-0.3824,-0.2848,-0.6323,182.5938
13:29:33:251,-0.4081,0.8817,8.7952,36.3332,-0.4517,-0.3114,-0.7508,183.0625
13:29:33:264,-0.9588,0.8422,8.7198,36.5294,-0.4431,-0.0403,-0.7551,183.5938
13:29:33:286,-1.3335,1.078,7.877,36.2492,-0.3896,0.1781,-0.6733,184.2969
13:29:33:313,-1.3466,1.3749,6.8427,35.4185,-0.2956,0.1658,-0.587,185.1875
13:29:33:329,-1.4161,1.6095,6.2933,34.204,-0.1561,0.0098,-0.488,186.0469
13:29:33:351,-1.3323,1.8118,6.0323,34.9269,-0.0312,-0.0861,-0.3841,186.7969
13:29:33:364,-1.0617,2.1494,5.7199,35.3129,0.013,-0.0283,-0.329,187.7031
13:29:33:386,-0.796,2.4606,5.49,36.164,-0.0202,0.0705,-0.3607,188.2031
13:29:33:413,-0.9288,2.8796,5.5403,35.4354,-0.1249,0.0737,-0.4523,188.6094
13:29:33:432,-1.5034,3.1358,6.6835,37.6082,-0.2104,-0.0121,-0.5314,188.9688
13:29:33:448,-2.3318,3.0101,8.8,35.9715,-0.127,0.0124,-0.497,189.4219
13:29:33:465,-3.1076,2.8521,10.4747,35.7326,0.1281,0.107,-0.3412,189.9844
13:29:33:486,-3.2584,2.7264,10.7728,35.3003,0.3454,0.1895,-0.1255,190.5625
13:29:33:511,-2.825,2.8365,10.4352,35.9085,0.4115,0.1959,0.0117,191.0469
13:29:33:527,-2.527,3.0484,10.4831,36.1578,0.3452,0.1131,0.0452,191.2969
13:29:33:546,-2.3043,2.8892,11.1822,35.4109,0.2285,0.0524,0.0338,191.3438
13:29:33:566,-2.3175,2.5145,12.3542,35.1232,0.1435,0.1283,0.0545,191.3281
13:29:33:586,-2.1259,2.0488,12.8714,35.8003,0.1031,0.2739,0.0923,191.2812
13:29:33:610,-2.1607,1.9686,12.456,34.8441,-0.021,0.2574,0.1216,191.25
13:29:33:627,-2.0721,2.1805,12.8438,35.2296,-0.1997,-0.1109,0.0505,191.1875
13:29:33:690,-2.5473,1.6095,15.4786,35.064,-0.142,-0.2313,-0.0139,190.875
13:29:33:690,-3.5672,0.2747,17.0624,34.4673,0.1899,0.2502,0.1872,190.8281
13:29:33:691,-3.5852,-0.6542,14.9675,34.5372,0.5127,0.7661,0.6077,190.8438
13:29:33:707,-2.6359,-0.1287,11.0266,36.0841,0.5934,0.585,0.9089,190.7969
13:29:33:729,-1.3466,0.3753,8.7426,36.2392,0.5076,-0.101,0.9214,190.3125
13:29:33:745,-0.9312,0.5848,8.952,33.7051,0.3731,-0.4827,0.8439,189.4062
13:29:33:764,-0.5601,0.5692,8.3367,35.7974,0.3068,-0.4398,0.8351,188.3125
13:29:33:787,-0.1004,0.6554,7.4892,35.271,0.2977,-0.3053,0.8724,187.375
13:29:33:808,0.3126,0.9379,6.5662,36.0703,0.3095,-0.1397,0.939,186.5156
13:29:33:829,0.6825,1.2588,5.4505,34.5311,0.3414,0.0273,0.9832,185.6406
13:29:33:843,0.5879,1.5497,4.7383,34.2192,0.3396,0.0952,0.9163,184.6562
13:29:33:865,0.3616,1.6131,4.658,33.9069,0.2868,0.059,0.8018,183.5625
13:29:33:884,0.0947,1.673,5.004,34.2962,0.2112,0.0372,0.698,182.5
13:29:33:909,-0.049,1.7304,5.3823,32.9412,0.1574,0.0793,0.6276,181.5156
13:29:33:926,-0.4308,1.9232,5.7917,35.2197,0.146,0.0774,0.5813,180.6562
13:29:33:944,-0.6332,2.3601,6.48,35.0673,0.1374,-0.0619,0.5765,179.9062
13:29:33:965,-0.4261,2.815,7.3994,35.2878,0.138,-0.3074,0.592,178.9062
13:29:33:984,-0.0801,3.1789,8.1512,33.8038,0.143,-0.4835,0.5259,178.2656
13:29:34:010,0.1545,3.3597,9.0717,33.2341,0.0748,-0.5042,0.3683,177.6562
13:29:34:029,0.2659,3.1873,10.0426,33.9215,-0.0533,-0.4078,0.1347,177.1406
13:29:34:045,0.03,2.6402,11.0362,34.2077,-0.1893,-0.3032,-0.1172,176.8125
13:29:34:064,-0.0861,2.0548,12.4356,35.2441,-0.3273,-0.2289,-0.273,176.7188
13:29:34:085,0.4382,1.5628,13.0928,34.4067,-0.3939,-0.1354,-0.3087,176.7812
13:29:34:110,1.4881,1.4671,12.4572,34.3426,-0.3526,-0.0976,-0.2568,177.0625
13:29:34:128,2.1226,1.8908,12.4763,35.5857,-0.376,-0.3058,-0.2597,177.4531
13:29:34:145,2.1286,1.5556,14.1618,34.1282,-0.4786,-0.7799,-0.4424,177.8125
13:29:34:165,1.2726,0.3382,15.9563,35.0256,-0.5436,-0.9511,-0.7053,178.0938
13:29:34:185,0.6873,-0.6327,14.8633,34.7352,-0.4424,-0.4411,-0.7418,178.5469
13:29:34:209,1.1541,-0.4627,11.3044,34.5015,-0.2029,0.2169,-0.4832,179.375
13:29:34:226,2.3273,0.2939,8.4768,34.6046,-0.0325,0.2582,-0.1671,180.3281
13:29:34:244,3.1461,0.9379,7.5419,34.6046,0.0043,-0.3983,-0.0882,181.2812
13:29:34:265,2.8444,1.2145,7.8675,35.1437,-0.0999,-1.0204,-0.2983,181.4375
13:29:34:285,2.2435,1.1678,8.7425,34.0835,-0.3324,-1.0374,-0.5862,181.5938
13:29:34:309,1.5132,1.0505,8.7401,35.7991,-0.4831,-0.5399,-0.8544,182.0625
13:29:34:330,0.4909,1.0026,7.9237,37.0648,-0.5025,0.0729,-1.068,182.8906
13:29:34:346,-0.3758,0.9092,6.838,34.6183,-0.4437,0.4926,-1.1295,183.9062
13:29:34:371,-0.9181,1.1462,5.8647,35.7064,-0.3143,0.6154,-1.0334,185.1562
13:29:34:384,-1.0964,1.6502,5.2554,36.2374,-0.1808,0.5272,-0.8539,186.4062
13:29:34:405,-0.9133,2.323,5.3368,33.5041,-0.074,0.3016,-0.6741,187.5312
13:29:34:426,-0.5003,2.7671,6.0826,35.5261,-0.0029,0.0401,-0.566,188.4062
13:29:34:446,-0.596,3.0281,7.2043,35.7421,0.0663,-0.1325,-0.6406,189.1562
13:29:34:465,-1.0557,3.0688,8.3487,37.9718,0.1023,0.0457,-0.6773,189.1562
13:29:34:486,-1.6998,2.9383,8.8311,37.1501,0.1153,0.2534,-0.6424,190.4375
13:29:34:510,-2.1607,3.0736,9.0981,35.8932,0.0514,0.4191,-0.5655,191.1875
13:29:34:528,-2.3163,3.131,9.5386,35.4258,-0.0296,0.4321,-0.5173,191.9531
13:29:34:545,-2.4875,2.9742,10.4041,36.377,-0.0847,0.3544,-0.4438,192.625
13:29:34:564,-2.8131,2.5277,11.5629,36.9183,-0.1103,0.246,-0.3197,193.2188
13:29:34:585,-2.9915,1.9483,12.6247,38.6669,-0.1388,0.2433,-0.0869,193.7656
13:29:34:609,-2.7472,1.5018,13.2796,38.5391,-0.1678,0.3171,0.2002,194.2344
13:29:34:628,-2.2552,1.5425,13.4136,37.3915,-0.1893,0.2806,0.4676,194.5469
13:29:34:644,-1.4232,1.752,13.6866,37.7739,-0.1864,0.0606,0.5856,194.6094
13:29:34:669,-1.106,1.6741,14.8717,38.6014,-0.0482,0.0148,0.6301,194.3438
13:29:34:683,-1.0809,1.1845,14.9387,38.9503,0.2128,0.3605,0.7368,193.8125
13:29:34:704,-0.6918,1.0864,12.9109,38.3523,0.4131,0.6684,0.846,193.125
13:29:34:728,0.0504,1.3557,9.9935,38.6434,0.4176,0.6244,0.8175,192.4062
13:29:34:745,0.285,1.7532,7.8399,39.7791,0.1848,0.1967,0.6718,191.5312
13:29:34:771,0.2958,1.8813,8.0087,38.363,-0.0754,-0.2001,0.4662,190.5469
13:29:34:783,0.1964,1.4695,9.468,40.0195,-0.2056,-0.1865,0.2764,189.5469
13:29:34:804,-0.432,1.0505,10.1683,38.7351,-0.2487,0.1671,0.2111,188.2656
13:29:34:828,-1.2449,0.8446,10.0402,37.5725,-0.1912,0.512,0.2822,188.1094
13:29:34:850,-1.8722,0.75,9.3722,38.913,-0.0192,0.7182,0.4782,187.8438
13:29:34:870,-1.8949,0.7991,8.0578,39.2608,0.1971,0.6585,0.7262,187.5312
13:29:34:883,-1.5501,1.0493,6.7075,38.241,0.3656,0.4018,0.9392,187.0625
13:29:34:904,-1.0952,1.3581,6.0574,38.632,0.4847,0.0883,1.086,186.2969
13:29:34:925,-0.2932,1.6442,6.0024,37.1374,0.5513,-0.0973,1.1312,185.2812
13:29:34:944,0.4406,2.135,6.0539,39.3217,0.5316,-0.15,1.0615,184.1562
13:29:34:966,1.0404,2.7444,6.3747,40.6937,0.4685,-0.2062,0.8601,182.8906
13:29:34:984,1.0919,3.1298,7.3264,38.9581,0.4163,-0.1942,0.5755,181.6562
13:29:35:011,0.7483,3.0867,8.1392,39.7548,0.384,0.0452,0.3137,180.625
13:29:35:024,0.2742,3.155,8.0758,39.7043,0.2775,0.2295,0.0998,179.8438
13:29:35:045,-0.1088,2.9347,8.2817,38.9421,0.1249,0.1759,-0.064,179.375
13:29:35:064,-0.3734,2.4092,9.4165,38.231,0.0037,0.0143,-0.1402,179.125
13:29:35:084,-0.1675,1.7436,10.8387,38.9808,-0.0437,-0.161,-0.1577,179.0781
13:29:35:108,0.0911,1.2647,12.2022,38.8649,-0.0091,-0.2339,-0.1172,179.125
13:29:35:127,0.8584,1.0433,12.6523,39.478,0.0818,-0.1002,-0.0946,179.2812
13:29:35:145,2.3764,1.8334,9.5769,39.8757,0.0008,-0.0422,-0.2573,179.5781
13:29:35:168,1.8101,1.7041,10.6316,39.7986,-0.3465,-0.2518,-0.6555,179.7031
13:29:35:183,0.3197,0.3274,13.4807,39.4523,-0.7553,-0.3924,-1.1245,179.8906
13:29:35:204,-1.3849,-0.8434,14.7544,40.1095,-0.8924,-0.0299,-1.33,180.3594
13:29:35:228,-1.6543,-0.9966,12.6726,38.3069,-0.678,0.5554,-1.1024,181.4375
13:29:35:246,-0.8774,-0.3789,9.7409,39.794,-0.3995,0.6929,-0.6952,182.9219
13:29:35:263,-0.0945,0.489,8.8814,38.5157,-0.2871,0.1243,-0.4019,184.3125
13:29:35:284,0.4885,0.8793,9.547,40.0884,-0.2439,-0.5999,-0.3306,185.1875
13:29:35:304,0.534,1.1199,9.1687,39.9466,-0.1846,-0.7184,-0.3918,185.7031
13:29:35:329,0.4754,1.4347,7.986,37.5682,-0.1611,-0.4126,-0.505,186.125
13:29:35:347,0.145,1.6849,6.6656,38.0645,-0.1779,-0.0499,-0.6438,186.5781
13:29:35:363,-0.1914,1.7999,6.0108,38.2523,-0.2147,0.1578,-0.7471,187.1562
13:29:35:383,-0.3818,1.9686,5.7654,37.2237,-0.1926,0.2031,-0.7599,187.8281
13:29:35:403,-0.2166,2.3781,5.3679,37.0189,-0.0599,0.1371,-0.697,189
13:29:35:429,-0.1076,2.8641,4.9908,37.989,0.081,-0.0009,-0.6683,189.8438
13:29:35:446,-0.5422,3.0939,5.2733,38.7885,0.119,-0.1498,-0.7489,190.625
13:29:35:463,-1.4448,3.0903,6.7386,38.4758,0.0269,-0.2768,-0.8653,191.3906
13:29:35:484,-2.3857,2.876,8.9604,37.5178,-0.0807,-0.3064,-0.8957,192.2344
13:29:35:504,-2.9807,2.6618,10.2952,37.4682,-0.017,-0.1825,-0.7982,193.25
13:29:35:526,-2.9902,2.8222,10.4724,38.1113,0.155,-0.0137,-0.5822,194.2969
13:29:35:544,-2.6012,3.0269,10.2138,35.6226,0.2977,0.067,-0.3846,195.1875
13:29:35:564,-2.369,3.0628,10.9165,37.4164,0.3007,-0.0145,-0.2957,195.8594
13:29:35:585,-2.1858,2.6199,12.2548,36.7329,0.2269,-0.1037,-0.2848,196.1094
13:29:35:613,-2.0804,2.1865,12.9815,36.9473,0.1782,-0.0241,-0.2789,196.4844
13:29:35:634,-1.6926,2.1219,12.1387,37.4879,0.1454,0.3205,-0.2299,196.8125
13:29:35:649,-1.9308,2.6905,10.8303,37.0278,0.0471,0.6409,-0.2328,197.1562
13:29:35:663,-2.4025,2.6342,10.968,36.8804,-0.1667,0.626,-0.3196,197.4375
13:29:35:685,-3.5625,1.7005,12.5242,36.1989,-0.3406,0.336,-0.4142,197.625
13:29:35:711,-4.7608,0.4531,14.3953,34.7789,-0.3646,0.0412,-0.3394,198.0156
13:29:35:777,-4.6841,-0.2556,14.5928,35.463,-0.1502,0.0284,0.0322,198.4375
13:29:35:777,-3.3219,-0.1538,12.4081,34.7216,0.2125,0.1299,0.5078,198.7656
13:29:35:778,-2.1379,0.3621,10.2641,33.9914,0.3934,0.0769,0.7901,198.7188
13:29:35:792,-1.5801,0.5956,9.6224,32.9677,0.2956,-0.0872,0.8024,198.1406
13:29:35:813,-1.7908,0.3286,9.6895,35.4233,0.1127,-0.1096,0.67,197.2969
13:29:35:825,-2.278,0.0066,9.7756,35.1688,-0.0301,0.0742,0.5936,196.4062
13:29:35:850,-2.3785,-0.1263,9.2908,35.8067,0.1111,0.4558,0.8852,195.6562
13:29:35:866,-2.1487,-0.0138,8.5474,32.198,0.3449,0.3986,1.0958,194.9688
13:29:35:888,-1.4651,0.2688,7.6891,34.8709,0.5316,0.3839,1.1898,194.1875
13:29:35:910,-1.0246,0.4962,6.5758,32.4039,0.5177,0.5906,1.172,193.125
13:29:35:927,-0.8031,0.568,5.4589,32.5239,0.3167,0.7842,1.1406,191.8438
13:29:35:944,-0.5075,0.9751,5.0315,32.2802,0.1119,0.7682,1.0575,190.5312
13:29:35:965,-0.4727,1.424,5.4014,32.7746,-0.0163,0.5925,0.9251,187.75
13:29:35:990,-0.5757,1.6945,6.5327,31.5548,-0.0075,0.5142,0.8159,187.0625
13:29:36:013,-0.4644,1.9579,7.3779,31.9196,0.1143,0.4438,0.7115,186.5
13:29:36:024,-0.6044,2.1985,7.6316,31.7652,0.2727,0.3469,0.6173,184.8125
13:29:36:046,-0.4608,2.4642,7.4688,32.4568,0.3449,0.107,0.4873,184.3281
13:29:36:063,-0.1304,2.6378,8.1775,31.7521,0.3372,-0.2363,0.2939,182.75
13:29:36:090,-0.3578,2.6019,9.3088,29.9494,0.2224,-0.3562,0.0937,182.75
13:29:36:111,-0.5589,2.2081,10.4376,30.8269,-0.0037,-0.2126,-0.024,182.2188
13:29:36:130,-0.4656,2.0943,11.8418,29.3493,-0.1297,0.0625,-0.0459,181.9531
13:29:36:142,0.2563,2.25,12.28,29.7357,-0.0517,0.2726,-0.1306,181.9219
13:29:36:165,0.6035,2.8569,10.8004,29.4426,-0.0546,0.1541,-0.3575,181.9844
13:29:36:186,0.315,3.0341,10.2317,30.2524,-0.1667,-0.1242,-0.6635,182.0156
13:29:36:211,-0.2752,2.3661,10.8734,28.7506,-0.2804,-0.2156,-0.8906,182.1094
13:29:36:228,-1.1467,1.5149,11.7353,28.636,-0.2887,-0.2012,-0.9348,182.4844
13:29:36:245,-1.7536,0.9056,11.7161,29.221,-0.2288,-0.3567,-0.8177,183.25
13:29:36:263,-1.8171,0.5728,11.5677,28.7462,-0.221,-0.631,-0.685,184.7656
13:29:36:284,-1.7788,0.3837,11.9807,28.5734,-0.1819,-0.6901,-0.5468,185.7969
13:29:36:307,-1.5011,0.416,11.6012,29.2196,-0.0802,-0.4579,-0.4097,186.7188
13:29:36:327,-0.9085,0.9236,9.535,29.2196,-0.0437,-0.2243,-0.3665,187.5
13:29:36:344,-0.5362,1.3916,7.4293,29.0218,-0.1095,-0.1242,-0.4176,188.0781
13:29:36:364,-0.3578,1.5772,6,29.4,-0.2226,-0.0917,-0.4999,188.5469
13:29:36:384,-0.6356,1.734,5.5487,29.278,-0.297,-0.0925,-0.5668,189.0156
13:29:36:404,-1.2221,1.728,5.8683,27.3722,-0.2328,-0.0206,-0.5484,189.5156
13:29:36:427,-1.5394,1.8142,5.4493,28.2775,-0.1345,0.013,-0.4544,190.125
13:29:36:444,-1.6734,2.226,4.84,28.32,-0.0938,-0.1008,-0.371,190.7656
13:29:36:463,-1.5322,2.6953,4.8388,27.1089,-0.1196,-0.2885,-0.3671,191.3281
13:29:36:484,-1.75,3.0915,5.7869,27.0183,-0.1859,-0.4084,-0.403,191.7656
13:29:36:504,-1.9631,3.3106,7.5167,27.624,-0.1936,-0.3351,-0.4254,192.1875
13:29:36:529,-2.2876,3.3716,9.0909,27.852,-0.1284,-0.1221,-0.4387,192.6719
13:29:36:547,-2.7999,3.0795,10.2664,25.169,-0.0085,0.1296,-0.4057,192.8906
13:29:36:565,-2.8909,3.1669,10.0163,25.6738,0.089,0.2643,-0.329,193.6562
13:29:36:583,-2.7365,2.8952,10.9452,27.0371,0.0541,0.1474,-0.268,194.1562
13:29:36:603,-2.5485,2.6306,12.1974,26.7482,-0.0168,0.0177,-0.2576,194.5312
13:29:36:627,-2.2995,2.3637,12.6858,27.7707,-0.09,0.1147,-0.2765,194.8438
13:29:36:643,-2.9124,2.4415,12.4416,27.517,-0.1798,0.2721,-0.3487,195.1406
13:29:36:662,-4.1048,1.9399,14.333,25.991,-0.3585,0.009,-0.4435,195.4219
13:29:36:683,-5.6789,0.4435,17.8836,25.8061,-0.4671,-0.3602,-0.4406,195.7344
13:29:36:703,-5.7376,-0.9559,18.3696,25.7465,-0.1883,-0.1887,-0.1199,196.1406
13:29:36:730,-4.4663,-0.556,13.7057,26.3541,0.404,0.4367,0.4772,196.6562
13:29:36:743,-2.4288,0.4531,9.5111,27.0117,0.7414,0.54,0.9656,197.0156
13:29:36:763,-1.4316,0.9822,7.7789,25.6269,0.6906,0.054,1.0354,196.8281
13:29:36:783,-1.2102,0.7668,8.3068,26.4559,0.3771,-0.3229,0.8561,195.9375
13:29:36:807,-1.4807,0.4842,8.9832,28.4001,0.0541,-0.2081,0.6977,194.8125
13:29:36:827,-1.4819,0.4519,8.1105,27.1514,-0.0312,0.1594,0.6577,193.7969
13:29:36:845,-1.3071,0.6411,6.753,25.5208,0.033,0.348,0.7179,192.6094
13:29:36:863,-1.1575,0.9355,6.1472,27.2125,0.1052,0.2449,0.7984,191.875
13:29:36:883,-1.0964,0.9691,6.3974,25.0732,0.1691,-0.0377,0.8396,191
13:29:36:903,-0.9899,0.8206,6.5459,26.8022,0.2639,-0.1711,0.8665,190.0625
13:29:36:928,-0.614,0.9595,6.2095,27.6009,0.355,-0.0614,0.9336,189.125
13:29:36:946,0.0911,1.4599,5.6241,26.3016,0.4144,0.0806,0.9965,188.2188
13:29:36:964,0.6106,2.0728,5.3715,26.4463,0.453,0.0247,0.96,187.1875
13:29:36:983,1.0727,2.4846,5.6636,27.9278,0.4543,-0.1764,0.8013,186.0625
13:29:37:005,1.1206,2.7467,6.4621,27.7838,0.3686,-0.3173,0.5453,185.5625
13:29:37:025,0.6801,2.7994,7.6687,29.1654,0.2229,-0.2973,0.2324,184.5781
13:29:37:046,-0.2585,2.6318,8.903,29.1608,0.0778,-0.1761,-0.081,183.8594
13:29:37:063,-1.0126,2.1315,9.4034,29.3077,0.0293,-0.0433,-0.3242,183.4844
13:29:37:083,-1.5058,1.8034,9.8918,28.4044,-0.0101,-0.043,-0.444,183.4531
13:29:37:103,-1.5944,1.6071,10.9943,27.9839,-0.098,-0.1341,-0.4632,183.7188
13:29:37:127,-1.3802,1.5006,12.2704,26.6354,-0.1803,-0.1929,-0.435,184.4531
13:29:37:145,-0.5948,1.4874,11.9053,30.0872,-0.1755,-0.06,-0.3625,184.9688
13:29:37:163,0.2539,2.0297,10.8111,29.0213,-0.172,0.0383,-0.2965,185.5
13:29:37:183,0.6525,2.4606,11.0793,29.0643,-0.3127,-0.1466,-0.3793,185.9062
13:29:37:203,0.2958,1.7328,13.1575,30.5789,-0.5087,-0.5029,-0.6667,186.2188
13:29:37:227,-0.9372,0.5968,14.6886,29.2689,-0.6266,-0.4995,-0.9386,186.6562
13:29:37:243,-1.847,-0.1048,14.6706,28.9782,-0.4477,0.2961,-0.7101,187.4844
13:29:37:263,-1.4975,-0.0269,12.7205,30.7806,-0.274,0.3139,-0.4528,187.4844
13:29:37:284,-0.7804,0.2711,10.6651,32.3761,-0.1585,-0.0108,-0.2856,188.5469
13:29:37:306,-0.286,0.6985,9.5422,30.8935,-0.0751,-0.2992,-0.2067,189.625
13:29:37:327,0.2695,1.1774,8.7856,30.7598,-0.0221,-0.2624,-0.2384,190.8438
13:29:37:343,0.5735,1.6227,7.6376,31.1643,-0.0272,-0.0853,-0.3841,191.1562
13:29:37:363,0.5388,1.7771,6.4932,31.1235,-0.0943,0.0774,-0.5705,191.7188
13:29:37:383,0.0588,1.7388,5.9054,31.6054,-0.142,0.1799,-0.6978,192.1406
13:29:37:405,-0.5733,1.6454,5.8731,32.3165,-0.0903,0.2159,-0.733,192.4531
13:29:37:426,-1.1192,1.6299,5.6456,32.7532,0.0146,0.202,-0.6861,193.1562
13:29:37:444,-1.4783,1.837,5.1536,31.8485,0.057,0.095,-0.6099,193.9688
13:29:37:462,-1.7644,2.3158,5.2135,31.5399,0.0091,-0.071,-0.586,194.3125
13:29:37:482,-2.527,2.5301,6.3244,32.9457,-0.0282,-0.1176,-0.5423,195.0781
13:29:37:502,-3.0848,2.5875,7.4987,32.7654,0.0029,-0.0454,-0.4129,195.7812
13:29:37:530,-2.9472,2.7875,8.3164,33.2144,0.0791,0.0438,-0.3039,196.4531
13:29:37:547,-2.8765,3.2352,8.733,33.2453,0.1246,0.0801,-0.2824,197.0469
13:29:37:562,-2.9495,3.5548,9.2405,33.7182,0.1465,0.1272,-0.317,197.5312
13:29:37:583,-3.4655,3.6111,9.5937,35.0206,0.1023,0.1046,-0.3351,197.875
13:29:37:604,-4.2831,3.4937,10.8147,34.8122,0.0642,0.063,-0.2557,198.1875
13:29:37:626,-4.5788,3.1346,12.3686,34.3235,0.1095,0.1198,-0.1218,198.5469
13:29:37:643,-4.4244,2.9634,13.0306,33.1386,0.143,0.2654,0.0101,198.9219
13:29:37:663,-3.5026,2.9634,12.7457,34.5448,0.0381,0.3054,0.0109,199.2188
13:29:37:684,-3.2596,3.0472,13.1347,36.0296,-0.1696,0.1858,-0.0864,199.3281
13:29:37:703,-3.5409,2.3086,14.8645,34.7315,-0.2298,0.1181,-0.1026,199.2656
13:29:37:726,-4.0138,0.9631,16.811,38.2446,0.028,0.3008,0.1203,199.2656
13:29:37:746,-3.7887,-0.0521,16.0604,37.6123,0.4101,0.6084,0.524,199.375
13:29:37:763,-3.0513,-0.0485,12.4931,37.306,0.5739,0.5608,0.8777,199.3594
13:29:37:829,-2.0374,0.3214,9.6057,38.2558,0.5012,0.0963,1.0306,198.9688
13:29:37:830,-1.2437,0.3597,8.8263,38.6673,0.3558,-0.3381,1.0367,198.1562
13:29:37:830,-0.9935,0.1921,9.3291,37.4208,0.2812,-0.4188,1.017,197.0469
13:29:37:848,-0.9827,0.2568,8.9664,38.3627,0.228,-0.2201,1.0056,195.9062
13:29:37:868,-0.8331,0.4723,7.6783,40.1218,0.1174,0.0303,0.9781,194.875
13:29:37:883,-0.7888,0.598,6.4465,39.6559,0.0469,0.1517,0.9501,193.7969
13:29:37:903,-1.015,0.823,5.5571,39.6549,0.0908,0.1136,0.9866,192.6875
13:29:37:926,-0.9396,0.9667,4.7251,38.6021,0.179,-0.0302,1.0511,191.5781
13:29:37:945,-0.6595,1.5856,3.8991,38.6645,0.2168,-0.2052,1.1315,190.5
13:29:37:964,-0.2405,2.0069,4.0188,40.4353,0.1712,-0.3168,1.1853,189.3438
13:29:37:984,0.3102,2.718,4.7454,41.1218,0.0389,-0.3596,1.1624,188.125
13:29:38:004,0.461,3.1466,5.9988,42.0724,-0.09,-0.4337,0.9685,186.9219
13:29:38:026,-0.1507,3.0281,7.828,41.042,-0.1896,-0.5066,0.6242,185.625
13:29:38:046,-0.9348,2.8138,9.3878,42.1589,-0.2096,-0.3612,0.331,184.4375
13:29:38:063,-1.3299,2.6498,9.7074,41.2713,-0.1079,-0.0531,0.1587,183.6406
13:29:38:082,-1.3598,2.5516,9.3938,41.845,0.0224,0.1538,0.0636,183.1875
13:29:38:102,-1.3359,2.4511,10.3922,40.6124,0.0338,0.0313,-0.0115,182.9531
13:29:38:122,-1.0821,2.0081,11.8323,42.9415,0.0373,-0.2329,-0.105,182.8125
13:29:38:146,-0.5123,1.5341,12.1854,41.9293,0.0551,-0.263,-0.2017,182.7656
13:29:38:161,0.3401,1.3066,11.679,43.4709,-0.0495,-0.0179,-0.26,182.8438
13:29:38:186,1.1374,1.6538,11.2732,43.2602,-0.2839,0.1714,-0.3367,183.0781
13:29:38:201,1.5228,1.7627,12.1028,43.4331,-0.5713,0.0899,-0.5343,183.3594
13:29:38:222,0.4035,0.841,13.9942,44.2151,-0.8149,-0.1951,-0.9034,183.6719
13:29:38:247,-1.6196,-0.7416,15.6498,43.9179,-0.943,-0.2459,-1.1591,184.0938
13:29:38:265,-2.8789,-1.4599,14.9699,45.1215,-0.865,0.1807,-0.986,184.8594
13:29:38:284,-2.3115,-1.1869,12.432,45.6565,-0.5997,0.5975,-0.3995,186.7656
13:29:38:303,-0.638,-0.1634,10.7453,46.0099,-0.2916,0.3413,0.2487,187.8438
13:29:38:327,1.2619,1.1762,10.0222,45.2899,0.004,-0.3141,0.6561,188.1875
13:29:38:345,2.6086,2.0872,8.9772,45.2014,0.2503,-0.6845,0.6942,187.8594
13:29:38:362,3.0372,2.5947,7.4509,45.6189,0.3489,-0.639,0.3941,187.1406
13:29:38:383,2.6828,2.6246,5.8695,44.9385,0.2392,-0.26,-0.0893,186.4375
13:29:38:403,1.5731,2.4008,5.0387,45.268,-0.0429,0.206,-0.5764,186.0938
13:29:38:429,0.2455,1.9004,5.5068,45.268,-0.3159,0.4817,-0.9114,186.2344
13:29:38:447,-0.8283,1.5401,5.9796,46.5458,-0.3382,0.499,-0.999,186.875
13:29:38:468,-1.349,1.5568,5.7139,45.8575,-0.1252,0.3501,-0.8752,187.3281
13:29:38:482,-1.2066,2.0369,5.4577,45.856,0.0905,0.1131,-0.6667,188.3281
13:29:38:502,-0.8115,2.5337,5.9042,48.1055,0.1598,-0.093,-0.5282,189.3594
13:29:38:528,-0.8115,2.9946,6.5878,46.3755,0.1132,-0.149,-0.53,190.2188
13:29:38:545,-0.9863,3.289,7.6795,46.8294,0.025,-0.1032,-0.6046,190.8594
13:29:38:562,-1.2497,3.2747,9.2142,46.8675,-0.0482,-0.0228,-0.6944,191.4688
13:29:38:582,-1.8901,3.1621,10.4352,49.4129,-0.0093,0.1256,-0.7497,192.5
13:29:38:602,-2.5258,2.906,10.2461,48.24,0.1542,0.3019,-0.7167,193.25
13:29:38:626,-2.916,2.8006,10.1875,48.4457,0.2402,0.3472,-0.5862,194.0938
13:29:38:645,-2.758,2.6989,10.8147,48.1499,0.1441,0.2553,-0.2283,194.8906
13:29:38:663,-2.5306,2.6689,11.3211,50.8677,0.0954,0.165,-0.1186,194.8906
13:29:38:682,-2.3103,2.4511,12.1663,49.4843,0.0703,0.1203,-0.0406,195.5156
13:29:38:703,-2.1894,2.4559,12.4224,50.0867,0.004,0.1741,-0.0179,195.9375
13:29:38:729,-2.3654,2.6665,12.1627,50.801,-0.175,0.0334,-0.0595,196.1719
13:29:38:744,-2.7879,2.6306,13.4639,51.9823,-0.3169,-0.3138,-0.1396,196.3281
13:29:38:761,-3.7372,1.7364,16.0197,50.7184,-0.2016,-0.2747,-0.0909,196.3281
13:29:38:781,-4.3047,0.337,16.9463,50.442,0.1747,0.2827,0.2103,196.375
13:29:38:801,-4.0222,-0.2436,13.7009,50.9989,0.4402,0.6811,0.633,196.5312
13:29:38:823,-3.3542,0.3765,9.8642,52.783,0.4541,0.3925,0.9105,196.6562
13:29:38:843,-2.4839,0.8039,7.9261,52.0562,0.3409,-0.1729,0.9528,196.0625
13:29:38:862,-2.0709,0.8924,7.8663,52.7847,0.1864,-0.4105,0.9549,195.1562
13:29:38:882,-1.5178,0.8206,8.2936,52.09,0.0887,-0.2571,0.9376,194.0781
13:29:38:902,-0.9169,1.0804,7.9632,53.6406,-0.0549,0.1187,0.8247,193.0625
13:29:38:926,-0.5565,1.503,7.3611,52.019,-0.2717,0.6468,0.6348,192.0781
13:29:38:945,-0.626,1.552,6.6488,53.9275,-0.4272,1.0771,0.4601,191.5625
13:29:38:962,-0.9384,1.3988,5.9377,52.5724,-0.445,1.1203,0.4156,190.6094
13:29:38:982,-1.1683,1.2121,5.7941,54.4014,-0.2847,0.8303,0.5038,189.7656
13:29:39:002,-1.3454,1.1127,5.9952,54.1123,0.0373,0.3472,0.6993,189.0938
13:29:39:027,-0.9803,1.327,6.0694,55.4484,0.4011,-0.1436,0.845,188.4375
13:29:39:043,-0.2956,1.6131,5.915,53.0904,0.6112,-0.4238,0.8354,187.7188
13:29:39:061,0.0959,1.9279,5.751,53.9207,0.5851,-0.3892,0.7025,186.9219
13:29:39:082,0.1438,2.1578,5.8049,55.2536,0.3635,-0.28,0.4868,186
13:29:39:102,-0.219,2.3014,6.7434,53.9049,0.1196,-0.1365,0.2607,185.1719
13:29:39:125,-0.6798,2.2308,7.9237,56.0941,-0.0288,-0.0616,0.0881,184.2344
13:29:39:146,-0.9983,2.1219,8.97,56.2241,-0.13,-0.2363,-0.073,183.8594
13:29:39:165,-1.1156,1.8848,10.5035,56.4499,-0.1856,-0.46,-0.2376,183.6875
13:29:39:182,-1.015,1.2695,11.9364,57.4143,-0.2317,-0.4784,-0.3612,183.6875
13:29:39:202,-1.1575,0.8314,12.693,56.6773,-0.2426,-0.2448,-0.3378,183.9062
13:29:39:225,-0.4512,0.8074,11.7185,56.4899,-0.3404,-0.093,-0.3023,184.3281
13:29:39:245,0.2312,1.3916,10.8542,56.6705,-0.5092,-0.284,-0.4225,184.7969
13:29:39:263,0.5077,1.5149,11.4372,58.7304,-0.5934,-0.6052,-0.6829,185.125
13:29:39:282,-0.3842,0.896,13.0796,57.7669,-0.5228,-0.5905,-0.8195,185.5156
13:29:39:304,-1.5202,0.258,13.6171,58.5129,-0.3254,-0.1847,-0.6552,186.1562
13:29:39:329,-1.428,0.5309,11.7592,57.2372,-0.2357,0.0934,-0.4137,187.0625
13:29:39:346,1.0033,1.8465,9.8223,58.8288,-0.3412,-0.2142,-0.4147,187.9844
13:29:39:363,1.1661,1.4814,11.6766,59.0728,-0.53,-0.713,-0.717,188.5625
13:29:39:382,0.1007,1.1151,12.8821,57.5964,-0.6344,-0.7367,-1.0597,188.9688
13:29:39:405,-1.0055,0.8422,12.3542,58.812,-0.6037,-0.1945,-1.2611,189.5938
13:29:39:429,-1.859,0.6925,10.5921,59.3938,-0.4112,0.4377,-1.2778,190.6875
13:29:39:450,-2.1224,0.7464,8.1907,58.6782,-0.1095,0.8018,-1.1159,192.0625
