Time,Acc_X,Acc_Y,Acc_Z,Meg,Gyr_X,Gyr_Y,Gyr_Z,Ore
20:19:03:826,0.6621,1.746,4.7335,55.8107,-0.1497,-0.1591,0.299,50.2656
20:19:03:842,-0.286,1.0624,7.6101,57.307,-0.3646,-0.5303,0.152,50.2656
20:19:03:861,-0.7481,0.9008,8.9293,58.0441,-0.3995,-0.6912,0.1382,50.2656
20:19:03:879,-0.8259,1.2827,9.3818,57.5201,-0.3696,-0.5373,0.1698,237.3438
20:19:03:898,-0.6188,1.837,9.4919,58.0365,-0.3001,-0.3367,0.1669,237.4375
20:19:03:927,-0.5302,2.2488,9.3124,56.8829,-0.2897,-0.1176,0.0417,237.4688
20:19:03:942,-1.3179,2.0955,9.28,57.7237,-0.3137,0.1235,-0.1228,237.4062
20:19:03:959,-2.3642,1.6801,9.3411,58.6822,-0.2618,0.2393,-0.1583,237.375
20:19:03:977,-2.7867,1.5233,9.2573,55.7313,-0.1707,0.2723,-0.0552,237.4688
20:19:03:997,-2.9807,1.3438,9.6942,56.0306,-0.1033,0.296,0.0844,237.6562
20:19:04:029,-3.1351,1.1103,9.5769,56.9167,0.0495,0.2119,0.2527,237.75
20:19:04:044,-3.0561,0.9954,9.3267,56.5957,0.1483,0.0484,0.4663,237.6875
20:19:04:061,-2.7424,0.8314,9.2142,56.2351,0.1779,-0.0984,0.6663,237.4375
20:19:04:076,-2.3965,0.7069,9.3938,57.313,0.1542,-0.1767,0.8559,237.0156
20:19:04:099,-1.9488,0.7787,9.2956,57.2718,0.1228,-0.0638,1.03,236.3438
20:19:04:131,-1.3562,0.999,8.6169,56.4861,0.0146,0.0084,1.1342,235.4844
20:19:04:138,-0.7122,1.1893,8.7042,56.936,-0.188,-0.2198,1.1163,233.8438
20:19:04:156,-0.4476,1.0768,9.6954,56.2015,-0.3223,-0.5977,1.005,232.5469
20:19:04:175,-0.3734,0.6842,10.3395,54.4063,-0.3169,-0.7823,0.907,231.3594
20:19:04:194,-0.3147,0.4639,9.699,56.5987,-0.2804,-0.6028,0.8703,230.4375
20:19:04:213,0.0719,0.6159,8.0806,56.5337,-0.3547,-0.2986,0.8564,230.0156
20:19:04:240,0.0025,1.2683,7.3551,54.2415,-0.6077,-0.4773,0.7392,229.2031
20:19:04:256,0.6418,1.1546,8.3092,54.5675,-0.7673,-0.4507,0.5198,228.3594
20:19:04:273,0.2838,0.7165,9.4488,55.8581,-0.693,-0.6132,0.2966,227.625
20:19:04:293,-0.4141,0.1502,10.4999,54.3555,-0.481,-0.7034,0.2167,227.1094
20:19:04:312,-1.1647,-0.5201,11.6611,55.7354,-0.2258,-0.561,0.3086,226.9062
20:19:04:332,-0.9743,-0.422,11.5964,55.1482,0.032,-0.3154,0.5302,226.875
20:19:04:355,-0.1663,0.0748,10.8746,54.2751,0.1747,-0.0504,0.6665,226.7969
20:19:04:372,0.0588,0.6458,9.9205,53.7584,0.1585,0.1339,0.6391,226.4062
20:19:04:392,-0.1304,1.1606,9.2621,54.0386,0.0376,0.1195,0.5688,225.7031
20:19:04:413,0.06,1.5042,8.7749,54.0432,-0.1316,-0.0249,0.5201,224.9219
20:19:04:432,0.5041,1.6658,8.9377,53.908,-0.3377,-0.2347,0.4061,223.8594
20:19:04:456,0.5436,1.2001,10.2281,53.83,-0.4807,-0.4057,0.2247,223.2969
20:19:04:472,0.3305,0.4723,11.2002,53.0001,-0.4187,-0.2731,0.1555,222.9688
20:19:04:491,-0.049,0.0413,11.3367,52.8488,-0.1808,-0.0078,0.2194,222.8906
20:19:04:509,-0.3004,-0.1059,10.8973,54.7401,0.1526,0.2031,0.3776,222.8594
20:19:04:529,-0.3985,-0.0233,9.9013,54.1341,0.4658,0.3741,0.5328,222.6719
20:19:04:557,-0.523,0.2855,8.7378,54.0677,0.6392,0.3267,0.6218,222.1719
20:19:04:569,-0.1747,0.5812,8.0363,55.7613,0.6317,0.0995,0.6202,221.4062
20:19:04:591,0.2156,0.7644,8.1919,54.5148,0.4812,-0.1551,0.4878,220.4844
20:19:04:609,0.4203,0.7691,8.879,53.5721,0.2863,-0.3287,0.3041,219.6406
20:19:04:628,0.5855,0.6447,9.5566,54.4548,0.1167,-0.4276,0.1283,218.9844
20:19:04:648,0.7064,0.4998,10.3898,53.0544,0.0112,-0.4576,-0.0302,218.6094
20:19:04:669,0.5831,0.3813,11.1308,55.3191,-0.0011,-0.3461,-0.1604,218.6094
20:19:04:692,0.2431,0.3645,11.029,53.7987,0.1017,-0.0768,-0.2294,218.5938
20:19:04:708,-0.1567,0.5369,10.1156,52.9583,0.2415,0.1924,-0.2275,218.6875
20:19:04:728,-0.3842,0.8733,8.9856,52.3582,0.342,0.2574,-0.1953,218.6875
20:19:04:746,-0.4225,1.224,8.4014,52.3582,0.3723,0.1125,-0.1924,219.0469
20:19:04:768,-0.4751,1.5102,8.3571,54.4585,0.3446,-0.0392,-0.2126,219.2188
20:19:04:797,-0.3351,1.5652,8.6659,53.8124,0.2788,-0.1357,-0.2387,219.3125
20:19:04:818,0.0253,1.3904,9.3219,53.4597,0.1646,-0.2233,-0.2957,219.4062
20:19:04:828,0.4801,1.1235,9.863,53.1918,-0.0005,-0.2701,-0.3953,219.5625
20:19:04:846,0.2599,0.738,10.5406,52.4391,-0.1846,-0.2859,-0.5194,219.7812
20:19:04:866,-0.1196,0.2568,10.7728,54.8703,-0.2626,-0.0797,-0.5798,220.1094
20:19:04:891,-0.6595,0.3238,10.197,54.1091,-0.1699,0.3163,-0.4715,220.5781
20:19:04:910,-0.6128,0.7655,8.9556,53.2485,0.09,0.6505,-0.2912,221.2812
20:19:04:927,-1.5094,1.1474,7.6939,52.422,0.3483,0.6487,-0.1111,222.0156
20:19:04:947,-1.5705,1.801,6.8344,53.3964,0.4495,0.2034,0.1195,222.5312
20:19:04:968,-0.8211,1.9399,7.1863,53.4486,0.4826,-0.5335,0.307,222.7344
20:19:04:993,0.1557,2.05,8.2924,53.5148,0.4703,-0.9501,0.3797,222.6562
20:19:05:011,0.8477,2.232,9.3076,55.4127,0.379,-1.1564,0.3714,222.0156
20:19:05:026,1.8353,2.4152,10.0187,53.6552,0.2202,-1.0662,0.2857,221.8125
20:19:05:047,2.1322,2.3182,9.8846,54.6996,-0.0104,-0.7506,0.0939,221.4688
20:19:05:066,1.8197,2.2021,9.7014,55.1639,-0.2003,-0.4872,-0.0661,221.2031
20:19:05:091,1.6785,1.8681,9.6284,53.2517,-0.3004,-0.3769,-0.1599,221.1406
20:19:05:108,1.6126,1.734,9.3567,53.8983,-0.2916,-0.2369,-0.2139,221.2812
20:19:05:128,1.6342,1.8286,9.3243,54.3265,-0.2389,-0.2209,-0.2355,221.5781
20:19:05:147,1.6521,1.9698,9.4417,53.8553,-0.1478,-0.2965,-0.2592,221.9375
20:19:05:166,1.7563,2.0357,9.401,54.5792,-0.0469,-0.2904,-0.3039,222.3125
20:19:05:190,1.6976,2.4666,9.2549,54.3168,0.053,-0.3421,-0.3553,222.7188
20:19:05:207,1.6796,2.6223,9.3112,53.8688,0.1449,-0.5093,-0.3958,223.125
20:19:05:227,1.5923,2.1578,9.8571,56.3637,0.208,-0.6561,-0.4296,223.5469
20:19:05:246,1.6497,2.5875,10.6507,54.9375,0.245,-0.4861,-0.3825,224.0156
20:19:05:268,1.4977,2.7132,10.6256,54.4972,0.2687,-0.0571,-0.2914,224.2656
20:19:05:291,1.4151,2.9443,10.118,54.9775,0.2437,0.2686,-0.2137,224.7969
20:19:05:307,1.1673,2.8701,9.2765,55.0994,0.1598,0.4913,-0.1655,225.25
20:19:05:327,0.7184,3.1274,8.6731,55.4393,-0.0083,0.45,-0.1039,225.5
20:19:05:347,0.5891,2.5672,8.7521,56.0428,-0.1662,0.2425,-0.0187,225.625
20:19:05:368,0.7016,2.5061,9.5338,56.1175,-0.2546,0.0681,0.111,225.6406
20:19:05:391,0.7722,2.3362,10.1695,54.7545,-0.2509,0.12,0.1797,225.6719
20:19:05:408,0.9243,2.1769,10.5921,54.3704,-0.2061,0.3256,0.2122,225.6562
20:19:05:427,0.9458,2.1745,10.3838,55.354,-0.1206,0.5988,0.2023,225.5625
20:19:05:446,0.71,1.995,9.5398,55.0613,-0.0575,0.6716,0.1816,225.3594
20:19:05:466,0.4335,2.3302,9.128,55.6028,-0.0474,0.5264,0.1834,225.0781
20:19:05:490,0.3999,2.0788,9.0658,55.0334,-0.0394,0.3703,0.1579,224.7656
20:19:05:507,0.1509,1.9782,9.1316,56.2344,-0.0397,0.2036,0.1326,224.4531
20:19:05:526,0.1761,1.9303,9.2513,55.7166,-0.0573,0.1176,0.1648,224.1719
20:19:05:546,0.4837,2.0022,9.6009,54.7951,-0.0823,0.1152,0.1629,223.9844
20:19:05:567,0.3257,1.8848,9.8116,54.2949,-0.0855,0.2055,0.1038,223.7969
20:19:05:594,0.2012,1.898,9.5793,56.1231,-0.0972,0.3019,0.1062,223.5938
20:19:05:608,0.2886,1.8824,9.31,53.6101,-0.1569,0.3445,0.1038,223.4375
20:19:05:627,0.3748,1.9662,9.3351,55.7421,-0.2282,0.2928,0.0812,223.2344
20:19:05:651,0.0851,1.9435,9.6535,55.4425,-0.2554,0.1789,0.0447,223.0938
20:19:05:667,0.0983,1.7508,9.8618,55.6149,-0.2293,0.1094,0.086,223.0156
20:19:05:687,0.1893,1.6861,9.978,54.617,-0.1673,0.0729,0.1302,223
20:19:05:708,0.2132,1.8609,10.1288,55.6628,-0.0964,0.0454,0.1635,222.9531
20:19:05:728,0.3856,1.8908,10.1168,56.0054,-0.033,0.0436,0.1712,222.8281
20:19:05:808,0.4179,1.8944,9.8822,55.7818,0.0059,0.0532,0.1472,222.6719
20:19:05:808,0.4323,1.8777,9.7122,54.0252,-0.0035,0.0566,0.1358,222.5781
20:19:05:809,0.4837,1.8896,9.7098,54.5206,-0.0184,0.0721,0.1302,222.3906
20:19:05:815,0.4981,1.8334,9.6104,54.7895,-0.0051,0.058,0.115,222.2188
20:19:05:826,0.4466,1.7579,9.4943,55.3601,0.0131,0.0151,0.1022,222.0781
20:19:05:846,0.4538,1.7376,9.4285,56.583,0.0189,-0.0124,0.1043,221.9219
20:19:05:866,0.5077,1.7268,9.3806,54.5451,0.0104,-0.0278,0.1009,221.7969
20:19:05:891,0.5316,1.6945,9.3758,54.5315,-0.0037,-0.0307,0.0892,221.6719
20:19:05:910,0.5448,1.6969,9.3902,56.0939,-0.0232,-0.027,0.0748,221.5
20:19:05:927,0.5412,1.6933,9.4297,57.3247,-0.0429,-0.0161,0.0585,221.4062
20:19:05:948,0.5257,1.6801,9.4045,54.9777,-0.0559,0.0018,0.0383,221.3438
20:19:05:968,0.5029,1.7029,9.4357,54.6827,-0.0722,0.0079,0.0178,221.2812
20:19:05:991,0.3796,1.6311,9.4991,53.8482,-0.0796,0.001,-0.0014,221.25
20:19:06:008,0.2132,1.5856,9.5853,54.5206,-0.077,-0.0148,0.0029,208
20:19:06:026,0.1976,1.564,9.6416,55.4365,-0.0701,-0.0033,0.0322,201.4688
20:19:06:046,0.2407,1.5975,9.5709,56.8696,-0.0594,0.0082,0.0543,197.7656
20:19:06:067,0.3832,1.6227,9.559,54.0798,-0.0471,-0.0129,0.0404,196.5
20:19:06:090,0.2683,1.5628,9.401,54.5477,-0.0402,-0.0078,0.0343,196.5
20:19:06:108,0.2671,1.5999,9.5326,54.5151,-0.0509,-0.0305,0.0434,196.3906
20:19:06:128,0.3317,1.5856,9.6452,55.3022,-0.0605,-0.0033,0.0521,196.3125
20:19:06:147,0.3221,1.5975,9.6057,55.2233,-0.0562,0.035,0.0521,196.2656
20:19:06:167,0.2647,1.6514,9.4345,55.9267,-0.0551,0.0398,0.0529,196.2656
20:19:06:191,0.2539,1.7053,9.4249,54.0306,-0.0623,-0.0235,0.0548,195.2656
20:19:06:209,0.3006,1.6993,9.632,57.3029,-0.0682,-0.0595,0.0481,194.8281
20:19:06:228,0.2946,1.7041,9.6966,55.3825,-0.0655,-0.0419,0.0431,194.6094
20:19:06:245,0.2276,1.6694,9.632,56.2988,-0.0573,-0.0305,0.0452,194.375
20:19:06:265,0.2814,1.6646,9.7062,55.6441,-0.0389,-0.0313,0.0585,194.1875
20:19:06:286,0.4143,1.728,9.6104,55.573,-0.0154,-0.0267,0.0623,194.1562
20:19:06:307,0.4766,1.7939,9.4716,53.463,-0.0128,-0.0478,0.0503,194.125
20:19:06:326,0.5819,1.8441,9.4764,54.8316,-0.0309,-0.092,0.0314,194.0469
20:19:06:350,0.6226,1.8346,9.6404,55.4885,-0.0506,-0.1024,0.0039,193.9844
20:19:06:366,0.5759,1.8418,9.7469,55.6227,-0.0541,-0.0883,-0.0195,193.9375
20:19:06:386,0.534,1.8489,9.7685,54.1818,-0.0429,-0.0435,-0.0214,193.9062
20:19:06:414,0.4514,1.8932,9.5877,55.3077,-0.0216,-0.0337,-0.0318,193.9219
20:19:06:428,0.3904,1.8813,9.5566,55.5113,-0.0067,-0.0795,-0.0419,193.9375
20:19:06:451,0.3269,1.8429,9.6045,53.7988,0.0075,-0.1109,-0.0469,193.9688
20:19:06:465,0.2228,1.7903,9.6679,55.7716,0.0218,-0.1202,-0.0475,194.0469
20:19:06:487,0.1581,1.7891,9.7026,54.7507,0.0277,-0.1064,-0.0291,194.0938
20:19:06:509,0.2084,1.8477,9.7158,54.985,0.0285,-0.0978,-0.0134,194.1719
20:19:06:532,0.2491,1.9243,9.7996,53.5389,0.0328,-0.1003,-0.0201,194.2188
20:19:06:546,0.2479,1.9423,9.7972,55.7395,0.0392,-0.0952,-0.0403,194.25
20:19:06:565,0.1869,1.9052,9.8235,53.6935,0.0402,-0.0869,-0.0701,194.2656
20:19:06:590,-0.0119,1.8238,9.8978,55.3085,0.0432,-0.0454,-0.0738,194.3125
20:19:06:608,-0.0957,1.7544,9.9528,54.8281,0.0796,-0.0062,-0.0453,194.375
20:19:06:626,-0.1028,1.7424,9.7385,54.9476,0.139,0.0337,-0.0102,193.9219
20:19:06:646,0.0253,1.7675,9.3327,54.6952,0.1795,0.0484,0.0271,193.25
20:19:06:666,0.1952,1.7975,8.9951,55.7514,0.1864,0.0084,0.0388,193.2812
20:19:06:686,0.3245,1.7903,8.8431,53.1556,0.163,-0.0393,0.0266,193.2656
20:19:06:707,0.3054,1.7843,8.7054,53.8983,0.1318,-0.0771,0.0079,193.2188
20:19:06:727,0.2838,1.7304,8.7306,54.4169,0.0874,-0.1442,0.001,193.1719
20:19:06:746,0.358,1.6837,9.0622,54.4169,0.0469,-0.1708,0.0029,193.1719
20:19:06:767,0.4059,1.6526,9.2058,54.2914,0.0365,-0.1117,0.0018,193.1719
20:19:06:789,0.3832,1.6789,9.043,56.0748,0.0437,-0.0542,0.0055,193.1875
20:19:06:807,0.4993,1.7592,8.8826,56.0748,0.0314,-0.0313,0.0218,193.2031
20:19:06:826,0.7423,1.9196,8.8946,53.1297,-0.0027,-0.0283,0.0311,193.2031
20:19:06:845,1.1709,2.0955,9.0897,54.2918,-0.0173,-0.0472,0.0372,193.2031
20:19:06:865,1.7132,2.1626,9.3638,55.3004,0.0019,-0.1301,0.0449,193.1719
20:19:06:886,2.6014,2.1482,9.7888,54.9921,0.0591,-0.2488,0.071,193.1406
20:19:06:909,3.4801,2.1674,9.8582,56.6147,0.135,-0.3239,0.062,193.1094
20:19:06:927,4.0715,2.2536,9.4656,55.56,0.1635,-0.3706,-0.0134,193.0625
20:19:06:945,4.4821,2.3349,9.14,55.885,0.0863,-0.3977,-0.1636,193.0156
20:19:06:965,4.4833,2.299,9.1448,54.3661,-0.0786,-0.3919,-0.3886,193
20:19:06:993,3.7973,2.0034,9.444,54.9921,-0.2533,-0.3381,-0.6134,193.1406
20:19:07:008,2.8492,1.6394,9.6763,54.8208,-0.3758,-0.2409,-0.7226,193.5
20:19:07:025,1.9502,1.5772,9.8379,55.1467,-0.4083,-0.1482,-0.705,194.1094
20:19:07:046,1.433,1.5951,9.6871,55.3985,-0.3433,-0.1229,-0.631,194.9375
20:19:07:066,1.0883,1.7424,9.2262,54.8697,-0.2304,-0.166,-0.5652,195.8125
20:19:07:086,0.8584,1.9998,8.6899,54.518,-0.1507,-0.2448,-0.5189,196.9375
20:19:07:106,0.6633,2.2547,8.2984,55.5558,-0.1435,-0.3221,-0.5151,197.6094
20:19:07:125,0.4646,2.4187,8.3714,54.5492,-0.1936,-0.3754,-0.5231,198.2344
20:19:07:145,0.4047,2.5229,8.7402,53.7303,-0.2458,-0.3514,-0.53,198.8281
20:19:07:165,0.3628,2.5349,9.1017,53.0954,-0.2748,-0.2856,-0.55,199.4844
20:19:07:186,0.3401,2.5097,9.377,55.4474,-0.2903,-0.2041,-0.5641,200.1406
20:19:07:212,0.2563,2.4379,9.5805,54.7814,-0.2986,-0.1152,-0.5596,200.7656
20:19:07:226,0.2096,2.3565,9.7888,54.5929,-0.2946,-0.0331,-0.5322,201.1094
20:19:07:249,0.2443,2.3014,9.7816,54.4981,-0.2626,0.0319,-0.4762,201.7969
20:19:07:266,0.3736,2.2428,9.723,53.2005,-0.2208,0.0606,-0.4142,202.4375
20:19:07:286,0.4718,2.1638,9.6547,54.1091,-0.1731,0.1104,-0.3412,203
20:19:07:305,0.5137,2.1302,9.3818,55.8464,-0.1196,0.1991,-0.2605,203.5156
20:19:07:325,0.5663,2.3589,8.9353,55.5618,-0.0839,0.3309,-0.1668,203.9688
20:19:07:345,0.6956,2.6701,8.3403,54.5032,-0.0882,0.4316,-0.1018,204.3125
20:19:07:366,0.8201,3.0173,8.0243,55.2303,-0.1345,0.3834,-0.1005,204.5938
20:19:07:386,0.5532,3.1514,8.2338,55.5459,-0.1947,0.2433,-0.1343,204.6719
20:19:07:409,0.6166,3.0712,8.8491,54.2487,-0.2349,0.1104,-0.1348,204.75
20:19:07:426,0.6166,2.9982,9.5446,55.8409,-0.2328,0.0556,-0.1367,204.8906
20:19:07:445,0.7579,2.8617,10.0582,53.3385,-0.2005,0.0723,-0.1218,205.0469
20:19:07:465,0.886,2.7731,10.3933,53.2061,-0.1686,0.0952,-0.1244,205.2031
20:19:07:486,0.5556,2.3493,11.7772,52.7005,-0.1529,0.0564,-0.1268,205.3438
20:19:07:509,0.4035,2.1386,12.3853,55.3061,-0.0503,0.1477,-0.0683,205.3438
20:19:07:527,0.3078,2.0776,12.4009,55.7169,0.0967,0.1986,0.0023,205.6406
20:19:07:546,0.3401,1.8992,12.1028,54.8501,0.2368,0.1589,0.058,205.7812
20:19:07:566,0.3616,1.8346,11.6252,54.2497,0.2895,0.0303,0.087,205.8438
20:19:07:587,0.279,1.8238,11.5366,53.3011,0.2171,-0.1309,0.0825,205.75
20:19:07:609,-0.0334,1.6358,12.25,56.1024,0.1302,-0.2209,0.1097,205.75
20:19:07:627,-0.2034,1.2923,12.5434,53.1888,0.1723,-0.0901,0.1834,205.6562
20:19:07:645,-0.6044,1.0421,11.3498,53.2247,0.2983,0.194,0.3022,205.5156
20:19:07:664,-0.8726,1.1319,9.4967,54.2941,0.3404,0.3224,0.4769,205.375
20:19:07:685,-0.7995,1.4264,8.7054,54.6057,0.2684,0.0992,0.6388,205.25
20:19:07:707,-0.4464,1.5317,9.3555,55.3907,0.1688,-0.2766,0.7155,204.625
20:19:07:734,-0.116,1.3414,10.6627,54.3768,0.1523,-0.5338,0.727,204.3125
20:19:07:750,-0.0753,1.0457,11.4109,53.9327,0.2386,-0.4417,0.7384,203.5938
20:19:07:765,-0.0933,0.8781,10.622,54.8594,0.3542,-0.0659,0.7856,202.7969
20:19:07:788,0.0288,0.9571,8.8096,54.3088,0.392,0.2646,0.8404,201.1875
20:19:07:810,0.3473,1.1438,7.5191,52.4745,0.3316,0.3733,0.8623,201.1875
20:19:07:851,0.6047,1.3222,6.9948,55.2535,0.2501,0.3395,0.8332,200.3281
20:19:07:852,0.6286,1.3533,6.9206,53.5698,0.2277,0.2918,0.7853,199.3281
20:19:07:865,0.528,1.3593,6.6931,53.3167,0.2804,0.2686,0.7667,198.2969
20:19:07:885,0.6202,1.4958,6.1819,54.4283,0.3292,0.2417,0.7794,196.875
20:19:07:905,0.7806,1.8765,5.8192,54.6512,0.2927,0.1666,0.7632,195.9531
20:19:07:927,0.9291,2.2081,5.9892,53.4641,0.2016,0.0172,0.7041,195.0312
20:19:07:945,1.056,2.4355,6.7051,53.1176,0.106,-0.1626,0.6122,194.1406
20:19:07:965,1.1302,2.5827,7.7968,54.675,0.0325,-0.2768,0.5054,193.2812
20:19:07:987,1.1721,2.6869,8.9077,54.0004,-0.0264,-0.2526,0.4079,192.5312
20:19:08:010,1.1062,2.7384,9.7924,56.0207,-0.0645,-0.1133,0.3153,191.9375
20:19:08:027,1.0823,2.6091,10.3814,55.8155,-0.0692,0.0396,0.2468,191.4531
20:19:08:047,1.0452,2.4475,11.0266,55.5858,-0.041,0.1008,0.2276,191.0625
20:19:08:066,1.3445,2.0931,11.5378,55.0801,0.0469,0.0478,0.2545,190.75
20:19:08:086,1.9334,1.8429,11.6204,55.4081,0.1063,-0.0358,0.3049,190.5
20:19:08:109,2.8851,1.7256,11.8239,55.5388,0.0924,-0.0494,0.3528,190.2188
20:19:08:125,4.0188,1.5916,11.3846,53.9725,0.078,0.0513,0.3054,190.0625
20:19:08:145,4.4126,1.6993,10.1348,54.6936,-0.0274,0.1205,0.1134,189.7188
20:19:08:165,3.9242,1.8789,9.5889,55.7772,-0.2945,-0.0441,-0.1599,189.3281
20:19:08:187,3.3185,1.4096,10.9045,54.274,-0.5981,-0.4078,-0.4432,188.8594
20:19:08:207,2.5595,0.3502,13.4268,54.5453,-0.6703,-0.6393,-0.6078,188.875
20:19:08:225,1.7718,-0.4495,14.6215,56.348,-0.38,-0.4635,-0.5311,189.2656
20:19:08:244,1.9849,-0.4208,12.9348,54.7641,0.1148,-0.1511,-0.2858,190
20:19:08:264,2.9534,0.3645,9.8427,53.8642,0.4168,-0.1396,-0.1415,190.7812
20:19:08:286,3.9266,0.9475,7.9884,55.7234,0.3787,-0.3706,-0.24,191.2656
20:19:08:306,3.8464,1.2456,7.4018,54.6658,0.1329,-0.537,-0.5173,191.4688
20:19:08:324,3.0013,1.1223,7.6352,52.8662,-0.1571,-0.5048,-0.783,191.6406
20:19:08:345,2.1106,0.9703,7.7956,55.3354,-0.3747,-0.271,-0.9151,192.0781
20:19:08:364,1.4342,1.0852,7.652,54.1874,-0.4999,0.0137,-0.9338,192.8906
20:19:08:385,0.9051,1.2552,7.4377,54.5376,-0.5305,0.2502,-0.8779,193.9531
20:19:08:406,0.6382,1.4706,7.1372,52.754,-0.4466,0.3536,-0.7713,195.0625
20:19:08:424,0.5544,1.837,6.6153,53.3503,-0.298,0.3365,-0.6715,196.0781
20:19:08:444,0.5496,2.165,6.0203,53.6368,-0.1776,0.246,-0.6206,197.0312
20:19:08:465,0.4778,2.3936,5.8671,52.5705,-0.1502,0.1024,-0.6003,197.8438
20:19:08:484,0.4514,2.5313,6.565,53.639,-0.1795,-0.0068,-0.5724,198.875
20:19:08:506,0.6059,2.6893,7.3898,53.0719,-0.1622,-0.0201,-0.5386,199.5625
20:19:08:524,0.88,2.9622,8.077,52.5295,-0.1294,-0.0038,-0.5378,200.2344
20:19:08:544,1.0428,3.0724,8.8599,53.4297,-0.118,0.0667,-0.5809,200.8281
20:19:08:564,0.9386,3.0293,9.4692,51.9959,-0.119,0.2124,-0.6379,201.4375
20:19:08:585,0.7327,2.8605,10.0989,52.4759,-0.1278,0.3743,-0.6467,202.1094
20:19:08:606,0.8908,2.5911,10.7716,52.6128,-0.0759,0.4814,-0.5905,202.7969
20:19:08:625,1.633,2.1865,11.126,51.3642,0.0378,0.3962,-0.5276,203.5156
20:19:08:645,2.2722,1.6083,11.5689,51.3722,0.1241,0.1671,-0.4768,204.1406
20:19:08:666,2.5452,1.0792,12.1938,50.1751,0.1478,0.0484,-0.4206,204.4375
20:19:08:685,2.3452,0.8984,12.2848,51.832,0.1486,0.1805,-0.3484,204.9688
20:19:08:709,2.0089,1.1989,11.3846,51.5447,0.1387,0.3171,-0.2699,205.4688
20:19:08:729,1.1793,1.7627,10.4005,51.5447,0.0732,0.1943,-0.2328,205.8906
20:19:08:744,1.2427,1.6981,10.3802,49.2264,-0.0658,-0.2547,-0.1782,206.2188
20:19:08:764,1.1697,1.4264,11.9268,50.325,-0.1561,-0.8156,-0.1681,206.4688
20:19:08:785,1.3169,1.0289,13.665,48.1096,-0.0421,-1.1429,-0.1175,206.8125
20:19:08:809,1.2439,0.8374,13.7608,48.9631,0.2195,-1.0827,-0.101,207.0625
20:19:08:824,1.1314,0.9044,12.4356,49.5768,0.339,-0.8638,-0.1061,207.2969
20:19:08:845,1.3876,0.7512,11.3678,49.1008,0.1808,-0.5985,-0.1625,207.5
20:19:08:864,1.2116,0.3765,10.9009,48.8621,-0.0756,-0.2411,-0.264,207.6875
20:19:08:886,0.4179,-0.3406,9.7002,46.9449,-0.2173,0.0556,-0.3042,207.9062
20:19:08:908,0.2527,-0.2771,8.5714,47.6005,-0.073,0.1389,-0.0744,208.0625
20:19:08:926,0.3401,0.1646,7.7274,47.2626,-0.012,0.067,0.0889,208.0625
20:19:08:946,0.5652,0.5345,7.1217,46.8606,-0.0085,0.0841,0.196,208.8438
20:19:08:965,0.777,0.677,6.7314,47.462,-0.013,0.1245,0.2545,208.9219
20:19:08:986,0.8177,0.9104,6.4657,45.7472,-0.0197,0.1578,0.3166,208.5938
20:19:09:011,1.0368,1.2205,6.5123,44.9428,-0.02,0.1411,0.3645,208.2969
20:19:09:028,1.2403,1.4946,6.7649,48.1571,0.0186,0.0729,0.3536,208.2969
20:19:09:045,1.3026,1.752,7.0774,46.8695,0.0959,-0.0209,0.3067,207.9219
20:19:09:070,1.1003,1.8848,7.6364,46.3611,0.1811,-0.1112,0.2247,207.4844
20:19:09:084,0.8141,1.9902,8.0075,43.4865,0.2671,-0.1445,0.1714,207.0938
20:19:09:104,0.9111,2.1937,8.3284,46.4287,0.306,-0.1375,0.1336,206.7344
20:19:09:124,1.3792,2.5397,8.5151,45.3555,0.2527,-0.0949,0.0583,206.4844
20:19:09:149,1.925,2.7827,9.1376,45.1048,0.0882,-0.104,-0.1077,206.2969
20:19:09:164,2.4051,2.5576,10.5334,45.5949,-0.1044,-0.1069,-0.3324,206.1406
20:19:09:186,2.4027,1.9004,11.9508,44.9632,-0.2107,-0.0153,-0.5295,206.0938
20:19:09:206,1.8712,1.3857,12.9013,44.0259,-0.1803,0.1831,-0.5641,206.3281
20:19:09:225,1.7395,1.2528,12.365,43.7784,-0.0205,0.3757,-0.4451,206.8594
20:19:09:244,2.2339,1.3162,10.8866,43.8,0.0996,0.3019,-0.3031,207.5312
20:19:09:264,3.1138,1.6179,10.0043,43.4949,0.0506,-0.0627,-0.2219,208.0938
20:19:09:284,4.3061,1.6502,10.7621,42.9858,-0.1167,-0.6236,-0.3066,208.4531
20:19:09:307,4.6281,1.3426,12.9719,43.229,-0.2623,-0.937,-0.5394,208.7188
20:19:09:325,4.0188,0.5166,14.3701,45.2082,-0.2384,-0.6305,-0.7495,209.0312
20:19:09:345,3.1916,-0.0221,13.2005,43.5409,-0.0631,0.0295,-0.7878,209.25
20:19:09:364,3.1641,-0.1203,10.2293,43.187,0.0261,0.3735,-0.7386,209.9844
20:19:09:384,3.4717,0.0736,8.7342,41.4762,-0.0927,0.0934,-0.7234,210.9219
20:19:09:408,3.6046,0.1933,9.5446,44.675,-0.2533,-0.2832,-0.8067,211.8125
20:19:09:425,2.9917,0.2556,9.8271,41.8474,-0.2634,-0.2174,-0.9641,212.5781
20:19:09:444,1.8448,0.1658,8.5019,42.9994,-0.2032,0.0838,-1.0651,213.4062
20:19:09:464,0.7866,0.2005,6.8595,42.4425,-0.1934,0.3357,-1.006,214.375
20:19:09:484,0.0492,0.5381,5.6816,43.4237,-0.1904,0.389,-0.8304,216.0781
20:19:09:506,-0.1639,0.9858,5.0818,43.5867,-0.1587,0.2319,-0.6137,217.2812
20:19:09:523,-0.0262,1.5712,5.1979,43.7491,-0.0991,-0.0198,-0.4296,218.3125
20:19:09:544,0.2826,2.1051,5.6373,42.322,-0.0192,-0.1964,-0.3284,219.0781
20:19:09:563,0.4131,2.5408,5.9605,42.9573,0.0205,-0.2704,-0.3247,219.6562
20:19:09:585,0.4323,2.8509,6.7338,42.9691,-0.0309,-0.2659,-0.3679,220.0938
20:19:09:608,0.5065,2.9431,7.7693,43.7648,-0.0898,-0.1636,-0.4358,220.4688
20:19:09:625,0.4814,2.8737,8.4828,42.2104,-0.1148,-0.0464,-0.5055,220.875
20:19:09:644,0.3569,2.7408,9.2429,42.8259,-0.1614,0.047,-0.5417,221.3594
20:19:09:664,0.1294,2.6701,10.227,41.2053,-0.1987,0.1924,-0.5239,221.9219
20:19:09:684,-0.049,2.5133,10.8411,42.3368,-0.1707,0.3687,-0.4587,222.5
20:19:09:706,-0.1878,2.3326,11.0721,40.756,-0.1156,0.4577,-0.3434,223.1094
20:19:09:726,-0.1819,2.1219,11.3522,43.1285,-0.0594,0.4039,-0.1716,223.6719
20:19:09:744,0.1569,1.9662,11.9628,41.6763,0.0136,0.2878,0.0252,224.25
20:19:09:764,0.7148,1.8597,12.4081,43.7395,0.0961,0.2446,0.2055,224.4062
20:19:09:784,1.3528,1.977,11.9807,42.3288,0.1337,0.2484,0.3179,224.3594
20:19:09:806,1.9466,2.2523,11.6024,42.308,0.041,0.1136,0.3171,224.125
20:19:09:823,2.0543,2.238,12.8642,41.8544,-0.1547,-0.239,0.197,223.9375
20:19:09:845,1.6246,1.4347,15.4415,43.2793,-0.2306,-0.459,0.0798,223.5312
20:19:09:896,0.6394,0.4292,16.7667,43.6156,-0.0477,-0.1309,0.1105,223.2344
20:19:09:896,0.042,-0.1742,14.7855,43.2781,0.2863,0.5216,0.3443,223.125
20:19:09:910,0.2228,0.0533,11.1679,42.2073,0.5068,0.7786,0.6343,223.0938
20:19:09:924,0.9829,0.161,8.9353,42.5595,0.5598,0.3802,0.8221,222.8281
20:19:09:946,1.621,0.252,8.8359,44.5007,0.5124,-0.2196,0.8751,222.2188
20:19:09:964,1.7682,0.4388,9.6547,44.398,0.4722,-0.4725,0.8298,221.2969
20:19:09:984,1.6605,0.5142,9.632,42.6946,0.4794,-0.3045,0.7438,220.2969
20:19:10:005,1.4259,0.6674,8.4349,44.4785,0.4498,0.0417,0.6814,218.9219
20:19:10:024,1.3409,0.896,7.1241,44.0614,0.3633,0.2683,0.6367,218.0938
20:19:10:043,1.1218,1.1738,6.4465,42.256,0.2882,0.2902,0.5794,217.2812
20:19:10:065,0.8896,1.2456,6.3412,45.6725,0.2597,0.1863,0.5422,216.5469
20:19:10:084,0.9087,1.2588,6.4848,43.0708,0.2684,0.1,0.5366,215.8438
20:19:10:107,1.1242,1.3833,6.644,44.5449,0.3004,0.0803,0.5464,215.1875
20:19:10:125,1.3804,1.637,6.6931,42.698,0.3406,0.0779,0.5171,214.5469
20:19:10:143,1.4666,1.916,6.504,44.7551,0.3745,0.047,0.4364,213.9375
20:19:10:164,1.542,2.1889,6.5243,45.8183,0.3617,-0.0432,0.3192,213.3281
20:19:10:183,1.5145,2.4642,7.2294,45.2198,0.3052,-0.154,0.1712,212.8125
20:19:10:210,1.5085,2.6175,8.2206,43.6477,0.2485,-0.1847,0.013,212.4531
20:19:10:227,1.3852,2.6306,8.8754,44.5634,0.1947,-0.0539,-0.1324,212.2656
20:19:10:250,1.3325,2.5085,8.9006,45.2788,0.1071,0.1853,-0.2515,212.4062
20:19:10:267,1.2595,2.0907,9.4596,45.8532,-0.2064,0.2574,-0.3884,212.6562
20:19:10:287,1.1278,1.503,10.4484,47.3981,-0.2554,0.0761,-0.3782,212.8125
20:19:10:310,1.062,1.09,10.9428,45.584,-0.1936,-0.0728,-0.2347,212.8125
20:19:10:328,1.5228,1.0373,10.5119,47.2696,-0.146,-0.2097,-0.0368,213.4062
20:19:10:345,1.9921,1.3461,10.1862,45.4565,-0.2125,-0.3956,0.099,213.8281
20:19:10:365,2.5679,1.5197,10.3778,46.3123,-0.3997,-0.6297,0.111,214.1875
20:19:10:385,2.8672,1.4647,12.3015,45.5728,-0.6642,-0.8544,0.0178,214.1875
20:19:10:410,2.7822,1.1043,14.9315,45.1418,-0.7635,-0.6848,-0.0597,214.1406
20:19:10:429,2.8827,0.8817,15.5924,47.5103,-0.5012,-0.1245,-0.0376,214.2344
20:19:10:449,3.4262,1.0481,12.5266,48.591,-0.0695,0.2918,-0.0203,214.2344
20:19:10:463,4.081,1.2923,9.201,47.5018,0.1411,0.1378,-0.1079,214.4375
20:19:10:483,4.5479,1.2875,7.482,48.1023,0.0663,-0.2563,-0.3236,214.5156
20:19:10:504,3.9637,1.1582,7.506,46.5371,-0.2077,-0.5072,-0.6187,214.5156
20:19:10:527,2.9941,0.8254,8.1871,47.121,-0.4826,-0.3852,-0.836,214.6094
20:19:10:545,1.8772,0.7033,8.059,47.4774,-0.6527,-0.0342,-0.9292,214.9844
20:19:10:568,0.9195,0.835,7.6795,48.8263,-0.7292,0.1911,-0.8962,216.7969
20:19:10:583,0.4047,1.072,7.4952,48.656,-0.6642,0.197,-0.7625,217.3438
20:19:10:604,0.4538,1.3845,7.166,47.4621,-0.4597,0.0835,-0.5926,218.3906
20:19:10:624,0.6465,1.813,6.4226,47.7327,-0.233,-0.0523,-0.4568,219.375
20:19:10:646,0.953,2.3206,5.7761,48.664,-0.1081,-0.211,-0.3923,220.1719
20:19:10:664,1.2475,2.6689,5.8647,48.746,-0.1236,-0.3604,-0.4225,220.75
20:19:10:684,1.2978,2.809,6.8631,48.6382,-0.2261,-0.4387,-0.5023,221.4844
20:19:10:707,1.1924,2.7073,8.2541,48.2662,-0.2993,-0.3796,-0.5798,221.7344
20:19:10:724,0.7423,2.6067,9.1915,48.2662,-0.29,-0.1154,-0.6134,222
20:19:10:744,0.3233,2.6283,9.2633,47.8984,-0.208,0.1392,-0.5671,222.5938
20:19:10:764,0.2575,2.8162,8.9173,50.2502,-0.1167,0.238,-0.4688,223.3125
20:19:10:784,0.3724,3.0556,8.8575,49.4761,-0.0567,0.1573,-0.4115,224.0312
20:19:10:809,0.3102,3.0472,9.207,49.0641,-0.0666,0.0164,-0.4129,224.6875
20:19:10:828,-0.037,2.7324,10.3347,50.4309,-0.1534,-0.0731,-0.4027,225.1875
20:19:10:844,-0.3339,2.1721,12.0465,50.0273,-0.2152,-0.0499,-0.3322,225.6562
20:19:10:864,-0.8355,1.5963,13.6351,50.7721,-0.1827,0.1477,-0.1838,226.375
20:19:10:885,-1.1276,1.1582,13.8087,50.6002,-0.0578,0.5046,0.0511,226.7969
20:19:10:909,-0.9085,1.4,12.7193,50.7843,0.0362,0.7243,0.3025,227.125
20:19:10:925,-0.4308,1.9938,11.9256,51.2948,-0.0277,0.4154,0.4071,227.1875
20:19:10:943,0.0217,2.0931,14.2504,51.6892,-0.2005,-0.4276,0.3792,226.9375
20:19:10:964,0.5113,0.8194,18.2894,51.1118,-0.119,-0.9525,0.3256,226.4688
20:19:10:983,0.5077,-0.7356,19.8935,51.279,0.2999,-0.5484,0.4021,226
20:19:11:004,0.455,-1.3018,16.5656,51.428,0.7329,0.3781,0.6442,225.6875
20:19:11:027,0.947,-0.8158,12.0082,51.0736,0.8131,0.7906,0.8862,225.3438
20:19:11:043,1.6054,-0.5106,9.8559,50.9965,0.6743,0.5656,0.9464,224.7344
20:19:11:064,1.4259,-0.3741,9.3339,50.6732,0.5758,0.1759,0.8961,223.7344
20:19:11:085,1.0667,-0.5225,9.4034,49.5638,0.5633,-0.0523,0.8934,222.625
20:19:11:111,1.026,-0.5465,8.9197,50.2145,0.5851,-0.0302,0.9541,221.5
20:19:11:125,1.1912,-0.2855,7.8878,50.3623,0.5622,0.1184,1.0316,220.4688
20:19:11:144,1.2343,0.1131,6.9553,50.4648,0.485,0.2537,1.0764,218.8594
20:19:11:164,1.269,0.4196,6.492,48.4673,0.4349,0.3184,1.0966,217.6562
20:19:11:183,1.3708,0.6554,6.0886,50.0904,0.4447,0.3935,1.107,216.3594
20:19:11:206,1.5468,0.999,5.4194,49.5646,0.4775,0.4345,1.094,215.1094
20:19:11:226,1.6701,1.2983,4.913,50.5379,0.4669,0.3847,1.0287,213.7656
20:19:11:244,1.6078,1.5401,4.9693,48.7948,0.4053,0.2359,0.9225,213.1094
20:19:11:263,1.6018,1.6131,5.824,48.728,0.3409,0.0654,0.8015,211.7969
20:19:11:284,1.6306,1.6933,6.832,46.7795,0.3358,-0.0265,0.6977,210.6875
20:19:11:306,1.8197,1.8705,7.5059,49.2673,0.3758,-0.0691,0.5957,209.6562
20:19:11:324,2.1669,2.1386,7.9453,49.5903,0.3995,-0.0616,0.47,208.7812
20:19:11:343,2.5871,2.3218,7.98,49.4404,0.3848,-0.0209,0.2801,208.0781
20:19:11:365,2.7894,2.3314,8.0147,48.0724,0.2743,-0.0467,0.0354,207.4531
20:19:11:383,2.8229,2.0237,8.8682,48.9169,0.0522,-0.0936,-0.2006,206.9844
20:19:11:405,2.5727,1.4108,10.2198,47.6344,-0.1678,-0.0025,-0.3694,206.7969
20:19:11:426,2.2866,0.9355,11.2529,45.7842,-0.3049,0.2236,-0.4022,206.8906
20:19:11:443,2.3381,0.7296,11.0793,46.8694,-0.3334,0.4231,-0.3212,207.4688
20:19:11:463,2.7714,0.8553,10.1731,49.1454,-0.3433,0.3384,-0.2461,207.9219
20:19:11:483,3.6118,1.1103,9.5602,47.5297,-0.4826,-0.0861,-0.3117,208.2188
20:19:11:505,4.239,0.7249,11.2014,45.1849,-0.7955,-0.7623,-0.5647,208.4688
20:19:11:525,3.4131,-0.398,14.266,46.6013,-1.0362,-0.9807,-0.835,208.8594
20:19:11:543,1.2786,-1.2049,15.5241,45.5503,-1.0176,-0.337,-0.8408,209.6094
20:19:11:563,0.4646,-0.9942,13.2197,45.2746,-0.7952,0.475,-0.4613,210.7344
20:19:11:584,1.5815,0.0629,9.966,46.7551,-0.5896,0.5983,-0.0842,211.7969
20:19:11:607,2.6661,0.9774,7.9728,47.0235,-0.4456,0.096,-0.0115,212.3125
20:19:11:628,3.024,1.5114,7.4185,46.125,-0.3835,-0.4811,-0.133,212.375
20:19:11:644,2.6828,1.7065,7.5119,45.4133,-0.429,-0.6568,-0.3479,212.4062
20:19:11:669,1.9861,1.5365,7.4198,45.5389,-0.5238,-0.4124,-0.5439,212.6094
20:19:11:691,0.9758,1.564,6.4118,44.7274,-0.6197,-0.0377,-0.6802,213.75
20:19:11:706,0.8106,1.7184,7.0056,44.6496,-0.5462,-0.1325,-0.7034,214.125
20:19:11:727,0.4418,1.7172,7.4185,44.0176,-0.3782,-0.137,-0.7324,214.125
20:19:11:746,-0.0154,1.7783,7.2438,43.8396,-0.2384,-0.0185,-0.7269,215.3125
20:19:11:764,-0.2309,1.9926,6.8834,45.2834,-0.2112,0.1142,-0.6818,216.1406
20:19:11:792,-0.2393,2.2739,7.1767,44.2846,-0.2599,0.0889,-0.6507,217.8281
20:19:11:806,-0.0107,2.4511,8.4911,44.5276,-0.2932,-0.0001,-0.6387,218.6094
20:19:11:827,-0.0047,2.5002,9.8235,42.4133,-0.2578,-0.0646,-0.6653,218.6094
20:19:11:847,-0.4045,2.2619,11.2589,43.8245,-0.192,-0.0712,-0.6571,219.375
20:19:11:862,-0.9121,1.825,12.4739,40.7187,-0.0834,0.0942,-0.5359,220.1094
20:19:11:887,-1.1802,1.5293,12.5972,41.5328,0.037,0.3368,-0.3023,220.8594
20:19:11:911,-0.7708,1.418,12.5266,40.8014,0.1305,0.397,0.0018,221.625
20:19:11:961,0.1067,1.3952,12.9911,40.8487,0.2373,0.2297,0.2601,222.5625
20:19:11:962,1.1529,1.315,13.3777,42.0022,0.3968,0.0636,0.4311,222.5312
20:19:11:973,1.9179,1.388,12.8306,39.1648,0.5055,-0.0204,0.4676,222.4062
20:19:11:982,1.8856,1.6813,12.3147,40.094,0.4242,-0.0166,0.3994,221.9688
20:19:12:003,1.4797,1.6275,12.3243,40.2005,0.2218,0.0406,0.2921,221.4531
20:19:12:024,0.7172,1.2085,13.185,37.6517,0.0415,0.1213,0.2569,220.9219
20:19:12:042,0.2395,0.5154,13.9284,37.6649,0.081,0.2252,0.3717,220.5156
20:19:12:063,0.042,0.0329,13.3167,38.5421,0.3201,0.2468,0.5709,220.3438
20:19:12:083,0.4981,-0.2723,11.8119,36.8613,0.5609,-0.0137,0.7755,220.0625
20:19:12:102,1.2307,-0.2496,11.1882,38.0431,0.632,-0.4478,0.8929,219.625
20:19:12:126,1.5695,-0.2592,11.2828,39.908,0.5795,-0.6273,0.8649,218.9375
20:19:12:146,1.299,-0.3334,10.8937,35.2595,0.4826,-0.4172,0.7896,218.0781
20:19:12:162,0.8441,-0.4172,9.863,38.04,0.4317,-0.0049,0.7941,217.0469
20:19:12:185,0.5041,-0.1467,7.9608,37.3627,0.4623,0.3304,0.886,216.0781
20:19:12:209,0.4598,0.2699,6.0586,36.4763,0.5039,0.3909,1.0178,214.7812
20:19:12:226,0.6968,0.732,5.1369,37.7376,0.534,0.1791,1.1246,213.7812
20:19:12:244,1.0799,1.1642,5.1237,37.0126,0.5534,-0.0643,1.1621,212.6094
20:19:12:263,1.5145,1.4347,5.4314,36.4733,0.559,-0.182,1.1302,211.3281
20:19:12:283,1.8508,1.649,5.9988,35.1317,0.51,-0.186,1.0455,210.0312
20:19:12:302,2.2076,1.8956,6.9086,36.3781,0.429,-0.0851,0.9222,208.6875
20:19:12:325,2.3704,2.1147,7.9046,36.0621,0.3926,0.0212,0.7408,207.4219
20:19:12:342,2.1776,2.0848,8.6312,35.7952,0.4131,0.1125,0.5387,206.3281
20:19:12:363,1.882,1.8992,9.0191,35.053,0.4879,0.2018,0.3981,205.3438
20:19:12:382,2.0292,1.8118,8.715,36.5083,0.5862,0.2345,0.3182,204.5781
20:19:12:404,2.4889,1.8801,8.223,35.5987,0.5862,0.1205,0.2039,204.0156
20:19:12:426,2.9474,1.734,8.5007,37.2027,0.4389,-0.0944,0.0244,203.5469
20:19:12:444,3.3963,1.2983,9.5506,37.9426,0.2053,-0.1596,-0.1785,203.1562
20:19:12:463,3.431,0.9667,10.4089,36.8839,-0.0304,0.0907,-0.3556,202.9844
20:19:12:484,3.2311,0.6901,10.1001,36.6507,-0.2016,0.4601,-0.4565,203.0625
20:19:12:503,3.0683,0.5932,9.2956,37.7439,-0.3521,0.5807,-0.4744,203.5938
20:19:12:527,3.3604,0.8122,8.8766,38.1575,-0.4796,0.3389,-0.4587,203.8281
20:19:12:544,3.7147,0.7069,9.5386,39.3528,-0.6027,-0.2198,-0.5529,204.2812
20:19:12:563,3.6597,0.2089,11.5605,36.8696,-0.7236,-0.5943,-0.6877,204.7656
20:19:12:582,3.1772,-0.1634,12.9575,38.1655,-0.7683,-0.4584,-0.7532,205.3438
20:19:12:603,2.6218,-0.2951,12.8606,37.263,-0.7438,-0.0614,-0.7165,206.1094
20:19:12:624,2.7139,-0.1897,11.5581,38.4689,-0.6709,0.1331,-0.6169,207.0781
20:19:12:642,3.0336,0.2101,10.3838,38.4396,-0.6107,-0.0099,-0.5681,208.0156
20:19:12:662,2.9629,0.6399,9.7445,38.2803,-0.5577,-0.1833,-0.6235,208.8125
20:19:12:682,2.3835,0.8889,8.8515,38.5949,-0.5127,-0.1705,-0.7205,209.4688
20:19:12:703,1.7658,1.0816,7.6628,37.9126,-0.5135,-0.0406,-0.7652,210.1875
20:19:12:727,1.3085,1.2959,6.6931,37.9126,-0.5222,0.0593,-0.7513,211.0156
20:19:12:743,0.9303,1.5006,6.231,37.8934,-0.4911,0.0409,-0.7135,211.8594
20:19:12:762,0.71,1.7137,5.9772,37.5095,-0.3989,-0.0246,-0.6541,212.7656
20:19:12:783,0.6406,2.0357,5.6744,37.0482,-0.3017,-0.1231,-0.6248,214.0469
20:19:12:802,0.3593,2.2883,5.9066,38.9391,-0.2764,-0.2507,-0.6302,214.7812
20:19:12:828,0.0456,2.4223,6.7266,39.1621,-0.2876,-0.3064,-0.6131,215.5156
20:19:12:843,0.0827,2.6761,7.8435,37.5708,-0.2711,-0.2976,-0.5796,216.2812
20:19:12:863,0.2551,2.9802,8.8251,37.9005,-0.2253,-0.2656,-0.5862,216.9844
20:19:12:883,0.1378,3.0819,9.6523,39.4131,-0.2157,-0.2017,-0.6217,217.6719
20:19:12:903,-0.0418,2.9838,10.7692,38.5468,-0.2724,-0.0315,-0.6123,218.375
20:19:12:925,-0.2836,2.9251,11.7772,38.2656,-0.3119,0.2127,-0.5567,219.1094
20:19:12:944,-0.4739,2.5792,12.6283,36.5542,-0.2493,0.3437,-0.4387,219.7969
20:19:12:963,-0.608,2.1554,13.3215,38.8233,-0.0748,0.2958,-0.2294,220.4531
20:19:12:984,-0.2609,1.7711,13.8075,39.9132,0.1481,0.1674,0.0412,220.9375
20:19:13:004,0.7291,1.5461,13.5681,39.2779,0.3489,0.0894,0.2844,221.1875
20:19:13:024,1.7539,1.6622,12.8414,37.7673,0.4133,-0.0512,0.3776,221.1875
20:19:13:043,2.283,1.9232,12.7983,36.3148,0.289,-0.2704,0.3145,220.9844
20:19:13:064,2.0077,1.7244,14.2516,37.3113,0.0828,-0.4712,0.164,220.5469
20:19:13:083,1.3062,0.8805,15.9443,37.7441,0.0141,-0.2731,0.099,219.9844
20:19:13:105,0.2192,-0.507,12.7181,38.0132,0.4562,0.5735,0.441,219.8281
20:19:13:127,0.7411,-0.483,10.5119,37.1682,0.587,0.2409,0.6838,219.7188
20:19:13:147,1.5779,-0.2316,10.3359,38.1433,0.6125,-0.3181,0.809,219.4844
20:19:13:162,1.9969,0.0748,10.7429,36.3812,0.6533,-0.5477,0.7813,218.9062
20:19:13:183,1.8209,0.0688,9.942,36.434,0.6775,-0.333,0.6854,217.1875
20:19:13:203,1.3397,0.1275,8.1608,36.2903,0.6378,0.0593,0.6774,217.1875
20:19:13:227,1.2176,0.4244,6.2598,37.5169,0.5529,0.2785,0.7443,216.2969
20:19:13:243,1.1757,0.8565,5.6241,37.454,0.4447,0.1125,0.8298,215.5
20:19:13:265,1.4055,1.2576,6.3663,36.6151,0.4402,-0.1801,0.915,214.6719
20:19:13:281,1.8987,1.4563,7.0247,36.9372,0.5888,-0.3546,0.9342,213.7969
20:19:13:301,2.3141,1.5664,7.2653,37.1767,0.7803,-0.3248,0.8881,212.7969
20:19:13:322,2.3811,1.7173,6.4681,37.3686,0.8991,-0.1586,0.7952,211.7344
20:19:13:342,2.4242,1.9279,5.666,36.8228,0.8445,-0.1,0.6788,210.1875
20:19:13:367,2.5727,2.1698,5.7582,37.6929,0.6743,-0.1346,0.5331,209.1719
20:19:13:382,2.7139,2.305,6.4633,36.3894,0.4938,-0.1343,0.3557,208.2656
20:19:13:403,2.708,2.3493,7.0798,36.1973,0.3643,-0.0813,0.1496,207.5469
20:19:13:428,2.593,2.3314,7.4928,36.7984,0.2522,-0.0616,-0.0581,207
20:19:13:444,2.2423,2.0644,8.2446,36.1342,0.1204,-0.1423,-0.2334,206.8125
20:19:13:463,1.87,1.3928,9.5374,36.3066,-0.0061,-0.2366,-0.3039,206.6094
20:19:13:484,1.9035,0.8853,10.9811,36.4956,-0.1188,-0.2142,-0.2488,206.6562
20:19:13:502,2.4925,0.7069,12.0214,37.3383,-0.1971,-0.0398,-0.1449,206.9375
20:19:13:525,3.1078,0.5632,11.5414,37.5002,-0.2226,0.1884,-0.085,207.3281
20:19:13:543,3.6237,0.6363,10.4556,37.7786,-0.3015,0.1994,-0.0619,207.6406
20:19:13:562,4.3204,0.7668,10.2413,36.4648,-0.5143,-0.0686,-0.1418,207.8281
20:19:13:583,4.4066,0.6243,12.1064,36.337,-0.7657,-0.3173,-0.3513,207.9219
20:19:13:602,3.6848,0.0916,13.6291,37.5294,-0.8357,-0.0717,-0.5135,208
20:19:13:625,2.945,-0.1622,12.942,39.3462,-0.7209,0.4223,-0.4691,208.4375
20:19:13:642,3.3005,0.2197,10.634,39.4517,-0.5766,0.6377,-0.3114,209.0781
20:19:13:662,4.0942,0.7237,9.0646,38.8811,-0.5039,0.3749,-0.2722,209.7031
20:19:13:682,4.415,1.2971,8.5067,39.6817,-0.474,-0.0342,-0.3953,210.1406
20:19:13:702,3.9242,1.6299,8.3248,38.9383,-0.4943,-0.1918,-0.639,210.4219
20:19:13:726,3.0096,1.5664,7.6927,39.7053,-0.5928,-0.0049,-0.8786,210.8125
20:19:13:744,1.6701,1.4407,7.1025,39.9138,-0.7316,0.2918,-0.9932,211.4219
20:19:13:762,0.6142,1.4515,6.9529,39.8787,-0.7542,0.4747,-0.9239,212.3594
20:19:13:782,0.2934,1.6179,6.7973,41.5568,-0.5819,0.4398,-0.7505,213.5
20:19:13:803,0.4347,1.9315,6.3591,38.9214,-0.3017,0.2353,-0.5836,214.5781
20:19:13:830,0.6657,2.256,5.9581,42.1043,-0.0794,-0.0265,-0.4991,215.5625
20:19:13:842,0.6609,2.4511,6.2251,41.9948,-0.0179,-0.1897,-0.4981,216.3125
20:19:13:862,0.522,2.5169,7.0642,42.2216,-0.0386,-0.186,-0.5215,216.9219
20:19:13:883,0.5077,2.6235,8.0387,41.9241,-0.0679,-0.0883,-0.5287,217.4688
20:19:13:902,0.7579,2.7731,8.8778,42.9046,-0.0509,-0.0134,-0.5204,218.0625
20:19:13:924,0.9674,2.9778,9.5566,43.1859,-0.0085,-0.0116,-0.5487,218.9688
20:19:13:943,0.9003,2.9766,10.027,45.9755,0.0013,0.0257,-0.5902,219.2656
20:19:13:961,0.6118,2.9096,10.4197,43.4704,-0.0738,0.1163,-0.6001,220.1875
20:19:14:009,0.3676,2.8174,11.2625,44.8941,-0.2091,0.2212,-0.5532,220.5312
20:19:14:010,0.2814,2.5456,12.3446,44.3705,-0.2836,0.2822,-0.4491,221.1719
20:19:14:027,0.461,2.1913,13.3849,45.0277,-0.2562,0.2577,-0.285,221.8438
20:19:14:045,0.9578,1.8669,13.9416,46.9837,-0.1617,0.1954,-0.0957,222.4062
20:19:14:068,1.3744,1.7986,13.9571,46.1697,-0.0786,0.104,0.0569,222.8438
20:19:14:086,1.6006,1.9315,13.9152,47.5178,-0.0698,-0.0233,0.1336,223.0312
20:19:14:101,1.3349,1.7615,14.6909,46.7737,-0.0807,-0.145,0.1478,223.0312
20:19:14:123,0.7399,1.157,15.1913,49.6854,0.0293,-0.0062,0.2045,222.9219
20:19:14:143,0.1126,0.5764,13.8063,48.3889,0.2565,0.3104,0.3595,222.7656
20:19:14:170,0.0037,0.2544,11.4803,49.428,0.4498,0.3458,0.589,222.5938
20:19:14:181,0.3533,0.0365,10.3036,50.1198,0.5353,-0.0366,0.8127,222.2656
20:19:14:202,1.22,-0.0461,10.7285,48.7318,0.6067,-0.48,0.9736,221.3281
20:19:14:225,1.7934,0.1754,10.6603,52.0714,0.7215,-0.525,0.9965,220.375
20:19:14:242,1.7479,0.3657,9.2106,48.2393,0.7622,-0.2563,0.9251,219.2812
20:19:14:266,1.3576,0.5537,7.3515,51.2175,0.673,0.0625,0.8695,218.2031
20:19:14:282,1.111,0.8027,5.9401,51.2394,0.542,0.2271,0.8575,217.125
20:19:14:302,1.0069,1.0948,5.1836,50.5015,0.449,0.1664,0.8604,216.0781
20:19:14:328,1.0248,1.3234,5.2733,51.2368,0.4005,-0.0491,0.8546,215.0312
20:19:14:344,1.1541,1.4036,6.0311,51.6874,0.4,-0.2041,0.8338,214.0625
20:19:14:361,1.4295,1.5078,6.5099,52.4208,0.4573,-0.2169,0.8085,213.0625
20:19:14:382,1.7575,1.6801,6.6668,52.5124,0.4993,-0.1897,0.7462,212.0938
20:19:14:401,1.9083,1.8992,6.741,54.0866,0.5036,-0.1511,0.6596,211.2188
20:19:14:422,2.0771,2.1829,6.8595,53.5961,0.498,-0.2038,0.5523,210.3438
20:19:14:443,2.1609,2.3816,7.3383,54.5485,0.4711,-0.3277,0.4138,209.5781
20:19:14:462,2.4362,2.3721,8.1655,51.3373,0.4392,-0.4142,0.2737,209.2344
20:19:14:483,2.8301,2.481,8.5917,52.7591,0.3787,-0.3306,0.107,208.7031
20:19:14:502,3.2131,2.5684,8.9377,54.3476,0.2019,-0.2246,-0.1109,208.3281
20:19:14:526,2.7702,1.5078,10.8973,54.4519,-0.2554,0.1131,-0.4962,208.0938
20:19:14:543,2.3165,1.0265,11.5725,53.1401,-0.3726,0.3331,-0.4685,208.2344
20:19:14:566,2.5104,0.7943,11.3486,54.3819,-0.3699,0.4047,-0.3101,208.6562
20:19:14:581,3.1868,1.0062,10.7824,54.0387,-0.3547,0.2284,-0.1324,209.2188
20:19:14:601,4.4402,1.2923,10.7297,54.3841,-0.3984,-0.1921,-0.1023,209.7188
20:19:14:622,4.834,1.0744,12.1567,53.1233,-0.5356,-0.5895,-0.2906,210.0469
20:19:14:641,4.0439,0.4028,13.8625,54.7028,-0.6304,-0.4462,-0.4754,210.1875
20:19:14:661,2.9091,-0.167,13.6842,54.4303,-0.5673,0.168,-0.472,210.375
20:19:14:682,2.8349,-0.1203,11.2169,54.4739,-0.4163,0.6122,-0.2752,210.8125
20:19:14:701,3.6273,0.3969,9.0646,54.4739,-0.293,0.426,-0.129,211.4844
20:19:14:723,4.3204,0.8853,8.1045,53.7102,-0.2067,-0.0704,-0.1772,212.0625
20:19:14:742,4.1493,1.3713,7.6664,54.4857,-0.2131,-0.316,-0.3849,212.3281
20:19:14:761,3.3412,1.4383,6.9601,56.698,-0.3268,-0.178,-0.6366,212.4531
20:19:14:781,2.3428,1.4252,6.1353,53.6714,-0.5073,0.1091,-0.7982,212.8906
20:19:14:802,1.4785,1.4766,5.8982,53.8706,-0.645,0.255,-0.8408,213.5
20:19:14:821,0.8453,1.5628,6.1245,55.6228,-0.6069,0.2249,-0.7971,214.375
20:19:14:843,0.6214,1.7615,6.0934,55.596,-0.4205,0.0881,-0.7042,214.8594
20:19:14:865,0.7746,2.1087,5.8515,53.3455,-0.237,-0.0928,-0.6382,215.8438
20:19:14:881,0.8417,2.3457,6.1245,56.5724,-0.1744,-0.2454,-0.6664,216.7344
20:19:14:901,0.6154,2.3793,6.8272,54.7122,-0.2171,-0.2329,-0.7303,217.5781
20:19:14:921,0.4466,2.3792,7.8651,54.7291,-0.2959,-0.0736,-0.7505,218.3281
20:19:14:942,0.4179,2.4619,8.6145,54.6482,-0.3183,0.1142,-0.73,219.0781
20:19:14:960,0.4526,2.6474,9.1388,54.8241,-0.3007,0.1368,-0.7058,219.9531
20:19:14:982,0.4598,2.7767,9.796,54.7405,-0.281,0.099,-0.6967,221.2656
20:19:15:001,0.1174,2.7204,10.3479,56.7372,-0.2935,0.1309,-0.7039,222.0625
20:19:15:021,-0.4656,2.5612,10.9907,53.9968,-0.3409,0.2391,-0.6323,222.875
20:19:15:042,-0.7481,2.3685,11.6455,53.9826,-0.3577,0.2838,-0.4382,223.6875
20:19:15:062,-0.5134,2.2081,12.5745,56.6249,-0.3334,0.1373,-0.1852,224.4688
20:19:15:082,0.388,1.9435,13.9296,54.1898,-0.2525,-0.109,0.0676,225.0781
20:19:15:101,1.2427,1.8956,14.9591,52.5461,-0.1241,-0.2835,0.2503,225.4375
20:19:15:122,1.9251,2.0285,15.6702,55.2754,-0.0221,-0.3634,0.331,225.5156
20:19:15:143,2.2758,1.7053,16.331,53.3461,0.0418,-0.2286,0.3086,225.3438
20:19:15:161,2.4506,0.9834,16.222,52.5015,0.1462,0.2167,0.2849,225.0156
20:19:15:184,2.0017,0.4364,14.1415,53.8812,0.3356,0.715,0.2979,224.6719
20:19:15:201,1.4079,-0.0545,11.2936,53.914,0.5063,0.7645,0.3677,224.3438
20:19:15:222,1.1864,-0.4699,9.4021,52.3946,0.5651,0.3653,0.5174,223.9688
20:19:15:242,1.1194,-0.5513,8.9556,53.0422,0.5342,-0.1554,0.678,223.5156
20:19:15:265,0.8704,-0.3094,9.5087,52.6838,0.4842,-0.4441,0.7882,223.25
20:19:15:282,0.7531,-0.1718,9.7038,52.217,0.4631,-0.3634,0.8921,222.2656
20:19:15:302,0.6789,0.1107,8.9353,54.9359,0.4679,-0.1167,0.988,221.4219
20:19:15:322,0.7016,0.398,7.8591,52.8742,0.4693,0.0308,1.0641,220.4844
20:19:15:342,0.6669,0.647,7.2043,53.0881,0.4874,0.0412,1.1185,219.4375
20:19:15:365,0.6932,0.8063,6.7374,53.2655,0.5374,0.0332,1.176,218.2344
20:19:15:381,0.9949,1.0565,6.3005,51.4103,0.5987,0.0449,1.2298,216.9531
20:19:15:402,1.4989,1.406,6.073,53.2683,0.6274,0.0513,1.238,215.6719
20:19:15:422,2.0639,1.7687,6.2442,53.3247,0.6442,0.0303,1.1784,214.25
20:19:15:443,2.2411,2.0405,6.4154,54.3938,0.6698,-0.0211,1.0269,212.7812
20:19:15:461,2.1609,2.1398,6.9254,53.9872,0.6466,-0.0451,0.8458,211.3281
20:19:15:481,1.9071,2.1949,7.4832,54.0511,0.5888,0.0926,0.6846,210.0781
20:19:15:501,1.864,2.4415,7.8208,53.2878,0.5313,0.2521,0.5387,208.9531
20:19:15:522,1.8185,2.5983,7.9249,54.3327,0.466,0.3597,0.385,208.0312
20:19:15:543,2.1106,2.7025,8.144,54.3839,0.3696,0.2939,0.2244,207.2969
20:19:15:561,2.5595,2.4954,9.1663,55.0449,0.2453,0.0681,0.026,206.4375
20:19:15:581,2.9893,1.9938,10.4281,56.2108,0.1337,-0.0899,-0.1647,206.1094
20:19:15:601,3.2694,1.4371,11.6886,54.7188,0.0264,-0.0656,-0.3074,206.0469
20:19:15:621,3.7039,0.9547,12.1579,54.0944,-0.008,0.2596,-0.3617,206.2344
20:19:15:644,4.184,1.0696,10.3383,55.3756,-0.0016,0.613,-0.3798,206.5938
20:19:15:661,4.3851,1.8848,8.2757,57.5078,-0.1433,0.4881,-0.4728,206.9531
20:19:15:681,4.5862,2.0213,8.2098,57.1793,-0.4591,-0.0949,-0.7093,207.2969
20:19:15:701,4.2798,1.2336,10.9296,55.6637,-0.84,-0.5999,-0.9801,207.7656
20:19:15:723,2.8755,0.2759,14.2109,56.807,-1.0096,-0.5226,-1.0893,208.6094
20:19:15:744,1.8975,-0.4699,15.4738,56.4421,-0.7867,-0.0318,-0.8717,209.8125
20:19:15:764,2.3285,-0.246,13.1407,56.8487,-0.3635,0.3597,-0.4805,210.5156
20:19:15:781,3.3891,0.6099,10.2186,57.8647,-0.0655,0.1096,-0.2579,211.7969
20:19:15:801,4.0679,1.2743,8.8718,56.5011,0.025,-0.3061,-0.3255,212.5625
20:19:15:822,3.6585,1.4611,7.8746,57.0312,-0.0378,-0.3487,-0.5505,212.9062
20:19:15:844,2.6541,1.4647,6.8487,57.2669,-0.1816,-0.1383,-0.7154,213.4531
20:19:15:866,1.8125,1.6155,6.2789,58.1328,-0.3124,0.0385,-0.7537,214.125
20:19:15:882,1.4414,1.8142,6.079,56.8442,-0.2906,0.0777,-0.7199,214.9375
20:19:15:901,1.2786,2.1279,5.6504,58.0975,-0.1398,-0.043,-0.6957,215.8125
20:19:15:923,1.0129,2.7695,4.9717,58.2826,-0.0546,-0.2845,-0.8022,216.6406
20:19:15:942,0.643,2.9527,5.5116,55.3743,-0.1878,-0.2129,-0.8888,216.6406
20:19:15:966,0.4837,3.1023,6.2861,57.7636,-0.3116,-0.1032,-0.9538,217.4062
20:19:15:990,0.2731,3.3118,7.1145,58.3618,-0.4056,-0.0305,-1.0187,218.25
20:19:16:000,-0.14,3.3393,8.2601,57.6428,-0.4919,-0.0076,-1.0792,219.2188
20:19:16:067,-0.6284,3.1837,9.9552,58.2774,-0.5206,0.0316,-1.0802,222.5156
20:19:16:068,-1.039,3.0005,11.2457,57.7071,-0.4623,0.1709,-0.9977,222.5156
20:19:16:068,-1.4831,2.7372,11.7844,58.3699,-0.3952,0.2564,-0.8579,223.7812
20:19:16:093,-1.7309,2.2476,12.5397,58.4626,-0.3587,0.1855,-0.6121,224.9844
20:19:16:101,-1.1563,1.9303,13.5238,58.1902,-0.2863,0.0966,-0.2597,227.0938
20:19:16:124,0.3999,1.9136,13.829,57.7555,-0.1579,-0.0267,0.0314,227.4844
20:19:16:143,1.9035,2.1231,13.8506,58.493,-0.1361,-0.284,0.1118,227.9531
20:19:16:161,2.9031,1.983,15.3757,56.4753,-0.2213,-0.6403,0.0199,228.0781
20:19:16:180,2.8492,1.072,17.7807,58.3763,-0.1928,-0.6875,-0.1471,227.9844
20:19:16:201,1.5336,-0.179,17.8884,57.3013,0.0834,-0.0363,-0.198,227.9375
20:19:16:221,0.2491,-0.6949,13.5741,57.6752,0.3987,0.8359,0.0295,227.9844
20:19:16:244,-0.2178,-0.3142,9.2633,56.8127,0.4376,0.9906,0.4087,228.2031
20:19:16:263,0.2766,-0.1418,8.0985,56.9203,0.3768,0.3371,0.7547,228.4375
20:19:16:281,1.2619,-0.1227,9.0981,56.7059,0.4341,-0.3578,0.9749,228.3125
20:19:16:300,1.7862,0.4447,9.3615,55.8084,0.5822,-0.5002,1.058,227.7344
20:19:16:320,1.8484,1.1091,8.132,55.837,0.6243,-0.3021,1.0098,226.8281
20:19:16:344,1.8341,1.5975,6.8403,54.582,0.4748,-0.0368,0.8982,225.7969
20:19:16:362,1.7395,1.8178,6.3352,55.528,0.245,0.1336,0.7579,224.6094
20:19:16:380,1.2331,1.9303,6.4908,55.3882,0.1079,0.1634,0.6301,222.4062
20:19:16:400,0.8225,1.8561,6.7865,54.6741,0.0908,0.1445,0.5802,221.9844
20:19:16:421,0.6142,1.8298,7.2426,55.6329,0.1462,0.1301,0.6122,221.1719
20:19:16:443,0.9817,2.0237,7.6161,52.6246,0.2876,0.1288,0.6937,220.4688
20:19:16:461,1.6198,2.3972,7.2773,54.8223,0.4969,0.0771,0.7073,219.8125
20:19:16:481,2.0651,2.7001,6.8751,53.1625,0.6365,-0.0542,0.6119,219.0469
20:19:16:500,2.2878,2.7096,7.057,56.0566,0.6466,-0.1205,0.4697,218.1875
20:19:16:520,2.5116,2.7875,7.4976,54.0941,0.5747,-0.0211,0.3115,217.3906
20:19:16:542,2.8672,2.9203,7.579,53.7492,0.4879,0.1275,0.0974,216.7812
20:19:16:562,2.9941,2.8737,7.6101,53.0128,0.3502,0.1323,-0.1687,216.3125
20:19:16:580,3.1042,2.2547,8.5821,53.3367,0.1486,-0.039,-0.3881,216.0156
20:19:16:601,3.2897,1.4994,10.3083,53.2999,0.0101,-0.1753,-0.5002,216.0156
20:19:16:622,3.534,0.9343,11.3666,51.3445,-0.0192,-0.1631,-0.5529,216.3125
20:19:16:645,3.674,0.5429,11.2553,51.7844,-0.0503,-0.0001,-0.5769,216.8594
20:19:16:663,3.838,0.4459,10.1875,53.3064,-0.1787,0.1325,-0.6171,217.5
20:19:16:680,3.8847,0.4842,9.4333,53.6498,-0.4626,0.0111,-0.7463,218.125
20:19:16:700,3.5699,0.1742,10.6112,53.6498,-0.8924,-0.3572,-0.9482,218.4531
20:19:16:720,2.5212,-0.914,13.8314,53.43,-1.1835,-0.521,-1.0744,219.5625
20:19:16:743,1.3876,-1.6598,15.7169,52.4025,-1.0711,-0.0773,-0.9181,220.5312
20:19:16:762,1.6389,-1.3066,13.4926,52.4278,-0.6634,0.5086,-0.5535,221.8438
20:19:16:784,3.1234,-0.3274,9.7984,53.46,-0.3984,0.4481,-0.3268,223.1406
20:19:16:800,4.1253,0.6411,8.2481,51.9841,-0.4266,-0.0749,-0.3996,223.9688
20:19:16:822,3.8141,1.0995,8.7258,52.1714,-0.5683,-0.3916,-0.6834,224.3906
20:19:16:847,2.7762,0.9619,8.7485,51.7545,-0.6767,-0.166,-0.9628,224.75
20:19:16:862,1.3564,0.9212,7.9225,52.038,-0.7606,0.2465,-1.0925,225.4062
20:19:16:880,0.3437,0.8613,7.1217,51.9623,-0.7398,0.4385,-1.0557,226.375
20:19:16:901,-0.1471,1.0385,6.5602,51.7614,-0.5816,0.3759,-0.9013,227.5938
20:19:16:922,-0.1962,1.3354,6.0527,52.6869,-0.3473,0.1893,-0.7159,228.8438
20:19:16:944,0.0911,1.7388,5.4182,50.9343,-0.1494,0.0204,-0.5926,229.9062
20:19:16:961,0.3473,2.238,5.0615,49.9907,-0.1151,-0.0789,-0.5607,230.8281
20:19:16:980,0.4837,2.6199,5.6277,52.9151,-0.2131,-0.1141,-0.6094,231.8906
20:19:17:001,0.3664,2.7851,6.9289,52.6267,-0.319,-0.0776,-0.6941,232.5
20:19:17:021,0.0468,2.8725,8.3918,50.3651,-0.3449,0.0143,-0.7391,233.2188
20:19:17:045,-0.1567,2.9922,9.6164,50.0005,-0.2937,0.1048,-0.7266,234.0156
20:19:17:060,-0.1316,3.1095,10.5753,49.8013,-0.2202,0.2364,-0.7013,234.8281
20:19:17:080,-0.2812,3.1262,10.9117,51.4263,-0.184,0.4281,-0.6832,235.6562
20:19:17:101,-0.6894,2.9922,11.2541,51.6554,-0.2333,0.5187,-0.6336,236.4531
20:19:17:120,-0.6978,2.6642,12.5445,48.9692,-0.3017,0.5264,-0.5106,237.2188
20:19:17:143,-0.5362,2.1243,13.7572,51.768,-0.2735,0.5578,-0.3553,237.8906
20:19:17:162,-0.1986,1.5916,14.1918,49.713,-0.2256,0.5448,-0.1809,238.4531
20:19:17:180,0.1246,1.3605,15.0513,50.4656,-0.2562,0.3557,0.0005,238.8281
20:19:17:201,0.8177,0.9834,16.8445,49.154,-0.2253,0.043,0.1571,238.9375
20:19:17:220,1.4773,0.3956,18.3553,50.3738,-0.0109,-0.0944,0.221,239.0156
20:19:17:243,1.3493,-0.5369,18.0512,49.154,0.4069,0.0912,0.2529,238.9062
20:19:17:263,0.941,-1.1462,14.7711,49.7212,0.8994,0.3988,0.4173,238.6719
20:19:17:280,1.1469,-1.1642,10.6962,49.0253,1.1617,0.5469,0.6625,238.2812
20:19:17:300,2.356,-0.8613,7.5897,47.3555,1.1553,0.3355,0.8383,237.8125
20:19:17:323,2.7139,0.2029,7.1013,47.9151,0.6575,-0.6305,0.487,237.0625
20:19:17:345,2.6086,0.0126,8.235,46.2283,0.4791,-0.6443,0.2777,236.1562
20:19:17:363,1.9622,0.0437,7.7801,46.3707,0.3792,-0.3586,0.0623,235.375
20:19:17:381,1.038,0.1131,6.5195,45.9646,0.2304,-0.0334,-0.0597,234.6562
20:19:17:401,0.4885,0.1969,5.7223,43.9288,0.0583,0.1149,-0.0595,234.625
20:19:17:419,0.3138,0.3825,5.5056,43.9433,-0.0668,0.1024,-0.0022,234.625
20:19:17:440,0.473,0.6578,5.6852,43.8173,-0.1225,0.0305,0.0553,234.6875
20:19:17:460,0.5807,0.9284,5.9713,45.2785,-0.1246,-0.0369,0.0764,234.75
20:19:17:479,0.5795,1.1702,6.3256,44.4751,-0.1148,-0.0981,0.0753,234.7344
20:19:17:499,0.5699,1.3234,6.8763,44.4173,-0.1092,-0.1157,0.0868,234.6719
20:19:17:520,0.8441,1.6143,7.379,42.782,-0.0586,-0.1381,0.0876,234.5156
20:19:17:545,1.0991,2.0405,7.8339,43.8008,-0.0003,-0.2116,0.0002,234.4688
20:19:17:564,0.9614,2.1925,8.3547,43.5126,0.0445,-0.2875,-0.1511,234.375
20:19:17:580,0.6489,2.147,8.8323,43.812,0.0184,-0.2235,-0.2928,234.3281
20:19:17:600,0.4897,2.0369,9.0059,42.7194,-0.0983,-0.0137,-0.3982,234.4219
20:19:17:621,0.54,1.6478,9.4668,43.764,-0.3081,0.1272,-0.4523,234.7188
20:19:17:644,0.8764,1.3761,10.7022,44.2868,-0.5105,0.1858,-0.4472,235.1406
20:19:17:663,1.0452,1.005,12.3255,42.9132,-0.5622,0.161,-0.4398,235.375
20:19:17:681,0.9099,0.7368,13.2077,42.0107,-0.4059,0.2127,-0.3481,235.8438
20:19:17:700,1.2583,0.7895,12.1746,42.5405,-0.1667,0.2737,-0.1934,236.3438
20:19:17:720,1.943,1.0828,10.7357,43.2678,-0.0629,0.0814,-0.0925,236.8281
20:19:17:745,3.4047,1.5473,10.5885,40.8812,-0.1137,-0.3724,-0.1098,237.1875
20:19:17:764,4.8903,1.4443,12.6774,41.3611,-0.249,-1.0427,-0.3942,237.3906
20:19:17:782,5.2913,0.434,16.1454,41.9345,-0.2948,-1.2419,-0.8019,237.4844
20:19:17:800,4.9753,-0.9068,17.4455,41.6725,-0.0165,-0.6486,-1.0888,237.625
20:19:17:819,5.1249,-1.5389,13.8254,41.7835,0.3925,0.2127,-1.1705,238.5938
20:19:17:839,5.6624,-0.9822,8.9233,42.1042,0.481,0.5064,-1.26,239.7812
20:19:17:860,5.7366,-0.6099,6.498,41.5276,0.2213,0.0678,-1.599,241.0312
20:19:17:880,4.1505,-0.8051,7.2869,41.0736,-0.1654,-0.3887,-2.0054,242.3594
20:19:17:900,2.4733,-1.2803,8.6049,39.0382,-0.3579,-0.2819,-2.1628,243.9375
20:19:17:920,0.9829,-1.0792,8.1644,38.536,-0.3116,0.087,-2.1021,246.0469
20:19:17:943,0.3066,-0.659,6.838,38.9971,-0.1872,0.2606,-1.9093,248.375
20:19:17:961,0.3174,-0.1263,5.8396,38.3114,-0.069,0.1376,-1.6973,250.8594
20:19:17:984,0.2647,0.4112,5.5044,37.1904,0.0546,-0.1399,-1.5569,253.1406
20:19:18:002,0.1402,0.8829,5.5271,38.993,0.1409,-0.354,-1.4707,255.0938
20:19:18:021,-0.1004,1.2767,5.6205,38.7589,0.1481,-0.4023,-1.415,256.9375
20:19:18:043,-0.2321,1.6909,5.915,38.2914,0.0914,-0.3658,-1.3748,258.6875
20:19:18:060,-0.183,2.1698,6.6416,36.8247,0.0016,-0.2933,-1.3868,260.375
20:19:18:124,-0.3219,2.4714,7.5526,37.2143,-0.0895,-0.1588,-1.4805,261.1094
20:19:18:125,-0.9863,2.5217,8.4433,37.2369,-0.1723,0.0409,-1.5711,263.5
20:19:18:125,-1.6639,2.4008,9.1005,37.9842,-0.2501,0.2958,-1.5852,265.1562
20:19:18:148,-2.4073,2.4008,9.3746,37.0932,-0.3049,0.5594,-1.5151,266.8281
20:19:18:161,-3.0046,2.5169,9.717,36.8478,-0.3507,0.655,-1.3809,268.6406
20:19:18:179,-3.3949,2.4187,10.5214,36.7542,-0.3707,0.6311,-1.1982,270.3906
20:19:18:200,-3.6068,2.0393,11.2122,36.5634,-0.3696,0.5429,-0.9551,271.9375
20:19:18:220,-3.098,1.6526,12.3351,36.7381,-0.4298,0.3466,-0.6494,273.375
20:19:18:244,-2.0505,1.5568,14.4216,35.7342,-0.5262,0.0947,-0.3761,274.5781
20:19:18:263,-1.1587,1.2324,16.7883,37.6694,-0.4924,-0.0824,-0.2067,275.4531
20:19:18:280,-0.5805,0.1586,18.396,35.5938,-0.2892,-0.0595,-0.072,275.9688
20:19:18:299,-0.3602,-0.8314,18.39,36.8224,0.1121,0.1983,0.1784,276.2656
20:19:18:319,-0.1328,-1.1965,15.5648,36.4187,0.6333,0.4755,0.5267,276.4219
20:19:18:341,0.7016,-1.2276,11.5665,35.7594,0.9593,0.5064,0.9187,276.375
20:19:18:360,2.6876,-0.8003,8.5737,35.7256,0.9928,0.1155,1.213,275.6562
20:19:18:379,3.4585,0.1478,7.7944,34.812,0.7486,-0.4885,1.0647,274.625
20:19:18:400,2.0603,0.2592,9.0167,35.9314,0.3949,-0.7607,0.7328,273.3594
20:19:18:419,1.0811,0.1502,10.027,35.8397,0.1936,-0.4624,0.7139,272.2031
20:19:18:440,0.9326,0.7189,9.1651,35.1403,0.2168,-0.0941,0.7906,271.4375
20:19:18:461,1.0955,1.175,7.5466,35.4225,0.2927,-0.0169,0.772,270.7031
20:19:18:483,0.9339,1.3485,6.4836,35.8007,0.3286,-0.1301,0.728,269.8125
20:19:18:499,0.7615,1.4886,6.1628,35.7501,0.3438,-0.2728,0.7025,268.9531
20:19:18:520,0.9446,1.5365,6.2119,36.9952,0.359,-0.3194,0.6897,268.1406
20:19:18:547,1.2116,1.6801,6.1652,35.1403,0.3819,-0.2496,0.6551,267.4062
20:19:18:563,1.3995,1.9734,5.9677,36.5332,0.38,-0.1626,0.5821,266.6562
20:19:18:583,1.6186,2.1757,6.0084,34.549,0.3531,-0.1444,0.4575,265.5938
20:19:18:603,1.1457,2.2775,7.1899,35.7817,0.3555,-0.2134,0.1738,265.0469
20:19:18:629,0.8261,2.2368,7.3743,35.9674,0.3878,-0.2193,0.0913,264.6406
20:19:18:641,0.9015,2.3601,7.3491,35.8759,0.3358,-0.2156,0.0351,264.3906
20:19:18:662,1.4594,2.3768,7.7286,36.7768,0.167,-0.2614,-0.081,264.25
20:19:18:682,2.2638,2.1614,8.97,36.9719,-0.0772,-0.4169,-0.2515,264.25
20:19:18:703,3.0144,1.673,10.8758,36.9719,-0.2924,-0.5032,-0.4576,264.375
20:19:18:725,3.3137,1.1474,12.2297,37.0188,-0.4349,-0.4086,-0.6589,264.7031
20:19:18:741,3.589,0.5537,12.535,36.3101,-0.5329,-0.1698,-0.811,264.7031
20:19:18:763,3.5998,0.343,11.6228,36.3101,-0.6575,-0.0699,-0.9657,265.2812
20:19:18:779,3.4023,0.2735,12.2932,36.852,-0.8996,-0.3522,-1.146,266.0938
20:19:18:800,2.5775,-0.4603,15.3577,36.791,-1.0634,-0.6068,-1.3316,268.125
20:19:18:819,0.947,-1.5484,17.8285,38.3499,-0.8812,-0.2499,-1.3005,268.125
20:19:18:841,0.4598,-1.8513,15.9036,38.5611,-0.3686,0.5062,-0.8973,271.0781
20:19:18:862,1.7407,-0.7991,11.3833,36.8621,0.0831,0.6809,-0.4145,271.0781
20:19:18:879,3.8811,0.5082,8.5331,39.4385,0.2884,0.0593,-0.2347,272.5312
20:19:18:903,5.2985,1.6059,8.0171,39.9323,0.2802,-0.7282,-0.4856,273.5156
20:19:18:919,4.8735,1.5078,8.6827,39.4875,0.1252,-0.9402,-0.9966,274.2031
20:19:18:941,3.4897,0.8757,8.5869,40.1177,-0.061,-0.4856,-1.4014,274.4375
20:19:18:962,2.1549,0.6602,7.166,41.3408,-0.2442,0.1395,-1.5852,275.3438
20:19:18:979,1.1793,0.7596,6.0479,40.3494,-0.3739,0.3983,-1.6254,276.8125
20:19:18:999,0.5101,0.7596,5.9677,40.8684,-0.3345,0.2875,-1.5641,278.4844
20:19:19:019,0.2802,0.8338,5.8659,41.6199,-0.1252,0.0457,-1.4395,279.3906
20:19:19:039,0.1701,1.0876,5.5164,40.8837,0.0679,-0.2001,-1.3258,281.2344
20:19:19:061,0.0456,1.388,5.6456,40.7177,0.1124,-0.3375,-1.2422,283
20:19:19:079,0.0133,1.6119,6.3304,41.254,0.0586,-0.2994,-1.1865,284.5625
20:19:19:099,-0.0418,1.9172,7.2258,44.1583,-0.0043,-0.1293,-1.1492,286.0938
20:19:19:119,0.2731,2.2978,8.1356,41.8164,-0.025,0.0068,-1.1391,287.5469
20:19:19:139,0.4849,2.6354,8.8838,43.1688,-0.0117,0.0761,-1.2123,288.8594
20:19:19:160,0.4311,2.8473,9.4452,44.2471,-0.0293,0.1541,-1.304,290.1875
20:19:19:179,0.0947,2.8964,9.8463,44.4504,-0.1049,0.2819,-1.4014,291.4844
20:19:19:199,-0.7373,2.815,10.3084,44.6823,-0.2202,0.3498,-1.4747,292.875
20:19:19:221,-1.3873,2.4319,11.2433,44.4467,-0.3571,0.3296,-1.4528,295.0625
20:19:19:238,-1.9224,1.7304,12.3853,46.0933,-0.4716,0.2537,-1.3237,296.6875
20:19:19:258,-1.9655,0.981,13.7117,45.7488,-0.6117,-0.0358,-1.0957,298.2656
20:19:19:280,-1.6196,0.3178,16.5979,45.8649,-0.7835,-0.4723,-0.7979,299.8438
20:19:19:298,-1.6926,-0.8182,19.9654,46.1741,-0.706,-0.554,-0.4965,301.2344
20:19:19:318,-2.3953,-2.0488,20.3484,46.4864,-0.176,-0.2622,-0.0632,302.3281
20:19:19:340,-2.4851,-2.3445,16.8673,47.3181,0.5278,0.1544,0.6508,303.0312
20:19:19:362,-1.3047,-1.4299,11.6635,48.3494,1.0024,0.4172,1.3632,303.3906
20:19:19:378,0.3317,-0.4471,7.3348,49.0665,1.097,0.2446,1.7076,303.0938
20:19:19:398,1.0871,0.3969,5.2147,48.7401,0.8381,-0.2462,1.7267,301.9688
20:19:19:419,1.1038,0.7632,6.0215,47.0642,0.4565,-0.7399,1.6759,300.1562
20:19:19:440,1.4007,0.8936,7.8758,49.1906,0.2884,-0.8385,1.6918,298.1719
20:19:19:461,1.5659,1.2755,8.3008,49.7108,0.404,-0.7125,1.6114,296.3594
20:19:19:479,1.463,1.552,7.1516,49.5527,0.5289,-0.4747,1.4575,294.5
20:19:19:499,1.2439,1.7005,5.7642,51.4551,0.4559,-0.2265,1.3161,292.6406
20:19:19:520,0.9793,1.8872,5.2422,50.0362,0.2858,-0.0909,1.2039,291.7656
20:19:19:539,1.0057,1.9495,5.49,50.9339,0.1646,-0.0712,1.1075,288.7031
20:19:19:561,0.9769,1.9686,6.1281,52.0527,0.1656,-0.1532,1.0143,288
20:19:19:579,1.1074,1.9387,6.5638,50.2947,0.2703,-0.2299,0.9344,286.6719
20:19:19:603,1.4953,1.8717,6.7135,50.9889,0.3798,-0.3106,0.8436,285.5156
20:19:19:618,2.0663,1.6682,7.063,51.4983,0.4258,-0.4105,0.735,284.4219
20:19:19:639,2.5428,1.4144,7.658,53.791,0.3907,-0.4584,0.6055,283.4062
20:19:19:661,3.1461,1.2612,8.6983,52.7065,0.2762,-0.3397,0.4809,282.5
20:19:19:679,3.7794,1.0912,9.213,52.2561,0.1571,-0.0214,0.3208,281.7969
20:19:19:700,4.2211,1.1498,9.0358,54.8612,-0.0024,0.2521,0.1161,281.2031
20:19:19:719,4.5084,1.0181,8.9939,53.7375,-0.2408,0.2742,-0.1476,280.75
20:19:19:739,4.2103,0.5896,9.8798,53.2196,-0.4818,0.1735,-0.4043,280.4844
20:19:19:763,3.4442,0.0078,10.8614,54.3676,-0.5872,0.0934,-0.5676,280.4531
20:19:19:779,2.787,-0.5513,11.2253,54.4795,-0.5728,0.0574,-0.5636,280.7812
20:19:19:799,3.1174,-0.7667,10.9081,57.346,-0.5508,-0.1018,-0.4539,281.7031
20:19:19:818,3.9266,-0.3777,10.9512,55.1159,-0.6213,-0.452,-0.4307,282.375
20:19:19:842,4.4677,-0.2233,12.857,55.7457,-0.7808,-0.8478,-0.643,282.9375
20:19:19:861,3.6764,-0.8865,15.2464,54.664,-0.8248,-0.81,-0.9141,283.4844
20:19:19:879,2.6074,-1.5796,15.979,56.8411,-0.6493,-0.2217,-0.9532,284.3438
20:19:19:899,2.3488,-1.3641,13.1982,56.0474,-0.4274,0.5163,-0.7785,284.8906
20:19:19:919,2.8552,-0.4782,10.2353,57.3723,-0.3787,0.6289,-0.6491,286.1094
20:19:19:939,3.2179,0.1957,9.1041,56.5954,-0.3816,0.3192,-0.6976,287.0938
20:19:19:961,2.8468,0.5477,8.4888,54.4858,-0.3422,0.1067,-0.8589,287.8906
20:19:19:983,2.0352,0.5369,7.5802,56.3493,-0.3225,0.1216,-0.9958,288.625
20:19:19:999,1.3959,0.6662,6.6536,56.5444,-0.3678,0.2446,-1.0315,289.5312
20:19:20:026,0.9817,1.0553,6.2741,57.8831,-0.4211,0.3112,-1.0233,290.5625
20:19:20:038,0.7148,1.3174,6.3483,58.559,-0.3981,0.3024,-1.0105,292.3438
20:19:20:059,0.5676,1.5149,6.4621,57.4534,-0.2868,0.2644,-0.9767,293.4688
20:19:20:079,0.5903,1.8394,6.5447,56.066,-0.1292,0.2159,-0.9143,294.6406
20:19:20:102,0.7866,2.299,6.6021,56.9245,0.0123,0.1703,-0.8675,295.7656
20:19:20:118,0.7507,2.7121,6.9122,58.2086,0.0895,0.1347,-0.8656,296.7969
20:19:20:170,1.1434,3.1921,8.1093,58.9297,0.1696,0.1296,-0.8712,297.75
20:19:20:170,1.3062,3.2555,8.812,59.3457,0.1401,0.1253,-0.9647,298.7344
20:19:20:180,1.123,3.1669,9.6847,58.0158,0.0376,0.2169,-1.0677,298.7344
20:19:20:199,0.546,2.815,10.5071,59.4071,-0.1097,0.4138,-1.1253,299.7031
20:19:20:219,-0.207,2.293,11.4719,59.6159,-0.24,0.6138,-1.0427,301.7344
20:19:20:240,-0.5601,1.7053,12.2836,58.4356,-0.236,0.6942,-0.7998,304.2188
20:19:20:262,-0.6643,1.2911,12.5876,58.3638,-0.1134,0.5941,-0.4549,304.2188
20:19:20:281,-0.207,1.2025,12.5206,59.3541,-0.0005,0.3925,-0.0861,305.3281
20:19:20:299,0.5256,1.5317,12.8893,60.2737,-0.0069,0.063,0.2103,306.2188
20:19:20:318,1.2666,1.7615,14.728,59.7875,-0.0679,-0.3335,0.347,306.7969
20:19:20:340,1.2164,1.1343,16.823,59.0459,0.032,-0.4606,0.3504,306.7188
20:19:20:362,0.0312,0.2975,17.0013,58.1648,0.3744,-0.1327,0.4734,306.375
20:19:20:379,-0.0262,-0.1035,14.2205,58.9112,0.8472,0.234,0.7656,305.9688
20:19:20:398,0.1857,0.2975,10.4281,58.8302,1.0778,0.2862,0.9509,305.5781
20:19:20:418,0.7387,0.8529,8.223,57.631,0.9257,-0.125,0.9802,305.2656
20:19:20:438,0.7399,1.2755,8.9449,58.3642,0.583,-0.7085,0.8476,304.375
20:19:20:460,0.4478,0.9667,11.0182,56.388,0.4104,-0.9399,0.7222,303.2656
20:19:20:480,0.4706,0.5728,11.5438,57.1007,0.4943,-0.6744,0.6769,302.2188
20:19:20:498,0.0336,0.6434,9.881,57.4732,0.6559,-0.1775,0.6535,301.2969
20:19:20:520,-0.3255,0.6794,7.4736,56.472,0.7049,0.1685,0.6687,300.5312
20:19:20:538,-0.2812,0.7249,5.836,55.8384,0.6525,0.2111,0.7278,299.8281
20:19:20:561,0.0241,0.9918,5.4649,56.8088,0.5763,0.03,0.7723,299.0781
20:19:20:579,0.4574,1.2264,5.8899,56.3324,0.5987,-0.2172,0.7699,298.2656
20:19:20:598,0.8249,1.3509,5.9437,56.3971,0.698,-0.4742,0.6948,297.4375
20:19:20:618,1.0164,1.242,6.4178,57.4065,0.7547,-0.6212,0.6077,296.0938
20:19:20:639,1.2774,0.9679,6.8308,56.6087,0.7697,-0.4544,0.5659,295.25
20:19:20:660,1.6521,0.9894,6.6572,54.9693,0.7129,-0.0768,0.5248,294.5938
20:19:20:678,2.0089,1.4826,6.2286,54.9692,0.5563,0.2297,0.4162,293.9531
20:19:20:698,2.125,1.4635,6.5183,55.8434,0.3334,0.3618,0.2066,293.3125
20:19:20:718,1.5444,1.1618,7.4641,55.4597,0.065,0.5986,0.0505,292.7031
20:19:20:738,1.2427,1.2588,8.6719,55.0632,-0.1747,0.7903,-0.0171,292.2969
20:19:20:762,2.2495,1.1474,9.6763,55.9651,-0.2607,0.7064,-0.1559,292.0781
20:19:20:780,1.955,1.2468,10.3443,55.0213,-0.2578,0.3456,-0.395,291.9531
20:19:20:798,3.1557,0.3681,11.0158,54.9441,-0.3997,0.0936,-0.5679,291.9062
20:19:20:818,3.3843,-0.1802,11.5174,54.811,-0.6613,0.063,-0.7918,292.1719
20:19:20:842,3.3544,-0.5429,12.4248,55.912,-1.0157,0.1509,-0.9767,292.6875
20:19:20:861,2.6349,-1.0612,13.6555,56.3476,-1.3457,0.3759,-1.1215,293.4375
20:19:20:880,1.3038,-1.6382,14.5162,55.9828,-1.5172,0.8897,-1.0975,294.4531
20:19:20:898,0.2216,-1.6705,13.5429,54.9275,-1.4003,1.4535,-0.7689,295.6562
20:19:20:919,0.4418,-1.3366,11.515,54.1633,-1.0783,1.3925,-0.2304,296.2969
20:19:20:938,1.7443,-0.5357,9.9289,53.2624,-0.6927,0.5493,0.2862,298.1562
20:19:20:961,3.3676,0.9679,9.6703,55.7999,-0.3537,-0.6273,0.5115,298.2969
20:19:20:979,4.3636,1.8729,10.1623,54.8693,-0.1342,-1.3503,0.3118,298.1406
20:19:21:000,3.7997,1.8813,10.1216,54.0739,-0.0775,-1.202,-0.0669,297.6406
20:19:21:018,2.6361,1.7783,8.8,54.4049,-0.1356,-0.4571,-0.3497,297.1719
20:19:21:038,1.7084,1.9567,6.7015,53.8977,-0.2762,0.2439,-0.5183,297.1094
20:19:21:062,1.1697,2.0213,5.4972,53.7414,-0.4165,0.4939,-0.6174,297.4219
20:19:21:081,0.6202,2.1853,5.411,53.5441,-0.429,0.3666,-0.6667,297.9219
20:19:21:098,0.303,2.3457,5.7043,52.8697,-0.3052,0.0723,-0.6664,298.5469
20:19:21:118,0.2347,2.5708,6.2454,52.5007,-0.1744,-0.1719,-0.6531,299.2656
20:19:21:139,0.2551,2.8569,7.0056,51.9019,-0.0826,-0.251,-0.6515,299.9844
20:19:21:162,0.1797,3.0736,7.8962,52.3493,0.029,-0.2717,-0.6992,300.7344
20:19:21:178,0.0324,3.1598,8.5354,53.2414,0.1542,-0.2435,-0.7553,301.4844
20:19:21:197,-0.025,3.0927,8.879,54.3324,0.1979,-0.1615,-0.7993,302.2344
20:19:21:218,-0.0083,3.1753,9.5661,53.2848,0.1316,-0.019,-0.8424,303.5156
20:19:21:239,-0.1076,3.1969,10.355,53.3544,-0.0045,0.263,-0.921,304.4375
20:19:21:262,-0.6631,2.9431,10.8111,51.7896,-0.1864,0.5387,-0.9934,305.3594
20:19:21:280,-1.3586,2.2895,11.8083,52.6285,-0.351,0.6487,-0.9356,306.4062
20:19:21:298,-1.8674,1.4671,13.4124,52.4165,-0.3606,0.5746,-0.7031,307.5156
20:19:21:318,-1.92,0.8098,14.5629,53.3441,-0.1808,0.4098,-0.346,308.5625
20:19:21:338,-1.5705,0.6818,14.7053,51.8391,0.0229,0.2321,0.0348,309.2812
20:19:21:358,-0.9324,1.0421,14.8262,51.9963,0.0935,-0.0062,0.3406,309.6719
20:19:21:378,-0.2692,0.7536,15.8018,52.2528,0.1342,-0.2757,0.4849,309.625
20:19:21:398,-0.5937,0.0928,16.562,52.1906,0.3768,-0.4206,0.6276,309.2656
20:19:21:417,-0.1447,-0.5884,15.7145,51.2251,0.8637,-0.373,0.8873,308.7188
20:19:21:440,0.4837,-0.6614,12.0657,51.1423,1.2964,-0.1503,1.062,308.3906
20:19:21:461,1.0631,-0.24,8.32,49.7508,1.2639,-0.1732,1.1014,307.5625
20:19:21:480,1.3193,0.3645,7.33,50.5945,0.8184,-0.4648,0.9976,306.5156
20:19:21:502,0.9578,0.5094,8.879,50.3414,0.4104,-0.7474,0.8436,305.2969
20:19:21:519,0.4933,0.2185,9.8774,50.6723,0.3537,-0.7263,0.76,303.5781
20:19:21:539,0.4299,-0.009,8.9915,49.9688,0.5063,-0.501,0.8082,302.7344
20:19:21:562,0.3401,0.659,5.5547,51.2034,0.555,-0.2257,0.9954,301.9375
20:19:21:579,0.7411,1.0241,5.2243,48.854,0.4376,-0.3394,1.0199,301.0469
20:19:21:598,1.0332,1.2181,5.6097,48.1817,0.3803,-0.4648,0.9523,300.0938
20:19:21:619,1.123,1.2468,6.0383,49.2645,0.3934,-0.5237,0.8585,297.8125
20:19:21:637,1.0093,1.0936,6.3891,47.9088,0.4413,-0.4624,0.7989,297.8125
20:19:21:659,1.0021,0.9655,6.3519,47.2818,0.4943,-0.3381,0.8023,295.875
20:19:21:679,1.4354,1.1163,6.146,45.9404,0.4943,-0.2198,0.8071,295.875
20:19:21:698,1.9765,1.5688,5.9258,46.3009,0.4258,-0.1503,0.7097,295
20:19:21:718,2.2495,2.0716,6.1496,45.8886,0.2613,-0.1362,0.4623,294.0938
20:19:21:737,2.3596,2.2954,6.486,46.5263,-0.0008,-0.0438,0.1363,293.2188
20:19:21:759,2.3177,2.062,7.3503,45.8172,-0.3774,0.0891,-0.1806,292.3906
20:19:21:780,2.3572,1.4431,8.9855,46.2713,-0.7523,0.2225,-0.3929,291.75
20:19:21:800,2.6565,0.9152,10.9811,44.4508,-0.9563,0.2915,-0.5213,291.7969
20:19:21:817,2.6242,0.5237,12.6762,45.4068,-0.9673,0.2939,-0.6294,292.1562
20:19:21:839,2.7427,0.1048,13.3334,44.5914,-0.8591,0.3799,-0.6667,292.4219
20:19:21:859,3.1569,-0.0952,12.5888,45.7535,-0.7768,0.4553,-0.647,293.0469
20:19:21:880,3.4968,0.2604,11.776,45.6418,-0.8293,0.3925,-0.6547,293.75
20:19:21:897,3.5423,0.3813,12.019,46.8818,-0.9848,0.1384,-0.8163,294.5156
20:19:21:920,2.9067,-0.1239,13.1874,45.3837,-1.0996,0.055,-1.0139,295.2656
20:19:21:937,1.4714,-0.5836,13.0988,44.3801,-1.0504,0.3453,-1.0643,295.9688
20:19:21:958,0.5113,-0.7177,11.9244,46.5101,-0.8709,0.5661,-0.8499,296.9375
20:19:21:979,0.8393,-0.6698,10.4604,43.0174,-0.5971,0.3024,-0.4981,298.1406
20:19:22:000,1.9035,-0.0437,9.9289,44.4955,-0.3832,-0.2981,-0.2035,299.2969
20:19:22:025,3.2993,0.6135,10.3526,44.5146,-0.232,-0.8055,-0.1644,300.2812
20:19:22:037,3.589,0.853,10.2844,44.889,-0.1457,-0.8374,-0.3785,301
20:19:22:058,2.6277,0.7464,9.3208,46.0743,-0.135,-0.4566,-0.6097,301.1875
20:19:22:078,1.2906,0.6638,7.5706,44.993,-0.1707,-0.0083,-0.6941,301.5
20:19:22:098,0.5089,0.7871,6.3124,43.3375,-0.2498,0.2263,-0.6326,302.1094
20:19:22:118,0.4191,0.9667,6.0323,42.8464,-0.3041,0.251,-0.5173,302.8906
20:19:22:138,0.5639,1.2252,6.3352,44.0445,-0.2759,0.1988,-0.4249,303.6406
20:19:22:163,0.7711,1.5125,6.5578,43.5378,-0.1566,0.156,-0.386,304.2969
20:19:22:178,0.9147,1.7927,6.5339,44.0768,-0.0181,0.0915,-0.4094,304.8438
20:19:22:222,0.5963,1.9016,6.6871,43.0172,0.0423,-0.0302,-0.4717,305.2812
20:19:22:222,0.2395,1.8848,7.6436,41.6689,0.0562,-0.1122,-0.4544,305.7188
20:19:22:237,0.3305,2.0512,8.7102,42.1524,0.1204,-0.1183,-0.383,306.2344
20:19:22:259,0.4682,2.2308,9.1974,42.9523,0.1891,-0.052,-0.3671,306.75
20:19:22:278,0.5352,2.3541,9.553,41.04,0.1529,0.1179,-0.3857,307.2188
20:19:22:298,0.4035,2.2631,9.8319,41.4854,0.0245,0.3376,-0.4238,307.6406
20:19:22:320,-0.0071,2.0907,10.5897,42.0346,-0.1422,0.5038,-0.4312,308.0625
20:19:22:338,0.0217,1.8274,11.3798,42.8487,-0.2511,0.5363,-0.3684,308.4844
20:19:22:357,0.1545,1.5161,12.5146,42.9123,-0.3164,0.3637,-0.3047,309.2188
20:19:22:378,0.3437,0.8745,13.9667,40.8661,-0.3481,0.1546,-0.2424,309.4375
20:19:22:398,0.2276,0.3035,15.1482,42.2552,-0.3609,0.091,-0.1564,309.7969
20:19:22:422,-0.0741,0.0377,15.572,43.0993,-0.3856,0.1743,-0.019,310.125
20:19:22:437,-0.5841,-0.4076,15.9802,39.9868,-0.3734,0.2675,0.1464,310.3438
20:19:22:458,-1.2892,-0.8853,16.0042,42.1073,-0.1526,0.3163,0.4146,310.4531
20:19:22:479,-1.3706,-1.1618,14.5868,44.0361,0.274,0.3674,0.8095,310.3906
20:19:22:497,-0.9827,-1.0193,12.0154,43.3706,0.6794,0.2894,1.1826,310.0938
20:19:22:517,-0.0143,-0.9092,10.0067,42.3852,0.8986,-0.023,1.45,309.4062
20:19:22:538,0.9123,-0.5249,9.2298,42.8397,0.9284,-0.4627,1.5565,308.3125
20:19:22:557,1.6402,-0.2424,9.8331,42.424,0.8762,-0.7586,1.5214,306.7812
20:19:22:577,1.6569,0.009,10.1587,42.4507,0.897,-0.7213,1.4191,305.0312
20:19:22:596,1.5085,0.179,9.4237,42.7445,0.9755,-0.5213,1.3542,303.375
20:19:22:617,1.6808,0.3071,8.2469,42.9159,1.0456,-0.3061,1.3046,300.9062
20:19:22:638,1.6294,0.5596,6.6847,44.5233,1.0799,-0.1386,1.2274,299.3594
20:19:22:658,1.5049,0.7943,5.3524,43.3824,1.0557,-0.1229,1.1462,297.9219
20:19:22:679,1.6294,0.9439,4.5228,43.3824,0.9641,-0.2329,1.0529,296.4844
20:19:22:697,1.7144,1.1654,4.573,44.4779,0.8184,-0.3801,0.9267,295.1406
20:19:22:717,1.8508,1.1869,5.2135,44.2379,0.6874,-0.4683,0.7672,293.9062
20:19:22:737,1.8652,0.9703,5.8372,43.8685,0.595,-0.41,0.6103,292.9062
20:19:22:758,1.7072,0.7883,6.1819,44.3836,0.522,-0.2558,0.5251,292.0469
20:19:22:780,1.7299,0.9559,6.316,44.728,0.4306,-0.1359,0.5107,291.3594
20:19:22:799,2.0699,1.1714,6.9649,43.5721,0.3284,-0.1282,0.4934,290.7812
20:19:22:819,2.8169,1.6574,7.5766,43.1178,0.2599,-0.1261,0.4199,290.1875
20:19:22:837,3.5423,2.0081,7.828,45.3554,0.1696,-0.1615,0.2026,289.8906
20:19:22:860,3.7889,2.0429,8.0147,43.9442,-0.0085,-0.2518,-0.0754,289.3438
20:19:22:880,3.9937,1.8956,8.9855,45.9338,-0.2903,-0.3823,-0.281,289
20:19:22:898,4.1337,1.6011,10.7896,44.1156,-0.5675,-0.3306,-0.4113,288.9375
20:19:22:920,3.9027,1.1522,11.8478,45.7716,-0.6858,-0.0656,-0.4842,289.4375
20:19:22:937,3.4202,0.7452,11.2756,45.8282,-0.7159,0.0851,-0.4637,289.9844
20:19:22:959,2.7498,0.2233,11.8203,46.2073,-0.8778,-0.5274,-0.2928,290.6094
20:19:22:979,2.4482,-0.2376,13.671,45.6012,-0.8983,-0.6672,-0.1828,290.6094
20:19:23:002,2.6301,-0.7093,14.679,45.4826,-0.7329,-0.3138,-0.0352,291.6875
20:19:23:017,3.1353,-0.7799,13.3849,45.311,-0.4738,0.1858,0.0796,292.1562
20:19:23:037,3.6453,-0.5525,11.0206,46.6352,-0.3121,0.2758,0.1099,292.5156
20:19:23:057,4.1972,0.0198,10.0534,45.9743,-0.3193,-0.0712,0.0127,292.6562
20:19:23:081,4.2929,0.4866,10.7262,44.7572,-0.3808,-0.3176,-0.2129,292.5938
20:19:23:098,3.6261,0.4328,10.7836,46.7506,-0.3057,-0.1538,-0.4794,292.4844
20:19:23:117,2.6337,0.5381,8.9245,47.2195,-0.1971,0.2444,-0.6299,292.5
20:19:23:137,1.9669,0.8098,6.8032,45.295,-0.196,0.5634,-0.6773,292.7969
20:19:23:159,1.5839,0.9942,5.3595,47.2111,-0.2461,0.6369,-0.717,294.125
20:19:23:178,1.1769,1.1797,4.6664,46.675,-0.3031,0.5456,-0.746,294.4844
20:19:23:197,0.9386,1.2468,4.5323,49.0709,-0.3167,0.3783,-0.7322,295.2344
20:19:23:217,0.9853,1.5209,4.6904,49.3431,-0.3105,0.1917,-0.7023,296.0625
20:19:23:237,1.1721,1.9052,5.514,49.9268,-0.3193,0.0076,-0.7122,296.9062
20:19:23:256,1.1134,2.2224,6.4932,48.5553,-0.3132,-0.1144,-0.7692,297.6875
20:19:23:277,0.7579,2.3302,7.567,49.8667,-0.3318,-0.1173,-0.8057,298.0938
20:19:23:297,0.3712,2.4319,8.7246,47.5728,-0.3856,0.0359,-0.7684,298.9375
20:19:23:317,0.1689,2.6438,9.7409,48.2602,-0.4413,0.2436,-0.7047,299.8438
20:19:23:337,-0.3997,2.5672,10.7094,50.4381,-0.5055,0.2814,-0.6661,300.75
20:19:23:357,-1.4903,2.0453,12.6571,49.7076,-0.5803,0.0777,-0.5439,301.6562
20:19:23:378,-1.9991,1.5903,15.4319,51.1265,-0.5475,-0.027,-0.2262,302.4844
20:19:23:398,-1.8111,1.2983,17.3533,49.7181,-0.278,0.1434,0.1672,303.2344
20:19:23:417,-0.9839,1.3438,16.5716,49.315,0.0852,0.5589,0.5587,304.1875
20:19:23:437,-0.0382,1.5844,14.5162,50.5333,0.261,0.7616,0.8181,304
20:19:23:459,0.9446,1.6969,13.8183,51.1747,0.245,0.5701,0.9616,303.75
20:19:23:477,1.6772,1.3761,14.7173,51.4191,0.2698,0.2135,1.0056,302.9219
20:19:23:496,1.767,0.6494,15.4164,50.3064,0.5334,0.0343,1.0263,301.8594
20:19:23:518,1.7551,-0.1993,13.9691,49.5336,0.9452,0.12,1.1366,300.7031
20:19:23:537,1.9466,-0.4028,10.6819,50.8758,1.2216,0.2734,1.3017,299.5781
20:19:23:559,2.8839,-0.1191,7.8974,52.0289,1.1891,0.0979,1.3669,298.3438
20:19:23:579,3.5854,0.5453,7.0067,52.034,0.8871,-0.3839,1.2394,296.8906
20:19:23:597,3.7207,0.7991,8.3595,52.0104,0.5483,-0.7769,0.96,295.3594
20:19:23:617,2.8935,0.6494,9.365,50.7571,0.4139,-0.6987,0.6764,293.8125
20:19:23:637,1.9179,0.2723,8.9341,51.1359,0.4298,-0.3069,0.5302,292.5469
20:19:23:658,0.7914,-0.0305,7.4712,51.8332,0.4557,0.0966,0.5486,291.7031
20:19:23:677,0.0516,-0.0186,6.2789,52.2062,0.4701,0.2641,0.7475,291.0625
20:19:23:697,0.2096,0.076,5.4481,53.5306,0.5276,0.1837,1.0008,290.4531
20:19:23:717,0.8524,0.4914,5.2171,52.0092,0.5848,-0.0499,1.1725,289.6719
20:19:23:739,1.5887,0.7931,5.3548,51.683,0.6434,-0.2499,1.2114,289.2344
20:19:23:764,2.1764,1.1546,5.5116,52.3833,0.6858,-0.4012,1.1238,286.6562
20:19:23:780,2.4338,1.3581,5.8503,52.5641,0.6717,-0.4813,0.9592,285.9531
20:19:23:797,2.4733,1.3773,6.1867,51.2711,0.6011,-0.4678,0.7749,284.6562
20:19:23:817,2.526,1.5473,6.7721,52.0866,0.4679,-0.4044,0.5986,283.4531
20:19:23:837,2.4973,1.667,7.488,52.745,0.3081,-0.2566,0.4015,282.4688
20:19:23:858,2.5056,1.8154,7.7956,52.7655,0.0991,-0.0299,0.1922,281.7188
20:19:23:879,2.7403,1.8657,8.0458,50.9566,-0.2011,0.1349,-0.0595,281.1562
20:19:23:896,3.0013,1.752,8.7174,52.7036,-0.5888,0.1882,-0.3745,280.8125
20:19:23:917,3.0432,1.2288,10.549,52.8539,-0.9942,0.1826,-0.7378,280.7188
20:19:23:937,2.1537,0.1155,13.0844,53.2078,-1.2283,0.3014,-1.0118,280.9688
20:19:23:958,1.287,-1.1127,14.7927,53.3407,-1.1489,0.602,-0.9133,281.6562
20:19:23:978,1.9155,-1.2743,14.2696,52.3801,-0.8338,0.8369,-0.4475,282.7656
20:19:23:997,3.868,-0.0114,12.9863,53.4683,-0.5529,0.6516,-0.0352,283.9531
20:19:24:019,5.4673,1.1271,12.9097,52.4089,-0.4211,0.177,-0.048,284.9375
20:19:24:036,6.255,0.9212,13.8793,52.7179,-0.3443,-0.0579,-0.2903,284.9531
20:19:24:056,5.593,0.1263,13.8554,51.8241,-0.2221,0.1687,-0.4731,285.0156
20:19:24:080,4.6102,-0.0652,12.5086,51.267,-0.0256,0.4612,-0.3785,285.375
20:19:24:098,5.1273,0.0233,10.2018,51.8241,0.2091,0.3141,-0.1513,285.9219
20:19:24:117,6.1568,0.8877,8.7042,53.3817,0.3167,-0.1623,-0.0975,286.3281
20:19:24:136,6.4812,1.7424,7.9788,51.5774,0.3358,-0.5716,-0.3678,286.4531
20:19:24:157,5.6037,1.8034,7.0953,53.4787,0.2991,-0.676,-0.8126,286.5625
20:19:24:178,4.3013,1.5425,5.7869,53.7116,0.1308,-0.4366,-1.1873,287
20:19:24:196,3.4035,1.479,4.8915,53.2108,-0.1364,-0.0752,-1.4254,287.9375
20:19:24:216,3.5962,1.7795,5.4445,52.9397,-0.2802,0.1086,-1.6124,289.3281
20:19:24:279,3.4538,1.6885,5.751,53.2659,-0.0938,0.0185,-1.9085,290.125
20:19:24:279,2.022,1.2791,4.658,52.4148,0.1928,-0.2877,-2.1876,291.8594
20:19:24:279,0.3604,0.726,3.6704,54.0821,0.2338,-0.59,-2.2417,293.7812
20:19:24:300,-1.1814,0.5034,3.6561,51.8065,0.0027,-0.7202,-2.0377,296.1562
20:19:24:321,-1.9931,0.6566,4.773,54.2538,-0.3388,-0.684,-1.6579,300.0625
20:19:24:336,-1.7094,1.1211,6.735,53.9869,-0.6194,-0.4978,-1.2486,302.3438
20:19:24:359,-1.0007,2.3924,9.9528,53.9116,-0.767,-0.0907,-0.8773,304.3281
20:19:24:379,-0.7074,2.6007,11.1942,54.0661,-0.7601,0.1142,-0.9085,305.8438
20:19:24:398,-1.3825,2.3888,11.8813,53.3631,-0.718,0.2955,-0.9801,305.8438
20:19:24:417,-2.3498,2.2344,12.3003,53.4181,-0.7084,0.4098,-0.8999,308.0625
20:19:24:437,-3.0166,2.0165,13.2401,52.2629,-0.7409,0.4111,-0.7135,309.1562
20:19:24:457,-3.1626,1.5604,14.4216,53.4129,-0.7225,0.4566,-0.4286,310.2344
20:19:24:481,-2.9017,1.3258,15.1183,53.1456,-0.6496,0.4926,-0.0738,311.2969
20:19:24:499,-2.3306,1.2408,15.8928,53.5629,-0.5531,0.3392,0.2889,312.125
20:19:24:516,-1.7632,0.5908,17.0815,52.4704,-0.42,0.0846,0.6205,312.625
20:19:24:536,-1.4149,-0.2927,18.5935,52.0511,-0.1766,0.0928,0.9917,312.7188
20:19:24:558,-0.5434,-1.1378,18.3517,52.7007,0.3515,0.4502,1.4375,311.6875
20:19:24:578,0.3604,-1.4455,14.8023,53.691,0.9593,0.6518,1.8487,311.1875
20:19:24:598,1.7503,-1.2851,11.4947,52.4974,1.281,0.2478,2.127,309.8594
20:19:24:615,3.1317,-0.5752,10.3957,54.2388,1.2938,-0.411,2.1582,307.9219
20:19:24:637,3.3975,-0.0557,11.0948,51.9735,1.192,-0.7964,1.9664,305.5781
20:19:24:657,2.8768,-0.0569,11.4624,53.0374,1.2147,-0.6398,1.78,303.1875
20:19:24:680,2.8779,-0.4723,10.0498,53.0374,1.3105,-0.1024,1.7038,300.7969
20:19:24:698,2.3632,-0.3358,7.4533,53.1305,1.3646,0.4651,1.637,299.7188
20:19:24:717,1.8724,-0.0473,4.9322,54.0089,1.3337,0.7698,1.6109,297.6719
20:19:24:736,1.9215,0.1933,3.1281,53.5933,1.2543,0.7256,1.6002,295.75
20:19:24:756,2.1884,0.6028,2.095,52.4015,1.1193,0.3842,1.5355,293.75
20:19:24:780,2.4913,1.0589,1.9837,52.5022,0.9297,-0.0779,1.3922,291.7344
20:19:24:799,2.69,1.3557,2.6852,52.8879,0.7284,-0.4891,1.173,289.8438
20:19:24:816,2.8504,1.5006,3.4657,53.3518,0.526,-0.7519,0.9027,287.9688
20:19:24:835,3.1629,1.5125,4.3181,54.269,0.2594,-0.8577,0.6095,286.3438
20:19:24:856,3.2622,1.3461,5.7941,53.2764,-0.057,-0.7919,0.3123,285.0469
20:19:24:879,2.866,1.2025,7.6388,53.9653,-0.3398,-0.4664,0.0804,283.8125
20:19:24:895,2.678,1.157,8.9245,52.758,-0.4908,0.0521,-0.0605,283.4375
20:19:24:916,2.9318,1.2025,9.1998,53.052,-0.5545,0.3802,-0.1964,283.3594
20:19:24:936,3.2742,1.1462,9.1196,51.929,-0.674,0.389,-0.3535,283.4375
20:19:24:956,3.1868,0.7548,9.7349,53.2281,-0.8988,0.1951,-0.4999,283.5938
20:19:24:979,3.0695,0.2676,10.8291,52.7767,-1.1167,0.0947,-0.5167,283.8906
20:19:24:997,3.7411,-0.0114,11.0182,51.766,-1.2762,0.0548,-0.4563,284.3906
20:19:25:016,4.5647,0.3717,11.381,52.5836,-1.5039,-0.1695,-0.4936,285.0625
20:19:25:035,5.2638,0.1909,12.9216,53.045,-1.7846,-0.5591,-0.7154,285.7031
20:19:25:059,3.9182,-0.1478,15.5397,51.9638,-1.9913,-0.492,-0.9743,286.3125
20:19:25:081,1.4905,-0.9607,17.1594,51.7228,-1.8272,0.3488,-0.9285,287.1406
20:19:25:099,0.522,-1.3749,14.9232,51.7074,-1.3169,1.201,-0.4794,288.3438
20:19:25:117,1.4295,-0.501,11.6216,52.2141,-0.8661,1.2692,0.1006,289.0312
20:19:25:137,3.3867,0.8074,10.4819,51.7749,-0.4927,0.3996,0.3794,290.5938
20:19:25:157,4.3827,1.6849,10.8147,53.3504,-0.1127,-0.6236,0.1957,290.8281
20:19:25:181,3.765,1.5868,10.6866,51.5601,0.1537,-0.9293,-0.1537,290.5156
20:19:25:198,2.8408,1.1797,9.4297,53.0328,0.2469,-0.578,-0.3993,290.1719
20:19:25:215,1.9885,1.0732,7.5395,51.1907,0.1768,-0.0704,-0.5418,290.1562
20:19:25:235,1.2032,1.1546,6.1125,52.2169,0.0061,0.2905,-0.6246,290.4844
20:19:25:256,0.5951,1.2049,5.4733,51.9865,-0.1404,0.4902,-0.6331,290.9844
20:19:25:280,0.4011,1.3258,5.1429,54.0763,-0.1694,0.5206,-0.5724,291.6562
20:19:25:296,0.6418,1.6275,4.8687,53.015,-0.106,0.3773,-0.5125,292.3906
20:19:25:317,1.0296,2.1087,4.7227,53.6475,-0.0474,0.1378,-0.55,293.0781
20:19:25:336,0.9925,2.4523,4.9262,51.3026,-0.0533,-0.104,-0.7159,293.6562
20:19:25:355,0.3449,2.1626,5.6385,51.8293,-0.1185,-0.3106,-0.9125,294.25
20:19:25:380,-0.6954,1.5509,7.069,52.1667,-0.2346,-0.4371,-0.9636,294.9688
20:19:25:397,-1.2018,1.0888,9.5733,52.3962,-0.3068,-0.4012,-0.8059,295.8594
20:19:25:416,-0.8558,0.9858,11.5258,52.9377,-0.2405,-0.2528,-0.5948,297.5469
20:19:25:436,-0.6415,1.0744,12.7133,51.0862,-0.1774,-0.1447,-0.4653,298.4844
20:19:25:456,-0.535,0.9296,13.8326,52.5915,-0.2045,0.0007,-0.3697,299.1562
20:19:25:481,-0.4704,0.489,14.8454,52.6345,-0.2304,0.2372,-0.2627,299.7031
20:19:25:498,-0.4644,0.0341,15.0573,53.3442,-0.1926,0.4851,-0.1287,300.1406
20:19:25:517,-0.5087,-0.416,14.5353,54.1797,-0.1651,0.5877,0.0346,300.4531
20:19:25:536,-0.614,-0.5872,14.3139,54.003,-0.2075,0.5493,0.2471,300.6094
20:19:25:556,-0.45,-0.9535,14.7628,53.9055,-0.2453,0.3581,0.4551,300.5781
20:19:25:582,-0.7098,-1.2827,15.8785,52.5687,-0.1585,0.1437,0.6966,300.2969
20:19:25:599,-0.7337,-1.8633,16.2424,56.2608,0.225,0.1578,1.0522,299.8125
20:19:25:616,-0.3135,-2.0991,13.7752,56.8882,0.7523,0.3501,1.4447,299.4688
20:19:25:636,0.6861,-1.9076,10.5418,57.6793,1.0354,0.2769,1.7326,298.4844
20:19:25:656,1.8413,-1.4802,8.8,56.2833,0.9979,-0.1389,1.8192,297.0312
20:19:25:680,2.1262,-0.8673,8.7988,54.7343,0.8149,-0.5639,1.703,295.2344
20:19:25:698,1.4965,-0.5477,9.48,56.7394,0.6892,-0.7162,1.5347,293.125
20:19:25:715,1.0847,-0.6303,9.3626,57.1894,0.7039,-0.5919,1.502,290.0938
20:19:25:736,1.1254,-0.72,8.636,57.02,0.7973,-0.3737,1.556,288.4062
20:19:25:756,0.9734,-0.4962,7.5047,57.1225,0.9294,-0.1306,1.6436,286.6719
20:19:25:780,1.4091,0.2125,4.8999,57.5764,1.1084,0.0185,1.7832,284.8594
20:19:25:798,1.8652,0.5812,4.0356,59.6797,1.0804,-0.0456,1.7451,284.8594
20:19:25:816,2.3237,1.0134,3.698,59.3799,0.9556,-0.1002,1.6285,283
20:19:25:835,2.8336,1.3629,3.8931,58.1221,0.7886,-0.2206,1.4378,278.8125
20:19:25:856,3.2455,1.5664,4.8424,57.5514,0.6421,-0.4291,1.1885,276.8281
20:19:25:880,3.498,1.497,6.2526,59.5421,0.555,-0.6156,0.9137,274.8906
20:19:25:897,3.285,1.1845,7.5634,59.4581,0.4836,-0.6595,0.6319,273.2031
20:19:25:914,2.7163,0.6423,8.7114,61.2924,0.3366,-0.5162,0.4234,271.8281
20:19:25:936,2.5571,0.3537,9.4859,60.6479,0.1001,-0.2827,0.3477,270.8438
20:19:25:955,3.0647,0.313,10.5502,60.294,-0.142,-0.218,0.2796,269.6719
20:19:25:975,3.8644,0.0006,11.8586,61.0711,-0.2866,-0.1964,0.1571,269.4688
20:19:25:998,4.3815,-0.3142,12.1196,61.3544,-0.3209,-0.0177,0.0111,269.1562
20:19:26:015,4.6497,-0.4148,11.1978,60.8428,-0.3832,0.1834,-0.1311,268.9531
20:19:26:038,4.8232,-0.337,10.0486,62.8544,-0.579,0.2106,-0.2757,268.9219
20:19:26:056,5.1273,-0.0928,9.9109,61.6693,-0.9337,-0.0496,-0.4419,269.0156
20:19:26:082,5.3296,-0.1179,11.9089,60.0072,-1.2962,-0.3647,-0.6459,269.2812
20:19:26:099,4.9286,-0.4351,14.1199,61.4076,-1.4312,-0.2358,-0.8123,269.4844
20:19:26:115,4.1241,-0.5369,14.6167,61.5268,-1.2778,0.3965,-0.8246,270.1094
20:19:26:137,3.5172,-0.1742,12.6858,61.4602,-0.95,0.8878,-0.6667,271.0156
20:19:26:155,3.8284,0.1706,10.1611,61.8768,-0.6661,0.7184,-0.4845,272.1406
20:19:26:176,4.002,0.5656,9.1891,62.0013,-0.5497,0.1248,-0.424,273.2344
20:19:26:195,3.7937,0.7811,9.0933,60.8993,-0.4716,-0.3841,-0.4483,274.0312
20:19:26:215,3.2048,0.9427,8.6324,62.0175,-0.4131,-0.5357,-0.4967,274.625
20:19:26:236,2.4613,1.1151,8.0949,61.9988,-0.4261,-0.3439,-0.5436,275.1719
20:19:26:255,1.6928,1.066,7.6927,60.2889,-0.4203,-0.0433,-0.5655,276.0156
20:19:26:275,1.129,1.096,7.0726,60.8754,-0.3348,0.2055,-0.5239,276.6719
20:19:26:296,1.0069,1.2635,6.3184,62.3446,-0.2136,0.3141,-0.4342,277.375
20:19:26:343,1.0476,1.5927,5.7713,61.9124,-0.0916,0.246,-0.3718,278.0156
20:19:26:343,0.9398,1.7687,5.5499,60.4469,0.0208,0.0476,-0.3793,278.5938
20:19:26:355,0.6956,1.7747,5.666,61.5669,0.0959,-0.161,-0.3945,279.0625
20:19:26:383,0.7471,1.8382,6.1341,60.4918,0.1198,-0.3096,-0.4025,279.4844
20:19:26:400,0.7519,1.7651,6.9828,61.2724,0.1129,-0.4201,-0.4392,279.9062
20:19:26:418,0.7064,1.5928,8.2769,62.874,0.1047,-0.4486,-0.4584,280.3438
20:19:26:438,0.7711,1.3474,9.5171,61.4848,0.1057,-0.3453,-0.4387,280.8125
20:19:26:455,0.8405,1.1474,10.379,60.7018,0.0996,-0.1176,-0.4038,281.3125
20:19:26:475,0.9422,0.9212,10.8602,60.6344,0.0274,0.2034,-0.35,281.8125
20:19:26:496,1.2355,0.7967,11.1356,61.6297,-0.134,0.5096,-0.2845,282.2969
20:19:26:516,1.5168,0.7033,12.0382,62.1562,-0.2983,0.6665,-0.2597,282.7188
20:19:26:536,1.4833,0.2568,12.8282,62.8459,-0.3494,0.7166,-0.2832,283.0625
20:19:26:556,0.7268,-0.3214,13.1491,61.0019,-0.3515,0.7006,-0.2762,283.5312
20:19:26:577,-0.1411,-0.6279,13.4244,61.8417,-0.4232,0.564,-0.1418,283.875
20:19:26:598,-0.7577,-0.8793,14.8142,61.2729,-0.5643,0.2729,0.1176,284.0469
20:19:26:615,-0.7996,-1.3378,17.6849,61.5851,-0.5585,0.017,0.4868,284.3281
20:19:26:640,-0.462,-1.8465,20.1162,61.1512,-0.1933,0.0667,0.9254,284.3906
20:19:26:654,0.5699,-2.5002,19.2244,61.1866,0.5281,0.4297,1.3779,284.1406
20:19:26:676,1.5204,-2.5349,14.825,61.1866,1.1697,0.6614,1.7619,283.3594
20:19:26:698,2.4075,-1.9603,11.0984,59.2499,1.4339,0.4036,1.9883,282.0312
20:19:26:716,2.9222,-1.1426,9.3459,59.9694,1.4275,-0.0752,1.9973,280.1562
20:19:26:735,2.6493,-0.7727,9.0837,60.6476,1.3478,-0.39,1.8759,277.9844
20:19:26:755,2.0759,-0.8302,8.9484,59.668,1.3854,-0.4233,1.8146,275.5625
20:19:26:775,1.7012,-0.7488,7.8327,59.5937,1.5303,-0.2771,1.8668,273.25
20:19:26:796,1.9574,-0.6171,6.2945,58.4981,1.6365,-0.1399,1.9504,271.1875
20:19:26:814,2.3057,-0.185,5.01,58.7433,1.6597,-0.0632,1.9667,268.9844
20:19:26:835,2.7906,0.3011,3.9996,57.9902,1.6051,-0.072,1.9038,265.4688
20:19:26:855,3.3484,0.7644,3.3364,58.6499,1.4682,-0.1516,1.7355,263.1875
20:19:26:877,3.6944,1.248,3.194,58.2611,1.2365,-0.2491,1.4498,260.8438
20:19:26:897,3.7614,1.4347,3.5352,58.0701,0.9539,-0.3375,1.0894,258.7188
20:19:26:915,3.5376,1.3438,4.0571,58.3398,0.6727,-0.3612,0.7347,257.0312
20:19:26:934,3.4466,1.315,4.7083,56.708,0.3952,-0.3426,0.4604,255.7188
20:19:26:955,3.3424,1.4228,6.1796,56.956,0.1475,-0.2965,0.2476,254.8594
20:19:26:975,3.1832,1.4599,7.8723,56.9778,0.0634,-0.1066,0.1083,254.3281
20:19:26:998,3.2251,1.339,8.0674,57.9955,0.0895,0.0827,0.021,254.0781
20:19:27:015,3.6309,1.3018,7.8699,55.8356,-0.0075,0.0614,-0.0363,253.9688
20:19:27:036,4.4641,1.163,8.4277,54.958,-0.2711,-0.0475,-0.1346,253.9219
20:19:27:055,4.8615,0.8302,9.7517,56.598,-0.5907,-0.0795,-0.2997,253.9531
20:19:27:075,4.7035,0.2723,10.8638,58.2968,-0.8197,0.1184,-0.4083,254.1406
20:19:27:098,4.858,-0.2364,10.4065,56.0152,-0.9697,0.4143,-0.4001,254.3438
20:19:27:114,5.0435,0.0221,9.6392,55.3154,-1.1968,0.447,-0.4227,254.875
20:19:27:135,5.1991,0.1431,10.288,56.1795,-1.5324,0.1064,-0.5993,255.3906
20:19:27:155,4.4593,-0.41,12.9408,56.8493,-1.7851,-0.2025,-0.8746,256.2344
20:19:27:176,1.2738,-1.5257,14.8897,55.8146,-1.6919,0.0289,-0.9852,257.0938
20:19:27:197,1.7515,-0.9403,11.8694,54.403,-0.8871,0.9078,-0.3188,258.2812
20:19:27:216,2.9869,0.0449,9.3782,54.7368,-0.7129,0.6636,-0.1138,258.2812
20:19:27:235,3.8883,0.7655,8.1165,54.6704,-0.6759,0.0513,-0.2003,259.6094
20:19:27:254,3.4334,1.2659,8.2589,54.922,-0.7553,-0.4246,-0.4667,260.5625
20:19:27:277,2.3835,1.0804,8.7054,53.3497,-0.8275,-0.4608,-0.7162,260.9531
20:19:27:298,1.2918,0.7105,8.9209,54.229,-0.8117,-0.1178,-0.8014,261.4062
20:19:27:315,0.388,0.7512,8.4169,55.2641,-0.6634,0.3597,-0.6872,262.0312
20:19:27:338,0.0947,1.1642,7.1696,54.6317,-0.4458,0.5514,-0.4858,262.9062
20:19:27:354,0.2383,1.6047,6.4285,53.2747,-0.2551,0.4209,-0.3244,263.9062
20:19:27:374,0.6071,1.9818,6.1257,53.682,-0.1108,0.1844,-0.236,264.75
20:19:27:396,1.0105,2.226,6.3268,53.022,-0.0317,-0.0419,-0.2446,265.3281
20:19:27:414,1.2655,2.3278,7.1085,52.024,-0.0378,-0.1767,-0.3204,265.7188
20:19:27:435,1.4642,2.2871,8.3966,53.0177,-0.0767,-0.1596,-0.423,266.125
20:19:27:454,1.548,2.0488,9.5949,51.8097,-0.0988,-0.0004,-0.5242,266.4375
20:19:27:477,1.4043,1.8753,10.4472,54.0597,-0.1079,0.2582,-0.5889,266.8594
20:19:27:500,1.2942,1.7149,10.8135,54.017,-0.1012,0.5408,-0.6283,267.4219
20:19:27:518,0.8189,1.4419,10.6771,51.8537,-0.1073,0.7602,-0.6299,268.0312
20:19:27:535,0.1306,1.2181,10.7225,52.5079,-0.1302,0.7389,-0.5199,268.75
20:19:27:555,0.2108,0.8386,11.5138,52.2974,-0.1055,0.4492,-0.3276,269.4844
20:19:27:578,0.7687,0.3825,12.4871,49.8914,-0.0381,0.1099,-0.1577,270.1719
20:19:27:598,1.1565,0.1658,13.4759,50.6247,-0.0533,-0.0763,-0.056,270.6406
20:19:27:614,1.0452,0.1646,14.4982,51.6032,-0.159,-0.0667,0.0023,270.8125
20:19:27:635,0.9722,-0.1443,15.3936,50.4634,-0.3023,-0.0068,0.0665,270.9844
20:19:27:655,0.3545,-0.75,17.0337,50.7213,-0.338,-0.0318,0.1698,271.0625
20:19:27:675,-0.5948,-1.4778,18.4079,49.3547,0.0578,0.0145,0.434,271.0625
20:19:27:696,-0.5793,-2.2045,15.9599,49.8543,0.7787,0.2196,0.8447,271
20:19:27:714,0.1007,-1.886,11.6132,50.0701,1.1984,0.1956,1.2367,270.8281
20:19:27:734,1.1433,-1.2492,9.3267,49.5076,1.1598,-0.2654,1.4082,269.9062
20:19:27:754,1.3337,-0.7009,9.7852,47.871,0.9417,-0.7349,1.3627,268.6406
20:19:27:774,1.0727,-0.7955,10.7609,50.208,0.8991,-0.81,1.294,267.0156
20:19:27:798,0.637,-0.8769,10.0641,48.7845,1.0541,-0.618,1.3347,265.4375
20:19:27:814,0.7435,-0.829,8.3822,48.3902,1.2123,-0.3839,1.4759,263.8906
20:19:27:835,0.9877,-0.5513,6.6021,49.1207,1.2789,-0.1929,1.5925,262.3594
20:19:27:855,1.2595,-0.1,5.2183,47.4798,1.2677,-0.1128,1.6511,260.7656
20:19:27:877,1.6928,0.2149,4.2929,48.6939,1.216,-0.1562,1.6319,258.9062
20:19:27:897,2.1214,0.5549,3.8871,47.5218,1.1196,-0.2811,1.5382,256.9219
20:19:27:917,2.4554,0.8074,4.0487,45.4875,1.0069,-0.4507,1.3858,255.0156
20:19:27:934,2.6864,0.9439,4.4282,47.686,0.9047,-0.6236,1.1893,253.0781
20:19:27:954,2.8791,0.9332,5.1237,46.281,0.7835,-0.753,0.9928,251.3125
20:19:27:975,3.2478,0.8266,6.0946,47.5747,0.6304,-0.7543,0.8127,249.7812
20:19:27:997,3.6142,0.6985,7.1396,46.1292,0.4642,-0.5948,0.6255,248.5781
20:19:28:016,3.8237,0.5776,7.7932,46.0305,0.298,-0.3303,0.4103,247.0938
20:19:28:035,4.1301,0.2819,8.0111,46.3738,0.0541,-0.0699,0.176,246.3906
20:19:28:055,4.4593,-0.1897,8.2601,46.8256,-0.2914,0.0862,-0.0483,245.9375
20:19:28:075,4.3109,-0.8194,9.1974,44.4228,-0.6669,0.1088,-0.2267,245.7344
20:19:28:098,3.9984,-1.5832,10.7549,46.1044,-0.8946,0.1424,-0.2555,245.75
20:19:28:116,4.3707,-2.2978,11.2062,47.3179,-0.8847,0.2188,-0.1223,245.9844
20:19:28:134,5.3452,-2.2045,10.1216,45.0807,-0.8528,0.1275,-0.0051,246.375
20:19:28:154,5.7917,-1.7364,9.7481,45.2994,-1.0227,-0.223,-0.0949,246.7344
20:19:28:174,5.83,-1.965,11.351,45.8751,-1.3153,-0.6499,-0.3388,246.9062
20:19:28:197,4.8711,-2.5851,14.1953,44.8382,-1.5127,-0.5839,-0.5434,247.0625
20:19:28:215,3.6573,-2.7276,15.3529,44.1838,-1.4032,0.1352,-0.4869,247.5156
20:19:28:234,3.68,-2.1757,13.0318,43.9545,-1.0535,0.8164,-0.2451,248.3438
20:19:28:254,4.5778,-0.8889,9.8738,44.125,-0.7854,0.8359,-0.1042,249.1875
20:19:28:274,5.2279,0.4148,7.9022,42.5024,-0.7537,0.3831,-0.285,249.7969
20:19:28:297,4.415,1.2468,7.9213,45.9393,-0.9153,0.0044,-0.6872,250.1875
20:19:28:316,3.2131,1.06,8.5139,45.9766,-1.0466,0.0643,-1.0193,250.5938
20:19:28:335,2.1082,0.8769,8.217,43.6341,-1.0911,0.4098,-1.1671,251.5156
20:19:28:396,1.1493,0.9619,8.0494,44.2793,-1.0639,0.6281,-1.1399,252.8281
20:19:28:396,0.5065,1.2695,8.3535,43.9518,-0.9204,0.7131,-0.9865,254.3125
20:19:28:396,0.4323,1.5413,8.3068,43.352,-0.6586,0.7701,-0.8025,255.7031
20:19:28:419,0.6082,1.8106,7.8375,43.8641,-0.3899,0.8116,-0.6464,256.9688
20:19:28:434,0.7746,2.0524,7.5598,42.6155,-0.175,0.7685,-0.5423,257.9844
20:19:28:454,1.0895,2.2356,7.5634,45.0981,-0.0083,0.6028,-0.5063,258.7656
20:19:28:474,0.9769,2.1494,7.9381,44.3896,0.0818,0.4143,-0.5407,259.4375
20:19:28:500,0.6286,1.9471,8.7785,44.2958,0.1097,0.3046,-0.5482,260.0312
20:19:28:514,0.5795,1.5317,9.6428,42.407,0.1364,0.3064,-0.5053,260.6406
20:19:28:534,0.5137,1.2504,10.4592,42.823,0.1675,0.3743,-0.4251,261.25
20:19:28:555,0.4514,0.9691,10.9883,43.5768,0.2216,0.4239,-0.3125,261.5625
20:19:28:577,1.3792,0.3585,11.9209,43.861,0.3361,0.2659,-0.0744,262.0938
20:19:28:598,2.1752,0.009,12.2022,43.131,0.331,0.1986,-0.0792,262.6562
20:19:28:615,2.3381,-0.4842,12.1591,44.2449,0.2069,0.2454,-0.2009,262.6562
20:19:28:635,1.4666,-1.0038,12.2872,44.4667,-0.0338,0.3911,-0.3394,262.8438
20:19:28:654,0.3616,-1.3282,12.699,43.6091,-0.3148,0.5283,-0.3364,262.9219
20:19:28:674,-0.5673,-1.728,13.9811,43.6091,-0.5356,0.4739,-0.2057,262.9844
20:19:28:698,-1.7884,-2.4199,16.3932,41.9772,-0.4637,0.345,0.0804,263.5938
20:19:28:715,-1.9991,-3.1837,16.8002,41.6995,0.1164,0.3469,0.6002,264
20:19:28:734,-1.2137,-3.3022,13.446,42.7448,0.8067,0.3,1.1645,264.25
20:19:28:753,-0.049,-2.6318,10.118,44.6656,1.0773,-0.1178,1.5765,264.1875
20:19:28:773,0.8129,-1.6334,9.4608,43.7925,0.9657,-0.672,1.7201,263.5
20:19:28:794,1.0871,-1.1714,10.6854,44.791,0.8144,-0.8806,1.6956,262.2344
20:19:28:813,0.868,-1.3222,10.9787,42.783,0.8797,-0.6909,1.6801,260.3906
20:19:28:833,0.3593,-1.0552,9.4704,41.8742,1.081,-0.3716,1.8106,257.375
20:19:28:854,0.631,-0.7045,7.3491,42.3421,1.232,-0.1841,2.0061,255.5312
20:19:28:873,1.3588,-0.325,5.7426,45.1991,1.2895,-0.1727,2.1049,253.5
20:19:28:894,1.8891,0.228,4.5563,44.1017,1.2767,-0.255,2.0887,251.2344
20:19:28:916,2.4135,0.7009,4.1983,42.8676,1.188,-0.4236,1.976,248.9219
20:19:28:934,2.8576,1.0062,4.5683,42.616,1.0698,-0.5916,1.7619,246.4062
20:19:28:954,2.9079,1.2037,5.4182,44.0154,0.9332,-0.6667,1.4759,244
20:19:28:974,2.7582,0.9691,6.5016,44.5546,0.8093,-0.6009,1.1986,241.7812
20:19:28:998,2.5164,0.8302,7.3264,44.2688,0.6983,-0.3998,0.9925,239.9844
20:19:29:017,2.3943,0.8158,7.9656,43.5309,0.5697,-0.1511,0.8255,239.1562
20:19:29:034,2.459,0.7153,8.5091,44.5214,0.4424,0.0801,0.6673,237.7656
20:19:29:054,2.7738,0.7093,8.6013,45.1376,0.298,0.2739,0.5134,236.6406
20:19:29:074,3.2431,0.7057,8.5977,43.7744,0.0834,0.3727,0.319,235.6406
20:19:29:097,3.5531,0.4794,9.2106,45.2189,-0.175,0.3554,0.0969,234.8125
20:19:29:113,3.7195,-0.1239,10.4424,43.1553,-0.3646,0.3016,-0.0874,234.1562
20:19:29:134,3.7195,-0.653,11.2948,44.0893,-0.4227,0.3573,-0.1769,233.7656
20:19:29:154,3.8081,-0.8242,10.7501,43.3745,-0.4128,0.4694,-0.1758,233.7344
20:19:29:173,4.3133,-0.6039,9.7768,43.2652,-0.4906,0.4202,-0.1801,233.8438
20:19:29:195,4.9669,-0.2747,9.4333,43.3135,-0.7238,0.1645,-0.3141,234.0469
20:19:29:219,4.9872,-0.343,11.2708,43.0155,-1.0626,-0.1277,-0.6004,234.2344
20:19:29:236,3.7961,-0.987,13.8877,43.5097,-1.207,0.0412,-0.8352,234.5156
20:19:29:253,2.0639,-1.479,14.4228,43.3093,-0.9689,0.5938,-0.7681,235.0781
20:19:29:274,1.6389,-1.1785,12.0489,45.0133,-0.5433,0.8905,-0.4182,236.0469
20:19:29:298,2.7534,-0.3011,9.6296,44.2158,-0.2434,0.5243,-0.1162,237.1094
20:19:29:316,4.1289,0.6662,8.8563,44.6097,-0.1047,-0.2302,-0.1274,237.7969
20:19:29:333,4.3707,1.1259,9.6356,44.4968,-0.1028,-0.7122,-0.4528,238.0625
20:19:29:354,3.1581,0.7847,10.2138,43.4638,-0.1204,-0.5466,-0.8091,238.1562
20:19:29:374,1.7994,0.3142,9.0227,44.1538,-0.093,-0.0049,-0.9561,238.4844
20:19:29:399,0.7866,0.4076,7.1145,45.6649,-0.1182,0.4369,-0.9234,239.2344
20:19:29:414,0.3628,0.6458,5.8192,44.5889,-0.1566,0.5512,-0.8094,240.2969
20:19:29:434,0.3269,0.9762,5.229,45.8597,-0.1523,0.4175,-0.6893,241.9062
20:19:29:455,0.4885,1.4072,5.405,44.8525,-0.1246,0.2058,-0.6217,242.7656
20:19:29:473,0.6513,1.673,5.8875,44.8327,-0.0991,0.0596,-0.6323,243.5469
20:19:29:494,0.4849,1.8334,6.5914,45.315,-0.1348,0.0588,-0.68,244.25
20:19:29:514,0.2216,1.9136,7.5514,47.1745,-0.1758,0.1906,-0.6946,244.9531
20:19:29:537,0.2994,1.9914,8.1931,45.7683,-0.1856,0.3195,-0.6725,245.3281
20:19:29:554,0.3904,2.1302,8.8479,45.8554,-0.2077,0.3802,-0.6627,246.125
20:19:29:574,0.1677,2.0788,9.693,45.5246,-0.2088,0.4111,-0.6643,246.9219
20:19:29:597,-0.3028,1.8705,10.1348,46.9634,-0.1585,0.4247,-0.6232,247.6406
20:19:29:617,-0.7948,1.661,10.4424,46.9648,-0.1254,0.3669,-0.4935,248.3906
20:19:29:633,-0.5123,1.558,11.0123,48.3893,-0.1174,0.243,-0.305,249.1406
20:19:29:655,0.0588,1.5173,11.9771,45.6438,-0.1337,0.1147,-0.1711,249.75
20:19:29:674,0.291,1.3198,12.8678,45.7606,-0.1518,0.1496,-0.0919,250.2031
20:19:29:695,0.1881,1.1163,12.7684,46.933,-0.1747,0.3261,-0.0072,250.4688
20:19:29:717,-0.0717,1.2863,12.4476,48.4056,-0.2658,0.3663,0.1081,250.6094
20:19:29:734,-0.0023,0.9978,13.2329,48.1224,-0.3665,0.1349,0.2005,250.6562
20:19:29:757,-0.3985,0.4663,15.1602,47.6898,-0.3265,-0.0885,0.3051,250.5312
20:19:29:774,-1.0186,-0.2328,16.1813,48.6554,-0.0067,-0.0323,0.5387,250.2969
20:19:29:793,-0.8618,-0.7248,14.4012,49.0675,0.457,0.1554,0.8599,249.9844
20:19:29:815,0.0312,-0.7009,11.5545,48.1228,0.7113,0.1019,1.1198,249.3594
20:19:29:837,1.1326,-0.671,9.8187,50.6712,0.7001,-0.2547,1.209,248.3594
20:19:29:853,1.6246,-0.3418,10.1994,49.1333,0.51,-0.647,1.1286,247.1406
20:19:29:873,1.4558,-0.3202,11.855,47.5292,0.4312,-0.6755,0.9917,245.7344
20:19:29:893,1.0045,-0.5405,11.9077,50.4882,0.5928,-0.3346,0.9217,244.4688
20:19:29:915,0.7555,-0.6961,9.942,49.341,0.8259,0.0707,0.9736,243.3906
20:19:29:933,0.8417,-0.3729,7.6891,49.9088,0.9553,0.2119,1.0785,242.3281
20:19:29:954,1.2619,-0.0197,6.3986,49.227,0.976,0.0532,1.1139,241.1719
20:19:29:974,1.7239,0.3418,6.4202,49.5883,0.935,-0.1242,1.0641,239.875
20:19:29:997,1.8401,0.4136,6.395,49.0989,0.8392,0.0028,0.8865,239.875
20:19:30:015,1.9346,0.7201,6.1149,47.851,0.7835,0.1549,0.8143,238.625
20:19:30:033,2.2662,1.1774,5.8192,50.0784,0.6996,0.1927,0.7041,237.375
20:19:30:053,2.4027,1.6442,5.9988,48.1184,0.5872,0.1008,0.5198,236.2344
20:19:30:073,2.2519,2.0393,6.589,48.5091,0.5007,-0.0211,0.3075,235.2188
20:19:30:095,2.0579,2.2057,7.0379,48.7879,0.4304,-0.0795,0.0953,233.375
20:19:30:115,1.8855,2.1087,7.2558,48.9648,0.285,-0.0528,-0.0778,232.7656
20:19:30:134,1.8927,1.8549,7.7825,49.9718,0.0378,-0.0992,-0.2102,232.375
20:19:30:152,2.0974,1.2803,9.4991,49.819,-0.229,-0.252,-0.3079,232.2656
20:19:30:173,1.8305,0.6997,11.6395,49.3149,-0.3827,-0.251,-0.3162,232.3438
20:19:30:193,2.0148,0.1909,12.6212,48.7937,-0.3419,-0.0928,-0.166,232.5938
20:19:30:214,2.8815,0.2699,11.7485,47.3152,-0.241,0.0034,0.0228,232.9844
20:19:30:237,4.1936,0.726,10.8842,46.7041,-0.289,-0.2214,0.037,233.4062
20:19:30:253,4.7251,0.7296,11.679,48.5085,-0.4978,-0.5737,-0.227,233.625
20:19:30:272,3.5795,-0.0581,14.0409,48.4684,-0.6951,-0.541,-0.5204,233.6094
20:19:30:294,1.7646,-0.9068,14.9064,48.2072,-0.6011,0.0638,-0.5141,233.9688
20:19:30:316,1.4103,-0.8936,12.3877,47.0735,-0.2815,0.602,-0.1812,234.6406
20:19:30:332,2.5823,-0.1215,9.3914,48.4004,-0.0458,0.4036,0.1291,235
20:19:30:352,4.0691,0.738,8.0722,46.4699,0.0277,-0.3255,0.1262,235.4062
20:19:30:373,4.3516,1.3366,8.4481,47.7182,-0.0951,-0.7306,-0.1503,235.3594
20:19:30:392,3.5447,1.321,8.6444,48.3185,-0.2677,-0.4715,-0.4848,235.1719
20:19:30:415,2.5439,1.1331,7.4652,48.4827,-0.4173,0.0889,-0.7053,235.2188
20:19:30:466,1.6006,1.2635,6.0275,47.6808,-0.5728,0.4793,-0.8006,235.6719
20:19:30:467,0.88,1.3857,5.599,46.7707,-0.6362,0.4462,-0.7958,236.3906
20:19:30:478,0.3988,1.5772,6.0814,46.695,-0.5252,0.1922,-0.7207,237.2656
20:19:30:500,0.2323,1.7232,6.31,47.4522,-0.2985,-0.0278,-0.5929,238.1875
20:19:30:516,0.3413,2.0919,6.1365,46.9245,-0.1364,-0.1479,-0.4747,239.0312
20:19:30:533,0.607,2.4822,6.4525,47.6402,-0.1143,-0.2033,-0.4398,239.4375
20:19:30:553,0.6274,2.7048,7.415,46.2849,-0.1547,-0.1642,-0.4848,240.1406
20:19:30:572,0.4849,2.7839,8.5067,48.2573,-0.1326,-0.0901,-0.5186,240.7031
20:19:30:593,0.2024,2.7468,9.1675,47.5569,-0.0921,-0.0238,-0.5191,241.2031
20:19:30:613,0.0384,2.6498,10.0211,45.1892,-0.11,0.1096,-0.4435,241.7656
20:19:30:632,0.1641,2.4619,10.6926,45.3229,-0.138,0.2881,-0.3444,242.6875
20:19:30:653,0.2,2.4187,11.096,47.2079,-0.1736,0.4114,-0.2403,243.2188
20:19:30:672,0.1881,2.4451,11.7533,47.2079,-0.1875,0.4154,-0.1335,243.6562
20:19:30:694,0.1246,2.3828,12.2333,47.2508,-0.1225,0.3168,-0.0432,243.9844
20:19:30:714,-0.0358,2.2835,12.4464,47.2508,-0.0543,0.1706,0.0412,244.1719
20:19:30:738,-0.3111,2.1626,12.6379,45.5495,-0.0517,0.0343,0.119,244.25
20:19:30:753,-0.6104,2.0393,13.1072,46.0529,-0.1281,-0.1322,0.1983,244.2344
20:19:30:773,-0.5015,1.3833,14.7364,44.8013,-0.2099,-0.3903,0.2889,244.1406
20:19:30:793,-0.9205,0.5309,16.6051,45.4034,-0.1007,-0.3514,0.4473,243.9688
20:19:30:814,-1.1539,-0.1562,15.9742,46.7567,0.2738,0.1083,0.719,243.7188
20:19:30:833,-1.1012,-0.082,12.2967,44.5898,0.5704,0.4407,1.0127,243.3594
20:19:30:856,-0.4105,-0.094,9.7792,45.0675,0.5923,0.1653,1.2149,242.7344
20:19:30:872,0.2958,-0.2616,9.462,44.7472,0.4815,-0.3684,1.3025,241.7031
20:19:30:893,0.7256,-0.1359,10.4999,45.1589,0.4085,-0.6238,1.3304,239.625
20:19:30:914,0.9841,-0.1826,10.7441,44.9913,0.477,-0.5061,1.2932,238.2188
20:19:30:938,0.9386,-0.1323,9.4165,44.424,0.5886,-0.153,1.2708,236.7188
20:19:30:955,0.9686,0.0473,7.561,44.9029,0.6519,0.0731,1.2916,235.25
20:19:30:973,1.1709,0.2867,6.5076,44.7865,0.6519,-0.0249,1.3057,233.8281
20:19:30:993,1.445,0.4543,7.2809,43.8418,0.6594,-0.2014,1.2918,232.2969
20:19:31:012,1.7563,0.5034,8.0806,43.9999,0.7936,-0.1868,1.2394,231.5312
20:19:31:034,1.9454,0.5776,8.1212,44.1418,0.9566,-0.0507,1.1467,230
20:19:31:054,2.1465,0.6794,7.3611,42.6793,1.0653,0.1706,1.0295,228.5781
20:19:31:072,2.3333,0.8721,6.0431,42.1646,1.0472,0.2865,0.8783,227.1562
20:19:31:094,2.6182,1.0541,5.4517,43.3614,0.832,0.2183,0.6956,225.8125
20:19:31:115,2.8097,1.1391,6.1843,41.499,0.4847,0.1229,0.4708,224.5781
20:19:31:132,2.6756,1.096,7.8543,43.9494,0.1904,0.2066,0.2596,223.6094
20:19:31:152,2.4458,0.993,8.7629,42.948,0.0487,0.4383,0.1232,222.8438
20:19:31:172,2.4147,1.0205,8.8599,42.4349,-0.0405,0.5778,0.0639,222.3906
20:19:31:193,2.7127,1.1738,9.0275,42.2691,-0.1451,0.4851,0.0127,222.0469
20:19:31:215,3.0312,1.1426,9.7301,40.9391,-0.2495,0.2223,-0.0869,221.8906
20:19:31:233,3.1186,0.7536,10.6304,42.4969,-0.3196,0.0577,-0.1628,221.7969
20:19:31:252,3.3328,0.58,10.4472,42.09,-0.3939,0.0936,-0.166,221.875
20:19:31:273,3.8943,0.896,10.0905,41.0949,-0.5446,0.0484,-0.1732,222.0781
20:19:31:294,4.7251,1.1175,10.6627,44.2079,-0.742,-0.1993,-0.3316,222.2812
20:19:31:315,4.5934,1.0589,12.4057,42.665,-0.9627,-0.3812,-0.6254,222.5
20:19:31:333,2.9366,0.4723,14.181,42.6193,-1.0392,-0.0907,-0.8483,222.9531
20:19:31:353,1.1613,0.1933,13.7704,42.5312,-0.8314,0.4295,-0.7367,223.7812
20:19:31:372,1.0392,0.519,11.7102,44.0293,-0.4778,0.5488,-0.4019,224.8438
20:19:31:394,3.1521,1.4228,9.1436,45.1256,-0.1007,-0.5314,-0.0919,225.6406
20:19:31:415,3.5459,1.9555,9.6787,42.8352,-0.1302,-0.7122,-0.2493,226.0625
20:19:31:433,2.9474,1.825,9.3626,44.1477,-0.1241,-0.4315,-0.5362,226.2344
20:19:31:454,1.9945,1.4826,7.7897,43.5746,-0.1696,-0.0052,-0.7458,226.75
20:19:31:473,1.1098,1.3306,6.7494,43.94,-0.3047,0.2872,-0.8201,226.75
20:19:31:495,0.4514,1.2875,6.6548,43.8173,-0.3412,0.3661,-0.794,227.0469
20:19:31:516,0.1821,1.3474,6.6225,42.9651,-0.1915,0.2926,-0.7063,228.2344
20:19:31:533,0.127,1.5461,6.1832,44.0621,0.0184,0.169,-0.6206,229.1719
20:19:31:552,0.1773,1.8418,5.6516,43.6906,0.1246,0.043,-0.5657,230.0625
20:19:31:572,0.3928,2.3242,6.097,44.781,0.0975,-0.0587,-0.545,230.8594
20:19:31:593,0.4335,2.6689,7.2342,44.1072,0.0892,-0.1836,-0.5761,231.5156
20:19:31:615,0.2683,2.7132,8.2386,43.9223,0.1167,-0.2243,-0.6227,232.1562
20:19:31:633,0.0432,2.6749,8.8611,44.9628,0.0738,-0.0984,-0.6105,232.7812
20:19:31:652,-0.2585,2.7851,9.7086,46.0938,-0.0692,0.1594,-0.5601,233.4219
20:19:31:672,-0.3626,2.7288,10.4604,45.6207,-0.1965,0.4899,-0.4882,234.1562
20:19:31:693,-0.8139,2.6618,10.8961,46.2186,-0.2181,0.6673,-0.3753,234.8594
20:19:31:714,-1.0892,2.5648,11.1296,44.7798,-0.1385,0.5749,-0.1822,235.4844
20:19:31:734,-1.0905,2.3445,11.594,46.6552,-0.0546,0.3032,0.0519,235.9844
20:19:31:752,-0.517,2.0045,12.4548,47.6935,-0.029,0.1189,0.2905,236.3594
20:19:31:772,0.1198,1.9387,12.9528,45.98,-0.0711,0.0801,0.4681,236.5156
20:19:31:791,0.8141,2.0895,13.7668,46.0894,-0.1824,0.0327,0.5544,236.2969
20:19:31:813,1.0655,1.9507,15.3218,47.0468,-0.2229,-0.117,0.5211,235.2344
20:19:31:831,1.2116,1.3126,17.0349,46.2657,-0.0306,-0.0885,0.4788,235.2344
20:19:31:856,0.8273,0.7979,16.6949,48.5628,0.3606,0.3195,0.4663,234.6562
20:19:31:872,0.6825,0.5273,14.1391,48.3122,0.6831,0.736,0.4841,234.0938
20:19:31:893,1.062,0.5058,11.4947,46.8863,0.6828,0.924,0.4812,233.5469
20:19:31:914,1.4235,0.7811,10.5502,48.2413,0.4445,0.8873,0.4066,232.9844
20:19:31:932,1.226,0.7021,10.6603,46.6785,0.3023,0.8156,0.2553,232.3281
20:19:31:952,0.4227,0.5202,10.1132,49.1094,0.3694,0.8609,0.1603,232.0156
20:19:31:973,-0.3399,0.404,8.6156,48.1383,0.5313,0.9128,0.2252,231.4531
20:19:31:992,-0.6272,0.5992,6.8332,47.5666,0.6743,0.7879,0.4029,231.0938
20:19:32:014,-0.4213,0.9655,5.7247,48.8296,0.7515,0.4303,0.58,230.8281
20:19:32:032,0.0097,1.2588,5.5379,49.7465,0.7958,0.0105,0.6814,230.4688
20:19:32:052,0.382,1.497,5.7522,47.3236,0.8477,-0.2952,0.6969,229.6406
20:19:32:072,0.5975,1.4551,6.0778,48.9993,0.8908,-0.4419,0.6535,228.9062
20:19:32:093,0.4801,1.2911,6.3005,49.5318,0.91,-0.3556,0.6596,228.1719
20:19:32:114,0.5544,1.5281,6.1891,48.1166,0.8935,-0.1759,0.7315,227.5156
20:19:32:132,0.9386,1.9399,6,50.4089,0.8235,-0.112,0.7398,226.8594
20:19:32:152,1.2583,2.3278,6.255,49.0032,0.7068,-0.1546,0.6607,226.1406
20:19:32:173,1.3349,2.7108,6.5914,49.105,0.5824,-0.1687,0.523,225.3125
20:19:32:192,1.2547,2.9215,6.8822,48.9688,0.4562,-0.1756,0.364,224.5781
20:19:32:215,1.2176,2.973,6.996,49.2801,0.2834,-0.2347,0.2125,223.9375
20:19:32:232,1.2319,2.8353,7.7693,48.9784,0.0442,-0.3421,0.1129,223.4531
20:19:32:252,1.6821,2.6989,9.1663,49.6721,-0.1968,-0.4563,0.0575,223.1875
20:19:32:272,1.9777,2.3996,10.713,49.9058,-0.387,-0.4765,0.0061,223.0781
20:19:32:292,2.2411,1.8058,11.691,49.1779,-0.4956,-0.3692,0.0175,223.0625
20:19:32:316,2.9246,1.7723,11.5581,49.9836,-0.5579,-0.2638,0.0668,223.1406
20:19:32:335,3.7482,2.0345,11.193,50.9616,-0.7004,-0.4062,-0.0629,223.2656
20:19:32:352,3.7147,1.8178,12.7085,50.4964,-0.9436,-0.6393,-0.3703,223.25
20:19:32:372,2.0711,1.0588,14.9782,50.402,-0.9699,-0.4582,-0.5854,223.4062
20:19:32:392,0.722,0.2951,14.6119,50.0494,-0.6269,0.1903,-0.4467,223.9844
20:19:32:417,1.0105,0.7955,11.029,50.4885,-0.1987,0.5464,-0.0962,224.7656
20:19:32:433,2.283,1.5808,8.0506,49.8738,0.0402,0.0399,0.0892,225.2656
20:19:32:452,3.2706,2.1853,7.1229,50.252,-0.0043,-0.823,-0.0262,225.3281
20:19:32:511,2.8923,1.977,8.0961,50.0347,-0.2655,-1.1668,-0.3242,225.2188
20:19:32:512,1.6892,1.3485,8.5737,50.1901,-0.5292,-0.8347,-0.5306,225.2188
20:19:32:512,0.5783,1.0708,8.1201,50.9617,-0.7284,-0.1911,-0.5268,225.5938
20:19:32:534,0.2347,1.3318,7.2486,51.8325,-0.7998,0.2529,-0.3876,226.2656
20:19:32:551,0.4945,1.7903,6.9349,50.2572,-0.6818,0.2151,-0.2629,227.0156
20:19:32:574,0.5639,2.0979,6.5818,50.4805,-0.4075,-0.0201,-0.2163,227.5781
20:19:32:592,0.6046,2.4032,5.8013,49.9845,-0.1731,-0.1977,-0.194,228.0625
20:19:32:617,0.8848,2.8389,5.271,50.2907,-0.1292,-0.2789,-0.2158,228.3281
20:19:32:635,1.1374,3.2076,5.5571,51.5541,-0.2471,-0.2891,-0.3268,228.5938
20:19:32:654,1.2403,3.3872,6.4956,49.637,-0.4202,-0.2345,-0.4842,228.8594
20:19:32:672,1.1469,3.5979,7.9644,51.6123,-0.5619,-0.117,-0.6382,229.2812
20:19:32:692,0.7986,3.4985,9.5494,51.6123,-0.5862,0.0002,-0.7687,229.8906
20:19:32:715,0.1869,3.3321,10.8614,51.4079,-0.5039,0.1336,-0.7785,230.625
20:19:32:734,-0.1124,3.1035,11.6683,50.3314,-0.3633,0.2934,-0.6773,231.5469
20:19:32:752,-0.5925,2.9491,12.11,50.2903,-0.2325,0.3592,-0.5231,232.4375
20:19:32:772,-0.5781,2.8689,12.7026,50.8389,-0.1302,0.357,-0.3002,233.2031
20:19:32:794,0.0372,2.6881,13.823,51.4799,0.2485,0.3778,0.099,233.75
20:19:32:817,0.3688,2.5827,12.5793,50.1191,0.4634,0.4348,0.2612,234.1406
20:19:32:834,0.7327,2.5612,11.0709,50.9048,0.4839,0.2979,0.4039,233.9844
20:19:32:853,1.5982,2.4822,10.6627,51.4069,0.3441,-0.0859,0.523,233.8281
20:19:32:873,2.3345,2.384,11.5629,49.7681,0.1784,-0.5948,0.5792,233.8281
20:19:32:895,2.4135,2.2823,12.8749,49.851,0.1201,-0.8616,0.5816,233.125
20:19:32:916,2.4159,1.6394,13.5824,48.6587,0.2298,-0.6382,0.5685,232.5625
20:19:32:934,1.609,1.3174,11.5557,50.0512,0.3672,-0.088,0.5637,231.9688
20:19:32:950,0.7974,1.3665,9.1663,48.2065,0.2698,0.0944,0.6543,231.3906
20:19:32:971,0.801,1.3869,8.8515,49.5498,0.0514,-0.1714,0.7826,230.7969
20:19:32:991,1.2247,1.424,10.4293,46.8371,-0.0756,-0.6363,0.8503,230.1719
20:19:33:012,1.4714,1.3857,12.3829,46.0259,0.0413,-0.8201,0.8564,229.4062
20:19:33:034,1.0069,1.1211,12.3446,46.5391,0.4013,-0.5615,0.8125,228.5156
20:19:33:053,0.2826,0.9451,9.7565,46.2508,0.7238,-0.1085,0.8391,227.6719
20:19:33:071,0.3066,1.0876,6.9301,45.6819,0.8312,0.1474,0.9422,226.7812
20:19:33:092,0.7447,1.5628,5.3847,46.7443,0.779,0.046,0.9808,225.8906
20:19:33:112,1.5408,1.886,5.429,45.7603,0.665,-0.251,0.9113,224.9219
20:19:33:133,2.046,2.0752,6.5566,44.3259,0.5697,-0.3956,0.7206,223.75
20:19:33:152,1.9622,1.8429,7.2486,46.3786,0.5276,-0.2329,0.4862,221.9844
20:19:33:172,2.0424,1.6789,7.3779,43.6427,0.4333,0.1456,0.2865,221.0781
20:19:33:192,2.2543,1.8765,7.0079,43.4859,0.1782,0.7288,0.0535,220.3906
20:19:33:212,1.9729,2.0034,6.9134,43.3719,-0.1973,1.2428,-0.2304,219.9062
20:19:33:233,1.2212,1.8441,7.8639,44.8099,-0.4551,1.4364,-0.424,219.5938
20:19:33:251,0.7627,1.5736,9.0275,43.1765,-0.3902,1.2423,-0.4475,219.5312
20:19:33:271,0.9518,1.4539,9.8714,42.9736,-0.0969,0.7104,-0.3697,219.7344
20:19:33:291,1.4402,1.3916,10.7202,43.3194,0.1902,0.1938,-0.2706,220.0625
20:19:33:311,2.1501,1.248,10.7249,41.5274,0.3001,0.0196,-0.2067,220.3906
20:19:33:333,2.7475,1.1881,10.2473,41.6071,0.1041,0.2233,-0.1697,220.6875
20:19:33:352,3.2706,1.2588,9.6404,43.4731,-0.2607,0.5096,-0.1372,220.9219
20:19:33:371,3.6692,1.3785,9.3124,43.7311,-0.6128,0.3775,-0.183,221.1094
20:19:33:392,3.5878,0.9846,10.5573,41.7537,-0.9502,-0.1988,-0.3133,221.1875
20:19:33:415,2.1441,0.2616,14.1379,42.5878,-1.1894,-0.5767,-0.3524,221.2656
20:19:33:433,0.7711,-0.2604,17.1749,41.4508,-0.9225,-0.2012,-0.0509,221.4375
20:19:33:452,1.6808,0.1933,14.9543,40.8957,-0.175,0.495,0.4356,221.8281
20:19:33:471,3.4059,1.7101,9.887,42.1432,0.3968,0.5166,0.6623,222.4844
20:19:33:493,4.8795,2.9108,6.9349,40.7536,0.5129,-0.1897,0.4346,222.2656
20:19:33:516,5.1117,3.2603,6.7997,41.3599,0.2708,-0.7881,-0.1287,221.5312
20:19:33:534,3.7961,2.5157,8.0039,38.8888,-0.0682,-0.7373,-0.7276,220.7969
20:19:33:551,2.2124,1.6418,8.3726,39.0854,-0.3073,-0.1852,-1.0739,220.6562
20:19:33:571,0.6861,1.2133,7.7885,40.934,-0.4171,0.3759,-1.1599,221.2344
20:19:33:591,0.0229,1.0995,6.966,39.5542,-0.3702,0.5482,-1.0368,222.375
20:19:33:611,0.0372,1.3593,6.5973,40.0735,-0.2005,0.3837,-0.8443,223.6875
20:19:33:631,0.3209,1.7184,6.2897,39.2551,0.025,0.156,-0.6936,224.9219
20:19:33:651,0.6226,2.1721,5.9725,40.452,0.1792,0.0172,-0.6299,225.9062
20:19:33:671,0.7172,2.5432,5.8109,40.3522,0.1997,-0.0371,-0.6664,226.75
20:19:33:691,0.4778,2.748,6.395,39.024,0.1164,-0.0616,-0.7498,227.4688
20:19:33:711,-0.0945,2.6821,7.312,39.0416,0.0519,-0.0291,-0.7849,228.1719
20:19:33:732,-0.5134,2.6833,8.1344,39.6233,0.0376,-0.0209,-0.7194,228.9844
20:19:33:750,-0.7481,2.7372,8.8814,37.9965,0.0413,0.006,-0.599,230.3281
20:19:33:771,-0.7984,3.0161,9.1795,37.7476,-0.0003,0.1165,-0.4744,231.1094
20:19:33:791,-0.8331,3.2878,9.7481,38.1733,-0.122,0.2153,-0.3801,231.7969
20:19:33:812,-1.0473,3.2316,10.853,37.6725,-0.2178,0.2042,-0.2928,232.3125
20:19:33:833,-1.1647,2.9634,12.0238,37.4237,-0.2197,0.1035,-0.1497,232.7344
20:19:33:851,-0.9037,2.6953,12.7816,37.1222,-0.1846,0.046,0.0327,233.0312
20:19:33:872,-0.3638,2.5552,13.0138,37.6129,-0.2003,0.0982,0.1704,233.125
20:19:33:892,-0.298,2.6031,13.2077,36.1357,-0.3193,0.1072,0.2039,233.1875
20:19:33:918,-0.8307,2.0285,14.8214,37.174,-0.4008,-0.0326,0.2103,233.0625
20:19:33:935,-1.7022,1.0888,16.2292,36.4331,-0.1928,-0.0281,0.3619,232.8125
20:19:33:952,-1.841,0.3825,15.39,34.8153,0.2429,0.1434,0.6873,232.5938
20:19:33:971,-0.8486,0.3849,12.7361,35.2205,0.5947,0.1208,1.0069,232.2969
20:19:33:991,0.6418,0.5477,10.8638,36.1037,0.6778,-0.2089,1.1459,231.7344
20:19:34:011,1.682,0.6554,9.8247,34.9748,0.5444,-0.3727,1.0918,230.7188
20:19:34:035,1.8784,0.6518,9.0801,35.4436,0.2663,-0.2337,0.9249,228.8125
20:19:34:051,1.4821,0.3561,8.3379,34.5622,0.0024,0.0633,0.7773,227.6719
20:19:34:070,0.9243,0.4543,7.4497,35.7358,-0.1542,0.2718,0.7555,226.625
20:19:34:091,0.8524,1.0002,7.148,35.5908,-0.1766,0.2454,0.7928,225.7344
20:19:34:113,0.7842,1.4946,7.1755,36.1075,-0.0559,-0.0068,0.7621,224.8906
20:19:34:134,0.1545,1.6347,7.9249,35.452,0.1167,-0.2654,0.7294,223.9531
20:19:34:151,-0.3111,1.509,8.7533,34.3649,0.3481,-0.2499,0.7973,223.0781
20:19:34:171,-0.3255,1.5197,8.6516,33.2587,0.6059,-0.0041,0.935,222.3125
20:19:34:193,1.4175,2.4786,6.8727,34.9384,0.8469,0.3171,1.0362,221.4219
20:19:34:217,2.0759,2.8198,6.6787,33.712,0.8583,0.213,0.8561,221.4219
20:19:34:232,2.0962,2.7803,6.9385,34.2877,0.8123,0.1512,0.6045,220.3281
20:19:34:251,1.9227,2.6151,7.0187,33.3861,0.7268,0.2271,0.418,219.0625
20:19:34:271,1.8329,2.4176,6.7374,35.0929,0.5872,0.3197,0.295,217.8594
20:19:34:291,1.9155,2.2775,6.5926,34.3434,0.3657,0.259,0.2231,216.0781
20:19:34:313,2.3728,1.9698,7.0989,32.6065,0.0977,0.046,0.1648,215.5625
20:19:34:333,2.8923,1.7053,8.1775,35.9251,-0.1923,-0.1357,0.0897,215.1406
20:19:34:351,3.6058,1.5509,9.8678,32.9598,-0.4282,-0.2446,0.0154,214.8281
20:19:34:370,3.9889,1.1367,11.1822,33.5807,-0.4911,-0.2917,-0.101,214.6406
20:19:34:391,4.0595,1.0205,11.029,33.8779,-0.4663,-0.3508,-0.2057,214.5781
20:19:34:412,4.2271,1.1402,11.0565,32.9407,-0.6061,-0.6872,-0.3713,214.6094
20:19:34:433,3.6309,0.8577,13.2005,32.8896,-0.9063,-0.9538,-0.5881,214.7969
20:19:34:450,2.3117,0.4783,15.8174,31.5891,-1.0594,-0.6009,-0.6544,215.0938
20:19:34:471,1.7563,0.1873,15.8138,32.8304,-0.8219,0.1727,-0.4571,215.6562
20:19:34:490,1.931,0.8601,12.1998,35.1955,-0.42,0.5003,-0.1971,216.5312
20:19:34:511,2.3189,1.4766,9.6942,33.9981,-0.2005,0.0012,-0.0605,217.375
20:19:34:560,2.6098,1.6754,9.4045,33.8315,-0.1401,-0.5636,-0.0608,217.9375
20:19:34:561,2.6026,1.7639,9.6631,33.3329,-0.1254,-0.5873,-0.1141,218.1094
20:19:34:571,2.4637,1.9375,8.6647,33.0277,-0.0993,-0.2406,-0.2049,218.1875
20:19:34:591,2.2243,2.074,6.9948,33.7077,-0.1276,0.0468,-0.3434,218.3281
20:19:34:611,1.6294,2.1506,6.1532,33.4123,-0.2128,0.1245,-0.476,218.6562
20:19:34:631,1.1924,2.0704,6.1592,32.3788,-0.2424,0.0691,-0.5396,218.9844
20:19:34:650,1.0153,2.0848,6.3196,33.08,-0.1723,0.0502,-0.5561,219.4375
20:19:34:671,0.9458,2.2392,6.0227,33.5639,-0.081,0.0766,-0.5748,220.0312
20:19:34:691,0.8369,2.5049,5.7139,33.5639,-0.065,0.1019,-0.6131,220.6719
20:19:34:712,0.6406,2.6606,5.9114,32.8495,-0.1145,0.0574,-0.6672,221.2812
20:19:34:732,0.4526,2.6857,6.6644,32.3237,-0.183,-0.0206,-0.6938,221.9531
20:19:34:751,0.2359,2.724,8.0339,32.8838,-0.2277,-0.067,-0.6874,222.6875
20:19:34:771,-0.037,2.6773,9.4393,33.1482,-0.204,0.0084,-0.6446,223.4219
20:19:34:791,-0.2393,2.7108,9.9792,32.9296,-0.1161,0.2068,-0.5394,224.2344
20:19:34:810,-0.2321,2.8689,9.6476,32.2221,-0.0562,0.3464,-0.4219,225.0312
20:19:34:833,-0.2405,2.9443,9.7038,32.782,-0.0788,0.2675,-0.3274,225.7031
20:19:34:851,-0.3195,2.815,10.7213,34.1107,-0.1356,0.0249,-0.2403,226.2031
20:19:34:871,-0.4907,2.3984,12.3829,32.4629,-0.1547,-0.1213,-0.1085,226.5938
20:19:34:891,-0.207,1.9962,13.2604,33.6505,-0.1025,-0.0179,0.1001,226.75
20:19:34:914,0.315,2.0596,12.8354,33.0154,-0.0503,0.1333,0.2876,226.9062
20:19:34:934,1.2032,2.2907,12.0669,32.8539,-0.1257,0.059,0.3736,227.1406
20:19:34:950,1.7479,2.1793,13.519,34.056,-0.3454,-0.4113,0.2735,226.9062
20:19:34:975,1.0272,1.3569,16.7128,33.0079,-0.4397,-0.6206,0.1235,226.4844
20:19:34:990,-0.1795,0.1059,18.2128,33.9803,-0.1949,-0.0307,0.1528,226.1406
20:19:35:010,-0.6272,-0.5046,14.5377,33.2421,0.2634,0.8135,0.4189,226
20:19:35:032,-0.5362,-0.0114,9.9073,33.7169,0.4778,0.8684,0.7022,225.9375
20:19:35:050,-0.0442,0.2915,7.9082,34.9555,0.448,0.1743,0.8404,225.6094
20:19:35:070,0.1929,0.2688,8.6157,33.5078,0.3127,-0.4571,0.879,224.8438
20:19:35:090,0.3521,0.0784,9.5003,33.8915,0.2405,-0.4371,0.9232,223.8594
20:19:35:111,0.4849,0.2221,8.5103,35.2133,0.2309,-0.0571,0.9757,222.9375
20:19:35:134,0.7914,0.5357,6.6357,33.6315,0.204,0.2548,1.0266,221.9531
20:19:35:152,1.2212,0.8613,5.2769,32.8925,0.1569,0.2827,1.0351,220.8906
20:19:35:170,1.6629,1.2635,4.8568,34.3324,0.0828,0.0683,1.0063,219.7031
20:19:35:191,1.8544,1.4874,6,34.9287,-0.024,-0.1431,0.9025,218.5469
20:19:35:210,1.6413,1.3569,7.6412,35.4274,-0.0397,-0.1452,0.8138,216.7656
20:19:35:236,1.4438,1.327,8.6552,33.4454,0.0834,0.0564,0.8138,215.75
20:19:35:256,1.7491,1.4287,8.2062,32.9282,0.314,0.2095,0.8404,214.8906
20:19:35:270,1.9741,1.716,7.1636,33.7448,0.4738,0.1341,0.8013,213.9375
20:19:35:290,2.3716,1.8358,6.8475,34.5537,0.4876,-0.0267,0.7102,212.9375
20:19:35:311,2.7355,2.1039,6.9732,34.4356,0.399,-0.112,0.5486,212.0312
20:19:35:332,2.7008,2.2619,7.494,34.4356,0.2155,-0.2006,0.3121,211.1875
20:19:35:351,2.2363,1.9279,8.879,34.3488,-0.0064,-0.2912,0.1073,210.5469
20:19:35:370,1.8664,1.6023,10.6507,34.4398,-0.1638,-0.2747,0.0279,210.3438
20:19:35:390,1.9717,1.3354,11.9041,32.8766,-0.1928,-0.2057,0.0327,210.1562
20:19:35:410,2.4626,1.09,12.3087,33.2582,-0.1635,-0.1471,0.0623,210.1562
20:19:35:434,3.0527,0.8936,11.9496,36.3414,-0.1694,-0.1154,0.0934,210.1562
20:19:35:453,3.5842,0.908,11.3594,36.199,-0.2581,-0.1596,0.1035,210.1406
20:19:35:470,4.3731,1.0936,11.108,35.2444,-0.4293,-0.2861,0.0239,210.0781
20:19:35:491,4.4102,1.0912,12.2524,33.8936,-0.6509,-0.4257,-0.1982,209.9531
20:19:35:510,3.6142,0.5333,13.8278,34.5552,-0.7217,-0.3274,-0.4137,209.9844
20:19:35:532,2.4398,0.076,14.1247,35.0027,-0.5454,0.091,-0.4312,210.3125
20:19:35:553,2.6062,0.2412,11.7102,35.5731,-0.2048,0.4478,-0.2645,210.8906
20:19:35:571,3.6297,0.7392,9.0251,34.3075,0.0221,0.2529,-0.2033,211.3906
20:19:35:590,4.2438,1.0373,7.7513,35.2793,0.0312,-0.2691,-0.37,211.6719
20:19:35:611,3.34,0.9116,8.8431,36.0903,-0.4053,-0.2835,-0.9375,211.875
20:19:35:632,2.1776,0.6818,8.557,35.9921,-0.5388,0.209,-1.1034,211.875
20:19:35:651,1.1625,0.5836,7.6891,37.1077,-0.539,0.4779,-1.0877,212.3281
20:19:35:670,0.4909,0.7308,6.9912,37.0992,-0.4282,0.4215,-0.954,213.1094
20:19:35:690,0.2347,0.9882,6.6285,35.5528,-0.2615,0.1717,-0.7833,215.5312
20:19:35:712,0.3784,1.254,6.6141,37.5072,-0.1028,-0.011,-0.6264,216.7188
20:19:35:732,0.5209,1.576,6.4381,36.8677,-0.0136,-0.0582,-0.5473,217.7969
20:19:35:750,0.4586,1.9255,6.7027,38.114,-0.0346,-0.0603,-0.5367,219.0938
20:19:35:769,0.4131,2.0656,7.8076,36.0844,-0.0661,-0.0081,-0.5521,219.3906
20:19:35:790,0.1414,2.0165,8.8467,37.71,-0.0043,0.0859,-0.5612,220.0312
20:19:35:810,0.0516,1.977,9.2932,38.1621,0.1206,0.1775,-0.4757,220.6406
20:19:35:833,0.2755,2.2679,9.286,37.868,0.2325,0.2036,-0.3551,221.2812
20:19:35:853,0.6525,2.5181,9.4704,38.7675,0.2935,0.1568,-0.2701,221.8906
20:19:35:870,0.9841,2.6689,9.6356,37.37,0.3124,0.1088,-0.2446,222.4219
20:19:35:891,0.874,2.6426,9.8128,37.5579,0.2724,0.0622,-0.2512,222.7969
20:19:35:910,0.9063,2.475,10.1108,38.2274,0.1776,0.0271,-0.2246,223.0625
20:19:35:932,1.0069,2.2907,10.8099,40.0201,0.037,-0.0124,-0.1969,223.5781
20:19:35:951,1.0631,1.9232,11.6168,38.7708,-0.1089,0.0311,-0.1588,223.8281
20:19:35:969,0.9901,1.6059,11.7808,39.9776,-0.2296,0.1474,-0.1122,223.9375
20:19:35:989,0.5388,1.5784,11.5916,38.4918,-0.3627,0.1224,-0.0528,224.2188
20:19:36:009,-0.0382,1.3773,12.6068,39.4098,-0.4788,-0.153,0.0274,224.2969
20:19:36:034,-0.7253,0.7751,14.6454,39.0912,-0.4165,-0.2723,0.1712,224.3906
20:19:36:052,-1.4041,0.2137,14.6622,38.0265,-0.1047,0.0204,0.4292,224.4219
20:19:36:075,-1.3227,0.3921,12.2644,39.2014,0.2011,0.2281,0.7738,224.375
20:19:36:089,-0.2752,0.7835,10.5562,36.886,0.2919,-0.0257,1.0364,224.0625
20:19:36:110,0.9159,1.1259,10.707,37.4828,0.2538,-0.4273,1.1195,223.3906
20:19:36:134,1.5815,1.3318,11.369,39.0723,0.2338,-0.5695,1.0253,222.3125
20:19:36:152,1.8676,1.2659,11.0266,37.6825,0.2178,-0.329,0.8415,221.0625
20:19:36:170,1.949,1.2528,9.6978,38.0217,0.1222,0.1778,0.6465,219.8906
20:19:36:190,1.6569,1.2623,8.2302,38.333,0.0064,0.5895,0.4729,219.3438
20:19:36:210,1.2331,1.1391,7.2522,37.0383,-0.0266,0.6787,0.3581,218.4062
20:19:36:232,0.9195,0.9403,6.8008,38.1209,0.0525,0.5166,0.295,217.625
20:19:36:251,0.5879,0.6866,6.7697,36.6391,0.1766,0.3035,0.2628,217.0781
20:19:36:269,0.2683,0.331,6.8643,37.1553,0.2943,0.2305,0.2737,216.4062
20:19:36:289,0.2587,0.264,6.7913,37.1282,0.3574,0.3088,0.3217,216.0625
20:19:36:310,0.5663,0.5632,6.7829,36.2422,0.3563,0.3799,0.3454,215.7344
20:19:36:332,0.5879,1.0421,7.3084,38.1074,0.3214,0.3677,0.3251,215.3594
20:19:36:351,0.5244,1.388,8.2888,37.0327,0.3465,0.3176,0.2924,214.9219
20:19:36:369,0.6394,1.503,8.6731,36.9976,0.4538,0.2952,0.2873,214.5156
20:19:36:390,1.0583,1.6023,8.8216,35.9423,0.5364,0.2369,0.2924,214.1094
20:19:36:410,1.6366,1.4766,8.9305,35.7732,0.5358,0.1333,0.2415,213.75
20:19:36:435,2.0687,1.1989,9.3279,34.6915,0.404,0.0116,0.1691,213.375
20:19:36:451,2.678,0.8051,10.4161,36.8725,0.1968,-0.1005,0.1222,213.0312
20:19:36:470,3.5806,0.3107,11.7233,35.2287,0.0533,-0.1498,0.1019,212.7812
20:19:36:489,4.7382,0.0102,11.7173,33.9613,-0.0117,-0.1168,0.058,212.6094
