Time,Acc_X,Acc_Y,Acc_Z,Meg,Gyr_X,Gyr_Y,Gyr_Z,Ore
13:24:07:107,-2.7269,2.967,7.5562,57.9939,0.478,-1.1117,-0.0358,68.625
13:24:07:120,-2.5342,3.0436,6.6823,57.5449,0.3124,-1.1642,-0.1647,68.625
13:24:07:140,-2.691,2.9383,6.2047,56.9158,0.0421,-1.2984,-0.2118,192.0312
13:24:07:156,-3.0238,2.6462,6.0311,57.4192,-0.2559,-1.5927,-0.1231,192.4688
13:24:07:175,-3.3817,2.4702,6.3483,55.3813,-0.4647,-1.8902,0.1139,192.9844
13:24:07:209,-2.7807,2.7001,6.9565,58.0693,-0.5318,-1.9003,0.2564,193.4688
13:24:07:226,-1.7501,3.2615,8.0853,57.325,-0.6043,-1.4861,0.1967,193.7812
13:24:07:235,-0.9432,3.55,9.869,56.716,-0.5225,-0.7213,0.0178,193.875
13:24:07:254,-0.9983,3.5105,10.6435,54.7727,-0.2895,-0.3879,-0.2374,193.875
13:24:07:276,-1.598,3.125,10.7609,57.0063,-0.0024,-0.3322,-0.4432,193.8906
13:24:07:308,-2.0805,2.6893,10.2497,56.2351,0.2147,-0.4702,-0.5447,194.0781
13:24:07:324,-2.2301,2.317,9.8235,57.0805,0.326,-0.599,-0.6075,194.5156
13:24:07:343,-2.4504,2.2715,9.7529,57.2106,0.3619,-0.4758,-0.6166,194.8125
13:24:07:353,-2.7724,2.238,9.7996,55.9441,0.3396,-0.2267,-0.4792,195.9375
13:24:07:376,-2.8394,2.1997,9.389,56.7403,0.2615,0.026,-0.2003,196.7344
13:24:07:396,-2.3606,2.3122,8.5295,57.7175,0.1574,0.3237,0.074,197.4688
13:24:07:427,-2.0733,2.5899,7.5263,57.2956,0.0565,0.5437,0.3043,197.9062
13:24:07:432,-2.3211,2.8808,6.9673,55.3691,-0.0285,0.5022,0.6077,197.9531
13:24:07:458,-2.448,3.1562,6.9637,56.1889,-0.0541,0.3072,0.9115,197.6719
13:24:07:472,-1.707,3.2735,7.4545,57.2724,-0.0163,0.2215,1.0314,197.0469
13:24:07:491,-0.8726,3.386,7.6783,56.0376,-0.0027,0.173,0.9052,196.0781
13:24:07:513,-0.766,3.7715,7.5778,55.6441,-0.1049,0.1645,0.6817,194.9375
13:24:07:538,-0.802,3.9379,7.8687,57.7665,-0.2887,0.2942,0.4455,193.7656
13:24:07:551,-0.9288,4.1438,8.3104,57.4647,-0.5009,0.5648,0.2407,192.8281
13:24:07:571,-1.1024,4.0887,8.7533,57.4647,-0.7353,0.9677,0.0407,192.125
13:24:07:589,-2.0266,4.0001,9.3148,56.8999,-0.8277,1.2311,-0.0741,191.6562
13:24:07:610,-2.8861,3.9367,9.2896,55.9815,-0.7878,1.1776,-0.0536,191.3125
13:24:07:637,-3.4104,3.823,9.2094,57.3383,-0.6429,0.9573,0.0609,190.9844
13:24:07:650,-3.4547,3.8194,9.3722,56.5196,-0.3862,0.6441,0.1861,190.7812
13:24:07:670,-3.0645,3.8613,9.3255,56.3225,-0.1316,0.2763,0.221,190.5
13:24:07:691,-2.6335,3.6566,9.3902,56.7338,0.0434,0.0105,0.2194,190.1406
13:24:07:708,-2.7269,3.2962,9.9097,56.6492,0.1475,-0.0238,0.2601,189.8438
13:24:07:736,-2.7939,2.8042,10.5286,56.4497,0.2461,0.1395,0.3683,189.5938
13:24:07:749,-2.6706,2.4846,10.8279,57.6394,0.3545,0.2425,0.4822,189.3281
13:24:07:771,-2.0625,2.3613,10.5095,56.3978,0.4368,0.1781,0.5411,188.9219
13:24:07:788,-1.1479,2.4164,9.784,55.8981,0.4338,-0.0694,0.4844,188.375
13:24:07:807,-0.5158,2.5349,9.2106,57.8668,0.3553,-0.3658,0.3187,187.7812
13:24:07:826,-0.6499,2.3792,8.9161,56.6503,0.2424,-0.6795,0.1813,187.5156
13:24:07:848,-0.9636,2.22,9.0358,55.2292,0.1404,-1.133,0.1086,187.1562
13:24:07:871,-0.9169,2.1063,9.6631,58.0095,-0.0458,-1.5575,-0.0549,187.0156
13:24:07:888,-0.7026,1.9136,11.1367,57.5497,-0.3523,-1.479,-0.2651,187.0312
13:24:07:908,-0.5254,1.4407,13.015,56.5277,-0.5747,-0.7756,-0.4094,187.25
13:24:07:926,-0.4991,0.9511,13.252,56.0843,-0.5697,0.0329,-0.4267,187.9688
13:24:07:946,-0.4237,1.0828,11.4348,55.1056,-0.4237,0.4092,-0.3756,188.5469
13:24:07:969,0.1677,1.4252,9.3686,57.4048,-0.2333,0.2872,-0.3852,188.9844
13:24:07:987,0.6717,1.6466,7.6987,58.1707,-0.1337,-0.1021,-0.5322,188.9844
13:24:08:004,0.552,1.8705,7.0151,58.3729,-0.1795,-0.4355,-0.7556,189.3125
13:24:08:024,-0.1172,1.7627,7.1827,57.974,-0.3063,-0.5256,-0.9442,189.6875
13:24:08:054,-0.9324,1.3306,7.7489,55.9761,-0.4107,-0.3064,-1.0001,191.1875
13:24:08:064,-1.8446,1.1223,7.968,56.4733,-0.4346,0.0156,-0.8914,191.1875
13:24:08:089,-2.3151,1.1821,7.7202,56.8915,-0.3718,0.1834,-0.7034,192.3281
13:24:08:104,-2.5234,1.4718,7.3838,57.081,-0.2615,0.1373,-0.5029,193.4844
13:24:08:124,-2.4659,1.8022,7.2007,56.5207,-0.1356,0.0066,-0.3468,194.4375
13:24:08:144,-2.3546,2.1147,7.0427,55.611,-0.0783,-0.1021,-0.2571,195.1875
13:24:08:171,-2.3666,2.2871,6.8667,56.2242,-0.1369,-0.1365,-0.1937,195.7344
13:24:08:189,-2.5341,2.4104,7.0858,56.15,-0.29,-0.1247,-0.1085,196.25
13:24:08:206,-2.4779,2.6366,8.1033,58.0696,-0.4011,-0.088,-0.0187,196.5312
13:24:08:225,-2.1056,2.8222,9.4177,56.2656,-0.3784,-0.0227,0.0186,196.7031
13:24:08:246,-1.9631,2.9467,10.3395,55.8998,-0.281,0.0963,0.0332,196.75
13:24:08:271,-2.2959,2.8042,10.8698,56.9191,-0.1787,0.3123,0.1358,196.7344
13:24:08:291,-2.5437,2.548,10.9883,56.3067,-0.0964,0.5173,0.3544,196.7031
13:24:08:306,-2.0757,2.8186,10.8578,56.1054,0.0128,0.4359,0.5155,196.6406
13:24:08:328,-1.1455,3.1993,10.877,56.8079,0.1276,0.0934,0.4953,196.4531
13:24:08:343,-0.4213,3.1203,11.3965,57.0043,0.2559,-0.1729,0.3813,195.9844
13:24:08:365,-0.0765,2.6139,11.8047,56.1156,0.4069,-0.231,0.2782,195.3438
13:24:08:387,-0.2872,2.2416,11.3439,56.6732,0.4836,-0.194,0.2306,194.7812
13:24:08:405,-0.711,2.1506,10.6519,57.2877,0.4269,-0.1596,0.2532,194.4062
13:24:08:424,-0.8462,2.2715,10.361,56.3312,0.2844,-0.2116,0.2668,194.1406
13:24:08:445,-0.7217,2.4906,10.537,56.7724,0.077,-0.4241,0.1856,193.8438
13:24:08:471,-0.9779,2.3876,11.8371,57.017,-0.0924,-0.602,0.0905,193.5781
13:24:08:486,-1.6064,1.7579,13.4292,57.054,-0.0823,-0.5719,0.1086,193.3594
13:24:08:504,-2.5533,0.9284,14.0026,54.8661,0.1073,-0.3237,0.3552,193.2812
13:24:08:524,-2.8693,0.5261,13.2377,54.7132,0.3867,-0.0566,0.7427,193.2656
13:24:08:544,-2.1128,0.6542,11.3498,55.3797,0.6085,0.0609,0.9978,193.0938
13:24:08:564,-1.6064,1.1247,9.0622,56.3081,0.64,-0.1026,1.0796,192.5
13:24:08:588,-1.1694,1.4898,7.7094,54.8382,0.5079,-0.3937,1.0833,191.5469
13:24:08:603,-0.6308,1.752,7.2246,53.4344,0.322,-0.6283,0.9621,190.3594
13:24:08:628,-0.7972,1.8621,7.2402,56.6625,0.1659,-0.7415,0.8527,189.1719
13:24:08:643,-0.9217,1.5461,7.6185,56.8308,0.085,-0.6494,0.8095,188.0781
13:24:08:665,-0.9612,1.3138,7.8842,56.2138,0.0945,-0.4158,0.8311,187.2188
13:24:08:688,-0.5386,1.6311,6.8308,54.9188,0.1217,-0.1884,0.8665,186.3906
13:24:08:706,-0.3291,1.904,6.4082,57.1087,0.1017,-0.0672,0.8543,185.5469
13:24:08:726,-0.3387,1.9675,6.2466,53.6427,0.0658,-0.0539,0.7866,184.6719
13:24:08:748,-0.4895,1.8824,6.243,54.0476,0.032,-0.0752,0.7166,183.6875
13:24:08:770,-0.5051,2.0704,6.1999,53.5934,-0.0184,-0.0627,0.686,182.75
13:24:08:788,-0.2549,2.4594,6.3567,55.2874,-0.0938,-0.0864,0.6716,181.9375
13:24:08:804,-0.0214,2.8437,7.1157,54.198,-0.1912,-0.2118,0.5792,181.1562
13:24:08:823,0.1115,3.0233,8.4576,53.4891,-0.2751,-0.3772,0.4159,180.3906
13:24:08:844,-0.0693,3.0508,10.2485,53.9295,-0.2533,-0.4856,0.2159,179.6875
13:24:08:863,-0.3459,3.0365,10.8064,54.2862,-0.0439,-0.5074,0.0599,179.2031
13:24:08:887,-0.365,3.246,10.306,53.6708,0.1204,-0.2536,-0.0278,178.9219
13:24:08:905,0.0636,3.4111,9.9768,55.2347,-0.0479,0.2369,-0.0927,178.8594
13:24:08:924,-0.201,3.459,10.3191,54.8907,-0.4471,0.7341,-0.2291,178.9062
13:24:08:945,-0.2273,2.7803,11.8466,52.7999,-0.8128,0.8694,-0.3426,178.9688
13:24:08:971,0.3616,1.7855,13.5453,55.0777,-0.8938,0.6918,-0.3441,179.0781
13:24:08:989,0.7076,1.309,13.3729,53.9017,-0.6453,0.5243,-0.2579,179.3125
13:24:09:006,1.0739,1.2851,12.7552,54.0325,-0.4434,0.4124,-0.1111,179.625
13:24:09:075,1.2834,1.0134,12.7852,53.562,-0.4402,0.2958,-0.0288,179.9219
13:24:09:076,0.9758,0.3849,13.0282,54.6061,-0.433,0.1674,-0.0994,180.1094
13:24:09:077,0.7878,-0.0557,12.3327,52.8793,-0.2818,0.1986,-0.1404,180.1094
13:24:09:088,1.1936,-0.0186,10.6471,54.0455,-0.0722,0.3264,-0.0816,180.2031
13:24:09:106,1.9945,0.4687,8.9113,52.9691,0.0615,0.3094,-0.0259,180.3438
13:24:09:124,2.3285,1.0576,8.15,52.3241,0.0485,-0.0313,-0.1218,180.3906
13:24:09:144,2.0268,1.1091,8.6025,51.8526,-0.0676,-0.5932,-0.3678,180.3906
13:24:09:163,1.1254,0.6135,9.5554,52.1639,-0.171,-1.0086,-0.6557,180.5312
13:24:09:186,0.1665,0.2053,9.9792,51.827,-0.1904,-1.0366,-0.8158,181
13:24:09:204,-0.4237,0.1179,9.3603,51.7137,-0.1156,-0.6686,-0.7862,181.8438
13:24:09:226,-0.6104,0.4567,7.889,51.257,0.0056,-0.1429,-0.6379,182.8906
13:24:09:244,-0.2022,0.9248,6.3998,51.8029,0.0943,0.2502,-0.468,183.8125
13:24:09:264,0.2312,1.4778,5.405,52.3031,0.1345,0.3874,-0.3625,184.5625
13:24:09:285,0.4371,1.9423,5.1895,52.071,0.1302,0.3115,-0.3495,184.8438
13:24:09:304,0.4861,2.2272,5.4805,52.5499,0.1236,0.1232,-0.4083,185.2656
13:24:09:324,0.461,2.4187,6.431,50.9547,0.1015,-0.055,-0.4786,185.6094
13:24:09:348,0.1258,2.4415,7.6221,52.2753,0.0879,-0.1229,-0.5529,186.7969
13:24:09:371,-0.347,2.4056,8.8216,51.9958,0.1294,0.0409,-0.5761,187.4062
13:24:09:390,-0.6846,2.3769,10.0222,50.629,0.1824,0.2955,-0.4941,188.1094
13:24:09:406,-0.9229,2.5121,10.6711,49.3174,0.2304,0.5445,-0.4163,188.1094
13:24:09:430,-1.1742,2.8282,10.7357,48.7603,0.1659,0.6516,-0.3727,188.7656
13:24:09:443,-1.8051,3.1729,11.2301,48.5819,0.0567,0.5445,-0.3343,189.2656
13:24:09:463,-2.3115,2.8677,12.5445,50.8451,0.0903,0.3674,-0.2267,189.6719
13:24:09:491,-2.527,2.2811,13.5968,51.9211,0.3081,0.4236,-0.0224,190.3438
13:24:09:507,-2.1714,2.0788,12.7397,50.2182,0.4472,0.7259,0.1565,190.3438
13:24:09:524,-2.0912,2.7324,10.3862,49.1869,0.2658,0.904,0.2452,190.5469
13:24:09:543,-2.1379,3.4279,9.0861,49.1799,-0.0597,0.6641,0.2774,190.5156
13:24:09:565,-1.8554,3.3489,9.1148,48.5811,-0.2591,-0.0928,0.2793,190.2656
13:24:09:591,-2.0888,2.7791,10.355,47.7505,-0.2208,-1.0531,0.3893,189.8906
13:24:09:607,-2.1355,1.7208,12.4967,47.7504,0.1289,-1.5421,0.633,189.4844
13:24:09:626,-1.7788,0.7416,13.106,47.4367,0.5252,-1.2417,0.9464,189.0156
13:24:09:643,-0.8295,0.5573,11.4169,47.7448,0.5132,-0.4374,1.168,188.6406
13:24:09:664,0.9291,1.3605,9.3207,48.2214,0.0615,0.2292,1.054,187.9375
13:24:09:692,1.9717,2.2308,8.8228,49.0735,-0.4173,0.5216,0.629,186.8281
13:24:09:708,1.4486,2.2081,9.3231,49.0376,-0.6234,0.4569,0.1917,185.5625
13:24:09:724,-0.031,1.3797,10.142,48.658,-0.4956,0.3062,0.0292,184.5156
13:24:09:744,-1.3071,0.4914,10.0366,48.3493,-0.1808,0.2678,0.1707,184.1875
13:24:09:764,-1.8937,0.1933,8.636,48.8256,0.0898,0.2934,0.4718,183.9062
13:24:09:790,-1.5489,0.3945,6.8631,47.192,0.1902,0.247,0.7366,183.8438
13:24:09:806,-0.7397,0.8936,5.7378,47.0307,0.1617,0.0862,0.8426,183.6094
13:24:09:824,0.0097,1.4383,5.5056,47.474,0.1113,-0.1298,0.7981,183.0312
13:24:09:844,0.3509,1.6071,5.9605,47.7238,0.0929,-0.3226,0.6806,182.1562
13:24:09:863,0.23,1.5832,6.7542,48.133,0.1039,-0.4081,0.5739,181.2344
13:24:09:889,-0.1136,1.4563,7.646,48.6862,0.106,-0.3767,0.5121,180.3438
13:24:09:907,-0.5948,1.3581,8.7928,48.0454,0.0826,-0.2054,0.5318,179.2812
13:24:09:927,-0.5972,1.4934,10.0665,46.1896,0.0972,0.1189,0.5653,178.75
13:24:09:943,-0.0131,1.9782,10.6064,46.4796,0.1739,0.4316,0.4695,178.2188
13:24:09:965,0.6944,2.4307,10.1156,48.1357,0.1694,0.6273,0.2149,177.5781
13:24:09:990,0.7639,2.4642,9.3399,48.0196,0.0402,0.5208,-0.0829,176.9531
13:24:10:005,0.2192,1.916,9.6284,46.4674,-0.0879,0.1221,-0.2757,176.4688
13:24:10:032,-0.3626,0.8901,10.932,47.3949,-0.126,-0.244,-0.2715,176.3125
13:24:10:042,-0.2812,0.0413,11.8921,46.5115,-0.0954,-0.3841,-0.1202,176.4844
13:24:10:065,0.5316,-0.0353,11.8754,46.5118,-0.1212,-0.358,-0.0275,176.8281
13:24:10:084,1.4893,1.1079,10.798,46.1754,-0.3071,-0.394,-0.1711,177.1094
13:24:10:103,0.7495,0.6434,12.2991,48.2589,-0.591,-0.6054,-0.4544,177.2188
13:24:10:123,0.0348,-0.1646,13.6195,47.4799,-0.6842,-0.7389,-0.6275,177.3438
13:24:10:145,0.0827,-0.6099,13.0389,48.1285,-0.4847,-0.6126,-0.5817,177.7812
13:24:10:172,0.8537,-0.392,10.7106,45.4063,-0.1896,-0.3144,-0.3649,178.5156
13:24:10:186,1.8712,0.7943,9.0849,48.3117,-0.098,-0.1154,-0.1383,179.3125
13:24:10:204,2.6996,1.7723,8.7174,47.2717,-0.1614,-0.1911,-0.13,180.1094
13:24:10:222,2.6086,1.8992,8.3008,47.8735,-0.1667,-0.3583,-0.4259,180.2188
13:24:10:242,1.779,1.6574,7.6592,47.721,-0.1704,-0.3511,-0.7876,180.3438
13:24:10:262,0.8213,1.4527,7.3204,48.5241,-0.2325,-0.1796,-1.0329,180.6562
13:24:10:288,0.0995,1.3246,7.2941,46.8496,-0.2975,0.055,-1.1476,181.4219
13:24:10:307,-0.3854,1.2839,7.2785,48.3105,-0.315,0.299,-1.1545,182.5156
13:24:10:323,-0.7852,1.3258,7.3156,47.7924,-0.2365,0.4569,-1.0749,183.7344
13:24:10:348,-0.8774,1.5006,7.1193,46.6295,-0.0495,0.4329,-0.9348,185.0625
13:24:10:362,-0.8666,1.8872,6.6416,48.7825,0.1627,0.3152,-0.7793,186.3281
13:24:10:383,-0.8103,2.2835,6.4441,47.8043,0.2852,0.1504,-0.6555,187.3906
13:24:10:408,-0.4392,2.7132,7.0187,47.674,0.2842,-0.0427,-0.5639,188.3281
13:24:10:426,-0.0909,3.0676,8.1536,48.8329,0.2192,-0.1429,-0.5548,189.1094
13:24:10:442,-0.0921,3.1765,9.371,48.9504,0.1694,-0.125,-0.635,189.7969
13:24:10:473,-0.7732,2.9503,9.9768,49.568,0.167,0.0276,-0.7538,190.4062
13:24:10:489,-1.695,2.5373,10.4269,48.991,0.1252,0.2739,-0.8123,191.4688
13:24:10:507,-2.2995,2.2392,11.1248,48.9384,0.0269,0.536,-0.7215,192.2812
13:24:10:522,-2.7185,2.2643,11.8023,49.3754,-0.0663,0.7458,-0.5204,193.1719
13:24:10:543,-2.5102,2.0369,12.5326,49.1818,-0.0868,0.7022,-0.3111,193.9375
13:24:10:564,-1.9823,1.7053,12.4787,49.3581,-0.0234,0.5584,-0.1479,194.4531
13:24:10:587,-1.9045,1.9088,12.4691,49.7531,-0.028,0.4327,-0.0296,194.7188
13:24:10:607,-1.5813,2.2152,12.9946,51.6562,-0.131,0.3139,0.0806,194.8281
13:24:10:623,-1.4963,1.9674,14.1798,50.8645,-0.2019,0.0159,0.099,194.8125
13:24:10:642,-1.8901,1.2552,14.9747,50.8909,-0.11,-0.2385,0.0977,194.6875
13:24:10:664,-1.8207,0.4304,13.7787,50.8253,0.1601,-0.1301,0.2111,194.5625
13:24:10:689,-1.3766,0.2675,10.956,52.0094,0.4197,0.2247,0.4034,194.4688
13:24:10:703,-0.6104,0.3825,8.6815,52.0729,0.4549,0.3711,0.5754,194.25
13:24:10:722,-0.1004,0.5716,7.9237,51.3206,0.2991,0.1008,0.6151,193.7969
13:24:10:746,-0.0861,0.4974,8.3068,51.1626,0.0858,-0.2925,0.5246,193.4688
13:24:10:762,-0.5338,0.2747,8.7318,50.9623,-0.0522,-0.5221,0.413,192.75
13:24:10:783,-1.0342,0.082,8.5761,51.2106,-0.09,-0.4648,0.3861,191.875
13:24:10:805,-1.2784,0.1371,7.6819,53.2019,0.028,-0.0531,0.6777,191.4688
13:24:10:826,-0.9276,0.4986,6.5004,52.3524,0.0487,-0.0715,0.8237,191.4688
13:24:10:843,-0.2225,0.9738,6.0754,52.0422,0.0519,-0.1868,0.8308,190.5781
13:24:10:863,-0.0095,1.2911,6.1017,53.0848,0.1281,-0.3282,0.7749,190.5781
13:24:10:887,-0.0238,1.1989,6.0084,51.9942,0.1952,-0.3969,0.7374,188.875
13:24:10:907,-0.1244,1.2133,5.9784,51.1374,0.1654,-0.3458,0.7504,187.9375
13:24:10:922,0.066,1.5054,6.3244,49.8556,0.114,-0.2997,0.7568,187.1406
13:24:10:942,0.4921,1.886,7.2318,53.5738,0.1451,-0.3202,0.6809,186.3438
13:24:10:962,0.8513,2.1997,7.8531,52.7964,0.2005,-0.3823,0.524,185.5312
13:24:10:983,1.111,2.5444,8.2063,53.4839,0.1854,-0.4289,0.275,184.7344
13:24:11:005,1.1386,2.5049,8.8611,51.0366,0.1073,-0.3551,-0.0259,184
13:24:11:022,0.7244,2.1027,9.3938,53.2589,-0.0711,-0.1452,-0.2712,183.4375
13:24:11:041,0.4131,1.3497,9.9911,52.0911,-0.3337,0.0601,-0.4091,183.2656
13:24:11:063,0.133,0.5501,11.0961,51.3675,-0.5875,0.1064,-0.4363,183.8281
13:24:11:088,-0.1208,0.0377,13.2484,53.0697,-0.5923,0.1149,-0.3354,183.8281
13:24:11:153,0.1833,-0.5154,14.3294,52.3366,-0.3742,0.2494,-0.1412,184.2969
13:24:11:154,1.1122,-0.6662,13.2532,52.0895,-0.2421,0.2857,-0.0264,184.7812
13:24:11:154,1.8245,0.0353,11.4839,52.6399,-0.3364,0.0582,-0.0989,185.0469
13:24:11:168,2.0831,1.0325,10.8387,53.1609,-0.6035,-0.3096,-0.3886,185.0938
13:24:11:190,1.4989,1.1594,12.4643,53.0856,-0.7252,-0.4568,-0.6933,185.1094
13:24:11:204,0.6585,0.0233,13.9008,53.4148,-0.5199,-0.2113,-0.7127,185.3906
13:24:11:222,0.6884,-0.3825,12.9085,52.3878,-0.1995,-0.0254,-0.5053,186.0938
13:24:11:243,2.2411,0.1778,10.203,52.0764,-0.0139,-0.4598,-0.4613,186.5625
13:24:11:263,3.8356,1.2037,8.4301,50.7514,-0.0876,-1.3413,-0.7785,187.3594
13:24:11:289,4.0248,1.1821,9.0694,52.7209,-0.2751,-1.761,-1.2456,187.9531
13:24:11:307,2.5308,0.1323,10.5801,52.9823,-0.4434,-1.2236,-1.444,188.5156
13:24:11:324,0.7004,-0.3561,11.1523,54.2704,-0.4333,-0.1943,-1.2853,189.4844
13:24:11:342,0.1162,-0.0545,9.8307,50.9917,-0.2661,0.5786,-1.0422,191.0781
13:24:11:363,0.0959,0.5417,7.4712,50.9132,-0.1052,0.7853,-0.8645,193.6875
13:24:11:388,0.0097,0.9942,5.8719,53.0734,0.0146,0.5965,-0.73,194.9531
13:24:11:406,-0.0741,1.3294,5.0603,50.315,0.073,0.3155,-0.6398,195.9844
13:24:11:423,-0.0897,1.6143,4.8819,52.6813,0.0703,0.1043,-0.5599,196.8281
13:24:11:445,-0.1172,1.7747,5.4613,52.4247,0.0642,0.0593,-0.4872,197.5469
13:24:11:464,-0.1412,1.9866,6.2622,50.6387,0.0844,0.132,-0.4254,198.2031
13:24:11:492,-0.3423,2.5025,7.7178,51.8161,0.0975,0.2143,-0.4035,198.7969
13:24:11:509,-0.6391,2.4008,8.1117,51.0174,0.1095,0.2875,-0.4014,199.2812
13:24:11:524,-1.1096,2.3804,8.7976,50.6854,0.025,0.3948,-0.3878,199.7344
13:24:11:542,-1.5262,2.0093,10.4736,50.8234,-0.1534,0.4811,-0.3375,200.1719
13:24:11:563,-1.6914,1.4934,12.2955,49.7632,-0.2533,0.5775,-0.2398,200.5938
13:24:11:588,-1.4867,1.1043,13.0808,51.436,-0.1806,0.6649,-0.0744,200.9531
13:24:11:607,-0.8403,0.8924,13.5226,50.6355,-0.0336,0.6407,0.1126,201.2656
13:24:11:623,0.1904,0.7009,13.4938,49.6705,0.1366,0.5855,0.2711,201.3906
13:24:11:642,0.5699,0.8805,12.4691,49.6705,0.3012,0.5719,0.3198,201.2031
13:24:11:665,0.8692,1.4707,11.6383,49.4959,0.3103,0.4478,0.2668,200.8438
13:24:11:686,1.4714,1.5485,12.1842,49.496,0.1055,0.1227,0.0974,200.4375
13:24:11:703,1.1745,0.6901,14.9663,50.0072,-0.2109,-0.4936,-0.2131,200.1094
13:24:11:722,-0.3387,-0.8362,18.0201,48.4209,-0.331,-0.896,-0.4675,200.0156
13:24:11:742,-1.4735,-2.0213,16.8385,49.5858,0.0392,-0.5932,-0.387,200.0781
13:24:11:764,-1.4268,-1.8358,11.9053,48.5069,0.563,0.1315,0.0316,200.5625
13:24:11:789,-0.7361,-0.7632,7.7789,49.3714,0.7342,0.5144,0.4892,201.1562
13:24:11:806,-0.0933,0.0078,5.9868,50.3699,0.5553,0.2553,0.7123,201.4062
13:24:11:822,0.2288,0.3753,6.4788,48.0589,0.2692,-0.3106,0.7515,201.0469
13:24:11:842,0.2886,0.4136,7.6676,48.4288,0.0887,-0.7501,0.7182,200.3125
13:24:11:862,0.0612,0.3322,7.8256,47.6398,0.1134,-0.8185,0.6889,199.4688
13:24:11:887,-0.2752,0.592,7.166,48.8887,0.1808,-0.586,0.7227,198.6875
13:24:11:905,-0.2309,1.005,6.5902,46.209,0.1758,-0.2712,0.7957,197.9688
13:24:11:922,0.0803,1.321,6.304,46.7454,0.1587,-0.1335,0.8194,197.2812
13:24:11:942,0.2144,1.4695,6.3376,46.731,0.1433,-0.1421,0.7621,196
13:24:11:964,0.0899,1.3438,6.6943,46.933,0.1313,-0.2078,0.6684,195.0625
13:24:11:989,0.0217,1.2851,7.0175,45.7642,0.172,-0.3029,0.5914,194.25
13:24:12:008,-0.025,1.3018,7.2222,44.8921,0.208,-0.3402,0.5278,193.5
13:24:12:022,0.1869,1.4467,7.6197,45.7461,0.1707,-0.3002,0.4649,192.8594
13:24:12:042,0.4251,1.6203,8.1871,46.6391,0.0772,-0.1924,0.369,192.3125
13:24:12:063,0.5891,1.7556,9.0131,43.1375,-0.0253,-0.067,0.2343,191.8125
13:24:12:088,0.5663,1.6789,9.4453,45.0837,-0.0599,0.0641,0.0612,191.4062
13:24:12:104,0.3916,1.2995,9.4309,45.6987,-0.0621,0.2015,-0.1069,191.1562
13:24:12:122,0.3592,0.7069,10.0067,43.8686,-0.1393,0.287,-0.2078,191.0781
13:24:12:142,0.4778,0.1059,10.9189,41.8836,-0.2711,0.3592,-0.24,191.1875
13:24:12:164,0.6441,-0.1299,12.0633,43.5562,-0.3872,0.393,-0.2001,191.3906
13:24:12:188,1.1733,-0.3765,12.4655,42.7043,-0.3792,0.4167,-0.1023,191.625
13:24:12:204,1.8772,-0.2448,11.521,43.6664,-0.1723,0.3725,0.0125,191.8281
13:24:12:222,2.2973,0.2448,10.0905,43.303,-0.2613,0.0361,-0.097,191.8281
13:24:12:242,2.5954,0.5142,9.6512,41.434,-0.4996,-0.5138,-0.3391,191.9219
13:24:12:262,2.4817,0.4806,11.4935,43.3884,-0.6938,-0.7722,-0.635,191.875
13:24:12:288,1.694,-0.3322,13.5262,42.5807,-0.7313,-0.3389,-0.7737,191.9531
13:24:12:308,0.7639,-0.8493,13.9368,42.2818,-0.5907,0.3416,-0.6656,192.375
13:24:12:322,0.9602,-0.8374,11.8622,42.3765,-0.4123,0.564,-0.5482,193.2031
13:24:12:341,1.2008,-0.2879,9.3878,41.1579,-0.4202,0.291,-0.5468,194.1562
13:24:12:363,0.9279,0.1694,8.7689,41.5752,-0.5055,-0.0661,-0.6075,195.5
13:24:12:389,0.279,0.0688,9.5685,41.9391,-0.4517,-0.1583,-0.6158,195.5
13:24:12:407,-0.4321,-0.1682,9.8032,41.6068,-0.298,0.0662,-0.4962,196.125
13:24:12:424,-1.015,-0.0928,8.8826,41.1976,-0.1473,0.3091,-0.2773,196.8281
13:24:12:442,-1.0126,0.2831,7.658,42.5484,0.0088,0.3355,-0.052,197.5312
13:24:12:462,-0.6427,0.7021,6.6823,41.8364,0.1896,0.1485,0.1086,198.1094
13:24:12:485,-0.1639,1.0457,5.9306,41.5778,0.3324,-0.1239,0.1896,198.4531
13:24:12:507,0.3233,1.4096,5.4757,42.1426,0.3619,-0.3271,0.1658,198.4062
13:24:12:522,0.6693,1.7915,5.4864,42.0741,0.2629,-0.3948,0.0295,198.2188
13:24:12:541,0.7842,1.9974,6.1197,41.6573,0.1028,-0.2544,-0.1729,198
13:24:12:562,0.7818,1.9794,6.6057,40.2509,-0.1268,0.0992,-0.3857,197.8906
13:24:12:581,0.3772,2.056,7.1672,41.7753,-0.3736,0.4345,-0.517,197.9844
13:24:12:606,-0.6272,1.9662,8.6372,42.6548,-0.4136,0.5016,-0.4275,198.3125
13:24:12:624,-0.9121,1.9148,10.6316,40.3728,-0.1337,0.3472,-0.2081,198.8438
13:24:12:642,-0.3183,2.1721,11.5366,41.683,0.1947,0.0723,-0.1167,199.375
13:24:12:663,0.1306,2.5648,11.7006,41.1303,0.2594,-0.1828,-0.1854,199.7188
13:24:12:690,0.2587,2.4774,12.7073,41.7028,0.147,-0.1974,-0.337,199.8594
13:24:12:708,-0.2585,2.0117,14.2636,40.9026,0.1023,0.2207,-0.4227,199.9219
13:24:12:723,-1.0869,1.4575,14.1175,40.3728,0.1156,0.6905,-0.3822,200.125
13:24:12:741,-2.2672,1.1989,12.6559,39.78,0.0192,0.7184,-0.2011,200.5312
13:24:12:764,-3.0717,1.1498,12.3506,42.4821,-0.0615,0.2068,0.124,200.9844
13:24:12:788,-3.3051,0.8015,14.151,39.6945,0.1017,-0.46,0.5057,201.3594
13:24:12:807,-2.5306,0.1945,16.0736,40.1144,0.522,-0.5623,0.8652,201.5156
13:24:12:823,-1.2509,-0.1598,15.092,40.0016,0.8951,-0.316,1.0801,201.1719
13:24:12:842,0.2479,-0.076,11.9568,40.6779,0.9034,-0.2092,1.0351,200.4531
13:24:12:862,1.2547,-0.0425,9.5901,41.9079,0.5771,-0.2739,0.7675,199.3281
13:24:12:884,0.3844,-0.2005,9.942,40.7827,0.2043,-0.3101,0.4479,198.0781
13:24:12:907,-0.5099,-0.5968,9.4656,41.4308,0.0658,-0.1998,0.226,197.0781
13:24:12:923,-1.0402,-0.7356,8.0806,39.9743,0.0623,0.0265,0.2085,196.4062
13:24:12:941,-1.2425,-0.6782,6.984,42.7185,0.0152,0.2516,0.3845,196.0625
13:24:12:962,-0.9911,-0.3609,6.5099,42.153,-0.017,0.3307,0.6825,195.8594
13:24:12:982,-0.3806,0.3741,6.4621,41.4021,0.0506,0.2582,0.9827,195.5312
13:24:13:006,0.5328,0.9188,6.4286,41.0053,0.1997,0.1,1.1736,194.9062
13:24:13:021,0.9291,1.1833,6.6057,42.4835,0.3401,-0.0377,1.1696,193.9062
13:24:13:041,0.9518,1.23,7.0199,40.9345,0.4157,-0.0446,1.0628,192.6875
13:24:13:064,0.6968,1.2408,7.154,39.9803,0.4762,0.0689,0.9416,191.3125
13:24:13:088,0.6585,1.4108,7.0965,41.8053,0.5028,0.2023,0.8444,190.0156
13:24:13:107,0.8225,1.558,7.573,41.0826,0.4405,0.2478,0.7387,188.375
13:24:13:122,1.3971,1.4096,8.1476,40.5353,0.3851,0.1709,0.5882,187.3594
13:24:13:140,1.7299,0.9571,8.399,40.694,0.3997,-0.0065,0.3653,186.4688
13:24:13:220,1.9502,0.5225,8.9951,41.3503,0.3441,-0.2038,0.1376,185.7969
13:24:13:221,2.2938,-0.0066,10.2736,43.2539,0.1744,-0.3596,-0.0656,185.375
13:24:13:221,2.453,-0.5046,11.7365,42.2773,-0.0386,-0.3599,-0.2717,185.2188
13:24:13:221,2.6337,-0.9403,12.1782,42.3498,-0.1984,-0.0875,-0.4352,185.25
13:24:13:242,2.7343,-0.9966,11.1918,41.9739,-0.269,0.2239,-0.5255,185.4688
13:24:13:261,3.1796,-0.6351,10.0869,41.3914,-0.3678,0.2404,-0.6238,185.9219
13:24:13:291,2.5859,-0.6207,11.0051,39.7844,-0.6413,-0.1178,-0.9082,186.4844
13:24:13:301,0.6106,-1.6251,13.3334,42.23,-0.9902,-0.4065,-1.2912,187.0781
13:24:13:325,-1.0605,-2.4606,14.2887,42.3139,-1.1337,-0.0342,-1.3415,187.9375
13:24:13:343,-0.6176,-2.1853,12.1603,41.8681,-0.9305,0.6159,-0.9338,189.2656
13:24:13:366,0.941,-1.0517,9.5458,42.0253,-0.5715,0.6811,-0.4328,190.9219
13:24:13:388,2.1669,0.3083,8.0015,42.0794,-0.2975,0.0572,-0.2033,192.2188
13:24:13:407,2.5667,1.1307,7.8902,42.0372,-0.2269,-0.6531,-0.3234,193.0938
13:24:13:426,2.0974,0.7177,8.1919,42.9094,-0.3329,-0.8712,-0.6925,193.3438
13:24:13:444,0.7088,0.1419,8.071,43.1041,-0.4916,-0.4763,-1.0374,193.75
13:24:13:461,-0.5733,0.2508,7.4054,40.7442,-0.6426,0.2183,-1.1402,194.6094
13:24:13:482,-1.2628,0.5142,6.8858,39.43,-0.674,0.663,-1.0563,195.8438
13:24:13:506,-1.2137,0.8242,6.5435,41.5507,-0.5318,0.6319,-0.864,197.1094
13:24:13:523,-0.7625,1.3042,6.3412,40.9986,-0.2807,0.2769,-0.656,198.2969
13:24:13:541,-0.2956,1.7687,6.3723,40.8229,-0.0905,-0.0677,-0.5468,199.2656
13:24:13:562,0.0241,2.1901,6.802,42.4317,-0.0471,-0.2337,-0.5705,199.9688
13:24:13:582,0.212,2.3457,7.7466,40.8274,-0.2722,-0.0899,-0.8874,200.5938
13:24:13:606,-0.037,2.3074,8.8443,41.3071,-0.3787,0.1466,-1.0499,200.5938
13:24:13:623,-0.7421,2.0979,9.8846,40.2009,-0.4168,0.3269,-1.1253,201.2656
13:24:13:641,-1.695,1.6837,11.011,40.0258,-0.3286,0.4087,-1.0568,202.0781
13:24:13:665,-2.3306,1.2576,11.5641,40.9975,-0.2061,0.3951,-0.8688,203.0469
13:24:13:688,-2.7089,1.0529,11.9256,38.0391,-0.1441,0.3208,-0.6219,205.5312
13:24:13:706,-2.5581,0.8242,12.5397,38.0391,-0.1302,0.2252,-0.3963,207.2031
13:24:13:723,-2.2911,0.3394,13.4005,40.6967,-0.1553,0.2348,-0.1718,207.6719
13:24:13:740,-1.8027,-0.1442,14.0505,41.0758,-0.1646,0.2843,0.0439,208.375
13:24:13:764,-1.3981,-0.2137,14.3186,41.4502,-0.1987,0.1349,0.1994,208.7969
13:24:13:791,-1.1575,-0.0712,15.4571,38.3485,-0.1816,-0.1133,0.286,208.9844
13:24:13:805,-1.3598,-0.4483,17.1414,40.9207,0.0613,-0.0496,0.413,208.9219
13:24:13:824,-1.5166,-0.9367,17.1378,40.8517,0.4807,0.3775,0.6386,208.6875
13:24:13:841,-1.0797,-1.2983,14.0984,42.1346,0.8011,0.6545,0.8772,208.375
13:24:13:861,-0.3064,-1.2133,10.3993,41.8021,0.8717,0.3972,1.0308,207.9062
13:24:13:881,0.3724,-0.7823,8.0231,42.344,0.7007,-0.2334,1.0402,207.1719
13:24:13:907,0.5783,-0.2759,7.907,41.0083,0.4599,-0.7072,0.9094,206.2344
13:24:13:924,0.3832,-0.2855,8.8383,41.1811,0.3183,-0.7841,0.7704,205.0469
13:24:13:941,0.1126,-0.483,9.0167,43.0661,0.2442,-0.5735,0.7123,203.8906
13:24:13:960,-0.0705,-0.2879,8.4828,43.2128,0.2093,-0.3333,0.7171,202.8906
13:24:13:981,-0.0945,-0.0616,7.9704,44.0646,0.2693,-0.239,0.7408,201.7031
13:24:14:004,-0.1328,-0.003,7.3048,41.1321,0.4029,-0.2121,0.7731,200.9219
13:24:14:023,-0.2704,0.1035,6.1712,42.2487,0.4437,-0.2443,0.853,200.1406
13:24:14:042,-0.1639,0.2604,5.5571,43.7958,0.4021,-0.2955,0.9272,199.2969
13:24:14:061,0.1354,0.4232,5.6959,43.4196,0.3539,-0.3016,0.9496,198.375
13:24:14:083,0.4718,0.4627,6.2789,43.1711,0.3537,-0.2539,0.9206,197.3594
13:24:14:107,0.6861,0.5644,6.7159,43.4389,0.3971,-0.1889,0.8524,196.3594
13:24:14:123,0.8297,0.5549,7.081,44.5239,0.4298,-0.1048,0.7733,195.2969
13:24:14:140,0.9997,0.6758,7.494,45.1987,0.4485,-0.0017,0.6676,194.2812
13:24:14:161,1.3504,0.8362,7.4676,43.4386,0.3814,0.0207,0.4695,193.7969
13:24:14:182,1.7287,0.8901,7.391,45.131,0.1611,-0.047,0.1773,192.9531
13:24:14:206,1.9813,0.4962,8.1452,44.9405,-0.1553,-0.1695,-0.1444,192.1719
13:24:14:222,1.8042,-0.4052,10.0665,44.5465,-0.4048,-0.1551,-0.366,191.6094
13:24:14:242,1.3373,-1.3509,11.9687,45.2478,-0.5111,0.0369,-0.4065,191.4688
13:24:14:261,1.3756,-2.1877,12.7911,46.1641,-0.4866,0.2151,-0.3138,191.8281
13:24:14:281,1.9981,-2.5277,12.5397,45.6875,-0.416,0.2303,-0.2139,192.3281
13:24:14:306,2.9725,-2.2511,10.051,48.2494,-0.4216,-0.0643,-0.2744,192.7344
13:24:14:323,1.925,-2.378,10.9105,46.7492,-0.682,-0.4912,-0.5372,193.0156
13:24:14:341,0.2144,-3.204,12.7624,48.5536,-1.0938,-0.5224,-0.7809,193.2656
13:24:14:367,-0.5649,-3.4854,13.5226,47.5027,-1.2882,-0.0241,-0.6581,193.7188
13:24:14:379,0.5927,-2.4894,12.1112,46.3904,-1.0703,0.446,-0.1553,194.5938
13:24:14:402,2.3991,-0.6303,10.4173,47.1126,-0.6594,0.3112,0.3131,195.5625
13:24:14:423,3.1293,1.0421,9.1472,47.8678,-0.294,-0.2923,0.3467,196.1094
13:24:14:441,2.7355,1.5892,8.8778,48.4828,-0.1883,-0.7391,-0.0179,195.9844
13:24:14:460,1.8065,1.3018,9.1029,47.4793,-0.3103,-0.6723,-0.4736,195.5625
13:24:14:481,0.6513,1.0361,8.9509,47.9528,-0.4541,-0.1703,-0.8057,195.3594
13:24:14:507,-0.3866,0.8829,8.5031,46.0211,-0.4698,0.3309,-0.9474,195.6562
13:24:14:526,-0.9791,0.8889,7.9022,48.181,-0.3153,0.5336,-0.8976,196.9688
13:24:14:541,-0.8618,0.9798,7.2306,49.8528,-0.0373,0.4425,-0.7258,198.0781
13:24:14:560,-0.5326,1.2408,6.389,50.4191,0.2554,0.2311,-0.5609,199.0625
13:24:14:581,-0.1615,1.5185,6.1245,49.469,0.4104,0.0465,-0.4581,199.8906
13:24:14:619,0.2108,1.8537,6.6548,49.2706,0.4067,-0.039,-0.4318,200.5156
13:24:14:627,0.5125,2.1853,7.6699,49.948,0.3225,-0.0385,-0.4744,201
13:24:14:640,0.8082,2.3469,9.0442,49.9502,0.241,-0.0438,-0.5559,201.4844
13:24:14:663,0.8548,2.323,10.4532,49.9861,0.1965,0.0012,-0.6648,201.7344
13:24:14:680,0.5077,2.2751,11.7137,49.5086,0.1633,0.1741,-0.7852,202.3125
13:24:14:700,0.0683,2.0333,12.4129,51.351,0.1718,0.4167,-0.8438,202.9531
13:24:14:721,-0.717,1.9052,13.1132,50.8735,0.2405,0.5498,-0.7971,203.7812
13:24:14:740,-1.3394,1.5149,13.756,52.7947,0.3843,0.507,-0.6038,204.7031
13:24:14:760,-1.0785,1.2097,13.258,52.4969,0.5896,0.4417,-0.2712,205.6406
13:24:14:782,-0.3064,1.0924,12.286,53.8611,0.73,0.32,0.0681,206.3906
13:24:14:805,0.06,1.1438,11.5952,52.9741,0.7049,0.1395,0.2665,206.9688
13:24:14:823,0.4586,1.1941,12.1255,54.7887,0.461,0.0417,0.3741,206.875
13:24:14:839,0.4574,1.0457,13.5202,53.365,0.1971,-0.0182,0.4018,206.5469
13:24:14:860,-0.1675,0.5273,14.6778,54.6173,0.1547,-0.1168,0.3842,206.1094
13:24:14:880,-0.511,-0.1191,13.9811,55.4505,0.3707,-0.0595,0.4838,205.6562
13:24:14:906,-0.5182,-0.4411,11.1487,55.1359,0.6962,0.1232,0.6495,205.2344
13:24:14:923,-0.0921,-0.5405,9.0215,54.8461,0.8229,0.0659,0.8282,204.6875
13:24:14:940,0.1725,-0.0688,8.6001,53.678,0.7225,-0.3042,0.9571,203.9219
13:24:14:960,0.2994,0.4435,9.2178,56.2177,0.591,-0.7469,1.0173,203
13:24:14:981,0.6789,0.4914,9.3591,53.9963,0.526,-0.908,1.0047,201.9219
13:24:15:005,0.7339,0.5118,8.9449,55.0974,0.5009,-0.6425,0.9515,201.9219
13:24:15:021,0.6789,0.5956,8.2865,56.1282,0.5044,-0.3362,0.8934,200.8281
13:24:15:040,0.6298,0.6494,7.3204,57.2181,0.5047,-0.0947,0.8239,198.7188
13:24:15:061,0.5077,0.6913,6.3843,54.7915,0.4631,0.0047,0.7749,197.6719
13:24:15:084,0.2264,0.6411,6.2669,56.404,0.4541,-0.0089,0.7845,195.2656
13:24:15:107,-0.0166,0.5321,6.6165,55.2774,0.522,-0.027,0.8609,195.2656
13:24:15:123,-0.1076,0.5261,6.6668,56.027,0.6227,-0.1399,0.9704,193.875
13:24:15:140,-0.0909,0.7679,6.6093,55.9249,0.6895,-0.3474,1.0753,193.875
13:24:15:159,0.5508,1.3964,6.6644,55.6833,0.6402,-0.5383,1.0396,192.9062
13:24:15:180,1.4271,2.1123,7.2378,55.9282,0.4301,-0.4779,0.7699,191.7656
13:24:15:202,2.0125,2.408,8.2206,56.2625,0.1198,-0.031,0.351,190.5312
13:24:15:224,1.8915,2.0692,9.0586,57.4781,-0.1867,0.5376,-0.0137,189.3594
13:24:15:292,1.1757,1.2875,9.9875,55.9533,-0.3159,0.8071,-0.1271,188.5469
13:24:15:292,0.6861,0.8649,10.932,56.2378,-0.1553,0.6289,0.0029,188.1406
13:24:15:293,1.1769,0.7979,11.5761,56.5241,0.1569,0.1717,0.1443,188.0938
13:24:15:308,1.9203,0.987,11.4217,56.081,0.3481,-0.1823,0.1946,188.1406
13:24:15:324,3.0013,0.8685,10.4149,57.7661,0.2192,-0.3077,0.1216,188.0469
13:24:15:341,3.8524,0.932,9.6559,55.6954,-0.1832,-0.2488,-0.0525,187.8281
13:24:15:360,4.4378,1.2432,9.772,57.7153,-0.7012,-0.1479,-0.3737,187.625
13:24:15:380,4.032,1.2025,11.6216,57.0653,-1.0336,0.0239,-0.7309,187.5312
13:24:15:405,2.8492,0.1526,13.7811,56.2839,-0.9617,0.3165,-0.8728,187.8281
13:24:15:423,1.3983,-0.8948,13.9212,56.5576,-0.6397,0.5978,-0.6619,188.5312
13:24:15:441,0.6406,-1.2013,11.7952,56.3802,-0.3614,0.5392,-0.2107,189.5938
13:24:15:460,1.3026,-0.8338,9.2034,57.3472,-0.2772,0.0204,0.1722,190.5156
13:24:15:479,2.3405,0.1826,8.3942,56.479,-0.2756,-0.6233,0.3075,190.9688
13:24:15:499,3.1485,1.1247,8.6384,56.4035,-0.253,-0.8899,0.1733,190.9375
13:24:15:522,3.2179,1.5281,8.2841,57.7025,-0.2839,-0.7298,-0.0784,190.6875
13:24:15:540,2.933,1.7137,7.3108,56.4765,-0.4189,-0.3378,-0.3465,190.5156
13:24:15:560,2.3883,1.8573,6.328,59.1733,-0.5768,-0.0094,-0.5822,190.5781
13:24:15:581,1.36,1.7173,5.7139,58.6358,-0.6256,0.0204,-0.6419,190.9219
13:24:15:605,0.3257,1.6335,5.8372,57.7437,-0.4474,-0.3564,-0.4645,191.5312
13:24:15:622,-0.1878,1.7364,6.887,56.3433,0.0088,-0.9229,-0.1729,192.2812
13:24:15:640,0.1713,2.1446,7.2426,57.3747,0.3907,-1.1716,0.0063,192.6719
13:24:15:660,1.0057,2.7611,7.0654,56.882,0.3923,-0.7732,-0.0134,193.2812
13:24:15:681,2.1717,4.0217,6.82,57.7087,0.0802,-0.0166,-0.2174,193.625
13:24:15:709,1.8616,4.2515,7.4162,58.0235,-0.2852,0.4995,-0.5183,193.6406
13:24:15:728,1.6509,4.0504,9.2585,58.6872,-0.559,0.5128,-0.7439,193.7656
13:24:15:742,1.4486,3.544,11.7437,56.5441,-0.6448,0.2865,-0.868,194.1562
13:24:15:759,1.2547,2.6366,13.744,58.49,-0.5292,0.1783,-0.8999,194.875
13:24:15:779,0.6897,2.1219,14.1139,58.49,-0.2607,0.3405,-0.823,195.8438
13:24:15:800,0.7699,1.8872,13.9416,57.5853,-0.0202,0.5272,-0.5812,196.9219
13:24:15:822,1.0368,1.6574,14.0888,56.9561,0.1372,0.5554,-0.3063,197.8906
13:24:15:841,1.3852,1.4718,13.3885,58.2232,0.3084,0.6103,-0.088,198.7031
13:24:15:859,1.3492,1.7556,11.5509,57.567,0.4293,0.8074,0.0772,199.125
13:24:15:879,0.9925,2.39,10.5226,58.8958,0.334,0.8974,0.1738,199.2812
13:24:15:899,0.9602,2.5313,11.2373,59.2064,0.1223,0.7325,0.2287,199.1719
13:24:15:924,0.6214,1.9052,12.5326,58.1235,0.0493,0.4146,0.2207,198.9062
13:24:15:942,0.2156,1.157,12.2106,58.5166,0.2434,0.1837,0.2604,198.5625
13:24:15:960,0.1378,0.8589,10.8028,57.8915,0.4645,0.0676,0.3829,198.1094
13:24:15:980,0.6406,0.7057,10.1336,57.7372,0.4698,-0.1216,0.5158,197.7812
13:24:16:007,1.1362,0.6387,10.7728,56.7232,0.2972,-0.422,0.5526,197.2969
13:24:16:023,1.4762,0.4483,11.2397,57.2586,0.1316,-0.4827,0.5017,196.7344
13:24:16:041,1.4486,0.319,10.9069,56.48,0.078,-0.2789,0.4058,196.125
13:24:16:061,1.0129,0.2867,9.5302,57.1443,0.1252,0.0681,0.3278,195.6094
13:24:16:080,1.0631,0.1993,7.8208,56.6084,0.2216,0.3405,0.3395,195.1875
13:24:16:106,1.2152,0.1275,6.4058,55.8069,0.302,0.3959,0.4119,194.7969
13:24:16:123,0.7699,0.252,5.6325,57.0832,0.3428,0.2486,0.4716,194.5938
13:24:16:140,0.5616,0.1454,5.5846,55.0085,0.3388,0.0159,0.5728,194.0938
13:24:16:166,0.4418,0.0449,5.8707,57.3643,0.3419,-0.1064,0.7017,193.5469
13:24:16:178,0.3592,0.3094,6.2298,56.3183,0.3467,-0.0888,0.8154,192.9219
13:24:16:199,0.8405,0.7153,6.2538,57.5621,0.3499,0.0492,0.9134,192.1719
13:24:16:227,1.3983,1.224,6.3316,56.1342,0.3209,0.1155,0.8964,191.2969
13:24:16:239,1.6916,1.6263,6.6811,56.4563,0.236,0.1022,0.768,190.3281
13:24:16:262,1.7156,1.9136,7.2534,54.8743,0.1236,0.0609,0.577,188.7031
13:24:16:279,1.6425,2.0979,8.0829,53.9338,0.0202,0.0337,0.369,187.8281
13:24:16:303,1.3062,2.1051,9.383,55.3032,-0.0993,0.0108,0.172,187.1562
13:24:16:327,1.0212,1.8286,11.879,55.4633,-0.2083,-0.1828,0.0204,186.7188
13:24:16:344,1.2343,1.3797,14.7041,53.2475,-0.2027,-0.3711,-0.0163,186.5312
13:24:16:360,2.0998,1.0469,15.4547,54.5704,-0.0133,-0.2962,0.0287,186.5625
13:24:16:380,3.5016,1.1678,13.92,52.5082,0.0621,0.699,-0.0938,186.6406
13:24:16:406,4.0248,2.0249,11.8299,53.8219,-0.2796,0.8436,-0.4541,186.6406
13:24:16:423,3.2945,2.4044,11.6695,54.1222,-0.5726,0.6385,-0.8137,186.6562
13:24:16:440,1.9789,1.479,13.27,52.7948,-0.469,0.4122,-0.9045,186.5625
13:24:16:459,1.2714,0.0832,13.5776,54.2269,-0.143,0.3088,-0.7141,186.5625
13:24:16:479,0.935,-0.4866,11.9771,53.624,0.0764,0.0787,-0.3697,187.8125
13:24:16:498,1.5863,-0.3418,10.1635,53.4468,0.0887,-0.3881,-0.118,188.8125
13:24:16:524,2.5104,0.4495,9.9289,53.6445,0.0631,-0.7586,-0.077,189.5938
13:24:16:540,3.1712,0.9379,10.2174,54.4116,0.2043,-0.7807,-0.2496,190.1094
13:24:16:559,3.0455,1.1331,8.7449,56.2128,0.2581,-0.4805,-0.5109,190.2656
13:24:16:579,2.5116,1.248,6.6847,53.55,0.1068,-0.0164,-0.7577,190.5312
13:24:16:601,1.8927,1.339,4.8352,54.5059,-0.1792,0.315,-0.9639,190.75
13:24:16:624,1.2343,1.4132,4.0451,52.9392,-0.4293,0.4223,-1.1055,191.3438
13:24:16:642,0.5101,1.3617,4.4198,52.879,-0.4709,0.3589,-1.1508,192.2031
13:24:16:659,-0.2046,1.4252,4.8173,55.1703,-0.3475,0.1805,-1.081,193.2812
13:24:16:679,-0.6559,1.734,4.7801,54.9971,-0.2967,-0.0211,-0.9529,194.5156
13:24:16:702,-0.8139,2.2188,5.0363,53.7871,-0.3771,-0.1335,-0.8416,195.75
13:24:16:726,-1.039,2.5696,5.9904,53.2771,-0.4946,-0.1596,-0.7473,196.9688
13:24:16:739,-1.1012,2.7695,7.4365,53.9058,-0.5484,-0.1514,-0.6765,198.0781
13:24:16:759,-1.1982,2.6127,9.3578,53.8171,-0.4645,-0.0696,-0.5926,199.0312
13:24:16:786,-1.3957,2.384,10.8913,53.9614,-0.3316,0.1624,-0.4597,199.9219
13:24:16:807,-1.4137,2.4654,11.5103,53.8985,-0.2879,0.4428,-0.345,200.7344
13:24:16:823,-1.2975,2.4726,11.8359,55.9807,-0.3366,0.5898,-0.2736,201.6875
13:24:16:840,-1.1479,2.2332,12.7445,54.6261,-0.3606,0.5488,-0.187,202.125
13:24:16:859,-1.021,1.6634,14.1235,52.8924,-0.2455,0.4617,-0.0336,202.4219
13:24:16:879,-0.7589,1.2336,14.7245,54.1988,-0.0264,0.4803,0.1597,202.6406
13:24:16:900,-0.1208,1.2085,13.8027,55.2023,0.0642,0.4955,0.2561,202.7344
13:24:16:925,0.2671,1.6047,12.7672,53.6425,-0.0189,0.389,0.2426,202.6094
13:24:16:941,0.3042,1.8202,12.268,55.1117,-0.1928,0.0329,0.181,202.3125
13:24:16:959,-0.0765,1.5317,13.592,53.952,-0.1912,-0.4116,0.1906,201.9844
13:24:16:980,-0.4368,0.6842,15.1434,55.3504,0.0964,-0.6164,0.3139,201.7344
13:24:16:999,-0.6056,-0.149,15.1303,56.0572,0.4999,-0.4323,0.5595,201.5469
13:24:17:025,0.1306,-0.6099,12.6403,54.2363,0.6714,-0.1061,0.7709,201.3438
13:24:17:041,0.8788,-0.5046,9.6847,52.9044,0.5289,-0.0241,0.8548,200.9062
13:24:17:059,1.3205,-0.185,8.3463,54.4875,0.3313,-0.1924,0.834,200.1406
13:24:17:080,1.457,0.3094,8.1931,51.9958,0.2037,-0.3588,0.7161,199.2188
13:24:17:101,0.449,0.0856,8.1081,53.1823,0.1611,-0.3375,0.5999,198.25
13:24:17:123,0.0719,0.021,7.5945,53.6841,0.1731,-0.1527,0.6295,197.375
13:24:17:140,0.0312,0.1035,7.0223,53.3153,0.2309,-0.027,0.7597,196.6719
13:24:17:165,0.2683,0.3717,6.4788,54.0283,0.326,-0.0179,0.8998,196.0469
13:24:17:178,0.8477,0.6865,5.9114,51.6591,0.4261,-0.0954,1.0162,195.25
13:24:17:201,1.299,1.0122,5.5439,52.9617,0.4842,-0.1969,1.037,194.2969
13:24:17:226,1.7838,1.3258,5.4948,52.6684,0.4599,-0.2659,0.9685,193.2344
13:24:17:243,2.2267,1.6083,5.836,51.675,0.3649,-0.2712,0.8207,192.0469
13:24:17:259,2.4709,1.7352,6.3424,52.7721,0.2352,-0.214,0.5933,190.8906
13:24:17:278,2.6589,1.6801,7.1947,53.9515,0.0914,-0.1383,0.331,189.8594
13:24:17:361,2.5583,1.4718,8.1524,53.0335,-0.0447,-0.0062,0.0625,189.1094
13:24:17:361,2.3524,1.3007,8.7198,53.3883,-0.1579,0.2241,-0.1814,188.5781
13:24:17:362,2.2926,1.1259,9.0466,54.1082,-0.286,0.4332,-0.4017,188.375
13:24:17:362,2.4829,0.75,10.0366,53.0667,-0.4645,0.4742,-0.6219,188.4375
13:24:17:378,2.508,0.0988,11.5665,53.1271,-0.6061,0.3536,-0.8384,188.7344
13:24:17:399,1.9215,-0.6482,12.4272,53.8058,-0.6099,0.2641,-1.0222,189.2812
13:24:17:420,1.4426,-1.145,12.5062,52.6312,-0.5875,0.3144,-1.0645,190.5625
13:24:17:442,1.2846,-1.1079,12.286,51.0334,-0.657,0.3983,-0.9852,191.7188
13:24:17:458,1.3433,-0.6434,12.9731,52.2193,-0.8322,0.3171,-0.892,192.9219
13:24:17:478,0.9003,-0.7069,16.1526,52.109,-1.0288,-0.1226,-0.8909,193.9844
13:24:17:499,0.5544,-1.2324,17.1857,51.1463,-0.7811,-0.2877,-0.8637,195
13:24:17:521,1.1577,-0.9044,13.6279,52.4408,-0.1433,0.0944,-0.6672,196.0469
13:24:17:539,2.6218,0.1467,9.4668,50.985,0.2961,0.4718,-0.4432,197.0312
13:24:17:558,4.099,0.8613,7.3252,49.3307,0.3465,0.2841,-0.4515,197.7969
13:24:17:578,4.2678,1.4096,7.075,51.4666,0.1654,-0.1695,-0.7897,198.25
13:24:17:600,3.1042,0.9439,8.0147,51.8796,-0.0551,-0.5415,-1.2992,198.75
13:24:17:622,1.3876,0.0138,8.4205,49.553,-0.1619,-0.5311,-1.7002,199.625
13:24:17:640,0.0265,-0.3083,8.0135,51.4311,-0.159,-0.1783,-1.8044,200.3125
13:24:17:658,-0.7038,-0.0353,7.4461,50.4049,-0.0951,0.1602,-1.6986,202.125
13:24:17:678,-0.7529,0.4172,6.65,51.0639,0.0325,0.3139,-1.5119,204.2031
13:24:17:701,-0.5769,1.0241,5.9904,50.9525,0.1475,0.3078,-1.3309,206.125
13:24:17:722,-0.3854,1.6346,5.6971,49.5939,0.2128,0.1717,-1.2161,207.9531
13:24:17:738,-0.2992,1.989,6.0838,49.5751,0.1665,0.0348,-1.1982,210.2031
13:24:17:759,-0.4416,2.0728,7.1552,49.2182,0.0346,0.0279,-1.2382,211.5781
13:24:17:777,-0.5721,2.1913,8.2529,48.3775,-0.0634,0.1722,-1.2683,212.9531
13:24:17:799,-0.5601,2.2679,9.1496,48.6394,0.0586,0.3802,-1.2717,214.3594
13:24:17:821,-0.5877,2.1458,9.2405,47.4839,0.1153,0.3674,-1.2571,215.7344
13:24:17:839,-0.7361,1.8154,9.2094,47.4839,0.0032,0.4396,-1.2044,217.1562
13:24:17:860,-0.9396,1.5999,9.5626,48.3261,-0.2253,0.5291,-1.1087,218.5781
13:24:17:877,-1.1072,1.6275,10.8387,46.9891,-0.4232,0.4955,-0.8829,219.9219
13:24:17:899,-0.0346,1.9639,12.9743,48.0909,-0.4256,0.3653,-0.6137,221.2656
13:24:17:921,1.4007,2.2895,14.7496,47.9849,-0.3174,0.3357,-0.4728,222.4844
13:24:17:940,0.7256,1.7484,15.7216,47.9932,-0.204,0.3397,-0.374,223.4219
13:24:17:958,-0.3171,1.4623,16.2986,47.8332,-0.0152,0.1203,-0.2331,224.0469
13:24:17:978,-0.2932,0.2089,16.9618,46.2931,0.3587,-0.1112,-0.2752,224.9375
13:24:17:998,-1.446,-1.0971,15.73,46.9955,0.6938,-0.0251,-0.1862,225.1875
13:24:18:023,-1.6866,-1.9112,13.3167,45.8191,0.7912,0.2963,0.0367,225.3438
13:24:18:039,-1.0892,-1.8501,10.6028,46.0414,0.7009,0.377,0.1733,225.6875
13:24:18:059,-0.2501,-1.382,8.9269,44.8138,0.5385,0.1413,0.1392,225.8125
13:24:18:079,0.0552,-1.0134,8.3607,45.7666,0.4349,-0.227,0.0053,225.6875
13:24:18:098,-0.2537,-0.8098,8.1931,45.2374,0.371,-0.4936,-0.101,225.5938
13:24:18:120,-0.5314,-0.7189,8.0793,43.9656,0.2993,-0.537,-0.1324,225.4531
13:24:18:142,-0.5087,-0.562,7.8746,43.948,0.2599,-0.4526,-0.1165,225.5
13:24:18:158,-0.4344,-0.2688,7.5454,43.9473,0.2735,-0.3301,-0.0643,225.6875
13:24:18:178,-0.298,0.0365,6.8188,43.6096,0.2775,-0.2744,0.0074,225.9219
13:24:18:198,-0.0382,0.2664,6.3232,44.3822,0.2842,-0.2931,0.0865,226.125
13:24:18:223,0.3066,0.4998,6.1041,43.2611,0.3167,-0.3221,0.1429,226.2812
13:24:18:239,0.7244,0.8757,5.8348,42.4585,0.3382,-0.2952,0.1541,226.2188
13:24:18:257,1.2331,1.1271,5.4362,43.2698,0.3049,-0.2321,0.0921,226.1719
13:24:18:278,1.4773,1.4479,4.9801,43.0015,0.1467,-0.1698,-0.0347,226.0469
13:24:18:298,1.6198,1.8154,5.1752,41.395,-0.0916,-0.1192,-0.2318,225.9531
13:24:18:322,1.4127,1.7783,6.0718,39.7395,-0.298,0.0287,-0.4304,225.9531
13:24:18:340,0.6441,1.7149,7.1169,42.0668,-0.4208,0.1946,-0.5316,226.1094
13:24:18:357,0.0516,1.6969,8.2529,42.4034,-0.4,0.2574,-0.5583,226.5
13:24:18:377,-0.3064,1.6825,8.7809,41.2609,-0.3233,0.1024,-0.5436,227.0312
13:24:18:398,-0.3602,1.6921,9.1436,41.8579,-0.3452,-0.2651,-0.5276,227.6094
13:24:18:426,0.0564,1.5556,10.5047,40.2763,-0.4495,-0.6739,-0.5668,228.1875
13:24:18:439,0.4275,0.9308,13.2377,40.4172,-0.5326,-0.7421,-0.5697,228.7812
13:24:18:457,0.7088,0.1933,15.8521,41.1719,-0.4189,-0.3186,-0.4733,229.4375
13:24:18:477,1.2559,-0.3358,15.8569,39.6693,-0.2088,0.1184,-0.3593,230.1406
13:24:18:499,3.4681,1.4802,13.1874,40.6794,-0.1739,0.0356,-0.3284,230.7969
13:24:18:523,4.4426,0.7428,15.4774,41.0145,-0.3896,-0.3993,-0.6014,231.2656
13:24:18:539,2.9414,-1.1654,16.9068,39.1952,-0.3864,-0.5801,-1.166,231.4375
13:24:18:565,2.0974,-2.627,15.074,38.8065,-0.0722,-0.2526,-1.3836,232.0781
13:24:18:577,2.757,-2.5648,11.6719,38.518,0.1696,0.4481,-1.211,233.125
13:24:18:597,3.419,-1.4192,9.1316,38.7425,0.3441,0.414,-1.0885,234.7031
13:24:18:617,3.4609,-0.6794,8.3726,37.2771,0.3739,-0.1895,-1.1641,236.125
13:24:18:637,2.9067,-0.5477,8.0015,37.4141,0.3449,-0.68,-1.3806,237.375
13:24:18:657,2.0974,-0.4615,7.4892,37.6443,0.3747,-0.8672,-1.5412,238.6406
13:24:18:678,1.5743,-0.4052,6.5399,38.3361,0.4711,-0.8358,-1.5748,240.0625
13:24:18:698,1.1445,-0.1873,5.672,37.2547,0.531,-0.6899,-1.5213,241.8438
13:24:18:722,0.965,0.1634,4.9729,36.632,0.5121,-0.5176,-1.411,243.7344
13:24:18:739,1.0212,0.5537,4.4821,38.3861,0.4586,-0.4017,-1.3101,245.5938
13:24:18:757,1.2032,0.9164,4.0296,37.0964,0.3923,-0.3434,-1.2621,247.2656
13:24:18:778,1.2655,1.2181,3.6944,36.3497,0.2898,-0.3293,-1.2837,248.875
13:24:18:798,1.2247,1.5509,3.6549,34.7675,0.1073,-0.3615,-1.3591,250.3906
13:24:18:822,0.7591,1.7603,4.5431,34.9324,-0.1856,-0.456,-1.4843,251.7969
13:24:18:839,-0.1507,1.576,6.7697,34.2276,-0.5334,-0.5895,-1.6185,254.1719
13:24:18:858,-0.8307,1.1869,9.4955,34.2378,-0.7627,-0.6294,-1.651,255.9219
13:24:18:878,-0.936,1.3485,11.4157,35.2119,-0.7894,-0.407,-1.5388,257.75
13:24:18:898,-0.796,1.7999,11.9795,33.8252,-0.6586,-0.0193,-1.4233,259.7188
13:24:18:925,-0.9181,2.0177,11.7844,34.1683,-0.5257,0.2952,-1.4177,261.5312
13:24:18:943,-1.3754,1.8322,11.758,33.9408,-0.5292,0.438,-1.4528,263.0781
13:24:18:961,-1.7656,1.1881,13.0629,35.7096,-0.7007,0.4529,-1.4182,264.6719
13:24:18:979,-1.9512,0.4711,15.0285,35.1507,-0.8876,0.4582,-1.2704,266.2969
13:24:19:002,-2.0445,0.1945,16.5776,35.0946,-0.9052,0.4665,-1.0169,267.8906
13:24:19:026,-2.0386,0.2675,17.7735,34.4337,-0.7172,0.3088,-0.6773,269.2188
13:24:19:041,-1.6866,-0.1993,19.0065,36.0298,-0.4075,0.0548,-0.3359,269.8125
13:24:19:059,-1.3311,-1.0995,18.4857,35.384,0.0741,0.038,-0.0366,270.7344
13:24:19:080,-0.7182,-1.6287,14.8932,35.1531,0.6541,0.3991,0.3147,271.2656
13:24:19:099,0.0276,-1.3701,11.1104,35.8991,0.9864,0.7174,0.6583,271.4688
13:24:19:122,1.1146,-0.4304,9.6715,35.3493,0.9505,0.4188,0.9728,271.3281
13:24:19:141,1.3864,0.993,11.2098,35.3502,0.7467,-0.2973,1.0772,270.3906
13:24:19:158,2.046,1.637,12.0992,35.845,0.7774,-0.9005,0.9574,269.2969
13:24:19:179,2.5823,1.8477,11.4624,35.9538,0.9034,-0.9024,0.7113,268.125
13:24:19:199,2.9246,1.8418,10.2664,35.7867,0.5017,0.748,0.0867,267.1406
13:24:19:225,2.5847,1.9184,9.1927,38.046,0.1942,1.667,-0.1402,267.1406
13:24:19:243,1.6521,1.6382,8.721,38.2374,0.3009,1.903,-0.2312,266.4688
13:24:19:259,0.3712,1.2923,7.8064,38.9817,0.7619,1.4252,-0.1684,266.0781
13:24:19:286,-0.4991,0.9942,6.322,40.0746,1.2035,0.6055,0.0292,265.9062
13:24:19:297,-0.3734,0.9571,5.0208,39.5419,1.387,-0.1325,0.1949,265.9375
13:24:19:318,0.3784,1.0948,4.9825,39.8069,1.3974,-0.6068,0.2122,266
13:24:19:347,1.2523,1.2755,5.5283,40.2493,1.3598,-0.6893,0.0785,266
13:24:19:360,1.6713,1.4108,5.8839,38.7602,1.2703,-0.5865,-0.1388,265.9219
13:24:19:440,1.7587,1.4168,6.158,40.5544,1.1263,-0.39,-0.3585,266.0469
13:24:19:440,1.4666,1.4335,6.2346,39.8223,0.9374,-0.1389,-0.5157,266.1875
13:24:19:441,0.9003,1.5688,5.5978,39.5702,0.5729,0.0263,-0.6099,266.6719
13:24:19:441,0.303,1.9303,5.9976,40.9379,0.008,0.1163,-0.6674,267.2969
13:24:19:459,-0.474,1.9291,8.3978,40.828,-0.4378,0.2947,-0.6528,268.0156
13:24:19:477,-1.0809,1.6466,11.363,38.7968,-0.4626,0.4937,-0.5375,268.3438
13:24:19:497,-1.4807,1.4084,12.6032,41.4117,-0.1736,0.3818,-0.329,269.0781
13:24:19:516,-1.0641,1.2408,11.8562,43.5018,0.0959,-0.0313,-0.0978,269.7344
13:24:19:539,0.3377,1.2971,10.3251,42.5695,0.0181,-0.6318,-0.0603,270.1875
13:24:19:557,1.3828,1.5772,10.47,43.6829,-0.3452,-1.064,-0.2307,270.4531
13:24:19:577,1.5635,1.5413,12.7504,43.2982,-0.5864,-0.9892,-0.4035,270.5781
13:24:19:598,1.5372,1.0074,14.8466,41.4577,-0.4392,-0.415,-0.4797,270.7969
13:24:19:622,1.281,0.6147,13.8578,42.8177,-0.1499,0.2516,-0.4347,271.2344
13:24:19:639,1.2535,0.914,10.616,44.1138,-0.0804,0.4441,-0.3228,271.8594
13:24:19:657,1.9406,1.5293,8.4157,42.7935,-0.1627,0.1514,-0.3508,272.7188
13:24:19:677,2.3452,2.1769,8.0458,46.0583,-0.1928,-0.2651,-0.5676,273.0312
13:24:19:699,2.1082,2.4235,8.2146,44.6703,-0.1015,-0.4973,-0.8336,273.3125
13:24:19:722,1.439,2.3206,8.0889,44.2454,0.0447,-0.5064,-1.0094,273.8125
13:24:19:739,0.5699,2.2188,7.7202,44.9035,0.2149,-0.3554,-1.0526,274.6406
13:24:19:757,-0.3889,2.2009,6.8475,44.6255,0.3454,-0.2739,-0.9569,275.8125
13:24:19:778,-1.1407,2.487,6.3711,45.7673,0.4442,-0.3812,-0.7617,277.1094
13:24:19:797,-1.2533,2.8557,6.4716,44.8213,0.563,-0.4632,-0.5356,278.2969
13:24:19:817,-0.7134,3.1657,6.3735,45.4176,0.6301,-0.4355,-0.3852,279.375
13:24:19:840,-0.1136,3.6242,6.2933,46.7541,0.6208,-0.3279,-0.3335,280.2344
13:24:19:857,0.449,4.0133,6.2274,45.6351,0.5561,-0.1889,-0.3892,280.8906
13:24:19:878,0.5843,4.3018,6.3459,45.6351,0.4272,-0.0776,-0.5178,281.3906
13:24:19:898,-0.2668,4.3221,7.8124,46.4574,0.2735,0.0891,-0.6145,281.875
13:24:19:923,-1.0114,4.3197,8.6791,46.2976,0.143,0.2614,-0.6541,282.4531
13:24:19:941,-1.4197,4.1605,9.061,46.2976,0.0807,0.4255,-0.6115,283.0938
13:24:19:957,-1.6148,4.1785,9.2346,47.6974,0.0583,0.4449,-0.5149,283.8125
13:24:19:977,-1.7189,4.1426,9.9133,46.5341,0.016,0.2779,-0.4126,284.4688
13:24:19:997,-1.7812,3.8708,11.199,47.9548,-0.0365,0.035,-0.3191,284.9844
13:24:20:018,-1.6938,3.3345,11.6982,46.706,-0.0269,-0.0435,-0.2054,285.4375
13:24:20:039,-1.5453,2.9634,11.4085,49.5967,-0.033,0.0955,-0.0693,285.8281
13:24:20:057,-1.2042,2.9383,10.9823,48.9217,-0.1438,0.2801,0.0748,286.1406
13:24:20:077,-1.0725,2.9311,11.2253,48.728,-0.33,0.3072,0.1382,286.2812
13:24:20:096,-1.3227,2.3948,11.9675,49.1404,-0.4783,0.1823,0.103,286.2188
13:24:20:117,-1.6232,1.6813,11.4073,49.1817,-0.4218,0.1834,0.1121,285.9844
13:24:20:141,-1.6974,1.558,9.9672,51.2024,-0.2818,0.1999,0.2207,285.75
13:24:20:158,-1.4244,1.4982,9.2549,50.902,-0.2879,-0.0289,0.3366,285.5625
13:24:20:177,-0.9468,1.2815,10.1037,50.5735,-0.4373,-0.4422,0.3904,285.2969
13:24:20:198,-0.6379,1.0804,10.9919,48.8012,-0.5326,-0.6465,0.4252,284.9219
13:24:20:219,-0.6248,1.0289,10.6208,50.9006,-0.4711,-0.4949,0.483,284.5312
13:24:20:243,-0.5577,1.2229,9.2908,50.0849,-0.3305,-0.1714,0.5936,284.1406
13:24:20:259,-0.268,1.5652,7.816,50.4616,-0.2178,0.1189,0.7331,283.4219
13:24:20:277,0.2383,1.9962,6.6728,52.1436,-0.1585,0.2532,0.8474,282.7812
13:24:20:296,0.7998,2.408,6.2059,50.736,-0.1435,0.2111,0.874,281.9062
13:24:20:318,1.0452,2.5959,6.0024,52.0465,-0.1417,0.0332,0.7792,280.875
13:24:20:340,0.8836,2.566,6.3053,53.1669,-0.1579,-0.1769,0.6151,279.875
13:24:20:357,0.5676,2.2284,7.0917,51.1444,-0.1776,-0.3056,0.4868,278.9688
13:24:20:377,0.2695,2.08,7.8064,53.0364,-0.1521,-0.248,0.4647,278.2812
13:24:20:397,0.2695,2.1231,8.1584,52.2398,-0.065,-0.1085,0.528,277.7969
13:24:20:417,0.4658,2.4511,7.913,52.1589,0.0631,0.0545,0.6122,277.2969
13:24:20:438,0.9554,2.9586,7.4425,54.0448,0.1763,0.1176,0.662,276.7031
13:24:20:457,1.4139,3.5536,7.0043,51.155,0.2178,0.0007,0.5999,276
13:24:20:477,1.8161,3.7954,6.9553,52.0195,0.1449,-0.2137,0.3927,275.6562
13:24:20:498,1.8329,3.2986,8.2841,54.0598,-0.0975,-0.5341,0.0718,274.9062
13:24:20:525,1.0979,2.0596,10.9931,51.9888,-0.3941,-0.7482,-0.2437,274.3438
13:24:20:544,0.1055,1.0816,13.4735,54.3353,-0.5316,-0.6499,-0.3441,274.1562
13:24:20:559,0.3988,0.568,14.3294,54.4533,-0.4149,-0.2979,-0.1338,274.6094
13:24:20:577,1.8664,0.4388,13.2724,52.881,-0.1846,0.0247,0.1624,275.1094
13:24:20:598,3.2945,1.1187,11.7233,54.3689,-0.4184,0.3046,0.0625,275.2969
13:24:20:617,4.1888,1.7412,11.272,53.9557,-0.8384,0.1664,-0.48,275.2969
13:24:20:639,3.5555,1.3952,12.6319,55.0782,-1.0879,0.152,-1.0459,275.1094
13:24:20:658,1.8089,0.2496,14.0649,54.2385,-0.9771,0.4241,-1.248,274.75
13:24:20:678,0.4646,-0.5872,13.7656,53.8221,-0.6394,0.7016,-1.0981,274.6094
13:24:20:697,0.3461,-0.7548,11.3989,53.8746,-0.3995,0.671,-0.8475,276.2188
13:24:20:716,0.7722,-0.331,9.0071,54.1641,-0.3803,0.2686,-0.6776,277.5469
13:24:20:739,1.2319,0.2017,8.405,53.3703,-0.3337,-0.1951,-0.6296,278.6406
13:24:20:756,1.3708,0.5896,8.211,53.0656,-0.1699,-0.4752,-0.664,279.5
13:24:20:776,1.0476,0.7907,7.3527,51.8733,-0.0333,-0.5306,-0.6834,280.2188
13:24:20:797,0.6717,0.975,6.2262,52.2267,0.0168,-0.5136,-0.6576,280.9062
13:24:20:816,0.4514,1.2983,5.338,53.55,-0.0389,-0.4973,-0.6624,282.125
13:24:20:845,0.3521,1.6059,5.1129,53.4627,-0.1422,-0.4009,-0.7178,282.9375
13:24:20:860,0.3245,1.7663,5.3464,52.6382,-0.233,-0.2267,-0.8142,283.7031
13:24:20:878,-0.0454,1.831,5.6456,51.9641,-0.2762,-0.0648,-0.8821,284.5312
13:24:20:899,-0.6918,1.9076,5.9054,52.8669,-0.3068,-0.0619,-0.8746,285.4219
13:24:20:916,-1.0677,2.1961,7.0427,52.5303,-0.2834,-0.1698,-0.839,286.4062
13:24:20:939,-1.1683,2.3733,8.8204,51.4745,-0.1734,-0.2435,-0.8454,286.8594
13:24:20:959,-1.5896,2.329,10.3191,51.1438,-0.085,-0.1413,-0.8448,287.8438
13:24:20:977,-2.4276,2.1374,11.0506,50.5741,-0.106,0.1224,-0.7497,288.8125
13:24:20:999,-3.0812,2.1015,11.5689,51.3521,-0.1611,0.3445,-0.5908,289.7812
13:24:21:025,-3.5313,2.1267,11.9639,52.1463,-0.1822,0.3637,-0.3894,290.7188
13:24:21:041,-3.4451,1.9351,12.4943,51.3633,-0.1689,0.2558,-0.1732,291.5625
13:24:21:060,-2.8298,1.5473,13.0772,51.5542,-0.1651,0.1988,-0.0019,292.2031
13:24:21:080,-2.3271,1.3282,13.416,51.7535,-0.2234,0.1477,0.131,292.5938
13:24:21:096,-2.0206,1.2504,13.9882,51.5418,-0.2956,-0.0025,0.2322,292.7656
13:24:21:117,-1.7249,0.9463,14.8262,51.0605,-0.2858,-0.2616,0.3331,292.6562
13:24:21:143,-1.5346,0.3526,15.8904,50.5565,-0.1164,-0.4763,0.4881,292.4375
13:24:21:159,-1.1659,-0.5249,16.8074,51.3921,0.2551,-0.3863,0.7177,292.1094
13:24:21:178,-0.5625,-1.3366,15.5349,50.8064,0.6314,0.0566,0.9661,291.6562
13:24:21:198,-0.2465,-1.4383,11.8718,51.1551,0.6844,0.3642,1.1834,291.0312
13:24:21:218,0.0312,-1.0457,8.5821,51.6116,0.4368,0.2364,1.339,290.1094
13:24:21:242,0.2862,-0.4483,7.3324,51.0756,0.1412,-0.1626,1.4636,288.8906
13:24:21:259,0.9913,0.0916,8.0446,50.3576,0.053,-0.4512,1.5139,287.4375
13:24:21:277,1.4438,0.3609,8.3619,50.1822,0.1515,-0.5008,1.4721,285.9219
13:24:21:298,1.3289,0.7859,7.2713,49.7699,0.2658,-0.4409,1.4285,284.2344
13:24:21:319,1.2247,0.9308,6.814,50.0563,0.3361,-0.3261,1.3688,282.5625
13:24:21:344,0.886,1.1055,6.5662,48.408,0.3595,-0.2603,1.2924,281.0312
13:24:21:359,0.6813,1.2312,6.6632,50.663,0.3848,-0.2672,1.2295,279.4844
13:24:21:378,0.7555,1.1833,6.8846,48.6301,0.4408,-0.3149,1.1853,277.9844
13:24:21:399,0.8321,1.1965,6.7398,49.4939,0.5231,-0.312,1.1337,276.6406
13:24:21:417,1.0476,1.3509,6.7697,48.9556,0.5508,-0.3333,1.0732,274.6562
13:24:21:437,1.4151,1.5054,7.3707,48.6716,0.5095,-0.3964,0.9747,274.0156
13:24:21:472,1.6533,1.509,8.1296,46.6788,0.4759,-0.4568,0.8018,272.7812
13:24:21:529,1.6964,1.1881,8.3882,49.0727,0.4567,-0.4158,0.564,271.7031
13:24:21:529,1.9777,0.4866,8.3786,48.0356,0.3569,-0.2616,0.3379,270.7188
13:24:21:530,2.4422,-0.3011,8.7246,48.562,0.1246,-0.1508,0.1376,269.9844
13:24:21:544,2.69,-1.1606,10.1635,49.2799,-0.1968,-0.1825,-0.0544,269.5469
13:24:21:556,2.5128,-1.7041,11.8981,49.443,-0.4879,-0.1615,-0.1894,269.2812
13:24:21:579,2.3764,-1.995,12.8713,49.372,-0.5891,-0.0169,-0.2355,269.2656
13:24:21:597,2.6266,-1.9902,12.1148,47.7903,-0.5081,0.1392,-0.2211,269.4531
13:24:21:617,2.7965,-1.2384,10.4233,48.1399,-0.4844,0.2415,-0.2294,269.7344
13:24:21:640,2.5643,-0.3801,10.1695,48.7899,-0.7513,0.1749,-0.3569,270.0156
13:24:21:659,1.6701,-0.4555,12.5888,48.1121,-1.1766,-0.0832,-0.6451,270.25
13:24:21:682,0.1629,-1.1235,14.8956,49.0549,-1.3151,-0.1532,-0.8784,270.5469
13:24:21:697,-0.5338,-1.1953,14.0948,47.1741,-0.9814,0.1634,-0.7588,271.125
13:24:21:717,0.358,-0.5489,10.9704,48.7599,-0.4724,0.491,-0.346,272.625
13:24:21:740,1.7144,0.7021,8.9532,47.297,-0.2093,0.3227,-0.0131,273.4531
13:24:21:757,2.7487,1.4682,8.7904,47.381,-0.2131,-0.1655,-0.0049,273.8281
13:24:21:778,3.0001,1.4407,8.9137,46.5756,-0.2586,-0.4473,-0.2523,273.8281
13:24:21:798,2.3572,1.0421,8.6791,47.7741,-0.2975,-0.3293,-0.5774,273.8438
13:24:21:817,1.4426,0.7368,7.9656,45.3918,-0.3372,0.0774,-0.8089,274.1719
13:24:21:841,0.6094,0.659,7.3635,45.3919,-0.3859,0.4939,-0.8898,274.8594
13:24:21:858,0.0899,0.7572,7.1013,46.2137,-0.3939,0.7624,-0.8571,275.7344
13:24:21:876,-0.1112,0.92,6.8439,46.8307,-0.297,0.8372,-0.7503,276.7344
13:24:21:898,0.0276,1.1546,6.3651,48.5964,-0.1047,0.7416,-0.6126,277.6875
13:24:21:920,0.3952,1.4754,5.7486,48.5964,0.0607,0.5866,-0.4957,278.5
13:24:21:943,0.6322,1.7711,5.6816,46.1801,0.1015,0.3925,-0.4525,279.1406
13:24:21:958,0.3126,1.9603,6.7302,46.9044,0.0125,0.128,-0.5069,279.4219
13:24:21:985,-0.1938,1.6646,8.387,46.1894,-0.0887,-0.0622,-0.5772,279.9219
13:24:21:998,-0.5206,1.3306,9.8989,45.2654,-0.1499,0.2167,-0.4824,280.7188
13:24:22:019,-0.9624,1.1989,10.8207,45.3997,-0.1356,0.4742,-0.3276,280.7188
13:24:22:041,-1.2173,1.2288,11.2373,46.482,-0.114,0.5349,-0.1439,281.3906
13:24:22:059,-0.9624,1.2432,11.7652,44.7601,-0.0874,0.3051,-0.0131,282.0312
13:24:22:079,-0.2321,1.345,12.5242,44.3783,-0.1555,0.0108,-0.008,282.9062
13:24:22:096,0.3952,1.2061,14.1271,47,-0.3076,0.0292,-0.109,283.0469
13:24:22:116,0.3006,0.8194,15.8126,45.0059,-0.3758,0.4471,-0.1766,283.0469
13:24:22:144,-0.3734,0.7871,16.1861,43.6527,-0.3531,0.903,-0.1149,283.0469
13:24:22:161,-0.5051,0.6147,15.7073,43.0222,-0.196,1.0729,-0.0709,283.1562
13:24:22:176,-1.1311,-0.1514,14.6335,43.3341,0.1649,0.8146,0.0207,283.3281
13:24:22:198,-2.1726,-1.066,13.003,43.5595,0.5707,0.385,0.3371,283.4219
13:24:22:218,-2.0637,-1.6131,10.8195,43.9276,0.759,-0.0329,0.735,283.4375
13:24:22:243,-0.693,-1.6885,9.2238,43.0546,0.678,-0.4475,0.9544,283.4375
13:24:22:261,0.3569,-1.011,9.0155,43.1367,0.4943,-0.8174,0.9656,282.7812
13:24:22:278,1.2834,-0.264,9.7996,42.2479,0.3784,-0.9999,0.8045,281.8438
13:24:22:296,1.7204,0.0174,10.3718,44.1653,0.3444,-0.8675,0.5201,280.7969
13:24:22:317,1.0093,-0.0305,10.1324,40.5089,0.3571,-0.5008,0.3629,279.8906
13:24:22:346,0.048,-0.3047,9.2334,42.5428,0.4288,-0.1058,0.4292,279.2031
13:24:22:359,-0.468,-0.4687,7.8327,42.133,0.5332,0.0598,0.6412,278.7969
13:24:22:376,-0.3734,-0.2771,6.4968,42.2401,0.608,-0.0099,0.8316,278.4062
13:24:22:397,-0.0969,0.1467,5.7234,43.6986,0.6626,-0.2307,0.9414,277.8438
13:24:22:417,0.4203,0.3861,5.6265,42.3717,0.7297,-0.521,0.9422,277
13:24:22:439,0.5735,0.4938,5.9796,41.418,0.7883,-0.6872,0.879,276.5312
13:24:22:456,0.5676,0.4447,6.2969,41.7074,0.7918,-0.6971,0.8303,275.4844
13:24:22:479,0.6394,0.4352,6.6392,42.2432,0.7334,-0.5879,0.7616,274.5312
13:24:22:497,0.6358,0.4675,6.9074,41.7604,0.6016,-0.4566,0.6703,273.6094
13:24:22:518,0.6441,0.6207,7.3372,41.9222,0.4312,-0.3263,0.56,272.75
13:24:22:542,0.9015,0.6818,7.7011,41.1118,0.2621,-0.2499,0.3874,272
13:24:22:560,1.0859,0.5932,7.8112,42.0478,0.0482,-0.296,0.1874,270.9688
13:24:22:577,1.4642,0.2855,8.5211,41.7675,-0.2181,-0.4486,-0.024,270.4531
13:24:22:598,1.7347,-0.3585,10.2318,42.1472,-0.4573,-0.4776,-0.2083,270.1719
13:24:22:616,1.4115,-0.9786,12.3757,40.69,-0.5721,-0.1277,-0.2392,270.1406
13:24:22:642,1.2966,-1.4467,13.246,40.6873,-0.5185,0.4015,-0.1279,270.3594
13:24:22:658,1.8233,-1.5149,11.7066,41.2647,-0.5366,0.6859,-0.0161,270.7031
13:24:22:676,2.5691,-0.8266,10.1683,40.2583,-0.702,0.516,-0.0557,270.9219
13:24:22:696,3.2706,0.0676,11.1571,42.3492,-0.9233,0.0841,-0.3402,270.9219
13:24:22:717,2.2854,-0.6147,12.8031,41.7116,-1.0914,-0.1735,-0.713,270.875
13:24:22:742,0.9734,-1.2504,13.4962,42.0854,-1.0993,-0.0017,-0.8981,271.0469
13:24:22:759,0.6454,-1.2659,12.8235,40.9999,-0.9476,0.377,-0.7378,271.6719
13:24:22:776,1.5803,-0.8027,11.5138,40.2098,-0.7153,0.5437,-0.4126,272.6719
13:24:22:799,2.3871,-0.1299,10.549,42.0757,-0.5143,0.4111,-0.2107,273.5938
13:24:22:815,2.672,0.3142,9.5877,42.2185,-0.3209,0.1315,-0.1921,274.2344
13:24:22:836,2.2459,0.5465,8.3714,40.2439,-0.176,-0.0211,-0.3103,274.5312
13:24:22:857,1.4031,0.5692,7.4473,40.7828,-0.1792,0.0327,-0.4648,274.8281
13:24:22:876,0.6059,0.5142,6.9637,41.0613,-0.2666,0.2241,-0.5234,275.1719
13:24:22:896,0.1701,0.6973,6.5219,41.2607,-0.3007,0.4398,-0.4592,275.7188
13:24:22:916,0.218,0.9427,6.1999,41.5744,-0.2533,0.5408,-0.3351,276
13:24:22:943,0.4215,1.2863,5.8827,42.1752,-0.1457,0.4934,-0.2379,276.5312
13:24:22:957,0.6394,1.6442,5.7414,39.3585,-0.0421,0.3237,-0.2118,276.9688
13:24:22:976,0.6346,1.7831,5.9389,41.6766,-0.0101,0.1272,-0.2672,277.2656
13:24:22:996,0.3604,1.6095,6.9218,42.7866,-0.0727,-0.0677,-0.3748,277.4844
13:24:23:018,-0.2453,1.4706,8.4959,42.0946,-0.1933,-0.1405,-0.4438,277.7344
13:24:23:043,-0.8259,1.4467,10.0474,41.6093,-0.2788,-0.0441,-0.4171,278.0938
13:24:23:060,-0.9468,1.5892,11.6048,40.8916,-0.2906,0.0881,-0.3021,278.5781
13:24:23:077,-0.6356,1.667,12.8737,41.8291,-0.2016,0.144,-0.1825,279.0625
13:24:23:096,-0.6451,1.8142,13.1215,41.5649,-0.0064,0.2047,-0.1258,279.4688
13:24:23:116,-1.0809,1.7879,12.8079,41.1334,0.1555,0.263,-0.1441,279.7344
13:24:23:143,-1.5825,1.2815,12.7277,40.9918,0.1747,0.3538,-0.1966,279.9375
13:24:23:160,-1.7943,0.5034,12.8558,42.7508,0.0802,0.5072,-0.1793,280.1094
13:24:23:179,-1.7525,0.3921,13.4915,43.01,-0.1012,0.7602,0.0183,280.3281
13:24:23:196,-0.5745,1.1905,14.564,42.4582,-0.1902,0.8058,0.3885,280.5156
13:24:23:217,1.0416,1.4012,15.2859,43.1766,-0.0911,0.6353,0.6119,280.4688
13:24:23:243,0.8872,0.7596,14.6431,41.9881,0.1763,0.4012,0.4463,280
13:24:23:258,-0.1807,-0.6123,13.659,42.6216,0.4211,0.1762,0.2255,279.3125
13:24:23:277,-0.7182,-1.8992,11.9244,43.3188,0.6325,0.1642,0.2292,278.7969
13:24:23:296,-0.3483,-2.6378,9.4393,42.1948,0.7958,0.259,0.4085,278.5781
13:24:23:317,-0.0059,-1.9806,7.3946,44.4987,0.7891,0.1517,0.6298,278.375
13:24:23:342,0.3377,-0.7787,7.2031,44.1473,0.5577,-0.2574,0.7533,277.9531
13:24:23:358,0.5723,-0.258,8.223,45.3208,0.2762,-0.7413,0.7043,277.2969
13:24:23:375,0.4311,-0.0952,9.3255,44.5765,0.0815,-0.9674,0.56,276.5
13:24:23:396,0.3796,-0.4495,9.8965,45.0519,0.1603,-0.3548,0.4482,276.1406
13:24:23:417,-0.4225,-0.7296,8.9353,44.8713,0.3941,0.0095,0.5757,276.1406
13:24:23:442,-0.8307,-0.7033,7.1492,47.1575,0.5766,0.1512,0.8324,275.2188
13:24:23:458,-0.6535,-0.3561,5.3895,45.8868,0.6147,-0.0017,1.0303,274.2812
13:24:23:477,-0.1136,0.1024,4.5036,46.0233,0.5441,-0.2912,1.1084,273.625
13:24:23:496,0.5197,0.4184,4.5838,45.6393,0.4447,-0.5402,1.0764,272.6875
13:24:23:515,0.8656,0.6447,5.2135,43.5021,0.3792,-0.7133,0.9731,271.5312
13:24:23:577,0.9614,0.8326,5.9234,45.4619,0.3433,-0.8198,0.8407,270.375
13:24:23:578,1.0823,0.8625,6.4477,46.413,0.2442,-0.8872,0.6852,269.2188
13:24:23:580,1.1026,0.9487,7.4628,45.3168,0.1028,-0.7908,0.5177,268.1875
13:24:23:594,0.9255,0.8577,8.8263,45.6002,-0.0194,-0.521,0.3472,267.375
13:24:23:614,0.5125,0.6004,9.6811,46.7227,-0.1329,-0.1913,0.2367,266.6875
13:24:23:635,0.5161,0.3561,10.2916,46.899,-0.2365,-0.1748,0.1499,266.1875
13:24:23:658,0.8225,0.1945,11.612,47.1743,-0.2858,-0.3218,0.0412,265.875
13:24:23:674,1.0332,-0.2855,13.1886,45.6393,-0.2831,-0.2962,-0.0384,265.4844
13:24:23:694,1.36,-1.1187,13.9475,48.0971,-0.2453,0.1075,-0.0041,265.4844
13:24:23:715,2.0747,-1.4527,13.0174,46.3221,-0.2967,0.5261,0.0668,265.5156
13:24:23:735,3.1581,-0.975,11.6467,45.6576,-0.4716,0.5956,-0.0411,265.5781
13:24:23:760,3.9039,-0.1814,11.0996,47.0103,-0.7361,0.4598,-0.4027,265.5
13:24:23:776,3.3616,0.3083,12.1878,46.9953,-0.9265,0.45,-0.8366,265.4062
13:24:23:798,2.0639,-0.2185,14.1068,48.841,-0.8069,0.7759,-1.0374,265.5781
13:24:23:816,0.9303,-0.9487,13.932,48.6313,-0.5124,1.1813,-0.917,266.2812
13:24:23:836,0.789,-0.9906,12.0154,47.9076,-0.2653,1.1206,-0.6986,267.3594
13:24:23:859,1.0596,-0.7236,10.4305,46.3367,-0.0914,0.5663,-0.5215,268.375
13:24:23:878,1.5958,-0.4639,10.0294,46.7376,0.0959,0.0145,-0.4203,268.8281
13:24:23:896,2.0555,-0.1634,9.6009,47.5014,0.2575,-0.1716,-0.4302,269.5625
13:24:23:916,2.0436,0.0784,8.3894,47.5791,0.281,-0.08,-0.4928,270.1094
13:24:23:936,1.6401,0.2496,7.0558,48.3016,0.183,0.1014,-0.5258,270.5781
13:24:23:958,1.2846,0.513,6.1424,46.7005,0.0466,0.2854,-0.5231,271.0781
13:24:23:975,1.05,0.8326,5.4673,46.7005,-0.0687,0.3826,-0.5327,271.6719
13:24:24:004,0.8537,1.0852,5.2051,48.1302,-0.1065,0.3741,-0.5343,272.5312
13:24:24:014,0.9051,1.2779,5.2578,47.0534,-0.0495,0.2417,-0.5559,273.1094
13:24:24:038,0.9183,1.5006,5.6241,47.8407,0.0687,0.058,-0.6187,273.6875
13:24:24:058,0.8429,1.6227,5.8587,47.5911,0.1387,-0.1679,-0.7117,274.25
13:24:24:078,0.5113,1.5305,6.3208,47.965,0.1164,-0.3178,-0.7924,274.9219
13:24:24:095,-0.6858,1.084,8.6156,46.8183,0.0253,-0.373,-0.7838,275.6719
13:24:24:116,-0.8019,1.2504,9.9887,48.4903,-0.0858,-0.2688,-0.6968,276.5312
13:24:24:136,-0.8319,1.4599,11.0518,47.089,-0.1758,-0.0789,-0.6504,277.4688
13:24:24:160,-0.9959,1.5951,11.4013,48.168,-0.2506,0.1658,-0.6709,278.3438
13:24:24:177,-1.4161,1.5592,11.6862,45.6318,-0.3465,0.3448,-0.6941,279.1094
13:24:24:194,-2.0266,1.5544,13.0569,47.5427,-0.5047,0.3618,-0.6307,279.8125
13:24:24:215,-2.2026,1.2863,14.6562,47.9763,-0.571,0.2851,-0.4685,280.5781
13:24:24:236,-2.3809,1.2073,15.4786,46.4194,-0.4666,0.2436,-0.2278,281.2969
13:24:24:258,-2.4587,1.6251,15.748,48.5156,-0.3137,0.189,0.0782,282.0781
13:24:24:277,-1.5286,1.4012,16.7224,47.7195,-0.2301,0.0196,0.3504,282.2969
13:24:24:296,-0.9049,0.2185,17.5807,48.4205,-0.0663,-0.1439,0.4079,282.1875
13:24:24:316,-1.8889,-1.0696,15.7001,48.6181,0.408,-0.0856,0.3675,282.0312
13:24:24:342,-2.205,-1.5844,11.9627,48.8647,0.9718,0.0566,0.548,281.5469
13:24:24:361,-1.1407,-1.6538,9.1951,48.9723,1.1713,0.0657,0.8876,281.125
13:24:24:378,0.0061,-1.3521,7.9094,48.2323,1.0397,-0.0688,1.0679,280.6875
13:24:24:394,0.2192,-0.7679,7.8639,49.0621,0.7875,-0.3013,1.0535,279.9688
13:24:24:415,0.4945,-0.4938,8.3726,49.357,0.6008,-0.5274,0.9874,278.8906
13:24:24:437,0.8345,-0.404,8.1644,49.1928,0.551,-0.6329,0.9171,277.7344
13:24:24:458,0.807,-0.3896,7.2366,50.3024,0.5382,-0.5522,0.8274,276.6875
13:24:24:476,0.7172,-0.3621,6.8535,50.295,0.4669,-0.4017,0.7893,275.6719
13:24:24:495,0.8572,-0.2113,6.7326,49.9712,0.4306,-0.272,0.8138,274.7656
13:24:24:519,1.0979,0.0449,6.1137,50.3082,0.5156,-0.1807,0.8359,273.9062
13:24:24:543,1.2678,0.2173,5.417,49.4123,0.6024,-0.1788,0.7994,272.6406
13:24:24:558,1.3313,0.3442,4.986,49.8111,0.6027,-0.2377,0.7225,271.7188
13:24:24:576,1.4319,0.4771,4.9465,51.3786,0.4919,-0.271,0.6343,270.875
13:24:24:595,1.597,0.6626,5.6828,49.9524,0.3017,-0.2717,0.5422,270.0938
13:24:24:616,1.6832,0.732,6.5866,50.0065,0.1254,-0.219,0.4375,269.4062
13:24:24:642,1.6162,0.8194,7.2342,51.6698,0.0218,-0.0736,0.327,268.8281
13:24:24:659,1.4977,1.0553,7.6699,49.8824,-0.0498,0.05,0.2183,268.3906
13:24:24:676,1.4594,1.2396,7.6855,51.2738,-0.1265,0.1514,0.0953,268.0156
13:24:24:699,1.4031,1.2169,7.8471,51.6316,-0.2437,0.1155,-0.0674,267.7656
13:24:24:716,1.3588,0.6949,8.6216,51.7607,-0.4346,-0.1114,-0.2422,267.6406
13:24:24:735,1.5156,0.1,10.4185,50.2398,-0.6932,-0.3908,-0.3508,267.7031
13:24:24:758,1.6737,-0.5118,13.2604,48.2832,-0.9286,-0.5999,-0.3796,268
13:24:24:775,2.289,-1.0708,14.734,51.4987,-0.9404,-0.4736,-0.3162,268.4219
13:24:24:796,2.4841,-0.8697,13.1467,51.5846,-0.7113,-0.0403,-0.2302,268.9375
13:24:24:816,2.3644,0.0173,11.2229,50.5115,-0.7034,-0.0222,-0.326,269.1719
13:24:24:836,2.3943,0.5094,11.6934,50.1025,-0.9758,-0.2289,-0.5679,269.6406
13:24:24:857,1.9741,0.3118,13.9451,51.7184,-1.1441,0.1312,-0.7804,269.8594
13:24:24:876,1.4941,-0.2783,15.2213,51.1689,-1.139,0.9395,-0.8597,270.25
13:24:24:896,1.2619,-0.7236,14.2253,52.5286,-1.0197,1.5954,-0.8262,270.9219
13:24:24:915,1.0667,-0.5992,11.6886,50.9152,-0.906,1.5496,-0.7455,271.7656
13:24:24:937,0.8979,-0.4351,10.1132,53.0828,-0.7318,0.9991,-0.6464,272.7188
13:24:24:960,0.8345,-0.2592,9.5709,51.711,-0.42,0.3746,-0.5772,273.5781
13:24:24:977,0.5412,0.0042,9.0322,52.1274,-0.0634,-0.0672,-0.5111,274.3594
13:24:24:994,0.2898,0.1538,8.0147,52.3322,0.184,-0.1852,-0.4389,275.0156
13:24:25:014,0.1749,0.3011,6.7637,53.0735,0.2405,-0.0246,-0.3591,275.6406
13:24:25:037,0.2515,0.5644,5.8779,52.6242,0.2067,0.1789,-0.3103,276.2344
13:24:25:058,0.4801,0.9751,5.3188,53.662,0.192,0.2247,-0.3564,276.7188
13:24:25:075,0.5041,1.2504,4.9034,51.2481,0.1593,0.1395,-0.4762,277.1406
13:24:25:093,0.151,1.2025,4.9178,52.7701,0.0804,0.0071,-0.5735,277.9062
13:24:25:114,-0.6236,1.0517,5.5224,54.0448,-0.0008,-0.105,-0.5628,278.1562
13:24:25:136,-1.1443,1.0636,6.6728,54.0801,-0.0362,-0.2686,-0.4531,278.7812
13:24:25:156,-1.3718,1.2037,8.4576,52.5386,0.0533,-0.4062,-0.3407,279.4531
13:24:25:174,-1.4568,1.3294,9.8906,52.7303,0.1635,-0.4659,-0.2411,280.0156
13:24:25:194,-1.379,1.485,11.0601,52.5245,0.2234,-0.349,-0.1604,280.4688
13:24:25:220,-0.8857,1.5652,11.8849,54.2338,0.2458,-0.1303,-0.1295,280.8125
13:24:25:244,-0.4261,1.3533,12.2704,52.2631,0.2195,-0.0422,-0.1415,281.0469
13:24:25:262,-0.4775,0.8769,13.167,54.3967,0.2424,-0.0859,-0.0533,281.2188
13:24:25:281,-0.3937,0.4244,14.4994,53.9185,0.4573,-0.101,0.1302,281.2969
13:24:25:294,0.2312,0.2005,14.5257,51.3998,0.6943,0.0209,0.2761,281.4688
13:24:25:315,1.0284,0.6842,12.7469,53.3695,0.567,0.0609,0.2404,281.5469
13:24:25:337,1.7251,1.3773,12.1208,52.032,0.134,-0.1759,-0.0222,281.4219
13:24:25:359,1.4917,1.3461,14.2767,52.2924,-0.1561,-0.3975,-0.3287,281.125
13:24:25:375,0.218,0.1191,17.2839,53.838,0.0799,-0.2129,-0.3774,280.8594
13:24:25:395,-0.8678,-1.3892,17.2108,54.175,0.6309,0.2886,-0.089,281.0781
13:24:25:415,-1.1204,-1.9327,13.0102,53.0528,0.8498,0.373,0.3161,281.5469
13:24:25:435,-0.693,-1.1462,9.705,52.9927,0.6964,-0.1322,0.5736,281.8594
13:24:25:459,0.127,-0.3286,9.48,54.2559,0.5465,-0.6278,0.625,281.7188
13:24:25:476,0.6645,0.1694,10.4927,52.6767,0.6328,-0.7202,0.5728,281.2031
13:24:25:496,0.4335,0.0928,8.32,54.0727,0.8197,-0.5647,0.4841,280.5469
13:24:25:515,0.0432,-0.161,6.486,53.291,0.9201,-0.3359,0.4676,279.9531
13:24:25:534,-0.2824,-0.2029,5.2566,54.2789,0.8818,-0.1165,0.5523,279.4219
13:24:25:559,-0.207,-0.0533,4.7766,54.6882,0.7678,-0.0041,0.6993,278.9531
13:24:25:578,0.2886,0.1407,4.9166,54.9241,0.6719,-0.0526,0.8255,278.4062
13:24:25:647,0.7998,0.2807,5.253,53.0264,0.621,-0.1791,0.8551,277.7344
13:24:25:648,1.032,0.3094,5.5355,55.3611,0.5944,-0.2955,0.7874,276.8594
13:24:25:648,1.05,0.3442,6.0587,56.1667,0.5454,-0.3634,0.6886,275.8906
13:24:25:663,1.1589,0.3358,6.9301,54.8271,0.4778,-0.4126,0.613,275.0156
13:24:25:681,1.3409,0.4543,7.658,55.5288,0.4357,-0.3719,0.5326,273.8594
13:24:25:702,1.7108,0.7703,8.0758,55.1953,0.3987,-0.2251,0.4322,273.2031
13:24:25:713,1.9274,1.0936,7.9417,55.0112,0.3686,-0.0699,0.2748,272.6875
13:24:25:734,1.8616,1.3306,7.8962,56.039,0.2826,-0.0656,0.0599,272.2031
13:24:25:758,2.1513,1.2276,8.6372,56.2458,0.0453,-0.244,-0.1111,272.0312
13:24:25:777,2.5356,0.7584,10.6962,57.9277,-0.3145,-0.4478,-0.2398,271.8281
13:24:25:794,2.6146,-0.0425,12.5757,57.8459,-0.6272,-0.4105,-0.3521,271.8906
13:24:25:815,2.6481,-0.5177,13.0437,57.5876,-0.7667,-0.0997,-0.3455,272.1562
13:24:25:835,2.7223,-0.4172,12.535,57.6419,-0.8442,0.2417,-0.2563,272.6094
13:24:25:860,2.5487,-0.3226,12.7768,58.8056,-0.9598,0.3373,-0.2022,273.0781
13:24:25:875,2.2818,-0.5668,13.8805,58.8786,-1.0314,0.2159,-0.1793,273.4375
13:24:25:894,2.186,-0.726,13.519,59.8772,-0.8812,0.2516,-0.1031,273.6875
13:24:25:916,2.8564,-0.4806,11.7784,58.418,-0.591,0.3642,0.0532,273.9062
13:24:25:934,3.4669,-0.3059,9.881,59.8612,-0.3337,0.2854,0.1349,274.0781
13:24:25:959,3.595,0.0245,8.1416,58.5,-0.1926,0.0151,0.0801,274.0938
13:24:25:976,3.4095,0.5465,7.8699,58.5439,-0.3156,-0.2374,-0.0552,273.8594
13:24:25:994,2.939,0.8781,8.7162,59.6823,-0.5923,-0.2403,-0.2829,273.7812
13:24:26:014,1.9861,0.9164,9.0203,60.5535,-0.755,0.0537,-0.5354,273.875
13:24:26:035,1.0536,1.0122,8.3894,60.5535,-0.7254,0.451,-0.656,274.2344
13:24:26:058,0.5639,1.2564,6.9792,58.7982,-0.5473,0.7344,-0.6134,274.8281
13:24:26:074,0.461,1.4635,6.1544,60.9798,-0.3667,0.7397,-0.5167,275.5625
13:24:26:097,0.4143,1.5928,5.678,61.1395,-0.2109,0.5663,-0.4477,276.2188
13:24:26:115,0.3461,1.7879,5.2171,60.0201,-0.0722,0.3797,-0.415,276.2188
13:24:26:136,0.364,2.0357,5.235,60.1055,-0.0426,0.2316,-0.3974,277.2188
13:24:26:159,0.2204,2.2176,5.6911,61.2679,-0.1284,0.1509,-0.4243,277.6719
13:24:26:175,-0.0406,2.1817,6.9349,61.7753,-0.2679,0.0894,-0.4778,278.0938
13:24:26:196,-0.45,1.9842,9.1867,60.0295,-0.379,-0.0765,-0.4398,278.5625
13:24:26:222,-0.9276,1.8573,11.175,61.338,-0.2056,-0.0728,-0.3199,278.5625
13:24:26:235,-0.9827,1.7915,12.2177,60.4078,-0.0301,0.054,-0.1937,279.6562
13:24:26:255,-0.705,1.7819,12.3961,63.0996,0.013,0.2766,-0.142,280.1406
13:24:26:278,-0.7972,1.7532,12.4536,64.4715,-0.093,0.496,-0.0994,280.7188
13:24:26:297,-0.7756,1.5736,12.8678,63.5988,-0.2208,0.5757,-0.0408,280.7188
13:24:26:314,-0.8618,1.3354,13.8793,64.5873,-0.2413,0.5056,0.0742,280.8594
13:24:26:334,-0.7936,1.0505,14.8035,63.8523,-0.1638,0.3477,0.2439,280.9531
13:24:26:354,-0.4344,1.1869,15.3589,64.1959,-0.0796,0.1349,0.3872,280.9688
13:24:26:378,-0.0789,1.2049,16.0832,64.5655,0.0658,-0.1514,0.4047,280.8594
13:24:26:393,-0.6643,0.4064,16.9415,65.03,0.4008,-0.2547,0.5041,280.5625
13:24:26:417,-1.3957,-0.5213,16.1263,65.246,0.7912,-0.0672,0.8071,280.1094
13:24:26:443,-0.9947,-0.835,13.3933,64.0229,0.9526,0.2412,1.0806,279.6562
13:24:26:461,-0.1124,-0.7655,10.3107,64.6727,0.844,0.2683,1.1936,279.125
13:24:26:477,0.1952,-0.4962,8.3307,64.9472,0.5816,-0.0768,1.2143,278.2344
13:24:26:493,0.0695,-0.2496,8.3104,66.3461,0.4019,-0.5096,1.2173,277.0156
13:24:26:517,0.0444,-0.2831,9.1591,64.2141,0.4424,-0.6694,1.2482,275.7344
13:24:26:534,-0.0873,-0.4136,8.873,64.0087,0.5444,-0.5335,1.331,273.7031
13:24:26:557,-0.0741,-0.4315,7.8711,63.0732,0.5968,-0.2504,1.4412,272.3594
13:24:26:576,0.1354,-0.2664,6.6344,64.0344,0.6384,-0.0305,1.4985,271.0312
13:24:26:594,0.2156,0.0233,5.186,62.6667,0.6365,0.0164,1.5171,269.4844
13:24:26:614,0.4203,0.1909,4.2031,62.5614,0.5883,-0.0467,1.4956,267.8125
13:24:26:635,0.5544,0.3549,3.6692,64.2092,0.5137,-0.1407,1.4386,266.1562
13:24:26:660,0.6298,0.4435,3.2874,65.3146,0.3843,-0.271,1.3627,264.4219
13:24:26:677,0.6681,0.5621,3.2802,61.9435,0.1715,-0.419,1.2711,262.75
13:24:26:698,0.9722,0.6279,4.2917,62.8863,-0.0892,-0.5005,1.1291,261.1719
13:24:26:715,1.3337,0.4771,6.152,62.746,-0.3465,-0.4374,0.9398,259.7656
13:24:26:736,1.5108,0.404,8.4445,62.5519,-0.5151,-0.3173,0.7169,258.4531
13:24:26:761,1.5228,0.2628,10.7645,62.433,-0.4535,-0.2134,0.4788,257.3438
13:24:26:778,1.4857,-0.404,11.6671,63.074,-0.3153,-0.1887,0.3296,256.8594
13:24:26:794,1.7156,-0.8805,11.7736,63.2167,-0.2804,-0.2121,0.2705,256.1406
13:24:26:814,2.4709,-1.1007,12.1363,61.9382,-0.3172,-0.2028,0.1701,255.6406
13:24:26:835,3.1533,-1.3198,12.4548,63.1482,-0.4003,-0.0813,0.0215,255.3125
13:24:26:860,3.8057,-1.734,12.1794,63.8884,-0.5406,0.1014,-0.1503,254.9688
13:24:26:877,4.1349,-1.7424,11.4372,62.7416,-0.742,0.1312,-0.3481,254.8906
13:24:26:895,3.352,-0.8098,12.845,63.028,-0.9968,-0.129,-0.6195,254.9844
13:24:26:915,2.3895,-1.1905,15.4319,62.841,-1.1358,-0.3535,-0.8233,255.2812
13:24:26:935,2.0148,-1.3234,15.9263,63.3647,-0.9268,-0.1532,-0.7684,255.875
13:24:26:958,2.5475,-0.9319,13.1814,62.1469,-0.4693,0.3333,-0.525,256.8125
13:24:26:973,3.2718,-0.1035,10.2629,63.2777,-0.1619,0.5552,-0.2946,257.7969
13:24:26:993,3.3592,0.7225,9.0993,60.9489,-0.1268,0.304,-0.2893,258.5938
13:24:27:014,2.7714,0.9762,9.0849,60.9546,-0.2165,0.014,-0.4725,259.0156
13:24:27:033,2.0998,0.902,8.9796,62.1158,-0.2706,0.0649,-0.6632,259.3125
13:24:27:058,1.3612,0.8446,8.138,59.7898,-0.2107,0.3227,-0.7908,259.7031
13:24:27:075,0.558,0.8194,6.905,60.0907,-0.0914,0.5634,-0.8728,260.3906
13:24:27:093,0.0169,0.7919,5.988,62.6954,0.0128,0.6175,-0.8605,261.2188
13:24:27:117,-0.2082,0.8853,5.7989,61.3254,0.0898,0.4854,-0.7511,262.125
13:24:27:133,-0.0705,1.0672,5.7821,60.3276,0.1979,0.2881,-0.6171,263.5781
13:24:27:154,0.1749,1.309,5.66,59.3442,0.3233,0.103,-0.5255,264.4219
13:24:27:175,0.388,1.5317,5.9701,59.7103,0.3443,0.0026,-0.5231,265.0625
13:24:27:196,0.3844,1.6311,6.5506,58.5764,0.2653,-0.0036,-0.6035,265.6562
13:24:27:219,-0.1759,1.4898,7.8292,59.2652,0.1281,-0.0124,-0.7263,266.25
13:24:27:232,-1.1348,1.1474,9.559,59.0538,-0.0208,0.0489,-0.7668,266.9062
13:24:27:255,-1.5741,0.8673,11.0625,59.296,-0.0612,0.1743,-0.6382,267.2969
13:24:27:278,-1.422,0.8829,11.3283,60.0796,0.0661,0.2873,-0.4078,268.1719
13:24:27:294,-1.2102,1.1845,11.1188,58.1415,0.2016,0.307,-0.1985,269
13:24:27:314,-1.1467,1.4826,11.4336,58.4873,0.232,0.2146,-0.0714,269.5625
13:24:27:334,-1.3777,1.3581,12.5996,57.7227,0.1723,0.0593,-0.0347,269.875
13:24:27:362,-1.8327,0.914,13.8853,58.3723,0.1201,0.0279,0.0087,270
13:24:27:379,-2.2265,0.7751,13.8518,56.9808,0.139,0.2359,0.1499,270.0469
13:24:27:396,-2.2421,0.9918,13.5681,57.3432,0.0836,0.5222,0.372,270.0625
13:24:27:413,-2.0457,0.9918,14.7951,56.9238,-0.0626,0.5339,0.5749,269.8594
13:24:27:434,-2.1882,0.3059,17.066,57.2116,-0.0914,0.1869,0.7408,269.4219
13:24:27:460,-2.205,-0.756,17.9794,55.8006,0.2133,-0.0675,0.9957,268.7188
13:24:27:477,-1.3826,-1.4263,14.7436,57.3474,0.8429,0.001,1.3848,267.8594
13:24:27:493,-0.207,-0.9882,10.871,56.7923,1.2274,0.1083,1.7395,266.7344
13:24:27:514,0.6861,-0.1862,9.1783,56.9484,1.1121,-0.0169,1.8908,265.2344
13:24:27:533,1.1793,0.1862,9.5614,55.2353,0.7747,-0.2076,1.8157,263.2344
13:24:27:554,0.9267,0.0126,9.6859,54.556,0.6027,-0.243,1.638,261.0938
13:24:27:576,0.5568,-0.1837,8.5558,54.8502,0.6794,-0.1357,1.5142,259.125
13:24:27:595,0.6406,-0.2161,6.9265,56.7577,0.8123,0.0116,1.5486,257.2812
13:24:27:614,0.9375,0.0712,5.654,53.111,0.7982,0.1362,1.6974,255.5625
13:24:27:633,1.2307,0.5118,4.9226,53.3564,0.681,0.0737,1.6889,255.5625
13:24:27:704,1.5671,0.9032,4.5467,53.6988,0.5156,-0.0914,1.6098,253.8594
13:24:27:705,1.8006,1.327,4.7359,52.716,0.3569,-0.2222,1.491,248
13:24:27:705,1.7778,1.473,5.5798,54.5795,0.3057,-0.2699,1.3957,248
13:24:27:713,1.5109,1.4922,7.1684,53.2101,0.4506,-0.243,1.3693,246.25
13:24:27:734,1.5384,1.6454,8.2003,51.6757,0.6312,-0.072,1.3462,243.7812
13:24:27:754,1.791,2.2104,8.5462,52.1034,0.7025,0.0766,1.2591,243
13:24:27:777,2.7211,2.8557,9.0502,51.6943,0.7478,0.099,0.9853,241.5312
13:24:27:793,3.3951,3.1071,8.8826,52.4561,0.6858,-0.0712,0.5075,239.9688
13:24:27:813,3.1868,2.8401,8.8706,52.3005,0.4346,-0.3434,0.0713,238.4531
13:24:27:832,2.957,1.7771,10.3155,52.3626,0.1004,-0.4023,-0.2288,237.2656
13:24:27:854,2.0005,0.7871,12.6247,50.6595,-0.0455,-0.129,-0.3018,236.6875
13:24:27:877,1.3229,0.1071,14.2755,51.0544,0.1521,0.3011,-0.1537,236.6406
13:24:27:894,1.8245,-0.3501,13.0952,51.1006,0.3902,0.6449,0.0183,236.9844
13:24:27:913,2.4937,0.2352,10.3311,51.7851,0.3095,0.6044,0.0521,237.3438
13:24:27:933,3.1245,1.1678,8.8874,50.0176,0.0399,0.2665,-0.1822,237.4375
13:24:27:956,2.7786,1.4611,9.3052,49.0654,-0.151,-0.1213,-0.4898,237.25
13:24:27:978,2.3237,0.5429,10.3203,49.8131,-0.1135,-0.2667,-0.6062,237.0312
13:24:27:995,1.9658,-0.185,9.7733,49.3977,-0.0652,-0.2478,-0.5513,237.1875
13:24:28:013,1.8939,-0.2771,8.4038,49.1479,-0.1838,-0.2473,-0.4453,238.1562
13:24:28:033,2.0914,0.0341,7.4808,50.4122,-0.4354,-0.3956,-0.4286,238.875
13:24:28:053,2.0699,0.3741,7.9561,49.5791,-0.6352,-0.4297,-0.4928,239.4844
13:24:28:076,1.6844,0.3537,8.6564,49.7083,-0.6277,-0.166,-0.5162,240.0625
13:24:28:094,1.0703,0.2556,8.077,49.7083,-0.5172,0.2667,-0.4286,240.6875
13:24:28:113,0.5065,0.5549,6.2705,49.5875,-0.4855,0.5597,-0.2397,241.3906
13:24:28:133,0.6561,1.0864,4.6066,49.8393,-0.588,0.5509,-0.0597,241.9688
13:24:28:153,1.2547,1.7687,4.1301,49.7436,-0.6892,0.3741,-0.0006,242.3125
13:24:28:178,1.8963,2.4499,4.3145,49.8115,-0.7167,0.1275,-0.1125,242.375
13:24:28:194,2.2399,3.0029,4.7778,48.0152,-0.7585,-0.0803,-0.3524,242.3281
13:24:28:213,2.0555,3.374,5.4757,48.782,-0.873,-0.1737,-0.6177,242.3438
13:24:28:234,1.4091,3.5452,6.6093,48.4023,-1.0157,-0.0691,-0.8083,242.6094
13:24:28:265,0.7351,3.5991,7.6747,47.9723,-1.1569,0.1232,-0.9058,243.2344
13:24:28:282,0.3293,3.6613,8.6911,48.9347,-1.2927,0.2777,-0.9588,244.125
13:24:28:303,-0.4428,3.6386,12.0777,46.6785,-1.3667,0.3738,-1.002,244.625
13:24:28:313,-1.2126,3.2448,14.1965,49.221,-1.281,0.4066,-1.0185,246.1875
13:24:28:334,-2.3474,2.554,15.8102,47.6138,-1.0011,0.3906,-0.9628,247.3125
13:24:28:354,-3.5457,1.8082,16.1622,47.0979,-0.5811,0.4007,-0.766,248.4688
13:24:28:377,-3.7983,1.4671,15.2991,46.2932,-0.1979,0.4558,-0.3902,249.5469
13:24:28:392,-3.3051,1.4419,14.8262,45.4723,-0.0189,0.3786,0.0223,250.5469
13:24:28:412,-2.3271,1.509,15.3517,47.0239,-0.0146,0.1371,0.332,251.2031
13:24:28:433,-1.7345,1.1857,17.2168,45.9944,-0.0866,-0.1423,0.4862,251.375
13:24:28:454,-1.9153,0.2891,18.5612,46.2805,0.0128,-0.2046,0.5621,251.125
13:24:28:477,-1.9631,-0.7189,17.0002,46.4662,0.4274,0.0441,0.743,250.6406
13:24:28:495,-1.5238,-0.9954,13.3442,45.355,0.9191,0.4044,1.0764,250.0625
13:24:28:517,-0.3925,-1.0133,10.4233,43.9024,1.1638,0.4273,1.4197,249.375
13:24:28:532,0.5113,-0.8374,8.897,46.7715,1.1851,0.0662,1.6066,248.3281
13:24:28:553,0.6154,-0.5273,8.2577,45.3213,1.0943,-0.3213,1.6391,246.8594
13:24:28:577,0.6849,-0.3873,8.1344,47.4189,0.9824,-0.573,1.6093,245.1562
13:24:28:594,0.8956,-0.4651,7.6879,46.8533,0.9428,-0.6334,1.5712,243.2969
13:24:28:618,0.728,-0.4794,6.6189,45.8299,0.9569,-0.4973,1.5123,240.6094
13:24:28:631,0.6465,-0.5309,5.3344,46.1187,0.9345,-0.2749,1.4937,238.9688
13:24:28:656,0.6908,-0.331,4.2941,45.6888,0.8245,-0.0781,1.5094,237.2812
13:24:28:679,0.7675,-0.0066,3.9697,45.1003,0.6381,-0.0172,1.515,235.5625
13:24:28:697,0.9087,0.1586,4.2714,45.1428,0.473,-0.0896,1.4982,233.9062
13:24:28:714,1.0009,0.4435,5.0531,45.913,0.3681,-0.2473,1.4721,232.1406
13:24:28:733,1.2607,0.7488,6.1448,43.8618,0.3001,-0.3466,1.4386,230.4219
13:24:28:753,1.4881,1.066,7.2689,42.9311,0.2408,-0.3088,1.3653,228.75
13:24:28:777,1.7299,1.473,7.9872,44.6102,0.1931,-0.1381,1.2213,227.2188
13:24:28:796,1.9885,1.7855,8.2757,45.2991,0.1188,0.1118,1.0016,225.6875
13:24:28:812,2.1824,1.9591,8.3128,43.7103,-0.0075,0.348,0.7169,224.9688
13:24:28:833,2.2004,1.8453,8.6384,44.3806,-0.167,0.4271,0.3912,223.6719
13:24:28:853,2.1621,1.2552,9.9397,43.0074,-0.3553,0.271,0.0753,222.6875
13:24:28:877,2.2052,0.428,11.5246,44.262,-0.5047,0.1149,-0.1468,221.9844
13:24:28:896,2.5104,-0.1299,12.6774,44.6027,-0.5481,0.1389,-0.2195,221.6875
13:24:28:912,3.1042,-0.3166,12.8725,45.8918,-0.526,0.2361,-0.2017,221.7656
13:24:28:933,3.9649,-0.0449,11.928,44.5469,-0.5308,0.422,-0.203,222.1562
13:24:28:953,4.1217,0.3047,11.4719,43.2919,-0.7132,0.503,-0.3854,222.3906
13:24:28:978,2.8049,-0.1981,12.9192,44.1394,-1.0232,0.4404,-0.7511,222.5781
13:24:28:994,0.8261,-1.1666,13.8745,44.3594,-1.094,0.4202,-0.9886,223
13:24:29:013,-0.5709,-1.6119,12.7959,45.978,-0.4091,0.5091,-0.362,223.8594
13:24:29:037,-0.2333,-1.2611,10.4436,44.0632,-0.1702,0.1099,0.14,223.8594
13:24:29:060,1.3564,-0.4411,8.9317,42.8966,-0.1334,-0.4965,0.3613,225.8906
13:24:29:077,2.7056,0.6207,8.8982,45.0912,-0.1606,-0.8427,0.2764,226.2812
13:24:29:094,3.3975,1.3102,8.9149,45.0626,-0.1912,-0.7437,0.0045,226.1094
13:24:29:112,3.2251,1.5927,8.2517,43.8888,-0.2501,-0.4129,-0.3029,225.7656
13:24:29:137,2.4446,1.5688,7.3024,44.6471,-0.3422,-0.0595,-0.4981,225.5469
13:24:29:158,1.6737,1.5796,6.6907,42.9671,-0.4003,0.1512,-0.5543,225.625
13:24:29:177,1.2391,1.6215,6.6524,42.6098,-0.3196,0.2055,-0.5447,226.2969
13:24:29:194,0.862,1.7496,6.6357,41.5142,-0.1201,0.1205,-0.4978,226.9375
13:24:29:213,0.6418,1.9651,6.4956,42.5094,0.0876,0.0167,-0.4376,227.5781
13:24:29:233,0.692,2.305,6.0036,43.6852,0.1473,-0.0174,-0.4331,228.1406
13:24:29:252,0.7423,2.6055,5.848,43.0871,0.0141,-0.0331,-0.4999,228.6719
13:24:29:276,0.856,2.8868,6.7697,42.2663,-0.1811,0.0217,-0.6238,228.9062
13:24:29:295,0.8429,2.9527,8.1703,43.5929,-0.3577,0.1493,-0.7881,229.4062
13:24:29:313,0.2491,2.584,9.8954,41.9427,-0.449,0.3253,-0.8842,229.9375
13:24:29:332,-0.7373,2.1578,11.9831,42.3619,-0.3534,0.5328,-0.8225,230.6719
13:24:29:354,-1.428,1.8178,13.1275,41.982,-0.0956,0.6537,-0.6432,231.5781
13:24:29:376,-1.6591,1.4539,12.5864,42.0704,0.0927,0.5869,-0.4035,232.5312
13:24:29:395,-1.513,1.3366,12.037,43.2645,0.143,0.3506,-0.1519,233.4531
13:24:29:413,-0.96,1.2863,12.5709,41.8104,0.208,0.1466,0.0125,234.1406
13:24:29:432,-0.2728,1.1319,12.9073,43.7311,0.2498,0.1432,0.0934,234.5312
13:24:29:453,-0.0538,1.1175,12.6666,42.2827,0.1438,0.2308,0.127,234.6719
13:24:29:477,0.0456,1.2085,12.5649,43.688,-0.119,0.0739,0.1051,234.5938
13:24:29:493,-0.2225,0.9008,14.649,42.8467,-0.2264,-0.1604,0.1011,234.4531
13:24:29:512,-1.0031,-0.0245,17.3521,45.0468,0.1188,0.0329,0.2537,234.2969
13:24:29:533,-1.4556,-1.0912,16.7152,44.3249,0.6458,0.5187,0.5896,234.2031
13:24:29:552,-1.3011,-1.2085,12.6259,43.4118,0.8522,0.6463,0.9451,234.0312
13:24:29:577,-0.5601,-0.8481,9.1783,43.4812,0.7108,0.2753,1.1304,233.5625
13:24:29:593,0.0265,-0.3478,8.0434,42.4657,0.4506,-0.2132,1.156,232.6094
13:24:29:612,0.2467,-0.094,8.8515,43.6567,0.3278,-0.4068,1.1475,231.3281
13:24:29:632,0.2755,0.1658,9.4393,44.9247,0.3617,-0.2736,1.1645,230.0625
13:24:29:652,0.5592,0.2221,8.7832,43.4458,0.4104,-0.1239,1.1659,228.7812
13:24:29:679,0.6645,0.3442,7.8423,43.8588,0.4269,-0.0784,1.1552,227.5
13:24:29:696,0.5747,0.5094,7.5454,47.9707,0.4908,-0.0206,1.1656,226.25
13:24:29:714,0.7232,0.6315,6.2993,45.1661,0.5675,0.0484,1.1773,224.9219
13:24:29:774,0.9446,0.8553,5.9784,45.3255,0.5878,0.0643,1.1672,223.5781
13:24:29:774,1.2822,1.09,6.3495,46.8734,0.5731,0.03,1.1233,222.2188
13:24:29:775,1.548,1.3414,6.6859,46.0507,0.608,-0.048,1.0386,220.9219
13:24:29:792,1.5384,1.6562,7.1324,44.6215,0.6631,-0.1413,0.9012,219.5625
13:24:29:811,1.8137,2.2416,8.4421,46.7656,0.6533,-0.219,0.7355,218.2969
13:24:29:831,2.0603,2.5684,9.4345,44.2225,0.6235,-0.1346,0.5171,217.2188
13:24:29:852,1.6904,2.5349,8.9305,44.4023,0.6136,0.3413,0.2143,216.2812
13:24:29:877,1.3445,2.4032,8.3619,48.2841,0.4578,0.8063,-0.0451,215.5469
13:24:29:893,1.0272,2.2787,8.9401,45.967,0.168,0.9757,-0.2192,215.0938
13:24:29:911,0.7016,1.6466,10.3586,47.1595,-0.0352,0.7658,-0.33,214.875
13:24:29:933,0.5436,0.9128,11.9232,46.7654,-0.0234,0.336,-0.3295,214.8438
13:24:29:951,1.5635,0.4842,11.758,45.9876,0.1547,0.1384,-0.1346,214.9844
13:24:29:977,3.1796,1.072,10.2174,46.3831,0.2586,0.2039,0.0519,215.2656
13:24:29:995,4.8137,1.5664,9.2262,46.9831,0.09,0.1826,-0.0459,215.5156
13:24:30:013,5.0998,1.1235,10.1707,46.8517,-0.3084,-0.072,-0.5769,215.5156
13:24:30:032,3.4909,-0.2149,12.1423,46.6553,-0.7369,-0.2374,-1.2544,215.4062
13:24:30:053,0.8908,-1.0241,12.3458,46.2315,-0.8964,0.1131,-1.6379,216.1406
13:24:30:077,-0.0154,-0.7931,10.2437,47.2211,-0.7595,0.6324,-1.4813,217.6406
13:24:30:094,0.5616,0.0629,7.7047,48.2401,-0.5505,0.6516,-1.0912,219.4062
13:24:30:119,0.8477,1.0157,6.8068,47.453,-0.5204,0.0263,-0.8818,221.5938
13:24:30:142,0.795,1.5664,7.9046,47.341,-0.7446,-0.9967,-0.8917,223.0625
13:24:30:155,0.6813,1.6322,8.63,48.2622,-0.7268,-0.8345,-0.9391,224.1406
13:24:30:177,-0.1088,1.412,8.7569,48.2622,-0.6621,-0.4363,-0.8842,225.2969
13:24:30:196,-1.0905,1.412,8.2924,46.9958,-0.5449,-0.1279,-0.6962,226.4688
13:24:30:214,-1.6567,1.5832,7.6939,48.698,-0.371,-0.1114,-0.424,226.9844
13:24:30:234,-1.5693,1.7663,7.3312,46.9372,-0.1505,-0.2723,-0.1551,227.9375
13:24:30:255,-1.0414,2.2464,7.0127,48.748,0.0477,-0.4712,-0.0054,228.5938
13:24:30:279,-0.5266,2.7934,6.6344,48.5506,0.1449,-0.7106,-0.019,228.9375
13:24:30:295,-0.3662,3.2029,6.8751,48.2967,0.1033,-0.8646,-0.121,229.0312
13:24:30:314,-0.1519,3.3812,8.6492,49.1521,0.0778,-0.8046,-0.2595,229.1562
13:24:30:347,0.2599,3.6194,11.0398,49.1298,0.2477,-0.5354,-0.464,229.375
13:24:30:353,-0.0358,3.6218,12.2489,48.279,0.489,-0.105,-0.6837,229.75
13:24:30:377,-1.3526,3.1274,11.4432,48.5778,0.538,0.3861,-0.6922,230.3438
13:24:30:395,-2.1176,2.6115,10.4724,48.6784,0.3941,0.7642,-0.4976,231.1094
13:24:30:412,-2.1607,2.3924,10.3323,47.8386,0.2365,0.8076,-0.235,231.1094
13:24:30:433,-1.7764,2.3493,11.035,49.2842,0.1736,0.6311,0.0013,231.7969
13:24:30:452,-0.9516,2.4499,12.0011,49.7189,0.1665,0.4478,0.1086,232.25
13:24:30:477,-0.2668,2.4319,12.7636,49.2321,0.1129,0.3227,0.0785,232.4219
13:24:30:497,-0.3483,2.4211,13.3035,48.5242,-0.082,0.0992,-0.0091,232.1406
13:24:30:512,-1.0725,1.9938,15.1686,47.6966,-0.3105,-0.1231,-0.0096,232.1406
13:24:30:538,-2.2253,0.8122,18.7623,50.0541,-0.1089,0.1735,0.2231,232
13:24:30:550,-2.7999,-0.6279,19.799,49.7057,0.5491,0.81,0.6996,232
13:24:30:571,-2.3833,-1.175,15.3613,48.8499,1.0067,1.0327,1.2311,231.75
13:24:30:594,-1.3933,-0.4004,10.6208,48.557,0.9785,0.662,1.5326,230.8438
13:24:30:611,-0.1387,0.6806,8.5043,47.5171,0.6104,0.348,1.4977,230.125
13:24:30:631,0.5652,1.3426,8.6348,49.3306,0.0903,0.6444,1.2585,228.4688
13:24:30:651,0.5963,1.4335,9.1555,48.8382,-0.3422,1.3429,1.0173,226.625
13:24:30:677,0.4909,1.2037,9.0346,49.0031,-0.4754,1.8828,0.8647,224.9688
13:24:30:697,0.2108,1.1211,7.901,49.2599,-0.3047,1.9504,0.8205,223.5625
13:24:30:711,-0.1806,1.1702,6.2765,48.3904,0.0059,1.5312,0.8743,222.875
13:24:30:732,-0.2668,1.1319,4.7622,47.5906,0.2711,0.9022,0.9563,221.5469
13:24:30:752,-0.1292,1.1307,3.826,47.3115,0.3907,0.3046,1.0165,220.2656
13:24:30:777,0.1773,1.1127,3.6513,47.1629,0.4069,-0.1093,1.0367,219.0781
13:24:30:795,0.5544,1.1606,3.9769,48.431,0.3595,-0.3309,0.9898,217.8594
13:24:30:812,0.9398,1.3521,4.3432,46.8636,0.2583,-0.4638,0.8625,216.6719
13:24:30:831,1.0272,1.5221,5.0483,48.7132,0.1313,-0.5538,0.6868,215.5938
13:24:30:852,1.0308,1.5377,6.1221,46.1302,0.0538,-0.57,0.511,214.5469
13:24:30:878,0.8943,1.4144,7.1851,47.5457,0.0181,-0.5245,0.3629,213.0312
13:24:30:896,0.6346,1.3713,7.877,46.3039,-0.0218,-0.4587,0.2465,212.7812
13:24:30:913,0.7699,1.3617,8.1212,47.0616,-0.1603,-0.5029,0.079,212.3906
13:24:30:937,0.7962,1.1103,8.7916,45.64,-0.4099,-0.5711,-0.1103,212.1406
13:24:30:951,0.6573,0.228,10.1108,46.8902,-0.6634,-0.5367,-0.2102,212.0312
13:24:30:971,0.7926,-0.6267,11.9113,48.5173,-0.7774,-0.4686,-0.1303,212.1562
13:24:30:993,2.3811,-0.981,13.8757,47.1299,-0.5465,-0.7162,-0.0214,212.4531
13:24:31:012,3.9936,-0.6422,14.6251,46.1517,-0.0085,-1.4941,-0.1431,212.75
13:24:31:031,3.5387,0.0377,13.0832,44.9489,0.1595,-2.369,-0.4467,212.8906
13:24:31:053,2.1513,0.1179,12.5445,46.4619,-0.3822,-2.1826,-0.6882,213.1094
13:24:31:078,0.892,-0.4699,14.4168,45.559,-0.9904,-0.6758,-0.7396,213.7812
13:24:31:096,0.1581,-0.5297,14.5652,45.6021,-1.1068,0.813,-0.6227,214.8281
13:24:31:111,0.6322,0.9691,8.1548,46.1585,-1.0211,1.1898,-0.4166,215.9688
13:24:31:133,0.7639,1.8489,7.148,44.895,-1.0277,0.5861,-0.3215,216.7969
13:24:31:153,0.2778,2.1099,7.5371,44.5408,-1.0261,-0.3002,-0.3737,217.25
13:24:31:179,0.0695,1.7328,7.6903,44.843,-0.9401,-0.8672,-0.4299,217.5469
13:24:31:196,-0.2034,1.4359,7.9513,45.4668,-0.8748,-0.9711,-0.4419,217.9531
13:24:31:215,-0.1986,1.497,8.077,45.2777,-0.8083,-0.7538,-0.3977,218.5156
13:24:31:234,0.0935,1.7795,8.0027,44.3221,-0.6951,-0.4776,-0.3692,219.1094
13:24:31:251,0.0516,1.9423,8.0015,44.4639,-0.5886,-0.1599,-0.4443,219.7188
13:24:31:271,-0.3339,1.9243,7.2689,45.0728,-0.4535,0.1866,-0.5508,220.2344
13:24:31:296,-1.0222,2.0141,6.1784,43.2448,-0.3433,0.4707,-0.5979,220.7188
13:24:31:312,-1.13,2.2404,5.7761,43.2677,-0.3324,0.5173,-0.5298,221.3281
13:24:31:331,-0.8115,2.3194,6.5961,44.1793,-0.3862,0.2473,-0.44,222
13:24:31:354,-0.365,2.1422,8.3499,44.044,-0.4565,-0.1042,-0.4041,222.6406
13:24:31:379,-0.2824,1.8525,10.4783,43.1432,-0.5182,-0.2358,-0.4153,223.1562
13:24:31:397,-0.7541,1.3593,12.5649,43.9669,-0.5089,-0.0454,-0.4371,223.6406
13:24:31:412,-1.1048,0.9547,12.7097,43.881,-0.3063,0.3512,-0.3553,224.1406
13:24:31:431,-1.2042,0.7332,11.8335,42.0385,-0.0722,0.6265,-0.1678,224.6406
13:24:31:452,-0.9863,0.5728,11.8071,43.578,0.0253,0.5765,0.054,225.125
13:24:31:472,-0.5374,0.489,12.517,43.1642,0.0562,0.3536,0.2436,225.4219
13:24:31:496,-0.1555,0.2939,12.8749,44.4534,0.1318,0.1395,0.36,225.3906
13:24:31:513,0.1174,0.2915,13.0413,44.1452,0.1928,-0.08,0.4079,225.1094
13:24:31:532,0.4215,0.2903,14.0888,44.5294,0.1183,-0.3492,0.3952,224.6875
13:24:31:551,0.3353,-0.3585,16.8421,43.5919,-0.0772,-0.6558,0.2945,224.2344
13:24:31:572,-0.1998,-1.2707,19.7331,44.4293,-0.1332,-0.5961,0.2308,223.7969
13:24:31:594,-0.4883,-2.2021,18.2104,44.634,0.2645,0.0838,0.3408,223.5
13:24:31:612,-0.4285,-2.135,13.033,44.4654,0.8107,0.9062,0.5965,223.25
13:24:31:631,-0.3135,-1.5449,9.6212,42.7524,0.9521,1.0313,0.8423,222.8594
13:24:31:652,-0.7349,-1.0169,9.0706,42.0891,0.7803,0.5232,0.9597,222.1094
13:24:31:676,-1.0438,-0.9894,10.0761,43.7043,0.6261,-0.0606,1.041,221.0625
13:24:31:693,-0.948,-0.9176,10.0378,43.8235,0.6988,-0.3325,1.1739,219.9844
13:24:31:713,-0.5709,-0.6446,9.0191,43.106,0.8488,-0.3114,1.3291,218.7812
13:24:31:731,0.0289,-0.3154,7.8543,42.6188,0.939,-0.243,1.4572,218.1406
13:24:31:752,0.2252,0.082,6.7925,44.8389,1,-0.1964,1.4929,216.7188
13:24:31:778,0.7052,0.3083,5.9282,44.9073,1.041,-0.1682,1.5017,215.1875
13:24:31:826,1.1278,0.5178,5.2961,43.8976,1.0448,-0.1772,1.4623,212.6094
13:24:31:826,1.4055,0.6434,5.0088,44.4105,0.902,-0.2342,1.2753,210.875
13:24:31:836,1.5707,0.7272,5.1884,43.7652,0.771,-0.1908,1.1451,210.875
13:24:31:850,1.5097,0.7572,5.7175,44.7018,0.6344,-0.0574,0.9981,207.6406
13:24:31:871,1.2858,0.8625,6.2107,45.8223,0.466,0.164,0.8599,206.1719
13:24:31:896,1.2547,0.9319,6.662,43.4113,0.2613,0.4263,0.7283,204.9062
13:24:31:913,1.3205,1.0995,7.2522,43.7485,0.1012,0.573,0.5861,203.7188
13:24:31:930,1.4462,1.3234,7.8351,46.0756,0.0322,0.5022,0.4149,202.6719
13:24:31:950,1.8939,1.3821,7.9872,43.748,-0.0751,0.2428,0.1882,201.7969
13:24:31:971,2.3357,1.1618,8.3774,44.4187,-0.3561,0.0201,-0.0994,201.0156
13:24:31:996,2.2662,0.4064,9.8894,45.5781,-0.6839,0.1142,-0.2981,200.4688
13:24:32:012,1.7766,-0.2855,11.6479,46.1854,-0.8205,0.422,-0.3045,200.2031
13:24:32:030,1.7539,-0.7596,12.274,46.4093,-0.775,0.6052,-0.1537,200.3438
13:24:32:050,2.5344,-0.4112,11.4887,47.6425,-0.747,0.4574,-0.0714,201.0312
13:24:32:071,3.7806,0.1048,10.9715,47.4292,-0.8,-0.0099,-0.3135,201.125
13:24:32:094,3.5555,-0.0413,11.8023,47.01,-0.824,-0.3921,-0.6805,201.1719
13:24:32:112,1.9981,-0.902,12.9132,46.7881,-0.7643,-0.3016,-0.8185,201.3438
13:24:32:137,0.2455,-1.5125,12.9911,47.6955,-0.6283,0.0337,-0.6382,201.9844
13:24:32:150,-0.3255,-1.3545,11.8969,48.5253,-0.449,0.1458,-0.3087,202.9062
13:24:32:172,0.6322,-0.5932,10.1491,47.1453,-0.3633,-0.1048,-0.1495,203.8281
13:24:32:193,1.6653,0.4663,9.4668,46.3398,-0.3891,-0.4281,-0.2842,204.375
13:24:32:212,1.8173,1.0576,9.8223,48.9774,-0.4163,-0.402,-0.5575,204.5156
13:24:32:230,1.1254,1.1343,9.7242,48.9774,-0.412,-0.0717,-0.7535,204.7031
13:24:32:252,0.2599,0.9559,8.8251,48.4408,-0.3958,0.3381,-0.7852,205.0781
13:24:32:272,-0.3135,1.0983,7.5359,46.2832,-0.3806,0.5893,-0.7066,205.7656
13:24:32:295,-0.5625,1.4204,6.6728,48.6039,-0.3241,0.5672,-0.5937,206.6094
13:24:32:312,-0.4476,1.6454,6.5698,48.285,-0.171,0.4036,-0.481,207.5
13:24:32:331,-0.1519,1.8872,6.5566,48.0181,-0.0005,0.2196,-0.407,208.2812
13:24:32:350,0.0588,2.2308,6.4788,48.3199,0.0967,0.0979,-0.3932,209.1875
13:24:32:373,0.1737,2.4331,6.5662,48.4666,0.0692,0.0297,-0.4483,209.6719
13:24:32:395,0.0312,2.3721,7.3671,49.9645,-0.0101,0.0676,-0.5154,210.1094
13:24:32:412,-0.2537,2.0848,8.5402,49.6458,-0.09,0.1964,-0.5367,210.5469
13:24:32:437,-0.6942,1.7256,9.7984,50.3794,-0.1095,0.3341,-0.4904,211.1094
13:24:32:450,-1.2054,1.4814,10.9165,48.8387,-0.0245,0.418,-0.3647,211.7031
13:24:32:471,-1.4604,1.23,11.4911,50.6155,0.1116,0.4763,-0.1745,212.2812
13:24:32:495,-1.4196,1.163,11.2457,50.342,0.1888,0.4215,0.0141,212.7344
13:24:32:512,-0.9097,1.0816,11.6623,51.4622,0.1878,0.2534,0.1451,213.0312
13:24:32:531,-0.705,0.9846,12.0286,51.7167,0.1989,0.1104,0.2433,213.0781
13:24:32:554,-0.377,1.1522,11.7892,51.9213,0.2096,0.0787,0.3158,212.9688
13:24:32:577,-0.2118,1.5149,11.6707,52.928,0.114,0.0841,0.2868,212.7344
13:24:32:595,-0.3375,1.5149,12.3422,52.5759,-0.11,0.0398,0.1461,212.4062
13:24:32:612,-1.5011,0.6542,14.8956,54.0419,-0.4117,-0.2235,-0.0672,212.0469
13:24:32:638,-3.4703,-0.6351,17.4311,51.4368,-0.4828,-0.3314,-0.1244,211.7812
13:24:32:649,-3.9443,-1.5604,16.4112,53.3222,-0.0935,0.0055,0.2151,211.8125
13:24:32:673,-2.9902,-1.2169,12.1303,54.9358,0.4807,0.4431,0.8117,211.9219
13:24:32:695,-1.4436,-0.5632,9.1364,54.1847,0.7231,0.3799,1.2937,211.7188
13:24:32:712,-0.5506,-0.167,8.4816,51.7942,0.6669,-0.1447,1.445,210.7656
13:24:32:731,-0.2585,-0.0102,9.0478,55.3201,0.5302,-0.5756,1.4175,210.0625
13:24:32:751,-0.2393,0.2089,9.0346,52.1139,0.4754,-0.6571,1.3621,208.5312
13:24:32:770,0.2216,0.3238,8.2661,54.2274,0.4887,-0.5045,1.3313,206.9219
13:24:32:794,0.4574,0.5142,7.6292,52.8086,0.4618,-0.2912,1.2889,205.3906
13:24:32:813,0.4371,0.6865,7.4485,52.271,0.4405,-0.125,1.2181,203.9062
13:24:32:830,0.4909,0.7296,7.0379,53.1936,0.5089,-0.0544,1.1731,202.5
13:24:32:851,0.4694,0.7727,6.4274,53.3574,0.6229,-0.0443,1.1281,201.0781
13:24:32:870,0.5915,0.8506,5.9916,53.3636,0.661,-0.0464,1.0862,199.7031
13:24:32:894,0.8153,1.0397,5.8192,52.2397,0.6227,-0.0355,1.0364,198.4375
13:24:32:911,1.1541,1.2719,6.1029,53.8614,0.5364,-0.0528,0.9528,197.1562
13:24:32:930,1.5037,1.4252,6.6799,53.2646,0.4522,-0.1199,0.8149,195.9219
13:24:32:951,1.542,1.4443,7.2653,53.4498,0.4024,-0.2001,0.6245,194.2656
13:24:32:970,1.4462,1.309,7.8196,53.4326,0.3441,-0.244,0.4109,193.3281
13:24:32:996,1.3959,1.0014,8.1608,52.8682,0.2149,-0.157,0.2188,192.625
13:24:33:016,1.3708,0.7368,9.0394,52.1934,-0.0112,-0.0129,0.0713,192.2031
13:24:33:033,1.433,0.489,10.1671,52.6674,-0.2205,0.0369,-0.0299,191.9531
13:24:33:054,1.269,0.2664,11.2565,52.2017,-0.3239,-0.0411,-0.1061,191.875
13:24:33:069,1.3995,0.0102,12.3183,52.3855,-0.3438,-0.1455,-0.1239,191.9219
13:24:33:092,2.0148,0.009,11.4432,53.2922,-0.2557,-0.0656,-0.0563,192.0625
13:24:33:112,2.605,0.6889,10.379,50.8922,-0.236,0.0265,-0.0158,192.25
13:24:33:138,3.334,1.0241,10.379,53.3765,-0.3566,-0.0936,-0.126,192.3281
13:24:33:151,3.0396,0.6087,11.4516,51.092,-0.5161,-0.3274,-0.4632,192.3594
13:24:33:171,2.0376,-0.2783,12.6618,51.2526,-0.6328,-0.4092,-0.8206,192.5469
13:24:33:199,0.643,-0.7943,12.8833,52.2343,-0.6423,-0.1849,-0.99,193.1406
13:24:33:212,0.1342,-0.8529,12.2058,52.6991,-0.4213,0.2817,-0.6834,193.625
13:24:33:231,0.5616,-0.5896,10.6352,51.7373,-0.3177,0.1959,-0.5255,193.625
13:24:33:251,0.8129,0.0473,9.3531,51.1097,-0.2802,-0.0275,-0.496,195.3125
13:24:33:270,0.807,0.3358,8.5319,52.031,-0.3105,-0.154,-0.525,196.375
13:24:33:296,0.394,0.5118,7.9956,52.0207,-0.3651,-0.104,-0.5109,197.7188
13:24:33:314,-0.0813,0.7524,7.5071,52.3027,-0.3955,-0.018,-0.4163,198.3125
13:24:33:331,-0.286,1.0086,7.0774,52.1968,-0.384,0.0532,-0.2861,198.9375
13:24:33:350,-0.2704,1.3797,6.9158,50.6529,-0.31,0.0617,-0.1644,200.0312
13:24:33:373,-0.0286,1.728,6.753,51.5772,-0.1992,0.0513,-0.0909,200.0312
13:24:33:389,0.2264,2.1889,6.6033,50.8131,-0.1286,0.0353,-0.0829,200.3594
13:24:33:410,0.4538,2.6079,6.6357,51.2888,-0.0972,-0.0105,-0.1521,200.5625
13:24:33:429,0.3868,2.7719,6.99,50.892,-0.0991,-0.0342,-0.2387,200.6719
13:24:33:450,0.2,2.8258,7.6304,50.1297,-0.1161,-0.0275,-0.2816,200.7656
13:24:33:474,0.2503,2.7923,8.5007,50.6414,-0.1105,0.022,-0.2962,200.9375
13:24:33:497,0.3221,2.8246,9.2872,49.6472,-0.1017,0.0774,-0.3151,201.2188
13:24:33:513,0.3784,2.8449,10.0773,48.2363,-0.098,0.1757,-0.3617,201.7188
13:24:33:530,0.3305,2.6845,10.7477,49.5259,-0.0991,0.3035,-0.411,202.0625
13:24:33:551,-0.0023,2.3254,11.3067,47.8807,-0.0879,0.3365,-0.4043,202.4219
13:24:33:571,-0.2692,1.8154,12.1579,47.4696,-0.0333,0.2886,-0.3231,202.8438
13:24:33:595,-0.371,1.418,12.7696,49.4889,0.0509,0.3054,-0.2171,203.3125
13:24:33:612,-0.2836,1.2492,12.6176,48.0537,0.0847,0.3757,-0.1407,203.6875
13:24:33:630,-0.2824,1.2432,11.8502,46.9928,-0.0075,0.345,-0.1189,203.9844
13:24:33:651,-0.5362,1.479,11.4755,46.6445,-0.2029,0.0135,-0.1303,204.1406
13:24:33:671,-0.7277,1.3773,12.9073,47.2384,-0.4067,-0.5098,-0.1758,204.25
13:24:33:694,-1.6758,0.4387,16.2364,44.0827,-0.3217,-0.5229,-0.0765,204.3125
13:24:33:712,-2.5964,-0.8194,18.5025,45.3402,0.163,0.0923,0.2817,204.4688
13:24:33:730,-2.4563,-1.3689,15.8354,46.1525,0.6037,0.5541,0.7315,204.7031
13:24:33:750,-1.4304,-0.9296,11.3869,44.1552,0.6381,0.3253,1.0226,204.8438
13:24:33:771,-0.1112,-0.6207,9.4848,46.3143,0.5233,-0.1727,1.0902,204.5
13:24:33:796,0.5244,-0.3466,9.4872,44.6154,0.4759,-0.4007,1.0817,203.6094
13:24:33:813,0.5747,0.009,9.4273,42.055,0.5265,-0.3532,1.0788,201.8281
13:24:33:831,0.7172,0.2364,8.4038,44.5832,0.5744,-0.2784,1.0767,200.6094
13:24:33:888,0.7806,0.501,7.1181,43.5028,0.5558,-0.2662,1.0639,199.3906
13:24:33:889,0.8141,0.7045,6.2813,42.1568,0.5143,-0.2821,1.0508,198.1562
13:24:33:900,0.9255,0.8146,5.9784,40.691,0.5081,-0.3288,1.0167,197
13:24:33:913,1.1266,0.8913,5.9461,40.8892,0.5454,-0.3391,0.9459,195.7812
13:24:33:931,1.0248,0.7608,6.079,42.5191,0.5563,-0.3263,0.8548,194.6094
13:24:33:950,0.9386,0.7524,6.3364,41.401,0.5444,-0.2992,0.7856,193.5469
13:24:33:970,1.0093,0.847,6.6141,43.1677,0.5262,-0.2779,0.7326,192.5
13:24:33:996,1.2535,1.0134,7.2725,39.905,0.4634,-0.2614,0.6596,191.5781
13:24:34:013,1.6102,1.1965,7.7035,41.1149,0.3952,-0.1849,0.5459,190.75
13:24:34:038,1.9622,1.1474,7.7035,41.3809,0.3052,-0.0923,0.356,189.9375
13:24:34:048,1.9957,0.8039,8.3595,37.9713,0.1052,-0.0715,0.1017,189.2344
13:24:34:069,1.864,0.2831,10.203,38.3416,-0.1792,-0.1045,-0.134,188.7031
13:24:34:090,1.6557,-0.4519,11.7353,38.4211,-0.3593,-0.0227,-0.2794,188.4219
13:24:34:113,1.7048,-0.8637,12.0597,38.9808,-0.3894,0.2148,-0.2904,188.6094
13:24:34:131,2.3057,-0.9643,10.9045,37.6875,-0.3665,0.5411,-0.1447,188.9531
13:24:34:149,3.5112,-0.6446,9.6404,37.1601,-0.3912,0.6082,0.0138,189.125
13:24:34:174,4.5754,-0.2903,9.0155,37.7275,-0.5204,0.2745,-0.007,189.375
13:24:34:195,4.3504,-0.4627,10.8111,36.8608,-0.8107,-0.3969,-0.3207,189.3906
13:24:34:213,2.8085,-1.5568,13.9727,38.3848,-1.1326,-0.8976,-0.7295,189.3125
13:24:34:229,0.7974,-2.214,15.5588,37.5672,-1.2429,-0.4725,-0.8909,189.5156
13:24:34:250,0.7806,-1.7172,13.1431,38.2947,-0.9886,0.4436,-0.5924,190.2969
13:24:34:270,2.3297,-0.7213,9.7661,36.5661,-0.6056,0.7099,-0.1423,191.4688
13:24:34:295,3.2143,0.4771,8.739,36.5661,-0.4274,0.1099,0.0298,192.4219
13:24:34:311,2.9893,1.3809,9.6535,36.205,-0.432,-0.6547,-0.1236,192.8281
13:24:34:329,2.6816,1.3952,10.1659,35.6758,-0.4277,-0.8358,-0.3798,192.8594
13:24:34:350,1.9849,1.157,9.8463,36.4572,-0.3547,-0.5264,-0.5902,193.0625
13:24:34:371,1.1577,1.3114,8.3918,35.3912,-0.261,0.0819,-0.6747,193.5938
13:24:34:396,0.9111,1.6562,6.8296,35.781,-0.1992,0.5932,-0.632,194.3281
13:24:34:413,0.8393,1.9567,5.988,36.3965,-0.183,0.7576,-0.6003,195.0781
13:24:34:430,0.9123,2.2643,5.818,35.78,-0.1694,0.6995,-0.5908,195.7969
13:24:34:449,1.1158,2.5684,6.2274,36.0031,-0.146,0.5259,-0.6139,196.4531
13:24:34:469,1.202,2.6246,7.3084,35.2104,-0.1297,0.32,-0.7071,197.0781
13:24:34:490,1.0404,2.5085,8.4983,36.6333,-0.1041,0.2348,-0.8307,197.7656
13:24:34:513,0.5568,2.2619,9.2645,36.2403,-0.0655,0.3416,-0.9407,198.5625
13:24:34:531,-0.1759,1.9794,10.2317,36.7955,-0.0522,0.5285,-0.9796,199.5
13:24:34:555,-0.7122,1.7651,10.9787,35.3124,-0.0035,0.7075,-0.9122,200.5156
13:24:34:569,-0.9073,1.6406,11.1894,36.6573,0.1172,0.8079,-0.7564,201.625
13:24:34:591,-0.7445,1.5066,10.6806,35.3939,0.2855,0.7751,-0.5506,202.1406
13:24:34:615,-0.4225,1.6071,10.6866,32.8091,0.3827,0.5288,-0.3412,203.0625
13:24:34:633,0.2,1.7089,11.8095,34.1177,0.3281,-0.0347,-0.0906,203.9844
13:24:34:651,0.5795,1.5149,13.1036,35.3457,0.3422,-0.0723,-0.0983,204.3438
13:24:34:670,0.3161,1.2743,13.6147,34.6201,0.3526,-0.0073,-0.0994,204.3438
13:24:34:698,0.0276,1.2312,13.2125,33.8954,0.2637,-0.0576,-0.1007,204.6094
13:24:34:717,-0.4488,1.1462,13.4998,34.5115,0.1127,-0.2254,-0.0997,204.7344
13:24:34:732,-0.9839,0.6279,15.3446,33.5369,0.2115,-0.1303,-0.0091,204.8438
13:24:34:749,-1.4424,-0.3107,15.4691,33.6699,0.5039,0.2148,0.2186,204.9531
13:24:34:769,-1.4232,-0.8206,12.8869,34.4949,0.6828,0.3597,0.5254,205.0781
13:24:34:789,-0.8462,-0.6159,10.0785,34.4348,0.6248,0.0127,0.7227,205.1094
13:24:34:813,-0.4273,-0.2723,9.3722,34.6751,0.5127,-0.4289,0.7994,204.8438
13:24:34:830,-0.2692,0.0377,9.8642,34.9088,0.5132,-0.5349,0.8284,204.2031
13:24:34:849,-0.0957,0.1862,9.3243,34.0114,0.5212,-0.4012,0.8431,203.375
13:24:34:869,0.2611,0.1323,8.4792,33.8627,0.5148,-0.2342,0.8428,202.5
13:24:34:892,0.1665,0.1754,7.6664,34.0831,0.5324,-0.1223,0.8793,201.1875
13:24:34:917,0.0444,0.337,6.8427,34.4032,0.5475,-0.0677,0.9464,200.2344
13:24:34:934,0.2491,0.4651,6.1915,34.2284,0.5172,0.001,0.9675,199.3125
13:24:34:950,0.528,0.6411,5.6804,34.6555,0.4266,0.0614,0.931,198.2656
13:24:34:970,0.7124,0.7452,5.5475,34.5585,0.3185,0.1043,0.8572,197.1406
13:24:34:989,0.5879,0.8206,5.7713,35.0954,0.225,0.1474,0.8117,196.0156
13:24:35:014,0.625,1.0217,6.1424,34.9145,0.18,0.1512,0.7986,195.0156
13:24:35:032,0.9638,1.4431,6.6488,35.6422,0.1899,0.116,0.7198,194.0312
13:24:35:050,1.3768,1.9926,7.1971,35.0351,0.2085,0.087,0.532,193.5469
13:24:35:072,1.3672,2.4176,7.3683,34.1337,0.1529,0.1038,0.2649,192.6094
13:24:35:096,1.0512,2.4786,7.6795,34.9328,0.017,0.1794,0.017,191.7969
13:24:35:114,0.7064,2.2224,7.9249,34.702,-0.1622,0.1951,-0.1686,191.1719
13:24:35:131,0.3437,1.6993,8.5678,34.2283,-0.3468,0.0646,-0.2486,190.8438
13:24:35:149,0.2216,1.0301,10.0641,33.2307,-0.4509,-0.0699,-0.211,190.7969
13:24:35:170,0.3808,0.519,11.7042,34.8842,-0.4211,-0.0853,-0.0752,191.0938
13:24:35:195,1.269,0.1873,12.183,34.4838,-0.3561,-0.0419,0.066,191.4062
13:24:35:212,2.4266,0.349,11.4288,34.4515,-0.4093,-0.0646,0.05,191.5938
13:24:35:229,3.5447,0.6411,10.6004,35.7702,-0.6059,-0.3546,-0.2363,191.6094
13:24:35:249,3.6944,0.4064,11.3103,33.3185,-0.9034,-0.6497,-0.6643,191.5469
13:24:35:269,2.3225,-0.5022,13.6662,35.0726,-1.052,-0.2917,-0.8912,191.6406
13:24:35:290,0.5747,-1.248,14.6299,35.3692,-0.9521,0.5312,-0.7308,192.2656
13:24:35:313,-0.2501,-1.2157,12.7133,35.3539,-0.7292,1.014,-0.3495,193.3281
13:24:35:330,1.518,0.1227,8.1033,35.0746,-0.6197,0.7355,-0.0589,194.3594
13:24:35:359,1.9969,0.7799,8.7641,34.791,-0.5784,-0.0725,0.0098,194.9062
13:24:35:368,1.8508,0.9631,9.1424,33.8497,-0.4591,-0.6326,-0.0885,195.0469
13:24:35:391,1.3109,0.7177,9.3028,34.1873,-0.3683,-0.6654,-0.2507,195.0312
13:24:35:413,0.4478,0.7859,8.6971,35.1922,-0.3175,-0.2723,-0.3391,195.1094
13:24:35:431,0.0253,0.9798,7.664,32.437,-0.2413,0.1608,-0.3247,195.3594
13:24:35:450,0.0169,1.1378,6.7578,34.3286,-0.1494,0.34,-0.26,195.7656
13:24:35:468,0.1976,1.3581,6.1293,33.8811,-0.0525,0.3166,-0.1993,196.3281
13:24:35:489,0.2886,1.6287,5.6385,34.27,0.041,0.1741,-0.1822,196.4844
13:24:35:512,0.394,1.8465,5.7127,33.341,0.0807,-0.0736,-0.2059,196.8281
13:24:35:530,0.6286,1.9016,6.5554,35.2713,0.0389,-0.3013,-0.2643,196.9219
13:24:35:555,0.9327,2.0584,8.2063,35.0465,-0.0455,-0.4276,-0.3385,197.125
13:24:35:568,0.9255,2.1314,9.4943,33.7052,-0.0807,-0.3871,-0.4589,197.3906
13:24:35:590,0.5556,1.837,10.3107,33.0217,-0.0938,-0.2166,-0.6001,197.7656
13:24:35:612,0.1737,1.5125,11.0661,35.4203,-0.1547,0.0425,-0.6712,198.2188
13:24:35:631,-0.1783,1.3964,11.3067,34.873,-0.1997,0.3333,-0.6499,198.8438
13:24:35:649,-0.5673,1.4072,11.5713,34.2115,-0.2149,0.4614,-0.5889,199.5938
13:24:35:669,-0.675,1.2001,12.4811,35.0004,-0.2221,0.3738,-0.4893,200.3281
13:24:35:697,-0.3566,0.7967,13.0545,33.5494,-0.1659,0.2026,-0.3657,201.0156
13:24:35:713,-0.0693,0.6411,13.0186,34.7406,-0.1079,0.1299,-0.2461,201.625
13:24:35:731,0.1737,0.8146,13.5645,35.659,-0.1539,0.0359,-0.1668,202.2812
13:24:35:748,0.1246,0.7057,15.1183,35.9303,-0.2543,-0.1301,-0.1673,202.5625
13:24:35:768,-0.4452,0.1873,16.3681,35.7527,-0.2274,-0.2457,-0.2006,202.75
13:24:35:789,-1.191,-0.5022,15.9814,34.6234,-0.0101,-0.0957,-0.1607,202.9531
13:24:35:814,-1.5501,-0.829,13.6315,35.387,0.286,0.2553,0.0074,203.1875
13:24:35:829,-1.1719,-1.0672,11.6551,35.2756,0.4674,0.3581,0.2625,203.375
13:24:35:848,-0.6643,-1.054,10.8064,35.7476,0.5225,0.1094,0.4902,203.3438
13:24:35:869,-0.3135,-0.841,10.4376,34.7052,0.5638,-0.1916,0.6492,203.0312
13:24:35:889,-0.0238,-0.5309,9.6057,35.9475,0.6429,-0.2973,0.7424,202.4531
13:24:35:947,-0.0801,-0.1514,8.0973,35.8395,0.7204,-0.2108,0.7757,201.7031
13:24:35:948,0.0205,0.0509,6.8607,35.3119,0.7028,-0.1258,0.8125,200.9062
13:24:35:965,0.0923,0.3442,6.486,36.0822,0.5766,-0.1122,0.8569,200.0156
13:24:35:969,0.2431,0.6135,6.7494,36.7059,0.4733,-0.1642,0.8924,199.5469
13:24:35:991,0.449,0.6794,6.7302,37.3449,0.4919,-0.21,0.9028,198.5781
13:24:36:014,0.6286,0.7943,6.5375,37.1319,0.5995,-0.1258,0.8913,197.0938
13:24:36:030,0.8896,1.0505,6.2693,37.3365,0.6128,-0.0925,0.838,196.0625
13:24:36:054,1.1146,1.3737,6.079,36.8885,0.5888,-0.1226,0.7304,194.0312
13:24:36:069,1.354,1.6083,6.0227,37.4325,0.5036,-0.1775,0.5605,194.0312
13:24:36:090,1.4462,1.7101,6.2191,36.3624,0.3412,-0.218,0.3685,192.2031
13:24:36:113,1.4283,1.6406,7.2342,39.3957,0.2189,-0.1631,0.1768,192.2031
13:24:36:130,1.2295,1.4431,7.9393,37.0659,0.1393,-0.0209,0.0268,191.5469
13:24:36:148,1.0823,1.1438,8.0746,38.6275,-0.0093,0.0593,-0.0752,191.1562
13:24:36:168,1.1517,0.8398,8.6336,37.9462,-0.2216,0.042,-0.137,190.9531
13:24:36:188,1.4941,0.5285,9.9887,39.0907,-0.3595,-0.0504,-0.1924,190.9219
13:24:36:213,1.7934,0.1957,11.5198,39.325,-0.3803,-0.0976,-0.2272,191
13:24:36:231,2.1872,-0.2831,12.3482,38.5071,-0.3641,-0.0124,-0.2113,191.1562
13:24:36:248,2.9103,-0.4519,12.0154,38.8584,-0.4117,0.0148,-0.2406,191.4062
13:24:36:268,3.7973,-0.3478,11.6563,39.9604,-0.5278,-0.1857,-0.4677,191.6875
13:24:36:289,3.5759,-0.4902,12.45,38.4536,-0.5934,-0.3655,-0.7791,192.0938
13:24:36:313,2.4673,-1.1139,13.3681,38.8494,-0.5848,-0.0984,-0.9245,192.5
13:24:36:330,1.3457,-1.7065,12.8869,38.8864,-0.5667,0.4425,-0.8283,193.25
13:24:36:349,0.8489,-1.6718,11.0254,38.8864,-0.5228,0.6391,-0.5892,194.3438
13:24:36:373,1.1577,-1.2348,8.8934,38.5547,-0.5428,0.34,-0.4102,196.1875
13:24:36:395,1.5683,-0.7093,7.895,40.0069,-0.6658,-0.1953,-0.3471,196.1875
13:24:36:418,1.5516,-0.1502,8.9269,39.7986,-0.6938,-0.4616,-0.3689,196.7031
13:24:36:433,1.1697,0.1933,9.4919,39.9344,-0.6445,-0.3,-0.4107,197.1406
13:24:36:448,0.6765,0.4196,9.1555,39.064,-0.6149,0.0524,-0.4161,197.375
13:24:36:469,0.2802,0.6303,8.46,39.254,-0.5457,0.2327,-0.4145,197.8438
13:24:36:489,-0.2884,0.8218,7.7789,39.7427,-0.4192,0.2247,-0.3671,198.3594
13:24:36:512,-0.7038,0.8924,7.4676,38.6558,-0.2477,0.1863,-0.2632,198.875
13:24:36:528,-0.8498,1.0313,6.917,39.6439,-0.0836,0.1837,-0.1284,199.3594
13:24:36:557,-0.4811,1.4,6.0934,41.3314,-0.0506,0.1392,-0.0419,200.0781
13:24:36:567,0.0456,1.9279,5.7462,39.9093,-0.1377,0.0185,-0.0781,200.1719
13:24:36:590,0.376,2.2344,6.6081,39.1899,-0.2322,-0.1157,-0.1953,200.25
13:24:36:614,0.3724,2.1602,8.2805,39.2162,-0.2354,-0.0853,-0.2975,200.2969
13:24:36:632,0.1593,1.9878,9.802,39.0386,-0.1614,0.124,-0.3511,200.4531
13:24:36:649,-0.3985,1.6382,10.6663,39.5753,-0.0815,0.5155,-0.2941,200.7656
13:24:36:669,-0.6356,1.4144,10.4113,39.5119,-0.0639,0.8026,-0.1399,201.125
13:24:36:689,-0.383,1.4347,10.0175,39.691,-0.0706,0.7243,0.0013,201.5156
13:24:36:713,0.5101,1.0349,11.6132,39.2112,-0.0618,0.2803,0.0865,201.75
13:24:36:730,0.7735,0.6698,13.3789,38.9089,-0.0469,-0.1879,0.1216,201.7969
13:24:36:749,1.032,0.4651,14.4036,40.328,0.0117,-0.3407,0.1531,201.7188
13:24:36:769,0.8524,0.7644,14.3833,39.9344,0.061,-0.1825,0.1438,201.5938
13:24:36:789,0.4634,0.9224,14.3234,39.7858,0.0019,0.1123,0.0939,201.4531
13:24:36:815,-0.4057,0.6518,15.4056,38.6788,-0.1049,0.2327,0.0263,201.2969
13:24:36:831,-1.3119,0.1155,15.8258,37.5997,-0.0099,0.3131,0.0942,201.1562
13:24:36:849,-1.2365,-0.349,13.6147,40.2228,0.3952,0.4665,0.3573,201.0781
13:24:36:869,-0.5589,-0.325,10.8686,38.009,0.7936,0.3831,0.6718,200.9531
13:24:36:889,0.224,-0.0198,10.0342,37.94,0.9239,-0.1077,0.8777,200.5312
13:24:36:913,0.6765,0.2077,11.5773,37.978,0.8551,-0.7714,0.9158,199.7344
13:24:36:930,0.6717,-0.2041,13.1,39.0309,0.8498,-1.1985,0.8231,199.2969
13:24:36:950,0.1617,-0.7679,13.1395,36.7456,1.0107,-1.1642,0.7291,198.25
13:24:36:969,-0.2166,-0.9212,11.1739,36.1744,1.1814,-0.6712,0.7536,197.2969
13:24:36:990,0.0396,-0.3274,8.6408,37.6085,1.2195,-0.0677,0.8958,196.4688
13:24:37:013,0.4766,0.1694,6.9936,37.1573,1.1236,0.2335,0.9784,195.7031
13:24:37:027,0.8692,0.5656,5.9497,35.619,1.0256,0.2449,0.9845,194.7188
13:24:37:047,0.8608,0.6434,5.6852,37.2202,0.914,0.0388,0.9323,193.5469
13:24:37:067,0.3545,0.5297,5.5152,36.1213,0.8229,-0.1833,0.8799,192.375
13:24:37:087,0.4418,0.6387,5.7821,37.6779,0.7609,-0.3415,0.9347,191.1875
13:24:37:110,1.2044,0.8063,6.1029,35.6339,0.7649,-0.4366,1.0085,190.1094
13:24:37:132,1.8113,1.0648,6.2083,35.8017,0.8043,-0.3879,0.9643,188.5781
13:24:37:148,2.277,1.2456,5.7151,36.3958,0.8229,-0.223,0.8237,187.4219
13:24:37:169,2.6146,1.564,5.3416,35.0124,0.7683,-0.1277,0.6292,186.3125
13:24:37:192,2.7989,1.9052,5.326,32.5397,0.6072,-0.0667,0.3824,185.3281
13:24:37:216,2.5404,1.9076,5.4481,35.8054,0.3691,-0.0339,0.0889,184.5938
13:24:37:232,2.1238,1.6969,6.3747,36.1573,0.041,-0.0086,-0.1868,184.1094
13:24:37:250,1.9131,1.2216,8.211,34.6781,-0.3465,0.0446,-0.3793,183.9688
13:24:37:268,1.3504,0.7632,10.2353,34.7591,-0.6344,0.1096,-0.4933,184.1719
13:24:37:290,1.3887,0.343,11.3151,34.2238,-0.7507,0.214,-0.436,184.6406
13:24:37:314,1.9753,0.4387,10.7956,32.9074,-0.6983,0.2995,-0.2195,185.25
13:24:37:331,2.6828,1.1295,10.2293,32.5585,-0.7167,0.2497,-0.0272,185.7656
13:24:37:350,3.182,1.6825,11.2948,34.1542,-0.9095,0.0774,-0.0211,186.0156
13:24:37:369,3.0838,1.424,12.9444,33.7843,-1.0844,-0.035,-0.2437,186.0781
13:24:37:389,2.0005,0.6877,13.4352,31.6945,-1.0826,0.0657,-0.5415,186.1719
13:24:37:415,0.8465,-0.0605,12.5326,32.2633,-0.9633,0.3192,-0.6723,186.5312
13:24:37:431,0.8285,-0.3442,10.4831,34.7033,-0.7478,0.4119,-0.2403,186.8438
13:24:37:449,1.688,0.0521,9.0251,33.3594,-0.8211,-0.0243,-0.1079,188.0469
13:24:37:468,2.4709,0.7452,9.5817,33.0665,-0.824,-0.3953,-0.1838,188.5938
13:24:37:489,2.7546,1.2109,10.5119,33.1666,-0.678,-0.4481,-0.403,188.875
13:24:37:515,2.4015,1.1774,10.2365,31.7706,-0.5523,-0.2145,-0.6038,189.0625
13:24:37:532,1.6114,1.0086,9.2776,30.349,-0.4999,0.1024,-0.697,189.3438
13:24:37:548,0.7495,0.9655,8.3655,32.6525,-0.4503,0.3533,-0.6635,189.8906
13:24:37:568,0.2922,1.0397,7.5718,31.0119,-0.3513,0.4995,-0.5473,190.6406
13:24:37:590,0.4239,1.3593,6.5997,31.046,-0.2634,0.4707,-0.456,191.4688
13:24:37:614,0.6274,1.7472,5.9102,30.1929,-0.2522,0.296,-0.448,192.2031
13:24:37:632,0.7136,2.0896,5.9653,33.7316,-0.3087,0.0779,-0.5114,192.8125
13:24:37:649,0.5472,2.1027,7.0486,30.0993,-0.3499,-0.0315,-0.5668,193.3281
13:24:37:667,0.1474,2.0069,8.5175,31.4072,-0.2977,0.0148,-0.5545,193.8125
13:24:37:689,-0.2681,1.8501,9.7385,31.8437,-0.1923,0.19,-0.4712,195.4062
13:24:37:713,-0.5398,1.7125,10.4664,28.9687,-0.0685,0.4494,-0.3258,195.6875
13:24:37:732,-0.4919,1.7484,10.4795,28.9985,0.0194,0.6071,-0.1921,195.9844
13:24:37:748,-0.122,1.7711,10.2808,29.3943,0.0442,0.5506,-0.1263,196.4375
13:24:37:768,0.0636,1.5808,10.4652,29.3916,0.0101,0.3445,-0.0856,196.7031
13:24:37:788,0.151,1.1606,11.3546,29.8049,-0.0453,0.1456,-0.0235,196.8438
13:24:37:812,0.3006,0.841,12.7325,28.7137,-0.0549,0.1685,0.0385,196.9375
13:24:37:831,0.5879,0.7679,13.2413,29.2573,-0.0695,0.2899,0.046,197
13:24:37:848,0.8153,1.0576,12.6846,27.37,-0.2237,0.1205,-0.0549,196.9844
13:24:37:868,0.3724,1.1881,13.8637,27.3883,-0.3838,-0.3032,-0.1985,196.9062
13:24:37:888,-0.845,0.3681,16.7703,29.3601,-0.192,-0.3186,-0.1609,196.875
13:24:37:914,-2.2672,-0.8338,17.8932,26.0125,0.2932,0.111,0.1797,196.9531
13:24:37:931,-2.4384,-1.3665,15.2213,28.4186,0.6999,0.434,0.658,197.1875
13:24:37:950,-1.3598,-1.0241,11.1894,24.9058,0.7673,0.124,0.9547,197.375
13:24:38:014,-0.1483,-0.6291,9.3315,27.1214,0.6479,-0.4214,1.0071,197.1562
13:24:38:014,0.3102,-0.2185,9.5314,26.3653,0.5907,-0.708,0.9619,196.375
13:24:38:014,0.4371,0.0724,9.7337,27.2156,0.6594,-0.6864,0.8953,194.7344
13:24:38:030,0.6142,0.0042,8.8491,25.7025,0.7185,-0.4952,0.8375,193.625
13:24:38:053,0.4969,-0.1514,7.5598,25.4939,0.7063,-0.2243,0.8482,192.5938
13:24:38:069,0.4418,-0.0976,6.1951,25.8601,0.6458,-0.0427,0.9038,191.6719
13:24:38:089,0.7567,0.1909,5.0208,25.0634,0.5388,-0.0851,0.9025,190.7031
13:24:38:114,0.9506,0.3526,4.5551,25.3675,0.4099,-0.2901,0.8516,189.6719
13:24:38:131,1.026,0.3526,5.9581,25.5939,0.3468,-0.476,0.8061,188.6562
13:24:38:148,1.3636,0.3873,6.2598,25.0505,0.3505,-0.5261,0.7747,187.6406
13:24:38:169,1.7323,0.4388,6.4381,25.1118,0.3183,-0.4489,0.7153,186.7031
13:24:38:188,1.9286,0.4675,6.8942,25.3775,0.2013,-0.2763,0.6071,185.875
13:24:38:213,1.8245,0.4471,7.9034,25.4532,0.0631,-0.1088,0.4687,185.0469
13:24:38:230,1.8365,0.7057,8.3499,24.5924,-0.0107,0.1123,0.3446,184.2969
13:24:38:251,2.1513,0.6758,8.3679,24.3809,-0.0581,0.2486,0.184,183.7031
13:24:38:267,2.1621,0.2999,8.5426,24.8815,-0.1633,0.1823,-0.0581,183.2656
13:24:38:291,1.9693,-0.4124,10.0091,24.911,-0.3912,-0.0254,-0.293,182.8281
13:24:38:314,1.5743,-0.9535,12.1435,24.7598,-0.6144,-0.1857,-0.431,182.8906
13:24:38:329,1.8508,-1.4622,12.9695,25.0456,-0.6703,-0.0438,-0.4153,183.25
13:24:38:348,2.1046,-1.1738,12.007,24.0417,-0.6203,0.2545,-0.3388,183.5312
13:24:38:374,2.4865,-0.4974,10.6112,23.563,-0.6552,0.4566,-0.3356,184.1094
13:24:38:387,2.5428,-0.1071,11.8095,23.9889,-0.8847,0.1794,-0.4757,184.5781
13:24:38:408,2.0089,-0.8062,14.6071,23.9889,-1.0701,-0.3042,-0.7263,184.9531
13:24:38:434,0.9207,-1.8178,16.167,23.8167,-0.9625,-0.5125,-0.8893,185.4219
13:24:38:453,0.1845,-2.4738,15.2703,25.7887,-0.7076,-0.194,-0.7751,186.1719
13:24:38:474,0.5915,-2.0764,12.9108,23.5395,-0.4639,0.3192,-0.374,187.1875
13:24:38:488,1.6737,-1.0098,10.7573,22.9539,-0.2871,0.5184,0.0585,188.2812
13:24:38:510,2.7714,0.0233,9.0969,24.1475,-0.1119,0.3456,0.2686,189.0156
13:24:38:531,3.2838,0.7632,7.6652,26.4213,0.0405,0.0952,0.2239,189.1719
13:24:38:549,3.2478,1.1654,6.7063,25.0316,0.0647,-0.0086,0.0069,188.7812
13:24:38:568,2.8935,1.2564,6.3053,24.2899,-0.0107,0.0502,-0.28,188.5156
13:24:38:589,2.2698,1.2025,6.2849,26.2157,-0.0977,0.1877,-0.5484,188.5156
13:24:38:616,1.7587,1.1498,6.1999,24.7216,-0.1254,0.3501,-0.7428,188.8281
13:24:38:632,1.4199,1.2635,6.1963,25.0685,-0.0895,0.4534,-0.8446,189.4531
13:24:38:650,1.0069,1.5078,6.3196,26.0523,-0.0368,0.4697,-0.9074,190.2969
13:24:38:672,0.8967,1.7639,6.4908,26.6025,0.0301,0.4585,-0.9218,191.2188
13:24:38:686,0.8453,2.0668,6.5602,27.0402,0.0988,0.4329,-0.9386,192.2344
13:24:38:708,0.4742,2.22,6.8822,26.2671,0.0887,0.3765,-0.9942,193.2812
13:24:38:733,-0.0418,2.2655,7.9967,25.9939,-0.0248,0.3022,-1.0576,194.2812
13:24:38:754,-0.7158,2.1015,9.5506,25.7026,-0.1406,0.2633,-1.0965,195.3906
13:24:38:767,-1.2952,1.819,10.6148,25.9033,-0.1752,0.3253,-1.0784,196.5938
13:24:38:788,-1.756,1.4012,11.5737,26.0261,-0.1912,0.4287,-1.0033,197.7812
13:24:38:815,-2.0374,0.823,12.4069,25.958,-0.1334,0.438,-0.7106,199.0156
13:24:38:831,-2.3211,0.1383,13.1203,27.3772,-0.0895,0.3935,-0.5348,199.0156
13:24:38:849,-2.6575,-0.6698,13.501,28.0711,-0.0786,0.2659,-0.3167,200.6719
13:24:38:868,-2.9603,-1.1618,13.8554,27.6506,-0.143,0.1043,0.0095,201.8906
13:24:38:889,-2.3582,-1.151,14.9651,27.6592,-0.1553,-0.096,0.2932,201.8906
13:24:38:914,-1.4831,-1.0505,16.5261,28.0705,0.0424,-0.1772,0.4484,202.8438
13:24:38:930,-1.0713,-1.1654,16.9199,28.1713,0.396,0.1136,0.547,202.8281
13:24:38:947,-0.9109,-1.2576,14.3378,27.5798,0.6424,0.479,0.666,202.5
13:24:38:968,-0.4488,-1.0768,10.78,28.6888,0.6394,0.4199,0.7504,201.4062
13:24:38:988,0.1474,-0.7919,8.5307,30.3138,0.4671,-0.0574,0.7579,201.4062
13:24:39:015,0.4526,-0.2604,8.4074,28.6348,0.3055,-0.5596,0.6639,200.625
13:24:39:031,0.4921,0.0138,9.2238,30.3424,0.2703,-0.7354,0.5158,199.75
13:24:39:049,0.2742,-0.2101,9.1663,30.5177,0.2477,-0.5791,0.4191,198.8906
13:24:39:073,-0.3997,-0.6015,8.8239,30.0111,0.2464,-0.2313,0.5081,198.2031
13:24:39:086,-0.8869,-0.7416,8.1799,32.4498,0.3214,0.1062,0.7794,197.6562
13:24:39:106,-0.6427,-0.3394,7.0331,30.7405,0.4386,0.1418,1.049,197.2031
13:24:39:131,0.06,0.2915,6.0227,32.3809,0.5396,-0.0877,1.1733,195.7656
13:24:39:148,0.7639,0.6973,5.5547,31.5514,0.595,-0.3748,1.1733,195.1875
13:24:39:168,1.2714,0.9966,5.5654,33.3449,0.5926,-0.5647,1.0862,193.875
13:24:39:187,1.6725,1.2827,5.8791,31.9728,0.5137,-0.6044,0.9161,192.5938
13:24:39:207,2.113,1.5161,6.1927,32.6563,0.298,-0.419,0.6396,191.3125
13:24:39:229,2.3405,1.7208,6.7266,33.3143,-0.0762,0.0095,0.2679,190.1875
13:24:39:247,2.1022,1.7939,7.8734,32.9461,-0.4149,0.5477,-0.105,189.3594
13:24:39:273,1.5108,1.7232,9.0538,33.8105,-0.5404,0.9264,-0.4254,188.8594
13:24:39:286,0.6873,1.2336,9.6188,34.669,-0.5201,1.0846,-0.6256,188.75
13:24:39:308,-0.1974,0.4064,9.8056,33.5797,-0.4591,0.9408,-0.6488,188.8438
13:24:39:332,-0.9061,-0.4543,10.2186,33.1351,-0.3696,0.4814,-0.5149,189.2344
13:24:39:350,-0.9576,-1.151,11.2816,35.293,-0.2352,-0.1378,-0.3045,189.875
13:24:39:368,-0.4763,-1.7795,12.9516,34.2101,-0.0253,-0.4896,-0.0448,190.5469
13:24:39:388,0.8788,-1.9686,13.5082,35.2278,0.1443,-0.4483,0.079,191.1094
13:24:39:415,2.3692,-1.4311,12.6427,35.7035,0.1025,-0.1735,-0.1055,191.4375
13:24:39:432,3.4023,-0.9056,11.2708,34.8187,-0.1659,0.0207,-0.6097,191.4844
13:24:39:449,2.7235,-0.975,11.1643,36.1005,-0.4711,0.2087,-1.1607,191.4844
13:24:39:467,0.9075,-2.0764,11.9424,35.3005,-0.5305,0.5456,-1.3727,191.8594
13:24:39:487,-0.8846,-2.9251,11.3379,37.357,-0.3941,0.8106,-1.1575,192.8906
13:24:39:509,-1.5777,-2.6929,9.3674,36.4573,-0.2386,0.6002,-0.7431,194.3906
13:24:39:532,-0.1459,-1.0529,7.1013,37.0681,-0.2325,-0.0099,-0.4485,195.7656
13:24:39:549,0.3784,-0.2675,8.2553,36.6958,-0.3518,-0.5751,-0.3426,196.8125
13:24:39:568,0.3736,0.2245,8.7138,36.6958,-0.3904,-0.7298,-0.3814,197.4375
13:24:39:586,0.212,0.4663,8.2122,36.5443,-0.3268,-0.5911,-0.4579,197.8594
13:24:39:607,0.0755,0.7045,7.5778,37.5913,-0.3039,-0.3303,-0.5095,198.2812
13:24:39:633,-0.2609,0.8709,7.4676,38.0269,-0.3388,-0.0752,-0.5508,198.7969
