Time,Acc_X,Acc_Y,Acc_Z,Meg,Gyr_X,Gyr_Y,Gyr_Z,Ore
20:53:41:540,-3.2081,2.9718,9.2154,60.2932,0.1819,0.0257,0.1685,179.9375
20:53:41:597,-3.9072,2.4044,8.5211,61.0142,0.3984,-0.9019,-0.0813,179.5
20:53:41:622,-3.6558,2.4164,8.2865,59.1927,0.2999,-0.9738,-0.0491,179.5
20:53:41:636,-3.2512,2.4283,8.3212,61.4154,0.172,-0.9298,-0.0328,197.5625
20:53:41:666,-3.2237,2.5899,8.63,60.1213,0.073,-0.8225,-0.0352,197.8594
20:53:41:680,-3.1758,2.4223,8.4888,59.3441,-0.0448,-0.8153,-0.044,198.0938
20:53:41:696,-3.2476,2.3565,8.7114,59.3842,-0.1457,-0.7636,-0.0219,198.2969
20:53:41:722,-3.1878,2.1267,8.9113,56.8233,-0.2013,-0.8156,0.0023,198.5469
20:53:41:735,-3.3913,1.886,9.7385,58.7207,-0.1673,-0.6193,0.0929,198.6562
20:53:41:755,-3.2632,1.6323,10.6723,59.5677,0.0048,-0.0749,0.2415,198.75
20:53:41:782,-3.1686,1.8824,10.0438,59.934,0.1523,0.1831,0.3565,198.7031
20:53:41:794,-2.9376,2.2428,8.8144,58.8966,0.188,0.1115,0.3826,198.4531
20:53:41:819,-2.7843,2.5277,8.0686,58.2004,0.134,-0.1319,0.3557,198.0469
20:53:41:835,-2.5713,2.6115,7.8758,57.1789,0.021,-0.2353,0.3219,197.625
20:53:41:853,-2.4611,2.6019,7.8962,59.4074,-0.1076,-0.2259,0.3232,197.2812
20:53:41:873,-2.4025,2.6031,8.0758,58.0768,-0.2195,-0.1234,0.348,196.9531
20:53:41:902,-2.2493,2.6654,8.3547,57.8962,-0.2847,0.014,0.3826,196.5938
20:53:41:918,-2.108,2.7288,8.4588,59.5553,-0.2746,0.0787,0.4031,196.1875
20:53:41:936,-2.1678,2.7934,8.2781,59.0598,-0.1939,-0.0179,0.4391,195.7188
20:53:41:952,-2.2864,2.8473,8.1751,59.3545,-0.0892,-0.1684,0.5139,195.2031
20:53:41:972,-2.09,2.8629,8.1584,60.002,0.0003,-0.2499,0.5877,194.6719
20:53:42:002,-1.8338,3.0508,8.1703,57.4303,0.0583,-0.2837,0.6569,194.6719
20:53:42:020,-1.7189,3.2364,8.1655,58.9128,0.089,-0.369,0.7073,193.8281
20:53:42:036,-1.5825,3.3417,8.2158,57.9125,0.0711,-0.52,0.7336,193.8281
20:53:42:055,-1.112,3.4411,8.478,56.4181,0.0333,-0.5993,0.7083,192.7969
20:53:42:071,-0.5027,3.7212,8.7701,57.4047,-0.0048,-0.5594,0.6218,192.0625
20:53:42:092,-0.043,3.981,8.8946,56.6658,-0.0341,-0.456,0.4878,191.3438
20:53:42:115,0.1414,4.1557,8.8228,57.3993,-0.0589,-0.3836,0.3461,190.6406
20:53:42:136,0.3401,4.1953,8.6623,58.853,-0.1017,-0.3378,0.1874,190.0156
20:53:42:150,0.0911,4.3197,8.5666,58.4128,-0.1542,-0.3474,0.087,189.5625
20:53:42:171,0.0169,4.1569,8.6791,58.9737,-0.1774,-0.4065,0.0444,189.2188
20:53:42:200,-0.1603,3.9822,9.0873,57.3957,-0.1534,-0.4566,0.0516,189.0625
20:53:42:217,-0.1854,4.0396,9.7373,57.6749,-0.0618,-0.4859,0.0995,189
20:53:42:235,-0.0023,4.1438,10.0881,58.7643,0.0418,-0.4891,0.1344,189
20:53:42:251,0.4131,4.0348,10.0749,57.6117,0.0791,-0.528,0.1459,189
20:53:42:272,0.8548,3.6649,10.0749,58.1722,0.0149,-0.4784,0.1382,188.9688
20:53:42:295,0.6813,3.1227,10.3431,58.2453,-0.2131,-0.2555,0.2069,188.8125
20:53:42:313,0.7088,2.8521,11.1834,57.0746,-0.4722,-0.0566,0.3017,188.7344
20:53:42:331,1.5061,2.6689,12.3207,58.2194,-0.5414,0.0923,0.2708,188.6562
20:53:42:355,2.2734,2.4463,12.7708,57.4151,-0.3545,0.1781,0.1089,188.375
20:53:42:370,2.3871,2.3182,12.3901,58.5874,-0.0344,0.1243,-0.0861,188
20:53:42:391,2.1465,2.1745,11.2169,56.9009,0.2519,-0.0377,-0.2496,187.7188
20:53:42:413,1.9705,2.0477,9.8546,56.4073,0.3987,-0.2869,-0.3591,187.6875
20:53:42:430,2.0603,1.9626,8.8551,57.9183,0.3952,-0.6015,-0.4416,187.875
20:53:42:451,2.3392,1.837,8.5654,57.5183,0.2937,-0.8358,-0.542,188.2656
20:53:42:474,2.3201,1.6957,8.6288,55.889,0.1534,-0.884,-0.6438,188.7969
20:53:42:497,1.876,1.5317,8.7162,57.4865,0.0368,-0.7772,-0.673,189.4844
20:53:42:513,1.3983,1.4623,8.5666,56.7447,-0.0573,-0.5085,-0.6097,190.3125
20:53:42:532,1.0248,1.5461,8.1021,57.3609,-0.1451,-0.1714,-0.496,191.2188
20:53:42:552,1.3696,1.8837,7.6292,56.7225,-0.2282,0.1496,-0.4616,191.6094
20:53:42:574,0.9805,2.42,7.6245,57.7529,-0.2663,0.3839,-0.4704,192.3906
20:53:42:598,0.558,2.7563,7.8172,57.6049,-0.2162,0.4558,-0.3945,192.9844
20:53:42:615,0.6202,2.8713,7.8363,58.3624,-0.1174,0.3554,-0.3822,193.4844
20:53:42:631,0.528,3.0448,7.901,58.4689,-0.0432,0.1586,-0.4355,194.1406
20:53:42:651,0.4742,3.1071,8.0147,58.6591,-0.0296,0.0063,-0.4869,194.4844
20:53:42:672,0.4658,2.9407,8.4265,58.5182,-0.0786,-0.0536,-0.5362,194.8906
20:53:42:697,0.3054,2.7887,8.7737,57.4461,-0.1398,-0.0707,-0.5583,195.4062
20:53:42:715,0.1342,2.639,9.043,57.8023,-0.1542,-0.023,-0.5215,196
20:53:42:732,0.1342,2.7348,9.0801,57.5583,-0.0977,0.0641,-0.4187,196.6406
20:53:42:750,0.2922,3.0017,8.8323,58.1968,0.0104,0.1331,-0.276,197.2344
20:53:42:771,0.5616,3.3513,8.648,56.4673,0.1137,0.1171,-0.1553,197.7812
20:53:42:791,0.6849,3.6757,8.6396,57.9701,0.2051,0.0713,-0.0938,198.1562
20:53:42:815,0.7459,3.9846,8.9233,57.2738,0.2844,0.0303,-0.0786,198.375
20:53:42:832,0.8309,4.2324,8.7042,58.4634,0.3763,0.0015,-0.0965,198.5
20:53:42:850,0.5915,4.3832,8.4792,58.6486,0.3872,-0.047,-0.1758,198.5938
20:53:42:873,0.2312,4.2802,8.8754,56.6534,0.2258,-0.129,-0.2699,198.7031
20:53:42:902,-0.055,3.9702,9.717,57.5209,-0.0312,-0.1327,-0.322,198.875
20:53:42:919,-0.0107,3.6649,10.628,57.7559,-0.2762,-0.0747,-0.3311,199.1562
20:53:42:930,0.2934,3.6338,11.296,55.538,-0.4775,0.0132,-0.3356,199.7031
20:53:42:952,0.1234,3.295,12.3638,58.668,-0.6253,-0.0291,-0.4078,200.0781
20:53:42:973,-0.535,2.4223,14.0469,58.327,-0.6661,-0.2118,-0.5223,200.4375
20:53:43:000,-1.1288,1.2875,15.4427,56.7804,-0.5161,-0.4233,-0.5434,200.875
20:53:43:020,-1.513,0.6554,14.843,56.7561,-0.1499,-0.3351,-0.3966,201.4375
20:53:43:034,-1.6112,0.6315,12.5613,57.1177,0.2162,0.0438,-0.113,202.0781
20:53:43:051,-1.3921,1.1295,10.3191,56.4779,0.3774,0.3858,0.1975,202.3594
20:53:43:072,-0.9504,1.5006,9.0454,56.4779,0.3449,0.4215,0.4042,202.6875
20:53:43:097,-0.5003,1.6741,8.6851,56.2254,0.2317,0.2548,0.4737,202.625
20:53:43:114,-0.0598,1.7819,9.0598,55.1079,0.1113,0.0406,0.4663,202.2188
20:53:43:131,0.036,1.7723,9.7625,56.1167,0.0517,-0.1498,0.3965,201.6719
20:53:43:151,-0.0119,1.5928,10.191,53.5606,0.0844,-0.243,0.2809,201.1406
20:53:43:171,-0.2908,1.3593,9.7301,54.1488,0.1811,-0.1311,0.1922,200.6562
20:53:43:191,-0.5901,1.2743,8.5761,55.2456,0.2735,0.1395,0.1797,200.1719
20:53:43:214,-0.6415,1.3246,7.4198,56.2574,0.3252,0.36,0.2468,199.9844
20:53:43:234,-0.6846,1.4766,6.504,54.364,0.3425,0.4473,0.3307,199.7812
20:53:43:252,-0.6116,1.7244,5.7965,55.3977,0.3457,0.4321,0.417,199.4531
20:53:43:271,-0.4476,2.0285,5.7306,55.0432,0.3193,0.3719,0.4926,199.0469
20:53:43:293,-0.0909,2.4487,6.3256,53.8621,0.2775,0.3176,0.5408,198.5312
20:53:43:315,0.4861,3.2029,7.1875,52.9638,0.2735,0.3243,0.5422,197.9219
20:53:43:331,0.6202,3.659,7.725,53.1026,0.3172,0.3482,0.3983,197.2812
20:53:43:351,0.0157,3.6099,7.6472,53.5824,0.3574,0.3099,0.111,196.6562
20:53:43:372,-0.523,3.4674,8.1093,51.5711,0.257,0.2532,-0.0693,196.1562
20:53:43:397,-0.8283,3.4949,9.3986,54.8557,-0.0874,0.4942,-0.0416,196
20:53:43:414,-1.2485,3.5596,10.2736,52.7811,-0.0791,0.6441,0.0306,196.0469
20:53:43:431,-1.7034,3.635,10.3539,54.1504,-0.0445,0.5437,0.1459,196.0938
20:53:43:454,-1.6423,3.6218,10.5454,53.5902,-0.0373,0.2758,0.2857,196.0469
20:53:43:472,-1.0473,3.5345,11.1535,54.1805,-0.0344,0.0215,0.4085,195.9062
20:53:43:498,-0.2752,3.1993,12.2369,52.8556,0.0586,-0.0827,0.5195,195.4531
20:53:43:565,0.7004,2.894,12.438,52.432,0.1918,-0.0073,0.5669,195.25
20:53:43:566,1.6617,2.8258,11.1667,51.501,0.1665,0.095,0.4449,194.7812
20:53:43:566,2.1417,3.0005,9.5973,51.438,-0.1606,0.0572,0.1627,193.6094
20:53:43:573,1.8951,2.7372,9.7433,52.6604,-0.5936,-0.0984,-0.1183,193.6094
20:53:43:591,1.141,2.0453,11.9185,51.6936,-0.7036,-0.1223,-0.1889,193.0938
20:53:43:620,1.0368,1.4479,13.6566,51.7543,-0.3225,0.0119,-0.0629,192.8906
20:53:43:634,1.7634,1.6658,12.5924,50.8134,0.2216,0.0438,0.0316,192.9844
20:53:43:651,2.6984,2.3254,9.7301,52.1017,0.4887,-0.3037,-0.0943,193.1562
20:53:43:673,3.2143,2.7228,7.7394,51.3145,0.3651,-0.6726,-0.42,193.1875
20:53:43:694,2.6086,2.5337,7.4138,50.7589,0.0192,-0.7045,-0.7263,193.1719
20:53:43:713,1.4666,1.9315,8.0075,52.1704,-0.293,-0.3397,-0.8536,193.6406
20:53:43:731,0.2838,1.6083,8.2625,50.8067,-0.4304,0.1067,-0.7886,194.4219
20:53:43:751,-0.3566,1.7508,7.8423,50.2018,-0.379,0.2873,-0.6432,195.4375
20:53:43:770,-0.5146,2.0692,7.2258,50.1268,-0.2096,0.1549,-0.5223,196.3906
20:53:43:792,-0.5529,2.4499,6.8822,50.6926,-0.0186,-0.0835,-0.4525,197.1406
20:53:43:812,-0.5506,2.6905,6.7649,50.9608,0.1491,-0.2369,-0.42,197.7031
20:53:43:831,-0.4045,2.888,6.5219,50.8381,0.2184,-0.2544,-0.4163,198.2344
20:53:43:856,-0.3159,3.1669,6.3555,50.081,0.1811,-0.1812,-0.4688,198.7656
20:53:43:870,-0.3889,3.3429,6.5243,50.655,0.1057,-0.0824,-0.5391,199.2656
20:53:43:891,-0.778,3.629,6.8739,50.6791,0.0551,-0.0246,-0.53,199.8281
20:53:43:916,-0.5996,3.9235,7.5478,50.4404,0.0748,-0.0161,-0.5178,200.125
20:53:43:931,-0.3399,4.1821,8.0099,50.2521,0.1321,-0.0608,-0.5511,200.7656
20:53:43:950,-0.3219,4.358,8.703,50.304,0.1955,-0.1306,-0.5777,201.3438
20:53:43:972,-0.2453,4.2156,9.5242,50.4738,0.286,-0.1101,-0.6081,201.9531
20:53:43:991,-0.5194,4.0444,9.8618,50.2419,0.323,0.0137,-0.6174,202.5938
20:53:44:014,-1.1252,3.726,9.8487,49.4037,0.2519,0.1432,-0.5431,203.625
20:53:44:031,-1.4927,3.4662,10.1348,50.5342,0.1686,0.1938,-0.3963,204.375
20:53:44:050,-1.604,3.3022,10.7501,51.2905,0.1712,0.1695,-0.2275,205.0625
20:53:44:071,-1.7943,3.3357,10.628,49.641,0.2943,0.1964,-0.0722,205.5781
20:53:44:091,-1.8542,3.6697,9.6847,49.8262,0.3534,0.1853,0.0753,205.9219
20:53:44:115,-1.4484,4.0133,9.4632,50.4539,0.2125,0.042,0.1848,206.0781
20:53:44:132,-1.0976,3.8218,11.041,50.8777,-0.1068,-0.2939,0.1592,206.0781
20:53:44:150,-1.2628,2.6725,14.3019,49.0598,-0.4256,-0.7256,0.0348,205.9219
20:53:44:171,-2.3151,1.4359,15.7971,49.4302,-0.3707,-0.6619,-0.0421,205.7344
20:53:44:190,-3.0298,0.8948,12.8929,49.9131,0.0482,-0.0302,0.1065,205.6875
20:53:44:215,-2.7856,1.4048,9.3638,49.0563,0.2658,0.5416,0.4474,205.7969
20:53:44:232,-1.9416,1.9902,8.5857,50.7206,0.0466,0.5088,0.7408,205.8594
20:53:44:250,-1.2161,2.1231,9.7325,49.6771,-0.2285,0.1413,0.8367,205.5156
20:53:44:270,-0.8786,1.91,10.2473,48.988,-0.2282,-0.0869,0.8154,204.7656
20:53:44:293,-0.8379,1.8262,9.2944,49.6075,-0.0314,-0.0496,0.792,203.7656
20:53:44:315,-0.608,1.9459,7.8495,48.3737,0.1305,0.1056,0.8202,202.3281
20:53:44:332,-0.1615,2.0883,6.9625,47.2495,0.1752,0.1834,0.8657,201.4688
20:53:44:357,0.1976,2.2679,6.4297,47.7772,0.1803,0.1815,0.89,200.5312
20:53:44:370,0.6142,2.4355,6.1389,48.547,0.2077,0.1285,0.8815,199.5156
20:53:44:392,1.0236,2.5444,5.9976,48.6121,0.2517,0.0465,0.8434,198.5312
20:53:44:415,1.2774,2.7456,5.7869,48.0618,0.2852,0.0201,0.7741,197.5156
20:53:44:433,1.3672,3.0927,5.757,48.7563,0.2629,0.0116,0.6745,197.0312
20:53:44:451,1.1972,3.319,6.0419,47.7933,0.1875,-0.006,0.5283,196.125
20:53:44:471,0.8141,3.465,6.9637,48.7033,0.0828,-0.0741,0.3773,195.3438
20:53:44:492,0.6418,3.6254,8.1811,47.733,0.0101,-0.1149,0.2932,194.6562
20:53:44:516,0.6358,3.9103,8.9784,49.0489,0.0362,-0.1074,0.2529,194.1719
20:53:44:531,0.8848,4.3892,8.9209,49.2326,0.1372,-0.0877,0.2146,193.8125
20:53:44:551,1.0009,4.7734,8.9389,49.0959,0.1635,-0.166,0.1078,193.5469
20:53:44:573,1.0272,4.7004,9.8798,47.9024,0.041,-0.3887,-0.0736,193.5469
20:53:44:599,0.7172,3.9834,11.7066,47.9545,-0.1483,-0.5924,-0.2584,193.125
20:53:44:614,0.6059,3.1562,13.0234,49.3386,-0.2653,-0.5786,-0.3074,193.2812
20:53:44:632,1.0931,2.8629,13.1622,47.6196,-0.2261,-0.3934,-0.1718,193.7031
20:53:44:651,1.8927,3.1646,12.0406,48.4606,-0.1164,-0.1873,-0.0201,194.1562
20:53:44:670,1.9167,3.301,11.3438,48.6746,-0.1441,-0.1192,-0.0683,194.4219
20:53:44:690,1.3349,2.6402,12.043,48.8507,-0.3241,-0.1748,-0.2616,194.4688
20:53:44:716,0.5843,1.807,12.5625,48.7023,-0.4229,-0.1381,-0.3756,194.5
20:53:44:731,0.6717,1.7388,11.9771,48.3653,-0.3499,0.0676,-0.2619,194.7031
20:53:44:749,1.9813,2.2033,10.7046,48.1041,-0.1705,0.1027,-0.0405,195.0938
20:53:44:771,3.0647,2.7635,9.444,48.1048,0.0019,-0.1522,0.0015,195.5781
20:53:44:791,3.103,2.8856,8.5726,47.7828,-0.078,-0.3463,-0.5122,195.6094
20:53:44:816,2.2878,2.5959,7.8519,51.1021,-0.2559,-0.0403,-0.7244,195.6094
20:53:44:832,1.2595,2.2392,6.9708,48.5242,-0.4192,0.2809,-0.7921,195.9531
20:53:44:850,0.2886,2.1219,6.152,49.5525,-0.5422,0.4353,-0.7279,195.9531
20:53:44:869,-0.0298,2.1626,5.927,50.049,-0.5595,0.4036,-0.6344,196.5938
20:53:44:890,1.0967,2.4535,6.3172,50.5601,-0.4043,0.3006,-0.7559,198.2188
20:53:44:916,-0.9755,2.6618,6.2717,49.2149,-0.212,0.2628,-0.6653,198.9531
20:53:44:932,-0.7493,2.5887,5.8887,51.6514,-0.0991,0.3048,-0.4669,199.5469
20:53:44:951,-0.2944,2.7444,5.5008,50.6838,-0.0546,0.2659,-0.4677,200.3438
20:53:44:970,-0.7672,3.2735,5.5882,49.4378,-0.0959,0.1125,-0.4661,201.0469
20:53:44:990,-0.9995,3.5716,6.5423,51.2861,-0.1313,-0.0576,-0.4368,201.5312
20:53:45:014,-0.9157,3.6865,7.9405,50.3727,-0.0953,-0.2193,-0.4224,202
20:53:45:033,-0.8319,3.8876,9.3626,51.656,0,-0.2478,-0.4243,202.5156
20:53:45:050,-0.7624,3.963,10.4927,53.5348,0.1001,-0.0861,-0.4549,203.2656
20:53:45:071,-0.9252,3.9427,11.0972,53.1254,0.171,0.2249,-0.4664,203.75
20:53:45:091,-1.2868,3.9044,10.968,53.8766,0.1656,0.479,-0.4512,204.2812
20:53:45:115,-1.6591,3.7823,10.7369,53.2512,0.0948,0.5253,-0.3913,204.8125
20:53:45:133,-1.9308,3.4303,11.1331,53.701,0.0538,0.4004,-0.2797,205.2812
20:53:45:149,-2.1822,2.9359,12.0322,53.701,0.0924,0.3118,-0.0933,205.7031
20:53:45:169,-2.2014,2.633,12.5026,52.5083,0.1587,0.304,0.1501,206.0312
20:53:45:191,-1.9404,2.7839,12.0561,53.7646,0.1193,0.2854,0.3422,206.1406
20:53:45:214,-1.5753,3.2938,11.5138,54.8185,-0.0674,0.0263,0.3898,206.2188
20:53:45:232,-1.3215,3.4614,12.4536,54.5,-0.1774,-0.2933,0.3003,206.0156
20:53:45:250,-1.6375,2.7228,13.8709,53.5336,-0.0333,-0.2723,0.2817,205.5938
20:53:45:269,-2.2504,1.8741,13.6878,52.3692,0.2013,-0.0052,0.4609,205.1562
20:53:45:290,-2.2469,1.4479,11.9137,52.8554,0.2788,0.1149,0.7459,204.8438
20:53:45:316,-1.3598,1.6813,10.446,53.8084,0.196,-0.1402,0.9307,204.5625
20:53:45:333,-0.0406,1.995,10.5011,53.522,0.1553,-0.4222,0.8972,203.7031
20:53:45:349,0.6789,2.129,10.4819,52.6985,0.1683,-0.3996,0.7214,202.7344
20:53:45:370,0.6465,2.0788,9.608,53.368,0.1393,-0.1868,0.5706,201.7188
20:53:45:390,0.4993,1.837,8.3906,53.6149,0.0794,0.0862,0.4894,200.875
20:53:45:415,0.2336,1.7304,7.0307,53.0611,0.0075,0.2915,0.4615,200.25
20:53:45:432,0.1545,1.7747,6.0024,53.5027,-0.0309,0.3104,0.478,199.6719
20:53:45:451,0.2072,1.7747,5.4386,52.2403,0.0152,0.1421,0.5059,199.0938
20:53:45:470,0.2503,1.8418,5.2015,54.2922,0.1134,-0.1631,0.544,198.5312
20:53:45:490,0.5663,2.3026,5.8264,53.6936,0.2245,-0.4313,0.5919,197.9375
20:53:45:517,0.801,2.6055,6.3902,54.2892,0.3135,-0.537,0.6181,197.3438
20:53:45:534,0.9362,2.9108,6.6297,52.6008,0.3702,-0.4052,0.5994,196.7812
20:53:45:549,0.7938,3.2699,6.6656,53.3311,0.3577,-0.1532,0.5424,196.1875
20:53:45:628,0.4143,3.6458,7.1911,53.4793,0.2437,0.0763,0.4718,195.6094
20:53:45:629,0.1641,4.0875,7.9213,53.352,0.1143,0.2217,0.4218,195.0156
20:53:45:629,0.2036,4.4383,8.6564,52.0646,0.045,0.2231,0.3749,194.4844
20:53:45:629,0.5257,4.4849,9.3734,51.5529,0.0112,0.0755,0.2649,193.7031
20:53:45:652,0.9375,4.3413,10.3012,53.1569,-0.0418,-0.2174,0.0849,193.2344
20:53:45:671,0.8716,3.5979,12.5673,52.5525,-0.1902,-0.5788,-0.1577,192.9219
20:53:45:691,0.6274,2.3242,13.7895,55.5412,-0.285,-0.5458,-0.3202,192.875
20:53:45:715,0.977,1.7951,12.5852,52.6864,-0.2855,-0.0337,-0.2387,192.9688
20:53:45:732,1.7072,2.2368,11.0446,53.7204,-0.4032,0.3842,-0.0421,193.3594
20:53:45:749,1.9897,2.3637,11.7341,54.9326,-0.7065,0.3078,-0.0453,193.7812
20:53:45:772,1.196,1.1606,13.2664,54.156,-0.8983,0.0356,-0.2872,193.875
20:53:45:790,0.0636,0.1431,13.0772,52.1933,-0.7979,0.1149,-0.4187,193.7812
20:53:45:814,0.4706,-0.0413,11.794,55.946,-0.6061,0.4268,-0.1713,193.8906
20:53:45:831,1.9693,0.6135,10.7345,52.3858,-0.4192,0.406,0.1698,194.2969
20:53:45:851,3.3723,1.5724,10.2712,52.5336,-0.245,-0.0084,0.291,194.6094
20:53:45:870,4.1229,2.0321,9.6093,53.0898,-0.07,-0.4278,0.1272,194.5
20:53:45:891,3.5938,2.0991,8.5139,52.4283,0.0149,-0.5578,-0.2421,194.1406
20:53:45:914,2.4661,1.9986,7.5514,52.74,-0.0786,-0.4081,-0.5953,193.8906
20:53:45:932,1.4295,1.8441,7.0343,51.9953,-0.2732,-0.1644,-0.7969,194.2344
20:53:45:950,0.6082,1.8609,6.9996,54.4389,-0.4357,0.0209,-0.8725,194.9688
20:53:45:970,0.1833,2.0045,7.2115,53.4377,-0.4895,0.1131,-0.8419,195.8906
20:53:45:991,0.0911,2.1733,7.2964,54.2467,-0.4365,0.1914,-0.758,196.8281
20:53:46:017,0.0324,2.3852,6.9744,53.1476,-0.3001,0.2577,-0.6632,197.75
20:53:46:032,-0.0083,2.6498,6.838,52.6589,-0.1281,0.246,-0.5905,198.5781
20:53:46:050,-0.0059,2.73,7.1552,53.6388,0.0442,0.1829,-0.546,199.2812
20:53:46:069,-0.0741,2.8796,7.0475,53.0557,0.2626,0.1315,-0.5237,199.8906
20:53:46:091,-0.2764,3.1993,6.3807,53.8741,0.4674,0.055,-0.5197,200.5
20:53:46:116,-0.4392,3.4686,6.5985,53.485,0.4767,-0.1303,-0.525,201.1094
20:53:46:133,-0.5613,3.4818,7.7262,53.4293,0.3334,-0.2664,-0.546,201.6875
20:53:46:149,-0.6188,3.4494,9.0574,54.0506,0.1944,-0.255,-0.533,202.3438
20:53:46:170,-0.8187,3.5811,10.2545,54.583,0.1755,0.0295,-0.4278,203.0156
20:53:46:191,-1.0952,3.7451,11.1559,54.2224,0.2652,0.1296,-0.3758,203.0156
20:53:46:217,-1.4137,3.8062,11.7018,53.8067,0.3145,0.1363,-0.3133,203.9375
20:53:46:235,-1.701,3.6661,12.5194,51.4966,0.371,0.1429,-0.2027,204.7188
20:53:46:253,-1.9907,3.4566,13.003,53.5087,0.4647,0.2678,-0.032,205.5
20:53:46:269,-2.1032,3.6254,12.3075,51.8984,0.4293,0.3893,0.1533,205.5
20:53:46:289,-1.5717,4.0564,11.4133,53.5419,0.1641,0.1533,0.2143,205.7344
20:53:46:309,-0.7529,4.0049,12.5445,53.049,-0.0895,-0.4542,0.1129,205.7656
20:53:46:332,-0.5529,3.0113,15.6103,51.7766,0.0839,-0.5953,-0.0187,205.5781
20:53:46:350,-1.1802,1.4587,15.7073,53.0876,0.5042,-0.0944,0.0439,205.3281
20:53:46:369,-2.0194,0.9655,12.0609,52.0743,0.5587,0.2417,0.3467,205.2656
20:53:46:388,-1.7141,1.1618,8.9688,52.6763,0.2575,-0.0712,0.6231,205.375
20:53:46:409,-0.9252,1.5987,8.5594,51.6001,-0.0242,-0.5602,0.7043,205.375
20:53:46:433,-0.1711,2.068,9.3531,52.5304,-0.0274,-0.8217,0.6969,204.9844
20:53:46:450,0.4837,2.3673,9.4045,51.5279,0.1784,-0.8672,0.6681,204.2969
20:53:46:468,0.9542,2.3338,8.618,51.055,0.428,-0.7008,0.6141,203.6094
20:53:46:489,1.0021,2.4822,6.9062,50.5382,0.5625,-0.4377,0.5659,202.6562
20:53:46:509,1.1098,2.73,5.1536,50.4434,0.5009,-0.2659,0.4873,202.0625
20:53:46:531,1.2726,2.8593,4.2043,49.8997,0.2945,-0.2683,0.3416,201.5312
20:53:46:548,1.1984,2.8497,4.6089,48.98,0.1004,-0.3958,0.1973,201
20:53:46:569,0.8477,2.6606,6.1365,49.4502,0.0701,-0.4148,0.1091,200.5625
20:53:46:589,0.698,2.2691,7.7549,49.9192,0.2322,-0.2294,0.0918,200.3438
20:53:46:612,0.7208,2.0237,8.2948,48.8484,0.4133,0.0396,0.1099,200.2656
20:53:46:632,0.7699,2.068,7.974,48.9005,0.4274,0.4034,0.1219,200.2188
20:53:46:650,0.6992,2.5409,7.2941,48.4333,0.2365,0.6478,0.0969,200.125
20:53:46:669,0.6441,3.0448,7.3132,47.5308,0.0115,0.6745,0.0428,200.0625
20:53:46:690,1.0512,3.2471,7.9812,48.9176,-0.1374,0.5245,-0.0957,199.8438
20:53:46:715,1.4762,2.9383,9.2753,51.1819,-0.2157,0.3837,-0.2627,199.5938
20:53:46:733,1.5456,2.4822,10.7788,48.5698,-0.1704,0.3392,-0.3087,199.3906
20:53:46:751,0.9745,2.1123,11.5462,48.4374,-0.0525,0.3181,-0.1934,199.3906
20:53:46:769,0.3257,2.4247,11.3379,49.017,0.0186,0.2931,0.0956,199.6094
20:53:46:789,1.354,3.2029,10.0701,46.4339,-0.1065,0.2172,0.2734,199.9844
20:53:46:809,2.8025,4.6106,9.0741,47.329,-0.4578,-0.0219,0.0881,199.9844
20:53:46:833,3.6728,4.9219,9.7481,47.9345,-0.8272,-0.3442,-0.4384,199.6875
20:53:46:850,3.0743,3.9726,11.5964,47.2114,-1.0496,-0.4169,-0.9476,199.375
20:53:46:869,1.3684,2.6282,13.4376,47.1625,-1.0088,-0.1154,-1.1013,199.5625
20:53:46:890,0.2575,1.0205,12.3027,47.5226,-0.8197,0.1757,-0.9615,200.4375
20:53:46:914,0.224,1.2097,11.1763,47.663,-0.6075,0.0899,-0.7703,201.6875
20:53:46:933,0.4658,1.2193,10.1324,48.6439,-0.4069,-0.162,-0.5937,202.7969
20:53:46:951,0.522,1.2683,9.0442,48.6582,-0.2192,-0.3146,-0.4704,203.7188
20:53:46:968,0.1881,1.3426,7.9848,47.6103,-0.0189,-0.3932,-0.4203,204.4844
20:53:46:991,0.3126,1.4575,6.6045,48.0105,0.2285,-0.3586,-0.346,205.0625
20:53:47:014,0.2946,1.6035,5.3272,48.6673,0.4594,-0.2853,-0.2722,205.625
20:53:47:033,0.1126,1.8753,4.3755,46.3952,0.6141,-0.3146,-0.2054,206.125
20:53:47:050,-0.1423,2.1961,3.8608,48.1079,0.62,-0.4438,-0.1039,206.5312
20:53:47:069,-0.1878,2.5528,3.7255,47.6689,0.465,-0.6196,0.013,206.9844
20:53:47:091,0.3293,2.8868,4.4126,47.0772,0.187,-0.7785,0.1328,207.2031
20:53:47:117,0.455,3.4064,5.9653,47.6815,-0.1507,-0.6725,0.1773,207.2969
20:53:47:136,0.2934,3.8361,7.1348,47.7514,-0.4836,-0.1032,0.1547,207.2969
20:53:47:151,0.5053,4.2862,7.7489,46.1383,-0.7769,0.6873,0.1981,207.2344
20:53:47:170,-0.013,4.2599,8.7928,48.006,-1.082,1.1973,0.1691,207.125
20:53:47:189,-0.2537,4.5233,11.0422,48.006,-1.2701,1.3363,0.1147,206.875
20:53:47:209,0.1198,4.4263,13.2736,46.8817,-1.146,1.0766,0.1019,206.5156
20:53:47:234,0.121,3.9606,14.3749,47.334,-0.6352,0.4777,-0.0672,206.1562
20:53:47:250,-0.0418,3.1825,14.108,48.1618,0.0053,-0.1314,-0.1974,205.8125
20:53:47:268,0.0863,2.7827,13.2436,48.3098,0.4719,-0.4105,-0.121,205.6406
20:53:47:289,0.4227,2.6749,12.4715,46.1791,0.6285,-0.2547,0.0607,205.7969
20:53:47:309,0.795,3.2471,11.1631,48.2024,0.5028,0.3682,0.2412,206.0469
20:53:47:334,1.1254,3.5943,11.1846,45.9878,0.1297,0.6497,0.2388,206.1562
20:53:47:351,0.1857,2.8617,13.4244,47.0667,-0.2772,0.4202,-0.027,205.8125
20:53:47:369,-1.3071,1.4946,15.5924,45.7642,-0.3244,0.0321,-0.2376,205.4688
20:53:47:390,-2.248,0.4016,14.1427,46.9237,0.1204,0.0276,-0.1428,205.4219
20:53:47:407,-2.0278,0.4172,10.8267,45.7142,0.6219,0.1621,0.2263,205.6719
20:53:47:429,-0.8606,0.914,9.3806,46.8366,0.7337,-0.1575,0.6071,205.8438
20:53:47:448,0.297,1.1414,9.8846,46.3244,0.5425,-0.7844,0.7565,205.6094
20:53:47:469,0.3616,0.8074,10.112,46.3584,0.3478,-1.124,0.6996,205
20:53:47:489,-0.0298,0.4388,9.7134,46.3494,0.2224,-1.0944,0.6644,204.2812
20:53:47:509,-0.1196,0.3885,8.703,45.2853,0.1398,-0.7977,0.7778,203.6562
20:53:47:533,0.1893,0.7057,7.2881,45.3154,0.0839,-0.406,0.9576,203.0938
20:53:47:551,0.704,1.1546,6.097,46.4707,0.0128,-0.0683,1.0825,202.3281
20:53:47:575,1.0655,1.5509,5.2458,45.9138,-0.0738,0.1458,1.1006,201.2969
20:53:47:589,1.2535,1.807,4.9753,44.0208,-0.1792,-0.0547,0.9872,200.125
20:53:47:610,1.7251,1.9926,5.0567,45.6121,-0.1907,-0.3282,0.935,200.125
20:53:47:631,1.9873,2.1721,5.7031,44.7197,-0.1774,-0.4654,0.8511,198.8438
20:53:47:690,2.3919,2.4379,7.1336,44.3522,-0.0692,-0.4257,0.6644,197.625
20:53:47:691,2.5978,2.6414,8.1763,43.2515,0.0059,-0.1927,0.4242,195.5312
20:53:47:691,2.5547,2.7432,8.7378,44.7818,0.0112,0.1325,0.2173,194.625
20:53:47:712,2.453,2.6905,8.8192,45.495,-0.0266,0.3562,0.0388,193.9219
20:53:47:734,2.2016,2.5899,8.9844,44.1916,-0.085,0.3512,-0.1109,193.5
20:53:47:750,2.1357,2.3469,9.8403,44.7077,-0.1326,0.2295,-0.2475,193.2344
20:53:47:767,2.0244,1.9854,10.9117,45.2308,-0.1438,0.2625,-0.3607,193.1406
20:53:47:788,1.718,1.6813,11.3498,43.9957,-0.1523,0.3807,-0.4179,193.2031
20:53:47:807,1.6473,1.6358,11.0745,44.8855,-0.1936,0.4039,-0.4193,193.4688
20:53:47:834,2.0915,1.5401,10.2569,44.3551,-0.3723,0.1269,-0.4541,193.8438
20:53:47:852,2.4171,1.5341,10.4724,43.5347,-0.6807,-0.4044,-0.5487,194.2656
20:53:47:870,2.5248,1.1642,12.4883,44.622,-0.8322,-0.8409,-0.6219,194.6719
20:53:47:888,1.9203,0.3969,15.1482,45.0024,-0.5715,-0.8899,-0.5255,195.1875
20:53:47:908,1.2403,-0.3741,15.5624,43.5956,-0.1545,-0.4145,-0.1774,196.6406
20:53:47:932,1.445,-0.5261,13.0701,43.9823,0.0485,0.1887,0.2945,197.0312
20:53:47:951,3.0575,0.0365,10.1886,44.0136,0.0517,0.2012,0.5696,197.5469
20:53:47:968,5.0507,0.7464,8.5821,44.4386,-0.0125,-0.1772,0.4897,197.4844
20:53:47:988,5.7701,1.4563,8.0913,42.7287,-0.1081,-0.4209,0.1536,196.9375
20:53:48:009,5.1728,1.7472,8.0793,44.5109,-0.2157,-0.3146,-0.2294,196.2812
20:53:48:034,4.1337,1.4742,7.6149,44.2591,-0.3225,0.0729,-0.488,195.9375
20:53:48:050,2.9761,1.2755,6.5818,44.7608,-0.4378,0.3863,-0.6137,196.0156
20:53:48:068,2.022,1.2384,5.9162,44.2625,-0.4991,0.4894,-0.6494,196.4844
20:53:48:093,1.2607,1.2995,5.7713,46.386,-0.441,0.3879,-0.6259,197.1094
20:53:48:117,0.6346,1.4683,5.9306,44.4879,-0.2831,0.1751,-0.5663,197.8125
20:53:48:133,0.3126,1.746,5.9892,45.2091,-0.1241,-0.0643,-0.4813,198.4844
20:53:48:152,0.358,2.1231,6.3448,45.7579,-0.0429,-0.2781,-0.4376,198.8281
20:53:48:170,0.4442,2.5181,7.1576,46.3085,-0.0077,-0.3945,-0.4424,199.4688
20:53:48:189,0.5233,2.6845,8.1775,45.7063,0.037,-0.4148,-0.4557,200.0156
20:53:48:212,0.5843,2.7611,9.0382,44.2222,0.078,-0.3088,-0.4392,200.5156
20:53:48:234,0.8189,2.9993,9.5709,44.9996,0.0461,-0.0992,-0.4411,201.3281
20:53:48:250,0.959,3.1322,10.0618,45.3987,-0.0511,0.1927,-0.4904,201.8594
20:53:48:268,0.728,3.1574,10.3826,44.7636,-0.1843,0.4929,-0.5223,202.3594
20:53:48:288,-0.0574,2.4989,11.6,44.9702,-0.3209,0.6537,-0.4853,202.8906
20:53:48:308,-0.0681,2.0716,12.9575,46.7274,-0.3896,0.6425,-0.3428,203.4531
20:53:48:333,0.6166,1.7472,14.0613,44.2621,-0.2746,0.4106,-0.1295,203.9688
20:53:48:349,1.5791,1.5664,14.8071,46.4955,-0.0088,-0.019,0.042,204.4062
20:53:48:370,2.447,1.4419,14.9339,45.2967,0.2887,-0.4249,0.1091,204.6406
20:53:48:388,2.7594,1.1522,15.0956,47.4034,0.4322,-0.6584,0.0673,204.6719
20:53:48:409,2.3345,0.6925,14.7807,46.5175,0.436,-0.533,-0.0118,204.5781
20:53:48:433,1.615,0.2592,12.8666,46.0711,0.4485,-0.0084,-0.0419,204.5156
20:53:48:450,1.0847,0.0341,10.1779,45.9944,0.4285,0.6162,0.0234,204.5312
20:53:48:467,0.7292,-0.0257,8.0195,48.0294,0.3047,0.9136,0.1571,204.5938
20:53:48:487,0.6968,0.0533,7.5945,46.6172,0.0956,0.655,0.3232,204.5781
20:53:48:507,0.9315,0.24,8.575,46.2407,-0.0924,0.0944,0.4734,204.2656
20:53:48:532,1.0955,0.4818,9.5422,48.4351,-0.1063,-0.3783,0.5717,203.8281
20:53:48:550,1.1613,0.5297,9.62,47.6584,0.0253,-0.5527,0.6231,203.2812
20:53:48:568,0.8656,0.6782,8.9927,47.0495,0.1619,-0.4837,0.6503,202.6562
20:53:48:592,0.7782,0.7931,7.9944,47.6828,0.2501,-0.3024,0.6982,202.3594
20:53:48:607,0.9063,0.9703,6.9852,48.5791,0.2919,-0.1192,0.7653,201.6875
20:53:48:628,1.111,1.1642,6.1221,46.4452,0.3015,0.0098,0.8071,200.9531
20:53:48:649,1.3828,1.3162,5.4613,47.2264,0.2985,0.0404,0.8143,200.125
20:53:48:668,1.615,1.5114,5.1441,46.5193,0.293,-0.0475,0.7904,199.2656
20:53:48:689,1.7467,1.74,5.0663,47.7711,0.2924,-0.2235,0.7289,198.3281
20:53:48:708,1.7766,1.9746,5.1884,47.8646,0.289,-0.4526,0.6234,197.3906
20:53:48:728,1.8029,2.1111,5.8671,48.8032,0.2242,-0.6409,0.5022,196.1719
20:53:48:749,1.6401,1.9974,7.3192,46.9732,0.089,-0.6979,0.3943,195.5
20:53:48:768,1.5731,2.1279,8.8922,49.3272,-0.0551,-0.4803,0.3738,195
20:53:48:789,2.0591,2.742,9.8199,48.9332,-0.1526,-0.0355,0.426,194.6406
20:53:48:809,3.2155,3.0843,10.1922,49.6684,-0.2029,0.2907,0.3696,194.2656
20:53:48:833,4.0008,2.7539,10.9201,48.6349,-0.2799,0.2785,0.0932,193.7969
20:53:48:849,3.5878,1.6346,12.7253,48.4802,-0.42,0.0111,-0.2786,193.375
20:53:48:868,2.86,0.3777,14.0625,49.8866,-0.4986,-0.0267,-0.4725,193.25
20:53:48:888,2.6744,-0.0221,13.2592,50.2024,-0.4338,0.3831,-0.3386,193.5938
20:53:48:910,3.364,0.422,11.7975,50.5881,-0.3774,0.695,-0.0488,194.1562
20:53:48:934,4.3013,0.9415,11.5198,51.4662,-0.4141,0.4407,0.12,194.5156
20:53:48:951,4.2295,0.8793,12.9839,49.1124,-0.4895,-0.2369,-0.0142,194.5156
20:53:48:970,3.4609,-0.009,14.0529,49.911,-0.3297,-0.3053,-0.3649,194.3594
20:53:48:989,2.7271,-0.6782,13.3023,52.9678,-0.1553,0.2609,-0.1697,194.3594
20:53:49:009,3.0336,-0.4507,11.2241,50.7252,0.0186,0.4327,0.05,194.4062
20:53:49:032,4.0308,0.3238,9.1543,51.817,0.135,0.1884,0.0298,195.0469
20:53:49:051,4.5168,1.2085,7.8447,52.8596,0.1414,-0.1969,-0.2145,195.0469
20:53:49:072,4.3839,1.6969,7.5335,51.6935,0.0911,-0.3482,-0.5868,195.4219
20:53:49:088,3.5387,1.564,7.1516,52.2315,-0.0144,-0.2326,-0.9287,195.2812
20:53:49:107,2.3392,1.1103,6.6871,53.5033,-0.1689,-0.0017,-1.0904,195.5469
20:53:49:134,1.3684,0.7033,6.4094,52.4777,-0.3097,0.2036,-1.0728,196.2031
20:53:49:152,0.7543,0.6183,6.504,53.7026,-0.3401,0.349,-0.9545,197.2969
20:53:49:169,0.5675,0.6997,6.5267,54.5118,-0.2493,0.3789,-0.811,198.5469
20:53:49:187,0.6466,1.0397,6.4453,54.5072,-0.1079,0.2998,-0.6965,199.7188
20:53:49:207,0.892,1.5233,6.2861,56.1544,0.0109,0.1389,-0.6496,200.7969
20:53:49:235,1.1242,1.9172,6.3328,54.9574,0.0546,-0.0733,-0.6664,201.7031
20:53:49:252,1.3265,2.1937,6.9122,54.9574,0.0314,-0.2622,-0.6914,202.4844
20:53:49:270,1.4223,2.3828,8.375,56.7877,0.0642,-0.3034,-0.693,203.1875
20:53:49:287,1.4821,2.5947,9.9468,56.18,0.2296,-0.2102,-0.6733,203.9531
20:53:49:307,1.5767,2.8389,10.3287,57.3157,0.3681,-0.0225,-0.6664,205.5312
20:53:49:333,1.5456,3.1753,9.5578,57.9319,0.2775,0.1786,-0.6853,205.9219
20:53:49:352,1.6366,3.3956,9.0358,58.7551,-0.0304,0.3395,-0.7412,206.6875
20:53:49:369,1.5887,3.3178,9.8499,58.5944,-0.3513,0.345,-0.7961,207.4375
20:53:49:387,1.372,2.9467,11.8562,58.0102,-0.4607,0.3429,-0.7846,208.1875
20:53:49:409,0.9303,2.475,13.4735,59.6103,-0.3611,0.4129,-0.6683,209.0625
20:53:49:433,0.71,2.1745,13.9667,58.3939,-0.2195,0.3964,-0.4691,209.9531
20:53:49:449,0.8345,2.3194,14.0014,59.4782,-0.1489,0.169,-0.3226,210.7344
20:53:49:467,1.0907,2.3098,14.849,58.4406,-0.0559,-0.1333,-0.2893,211.3594
20:53:49:488,0.9386,1.6382,16.0628,58.8309,0.2211,-0.1109,-0.2501,211.7812
20:53:49:508,0.3233,0.7596,15.5612,59.5504,0.5811,0.2806,-0.0706,212.1094
20:53:49:532,-0.0119,0.325,12.7301,60.1073,0.7633,0.5557,0.1837,212.2656
20:53:49:548,0.0851,0.3657,9.9468,60.1863,0.7217,0.3837,0.3752,212.5625
20:53:49:569,0.5244,0.4651,8.7306,60.1348,0.5736,-0.1367,0.4463,212.625
20:53:49:587,0.813,0.4184,9.0502,60.6452,0.4679,-0.5594,0.4362,212.4062
20:53:49:611,0.5711,0.3945,9.7541,60.4296,0.4408,-0.6374,0.4471,211.9531
20:53:49:634,0.2372,0.3478,9.8367,59.7379,0.4549,-0.4504,0.5259,211.2344
20:53:49:648,0.3401,0.2041,9.1268,60.3427,0.4839,-0.1572,0.6239,210.8281
20:53:49:671,0.2024,0.3585,7.8687,59.7563,0.4842,0.1203,0.7382,210.3438
20:53:49:688,0.7136,0.9044,5.3954,57.4028,0.4597,0.2758,0.8743,209.7188
20:53:49:757,1.032,1.3737,4.7658,59.4209,0.4019,0.2697,0.9371,208.9375
20:53:49:757,1.3229,1.7376,4.8663,60.8653,0.2985,0.1312,0.9214,208.0156
20:53:49:757,1.5312,2.0704,5.6337,59.4799,0.1933,-0.064,0.8391,206.9375
20:53:49:766,1.5899,2.2966,6.826,60.7621,0.1385,-0.2694,0.7051,205.8281
20:53:49:788,1.5599,2.3206,7.4233,59.7132,0.1888,-0.3681,0.5557,204.8594
20:53:49:810,1.4965,2.5157,7.6975,58.7339,0.253,-0.4025,0.4282,203.9844
20:53:49:832,1.6102,2.8126,8.1751,59.0561,0.2344,-0.3964,0.336,203.3125
20:53:49:850,1.9741,3.1011,8.3954,61.1729,0.1883,-0.2851,0.2362,202.8281
20:53:49:867,2.3452,3.2424,8.5043,60.2489,0.1124,-0.1375,0.067,202.4375
20:53:49:890,2.5284,3.0185,8.9269,59.1067,-0.0357,-0.0816,-0.1756,202.1562
20:53:49:908,2.4458,2.2715,9.8008,59.338,-0.2386,-0.0925,-0.4632,201.9844
20:53:49:932,2.028,1.2444,11.2816,60.6313,-0.4756,-0.1287,-0.6861,202.2031
20:53:49:951,1.8053,0.1802,12.5613,59.6577,-0.674,-0.0491,-0.7202,202.7656
20:53:49:969,1.9059,-0.2556,12.5038,61.1404,-0.7523,0.2004,-0.5641,203.5781
20:53:49:988,2.447,0.021,11.5569,60.8943,-0.7931,0.4556,-0.3018,204.3906
20:53:50:007,2.866,0.0533,12.1495,60.3903,-0.9185,0.3573,-0.1596,205.0312
20:53:50:033,2.131,-0.5118,13.5429,59.7503,-0.992,0.0849,-0.2046,205.2344
20:53:50:050,1.1469,-1.0074,13.5704,60.1641,-0.8698,0.152,-0.1732,205.4375
20:53:50:066,1.5061,-0.9128,12.0477,61.6474,-0.6019,0.4178,0.1448,205.625
20:53:50:090,3.3652,-0.2065,10.5633,60.3905,-0.3076,0.3714,0.577,205.8906
20:53:50:107,4.9836,0.9212,9.4249,61.3173,-0.0365,-0.0723,0.7842,205.9219
20:53:50:132,5.4924,1.7915,8.7449,60.748,0.1441,-0.6355,0.6063,205.5
20:53:50:150,4.6628,1.9543,8.5103,62.1166,0.1427,-0.9008,0.1603,204.6562
20:53:50:167,3.3245,1.6275,8.1955,60.3691,0.0037,-0.6917,-0.2765,203.8281
20:53:50:187,2.1405,1.3605,7.3,61.0323,-0.1619,-0.15,-0.5268,203.4531
20:53:50:209,1.3696,1.4563,6.4728,59.8562,-0.3127,0.3656,-0.5993,203.8281
20:53:50:235,1.1062,1.7197,5.9102,61.4307,-0.3912,0.6247,-0.5591,204.4375
20:53:50:255,0.9398,2.1362,5.7402,60.9203,-0.3609,0.6068,-0.4975,205.0781
20:53:50:270,1.0164,2.5564,5.824,61.6567,-0.2437,0.3949,-0.4395,205.6875
20:53:50:288,1.2978,3.0053,6.0515,61.0553,-0.0871,0.1184,-0.4105,206.2344
20:53:50:309,1.3864,3.2974,6.6548,62.7585,0.0152,-0.1506,-0.456,206.6875
20:53:50:333,1.3193,3.3465,7.6544,61.0774,0.0621,-0.3532,-0.5394,207.1562
20:53:50:349,1.39,3.2639,8.5474,60.7303,0.0804,-0.4467,-0.6083,207.6875
20:53:50:367,1.6066,3.1227,9.4608,61.3486,0.0415,-0.3748,-0.6456,208.3281
20:53:50:387,2.0244,2.8665,10.3981,61.3051,-0.1348,0.0851,-0.7364,209.0156
20:53:50:408,2.2614,2.3445,11.3211,60.7405,-0.2048,0.3094,-0.7711,209.0156
20:53:50:433,1.7778,1.5928,12.0094,60.6373,-0.2184,0.4753,-0.6688,209.7656
20:53:50:450,0.8572,0.9834,12.4308,61.8257,-0.1433,0.515,-0.3484,211.3594
20:53:50:467,0.4251,0.8122,12.5374,61.7419,0.0328,0.4684,0.0841,212.2344
20:53:50:487,0.534,1.0241,12.0441,62.0793,0.2048,0.4409,0.4607,212.9688
20:53:50:507,0.9554,1.6263,10.8291,62.9568,0.1739,0.2619,0.6756,213.3438
20:53:50:527,1.5575,2.5313,10.5442,63.4549,-0.0882,-0.1261,0.6444,213.2188
20:53:50:551,2.0077,2.6713,12.5984,61.8658,-0.2645,-0.3905,0.4319,212.6562
20:53:50:571,1.3672,1.9112,15.0692,59.6653,-0.0892,-0.2185,0.3025,211.875
20:53:50:586,0.3664,1.1283,15.3481,61.8871,0.2823,0.1277,0.3741,211.1875
20:53:50:607,0.0839,0.6422,13.1156,60.1305,0.4791,0.1714,0.5118,210.7188
20:53:50:626,0.1797,0.6004,11.2409,59.857,0.4037,-0.2052,0.584,210.375
20:53:50:649,0.3138,0.519,11.5438,59.6305,0.3475,-0.4952,0.5794,209.9688
20:53:50:667,0.4478,0.082,12.1663,59.5654,0.4599,-0.3887,0.5669,209.375
20:53:50:691,0.2336,-0.2975,11.533,58.9867,0.6482,-0.0265,0.6356,208.7188
20:53:50:705,-0.019,-0.4914,9.6416,59.2794,0.7944,0.3533,0.7771,208.0781
20:53:50:728,0.0085,-0.501,7.4138,57.2026,0.8131,0.5829,0.9328,207.4844
20:53:50:753,0.2264,-0.41,5.6181,58.303,0.7201,0.6492,1.0838,206.3125
20:53:50:769,0.4849,-0.1622,4.5922,59.4117,0.5774,0.5743,1.2226,205.3281
20:53:50:789,0.8201,0.1658,4.081,57.0025,0.4075,0.4604,1.3083,204.0938
20:53:50:807,1.6461,0.5154,3.8201,57.5452,0.2298,0.299,1.2687,202.6875
20:53:50:827,1.5372,1.1271,4.1708,58.6291,0.1252,0.1557,1.1038,201.1719
20:53:50:849,1.6761,1.8489,4.4677,58.6311,-0.0226,-0.0536,1.0349,199.6875
20:53:50:872,2.6373,2.0069,5.3679,57.2055,-0.1435,-0.2478,0.7414,198.3125
20:53:50:888,2.2878,2.3194,6.4729,58.1716,-0.3132,-0.3431,0.4841,197.0625
20:53:50:909,2.2375,2.3709,8.2673,55.5041,-0.4453,-0.2792,0.3347,196.0938
20:53:50:935,2.6577,2.3816,10.1479,55.2286,-0.4442,-0.1543,0.168,195.4531
20:53:50:951,3.0036,2.7168,11.6024,58.7239,-0.3436,-0.0717,-0.0712,195.0469
20:53:50:967,3.2634,2.6773,12.8295,55.7847,-0.1593,0.0268,-0.3908,194.7812
20:53:50:987,2.9665,2.2524,12.9073,56.0843,-0.0117,0.2505,-0.6374,194.7344
20:53:51:007,2.5583,1.7077,11.7808,56.8174,-0.1033,0.5019,-0.718,194.8281
20:53:51:028,2.8827,1.4742,10.5334,56.7276,-0.4613,0.5509,-0.7929,195.2656
20:53:51:049,3.5423,1.4335,10.1791,56.5932,-0.9627,0.3171,-1.0046,195.9375
20:53:51:068,3.8057,1.0409,11.3869,55.8043,-1.4101,0.0063,-1.3127,197.125
20:53:51:087,0.7663,-1.3545,15.159,55.3103,-1.5185,0.0598,-1.5045,198.0781
20:53:51:111,-0.8798,-1.9854,13.5788,56.3732,-1.2003,0.5099,-1.3237,199.3281
20:53:51:136,-0.4751,-1.9267,11.0302,58.5608,-0.7808,0.6969,-0.7362,200.9688
20:53:51:152,1.4534,-1.406,10.5286,56.6189,-0.5422,0.2521,-0.097,202.625
20:53:51:169,2.8588,-0.5357,11.4863,56.959,-0.2964,-0.6994,0.2143,203.7969
20:53:51:186,3.6369,0.1466,11.7066,55.7147,0.0655,-1.4558,0.2324,204.1875
20:53:51:209,3.6285,0.4256,10.2688,56.3851,0.4442,-1.4699,0.0694,204.0625
20:53:51:232,2.9306,0.6554,7.9129,56.7576,0.6352,-0.9013,-0.1796,203.7969
20:53:51:251,2.3464,0.8386,5.7546,57.7901,0.543,-0.1951,-0.3745,203.6406
20:53:51:269,1.8784,1.0337,4.433,58.1678,0.2458,0.3474,-0.5367,203.7344
20:53:51:286,1.2403,1.1833,4.1397,58.6055,-0.1238,0.6628,-0.6967,204.0625
20:53:51:308,0.6585,1.3078,4.7873,58.6055,-0.4016,0.7458,-0.7908,204.5625
20:53:51:338,0.3293,1.3964,5.678,57.458,-0.4802,0.6636,-0.8107,205.2188
20:53:51:354,-0.0322,1.4216,6.4166,56.9205,-0.3798,0.4859,-0.778,206.0625
20:53:51:370,-0.5338,1.4204,7.2354,57.7737,-0.2072,0.2998,-0.6749,207.375
20:53:51:386,-0.796,1.6131,8.2063,56.946,-0.0511,0.2106,-0.4624,208.2344
20:53:51:408,-0.4297,2.1817,8.8623,56.0825,0.0682,0.2476,-0.2051,209
20:53:51:426,0.1115,2.9084,9.5314,57.9376,0.1313,0.3235,-0.069,209.5312
20:53:51:447,0.3545,3.2687,10.5286,56.8343,0.1515,0.3179,-0.1183,209.7344
20:53:51:467,0.0109,2.9706,11.2493,58.1113,0.1702,0.344,-0.2738,209.8125
20:53:51:487,-0.8462,2.2464,12.1914,58.4269,0.1177,0.3861,-0.3985,209.8594
20:53:51:507,-1.5597,1.1714,13.9475,57.3755,0.025,0.3214,-0.3508,210.0625
20:53:51:527,-1.8362,0.7404,14.7544,57.3442,0.0575,0.4124,-0.1103,210.4375
20:53:51:553,-1.1539,1.0565,14.1056,57.6718,0.2301,0.601,0.2583,210.8906
20:53:51:569,-0.1639,1.5928,13.0593,56.947,0.3731,0.5698,0.5118,211.1875
20:53:51:589,0.2886,1.5736,12.9396,58.0247,0.3265,0.2281,0.5352,211.0938
20:53:51:607,0.0073,0.6375,14.242,57.0167,0.1635,-0.341,0.4175,210.625
20:53:51:626,-0.0741,-0.6422,15.147,58.1845,0.176,-0.705,0.3925,209.9844
20:53:51:648,0.0959,-1.2336,13.6782,58.0974,0.4551,-0.4936,0.5304,209.2656
20:53:51:666,0.4897,-1.1486,10.5047,56.7401,0.7108,0.0737,0.7344,208.8594
20:53:51:686,0.8309,-0.6387,8.3762,56.7444,0.6423,0.3472,0.8785,208.2969
20:53:51:709,1.0368,-0.2532,8.1667,56.7072,0.3526,0.1355,0.9126,207.5156
20:53:51:725,0.9051,-0.0042,8.5474,57.9474,0.1422,-0.1429,0.8631,206.5156
20:53:51:749,0.6202,0.1478,8.1991,54.9199,0.1113,-0.2257,0.8064,205.4844
20:53:51:767,0.3676,0.4364,7.3072,55.9389,0.1302,-0.1343,0.7869,204.5
20:53:51:828,0.3078,0.7572,6.5961,54.0583,0.0938,0.0082,0.7957,203.6562
20:53:51:829,0.2862,1.0624,6.334,55.6355,-0.0399,0.1562,0.7565,202.7656
20:53:51:829,0.2731,1.248,6.3483,53.7269,-0.032,0.0998,0.7243,201.8594
20:53:51:846,0.3209,1.3509,6.5231,55.3073,0.0298,-0.0259,0.6966,201
20:53:51:869,0.3425,1.4395,6.8128,54.6968,0.1358,-0.2121,0.6902,199.2812
20:53:51:886,0.4814,1.4371,7.476,55.0446,0.2818,-0.3434,0.6969,199.2812
20:53:51:908,0.789,1.5604,7.7789,54.2402,0.3981,-0.4196,0.6679,198.5156
20:53:51:927,1.0931,1.7675,8.0554,54.4592,0.4157,-0.4374,0.5781,197.375
20:53:51:951,1.3804,1.9399,8.4433,54.49,0.355,-0.3487,0.4476,197
20:53:51:970,1.7599,2.0967,8.9161,54.3688,0.2381,-0.1223,0.2889,196.2812
20:53:51:985,2.1178,2.3302,9.3782,53.7858,0.0879,0.2087,0.0854,195.6875
20:53:52:006,2.2842,2.3026,9.8427,53.3944,-0.0716,0.4774,-0.1439,195.2188
20:53:52:026,2.1094,1.8693,10.6735,52.6246,-0.1776,0.6297,-0.3082,194.9062
20:53:52:051,2.0076,1.4874,11.442,53.1723,-0.1808,0.6236,-0.3972,194.7812
20:53:52:071,2.1357,1.1702,11.8071,53.6852,-0.1321,0.4835,-0.4824,194.8906
20:53:52:086,2.4087,0.7608,11.5593,53.4923,-0.22,0.3826,-0.5785,195.1719
20:53:52:106,2.672,0.5836,11.2828,54.1782,-0.5209,0.3594,-0.7199,195.5469
20:53:52:126,2.6876,0.5549,11.9628,54.0678,-0.8786,0.2867,-0.945,196.0469
20:53:52:152,1.9586,-0.2149,13.6195,54.7291,-1.0203,0.3802,-1.1335,196.6562
20:53:52:169,0.1019,-1.2599,15.1806,54.9568,-0.7662,0.7056,-0.9601,197.4219
20:53:52:187,-0.7828,-1.9854,14.7053,54.8879,-0.2594,0.8534,-0.435,198.3906
20:53:52:205,0.54,-1.8358,12.7085,54.5076,0.2216,0.54,0.0359,200.1875
20:53:52:227,2.3596,-0.7093,10.7381,54.8715,0.5342,-0.1192,0.1661,200.9219
20:53:52:250,3.7602,0.4818,9.6212,52.4158,0.6972,-0.5996,-0.0504,201.0625
20:53:52:268,4.3157,1.163,8.7593,53.5806,0.6969,-0.5551,-0.5071,200.9062
20:53:52:286,3.9493,1.2276,7.5897,54.4389,0.5372,-0.0739,-0.9793,200.875
20:53:52:306,2.9977,1.0145,6.1472,53.0858,0.2948,0.4428,-1.3178,201.2344
20:53:52:326,1.961,0.7584,4.8747,53.5033,0.0506,0.7024,-1.5079,202.1719
20:53:52:352,0.9985,0.6028,4.3288,54.0467,-0.0855,0.5962,-1.5585,203.5156
20:53:52:368,0.1545,0.5226,4.4677,54.183,-0.0866,0.2383,-1.4952,205.0469
20:53:52:386,-0.3267,0.6051,5.0064,54.4554,-0.0011,-0.1378,-1.3767,206.75
20:53:52:407,-0.5278,0.8936,5.6085,54.1121,0.0682,-0.3951,-1.2778,208.4688
20:53:52:427,-0.6822,1.2803,6.2993,52.6375,0.1017,-0.4987,-1.2222,210.1094
20:53:52:450,-0.7744,1.5389,6.8751,53.3557,0.0815,-0.5034,-1.1878,211.5781
20:53:52:468,-0.8582,1.8872,7.3276,53.5431,-0.0477,-0.3908,-1.1716,212.3125
20:53:52:487,-1.2556,2.3421,8.909,53.9399,-0.2607,-0.1961,-1.178,213.75
20:53:52:508,-1.7788,2.4822,10.0953,52.5753,-0.4671,0.0803,-1.1713,215.7812
20:53:52:527,-2.345,2.3661,11.0254,53.6073,-0.5734,0.4026,-1.1143,217.125
20:53:52:549,-3.1602,2.1745,12.0609,51.9898,-0.5856,0.593,-1.0049,218.4531
20:53:52:567,-3.9168,1.9782,13.1455,53.5507,-0.5017,0.5893,-0.7846,219.6406
20:53:52:585,-4.2292,1.9052,13.8087,54.5684,-0.3159,0.5006,-0.464,220.7969
20:53:52:605,-3.8402,2.1123,14.8178,53.5589,-0.143,0.3072,-0.0917,221.7656
20:53:52:626,-2.7149,2.0512,16.4088,54.7058,0.0173,-0.059,0.2167,222.4219
20:53:52:650,-1.282,1.2528,17.3377,53.2537,0.2242,-0.3623,0.3808,222.6875
20:53:52:671,-0.2106,0.2041,17.0959,53.2596,0.4373,-0.3463,0.425,222.5938
20:53:52:686,0.4155,-0.4076,15.6366,54.1376,0.5814,0.054,0.4676,222.2344
20:53:52:705,0.886,-0.6901,13.0904,53.4656,0.6978,0.6428,0.527,221.8438
20:53:52:726,1.4965,-0.8757,10.355,53.1569,0.7984,0.9038,0.5776,221.1562
20:53:52:750,1.9191,-0.7177,8.0925,52.3634,0.8647,0.6886,0.6061,220.5938
20:53:52:768,2.2459,-0.2999,6.7159,51.2308,0.8083,0.1674,0.581,220.0156
20:53:52:785,2.5918,0.0916,6.2681,52.1744,0.6016,-0.3037,0.4865,219.375
20:53:52:808,2.6098,0.3118,6.158,51.044,0.3148,-0.5335,0.2846,218.8125
20:53:52:825,2.2854,0.4076,6.4058,52.1217,0.0362,-0.5327,0.0348,218.3594
20:53:52:846,1.7383,0.507,6.917,50.6224,-0.1673,-0.4318,-0.1841,218.2188
20:53:52:869,1.2607,0.5154,7.075,52.2288,-0.2019,-0.3277,-0.3231,218.1094
20:53:52:886,0.7507,0.6434,6.7554,49.6126,-0.0924,-0.2726,-0.3753,218.25
20:53:52:906,0.4502,0.8925,6.3256,51.8775,0.0485,-0.316,-0.329,218.5469
20:53:52:926,0.5508,1.1295,6.1029,51.1626,0.1553,-0.4182,-0.2264,218.9688
20:53:52:950,0.6873,1.4335,6.2765,50.8766,0.2139,-0.5114,-0.1473,219.4062
20:53:52:966,0.8656,1.7376,6.1867,48.5766,0.2493,-0.537,-0.1034,219.7656
20:53:52:985,1.0033,2.1302,6.0682,49.3452,0.2498,-0.5282,-0.0808,220.0156
20:53:53:005,1.4187,2.5468,6.5495,49.7305,0.2178,-0.688,-0.0195,220.3125
20:53:53:026,2.5894,2.6498,7.3036,49.5298,0.2368,-0.8936,0.1009,220.4844
20:53:53:052,3.6237,3.0305,7.8112,49.4929,0.3148,-1.0007,0.1496,220.5781
20:53:53:068,4.6485,3.6961,7.4269,50.8632,0.359,-0.9338,-0.0051,220.5625
20:53:53:085,4.6975,3.7344,7.3276,46.8754,0.1822,-1.0244,-0.4805,220.5156
20:53:53:106,3.3544,2.0776,10.3742,47.0801,-0.3601,-1.4739,-1.142,220.6406
20:53:53:126,2.2064,-0.3968,14.9974,47.6371,-0.8685,-1.8377,-1.5141,221.3125
20:53:53:151,1.6761,-1.7077,17.2144,45.2765,-0.8743,-1.6547,-1.4163,222.7656
20:53:53:166,1.8939,-1.4814,15.341,47.7317,-0.493,-0.8411,-1.0083,224.5938
20:53:53:185,3.1928,-0.3274,12.4631,46.8639,-0.2906,-0.0728,-0.587,226.375
20:53:53:209,4.3037,0.7081,11.7604,46.4791,-0.8914,-0.2337,-0.827,227.6094
20:53:53:225,4.3276,0.8517,13.7572,45.5766,-0.9214,-0.5266,-1.2384,227.6094
20:53:53:246,4.1684,-0.173,15.4116,46.2797,-0.506,-0.2891,-1.5506,228.2969
20:53:53:269,3.8799,-1.0636,13.4172,48.1039,-0.1742,0.1003,-1.7351,228.8594
20:53:53:285,3.5675,-1.1558,10.2641,45.9445,-0.2639,0.0145,-1.8566,231.3125
20:53:53:305,3.5292,-0.9236,9.371,46.1456,-0.5246,-0.2433,-2.0358,233.0312
20:53:53:327,3.1796,-0.9032,10.2497,44.6525,-0.5904,-0.1221,-2.2342,237.1562
20:53:53:353,2.2567,-1.0756,10.1755,45.7943,-0.4458,0.3421,-2.3263,237.1562
20:53:53:369,1.1697,-1.0397,8.4325,48.358,-0.2714,0.7957,-2.2558,239.3906
20:53:53:387,0.4395,-0.7931,6.0946,48.358,-0.1776,0.9738,-2.0747,241.9688
20:53:53:404,0.1964,-0.2556,4.1828,47.7701,-0.1846,0.8122,-1.8861,244.625
20:53:53:425,0.2982,0.4256,3.4334,46.6559,-0.2301,0.4185,-1.7615,247.1875
20:53:53:451,0.5268,1.0959,3.7171,47.3308,-0.2474,-0.0382,-1.7386,249.4219
20:53:53:468,0.6298,1.6143,4.4916,47.7969,-0.2384,-0.3684,-1.7956,251.5625
20:53:53:485,0.6094,1.8465,5.405,45.1035,-0.2565,-0.5255,-1.8867,253.5625
20:53:53:505,0.3952,1.8621,6.3053,47.1154,-0.3345,-0.5109,-1.9748,255.4531
20:53:53:525,-0.1447,1.746,7.3,45.7329,-0.4615,-0.3884,-2.0076,257.5156
20:53:53:552,-0.7852,1.5652,8.6336,45.7718,-0.5691,-0.222,-1.942,259.6875
20:53:53:570,-1.6734,1.5892,10.2545,46.5013,-0.5822,0.0311,-1.7839,261.9375
20:53:53:584,-2.8035,1.6861,11.6359,44.084,-0.482,0.3232,-1.5167,265.2656
20:53:53:605,-3.5888,1.7915,12.2225,44.6087,-0.3974,0.5613,-1.1663,267.4062
20:53:53:626,-3.9156,2.1446,12.4129,45.9748,-0.4354,0.515,-0.8115,269.2344
20:53:53:651,-3.833,2.4523,13.9032,43.4353,-0.4088,0.1871,-0.5159,270.7812
20:53:53:667,-3.5912,2.2164,15.979,44.3912,-0.1531,-0.0763,-0.2544,271.9219
20:53:53:685,-3.4332,1.4587,16.9128,42.9239,0.183,-0.1626,0.0918,272.6719
20:53:53:705,-2.9507,0.8266,16.7069,44.8721,0.4211,-0.1716,0.5201,273.0938
20:53:53:726,-1.6303,0.5297,16.4004,43.3114,0.5657,-0.235,0.8506,273.2031
20:53:53:751,-0.1268,0.1562,16.568,43.733,0.7952,-0.1721,1.0404,272.8438
20:53:53:768,0.9542,-0.4304,15.3793,44.5647,1.1082,0.1456,1.1337,272.0781
20:53:53:785,1.3923,-0.6135,12.1292,44.4338,1.2024,0.2912,1.1842,270.9844
20:53:53:811,1.9023,-0.4531,9.0957,43.3065,0.9505,0.0292,1.1757,269.7344
20:53:53:824,2.2243,-0.1598,8.2541,43.2635,0.5936,-0.3793,1.0854,268.4062
20:53:53:893,2.2387,-0.0988,9.1268,44.4145,0.452,-0.5269,0.9723,267.7969
20:53:53:893,1.8891,-0.2328,9.2836,46.9189,0.5073,-0.4209,0.9001,266.4531
20:53:53:893,1.3026,-0.4004,8.2074,43.8124,0.5896,-0.218,0.943,265.2188
20:53:53:905,1.0009,-0.3633,5.3105,45.5558,0.6192,-0.0523,1.0998,263.6719
20:53:53:927,1.5611,0.0233,4.3839,45.5704,0.6133,-0.0046,1.2913,262.6562
20:53:53:953,2.4159,0.6901,3.9482,43.0012,0.5896,-0.116,1.4301,261.4844
20:53:53:968,3.1724,1.5377,4.1493,44.3283,0.5401,-0.3325,1.4338,260.1875
20:53:53:985,3.5304,2.1398,5.0483,42.0027,0.4698,-0.5136,1.2524,258.6094
20:53:54:009,3.4466,2.4882,6.1891,44.948,0.4346,-0.5277,0.9323,256.9531
20:53:54:024,2.9809,2.4511,6.9852,44.1727,0.449,-0.3812,0.5832,255.3906
20:53:54:044,2.4099,2.3972,7.1612,43.8126,0.4541,-0.1705,0.279,254.2344
20:53:54:068,2.0436,2.4164,7.1743,44.1618,0.367,-0.0715,0.0513,253.3906
20:53:54:086,1.9885,2.2966,7.6771,42.3617,0.1598,-0.1096,-0.138,252.9062
20:53:54:104,2.0519,1.7651,8.8994,44.6053,-0.1198,-0.1951,-0.3282,252.7344
20:53:54:128,2.3189,0.9834,10.5729,43.9983,-0.3899,-0.2654,-0.4688,252.7812
20:53:54:151,2.6852,0.2903,12.6403,45.6827,-0.6053,-0.2733,-0.538,253.0625
20:53:54:170,3.2682,-0.1059,14.2133,45.1435,-0.7175,-0.1418,-0.5386,253.5312
20:53:54:187,4.3049,-0.3083,14.1929,45.3908,-0.7081,0.1418,-0.5125,254.5156
20:53:54:205,4.9094,-0.0485,13.3789,45.8979,-0.7334,0.3576,-0.5756,255.1875
20:53:54:229,4.5742,-0.1909,13.926,45.8362,-0.9422,0.2217,-0.8046,255.7812
20:53:54:251,2.9761,-0.9774,15.6223,44.4488,-1.151,-0.0574,-1.0821,256.4375
20:53:54:268,1.2247,-1.1905,15.6582,46.069,-1.048,0.0404,-1.0981,257.3906
20:53:54:285,1.6294,-0.422,14.2588,44.8597,-0.629,0.1935,-0.6515,258.6875
20:53:54:310,4.6221,0.6423,12.1782,46.1768,0.024,-0.1202,-0.0256,259.9219
20:53:54:324,7.2881,1.3449,8.9257,44.8791,0.7111,-0.7074,0.1347,260.6875
20:53:54:345,7.6149,1.9076,5.5666,46.5726,0.999,-1.0443,-0.4025,260.7188
20:53:54:366,6.0132,1.8621,3.8811,45.4133,0.588,-0.8342,-1.3138,260.6094
20:53:54:386,3.5651,0.9858,3.5986,46.3655,-0.2474,-0.0885,-2.1799,260.6562
20:53:54:404,0.8884,0.155,3.9362,47.641,-1.0312,0.8617,-2.7157,261.625
20:53:54:425,-1.3981,-0.1514,4.9741,47.5184,-1.5095,1.5674,-2.8233,263.6719
20:53:54:451,-3.0202,0.1095,6.5746,49.835,-1.5388,1.8513,-2.545,266.4219
20:53:54:467,-3.5313,0.7057,7.743,46.423,-1.1257,1.7744,-2.0267,269.6719
20:53:54:484,-2.9591,1.1103,7.9716,47.7432,-0.4938,1.5363,-1.4419,274.1719
20:53:54:505,-2.1439,1.5485,6.8607,48.6495,0.0983,1.2268,-0.8992,276.3594
20:53:54:525,-1.6555,2.3026,5.8743,48.6996,0.4527,0.8247,-0.4773,278
20:53:54:545,-0.9612,2.8114,6.1652,48.8933,0.4962,0.2265,-0.2336,279.0312
20:53:54:569,-0.2441,2.8665,7.7418,48.483,0.3422,-0.3578,-0.1758,279.5781
20:53:54:585,0.3173,2.718,9.7888,49.6628,0.1449,-0.7101,-0.2155,279.8594
20:53:54:605,0.8153,2.5875,11.6599,49.4157,-0.0399,-0.3831,-0.3979,280.0781
20:53:54:626,0.9626,2.1314,12.9192,51.2889,-0.0059,0.0028,-0.5399,280.0781
20:53:54:655,0.3856,1.5592,13.3705,50.2095,0.0879,0.3466,-0.5641,280.3281
20:53:54:666,-0.3375,1.1115,12.7421,50.8687,0.1158,0.5379,-0.4539,281.125
20:53:54:685,-0.6332,1.0313,12.0861,51.6018,0.0469,0.5663,-0.3103,281.125
20:53:54:705,-0.4907,1.1522,11.7533,52.0638,-0.0956,0.405,-0.2406,282.3438
20:53:54:728,-0.2884,1.224,12.1746,51.2363,-0.2091,0.1158,-0.2224,282.8594
20:53:54:752,0.0743,0.9403,13.0114,51.5047,-0.2375,-0.2813,-0.2584,283.5781
20:53:54:770,-0.0849,0.3178,14.151,53.6912,-0.1449,-0.5375,-0.2619,283.5781
20:53:54:786,-0.7433,-0.3346,14.7699,50.9524,0.0671,-0.4792,-0.1151,283.8438
20:53:54:804,-1.3586,-0.7464,14.254,52.8678,0.331,-0.1732,0.172,284.1562
20:53:54:824,-1.3179,-0.7703,12.4607,53.9401,0.5007,0.1,0.4971,284.2969
20:53:54:845,-0.6475,-0.3801,10.2724,52.8601,0.4892,0.0526,0.7123,284.4219
20:53:54:869,0.2347,0.3813,9.5805,53.5561,0.4495,-0.2291,0.7549,284.2344
20:53:54:885,0.9159,0.9571,9.8163,54.2468,0.51,-0.4214,0.634,283.6719
20:53:54:904,0.8836,1.1714,9.5458,54.8712,0.5774,-0.4076,0.4737,282.9219
20:53:54:924,0.3365,1.2516,8.6552,55.1749,0.5577,-0.2571,0.4149,282.0781
20:53:54:945,-0.0585,1.3845,7.7466,55.5406,0.4943,-0.1298,0.4468,281.375
20:53:54:967,-0.013,1.4335,7.142,55.532,0.4599,-0.0795,0.4801,280.8906
20:53:54:986,0.0695,1.5676,6.7769,55.1854,0.4847,-0.1053,0.4945,280.4375
20:53:55:004,0.0851,1.6466,6.5183,55.2998,0.5603,-0.1873,0.4913,279.9375
20:53:55:024,0.0851,1.6754,6.2167,55.2245,0.6208,-0.268,0.4932,278.875
20:53:55:048,0.218,1.7603,6.0036,55.2218,0.632,-0.3024,0.4878,278.3281
20:53:55:069,0.3844,1.8645,5.8551,56.4049,0.5819,-0.3072,0.4609,278.0625
20:53:55:086,0.4969,2.1171,5.9677,55.3116,0.5007,-0.3176,0.4229,277.5312
20:53:55:104,0.8046,2.3613,6.3448,57.7101,0.4176,-0.3274,0.3464,277.0469
20:53:55:124,1.0009,2.5816,6.8787,56.5182,0.334,-0.2877,0.2268,276.5625
20:53:55:145,1.1673,2.7324,7.6268,55.6888,0.2525,-0.1431,0.0697,276.1406
20:53:55:167,1.3217,2.8234,7.9237,58.5936,0.0977,0.0654,-0.1593,275.8594
20:53:55:187,1.2403,2.8342,7.98,58.3525,-0.1443,0.2023,-0.4389,275.7031
20:53:55:208,1.3014,2.5816,8.1787,57.4265,-0.4413,0.1501,-0.802,275.75
20:53:55:224,0.7591,2.0046,9.0143,58.8885,-0.8181,0.0185,-1.1346,276.0469
20:53:55:244,-0.7074,0.9798,11.2888,58.9626,-1.0117,0.0987,-1.1442,276.7188
20:53:55:267,-1.4125,-0.0497,13.1874,59.8617,-0.9505,0.4465,-0.8459,277.8438
20:53:55:284,-1.3825,-0.4304,13.4244,57.8323,-0.8525,0.8431,-0.4384,279.2188
20:53:55:304,1.2487,1.0541,12.1914,61.1937,-0.8336,1.017,-0.1026,280.3125
20:53:55:326,2.5452,1.3665,12.5625,58.4201,-0.845,0.8617,-0.0858,280.7188
20:53:55:352,2.7271,1.005,12.6702,59.4748,-0.7539,0.6007,-0.3303,281.1875
20:53:55:371,2.2782,0.0018,12.3913,60.4711,-0.6312,0.3717,-0.5956,281.1875
20:53:55:386,1.621,-0.8374,11.8347,60.9487,-0.5502,0.2774,-0.6797,281.3281
20:53:55:403,1.4522,-1.0421,10.9584,62.1156,-0.465,0.2337,-0.549,281.8438
20:53:55:423,1.6617,-0.5884,9.9073,61.349,-0.3515,0.1877,-0.281,282.5312
20:53:55:444,1.9873,0.2089,8.7318,60.4509,-0.2258,0.1152,-0.0645,283.2188
20:53:55:469,1.9514,0.7775,7.4054,60.4509,-0.1092,0.0534,0.0034,283.6875
20:53:55:485,1.7144,1.1654,6.2011,60.6552,-0.0471,0.0247,-0.0129,283.8438
20:53:55:504,1.609,1.5269,5.4697,61.7363,-0.0229,-0.0446,-0.0379,283.8438
20:53:55:524,1.6545,1.8418,5.0962,60.8865,0.0008,-0.1429,-0.0885,283.8438
20:53:55:546,1.5743,2.1123,4.9549,61.4138,0.0272,-0.2693,-0.2035,283.875
20:53:55:570,1.4498,2.2512,4.8975,60.1764,0.041,-0.3913,-0.3628,283.9375
20:53:55:586,0.789,2.3505,5.3212,61.0664,0.0029,-0.5237,-0.5497,284.0938
20:53:55:603,0.0432,2.3038,5.9653,61.4729,-0.094,-0.5485,-0.7103,284.6562
20:53:55:624,-0.6272,2.3828,6.7709,61.602,-0.232,-0.4454,-0.7751,285.25
20:53:55:645,-1.1539,2.4606,8.3116,60.5196,-0.4115,-0.3279,-0.7964,286.0625
20:53:55:670,-1.7381,2.2224,10.8064,63.1608,-0.5502,-0.2893,-0.8472,286.9375
20:53:55:686,-2.5473,1.5808,12.9085,62.601,-0.4871,-0.3074,-0.8704,287.7969
20:53:55:704,-3.341,1.1331,14.187,62.593,-0.2924,-0.3197,-0.7641,288.75
20:53:55:724,-3.8881,0.9547,15.4296,63.5224,-0.1121,-0.4435,-0.5149,289.7188
20:53:55:744,-3.8665,0.8757,16.7895,62.2563,0.0317,-0.545,-0.1812,290.5938
20:53:55:768,-3.1351,0.9918,17.2635,64.3306,0.1705,-0.3772,0.1925,291.1406
20:53:55:785,-2.0266,1.2001,16.2448,63.7797,0.306,0.0327,0.4948,291.2969
20:53:55:804,-1.209,1.0433,15.7336,63.9524,0.2602,0.3259,0.6223,291.2812
20:53:55:824,-0.9205,0.3214,16.6207,62.7234,0.1337,0.2979,0.6612,290.8594
20:53:55:846,-1.0007,-0.6123,16.9714,64.0225,0.2866,0.0875,0.7499,290.2344
20:53:55:868,-0.6643,-1.3318,14.3953,64.3939,0.8013,0.0814,0.9965,289.5
20:53:55:885,0.212,-1.054,10.4281,63.8553,1.3263,0.1509,1.3558,288.7031
20:53:55:960,1.4534,-0.2436,7.8076,61.5323,1.4789,-0.0379,1.6189,288.2656
20:53:55:960,2.3165,0.422,7.2234,64.9356,1.2821,-0.4709,1.6197,285.6406
20:53:55:961,2.3452,0.4771,7.6352,62.5789,0.9934,-0.798,1.4197,283.7969
20:53:55:975,1.9789,0.4375,7.4724,61.82,0.8061,-0.782,1.2292,282.0781
20:53:55:987,1.8089,0.5956,6.8571,60.2314,0.7172,-0.6012,1.1512,280.5
20:53:56:012,1.9981,0.7021,6.0874,61.6591,0.579,-0.3522,1.0351,279.125
20:53:56:024,2.0771,0.8134,5.429,61.9702,0.3981,-0.1913,0.9331,277.9062
20:53:56:045,2.0759,0.9475,5.4601,62.1115,0.216,0.0279,0.8194,276.6406
20:53:56:068,1.9693,1.0074,5.9868,61.3059,0.168,0.2026,0.6953,275.4688
20:53:56:087,1.7874,0.9738,6.1963,62.6432,0.2466,0.2675,0.6071,274.4062
20:53:56:104,1.6306,1.0732,5.6816,60.8938,0.3009,0.2734,0.5659,273.5
20:53:56:123,1.7024,1.3988,5.1716,61.6154,0.24,0.189,0.5217,272.6875
20:53:56:144,2.0723,1.9088,5.101,62.1115,0.094,0.0468,0.3888,271.9531
20:53:56:170,2.265,2.4259,5.8719,61.5327,-0.057,-0.1106,0.1552,270.6719
20:53:56:186,1.9658,2.5851,7.1815,63.2658,-0.1188,-0.1343,-0.0698,270.4062
20:53:56:204,1.6904,2.4523,7.9728,60.3951,-0.1891,-0.0185,-0.2384,270.1094
20:53:56:227,2.0759,2.2536,7.998,62.4646,-0.4999,0.2231,-0.4619,270.0781
20:53:56:242,2.8289,1.9447,8.6061,60.7912,-1.1345,0.6138,-0.8411,270.2812
20:53:56:264,2.4937,1.0505,11.0506,61.7111,-1.6799,1.1847,-1.1663,270.4375
20:53:56:286,0.8417,-0.2101,13.9188,62.5224,-1.6743,1.6676,-1.1159,270.9688
20:53:56:305,0.2228,-1.2121,14.6263,62.2789,-1.188,1.7829,-0.733,271.8594
20:53:56:323,0.9817,-1.1678,13.1203,61.6724,-0.6631,1.466,-0.3785,273.1562
20:53:56:343,2.2866,-0.3621,10.3909,62.9379,-0.5175,0.7725,-0.3801,274.3438
20:53:56:369,2.9845,0.1897,8.9233,62.6939,-0.8229,0.0225,-0.7407,275.0625
20:53:56:389,2.1944,-0.2161,10.0402,63.0658,-1.2541,-0.4398,-1.088,275.4375
20:53:56:405,1.05,-1.078,12.8271,62.9229,-1.3324,-0.4425,-1.1657,275.8281
20:53:56:424,0.783,-1.5425,14.4827,62.6659,-1.0205,-0.1751,-1.0805,276.625
20:53:56:444,0.9434,-1.6227,13.5908,61.5461,-0.6868,0.0633,-0.9812,277.75
20:53:56:468,1.2032,-1.2145,11.7377,60.5702,-0.5159,0.1205,-0.9404,279.625
20:53:56:488,1.3528,-0.811,10.3969,61.8814,-0.4165,0.0926,-0.9873,280.7031
20:53:56:503,1.2032,-0.428,9.3782,61.515,-0.3044,0.0468,-1.0802,281.7812
20:53:56:523,0.7699,-0.2185,8.3714,61.4547,-0.1984,0.0023,-1.1482,282.8594
20:53:56:545,0.2623,-0.1095,7.543,57.2967,-0.1156,-0.0228,-1.1551,284.0312
20:53:56:568,-0.1172,0.0257,7.1025,58.7381,-0.0368,0.0108,-1.1277,285.25
20:53:56:588,-0.4332,0.1263,6.7901,60.877,0.0301,0.1046,-1.0683,286.5625
20:53:56:606,-0.8043,0.3226,6.322,58.9994,0.0615,0.1847,-0.9697,287.8594
20:53:56:623,-0.9707,0.7464,6.0347,60.907,0.049,0.1757,-0.8864,289.0781
20:53:56:644,-1.1012,1.1295,6.073,60.907,0.0455,0.1267,-0.8243,290.25
20:53:56:669,-1.3071,1.3605,6.1819,59.3441,0.0237,0.0662,-0.7657,291.3281
20:53:56:685,-1.3885,1.4311,6.4836,59.6764,-0.0517,0.1003,-0.7335,292.2656
20:53:56:704,-2.5533,0.6506,7.8088,59.2831,-0.2903,0.3616,-0.7189,293.1875
20:53:56:724,-3.3566,0.2927,9.7888,59.2871,-0.6402,0.7493,-0.6262,294.0469
20:53:56:747,-4.0808,-0.3118,11.6371,58.8171,-0.8227,1.0385,-0.4797,294.8906
20:53:56:768,-4.8206,-0.7931,12.4488,59.8801,-0.7001,1.0364,-0.2555,295.6562
20:53:56:784,-4.6973,-1.0852,13.0581,59.4178,-0.4679,0.6886,0.0524,296.3281
20:53:56:803,-4.1407,-1.3378,13.3837,61.0354,-0.2985,0.3224,0.3387,296.8125
20:53:56:823,-3.4619,-1.5113,13.6255,59.4524,-0.2591,0.1682,0.548,296.9844
20:53:56:843,-2.7341,-1.4323,14.2348,61.6367,-0.331,0.0923,0.6881,296.7656
20:53:56:868,-2.5114,-1.558,14.9555,59.7069,-0.3968,0.0273,0.7225,296.2656
20:53:56:888,-2.5521,-1.9315,15.73,59.2686,-0.3289,-0.1615,0.7225,295.5312
20:53:56:903,-2.3582,-2.3469,15.2296,59.2963,-0.0666,-0.2835,0.813,294.7188
20:53:56:923,-1.3514,-2.2943,13.8661,59.2386,0.2972,-0.2635,1.013,293.8594
20:53:56:944,0.3329,-1.6789,12.2381,58.7202,0.6458,-0.3317,1.2,292.9531
20:53:56:969,1.1302,-0.9427,10.9584,58.6579,0.8512,-0.5455,1.1486,291.9375
20:53:56:987,0.8501,-0.7811,10.4999,57.6179,0.8621,-0.8121,0.8537,290.6719
20:53:57:005,0.3293,-1.0612,10.3443,58.5386,0.7129,-0.7956,0.5323,289.2969
20:53:57:023,-0.0166,-1.3485,9.9636,57.4184,0.478,-0.354,0.3517,288.2031
20:53:57:043,-0.359,-1.3198,9.1759,57.2752,0.2831,0.2534,0.3366,287.4062
20:53:57:069,-0.4991,-1.0792,7.907,58.0111,0.2272,0.7664,0.4452,286.7344
20:53:57:087,-0.3698,-0.8889,6.5327,57.0113,0.2895,1.0124,0.5733,286.4062
20:53:57:102,-0.0574,-0.6458,5.2255,57.7415,0.387,1.0287,0.687,285.9531
20:53:57:123,0.4107,-0.2376,4.4773,56.8859,0.4495,0.8889,0.768,285.3906
20:53:57:143,0.7854,0.1167,4.1193,55.4288,0.4799,0.6497,0.7627,284.6875
20:53:57:168,0.722,0.3897,3.9577,55.9969,0.4637,0.3869,0.6471,283.9219
20:53:57:185,0.3174,0.4352,4.2283,57.5528,0.3822,0.1181,0.4902,283.1406
20:53:57:211,-0.0083,0.1299,5.2542,55.577,0.2802,-0.2105,0.3707,282.4688
20:53:57:222,-0.116,-0.0437,6.7147,57.1451,0.2373,-0.5178,0.3291,281.9844
20:53:57:243,-0.2273,0.0102,7.895,55.0874,0.2631,-0.6587,0.3075,281.5938
20:53:57:269,-0.116,0.0808,8.4038,55.7863,0.3233,-0.6481,0.2351,281.2344
20:53:57:286,0.0312,-0.0521,8.6324,55.7927,0.3076,-0.6164,0.0524,280.9219
20:53:57:303,-0.6547,-0.4687,9.4333,54.2427,0.0687,-0.5466,-0.2477,280.7812
20:53:57:323,-1.9607,-1.011,11.2565,56.049,-0.3135,-0.3253,-0.4967,280.625
20:53:57:344,-2.6371,-1.3198,12.5733,55.9075,-0.5265,-0.0259,-0.542,280.75
20:53:57:368,-1.7692,-1.1534,12.3386,55.966,-0.5039,0.332,-0.403,281.4531
20:53:57:385,-0.535,-0.6027,12.3303,53.5241,-0.5766,0.5536,-0.375,282.0312
20:53:57:410,-0.122,-0.5477,13.3729,54.2552,-1.1859,0.9498,-1.1034,282.4531
20:53:57:423,-1.2437,-1.4036,14.2744,52.9546,-1.3201,1.2295,-1.3474,282.8125
20:53:57:444,-2.1547,-2.1925,14.3773,54.0206,-1.2171,1.4002,-1.2893,283.5
20:53:57:467,-2.5114,-2.0847,13.4615,55.4031,-0.9542,1.3248,-1.0539,284.6719
20:53:57:485,-2.0254,-1.7939,12.0789,52.8884,-0.6562,0.9959,-0.8046,286.0625
20:53:57:503,-1.3646,-1.4192,10.8949,52.6274,-0.371,0.5544,-0.6065,287.5
20:53:57:525,-0.7421,-1.0145,10.0881,53.3159,-0.086,0.1048,-0.4704,289.625
20:53:57:542,-0.2058,-0.6841,9.541,53.3159,0.2051,-0.2337,-0.4216,289.625
20:53:57:562,0.0564,-0.495,8.6611,53.1341,0.4237,-0.3636,-0.4315,290.2812
20:53:57:587,0.0217,-0.3813,7.6723,51.9216,0.5215,-0.3117,-0.4214,290.8281
20:53:57:606,-0.122,-0.3466,6.8451,52.4991,0.555,-0.1514,-0.366,292.0625
20:53:57:623,-0.3171,-0.1634,6.0922,50.4252,0.6077,-0.0587,-0.2842,292.3281
20:53:57:642,-0.2381,-0.0006,5.3296,51.928,0.6653,-0.1021,-0.2384,292.5781
20:53:57:664,0.0672,0.1526,4.6209,51.2749,0.6434,-0.2374,-0.2768,293.0312
20:53:57:689,0.212,0.3956,4.2869,51.4568,0.4892,-0.3242,-0.4318,293.3906
20:53:57:705,0.0001,0.4687,4.6975,51.233,0.2618,-0.3362,-0.6424,293.75
20:53:57:724,-0.9181,0.2077,5.8336,49.8765,0.1055,-0.3255,-0.798,294.2031
20:53:57:744,-2.0816,-0.2927,7.0654,50.2279,0.0735,-0.2504,-0.782,294.5
20:53:57:770,-2.855,-0.6506,7.6795,49.4504,0.0256,-0.1029,-0.6568,295.2031
20:53:57:787,-3.1375,-0.6614,7.9944,48.8216,-0.1521,0.0798,-0.5441,296.0938
20:53:57:803,-3.2704,-0.5154,8.6647,49.7426,-0.3814,0.2556,-0.5197,296.9844
20:53:57:823,-3.7708,-0.5584,9.6631,47.7125,-0.4999,0.3557,-0.4986,297.6875
20:53:57:845,-4.4639,-0.6746,10.5609,47.0829,-0.4482,0.2851,-0.386,298.3125
20:53:57:869,-4.8122,-0.8098,11.029,46.9475,-0.3065,0.006,-0.2059,298.875
20:53:57:887,-4.7189,-0.9307,11.4061,49.8889,-0.2117,-0.4291,-0.0424,299.4219
20:53:57:903,-4.5788,-0.9499,12.2644,47.0057,-0.2666,-0.8614,0.0287,299.9375
20:53:57:923,-4.7967,-1.066,14.102,47.8272,-0.3683,-1.0712,0.083,300.0156
20:53:57:943,-5.0181,-1.5245,16.6314,47.2061,-0.3739,-0.97,0.2074,299.9219
20:53:58:020,-5.0157,-2.5983,19.1729,47.571,-0.0056,-0.5269,0.4987,299.7031
20:53:58:021,-4.8781,-3.3321,18.3984,45.6696,0.5627,-0.0587,0.9864,299.3906
20:53:58:021,-3.76,-3.2052,15.0836,47.1319,0.9318,0.0907,1.4343,298.8906
20:53:58:022,-1.9057,-2.4882,11.8849,46.9076,1.0147,-0.1026,1.604,298.0938
20:53:58:043,-0.6212,-1.4946,9.893,46.7529,0.8868,-0.4371,1.5238,296.75
20:53:58:063,0.1845,-1.1199,9.5937,46.2851,0.7758,-0.6912,1.3336,295.0625
20:53:58:086,0.3138,-1.1462,9.6176,46.3479,0.8115,-0.7666,1.1789,293.4062
20:53:58:108,0.0396,-0.9846,7.6783,47.8979,0.918,-0.7421,1.1384,291.7812
20:53:58:123,0.1797,-0.8242,6.3172,47.3854,0.999,-0.6739,1.1454,290.3906
20:53:58:148,0.376,-0.6434,5.0854,49.5445,0.987,-0.5604,1.1619,289.0938
20:53:58:169,0.6226,-0.2927,4.0739,47.7548,0.8708,-0.3913,1.1779,287.8906
20:53:58:186,0.9422,0.2735,3.5567,47.7327,0.6469,-0.1932,1.1709,286.625
20:53:58:202,1.5456,0.8673,3.6956,46.8824,0.372,-0.1101,1.115,285.3281
20:53:58:222,1.8185,1.3916,4.6066,46.5866,0.1337,-0.2384,0.9137,284.0938
20:53:58:244,1.5384,1.2755,5.9162,46.841,-0.0253,-0.4044,0.5739,282.7969
20:53:58:269,0.6825,0.8158,7.1097,47.6075,-0.0935,-0.4489,0.237,281.625
20:53:58:287,-0.5829,0.2927,8.1524,46.9686,-0.0916,-0.3458,0.0436,280.8125
20:53:58:303,-1.4891,0.064,8.7868,48.2517,-0.0421,-0.1743,0.0298,280.3594
20:53:58:323,-1.1503,0.0437,9.0526,45.2977,0.0221,-0.0856,0.1541,280.2188
20:53:58:342,-0.377,0.2771,9.2441,46.1757,0.0442,-0.15,0.2005,280.2188
20:53:58:363,0.2934,0.2867,9.9432,45.8249,-0.0647,-0.3362,0.0455,280.1094
20:53:58:387,0.194,-0.3932,11.4971,46.8358,-0.3369,-0.4821,-0.2749,279.8906
20:53:58:403,0.2742,-1.7232,13.2293,46.1539,-0.6029,-0.378,-0.5212,279.7188
20:53:58:423,1.2271,-2.4283,14.005,47.4066,-0.6642,-0.1341,-0.4656,279.8281
20:53:58:443,2.6649,-1.4886,13.6267,44.3046,-0.4605,-0.076,-0.1537,280.2969
20:53:58:466,3.9877,-0.0844,12.9516,48.07,-0.1848,-0.2979,0.0793,280.9062
20:53:58:487,3.7111,0.5716,12.335,47.3854,-0.0943,-0.4965,-0.1308,281.2656
20:53:58:505,2.1537,0.0688,12.0825,46.9263,-0.2796,-0.3271,-0.5274,281.2031
20:53:58:523,0.7711,-0.586,11.7293,47.9258,-0.5726,0.2486,-0.6515,281.3438
20:53:58:546,0.6609,-0.8386,11.8526,47.8012,-0.7731,0.6138,-0.4749,281.9062
20:53:58:568,1.6892,-0.9116,12.0872,46.7284,-0.8187,0.609,-0.1681,282.6562
20:53:58:586,2.2854,-0.6398,11.8622,47.381,-0.7116,0.5307,0.0125,283.2031
20:53:58:602,1.9155,-0.3944,11.4827,48.0311,-0.4922,0.4076,-0.019,283.4062
20:53:58:622,1.0117,-0.331,10.8387,48.1831,-0.167,0.3163,-0.1359,283.4062
20:53:58:642,0.443,-0.3968,9.3866,48.154,0.2618,0.3371,-0.1612,283.4375
20:53:58:663,0.3401,-0.2915,7.2222,49.3574,0.6959,0.4047,-0.0794,283.6094
20:53:58:688,0.5532,-0.0006,5.1991,48.8266,1.0019,0.3299,0.0252,283.8125
20:53:58:703,0.9769,0.4495,3.7004,47.6611,1.1095,0.1349,0.0716,283.9531
20:53:58:723,1.2271,1.084,3.182,48.2546,0.9856,-0.0861,0.0023,283.9844
20:53:58:743,1.2499,1.5904,3.4753,49.2207,0.7153,-0.21,-0.1804,283.9688
20:53:58:762,0.9877,1.8441,3.8763,47.9284,0.429,-0.1903,-0.4307,283.9531
20:53:58:786,0.4215,1.9854,4.415,49.1271,0.1689,-0.1407,-0.7031,284.0781
20:53:58:804,-0.4057,1.746,5.3548,49.1978,-0.0898,-0.1735,-0.9378,284.75
20:53:58:823,-1.6292,1.3737,7.4784,47.9365,-0.5641,-0.5498,-1.1117,285.5156
20:53:58:846,-2.9424,1.1821,10.61,48.0008,-0.4613,-0.6196,-0.9687,285.5156
20:53:58:868,-3.5792,1.1019,12.7373,50.3002,-0.2176,-0.4134,-0.7769,287.8281
20:53:58:886,-3.906,1.0134,13.0114,49.3291,-0.1779,0.0481,-0.5681,289.0156
20:53:58:903,-4.2292,1.011,12.778,47.8326,-0.3899,0.5168,-0.325,290.1094
20:53:58:923,-4.2819,0.9774,13.2616,49.453,-0.6216,0.7179,-0.1005,290.9844
20:53:58:941,-4.6554,0.9463,14.4216,49.9858,-0.6626,0.5621,0.1669,291.6406
20:53:58:962,-4.7679,0.6147,15.6929,49.5153,-0.481,0.2151,0.4924,292
20:53:58:984,-4.6303,-0.1969,16.7943,48.2216,-0.1281,-0.2113,0.8814,292.125
20:53:59:004,-4.2424,-1.1307,17.6071,49.4139,0.3965,-0.3761,1.3683,291.9375
20:53:59:023,-2.9639,-1.7999,16.58,50.0519,0.9297,-0.2398,1.8396,291.3906
20:53:59:041,-1.1862,-1.7591,13.5453,49.6654,1.1939,-0.2156,2.0894,290.3594
20:53:59:063,0.5041,-1.1785,10.5801,50.9652,1.0754,-0.5551,2.0567,287.7969
20:53:59:086,1.7599,-0.5417,9.7445,51.5599,0.8173,-1.0323,1.8167,285.6406
20:53:59:106,2.763,-0.264,10.5585,51.7477,0.7414,-1.2947,1.4689,283.25
20:53:59:123,3.024,-0.4747,10.9476,52.1478,0.8682,-1.2268,1.1312,281.0312
20:53:59:146,2.435,-0.8146,10.3036,50.5573,1.0706,-0.9565,0.985,279.2344
20:53:59:170,1.6246,-1.1977,8.3774,51.3494,1.2693,-0.7956,1.1081,277.7969
20:53:59:187,0.7794,-1.1893,6.1472,49.1325,1.4099,-1.0747,1.4516,276.625
20:53:59:203,0.6765,-0.5908,5.3703,52.8566,1.5332,-1.5357,1.7984,276.0625
20:53:59:223,2.0352,0.082,5.6397,50.1218,1.6307,-1.6121,1.8484,274.8438
20:53:59:242,3.4442,0.7272,5.5367,53.5084,1.5521,-1.2004,1.5715,273.1875
20:53:59:262,4.1864,1.2025,4.9106,51.075,1.2522,-0.5088,1.1464,271.1406
20:53:59:286,4.3803,1.4311,4.1648,50.9086,0.7864,0.1522,0.7129,269.125
20:53:59:303,4.1397,1.5556,3.7183,50.6192,0.2597,0.5858,0.3339,267.2812
20:53:59:327,3.6429,1.6538,4.1158,50.1429,-0.1888,0.7048,0.0692,265.8906
20:53:59:341,3.0515,1.916,5.4792,52.4356,-0.436,0.6878,-0.0587,264.7031
20:53:59:362,2.8336,2.4259,7.3192,52.6323,-0.5065,0.6689,-0.1418,264.3906
20:53:59:385,3.2191,2.8174,9.0849,53.5819,-0.5001,0.7312,-0.3087,264.3594
20:53:59:404,3.6058,2.9826,10.5897,51.1545,-0.4887,0.74,-0.5569,264.4375
20:53:59:422,3.4538,3.0137,12.1339,52.714,-0.4501,0.6513,-0.8091,264.625
20:53:59:443,2.8899,2.7743,13.8877,53.1669,-0.2991,0.6148,-0.9577,265.0781
20:53:59:463,2.1717,2.2081,14.4527,51.5899,-0.0722,0.6577,-0.901,265.8281
20:53:59:486,2.0663,1.8741,13.6291,52.3467,0.0269,0.6303,-0.7218,266.7656
20:53:59:505,2.4254,2.2583,12.5649,54.0778,-0.0876,0.405,-0.6403,267.8125
20:53:59:530,3.0419,2.1985,14.3773,52.752,-0.2788,0.0188,-0.7665,268.6719
20:53:59:542,2.8492,1.3773,15.3218,54.6128,-0.2479,-0.2038,-0.9468,269.3438
20:53:59:569,2.8612,0.8314,13.7464,53.8134,0.0977,-0.1114,-0.9897,270.1094
20:53:59:587,3.0048,0.7703,11.1128,54.1592,0.4802,-0.0057,-0.9255,271.125
20:53:59:604,3.425,0.8398,8.8335,54.1592,0.6695,-0.125,-0.8488,272.2656
20:53:59:621,3.3616,1.005,7.5814,53.2317,0.624,-0.3951,-0.9114,273.3281
20:53:59:642,2.8432,1.0565,7.1947,52.5018,0.4309,-0.6422,-1.0712,274.3125
20:53:59:664,2.1788,0.9727,6.8811,53.2216,0.2493,-0.6912,-1.2033,275.8594
20:53:59:686,1.4139,0.9008,6.1951,54.3566,0.1483,-0.4949,-1.2603,277.0938
20:53:59:705,0.7806,0.9762,5.2207,54.497,0.0943,-0.1905,-1.2139,278.5469
20:53:59:723,0.3161,1.248,4.4306,53.6816,0.0224,0.0715,-1.0885,279.3125
20:53:59:742,0.0624,1.7364,4.087,53.7762,-0.0575,0.1948,-0.9303,280.7031
20:53:59:762,-0.0502,2.4223,4.1253,53.7882,-0.1201,0.1919,-0.794,282.0312
20:53:59:785,-0.116,3.1502,4.6102,52.407,-0.1619,0.087,-0.7178,283.1719
20:53:59:805,-0.3722,3.8253,5.5571,53.9647,-0.2131,-0.0547,-0.7191,284.125
20:53:59:822,-0.5948,4.2539,7.0534,54.6223,-0.2594,-0.1636,-0.7458,284.9219
20:53:59:842,-0.6296,4.2731,8.7785,54.0303,-0.2402,-0.2161,-0.7466,285.7344
20:53:59:863,-0.5793,4.2922,10.0091,53.879,-0.1217,-0.125,-0.7085,286.5938
20:53:59:887,-0.8367,4.649,10.3311,54.0974,0.0671,0.12,-0.6451,287.4531
20:53:59:905,-1.288,5.117,10.2712,54.7046,0.2178,0.4638,-0.5921,288.3125
20:53:59:922,-1.3023,5.0871,11.0278,54.2322,0.2924,0.658,-0.5551,289.4375
20:53:59:941,-1.3754,4.54,11.2912,54.949,0.4434,0.6255,-0.5276,290.0312
20:53:59:962,-1.8506,4.2934,10.4831,55.9788,0.657,0.6172,-0.4488,290.5781
20:53:59:987,-2.041,4.2695,9.9181,54.7449,0.6938,0.6324,-0.2629,291.0938
20:54:00:003,-1.6387,4.0576,9.608,55.9268,0.5135,0.6849,-0.0328,291.5156
20:54:00:087,-1.422,3.8804,9.6523,55.7342,0.204,0.7429,0.1368,291.7344
20:54:00:087,-0.9217,3.5596,10.3287,56.5539,-0.1361,0.6945,0.283,291.6719
20:54:00:087,-0.5254,2.9646,11.7497,55.1848,-0.3784,0.4755,0.3714,291.4062
20:54:00:088,-0.5853,2.3589,12.7337,55.7574,-0.363,0.238,0.4327,291
20:54:00:106,-0.7601,1.9172,11.8203,56.6391,-0.0716,0.2196,0.5526,290.4844
20:54:00:120,-0.7217,2.0285,9.8163,55.8094,0.253,0.2465,0.7129,289.9219
20:54:00:142,-0.0454,2.3673,8.229,57.8275,0.3257,0.0915,0.8487,289.2969
20:54:00:162,0.771,2.5947,7.9165,56.8734,0.0924,-0.1815,0.8753,288.4531
20:54:00:186,1.5049,2.4798,8.7832,57.1005,-0.2762,-0.439,0.7664,287.4844
20:54:00:204,1.8077,2.1302,9.1711,57.4299,-0.5233,-0.452,0.5728,286.5625
20:54:00:222,1.3145,1.8214,8.7509,57.6907,-0.6301,0.0428,0.2889,285.75
20:54:00:242,0.5412,1.6646,8.211,56.1701,-0.5225,0.3227,0.3238,285.1406
20:54:00:263,-0.019,1.503,7.2689,59.704,-0.3252,0.4295,0.4513,284.7188
20:54:00:288,-0.3518,1.5293,6.0766,57.8201,-0.1358,0.3118,0.6322,284.3906
20:54:00:308,-0.3686,1.7508,5.0375,59.3105,-0.0402,0.0316,0.804,283.375
20:54:00:321,-0.1328,2.238,4.6592,57.8896,-0.028,-0.2267,0.9054,283.375
20:54:00:340,0.4191,2.7504,4.737,58.9264,-0.0951,-0.4209,0.8796,282.6406
20:54:00:361,1.0991,3.0305,5.4673,59.6312,-0.2274,-0.4555,0.7294,281.7188
20:54:00:386,1.2774,3.046,6.7614,61.876,-0.3582,-0.2448,0.544,280.7188
20:54:00:404,1.0787,2.8593,8.0626,58.7165,-0.4296,0.1102,0.4258,279.75
20:54:00:421,1.1122,2.8437,8.9197,59.5405,-0.4368,0.4036,0.3358,279.0156
20:54:00:441,1.5312,3.0197,8.9209,61.2208,-0.4876,0.3829,0.1403,278.4219
20:54:00:461,1.8317,2.8162,9.4297,59.5301,-0.6027,0.1871,-0.0983,277.9219
20:54:00:482,1.7658,1.9603,11.3977,59.0678,-0.6083,0.161,-0.2009,277.5
20:54:00:504,1.5492,1.1534,13.5752,60.4003,-0.4237,0.4151,-0.1535,277.4844
20:54:00:522,1.3181,1.0864,14.0038,61.4786,-0.1771,0.6201,-0.0083,277.4844
20:54:00:541,1.9777,1.3641,12.6774,61.2357,-0.0487,0.4215,0.0231,277.6562
20:54:00:567,2.8289,1.6981,11.199,59.4518,-0.1513,-0.2462,-0.1354,277.6875
20:54:00:587,3.6118,1.3677,10.9548,60.8691,-0.5505,-0.864,-0.4541,277.6094
20:54:00:605,2.9366,0.5884,13.0497,60.4299,-0.9143,-0.758,-0.6374,277.625
20:54:00:623,1.7168,-0.1658,14.9974,60.1166,-0.8341,-0.1543,-0.5069,277.9844
20:54:00:642,1.1649,-0.088,14.2145,59.5091,-0.4181,0.1637,-0.182,278.3281
20:54:00:663,2.3237,0.513,11.187,60.4652,-0.1385,-0.2443,-0.0246,279.0781
20:54:00:685,3.4346,1.637,9.1723,61.2159,-0.1595,-0.9477,-0.2086,279.6406
20:54:00:701,3.4897,2.2727,8.976,60.8871,-0.245,-1.3306,-0.582,279.8281
20:54:00:721,2.672,2.0896,9.0981,60.3504,-0.2421,-1.2853,-0.8853,279.8594
20:54:00:742,1.6868,1.7065,8.4696,59.2966,-0.1875,-1.0252,-1.0395,280.8438
20:54:00:763,0.8453,1.5365,7.1911,59.099,-0.1808,-0.7687,-1.0826,281.3438
20:54:00:787,0.3604,1.5832,6.1963,59.5694,-0.2285,-0.5977,-1.0773,282.5156
20:54:00:804,0.1533,1.7615,5.745,58.7994,-0.3092,-0.4297,-1.0989,284.3594
20:54:00:824,-0.1268,1.9974,5.7426,56.9889,-0.3854,-0.2334,-1.1189,284.9844
20:54:00:841,-0.3411,2.1003,5.8934,59.0242,-0.4173,-0.1524,-1.1399,286.2656
20:54:00:861,-0.705,2.1111,6.3567,58.8613,-0.4059,-0.1705,-1.1452,287.5625
20:54:00:887,-1.2425,2.0548,7.1959,58.1324,-0.3473,-0.1833,-1.0912,288.8125
20:54:00:906,-1.7584,1.8154,8.0291,58.0351,-0.2921,-0.162,-0.9647,290.1562
20:54:00:922,-2.5066,1.977,10.1336,59.1815,-0.2863,-0.0323,-0.7513,291.4844
20:54:00:942,-2.029,2.4463,11.2265,58.0023,-0.3033,0.1176,-0.5548,292.625
20:54:00:961,-1.9236,2.7025,12.4129,58.1068,-0.3324,0.1986,-0.5268,293.6406
20:54:00:987,-2.2421,2.3912,13.8494,59.2904,-0.4131,0.2612,-0.5993,294.3906
20:54:01:003,-3.0369,1.6311,15.8114,59.3233,-0.6301,0.5285,-0.6523,294.9688
20:54:01:021,-4.1335,0.6087,17.8417,60.3553,-0.9289,1.1136,-0.5729,295.625
20:54:01:041,-4.6973,-0.4423,19.1441,58.5059,-1.0682,1.6505,-0.2496,296.375
20:54:01:062,-4.5932,-1.2911,19.9115,60.0885,-0.9063,1.7147,0.2764,297.4375
20:54:01:086,-3.9264,-2.2943,20.2383,60.4544,-0.4061,1.2902,0.9014,297.7656
20:54:01:105,-2.5904,-3.0748,17.9159,63.0586,0.4847,0.8745,1.5853,297.5
20:54:01:122,-0.3949,-2.9862,12.4524,63.1349,1.5098,0.7634,2.2972,296.5156
20:54:01:142,1.5575,-1.5437,7.5239,64.8814,2.0517,0.5962,2.7949,295.8125
20:54:01:160,2.593,0.1059,5.563,63.8499,1.9135,0.0388,2.8455,293.625
20:54:01:181,2.5906,0.7344,6.8032,65.8714,1.3899,-0.6646,2.4911,290.75
20:54:01:206,2.1657,0.5166,8.8563,65.7119,0.9982,-1.0925,2.0759,287.5312
20:54:01:221,2.0986,0.4603,9.5662,64.6345,0.9329,-1.0683,1.7712,284.6875
20:54:01:241,2.1489,0.5309,9.134,63.1242,0.832,-0.4012,1.4937,282.1719
20:54:01:260,1.761,0.5908,8.2086,64.7323,0.4852,0.7879,1.1853,280.0938
20:54:01:282,1.3504,0.8254,7.2689,65.5612,0.1595,1.8543,0.9802,278.375
20:54:01:305,0.8405,0.8673,6.2789,67.6666,0.122,2.2178,0.8641,276.8281
20:54:01:325,0.1462,0.8254,5.0351,66.6132,0.395,1.8796,0.7882,275.4844
20:54:01:340,-0.213,0.7332,3.6154,66.9607,0.7398,1.1935,0.8045,274.2812
20:54:01:361,-0.0813,0.8278,2.7319,67.8247,0.9044,0.5142,0.8796,272.625
20:54:01:381,0.4203,1.145,2.7128,68.0869,0.8325,0.0473,0.9366,271.625
20:54:01:402,1.1529,1.3677,3.182,67.0195,0.5952,-0.1689,0.89,270.6875
20:54:01:421,1.6557,1.5509,3.9278,67.5499,0.2937,-0.1988,0.7251,269.6875
20:54:01:441,1.8592,1.7592,5.1321,68.9218,-0.0386,-0.1738,0.4985,268.7344
20:54:01:462,1.797,1.5844,6.3352,67.6463,-0.3326,-0.1066,0.2295,267.9531
20:54:01:487,1.4319,1.3198,7.7897,69.4817,-0.5832,-0.1543,-0.0485,267.4375
20:54:01:505,1.1673,1.0672,10.0629,68.4144,-0.8333,-0.304,-0.2515,267.1719
20:54:01:525,1.4534,1.011,12.262,67.5946,-1.008,-0.304,-0.3676,267.2031
20:54:01:541,1.9191,0.8111,13.4148,69.6665,-1.0288,-0.2049,-0.4989,267.4688
20:54:01:561,1.5348,0.7153,13.1108,69.4267,-0.987,0.0452,-0.693,267.8594
20:54:01:582,0.9087,1.0433,12.5374,70.0741,-1.0826,0.3687,-0.8315,268.3906
20:54:01:603,0.127,1.2899,12.9216,69.1926,-1.2946,0.5128,-0.9466,269.0781
20:54:01:623,-0.5123,1.0265,13.9236,70.306,-1.359,0.3967,-0.9692,269.5
20:54:01:641,-0.7612,0.7344,14.2229,69.7118,-1.0943,0.2422,-0.7711,269.5
20:54:01:661,-0.3459,0.847,13.6291,70.6626,-0.8035,-0.0398,-0.5804,270.8906
20:54:01:686,0.3784,1.0684,12.7624,69.0753,-0.5699,-0.4254,-0.5258,271.9375
20:54:01:706,0.7471,1.0804,12.1854,69.0753,-0.3422,-0.7535,-0.5479,273.6406
20:54:01:721,0.9015,0.9918,11.5988,68.1482,-0.1148,-0.8443,-0.5972,274.2344
20:54:01:740,0.7734,0.9523,10.5813,68.0859,0.1063,-0.7698,-0.6195,274.7656
20:54:01:760,0.5843,0.9571,9.2094,68.3122,0.3228,-0.6939,-0.6099,275.3594
20:54:01:782,0.4059,1.0972,7.6496,67.2675,0.494,-0.6957,-0.5929,276.0312
20:54:01:805,0.2467,1.2133,6.2298,66.8497,0.5606,-0.6968,-0.5705,276.7031
20:54:01:824,0.1845,1.3952,5.2638,65.7598,0.5185,-0.6427,-0.5497,277.4062
20:54:01:841,0.4167,1.7328,4.8077,68.3435,0.3702,-0.5205,-0.5969,278.1094
20:54:01:860,0.6298,2.0776,4.8256,68.8082,0.1747,-0.4038,-0.7269,278.7969
20:54:01:881,0.5663,2.2931,5.6049,65.9562,0.0418,-0.354,-0.8826,279.4062
20:54:01:904,0.5209,2.3685,6.9948,65.5995,0.0466,-0.3903,-1.0579,280.1094
20:54:01:921,0.3952,2.4511,9.225,66.2723,0.2551,-0.5626,-1.2565,281.9219
20:54:01:941,-0.4775,2.2523,12.5326,65.9891,0.8495,-0.7977,-1.3993,283.125
20:54:01:960,-2.5246,1.4407,13.252,66.8571,1.4565,-1.0078,-1.2861,283.8281
20:54:01:981,-4.3873,1.0349,11.4767,65.885,1.437,-0.8558,-0.8688,285.3906
20:54:02:004,-4.6937,1.412,10.3215,66.1617,0.8887,-0.2877,-0.3812,286.9219
20:54:02:022,-3.7157,2.1805,10.7968,65.4392,0.31,0.3996,-0.0962,288.2031
20:54:02:041,-2.6491,2.888,11.5952,64.4522,0.0037,0.911,-0.0792,288.9219
20:54:02:062,-2.7329,3.1993,11.5078,65.2399,-0.1862,1.0465,-0.179,289.125
20:54:02:091,-3.5792,2.815,11.691,63.9819,-0.4104,0.9094,-0.2067,289.1406
20:54:02:169,-4.3968,1.9579,12.6403,65.3441,-0.7404,0.7139,-0.1207,289.2031
20:54:02:170,-5.5963,0.7177,15.2931,65.6041,-0.8687,0.6684,0.1904,289.3594
20:54:02:170,-5.983,-1.0014,18.1027,64.9935,-0.4887,0.8524,0.8002,289.4375
20:54:02:171,-5.1079,-1.6574,17.795,67.1735,0.1752,0.9653,1.4724,289.5156
20:54:02:189,-3.2967,-1.0744,14.6766,67.0715,0.6109,0.7243,1.8625,289.2344
20:54:02:207,-1.2916,-0.2316,11.8969,66.5302,0.653,0.4268,1.8599,288.2656
20:54:02:222,-0.3327,0.1694,10.4508,65.582,0.4764,0.3999,1.6879,286.625
20:54:02:241,-0.3459,0.0629,9.7062,64.154,0.3105,0.5826,1.593,284.4844
20:54:02:260,-0.4189,-0.1598,9.0227,64.3962,0.2717,0.7328,1.6349,281.4688
20:54:02:282,-0.1208,-0.1945,8.4121,65.7419,0.4085,0.7341,1.7472,279.5938
20:54:02:303,0.7052,-0.0676,7.8866,65.4831,0.6884,0.6574,1.8181,277.7188
20:54:02:321,2.3788,0.9499,5.7151,65.9095,0.975,0.5735,1.7696,275.7344
20:54:02:342,2.3309,1.3665,4.3935,65.491,1.1151,0.4604,1.564,273.7656
20:54:02:361,1.9346,1.4922,3.7051,67.5628,1.024,0.3528,1.3147,271.6719
20:54:02:382,1.8448,1.6502,3.9194,66.5405,0.772,0.2441,1.1595,269.7656
20:54:02:404,2.0579,1.9399,4.5168,65.0939,0.5241,0.1605,1.0862,268.2344
20:54:02:420,2.2782,2.244,5.0447,63.7975,0.3699,0.0766,1.0085,266.8594
20:54:02:441,2.5906,2.5827,5.6097,64.99,0.2876,-0.0275,0.9086,265.6094
20:54:02:460,2.8516,2.8617,5.9461,64.3651,0.2344,-0.1194,0.7664,264.4062
20:54:02:482,3.1102,2.8413,6.1305,64.069,0.1704,-0.1908,0.535,263.3906
20:54:02:507,3.0384,2.8317,6.8104,63.7901,-0.0155,-0.2723,0.2266,262.4531
20:54:02:522,2.6912,2.8198,8.1991,65.0112,-0.3558,-0.382,-0.1178,261.7344
20:54:02:541,1.5695,2.5408,10.3754,63.8808,-0.7393,-0.5082,-0.4858,261.2969
20:54:02:564,0.7806,1.7101,12.5062,62.1751,-0.9545,-0.4835,-0.6994,261.4844
20:54:02:587,1.1134,1.1774,12.1962,63.8893,-0.8296,-0.2156,-0.6454,262.0781
20:54:02:605,1.5851,1.819,10.5597,63.0411,-0.5713,-0.1935,-0.5199,262.875
20:54:02:621,2.1788,2.3828,10.282,61.1912,-0.5539,-0.7173,-0.5471,263.2656
20:54:02:641,2.0352,1.7975,11.8622,62.7721,-0.8871,-1.2326,-0.835,263.9062
20:54:02:661,0.801,0.7033,14.1283,62.2738,-1.33,-1.1415,-1.1354,264.5156
20:54:02:681,-0.7158,0.0892,15.019,62.2346,-1.5492,-0.472,-1.1892,265.3438
20:54:02:705,-1.0905,0.331,14.0457,62.5254,-1.395,0.1621,-0.9037,266.625
20:54:02:724,-0.0442,0.744,12.4033,62.5014,-0.9923,0.2084,-0.4933,268.0625
20:54:02:741,0.7938,1.2181,11.2229,61.4683,-0.588,-0.2337,-0.2275,269.2344
20:54:02:761,1.0332,1.4659,10.2006,60.5627,-0.2698,-0.6896,-0.134,270.2031
20:54:02:781,0.7782,1.6191,9.0382,61.204,-0.0591,-0.8374,-0.1186,270.4688
20:54:02:805,0.7938,1.7927,7.6819,60.3225,0.082,-0.7572,-0.0645,270.6406
20:54:02:823,0.9781,2.056,6.389,60.7727,0.1875,-0.6355,-0.0035,270.8125
20:54:02:841,1.22,2.2954,5.3368,58.9092,0.2623,-0.5548,0.0098,270.9375
20:54:02:860,1.4654,2.5337,4.3767,59.229,0.3007,-0.5591,-0.039,270.9688
20:54:02:881,1.5611,2.7958,3.929,59.7648,0.2373,-0.6651,-0.1489,270.9844
20:54:02:903,1.5983,2.955,4.1744,58.6162,0.0652,-0.7719,-0.3066,271.0469
20:54:02:921,1.5994,3.0999,5.2374,60.6988,-0.1577,-0.868,-0.4866,271.25
20:54:02:943,1.6868,3.0388,6.4178,58.7318,-0.3486,-0.868,-0.6749,271.6406
20:54:02:960,1.6749,2.8808,7.2342,57.3556,-0.494,-0.7397,-0.8699,272.25
20:54:02:982,1.1254,2.7946,8.3271,58.7404,-0.6714,-0.5706,-1.068,273.0938
20:54:03:007,0.4682,2.4008,10.0785,57.8963,-0.8392,-0.5034,-1.2336,274.1094
20:54:03:024,-0.468,1.6741,12.505,58.8768,-0.7587,-0.6331,-1.2699,275.4062
20:54:03:043,-1.8063,1.0361,14.327,57.2161,-0.4706,-0.5056,-0.9681,275.4062
20:54:03:061,-2.9388,0.5956,14.7927,55.982,-0.2325,-0.2188,-0.4323,279.9844
20:54:03:081,-2.7927,0.5788,14.5665,56.1118,-0.0929,0.0958,0.1467,280.6406
20:54:03:105,-1.8949,1.0948,13.8506,54.6995,-0.0618,0.1956,0.5134,281.1562
20:54:03:124,-1.2676,1.7771,13.5812,56.2441,-0.1718,0.116,0.6474,281.6719
20:54:03:139,-0.9935,1.9423,14.1475,55.3457,-0.3609,0.0596,0.6639,281.5156
20:54:03:159,-1.1695,1.2803,15.6977,55.4369,-0.4416,0.1631,0.7256,280.9375
20:54:03:179,-1.9224,0.2532,17.3521,55.0222,-0.2322,0.4753,0.9779,280.2031
20:54:03:208,-2.2193,-0.6949,17.3533,54.7307,0.1779,0.6684,1.3627,279.5156
20:54:03:223,-1.6902,-1.3641,15.8138,55.5036,0.5734,0.4673,1.7576,278.7188
20:54:03:239,-0.6535,-1.5209,14.4814,54.5152,0.8733,0.1514,2.0306,277.625
20:54:03:259,0.5999,-1.4251,13.4747,54.1108,1.0802,0.1086,2.1129,276.0469
20:54:03:279,1.3002,-1.3713,12.0274,55.6035,1.1713,0.3205,2.0895,274.0938
20:54:03:304,1.4187,-1.2492,10.367,53.5043,1.1912,0.6289,2.094,271.7031
20:54:03:322,1.4773,-1.09,8.6252,55.7281,1.188,0.8817,2.1321,269.2031
20:54:03:339,1.6797,-0.7799,7.0977,53.6473,1.1529,1.0071,2.1723,266.8438
20:54:03:361,2.35,-0.3226,5.8623,54.7449,0.9878,1.0881,2.1233,263.0625
20:54:03:379,2.7618,0.1766,5.174,54.329,0.6996,1.1365,2.0175,260.4844
20:54:03:406,2.7391,0.7093,5.2542,54.6302,0.4762,1.0716,1.9467,258.0312
20:54:03:420,2.7163,1.1283,5.7223,52.878,0.3934,0.8481,1.8828,255.5469
20:54:03:440,2.9426,1.4922,6.6811,54.0373,0.4938,0.6447,1.747,253.1719
20:54:03:463,3.595,1.892,7.3228,52.8823,0.6615,0.6487,1.4594,251
20:54:03:479,3.844,2.3637,6.759,52.8916,0.6922,0.6841,1.0362,248.8438
20:54:03:501,3.5268,2.663,6.1903,54.0975,0.5473,0.6154,0.5858,246.9219
20:54:03:523,3.1988,2.5373,6.3579,52.5132,0.3244,0.5235,0.1746,245.4062
20:54:03:546,2.8983,1.819,7.2522,54.2959,0.1286,0.4103,-0.1607,244.4688
20:54:03:565,2.3811,0.732,8.5546,54.356,0.0282,0.2795,-0.337,244.1719
20:54:03:580,1.7754,-0.2891,9.7864,52.07,0.0359,0.1887,-0.3332,243.9062
20:54:03:603,1.7946,-0.9547,10.3538,53.9502,0.0453,0.2092,-0.2486,244.0469
20:54:03:623,2.2411,-1.2396,9.8331,52.6374,-0.1297,0.3339,-0.2065,244.3906
20:54:03:640,2.6577,-0.9367,8.9724,51.886,-0.5318,0.4153,-0.3007,244.75
20:54:03:663,2.8875,-0.4244,8.7378,51.6882,-1.0434,0.2614,-0.6006,245.1094
20:54:03:679,2.3213,-0.5345,10.1815,53.0326,-1.3766,-0.0749,-0.9636,245.3125
20:54:03:700,0.7782,-1.643,12.4129,52.7718,-1.3087,-0.1964,-1.0443,245.7188
20:54:03:723,-1.1156,-2.578,11.4923,51.7355,-0.9673,-0.0385,-0.693,246.5625
20:54:03:743,0.2012,-1.4958,9.3136,52.9211,-0.6333,0.0081,-0.1226,247.6875
20:54:03:760,2.0005,-0.2269,7.5873,51.9347,-0.4506,-0.2592,0.2535,248.6875
20:54:03:781,2.8528,0.8206,6.4309,51.9347,-0.4735,-0.6164,0.2292,249.125
20:54:03:803,2.9139,1.309,6.3507,50.8062,-0.7191,-0.8315,-0.0472,248.9844
20:54:03:821,2.5296,1.3904,7.2581,51.5252,-1.0658,-0.8297,-0.3806,248.6562
20:54:03:838,1.8137,1.2324,8.2948,51.8091,-1.3082,-0.6068,-0.6717,248.5469
20:54:03:859,0.7782,1.1774,9.3327,51.7182,-1.3579,-0.2949,-0.864,248.7812
20:54:03:879,0.0085,1.2456,9.9576,51.0387,-1.1984,0.0263,-0.8906,249.375
20:54:03:907,-0.4189,1.4288,9.547,51.4776,-0.8488,0.3203,-0.7961,250.2812
20:54:03:924,-0.3913,1.7376,8.6647,50.0113,-0.4695,0.4215,-0.6464,251.75
20:54:03:939,-0.1711,2.2512,7.8938,51.1677,-0.2029,0.3576,-0.5215,252.6719
20:54:03:959,-0.0286,2.5456,8.1093,51.2261,-0.1222,0.1378,-0.5117,253.4219
20:54:03:980,-0.2513,2.4092,9.2046,50.0443,-0.1425,-0.1016,-0.6054,254.0312
20:54:04:004,-0.4285,1.9674,10.2473,48.6099,-0.1675,-0.1761,-0.6938,254.5938
20:54:04:021,-0.8199,1.4766,10.8878,50.098,-0.1587,-0.1096,-0.7146,254.9219
20:54:04:040,-1.2676,1.0792,11.0374,50.2176,-0.1201,-0.0033,-0.6467,255.6562
20:54:04:061,-1.3478,0.7009,11.1499,51.3326,-0.0599,-0.0211,-0.4533,256.4688
20:54:04:079,-0.9743,0.6171,11.5833,51.8234,0.0234,-0.2563,-0.1761,257.2188
20:54:04:103,-0.3363,0.5561,12.5374,49.6838,0.1057,-0.647,0.0769,257.8594
20:54:04:122,0.06,0.4531,13.7883,50.8614,0.147,-0.9296,0.2316,258.2188
20:54:04:139,0.2766,0.4579,14.4922,50.0715,0.1752,-0.8739,0.3307,258.2344
20:54:04:166,0.3197,0.6004,14.7233,47.4993,0.1579,-0.5756,0.3704,258
20:54:04:178,0.2886,0.4986,15.0968,49.2758,0.0863,-0.3154,0.3592,257.625
20:54:04:244,-0.632,0.0784,16.6123,50.6092,-0.0051,-0.2622,0.2908,257.2031
20:54:04:245,-1.6375,-0.817,17.0432,48.4388,0.1297,-0.0984,0.3259,256.5469
20:54:04:245,-1.6663,-1.3282,14.4024,48.1885,0.5798,0.2912,0.5813,256.2031
20:54:04:261,-1.2664,-1.0576,11.5438,50.0282,0.9444,0.4068,0.9041,255.8438
20:54:04:280,-0.8474,-0.7165,10.8746,48.5794,1.0045,0.026,1.0956,255.1719
20:54:04:305,-0.7672,-0.8709,11.7485,50.6332,0.9436,-0.4254,1.1014,254.125
20:54:04:321,-1.0378,-1.1462,11.6419,50.3101,0.9952,-0.4393,1.0831,252.9062
20:54:04:340,-1.0629,-1.0086,10.1276,48.7743,1.1358,-0.1327,1.1813,251.6094
20:54:04:360,-0.5206,-0.5261,8.4888,49.4905,1.2365,0.1799,1.3619,250.3438
20:54:04:381,0.5676,0.1862,7.1708,49.5443,1.297,0.3187,1.5313,248.9531
20:54:04:403,1.7994,1.0373,6.0958,50.3524,1.3249,0.3618,1.5872,247.4219
20:54:04:425,2.7834,1.7268,5.3799,49.3396,1.118,0.4415,1.017,245.6094
20:54:04:440,2.8289,1.9567,4.8783,48.5939,0.8975,0.5203,0.4892,245.6094
20:54:04:461,1.9705,1.5221,4.7909,48.5616,0.6615,0.6068,0.0961,243.7344
20:54:04:480,0.8872,0.568,5.1297,48.5657,0.4466,0.7064,-0.0251,242.125
20:54:04:504,-0.0454,-0.0904,5.8468,49.9399,0.302,0.7762,0.1206,240.8906
20:54:04:522,-0.2776,-0.3585,6.8356,50.4315,0.2767,0.715,0.4013,240.0781
20:54:04:541,0.382,-0.1359,7.7657,50.0581,0.359,0.4795,0.6247,240.0469
20:54:04:559,1.8401,0.2891,8.5498,50.9688,0.4775,0.185,0.6234,239.8281
20:54:04:579,2.9785,0.5788,8.6384,50.3936,0.485,-0.068,0.3949,239.2969
20:54:04:605,3.2119,0.4507,8.4564,49.227,0.2866,-0.17,0.1187,238.5625
20:54:04:622,2.7678,-0.0269,8.575,49.8733,-0.1068,-0.0318,-0.0381,237.8438
20:54:04:640,2.1417,-0.5728,9.2645,50.0262,-0.5137,0.3288,0.0133,237.4062
20:54:04:659,2.1621,-0.7979,9.9576,49.872,-0.7547,0.5906,0.2204,237.2969
20:54:04:679,3.0767,-0.4375,10.3395,49.3221,-0.8107,0.5602,0.3123,237.3438
20:54:04:704,4.1864,0.0844,9.8128,50.3289,-0.882,0.1805,0.0947,237.2812
20:54:04:722,4.1948,0.4268,9.6164,49.8816,-1.1076,-0.2909,-0.3109,236.9531
20:54:04:740,3.1222,-0.0293,11.1248,50.0771,-1.277,-0.4787,-0.6017,236.5312
20:54:04:759,1.7862,-0.8888,12.8582,51.4818,-1.2711,-0.2371,-0.6027,236.375
20:54:04:781,1.2822,-0.7895,13.7153,49.7475,-1.1726,0.2572,-0.4784,236.7344
20:54:04:804,1.8042,-0.2747,13.3394,50.0273,-1.0165,0.6164,-0.5455,237.3906
20:54:04:823,1.8532,0.0269,11.9544,51.0925,-0.865,0.6862,-0.7418,238.3281
20:54:04:840,1.1876,-0.0162,10.5226,51.0687,-0.7398,0.6356,-0.8395,238.8438
20:54:04:859,0.3616,0.1131,9.3172,49.6472,-0.5744,0.556,-0.7761,239.5
20:54:04:879,0.0576,0.4854,8.0518,52.644,-0.3699,0.4441,-0.6568,240.3906
20:54:04:904,0.1629,0.8302,6.6009,48.9872,-0.2107,0.2524,-0.5761,241.2969
20:54:04:921,0.3185,1.0756,5.4074,52.734,-0.1435,0.014,-0.5298,242.0469
20:54:04:939,0.4634,1.2695,4.7227,51.347,-0.1694,-0.214,-0.5133,242.7344
20:54:04:960,0.5268,1.4503,4.6772,51.6427,-0.2599,-0.3439,-0.5165,243.3594
20:54:04:981,0.5304,1.6622,5.1429,52.1135,-0.3689,-0.3895,-0.5295,243.9375
20:54:05:005,0.5735,1.7448,6.1317,49.3516,-0.4637,-0.3881,-0.5644,244.4844
20:54:05:022,0.3916,1.7065,7.5131,50.6411,-0.5087,-0.3447,-0.6081,245.0625
20:54:05:040,-0.0825,1.6837,8.9101,51.2212,-0.5007,-0.2875,-0.632,245.6562
20:54:05:059,-0.7217,1.4826,10.1132,50.5671,-0.44,-0.2166,-0.603,246.25
20:54:05:080,-1.4663,1.1067,11.029,49.7989,-0.319,-0.1413,-0.4635,246.5938
20:54:05:104,-1.7896,0.7237,11.2493,50.2793,-0.1987,-0.1735,-0.2395,247.2969
20:54:05:121,-0.7541,0.021,11.8335,50.8992,-0.2045,-0.4174,-0.0121,248.2188
20:54:05:140,-0.201,-0.0808,13.3909,49.7836,-0.2687,-0.6923,0.1957,248.6094
20:54:05:159,-0.0154,-0.2328,14.5904,50.864,-0.2626,-0.7495,0.3698,248.7344
20:54:05:179,0.0205,0.0629,14.3031,50.3183,-0.1683,-0.4859,0.5491,248.5781
20:54:05:203,-0.0765,0.9056,13.7357,50.3471,-0.1313,-0.2009,0.7097,248.2188
20:54:05:222,-0.1747,1.2372,14.2803,46.8009,-0.2115,-0.1745,0.7565,247.6562
20:54:05:238,-0.7229,0.6889,16.1598,49.5462,-0.273,-0.361,0.7147,246.9062
20:54:05:258,-1.9559,0.0365,17.5041,50.6423,-0.0951,-0.4622,0.7395,246.0938
20:54:05:279,-1.8781,-0.5201,15.6283,50.3473,0.4354,-0.2414,1.0061,245.2188
20:54:05:305,-0.8594,-0.1574,12.4607,50.9298,0.9713,-0.0725,1.3502,244.3906
20:54:05:327,0.3796,0.4627,11.4061,52.6474,1.1337,-0.3833,1.5251,243.3906
20:54:05:337,0.7184,0.5393,12.8235,51.8567,1.0765,-0.8949,1.4135,242.0781
20:54:05:362,0.3245,-0.0569,13.8111,51.2191,1.1156,-1.0454,1.1661,240.3906
20:54:05:378,-0.3722,-0.7512,12.8869,51.9596,1.3486,-0.7351,1.0183,238.625
20:54:05:400,-0.5542,-1.0983,10.537,51.9959,1.6144,-0.2049,1.0444,237.1875
20:54:05:422,-0.195,-1.0983,8.2146,52.9498,1.7473,0.2731,1.1731,235.3125
20:54:05:438,0.3437,-0.987,6.3783,52.8253,1.7366,0.5725,1.2775,234.0469
20:54:05:465,0.8082,-0.7883,5.2231,52.5738,1.6248,0.6846,1.3057,232.6875
20:54:05:486,1.2643,-0.6039,4.6856,51.8827,1.2267,0.6265,1.1683,229.5625
20:54:05:503,1.5288,-0.3741,4.5886,54.2043,0.9657,0.6257,1.0506,228.0938
20:54:05:524,1.6461,-0.2292,4.9896,52.8739,0.7111,0.6979,0.9677,226.6719
20:54:05:545,1.8077,-0.0377,5.502,52.2124,0.5364,0.7757,0.9267,225.3906
20:54:05:567,2.0759,0.3633,5.8898,52.3414,0.4477,0.7525,0.8777,224.7969
20:54:05:582,2.5691,0.7392,6.3029,54.1957,0.4274,0.7024,0.7515,223.6719
20:54:05:605,2.9019,0.9966,6.3184,52.9335,0.3747,0.7187,0.5355,222.5312
20:54:05:642,3.0156,1.1391,5.7354,52.4697,0.1606,0.6721,0.2497,221.5
20:54:05:643,2.8887,0.9715,5.5439,55.0798,-0.2344,0.5304,-0.0563,220.7031
20:54:05:662,2.5188,0.4364,6.3424,53.6691,-0.6666,0.3459,-0.2834,220
20:54:05:687,1.9035,-0.1586,8.1871,53.9872,-0.9452,0.2175,-0.3535,219.9844
20:54:05:701,1.6521,-0.975,10.276,54.2836,-0.9585,0.2377,-0.2307,220.2344
20:54:05:721,2.435,-1.5329,10.7752,54.4162,-0.8956,0.267,-0.085,220.5781
20:54:05:741,3.504,-1.1462,9.8379,54.6611,-1.0101,0.042,-0.1513,220.7656
20:54:05:760,4.2091,-0.8158,9.4979,53.9576,-1.2578,-0.4233,-0.4885,220.7969
20:54:05:790,4.0379,-1.1869,10.5418,54.3288,-1.5271,-0.5876,-0.8786,220.9062
20:54:05:800,3.0276,-1.7567,11.8119,55.6162,-1.7814,-0.1436,-1.0896,221.4531
20:54:05:823,2.1333,-1.7699,12.6918,55.4708,-1.9505,0.6561,-1.0954,221.4531
20:54:05:840,2.0927,-1.3246,12.5086,57.0873,-1.9673,1.2681,-1.0544,222.4375
20:54:05:858,2.6445,-0.5273,11.5833,56.2619,-1.8259,1.254,-1.1777,223.5625
20:54:05:879,2.7307,0.1059,10.9548,56.2619,-1.5678,0.813,-1.4755,224.7344
20:54:05:899,1.8018,0.173,10.6806,54.3769,-1.2437,0.3842,-1.7125,225.8438
20:54:05:921,0.3712,-0.161,10.5454,55.6914,-0.8903,0.1616,-1.7117,227.0312
20:54:05:939,-0.8798,-0.3334,10.0163,57.895,-0.5459,0.0955,-1.5008,228.625
20:54:05:958,-1.4053,-0.1083,8.9796,57.8151,-0.2943,0.0423,-1.2291,231.4844
20:54:05:982,-1.1407,0.3238,7.9764,56.3363,-0.1457,-0.0606,-1.0616,233.2031
20:54:06:005,-1.0162,0.6423,7.2869,55.9193,-0.0748,-0.1809,-0.9932,234.0156
20:54:06:024,-1.1599,0.896,7.002,56.926,-0.0594,-0.3274,-0.9468,236.0156
20:54:06:041,-1.3694,1.0588,7.3371,55.7198,-0.0594,-0.537,-0.9231,236.6094
20:54:06:057,-1.8757,0.8601,8.5235,56.1546,0.0035,-0.7242,-0.8472,237.6562
20:54:06:078,-2.2588,0.5632,9.7505,57.6657,0.1241,-0.7644,-0.7074,238.7031
20:54:06:099,-2.521,0.4148,10.3227,55.0761,0.1909,-0.6259,-0.5612,239.7031
20:54:06:123,-2.7867,0.3549,10.7345,55.7517,0.1217,-0.2819,-0.4179,240.5469
20:54:06:139,-2.7987,0.2927,11.211,55.9037,-0.0746,0.3243,-0.3143,241.2812
20:54:06:158,-2.6874,0.2711,11.4444,57.5565,-0.3859,1.0332,-0.2882,241.8594
20:54:06:178,-2.8466,0.0317,11.9855,56.184,-0.6189,1.4364,-0.2962,242.3125
20:54:06:199,-3.4763,-0.7655,13.2377,57.4398,-0.4991,1.2993,-0.2059,242.6875
20:54:06:222,-4.009,-1.6753,14.1271,58.8275,-0.0314,0.8327,0.0404,243.1094
20:54:06:240,-4.1012,-2.317,13.5752,56.6874,0.449,0.2455,0.3232,243.5938
20:54:06:318,-3.918,-2.4044,12.3291,56.1993,0.5862,-0.1831,0.5224,244
20:54:06:319,-3.5134,-2.3733,11.9592,57.5869,0.3766,-0.3096,0.5715,243.875
20:54:06:319,-3.5625,-2.8485,12.8714,57.4125,0.1164,-0.2568,0.6215,243.4219
20:54:06:319,-4.3202,-3.6134,14.6443,56.8347,0.1502,0.006,0.8708,242.8281
20:54:06:345,-4.7727,-4.2814,15.0225,55.7783,0.5361,0.3429,1.3629,242.1406
20:54:06:360,-4.0581,-4.2084,12.5098,56.1268,0.8615,0.3304,1.853,241.3125
20:54:06:382,-2.5832,-3.3381,9.8415,55.6959,0.8666,-0.2126,2.0588,240.1719
20:54:06:406,-1.3203,-2.5313,9.7996,55.7952,0.751,-0.6718,1.9928,238.4062
20:54:06:422,-0.8738,-2.3924,11.1008,53.9809,0.7944,-0.6374,1.8903,236.2031
20:54:06:439,-0.9791,-2.4942,11.1092,54.0031,0.9558,-0.2848,1.8924,233.9062
20:54:06:458,-1.0306,-2.329,9.5027,53.437,1.037,0.1365,1.9939,231.8281
20:54:06:479,-0.5661,-1.9638,7.5514,51.824,0.9912,0.4268,2.0785,229.7344
20:54:06:499,0.0528,-1.4503,6.0886,53.7453,0.9191,0.5208,2.0964,227.5938
20:54:06:521,1.1206,-0.6422,4.3037,52.4802,0.8791,0.4396,2.0381,225.4531
20:54:06:539,1.4127,-0.1993,3.8955,53.6897,0.8229,0.2196,1.9057,224.2969
20:54:06:559,1.5587,0.1335,3.9506,53.1823,0.7161,-0.0592,1.7161,220.8281
20:54:06:579,1.7204,0.3789,4.4605,52.0367,0.5774,-0.3138,1.5028,218.75
20:54:06:597,1.8257,0.5094,5.2231,51.0875,0.4298,-0.484,1.2849,216.7344
20:54:06:622,1.9442,0.5596,5.8707,51.8442,0.3047,-0.5546,1.0782,214.9688
20:54:06:643,2.204,0.7201,6.5471,51.7913,0.1846,-0.5423,0.8804,213.4375
20:54:06:658,2.6768,0.8386,7.1133,50.523,0.0607,-0.4624,0.6612,212.2188
20:54:06:679,2.9474,0.4986,7.5562,50.8461,-0.085,-0.3767,0.3302,211.1562
20:54:06:699,2.447,-0.2664,8.7713,50.4989,-0.3443,-0.3477,-0.0738,210
20:54:06:722,1.6689,-1.1319,10.1982,50.294,-0.6506,-0.215,-0.371,209.6562
20:54:06:740,1.1445,-2.0213,11.3187,49.6571,-0.8844,0.0015,-0.4813,209.7656
20:54:06:758,1.3301,-2.317,11.9352,49.594,-1.0152,0.112,-0.3844,210.1562
20:54:06:778,2.3847,-1.7903,12.0705,49.0705,-1.0557,0.0702,-0.187,210.4219
20:54:06:798,2.7092,-1.1199,12.6678,50.0555,-1.102,-0.2014,-0.1998,210.8594
20:54:06:824,1.8365,-1.2851,13.75,51.3862,-1.1721,-0.488,-0.4832,211.125
20:54:06:843,0.4407,-2.1362,14.6802,49.8124,-1.196,-0.4712,-0.7127,211.2344
20:54:06:862,-0.5948,-2.4032,14.1582,50.4155,-1.0887,-0.0488,-0.6419,211.5312
20:54:06:877,-0.1028,-1.8358,12.4715,50.8701,-0.8605,0.3275,-0.2832,212.2031
20:54:06:898,1.2846,-0.8481,11.3594,50.4038,-0.6346,0.2297,0.063,212.9844
20:54:06:920,2.2076,0.0018,11.041,51.2273,-0.425,-0.1991,0.1499,213.4688
20:54:06:942,2.2626,0.519,10.2234,50.5089,-0.1768,-0.5287,0.0191,213.5469
20:54:06:957,1.9406,0.6865,9.0789,51.1042,0.0234,-0.6081,-0.1772,213.3594
20:54:06:981,1.6294,0.7907,7.7154,49.6211,0.1348,-0.5053,-0.3314,213.2188
20:54:07:007,1.2918,0.9415,6.6871,49.0309,0.1382,-0.3644,-0.4611,213.3906
20:54:07:025,1.0787,0.9475,6.3352,49.0717,0.0573,-0.2302,-0.5822,213.75
20:54:07:040,0.8285,0.9296,6.2933,51.467,-0.0546,-0.0568,-0.6909,214.2656
20:54:07:057,0.5029,0.9523,6.334,49.9976,-0.1499,0.1682,-0.7711,214.9062
20:54:07:078,0.2324,1.0349,6.5231,49.7578,-0.1968,0.3104,-0.8187,215.6875
20:54:07:098,0.0899,1.0684,6.9744,49.6269,-0.1787,0.2622,-0.8427,216.5781
20:54:07:122,-0.0753,0.9475,7.8519,50.8566,-0.1225,0.0697,-0.8504,217.4688
20:54:07:141,-0.1926,0.7081,8.703,50.8752,-0.0655,-0.0811,-0.8448,218.4531
20:54:07:158,-0.4955,0.3693,9.474,49.7487,-0.0437,-0.1146,-0.8286,219.4219
20:54:07:178,-0.8067,0.2113,10.1898,49.8292,-0.0719,-0.0163,-0.7772,220.3438
20:54:07:199,-0.9731,0.0832,10.5119,51.9977,-0.1159,0.1858,-0.7007,221.2812
20:54:07:223,-1.2365,-0.2424,10.8339,51.1693,-0.2663,0.4388,-0.5391,222.1719
20:54:07:240,-1.4939,-0.5992,11.1068,52.5641,-0.3281,0.3581,-0.394,222.1719
20:54:07:258,-1.4723,-0.8254,11.4528,51.5539,-0.3923,0.1173,-0.2696,222.9844
20:54:07:278,-1.5609,-1.0564,11.9448,52.2144,-0.4932,-0.231,-0.1844,224.0156
20:54:07:298,-1.9978,-1.3162,13.2245,51.4169,-0.5968,-0.5154,-0.0693,224.0156
20:54:07:324,-2.4109,-1.9387,15.1482,50.6483,-0.6272,-0.6323,0.1065,224.7656
20:54:07:340,-2.9639,-2.7982,17.7388,52.9393,-0.4085,-0.4739,0.4503,225.0625
20:54:07:359,-3.0704,-3.4566,19.3129,53.8596,0.1822,0.0098,0.9611,225.2656
20:54:07:377,-2.2888,-3.477,17.3796,53.471,0.8099,0.39,1.4279,225.0938
20:54:07:399,-1.0306,-2.9503,13.3801,52.0722,1.0823,0.3261,1.6777,224.5312
20:54:07:423,-0.0562,-2.2715,10.6411,52.0519,1.0477,0.0417,1.7241,223.4375
20:54:07:440,0.2898,-1.8298,9.5877,51.7656,0.943,-0.1756,1.6889,221.8438
20:54:07:457,0.3592,-1.6406,9.2142,50.8253,0.9007,-0.2675,1.6711,220.0625
20:54:07:477,0.3497,-1.4144,8.8263,51.7795,0.898,-0.2952,1.678,218.125
20:54:07:497,0.4191,-1.1642,8.4289,53.1219,0.9089,-0.2608,1.6948,216.2031
20:54:07:523,0.7124,-0.9236,8.0111,52.7586,0.9425,-0.1594,1.6977,214.4062
20:54:07:538,1.1182,-0.6375,7.3036,51.5918,0.9689,-0.0414,1.6471,210.5781
20:54:07:557,1.433,-0.3035,6.3352,51.3987,0.9489,0.0164,1.5414,208.7344
20:54:07:577,1.6425,-0.0066,5.6097,52.9398,0.8943,-0.0014,1.4069,207.7969
20:54:07:599,1.8999,0.1826,5.1512,50.6913,0.8333,-0.0981,1.2508,205.9844
20:54:07:622,2.022,0.325,5.0303,52.963,0.7579,-0.2001,1.0838,204.3125
20:54:07:640,2.0771,0.4962,5.2051,51.6139,0.661,-0.2273,0.9121,202.1875
20:54:07:658,2.1238,0.6075,5.5176,52.2889,0.542,-0.1908,0.731,200.9844
20:54:07:681,1.931,0.4699,5.915,50.689,0.3936,-0.0899,0.5869,199.9531
20:54:07:697,1.5899,0.173,6.4872,52.8938,0.1933,0.095,0.5251,199.5156
20:54:07:717,1.5037,-0.0844,7.2522,52.6013,-0.0309,0.2785,0.491,198.8281
20:54:07:742,1.6761,-0.2819,8.0423,51.8058,-0.2501,0.2811,0.4127,198.2031
20:54:07:757,2.4362,-0.2316,8.7078,53.3534,-0.502,-0.0675,0.1864,197.6094
20:54:07:779,3.285,-0.6806,10.0821,52.8206,-0.8418,-0.5282,-0.1252,197.0781
20:54:07:799,3.5184,-1.4407,12.924,53.465,-1.0269,-0.6582,-0.3037,196.7031
20:54:07:823,3.8237,-2.6857,15.0585,54.3369,-0.8922,-0.2702,-0.3806,196.6875
20:54:07:839,3.1952,-2.8988,13.9547,52.8129,-0.7233,0.311,-0.3332,196.9844
20:54:07:857,2.7942,-1.9387,11.0087,54.3431,-0.7902,0.4678,-0.3058,197.3906
20:54:07:881,2.7247,-1.1295,9.3662,55.1143,-0.9593,0.2902,-0.4483,197.8281
20:54:07:897,2.0304,-1.1115,9.7577,55.622,-0.9257,0.1046,-0.5069,198.1562
20:54:07:918,2.453,-1.8345,9.4297,54.7926,-0.6855,-0.0997,-0.3945,198.5312
20:54:07:948,4.0391,-1.2025,9.0083,55.7854,-0.4807,-0.4787,-0.2659,199.1094
20:54:07:958,4.518,-0.4974,10.1767,54.9551,-0.5137,-1.0385,-0.4477,199.6406
20:54:07:978,3.4346,-0.4459,11.6048,54.9551,-0.6967,-1.1394,-0.9255,199.9688
20:54:07:998,2.034,-0.7392,11.1978,54.8799,-0.755,-0.492,-1.3247,200.3125
20:54:08:022,0.9458,-0.6303,8.8874,57.6046,-0.682,0.4596,-1.4704,201.0469
20:54:08:037,0.5268,-0.2173,6.6452,56.7827,-0.6408,1.1158,-1.3974,202.3594
20:54:08:057,0.4502,0.3047,5.8611,55.536,-0.6464,1.1179,-1.2363,203.9531
20:54:08:081,0.3269,0.7835,6.4537,56.8543,-0.6208,0.6851,-1.1173,205.6719
20:54:08:096,0.0049,0.8924,7.2414,57.4829,-0.489,0.2577,-1.0584,207.25
20:54:08:117,-0.3219,0.9475,7.403,57.923,-0.2911,0.0636,-0.9932,208.5781
20:54:08:142,-0.2513,1.0445,7.5778,58.0341,-0.171,0.0452,-0.8816,209.8438
20:54:08:158,-0.2656,1.1929,7.9896,60.9784,-0.1417,0.0777,-0.794,211.0312
20:54:08:177,-0.432,1.0852,8.5079,59.6143,-0.1358,0.0987,-0.7628,212.0625
20:54:08:197,-0.8115,0.7512,9.4153,60.0087,-0.1507,0.0865,-0.7439,213.0156
20:54:08:223,-1.373,0.3945,10.3131,60.1807,-0.1667,0.1578,-0.681,213.9062
20:54:08:243,-1.7572,-0.076,11.029,59.4494,-0.1595,0.258,-0.5452,214.7812
20:54:08:257,-1.9164,-0.574,11.7245,60.4419,-0.1345,0.2287,-0.3431,215.5781
20:54:08:278,-1.7369,-1.0959,12.9827,60.2891,-0.1167,0.0502,-0.0957,216.3125
20:54:08:297,-1.0857,-1.5293,14.7711,60.9807,-0.0951,-0.215,0.1698,217.0156
20:54:08:324,-0.2489,-1.7065,16.0197,63.4803,0.0258,-0.3652,0.3965,217.125
20:54:08:400,0.3928,-1.5975,16.1131,62.8031,0.1987,-0.3293,0.5107,216.9062
20:54:08:400,0.4658,-1.6442,16.0903,61.4988,0.2932,-0.2832,0.5014,216.4219
20:54:08:401,-0.2393,-2.0716,17.139,61.1412,0.2623,-0.2965,0.4346,215.8281
20:54:08:401,-1.0246,-2.6989,17.3258,61.9788,0.3678,-0.0891,0.5142,215.2344
20:54:08:418,-0.8762,-2.9084,14.4886,61.0565,0.7846,0.3767,0.8167,214.7031
20:54:08:444,0.1665,-2.4786,10.5346,61.0988,1.1995,0.6502,1.192,214.1406
20:54:08:458,0.8369,-1.5628,8.3152,61.3809,1.2874,0.3677,1.3914,213.2344
20:54:08:481,0.9267,-0.987,8.952,61.0798,1.086,-0.2986,1.3536,211.9062
20:54:08:496,0.6861,-1.2109,10.4328,61.1629,0.906,-0.7543,1.1994,210.3438
20:54:08:518,0.4119,-1.4323,10.3898,59.2864,0.9569,-0.7226,1.1126,209.6406
20:54:08:542,0.5077,-1.315,8.9257,60.0643,1.1167,-0.4012,1.1547,208.1719
20:54:08:558,0.8213,-1.0253,7.1336,58.0038,1.1729,-0.0124,1.2229,206.8438
20:54:08:578,1.0823,-0.6614,5.7462,59.2845,1.0642,0.3267,1.2282,205.5625
20:54:08:599,1.4031,-0.3537,4.986,59.4058,0.8488,0.5629,1.1904,203.5312
20:54:08:625,1.6689,-0.1431,4.7981,58.4869,0.4575,0.63,1,202.1094
20:54:08:643,1.6174,0.0688,5.065,58.3594,0.4061,0.4353,0.899,200.7812
20:54:08:657,1.5073,0.1347,5.5164,56.8909,0.4378,0.153,0.8127,199.4844
20:54:08:681,1.3935,0.1766,6.1472,56.5806,0.485,-0.0829,0.756,198.3125
20:54:08:696,1.5049,0.0844,6.8643,57.3559,0.526,-0.1892,0.7121,196.375
20:54:08:717,1.7239,0.1155,7.4892,55.426,0.5276,-0.15,0.6298,196.375
20:54:08:738,2.0771,0.2508,7.8028,55.1777,0.4629,-0.0438,0.4631,195.5156
20:54:08:757,2.4063,0.1454,7.7118,56.3009,0.3031,-0.0014,0.2412,194.7344
20:54:08:781,2.4087,-0.1299,7.8256,54.4415,0.0397,-0.0299,0.0324,194.0625
20:54:08:796,2.1369,-0.568,8.6348,56.7633,-0.2178,-0.0227,-0.0818,193.2656
20:54:08:818,1.931,-0.8469,9.6559,54.6716,-0.4067,0.0465,-0.1117,193.2188
20:54:08:842,1.621,-0.9427,10.774,55.5969,-0.4538,0.2508,-0.039,193.25
20:54:08:861,1.9514,-1.0469,10.8818,53.4108,-0.4099,0.4516,0.0617,193.375
20:54:08:878,2.8732,-0.6722,9.711,54.0503,-0.4839,0.4042,-0.0089,193.4375
20:54:08:898,3.7063,0.0473,8.6851,53.8889,-0.7249,0.0377,-0.3364,193.4531
20:54:08:917,4.2558,0.1909,8.8431,54.305,-1.033,-0.5037,-0.877,193.3438
20:54:08:941,3.7267,-0.5273,10.3993,54.207,-1.3215,-0.7426,-1.3889,193.3281
20:54:08:957,1.9119,-1.9172,12.438,52.874,-1.4501,-0.4225,-1.5186,193.6875
20:54:08:977,-0.2106,-2.7048,13.7069,53.9074,-1.3284,0.2146,-1.1713,194.6406
20:54:08:997,-0.948,-2.3122,13.1048,53.9152,-1.004,0.573,-0.6142,196.25
20:54:09:017,0.2671,-1.2982,11.2193,53.9042,-0.6626,0.4052,-0.2752,198
20:54:09:040,1.3959,-0.1885,9.4069,53.0716,-0.4831,-0.0161,-0.2589,199.3438
20:54:09:059,1.7168,0.5525,8.4696,53.5043,-0.4685,-0.3008,-0.3961,199.9844
20:54:09:077,1.3959,0.7739,8.4253,53.3534,-0.4948,-0.2571,-0.4997,200.4375
20:54:09:097,0.9865,0.8565,8.4014,52.6736,-0.4234,-0.0494,-0.5074,200.7656
20:54:09:117,0.9291,1.1235,7.9836,51.558,-0.2914,0.136,-0.4826,201.2812
20:54:09:137,1.1074,1.4659,7.3563,52.5343,-0.1771,0.2617,-0.4818,201.8594
20:54:09:156,1.3277,1.7125,6.7398,52.4802,-0.1401,0.2942,-0.5314,202.4219
20:54:09:179,1.378,1.9651,6.5088,51.6411,-0.1766,0.2076,-0.6347,202.9531
20:54:09:197,1.2379,1.9004,6.9972,50.5884,-0.2341,0.1096,-0.7551,203.5312
20:54:09:222,0.8704,1.3557,8.0423,51.4852,-0.2724,0.1464,-0.7958,204.2031
20:54:09:239,0.4371,0.7799,8.9365,52.5275,-0.3121,0.3152,-0.7223,204.9688
20:54:09:256,0.1929,0.4663,9.5578,51.1061,-0.3302,0.4926,-0.5865,205.875
20:54:09:281,0.1953,0.3202,9.772,51.6205,-0.3768,0.6247,-0.4517,206.7656
20:54:09:295,0.1545,0.1514,9.772,50.4927,-0.4788,0.5996,-0.321,207.5312
20:54:09:317,-0.3399,-0.7165,12.347,50.6299,-0.5177,0.2175,-0.1452,208.125
20:54:09:338,-0.1866,-0.9487,14.6862,50.1378,-0.3936,-0.418,0.0663,208.5938
20:54:09:358,0.1534,-1.1355,16.064,50.2448,-0.0874,-0.9658,0.2415,208.875
20:54:09:377,-0.0023,-1.0517,16.2328,49.064,0.1635,-1.1269,0.3192,208.8906
20:54:09:397,-0.4225,-1.0038,16.6266,48.8286,0.1537,-0.9157,0.339,208.6406
20:54:09:423,-1.1862,-1.1342,17.0744,48.3095,0.0804,-0.4816,0.3669,208.2188
20:54:09:441,-1.4256,-1.4108,15.9144,45.8858,0.2242,0.0628,0.5022,207.7812
20:54:09:457,-1.0677,-1.4898,13.3239,46.9115,0.5651,0.3733,0.7195,207.3125
20:54:09:480,-0.2908,-1.4311,11.5342,47.3413,0.828,0.1429,0.9049,206.8281
20:54:09:496,0.2228,-1.3234,11.5605,46.3269,0.9063,-0.4081,0.9544,206.1562
20:54:09:516,0.2695,-1.4527,11.9651,45.8574,0.9169,-0.7202,0.8982,205.2812
20:54:09:544,0.0887,-1.4778,11.0733,43.4488,0.9955,-0.5535,0.838,204.1875
20:54:09:559,0.0911,-1.2719,9.3028,45.2377,1.0741,-0.1599,0.834,203.0938
20:54:09:577,0.2455,-0.9978,7.6029,45.3512,1.0669,0.205,0.8623,202.125
20:54:09:596,0.3999,-0.7356,6.316,43.2597,1.0125,0.402,0.8727,201.1562
20:54:09:623,0.5376,-0.5249,5.6971,43.5591,0.9558,0.3964,0.8716,200.1719
20:54:09:639,0.6466,-0.3178,5.8109,42.0696,0.9193,0.2633,0.8628,199.2188
20:54:09:659,0.7363,-0.2975,6.2538,40.547,0.9329,0.1573,0.8383,198.2188
20:54:09:676,0.7746,-0.677,6.5542,42.8448,0.9321,0.2545,0.7866,196.7188
20:54:09:697,0.9075,-0.8601,6.5147,39.4647,0.7902,0.6883,0.7845,195.8125
20:54:09:723,1.1685,-0.6171,7.0774,39.821,0.5065,1.2705,0.8546,194.9062
20:54:09:741,1.6617,-0.4651,7.9333,40.0274,0.3159,1.6937,0.9102,193.9844
20:54:09:760,2.046,-0.4411,8.0518,39.5964,0.3726,1.7672,0.8825,192.9219
20:54:09:776,2.0747,-0.343,7.4892,37.3488,0.5201,1.6409,0.7691,191.8438
20:54:09:797,2.1872,-0.1514,6.6967,38.383,0.5683,1.36,0.6087,190.7188
20:54:09:816,1.8963,-0.3178,6.8799,37.607,0.4389,0.8526,0.3421,189.7656
20:54:09:838,1.4151,-1.0995,8.1572,37.7166,0.1795,0.262,0.0378,189.0312
20:54:09:857,1.026,-1.7663,9.9013,37.8811,-0.1031,-0.1479,-0.1556,188.6094
20:54:09:876,1.1422,-2.2092,11.1032,36.7489,-0.334,-0.1852,-0.2155,188.5625
20:54:09:897,1.609,-1.7962,10.7728,36.5276,-0.4772,0.062,-0.2278,188.6406
20:54:09:916,1.4295,-0.9691,10.5789,38.2479,-0.6791,0.2372,-0.391,188.8438
20:54:09:940,0.5185,-1.0564,11.4504,36.5282,-0.9247,0.1269,-0.7482,189.0625
20:54:09:957,-0.213,-2.0812,12.2046,38.0689,-1.0237,-0.0555,-1.0571,189.3125
20:54:09:977,-0.7397,-2.6869,12.4488,37.0936,-0.9918,-0.0904,-1.1245,189.8125
20:54:09:996,-0.4967,-2.4164,12.2919,37.6703,-0.918,-0.0441,-0.9671,191.3281
20:54:10:017,0.0085,-1.6777,11.5078,37.6702,-0.8285,-0.0494,-0.8206,192.5156
20:54:10:041,0.0827,-1.0672,10.531,38.1812,-0.8543,0.1291,-0.8904,193.4688
20:54:10:056,-0.2776,-0.3944,9.9624,39.0495,-0.845,0.3906,-0.9282,193.4688
20:54:10:076,-0.523,0.1706,9.4812,39.0495,-0.6868,0.6407,-0.9404,194.3281
20:54:10:096,-0.6834,0.5261,8.4792,37.5927,-0.4647,0.7546,-0.9202,195.1875
20:54:10:115,-0.7684,0.8781,7.1444,37.6003,-0.2796,0.6686,-0.8786,196.1094
20:54:10:140,-0.9061,1.1762,6.0587,39.1625,-0.1931,0.4295,-0.8403,197.0312
20:54:10:158,-1.1647,1.4012,5.9066,38.2667,-0.176,0.2316,-0.7828,199.0625
20:54:10:175,-1.3299,1.5305,6.5483,39.3794,-0.1222,0.1698,-0.7119,200
20:54:10:196,-1.2138,1.7388,7.0163,37.0702,-0.0429,0.1429,-0.6989,200.9688
20:54:10:216,-1.2305,1.8585,7.3838,37.709,-0.0008,0.103,-0.7402,201.8438
20:54:10:244,-1.4687,1.7113,7.8507,38.8832,-0.0186,0.0353,-0.7857,203.8281
20:54:10:260,-1.9727,1.3701,8.7976,37.6493,-0.0567,-0.0102,-0.7764,203.8281
20:54:10:276,-2.849,0.835,10.0354,38.5772,-0.0522,0.013,-0.6451,204.7188
20:54:10:296,-3.2357,0.3394,11.1032,37.9854,0.0186,0.1046,-0.4118,205.5625
20:54:10:315,-3.0058,0.3083,11.6072,37.0485,0.0916,0.1317,-0.2222,206.4062
20:54:10:339,-2.5868,0.2675,11.8766,36.843,0.1238,0.0108,-0.1452,207
20:54:10:360,-2.3833,-0.0377,12.3949,37.0749,0.1073,-0.1202,-0.0967,207.375
20:54:10:376,-2.1966,-0.5285,13.009,37.8272,0.1143,-0.211,-0.0499,207.4844
20:54:10:401,-2.254,-0.744,13.197,37.1562,0.1377,-0.3674,0.0114,207.6562
20:54:10:458,-2.4755,-0.762,13.2125,38.7545,0.1087,-0.6664,0.0657,207.7812
20:54:10:458,-2.436,-0.8386,14.0613,39.1821,0.0517,-0.9623,0.0734,207.8438
20:54:10:458,-3.1602,-1.3569,15.9144,38.0569,0.1854,-0.917,0.1949,207.8125
20:54:10:476,-3.6271,-2.1554,16.7487,36.6597,0.5777,-0.4758,0.5217,207.7188
20:54:10:500,-2.8418,-2.3433,14.4216,38.753,0.8312,-0.1274,0.8338,207.5781
20:54:10:524,-1.622,-1.7268,11.5007,37.2353,0.7505,-0.2307,0.9374,207.3281
20:54:10:541,-0.857,-1.1031,10.6699,38.2732,0.6176,-0.5381,0.8394,206.3594
20:54:10:560,-0.7636,-0.9248,11.2409,39.3006,0.7033,-0.6409,0.7238,205.4062
20:54:10:576,-0.9205,-0.9296,10.549,37.4852,0.8863,-0.5322,0.6806,204.4688
20:54:10:596,-1.0473,-0.8996,8.7054,37.457,0.9694,-0.3743,0.7211,203.625
20:54:10:616,-1.0857,-0.9415,6.9744,37.4714,0.9292,-0.2473,0.8311,202.9062
20:54:10:636,-1.0258,-0.8829,5.8396,36.5891,0.8754,-0.1887,0.9949,202.2188
20:54:10:659,-0.6308,-0.7141,5.1776,36.9303,0.8717,-0.2502,1.1435,201.4219
20:54:10:677,0.0743,-0.5369,4.7011,37.0803,0.8725,-0.3636,1.2143,200.4531
20:54:10:696,0.625,-0.1478,4.427,36.7716,0.7753,-0.4475,1.1651,199.3594
20:54:10:720,1.0236,0.2424,4.8256,37.1269,0.6245,-0.4243,1.0007,198.7188
20:54:10:740,0.7926,0.4531,6.2861,36.8283,0.4402,-0.2944,0.7877,197.4062
20:54:10:757,0.7758,0.6087,7.2534,36.1249,0.2458,-0.0627,0.649,195.5781
20:54:10:776,1.0009,0.9212,7.9513,35.8727,0.1502,0.1562,0.5797,194.6562
20:54:10:795,1.4115,1.1235,8.0901,36.8219,0.1689,0.2654,0.4817,193.875
20:54:10:815,1.6701,1.1618,7.8136,36.3559,0.183,0.2961,0.2974,193.1875
20:54:10:840,1.6318,0.9152,8.0339,35.1039,0.0591,0.2201,0.0583,192.5781
20:54:10:858,1.4079,0.2879,9.2561,35.9383,-0.1894,0.0393,-0.1756,192.1094
20:54:10:876,0.947,-0.4064,11.096,36.0491,-0.4338,-0.1405,-0.3407,191.8906
20:54:10:895,0.8716,-1.1223,12.6427,36.6533,-0.5838,-0.1447,-0.3681,191.9375
20:54:10:915,1.5348,-1.4443,12.9539,34.6668,-0.6173,0.0353,-0.2645,192.2344
20:54:10:941,2.344,-1.0517,12.3039,34.8077,-0.628,0.2406,-0.1599,192.6562
20:54:10:959,2.2734,-0.7536,12.523,36.7299,-0.7241,0.2292,-0.2488,193
20:54:10:978,1.3397,-1.2396,13.3969,36.2833,-0.7883,0.0478,-0.4832,193.1719
20:54:10:995,0.2515,-2.0716,13.3981,35.8884,-0.706,0.0638,-0.6097,193.3125
20:54:11:016,0.115,-2.25,12.2117,36.8924,-0.5436,0.3072,-0.4571,193.6875
20:54:11:040,1.0224,-1.6646,10.9668,36.4858,-0.391,0.3477,-0.1662,194.5938
20:54:11:058,2.0711,-0.8086,10.5598,37.2938,-0.285,0.0271,-0.0046,195.0625
20:54:11:075,2.2638,-0.1598,10.361,35.9976,-0.1896,-0.3237,-0.0906,195.2188
20:54:11:095,1.6868,0.1467,9.529,35.6537,-0.122,-0.3298,-0.3106,195.2031
20:54:11:116,1.1398,0.4064,8.126,37.4096,-0.1151,-0.0185,-0.4784,195.2969
20:54:11:140,0.8345,0.7428,6.7913,37.4084,-0.1704,0.353,-0.5569,195.6562
20:54:11:159,0.6837,1.0553,5.9533,38.7039,-0.2376,0.5562,-0.6017,196.1719
20:54:11:176,0.5532,1.3294,5.7187,37.6477,-0.261,0.5277,-0.6334,196.7969
20:54:11:197,0.4323,1.6215,6.0024,36.0725,-0.2216,0.3237,-0.6475,197.4531
20:54:11:216,0.3676,1.8956,6.3831,36.8443,-0.1273,0.0934,-0.6683,198.1562
20:54:11:239,0.2886,2.0668,6.6799,36.7208,-0.0511,-0.0118,-0.7087,198.4844
20:54:11:256,0.2156,2.2272,7.087,39.4994,-0.0583,0.0039,-0.7577,199.2188
20:54:11:275,0.2072,2.3517,7.7765,38.8661,-0.1617,0.0923,-0.8307,200
20:54:11:297,-0.1471,2.2871,9.0346,38.7439,-0.3433,0.1722,-0.962,200.8281
20:54:11:315,-1.215,1.9806,10.7046,37.8923,-0.531,0.2918,-1.0962,201.6719
20:54:11:342,-2.1642,1.8226,12.1555,39.6046,-0.6264,0.577,-1.0992,203.2344
20:54:11:360,-2.8035,1.8777,12.5433,40.1331,-0.4943,0.891,-0.9665,204.4531
20:54:11:377,-3.4284,1.6646,11.9448,40.1599,-0.2234,1.0401,-0.8142,205.6094
20:54:11:396,-3.9755,0.9188,11.1415,38.9706,0.0149,0.9421,-0.6326,206.6875
20:54:11:416,-4.0569,0.0317,11.1056,40.6214,0.1318,0.5935,-0.3641,207.6406
20:54:11:441,-3.3865,-0.4782,12.0777,41.5601,0.0708,-0.402,0.2015,208.375
20:54:11:458,-2.5916,-0.8817,13.9535,42.5046,-0.0008,-0.615,0.286,208.375
20:54:11:475,-1.8985,-1.649,15.6786,42.9505,-0.0381,-0.6089,0.3073,208.875
20:54:11:495,-1.774,-2.5935,17.0421,41.6714,0.0346,-0.4483,0.3619,208.6562
20:54:11:516,-2.0362,-3.5153,17.7747,41.3667,0.3523,-0.0068,0.5882,208.2969
20:54:11:540,-1.8374,-3.9307,15.6881,42.8479,0.7414,0.5197,0.9193,207.9219
20:54:11:557,-1.118,-3.3944,11.2696,42.4119,0.8261,0.6817,1.1576,207.5
20:54:11:575,-0.2273,-2.3948,7.7849,41.4052,0.6008,0.348,1.2048,206.8906
20:54:11:596,0.2395,-1.576,6.7697,40.2111,0.334,-0.1407,1.1161,205.3594
20:54:11:615,0.0995,-1.2288,7.5287,40.295,0.2418,-0.4094,1.0628,204.0625
20:54:11:640,-0.2656,-0.896,8.0015,42.1082,0.3015,-0.4361,1.1035,202.8594
20:54:11:660,-0.2788,-0.4268,7.6113,41.4639,0.3755,-0.3599,1.1581,201.0625
20:54:11:675,-0.043,0.2173,6.741,40.2396,0.3633,-0.3144,1.1534,201.0625
20:54:11:695,0.0995,0.7464,6.1975,41.0088,0.3276,-0.3423,1.0961,199.9062
20:54:11:715,0.1641,1.0732,6.0754,41.2274,0.3406,-0.4363,1.0239,198.625
20:54:11:742,0.2216,1.1486,6.091,41.3497,0.4107,-0.5642,0.9651,197.3594
20:54:11:758,0.2264,1.2456,6.2107,40.1374,0.5119,-0.6662,0.8977,196.1406
20:54:11:779,0.2934,1.2875,6.2119,40.6198,0.5997,-0.705,0.8127,194.5625
20:54:11:795,0.4059,1.2959,6.0682,39.9864,0.6045,-0.6981,0.7036,193.5625
20:54:11:815,0.4933,1.4144,5.9952,39.5469,0.5129,-0.6006,0.5667,192.6562
20:54:11:840,0.6884,1.4934,6.2119,42.1082,0.3529,-0.4007,0.3717,191.9219
20:54:11:861,0.6358,1.4467,6.5854,38.8378,0.1656,-0.1271,0.1512,191.2656
20:54:11:875,0.2934,1.0636,6.9086,39.1349,-0.0575,0.1102,-0.0083,190.7969
20:54:11:895,0.2551,0.4423,7.4461,40.1577,-0.3638,0.1136,-0.1343,190.5469
20:54:11:916,0.1976,-0.0545,9.2609,39.3827,-0.6283,-0.0853,-0.2699,190.4844
20:54:11:941,0.1198,-0.6518,12.2117,39.9097,-0.6506,-0.1434,-0.3865,190.5312
20:54:11:958,0.1737,-1.5664,14.1439,42.006,-0.5063,0.1948,-0.4054,190.7188
20:54:11:975,0.4442,-2.0536,13.3825,39.9517,-0.4727,0.6212,-0.35,191.0781
20:54:11:994,0.8225,-1.7436,11.4169,40.9333,-0.6482,0.6423,-0.3487,191.5312
20:54:12:015,1.1948,-1.1414,11.0206,39.1366,-0.8509,0.3227,-0.4688,191.7344
20:54:12:039,1.117,-0.9319,12.3135,41.3265,-0.8554,0.0912,-0.6406,192.0625
20:54:12:057,0.5723,-1.4228,12.8809,39.9664,-0.7087,0.0918,-0.6496,192.375
20:54:12:075,0.1486,-1.7843,12.2608,41.8941,-0.5768,0.087,-0.4651,192.8438
20:54:12:095,0.704,-1.6634,11.369,41.3031,-0.49,-0.1325,-0.2587,193.8281
20:54:12:115,1.9514,-1.1881,10.9141,41.3031,-0.4226,-0.4643,-0.2155,194.4375
20:54:12:140,2.9821,0.2352,10.4101,40.7407,-0.3638,-0.6036,-0.3769,194.7969
20:54:12:157,2.4075,0.422,9.4429,42.2166,-0.3305,-0.4158,-0.6467,195.0156
20:54:12:174,1.4953,0.3478,8.1655,42.2166,-0.3172,-0.031,-0.881,195.2812
20:54:12:195,0.5723,0.4423,6.9637,40.5734,-0.3326,0.3192,-0.9676,195.8438
20:54:12:214,0.0731,0.6937,6.4477,40.6986,-0.3531,0.4766,-0.9141,196.7031
20:54:12:235,-0.0609,1.017,6.3005,41.6371,-0.2871,0.4276,-0.7958,197.7188
20:54:12:260,-0.0466,1.4024,6.1831,42.5375,-0.1262,0.2897,-0.6797,198.7969
20:54:12:275,0.1294,1.8118,6.2286,41.087,0.0466,0.1304,-0.6214,199.7656
20:54:12:294,-0.0179,2.1757,6.5674,41.3848,0.1553,-0.0808,-0.664,200.5625
20:54:12:314,-0.6308,2.2164,7.3407,41.2239,0.1531,-0.3106,-0.8073,201.3125
20:54:12:335,-1.507,1.7639,8.8742,40.7871,0.0301,-0.4204,-0.9695,202.0312
20:54:12:357,-2.3833,1.2456,10.7094,41.6876,-0.1015,-0.3042,-1.0227,202.875
20:54:12:375,-3.0525,0.9212,12.0441,42.3601,-0.1127,-0.0307,-0.9319,204.4062
20:54:12:395,-3.0537,0.5094,12.6954,40.6562,-0.0253,0.2071,-0.73,205.5625
20:54:12:416,-2.7317,0.1766,12.8737,41.1484,0.0866,0.3594,-0.4816,206.5781
20:54:12:439,-2.3223,-0.1873,13.0641,41.5277,0.1478,0.4204,-0.2416,207.4219
20:54:12:458,-2.1678,-0.3011,13.2185,40.2874,0.1494,0.4596,-0.0062,207.9844
20:54:12:517,-1.9368,-0.2472,12.9444,41.4042,0.1396,0.5432,0.2324,208.2812
20:54:12:517,-1.5418,-0.2867,12.5314,42.2831,0.1164,0.5645,0.4439,208.3125
20:54:12:518,-1.3777,-0.4902,12.7995,40.3074,0.0312,0.4138,0.6034,208.2344
20:54:12:538,-1.422,-0.9834,14.6191,41.1901,-0.0573,0.0058,0.7384,207.8594
20:54:12:557,-1.5741,-1.5353,16.2783,41.0523,0.0549,-0.3764,0.9249,207.2812
20:54:12:574,-1.1503,-1.9603,15.493,39.0488,0.4634,-0.3985,1.2085,206.5625
20:54:12:596,-0.1998,-1.4539,12.1148,39.011,0.9891,-0.2467,1.5291,205.6094
20:54:12:616,0.9219,-0.5465,9.8379,37.6747,1.1718,-0.3487,1.6876,204.4062
20:54:12:639,1.1649,0.0042,9.8642,37.8828,0.9989,-0.6981,1.5398,202.0938
20:54:12:657,0.613,-0.2352,11.2146,35.6487,0.795,-1.0126,1.2474,200.2656
20:54:12:674,-0.0969,-0.647,11.3139,37.3117,0.7984,-0.9772,1.0556,198.5781
20:54:12:695,-0.3578,-0.8206,9.6332,36.0913,0.9691,-0.6824,1.0458,197.3125
20:54:12:713,-0.1088,-0.6291,7.4592,34.683,1.0972,-0.3511,1.1523,196.1719
20:54:12:735,0.2575,-0.1802,5.7175,34.0327,1.1004,-0.1413,1.2583,195.0469
20:54:12:756,0.5137,0.4543,4.7191,33.478,1.0181,-0.1157,1.2998,193.8594
20:54:12:774,0.6178,1.1007,4.2247,33.8619,0.893,-0.2022,1.2668,192.4531
20:54:12:799,0.5376,1.661,4.4928,33.6588,0.7521,-0.402,1.1613,191
20:54:12:814,0.4502,2.1219,5.7773,33.6347,0.6328,-0.6137,1.0223,189.5938
20:54:12:837,0.5316,2.1075,6.9924,32.6092,0.6413,-0.716,0.8751,188.3906
20:54:12:856,0.6573,2.1506,7.8914,31.7333,0.7433,-0.5346,0.6402,187.8281
20:54:12:876,0.9566,2.2811,8.806,32.08,0.6589,-0.1069,0.5387,186.3906
20:54:12:895,1.2834,2.493,9.5003,32.2072,0.5286,0.4162,0.4178,185.6719
20:54:12:915,1.5923,2.8174,9.626,32.6006,0.4197,0.6556,0.2788,184.9844
20:54:12:940,2.1908,3.0197,9.8954,30.4087,0.3651,0.4114,0.0697,184.375
20:54:12:958,2.7343,2.7863,10.8016,32.7002,0.3627,0.0404,-0.17,183.8438
20:54:12:973,2.7115,2.0249,12.0932,32.9484,0.3784,-0.133,-0.3284,183.4062
20:54:12:993,2.0723,1.2659,13.1682,30.8829,0.4242,0.0545,-0.2733,183.2656
20:54:13:014,1.7215,0.8242,13.2448,32.5164,0.5084,0.3192,-0.0195,183.4375
20:54:13:034,2.1752,1.1558,12.0442,31.3154,0.4764,0.394,0.1994,183.8125
20:54:13:057,2.8995,2.1566,11.0925,31.1971,0.3811,0.202,0.1933,184.1094
20:54:13:074,3.5603,2.4786,10.9476,30.1763,0.3068,-0.0757,-0.0379,184.0781
20:54:13:094,3.4849,2.0764,11.3211,30.9924,0.3033,-0.2009,-0.2563,183.7812
20:54:13:113,3.0096,1.5868,11.2684,31.4475,0.3483,-0.1868,-0.3548,183.5156
20:54:13:135,2.6876,1.4096,10.622,30.0438,0.3848,-0.1591,-0.3721,183.7188
20:54:13:155,2.7534,1.4084,9.5913,30.7691,0.3752,-0.1785,-0.4049,184.1094
20:54:13:174,2.7199,1.6442,8.5283,30.3272,0.2911,-0.1487,-0.4866,184.5625
20:54:13:194,2.3835,1.971,7.5646,31.495,0.1534,-0.0209,-0.5846,185.0312
20:54:13:216,1.9095,2.2009,6.7314,31.6631,0.0128,0.1685,-0.6587,185.5469
20:54:13:243,1.5348,2.3553,5.9892,31.0495,-0.1068,0.3024,-0.6986,186.1875
20:54:13:259,1.2475,2.5157,5.4805,31.4286,-0.1734,0.361,-0.7205,186.8906
20:54:13:277,0.9698,2.6534,5.1764,30.8119,-0.1747,0.3746,-0.7234,187.6094
20:54:13:301,0.7974,2.8377,4.937,31.2572,-0.1686,0.4292,-0.7173,188.3125
20:54:13:313,0.7208,3.1023,4.6149,32.415,-0.2,0.5206,-0.7138,188.6875
20:54:13:335,0.5244,3.4267,4.3659,30.625,-0.2714,0.5685,-0.7146,189.4219
20:54:13:361,0.224,3.7751,4.409,32.0506,-0.3633,0.5075,-0.7173,190.1562
20:54:13:379,-0.0322,3.9486,4.901,32.7085,-0.4578,0.3621,-0.6997,190.8125
20:54:13:394,-0.462,3.9295,5.8755,31.2383,-0.5545,0.2146,-0.6033,191.5
20:54:13:415,-0.8379,3.9259,7.3288,31.3901,-0.6069,0.0729,-0.4235,192.2031
20:54:13:442,-0.8187,4.0839,9.2298,31.0782,-0.5566,0.0939,-0.24,193.1875
20:54:13:459,-0.5422,4.4095,10.5298,30.9718,-0.4091,0.2606,-0.1463,193.7188
20:54:13:477,-0.4392,4.6501,10.6926,30.6454,-0.2871,0.2918,-0.1465,194.0312
20:54:13:493,-0.6619,4.5268,10.8447,28.4194,-0.2218,0.1677,-0.1599,194.1719
20:54:13:516,-1.2162,3.9439,11.4875,31.1026,-0.1233,0.0116,-0.0717,194.25
20:54:13:544,-1.2413,3.3705,11.8454,28.9207,-0.0269,-0.0811,0.1033,194.375
20:54:13:556,-0.76,3.1274,12.2536,29.6394,-0.0341,-0.1647,0.2354,194.4844
20:54:13:574,-0.5075,2.499,13.0689,29.0076,-0.0668,-0.3255,0.3075,194.4844
20:54:13:599,-0.9037,2.3876,12.8163,29.6891,0.089,-0.3588,0.417,194.2812
20:54:13:613,-0.6619,2.724,10.1467,28.8702,0.4362,-0.1242,0.6335,194
20:54:13:635,0.2934,3.3705,6.9254,28.3395,0.5995,0.0159,0.7778,193.6875
20:54:13:658,1.3971,3.8445,5.8144,28.299,0.2573,-0.1687,0.6833,193.1562
20:54:13:680,2.0927,3.3944,8.4684,27.5555,-0.4882,-0.5618,0.3059,192.3594
20:54:13:694,1.4175,2.0716,11.6659,27.3947,-1.0666,-0.6337,-0.2121,191.2344
20:54:13:716,-0.2657,0.7416,12.4787,27.3947,-1.1089,-0.2896,-0.6091,190.9531
20:54:13:740,-1.3287,-0.0533,10.5418,27.4711,-0.7595,0.2116,-0.6525,191.25
20:54:13:759,-1.4675,-0.088,7.7442,27.7515,-0.3806,0.5586,-0.3812,191.9062
20:54:13:776,-0.772,0.3166,5.7737,29.0746,-0.2122,0.5328,-0.0067,192.2812
20:54:13:795,0.2407,1.0481,5.812,28.2355,-0.3113,0.2042,0.2463,192.8281
20:54:13:814,0.6753,1.4647,6.7015,27.6622,-0.4288,-0.1165,0.3011,192.9531
20:54:13:834,0.6286,1.23,6.4262,26.9218,-0.3409,-0.3719,0.2133,192.7188
20:54:13:857,0.4383,1.1259,5.2733,26.913,-0.1816,-0.6409,0.1688,192.3594
20:54:13:875,0.4418,1.2396,6.2047,26.2769,-0.2615,-1.0036,0.2047,192.0625
20:54:13:899,0.9554,1.0541,8.5486,27.1585,-0.416,-1.2443,0.2213,191.9062
20:54:13:913,1.2738,0.7799,9.8702,25.5109,-0.4075,-1.0696,0.1906,191.7969
20:54:13:934,1.3313,0.5644,10.4089,25.7356,-0.3574,-0.5788,0.1864,191.6562
20:54:13:963,1.457,0.762,10.1755,26.1634,-0.3675,0.0761,0.2338,191.5625
20:54:13:983,1.8903,0.8098,10.227,26.0976,-0.5199,0.561,0.2149,191.4375
20:54:13:996,1.882,0.5752,11.2421,25.6282,-0.7606,0.7237,0.0617,191.0781
20:54:14:014,1.3636,0.185,13.0126,24.5664,-0.9319,0.6803,-0.1079,190.7812
20:54:14:034,1.2643,-0.3011,13.5142,26.5973,-0.8456,0.666,-0.1327,190.6406
20:54:14:060,1.5288,-0.2783,12.0525,26.4666,-0.5422,0.7277,-0.0395,190.6875
20:54:14:080,1.9346,0.2759,10.5574,28.0612,-0.3758,0.5698,0.0141,190.7812
20:54:14:093,2.8336,0.5453,10.5897,25.0681,-0.4562,0.0015,-0.0903,190.75
