Time,Acc_X,Acc_Y,Acc_Z,Meg,Gyr_X,Gyr_Y,Gyr_Z,Ore
21:04:27:646,-2.2911,0.7416,8.6815,64.3269,0.4083,-1.6425,0.1898,77.8125
21:04:27:676,-1.8398,0.8506,9.1831,62.5372,0.4144,-1.4987,0.115,77.8125
21:04:27:695,-1.5549,0.9415,8.7198,61.4384,0.3305,-1.4233,0.0644,77.8125
21:04:27:709,-1.2054,1.1402,8.387,63.3233,0.1606,-1.5314,0.0148,192.6094
21:04:27:725,-0.869,1.2444,8.4732,60.3117,-0.0139,-1.6971,-0.1356,192.625
21:04:27:746,-1.124,1.0289,10.0749,62.9293,-0.1068,-1.3453,-0.2978,192.6875
21:04:27:765,0.194,0.7799,11.3989,60.9645,0.0368,-0.5088,-0.4179,192.8438
21:04:27:796,-0.3411,0.3681,10.9739,62.7867,0.302,-0.3112,-0.3828,193.1875
21:04:27:814,-0.9145,0.5369,10.2413,61.6612,0.5215,-0.2409,-0.2413,193.6562
21:04:27:823,-1.2018,0.7679,10.519,60.2457,0.763,-0.0334,-0.122,194.1719
21:04:27:847,-0.4225,0.5668,10.1791,59.1437,0.9718,-0.3359,-0.129,194.5469
21:04:27:864,-0.9097,1.1582,9.0023,60.5156,0.9263,-0.8198,-0.1042,194.7656
21:04:27:896,-0.8738,1.1953,8.6755,60.326,0.7758,-0.8904,-0.0302,194.9375
21:04:27:913,-0.6523,1.1881,8.9939,60.3998,0.6376,-0.8142,0.0383,195.1562
21:04:27:922,-0.1555,1.5125,9.5278,60.9484,0.5465,-0.6305,-0.0054,195.3438
21:04:27:946,-0.4859,1.9662,9.8451,58.7826,0.5009,-0.5868,-0.0219,195.4375
21:04:27:966,0.0683,2.0105,10.0163,60.033,0.4634,-0.5764,-0.0882,195.4844
21:04:27:982,0.1497,1.9962,10.2365,58.57,0.4567,-0.492,-0.1724,195.625
21:04:28:004,0.0719,1.9232,10.3239,58.8627,0.5041,-0.3911,-0.194,195.7969
21:04:28:034,-0.0585,1.9495,10.1791,59.5241,0.5766,-0.2411,-0.1678,196.0312
21:04:28:040,-0.055,2.1003,9.7996,60.1965,0.6027,-0.1482,-0.1151,196.2969
21:04:28:071,0.03,2.3924,9.28,59.1976,0.535,-0.1298,-0.0683,196.5156
21:04:28:080,0.1138,2.4307,8.8407,60.6936,0.383,-0.161,-0.0427,196.6562
21:04:28:107,0.0109,2.3565,8.7234,58.7863,0.2162,-0.2193,-0.0072,196.7188
21:04:28:119,0.0324,2.2595,8.9485,60.6805,0.0874,-0.2062,0.0655,196.7969
21:04:28:142,0.2467,2.2416,9.3231,58.6086,0.0317,-0.0928,0.1445,196.8281
21:04:28:159,0.3844,2.2919,9.48,58.2742,0.0328,0.0436,0.1909,196.7812
21:04:28:179,0.4191,2.3804,9.3435,59.1631,0.0383,0.0902,0.2159,196.6406
21:04:28:198,0.4371,2.5157,9.1915,60.5352,0.0242,0.0119,0.2133,196.4062
21:04:28:220,0.5568,2.5851,9.3591,60.5865,0.02,-0.0528,0.1954,196.2812
21:04:28:245,0.6418,2.566,9.5063,59.6413,0.0354,-0.0467,0.1834,196.0312
21:04:28:275,0.795,2.7025,9.3052,60.4721,0.0437,-0.0424,0.177,195.8125
21:04:28:291,0.9075,2.7515,9.3375,61.026,0.0232,-0.0387,0.1613,195.5
21:04:28:307,0.9087,2.8102,9.2094,59.7172,0.0107,0.0159,0.1403,195.3125
21:04:28:325,0.9099,2.8425,9.1699,60.3602,-0.0149,0.0311,0.1102,195.125
21:04:28:360,0.9111,2.8246,9.3172,60.5395,-0.0471,0.002,0.0844,194.9688
21:04:28:376,0.8788,2.797,9.6344,60.5489,-0.0599,-0.0169,0.058,194.9688
21:04:28:391,0.8141,2.7563,9.8139,60.0016,-0.0418,-0.0025,0.0388,194.8438
21:04:28:406,0.7615,2.7372,9.711,59.6398,0.0013,0.0353,0.0306,194.75
21:04:28:424,0.6849,2.7216,9.6224,58.7814,0.0354,0.0652,0.0276,194.6875
21:04:28:444,0.5556,2.6414,9.5266,58.7814,0.0495,0.075,0.0242,194.6406
21:04:28:464,0.4574,2.5804,9.5147,58.6176,0.0511,0.0944,0.0279,194.6094
21:04:28:491,0.3437,2.5265,9.383,58.55,0.0599,0.1434,0.0615,194.5625
21:04:28:509,0.3844,2.6139,9.3064,59.5235,0.0549,0.1898,0.1211,194.5156
21:04:28:523,0.5927,2.6929,9.3076,61.3732,0.0362,0.185,0.1576,194.375
21:04:28:543,0.6525,2.7396,9.3387,58.1869,0.0248,0.169,0.1392,194.375
21:04:28:578,0.637,2.7887,9.3602,60.5482,0.0264,0.1466,0.0979,194.2031
21:04:28:592,0.6501,2.7647,9.3722,60.4265,0.0362,0.1291,0.0615,193.9062
21:04:28:607,0.6454,2.7851,9.2956,60.3765,0.0466,0.1139,0.0199,193.75
21:04:28:621,0.5316,2.7635,9.0143,60.0385,0.0418,0.1272,-0.0256,193.625
21:04:28:644,0.3497,2.7444,8.7677,61.2987,0.0056,0.103,-0.0637,193.5625
21:04:28:661,0.2407,2.6905,8.8359,60.1727,-0.0407,0.0044,-0.0856,193.5469
21:04:28:681,0.382,2.6917,9.1316,58.7243,-0.0839,-0.1069,-0.0688,193.5781
21:04:28:707,0.5663,2.6833,9.3172,60.168,-0.1185,-0.1058,-0.0541,193.6406
21:04:28:721,0.6154,2.7336,9.3615,59.9949,-0.1417,-0.0323,-0.0765,193.75
21:04:28:742,0.5484,2.7372,9.2286,59.5573,-0.1531,0.0686,-0.1119,193.8438
21:04:28:759,0.461,2.7001,9.116,60.2539,-0.1651,0.1069,-0.1391,193.8906
21:04:28:778,0.2826,2.645,9.1352,61.4398,-0.1779,0.0968,-0.1495,193.9688
21:04:28:810,0.1198,2.493,9.3962,59.294,-0.1968,0.0449,-0.1311,194.0938
21:04:28:818,0.0707,2.402,9.6583,60.7373,-0.1824,0.005,-0.0813,194.2344
21:04:28:840,0.145,2.3769,9.8666,60.9014,-0.131,-0.007,-0.0051,194.3906
21:04:28:859,0.2084,2.4606,9.9265,60.027,-0.0589,0.0273,0.0694,194.5312
21:04:28:878,0.3509,2.5217,9.875,59.4536,0.0234,0.0745,0.1227,194.6562
21:04:28:904,0.3688,2.5768,9.729,59.4369,0.0967,0.0984,0.1379,194.6094
21:04:28:923,0.2778,2.6115,9.5566,59.4972,0.1446,0.0918,0.1275,194.5
21:04:28:937,0.2671,2.6019,9.3627,59.3242,0.1579,0.0841,0.1225,194.3281
21:04:28:959,0.2395,2.645,9.1879,61.1935,0.142,0.0915,0.1248,194.1562
21:04:28:978,0.2204,2.6642,9.0394,59.1744,0.1084,0.1158,0.1334,194
21:04:28:997,0.3329,2.7504,8.9245,59.0732,0.0754,0.1328,0.1459,193.8438
21:04:29:018,0.455,2.8114,8.9784,59.3991,0.0527,0.1352,0.152,193.6719
21:04:29:041,0.4047,2.8964,8.8239,58.7119,0.0511,0.1528,0.1318,193.5
21:04:29:056,0.3473,2.9191,8.7689,59.1677,0.0509,0.1371,0.0982,193.3125
21:04:29:077,0.2575,2.9323,8.7521,59.4849,0.0415,0.1296,0.0694,193.1094
21:04:29:099,0.0863,2.9658,8.7761,61.3231,0.0128,0.1232,0.0489,192.9688
21:04:29:115,-0.0968,2.8832,8.8407,59.974,-0.0192,0.1099,0.0322,192.8438
21:04:29:135,-0.3219,2.8581,8.624,58.4152,-0.0258,0.1458,0.037,192.7656
21:04:29:159,-0.5266,3.0005,8.5079,58.3956,-0.0365,0.1368,0.082,192.7031
21:04:29:177,-0.2872,3.2076,8.885,59.6174,-0.0714,0.01,0.1464,192.6094
21:04:29:196,0.1162,3.3501,9.4776,60.5479,-0.1095,-0.1804,0.1563,192.5
21:04:29:217,0.2144,3.3728,10.0306,58.9552,-0.1446,-0.2986,0.0732,192.3281
21:04:29:243,0.0851,3.2603,10.1671,59.3181,-0.1816,-0.2265,-0.0414,192.1875
21:04:29:259,-0.3291,3.1238,9.6942,58.7353,-0.2133,0.0039,-0.1212,192.1562
21:04:29:278,-0.7313,3.0807,9.0023,58.119,-0.245,0.218,-0.1452,192.1875
21:04:29:295,-0.9719,3.1562,8.7354,60.1012,-0.2799,0.2785,-0.1183,192.3125
21:04:29:316,-0.9456,3.1921,8.7725,58.7382,-0.2852,0.2044,-0.0685,192.4375
21:04:29:338,-0.8917,3.2076,8.9353,58.7557,-0.2448,0.0793,-0.0339,192.5625
21:04:29:359,-0.8331,3.1478,9.0023,60.7053,-0.1723,-0.0233,-0.0201,192.6406
21:04:29:376,-0.8331,3.0807,8.8132,59.0376,-0.0972,-0.0337,-0.0072,192.6719
21:04:29:395,-0.9911,3.1059,8.3942,58.1669,-0.061,0.0289,0.0125,192.7031
21:04:29:416,-1.0246,3.1574,8.2865,57.6385,-0.0804,0.0388,0.0465,192.7188
21:04:29:442,-0.9229,3.1454,8.4732,59.2984,-0.1313,-0.0164,0.0828,192.7188
21:04:29:460,-0.8103,3.0796,8.8658,59.0082,-0.1763,-0.0907,0.0982,192.6562
21:04:29:475,-0.8055,2.9862,9.2597,58.0771,-0.2013,-0.1322,0.0939,192.5625
21:04:29:499,-0.8403,2.8174,9.4081,57.1864,-0.2029,-0.104,0.0921,192.4688
21:04:29:516,-1.0019,2.663,9.304,57.4793,-0.1987,0.01,0.1078,192.375
21:04:29:537,-1.0174,2.6354,9.0322,57.2935,-0.2008,0.1714,0.1707,192.2969
21:04:29:560,-0.9001,2.7755,8.7162,58.1626,-0.2016,0.2931,0.2599,192.1719
21:04:29:626,-0.6068,3.0161,8.4469,59.2408,-0.1942,0.3216,0.3235,191.9688
21:04:29:626,-0.2956,3.3166,8.1751,58.0465,-0.1883,0.2795,0.3208,191.6406
21:04:29:627,0.0875,3.4554,7.6927,57.8213,-0.2173,0.2361,0.2268,191.2188
21:04:29:637,-0.0166,3.3453,7.3479,56.2507,-0.3555,0.259,0.0351,190.8438
21:04:29:659,-0.4847,3.0305,7.3635,58.4236,-0.5934,0.4111,-0.1503,190.4844
21:04:29:676,-0.7984,2.7839,7.6149,60.2518,-0.9025,0.6524,-0.24,190.6094
21:04:29:697,-1.1671,2.7563,8.1811,59.0447,-0.8575,0.3874,-0.2296,190.7969
21:04:29:718,-1.6136,2.7755,9.4464,59.2112,-0.6794,0.0023,-0.182,190.9844
21:04:29:741,-1.5729,2.4571,10.7585,58.5193,-0.4277,-0.3002,-0.1143,190.9844
21:04:29:760,-0.9133,1.8418,11.442,58.275,-0.2559,-0.5186,-0.0773,191.2031
21:04:29:778,-0.2621,1.3653,11.9089,59.0331,-0.2384,-0.5969,-0.0656,191.5156
21:04:29:802,0.2515,1.1055,12.608,57.6411,-0.278,-0.468,-0.0693,191.5156
21:04:29:815,0.6849,0.8434,13.0389,57.5707,-0.2708,-0.2507,-0.1039,191.6406
21:04:29:836,0.8537,0.6327,12.918,56.5233,-0.1803,-0.2028,-0.1351,191.75
21:04:29:859,1.1386,0.4878,12.5445,57.4352,-0.0812,-0.3852,-0.1953,191.8438
21:04:29:874,1.4151,0.3657,12.3781,57.7128,-0.0346,-0.6092,-0.2962,191.9844
21:04:29:895,1.694,0.088,12.693,56.4159,0.0373,-0.6371,-0.3886,192.1406
21:04:29:914,1.7383,-0.1862,12.6188,57.9899,0.1707,-0.4427,-0.4398,192.3906
21:04:29:936,1.5504,-0.3035,11.7054,60.2232,0.3446,-0.198,-0.4235,192.75
21:04:29:960,1.6437,-0.319,10.1815,57.8335,0.4796,-0.1226,-0.4038,193.2344
21:04:29:978,1.9071,-0.1478,8.6576,58.6518,0.4605,-0.2667,-0.4589,193.7344
21:04:29:995,1.9801,-0.0114,7.9261,57.741,0.2786,-0.5093,-0.5428,194.2188
21:04:30:015,1.9574,0.0353,8.4169,58.2574,0.049,-0.6126,-0.5878,195.1719
21:04:30:034,1.8963,0.0269,9.3351,58.993,-0.0876,-0.4603,-0.6017,195.5
21:04:30:058,1.615,0.1143,9.8582,57.8667,-0.0879,-0.1911,-0.5964,196.1875
21:04:30:075,1.2451,0.3011,9.3004,58.8235,-0.0479,-0.0371,-0.5892,196.9062
21:04:30:095,0.8465,0.6219,8.6156,58.9381,-0.041,-0.0491,-0.5777,197.5938
21:04:30:115,0.5304,0.9595,8.4924,58.9262,-0.0152,-0.0963,-0.5553,198.2812
21:04:30:135,0.2156,1.1271,8.618,57.456,0.0365,-0.1322,-0.5207,198.9531
21:04:30:162,-0.1687,1.2492,8.6276,57.9794,0.0692,-0.1524,-0.473,199.5781
21:04:30:177,-0.432,1.388,8.6312,57.734,0.0567,-0.1359,-0.4142,200.2031
21:04:30:195,-0.4057,1.4599,8.6216,58.0282,0.0059,-0.0939,-0.3601,200.7812
21:04:30:216,-0.189,1.5197,8.6588,57.1299,-0.065,-0.0417,-0.3175,201.0469
21:04:30:244,0.0684,1.5209,8.7916,58.4804,-0.1292,0.0273,-0.2888,201.5156
21:04:30:260,0.1893,1.5125,8.8874,59.3943,-0.1598,0.1355,-0.2611,201.9375
21:04:30:279,0.2491,1.5114,8.7402,58.0958,-0.1667,0.2526,-0.2083,202.2969
21:04:30:296,0.3114,1.6131,8.4935,58.7555,-0.1654,0.3261,-0.1439,202.6406
21:04:30:318,0.4335,1.8477,8.32,59.3841,-0.1457,0.3512,-0.1151,202.9219
21:04:30:342,0.3161,2.0285,8.1536,58.0958,-0.1129,0.3464,-0.1095,203.2188
21:04:30:360,-0.0238,2.1398,8.1201,58.757,-0.0751,0.3301,-0.0818,203.3438
21:04:30:376,-0.4261,2.1398,8.235,58.1646,-0.0634,0.3573,-0.0033,203.4531
21:04:30:394,-0.79,2.2679,8.618,58.5364,-0.0607,0.422,0.1219,203.5469
21:04:30:421,-1.3299,1.7065,10.4388,57.8982,-0.0711,0.638,0.2599,203.5781
21:04:30:441,-1.4879,2.317,10.9476,59.1319,-0.0999,1.0508,0.49,203.4844
21:04:30:460,-0.7325,3.0388,11.2002,58.504,-0.1076,1.2487,0.6772,203.25
21:04:30:477,-0.286,3.0388,11.2373,59.7729,-0.0253,1.0958,0.5688,202.7812
21:04:30:495,-0.9803,2.3409,11.436,59.7729,0.0349,0.8042,0.2889,202.0469
21:04:30:514,-2.0709,1.7735,12.0154,59.3997,-0.0453,0.704,0.1206,201.2031
21:04:30:537,-2.357,1.4742,13.1706,59.2969,-0.2091,0.7054,0.1693,200.6562
21:04:30:560,-2.2097,1.236,14.3438,59.1419,-0.2461,0.613,0.2977,200.4062
21:04:30:577,-1.7884,0.7931,14.1714,58.8608,-0.0333,0.5357,0.4205,200.2188
21:04:30:595,-1.6124,0.6877,12.3973,59.8863,0.3225,0.5443,0.544,199.9062
21:04:30:615,-1.1204,0.8003,10.5166,58.6537,0.5939,0.471,0.6727,199.4531
21:04:30:635,-0.4716,0.9858,9.0239,61.0832,0.7151,0.2287,0.7512,198.5781
21:04:30:659,-0.0166,1.1355,8.3092,58.7811,0.6804,-0.1604,0.7278,197.8125
21:04:30:676,0.2204,1.1821,8.2038,60.2401,0.5537,-0.5535,0.6218,196.9844
21:04:30:695,0.3329,1.1821,8.3367,57.3975,0.4096,-0.8523,0.4588,196.625
21:04:30:716,0.388,1.3306,8.3762,56.905,0.2858,-0.9674,0.282,195.9219
21:04:30:735,0.2874,1.1522,8.6169,58.5022,0.1656,-0.8784,0.0971,195.3906
21:04:30:759,-0.1388,0.835,8.7342,58.9946,0.0762,-0.5461,-0.0381,195.0781
21:04:30:778,-0.7349,0.9332,8.0111,56.8068,0.0727,-0.0211,-0.0813,194.9844
21:04:30:801,-1.173,1.2624,6.8427,56.877,0.1207,0.3773,-0.0427,195.0469
21:04:30:814,-1.3897,1.3701,6.1616,55.8326,0.1694,0.4178,0.0164,195.1719
21:04:30:835,-1.7297,1.2683,6.0874,57.5732,0.2277,0.1525,0.0769,195.2188
21:04:30:861,-2.2145,1.4695,6.2586,56.3815,0.2831,-0.166,0.1914,195.1875
21:04:30:880,-2.1355,1.8465,6.5698,58.6835,0.3065,-0.3756,0.3949,195.1094
21:04:30:894,-2.0134,2.5002,7.2174,58.2814,0.2719,-0.4779,0.5725,194.875
21:04:30:920,-1.4831,2.912,7.9034,56.9967,0.2213,-0.4699,0.683,194.4844
21:04:30:943,-0.9396,3.3764,8.4612,56.5399,0.1702,-0.3583,0.7038,193.8906
21:04:30:959,-0.6272,3.7116,8.6444,56.3997,0.1233,-0.2022,0.6324,193.2031
21:04:30:975,-0.7265,3.714,8.5486,55.8803,0.0823,-0.096,0.4857,192.4531
21:04:30:995,-0.8606,3.5033,8.6288,56.1137,0.0043,-0.0859,0.3547,191.7656
21:04:31:014,-0.7553,3.1945,10.0055,55.2812,-0.1638,-0.2321,0.2681,191.2188
21:04:31:035,-0.7313,2.5193,13.0114,55.2669,-0.3811,-0.4608,0.1973,190.8438
21:04:31:065,-0.1364,1.5305,15.25,56.3509,-0.4461,-0.3785,0.1901,190.5625
21:04:31:076,0.9027,0.9535,14.5078,54.9702,-0.2775,0.0934,0.2551,190.4062
21:04:31:098,1.8484,1.1881,12.2716,54.5402,-0.114,0.5719,0.3075,190.25
21:04:31:116,2.4398,1.3426,10.8315,54.3864,-0.1071,0.6132,0.2372,189.9375
21:04:31:137,2.2914,0.9547,10.6064,55.2053,-0.2464,-0.0347,-0.2443,189.5156
21:04:31:158,1.609,0.2759,11.1679,54.2188,-0.2527,-0.1935,-0.3838,189.2031
21:04:31:178,0.9003,-0.2269,11.5497,53.5032,-0.2192,-0.0677,-0.362,189.1562
21:04:31:196,0.892,-0.3729,10.8997,53.4793,-0.1896,0.0121,-0.2845,189.4375
21:04:31:215,1.2954,-0.1622,9.8714,54.5169,-0.2171,-0.1386,-0.2699,189.8906
21:04:31:235,1.5121,0.1945,9.4129,52.7546,-0.2911,-0.3218,-0.3388,190.2969
21:04:31:259,1.4414,0.4675,9.5386,53.5358,-0.3348,-0.2704,-0.4403,190.625
21:04:31:281,1.2451,0.7261,9.1747,53.5926,-0.3206,-0.0694,-0.554,190.9375
21:04:31:296,0.886,1.0517,8.2086,54.7226,-0.2839,0.0614,-0.6573,191.3281
21:04:31:313,0.479,1.2743,7.0546,52.5133,-0.2597,0.0441,-0.7255,191.8594
21:04:31:334,0.0803,1.3785,6.3076,52.7634,-0.2344,-0.0475,-0.7287,192.5
21:04:31:363,-0.0705,1.4527,5.9749,53.2922,-0.1923,-0.1482,-0.701,193.25
21:04:31:380,-0.1364,1.6071,5.9282,52.6579,-0.1483,-0.1812,-0.6834,194.0469
21:04:31:395,-0.11,1.7879,5.8863,52.1864,-0.1515,-0.15,-0.6965,194.875
21:04:31:414,-0.0298,1.9926,6.0503,52.63,-0.2037,-0.1197,-0.7436,195.6875
21:04:31:435,-0.0825,2.1554,6.6919,51.2116,-0.2442,-0.1218,-0.8094,197.25
21:04:31:460,-0.1914,2.2811,7.6328,53.7896,-0.2487,-0.1144,-0.8653,198.1094
21:04:31:479,-0.2453,2.2727,8.7258,52.4602,-0.2349,-0.0334,-0.9095,198.5781
21:04:31:494,-0.3506,2.3445,9.6931,50.4914,-0.2237,0.107,-0.9671,199.5
21:04:31:515,-0.6439,2.2595,10.5957,52.0654,-0.2131,0.3035,-1.035,200.5312
21:04:31:535,-1.4388,1.9208,11.2026,52.3914,-0.1965,0.5512,-1.0014,201.5938
21:04:31:560,-2.078,1.6239,11.3798,51.8468,-0.1667,0.6766,-0.8709,202.6719
21:04:31:578,-2.5916,1.5149,11.4432,52.5708,-0.1308,0.5805,-0.6906,203.8281
21:04:31:595,-2.8286,1.3198,11.9903,50.64,-0.081,0.3858,-0.4861,204.875
21:04:31:616,-2.752,0.9966,12.6367,51.131,-0.0157,0.3432,-0.2837,205.7344
21:04:31:692,-2.6395,0.9128,12.5278,49.5841,-0.025,0.3775,-0.1077,206.0469
21:04:31:693,-2.6599,1.3055,12.2896,50.0453,-0.1396,0.3674,0.0103,206.5781
21:04:31:694,-2.7113,1.6059,12.5338,51.1224,-0.2509,0.3011,0.0641,206.8906
21:04:31:694,-3.1578,1.3725,13.1599,51.0526,-0.2253,0.1472,0.1741,206.9844
21:04:31:716,-3.5864,0.6698,13.8206,50.5372,0.0173,0.0401,0.4279,206.9062
21:04:31:735,-3.651,0.2113,13.1694,49.9112,0.3257,-0.1279,0.7403,206.7656
21:04:31:760,-3.0369,0.0449,11.6324,51.3739,0.4751,-0.4707,1.0082,206.4531
21:04:31:776,-1.7919,-0.0054,10.8578,48.7434,0.4802,-0.823,1.1259,205.7969
21:04:31:794,-0.784,-0.0186,10.9225,49.2892,0.4607,-0.8912,1.1123,204.8125
21:04:31:815,-0.049,-0.082,10.7262,47.8486,0.4693,-0.6901,1.0444,203.625
21:04:31:836,0.2635,-0.0162,8.4229,48.9068,0.5063,-0.3865,0.9608,202.4688
21:04:31:860,0.2324,0.1598,7.1157,49.1643,0.5169,-0.1476,0.9251,201.2969
21:04:31:878,0.3784,0.422,6.14,47.695,0.4986,-0.0028,0.9299,200.1875
21:04:31:894,0.5663,0.6925,5.5367,47.1601,0.4842,-0.007,0.9198,199.2031
21:04:31:915,0.6621,0.847,5.2374,47.8207,0.4786,-0.1112,0.8671,198.1406
21:04:31:934,0.7399,0.9774,5.2446,45.9985,0.4519,-0.2046,0.7885,197.0781
21:04:31:960,0.7722,1.1786,5.5331,47.7446,0.38,-0.2451,0.6905,196.1094
21:04:31:977,0.9315,1.5628,6.1257,47.5877,0.2679,-0.2475,0.5792,194.7344
21:04:31:994,1.4486,2.2236,7.2127,46.9865,0.1529,-0.251,0.4359,193.9688
21:04:32:016,1.9885,3.0197,9.1962,47.2416,0.0764,-0.2587,0.1888,193.3594
21:04:32:035,1.712,2.9084,10.2461,45.7447,0.1063,-0.0536,-0.2544,192.8906
21:04:32:059,0.3784,2.2643,9.7816,46.7525,0.0234,0.5062,-0.8027,192.75
21:04:32:077,-0.954,1.6203,9.4572,46.9185,-0.3483,1.2487,-1.1492,192.7812
21:04:32:094,-1.7764,1.0241,10.6184,48.3281,-0.7984,1.6572,-1.244,193.3438
21:04:32:114,-2.3163,0.1059,12.6822,47.7177,-0.9822,1.5597,-1.1918,194.3906
21:04:32:135,-2.4755,-0.8673,13.9823,48.9349,-0.7619,1.1586,-0.9697,195.6094
21:04:32:160,-1.5896,-1.4335,13.5333,49.255,-0.2653,0.7624,-0.5292,196.8281
21:04:32:178,-0.1651,-1.0768,11.94,48.7114,0.2466,0.3488,-0.0416,197.875
21:04:32:193,1.105,-0.1658,10.1096,48.7493,0.5358,-0.092,0.2122,198.6406
21:04:32:215,1.3768,0.2029,9.614,48.8425,0.4208,-0.5093,0.075,198.9062
21:04:32:235,0.8668,-0.3466,10.6878,48.3107,-0.0296,-0.6446,-0.2483,198.7812
21:04:32:262,0.2348,-0.9547,11.4528,49.0877,-0.4674,-0.3199,-0.4611,198.6406
21:04:32:279,-0.0598,-0.9726,11.2433,49.2143,-0.6525,0.0428,-0.4906,199.0156
21:04:32:294,0.2503,-0.5932,10.8375,47.9395,-0.6402,0.0753,-0.423,199.5156
21:04:32:314,0.461,0.1299,10.1611,48.4715,-0.5739,-0.0366,-0.4227,200.0469
21:04:32:335,0.3066,0.8254,9.2645,48.5514,-0.5244,-0.0305,-0.5194,200.4844
21:04:32:361,-0.1639,1.3186,8.2972,48.6094,-0.4453,0.0795,-0.6776,200.9219
21:04:32:376,-0.6763,1.4024,7.1396,49.708,-0.2993,0.1866,-0.8384,201.4844
21:04:32:394,-1.0785,1.3916,5.9377,50.1711,-0.1411,0.2532,-0.942,202.2344
21:04:32:414,-1.2509,1.4228,5.265,51.3208,-0.0613,0.2731,-0.9703,203.125
21:04:32:434,-1.3981,1.4611,5.2255,50.901,-0.024,0.2225,-0.9575,204.1719
21:04:32:460,-1.756,1.5125,5.3296,51.1362,0.0346,0.1493,-0.9471,205.2656
21:04:32:477,-2.2038,1.637,5.502,50.05,0.082,0.1019,-0.9125,206.3594
21:04:32:494,-2.3546,1.5544,5.9377,49.6952,0.0549,0.0558,-0.8573,207.375
21:04:32:516,-2.6024,1.5317,7.3719,49.4567,-0.0586,-0.0209,-0.8011,208.4219
21:04:32:535,-2.7652,1.5125,9.1819,50.1527,-0.1617,0.0031,-0.6842,209.4062
21:04:32:558,-3.0681,1.3318,10.7668,52.3514,-0.0652,0.1855,-0.6185,210.2812
21:04:32:578,-3.3757,0.9882,11.3714,52.3514,0.041,0.434,-0.5063,211.1094
21:04:32:595,-3.5445,0.7021,10.8794,51.7006,0.0253,0.4969,-0.3511,212.5781
21:04:32:614,-3.7121,0.5585,10.9464,51.0519,-0.0754,0.3554,-0.174,212.5781
21:04:32:634,-3.7803,0.1646,12.1447,51.5219,-0.0889,0.2292,0.0463,213.1094
21:04:32:660,-3.5014,-0.2532,13.076,52.4017,0.0226,0.1919,0.3214,213.5
21:04:32:676,-2.7939,-0.2053,12.8833,52.5896,0.13,0.1104,0.5147,213.6875
21:04:32:693,-2.2756,0.2616,12.0609,51.9553,0.0964,-0.112,0.5834,213.625
21:04:32:713,-1.5992,0.4328,12.0789,53.4676,-0.0205,-0.4715,0.5035,213.25
21:04:32:736,-1.7285,0.3933,13.3155,53.0765,-0.0812,-0.6241,0.3776,212.6719
21:04:32:760,-2.6311,-0.1119,14.9232,52.3808,0.1097,-0.365,0.429,212.0469
21:04:32:777,-2.8239,-0.8876,14.8466,53.5623,0.5372,0.0428,0.6415,211.4844
21:04:32:793,-2.0421,-0.6147,12.7145,53.9244,0.8996,0.1847,0.7994,211.0625
21:04:32:814,-1.0665,0.1012,9.808,52.8815,0.979,-0.1674,0.7272,210.3125
21:04:32:834,-1.045,0.5477,8.2122,53.2951,0.7838,-0.6587,0.5749,209.5156
21:04:32:860,-1.2975,0.2628,8.5678,53.0667,0.5718,-0.8433,0.5273,208.6875
21:04:32:878,-1.5262,-0.1383,9.304,53.7733,0.5475,-0.6843,0.6039,208.0469
21:04:32:895,-1.5753,-0.0844,8.8886,53.4622,0.6408,-0.3998,0.7358,207.5781
21:04:32:913,-1.1778,0.1646,7.3946,52.7525,0.6804,-0.2006,0.8258,207.0469
21:04:32:935,-0.7158,0.4435,5.7438,53.6364,0.5768,-0.1729,0.8386,206.3594
21:04:32:960,-0.4847,0.7919,4.8232,53.3162,0.3483,-0.2752,0.8034,205.5625
21:04:32:979,-0.5278,0.9942,5.1955,53.111,0.1649,-0.3745,0.7784,205.1094
21:04:32:996,-0.462,0.9607,6.2813,53.7725,0.1523,-0.3517,0.7778,204.1875
21:04:33:015,-0.4368,1.0624,6.7314,54.1832,0.2029,-0.2646,0.7962,203.3125
21:04:33:034,0.0564,1.2803,6.6967,53.6732,0.1995,-0.1895,0.7744,202.5156
21:04:33:062,0.5927,1.8046,6.6201,52.3291,0.1188,-0.2377,0.6274,201.6719
21:04:33:079,0.8393,2.2631,7.221,54.6735,0.0045,-0.3498,0.3845,200.7969
21:04:33:096,0.6465,2.3565,8.6408,53.5534,-0.0474,-0.3042,0.1384,199.6094
21:04:33:120,0.1055,1.9842,9.6176,53.2099,-0.0541,-0.0989,-0.0139,199.0625
21:04:33:132,-0.3973,1.7101,9.6787,55.057,-0.1308,-0.0062,-0.0512,198.8125
21:04:33:154,-0.2633,1.576,10.1037,53.068,-0.2573,-0.0947,-0.065,198.7812
21:04:33:178,0.1318,1.3007,11.3199,53.3923,-0.326,-0.1852,-0.0853,198.8281
21:04:33:195,0.3999,0.8362,12.584,53.1957,-0.2802,-0.0747,-0.0302,198.9062
21:04:33:214,1.1374,0.4352,12.4153,53.0126,-0.1923,0.0755,0.0399,199.0156
21:04:33:234,2.1226,0.9188,10.2114,54.0826,-0.1704,0.0124,0.0279,199.0938
21:04:33:259,1.9322,0.9403,10.136,54.5828,-0.2613,-0.3053,-0.1388,199.0938
21:04:33:279,1.2762,0.4471,11.3187,55.3865,-0.4197,-0.6829,-0.374,199.0156
21:04:33:293,0.6226,-0.3262,12.8354,55.8621,-0.5199,-0.8233,-0.5053,199.0781
21:04:33:314,0.4251,-0.6506,13.0437,53.9915,-0.4272,-0.6044,-0.4416,199.4375
21:04:33:333,1.1697,-0.3478,11.3307,54.6638,-0.2051,-0.2355,-0.2626,200.0469
21:04:33:354,1.931,0.3837,9.6787,53.9627,-0.1209,-0.0315,-0.1774,200.6719
21:04:33:377,2.1896,0.8565,9.0478,53.3491,-0.2091,-0.0523,-0.2587,201.125
21:04:33:393,1.7886,1.0157,8.782,54.6372,-0.2964,-0.0965,-0.464,201.4688
21:04:33:414,0.9817,0.9727,8.4684,55.1602,-0.3273,-0.071,-0.6645,201.7656
21:04:33:433,0.5065,0.9523,8.0291,54.13,-0.306,0.0217,-0.7529,202.3125
21:04:33:454,0.3736,1.1319,7.4533,55.9428,-0.2413,0.1019,-0.7529,202.6719
21:04:33:476,0.3114,1.3797,6.8427,55.5188,-0.1864,0.1573,-0.7495,203.5156
21:04:33:495,0.133,1.6131,6.6141,56.3108,-0.1846,0.1735,-0.7615,204.3438
21:04:33:514,-0.1842,1.8286,6.9684,54.8595,-0.2256,0.1496,-0.7775,205.1875
21:04:33:534,-0.4201,1.9483,7.4257,55.8163,-0.2424,0.1701,-0.7679,206.0469
21:04:33:553,-0.5853,2.1709,7.3731,57.546,-0.1867,0.2281,-0.7322,206.875
21:04:33:578,-0.6763,2.3673,7.2821,56.1193,-0.1281,0.239,-0.6962,207.7656
21:04:33:594,-0.7984,2.5109,7.6436,55.6558,-0.1276,0.1935,-0.6672,208.6094
21:04:33:618,-0.8139,2.7491,8.9377,56.4658,-0.1641,0.0928,-0.6358,209.4062
21:04:33:632,-0.3758,2.9838,10.8363,57.3838,-0.1236,0.0135,-0.6166,210.1406
21:04:33:655,-0.6822,2.6282,11.3367,56.2766,0.094,0.0191,-0.6866,210.875
21:04:33:676,-1.9344,1.9208,10.5526,56.1432,0.3017,0.0723,-0.7724,211.9062
21:04:33:695,-2.2241,1.333,10.9368,56.2554,0.184,0.1056,-0.6326,212.6875
21:04:33:759,-1.3119,1.2528,12.6116,55.9997,-0.0975,0.1075,-0.3199,213.5625
21:04:33:760,-0.043,1.3701,13.7548,58.1529,-0.2128,0.1818,-0.1013,214.2812
21:04:33:760,0.4706,1.3617,13.6088,57.4088,-0.1518,0.2777,-0.1042,214.625
21:04:33:776,0.2395,1.0888,12.6355,54.6435,-0.0828,0.3754,-0.2182,214.7188
21:04:33:793,-0.8343,0.6806,11.6778,57.4471,-0.1055,0.4106,-0.3391,214.8281
21:04:33:813,-1.8171,0.2197,12.0956,55.2213,-0.2277,0.2809,-0.3327,215.0312
21:04:33:834,-2.4803,-0.2939,13.2305,56.1631,-0.2743,0.0982,-0.1543,215.3906
21:04:33:860,-2.4527,-0.726,13.0677,55.9899,-0.0621,0.05,0.1485,215.75
21:04:33:878,-1.7046,-0.7464,11.363,55.8885,0.2961,0.0281,0.4932,215.9219
21:04:33:893,-0.602,-0.519,9.8798,57.1339,0.5172,-0.1828,0.7315,215.75
21:04:33:914,0.2635,-0.2843,9.7242,57.1071,0.502,-0.5125,0.7624,215.1875
21:04:33:933,0.303,-0.2173,9.8571,56.2205,0.3595,-0.6435,0.5978,214.375
21:04:33:955,0.1186,-0.4603,9.5961,54.9731,0.0527,-0.1354,0.2407,213.9844
21:04:33:975,-0.2561,-0.4758,8.8359,55.117,-0.0594,0.1647,0.1941,212.9688
21:04:33:994,-0.5458,-0.2652,8.0997,55.0362,-0.0943,0.3229,0.2093,212.2969
21:04:34:013,-0.6798,0.155,7.2929,54.4674,-0.13,0.3938,0.2199,212.2969
21:04:34:033,-0.6092,0.7201,6.5914,54.3791,-0.3188,0.5858,0.1842,212.0625
21:04:34:054,-0.3949,1.1953,6.3424,55.3204,-0.5728,0.7924,0.0953,211.7969
21:04:34:077,-0.7074,1.4778,7.0079,54.1366,-0.576,0.7299,0.0295,211.5312
21:04:34:094,-1.2928,1.406,8.0506,55.2182,-0.2197,0.4159,0.0524,211.2812
21:04:34:112,-1.8183,1.2252,8.3236,54.9838,0.2565,0.0598,0.1754,211.1094
21:04:34:132,-1.6555,1.1438,7.828,55.6956,0.5441,-0.1522,0.2828,211
21:04:34:154,-1.3849,1.3629,7.3012,56.1027,0.5513,-0.2142,0.2828,210.9219
21:04:34:177,-1.0988,1.5736,7.7118,55.3652,0.4043,-0.1088,0.1858,210.7344
21:04:34:194,-0.9863,1.5437,8.7521,54.8732,0.2921,0.1019,0.0404,210.4375
21:04:34:212,-1.3933,1.1845,9.4836,54.2443,0.2538,0.2287,-0.0397,210.1562
21:04:34:232,-1.7908,0.7284,9.9696,54.988,0.2517,0.169,-0.0011,209.9219
21:04:34:252,-1.7094,0.1933,10.6447,53.4109,0.2498,-0.0318,0.0894,209.9375
21:04:34:276,-1.2808,-0.4052,11.7197,54.0341,0.221,-0.1282,0.2111,209.9688
21:04:34:293,-0.5565,-0.8996,12.6762,52.3468,0.2245,0.0329,0.373,209.9219
21:04:34:313,0.4287,-0.9308,12.1507,52.2133,0.2149,0.1749,0.4825,209.7812
21:04:34:333,1.4055,-0.3789,10.4448,53.4832,0.0658,-0.0406,0.3928,209.4531
21:04:34:352,1.7646,0.1658,9.6727,53.234,-0.2376,-0.4848,0.12,208.9688
21:04:34:376,1.2307,0.0054,11.2876,52.4385,-0.4783,-0.6078,-0.1247,208.4375
21:04:34:394,0.3401,-0.7679,13.4507,51.7745,-0.404,-0.17,-0.1788,208.1406
21:04:34:414,-0.128,-1.2396,13.2389,51.8552,-0.1401,0.3307,-0.0541,208.2031
21:04:34:434,0.461,-0.9391,10.7357,52.3145,0.0163,0.3253,0.0425,208.4375
21:04:34:454,1.6198,-0.4004,8.5929,52.6186,-0.0368,-0.0912,-0.0672,208.5312
21:04:34:475,1.8987,0.2915,8.2338,52.1366,-0.1864,-0.3548,-0.3149,208.5625
21:04:34:496,1.4989,0.4184,8.6767,53.1053,-0.2871,-0.227,-0.5569,208.5
21:04:34:513,0.7866,0.2819,8.4492,52.8311,-0.3326,0.1232,-0.6784,208.5781
21:04:34:533,0.1258,0.4196,7.4736,51.997,-0.3768,0.4082,-0.6946,208.9531
21:04:34:553,-0.2657,0.6662,6.4752,52.6839,-0.4032,0.4268,-0.6672,209.9531
21:04:34:577,-0.6954,0.8087,6.1568,53.949,-0.3587,0.2588,-0.5977,210.7188
21:04:34:594,-1.0067,0.8757,6.2155,53.949,-0.2533,0.0787,-0.4832,211.4531
21:04:34:614,-1.1886,1.1187,6.3184,52.1707,-0.1625,-0.0148,-0.3724,212.1094
21:04:34:633,-1.1144,1.922,6.6991,51.3957,-0.1132,-0.0148,-0.3037,212.7188
21:04:34:654,-1.1264,2.2643,7.4988,51.3957,-0.123,-0.0491,-0.3021,213.1875
21:04:34:678,-1.3562,2.39,8.6444,52.4675,-0.1481,-0.0694,-0.3457,213.5469
21:04:34:694,-1.8602,2.4211,9.6224,51.8797,-0.1723,0.0188,-0.4131,213.875
21:04:34:712,-2.2313,2.3481,10.7333,51.4609,-0.2312,0.2284,-0.4352,214.25
21:04:34:733,-2.3977,2.2356,11.6348,52.1508,-0.2503,0.4737,-0.3868,214.6719
21:04:34:756,-2.254,1.9902,12.1519,50.4896,-0.1497,0.5682,-0.3034,215.1406
21:04:34:777,-1.8817,1.4551,12.4715,51.3412,0.0208,0.4598,-0.2169,215.7812
21:04:34:794,-1.6567,1.1151,13.0581,50.8008,0.1366,0.2745,-0.138,215.9531
21:04:34:813,-1.3035,0.8027,13.3514,49.7374,0.1787,0.2936,-0.0712,216.3125
21:04:34:832,-1.1671,0.7655,12.3925,50.7642,0.1824,0.5648,-0.0493,216.4688
21:04:34:853,-1.4999,0.9236,11.2229,50.5403,0.1081,0.7429,-0.0901,216.5156
21:04:34:880,-1.9296,0.75,10.9272,52.8139,-0.0431,0.5725,-0.1473,216.5781
21:04:34:894,-2.6946,0.1814,12.1663,51.0907,-0.2,0.0976,-0.2011,216.6406
21:04:34:913,-3.6415,-0.7069,13.7057,51.06,-0.2424,-0.2845,-0.1516,216.75
21:04:34:932,-4.0066,-1.2037,13.1946,49.7465,-0.0794,-0.1458,0.1059,216.9219
21:04:34:952,-3.3817,-0.8924,10.4712,50.1499,0.1939,0.2167,0.5185,217.125
21:04:34:978,-2.2349,-0.3909,8.3834,50.0206,0.3321,0.1986,0.8649,217.1719
21:04:34:995,-1.4592,-0.0976,8.077,49.1207,0.3044,-0.2832,0.9909,216.8281
21:04:35:012,-1.2102,-0.0353,8.9485,48.7662,0.2139,-0.7572,0.9504,216.0625
21:04:35:037,-1.3514,0.0497,9.4129,49.1499,0.1457,-0.7945,0.8652,215
21:04:35:052,-1.3263,0.0629,8.8718,49.9642,0.1326,-0.4699,0.8,213.4219
21:04:35:073,-1.2724,0.2197,7.6795,48.4962,0.1483,-0.1002,0.7688,212.5312
21:04:35:094,-0.9276,0.41,6.6931,47.6248,0.1715,0.05,0.7704,211.6562
21:04:35:121,-0.6439,0.6578,6.4645,49.8221,0.1787,-0.0363,0.7691,210.7812
21:04:35:142,-0.3842,0.7871,6.7673,49.3517,0.269,-0.2851,0.6774,209.0781
21:04:35:156,-0.1304,0.7955,6.8739,48.0778,0.3076,-0.2475,0.5818,208.2656
21:04:35:182,0.0324,0.896,6.7302,47.3449,0.2661,-0.1716,0.438,207.5312
21:04:35:201,-0.1819,1.0193,6.7578,47.6347,0.1545,-0.1357,0.2742,206.9219
21:04:35:216,-0.6176,1.0241,7.3503,48.8378,0.0469,-0.0981,0.1573,206.4531
21:04:35:243,-1.1096,0.9858,8.2685,49.4931,0.0285,-0.0363,0.1304,206.1562
21:04:35:253,-1.2257,1.1786,9.0107,46.7511,0.0983,0.0367,0.1453,205.9844
21:04:35:278,-0.7445,1.5365,9.0514,47.9183,0.1811,-0.0214,0.0684,205.8438
21:04:35:294,-0.4392,1.7304,8.9077,47.4081,0.1406,-0.2534,-0.101,205.6875
21:04:35:315,-0.3267,1.3414,9.7397,47.492,-0.0045,-0.4496,-0.2744,205.625
21:04:35:333,-0.6415,0.5848,11.4564,48.0227,-0.1382,-0.3927,-0.3404,205.625
21:04:35:354,-0.8606,-0.1574,13.0378,48.8281,-0.1302,-0.0805,-0.2123,205.75
21:04:35:377,-0.0981,-0.4663,12.9252,48.5266,-0.0386,0.2002,-0.0706,206.1094
21:04:35:394,0.7591,0.2735,11.3498,48.7173,-0.0253,0.0854,-0.1385,206.5312
21:04:35:412,1.3253,0.7608,10.2078,48.9944,-0.2112,-0.3397,-0.4493,206.7656
21:04:35:432,1.0991,0.5154,11.0446,47.2969,-0.5169,-0.6307,-0.7993,206.8281
21:04:35:452,-0.4165,-0.5453,13.5094,47.8725,-0.6514,-0.313,-0.8888,206.9688
21:04:35:477,-1.8087,-1.4323,14.7149,47.4499,-0.4826,0.3141,-0.5894,207.4844
21:04:35:493,-1.5932,-1.5868,13.1156,46.622,-0.1723,0.5637,-0.1726,208.4219
21:04:35:512,-0.6116,-0.72,10.3862,48.3569,0.0495,0.1789,0.0945,209.4531
21:04:35:532,0.5915,0.2616,8.8934,47.664,0.1486,-0.2944,0.0916,210.0938
21:04:35:553,1.0452,0.8889,8.217,48.0088,0.1523,-0.414,-0.1039,210.25
21:04:35:579,0.7327,0.9918,7.4473,47.8856,0.053,-0.2294,-0.289,210.125
21:04:35:597,0.2419,0.9272,6.5926,48.0981,-0.1044,0.0129,-0.3979,210.1875
21:04:35:615,-0.3399,0.9176,6.0682,48.0297,-0.2266,0.1538,-0.4155,210.5312
21:04:35:642,-0.7062,0.9882,5.921,49.1665,-0.2434,0.1727,-0.3734,210.9844
21:04:35:651,-0.9683,1.1151,5.8815,47.3863,-0.1507,0.1283,-0.2954,211.2188
21:04:35:674,-1.0473,1.3821,5.5726,48.6146,-0.0895,-0.0014,-0.2235,211.6406
21:04:35:694,-1.0665,1.7639,5.6073,47.661,-0.139,-0.1729,-0.2038,212
21:04:35:713,-1.3526,2.0668,6.8176,46.6035,-0.1824,-0.2707,-0.2009,212.2969
21:04:35:736,-1.6292,2.0728,8.6528,48.1064,-0.0905,-0.235,-0.1734,212.5312
21:04:35:751,-1.7082,1.9459,9.9516,48.9125,0.0948,-0.1069,-0.1191,212.7656
21:04:35:825,-1.7979,1.9866,10.2724,47.1563,0.2394,0.0558,-0.0563,212.875
21:04:35:825,-1.7752,2.0022,10.039,48.2572,0.2748,0.1735,-0.035,213.0781
21:04:35:826,-1.8997,1.8621,10.0773,47.6194,0.2184,0.2284,0.0093,213.2188
21:04:35:831,-1.9296,1.4264,10.6591,45.4597,0.1595,0.1418,0.103,213.2812
21:04:35:854,-2.2313,0.8996,11.3869,45.7561,0.1281,-0.0707,0.2849,213.3281
21:04:35:879,-1.9488,0.7871,12.45,47.7327,0.1329,-0.3018,0.4465,213.1875
21:04:35:891,-0.8319,0.6662,13.7141,45.8484,0.1763,-0.4129,0.4418,213.0625
21:04:35:922,0.1342,0.5764,14.187,46.3593,0.1196,-0.3706,0.278,212.6406
21:04:35:931,-0.1112,0.5177,14.5688,45.6544,-0.0088,-0.2033,0.1203,212.125
21:04:35:952,-1.2365,-0.1383,15.335,46.9609,0.0834,0.2132,0.1832,211.75
21:04:35:973,-1.5633,-0.8194,14.0924,45.3534,0.3345,0.6335,0.3864,211.5781
21:04:35:995,-1.3287,-0.6135,10.8447,45.1144,0.3627,0.5743,0.5584,211.4375
21:04:36:012,-0.7265,-0.1526,8.8754,45.776,0.1678,-0.0081,0.5914,211.0938
21:04:36:033,-0.5841,-0.4555,10.8626,46.3634,-0.0346,-0.521,0.5312,210.5
21:04:36:055,-0.9252,-0.6734,10.847,44.8836,-0.0645,-0.5048,0.5222,209.8125
21:04:36:077,-1.0773,-0.495,9.3279,45.721,-0.0048,-0.1988,0.5973,209.2188
21:04:36:094,-0.8462,-0.0569,7.6939,45.1731,0.004,0.0404,0.7326,208.6719
21:04:36:111,-0.4356,0.2376,6.9589,44.0372,-0.0392,0.0156,0.8415,208.0625
21:04:36:132,-0.2166,0.4112,6.8092,45.9775,-0.049,-0.1327,0.8961,207.3125
21:04:36:152,-0.0933,0.5249,6.5387,44.6263,0.0165,-0.2363,0.9307,206.4375
21:04:36:179,0.127,0.6327,5.9317,45.8101,0.1207,-0.252,0.9731,205.4531
21:04:36:197,0.4778,0.8757,5.1417,44.9788,0.2043,-0.2329,1.0114,203.8906
21:04:36:214,1.0428,1.3007,4.5778,44.3864,0.229,-0.2667,1.0101,202.8438
21:04:36:232,1.6306,1.7424,4.6281,46.453,0.1654,-0.3924,0.8998,201.7031
21:04:36:252,1.8161,1.922,5.3583,44.5666,0.012,-0.5082,0.6497,201.125
21:04:36:276,1.5947,1.9591,6.4321,45.0959,-0.1939,-0.5141,0.3342,200.0938
21:04:36:295,1.2044,1.922,7.6843,44.3099,-0.4037,-0.422,0.0322,199.2344
21:04:36:311,0.7459,1.5604,9.2082,44.0441,-0.5955,-0.3069,-0.2501,198.7031
21:04:36:336,0.0695,1.1726,11.2565,45.2157,-0.7598,-0.1951,-0.476,198.5469
21:04:36:351,-0.2788,0.4878,13.1922,44.4821,-0.824,-0.0651,-0.6057,198.7188
21:04:36:372,-0.7864,-0.4004,14.151,43.9191,-0.7249,0.0367,-0.672,199.1875
21:04:36:393,-0.3626,-1.3785,14.2229,45.4488,-0.5859,0.1221,-0.5974,199.875
21:04:36:420,0.6166,-1.6933,14.0637,45.6641,-0.5542,0.2396,-0.4073,200.5938
21:04:36:431,1.8544,-1.5604,13.823,47.0278,-0.628,0.3376,-0.272,201.375
21:04:36:458,1.8472,-1.7352,14.4659,46.0584,-0.7523,0.251,-0.3655,201.9688
21:04:36:478,0.2778,-2.3026,15.5672,46.3545,-0.792,0.1504,-0.5338,202.4844
21:04:36:494,-1.2509,-2.7599,14.5329,48.872,-0.575,0.4289,-0.4581,202.9219
21:04:36:516,-0.7134,-2.4894,11.357,48.6963,-0.2088,0.8569,-0.0184,203.5469
21:04:36:534,1.621,-1.4706,8.6073,47.6577,0.0445,0.8875,0.5379,204.0625
21:04:36:553,3.0922,0.094,7.549,47.4571,0.1329,0.3163,0.7448,204.0781
21:04:36:577,3.5663,1.1953,8.3188,48.6762,0.1084,-0.4736,0.5581,203.4688
21:04:36:597,3.1138,1.1582,9.3088,49.1499,0.0748,-0.8555,0.1323,202.6094
21:04:36:613,1.8676,0.8111,9.0945,49.822,0.1084,-0.6912,-0.3314,202.0156
21:04:36:634,0.8165,0.4663,8.0099,49.3055,0.1316,-0.2651,-0.6347,201.8594
21:04:36:652,-0.0083,0.2412,6.8775,49.3875,0.094,0.136,-0.77,202.25
21:04:36:677,-0.4584,0.1514,6.3376,48.8411,0.0301,0.3275,-0.7729,202.9375
21:04:36:695,-0.6583,0.185,6.2286,48.8411,0.017,0.3232,-0.6853,203.8125
21:04:36:711,-0.6332,0.4172,5.9784,49.9131,0.0916,0.2295,-0.5601,204.6875
21:04:36:733,-0.3913,0.7476,5.7378,49.9933,0.2189,-0.1176,-0.4139,205.0938
21:04:36:754,-0.1771,1.0421,5.8934,51.787,0.1593,-0.3295,-0.4389,206.0781
21:04:36:778,-0.3902,1.2456,6.8799,49.4016,0.0847,-0.4267,-0.4499,206.5938
21:04:36:796,-0.62,1.1905,8.3439,52.0949,0.0863,-0.3239,-0.4022,207.0625
21:04:36:812,-0.8438,1.2324,9.4069,50.6225,0.1569,-0.1077,-0.2768,207.5469
21:04:36:832,-0.7708,1.5305,9.8906,51.1672,0.2218,0.1341,-0.1407,208.0781
21:04:36:851,0.0324,1.9651,9.9851,53.2543,0.1827,0.2513,-0.1487,208.5312
21:04:36:872,0.8153,2.1662,10.7908,52.395,0.0397,0.2327,-0.3394,208.8281
21:04:36:897,0.728,1.5928,12.4452,54.1522,-0.1039,0.2316,-0.5119,208.9844
21:04:36:914,0.0396,0.6375,14.2995,54.3304,-0.1012,0.3895,-0.5151,209.1406
21:04:36:931,-0.6882,-0.3956,14.8968,54.5716,0.0117,0.496,-0.35,209.5312
21:04:36:951,-1.4053,-0.8745,14.2887,55.2017,0.0807,0.332,-0.0161,210.0781
21:04:36:971,-1.1946,-0.5979,13.8147,55.9503,0.081,-0.1908,0.2716,210.6562
21:04:36:996,-0.511,-0.0545,14.6383,54.6212,0.1936,-0.7389,0.3587,211.0469
21:04:37:014,-0.1735,-0.2496,15.5959,56.2993,0.4871,-0.7588,0.3624,210.75
21:04:37:031,-0.5542,-0.8625,14.3139,56.6513,0.6903,-0.402,0.4663,210.3594
21:04:37:052,-0.8271,-1.066,11.8023,55.387,0.6408,-0.2504,0.6548,210.1719
21:04:37:077,-0.8223,-0.7967,10.2868,55.248,0.4418,-0.3389,0.8466,209.75
21:04:37:094,-0.4608,-0.4615,10.3922,56.1918,0.3606,-0.4523,0.9922,209.0938
21:04:37:113,-0.0274,-0.1718,10.5609,58.2371,0.5033,-0.4281,1.0615,208.2344
21:04:37:131,0.0899,0.1442,9.4213,56.9159,0.6655,-0.3319,1.1147,207.2344
21:04:37:153,0.1809,0.4112,7.7214,56.2691,0.7396,-0.2875,1.1653,206.0625
21:04:37:181,0.3557,0.6662,6.3376,57.2051,0.7444,-0.2603,1.1803,204.8125
21:04:37:197,0.71,0.9547,5.1213,56.7197,0.669,-0.2414,1.1243,203.5
21:04:37:215,1.038,1.2599,4.2869,56.4818,0.5396,-0.2409,1.0013,202.875
21:04:37:238,1.3002,1.3366,3.9518,57.8465,0.4149,-0.2835,0.8431,201.5
21:04:37:250,1.3445,1.4778,3.9518,55.7965,0.3201,-0.373,0.6716,200.1875
21:04:37:272,1.4354,1.6777,4.3336,55.1335,0.253,-0.4765,0.4607,199.0938
21:04:37:295,1.5659,1.5042,4.7394,56.0985,0.1396,-0.5378,0.2151,198.125
21:04:37:315,0.8943,1.2839,5.5092,55.6006,-0.0527,-0.447,0.0732,197.375
21:04:37:332,0.3904,0.9128,6.6608,57.8651,-0.2684,-0.2584,0.0436,196.75
21:04:37:354,0.0935,0.6387,8.0063,57.1799,-0.4839,-0.0094,0.0876,196.6562
21:04:37:380,0.2455,0.416,9.3004,56.7516,-0.649,0.1914,0.1355,196.6562
21:04:37:396,0.7902,0.2017,10.3958,58.6553,-0.7782,0.2569,0.111,196.6406
21:04:37:411,1.554,0.0341,11.9615,56.8202,-0.8235,0.2952,0.0181,196.5625
21:04:37:438,2.2399,-0.9188,14.2468,58.4688,-0.7294,0.4747,-0.1449,196.4531
21:04:37:451,2.1729,-1.2528,13.0964,58.903,-0.5872,0.7536,-0.2352,196.4219
21:04:37:475,2.4566,-1.3976,12.2668,58.3234,-0.5974,0.8913,-0.219,196.5312
21:04:37:498,2.1729,-1.4287,12.6678,60.668,-0.796,0.8785,-0.2552,196.7812
21:04:37:519,0.9506,-1.7029,14.5329,60.3096,-1.0914,0.8636,-0.382,197.0625
21:04:37:532,-0.529,-2.3445,15.2943,59.3983,-1.1273,0.9909,-0.4398,197.2969
21:04:37:552,-0.45,-2.493,13.361,60.902,-0.7484,1.1001,-0.1881,197.6719
21:04:37:577,1.5408,-1.6562,10.7944,62.1589,-0.2589,0.8503,0.2934,198.2031
21:04:37:594,3.5531,-0.3202,9.608,60.8284,0.0985,0.1402,0.5813,198.625
21:04:37:611,3.9757,0.6758,9.6763,59.6997,0.286,-0.6113,0.4106,198.3438
21:04:37:632,3.4478,0.726,9.6535,59.0858,0.3406,-0.8523,-0.0177,197.6719
21:04:37:651,2.3081,0.4615,8.4361,61.614,0.331,-0.5556,-0.452,197.2031
21:04:37:670,1.3014,0.4579,6.632,59.5657,0.24,-0.0355,-0.7399,197.2344
21:04:37:693,0.7447,0.6315,5.3428,61.4862,0.0685,0.3696,-0.836,197.4375
21:04:37:716,0.5735,0.8996,5.1213,59.5088,-0.0929,0.491,-0.8091,198.1406
21:04:37:735,0.5364,1.2181,5.4541,62.372,-0.1369,0.3925,-0.7324,199.0469
21:04:37:756,0.5951,1.552,5.9772,62.8767,-0.0748,0.2265,-0.6754,199.9531
21:04:37:778,0.6932,1.7101,6.3232,62.1121,0.0136,0.1229,-0.6629,200.8281
21:04:37:793,0.3437,1.8956,6.9062,62.8477,0.0256,0.0793,-0.733,201.625
21:04:37:811,0.054,1.734,8.2014,61.9641,-0.0418,0.0558,-0.8062,202.3438
21:04:37:888,-0.4715,1.5377,9.3052,62.779,-0.0735,0.0875,-0.8424,203.1406
21:04:37:888,-0.9684,1.4706,10.2114,62.4317,-0.0578,0.1647,-0.807,204.0156
21:04:37:889,-1.3299,1.4036,10.9344,64.3194,-0.0149,0.2446,-0.6938,204.9219
21:04:37:891,-1.6519,1.2827,11.3654,63.0106,0.0487,0.2905,-0.5506,206.3281
21:04:37:918,-1.6124,1.1606,11.6623,65.246,0.1207,0.2486,-0.3657,207.1094
21:04:37:933,-1.3706,0.9798,12.25,63.8555,0.1518,0.1253,-0.182,207.7188
21:04:37:952,-0.9181,0.659,13.0282,65.4527,0.1451,0.0145,-0.0307,208.125
21:04:37:974,-0.3638,0.3334,13.5621,63.3655,0.1246,-0.0118,0.0716,208.3281
21:04:37:995,-0.1364,0.2711,13.9619,63.424,0.074,-0.007,0.1145,208.3594
21:04:38:011,-0.4308,0.1886,14.2672,64.2938,0.0077,0.047,0.1081,208.2812
21:04:38:033,-1.2185,-0.1359,14.6443,64.8274,0.0072,0.0865,0.0971,208.1562
21:04:38:051,-1.8195,-0.6734,14.1558,61.5174,0.1529,0.1909,0.2069,208.0312
21:04:38:072,-1.6962,-0.7739,11.7616,64.1791,0.4498,0.4111,0.4822,207.9219
21:04:38:097,-0.9468,-0.562,8.7856,63.9543,0.7036,0.4148,0.7688,207.6875
21:04:38:115,-0.3949,-0.0904,7.5993,62.4564,0.6985,-0.0459,0.9102,207.125
21:04:38:132,-0.1819,0.0509,9.1711,61.4972,0.2053,-1.0574,0.7952,206.2812
21:04:38:152,-0.14,-0.0844,11.2146,62.5266,0.2349,-0.8411,0.6793,206.2812
21:04:38:181,-0.4799,-0.2807,11.3546,62.9424,0.3665,-0.3349,0.6391,205.25
21:04:38:198,-0.7289,-0.2484,9.6487,62.9424,0.4469,0.153,0.6846,204.2656
21:04:38:213,-0.7768,0.0413,7.3874,61.617,0.4581,0.308,0.7627,202.7188
21:04:38:230,-0.5829,0.252,5.8958,60.8128,0.4525,0.2066,0.8306,202
21:04:38:251,-0.195,0.3969,5.1201,62.1102,0.4594,-0.0275,0.8719,201.1875
21:04:38:271,0.2132,0.6171,5.0555,60.5989,0.4703,-0.2659,0.8591,200.3438
21:04:38:298,0.3018,0.7715,5.4505,59.7401,0.4543,-0.3588,0.8213,199.3594
21:04:38:314,0.3796,0.8853,6.079,60.1153,0.3981,-0.3263,0.7818,198.3438
21:04:38:332,0.6932,1.1211,6.7769,60.8444,0.3537,-0.2422,0.6889,197.4219
21:04:38:350,1.0883,1.485,7.4281,60.5246,0.359,-0.1825,0.5286,196.5
21:04:38:371,1.4761,1.6718,7.7489,59.9027,0.3712,-0.1165,0.3046,195.625
21:04:38:396,1.6222,1.7867,7.5526,59.8899,0.2868,-0.0225,0.046,194.8438
21:04:38:415,1.5085,1.8789,7.3862,59.3156,0.0783,0.0548,-0.2179,194.2812
21:04:38:430,1.293,1.7627,7.6975,59.7446,-0.1939,0.087,-0.4744,193.9219
21:04:38:455,1.0093,1.4168,8.8156,59.82,-0.4264,0.1094,-0.6685,193.8594
21:04:38:470,0.7651,0.8422,10.1396,58.5646,-0.567,0.1157,-0.7788,194.3125
21:04:38:492,0.1414,0.404,11.5414,59.0129,-0.5957,0.1831,-0.7263,194.9844
21:04:38:512,-0.1711,-0.0964,12.4943,59.0787,-0.4858,0.4122,-0.4816,195.8438
21:04:38:531,0.8285,-0.4567,11.5162,59.1803,-0.4165,0.56,-0.272,196.7031
21:04:38:552,1.6796,0.0748,9.7828,59.0715,-0.5659,0.3123,-0.2621,197.4062
21:04:38:572,1.9406,0.4244,9.778,59.0957,-0.8474,-0.2046,-0.4272,197.7812
21:04:38:593,1.5408,-0.5285,12.3805,58.1674,-0.9926,-0.447,-0.542,198
21:04:38:613,0.3545,-1.4515,15.0872,58.7454,-0.8136,-0.2254,-0.3583,198.3906
21:04:38:631,0.4023,-1.6418,15.5505,58.5952,-0.4418,-0.0568,-0.0909,199.0312
21:04:38:651,1.9921,-1.2755,14.248,60.0809,-0.1582,-0.198,-0.0488,199.3594
21:04:38:671,3.127,-0.7344,13.0401,56.6339,-0.0463,-0.3711,-0.2632,199.7812
21:04:38:695,3.1629,-0.2963,12.1711,57.5337,-0.0636,-0.2198,-0.6073,199.9062
21:04:38:712,2.1561,-0.1251,10.8459,57.3551,-0.1489,0.1664,-0.8557,199.9688
21:04:38:731,1.1038,-0.0473,9.2741,57.5197,-0.1824,0.5008,-0.9322,200.2969
21:04:38:751,0.4263,0.149,7.5095,57.5198,-0.1374,0.617,-0.8965,200.9688
21:04:38:772,0.1174,0.3956,5.7187,57.8818,-0.0831,0.5347,-0.8097,201.9531
21:04:38:795,-0.104,0.8242,4.1696,58.6305,-0.0735,0.275,-0.7037,203.4688
21:04:38:813,-0.0538,1.2288,3.1844,58.7262,-0.164,-0.1085,-0.643,204.4219
21:04:38:831,0.1629,1.4144,4.409,59.7742,-0.2828,-0.4859,-0.6083,205.2656
21:04:38:852,0.0636,1.4108,5.927,59.2118,-0.3696,-0.7381,-0.5777,206.0312
21:04:38:871,0.0492,1.4659,7.8316,58.8257,-0.4192,-0.8028,-0.5122,206.7188
21:04:38:895,-0.0178,1.6131,9.7864,58.456,-0.4104,-0.6747,-0.4648,207.4375
21:04:38:912,-0.2657,1.5473,11.3295,57.706,-0.3153,-0.4241,-0.4445,208.0781
21:04:38:931,-0.5925,1.3007,11.5138,57.792,-0.1475,-0.0315,-0.4049,208.6406
21:04:38:954,-0.4727,1.2719,10.8638,57.0876,-0.0216,0.3147,-0.3141,209.1875
21:04:38:970,0.0121,1.4611,10.9057,57.4583,-0.0418,0.4218,-0.2459,209.6875
21:04:38:992,0.7866,1.3102,11.9999,60.0136,-0.1579,0.2939,-0.2818,210.0938
21:04:39:016,1.5132,0.7727,13.9212,58.532,-0.2991,0.1059,-0.4416,210.4062
21:04:39:031,1.2822,-0.0485,15.6594,57.8479,-0.4021,0.0729,-0.693,210.6719
21:04:39:050,-0.1747,-0.6901,16.4734,59.1648,-0.4397,0.2822,-0.9093,211.3438
21:04:39:070,-1.8099,-1.1618,16.5955,57.0342,-0.3755,0.5291,-0.9276,212.1562
21:04:39:094,-2.6108,-1.6646,15.809,57.8581,-0.1457,0.691,-0.6693,213.2031
21:04:39:112,-2.2229,-1.7304,13.5094,58.9406,0.2693,0.7746,-0.1955,214.2812
21:04:39:131,-0.9707,-1.4802,10.4891,57.9825,0.6831,0.6769,0.2769,215
21:04:39:154,0.297,-1.1283,8.4852,58.0991,0.8655,0.2737,0.56,215.2344
21:04:39:169,1.4103,-1.0337,8.654,58.6582,0.7558,-0.3756,0.6199,215.125
21:04:39:191,1.5851,-0.9343,10.2377,58.3659,0.4988,-0.8582,0.4934,214.6094
21:04:39:215,1.1793,-1.1558,10.9297,56.968,0.33,-0.8212,0.2995,213.9531
21:04:39:230,0.2994,-1.2635,10.1192,58.3088,0.3108,-0.4427,0.1371,213.3125
21:04:39:251,-0.1914,-1.1115,8.1308,57.1698,0.367,0.0079,0.1267,212.875
21:04:39:272,-0.4201,-0.7632,6.1879,58.3975,0.3838,0.2998,0.2247,212.6719
21:04:39:296,-0.3937,-0.5022,4.9968,56.8464,0.3569,0.3016,0.3674,212.5312
21:04:39:313,-0.274,-0.1598,4.5335,57.4742,0.3419,0.0521,0.5041,212.3281
21:04:39:330,0.1905,0.1658,4.7275,56.1017,0.3337,-0.2797,0.6261,211.75
21:04:39:351,0.7375,0.4256,5.2805,57.0272,0.3284,-0.5445,0.6852,211.1562
21:04:39:372,1.1673,0.5154,5.9509,55.4787,0.3228,-0.7128,0.6474,210.4531
21:04:39:395,1.1338,0.349,6.9421,57.595,0.265,-0.7807,0.5334,209.7344
21:04:39:411,0.7974,0.2101,8.5091,56.5905,0.1316,-0.7122,0.4263,209.0312
21:04:39:430,0.7483,0.4375,10.0067,56.6519,-0.0157,-0.4632,0.3741,208.4531
21:04:39:451,1.0991,0.6662,10.7884,56.5516,-0.049,-0.1807,0.2796,208
21:04:39:471,1.4965,0.6542,10.3958,55.528,0.0581,0.0454,0.074,207.625
21:04:39:494,1.4809,0.5597,9.5769,55.5473,0.1286,0.1618,-0.191,207.3281
21:04:39:512,1.1793,0.3849,9.6655,55.9516,0.013,0.1597,-0.4525,207.2344
21:04:39:531,0.8393,-0.0317,10.8949,56.9989,-0.3987,0.3064,-0.7527,207.4219
21:04:39:552,0.4538,-0.5381,11.9508,58.6027,-0.4211,0.5922,-0.6983,207.4219
21:04:39:571,0.6322,-0.7284,11.697,57.5463,-0.3715,0.7232,-0.5623,207.9375
21:04:39:596,1.2152,-0.5285,10.5286,57.7201,-0.4,0.5477,-0.48,208.6875
21:04:39:614,1.9227,-0.0904,9.869,57.0547,-0.5997,0.1219,-0.5391,209.9062
21:04:39:634,2.3788,-0.1993,11.0697,57.183,-0.8653,-0.3554,-0.693,210.9062
21:04:39:650,1.8688,-1.0098,14.4168,58.1118,-0.898,-0.4036,-0.7119,211.4375
21:04:39:670,0.9207,-1.8274,17.1653,58.1219,-0.5281,0.0566,-0.4789,212.0312
21:04:39:697,1.433,-2.1626,16.2041,57.0973,0.0019,0.3677,-0.1186,212.8594
21:04:39:713,3.3209,-1.631,13.1215,56.946,0.3396,0.2196,0.066,213.7188
21:04:39:729,4.6916,-0.5261,10.5466,56.9569,0.4458,-0.0659,-0.0954,214.2656
21:04:39:749,4.7239,0.3118,9.0466,56.1856,0.436,-0.165,-0.4635,214.3906
21:04:39:770,3.8476,0.4866,7.7705,56.9133,0.347,-0.0081,-0.787,214.2969
21:04:39:795,2.8564,0.519,6.5291,57.4205,0.2365,0.2353,-0.9865,214.3906
21:04:39:812,2.18,0.5872,5.3548,57.9809,0.1465,0.3709,-1.101,214.9062
21:04:39:830,1.5767,0.7488,4.3193,56.5428,0.074,0.2819,-1.1319,215.8125
21:04:39:850,1.0739,1.0217,4.0858,56.4408,0.0517,0.0468,-1.0896,216.9219
21:04:39:873,0.9039,1.3557,4.4222,56.5871,0.0791,-0.1977,-1.0552,218.1094
21:04:39:897,1.05,1.5856,4.8963,57.1629,0.0573,-0.3428,-1.085,219.3906
21:04:39:971,0.9434,1.8609,5.7761,56.1861,-0.0069,-0.3367,-1.1466,221.2344
21:04:39:972,0.7974,1.9363,6.9134,58.6087,-0.0314,-0.308,-1.2249,222.4062
21:04:39:972,0.4562,1.8226,7.7956,56.107,-0.0682,-0.2952,-1.2928,223.7031
21:04:39:972,0.0911,1.6754,8.8108,57.1535,-0.1957,-0.2142,-1.3311,225.0781
21:04:39:991,-0.4931,1.3126,10.6268,58.1451,-0.3473,0.1118,-1.3117,226.4531
21:04:40:015,-1.294,0.75,12.4476,57.6484,-0.4099,0.6747,-1.1828,227.9844
21:04:40:030,-1.8614,0.6698,12.8498,57.9991,-0.3899,1.0058,-0.9964,229.5156
21:04:40:050,-1.9356,0.677,12.5481,59.2071,-0.3489,0.8708,-0.8222,230.8906
21:04:40:071,-1.944,0.3142,12.5769,58.9082,-0.2988,0.5842,-0.6009,232.1094
21:04:40:098,-1.5465,-0.2292,12.6367,59.639,-0.2445,0.3256,-0.3412,233.1094
21:04:40:113,-1.0031,-0.2508,12.6894,58.0249,-0.2405,0.0135,-0.1039,233.9062
21:04:40:129,-0.4189,0.021,13.9559,58.6265,-0.1928,-0.3056,0.0385,234.4062
21:04:40:151,-0.3542,0.0449,15.8773,57.6623,0.0152,-0.3748,0.1334,234.5625
21:04:40:171,-0.4332,-0.3896,16.9319,57.7507,0.3864,-0.0078,0.2929,234.6719
21:04:40:197,0.0336,-0.7236,15.3888,58.2117,0.7779,0.4724,0.4423,234.6406
21:04:40:212,0.8201,-0.5596,11.7808,56.2423,0.9305,0.5192,0.4854,234.3594
21:04:40:230,2.0364,-0.1838,8.7605,56.8229,0.7601,0.0436,0.4146,233.9219
21:04:40:255,2.1776,-0.3777,10.3622,57.3088,0.5012,-0.4334,0.2766,233.375
21:04:40:279,1.7587,-0.6925,10.683,56.6003,0.4229,-0.4699,0.0881,232.875
21:04:40:296,0.807,-0.7069,9.4991,56.0314,0.4756,-0.2057,-0.0605,232.5
21:04:40:311,0.1809,-0.6219,7.98,54.4467,0.4828,0.0601,-0.0845,232.3281
21:04:40:329,-0.2249,-0.4591,6.7589,54.3427,0.4211,0.2028,-0.0171,232.3594
21:04:40:349,-0.3686,-0.2197,5.9641,56.3753,0.3643,0.1746,0.1147,232.4531
21:04:40:369,-0.0813,0.0832,5.3931,55.3043,0.3483,0.0303,0.2729,232.5156
21:04:40:389,0.3533,0.5405,5.2147,54.8608,0.3313,-0.1495,0.4061,232.4531
21:04:40:412,0.9362,0.8673,5.3476,54.7079,0.3047,-0.3069,0.4737,232.2344
21:04:40:432,1.3313,1.1067,5.6588,54.83,0.2868,-0.4182,0.4409,231.8438
21:04:40:449,1.5133,1.4108,5.8815,53.9319,0.2623,-0.431,0.3384,231.3594
21:04:40:468,1.5755,1.6119,6.0754,54.6129,0.2109,-0.4033,0.1789,230.875
21:04:40:490,1.4342,1.7292,6.6069,52.6818,0.1164,-0.4201,-0.0248,230.3125
21:04:40:511,1.2858,1.7891,7.7202,54.492,-0.0149,-0.4401,-0.2198,230.1562
21:04:40:530,1.293,1.7723,8.7198,53.5646,-0.1156,-0.3935,-0.3841,230.2344
21:04:40:552,1.3169,1.6777,9.4045,54.4151,-0.1686,-0.3415,-0.5479,230.5156
21:04:40:578,1.378,1.3426,10.4281,52.0546,-0.2344,-0.3567,-0.7135,231
21:04:40:596,1.05,0.6399,12.1327,52.4959,-0.3382,-0.399,-0.8629,231.6406
21:04:40:613,0.0408,-0.2137,14.3019,54.3427,-0.4301,-0.2813,-0.9127,232.5
21:04:40:632,-0.2525,-0.6159,15.3493,53.6451,-0.4253,0.1392,-0.7055,233
21:04:40:650,1.6162,-0.665,14.4036,53.0619,-0.2282,0.4303,-0.3175,234.0781
21:04:40:670,3.2131,-0.2304,12.6619,52.9348,0.0258,0.3267,-0.1223,235.0312
21:04:40:689,3.6046,-0.0712,11.9807,53.3085,0.1068,-0.1351,-0.2091,235.5938
21:04:40:711,2.5224,-0.677,13.2125,51.9484,-0.0346,-0.5796,-0.424,235.7656
21:04:40:732,1.7215,-1.418,14.157,52.426,-0.1356,-0.5548,-0.4672,235.9062
21:04:40:751,2.453,-1.4156,12.4069,51.7483,0.0229,-0.056,-0.2637,236.2969
21:04:40:770,4.1696,-0.9655,9.5314,51.9643,0.2328,0.2644,-0.073,237.1875
21:04:40:795,5.4433,-0.2173,8.0782,52.2665,0.2658,-0.0576,-0.1002,237.4688
21:04:40:812,5.6756,0.5776,8.5043,52.9489,0.1284,-0.6694,-0.3703,237.5312
21:04:40:829,4.7897,0.6901,9.2705,52.9489,-0.0381,-0.9479,-0.8488,237.6406
21:04:40:850,3.4466,0.2735,8.8228,54.1146,-0.1169,-0.6683,-1.3277,238.0938
21:04:40:871,2.2686,0.1706,7.3802,51.3875,-0.138,-0.1338,-1.6235,239.1562
21:04:40:895,1.4271,0.2233,5.9844,51.8915,-0.1944,0.3091,-1.7559,240.7344
21:04:40:913,0.892,0.3011,5.4577,51.3234,-0.2415,0.3869,-1.7793,242.625
21:04:40:929,0.5209,0.3394,5.5654,51.8181,-0.2181,0.2119,-1.7452,244.5156
21:04:40:950,0.3988,0.4735,5.6564,49.4137,-0.0764,-0.096,-1.6249,246.5312
21:04:40:970,0.449,0.8709,5.7558,49.9214,-0.0996,-0.1354,-1.6001,246.5312
21:04:40:994,0.6418,1.345,6.097,50.27,-0.1875,-0.1471,-1.639,248.5156
21:04:41:012,0.7579,1.6598,7.0091,50.224,-0.2756,-0.1125,-1.7247,252.2188
21:04:41:031,0.704,1.9016,8.2158,51.2547,-0.33,0.0215,-1.8507,254.0625
21:04:41:050,0.3616,2.1602,9.383,49.1302,-0.3904,0.2468,-2.003,255.8594
21:04:41:069,-0.1316,1.9914,10.5478,50.2447,-0.4783,0.6761,-2.1333,258.8906
21:04:41:090,-1.1886,1.5042,11.1284,49.3416,-0.5987,1.2487,-2.1335,259.9844
21:04:41:113,-2.6036,1.0086,11.4085,50.6785,-0.665,1.7014,-1.8914,262.2656
21:04:41:130,-3.3709,0.6842,11.5102,50.977,-0.6266,1.7933,-1.5178,264.5469
21:04:41:149,-3.6702,0.5034,11.3247,51.5902,-0.5587,1.5293,-1.1008,266.8906
21:04:41:171,-3.6918,0.2245,11.6587,52.1905,-0.5017,1.1538,-0.6504,268.9375
21:04:41:195,-3.1638,0.0425,12.4583,51.3639,-0.4133,0.8273,-0.2272,270.4844
21:04:41:212,-2.3079,0.2616,13.1706,51.9139,-0.2895,0.5501,0.087,271.6406
21:04:41:229,-1.4268,0.6578,13.5657,50.2012,-0.1316,0.258,0.2167,272.2969
21:04:41:249,-1.3586,0.677,14.1965,51.3478,0.1103,0.0215,0.2905,272.5
21:04:41:270,-1.3299,0.2915,14.3965,49.6979,0.4306,0.0806,0.3952,272.3594
21:04:41:290,-0.7756,0.0329,12.8917,50.7958,0.6432,0.1301,0.4431,272.0781
21:04:41:312,-0.0155,0.1143,11.0027,49.5261,0.6061,-0.1261,0.393,271.7656
21:04:41:329,0.7651,0.2101,10.7776,49.6093,0.4567,-0.5317,0.217,271.375
21:04:41:349,1.0703,-0.0138,11.8179,50.2898,0.395,-0.6582,-0.0307,270.7344
21:04:41:370,0.4981,-0.3011,12.2764,49.3584,0.4751,-0.4305,-0.1825,270.4375
21:04:41:395,-0.1783,-0.6303,11.2445,47.2938,0.6035,-0.0584,-0.187,270.4062
21:04:41:413,-0.7433,-0.6997,9.0239,47.9598,0.6488,0.2236,-0.0571,270.625
21:04:41:429,-0.8127,-0.5201,6.9601,48.9678,0.6309,0.3123,0.1387,270.9219
21:04:41:449,-0.5482,-0.1682,5.4709,46.8453,0.6107,0.1996,0.3049,271.125
21:04:41:469,-0.1124,0.2053,4.3767,48.1296,0.5747,-0.0504,0.4109,271.1094
21:04:41:490,0.3066,0.7296,3.8332,49.302,0.4951,-0.3468,0.4306,270.8906
21:04:41:513,0.6789,1.236,3.8536,46.5048,0.3702,-0.6033,0.3512,270.5312
21:04:41:530,0.777,1.6825,4.6173,45.1859,0.2381,-0.8156,0.2117,270.1094
21:04:41:549,0.6753,1.7975,6.0191,46.1613,0.1723,-0.8539,0.0836,269.75
21:04:41:570,0.6178,1.722,7.2282,45.0642,0.1729,-0.762,-0.0355,269.5312
21:04:41:590,0.3245,1.5365,8.2493,46.3436,0.18,-0.4702,-0.084,269.4844
21:04:41:612,-0.1316,1.4443,8.782,44.904,0.1542,-0.1008,-0.0445,269.5625
21:04:41:633,-0.0861,1.8274,8.8347,43.7447,0.0735,0.1147,-0.0765,269.7344
21:04:41:654,0.6837,2.402,9.2465,45.0146,-0.036,0.0204,-0.2912,269.7969
21:04:41:669,0.4981,1.6765,11.0278,44.1365,-0.1822,-0.3687,-0.6169,269.8906
21:04:41:689,0.0731,0.5405,13.5836,44.3304,-0.3254,-0.6861,-0.8571,270.0625
21:04:41:719,0.4993,-0.6087,14.7089,44.0342,-0.3345,-0.554,-0.8739,270.5938
21:04:41:731,1.5707,-0.6434,13.5513,44.0715,-0.2184,-0.1207,-0.7343,271.4688
21:04:41:747,2.2579,0.2041,11.9723,44.7944,-0.1558,0.0816,-0.6624,272.5625
21:04:41:769,2.0699,0.1622,12.5038,44.7971,-0.2405,-0.2989,-0.8302,273.5156
21:04:41:792,1.1386,-0.8074,14.3917,44.4153,-0.3723,-0.769,-1.1157,274.2344
21:04:41:811,0.2336,-1.7148,14.6897,44.6402,-0.3952,-0.5746,-1.2147,275.0469
21:04:41:829,-0.0095,-1.9626,12.7792,45.4467,-0.2551,0.0098,-1.044,276.2188
21:04:41:857,0.5137,-1.2923,10.2365,45.4102,-0.0948,0.3637,-0.6992,278.9219
21:04:41:880,1.3385,-0.428,9.2812,45.0213,-0.0642,-0.4385,-0.3457,279.9062
21:04:41:895,1.8197,0.3274,9.6667,43.2585,0.0202,-0.6145,-0.432,280.5
21:04:41:929,1.7359,0.6674,9.3291,45.0826,0.1238,-0.3711,-0.5817,280.8906
21:04:41:936,1.2666,0.7931,7.7849,45.9235,0.1441,-0.0086,-0.677,281.6562
21:04:41:963,0.7758,0.8948,5.9581,43.6456,0.0756,0.2223,-0.693,282.3594
21:04:41:978,0.5532,1.0301,4.6592,45.0298,-0.0035,0.2566,-0.6965,283.1094
21:04:42:031,0.5233,1.2767,3.9099,44.5433,-0.0748,0.1112,-0.725,283.875
21:04:42:031,0.546,1.6981,3.8775,43.1209,-0.1478,-0.1476,-0.7878,284.6562
21:04:42:034,0.2503,2.0153,4.6892,44.1043,-0.187,-0.3468,-0.8653,285.4375
21:04:42:053,-0.207,1.9938,5.7282,45.5455,-0.2192,-0.3881,-0.8781,286.3438
21:04:42:079,-0.7876,1.9794,6.7159,46.4282,-0.2802,-0.3045,-0.795,287.3594
21:04:42:093,-1.1144,2.1051,7.9548,43.2481,-0.3398,-0.1833,-0.688,288.3281
21:04:42:119,-1.0521,2.2296,9.2118,44.9368,-0.3486,-0.048,-0.6296,289.25
21:04:42:131,-1.0198,2.4427,10.1515,45.2335,-0.3446,0.0295,-0.643,289.6719
21:04:42:155,-1.185,2.4798,11.1248,44.9869,-0.3374,0.0766,-0.684,290.4062
21:04:42:178,-1.4831,1.9459,12.2261,45.4125,-0.3132,0.1488,-0.6736,291.0781
21:04:42:193,-1.8087,1.1534,13.1826,45.6813,-0.2711,0.2806,-0.5327,291.8281
21:04:42:214,-1.6471,0.4423,13.7297,46.4316,-0.2218,0.3325,-0.3178,292.6094
21:04:42:250,-0.0609,-0.0712,14.8466,46.3332,-0.1995,0.1922,-0.1151,293.5312
21:04:42:265,0.5496,-0.1191,15.8378,46.1279,-0.2029,-0.0182,-0.0161,293.875
21:04:42:281,0.5065,-0.3166,17.0995,46.4767,-0.2205,-0.0965,-0.0294,294
21:04:42:299,0.3497,-0.9475,17.394,49.1343,-0.1209,0.1086,-0.0376,294
21:04:42:328,0.0791,-1.4431,15.2763,46.6447,0.1982,0.508,0.0196,294.0312
21:04:42:347,-0.0645,-1.4622,11.8287,48.5028,0.5252,0.8952,0.1528,294.0625
21:04:42:363,0.206,-1.3665,9.2765,47.9525,0.6229,0.9277,0.3248,294.0625
21:04:42:377,0.3425,-1.1307,8.2661,48.5895,0.5009,0.6721,0.4444,294.0312
21:04:42:397,0.3329,-0.9487,8.3738,48.7195,0.3007,0.3759,0.5286,293.8594
21:04:42:417,0.0636,-0.7596,8.3236,49.2149,0.2445,0.1355,0.5997,293.4844
21:04:42:437,-0.2429,-0.5201,7.64,51.4214,0.3428,-0.0707,0.6625,292.9688
21:04:42:462,-0.2908,-0.2328,6.8308,51.2167,0.4242,-0.2196,0.7509,292.4062
21:04:42:476,-0.2082,0.1071,6.401,49.1131,0.4013,-0.2917,0.8277,291.7188
21:04:42:498,-0.0861,0.3897,6.3436,50.7614,0.315,-0.3098,0.8588,291
21:04:42:519,0.0061,0.5884,6.4549,52.1913,0.2485,-0.3069,0.8481,290.1875
21:04:42:535,0.2204,0.8398,6.5938,51.0937,0.2413,-0.2957,0.8407,287.9219
21:04:42:564,0.8082,1.3066,6.5806,52.76,0.2629,-0.2377,0.8244,287.9219
21:04:42:580,1.3085,2.0692,6.5626,52.8712,0.1758,-0.0393,0.6838,287.0469
21:04:42:594,1.4594,2.7815,6.7901,52.6796,-0.1209,0.4449,0.3898,285.6875
21:04:42:630,0.9183,3.1729,7.1444,53.1924,-0.4946,1.0961,-0.0152,285.6875
21:04:42:640,-0.2118,3.0137,7.6664,53.8116,-0.7302,1.5171,-0.4432,284.9062
21:04:42:653,-1.2592,2.3529,8.3295,53.2057,-0.7287,1.5373,-0.7402,284.4375
21:04:42:674,-2.0314,1.4216,8.8467,54.9414,-0.47,1.1432,-0.8326,284.3125
21:04:42:697,-2.3091,0.5094,9.5195,53.753,-0.0759,0.4218,-0.7644,284.6406
21:04:42:716,-2.0625,-0.5788,10.8207,56.5618,0.2386,-0.3687,-0.6001,285.2969
21:04:42:732,-1.5453,-1.4203,12.0813,54.6427,0.3902,-0.7892,-0.3908,286.0781
21:04:42:752,-0.8893,-1.7879,12.6786,56.4963,0.3497,-0.6763,-0.1729,286.9062
21:04:42:779,0.2407,-1.886,12.1627,57.6072,0.2061,-0.2504,0.0468,287.6406
21:04:42:791,0.9901,-1.7603,11.1834,56.3781,0.0264,0.0838,0.1395,288.4531
21:04:42:813,1.3385,-1.7184,10.8027,56.9385,-0.1872,0.1022,0.0929,288.4375
21:04:42:831,0.9219,-1.5245,11.4025,56.6944,-0.376,-0.162,-0.0312,288.3594
21:04:42:850,0.1222,-1.6837,12.4967,57.575,-0.4471,-0.4286,-0.1692,288.2031
21:04:42:877,-0.0214,-1.7675,12.3662,57.319,-0.3324,-0.4036,-0.1924,288.1406
21:04:42:890,0.6454,-1.1833,10.5837,58.3513,-0.1121,-0.1921,-0.1074,288.2344
21:04:42:911,1.6066,-0.4962,8.9724,58.3513,0.0282,-0.2057,-0.1223,288.4531
21:04:42:928,1.5875,-0.0222,8.63,57.042,-0.0282,-0.4944,-0.391,288.625
21:04:42:948,0.7722,-0.313,8.9317,58.0207,-0.2131,-0.6643,-0.7732,288.7188
21:04:42:969,-0.1555,-0.6003,9.0275,58.3296,-0.359,-0.5245,-1.0358,289
21:04:42:988,-0.8977,-0.5417,8.1631,56.6908,-0.3611,-0.1594,-1.1074,289.6719
21:04:43:013,-1.0198,-0.313,6.8248,57.3608,-0.3076,0.1722,-1.0464,290.75
21:04:43:029,-1.1144,0.0485,5.9306,57.2295,-0.3076,0.3083,-0.9601,292
21:04:43:048,-1.1814,0.2879,5.9545,56.5158,-0.3566,0.2492,-0.8741,293.1562
21:04:43:069,-1.2389,0.4866,6.5267,57.4733,-0.3547,0.0912,-0.7916,294.2656
21:04:43:089,-1.3359,0.7452,7.2019,57.1681,-0.286,-0.0382,-0.7069,295.2812
21:04:43:114,-1.1994,0.92,7.8304,57.992,-0.1883,-0.0808,-0.6166,296.1562
21:04:43:130,-1.1946,1.0804,8.2853,58.7221,-0.0674,-0.1253,-0.5601,296.9844
21:04:43:147,-1.2161,1.1175,8.6109,60.0362,0.0237,-0.1586,-0.5423,297.7188
21:04:43:171,-1.2916,1.1738,9.116,59.773,0.0152,-0.1415,-0.5327,298.375
21:04:43:187,-1.5681,1.2061,10.1228,60.0102,-0.0991,-0.0411,-0.5303,298.9844
21:04:43:209,-1.9751,1.0253,11.3331,59.8216,-0.2301,0.1456,-0.5394,299.5938
21:04:43:232,-2.3606,0.7189,12.0406,58.6992,-0.282,0.4127,-0.5058,300.2031
21:04:43:247,-2.9124,0.6913,12.3746,59.3675,-0.2946,0.634,-0.4294,300.7656
21:04:43:271,-3.2165,0.4854,13.2484,60.9022,-0.3329,0.7102,-0.3021,301.3594
21:04:43:287,-3.1207,0.2005,14.3414,61.2782,-0.2953,0.6947,-0.1055,301.875
21:04:43:309,-2.6084,0.173,13.8458,61.1966,-0.0421,0.6745,0.1424,302.25
21:04:43:330,-2.3701,0.6387,12.7492,62.1682,0.2437,0.5349,0.3283,302.4688
21:04:43:349,-1.8183,0.8206,12.3063,62.627,0.335,0.3118,0.4335,302.4219
21:04:43:372,-1.8494,0.4304,12.7708,61.5854,0.2786,0.0659,0.3834,302.1562
21:04:43:388,-2.8861,-0.6039,14.0708,63.8217,0.1997,-0.1575,0.2436,301.7656
21:04:43:408,-3.6929,-1.6107,14.3366,62.5037,0.2525,-0.0419,0.3057,301.125
21:04:43:430,-3.6953,-1.9231,12.2776,64.1976,0.5095,0.349,0.6154,300.875
21:04:43:450,-2.5078,-1.6382,9.7409,62.5354,0.7611,0.4612,1.0343,300.5781
21:04:43:468,-1.4951,-0.9966,8.7533,64.3464,0.8266,0.0702,1.2969,299.9219
21:04:43:488,-1.0581,-0.75,9.4069,62.3969,0.779,-0.5349,1.3201,298.8281
21:04:43:511,-1.0976,-0.9463,10.3443,64,0.7497,-0.8635,1.2277,297.5156
21:04:43:528,-1.2126,-1.1055,9.9923,62.6349,0.8229,-0.7301,1.1781,296.1406
21:04:43:549,-0.8881,-0.9224,8.4624,61.8719,0.9508,-0.3897,1.2239,294.875
21:04:43:569,-0.3279,-0.5453,6.6081,62.7069,1.0059,-0.0422,1.2775,293.7188
21:04:43:589,0.2982,-0.1059,5.186,63.1922,0.9505,0.1786,1.2748,292.4375
21:04:43:614,0.6621,0.2197,4.3109,62.3107,0.8125,0.2737,1.1944,291.7656
21:04:43:633,0.8285,0.5034,3.8811,62.5475,0.6389,0.2745,1.0724,290.375
21:04:43:650,0.8932,0.7177,3.8799,62.8195,0.4594,0.157,0.9265,289.0781
21:04:43:668,0.8572,0.756,4.494,62.9361,0.2639,-0.0395,0.7443,287.8125
21:04:43:689,0.5867,0.5956,5.6026,64.1379,0.0418,-0.214,0.5568,286.6719
21:04:43:714,0.3126,0.5704,6.8356,63.3286,-0.1606,-0.2531,0.429,285.3906
21:04:43:730,0.394,0.8074,8.0375,61.8901,-0.2693,-0.1935,0.3669,284.7969
21:04:43:748,0.7339,0.7787,8.5343,62.3812,-0.09,-0.2102,0.1374,284.3281
21:04:43:768,1.0069,0.7464,8.0315,62.6503,-0.0924,-0.3655,-0.0307,284.3281
21:04:43:789,0.9422,0.647,7.8304,63.6911,-0.2967,-0.574,-0.2062,283.9219
21:04:43:815,0.8141,0.3238,8.6959,63.3544,-0.5987,-0.6893,-0.3548,283.5
21:04:43:832,0.5855,-0.1263,10.4269,62.05,-0.8503,-0.606,-0.4131,283.5781
21:04:43:849,0.8225,-0.6099,12.0801,64.0831,-0.9638,-0.3714,-0.3916,283.8594
21:04:43:867,1.5288,-0.6446,12.6164,63.9543,-0.9643,-0.1791,-0.4477,284.3281
21:04:43:888,1.846,-0.1191,12.1351,63.4348,-0.9713,-0.3285,-0.6824,284.8281
21:04:43:914,1.3648,-0.0772,12.2704,62.6889,-1.048,-0.6102,-1.002,285.25
21:04:43:931,0.1893,-0.817,13.6698,64.3668,-1.1105,-0.5231,-1.1657,286.5
21:04:43:948,-1.0569,-1.722,14.9842,62.8088,-1.0362,-0.067,-1.0675,287.0469
21:04:43:968,-1.5585,-2.1087,15.0046,61.1217,-0.8378,0.4175,-0.8046,288.25
21:04:43:988,-1.0294,-1.6646,13.5094,63.4732,-0.7121,0.7389,-0.5998,289.5625
21:04:44:013,-0.2046,-0.8829,11.8921,61.5663,-0.6802,0.8961,-0.5503,290.5938
21:04:44:033,0.0803,-0.3322,10.9165,61.899,-0.5278,0.9102,-0.5753,291.3281
21:04:44:101,-0.1268,-0.0186,9.711,62.7264,-0.2557,0.8172,-0.5673,291.5938
21:04:44:102,-0.4177,0.2903,8.1548,62.6773,0.0011,0.6803,-0.4981,292.1719
21:04:44:102,-0.4225,0.5573,6.577,62.9287,0.172,0.5264,-0.4267,292.7656
21:04:44:115,-0.1854,0.8745,5.3524,62.9758,0.2325,0.3858,-0.4006,293.3594
21:04:44:127,0.1521,1.1702,4.5766,61.4692,0.1854,0.2628,-0.4531,293.9219
21:04:44:147,0.2,1.4898,4.3743,60.095,0.0682,0.1522,-0.5639,294.4219
21:04:44:171,0.0217,1.6155,4.767,63.7045,-0.0493,-0.0121,-0.6808,294.8906
21:04:44:186,-0.4835,1.6382,5.8252,61.8476,-0.1121,-0.1881,-0.7431,295.4062
21:04:44:209,-0.8941,1.5137,7.4736,60.4154,-0.0724,-0.3508,-0.7388,297.25
21:04:44:233,-1.1359,1.2803,8.9652,60.4154,0.0179,-0.4688,-0.7213,297.25
21:04:44:255,-1.2784,1.2648,10.1025,60.9699,0.0136,-0.4992,-0.7402,298.0469
21:04:44:267,-1.4316,1.23,11.1164,60.9969,-0.1965,-0.5232,-0.8502,298.8906
21:04:44:290,-2.5258,0.7727,13.3717,58.8467,-0.4171,-0.4307,-0.8493,299.7188
21:04:44:314,-3.9575,0.0401,16.3418,60.5622,-0.2626,-0.166,-0.5703,300.5781
21:04:44:331,-4.2077,-0.6135,18.0033,58.7889,0.2818,0.1549,-0.1212,301.5625
21:04:44:355,-3.2392,-0.7548,16.9223,59.3092,0.8282,0.5051,0.3025,302.375
21:04:44:367,-1.8219,-0.2185,13.6674,59.0736,0.9718,0.6718,0.5075,302.7656
21:04:44:388,-0.8031,0.6063,11.1272,60.0084,0.7233,0.6108,0.4964,302.6875
21:04:44:414,-0.1304,1.0265,10.2736,59.8851,0.3143,0.4103,0.3328,302.2656
21:04:44:430,-0.3123,0.7512,11.3738,59.7116,0.0812,0.2284,0.2223,301.7188
21:04:44:453,-1.6447,-0.6243,13.0018,59.3703,0.2972,0.2122,0.2857,301.2969
21:04:44:474,-1.4903,-1.0505,10.5442,58.6166,0.7782,0.275,0.4782,301.0156
21:04:44:487,-0.8223,-1.175,7.9261,58.9352,1.0384,0.1911,0.6801,300.75
21:04:44:508,-0.5194,-1.0289,6.9708,57.3009,0.8847,-0.1918,0.7832,300.5781
21:04:44:530,-0.8403,-0.6806,8.223,58.8903,0.4615,-0.6196,0.784,299.8125
21:04:44:548,-0.7349,-0.7332,9.9181,58.6078,0.1174,-0.7431,0.7946,299.0625
21:04:44:572,-0.8989,-0.6913,10.1408,59.0282,0.0831,-0.4917,0.8008,298.2656
21:04:44:586,-0.9827,-0.6039,8.6528,57.216,0.2732,-0.1242,0.8548,297.4844
21:04:44:607,-0.7361,-0.2616,6.8176,58.1156,0.4722,0.0729,0.9904,296.625
21:04:44:629,-0.201,0.1634,5.5559,58.1304,0.5603,0.054,1.1217,295.7344
21:04:44:647,0.2336,0.5489,4.8364,57.469,0.5494,-0.0771,1.1728,294.75
21:04:44:673,0.5304,0.89,4.6365,55.9338,0.4724,-0.2246,1.1486,293.5781
21:04:44:686,0.6609,1.3066,4.9286,57.6062,0.3553,-0.3506,1.0828,292.2812
21:04:44:707,0.8908,1.6777,5.5523,56.3628,0.2434,-0.4467,0.9888,291.0781
21:04:44:729,1.1589,2.0177,6.5016,57.8671,0.1686,-0.5588,0.841,289.8438
21:04:44:747,1.1182,2.147,7.7035,56.6368,0.1276,-0.6411,0.6215,288.7188
21:04:44:773,0.6334,1.983,8.7354,55.8552,0.1164,-0.6039,0.3576,287.7344
21:04:44:786,0.2766,1.7208,9.1579,57.4304,0.0868,-0.3804,0.1352,286.7344
21:04:44:808,0.279,1.4455,9.3806,56.6497,-0.0013,-0.1261,-0.0222,286.4219
21:04:44:829,0.1378,1.0457,10.0881,56.251,-0.1643,-0.0299,-0.1894,286.3125
21:04:44:847,-0.1759,0.2999,11.5198,54.7959,-0.3478,-0.0672,-0.3324,286.3594
21:04:44:868,-0.2645,-0.7835,12.8989,56.9655,-0.4599,-0.08,-0.3673,286.5781
21:04:44:888,0.6705,-1.4012,13.1,55.26,-0.4474,0.0532,-0.2272,286.9531
21:04:44:912,2.6313,-1.2635,12.0106,53.623,-0.3848,0.1986,-0.0262,287.3594
21:04:44:930,3.5998,-0.7811,10.6376,55.2207,-0.3665,0.0849,-0.056,287.5938
21:04:44:948,2.6074,-0.9116,10.9584,57.1114,-0.4898,-0.3381,-0.4011,287.5938
21:04:44:968,0.8656,-1.9531,12.4476,55.4243,-0.7265,-0.5511,-0.7396,287.625
21:04:44:988,-0.2884,-2.639,12.7169,55.4243,-0.8754,-0.121,-0.7567,288.1094
21:04:45:016,-0.0466,-2.3876,11.126,54.4045,-0.8165,0.4604,-0.4701,288.5312
21:04:45:033,1.3588,-1.655,9.5925,52.8079,-0.6807,0.5179,-0.1327,289.4688
21:04:45:048,2.0807,-0.7632,9.0921,55.1616,-0.6429,0.1847,-0.0182,290.125
21:04:45:067,2.0843,-0.0916,9.6547,55.0029,-0.6687,-0.1879,-0.0749,290.3906
21:04:45:091,1.9334,0.3118,9.6847,54.5566,-0.5723,-0.3562,-0.1857,290.3906
21:04:45:120,1.8353,0.6111,8.7114,52.9197,-0.3689,-0.276,-0.3063,290.4688
21:04:45:133,1.6102,1.0217,7.488,52.9197,-0.2011,-0.1426,-0.4059,290.6719
21:04:45:148,1.2176,1.3102,6.8727,54.2383,-0.1569,-0.0422,-0.6403,291.0312
21:04:45:167,0.8896,1.424,6.6548,53.3815,-0.1787,0.0966,-0.7213,291.0312
21:04:45:188,0.6753,1.5724,6.3938,51.9363,-0.2195,0.2252,-0.8014,291.4688
21:04:45:214,0.3628,1.7616,6.3448,53.0762,-0.29,0.2433,-0.8725,292.0625
21:04:45:232,-0.0406,1.819,7.0331,50.127,-0.3092,0.1578,-0.9039,293.625
21:04:45:251,-0.5099,1.6179,8.2027,52.4676,-0.2434,0.0204,-0.8824,294.4844
21:04:45:267,-1.1958,1.3222,9.3339,49.875,-0.1491,-0.0217,-0.7551,295.4688
21:04:45:286,-1.5741,1.1797,10.2269,52.2485,-0.0708,0.0356,-0.55,296.4844
21:04:45:307,-1.4879,1.2671,10.8973,50.4595,-0.0056,0.1355,-0.394,297.4375
21:04:45:330,-1.2413,1.2851,11.2241,50.3599,0.0128,0.1906,-0.3127,298.2969
21:04:45:347,-1.1802,1.0828,11.5737,51.7564,-0.0242,0.1677,-0.2342,299.3594
21:04:45:366,-1.1072,0.6303,12.4057,49.3537,-0.0506,0.0833,-0.1226,299.7188
21:04:45:390,-0.7924,0.0545,13.5441,49.7245,-0.0109,0.0734,0.0162,299.8594
21:04:45:413,-0.1016,-0.1933,14.1295,48.5656,0.0583,0.1022,0.0857,300.0625
21:04:45:431,0.3138,-0.0162,14.0685,48.8195,0.0796,0.0729,0.0572,300.125
21:04:45:448,0.3952,0.0066,13.9344,49.5697,0.0823,-0.0837,-0.0057,300.0469
21:04:45:470,0.0001,-0.3382,14.1774,48.0301,0.1404,-0.2659,-0.0251,299.9531
21:04:45:487,-0.7684,-0.6231,14.5186,48.473,0.3017,-0.2012,0.0806,299.9375
21:04:45:507,-1.1024,-1.0145,13.8206,48.3064,0.5606,0.0707,0.2689,299.9531
21:04:45:531,-1.1,-1.0983,11.4923,47.8339,0.7055,0.2191,0.4953,299.9844
21:04:45:553,-0.6272,-0.8326,8.903,48.4361,0.5894,-0.0398,0.6873,299.9062
21:04:45:567,-0.2178,-0.3286,8.3164,46.6389,0.3984,-0.513,0.7826,299.6094
21:04:45:588,0.1198,-0.0437,9.6859,48.1481,0.396,-0.7644,0.7738,299.0938
21:04:45:608,0.2731,-0.1167,10.6124,47.6874,0.5846,-0.6315,0.7174,298.3281
21:04:45:631,0.0109,-0.1598,9.7733,47.8045,0.7273,-0.3152,0.702,297.4688
21:04:45:647,-0.3135,-0.1419,8.0638,48.9823,0.7228,-0.0661,0.7581,296.6719
21:04:45:666,-0.3518,-0.0652,6.8416,46.9792,0.682,0.0145,0.8447,295.5156
21:04:45:687,0.0241,-0.0497,6.1029,47.5068,0.6716,-0.0451,0.9038,294.7031
21:04:45:707,0.2994,0.1311,5.5092,46.8099,0.6557,-0.2092,0.9161,293.8438
21:04:45:731,0.5987,0.3322,5.2961,48.6443,0.6083,-0.398,0.8721,292.8438
21:04:45:749,0.8836,0.4483,5.569,48.9269,0.5268,-0.52,0.7637,291.7969
21:04:45:767,1.0631,0.4615,6.1568,47.1809,0.433,-0.5034,0.6346,290.8438
21:04:45:790,1.2631,0.4986,6.5842,47.0466,0.3249,-0.4374,0.4865,289.9531
21:04:45:814,1.3852,0.6614,7.0654,47.209,0.2077,-0.3365,0.3302,289.2031
21:04:45:830,1.5252,0.726,7.5718,46.7648,0.1031,-0.2086,0.1368,288.6406
21:04:45:848,1.2894,0.2436,7.9405,48.3608,-0.0216,-0.0867,-0.0821,288.2031
21:04:45:868,0.965,-0.2245,8.6564,47.9027,-0.2163,-0.0422,-0.2635,287.9688
21:04:45:887,0.7794,-0.8182,9.8247,46.327,-0.4474,-0.0121,-0.37,287.9375
21:04:45:909,0.631,-1.491,10.8734,47.1444,-0.6408,0.0793,-0.4286,288.1562
21:04:45:931,1.2152,-1.9914,11.0613,47.262,-0.7795,0.3064,-0.3694,288.5312
21:04:45:946,2.4314,-1.9782,10.8051,47.3947,-0.9308,0.4838,-0.24,289.0156
21:04:45:966,3.1413,-1.7101,11.1379,46.0326,-1.1305,0.4039,-0.2208,289.4688
21:04:45:986,2.3955,-1.8549,13.1359,47.8138,-1.3606,0.0612,-0.3671,289.7969
21:04:46:006,0.9099,-2.2751,15.3757,46.8243,-1.4599,-0.1213,-0.4728,290.0156
21:04:46:030,0.2252,-2.5085,15.9335,46.0926,-1.2698,0.1118,-0.3154,290.3438
21:04:46:047,1.36,-2.1542,14.0505,47.5659,-0.8242,0.45,0.0684,290.8438
21:04:46:066,3.0946,-1.1857,11.5593,47.5603,-0.4059,0.4702,0.3829,291.3594
21:04:46:087,4.1469,-0.2819,10.3874,48.1544,-0.2171,0.1006,0.4154,291.5156
21:04:46:151,3.8656,0.3597,10.4604,49.266,-0.1939,-0.2726,0.1717,291.25
21:04:46:151,2.8708,0.3813,9.9827,48.9857,-0.1835,-0.2164,-0.1998,290.7344
21:04:46:152,1.688,0.2879,8.3822,47.3366,-0.1222,0.1506,-0.4981,290.375
21:04:46:168,0.8345,0.3418,6.6129,47.5933,-0.0866,0.4849,-0.6454,290.375
21:04:46:187,0.2551,0.4184,5.3559,47.1462,-0.1092,0.597,-0.6789,291.125
21:04:46:207,-0.0813,0.6686,5.1022,47.4552,-0.1673,0.454,-0.6328,291.8438
21:04:46:231,-0.0119,1.0229,5.8312,46.6832,-0.1923,0.1815,-0.5324,292.5938
21:04:46:248,0.066,1.2635,6.5878,46.9207,-0.1212,-0.035,-0.4629,293.3125
21:04:46:271,-0.0466,1.5221,7.0115,49.0931,-0.0003,-0.1205,-0.4488,293.9219
21:04:46:285,-0.207,1.6191,7.2378,47.2872,0.0969,-0.1317,-0.4656,294.4375
21:04:46:306,-0.2034,1.5736,7.5347,47.9438,0.1233,-0.104,-0.4768,294.9375
21:04:46:330,0.0659,1.6526,7.9932,48.3844,0.0756,-0.0291,-0.4595,295.4688
21:04:46:350,0.6693,1.7879,8.8012,47.9558,-0.0477,0.0625,-0.4539,296.0156
21:04:46:367,1.0667,1.7963,9.7553,48.1883,-0.2091,0.1906,-0.57,296.5156
21:04:46:386,0.5328,1.0301,11.1595,49.9186,-0.3686,0.2465,-0.8246,297.0312
21:04:46:408,-0.8474,-0.2939,12.9935,47.361,-0.4812,0.2012,-1.0267,297.3281
21:04:46:431,-1.7046,-1.5006,14.4611,49.2502,-0.4509,0.1882,-0.9351,298.1094
21:04:46:447,-1.7082,-2.1829,14.898,50.4154,-0.2527,0.1994,-0.5873,299.1406
21:04:46:466,-1.1946,-2.0776,14.2348,48.5966,-0.0197,0.2462,-0.1865,300.2969
21:04:46:487,-0.8331,-1.8058,13.7811,47.4934,0.0285,0.2873,0.0908,301.2031
21:04:46:508,-0.7122,-1.7508,13.8506,48.5446,-0.074,0.3136,0.2482,301.6719
21:04:46:532,-1.3562,-1.7615,14.7675,48.9739,-0.1593,0.2359,0.3515,301.5781
21:04:46:553,-1.8722,-2.0704,15.5876,48.5345,0.371,0.1339,0.8061,301.2969
21:04:46:568,-1.434,-2.4702,13.9751,49.8534,0.7973,0.1586,1.0506,300.9219
21:04:46:586,-0.4584,-2.4355,11.0446,49.3634,0.8663,-0.1293,1.1672,300.3281
21:04:46:606,-0.0154,-1.6694,9.5326,49.4247,0.6139,-0.5319,1.152,299.4219
21:04:46:632,0.1928,-1.0481,10.5155,51.1046,0.4067,-0.6584,1.0479,298.3125
21:04:46:647,0.0684,-1.2396,11.958,50.7815,0.5206,-0.4225,0.9829,297
21:04:46:666,-0.5745,-1.388,11.5366,52.6475,0.8155,-0.1213,1.0798,295.7031
21:04:46:686,-0.7038,-1.3641,9.5913,52.6407,1.052,0.0817,1.2705,294.5312
21:04:46:705,-0.3315,-1.1474,7.3743,52.2195,1.1558,0.1711,1.4309,293.4688
21:04:46:731,0.2922,-0.8984,5.5535,53.2128,1.1465,0.0971,1.5028,292.25
21:04:46:748,0.7579,-0.6698,4.3923,52.2029,1.0559,-0.137,1.4996,290.8125
21:04:46:765,0.9746,-0.3118,4.2474,53.122,0.9923,-0.3948,1.4657,289.2656
21:04:46:786,1.2212,-0.07,4.7789,50.5089,1.0679,-0.549,1.3893,286.7031
21:04:46:806,1.4474,0.0305,4.5922,53.152,1.1185,-0.6459,1.249,285.0469
21:04:46:831,1.5803,0.1586,3.9518,53.5847,0.943,-0.6015,1.0769,283.5312
21:04:46:848,1.6018,0.3035,3.6333,53.0376,0.5356,-0.4928,0.9166,282.0625
21:04:46:866,1.5168,0.5968,4.3085,54.8973,0.0434,-0.3631,0.8071,280.7969
21:04:46:887,1.8077,1.06,5.9569,53.9007,-0.3137,-0.256,0.6721,279.7656
21:04:46:906,2.3728,1.3521,7.6999,51.6447,-0.4839,-0.1663,0.4489,279.2812
21:04:46:931,2.8097,1.4683,8.8263,52.8349,-0.5691,-0.1927,0.164,278.4062
21:04:46:949,3.2945,1.3713,9.6679,54.1368,-0.6996,-0.3365,-0.1876,277.6875
21:04:46:966,3.1066,1.066,11.0877,54.4023,-0.8732,-0.3021,-0.5122,277.2344
21:04:46:991,2.7666,0.3956,12.5996,52.4237,-1.0029,0.0806,-0.6928,277.0938
21:04:47:005,2.9151,-0.4352,12.7205,53.3273,-1.1177,0.4508,-0.7519,277.375
21:04:47:026,3.0228,-0.592,11.8921,52.7063,-1.302,0.3538,-0.7966,278.0469
21:04:47:048,2.8133,-0.6327,12.3901,53.9032,-1.4629,-0.0672,-0.8659,278.8438
21:04:47:066,2.2195,-1.1031,14.4683,53.9032,-1.4,-0.3122,-0.8898,280.1719
21:04:47:086,1.2571,-1.582,16.3597,52.1285,-1.0581,-0.1772,-0.7676,281.1719
21:04:47:107,1.0212,-2.2332,16.3046,52.6463,-0.645,0.2316,-0.4967,282.2031
21:04:47:132,1.4271,-2.6845,14.2312,54.4871,-0.3947,0.5927,-0.1228,283.2344
21:04:47:148,2.0065,-2.1123,12.2333,53.7924,-0.282,0.6207,0.2348,284.0156
21:04:47:165,2.957,-0.914,11.3163,53.8247,-0.1158,0.43,0.3038,284.375
21:04:47:191,3.3436,0.0557,10.8614,54.7886,0.2019,0.2814,0.12,284.2812
21:04:47:205,3.0695,0.2975,9.5757,52.759,0.5087,0.3488,-0.1063,283.9219
21:04:47:227,2.4015,0.3107,7.3755,54.6206,0.6373,0.512,-0.2486,283.6719
21:04:47:249,1.5348,0.6363,3.8703,54.2957,0.604,0.613,-0.3287,283.6719
21:04:47:267,1.4378,0.6877,3.0743,56.0056,0.5177,0.553,-0.3913,283.875
21:04:47:286,1.5108,0.7153,2.5727,57.0463,0.4416,0.3277,-0.4637,284.1875
21:04:47:308,1.518,0.7823,2.5595,54.9475,0.3265,-0.0464,-0.5793,284.5625
21:04:47:332,1.1637,0.9547,3.6249,54.687,0.0751,-0.4459,-0.7545,285.0312
21:04:47:349,0.5472,0.8781,5.9198,54.7342,-0.2943,-0.6702,-0.9452,285.625
21:04:47:365,-0.1172,0.6315,8.8072,55.5155,-0.6085,-0.6228,-1.056,286.8281
21:04:47:385,-0.4799,0.4842,11.1344,54.3513,-0.6788,-0.3421,-1.0403,287.3594
21:04:47:406,-0.6595,0.6746,11.8299,54.1393,-0.4791,0.0827,-0.9354,288.5469
21:04:47:430,-0.8259,0.8529,11.4001,53.7795,-0.2107,0.4407,-0.8533,289.7344
21:04:47:446,-0.9863,0.5692,11.035,55.0896,-0.1015,0.585,-0.8129,290.875
21:04:47:470,-1.5442,0.173,11.5078,56.6535,-0.188,0.5922,-0.77,291.8906
21:04:47:485,-2.0493,-0.4758,12.8474,54.339,-0.3494,0.5437,-0.6496,292.8281
21:04:47:506,-2.2229,-1.1331,13.8889,54.3741,-0.4131,0.5658,-0.4272,293.6875
21:04:47:531,-2.029,-1.4012,14.3498,53.4574,-0.3422,0.5464,-0.1367,294.5
21:04:47:548,-1.6818,-1.2145,14.4539,54.8438,-0.2892,0.4913,0.1371,295.125
21:04:47:565,-1.6279,-1.0517,14.8178,56.1324,-0.3273,0.4063,0.3262,295.4219
21:04:47:589,-2.2229,-1.1307,15.7121,56.9165,-0.3603,0.2881,0.4452,295.4062
21:04:47:605,-2.2217,-1.6167,15.4559,55.684,-0.1872,0.3102,0.6732,295.1094
21:04:47:626,-1.6806,-1.7723,13.4316,55.4307,0.2101,0.3858,0.989,294.6875
21:04:47:650,-0.3674,-1.5161,11.3977,55.6959,0.5737,0.1602,1.2857,293.625
21:04:47:667,0.5352,-0.8194,10.5921,57.6605,0.7132,-0.3194,1.4378,292.5
21:04:47:686,0.7507,-0.4495,10.7321,56.5087,0.6818,-0.7019,1.3821,291.1406
21:04:47:706,0.4371,-0.5896,10.6387,56.3302,0.6538,-0.7583,1.2269,290.3438
21:04:47:732,0.0911,-0.6315,9.5506,57.7152,0.7241,-0.5381,1.1526,288.7344
21:04:47:749,0.1581,-0.4747,7.7011,57.7208,0.8512,-0.2656,1.185,287.2812
21:04:47:766,0.4251,-0.2101,5.9186,57.4938,0.9201,-0.0776,1.2319,286.0469
21:04:47:786,0.8082,0.0461,4.7837,58.1673,0.8754,-0.0307,1.2319,284.75
21:04:47:806,1.0452,0.2101,4.3671,57.4382,0.7526,-0.0845,1.1691,283.3906
21:04:47:833,1.3516,0.3597,4.6784,58.6881,0.595,-0.1985,1.0466,281.3594
21:04:47:849,1.6174,0.2675,5.1704,58.0703,0.4075,-0.2494,0.8324,280.0312
21:04:47:866,1.3109,0.1323,6.0706,57.6321,0.0908,-0.0638,0.5113,278.8594
21:04:47:886,0.5532,0.0138,7.0163,59.4826,-0.3385,0.4502,0.2007,277.9688
21:04:47:907,-0.5937,0.003,7.5287,60.1045,-0.6695,1.0063,-0.0056,277.3906
21:04:47:932,-1.5609,0.1502,7.9596,58.8142,-0.7699,1.2023,-0.0552,277.125
21:04:47:949,-1.5202,0.2783,8.7413,59.7023,-0.3686,0.3946,0.254,277.0312
21:04:47:966,-0.8307,0.3107,9.7816,59.8226,-0.0157,-0.2925,0.3392,277.0312
21:04:47:986,0.3593,0.2041,11.4695,59.6377,0.2945,-0.7999,0.2969,276.9844
21:04:48:007,2.016,-0.0413,13.5836,59.6468,0.5297,-0.8497,0.0756,276.8125
21:04:48:031,2.5045,-0.3477,14.8693,60.3071,0.6927,-0.3487,-0.1631,276.4844
21:04:48:047,2.2519,-0.6722,13.9212,62.5411,0.7281,0.4252,-0.3212,275.8438
21:04:48:067,2.4171,-0.7284,11.1559,59.2963,0.5004,0.9379,-0.4906,275.8281
21:04:48:085,2.4721,-0.3418,8.5582,58.8771,0.0253,0.8263,-0.6858,276.0625
21:04:48:106,2.4075,-0.4519,7.9692,61.0097,-0.4682,0.2012,-0.9223,276.3906
21:04:48:133,1.4678,-1.2061,9.5446,59.8201,-0.7875,-0.4702,-1.0089,277.2031
21:04:48:149,0.23,-2.2332,12.3351,61.0187,-0.7976,-0.5833,-0.738,278.0156
21:04:48:166,0.0276,-2.6629,14.0074,60.5321,-0.4469,-0.3431,-0.2765,279.1562
21:04:48:230,1.0655,-2.3505,12.76,59.6814,-0.0264,-0.1793,0.0548,280.2031
21:04:48:230,1.6617,-1.1031,9.565,61.3571,0.1068,-0.3045,0.1225,280.5625
21:04:48:231,2.1764,-0.0928,7.3396,60.8537,-0.0642,-0.512,-0.0504,280.875
21:04:48:245,2.2351,0.4447,6.7925,59.7517,-0.3148,-0.5253,-0.3287,280.8281
21:04:48:265,1.9286,0.5345,6.9505,59.8815,-0.4836,-0.399,-0.5953,280.7031
21:04:48:285,1.3038,0.5405,7.057,59.3638,-0.5273,-0.2776,-0.779,280.7969
21:04:48:305,0.5639,0.6818,7.2414,61.2718,-0.4413,-0.2046,-0.8248,281.1719
21:04:48:325,0.1294,0.7512,7.5299,60.7771,-0.2357,-0.1362,-0.7761,281.875
21:04:48:345,-0.031,0.8793,7.4688,60.4661,0.0285,-0.1255,-0.6773,282.7656
21:04:48:368,0.1318,1.1259,6.9493,60.4732,0.2149,-0.1993,-0.6216,283.6562
21:04:48:385,0.1785,1.4994,6.4513,60.9175,0.2535,-0.3229,-0.6238,284.5625
21:04:48:404,0.0672,1.6873,6.4848,59.6151,0.1446,-0.4217,-0.673,285.7031
21:04:48:425,-0.286,1.6263,7.2186,60.0293,-0.0474,-0.3647,-0.6973,286.375
21:04:48:445,-0.7768,1.7567,8.5199,59.1929,-0.2226,-0.1668,-0.6877,287.1406
21:04:48:464,-0.9719,1.9722,9.9528,59.9902,-0.3073,0.1088,-0.7242,287.9531
21:04:48:484,-1.13,1.7807,11.0242,60.7716,-0.3441,0.3427,-0.7977,288.7188
21:04:48:504,-1.8231,1.2336,11.8299,60.0914,-0.3848,0.4686,-0.7601,289.5156
21:04:48:526,-2.3881,0.5609,12.8151,59.104,-0.4035,0.4681,-0.6201,290.375
21:04:48:545,-2.5018,-0.2472,13.7931,60.3215,-0.3723,0.303,-0.4493,291.2812
21:04:48:564,-2.3965,-0.9786,14.8382,61.552,-0.3345,0.0947,-0.2464,292.0156
21:04:48:584,-2.1786,-1.3761,15.9,61.1903,-0.3055,-0.0776,-0.0435,292.6094
21:04:48:604,-2.1846,-1.7304,17.1809,60.9839,-0.2173,-0.1389,0.1722,293.0156
21:04:48:627,-2.4958,-2.1674,18.4881,62.5416,0.1129,0.1781,0.5062,293.1562
21:04:48:646,-0.8319,-2.8808,13.094,62.5064,0.6727,0.6649,0.8793,293.0938
21:04:48:666,-0.2597,-2.2871,8.7078,62.6372,0.9785,0.8612,1.1243,292.7188
21:04:48:685,-0.2489,-1.7424,6.6524,62.5312,0.7944,0.5837,1.241,292.375
21:04:48:705,-0.2345,-1.6969,7.5095,62.5202,0.3443,0.0311,1.319,290.8125
21:04:48:730,-0.1543,-1.6538,9.0586,65.4197,0.0487,-0.3482,1.4431,289.4531
21:04:48:749,0.1043,-1.2396,9.134,64.6166,0.1353,-0.4395,1.6175,288
21:04:48:766,0.4011,-0.6746,7.7513,65.892,0.436,-0.4337,1.7614,286.5156
21:04:48:786,0.704,-0.1574,5.9952,65.321,0.6631,-0.3927,1.8322,284.7812
21:04:48:804,1.0033,0.3729,4.8089,65.741,0.7087,-0.4033,1.8245,282.875
21:04:48:824,1.2092,0.8553,4.3671,65.2197,0.6152,-0.4441,1.7307,280.9375
21:04:48:847,1.123,1.1989,4.6281,65.2422,0.4549,-0.4789,1.5685,278.8594
21:04:48:867,0.9734,1.2037,5.1644,65.6473,0.3212,-0.5271,1.3848,276.8594
21:04:48:888,0.783,1.2468,5.6277,68.6108,0.2448,-0.5567,1.2245,275
21:04:48:904,0.7639,1.3222,6.2526,67.8438,0.1539,-0.5173,1.0862,273.4375
21:04:48:924,0.8596,1.2612,7.0499,68.8525,0.0341,-0.4283,0.9419,271.9844
21:04:48:947,0.777,1.1666,8.1141,67.5992,-0.1033,-0.3026,0.7651,270.7031
21:04:48:968,0.8225,1.1307,9.3878,68.045,-0.236,-0.1745,0.5861,269.6406
21:04:48:984,1.1613,1.0852,10.6459,69.9846,-0.3084,-0.0731,0.3882,268.2969
21:04:49:005,1.0572,0.5369,11.9795,69.1192,-0.3281,-0.068,0.1136,267.6562
21:04:49:025,0.3604,-0.5201,13.1467,70.6205,-0.3199,-0.0353,-0.1716,267.25
21:04:49:050,-0.274,-1.5712,13.507,72.0393,-0.2964,0.2018,-0.2965,267.1406
21:04:49:065,-0.359,-2.1243,12.5876,72.1325,-0.2719,0.613,-0.2435,267.3594
21:04:49:085,0.3365,-1.995,11.4432,72.0131,-0.3092,0.9038,-0.0906,267.6719
21:04:49:105,1.4043,-1.57,11.1535,71.5711,-0.4328,0.8692,0.0444,267.9219
21:04:49:125,1.7718,-1.3521,11.6754,71.9112,-0.571,0.6212,0.0316,267.9844
21:04:49:149,1.2762,-1.7065,12.7265,71.2052,-0.6317,0.2992,-0.0701,267.8906
21:04:49:166,0.8955,-2.141,13.4974,71.2052,-0.5963,0.1994,-0.0344,267.8281
21:04:49:184,1.5923,-2.1135,13.325,73.4792,-0.4072,0.3083,0.2175,267.8906
21:04:49:206,3.121,-1.4718,11.9604,73.5054,-0.1071,0.3738,0.4993,267.9375
21:04:49:233,4.6556,-0.671,10.5214,72.5835,0.1566,0.1613,0.5781,267.8594
21:04:49:249,5.2578,0.1742,9.48,74.3582,0.2477,-0.1879,0.3507,267.4219
21:04:49:267,4.5778,0.5429,8.5319,73.8389,0.1489,-0.2321,-0.1244,266.75
21:04:49:285,3.0922,0.3478,7.5311,72.0988,-0.0786,0.0966,-0.6427,266.0469
21:04:49:305,1.5252,0.0808,6.4992,71.5355,-0.3028,0.5312,-0.9977,266.2031
21:04:49:326,0.133,0.1024,5.5463,73.2814,-0.3947,0.769,-1.1143,266.9375
21:04:49:348,-0.681,0.252,4.8783,73.5222,-0.2384,0.2734,-0.7913,268
21:04:49:365,-0.8139,0.4184,4.7179,74.5414,-0.1089,-0.1684,-0.5495,269.2344
21:04:49:385,-0.5278,0.7368,5.0423,72.2213,-0.0088,-0.4417,-0.3729,270.375
21:04:49:405,-0.049,1.06,5.3571,73.1575,0.017,-0.5823,-0.3098,271.2812
21:04:49:427,0.23,1.4012,5.8587,71.4327,-0.0538,-0.6419,-0.345,272.3125
21:04:49:449,0.3844,1.4419,6.8392,72.4761,-0.1965,-0.6321,-0.4291,272.3125
21:04:49:467,0.212,1.2073,8.5235,72.5989,-0.3228,-0.5016,-0.4616,272.6719
21:04:49:484,-0.0861,0.9152,10.3167,72.8159,-0.338,-0.3274,-0.4363,273.0625
21:04:49:503,-0.3854,0.5776,12.0106,73.4625,-0.2107,-0.1479,-0.3527,273.5625
21:04:49:524,-0.5314,0.3023,12.8749,73.1477,-0.0067,0.0028,-0.2581,274.0938
21:04:49:547,-0.6858,-0.1814,12.7265,73.175,0.1004,0.1328,-0.2227,274.9844
21:04:49:564,-1.428,-0.7895,12.4799,73.9671,0.0527,0.1799,-0.1665,275.1406
21:04:49:584,-2.1104,-1.716,12.8917,74.8985,-0.0498,0.181,-0.0075,275.4062
21:04:49:605,-2.4049,-2.5061,13.7033,74.9178,-0.1222,0.2859,0.282,275.6406
21:04:49:625,-2.2768,-2.4331,14.1319,74.6441,-0.1555,0.3861,0.5893,275.75
21:04:49:649,-1.8171,-1.8226,14.0804,75.1866,-0.1654,0.3056,0.7648,275.6094
21:04:49:665,-1.6471,-1.2588,14.2145,74.3999,-0.1001,0.1339,0.8532,275.4062
21:04:49:690,-1.7094,-1.1905,14.5928,73.0014,0.1404,0.218,0.956,274.75
21:04:49:704,-1.5525,-1.3653,13.1036,72.74,0.392,0.377,1.0812,273.875
21:04:49:724,-1.0593,-1.1726,10.47,72.5562,0.4163,0.1517,1.1659,272.9062
21:04:49:746,-0.5529,-0.6949,9.1232,74.0899,0.2338,-0.4233,1.1555,271.8125
21:04:49:765,-0.116,-0.495,10.2138,74.3427,0.0951,-0.8904,1.0934,270.6406
21:04:49:787,0.0624,-0.6806,12.2548,71.9542,0.221,-0.8473,1.0553,269.2969
21:04:49:804,-0.2645,-0.7584,12.6834,71.7151,0.5321,-0.4662,1.082,266.8125
21:04:49:824,-0.5075,-0.7596,11.0649,71.7434,0.7928,-0.0281,1.1667,265.625
21:04:49:847,-0.5338,-0.6638,8.5211,71.3563,0.8831,0.2153,1.2828,265.0156
21:04:49:863,-0.359,-0.5441,6.5423,71.9759,0.8751,0.2335,1.3973,263.7344
21:04:49:884,0.048,-0.4304,5.3129,70.2533,0.8306,0.1243,1.4737,262.375
21:04:49:904,0.5041,-0.2807,4.5874,69.7437,0.7476,-0.0326,1.4929,260.8125
21:04:49:924,0.9554,-0.0018,4.4126,71.8704,0.645,-0.1942,1.4506,259.1406
21:04:49:945,1.2655,0.2113,4.8556,70.2895,0.5641,-0.3468,1.3512,257.5
21:04:49:965,1.3217,0.2364,5.6588,72.1953,0.5124,-0.4217,1.2367,255.8125
21:04:49:984,1.3576,0.2029,6.5399,69.6404,0.4503,-0.3671,1.1299,254.2188
21:04:50:005,1.6246,0.2975,7.324,69.0522,0.2943,-0.157,0.9565,252.75
21:04:50:025,2.1525,0.4579,8.0626,69.9084,-0.0831,0.3203,0.6234,251.4844
21:04:50:058,1.9873,0.2101,10.4807,69.8388,-0.6088,0.8212,0.2058,250.2812
21:04:50:065,1.1661,-0.5968,12.6571,68.5497,-0.886,0.9317,-0.1252,249.3438
21:04:50:085,0.4814,-1.5221,13.7656,68.923,-0.7159,0.7395,-0.2848,248.8594
21:04:50:104,0.3545,-1.9064,13.2424,69.0217,-0.3212,0.5938,-0.2137,248.7656
21:04:50:125,1.3864,-1.6311,11.4217,71.1539,-0.0184,0.6705,0.0199,248.9844
21:04:50:148,2.6038,-0.8493,9.966,67.4905,0.0376,0.6929,0.1368,249.25
21:04:50:165,3.4789,-0.4782,9.5482,69.3963,-0.1025,0.4457,-0.0107,249.3281
21:04:50:183,3.2826,-0.8015,10.3969,68.2048,-0.3723,0.0454,-0.4206,249.1562
21:04:50:204,2.1118,-1.7316,12.1004,68.5579,-0.7001,-0.1458,-0.8408,249
21:04:50:225,0.4179,-2.4271,12.8223,67.2838,-0.8535,0.0372,-1.0422,249.2031
21:04:50:250,-0.535,-2.5109,12.1818,67.7186,-0.7441,0.328,-0.9239,249.9375
21:04:50:315,0.0791,-1.9303,10.7357,68.2263,-0.4727,0.3315,-0.5473,251.0469
21:04:50:315,1.0943,-1.0792,9.6906,67.762,-0.2075,-0.027,-0.2326,252.1562
21:04:50:315,1.5994,-0.3932,9.1101,66.3381,-0.021,-0.4837,-0.1487,252.9844
21:04:50:330,1.4259,-0.0545,8.2936,66.6524,0.0783,-0.6901,-0.2568,253.3906
21:04:50:348,0.9913,0.173,7.3479,65.5572,0.0746,-0.6419,-0.4003,253.5781
21:04:50:364,0.5963,0.4028,6.5614,65.1274,-0.0061,-0.4978,-0.5034,253.7969
21:04:50:387,0.2982,0.6806,6.2095,65.3536,-0.1111,-0.3921,-0.5719,254.4531
21:04:50:404,0.1174,0.9595,6.4477,66.4528,-0.2061,-0.3487,-0.6067,255.0156
21:04:50:424,-0.0585,1.1426,6.9852,66.7339,-0.2509,-0.2979,-0.6296,255.6875
21:04:50:449,-0.1627,1.2863,7.5071,64.3503,-0.2178,-0.2331,-0.6419,256.3906
21:04:50:467,-0.2357,1.4647,7.986,65.389,-0.1441,-0.1383,-0.6408,257.1094
21:04:50:486,-0.2704,1.5652,8.3439,65.3507,-0.0626,-0.0347,-0.6408,257.8125
21:04:50:504,-0.541,1.5736,8.8108,63.5157,-0.0109,0.0638,-0.6621,258.5625
21:04:50:525,-0.869,1.5221,9.5769,62.2629,-0.008,0.1714,-0.6552,259.2969
21:04:50:548,-1.1886,1.4347,10.5981,63.1582,-0.0133,0.2436,-0.6126,260.0156
21:04:50:563,-1.2916,1.175,11.3594,64.9236,0.0442,0.2974,-0.5386,260.7656
21:04:50:584,-1.4161,0.853,11.5402,63.6684,0.1649,0.3187,-0.4549,261.125
21:04:50:604,-1.5633,0.507,11.843,63.4341,0.2389,0.287,-0.3508,261.7812
21:04:50:626,-1.5346,0.0796,12.7205,63.7568,0.2453,0.2015,-0.2046,262.3125
21:04:50:647,-1.1886,-0.3154,13.1622,62.1185,0.2764,0.1874,-0.0166,262.7656
21:04:50:664,-0.9013,-0.4028,12.6655,63.3939,0.3502,0.2478,0.1635,263.0938
21:04:50:684,-0.468,-0.2879,12.0489,63.2223,0.3491,0.2225,0.2873,263.1875
21:04:50:704,-0.0669,-0.258,12.3123,63.2223,0.2122,0.0284,0.3283,263
21:04:50:724,-0.5685,-0.4567,14.2767,62.8451,-0.0096,-0.3365,0.2785,262.6719
21:04:50:745,-1.7967,-0.8733,15.9647,62.0583,-0.0559,-0.4893,0.2945,262.3125
21:04:50:765,-1.6292,-1.4431,14.7017,60.3191,0.829,0.1562,0.9305,262
21:04:50:784,-0.5901,-1.0529,10.6016,59.9582,1.0298,0.0936,1.1547,262
21:04:50:804,0.2982,-0.2029,7.5299,60.4248,0.8046,-0.3764,1.1302,261.6875
21:04:50:825,0.1869,0.3035,7.1839,60.7078,0.4743,-0.8739,1.0258,261.0625
21:04:50:847,-0.1268,-0.0281,9.0933,60.6527,0.4184,-0.9996,1.0127,260.0469
21:04:50:865,-0.4189,-0.4172,10.2437,59.3637,0.6472,-0.7775,1.0918,257.4375
21:04:50:884,-0.444,-0.4794,9.1747,57.1852,0.8424,-0.4667,1.2242,256.375
21:04:50:903,-0.0705,-0.0928,7.1887,59.2926,0.8157,-0.2489,1.303,255.2812
21:04:50:925,0.6334,0.2496,5.8743,59.0548,0.6583,-0.1492,1.2657,252.75
21:04:50:950,1.0847,0.4411,5.3428,57.0505,0.4858,-0.1402,1.1526,251.25
21:04:50:967,1.1912,0.5249,5.2865,57.8838,0.347,-0.2251,1.0338,249.7812
21:04:50:984,1.0859,0.5704,5.5726,58.892,0.2594,-0.3285,0.9563,249.0938
21:04:51:004,1.1134,0.4651,6.1269,58.6539,0.2056,-0.3748,0.9099,247.8906
21:04:51:025,1.3241,0.4232,6.7506,58.3334,0.1585,-0.288,0.879,246.7812
21:04:51:048,1.5647,0.7141,7.3108,57.1298,0.1039,-0.1506,0.8045,245.7344
21:04:51:067,1.9646,1.0888,7.7597,57.3956,0.0437,-0.0121,0.6354,245.2344
21:04:51:087,2.4039,1.2911,8.0063,56.4954,-0.078,0.0566,0.3635,244.2969
21:04:51:103,2.6002,1.2049,8.6204,57.8863,-0.2948,0.0859,0.05,243.3906
21:04:51:124,2.2626,0.8637,9.8271,55.6609,-0.5433,0.1943,-0.2046,242.6562
21:04:51:150,1.9705,0.2436,11.3331,57.3176,-0.7265,0.3424,-0.3689,242.2344
21:04:51:164,1.797,-0.3825,12.6236,56.5656,-0.8139,0.548,-0.4339,242.2031
21:04:51:183,2.0508,-0.9427,13.1168,57.1779,-0.8362,0.7573,-0.4206,242.4688
21:04:51:203,2.4781,-1.1522,12.693,57.1779,-0.8317,0.8276,-0.4443,242.9219
21:04:51:224,2.4003,-1.1103,11.7664,56.7537,-0.8607,0.5948,-0.5282,243.4062
21:04:51:248,1.6485,-1.0864,11.6778,56.9813,-0.922,0.25,-0.5681,244.1094
21:04:51:264,0.7854,-1.3641,12.7995,57.0004,-0.8895,0.095,-0.4805,244.6562
21:04:51:283,0.1031,-1.7986,13.8027,56.1422,-0.6794,0.1592,-0.2227,245.2812
21:04:51:304,0.1079,-2.0045,13.4124,56.2407,-0.3694,0.1677,0.1435,245.9375
21:04:51:324,1.1948,-1.5078,11.9843,56.6852,-0.1268,0.0007,0.3898,246.3906
21:04:51:350,2.3452,-0.6422,10.6232,57.9947,-0.0107,-0.2017,0.3853,246.4531
21:04:51:366,2.9713,0.1454,9.7541,56.1544,0.0131,-0.1769,0.18,246.125
21:04:51:389,2.9031,0.4914,8.8623,55.9711,-0.0107,0.0854,-0.0826,245.6406
21:04:51:404,2.4051,0.647,7.5622,55.3302,-0.0376,0.3757,-0.3013,245.3125
21:04:51:423,1.7539,0.7536,6.0766,57.1029,-0.0581,0.471,-0.4501,245.2656
21:04:51:447,1.0823,0.7356,4.9274,55.5113,-0.0807,0.3296,-0.5199,245.4844
21:04:51:465,-0.2704,0.6817,4.8735,55.1195,-0.1209,0.0369,-0.5133,245.9219
21:04:51:484,-0.5254,0.6806,5.8875,56.6507,-0.1542,-0.202,-0.4262,246.4531
21:04:51:504,-0.5314,0.9056,6.6572,56.0072,-0.1491,-0.2648,-0.3005,247.0469
21:04:51:524,-0.3423,1.2899,7.5215,55.7558,-0.1465,-0.2385,-0.1974,247.5938
21:04:51:548,0.3329,1.6299,8.9712,56.3703,-0.1625,-0.2092,-0.122,248.0156
21:04:51:565,0.8824,1.8382,10.4101,56.7632,-0.1121,-0.198,-0.1463,248.2969
21:04:51:583,0.8201,1.8645,11.594,54.4443,0.0248,-0.1908,-0.2765,248.4844
21:04:51:606,0.9554,1.8777,12.7073,54.0226,0.1792,-0.0936,-0.4137,248.625
21:04:51:623,0.9506,1.7879,13.1012,53.9842,0.2655,0.2191,-0.5804,248.8594
21:04:51:647,-0.2321,1.5963,13.0054,55.1195,0.1151,0.8377,-0.8251,249.2656
21:04:51:664,-1.0342,0.8936,13.1575,52.9838,-0.1891,1.5025,-0.9183,249.7969
21:04:51:683,-1.2078,0.2125,13.2281,55.4945,-0.3398,1.7682,-0.8161,250.5469
21:04:51:703,-1.2042,0.0281,12.7433,54.7952,-0.2253,1.5634,-0.6091,251.5469
21:04:51:723,-1.0653,-0.2185,11.9879,53.7769,-0.0024,0.9933,-0.4216,252.5156
21:04:51:747,-1.2102,-0.7727,12.0166,55.25,0.1201,0.2042,-0.3418,253.25
21:04:51:766,-2.1403,-1.5497,13.5142,55.0241,0.0519,-0.4965,-0.3055,253.7969
21:04:51:783,-3.0704,-2.6462,15.074,52.7677,-0.012,-0.7298,-0.134,254.2031
21:04:51:803,-2.6108,-3.5309,14.169,53.8211,0.2514,-0.5216,0.2559,254.5938
21:04:51:823,-1.8686,-3.4494,10.7728,52.7097,0.6932,-0.222,0.694,254.9219
21:04:51:848,-1.2497,-2.7898,7.8723,53.9397,0.8501,-0.1809,1.0279,254.6406
21:04:51:868,-0.6272,-2.0441,7.318,54.0975,0.6168,-0.4425,1.2354,253.8594
21:04:51:884,-0.0609,-1.3677,8.138,52.601,0.2818,-0.6896,1.3488,252.7656
21:04:51:903,0.4371,-0.9511,8.7689,54.253,0.1278,-0.7623,1.4085,251.375
21:04:51:923,0.4825,-0.6027,8.3068,54.2924,0.2147,-0.6672,1.425,249.875
21:04:51:944,0.4718,-0.0988,7.0798,53.5972,0.3686,-0.484,1.4612,248.375
21:04:51:964,0.7555,0.3454,5.8982,53.0035,0.4434,-0.3181,1.5294,246.7812
21:04:51:985,0.8153,0.6626,5.3703,53.3931,0.4218,-0.2606,1.5278,245.125
21:04:52:004,1.0141,0.744,5.6265,52.9515,0.3635,-0.3266,1.4937,243.4688
21:04:52:023,1.1649,0.8326,6.1867,54.7115,0.3254,-0.4148,1.4439,241.7188
21:04:52:048,1.3828,1.0074,6.565,52.8333,0.3332,-0.4539,1.3768,240.0156
21:04:52:066,1.8089,1.2193,6.9014,52.9547,0.3497,-0.4755,1.2892,238.375
21:04:52:083,2.1657,1.5078,7.3024,52.7145,0.318,-0.4763,1.1262,237.6719
21:04:52:103,2.3165,1.655,7.9956,52.0108,0.2384,-0.4496,0.8865,236.1406
21:04:52:125,2.4051,1.5425,8.7832,53.4985,0.1422,-0.3674,0.5928,234.7656
21:04:52:150,2.2674,1.1666,9.3351,52.5933,0.0442,-0.2235,0.2766,233.2031
21:04:52:166,2.0388,0.5788,9.9839,52.2584,-0.2394,-0.0379,-0.1756,232.5469
21:04:52:185,1.8903,-0.0557,11.1331,50.452,-0.388,-0.0185,-0.2461,232.25
21:04:52:202,1.8604,-0.4256,12.7361,50.6627,-0.425,0.0846,-0.2467,232.25
21:04:52:224,2.6385,-0.9068,13.5812,51.3769,-0.3438,0.2769,-0.2499,232.2656
21:04:52:248,3.4526,-1.1103,12.7576,51.8557,-0.3161,0.341,-0.3415,232.4688
21:04:52:267,3.3879,-0.8733,11.6802,51.4901,-0.4314,0.1016,-0.4997,233.1094
21:04:52:284,2.7343,-1.0074,12.2872,53.0885,-0.5803,-0.1197,-0.6307,233.3906
21:04:52:303,1.682,-1.4168,14.1367,52.6385,-0.5406,0.1067,-0.6089,233.7812
21:04:52:364,0.8716,-1.983,14.5449,51.9012,-0.274,0.5626,-0.4099,234.375
21:04:52:365,0.807,-2.0022,12.3949,52.3204,-0.0157,0.6843,-0.0898,235.1094
21:04:52:365,1.8209,-1.5137,9.9277,52.4207,0.0818,0.2878,0.1147,235.8438
21:04:52:385,2.842,-0.7931,8.9892,52.6276,0.093,-0.2502,0.0841,236.3125
21:04:52:402,3.0491,-0.1347,9.4967,51.8907,0.1025,-0.414,-0.0912,236.3281
21:04:52:422,2.5882,0.0724,9.6392,49.665,0.1627,-0.1064,-0.2717,236.1719
21:04:52:445,1.925,0.0868,8.3176,52.8584,0.179,0.2883,-0.3644,236.1719
21:04:52:464,1.4055,0.398,6.6548,50.7495,0.1321,0.5349,-0.3836,236.3906
21:04:52:484,1.2403,0.7632,5.3105,52.6407,0.0445,0.5296,-0.4121,236.75
21:04:52:504,1.0428,1.0505,4.7107,53.0156,-0.0301,0.3674,-0.456,237.1406
21:04:52:523,0.7758,1.1941,4.7215,53.4326,-0.0815,0.1647,-0.481,237.5625
21:04:52:548,0.5903,1.3653,5.2362,51.9853,-0.1398,0.0364,-0.4909,237.7656
21:04:52:565,0.5556,1.6658,6.0108,52.4335,-0.2037,0.0284,-0.5117,238.2656
21:04:52:589,0.71,2.0872,6.9218,53.2486,-0.2442,0.0518,-0.5918,238.8125
21:04:52:603,0.7639,2.4331,7.9213,52.2671,-0.241,0.0529,-0.7175,239.375
21:04:52:626,0.6166,2.4295,8.7761,53.629,-0.2274,0.0343,-0.8163,239.9531
21:04:52:647,0.4646,2.4056,9.7026,52.0329,-0.2202,0.0958,-0.8512,240.625
21:04:52:665,0.4766,2.4211,10.6627,53.0475,-0.1728,0.1834,-0.9085,241.4531
21:04:52:682,0.1402,2.1494,11.4695,52.432,-0.1028,0.2399,-0.9945,242.8438
21:04:52:706,-0.8438,1.6239,12.0465,55.0483,-0.0714,0.2577,-0.9492,243.8438
21:04:52:722,-1.6255,0.7739,12.8259,53.1003,-0.0823,0.2827,-0.7388,244.9219
21:04:52:744,-2.0206,0.0221,13.8817,53.2205,-0.0724,0.3363,-0.4448,246
21:04:52:765,-2.1583,-0.5285,14.5329,53.0651,-0.0373,0.3711,-0.1287,246.9844
21:04:52:784,-2.1798,-0.726,14.6203,53.939,-0.0165,0.2734,0.188,247.6406
21:04:52:808,-2.1678,-0.6961,14.8645,54.4419,0.0184,0.0468,0.4836,247.9531
21:04:52:822,-2.2097,-0.7931,15.7707,54.1663,0.2386,-0.0046,0.796,247.9062
21:04:52:844,-1.9272,-1.1115,15.2033,54.2814,0.6149,0.2175,1.1025,247.5
21:04:52:865,-0.7612,-0.9116,9.2429,54.2339,0.8365,0.2681,1.306,246.7812
21:04:52:883,-0.7229,-0.6794,8.0865,53.9003,0.763,-0.0635,1.397,245.7344
21:04:52:903,-0.8379,-0.4818,9.2992,52.8878,0.5167,-0.5676,1.4458,244.3125
21:04:52:922,-0.3722,-0.6195,10.6926,53.9937,0.3638,-0.7943,1.511,242.7344
21:04:52:943,-0.0669,-0.58,10.1647,53.9342,0.4541,-0.5945,1.535,241.2031
21:04:52:966,0.3341,-0.3681,8.4852,54.6734,0.6293,-0.2917,1.5542,239.5469
21:04:52:984,0.7699,-0.0138,6.5076,55.0252,0.742,-0.0393,1.5528,237.8438
21:04:53:004,1.026,0.2221,5.3176,53.5927,0.7103,0.0484,1.4833,235.2812
21:04:53:026,1.1972,0.3274,4.8783,56.1163,0.6131,0.0204,1.3749,233.4688
21:04:53:050,1.2128,0.483,4.6736,52.9779,0.534,-0.0483,1.2505,231.7344
21:04:53:067,1.3133,0.6231,4.8101,54.3736,0.47,-0.1378,1.1403,230.9219
21:04:53:082,1.5779,0.7536,5.0471,55.5971,0.4032,-0.2206,1.0415,229.4531
21:04:53:103,1.9023,0.9846,5.3428,55.0557,0.3116,-0.2805,0.9254,228.0781
21:04:53:127,2.1764,1.2971,5.8719,54.4288,0.1848,-0.3066,0.7693,226.8125
21:04:53:150,2.2854,1.4503,6.5518,54.7319,0.041,-0.3213,0.552,225.75
21:04:53:162,2.2902,1.3988,7.2246,55.4453,-0.0921,-0.3314,0.2998,224.7812
21:04:53:186,2.5176,1.1726,8.2338,54.2817,-0.2378,-0.3583,0.0338,224.0625
21:04:53:210,3.17,1.0744,10.774,53.9954,-0.4429,-0.4989,-0.2075,223.6094
21:04:53:221,3.6752,0.6243,13.7764,55.632,-0.5896,-0.5471,-0.4515,223.4844
21:04:53:243,2.8109,-0.1239,14.6562,54.5541,-0.5222,-0.2214,-0.7798,223.6562
21:04:53:266,1.7527,-0.9116,13.3155,54.0881,-0.3867,0.3392,-1.0027,224.1406
21:04:53:283,1.4115,-1.2528,11.8275,54.0881,-0.4253,0.7451,-0.9053,225.4375
21:04:53:303,1.7335,-1.0433,11.1284,55.3115,-0.5974,0.8068,-0.632,226.5938
21:04:53:323,1.6557,-0.7021,11.6934,53.2875,-0.772,0.5043,-0.481,227.5938
21:04:53:344,0.9997,-1.1115,12.9743,54.2793,-0.8663,0.1711,-0.493,228.25
21:04:53:365,0.3724,-1.8417,13.2484,55.0814,-0.7971,0.1402,-0.4629,228.8125
21:04:53:382,0.7148,-1.9327,12.1232,55.0173,-0.6317,0.3192,-0.256,229.4219
21:04:53:402,1.8377,-1.2025,11.1559,55.9601,-0.5715,0.3826,-0.0142,229.9531
21:04:53:423,2.4314,-0.5285,11.3941,55.2952,-0.6477,0.2329,0.03,230.2656
21:04:53:444,2.0603,-0.2711,11.7401,55.2782,-0.6676,0.1221,-0.133,230.2969
21:04:53:465,1.2834,-0.2472,11.041,54.5608,-0.5127,0.2625,-0.3172,230.2812
21:04:53:487,0.7339,-0.1107,9.0119,55.0294,-0.2541,0.5869,-0.4014,230.4531
21:04:53:502,0.3724,0.252,6.7302,54.5804,-0.045,0.8204,-0.4054,230.8281
21:04:53:524,0.3557,0.5609,5.101,55.5078,0.0469,0.8212,-0.3727,231.0625
21:04:53:548,0.3245,0.7727,4.2809,55.0295,0.0362,0.6367,-0.3561,231.4844
21:04:53:568,0.3078,1.0828,4.1828,54.861,-0.1388,0.2484,-0.354,232.1094
21:04:53:582,0.3592,1.4898,4.7837,55.234,-0.2189,0.1285,-0.3743,232.1094
21:04:53:602,0.6202,1.892,5.6911,55.6717,-0.2541,0.0247,-0.4744,232.5
21:04:53:622,0.382,2.141,6.7242,54.3404,-0.2756,-0.0233,-0.6153,232.875
21:04:53:642,-0.3913,2.0788,7.889,55.1933,-0.2991,-0.007,-0.677,233.2656
21:04:53:665,-1.2461,1.7268,9.213,54.0478,-0.3036,0.0449,-0.6238,234.2344
21:04:53:683,-2.084,1.4347,10.7405,54.0442,-0.2471,0.1213,-0.4525,234.9062
21:04:53:701,-2.3797,1.0744,12.116,55.0077,-0.098,0.1701,-0.2233,235.6875
21:04:53:722,-2.2504,0.7596,12.8306,56.3622,0.0597,0.1315,0.0002,236.3906
21:04:53:742,-1.932,0.5561,13.1634,54.923,0.1169,0.0412,0.1978,236.8906
21:04:53:766,-1.428,0.234,13.8901,54.5086,0.1332,0.1237,0.3648,237.1406
21:04:53:782,-0.6092,-0.0892,14.1475,53.1611,0.1649,0.3155,0.4612,237.1406
21:04:53:801,0.115,0.0054,13.44,53.8987,0.1358,0.3592,0.4394,236.9375
21:04:53:821,0.4023,0.1419,12.6774,54.4656,0.0202,0.0686,0.3105,236.25
21:04:53:843,-0.1878,0.0197,13.349,54.3045,-0.0573,-0.3338,0.2276,235.7188
21:04:53:868,-1.0916,-0.6506,15.3098,55.6841,0.1236,-0.317,0.3179,235.2969
21:04:53:885,-1.622,-1.3761,15.554,51.9503,0.539,0.0835,0.5387,235.0156
21:04:53:902,-1.1348,-1.5401,12.5481,52.3975,0.8011,0.2662,0.7126,234.7344
21:04:53:923,-0.4775,-1.0816,9.1388,53.2026,0.6855,-0.0486,0.735,234.25
21:04:53:941,-0.5589,-0.6686,7.9991,51.3617,0.3883,-0.4821,0.6745,233.5469
21:04:53:965,-1.0198,-0.6159,9.0598,51.465,0.225,-0.6281,0.6607,233.125
21:04:53:984,-1.118,-0.8422,10.1048,51.7046,0.2844,-0.4214,0.7083,232.2969
21:04:54:009,-1.2449,-0.7021,9.3962,53.1256,0.4,-0.1865,0.8058,231.5781
21:04:54:021,-1.1144,-0.4711,8.0015,51.2665,0.4709,-0.0984,0.9147,230.8594
21:04:54:042,-0.8738,-0.2699,6.7386,51.1878,0.5057,-0.133,1.0125,230.0625
21:04:54:066,-0.5194,-0.0341,5.8527,51.1878,0.5185,-0.2875,1.0705,229.1406
21:04:54:083,-0.0885,0.1215,5.4948,51.64,0.5244,-0.4608,1.0822,228.1406
21:04:54:101,0.291,0.2245,5.6768,50.1529,0.5087,-0.5762,1.0585,226.375
21:04:54:122,0.5747,0.24,6.4214,49.1319,0.4709,-0.537,1.0378,225.1562
21:04:54:141,0.8465,0.404,7.3719,49.805,0.4442,-0.3823,0.9962,224.0156
21:04:54:165,1.1793,0.7476,8.1344,49.7617,0.4458,-0.211,0.8841,222.8281
21:04:54:184,1.5564,0.9846,8.4636,49.9317,0.4328,-0.0411,0.6814,221.6875
21:04:54:202,1.6904,1.1367,8.308,47.6189,0.3566,0.0851,0.4375,220.6406
21:04:54:222,1.5252,1.1355,8.0782,49.1946,0.1965,0.1429,0.1906,219.7344
21:04:54:245,1.287,0.2675,8.806,48.651,-0.0146,0.1347,-0.0038,219.0625
21:04:54:265,1.542,-0.4866,9.784,49.2279,-0.2373,0.1046,-0.1385,218.6875
21:04:54:283,2.3345,-0.975,10.4125,49.9897,-0.4474,0.152,-0.1953,218.5625
21:04:54:302,3.3604,-1.4407,10.5992,49.5103,-0.6615,0.2297,-0.2318,218.6562
21:04:54:322,4.1325,-1.9112,10.5298,48.4148,-0.873,0.2564,-0.2949,218.8594
21:04:54:341,3.6249,-2.0333,11.0446,49.383,-1.0376,0.0454,-0.4166,219.1094
21:04:54:367,2.1657,-2.2368,12.863,48.9229,-1.1681,-0.3426,-0.5764,219.4219
21:04:54:420,0.8656,-2.8389,14.4599,48.3961,-1.2107,-0.4454,-0.6281,219.8438
21:04:54:421,0.3868,-2.9323,13.9906,48.4583,-1.1044,-0.0904,-0.4653,220.4375
21:04:54:436,1.2894,-2.2104,11.861,48.9146,-0.8844,0.3155,-0.1415,221.625
21:04:54:441,2.2758,-1.1953,10.2473,48.7492,-0.7308,0.2865,0.034,222.2344
21:04:54:462,2.2291,-0.3753,10.2557,48.7503,-0.7159,-0.0363,-0.0475,222.4219
21:04:54:483,1.4773,0.0317,10.7345,50.0422,-0.6559,-0.2717,-0.2504,222.4219
21:04:54:502,0.5113,0.2424,9.9672,49.8974,-0.4344,-0.2201,-0.4376,222.4375
21:04:54:522,-0.0993,0.4459,8.1919,49.1374,-0.1683,-0.0219,-0.4941,222.625
21:04:54:541,-0.3231,0.7284,6.6045,49.5042,0.0152,0.0875,-0.4453,223.0469
21:04:54:565,-0.1771,0.8817,5.7666,49.3367,0.1097,0.035,-0.3495,223.6094
21:04:54:581,0.0695,0.9858,5.563,49.4035,0.1483,-0.1053,-0.2728,224.1719
21:04:54:601,0.224,1.0672,5.6576,50.3903,0.1467,-0.19,-0.2262,224.5938
21:04:54:622,0.3521,1.2707,6.0694,49.4055,0.089,-0.1972,-0.1913,224.9375
21:04:54:641,0.3461,1.4551,7.1133,48.0163,-0.0101,-0.2206,-0.1652,225.2188
21:04:54:665,0.1282,1.3952,8.3726,49.9642,-0.09,-0.2366,-0.1593,225.4531
21:04:54:683,-0.0143,1.3474,9.6069,49.8418,-0.1422,-0.1918,-0.1085,225.625
21:04:54:709,0.0636,1.2348,10.9488,49.7686,-0.1752,-0.1106,-0.0094,226.0312
21:04:54:732,0.194,1.2348,12.0154,52.6393,-0.0306,0.0596,0.1563,226.0625
21:04:54:745,0.4825,1.0014,12.5242,50.0838,0.0839,0.055,0.1829,225.9688
21:04:54:772,0.6549,0.7141,12.9803,50.1035,0.1358,0.0737,0.2239,225.7812
21:04:54:784,0.862,0.4914,13.5537,50.4615,0.2,0.2295,0.246,225.5781
21:04:54:807,1.3504,0.3478,13.246,49.8229,0.2415,0.3629,0.1858,225.3125
21:04:54:824,1.8161,0.1526,12.4045,50.5089,0.1891,0.2966,0.0324,225.0312
21:04:54:844,1.8568,-0.0628,11.8742,51.4225,0.0011,-0.0017,-0.1833,224.8125
21:04:54:866,1.0787,-0.4962,13.2963,51.0761,-0.1739,-0.3327,-0.3524,224.7656
21:04:54:884,-0.5865,-1.4694,16.0293,52.0518,-0.0581,-0.1285,-0.2659,224.9688
21:04:54:903,-2.0853,-2.4942,16.6147,52.0025,0.3955,0.3914,0.1829,225.375
21:04:54:923,-1.6854,-2.7025,13.4807,52.672,0.8381,0.5693,0.6732,225.6719
21:04:54:945,-0.5565,-2.0452,9.3016,51.4927,0.8975,0.1331,0.9422,225.6719
21:04:54:967,0.1581,-1.2827,7.5849,52.9418,0.6626,-0.4731,1.0276,225.4375
21:04:54:983,0.3868,-0.9272,8.6372,51.5767,0.4549,-0.6829,1.0173,224.625
21:04:55:002,0.2156,-0.7703,10.1132,52.7395,0.5065,-0.5141,1.0149,223.5625
21:04:55:023,0.0636,-0.6135,9.942,52.682,0.6879,-0.264,1.0346,222.3594
21:04:55:042,0.1474,-0.2053,8.3379,51.458,0.747,-0.0606,1.0482,221.1875
21:04:55:067,0.376,0.1981,6.8822,50.6903,0.6794,0.0417,1.0101,220.0625
21:04:55:085,0.5975,0.3322,6.1664,52.639,0.5942,0.0585,0.932,218.8438
21:04:55:102,0.6525,0.434,6.0143,51.8049,0.5348,0.054,0.8551,216.3906
21:04:55:121,0.6011,0.3526,6.1293,51.594,0.5119,0.0588,0.8197,216.3906
21:04:55:142,0.6669,0.4052,6.3651,51.7938,0.4988,0.0377,0.8122,215.3281
21:04:55:165,1.0177,0.4782,6.7482,53.0107,0.4887,-0.0126,0.7794,214.2969
21:04:55:183,1.3516,0.4998,7.3084,51.7486,0.4767,-0.0422,0.7073,213.3125
21:04:55:201,1.524,0.592,7.8411,53.1913,0.4216,-0.0483,0.6268,212.4062
21:04:55:220,1.7251,0.6566,8.6994,50.3869,0.3587,0.0196,0.5264,211.4688
21:04:55:241,1.9586,0.7165,9.4596,50.5949,0.3193,0.185,0.3829,210.625
21:04:55:264,2.2782,0.6698,9.4045,53.3037,0.2344,0.3251,0.2034,209.2812
21:04:55:282,2.3871,0.5992,9.1472,52.5846,0.0471,0.3589,0.0314,208.7969
21:04:55:301,2.5392,0.4806,9.4776,52.833,-0.1577,0.3291,-0.1436,208.6406
21:04:55:325,2.4099,0.2999,10.1886,53.6803,-0.3004,0.2484,-0.2682,208.4531
21:04:55:340,2.6146,-0.1227,10.7692,53.6803,-0.3689,0.1323,-0.3274,208.5
21:04:55:361,3.0408,-0.2532,10.932,53.2156,-0.4445,-0.0539,-0.4387,208.7344
21:04:55:385,3.3328,-0.2269,11.2696,54.2269,-0.5907,-0.3064,-0.6816,209.0781
21:04:55:403,2.684,-0.5836,12.9001,54.086,-0.7324,-0.3016,-0.8693,209.5
21:04:55:422,1.6234,-1.175,14.7065,53.9104,-0.661,0.1163,-0.8667,210.1875
21:04:55:441,0.8979,-1.7196,14.6059,55.4302,-0.3742,0.5192,-0.6725,211.1562
21:04:55:461,1.3397,-1.8286,12.2237,56.294,-0.126,0.4566,-0.4163,212.1875
21:04:55:482,2.2399,-1.4228,9.9863,56.0458,-0.0437,0.0231,-0.2635,212.6875
21:04:55:502,2.8887,-0.8134,9.1723,55.7729,-0.078,-0.2648,-0.2637,213.4531
21:04:55:521,3.0982,-0.2496,8.9712,53.5941,-0.1316,-0.1652,-0.3852,213.9062
21:04:55:541,2.8217,0.1574,8.1033,54.8132,-0.1886,0.1038,-0.5527,214.1875
21:04:55:561,2.1082,0.3669,6.7853,55.3294,-0.265,0.2659,-0.6805,214.5156
21:04:55:581,1.1122,0.4244,5.9521,55.8626,-0.3183,0.2569,-0.685,214.9688
21:04:55:602,0.3652,0.4304,5.8168,55.5777,-0.2919,0.1272,-0.5521,215.9531
21:04:55:624,0.1354,0.7117,6.0263,55.9989,-0.1835,0.0167,-0.403,216.75
21:04:55:641,0.2635,1.1367,5.9042,55.9031,-0.0804,-0.0755,-0.3343,217.4844
21:04:55:665,0.4359,2.0524,5.8515,57.2972,-0.0687,-0.121,-0.3577,218
21:04:55:683,0.0588,2.1434,6.4321,56.9284,-0.1297,-0.158,-0.4664,218.4219
21:04:55:700,-0.4464,2.1111,7.4018,57.4465,-0.2288,-0.1476,-0.5852,218.8125
21:04:55:720,-0.7385,2.1338,8.5905,58.5749,-0.3265,-0.0952,-0.6406,219.2812
21:04:55:741,-1.1204,2.0919,9.9001,56.5655,-0.3766,-0.0547,-0.6845,219.875
21:04:55:761,-1.4711,1.837,11.211,57.2924,-0.3955,0.0225,-0.7266,220.5938
21:04:55:781,-1.8123,1.2564,12.6343,58.8065,-0.4016,0.1003,-0.7306,221.375
21:04:55:801,-2.7832,0.6638,14.7436,58.0168,-0.3859,0.0502,-0.652,222.1719
21:04:55:821,-3.1914,0.0664,16.7392,58.4265,-0.3015,0.042,-0.415,223.4531
21:04:55:842,-1.9763,-0.1454,16.6865,57.878,-0.0772,0.3549,0.0087,224.2188
21:04:55:866,-0.5506,0.4986,14.7448,57.874,0.2453,0.7312,0.4245,224.6719
21:04:55:885,0.0193,1.3569,12.4392,58.4271,0.4852,0.8066,0.5984,224.6562
21:04:55:903,0.0001,1.3402,12.037,58.2482,0.466,0.4944,0.5424,224.4531
21:04:55:921,-0.5649,0.568,13.3215,57.3746,0.2701,0.1813,0.4303,223.7969
21:04:55:942,-1.1096,-0.179,13.5561,55.9256,0.1752,0.3152,0.4505,223.125
21:04:55:968,-1.2724,-0.653,12.0872,56.4308,0.2884,0.5898,0.6181,222.5625
21:04:55:985,-1.0797,-0.902,10.543,54.9685,0.4693,0.4694,0.846,222.0625
21:04:56:003,-0.711,-0.9212,10.1563,52.7963,0.5824,-0.06,1.0724,221.4844
21:04:56:021,-0.1447,-0.8913,10.4005,54.7992,0.6171,-0.5117,1.2263,220.625
21:04:56:041,0.0384,-0.8074,10.3167,54.166,0.6099,-0.5628,1.2764,219.5
21:04:56:061,0.0444,-0.7189,9.6619,52.7044,0.5952,-0.3061,1.2873,218.25
21:04:56:083,0.2766,-0.4507,8.624,53.2875,0.6448,-0.0329,1.336,216.8281
21:04:56:100,0.7232,-0.2328,7.2797,51.9884,0.7753,0.1064,1.3827,214.6562
21:04:56:121,1.3253,0.0293,6.0132,52.3733,0.8903,0.1371,1.3949,213.1875
21:04:56:143,1.8436,0.3921,5.01,50.9361,0.9103,0.1205,1.3427,211.5625
21:04:56:168,2.2722,1.1534,4.8879,48.9993,0.8008,0.0377,1.1957,209.9375
21:04:56:183,2.5248,1.9974,6.0587,48.611,0.4922,0.0521,0.8777,208.3594
21:04:56:201,1.5456,1.6526,7.7047,50.0046,0.0405,0.4228,0.3723,207.0156
21:04:56:221,0.0001,0.9906,8.7126,46.5572,-0.2402,0.854,0.0223,206
21:04:56:241,-0.5709,0.9475,9.2334,48.3313,-0.1662,0.9046,0.0284,205.5156
21:04:56:262,0.1174,1.4383,9.1041,49.0905,0.2208,0.5576,0.2018,205.4062
21:04:56:287,0.886,1.8992,8.466,47.2959,0.6333,0.0979,0.2306,205.2656
21:04:56:301,0.9482,1.8669,7.901,47.5964,0.7534,-0.1311,0.0087,204.9688
21:04:56:321,0.5077,1.3066,8.3248,48.6219,0.4962,-0.0848,-0.2922,204.7031
21:04:56:340,-0.1316,0.6782,9.14,46.6433,0.0685,0.1877,-0.4829,204.7031
21:04:56:362,-0.2992,0.2233,9.8894,47.1383,-0.2642,0.4114,-0.4965,205.0469
21:04:56:383,0.3293,-0.0952,10.2246,47.8372,-0.4554,0.2228,-0.2312,205.2969
21:04:56:402,1.597,0.1873,10.1479,47.3947,-0.7212,0.2225,-0.3439,206.0625
21:04:56:480,2.3512,0.5872,10.5921,47.9643,-1.2996,0.3613,-0.7916,206.6562
21:04:56:481,0.2491,-0.1454,12.8594,47.1686,-1.7271,0.687,-1.0882,206.6562
21:04:56:481,-2.7724,-1.9375,15.2392,46.4062,-1.4703,1.1536,-0.7319,207
21:04:56:482,-3.3542,-2.5971,14.1499,46.985,-0.7316,1.127,0.0268,207.8438
21:04:56:500,-1.3394,-1.4539,10.3826,45.3257,-0.1726,0.2249,0.58,208.9844
21:04:56:521,1.9706,0.0329,8.6851,46.0148,0.0258,-0.913,0.4955,209.6875
21:04:56:540,3.4561,1.0433,9.5674,43.5129,0.0133,-1.4214,-0.0539,209.5469
21:04:56:560,3.0132,0.847,10.8818,45.4383,-0.073,-0.9652,-0.5798,208.8594
21:04:56:586,1.9035,0.5513,10.5669,44.8524,-0.1574,-0.0406,-0.9013,208.3438
21:04:56:603,0.9147,0.6494,8.4648,43.8402,-0.2439,0.5349,-1.0747,208.4844
21:04:56:623,0.212,0.7464,6.8068,44.9305,-0.2818,0.5834,-1.1418,209.2031
21:04:56:640,-0.6595,0.683,6.067,45.9519,-0.2109,0.2899,-1.0853,211.375
21:04:56:661,-1.4089,0.5525,6.0981,45.7657,-0.0423,-0.0677,-0.8952,212
21:04:56:685,-1.6974,0.671,6.2657,45.7121,0.1497,-0.252,-0.6504,213.2656
21:04:56:703,-1.4556,1.2384,6.0407,46.6905,0.2251,-0.2587,-0.4967,214.4062
21:04:56:721,-0.942,1.8908,5.7929,45.5047,0.1387,-0.1956,-0.4973,214.8906
21:04:56:741,-0.7672,2.4176,6.1017,45.4749,-0.0551,-0.0981,-0.6299,215.6094
21:04:56:761,-1.1324,2.5528,7.2354,44.5767,-0.2717,0.103,-0.7775,216.2031
21:04:56:785,-1.5944,2.4942,9.0179,44.6505,-0.4669,0.4955,-0.9218,216.7812
21:04:56:803,-2.3474,2.2787,10.8183,44.6323,-0.6549,1.1163,-1.0502,217.4688
21:04:56:822,-3.3111,1.5137,11.9244,44.1969,-0.7545,1.6132,-1.0107,218.3438
21:04:56:840,-4.1131,0.6782,12.4955,43.9578,-0.6117,1.5054,-0.7513,219.3594
21:04:56:861,-4.2544,0.0928,13.0437,43.4371,-0.216,0.8644,-0.3937,220.4531
21:04:56:884,-3.7085,-0.3358,13.3837,42.4982,0.2229,0.226,-0.0912,221.9531
21:04:56:903,-2.7688,-0.1909,12.6906,43.3299,0.3705,-0.1351,0.0053,222.5625
21:04:56:921,-2.3211,-0.0162,11.9364,42.6385,0.0871,-0.3303,-0.1175,222.8125
21:04:56:945,-3.3578,-0.4711,13.2401,44.0288,-0.2855,-0.263,-0.1402,222.8594
21:04:56:967,-4.41,-1.5544,15.4703,42.6727,-0.2008,0.1078,0.1427,222.9375
21:04:56:984,-4.319,-2.3086,14.9854,40.9514,0.2426,0.3956,0.543,223.1094
21:04:57:007,-3.5589,-1.9363,11.4157,40.6401,0.5164,0.1988,0.8625,223.1094
21:04:57:021,-2.3941,-1.4563,8.4157,41.021,0.4408,-0.3572,0.9755,222.7188
21:04:57:040,-2.005,-1.2444,7.5694,41.635,0.143,-0.8166,0.9632,221.9375
21:04:57:061,-2.4503,-1.2755,10.1539,40.2915,-0.0884,-0.8313,0.992,220.9531
21:04:57:085,-2.4599,-0.9762,9.45,39.9385,-0.0091,-0.553,1.1014,219.8906
21:04:57:102,-2.084,-0.5058,7.6221,41.3789,0.204,-0.3274,1.2447,218.8125
21:04:57:121,-1.4173,0.0652,6.2921,39.6885,0.293,-0.2286,1.3704,217.7031
21:04:57:142,-0.9193,0.5118,5.7606,39.5606,0.2852,-0.2462,1.4144,216.375
21:04:57:169,-0.6583,0.6913,5.7989,38.6667,0.2783,-0.3825,1.3653,214.8906
21:04:57:186,-0.4572,0.7033,6.2011,39.4363,0.294,-0.5066,1.2905,213.3125
21:04:57:200,-0.3195,0.7536,6.5638,38.6739,0.3334,-0.5362,1.2125,211.0625
21:04:57:220,-0.1938,0.8493,6.8499,39.1831,0.3683,-0.4989,1.1155,210.3281
21:04:57:240,0.0636,1.017,7.4126,37.3732,0.3593,-0.4664,0.9896,208.9375
21:04:57:260,0.1725,1.0888,8.3942,36.9731,0.314,-0.447,0.8159,207.7188
21:04:57:283,0.2084,0.9918,9.3004,36.7648,0.2898,-0.3777,0.6117,206.5469
21:04:57:301,0.3341,0.8865,9.6763,37.2126,0.2922,-0.2249,0.3999,205.5469
21:04:57:321,0.3473,0.5848,9.9097,37.7309,0.2354,-0.0393,0.1544,204.8125
21:04:57:341,0.0947,0.0976,10.8854,35.7378,0.0735,0.0867,-0.0845,204.25
21:04:57:360,-0.1639,-0.6315,12.013,37.1202,-0.0945,0.2388,-0.236,203.9375
21:04:57:383,0.0779,-1.1007,12.1196,37.1304,-0.1481,0.4172,-0.2493,203.9062
21:04:57:405,1.1326,-1.0971,11.096,37.1304,-0.0914,0.5024,-0.1343,204.0781
21:04:57:421,2.2662,-0.6243,9.6823,37.6634,-0.0578,0.3594,-0.0722,204.3594
21:04:57:440,2.3919,-0.2867,9.4907,35.5136,-0.1814,-0.0438,-0.2366,204.5469
21:04:57:462,1.1864,-0.841,11.685,36.9516,-0.4828,-0.5271,-0.6174,204.5938
21:04:57:484,-0.8199,-2.0165,14.3282,37.1427,-0.7947,-0.5309,-0.892,204.9062
21:04:57:503,-2.0278,-2.4942,14.3869,38.4956,-0.8189,0.0998,-0.7812,205.6406
21:04:57:524,-0.9181,-1.9016,11.5665,36.8146,-0.5111,0.6383,-0.3122,206.625
21:04:57:542,0.8884,-0.7189,9.4453,38.4485,-0.1872,0.398,0.1051,207.5
21:04:57:566,1.7347,0.3322,8.9676,36.6387,-0.0208,-0.2704,0.1773,207.8125
21:04:57:584,1.5276,0.6423,8.9293,36.399,0.029,-0.6398,-0.0371,207.6562
21:04:57:600,0.9255,0.5836,8.1895,39.3807,0.0258,-0.5008,-0.3165,207.4844
21:04:57:620,0.4837,0.6662,7.0534,38.0817,0.0027,-0.1753,-0.5026,207.5625
21:04:57:640,0.1402,0.75,6.0191,38.5292,-0.0176,0.0193,-0.6118,207.9375
21:04:57:662,-0.3806,0.7668,5.7498,37.6262,-0.0668,0.0183,-0.6752,208.5
21:04:57:682,-0.699,0.7835,6.1413,36.8171,-0.1055,-0.0595,-0.6632,209.2031
21:04:57:703,-0.7972,0.9427,6.3412,38.1293,-0.069,-0.0725,-0.5985,209.9688
21:04:57:721,-0.7876,1.2647,6.1568,38.4789,-0.0064,-0.0054,-0.5343,210.6875
21:04:57:740,-0.6116,1.5485,6.1413,39.8524,-0.0149,0.0769,-0.4962,211.375
21:04:57:761,-0.5745,1.7184,6.911,38.3075,-0.1068,0.0798,-0.5127,211.6875
21:04:57:784,-0.5709,1.7807,8.3044,38.3707,-0.236,-0.0406,-0.5796,212.2656
21:04:57:804,-0.9432,1.9112,9.7445,39.2792,-0.2003,-0.1527,-0.5194,213.7344
21:04:57:821,-0.9193,2.0488,11.3151,38.3446,-0.1158,-0.125,-0.386,214.3906
21:04:57:842,-0.2884,2.3397,12.4847,39.2453,0.004,0.006,-0.3689,214.3906
21:04:57:865,0.1258,2.5265,12.784,38.6394,0.0834,0.1216,-0.4672,214.9531
21:04:57:880,-0.0753,2.2009,12.8737,37.1438,0.0735,0.2396,-0.5487,215.4062
21:04:57:901,-0.6356,1.4958,13.0413,37.5012,0.0663,0.3975,-0.509,215.8281
21:04:57:920,-0.9109,0.9296,12.7289,39.0704,0.0658,0.4335,-0.4094,216.3281
21:04:57:940,-1.1431,0.5249,12.2058,38.2256,0.0245,0.2263,-0.2797,216.9531
21:04:57:960,-1.452,0.422,12.1615,38.1256,-0.0115,-0.2337,-0.1468,217.5156
21:04:57:986,-2.1547,0.3011,13.3023,40.6712,0.0589,-0.7455,0.0117,217.9844
21:04:58:002,-2.8945,-0.2173,15.0896,37.3539,0.2991,-0.822,0.2668,218.2812
21:04:58:026,-3.2033,-0.6135,15.3865,39.5956,0.5942,-0.3405,0.5813,218.4531
21:04:58:039,-2.6934,-0.6398,12.9108,39.9398,0.6533,0.1424,0.8039,218.2031
21:04:58:060,-2.1164,-0.3178,10.1898,38.6651,0.425,0.1024,0.9209,217.9375
21:04:58:085,-1.7189,-0.2664,9.7589,38.0247,0.2186,-0.2742,1.0143,217.125
21:04:58:103,-1.4675,-0.3023,11.1882,38.7837,0.306,-0.5311,1.1102,216.125
21:04:58:120,-1.0988,-0.319,11.6491,37.1893,0.5923,-0.5285,1.1869,215.0781
21:04:58:141,-0.6367,-0.1215,10.2329,37.9395,0.7713,-0.3706,1.2255,213.8906
21:04:58:161,-0.134,0.2867,8.2278,37.9086,0.7569,-0.2289,1.2053,212.6094
21:04:58:184,0.3808,0.6207,6.8535,36.5091,0.6709,-0.1524,1.0974,211.3125
21:04:58:204,0.7076,0.677,6.0694,39.0579,0.5915,-0.0872,0.9581,209.9219
21:04:58:219,0.8489,0.598,5.4637,37.7773,0.542,-0.0531,0.8487,209.25
21:04:58:242,0.8584,0.5656,5.0184,37.5009,0.5089,-0.1018,0.7715,207.9844
21:04:58:269,0.9183,0.6028,4.8915,36.0437,0.4767,-0.2076,0.6942,206.9375
21:04:58:287,0.9746,0.598,5.0148,38.5196,0.4325,-0.2968,0.6162,205.9688
21:04:58:307,0.9985,0.5094,5.3787,36.5837,0.347,-0.2837,0.5472,205.0781
21:04:58:319,1.0596,0.586,5.8635,37.0636,0.2115,-0.2028,0.466,204.2969
21:04:58:340,1.2666,0.8278,6.6776,37.8959,0.0224,-0.0558,0.3179,203.6406
21:04:58:360,1.4893,1.0098,7.6508,36.2757,-0.2117,0.205,0.0881,202.75
21:04:58:383,1.554,1.072,8.4612,37.7875,-0.4842,0.4452,-0.1868,202.3281
21:04:58:400,1.3887,0.7596,9.3411,37.632,-0.7241,0.5216,-0.4259,202.0781
21:04:58:423,1.0619,0.0461,10.5849,37.2959,-0.9047,0.4787,-0.57,202.1094
21:04:58:446,0.3078,-0.8326,12.0693,37.0651,-0.9681,0.4398,-0.4853,202.4375
21:04:58:470,0.3856,-1.5125,12.9551,36.6235,-0.8629,0.2913,-0.2283,202.9688
21:04:58:485,2.6038,-1.6909,12.6236,37.3434,-0.661,-0.059,-0.0765,203.5938
21:04:58:553,1.5839,-1.4611,12.6008,38.704,-0.5641,-0.4507,-0.1955,204
21:04:58:554,0.054,-1.8465,13.6423,37.4164,-0.6756,-0.5378,-0.3149,204.125
21:04:58:554,0.3724,-2.1219,13.2652,37.2413,-0.7169,-0.1365,-0.1591,204.2812
21:04:58:570,2.2004,-1.1905,11.7042,38.5248,-0.5883,0.222,0.1539,204.6562
21:04:58:585,4.2271,0.2963,10.6735,38.8505,-0.4115,0.0486,0.3086,205.0156
21:04:58:601,5.0615,1.4419,11.0625,38.0249,-0.2972,-0.4885,0.0497,205.0156
21:04:58:620,4.2965,1.1857,11.0925,37.9383,-0.2317,-0.6488,-0.5354,204.7031
21:04:58:643,2.7666,0.7009,9.7661,40.2839,-0.1971,-0.2635,-1.1034,204.5156
21:04:58:659,1.3995,0.5357,7.7657,40.1132,-0.2362,0.3376,-1.4102,205.1406
21:04:58:679,0.3389,0.7117,6.5949,38.9533,-0.338,0.6953,-1.484,206.4219
21:04:58:707,0.03,0.9248,6.1903,42.277,-0.3606,0.6833,-1.3631,207.2188
21:04:58:721,-0.0789,1.157,6.4106,39.8741,-0.236,0.3733,-1.1889,208.8125
21:04:58:739,-0.122,1.3366,6.5854,40.3393,-0.0234,0.0332,-1.0544,210.4531
21:04:58:761,-0.3997,1.5437,6.5938,42.0514,0.1308,-0.1317,-0.9767,211.9062
21:04:58:786,-0.5673,1.6311,7.172,43.0714,0.1345,-0.1335,-0.9285,213.1875
21:04:58:802,-0.4823,1.6538,7.8651,42.0031,0.0855,-0.0166,-0.8912,214.2812
21:04:58:820,-0.444,1.7568,8.4098,41.0254,0.0469,0.1592,-0.8829,215.375
21:04:58:839,-0.6116,1.7556,9.1867,42.5789,-0.041,0.3661,-0.9135,216.4062
21:04:58:858,-1.3454,1.5437,10.2617,42.4847,-0.2091,0.6558,-0.9559,217.375
21:04:58:882,-2.2325,1.1103,11.2385,45.4878,-0.2959,0.9251,-0.9045,218.375
21:04:58:903,-2.0721,0.7452,11.7461,44.2283,-0.1523,0.8801,-0.6869,219.4375
21:04:58:920,-1.7225,0.6039,11.5964,43.4206,0.1617,0.5674,-0.424,220.9531
21:04:58:940,-1.7321,0.5932,11.6443,46.7374,0.4173,0.0979,-0.2304,221.7188
21:04:58:961,-1.2269,0.2879,12.201,43.7535,0.4738,-0.2161,-0.0621,222.2031
21:04:58:986,-0.6846,0.0257,12.3542,43.7741,0.4101,-0.2046,0.0569,222.4531
21:04:59:002,-0.6344,0.2891,11.9268,46.2811,0.2802,-0.0097,0.1139,222.5469
21:04:59:021,-0.8115,0.5034,11.7892,44.5677,0.0698,0.1283,0.0926,222.5
21:04:59:040,-1.6555,0.3334,12.8366,44.8662,-0.1774,0.0652,0.0063,222.375
21:04:59:062,-2.5102,-0.2592,14.2576,45.088,-0.2807,-0.0944,-0.0035,222.2812
21:04:59:087,-2.9891,-0.9032,13.7764,45.3669,-0.0951,-0.0885,0.1219,222.2656
21:04:59:105,-3.2548,-0.8051,11.606,44.6914,0.1965,0.0356,0.3445,222.2656
21:04:59:124,-2.9579,-0.5477,10.1096,44.8871,0.3183,-0.0472,0.6031,222.125
21:04:59:140,-2.5473,-0.3645,10.1994,45.7295,0.2722,-0.3983,0.7842,221.7344
21:04:59:162,-2.0984,-0.264,10.9704,43.9374,0.2615,-0.6086,0.9422,220.2344
21:04:59:186,-1.7261,-0.155,10.6376,43.8906,0.4051,-0.3615,0.9861,219.25
21:04:59:201,-1.4101,-0.003,9.1951,45.1112,0.4924,-0.0683,1.0647,219.25
21:04:59:221,-0.8415,0.2508,7.3084,45.3899,0.4623,0.1426,1.1592,218.2031
21:04:59:242,-0.0992,0.574,5.9054,42.246,0.3923,0.1378,1.2231,217.0938
21:04:59:262,0.8201,0.6973,5.3188,42.9211,0.3638,-0.0305,1.2032,214.5938
21:04:59:286,1.3205,0.8877,5.3284,44.281,0.3971,-0.2595,1.1137,214.5938
21:04:59:303,1.4881,1.0565,5.7091,41.989,0.4562,-0.4632,0.9629,213.1719
21:04:59:321,1.433,0.9798,6.2167,44.7475,0.4815,-0.5165,0.7792,211.875
21:04:59:339,1.1553,0.7488,6.5123,42.6581,0.4242,-0.4473,0.6175,210.6094
21:04:59:360,0.8465,0.5932,6.9002,42.6164,0.3041,-0.3897,0.4889,209.5312
21:04:59:385,0.631,0.5525,7.8196,41.8733,0.2112,-0.3311,0.3856,208.6719
21:04:59:404,0.5436,0.4531,8.7581,41.1818,0.1694,-0.1935,0.2753,208.0312
21:04:59:421,0.4814,0.2316,9.0023,42.4993,0.0905,-0.0411,0.1653,207.5
21:04:59:439,0.8932,-0.337,9.2513,40.5782,-0.1001,0.047,0.0359,207.0781
21:04:59:459,1.4845,-0.9331,10.4903,40.5782,-0.3633,0.1994,-0.088,206.7812
21:04:59:486,2.3847,-1.6514,12.4679,41.2442,-0.5132,0.4873,-0.1516,206.5625
21:04:59:501,2.781,-2.0165,13.0832,41.7659,-0.5193,0.7735,-0.1242,206.5938
21:04:59:521,3.1245,-1.424,11.7652,42.5741,-0.5164,0.7735,-0.0946,206.7188
21:04:59:539,3.3736,-0.3478,9.893,42.0546,-0.6701,0.4404,-0.2786,206.8594
21:04:59:559,2.4853,0.5333,9.4668,41.2244,-1.0051,0.0505,-0.6214,206.9219
21:04:59:582,0.2324,0.1347,11.442,40.748,-1.261,-0.0952,-0.8105,207.0469
21:04:59:602,-1.7572,-1.2647,14.4731,41.6384,-1.0903,0.1554,-0.5628,207.5469
21:04:59:622,-1.6255,-1.5891,15.1674,41.6991,-0.5401,0.3155,-0.13,208.4375
21:04:59:639,0.5304,-0.7763,12.9851,39.8657,-0.0413,-0.0654,0.03,209.2969
21:04:59:660,2.2962,0.4292,10.853,41.3316,0.1148,-0.6299,-0.2464,209.5312
21:04:59:686,2.1812,0.7991,10.3419,41.4267,0.0386,-0.7181,-0.6957,209.6875
21:04:59:701,1.1015,0.2352,10.1671,40.6708,-0.0788,-0.2757,-0.9956,209.6406
21:04:59:719,0.0288,-0.2424,9.2621,41.6005,-0.1265,0.2462,-1.1013,209.9219
21:04:59:745,-0.9001,-0.3813,7.5323,41.3086,-0.135,0.4801,-1.0089,210.7344
21:04:59:757,-1.1838,-0.1933,6.0395,41.6489,-0.1529,0.3594,-0.7932,211.8906
21:04:59:779,-1.173,0.2652,5.7019,40.5442,-0.127,0.088,-0.5508,213.6875
21:04:59:800,-0.8929,0.6758,6.1604,40.1093,0.0112,-0.1234,-0.3399,214.7188
21:04:59:819,-0.3123,1.0493,6.413,40.0176,0.1641,-0.1751,-0.224,215.4844
21:04:59:842,0.1713,1.4311,6.2442,40.4795,0.2125,-0.0827,-0.1987,215.9844
21:04:59:860,0.5843,1.7304,5.9964,39.4276,0.1393,0.0002,-0.2693,216.2812
21:04:59:887,0.3892,1.8657,7.4988,41.4286,0.0083,0.0204,-0.3931,216.5
21:04:59:903,-0.3075,1.6011,8.8204,39.2608,-0.0876,0.0883,-0.5021,216.75
21:04:59:921,-0.93,1.3797,9.8044,39.3693,-0.1087,0.2705,-0.5085,217.1094
21:04:59:938,-0.6966,1.2276,10.1132,39.6862,-0.0392,0.4159,-0.3977,217.6406
21:04:59:959,-0.3183,1.2923,9.8175,38.3817,0.0727,0.4079,-0.2813,218.2344
21:04:59:979,0.139,1.4395,9.8726,38.9733,0.1145,0.2108,-0.2347,218.7344
21:05:00:005,0.1019,1.2791,11.3223,40.5766,0.024,-0.1575,-0.2938,219.0938
21:05:00:021,-0.7816,0.8338,13.325,38.9705,-0.1542,-0.3737,-0.3993,219.375
21:05:00:039,-1.5094,0.3669,14.4743,38.6503,-0.2831,-0.1117,-0.3753,219.6562
21:05:00:059,-2.0661,0.1694,13.5202,39.2627,-0.2826,0.4542,-0.2491,220.2969
21:05:00:084,-2.8789,0.0976,12.2584,38.3642,-0.2972,0.8313,-0.0882,220.7344
21:05:00:101,-3.3937,-0.0186,12.3374,37.3629,-0.387,0.8076,0.1691,221
21:05:00:125,-3.2213,-0.4914,13.015,37.1399,-0.3736,0.487,0.4793,221.0781
