Time,Acc_X,Acc_Y,Acc_Z,Meg,Gyr_X,Gyr_Y,Gyr_Z,Ore
14:43:09:705,-2.2552,2.2583,8.885,57.2826,-0.5337,0.0643,-0.0802,52.5156
14:43:09:739,-1.2616,2.5397,8.709,58.4762,0.135,-0.3176,0.1099,52.7344
14:43:09:767,-1.3227,2.6606,8.5103,57.4119,0.0008,-0.0574,0.0612,52.7344
14:43:09:786,-1.4927,2.809,8.3511,58.1405,-0.1569,0.1349,0.0013,52.7344
14:43:09:803,-1.7896,2.7791,8.6001,56.2899,-0.2213,0.1168,-0.0339,197.4219
14:43:09:818,-1.9955,2.6821,8.8192,57.6132,-0.1875,0.0034,-0.0147,197.375
14:43:09:838,-2.029,2.6869,9.0478,57.1944,-0.1012,-0.1354,0.0543,197.3594
14:43:09:868,-1.7106,2.8365,8.9485,57.8048,-0.012,-0.2116,0.1169,197.375
14:43:09:886,-1.3131,3.0724,8.5738,58.1918,0.0202,-0.2265,0.1304,197.3594
14:43:09:903,-1.179,3.2244,8.2613,57.8621,-0.0405,-0.2238,0.0902,197.2656
14:43:09:915,-1.2545,3.21,8.0734,59.8316,-0.1486,-0.2129,0.0428,197.1562
14:43:09:938,-1.2173,3.149,8.1608,56.3541,-0.2527,-0.1948,0.0135,197.0625
14:43:09:955,-0.9983,3.0101,8.4038,58.0051,-0.306,-0.174,-0.0067,197.0156
14:43:09:986,-1.1479,3.1286,8.4385,58.1723,-0.3023,-0.1218,-0.0541,197.0156
14:43:10:002,-1.4209,3.076,8.3679,60.7364,-0.3001,-0.0941,-0.047,197.0156
14:43:10:019,-1.9763,2.6821,8.7402,59.2639,-0.2836,0.0249,0.0394,197.0469
14:43:10:034,-2.3223,2.7515,8.5833,59.0684,-0.245,0.2324,0.2516,197.1094
14:43:10:054,-1.6686,3.2926,8.2565,58.908,-0.2211,0.3016,0.4149,197.125
14:43:10:077,-1.1443,4.2599,8.1225,60.1376,-0.2051,0.1789,0.3683,196.9375
14:43:10:104,-0.4273,4.7926,8.5773,60.4882,-0.1995,-0.0784,0.1576,196.4688
14:43:10:120,-0.7098,4.4897,9.5291,60.363,-0.1811,-0.247,-0.211,195.9844
14:43:10:133,-2.1894,3.6709,10.4424,60.6548,-0.126,-0.2417,-0.4523,195.5938
14:43:10:154,-3.2273,3.1059,10.8447,58.0595,-0.0493,-0.1309,-0.3652,195.8438
14:43:10:173,-3.323,3.1203,11.0506,57.7154,0.0399,-0.0805,-0.1114,196.3594
14:43:10:205,-2.6491,3.2112,11.108,58.2264,0.1308,-0.2017,0.0854,196.7969
14:43:10:212,-1.5154,3.1777,11.6395,58.8227,0.1646,-0.4172,0.1454,196.9375
14:43:10:236,-0.304,2.9874,12.3925,58.4901,0.1664,-0.4177,0.0926,196.8594
14:43:10:253,0.1713,2.736,12.2225,57.6581,0.1726,-0.2486,-0.0291,196.7656
14:43:10:270,-0.0442,2.3649,11.946,59.5136,0.1579,-0.1647,-0.2174,196.7188
14:43:10:291,-1.3526,1.5952,11.8191,57.5006,0.126,-0.2102,-0.2986,196.7969
14:43:10:318,-1.7872,0.2412,12.3961,60.5896,0.061,-0.2172,-0.1681,196.8906
14:43:10:329,-2.515,-0.4675,12.5637,59.7618,0.0983,0.0723,0.1272,197.2656
14:43:10:354,-2.0278,-0.1299,10.6459,59.4571,0.2591,0.5192,0.5653,197.5781
14:43:10:375,-0.4165,1.017,8.2446,58.8219,0.4093,0.6199,0.8146,197.6562
14:43:10:390,0.7782,1.9064,6.5279,58.5286,0.477,0.2638,0.6828,197.2344
14:43:10:413,0.8872,1.898,6.067,59.2786,0.3872,-0.3591,0.3491,196.3125
14:43:10:428,0.5197,1.5449,6.8547,60.2309,0.1491,-0.8254,0.058,195.0156
14:43:10:449,0.1665,1.1414,8.4983,60.415,-0.1268,-0.9213,-0.1316,194.7188
14:43:10:470,0.0193,0.8074,9.8319,59.3067,-0.285,-0.6829,-0.24,194.7812
14:43:10:488,0.0923,0.8601,10.0653,58.7996,-0.2711,-0.3,-0.2635,195.0781
14:43:10:514,0.3114,1.2983,8.8383,60.6604,-0.1609,0.022,-0.277,195.4219
14:43:10:528,0.4502,1.995,7.4078,59.3067,-0.1198,0.0835,-0.3354,195.4219
14:43:10:550,0.5975,2.6235,7.2869,58.6963,-0.1702,0.0052,-0.4307,195.7656
14:43:10:568,0.7184,3.0173,8.2565,56.8827,-0.1342,-0.067,-0.4909,196.0781
14:43:10:587,0.7734,3.5081,8.7809,58.7153,0.1193,-0.0963,-0.4086,196.9219
14:43:10:618,1.5384,4.2359,8.5917,58.0125,0.4549,-0.1458,-0.2472,197.4844
14:43:10:629,2.9486,4.6178,8.0267,59.0293,0.7241,-0.2049,-0.2821,197.4844
14:43:10:654,3.2538,4.4227,7.2031,58.1323,0.7585,-0.2374,-0.5897,197.9688
14:43:10:667,2.2698,3.8625,7.2198,58.1939,0.5939,-0.3037,-0.9226,198.2656
14:43:10:686,0.8932,3.1873,8.2505,58.9744,0.4075,-0.3634,-1.0749,198.6406
14:43:10:712,0.0049,2.5229,9.3219,57.6731,0.2927,-0.3602,-1.0573,200.4219
14:43:10:727,-0.7984,2.3613,10.6268,56.8812,0.2195,-0.3224,-0.9375,200.4219
14:43:10:750,-1.5765,2.7671,11.5881,56.6536,0.1587,-0.0595,-0.742,202.375
14:43:10:769,-2.1343,3.2232,11.3738,57.1258,0.0812,0.3898,-0.5988,203.5938
14:43:10:786,-2.6395,3.6099,10.1096,55.4743,-0.0583,0.7584,-0.5181,204.5625
14:43:10:806,-2.9591,3.8301,9.5207,54.6472,-0.2565,0.7821,-0.4701,204.9531
14:43:10:827,-3.2955,3.5428,10.3826,54.4843,-0.3894,0.5629,-0.5079,205.5625
14:43:10:851,-3.8893,3.0317,11.6216,54.3572,-0.3111,0.3666,-0.5077,206.0156
14:43:10:871,-4.4699,2.4989,11.4983,55.184,-0.0895,0.3394,-0.4075,206.3906
14:43:10:886,-4.8087,2.1207,10.4388,53.8886,0.0077,0.3759,-0.2192,206.8438
14:43:10:905,-4.7895,1.8872,10.7357,54.8147,-0.0277,0.4159,0.0348,207.3438
14:43:10:926,-4.8996,1.7125,11.0529,55.244,0.0754,0.5549,0.3315,207.7344
14:43:10:948,-4.4567,1.4527,11.0027,55.244,0.2663,0.7557,0.724,207.9219
14:43:10:967,-3.1949,1.6622,9.6583,56.4302,0.5388,1.1349,1.0276,207.8125
14:43:10:992,-1.7381,2.3362,7.4221,55.2304,0.7649,1.3387,1.1233,207.3594
14:43:11:006,-0.881,2.3781,5.4948,56.4989,0.7542,1.0708,0.9603,205.8281
14:43:11:027,-0.7158,2.8365,5.7402,56.1786,0.4072,0.1576,0.593,204.3906
14:43:11:053,-0.9468,1.7639,8.8611,57.0014,0.1244,-0.8848,0.0724,203.0781
14:43:11:067,-2.1367,0.0102,11.0529,55.9735,0.0618,-1.206,-0.1761,202.0781
14:43:11:086,-2.5234,-0.641,11.5102,54.9685,0.1531,-0.9184,0.0287,201.9688
14:43:11:110,-1.6722,-0.0569,9.7888,54.9006,0.2786,-0.3325,0.335,202.1875
14:43:11:133,-0.7062,0.8087,7.5131,55.1686,0.2602,-0.1511,0.4561,202.5469
14:43:11:151,-0.4368,1.5784,6.3831,54.065,0.0197,-0.5623,0.3621,202.4688
14:43:11:166,-0.0921,1.9579,7.6292,54.368,-0.22,-1.1735,0.1805,202.0469
14:43:11:194,0.4347,2.0776,9.9397,54.6324,-0.1276,-1.471,-0.0086,201.6562
14:43:11:205,0.7974,1.9459,10.4712,55.2108,0.3116,-1.1975,-0.1902,201.5156
14:43:11:227,0.3209,1.8022,8.9389,54.4892,0.8357,-0.6736,-0.2861,201.7188
14:43:11:250,-0.4177,2.3385,6.4669,55.4894,1.1175,-0.2358,-0.1732,202.125
14:43:11:267,-0.8654,3.0448,4.2343,55.1283,0.9886,-0.2941,0.0151,202.625
14:43:11:287,-0.5039,3.3489,3.6393,55.2012,0.6211,-0.3644,0.1355,203.0156
14:43:11:307,-0.0131,3.7858,3.844,54.264,0.2618,-0.2984,0.1395,203.1875
14:43:11:328,-0.1447,3.9391,5.1476,54.7927,-0.0634,-0.3801,0.054,203.1719
14:43:11:349,-0.4668,3.4806,7.4856,56.4908,-0.3883,-0.3413,-0.0541,203.0938
14:43:11:368,-1.2209,3.3094,10.4867,55.2984,-0.6434,-0.1738,-0.0483,203.0625
14:43:11:390,-1.2916,3.4387,13.1323,52.85,-0.6461,0.0423,0.1842,203.1406
14:43:11:406,-0.1507,4.1917,13.7285,54.685,-0.4242,0.3429,0.3901,203.3125
14:43:11:426,0.8848,4.6753,12.7708,53.3963,-0.1918,0.3645,0.2657,203.2812
14:43:11:453,1.2523,4.9817,12.1004,54.0095,-0.1404,0.0787,-0.0336,202.875
14:43:11:468,1.2319,4.4347,12.8666,53.5548,-0.2336,-0.2052,-0.3993,202.3906
14:43:11:494,0.3808,3.4818,14.3557,53.2826,-0.2195,-0.259,-0.611,202.1875
14:43:11:506,-0.3171,2.821,14.6251,53.6466,0.0479,-0.1575,-0.5141,202.4531
14:43:11:527,-0.1926,2.8186,13.252,54.2763,0.3651,-0.0257,-0.3119,203.0938
14:43:11:551,0.3197,2.9969,10.6747,52.6561,0.4549,0.1815,-0.1982,203.8281
14:43:11:569,0.631,3.1609,8.7809,53.7693,0.3244,0.0356,-0.1868,204.3125
14:43:11:593,0.8548,2.7791,8.7426,51.7784,0.1193,-0.4646,-0.2331,204.6406
14:43:11:605,0.9566,2.1745,9.7565,51.691,0.0125,-0.8281,-0.2083,204.8438
14:43:11:628,0.8572,1.9974,10.0115,51.7127,0.1249,-0.8867,-0.0877,205.2344
14:43:11:652,1.0643,2.299,9.0598,52.1508,0.3603,-0.7668,0.0279,205.6562
14:43:11:731,1.5743,2.6558,7.1444,52.0483,0.481,-0.5623,0.0066,206.1094
14:43:11:732,0.6753,3.0831,4.749,52.1508,-0.0858,-0.2185,-0.2318,206.2344
14:43:11:740,-0.2309,3.6542,5.6085,52.3789,-0.2266,-0.3125,-0.1833,206.4688
14:43:11:740,-0.5961,4.2348,6.7829,51.6087,0.0117,-0.5301,-0.1135,206.7969
14:43:11:751,-0.6918,4.649,6.9792,50.6168,0.3792,-0.6254,-0.048,207.0938
14:43:11:768,-0.2764,5.0272,6.7913,51.3397,0.5657,-0.4398,0.07,207.3438
14:43:11:787,0.2778,5.4498,6.9433,50.0839,0.5681,-0.051,0.1637,207.5469
14:43:11:814,0.7663,5.6749,7.2785,51.3714,0.5135,0.3727,0.172,207.5625
14:43:11:828,0.279,6.2207,8.0722,50.793,0.4429,0.6015,0.0623,207.4688
14:43:11:849,0.8261,6.3405,8.9927,50.0813,0.38,0.8276,0.066,207.2031
14:43:11:870,2.0376,6.3201,10.2653,49.8075,0.3302,1.1557,-0.0608,206.8906
14:43:11:889,1.6485,6.0472,10.2413,50.052,0.449,1.263,-0.3037,206.4375
14:43:11:914,0.0408,5.3816,10.0103,49.1157,0.718,0.6388,-0.4682,206.1875
14:43:11:928,-0.9205,4.3904,10.1108,49.3834,1.0253,-0.1461,-0.4224,206.1875
14:43:11:947,-0.5937,4.0875,9.2322,49.5619,1.122,-0.2989,-0.268,206.4844
14:43:11:965,-0.0334,4.3186,7.2821,49.3716,0.7529,0.1983,-0.2696,206.4844
14:43:11:987,-0.0825,4.5592,5.4409,48.2548,0.0107,0.6878,-0.4166,207.4062
14:43:12:006,-1.0366,4.0815,6.2825,46.8388,-0.7601,0.6601,-0.6057,207.4062
14:43:12:026,-1.7261,2.7623,8.6695,46.3572,-1.0402,0.4052,-0.6312,207.6406
14:43:12:049,-2.4994,1.8573,9.4967,47.5615,-0.8235,0.2596,-0.496,207.8594
14:43:12:066,-2.7377,1.7316,8.6228,46.2552,-0.5508,0.1818,-0.1655,208.3125
14:43:12:084,-2.2229,2.2404,7.6783,46.7238,-0.5337,0.0614,0.1323,208.875
14:43:12:105,-1.9727,2.6306,8.0111,46.3369,-0.7308,-0.1112,0.2356,209.3438
14:43:12:124,-2.2768,2.3194,9.4105,47.611,-0.905,-0.2494,0.2774,209.4375
14:43:12:147,-2.4946,1.7448,10.8806,46.8557,-0.9191,-0.2624,0.4375,209.25
14:43:12:165,-2.2265,1.6358,11.4851,47.6006,-0.7217,-0.1649,0.7206,208.7188
14:43:12:185,-1.373,2.0369,10.701,48.8004,-0.4256,-0.0387,0.9688,208.5312
14:43:12:205,-0.4129,2.6953,9.061,46.3901,-0.2306,0.0745,1.0604,207.9062
14:43:12:226,0.358,3.1454,7.6604,45.3974,-0.196,0.1509,0.996,206.9375
14:43:12:250,0.9829,3.5009,6.8009,48.0819,-0.2788,0.1765,0.8194,205.7969
14:43:12:268,0.9422,3.6218,6.7817,46.1572,-0.3814,0.088,0.5632,204.5781
14:43:12:287,0.5077,3.3214,7.4712,45.9267,-0.408,-0.055,0.3158,203.4688
14:43:12:305,-0.1256,2.9251,8.0506,46.0134,-0.3393,-0.0611,0.2061,202.6719
14:43:12:327,-0.4213,2.9646,8.1057,47.6181,-0.2162,0.0404,0.2415,202.3906
14:43:12:346,-0.0741,3.3202,8.0937,48.4097,-0.0759,0.1118,0.2955,202.0312
14:43:12:365,0.2611,3.708,8.0614,47.6725,0.0751,0.1653,0.2609,201.8125
14:43:12:385,0.3497,3.969,7.798,46.9014,0.2165,0.2316,0.1704,201.5469
14:43:12:405,0.1905,4.1474,7.2043,47.8354,0.2903,0.2494,0.0814,201.1875
14:43:12:425,-0.201,4.4179,6.8846,48.2018,0.2067,0.1685,0.021,200.8438
14:43:12:458,-0.4596,4.5197,7.561,49.6618,-0.013,-0.0097,-0.023,200.6094
14:43:12:465,-0.462,4.4239,9.1735,47.5386,-0.2349,-0.3077,-0.0701,200.4062
14:43:12:486,-0.28,4.1342,11.63,46.6677,-0.3619,-0.607,-0.105,200.3906
14:43:12:511,-0.1543,3.6625,13.9392,47.1556,-0.3316,-0.6441,-0.1228,200.4844
14:43:12:524,0.1138,3.0436,14.5317,45.8292,-0.1638,-0.3972,-0.076,200.6875
14:43:12:545,0.4814,2.6701,13.4699,47.817,-0.0434,-0.1692,-0.0033,200.9844
14:43:12:577,0.7447,2.6426,12.6367,47.4166,-0.0863,-0.2291,0.0154,201.2188
14:43:12:585,0.5005,2.3014,13.252,46.7863,-0.2083,-0.3634,-0.0501,201.3281
14:43:12:611,-0.1028,1.5592,13.6962,48.1391,-0.1622,-0.0696,-0.0091,201.3438
14:43:12:625,-0.3267,1.3593,12.2441,47.3776,0.0794,0.3685,0.242,201.4219
14:43:12:645,0.6585,1.7077,10.0019,47.592,0.371,0.3504,0.5302,201.5469
14:43:12:671,2.2267,2.5241,8.0985,48.2524,0.5441,-0.2097,0.58,201.4062
14:43:12:686,3.4741,3.0987,7.4078,49.7474,0.4868,-0.9429,0.2838,200.8438
14:43:12:705,3.7231,2.8377,8.1799,48.643,0.2565,-1.2252,-0.1809,200.1719
14:43:12:725,3.0443,2.2703,8.5534,49.5838,0.0794,-0.9218,-0.5854,199.75
14:43:12:747,1.8808,1.9579,7.2953,48.5424,-0.0298,-0.3769,-0.8227,200.2656
14:43:12:767,1.1912,1.9471,5.4421,48.7475,-0.2211,0.0486,-0.9277,201.1094
14:43:12:785,0.6573,1.9639,4.4162,47.921,-0.4876,0.2468,-0.9948,202.1406
14:43:12:804,0.0468,1.8525,4.4785,45.6037,-0.6956,0.2529,-1.0243,203.2031
14:43:12:825,-0.5146,1.7197,4.8687,48.911,-0.7436,0.1986,-0.9838,203.75
14:43:12:849,-0.8798,1.8633,5.2147,49.1283,-0.6693,0.1232,-0.8661,204.8125
14:43:12:865,-0.9564,2.3589,5.4888,46.9933,-0.563,0.034,-0.734,205.9531
14:43:12:885,-0.4811,3.07,6.2143,48.1535,-0.5143,-0.104,-0.6776,207
14:43:12:905,0.224,3.7954,8.3667,47.6844,-0.4876,-0.1873,-0.7878,207.9062
14:43:12:925,0.3952,3.9606,9.5709,47.2838,-0.4085,-0.0222,-1.044,208.6719
14:43:12:950,-0.6487,3.7834,9.8092,46.3711,-0.4429,0.3096,-1.2446,209.5312
14:43:12:968,-2.424,3.2005,10.683,47.4674,-0.5233,0.5885,-1.2387,210.6094
14:43:12:985,-4.1143,2.9335,11.5892,47.413,-0.4946,0.7296,-0.9503,211.8438
14:43:13:007,-4.5596,3.0029,12.3267,48.041,-0.3284,0.6487,-0.4888,213.2188
14:43:13:026,-4.1538,3.216,12.6882,47.7153,-0.0802,0.3709,-0.072,214.8125
14:43:13:054,-3.1543,3.483,12.9432,46.8969,0.147,0.1781,0.2215,215.2188
14:43:13:068,-2.7664,3.6937,12.2441,46.8969,0.2645,0.1791,0.3485,215.2344
14:43:13:088,-3.2081,3.7224,11.952,46.5665,0.2144,0.2018,0.4218,214.9531
14:43:13:104,-3.4846,3.5129,12.3051,48.2917,0.1174,0.3291,0.527,214.5625
14:43:13:131,-3.7504,3.2184,12.4176,50.0595,0.0874,0.5088,0.6809,214.0469
14:43:13:155,-3.6223,2.9898,11.7892,50.0595,0.1558,0.5216,0.8993,213.3906
14:43:13:168,-2.9699,3.1562,11.4504,48.045,0.2639,0.2396,1.0849,212.5156
14:43:13:190,-2.1331,3.1286,11.4348,47.8442,0.4059,-0.1644,1.1262,211.4531
14:43:13:205,-1.3706,2.8006,11.2541,50.4674,0.5284,-0.5423,1.0633,210.1875
14:43:13:226,-0.7744,2.1721,11.041,49.5239,0.5585,-0.7501,0.939,209.5469
14:43:13:251,-0.5386,1.4814,10.7597,49.7308,0.5169,-0.701,0.8335,208.4219
14:43:13:268,-0.2944,1.0289,9.7565,49.8411,0.4613,-0.4787,0.7949,207.4219
14:43:13:286,0.0025,0.8948,8.5642,50.4857,0.375,-0.2896,0.7904,206.9844
14:43:13:306,0.4801,0.835,7.8124,51.0946,0.2796,-0.1476,0.7408,205.4062
14:43:13:326,0.5292,0.7823,6.9026,50.7276,0.2322,0.1948,0.5342,204.5625
14:43:13:351,-0.3147,1.0289,6.1436,51.4266,0.2586,0.3195,0.4916,203.75
14:43:13:370,-0.1663,1.2133,5.6373,52.2454,0.2373,0.2753,0.5696,203.0156
14:43:13:386,0.1007,1.9232,5.915,51.541,0.1944,0.0952,0.6439,201.75
14:43:13:406,1.2319,2.3781,7.0486,53.3871,0.1851,-0.1205,0.5741,201.75
14:43:13:426,1.3971,2.712,8.0075,51.8484,0.2461,-0.178,0.327,200.2969
14:43:13:451,1.1972,2.6055,8.1344,51.4627,0.3079,-0.0811,0.095,200.2969
14:43:13:470,0.5987,2.5397,7.7382,50.8135,0.3047,0.0545,-0.0421,199.6562
14:43:13:485,0.3221,2.8018,7.6759,52.7251,0.2322,0.1133,-0.065,199.3281
14:43:13:504,0.6932,3.2184,7.7298,52.6419,0.1622,0.0217,-0.0951,199.2344
14:43:13:524,1.1062,3.5045,8.3224,51.6352,0.0503,-0.2012,-0.2126,199.25
14:43:13:545,0.9578,3.2519,9.5602,53.8842,-0.1135,-0.3969,-0.3854,199.3906
14:43:13:568,0.4442,2.5684,11.4528,54.2222,-0.2477,-0.3602,-0.4595,199.5
14:43:13:587,0.2934,2.0752,12.5697,53.2686,-0.2322,-0.0893,-0.3559,199.9219
14:43:13:605,0.722,2.0524,11.6383,52.3221,-0.1065,0.1267,-0.1753,200.5469
14:43:13:626,1.2714,2.4942,9.5697,51.8703,-0.1167,0.0143,-0.0856,201.0781
14:43:13:654,1.4259,2.8258,8.9688,53.9317,-0.4021,-0.4028,-0.1529,201.375
14:43:13:671,1.1218,2.3984,11.0913,53.0079,-0.7766,-0.728,-0.2547,201.4688
14:43:13:685,0.8608,1.7579,13.7141,51.5042,-0.8432,-0.5761,-0.2153,201.5312
14:43:13:716,1.1362,1.7113,13.6447,51.602,-0.4993,-0.1905,-0.0451,201.7812
14:43:13:724,2.0112,2.3685,10.7489,52.1378,-0.1161,-0.0941,0.0726,202.2812
14:43:13:838,3.1521,2.7384,8.6456,52.8018,-0.0346,-0.3897,-0.0435,202.7031
14:43:13:838,3.6297,2.7551,8.2242,53.0358,-0.2186,-0.554,-0.3247,202.8125
14:43:13:839,3.1557,2.5061,8.2374,52.9348,-0.4381,-0.3064,-0.6475,202.75
14:43:13:839,2.0651,2.1709,7.2186,53.0165,-0.5779,0.1514,-0.881,202.8906
14:43:13:840,1.0021,1.9243,5.9054,51.1427,-0.6639,0.4207,-0.9756,203.7812
14:43:13:854,0.2312,1.8202,5.2482,51.0419,-0.6996,0.3517,-0.9647,204.6719
14:43:13:865,-0.3064,1.7975,5.496,52.9189,-0.6551,0.1189,-0.8893,205.7188
14:43:13:884,-0.5757,1.8046,5.6684,51.3844,-0.5553,-0.0662,-0.7782,206.7812
14:43:13:904,-0.7038,1.9579,5.7845,50.1287,-0.4887,-0.1727,-0.6613,207.7812
14:43:13:924,-0.7098,2.159,6.1592,50.3863,-0.4962,-0.2124,-0.5681,208.7656
14:43:13:944,-0.5961,2.329,6.7589,50.9311,-0.5454,-0.1889,-0.5002,209.625
14:43:13:968,-0.5123,2.5851,7.7226,50.4574,-0.604,-0.1274,-0.4632,210.3281
14:43:13:987,-0.4668,2.6809,8.8395,50.5207,-0.6147,-0.0656,-0.4485,210.9844
14:43:14:003,-0.6164,2.8521,9.717,48.9348,-0.5984,-0.0598,-0.4105,211.5781
14:43:14:025,-0.7577,3.0496,10.8315,49.1326,-0.6165,-0.1309,-0.3569,212.125
14:43:14:044,-0.8989,3.1801,12.1687,49.4897,-0.6258,-0.2134,-0.2648,212.625
14:43:14:064,-1.288,3.3357,13.1144,48.752,-0.5899,-0.2339,-0.1039,213.0938
14:43:14:085,-1.865,3.301,13.9021,48.3161,-0.4993,-0.4382,0.1824,213.5
14:43:14:107,-1.4951,3.3034,15.2943,49.4116,-0.2405,-0.7647,0.5914,213.75
14:43:14:125,-0.8881,3.4842,14.8382,49.5742,0.2469,-0.9096,1.0053,213.6562
14:43:14:150,-0.9348,3.7918,11.1607,48.6024,0.6155,-0.9168,1.4101,213.0781
14:43:14:170,-0.863,4.4897,8.0327,49.4148,0.5246,-1.1176,1.7345,212.0625
14:43:14:187,-0.3447,5.2212,9.7086,49.6208,0.2538,-1.3535,1.8162,210.5156
14:43:14:203,0.2024,4.2144,12.7241,51.054,0.3723,-1.1756,1.6759,209.5938
14:43:14:224,0.7124,3.2424,12.256,51.5277,0.7207,-0.6369,1.6279,207.6406
14:43:14:244,2.3656,2.5277,11.5486,52.546,0.7356,-0.2824,1.5885,205.8594
14:43:14:266,4.5144,2.1877,12.4284,54.9048,0.6312,-0.0358,1.3342,204.0156
14:43:14:284,4.8532,2.5277,12.1734,53.6512,0.6525,0.0968,0.7944,202.1094
14:43:14:310,3.4705,2.408,11.9687,52.3622,0.6727,-0.0046,0.2058,200.3906
14:43:14:323,1.9502,1.2707,12.28,53.8034,0.7457,-0.2196,-0.162,199.0469
14:43:14:347,1.0284,0.185,12.4919,53.5698,0.9041,-0.3508,-0.2049,198.375
14:43:14:367,1.3421,-0.6231,12.0298,53.1663,1.1585,-0.4113,-0.0427,198.3125
14:43:14:384,2.2124,-0.9715,10.6543,52.3474,1.3915,-0.3831,0.1091,198.4688
14:43:14:404,2.8636,-0.9164,8.7976,53.719,1.4898,-0.2534,0.1501,198.5312
14:43:14:424,2.9198,-0.7727,7.1576,53.2338,1.4323,-0.1303,0.0601,198.2031
14:43:14:445,2.5009,-0.7679,5.8492,51.3188,1.2783,0.0446,-0.0603,197.8281
14:43:14:465,1.9705,-0.756,4.2582,53.1193,1.0344,0.2039,-0.0967,197.5312
14:43:14:484,1.6389,-0.4435,3.1641,52.3169,0.6562,0.2196,-0.0003,197.375
14:43:14:504,1.6629,0.1359,3.255,51.2205,0.2487,0.0492,0.1802,197.25
14:43:14:524,1.9825,0.7572,4.6796,52.4862,-0.0051,-0.2009,0.4063,197.0938
14:43:14:544,2.8947,1.4659,6.1819,51.7317,-0.0085,-0.3831,0.6266,196.8281
14:43:14:567,4.0463,2.2488,6.9026,53.1176,0.1089,-0.4238,0.7078,196.4375
14:43:14:584,4.5982,2.9144,6.5985,53.2116,0.18,-0.2739,0.6266,195.8281
14:43:14:604,4.3947,3.398,5.8168,52.1176,0.094,-0.096,0.4623,195.0938
14:43:14:624,4.2115,3.6577,5.2506,52.1293,-0.1598,-0.0108,0.2958,194.4531
14:43:14:645,4.0284,3.7595,5.4805,52.2368,-0.502,-0.0427,0.1334,193.9375
14:43:14:666,4.1038,3.7332,6.5746,51.285,-0.8309,-0.1618,-0.0288,193.625
14:43:14:685,4.1313,3.4243,8.1667,51.913,-1.0597,-0.2603,-0.2155,193.5781
14:43:14:704,3.6848,2.882,9.6464,52.1903,-1.2205,-0.2401,-0.3676,193.5781
14:43:14:726,3.0623,1.4683,12.3159,51.1607,-1.3297,0.063,-0.3066,194.3438
14:43:14:750,3.0946,0.9798,13.6614,51.9496,-1.2546,-0.0267,-0.1463,195.0625
14:43:14:768,3.8392,0.6686,14.8322,50.509,-1.0352,-0.243,0.0119,195.0625
14:43:14:785,4.2235,0.823,15.2081,51.9186,-0.7521,-0.4001,0.0758,196.3594
14:43:14:804,4.2798,0.9595,15.2296,50.3042,-0.4935,-0.3506,0.1019,196.3594
14:43:14:823,4.6149,1.1378,13.8985,50.2282,-0.1899,0.0612,0.1363,196.7812
14:43:14:845,5.4996,1.6837,10.5119,50.2642,0.0091,0.4691,0.0974,197.1406
14:43:14:868,6.638,2.3577,7.4042,50.5025,-0.0887,0.3813,-0.1772,197.1875
14:43:14:884,6.8619,2.5444,6.2849,50.5749,-0.4011,-0.1439,-0.6824,197.0625
14:43:14:903,5.9054,1.8968,7.306,49.5248,-0.7151,-0.5255,-1.1913,196.8906
14:43:14:923,4.2893,0.987,8.0446,49.6173,-0.873,-0.4038,-1.4952,197.0469
14:43:14:944,2.8157,0.7632,8.0841,49.1913,-0.9068,-0.0531,-1.5117,197.9375
14:43:14:970,2.3309,0.8781,7.7382,48.2378,-0.8269,0.2188,-1.3988,199.4375
14:43:14:985,2.101,1.1091,7.087,46.8816,-0.6842,0.3096,-1.3069,201.375
14:43:15:003,1.9634,1.23,6.498,48.383,-0.5428,0.2673,-1.2342,204.1875
14:43:15:023,1.7263,1.3773,6.2442,45.5281,-0.4208,0.2119,-1.1689,205.7656
14:43:15:044,1.5779,1.6215,6.0084,46.7778,-0.3459,0.2252,-1.1042,207.2812
14:43:15:067,1.5025,1.9148,5.8779,45.621,-0.3406,0.2284,-1.0744,208.7188
14:43:15:088,1.3983,2.1374,6.3663,47.9214,-0.3949,0.1834,-1.0536,210
14:43:15:105,1.3648,2.3541,7.4209,45.2147,-0.4527,0.1075,-1.0081,211.2656
14:43:15:124,1.3349,2.5744,8.6935,44.3291,-0.4927,0.0521,-0.9426,212.5156
14:43:15:144,1.2367,2.7599,10.3981,44.252,-0.486,0.0297,-0.8709,213.1406
14:43:15:169,1.0141,2.748,11.8095,42.8973,-0.3747,0.0617,-0.7958,214.2969
14:43:15:186,0.5316,2.5409,12.5876,44.3263,-0.2269,0.1429,-0.6688,215.4375
14:43:15:204,0.3856,2.4008,12.6822,44.3263,-0.0831,0.2425,-0.4358,216.5156
14:43:15:229,0.54,2.5672,12.6271,43.956,0.0293,0.2446,-0.1812,217.4688
14:43:15:254,0.9973,2.7623,12.6858,43.5319,0.1545,0.1866,0.0306,218.2031
14:43:15:276,1.3409,2.9778,12.2261,43.1108,0.2538,0.173,0.1499,218.6875
14:43:15:284,1.3397,3.1406,11.8682,42.0691,0.2517,0.1205,0.209,218.8594
14:43:15:305,1.2822,3.0736,12.3686,43.2514,0.1926,0.0713,0.2559,218.7031
14:43:15:325,1.1302,2.8377,12.9468,42.2792,0.204,0.0974,0.2918,218.4375
14:43:15:344,0.7699,2.4283,13.2341,43.322,0.2908,0.0723,0.3477,218.125
14:43:15:369,0.534,1.8597,13.598,43.322,0.4477,0.0151,0.458,217.7969
14:43:15:388,0.5232,1.3928,12.7959,42.4559,0.6727,0.0585,0.6005,217.3906
14:43:15:405,0.5687,1.1414,11.3067,45.0082,0.7979,0.0497,0.731,216.8906
14:43:15:425,0.8213,0.9774,10.5621,44.6205,0.7963,-0.0768,0.8303,216.25
14:43:15:445,1.0991,0.8458,10.6866,44.1024,0.7737,-0.1849,0.8876,215.375
14:43:15:468,1.202,0.7177,10.7609,45.409,0.8203,-0.1799,0.8974,214.3594
14:43:15:485,1.0332,0.434,10.3371,45.6858,0.9263,-0.0728,0.903,213.2812
14:43:15:504,0.8884,0.2125,9.3578,45.778,1.0546,0.1094,0.9483,212.2344
14:43:15:525,1.0188,0.1347,7.9225,47.8289,1.1502,0.2878,1.0173,211.0938
14:43:15:545,1.3888,0.2257,6.2981,46.644,1.1758,0.3701,1.0649,209.8906
14:43:15:568,1.6916,0.4711,5.1896,45.2968,1.0908,0.3136,1.0495,207.9219
14:43:15:587,1.9179,0.7129,4.9609,47.6415,0.9444,0.2002,1.0053,206.4375
14:43:15:604,2.1776,0.9822,5.1967,46.8431,0.7918,0.1285,0.9459,205
14:43:15:625,2.4147,1.2576,5.7462,47.3015,0.6594,0.1155,0.8663,203.7344
14:43:15:646,2.7618,1.6035,6.0371,47.7576,0.5766,0.16,0.7637,203.0938
14:43:15:668,2.9653,2.0309,6.0096,47.2523,0.4799,0.1877,0.6162,201.9062
14:43:15:686,3.0324,2.4116,6.3819,46.9083,0.3526,0.1104,0.4676,200.8438
14:43:15:706,3.1808,2.7276,7.2378,47.614,0.2464,0.0385,0.3294,199.9531
14:43:15:725,3.3855,3.0161,7.7549,48.789,0.1449,0.0849,0.1725,199.2344
14:43:15:745,3.759,3.2376,8.2086,48.016,-0.0202,0.1866,-0.0307,198.7188
14:43:15:769,3.6932,3.0185,9.0729,47.7402,-0.2575,0.2785,-0.2816,198.3906
14:43:15:787,3.0096,2.1973,10.5705,47.5374,-0.4594,0.3594,-0.4368,198.2656
14:43:15:805,2.7391,1.418,11.9687,48.5919,-0.5262,0.4841,-0.3668,198.4062
14:43:15:824,3.6692,1.1091,12.5948,48.7,-0.4285,0.6707,-0.1742,198.7969
14:43:15:915,5.0124,1.2372,11.2229,46.1856,-0.2844,0.8111,-0.1085,199.4531
14:43:15:915,5.1608,1.5449,9.6356,47.8116,-0.3254,0.7405,-0.2453,199.5625
14:43:15:915,4.2498,1.5305,8.9927,47.9152,-0.5529,0.524,-0.4389,199.5469
14:43:15:916,3.1964,1.1821,9.723,48.0665,-0.8152,0.3216,-0.554,199.7031
14:43:15:923,2.2004,0.8326,10.7046,46.7231,-0.9329,0.242,-0.5202,200.1719
14:43:15:943,1.9263,0.9248,10.9428,45.8063,-0.8647,0.1733,-0.3495,200.8281
14:43:15:965,2.538,1.2755,10.3179,45.6642,-0.7191,0.0116,-0.1953,201.4375
14:43:15:984,3.0408,1.8286,9.4536,46.4757,-0.6605,-0.3058,-0.2041,201.9062
14:43:16:003,3.0659,2.2081,9.8451,46.7309,-0.6935,-0.5991,-0.337,202.1875
14:43:16:023,2.6361,2.4535,10.1479,46.5134,-0.693,-0.5045,-0.5351,202.5312
14:43:16:043,1.8173,2.3852,9.4381,44.6206,-0.6549,-0.1439,-0.733,203.0781
14:43:16:066,0.9973,2.2547,8.1177,45.8424,-0.6099,0.2015,-0.8472,203.8438
14:43:16:084,0.5556,2.25,7.1169,45.538,-0.5529,0.3504,-0.8893,204.7344
14:43:16:111,0.3784,2.2452,6.7721,45.6675,-0.4477,0.3365,-0.9085,205.75
14:43:16:125,0.6597,2.7037,7.5095,45.1997,-0.0133,0.1874,-1.0017,206.7656
14:43:16:145,0.2611,2.7707,6.8499,44.9116,0.2669,0.2614,-1.133,207.2969
14:43:16:168,-0.6044,2.4858,5.2327,43.2355,0.339,0.3163,-1.2068,208.8125
14:43:16:185,-0.8869,2.3326,4.7251,43.3894,0.1257,0.2817,-1.1103,211.1719
14:43:16:206,-0.6176,2.4942,6.1041,42.941,-0.1577,0.1568,-0.921,212.4219
14:43:16:224,-0.4165,2.8258,8.3164,43.4587,-0.2408,-0.0472,-0.7332,212.4219
14:43:16:242,-0.4021,3.0975,10.0498,41.9489,-0.1207,-0.3146,-0.5665,213.6562
14:43:16:266,-0.4656,3.2256,11.1032,41.6694,-0.0423,-0.5245,-0.4014,214.6875
14:43:16:284,-0.5506,3.4351,12.6918,40.9774,-0.2069,-0.5959,-0.2331,215.5156
14:43:16:303,-0.2046,3.5991,15.5696,43.2309,-0.4405,-0.4414,-0.0845,216.2188
14:43:16:323,-0.0885,3.6805,17.5688,43.2743,-0.4267,-0.1029,0.005,216.75
14:43:16:344,-0.7014,3.4303,17.9818,41.5744,-0.2242,0.156,0.1022,217.125
14:43:16:370,-1.2102,2.7719,17.576,42.9896,0.0538,0.307,0.3241,217.2969
14:43:16:387,-1.0593,2.1243,16.6733,43.1945,0.4072,0.414,0.6761,217.3281
14:43:16:403,-0.4081,1.7508,14.6886,41.3711,0.8458,0.4668,1.0194,217.2188
14:43:16:425,0.6837,1.6897,11.5258,42.354,1.2059,0.4087,1.2607,216.4531
14:43:16:443,2.192,2.2895,9.3435,43.7315,1.3004,0.0564,1.3046,215.375
14:43:16:468,2.9582,2.8126,9.5985,42.4181,1.2173,-0.4552,1.0703,213.9062
14:43:16:486,2.4518,2.3804,10.7249,45.0372,1.1446,-0.6387,0.7334,212.3594
14:43:16:504,1.5959,1.7448,10.8303,44.4342,1.0783,-0.2148,0.5155,210.9062
14:43:16:525,0.9303,1.4347,9.5123,44.8806,0.9779,0.5403,0.4279,209.8906
14:43:16:544,0.3868,1.3474,7.8052,43.8519,0.8762,1.0961,0.4151,209.2344
14:43:16:566,0.2467,1.3078,6.4022,43.651,0.8735,1.1834,0.4636,208.5781
14:43:16:584,-0.2992,1.0792,5.1931,44.7014,0.9851,0.8545,0.5115,208.2188
14:43:16:603,-0.2094,1.084,4.3552,43.0104,1.0227,0.4268,0.6314,207.4219
14:43:16:623,-0.0562,1.1618,4.0068,44.3756,0.9436,0.1285,0.6921,206.6094
14:43:16:643,0.1761,1.3282,3.9051,43.1963,0.7566,0.0119,0.7203,205.75
14:43:16:668,0.2778,1.4264,4.0798,46.1992,0.4653,0.095,0.7086,204.8594
14:43:16:686,0.4754,1.5963,4.8065,45.7184,0.1393,0.2598,0.6934,203.9688
14:43:16:705,0.783,1.9291,5.5511,47.9339,-0.1348,0.4422,0.6282,203.1406
14:43:16:725,1.2631,2.5289,6.3519,46.4471,-0.3971,0.5863,0.4737,201.8281
14:43:16:743,1.9263,3.2112,7.6316,45.7529,-0.678,0.749,0.1568,201.0156
14:43:16:766,1.7419,3.3441,9.0143,44.1392,-0.8762,0.9006,-0.2957,200.2344
14:43:16:785,0.7399,2.73,10.2006,45.6712,-0.8994,0.789,-0.6869,199.7188
14:43:16:804,-0.4129,1.8082,11.284,44.4293,-0.7747,0.4968,-0.8526,199.5938
14:43:16:823,-1.0569,1.0804,11.9364,44.3085,-0.6157,0.2572,-0.754,200
14:43:16:843,-0.3961,0.9272,12.5002,44.6812,-0.4708,0.0785,-0.5119,200.8125
14:43:16:868,1.1039,1.2731,12.4931,44.3759,-0.375,-0.0986,-0.3551,201.7031
14:43:16:886,2.4997,1.6227,12.3889,46.0428,-0.44,-0.361,-0.3274,202.3594
14:43:16:903,3.3915,1.6119,13.6339,44.8712,-0.6234,-0.5841,-0.3697,202.8438
14:43:16:922,3.4346,1.2372,15.1387,46.24,-0.6258,-0.2859,-0.4238,203.2812
14:43:16:943,2.8564,0.9308,13.8398,44.3796,-0.3401,0.3568,-0.3607,203.7812
14:43:16:969,2.7965,1.1319,10.355,45.2714,-0.0392,0.6894,-0.1388,204.3438
14:43:16:987,3.5316,1.7532,7.3,46.214,0.0661,0.2593,0.0188,204.8125
14:43:17:002,4.5323,2.3026,6.3388,46.0184,-0.0605,-0.8015,-0.0408,205
14:43:17:023,4.7837,2.2164,7.6412,46.5319,-0.3438,-1.6614,-0.3106,204.9375
14:43:17:043,4.0116,1.7065,8.9868,45.7794,-0.599,-1.6723,-0.5979,204.9688
14:43:17:067,2.9989,1.3078,9.1711,45.5362,-0.7446,-1.0297,-0.7924,205.4062
14:43:17:087,1.961,1.2109,8.0171,45.7209,-0.7926,-0.2662,-0.8965,206.2344
14:43:17:102,1.1434,1.412,6.5099,44.4748,-0.7771,0.1072,-0.9428,207.3281
14:43:17:129,0.3784,1.5927,5.8815,45.5958,-0.6954,-0.0033,-0.9604,209.0156
14:43:17:142,-0.2238,1.7137,5.7929,45.3195,-0.5446,-0.2997,-0.949,210.0781
14:43:17:163,-0.7337,1.7484,6.0299,46.393,-0.4141,-0.509,-0.9042,211.2188
14:43:17:185,-1.1539,1.9782,6.3807,45.3776,-0.3406,-0.5258,-0.8352,212.375
14:43:17:206,-1.185,2.3912,7.0235,45.1009,-0.3348,-0.4449,-0.7798,213.5
14:43:17:222,-1.4268,2.7875,7.7478,46.8984,-0.3851,-0.3141,-0.7958,214.5
14:43:17:243,-1.7584,3.0436,8.8503,46.4299,-0.4724,-0.2246,-0.8241,215.4688
14:43:17:266,-2.1176,3.0365,10.3515,45.5204,-0.5212,-0.1325,-0.832,216.4531
14:43:17:286,-2.3223,2.9395,11.533,45.4159,-0.4919,0.0577,-0.782,216.9062
14:43:17:303,-2.3821,2.9132,12.3159,45.4159,-0.4027,0.2907,-0.6983,217.9219
14:43:17:323,-2.5713,2.803,12.5876,44.4058,-0.2522,0.4223,-0.5892,218.8906
14:43:17:344,-2.7401,2.6642,12.5721,45.2216,-0.1577,0.4148,-0.4318,219.75
14:43:17:369,-2.8334,2.6426,13.0665,45.599,-0.1659,0.41,-0.2326,220.4219
14:43:17:385,-2.7939,2.6725,13.6997,46.201,-0.2072,0.4215,-0.0182,220.9688
14:43:17:403,-2.5581,2.4966,14.5186,46.3796,-0.2514,0.3733,0.1946,221.4062
14:43:17:428,-2.5066,1.9399,16.0066,47.4591,-0.2141,0.2521,0.4244,221.3906
14:43:17:444,-2.5246,1.0469,17.4215,47.9341,0.0346,0.1706,0.752,221.125
14:43:17:470,-1.7034,0.1981,16.9355,46.9523,0.518,0.3011,1.1797,220.625
14:43:17:488,-0.7169,0.2616,13.7057,48.4698,0.9601,0.5102,1.5611,219.7969
14:43:17:504,0.2946,0.6554,10.2856,49.4804,1.1212,0.4332,1.7419,218.3906
14:43:17:524,0.9135,0.9894,8.5031,49.6588,1.0179,0.1123,1.7262,216.5312
14:43:17:544,0.9674,0.7452,9.3902,50.1683,0.7175,-0.406,1.5574,214.5469
14:43:17:564,1.2032,0.513,9.3315,49.4345,0.7396,-0.2843,1.4886,212.5312
14:43:17:589,0.9494,0.4914,8.326,51.373,0.7595,-0.0164,1.4037,212.5312
14:43:17:605,0.7327,0.3837,7.1851,52.7844,0.7606,0.181,1.3605,210.6719
14:43:17:624,0.6489,0.3573,5.976,51.5458,0.7654,0.2396,1.3563,208.9219
14:43:17:645,0.7064,0.507,5.1943,52.8324,0.7558,0.1011,1.3648,205.6719
14:43:17:668,0.9362,0.6626,5.0794,55.7774,0.7263,-0.1048,1.3315,203.2031
14:43:17:688,1.2247,0.7608,5.2578,53.764,0.6799,-0.214,1.2487,202.4688
14:43:17:706,1.3935,0.9104,5.3404,54.7808,0.5739,-0.194,1.1193,200.8438
14:43:17:723,1.3732,1.1115,5.4505,55.8895,0.3878,-0.0779,0.9629,199.2812
14:43:17:745,1.5025,1.3952,5.8132,56.5044,0.1689,0.0225,0.8002,197.9062
14:43:17:768,1.6593,1.7292,6.4285,56.1094,-0.0381,0.0769,0.6069,196.625
14:43:17:787,1.8329,2.0237,7.2785,57.867,-0.2024,0.104,0.3954,195.5
14:43:17:806,1.9729,2.1721,8.0985,57.292,-0.3137,0.1557,0.1517,194.5625
14:43:17:822,1.706,2.1291,8.7306,56.3673,-0.4096,0.2401,-0.0986,193.4375
14:43:17:843,1.2714,2.0477,9.4141,56.2808,-0.5092,0.3088,-0.2925,193.3125
14:43:17:870,0.9183,1.6813,10.2688,57.6999,-0.5835,0.3214,-0.4315,193.2812
14:43:17:888,0.7591,1.4599,11.2193,57.0999,-0.6266,0.3008,-0.4781,193.5
14:43:17:904,1.3109,1.3402,11.855,57.5758,-0.6107,0.2803,-0.4869,193.9062
14:43:17:992,1.8844,1.6059,11.7497,58.225,-0.5987,0.2708,-0.5428,194.4375
14:43:17:992,2.2543,2.0345,11.5617,56.1294,-0.6732,0.2106,-0.6858,194.9531
14:43:17:993,2.0172,2.0967,12.2477,58.4788,-0.8565,0.0809,-0.897,195.5312
14:43:17:993,1.3684,1.7711,13.8398,56.3088,-1.0389,0.128,-1.043,196.2188
14:43:18:002,0.3844,1.1199,15.3613,56.8287,-0.9979,0.3578,-1.0233,197.0938
14:43:18:030,0.0624,0.6147,14.9519,57.4917,-0.6927,0.6476,-0.7889,197.6562
14:43:18:042,0.1821,0.6866,12.8821,56.8793,-0.355,0.7006,-0.4845,198.9062
14:43:18:064,0.9303,0.7009,11.2589,58.1857,-0.1145,0.3738,-0.2094,200.0781
14:43:18:087,1.7383,0.847,10.5526,55.0182,0.0938,-0.0621,-0.0509,200.8906
14:43:18:105,2.1489,1.0397,9.6751,56.0342,0.3028,-0.2837,-0.008,201.375
14:43:18:123,2.192,1.1702,8.0949,58.037,0.4192,-0.2315,-0.0355,201.6094
14:43:18:143,2.0603,1.3114,6.5028,55.2789,0.3987,-0.0723,-0.0869,201.6562
14:43:18:169,2.1944,1.6646,5.4924,57.2418,0.3185,0.0071,-0.1689,201.6875
14:43:18:187,2.3009,2.1997,4.9944,57.2857,0.2168,-0.0238,-0.3601,201.7656
14:43:18:204,1.5887,2.39,5.0507,56.8692,0.0655,-0.0398,-0.6379,201.8906
14:43:18:223,0.6717,2.3194,5.2638,58.3314,-0.1076,0.0364,-0.8233,202.1562
14:43:18:243,-0.0226,2.4403,5.9485,55.6109,-0.2546,0.0755,-0.9023,202.7344
14:43:18:269,-0.7553,2.5145,7.1588,55.8742,-0.3081,0.0521,-0.9103,203.5938
14:43:18:286,-1.2748,2.4822,8.4229,54.5325,-0.2256,0.0585,-0.8248,204.5312
14:43:18:303,-1.4568,2.5756,9.0897,57.5684,-0.0091,0.0838,-0.6589,205.5938
14:43:18:323,-1.124,2.8258,8.9185,56.5561,0.1982,0.0561,-0.5029,206.5938
14:43:18:343,-0.7828,3.1095,8.8934,57.6506,0.2815,-0.0078,-0.4411,207.4062
14:43:18:372,-0.8008,3.1574,9.1292,57.5918,0.2916,-0.1026,-0.4544,208.0469
14:43:18:390,-1.0641,2.9706,9.7553,56.5368,0.2165,-0.1189,-0.4656,208.5625
14:43:18:404,-1.5262,2.7372,10.452,57.8012,0.0858,0.0518,-0.4238,209.3125
14:43:18:422,-1.7441,2.5265,10.8075,56.2498,-0.0498,0.2502,-0.2989,209.8594
14:43:18:443,-1.3562,2.3673,10.9823,57.2916,-0.183,0.2313,-0.1423,210.3438
14:43:18:471,-0.9073,2.4786,12.6068,54.1606,-0.3204,-0.1469,-0.0318,210.6406
14:43:18:490,-0.766,2.0488,15.1913,56.2039,-0.2778,-0.5229,0.0346,210.7656
14:43:18:506,-0.9791,1.1857,16.7248,56.0043,-0.0056,-0.5437,0.1816,210.7969
14:43:18:522,-0.547,0.5513,15.7588,57.6544,0.3649,-0.0622,0.4758,210.8438
14:43:18:542,0.5687,0.9679,12.0609,55.3372,0.6312,0.4114,0.7595,210.8281
14:43:18:563,2.0723,1.6442,8.9868,57.8177,0.6059,0.2955,0.788,210.5156
14:43:18:587,2.9522,1.9902,8.3643,57.0037,0.3824,-0.1937,0.5422,209.75
14:43:18:602,2.8839,1.4575,9.5302,56.7969,0.1212,-0.5714,0.1632,208.7344
14:43:18:622,2.0639,0.5022,10.6567,58.033,-0.0666,-0.4792,-0.137,207.9688
14:43:18:643,0.8644,0.009,10.5526,57.6513,-0.1587,-0.0526,-0.2563,207.625
14:43:18:669,-0.1699,-0.0796,9.5554,55.9597,-0.1864,0.3416,-0.2243,207.7188
14:43:18:687,-1.0079,0.0497,8.7785,57.4663,-0.131,0.4851,-0.0837,208.0156
14:43:18:709,-1.4005,0.2867,8.0027,57.71,0.0349,0.4705,0.1403,208.375
14:43:18:722,-1.4615,0.9655,6.8751,56.4581,0.2258,0.3501,0.4066,208.3906
14:43:18:743,-1.2197,1.9938,6.0491,56.4967,0.3691,0.1283,0.6061,208.1719
14:43:18:765,-0.869,2.7599,5.7103,56.4622,0.4128,-0.1519,0.6668,207.6406
14:43:18:786,-0.693,3.24,6.4417,59.1602,0.3342,-0.2867,0.6378,206.9219
14:43:18:805,-0.4572,3.489,7.6699,58.4075,0.2903,-0.2483,0.5736,206.2188
14:43:18:825,-0.2034,3.5165,8.654,58.6126,0.3414,-0.1335,0.4862,205.5312
14:43:18:846,0.0241,3.4997,8.9461,57.5045,0.4456,-0.0353,0.4031,204.9062
14:43:18:871,0.303,3.4315,9.1424,58.1344,0.5225,-0.0121,0.323,204.3594
14:43:18:888,0.704,3.2926,9.3483,58.8813,0.5601,0.0305,0.2322,203.9219
14:43:18:904,1.1015,3.0975,9.201,58.2369,0.5614,0.1269,0.1163,203.5312
14:43:18:923,1.9849,2.086,8.8634,57.2433,0.4852,0.1807,-0.0331,203.2344
14:43:18:943,2.344,1.2109,10.0414,56.1181,0.0876,-0.0584,-0.2451,203.0781
14:43:18:969,2.7247,0.5417,11.5438,57.6981,-0.0008,-0.1202,-0.1825,203.0469
14:43:18:989,2.9055,0.4639,12.3662,57.922,0.0892,-0.0038,0.0292,203.5156
14:43:19:004,3.2862,0.9822,11.7293,56.8244,0.3073,0.0585,0.3315,203.5156
14:43:19:022,3.9266,1.5066,10.6579,57.9841,0.5182,-0.1695,0.5672,203.75
14:43:19:042,4.6449,2.1171,9.8846,56.9674,0.6533,-0.6228,0.6559,203.7188
14:43:19:064,5.423,2.627,9.4967,57.0143,0.689,-1.185,0.5318,203.3125
14:43:19:088,5.3248,3.0712,9.7397,59.3381,0.5966,-1.6491,0.2186,202.7188
14:43:19:104,4.9202,2.809,10.3215,58.5625,0.4634,-1.8228,-0.1455,202.0781
14:43:19:123,4.4462,2.4487,10.191,59.2181,0.3313,-1.5932,-0.4427,201.7031
14:43:19:141,4.1445,2.3745,9.0729,58.4404,0.1699,-1.1991,-0.7263,201.7812
14:43:19:162,3.7626,2.3134,7.5562,56.7603,-0.0714,-0.9208,-1.0725,202.3438
14:43:19:186,3.1234,1.9818,6.6835,58.4002,-0.4053,-0.8015,-1.4326,203.2188
14:43:19:204,2.3381,1.4515,6.6931,57.1758,-0.7308,-0.6789,-1.7231,205.75
14:43:19:225,1.5085,1.0672,6.8858,57.1221,-0.9385,-0.4656,-1.9048,206.6562
14:43:19:242,0.5651,0.9176,6.7446,57.842,-0.9989,-0.2081,-1.9785,208.75
14:43:19:263,-0.2477,0.9236,6.2131,55.6874,-0.9699,-0.0259,-1.9423,210.9844
14:43:19:288,-0.7912,1.26,5.6337,54.6377,-0.926,0.0196,-1.8169,213.4219
14:43:19:306,-1.1168,1.6849,5.332,53.7816,-0.8938,-0.0672,-1.6651,215.8281
14:43:19:324,-1.3981,2.226,5.6804,53.7646,-0.8783,-0.2278,-1.5146,218.0781
14:43:19:343,-1.7548,2.6127,6.1855,54.3399,-0.8663,-0.3221,-1.3636,220.0625
14:43:19:361,-2.0529,3.0903,6.9253,53.3579,-0.8884,-0.3418,-1.1839,222
14:43:19:383,-2.1439,3.4961,7.9956,54.9661,-0.9087,-0.2779,-0.9884,222.9062
14:43:19:408,-2.3809,3.9558,9.225,53.5994,-0.881,-0.1767,-0.799,224.6094
14:43:19:423,-2.6072,4.0779,10.0977,53.461,-0.8096,-0.0656,-0.6131,226.0312
14:43:19:443,-2.8478,3.9522,10.9608,53.461,-0.7657,-0.0083,-0.4123,227.2812
14:43:19:462,-3.0908,3.6218,12.5769,53.9949,-0.7252,-0.0294,-0.1545,228.3125
14:43:19:487,-2.8693,3.3549,14.2253,51.1198,-0.5555,-0.0643,0.1643,229.0469
14:43:19:503,-2.0637,3.4387,15.0142,52.3107,-0.3356,-0.039,0.4559,229.5781
14:43:19:522,-0.8211,3.2914,15.159,52.7994,-0.196,-0.0339,0.5959,229.7969
14:43:19:542,-0.1136,2.8401,15.8509,51.5959,-0.1902,-0.0448,0.6085,229.4844
14:43:19:562,-0.0119,2.0357,17.4634,52.251,-0.1507,0.0521,0.6074,228.8906
14:43:19:586,-0.2716,1.0122,18.0955,53.39,0.1539,0.4881,0.6977,228.2031
14:43:19:602,-0.4512,0.4591,14.5497,52.7455,0.595,1.0542,0.9123,227.5625
14:43:19:622,-0.2214,0.6901,10.2772,52.5916,0.6991,1.0548,1.1494,226.8125
14:43:19:644,0.4694,0.981,9.1974,52.6147,0.5268,0.4393,1.2724,225.7656
14:43:19:670,0.9482,0.8924,10.9835,54.044,0.3958,-0.1636,1.2764,224.4375
14:43:19:688,1.1757,0.5453,11.9987,52.8105,0.4613,-0.2363,1.2561,222.875
14:43:19:702,1.2104,0.2903,11.2924,55.5218,0.5787,0.0308,1.262,221.3594
14:43:19:723,1.366,0.1993,9.7828,53.426,0.6448,0.3189,1.2892,219.9219
14:43:19:742,1.6641,0.3322,8.5474,54.0151,0.641,0.487,1.3203,218.5469
14:43:19:764,1.9502,0.5549,7.9118,54.435,0.6746,0.4958,1.343,217
14:43:19:785,2.2758,0.732,7.251,54.1217,0.8338,0.4034,1.3424,214.5625
14:43:19:803,2.4482,0.914,6.1604,55.4353,1.0013,0.2888,1.3012,212.9531
14:43:19:823,2.5212,1.1582,5.0567,54.3972,1.0607,0.1805,1.2207,211.2812
14:43:19:842,2.4494,1.4635,4.439,57.8149,0.9409,0.0505,1.0849,209.6562
14:43:19:862,2.4805,1.5173,4.7706,56.9992,0.7127,-0.0379,0.9259,208.9531
14:43:19:886,2.6062,1.5185,5.5906,55.8701,0.5103,-0.0547,0.7752,207.5156
14:43:19:905,2.7654,1.655,6.1197,57.5855,0.3742,-0.0621,0.6237,206.2969
14:43:19:922,2.9187,1.7592,6.8846,57.6888,0.2754,-0.1354,0.462,205.2812
14:43:19:942,3.0886,1.8932,7.3659,57.5769,0.2043,-0.1618,0.3046,204.4844
14:43:19:962,3.1796,1.9842,7.5083,56.4244,0.1023,-0.219,0.1339,203.8594
14:43:19:988,3.255,2.0022,8.1153,57.5211,-0.0882,-0.3125,-0.0347,203.4219
14:43:20:007,3.5423,1.8585,9.4488,58.3627,-0.3324,-0.365,-0.215,203.2031
14:43:20:078,3.3795,1.5664,11.2253,57.5999,-0.5047,-0.2699,-0.4089,203.2188
14:43:20:078,2.951,1.1115,11.9532,57.8748,-0.518,-0.0395,-0.5047,203.4531
14:43:20:079,3.0443,0.9296,11.1296,57.3139,-0.4951,0.1187,-0.4693,204.2344
14:43:20:095,3.662,1.1474,10.3766,58.3851,-0.5704,0.0449,-0.4451,204.875
14:43:20:103,4.0918,1.4204,10.3084,58.214,-0.7215,-0.1831,-0.5436,205.4375
14:43:20:122,3.8033,1.4898,11.1655,56.9963,-0.8876,-0.3761,-0.7303,205.9844
14:43:20:141,3.1186,1.0349,12.2776,56.3689,-0.9659,-0.3234,-0.8675,206.7188
14:43:20:163,2.131,0.7943,12.2692,56.1808,-0.9028,-0.047,-0.836,207.7188
14:43:20:187,2.0256,0.9332,11.2301,56.5829,-0.7715,0.0676,-0.6749,208.8906
14:43:20:204,2.7403,1.151,10.4676,55.4053,-0.6794,-0.1413,-0.5732,209.8906
14:43:20:221,3.2838,1.2743,10.7668,56.2924,-0.5936,-0.5133,-0.6022,210.7344
14:43:20:242,3.3903,1.3581,10.8758,55.5957,-0.4602,-0.6169,-0.7125,211.4844
14:43:20:262,2.8827,1.4587,9.7026,55.646,-0.3739,-0.2952,-0.8632,212.2812
14:43:20:289,2.1417,1.5473,7.6292,53.58,-0.4035,0.1418,-0.978,213.2344
14:43:20:305,1.5599,1.6119,6.2669,55.1198,-0.5052,0.3626,-1.043,214.3125
14:43:20:322,0.8165,1.8453,5.5786,54.198,-0.5382,0.3349,-1.0557,215.4531
14:43:20:343,0.7423,2.129,5.4158,53.3499,-0.3987,-0.0491,-0.9964,215.9844
14:43:20:363,0.5711,2.4583,5.7211,54.4911,-0.4189,-0.1974,-0.9998,215.9844
14:43:20:387,0.4407,2.6654,6.5794,53.8943,-0.5268,-0.1977,-1.0147,217.8125
14:43:20:406,0.3209,2.8928,7.7825,56.5742,-0.6277,-0.0528,-1.0182,220.125
14:43:20:422,0.2096,3.1203,8.97,53.6886,-0.6716,0.112,-0.9993,221.3438
14:43:20:441,0.1497,3.3728,10.2281,53.3838,-0.6232,0.1983,-0.9423,222.5781
14:43:20:462,0.3952,3.6865,11.2457,53.0737,-0.4618,0.2361,-0.8651,223.7344
14:43:20:487,0.5975,3.8026,11.5833,52.7159,-0.2682,0.2606,-0.8477,226.0312
14:43:20:504,0.2347,3.398,11.861,53.3015,-0.1779,0.2454,-0.8635,226.0312
14:43:20:521,-0.3028,2.6737,12.9982,53.42,-0.1806,0.2612,-0.7817,227.0312
14:43:20:541,-0.6104,1.9423,14.3402,53.6613,-0.0914,0.3277,-0.5636,227.9375
14:43:20:561,-0.3782,1.5042,14.4623,52.0953,0.1308,0.4039,-0.2605,228.9219
14:43:20:585,0.2395,1.5449,13.6028,52.856,0.3265,0.3296,0.0039,229.7969
14:43:20:605,0.7914,1.6945,13.4555,50.147,0.3915,0.1147,0.1318,230.375
14:43:20:622,1.0871,1.4287,14.2049,50.7767,0.4221,-0.007,0.1509,230.625
14:43:20:641,0.8177,0.8817,14.2947,51.2178,0.5071,0.095,0.1611,230.4844
14:43:20:662,0.2395,0.3514,13.7572,51.9029,0.6104,0.3019,0.2463,230.3125
14:43:20:688,0.0468,-0.0197,12.2165,52.1314,0.7744,0.4838,0.4335,230.1094
14:43:20:708,0.4071,0.0964,9.954,50.3996,0.8951,0.4138,0.6407,229.8438
14:43:20:723,1.0643,0.4196,8.6923,52.2378,0.8794,0.0236,0.7592,229.4219
14:43:20:741,1.5935,0.7093,8.958,50.7227,0.787,-0.4116,0.743,228.6875
14:43:20:766,1.554,0.7751,9.6871,50.9133,0.7164,-0.5538,0.6521,226.9375
14:43:20:787,1.4917,0.5968,9.8966,51.5185,0.6871,-0.4276,0.6141,226.9375
14:43:20:804,1.3911,0.7715,9.6248,50.8331,0.7294,-0.2233,0.6143,226.2344
14:43:20:821,1.3828,0.9367,8.721,50.652,0.841,-0.0696,0.605,225.8906
14:43:20:841,1.4175,1.0098,7.3,52.0077,0.922,0.0095,0.5773,225.2344
14:43:20:862,1.5755,1.0373,6.1628,50.8185,0.9332,-0.0089,0.5523,224.5625
14:43:20:888,1.8173,1.1821,5.2733,51.8567,0.9001,-0.1032,0.5011,223.8281
14:43:20:904,1.9861,1.3306,4.7909,51.9328,0.796,-0.2172,0.396,223.1094
14:43:20:922,2.0005,1.4299,4.737,52.6314,0.6357,-0.264,0.2423,222.4062
14:43:20:941,1.8305,1.4108,4.749,51.7879,0.4349,-0.2297,0.0796,221.5625
14:43:20:961,1.5671,1.3569,4.9346,51.6828,0.2091,-0.1921,-0.0318,221.2031
14:43:20:987,1.5815,1.3857,5.5355,51.3775,0.004,-0.2121,-0.0938,221.0312
14:43:21:006,1.6904,1.4599,6.2514,51.4413,-0.146,-0.2962,-0.1508,221.0469
14:43:21:023,1.6928,1.4994,7.1827,52.478,-0.2565,-0.3969,-0.198,221.1562
14:43:21:041,1.7922,1.582,7.798,50.8158,-0.359,-0.377,-0.2318,221.3594
14:43:21:062,1.8616,1.7173,8.1608,50.6136,-0.5177,-0.2699,-0.276,221.6562
14:43:21:087,2.0855,1.7424,8.8311,49.726,-0.7135,-0.2411,-0.3362,222.0312
14:43:21:105,2.1537,1.6933,10.2701,51.6606,-0.8916,-0.2752,-0.3969,222.4375
14:43:21:122,2.0412,1.4395,12.1004,50.7114,-0.9428,-0.2464,-0.4129,222.8906
14:43:21:141,2.2674,1.1666,12.7145,49.2313,-0.8373,-0.0901,-0.3588,223.4375
14:43:21:162,2.7977,1.1331,11.7868,50.1249,-0.7665,0.0225,-0.2975,224.0781
14:43:21:188,3.4298,1.4503,11.187,50.9495,-0.8514,-0.0313,-0.2959,224.6562
14:43:21:205,3.9709,1.6658,11.4492,49.4396,-0.9974,-0.2544,-0.4185,225.0781
14:43:21:220,4.0212,1.418,12.9899,50.1915,-1.1076,-0.4419,-0.6094,225.7188
14:43:21:241,3.7854,0.9487,14.3845,49.6691,-1.0533,-0.2686,-0.7274,226.3438
14:43:21:262,3.6201,0.7739,13.8709,49.7537,-0.7931,0.2332,-0.7447,227.1875
14:43:21:287,3.9051,0.9762,11.2289,48.8278,-0.4738,0.5205,-0.7508,228.1562
14:43:21:305,4.6353,1.1762,8.8563,49.3311,-0.2919,0.3823,-0.8547,228.625
14:43:21:321,5.1321,1.4048,7.8782,47.3521,-0.2682,0.0377,-1.1098,229.4688
14:43:21:341,4.8172,1.3306,7.7849,46.2416,-0.3401,-0.121,-1.4888,230.2969
14:43:21:361,3.7949,0.8661,7.5251,46.8295,-0.4575,0.0345,-1.8345,231.3906
14:43:21:387,2.7343,0.3801,7.2522,45.3372,-0.62,0.3131,-2.007,232.9062
14:43:21:405,1.9215,0.2903,7.494,43.9867,-0.6991,0.5192,-2.0166,234.7812
14:43:21:421,1.372,0.4471,7.549,43.997,-0.5819,0.5086,-1.9511,237.0156
14:43:21:440,0.9051,0.6913,7.1085,44.0363,-0.3899,0.3088,-1.8518,239.3281
14:43:21:462,0.6932,1.0074,6.917,44.1463,-0.286,0.0566,-1.7226,241.4688
14:43:21:487,0.6669,1.3378,7.1815,43.5077,-0.3103,-0.1066,-1.6283,243.625
14:43:21:504,0.6059,1.5221,8.0877,41.1395,-0.4072,-0.1255,-1.5764,246.625
14:43:21:521,0.3221,1.5509,9.1364,42.8101,-0.449,0.0039,-1.5335,248.4219
14:43:21:541,-0.1495,1.6322,9.6069,42.2177,-0.4024,0.1821,-1.4459,250.25
14:43:21:562,-0.4033,1.8441,9.6954,42.2177,-0.3087,0.2971,-1.3008,252.0156
14:43:21:587,-0.1471,2.2571,9.5757,41.0823,-0.204,0.3078,-1.1492,253.5781
14:43:21:606,0.0636,2.6725,9.5554,39.4523,-0.1153,0.2087,-1.084,255.0469
14:43:21:623,-0.0502,2.8054,9.5111,39.8791,-0.1097,0.0859,-1.0882,256.3438
14:43:21:641,-0.0418,2.6139,10.3287,39.0564,-0.2157,-0.0118,-1.076,257.5625
14:43:21:662,0.3485,2.2859,11.8227,39.733,-0.3156,-0.0467,-1.0427,258.7344
14:43:21:687,0.4586,2.0979,13.1886,37.6393,-0.3505,0.0542,-1.0451,259.9688
14:43:21:704,0.4191,1.7568,13.5657,40.8491,-0.3468,0.291,-1.0771,261.1719
14:43:21:721,-0.2585,1.0469,13.0485,38.3579,-0.4783,0.5253,-1.0736,262.2969
14:43:21:741,-0.7816,0.6051,13.8242,36.7272,-0.481,0.4031,-0.9966,262.2969
14:43:21:765,-1.3861,0.2699,14.8478,36.8486,-0.2703,0.2492,-0.7969,264.7031
14:43:21:786,-1.8207,-0.1311,14.8358,38.2038,0.1491,0.271,-0.4981,265.3125
14:43:21:805,-1.5753,-0.5489,12.9791,35.9782,0.6075,0.4305,-0.1026,266.9375
14:43:21:822,-0.5529,-0.4148,10.3515,36.5441,0.8916,0.3874,0.2798,267.8281
14:43:21:841,0.8931,-0.0365,9.1986,34.6749,0.9862,0.0068,0.4748,268.3906
14:43:21:860,2.016,0.2137,9.2058,35.8307,1.0179,-0.4387,0.4465,268.5
14:43:21:881,2.3129,0.0712,9.4572,34.4431,1.0242,-0.6784,0.278,268.1875
14:43:21:905,1.6605,-0.1478,9.3279,36.3703,0.9854,-0.6606,0.1264,267.6875
14:43:21:923,0.9841,-0.4088,9.1364,33.8499,0.8807,-0.4619,0.0838,267.0781
14:43:21:940,0.2587,-0.3094,8.7198,35.0714,0.7934,-0.1181,0.1696,267.0781
14:43:21:960,0.2958,0.1658,7.6328,34.1807,0.7675,0.1437,0.3608,267.0312
14:43:21:982,0.9303,0.7093,6.668,33.5683,0.7531,0.1227,0.4908,267.0156
14:43:22:006,1.1649,1.0493,6.5135,36.1315,0.7784,-0.1676,0.5057,266.8594
14:43:22:024,1.1733,1.2959,6.5674,34.0209,0.8746,-0.4648,0.5259,266.4531
14:43:22:043,1.5085,1.7508,6.6895,34.8763,1.0027,-0.6904,0.5946,265.875
14:43:22:061,2.4207,2.414,6.5219,32.5767,1.208,-0.9133,0.6045,265.1094
14:43:22:089,2.9127,2.9239,5.2458,33.0245,1.3337,-1.1655,0.4207,264.5938
14:43:22:142,2.9749,3.2064,4.2834,35.0203,1.1081,-1.3147,0.1688,264.0312
14:43:22:142,3.1868,3.2914,4.7059,36.2453,0.5412,-1.1988,-0.0736,263.6406
14:43:22:142,3.449,3.3262,6.6249,33.8111,-0.0932,-0.8528,-0.334,263.5469
14:43:22:160,3.6213,3.2579,8.5354,34.0971,-0.5252,-0.4062,-0.6382,263.75
14:43:22:180,3.115,2.8796,9.8439,33.4553,-0.7236,-0.1202,-0.9474,264.1875
14:43:22:202,2.5547,2.0907,10.8961,33.4777,-0.7627,-0.0017,-1.1452,264.9062
14:43:22:224,2.0519,1.2169,11.5473,33.4555,-0.7238,0.0414,-1.1953,265.9219
14:43:22:243,1.8353,0.4794,12.3039,32.404,-0.5944,0.0337,-1.101,267.2031
14:43:22:263,2.4769,0.0329,11.6635,31.8139,-0.3385,0.0646,-0.9266,267.8125
14:43:22:286,3.255,0.2496,9.8451,32.2643,-0.2048,0.0334,-0.8792,269.2188
14:43:22:305,3.5316,0.5884,8.6109,30.6332,-0.2874,-0.0305,-1.0344,270.5
14:43:22:323,2.8983,0.5668,8.1536,30.5693,-0.5081,-0.1,-1.2952,271.5156
14:43:22:340,2.2471,0.2197,8.788,29.6803,-0.8027,-0.1311,-1.4288,272.5156
14:43:22:359,2.2351,0.009,10.4149,29.4585,-1.0144,-0.1085,-1.4254,274.4375
14:43:22:381,2.4817,-0.003,11.5102,27.857,-1.0525,-0.1317,-1.3905,276
14:43:22:402,2.6481,-0.1826,12.5936,28.8466,-1.0184,-0.2419,-1.3524,277.6875
14:43:22:420,2.3117,-0.4794,13.4424,28.8998,-0.9236,-0.2896,-1.2938,279.3438
14:43:22:441,1.4929,-0.5788,13.3801,28.7171,-0.7353,-0.1674,-1.1253,280.875
14:43:22:460,0.8608,-0.1263,12.1076,26.5741,-0.4914,0.0649,-0.839,282.4531
14:43:22:482,0.4969,0.6075,10.7704,25.7525,-0.2234,0.1674,-0.5652,283.9219
14:43:22:503,0.7507,0.9738,9.5817,27.4458,0.1158,0.0731,-0.3649,285.0625
14:43:22:520,1.1014,1.5676,8.1212,26.5456,0.4562,-0.1761,-0.2371,285.7969
14:43:22:540,0.9111,2.1698,6.5542,26.548,0.7081,-0.5242,-0.2187,286.3125
14:43:22:560,0.6537,2.475,5.3787,27.1274,0.754,-0.7639,-0.2483,286.6406
14:43:22:582,0.9877,2.6761,4.4833,25.95,0.5172,-0.6273,-0.297,286.9062
14:43:22:601,1.275,3.1035,4.4653,27.3701,0.0362,-0.2784,-0.4169,287.2656
14:43:22:621,1.2176,3.4243,5.6337,26.011,-0.4256,0.0335,-0.5742,287.875
14:43:22:640,0.9722,3.4566,7.1839,25.2561,-0.6298,0.1498,-0.7026,288.375
14:43:22:660,0.5807,3.3609,8.4038,26.0011,-0.5654,0.0872,-0.7516,289.0312
14:43:22:682,0.3341,3.4088,8.8778,26.8931,-0.4181,-0.0209,-0.7165,289.8281
14:43:22:703,0.5328,3.5165,9.2705,26.472,-0.3475,-0.0374,-0.6621,290.6875
14:43:22:728,0.7782,3.6446,9.8187,22.9227,-0.3707,0.0742,-0.6616,291.0781
14:43:22:739,0.6442,3.708,10.3311,24.0971,-0.4184,0.2247,-0.7034,291.875
14:43:22:761,-0.1352,3.5285,10.968,22.2932,-0.4679,0.2308,-0.7234,292.625
14:43:22:787,-1.0055,3.0891,12.5912,24.2904,-0.4711,0.088,-0.6137,293.3594
14:43:22:804,-1.3981,2.7228,14.3282,25.4109,-0.3633,-0.0353,-0.362,294.1562
14:43:22:821,-1.2473,2.5037,15.6546,22.5174,-0.1555,-0.0954,-0.0392,294.9375
14:43:22:840,-0.5649,2.2595,16.1047,23.6923,0.1001,-0.0265,0.2705,295.5
14:43:22:860,0.0755,1.9878,15.8366,23.8866,0.33,0.0833,0.5267,295.7344
14:43:22:881,0.5747,1.6179,15.6127,23.9086,0.5822,0.2212,0.7557,295.5938
14:43:22:905,0.9147,1.1247,14.1606,23.6332,0.9806,0.4202,0.9637,294.7969
14:43:22:920,1.4917,0.7524,10.9859,22.7218,1.3284,0.3994,1.1816,293.9375
14:43:22:940,2.6481,1.066,8.8658,23.9119,1.3638,-0.0158,1.336,292.7812
14:43:22:960,3.9494,1.7388,9.2848,24.9556,1.1361,-0.5354,1.2703,291.375
14:43:22:980,4.5587,1.7819,10.9213,23.625,0.9121,-0.7069,0.9864,289.9062
14:43:23:008,4.2223,1.3222,11.5689,24.0698,0.7872,-0.4025,0.6404,288.5312
14:43:23:020,2.9773,0.6817,10.8782,25.0204,0.7382,0.1517,0.4207,287.5156
14:43:23:040,1.7311,0.1873,9.3399,24.6299,0.7926,0.5341,0.425,286.8594
14:43:23:064,1.281,0.1706,7.5083,24.2541,0.9462,0.6212,0.577,285.7031
14:43:23:087,1.6509,1.0936,4.4677,24.8426,1.1215,0.0417,0.707,284.875
14:43:23:105,1.9466,1.5748,4.4306,24.5746,0.9896,-0.2675,0.5914,284.0156
14:43:23:123,2.0041,1.7328,5.0663,26.229,0.784,-0.3429,0.4133,284.0156
14:43:23:141,1.8377,1.837,5.6193,25.177,0.5601,-0.2307,0.2599,282.5156
14:43:23:161,1.8772,2.0716,6.3699,26.2195,0.3492,-0.0571,0.1544,282.125
14:43:23:182,1.9346,2.3397,7.0271,24.3779,0.2314,0.0739,0.0508,281.8594
14:43:23:205,1.9885,2.4894,7.5431,25.4957,0.241,0.0699,-0.0427,281.8594
14:43:23:223,2.1381,2.6043,7.2294,25.6624,0.2842,0.0225,-0.1359,281.6875
14:43:23:239,2.1477,2.724,6.7793,28.4137,0.1814,-0.0363,-0.2568,281.6094
14:43:23:265,2.0807,2.6965,7.33,27.1466,-0.0831,-0.0542,-0.3806,281.625
14:43:23:287,2.1381,2.5947,8.3846,26.1721,-0.3723,0.0636,-0.4896,281.7656
14:43:23:307,2.4147,2.2607,9.3291,26.8421,-0.6349,0.2186,-0.6107,282.0469
14:43:23:318,2.5727,1.8214,10.4005,26.4837,-0.9076,0.4281,-0.6994,282.4844
14:43:23:340,2.6984,1.3246,11.5713,24.8138,-1.146,0.7589,-0.7077,283.0469
14:43:23:359,2.951,1.1007,12.2393,25.5565,-1.2211,0.9405,-0.6603,283.7031
14:43:23:380,2.9605,1.0553,12.037,26.8482,-1.1031,0.7978,-0.6616,284.375
14:43:23:403,2.3883,0.9691,11.1798,26.0891,-0.9707,0.483,-0.6946,285.0156
14:43:23:420,1.4462,0.7117,10.9763,25.6104,-0.9681,0.2841,-0.6874,285.5469
14:43:23:440,0.4107,0.6626,11.0625,25.791,-0.9622,0.3586,-0.5516,286.125
14:43:23:459,0.4347,0.9308,10.6232,26.6403,-0.8245,0.4518,-0.3053,287.125
14:43:23:479,1.1936,1.5101,9.6476,27.2774,-0.5713,0.2351,-0.1266,287.7656
14:43:23:504,2.131,2.1123,9.0311,26.9937,-0.3393,-0.3077,-0.1031,288.1406
14:43:23:520,3.018,2.4176,9.304,27.3536,-0.2035,-0.8204,-0.248,288.2656
14:43:23:539,3.352,2.4092,9.8738,28.3466,-0.1909,-0.9378,-0.5138,288.3594
14:43:23:560,3.1042,2.1626,10.2521,29.1077,-0.2155,-0.6739,-0.8073,288.625
14:43:23:579,2.526,1.9256,9.5961,29.5631,-0.2296,-0.2302,-1.0523,289.1719
14:43:23:604,1.8592,1.6957,8.326,28.5865,-0.2826,0.1269,-1.228,290.0625
14:43:23:620,1.3468,1.4754,7.4485,28.6738,-0.3555,0.2905,-1.3165,291.2031
14:43:23:640,0.8129,1.4766,6.9744,28.4389,-0.3886,0.2883,-1.3306,292.4531
14:43:23:659,0.4718,1.5305,6.9409,28.4389,-0.359,0.1549,-1.2858,293.875
14:43:23:680,0.2922,1.6813,6.9493,30.2266,-0.2932,-0.0238,-1.2126,294.6094
14:43:23:702,0.2707,1.8813,7.1767,30.971,-0.2607,-0.1689,-1.1357,296.0781
14:43:23:720,0.2527,2.0357,7.8076,30.5483,-0.2477,-0.2028,-1.0595,297.4375
14:43:23:739,0.3449,2.3972,8.0351,31.7962,-0.2149,-0.1538,-1.0033,298.8281
14:43:23:760,0.2575,2.6797,8.1201,32.6618,-0.2581,-0.071,-1.0091,300.125
14:43:23:779,-0.3147,2.7348,8.5163,33.6019,-0.3627,0.0257,-1.0075,301.875
14:43:23:803,-0.8989,2.7252,9.3567,33.3181,-0.453,0.1165,-0.9276,303.0312
14:43:23:820,-1.373,2.742,10.2641,32.8134,-0.4469,0.1751,-0.778,304.1875
14:43:23:844,-1.4999,2.8401,10.8195,33.0935,-0.3529,0.145,-0.5793,305.2188
14:43:23:860,-1.3849,2.961,11.3031,33.7108,-0.2466,0.0801,-0.3844,306.1562
14:43:23:879,-1.2808,3.0843,11.6036,35.2431,-0.1595,0.0388,-0.2195,306.9062
14:43:23:904,-1.0162,3.2687,11.9592,33.9765,-0.1324,0.0353,-0.0805,307.3906
14:43:23:921,-0.7289,3.4602,12.6319,35.4434,-0.1422,0.0207,-0.0099,307.7188
14:43:23:946,-0.7852,3.4016,13.7297,36.3366,-0.1212,-0.0158,0.0103,307.875
14:43:23:959,-1.0629,3.0807,14.4527,37.8997,-0.032,-0.0462,0.0423,307.9062
14:43:23:980,-1.4568,2.6211,15.2392,35.0661,0.1001,-0.1458,0.1429,307.8906
14:43:24:007,-1.5453,1.8118,16.0473,37.1957,0.3294,-0.2036,0.3283,307.8594
14:43:24:023,-1.1204,1.1977,15.8426,37.2841,0.6535,-0.0968,0.585,307.7812
14:43:24:039,-0.1411,1.0744,14.2875,37.8132,0.9713,0.0444,0.7981,307.375
14:43:24:059,0.6621,1.1031,12.4607,37.7499,1.1422,0.0641,0.8572,306.7344
14:43:24:081,1.0548,1.1175,11.0948,39.285,1.2251,-0.0345,0.7973,305.875
14:43:24:106,1.1039,1.0205,10.0953,40.374,1.2474,-0.1777,0.6889,305
14:43:24:121,1.0105,0.7691,9.3902,37.739,1.2133,-0.288,0.5739,304.1562
14:43:24:140,0.6501,0.5956,8.6743,41.0583,1.135,-0.308,0.4953,303.7812
14:43:24:208,0.5029,0.4375,8.1284,39.8539,1.0211,-0.3181,0.4812,303.1562
14:43:24:208,0.795,0.5585,7.992,40.6719,0.9769,-0.4262,0.4681,302.6875
14:43:24:209,1.111,0.9643,7.2091,40.4721,1.0567,-0.7399,0.3688,302.2344
14:43:24:225,0.9746,0.9056,5.6289,41.9443,1.0227,-1.0105,0.2535,301.7812
14:43:24:239,0.315,0.8553,4.9513,40.9151,0.7137,-1.0563,0.2908,301.4375
14:43:24:260,0.5244,1.0217,5.8839,41.9949,0.5177,-1.124,0.3968,301.3125
14:43:24:280,0.8094,1.5509,6.3124,43.2374,0.4882,-1.0188,0.4338,301.2656
14:43:24:302,1.4366,2.1123,7.0439,44.2881,0.3971,-0.7069,0.3909,301.125
14:43:24:323,2.0448,2.3026,7.6759,42.9107,0.3326,-0.3232,0.2364,300.7656
14:43:24:340,1.9646,2.5361,7.1348,43.1239,0.2679,0.0766,0.0612,300.4844
14:43:24:364,1.7778,2.7575,6.6009,43.2014,0.1273,0.2084,-0.0635,300.2812
14:43:24:379,1.9083,2.8976,6.9026,44.0816,-0.0378,0.0984,-0.1737,300.1875
14:43:24:399,1.925,3.0867,7.9142,43.7131,-0.1763,0.0316,-0.276,300.2031
14:43:24:420,2.4841,3.1203,9.2453,45.1553,-0.2085,0.0063,-0.3593,300.375
14:43:24:439,3.2778,2.9263,10.136,43.2187,-0.1057,-0.0435,-0.5063,300.6719
14:43:24:459,3.1437,2.1698,9.8978,45.9022,-0.0786,-0.1096,-0.6629,301.0938
14:43:24:479,2.1489,1.4347,10.4867,46.4505,-0.2056,-0.0917,-0.5585,301.6875
14:43:24:503,2.2962,1.5042,11.4097,44.3527,-0.1238,-0.1596,-0.1356,302.4375
14:43:24:523,5.089,3.0388,9.6763,45.8392,0.4698,-0.7082,0.2559,303.1094
14:43:24:540,5.7318,3.1203,8.1751,44.3264,0.3622,-0.9682,-0.0219,303.1094
14:43:24:559,5.0279,2.8006,8.4792,46.407,-0.1063,-0.9477,-0.3404,303.2969
14:43:24:580,3.8284,2.4954,9.7302,47.9403,-0.5385,-0.508,-0.5138,303.0156
14:43:24:606,2.7534,2.4307,10.282,47.8649,-0.6935,0.0207,-0.5431,303.2812
14:43:24:624,2.0891,2.3577,9.5709,46.2427,-0.5484,0.2377,-0.5039,303.9219
14:43:24:639,2.1298,2.2104,7.9728,48.7649,-0.3241,-0.006,-0.4219,304.6562
14:43:24:659,2.5092,2.323,6.8009,46.6582,-0.2948,-0.5002,-0.4033,305.3125
14:43:24:678,2.7774,2.5073,7.3898,48.481,-0.5127,-0.7618,-0.4818,305.875
14:43:24:699,2.7056,2.5241,8.5031,47.0842,-0.7263,-0.5354,-0.6086,306.3438
14:43:24:722,2.0771,2.5337,8.7545,47.7463,-0.796,-0.0278,-0.7207,306.9531
14:43:24:739,1.2295,2.4738,8.1679,47.1745,-0.7124,0.3155,-0.7668,307.7188
14:43:24:759,0.5747,2.4295,7.1205,47.6106,-0.5353,0.3733,-0.7087,308.5938
14:43:24:779,0.3245,2.6606,6.1269,48.2426,-0.3763,0.2137,-0.5977,309.4375
14:43:24:805,0.3712,2.9407,5.5666,49.3568,-0.3087,-0.0038,-0.5159,310.2969
14:43:24:824,0.5137,3.1047,5.5511,48.4504,-0.3499,-0.1325,-0.4842,311.0469
14:43:24:840,0.5663,3.1334,5.8599,48.6662,-0.4716,-0.1069,-0.4725,311.6875
14:43:24:859,0.6585,3.0831,6.5794,48.9386,-0.5899,0.0028,-0.4429,312.2969
14:43:24:878,0.6729,2.9263,7.3958,48.2429,-0.6357,0.1514,-0.3902,312.8906
14:43:24:898,0.6035,2.7982,8.5139,48.8575,-0.5803,0.3064,-0.2666,313.7188
14:43:24:922,0.625,3.1203,9.796,49.4194,-0.2972,0.4114,-0.0941,314.2188
14:43:24:941,0.6382,3.1909,9.9444,49.8546,0.3406,0.3078,0.0724,314.5938
14:43:24:962,0.7423,3.0855,6.7721,50.3372,0.9856,-0.2073,0.2673,314.75
14:43:24:978,0.7675,3.811,4.67,51.1487,0.9294,-1.0917,0.4439,314.7031
14:43:24:998,1.3397,4.6178,6.4693,51.3747,0.2828,-1.6473,0.543,314.4531
14:43:25:020,2.034,5.1386,10.628,51.6279,-0.4554,-1.3594,0.5243,314.125
14:43:25:041,2.1992,5.3074,14.1427,52.7467,-1.0224,-0.2638,0.4178,313.8125
14:43:25:059,1.7658,5.0931,15.4751,51.9588,-1.261,0.7648,0.3147,313.5156
14:43:25:080,1.1242,4.4502,15.6917,50.5347,-1.2525,1.0473,0.3105,313.1875
14:43:25:104,0.3533,3.5847,17.042,50.8897,-1.049,0.7238,0.458,312.8594
14:43:25:123,-0.3267,2.7264,18.3397,49.8187,-0.4703,0.2729,0.7661,312.4531
14:43:25:140,-0.2609,2.1147,17.552,50.4853,0.3159,-0.0472,1.1699,312.2344
14:43:25:159,0.6801,1.9639,14.831,50.2066,0.9308,-0.2443,1.5281,311.6719
14:43:25:179,2.2124,2.062,12.9264,51.2471,1.1345,-0.468,1.6929,310.8281
14:43:25:206,3.4681,1.9998,12.8618,50.1265,1.1151,-0.4917,1.6357,308.6406
14:43:25:222,3.838,1.7196,12.7756,48.5391,1.1601,-0.218,1.4447,306.7188
14:43:25:239,3.3592,1.1821,11.3462,48.3189,1.3422,0.1693,1.2468,304.875
14:43:25:259,2.4961,0.7404,8.8287,48.4654,1.5255,0.4212,1.1531,303.0469
14:43:25:278,2.1944,0.568,6.5423,46.5819,1.6192,0.3882,1.1536,301.4062
14:43:25:299,2.3704,0.6135,4.7047,47.8591,1.6115,0.1083,1.1291,299.9062
14:43:25:324,2.5116,0.4723,4.0032,45.8803,1.4581,-0.2542,1.0681,298.3438
14:43:25:338,2.8217,0.4806,4.4665,46.3759,1.2133,-0.3844,1.0146,296.7969
14:43:25:358,3.1605,0.4663,5.0459,48.8162,0.9896,-0.2196,0.9139,295.3906
14:43:25:378,3.1425,0.5405,5.0842,48.1737,0.8069,0.0489,0.7805,294.2031
14:43:25:399,2.9701,0.6123,4.7119,47.4238,0.6232,0.1799,0.6588,293.0156
14:43:25:419,2.8193,0.5764,4.8244,46.9608,0.3792,0.1741,0.5672,291.9531
14:43:25:438,2.6529,0.5225,5.502,47.5684,0.0993,0.255,0.5121,291.0469
14:43:25:462,2.8384,0.8338,6.146,46.9005,-0.1702,0.4108,0.4692,290.2188
14:43:25:478,3.2083,1.2001,6.4704,48.2573,-0.4027,0.5565,0.3427,289.1875
14:43:25:499,3.3209,1.2312,6.729,46.3263,-0.6594,0.5994,0.1605,288.5938
14:43:25:524,3.4214,0.9188,8.0099,45.8248,-0.9508,0.5355,0.0242,288.1094
14:43:25:545,3.686,0.4316,9.7589,45.0155,-1.1657,0.5741,-0.0262,287.8438
14:43:25:559,4.1612,-0.0078,11.1044,44.9332,-1.2155,0.6561,0.0061,287.8125
14:43:25:579,4.6209,-0.0844,11.4157,45.3235,-1.1795,0.7711,0.0844,287.8438
14:43:25:603,5.2757,0.0269,11.0075,44.7714,-1.2128,0.8785,0.1459,287.8125
14:43:25:622,5.7055,0.3573,10.4448,44.703,-1.3809,0.8476,0.0825,287.7656
14:43:25:640,5.5367,0.5752,10.798,44.1216,-1.6624,0.6614,-0.1146,287.5781
14:43:25:658,4.7801,0.3657,12.4787,44.341,-1.9193,0.6095,-0.358,287.375
14:43:25:678,3.5555,-0.1047,14.0529,42.4119,-1.9332,0.9293,-0.46,287.3594
14:43:25:699,2.4506,0.0305,13.8254,42.4247,-1.5926,1.2827,-0.325,287.6562
14:43:25:720,2.8037,0.41,11.9304,42.7869,-1.045,1.0729,-0.1021,288.1875
14:43:25:738,3.8045,0.9906,10.4269,43.1188,-0.539,0.2915,-0.0113,288.625
14:43:25:758,4.7299,1.74,9.8259,42.5036,-0.1947,-0.5037,-0.1167,288.7969
14:43:25:780,5.1512,2.2248,9.6236,42.7902,-0.0703,-0.8403,-0.4451,288.7969
14:43:25:805,4.9621,2.2152,9.5697,42.7902,-0.1281,-0.6345,-0.8909,288.9844
14:43:25:821,4.0679,1.7747,9.0239,41.4629,-0.2245,-0.1082,-1.3253,289.5625
14:43:25:845,2.7582,1.3904,7.8759,41.2796,-0.2935,0.357,-1.6198,290.5781
14:43:25:859,1.7623,1.1079,6.8439,42.3118,-0.3286,0.6148,-1.7522,292.125
14:43:25:879,1.0799,1.1031,6.1041,41.175,-0.3366,0.6036,-1.7724,293.9531
14:43:25:904,0.7052,1.2576,6.2382,43.3165,-0.338,0.3805,-1.7215,295.8281
14:43:25:925,0.3533,1.6514,7.6556,42.8869,-0.1459,-0.0265,-1.5671,297.8281
14:43:25:939,0.2755,1.9004,7.9118,40.8657,-0.0754,-0.1303,-1.4925,297.8281
14:43:25:959,0.1629,2.086,8.2888,43.2266,-0.1678,-0.0885,-1.439,301.5781
14:43:25:979,-0.1759,2.0931,9.3172,41.7495,-0.3843,0.1378,-1.3953,305.0938
14:43:26:000,-0.9911,2.0955,10.7082,42.1657,-0.5635,0.519,-1.3074,306.7344
14:43:26:023,-1.9404,1.9986,11.8227,43.4194,-0.6013,0.8753,-1.1311,308.25
14:43:26:038,-2.4503,1.728,12.7325,41.5937,-0.5209,1.0212,-0.8531,309.0156
14:43:26:063,-2.3354,1.6873,13.7656,41.4342,-0.3667,0.907,-0.5412,310.9688
14:43:26:077,-2.1403,1.5413,14.7592,41.2305,-0.1111,0.5504,-0.2861,310.9688
14:43:26:098,-2.1475,1.1007,15.8737,40.3239,0.2264,0.1107,-0.0523,311.8594
14:43:26:127,-1.9332,0.6123,15.9814,41.841,0.6168,-0.1186,0.2351,312.4375
14:43:26:138,-1.2018,0.343,14.7149,39.8114,0.8746,-0.1674,0.5145,312.75
14:43:26:157,-0.2752,0.2951,13.9619,40.0508,0.9023,-0.2217,0.7046,312.8125
14:43:26:178,0.37,0.1814,14.0768,40.3947,0.9281,-0.2118,0.796,312.5781
14:43:26:198,0.6047,-0.0569,13.2808,39.4164,1.1108,-0.1173,0.8386,312.0312
14:43:26:227,0.4562,-0.349,11.211,39.4577,1.2858,-0.1101,0.8809,311.2812
14:43:26:294,0.3102,-0.5309,9.5685,39.6607,1.2836,-0.1668,0.9733,310.4531
14:43:26:295,0.3449,-0.5704,8.9077,39.9311,1.188,-0.2417,1.0801,309.5469
14:43:26:295,0.4694,-0.5668,8.703,38.7378,1.0967,-0.3117,1.1653,308.5938
14:43:26:306,0.5496,-0.5752,8.6947,37.4607,1.0107,-0.3431,1.2229,305.7812
14:43:26:321,0.6106,-0.5968,8.7533,37.4818,0.951,-0.2997,1.2775,305.7812
14:43:26:339,0.6765,-0.6063,8.5366,37.1734,0.9547,-0.202,1.3302,304.4688
14:43:26:361,0.8118,-0.5644,7.6951,37.8891,1.0096,-0.092,1.3866,303.1719
14:43:26:378,0.9805,-0.343,6.4369,37.3667,1.04,-0.035,1.4298,301.7188
14:43:26:397,1.3349,-0.1155,5.3679,37.7542,1.0053,-0.0496,1.4234,300.1719
14:43:26:421,1.518,0.155,4.5228,37.1556,0.9012,-0.0392,1.3675,298.6406
14:43:26:438,1.7144,0.434,3.6441,36.5821,0.694,0.1176,1.2617,296.9844
14:43:26:457,1.7778,0.7009,2.6972,36.2282,0.3523,0.3834,1.1318,295.375
14:43:26:478,2.1202,0.9212,2.1202,37.0237,-0.0791,0.4878,0.9794,293.8281
14:43:26:498,2.532,1.4359,2.7427,35.263,-0.5428,0.2952,0.7518,292.4531
14:43:26:521,2.5715,1.8633,5.0303,35.5493,-0.9265,0.0289,0.4127,291.125
14:43:26:539,1.9849,1.7627,7.8483,35.0698,-1.0903,-0.1136,0.0982,290.0312
14:43:26:558,1.6198,1.6215,9.9959,36.6233,-1.1116,-0.1197,-0.0672,289.375
14:43:26:578,1.4989,1.3964,12.092,34.2592,-1.1577,-0.0241,-0.1244,289.1562
14:43:26:598,1.4809,1.3976,14.3222,33.7327,-1.126,0.2031,-0.1119,289.1719
14:43:26:620,1.4055,1.4072,15.4104,36.1155,-0.8943,0.4492,-0.0674,289.3125
14:43:26:639,1.8951,1.1091,14.5473,35.1032,-0.5393,0.5794,0.05,289.5625
14:43:26:658,2.6661,1.2145,12.997,34.1868,-0.2828,0.491,0.1773,289.6562
14:43:26:678,3.7003,1.4563,11.6826,33.6245,-0.1377,0.2779,0.1776,289.625
14:43:26:698,4.2414,1.2803,10.3634,33.5279,-0.1707,-0.0092,-0.0318,289.4219
14:43:26:721,3.9254,0.6518,10.3586,33.1528,-0.4669,-0.2086,-0.3063,289.1406
14:43:26:738,3.0132,-0.0581,12.0226,31.7072,-0.7859,-0.1293,-0.4725,289.0156
14:43:26:758,1.9418,-0.5225,13.4496,33.0473,-0.8069,0.2383,-0.4613,289.2188
14:43:26:778,1.8077,-0.6566,12.6319,31.2223,-0.4799,0.5624,-0.2802,289.7344
14:43:26:798,2.6732,-0.2628,9.9624,31.5183,-0.1087,0.4593,-0.1319,290.3125
14:43:26:819,3.5136,0.0868,8.2362,31.9422,0.0461,-0.0827,-0.175,290.7031
14:43:26:838,3.6609,0.2927,8.0961,31.5099,-0.0293,-0.455,-0.3649,290.8594
14:43:26:858,3.2538,0.2783,8.6803,31.0917,-0.1627,-0.365,-0.5692,290.9688
14:43:26:878,2.4673,0.1742,8.3954,31.9528,-0.188,-0.0395,-0.705,291.3125
14:43:26:897,1.6126,0.3681,7.5167,32.2159,-0.1587,0.2071,-0.7351,292.2344
14:43:26:921,1.0763,0.6698,6.6979,30.4002,-0.1446,0.3123,-0.6898,293.0469
14:43:26:938,1.123,1.0361,6.1879,31.5916,-0.1435,0.3514,-0.6099,293.875
14:43:26:958,1.4761,1.5281,5.8779,32.2701,-0.1515,0.3203,-0.591,294.5938
14:43:26:978,1.5911,1.9459,5.8922,31.7928,-0.1856,0.2468,-0.6725,295.25
14:43:26:998,1.4857,2.1698,6.2382,31.0701,-0.2192,0.1469,-0.7886,295.9062
14:43:27:019,1.2834,2.226,6.5925,29.78,-0.2562,0.0164,-0.9058,296.6094
14:43:27:037,0.9027,2.1302,7.3647,31.3175,-0.3388,-0.0875,-0.9921,297.5
14:43:27:058,0.6023,1.9591,8.5462,31.4187,-0.4298,-0.1231,-1.0177,297.9844
14:43:27:078,0.4861,1.8992,9.7768,29.3441,-0.4815,-0.0568,-1.0057,299.0781
14:43:27:098,0.1198,1.9507,10.8866,30.5335,-0.4786,0.12,-0.994,300.1875
14:43:27:124,-0.3447,1.7352,11.1559,28.8608,-0.432,0.3301,-0.9503,301.3438
14:43:27:141,-0.9564,1.5772,11.1403,30.0613,-0.4131,0.4558,-0.8315,302.4844
14:43:27:160,-1.2975,1.4276,11.7569,31.1351,-0.3928,0.3751,-0.6208,303.5156
14:43:27:178,-1.2904,1.3294,12.8187,27.8995,-0.2799,0.1749,-0.3705,304.9531
14:43:27:199,-0.9432,1.3366,13.4077,30.225,-0.0959,-0.0741,-0.1356,305.625
14:43:27:228,-0.6894,1.3761,14.0541,29.0974,0.0551,-0.3138,0.0487,306.0156
14:43:27:238,-0.2668,1.3725,14.5114,30.0365,0.131,-0.4427,0.1893,306.1719
14:43:27:257,0.1162,1.1462,15.2129,28.2612,0.1326,-0.4278,0.2697,306.125
14:43:27:277,0.2922,0.7739,15.9395,28.4529,0.1811,-0.2547,0.3374,305.9375
14:43:27:298,0.1964,0.3837,15.9108,29.5414,0.3758,-0.0142,0.4218,305.6719
14:43:27:321,0.0396,-0.2185,11.4097,28.3839,0.9124,0.0971,0.7344,305.2969
14:43:27:341,0.3245,-0.1897,9.79,28.8365,0.9657,-0.1849,0.8665,305.2969
14:43:27:358,0.5807,-0.1347,9.4847,28.0914,0.9444,-0.4491,0.9363,304.8281
14:43:27:378,0.5616,-0.1012,9.4309,28.0708,0.9987,-0.5663,0.9792,304.2188
14:43:27:399,0.5963,0.0198,8.6528,29.0397,1.0962,-0.5788,1.0359,302.4375
14:43:27:424,0.8273,0.0329,7.6711,27.3959,1.134,-0.5413,1.0663,301.4688
14:43:27:439,0.8321,0.1191,6.9625,27.672,1.1148,-0.468,1.0703,300.4219
14:43:27:460,0.9662,0.1957,6.4489,29.1439,1.0717,-0.3679,1.0644,299.2969
14:43:27:476,1.2906,0.3765,5.9222,27.5523,0.9729,-0.2696,1.0098,298.1406
14:43:27:497,1.6234,0.6063,5.6636,29.0034,0.7574,-0.1226,0.8774,297.0312
14:43:27:521,1.6449,0.6411,5.9964,28.3831,0.47,0.1352,0.7113,295.8281
14:43:27:538,1.4594,0.7404,6.1796,27.102,0.2466,0.4007,0.5856,294.6875
14:43:27:557,1.6078,0.9774,6.2215,27.8961,0.1225,0.4918,0.4876,293.7344
14:43:27:577,1.7084,1.3162,6.3076,28.3342,0.0541,0.3986,0.3541,292.875
14:43:27:597,1.7287,1.5149,6.5794,27.8472,0.0123,0.2143,0.1904,292.125
14:43:27:620,1.5312,1.5616,7.0199,28.2167,-0.0304,0.0553,0.0236,291.5
14:43:27:640,1.2966,1.4814,7.4844,27.4156,-0.1023,-0.0033,-0.1087,291.0156
14:43:27:657,1.2403,1.224,7.8411,29.1942,-0.2144,-0.0198,-0.2001,290.7656
14:43:27:676,1.36,0.9092,8.4804,27.826,-0.3934,-0.1024,-0.2619,290.7344
14:43:27:698,1.7012,0.6913,10.0055,26.428,-0.6298,-0.1655,-0.3263,290.8438
14:43:27:722,1.7239,0.3597,12.0334,27.2314,-0.783,-0.0179,-0.3961,291.0938
14:43:27:738,1.9382,0.0114,12.669,27.454,-0.7814,0.3562,-0.3881,291.625
14:43:27:763,2.5332,0.1454,11.4324,27.7376,-0.8554,0.7791,-0.3788,292.0469
14:43:27:776,3.1629,0.4579,10.4305,27.2769,-1.1622,1.1688,-0.5119,292.5156
14:43:27:797,2.9605,0.313,10.3024,26.4973,-1.5513,1.3645,-0.8011,292.875
14:43:27:823,1.9083,-0.5369,11.3223,27.357,-1.845,1.3903,-1.0629,293.2031
14:43:27:841,0.2431,-1.3952,12.7492,27.6829,-1.8565,1.3696,-1.1055,293.7812
14:43:27:860,-1.0126,-1.6897,13.0641,28.2387,-1.4866,1.2939,-0.8531,294.6719
14:43:27:877,-0.8846,-1.3952,11.5892,27.1338,-0.8892,0.9288,-0.4379,295.7031
14:43:27:898,0.3269,-0.7141,9.79,26.5276,-0.4176,0.2273,-0.1204,296.6875
14:43:27:922,1.4306,-0.228,9.462,26.5276,-0.1774,-0.4819,-0.0749,297.2812
14:43:27:943,1.718,0.0473,9.5326,29.0055,-0.0948,-0.7354,-0.1876,297.5
14:43:27:957,1.6617,0.179,9.3423,26.2617,-0.1244,-0.4939,-0.3306,297.5469
14:43:27:977,1.2032,0.2448,8.4564,29.3495,-0.1907,-0.0595,-0.4645,297.7031
14:43:27:999,0.5843,0.2664,7.2988,29.5514,-0.2714,0.2886,-0.5436,298.0156
14:43:28:023,0.1869,0.3394,6.5159,29.5514,-0.3492,0.4313,-0.554,298.4531
14:43:28:039,0.1198,0.5429,6.3088,29.0923,-0.3614,0.3746,-0.5362,299.0156
14:43:28:057,0.1438,0.677,6.3759,29.4866,-0.3236,0.1826,-0.5599,299.625
14:43:28:077,-0.0861,0.7225,6.7793,28.0284,-0.3116,-0.0054,-0.6256,300.1875
14:43:28:097,-0.5135,0.5848,7.4928,30.0509,-0.3374,-0.0795,-0.6704,300.7656
14:43:28:124,-0.9085,0.4878,8.5474,31.2883,-0.3728,-0.0507,-0.6414,301.4219
14:43:28:140,-0.7852,0.5477,9.4859,28.9476,-0.3595,0.0649,-0.5649,302.1406
14:43:28:159,-0.6296,0.7117,9.9157,29.6822,-0.3236,0.1629,-0.5391,302.8438
14:43:28:183,-0.7062,0.8278,10.44,30.7959,-0.3228,0.2169,-0.55,303.5
14:43:28:196,-0.9791,0.7045,11.1727,30.8364,-0.3009,0.2572,-0.5543,304.0938
14:43:28:217,-1.3909,0.4471,11.5617,29.2506,-0.225,0.2612,-0.4965,304.6719
14:43:28:240,-1.5765,0.2927,11.8562,32.6795,-0.1427,0.198,-0.3766,305.2812
14:43:28:257,-1.4532,0.1826,12.2453,31.4318,-0.0711,0.1187,-0.2437,305.8906
14:43:28:277,-1.2126,0.064,12.5769,32.1071,-0.028,0.0675,-0.1433,306.375
14:43:28:351,-0.9827,-0.082,12.8043,32.0804,-0.0325,-0.031,-0.0826,306.7031
14:43:28:352,-0.7948,-0.3238,13.744,32.2509,-0.0977,-0.2081,-0.0669,306.9219
14:43:28:352,-0.9947,-0.7572,15.1434,33.1065,-0.1297,-0.3428,-0.0621,307.0781
14:43:28:356,-1.5992,-1.3988,16.629,33.4257,-0.0184,-0.2944,0.0314,307.1406
14:43:28:379,-1.7177,-1.892,16.483,33.0111,0.343,-0.0576,0.2836,307.1875
14:43:28:397,-1.0222,-1.7232,13.6219,33.1225,0.7854,0.0406,0.5776,307.1406
14:43:28:423,-0.0729,-1.3761,11.0721,33.8102,0.9992,-0.2315,0.7472,306.8438
14:43:28:440,0.4801,-1.2336,10.379,33.5121,1.0493,-0.6326,0.7669,306.25
14:43:28:457,0.5244,-1.1642,10.628,33.3247,1.1215,-0.9096,0.7347,305.4688
14:43:28:480,0.3161,-1.1666,10.3012,31.9881,1.2616,-0.9282,0.7462,304.7188
14:43:28:497,0.3401,-1.1917,9.2238,34.949,1.3651,-0.7943,0.8079,303.9688
14:43:28:518,0.2515,-0.9164,8.0147,34.9006,1.3542,-0.635,0.8591,303.2031
14:43:28:540,0.3305,-0.7105,7.2486,34.2731,1.2932,-0.5687,0.8788,302.7969
14:43:28:557,0.6585,-0.5908,6.7159,33.4619,1.2251,-0.5349,0.8692,301.9688
14:43:28:581,0.9662,-0.416,6.2478,32.6367,1.1281,-0.5029,0.809,301.0469
14:43:28:596,1.2247,-0.3142,6.0754,32.692,1.0003,-0.4704,0.7003,300.125
14:43:28:618,1.2858,-0.319,5.9844,35.1738,0.8615,-0.382,0.5675,299.2656
14:43:28:640,1.202,-0.3885,5.988,34.2933,0.7388,-0.2534,0.4588,298.1094
14:43:28:658,1.129,-0.3334,5.6217,34.9899,0.6687,-0.1197,0.3938,297.5
14:43:28:676,1.3397,-0.0341,4.9633,34.3769,0.5686,-0.1064,0.3376,297.0312
14:43:28:697,1.7251,0.2783,4.9358,35.5656,0.3827,-0.2009,0.2388,296.5938
14:43:28:721,1.9729,0.4208,6.5088,35.0321,0.1622,-0.2986,0.0865,296.2188
14:43:28:738,1.8784,0.2053,7.6292,34.1057,-0.2245,-0.2345,-0.186,295.9688
14:43:28:757,1.9358,0.173,8.3798,35.6864,-0.3827,-0.064,-0.2579,295.9688
14:43:28:777,2.2136,0.0437,8.7282,35.4995,-0.5859,0.0289,-0.3636,295.9375
14:43:28:797,2.3321,0.1,9.5075,36.5341,-0.8557,0.0596,-0.4914,296.0625
14:43:28:827,2.4458,-0.0401,10.7225,34.9962,-1.052,0.0462,-0.6171,296.6094
14:43:28:839,2.423,-0.1838,11.43,33.9037,-1.134,0.0561,-0.7173,297.0312
14:43:28:856,2.7475,-0.3645,11.5378,34.7998,-1.2714,0.1224,-0.8209,297.6094
14:43:28:877,2.8504,-0.7344,12.1076,37.1647,-1.4956,0.2252,-0.974,298.2812
14:43:28:897,2.3117,-1.4718,13.1862,37.2241,-1.6509,0.3046,-1.0882,299.5781
14:43:28:921,1.4402,-2.1123,14.57,35.5959,-1.5862,0.4343,-1.003,300.5938
14:43:28:943,1.1015,-2.2476,14.4479,37.0961,-1.2248,0.6393,-0.7151,301.7188
14:43:28:959,1.5695,-1.7352,12.2764,36.9506,-0.7707,0.6513,-0.3934,302.3438
14:43:28:976,2.5691,-1.169,10.4508,37.1123,-0.4953,0.2912,-0.2446,303.4688
14:43:28:997,2.9581,-0.7548,9.9217,34.7545,-0.3475,-0.1285,-0.3143,304.25
14:43:29:022,2.6301,-0.6411,9.5566,35.5132,-0.2381,-0.2664,-0.4368,304.6562
14:43:29:039,2.1477,-0.3896,8.7509,38.0098,-0.187,-0.1378,-0.4818,304.9219
14:43:29:056,1.8472,0.0724,7.9309,39.8815,-0.2051,0.0867,-0.4661,305.2812
14:43:29:076,1.8724,0.4986,7.1432,39.1759,-0.2229,0.2566,-0.4731,305.75
14:43:29:096,1.9191,0.7895,6.3974,38.6629,-0.2573,0.3181,-0.5471,306.2969
14:43:29:116,1.8496,1.0433,6.2322,36.8483,-0.3462,0.3181,-0.6696,306.8281
14:43:29:138,1.4905,1.0684,6.6392,36.7625,-0.4093,0.3187,-0.8161,307.3594
14:43:29:156,0.8465,0.9918,7.154,39.6762,-0.4155,0.373,-0.9053,307.9531
14:43:29:176,0.2934,1.1378,7.3264,38.8472,-0.4152,0.4609,-0.9218,309.1562
14:43:29:196,-0.128,1.3474,7.749,39.1668,-0.4706,0.455,-0.9394,310.1562
14:43:29:217,-0.2106,1.4695,8.7114,39.0154,-0.5404,0.3586,-0.9804,311.1406
14:43:29:241,-0.5889,1.3473,10.0689,39.3124,-0.584,0.2881,-1.0573,312.2031
14:43:29:258,-1.3394,0.8541,11.3438,40.8929,-0.5356,0.3341,-1.0893,313.2812
14:43:29:283,-2.3749,0.3286,11.6802,42.9823,-0.4141,0.4516,-0.9721,314.375
14:43:29:296,-3.0705,0.1263,11.7018,41.1589,-0.3406,0.4598,-0.6933,315.6094
14:43:29:317,-2.9855,0.0162,12.6415,42.5215,-0.3065,0.3195,-0.3596,316.8125
14:43:29:340,-2.4372,-0.0509,14.0744,41.8402,-0.1683,0.205,-0.0496,317.75
14:43:29:358,-1.9129,-0.0928,14.6538,41.5877,0.1044,0.1389,0.1975,318.3438
14:43:29:376,-1.5801,-0.1945,14.3043,42.8771,0.3467,0.0534,0.3669,318.5781
14:43:29:397,-1.2018,-0.422,14.1487,42.0319,0.4469,-0.0579,0.4931,318.4844
14:43:29:421,-0.96,-0.7715,15.1722,40.6451,0.469,-0.1916,0.5765,318.1875
14:43:29:440,-1.0952,-1.1031,16.2412,41.075,0.632,-0.1234,0.6985,317.7344
14:43:29:457,-0.9947,-1.5413,15.4822,40.5163,0.9715,0.1048,0.8924,317.4375
14:43:29:480,-0.5506,-1.637,12.7325,40.6625,1.2474,0.2401,1.1073,316.4688
14:43:29:495,-0.0274,-1.3904,10.7656,41.3935,1.2378,0.1291,1.2112,315.625
14:43:29:517,0.2264,-0.9894,10.2796,41.5871,1.0775,-0.125,1.1512,314.5625
14:43:29:540,-0.0286,-1.169,10.9045,40.7308,0.9872,-0.3458,1.017,313.375
14:43:29:556,-0.5745,-1.4946,10.7513,40.2735,1.032,-0.3716,0.9754,312.0781
14:43:29:576,-0.8343,-1.6203,9.9899,41.1422,1.1297,-0.2909,1.041,310.9219
14:43:29:596,-0.7636,-1.5544,8.8467,41.1864,1.2666,-0.2174,1.1467,309.875
14:43:29:616,-0.4919,-1.3665,7.4185,40.204,1.4054,-0.2014,1.2412,308.8594
14:43:29:639,-0.0813,-1.2097,5.9605,39.6514,1.4887,-0.2702,1.2892,307.6875
14:43:29:656,0.2707,-0.9535,4.8364,39.3113,1.4525,-0.3887,1.2801,306.4062
14:43:29:679,0.5604,-0.75,4.4653,41.4431,1.301,-0.4837,1.2056,305.125
14:43:29:697,0.6729,-0.6985,4.6006,41.2741,1.086,-0.4696,1.0961,303.75
14:43:29:722,0.7291,-0.7129,5.0818,39.8415,0.8669,-0.3492,0.9928,302.4219
14:43:29:740,0.7854,-0.6985,5.4553,39.8299,0.6914,-0.1189,0.9038,300.6875
14:43:29:756,0.8453,-0.6267,5.4493,40.7171,0.5262,0.1035,0.8175,299.625
14:43:29:776,0.947,-0.4747,5.3619,42.3207,0.3521,0.2878,0.7187,298.625
14:43:29:796,1.2283,0.0748,5.1453,40.8586,0.1401,0.4042,0.5776,297.7188
14:43:29:817,1.6641,0.3753,5.1979,40.1553,-0.1449,0.3759,0.3376,296.8594
14:43:29:841,1.8137,0.3166,5.9006,40.6485,-0.5121,0.2207,0.0188,296.125
14:43:29:857,1.5851,-0.3178,7.98,39.72,-0.9273,0.0753,-0.284,295.6562
14:43:29:875,0.9686,-1.06,10.8087,40.6784,-1.24,0.1629,-0.4478,295.5938
14:43:29:896,0.5005,-1.4036,12.5445,41.5176,-1.2703,0.4944,-0.3639,295.8906
14:43:29:916,1.5348,-1.2456,12.0453,40.9231,-1.1468,0.7227,-0.1218,296.3594
14:43:29:938,2.8768,-0.2352,11.6587,40.6889,-1.1231,0.6425,-0.0432,296.6562
14:43:29:956,3.9625,0.2783,11.7533,39.3816,-1.1153,0.3219,-0.26,296.6875
14:43:29:977,3.6405,0.0401,12.4404,39.3702,-1.1638,-0.0448,-0.6496,296.625
14:43:29:996,2.3309,-0.8481,13.7979,40.3548,-1.2067,-0.0542,-0.9101,296.6406
14:43:30:016,0.528,-1.1283,13.7931,40.3548,-1.1414,0.2782,-0.8723,297.0625
14:43:30:040,-0.0143,-1.0265,12.9935,41.6052,-0.9902,0.4377,-0.5916,297.9375
14:43:30:057,0.8141,-0.7859,11.8502,39.4056,-0.7505,0.2436,-0.3066,299.375
14:43:30:076,1.6629,-0.3825,10.9476,39.2714,-0.4964,-0.2177,-0.1841,299.9531
14:43:30:099,2.052,-0.0844,10.5143,41.8603,-0.2898,-0.574,-0.2043,300.25
14:43:30:123,0.941,0.4256,8.5175,41.5326,-0.106,-0.1964,-0.243,300.4219
14:43:30:142,0.6585,0.7668,7.0546,40.9362,-0.0432,-0.0188,-0.2139,300.6406
14:43:30:159,0.5604,1.0972,5.8001,41.1009,-0.0093,-0.031,-0.2027,300.9375
14:43:30:177,0.7447,1.3162,5.1285,40.6472,-0.0527,-0.1673,-0.2219,301.2188
14:43:30:196,0.7627,1.6933,5.4469,40.8356,-0.1526,-0.3538,-0.3042,301.4688
14:43:30:217,0.7974,1.8178,6.4477,40.5161,-0.2189,-0.4731,-0.411,301.6875
14:43:30:240,0.7974,1.9579,7.409,42.2388,-0.2317,-0.4718,-0.5162,301.9375
14:43:30:257,0.4203,1.8405,8.156,43.4231,-0.2706,-0.3932,-0.6161,302.2812
14:43:30:275,-0.1076,1.473,9.2848,42.828,-0.3792,-0.222,-0.6264,302.7344
14:43:30:296,-0.5506,1.2947,10.8004,42.8959,-0.486,0.0646,-0.5303,303.3281
14:43:30:317,-0.6607,1.2791,11.9939,42.8756,-0.4719,0.242,-0.4387,304.3906
14:43:30:339,-0.9468,1.0972,12.7612,42.1446,-0.3452,0.2308,-0.3825,305.0156
14:43:30:415,-1.1814,0.7644,13.1551,43.6759,-0.1864,0.1147,-0.2959,305.5469
14:43:30:416,-1.3813,0.483,13.6052,43.3593,-0.0517,-0.011,-0.1708,306.0156
14:43:30:416,-1.4903,0.1742,14.0206,41.7283,0.0695,-0.1343,-0.0278,306.2188
14:43:30:416,-1.2652,-0.1023,14.4096,42.6052,0.1476,-0.2582,0.124,306.5312
14:43:30:442,-0.9205,-0.2364,15.2991,44.5831,0.1822,-0.3876,0.2383,306.7188
14:43:30:460,-0.7481,-0.7153,16.3334,43.3292,0.2759,-0.3873,0.3171,306.75
14:43:30:476,-0.8582,-1.2492,16.4674,43.2335,0.4743,-0.1793,0.4591,306.625
14:43:30:495,-0.8414,-1.3677,15.0142,43.1465,0.742,0.0678,0.6777,306.3594
14:43:30:516,-0.4524,-1.1426,12.7337,44.5505,0.9691,0.161,0.8732,305.9844
14:43:30:539,-0.0011,-0.9116,10.6543,44.7069,1.0717,0.0137,0.9707,305.5
14:43:30:557,0.1833,-0.7284,9.6416,41.9007,1.0501,-0.2462,0.988,304.7344
14:43:30:576,0.0707,-0.7392,9.529,43.7298,1.0099,-0.4606,0.9818,303.75
14:43:30:596,0.0205,-1.0133,9.7074,44.3167,1.036,-0.5445,1.0146,302.1562
14:43:30:617,-0.0502,-1.1426,9.4141,43.4234,1.1135,-0.4984,1.1033,301.0625
14:43:30:640,0.121,-1.0205,8.7102,44.6745,1.1934,-0.4198,1.2077,299.9531
14:43:30:658,0.3712,-0.8098,7.7358,45.2397,1.2645,-0.3461,1.2588,298.7812
14:43:30:676,0.6585,-0.6782,6.5985,45.3562,1.2698,-0.3085,1.2516,297.5469
14:43:30:698,0.8668,-0.556,5.7462,47.5351,1.1777,-0.2928,1.1944,296.1406
14:43:30:721,0.9817,-0.4854,5.3236,45.8376,1.0197,-0.2765,1.1038,294.7031
14:43:30:739,1.0751,-0.3849,5.3559,44.4446,0.8416,-0.2726,1.0173,293.375
14:43:30:755,1.1996,-0.3286,5.7055,45.1857,0.6938,-0.2512,0.9305,292.0625
14:43:30:775,1.2918,-0.2831,5.9665,45.2936,0.5728,-0.2038,0.8407,290.8438
14:43:30:796,1.4929,-0.1754,6.0922,46.4791,0.437,-0.1293,0.7565,289.7969
14:43:30:817,1.8113,0.0293,6.3579,46.4821,0.2541,-0.0614,0.645,288.7812
14:43:30:838,2.1381,0.1431,7.0043,46.8298,0.0376,0.0428,0.4969,287.8594
14:43:30:856,2.4159,0.1574,7.561,46.8271,-0.18,0.2156,0.3291,287.0469
14:43:30:876,2.611,-0.0114,7.9896,48.3923,-0.4194,0.316,0.1422,286.7344
14:43:30:898,2.8229,-0.3478,8.8694,48.6555,-0.6775,0.3312,-0.0152,285.9375
14:43:30:922,3.2215,-0.8218,10.3479,47.3777,-0.8735,0.2257,-0.1409,285.6406
14:43:30:941,3.3233,-1.2145,12.1124,48.333,-0.9223,0.1685,-0.2118,285.5469
14:43:30:959,3.5926,-1.5197,12.8199,49.342,-0.7747,0.2415,-0.1798,285.6406
14:43:30:975,3.9709,-1.3114,11.3115,49.5822,-0.6285,0.3695,-0.1372,285.875
14:43:30:999,4.3863,-0.744,9.7457,49.4268,-0.7462,0.3363,-0.2211,286.125
14:43:31:015,3.8153,-0.3442,9.614,48.19,-1.0866,0.2351,-0.4746,286.2812
14:43:31:036,2.5308,-0.7787,11.0637,50.0084,-1.3457,0.2537,-0.6792,286.4375
14:43:31:058,1.141,-1.3964,11.7161,50.2426,-1.297,0.3887,-0.6501,286.8281
14:43:31:079,0.3916,-1.3868,11.2349,51.6255,-1.1063,0.4319,-0.3604,287.5
14:43:31:095,1.1721,-0.9451,10.9536,49.7896,-0.8818,0.1384,-0.044,288.3281
14:43:31:115,2.35,-0.4268,11.4049,51.2545,-0.6512,-0.3093,0.066,288.9219
14:43:31:143,2.8923,0.0521,11.6335,51.0357,-0.4333,-0.4888,-0.015,289.1406
14:43:31:157,2.7846,0.4483,11.0194,52.1043,-0.3198,-0.2486,-0.1849,289.0938
14:43:31:175,2.2207,0.683,9.7852,49.9567,-0.3052,0.1962,-0.3545,289.125
14:43:31:195,1.5863,0.8098,8.4157,52.2067,-0.3111,0.5083,-0.4613,289.3438
14:43:31:216,1.1625,0.9248,7.6448,51.648,-0.273,0.5839,-0.488,289.75
14:43:31:243,0.9566,1.0768,6.984,53.264,-0.1555,0.4582,-0.4802,290.2812
14:43:31:259,0.9674,1.2683,6.5902,52.1311,-0.0461,0.2231,-0.4768,290.7969
14:43:31:276,1.1146,1.3581,6.6344,51.4504,0.0027,0.0553,-0.5117,291.3438
14:43:31:298,1.1972,1.3114,6.8248,51.2883,-0.0077,0.0103,-0.5828,291.875
14:43:31:324,1.0979,1.2767,7.2043,52.7499,-0.0967,0.058,-0.6605,292.4688
14:43:31:343,0.977,1.1977,7.9153,51.9338,-0.2139,0.1197,-0.7197,293.0938
14:43:31:356,0.7914,1.1319,8.9209,54.5364,-0.2815,0.1823,-0.7561,293.4688
14:43:31:375,0.5508,0.9319,9.8283,53.3854,-0.273,0.2574,-0.7628,294.2656
14:43:31:395,0.1725,0.6614,10.209,54.1807,-0.2346,0.3163,-0.7165,295.1094
14:43:31:415,-0.0298,0.5752,10.4508,54.7639,-0.2157,0.3171,-0.6017,295.9375
14:43:31:444,-0.1471,0.5549,10.9979,53.8555,-0.1963,0.2252,-0.481,296.7812
14:43:31:460,-0.2034,0.4388,11.4935,53.7964,-0.1696,0.1376,-0.3649,297.875
14:43:31:478,-0.2262,0.3645,11.922,55.4406,-0.1766,0.0785,-0.2358,298.3906
14:43:31:494,-0.1376,0.4639,12.6236,54.9984,-0.2037,0.039,-0.1306,298.7969
14:43:31:516,-0.8989,0.3801,13.7225,55.3074,-0.2144,0.0148,-0.0762,299.0781
14:43:31:542,-1.6806,-0.1251,14.3402,55.3617,-0.1196,-0.0555,0.0865,299.2031
14:43:31:561,-2.4875,-0.8386,14.7245,53.613,0.0535,0.0625,0.3083,299.2031
14:43:31:575,-2.9819,-1.3868,13.7764,53.145,0.2775,0.4225,0.6005,299.2969
14:43:31:595,-2.7329,-1.7124,11.9783,54.6448,0.3675,0.9171,0.894,299.2188
14:43:31:617,-1.8985,-2.056,9.5111,53.7732,0.2314,1.3437,1.1169,299.2188
14:43:31:640,-1.3658,-1.9375,8.8216,51.9714,-0.0735,1.2061,1.2047,298.1875
14:43:31:659,-1.6758,-2.2284,10.3036,52.1236,-0.147,0.5062,1.1624,297.1719
14:43:31:675,-2.5677,-2.8569,11.709,51.6564,0.1281,-0.2166,1.2271,295.9688
14:43:31:695,-2.8179,-3.2495,12.2524,53.8138,0.5641,-0.6209,1.5107,293.2344
14:43:31:716,-1.9967,-2.8545,11.5019,51.4827,0.992,-0.5708,1.8895,291.9062
14:43:31:740,-0.3494,-1.8657,9.7242,51.1521,1.2567,-0.2478,2.1241,291.1094
14:43:31:757,1.0919,-0.8721,7.81,51.8995,1.3092,0.0444,2.0913,289.2031
14:43:31:775,2.0376,-0.0976,6.4896,51.2018,1.196,0.2225,1.8445,286.9531
14:43:31:795,2.4027,0.3693,5.8946,52.0425,1.0014,0.291,1.4727,284.6719
14:43:31:814,2.1477,0.4052,5.733,50.4066,0.8181,0.2596,1.0689,283.5156
14:43:31:839,1.6856,0.1826,5.8384,51.1838,0.641,0.2364,0.7358,281.4531
14:43:31:858,1.1661,-0.0365,6.3136,51.3369,0.4474,0.2822,0.4942,279.7812
14:43:31:875,0.7651,-0.2975,6.99,50.1326,0.2874,0.4303,0.3419,278.625
14:43:31:897,0.552,-0.4136,7.4401,50.5718,0.2197,0.5301,0.2519,277.7969
14:43:31:914,0.5915,-0.4112,7.3647,50.2928,0.2184,0.5043,0.1797,276.8125
14:43:31:934,0.7327,-0.3585,7.2079,50.472,0.1555,0.3538,0.0729,276.4688
14:43:31:962,0.6777,-0.4723,7.7573,50.3692,0.0282,0.1038,-0.076,276.3281
14:43:31:974,0.4598,-0.8769,8.9915,49.5951,-0.1124,-0.1514,-0.2166,276.1406
14:43:31:995,0.2156,-1.4479,10.5155,50.7593,-0.2178,-0.2819,-0.2914,276.125
14:43:32:015,0.2048,-2.0213,11.5557,48.2573,-0.3028,-0.174,-0.2528,276.2969
14:43:32:038,0.9135,-2.0608,11.7533,47.9977,-0.3747,0.0063,-0.1351,276.6094
14:43:32:056,2.0256,-1.6849,11.4887,48.6092,-0.4442,0.0279,-0.1071,276.9375
14:43:32:075,2.5535,-1.2204,11.2804,49.4929,-0.5611,-0.0435,-0.276,277.1562
14:43:32:094,2.0232,-1.23,11.3043,50.0084,-0.7294,0.0446,-0.5476,277.2344
14:43:32:117,0.5544,-1.7915,11.3474,48.8255,-0.8394,0.2905,-0.6983,277.3906
14:43:32:140,-0.4955,-1.9531,10.7429,48.1413,-0.7854,0.5067,-0.558,277.8125
14:43:32:159,-0.3435,-1.5508,9.4584,48.1413,-0.6179,0.3975,-0.3018,278.5
14:43:32:174,0.631,-1.0828,8.1859,49.7276,-0.5225,-0.0704,-0.1657,279.1562
14:43:32:195,1.5264,-0.7895,8.4038,48.3539,-0.6171,-0.6518,-0.2493,279.4062
14:43:32:216,1.5707,-0.9762,9.8978,49.4674,-0.7867,-0.8307,-0.4627,279.6562
14:43:32:239,0.607,-1.0888,10.877,48.7037,-0.8719,-0.4105,-0.586,279.9062
14:43:32:255,-0.4321,-0.993,10.2485,48.7749,-0.7428,0.1054,-0.5268,280.2812
14:43:32:277,-0.8127,-0.6817,8.5474,48.8125,-0.4746,0.1922,-0.321,280.875
14:43:32:295,-0.6332,-0.1203,7.1109,48.1855,-0.2037,-0.1421,-0.097,281.5
14:43:32:314,-0.2345,0.3921,6.2358,48.3939,-0.037,-0.5258,0.0444,281.9531
14:43:32:340,0.2324,0.8242,5.9401,47.4848,-0.0328,-0.6467,0.0902,282.1562
14:43:32:355,0.6741,1.1989,5.7163,49.7739,-0.1547,-0.5178,0.0476,282.1719
14:43:32:374,0.9877,1.661,5.8635,47.8582,-0.3763,-0.3136,-0.085,282.0781
14:43:32:395,1.1457,2.001,6.5088,47.3191,-0.6312,-0.1247,-0.2952,282
14:43:32:415,1.0069,2.0141,7.7597,48.1793,-0.8594,-0.014,-0.5711,282
14:43:32:470,0.3449,1.7616,9.5901,47.5984,-1.0331,0.107,-0.8528,282.1875
14:43:32:470,-0.5482,1.1462,11.7329,48.1173,-1.0663,0.2396,-1.0675,282.6406
14:43:32:481,-1.8817,0.3178,13.331,47.8238,-0.93,0.3823,-1.134,283.3906
14:43:32:494,-3.2237,-0.4747,14.3103,46.7659,-0.6488,0.3978,-0.9708,284.4688
14:43:32:516,-3.7959,-0.9212,14.9447,47.8292,-0.2557,0.2766,-0.6038,285.7344
14:43:32:541,-3.4248,-0.9715,14.8418,48.3078,0.1558,0.1698,-0.1838,287.4062
14:43:32:559,-2.6251,-0.7057,13.9296,47.6072,0.4605,0.1805,0.1296,288.1094
14:43:32:576,-2.0517,-0.4902,12.59,46.0266,0.6344,0.1315,0.3043,288.3281
14:43:32:595,-1.841,-0.252,11.5689,47.8226,0.6195,0.0359,0.3925,288.2188
14:43:32:615,-1.8279,-0.3801,11.46,45.8012,0.4464,-0.0475,0.4242,287.9219
14:43:32:645,-2.1954,-1.0193,12.5769,45.5466,0.2674,-0.1817,0.466,287.5
14:43:32:660,-2.7245,-1.7915,14.3246,44.9792,0.2229,-0.2496,0.6428,287.0625
14:43:32:677,-2.8478,-2.4523,15.73,44.9103,0.4535,-0.1407,0.9731,286.5312
14:43:32:698,-2.0086,-2.5624,14.2971,44.7503,0.9345,0.0217,1.352,285.7969
14:43:32:715,-0.9719,-1.9758,11.2457,44.2463,1.2466,-0.1093,1.5723,285.3125
14:43:32:736,-0.104,-1.3593,9.8954,43.6432,1.2227,-0.4158,1.5589,284.0625
14:43:32:759,0.0552,-1.2803,10.3479,43.1625,1.0477,-0.5583,1.4002,282.4219
14:43:32:775,-0.2249,-1.5748,11.2433,42.5249,0.9465,-0.4033,1.2796,280.6562
14:43:32:795,-0.4955,-1.7352,11.0266,42.4553,0.999,-0.0986,1.2596,279.0938
14:43:32:815,-0.5146,-1.7795,9.9696,42.6699,1.1191,0.1549,1.3022,276.9219
14:43:32:845,-0.3267,-1.637,8.5199,40.317,1.2408,0.2923,1.3579,275.5156
14:43:32:858,0.0061,-1.3916,7.1001,41.9311,1.3196,0.2777,1.3704,274.125
14:43:32:874,0.3688,-1.1821,5.9413,41.6432,1.3004,0.193,1.3259,272.5781
14:43:32:895,0.6777,-0.8793,5.4697,42.4361,1.1675,0.1256,1.2234,271.0312
14:43:32:916,1.1924,-0.4723,5.6026,42.7563,0.8757,0.1645,0.8993,269.5312
14:43:32:941,1.4558,-0.1155,6.0024,41.0914,0.7816,0.096,0.7027,268.2188
14:43:32:957,1.5611,0.1143,6.4274,41.3983,0.7436,-0.0507,0.4476,267
14:43:32:976,1.2056,-0.0138,6.6692,40.8098,0.6237,-0.1152,0.2002,265.2031
14:43:32:993,0.8812,-0.1921,7.1935,40.7132,0.3731,0.0678,0.0513,265.2031
14:43:33:015,0.8417,-0.2508,7.5083,38.371,0.0996,0.3458,-0.0347,264.7188
14:43:33:039,1.1374,-0.2017,7.6867,39.9127,-0.1486,0.4867,-0.1247,264.4688
14:43:33:060,1.2224,-0.3861,8.4983,40.3871,-0.3601,0.4518,-0.2589,264.4688
14:43:33:074,0.9662,-0.7009,9.3339,39.9252,-0.4695,0.3895,-0.3585,264.5
14:43:33:095,0.6202,-1.0361,9.7613,38.193,-0.5041,0.3141,-0.3599,264.5781
14:43:33:115,0.7938,-1.2384,9.8152,37.8627,-0.5318,0.1762,-0.2453,264.8281
14:43:33:141,1.712,-0.8601,10.0785,37.7466,-0.621,-0.0297,-0.1519,265.1875
14:43:33:159,2.4207,-0.5668,10.61,36.446,-0.7364,-0.2033,-0.2613,265.3438
14:43:33:176,2.2507,-0.5309,11.2229,37.3166,-0.8908,-0.1809,-0.4861,265.5625
14:43:33:194,1.1721,-0.7308,11.7664,38.4454,-1.0197,0.0782,-0.6565,265.7031
14:43:33:215,0.0707,-0.9259,11.6108,38.1247,-1.0155,0.3573,-0.6187,266
14:43:33:245,-0.055,-0.6363,10.7573,38.1633,-0.8685,0.4002,-0.4248,266.5312
14:43:33:260,0.6202,-0.0377,9.5398,37.0084,-0.7326,0.1336,-0.3026,267.1875
14:43:33:279,1.1026,0.3166,9.2405,36.9865,-0.7084,-0.3208,-0.3857,267.7969
14:43:33:295,0.8321,0.1287,9.9157,36.7401,-0.7944,-0.5405,-0.5692,268.2031
14:43:33:316,0.1102,-0.07,10.6627,35.3123,-0.8924,-0.2997,-0.6675,268.4844
14:43:33:340,-0.6547,0.1131,10.452,37.109,-0.8757,0.1682,-0.6336,268.8906
14:43:33:357,-0.9492,0.4699,9.2381,35.3088,-0.7164,0.4095,-0.5186,269.5312
14:43:33:377,-0.8857,0.9068,7.9405,35.4858,-0.5217,0.3608,-0.395,270.625
14:43:33:395,-0.6571,1.2731,7.0127,34.8035,-0.3633,0.1706,-0.3236,271.2031
14:43:33:415,-0.3566,1.582,6.5123,35.9481,-0.2658,-0.0041,-0.3047,271.6562
14:43:33:440,-0.1328,1.8657,6.4621,36.3018,-0.2053,-0.1958,-0.3537,272.0312
14:43:33:457,-0.4464,1.8848,6.65,36.2715,-0.168,-0.4696,-0.4358,272.3281
14:43:33:474,-0.8762,1.6813,7.6077,35.6902,-0.1872,-0.7013,-0.4448,272.6875
14:43:33:495,-0.7397,1.6742,9.0179,36.3322,-0.2461,-0.806,-0.4118,273.1406
14:43:33:517,-0.523,1.6179,10.6328,37.0546,-0.3467,-0.6092,-0.415,273.6406
14:43:33:543,-0.5745,1.552,12.0956,35.0831,-0.4128,-0.1737,-0.4541,274.125
14:43:33:560,-1.0797,1.3438,12.5433,33.3268,-0.3824,0.3256,-0.4888,274.5938
14:43:33:580,-1.7943,0.9475,12.1734,33.5331,-0.2892,0.515,-0.4456,275.0781
14:43:33:595,-2.2313,0.4986,12.2979,32.9683,-0.196,0.36,-0.3047,275.5938
14:43:33:616,-2.2493,0.0545,13.082,34.2991,-0.0772,0.0904,-0.1066,276.125
14:43:33:642,-1.9165,-0.1526,13.7787,34.0949,0.0724,-0.0677,0.0852,276.5469
14:43:33:659,-1.598,-0.3035,14.0984,33.7831,0.1766,-0.0789,0.2167,276.6875
14:43:33:679,-1.3502,-0.2843,14.3019,34.183,0.2242,-0.0092,0.2998,276.7812
14:43:33:695,-1.3718,-0.5046,14.5353,34.2592,0.2796,0.0287,0.3491,276.5938
14:43:33:715,-1.6196,-0.7667,14.7436,32.7146,0.4005,0.0268,0.4553,276.3281
14:43:33:738,-1.7273,-0.9702,14.5509,33.9725,0.6061,0.0036,0.6247,275.9688
14:43:33:756,-1.4592,-1.1067,13.6926,33.4015,0.8682,-0.0323,0.8218,275.5312
14:43:33:774,-0.8151,-1.0959,12.1818,33.5144,1.0892,-0.1567,0.9845,274.9531
14:43:33:794,-0.347,-0.9846,11.0146,32.4154,1.1739,-0.3828,1.033,274.1875
14:43:33:816,-0.1842,-0.9499,10.6986,32.2315,1.1468,-0.5455,1.0053,273.2031
14:43:33:842,-0.0107,-1.0038,10.3814,32.5364,1.0661,-0.4579,0.9438,272.0781
14:43:33:861,0.0755,-1.0349,9.9397,33.4636,0.8802,-0.092,0.8612,271.0312
14:43:33:877,-0.116,-0.8661,9.5171,33.4148,0.7049,0.3501,0.7778,269.9844
14:43:33:895,-0.3889,-0.8541,8.9221,33.4895,0.6815,0.6012,0.7193,269
14:43:33:914,-0.7026,-0.9691,7.7956,33.5036,0.7726,0.6529,0.7203,268.0781
14:43:33:934,-0.8977,-1.0301,6.6811,34.8976,0.8906,0.5011,0.7997,266.8125
14:43:33:958,-0.8259,-0.9511,5.8492,33.7694,0.9984,0.2316,0.9187,265.9219
14:43:33:975,-0.3327,-0.6817,5.2865,34.1548,1.048,-0.0408,1.0151,265.0312
14:43:33:995,0.3281,-0.2292,5.095,32.5469,1.0136,-0.2206,1.0181,263.9844
14:43:34:014,0.9327,0.1443,5.0902,33.2336,0.9105,-0.2957,0.9153,262.875
14:43:34:034,1.2822,0.4914,5.2602,33.2502,0.7438,-0.304,0.7275,261.7812
14:43:34:056,1.0572,0.6889,5.812,34.1332,0.5199,-0.2395,0.499,260.8594
14:43:34:075,0.5113,0.6758,6.6931,33.0633,0.3167,-0.0856,0.3485,260.0938
14:43:34:095,0.2419,0.6734,7.1384,33.2223,0.2043,0.1032,0.3126,259.5781
14:43:34:116,0.5975,0.7392,6.8811,32.4661,0.122,0.1237,0.315,259.2188
14:43:34:143,1.1805,0.9858,7.1684,32.6316,-0.0256,-0.0795,0.2481,259.0312
14:43:34:163,1.9298,0.908,7.8998,32.3622,-0.2293,-0.3804,0.0588,258.6406
14:43:34:176,1.7898,0.4459,9.723,33.9114,-0.4922,-0.5911,-0.2097,258.2969
14:43:34:194,1.0296,-0.3526,11.6635,32.1133,-0.6485,-0.4113,-0.3308,258.1562
14:43:34:215,0.7124,-0.7608,11.9436,33.7563,-0.649,0.0311,-0.2174,258.3438
14:43:34:246,1.3672,-0.3837,10.3838,33.7563,-0.6442,0.311,-0.0342,258.7969
14:43:34:260,2.052,0.3238,9.5075,32.0413,-0.7729,0.169,-0.027,259.2344
14:43:34:275,2.5882,0.3035,9.6488,32.1957,-0.9303,-0.1487,-0.1761,259.2344
14:43:34:294,2.3716,0.0928,10.5597,33.3727,-1.1066,-0.3301,-0.3577,259.2344
14:43:34:317,1.621,-0.1095,11.9089,31.7488,-1.3316,0.1674,-0.5396,259.4375
14:43:34:341,1.4115,-0.1371,11.7257,32.4152,-1.4906,0.6593,-0.6363,259.8906
14:43:34:359,1.1505,-0.3094,11.7185,32.4051,-1.6168,0.9869,-0.7143,261.0469
14:43:34:378,0.3856,-0.41,12.0034,30.7855,-1.5337,1.0122,-0.7426,261.0469
14:43:34:393,-0.6846,-0.3537,11.7688,31.3729,-1.188,0.8305,-0.6137,261.6719
14:43:34:413,-1.2138,-0.0964,10.6184,31.7062,-0.7009,0.5301,-0.3383,262.375
14:43:34:434,-1.2233,0.252,9.2046,29.5276,-0.249,0.1927,-0.0315,263.125
14:43:34:457,-0.7517,0.5992,7.871,31.1067,0.0996,-0.0539,0.2351,263.7031
14:43:34:523,-0.1663,0.9942,6.4992,29.4058,0.3071,-0.1793,0.4082,264.0469
14:43:34:523,0.1881,1.3785,5.5475,29.7388,0.3862,-0.3056,0.4753,263.8125
14:43:34:524,0.3377,1.479,5.2338,31.1291,0.3864,-0.5386,0.4623,263.5938
14:43:34:547,0.7112,1.5365,5.6289,31.6807,0.3089,-0.6957,0.426,263.1094
14:43:34:560,1.1122,1.8226,6.1448,30.8895,0.098,-0.5434,0.3113,262.6094
14:43:34:578,1.5085,2.165,6.8451,30.1508,-0.2485,-0.2648,0.1091,262.1562
14:43:34:594,1.8149,2.305,8.7581,29.5261,-0.6389,-0.0568,-0.195,261.9375
14:43:34:613,1.1254,1.8741,11.3642,29.7497,-0.8328,0.1647,-0.5452,261.6094
14:43:34:633,-0.3806,1.163,13.3167,28.3459,-0.6903,0.4036,-0.7388,261.4844
14:43:34:656,-1.9524,0.5237,12.8618,30.0691,-0.3816,0.6633,-0.6624,261.6875
14:43:34:673,-2.5713,0.3178,11.3247,28.4768,-0.2426,0.7528,-0.3679,262.2812
14:43:34:693,-2.3857,0.6698,11.0625,30.9362,-0.3012,0.6178,-0.0698,263.1094
14:43:34:713,-2.2061,0.9128,11.6754,28.9132,-0.3326,0.4185,0.1155,263.8125
14:43:34:733,-2.0709,0.9834,12.2046,27.5477,-0.2874,0.2462,0.2364,264.2031
14:43:34:758,-2.041,0.9954,12.6786,28.6467,-0.2477,0.1184,0.3089,264.2656
14:43:34:777,-1.9715,0.853,13.6782,28.3924,-0.2067,-0.0904,0.3224,264
14:43:34:795,-2.2852,0.2328,15.013,28.1539,-0.1068,-0.3591,0.2921,263.6562
14:43:34:812,-3.1279,-0.7213,16.5943,28.9639,0.0812,-0.4925,0.3563,263.2656
14:43:34:834,-3.7336,-1.5939,17.3748,27.8773,0.4517,-0.3074,0.6263,262.9219
14:43:34:859,-3.1938,-1.9962,15.2404,27.6489,0.9254,0.0806,1.0418,262.5781
14:43:34:877,-2.0062,-1.3174,11.9232,28.4243,1.1622,0.1797,1.3411,262.0625
14:43:34:899,-1.0426,-0.835,10.3131,29.4306,1.1188,-0.1293,1.3502,261.1406
14:43:34:913,-1.0497,-1.0876,10.9931,28.9215,1.0288,-0.4789,1.2303,259.8594
14:43:34:934,-1.3921,-1.6287,11.3582,29.0755,1.1532,-0.5618,1.2207,258.3438
14:43:34:960,-1.4975,-1.8944,10.3251,30.9454,1.3697,-0.4856,1.327,256.9219
14:43:34:975,-1.3418,-1.6622,8.6037,29.7969,1.5212,-0.3218,1.4759,255.6875
14:43:35:000,-0.8486,-1.3102,6.8224,30.2338,1.5585,-0.2044,1.5728,254.3281
14:43:35:013,-0.2788,-0.9846,5.5906,30.0288,1.494,-0.1831,1.5824,252.7812
14:43:35:034,0.2814,-0.6554,4.8388,33.2838,1.3611,-0.2345,1.5129,251.0781
14:43:35:059,0.6406,-0.3753,4.8639,30.6436,1.1675,-0.3263,1.3584,249.3906
14:43:35:074,0.6849,-0.3513,5.4781,31.9327,0.9832,-0.3439,1.181,248.5156
14:43:35:100,0.5915,-0.3609,5.933,33.1919,0.8613,-0.2446,1.0492,246.0312
14:43:35:113,0.5616,-0.2149,6.0371,33.1803,0.7649,-0.105,0.9864,244.7031
14:43:35:134,0.8884,0.0748,5.8946,33.7221,0.6496,-0.0132,0.9555,243.4844
14:43:35:159,1.3074,0.4926,6.2645,33.9944,0.4882,0.0031,0.8777,242.3281
14:43:35:175,1.767,0.8721,6.984,34.4666,0.3891,-0.018,0.743,241.2656
14:43:35:194,2.2878,1.2552,7.251,34.2188,0.3603,-0.0289,0.5363,240.1875
14:43:35:213,2.5966,1.4048,6.8032,34.7829,0.2381,-0.0448,0.237,239.25
14:43:35:234,2.6074,1.1438,7.0882,34.6096,-0.0855,-0.1088,-0.0962,238.4844
14:43:35:259,2.3871,0.5489,8.4529,33.9701,-0.4884,-0.1231,-0.379,238.0469
14:43:35:275,1.7239,-0.0736,10.3215,34.6332,-0.7707,-0.0006,-0.5335,237.9844
14:43:35:293,1.3038,-0.6291,11.1906,34.7504,-0.8687,0.1914,-0.4957,238.3125
14:43:35:314,1.5923,-0.4507,11.1044,34.6591,-0.8956,0.3163,-0.3423,238.875
14:43:35:333,2.277,0.1275,10.6064,34.8038,-0.9452,0.2542,-0.2917,239.5
14:43:35:357,2.1501,0.4567,10.6639,33.6313,-1.0197,-0.0257,-0.427,240.125
14:43:35:377,1.5982,0.1933,11.4624,34.2917,-1.1087,-0.1974,-0.5663,240.4219
14:43:35:393,0.5903,-0.2807,12.4871,32.4041,-1.131,-0.0283,-0.5729,240.9531
14:43:35:414,-0.0933,-0.3693,12.1303,33.0595,-1.0067,0.2862,-0.37,241.6562
14:43:35:433,0.285,-0.0102,11.0027,33.2131,-0.8581,0.3158,-0.1098,242.3125
14:43:35:458,1.2032,0.4627,10.4867,33.0156,-0.7353,0.0063,0.0196,242.7344
14:43:35:477,1.7682,0.6411,10.6998,33.0623,-0.6003,-0.3495,-0.0256,242.8281
14:43:35:500,1.6892,0.6051,10.5143,33.9319,-0.4874,-0.3735,-0.1338,242.8281
14:43:35:513,1.1062,0.6877,9.62,33.663,-0.4503,-0.0856,-0.2022,242.8906
14:43:35:533,0.7088,0.9451,8.4397,33.1031,-0.4171,0.202,-0.1742,243.0938
14:43:35:554,0.7244,1.3521,7.4245,33.6995,-0.3816,0.311,-0.141,243.2188
14:43:35:576,0.9374,1.6837,6.8188,34.2219,-0.3345,0.2737,-0.1527,243.4531
14:43:35:593,1.1003,2.0405,6.5854,35.5944,-0.2948,0.1418,-0.2187,243.6094
14:43:35:613,1.111,2.3493,6.674,34.7689,-0.2666,-0.0102,-0.3338,243.75
14:43:35:635,0.783,2.4618,6.8751,33.5434,-0.2871,-0.0909,-0.4691,243.9375
14:43:35:660,0.4754,2.3601,7.4892,32.9604,-0.3888,-0.0198,-0.5631,244.4531
14:43:35:678,0.1126,2.3194,8.2757,32.1995,-0.5105,0.161,-0.607,245
14:43:35:696,-0.1268,2.3026,9.1268,35.1984,-0.5934,0.2974,-0.6025,245.6406
14:43:35:715,-0.6571,1.8944,11.3846,34.276,-0.5009,0.2923,-0.5412,246.3125
14:43:35:735,-1.1084,1.5975,11.7568,34.0349,-0.3662,0.2665,-0.4464,247.6406
14:43:35:757,-1.2042,1.4012,12.2333,33.2207,-0.2831,0.2271,-0.2986,247.6406
14:43:35:774,-1.2616,1.2204,13.0689,34.9821,-0.1952,0.1504,-0.1585,248.2188
14:43:35:808,-1.3849,1.0481,13.9272,34.7007,-0.0354,0.1123,0.0018,249.0469
14:43:35:813,-1.1659,1.0445,13.4974,34.7343,0.1798,0.1711,0.1722,249.0469
14:43:35:834,-1.0557,1.3557,12.5733,34.0294,0.249,0.1525,0.2671,249.2188
14:43:35:858,-0.9983,1.4192,12.9204,34.4539,0.2139,0.0452,0.3003,249.2188
14:43:35:877,-0.9791,0.981,13.8147,35.195,0.2458,-0.0824,0.3139,249.0156
14:43:35:893,-1.2616,0.4627,14.7197,34.5792,0.3838,-0.1354,0.3938,248.7031
14:43:35:912,-1.5298,-0.1275,15.0824,34.5142,0.6623,-0.0776,0.5752,248.375
14:43:35:932,-1.0521,-0.5393,13.3789,35.9407,1.0069,0.0801,0.8234,248.0312
14:43:35:959,-0.1663,-0.1862,10.7357,37.0446,1.1366,0.038,0.9723,247.5781
14:43:35:981,0.4442,0.3142,9.5123,36.7659,1.0027,-0.2899,0.9169,246.9688
14:43:35:995,0.4191,0.1502,10.6663,36.2088,0.7705,-0.6033,0.7187,246.0312
14:43:36:013,-0.0526,-0.5225,11.8335,36.8765,0.6874,-0.5264,0.5659,244.9219
14:43:36:032,-0.7852,-0.9786,11.4001,38.9245,0.7222,-0.1745,0.5488,243.9062
14:43:36:053,-1.2209,-1.0995,10.0246,38.5456,0.7819,0.1621,0.6615,243.1875
14:43:36:076,-1.1862,-1.1342,8.3164,37.8283,0.8698,0.3195,0.8293,242.2812
14:43:36:096,-0.9851,-1.0217,6.5938,39.1572,0.9563,0.2918,1.0103,241.5938
14:43:36:113,-0.4704,-0.8003,5.2853,37.8825,1.0032,0.1136,1.1488,240.75
14:43:36:133,0.0229,-0.5417,4.354,39.7132,0.9694,-0.0989,1.2016,239.625
14:43:36:157,0.4622,-0.2604,3.9111,40.3318,0.8362,-0.2198,1.1661,238.3438
14:43:36:174,0.7998,-0.0892,3.6632,39.7524,0.6048,-0.1948,1.0519,237.0312
14:43:36:192,1.0177,0.1838,4.0583,38.9532,0.2802,-0.0757,0.8889,235.6719
14:43:36:218,0.9841,0.3454,5.174,39.8084,-0.0133,0.0705,0.6703,234.4219
14:43:36:233,0.6657,0.3322,6.3256,39.4929,-0.1987,0.1978,0.4631,233.3594
14:43:36:256,0.4287,0.4112,7.2761,39.2416,-0.2743,0.3139,0.3384,232.4688
14:43:36:274,0.546,0.6566,7.3934,40.2463,-0.2844,0.3517,0.2396,232.1094
14:43:36:300,0.9003,0.8757,7.4185,39.7342,-0.3819,0.2114,0.083,231.5469
14:43:36:314,1.2702,0.7907,8.5773,39.7897,-0.6309,-0.0273,-0.1753,231.125
14:43:36:334,0.965,0.0988,10.7453,39.5576,-0.9324,-0.0677,-0.4509,230.9531
14:43:36:360,0.2312,-0.8422,12.9863,39.5576,-1.1193,0.2095,-0.5343,230.6875
14:43:36:378,0.3868,-1.4754,14.1678,39.4137,-1.09,0.5972,-0.3351,231.1406
14:43:36:393,1.7191,-1.2432,13.1958,39.6297,-0.9263,0.8343,-0.072,231.7812
14:43:36:413,3.2622,-0.6159,11.6695,38.3413,-0.8839,0.618,-0.0674,232.2812
14:43:36:433,3.5806,-0.5536,11.6958,38.3413,-1.0131,0.1008,-0.3255,232.4062
14:43:36:459,2.3428,-1.3629,13.4627,39.2332,-1.1044,-0.1655,-0.5487,232.3438
14:43:36:478,0.9075,-2.2152,13.7117,39.5732,-0.9348,0.0851,-0.4363,232.5156
14:43:36:497,0.5616,-1.9184,11.5785,36.8858,-0.6463,0.3887,-0.0315,233.0625
14:43:36:514,2.0268,-0.9619,9.3076,36.4293,-0.4296,0.1219,0.2942,233.6562
14:43:36:592,3.5435,-0.0629,8.5247,38.4457,-0.3601,-0.5911,0.2487,233.9219
14:43:36:592,4.02,0.2496,9.4213,37.459,-0.4245,-1.1173,-0.0754,233.7031
14:43:36:593,3.115,0.1586,10.4819,39.1486,-0.4898,-0.9783,-0.4435,233.375
14:43:36:593,1.6521,0.0832,10.0055,37.6874,-0.4986,-0.3349,-0.6587,233.2969
14:43:36:613,0.5077,0.2484,8.15,37.4942,-0.4842,0.299,-0.7047,233.6719
14:43:36:633,0.0324,0.568,6.632,36.7585,-0.4674,0.5437,-0.6747,234.7344
14:43:36:660,-0.219,0.9655,5.7175,35.4495,-0.4019,0.3496,-0.643,235.5312
14:43:36:675,-0.0921,1.2851,5.514,35.0297,-0.3467,-0.0811,-0.6475,236.2969
14:43:36:694,-0.0083,1.3821,6.3148,35.051,-0.3523,-0.4174,-0.7314,237
14:43:36:715,-0.3099,1.1941,7.5586,36.3628,-0.3654,-0.4643,-0.8182,237.75
14:43:36:734,-0.5518,1.0672,8.6145,36.4896,-0.335,-0.3461,-0.8318,238.1562
14:43:36:758,-0.6631,1.0146,9.1172,35.383,-0.2786,-0.1985,-0.791,239.0625
14:43:36:775,-0.4991,1.0229,9.6248,35.659,-0.2448,-0.1077,-0.7303,239.9844
14:43:36:793,-0.4225,1.0157,10.5107,34.7823,-0.1947,-0.1149,-0.7002,240.9375
14:43:36:813,-0.7206,0.9056,11.2086,35.4608,-0.0919,-0.157,-0.6789,241.8125
14:43:36:833,-1.2305,0.7009,11.4252,33.9631,-0.0154,-0.1556,-0.6238,242.625
14:43:36:859,-1.6711,0.4447,11.7545,34.8674,-0.0056,-0.1064,-0.5013,243.3906
14:43:36:875,-2.0613,0.3526,12.0968,33.6021,-0.0226,-0.0241,-0.3298,244.1406
14:43:36:893,-2.4156,0.2628,12.6164,33.6953,-0.0538,0.0755,-0.1228,244.7969
14:43:36:914,-2.5318,0.1933,12.9456,34.9978,-0.049,0.1717,0.1131,245.4219
14:43:36:934,-2.4767,0.2831,13.1622,33.83,-0.0394,0.1621,0.3416,245.5625
14:43:36:960,-2.0433,0.2257,13.8865,33.789,-0.0469,-0.0488,0.5089,245.4219
14:43:36:977,-1.8003,-0.1478,15.5708,34.8699,-0.0533,-0.3058,0.5994,245.0625
14:43:36:996,-1.9224,-0.9798,17.8501,33.8786,0.065,-0.2227,0.7259,244.4688
14:43:37:012,-1.7393,-1.6981,17.5185,33.3573,0.4527,0.2968,0.9914,243.7969
14:43:37:033,-1.0198,-1.5185,14.0277,32.8043,0.8498,0.7216,1.2969,243
14:43:37:060,0.0265,-0.8841,10.9632,32.5169,0.9651,0.6449,1.4239,241.8438
14:43:37:076,0.637,-0.6422,10.1647,31.8312,0.8906,0.263,1.3012,240.3281
14:43:37:096,0.5244,-0.8493,10.5693,30.6284,0.8477,-0.0065,1.1081,238.75
14:43:37:113,-0.4285,-1.898,10.209,32.2068,1.0053,0.0329,0.944,237.2344
14:43:37:133,-0.7948,-2.2476,9.2741,32.4886,1.0954,0.2998,1.0759,237.2344
14:43:37:159,-0.5206,-2.1338,7.7083,32.2855,1.1779,0.4899,1.2636,235.9531
14:43:37:176,-0.0095,-1.7184,6.1784,32.7856,1.2019,0.4763,1.3835,233.7812
14:43:37:192,0.613,-1.2695,5.4278,31.987,1.1393,0.2931,1.392,233.1719
14:43:37:212,1.0739,-1.0457,5.3392,33.6955,1.0394,0.1466,1.2897,233.1719
14:43:37:232,1.2846,-0.9894,5.1872,33.268,0.9273,0.0886,1.1368,229.4375
14:43:37:254,1.3552,-1.0576,5.1369,32.6612,0.7832,0.0596,0.9917,227.7969
14:43:37:273,1.2714,-0.9678,5.4769,34.3123,0.6341,0.0947,0.8849,226.2812
14:43:37:292,1.53,-0.6937,5.5894,33.9696,0.5284,0.0947,0.7936,224.9531
14:43:37:311,1.87,-0.5716,5.6552,34.617,0.3934,-0.039,0.6354,223.8594
14:43:37:332,1.8772,-0.6542,6.2442,34.1311,0.196,-0.2182,0.4479,222.8125
14:43:37:353,1.6318,-0.9307,7.3467,34.0529,-0.0378,-0.3503,0.2964,221.8906
14:43:37:376,1.5683,-1.3904,8.9113,33.6144,-0.2525,-0.3929,0.2122,221.2031
14:43:37:394,2.1022,-1.7951,9.9265,34.585,-0.4189,-0.3074,0.1736,220.7188
14:43:37:412,2.532,-1.7915,10.4376,34.2944,-0.6011,-0.1149,0.1081,220.4375
14:43:37:432,2.9115,-1.4611,10.3275,34.3999,-0.767,0.0691,-0.0096,220.2656
14:43:37:454,3.0647,-1.1474,9.5973,34.7346,-0.9646,0.1171,-0.2371,220.0625
14:43:37:476,2.289,-0.7428,9.4213,33.9258,-1.2767,0.0359,-0.5466,220.0938
14:43:37:495,1.1122,-0.9056,10.9512,33.2701,-1.5888,-0.0012,-0.8131,220.1875
14:43:37:512,-0.6008,-1.5197,12.3542,31.4965,-1.6376,0.3,-0.8627,220.6562
14:43:37:532,-2.1882,-1.6394,11.9879,31.7707,-1.4416,0.7022,-0.5585,221.5156
14:43:37:552,-2.1475,-1.0816,10.4795,32.6998,-1.1569,0.818,-0.0507,222.5781
14:43:37:576,-0.7385,-0.0293,9.2238,33.5993,-0.9454,0.4612,0.3201,223.3906
14:43:37:593,0.9039,0.6806,9.2022,31.5204,-0.8312,-0.2302,0.3384,223.7188
14:43:37:614,1.6988,0.8051,10.5562,33.5779,-0.816,-0.8201,0.0961,223.5
14:43:37:633,1.3109,0.568,12.1818,33.0757,-0.833,-0.831,-0.1982,223.0938
14:43:37:659,0.3485,0.2436,12.9743,34.7496,-0.7731,-0.2986,-0.3782,222.8438
14:43:37:677,-0.4488,-0.1323,11.9125,33.5926,-0.5806,0.3677,-0.3495,222.8594
14:43:37:693,-0.4799,0.1371,9.8152,34.1837,-0.3369,0.7333,-0.1742,223.125
14:43:37:712,-0.1699,0.598,8.0494,33.0283,-0.1454,0.6857,-0.0539,223.5625
14:43:37:732,-0.0442,0.8924,7.1672,32.707,-0.0032,0.4169,-0.0137,223.9688
14:43:37:753,0.1402,1.0948,6.7302,32.6582,0.0836,0.2391,-0.0081,224.2344
14:43:37:777,0.2539,1.2923,6.6596,33.4758,0.1001,0.1679,-0.0611,224.2656
14:43:37:792,0.1785,1.1917,6.5459,31.8597,0.0423,0.1613,-0.1604,224.2656
14:43:37:813,-0.1052,1.1199,6.8368,33.3022,-0.1273,0.1685,-0.2355,224.2969
14:43:37:835,-0.5218,0.8063,8.1153,32.9058,-0.3193,0.1387,-0.2869,224.4219
14:43:37:861,-1.1647,0.4256,10.0127,33.7593,-0.4197,0.1781,-0.2411,224.6562
14:43:37:877,-1.2556,0.2819,11.5402,32.2524,-0.3513,0.2822,-0.0981,224.9531
14:43:37:896,-1.015,0.2616,11.9161,33.1244,-0.1816,0.2979,0.0236,225.2656
14:43:37:911,-0.5769,0.2448,12.1435,34.3216,-0.0796,0.1195,0.0796,225.4688
14:43:37:932,-0.2585,0.0832,13.2437,34.254,-0.0408,-0.0888,0.0535,225.5
14:43:37:952,-0.6403,-0.2664,13.9511,34.315,0.0383,-0.1061,0.0266,225.4375
14:43:37:975,-0.942,-0.5608,14.0266,33.3683,0.1585,-0.0321,0.0902,225.3594
14:43:37:992,-1.1862,-0.5656,13.1802,33.0532,0.232,0.0793,0.2018,225.3125
14:43:38:019,-1.1407,-0.5441,12.4141,35.1655,0.1891,0.071,0.3248,225.2656
14:43:38:031,-1.2676,-0.6027,12.4272,35.3936,0.1129,-0.1535,0.4271,224.9844
14:43:38:053,-1.3885,-0.8517,13.446,35.6151,0.1433,-0.4888,0.564,224.6094
14:43:38:078,-1.519,-1.2049,14.3845,36.4265,0.3904,-0.7575,0.7709,224.125
14:43:38:098,-1.1383,-1.321,14.1917,38.482,0.8016,-0.8563,1.0476,223.5
14:43:38:113,-0.2788,-1.1702,12.4835,38.1707,1.1843,-0.872,1.2354,222.6094
14:43:38:139,0.479,-0.7799,10.4724,37.9005,1.2874,-0.9003,1.2665,221.4062
14:43:38:159,1.0883,-0.4974,9.8726,38.4808,1.1324,-0.8864,1.1517,220.0469
14:43:38:175,1.1912,-0.477,10.0737,39.2273,0.9872,-0.8057,0.9472,219.2969
14:43:38:191,0.8477,-0.6626,9.9576,38.6506,0.9409,-0.6382,0.7701,217.875
14:43:38:211,0.5316,-0.841,9.1998,40.31,0.9553,-0.3724,0.6692,216.6562
14:43:38:233,0.2539,-0.9882,7.834,40.0901,0.9593,-0.0829,0.6332,215.7188
14:43:38:252,0.1665,-0.9307,6.4178,41.5054,0.9481,0.0803,0.6426,214.875
14:43:38:278,0.3042,-0.7308,5.2578,41.2027,0.9372,0.0148,0.6295,214.0938
14:43:38:295,0.4287,-0.5932,4.6018,42.1185,0.8807,-0.2017,0.5515,213.2969
14:43:38:311,0.3353,-0.5764,4.7059,42.7519,0.7462,-0.4084,0.4167,212.1406
14:43:38:332,0.0695,-0.7727,5.3631,42.6552,0.5894,-0.4845,0.2934,211.4688
14:43:38:353,-0.2633,-1.0588,5.8348,43.1545,0.4314,-0.4036,0.2346,211
14:43:38:377,-0.3734,-1.0648,6.3483,44.8382,0.2554,-0.2603,0.2553,210.6719
14:43:38:392,-0.0621,-0.9595,7.1336,44.1568,0.0996,-0.1463,0.2694,210.4062
14:43:38:412,0.2204,-0.8853,7.8687,44.1575,-0.0205,0.0103,0.2588,210.125
14:43:38:431,0.5807,-0.7548,7.9369,45.0915,-0.1214,0.1594,0.23,209.8438
14:43:38:455,0.8441,-0.5776,8.1715,44.5334,-0.2607,0.1863,0.1493,209.5469
14:43:38:478,1.0907,-0.5477,8.5618,44.5334,-0.4216,0.1229,0.0346,209.2812
14:43:38:494,1.2427,-0.7536,9.5278,46.5694,-0.6104,0.0303,-0.0941,209.125
14:43:38:513,1.2834,-1.2827,11.9891,46.1474,-0.7976,0.3094,-0.1023,209.1094
14:43:38:536,1.8676,-1.1929,11.5318,46.1474,-0.7481,0.4891,-0.0632,209.1094
14:43:38:561,2.4602,-0.8829,10.7381,45.1459,-0.8064,0.3919,-0.1215,209.2656
14:43:38:577,2.6242,-0.7847,11.4767,47.0417,-0.9566,0.0119,-0.2802,209.6562
14:43:38:592,2.1824,-1.0169,13.0665,47.2402,-1.0123,-0.2816,-0.3457,209.7031
14:43:38:645,2.0867,-1.0528,14.3234,45.6044,-0.9039,-0.2036,-0.1868,209.7031
14:43:38:645,2.8815,-0.8673,14.3318,46.6258,-0.5984,0.1336,0.0354,209.9219
14:43:38:657,3.7243,-0.3047,12.4607,48.121,-0.1664,0.4268,0.1288,210.2969
14:43:38:677,4.4378,0.2987,9.4991,46.2393,0.1004,0.4026,0.0311,211.0781
14:43:38:695,4.4557,0.6913,7.5706,45.5885,0.0546,0.1067,-0.269,211.0938
14:43:38:710,3.8225,0.6087,7.2402,47.0051,-0.1989,-0.1394,-0.6222,210.9375
14:43:38:731,2.6804,0.3166,8.0674,46.0019,-0.4178,-0.1767,-0.8826,210.875
14:43:38:750,1.6892,-0.0281,8.5211,46.4071,-0.448,-0.0368,-0.9854,211.1875
14:43:38:777,0.7447,-0.2747,8.1512,47.5173,-0.3854,0.1791,-0.9718,211.875
14:43:38:797,0.2084,-0.1335,7.3946,45.8229,-0.3388,0.3581,-0.8603,212.9219
14:43:38:820,0.3269,0.1969,6.8954,46.3876,-0.3265,0.3874,-0.7436,214.0938
14:43:38:830,0.4598,0.6734,7.0091,44.4923,-0.3223,0.2883,-0.6941,215.1719
14:43:38:852,0.7232,0.9691,7.5107,46.7008,-0.277,0.1426,-0.7223,217.4375
14:43:38:876,0.6501,1.1067,7.8579,46.3721,-0.2256,0.0849,-0.7958,217.4375
14:43:38:896,0.4263,1.1031,7.98,46.9136,-0.224,0.0793,-0.86,218.2031
14:43:38:914,0.2288,1.0014,8.4373,45.8298,-0.2961,0.0513,-0.8997,219.0781
14:43:38:931,-0.0226,0.7296,9.5278,45.231,-0.3742,0.0358,-0.9146,220.0469
14:43:38:952,-0.511,0.5716,10.804,45.4988,-0.3558,0.1229,-0.8752,221.0156
14:43:38:974,-1.0713,0.3777,11.1092,46.7587,-0.2498,0.3365,-0.7801,222.0781
14:43:38:991,-1.5669,0.3298,10.519,45.773,-0.1726,0.5014,-0.6331,223.125
14:43:39:011,-1.7728,0.2699,10.1982,45.758,-0.1835,0.4438,-0.4736,224.0938
14:43:39:032,-2.0517,0.1742,11.2169,44.414,-0.1957,0.1909,-0.3242,224.875
14:43:39:053,-2.2373,0.0281,12.2189,45.9444,-0.0794,-0.0062,-0.1492,225.5156
14:43:39:079,-2.0493,-0.0569,12.2094,47.0328,0.0357,-0.1053,0.0186,225.7656
14:43:39:095,-1.8338,0.1131,12.3135,47.1155,-0.0376,-0.1982,0.1363,226.125
14:43:39:111,-1.3598,0.1215,14.1259,44.971,-0.1955,-0.3232,0.1912,226.2969
14:43:39:131,-1.5106,-0.1897,16.3848,45.758,-0.1502,-0.2654,0.2186,226.2812
14:43:39:151,-2.2121,-0.9367,17.4036,45.3094,0.2109,0.0912,0.3981,226.125
14:43:39:177,-2.0397,-1.2995,14.8059,45.9288,0.7215,0.5677,0.7976,225.8125
14:43:39:196,-0.8307,-0.9786,11.3079,46.0795,0.9609,0.5996,1.1366,225.4844
14:43:39:214,0.3688,-0.7847,9.881,45.9387,0.9121,0.0494,1.217,224.8125
14:43:39:234,1.2547,-0.9834,11.4743,46.2602,0.7822,-0.5828,1.1486,223.6875
14:43:39:260,1.6761,-1.3042,13.2856,46.2372,0.8168,-0.7807,1.0034,222.2812
14:43:39:276,1.2738,-1.6418,13.4352,46.4601,0.9673,-0.5016,0.8689,220.8906
14:43:39:294,0.5256,-1.7939,11.9137,46.7424,1.1366,0.0047,0.8748,219.7031
14:43:39:312,0.2826,-1.7603,9.4859,47.235,1.2754,0.4446,1.0117,218.625
14:43:39:331,0.4335,-1.503,7.1013,45.9968,1.363,0.6223,1.1933,217.6094
14:43:39:353,1.0188,-1.0433,5.1357,46.281,1.399,0.4737,1.3174,216.5312
14:43:39:377,1.5683,-0.4962,3.8536,47.1592,1.3223,0.1432,1.3027,215.1562
14:43:39:392,1.9274,0.0521,3.5711,46.5724,1.1305,-0.2142,1.1576,213.5938
14:43:39:411,2.0567,0.2927,4.0906,46.7061,0.901,-0.4259,0.9259,211.9688
14:43:39:431,1.9083,0.2747,4.7813,47.9766,0.7004,-0.4102,0.6958,210.5781
14:43:39:451,1.5935,0.1754,5.1836,44.6599,0.5281,-0.2406,0.5115,208.8906
14:43:39:476,1.4259,0.1658,5.1201,45.3063,0.3499,-0.0638,0.4005,208.1094
14:43:39:494,1.4666,0.2137,5.3296,45.2414,0.1441,-0.048,0.2998,207.5625
14:43:39:511,1.4989,0.3322,6.146,45.5269,-0.0341,-0.1144,0.1845,207.0938
14:43:39:532,1.6892,0.4711,6.9301,46.1521,-0.1537,-0.1548,0.0364,206.7344
14:43:39:552,1.6832,0.2879,7.4174,45.4572,-0.2932,-0.1889,-0.1473,206.5625
14:43:39:577,1.7371,0.0988,8.2541,45.6875,-0.5348,-0.1844,-0.2943,206.5625
14:43:39:594,1.5779,-0.1143,9.9516,46.1044,-0.8272,-0.0912,-0.4331,206.7812
14:43:39:615,1.269,-0.653,11.6862,44.7278,-0.9691,0.1128,-0.4645,206.9531
14:43:39:631,1.615,-1.145,12.4715,44.6369,-0.9486,0.2268,-0.3788,207.4219
14:43:39:652,2.5033,-1.4084,12.4799,43.2713,-0.8996,0.1371,-0.3141,208.0312
14:43:39:677,3.5567,-1.0026,12.7887,45.3336,-0.9294,-0.1586,-0.4129,208.5781
14:43:39:696,3.4777,-0.653,13.9882,42.4385,-1.0834,-0.2531,-0.7623,208.9688
14:43:39:710,1.5432,-1.4742,15.4451,43.8673,-1.2038,0.1581,-1.0747,209.4219
14:43:39:731,-0.3051,-2.2368,15.1087,42.7286,-1.0749,0.9192,-0.86,210.1562
14:43:39:752,0.5819,-1.6538,12.918,42.5564,-0.7212,1.2851,-0.3154,211.9375
14:43:39:777,2.6696,-0.6003,10.306,42.1897,-0.3784,0.9477,-0.0627,212.9219
14:43:39:794,3.8045,0.2568,8.8443,43.3891,-0.2354,0.2036,-0.2147,213.25
14:43:39:822,3.7159,0.3621,8.7306,42.0057,-0.2895,-0.248,-0.558,213.2812
14:43:39:831,2.8995,0.3298,8.7617,42.8562,-0.4136,-0.1146,-0.8384,213.5156
14:43:39:851,2.0699,0.4615,8.1404,41.791,-0.481,0.3418,-0.9948,214.1719
14:43:39:878,1.4773,0.6602,6.8727,39.2423,-0.4671,0.6787,-1.0701,215.1562
14:43:39:898,1.2188,0.8398,5.824,41.4335,-0.4093,0.7245,-1.0861,216.2344
14:43:39:914,1.1374,1.3593,5.0028,40.2712,-0.2706,0.2508,-1.17,217.4531
14:43:39:931,0.9841,1.5173,5.241,39.4161,-0.2908,-0.0049,-1.3154,217.4531
14:43:39:953,0.4837,1.2899,6.146,37.9796,-0.3875,-0.1607,-1.4805,219.8594
14:43:39:977,-0.1986,0.9008,7.6472,37.4299,-0.4863,-0.2092,-1.5644,221.2031
14:43:39:994,-0.9444,0.7332,8.8515,37.6067,-0.5063,-0.1879,-1.533,222.7031
14:43:40:013,-1.3969,0.8817,10.1168,37.4362,-0.4906,-0.2904,-1.4443,224.3125
14:43:40:030,-1.7165,0.9918,11.8514,36.6004,-0.4455,-0.3146,-1.3841,226.1094
14:43:40:051,-2.2038,0.9116,13.3179,37.1389,-0.3657,-0.0755,-1.3487,227.8594
14:43:40:076,-3.0585,0.5393,13.6447,36.1312,-0.2703,0.3946,-1.2757,229.5312
14:43:40:093,-4.0557,0.3059,13.3741,33.8675,-0.2131,0.8244,-1.0568,231.0312
14:43:40:110,-4.677,0.1778,12.924,34.9011,-0.1467,1.0162,-0.7306,232.5781
14:43:40:130,-4.7955,0.1454,12.5613,34.2853,-0.1047,0.9168,-0.3623,234.0469
14:43:40:150,-4.3909,0.0629,12.8654,34.1953,-0.0661,0.597,-0.0256,235.2188
14:43:40:178,-3.6678,-0.0186,13.5262,34.0215,0.0509,0.1773,0.2356,236.0781
14:43:40:197,-2.9483,-0.1155,13.92,34.2467,0.1949,-0.2001,0.3813,236.5
14:43:40:214,-2.5545,-0.4627,14.661,33.9424,0.285,-0.3575,0.4548,236.5469
14:43:40:230,-2.4707,-1.0971,15.2536,33.3576,0.3963,-0.1804,0.5603,236.2969
14:43:40:250,-2.3546,-1.8322,14.8286,33.1988,0.5875,0.1429,0.7794,235.8594
14:43:40:270,-1.6124,-2.1147,13.1575,33.3198,0.8091,0.2963,1.062,235.0625
14:43:40:292,-0.4536,-2.0261,11.4719,34.8625,0.9476,0.1067,1.2543,234.3281
14:43:40:312,0.394,-1.667,10.8674,32.9345,1.0224,-0.2739,1.2783,233.2969
14:43:40:331,0.722,-1.5628,10.5897,34.4661,1.0919,-0.5445,1.1515,231.9844
14:43:40:351,0.534,-1.6287,9.705,34.0446,1.1073,-0.5423,0.9946,230.5938
14:43:40:378,0.0588,-1.8525,9.0143,34.315,1.0703,-0.3911,0.9126,229.2344
14:43:40:396,-0.2022,-1.9531,8.5283,33.4992,1.09,-0.1727,0.9632,228.0625
14:43:40:414,0.4239,-1.6382,7.8184,34.1744,1.2325,-0.072,1.0444,227.0781
14:43:40:431,1.1912,-1.1378,6.5722,33.6548,1.4328,-0.1793,0.9754,226.0469
14:43:40:452,1.864,-0.7955,4.8508,34.0541,1.5276,-0.4771,0.7584,224.8906
14:43:40:478,1.9921,-0.7416,3.7351,33.3327,1.3723,-0.8425,0.4697,223.7188
14:43:40:496,1.1924,-1.0445,4.1588,34.3335,1.0493,-0.9303,0.2801,223.25
14:43:40:511,0.5508,-1.2803,4.6401,35.2516,0.685,-0.6129,0.2963,222.4375
14:43:40:530,0.643,-0.9475,4.6485,35.2771,0.2975,-0.1216,0.4231,222.1719
14:43:40:553,1.1517,-0.2927,4.7323,33.6077,-0.0578,0.1466,0.4697,221.7969
14:43:40:576,1.4869,0.1862,5.5235,34.4418,-0.2961,0.095,0.3938,221.3125
14:43:40:593,1.6138,0.3741,6.5411,34.4418,-0.4176,-0.0494,0.238,220.7656
14:43:40:611,1.4534,0.2664,7.3922,33.4585,-0.5135,-0.0885,0.0511,220.2656
14:43:40:631,1.1038,-0.1814,8.4098,32.2663,-0.6594,-0.0755,-0.0999,219.9062
14:43:40:711,0.8333,-0.5824,10.0366,32.2663,-0.7683,-0.0395,-0.1388,219.7812
14:43:40:711,1.1493,-0.7165,11.1631,33.4164,-0.7697,-0.0467,-0.1156,219.8594
14:43:40:721,1.8604,-0.7787,12.1076,31.4093,-0.7278,-0.1615,-0.121,220.0469
14:43:40:721,2.5643,-0.7009,12.5625,32.3634,-0.624,-0.2475,-0.1995,220.2188
14:43:40:733,2.8097,-0.392,11.7126,33.3469,-0.5542,-0.3383,-0.3668,220.3906
14:43:40:750,2.4913,-0.2269,10.8327,31.907,-0.7316,-0.5261,-0.6142,220.6094
14:43:40:771,1.615,-0.5405,11.5713,33.1101,-1.1742,-0.6108,-0.8299,220.9844
14:43:40:792,0.1809,-1.0768,14.1678,32.0903,-1.4954,-0.3415,-0.8363,221.6094
14:43:40:811,-0.8091,-1.4407,15.2284,30.7917,-1.3265,0.1839,-0.5497,222.5156
14:43:40:834,-0.5673,-1.2612,13.5369,31.6007,-0.8621,0.3909,-0.0826,224.1562
14:43:40:849,0.8249,-0.5979,11.8011,30.8299,-0.4605,0.0739,0.3129,224.8438
14:43:40:871,2.0567,0.0952,11.3008,32.9076,-0.1449,-0.3463,0.4442,224.9688
14:43:40:894,2.6014,0.6363,10.4951,30.7866,0.0788,-0.3796,0.3629,224.6406
14:43:40:920,2.7846,1.1486,9.3902,32.8122,0.1699,-0.0885,0.181,223.9375
14:43:40:944,2.1657,1.4551,6.8535,31.818,0.1491,0.4391,-0.3053,223.625
14:43:40:955,1.7132,1.3809,6.407,31.0104,0.1028,0.4785,-0.4403,223.5469
14:43:40:976,1.3708,1.3617,6.2957,33.2234,0.0967,0.4369,-0.5034,223.75
14:43:40:995,1.1254,1.4347,6.2538,32.4854,0.0999,0.3967,-0.5327,224.1562
14:43:41:014,1.1445,1.5808,6.3472,32.1977,0.0818,0.3706,-0.5631,224.6562
14:43:41:040,1.0224,1.5568,6.5626,30.8688,0.0296,0.3229,-0.6225,225.2344
14:43:41:058,0.607,1.5305,7.1348,31.9757,-0.0698,0.271,-0.6536,225.8281
14:43:41:074,0.3425,1.4695,8.1045,31.6287,-0.1595,0.2566,-0.6501,226.8125
14:43:41:094,-0.0035,1.4611,8.9437,30.2696,-0.204,0.2761,-0.6342,227.5469
14:43:41:114,-0.6631,1.418,9.7529,28.8177,-0.2141,0.3243,-0.6049,228.2812
14:43:41:133,-1.5705,1.1235,10.1862,28.0205,-0.2019,0.3363,-0.5181,228.9688
14:43:41:153,-2.114,0.8601,10.9009,28.8195,-0.1814,0.2337,-0.3114,229.6562
14:43:41:176,-2.0625,0.7548,11.7772,29.092,-0.1089,0.0303,-0.0595,230.2344
14:43:41:194,-1.5537,0.7787,12.9791,29.8912,-0.0157,-0.1745,0.1467,230.5625
14:43:41:212,-0.8846,0.8027,13.6207,30.2816,0.0685,-0.1588,0.2532,230.6406
14:43:41:231,-0.4823,1.3186,13.6124,28.8475,-0.0389,0.0548,0.2194,230.4688
14:43:41:259,-0.6008,1.716,14.509,30.4659,-0.3819,0.5051,0.026,230.2031
14:43:41:272,-2.0182,1.1307,16.1083,29.7603,-0.6173,1.116,-0.175,229.9531
14:43:41:295,-3.8797,-0.1335,16.5752,28.7637,-0.3987,1.5214,-0.0616,229.9062
14:43:41:315,-4.6183,-0.7224,14.8502,29.5796,0.1899,1.4889,0.4085,230.0781
14:43:41:331,-3.8629,-0.7584,12.0094,29.3267,0.7571,0.8859,0.9105,230.0938
14:43:41:352,-2.3869,-0.6698,10.7154,29.817,0.9942,-0.051,1.1922,229.9219
14:43:41:379,-1.0964,-0.9343,11.7975,29.5667,0.9577,-0.6861,1.2234,229.9219
14:43:41:396,-0.6751,-1.1582,12.9049,30.8299,0.8727,-0.6233,1.1912,228.5625
14:43:41:414,-0.3207,-1.3174,12.4464,31.61,0.8272,-0.0877,1.1885,227.3125
14:43:41:431,-0.2214,-1.4263,10.5909,30.8484,0.8189,0.4745,1.2138,226
14:43:41:449,-0.3794,-1.3569,8.8946,30.9976,0.8946,0.6936,1.3211,224.7031
14:43:41:471,-0.2872,-1.1989,7.4389,32.3926,1.1116,0.5988,1.4737,223.375
14:43:41:495,0.2348,-0.9834,5.7139,33.7559,1.3694,0.3307,1.5883,222.0312
14:43:41:511,0.698,-0.5441,3.9709,33.8713,1.432,0.0542,1.597,220.4844
14:43:41:529,1.1254,0.0652,3.2514,34.6567,1.2187,-0.1572,1.4849,218.7656
14:43:41:552,1.3026,0.4268,3.6309,34.4944,0.8844,-0.2401,1.2948,217.0469
14:43:41:578,1.3457,0.574,4.4952,35.193,0.608,-0.223,1.103,215.2656
14:43:41:595,1.3277,0.677,5.1788,35.7523,0.4503,-0.1631,0.9382,213.625
14:43:41:612,1.3217,0.7715,5.3859,35.0199,0.3635,-0.1612,0.7768,212.2812
14:43:41:629,1.1745,0.7811,5.6899,37.0131,0.2554,-0.1919,0.6109,211.0625
14:43:41:650,1.123,0.677,6.0934,36.7528,0.1065,-0.1785,0.4711,209.5781
14:43:41:671,1.5312,0.5369,6.316,36.7671,-0.0573,-0.166,0.3347,208.8594
14:43:41:694,2.1154,0.2771,6.4764,37.6195,-0.3217,-0.312,0.1286,208.2812
14:43:41:711,2.4458,-0.2747,8.2434,35.1547,-0.7164,-0.468,-0.0954,207.8438
14:43:41:729,2.2231,-1.0696,10.8746,37.6541,-0.9766,-0.3873,-0.2486,207.625
14:43:41:750,2.0555,-1.6454,12.1351,34.9428,-0.9422,-0.0318,-0.2043,207.6875
14:43:41:771,2.8133,-1.4335,10.5585,36.7093,-0.7646,0.2484,-0.0714,208
14:43:41:793,3.844,-0.4112,8.4529,35.207,-0.7649,0.0907,-0.1508,208.3438
14:43:41:811,4.4485,0.2137,7.3264,35.3906,-1.052,-0.3375,-0.5703,208.4688
14:43:41:830,3.7686,-0.1083,8.1799,35.8766,-1.5851,-0.7437,-1.1825,208.4844
14:43:41:854,1.8796,-1.4228,11.0853,34.6271,-2.1343,-0.8148,-1.668,208.6562
14:43:41:877,-0.6068,-2.6546,14.3701,32.6381,-2.3143,-0.4536,-1.7428,209.375
14:43:41:893,-1.8805,-2.8772,15.4894,34.4305,-1.9707,0.018,-1.37,210.7812
14:43:41:912,-1.2868,-2.0165,13.7416,32.755,-1.3979,0.1853,-0.8531,212.8281
14:43:41:929,0.455,-0.7955,11.3678,34.2479,-0.951,-0.1562,-0.5652,214.9219
14:43:41:951,1.7156,-0.0329,10.3646,32.8455,-0.8128,-0.59,-0.6531,217.0312
14:43:41:971,1.6437,0.0904,10.4448,32.6777,-0.9012,-0.5756,-0.9311,217.8281
14:43:41:994,0.7543,-0.0688,10.865,31.8956,-0.991,-0.1945,-1.1857,218.5
14:43:42:010,-0.6248,-0.2652,10.5609,32.3387,-0.9356,0.2745,-1.2861,219.3906
14:43:42:034,-1.7848,-0.2759,9.6739,30.0349,-0.7252,0.5405,-1.1615,220.6562
14:43:42:051,-1.9595,0.0521,8.3834,30.6688,-0.4109,0.5096,-0.8794,222.1406
14:43:42:079,-1.3347,0.6183,7.3371,29.9284,-0.1337,0.2385,-0.6331,223.5469
14:43:42:094,-0.462,1.224,6.9074,32.1823,0.004,-0.0102,-0.5479,224.75
14:43:42:110,0.0911,1.6215,6.9924,31.8697,-0.0013,-0.1136,-0.6248,225.6094
14:43:42:130,0.0719,1.6095,7.4832,31.9215,-0.0959,-0.0875,-0.7886,226.2656
14:43:42:149,-0.2632,1.26,8.2996,30.9059,-0.2405,0.0273,-0.9189,226.8906
14:43:42:170,-0.7074,0.8434,9.365,28.7708,-0.371,0.1738,-0.9761,227.6875
14:43:42:195,-1.2916,0.4076,10.9057,30.4419,-0.4061,0.2851,-0.9599,228.6875
14:43:42:214,-1.8279,-0.0461,11.9328,30.4627,-0.2748,0.3781,-0.8605,230.3125
