Time,Acc_X,Acc_Y,Acc_Z,Meg,Gyr_X,Gyr_Y,Gyr_Z,Ore
19:37:49:491,-1.5621,1.5616,8.3894,55.3864,0.1454,-0.1556,0.021,69.0781
19:37:49:517,-1.5418,1.5281,8.636,58.0441,0.0735,-0.0174,0.0023,69.0781
19:37:49:535,-1.7249,1.4982,8.6444,55.9007,0.037,-0.0038,0.0292,155.2188
19:37:49:551,-1.9033,1.4862,8.5929,56.9206,0.0304,-0.17,0.0926,155.2344
19:37:49:571,-1.8889,1.6179,8.7485,58.3575,0.0234,-0.399,0.1568,155.2031
19:37:49:600,-1.5298,1.7855,9.3004,56.9886,0.0583,-0.4699,0.1491,155.1094
19:37:49:618,-1.1563,1.9914,9.5877,55.5944,0.078,-0.3623,0.1118,154.9844
19:37:49:629,-0.9612,2.1314,9.723,56.4842,0.0256,-0.149,0.0916,154.9219
19:37:49:650,-1.0055,2.232,9.5901,55.7401,-0.0597,0.0119,0.0963,154.8281
19:37:49:672,-1.0857,2.2284,9.3818,56.3704,-0.0927,0.0524,0.1086,154.75
19:37:49:702,-1.4699,2.4762,9.134,56.0788,-0.0514,-0.0108,0.164,154.6562
19:37:49:708,-1.4065,2.4858,8.9077,56.7341,0.0104,-0.2009,0.2308,154.5312
19:37:49:739,-1.0138,2.6414,8.9927,55.9916,0.0682,-0.2662,0.2457,154.2812
19:37:49:750,-0.5182,2.8102,8.9796,56.1454,0.0783,-0.2044,0.1898,154.0312
19:37:49:775,-0.5134,2.7372,8.8072,56.473,0.0378,-0.1407,0.1288,153.7812
19:37:49:797,-0.7122,2.5792,8.8682,55.9453,-0.0021,-0.158,0.1073,153.6094
19:37:49:815,-0.7206,2.4726,9.1544,56.6256,0.036,-0.2217,0.1368,153.6094
19:37:49:828,-0.6296,2.5205,9.0466,57.3201,0.1073,-0.247,0.176,153.4844
19:37:49:849,-0.5793,2.791,8.6923,57.2798,0.1241,-0.3064,0.2082,153.375
19:37:49:867,-0.3411,3.0652,8.6731,56.8752,0.0535,-0.3708,0.2199,153.25
19:37:49:887,-0.1232,3.0676,8.8467,58.4941,-0.0519,-0.2707,0.1896,152.8906
19:37:49:911,-0.3387,2.9898,9.0155,56.6572,-0.1782,-0.1423,0.1754,152.8906
19:37:49:928,-0.5506,2.9934,9.3782,55.6359,-0.2565,-0.0776,0.2103,152.6875
19:37:49:946,-0.6164,2.9479,9.7972,56.2908,-0.2296,-0.1309,0.2646,152.5156
19:37:49:966,-0.5266,2.8509,10.2928,58.7705,-0.0874,-0.2656,0.324,152.3281
19:37:49:987,-0.6008,2.5792,10.8842,56.5919,0.1779,-0.4622,0.4482,152.0781
19:37:50:011,-0.9133,2.0848,11.1751,57.2942,0.5364,-0.6446,0.6809,151.625
19:37:50:028,-0.6607,1.661,10.4915,56.082,0.8027,-0.7477,0.9704,151.25
19:37:50:047,0.4837,1.6765,9.5733,58.3181,0.7867,-0.7916,1.1366,150.6875
19:37:50:066,1.5444,1.5568,9.0873,55.4609,0.5286,-0.6728,1.1097,149.875
19:37:50:087,2.0495,1.4898,8.7401,58.347,0.1249,-0.304,0.9941,148.7656
19:37:50:111,2.4518,1.5868,8.4062,58.1335,-0.3531,0.1363,0.833,148.1562
19:37:50:132,2.52,1.9483,8.2302,58.2592,-0.7859,0.458,0.5786,146.9844
19:37:50:148,1.9741,2.0069,8.63,57.3945,-1.0181,0.3158,0.3211,145.9375
19:37:50:167,1.5336,1.4802,9.5578,57.5723,-0.9926,-0.235,0.1589,144.9688
19:37:50:186,1.4295,0.9631,10.6316,57.4002,-0.8751,-0.5943,0.0724,144.25
19:37:50:212,1.4522,0.762,11.3295,58.9417,-0.8024,-0.5943,0.0215,143.875
19:37:50:228,1.6797,0.7799,11.7832,57.8013,-0.738,-0.2318,-0.0406,143.7188
19:37:50:246,2.0627,0.8182,11.6036,56.4069,-0.6338,0.1381,-0.1687,143.7188
19:37:50:266,2.344,0.987,10.8195,56.1093,-0.5047,0.2769,-0.3777,143.7656
19:37:50:287,2.3177,1.2097,9.7182,56.7833,-0.4136,0.1629,-0.6443,143.9219
19:37:50:311,2.0316,1.3258,9.0251,56.9566,-0.4115,0.0449,-0.889,144.2188
19:37:50:328,1.8101,1.2911,8.0782,57.1843,-0.5356,0.0159,-1.0837,144.7656
19:37:50:346,1.4594,1.2612,7.5873,58.1737,-0.7374,0.059,-1.2179,145.6562
19:37:50:367,0.856,1.3222,8.0458,56.8268,-0.844,0.25,-1.2616,146.7812
19:37:50:387,0.5149,1.0588,8.484,54.3157,-0.7598,0.4393,-1.2379,148.125
19:37:50:411,0.1486,0.8482,8.1608,56.1659,-0.6152,0.4889,-1.1303,149.5
19:37:50:429,0.0229,1.0995,7.804,55.9852,-0.4834,0.3363,-0.9876,150.9219
19:37:50:449,0.3078,1.4252,7.6388,58.1402,-0.3526,0.055,-0.9436,152.2812
19:37:50:466,0.5939,1.5987,7.7932,56.8493,-0.2621,-0.2742,-0.9977,153.4219
19:37:50:493,0.0145,0.7069,9.128,55.6223,-0.2109,-0.2305,-1.052,154.5156
19:37:50:512,-0.6727,0.683,9.62,55.8632,-0.2365,0.0106,-0.999,155.6094
19:37:50:528,-0.7098,0.8122,9.9193,55.2153,-0.2927,0.2428,-0.8307,156.7344
19:37:50:546,-0.8031,0.8745,10.2114,56.9939,-0.3657,0.4393,-0.6858,157.9219
19:37:50:570,-1.4675,0.8781,10.9943,56.1234,-0.4216,0.4465,-0.5716,158.4844
19:37:50:593,-2.1427,0.7955,12.2884,55.6726,-0.3633,0.266,-0.3657,159.8438
19:37:50:611,-1.9332,0.6482,13.5298,56.5857,-0.114,-0.072,-0.0288,160.5312
19:37:50:628,-1.2557,0.6626,13.6674,55.9077,0.2884,-0.292,0.3299,161.0781
19:37:50:645,-0.5589,0.9667,12.5733,55.583,0.6687,-0.3197,0.5794,161.3125
19:37:50:669,0.2587,1.3617,11.0542,57.722,0.8389,-0.2185,0.6873,161.1406
19:37:50:685,0.5975,1.8058,10.2162,55.9176,0.6437,-0.0417,0.6231,160.6094
19:37:50:707,0.3138,1.9579,10.7692,56.2259,0.2189,0.0984,0.4423,159.875
19:37:50:730,-0.1507,1.4395,11.7832,55.8373,-0.114,0.1144,0.2457,159.1094
19:37:50:749,-0.6918,0.6973,11.7604,54.8275,-0.1545,0.035,0.128,158.5156
19:37:50:766,-1.094,-0.0078,11.7293,54.3334,-0.0921,-0.2148,0.1195,158.125
19:37:50:786,-1.3622,-0.7584,12.1184,56.0524,-0.1121,-0.3226,0.213,157.9219
19:37:50:810,-1.2557,-1.3533,11.3199,54.7189,-0.0445,-0.0387,0.3773,157.8125
19:37:50:829,-0.8953,-1.7137,9.292,55.8151,0.1113,0.3616,0.5368,157.6406
19:37:50:846,-0.7289,-1.8884,7.397,56.327,0.1907,0.5107,0.6356,157.3125
19:37:50:868,-0.7337,-1.7615,6.5279,55.8986,0.093,0.2982,0.6868,156.4688
19:37:50:893,-0.3483,-1.5365,6.735,55.0773,-0.122,-0.0776,0.7382,155.7344
19:37:50:910,-0.0238,-1.2324,8.3307,55.4048,-0.3851,-0.4739,0.7352,154.9531
19:37:50:927,-0.1627,-1.0696,10.118,55.9535,-0.5143,-0.6611,0.6687,154.1562
19:37:50:948,-0.5482,-1.0457,10.7214,55.1739,-0.4048,-0.5271,0.6242,153.3125
19:37:50:967,-0.8187,-0.9272,9.7421,54.4286,-0.1771,-0.1269,0.6452,152.5469
19:37:50:986,-0.8043,-0.6913,8.0794,54.6121,-0.0285,0.3219,0.7451,151.8281
19:37:51:010,-0.5494,-0.3202,6.7901,56.0671,-0.0189,0.5834,0.8426,151.125
19:37:51:029,-0.0993,-0.0078,6.1173,55.7202,-0.0953,0.6369,0.9017,150.2812
19:37:51:048,0.5125,0.3274,6.1832,55.7202,-0.2131,0.5131,0.887,149.3125
19:37:51:066,0.4454,0.2017,6.8427,55.6758,-0.3097,0.2665,0.776,148.8594
19:37:51:085,-0.1567,0.0605,7.6412,53.7231,-0.3832,0.1189,0.6212,147.8125
19:37:51:109,-0.7493,-0.2496,9.0909,56.1306,-0.4964,0.107,0.6138,146.8438
19:37:51:127,-0.6044,-0.2496,10.3694,56.7645,-0.4384,0.0193,0.7312,146.0469
19:37:51:147,0.0229,0.173,10.9464,56.1827,-0.1918,-0.1469,0.8769,145.0312
19:37:51:167,0.6142,0.6147,10.9823,53.7701,0.0874,-0.366,0.8977,144.1719
19:37:51:186,1.1254,0.7799,10.9883,56.0886,0.2791,-0.6196,0.548,143.1719
19:37:51:208,1.518,0.5944,10.9871,55.2128,0.1044,-0.5983,0.2766,143.1719
19:37:51:228,1.6102,0.094,11.6862,56.4584,-0.1664,-0.5096,0.0346,142.1875
19:37:51:246,1.6246,-0.6961,13.2233,54.5298,-0.3177,-0.2472,-0.0975,141.2969
19:37:51:266,1.791,-1.5018,14.3378,55.1267,-0.204,0.1016,-0.1383,140.3438
19:37:51:287,2.3309,-2.0369,13.3322,56.6333,-0.0306,0.2942,-0.1729,140.2969
19:37:51:311,2.9294,-1.8872,11.2098,55.245,-0.0362,0.0966,-0.3154,140.4062
19:37:51:327,3.0288,-1.6813,9.96,54.5951,-0.2149,-0.3199,-0.5764,140.5625
19:37:51:345,2.1477,-1.8142,10.695,56.1792,-0.4117,-0.4489,-0.762,140.7656
19:37:51:369,1.1541,-2.4918,12.0549,53.9569,-0.4376,-0.0805,-0.7247,141.125
19:37:51:385,0.5939,-2.9,12.4763,54.7235,-0.2128,0.3538,-0.4858,142.6094
19:37:51:465,1.3445,-3.0317,11.2301,52.824,0.122,0.3975,-0.2448,143.4375
19:37:51:466,2.8779,-2.7216,9.2836,54.1742,0.3055,-0.0148,-0.2256,143.7656
19:37:51:467,4.1134,-2.1255,8.2769,53.7128,0.2876,-0.5258,-0.4669,144.4062
19:37:51:468,4.239,-1.7556,8.2338,54.3824,0.1673,-0.7053,-0.8288,144.4062
19:37:51:491,3.4741,-1.7843,8.4241,53.3751,0.0954,-0.4883,-1.1162,144.75
19:37:51:514,2.3009,-1.7735,7.7525,54.6411,0.0418,-0.1604,-1.2558,145.4688
19:37:51:529,1.3325,-1.4982,6.5925,52.4708,-0.1286,0.1144,-1.2803,146.5312
19:37:51:547,0.728,-1.0756,6.0227,51.4513,-0.3795,0.2777,-1.2448,147.2031
19:37:51:566,0.3616,-0.7835,6.5351,54.6709,-0.5206,0.3371,-1.1876,148.6406
19:37:51:585,-0.0909,-0.6015,7.8148,51.7134,-0.3989,0.3948,-1.1079,150.1094
19:37:51:611,-0.7625,-0.4639,8.1739,53.2725,-0.1382,0.43,-0.9545,151.4688
19:37:51:629,-0.9324,-0.1107,7.7406,51.5116,0.017,0.3387,-0.7782,152.8594
19:37:51:646,-0.4332,0.2592,7.8639,52.2933,0.0818,0.1725,-0.7047,154.1562
19:37:51:666,-0.1878,0.4771,8.3846,51.6579,0.1358,-0.0395,-0.7351,155.2031
19:37:51:686,-0.3961,0.5465,9.1184,51.8468,0.159,-0.1173,-0.7729,156.9219
19:37:51:711,-0.6272,0.416,9.7182,51.7838,0.1467,-0.0164,-0.7567,157.7656
19:37:51:728,-0.8259,0.4531,10.2174,50.7452,0.1193,0.0912,-0.7,158.1562
19:37:51:745,-1.021,0.5094,10.9225,50.9122,0.0951,0.1496,-0.6192,159.0469
19:37:51:766,-1.3394,0.3932,11.8538,49.2304,0.1095,0.2052,-0.4517,159.875
19:37:51:787,-1.5609,0.3861,12.9539,49.5019,0.2053,0.3112,-0.1726,160.6094
19:37:51:812,-1.1264,0.586,13.3693,48.834,0.3577,0.3898,0.1139,161.2344
19:37:51:830,-0.4105,0.7524,13.094,50.2926,0.4953,0.3618,0.3334,161.6094
19:37:51:846,0.364,0.8422,12.7768,48.3055,0.5896,0.2859,0.5011,161.6406
19:37:51:866,1.0583,1.2013,12.438,49.954,0.6615,0.2199,0.5709,161.4062
19:37:51:886,1.4283,2.0369,11.6132,48.9808,0.6852,0.1554,0.4913,160.9219
19:37:51:912,1.1398,1.2552,10.9452,48.1824,0.6424,0.2534,0.291,160.2812
19:37:51:930,0.2467,0.4998,9.9624,47.7899,0.5665,0.4127,0.0998,159.7031
19:37:51:949,-0.3746,-0.1694,9.8714,47.2535,0.4629,0.3352,0.0572,159.25
19:37:51:967,-0.6703,-0.9535,10.0103,48.496,0.4109,0.1658,0.0937,159.0469
19:37:51:987,-0.608,-1.5377,9.2789,47.227,0.474,0.1003,0.1576,158.9688
19:37:52:011,-0.274,-1.716,8.2589,47.829,0.5095,0.0446,0.2055,158.9062
19:37:52:030,-0.4237,-1.5293,7.7334,46.4045,0.3934,-0.0936,0.1685,158.7656
19:37:52:049,-1.0593,-1.242,8.0027,46.0935,0.1598,-0.3365,0.0972,158.5625
19:37:52:065,-0.7014,-0.9942,9.6835,45.9521,-0.1454,-0.5599,0.1459,158.3594
19:37:52:085,0.1845,-0.683,11.1607,46.7157,-0.3284,-0.4944,0.2284,158.2188
19:37:52:112,0.1079,-0.3071,10.8111,45.2445,-0.2139,-0.1714,0.1693,158.125
19:37:52:130,-0.019,-0.1562,9.1747,46.2659,0.0248,0.1698,0.1011,157.9375
19:37:52:145,-0.0466,-0.2101,7.4521,47.5794,0.1803,0.3682,0.1006,157.7031
19:37:52:166,-0.1519,0.0221,6.1688,47.1962,0.2171,0.3738,0.1485,157.5625
19:37:52:185,0.0564,0.4004,6.1903,46.3229,0.1036,0.1767,0.2513,157.4375
19:37:52:205,0.2635,0.5596,7.4233,47.5834,-0.0786,-0.0462,0.3419,157.2969
19:37:52:230,0.2336,0.5812,8.6456,46.1214,-0.1177,-0.0856,0.3933,157.0625
19:37:52:247,0.3389,0.7392,8.5905,45.8831,0.037,0.0521,0.4553,156.7188
19:37:52:265,0.4562,1.1199,7.8974,45.8303,0.1822,0.1861,0.5035,156.3125
19:37:52:286,0.5915,1.3186,7.9393,47.3964,0.188,0.1568,0.5129,155.5625
19:37:52:312,0.6944,1.3916,9.1567,44.5733,0.1039,-0.0097,0.4884,154.9844
19:37:52:331,0.8309,1.4,10.2138,45.9161,0.0985,-0.141,0.4599,154.4219
19:37:52:349,0.8836,1.2839,10.1491,45.2043,0.2232,-0.1884,0.4063,153.8594
19:37:52:365,1.1589,1.1391,9.6823,47.4181,0.3039,-0.2158,0.3374,153.3438
19:37:52:388,1.6294,1.0205,10.0534,45.0493,0.2226,-0.3447,0.266,152.9062
19:37:52:410,1.9586,0.7033,11.2098,44.8351,0.0325,-0.4872,0.1389,152.5469
19:37:52:430,1.9993,0.1083,12.1722,44.4192,-0.1167,-0.4688,0.0031,152.2656
19:37:52:446,2.344,-0.4794,11.7676,45.3229,-0.1462,-0.2568,-0.0523,152.125
19:37:52:466,2.939,-0.6291,10.7106,46.7031,-0.1561,-0.0891,-0.0605,152.1562
19:37:52:484,2.9797,-0.7619,10.1946,46.2394,-0.2653,-0.1596,-0.1868,152.2344
19:37:52:505,2.2555,-1.0385,10.6316,45.074,-0.4402,-0.3567,-0.415,152.2656
19:37:52:531,1.2858,-1.3773,11.8634,44.8173,-0.6045,-0.5208,-0.5804,152.375
19:37:52:548,0.3497,-1.7304,12.7935,43.6407,-0.624,-0.4212,-0.5814,152.7344
19:37:52:569,0.3712,-1.9088,12.2932,44.5455,-0.4517,-0.0877,-0.4089,153.7188
19:37:52:586,1.2092,-1.4252,10.3191,45.8673,-0.1862,0.209,-0.1684,154.3906
19:37:52:608,2.1262,-0.7751,9.116,44.4574,-0.1718,-0.1948,-0.1913,154.8594
19:37:52:634,2.6026,-0.6087,9.4919,45.4737,-0.2988,-0.297,-0.4182,155.0469
19:37:52:648,2.2076,-0.647,10.0737,46.6863,-0.314,0.0279,-0.599,155.1406
19:37:52:666,1.3014,-0.6363,9.3088,45.8948,-0.2522,0.4249,-0.6672,155.3594
19:37:52:687,0.5244,-0.3454,7.4976,44.3547,-0.2732,0.5392,-0.6472,155.8438
19:37:52:710,0.0935,0.1143,6.5507,45.9059,-0.3577,0.3304,-0.6091,156.5469
19:37:52:728,-0.219,0.434,7.3348,45.6225,-0.3081,0.0707,-0.5633,157.2656
19:37:52:746,-0.1759,0.5345,8.4804,44.8869,-0.0791,-0.015,-0.5276,158
19:37:52:764,-0.4656,0.5393,8.7246,44.2927,0.1348,0.0825,-0.4454,158.7031
19:37:52:784,-0.8295,0.8829,8.2649,45.4238,0.2519,0.1786,-0.2973,159.3125
19:37:52:805,-0.474,1.2923,7.8148,45.6816,0.2711,0.161,-0.2155,159.9375
19:37:52:830,-0.0334,1.8034,7.6556,44.9902,0.1755,0.0761,-0.2054,160.7656
19:37:52:854,0.5233,2.2404,8.4433,45.8214,0.0889,-0.0603,-0.2754,160.8906
19:37:52:865,0.7076,2.1733,9.9468,44.6065,0.126,-0.1186,-0.3844,161.1094
19:37:52:889,0.3042,1.7292,11.1882,44.3595,0.2487,0.0031,-0.3745,161.375
19:37:52:915,-0.1483,1.3701,11.8071,46.7131,0.4216,0.2201,-0.235,161.7656
19:37:52:934,-0.3207,1.2671,11.4755,45.8901,0.5441,0.4058,-0.0464,162.2031
19:37:52:947,-0.4991,1.552,11.0075,45.6799,0.5854,0.4359,0.1661,162.5469
19:37:52:971,-0.1735,1.7436,10.6244,47.8201,0.5806,0.3432,0.3246,162.7031
19:37:52:984,0.0791,1.6981,10.6854,46.221,0.5675,0.1629,0.4564,162.7031
19:37:53:006,0.619,1.3569,10.8878,48.6433,0.5755,-0.0102,0.5611,162.5
19:37:53:029,1.0404,1.3354,10.5597,47.0134,0.481,-0.1279,0.6034,162.1094
19:37:53:049,1.0907,1.7424,10.531,47.7933,0.2645,-0.1671,0.5651,161.5938
19:37:53:068,1.1517,1.7579,11.047,46.2628,0.0786,0.0329,0.4362,160.9844
19:37:53:085,0.8644,1.3222,10.7824,46.8017,-0.0671,0.1624,0.2777,160.3125
19:37:53:111,0.3784,0.6554,10.1096,47.5541,-0.2317,-0.0843,0.1794,159.6719
19:37:53:128,0.2276,0.0844,11.1978,48.5376,-0.2266,-0.3692,0.1219,159.0156
19:37:53:147,0.0121,-0.428,12.7085,48.5376,0.102,-0.309,0.0404,158.7656
19:37:53:165,-0.6427,-1.0121,11.4755,46.8579,0.3752,-0.1093,0.041,158.5938
19:37:53:185,-0.9372,-1.1714,9.0897,48.1133,0.2866,-0.0526,0.1171,158.5312
19:37:53:208,-0.8977,-0.9128,7.6328,47.4692,-0.0415,-0.206,0.1573,158.5156
19:37:53:230,-0.7169,-0.5944,7.7478,49.4845,-0.3726,-0.3615,0.1909,158.4375
19:37:53:250,-0.3195,-0.2388,8.7066,50.4145,-0.5025,-0.3359,0.2069,158.2812
19:37:53:266,0.0672,0.155,9.2776,49.24,-0.3971,-0.2057,0.1991,158.1094
19:37:53:287,0.7327,0.3597,7.7142,46.6494,-0.135,-0.0859,0.1722,157.9062
19:37:53:311,1.0631,0.3621,6.2478,49.9678,0.0466,-0.0994,0.1424,157.6875
19:37:53:328,1.044,0.3526,6.0347,50.6977,-0.0165,-0.2797,0.0966,157.5
19:37:53:346,0.7687,0.1299,7.0175,50.6757,-0.2408,-0.4467,0.0596,157.3281
19:37:53:364,0.4718,0.1215,8.6073,49.8281,-0.4578,-0.3964,0.1027,157.2031
19:37:53:389,0.5628,0.2053,10.045,50.7035,-0.5382,-0.1418,0.2218,157.1406
19:37:53:412,0.7256,0.3729,10.1922,51.9506,-0.4099,0.2247,0.3331,157.0938
19:37:53:429,0.9686,0.5776,9.3567,50.3995,-0.2059,0.4958,0.4005,156.9375
19:37:53:446,1.3157,1.0373,8.8623,51.4573,-0.0754,0.4662,0.438,156.4531
19:37:53:527,1.4749,1.3378,9.2729,51.885,0.0003,0.14,0.3922,155.4688
19:37:53:534,1.2415,1.2288,9.9109,51.5748,0.0732,-0.2185,0.2636,155.2188
19:37:53:535,1.1218,0.9475,10.0653,52.7198,0.0852,-0.2997,0.1331,154.875
19:37:53:535,1.3648,0.7548,10.3586,52.4474,-0.0754,-0.2534,0.0961,154.6406
19:37:53:551,1.7191,0.6147,11.2768,52.801,-0.2109,-0.2078,0.0324,154.4688
19:37:53:571,1.9741,0.3945,12.5182,52.5878,-0.1824,-0.1048,-0.0304,154.3594
19:37:53:595,2.0424,-0.015,12.7876,51.1574,-0.0274,0.0185,-0.0374,154.2812
19:37:53:610,2.3069,-0.343,11.8466,52.5939,0.0807,-0.0132,-0.0704,154.2969
19:37:53:630,2.4099,-0.3849,10.5382,52.5065,0.0085,-0.2371,-0.182,154.3594
19:37:53:664,2.435,-0.4423,9.9827,52.6645,-0.2426,-0.5287,-0.3455,154.3906
19:37:53:679,2.3392,-0.7368,11.0518,52.493,-0.5065,-0.655,-0.5018,154.5312
19:37:53:696,1.6988,-1.0744,13.2185,52.4677,-0.5007,-0.3839,-0.5466,154.8438
19:37:53:709,0.7998,-1.3629,14.5102,53.3113,-0.0983,0.189,-0.4137,155.6719
19:37:53:730,0.607,-1.5317,12.2333,52.3542,0.314,0.5014,-0.1873,156.3281
19:37:53:748,1.1721,-1.1091,8.7282,53.633,0.38,0.1823,-0.052,156.8125
19:37:53:767,2.2555,-0.726,7.0762,52.8633,0.1617,-0.3453,-0.1447,156.9844
19:37:53:796,2.538,-0.4136,7.5466,52.8744,-0.1321,-0.5024,-0.3569,157.0156
19:37:53:808,1.9023,-0.3394,8.5929,50.4412,-0.2831,-0.239,-0.4976,157.1875
19:37:53:831,0.9255,-0.5429,8.7581,52.4085,-0.2597,0.1376,-0.4712,157.5938
19:37:53:847,0.2096,-0.337,7.7334,53.8462,-0.2011,0.3373,-0.3172,158.1875
19:37:53:867,0.3281,0.2149,6.7745,51.3412,-0.1739,0.1919,-0.2286,158.7344
19:37:53:887,0.6537,0.6698,6.6177,51.7803,-0.1662,-0.0837,-0.2635,159.0781
19:37:53:913,0.7028,0.8601,7.2773,53.6806,-0.1627,-0.2022,-0.3444,159.3594
19:37:53:929,0.4406,0.7237,8.0351,52.9389,-0.1406,-0.1058,-0.3734,159.6562
19:37:53:948,-0.0837,0.6602,8.6611,53.0238,-0.1313,0.1139,-0.3114,160.0781
19:37:53:969,-0.2238,0.8362,9.1639,52.4214,-0.0708,0.3136,-0.1881,160.2656
19:37:53:986,0.4131,1.1642,9.3938,51.587,0.0408,0.3443,-0.1545,160.2656
19:37:54:012,0.7687,1.4898,9.5147,52.6778,0.1172,0.3323,-0.2166,160.8438
19:37:54:029,0.7315,1.6418,9.693,52.4673,0.1462,0.4044,-0.2757,161.0625
19:37:54:046,0.5831,1.5497,9.7804,51.6707,0.1412,0.4745,-0.2989,161.2188
19:37:54:065,0.4275,1.497,9.8774,51.248,0.0961,0.4758,-0.285,161.4688
19:37:54:084,0.4478,1.5161,10.3407,51.9492,0.053,0.45,-0.2722,161.7656
19:37:54:106,0.2192,1.4288,11.0266,51.2639,0.0541,0.4904,-0.1969,162.0938
19:37:54:131,-0.1304,1.4491,11.4791,51.9033,0.0871,0.5448,-0.0131,162.4062
19:37:54:151,-0.304,1.5497,11.6407,50.5441,0.1108,0.5275,0.2545,162.7031
19:37:54:164,0.1306,1.9004,11.5438,53.301,0.0368,0.3962,0.5086,162.9219
19:37:54:183,1.5683,2.2811,12.3602,50.8566,-0.0322,0.0931,0.5203,162.9219
19:37:54:206,2.8241,2.1051,13.5728,52.5413,-0.0181,-0.1751,0.1957,162.0312
19:37:54:231,2.0879,1.0852,14.6251,50.066,0.0804,-0.1048,-0.1111,162.0312
19:37:54:247,0.3628,-0.1658,14.8633,50.1467,0.3025,0.2036,-0.125,161.4531
19:37:54:265,-0.6439,-1.2001,13.6195,49.2208,0.5838,0.4566,0.0838,161.2812
19:37:54:283,-0.6559,-1.6227,11.6766,51.6752,0.7763,0.4497,0.3192,161.4531
19:37:54:306,-0.1196,-1.4646,10.2389,49.5631,0.9217,0.3176,0.4066,161.4844
19:37:54:329,0.1521,-1.2252,8.5067,50.4815,0.9321,0.0966,0.3656,161.2344
19:37:54:350,0.3473,-1.0229,6.8403,50.3134,0.6589,-0.2334,0.2844,160.7812
19:37:54:364,0.6513,-0.8517,6.7973,49.4905,0.2341,-0.5674,0.1432,160.3438
19:37:54:385,0.643,-0.7835,8.3224,50.4741,-0.0975,-0.6723,0.029,160
19:37:54:403,0.7375,-1.0888,10.3634,48.5703,-0.1515,-0.4869,-0.0419,159.7812
19:37:54:429,0.4299,-1.1857,10.9165,47.5937,0.0053,-0.0467,-0.0483,159.7344
19:37:54:445,-0.2824,-0.9978,9.5973,49.5121,0.1478,0.2798,0.0623,159.75
19:37:54:469,-0.5589,-0.8817,7.7118,48.9014,0.2197,0.3272,0.2505,159.8438
19:37:54:487,-0.4524,-0.5992,6.2538,48.8813,0.2226,0.1277,0.4623,159.8906
19:37:54:512,0.1917,-0.088,5.6002,48.0434,0.1577,-0.1618,0.6023,159.7969
19:37:54:530,0.9123,0.5537,5.8599,46.5264,0.0996,-0.3405,0.6119,159.5
19:37:54:546,1.3373,0.9978,6.2262,48.1958,0.0469,-0.358,0.5336,158.6406
19:37:54:564,1.4534,1.248,6.6141,47.8652,-0.032,-0.1884,0.4553,157.9375
19:37:54:585,1.5659,1.5772,7.0379,47.8551,-0.0815,-0.0694,0.3549,157.3438
19:37:54:606,1.5108,1.8669,7.4509,47.7491,-0.0911,-0.1303,0.226,156.7969
19:37:54:628,0.9362,1.7819,8.2745,48.1396,-0.0506,-0.2289,0.1792,156.3438
19:37:54:647,0.4407,1.7065,9.2741,46.8623,0.0637,-0.2558,0.2402,156.0312
19:37:54:664,0.6011,1.7556,9.8343,47.387,0.1926,-0.149,0.2905,155.8438
19:37:54:684,1.1661,2.1374,8.9784,47.6548,0.2019,-0.0771,0.2569,155.625
19:37:54:705,1.4163,2.0477,9.3734,47.5979,0.0469,-0.1998,0.1438,155.3438
19:37:54:732,1.712,1.5652,10.9261,45.6758,-0.2067,-0.4257,-0.0043,155.0156
19:37:54:748,2.1142,0.6411,12.8247,46.2941,-0.4125,-0.5546,-0.1127,154.7812
19:37:54:764,2.9773,-0.422,13.5836,47.036,-0.4503,-0.4496,-0.1332,154.7344
19:37:54:785,3.7925,-0.9427,12.7792,46.8594,-0.3854,-0.2965,-0.1231,154.8594
19:37:54:804,3.9637,-0.8457,12.207,43.8633,-0.3864,-0.333,-0.182,155.0625
19:37:54:828,3.5878,-0.7715,12.7193,46.1433,-0.4914,-0.5186,-0.317,155.25
19:37:54:845,2.6529,-0.987,13.4567,44.0838,-0.6048,-0.4473,-0.4587,155.5781
19:37:54:864,2.0268,-1.0241,12.9025,43.8203,-0.5648,0.0167,-0.4496,156
19:37:54:884,2.4183,-0.568,10.7657,46.2071,-0.3308,0.4295,-0.2962,156.5781
19:37:54:904,3.4957,-0.0233,8.9951,43.571,-0.1427,0.3698,-0.1929,156.8438
19:37:54:931,4.0631,0.4615,8.618,43.5938,-0.123,-0.0805,-0.2946,157.2969
19:37:54:950,3.6357,0.6087,8.8251,43.8726,-0.18,-0.4414,-0.574,157.5469
19:37:54:965,2.4793,0.3537,8.5833,45.4769,-0.2312,-0.3626,-0.8853,157.7969
19:37:54:983,1.0811,0.2795,7.5586,44.3749,-0.2541,0.043,-1.0853,158.2812
19:37:55:004,0.0923,0.434,6.5135,43.6855,-0.2706,0.3797,-1.1242,159.1406
19:37:55:029,-0.5458,0.586,6.012,44.364,-0.282,0.4228,-1.0592,160.3125
19:37:55:049,-0.8199,0.7632,6.5614,42.2381,-0.2977,0.2084,-0.9407,161.5469
19:37:55:063,-0.7541,0.8374,7.4916,42.9557,-0.2631,0.0121,-0.8046,162.8125
19:37:55:084,-0.6978,0.987,7.9776,43.289,-0.1582,-0.0041,-0.6829,163.9688
19:37:55:104,-0.6523,1.2504,7.9034,42.5288,-0.0413,0.0905,-0.5726,164.9375
19:37:55:131,-0.0825,1.5437,8.0734,41.8694,-0.032,0.1693,-0.4664,166.1562
19:37:55:150,0.704,1.7783,9.0598,40.8826,-0.1132,0.1584,-0.4225,166.8281
19:37:55:166,1.0452,1.7963,10.3766,40.9076,-0.1766,0.1285,-0.4944,167.3281
19:37:55:184,0.6693,1.4587,11.2708,41.5308,-0.1366,0.1967,-0.6169,167.8125
19:37:55:204,-0.0526,1.0325,11.5701,41.231,-0.0189,0.3224,-0.6541,168.375
19:37:55:229,-0.4452,0.762,11.4695,41.0562,0.1127,0.4553,-0.5258,169.0938
19:37:55:248,-0.5015,0.8589,11.1619,41.4506,0.2242,0.5312,-0.2981,169.7969
19:37:55:266,-0.4141,1.0553,10.9392,41.4506,0.3023,0.471,-0.0613,170.3906
19:37:55:283,-0.1854,1.1295,11.0937,42.9783,0.335,0.3072,0.1637,170.7188
19:37:55:304,0.37,1.0445,11.7664,40.6837,0.3292,0.1341,0.3805,170.7656
19:37:55:328,0.9315,1.1462,12.3937,41.1389,0.339,0.0204,0.5589,170.5625
19:37:55:345,1.2236,1.5952,12.4033,40.968,0.367,0.0516,0.6527,170.125
19:37:55:365,1.4402,1.9543,11.9101,39.2507,0.3361,0.2007,0.6447,169.5156
19:37:55:384,1.1493,1.5473,11.2074,40.0617,0.1116,0.3762,0.3022,169.1406
19:37:55:405,0.3293,0.8063,10.7285,40.1804,0.0354,0.1408,0.2127,168
19:37:55:430,-0.638,0.0916,11.0446,42.1215,0.102,0.0044,0.2061,167.4219
19:37:55:447,-1.373,-0.8481,10.8159,39.8703,0.2762,0.0012,0.2865,166.8281
19:37:55:465,-1.8889,-1.4874,9.4117,39.5088,0.3369,-0.0371,0.4753,166.8281
19:37:55:487,-1.7201,-1.467,7.9153,40.4021,0.2077,-0.349,0.6724,166.5938
19:37:55:503,-0.9648,-1.0445,7.664,41.1106,0.0077,-0.7772,0.7571,166.2812
19:37:55:524,-0.2728,-0.7248,8.5319,40.0545,-0.1614,-0.8307,0.8109,165.7344
19:37:55:546,0.6262,-0.6446,9.4824,39.2174,-0.1609,-0.4981,0.8351,165
19:37:55:621,1.1086,-0.4363,9.0466,40.6479,-0.0567,-0.052,0.8506,163.7812
19:37:55:622,1.3923,-0.0904,7.4748,41.6701,-0.0322,0.2215,0.8665,162.875
19:37:55:622,1.797,0.2376,6.1927,39.6481,-0.1116,0.2186,0.8159,161.9375
19:37:55:642,1.9586,0.5082,5.7941,40.5874,-0.2362,0.0508,0.7126,160.0156
19:37:55:643,1.5731,0.8039,6.565,39.9197,-0.2394,-0.0592,0.6271,160.0156
19:37:55:667,1.0057,0.7644,7.2474,40.95,-0.0914,-0.1133,0.6013,159.5469
19:37:55:683,0.3401,0.7009,7.403,40.1965,0.0495,-0.2254,0.682,158.75
19:37:55:704,0.2168,0.5501,7.9908,39.9116,0.1683,-0.2893,0.8503,158.0625
19:37:55:731,0.7411,0.7799,8.5259,41.6895,0.2237,-0.3343,0.9776,157.3906
19:37:55:748,1.6138,1.4994,9.134,39.9363,0.1667,-0.4656,0.989,156.6094
19:37:55:765,2.441,1.9662,10.5286,41.0666,0.1329,-0.4672,0.8388,155.6406
19:37:55:784,2.6206,1.9184,11.6431,40.7714,0.2322,-0.3575,0.6178,154.5781
19:37:55:804,2.283,1.6658,11.6838,41.336,0.3595,-0.2651,0.4593,153.4688
19:37:55:830,1.9179,1.497,10.8578,40.4339,0.3289,-0.2968,0.3701,152.5156
19:37:55:847,2.0627,1.2935,10.5957,40.5177,0.1164,-0.3807,0.2985,151.8438
19:37:55:866,2.5559,0.9774,11.4468,40.8485,-0.1262,-0.3911,0.193,151.0938
19:37:55:889,2.8899,0.331,12.9587,40.3578,-0.2005,-0.1873,0.1198,150.7031
19:37:55:902,3.0767,-0.6434,13.3226,40.759,-0.1084,0.2526,0.1443,150.4531
19:37:55:924,3.2622,-1.0576,11.6264,40.5361,-0.1017,0.5698,0.181,150.3281
19:37:55:947,3.5244,-0.7057,9.7074,39.7,-0.277,0.5253,0.0726,150.2031
19:37:55:966,3.7841,-0.2592,8.8862,40.0002,-0.5667,0.2095,-0.2493,150
19:37:55:987,3.6752,-0.4639,9.7469,38.9091,-0.8051,-0.109,-0.5801,149.8125
19:37:56:003,3.4442,-1.3449,11.3211,40.413,-0.8442,-0.1045,-0.7553,149.8906
19:37:56:025,2.8887,-1.7137,12.2249,41.4634,-0.6749,0.1035,-0.7756,150.4375
19:37:56:049,2.9402,-1.7101,11.5545,41.8255,-0.4796,0.2281,-0.762,151.25
19:37:56:065,3.6776,-1.5293,10.0965,41.8133,-0.4389,0.2209,-0.8656,152.2031
19:37:56:083,3.1952,-0.8206,8.7796,41.1943,-0.5215,0.1514,-1.0989,153.1094
19:37:56:105,2.0172,-0.8697,8.5151,40.5876,-0.575,0.1064,-1.3458,153.9844
19:37:56:128,0.5855,-0.9655,8.0482,40.6214,-0.5374,0.1248,-1.4603,155.125
19:37:56:148,-0.8031,-0.8709,8.1763,40.9267,-0.4458,0.1083,-1.3868,155.8125
19:37:56:164,-1.1718,-0.7272,8.6444,39.8371,-0.2634,-0.0182,-1.1064,158.1562
19:37:56:183,-0.3028,-0.3729,8.4157,41.6934,0.0399,-0.0963,-0.6778,159.8281
19:37:56:203,0.449,0.4627,7.4485,40.9074,0.3292,-0.0073,-0.3444,161.3125
19:37:56:231,0.8249,1.339,6.2478,39.9012,0.4495,0.165,-0.2059,162.3438
19:37:56:248,0.807,1.8813,5.8264,40.5295,0.3414,0.2697,-0.2523,162.8594
19:37:56:265,0.6501,2.1051,6.7745,39.6708,0.0919,0.2668,-0.3548,163.125
19:37:56:283,0.6046,2.007,8.8168,40.6676,-0.1217,0.1807,-0.3743,163.3438
19:37:56:307,0.3999,1.9148,10.9871,40.249,-0.127,0.1418,-0.3111,163.6719
19:37:56:328,0.5963,1.7999,11.6192,38.6105,0.1358,0.1818,-0.1963,164.0938
19:37:56:346,0.7064,1.9531,11.1655,39.3862,0.453,0.2665,-0.077,164.5
19:37:56:363,0.6478,2.0656,11.1344,39.3172,0.5688,0.2897,-0.0131,164.7812
19:37:56:383,0.9183,1.7149,11.3678,38.9737,0.5505,0.2851,0.0386,164.9219
19:37:56:403,1.1781,1.224,11.278,39.5662,0.5196,0.3035,0.0732,164.9375
19:37:56:430,0.9937,0.4723,11.3546,39.4067,0.4168,0.3216,0.0846,164.875
19:37:56:448,0.631,-0.5405,12.0561,39.4517,0.1696,0.4255,0.1227,164.7656
19:37:56:466,0.0743,-1.0828,13.0413,38.75,-0.1816,0.7176,0.2255,164.6406
19:37:56:487,-0.0011,-0.7584,14.2995,37.6022,-0.4839,0.9536,0.4133,164.5781
19:37:56:502,0.2659,-0.1634,15.1015,38.7218,-0.5523,0.9381,0.5608,164.375
19:37:56:523,-0.1292,0.1646,15.256,37.7937,-0.3324,0.7168,0.5379,164
19:37:56:546,-0.207,-0.2544,13.3933,38.0771,0.2184,0.3363,0.5523,163.3906
19:37:56:567,-0.0166,-0.0952,9.8367,38.693,0.7793,0.1171,0.6865,162.7188
19:37:56:583,0.7806,0.7428,6.9265,39.7559,0.885,0.1994,0.7845,162.1406
19:37:56:606,1.7718,1.3114,5.2913,38.3274,0.6416,0.1347,0.6673,161.0312
19:37:56:629,1.6581,1.254,5.5427,40.2466,0.2495,-0.2755,0.286,160.1875
19:37:56:646,1.1194,0.5644,6.8775,38.9042,-0.0919,-0.8459,-0.109,159.4375
19:37:56:663,0.2347,-0.3753,8.9808,38.8973,-0.2983,-1.2513,-0.3444,159.125
19:37:56:683,-1.1407,-0.9068,10.3287,38.7768,-0.2871,-1.1836,-0.3535,159.2969
19:37:56:705,-1.7321,-0.7979,9.3818,39.4576,-0.0053,-0.6478,-0.0491,159.7344
19:37:56:731,-0.9324,-0.5549,6.5614,39.1236,0.3175,-0.0717,0.3922,160.1875
19:37:56:746,0.4347,0.2257,4.5599,38.5668,0.3784,0.1493,0.7036,160.2656
19:37:56:763,1.6653,1.0864,5.1046,39.1778,0.1252,-0.1607,0.7707,159.8438
19:37:56:783,1.7431,1.0756,7.1528,38.7748,-0.2687,-0.5431,0.3105,159.0312
19:37:56:804,0.7447,0.4375,8.8551,39.545,-0.1196,-0.2827,0.2473,159.0312
19:37:56:824,0.115,-0.0976,9.128,38.9782,0.0839,0.0217,0.381,158.1562
19:37:56:845,0.06,0.0066,8.1787,39.0828,0.1004,0.1139,0.5222,157.2344
19:37:56:864,0.3389,0.4459,7.6604,39.3042,-0.0716,-0.0661,0.5757,156.9688
19:37:56:890,1.062,0.7608,8.6659,40.0443,-0.2272,-0.2662,0.495,155.9531
19:37:56:902,1.3744,0.8338,10.1264,39.5105,-0.257,-0.255,0.3339,155.9531
19:37:56:923,1.0344,0.6063,10.9704,40.901,-0.2309,-0.0483,0.2149,155.2969
19:37:56:948,0.6585,0.2376,10.8902,39.9585,-0.2762,0.1362,0.1754,154.75
19:37:56:964,0.6082,-0.0197,10.5538,40.5223,-0.4384,0.1056,0.1738,154.4062
19:37:56:982,0.8321,-0.3071,11.0398,40.1121,-0.6463,-0.0773,0.1672,154.1719
19:37:57:002,1.4725,-0.9774,12.523,41.0195,-0.755,-0.1389,0.1656,153.9844
19:37:57:023,1.9119,-1.6394,13.5848,41.331,-0.743,-0.0052,0.1869,153.8125
19:37:57:049,2.0531,-1.7891,13.665,41.0603,-0.6519,0.1237,0.222,153.6562
19:37:57:066,2.2758,-1.485,13.1778,41.946,-0.5513,0.0849,0.1869,153.5
19:37:57:083,2.3416,-1.3222,13.0234,41.5911,-0.4738,0.0321,0.1288,153.3281
19:37:57:107,2.3632,-1.5592,13.501,43.3329,-0.3159,0.1477,0.1302,153.125
19:37:57:130,2.7427,-1.8477,13.1323,42.7604,-0.077,0.32,0.1672,152.9375
19:37:57:148,3.6441,-1.6358,11.8083,42.7511,0.1217,0.316,0.1203,152.75
19:37:57:168,4.7825,-1.3653,10.3359,45.1812,0.2008,0.1032,-0.1079,152.5938
19:37:57:184,5.186,-1.2719,9.3758,45.2134,0.1883,-0.0049,-0.4408,152.4219
19:37:57:203,4.5539,-1.2612,8.5977,45.8384,0.1433,0.1283,-0.7284,152.3906
19:37:57:223,3.3185,-1.1271,7.6711,45.6255,0.1305,0.2998,-0.8784,152.6719
19:37:57:247,2.3967,-0.9415,6.668,47.1947,0.1212,0.3941,-0.9274,153.3594
19:37:57:263,1.7455,-0.6003,5.7091,46.3257,0.0397,0.3618,-0.9247,154.2812
19:37:57:283,1.2511,-0.0581,5.4493,47.7338,-0.0756,0.2974,-0.9018,155.2812
19:37:57:302,0.8465,0.2077,6.0646,46.5919,-0.0871,0.2758,-0.848,156.3438
19:37:57:323,0.7064,0.2783,6.5507,47.4244,0.0016,0.2715,-0.7788,157.3906
19:37:57:347,0.4754,0.4328,6.4573,47.3447,0.0591,0.2281,-0.6901,158.4062
19:37:57:364,0.4023,0.6662,6.4405,47.3447,0.0208,0.0771,-0.5876,159.2969
19:37:57:382,0.5951,0.9762,7.3862,49.147,-0.0368,-0.0361,-0.5308,160.1406
19:37:57:403,0.5999,1.3174,8.909,48.2773,0.0397,-0.0576,-0.5143,160.5312
19:37:57:423,0.5795,1.4,9.8104,48.7274,0.1944,-0.0883,-0.5367,161.2031
19:37:57:446,0.3616,1.3342,10.1192,50.001,0.2988,-0.0963,-0.5423,161.4688
19:37:57:464,0.2946,1.3378,10.3491,49.7361,0.3254,-0.1213,-0.5476,162.6562
19:37:57:487,-0.1016,0.9715,11.1739,51.6206,0.2804,-0.0848,-0.5524,163.2812
19:37:57:504,-0.0741,0.7237,11.7042,51.5313,0.175,0.0553,-0.4693,163.8594
19:37:57:530,0.2216,0.4639,12.1687,51.6246,0.0868,0.1826,-0.3431,164.5
19:37:57:546,0.3999,0.1227,12.5086,52.2882,0.017,0.2257,-0.2424,165.0938
19:37:57:563,0.2336,-0.1179,12.9049,51.8258,-0.0613,0.2289,-0.1364,165.5156
19:37:57:582,-0.3315,-0.2245,13.4483,55.2334,-0.1366,0.1701,0.0085,165.8438
19:37:57:604,-0.4787,-0.3466,13.5669,53.4139,-0.1433,0.1544,0.2407,166.0625
19:37:57:628,-0.4332,-0.5872,13.282,53.9135,-0.0919,0.1948,0.4561,166.1562
19:37:57:704,-0.3758,-1.1402,12.5936,54.0715,0.0639,0.2044,0.5834,166.0156
19:37:57:705,-0.0454,-1.4551,11.4205,55.873,0.2895,0.1608,0.6705,165.6094
19:37:57:705,0.0288,-1.303,9.5733,55.9329,0.4999,0.12,0.7067,165
19:37:57:705,-0.0011,-1.2013,7.7705,56.5587,0.5268,0.0729,0.6284,164.3125
19:37:57:722,-0.0418,-1.1366,6.8475,58.6242,0.2892,-0.0235,0.4857,163.1094
19:37:57:748,-0.6008,-0.9894,7.2438,56.8465,-0.0879,-0.2028,0.3185,162.4219
19:37:57:763,-0.8103,-0.9942,8.7234,57.3405,-0.404,-0.4475,0.2436,161.8594
19:37:57:782,-0.4476,-0.7093,9.5255,56.9267,-0.4426,-0.5264,0.3078,161.5
19:37:57:804,0.1964,0.0353,9.2453,59.943,-0.2645,-0.4334,0.392,161.2344
19:37:57:824,0.8022,0.659,8.2386,60.3804,-0.1017,-0.1857,0.388,160.9062
19:37:57:847,1.0667,0.7811,7.0582,59.7545,-0.0466,0.0984,0.2689,160.7031
19:37:57:867,0.8824,0.6243,6.7314,59.7851,-0.0919,0.1863,0.1017,160.25
19:37:57:882,0.6932,0.4088,7.2462,59.4072,-0.1161,-0.014,-0.0105,159.8594
19:37:57:906,0.2707,0.0712,7.6831,59.6809,-0.0256,-0.2502,-0.0805,159.6562
19:37:57:930,-0.2249,-0.2544,7.7238,60.2851,0.126,-0.3237,-0.0616,159.6094
19:37:57:946,-0.2537,-0.4902,7.2964,59.1738,0.2565,-0.2747,0.0641,159.6875
19:37:57:962,0.2659,-0.2795,6.8882,60.1799,0.2599,-0.1849,0.2348,159.7812
19:37:57:987,0.8836,-0.0616,7.5706,59.6441,0.0661,-0.186,0.3272,159.7812
19:37:58:001,1.1038,-0.0976,9.1065,61.5796,-0.2064,-0.1586,0.2993,159.4375
19:37:58:022,1.0895,-0.1562,10.7118,62.1011,-0.4008,-0.0368,0.2492,159.0938
19:37:58:046,0.892,-0.3466,11.3953,60.542,-0.4003,0.128,0.2101,158.75
19:37:58:064,0.8381,-0.6997,11.0805,61.598,-0.2967,0.2177,0.1954,158.4844
19:37:58:082,1.1314,-0.9056,11.0134,62.2289,-0.3007,0.1861,0.2367,158.2656
19:37:58:105,1.542,-1.2492,11.8921,60.1897,-0.4133,0.0406,0.2764,157.7969
19:37:58:130,2.0915,-1.8968,13.0725,62.0773,-0.4474,-0.0435,0.3946,157.4844
19:37:58:143,2.6373,-2.1961,13.0677,62.9995,-0.3366,0.1615,0.4196,157.1562
19:37:58:166,2.7259,-1.8872,11.7975,60.8264,-0.293,0.2031,0.3427,156.7188
19:37:58:183,2.4518,-1.3856,10.3048,61.1125,-0.4077,-0.0281,0.1941,156.7188
19:37:58:205,1.8353,-1.0505,10.4017,60.1832,-0.5262,-0.3804,0.0505,156.25
19:37:58:235,1.3732,-1.3904,12.2824,61.5228,-0.3997,-0.4377,0.0188,155.9062
19:37:58:249,1.3325,-1.8609,13.0737,60.4907,-0.0706,-0.1937,0.0894,155.6875
19:37:58:267,2.0914,-1.9076,11.509,61.4348,0.1827,-0.0936,0.0956,155.5938
19:37:58:281,3.194,-1.5425,9.2729,62.0107,0.1116,-0.2891,-0.1093,155.5938
19:37:58:302,3.6297,-1.4036,8.5797,62.1173,-0.1728,-0.4315,-0.4432,155.4844
19:37:58:322,3.0575,-1.5185,8.9772,61.7673,-0.4125,-0.259,-0.7412,155.375
19:37:58:346,1.8401,-1.7065,9.1077,61.8371,-0.4693,0.0334,-0.8544,155.4844
19:37:58:366,0.5292,-1.4587,8.7318,60.1238,-0.2953,0.0185,-0.7034,155.9531
19:37:58:381,0.2288,-0.6411,8.8994,61.4546,0.2386,-0.6238,-0.4011,156.8125
19:37:58:401,1.2954,0.2951,8.7761,61.4742,1.0099,-1.6915,-0.3002,157.8125
19:37:58:422,2.1812,0.9332,7.8651,62.3762,1.4581,-2.3847,-0.4794,158.5938
19:37:58:446,2.3189,1.1666,7.3108,62.6169,1.2978,-1.9349,-0.7495,159.0156
19:37:58:464,2.0388,0.7799,7.2677,62.5328,0.7766,-0.5636,-0.9564,159.2188
19:37:58:482,1.293,0.3346,6.4621,62.6206,0.1736,0.8569,-0.9796,159.5469
19:37:58:503,0.6789,0.4232,5.757,62.8509,-0.2778,1.4068,-0.8307,160.2031
19:37:58:521,0.6597,0.647,6.3543,61.5648,-0.3558,0.953,-0.6507,161.1875
19:37:58:551,0.7651,0.8506,8.4852,61.9423,-0.0194,-0.0409,-0.4786,162.2812
19:37:58:567,1.2188,0.7213,10.3539,63.2726,0.3973,-0.7178,-0.3503,163.2031
19:37:58:584,1.4689,0.7165,11.4648,61.2328,0.5595,-0.6342,-0.2571,164.2812
19:37:58:604,1.7012,0.4639,11.9185,60.8361,0.4567,0.0212,-0.1929,164.875
19:37:58:620,1.6174,0.1323,11.4671,62.7808,0.1619,0.6787,-0.1159,165.0156
19:37:58:641,1.2283,-0.0162,11.5605,61.7328,-0.0884,0.9701,0.0013,165.2188
19:37:58:664,0.7986,-0.1048,12.3841,61.9713,-0.0708,0.956,0.1216,165.3438
19:37:58:683,0.7076,-0.5884,12.2153,61.6336,0.037,0.8516,0.2511,165.3906
19:37:58:711,0.631,-0.7871,11.1367,62.1159,0.0938,0.4822,0.3992,165.3125
19:37:58:721,0.4861,-0.6781,10.3479,59.5872,0.1774,-0.5042,0.592,165.0781
19:37:58:743,0.9279,-0.1502,11.1798,61.6636,0.3092,-1.5676,0.7142,164.7188
19:37:58:766,1.7072,0.2053,13.1706,61.4368,0.3489,-1.529,0.7129,164.1406
19:37:58:782,2.3345,0.015,14.5102,62.1087,0.384,-0.2984,0.6836,163.375
19:37:58:803,2.678,-0.4615,12.6439,60.6384,0.4882,0.9099,0.6878,162.5625
19:37:58:822,2.7104,-0.4986,8.885,61.6669,0.5326,1.0715,0.7422,161.7969
19:37:58:848,3.1784,-0.4723,5.6516,61.0965,0.3872,0.2822,0.7067,161.3906
19:37:58:864,3.364,-0.1371,4.5958,61.8688,0.0117,-0.8723,0.5746,160.5156
19:37:58:883,3.4454,-0.4627,9.9373,60.7724,-0.3419,-1.3961,0.4434,159.1719
19:37:58:905,2.4242,-0.4016,11.3139,61.5681,-0.4517,-0.9959,0.323,158.4219
19:37:58:929,1.1493,0.064,10.5777,61.0434,-0.3214,-0.1791,0.3177,157.9219
19:37:58:946,1.0057,0.3298,8.9389,61.4327,-0.086,0.365,0.4825,157.5938
19:37:58:964,1.8592,0.7727,7.5646,60.348,0.1286,0.4518,0.6998,157.3281
19:37:58:982,2.7068,1.2552,6.9888,60.6003,0.2834,0.144,0.7699,156.9062
19:37:59:001,3.3508,1.4623,7.16,60.0829,0.3398,-0.2257,0.6559,156.2188
19:37:59:023,3.3783,1.3952,8.0255,61.4454,0.2687,-0.3106,0.422,155.3594
19:37:59:050,2.5416,0.9751,8.4971,60.9332,0.1824,-0.0491,0.1547,154.4844
19:37:59:069,1.7766,0.7177,7.7442,61.2258,0.2032,0.3275,0.0391,153.8125
19:37:59:084,2.0519,0.8553,7.0103,59.563,0.2112,0.4718,0.0963,153.4844
19:37:59:101,2.6996,1.2707,7.494,59.503,0.0629,0.4276,0.1395,153.375
19:37:59:122,2.9151,1.4754,9.1196,59.2148,-0.1979,0.3815,0.0599,153.2812
19:37:59:147,2.7534,1.412,10.4209,59.4502,-0.3025,0.345,-0.0914,153.0156
19:37:59:163,2.6313,0.8661,11.2589,58.7633,-0.2392,0.2417,-0.2706,152.9531
19:37:59:181,2.9234,-0.2005,11.3714,59.6984,-0.1308,0.1602,-0.4121,153.0781
19:37:59:201,3.0575,-0.8589,11.4121,57.8922,-0.1547,0.275,-0.4973,153.3906
19:37:59:223,2.6673,-1.1558,12.335,56.714,-0.3143,0.4393,-0.5356,153.8594
19:37:59:245,1.9681,-1.3018,12.9384,58.0602,-0.3318,0.5634,-0.5319,154.4375
19:37:59:266,1.712,-0.9966,11.8981,57.4293,-0.0834,0.6771,-0.4054,155.0781
19:37:59:281,2.1549,-0.1514,9.693,57.2459,0.2253,0.6106,-0.2326,155.3594
19:37:59:301,2.265,0.7847,8.1368,56.5371,0.2991,0.2446,-0.2003,155.9219
19:37:59:322,2.8349,0.7751,9.5015,57.1163,-0.0424,-0.1639,-0.2768,156.25
19:37:59:346,3.1533,0.2759,12.6726,56.0378,-0.4993,-0.1716,-0.4089,156.4531
19:37:59:365,2.8648,-0.4124,13.5034,57.8044,-0.5047,0.234,-0.5561,156.6875
19:37:59:380,2.4518,-1.0768,10.3155,55.576,-0.0815,0.5341,-0.623,157.0938
19:37:59:401,2.1274,-1.5389,7.9477,55.0348,0.1047,0.3123,-0.6179,157.7031
19:37:59:422,2.0232,-1.9231,8.6647,55.4582,-0.0855,-0.3823,-0.5575,158.7188
19:37:59:448,2.1286,-2.1769,10.5717,55.6571,-0.3095,-0.9303,-0.4874,159.4062
19:37:59:463,1.6904,-1.9124,11.3905,55.6571,-0.3606,-0.7865,-0.4472,160.0625
19:37:59:483,1.3265,-1.321,10.7872,54.1496,-0.2618,-0.1394,-0.3745,160.625
19:37:59:501,1.135,-0.8625,8.5307,57.2345,-0.0498,0.5853,-0.2869,161.1719
19:37:59:522,0.9087,-0.6566,6.1317,55.6509,0.1875,0.8633,-0.2304,161.6406
19:37:59:546,0.7447,-0.4124,4.5287,55.7614,0.3334,0.6241,-0.1694,161.9375
19:37:59:565,0.8321,-0.094,3.9697,54.8627,0.3297,0.1378,-0.1159,162.1875
19:37:59:582,0.6753,0.1993,4.8077,56.6435,-0.0874,-0.5514,-0.1082,162.3438
19:37:59:601,0.6214,0.3047,6.4525,56.8543,-0.3345,-0.2995,-0.0762,162.3438
19:37:59:621,0.4658,0.7201,8.4301,57.1304,-0.4115,0.1642,-0.0059,162.4531
19:37:59:647,1.1122,1.3569,9.7553,55.6343,-0.2906,0.4223,-0.043,162.5781
19:37:59:665,1.5001,1.8489,9.8882,55.339,-0.1686,0.4476,-0.1929,162.7188
19:37:59:681,1.0715,2.1291,9.8415,56.2118,-0.1313,0.2548,-0.3226,162.8281
19:37:59:701,0.4873,1.9088,10.4161,56.5647,-0.1324,0.1075,-0.3809,162.9219
19:37:59:784,-0.3973,1.5497,11.2648,54.9074,-0.1534,0.1509,-0.2714,163.1562
19:37:59:784,-0.7038,1.2121,12.2105,55.0532,-0.1371,0.2668,-0.0302,163.5
19:37:59:785,-0.1423,0.847,12.6212,55.5263,-0.1129,0.3805,0.2191,163.9375
19:37:59:785,1.117,0.6506,12.371,54.9635,-0.2208,0.3853,0.3342,164.2656
19:37:59:802,2.0723,0.9858,12.5457,56.0774,-0.4125,0.2417,0.2801,164.2969
19:37:59:821,2.6984,1.1714,14.0038,55.0384,-0.5049,0.1424,0.0793,164.0625
19:37:59:849,2.289,0.4675,15.3745,56.1302,-0.3047,0.1722,-0.1015,163.6875
19:37:59:860,0.5987,-0.3573,15.2739,54.9656,0.127,0.1991,0.005,163.3906
19:37:59:882,0.0815,-1.0433,13.2832,55.2692,0.469,0.2305,0.2668,163.3125
19:37:59:901,0.7722,-1.0684,10.9775,55.2511,0.5979,0.2164,0.3989,163.4531
19:37:59:920,1.7886,-1.1989,9.1532,56.2827,0.6069,0.0268,0.2934,163.4375
19:37:59:942,1.9083,-1.497,7.7454,54.7103,0.473,-0.2931,0.087,163.1406
19:37:59:964,1.3038,-1.8764,7.3503,54.8127,0.2485,-0.5405,-0.0243,162.4688
19:37:59:982,0.3952,-1.904,7.8124,55.695,0.0791,-0.614,0.0279,162.2344
19:38:00:005,-0.2752,-1.5712,8.5678,55.4884,0.0676,-0.5378,0.2197,162.2031
19:38:00:021,-0.0621,-1.2432,8.7952,55.1453,0.1792,-0.3716,0.4053,162.2344
19:38:00:041,0.54,-0.7847,8.0949,57.4514,0.1989,-0.1197,0.4814,162.125
19:38:00:064,1.1003,-0.3956,7.2174,56.7714,0.0605,0.112,0.4697,161.75
19:38:00:081,1.4702,-0.3741,6.8272,55.0179,-0.1459,0.1818,0.4031,161.25
19:38:00:101,1.0117,-0.3585,7.6328,56.4527,-0.2128,0.1395,0.4103,160.6875
19:38:00:122,0.619,-0.3777,8.9485,55.8057,0.024,0.1086,0.4828,160.1719
19:38:00:146,0.4155,-0.5381,8.7785,56.2891,0.3657,0.1189,0.6021,159.75
19:38:00:165,0.4754,-0.2616,7.1636,55.0359,0.4788,0.0433,0.699,159.25
19:38:00:181,1.1505,0.1514,6.0898,56.0911,0.3302,-0.1365,0.6692,158.6406
19:38:00:206,1.8113,0.4495,6.3412,54.5042,0.028,-0.3205,0.5344,157.8906
19:38:00:220,2.0675,0.6698,8.2182,56.1678,-0.1918,-0.3567,0.364,157.4688
19:38:00:244,1.8197,0.5573,10.3682,56.5414,-0.1984,-0.1785,0.2343,156.7031
19:38:00:267,1.3516,0.3801,11.3355,56.4605,-0.078,0.0771,0.1898,156.0938
19:38:00:284,1.8796,-0.2304,10.3072,56.28,-0.0029,0.1269,0.1866,155.5781
19:38:00:303,2.5176,-0.6015,10.7166,58.0993,-0.0602,-0.1005,0.1653,155.3438
19:38:00:321,3.1174,-0.9643,11.6503,55.621,-0.1617,-0.3389,0.1307,155.1406
19:38:00:347,3.4621,-1.2612,11.6443,56.9691,-0.2093,-0.3389,0.0844,154.9375
19:38:00:368,3.5268,-1.3701,11.1152,56.8383,-0.2826,-0.1442,0.0135,154.7812
19:38:00:382,3.6106,-1.4922,10.9021,56.3239,-0.4405,0.0004,-0.0856,154.6719
19:38:00:400,3.334,-1.3857,11.1954,58.1622,-0.6288,0.0271,-0.2075,154.6406
19:38:00:421,2.6469,-1.3006,12.5517,56.1652,-0.7928,-0.0318,-0.3434,154.7031
19:38:00:447,2.0316,-1.4383,13.9344,56.2896,-0.7638,-0.0574,-0.4019,154.8906
19:38:00:464,1.8867,-1.4826,13.7081,57.7961,-0.4693,0.1229,-0.3431,155.2656
19:38:00:481,2.5104,-1.3809,11.6838,57.234,-0.0455,0.3304,-0.2184,155.7344
19:38:00:500,3.334,-1.1223,9.6631,56.7554,0.2668,0.2833,-0.1756,156.2188
19:38:00:520,3.9206,-0.9056,8.4828,56.4452,0.3436,0.0468,-0.2789,156.5625
19:38:00:542,3.6992,-0.8314,7.9608,55.622,0.2426,-0.1322,-0.5239,156.7656
19:38:00:565,2.7391,-0.7835,7.743,57.2428,0.0871,-0.157,-0.8041,157.1562
19:38:00:582,1.7275,-0.7979,8.2781,56.1836,-0.0429,-0.0363,-1.0065,157.75
19:38:00:601,1.0284,-0.92,9.0634,58.1835,-0.0256,0.1501,-1.0888,158.6094
19:38:00:621,0.3533,-0.8266,7.9465,55.8599,0.2647,0.3102,-1.0603,159.7656
19:38:00:641,-0.3794,-0.4782,5.9976,57.9071,0.5878,0.3434,-0.9351,161.0156
19:38:00:664,-0.438,0.0102,5.0974,55.5426,0.6727,0.1749,-0.7199,162.1562
19:38:00:682,0.2611,0.9044,5.1333,56.488,0.5665,-0.0917,-0.5029,163.1875
19:38:00:701,1.1685,1.7591,6.0036,56.862,0.3113,-0.2656,-0.4166,163.9844
19:38:00:721,1.7275,2.1482,7.743,57.1501,-0.0173,-0.3184,-0.505,164.2812
19:38:00:740,1.3289,1.9591,9.3112,55.8207,-0.274,-0.1399,-0.6944,164.7344
19:38:00:761,0.6071,1.649,10.2832,56.6739,-0.3489,0.1389,-0.8161,165.2344
19:38:00:781,0.4071,1.5114,10.6998,57.381,-0.277,0.3424,-0.7207,165.9219
19:38:00:800,0.8034,1.7436,11.1559,57.1541,-0.1273,0.4071,-0.4805,166.8438
19:38:00:820,1.4965,1.922,11.2134,56.4957,0.0591,0.3512,-0.235,167.7188
19:38:00:841,2.2339,2.0572,11.0781,57.4221,0.2306,0.2193,-0.0768,168.4219
19:38:00:867,2.8875,1.8777,10.9153,56.1888,0.3143,0.0694,-0.0507,168.9062
19:38:00:881,3,1.2001,10.6124,56.3908,0.2807,0.0329,-0.2014,168.9844
19:38:00:900,2.5871,0.3262,10.1132,56.6361,0.1193,0.1456,-0.4137,169.0156
19:38:00:920,2.0412,-0.4687,9.5422,56.3185,-0.2192,0.3786,-0.5663,169.2344
19:38:00:940,1.4319,-1.1642,10.0905,57.0626,-0.7041,0.3751,-0.6283,169.6875
19:38:00:964,0.8285,-1.9674,12.839,56.9791,-1.1382,-0.0078,-0.623,170.3281
19:38:00:981,0.9075,-2.4762,15.9754,55.8476,-0.5606,-0.3192,-0.3202,171.0625
19:38:01:001,1.2966,-2.4918,16.3597,55.594,0.1747,0.1027,-0.1812,171.7812
19:38:01:020,1.5408,-2.0297,13.665,55.6761,0.5508,0.5773,-0.0903,172.3906
19:38:01:041,1.8149,-1.5089,11.1212,57.34,0.681,0.7818,-0.0818,172.7812
19:38:01:066,1.9897,-1.394,8.8838,55.4236,0.6581,0.7301,-0.1268,172.9844
19:38:01:084,1.8185,-1.2384,7.7573,54.4717,0.551,0.3709,-0.1324,173.0625
19:38:01:100,2.5045,-1.2887,8.1512,55.4158,0.5782,0.0127,-0.2134,173.125
19:38:01:121,2.9342,-1.2336,7.7837,54.157,0.5462,-0.2129,-0.4001,173.3906
19:38:01:142,2.4853,-0.9894,6.8571,53.4851,0.2666,-0.2797,-0.6062,173.5
19:38:01:165,1.5216,-0.8841,6.9074,53.4184,-0.0983,-0.2153,-0.7191,173.8281
19:38:01:182,0.7064,-0.9679,7.7525,55.4657,-0.3212,0.0167,-0.693,174.4062
19:38:01:200,0.285,-0.9415,8.2673,53.991,-0.3292,0.3224,-0.5729,174.75
19:38:01:221,0.3138,-0.7835,7.8004,53.1664,-0.257,0.5562,-0.4155,175.5781
19:38:01:241,0.8141,-0.3932,6.8296,54.3354,-0.2708,0.6127,-0.3292,176.3906
19:38:01:265,1.1122,0.1024,6.3998,53.2195,-0.3558,0.5043,-0.3516,177.0312
19:38:01:282,0.722,0.2652,6.8008,53.9825,-0.4149,0.2937,-0.374,177.4688
19:38:01:300,0.6226,0.434,7.7118,53.723,-0.4368,0.1112,-0.3907,177.8438
19:38:01:322,0.7208,0.5417,8.4852,53.5448,-0.5316,0.0596,-0.4451,178.2344
19:38:01:342,0.8656,0.4639,9.128,52.2859,-0.7715,0.0833,-0.5362,179.0781
19:38:01:363,1.0691,0.3861,10.6076,53.5092,-1.0551,0.3107,-0.6866,179.0781
19:38:01:381,0.6968,0.1059,12.9767,52.0139,-1.0647,0.821,-0.807,179.5781
19:38:01:405,0.115,-0.4818,14.1475,51.7017,-0.7217,1.2007,-0.7561,180.1406
19:38:01:419,0.0791,-0.9343,13.4783,52.219,-0.3071,1.1515,-0.5804,181.3906
19:38:01:441,0.4406,-1.0026,12.7899,52.5667,0.0708,0.6617,-0.4001,182.3125
19:38:01:466,0.8417,-1.0217,13.1143,51.3166,0.5084,0.062,-0.2435,183.0938
19:38:01:483,1.2643,-1.2396,13.5022,51.7933,0.9675,-0.1796,-0.065,183.6875
19:38:01:500,1.8185,-1.2049,12.2896,52.1857,1.2826,-0.219,0.1059,183.9062
19:38:01:521,2.9629,-0.823,10.0246,52.1412,1.3412,-0.414,0.1057,184.2188
19:38:01:540,4.7502,-0.3657,7.2534,50.3031,0.8741,-0.8228,-0.2688,184.3281
19:38:01:564,5.9665,-0.1598,6.7984,51.3188,-0.1563,-0.9852,-1.0651,184.2656
19:38:01:583,3.8692,-1.3246,10.9225,50.4647,-0.8522,-0.2313,-1.6097,184.2188
19:38:01:601,0.8022,-2.8724,15.4164,50.4647,-0.4663,0.8319,-1.4949,184.5625
19:38:01:621,0.054,-3.8804,14.5724,49.8513,0.5353,1.2814,-0.9372,186.625
19:38:01:640,2.2423,-3.5632,9.3782,49.3399,1.0613,0.7869,-0.647,188.4688
19:38:01:665,4.682,-2.1997,5.7127,50.2767,0.9071,-0.2353,-0.991,189.8281
19:38:01:681,4.3971,-1.8154,7.4389,49.0942,0.4538,-0.9077,-1.6768,190.7031
19:38:01:701,2.9019,-2.6989,8.4804,48.2121,0.0874,-0.8315,-2.2204,191.625
19:38:01:721,1.6186,-2.991,7.9967,48.9958,-0.0804,-0.2885,-2.4371,193.1875
19:38:01:741,1.0835,-2.7288,7.2486,48.6,-0.1936,0.308,-2.3961,195.3906
19:38:01:764,1.044,-2.1757,6.966,48.9906,-0.2778,0.6414,-2.2486,198.1094
19:38:01:780,0.892,-1.5389,6.9816,47.0635,-0.24,0.6289,-2.1245,200.9062
19:38:01:861,0.7291,-1.066,6.8547,47.8659,-0.0748,0.3354,-2.0331,203.4219
19:38:01:861,0.5663,-0.6662,7.0451,46.3756,0.0557,-0.0049,-1.9471,205.9062
19:38:01:861,0.2862,-0.3011,7.3695,48.3491,0.086,-0.1692,-1.8608,208.2656
19:38:01:861,0.1917,0.3178,7.8854,49.0596,0.0376,-0.1484,-1.7487,210.4375
19:38:01:887,0.5687,0.9774,8.2613,48.0716,-0.021,-0.0651,-1.6179,212.625
19:38:01:899,0.4682,1.4623,8.7569,47.6738,-0.0586,-0.0651,-1.5966,215.6875
19:38:01:923,0.0911,1.6311,9.5542,48.5114,-0.1212,-0.1261,-1.6291,217.4375
19:38:01:947,-0.3782,1.7496,10.0785,46.7453,-0.1792,-0.0707,-1.6427,219.2656
19:38:01:965,-0.7648,1.6095,10.555,46.4213,-0.2437,0.0377,-1.635,221.125
19:38:01:981,-1.1659,1.0732,11.3786,47.7193,-0.3135,0.1248,-1.6009,222.0625
19:38:01:999,-1.6315,0.2915,11.9723,48.3226,-0.3292,0.2409,-1.4994,223.8438
19:38:02:024,-1.5992,-0.4818,12.4967,47.2795,-0.3068,0.3275,-1.2944,225.6875
19:38:02:039,-0.9492,-0.8278,12.3698,47.4395,-0.2575,0.3813,-1.0486,227.4688
19:38:02:059,-0.5685,-1.1115,12.4739,48.0021,-0.2645,0.2175,-0.9061,229.0625
19:38:02:081,-0.8091,-1.5245,14.2504,45.8799,-0.3981,-0.2547,-0.8893,230.3281
19:38:02:100,-0.8582,-2.1518,16.2328,45.8204,-0.4615,-0.554,-0.8307,231.4219
19:38:02:119,-1.0641,-2.0105,16.0221,44.9714,-0.2461,-0.3298,-0.6864,232.4375
19:38:02:140,-0.6667,-1.4575,13.7512,45.4849,0.1337,0.0822,-0.4882,233.3281
19:38:02:170,-0.1627,-1.2109,11.2014,46.0403,0.4645,0.2809,-0.3644,234.5312
19:38:02:184,-0.2573,-1.4323,9.2681,46.0066,0.6906,0.2042,-0.3825,235.0938
19:38:02:200,-0.4775,-1.7855,7.7083,44.5501,0.8338,-0.0377,-0.3929,235.5312
19:38:02:220,-0.365,-1.989,6.5399,44.7599,0.8533,-0.2638,-0.3271,236
19:38:02:240,0.0049,-1.7747,6.0048,45.0756,0.6826,-0.3913,-0.2443,236.5
19:38:02:265,0.4658,-1.3342,6.7578,44.114,0.3478,-0.4496,-0.228,236.875
19:38:02:282,0.5304,-1.1989,8.0626,41.979,0.0152,-0.4859,-0.3276,237.1719
19:38:02:299,0.0241,-1.2001,9.6464,45.4804,-0.2168,-0.4672,-0.4637,237.4531
19:38:02:320,-0.6391,-1.3701,10.9225,42.839,-0.2772,-0.2837,-0.4928,237.8125
19:38:02:341,-1.367,-1.3162,10.1587,43.467,-0.0842,0.1227,-0.3878,238.2969
19:38:02:365,-1.7919,-0.6698,8.0865,42.6157,0.1686,0.5695,-0.1332,238.8594
19:38:02:382,-1.1216,0.6554,6.5267,43.4688,0.3459,0.6191,0.4154,239.3125
19:38:02:400,0.0995,1.6382,5.6756,43.5122,0.3172,0.169,0.3563,239.3125
19:38:02:420,0.625,2.396,5.9377,41.2602,0.2085,-0.2382,0.1653,239.4531
19:38:02:440,0.7112,2.4355,7.2761,42.0121,0.1204,-0.3964,-0.0395,238.7969
19:38:02:468,0.5041,2.0776,8.4505,42.3403,0.0514,-0.2901,-0.1607,238.4219
19:38:02:489,0.3963,1.7939,9.1807,42.0903,-0.0373,-0.1146,-0.2184,238.2812
19:38:02:499,0.2742,1.5844,9.9995,41.1322,-0.0663,0.0292,-0.2493,238.2812
19:38:02:519,0.1162,1.1295,10.5681,41.6578,-0.0357,0.1184,-0.2459,238.4688
19:38:02:540,-0.1088,0.501,10.9751,41.5148,0.0341,0.1245,-0.1649,238.7031
19:38:02:565,-0.1471,0.0042,11.1344,41.4497,0.138,-0.0259,-0.0432,238.9844
19:38:02:584,-0.0813,-0.5429,11.2804,39.5042,0.2272,-0.2909,0.1163,239.2656
19:38:02:599,0.3808,-1.0313,11.7497,39.4358,0.3039,-0.5517,0.2761,239.4531
19:38:02:619,0.971,-1.1726,12.5469,40.6338,0.4035,-0.5839,0.3888,239.4688
19:38:02:639,1.7491,-1.3533,12.4224,39.3005,0.4967,-0.3588,0.4356,239.25
19:38:02:664,2.4039,-1.3126,10.8686,38.2894,0.4464,-0.1447,0.381,238.8906
19:38:02:686,2.8241,-1.1331,9.0825,38.6412,0.1894,-0.1644,0.218,238.4062
19:38:02:703,3.0288,-1.0744,8.3583,38.7782,-0.1976,-0.3615,-0.0328,237.9375
19:38:02:718,2.5284,-1.2133,9.1639,36.7526,-0.5558,-0.5663,-0.2491,237.6094
19:38:02:740,1.9119,-1.4898,11.1607,37.1085,-0.7422,-0.5825,-0.3495,237.5156
19:38:02:767,1.4402,-1.6634,13.6351,36.5896,-0.6413,-0.2702,-0.3535,237.5625
19:38:02:787,1.3337,-1.7699,14.9064,35.0931,-0.2208,0.2737,-0.2826,237.8438
19:38:02:807,1.8592,-1.9184,12.7588,37.4207,0.1598,0.4841,-0.2171,238.2344
19:38:02:819,2.5284,-1.4467,9.9013,37.8437,0.2509,0.2622,-0.2525,238.6406
19:38:02:840,3.2059,-1.0121,8.6192,36.2594,0.1928,-0.0286,-0.4166,238.9688
19:38:02:867,3.3484,-0.6554,8.3427,36.4389,0.1177,-0.0928,-0.6438,239.2031
19:38:02:882,2.8863,-0.3394,7.8256,36.1674,0.0746,0.002,-0.8462,239.7031
19:38:02:901,2.3907,-0.2065,7.1612,37.0086,0.0794,0.0803,-0.9913,240.3125
19:38:02:919,1.8712,-0.0173,6.2861,36.476,0.0557,0.1325,-1.0685,241.125
19:38:02:940,1.6653,0.2771,5.8695,36.7762,0.0088,0.1,-1.1205,242.1875
19:38:02:966,1.5492,0.489,6.0096,35.4022,0.0037,0.0585,-1.1926,243.375
19:38:02:980,1.3205,0.6518,6.1125,35.695,0.0021,-0.0017,-1.2621,244.625
19:38:02:999,0.8728,0.7991,6.2035,35.2635,-0.0522,-0.0598,-1.2645,245.8906
19:38:03:019,0.7172,0.981,6.6716,34.2324,-0.1087,-0.1306,-1.2275,247.2969
19:38:03:040,0.9279,1.224,7.2964,35.1524,-0.1827,-0.2611,-1.2342,248.7656
19:38:03:064,1.1038,1.4216,8.3966,33.4371,-0.2823,-0.309,-1.2826,250.1094
19:38:03:081,0.5292,1.4407,10.8949,34.745,-0.3057,-0.1665,-1.3282,251.5156
19:38:03:099,-0.1723,1.2851,11.3331,34.9936,-0.2578,0.0532,-1.3298,252.9531
19:38:03:123,-1.0246,1.2312,11.6324,32.3027,-0.1909,0.2625,-1.2368,254.375
19:38:03:138,-1.4316,1.2456,11.6862,33.7708,-0.0778,0.3474,-1.0275,255.9062
19:38:03:159,-1.4651,1.151,11.6587,35.2942,0.0743,0.2441,-0.7918,257.3906
19:38:03:182,-0.9923,0.8314,11.4265,34.0795,0.1928,0.0798,-0.5703,258.7031
19:38:03:199,-0.3949,0.5357,11.2684,31.5693,0.2112,-0.0768,-0.4057,259.6875
19:38:03:219,0.066,0.2879,11.6491,33.1658,0.0466,-0.1093,-0.3612,260.4688
19:38:03:239,0.2096,-0.0353,12.9863,31.513,-0.2258,-0.1279,-0.416,261.0156
19:38:03:266,-0.3099,-0.7177,14.2205,32.8761,-0.4256,-0.0981,-0.4986,261.4219
19:38:03:284,-1.2892,-1.3629,15.0453,34.3036,-0.4261,0.0002,-0.4941,261.8438
19:38:03:300,-1.5011,-1.7388,14.5078,32.9797,-0.1374,0.0641,-0.2983,262.375
19:38:03:322,-1.0749,-1.7627,12.1651,31.8653,0.2695,0.2255,0.0018,262.9375
19:38:03:338,-0.5134,-1.6275,9.6463,33.9254,0.5217,0.3171,0.2375,263.4219
19:38:03:360,-0.0011,-1.7077,8.1943,33.6769,0.5382,0.1488,0.3509,263.5938
19:38:03:382,0.1186,-1.8753,8.3104,33.8745,0.392,-0.2161,0.3746,263.4375
19:38:03:399,-0.371,-1.6909,9.1639,33.7554,0.2272,-0.4915,0.3976,263.125
19:38:03:418,-0.3052,-1.1283,9.5219,33.608,0.135,-0.4283,0.5291,262.7031
19:38:03:439,0.2299,-0.7129,9.2286,34.6413,0.1151,-0.1796,0.6798,262.2656
19:38:03:462,0.3856,-0.4663,8.3379,33.9261,0.1816,0.0271,0.7171,261.7812
19:38:03:480,0.6561,-0.2101,7.0654,34.1399,0.2754,0.0955,0.7403,260.6719
19:38:03:498,1.0548,-0.0389,6.5555,35.2119,0.2748,-0.0611,0.7355,259.8438
19:38:03:518,1.2367,0.0892,7.069,35.8108,0.1284,-0.2222,0.6383,259.0469
19:38:03:538,1.3229,0.0042,7.6316,34.4945,-0.1326,-0.0315,0.4716,258.2031
19:38:03:559,0.1785,-0.0629,8.0698,35.93,-0.5222,0.716,0.2681,257.4688
19:38:03:580,-1.0605,-0.0257,7.9848,34.4395,-0.8059,1.4945,0.2199,256.9531
19:38:03:600,-1.604,-0.264,7.5287,37.4546,-0.7068,1.4553,0.3603,256.6406
19:38:03:620,-1.0737,-0.2939,7.8519,35.6378,-0.4016,0.5895,0.65,256.3906
19:38:03:639,-0.2369,0.1897,9.0586,38.2179,-0.094,-0.4281,0.9344,256.2031
19:38:03:665,0.5783,0.6446,9.9768,38.0247,0.1747,-0.9716,1.0663,255.6719
19:38:03:680,1.3433,0.8266,10.2736,37.2222,0.3124,-0.9426,1.0085,254.75
19:38:03:698,1.6378,0.7308,9.8678,37.2222,0.2639,-0.5051,0.8111,253.5625
19:38:03:719,1.4654,0.3202,9.3842,37.9812,0.0746,-0.0896,0.5595,251.8281
19:38:03:738,1.5324,-0.2735,9.6116,38.123,-0.151,-0.0057,0.3704,250.9062
19:38:03:760,1.7132,-1.0181,10.6208,39.748,-0.3172,-0.2361,0.2503,250.2656
19:38:03:782,2.0819,-1.9698,11.5318,38.8751,-0.3811,-0.4869,0.1784,249.8594
19:38:03:805,2.6301,-2.6917,11.5234,39.6627,-0.4282,-0.2986,0.1832,249.8594
19:38:03:819,3.0048,-2.6665,10.8626,40.8964,-0.538,-0.2717,0.0937,249.5781
19:38:03:838,2.9151,-2.3194,10.6076,41.4054,-0.6597,-0.431,-0.1181,249.3438
19:38:03:858,1.785,-2.1626,11.3163,41.0982,-0.7055,-0.4217,-0.2363,248.9375
19:38:03:883,0.5951,-2.396,12.195,41.3313,-0.5715,-0.1538,-0.0981,248.8281
19:38:03:943,0.2635,-2.6091,11.6934,41.7112,-0.3457,0.0564,0.2268,248.9531
19:38:03:943,1.1122,-2.3601,10.3479,42.3034,-0.1886,-0.055,0.478,249.2031
19:38:03:943,2.4841,-2.0572,9.3615,43.1196,-0.1329,-0.3754,0.527,249.3281
19:38:03:958,3.5184,-1.7424,9.2501,43.8617,-0.1382,-0.6675,0.401,249.0781
19:38:03:979,4.0379,-1.2923,10.0486,42.2765,-0.1017,-0.582,0.16,247.9375
19:38:04:002,4.0044,-0.999,10.191,43.4247,0.0186,-0.2845,-0.1465,247.6719
19:38:04:019,3.3053,-0.6422,9.304,41.8925,0.1481,-0.0472,-0.4227,247.2969
19:38:04:038,2.4183,-0.6219,7.8579,43.9248,0.1779,0.0319,-0.6177,247.25
19:38:04:060,1.6366,-0.6841,6.8727,43.085,0.0751,0.0923,-0.7002,247.5781
19:38:04:081,1.2978,-0.5884,6.8224,45.9321,-0.0471,0.2287,-0.7135,248.1719
19:38:04:098,1.2595,-0.3765,7.148,44.8389,-0.085,0.3637,-0.7133,248.9375
19:38:04:118,1.3349,-0.1035,7.4377,44.4642,-0.0264,0.4271,-0.7138,249.3125
19:38:04:138,1.5959,0.1371,7.3264,46.0257,0.0562,0.3887,-0.7796,250.1406
19:38:04:158,1.5887,0.2161,6.8858,44.8329,0.0373,0.2385,-0.8816,250.9844
19:38:04:180,1.3349,0.1862,7.2749,43.8997,-0.0549,0.0614,-0.9303,251.8281
19:38:04:198,0.9267,0.1347,8.5354,47.4574,-0.0365,0.0028,-0.9005,252.6875
19:38:04:224,0.4203,0.4112,9.3136,46.3968,0.0956,0.0524,-0.8488,253.7188
19:38:04:238,0.2563,0.4998,9.1292,47.2984,0.1611,0.2098,-0.8091,254.7812
19:38:04:257,0.4251,0.3909,8.6815,48.6942,0.0647,0.422,-0.7913,256.75
19:38:04:286,0.5783,0.2699,8.2206,46.7243,-0.1886,0.4753,-0.831,257.6719
19:38:04:297,0.1174,-0.0509,8.7904,47.2081,-0.5473,0.3006,-0.8206,258.125
19:38:04:317,-0.6583,-0.8266,11.0601,47.845,-0.8237,0.0766,-0.6366,259.0312
19:38:04:338,-0.9803,-1.6921,14.5389,49.735,-0.7963,0.0939,-0.2792,260.0312
19:38:04:358,-0.614,-2.2523,17.0468,49.4189,-0.4253,0.2979,0.1288,260.9062
19:38:04:380,-0.3267,-1.8178,16.4028,49.9372,-0.0458,0.3293,0.4782,261.4531
19:38:04:398,0.6358,-1.1726,14.4515,49.6017,0.0517,0.213,0.5818,261.5625
19:38:04:418,1.5384,-1.1343,13.5357,50.0878,0.0876,0.0819,0.4439,261.2344
19:38:04:438,1.026,-1.5568,13.2592,50.5936,0.2897,-0.0704,0.3291,260.5938
19:38:04:459,0.1234,-2.0057,12.4057,50.3375,0.5356,-0.0824,0.3733,260.0312
19:38:04:479,0.2455,-2.3134,8.5091,51.4084,0.6549,-0.0017,0.4447,259.6094
19:38:04:498,0.2886,-2.1111,7.239,49.1,0.5473,-0.0417,0.4375,259.2188
19:38:04:518,0.0779,-2.0081,7.8375,50.865,0.2874,-0.3466,0.3608,258.7656
19:38:04:539,-0.3483,-2.2296,9.3866,50.8092,0.0711,-0.7133,0.2889,258.2344
19:38:04:563,-0.8917,-2.238,10.4532,50.2906,0.0394,-0.7865,0.3107,257.7656
19:38:04:580,-1.1,-2.0572,10.4233,50.4221,0.1824,-0.6254,0.4766,257.3906
19:38:04:599,-0.9983,-1.7591,9.1448,51.6209,0.3989,-0.3149,0.6998,257.0156
19:38:04:617,-0.5398,-1.3222,7.664,52.0776,0.5611,-0.0566,0.9382,256.5469
19:38:04:637,0.388,-1.0157,6.5207,50.1695,0.6386,0.0289,1.1312,255.8438
19:38:04:658,1.056,-0.6865,5.8887,51.319,0.6706,-0.0632,1.2077,254.9219
19:38:04:682,1.3959,-0.501,5.5678,53.3767,0.641,-0.2345,1.1632,253.7188
19:38:04:698,1.5168,-0.4519,5.4386,51.4904,0.5374,-0.3042,1.0551,252.3281
19:38:04:717,1.3457,-0.6243,5.3871,53.0114,0.3483,-0.2387,0.919,251.0156
19:38:04:737,1.0619,-0.7931,5.5152,51.0959,0.1065,-0.1373,0.8082,249.7031
19:38:04:758,1.2044,-0.8996,6.4537,52.8111,-0.1835,-0.1695,0.7448,248.5469
19:38:04:786,1.5611,-0.8577,8.3236,52.5558,-0.4764,-0.312,0.6937,247.6094
19:38:04:797,1.6246,-0.7141,11.2744,52.6333,-0.7087,-0.4289,0.6061,246.7188
19:38:04:818,1.5994,-0.7165,13.416,52.6979,-0.6583,-0.345,0.5382,245.9062
19:38:04:837,1.7802,-0.8948,13.2077,54.3456,-0.3209,-0.0646,0.5025,245.1875
19:38:04:857,2.4661,-0.9415,11.4001,54.2634,0.0194,0.16,0.5038,244.5938
19:38:04:879,3.2538,-0.7021,10.6088,53.8933,0.0914,0.1059,0.4519,243.7344
19:38:04:897,3.7087,-0.8242,11.454,55.4314,-0.0554,-0.1269,0.2684,243.1719
19:38:04:918,3.8189,-1.2396,12.7684,53.9305,-0.2471,-0.174,0.0417,242.6719
19:38:04:938,3.7171,-1.6131,12.9049,53.7735,-0.334,0.1059,-0.13,242.3594
19:38:04:961,3.34,-1.5975,12.1303,56.0797,-0.3398,0.4281,-0.2307,242.3281
19:38:04:982,2.7439,-1.3306,11.5952,54.9327,-0.3198,0.4739,-0.2962,242.4844
19:38:04:999,2.4853,-0.9762,12.1974,53.8346,-0.3092,0.2596,-0.297,242.7969
19:38:05:019,2.842,-1.4635,13.5322,56.1998,-0.2602,0.034,-0.2741,243.1562
19:38:05:040,2.5858,-1.9315,13.1455,55.7128,0.0011,0.0625,-0.277,243.5156
19:38:05:065,3.17,-2.2212,11.5916,54.421,0.3683,0.0723,-0.19,243.8281
19:38:05:083,4.2534,-2.3649,10.3,54.6329,0.5918,-0.0528,-0.1109,244.1562
19:38:05:098,4.3971,-2.147,9.1448,52.7521,0.673,-0.1929,-0.2065,244.2812
19:38:05:119,3.6333,-1.807,8.1572,54.3809,0.6381,-0.2358,-0.4185,244.4062
19:38:05:139,2.5858,-1.588,7.324,53.2562,0.5486,-0.1498,-0.599,244.5312
19:38:05:159,1.7658,-1.3354,6.3831,54.1741,0.4724,0.018,-0.6712,245.1094
19:38:05:184,1.2283,-1.0289,5.3847,53.4286,0.4059,0.173,-0.6629,245.7344
19:38:05:199,1.1697,-0.7404,4.7107,54.3596,0.22,0.2255,-0.5532,246.4688
19:38:05:218,1.4714,-0.4136,4.3612,53.6738,0.1198,0.0691,-0.5761,246.4688
19:38:05:238,1.6342,0.0138,4.579,52.7805,0.0346,-0.1149,-0.6659,247.2188
19:38:05:258,1.4354,0.3238,5.2314,54.5432,0.0154,-0.3261,-0.754,247.8594
19:38:05:284,1.2774,0.4208,6.0598,52.6262,-0.0085,-0.4704,-0.8198,249.1406
19:38:05:301,1.1565,0.4399,7.1624,51.7656,-0.0858,-0.4984,-0.8608,249.9062
19:38:05:318,0.9638,0.5668,8.8934,52.6889,-0.1364,-0.2813,-0.8779,250.7188
19:38:05:337,1.1086,0.8829,10.4293,52.1888,-0.0895,0.0918,-0.941,251.6562
19:38:05:358,1.3935,1.072,10.8925,51.4262,-0.0463,0.4505,-1.089,252.6406
19:38:05:383,1.0703,1.1247,10.2162,51.2033,-0.1995,0.699,-1.2536,253.6094
19:38:05:399,0.2,1.1474,10.1886,50.3512,-0.4762,0.7967,-1.3426,254.6875
19:38:05:417,-1.1276,0.7907,11.4229,51.7473,-0.6322,0.7531,-1.2528,257.3906
19:38:05:438,-2.5485,0.1012,13.3957,50.8179,-0.4951,0.7051,-0.8528,258.0938
19:38:05:461,-3.0429,-0.4998,14.491,51.0364,-0.1398,0.6667,-0.2155,260.3438
19:38:05:483,-1.9847,-0.7452,13.8602,51.4961,0.1718,0.5315,0.3909,260.9219
19:38:05:500,-0.5015,-0.1838,12.3159,51.6404,0.1766,0.2303,0.7656,261.5469
19:38:05:518,1.2427,0.4938,12.1902,50.1651,-0.0115,0.0018,0.8277,261.5781
19:38:05:537,2.6038,0.7093,13.3011,50.9693,-0.082,-0.0499,0.5928,261.1406
19:38:05:558,2.3788,0.088,13.6471,49.2692,0.037,-0.0347,0.3555,260.2812
19:38:05:580,1.2032,-0.8146,13.1311,50.9938,0.293,-0.0611,0.3507,259.375
19:38:05:601,0.5508,-1.3102,11.8371,50.3083,0.5382,-0.0571,0.4609,258.2812
19:38:05:626,0.4347,-1.3737,9.8343,49.1336,0.6035,-0.0867,0.5198,258.0938
19:38:05:637,0.619,-1.339,8.2637,49.5359,0.4996,-0.1655,0.4833,257.6562
19:38:05:659,0.5795,-1.3078,7.2881,49.031,0.2919,-0.3767,0.4023,257.0781
19:38:05:683,0.03,-1.1821,7.245,48.7143,0.0623,-0.6486,0.4047,256.4844
19:38:05:698,-0.1531,-1.2552,8.0315,48.7272,-0.1095,-0.8198,0.4913,256
19:38:05:723,-0.4141,-1.0074,8.9772,48.0552,-0.159,-0.7572,0.6495,255.5469
19:38:05:737,0.0121,-0.7452,9.4812,49.1956,-0.0772,-0.4534,0.7781,255.0625
19:38:05:759,0.4873,-0.7105,9.0909,47.5312,0.0589,-0.0789,0.8279,254.4219
19:38:05:786,0.5687,-0.4519,8.0422,50.165,0.1625,0.1613,0.8743,253.625
19:38:05:799,1.038,-0.3777,6.644,48.5702,0.1411,0.2497,0.8836,252.7031
19:38:05:819,1.627,0.0365,5.4122,48.5702,-0.0559,0.1932,0.7994,251.7188
19:38:05:845,1.4546,0.2041,5.6253,48.6815,-0.2309,0.1328,0.6889,250.75
19:38:05:865,1.0236,-0.0186,6.7721,49.3818,-0.1856,0.0359,0.6383,249.7812
19:38:05:883,1.2224,-0.0581,6.7482,47.859,-0.069,0.0137,0.638,248.9375
19:38:05:899,1.9286,0.2843,7.5993,47.859,-0.1534,-0.1042,0.6149,248.2344
19:38:05:919,2.7128,0.4699,9.8702,50.3782,-0.306,-0.3197,0.4649,247.5156
19:38:05:939,3.8596,0.6949,12.997,48.5705,-0.3052,-0.5554,0.2058,246.7812
19:38:06:014,3.838,0.428,13.8865,48.1781,-0.0141,-0.5524,-0.1945,246.1562
19:38:06:015,2.034,-0.2891,12.4727,48.3836,0.3278,-0.28,-0.6608,245.7812
19:38:06:015,0.5891,-0.8829,11.0182,49.0563,0.3401,0.0763,-0.8488,245.75
19:38:06:017,0.6849,-1.1295,10.7369,46.9725,0.0506,0.349,-0.7077,246.2344
19:38:06:037,1.8329,-1.3174,11.4719,49.7032,-0.2807,0.3845,-0.5031,247.0938
19:38:06:057,3.3304,-1.7556,12.086,47.8136,-0.4458,0.2721,-0.3985,248
19:38:06:083,3.8739,-1.9435,11.6024,49.3639,-0.4756,0.1094,-0.4571,248.7031
19:38:06:103,2.8564,-1.6239,11.1739,46.4554,-0.547,-0.1269,-0.6051,249.2031
19:38:06:118,1.196,-1.6526,12.1052,47.0746,-0.7942,-0.2686,-0.6893,249.6719
19:38:06:138,0.1665,-1.8537,14.1008,49.1807,-1.0815,0.0699,-0.5537,250.3125
19:38:06:159,1.0284,-2.2943,15.0979,48.4022,-1.0317,0.7373,-0.2003,251.0938
19:38:06:183,2.7618,-2.2559,12.7349,46.906,-0.3771,1.058,0.1709,251.8438
19:38:06:199,4.1361,-1.7783,9.9277,46.6169,0.3308,0.6201,0.3203,252.4688
19:38:06:217,4.3683,-1.4467,8.8682,47.9482,0.6021,-0.1671,0.1704,252.3438
19:38:06:237,3.3113,-1.4467,9.0622,48.8568,0.5273,-0.6289,-0.1545,252.0156
19:38:06:258,2.1333,-1.746,9.3172,47.3703,0.3747,-0.5264,-0.3894,251.8125
19:38:06:282,1.2128,-1.6514,8.1572,47.5093,0.3659,-0.0784,-0.4344,251.9375
19:38:06:299,0.7639,-1.1438,6.4082,46.4464,0.4037,0.3277,-0.3513,252.3281
19:38:06:318,0.7974,-0.6339,5.4278,46.3156,0.347,0.4561,-0.2421,252.8125
19:38:06:338,0.8824,-0.1826,5.2327,45.5012,0.2322,0.3605,-0.1844,253.2188
19:38:06:360,0.7411,0.0054,5.3787,46.7521,0.1499,0.2058,-0.1924,253.5
19:38:06:382,0.6154,0.0281,5.4625,46.4402,0.1217,0.0846,-0.203,253.6875
19:38:06:398,0.6765,0.2472,6.0167,44.6118,0.0844,-0.0028,-0.1596,253.7969
19:38:06:418,1.2224,0.5525,6.7015,45.8226,0.0405,-0.0398,-0.1021,254.0312
19:38:06:438,1.4259,0.8206,7.4221,43.9609,0.0298,-0.097,-0.125,254.2344
19:38:06:459,1.1218,1.0768,8.3152,45.0772,-0.0008,-0.0819,-0.2264,254.375
19:38:06:483,0.9841,1.1355,8.709,45.3204,0.017,0.0204,-0.313,254.4844
19:38:06:499,1.05,1.0912,8.2912,45.7423,0.0402,0.2172,-0.4153,254.8125
19:38:06:517,1.141,0.9308,7.5443,44.5064,-0.11,0.5911,-0.5684,255.1719
19:38:06:539,0.8237,0.7691,7.5802,45.2582,-0.4858,0.9411,-0.7476,255.6562
19:38:06:558,-0.0992,0.2963,9.1891,43.442,-0.9012,0.9592,-0.9191,256.3125
19:38:06:582,-1.2449,-0.7835,12.0047,44.6238,-1.1675,0.2455,-0.7463,257.1562
19:38:06:600,-1.5932,-1.7663,15.3745,43.8846,-0.8282,-0.0877,-0.2778,257.1562
19:38:06:618,-1.0749,-1.9004,17.2863,44.3638,-0.2961,-0.247,0.2066,258.2344
19:38:06:639,-0.3973,-1.2324,16.6769,43.6625,0.049,-0.2726,0.5427,260.1562
19:38:06:659,0.7423,-0.7452,15.2165,43.4313,0.0791,-0.1636,0.6103,260.4531
19:38:06:682,1.5145,-0.5728,14.3067,41.8943,0.0083,-0.0417,0.4372,260.1875
19:38:06:699,1.2942,-0.8733,14.3569,41.938,0.2136,0.0193,0.2505,259.5938
19:38:06:718,0.5963,-1.5676,13.4424,43.4977,0.6485,0.0148,0.1677,258.875
19:38:06:737,-0.1471,-2.2344,10.9871,42.0937,0.9649,-0.1402,0.1885,258.375
19:38:06:758,-0.4476,-2.5768,8.6408,43.83,0.9835,-0.3208,0.2149,257.9219
19:38:06:781,-0.6703,-2.7946,7.0941,43.1345,0.7609,-0.496,0.2391,257.7031
19:38:06:799,-1.1324,-2.7228,6.6333,42.8908,0.4338,-0.6086,0.3541,257.5781
19:38:06:818,-1.0581,-2.3397,7.3264,42.5688,0.1816,-0.618,0.5129,257.3125
19:38:06:842,0.066,-1.7591,8.557,41.4276,0.1025,-0.3477,0.5049,256.9844
19:38:06:856,1.4259,-0.7296,9.6428,41.9116,0.1747,0.3925,0.3113,256.75
19:38:06:877,2.9055,0.1407,9.3997,41.7523,0.3457,1.372,-0.1031,256.1406
19:38:06:899,2.5811,0.1526,6.9613,40.6194,0.4559,1.871,-0.4773,255.5938
19:38:06:916,1.4785,-0.2855,4.1038,40.1993,0.3103,1.5256,-0.5695,255.2344
19:38:06:937,0.6418,-0.501,2.8157,41.0094,-0.1308,0.5957,-0.533,255.375
19:38:06:957,-0.7696,-0.6327,4.5946,41.1281,-0.5246,-0.3069,-0.3311,255.9531
19:38:06:985,-1.6148,-1.1295,8.9113,40.4961,-0.4242,-0.6694,0.0694,256.5938
19:38:07:002,-0.9133,-1.2971,11.758,39.8988,0.1225,-0.5306,0.4071,257.2031
19:38:07:021,0.1019,-0.7596,10.6232,41.3478,0.4538,-0.2454,0.5166,257.5625
19:38:07:037,0.9339,0.0796,8.6599,39.8128,0.3627,-0.1623,0.4055,257.4688
19:38:07:057,1.2583,0.3334,8.3295,39.9388,0.1563,-0.1618,0.2005,256.6875
19:38:07:085,0.698,0.2125,8.7856,39.2975,0.0479,-0.1551,0.0939,256.1406
19:38:07:100,0.3209,-0.0317,9.1208,39.8988,0.0173,-0.1836,0.0918,255.8281
19:38:07:117,0.461,-0.1299,9.067,39.5564,-0.0631,-0.3543,0.0854,255.6719
19:38:07:137,0.8333,-0.2879,9.4034,38.7765,-0.2248,-0.5764,0.0292,255.5781
19:38:07:159,1.1254,-0.7344,10.4879,40.522,-0.379,-0.675,-0.0278,255.4688
19:38:07:182,1.372,-1.3593,11.7688,39.5588,-0.4325,-0.6054,-0.0102,255.3906
19:38:07:201,2.095,-1.977,12.4775,39.3422,-0.4048,-0.4715,0.0148,255.3906
19:38:07:217,2.6984,-2.0213,11.9771,39.9976,-0.4506,-0.4206,-0.0491,255.4062
19:38:07:237,2.5464,-2.0285,11.4947,38.9964,-0.5795,-0.455,-0.15,255.3906
19:38:07:257,1.8616,-2.1278,11.3391,38.0395,-0.7326,-0.5064,-0.1796,255.3906
19:38:07:282,0.6968,-2.4068,12.9168,39.4869,-0.8181,-0.5144,-0.0896,255.5156
19:38:07:300,0.6322,-2.3577,13.5537,38.921,-0.6975,-0.4281,0.09,255.7031
19:38:07:318,1.2882,-2.1482,12.9851,39.3477,-0.3995,-0.252,0.3043,255.875
19:38:07:337,2.696,-1.9507,11.7329,40.4097,-0.094,-0.0337,0.4761,255.875
19:38:07:358,3.6058,-1.7532,9.7888,40.0943,0.1893,-0.0001,0.4716,255.6562
19:38:07:383,3.6525,-1.631,8.1787,39.4779,0.2916,-0.1357,0.2836,255.2031
19:38:07:402,3.2083,-1.582,7.3695,41.4391,0.1422,-0.2249,0.0532,254.625
19:38:07:417,2.3859,-1.4706,6.82,40.4635,-0.1097,-0.1889,-0.1604,254.1719
19:38:07:442,1.8903,-1.2348,6.9254,39.9464,-0.3758,-0.0741,-0.3034,253.9688
19:38:07:456,1.7575,-0.9882,7.6029,40.682,-0.5574,0.0516,-0.3838,254.0312
19:38:07:481,1.1996,-0.7177,7.713,40.6295,-0.5412,0.19,-0.4722,254.3125
19:38:07:499,0.3006,-0.5932,7.0678,39.5489,-0.3641,0.2489,-0.5394,254.7031
19:38:07:517,0.0001,-0.5106,6.4585,40.8887,-0.1803,0.1882,-0.4808,255.2188
19:38:07:537,0.2156,-0.2364,6.3304,41.7858,-0.081,0.013,-0.345,255.8438
19:38:07:558,0.6705,0.0593,6.8787,40.4886,-0.1015,-0.1066,-0.2371,256.4844
19:38:07:582,1.2104,0.3849,8.0578,38.2778,-0.1585,-0.1429,-0.1814,256.9375
19:38:07:601,1.4235,0.5836,9.055,40.7998,-0.1174,-0.1168,-0.2254,257.2656
19:38:07:617,1.4582,0.7392,9.5697,40.5636,0.0027,-0.0409,-0.3117,257.5
19:38:07:637,1.4534,0.677,9.7062,39.6345,0.1204,0.0662,-0.3977,257.7031
19:38:07:657,1.1206,0.4016,9.8056,41.7261,0.1814,0.1522,-0.4914,258.1875
19:38:07:683,1.0859,0.1622,10.1731,42.5565,0.1497,0.2295,-0.4951,258.6406
19:38:07:700,0.9255,0.149,11.4432,42.1096,0.0336,0.2313,-0.4336,259.1875
19:38:07:718,0.6597,-0.185,12.9252,41.3628,0.0216,0.1203,-0.3268,259.7656
19:38:07:739,0.2264,-1.0385,14.4862,40.3449,0.233,-0.1924,-0.1825,260.2812
19:38:07:757,1.1158,-1.9495,14.7556,42.9828,0.6448,-0.5567,0.1046,260.6406
19:38:07:783,1.7862,-1.7579,12.9611,43.362,1.0115,-0.5431,0.3488,260.8281
19:38:07:799,1.8496,-0.9499,11.1954,43.097,0.947,-0.2305,0.3904,260.6406
19:38:07:817,2.1369,-0.8278,11.1691,42.0179,0.3904,0.2337,0.3211,260.1406
19:38:07:837,1.9765,-0.89,12.7073,44.3997,-0.2565,0.6987,0.2197,259.6562
19:38:07:857,1.7299,-0.8864,14.0194,44.0697,-0.4421,0.7725,0.1896,259.2812
19:38:07:883,1.1541,-1.1426,13.7309,43.3156,-0.0479,0.4305,0.2093,259.1562
19:38:07:900,0.3844,-1.4766,11.2098,43.7527,0.608,0.0478,0.2535,259
19:38:07:918,0.2467,-1.6741,8.4397,43.702,1.0285,-0.0936,0.3765,258.8281
19:38:07:938,0.4873,-1.6993,6.3891,44.7422,1.081,-0.1263,0.4812,258.5625
19:38:07:957,0.8225,-1.412,5.5224,44.7422,0.8376,-0.1724,0.5075,257.9531
19:38:07:983,1.4678,-1.2803,5.8468,44.5885,0.0495,-0.463,0.3552,257.3594
19:38:07:999,1.6761,-1.1247,6.8092,44.1098,-0.2565,-0.6704,0.2173,256.75
19:38:08:088,1.7215,-0.9212,8.3092,44.1098,-0.4887,-0.7362,0.1352,256.1875
19:38:08:088,1.7251,-0.7548,10.5214,45.2401,-0.4788,-0.3935,0.0916,255.7969
19:38:08:089,1.2403,-0.6446,11.5342,44.2252,-0.1422,0.1208,0.103,255.5625
19:38:08:089,0.6741,-0.7224,9.9947,43.3447,0.2392,0.4481,0.2447,255.3438
19:38:08:105,0.6023,-0.6267,7.2522,46.2686,0.3915,0.3011,0.4306,255.3438
19:38:08:120,1.0667,-0.3717,5.5954,46.5489,0.3089,-0.1556,0.5414,255.2344
19:38:08:143,1.36,0.1754,5.812,44.9005,0.1481,-0.55,0.5685,254.4688
19:38:08:155,1.6306,0.4124,7.4892,48.3718,0.1196,-0.5029,0.5312,254.4688
19:38:08:177,1.7395,0.2065,8.1883,46.2711,0.1457,-0.1764,0.4796,253.8281
19:38:08:203,1.6509,0.2496,7.8687,46.6995,0.0938,0.0279,0.4439,253.1719
19:38:08:222,1.7215,0.4375,7.6209,46.5205,-0.0623,-0.0222,0.3904,252.2812
19:38:08:236,1.9215,0.4495,8.6121,46.8218,-0.2093,-0.1133,0.3217,251.75
19:38:08:256,2.0196,0.489,10.3981,46.9943,-0.1486,-0.1194,0.2271,251.2656
19:38:08:277,1.8041,0.1957,11.2038,48.4384,0.0101,-0.0709,0.1637,250.8594
19:38:08:299,1.5324,-0.4184,11.1308,48.1281,0.1116,-0.0704,0.2292,250.5781
19:38:08:317,2.1597,-0.9415,10.8243,45.737,0.1145,-0.2305,0.3059,250.375
19:38:08:343,3.2862,-1.2264,10.7214,47.2784,-0.0285,-0.4254,0.2873,250.2812
19:38:08:355,4.1301,-1.5461,11.6048,47.8344,-0.1838,-0.3484,0.1922,250.0156
19:38:08:376,4.5754,-1.9196,12.2513,47.5283,-0.2032,-0.0888,0.0756,249.6562
19:38:08:398,5.0986,-1.995,11.0721,47.7035,-0.2048,-0.1234,-0.0933,249.3125
19:38:08:419,4.9693,-1.582,9.9397,48.272,-0.2922,-0.5634,-0.3125,249.1094
19:38:08:436,4.2726,-1.3473,10.7968,48.5665,-0.4296,-0.9056,-0.4613,249.0469
19:38:08:457,3.6716,-1.8465,13.1826,48.1544,-0.433,-0.5759,-0.4541,249.1719
19:38:08:477,3.5435,-2.0895,14.6598,48.9188,-0.1174,0.116,-0.3484,249.5312
19:38:08:499,4.3995,-2.2272,12.8594,48.7854,0.2146,0.4505,-0.3228,250.3281
19:38:08:516,5.2135,-1.9662,10.2617,49.4254,0.3148,0.2649,-0.4733,250.8125
19:38:08:536,5.3428,-1.8382,8.9245,47.8125,0.2677,0.0074,-0.7513,251.1875
19:38:08:557,4.3444,-1.7591,8.308,49.5236,0.1779,-0.0435,-0.9894,251.5781
19:38:08:582,2.8384,-1.831,7.6101,48.6592,0.0666,0.0617,-1.0712,252.25
19:38:08:600,1.5947,-1.734,6.8152,50.9765,-0.0626,0.2135,-1.002,253.2344
19:38:08:617,0.8333,-1.3006,6.1796,50.6175,-0.2104,0.3099,-0.8496,254.375
19:38:08:636,0.6968,-0.7679,6.146,48.9725,-0.2977,0.3024,-0.7082,255.5781
19:38:08:658,0.9135,-0.3047,6.5554,49.5846,-0.2341,0.1858,-0.6446,256.6562
19:38:08:682,0.9398,0.2688,6.6548,48.7307,-0.0977,0.0721,-0.6392,257.5781
19:38:08:699,0.7567,0.6028,6.4693,50.1847,-0.0277,0.0316,-0.6283,258.3281
19:38:08:716,0.8237,1.3222,6.9026,51.7578,-0.0836,0.0489,-0.5732,259.0781
19:38:08:737,1.785,2.3505,7.9776,51.1027,-0.1571,0.0548,-0.4525,259.8125
19:38:08:757,3.8225,3.2148,9.067,51.0484,-0.1063,-0.0936,-0.3223,260.4844
19:38:08:777,4.8185,3.6374,9.9073,50.2963,0.0621,-0.3303,-0.4797,261.0938
19:38:08:799,4.0499,3.1633,10.1623,51.9478,0.2141,-0.4089,-0.9298,261.5312
19:38:08:818,2.0879,1.989,10.4376,48.9521,0.2085,-0.2646,-1.3783,261.9062
19:38:08:835,0.5795,0.8134,10.95,50.5018,0.0258,0.1032,-1.5341,262.6719
19:38:08:859,-0.1591,0.2711,11.8191,52.1787,-0.2234,0.5509,-1.3522,263.9844
19:38:08:885,0.2048,-0.1107,13.2568,51.8437,-0.3883,0.7839,-0.9961,265.7031
19:38:08:902,1.0739,-0.6063,14.1295,51.8172,-0.3212,0.8194,-0.6283,267.3125
19:38:08:920,0.9781,-1.0325,13.0258,52.0898,-0.0466,0.8273,-0.428,268.7031
19:38:08:936,0.03,-1.1953,11.3881,51.3448,0.1832,0.7293,-0.317,269.6562
19:38:08:957,-0.219,-1.2109,11.1571,52.8172,0.13,0.5693,-0.1181,270.2344
19:38:08:976,-0.122,-1.2228,11.5545,53.3574,-0.0293,0.5118,0.0862,270.6719
19:38:08:997,-0.3578,-1.1941,12.1555,52.2418,-0.0991,0.4753,0.2109,270.9219
19:38:09:015,-0.1783,-1.3725,12.681,54.4266,-0.037,0.3919,0.3597,270.875
19:38:09:036,-0.0478,-1.6478,11.7389,52.7001,0.2088,0.3877,0.5115,270.6406
19:38:09:057,0.2551,-1.8477,9.699,52.6743,0.5036,0.3735,0.6447,270.2344
19:38:09:085,0.9015,-2.1374,7.9201,52.4829,0.6101,0.1432,0.7648,269.6406
19:38:09:101,1.3852,-1.7615,7.5646,52.3103,0.425,-0.2433,0.8506,268.9375
19:38:09:119,1.7395,-1.0612,9.1927,52.2414,0.0647,-0.6081,0.8828,268.0312
19:38:09:136,2.1513,-0.987,10.4664,53.6293,-0.1204,-0.6611,0.8575,267.0469
19:38:09:157,1.5276,-1.0553,9.2812,52.3598,0.0575,-0.4196,0.7773,266.0938
19:38:09:184,0.8716,-0.841,7.3204,52.9088,0.2847,-0.1317,0.8146,265.1094
19:38:09:199,1.4534,-0.592,5.8587,53.3801,0.3268,0.0263,1.0101,264.2188
19:38:09:219,2.3392,-0.015,5.2159,53.2911,0.1832,0.0428,1.1371,263.3281
19:38:09:236,2.9797,0.5824,6.2717,52.38,-0.1252,-0.0089,1.1131,262.7656
19:38:09:256,2.7439,0.7895,7.8423,53.1528,-0.3571,0.0236,0.9568,261.5
19:38:09:277,2.2291,0.574,8.0674,51.6185,-0.2701,0.1397,0.7776,260.1875
19:38:09:300,1.8365,0.4375,6.838,53.4377,-0.0213,0.21,0.698,259.0625
19:38:09:317,1.9693,0.7404,6.7254,52.7708,0.0298,0.1019,0.7249,257.6719
19:38:09:336,2.6625,0.9547,7.7478,53.6279,-0.0607,-0.1466,0.7363,256.875
19:38:09:360,3.0826,1.1271,9.2681,54.4877,-0.1446,-0.3929,0.6162,256.0938
19:38:09:383,2.8313,1.0756,10.7764,54.3635,-0.1438,-0.2518,0.2042,255.25
19:38:09:401,2.374,0.7129,11.4408,53.0276,-0.0418,-0.0235,0.0663,254.5469
19:38:09:417,2.1968,0.2676,11.0577,54.2789,-0.0312,0.001,-0.0086,254.1094
19:38:09:438,2.3273,-0.1502,10.9979,53.4751,-0.1249,-0.1229,-0.0634,253.8125
19:38:09:456,2.465,-0.5201,11.9412,53.7955,-0.1683,-0.1812,-0.1082,253.8125
19:38:09:478,2.684,-1.1271,12.9144,53.2672,-0.0711,-0.0334,-0.1058,253.8281
19:38:09:501,3.0455,-1.7244,12.1962,53.5697,0.0069,0.1288,-0.073,253.8906
19:38:09:519,3.4945,-1.7017,10.7249,53.3417,-0.037,0.0108,-0.0949,254.0312
19:38:09:535,4.1756,-1.6155,9.7553,52.2732,-0.1952,-0.3964,-0.2504,254.1562
19:38:09:557,4.6616,-1.4192,10.0438,54.5047,-0.4061,-0.8198,-0.4805,254.3438
19:38:09:584,4.3815,-1.6119,11.8335,52.7935,-0.526,-0.8273,-0.6728,254.3438
19:38:09:602,3.3532,-2.2919,13.9595,51.2125,-0.3457,-0.1487,-0.664,254.8906
19:38:09:617,2.7295,-2.6043,13.2975,53.8305,0.0554,0.5775,-0.5026,255.5469
19:38:09:642,2.8923,-2.4128,9.7876,52.7526,0.2895,0.6383,-0.3926,256.375
19:38:09:655,3.2443,-2.0979,6.7865,53.7276,0.2104,0.0872,-0.3766,257.0781
19:38:09:677,3.6249,-1.728,5.9521,52.8013,-0.089,-0.4622,-0.4672,257.5469
19:38:09:707,3.3628,-1.1905,7.2162,52.7963,-0.343,-0.5559,-0.6046,257.9688
19:38:09:725,2.4446,-0.975,8.6623,53.5254,-0.3705,-0.1724,-0.6845,258.4219
19:38:09:736,1.2511,-0.7452,8.4026,53.5907,-0.306,0.3008,-0.6174,258.7031
19:38:09:756,0.7375,-0.3382,7.1708,53.6136,-0.2479,0.5064,-0.4731,259.375
19:38:09:778,0.8453,0.1538,6.2202,51.8706,-0.1947,0.3552,-0.3663,260.2031
19:38:09:800,0.9291,0.568,6.0299,52.5938,-0.1388,0.0311,-0.3013,260.9375
19:38:09:817,1.0775,0.8158,6.583,50.6807,-0.0876,-0.1309,-0.2656,261.4844
19:38:09:835,1.275,0.9571,7.0714,52.76,-0.1071,-0.1234,-0.2496,261.9375
19:38:09:857,1.5779,1.0265,7.7513,51.7908,-0.2096,-0.0052,-0.2786,262.2969
19:38:09:876,1.6509,1.2348,8.7413,52.1441,-0.2921,0.1757,-0.309,262.5938
19:38:09:900,1.6282,1.2995,9.6212,51.0212,-0.3015,0.3086,-0.3327,263.0312
19:38:09:919,1.5839,1.2791,10.2305,50.4684,-0.2666,0.3269,-0.346,263.3906
19:38:09:935,0.9829,1.0289,10.9608,52.263,-0.2301,0.2026,-0.2595,263.7969
19:38:09:956,0.2108,0.5465,12.6128,51.1796,-0.0575,0.0822,0.0199,264.2031
19:38:09:977,0.4873,0.0317,14.4252,50.3884,0.395,0.0161,0.3784,264.6094
19:38:09:999,1.6437,-0.2185,14.2277,50.727,0.8381,0.0401,0.5526,264.7812
19:38:10:016,2.1621,-0.088,12.5338,50.6044,0.942,0.1333,0.5049,264.5625
19:38:10:035,2.0843,-0.3729,10.7082,49.0617,0.6567,0.3035,0.3539,263.9531
19:38:10:056,1.6377,-0.8242,9.8906,51.132,0.1412,0.5237,0.2702,263.25
19:38:10:076,1.7503,-1.1271,11.4001,48.255,-0.3633,0.5565,0.2889,262.7344
19:38:10:099,1.5408,-1.3964,13.6949,48.4667,-0.6599,0.3589,0.2612,262.375
19:38:10:162,0.479,-2.1614,15.493,48.4667,-0.5297,0.0492,0.205,262.0781
19:38:10:163,0.4969,-2.712,13.4244,50.0519,0.0727,0.0034,0.3885,261.7812
19:38:10:163,1.3313,-2.2883,9.2824,48.9492,0.6112,0.2433,0.7001,261.5781
19:38:10:177,2.6876,-1.5604,6.577,47.3734,0.6655,0.2284,0.8945,261.2969
19:38:10:202,3.0623,-0.9619,6.4226,48.4689,0.339,-0.1263,0.7976,260.2031
19:38:10:218,2.6696,-0.8924,7.8507,46.3082,-0.0455,-0.4875,0.5406,259.7344
19:38:10:235,1.9885,-0.9283,8.7581,47.2123,-0.2386,-0.5652,0.3525,258.7031
19:38:10:255,1.0548,-0.6087,8.7186,46.2639,-0.241,-0.3865,0.2894,257.9219
19:38:10:275,0.5999,-0.1861,7.968,46.3816,-0.1212,-0.1729,0.3475,257.4531
19:38:10:302,0.868,0.0928,6.7446,46.038,0.0346,-0.0696,0.4633,257.1094
19:38:10:321,1.4522,0.4459,5.6708,45.9994,0.1425,-0.1402,0.5371,256.7656
19:38:10:335,1.8784,0.6458,6.1029,45.2877,0.0751,-0.4089,0.5011,256.2969
19:38:10:355,1.8437,0.4914,7.8507,43.7153,-0.1055,-0.6118,0.384,255.7344
19:38:10:375,1.4977,0.149,9.5602,45.1314,-0.1976,-0.5317,0.2814,255.1094
19:38:10:400,1.2152,0.0509,10.0031,43.6323,-0.1047,-0.1897,0.2708,254.5781
19:38:10:417,1.5049,0.1466,9.1915,44.7058,0.0695,0.1935,0.3326,254.2344
19:38:10:434,2.1824,0.3657,8.5941,43.9418,0.1507,0.3581,0.3581,253.9219
19:38:10:457,2.3584,0.4747,8.8144,41.8935,0.0895,0.3051,0.2686,253.5938
19:38:10:475,1.937,0.1586,9.7828,43.8792,-0.0104,0.1469,0.1059,253.1719
19:38:10:500,1.3935,-0.2747,10.8111,42.8911,-0.0434,-0.0179,0.0063,252.7031
19:38:10:516,1.1398,-0.7272,11.7784,42.0313,-0.0085,-0.0901,0.0239,252.5781
19:38:10:543,1.5216,-1.3234,12.4943,41.9458,0.0884,-0.1516,0.1262,252.5781
19:38:10:554,2.3105,-1.6801,12.4416,41.5989,0.2133,-0.1738,0.2721,252.5469
19:38:10:575,2.8229,-1.5796,12.1184,41.4361,0.2866,-0.1583,0.3824,252.3906
19:38:10:599,3.2251,-1.716,11.6288,42.2356,0.3052,-0.1152,0.4218,252.0625
19:38:10:617,3.4478,-1.6933,10.2018,41.4161,0.3372,-0.0283,0.4231,251.6094
19:38:10:634,3.4645,-1.4048,9.0741,41.036,0.2453,0.026,0.3786,251.1094
19:38:10:655,3.4789,-1.2731,8.9449,41.8654,0.0037,-0.0262,0.2886,250.5938
19:38:10:675,3.4573,-1.1893,9.7984,43.3288,-0.2346,-0.1452,0.1714,250.1719
19:38:10:700,3.3616,-1.4371,11.0793,41.1802,-0.3553,-0.2515,0.0441,249.8438
19:38:10:719,3.5256,-1.795,11.266,42.0795,-0.2637,-0.2041,-0.04,249.6562
19:38:10:736,4.2199,-1.8274,9.8535,41.0575,-0.0535,-0.0544,-0.0744,249.625
19:38:10:756,4.9262,-1.8202,8.5055,42.033,0.0392,-0.092,-0.1844,249.6875
19:38:10:776,4.8125,-2.0788,8.6109,41.8347,-0.3979,-0.3631,-0.7279,249.7812
19:38:10:801,3.6489,-2.384,9.2753,42.1407,-0.5587,-0.0648,-0.893,249.8594
19:38:10:819,2.1573,-2.3122,8.9185,42.0936,-0.641,0.3397,-0.8786,249.8594
19:38:10:835,1.1086,-1.9842,8.205,41.5575,-0.6722,0.5778,-0.7298,250.4688
19:38:10:855,0.7579,-1.2683,7.6975,41.7541,-0.6269,0.5384,-0.5665,252.4062
19:38:10:875,0.7639,-0.4591,7.7238,41.8694,-0.5105,0.3738,-0.472,252.4062
19:38:10:901,0.6573,0.1335,8.1201,41.2857,-0.2922,0.2327,-0.4073,253.4219
19:38:10:918,0.5113,0.2436,8.0638,43.3347,-0.0179,0.144,-0.3292,255.0781
19:38:10:934,0.4071,0.2137,7.33,42.1549,0.1417,0.0974,-0.2307,255.6719
19:38:10:954,0.5448,0.3753,6.838,40.5236,0.1611,0.0915,-0.1511,256.1562
19:38:10:974,1.1577,0.7751,7.0391,42.0313,0.0876,0.0316,-0.1678,256.5312
19:38:10:994,1.7072,0.8745,7.8866,40.5482,-0.0016,0.0343,-0.2656,256.7969
19:38:11:019,1.8197,0.8853,8.7066,42.1086,-0.0714,0.0984,-0.3671,256.9531
19:38:11:035,1.9215,0.9535,9.6535,41.7261,-0.078,0.1877,-0.4821,257.1406
19:38:11:054,2.1166,0.7871,10.1719,42.6624,-0.0804,0.2452,-0.6246,257.8594
19:38:11:077,2.0136,0.3933,10.5047,43.2008,-0.1398,0.2609,-0.7641,258.1094
19:38:11:101,1.0069,0.0006,11.3774,42.4027,-0.1742,0.2691,-0.7977,258.7656
19:38:11:119,-0.4368,-0.6135,12.7373,41.3885,-0.0621,0.258,-0.5889,259.5781
19:38:11:134,-0.9085,-1.2899,13.9451,43.0114,0.2397,0.2827,-0.2121,260.4844
19:38:11:154,-0.6798,-1.6658,13.489,41.7041,0.4858,0.2894,0.2058,261.3438
19:38:11:175,0.1905,-1.7041,12.0896,43.1149,0.4133,0.1898,0.5217,261.8125
19:38:11:201,0.9841,-1.2971,11.8957,42.1844,0.1292,-0.039,0.699,261.8125
19:38:11:218,1.9969,-0.9415,13.9152,44.2304,0.024,-0.1738,0.6516,261.375
19:38:11:235,1.9191,-1.4192,15.9623,41.8058,0.3619,-0.1407,0.5592,260.6562
19:38:11:255,0.4658,-2.3589,15.1159,42.927,0.8466,0.0428,0.7427,260.2344
19:38:11:275,-0.1471,-2.554,12.0453,44.2516,1.0549,0.2401,1.0671,259.5156
19:38:11:301,0.7411,-2.3768,9.0394,43.8347,0.9619,0.3019,1.2029,258.8438
19:38:11:318,1.4809,-1.9399,6.9241,44.4233,0.6836,0.047,1.095,257.9531
19:38:11:337,1.6653,-1.7256,6.1436,42.8562,0.3404,-0.4233,0.8897,256.6875
19:38:11:354,1.4821,-1.8597,6.7506,44.5413,0.0168,-0.7591,0.7462,255.3438
19:38:11:375,1.1553,-1.5772,7.9118,43.7497,-0.2181,-0.8169,0.7083,253.5
19:38:11:399,0.9434,-1.2049,9.1388,44.2565,-0.3127,-0.6792,0.7502,252.5781
19:38:11:416,0.8776,-0.9152,10.1491,44.8891,-0.1896,-0.4158,0.8255,251.8125
19:38:11:435,0.8141,-0.7189,10.3479,44.8807,0.1345,-0.133,0.9105,251
19:38:11:455,0.6956,-0.659,9.0682,43.294,0.4716,0.0641,1.0378,250.1094
19:38:11:476,1.785,-0.3262,5.4697,45.042,0.6378,0.0681,1.1331,249.1719
19:38:11:501,2.2124,0.0066,4.7993,44.9998,0.5782,-0.1003,1.1126,248.0312
19:38:11:517,2.2195,0.1646,5.9509,45.5696,0.3129,-0.312,1.0085,246.7344
19:38:11:535,2.1537,-0.0497,7.8292,45.2032,0.0719,-0.4129,0.9059,245.4531
19:38:11:554,2.1788,-0.24,8.818,46.3962,0.0698,-0.3386,0.8474,244.1875
19:38:11:575,2.508,-0.149,8.6312,44.4342,0.187,-0.1879,0.8442,243.0781
19:38:11:594,3.0372,0.2185,8.5127,44.9447,0.2163,-0.0909,0.825,242.0938
19:38:11:616,3.2335,0.5058,8.7809,46.3218,0.1446,-0.0986,0.7163,241.1562
19:38:11:635,2.8803,0.3573,9.0837,47.9312,0.0583,-0.1263,0.5374,240.1719
19:38:11:664,2.787,-0.1119,9.7601,45.4042,-0.0437,-0.2113,0.4117,238.9062
19:38:11:673,3.0288,-0.6015,10.9296,46.2054,-0.1454,-0.357,0.3904,238.2969
19:38:11:696,3.3316,-0.8757,12.1687,45.9173,-0.1907,-0.4715,0.4165,237.8281
19:38:11:717,3.7243,-1.0121,12.8175,44.6947,-0.1587,-0.4299,0.4479,237.6094
19:38:11:734,4.415,-1.2803,11.8179,46.5229,-0.0429,-0.2057,0.4628,237.1875
19:38:11:754,4.7478,-1.3605,10.2138,45.2591,0.0048,-0.0448,0.3994,236.7188
19:38:11:775,4.7167,-1.2923,9.2381,45.4466,-0.1396,-0.125,0.2452,236.2031
19:38:11:801,4.421,-1.1989,9.7625,46.0903,-0.4565,-0.4022,0.0423,235.6875
19:38:11:821,3.4418,-1.4623,12.5338,46.135,-0.8538,-0.6955,-0.1742,235.3438
19:38:11:837,2.0914,-1.8489,15.086,45.5635,-0.943,-0.5333,-0.2366,235.1875
19:38:11:854,1.6976,-2.1338,14.1247,46.805,-0.4796,0.0367,-0.0816,235.3594
19:38:11:874,2.3237,-2.0189,9.808,47.1069,0.2463,0.5435,0.1866,235.7031
19:38:11:893,3.5471,-1.4706,6.2203,46.9732,0.6725,0.3762,0.3826,236.0156
19:38:11:916,4.591,-0.7081,5.3488,46.0347,0.6051,-0.3676,0.3568,235.8281
19:38:11:936,4.5503,-0.4806,7.3156,45.4197,0.183,-1.1115,0.0617,235.3438
19:38:11:959,3.6824,-0.7955,9.7337,46.6919,-0.2059,-1.2872,-0.3071,234.7188
19:38:11:984,2.2674,-0.9499,10.7357,45.4736,-0.1952,-0.006,-0.5995,235.0469
19:38:11:998,1.0739,-0.8218,9.2226,46.3845,-0.1292,0.6811,-0.4771,235.7188
19:38:12:018,0.8836,-0.5441,7.1648,46.3133,-0.2386,0.9823,-0.3263,236.4375
19:38:12:036,1.4223,0.0605,6.4142,48.1065,-0.4408,1.1262,-0.3109,237.0156
19:38:12:056,1.8784,0.331,6.6488,48.5465,-0.5617,1.1648,-0.415,237.4375
19:38:12:076,1.6964,0.2652,7.33,47.3605,-0.469,1.0135,-0.5039,237.8906
19:38:12:102,0.9997,0.0521,7.7609,47.1552,-0.2168,0.7158,-0.4864,238.4688
19:38:12:119,0.4263,-0.2065,7.7178,47.9388,-0.0179,0.43,-0.3548,239.1094
19:38:12:135,0.4167,-0.1634,7.804,46.7251,0.0477,0.2439,-0.2113,239.7188
19:38:12:155,0.9075,0.1359,8.3092,47.2004,0.0296,0.145,-0.1481,240.1406
19:38:12:229,1.633,0.4567,9.3076,44.9501,-0.0234,0.2004,-0.2232,240.1406
19:38:12:230,1.7395,0.5668,10.276,48.6593,-0.0759,0.3967,-0.3468,240.375
19:38:12:230,1.1888,0.3861,11.1427,45.277,-0.0589,0.7134,-0.3979,240.5469
19:38:12:234,0.139,0.0377,11.2325,45.277,0.0304,0.9,-0.2935,240.8125
19:38:12:255,-0.6248,-0.0174,10.9895,47.8713,0.1427,0.8313,-0.0592,241.2344
19:38:12:275,-0.7948,0.0305,10.8351,48.8316,0.2362,0.5102,0.1853,242.0625
19:38:12:301,-0.5027,-0.2987,11.2505,48.6874,0.3278,0.218,0.421,242.0625
19:38:12:318,0.2252,-0.4914,11.2792,47.4685,0.3204,0.055,0.564,242.1562
19:38:12:335,0.7794,-0.3202,11.1739,48.8454,0.1172,-0.0334,0.5989,241.9688
19:38:12:353,1.3481,-0.0652,12.1088,48.179,-0.172,0.0609,0.5238,241.4688
19:38:12:373,1.7359,-0.1371,13.2424,48.7421,-0.4192,0.3304,0.3315,240.8125
19:38:12:393,0.7327,-0.5992,13.6938,48.834,-0.6341,0.4415,0.2639,240.125
19:38:12:416,-0.9312,-1.2947,15.4798,49.4661,-0.5071,0.4564,0.5089,239.5625
19:38:12:438,-1.1886,-2.0608,16.7954,48.4665,0.1294,0.6225,0.8708,239.2188
19:38:12:452,-0.6978,-2.1805,14.5964,48.4306,0.7984,0.7198,1.0852,238.4375
19:38:12:477,-0.5601,-2.0572,10.47,49.9692,1.0527,0.5307,1.1459,238
19:38:12:493,-0.6703,-2.1638,7.6735,49.6726,0.9609,0.1818,1.181,236.875
19:38:12:516,-0.9372,-2.1039,6.4357,50.8237,0.7049,-0.1032,1.2649,235.5781
19:38:12:536,-0.8474,-1.6454,6.2394,51.0914,0.3819,-0.2188,1.384,234.3125
19:38:12:554,-0.0717,-1.1139,6.9397,50.7135,0.1822,-0.2417,1.3978,232.9219
19:38:12:576,0.6346,-0.8769,7.312,50.4787,0.1313,-0.3141,1.3115,231.3906
19:38:12:602,0.9614,-0.6985,7.5885,50.0894,0.1609,-0.3221,1.2287,229.8594
19:38:12:620,1.2726,-0.6734,7.5455,52.243,0.2594,-0.2608,1.1376,228.2969
19:38:12:635,1.3756,-0.8146,7.0929,50.856,0.3358,-0.1426,1.0727,227.5469
19:38:12:654,1.0129,-0.9571,6.3687,54.307,0.2935,0.0015,1.0846,226.1406
19:38:12:674,0.9386,-0.975,5.8479,52.1438,0.1542,-0.0001,1.1323,224.8906
19:38:12:694,1.2343,-0.9607,5.9988,52.1671,0.0165,-0.1399,1.1483,223.6562
19:38:12:718,1.4785,-0.7859,6.9397,53.4659,-0.028,-0.3029,1.1227,222.4062
19:38:12:737,1.8293,-0.6255,7.8196,52.1594,0.0013,-0.4182,1.0332,221.1719
19:38:12:755,2.1633,-0.4016,8.4576,51.7378,-0.0144,-0.4323,0.8812,219.8594
19:38:12:774,2.1681,-0.3454,9.0263,52.9406,-0.11,-0.3658,0.7307,217.9688
19:38:12:796,1.8987,-0.3011,9.8451,54.1983,-0.2405,-0.2014,0.6303,216.9219
19:38:12:819,1.694,-0.2556,10.8375,52.8359,-0.2799,0.0111,0.5587,216.0156
19:38:12:837,1.8018,-0.2855,11.1415,54.964,-0.2575,0.1123,0.4647,215.25
19:38:12:854,2.0591,-0.4052,10.9656,53.3397,-0.286,0.0388,0.3469,214.5781
19:38:12:874,1.8951,-1.3198,12.2117,51.9313,-0.3681,-0.1181,0.2697,214.0312
19:38:12:894,2.4159,-2.1015,12.5098,54.3142,-0.3619,-0.1596,0.3059,213.5781
19:38:12:919,3.0431,-2.0979,11.776,53.5506,-0.3023,-0.0648,0.3659,213.2656
19:38:12:934,3.5064,-1.9626,10.8542,53.7512,-0.3246,0.0154,0.3248,212.9688
19:38:12:953,3.1976,-1.7962,10.6184,53.2955,-0.473,-0.0289,0.1414,212.5938
19:38:12:973,2.0891,-1.9267,12.0968,54.0753,-0.6892,-0.2038,-0.0637,212.2031
19:38:12:995,0.9027,-2.0776,13.9032,54.1965,-0.7334,-0.2222,-0.1306,211.9531
19:38:13:018,1.0895,-2.3697,13.4843,53.4548,-0.3875,0.0566,0.0388,211.9375
19:38:13:034,2.2471,-2.2009,10.0881,53.0434,0.2008,0.3557,0.2559,212.1094
19:38:13:054,3.5435,-1.8729,7.1815,53.2382,0.4962,0.2313,0.3099,212.1719
19:38:13:077,4.1277,-1.3665,6.8427,52.6831,0.3284,-0.3173,0.1272,211.8906
19:38:13:092,3.601,-1.2516,8.7845,53.1467,-0.0991,-0.7719,-0.2363,211.5156
19:38:13:114,2.0519,-1.7424,10.4376,52.2767,-0.3968,-0.6118,-0.5849,211.3906
19:38:13:134,0.4718,-1.8968,10.3072,53.4,-0.3601,0.001,-0.7013,211.4062
19:38:13:153,-0.1268,-1.4096,8.2386,53.313,-0.1167,0.6247,-0.5378,211.875
19:38:13:175,0.0827,-0.6087,6.735,52.9499,0.0423,0.8308,-0.2565,212.6719
19:38:13:196,0.7375,-0.0485,6.6859,53.0497,0.1177,0.5243,-0.0637,213.4062
19:38:13:219,1.0536,0.0581,7.0103,53.4387,0.2392,0.0638,-0.0208,213.9062
19:38:13:233,0.8453,0.1885,7.0451,51.9092,0.359,-0.1738,-0.027,214.0938
19:38:13:253,0.9339,0.3011,7.0678,53.3528,0.4123,-0.2448,0.0151,214.125
19:38:13:274,1.1278,0.5082,7.4868,52.4392,0.3555,-0.2262,0.0407,214.1406
19:38:13:294,1.5013,0.8039,8.5342,52.2045,0.2176,-0.1711,0.0492,214.125
19:38:13:319,1.536,1.0397,10.0294,52.8062,0.0826,-0.0757,0.0127,214.0156
19:38:13:335,1.4977,1.06,10.7848,52.2809,0.1047,0.1192,-0.0336,213.9531
19:38:13:353,1.3564,1.0828,10.3898,52.4814,0.2823,0.2995,-0.0653,213.9219
19:38:13:376,0.9781,1.1606,9.8199,52.5242,0.4075,0.3911,-0.0664,213.9688
19:38:13:398,0.7208,1.4192,9.9241,51.0428,0.4029,0.3349,-0.0049,214.0312
19:38:13:417,0.88,1.406,10.6471,52.0706,0.3385,0.1608,0.0937,214.0938
19:38:13:433,1.2319,1.0277,11.7066,51.8432,0.289,-0.0414,0.1896,214.0938
19:38:13:453,1.6366,0.5956,12.6798,49.7852,0.2842,-0.1373,0.2721,213.9844
19:38:13:474,1.9873,0.2388,12.8223,51.4803,0.3361,-0.076,0.3256,213.75
19:38:13:495,1.9191,0.4555,11.9496,49.2789,0.3566,0.1642,0.3134,213.4219
19:38:13:518,2.0388,0.2675,11.2397,49.0669,0.1768,0.4795,0.2095,213.0312
19:38:13:537,0.9614,-0.5656,11.1834,49.3879,-0.0954,0.6633,-0.0163,212.6719
19:38:13:561,-0.5793,-1.3282,11.3702,50.0473,-0.0756,-0.0584,0.0444,212.4375
19:38:13:574,-1.1611,-1.8609,12.0418,50.8672,0.1505,-0.206,0.3374,212.4531
19:38:13:596,-0.4189,-2.153,11.6719,49.3799,0.3835,0.0076,0.5283,212.6094
19:38:13:618,0.3844,-1.8489,9.3627,48.7226,0.3358,0.1123,0.507,212.6094
19:38:13:635,0.4754,-1.5389,7.7585,50.4774,0.0146,-0.1178,0.4069,212.1406
19:38:13:653,0.0288,-1.4599,8.3966,48.3131,-0.24,-0.4259,0.4159,211.5625
19:38:13:674,-0.0262,-1.3114,10.106,48.9043,-0.2144,-0.508,0.523,210.9688
19:38:13:693,0.5113,-1.0876,10.7058,49.0204,-0.0155,-0.353,0.5526,210.5
19:38:13:719,0.4347,-0.7512,9.7421,46.7103,0.1513,-0.1455,0.5643,210.0469
19:38:13:736,0.5065,-0.5321,8.2446,46.983,0.2184,-0.0366,0.5962,209.4688
19:38:13:752,0.9087,-0.3322,7.245,47.0435,0.2365,-0.0723,0.5691,208.8438
19:38:13:772,1.2403,-0.3406,6.4848,46.0305,0.1973,-0.2595,0.511,208.2031
19:38:13:794,1.2906,-0.3454,6.3795,45.9089,0.089,-0.4353,0.4519,207.5469
19:38:13:819,0.8572,-0.507,7.6257,45.6346,0.0722,-0.3865,0.4825,206.875
19:38:13:847,0.807,-0.5393,8.6719,47.6034,0.2013,-0.1599,0.5549,206.2812
19:38:13:852,1.1266,-0.3286,8.575,46.5957,0.3238,0.0401,0.5882,205.7656
19:38:13:873,1.6605,-0.0664,7.8016,45.2594,0.265,0.0785,0.5398,204.9219
19:38:13:894,1.931,0.3035,7.986,46.2641,0.0858,0.046,0.4383,204.25
19:38:13:918,1.9143,0.4627,9.1615,46.0914,0.0024,0.0265,0.327,203.6094
19:38:13:937,1.6401,0.562,10.1623,45.3253,0.0399,0.038,0.2537,203.0312
19:38:13:958,1.5779,0.495,10.4855,44.2495,0.098,0.0542,0.2268,202.5938
19:38:13:973,1.8604,0.4902,10.3467,43.984,0.102,-0.0385,0.1778,202.2656
19:38:13:993,2.2148,0.5213,10.2796,43.7516,0.0264,-0.2358,0.0692,202
19:38:14:017,2.2734,0.3154,10.8985,43.7099,-0.0748,-0.3287,-0.0304,201.75
19:38:14:034,2.1513,-0.0916,11.7102,43.1155,-0.1529,-0.2345,-0.0467,201.6094
19:38:14:054,2.362,-0.7584,11.9747,44.0699,-0.2021,-0.0949,0.0138,201.5938
19:38:14:073,2.9438,-1.1582,11.5246,43.6075,-0.3004,-0.0661,0.0476,201.6719
19:38:14:095,3.3233,-1.2731,11.4588,42.3385,-0.3955,-0.1303,-0.0081,201.7031
19:38:14:118,3.1329,-1.4491,11.8981,40.972,-0.4101,-0.1405,-0.0872,201.7031
19:38:14:134,2.5463,-1.6251,12.3291,42.9534,-0.3151,-0.0102,-0.1074,201.6719
19:38:14:153,1.9849,-1.7986,12.1758,41.7299,-0.1204,0.1844,-0.031,201.7031
19:38:14:173,1.9669,-1.8621,11.1104,42.4909,0.1049,0.3272,0.086,201.8281
19:38:14:193,2.5715,-1.6718,9.3531,42.3144,0.236,0.2337,0.1134,202.0156
19:38:14:218,3.3879,-1.4694,7.4748,41.9713,0.134,-0.1431,0.0085,201.9844
19:38:14:236,4.0308,-1.0888,6.8092,42.8343,-0.2083,-0.5213,-0.22,201.8281
19:38:14:305,4.0655,-0.8374,8.2458,42.1064,-0.5374,-0.4813,-0.5095,201.7344
19:38:14:306,1.7,-0.9379,9.9839,42.277,-0.6035,-0.0076,-0.6904,201.8438
19:38:14:306,0.6884,-0.6889,8.3954,41.0123,-0.4583,0.5128,-0.6741,202.2969
19:38:14:321,0.5256,-0.1454,6.966,41.1776,-0.3177,0.7136,-0.4949,203.0469
19:38:14:337,0.9614,0.4268,6.4776,41.1776,-0.2091,0.5245,-0.2893,203.8594
19:38:14:353,1.3696,0.6985,6.4956,41.3073,-0.0738,0.1259,-0.2059,204.5781
19:38:14:373,1.4522,0.8206,6.5183,40.0925,0.0458,-0.1482,-0.2142,205.0469
19:38:14:393,1.4091,1.06,6.6847,42.5051,0.0754,-0.1977,-0.239,205.3125
19:38:14:418,1.773,1.3258,7.2258,41.9703,0.0282,-0.149,-0.2411,205.5469
19:38:14:437,2.1286,1.6035,7.8639,41.1199,-0.0179,-0.1429,-0.2826,205.7969
19:38:14:455,2.3045,1.813,8.8527,39.9007,-0.0953,-0.1578,-0.3785,206.0469
19:38:14:475,2.2387,1.7568,10.1731,41.13,-0.1747,-0.096,-0.497,206.5156
19:38:14:494,1.7204,1.5748,11.0781,39.8019,-0.1593,0.0942,-0.6222,206.9531
19:38:14:519,1.3684,1.1438,11.1296,39.8258,-0.0927,0.4127,-0.6648,207.5
19:38:14:537,1.3684,0.5094,10.3634,39.7743,-0.0213,0.7078,-0.6075,208.2188
19:38:14:552,1.5061,0.2867,9.8487,41.4505,-0.0157,0.8023,-0.4909,208.6094
19:38:14:573,1.5444,0.0497,10.8315,38.7181,-0.0975,0.5323,-0.3979,209.375
19:38:14:592,1.1481,-0.2472,12.76,40.6247,-0.1638,0.1357,-0.3266,209.9844
19:38:14:613,0.8034,-0.574,13.8985,39.6775,-0.0692,-0.0661,-0.1929,210.5
19:38:14:635,0.6597,-0.2747,13.2365,40.9243,0.1558,-0.0201,0.0282,210.9375
19:38:14:656,1.3971,0.483,12.2848,40.181,0.237,0.0737,0.2774,211.2344
19:38:14:675,2.2926,0.2257,12.5002,39.1294,0.0418,0.1088,0.3001,211.2812
19:38:14:694,1.7036,-0.7787,13.6339,38.9608,-0.1856,0.0713,0.0553,210.9531
19:38:14:718,0.0085,-1.8286,14.43,38.6515,-0.1366,-0.0432,-0.1396,210.625
19:38:14:734,-1.0186,-2.7539,13.2939,39.8675,0.2735,-0.157,-0.0816,210.5781
19:38:14:754,-0.8235,-3.0149,10.2796,38.9226,0.7004,-0.0286,0.1733,210.7344
19:38:14:773,-0.1795,-2.73,7.4557,39.486,0.7827,0.1552,0.3877,210.8125
19:38:14:793,-0.4512,-2.2296,6.2885,40.1817,0.4983,0.0673,0.4101,210.5938
19:38:14:819,-1.2604,-1.6131,7.6843,40.0166,0.0517,-0.3016,0.396,210.125
19:38:14:835,-0.7648,-1.5556,9.6547,40.1804,-0.1952,-0.6268,0.5507,209.625
19:38:14:853,-0.1172,-1.0947,10.2712,39.4368,-0.0751,-0.6776,0.7291,209.2031
19:38:14:874,0.5173,-0.6195,8.8886,40.5319,0.2517,-0.5224,0.8508,208.5781
19:38:14:893,1.0009,-0.1167,7.3324,40.2923,0.4999,-0.3655,0.8937,207.75
19:38:14:917,1.4773,0.0317,6.7518,39.5568,0.5728,-0.337,0.8559,207.2656
19:38:14:935,1.876,0.1311,7.4269,38.4643,0.5563,-0.4017,0.7715,206.2812
19:38:14:953,2.1573,0.2101,8.0303,39.5349,0.5987,-0.4068,0.6806,204.75
19:38:14:974,1.4738,0.1826,7.7597,39.6502,0.7348,-0.3202,0.5613,203.8281
19:38:14:993,0.8656,-0.0592,6.741,40.4008,0.746,-0.0438,0.6492,203.0469
19:38:15:019,1.0368,-0.0401,6.0826,39.6609,0.4831,-0.0174,0.8071,202.3594
19:38:15:037,1.694,0.3693,6.3412,40.3721,0.1297,-0.0792,0.8743,202.3594
19:38:15:057,2.4949,1.2456,7.7466,39.2027,-0.1316,-0.2235,0.776,201.6875
19:38:15:073,3.2646,1.5161,9.7469,39.5906,-0.155,-0.2584,0.5406,200.9219
19:38:15:092,3.1964,1.1833,10.8159,38.9083,-0.0511,-0.1303,0.3504,198.9531
19:38:15:114,2.7355,0.8087,10.4472,40.6581,-0.0314,-0.0608,0.2865,198.125
19:38:15:135,2.7032,0.5872,10.0713,39.9682,-0.1441,-0.1767,0.2724,197.5312
19:38:15:153,3.0372,0.3837,10.6687,40.2288,-0.2914,-0.2781,0.2489,197.1406
19:38:15:172,3.4789,-0.1071,11.7868,39.4992,-0.3478,-0.2222,0.2282,196.8281
19:38:15:194,3.9015,-0.6746,12.0645,38.2956,-0.3571,-0.0616,0.1938,196.5469
19:38:15:218,4.0535,-0.8757,11.3462,39.0229,-0.4458,0.0609,0.1278,196.2969
19:38:15:239,3.844,-0.9272,10.877,38.5586,-0.5912,0.1946,0.0236,195.9844
19:38:15:252,3.2335,-1.0121,10.8626,39.2931,-0.71,0.3975,-0.0581,195.8438
19:38:15:272,2.6601,-1.151,11.1774,41.7887,-0.6898,0.5277,-0.0472,195.8125
19:38:15:293,2.7714,-1.0325,11.3355,40.4008,-0.5188,0.4713,-0.0347,195.9062
19:38:15:312,3.3197,-1.1534,11.0099,40.4941,-0.331,0.2172,-0.1055,196.0312
19:38:15:335,3.7075,-1.3138,10.5179,38.0866,-0.2586,-0.1383,-0.2493,196.125
19:38:15:354,3.6106,-1.4766,10.6699,38.7152,-0.3289,-0.2981,-0.4019,196.2344
19:38:15:374,3.1257,-1.8441,11.2385,39.3354,-0.3867,-0.0355,-0.5042,196.4375
19:38:15:392,2.2578,-1.9614,10.9787,39.505,-0.3502,0.4143,-0.5055,196.8438
19:38:15:413,1.4223,-1.7556,9.5243,39.1382,-0.2594,0.7022,-0.4083,197.0938
19:38:15:435,0.9386,-1.3054,7.798,40.0846,-0.1763,0.659,-0.2709,197.7188
19:38:15:452,0.7842,-0.7428,6.8403,42.1332,-0.0799,0.3986,-0.1508,198.2969
19:38:15:477,0.7268,-0.1909,6.3567,38.5411,0.0152,0.1072,-0.0648,198.7969
19:38:15:491,0.54,0.1335,6.0814,40.2401,0.0932,-0.0701,0.0202,199.1406
19:38:15:514,0.5723,0.3873,5.7546,40.1766,0.0999,-0.1607,0.1094,199.3281
19:38:15:535,1.0081,0.7416,5.7151,41.9106,-0.0048,-0.2014,0.1387,199.4062
19:38:15:553,1.4546,1.0181,6.5099,40.4209,-0.142,-0.1455,0.0956,199.3125
19:38:15:577,1.5264,1.0995,7.5323,39.4343,-0.2543,-0.051,0.037,199.1562
19:38:15:591,1.4546,1.1007,8.5989,40.3191,-0.339,0.0468,0.0053,199.0156
19:38:15:613,1.293,1.1654,10.0306,39.6574,-0.323,0.1687,0.0114,198.9844
19:38:15:635,1.4223,1.1019,11.5258,41.3607,-0.1345,0.3072,0.0021,198.9531
19:38:15:652,1.5743,0.9631,12.0489,40.9155,0.0945,0.4337,-0.0208,198.9688
19:38:15:678,1.4749,0.6985,11.4564,39.9066,0.2517,0.5008,-0.0485,199
19:38:15:692,1.1398,0.3741,11.4815,40.2099,0.3206,0.4612,-0.0595,199.0312
19:38:15:714,0.9853,-0.0736,11.9831,39.4452,0.3521,0.3275,-0.0038,199.0625
19:38:15:738,1.2212,-0.5776,11.8837,40.7107,0.4187,0.2257,0.1038,199.125
19:38:15:754,1.5444,-0.6937,11.5114,39.7452,0.4357,0.173,0.2061,199.1719
19:38:15:772,1.943,-0.5549,11.7173,39.5615,0.3044,0.1,0.2777,199.125
19:38:15:792,2.0938,-0.4483,12.8929,41.7767,0.0533,0.0412,0.2878,198.9219
19:38:15:812,1.3265,-0.8517,14.1882,39.5144,-0.1068,0.0284,0.2311,198.625
19:38:15:837,0.728,-1.4946,14.7077,39.4383,-0.012,0.0441,0.2575,198.2812
19:38:15:853,0.5975,-1.8669,13.0318,40.724,0.3449,0.1853,0.4268,198
19:38:15:871,0.71,-1.9172,9.8271,41.0951,0.734,0.316,0.5933,197.75
19:38:15:893,0.6154,-1.8705,6.802,40.855,0.8655,0.2779,0.6415,197.3594
19:38:15:913,0.2192,-1.8836,5.5164,39.5114,0.6219,-0.0046,0.5754,196.7812
19:38:15:936,-0.5649,-1.7065,6.4597,41.0086,0.1505,-0.3817,0.5203,196.0312
19:38:15:953,-0.5134,-1.3904,8.7641,41.169,-0.2738,-0.6084,0.6223,194.9688
19:38:15:973,0.3509,-1.1079,10.2437,40.6621,-0.3758,-0.6057,0.7968,194.4062
19:38:15:993,0.5053,-0.6602,9.7733,40.2655,-0.1545,-0.4241,0.8498,193.7188
19:38:16:019,0.528,-0.3334,8.1691,40.4385,0.1025,-0.1863,0.8676,192.8281
19:38:16:034,0.9279,0.064,7.1013,42.0129,0.1851,-0.0371,0.9027,191.8594
19:38:16:053,1.3876,0.4028,6.7757,41.75,0.188,-0.0835,0.8918,190.9062
19:38:16:072,1.5803,0.6231,6.8799,40.6216,0.1886,-0.3042,0.7991,190.3906
19:38:16:092,1.7658,0.6913,7.0582,41.0825,0.2088,-0.5277,0.6817,189.3438
19:38:16:112,2.0304,0.6554,7.2893,40.8094,0.228,-0.6827,0.5499,188.4062
19:38:16:133,1.9095,0.3118,8.0123,42.6481,0.1848,-0.7367,0.3946,187.5469
19:38:16:152,0.8584,0.1059,8.8838,41.0983,0.0666,-0.5314,0.2761,186.8281
19:38:16:179,0.3796,0.2125,9.711,41.6959,-0.0642,-0.1357,0.3475,186.2812
19:38:16:191,0.8309,0.1622,10.7489,42.3495,-0.1031,0.062,0.5273,185.9219
19:38:16:213,1.6437,0.3681,11.187,41.8966,0.0045,0.1347,0.6894,185.3906
19:38:16:236,2.6565,0.4292,10.7489,43.5918,0.1902,0.1056,0.7403,184.7969
19:38:16:254,3.2371,0.2675,10.3371,42.2387,0.3124,-0.0976,0.6431,184.0469
19:38:16:272,3.4083,-0.2352,11.1344,41.6915,0.2597,-0.3919,0.4833,183.1719
19:38:16:292,3.5447,-0.8876,12.3135,44.2826,0.1316,-0.4781,0.3533,182.4062
19:38:16:378,3.6333,-1.3892,12.4512,43.9881,0.0823,-0.2337,0.2817,181.875
19:38:16:378,4.111,-1.6705,11.2625,44.26,0.1092,0.1048,0.2663,181.4531
19:38:16:379,4.5982,-1.6777,10.1743,44.1618,0.074,0.2359,0.1898,181.125
19:38:16:379,4.4222,-1.6538,9.3722,42.2013,-0.2751,0.0627,-0.3468,180.8281
19:38:16:392,3.4801,-1.5892,9.772,43.2709,-0.4978,0.0308,-0.5934,180.5938
19:38:16:413,2.3991,-2.232,10.8542,42.0824,-0.5481,0.258,-0.6534,180.5938
19:38:16:440,1.3181,-2.645,11.1798,42.0824,-0.4266,0.581,-0.4691,180.6406
19:38:16:457,1.1972,-2.5863,10.0785,43.2149,-0.2562,0.6215,-0.2046,181.75
19:38:16:475,1.8544,-2.1614,8.4421,41.1436,-0.2224,0.2699,-0.0741,181.75
19:38:16:492,2.6014,-1.7939,7.913,44.9115,-0.3084,-0.1721,-0.0781,183.125
19:38:16:511,2.9055,-1.3102,8.6863,44.2484,-0.3582,-0.353,-0.1625,183.375
19:38:16:535,2.6924,-0.9092,9.2968,45.5307,-0.3185,-0.1815,-0.2661,183.5781
19:38:16:555,2.0436,-0.7284,8.8144,44.8247,-0.2719,0.1341,-0.2896,183.5781
19:38:16:572,1.4079,-0.3992,7.7466,45.0487,-0.2892,0.3032,-0.2126,183.7812
19:38:16:591,1.3397,0.2496,7.4162,45.0004,-0.277,0.299,-0.1468,184.1094
19:38:16:612,1.5348,0.7452,7.5179,44.7737,-0.1483,0.1917,-0.1268,184.4688
19:38:16:637,1.7575,1.0804,7.4042,45.9301,-0.0152,0.0502,-0.1519,184.7344
19:38:16:654,1.8017,1.3928,7.2522,46.0157,0.0338,-0.0651,-0.2107,184.9219
19:38:16:671,1.8963,1.406,7.5574,45.166,0.0285,-0.1271,-0.3061,185.0781
19:38:16:691,1.876,1.3402,8.0351,47.0522,-0.0354,-0.112,-0.4278,185.2656
19:38:16:711,1.9406,1.3426,8.8,44.8579,-0.1119,-0.055,-0.582,185.4844
19:38:16:734,1.5923,1.2803,9.7649,44.7172,-0.1135,0.0353,-0.7617,185.8281
19:38:16:753,0.7866,0.981,10.3646,46.8769,-0.1111,0.2252,-0.8757,186.3125
19:38:16:772,-0.1962,0.6722,10.8219,46.1833,-0.1201,0.5032,-0.8344,186.9531
19:38:16:796,-0.5051,0.4818,11.1523,48.3478,-0.0884,0.6929,-0.7471,188.3281
19:38:16:820,-0.9803,0.2915,11.2672,46.6498,-0.0565,0.7312,-0.594,189.3594
19:38:16:840,-1.8925,0.1335,12.0058,46.5454,0.0408,0.6047,-0.2078,190.2344
19:38:16:854,-2.1655,0.0174,13.1778,48.7711,0.2719,0.4545,0.3667,191.0469
19:38:16:872,-0.9911,-0.3825,13.4867,48.7549,0.4932,0.3783,0.9512,191.5625
19:38:16:892,1.0751,0.0042,12.754,49.3284,0.5231,0.2486,1.2758,191.5
19:38:16:911,3.437,0.8924,12.7038,47.969,0.3955,0.1725,1.1419,190.75
19:38:16:935,5.0567,1.1367,13.2484,49.5188,0.2916,0.2225,0.5959,189.4062
19:38:16:954,3.9541,0.2065,13.0737,47.9519,0.2024,0.2857,0.0947,187.9375
19:38:16:971,1.2714,-1.1283,12.9611,49.8001,0.2415,0.4175,0.0258,186.9375
19:38:16:992,-0.5458,-2.0033,12.3183,49.079,0.4935,0.5147,0.2503,186.5938
19:38:17:018,-1.0414,-2.2464,9.9552,49.5424,0.7028,0.2907,0.5102,186.5625
19:38:17:036,-0.7493,-1.8992,7.4114,49.6806,0.6168,-0.2068,0.5813,186.4375
19:38:17:053,-0.7984,-1.6095,6.7218,49.2882,0.3265,-0.6249,0.5475,186.25
19:38:17:072,-1.3119,-2.0488,8.8251,49.9734,0.0613,-0.7218,0.6018,185.6562
19:38:17:093,-1.2353,-1.7747,9.7038,50.5603,-0.0589,-0.5495,0.7595,184.6719
19:38:17:113,-0.9959,-1.2707,9.2645,48.1984,0.0288,-0.2648,0.9501,184.0781
19:38:17:135,-0.7493,-0.7213,7.9728,47.4634,0.224,-0.0904,1.1368,183.3125
19:38:17:152,-0.0741,-0.3909,7.0486,49.4763,0.3843,-0.1293,1.2937,182.3594
19:38:17:171,0.5879,-0.0569,6.3244,48.1359,0.5033,-0.2696,1.3875,181.2188
19:38:17:191,1.0883,0.1646,5.6205,48.4454,0.5601,-0.3847,1.3922,179.8125
19:38:17:210,1.2906,0.2508,5.3883,49.375,0.4871,-0.4529,1.3267,178.25
19:38:17:233,1.1709,0.4352,5.9449,49.5159,0.2727,-0.406,1.2426,176.7031
19:38:17:254,1.3181,0.5764,6.7182,48.7363,0.0487,-0.2555,1.1808,175.125
19:38:17:270,1.5516,0.647,7.9548,47.8272,-0.1161,-0.1873,1.1145,173.6562
19:38:17:291,2.0651,0.9583,9.2118,50.8428,-0.188,-0.1844,1.0583,172.2656
19:38:17:313,2.605,1.2205,10.2281,50.4513,-0.1712,-0.2318,0.9539,171.0312
19:38:17:341,2.5954,1.0768,10.9272,49.9609,-0.0826,-0.2768,0.736,169.8125
19:38:17:356,2.5894,0.6159,10.9356,49.8944,0.0226,-0.2755,0.5126,168.6562
19:38:17:372,2.8013,-0.088,10.4819,50.81,0.0474,-0.2406,0.3541,167.3594
19:38:17:391,2.8133,-0.8601,11.5497,49.9766,-0.1579,-0.1932,0.2585,166.7812
19:38:17:412,3.3293,-1.6035,13.1814,50.6205,-0.3529,-0.1665,0.2713,166.375
19:38:17:435,4.0739,-2.0357,12.8606,49.6458,-0.2919,0.0095,0.344,166.1094
19:38:17:453,4.5515,-1.9231,11.2349,48.5156,-0.1574,0.1877,0.3754,165.8438
19:38:17:472,4.8508,-1.7879,9.8487,49.6862,-0.1928,0.1786,0.2886,165.4688
19:38:17:492,4.7167,-1.5449,9.9049,49.9388,-0.4618,0.0657,0.0892,165.0781
19:38:17:512,4.0846,-1.4682,11.3965,46.4811,-0.7976,-0.0259,-0.1479,164.7656
19:38:17:535,3.2371,-1.6789,12.8582,48.2542,-0.9276,0.0406,-0.3404,164.7031
19:38:17:554,2.8851,-1.6921,12.7516,49.1833,-0.7268,0.1956,-0.3841,164.7812
19:38:17:578,3.2802,-1.2971,10.8183,48.3023,-0.306,0.2287,-0.3314,165.125
19:38:17:590,3.6118,-0.7727,9.1244,47.9485,0.004,-0.0395,-0.3841,165.125
19:38:17:613,3.7506,-0.5309,8.6133,47.3792,0.0376,-0.3937,-0.583,166.1094
19:38:17:636,2.8983,-0.6075,9.1711,48.0696,-0.1675,-0.4632,-0.8928,166.5
19:38:17:652,1.5623,-0.8853,9.2166,47.8422,-0.3329,-0.1849,-1.1506,167
19:38:17:671,0.2336,-0.9439,8.3667,48.3119,-0.3428,0.2212,-1.2363,168.4062
19:38:17:691,-0.45,-0.8613,7.1145,49.0129,-0.281,0.5118,-1.1239,169.75
19:38:17:712,-0.2764,-0.5465,6.2837,45.6169,-0.1949,0.507,-0.8928,171.125
19:38:17:736,0.0899,-0.1933,6.5171,47.528,-0.1281,0.2228,-0.693,172.4531
19:38:17:753,0.0947,-0.1107,7.0223,46.9723,-0.0527,-0.0315,-0.6081,173.5
19:38:17:772,-0.3075,-0.2256,7.0642,45.685,0.0533,0.0412,-0.4592,174.2812
19:38:17:792,-0.845,-0.3094,7.5742,46.2759,0.187,-0.1958,-0.2629,174.2812
19:38:17:812,-1.0857,-0.0629,8.5762,46.3116,0.5084,-0.6552,-0.0177,175.625
19:38:17:837,-0.5506,0.2233,9.0957,47.4759,0.6919,-0.749,0.2303,176.1094
19:38:17:854,0.6753,0.9559,8.9748,45.0481,0.5462,-0.4089,0.3837,176.3906
19:38:17:871,2.2806,1.8992,9.5398,46.1214,0.2509,0.1416,0.3643,176.3594
19:38:17:892,3.6537,2.5217,10.5071,45.2078,0.0344,0.6686,0.2106,176.0156
19:38:17:913,4.2019,2.6414,11.3427,43.7988,-0.036,1.0764,0.0444,174.9531
19:38:17:937,4.2726,2.6917,11.8909,45.5736,0.0509,1.2082,-0.0765,174.9531
19:38:17:953,4.4509,2.8772,11.7904,45.8746,0.2242,0.9906,-0.2579,174.8125
19:38:17:971,4.2019,2.8018,11.4121,44.5013,0.3585,0.5853,-0.5117,174.8281
19:38:17:991,3.3747,1.9818,11.3091,43.7985,0.3947,0.3072,-0.7191,174.8906
19:38:18:011,1.8018,0.8637,11.2122,44.6739,0.2951,0.2465,-0.7327,175.1719
19:38:18:035,0.6023,0.1838,11.1978,43.2232,0.0304,0.3317,-0.5764,175.7031
19:38:18:055,0.1533,-0.3597,11.8394,44.1218,-0.2083,0.3733,-0.3929,176.5
19:38:18:070,-0.5446,-0.993,12.8342,42.8831,-0.2035,0.1219,-0.1929,177.3281
19:38:18:091,-1.4771,-1.5544,13.9775,42.9089,0.0898,-0.2052,0.1001,177.9844
19:38:18:112,-1.598,-2.0189,14.5281,41.9663,0.5899,-0.2105,0.3635,178.4062
19:38:18:136,-1.6052,-2.3745,11.8538,42.2915,0.8069,-0.0155,0.5438,178.6406
19:38:18:153,-1.8027,-2.056,8.6516,41.5499,0.5092,-0.0504,0.6966,178.5156
19:38:18:170,-1.7034,-1.916,8.0207,43.0147,0.1001,-0.3482,0.8253,178.1094
19:38:18:191,-1.695,-1.7783,9.5494,40.3115,-0.0397,-0.6419,0.9896,176.625
19:38:18:211,-1.2281,-1.8657,11.0039,42.1702,0.1723,-0.6957,1.2002,176.1719
19:38:18:235,-0.4919,-1.5317,10.5526,41.0861,0.4767,-0.4659,1.3861,175.2188
19:38:18:255,0.279,-1.0181,8.484,42.2094,0.5779,-0.1721,1.482,173.9844
19:38:18:272,1.1781,-0.5034,6.808,41.2803,0.5031,0.0127,1.4508,172.4844
19:38:18:291,2.0663,-0.2628,5.8479,43.0933,0.3156,0.051,1.3171,170.8906
19:38:18:311,2.3536,-0.0257,5.8192,40.4813,0.0993,0.0441,1.1832,169.1562
19:38:18:338,2.1333,0.2951,6.8224,42.0764,0.0714,0.0734,1.0902,167.5312
19:38:18:356,2.0412,0.3777,7.3371,38.7106,0.2165,0.0859,1.0173,166.0938
19:38:18:372,2.0376,0.4579,6.741,43.6323,0.2882,0.0502,0.9653,164.8438
19:38:18:447,2.3428,0.7835,6.1616,40.2371,0.1926,-0.0944,0.8524,163.625
19:38:18:447,2.7487,1.0995,6.5243,41.6818,0.0016,-0.2805,0.6463,162.4688
19:38:18:447,2.8504,1.1833,7.7621,41.3907,-0.1585,-0.358,0.438,161.4531
19:38:18:450,2.623,1.0541,9.1077,40.1393,-0.2493,-0.2867,0.2804,160.5938
19:38:18:472,2.3165,0.5333,10.7513,41.2709,-0.2639,-0.1458,0.197,160
19:38:18:490,2.4362,0.3478,11.0841,40.0702,-0.2581,-0.068,0.1517,159.7812
19:38:18:512,2.9438,-0.1227,11.4061,41.8223,-0.2791,-0.1271,0.1099,159.4062
19:38:18:537,3.3412,-0.7763,12.183,40.1731,-0.3425,-0.2792,0.0441,159.2344
19:38:18:555,3.8344,-1.4335,13.0365,40.1732,-0.4264,-0.3985,0.0186,159.1094
19:38:18:571,4.5503,-1.9339,13.1994,41.0916,-0.4487,-0.4499,0.0394,159.0625
19:38:18:590,4.8472,-1.7855,12.8163,41.5149,-0.4248,-0.4736,0.0636,159.0781
19:38:18:610,3.8871,-1.2947,12.8378,41.7477,-0.4155,-0.4872,0.0244,159.1094
19:38:18:630,2.9665,-1.1426,13.3993,42.3759,-0.3571,-0.4395,0.037,159.1094
19:38:18:652,2.7139,-1.2061,12.7971,41.6256,-0.0924,-0.2097,0.1765,159.1094
19:38:18:672,3.3328,-1.2228,10.786,41.2984,0.3262,0.0657,0.3725,159.1406
19:38:18:691,4.4677,-1.3018,8.3451,41.7026,0.6599,0.0942,0.4892,159.0625
19:38:18:709,5.3548,-0.9715,6.6776,41.6945,0.7204,-0.1743,0.4351,158.75
19:38:18:732,5.3966,-0.343,6.723,40.6507,0.4474,-0.5349,0.1784,158.1719
19:38:18:754,4.5024,-0.4124,7.9896,42.1451,0.0362,-0.6414,-0.2336,157.5312
19:38:18:772,3.1042,-0.8733,8.2122,41.4546,-0.2128,-0.32,-0.6318,157.0312
19:38:18:790,1.7275,-0.9798,7.2569,40.8192,-0.3113,0.2564,-0.8477,157.3125
19:38:18:811,0.7675,-0.829,6.3507,43.4746,-0.3949,0.6841,-0.8882,158.0781
19:38:18:836,0.1976,-0.5979,6.2897,41.3919,-0.477,0.724,-0.8206,159.0312
19:38:18:855,-0.0083,-0.4148,6.7374,42.8226,-0.4716,0.5075,-0.7005,160.0938
19:38:18:872,-0.0298,-0.2436,7.2007,42.6065,-0.3649,0.2532,-0.5426,161.0781
19:38:18:891,0.3042,0.179,7.4066,42.5371,-0.2187,0.1187,-0.3497,161.8906
19:38:18:913,0.9375,0.6901,7.2881,42.8434,-0.0975,0.0737,-0.1777,162.5469
19:38:18:938,1.7658,1.236,7.5275,42.7125,-0.0615,0.0585,-0.0957,162.9688
19:38:18:954,2.4362,1.6813,8.1919,43.0988,-0.0911,0.0284,-0.0946,163.0938
19:38:18:972,2.7199,1.9351,8.7533,43.4652,-0.1031,0.0143,-0.1764,163.2344
19:38:18:990,2.8181,2.1518,9.1304,43.8169,-0.1055,0.0526,-0.277,163.3438
19:38:19:011,2.8624,2.1339,9.705,42.7345,-0.1491,0.1272,-0.374,163.5
19:38:19:037,2.7965,1.8884,10.6064,42.5483,-0.2096,0.213,-0.4499,163.75
19:38:19:055,2.7211,1.5676,11.1858,44.8611,-0.2061,0.3104,-0.4579,164.1406
19:38:19:075,2.5918,1.4611,11.5294,43.9707,-0.1334,0.3219,-0.3971,164.9062
19:38:19:091,2.7247,1.3701,12.1148,44.5395,-0.0146,0.1016,-0.2685,165.4375
19:38:19:111,3.2407,1.0624,12.5661,45.0486,0.1388,-0.2142,-0.1127,165.9062
19:38:19:137,3.8464,0.8434,12.3111,45.2059,0.2365,-0.3394,0.009,166.2188
19:38:19:154,3.8045,0.7596,12.3925,45.8117,0.1374,-0.3884,0.0218,166.3281
19:38:19:171,3.2742,0.3549,13.6363,45.836,-0.3425,-0.1234,-0.0959,166.2812
19:38:19:191,2.2926,-0.4591,14.685,46.3493,-0.1875,0.1956,-0.0752,166.2812
19:38:19:211,1.5408,-1.2468,14.017,46.5401,0.1832,0.3741,0.0354,166.25
19:38:19:237,1.2631,-1.7364,11.8107,46.6994,0.4354,0.3216,0.1453,166.4531
19:38:19:254,0.8824,-1.722,9.5243,46.3383,0.4384,0.1152,0.2133,166.5625
19:38:19:271,0.4526,-1.6406,8.3248,46.2895,0.2663,-0.1367,0.2886,166.5
19:38:19:295,0.0085,-1.5676,8.205,46.9934,0.0764,-0.3996,0.4229,166.2969
19:38:19:309,-0.1124,-1.6059,8.97,48.5115,-0.012,-0.4957,0.6071,166.0156
19:38:19:330,0.0348,-1.4108,9.4704,48.8057,0.0455,-0.4523,0.7997,165.1719
19:38:19:355,0.1569,-1.0445,9.1196,48.2654,0.1505,-0.4542,0.9914,164.8906
19:38:19:370,0.6813,-0.647,8.8647,47.8618,0.2818,-0.4835,1.131,163.5938
19:38:19:392,1.4953,-0.2125,8.709,49.2362,0.4408,-0.4078,1.1502,163.0469
19:38:19:416,1.9215,0.0605,8.2757,49.0088,0.5635,-0.2411,1.094,161.875
19:38:19:436,1.9658,0.0353,7.4545,49.1461,0.5736,-0.0228,1.0641,161.1875
19:38:19:455,1.8664,0.1981,6.9182,47.2485,0.5153,0.1698,1.0753,159.8125
19:38:19:474,2.1393,0.4579,6.5542,49.5744,0.4794,0.1938,1.0657,158.4844
19:38:19:490,2.6349,0.7045,6.3472,49.7563,0.444,0.0633,0.9858,157.2656
19:38:19:511,3.0827,1.0325,6.3771,49.7906,0.3774,-0.1516,0.8207,155.9531
19:38:19:530,3.2131,1.3306,6.9481,51.0811,0.2756,-0.349,0.6053,154.6562
19:38:19:553,3.0419,1.2456,8.15,49.1713,0.1766,-0.3461,0.433,153.4688
19:38:19:570,2.8995,1.0181,9.2944,51.5359,0.1095,-0.141,0.3278,152.5312
19:38:19:591,2.8049,0.7368,9.9923,51.5962,0.089,0.104,0.2825,151.8125
19:38:19:612,3.0503,0.4184,10.0055,52.2093,0.0501,0.1378,0.2601,151.2969
19:38:19:636,3.6142,0.1885,10.1372,52.4527,-0.0429,-0.0313,0.2186,150.7656
19:38:19:658,4.2115,-0.1335,11.1427,52.5712,-0.122,-0.1873,0.1499,150.4375
19:38:19:671,4.5012,-0.6578,12.3949,53.4646,-0.1047,-0.1197,0.1075,150.1562
19:38:19:691,4.7873,-1.1331,12.3781,52.4363,-0.0791,0.1006,0.0846,149.9688
19:38:19:711,5.1082,-1.388,11.1379,53.5673,-0.2064,0.2034,0.0191,149.8594
19:38:19:737,5.4589,-1.3449,10.3922,52.8333,-0.4525,0.1054,-0.1505,149.75
19:38:19:754,5.247,-1.2001,11.047,54.2843,-0.6567,-0.0214,-0.3881,149.7031
19:38:19:770,4.3863,-1.558,12.76,53.8579,-0.6309,0.1919,-0.5213,149.7969
19:38:19:789,3.2993,-2.0644,13.5477,53.8025,-0.3353,0.5874,-0.4427,150.1875
19:38:19:810,3.024,-2.3577,12.1208,55.2066,0.0559,0.7331,-0.2392,150.8438
19:38:19:831,3.6369,-1.9806,9.541,53.1596,0.2378,0.3847,-0.1071,151.4688
19:38:19:855,4.7119,-1.3234,7.9058,53.9696,0.1747,-0.1607,-0.1862,151.8594
19:38:19:871,4.8532,-0.4615,8.2517,53.1744,-0.0221,-0.3961,-0.4414,152.0156
19:38:19:891,3.6393,-0.5285,7.7992,54.8969,-0.1526,-0.1879,-0.7404,152.1094
19:38:19:911,2.283,-0.5106,6.6225,55.3424,-0.224,0.197,-0.9234,152.4375
19:38:19:932,1.4223,-0.2424,5.6085,56.045,-0.3276,0.5195,-0.9239,153.1406
19:38:19:954,1.4738,0.3334,5.587,54.3162,-0.4999,0.6662,-0.8027,154.0938
19:38:19:970,2.0052,0.7991,6.3124,56.4635,-0.6996,0.8031,-0.7263,155.2031
19:38:19:990,1.8508,0.9942,7.2019,56.7433,-0.8272,0.9991,-0.7798,156.25
19:38:20:009,1.451,0.9882,7.6807,55.7312,-0.7345,1.0428,-0.8384,157.1719
19:38:20:032,1.0655,0.9822,7.4652,56.311,-0.4671,0.8412,-0.8299,158.0625
19:38:20:055,0.9339,1.1498,7.5802,55.6846,-0.2466,0.4921,-0.7545,159.0781
19:38:20:072,1.1649,1.2528,8.3116,57.1648,-0.1566,0.2087,-0.6619,160.1094
19:38:20:095,1.609,1.3689,9.2417,56.9674,-0.1393,0.1046,-0.6089,161.0156
19:38:20:108,1.846,1.424,10.4712,56.6075,-0.1894,0.1602,-0.6501,161.8438
19:38:20:131,1.5085,1.1235,11.6156,56.4503,-0.2075,0.3261,-0.7596,162.5625
19:38:20:157,0.6059,0.5345,12.3578,57.1502,-0.1244,0.4894,-0.8395,163.25
19:38:20:173,-0.3231,-0.0305,12.3063,55.4776,0.0663,0.5328,-0.7601,164.0625
19:38:20:197,-0.6344,-0.4651,12.4332,56.94,0.2538,0.3469,-0.5071,165.5156
19:38:20:209,0.0803,-0.6171,12.6319,56.2069,0.4128,0.051,-0.1591,166.3438
19:38:20:231,0.9518,-0.5237,12.1052,56.9824,0.5356,-0.0867,0.1078,166.9219
19:38:20:256,1.1194,-0.1574,11.3486,57.5685,0.4999,-0.0457,0.197,167.0938
19:38:20:274,1.1493,-0.0054,11.3618,56.6173,0.2959,0.001,0.2223,166.9375
19:38:20:289,1.1805,-0.246,12.1303,56.0644,0.0676,-0.0661,0.2236,166.7031
19:38:20:314,1.1026,-0.6135,13.343,55.2062,-0.0112,-0.3261,0.2231,166.4375
19:38:20:339,1.0069,-0.9738,14.5317,54.381,0.0764,-0.5948,0.2695,166.1719
19:38:20:354,0.8393,-1.5784,13.7333,55.8282,0.3696,-0.5535,0.3432,165.9375
19:38:20:371,0.6465,-1.8417,10.8818,54.3802,0.7369,-0.2805,0.4399,165.625
19:38:20:389,0.6322,-1.6346,8.2709,54.1016,0.8495,-0.0928,0.56,165.4375
19:38:20:409,0.2264,-1.0636,7.1241,55.312,0.6839,-0.1799,0.6396,164.9531
19:38:20:431,0.4071,-0.7344,7.6137,53.7052,0.4173,-0.4374,0.7382,164.3594
19:38:20:456,0.9422,-0.5405,8.4457,55.2086,0.2751,-0.6465,0.85,163.6094
19:38:20:533,0.9961,-0.2376,8.1476,53.8764,0.3601,-0.6198,0.8833,162.7969
19:38:20:533,1.1158,-0.0892,6.8212,52.1548,0.535,-0.4947,0.9211,161.9219
19:38:20:534,1.4977,-0.0245,5.1776,51.651,0.625,-0.3961,0.9789,160.4062
19:38:20:534,2.0986,0.2364,4.4749,52.9051,0.4991,-0.4523,1.0279,159.3125
19:38:20:555,2.933,0.6578,5.4745,51.7316,0.1758,-0.5381,1.0218,157
19:38:20:573,3.2981,0.7165,6.8463,53.1305,-0.1827,-0.2741,0.6569,157
19:38:20:600,2.9378,0.6794,7.5035,51.1586,-0.1971,0.0279,0.4964,155.8438
19:38:20:609,2.6062,0.6949,7.5826,51.7744,-0.2181,0.2305,0.4141,154.9062
19:38:20:631,2.5631,0.726,7.7071,50.2022,-0.2945,0.2849,0.3589,154.1875
19:38:20:654,2.5942,0.9619,8.3056,50.396,-0.3393,0.1799,0.2908,153.6406
19:38:20:671,2.6732,1.1019,9.0861,50.4426,-0.3135,-0.0121,0.1826,152.8281
19:38:20:690,2.6122,0.8458,9.6763,50.4426,-0.3033,-0.154,0.1014,152.6562
19:38:20:709,2.5284,0.3286,10.3012,50.34,-0.3707,-0.1945,0.0894,152.5312
19:38:20:731,2.5667,0.2532,11.2325,48.176,-0.4245,-0.251,0.0796,152.3594
19:38:20:754,2.6014,0.0928,12.3602,49.698,-0.4352,-0.373,0.0511,152.2656
19:38:20:772,2.3129,-0.5094,13.9535,50.3359,-0.3095,-0.3676,0.1429,152.2344
19:38:20:789,2.6218,-1.1953,14.7664,48.7425,-0.0043,-0.2156,0.3371,152.2031
19:38:20:809,3.5962,-1.6335,13.355,48.2174,0.1593,-0.1173,0.4484,152.2031
19:38:20:829,4.0523,-1.3629,11.5809,46.5477,0.0304,-0.1647,0.4314,152.0781
19:38:20:854,4.1588,-1.0397,11.2265,47.8913,-0.1862,-0.1841,0.3139,151.7031
19:38:20:872,3.9553,-0.981,12.0729,46.5459,-0.2732,-0.1301,0.2015,151.1562
19:38:20:889,3.8213,-1.2348,13.197,45.8302,-0.1169,0.01,0.1706,150.6875
19:38:20:909,4.1193,-1.6897,13.4735,46.9463,0.2189,0.2931,0.1722,150.3594
19:38:20:929,4.852,-1.9231,11.8335,44.5494,0.5167,0.5269,0.0836,150.1719
19:38:20:954,5.4146,-1.6059,9.1759,44.7278,0.5481,0.4715,-0.1561,150
19:38:20:973,5.6301,-1.4287,7.2174,45.4521,0.2991,0.2665,-0.4981,149.7656
19:38:20:994,4.9418,-1.3581,6.5854,45.1222,-0.0631,0.2204,-0.8017,149.6094
19:38:21:012,3.5423,-1.4395,6.8116,44.881,-0.3294,0.4191,-0.9324,149.8906
19:38:21:028,2.0017,-1.4635,7.0427,44.9312,-0.4365,0.7496,-0.8477,150.6406
19:38:21:049,0.8788,-1.1163,6.6716,45.0382,-0.4583,0.9704,-0.6054,151.6875
19:38:21:072,0.6334,-0.331,6.2167,45.0975,-0.4277,0.9171,-0.3511,152.7344
19:38:21:088,1.111,0.5393,6.1017,44.5134,-0.322,0.6044,-0.2099,153.6094
19:38:21:111,1.8987,1.1558,6.3687,44.6594,-0.1505,0.2087,-0.2097,154.2031
19:38:21:129,2.3093,1.5772,6.5722,43.7382,0.0013,-0.108,-0.2941,154.5312
19:38:21:154,2.2219,1.8621,6.7482,42.9895,0.0501,-0.1993,-0.3926,154.7656
19:38:21:174,2.0424,1.9914,6.9074,42.4584,-0.033,-0.0864,-0.4669,155.0469
19:38:21:191,2.0591,2.056,7.3276,43.6144,-0.1656,0.0779,-0.5263,155.4375
19:38:21:212,2.1621,2.2057,8.0399,43.5267,-0.2431,0.1267,-0.6262,155.9062
19:38:21:229,2.1729,1.9914,8.8527,42.4188,-0.2517,0.0521,-0.7466,156.4844
19:38:21:249,2.0364,1.3485,9.6416,41.3424,-0.2623,-0.0345,-0.8102,157.1562
19:38:21:270,3.0264,-0.0006,12.3482,40.3803,-0.3409,-0.1684,-0.8568,157.9688
19:38:21:299,3.0719,-0.422,14.5616,41.5361,-0.3987,-0.2592,-0.9125,158.375
19:38:21:309,2.5715,-0.8613,16.0736,41.0093,-0.2783,-0.1636,-0.9633,160.3281
19:38:21:330,2.1214,-1.3593,15.2991,40.8831,0.0437,0.1863,-0.9045,160.8594
19:38:21:355,1.6509,-0.6015,12.2572,37.8799,0.3872,0.6502,-0.6805,161.9062
19:38:21:372,1.7934,0.6638,10.1898,39.2827,0.416,0.7759,-0.4179,163.0156
19:38:21:390,2.344,1.1474,10.1719,38.3762,0.1246,0.5797,-0.2706,163.9219
19:38:21:409,2.3835,0.6985,11.9113,37.8593,-0.1957,0.2553,-0.285,164.5
19:38:21:429,1.433,-0.0724,13.2915,37.7516,-0.1899,-0.031,-0.3559,164.8438
19:38:21:454,0.285,-1.0804,11.849,37.1888,0.2285,-0.0779,-0.3351,165.1406
19:38:21:476,-0.4512,-1.5568,8.8335,37.7747,0.6738,0.0633,-0.1745,165.5312
19:38:21:488,-0.3794,-1.7891,6.5339,36.3134,0.7691,0.1205,0.0508,165.9219
19:38:21:510,-0.3243,-1.8154,5.2769,35.668,0.5531,-0.0329,0.2031,166.2031
19:38:21:530,-0.7612,-1.4682,5.9294,35.5065,0.1436,-0.4355,0.2844,166.2188
19:38:21:555,-0.6918,-1.2264,8.4026,36.1237,-0.2229,-0.8755,0.4474,166.0312
19:38:21:572,-0.0681,-0.9068,10.2258,35.736,-0.2549,-1.0451,0.6924,165.7344
19:38:21:589,0.7004,-0.507,9.4824,35.8734,0.0655,-0.9551,0.8783,165.0781
19:38:21:611,2.1118,-0.0222,8.6456,35.977,0.2514,-0.7751,0.9597,164.3594
19:38:21:628,3.7027,0.5417,9.6104,34.0168,0.1209,-0.6363,0.882,163.3594
19:38:21:651,5.0184,0.9152,11.0853,32.9591,-0.0032,-0.4843,0.6207,162.25
19:38:21:671,4.014,0.738,11.4121,34.4507,0.032,-0.2608,0.1531,161.2812
19:38:21:689,1.9981,0.3107,11.4432,34.8982,0.1569,0.0332,-0.2453,160.5781
19:38:21:710,0.953,-0.1586,10.5226,34.0049,0.3526,0.4923,-0.2762,160.4062
19:38:21:730,0.637,-0.1826,8.6085,34.3886,0.5777,0.9221,-0.0464,160.6719
19:38:21:755,1.2391,0.4567,7.567,34.3921,0.7017,0.9296,0.2828,160.8125
19:38:21:772,2.3512,1.0529,7.3204,33.6792,0.7553,0.5626,0.4905,160.9531
19:38:21:789,2.6685,1.4252,7.5167,35.1126,0.779,0.0601,0.4351,160.7188
19:38:21:813,2.7319,1.2276,8.0806,33.3821,0.7438,-0.3279,0.242,160.1406
19:38:21:828,2.8157,0.598,8.7821,32.6072,0.6093,-0.4201,0.0654,159.5156
19:38:21:849,2.6984,-0.1203,9.6871,33.911,0.363,-0.2616,-0.0254,159.0625
19:38:21:872,2.8049,-0.5309,10.6483,32.3681,0.0948,0.0034,-0.0035,158.8594
19:38:21:891,3.17,-0.7344,10.883,32.152,-0.0895,0.3075,0.0689,158.8438
19:38:21:909,3.5328,-0.9008,10.1276,31.919,-0.1188,0.4731,0.0758,158.8281
19:38:21:929,4.0367,-0.9726,8.8862,31.4404,-0.089,0.353,0.026,158.7344
19:38:21:956,4.5659,-0.9451,8.3906,32.3508,-0.1843,-0.0379,-0.1202,158.6406
19:38:21:973,4.4102,-1.0313,9.6906,31.2108,-0.927,-0.4459,-0.6954,158.5938
19:38:21:990,3.5603,-1.6083,12.3087,31.1217,-1.0634,0.1189,-0.8347,158.5938
