Time,Acc_X,Acc_Y,Acc_Z,Meg,Gyr_X,Gyr_Y,Gyr_Z,Ore
20:02:48:124,-2.9771,2.742,7.5993,54.4609,0.3108,-1.1115,-0.9482,111.2656
20:02:48:143,-2.345,3.0712,7.6819,54.235,0.1457,-1.0145,-0.9002,111.2656
20:02:48:159,-1.8674,3.325,8.1212,55.3083,0.0083,-0.806,-0.8704,111.2656
20:02:48:182,-1.8398,3.5081,8.2853,55.1156,0.0168,-0.6728,-0.9093,156.8906
20:02:48:195,-2.0697,3.4518,8.0698,53.5983,0.0927,-0.6797,-0.9673,157.5
20:02:48:222,-2.2804,3.3705,7.8088,54.6039,0.1196,-0.758,-0.9932,158.6406
20:02:48:240,-2.8239,3.1945,8.4421,54.3174,0.0874,-0.7612,-0.9753,160.3594
20:02:48:254,-3.323,3.0748,9.1651,53.7183,0.1097,-0.2321,-0.8257,161.6406
20:02:48:278,-3.5038,3.2878,8.7593,54.4869,0.1712,0.1751,-0.6214,162.9375
20:02:48:293,-3.5266,3.5201,8.1883,54.5012,0.2043,0.2377,-0.5103,164.0312
20:02:48:314,-3.7947,3.4686,8.2206,54.314,0.1686,0.0135,-0.4789,164.8906
20:02:48:349,-3.5852,3.1945,8.9999,55.109,0.1326,-0.2403,-0.4296,165.5156
20:02:48:353,-3.7708,2.8186,9.6847,53.4196,0.1396,-0.2662,-0.4227,166.0938
20:02:48:372,-3.7791,2.651,9.6284,54.3377,0.1803,-0.0646,-0.3029,166.625
20:02:48:392,-3.5852,2.7839,9.0777,54.837,0.1795,0.0947,-0.186,167.2031
20:02:48:411,-3.1985,2.791,8.9185,52.6621,0.1025,0.0348,-0.1465,167.6875
20:02:48:439,-3.0944,2.6223,9.2884,55.0064,-0.0072,-0.1825,-0.1854,167.9688
20:02:48:450,-3.1794,2.1063,9.8535,52.6865,-0.0676,-0.3871,-0.2222,168.1562
20:02:48:470,-3.3147,1.6095,10.1084,53.8364,-0.025,-0.4528,-0.17,168.3594
20:02:48:490,-3.3278,1.4599,9.8199,54.3945,0.0802,-0.345,-0.0177,168.625
20:02:48:511,-3.1842,1.6837,9.1508,56.0038,0.1654,-0.2017,0.1658,169.0469
20:02:48:538,-2.8035,2.0668,8.4481,53.3096,0.1907,-0.1583,0.2793,169.1406
20:02:48:557,-2.4958,2.4487,7.974,54.01,0.1353,-0.2156,0.2873,169.0156
20:02:48:570,-2.339,2.6881,7.9692,54.0515,0.0352,-0.3306,0.2242,168.7656
20:02:48:589,-2.254,2.6582,8.308,52.4069,-0.0639,-0.3879,0.1057,168.5
20:02:48:609,-2.3318,2.5025,8.7557,54.3463,-0.1318,-0.2986,0.0117,168.2969
20:02:48:628,-2.1188,2.0812,8.7761,53.4755,-0.1207,-0.1442,-0.0539,168.25
20:02:48:652,-2.7437,2.4559,8.6695,53.5904,-0.0666,-0.018,-0.1418,168.25
20:02:48:667,-2.9352,2.4894,8.2769,54.3064,-0.0264,0.0548,-0.1402,168.3281
20:02:48:689,-2.764,2.3804,8.0303,52.1506,-0.0045,0.0486,-0.1487,168.3906
20:02:48:708,-3.1315,2.6869,8.2769,53.619,0.0232,-0.0044,-0.2387,168.5312
20:02:48:728,-2.8107,2.5085,9.1735,54.0191,0.1217,-0.0235,-0.2344,168.7031
20:02:48:747,-2.6982,2.4259,9.5961,53.1672,0.3571,0.0441,-0.3348,168.9062
20:02:48:770,-3.0154,2.22,8.4217,53.9139,0.5031,0.164,-0.4406,169.1875
20:02:48:786,-3.3242,1.9339,7.1995,52.4123,0.3507,0.1924,-0.4485,169.5312
20:02:48:807,-3.6594,2.1506,7.0977,54.4374,0.0218,0.1919,-0.4416,170.3281
20:02:48:825,-4.0341,2.6103,6.8846,54.735,-0.277,0.4423,-0.2025,170.8438
20:02:48:847,-3.1734,2.6665,7.6496,54.7876,-0.5281,0.3943,-0.1029,171.3281
20:02:48:871,-3.2141,2.7635,8.2469,53.8989,-0.6037,0.3576,-0.1066,171.4219
20:02:48:885,-3.1686,2.657,9.0921,54.1478,-0.5356,0.1442,-0.0688,171.375
20:02:48:906,-3.1255,2.5708,9.7577,54.5414,-0.318,-0.1117,-0.0054,171.3281
20:02:48:927,-2.9819,2.4559,10.0354,52.5152,-0.025,-0.2891,0.0894,171.3281
20:02:48:948,-2.8358,2.4355,9.8032,54.672,0.2418,-0.3849,0.2418,171.2344
20:02:48:963,-1.592,3.1885,9.863,52.7893,0.3843,-0.3863,0.3315,171.2344
20:02:48:984,-0.5075,3.8768,10.1443,53.7927,0.4972,-0.2923,0.1722,171.1719
20:02:49:014,-1.0366,4.127,9.4919,54.1774,0.58,-0.0771,-0.1977,171
20:02:49:026,-2.4384,3.6937,8.9485,55.2081,0.4868,0.0968,-0.4946,170.75
20:02:49:043,-4.3178,2.7779,9.1675,55.5039,0.3079,0.1805,-0.4595,170.7031
20:02:49:065,-3.6942,3.4255,10.142,55.6112,0.2003,0.1919,-0.2123,171.0469
20:02:49:089,-2.7448,3.2388,10.3155,53.6338,0.1694,0.0899,-0.2688,172.2031
20:02:49:109,-2.4444,3.0329,11.1703,55.4517,0.1529,-0.2283,-0.4286,172.3438
20:02:49:123,-2.4695,2.2212,11.8239,54.06,0.1784,-0.2422,-0.5415,172.5781
20:02:49:143,-2.533,1.892,11.1942,54.5235,0.2464,0.1221,-0.4896,173.0156
20:02:49:167,-2.849,2.408,9.2046,55.4457,0.2426,0.5932,-0.3157,173.3281
20:02:49:190,-2.424,2.8318,7.8016,56.7263,0.0535,0.5349,-0.0304,174
20:02:49:207,-0.9456,3.3489,8.6025,56.4891,-0.1944,0.2108,0.0319,174.5781
20:02:49:226,0.048,3.0137,9.9301,56.3596,-0.2594,-0.0198,-0.1623,174.875
20:02:49:242,0.1354,2.5002,10.7477,56.6532,-0.1356,-0.0036,-0.346,174.8281
20:02:49:262,-0.304,1.9926,9.8547,55.4563,0.0898,0.287,-0.4163,174.7188
20:02:49:283,-0.7708,2.0596,8.1201,55.7656,0.2277,0.4204,-0.3623,174.8438
20:02:49:304,-0.8834,2.2931,7.0582,55.7656,0.1947,0.2468,-0.3181,175.2031
20:02:49:324,-0.9576,2.4343,7.081,55.6186,0.0682,-0.0688,-0.3221,175.6406
20:02:49:343,-0.9755,2.4642,7.7777,54.4252,-0.0234,-0.3072,-0.3327,176.0312
20:02:49:363,-0.9851,2.645,8.2386,56.1285,-0.0738,-0.2712,-0.3444,176.7812
20:02:49:382,-0.966,2.7611,8.5187,56.1095,-0.081,-0.1349,-0.3758,176.9844
20:02:49:405,-1.2904,2.8318,8.6133,55.5676,-0.017,-0.0422,-0.4536,177.4219
20:02:49:425,-1.847,2.8413,8.2517,55.0416,0.0732,0.0257,-0.5103,177.8281
20:02:49:443,-2.2959,2.8234,7.9058,55.8085,0.1188,-0.0323,-0.5204,178.2812
20:02:49:467,-2.3666,2.5672,8.0458,56.9836,0.1172,-0.1543,-0.4781,178.8438
20:02:49:496,-2.3366,2.3505,8.1787,56.0089,0.1217,-0.2377,-0.419,179.4688
20:02:49:507,-2.3905,2.1937,8.3403,56.6715,0.1153,-0.3282,-0.3423,180.0625
20:02:49:522,-2.5138,2.0117,8.6659,55.9342,0.1217,-0.3698,-0.2363,180.625
20:02:49:542,-2.6084,2.0919,8.6635,55.4539,0.1566,-0.2731,-0.0776,181.1406
20:02:49:566,-2.2457,2.4714,8.2098,55.4977,0.1862,-0.101,0.0865,181.5469
20:02:49:595,-1.8063,2.8485,7.4233,53.9815,0.1768,0.0662,0.1642,181.8125
20:02:49:614,-1.6674,3.5728,6.9637,55.4006,0.1081,0.1402,0.1797,181.875
20:02:49:623,-1.7321,3.7619,6.7805,54.4978,0.0402,0.0705,0.0692,181.75
20:02:49:643,-2.594,3.7296,7.1947,56.1946,0.0037,-0.0864,-0.0171,181.5625
20:02:49:668,-3.0908,3.3597,7.5957,56.2731,0.0312,-0.2012,0.0199,181.4688
20:02:49:695,-3.2081,3.4746,7.634,55.1629,0.0914,-0.1924,0.1611,181.3906
20:02:49:704,-2.995,3.9582,7.5371,54.3665,0.1148,-0.1037,0.2737,181.4375
20:02:49:724,-2.9424,4.4227,7.4461,55.7405,0.0759,0.0473,0.2979,181.3906
20:02:49:748,-3.1171,4.7256,7.3395,55.7614,-0.0202,0.2345,0.2636,181.1875
20:02:49:762,-3.5517,4.8537,7.5,54.8065,-0.1547,0.4002,0.234,180.8594
20:02:49:783,-4.1694,4.8656,7.9477,55.376,-0.274,0.5419,0.2569,180.5469
20:02:49:806,-4.6626,4.7543,8.7473,54.5954,-0.319,0.6473,0.3475,180.1875
20:02:49:822,-4.9894,4.8034,9.5183,54.5958,-0.2724,0.7762,0.4836,179.7812
20:02:49:842,-5.1402,4.9386,9.7325,53.5902,-0.1947,0.9019,0.6103,179.2969
20:02:49:862,-4.8984,5.2511,9.8175,54.9745,-0.1835,0.8952,0.6969,178.6406
20:02:49:882,-3.8965,5.0488,10.2449,52.8207,-0.2384,0.5514,0.6199,177.8125
20:02:49:906,-3.8055,4.0289,11.8239,52.8702,-0.2993,0.104,0.3842,176.9062
20:02:49:923,-4.0581,2.475,13.501,55.5779,-0.2461,-0.0201,0.2836,175.9219
20:02:49:945,-4.0641,1.5928,13.7452,53.7965,-0.065,0.1909,0.3789,175.2188
20:02:49:962,-3.5253,1.4048,12.6463,55.4306,0.0871,0.4063,0.5344,174.625
20:02:49:982,-2.5605,1.4563,11.5043,54.4495,0.146,0.4138,0.6194,174.1562
20:02:50:005,-1.8985,1.4132,10.5873,53.8018,0.1984,0.3392,0.6029,173.4844
20:02:50:023,-1.543,1.5281,9.1232,51.9595,0.2557,0.3253,0.5704,172.7344
20:02:50:098,-1.2353,1.9028,7.6292,53.9994,0.225,0.2295,0.5259,172.0781
20:02:50:098,-0.9288,2.3792,7.0067,53.8844,0.1214,-0.0454,0.4322,171.4219
20:02:50:099,-0.7229,2.7527,6.8894,52.6348,0.0317,-0.3271,0.2641,170.8438
20:02:50:108,-0.8522,2.8976,6.8822,52.31,-0.0961,-0.5101,0.0367,170.6094
20:02:50:125,-1.2257,2.7252,7.3204,53.2548,-0.2695,-0.5647,-0.1577,170.2656
20:02:50:144,-1.5178,2.3254,7.8783,51.7091,-0.3931,-0.4236,-0.268,170.2188
20:02:50:163,-1.7872,2.0536,7.7968,51.5739,-0.4293,-0.1216,-0.2872,170.4375
20:02:50:184,-2.2026,2.0512,7.3324,53.572,-0.4112,0.1797,-0.2328,170.7344
20:02:50:214,-2.5653,1.971,6.8368,52.8948,-0.326,0.3219,-0.1186,170.9844
20:02:50:226,-2.533,2.2272,6.0084,52.7281,-0.1888,0.2952,0.074,171.1094
20:02:50:243,-2.3797,2.894,5.2303,53.2734,-0.0916,0.1293,0.2207,171.1094
20:02:50:263,-2.0828,3.5177,4.8867,53.5731,-0.0842,-0.1269,0.2436,170.9375
20:02:50:284,-1.8566,3.9283,5.1213,52.1151,-0.1689,-0.3303,0.1331,170.6406
20:02:50:308,-2.0745,4.0073,6.0874,50.686,-0.3065,-0.4166,-0.0445,170.375
20:02:50:323,-3.6307,3.2076,9.0047,50.7117,-0.425,-0.2712,-0.2408,170.2344
20:02:50:343,-4.3274,2.8761,10.2617,50.8117,-0.3316,-0.0765,-0.1127,170.2344
20:02:50:364,-4.2699,3.2029,10.452,50.3435,-0.1518,0.1336,0.1006,170.2812
20:02:50:391,-3.8821,3.7679,9.9361,50.8685,-0.0037,0.1908,0.2284,170.4844
20:02:50:407,-3.6642,4.036,9.6571,48.7162,0.0735,0.0548,0.2433,170.7031
20:02:50:425,-3.5194,3.9295,9.7673,49.3959,0.0951,-0.158,0.2343,170.7656
20:02:50:449,-3.3446,3.5751,10.367,51.6506,0.0735,-0.3407,0.2436,170.3125
20:02:50:462,-2.8538,3.2208,11.1391,50.6344,0.0666,-0.4771,0.2849,170.0469
20:02:50:484,-1.6124,3.1035,11.5462,49.231,0.1041,-0.5474,0.2865,169.8281
20:02:50:514,-0.3447,3.3333,11.2971,48.3797,0.0988,-0.5764,0.1022,169.625
20:02:50:522,0.0851,3.0185,11.4671,48.3538,-0.0173,-0.5919,-0.2856,169.3906
20:02:50:542,-0.5793,2.0022,12.28,47.4588,-0.1995,-0.4323,-0.6898,169.1719
20:02:50:562,-1.944,0.6866,13.3981,48.9749,-0.2895,-0.1655,-0.8858,169.1875
20:02:50:581,-2.6742,-0.2831,13.7776,48.7237,-0.1286,0.1317,-0.7649,169.5781
20:02:50:604,-2.0086,-0.1107,12.2644,48.9549,0.2394,0.3118,-0.4445,170.4062
20:02:50:626,-0.5314,0.8769,9.8451,48.0574,0.5531,0.14,-0.2533,171.3906
20:02:50:642,0.5376,1.6741,8.1655,48.2324,0.6429,-0.267,-0.3306,172.1875
20:02:50:663,0.7866,1.977,7.488,47.8444,0.5393,-0.5524,-0.5564,172.7031
20:02:50:681,0.3964,1.9507,7.1504,47.6408,0.351,-0.5098,-0.7673,173.0781
20:02:50:703,-0.1902,1.9782,6.8068,47.7521,0.1569,-0.2851,-0.8725,173.5938
20:02:50:724,-0.6379,2.0704,6.662,47.0046,0.0091,-0.0584,-0.8813,175.4531
20:02:50:748,-0.8989,2.3062,6.6201,48.1876,-0.036,0.0414,-0.8435,176
20:02:50:762,-1.179,2.572,6.8188,50.0155,0.0392,-0.0398,-0.8065,177
20:02:50:782,-1.2533,2.7336,6.9014,46.4936,0.2053,-0.1937,-0.7684,177.9844
20:02:50:805,-1.2604,2.9,6.802,46.8423,0.3494,-0.2952,-0.7346,178.9219
20:02:50:823,-1.1527,3.0329,6.6811,46.5599,0.4317,-0.3074,-0.7157,179.875
20:02:50:842,-1.0402,3.2029,6.571,46.5805,0.4405,-0.2211,-0.7372,180.7812
20:02:50:863,-1.0928,3.2771,6.7039,47.4147,0.3891,-0.1362,-0.7982,181.7344
20:02:50:882,-1.4687,3.2531,7.2043,46.1926,0.3358,-0.096,-0.86,182.6875
20:02:50:903,-2.0122,3.1969,7.8926,45.6411,0.3183,-0.0635,-0.876,183.625
20:02:50:923,-2.6048,3.2232,8.2865,46.0061,0.3428,0.0015,-0.8344,184.6719
20:02:50:943,-3.0621,3.4746,8.4481,46.018,0.3686,0.0486,-0.7489,185.75
20:02:50:964,-3.675,3.6482,8.733,44.5501,0.3662,0.0449,-0.6648,186.75
20:02:50:983,-4.4519,3.659,9.389,44.7449,0.3478,-0.0025,-0.538,187.7344
20:02:51:006,-5.1833,3.6673,10.3359,43.9351,0.3233,-0.0715,-0.346,188.1875
20:02:51:022,-5.5161,3.7811,11.4396,44.9076,0.3388,-0.1365,-0.1125,189.0156
20:02:51:046,-5.5916,3.8553,12.1076,46.437,0.4498,-0.1413,0.1059,189.9375
20:02:51:062,-5.163,4.0133,11.4983,44.0485,0.5654,-0.0297,0.3115,190.2969
20:02:51:082,-4.3669,4.3114,10.2353,45.2035,0.4834,0.1645,0.3816,190.4062
20:02:51:104,-4.1024,4.6765,9.4704,45.0955,0.1513,0.3134,0.2988,190.375
20:02:51:122,-4.3645,4.0133,10.6938,44.0948,-0.2141,0.1813,0.1467,189.9844
20:02:51:145,-4.829,2.4343,12.8366,45.4521,-0.2439,-0.0563,0.0987,189.5938
20:02:51:162,-5.1977,1.0948,13.2245,44.0567,0.0914,-0.0214,0.2726,189.2812
20:02:51:182,-4.975,1.1378,10.962,43.5303,0.482,0.201,0.6487,189.1094
20:02:51:205,-3.5397,2.2691,7.9333,43.2473,0.5609,0.1578,0.9214,188.9219
20:02:51:223,-2.102,3.0748,6.7769,44.214,0.3183,-0.2222,0.8543,188.4531
20:02:51:242,-1.4807,2.9036,7.6783,43.708,-0.0136,-0.5128,0.5968,187.6406
20:02:51:262,-1.5118,2.2141,8.7988,43.708,-0.192,-0.4209,0.3957,186.6719
20:02:51:284,-1.5837,1.8118,8.6552,42.6702,-0.1569,-0.063,0.3477,185.9531
20:02:51:307,-1.2281,1.8824,6.9697,43.1267,-0.0445,0.2891,0.3693,185.5156
20:02:51:324,-0.6954,2.238,4.8029,43.0019,0.0045,0.402,0.3531,185.125
20:02:51:341,-0.6643,2.4918,3.5232,43.5423,-0.0264,0.1956,0.2806,184.4219
20:02:51:361,-0.8953,2.4164,3.3544,43.7302,-0.1052,-0.1303,0.2159,183.9531
20:02:51:382,-1.3694,2.159,4.2714,44.9278,-0.2072,-0.3301,0.2287,183.5781
20:02:51:403,-1.5418,2.1709,5.6421,42.6813,-0.274,-0.2808,0.3467,183.3438
20:02:51:423,-1.343,2.6318,6.5746,44.6984,-0.273,-0.1072,0.4447,183.1094
20:02:51:447,-1.1934,3.2328,7.1265,43.0071,-0.237,-0.003,0.4314,182.7344
20:02:51:462,-1.2066,3.7404,7.81,41.7824,-0.2072,-0.0179,0.3334,182.2031
20:02:51:484,-1.4843,3.9738,8.6169,44.784,-0.1744,-0.113,0.1994,181.6719
20:02:51:509,-2.023,4.0001,9.5949,43.5129,-0.1089,-0.1801,0.124,181.2656
20:02:51:523,-2.1212,4.145,9.9684,43.8439,-0.0123,-0.1301,0.1126,181.1406
20:02:51:542,-2.1666,4.2336,10.1659,45.5453,-0.0085,-0.0686,0.0852,180.9688
20:02:51:562,-2.3845,4.0648,10.9308,44.0024,-0.0767,-0.0148,0.0503,180.8594
20:02:51:583,-2.7317,3.6458,11.9675,44.3599,-0.1201,0.0121,0.0652,180.7656
20:02:51:608,-2.8562,3.2364,12.7983,43.3399,-0.0583,0.0145,0.2061,180.7031
20:02:51:624,-1.8578,3.0927,12.5685,44.1192,0.0916,0.0225,0.4247,180.625
20:02:51:643,-0.602,3.3022,11.545,43.6671,0.1545,-0.0302,0.5187,180.3281
20:02:51:662,0.1833,3.6398,10.519,44.7341,0.0349,-0.0944,0.4026,179.8594
20:02:51:683,0.1545,3.4076,10.5131,44.384,-0.2504,-0.1772,0.1057,179.2969
20:02:51:708,-0.5134,2.4583,11.9232,45.1217,-0.4818,-0.2185,-0.126,178.875
20:02:51:724,-0.9971,1.7639,13.003,44.2013,-0.4091,-0.1128,-0.1053,178.75
20:02:51:749,1.2655,2.9431,9.4991,45.1789,0.2623,-0.2278,0.0559,178.875
20:02:51:763,2.107,3.3154,8.0614,45.0559,0.2325,-0.6718,-0.2789,178.9531
20:02:51:783,1.4977,2.657,8.46,45.6493,-0.0059,-0.8204,-0.717,178.8906
20:02:51:812,0.2204,1.9531,8.7318,43.7042,-0.1787,-0.4941,-0.9484,179.3906
20:02:51:828,-0.6822,1.7591,7.8782,46.5895,-0.2133,0.0007,-0.9343,179.3906
20:02:51:841,-0.9049,2.0285,6.3855,42.7367,-0.1587,0.2383,-0.8094,180.3281
20:02:51:861,-0.9061,2.3577,5.3883,45.4108,-0.0924,0.1014,-0.6922,181.4844
20:02:51:881,-0.8917,2.6079,5.4122,45.6412,-0.0139,-0.2363,-0.6235,182.5312
20:02:51:907,-0.9923,2.6366,5.7845,44.668,0.0791,-0.4315,-0.5889,184.1094
20:02:51:927,-1.027,2.736,5.7582,46.3752,0.1284,-0.329,-0.5426,184.4844
20:02:51:942,-1.0498,3.1035,5.4625,45.5259,0.0826,-0.1226,-0.5338,185.25
20:02:51:961,-1.2293,3.4195,5.6097,46.7106,-0.0144,-0.0065,-0.5846,185.9531
20:02:51:982,-1.707,3.6697,6.1867,46.6714,-0.0977,0.0545,-0.6454,186.6094
20:02:52:004,-2.3522,3.9367,7.0331,45.2178,-0.1441,0.0694,-0.6813,187.2656
20:02:52:025,-3.2536,3.8601,8.3547,46.72,-0.1547,0.018,-0.6802,187.6094
20:02:52:041,-3.9982,3.5728,9.9277,47.4177,-0.1012,0.0401,-0.5513,188.2812
20:02:52:063,-4.2412,3.708,10.9093,45.781,0.0093,0.1975,-0.3367,189.0312
20:02:52:082,-4.3514,3.9331,11.2744,46.7385,0.1188,0.3389,-0.1441,190.3906
20:02:52:108,-4.3861,3.9115,11.6252,45.7106,0.1979,0.3925,0.0303,190.3906
20:02:52:146,-4.0246,3.6985,12.1375,46.5115,0.2916,0.3826,0.2146,190.7188
20:02:52:146,-3.7708,3.4949,12.3027,47.1083,0.432,0.4047,0.3683,190.8438
20:02:52:161,-3.3494,3.6985,11.0757,45.9893,0.5177,0.5046,0.4982,190.7812
20:02:52:182,-3.1818,4.4155,9.808,47.7701,0.3369,0.5613,0.5422,190.3438
20:02:52:204,-2.9651,4.4957,9.644,47.4147,-0.0663,0.5118,0.4593,189.8438
20:02:52:222,-3.4823,3.8732,11.2517,48.253,-0.4093,0.2705,0.3653,189.2188
20:02:52:246,-3.3649,2.554,13.1347,46.8257,-0.4501,0.0907,0.3746,188.5781
20:02:52:261,-3.6534,1.7089,13.1778,48.527,-0.1736,0.1626,0.4782,188
20:02:52:283,-3.2943,1.7436,10.9452,48.557,0.1276,0.2383,0.6838,187.4531
20:02:52:308,-2.2612,2.3026,8.5402,47.3854,0.1585,0.0694,0.7648,186.9375
20:02:52:323,-1.5992,2.5337,7.9189,47.2432,-0.0381,-0.2672,0.6175,186.2344
20:02:52:342,-1.5861,2.1686,8.5175,47.9127,-0.2226,-0.4068,0.4077,185.3594
20:02:52:366,-1.8351,1.7232,8.5654,47.5798,-0.274,-0.2196,0.3027,184.5781
20:02:52:385,-2.2768,1.5485,7.7094,48.6524,-0.2621,0.1325,0.3339,184.0781
20:02:52:404,-2.2373,1.661,6.5327,47.3899,-0.2551,0.3783,0.4647,183.7188
20:02:52:422,-1.8434,1.9758,5.6504,48.18,-0.2783,0.4428,0.5688,183.3438
20:02:52:442,-1.4232,2.2523,5.5642,47.8589,-0.3188,0.3139,0.6005,182.8125
20:02:52:461,-1.1156,2.2966,6.3472,49.8156,-0.2826,0.124,0.5848,182.0781
20:02:52:481,-0.875,2.2691,7.336,50.1708,-0.1151,0.013,0.5685,181.6719
20:02:52:505,-0.7995,2.396,7.5203,48.8148,0.13,0.034,0.5177,180.5312
20:02:52:524,-0.7253,2.6103,6.9613,47.3539,0.2693,0.0899,0.4402,179.8125
20:02:52:541,-0.711,2.7515,6.6991,49.7858,0.237,0.1642,0.3294,179.1875
20:02:52:561,-0.8283,2.9251,7.0151,48.9287,0.1134,0.2204,0.2071,178.6719
20:02:52:581,-0.9169,3.1047,7.6927,49.3563,0.0408,0.2119,0.0969,178.2656
20:02:52:609,-1.0905,3.3704,8.2254,48.1793,0.0357,0.181,-0.0267,177.9531
20:02:52:626,-1.543,3.5165,8.6109,49.2995,0.0152,0.104,-0.1623,177.75
20:02:52:641,-1.8961,3.3501,9.2214,49.6705,-0.0668,-0.0241,-0.2896,177.6719
20:02:52:661,-2.0469,2.8066,10.2916,49.1192,-0.1987,-0.1567,-0.3894,177.75
20:02:52:680,-2.1295,2.0201,11.7114,48.4467,-0.3318,-0.2771,-0.4334,178
20:02:52:701,-1.6687,1.746,12.4978,48.4298,-0.3425,-0.2568,-0.3258,178.3906
20:02:52:721,-0.5649,2.6893,11.2708,49.4563,-0.269,-0.276,-0.2246,178.8438
20:02:52:742,-0.3554,3.55,10.5681,48.7697,-0.3553,-0.5517,-0.3636,179.2969
20:02:52:762,-1.0857,2.6689,11.8802,47.7443,-0.6008,-0.6941,-0.6328,179.5625
20:02:52:781,-2.9448,1.1522,13.7057,49.6151,-0.792,-0.3501,-0.6901,180.1406
20:02:52:801,-4.0497,0.5237,14.2564,49.5573,-0.7103,0.2366,-0.3069,180.8906
20:02:52:825,-2.9232,1.2492,13.1311,49.1955,-0.3105,0.4169,0.2615,181.6094
20:02:52:841,-0.2106,2.5588,11.1188,48.955,0.1971,0.0279,0.5549,181.7969
20:02:52:865,1.858,3.4626,9.3124,48.8425,0.4986,-0.5279,0.34,181.375
20:02:52:881,2.3261,3.4937,8.3439,47.7193,0.4631,-0.7852,-0.1873,180.7656
20:02:52:900,1.4378,2.7228,8.0734,48.6288,0.2296,-0.5908,-0.7045,180.5469
20:02:52:924,0.0588,1.8801,7.4664,48.1142,0.0093,-0.113,-0.9942,180.9688
20:02:52:942,-1.0725,1.4778,6.5614,48.4093,-0.1422,0.2505,-1.0472,181.9062
20:02:52:961,-1.7788,1.4287,6.1113,48.5358,-0.1747,0.2691,-0.9468,183.0625
20:02:52:982,-2.1152,1.3916,5.9533,47.9626,-0.0567,-0.0451,-0.7713,183.5781
20:02:53:004,-2.1152,1.6131,6.2454,48.2278,0.0807,-0.3897,-0.5495,184.6719
20:02:53:027,-1.592,2.0093,6.6069,48.357,0.1958,-0.513,-0.3663,185.6094
20:02:53:041,-1.1515,2.408,6.7147,48.2697,0.2876,-0.427,-0.2837,186.375
20:02:53:063,-1.0545,2.7492,6.4896,48.3361,0.314,-0.2126,-0.2813,186.9844
20:02:53:084,-1.2078,3.0472,6.2562,48.3254,0.2663,-0.0198,-0.3095,187.6562
20:02:53:106,-1.4185,3.2867,6.4645,48.0844,0.2045,0.0204,-0.3354,188.0469
20:02:53:121,-1.7285,3.4507,7.0151,48.7,0.1979,-0.0555,-0.3415,188.4375
20:02:53:142,-2.0541,3.9558,8.2601,47.9564,0.3422,-0.2142,-0.2397,188.8594
20:02:53:164,-2.26,4.0851,8.648,48.4717,0.4272,-0.1903,-0.166,189.2812
20:02:53:181,-2.3845,4.3114,8.4995,48.8064,0.4152,0.0231,-0.1308,189.6562
20:02:53:202,-3.3853,4.2647,8.6456,47.599,0.2197,0.2635,-0.0797,190.0156
20:02:53:224,-3.7588,4.1761,9.5973,48.269,-0.123,0.5714,0.0676,190.3125
20:02:53:243,-3.6642,4.4514,11.758,48.269,-0.3747,0.6377,0.1882,190.5
20:02:53:262,-3.7923,4.4275,13.7261,48.3615,-0.2991,0.4843,0.193,190.5938
20:02:53:280,-4.0688,3.9654,14.5293,47.8493,0.0075,0.1557,0.2207,190.3906
20:02:53:300,-4.1179,3.4937,14.1798,46.183,0.2863,-0.166,0.3363,190.0312
20:02:53:325,-3.3937,3.0053,13.507,46.4034,0.395,-0.3314,0.4804,189.6719
20:02:53:340,-2.3067,2.6833,12.7217,47.5975,0.3726,-0.3445,0.5456,189.4062
20:02:53:360,-1.5011,2.4595,12.1315,44.9298,0.2802,-0.2371,0.5105,189.0938
20:02:53:381,-1.2832,2.2164,10.792,45.6147,0.2128,0.0249,0.4186,188.6875
20:02:53:401,-1.4783,2.0105,8.7856,44.8427,0.1185,0.206,0.3403,188.1875
20:02:53:424,-1.6746,1.8777,7.0786,43.9277,-0.0607,0.1879,0.3099,187.6875
20:02:53:442,-1.9691,1.8477,6.4968,44.6193,-0.3113,0.009,0.3177,187.25
20:02:53:467,-2.0649,1.7556,7.1743,43.5,-0.5087,-0.137,0.3837,186.8438
20:02:53:480,-1.8039,1.5796,7.8723,43.7196,-0.5129,-0.1951,0.4796,186.4531
20:02:53:501,-1.592,1.6083,8.1021,42.2967,-0.3523,-0.1738,0.5824,186.0312
20:02:53:531,-1.2556,1.7831,7.6364,43.5984,-0.1262,-0.1125,0.6865,185.2812
20:02:53:543,-0.802,2.0883,6.7625,41.4935,0.0639,-0.0694,0.743,184.6406
20:02:53:561,-0.3794,2.4152,5.8432,43.3162,0.1537,-0.0752,0.719,183.9375
20:02:53:580,-0.0394,2.7168,5.3655,40.6742,0.1249,-0.1173,0.6109,183.125
20:02:53:600,0.0025,2.8784,5.5259,40.5428,0.0091,-0.1389,0.4489,182.3125
20:02:53:624,-0.2333,2.8605,6.2969,40.157,-0.1065,-0.1229,0.2905,181.5781
20:02:53:643,-0.4584,2.9682,7.1983,40.9579,-0.1483,-0.052,0.1856,181.0312
20:02:53:661,-0.5577,3.2759,8.2398,39.2611,-0.1196,-0.0195,0.0982,180.625
20:02:53:681,-0.6403,3.4327,9.0358,40.5075,-0.0487,-0.0142,-0.0123,180.3594
20:02:53:702,-0.5913,3.5871,9.4907,39.5687,0.0011,0.0361,-0.1367,180.1875
20:02:53:724,-0.7206,3.3657,9.8092,38.2052,-0.0168,0.0811,-0.2919,180.1406
20:02:53:741,-1.009,2.8617,10.3766,39.1711,-0.0879,0.0846,-0.3963,180.2188
20:02:53:761,-1.3957,2.1985,11.2852,38.5242,-0.1784,0.0654,-0.4328,180.4531
20:02:53:781,-1.2521,1.6622,12.2094,39.2228,-0.1867,0.1096,-0.3037,180.6094
20:02:53:802,-0.5434,1.6382,11.8766,38.0081,-0.0812,0.1661,-0.1175,181.0312
20:02:53:824,0.0851,2.238,10.5286,36.764,-0.0202,0.0683,-0.0216,181.4844
20:02:53:847,0.4526,2.6031,9.6595,38.5243,-0.1779,-0.206,-0.1367,181.8594
20:02:53:861,0.133,2.1614,10.6256,37.7737,-0.5055,-0.4678,-0.4027,181.8906
20:02:53:881,-0.8726,1.339,12.4655,36.9935,-0.7673,-0.4475,-0.5444,181.9375
20:02:53:900,-1.361,0.8529,14.2803,37.7552,-0.7862,-0.2379,-0.4336,182.25
20:02:53:921,-0.5326,0.9691,14.1882,38.4185,-0.4464,-0.096,-0.2083,182.8125
20:02:53:940,0.6741,1.807,12.4009,37.5541,-0.0296,-0.1458,-0.1308,183.3594
20:02:53:961,1.196,2.3924,10.3131,37.6724,0.2264,-0.2725,-0.313,183.6719
20:02:53:981,0.7866,2.3086,8.3954,37.4844,0.2834,-0.2611,-0.5583,183.7969
20:02:54:001,0.1713,2.1829,6.7841,37.7252,0.2181,-0.161,-0.7061,184.0625
20:02:54:025,-0.2178,2.1865,5.7905,37.1578,0.1278,-0.1037,-0.7719,184.6406
20:02:54:042,-0.3578,2.2236,5.3452,36.1737,0.0647,-0.0981,-0.8145,185.4062
20:02:54:066,-0.535,2.1362,5.0866,38.5184,0.0208,-0.0925,-0.8571,186.2969
20:02:54:080,-0.93,2.0584,5.3524,37.5678,-0.021,-0.0595,-0.8672,187.2344
20:02:54:104,-1.3514,1.9591,5.8264,36.3556,-0.0045,0.0662,-0.8331,188.2188
20:02:54:121,-1.604,2.0465,5.7929,37.5449,0.0589,0.2311,-0.7668,189.1719
20:02:54:140,-1.841,2.3338,6.1736,38.9656,0.089,0.3189,-0.7332,190.6094
20:02:54:203,-2.09,2.4008,6.9254,37.7019,0.1276,0.4034,-0.7229,191.4219
20:02:54:204,-2.6263,2.3338,6.838,38.5149,0.1664,0.5075,-0.6619,192.2344
20:02:54:204,-3.359,2.6246,6.9601,38.6787,0.1294,0.4886,-0.4994,193.0156
20:02:54:227,-3.7217,3.1909,7.5406,39.0189,0.0498,0.4044,-0.3031,193.7344
20:02:54:256,-4.1251,3.6829,8.3295,37.5439,-0.0392,0.2678,-0.1535,194.2344
20:02:54:265,-4.7225,3.7056,11.0553,39.2694,-0.2029,0.071,0.1656,194.6719
20:02:54:289,-4.9296,3.5488,12.7468,40.3548,-0.2085,-0.0185,0.3541,194.6719
20:02:54:304,-5.0732,3.3262,14.2025,38.7379,-0.1103,-0.0728,0.5786,194.5312
20:02:54:324,-4.8769,3.3214,14.3905,38.4357,0.0461,-0.0278,0.8503,194.2031
20:02:54:344,-3.8905,3.726,13.6291,40.1224,0.1246,0.0159,1.0807,193.6562
20:02:54:364,-3.0226,3.9941,13.3777,38.4573,0.0706,-0.0986,1.0964,192.8906
20:02:54:384,-2.8861,3.3154,14.2229,40.1869,0.0692,-0.2488,0.9765,191.7812
20:02:54:408,-3.1255,2.1877,14.017,38.6388,0.2796,-0.0845,0.9627,190.5156
20:02:54:426,-3.1459,1.7975,11.4516,38.244,0.4772,0.2987,1.0894,188.9062
20:02:54:442,-2.5928,1.995,8.7485,40.2003,0.4024,0.4236,1.2087,187.8594
20:02:54:462,-1.7441,2.2883,7.8447,40.6197,0.1276,0.1629,1.2061,186.625
20:02:54:482,-1.0366,2.0979,8.4002,39.6595,-0.1092,-0.2086,1.0529,185.3125
20:02:54:501,-0.9109,1.564,8.8718,38.2788,-0.2056,-0.3564,0.8692,183.9062
20:02:54:525,-1.1288,1.1019,8.5654,40.5839,-0.1912,-0.2473,0.7917,182.7344
20:02:54:543,-1.3754,0.7452,7.7789,39.3936,-0.1087,-0.0824,0.8495,181.7656
20:02:54:562,-1.3802,0.6853,6.9253,39.6982,0.0051,0.0513,1.0023,181.7656
20:02:54:581,-0.9995,0.8493,6.5483,37.8787,0.1478,0.0617,1.1661,180.9219
20:02:54:601,-0.5087,1.0924,6.2705,39.0468,0.3289,-0.0417,1.2663,179.9531
20:02:54:621,-0.0454,1.3928,6.1137,38.3134,0.4554,-0.202,1.287,178.7969
20:02:54:640,0.4059,1.5987,6.1867,39.5371,0.4986,-0.2832,1.2463,177.5312
20:02:54:660,0.6573,1.8777,6.1951,37.8743,0.4693,-0.1983,1.1438,176.125
20:02:54:681,0.8955,2.3194,6.2645,37.0763,0.3675,-0.064,1.0098,174.75
20:02:54:702,1.1074,2.7635,6.6476,37.7622,0.2495,0.0233,0.834,172.875
20:02:54:726,1.1912,3.1741,7.1707,38.1204,0.1662,0.0436,0.6308,171.7031
20:02:54:746,1.3325,3.5416,7.6412,38.027,0.1001,0.0633,0.4103,171.1562
20:02:54:760,1.4773,3.9331,7.8914,37.927,-0.0146,0.1096,0.1432,170.2188
20:02:54:780,1.4606,4.0121,8.8671,37.7279,-0.2413,0.1576,-0.1849,169.5469
20:02:54:800,1.0548,3.4518,10.3754,37.6359,-0.4639,0.2585,-0.5071,169.0625
20:02:54:824,-0.0705,2.5014,11.9592,38.8121,-0.5792,0.4239,-0.6773,168.875
20:02:54:842,-0.9001,1.8741,13.0653,36.5823,-0.4988,0.6132,-0.5561,169.0156
20:02:54:860,-0.7612,2.0536,12.7337,36.3621,-0.2274,0.6755,-0.3063,169.5
20:02:54:886,-0.183,2.712,10.8483,36.7344,-0.0402,0.5211,-0.1631,170.125
20:02:54:900,0.6154,3.0472,9.6404,37.3626,-0.1827,0.1208,-0.2302,170.5938
20:02:54:921,0.8716,2.7563,11.2493,36.303,-0.502,-0.3607,-0.476,170.7656
20:02:54:942,0.2072,1.8777,13.5417,36.1979,-0.6155,-0.386,-0.6997,170.8438
20:02:54:960,-0.8127,1.2037,13.6267,36.5676,-0.4919,0.0383,-0.685,171.0625
20:02:54:980,-0.6906,1.4886,11.9077,38.2761,-0.3049,0.4031,-0.4813,171.5781
20:02:55:000,-0.0059,2.1865,9.8535,38.5336,-0.1768,0.3597,-0.4059,172.7812
20:02:55:024,0.3413,2.4307,8.6133,37.9079,-0.1137,0.0185,-0.4978,173.3594
20:02:55:041,0.303,2.2835,7.7118,37.4932,-0.0945,-0.1727,-0.636,173.7031
20:02:55:060,-0.0909,2.1518,6.5938,37.684,-0.1348,-0.1133,-0.7431,174.1562
20:02:55:083,-0.4045,2.0656,5.7175,36.1353,-0.204,-0.0299,-0.7764,174.8125
20:02:55:108,-0.7289,2.0093,5.3224,38.4873,-0.245,-0.0273,-0.7639,176.4531
20:02:55:122,-0.8319,1.9782,5.5355,37.1612,-0.2032,-0.108,-0.7213,176.4531
20:02:55:143,-0.5757,1.9124,6.7314,37.5061,0.0035,-0.2954,-0.7458,177.3125
20:02:55:160,-2.7772,1.9519,6.9649,36.592,0.3912,-0.3218,-0.6504,178.1406
20:02:55:181,-2.0769,1.8753,6.1652,37.5806,0.58,-0.1935,-0.333,178.9219
20:02:55:200,-1.7716,3.313,5.5978,37.0143,0.5009,-0.0188,-0.2943,179.875
20:02:55:223,-2.3678,4.3461,5.8887,37.0143,0.2408,0.0308,-0.4712,180.5156
20:02:55:241,-2.3295,4.467,6.8811,39.3308,-0.1041,0.0446,-0.5852,180.7031
20:02:55:260,-3.1351,4.4778,9.4704,38.154,-0.3577,0.144,-0.754,181.1094
20:02:55:285,-4.1311,4.2647,11.2193,37.0141,-0.3321,0.4076,-0.7556,182
20:02:55:316,-5.0205,4.2108,11.679,36.9774,-0.1696,0.6356,-0.6139,182.6719
20:02:55:321,-5.4563,4.2216,11.4612,37.6593,-0.0208,0.7158,-0.3551,183.4688
20:02:55:342,-5.2552,4.042,11.4911,39.7153,0.0469,0.5445,-0.0733,184.1719
20:02:55:364,-4.4435,3.5871,12.0501,39.5038,0.0589,0.2409,0.1818,184.625
20:02:55:379,-3.5816,3.307,12.8414,39.4508,0.0069,-0.0579,0.4053,184.7656
20:02:55:399,-2.758,3.2651,14.157,37.9853,-0.0415,-0.3799,0.5797,184.6562
20:02:55:424,-2.0194,2.7048,15.7456,39.7271,0.0498,-0.6568,0.6713,184.3125
20:02:55:441,-1.6698,1.7783,16.0161,39.751,0.3593,-0.5471,0.7736,183.7812
20:02:55:465,-1.4412,1.5173,13.3669,40.5688,0.7188,-0.1396,0.9523,183.1406
20:02:55:483,-0.9049,2.141,9.6404,40.7316,0.7896,0.0196,1.0687,182.4531
20:02:55:499,-0.2489,2.7372,7.6652,40.6241,0.5148,-0.3042,0.9837,181.5938
20:02:55:521,0.0899,2.6354,7.9417,40.0181,0.1188,-0.754,0.7552,180.5781
20:02:55:541,-0.0993,2.1183,8.9544,41.335,-0.1539,-0.9791,0.5102,179.5
20:02:55:567,-0.3854,1.5712,9.4859,41.3323,-0.2109,-0.884,0.3406,178.3438
20:02:55:579,-0.9791,1.1438,8.9257,41.4758,-0.1617,-0.4939,0.2684,177.9375
20:02:55:599,-1.7369,1.0217,7.5586,41.8133,-0.1404,-0.0462,0.3302,177.6875
20:02:55:619,-2.0445,1.0576,6.5171,43.3574,-0.1404,0.111,0.4836,177.4531
20:02:55:639,-1.9176,0.9607,6.1712,41.7589,-0.1044,0.0119,0.6748,177.0781
20:02:55:660,-1.4783,0.9296,6.3627,42.3222,0.0005,-0.1831,0.8745,176.5
20:02:55:684,-0.9121,0.8936,6.7278,44.0968,0.1952,-0.3663,1.0418,175.7188
20:02:55:699,-0.2561,1.1115,6.5842,43.8243,0.4181,-0.4936,1.1581,174.7969
20:02:55:720,0.5185,1.6047,6.2801,45.9013,0.5449,-0.496,1.1659,174.2656
20:02:55:739,1.0715,2.1638,6.085,44.2389,0.55,-0.3953,1.0319,173.0938
20:02:55:759,1.4342,2.7013,5.7965,44.1123,0.4607,-0.2563,0.7938,171.875
20:02:55:779,1.4594,3.2352,5.9725,44.9582,0.2384,-0.1136,0.4889,170.7812
20:02:55:800,1.105,3.4949,6.7697,45.6199,-0.032,0.0585,0.1587,169.8125
20:02:55:825,0.4778,3.4471,7.7657,45.9531,-0.2306,0.2257,-0.1143,169.125
20:02:55:839,0.1593,3.4231,8.721,45.9978,-0.3539,0.3136,-0.2816,168.7812
20:02:55:859,0.1761,3.1502,9.5278,47.6235,-0.4232,0.3014,-0.4097,168.7969
20:02:55:879,0.4969,2.809,10.4712,46.3907,-0.5191,0.2135,-0.5106,169.0312
20:02:55:899,1.4091,2.2093,12.3985,47.8918,-0.5691,0.0875,-0.5876,169.3906
20:02:55:923,1.8891,1.6107,13.1646,46.6933,-0.4261,0.1349,-0.6336,169.9062
20:02:55:941,1.7706,1.406,11.5306,48.3503,-0.3758,0.2942,-0.6126,170.5312
20:02:55:960,1.6677,1.3174,10.7034,48.327,-1.2996,0.0191,-0.591,171.2031
20:02:55:981,0.3999,0.6602,13.4711,48.3052,-1.6631,0.091,-0.6376,171.2031
20:02:55:999,-0.6463,0.3382,14.515,48.7976,-1.5638,0.4947,-0.4025,171.7969
20:02:56:021,0.0109,0.9343,13.5992,49.521,-1.0402,0.6108,0.0071,172.3281
20:02:56:044,1.5396,1.9327,11.3031,48.9577,-0.4405,0.1187,0.1722,173.4688
20:02:56:060,2.5595,2.6318,10.3167,49.5051,-0.0389,-0.7335,-0.0025,173.4688
20:02:56:085,2.8013,2.7467,10.2389,50.1559,0.1827,-1.2225,-0.3785,173.5625
20:02:56:110,2.3249,2.3745,10.5825,48.3416,0.2471,-1.1597,-0.7958,173.6094
20:02:56:119,1.706,1.6466,10.2246,50.8087,0.2517,-0.5913,-1.125,173.6094
20:02:56:139,0.7076,1.2959,8.7928,51.3153,0.2237,0.0811,-1.3226,173.9688
20:02:56:160,0.0707,1.084,7.4329,50.5992,0.1982,0.4958,-1.3716,175
20:02:56:179,-0.5697,1.0481,6.3663,50.9456,0.2581,0.5847,-1.3316,177.0625
20:02:56:199,-0.9169,1.1079,5.4661,51.7378,0.3723,0.4209,-1.2081,177.8281
20:02:56:248,-0.9504,1.4156,4.8484,49.909,0.4408,0.1695,-1.0581,179.3594
20:02:56:248,-0.7636,1.91,4.7155,52.5654,0.4123,-0.0726,-0.9561,180.7656
20:02:56:258,-0.6547,2.3206,5.3045,53.4538,0.293,-0.2454,-0.9383,182.1406
20:02:56:279,-0.9073,2.5684,6.4453,51.764,0.1614,-0.3074,-0.9593,183.375
20:02:56:299,-1.3418,2.6642,7.6652,53.733,0.0778,-0.2688,-0.9391,184.5156
20:02:56:319,-1.6974,2.8712,8.8311,53.5149,0.0229,-0.1495,-0.8643,185.5781
20:02:56:339,-2.1726,3.0628,9.6763,54.9895,0.032,0.0316,-0.7663,186.7344
20:02:56:360,-2.8634,3.2316,9.6392,52.3371,0.0461,0.2012,-0.6137,187.8438
20:02:56:380,-3.4631,3.3585,9.9803,54.5183,-0.0447,0.2244,-0.394,188.7969
20:02:56:398,-3.5984,3.4303,11.3247,56.6781,-0.1401,0.1315,-0.1343,190.3594
20:02:56:418,-3.4236,3.404,12.9575,56.3091,-0.1113,0.0316,0.1051,190.6094
20:02:56:442,-3.3015,3.4016,13.659,56.6425,0.009,0.059,0.3363,190.875
20:02:56:460,-2.9208,3.6266,13.4531,54.8842,0.089,0.1288,0.5592,190.8594
20:02:56:481,-2.2564,3.8972,13.4603,56.1756,0.0764,0.0532,0.6857,190.6094
20:02:56:499,-1.756,3.4902,14.3282,56.022,0.0594,-0.1205,0.695,190.1094
20:02:56:518,-1.6351,2.6905,15.0932,55.1362,0.1912,-0.101,0.7115,189.375
20:02:56:543,-1.4196,2.0584,13.9547,57.1339,0.4314,0.1323,0.7858,188.5938
20:02:56:559,-0.8941,1.5904,11.7832,55.4088,0.555,0.205,0.8511,187.8281
20:02:56:585,-0.189,1.3438,10.5166,55.7495,0.5135,-0.0345,0.8548,187.0312
20:02:56:598,0.4215,1.248,10.6124,56.1833,0.4045,-0.2965,0.7667,186.1094
20:02:56:620,0.5292,1.1271,10.8878,56.0998,0.3696,-0.3146,0.6127,185.1562
20:02:56:641,0.3174,0.8697,10.0701,56.5541,0.4128,-0.1274,0.4953,184.3281
20:02:56:666,-0.1447,0.6494,8.7114,54.418,0.4711,0.0486,0.4878,183.625
20:02:56:679,-0.4955,0.6434,7.1935,55.1526,0.5388,0.1272,0.6133,183.0625
20:02:56:699,-0.3147,0.9834,5.8923,53.2735,0.5755,0.0825,0.8122,182.5781
20:02:56:719,0.5352,1.6502,4.9322,54.1885,0.5633,-0.0406,0.9515,182.3125
20:02:56:739,1.2714,2.2703,4.6604,54.2278,0.5215,-0.2339,0.9382,181.2031
20:02:56:768,1.5994,2.5073,5.2518,54.4676,0.4711,-0.3839,0.8071,180.2031
20:02:56:778,1.5815,2.4475,5.8252,54.1153,0.4485,-0.3013,0.6588,179.2188
20:02:56:800,1.19,2.5373,5.9497,54.5419,0.3931,-0.0949,0.5371,178.2969
20:02:56:823,0.8153,2.6151,6.2657,54.0326,0.285,0.0601,0.4567,177.5625
20:02:56:843,0.7555,2.7444,6.6357,53.2683,0.2152,0.1128,0.4252,176.9844
20:02:56:861,1.0739,3.1693,6.9852,53.6552,0.1803,0.0617,0.3794,176.4375
20:02:56:878,1.4845,3.6314,7.2797,53.5162,0.1427,-0.0158,0.2412,175.9219
20:02:56:898,1.603,3.8876,7.4832,53.3484,0.0165,-0.1029,0.0015,175.4531
20:02:56:919,1.4989,3.6434,8.4373,53.5018,-0.2402,-0.1865,-0.2659,175.1094
20:02:56:940,1.1038,2.9898,10.1348,54.8663,-0.5654,-0.1072,-0.497,174.9688
20:02:56:959,0.5364,2.1817,12.1339,54.2851,-0.853,0.2276,-0.6089,175.1562
20:02:56:979,0.1222,1.4647,12.8414,55.1737,-0.9436,0.7094,-0.5359,175.5938
20:02:56:998,0.394,1.4551,12.1902,54.7468,-0.8392,0.8476,-0.3527,176.5156
20:02:57:018,0.8441,1.7532,11.2804,53.065,-0.7225,0.5581,-0.2935,176.9375
20:02:57:039,1.05,1.6418,11.7281,53.6622,-0.734,0.0561,-0.3918,177.1094
20:02:57:062,0.8082,0.8027,13.586,51.7595,-0.7806,-0.1434,-0.492,177.2969
20:02:57:079,0.5101,0.3969,14.5736,54.4304,-0.6485,0.0782,-0.4161,177.6875
20:02:57:098,1.2044,0.6506,13.3825,55.5258,-0.3419,0.2939,-0.2403,178.1875
20:02:57:119,2.52,1.3066,11.1727,55.4567,-0.078,0.1693,-0.2089,178.5938
20:02:57:139,3.1365,1.6945,9.7493,51.835,0.0344,-0.1929,-0.4408,178.7969
20:02:57:164,2.6421,1.4946,9.0933,54.264,0.0336,-0.345,-0.7679,179.5312
20:02:57:188,0.6262,1.1594,6.7063,53.1684,-0.0938,0.0928,-1.0792,179.9531
20:02:57:210,-0.1471,1.2779,5.8276,53.1684,-0.2059,0.2412,-1.0589,181.0156
20:02:57:222,-0.7325,1.3138,5.6816,54.0473,-0.2439,0.2486,-0.9572,182.2188
20:02:57:243,-0.9827,1.5137,5.6648,53.4351,-0.1521,0.1312,-0.807,183.3594
20:02:57:262,-1.0773,1.7819,5.496,54.886,-0.025,-0.0118,-0.6597,184.4688
20:02:57:282,-1.0138,2.2643,5.3009,54.6175,0.0362,-0.0832,-0.546,185.8594
20:02:57:305,-0.9911,2.7324,5.32,53.728,0.0131,-0.1149,-0.5141,186.5781
20:02:57:321,-1.2137,3.0472,5.7977,55.5797,-0.0772,-0.1136,-0.5471,187.2188
20:02:57:342,-1.5549,3.1873,6.5327,55.4305,-0.1928,-0.0523,-0.5924,187.8281
20:02:57:362,-2.1834,3.2531,7.561,55.4039,-0.3236,0.0588,-0.6147,188.4219
20:02:57:380,-2.9711,3.1765,8.8407,55.8228,-0.4344,0.2316,-0.57,188.4219
20:02:57:402,-3.9958,3.0377,9.8786,56.2144,-0.4993,0.5315,-0.4224,189.0938
20:02:57:428,-4.7859,3.1454,10.5322,54.7683,-0.555,0.8343,-0.1623,190.3125
20:02:57:443,-4.8697,3.6506,11.5497,56.1106,-0.5824,0.7698,0.0838,190.6875
20:02:57:458,-4.683,3.6051,13.6794,57.1618,-0.4253,0.3317,0.2303,190.6875
20:02:57:478,-4.8218,3.0664,14.9016,55.8908,-0.0418,0.042,0.3845,190.7188
20:02:57:498,-4.6051,2.8521,14.0876,56.2163,0.294,0.1139,0.6263,190.4844
20:02:57:518,-4.1048,3.1825,12.7971,56.2045,0.3089,0.3656,0.8143,190.1562
20:02:57:542,-3.5996,3.1334,12.5469,57.9219,0.1007,0.6369,0.886,189.7031
20:02:57:560,-3.4008,2.6139,12.9707,58.4409,-0.049,0.7605,0.9507,188.1406
20:02:57:579,-3.2883,1.9543,13.4687,58.0152,0.037,0.5887,1.1115,187.0938
20:02:57:598,-2.5773,1.3689,13.0509,58.897,0.33,0.2771,1.3573,186.5156
20:02:57:619,-1.3323,1.1127,11.4468,58.1836,0.6168,-0.0318,1.5659,185.2812
20:02:57:646,0.0001,1.5173,9.6895,58.5312,0.7041,-0.3532,1.612,183.9219
20:02:57:660,0.9422,2.1183,8.8,58.4122,0.5521,-0.6864,1.3989,182.2969
20:02:57:679,1.0631,1.7903,9.0227,57.6612,0.2727,-0.8371,1.0263,180.5781
20:02:57:698,0.4047,1.1307,9.4393,56.0415,0.0455,-0.6829,0.739,179.75
20:02:57:718,-0.4177,0.6758,9.4524,56.6519,-0.0218,-0.3729,0.666,178.3906
20:02:57:741,-0.4584,0.3094,8.8515,56.95,0.1116,-0.1213,0.7651,177.375
20:02:57:759,0.6513,0.3286,8.1045,57.7116,0.3941,-0.0568,0.846,176.625
20:02:57:779,-1.1288,0.343,6.4357,56.7243,0.7412,-0.0646,0.9009,175.9531
20:02:57:799,-0.7529,0.1838,4.8927,56.5854,0.7747,-0.0621,1.2775,175.1094
20:02:57:819,-0.2956,0.6111,4.6868,55.9978,0.6591,-0.1271,1.5153,174.1875
20:02:57:843,0.8465,1.1378,4.8939,56.8301,0.6112,-0.3088,1.6245,173.25
20:02:57:861,1.9741,1.9028,5.1512,53.5713,0.6259,-0.558,1.4916,171.125
20:02:57:878,2.5667,2.5923,5.3536,56.5179,0.6195,-0.7589,1.1414,169.3906
20:02:57:897,2.4554,2.9503,5.6265,55.6373,0.5169,-0.7991,0.6711,167.7969
20:02:57:918,1.7623,2.8976,5.7378,57.1157,0.3145,-0.5791,0.2279,166.4375
20:02:57:939,0.8955,2.8006,5.6588,56.9191,-0.0237,-0.1937,-0.0584,165.5938
20:02:57:959,0.5029,2.991,6.2251,54.9365,-0.4759,0.0761,-0.2078,165.2812
20:02:57:978,0.7016,3.1059,8.4086,54.9165,-0.8615,0.0263,-0.3447,165.2969
20:02:57:998,0.9362,2.8329,11.0937,57.1337,-1.0022,-0.2249,-0.5473,165.4688
20:02:58:019,0.8979,2.0405,13.0018,55.7288,-0.9883,-0.3136,-0.7271,165.7344
20:02:58:042,0.7651,1.4635,13.41,53.709,-1.0189,-0.0334,-0.7553,166.1875
20:02:58:060,0.9973,1.6754,13.2245,54.8346,-1.1995,0.2446,-0.7367,166.9688
20:02:58:079,1.3038,1.7999,14.2169,54.3673,-1.3769,0.1387,-0.8027,167.8438
20:02:58:099,0.9123,0.987,16.2268,56.797,-1.3747,0.0199,-0.9149,168.625
20:02:58:119,-0.2656,-0.0772,17.3497,53.8466,-1.044,0.2763,-0.8302,169.375
20:02:58:140,-0.5051,-0.2759,15.2955,53.8476,-0.4727,0.6513,-0.4579,170.2969
20:02:58:159,0.9135,0.434,11.7197,55.4497,-0.0168,0.6263,-0.0374,170.7969
20:02:58:181,2.7008,1.5197,9.2848,55.7236,0.1965,0.0638,0.0713,172.0625
20:02:58:199,3.5543,2.1805,8.4564,55.7675,0.2357,-0.6015,-0.1838,172.0938
20:02:58:219,3.3137,1.983,8.2517,54.9641,0.1763,-0.7879,-0.578,171.9688
20:02:58:244,2.2746,1.5317,7.6101,55.5179,0.0839,-0.4789,-0.8797,172.0312
20:02:58:261,1.1469,1.2169,6.7063,55.5698,-0.0501,0.0228,-1.0041,172.5781
20:02:58:314,0.461,1.2647,5.9677,54.2851,-0.1707,0.4225,-0.9948,173.5156
20:02:58:314,0.139,1.491,5.6636,54.7862,-0.1979,0.4974,-0.9447,174.6562
20:02:58:323,-0.0609,1.7651,5.7342,56.7023,-0.1071,0.295,-0.8968,175.7188
20:02:58:340,-0.2465,2.0249,6.0359,53.4147,0.0394,0.0367,-0.8587,176.7656
20:02:58:357,-0.4464,2.408,6.2107,56.717,0.1614,-0.161,-0.8187,177.75
20:02:58:378,-0.5984,2.7815,6.5183,54.9612,0.1875,-0.2624,-0.8022,178.6875
20:02:58:397,-0.8702,3.0867,7.1779,53.8769,0.1225,-0.226,-0.7988,179.6562
20:02:58:418,-0.9073,3.3238,8.1428,54.5788,0.0282,-0.1183,-0.7961,180.625
20:02:58:446,-1.0426,3.4566,8.9844,54.7287,-0.0365,0.0249,-0.8198,181.5781
20:02:58:463,-1.2521,3.4566,9.7637,56.0503,-0.0927,0.1911,-0.8355,182.9375
20:02:58:478,-1.5872,3.3561,10.2341,55.3878,-0.1225,0.3608,-0.8299,183.8594
20:02:58:499,-1.9536,3.2148,10.5957,54.6192,-0.1649,0.3885,-0.783,184.75
20:02:58:517,-2.1427,2.7743,11.5138,53.5475,-0.2541,0.2857,-0.6909,185.6562
20:02:58:541,-2.1499,2.2404,13.1431,53.6798,-0.3052,0.1568,-0.5585,186.5
20:02:58:565,-2.0086,1.7125,14.345,55.8483,-0.2461,0.1142,-0.3932,187.2344
20:02:58:580,-1.8578,1.7244,14.2803,54.0599,-0.1515,0.194,-0.2208,187.7969
20:02:58:598,-1.6746,1.8693,13.8757,54.7814,-0.1478,0.1658,-0.101,188.2188
20:02:58:617,-1.8949,1.5497,14.5892,53.8345,-0.1606,0.0513,-0.0246,188.4375
20:02:58:642,-2.515,0.7883,15.1482,52.4398,0.0189,0.0662,0.1464,188.5312
20:02:58:659,-2.5725,0.2041,13.8769,52.611,0.3561,0.1866,0.4516,188.5312
20:02:58:678,-1.6878,0.2233,11.3762,53.3906,0.5816,0.153,0.784,188.3594
20:02:58:699,-0.2357,0.6925,9.8475,54.7928,0.5622,-0.174,0.931,188.1562
20:02:58:718,0.7291,0.9751,9.8762,53.2444,0.4301,-0.5072,0.8277,187.5156
20:02:58:742,0.8644,0.7739,9.8379,52.8757,0.33,-0.4947,0.6101,186.5625
20:02:58:760,0.4131,0.5656,8.9951,52.0488,0.2445,-0.1921,0.4367,185.2188
20:02:58:780,-0.5913,0.7033,7.0546,51.1286,0.183,0.2827,0.4444,184.625
20:02:58:800,-0.4895,0.8051,6.2598,50.6545,0.2597,0.1754,0.5448,184.1719
20:02:58:820,-0.371,1.0529,5.7666,51.0289,0.3313,-0.0757,0.6215,183.7344
20:02:58:841,-0.1471,1.1797,5.7677,50.7998,0.3736,-0.3439,0.6734,182.625
20:02:58:860,0.23,1.3533,6.1365,50.8221,0.4165,-0.5341,0.7006,182.625
20:02:58:878,0.4945,1.4874,6.4585,51.1994,0.4586,-0.5402,0.6721,181.9375
20:02:58:897,0.6549,1.6945,6.3675,51.5285,0.4666,-0.382,0.6242,181.25
20:02:58:920,0.9925,2.0572,6.2897,52.955,0.4141,-0.2214,0.5576,180.5938
20:02:58:940,1.2702,2.4846,6.1436,50.6897,0.3337,-0.1703,0.4439,179.9375
20:02:58:962,1.5145,2.7695,6.4453,50.7773,0.2107,-0.2289,0.2753,179.2969
20:02:58:980,1.5755,2.8102,7.2426,49.7448,0.0815,-0.2576,0.0513,178.75
20:02:58:998,1.6521,2.5696,7.8471,50.2021,-0.0557,-0.2371,-0.1814,178.2812
20:02:59:018,1.8951,2.1099,8.5893,49.6236,-0.2855,-0.2805,-0.407,177.9844
20:02:59:042,1.9717,1.3737,10.6004,50.5605,-0.5835,-0.2832,-0.632,178.0781
20:02:59:059,1.3133,0.5537,12.596,50.1671,-0.7345,0.0034,-0.7609,178.4531
20:02:59:077,0.6801,-0.0401,12.6918,48.6413,-0.7095,0.4423,-0.7015,179.0938
20:02:59:098,0.7519,0.0593,11.4037,48.8791,-0.6959,0.6348,-0.5314,179.875
20:02:59:119,1.5097,0.3693,10.5178,49.407,-0.7942,0.3062,-0.4552,180.6719
20:02:59:140,2.4099,0.313,11.3714,49.9245,-0.9819,-0.4465,-0.5724,181.2656
20:02:59:160,2.1274,-0.5692,14.4503,49.5414,-1.1673,-0.9652,-0.8113,181.4844
20:02:59:178,0.7986,-1.5209,17.6083,49.5415,-1.1026,-0.4808,-0.8105,181.8906
20:02:59:197,0.2383,-1.497,16.2687,47.7622,-0.5878,0.541,-0.4765,182.5469
20:02:59:218,1.129,-0.5261,11.794,50.3209,0.0019,0.944,-0.0746,183.5
20:02:59:240,2.4757,1.0421,8.2948,49.5106,0.2967,0.5267,0.0615,184.4219
20:02:59:261,3.5519,2.0836,7.1013,49.1045,0.3009,-0.2766,-0.1758,184.875
20:02:59:281,3.4693,2.1829,7.4293,49.0077,0.183,-0.7029,-0.6339,184.8906
20:02:59:297,2.702,1.7735,7.7154,49.0819,0.0652,-0.6244,-1.0123,184.7969
20:02:59:317,1.8808,1.4611,7.7394,48.8714,-0.0354,-0.2568,-1.2549,185.3438
20:02:59:342,1.0715,1.2288,7.5263,48.3293,-0.0988,0.1647,-1.3905,186.375
20:02:59:358,0.376,1.0876,7.2031,47.8896,-0.1225,0.4487,-1.4246,187.7344
20:02:59:377,-0.128,1.1319,7.1013,46.6355,-0.0842,0.5136,-1.3745,189.1875
20:02:59:397,-0.3231,1.3904,6.9673,47.4187,0.0072,0.3954,-1.3024,190.7812
20:02:59:417,-0.4428,1.5916,6.9756,46.8918,0.069,0.2124,-1.2627,192.3594
20:02:59:444,-0.4871,1.7592,7.476,46.9757,0.0695,0.0683,-1.2342,193.7812
20:02:59:460,-0.5338,1.9315,8.1967,47.0085,0.0514,0.067,-1.2052,195.2188
20:02:59:480,-0.7625,2.0668,8.8874,46.3769,0.0418,0.1434,-1.1655,196.6406
20:02:59:499,-0.8582,2.1805,9.4105,46.4852,0.0615,0.2556,-1.0877,198.0469
20:02:59:518,-1.0222,2.3278,9.6775,47.1816,0.1055,0.3642,-0.999,199.3438
20:02:59:543,-1.2485,2.5648,9.5781,46.0708,0.1443,0.4859,-0.8973,200.625
20:02:59:561,-1.4891,2.7408,9.5242,46.683,0.1278,0.5365,-0.7844,201.8125
20:02:59:586,-1.7105,2.7049,9.8714,46.7544,0.0799,0.4758,-0.6459,202.8281
20:02:59:598,-1.8063,2.5708,10.5837,46.1473,0.0381,0.3309,-0.4709,204.2031
20:02:59:618,-1.3957,2.4044,11.5402,47.1245,0.025,0.1781,-0.2786,204.9219
20:02:59:641,-0.699,2.4343,12.2848,47.5641,0.008,0.0707,-0.1516,205.4062
20:02:59:660,-0.2872,2.6905,12.9408,45.9431,-0.0554,0.0247,-0.1287,205.7344
20:02:59:677,-0.0729,2.7121,13.4268,46.278,-0.1377,0.0359,-0.1865,205.8281
20:02:59:697,-0.1711,2.3577,14.0457,47.2374,-0.184,-0.0446,-0.2496,205.9688
20:02:59:718,-0.3411,1.7232,15.0537,44.3681,-0.0839,-0.2174,-0.236,206.1094
20:02:59:742,-0.3219,0.9379,15.6391,44.3317,0.228,-0.2907,-0.1503,206.3438
20:02:59:758,0.0863,0.3154,14.8502,46.0194,0.7047,-0.2563,-0.0033,206.625
20:02:59:777,0.947,0.3681,12.4631,46.5254,1.0541,-0.2867,0.087,206.8594
20:02:59:797,1.712,0.3777,10.9428,45.2412,1.1148,-0.5293,-0.0278,207.0312
20:02:59:817,1.7012,0.0293,10.4652,46.2643,1.0389,-0.6576,-0.239,207.0781
20:02:59:840,1.0835,-0.349,9.6583,43.9989,0.9776,-0.5495,-0.4046,207.1719
20:02:59:861,0.2647,-0.3537,8.2924,43.3083,0.9159,-0.3458,-0.4475,207.4844
20:02:59:877,-0.3052,0.0305,6.8703,43.4168,0.832,-0.1825,-0.3671,208.3594
20:02:59:897,-0.2513,0.3956,5.6672,43.9029,0.7228,-0.1863,-0.2619,208.9844
20:02:59:918,-0.055,0.8326,5.1105,42.0297,0.5744,-0.3213,-0.2153,209.4844
20:02:59:941,0.0109,1.1343,5.1441,41.7977,0.4325,-0.4808,-0.2238,209.875
20:02:59:961,-0.0023,1.169,5.3667,41.683,0.3145,-0.5897,-0.2477,210.2188
20:02:59:977,0.0755,1.2157,5.9713,43.121,0.2192,-0.6049,-0.243,210.5625
20:02:59:997,0.2587,1.406,6.5243,40.5518,0.1878,-0.5295,-0.2437,210.9531
20:03:00:018,0.2623,1.6418,6.7003,42.6312,0.1678,-0.4076,-0.2669,211.3438
20:03:00:043,0.3317,1.8848,6.7446,42.2196,0.1119,-0.2872,-0.2872,211.3438
20:03:00:059,0.5292,2.1841,6.9421,43.2648,0.0405,-0.2249,-0.3338,212.0781
20:03:00:077,0.7292,2.5421,7.3539,42.5445,-0.016,-0.1972,-0.4249,212.4531
20:03:00:098,0.6106,2.7934,7.6544,40.3928,-0.041,-0.17,-0.5468,212.6562
20:03:00:119,0.364,2.9742,7.6891,41.3132,-0.077,-0.1413,-0.6475,213.0938
20:03:00:143,0.3748,3.0855,7.9094,41.3008,-0.1933,-0.1548,-0.7327,214.0156
20:03:00:162,0.4921,2.9323,8.782,40.4462,-0.3976,-0.1974,-0.8446,214.7656
20:03:00:178,0.5927,2.3709,10.8387,40.2367,-0.6469,-0.2395,-0.954,215.5781
20:03:00:197,1.773,-0.6997,14.4803,41.5037,-0.49,0.1877,-0.9197,216.5469
20:03:00:219,2.2854,-1.1606,13.0353,41.1533,-0.2684,0.6367,-0.8006,216.5469
20:03:00:241,2.9689,-0.1119,10.3945,41.254,-0.1446,0.7509,-0.7375,217.6406
20:03:00:261,3.7291,1.7208,7.9656,40.6103,-0.216,0.1661,-1.0014,218.6875
20:03:00:281,2.9833,2.548,8.5055,40.7466,-0.5934,-0.7261,-1.549,221.2656
20:03:00:297,1.4462,1.3282,11.9005,39.7839,-0.9585,-0.97,-1.9572,221.2656
20:03:00:367,-0.3159,-0.1215,13.9236,39.017,-1.0551,-0.2981,-1.9844,222.3281
20:03:00:367,-0.8486,-0.3765,13.8266,40.825,-0.8903,0.3765,-1.664,226.375
20:03:00:367,0.1055,0.0329,12.6511,39.3771,-0.5699,0.3727,-1.3564,226.375
20:03:00:376,0.9375,0.4854,11.9915,39.2152,-0.2418,0.0044,-1.231,228.4844
20:03:00:399,1.05,0.6051,10.95,38.5373,0.1561,-0.2749,-1.2504,230.2969
20:03:00:417,0.6382,0.6686,8.6037,38.8004,0.4365,-0.2763,-1.2778,232.4844
20:03:00:437,0.4239,1.0385,6.3364,39.4094,0.4445,-0.1559,-1.2717,233.8281
20:03:00:457,0.2359,1.4551,5.1022,39.1689,0.2722,-0.1437,-1.2981,235.3125
20:03:00:477,0.1366,1.6311,5.2638,37.8711,0.0658,-0.2638,-1.3221,236.8281
20:03:00:497,0.127,1.7771,6.3053,38.4888,-0.0402,-0.3823,-1.33,238.25
20:03:00:517,0.1294,2.0321,7.1492,39.1194,-0.0487,-0.3905,-1.3471,239.7812
20:03:00:543,0.1306,2.2727,7.634,39.4601,-0.028,-0.3322,-1.3918,241.3125
20:03:00:562,-0.1028,2.4535,8.1775,39.1189,-0.0362,-0.2422,-1.4539,242.0938
20:03:00:577,-0.3949,2.6007,8.7677,36.9425,-0.0562,-0.1088,-1.4861,243.5625
20:03:00:597,-0.7852,2.6031,9.2956,38.5795,-0.0442,0.0087,-1.4944,245.1719
20:03:00:616,-1.4699,2.657,9.7493,37.0096,-0.0075,0.095,-1.4531,246.8438
20:03:00:636,-2.0218,2.6582,10.1443,37.2902,0.0559,0.209,-1.334,248.5469
20:03:00:658,-2.3163,2.6965,10.0294,37.7406,0.1268,0.3174,-1.1543,250.1719
20:03:00:679,-2.3869,2.7994,9.9684,37.029,0.1638,0.3051,-0.9612,251.8281
20:03:00:697,-2.4144,2.7049,10.4173,35.1537,0.1662,0.1682,-0.79,254.0469
20:03:00:717,-2.3067,2.2703,11.2325,36.6817,0.1369,0.0412,-0.6102,255.1875
20:03:00:736,-2.1583,1.8801,12.2884,38.0637,0.0754,0.0212,-0.415,256.2031
20:03:00:758,-2.1631,1.6885,13.3801,37.0825,0.0392,0.0958,-0.219,257.0156
20:03:00:776,-2.2205,1.7639,13.744,35.1934,0.0906,0.2399,-0.0158,257.5781
20:03:00:797,-2.1499,1.8585,13.246,35.7391,0.168,0.2739,0.1698,257.9531
20:03:00:817,-2.1798,1.7999,13.0952,35.7901,0.2442,0.1341,0.3278,258.0781
20:03:00:837,-2.169,1.5185,13.021,35.1191,0.4029,-0.0225,0.503,258
20:03:00:861,-1.7381,1.2827,12.1543,36.0909,0.5918,-0.1583,0.6932,257.7344
20:03:00:878,-0.802,1.2205,11.1308,38.1432,0.678,-0.3857,0.8138,257.2969
20:03:00:898,0.194,1.4443,10.9249,36.9099,0.6314,-0.6845,0.7896,256.6562
20:03:00:918,0.8297,1.4347,11.4073,38.0772,0.543,-0.826,0.6109,255.8906
20:03:00:938,0.7675,1.2073,11.5845,36.9294,0.5182,-0.7112,0.3925,255.0312
20:03:00:961,0.297,1.0157,10.6579,37.803,0.5936,-0.4755,0.2444,254.3125
20:03:00:977,-0.1088,0.7189,9.0813,37.3835,0.6972,-0.2302,0.2306,253.8594
20:03:00:997,-0.3159,0.659,7.233,37.5438,0.7862,-0.0206,0.339,253.5781
20:03:01:018,-0.3147,0.9547,5.514,38.274,0.7843,0.0252,0.4913,253.2812
20:03:01:043,0.1007,1.3653,4.8232,38.1813,0.7044,-0.154,0.5962,252.9531
20:03:01:061,0.6501,1.6861,5.1297,38.3813,0.6184,-0.3655,0.5922,252.4375
20:03:01:079,0.9698,1.8729,5.6397,38.5809,0.5665,-0.4542,0.5057,252.125
20:03:01:100,0.9997,1.8286,6.0479,39.6807,0.5231,-0.4153,0.3906,251.5
20:03:01:116,0.8644,1.8777,6.3675,41.2015,0.482,-0.2861,0.3185,250.9688
20:03:01:136,0.8896,2.2212,6.3448,38.8416,0.4336,-0.1713,0.262,250.5312
20:03:01:159,0.9219,2.4762,6.5016,38.8416,0.367,-0.1727,0.1746,250.2031
20:03:01:177,0.935,2.7037,6.7075,38.132,0.2948,-0.1769,0.083,249.9219
20:03:01:197,1.0919,2.8844,6.7829,39.3392,0.1617,-0.1343,-0.0384,249.7031
20:03:01:220,1.2271,2.882,7.2809,41.0804,-0.0924,-0.0568,-0.1998,249.5938
20:03:01:236,1.451,2.7551,8.5666,39.8896,-0.4115,-0.003,-0.3881,249.5938
20:03:01:256,1.3564,2.4056,10.5825,41.6458,-0.6661,-0.003,-0.5985,249.7344
20:03:01:287,1.0201,1.5257,12.426,41.151,-0.7731,0.0798,-0.7282,250.0625
20:03:01:295,0.88,0.8601,13.0054,40.5843,-0.7553,0.2612,-0.6786,250.9531
20:03:01:316,1.5252,1.1139,12.043,40.0334,-0.7673,0.3645,-0.582,251.75
20:03:01:337,1.9933,1.4766,11.8801,42.1834,-0.9542,0.2297,-0.6581,252.4688
20:03:01:357,1.7227,0.9786,13.3777,41.4059,-1.1252,0.0806,-0.8134,253.0781
20:03:01:377,0.7327,0.3909,14.685,41.7081,-1.1241,0.3488,-0.8081,253.7344
20:03:01:397,0.194,0.0269,14.4886,42.9417,-0.8634,0.7475,-0.5649,254.625
20:03:01:416,0.9446,0.325,12.6702,42.9417,-0.4112,0.7208,-0.1822,255.4688
20:03:01:436,2.6661,1.0672,10.701,42.9168,0.0421,0.1666,0.0479,255.9844
20:03:01:460,3.7901,1.8142,9.286,43.7638,0.3569,-0.5777,-0.0448,256.125
20:03:01:479,3.8608,2.0381,8.3966,41.434,0.392,-0.9261,-0.3551,256.0625
20:03:01:497,2.9929,1.819,7.974,43.9966,0.2152,-0.7442,-0.6587,256.1719
20:03:01:520,2.1693,1.6765,7.5023,43.652,-0.0136,-0.2808,-0.8294,256.6406
20:03:01:537,1.5575,1.892,7.3288,44.2388,-0.2072,0.1139,-0.901,257.4688
20:03:01:558,1.1649,2.1159,7.5862,43.361,-0.2503,0.2862,-0.9391,257.9531
20:03:01:578,0.795,2.335,7.7693,45.551,-0.1667,0.3006,-0.9609,258.9375
20:03:01:599,0.3437,2.6642,7.6568,45.6476,0.0503,0.4745,-0.9655,260.4531
20:03:01:618,0.0959,2.8916,7.1887,44.5053,0.1547,0.4731,-0.962,261.5156
20:03:01:644,-0.4321,3.0939,7.0379,46.2414,0.2136,0.3038,-0.9476,263.625
20:03:01:661,-0.7313,3.1849,7.3611,44.856,0.2373,0.1325,-0.8976,263.625
20:03:01:677,-0.9468,3.3465,7.9393,46.2556,0.2482,0.0303,-0.847,264.7188
20:03:01:696,-1.4041,3.4363,8.5702,45.2838,0.2384,0.0383,-0.8059,265.7812
20:03:01:716,-1.9141,3.4351,9.067,49.1975,0.2322,0.1426,-0.7298,266.7812
20:03:01:737,-2.3175,3.465,9.474,46.6836,0.2189,0.1895,-0.6121,267.7656
20:03:01:759,-2.4228,3.4111,10.1336,47.4995,0.2205,0.1317,-0.4741,268.7031
20:03:01:778,-2.5294,3.2843,10.8734,47.8566,0.2413,0.0012,-0.3378,269.5
20:03:01:796,-2.4839,3.0329,11.5689,48.6178,0.2543,-0.0555,-0.19,270.2031
20:03:01:816,-2.2744,3.0472,11.9364,49.9906,0.2128,0.0617,-0.0573,270.7656
20:03:01:836,-1.7465,3.1741,11.8849,50.4464,0.1047,0.2199,0.0194,271.1719
20:03:01:859,-1.4831,3.1131,12.2417,49.6355,-0.0778,0.2191,-0.027,271.3906
20:03:01:876,-1.8422,2.4211,13.7955,50.1423,-0.1771,-0.0238,-0.1191,271.4688
20:03:01:896,-2.5725,1.1199,15.2308,50.0982,-0.0349,-0.1413,-0.0877,271.4375
20:03:01:916,-3.1016,0.076,14.6239,52.6297,0.2916,0.0766,0.1456,271.5
20:03:01:937,-2.8167,0.076,11.4492,52.6304,0.5529,0.3514,0.4916,271.6406
20:03:01:957,-2.114,0.6698,8.6552,52.0479,0.5212,0.2673,0.7227,271.6562
20:03:01:979,-1.6914,1.0864,7.9381,51.8834,0.3137,-0.117,0.7938,271.3281
20:03:01:996,-1.3969,1.0792,8.879,51.7934,0.1723,-0.3692,0.8204,270.6094
20:03:02:016,-1.2413,1.0529,9.2537,51.5467,0.1979,-0.3176,0.8457,270.2031
20:03:02:036,-1.1599,1.0493,8.5917,52.2589,0.3004,-0.1495,0.9009,269.3281
20:03:02:062,-0.96,1.3138,7.2821,51.8904,0.3736,-0.003,0.9874,268.4844
20:03:02:076,-0.5494,1.6167,6.3531,53.5638,0.3683,0.0201,1.0439,267.5625
20:03:02:096,-0.116,1.7879,6.1772,53.7487,0.3585,-0.0121,1.0551,266.5781
20:03:02:115,0.2407,2.0931,5.9725,52.6147,0.3691,-0.0321,1.0213,265.5312
20:03:02:136,0.467,2.4104,5.8659,52.9759,0.3497,-0.0483,0.9278,263.1875
20:03:02:157,0.5364,2.6342,5.9126,54.057,0.3004,-0.0238,0.813,262.6094
20:03:02:177,0.7986,2.9359,6.0455,52.9063,0.2394,-0.006,0.7001,261.5625
20:03:02:196,1.1422,3.3453,6.1879,54.3055,0.1715,-0.0438,0.5307,260.5938
20:03:02:216,1.2738,3.726,6.6416,53.6035,0.0599,-0.1178,0.2894,259.75
20:03:02:235,0.9374,3.787,7.7633,53.876,-0.0722,-0.1258,0.0316,259.0781
20:03:02:258,0.2958,3.7894,9.0251,54.362,-0.123,-0.0731,-0.1458,258.625
20:03:02:276,-0.1998,3.6757,9.8415,54.2916,-0.0615,0.001,-0.244,258.4688
20:03:02:296,-0.541,3.5201,10.0953,54.8693,0.0392,-0.0188,-0.2765,258.5469
20:03:02:317,-0.3255,3.3872,10.1384,56.675,0.0945,-0.1295,-0.2912,258.7812
20:03:02:337,-0.2429,3.0317,10.6148,56.3003,0.0408,-0.2225,-0.3306,259.0781
20:03:02:359,-0.0705,2.6737,11.2684,55.786,-0.0493,-0.1016,-0.3175,259.4062
20:03:02:378,0.1952,2.6582,11.0913,57.0516,-0.1177,0.0755,-0.2722,259.7812
20:03:02:428,0.5173,2.8844,10.7621,57.8252,-0.1808,0.0532,-0.2549,260.1875
20:03:02:428,0.8812,3.0484,10.786,57.5978,-0.2461,-0.2339,-0.3199,260.5312
20:03:02:436,1.36,2.6438,11.7497,56.9941,-0.3768,-0.6566,-0.4818,260.7969
20:03:02:459,1.0129,1.5652,14.2312,55.9212,-0.5587,-0.7375,-0.6813,261.3125
20:03:02:475,0.1677,0.3478,15.8282,58.0695,-0.5084,-0.2262,-0.7066,261.9375
20:03:02:498,-0.4285,0.088,13.6399,57.7186,-0.1891,0.426,-0.5042,262.75
20:03:02:516,-0.116,0.4902,9.808,56.7362,0.0583,0.5783,-0.2339,263.5625
20:03:02:536,0.3604,1.1139,7.3288,57.0791,0.1446,0.2311,-0.052,263.8594
20:03:02:558,0.8764,1.5939,6.2011,54.7837,0.1659,-0.2558,0.0117,264.2031
20:03:02:577,1.1709,2.0141,5.8743,55.1204,0.1156,-0.5085,-0.032,264.3125
20:03:02:596,1.0787,2.2248,5.4936,56.9374,0.0463,-0.5136,-0.1343,264.3281
20:03:02:616,0.8034,2.3577,5.0674,57.545,-0.0658,-0.3948,-0.2395,264.3906
20:03:02:636,0.5388,2.5576,5.0351,57.7512,-0.217,-0.1671,-0.3218,264.5469
20:03:02:659,0.2491,2.7551,5.0555,57.2453,-0.3156,0.0574,-0.4139,264.8125
20:03:02:676,-0.4021,2.9706,4.9118,58.1174,-0.371,0.1299,-0.4925,265.1562
20:03:02:696,-0.8822,3.1418,5.3476,57.1787,-0.4288,0.0399,-0.5045,265.5781
20:03:02:715,-1.1395,3.3453,6.4297,55.6469,-0.4567,-0.104,-0.4768,266.0469
20:03:02:736,-1.1288,3.4363,8.0434,57.3756,-0.4171,-0.2496,-0.4288,266.875
20:03:02:763,-0.845,3.6398,9.4572,56.249,-0.2964,-0.2813,-0.3894,267.4219
20:03:02:779,-0.778,4.0037,10.2653,58.3724,-0.1928,-0.1716,-0.4089,267.8906
20:03:02:799,-0.881,4.1354,10.9081,57.401,-0.1545,0.0654,-0.4701,268.3438
20:03:02:815,-1.3071,4.0851,11.181,57.2758,-0.147,0.4348,-0.5199,268.8281
20:03:02:836,-1.9009,3.8146,10.962,56.8812,-0.1409,0.7048,-0.5074,269.3281
20:03:02:859,-2.3785,3.477,10.859,57.7576,-0.0996,0.6734,-0.3873,269.875
20:03:02:875,-2.1619,3.1669,10.883,57.3706,-0.0344,0.3847,-0.1955,270.3906
20:03:02:896,-1.5346,2.9311,11.2672,56.9012,-0.0485,0.039,-0.0203,270.7656
20:03:02:916,-1.0426,2.7072,12.4847,56.6815,-0.0876,-0.2835,0.0971,270.9375
20:03:02:936,-0.6906,2.3338,13.1084,58.9627,-0.0434,-0.4877,0.1821,270.9531
20:03:02:962,-0.7206,2.0357,13.2389,57.9521,0,-0.5359,0.2615,270.8594
20:03:02:982,-0.8175,1.8118,12.8402,56.7337,-0.025,-0.3088,0.3445,270.7031
20:03:02:997,-1.7034,1.4096,11.5438,56.9836,-0.1683,0.1725,0.4167,270.7031
20:03:03:016,-1.6782,0.9523,10.877,58.7338,-0.2506,0.3754,0.7022,270.2812
20:03:03:037,-1.1838,0.7153,10.6819,56.6572,-0.2088,0.0436,0.8783,269.6094
20:03:03:062,-0.4787,0.7296,10.8806,58.6082,-0.1127,-0.3215,0.9741,268.1094
20:03:03:081,-0.2022,0.7967,10.9296,55.9065,0.0093,-0.4403,0.9496,267.0781
20:03:03:096,-0.4344,0.7428,10.282,57.1041,0.1316,-0.2651,0.9001,267.0781
20:03:03:125,-0.7624,0.7488,8.8527,57.6831,0.2226,0.0462,0.9187,264.9844
20:03:03:135,-0.7229,0.9978,7.0798,57.6831,0.2756,0.21,0.9968,264.9844
20:03:03:159,-0.5506,1.3904,5.8336,56.0398,0.2543,0.1813,1.0471,263.9844
20:03:03:177,-0.3351,1.6634,5.6564,55.4772,0.1944,0.034,1.0687,262.9844
20:03:03:196,0.1785,1.9854,6.0802,57.1203,0.2013,-0.1644,1.0585,260.6406
20:03:03:216,0.5699,2.305,6.5147,56.6495,0.2692,-0.3548,0.9699,259.4219
20:03:03:236,0.7076,2.414,6.723,55.9968,0.2802,-0.3319,0.8407,258.875
20:03:03:261,0.8967,2.6665,7.0008,56.9832,0.2061,-0.1831,0.7126,257.7344
20:03:03:283,1.0524,2.8892,7.494,56.6097,0.1134,-0.0848,0.5153,256.75
20:03:03:303,0.9219,2.8341,8.4756,57.239,0.0296,-0.0142,0.2905,255.8906
20:03:03:314,0.6621,2.6294,9.4345,55.2223,0.0296,0.0683,0.1102,255.2188
20:03:03:335,0.5771,2.3158,9.7146,54.8763,0.0645,0.1035,-0.0139,254.9688
20:03:03:356,0.7663,2.0141,10.1336,56.0768,0.0269,0.0433,-0.0847,254.6406
20:03:03:378,1.1996,1.6095,11.1511,56.4328,-0.0309,-0.0749,-0.1468,254.5156
20:03:03:398,1.5085,1.2851,12.3327,54.0257,-0.0535,-0.0552,-0.1891,254.5156
20:03:03:415,1.8951,1.2336,12.195,55.1315,-0.0133,0.1517,-0.2123,254.6094
20:03:03:437,2.0867,1.3438,11.1116,55.4334,-0.0197,0.2369,-0.2611,254.7812
20:03:03:461,2.344,1.5724,10.2174,55.931,-0.1302,0.1232,-0.3474,255
20:03:03:479,2.3512,1.5652,10.7118,54.3518,-0.3302,-0.1522,-0.5045,255.2188
20:03:03:497,2.0316,0.9679,12.1746,54.1697,-0.4679,-0.2097,-0.6733,255.6562
20:03:03:515,1.0895,0.398,12.5362,54.4087,-0.4855,-0.0185,-0.7271,256.1094
20:03:03:535,0.5855,0.0233,12.0825,53.3866,-0.4181,0.1378,-0.5948,256.8125
20:03:03:556,0.9865,0.0389,11.1763,53.7816,-0.2879,0.0596,-0.3966,257.6406
20:03:03:575,1.5875,0.3873,10.4448,54.4632,-0.142,-0.1879,-0.2691,258.3594
20:03:03:595,1.9706,0.8158,9.7421,53.4188,-0.0131,-0.3703,-0.2579,258.9062
20:03:03:614,1.8951,1.1355,8.8228,54.2961,0.0549,-0.3607,-0.3204,259.2656
20:03:03:634,1.5671,1.3641,7.9177,53.7265,0.0639,-0.2582,-0.3812,259.5781
20:03:03:656,1.1912,1.5676,7.2893,53.835,0.0285,-0.1053,-0.4272,259.9062
20:03:03:675,0.801,1.7484,6.6524,51.2167,0.0003,0.0505,-0.4517,260.3438
20:03:03:695,0.4897,1.9782,6.1604,53.3276,-0.0245,0.1288,-0.4573,260.8281
20:03:03:716,0.2264,2.1901,5.7474,52.7951,-0.0434,0.1368,-0.4565,261.3125
20:03:03:736,0.1079,2.475,5.751,53.9195,-0.0807,0.0556,-0.4579,261.8281
20:03:03:759,-0.1627,2.6378,6.1987,53.2702,-0.119,-0.006,-0.4784,262.3281
20:03:03:779,-0.4297,2.7563,7.0283,51.4413,-0.1412,-0.0366,-0.4778,262.8125
20:03:03:795,-0.7433,2.8641,8.0039,51.3442,-0.1089,-0.0009,-0.4371,263.625
20:03:03:815,-0.8008,2.9802,8.6145,50.4444,-0.0165,0.0398,-0.3556,263.9062
20:03:03:836,-0.5936,3.2064,8.9616,52.6081,0.0865,0.0348,-0.276,264.4219
20:03:03:859,-0.304,3.6194,9.2166,51.9492,0.1673,0.0492,-0.2193,264.8594
20:03:03:874,0.0492,4.0049,9.3112,51.8794,0.2008,0.0659,-0.2342,265.2188
20:03:03:894,0.1342,4.0971,9.5267,52.3975,0.1342,0.092,-0.3087,265.5
20:03:03:914,0.0983,3.9582,10.3096,50.6591,-0.0088,0.1104,-0.3612,265.7344
20:03:03:936,0.0887,3.647,11.879,53.4202,-0.1337,0.0654,-0.3854,266.0312
20:03:03:960,0.1869,3.1729,13.4304,51.5921,-0.1611,0.0758,-0.3788,266.4219
20:03:03:976,0.1115,2.9922,13.9751,50.7694,-0.0892,0.1815,-0.3436,266.8125
20:03:03:994,-0.031,2.8497,13.0401,51.7792,-0.0282,0.2236,-0.3005,267.25
20:03:04:015,-0.3135,2.4259,12.9623,50.9539,-0.1201,0.0827,-0.2565,267.6406
20:03:04:035,-0.6404,1.7316,13.8925,50.7854,-0.143,0.062,-0.1593,268
20:03:04:055,-1.1264,1.3593,13.5322,50.4873,0.0304,0.2167,0.0058,268.2969
20:03:04:077,-1.5142,1.2276,11.3331,50.914,0.2269,0.3094,0.2226,268.5938
20:03:04:097,-1.4113,1.0792,9.462,51.7353,0.2514,0.1088,0.4335,268.5781
20:03:04:115,-1.033,0.8122,9.1687,50.5403,0.1715,-0.2717,0.5882,268.3125
20:03:04:135,-0.5913,0.7416,9.6667,47.5951,0.1457,-0.5519,0.6854,267.8281
20:03:04:155,-0.5182,0.8936,9.5913,49.3706,0.1539,-0.5346,0.7121,267.1875
20:03:04:176,-0.6188,1.2133,8.9413,50.1645,0.1249,-0.337,0.739,266.4844
20:03:04:196,-0.4009,1.1522,8.6396,50.2478,0.1065,-0.1942,0.7627,265.7188
20:03:04:215,-0.3471,1.2552,8.3176,49.0991,0.1779,-0.1322,0.7898,264.9062
20:03:04:235,-0.1543,1.3234,7.8519,47.9908,0.281,-0.153,0.826,264.0938
20:03:04:261,-0.0406,1.321,7.5921,47.3957,0.3958,-0.198,0.8697,263.2188
20:03:04:279,0.3054,1.5149,7.1205,47.7479,0.4993,-0.1452,0.915,262.2812
20:03:04:295,1.1242,1.8082,6.2789,48.3217,0.4445,0.1735,0.8945,261.8125
20:03:04:314,2.022,2.3505,5.5822,46.3503,0.1816,0.6564,0.7576,260.8594
20:03:04:334,2.4326,2.8832,5.7079,47.6623,-0.085,0.8977,0.5105,259.8125
20:03:04:355,2.3093,3.1741,6.6033,46.6382,-0.122,0.6793,0.1973,258.8125
20:03:04:376,1.4666,2.8784,7.6197,47.7169,0.0216,0.2681,-0.1029,257.7031
20:03:04:395,0.5197,2.408,8.2481,45.9688,0.184,0.0255,-0.2427,257.4062
20:03:04:417,0.7734,2.4427,8.46,45.9379,0.1071,-0.0648,-0.3348,257.4844
20:03:04:476,0.9686,2.1446,9.6296,47.1153,-0.1188,-0.0744,-0.4632,257.4844
20:03:04:477,0.7064,1.6059,11.3977,45.9371,-0.3183,-0.0542,-0.5711,257.7656
20:03:04:477,0.2874,0.9499,12.7397,46.2924,-0.3808,0.042,-0.5801,258.0625
20:03:04:499,0.297,0.4651,12.2776,45.8143,-0.3398,0.213,-0.444,258.4688
20:03:04:518,0.9362,0.8374,10.804,45.2407,-0.3454,0.1656,-0.3055,259.6094
20:03:04:534,2.1022,1.3821,9.9959,46.3979,-0.5073,-0.1847,-0.3425,260.25
20:03:04:555,2.8875,1.4156,11.6323,45.3083,-0.808,-0.5375,-0.5953,260.7344
20:03:04:576,2.3285,0.4818,14.7652,44.1433,-0.9332,-0.4465,-0.8898,261.0312
20:03:04:595,1.208,-0.2927,15.5421,46.0865,-0.6426,0.1557,-0.9237,261.4219
20:03:04:618,1.2247,-0.0748,12.4978,44.9314,-0.1816,0.5565,-0.7484,263.6094
20:03:04:635,1.8808,0.5824,9.3782,45.7126,0.0514,0.258,-0.7005,263.6094
20:03:04:656,2.0508,0.6518,8.3762,44.2752,0.0285,-0.3215,-0.8472,264.5312
20:03:04:678,1.4869,0.3502,9.2286,45.7649,-0.1097,-0.5106,-0.9934,265.2969
20:03:04:696,0.6765,0.2209,9.3483,44.606,-0.1015,-0.2622,-1.0278,266.1719
20:03:04:714,0.1055,0.5058,8.0458,45.1912,-0.0101,0.014,-0.942,266.6406
20:03:04:735,-0.0681,1.0229,6.6991,43.9387,0.0559,0.0758,-0.8081,267.7969
20:03:04:755,0.0408,1.3952,6.0431,45.8835,0.1201,-0.0827,-0.7066,268.9844
20:03:04:778,0.1438,1.7173,5.7881,43.7344,0.1779,-0.2736,-0.6509,270.0156
20:03:04:794,0.3066,2.1398,5.7917,43.658,0.1707,-0.3759,-0.6533,270.9375
20:03:04:819,0.3676,2.4379,6.1077,43.3285,0.0714,-0.3165,-0.7388,271.7656
20:03:04:833,0.0707,2.5756,6.6153,43.6024,-0.1156,-0.0699,-0.8672,272.5312
20:03:04:854,-0.438,2.6283,7.2534,42.7806,-0.3595,0.3469,-0.9561,273.2656
20:03:04:878,-1.2281,2.6498,8.1811,43.192,-0.5787,0.7277,-0.9868,274.125
20:03:04:895,-2.3642,2.6007,10.045,43.609,-0.6125,0.7552,-0.9252,275.6562
20:03:04:914,-3.0585,2.4762,11.7521,42.0793,-0.3007,0.5123,-0.746,276.6719
20:03:04:935,-3.323,2.6558,11.4624,42.467,0.1467,0.2446,-0.5204,277.7344
20:03:04:955,-3.2752,2.9203,10.6124,42.0849,0.3388,0.0774,-0.3322,278.6406
20:03:04:976,-3.0046,2.9766,10.8279,42.3386,0.2618,0.0758,-0.2123,279.3125
20:03:04:995,-2.9843,2.8198,11.6395,43.3402,0.1529,0.173,-0.118,279.8125
20:03:05:013,-2.9507,2.7563,11.8694,40.6794,0.1316,0.2369,0.0077,280.1406
20:03:05:034,-2.7077,2.9347,11.5785,41.6412,0.0711,0.2329,0.1176,280.3281
20:03:05:054,-2.1822,2.9934,11.9065,42.9082,-0.1427,0.1413,0.131,280.3906
20:03:05:079,-2.0685,2.3757,14.1163,41.7908,-0.3936,-0.0622,0.0348,280.3125
20:03:05:096,-3.0741,1.0181,17.4682,41.7908,-0.3795,0.0212,-0.0038,280.1406
20:03:05:115,-3.8486,-0.6806,17.2982,41.5751,0.0977,0.5917,0.2436,280.0312
20:03:05:135,-3.5158,-0.756,12.5984,41.6616,0.4834,1.1317,0.7217,280
20:03:05:155,-2.2289,-0.1,9.0418,43.5595,0.4437,0.9541,1.0412,279.8906
20:03:05:176,-1.8135,0.1742,8.7437,43.5595,0.2471,0.3259,1.1057,279.375
20:03:05:199,-1.8734,0.009,9.7876,42.2575,0.2032,-0.0427,1.152,278.8906
20:03:05:214,-1.4855,-0.1754,9.4716,41.0155,0.2661,0.0534,1.2596,276.4531
20:03:05:235,-1.1204,-0.0006,8.2685,43.1729,0.3033,0.2926,1.3467,275.8125
20:03:05:255,-0.8654,0.3526,7.1767,44.8372,0.3342,0.3445,1.4191,274.5312
20:03:05:278,-0.438,0.6087,6.3878,43.0709,0.3936,0.2239,1.4567,273.0625
20:03:05:305,-0.0645,0.8506,6.0431,43.1352,0.4352,0.075,1.4572,271.4844
20:03:05:314,0.2108,0.9834,5.9437,44.5403,0.473,-0.0211,1.4183,269.9219
20:03:05:335,0.3604,1.163,5.8635,42.9161,0.5092,-0.0683,1.3733,268.2812
20:03:05:355,0.5424,1.4096,5.769,43.3101,0.5204,-0.0851,1.3107,266.6875
20:03:05:379,0.7387,1.7077,5.9701,42.4198,0.5233,-0.1303,1.2279,265.2031
20:03:05:395,1.0476,2.1721,6.2023,43.1192,0.5377,-0.2124,1.094,263.7344
20:03:05:414,1.3109,2.6007,6.2729,44.1449,0.5148,-0.2339,0.8868,262.3281
20:03:05:434,1.3504,2.8832,6.3005,43.9303,0.4093,-0.1713,0.6378,261.0625
20:03:05:455,1.1541,3.1586,6.5135,42.3826,0.2583,-0.1016,0.3797,260.0625
20:03:05:479,0.9614,3.2783,6.6811,41.6127,0.0788,-0.0867,0.1203,259.25
20:03:05:496,0.7687,3.1885,7.7262,43.0665,-0.1249,-0.1793,-0.1409,258.5469
20:03:05:514,0.5711,2.7887,9.1149,42.385,-0.3079,-0.2582,-0.3902,258.4375
20:03:05:535,0.1474,2.0931,11.017,43.4648,-0.4858,-0.2315,-0.5524,258.625
20:03:05:554,0.127,1.3306,12.3434,42.2816,-0.5369,0.0092,-0.541,259.0781
20:03:05:576,1.0296,1.3928,11.6228,43.1699,-0.5033,0.1893,-0.4475,259.6875
20:03:05:594,2.107,1.9698,10.9093,43.0536,-0.603,-0.007,-0.5545,260.25
20:03:05:614,2.4111,1.552,11.8825,41.9463,-0.8698,-0.3468,-0.9181,260.7031
20:03:05:634,1.1338,0.2065,14.5006,44.6913,-1.1372,-0.2574,-1.2494,261.2969
20:03:05:654,-0.6978,-0.9607,16.0281,43.9205,-1.0589,0.3802,-1.1972,262.2812
20:03:05:677,-1.3047,-0.7596,14.1487,44.9031,-0.621,0.8473,-0.7487,263.6406
20:03:05:699,0.0935,0.1957,10.6902,42.9784,-0.2035,0.5549,-0.3111,264.9062
20:03:05:717,1.8831,1.0038,9.0981,45.7333,0.033,-0.386,-0.1615,265.8906
20:03:05:742,2.5416,1.4491,8.9257,44.2548,-0.0024,-1.0648,-0.6219,265.9844
20:03:05:756,1.8628,1.5018,8.3535,44.5044,-0.1473,-0.6411,-0.8398,266.2969
20:03:05:781,1.1948,1.6131,7.6664,43.8996,-0.3025,-0.194,-0.9889,266.9062
20:03:05:799,0.5244,1.5532,7.5299,44.8421,-0.3569,0.0327,-1.0613,268.3281
20:03:05:816,-0.0741,1.5341,7.5706,44.7789,-0.2237,0.0167,-1.0411,268.3281
20:03:05:836,-0.4644,1.6418,7.1121,44.7395,0.0328,-0.1114,-0.9548,269.4375
20:03:05:862,-0.705,1.9555,6.3029,47.2603,0.2184,-0.2478,-0.8755,271.75
20:03:05:880,-0.9707,2.2751,5.9078,45.3498,0.2469,-0.3671,-0.843,271.75
20:03:05:896,-1.4268,2.4235,6.3364,45.7084,0.1425,-0.3932,-0.8179,272.8594
20:03:05:916,-1.6471,2.6857,7.1995,43.9691,0.0383,-0.3466,-0.7777,273.8281
20:03:05:939,-1.841,2.8306,8.3403,45.5403,0.0163,-0.3407,-0.7505,274.8281
20:03:05:953,-2.2385,2.9203,9.5494,44.532,0.0935,-0.3455,-0.7149,275.7969
20:03:05:973,-2.9448,2.906,10.701,45.8146,0.261,-0.2949,-0.6248,276.7031
20:03:06:003,-3.195,2.8138,10.4245,45.9007,0.445,-0.1072,-0.4499,277.5469
20:03:06:014,-3.1303,3.2029,9.2705,45.4028,0.4019,0.1032,-0.2715,278.375
20:03:06:040,-2.7448,3.3788,9.3567,45.1931,0.1342,0.1083,-0.1697,279.125
20:03:06:061,-2.3953,2.955,11.2577,45.7938,-0.134,-0.0891,-0.113,279.6406
20:03:06:079,-2.2552,2.1207,13.5561,45.8984,-0.204,-0.251,0.0002,279.9688
20:03:06:101,-2.1223,1.5137,14.849,46.4061,-0.053,-0.2262,0.2676,280.2188
20:03:06:113,-1.5262,1.9806,13.6782,45.7246,0.1364,-0.0864,0.6039,280.2969
20:03:06:133,-0.8319,2.4654,12.7648,45.8784,0.0844,-0.1623,0.7821,280.1875
20:03:06:153,-0.535,2.2787,13.7201,48.2826,-0.0032,-0.2699,0.8503,279.9844
20:03:06:176,-0.6978,1.8118,13.8159,46.7868,0.1427,-0.1293,0.9307,279.3125
20:03:06:195,-0.9037,1.673,11.6862,46.4256,0.3425,0.0236,1.0625,278.4688
20:03:06:218,-0.6248,1.9004,9.9468,46.3451,0.3515,-0.1053,1.1984,277.5156
20:03:06:233,0.1198,2.2284,9.9313,48.4403,0.2682,-0.4824,1.2292,276.4531
20:03:06:253,0.7902,2.2631,10.8111,46.7782,0.2655,-0.7285,1.1054,275.3125
20:03:06:277,0.6262,2.0704,10.6938,47.8538,0.3462,-0.5943,0.9067,273.9531
20:03:06:296,0.2012,1.7951,9.4824,46.8402,0.4176,-0.2539,0.7616,271.9688
20:03:06:315,-0.1292,1.6143,7.7873,47.0478,0.4525,0.0398,0.6977,270.9219
20:03:06:334,-0.2369,1.5544,6.2526,48.5688,0.4554,0.1205,0.6849,270.0312
20:03:06:354,-0.0562,1.5916,5.1668,47.1009,0.408,-0.0353,0.6761,269.2031
20:03:06:379,0.2755,1.6311,5.0567,49.6935,0.3023,-0.3013,0.6386,268.4531
20:03:06:395,0.5005,1.4671,5.7354,46.7501,0.1904,-0.4917,0.5691,267.6562
20:03:06:413,0.8213,1.2683,6.8008,48.2406,0.1031,-0.4411,0.4993,266.9062
20:03:06:433,1.5947,1.2827,7.8711,48.7784,0.0019,-0.0478,0.3826,266.2656
20:03:06:453,1.9286,1.5305,8.0267,47.4045,-0.2408,0.7973,0.1469,265.7344
20:03:06:476,1.8269,1.7304,8.0363,49.0879,-0.5851,1.6865,-0.1415,265.25
20:03:06:528,1.3887,1.3833,7.7932,49.2542,-0.8011,2.0644,-0.4501,264.8906
20:03:06:528,0.1797,0.6255,8.1476,51.3307,-0.8871,1.9158,-0.6081,264.7656
20:03:06:539,-0.7098,0.0186,9.4249,48.3463,-0.7196,1.3714,-0.4762,264.9062
20:03:06:559,-0.6535,-0.2903,10.3407,49.1239,-0.2679,0.5461,-0.207,265.3281
20:03:06:576,0.3018,-0.246,10.5741,50.2517,0.1758,-0.2188,0.0071,265.5781
20:03:06:593,0.9147,0.0293,10.6232,49.8416,0.2948,-0.5008,0.0585,266.0781
20:03:06:613,1.1398,0.0724,10.7369,49.9853,0.1364,-0.2733,0.0806,266.1562
20:03:06:633,1.6102,0.3669,10.5035,49.871,-0.0631,0.0992,0.1427,266.1406
20:03:06:653,2.4135,0.9643,9.6739,49.503,-0.2397,0.2311,0.0782,266.125
20:03:06:677,2.6685,1.011,9.4357,50.2517,-0.4868,-0.0006,-0.1854,266
20:03:06:697,2.368,0.3849,10.9069,51.182,-0.784,-0.3698,-0.5079,265.8281
20:03:06:713,1.2535,-0.5692,13.2532,50.5149,-0.9193,-0.403,-0.7077,265.8281
20:03:06:735,0.0193,-0.9906,14.2911,50.5336,-0.7795,-0.1178,-0.6182,266.1875
20:03:06:754,0.3245,-0.726,13.2748,50.4178,-0.4557,0.0686,-0.3612,266.9062
20:03:06:779,1.5085,0.2101,11.3941,50.2465,-0.2141,-0.1109,-0.2565,267.6719
20:03:06:794,1.9239,0.8781,10.4544,50.8852,-0.1361,-0.3708,-0.3974,268.1562
20:03:06:813,1.1829,0.9978,9.7493,50.0813,-0.0927,-0.4374,-0.5854,268.4531
20:03:06:834,0.4694,1.1821,8.733,51.2728,-0.0557,-0.317,-0.6257,268.7969
20:03:06:854,0.4371,1.6825,7.7513,50.4262,-0.0368,-0.1863,-0.5945,269.7188
20:03:06:878,0.5639,2.1757,7.2881,50.0208,-0.0043,-0.1825,-0.6137,270.4375
20:03:06:896,0.2647,2.3864,7.2629,49.3391,0.1036,-0.2707,-0.6688,271.125
20:03:06:914,-0.1052,2.4858,6.9565,52.8786,0.2714,-0.3423,-0.6824,271.7969
20:03:06:933,-0.3159,2.6187,6.4657,51.7526,0.3643,-0.3032,-0.664,272.5781
20:03:06:954,-0.4692,2.8521,6.3196,50.8025,0.3473,-0.2196,-0.6445,273.375
20:03:06:979,-0.5458,3.0724,6.6536,50.9579,0.2573,-0.1634,-0.6438,274.1094
20:03:06:998,-0.9121,3.1131,7.6245,53.2842,0.1835,-0.0763,-0.644,274.8594
20:03:07:032,-0.9396,3.1657,8.2781,51.9882,0.1848,0.0066,-0.6062,275.625
20:03:07:033,-0.9576,3.143,8.7773,50.1907,0.1702,0.0766,-0.5777,276.3594
20:03:07:061,-1.0821,3.0772,9.4823,52.3391,0.1353,0.1695,-0.5444,277.0312
20:03:07:079,-1.3299,2.9227,10.0665,52.3391,0.1169,0.2598,-0.4989,277.6875
20:03:07:095,-1.6076,2.7384,10.616,51.6429,0.1108,0.2609,-0.4075,278
20:03:07:115,-1.6914,2.5109,11.4791,51.739,0.0985,0.172,-0.272,278.5781
20:03:07:133,-1.7584,2.1482,12.7217,53.3316,0.1555,0.0753,-0.1042,279.0938
20:03:07:153,-1.7608,2.0955,12.9946,52.2015,0.3089,0.1506,0.1094,279.6094
20:03:07:176,-1.5908,2.4822,11.6443,50.7956,0.3955,0.2849,0.3006,279.7344
20:03:07:197,-1.1946,3.1586,10.3239,52.8643,0.2205,0.2252,0.4159,279.6094
20:03:07:213,-0.5374,3.3848,11.1691,53.0036,-0.1515,-0.1282,0.3842,279.2656
20:03:07:234,-1.7608,1.2767,16.7081,52.61,-0.281,-0.3197,0.332,278.7812
20:03:07:254,-2.3773,0.3418,15.5517,54.1077,0.2621,0.1637,0.6245,278.7812
20:03:07:278,-1.8027,0.4615,11.3857,53.2706,0.6472,0.3285,0.9885,278.0625
20:03:07:294,-0.4057,1.1786,8.9616,54.0788,0.6051,-0.0371,1.1454,277.0312
20:03:07:313,0.7124,1.473,9.3387,54.0363,0.3835,-0.4829,1.0394,277.0312
20:03:07:333,0.8453,1.3497,10.3395,53.8333,0.2914,-0.5916,0.8521,275.8906
20:03:07:353,0.5759,1.1498,10.3036,54.5135,0.3555,-0.4172,0.7291,274.6094
20:03:07:373,0.3281,0.8793,9.547,55.1397,0.5049,-0.1817,0.7102,273.4688
20:03:07:392,0.3197,0.8074,8.3511,53.4171,0.7148,-0.0432,0.7736,272.5938
20:03:07:413,0.6825,0.9439,6.7961,55.1545,0.8642,-0.0345,0.8537,271.8125
20:03:07:433,1.2379,1.3078,5.8432,54.1541,0.8719,-0.109,0.8439,270.6406
20:03:07:453,1.6198,1.4599,5.563,54.2573,0.799,-0.1958,0.7294,269.7188
20:03:07:477,1.7395,1.388,5.7462,54.7104,0.6863,-0.1865,0.5816,267.8594
20:03:07:496,1.6737,1.2887,6.1161,54.1521,0.5721,-0.056,0.4572,267.8594
20:03:07:512,1.548,1.3653,6.4058,53.8611,0.493,0.0838,0.3709,267.1719
20:03:07:533,1.6114,1.6011,6.6057,54.9274,0.4522,0.1645,0.2969,266.875
20:03:07:552,1.5899,1.983,6.577,55.2158,0.4525,0.1546,0.2053,266.3594
20:03:07:573,1.6617,2.3577,6.3699,53.3259,0.4069,0.0526,0.0806,265.9219
20:03:07:594,1.6641,2.5049,6.2861,55.7451,0.2415,-0.0949,-0.0914,265.5781
20:03:07:613,1.7431,2.2907,7.2258,55.9606,-0.0671,-0.2499,-0.2643,265.3125
20:03:07:633,1.8472,1.7568,8.9113,55.5785,-0.3808,-0.2712,-0.4219,265.2188
20:03:07:653,1.536,1.2899,10.5633,56.1141,-0.6266,-0.0968,-0.5127,265.3281
20:03:07:673,1.5228,0.8625,11.4492,54.4019,-0.7156,0.1395,-0.4765,265.6719
20:03:07:694,1.9454,1.0553,10.3646,55.2593,-0.7238,0.1687,-0.4022,266.2031
20:03:07:713,2.7714,1.2851,9.7146,56.5739,-0.9308,-0.1434,-0.4475,266.7656
20:03:07:733,2.7678,1.1881,11.5533,56.6187,-1.2613,-0.4827,-0.6563,267.5156
20:03:07:754,1.3923,0.5908,14.272,55.9682,-1.3726,-0.4057,-0.791,267.9688
20:03:07:774,0.1246,0.1897,15.2979,55.5693,-1.1132,0.0681,-0.6259,268.5938
20:03:07:794,0.2731,0.5692,13.191,56.217,-0.6647,0.3067,-0.2728,269.5156
20:03:07:814,1.5731,1.2444,10.8542,56.8148,-0.4021,-0.0691,-0.0358,270.3906
20:03:07:832,2.8588,1.6203,10.7645,55.4056,-0.3017,-0.6965,-0.0363,270.8906
20:03:07:853,2.9031,1.6969,11.0637,54.7047,-0.2029,-0.8459,-0.2027,271.0156
20:03:07:872,2.2088,1.6239,9.9361,56.5854,-0.0578,-0.5458,-0.3497,271.0469
20:03:07:898,1.4857,1.7113,7.5287,55.632,0.004,-0.1471,-0.4219,271.2344
20:03:07:914,1.0308,1.9519,5.5475,57.4096,-0.0983,0.0918,-0.4531,271.5781
20:03:07:933,0.7184,2.1219,4.7766,56.3916,-0.2466,0.0825,-0.4645,272.0625
20:03:07:954,0.6011,2.244,4.8963,55.1999,-0.3475,-0.0584,-0.4749,272.5625
20:03:07:978,0.4335,2.493,5.3452,57.465,-0.3902,-0.1479,-0.5066,273.0625
20:03:07:994,0.2383,2.7324,6.0179,55.3687,-0.4157,-0.1607,-0.5601,273.5938
20:03:08:020,-0.1387,2.8497,6.7973,55.9111,-0.4213,-0.1378,-0.6227,273.875
20:03:08:032,-0.5314,2.9048,7.628,57.2583,-0.4168,-0.116,-0.6368,275.0938
20:03:08:053,-0.7409,2.9539,8.6192,55.6443,-0.4088,-0.1362,-0.6073,275.4531
20:03:08:073,-0.5709,3.0424,9.8116,56.2278,-0.3984,-0.1258,-0.5497,276.2031
20:03:08:094,-0.3135,3.1586,11.1535,57.7781,-0.355,-0.0321,-0.5362,276.9375
20:03:08:117,-0.3483,3.1502,11.7437,58.2364,-0.2831,0.1996,-0.5572,277.5781
20:03:08:134,-0.8977,3.0688,11.5402,57.2777,-0.2546,0.434,-0.5737,278.2031
20:03:08:153,-1.5597,2.8222,11.7365,58.5221,-0.3015,0.5243,-0.5175,278.8281
20:03:08:172,-2.0793,2.4391,12.6164,58.3695,-0.3121,0.4974,-0.3673,279.4844
20:03:08:195,-2.5294,2.2069,13.4447,58.8124,-0.2027,0.4303,-0.1276,280.0781
20:03:08:212,-2.521,2.2236,13.2796,57.7564,-0.028,0.3922,0.1658,280.5938
20:03:08:232,-2.1774,2.6127,12.7947,58.1595,0.0141,0.3165,0.426,280.8906
20:03:08:252,-1.4113,2.663,13.5573,58.3639,-0.0525,0.0476,0.5715,280.8594
20:03:08:272,-0.851,1.7496,15.6833,59.596,-0.0735,-0.3213,0.6226,280.5
20:03:08:294,-1.2485,0.3765,17.9985,59.9452,0.138,-0.3764,0.7483,279.5781
20:03:08:313,-1.7369,-0.7608,17.6777,58.8957,0.6637,0.0265,1.0735,278.8906
20:03:08:333,-1.4125,-0.72,13.5896,58.445,1.155,0.4532,1.5163,278.0469
20:03:08:353,-0.0897,-0.3214,9.8774,59.2935,1.2999,0.3443,1.8,276.8125
20:03:08:372,0.7878,0.2843,8.1392,59.6802,1.1683,-0.1293,1.8389,275.1562
20:03:08:396,1.123,0.3442,8.6994,59.5593,0.9537,-0.5522,1.7368,273.0938
20:03:08:413,0.9291,0.1419,9.5961,59.2284,0.8722,-0.5983,1.6234,271
20:03:08:436,0.6394,0.0173,9.2441,59.2325,0.8919,-0.3719,1.5645,269.0469
20:03:08:453,0.5568,0.1155,8.1308,59.6701,0.8871,-0.1008,1.5563,267.3125
20:03:08:473,0.7471,0.2688,6.9469,60.1135,0.8573,0.0561,1.5472,265.5312
20:03:08:496,0.9745,0.4974,5.903,61.9004,0.8285,0.0271,1.5054,263.7344
20:03:08:517,1.2978,0.6961,5.2099,60.5699,0.7739,-0.0957,1.4338,262.9219
20:03:08:578,1.4953,0.8972,5.0112,61.0124,0.6836,-0.2235,1.3238,261.1406
20:03:08:579,1.6485,1.0181,5.32,61.7296,0.6021,-0.2787,1.1986,259.4219
20:03:08:579,1.6629,1.0517,5.569,60.7826,0.5806,-0.2241,1.0841,257.8438
20:03:08:597,1.6401,1.242,4.9549,60.9522,0.5627,-0.1141,1.0018,255.8125
20:03:08:615,1.7419,1.6478,4.4174,61.3196,0.4272,-0.1045,0.9091,254.5781
20:03:08:633,2.1465,2.1099,6.1915,60.9261,0.0804,-0.2733,0.633,253.4062
20:03:08:653,2.4578,2.1662,7.1444,62.0315,-0.057,-0.3583,0.4633,253.4062
20:03:08:679,2.8588,1.9423,8.8012,61.0437,-0.293,-0.4563,0.2886,252.4062
20:03:08:693,3.0934,1.5137,11.4157,61.9357,-0.502,-0.3468,0.1531,250.8438
20:03:08:713,3.1413,0.8757,12.9133,61.9268,-0.5659,0.0529,0.0703,250.4062
20:03:08:733,3.2191,0.5752,12.5876,61.1093,-0.571,0.5339,0.131,250.1562
20:03:08:752,3.7734,0.8338,11.6623,62.3027,-0.555,0.7203,0.2402,250.0781
20:03:08:773,4.7526,1.3509,10.4951,61.483,-0.5366,0.5139,0.2106,250.0469
20:03:08:797,4.9621,1.4754,9.9672,61.2198,-0.6354,0.0683,-0.024,249.875
20:03:08:813,4.1038,0.9344,10.9704,61.7002,-0.8152,-0.2398,-0.2789,249.2969
20:03:08:834,3.2455,0.2017,12.0358,61.1941,-0.8405,-0.2068,-0.3221,249.3594
20:03:08:852,3.0623,0.1706,12.1698,61.0476,-0.6514,-0.1429,-0.1724,249.5312
20:03:08:872,3.911,0.4794,10.8997,61.6569,-0.4171,-0.1671,-0.0403,250
20:03:08:894,4.4485,1.0564,9.4752,61.4158,-0.3478,-0.3045,-0.0667,250.3594
20:03:08:912,4.5587,1.321,8.9532,61.0212,-0.4432,-0.4193,-0.1945,250.5
20:03:08:933,4.2822,1.57,8.9868,60.7986,-0.5561,-0.2981,-0.3468,250.5938
20:03:08:951,3.7207,1.8382,8.4301,61.4386,-0.6075,0.0343,-0.5074,250.7812
20:03:08:973,3.2036,2.0872,7.4018,60.9128,-0.6426,0.3813,-0.6472,250.9531
20:03:08:993,2.696,2.3326,6.7039,61.2218,-0.6751,0.5754,-0.7655,251.3906
20:03:09:012,2.265,2.4511,6.5686,60.542,-0.6458,0.5999,-0.8675,252.0312
20:03:09:032,1.7587,2.5145,6.4297,60.542,-0.5643,0.5922,-0.9508,252.7969
20:03:09:052,1.202,2.5468,6.1903,59.9276,-0.5217,0.6044,-0.9764,253.6562
20:03:09:074,0.7244,2.6677,6.6752,62.7621,-0.5252,0.5291,-0.9439,254.6562
20:03:09:094,0.3592,2.7096,7.7394,60.3438,-0.4639,0.3674,-0.8896,255.7656
20:03:09:112,0.0815,2.6354,8.8766,59.8601,-0.3193,0.1615,-0.8123,256.8281
20:03:09:136,-0.1723,2.5636,9.5913,63.6589,-0.1446,0.0148,-0.7029,258.9531
20:03:09:152,-0.2465,2.5361,10.1934,60.5935,-0.0359,-0.055,-0.5801,259.4375
20:03:09:172,-0.219,2.5444,10.7249,60.8269,-0.0032,0.0244,-0.4789,260.2656
20:03:09:194,-0.2992,2.4571,11.3355,60.88,-0.0485,0.1882,-0.3982,261
20:03:09:215,-0.3842,2.2978,12.0142,61.6856,-0.0842,0.3267,-0.3103,261.6094
20:03:09:232,-0.7421,2.08,12.584,59.0275,-0.0618,0.3578,-0.2035,262.1094
20:03:09:252,-1.1156,1.8274,13.0988,62.5295,0.0117,0.3078,-0.0251,262.4844
20:03:09:272,-0.9911,1.8597,13.0952,61.5732,0.0985,0.2668,0.1829,262.7812
20:03:09:293,-0.5889,2.0369,12.7265,59.9519,0.1015,0.1432,0.3334,262.9219
20:03:09:312,-0.1675,1.9878,13.5345,61.0076,-0.0184,-0.1575,0.3872,262.8281
20:03:09:332,-0.3518,1.3689,15.7935,61.2458,-0.0474,-0.403,0.4127,262.5156
20:03:09:353,-1.0713,0.5225,17.2899,60.7783,0.2005,-0.2422,0.5366,262.0938
20:03:09:373,-1.4352,-0.1766,15.4702,61.6083,0.665,0.1741,0.8053,261.6719
20:03:09:395,-0.9839,0.0844,11.6036,60.8767,0.9286,0.3075,1.086,261.1562
20:03:09:413,-0.2884,0.3538,9.6416,58.9634,0.8954,0.0121,1.2167,260.3906
20:03:09:433,-0.0681,0.3933,9.5015,60.404,0.7776,-0.3133,1.2207,259.2656
20:03:09:457,-0.0394,0.155,9.9313,60.2988,0.7316,-0.3461,1.2082,257.9688
20:03:09:480,0.0683,0.0066,9.1555,59.4,0.7713,-0.1125,1.2295,256.5469
20:03:09:497,0.394,0.1969,7.4916,58.5549,0.7734,0.1578,1.2551,255.1562
20:03:09:516,0.6418,0.4615,5.9904,57.3931,0.6706,0.3187,1.2242,253.8281
20:03:09:532,1.0991,0.7679,5.2638,57.1233,0.4325,0.4606,1.1379,252.3594
20:03:09:552,1.4139,1.1726,5.3583,59.8659,0.0682,0.7759,0.972,250.8906
20:03:09:573,1.1278,1.1426,6.1413,57.3215,-0.2392,1.0971,0.784,249.4688
20:03:09:598,0.6035,0.987,6.9792,58.4441,-0.3095,1.1733,0.7014,248.25
20:03:09:613,0.2802,0.8517,8.0147,57.4526,-0.098,0.8806,0.7368,247.1719
20:03:09:632,0.2814,0.5884,8.4924,58.5976,0.3521,0.3379,0.854,246.25
20:03:09:652,0.7603,0.8063,7.8782,57.4986,0.8242,-0.215,0.9579,245.3906
20:03:09:672,1.4761,1.2061,7.0941,58.5804,1.0562,-0.5487,0.9241,243.9375
20:03:09:698,2.2171,1.5736,6.3795,57.5695,0.9603,-0.4907,0.7371,242.8594
20:03:09:719,2.5751,1.9112,5.8947,57.896,0.5606,-0.2017,0.4175,241.9062
20:03:09:734,2.2638,1.734,6.583,56.3297,-0.016,0.0963,0.0545,241.1094
20:03:09:752,1.4115,0.9727,8.7114,57.0579,-0.4791,0.3099,-0.2025,240.6562
20:03:09:771,0.5268,0.2137,10.5897,57.0503,-0.6234,0.4159,-0.2643,240.5781
20:03:09:799,-0.1459,-0.3406,11.1966,57.1262,-0.534,0.3757,-0.1295,240.7656
20:03:09:817,0.1797,-0.258,10.549,56.628,-0.4341,0.2478,0.1336,241.0312
20:03:09:833,1.2367,0.2999,9.6045,56.1209,-0.4911,0.0353,0.2748,241.1406
20:03:09:852,2.0891,0.6734,9.3722,55.3438,-0.7808,-0.2518,0.1701,240.9688
20:03:09:872,2.3692,0.3992,11.4145,55.5622,-1.2533,-0.3892,-0.1047,240.7969
20:03:09:899,0.9997,-0.2316,14.7843,57.9534,-1.5705,0.0771,-0.3394,240.5312
20:03:09:913,-0.1723,-0.6686,16.2699,56.5719,-1.4171,1.0143,-0.2499,240.5
20:03:09:940,0.3078,0.0664,13.2329,56.2243,-1.0051,1.565,0.0143,240.7969
20:03:09:951,1.7587,0.926,10.5897,55.2353,-0.7974,1.1698,0.1179,241.1719
20:03:09:972,2.3644,1.2181,10.3922,54.6804,-0.6533,0.2524,-0.0171,241.1719
20:03:09:996,1.8065,0.8266,10.7489,57.6301,-0.4229,-0.4366,-0.1844,240.9688
20:03:10:011,1.0153,0.7668,10.021,56.2749,-0.2469,-0.4459,-0.2121,240.9688
20:03:10:033,0.643,1.072,8.8635,54.518,-0.1441,-0.1426,-0.1694,241.1719
20:03:10:052,0.9219,1.6215,6.2885,54.1426,-0.0924,0.2833,-0.1553,241.3906
20:03:10:074,0.7339,1.9136,6.1987,52.4114,-0.1305,0.2177,-0.2195,241.3906
20:03:10:094,0.4658,1.9315,6.8344,54.0954,-0.1097,0.1964,-0.2856,241.5781
20:03:10:113,0.4418,1.971,6.905,54.5154,-0.0988,0.3067,-0.3532,241.7344
20:03:10:133,0.0253,2.0285,6.6608,52.7918,-0.2839,0.5307,-0.4491,241.8906
20:03:10:151,-0.5434,1.9675,8.0135,55.9579,-0.6059,0.7155,-0.5197,242.4688
20:03:10:172,-1.3311,1.5185,10.1815,53.7246,-0.7396,0.8316,-0.5434,242.4688
20:03:10:198,-2.7065,0.9535,11.9053,53.0369,-0.5521,0.8154,-0.4147,243.3438
20:03:10:212,-3.2129,0.6698,12.4559,53.9516,-0.0652,0.6782,-0.1037,244.5156
20:03:10:232,-3.0178,0.9188,10.7465,52.2637,0.4304,0.4923,0.2231,244.7812
20:03:10:252,-2.4875,1.2169,9.231,53.9225,0.5904,0.2641,0.4394,245.0625
20:03:10:272,-2.0517,1.2695,9.2741,53.9451,0.473,0.0905,0.5246,244.8906
20:03:10:294,-2.2193,1.0134,10.4125,51.9352,0.3483,-0.0201,0.5712,244.6875
20:03:10:311,-2.4492,0.6614,11.3391,53.544,0.3268,-0.0733,0.6703,244.2031
20:03:10:331,-2.2959,0.586,11.466,52.2279,0.286,-0.052,0.792,243.9062
20:03:10:351,-1.841,0.7763,11.2732,51.9653,0.0682,-0.0901,0.8471,243.2969
20:03:10:372,-1.8829,0.5201,13.4041,51.8132,-0.2362,-0.3572,0.8045,242.5469
20:03:10:396,-2.6898,-0.1885,16.0963,53.4781,-0.2083,-0.3546,0.8511,241.7188
20:03:10:413,-3.1902,-0.9272,16.0329,50.8482,0.2879,-0.0595,1.091,240.75
20:03:10:431,-2.8574,-0.8996,11.6922,52.5378,0.7231,0.1392,1.4085,239.8125
20:03:10:451,-1.6998,-0.2005,8.8946,50.389,0.6392,-0.0928,1.5984,238.875
20:03:10:474,-0.9049,0.3023,8.9724,49.7114,0.3792,-0.5375,1.5352,237.6406
20:03:10:496,-0.9336,0.0461,10.4149,48.7232,0.2381,-0.7375,1.3928,236.0938
20:03:10:514,-1.209,-0.337,10.6483,50.7769,0.2807,-0.6196,1.3326,233.5312
20:03:10:531,-1.2808,-0.5189,9.8235,49.0754,0.3827,-0.3652,1.3605,231.8906
20:03:10:551,-0.9444,-0.4747,8.5773,47.8138,0.4642,-0.1162,1.4221,230.3906
20:03:10:571,-0.4775,-0.2161,7.2079,49.1111,0.5103,0.0526,1.4508,228.9688
20:03:10:595,-0.0478,0.0581,6.2167,47.9976,0.5156,0.0638,1.4266,227.4062
20:03:10:640,0.3497,0.2556,5.8528,48.5898,0.5068,-0.0443,1.3712,225.7812
20:03:10:641,0.716,0.4807,6.1173,48.034,0.502,-0.1761,1.2852,224.1562
20:03:10:652,1.0811,0.6159,6.6776,46.6512,0.5358,-0.2267,1.1725,222.6406
20:03:10:671,1.4534,0.9224,6.6608,49.2836,0.5681,-0.1594,1.0367,221.1562
20:03:10:694,1.7431,1.2193,6.5626,45.5076,0.5068,-0.0619,0.8346,219.7812
20:03:10:711,1.7503,1.412,6.9062,48.1463,0.3766,0.0678,0.5999,218.6094
20:03:10:734,1.6366,1.5413,7.0929,48.6087,0.265,0.2012,0.3669,217.5625
20:03:10:752,1.3469,1.5389,7.0941,47.2998,0.1404,0.259,0.1472,216.75
20:03:10:772,1.0667,1.4527,7.2569,46.5449,-0.0194,0.2497,-0.0379,216.2188
20:03:10:796,0.9195,1.333,7.7178,47.3258,-0.224,0.1496,-0.2073,216.0312
20:03:10:821,0.8908,0.908,8.5618,47.4449,-0.4464,0.0335,-0.383,215.8281
20:03:10:831,0.9183,0.3897,9.8247,45.8189,-0.6831,-0.0478,-0.541,215.9375
20:03:10:851,1.1003,-0.3035,11.1104,47.1942,-0.885,-0.0251,-0.684,216.2344
20:03:10:871,1.044,-1.0121,12.0106,45.5732,-1.0853,0.0843,-0.8025,216.75
20:03:10:895,0.5915,-1.5377,12.7229,45.7432,-1.2717,0.169,-0.8533,217.4219
20:03:10:913,-0.3375,-1.655,14.1211,47.8138,-1.3513,0.1978,-0.7719,218.1875
20:03:10:935,-1.3155,-1.5987,15.3805,47.0398,-1.1366,0.3743,-0.4991,219.0938
20:03:10:952,-1.3083,-1.4898,13.8613,45.8785,-0.6767,0.5805,-0.056,219.9688
20:03:10:972,-0.0681,-0.7284,10.9739,47.2025,-0.3705,0.4657,0.3981,220.6562
20:03:10:994,2.0041,0.1586,9.7146,45.7337,-0.2693,-0.1785,0.5896,220.9062
20:03:11:013,3.3316,0.7919,10.276,45.7337,-0.2349,-0.8987,0.4495,220.6562
20:03:11:034,3.2335,0.8996,11.1571,46.2284,-0.196,-1.0241,0.1339,220.0156
20:03:11:052,2.1609,0.6482,10.7166,46.481,-0.1153,-0.5391,-0.0917,219.3906
20:03:11:071,1.1637,0.7584,8.8527,46.4405,-0.0226,0.0356,-0.1343,219.0312
20:03:11:090,0.9075,1.1031,6.7997,46.2245,0.0256,0.3512,-0.0885,219.125
20:03:11:112,1.0272,1.4084,5.4469,45.1135,0.0479,0.2689,-0.0776,219.2812
20:03:11:131,1.2403,1.6562,4.8556,45.4228,0.0613,-0.014,-0.146,219.375
20:03:11:151,1.1386,1.8968,4.7849,45.5461,0.0397,-0.2619,-0.3042,219.4688
20:03:11:172,0.5903,1.7544,4.8352,45.3714,-0.0661,-0.3892,-0.4928,219.625
20:03:11:197,-0.0729,1.5724,5.6253,45.8172,-0.3055,-0.3959,-0.6014,219.9844
20:03:11:212,-0.6667,1.3474,7.4856,46.1865,-0.5502,-0.3154,-0.632,220.5469
20:03:11:233,-1.3083,1.1127,9.8044,45.3512,-0.6304,-0.1876,-0.5793,221.2188
20:03:11:251,-1.6459,1.0385,11.8263,43.921,-0.4847,-0.0334,-0.4368,221.5469
20:03:11:274,-1.5872,1.0732,12.6954,45.9886,-0.1481,0.0731,-0.2626,222.2344
20:03:11:293,-1.3586,1.3653,12.1794,45.1691,0.188,0.1115,-0.1162,222.8125
20:03:11:313,-1.2401,1.5592,11.6623,43.4112,0.3425,0.0697,-0.0464,223.2031
20:03:11:333,-0.9648,1.649,11.5031,43.695,0.3526,0.0425,-0.0065,223.3906
20:03:11:350,-0.9205,1.7568,11.8095,45.2859,0.2442,0.0313,-0.0246,223.4844
20:03:11:370,-1.1754,1.509,12.6247,43.616,0.093,0.0787,-0.04,223.5312
20:03:11:390,-1.5094,1.0924,13.6794,45.1094,-0.0189,0.1368,0.0271,223.5625
20:03:11:412,-2.011,0.9667,14.5868,43.6993,-0.045,0.1821,0.1722,223.6094
20:03:11:432,-2.2373,0.671,15.4068,44.6907,0.0128,0.1411,0.3683,223.5781
20:03:11:457,-3.1854,-0.4352,16.2615,43.4888,0.5638,0.1272,0.9808,223.3906
20:03:11:479,-2.8083,-0.5812,13.7775,43.7207,1.0597,0.1453,1.442,222.2812
20:03:11:493,-1.5214,-0.3418,10.9787,44.585,1.3273,-0.0528,1.7874,221.25
20:03:11:523,-0.3255,0.0533,9.2393,45.2555,1.3002,-0.4544,1.9062,221.25
20:03:11:531,0.1713,0.3166,9.5721,44.0722,1.114,-0.8441,1.8674,219.625
20:03:11:557,0.3916,0.0712,10.6806,43.1605,1.0762,-1.011,1.8117,215.5156
20:03:11:570,0.4035,-0.0676,10.3479,43.7817,1.2205,-0.9703,1.8154,215.5156
20:03:11:591,0.8273,0.0473,9.1005,43.3882,1.354,-0.8574,1.8934,213.5625
20:03:11:613,1.7012,0.4304,7.8531,44.2676,1.4757,-0.7692,1.9318,211.5781
20:03:11:640,2.5092,0.9008,6.5363,44.4047,1.5827,-0.7389,1.837,207.5781
20:03:11:651,2.963,1.2659,5.2267,44.1871,1.6019,-0.6904,1.5973,206.4844
20:03:11:673,3.024,1.3545,4.2822,42.9299,1.4826,-0.5445,1.2953,204.3438
20:03:11:698,3.024,1.3354,3.7878,43.8104,1.2669,-0.3346,1.0218,201.6094
20:03:11:711,2.9127,1.3402,3.5507,43.5765,0.9971,-0.0976,0.7824,200.8125
20:03:11:731,2.5128,1.4288,3.4502,42.1717,0.6554,0.1426,0.5917,199.4688
20:03:11:750,2.2171,1.5413,4.3743,42.7684,0.3025,0.2055,0.4465,198.9062
20:03:11:771,1.8724,1.5221,5.6684,44.7694,0.114,0.1919,0.3475,197.9375
20:03:11:798,1.7922,1.7352,6.3172,42.8996,0.049,0.0521,0.2939,197.2188
20:03:11:819,2.1477,1.8705,6.7841,44.1824,-0.0139,-0.1692,0.2135,196.6406
20:03:11:832,2.3416,1.9016,7.4293,43.1195,-0.1505,-0.3684,0.0724,196.2031
20:03:11:850,2.4314,1.4934,8.5486,43.2818,-0.3425,-0.4592,-0.0637,195.8594
20:03:11:870,2.3416,0.8745,9.5626,42.8824,-0.5523,-0.362,-0.1367,195.6562
20:03:11:890,2.1609,0.2316,10.6723,44.5342,-0.7814,-0.141,-0.0943,195.6719
20:03:11:913,2.514,-0.3896,11.4013,41.958,-0.898,0.0702,0.1038,195.8594
20:03:11:932,3.6417,-0.2245,11.3355,43.7124,-0.9254,0.1621,0.3936,196.25
20:03:11:950,5.2949,0.6925,10.8387,42.8665,-0.9875,0.0654,0.4713,196.3594
20:03:11:970,5.5475,1.4682,10.9967,43.1227,-1.1806,-0.1085,0.1951,196.1562
20:03:11:990,4.2079,1.0421,12.2034,41.2866,-1.4024,-0.0531,-0.1668,195.6719
20:03:12:012,2.1202,0.2424,13.1275,42.4898,-1.4637,0.365,-0.2632,195.3594
20:03:12:030,0.8141,-0.0832,12.9252,44.6581,-1.3308,0.7642,0.0053,195.5156
20:03:12:051,1.7299,0.2173,12.2177,42.2592,-1.0583,0.6604,0.4668,195.9219
20:03:12:070,3.6632,1.2755,11.5713,43.9365,-0.7143,0.1024,0.6969,196.1875
20:03:12:090,4.5299,2.2093,11.2385,44.0055,-0.3694,-0.5386,0.5773,195.9531
20:03:12:113,4.6149,2.5085,10.7333,43.3592,-0.1217,-0.6936,0.2761,195.2969
20:03:12:131,4.2103,2.7875,9.4069,43.3079,-0.0437,-0.2843,-0.0611,194.5938
20:03:12:150,3.7626,2.7719,7.9656,42.8014,-0.1143,0.2393,-0.4139,194.1562
20:03:12:171,3.0336,2.4152,7.0486,43.4483,-0.2352,0.6577,-0.7311,194.0625
20:03:12:191,2.1537,2.0453,6.7697,43.5856,-0.2892,0.8676,-0.9109,194.3438
20:03:12:211,1.621,1.9579,6.6632,44.0452,-0.2152,0.9261,-0.9697,194.9844
20:03:12:231,1.3253,2.0165,6.2502,43.4274,-0.1156,0.8806,-0.999,195.9375
20:03:12:250,1.1613,2.1302,6.0958,45.0431,-0.0879,0.777,-1.0161,196.9375
20:03:12:270,0.9303,2.1877,6.7123,44.1772,-0.1382,0.6713,-1.0275,198.0312
20:03:12:291,0.6968,2.2428,7.6292,43.6947,-0.1784,0.56,-1.0107,199.1406
20:03:12:312,0.4011,2.1027,9.0682,44.2388,-0.1803,0.4731,-0.9511,200.2188
20:03:12:330,0.1713,1.9375,10.3096,44.2616,-0.1071,0.5493,-0.8158,201.375
20:03:12:350,0.1055,2.1075,10.5454,45.5503,0.012,0.708,-0.6485,202.4844
20:03:12:370,-0.0143,2.2523,10.1827,43.9431,0.0786,0.764,-0.4922,203.4844
20:03:12:391,-0.3913,2.2966,9.9792,43.9996,0.0525,0.6497,-0.3298,204.25
20:03:12:414,-0.7182,2.1315,10.6854,46.5219,-0.0365,0.3714,-0.1196,204.8594
20:03:12:440,-0.778,1.8597,12.3757,43.0622,-0.0685,0.0601,0.1475,205.2969
20:03:12:450,-0.3087,1.6622,13.9056,44.2589,0.0378,-0.056,0.4439,205.5312
20:03:12:470,0.3868,1.8765,14.1104,42.6035,0.2317,0.0055,0.6862,205.5
20:03:12:492,1.1936,2.3409,13.3239,46.1692,0.3334,0.0377,0.8026,204.875
20:03:12:514,1.8496,2.5552,13.2628,46.181,0.286,-0.0321,0.7869,204.125
20:03:12:531,1.9622,2.3421,14.339,45.8918,0.2722,-0.0797,0.7153,203.2188
20:03:12:550,1.6174,2.0345,14.4156,45.6278,0.4895,0.0372,0.6758,202.3125
20:03:12:571,1.3145,1.8334,12.4559,45.916,0.7361,0.1312,0.699,201.5469
20:03:12:591,1.7467,1.8154,10.8195,45.0096,0.7904,-0.0339,0.7267,200.7812
20:03:12:614,2.4242,1.8382,10.5585,46.1853,0.7308,-0.4467,0.6404,199.9844
20:03:12:630,2.6589,1.4575,11.4743,46.4418,0.6844,-0.7522,0.4343,199.1562
20:03:12:706,2.2674,0.8805,11.5438,46.7619,0.7052,-0.6433,0.2149,198.5
20:03:12:709,1.524,0.428,10.6052,45.3333,0.7231,-0.235,0.0716,198.0781
20:03:12:709,0.7938,0.1275,9.1244,46.6907,0.7276,0.2106,0.0364,197.9688
20:03:12:710,0.3329,0.0676,7.4557,47.9074,0.747,0.4406,0.1105,197.8594
20:03:12:731,0.2599,0.1766,6.0993,46.5398,0.7715,0.3461,0.2236,197.8125
20:03:12:750,0.4885,0.3609,5.2733,46.7607,0.7726,0.0763,0.3169,197.6875
20:03:12:770,0.8644,0.5776,5.0806,47.9125,0.7372,-0.2211,0.3445,197.4219
20:03:12:790,0.9781,0.7703,4.9669,48.024,0.6429,-0.4182,0.307,196.9062
20:03:12:812,1.044,0.8673,5.6421,47.8213,0.4666,-0.4758,0.2814,196.5469
20:03:12:831,1.117,0.9786,6.6345,46.6686,0.3361,-0.3128,0.2761,196.25
20:03:12:851,1.1457,1.394,7.2845,46.529,0.3039,-0.0955,0.2963,196.0156
20:03:12:872,1.1266,2.2703,7.239,46.5447,0.4008,-0.0339,0.2854,195.75
20:03:12:899,1.2583,2.7073,6.7997,46.96,0.3896,-0.1167,0.2844,195.75
20:03:12:923,1.4965,3.0329,6.4932,48.5241,0.2368,-0.219,0.2231,195.4219
20:03:12:931,1.761,3.1095,6.9146,47.9084,-0.0754,-0.3351,0.1174,195.0781
20:03:12:951,1.876,2.7132,8.5845,48.4471,-0.4101,-0.386,-0.0168,194.4375
20:03:12:971,1.6629,1.8429,10.6675,46.5356,-0.5915,-0.2635,-0.0624,194.2188
20:03:12:990,1.9263,1.1941,11.7748,46.5356,-0.555,-0.0275,0.0561,194.1562
20:03:13:016,2.7355,1.1426,10.7238,48.5324,-0.4698,0.1376,0.1555,194.2812
20:03:13:033,3.4909,1.2995,9.8152,48.4464,-0.5934,0.047,0.1185,194.4219
20:03:13:051,4.2163,1.2061,9.9181,47.82,-0.8717,-0.2707,-0.0499,194.3906
20:03:13:070,3.9027,0.683,12.7277,48.255,-1.1417,-0.5383,-0.2675,194.1406
20:03:13:095,2.6349,0.2939,15.0285,47.5031,-0.9966,-0.2227,-0.3106,194.125
20:03:13:114,2.1633,0.4316,13.4723,48.6905,-0.5084,0.2857,-0.117,194.4219
20:03:13:133,3.0479,1.1845,9.9157,47.5937,-0.2703,0.3932,0.066,194.9062
20:03:13:152,4.2486,1.4156,8.6456,48.7882,-0.3206,-0.0568,0.0583,195.2344
20:03:13:170,4.8352,1.6801,9.1172,48.2897,-0.4221,-0.6118,-0.1013,195.2344
20:03:13:190,4.3181,1.7723,10.1539,47.114,-0.4778,-0.7453,-0.3362,195.125
20:03:13:214,3.3388,1.5987,9.9792,46.0455,-0.4677,-0.3975,-0.4896,195.0781
20:03:13:233,2.4853,1.7388,8.7952,47.2281,-0.4764,0.1512,-0.5204,195.2969
20:03:13:256,1.8951,2.0692,7.5059,47.447,-0.482,0.4574,-0.4935,196.0781
20:03:13:269,1.5348,2.4954,6.8176,48.1214,-0.4442,0.4468,-0.4451,196.7031
20:03:13:290,1.2858,2.9012,6.6357,47.5089,-0.3779,0.2641,-0.3886,197.2812
20:03:13:323,1.4306,3.1897,7.3108,48.8917,-0.2695,0.0686,-0.3274,197.7812
20:03:13:340,1.6761,3.4758,7.6197,48.1191,-0.1073,-0.0084,-0.3109,198.25
20:03:13:349,1.7958,3.6985,7.7897,47.7934,0.0107,0.0026,-0.3428,198.6562
20:03:13:373,1.8089,3.8876,7.9824,48.6953,0.0836,0.0803,-0.4139,199.0156
20:03:13:410,1.354,3.8481,7.9249,47.8757,0.0754,0.2327,-0.4821,199.375
20:03:13:411,0.965,3.7655,8.4253,48.1618,0.0069,0.3791,-0.4704,199.7969
20:03:13:437,0.807,3.6817,9.2238,50.0101,0.0032,0.4947,-0.4206,200.2969
20:03:13:450,0.6669,3.5728,9.6631,49.399,0.098,0.5456,-0.3668,200.7969
20:03:13:470,0.5017,3.5692,9.5051,47.2361,0.1832,0.5043,-0.3172,201.2656
20:03:13:489,0.2479,3.3968,9.778,47.349,0.1502,0.3474,-0.2568,201.6719
20:03:13:513,0.066,3.0604,11.0709,49.5775,0.0791,0.1586,-0.1433,201.8594
20:03:13:531,0.2264,2.9263,12.5254,49.0853,0.0554,0.1078,-0.0035,202.1562
20:03:13:553,0.297,3.1131,13.5166,47.2804,0.0466,0.201,0.0942,202.4062
20:03:13:570,0.218,3.2208,13.9846,48.1337,0.0399,0.2396,0.1509,202.5781
20:03:13:590,0.1605,2.7934,14.5736,47.8587,-0.0378,0.071,0.2063,202.5
20:03:13:614,-0.4261,1.8202,16.6171,46.9216,-0.0394,-0.1333,0.3272,202.3281
20:03:13:629,-1.1276,0.8745,17.8597,46.3085,0.3108,0.0316,0.6212,202.1094
20:03:13:650,-0.9492,0.6434,14.7221,46.4138,0.8916,0.4241,1.0255,201.8438
20:03:13:669,-0.1675,1.3438,10.1216,46.3707,1.1369,0.4058,1.3339,201.3438
20:03:13:689,0.7663,1.8382,7.9213,46.0842,1.0008,-0.1149,1.4332,200.375
20:03:13:715,1.1829,1.8166,8.8503,44.6986,0.763,-0.6997,1.3723,199.0156
20:03:13:732,1.2643,1.2791,10.1001,45.7222,0.7324,-0.8861,1.2948,197.375
20:03:13:749,1.1948,1.09,9.5877,45.34,0.8285,-0.716,1.257,195.8125
20:03:13:770,1.2906,0.9751,8.1823,45.664,0.8908,-0.4683,1.2386,194.3906
20:03:13:789,1.5779,0.981,6.8056,45.8038,0.8876,-0.2494,1.2151,193.1094
20:03:13:814,1.8377,1.1474,5.66,43.6593,0.8562,-0.1253,1.1555,191.7344
20:03:13:832,1.9813,1.2372,4.8807,43.3352,0.8013,-0.1503,1.0529,190.3281
20:03:13:849,1.949,1.1774,4.6437,44.748,0.7265,-0.2808,0.9451,189.0156
20:03:13:869,1.9215,1.0936,5.0327,43.6368,0.6322,-0.354,0.8583,187.125
20:03:13:890,1.9239,1.0912,5.7977,42.943,0.5654,-0.3317,0.8018,186.0312
20:03:13:914,2.1333,1.2935,5.9796,44.0871,0.5502,-0.2355,0.7454,185.125
20:03:13:930,2.4123,1.6155,5.8204,43.6179,0.4495,-0.1346,0.6639,184.2188
20:03:13:950,2.5272,1.9208,6.1867,43.6377,0.2629,-0.0273,0.5643,183.3594
20:03:13:969,2.708,2.2859,6.6991,43.815,0.106,0.0622,0.4705,182.625
20:03:13:990,3.0767,2.5409,7.1312,42.2515,0.0136,0.0814,0.3456,181.9531
20:03:14:012,3.3795,2.7216,7.2426,43.1646,-0.1089,0.0332,0.1768,181.3906
20:03:14:033,3.6214,2.4882,7.8615,43.2138,-0.3366,-0.043,-0.0065,181.1719
20:03:14:051,3.5842,1.8322,9.292,42.9321,-0.6437,-0.0113,-0.1497,180.8594
20:03:14:070,3.5962,0.8074,11.2349,42.181,-0.8594,0.2604,-0.138,180.7969
20:03:14:094,3.8919,0.0724,11.2624,41.6528,-0.886,0.6521,0.0178,180.9531
20:03:14:115,4.7251,0.1454,10.2928,42.08,-0.8908,0.7067,0.1944,181.2188
20:03:14:129,5.5523,0.4112,9.3399,42.0738,-0.9342,0.2452,0.189,181.2812
20:03:14:149,5.6492,0.4196,9.9708,41.8803,-1.0775,-0.4739,0.0071,181.1094
20:03:14:169,4.6113,-0.3035,12.4404,41.8636,-1.237,-0.6465,-0.1913,180.7812
20:03:14:189,3.1473,-0.7775,13.0952,40.7721,-1.1803,0.0228,-0.1553,180.9375
20:03:14:215,2.8803,-0.1059,11.2553,41.4111,-1.0192,0.5767,0.078,181.3594
20:03:14:235,4.1433,1.0241,9.1951,41.9342,-0.9236,0.4364,0.1794,181.6562
20:03:14:254,4.8472,1.9088,8.4696,41.286,-0.9507,-0.1908,-0.0105,181.5938
20:03:14:272,3.4155,1.9088,9.7266,41.5961,-1.0967,-0.5602,-0.7047,181.4219
20:03:14:298,1.9753,1.6131,9.4057,41.9547,-1.1286,-0.0342,-0.8768,181.4219
20:03:14:316,0.9638,1.6382,8.6719,41.8718,-1.0551,0.3951,-0.8848,182.0625
20:03:14:331,0.5304,1.9363,7.8316,41.6591,-0.8994,0.5003,-0.8075,183.0312
20:03:14:349,0.4969,2.2763,7.3874,41.4607,-0.722,0.3368,-0.7101,183.5781
20:03:14:369,0.801,2.6259,7.4365,42.2482,-0.5393,0.1083,-0.6571,183.5781
20:03:14:389,0.8537,2.8497,7.4796,42.7039,-0.4096,-0.0329,-0.6792,186.1719
20:03:14:415,0.9063,2.8425,8.1045,41.8005,-0.3771,-0.0427,-0.6978,187.0312
20:03:14:429,1.0883,2.8353,9.0442,42.4945,-0.3563,0.0319,-0.689,187.8281
20:03:14:448,1.354,2.7456,10.2138,41.6001,-0.2828,0.0974,-0.6635,188.5938
20:03:14:468,1.6282,2.5097,11.1056,42.0293,-0.1398,0.1933,-0.6326,189.4219
20:03:14:489,1.7335,2.3769,11.3343,40.0715,-0.0032,0.3653,-0.5766,190.25
20:03:14:511,1.8784,2.3589,11.3977,40.5018,0.0732,0.5435,-0.5207,191.0156
20:03:14:533,1.7144,2.2009,11.5509,40.4445,0.1388,0.597,-0.4611,191.7188
20:03:14:549,1.3337,1.8573,11.8981,42.6074,0.2474,0.5051,-0.338,192.9531
20:03:14:568,1.1254,1.6167,12.1387,42.0711,0.3689,0.345,-0.1388,192.9531
20:03:14:588,1.4043,1.6574,12.365,42.3422,0.4754,0.1914,0.082,193.4219
20:03:14:609,1.8461,1.8669,12.0178,41.7065,0.5345,0.0691,0.2141,193.7969
20:03:14:628,2.3716,2.1099,11.5593,42.298,0.437,-0.0148,0.2282,193.8906
20:03:14:649,2.8037,2.086,12.3566,41.9035,0.1558,-0.1825,0.1299,193.6875
20:03:14:669,2.6301,1.4922,14.9483,42.4861,-0.0882,-0.3482,-0.0182,193.3906
20:03:14:689,1.4283,0.6123,17.7687,42.5797,0.0048,-0.1239,-0.0808,193.1562
20:03:14:744,0.2671,-0.5082,17.0923,42.5751,0.4993,0.4793,0.0625,193.1094
20:03:14:745,-0.0143,-0.6303,12.5661,42.4263,0.9207,0.8942,0.3792,193.2031
20:03:14:748,0.3066,-0.2245,9.4692,43.5558,0.9702,0.6375,0.6497,193.2344
20:03:14:769,0.6382,-0.0652,8.9161,43.3919,0.9012,0.05,0.8053,192.9219
20:03:14:788,0.8501,-0.0006,9.3734,42.8731,0.9303,-0.3748,0.9142,192.25
20:03:14:810,1.1781,0.1706,9.0418,43.7813,1.04,-0.5184,0.9848,191.3594
20:03:14:836,1.3852,0.5154,8.0937,42.6521,1.09,-0.5008,0.9864,190.3438
20:03:14:849,1.5839,0.7584,7.3072,45.6057,1.0472,-0.4323,0.9299,189.3125
20:03:14:870,1.6976,0.8805,6.723,42.1873,0.9657,-0.3298,0.834,188.75
20:03:14:889,1.773,0.9415,6.2107,43.725,0.8828,-0.2699,0.7278,187.6094
20:03:14:914,1.7383,1.0014,5.8659,42.8997,0.8024,-0.2755,0.626,186.5312
20:03:14:932,1.718,1.0026,5.8563,45.1847,0.7199,-0.3048,0.5464,186.0938
20:03:14:950,1.5432,0.8314,6.1676,45.1847,0.6607,-0.2973,0.4926,184.375
20:03:14:970,1.2367,0.7452,6.3998,44.9455,0.6266,-0.1668,0.5086,183.6875
20:03:14:990,1.1864,0.8853,6.2454,45.2388,0.5526,0.0617,0.5746,183.125
20:03:15:015,1.4115,1.0612,6.2298,45.2388,0.4088,0.2162,0.6383,182.5469
20:03:15:032,1.9669,1.4611,6.6261,44.2232,0.2439,0.3107,0.6633,181.8906
20:03:15:049,2.2435,1.8382,6.9493,44.2707,0.0914,0.3538,0.5872,181.1562
20:03:15:072,2.6014,1.9914,7.2653,44.4736,-0.0559,0.2646,0.454,180.3281
20:03:15:090,3.0084,1.7268,8.1644,44.3588,-0.2559,0.1344,0.2812,179.5156
20:03:15:113,3.3987,1.0337,9.6691,44.5013,-0.4876,0.1538,0.1299,178.875
20:03:15:129,3.3712,0.2328,11.4205,45.3986,-0.6778,0.3685,0.0865,178.4375
20:03:15:148,3.8177,-0.088,12.1459,45.4676,-0.6716,0.6566,0.2093,178.2188
20:03:15:173,4.9968,0.3669,10.9536,45.8595,-0.5633,0.7938,0.2495,178.1406
20:03:15:188,5.6864,0.7644,9.1903,46.4982,-0.6125,0.5959,0.0093,177.9531
20:03:15:209,5.399,0.519,8.2242,45.0068,-0.8727,0.1104,-0.4022,177.5938
20:03:15:228,4.0188,-0.2077,9.3483,45.733,-1.3039,-0.3983,-0.7796,177.3281
20:03:15:253,2.1741,-1.1271,12.3566,44.6543,-1.6112,-0.357,-0.8896,177.8438
20:03:15:269,0.6154,-1.2935,14.2133,46.7822,-1.5188,0.3152,-0.6536,178.8594
20:03:15:288,0.8501,-0.7572,12.3351,46.586,-1.086,0.8082,-0.2219,180.0156
20:03:15:308,2.3644,0.1981,9.3818,47.551,-0.759,0.5307,0.0697,180.8125
20:03:15:329,3.7925,1.0074,8.6504,45.5394,-0.6597,-0.2004,0.0849,181.0625
20:03:15:356,4.0727,1.6442,9.3375,46.7714,-0.6075,-0.7154,-0.1449,180.9844
20:03:15:369,3.4035,1.4599,9.5925,45.647,-0.5776,-0.6017,-0.4248,180.9219
20:03:15:389,2.4338,1.2372,9.1831,46.9075,-0.5771,-0.0917,-0.5916,181.1562
20:03:15:424,1.3696,1.1762,8.3762,46.19,-0.5486,0.3496,-0.6062,181.3906
20:03:15:429,1.1218,1.4659,7.9213,47.1781,-0.4432,0.4636,-0.46,182.0469
20:03:15:449,1.5288,2.0393,7.5862,46.6586,-0.2197,0.2641,-0.3487,182.75
20:03:15:471,1.8472,2.4176,7.1911,47.9205,-0.0186,0.0026,-0.3636,183.3906
20:03:15:489,1.9179,2.5911,6.808,47.4529,0.0277,-0.0914,-0.4533,183.8438
20:03:15:508,1.6401,2.6199,6.9804,47.9594,-0.0871,-0.0305,-0.5583,184.2344
20:03:15:530,1.3516,2.4223,8.1021,47.4949,-0.236,0.1168,-0.6153,184.6719
20:03:15:553,1.2164,2.3912,9.4189,48.0071,-0.2876,0.3301,-0.6083,185.5938
20:03:15:570,1.0835,2.5337,10.1168,49.4644,-0.229,0.4649,-0.5974,186.2969
20:03:15:588,0.7375,2.4463,10.6316,48.2612,-0.1332,0.5067,-0.5769,186.9688
20:03:15:609,0.4706,2.2021,10.8973,49.077,-0.0091,0.4875,-0.5002,187.6562
20:03:15:636,0.4347,2.0417,11.0386,49.6455,0.0879,0.3581,-0.3836,188.3125
20:03:15:649,0.8177,1.6837,11.527,49.232,0.1345,0.1384,-0.2768,188.8438
20:03:15:669,1.0607,1.2109,12.5781,49.2211,0.1476,0.0098,-0.191,189.2812
20:03:15:689,1.4953,1.1067,12.8426,49.4748,0.2091,0.1727,-0.0677,189.5938
20:03:15:713,1.3301,1.1594,12.3327,47.5561,0.0708,0.2936,-0.0834,189.5938
20:03:15:728,0.7926,0.7751,13.1216,49.9742,-0.1401,0.2795,-0.0754,189.7969
20:03:15:748,0.0935,0.2245,14.7065,49.7502,-0.126,0.2204,0.0378,189.9062
20:03:15:768,-0.6331,-0.3609,14.8573,49.3477,0.1856,0.2422,0.2788,189.9688
20:03:15:788,-0.8008,-0.6506,12.7433,48.8723,0.5534,0.2052,0.6021,190.0469
20:03:15:810,-0.0538,-0.7021,10.8506,49.4762,0.6844,-0.1405,0.9225,190.0781
20:03:15:829,1.0979,-0.5584,11.1116,48.5624,0.6812,-0.6286,1.1105,189.4531
20:03:15:848,1.931,-0.2783,11.7664,47.7794,0.7476,-0.8116,1.1291,189.0938
20:03:15:872,1.937,-0.088,10.9548,46.6305,0.8754,-0.6662,1.0447,188.0469
20:03:15:888,1.4354,0.009,9.1711,46.7215,0.9265,-0.3993,0.9672,186.1562
20:03:15:909,1.0859,0.088,7.5694,47.1809,0.8759,-0.1721,0.9531,185.5312
20:03:15:931,1.0596,0.3011,6.407,45.2189,0.804,-0.0701,0.9749,184.4062
20:03:15:949,1.2894,0.4435,5.6971,46.324,0.7374,-0.1261,0.976,183.2969
20:03:15:970,1.5073,0.6039,5.6002,45.6191,0.6847,-0.2771,0.948,182.1875
20:03:15:988,1.6617,0.6997,6.1185,46.2229,0.6514,-0.3732,0.8881,181.0938
20:03:16:008,1.7455,0.7129,6.6009,45.1635,0.6815,-0.3378,0.8162,179.9531
20:03:16:040,1.718,0.8721,6.6392,44.6762,0.7425,-0.2142,0.7454,178.8594
20:03:16:049,1.7503,1.1594,6.2059,44.75,0.7582,-0.1354,0.6769,177.9062
20:03:16:068,1.8903,1.3414,5.8276,43.7877,0.6392,-0.1303,0.5912,176.9688
20:03:16:087,2.1956,1.5963,6.3088,44.9013,0.4051,-0.1205,0.4966,176.0938
20:03:16:109,2.6146,1.9303,7.336,43.9476,0.1872,-0.0611,0.3539,174.6094
20:03:16:130,2.9761,1.9351,8.3918,45.7806,0.0261,0.1014,0.1422,174.2969
20:03:16:150,3.0432,1.5712,8.8527,43.652,-0.1491,0.3512,-0.0746,173.7969
20:03:16:170,2.7941,1.1786,9.4764,42.0088,-0.3633,0.5264,-0.219,173.4844
20:03:16:189,2.3189,0.6447,10.8087,42.6325,-0.4863,0.5155,-0.2629,173.4375
20:03:16:219,2.1633,0.2388,11.7628,41.8053,-0.4133,0.5,-0.138,173.5625
20:03:16:231,2.763,0.3262,11.1559,42.8349,-0.2181,0.4228,0.0609,173.6875
20:03:16:251,3.9099,0.7308,9.8726,41.8648,-0.1422,0.2116,0.1501,173.9375
20:03:16:268,5.2243,1.2432,9.0789,42.2054,-0.3249,-0.1053,0.0194,174.0469
20:03:16:288,5.9449,1.2073,10.1551,40.896,-0.7537,-0.476,-0.3535,173.9375
20:03:16:308,4.998,0.2292,13.6973,42.1729,-1.1302,-0.3538,-0.7583,173.75
20:03:16:330,2.951,-0.726,15.5636,39.699,-1.0272,0.4686,-0.8866,173.9375
20:03:16:355,1.7694,-0.9259,13.0246,39.6774,-0.5611,1.1171,-0.6507,174.7031
20:03:16:371,2.3452,-0.4148,9.2764,41.1463,-0.2423,0.8763,-0.3191,175.7656
20:03:16:389,3.3448,0.1622,8.0291,41.7647,-0.1465,-0.0326,-0.1505,176.6094
20:03:16:409,4.0691,0.8913,8.5606,40.3854,-0.1097,-0.8704,-0.1913,177.0625
20:03:16:433,3.7662,1.0936,9.2022,40.2842,-0.0959,-0.9985,-0.3958,177.2656
20:03:16:449,2.7846,0.9332,8.5127,38.7778,-0.1057,-0.5399,-0.5505,177.4688
20:03:16:468,2.0472,1.1833,6.9337,40.8529,-0.2181,0.0606,-0.5913,177.875
20:03:16:488,1.7682,1.5137,5.9952,39.609,-0.3585,0.3661,-0.6019,178.5156
20:03:16:508,1.6401,1.7867,5.7402,38.549,-0.4085,0.3227,-0.6046,179.1719
20:03:16:532,1.597,2.0728,5.8994,40.167,-0.3846,0.0747,-0.6126,179.8438
20:03:16:548,1.53,2.3278,6.6512,40.3866,-0.3499,-0.1687,-0.6454,180.5312
20:03:16:567,1.36,2.4032,7.7274,41.9792,-0.282,-0.2507,-0.6821,181.2188
20:03:16:587,1.2104,2.481,8.1272,40.1615,-0.2248,-0.1258,-0.6856,181.9219
20:03:16:607,1.2008,2.651,8.3882,39.2508,-0.245,0.0542,-0.6712,183.125
20:03:16:631,1.2307,2.6821,9.0753,38.6497,-0.3193,0.21,-0.6587,183.9219
20:03:16:648,1.1182,2.7671,10.1288,38.6659,-0.3467,0.3498,-0.6283,184.6562
20:03:16:668,0.789,2.7432,10.5226,38.3195,-0.2759,0.4255,-0.5705,185.4062
20:03:16:687,0.4335,2.5253,10.5011,36.7633,-0.2317,0.3988,-0.4368,186.125
20:03:16:709,0.5496,2.3266,11.2146,37.6385,-0.2317,0.2428,-0.223,186.4531
20:03:16:733,0.9793,2.1386,12.6882,36.4477,-0.1321,-0.0339,-0.0035,187
20:03:16:749,1.4821,1.9603,13.3897,36.4731,0.0767,-0.2052,0.1765,187.375
20:03:16:792,1.9131,2.0405,13.0569,35.7853,0.1792,-0.2539,0.2646,187.5
20:03:16:793,2.3249,2.1698,13.3011,36.43,0.0727,-0.3239,0.2505,187.4062
20:03:16:807,2.4003,1.7077,15.1997,36.8828,-0.0666,-0.4403,0.1573,187.1406
20:03:16:830,1.8125,0.902,16.9678,35.8777,0.0346,-0.3096,0.1062,186.8438
20:03:16:851,0.8872,0.1981,16.4231,35.8497,0.4067,0.1344,0.1762,186.6406
20:03:16:867,0.5029,0.0425,12.7229,36.6179,0.7366,0.511,0.3421,186.5312
20:03:16:889,0.9159,0.1909,9.8978,35.671,0.7609,0.3546,0.4695,186.25
20:03:16:908,1.2523,0.2388,9.3638,36.2169,0.6197,-0.1903,0.4822,185.8125
20:03:16:932,1.2475,0.0305,10.8459,34.8397,0.5284,-0.5828,0.4458,185.2344
20:03:16:949,0.7962,-0.3502,11.1355,34.8397,0.62,-0.4672,0.438,184.6875
20:03:16:968,0.4215,-0.4028,9.7122,36.0825,0.7305,-0.1093,0.5347,184.2031
20:03:16:987,0.6214,-0.0281,7.6221,36.3213,0.7699,0.1717,0.6713,183.7344
20:03:17:007,0.9566,0.4064,6.085,34.0638,0.7332,0.1565,0.7533,183.0938
20:03:17:030,1.3828,0.6853,5.4972,34.8337,0.6735,-0.0643,0.7861,182.2812
20:03:17:047,1.7826,0.9511,5.5978,34.1677,0.6274,-0.2851,0.7587,181.4062
20:03:17:067,1.8125,0.9679,6.0694,34.6154,0.5979,-0.3801,0.6639,180.4844
20:03:17:088,1.2786,0.7943,6.2466,34.914,0.5478,-0.052,0.6245,179.6094
20:03:17:109,1.4881,1.0505,6.1676,34.8115,0.4874,-0.0092,0.6713,179.6094
20:03:17:133,2.01,1.3629,6.5866,32.433,0.4362,-0.1061,0.6657,178.9062
20:03:17:153,2.4386,1.6586,7.0271,32.3589,0.3915,-0.1929,0.6026,177.4688
20:03:17:168,2.8049,1.892,7.7525,33.4247,0.3169,-0.1618,0.4974,177.0781
20:03:17:188,2.9881,1.9507,8.1416,33.1837,0.2072,0.0508,0.3424,175.9375
20:03:17:207,2.9629,1.9016,8.217,32.8658,-0.0064,0.3339,0.1994,175.2344
20:03:17:232,3.1617,1.7711,8.8575,33.1523,-0.2946,0.4755,0.0961,174.6719
20:03:17:248,3.5771,1.4563,10.4496,32.6761,-0.4764,0.3807,-0.003,174.2812
20:03:17:268,3.7698,1.1055,11.9149,32.6575,-0.4647,0.2604,-0.06,174
20:03:17:286,4.1864,0.9822,11.952,32.8038,-0.3297,0.2846,-0.0659,173.8438
20:03:17:307,4.761,1.3186,10.3933,32.2496,-0.3159,0.3312,-0.1444,173.8125
20:03:17:328,5.4517,1.4922,9.389,33.1161,-0.6037,0.2079,-0.411,173.875
20:03:17:347,5.2434,0.7955,11.1236,30.094,-1.0943,-0.0369,-0.8211,173.9375
20:03:17:367,3.3544,-0.5249,14.7759,32.1097,-1.3225,0.0636,-1.0869,174.5312
20:03:17:387,1.2008,-1.3318,16.1059,31.3675,-0.9769,0.6692,-0.934,174.5312
20:03:17:407,1.0464,-1.011,12.8905,33.0284,-0.3603,1.1094,-0.4629,175.5312
20:03:17:430,2.5296,0.1526,8.9604,33.5945,0.0059,0.7554,-0.1244,176.8281
20:03:17:448,3.7207,1.1426,7.4281,32.4639,0.0932,-0.1237,-0.1191,178.2812
20:03:17:467,4.0858,1.6275,7.7394,32.5529,0.0224,-0.7133,-0.3628,178.3281
20:03:17:487,3.4095,1.485,8.2194,33.1277,-0.1233,-0.5695,-0.6786,178.3906
20:03:17:507,2.4973,1.2372,7.822,34.1875,-0.2948,0.0074,-0.9047,178.6719
20:03:17:532,1.445,1.0517,7.1851,32.4968,-0.4591,0.54,-1.0174,179.3438
20:03:17:552,0.5831,0.9762,6.9876,34.0651,-0.4693,0.703,-0.9684,180.2969
20:03:17:567,0.2455,1.2037,6.6763,34.0555,-0.2879,0.4998,-0.8091,181.4062
20:03:17:588,0.3808,1.6119,6.3364,30.5798,-0.07,0.1437,-0.6469,182.4531
20:03:17:607,0.7818,2.0584,6.0323,33.4273,0.0498,-0.0904,-0.5559,183.4375
20:03:17:631,1.1972,2.4092,5.9138,31.0011,0.0123,-0.1495,-0.5639,184.25
20:03:17:650,1.2619,2.5851,6.419,31.1791,-0.1326,-0.1287,-0.6382,184.8906
20:03:17:667,1.1541,2.5672,7.5,33.1664,-0.2738,-0.0976,-0.7085,185.5156
20:03:17:688,1.0105,2.4882,8.7174,33.0338,-0.3675,-0.0369,-0.7463,185.8594
20:03:17:708,0.5651,2.3685,10.118,30.7833,-0.4168,0.071,-0.7404,186.5938
20:03:17:730,0.1497,2.323,11.4875,32.8858,-0.3436,0.2377,-0.6701,187.375
20:03:17:748,-0.304,2.2416,11.7078,30.9066,-0.1593,0.3802,-0.5412,188.2344
20:03:17:768,-0.2716,2.2428,11.2888,33.2247,-0.0051,0.3277,-0.3572,189.4844
20:03:17:791,0.1845,2.3158,11.3989,30.2513,0.0517,0.1312,-0.2118,190.125
20:03:17:808,0.5436,2.1063,12.2465,32.6455,0.0692,-0.0925,-0.1247,190.625
20:03:17:828,1.0153,2.0764,12.7792,33.007,0.0719,-0.1575,-0.0653,190.9219
20:03:17:848,1.196,2.1279,12.9097,33.091,0.0136,-0.133,-0.0794,191.0938
20:03:17:867,1.0392,1.886,13.604,31.9319,-0.1446,-0.0747,-0.1284,191.2031
20:03:17:887,0.5663,1.2528,15.0932,32.5645,-0.2349,0.039,-0.1295,191.2969
20:03:17:908,-0.371,0.4711,15.894,32.8211,-0.0719,0.3054,-0.0075,191.4062
20:03:17:931,-1.0294,-0.0329,14.2181,34.0281,0.2866,0.5725,0.2726,191.5625
20:03:17:948,-0.9552,0.0365,11.3391,32.7937,0.5332,0.4715,0.6045,191.6562
20:03:17:969,-0.2154,-0.07,9.893,32.6923,0.5566,-0.0518,0.8657,191.5
20:03:17:987,0.643,0.0449,10.5346,33.2104,0.4876,-0.5514,1.0183,191
20:03:18:007,1.1158,0.1957,11.2996,33.3889,0.5012,-0.6092,1.033,190.1406
20:03:18:031,0.9614,0.2544,10.3479,33.2269,0.5686,-0.3176,1.0032,189.0781
20:03:18:053,0.8177,0.4519,8.6588,32.3689,0.5523,0.009,1.009,188
20:03:18:068,0.8141,0.7548,7.4162,33.734,0.5063,0.141,1.0311,186.3125
20:03:18:088,0.9279,1.0086,6.6297,33.6209,0.5316,0.0343,1.0498,185.1562
20:03:18:107,1.1613,1.2228,6.1712,31.7898,0.5888,-0.1847,1.0487,184.0156
20:03:18:132,1.3612,1.3342,6.091,32.976,0.6141,-0.3157,1.0146,182.8125
20:03:18:148,1.5192,1.4347,6.176,34.2628,0.587,-0.2787,0.9699,181.625
20:03:18:168,1.7263,1.5916,6.6369,33.819,0.555,-0.1674,0.9033,180.4844
20:03:18:187,1.87,1.7999,6.7446,34.1308,0.5694,-0.0563,0.8045,179.4531
20:03:18:208,1.9849,2.08,6.6153,31.7086,0.5396,-0.0017,0.6806,178.9375
20:03:18:233,2.2447,2.2464,6.9673,32.1103,0.448,0.0281,0.5382,177.9531
20:03:18:250,2.4123,2.3314,7.555,33.175,0.3553,0.0566,0.372,177.125
20:03:18:268,2.5679,2.2835,7.9046,31.4697,0.2485,0.1602,0.2042,176.4062
20:03:18:287,2.684,1.9902,8.1105,31.3107,0.0924,0.2292,0.0346,175.875
20:03:18:307,2.8241,1.4108,8.8958,29.9767,-0.1015,0.1405,-0.093,175.4219
20:03:18:331,3.0743,0.6674,10.458,31.7361,-0.245,-0.0925,-0.1692,175.3438
20:03:18:349,3.1341,0.0245,12.1244,32.4055,-0.3073,-0.2108,-0.1884,175.4219
20:03:18:369,3.4849,-0.3849,12.3734,30.5918,-0.2855,-0.0443,-0.1553,175.6406
20:03:18:388,3.7901,0.0078,10.7621,30.7933,-0.363,0.2281,-0.1601,175.8906
20:03:18:407,4.1684,0.4256,9.8032,33.3683,-0.6341,0.279,-0.2741,176.0781
20:03:18:432,3.9314,0.5369,10.6316,32.635,-0.9406,0.1802,-0.5042,176.2344
20:03:18:449,2.7678,-0.1059,12.6152,33.2929,-1.0128,0.2146,-0.7042,176.5
20:03:18:467,1.3732,-0.5381,12.535,31.4868,-0.7931,0.5301,-0.6853,177.0781
20:03:18:487,1.0859,-0.24,10.604,33.7743,-0.5398,0.7213,-0.4725,177.875
20:03:18:507,3.1664,1.3186,8.3511,32.0195,-0.3696,0.4068,-0.3047,178.5781
20:03:18:531,3.4059,1.6741,8.9676,32.6612,-0.273,-0.2433,-0.3801,179.0469
20:03:18:549,2.6864,1.3629,9.7373,33.1682,-0.2895,-0.668,-0.66,179.3594
20:03:18:568,1.6066,1.0241,9.6499,34.0202,-0.3649,-0.101,-1.1317,179.8125
20:03:18:588,0.7256,0.987,8.3631,33.477,-0.3052,0.2934,-1.1327,180.5938
20:03:18:608,0.461,1.2097,7.2019,34.2193,-0.2397,0.3517,-1.036,181.7344
20:03:18:633,0.4275,1.4647,6.1688,32.0821,-0.1782,0.1986,-0.9396,183.0469
20:03:18:651,0.5819,1.7137,5.3236,33.9804,-0.2298,-0.003,-0.8648,184.2656
20:03:18:668,0.7603,2.1686,5.8563,33.6754,-0.4197,-0.1394,-0.8376,185.4219
20:03:18:687,0.8309,2.2081,8.2146,34.3652,-0.4879,-0.1889,-0.8728,186.4844
20:03:18:706,0.4287,2.0596,9.8666,33.0664,-0.3145,-0.104,-0.8816,187.4688
20:03:18:726,-0.0562,1.9866,10.4712,33.5903,-0.0621,0.0534,-0.7892,188.3906
20:03:18:748,-0.3638,2.0369,9.9205,33.9546,0.1097,0.1839,-0.6155,189.3906
20:03:18:767,-0.2573,2.3278,9.7445,32.4575,0.164,0.1964,-0.4254,190.4062
20:03:18:787,0.0217,2.6139,9.9696,32.3649,0.2096,0.1397,-0.277,191.2656
20:03:18:834,0.0767,2.7539,10.063,34.4812,0.2344,0.0385,-0.1868,191.9531
20:03:18:835,0.151,2.6546,10.3814,34.7643,0.1955,-0.0912,-0.1079,192.4375
20:03:18:852,0.4742,2.4654,11.3917,34.2256,0.1246,-0.2443,-0.0397,192.7344
20:03:18:866,0.8118,2.2691,12.6307,35.6104,0.0807,-0.304,-0.0017,193.0312
20:03:18:886,1.0787,2.0896,13.1479,35.1347,0.0389,-0.1634,-0.0089,193.125
20:03:18:906,1.0703,1.9495,12.9468,35.1347,-0.094,0.0566,-0.0451,193.1562
20:03:18:926,0.5448,1.5161,13.7345,35.6406,-0.2693,0.0596,-0.0832,193.1719
20:03:18:949,-0.4608,0.7392,15.1973,35.4607,-0.1982,-0.0803,-0.0078,193.2031
20:03:18:966,-1.5047,0.1287,15.0058,36.3059,0.1942,-0.0584,0.2457,193.2812
20:03:18:987,-1.5585,0.0808,11.9568,35.9516,0.575,0.0955,0.5962,193.3438
20:03:19:007,-0.9564,0.519,9.0825,35.916,0.6088,0.0279,0.8591,193.2344
20:03:19:029,-0.3051,0.6722,8.3762,35.1383,0.4149,-0.3133,0.9707,192.7656
20:03:19:048,-0.0645,0.6447,9.7505,34.8871,0.2554,-0.6017,1.0042,191.9531
20:03:19:066,0.0887,0.5225,10.3814,35.0679,0.3044,-0.5679,1.0197,190.8906
20:03:19:088,0.0396,0.5237,9.4357,36.2209,0.3888,-0.3242,1.0399,190.3438
20:03:19:106,0.0767,0.653,8.0315,37.1775,0.3896,-0.1053,1.0846,189.25
20:03:19:127,0.2156,0.8374,7.2629,35.742,0.3398,-0.0385,1.1539,188.1719
20:03:19:148,0.7124,1.0205,7.3479,37.5914,0.3675,-0.1719,1.209,187
20:03:19:166,1.1613,1.1917,7.6963,34.3836,0.5246,-0.3484,1.2101,185.1094
20:03:19:186,1.5444,1.2552,7.731,36.8062,0.7161,-0.4299,1.168,183.8281
20:03:19:207,1.8748,1.406,7.1791,35.7833,0.804,-0.308,1.0894,182.4375
20:03:19:227,2.1657,1.6131,6.6811,37.8235,0.7358,-0.0869,0.9672,181.0938
20:03:19:246,2.447,1.7508,6.4262,36.9798,0.5462,0.1525,0.7952,179.875
20:03:19:266,2.5751,1.8046,6.7123,36.542,0.2988,0.3333,0.5962,178.6719
20:03:19:288,2.5188,1.8262,7.4856,35.7814,0.1265,0.3706,0.3962,177.6094
20:03:19:306,2.2052,1.6167,8.2362,36.5524,0.0788,0.316,0.2213,176.7656
20:03:19:327,1.8413,1.3366,8.5821,36.2213,0.0764,0.2002,0.1059,176.1719
20:03:19:347,1.6342,1.0564,9.1172,36.9186,0.0277,0.0399,0.0625,175.6562
20:03:19:367,1.6904,0.8218,9.893,37.6846,-0.0253,-0.1466,0.0471,175.5
20:03:19:387,1.7299,0.4938,10.865,38.2246,-0.0826,-0.2424,0.0354,175.4219
20:03:19:407,1.8676,0.2185,11.6395,37.2576,-0.0972,-0.1982,0.0793,175.3906
20:03:19:431,2.538,0.4076,11.2206,37.2851,-0.0538,-0.1386,0.1382,175.3906
20:03:19:448,3.7411,0.7991,10.5358,37.4472,-0.1734,-0.1181,0.0668,175.375
20:03:19:467,4.7562,1.1043,10.8303,38.0393,-0.526,-0.0944,-0.2443,175.2656
20:03:19:486,4.5287,0.2699,12.9767,38.4272,-0.8946,0.0345,-0.7141,175.1406
20:03:19:507,2.7738,-1.0014,14.8789,37.2523,-1.0011,0.6068,-1.003,175.2344
20:03:19:527,0.8668,-1.6969,14.2983,38.1862,-0.7617,1.2918,-0.8723,175.8125
20:03:19:549,0.868,-1.3988,11.1739,35.7191,-0.4029,1.4947,-0.4584,176.8594
20:03:19:567,1.882,-0.6806,8.5881,38.1822,-0.2005,1.0367,-0.1402,177.9219
20:03:19:585,2.8085,-0.0712,7.7358,36.5413,-0.1241,0.2617,-0.0275,178.5469
20:03:19:606,3.036,0.4818,7.9405,37.6317,-0.1329,-0.1908,-0.0672,178.7344
20:03:19:625,2.7822,0.8302,7.7705,38.2345,-0.1838,-0.1274,-0.1697,178.75
20:03:19:647,2.4039,1.1235,7.1887,36.4046,-0.2839,0.1477,-0.2813,178.8281
20:03:19:666,1.8089,1.2444,6.571,38.409,-0.4101,0.3991,-0.3945,179.0469
20:03:19:685,1.056,1.2695,6.2645,39.3852,-0.5057,0.4883,-0.4376,179.3438
20:03:19:706,0.4311,1.4347,6.4381,36.2614,-0.5422,0.4497,-0.3748,179.7344
20:03:19:728,0.4873,1.7987,7.1229,37.9439,-0.4253,0.2359,-0.2443,180.2031
20:03:19:747,0.6729,2.2895,7.579,37.085,-0.1819,-0.0017,-0.1846,180.5781
20:03:19:766,0.6789,2.6283,7.1708,37.236,-0.0131,-0.1426,-0.1857,180.8281
20:03:19:785,0.5987,2.7384,7.6747,37.4371,-0.0104,-0.2025,-0.2083,181.0312
20:03:19:806,0.3868,2.8306,8.4349,36.8368,-0.0415,-0.1687,-0.2235,181.25
20:03:19:827,0.3174,2.8006,9.4369,38.7209,-0.0852,-0.1106,-0.1934,181.5
20:03:19:847,0.6142,2.9155,10.5095,36.4381,-0.0703,-0.0289,-0.1612,181.75
20:03:19:866,0.8129,3.0556,11.1044,37.7023,0.0253,0.0793,-0.1756,181.9844
20:03:19:889,0.807,3.1622,11.1463,36.9857,0.1265,0.1477,-0.2224,182.0781
20:03:19:907,0.2862,2.7743,12.1292,37.987,0.2109,0.0127,-0.2975,182.25
20:03:19:933,-0.1639,1.8872,13.0497,37.3354,0.2304,-0.0723,-0.19,182.5938
20:03:19:949,-0.1292,1.4503,13.6674,35.8031,0.2834,-0.0568,0.0529,182.9062
20:03:19:969,0.3628,1.5413,13.6662,37.8029,0.3478,-0.007,0.2726,183.25
20:03:19:986,0.9087,1.7663,13.0162,38.0316,0.3262,0.0518,0.3888,183.4688
20:03:20:006,1.1433,1.813,13.3586,36.4735,0.1979,-0.0302,0.4186,183.4219
20:03:20:026,0.9267,1.3198,14.6814,34.8942,0.212,-0.1034,0.4324,183.125
20:03:20:048,0.4814,0.7057,14.2025,36.916,0.4693,-0.0041,0.5185,182.7031
20:03:20:066,0.3952,0.4938,11.5653,35.1694,0.6866,0.1176,0.6623,182.2188
20:03:20:088,0.789,0.598,9.3794,36.4355,0.6447,0.0119,0.7693,181.7344
20:03:20:105,1.2834,0.7117,9.0694,35.7774,0.486,-0.3295,0.7701,181.1719
20:03:20:126,1.1661,0.6973,9.8104,33.6264,0.4219,-0.5831,0.7017,180.4375
20:03:20:148,0.9901,0.5309,9.4788,34.8726,0.4533,-0.5615,0.6737,179.5781
20:03:20:166,0.9542,0.6111,8.6599,35.7605,0.4724,-0.4052,0.6902,178.7344
20:03:20:186,1.3085,1.0181,7.7908,34.8372,0.4842,-0.3016,0.7142,178.0312
20:03:20:209,2.0196,1.5485,7.3264,33.2936,0.5286,-0.3559,0.6857,176.9688
20:03:20:226,2.7044,2.056,7.2126,32.7167,0.6461,-0.5458,0.5376,176.2031
20:03:20:249,2.6577,2.1243,6.7314,33.8215,0.7816,-0.6835,0.2804,175.4531
20:03:20:269,2.1058,1.9519,6.085,33.981,0.7795,-0.6475,0.0599,174.7812
20:03:20:286,1.3947,1.6394,5.8144,34.0876,0.5997,-0.3634,-0.0448,174.375
20:03:20:306,0.8285,1.5832,6.1017,33.9495,0.3649,-0.0648,-0.0065,174.2812
20:03:20:326,0.9482,1.6861,6.9241,32.5227,0.2418,0.0428,0.1075,174.3438
20:03:20:348,1.5216,1.971,7.5227,33.6318,0.2946,0.0145,0.1707,174.4062
20:03:20:368,1.9669,2.2966,7.3228,32.8416,0.3662,-0.0725,0.1248,174.375
20:03:20:386,2.0136,2.475,7.3922,31.4162,0.3438,-0.1423,0.0098,174.25
20:03:20:406,1.7563,2.4032,7.6592,31.8804,0.2655,-0.1128,-0.0986,174.0469
20:03:20:426,1.5552,2.1961,8.041,32.2532,0.0839,0.0324,-0.1383,173.8906
20:03:20:447,1.6653,1.9064,9.0801,31.6316,-0.1859,0.3296,-0.1034,173.8906
20:03:20:467,2.1765,1.7675,10.0665,32.0362,-0.3494,0.4668,-0.0552,174
20:03:20:487,2.3859,1.4216,11.3438,31.4813,-0.339,0.3496,-0.068,174.1562
20:03:20:506,2.046,0.9367,11.7353,32.1245,-0.1404,0.3403,-0.0259,174.2031
20:03:20:528,2.1896,0.8709,10.1456,32.1141,0.0589,0.3773,0.1259,174.2188
20:03:20:552,2.9809,1.7675,8.4086,31.1794,-0.0059,0.2271,0.2324,174.25
20:03:20:568,4.3863,2.7539,8.1284,30.1229,-0.3105,-0.2265,0.0812,174.125
20:03:20:589,5.1153,2.7803,9.8116,28.0506,-0.747,-0.671,-0.3838,173.8594
20:03:20:607,3.9948,1.5772,12.3662,29.7184,-1.0799,-0.6417,-0.8944,173.625
20:03:20:626,1.5468,0.4256,13.7967,31.0984,-1.1465,-0.1152,-1.0747,173.8594
20:03:20:647,0.0121,-0.1921,13.2772,31.1578,-0.9502,0.4295,-0.8262,174.7188
20:03:20:666,0.0707,0.1155,11.0781,27.7654,-0.6935,0.5504,-0.3916,176.0312
20:03:20:686,1.0153,0.8386,9.292,29.054,-0.4988,0.1493,-0.0709,177.1719
20:03:20:706,1.694,1.3557,8.4385,30.3944,-0.3795,-0.2749,0.041,177.8281
20:03:20:727,2.0053,1.6777,7.634,29.2082,-0.335,-0.366,0.0441,178.0156
