Time,Acc_X,Acc_Y,Acc_Z,Meg,Gyr_X,Gyr_Y,Gyr_Z,Ore
20:13:36:193,-2.94,2.4954,9.0574,49.9464,0.2626,0.1815,0.1485,52.9688
20:13:36:239,-2.2576,2.8234,7.968,50.3534,0.1981,-0.6214,-0.0094,52.6094
20:13:36:257,-2.193,2.791,7.5957,50.0684,0,-0.4409,-0.0384,52.6094
20:13:36:285,-2.3282,2.7887,8.065,50.1096,-0.2674,-0.2891,-0.0334,52.6094
20:13:36:303,-2.4408,2.663,8.9868,49.9059,-0.3332,-0.1543,0.0239,166.375
20:13:36:319,-2.3091,2.7611,9.5302,49.2988,-0.2309,-0.084,0.1219,166.4531
20:13:36:336,-1.8626,2.9898,9.6284,48.7856,0.0045,-0.0821,0.1712,166.4688
20:13:36:355,-1.604,3.216,8.6959,47.8696,0.1936,-0.105,0.1382,166.3594
20:13:36:385,-1.7022,3.2819,8.0135,47.1171,0.1965,-0.1575,0.0804,166.1875
20:13:36:402,-1.8578,3.2088,7.9201,47.1734,0.106,-0.1674,0.0694,166.0469
20:13:36:419,-1.871,3.1442,8.1213,47.9812,0.0093,-0.1849,0.0961,165.9844
20:13:36:434,-1.6926,3.0652,8.4481,46.835,-0.0525,-0.2555,0.1243,165.9531
20:13:36:454,-1.2856,3.0341,8.8311,47.3244,-0.0735,-0.3863,0.1267,165.9062
20:13:36:474,-0.8546,3.0149,9.2094,48.1367,-0.0498,-0.5274,0.0734,165.8125
20:13:36:502,-0.5781,2.9658,9.3686,49.0682,0.028,-0.6065,-0.0214,165.7188
20:13:36:519,-0.8558,2.8856,8.903,48.4506,0.1105,-0.5815,-0.1077,165.6719
20:13:36:534,-0.6774,3.0628,8.0602,50.7611,0.1633,-0.5484,-0.093,165.8438
20:13:36:553,-0.5254,3.3417,7.1229,50.0246,0.1196,-0.5809,-0.1319,166.0781
20:13:36:573,-0.2238,3.6709,6.474,51.1574,-0.0107,-0.6784,-0.1915,166.2969
20:13:36:598,-0.183,3.8529,6.4417,50.5408,-0.208,-0.8481,-0.3167,166.5781
20:13:36:615,-0.444,3.7415,7.0918,51.8993,-0.3902,-1.0185,-0.4645,166.9219
20:13:36:632,-0.8714,3.149,8.5319,52.159,-0.4887,-1.0038,-0.5327,167.4062
20:13:36:653,-1.2928,2.7731,9.3184,52.7709,-0.5356,-0.6214,-0.4613,168.1094
20:13:36:671,-1.2305,2.7168,9.62,52.1168,-0.6266,-0.0725,-0.3553,168.875
20:13:36:691,0.4478,2.1243,9.9696,52.9943,-0.6338,0.5541,-0.5199,169.4531
20:13:36:715,-1.4556,3.1059,9.4081,54.2839,-0.5284,0.7661,-0.8483,169.6719
20:13:36:730,-2.3977,2.7839,9.1699,53.9731,-0.3742,0.4859,-0.8328,170.0156
20:13:36:750,-2.6994,1.9471,9.5925,53.3107,-0.1478,0.1312,-0.7135,170.7031
20:13:36:770,-2.8969,1.6131,9.9756,56.7183,0.1068,-0.1429,-0.5447,171.5156
20:13:36:791,-3.1267,2.0488,10.1503,56.3527,0.3292,-0.2768,-0.3077,172.3281
20:13:36:814,-3.3338,2.1805,9.8355,56.537,0.4421,-0.214,-0.048,173.0781
20:13:36:830,-3.1531,2.2188,9.28,55.5103,0.4312,-0.0496,0.2529,173.7656
20:13:36:849,-2.8095,2.4774,8.4181,53.8457,0.3007,0.1048,0.5858,173.8906
20:13:36:870,-1.9739,2.7108,8.1991,54.8265,0.0328,0.1701,0.8537,173.6406
20:13:36:888,-0.4404,2.2368,8.3679,55.2786,-0.2107,0.332,0.87,173.0156
20:13:36:914,0.3401,2.0668,7.8998,54.9026,-0.3555,0.3325,0.7496,172.0156
20:13:36:928,0.3281,1.6251,7.5646,55.9581,-0.4634,0.1291,0.6199,172.0156
20:13:36:949,-0.1184,1.2911,7.5933,54.9002,-0.5681,-0.2808,0.5786,170.0156
20:13:36:967,-0.1495,1.6322,8.8575,54.7119,-0.5883,-0.7301,0.5573,170.0156
20:13:36:987,0.6478,1.9998,9.9504,56.0036,-0.6354,-0.7112,0.3885,168.625
20:13:37:006,1.9574,1.8908,9.7948,56.2016,-0.8069,-0.2398,0.034,168.625
20:13:37:027,2.6242,1.5724,9.626,56.8567,-1.1438,0.075,-0.4746,168.0469
20:13:37:048,2.2914,0.9535,10.5394,56.6753,-1.498,-0.0036,-1.0155,167.6875
20:13:37:068,0.8608,-0.0892,12.195,56.8051,-1.628,-0.3322,-1.3801,167.6406
20:13:37:087,-0.796,-1.1175,13.9667,55.5187,-1.4623,-0.4582,-1.4062,169.125
20:13:37:107,-1.9416,-1.643,14.3605,57.2973,-1.1135,-0.2057,-1.0904,169.8594
20:13:37:128,-1.3849,-1.3318,13.0222,57.0093,-0.5886,0.4276,-0.6435,171.4531
20:13:37:149,-0.6188,-0.4423,10.3539,56.0434,-0.2871,0.4838,-0.3599,172.8906
20:13:37:167,0.23,0.2316,9.2645,56.6705,-0.293,0.1948,-0.2374,173.4219
20:13:37:188,0.3221,0.1299,9.863,57.325,-0.343,-0.1815,-0.2467,174.0781
20:13:37:208,0.0576,-0.1897,10.6783,58.3757,-0.3433,-0.2025,-0.1681,174.4531
20:13:37:231,0.0624,-0.1239,10.8123,56.8063,-0.2424,0.0074,-0.0049,174.7031
20:13:37:248,0.3652,0.4411,10.0235,55.897,-0.0852,0.1727,0.1176,174.9531
20:13:37:266,0.7016,0.8134,9.055,56.777,0.0128,0.1869,0.1216,175.125
20:13:37:287,0.7758,0.9978,8.2326,56.5886,0.0096,0.1387,0.0591,175.1094
20:13:37:306,0.6106,1.0481,7.8938,56.6596,-0.0799,0.0457,-0.0091,174.9844
20:13:37:328,0.2491,0.9727,7.8986,57.0248,-0.1758,-0.0781,-0.0605,174.8438
20:13:37:347,-0.189,0.9523,8.3068,55.9154,-0.2722,-0.1487,-0.0539,174.7812
20:13:37:366,-0.2417,0.8913,8.9257,56.3098,-0.3148,-0.1921,0.0125,174.8281
20:13:37:386,-0.1076,1.0696,9.5099,57.1015,-0.2695,-0.2291,0.0742,174.8594
20:13:37:406,0.0336,1.2205,9.8642,56.2393,-0.1656,-0.259,0.1126,174.875
20:13:37:426,0.0444,1.3426,9.9528,58.1772,-0.081,-0.2611,0.1294,174.7969
20:13:37:448,0.0588,1.4599,10.0641,58.1772,-0.0232,-0.2275,0.1469,174.6875
20:13:37:466,0.1174,1.5604,9.9564,56.944,0.0266,-0.1511,0.1507,174.5312
20:13:37:486,0.0815,1.6251,9.796,57.303,0.0543,-0.0712,0.1379,174.375
20:13:37:506,0.0719,1.5401,9.6679,56.3855,0.0679,-0.0108,0.1158,174.2188
20:13:37:527,-0.0574,1.3976,9.8798,56.4534,0.0645,0.067,0.1155,174.0469
20:13:37:547,0.0887,1.4312,10.0486,55.4976,0.0892,0.1035,0.1089,173.9219
20:13:37:571,-0.0154,1.3306,10.1875,58.0105,0.0932,0.132,0.0649,173.7969
20:13:37:595,-0.0011,1.2384,10.3251,56.4665,0.0386,0.2018,0.0133,173.6562
20:13:37:607,-0.2501,1.0876,10.6028,57.7075,-0.1039,0.2881,-0.0533,173.5625
20:13:37:627,-0.4979,0.8302,11.6276,57.8126,-0.2479,0.356,-0.0837,173.5156
20:13:37:649,-0.5075,0.6818,12.4835,57.9889,-0.2647,0.3661,-0.1053,173.5156
20:13:37:667,-0.5709,0.337,12.9815,57.0979,-0.2226,0.2252,-0.1468,173.6094
20:13:37:688,-0.7313,-0.2843,13.8063,55.5931,-0.1795,0.0364,-0.1836,173.7031
20:13:37:707,-1.1671,-1.1618,14.3605,56.7856,-0.0634,0.0044,-0.1575,173.8281
20:13:37:726,-1.5645,-1.8801,14.0732,58.0561,0.13,0.2044,0.0255,174
20:13:37:748,-1.1491,-1.9052,12.7612,55.0041,0.4037,0.4801,0.3102,174.2031
20:13:37:766,-0.4105,-1.5724,10.2784,55.3447,0.6818,0.597,0.4769,174.2969
20:13:37:786,-0.0777,-1.2085,7.7573,56.8232,0.7694,0.463,0.4971,174.1406
20:13:37:806,0.1091,-0.9906,6.4812,55.0768,0.6243,0.1568,0.4402,173.7031
20:13:37:828,0.0097,-0.8434,6.6249,57.4476,0.371,-0.2619,0.3217,173.1875
20:13:37:849,-0.1423,-1.0002,8.0734,56.9814,0.1414,-0.6039,0.189,172.7188
20:13:37:867,-0.5434,-1.2803,9.5829,54.7527,0.0399,-0.6616,0.083,172.3125
20:13:37:887,-1.13,-1.4072,10.2701,56.6325,0.0631,-0.4337,0.0742,172.0625
20:13:37:907,-1.5118,-1.3952,9.9289,56.5532,0.1582,-0.0891,0.1651,171.9531
20:13:37:926,-1.6698,-1.1247,8.7617,55.5011,0.2538,0.1935,0.3208,171.9062
20:13:37:951,-1.4831,-0.6075,7.4892,55.4657,0.2927,0.2838,0.4868,171.6875
20:13:37:968,-1.0067,0.094,6.5866,56.1365,0.2333,0.2524,0.5717,171.3438
20:13:37:986,-0.7134,0.7129,6.2406,55.1393,0.0376,0.2691,0.5211,170.7969
20:13:38:006,-0.7325,1.1091,6.4058,55.2146,-0.2421,0.3962,0.3917,170.1406
20:13:38:026,-1.1096,1.163,7.2103,56.0687,-0.461,0.4787,0.2583,169.5469
20:13:38:049,-1.5047,0.9738,8.1979,55.6882,-0.4943,0.4249,0.2005,169.0781
20:13:38:066,-1.9488,0.8122,8.7725,56.7884,-0.3571,0.218,0.2231,168.7188
20:13:38:091,-2.4049,0.6458,9.1663,57.034,-0.1558,-0.0954,0.3318,168.4375
20:13:38:107,-2.3127,0.5728,9.5075,53.2434,0.069,-0.4174,0.5062,168.1562
20:13:38:127,-1.7273,0.7823,9.7026,54.2167,0.2389,-0.6153,0.6303,167.9844
20:13:38:149,-0.9707,1.0505,9.7242,56.5176,0.29,-0.6054,0.6402,167.5156
20:13:38:198,-0.28,1.2229,9.6763,54.3704,0.2424,-0.4995,0.5262,166.875
20:13:38:198,0.1306,1.1546,9.796,54.455,0.1236,-0.4025,0.3339,166.2188
20:13:38:216,0.1964,0.744,10.3287,54.0851,-0.0418,-0.3639,0.1318,165.5781
20:13:38:227,0.0145,0.1969,11.4456,54.9149,-0.167,-0.3106,0.0135,165.1094
20:13:38:248,-0.0154,-0.4112,12.3542,55.9143,-0.1326,-0.1831,0.0101,164.8281
20:13:38:267,0.6322,-0.7536,11.6264,53.194,-0.0064,-0.0323,0.0782,164.8125
20:13:38:287,1.3923,-0.4519,10.2186,55.467,-0.0146,-0.0377,0.0713,164.7969
20:13:38:306,1.8508,-0.2951,9.4129,54.4563,-0.2195,-0.2691,-0.0989,164.7188
20:13:38:329,0.6693,-1.2767,11.5067,56.846,-0.8027,-0.5626,-0.3966,164.75
20:13:38:349,0.042,-1.4156,13.3825,53.2334,-0.7787,-0.3721,-0.3085,165.0781
20:13:38:368,0.0659,-1.5401,13.7249,53.2435,-0.379,-0.0568,-0.1098,165.0781
20:13:38:387,0.8943,-1.3114,11.8023,54.5593,0.1473,0.1368,0.1134,165.5312
20:13:38:407,2.356,-0.6961,9.1915,53.9479,0.4594,0.0582,0.1866,165.9844
20:13:38:426,3.5842,-0.1921,7.8387,53.5116,0.4653,-0.2299,0.0013,165.9844
20:13:38:451,4.0523,-0.0952,7.8746,54.2914,0.2839,-0.4465,-0.3854,165.8594
20:13:38:472,3.6082,-0.3501,8.6803,54.3168,0.0767,-0.4257,-0.8121,165.6562
20:13:38:486,2.5392,-0.8242,9.1496,54.0102,-0.0429,-0.1836,-1.1287,165.6719
20:13:38:507,1.2595,-1.0026,8.9724,52.7623,-0.1143,0.1842,-1.2518,167.0469
20:13:38:527,0.3916,-0.9631,8.4911,52.7717,-0.1377,0.4867,-1.2089,167.6562
20:13:38:550,-0.0681,-0.6937,7.6843,52.9324,-0.0828,0.6114,-1.0765,169.0469
20:13:38:568,-0.0933,-0.2209,6.6871,53.5678,-0.0226,0.5546,-0.9399,170.4062
20:13:38:592,-0.0346,0.2209,6.0754,52.1906,-0.0413,0.3653,-0.8635,171.0781
20:13:38:607,-0.0885,0.4567,6.1448,52.1849,-0.1169,0.1408,-0.8424,172.2969
20:13:38:626,-0.1519,0.4807,6.4693,52.0736,-0.1832,-0.0451,-0.8483,173.3594
20:13:38:651,-0.2597,0.4112,6.6512,52.0187,-0.2599,-0.1647,-0.8488,174.2969
20:13:38:673,-0.4716,0.2436,6.6189,51.9388,-0.3808,-0.2542,-0.8158,175.25
20:13:38:689,-0.6763,0.5573,6.984,51.3949,-0.5667,-0.4028,-0.7503,176.2031
20:13:38:706,-0.535,0.8254,8.4983,52.0937,-0.7425,-0.4939,-0.7244,177.125
20:13:38:727,-0.4488,0.6315,10.2329,51.2111,-0.7904,-0.3213,-0.7535,178.0469
20:13:38:751,-1.0186,0.4986,11.3833,51.0465,-0.7135,0.088,-0.746,178.875
20:13:38:767,-1.6938,0.3202,11.8478,49.6115,-0.5369,0.4646,-0.6363,179.6875
20:13:38:785,-2.2469,0.2185,11.6455,52.4907,-0.3545,0.6194,-0.4315,180.4688
20:13:38:806,-2.2277,0.2592,11.8287,50.4106,-0.2895,0.5589,-0.1726,181.7031
20:13:38:827,-2.205,0.3118,13.1419,50.5846,-0.2772,0.344,0.0479,182.3281
20:13:38:849,-1.9978,0.1754,14.8896,50.1858,-0.1284,0.1735,0.2734,182.6719
20:13:38:867,-1.4915,0.0197,15.0728,49.1109,0.1614,0.2172,0.5153,182.7344
20:13:38:886,-0.8798,0.3154,13.9559,48.1836,0.3603,0.3083,0.7158,182.5625
20:13:38:908,0.0456,0.829,13.1994,48.2217,0.3553,0.291,0.7507,182.125
20:13:38:927,0.4909,0.5261,13.677,49.4315,0.2887,0.1746,0.5318,181.4531
20:13:38:949,-0.304,-0.6015,14.2959,49.2442,0.3691,0.0673,0.2939,180.6094
20:13:38:967,-1.3622,-1.7855,14.0696,47.7332,0.641,0.0606,0.2833,179.9062
20:13:38:986,-1.6495,-2.4858,12.4236,46.7579,0.9627,0.1309,0.4671,179.4844
20:13:39:006,-0.9923,-2.5744,10.1707,47.5903,1.1348,0.0918,0.6497,179.2188
20:13:39:027,-0.2836,-2.3421,8.6288,46.3728,1.0975,-0.1607,0.687,178.8594
20:13:39:048,-0.0909,-1.9028,8.1572,46.1474,0.955,-0.6113,0.629,178.2969
20:13:39:066,-0.0717,-1.4862,9.067,45.2808,0.78,-1.0188,0.5091,177.5938
20:13:39:086,-0.3913,-1.3449,10.1539,46.2374,0.7007,-1.0963,0.4183,177.25
20:13:39:108,0.1462,-1.4527,10.3275,45.6186,0.7553,-0.8779,0.45,176.3594
20:13:39:127,0.5747,-1.2899,9.061,44.705,0.8948,-0.6321,0.4431,175.9219
20:13:39:150,0.5125,-0.9834,7.4964,45.6606,0.9816,-0.4624,0.4458,175.5
20:13:39:169,0.8345,-0.7392,6.0934,45.8943,0.9899,-0.3378,0.4969,175.0625
20:13:39:186,1.1673,-0.4615,4.9836,45.6977,0.8908,-0.2401,0.495,174.6094
20:13:39:206,1.0727,-0.0054,4.5132,45.602,0.6935,-0.162,0.4601,174.125
20:13:39:226,1.1793,0.4352,4.5132,44.8848,0.494,-0.1146,0.4127,173.5781
20:13:39:252,1.208,0.7787,4.518,45.0858,0.3153,-0.0851,0.3017,173.0781
20:13:39:267,1.0583,1.0732,4.7418,46.5448,0.1257,-0.0936,0.1991,172.5781
20:13:39:287,0.9506,1.3928,5.4098,45.2916,-0.0565,-0.2078,0.1243,172.1875
20:13:39:307,1.0679,1.6957,6.5734,45.3503,-0.1979,-0.3093,0.0287,171.9219
20:13:39:325,0.874,1.7256,7.8519,43.9174,-0.2988,-0.2654,-0.0869,171.75
20:13:39:349,0.4574,1.497,9.0035,44.4087,-0.3462,-0.0661,-0.1314,171.7188
20:13:39:368,0.2527,1.5257,9.3638,43.6791,-0.3539,0.1501,-0.1101,171.8438
20:13:39:386,0.3102,1.6789,9.3232,42.6137,-0.4096,0.1016,-0.1439,172
20:13:39:406,0.2395,1.5281,10.0929,43.1021,-0.5883,-0.2158,-0.2557,172.1094
20:13:39:426,-0.1591,0.7991,12.2919,44.0097,-0.7606,-0.4457,-0.2949,172.2656
20:13:39:449,0.0743,-0.3334,13.9439,44.0097,-0.6778,-0.3269,-0.1274,172.5781
20:13:39:466,1.1182,-0.7452,13.3227,43.2361,-0.4131,-0.0819,0.1456,172.9688
20:13:39:486,2.3333,-0.3669,11.1834,42.0252,-0.2575,-0.0963,0.2902,173.1562
20:13:39:506,3.2933,-0.1359,9.9576,41.8812,-0.3513,-0.5314,0.1989,173.0156
20:13:39:527,3.601,-0.2628,10.5346,43.7415,-0.6413,-1.0566,-0.0464,172.6875
20:13:39:550,3.115,-0.6973,12.851,40.5311,-0.9769,-1.1208,-0.3074,172.5156
20:13:39:567,1.8472,-1.1678,15.0752,42.3891,-1.0283,-0.5042,-0.4043,172.5312
20:13:39:589,1.4594,-1.3102,14.0409,42.0716,-0.7065,0.394,-0.2736,172.8281
20:13:39:605,2.1525,-0.7452,10.6627,41.3719,-0.3622,0.8494,-0.1196,173.375
20:13:39:637,3.2718,-0.0221,8.065,42.39,-0.2684,0.6106,-0.1601,173.8438
20:13:39:651,3.5735,0.5441,7.652,41.7629,-0.3848,0.0721,-0.4059,174.0469
20:13:39:667,2.8408,0.6315,8.7988,42.9363,-0.4485,-0.3322,-0.7135,174.2812
20:13:39:687,1.7946,0.2185,9.5614,41.0538,-0.334,-0.3695,-0.9082,174.7656
20:13:39:706,0.8429,-0.0173,9.2657,41.7339,-0.1521,-0.0981,-0.9133,175.5625
20:13:39:727,0.3138,0.149,8.1021,41.4285,-0.0202,0.2183,-0.8006,176.625
20:13:39:751,0.4011,0.7967,6.2346,42.5453,-0.0634,0.4947,-0.6512,177.6719
20:13:39:770,0.4359,0.9655,5.9234,41.7927,-0.1374,0.4108,-0.6627,178.5469
20:13:39:786,0.2204,1.0325,6.0467,42.5118,-0.2354,0.2715,-0.6944,179.3438
20:13:39:808,0.0157,0.9367,6.8882,41.129,-0.334,0.1477,-0.697,180.0938
20:13:39:829,-0.1172,0.7715,8.2134,42.1002,-0.3891,0.1144,-0.66,180.8438
20:13:39:846,-0.3207,0.7416,9.5745,42.8,-0.3561,0.2098,-0.5897,181.6094
20:13:39:868,-0.5685,0.7057,10.3287,41.384,-0.2384,0.3906,-0.4962,182.4062
20:13:39:884,-0.8953,0.7476,10.4652,41.9822,-0.1478,0.5666,-0.3729,183.1719
20:13:39:908,-1.1671,0.8158,10.6567,41.6202,-0.1193,0.6614,-0.2294,183.8281
20:13:39:926,-1.5836,0.6506,11.0302,43.3123,-0.0898,0.6532,-0.0698,184.8281
20:13:39:946,-1.9595,0.179,12.2225,43.2407,-0.0043,0.4928,0.1733,185.0938
20:13:39:966,-1.2137,-0.4208,13.428,41.0455,0.2221,0.3144,0.5022,185.1562
20:13:39:987,0.1617,-0.3298,13.6136,43.283,0.4583,0.2918,0.723,185.125
20:13:40:006,1.1529,0.4088,13.112,42.9236,0.5161,0.4228,0.6908,184.7344
20:13:40:026,1.0919,0.7847,12.3901,43.2042,0.3776,0.5994,0.4391,184.0625
20:13:40:050,0.5161,0.7727,12.195,44.1626,0.0514,0.6801,0.2364,183.2188
20:13:40:070,0.1521,0.2975,13.5896,43.8788,-0.2195,0.5613,0.1147,182.8594
20:13:40:088,-0.7397,-0.8218,15.2225,44.4382,-0.1119,0.2851,0.0948,182.3594
20:13:40:106,-1.13,-1.8717,15.663,42.7063,0.3305,0.1301,0.3366,182.1094
20:13:40:127,-0.28,-2.4918,13.8051,44.2739,0.8298,0.0508,0.6703,181.9531
20:13:40:149,0.9638,-2.2284,11.3905,45.0487,1.0314,-0.0571,0.8604,181.8438
20:13:40:166,1.5252,-1.4287,10.0462,44.7639,0.9643,-0.2475,0.8141,181.4688
20:13:40:187,1.3756,-1.1462,9.6751,45.43,0.8341,-0.3761,0.6226,180.7812
20:13:40:243,0.7124,-1.3066,9.1831,44.5855,0.7625,-0.3157,0.4812,178.9688
20:13:40:244,-0.0119,-1.175,8.0255,44.5128,0.7433,-0.1634,0.4804,178.9688
20:13:40:253,-0.2776,-0.8302,6.638,45.8752,0.6996,-0.0941,0.585,178.0781
20:13:40:268,-0.0466,-0.5309,5.8204,45.5736,0.592,-0.1277,0.6825,177.5938
20:13:40:285,0.121,-0.1646,5.5978,45.151,0.4759,-0.2108,0.7318,177.0156
20:13:40:305,0.1689,0.1024,5.52,46.0249,0.4099,-0.3016,0.7573,176.3438
20:13:40:325,0.1701,0.2388,5.3978,45.8021,0.3798,-0.3754,0.7802,175.5625
20:13:40:346,0.0875,0.3801,5.2183,46.9387,0.326,-0.4201,0.8029,174.7344
20:13:40:367,-0.0035,0.5537,5.3176,45.5002,0.2477,-0.4608,0.825,173.9375
20:13:40:389,0.133,0.6913,5.7103,45.5067,0.1864,-0.5213,0.8404,173.0781
20:13:40:406,0.5532,0.9762,6.1041,46.4452,0.1473,-0.5463,0.8186,172.2031
20:13:40:425,1.0057,1.3306,6.4261,45.6002,0.0858,-0.5618,0.6993,171.2969
20:13:40:446,1.0847,1.5078,7.0462,48.7584,-0.032,-0.5538,0.487,170.4375
20:13:40:467,0.8417,1.5461,7.8327,47.7247,-0.1806,-0.4142,0.2745,169.6094
20:13:40:486,0.7399,1.5161,8.2086,47.3011,-0.3111,-0.2046,0.1129,168.9844
20:13:40:509,0.8764,1.5544,8.2841,48.9255,-0.4669,-0.1285,-0.0283,168.6406
20:13:40:526,1.0643,1.3354,9.3399,47.9161,-0.7025,-0.2811,-0.1865,168.4688
20:13:40:548,0.7711,0.6075,11.928,47.6276,-0.9055,-0.4323,-0.3026,168.4531
20:13:40:567,0.2299,-0.4711,14.4192,50.3773,-0.901,-0.301,-0.2363,168.75
20:13:40:586,0.5113,-1.2085,14.9052,50.2995,-0.6309,-0.0829,0.054,168.9688
20:13:40:606,1.7479,-0.9738,13.4112,48.6915,-0.2756,-0.0997,0.3712,169.5156
20:13:40:625,3.0659,-0.4699,11.5833,49.2347,-0.1167,-0.472,0.4474,169.5625
20:13:40:647,3.935,-0.2771,11.0278,51.6003,-0.3603,-0.8944,0.2668,169.3281
20:13:40:665,3.7734,-0.8912,13.4448,49.487,-0.9215,-0.8619,0.009,168.8438
20:13:40:686,3.0408,-1.7352,16.6985,49.4078,-1.1489,-0.1042,-0.0371,168.4531
20:13:40:704,2.951,-1.904,15.827,51.3825,-0.678,0.7235,0.1539,168.3906
20:13:40:725,3.7602,-1.2803,11.8299,51.8886,-0.074,0.9269,0.3992,168.5625
20:13:40:745,4.9034,-0.264,8.8682,51.3463,0.2336,0.4697,0.4359,168.5781
20:13:40:770,5.1608,0.7021,7.6388,50.1731,0.3196,-0.1207,0.2007,168.2656
20:13:40:784,4.6544,1.0732,7.0798,49.8151,0.3001,-0.4212,-0.1631,167.7344
20:13:40:805,3.5842,0.89,6.6871,50.5254,0.2333,-0.3887,-0.4778,167.3281
20:13:40:825,2.4554,0.6195,6.2442,51.8324,0.1316,-0.1855,-0.6408,167.2969
20:13:40:846,1.9921,0.6051,6.1353,51.0792,0.0059,0.0454,-0.6661,167.9688
20:13:40:866,1.9921,0.7608,6.4393,50.8129,-0.0863,0.2715,-0.6736,168.7031
20:13:40:885,2.0017,1.0157,6.8224,50.5186,-0.0703,0.4537,-0.7162,169.4531
20:13:40:905,1.8472,1.2887,6.7087,50.1704,0.0437,0.532,-0.791,170.1875
20:13:40:926,1.6557,1.4683,6.2191,50.4579,0.0964,0.5131,-0.8792,171
20:13:40:947,1.3828,1.479,6.079,52.1395,0.0048,0.4018,-0.9607,171.875
20:13:40:968,1.0895,1.4826,6.996,51.265,-0.1782,0.2649,-1.0102,172.8125
20:13:40:985,0.8321,1.4084,8.3295,50.5959,-0.3201,0.1935,-1.0334,173.8906
20:13:41:005,0.4933,1.3294,9.6021,52.0399,-0.3955,0.2193,-1.032,175.0469
20:13:41:026,0.0755,1.2049,10.5885,52.2341,-0.432,0.3738,-0.9649,176.2344
20:13:41:050,-0.365,1.157,11.3367,52.4396,-0.4171,0.556,-0.8094,177.3594
20:13:41:068,-0.2178,1.1283,12.5445,52.4903,0.0061,0.1309,-0.3956,179.3906
20:13:41:092,0.1569,0.8182,13.0449,53.1985,0.2679,-0.2752,-0.1825,179.7188
20:13:41:108,0.9207,0.6075,13.5166,51.9768,0.3803,-0.3567,-0.0054,180.2812
20:13:41:133,1.682,0.7739,13.2724,53.3963,0.2815,0.0175,0.0495,180.6875
20:13:41:147,2.1824,1.1965,12.4883,51.4156,-0.0562,0.4273,0.001,180.6875
20:13:41:168,3.1461,1.5987,13.8434,52.5517,-0.5244,0.3802,-0.1804,180.7031
20:13:41:186,2.2135,0.2747,17.3892,51.2061,-0.6056,0.206,-0.6014,180.625
20:13:41:219,-0.7768,-2.062,18.2559,52.3016,0.0234,0.3075,-0.6182,180.8281
20:13:41:229,-1.707,-2.9538,14.5497,52.3611,0.7971,0.5775,-0.0129,180.8281
20:13:41:249,-0.195,-1.916,10.1312,52.1712,1.1851,0.5181,0.5962,181.4844
20:13:41:268,1.4917,-0.9906,7.5514,51.1688,1.1819,0.0036,0.7262,182.1875
20:13:41:287,1.6401,-0.5968,7.1217,50.8069,0.9284,-0.5154,0.5664,181.5312
20:13:41:307,1.2511,-0.5836,7.9321,51.336,0.6557,-0.7263,0.4332,181.5312
20:13:41:326,0.7567,-0.6638,8.6013,49.7246,0.502,-0.6928,0.3408,180.1094
20:13:41:346,0.1677,-0.5644,8.5558,52.5043,0.4149,-0.4576,0.348,180.1094
20:13:41:368,-0.0849,-0.3202,8.0494,49.4904,0.3766,-0.251,0.4322,179.6875
20:13:41:387,-0.0119,-0.0748,7.409,49.831,0.4085,-0.2491,0.5344,179.3438
20:13:41:405,0.3269,0.0138,6.8978,48.9823,0.4613,-0.3847,0.6154,178.9688
20:13:41:427,0.4742,0.2017,6.5363,49.5547,0.5268,-0.5431,0.6804,178.5
20:13:41:450,0.7555,0.3573,6.1796,49.5547,0.5934,-0.6723,0.7163,177.9219
20:13:41:466,1.0308,0.5381,5.7917,49.2869,0.5832,-0.6648,0.7067,177.25
20:13:41:485,1.2655,0.7679,5.5164,48.5608,0.4615,-0.4925,0.6543,176.5
20:13:41:505,1.4342,1.0265,5.4505,50.6646,0.2698,-0.2944,0.5563,175.7656
20:13:41:524,1.5061,1.3174,5.739,48.9233,0.0796,-0.1642,0.4378,175
20:13:41:546,1.682,1.4635,6.0371,48.3771,-0.0589,-0.133,0.3011,174.2812
20:13:41:571,1.7491,1.5903,6.6249,46.2164,-0.1664,-0.1977,0.1531,173.7031
20:13:41:585,1.615,1.4994,7.6065,47.2174,-0.2253,-0.2446,0.0359,173.0312
20:13:41:604,1.3947,1.5377,8.2936,47.2599,-0.237,-0.1911,-0.0363,172.7969
20:13:41:626,1.7251,1.7101,8.569,49.85,-0.2684,-0.141,-0.0917,172.7344
20:13:41:644,2.6984,2.0213,9.3962,45.1064,-0.3633,-0.239,-0.203,172.7969
20:13:41:667,3.9039,1.9603,11.0529,48.1208,-0.4208,-0.366,-0.4227,172.8906
20:13:41:684,4.7155,1.2935,12.602,46.3174,-0.3433,-0.3184,-0.6946,173.0938
20:13:41:706,4.761,0.3262,12.2919,46.1512,-0.1475,-0.0928,-0.9066,173.4844
20:13:41:728,4.5683,-0.4938,10.44,47.191,-0.07,0.0268,-1.0097,174.2031
20:13:41:750,4.239,-0.8386,9.2238,47.3312,-0.3659,-0.2331,-1.0954,175.1719
20:13:41:770,3.3783,-1.7436,10.8183,47.6585,-0.9859,-0.5631,-1.1748,176.2344
20:13:41:786,2.0256,-2.7743,14.4994,44.6272,-1.53,-0.2145,-1.0169,177.4531
20:13:41:805,1.7443,-3.0017,16.3908,45.5187,-1.4954,0.6588,-0.5854,178.875
20:13:41:824,2.7104,-2.2799,14.1918,45.4021,-1.0203,1.0979,-0.1545,180.3281
20:13:41:846,3.5172,-0.8302,11.5402,44.8137,-0.6637,0.8492,0.0401,181.3438
20:13:41:866,3.4118,-0.0162,10.2736,45.3249,-0.3939,0.3078,-0.0123,181.7812
20:13:41:884,2.453,0.313,9.2238,45.5379,-0.0938,-0.0917,-0.0967,181.8281
20:13:41:905,1.7539,0.744,7.5873,45.9631,0.0961,-0.1716,-0.1103,181.7969
20:13:41:924,1.6318,1.2612,6.2693,45.1395,0.1151,-0.1098,-0.1125,181.875
20:13:41:945,1.8281,1.5975,5.5343,43.6868,0.0359,-0.0608,-0.1663,182.0156
20:13:41:969,1.9849,1.9052,5.3416,44.4727,-0.0815,-0.0076,-0.2853,182.125
20:13:41:985,1.9155,2.2152,5.4146,43.8704,-0.1824,0.0705,-0.4645,182.2656
20:13:42:004,1.4306,2.329,5.3631,44.1654,-0.2701,0.1136,-0.6691,182.5156
20:13:42:025,0.8644,2.1207,5.8946,44.8283,-0.404,0.0737,-0.8166,182.9531
20:13:42:044,0.4634,1.9339,7.2438,43.1495,-0.5494,0.0425,-0.8667,183.5781
20:13:42:070,0.3269,1.9866,9.0598,42.5268,-0.6312,0.0276,-0.869,184.4531
20:13:42:086,0.5711,1.9399,10.7836,44.1397,-0.6253,0.0414,-0.885,185.4531
20:13:42:105,0.443,1.6287,12.2824,43.114,-0.5683,0.1429,-0.9175,186.4375
20:13:42:125,-0.0155,1.1977,13.4077,41.6454,-0.4645,0.3847,-0.8555,187.4688
20:13:42:144,-0.2525,0.7847,13.8949,42.4572,-0.277,0.6774,-0.6725,188.5312
20:13:42:166,-0.0849,0.4423,13.4112,43.1249,-0.0168,0.8138,-0.4051,189.5469
20:13:42:185,0.4275,0.3298,12.5984,40.6392,0.1896,0.7027,-0.1143,190.8125
20:13:42:207,1.0655,0.2113,12.0178,41.4911,0.3345,0.5102,0.1174,191.2812
20:13:42:224,1.7132,0.1562,11.5354,38.9222,0.4069,0.3397,0.3131,191.3906
20:13:42:282,2.1453,0.8517,10.8925,39.3888,0.3555,0.1757,0.4567,191.25
20:13:42:282,2.8205,1.7364,11.2134,38.5019,0.1233,0.0252,0.4364,190.875
20:13:42:283,3.267,1.4479,12.4536,39.4019,-0.0938,-0.1551,0.1461,190.3594
20:13:42:304,2.2854,0.0497,14.1235,37.875,-0.1776,-0.402,-0.1633,189.8906
20:13:42:326,0.0097,-1.5269,16.0652,39.5946,-0.008,-0.46,-0.2057,189.7188
20:13:42:352,-1.6543,-2.657,16.1107,37.8854,0.5081,-0.1729,0.1642,189.9062
20:13:42:371,-1.112,-2.5923,12.948,38.8832,1.0309,0.1142,0.7153,190.1406
20:13:42:387,-0.0753,-1.321,9.8535,36.5501,1.1793,0.0223,1.0082,190.125
20:13:42:405,0.5149,-0.6674,8.8491,37.855,1.0759,-0.3578,0.9922,189.5938
20:13:42:425,0.1402,-0.4794,9.4093,37.762,0.9212,-0.4899,0.9033,188.5312
20:13:42:445,0.2934,-0.6554,9.7302,37.9704,0.8863,-0.243,0.9185,187.3906
20:13:42:467,0.2204,-0.5908,8.8587,37.7467,0.9958,0.0609,0.936,186.3125
20:13:42:485,0.1019,-0.4064,7.3407,37.3597,1.1137,0.2396,1.0096,184.7188
20:13:42:507,0.4502,-0.2472,5.8025,36.1429,1.163,0.2106,1.0825,183.6719
20:13:42:524,0.7423,0.0629,4.8783,36.8382,1.089,0.0625,1.0844,182.4375
20:13:42:546,1.135,0.3669,5.1824,36.2567,0.7745,-0.1394,0.9925,181.1406
20:13:42:570,1.366,0.5585,5.4745,38.0221,0.6671,-0.0984,0.9366,179.9062
20:13:42:586,1.6976,0.896,5.3595,37.5783,0.5633,-0.0677,0.8535,178.6875
20:13:42:605,2.1405,1.3354,5.5259,37.6985,0.4,-0.1399,0.7251,176.4375
20:13:42:625,2.4554,1.6466,6.2981,36.6322,0.2008,-0.2435,0.5185,175.4844
20:13:42:644,2.2447,1.4838,7.4772,35.8251,0.0032,-0.2238,0.3059,175.4844
20:13:42:668,1.5192,0.9439,8.7174,36.25,-0.1792,-0.0813,0.1914,174.6562
20:13:42:687,1.5037,0.4663,9.9397,39.9084,-0.2852,-0.0305,0.2093,174.0938
20:13:42:704,2.1884,-0.0018,11.0015,35.9188,-0.3358,-0.1125,0.2449,173.7969
20:13:42:726,2.5894,-0.3657,11.8275,38.6138,-0.3585,-0.0616,0.3107,173.5938
20:13:42:744,2.842,-0.5297,11.9077,35.2505,-0.2855,0.1655,0.4484,173.3906
20:13:42:766,3.5591,-0.3837,10.4388,37.4466,-0.196,0.4281,0.5536,173.0156
20:13:42:786,3.8667,0.3514,8.4852,36.8882,-0.2956,0.406,0.4958,172.6094
20:13:42:803,4.4342,0.8434,7.6388,37.6511,-0.6501,0.0518,0.2822,171.9844
20:13:42:831,4.828,0.8206,8.6743,38.8507,-1.1494,-0.4614,-0.1026,171.3594
20:13:42:844,4.2462,0.4028,11.8383,35.4161,-1.5311,-0.823,-0.4965,170.875
20:13:42:865,2.8624,0.1347,15.1602,36.1403,-1.481,-0.6044,-0.6933,170.8438
20:13:42:885,2.0412,0.0772,15.4475,37.1557,-1.0131,-0.0044,-0.6714,171.0469
20:13:42:904,2.0675,0.4663,12.705,37.6934,-0.5753,0.3789,-0.5868,171.75
20:13:42:924,2.4111,1.0361,10.4927,37.8969,-0.4442,0.3624,-0.5953,172.7188
20:13:42:944,2.3584,1.1642,9.5674,37.1317,-0.4461,0.1954,-0.734,173.5781
20:13:42:968,1.6677,0.829,9.2836,38.309,-0.4447,0.173,-0.8643,174.25
20:13:42:986,0.9339,0.5429,8.7306,36.7275,-0.3662,0.3434,-0.8563,174.9375
20:13:43:010,0.5077,0.5573,7.5562,37.4644,-0.2376,0.5232,-0.7335,175.7969
20:13:43:024,0.5244,0.8925,6.4956,36.5766,-0.1531,0.5584,-0.586,176.8125
20:13:43:043,0.7699,1.2683,6.073,37.4724,-0.0975,0.4873,-0.4909,177.75
20:13:43:065,1.0224,1.57,5.9341,38.4151,-0.0357,0.3541,-0.4805,178.9219
20:13:43:084,0.9674,1.7735,6.2346,36.8853,0.0112,0.1778,-0.5255,179.5156
20:13:43:103,0.7758,1.8932,6.5973,36.9392,0.0253,0.0348,-0.5745,180.0156
20:13:43:124,0.4059,2.0261,7.2773,36.9549,-0.0205,-0.063,-0.6046,180.5781
20:13:43:144,0.1294,2.0129,8.2517,38.3824,-0.1113,-0.047,-0.6038,181.2031
20:13:43:167,0.0815,2.1314,9.3638,36.5406,-0.2237,0.1176,-0.5697,181.8438
20:13:43:184,0.0289,2.3182,10.4676,37.8057,-0.2879,0.2928,-0.5521,182.5469
20:13:43:203,-0.4368,2.244,11.3618,37.8988,-0.2663,0.3932,-0.5442,183.2344
20:13:43:224,-1.4615,1.9148,12.3075,37.7394,-0.176,0.3842,-0.4312,183.8438
20:13:43:245,-2.0829,1.5616,13.446,38.6111,-0.0029,0.2875,-0.1428,184.4688
20:13:43:268,-1.5513,1.1139,14.5401,36.8192,0.2663,0.1341,0.2391,185.0469
20:13:43:294,0.0576,0.9691,14.6658,37.3745,0.5438,0.0359,0.5675,185.375
20:13:43:307,1.5312,1.1714,14.0756,37.0074,0.649,-0.0627,0.6902,185.3125
20:13:43:324,2.4578,1.479,13.8649,37.1093,0.5172,-0.1029,0.642,184.8281
20:13:43:345,2.5679,1.5101,14.4395,37.6021,0.3185,-0.1101,0.4588,183.6562
20:13:43:369,1.6749,0.92,15.2919,36.3389,0.2618,-0.0084,0.3171,182.9688
20:13:43:386,0.7878,-0.0245,15.0656,37.5428,0.5012,0.2886,0.3693,182.4375
20:13:43:403,0.2048,-0.5106,12.3542,38.0306,0.8757,0.5738,0.5712,182.25
20:13:43:423,0.2755,-0.4555,9.2046,36.5775,1.0615,0.442,0.7957,181.875
20:13:43:444,0.6214,-0.0796,7.3779,36.7296,0.971,-0.0736,0.9275,181.3125
20:13:43:468,0.8501,0.4591,7.7059,36.7296,0.7289,-0.6507,0.943,180.4688
20:13:43:485,0.9853,0.4088,9.1268,36.7296,0.5803,-0.8824,0.8908,179.4375
20:13:43:503,0.6046,0.1957,9.7613,36.0022,0.5862,-0.6635,0.8375,178.4375
20:13:43:523,0.0456,0.1443,9.0083,36.0794,0.6765,-0.2225,0.8532,177.4531
20:13:43:544,-0.3028,0.1359,7.4964,36.033,0.7486,0.1267,0.9283,176.5469
20:13:43:567,-0.3159,0.1957,6.0503,38.1507,0.7545,0.2199,1.0303,175.6562
20:13:43:584,-0.0621,0.325,5.1608,36.6489,0.6732,0.1181,1.1113,174.6094
20:13:43:603,0.3497,0.4735,5.0639,35.6894,0.5585,-0.0683,1.1568,173.4219
20:13:43:624,0.7866,0.6758,5.3823,35.6593,0.5012,-0.3093,1.1547,171.5312
20:13:43:643,1.3277,0.8733,5.6696,36.8244,0.4986,-0.5642,1.083,170.1875
20:13:43:664,1.7886,1.0277,6.1353,35.5238,0.4719,-0.7234,0.952,168.8906
20:13:43:685,2.095,1.2013,6.6357,36.8411,0.3859,-0.6976,0.7691,167.7031
20:13:43:703,2.3225,1.4,7.1636,35.6995,0.2429,-0.5125,0.5235,166.75
20:13:43:724,2.2794,1.552,7.4066,36.337,0.0487,-0.2379,0.2279,165.9531
20:13:43:744,2.1094,1.5604,7.6568,35.6634,-0.1896,0.0055,-0.0744,165.4219
20:13:43:768,1.6785,1.4132,8.0015,34.6347,-0.4559,0.1421,-0.346,165.2031
20:13:43:785,1.1936,0.9415,8.9939,35.4629,-0.7289,0.1474,-0.5154,165.3125
20:13:43:807,0.88,0.2209,10.9273,37.6709,-0.9263,0.0891,-0.5218,166.3281
20:13:43:826,2.1681,-0.9379,13.5477,35.7909,-0.7587,0.345,-0.0371,166.6875
20:13:43:853,3.8332,-0.428,12.8654,35.9265,-0.6653,0.4412,0.124,167.2656
20:13:43:868,5.2003,-0.3657,12.2536,37.5136,-0.7787,0.2795,-0.0304,167.5312
20:13:43:887,4.937,-0.8541,13.2508,38.046,-1.1225,0.1259,-0.3463,167.4531
20:13:43:906,3.0527,-1.5568,15.724,37.2584,-1.3082,0.3975,-0.4954,167.4531
20:13:43:925,1.2619,-1.916,16.1562,35.5368,-0.9558,0.9879,-0.2445,167.9219
20:13:43:946,2.0879,-1.5425,12.8881,38.1998,-0.3699,1.2745,0.2692,168.5312
20:13:43:969,3.8656,-0.2867,9.6404,37.6425,-0.0354,0.9155,0.564,168.5312
20:13:43:986,4.5539,0.9978,8.3631,39.4786,0.0586,0.1909,0.4873,168.7969
20:13:44:004,4.4258,1.5485,8.2314,37.4164,0.0655,-0.2662,0.2087,168.4062
20:13:44:024,3.8608,1.7627,7.7968,38.246,0.013,-0.2076,-0.1156,167.1562
20:13:44:043,3.2036,1.8657,6.9337,38.2688,-0.0964,0.1488,-0.4014,167.1562
20:13:44:066,2.5906,1.8561,6.0898,39.8585,-0.2208,0.479,-0.6227,166.9375
20:13:44:085,1.9789,1.837,5.5152,38.36,-0.2921,0.6212,-0.7687,167.0781
20:13:44:103,1.3792,1.8537,5.1117,38.2499,-0.2839,0.556,-0.8432,167.5156
20:13:44:125,1.0284,1.898,4.8472,39.6633,-0.253,0.418,-0.8621,168.2031
20:13:44:142,0.9003,2.0129,4.8113,40.3621,-0.2626,0.2622,-0.8746,169.0469
20:13:44:163,0.7471,2.0369,5.1452,40.7029,-0.3452,0.1187,-0.9175,170.9062
20:13:44:186,0.522,1.9423,6.1329,40.7277,-0.4836,0.0332,-0.9577,171.3906
20:13:44:204,0.2886,1.8956,7.5023,40.9572,-0.6096,-0.0257,-0.9764,172.4062
20:13:44:225,0.139,1.7448,9.62,42.1103,-0.6906,-0.0904,-0.9564,174.5469
20:13:44:243,0.0827,1.7795,12.0525,41.3519,-0.6679,-0.0622,-0.8752,174.5469
20:13:44:263,0.1246,1.9435,14.078,42.1945,-0.5265,0.0164,-0.7668,175.6562
20:13:44:285,-0.2489,2.0309,15.5768,41.4846,-0.2991,0.1749,-0.6347,176.6719
20:13:44:334,-0.6463,2.0381,16.0532,42.1734,0.0442,0.364,-0.4331,177.6094
20:13:44:334,-0.523,1.8406,15.238,44.5025,0.4061,0.5357,-0.1868,178.0469
20:13:44:346,-0.1735,1.7184,13.5728,42.4736,0.6418,0.6194,0.0401,178.7656
20:13:44:369,0.145,1.7412,12.2261,43.9494,0.6666,0.5576,0.2079,179.2344
20:13:44:385,0.6154,1.9172,11.9496,44.2716,0.518,0.3448,0.2833,179.4375
20:13:44:407,1.4857,1.7029,12.9946,45.0693,0.3238,0.1235,0.1824,179.375
20:13:44:427,1.2391,0.7799,14.1463,46.4169,0.2602,-0.0342,-0.0792,179.1406
20:13:44:443,-0.5314,-0.4088,14.928,46.3935,0.4019,-0.1402,-0.1737,178.8281
20:13:44:464,-1.8793,-1.2755,14.5545,46.1736,0.812,-0.1189,0.1102,178.7188
20:13:44:484,-1.1994,-1.3102,12.0334,46.6106,1.2227,-0.0784,0.5384,178.8438
20:13:44:505,0.2623,-0.8062,9.5266,46.7694,1.2919,-0.1285,0.7464,178.9375
20:13:44:524,1.773,-0.6686,8.5546,48.1268,1.0922,-0.3082,0.6996,178.5938
20:13:44:543,2.4398,-0.5704,8.7174,48.2001,0.9036,-0.521,0.491,177.8438
20:13:44:564,2.2782,-0.5584,8.6516,49.2789,0.844,-0.6265,0.2391,177.0781
20:13:44:584,1.9921,-0.8817,7.9716,48.0849,0.7843,-0.5109,0.0314,176.4375
20:13:44:602,1.2643,-1.1582,6.8332,47.8151,0.6666,-0.1671,-0.097,176.0938
20:13:44:629,0.3197,-1.2516,5.4122,49.1619,0.5364,0.185,-0.0762,176.0312
20:13:44:642,-0.2357,-1.1989,3.8883,49.4303,0.4008,0.3283,0.0764,176.125
20:13:44:664,-0.3626,-0.9272,2.7738,50.3961,0.2157,0.198,0.2721,176.2344
20:13:44:684,-0.1507,-0.5453,2.4171,50.0155,-0.0554,-0.0736,0.433,176.2031
20:13:44:703,0.2419,-0.076,3.0898,50.9992,-0.3707,-0.2888,0.5368,175.9688
20:13:44:726,0.4407,0.313,4.3241,51.8228,-0.6333,-0.3815,0.5792,175.5469
20:13:44:744,0.8548,0.9355,5.9545,49.7355,-0.7422,-0.4547,0.5826,175.0156
20:13:44:764,1.4295,1.6346,7.3479,50.0931,-0.7012,-0.5599,0.4657,174.4531
20:13:44:786,1.5121,2.0668,8.2074,51.1019,-0.7148,-0.6022,0.1885,173.5625
20:13:44:804,0.8082,2.0991,9.2872,51.8864,-0.9428,-0.4286,-0.1535,173.125
20:13:44:825,-0.547,1.6203,11.2325,51.9918,-1.2599,-0.0057,-0.4528,173.0156
20:13:44:843,-2.2193,0.9068,13.3729,51.1205,-1.4155,0.511,-0.5388,173.2656
20:13:44:866,-2.8849,0.5094,14.6071,52.0663,-1.3095,0.9019,-0.3474,173.5312
20:13:44:886,-2.6215,0.3945,14.8705,53.3931,-1.0104,0.9826,-0.0445,174.1562
20:13:44:902,-1.7022,0.3597,14.5844,50.2522,-0.6141,0.773,0.286,174.6562
20:13:44:923,-0.4153,0.3178,13.6674,52.8311,-0.2147,0.4098,0.5643,174.8438
20:13:44:942,0.8572,0.4878,12.5745,52.3092,0.0639,0.0244,0.7776,174.6719
20:13:44:963,2.0962,0.6686,11.7916,52.7322,0.2016,-0.3194,0.8764,174.1719
20:13:44:986,3.1665,0.5273,11.6036,52.5364,0.2216,-0.5892,0.8513,173.3906
20:13:45:004,4.1732,0.2975,12.0178,52.2932,0.1667,-0.7085,0.7696,172.4219
20:13:45:022,5.0076,0.1335,12.9288,52.606,0.1497,-0.6885,0.638,171.4375
20:13:45:042,5.241,-0.0832,13.3023,54.6174,0.3169,-0.5242,0.4529,170.5938
20:13:45:062,5.2805,-0.4399,11.934,52.8748,0.6157,-0.305,0.275,169.4844
20:13:45:086,5.2458,-0.5992,9.3064,52.4611,0.7529,-0.1514,0.1003,169
20:13:45:107,4.9346,-0.3813,7.2031,53.4957,0.5992,-0.1543,-0.1101,168.6875
20:13:45:124,4.348,0.0173,6.468,53.4043,0.2844,-0.2153,-0.3476,168.5469
20:13:45:143,3.5459,0.2676,6.5614,54.8523,0.0256,-0.2166,-0.5878,168.6719
20:13:45:162,2.629,0.3358,6.5734,52.76,-0.1111,-0.1253,-0.7641,169.0625
20:13:45:186,2.1393,0.5585,6.6285,54.2085,-0.1609,0.0223,-0.8448,169.7344
20:13:45:204,2.125,1.0229,6.34,54.4825,-0.1073,0.1805,-0.9173,170.625
20:13:45:223,2.3057,1.5963,5.1477,55.2121,-0.045,0.1568,-1.0592,171.5469
20:13:45:243,2.0112,1.734,4.8951,54.313,-0.0898,-0.0784,-1.2552,172.5938
20:13:45:267,0.8513,1.7328,5.927,55.0592,-0.1332,-0.3418,-1.3514,173.7969
20:13:45:286,0.2814,1.5544,6.6811,53.7089,-0.1499,-0.4307,-1.2643,175.25
20:13:45:303,0.1306,1.6466,7.3982,54.3767,-0.241,-0.2965,-1.1324,176.75
20:13:45:323,0.309,1.9495,8.15,55.8487,-0.3585,-0.0672,-1.0062,177.5
20:13:45:343,0.5867,2.3493,8.8766,53.8243,-0.4384,0.1096,-0.9617,178.9219
20:13:45:365,-0.0095,2.3972,11.0075,55.9341,-0.4977,0.2004,-0.995,180.6719
20:13:45:384,-0.8247,1.9495,11.9855,54.9958,-0.5265,0.5056,-0.9921,181.7812
20:13:45:404,-1.5549,1.5844,12.4679,55.3346,-0.4903,0.6883,-0.8075,181.7812
20:13:45:426,-1.9176,1.4814,12.7612,56.6688,-0.4919,0.7544,-0.5532,184.0469
20:13:45:443,-1.8494,1.2923,13.4005,55.0133,-0.5774,0.6209,-0.3111,185.1719
20:13:45:462,-1.4771,0.9499,15.5684,55.0133,-0.6962,0.3815,-0.1127,186.0625
20:13:45:486,-1.1491,0.3023,18.5408,54.847,-0.5524,0.2135,0.0306,186.6719
20:13:45:504,-1.4053,-0.8757,19.8469,55.0455,0.07,0.1083,0.2252,186.9844
20:13:45:527,-1.4544,-1.6179,17.5891,55.2281,0.898,0.05,0.6154,187.0938
20:13:45:544,-0.7217,-1.4371,13.9104,54.0183,1.4053,0.1879,0.9661,187.0469
20:13:45:562,0.2755,-1.3414,10.1396,54.7122,1.5718,0.3424,1.1395,186.8125
20:13:45:585,0.6202,-1.0948,7.0451,54.225,1.4283,0.2436,1.1816,186.1094
20:13:45:602,0.6286,-0.6183,5.9246,53.0952,1.0418,-0.0859,1.1739,185.0156
20:13:45:623,0.7507,-0.337,6.6835,54.6984,0.6392,-0.3532,1.1328,182.4375
20:13:45:641,1.0596,-0.0928,7.5155,52.8633,0.3891,-0.3756,1.0748,181.7656
20:13:45:663,1.4402,0.2831,7.6113,55.1041,0.1678,-0.1902,0.9675,180.4844
20:13:45:684,1.7886,0.5477,7.9644,53.0025,-0.1198,0.1589,0.7648,179.3125
20:13:45:703,1.1948,0.6087,8.1871,54.7034,-0.2996,0.5618,0.5443,178.1719
20:13:45:724,0.3569,0.2819,7.9142,53.3333,-0.278,0.7933,0.4521,177.1719
20:13:45:743,-0.2645,0.0449,7.2294,53.6297,-0.0905,0.8007,0.536,176.3906
20:13:45:762,-0.3626,0.1059,6.3124,53.8371,0.187,0.5589,0.723,175.7969
20:13:45:785,-0.0753,0.434,5.2757,53.3191,0.4,0.1815,0.8721,175.5
20:13:45:803,0.3185,0.7871,4.7586,54.7193,0.429,-0.1727,0.9336,174.8125
20:13:45:823,0.6873,1.1869,4.9717,51.9866,0.3374,-0.4363,0.8934,173.9219
20:13:45:842,0.9099,1.5006,5.6133,52.8478,0.1795,-0.5226,0.7552,172.9688
20:13:45:862,1.0081,1.5856,6.3519,53.3818,-0.02,-0.4425,0.5507,171.9219
20:13:45:883,0.9135,1.4802,7.1767,53.5151,-0.2461,-0.2717,0.3339,170.9531
20:13:45:903,0.5484,1.1534,8.2948,54.5249,-0.47,-0.1088,0.1656,170.1875
20:13:45:922,0.7435,0.7799,9.4955,52.1236,-0.6541,-0.0576,0.0599,169.4219
20:13:45:943,1.0991,0.2927,11.5713,53.1796,-0.804,-0.146,-0.0592,169.1719
20:13:45:964,0.9937,-0.3813,14.1235,53.8347,-0.7883,-0.1149,-0.1295,169.0625
20:13:45:987,0.9865,-0.9798,14.9914,53.3498,-0.4866,0.2132,-0.0698,169.0625
20:13:46:003,1.7622,-1.2528,12.347,55.0847,-0.1452,0.5988,0.0394,169.2188
20:13:46:025,2.1717,-0.6506,9.5578,53.276,-0.147,0.6172,0.0244,169.3438
20:13:46:042,2.7941,-0.0712,8.8215,54.6579,-0.4178,0.2561,-0.1497,169.3281
20:13:46:062,3.5028,-0.264,10.039,55.0617,-0.7571,-0.2331,-0.4685,169.2188
20:13:46:084,3.8165,-1.2516,12.3674,54.5195,-1.0165,-0.6113,-0.8315,169.2188
20:13:46:102,2.7523,-2.2081,15.1028,53.6037,-1.0836,-0.4968,-1.0451,169.5469
20:13:46:127,1.9227,-2.3721,15.2201,53.4466,-0.7963,0.148,-0.9538,170.3125
20:13:46:142,1.9849,-1.9291,12.0406,53.9268,-0.3681,0.6087,-0.7503,171.4688
20:13:46:162,2.3045,-1.0433,8.5331,53.6357,-0.1454,0.5909,-0.5961,172.5938
20:13:46:186,2.4254,-0.0449,6.5411,54.557,-0.1902,0.2074,-0.6046,173.5469
20:13:46:204,2.1082,0.7009,6.498,54.5165,-0.3462,-0.1399,-0.726,174.6094
20:13:46:222,1.4749,0.8517,7.0175,53.4794,-0.4258,-0.1924,-0.8619,175.2656
20:13:46:243,0.6837,0.8374,7.0953,54.2368,-0.4261,0.0095,-0.8957,176.0938
20:13:46:264,0.2671,1.1271,6.9218,54.5936,-0.3846,0.1845,-0.8528,177.0781
20:13:46:287,-0.0609,1.3569,6.9864,55.1083,-0.3113,0.1568,-0.8193,177.5938
20:13:46:303,-0.2321,1.473,7.4293,56.4629,-0.2498,0.0721,-0.8051,178.5312
20:13:46:322,-0.6607,1.497,8.2314,56.1091,-0.1835,0.0806,-0.8001,179.4844
20:13:46:379,-1.033,1.3557,8.7665,55.8164,-0.081,0.1312,-0.782,180.4062
20:13:46:379,-1.2988,1.1115,9.0682,55.6836,-0.0219,0.2289,-0.7338,181.2812
20:13:46:381,-1.5274,1.0972,9.4584,54.7032,-0.0146,0.3693,-0.6696,182.1875
20:13:46:408,-1.8398,1.0804,9.8439,53.8803,-0.0237,0.5022,-0.6107,183.0469
20:13:46:421,-2.1786,1.1031,10.4544,55.7986,-0.0136,0.6508,-0.5303,183.8594
20:13:46:441,-2.4001,1.0397,10.4939,55.4353,0.0527,0.7706,-0.4209,184.5625
20:13:46:463,-2.7221,0.9858,10.2066,55.6556,0.0812,0.7333,-0.2701,185.2188
20:13:46:488,-2.5617,0.8781,10.4975,55.2507,0.0165,0.5142,-0.0786,185.9844
20:13:46:507,-1.616,0.7536,11.776,56.5237,-0.1262,0.205,0.0897,186.2969
20:13:46:522,-0.6224,0.258,14.1475,55.8822,-0.2448,0.014,0.1773,186.3906
20:13:46:542,-0.5506,-0.149,15.9084,55.6658,-0.1707,-0.0933,0.234,186.2969
20:13:46:562,0.1534,-0.2915,16.9702,56.2467,-0.0439,-0.1461,0.3147,186.0781
20:13:46:586,0.4801,-1.0648,18.1003,56.4136,0.18,-0.0843,0.1933,185.7969
20:13:46:604,-1.1826,-2.305,17.6358,54.9278,0.6336,0.1695,0.1504,185.4375
20:13:46:621,-1.8374,-3.2735,14.8861,55.0143,1.2416,0.4524,0.5089,185.2344
20:13:46:642,-0.3435,-3.3788,10.2353,55.1857,1.6637,0.4236,0.9536,185.1094
20:13:46:663,1.2415,-2.0608,6.5088,55.213,1.5217,-0.0182,1.094,184.6094
20:13:46:686,1.3672,-0.4244,5.9449,54.1646,0.9372,-0.5881,0.8668,183.625
20:13:46:704,0.8225,-0.2412,8.2422,53.9312,0.4075,-0.905,0.5693,182.5312
20:13:46:722,0.3676,-0.7129,9.9983,53.9038,0.3337,-0.9122,0.3866,181.6406
20:13:46:743,-0.5218,-0.7141,9.5554,55.3497,0.5284,-0.659,0.3888,181.3281
20:13:46:765,-0.1639,-0.2723,6.6249,52.8789,0.7388,-0.2089,0.6322,180.8906
20:13:46:786,-0.0538,0.009,5.7247,53.4181,0.6879,-0.1383,0.6865,180.3438
20:13:46:804,0.1964,0.1287,5.1572,52.5972,0.6423,-0.1772,0.7305,179.7812
20:13:46:822,0.4167,0.3825,4.8987,54.9906,0.5981,-0.2962,0.7504,179.1406
20:13:46:843,0.6166,0.5992,4.8903,54.1098,0.5182,-0.4044,0.7371,178.375
20:13:46:861,0.8896,0.817,5.1261,54.1914,0.4067,-0.4547,0.6892,177.5781
20:13:46:882,1.1314,0.9511,5.4649,51.6062,0.2703,-0.4971,0.5779,176.7656
20:13:46:903,1.2666,1.0301,6.152,53.1625,0.1073,-0.55,0.4308,176.0156
20:13:46:923,1.3792,1.1175,7.0307,52.2965,-0.045,-0.5788,0.2567,175.2812
20:13:46:940,1.299,1.2181,7.8375,52.1374,-0.1758,-0.4997,0.054,174.6719
20:13:46:961,1.3349,1.0086,8.3331,53.5067,-0.3257,-0.366,-0.1532,174.2812
20:13:46:982,1.3947,0.7727,8.818,52.4025,-0.5438,-0.2773,-0.3479,174.0625
20:13:47:001,1.3612,0.598,10.1719,54.2046,-0.8024,-0.2933,-0.5457,174.0625
20:13:47:020,1.1302,0.1574,12.5673,51.9394,-0.9254,-0.2006,-0.7175,174.2812
20:13:47:041,1.2403,-0.8254,13.5884,52.9231,-0.832,0.1373,-0.7474,175.0469
20:13:47:061,1.7383,-1.4276,12.6463,52.1248,-0.7156,0.5099,-0.5854,175.8438
20:13:47:082,2.6014,-1.1031,11.132,53.9638,-0.7263,0.5528,-0.371,176.6875
20:13:47:103,3.7399,-0.6674,10.8075,53.2886,-0.9036,0.0915,-0.3729,177.4688
20:13:47:122,3.9099,-0.9559,12.8893,53.3081,-1.1305,-0.447,-0.5913,177.9844
20:13:47:142,2.9546,-1.8609,15.1901,52.8487,-1.1103,-0.4379,-0.696,178.3438
20:13:47:162,1.8532,-2.3373,14.9052,52.194,-0.7864,0.0087,-0.489,178.8906
20:13:47:187,2.2255,-1.7675,12.7265,52.7067,-0.4056,0.3813,-0.0587,179.2969
20:13:47:203,3.8907,-0.6051,10.3275,53.9855,-0.1321,0.2774,0.1693,180.125
20:13:47:221,4.9382,0.4579,8.8599,53.4173,-0.0716,-0.1498,-0.0152,180.6875
20:13:47:241,4.5287,1.0457,8.5187,53.7629,-0.1968,-0.3974,-0.4624,180.75
20:13:47:261,3.121,0.9296,8.6432,52.5474,-0.3177,-0.329,-0.8941,180.5625
20:13:47:282,1.7515,0.5178,8.2733,52.9573,-0.3403,-0.0486,-1.1135,180.5781
20:13:47:301,0.8237,0.2939,7.6161,52.2957,-0.3009,0.2737,-1.1284,181.0938
20:13:47:321,0.1486,0.3777,7.0079,51.3073,-0.2152,0.4883,-1.0241,182.7656
20:13:47:342,0.0073,0.7201,6.504,51.6835,-0.1047,0.5443,-0.8818,184.0781
20:13:47:361,0.2144,1.0768,6.067,52.8987,-0.0157,0.4745,-0.8137,185.2656
20:13:47:381,0.2671,1.3438,5.9018,53.9714,-0.0163,0.3797,-0.8272,186.3438
20:13:47:404,0.2012,1.394,6.2095,53.5171,-0.0874,0.3032,-0.8821,187.2969
20:13:47:421,-0.0753,1.3234,6.7949,52.37,-0.1862,0.2819,-0.9282,188.1719
20:13:47:441,-0.3902,1.1402,7.7011,53.6663,-0.2935,0.3024,-0.9218,189.1562
20:13:47:462,-0.5721,1.0972,8.9879,56.3217,-0.375,0.3408,-0.8579,190.1875
20:13:47:485,-0.6068,1.0744,10.209,54.1322,-0.3742,0.3996,-0.7711,191.25
20:13:47:502,-0.5254,1.0948,11.2529,53.2107,-0.3193,0.4843,-0.6563,192.2188
20:13:47:521,-0.1316,1.1247,12.0154,53.2107,-0.2248,0.5642,-0.5466,193.1562
20:13:47:544,0.1785,1.0505,12.3315,54.3712,-0.1268,0.552,-0.4757,193.9688
20:13:47:561,0.5687,0.6087,12.7971,55.1933,-0.0868,0.4588,-0.3929,194.6094
20:13:47:582,0.7806,0.483,13.4866,55.3964,-0.0397,0.389,-0.2448,195.2031
20:13:47:603,1.5432,0.6207,13.3693,54.2961,0.0714,0.402,-0.0978,195.9219
20:13:47:621,2.2363,0.9391,12.286,54.535,0.0692,0.4015,-0.1215,196.1875
20:13:47:641,2.872,0.9942,12.0765,54.9899,-0.1795,0.2225,-0.3332,196.2969
20:13:47:662,2.4626,-0.0365,13.8123,53.159,-0.4834,-0.0004,-0.7346,196.4531
20:13:47:685,0.3102,-2.08,16.58,52.1423,-0.4328,-0.0733,-0.9295,196.8125
20:13:47:703,-1.5513,-3.5165,17.2372,53.6133,0.1686,0.0545,-0.6073,197.1562
20:13:47:725,-1.7788,-3.5799,14.9926,54.2783,0.9263,0.2409,0.0444,198.1406
20:13:47:741,-0.292,-2.6282,11.2134,54.4495,1.493,0.3038,0.5366,199.0781
20:13:47:761,0.8716,-1.3737,8.2996,52.9906,1.5691,0.0686,0.6247,199.4531
20:13:47:783,1.2774,-0.5369,7.1229,54.5824,1.3265,-0.2494,0.4916,199.1406
20:13:47:804,1.5731,-0.1215,7.3192,53.4332,1.0493,-0.5391,0.3312,198.5312
20:13:47:823,1.8317,0.0581,7.9381,51.1305,0.8272,-0.6971,0.0814,197.9844
20:13:47:845,1.3552,-0.0329,8.49,51.5418,0.6509,-0.5716,-0.1881,197.5938
20:13:47:860,0.6897,-0.4064,8.6528,53.6728,0.5374,-0.2539,-0.3513,197.4219
20:13:47:882,0.2623,-0.7057,8.1488,52.0541,0.5108,0.0793,-0.3671,197.5625
20:13:47:902,0.0049,-0.7536,7.2534,51.3807,0.5529,0.2438,-0.305,198.1562
20:13:47:921,-0.0238,-0.7177,6.2358,54.0229,0.6109,0.2116,-0.2121,198.5938
20:13:47:941,0.1007,-0.6171,5.247,52.8005,0.5886,0.1014,-0.1314,198.9375
20:13:47:960,0.224,-0.3597,4.5719,50.7969,0.4498,-0.0204,-0.0909,199.1719
20:13:47:982,0.3736,-0.0664,4.2965,49.5513,0.2378,-0.1535,-0.089,199.3438
20:13:48:003,0.5472,0.1993,4.6556,52.4288,-0.0035,-0.3074,-0.1378,199.4688
20:13:48:022,0.5065,0.3597,5.5702,50.2317,-0.2136,-0.3892,-0.2206,199.5938
20:13:48:041,0.1964,0.4268,6.3495,49.0149,-0.3497,-0.3618,-0.2978,199.7812
20:13:48:063,-0.2082,0.4579,6.7949,49.5693,-0.4573,-0.2723,-0.329,200.0625
20:13:48:083,-0.371,0.4483,7.1911,51.02,-0.5816,-0.2369,-0.3162,200.4062
20:13:48:104,-0.2836,0.325,7.8627,50.6195,-0.7345,-0.3053,-0.2845,200.7969
20:13:48:121,0.2922,0.0868,9.1232,51.0999,-0.9422,-0.4968,-0.2778,201.1562
20:13:48:141,0.9422,-0.0557,11.4648,51.7078,-1.2056,-0.6427,-0.3479,201.4844
20:13:48:162,1.7862,-1.3054,15.8258,52.497,-1.3004,0.0004,-0.5889,201.8125
20:13:48:186,2.125,-1.7017,15.019,51.9128,-1.2474,0.5735,-0.6408,201.9844
20:13:48:205,2.3285,-1.7843,14.2899,50.8224,-1.3686,0.8332,-0.746,202.7812
20:13:48:223,1.9957,-2.4523,15.1135,51.8773,-1.4559,0.7957,-0.9085,204.125
20:13:48:245,0.279,-3.2064,16.3813,50.6823,-1.2474,0.7578,-0.876,204.9375
20:13:48:260,-0.9695,-3.1837,16.4064,50.6786,-0.6075,0.8241,-0.387,204.9375
20:13:48:281,0.4395,-2.5097,13.9368,51.3164,0.3004,0.7837,0.2812,205.9062
20:13:48:302,3.1269,-1.7005,10.1024,50.1119,1.0061,0.3996,0.6636,206.8906
20:13:48:322,5.1824,-0.5225,6.8715,51.259,1.2088,-0.2281,0.5893,207.3438
20:13:48:340,5.6444,0.6973,5.818,49.6143,0.9864,-0.8417,0.1145,207.0781
20:13:48:360,4.9262,1.0098,6.1329,49.7384,0.64,-1.0789,-0.4975,206.4375
20:13:48:426,3.9709,0.659,6.4836,49.451,0.3151,-0.8656,-1.0025,205.8281
20:13:48:427,3.0336,0.2364,6.5722,49.2404,0.0165,-0.3644,-1.3327,205.75
20:13:48:427,2.0484,0.0629,6.5112,51.0952,-0.2155,0.1717,-1.4792,206.2969
20:13:48:441,1.5156,0.1167,6.5758,48.6882,-0.3465,0.56,-1.4968,207.4688
20:13:48:460,1.2319,0.2256,6.6344,48.0228,-0.3177,0.655,-1.4853,209.8281
20:13:48:481,1.1445,0.3298,6.5279,48.4169,-0.216,0.5285,-1.484,211.4531
20:13:48:502,0.9506,0.3274,6.4609,51.4917,-0.171,0.3006,-1.5159,213.1406
20:13:48:520,0.4179,0.167,6.9936,48.1653,-0.2109,0.0998,-1.542,214.8438
20:13:48:541,-0.2357,-0.0317,8.0255,48.9047,-0.278,0.0627,-1.4949,216.5625
20:13:48:560,-0.8187,-0.1119,9.0322,48.5345,-0.3188,0.2159,-1.3522,218.2188
20:13:48:581,-1.0354,0.0988,9.9001,48.9715,-0.3156,0.4167,-1.1463,219.9688
20:13:48:602,-0.6667,0.5034,10.8363,47.9028,-0.2437,0.4873,-0.9716,221.5938
20:13:48:621,-0.1675,0.6865,11.758,48.1431,-0.118,0.4311,-0.893,222.9531
20:13:48:641,-0.055,0.6746,12.4763,48.1202,-0.0381,0.3871,-0.88,224.1562
20:13:48:662,0.0348,0.7715,13.2113,49.2084,-0.0567,0.5333,-0.8691,224.6875
20:13:48:684,0.1569,0.9607,13.8482,47.3522,-0.0953,0.8857,-0.9066,225.7344
20:13:48:704,0.1821,0.9906,13.6866,46.9873,-0.049,1.3158,-0.9809,226.7031
20:13:48:723,-0.0789,0.987,12.608,45.6486,0.021,1.5898,-1.0416,227.7188
20:13:48:744,-0.3854,0.8925,11.7066,46.8852,0.017,1.5565,-1.0992,228.7812
20:13:48:762,-0.784,0.1227,11.6635,46.3442,-0.0186,1.1621,-1.211,229.9219
20:13:48:783,-1.7991,-1.3078,12.9037,46.4777,0.0394,0.5661,-1.2824,231.8594
20:13:48:802,-3.3266,-2.9443,14.4874,45.3535,0.3318,0.1701,-1.0811,233.25
20:13:48:820,-3.8186,-3.8876,14.2013,46.2591,0.8469,0.2124,-0.5404,234.6875
20:13:48:841,-2.4707,-3.8074,11.4899,45.0998,1.2658,0.3019,0.0628,236.125
20:13:48:861,-0.1531,-3.0592,8.7809,45.2697,1.3058,0.0612,0.3579,237.1875
20:13:48:882,1.1517,-2.1709,8.0422,46.259,1.0219,-0.407,0.2508,237.6094
20:13:48:903,1.1553,-1.8154,9.1232,43.763,0.7055,-0.7762,-0.0509,237.5156
20:13:48:921,0.4311,-1.8358,10.4496,44.7053,0.6133,-0.8145,-0.2741,237.2969
20:13:48:940,-0.1196,-1.6729,10.4855,44.1729,0.7662,-0.5442,-0.2781,237.2969
20:13:48:960,-0.4009,-1.236,8.9161,43.0929,0.9518,-0.1381,-0.1788,237.5781
20:13:48:981,-0.6559,-0.7907,6.6752,43.2802,0.971,0.1043,-0.0539,238.0156
20:13:49:003,-0.7948,-0.2041,5.2207,41.9544,0.7997,0.0912,0.0913,238.3906
20:13:49:020,-0.6535,0.422,5.0208,44.008,0.5912,-0.0757,0.2183,238.625
20:13:49:041,-0.3375,0.8434,5.4565,42.7981,0.4882,-0.2627,0.27,238.6875
20:13:49:060,-0.0837,1.1893,5.6253,42.1334,0.4922,-0.3988,0.2567,238.5156
20:13:49:082,0.0312,1.5568,5.6349,42.4289,0.474,-0.5,0.1858,238.2969
20:13:49:102,0.1354,1.8346,5.8492,42.3067,0.4011,-0.5578,0.0862,238.0781
20:13:49:122,0.1138,1.9459,6.2502,40.9993,0.2959,-0.5905,-0.0342,238
20:13:49:140,-0.1914,1.898,6.9828,41.7336,0.1598,-0.5434,-0.133,237.9219
20:13:49:160,-0.462,1.6789,7.9932,41.0746,0.0274,-0.3218,-0.1665,237.9688
20:13:49:181,-0.632,1.6514,8.9413,41.6517,-0.0804,0.0425,-0.1545,238.1406
20:13:49:202,-0.1423,1.7627,9.4417,40.65,-0.1364,0.2859,-0.1913,238.3594
20:13:49:220,0.6142,1.4742,9.7744,41.6966,-0.2101,0.1994,-0.3766,238.5469
20:13:49:240,1.05,0.5644,10.9883,40.7919,-0.3329,-0.0188,-0.6342,238.6875
20:13:49:261,0.9602,-0.5968,12.1196,39.4759,-0.3774,0.0361,-0.8398,238.9688
20:13:49:282,0.8201,-1.3509,11.9029,40.7001,-0.3547,0.4146,-0.9138,239.5156
20:13:49:304,1.4318,-1.0936,10.8147,40.1782,-0.3627,0.6271,-0.9402,240.2969
20:13:49:322,2.5535,-0.6411,9.9516,38.9053,-0.4618,0.4138,-1.1609,241.7656
20:13:49:340,2.1154,-0.5608,9.7481,40.6065,-0.7388,-0.1008,-1.546,242.7812
20:13:49:360,0.722,-1.1378,12.2584,38.3284,-1.1763,-0.5826,-1.6784,243.9844
20:13:49:381,-0.0741,-1.2336,16.8062,38.7999,-1.2517,-0.4896,-1.4555,245.6719
20:13:49:404,0.704,-0.9906,17.9135,37.8513,-0.5611,-0.1117,-1.0946,247.4688
20:13:49:421,2.2746,-0.4567,14.8633,37.5655,0.3004,-0.0142,-0.8616,248.9219
20:13:49:440,3.4382,0.2963,11.1906,38.3979,0.7244,-0.3695,-0.9252,250.125
20:13:49:461,3.3867,0.8098,9.7337,36.9879,0.6405,-0.8049,-1.2254,251.1406
20:13:49:481,2.3476,0.7009,10.1575,36.9879,0.4269,-0.8411,-1.5372,252.2031
20:13:49:503,1.2942,0.2101,10.227,36.7747,0.424,-0.4824,-1.6629,253.6562
20:13:49:521,0.5891,-0.1802,9.0011,38.0744,0.6152,-0.0422,-1.6185,255.4531
20:13:49:540,0.1964,-0.1862,6.8954,36.0194,0.8474,0.1757,-1.4683,257.3906
20:13:49:560,-0.013,0.2352,4.8711,37.5272,0.9979,0.0209,-1.2936,259.1875
20:13:49:582,0.5795,1.1786,3.3723,35.639,0.7425,-0.5977,-1.2589,260.9219
20:13:49:603,0.2742,1.2384,3.7686,36.9141,0.4165,-0.6979,-1.4286,260.9219
20:13:49:621,-0.3064,1.0193,4.6676,36.4271,0.0386,-0.6302,-1.5591,263.2188
20:13:49:642,-1.1707,0.7811,6.0527,35.9581,-0.2764,-0.4941,-1.6257,265.375
20:13:49:663,-2.2995,0.4208,7.6628,34.7237,-0.4642,-0.3053,-1.5591,268.7812
20:13:49:680,-3.1435,0.3585,9.1711,36.4035,-0.514,-0.0132,-1.325,268.7812
20:13:49:704,-3.4966,0.6866,9.9612,35.4052,-0.4053,0.2814,-1.0257,270.6562
20:13:49:723,-3.2656,1.2097,9.5578,35.3799,-0.2527,0.4044,-0.77,272.4219
20:13:49:740,-2.9735,1.6047,9.1065,36.0334,-0.2503,0.2867,-0.6254,273.9219
20:13:49:761,-2.9891,1.673,9.8331,33.5945,-0.4386,0.071,-0.5479,275
20:13:49:780,-3.0166,1.327,11.697,35.1174,-0.6735,-0.0395,-0.4789,275.875
20:13:49:803,-3.0238,0.6782,13.8745,34.2177,-0.8187,0.0327,-0.3727,276.5781
20:13:49:821,-3.3039,0.2831,15.5265,35.7594,-0.8245,0.2231,-0.1535,277.1406
20:13:49:840,-3.013,0.4076,16.4052,34.2415,-0.7273,0.2838,0.1661,277.6562
20:13:49:859,-2.1726,0.2556,17.5448,36.0722,-0.6277,0.1525,0.3808,278.0312
20:13:49:879,-2.1116,-0.6746,19.3333,34.9152,-0.3947,0.1219,0.5091,278.1562
20:13:49:903,-2.7508,-1.7172,19.2902,36.1505,0.2197,0.41,0.8324,277.7188
20:13:49:922,-2.3199,-1.9615,15.1518,37.8188,0.9537,0.7078,1.3909,277.1875
20:13:49:940,-0.2956,-1.2576,10.7728,36.2357,1.3076,0.549,1.8354,276.5
20:13:49:961,1.1158,-0.3142,8.4445,36.0779,1.2733,0.0172,1.8487,275.3125
20:13:49:981,0.9829,0.3454,8.3487,37.4953,1.082,-0.4957,1.6487,273.5312
20:13:50:005,0.8225,0.3274,9.3052,37.2149,1.04,-0.7956,1.5651,271.4844
20:13:50:020,1.2714,0.3933,9.4045,38.5013,1.1862,-0.8813,1.4902,269.6875
20:13:50:039,1.123,0.6949,8.4361,38.1929,1.2653,-0.6443,1.3384,267.9688
20:13:50:060,1.2774,0.7057,7.1157,38.9625,1.1894,-0.2398,1.2085,266.3281
20:13:50:082,1.3337,0.8493,5.8994,39.6561,1.0637,0.0766,1.0644,264.8906
20:13:50:103,1.2798,0.9655,4.8412,41.6236,0.975,0.1451,0.9235,263.5312
20:13:50:122,1.2619,1.0684,4.1098,40.2628,0.9148,-0.0379,0.8037,262.8906
20:13:50:139,1.2499,1.2157,3.8368,40.5289,0.8341,-0.3112,0.6846,261.7188
20:13:50:160,1.1182,1.3545,4.0451,40.1286,0.7044,-0.5237,0.5531,260.75
20:13:50:180,0.8237,1.4695,4.6197,40.7724,0.527,-0.5855,0.4535,259.875
20:13:50:202,0.8524,1.6454,5.4254,41.2294,0.339,-0.5234,0.3912,259.1562
20:13:50:222,0.965,1.9878,6.1592,41.6845,0.1902,-0.4126,0.3259,258.4375
20:13:50:240,1.0284,2.2152,6.5219,42.5691,0.0762,-0.353,0.2513,258.0469
20:13:50:260,1.2008,2.5157,6.8356,41.4982,-0.081,-0.357,0.1832,257.7031
20:13:50:280,2.1094,2.8258,7.5335,43.0854,-0.3425,-0.4869,0.0415,257.4375
20:13:50:303,2.7475,2.8748,9.4476,43.9291,-0.6788,-0.7841,-0.2917,257.25
20:13:50:320,2.5428,1.9148,12.3793,42.9155,-0.9047,-0.8768,-0.6672,257.1562
20:13:50:340,1.791,0.2723,14.3486,44.1067,-0.9103,-0.5098,-0.8057,257.375
20:13:50:360,1.7455,-0.7296,13.841,44.7057,-0.7907,0.108,-0.6163,258.0312
20:13:50:381,2.5835,-0.7105,11.5653,43.1361,-0.7084,0.3951,-0.3828,259.5156
20:13:50:404,3.4909,-0.7775,9.6715,44.506,-0.7619,0.0542,-0.3838,259.9219
20:13:50:423,3.4047,-1.3653,9.9025,47.3547,-1.0458,-0.6353,-0.545,260.6094
20:13:50:482,1.9466,-1.9782,12.9084,46.0432,-1.3936,-0.8126,-0.5964,260.8125
20:13:50:483,0.54,-2.129,15.487,43.4426,-1.3305,-0.158,-0.3617,261.375
20:13:50:483,1.2355,-1.6813,13.7859,47.2056,-0.8208,0.6196,0.0343,262.1094
20:13:50:508,2.8408,-0.5177,10.0953,45.8804,-0.4352,0.7813,0.2588,262.7656
20:13:50:522,3.8943,0.665,7.8914,45.2007,-0.3625,0.2769,0.1667,262.9688
20:13:50:539,3.6573,1.2516,7.8663,46.2197,-0.4264,-0.3471,-0.1508,262.7344
20:13:50:559,2.6206,1.1905,8.5402,47.0359,-0.4522,-0.5735,-0.4541,262.4531
20:13:50:580,1.7838,0.9212,8.5343,46.2719,-0.4032,-0.4203,-0.5745,262.4375
20:13:50:604,1.5444,1.0912,7.8375,47.804,-0.4101,-0.0957,-0.5796,262.8125
20:13:50:621,1.5791,1.4826,7.4724,48.124,-0.5063,0.2404,-0.6051,263.4219
20:13:50:639,1.518,1.7843,7.3419,46.7934,-0.5281,0.4532,-0.6821,264.0938
20:13:50:660,1.3876,2.0201,7.0367,50.0852,-0.4538,0.5062,-0.7684,265.1406
20:13:50:680,1.2463,2.1147,6.6776,47.5491,-0.3672,0.4508,-0.8571,265.8906
20:13:50:705,0.8381,2.1698,6.5207,49.3107,-0.3356,0.3128,-0.9444,266.7812
20:13:50:724,0.5436,2.1949,6.9888,48.7065,-0.3667,0.1344,-0.9681,267.75
20:13:50:739,0.8405,2.256,8.0231,49.7778,-0.4003,0.0191,-0.9151,268.7969
20:13:50:759,1.3349,2.4403,9.0239,51.032,-0.4149,0.0055,-0.913,269.9062
20:13:50:780,1.5264,2.5397,9.899,51.0818,-0.4155,0.1016,-0.9886,270.9531
20:13:50:804,1.2212,2.3984,10.4556,51.2929,-0.3958,0.2542,-1.0994,272
20:13:50:820,0.6238,2.007,10.4424,49.3146,-0.3894,0.3893,-1.1577,273.0781
20:13:50:840,0.1234,1.6095,10.5358,52.587,-0.4256,0.3845,-1.1064,273.7031
20:13:50:860,-0.3327,1.0541,11.29,52.6917,-0.4908,0.2356,-0.9833,275.0156
20:13:50:880,-0.8881,0.4411,12.9204,52.3178,-0.5148,0.0766,-0.7537,276.3438
20:13:50:901,-0.7684,-0.0257,14.5545,52.8855,-0.437,0.1086,-0.4294,277.4844
20:13:50:921,-0.8534,0.076,15.1458,52.0405,-0.2591,0.2425,-0.1098,278.8906
20:13:50:939,-0.614,0.3813,14.8394,54.7514,-0.1971,0.3259,0.115,279.3594
20:13:50:960,-0.6367,-0.5836,15.5493,53.065,-0.2197,0.1757,0.1331,279.5
20:13:50:980,-1.9416,-2.7743,18.9897,53.07,0.7204,-0.6289,0.7166,279.3906
20:13:51:002,-0.6583,-3.1214,17.3437,53.916,1.5462,-0.5671,1.159,279.3906
20:13:51:021,0.7746,-2.8162,13.3346,54.875,1.955,-0.2741,1.3478,279.25
20:13:51:039,1.2762,-2.1925,10.4017,55.4014,1.8195,-0.1642,1.3187,278.9219
20:13:51:060,1.0488,-1.6358,9.5231,53.8574,1.4778,-0.1461,1.246,276.7188
20:13:51:078,0.9949,-1.4371,9.3746,54.4768,1.2743,-0.0526,1.2378,276.7188
20:13:51:100,0.9889,-1.2109,8.3834,54.3303,1.2576,0.1107,1.2572,275.2656
20:13:51:121,0.9231,-0.8649,6.9325,55.3374,1.2653,0.2348,1.2873,272.3281
20:13:51:140,1.1182,-0.6219,5.581,55.0274,1.2661,0.2399,1.3025,270.9062
20:13:51:159,1.2271,-0.3071,4.3276,55.3329,1.2418,0.1163,1.2639,268.0469
20:13:51:180,1.4271,0.1083,3.3688,55.3356,1.1401,-0.0768,1.1898,266.5469
20:13:51:204,1.7814,0.5417,2.8169,55.3815,0.9255,-0.2584,1.0468,265.875
20:13:51:222,1.9825,0.8434,2.8815,55.9215,0.6293,-0.3897,0.8226,264.4531
20:13:51:239,1.8616,0.8074,3.4813,57.531,0.327,-0.4097,0.5696,263.1875
20:13:51:259,1.3624,0.6135,4.3396,54.01,0.0432,-0.3021,0.389,262.625
20:13:51:279,0.8273,0.7895,5.1908,56.0685,-0.1646,-0.1418,0.3549,261.7656
20:13:51:298,0.6968,1.1271,5.9713,54.891,-0.2732,-0.0251,0.4037,261.1562
20:13:51:322,1.0763,1.7232,6.3759,55.2445,-0.331,0.0018,0.4282,260.75
20:13:51:344,1.694,2.1614,6.9325,55.1665,-0.4418,-0.0771,0.3392,260.3594
20:13:51:359,2.3847,2.2272,7.9944,56.6,-0.6266,-0.2638,0.1275,259.4531
20:13:51:379,2.9701,1.7999,10.0498,56.7449,-0.836,-0.5319,-0.1801,259.25
20:13:51:399,2.6349,0.6614,12.784,56.6497,-0.9244,-0.5977,-0.4589,259
20:13:51:422,1.9083,-0.6602,14.0648,57.1478,-0.7747,-0.1751,-0.428,259.0781
20:13:51:438,2.2686,-1.2755,12.6367,56.6169,-0.5353,0.3328,-0.0837,259.5625
20:13:51:459,3.5938,-1.0349,10.5969,56.0126,-0.4716,0.3589,0.242,260.2031
20:13:51:479,5.0303,-0.7584,9.5733,57.7987,-0.6213,-0.1319,0.2532,260.5312
20:13:51:500,5.332,-1.1091,10.4053,57.7987,-0.9188,-0.705,-0.0232,260.4062
20:13:51:518,3.9505,-1.7137,12.3877,57.9233,-1.1502,-0.8201,-0.2664,260.0781
20:13:51:540,2.3907,-1.9112,13.6686,58.1891,-1.1087,-0.4078,-0.1854,259.9844
20:13:51:560,2.775,-1.4491,12.8151,56.7347,-0.8037,0.1211,0.1059,260.2656
20:13:51:580,4.2067,-0.2137,9.9839,56.1631,-0.5667,0.2822,0.1664,260.6719
20:13:51:605,4.8819,1.1079,8.3307,57.8003,-0.7145,-0.059,-0.1521,260.7812
20:13:51:622,4.4138,1.3246,9.3938,55.7098,-1.0354,-0.3418,-0.6805,260.7031
20:13:51:639,2.9258,0.8278,10.6543,56.4729,-1.1215,-0.1889,-1.1391,260.5469
20:13:51:659,1.4295,0.4735,10.2485,57.5481,-0.9811,0.2188,-1.3343,260.7656
20:13:51:680,0.3257,0.4699,8.9496,56.8532,-0.7553,0.5397,-1.3143,262.1719
20:13:51:703,-0.213,0.6279,7.6041,55.0351,-0.5124,0.5837,-1.1471,263.7031
20:13:51:721,-0.1316,1.1283,6.5674,56.3499,-0.3209,0.3996,-0.9404,265.3125
20:13:51:743,0.4418,1.7544,6.2993,55.4147,-0.2253,0.0899,-0.8153,266.7969
20:13:51:759,0.9518,2.0848,6.9038,57.1568,-0.1944,-0.1796,-0.7873,267.9688
20:13:51:779,1.2571,2.1686,8.1524,57.0665,-0.1747,-0.2845,-0.7383,268.9688
20:13:51:800,1.9909,2.3254,9.3926,55.22,-0.1196,-0.145,-0.681,269.8906
20:13:51:820,2.3476,2.311,10.0606,57.2953,-0.0903,0.1624,-0.7484,270.7344
20:13:51:842,1.6342,2.1111,10.6771,57.0163,-0.1262,0.5139,-0.8627,271.5312
20:13:51:859,0.8489,1.5987,11.3678,56.8451,-0.1539,0.8321,-0.8693,272.3281
20:13:51:879,0.1162,1.0265,11.8119,56.9178,-0.0905,1.1051,-0.725,273.25
20:13:51:898,-0.347,0.7009,11.6611,54.508,0.0826,1.1621,-0.4525,274.2812
20:13:51:921,-0.7804,0.5477,11.3127,56.7842,0.2759,0.8788,-0.1513,275.2969
20:13:51:940,-0.8642,-0.1035,11.7796,57.1653,0.4109,0.3144,0.1619,276.0469
20:13:51:959,-0.0574,-0.7093,13.1563,55.3643,0.5332,-0.0797,0.5017,276.4688
20:13:51:978,1.0057,-0.4196,13.6064,54.2645,0.6722,-0.1154,0.7009,276.2969
20:13:51:998,1.463,0.2927,12.9635,54.5618,0.6634,0.0462,0.6599,275.7188
20:13:52:021,1.609,0.4112,12.4967,54.0625,0.3934,0.2404,0.4375,274.9531
20:13:52:038,0.9877,-0.2819,13.3179,54.8025,0.0719,0.2928,0.1898,274.1875
20:13:52:058,-0.1567,-1.2121,14.8107,54.0291,0.0511,0.2819,0.1784,273.6875
20:13:52:079,-0.9959,-1.9459,14.6826,53.8199,0.4447,0.4385,0.4245,273.5
20:13:52:099,-0.8127,-2.0105,11.8993,54.2686,0.9159,0.6534,0.7885,273.2969
20:13:52:122,0.4825,-1.4646,8.5522,53.9318,1.0853,0.6148,1.0276,272.8281
20:13:52:139,1.6485,-0.6518,6.6369,53.2498,0.8709,0.2337,0.9675,272.4219
20:13:52:159,1.8784,0.1897,7.2737,53.7728,0.4639,-0.3421,0.6854,271.4219
20:13:52:179,1.5695,0.1371,9.7182,54.6119,0.1872,-0.627,0.3728,270.25
20:13:52:199,0.8118,-0.4471,11.618,52.5089,0.2091,-0.3263,0.1781,269.3125
20:13:52:222,-0.1663,-0.8398,11.0601,52.9323,0.4898,0.2691,0.197,268.75
20:13:52:239,-0.5494,-0.8613,8.5654,52.5533,0.7715,0.6979,0.4039,268.4844
20:13:52:259,-0.2273,-0.3298,6.2933,53.8197,0.8914,0.7275,0.6553,268.3125
20:13:52:279,0.4742,0.6291,5.6792,51.1928,0.9017,0.4521,0.8098,267.7188
20:13:52:299,1.2535,1.4084,6.0838,53.4031,0.967,0.1395,0.8109,266.9531
20:13:52:321,1.3864,2.0129,6.0634,52.3631,1.1209,-0.112,0.674,266.0312
20:13:52:339,0.6633,2.5002,5.6887,53.0323,1.2549,-0.3556,0.535,265.1719
20:13:52:359,0.2886,2.6055,5.2925,52.4883,1.2714,-0.6406,0.5171,264.4375
20:13:52:379,1.0835,2.6211,5.5906,51.7993,1.0815,-0.8345,0.5784,263.9062
20:13:52:401,3.2574,2.9742,8.3271,52.8729,0.2237,-0.5831,0.2274,263.4062
20:13:52:421,3.1784,2.3517,10.1731,51.4154,-0.1984,-0.259,-0.1332,262.625
20:13:52:439,2.611,1.242,11.6778,52.2106,-0.3955,0.0737,-0.3822,262.625
20:13:52:460,1.7012,0.1071,12.0322,53.5557,-0.3353,0.2678,-0.4291,262.2188
20:13:52:488,1.196,-0.6746,11.1296,52.4756,-0.1979,0.3869,-0.2752,262.8281
20:13:52:537,1.7275,-0.9259,9.2022,49.8795,-0.1904,0.4159,-0.0896,263.2969
20:13:52:537,2.3201,-0.592,7.5083,50.3065,-0.4884,0.1451,-0.0501,263.2969
20:13:52:538,2.4829,-0.161,8.2769,50.6545,-1.0607,-0.423,-0.179,263.5469
20:13:52:560,2.2052,-0.5213,11.9352,50.6228,-1.5121,-0.8686,-0.3601,263.5938
20:13:52:578,0.9602,-0.8206,15.7623,49.6768,-1.4421,-0.6259,-0.3766,263.625
20:13:52:599,0.5472,-0.7799,15.5289,50.7635,-0.824,0.079,-0.1314,263.8906
20:13:52:622,1.6868,0.0006,11.3534,51.7169,-0.2751,0.4737,0.1475,264.3594
20:13:52:640,3.2622,1.2659,8.2314,50.6445,-0.2317,0.2055,0.1517,264.875
20:13:52:657,3.8081,2.0788,8.0985,50.9871,-0.4802,-0.3346,-0.1761,265.0312
20:13:52:678,3.2766,1.9555,9.1986,50.6726,-0.6368,-0.5354,-0.6073,264.8438
20:13:52:699,2.2555,1.2384,9.1651,50.1565,-0.6373,-0.2726,-0.9191,264.6562
20:13:52:719,0.8632,0.823,8.2876,50.1633,-0.6357,0.2106,-0.97,265.6094
20:13:52:740,0.1126,1.0337,7.4976,48.5899,-0.6181,0.5304,-0.815,266.0781
20:13:52:762,0.2479,1.327,6.9337,50.459,-0.4988,0.4987,-0.6629,267.2031
20:13:52:779,0.4526,1.5652,6.4956,47.9954,-0.3326,0.2814,-0.586,268.25
20:13:52:798,0.5711,1.7448,6.0539,50.5021,-0.2013,0.0905,-0.5591,269.0625
20:13:52:821,0.5256,1.9447,5.6959,48.94,-0.1883,0.0095,-0.5876,269.7344
20:13:52:839,0.376,2.0213,5.848,47.8437,-0.3036,0.0183,-0.6384,270.375
20:13:52:858,0.1797,1.8465,6.7745,47.0579,-0.4724,0.0771,-0.6629,271.0156
20:13:52:879,-0.3878,1.6071,8.4744,49.4168,-0.6008,0.2241,-0.6257,271.6875
20:13:52:899,-1.0545,1.4886,10.0414,48.8178,-0.6109,0.4691,-0.5055,272.4375
20:13:52:920,-1.519,1.6227,11.2014,48.8295,-0.5281,0.777,-0.3178,273.1875
20:13:52:938,-1.4615,2.0477,11.6276,50.0476,-0.3795,0.9749,-0.1575,273.7969
20:13:52:958,-1.3754,2.4642,11.4444,48.5266,-0.2277,0.8961,-0.122,274.2812
20:13:52:979,-1.7872,2.2344,11.5473,48.7705,-0.1963,0.5709,-0.1394,274.4375
20:13:52:998,-2.3474,1.7017,12.8103,47.4589,-0.2221,0.193,-0.0557,274.625
20:13:53:021,-2.6491,1.1881,14.2899,48.7947,-0.1926,-0.0377,0.1483,274.7656
20:13:53:039,-2.3666,1.2947,15.256,49.531,-0.1723,-0.0073,0.4229,274.9375
20:13:53:058,-1.519,1.4312,16.076,47.3186,-0.1731,0.0265,0.5746,274.9375
20:13:53:079,-1.0857,0.8661,17.4096,47.7674,-0.0687,-0.0012,0.5664,274.6094
20:13:53:100,-1.8925,-0.3286,18.1123,46.7576,0.3745,-0.0086,0.6239,274
20:13:53:121,-2.4432,-1.1893,16.0437,46.1051,1.0496,0.0417,0.9491,273.3281
20:13:53:139,-1.2964,-1.151,12.5326,47.2634,1.4781,0.0154,1.3299,272.7188
20:13:53:158,0.4538,-0.7249,10.0067,46.1231,1.4781,-0.1634,1.4213,271.8906
20:13:53:178,0.9997,-0.2388,9.4728,46.9078,1.2408,-0.4446,1.2689,270.625
20:13:53:197,0.8489,-0.2376,10.209,46.1469,1.0786,-0.6347,1.0764,269.0938
20:13:53:222,0.6681,-0.9104,10.6986,46.6168,1.094,-0.5801,0.9731,267.6875
20:13:53:240,0.2443,-1.157,10.0857,46.9576,1.2101,-0.2694,1.0143,266.4219
20:13:53:258,0.2168,-1.0828,8.4792,46.8027,1.318,0.0968,1.1294,265.3281
20:13:53:278,0.4191,-0.9224,6.6452,44.4015,1.3404,0.3653,1.2111,264.3125
20:13:53:299,0.619,-0.6853,5.089,45.69,1.2799,0.4785,1.2434,263.125
20:13:53:320,1.0583,-0.3346,3.9984,46.1845,1.167,0.4132,1.2135,261.7969
20:13:53:339,1.3816,0.0724,3.3281,45.813,1.0115,0.2457,1.0956,259.7188
20:13:53:358,1.2726,0.3322,2.8349,46.7141,0.7859,0.0281,0.9217,258.2969
20:13:53:378,1.0464,0.5968,2.9522,43.9,0.4749,-0.1599,0.7557,257.0312
20:13:53:398,0.959,0.8063,3.7626,44.1909,0.1662,-0.268,0.6212,256.0469
20:13:53:422,0.8979,1.2216,4.7335,43.4858,-0.074,-0.3218,0.5166,255.6094
20:13:53:439,1.0236,2.1398,5.6002,44.5745,-0.3249,-0.3194,0.4167,254.875
20:13:53:458,1.6006,3.1957,7.1552,43.6271,-0.7172,-0.1274,0.2069,254.2812
20:13:53:478,2.0256,3.5907,9.3279,44.0966,-1.1462,0.3975,-0.1631,253.8125
20:13:53:498,1.9933,3.3764,11.266,44.0966,-1.4083,1.0183,-0.5703,253.4688
20:13:53:522,1.1972,2.7384,12.1088,46.1477,-1.3998,1.3259,-0.9122,253.4062
20:13:53:539,-0.3135,1.7603,12.5805,45.8906,-1.2045,1.1552,-1.0336,253.7188
20:13:53:557,-1.2269,0.5142,13.1539,44.7845,-0.8783,0.8177,-0.815,254.375
20:13:53:577,-0.6008,-0.3525,12.7301,43.7775,-0.4969,0.5048,-0.3828,255.3281
20:13:53:598,1.117,-0.0952,11.3929,43.4458,-0.2264,0.1546,-0.0914,256.6406
20:13:53:623,2.3728,0.0557,10.1731,45.513,-0.24,-0.2672,-0.2211,256.9844
20:13:53:638,2.0867,-0.8446,10.6076,44.6425,-0.5787,-0.5626,-0.5972,257.0625
20:13:53:657,0.0947,-1.9626,12.8426,44.7701,-0.8863,-0.4318,-0.7849,257.3125
20:13:53:678,-1.2389,-2.651,13.7416,44.4753,-0.7718,0.1453,-0.5615,257.9688
20:13:53:698,-0.7002,-2.2176,11.2625,42.9125,-0.4378,0.6439,-0.1311,258.8438
20:13:53:722,0.9758,-1.0205,8.2769,45.9257,-0.3001,0.5211,0.1331,259.4375
20:13:53:738,2.2004,-0.1251,7.0977,45.0651,-0.4125,-0.035,0.0417,259.5312
20:13:53:758,2.2507,0.2711,7.5598,43.9493,-0.6181,-0.4118,-0.2451,259.3281
20:13:53:777,1.4678,0.3346,8.0243,45.1722,-0.7627,-0.3751,-0.5154,259.25
20:13:53:799,-0.0107,0.404,7.3276,44.1968,-0.8384,0.1267,-0.7021,259.5
20:13:53:822,-0.6212,0.6482,6.9972,43.8431,-0.8123,0.1834,-0.6605,259.5
20:13:53:842,-0.9241,0.8757,7.0008,43.7162,-0.71,0.1168,-0.5777,260.0156
20:13:53:859,-0.9552,1.1462,6.6404,44.5123,-0.5752,0.0513,-0.4904,261.4688
20:13:53:878,-0.7421,1.4312,6.3208,41.7883,-0.5374,-0.0217,-0.4589,261.7969
20:13:53:898,-0.7672,1.5078,6.7003,43.1249,-0.6016,-0.1154,-0.5015,262.7656
20:13:53:921,-0.9241,1.4252,7.8519,44.3624,-0.6565,-0.2246,-0.558,263.2812
20:13:53:939,-1.1383,1.2552,9.1232,43.4606,-0.6546,-0.2611,-0.5908,263.7344
20:13:53:961,-1.3095,0.9762,10.4831,45.9139,-0.6227,-0.1668,-0.5639,264.2656
20:13:53:978,-1.2628,0.8649,11.5916,44.185,-0.5353,0.0561,-0.4864,264.8594
20:13:53:997,-0.9695,0.9284,12.0334,45.4532,-0.3795,0.2617,-0.436,265.4688
20:13:54:018,-0.8846,0.8865,11.8227,44.2902,-0.2794,0.3765,-0.4288,266.0312
20:13:54:040,-1.1778,0.6722,11.9915,45.5474,-0.2932,0.3632,-0.394,266.5781
20:13:54:058,-1.3622,0.3071,13.1203,44.3531,-0.3715,0.275,-0.2334,267.0625
20:13:54:080,-0.9564,0.0006,15.0477,44.7384,-0.3292,0.2798,0.058,267.5469
20:13:54:100,0.1641,0.0509,15.4427,44.7514,-0.0599,0.3432,0.3089,268.0156
20:13:54:120,0.6813,0.3813,14.2576,46.0802,0.1385,0.2739,0.3651,268.2812
20:13:54:142,1.0021,0.5094,14.0924,45.4096,0.0879,0.0612,0.2716,268.2188
20:13:54:162,0.6561,-0.2065,15.3446,45.7623,0.0501,-0.1271,0.0324,267.7031
20:13:54:180,-1.1814,-1.3114,16.5644,46.4434,0.2818,-0.2267,-0.0683,267.3438
20:13:54:197,-2.6239,-2.2344,16.234,45.8893,0.8298,-0.1543,0.2226,267.1719
20:13:54:218,-2.2229,-2.2691,13.2867,45.104,1.4208,-0.0829,0.7224,267.2188
20:13:54:238,-0.4416,-1.497,10.1037,46.4556,1.652,-0.2755,1.0157,267.2188
20:13:54:258,0.6813,-0.7165,8.879,44.9679,1.4743,-0.5652,0.9227,266.7656
20:13:54:280,0.5628,-0.3382,9.5566,46.5047,1.2016,-0.7583,0.6908,265.8594
20:13:54:297,0.2862,-0.6686,10.5382,47.1747,1.1281,-0.8078,0.5086,264.8125
20:13:54:321,-0.1052,-0.9367,10.5107,47.5604,1.244,-0.6915,0.4354,263.9688
20:13:54:339,-0.128,-0.8912,9.3435,46.8274,1.3931,-0.4805,0.4545,263.375
20:13:54:358,0.1091,-0.7955,7.816,48.4404,1.4794,-0.3242,0.4625,262.9219
20:13:54:378,0.2611,-0.7332,6.3591,47.077,1.4717,-0.2313,0.4362,262.4844
20:13:54:397,0.3593,-0.7129,5.253,46.6186,1.4046,-0.1876,0.4047,262.0156
20:13:54:421,0.4646,-0.7224,4.3121,46.9904,1.2996,-0.1823,0.3845,261.8125
20:13:54:439,0.5508,-0.6351,3.5495,47.9392,1.1465,-0.2102,0.38,261.5938
20:13:54:457,0.7818,-0.404,3.0072,49.3364,0.9305,-0.2651,0.3712,261.1719
20:13:54:478,1.0943,-0.0712,2.7858,47.5237,0.6645,-0.3343,0.3238,260.4219
20:13:54:499,1.3097,0.2173,2.921,46.6692,0.3651,-0.3892,0.2407,260.0312
20:13:54:521,1.4606,0.483,3.1904,48.0561,0.0692,-0.4323,0.135,259.6875
20:13:54:539,1.5564,0.6949,3.6788,48.282,-0.2352,-0.4891,0.0087,259.4375
20:13:54:590,1.6749,0.5956,4.4533,49.5265,-0.5558,-0.5487,-0.1327,259.2656
20:13:54:590,1.8353,0.3514,5.4972,49.0773,-0.9481,-0.6741,-0.2824,259.25
20:13:54:601,1.9131,-0.0557,7.7705,49.1036,-1.4133,-0.856,-0.4299,259.375
20:13:54:626,1.6378,-0.6722,11.3235,50.0789,-1.7689,-0.8792,-0.5386,259.6875
20:13:54:638,1.7359,-1.8753,14.7101,49.0364,-1.8245,-0.6292,-0.5175,260.2031
20:13:54:657,2.7917,-3.216,15.9706,48.0969,-1.6413,-0.1532,-0.3316,260.8906
20:13:54:678,4.02,-3.2998,14.8346,50.7076,-1.5942,0.3589,-0.0983,261.5938
20:13:54:698,4.8771,-2.4307,14.0996,51.7755,-1.8717,0.5642,-0.0925,262.1875
20:13:54:717,4.427,-2.1913,15.6127,48.5581,-2.1857,0.536,-0.3588,262.4844
20:13:54:740,2.0136,-2.3984,17.7759,50.0738,-2.0759,0.6857,-0.5109,262.5781
20:13:54:757,0.1174,-2.3529,17.4359,51.2849,-1.3593,0.9602,-0.2163,262.875
20:13:54:777,0.9147,-1.7472,14.0852,52.9823,-0.4818,0.9544,0.3118,263.7969
20:13:54:798,3.036,-0.5549,10.4077,53.3991,0.0874,0.4817,0.589,264.1094
20:13:54:822,4.3169,1.0708,8.4301,50.8815,0.2698,-0.2832,0.4015,263.8125
20:13:54:839,4.3408,2.1518,8.1703,49.3309,0.2115,-0.8379,-0.1242,263.1719
20:13:54:857,3.4705,2.1422,8.6348,50.8804,0.0701,-0.8715,-0.7258,262.6875
20:13:54:878,2.119,1.4287,8.721,52.661,-0.0288,-0.4446,-1.1817,262.7969
20:13:54:897,0.7746,1.0098,8.162,51.8044,-0.0993,0.201,-1.39,263.5625
20:13:54:918,0.0037,0.7835,7.6316,51.781,-0.1222,0.7365,-1.423,264.1719
20:13:54:939,-0.4033,0.7811,6.8715,51.6639,-0.0344,1.0372,-1.3719,265.6719
20:13:54:958,-0.6391,0.8924,5.9904,51.8612,0.0831,1.054,-1.3085,267.25
20:13:54:977,-0.8642,1.0445,5.5116,53.1907,0.1659,0.8726,-1.2581,268.9219
20:13:54:998,-1.1683,0.9499,5.3284,50.6135,0.1822,0.5972,-1.2251,270.5312
20:13:55:022,-1.5226,0.9032,5.7929,51.3848,0.1081,0.2905,-1.1812,271.9688
20:13:55:039,-1.7812,0.5668,6.8918,53.845,0.0051,0.01,-1.0997,273.4375
20:13:55:056,-2.029,0.258,8.5319,53.5231,-0.0796,-0.1572,-0.958,275.5312
20:13:55:078,-2.0613,0.1443,10.1934,52.1941,-0.0629,-0.1905,-0.7505,276.7188
20:13:55:097,-1.8638,0.1323,11.211,54.7705,0.0554,-0.1138,-0.5263,277.8125
20:13:55:119,-1.434,0.1191,11.0529,52.7276,0.1289,0.0785,-0.3082,278.6562
20:13:55:138,-0.9743,0.2484,10.8578,53.7271,0.0202,0.2186,-0.1319,279.2188
20:13:55:158,-0.5853,0.2304,11.6359,52.3417,-0.18,0.2308,0.0127,279.5781
20:13:55:178,-0.3051,0.0305,13.1419,55.0169,-0.2831,0.1927,0.1698,279.75
20:13:55:198,0.2527,-0.1155,14.4982,54.6133,-0.0581,0.1472,0.5517,279.75
20:13:55:221,0.9398,0.2065,14.3486,53.8498,0.0274,0.0385,0.6516,279.75
20:13:55:240,0.9686,0.1359,14.9591,55.3242,0.0538,-0.1306,0.5997,279.5625
20:13:55:257,0.0791,-0.2041,16.0556,56.2046,0.208,-0.2464,0.6117,278.5312
20:13:55:278,-0.4081,-0.647,16.1634,54.2643,0.6059,-0.1157,0.7829,278.5312
20:13:55:297,-0.0526,-0.8996,13.6962,54.0688,1.0735,0.0998,1.0007,277.8281
20:13:55:320,0.7351,-0.6961,10.5885,54.5806,1.2791,0.0305,1.1182,276.4219
20:13:55:338,0.9901,-0.2304,9.219,55.5067,1.1755,-0.4137,1.058,275.0625
20:13:55:357,0.6011,0.0449,10.1491,55.4077,1.0184,-0.7887,0.9451,274.4844
20:13:55:378,0.7244,-0.4256,10.9332,55.7719,1.0725,-0.8177,0.8854,273.2344
20:13:55:397,0.455,-0.5369,10.0199,55.3867,1.2626,-0.6102,0.8524,272.0625
20:13:55:419,0.4861,-0.3346,8.4612,55.0261,1.3857,-0.3426,0.8732,271.0469
20:13:55:441,0.6944,-0.1431,6.65,54.0705,1.4312,-0.1567,0.8463,270.0469
20:13:55:458,0.7136,0.0569,5.1165,55.0807,1.3662,-0.1303,0.7834,269.0938
20:13:55:480,0.6537,0.0808,4.2402,56.7767,1.2197,-0.2238,0.7163,268.1719
20:13:55:496,0.4969,0.0724,3.9948,54.5249,1.0559,-0.3554,0.6679,267.2031
20:13:55:517,0.3114,-0.0557,3.9182,54.5249,0.9034,-0.4414,0.6607,266.2969
20:13:55:537,0.2216,-0.094,3.7794,55.3924,0.7388,-0.4566,0.7009,265.5312
20:13:55:557,0.4371,0.0569,3.7243,54.8987,0.5175,-0.4483,0.7438,264.7812
20:13:55:577,0.953,0.422,4.2642,55.6152,0.2208,-0.4558,0.7416,264.0625
20:13:55:596,1.6018,0.7823,5.6373,55.0127,-0.0631,-0.4755,0.6458,263.2969
20:13:55:618,2.2004,0.8889,7.2402,56.5031,-0.2455,-0.4409,0.4633,262.5156
20:13:55:639,2.3991,0.8577,8.454,56.1884,-0.3662,-0.3772,0.2159,261.3594
20:13:55:657,2.2997,0.4687,9.395,57.3986,-0.5159,-0.3269,-0.0267,260.7812
20:13:55:677,2.3392,-0.0904,10.6663,55.8316,-0.714,-0.244,-0.1942,260.4688
20:13:55:697,2.1393,-0.7236,12.0118,56.7371,-0.8551,-0.063,-0.2581,260.4375
20:13:55:719,2.3009,-1.0744,12.675,55.6945,-0.8671,0.2356,-0.1476,260.6406
20:13:55:738,3.0946,-0.9343,11.8849,55.8649,-0.8213,0.4699,-0.0022,260.9688
20:13:55:756,4.1205,-0.3154,10.7896,55.9535,-0.8488,0.369,0.0308,261.2812
20:13:55:777,5.0471,0.0222,10.5394,55.6717,-1.0168,-0.0502,-0.1772,261.375
20:13:55:797,4.8412,-0.1,11.9987,56.5546,-1.3204,-0.4451,-0.5255,261.3438
20:13:55:816,3.364,-0.75,14.6574,54.3046,-1.4877,-0.3463,-0.7721,261.4219
20:13:55:837,1.3085,-1.2085,15.9503,57.0374,-1.2693,0.2572,-0.6802,261.9062
20:13:55:857,0.953,-1.0528,13.9966,56.5919,-0.7835,0.8114,-0.2568,262.7812
20:13:55:878,2.3931,-0.2747,11.0529,56.2267,-0.4037,0.7405,0.128,263.7188
20:13:55:898,3.7327,0.568,9.4824,55.3805,-0.2471,0.2319,0.1901,264.3281
20:13:55:922,3.9194,1.1091,9.1172,56.9701,-0.1899,-0.1799,0.0228,264.3906
20:13:55:939,3.4944,1.3354,8.7126,55.239,-0.1494,-0.1769,-0.1878,264.2969
20:13:55:957,3.0886,1.4347,7.4964,56.1272,-0.1148,0.1203,-0.3745,264.0625
20:13:55:977,2.5775,1.4814,5.8228,55.5344,-0.1417,0.4553,-0.5572,264.1562
20:13:55:997,2.131,1.4754,4.2881,56.8163,-0.2487,0.6558,-0.6967,264.4688
20:13:56:022,1.8472,1.6945,3.4693,55.3869,-0.4242,0.601,-0.8161,265.0156
20:13:56:041,1.5073,1.9279,3.8572,55.3869,-0.6394,0.3488,-0.9647,265.75
20:13:56:056,1.1948,1.7711,5.4206,55.2688,-0.7864,0.1189,-1.093,266.6406
20:13:56:077,0.8441,1.479,7.0343,56.6736,-0.8229,0.0388,-1.1615,267.625
20:13:56:097,0.2323,1.3198,8.5474,57.5352,-0.8208,0.0926,-1.1631,268.8281
20:13:56:118,-0.2656,1.2504,9.717,55.4382,-0.816,0.2862,-1.109,270.1406
20:13:56:140,-0.5865,1.3162,10.7992,55.0562,-0.8376,0.5421,-1.0581,271.4375
20:13:56:156,-0.6367,1.2384,11.7904,56.2975,-0.8583,0.8313,-1.0454,272.7656
20:13:56:177,-1.4196,0.744,12.5374,56.198,-0.8053,0.9962,-1.0083,274.0469
20:13:56:196,-2.2876,0.0413,13.3023,55.9688,-0.5957,0.7602,-0.7644,275.2969
20:13:56:217,-2.7939,-0.5836,14.673,55.5148,-0.1723,0.1064,-0.3029,277.1094
20:13:56:239,-2.1391,-0.8709,15.56,55.1663,0.3545,-0.4662,0.2641,278.0469
20:13:56:258,-0.675,-0.6722,15.3565,55.2845,0.6954,-0.5703,0.7467,278.4062
20:13:56:277,1.0643,0.1682,14.3498,55.6178,0.7643,-0.4496,0.9837,278.3281
20:13:56:297,2.4063,0.2532,14.2121,54.1302,0.5731,-0.3799,0.8492,277.6719
20:13:56:316,1.1745,-0.4399,15.6355,54.7884,0.4703,-0.3801,0.6228,276.5938
20:13:56:339,0.0588,-1.2875,16.5836,54.6908,0.7425,-0.2457,0.7525,275.5156
20:13:56:359,0.558,-1.7089,14.7807,53.9773,1.2253,0.0803,1.046,274.6719
20:13:56:377,1.8209,-1.3425,11.3367,52.3287,1.4855,0.1448,1.1944,273.9062
20:13:56:396,2.6792,-0.8972,9.3136,54.9529,1.3604,-0.203,1.0828,272.875
20:13:56:419,2.2279,-0.5656,9.8487,52.0703,1.0586,-0.599,0.8162,271.6094
20:13:56:438,1.3923,-0.9511,11.6395,52.7941,0.9281,-0.6507,0.6247,269.6719
20:13:56:456,0.4694,-1.4,11.8502,52.2643,1.0879,-0.3144,0.6037,268.7344
20:13:56:477,0.0037,-1.4515,9.9109,53.8595,1.3412,0.1016,0.7464,268.0469
20:13:56:496,0.0241,-1.2348,7.6424,52.0779,1.5252,0.2359,0.9246,267.3281
20:13:56:518,0.1474,-1.0564,5.8994,52.0094,1.6645,0.0252,1.0724,266.4531
20:13:56:537,0.2467,-0.8158,4.8436,50.5739,1.7849,-0.435,1.1898,265.4062
20:13:56:556,0.6609,-0.4854,4.2654,51.0249,1.8552,-0.949,1.25,264.1406
20:13:56:577,1.3337,-0.0664,4.0308,48.7443,1.7758,-1.2526,1.1896,262.7656
20:13:56:640,2.1142,0.1454,4.172,50.3163,1.0778,-0.7684,0.8149,261.4375
20:13:56:640,2.0124,0.264,4.3815,50.9311,0.5771,-0.2358,0.6838,261.4375
20:13:56:641,2.4326,0.6291,4.8627,49.7066,0.1659,0.0803,0.5837,259.0312
20:13:56:661,2.8863,0.9272,5.672,49.5051,-0.0903,0.1059,0.4319,258.1406
20:13:56:678,3.3915,1.0373,6.4238,49.9978,-0.2181,-0.0366,0.2489,256.6875
20:13:56:698,3.8033,0.8709,6.8667,49.7449,-0.3587,-0.2209,0.0271,256.1875
20:13:56:721,3.7901,0.5453,7.7406,50.5902,-0.6496,-0.3197,-0.1796,256.0156
20:13:56:739,3.6357,0.179,9.2513,48.3435,-1.0392,-0.1966,-0.3133,255.9219
20:13:56:757,3.5016,-0.1203,10.8878,48.9957,-1.3497,0.1437,-0.3394,255.9688
20:13:56:776,4.0619,-0.4986,11.6455,49.6999,-1.4594,0.4572,-0.28,256.2812
20:13:56:796,4.8161,-0.2137,11.4121,49.1681,-1.4775,0.4998,-0.2624,256.7812
20:13:56:816,5.2985,0.1981,11.375,49.0965,-1.5406,0.2074,-0.3985,257.25
20:13:56:840,5.0603,0.0617,12.5637,48.4168,-1.645,-0.2025,-0.6608,257.6562
20:13:56:858,3.9541,-0.4651,14.6311,48.1894,-1.714,-0.2142,-0.8648,258.0469
20:13:56:876,2.0364,-0.7643,16.1957,49.0222,-1.5513,0.3078,-0.8288,258.5781
20:13:56:896,1.3085,-0.8446,15.408,48.8882,-1.1052,0.8772,-0.5146,259.4844
20:13:56:918,2.2854,-0.319,12.8295,49.2429,-0.6496,1.0385,-0.1431,260.6406
20:13:56:940,3.7315,0.4387,10.9033,49.5833,-0.3473,0.6785,0.0087,261.6562
20:13:56:957,4.2989,0.9032,10.039,47.5903,-0.1475,0.1506,-0.0965,262.3125
20:13:56:976,3.8273,1.0948,9.4081,48.6367,-0.0011,-0.092,-0.2925,262.5312
20:13:56:996,3.0707,1.0924,8.2924,47.4382,0.1015,0.0124,-0.435,262.6406
20:13:57:016,2.6002,1.2229,6.6093,49.2072,0.1398,0.2409,-0.5279,262.7812
20:13:57:039,2.4506,1.5018,5.0387,49.154,0.0602,0.4018,-0.6288,263.2031
20:13:57:056,2.4099,1.7663,4.1098,49.3067,-0.1193,0.381,-0.7695,263.7188
20:13:57:076,2.2088,1.9998,4.0415,46.8554,-0.3198,0.238,-0.9372,264.375
20:13:57:096,1.9239,2.0441,4.6137,49.5799,-0.4748,0.0542,-1.1095,265.1562
20:13:57:116,1.5396,1.8118,5.423,49.6189,-0.6011,-0.0632,-1.2502,266.1406
20:13:57:139,1.0117,1.6442,6.6787,47.1889,-0.7361,-0.0422,-1.3,267.2812
20:13:57:157,0.5041,1.6191,8.1883,48.0965,-0.8184,0.0931,-1.2472,268.6562
20:13:57:181,0.2,1.752,9.8606,48.234,-0.8037,0.2769,-1.1237,270.1562
20:13:57:196,0.0612,1.9196,11.2277,48.8226,-0.6373,0.43,-1.0081,271.5938
20:13:57:221,-0.3746,2.0153,11.7652,48.2907,-0.4045,0.5283,-0.9045,272.9844
20:13:57:240,-0.8391,1.8429,11.9436,47.2003,-0.2093,0.5498,-0.7612,274.2344
20:13:57:257,-1.0653,1.5712,12.2105,48.6929,-0.0533,0.4244,-0.5766,275.3594
20:13:57:276,-0.62,1.1522,12.7468,46.9504,0.0037,0.2097,-0.3697,275.8438
20:13:57:298,0.1952,0.6662,13.9487,48.0888,-0.0423,0.0494,-0.2187,276.3125
20:13:57:319,0.6047,0.1383,15.5648,48.8604,-0.0791,0.0524,-0.1165,277.6562
20:13:57:339,0.6549,-0.1945,16.4411,48.1903,-0.0125,0.2851,0.0085,277.9688
20:13:57:356,0.6382,-0.4363,15.8258,47.478,0.1169,0.5434,0.1211,278.1719
20:13:57:377,0.0157,-0.7141,14.8418,48.6358,0.2559,0.479,0.2423,278.2344
20:13:57:396,-0.5134,-0.9248,14.7783,48.3778,0.4599,0.2979,0.4948,278.1875
20:13:57:416,-0.4189,-1.0457,13.7452,49.0029,0.8133,0.1978,0.7589,278.0156
20:13:57:439,0.1928,-1.1079,11.618,49.9373,1.0639,0.1869,0.9704,277.625
20:13:57:457,0.8489,-0.9403,9.8139,48.5117,1.0996,0.0151,1.0676,276.9219
20:13:57:480,1.0572,-0.5788,9.2872,49.0185,0.9912,-0.3333,1.0601,275.9688
20:13:57:496,0.8572,-0.3214,9.8535,49.7738,0.8876,-0.5583,0.9946,274.8125
20:13:57:516,0.8596,-0.3956,10.0893,50.5418,0.8727,-0.4816,0.9621,273.5938
20:13:57:540,0.777,-0.4794,9.5626,50.5418,0.9428,-0.325,0.948,272.4688
20:13:57:558,0.5639,-0.4196,8.5366,49.2604,1.0493,-0.2092,0.985,271.375
20:13:57:576,0.6202,-0.3561,7.312,50.787,1.1457,-0.1623,1.0543,270.2812
20:13:57:595,0.9039,-0.1826,6.2502,50.6774,1.1867,-0.154,1.0822,269.1875
20:13:57:615,1.2008,-0.0054,5.4745,49.5554,1.1588,-0.1418,1.0631,267.4531
20:13:57:639,1.4211,0.2113,4.9429,49.2237,1.0884,-0.104,1.0189,266.2031
20:13:57:655,1.5779,0.4699,4.4928,49.2097,1.0109,-0.0936,0.9653,265.0469
20:13:57:675,1.7527,0.8685,3.9733,49.4725,0.935,-0.1532,0.9185,263.8594
20:13:57:696,2.125,1.4347,3.7123,50.5104,0.8062,-0.3149,0.8689,262.7344
20:13:57:717,2.3596,2.1841,3.8081,50.2334,0.6176,-0.5106,0.7781,261.6719
20:13:57:743,2.7666,2.8892,4.4414,49.7701,0.4218,-0.7509,0.6694,260.75
20:13:57:757,3.5962,3.4231,5.5331,51.7251,0.2495,-0.9634,0.4846,259.8906
20:13:57:776,4.7023,3.4255,6.4034,50.7765,0.0839,-1.2193,0.1547,259.2188
20:13:57:796,5.265,2.7575,8.2194,51.5011,-0.2605,-1.5453,-0.2762,258.9531
20:13:57:816,4.8244,1.3366,11.8407,50.0011,-0.6597,-1.378,-0.6062,258.7188
20:13:57:839,3.7937,-0.0114,14.4312,49.0531,-0.796,-0.549,-0.6853,259
20:13:57:856,4.1457,-1.1007,13.5309,48.8754,-0.7233,0.4249,-0.5761,259.7969
20:13:57:876,4.7323,-1.5748,11.0087,49.137,-0.7619,0.8833,-0.4986,260.75
20:13:57:896,4.8208,-1.2779,9.4057,50.6842,-0.9406,0.6215,-0.5175,261.8906
20:13:57:916,4.3157,-1.0313,9.7757,50.976,-1.1369,-0.0078,-0.6882,262.4375
20:13:57:941,3.115,-1.2097,10.9225,49.4973,-1.2565,-0.3636,-0.9109,263.0312
20:13:57:957,1.7539,-1.8812,11.8323,48.1607,-1.3263,-0.1527,-0.9724,263.9219
20:13:57:978,0.9303,-2.3218,11.8933,48.5003,-1.3396,0.3296,-0.7639,265.0938
20:13:57:996,2.356,-1.2264,11.0709,51.6534,-1.3401,0.3954,-0.195,266.2812
20:13:58:016,2.7391,-0.3154,12.0549,49.5731,-1.224,0.0726,-0.1199,266.2812
20:13:58:039,2.5954,0.2089,11.9999,49.529,-0.906,-0.0534,-0.1332,267.25
20:13:58:056,2.1345,0.6315,10.3407,49.5322,-0.6296,0.0859,-0.1308,267.8125
20:13:58:076,1.7802,1.3366,8.5809,49.6782,-0.5246,0.2974,-0.0903,268.3438
20:13:58:096,2.034,1.9267,7.4042,51.0486,-0.482,0.3983,-0.032,268.5625
20:13:58:115,2.5499,2.5816,6.6728,51.7645,-0.4202,0.356,-0.0355,268.7656
20:13:58:140,2.8815,3.0065,6.2394,48.538,-0.3409,0.2295,-0.1359,268.9062
20:13:58:159,3.036,3.2926,5.9102,50.346,-0.2724,0.103,-0.3103,269.0469
20:13:58:176,3.0443,3.3441,5.7666,50.2584,-0.2557,0.0116,-0.5492,269.125
20:13:58:196,2.6254,3.0077,5.9749,51.118,-0.3036,-0.0392,-0.8089,269.5938
20:13:58:215,1.7323,2.3098,6.7135,49.9078,-0.4171,-0.0259,-0.9814,269.5938
20:13:58:236,0.9482,1.6323,8.0913,50.951,-0.5271,0.0851,-0.9814,270.2344
20:13:58:256,0.394,1.4132,9.4895,51.4376,-0.5737,0.2457,-0.8746,271.1875
20:13:58:275,0.3281,1.2731,10.8889,50.4607,-0.5167,0.3304,-0.7426,272.2812
20:13:58:295,0.5005,0.9224,11.9244,50.3356,-0.3478,0.3394,-0.635,273.4375
20:13:58:315,0.5639,0.5525,12.1327,49.7361,-0.1888,0.3432,-0.5396,274.4688
20:13:58:339,0.3197,0.1873,12.5218,49.0645,-0.1385,0.2731,-0.4379,275.3281
20:13:58:359,0.2802,-0.3729,13.7811,48.0423,-0.1212,0.198,-0.3058,276.0938
20:13:58:375,0.0731,-0.9224,15.2644,49.1494,-0.0195,0.218,-0.1489,276.7344
20:13:58:395,-0.5865,-1.1666,16.0808,50.1254,0.1539,0.2974,0.0889,277.2656
20:13:58:415,-0.7565,-0.6865,15.8773,50.6686,0.2855,0.3919,0.4119,277.6094
20:13:58:436,-0.0801,-0.1131,15.6031,50.4325,0.3372,0.3512,0.6386,277.7969
20:13:58:457,0.2288,-0.0616,15.8964,51.1944,0.4157,0.153,0.7094,277.5312
20:13:58:476,-0.2273,-0.3801,15.9551,50.7768,0.6559,0.0683,0.7762,276.9219
20:13:58:498,-0.6966,-0.8577,14.2911,50.1561,1.0261,0.2249,0.9392,276.1406
20:13:58:515,-0.6056,-1.0086,11.3043,52.8132,1.2852,0.4375,1.1749,275.2812
20:13:58:536,0.1007,-0.8733,8.6899,50.1948,1.2978,0.4297,1.3563,274.3438
20:13:58:556,0.6932,-0.6554,7.482,51.5185,1.1553,0.0795,1.4207,273.125
20:13:58:575,0.9961,-0.1981,7.7478,51.0266,1,-0.4379,1.3917,271.6562
20:13:58:598,0.9554,0.0832,8.9125,51.5877,0.9406,-0.7772,1.3206,270.1094
20:13:58:615,1.3469,-0.2963,9.7804,50.461,1.0051,-0.68,1.254,268.4844
20:13:58:640,1.1912,-0.5453,9.3423,49.7777,1.1369,-0.2403,1.192,266.9219
20:13:58:683,0.7986,-0.3669,7.7382,51.8092,1.2474,0.1882,1.1989,265.4531
20:13:58:684,0.9339,-0.2233,6.0946,50.7699,1.2666,0.3285,1.2034,264.1094
20:13:58:696,1.1039,-0.0688,4.9645,51.8997,1.1691,0.2332,1.156,262.7031
20:13:58:717,1.2547,-0.0018,4.7742,54.1363,0.9758,0.0502,1.082,261.25
20:13:58:742,1.4546,0.1035,5.2937,51.26,0.8325,-0.1341,0.9936,259.9062
20:13:58:759,1.6018,0.2364,5.4972,50.3694,0.7872,-0.2805,0.8591,259.2188
20:13:58:777,1.7682,0.3154,5.2482,51.0154,0.7324,-0.3719,0.6868,256.7812
20:13:58:796,1.9454,0.4854,4.9585,51.9527,0.5851,-0.4536,0.4955,256.3281
20:13:58:815,2.0005,0.6387,5.3117,51.9983,0.3473,-0.5711,0.3113,255.4375
20:13:58:836,2.113,0.5549,6.5614,49.6483,0.1124,-0.6004,0.1794,254.7812
20:13:58:857,2.0879,0.3837,7.7992,51.3778,-0.0439,-0.4257,0.1014,254.3594
20:13:58:875,2.0328,0.1263,8.3511,51.2673,-0.2288,-0.186,0.0876,254.1719
20:13:58:895,2.0962,-0.0365,9.1484,51.6131,-0.575,0.01,0.1302,254.0938
20:13:58:915,2.4099,-0.0269,10.871,51.9425,-0.9582,0.2161,0.2117,254.0469
20:13:58:935,3.2048,-0.1443,12.0382,52.266,-1.1153,0.4931,0.2977,253.9844
20:13:58:955,4.2235,0.0664,11.5138,50.2383,-1.1265,0.6324,0.3011,253.8281
20:13:58:979,4.767,0.6267,10.7345,50.6484,-1.2192,0.4952,0.1443,253.5781
20:13:58:995,4.5683,0.6794,11.0697,50.7971,-1.3819,0.1176,-0.1612,253.25
20:13:59:015,3.4933,0.2257,12.5434,51.0563,-1.4666,-0.1991,-0.4291,253
20:13:59:036,1.6952,-0.4315,14.0768,51.748,-1.343,-0.1114,-0.4512,253.2344
20:13:59:057,0.637,-0.6446,14.1139,51.0693,-0.9553,0.2484,-0.1236,253.7812
20:13:59:075,1.7407,-0.3346,12.1303,52.0268,-0.4541,0.394,0.3163,254.375
20:13:59:095,3.4083,0.2975,9.6152,53.5928,-0.0898,0.103,0.5272,254.5781
20:13:59:116,4.4533,0.847,7.7561,49.9087,-0.0005,-0.4752,0.446,254.2344
20:13:59:135,4.3228,1.2336,7.5263,52.012,-0.1947,-0.9144,0.1829,253.6562
20:13:59:157,3.6022,1.1678,8.393,51.6696,-0.3902,-0.961,-0.0778,253.1562
20:13:59:175,2.6421,0.914,8.6492,50.7656,-0.4088,-0.6547,-0.2267,252.9844
20:13:59:195,2.0208,0.9092,7.5622,50.756,-0.3385,-0.1908,-0.2491,253.0938
20:13:59:216,2.0172,1.2528,6.1125,49.5584,-0.3614,0.1711,-0.2517,253.2344
20:13:59:241,2.2459,1.5748,5.4397,52.8529,-0.4879,0.3285,-0.3146,253.5469
20:13:59:259,2.2148,1.813,5.4469,51.5691,-0.5894,0.3118,-0.4312,253.8594
20:13:59:279,2.0843,1.9004,5.7677,50.883,-0.6283,0.173,-0.566,254.2031
20:13:59:295,1.9227,1.8645,6.3495,50.9151,-0.6722,0.0553,-0.6818,254.6719
20:13:59:315,1.7694,1.6993,7.2091,51.3082,-0.7646,-0.018,-0.7801,255.2969
20:13:59:335,1.3971,1.4934,8.721,50.2412,-0.8599,-0.0097,-0.8182,256.4531
20:13:59:356,0.9243,1.3318,10.5466,50.0407,-0.857,0.0835,-0.7833,257.4062
20:13:59:375,0.2802,1.0229,12.4188,50.1054,-0.7183,0.3091,-0.6752,258.4219
20:13:59:395,-0.1304,0.7464,13.4771,50.4224,-0.4389,0.6279,-0.4525,259.3438
20:13:59:416,0.9853,0.8697,12.4105,50.3939,-0.013,0.6423,-0.0784,260.1875
20:13:59:441,1.4785,0.8673,13.1203,50.13,-0.0661,0.4391,-0.1127,260.1875
20:13:59:457,1.3744,0.3957,14.0661,50.8581,-0.1366,0.4686,-0.2315,260.7656
20:13:59:476,0.534,-0.2711,14.327,48.1423,-0.2035,0.626,-0.2818,261.0469
20:13:59:495,-0.1004,-0.6865,14.7759,49.9766,-0.3116,0.6026,-0.1681,261.3281
20:13:59:515,-0.6308,-1.1211,16.7272,48.3746,-0.2834,0.3139,0.0188,261.6406
20:13:59:536,-0.7768,-1.9531,18.5935,48.3746,0.1372,0.2044,0.3014,261.9844
20:13:59:559,-0.6774,-2.6737,16.6063,48.0645,0.8245,0.4489,0.6527,262.2344
20:13:59:576,-0.0885,-2.8784,12.6391,48.0645,1.2307,0.5267,1.0058,261.9375
20:13:59:595,0.71,-2.6665,9.9696,47.8393,1.2456,0.2215,1.2463,261.625
20:13:59:616,0.7627,-1.9339,9.3219,47.8502,1.0669,-0.219,1.3459,261.2031
20:13:59:634,0.9374,-1.5437,9.966,48.1104,0.9526,-0.4702,1.3779,259.3594
20:13:59:656,1.0033,-1.2576,9.9947,47.4216,1.0301,-0.492,1.3888,258.625
20:13:59:674,1.0607,-0.9044,9.067,47.201,1.1801,-0.3977,1.4266,257.1562
20:13:59:694,1.6785,-0.7129,7.6831,46.7284,1.2749,-0.3162,1.4359,255.5469
20:13:59:715,1.7682,-0.4268,6.504,45.5805,1.2882,-0.2757,1.3627,253.9375
20:13:59:734,1.7443,-0.1981,5.6899,44.2353,1.2738,-0.2614,1.2849,252.3594
20:13:59:756,1.8233,-0.2233,4.992,44.6343,1.2592,-0.2611,1.2021,250.6875
20:13:59:774,1.8568,-0.2568,4.342,45.03,1.1974,-0.2702,1.1235,249.0938
20:13:59:794,1.7563,-0.2711,4.0786,46.0845,1.0493,-0.2766,1.0641,247.6562
20:13:59:815,1.8461,-0.0796,4.2103,44.3444,0.8565,-0.26,1.0348,246.25
20:13:59:836,2.3273,0.1526,4.5132,44.0275,0.6741,-0.2888,0.9563,244.9375
20:13:59:857,2.6529,0.2747,5.071,43.802,0.506,-0.3737,0.7984,243.1406
20:13:59:875,2.8456,0.2628,5.684,42.9989,0.3239,-0.4166,0.6127,241.9688
20:13:59:899,2.9773,0.076,6.3639,42.1468,0.0698,-0.3437,0.4194,240.9531
20:13:59:914,3.2227,-0.2436,7.1731,43.2957,-0.261,-0.2105,0.2268,240.1562
20:13:59:936,3.6417,-0.6913,8.1703,40.7398,-0.641,-0.1476,0.0335,239.625
20:13:59:957,3.9242,-1.0421,9.8235,41.0589,-1.0123,-0.1647,-0.1601,239.2969
20:13:59:980,3.9518,-1.4228,11.8586,41.5513,-1.2602,-0.0531,-0.3066,239.2031
20:13:59:996,4.2857,-2.0668,12.784,42.5869,-1.2972,0.2231,-0.3705,239.3438
20:14:00:021,4.2019,-1.9052,11.8957,39.7072,-1.2863,0.4369,-0.4107,239.7344
20:14:00:041,3.8847,-1.2899,11.4564,41.176,-1.3827,0.2865,-0.4725,240.2344
20:14:00:058,3.4454,-1.321,12.754,42.1569,-1.4259,-0.0715,-0.5785,240.7344
20:14:00:075,2.3584,-1.734,13.9583,41.435,-1.2754,-0.1839,-0.574,241.2969
20:14:00:094,1.7383,-2.0536,13.993,40.6438,-0.9851,-0.0464,-0.2864,242
20:14:00:115,2.7989,-1.6299,12.4967,39.246,-0.6618,0.0412,0.103,242.4062
20:14:00:135,4.3468,-0.7009,10.3431,41.0431,-0.494,-0.1197,0.2481,243.3906
20:14:00:157,5.0627,-0.0425,9.4165,40.7664,-0.522,-0.4699,0.1328,243.5312
20:14:00:175,4.6508,0.5824,9.389,39.5603,-0.5915,-0.7296,-0.1436,243.3281
20:14:00:200,3.7075,0.8134,9.5482,39.5667,-0.5923,-0.7109,-0.4078,243.125
20:14:00:214,2.7127,0.8015,9.0442,38.6218,-0.5129,-0.4526,-0.587,243.1406
20:14:00:236,1.6737,0.7548,8.053,40.4167,-0.4216,-0.1221,-0.6195,243.5
20:14:00:259,1.3516,1.0684,7.051,40.2079,-0.3782,0.1456,-0.5511,244.1094
20:14:00:274,1.3121,1.5209,6.4645,39.7117,-0.322,0.3075,-0.5133,244.8281
20:14:00:297,1.3768,1.8872,5.8563,40.8069,-0.2184,0.3237,-0.5322,245.5469
20:14:00:316,1.3816,2.1362,5.411,39.8482,-0.1478,0.1956,-0.5937,246.2031
20:14:00:334,1.269,2.1901,5.6097,40.6138,-0.1342,-0.0395,-0.6757,246.7969
20:14:00:356,1.1912,2.0069,6.3292,40.7945,-0.1526,-0.2821,-0.7505,247.4688
20:14:00:374,0.9841,1.7544,7.4593,40.1164,-0.2535,-0.3652,-0.7902,248.2188
20:14:00:398,0.8572,1.2671,9.2669,39.0746,-0.3941,-0.2038,-0.7836,249
20:14:00:414,0.5256,0.7739,11.1415,38.3681,-0.4581,0.2084,-0.701,249.8906
20:14:00:435,0.2264,0.4208,12.3434,39.7632,-0.383,0.6878,-0.5338,251.2812
20:14:00:459,0.2659,0.1443,12.59,39.4192,-0.1787,0.944,-0.3221,252.0938
20:14:00:476,0.5855,-0.2352,12.2081,38.6624,0.0317,0.8377,-0.13,252.7969
20:14:00:497,0.9303,-0.7739,12.4631,41.4374,0.1228,0.4968,0.0021,253.2344
20:14:00:514,0.862,-1.4646,13.3406,41.0654,0.1193,0.3847,0.0481,253.4531
20:14:00:534,0.121,-2.2356,13.4543,40.2874,0.0474,0.6801,0.1033,253.4688
20:14:00:558,-0.8319,-2.4367,12.8055,39.0075,-0.1185,1.0034,0.2886,253.4219
20:14:00:574,-1.1228,-2.4032,12.784,39.6627,-0.3675,0.9389,0.5768,253.3438
20:14:00:595,-1.0162,-2.4798,15.1554,38.444,-0.5683,0.511,0.9086,253.25
20:14:00:615,-0.6152,-2.718,18.6976,38.4168,-0.2626,0.1509,1.3073,252.8438
20:14:00:634,0.5639,-2.9263,18.6162,39.545,0.6687,0.0478,1.6972,252.0781
20:14:00:657,1.8867,-2.6055,14.2624,39.7217,1.4709,-0.0616,1.9206,250.8594
20:14:00:677,3.024,-1.6861,10.8231,39.7843,1.6134,-0.3208,1.902,249.2031
20:14:00:735,3.2526,-0.8302,10.0665,38.6799,1.3731,-0.565,1.6471,247.0625
20:14:00:735,2.5045,-0.5393,10.7082,39.9529,1.1974,-0.5996,1.3566,243.6875
20:14:00:735,1.7826,-0.586,10.7417,40.3002,1.2613,-0.4467,1.2106,241.8594
20:14:00:762,1.7239,-0.683,9.5973,37.7593,1.4293,-0.2081,1.1909,240.25
20:14:00:773,1.7335,-0.7189,7.9441,40.3412,1.5564,0.0074,1.1819,238.7969
20:14:00:799,1.5348,-0.6794,6.3053,38.7434,1.5785,0.194,1.2072,237.4531
20:14:00:814,2.1717,-0.3118,4.5826,38.5709,1.5111,0.213,1.2556,237.4531
20:14:00:838,2.538,0.0461,4.0415,38.7991,1.4528,0.0899,1.1656,236.0156
20:14:00:859,2.8217,0.2065,3.8069,39.1172,1.3223,-0.096,0.9904,234.5625
20:14:00:877,2.7678,0.24,4.1612,38.092,1.101,-0.2363,0.7778,231.5938
20:14:00:894,2.593,0.1239,5.1345,37.7489,0.8549,-0.2931,0.5949,230.1875
20:14:00:914,2.4518,-0.0389,6.2418,39.402,0.6695,-0.2172,0.4695,230.1875
20:14:00:935,2.7307,0.0617,6.5854,37.895,0.5121,-0.0968,0.393,229
20:14:00:958,3.3376,0.0748,6.474,37.5186,0.2983,-0.1362,0.2577,227.4375
20:14:00:973,3.8105,-0.0281,6.9445,36.7137,-0.0525,-0.3599,0.0663,226.6406
20:14:00:993,4.3492,-0.5441,8.6564,38.786,-0.4376,-0.5722,-0.1316,226.4531
20:14:01:014,4.336,-0.9798,10.3167,37.7264,-0.7436,-0.533,-0.3141,226.1562
20:14:01:035,4.0667,-1.2827,11.2158,38.0185,-0.934,-0.2539,-0.3971,226.2344
20:14:01:059,4.3181,-1.339,10.6244,38.2191,-1.0573,-0.0108,-0.4416,226.4062
20:14:01:077,4.0703,-0.8625,10.2293,37.3328,-1.2884,-0.0536,-0.5686,226.8594
20:14:01:093,3.3424,-0.8194,11.764,37.2429,-1.5422,-0.2568,-0.7431,227.4219
20:14:01:116,1.9107,-1.2995,13.8733,36.567,-1.5228,-0.2006,-0.7982,228.0156
20:14:01:133,0.8776,-1.4575,14.1068,38.6222,-1.1686,0.1112,-0.5399,228.75
20:14:01:154,1.8724,-0.9607,11.7856,39.0446,-0.7633,0.2337,-0.1521,229.75
20:14:01:177,3.5423,0.3298,9.7601,37.3953,-0.6898,0.0287,-0.0355,230.7969
20:14:01:194,4.1181,1.3066,9.7541,36.0978,-0.8727,-0.2571,-0.2893,231.4688
20:14:01:214,3.3161,1.3138,10.9644,37.6959,-1.0152,-0.1828,-0.6576,231.7031
20:14:01:235,1.6509,0.9308,10.8878,38.8948,-0.9598,0.2944,-0.8824,231.7812
20:14:01:256,0.3999,0.914,9.3746,36.7693,-0.7942,0.7437,-0.8619,232.2031
20:14:01:275,-0.0238,1.1797,7.6975,37.5705,-0.6149,0.8455,-0.7183,233.5312
20:14:01:294,-0.1232,1.4108,6.7949,39.0003,-0.4341,0.564,-0.5591,234.625
20:14:01:317,-0.0166,1.552,6.6835,38.2605,-0.2242,0.1187,-0.4216,235.5312
20:14:01:333,0.194,1.6622,6.6979,38.0581,-0.0312,-0.2188,-0.3071,236.2969
20:14:01:353,0.4598,1.9052,7.0738,39.3305,0.0458,-0.3354,-0.2523,236.875
20:14:01:374,0.7555,2.0991,7.7537,38.3786,0.0405,-0.2651,-0.2781,237.2969
20:14:01:394,0.9937,2.0069,8.4145,38.2036,0.0357,-0.076,-0.3713,237.5781
20:14:01:414,0.7088,1.6694,8.8587,39.567,0.024,0.148,-0.4491,237.875
20:14:01:434,0.3784,1.5317,9.1675,39.1611,0.0123,0.3434,-0.44,238.2344
20:14:01:457,0.1246,1.4766,9.4225,39.808,0.0186,0.4388,-0.3724,238.6875
20:14:01:474,0.042,1.3234,9.8403,39.2955,0.0266,0.3983,-0.2571,239.2031
20:14:01:493,0.0791,1.2336,10.3407,40.8516,0.021,0.2425,-0.1362,239.6719
20:14:01:514,0.1785,1.1115,11.2301,39.9336,-0.0474,0.0676,-0.0243,240.0469
20:14:01:535,0.4478,0.9355,13.0485,40.5114,-0.1113,-0.0254,0.0647,240.2656
20:14:01:558,0.8141,0.4854,14.43,39.8321,-0.0511,0.0963,0.1075,240.3438
20:14:01:574,0.5879,0.2604,13.9284,39.8321,-0.0123,0.4164,0.131,240.3438
20:14:01:594,0.2371,0.0724,13.1706,41.7996,-0.1904,0.4992,0.1589,240.2344
20:14:01:614,-0.4297,-0.501,15.2787,42.6197,-0.3784,0.1416,0.2444,240.0938
20:14:01:635,-1.4005,-1.3066,17.8214,41.3027,-0.1417,-0.0776,0.4865,239.9375
20:14:01:656,-1.707,-2.2045,17.0708,41.7572,0.4804,0.083,0.9161,239.75
20:14:01:674,-1.1096,-2.2523,13.3466,41.2368,0.9414,0.2303,1.3946,239.375
20:14:01:694,-0.0969,-2.0428,10.4987,43.1445,1.041,0.0252,1.7278,238.5781
20:14:01:713,0.4131,-1.8393,9.1998,43.6268,0.9923,-0.3879,1.894,237.2344
20:14:01:734,0.5532,-1.649,8.8419,44.5769,0.9601,-0.716,2.009,235.4688
20:14:01:757,0.5197,-1.2528,8.648,43.5369,0.9641,-0.8086,2.1172,233.3594
20:14:01:775,1.1493,-0.8721,8.2362,42.0845,0.9803,-0.6414,2.2133,231.0938
20:14:01:793,2.0867,-0.5225,7.3719,43.8274,0.9848,-0.3567,2.1931,228.8281
20:14:01:813,2.2315,-0.0257,6.2238,43.2115,0.9523,-0.1018,2.0716,226.3281
20:14:01:834,2.0436,0.1873,5.4996,45.6343,0.8903,-0.0134,1.943,223.7344
20:14:01:856,1.9693,0.2436,5.1405,43.2565,0.8368,-0.0355,1.8487,220.1562
20:14:01:874,2.0052,0.3813,5.0926,43.6633,0.7699,-0.1333,1.7555,217.875
20:14:01:893,1.9538,0.507,5.4924,44.2771,0.6613,-0.2251,1.6237,215.6875
20:14:01:913,1.8257,0.5824,6.1963,43.2815,0.523,-0.2571,1.483,213.7344
20:14:01:934,1.7251,0.8182,7.154,43.9617,0.3814,-0.2494,1.3475,211.8281
20:14:01:958,1.7742,0.9751,8.4576,44.6334,0.3257,-0.271,1.1739,210.1094
20:14:01:974,1.8341,0.6961,9.2657,43.4807,0.3726,-0.2741,0.9725,208.5625
20:14:01:998,1.9825,0.015,9.3423,44.7675,0.3928,-0.2193,0.8162,207.2812
20:14:02:014,2.5332,-0.4447,9.365,44.5881,0.2826,-0.162,0.7347,206.1562
20:14:02:034,3.522,-0.6446,10.0845,44.1116,0.1025,-0.1644,0.6324,205.1875
20:14:02:059,4.3396,-0.8529,11.0542,44.6063,-0.0186,-0.2044,0.4649,204.375
20:14:02:076,5.1034,-1.1977,11.436,43.9907,-0.0506,-0.1098,0.2702,203.6562
20:14:02:094,5.8539,-1.6287,10.6136,44.4798,-0.0831,0.054,0.0822,203.375
20:14:02:114,6.674,-1.3952,9.4608,45.604,-0.2514,0.1277,-0.0981,202.9844
20:14:02:137,7.2234,-1.0193,9.1089,44.2711,-0.5297,-0.059,-0.4107,202.7969
20:14:02:158,6.5542,-1.1606,9.9217,44.2341,-0.7513,-0.341,-0.8004,202.7969
20:14:02:175,5.2853,-1.8872,10.3526,43.8793,-0.7731,-0.5229,-0.9977,203.4375
20:14:02:193,4.1433,-2.305,10.1479,45.5278,-0.7313,-0.5708,-0.9191,204.4375
20:14:02:214,3.5328,-1.0397,8.6827,46.2227,-0.7151,-0.3263,-0.4323,205.7188
20:14:02:235,3.9398,-0.1802,7.6268,46.1674,-0.8943,-0.2105,-0.33,205.7188
20:14:02:256,4.2223,0.6147,7.4497,44.9477,-1.2176,-0.1186,-0.4054,206.9062
20:14:02:274,3.8703,1.1379,8.0758,45.1824,-1.51,-0.0398,-0.6134,207.75
20:14:02:294,2.8468,1.3749,9.4117,44.9189,-1.551,0.0862,-0.7998,208.375
20:14:02:314,1.7012,1.4036,9.9109,46.9286,-1.2285,0.2225,-0.8768,209.5156
20:14:02:333,0.6011,1.1474,8.8778,46.5248,-0.7236,0.3261,-0.8179,209.5156
20:14:02:355,0.0576,1.1271,7.0271,45.9461,-0.3502,0.3267,-0.6094,212.7188
20:14:02:374,0.2216,1.5365,5.8444,46.1482,-0.2237,0.2273,-0.3886,212.7188
20:14:02:393,0.6394,2.001,5.7773,45.1803,-0.2581,0.0486,-0.3045,214.1094
20:14:02:415,0.9291,2.1302,6.7039,45.1958,-0.347,-0.0771,-0.3439,214.4531
20:14:02:432,0.941,2.0141,8.0793,46.3264,-0.4048,-0.0947,-0.4203,215.1094
20:14:02:455,0.977,1.4287,9.1651,45.3199,-0.3984,-0.0201,-0.481,215.2812
20:14:02:477,0.7399,0.598,9.9732,44.6103,-0.383,0.1466,-0.4467,215.7188
20:14:02:492,0.6238,0.1658,10.4065,46.5948,-0.3752,0.368,-0.2786,216.25
20:14:02:515,0.7076,0.173,10.6986,46.1975,-0.3886,0.4244,-0.076,216.8594
20:14:02:533,0.7866,0.0078,11.8849,46.4649,-0.4067,0.258,0.1121,217.3906
20:14:02:552,0.9805,-0.6758,13.8649,45.9449,-0.3087,0.0878,0.3121,217.7812
20:14:02:573,0.9195,-1.0564,15.42,47.141,-0.0623,0.1722,0.5549,217.9219
20:14:02:593,1.044,-1.2552,15.0824,46.5553,0.2855,0.4436,0.7896,217.8594
20:14:02:612,1.0548,-1.0002,13.422,46.5909,0.4469,0.6835,0.9547,217.5469
20:14:02:632,1.3696,-0.6458,12.5386,47.8714,0.3079,0.6553,1.0205,216.9219
20:14:02:652,1.5037,-0.7488,14.0098,46.2913,0.1198,0.3592,0.9992,216.0156
20:14:02:673,1.4558,-1.4826,16.0078,46.1759,0.2469,0.1528,1.0021,214.375
20:14:02:693,1.2307,-2.2368,15.8066,47.3865,0.6221,0.1701,1.0897,213.2031
20:14:02:714,1.3959,-2.3816,14.017,47.158,0.869,0.164,1.249,212.125
20:14:02:734,2.2219,-1.9124,13.3131,47.5028,0.8927,0.0124,1.3853,210.9062
20:14:02:758,2.866,-1.1438,13.2508,47.8583,0.9563,-0.1935,1.3949,209.5156
20:14:02:811,2.8468,-0.8446,12.9743,48.1478,1.1705,-0.4044,1.31,207.9375
20:14:02:812,2.2602,-0.8134,11.9484,47.1371,1.4797,-0.4893,1.2679,206.3281
20:14:02:821,2.3045,-0.8398,10.1875,48.157,1.7755,-0.4273,1.3419,204.6875
20:14:02:833,2.7092,-0.6291,8.0602,48.5337,1.9758,-0.2784,1.3941,203.125
20:14:02:853,3.0491,-0.3071,6.0108,48.0099,2.0389,-0.1309,1.3491,201.5781
20:14:02:879,3.2107,-0.003,4.3923,47.5313,1.9524,-0.002,1.217,199.8281
20:14:02:895,3.3664,0.1909,3.2945,50.3241,1.714,0.1253,1.0245,198.0469
20:14:02:914,3.4346,0.2723,2.9677,48.927,1.3569,0.1762,0.8053,196.3594
20:14:02:934,3.2646,0.252,3.6644,48.859,1.0072,0.1136,0.6029,194.9531
20:14:02:958,3.0276,-0.1,4.9645,48.5291,0.7699,-0.0395,0.4335,194.2969
20:14:02:975,2.7247,-0.3801,6.7757,47.896,0.6693,-0.1604,0.3272,192.7656
20:14:02:993,2.5655,-0.5884,8.2469,49.7802,0.751,-0.2275,0.2396,192.125
20:14:03:013,2.3261,-0.8015,8.3882,48.6935,0.8464,-0.2009,0.1315,191.6406
20:14:03:033,2.3452,-1.1546,7.889,49.1817,0.7209,-0.1098,0.0444,191.2656
20:14:03:054,2.6421,-1.5101,7.7322,50.7045,0.4003,-0.1386,-0.0163,191
20:14:03:073,3.0384,-1.6239,8.6025,49.3399,0.0064,-0.3048,-0.0736,190.8281
20:14:03:093,3.0575,-1.6741,10.3945,48.6808,-0.298,-0.3748,-0.1601,190.7656
20:14:03:112,2.69,-1.8142,11.1535,48.4629,-0.3958,-0.088,-0.2025,190.8281
20:14:03:132,2.5595,-1.7208,9.5039,50.2982,-0.465,0.3016,-0.1647,191.0469
20:14:03:153,2.781,-1.0888,8.0207,48.37,-0.7561,0.3437,-0.1165,191.3594
20:14:03:174,2.7139,-0.3346,8.5738,48.7181,-1.1768,0.0028,-0.1551,191.6094
20:14:03:192,2.5392,-0.2843,11.0242,48.4122,-1.4589,-0.3261,-0.2299,191.7656
20:14:03:215,1.8903,-0.6231,13.1575,50.8662,-1.4397,-0.3152,-0.2158,191.9844
20:14:03:233,1.6174,-0.4268,13.1958,49.6434,-1.1713,-0.0891,-0.0041,192.3906
20:14:03:253,2.7104,0.1574,11.2612,50.9783,-0.9257,-0.0805,0.2119,193.0781
20:14:03:273,4.0008,0.999,10.1001,50.0775,-0.9707,-0.3639,0.2103,193.25
20:14:03:293,4.8125,1.74,10.1491,49.7992,-1.1752,-0.5194,-0.0472,193.125
20:14:03:314,4.7957,1.8824,10.209,48.948,-1.4299,-0.2225,-0.5213,193.0469
20:14:03:332,3.328,1.0983,10.124,49.7923,-1.6789,0.5847,-0.9631,193.2812
20:14:03:353,1.0703,0.6195,9.5829,49.6348,-1.7886,1.5568,-1.0416,194.0938
20:14:03:374,-0.3758,0.7069,9.1101,49.5453,-1.6621,2.1624,-0.7522,195.4062
20:14:03:393,-0.2668,1.1259,8.5761,49.8765,-1.2594,2.2199,-0.3332,196.7031
20:14:03:413,0.7531,1.8358,7.6807,49.9517,-0.7547,1.8409,-0.0472,197.7188
20:14:03:433,1.2559,2.5564,7.0858,50.7336,-0.3169,1.258,-0.0019,198.2188
20:14:03:453,0.9626,2.7108,6.9385,51.5039,0.0634,0.6175,-0.117,198.3125
20:14:03:473,0.1953,2.2296,6.8392,51.6205,0.302,0.1554,-0.2121,198.3594
20:14:03:492,-0.5494,1.6478,7.0427,51.3452,0.3175,0.0257,-0.1308,198.4375
20:14:03:513,-0.6774,1.4335,8.047,50.1031,0.2229,0.0793,0.0966,198.6562
20:14:03:532,-0.0574,1.4706,9.0011,50.1032,0.196,0.1283,0.2892,198.8594
20:14:03:552,0.1282,1.6083,9.6655,51.2731,0.2205,0.1125,0.3595,198.7969
20:14:03:573,-0.0502,1.3402,10.288,49.7884,0.2655,0.0239,0.4189,198.4688
20:14:03:593,-0.0669,0.744,10.9177,51.0931,0.2999,-0.0944,0.556,198.0781
20:14:03:613,0.5125,0.3956,11.7545,49.7273,0.2349,-0.2132,0.7001,197.5938
20:14:03:633,1.2319,0.0784,15.5301,50.1859,0.1137,0.1048,0.6846,196.9531
20:14:03:654,0.4766,0.1778,14.3186,50.1202,0.2631,0.5474,0.6189,196.1875
20:14:03:676,-0.0166,0.2304,12.6966,50.7731,0.1752,0.7054,0.5906,195.3438
20:14:03:693,-0.5565,-0.3753,13.1012,50.0028,-0.0077,0.4319,0.5672,194.5625
20:14:03:712,-1.0043,-1.1893,14.6095,51.0757,0.0442,-0.0329,0.6671,193.8438
20:14:03:732,-0.8534,-1.8872,15.9072,48.4919,0.3289,-0.2691,0.8548,193.2031
20:14:03:753,-0.1112,-2.6582,14.7269,50.3167,0.7201,-0.097,0.9874,192.5469
20:14:03:774,-0.2525,-2.7216,11.8766,47.4277,0.8535,0.071,1.0303,191.7812
20:14:03:792,-0.6092,-2.6474,10.2844,48.1803,0.7199,0.0862,1.0732,189.7188
20:14:03:813,-1.0653,-2.5648,9.8032,50.2818,0.6157,0.0534,1.1941,188.5312
20:14:03:832,-1.2185,-2.2943,9.2298,47.3868,0.6815,0.0779,1.4404,187.9219
20:14:03:852,-0.5015,-1.9423,7.9932,47.2801,0.8589,0.0995,1.7145,186.7031
20:14:03:875,0.5005,-1.4276,6.3938,46.9774,1.0256,0.0159,1.8751,185.9844
20:14:03:893,1.6581,-0.428,5.7007,47.6662,1.0908,-0.1812,1.8783,184.3438
20:14:03:915,2.9989,0.4711,6,46.8294,1.1582,-0.3687,1.6588,182.3594
20:14:03:931,2.9462,0.6447,5.8468,47.0287,1.2512,-0.4787,1.2487,180.3125
20:14:03:952,1.1841,0.0868,5.3212,45.5887,1.1801,-0.4252,0.9725,178.1719
20:14:03:974,-0.274,-0.228,5.2518,45.8291,0.9121,-0.198,1.0468,176.2812
20:14:03:994,-0.2333,0.0485,5.7701,45.2853,0.6059,-0.0145,1.2737,174.9375
20:14:04:012,0.9686,0.841,6.7494,46.1761,0.4101,-0.0427,1.3784,173.8438
20:14:04:032,2.2471,1.4898,7.8663,44.6581,0.3571,-0.1791,1.2,172.625
20:14:04:053,2.4985,1.5748,8.4516,44.8374,0.3489,-0.2576,0.838,171.2188
20:14:04:074,2.1824,1.1702,8.648,44.5465,0.2514,-0.2555,0.5091,168.2656
20:14:04:092,2.0639,0.6698,9.2118,45.7015,0.0237,-0.2156,0.3147,167.7344
20:14:04:112,2.5595,0.2891,10.5741,44.6458,-0.2376,-0.0981,0.2162,167.0312
20:14:04:132,3.0372,0.2304,11.8694,44.3713,-0.3971,0.149,0.1171,166.6094
20:14:04:153,3.5328,0.2113,11.9268,45.0319,-0.395,0.4508,-0.0128,166.3438
20:14:04:174,3.7794,0.1514,10.5119,44.275,-0.3728,0.5701,-0.1689,166.1719
20:14:04:192,4.002,0.325,9.2322,43.3434,-0.5428,0.3964,-0.3623,166.0938
20:14:04:213,3.9541,0.3274,9.8391,44.6883,-0.8986,0.092,-0.6608,166.1562
20:14:04:233,3.2215,-0.3645,11.9675,43.8474,-1.1862,-0.0116,-0.9756,166.3906
20:14:04:252,1.6186,-1.3785,13.689,44.0963,-1.2038,0.1943,-1.0725,166.9375
20:14:04:274,0.3042,-1.8705,13.7787,43.7472,-0.9606,0.5083,-0.7913,167.9375
20:14:04:295,0.4957,-1.4503,11.9783,44.8253,-0.6565,0.585,-0.346,169.2031
20:14:04:312,1.3026,-0.4531,10.5645,43.4785,-0.4999,0.3688,-0.0387,170.2812
20:14:04:332,1.8879,0.2747,10.0115,44.1446,-0.3665,0.1078,0.0607,170.9062
20:14:04:353,1.7467,0.8015,8.6779,43.4444,-0.2035,0.0279,0.0338,171.0625
20:14:04:373,1.5228,1.1953,6.9589,43.5523,-0.1707,0.0793,-0.0179,171.0156
20:14:04:392,1.433,1.4228,5.7103,42.8575,-0.282,0.1458,-0.0866,171
20:14:04:413,1.2655,1.7448,5.3368,43.2771,-0.4674,0.1741,-0.1655,170.9688
20:14:04:432,1.0272,1.9363,5.7247,42.2926,-0.5862,0.2026,-0.2523,171.0156
20:14:04:454,0.6693,2.0225,6.2023,43.1196,-0.571,0.2505,-0.3519,171.1406
20:14:04:473,0.3102,2.056,6.2167,43.0836,-0.4892,0.308,-0.4275,171.375
20:14:04:491,-0.104,1.8669,6.2502,44.5374,-0.4698,0.3051,-0.4635,171.7188
20:14:04:512,-0.5829,1.831,7.1803,42.1087,-0.5401,0.2708,-0.4509,172.1719
20:14:04:532,-0.8786,1.8932,8.9568,43.0509,-0.5462,0.2106,-0.4358,172.6406
20:14:04:552,-1.1407,1.7915,10.5274,43.3268,-0.3912,0.1813,-0.4485,173.1719
20:14:04:574,-1.5238,1.4359,11.3067,42.0248,-0.1758,0.2598,-0.4187,173.6719
20:14:04:592,-1.6315,1.2336,11.5019,43.2398,-0.0088,0.4351,-0.3087,174.1406
20:14:04:611,-1.5477,1.2791,11.4492,42.8302,0.0735,0.5728,-0.211,174.6562
20:14:04:633,-1.5597,1.1055,11.6659,43.3599,0.0727,0.5935,-0.1407,175.0781
20:14:04:651,-1.1695,0.4387,12.5996,42.48,0.0186,0.5219,-0.0262,175.3438
20:14:04:674,-0.6379,-0.2544,13.8817,42.1904,-0.0085,0.3757,0.1368,175.5469
20:14:04:693,0.0288,-0.6566,14.7664,43.7054,-0.0205,0.25,0.2612,175.6406
20:14:04:711,-0.0729,-0.659,15.0668,43.4206,-0.2027,0.202,0.2777,175.5
20:14:04:732,0.2647,-1.4635,16.4998,42.2761,-0.5611,0.3051,0.172,175.1875
20:14:04:752,-0.9264,-2.73,18.803,42.7255,-0.6474,0.6987,0.0359,174.8594
20:14:04:775,-2.8322,-3.866,18.0656,42.9136,-0.0107,0.9994,0.2673,174.6562
20:14:04:793,-3.0298,-4.4251,13.4136,43.126,0.8959,0.7642,0.903,174.5781
20:14:04:856,-1.4137,-3.5596,8.8634,40.9211,1.4038,-0.0704,1.5187,174.2812
20:14:04:856,-0.3375,-1.6813,6.9469,40.9919,1.3873,-1.006,1.7225,173.3125
20:14:04:856,-0.1028,-0.3956,7.7525,41.0564,1.1199,-1.5397,1.6761,171.7656
20:14:04:878,0.5831,-0.0485,8.9245,40.658,0.9902,-1.59,1.5925,169.9062
20:14:04:896,1.1565,0.1287,9.0813,42.1283,0.9705,-1.2675,1.4213,168.125
20:14:04:913,1.0991,0.0616,8.2661,41.1642,0.9864,-0.7434,1.2551,166.5156
20:14:04:932,0.704,0.0329,6.8703,41.6979,0.9934,-0.2824,1.2032,164.9844
20:14:04:952,0.8321,0.1395,5.66,42.1905,0.9771,-0.0369,1.2279,164.2812
20:14:04:976,1.1266,0.3526,4.8029,40.8111,0.967,-0.0622,1.2199,162.9375
20:14:04:993,1.4271,0.5261,4.257,40.5759,0.95,-0.272,1.1541,161.625
20:14:05:015,1.5444,0.6949,4.1912,42.7574,0.8804,-0.5202,1.0263,159.5
20:14:05:034,1.4019,0.4639,4.8735,41.4157,0.5286,-0.6443,0.7137,158.2031
20:14:05:053,1.2511,0.398,5.4362,40.9735,0.2615,-0.5559,0.6079,158.2031
20:14:05:076,1.2415,0.2867,6.5291,42.7445,-0.012,-0.4331,0.5094,157.1406
20:14:05:095,1.208,0.5046,7.913,42.2774,-0.208,-0.2539,0.4034,155.4688
20:14:05:112,1.6641,0.5836,8.6959,42.115,-0.3068,-0.1647,0.3161,155.4688
20:14:05:132,2.429,0.7548,9.5051,40.5915,-0.4155,-0.211,0.2058,154.875
20:14:05:152,2.8995,0.8769,10.7046,43.1162,-0.5175,-0.2867,0.0039,153.9531
20:14:05:174,2.8205,0.5142,12.1794,41.7967,-0.5513,-0.2395,-0.2403,153.6406
20:14:05:191,2.6349,-0.1143,12.9791,42.1273,-0.5023,0.1685,-0.3654,153.4688
20:14:05:214,2.5727,-0.5704,11.5797,44.3343,-0.4719,0.7962,-0.3532,153.5469
20:14:05:231,2.7523,-0.3968,9.3555,43.3534,-0.6655,1.1546,-0.3157,153.8906
20:14:05:251,2.7918,0.1646,8.3379,43.0248,-1.1137,1.0436,-0.3897,154.6562
20:14:05:275,2.3045,0.0629,9.4967,44.0165,-1.6661,0.6833,-0.6025,154.7812
20:14:05:293,1.5408,-1.011,12.274,43.9387,-2.0725,0.6561,-0.766,155.2656
20:14:05:311,0.2,-1.9088,14.6526,43.4594,-2.0839,1.1251,-0.6086,155.2656
20:14:05:334,0.2216,-1.5628,14.8549,45.4338,-1.5393,1.3251,-0.1066,155.9531
20:14:05:351,2.6732,-0.5824,13.2245,44.3705,-0.763,0.7445,0.2841,156.8281
20:14:05:374,4.8795,0.3693,11.8107,46.6473,-0.1896,-0.2076,0.2111,157.5156
20:14:05:394,5.4481,0.8506,11.1379,44.438,0.081,-0.8632,-0.2501,157.5781
20:14:05:416,4.9226,0.519,10.8387,46.2792,0.1143,-0.8806,-0.8099,157.25
20:14:05:432,3.686,-0.0042,9.7577,44.8992,0.0908,-0.4419,-1.2427,157
20:14:05:451,2.4554,-0.2424,8.2338,46.0767,0.0501,0.0638,-1.4528,157.6562
20:14:05:474,1.5947,-0.2508,6.6201,46.4611,0.0152,0.364,-1.5125,158.875
20:14:05:492,0.9889,-0.0676,5.4505,47.1744,-0.0059,0.4199,-1.4768,160.4531
20:14:05:511,0.7088,0.252,4.7502,47.2686,-0.0314,0.3259,-1.394,162.0781
20:14:05:534,0.546,0.5932,4.6137,48.7808,-0.0703,0.1461,-1.3234,163.7969
20:14:05:552,0.3856,0.8146,5.0231,48.7808,-0.1225,-0.0259,-1.2856,165.4375
20:14:05:575,0.2324,0.8685,5.6852,49.9765,-0.1963,-0.1543,-1.2669,166.9844
20:14:05:593,-0.4081,0.7141,6.8631,48.346,-0.3087,-0.1732,-1.2225,168.3906
20:14:05:611,-0.9743,0.7691,8.4576,50.3131,-0.3838,-0.0776,-1.0874,169.8594
20:14:05:633,-1.3383,0.9415,9.9085,50.157,-0.3643,0.0217,-0.9311,171.2969
20:14:05:652,-1.4137,1.1606,11.1056,49.8258,-0.3092,0.1778,-0.7841,172.5625
20:14:05:674,-1.2389,1.0672,11.9723,50.7485,-0.2322,0.3528,-0.6717,173.7188
20:14:05:692,-1.2533,0.8769,12.4236,50.1997,-0.1422,0.4937,-0.5652,174.7031
20:14:05:716,-1.1958,0.8218,12.5445,52.7389,-0.0834,0.5496,-0.42,175.125
20:14:05:732,-0.8905,0.7249,12.699,52.6303,-0.0863,0.4729,-0.2981,175.8594
20:14:05:753,-0.456,0.483,13.4962,53.4005,-0.1617,0.4108,-0.1748,176.7656
20:14:05:775,-0.4668,0.6961,14.2612,53.6185,-0.1992,0.3978,-0.0453,177.1562
20:14:05:796,-0.0621,0.9319,14.8753,52.9075,-0.2234,0.2281,0.0697,177.4219
20:14:05:814,0.2491,0.3717,16.3741,54.3103,-0.2162,-0.1218,0.0436,177.5625
20:14:05:831,-0.8307,-1.1079,18.8461,53.4232,0.0652,-0.4243,0.0338,177.5312
20:14:05:851,-1.847,-2.578,18.9335,56.0343,0.8498,-0.3769,0.3813,177.4531
20:14:05:877,-1.0138,-2.7539,14.6251,56.0214,1.636,-0.1378,0.9619,177.4219
20:14:05:893,1.1302,-1.6777,9.9025,57.2571,1.8474,-0.0691,1.3107,177.25
20:14:05:911,2.429,-0.4687,7.4341,56.7232,1.5425,-0.2949,1.2255,176.5469
20:14:05:931,2.5823,-0.0425,7.6532,56.5761,1.102,-0.5996,0.9235,175.2344
20:14:05:951,1.8496,-0.07,8.6971,57.743,0.8834,-0.7093,0.6519,173.7656
20:14:05:972,1.3241,-0.349,8.5462,58.2885,0.9001,-0.61,0.511,172.5781
20:14:05:992,0.8105,-0.3513,7.324,59.1028,0.9492,-0.443,0.4529,171.7969
20:14:06:011,0.5089,-0.3202,6.2562,58.0942,0.9215,-0.3484,0.4567,171.1875
20:14:06:032,0.3628,-0.2747,5.6109,58.4551,0.8589,-0.3644,0.4852,170.4375
20:14:06:051,0.2707,-0.1347,5.4338,58.3463,0.7787,-0.4462,0.5073,169.9688
20:14:06:076,0.3161,-0.0605,5.5331,59.8571,0.7153,-0.4848,0.5206,169.4375
20:14:06:092,0.467,-0.1155,5.6253,58.093,0.6658,-0.4704,0.524,168.8906
20:14:06:111,0.5663,-0.0652,5.6959,60.0158,0.592,-0.3754,0.5248,168.3594
20:14:06:134,0.8058,0.1921,5.7582,61.2849,0.506,-0.2688,0.5011,167.7969
20:14:06:152,1.0751,0.3538,5.6708,58.2203,0.4083,-0.259,0.4053,167.2188
20:14:06:174,0.9506,0.4172,5.7594,61.1218,0.2341,-0.2986,0.2798,166.6719
20:14:06:193,0.7423,0.3932,6.3711,59.8813,-0.0141,-0.2603,0.1816,166.4375
20:14:06:214,0.7411,0.337,6.9996,60.191,-0.2786,-0.1194,0.0926,166.0781
20:14:06:231,1.1793,-0.0186,7.5036,60.5134,-0.5598,-0.0874,-0.023,165.8594
20:14:06:251,2.1082,-0.5596,8.9879,60.9403,-0.8927,-0.1767,-0.1585,165.7344
20:14:06:272,2.9953,-0.8134,11.4504,59.8901,-1.1382,-0.1929,-0.3543,165.7344
20:14:06:293,2.4542,-1.1378,13.2077,60.434,-1.1308,0.0423,-0.5537,165.8906
20:14:06:317,1.6509,-1.9064,12.4703,61.9958,-0.9595,0.4111,-0.5383,166.2812
20:14:06:333,1.7814,-1.6993,10.4221,60.0904,-0.9619,0.6859,-0.2997,166.2812
20:14:06:351,3.0168,-0.7823,9.3195,59.2397,-1.1979,0.5621,-0.1569,167.875
20:14:06:376,3.9817,-0.1419,10.2664,58.1773,-1.4991,0.1373,-0.2997,168.2031
20:14:06:393,3.9853,0.0006,12.6176,60.388,-1.689,-0.1905,-0.5695,168.3906
20:14:06:412,3.4071,0.021,14.825,61.21,-1.6227,-0.2166,-0.7468,168.7812
20:14:06:433,3.6417,0.2747,14.1199,59.2196,-1.0269,0.1908,-0.8219,169.5156
20:14:06:452,3.6118,0.3741,13.1287,61.562,-0.7225,0.1996,-0.9239,169.5156
20:14:06:474,3.4909,0.3502,12.0609,60.7373,-0.3808,0.0745,-1.0323,170.4062
20:14:06:492,3.03,0.1838,10.6567,59.7192,-0.0977,0.0556,-1.1673,171.8594
20:14:06:511,2.0232,-0.0868,9.2525,60.5372,0.0562,0.201,-1.2376,173.4062
20:14:06:533,1.0727,-0.2867,8.0518,59.5887,0.1502,0.4236,-1.1375,175.9375
20:14:06:550,0.6214,-0.1024,6.7769,59.3403,0.2714,0.5339,-0.9476,175.9375
20:14:06:570,0.5388,0.2843,5.508,60.3916,0.3449,0.491,-0.7825,177.3594
20:14:06:592,0.5759,0.6207,4.6544,60.9282,0.3204,0.3693,-0.6842,178.5938
20:14:06:610,0.6765,0.8769,4.2175,60.3214,0.2128,0.1967,-0.6677,179.6719
20:14:06:631,0.6346,1.0888,4.7131,59.4502,0.012,0.0164,-0.7236,180.5625
20:14:06:651,0.4466,0.9164,5.9976,60.7463,-0.1965,-0.0193,-0.8009,181.2969
20:14:06:671,-0.1136,0.7213,7.5215,58.9526,-0.3614,0.1054,-0.8488,182.0625
20:14:06:692,-0.8486,0.6602,9.1148,59.3613,-0.4495,0.3685,-0.815,182.8906
20:14:06:710,-1.1946,0.6734,10.6328,59.9792,-0.388,0.6329,-0.7005,183.7656
20:14:06:731,-1.3969,0.6147,11.0182,58.4993,-0.1651,0.7685,-0.5636,184.75
20:14:06:750,-1.7513,0.5166,10.5801,57.59,0.0035,0.7163,-0.3963,185.6875
20:14:06:770,-1.6423,0.5692,10.5071,58.8739,0.0011,0.5344,-0.1881,186.4844
20:14:06:791,-0.8953,0.4495,11.4157,58.0848,-0.1257,0.2289,-0.0347,187.375
20:14:06:811,0.1366,0.2783,13.4519,56.772,-0.3031,0.0106,0.0615,187.7031
20:14:06:830,1.0739,0.2017,15.7995,57.7895,-0.3907,-0.0401,0.0705,187.8281
20:14:06:851,1.6785,0.2592,17.2958,58.9009,-0.3542,0.0446,-0.0243,187.8125
20:14:06:907,0.9602,-0.4986,18.1206,56.7699,-0.2152,0.1698,-0.2475,187.7031
20:14:06:908,-2.0098,-1.9507,18.1589,56.3095,0.2032,0.2803,-0.2517,187.6562
20:14:06:910,-3.7277,-3.0628,15.7779,56.5077,0.8764,0.3946,0.3374,187.7969
20:14:06:931,-2.3043,-2.9957,11.8323,54.4466,1.3723,0.3647,1.1033,188.1562
20:14:06:950,0.2659,-2.3433,8.5438,54.2233,1.4498,-0.007,1.5193,188.2031
20:14:06:971,1.19,-0.8086,7.6915,54.9086,1.1566,-0.6233,1.5286,187.4375
20:14:06:992,1.3421,-0.0784,9.547,53.0712,0.8477,-1.0814,1.4034,185.9375
20:14:07:011,1.6521,-0.4004,11.4528,52.597,0.8653,-1.1586,1.2591,184.2031
20:14:07:031,1.3983,-0.6865,11.2038,51.6206,1.1079,-0.7849,1.1693,183.3594
20:14:07:050,0.9303,-0.5932,9.0825,52.3487,1.326,-0.3232,1.1728,181.8906
20:14:07:071,0.7627,-0.2149,6.8463,50.7753,1.3846,-0.0422,1.2111,180.5
20:14:07:091,1.0931,0.0126,5.2327,49.0877,1.3311,-0.0337,1.2026,179.2031
20:14:07:110,1.3301,0.2077,4.3827,48.5123,1.1971,-0.1969,1.1323,177.2344
20:14:07:131,1.5252,0.3801,4.3695,48.489,1.0282,-0.3969,1.0197,175.8125
20:14:07:150,1.6497,0.3921,4.6293,47.6914,0.8847,-0.5303,0.8814,174.4531
20:14:07:172,1.7192,0.343,4.9801,48.5067,0.7563,-0.5618,0.7403,173.2812
20:14:07:192,1.8161,0.3526,5.2111,48.7824,0.6104,-0.4971,0.6117,172.2188
20:14:07:210,2.0531,0.5501,5.4565,45.2734,0.4338,-0.4276,0.4593,171.3438
20:14:07:231,2.2507,0.7883,6.0562,46.7895,0.2168,-0.3692,0.2785,170.6094
20:14:07:250,2.3919,0.9068,6.9948,47.7511,0.0061,-0.2528,0.0849,170.0625
20:14:07:271,2.2495,0.9415,7.8663,46.2565,-0.1702,-0.1114,-0.1109,169.6875
20:14:07:293,2.1082,0.9966,8.5785,47.2945,-0.343,-0.0374,-0.2666,169.5156
20:14:07:313,2.1752,0.9535,9.6739,47.131,-0.5292,-0.0297,-0.3785,169.5625
20:14:07:333,2.3309,0.8422,11.1284,45.1687,-0.6985,-0.0209,-0.4645,169.8125
20:14:07:351,2.3404,0.5357,12.7217,43.7745,-0.7414,0.1062,-0.4813,170.2344
20:14:07:371,2.8696,0.1395,12.6403,43.1803,-0.6344,0.3219,-0.3985,170.7656
20:14:07:392,3.747,0.4112,11.4851,42.9438,-0.5723,0.3373,-0.3058,171.625
20:14:07:410,5.1417,0.7871,10.7154,44.1663,-0.6738,0.0116,-0.3963,172.0781
20:14:07:430,5.5702,0.8194,11.6443,43.8658,-0.9294,-0.4257,-0.7362,172.4062
20:14:07:451,4.3516,-0.0557,13.8721,43.7319,-1.0804,-0.4867,-1.1074,172.8906
20:14:07:471,2.0364,-1.1438,14.5724,42.6437,-0.9052,0.0537,-1.1828,173.8281
20:14:07:492,0.6609,-1.2372,12.3171,43.32,-0.6008,0.6785,-0.8526,175.2188
20:14:07:511,1.4247,-0.7967,9.5973,43.2145,-0.4187,0.6673,-0.4509,176.5625
20:14:07:534,2.4566,-0.1514,8.6372,42.5264,-0.3976,0.1395,-0.2802,177.1094
20:14:07:551,3.0216,0.4292,9.2956,42.5264,-0.3555,-0.3666,-0.2792,177.7969
20:14:07:570,3.0288,0.7512,9.3303,43.7277,-0.2037,-0.4507,-0.3966,178.1562
20:14:07:594,2.3835,0.8254,7.9644,43.7277,-0.0903,-0.1764,-0.5354,178.4688
20:14:07:612,1.6749,0.9535,6.3268,41.0927,-0.1337,0.1528,-0.5961,178.8906
20:14:07:633,1.3648,1.1558,5.417,40.0801,-0.2914,0.3562,-0.6126,179.4688
20:14:07:650,1.1409,1.4383,5.2733,41.0626,-0.4421,0.3983,-0.64,180.0938
20:14:07:672,0.9734,1.5928,5.6983,41.4203,-0.5183,0.2968,-0.6983,181.125
20:14:07:693,0.6178,1.5772,6.2813,40.6895,-0.5587,0.2225,-0.7548,181.8438
20:14:07:710,0.1342,1.6658,7.0163,40.7016,-0.6067,0.2649,-0.7727,182.6094
20:14:07:731,-0.1064,1.8298,7.9046,40.2349,-0.6298,0.3416,-0.7356,183.4844
20:14:07:750,-0.1292,2.0429,8.7402,41.2463,-0.6117,0.3509,-0.6517,184.375
20:14:07:771,0.3401,2.5851,9.6679,39.3708,-0.5886,0.3184,-0.5162,185.1875
20:14:07:793,1.5312,3.3046,11.1427,39.4144,-0.5318,0.3344,-0.5237,185.9219
20:14:07:811,1.5288,3.5356,11.9903,38.6135,-0.3649,0.4795,-0.7988,186.5156
20:14:07:834,-1.6615,1.8609,11.6264,38.6959,-0.1824,0.8431,-0.9681,187.125
20:14:07:851,-2.2361,1.1726,12.0477,38.1957,-0.1406,0.6929,-0.6027,187.9844
20:14:07:873,-1.3646,0.6099,13.5345,37.1642,-0.098,0.3301,-0.19,190.2812
20:14:07:893,-0.1603,0.0353,15.4355,37.9491,0.0333,0.0502,0.107,190.2812
20:14:07:911,0.3437,-0.0916,16.7021,37.5471,0.2583,-0.0531,0.3515,191.1406
20:14:07:934,0.9279,-0.082,16.8194,37.5552,0.5452,0.0028,0.5105,191.1406
20:14:07:950,0.7962,-0.3801,15.73,35.3674,0.8384,0.14,0.5456,191.125
20:14:07:971,0.0408,-0.5118,13.7153,36.5048,1.1566,0.2422,0.6649,190.6562
20:14:07:994,0.1545,-0.5728,11.0733,36.531,1.3521,0.1474,0.8759,190.0781
20:14:08:012,0.7387,-0.1431,9.0933,35.5616,1.2432,-0.0393,0.9645,189.4844
20:14:08:033,1.1469,0.2927,8.5187,35.0603,0.9254,-0.4068,0.9129,188.7344
20:14:08:049,1.2343,0.5405,9.4752,35.9636,0.5942,-0.7644,0.8039,187.8125
20:14:08:069,1.4474,0.1957,11.0398,35.6993,0.4754,-0.8763,0.6761,186.75
20:14:08:092,1.0081,-0.1119,11.3929,34.6356,0.6072,-0.6241,0.5922,185.75
20:14:08:110,0.5987,-0.2245,10.2473,34.6004,0.852,-0.2174,0.6228,184.9531
20:14:08:130,0.3999,-0.0054,8.1763,34.4824,1.0799,0.0603,0.698,184.25
20:14:08:150,0.5161,0.1574,6.1029,35.1829,1.1774,0.0742,0.7592,183.6406
20:14:08:169,0.7543,0.3406,4.8149,35.3001,1.1313,-0.084,0.7805,182.9375
20:14:08:194,1.0715,0.5692,4.2355,36.2297,0.9902,-0.2733,0.7491,182.1562
20:14:08:211,1.3959,0.8386,4.1648,34.9722,0.8189,-0.4148,0.6524,181.2656
20:14:08:235,1.5875,0.8553,4.2798,34.6632,0.6333,-0.4875,0.4929,179.9688
20:14:08:250,1.4199,0.7763,4.6772,34.3954,0.3963,-0.443,0.3358,179.2031
20:14:08:271,1.3672,0.8003,5.2374,34.5721,0.1475,-0.3423,0.2127,178.5938
20:14:08:292,1.4654,0.8948,5.8911,33.8127,-0.0645,-0.3029,0.0929,178.1875
20:14:08:312,1.4019,0.9475,6.674,34.6122,-0.232,-0.3261,-0.0214,177.9531
20:14:08:330,1.5204,0.9343,7.6257,32.895,-0.3558,-0.3325,-0.1181,177.8281
20:14:08:350,1.5827,0.7416,8.5953,35.2593,-0.4623,-0.3104,-0.2043,177.8594
20:14:08:370,1.633,0.3394,9.8163,34.7689,-0.5553,-0.3037,-0.256,178
20:14:08:392,1.6342,-0.0473,11.0996,33.096,-0.6525,-0.2196,-0.2432,178.2656
20:14:08:410,1.925,-0.4746,12.2129,32.5616,-0.7151,0.0241,-0.1428,178.6094
20:14:08:429,2.86,-0.7476,11.8059,33.4239,-0.7286,0.2878,-0.0062,179
20:14:08:450,4.0942,-0.3525,10.6555,34.6498,-0.8336,0.3163,0.0391,179.2656
20:14:08:470,4.7382,0.1095,10.4328,32.9484,-1.1119,-0.0227,-0.1721,179.375
20:14:08:493,3.9278,-0.3406,12.3051,33.5726,-1.4397,-0.3527,-0.5183,179.3594
20:14:08:512,2.1046,-1.3952,14.7604,32.5973,-1.5268,-0.0986,-0.6539,179.3281
20:14:08:535,0.2695,-1.7879,15.1398,31.6674,-1.2341,0.6234,-0.4043,179.5781
20:14:08:551,0.6346,-0.9942,12.3554,33.4748,-0.8131,1.153,0.0737,180.7344
20:14:08:570,2.9031,0.0569,9.5685,34.0764,-0.6586,1.0969,0.3168,181.4219
20:14:08:593,4.3899,1.1091,8.6947,33.4667,-0.7388,0.6372,0.127,181.5938
20:14:08:611,4.1062,1.6203,9.3626,32.9739,-0.8312,0.1573,-0.3082,181.2656
20:14:08:632,2.8899,1.3641,10.3826,33.8842,-0.783,-0.0339,-0.717,180.9375
20:14:08:650,1.2978,0.8027,9.9648,33.9459,-0.6463,0.2058,-0.9407,181.0156
20:14:08:669,0.0133,0.5537,8.739,33.3567,-0.5547,0.6007,-0.9183,181.6406
20:14:08:692,-0.45,0.6542,7.4473,32.2812,-0.5073,0.8364,-0.7601,182.6406
20:14:08:710,-0.3411,0.9403,6.6596,34.0481,-0.4818,0.85,-0.599,183.6719
20:14:08:731,-0.122,1.224,6.4034,33.7676,-0.4261,0.6902,-0.4911,184.6406
