Time,Acc_X,Acc_Y,Acc_Z,Meg,Gyr_X,Gyr_Y,Gyr_Z,Ore
15:40:03:730,2.3775,3.8577,10.0821,58.6304,0.4272,-0.4901,0.2937,71.7031
15:40:03:777,1.208,4.6729,8.3978,58.0842,0.2927,0.1661,0.152,71.0312
15:40:03:795,1.3528,4.5472,8.4109,59.3781,0.261,0.2388,0.2015,71.0312
15:40:03:814,1.226,4.3018,8.6228,57.2908,0.2005,0.3331,0.2223,71.0312
15:40:03:846,1.2535,4.139,8.9784,56.7544,0.1254,0.316,0.2223,198.7969
15:40:03:864,1.2595,4.0444,9.4955,59.089,0.0791,0.1951,0.1781,198.4531
15:40:03:874,1.2906,4.3413,9.8559,58.6816,0.1047,0.1602,0.16,198.0781
15:40:03:893,1.0607,4.558,9.4393,58.3578,0.1726,0.2273,0.2085,197.7812
15:40:03:913,-0.298,4.3545,8.4516,57.2032,0.0594,0.703,0.3371,197.5312
15:40:03:933,-1.6507,3.4088,8.8156,58.8363,-0.5169,1.6732,0.6063,197.2656
15:40:03:963,-1.1108,2.1243,12.4512,57.2162,-1.1049,1.8844,0.7254,196.8438
15:40:03:979,-0.6774,1.6718,15.5457,57.838,-0.8687,0.8662,0.4745,196.0156
15:40:03:991,-1.2473,1.9806,14.3569,58.653,0.0533,-0.4129,0.2266,194.6562
15:40:04:011,-1.6818,2.493,10.5478,57.7897,0.8738,-0.6907,0.3168,193.5469
15:40:04:031,-0.7912,2.8736,6.8978,57.1762,1.1406,-0.2417,0.6018,193.1719
15:40:04:051,0.7136,3.1669,5.0902,57.3982,0.8565,0.3786,0.7906,193.0938
15:40:04:082,1.5911,3.131,5.2626,56.7104,0.281,0.7371,0.7736,192.6719
15:40:04:091,1.1769,3.1298,6.7003,55.4888,-0.2724,0.5783,0.5637,191.2656
15:40:04:115,0.0193,3.0999,8.7282,58.6758,-0.5864,0.2982,0.4324,190.125
15:40:04:129,-0.9205,2.985,10.0438,57.5554,-0.5231,0.0944,0.5355,189.3125
15:40:04:152,-0.5925,2.9371,10.0558,57.8149,-0.2176,0.0902,0.7882,188.7969
15:40:04:179,0.6944,2.9024,9.2094,57.5972,0.0743,0.2691,0.9419,188.1719
15:40:04:188,1.8113,3.0831,8.3679,57.3695,0.2298,0.4388,0.8623,187.75
15:40:04:216,1.9442,3.3669,7.7777,58.2313,0.2477,0.4939,0.6194,186.6875
15:40:04:228,1.1458,3.8062,7.6041,58.128,0.1995,0.458,0.3741,185.5625
15:40:04:249,0.2455,4.2862,7.5406,59.1493,0.1808,0.3421,0.2982,184.5469
15:40:04:282,-0.1184,4.6466,7.2905,58.0504,0.1744,0.2659,0.3808,183.8438
15:40:04:288,-0.0154,4.8273,7.0738,58.2349,0.1236,0.3354,0.5086,183.3594
15:40:04:318,0.1737,4.7675,6.984,57.2114,-0.0019,0.5512,0.5928,182.9219
15:40:04:326,0.1821,4.5699,7.3527,58.9016,-0.2224,0.7091,0.5992,182.3125
15:40:04:350,0.0624,4.2647,8.3607,57.9663,-0.436,0.6369,0.5525,181.5469
15:40:04:378,-0.1759,4.133,9.6607,56.9969,-0.47,0.3932,0.478,180.7031
15:40:04:397,-0.4428,4.2407,10.3718,58.7199,-0.2445,0.1634,0.4508,179.4688
15:40:04:407,-0.3698,4.5508,9.8547,59.9233,0.1244,0.1301,0.4987,178.8281
15:40:04:426,-0.1256,4.9015,8.3547,57.2331,0.4014,0.2103,0.5816,178.2969
15:40:04:445,0.3221,5.2068,6.8056,58.3665,0.445,0.2132,0.6649,177.6875
15:40:04:464,0.9171,5.4857,5.9569,58.1916,0.29,0.1621,0.7142,176.9531
15:40:04:484,1.5216,5.5444,5.7127,58.2194,0.045,0.0833,0.7323,176.1562
15:40:04:508,2.1729,5.609,6.0168,60.1836,-0.2029,-0.0835,0.699,175.2656
15:40:04:527,2.8349,5.6605,6.984,57.8295,-0.3633,-0.2515,0.6109,174.4062
15:40:04:543,3.3903,5.627,7.883,59.5588,-0.355,-0.3287,0.4937,173.6875
15:40:04:563,3.856,5.6246,8.4624,60.755,-0.245,-0.3261,0.3563,173.0625
15:40:04:584,4.2271,5.3648,9.1232,59.908,-0.1025,-0.3447,0.1762,172.625
15:40:04:607,4.2151,5.0021,9.796,59.1818,0.0972,-0.4358,-0.0714,172.3125
15:40:04:625,3.753,4.5723,10.1084,59.928,0.3443,-0.5253,-0.3468,172.2188
15:40:04:643,3.0695,4.3856,10.1515,60.9234,0.5558,-0.5767,-0.5777,172.4219
15:40:04:664,2.6445,4.8297,9.9803,59.4039,0.6972,-0.8052,-0.7356,172.6406
15:40:04:683,2.0735,5.5216,9.4728,59.2931,0.7497,-1.1972,-0.7961,173.6719
15:40:04:707,2.0687,6.5691,9.0215,59.6516,0.636,-1.2616,-0.7101,173.6719
15:40:04:727,2.2926,7.0108,8.5115,58.6367,0.3547,-1.0949,-0.5082,175.9062
15:40:04:748,3.1952,6.6661,8.7102,57.6726,-0.0882,-0.7085,-0.3684,177.0469
15:40:04:761,3.601,5.6677,9.7433,59.2573,-0.5859,-0.0907,-0.4661,177.0469
15:40:04:781,2.7786,4.2707,11.3139,58.2867,-0.9153,0.2177,-0.7101,177.8906
15:40:04:802,1.6473,3.5081,12.851,60.2245,-0.7923,-0.1381,-0.9378,178.5625
15:40:04:825,0.7687,3.2232,12.013,58.4701,-0.1982,-0.8073,-1.0219,179.1875
15:40:04:842,1.032,3.4267,9.4931,57.7491,0.3774,-1.1008,-0.9364,180
15:40:04:861,1.6904,3.6482,6.9649,59.2776,0.6445,-0.8022,-0.8379,181.2031
15:40:04:881,2.3105,3.9211,4.8615,58.2052,0.6096,-0.3359,-0.7687,182.6406
15:40:04:902,2.3237,4.0983,3.6489,57.1318,0.2943,0.0052,-0.7604,183.9375
15:40:04:928,1.9981,4.0061,3.8093,57.1318,-0.2072,0.1442,-0.737,185.0781
15:40:04:947,1.9119,3.8529,5.2554,58.0157,-0.6743,0.148,-0.7037,185.9844
15:40:04:961,1.7575,3.5763,6.7793,57.8514,-0.8767,-0.0214,-0.6589,186.8281
15:40:04:981,2.0292,3.3944,7.9321,57.8711,-0.8293,-0.1508,-0.5876,188.4219
15:40:05:002,2.4147,3.4866,8.2661,57.8845,-0.6232,-0.1865,-0.5719,188.8594
15:40:05:026,2.3776,3.5692,7.8699,57.2334,-0.4258,-0.1567,-0.5889,189.6719
15:40:05:043,2.4829,3.7822,7.3683,58.6706,-0.3212,-0.1935,-0.6137,190.4062
15:40:05:062,2.5835,4.1929,7.1696,56.7515,-0.277,-0.1951,-0.676,191.1719
15:40:05:082,2.2028,4.7232,7.2522,56.3022,-0.237,-0.0422,-0.7676,191.9375
15:40:05:108,0.9446,5.3169,7.567,56.4887,-0.196,0.2148,-0.8217,192.7188
15:40:05:125,-0.7481,5.4319,8.1823,57.8491,-0.2045,0.4939,-0.6738,193.5938
15:40:05:143,-1.3706,5.22,9.0729,57.8427,-0.2325,0.6468,-0.337,194.5156
15:40:05:162,-1.0426,4.8513,9.6523,57.3562,-0.2384,0.4556,-0.0291,195.2812
15:40:05:182,-0.2345,4.5448,9.7266,55.6148,-0.2581,0.014,0.1227,195.7188
15:40:05:209,0.558,4.3892,9.7709,56.9173,-0.2732,-0.3229,0.1398,195.7656
15:40:05:227,1.1505,4.37,9.7314,55.5593,-0.2807,-0.2464,0.0785,195.6875
15:40:05:245,1.3504,4.3748,9.8714,57.102,-0.3145,0.0699,-0.0216,195.5625
15:40:05:261,0.9937,4.2898,10.1408,56.9833,-0.4027,0.3195,-0.1452,195.5
15:40:05:283,0.5209,4.2192,10.8878,58.6721,-0.551,0.4657,-0.2469,195.5
15:40:05:309,-0.2525,3.9834,12.3279,55.757,-0.7018,0.5911,-0.3218,195.5469
15:40:05:325,-1.5202,3.5811,14.4048,58.2657,-0.7079,0.6276,-0.2861,195.7031
15:40:05:341,-2.6203,3.0652,16.0185,57.3413,-0.4426,0.4212,-0.1042,195.9219
15:40:05:361,-2.673,2.748,15.6941,57.076,0.0977,-0.1775,0.0953,196.1562
15:40:05:382,-2.0793,2.724,13.416,56.7369,0.6799,-0.6201,0.2644,196.2656
15:40:05:401,-1.434,2.8282,10.4113,57.1945,0.9382,-0.5231,0.4593,196.2344
15:40:05:424,-0.9635,2.8126,8.8228,55.4837,0.7803,-0.0049,0.6362,196.125
15:40:05:441,-0.9241,2.7264,8.4708,55.7181,0.4895,0.4156,0.7611,195.8594
15:40:05:467,-1.1503,2.5959,8.575,57.5998,0.2751,0.459,0.8556,195.2656
15:40:05:481,-1.3371,2.5277,8.6264,57.1702,0.233,0.3014,0.9651,194.3594
15:40:05:503,-1.1886,2.4092,8.1404,56.5772,0.3571,0.1307,1.1145,193.3438
15:40:05:530,-0.6212,2.3876,7.1097,56.4065,0.5236,0.0617,1.2748,192.1875
15:40:05:547,0.2611,2.4606,6.0323,57.117,0.6283,0.0806,1.3603,190.9375
15:40:05:561,1.1864,2.6725,5.0639,57.9779,0.6349,0.1568,1.3193,188.8281
15:40:05:582,1.5851,3.0664,4.6724,55.5383,0.5406,0.3269,1.1651,187.2031
15:40:05:601,1.3588,3.3884,4.7071,56.9421,0.3776,0.4681,1.0037,185.6094
15:40:05:627,1.1434,3.7008,5.2362,55.9798,0.1864,0.4462,0.8979,184.2031
15:40:05:641,1.3983,3.9415,5.6828,57.0144,0.0109,0.2004,0.8151,182.8906
15:40:05:661,1.8053,4.2479,6.2442,57.7959,-0.1702,-0.1202,0.7054,182.2812
15:40:05:682,1.7694,4.4586,6.9792,57.9673,-0.3097,-0.3287,0.6455,181.1875
15:40:05:709,1.9215,4.5652,7.9297,58.8529,-0.3318,-0.361,0.6945,180.3594
15:40:05:772,2.6732,4.625,8.7258,56.8046,-0.2035,-0.2507,0.7874,179.6875
15:40:05:781,3.5711,4.7818,9.0526,57.6554,-0.0107,-0.1173,0.8016,179.0781
15:40:05:781,4.111,5.117,8.9592,57.1537,0.13,0.0183,0.7227,178.3438
15:40:05:795,4.336,5.5743,8.7809,59.48,0.1633,0.0982,0.6077,177.5156
15:40:05:811,4.2367,5.7922,8.8144,58.7189,0.0565,0.1786,0.5081,176.6406
15:40:05:821,4.3612,5.8628,9.2525,57.7499,-0.1436,0.124,0.4045,175.4844
15:40:05:842,4.3348,5.9263,9.9696,58.1022,-0.3633,-0.0574,0.2719,174.8906
15:40:05:862,4.3444,5.8448,11.0542,55.6958,-0.5561,-0.1538,0.1808,174.4062
15:40:05:881,4.415,5.4079,12.4524,56.5336,-0.645,-0.1351,0.1235,174.1406
15:40:05:905,4.5515,4.5652,13.592,56.6821,-0.5707,-0.0574,0.0564,174.0469
15:40:05:925,5.0938,3.9474,13.6962,56.2796,-0.2852,-0.2273,-0.0967,174.0312
15:40:05:943,5.2817,3.9235,12.3566,54.6276,0.1081,-0.4491,-0.3425,174.0625
15:40:05:961,4.7969,4.2491,10.4317,54.5713,0.3633,-0.2635,-0.5237,174.25
15:40:05:982,3.7889,4.2934,8.8563,55.4719,0.3902,0.1805,-0.5926,174.7344
15:40:06:009,2.3452,3.884,8.2074,56.4826,0.2389,0.5959,-0.5268,175.3594
15:40:06:030,1.5683,3.1825,8.3894,54.7428,0.0794,0.8116,-0.3452,175.9375
15:40:06:045,2.1322,2.0716,7.1875,54.4206,0.1577,0.2979,-0.3343,176.3281
15:40:06:061,2.3285,1.995,6.0168,54.2158,0.2258,0.039,-0.53,176.3281
15:40:06:084,2.0998,2.0237,5.1608,52.7182,0.2083,0.0976,-0.6994,176.5938
15:40:06:111,1.8329,2.1302,5.0208,52.6307,0.1449,0.3251,-0.7846,176.875
15:40:06:127,1.445,2.3206,5.4074,52.4024,0.1254,0.4377,-0.8398,177.4531
15:40:06:144,0.8297,2.6354,5.8899,51.9895,0.1904,0.3895,-0.8459,178.2031
15:40:06:161,0.4682,2.9455,6.1329,51.1781,0.2684,0.3805,-0.7372,178.9531
15:40:06:180,0.455,3.4267,6.2035,52.8835,0.2977,0.3935,-0.5934,179.7812
15:40:06:203,0.3018,3.8852,6.4513,52.4078,0.2043,0.5269,-0.4315,180.6406
15:40:06:227,0.2012,4.1988,7.2474,50.5284,-0.0005,0.6614,-0.2446,181.3438
15:40:06:243,0.1282,4.382,8.3451,51.3904,-0.1894,0.5251,-0.0704,181.875
15:40:06:260,0.2024,4.5855,9.3195,50.8468,-0.3001,0.1914,0.0748,182.2031
15:40:06:281,0.3437,4.6142,9.7421,51.2174,-0.3574,-0.1136,0.1978,182.2812
15:40:06:303,0.6777,4.4933,9.8439,48.3292,-0.4402,-0.1998,0.3134,182.2188
15:40:06:326,0.8273,4.3269,10.3275,50.5465,-0.5755,-0.1631,0.352,182.0781
15:40:06:344,0.8812,4.2563,10.8267,50.1297,-0.6408,-0.3162,0.3009,181.8906
15:40:06:360,0.8788,4.3209,11.1272,48.4636,-0.6083,-0.4912,0.2231,181.625
15:40:06:381,0.8082,4.3868,11.4312,48.6962,-0.5409,-0.3327,0.1722,181.1406
15:40:06:403,0.0779,4.4418,11.4552,48.3634,-0.482,-0.0092,0.127,180.9844
15:40:06:425,-1.4807,3.9702,11.9424,48.4376,-0.6056,0.5986,0.2367,180.8906
15:40:06:442,-1.7991,2.9766,13.3741,48.9481,-0.8064,0.8961,0.4276,180.8125
15:40:06:460,-1.0988,2.2847,14.5126,47.4234,-0.7119,0.2787,0.4002,180.5781
15:40:06:481,-0.5996,2.1805,13.8039,46.946,-0.2272,-0.6212,0.1978,180.0156
15:40:06:502,-0.5805,2.4535,11.2385,47.4367,0.3057,-0.692,0.1182,179.3906
15:40:06:525,-0.711,2.7575,8.6408,47.0349,0.58,-0.0888,0.1781,179.125
15:40:06:542,-0.8199,2.8006,6.9349,46.5427,0.5137,0.6188,0.3166,179.1406
15:40:06:560,-0.3339,2.6606,6.5028,45.8947,0.244,0.8689,0.4077,179.0625
15:40:06:582,0.1426,2.5696,6.7182,47.6641,0.0706,0.6289,0.3547,178.6875
15:40:06:601,0.2132,2.6761,6.5973,48.3195,0.1001,0.3056,0.2708,178.0469
15:40:06:624,0.1893,2.8653,5.9461,47.6235,0.2133,0.2066,0.2695,177.7031
15:40:06:642,0.2982,3.0748,5.1429,45.7764,0.2701,0.2436,0.3483,177.1719
15:40:06:660,0.6705,3.2459,4.7311,48.0812,0.224,0.2798,0.4444,176.7969
15:40:06:684,1.1469,3.3968,4.7538,47.9011,0.1028,0.2841,0.5126,176.4219
15:40:06:708,1.6641,3.5751,5.3021,46.4238,-0.053,0.3291,0.5259,175.7188
15:40:06:726,2.1118,3.7164,6.4776,45.5721,-0.232,0.4249,0.47,175.0781
15:40:06:743,2.131,3.7296,8.0793,45.2281,-0.3563,0.4745,0.369,174.4062
15:40:06:761,1.6928,3.6901,9.6296,46.8005,-0.3643,0.3344,0.2705,173.7656
15:40:06:781,1.5121,3.6817,10.8758,44.9679,-0.2285,0.0681,0.2383,173.1719
15:40:06:802,1.8245,3.7978,11.3175,46.3129,0.0341,-0.2813,0.221,172.7188
15:40:06:830,2.526,3.9403,10.9787,45.2524,0.2828,-0.5562,0.1752,172.4062
15:40:06:843,3.2239,4.1641,10.6232,46.604,0.379,-0.5804,0.0524,172.0938
15:40:06:861,3.6896,4.3413,11.0278,45.7568,0.3779,-0.3341,-0.1276,172.0156
15:40:06:881,3.5411,4.5939,11.3857,45.803,0.4115,-0.084,-0.3287,172.0781
15:40:06:904,3.0156,5.1003,11.3187,44.0042,0.3904,-0.0952,-0.4611,172.2812
15:40:06:924,2.3883,5.7395,11.3079,44.9067,0.1965,-0.2678,-0.5197,172.4531
15:40:06:941,1.8927,5.9586,11.8287,44.7468,-0.1417,-0.3421,-0.4619,172.9219
15:40:06:960,1.7646,5.2858,13.3849,45.8899,-0.4589,-0.2518,-0.4051,173.5
15:40:06:981,2.1429,4.2204,15.0477,46.149,-0.4581,-0.4395,-0.4539,174.1562
15:40:07:001,2.7858,3.9068,15.2787,46.149,-0.0149,-0.9274,-0.6754,174.7344
15:40:07:026,2.2602,4.03,13.4603,45.713,0.5175,-0.8952,-0.889,175.2969
15:40:07:042,1.2571,4.2755,11.3103,44.1471,0.776,-0.3668,-0.913,176.0625
15:40:07:060,0.133,4.0205,9.8654,44.7309,0.7361,0.0865,-0.8049,177.2188
15:40:07:081,-0.2764,3.5476,9.4249,44.2003,0.5976,0.1485,-0.6557,178.4062
15:40:07:100,0.0253,3.0388,8.9676,47.1303,0.5744,-0.0262,-0.5998,179.3438
15:40:07:125,0.2874,2.6318,7.8866,45.1726,0.6485,-0.206,-0.6797,180.0938
15:40:07:143,0.0133,2.4068,6.6776,43.8309,0.7321,-0.3194,-0.8169,181.0938
15:40:07:161,-0.6679,2.1398,5.9066,45.8658,0.7617,-0.2289,-0.8347,181.875
15:40:07:181,-0.7624,2.086,5.3512,44.252,0.7705,-0.1602,-0.7473,182.875
15:40:07:201,-0.62,2.2607,5.0148,45.2399,0.7707,-0.2267,-0.6946,183.875
15:40:07:226,-0.5446,2.5696,5.0519,44.5479,0.7595,-0.2672,-0.6672,184.7188
15:40:07:242,-0.5326,2.9874,5.1955,44.1177,0.7657,-0.2025,-0.6145,185.5781
15:40:07:260,-0.6104,3.4626,5.0232,46.0896,0.7451,-0.0824,-0.5279,186.4062
15:40:07:280,-0.5242,4.0528,4.9082,45.3584,0.6261,0.0761,-0.4166,187.1562
15:40:07:303,-0.7792,4.5855,5.0232,45.1277,0.3697,0.25,-0.3053,187.7344
15:40:07:325,-1.1216,5.1386,5.4733,46.4656,0.0037,0.2079,-0.162,188.1719
15:40:07:341,-1.1527,5.5851,6.3268,45.6339,-0.3883,-0.19,0.0002,188.4375
15:40:07:360,-1.0246,5.6641,7.8399,46.2926,-0.641,-0.6283,0.1603,188.5312
15:40:07:381,-0.2549,5.4546,9.3567,44.9779,-0.653,-0.5695,0.3579,188.5625
15:40:07:405,0.6657,5.4474,10.1886,46.2032,-0.4764,-0.125,0.4239,188.6562
15:40:07:426,0.722,5.3672,10.549,46.7671,-0.2631,0.2428,0.3134,188.6094
15:40:07:443,-0.948,5.773,9.8642,46.4823,-0.0272,0.475,0.0282,188.0625
15:40:07:460,-1.8434,5.5492,9.231,47.114,-0.2088,0.3813,0.1009,187.625
15:40:07:481,-2.4049,4.8201,9.5781,45.9112,-0.5875,0.4422,0.27,187.3281
15:40:07:501,-1.7261,4.121,11.1966,45.9963,-0.8818,0.3214,0.4063,187.1406
15:40:07:525,-1.1335,3.9247,12.3817,46.6885,-0.7595,-0.1293,0.324,186.8906
15:40:07:542,-1.6734,4.0217,11.8897,45.9551,-0.2828,-0.3122,0.2583,186.4531
15:40:07:560,-2.5294,4.1869,9.8678,46.4969,0.1947,0.0556,0.3965,185.9219
15:40:07:580,-2.9591,4.1546,7.6975,47.3418,0.3326,0.7072,0.7081,185.5938
15:40:07:599,-2.3019,3.7403,6.3938,48.0472,0.1385,1.0883,1.0093,185.4062
15:40:07:625,-1.2736,3.3309,5.9473,47.754,-0.1513,0.9917,1.1209,184.9531
15:40:07:643,-0.6116,2.9934,5.6852,47.4731,-0.3553,0.5783,1.0665,183.9219
15:40:07:660,-0.2668,2.8761,5.5762,47.6044,-0.4234,0.2867,0.9787,182.4062
15:40:07:679,0.0576,2.8473,5.587,47.3575,-0.3641,0.3637,0.9283,180.8125
15:40:07:700,0.1438,2.8521,5.2219,47.7594,-0.1862,0.5685,0.8833,178.875
15:40:07:725,0.2192,3.0771,4.518,49.4086,-0.0405,0.7666,0.8886,177.7031
15:40:07:745,0.4143,3.4159,3.8799,46.8947,-0.0698,0.8894,0.9123,176
15:40:07:760,0.6837,3.7487,3.8835,48.1218,-0.2876,0.8747,0.911,176
15:40:07:833,1.0883,3.987,4.8795,50.4481,-0.6053,0.7735,0.8687,174.75
15:40:07:833,1.3816,4.1869,6.8942,50.5658,-0.8501,0.7421,0.7701,173.4375
15:40:07:833,1.2463,4.2743,8.9496,50.2763,-0.8831,0.712,0.679,171.5781
15:40:07:839,1.1996,4.5053,10.4209,49.2085,-0.7366,0.5296,0.6729,170.4219
15:40:07:863,1.4833,4.8153,11.2385,49.0019,-0.5364,0.2782,0.6745,169.4062
15:40:07:880,2.0903,4.9446,11.7592,50.4813,-0.4107,0.0303,0.6487,168.5156
15:40:07:900,2.8911,5.1912,12.195,50.444,-0.3281,-0.252,0.5211,167.625
15:40:07:920,3.4514,5.366,12.6212,51.3314,-0.3036,-0.3599,0.3171,166.8281
15:40:07:942,3.6501,5.6198,13.1551,50.0796,-0.3145,-0.3964,0.1065,166.1562
15:40:07:959,3.4645,5.8161,13.6818,50.4953,-0.3712,-0.3998,-0.076,165.7812
15:40:07:983,2.7678,5.2966,14.8777,50.6685,-0.4932,-0.0206,-0.1902,165.625
15:40:07:999,1.8185,3.823,16.5512,51.1424,-0.5012,0.3376,-0.2837,165.7344
15:40:08:020,1.6174,2.6809,17.224,51.9751,-0.1649,-0.1072,-0.4485,165.9375
15:40:08:042,1.8856,2.6546,15.4391,50.4138,0.4663,-0.9796,-0.7175,166.1719
15:40:08:062,1.5252,2.9766,11.6754,51.8663,0.9068,-1.1764,-0.8659,166.5312
15:40:08:080,1.1074,3.313,8.1895,49.6802,0.8711,-0.9152,-0.8736,166.8594
15:40:08:101,0.4347,3.4111,6.316,49.6961,0.4362,-0.5493,-0.8592,167.8281
15:40:08:127,-0.0526,2.9407,6.4513,50.9066,-0.1366,-0.2193,-0.7745,169.0625
15:40:08:146,0.0181,2.4164,7.6137,48.8761,-0.4844,-0.1562,-0.7205,170.8281
15:40:08:162,-0.1998,2.0644,8.4935,50.0249,-0.4703,-0.3783,-0.7726,171.8125
15:40:08:180,-0.45,1.9974,8.6528,50.1712,-0.2099,-0.5503,-0.8099,172.6875
15:40:08:201,-0.5302,2.0692,7.9848,50.2795,0.1595,-0.5588,-0.7836,173.625
15:40:08:225,-0.5841,2.2571,6.8715,50.3494,0.4631,-0.4196,-0.7117,174.6094
15:40:08:243,-0.6344,2.4355,5.8324,50.2766,0.6075,-0.2326,-0.6062,175.6719
15:40:08:262,-0.6631,2.6115,5.3559,49.3639,0.5723,-0.1988,-0.5074,176.6406
15:40:08:284,-0.4907,2.8353,5.672,49.341,0.4602,-0.2872,-0.4485,177.4531
15:40:08:299,-0.456,3.0879,6.0395,49.4354,0.4003,-0.3916,-0.4105,178.0781
15:40:08:320,-0.5709,3.3453,6.3352,51.6167,0.3654,-0.3351,-0.3418,178.6562
15:40:08:345,-0.608,3.6554,6.5195,48.899,0.3422,-0.1378,-0.2496,179.2344
15:40:08:363,-0.7792,3.9211,6.8308,48.7991,0.2951,0.1948,-0.1143,179.7188
15:40:08:386,-0.9121,4.0803,7.2569,49.2218,0.1909,0.5208,0.0926,180.125
15:40:08:399,-0.9013,4.1306,7.7657,47.5419,0.0594,0.5978,0.3366,180.3281
15:40:08:423,-0.7169,4.054,8.9113,49.1084,-0.1017,0.6558,0.5685,180.2344
15:40:08:444,-0.2214,3.7751,9.7948,48.0186,-0.2842,0.9397,0.6511,179.5
15:40:08:461,0.5436,3.4363,10.5933,49.1543,-0.3585,0.923,0.5355,178.6719
15:40:08:481,-0.116,3.143,10.1695,48.706,-0.3332,0.5251,0.1565,177.7188
15:40:08:500,-1.3646,3.1993,9.7649,49.4274,-0.4852,-0.0249,0.0556,176.8438
15:40:08:528,-1.622,3.2603,10.1455,49.0161,-0.8778,-0.178,0.2303,176.5312
15:40:08:544,-1.5501,2.4211,11.5976,49.3884,-1.3358,0.0798,0.4844,176.4844
15:40:08:561,-0.7289,1.1786,13.1431,48.5172,-1.448,-0.0893,0.6748,176.2656
15:40:08:580,0.4646,0.5022,12.4188,49.0221,-1.1761,-0.8686,0.7036,175.7188
15:40:08:600,2.7666,2.0477,11.2026,48.4222,-0.8192,-1.6286,0.4956,175.3594
15:40:08:627,3.0635,2.7982,9.4716,49.2412,-0.6794,-1.1951,0.0258,174.6562
15:40:08:645,0.7447,2.5552,7.9872,48.2095,-0.9026,-0.3271,-0.2049,174.25
15:40:08:661,-0.4261,2.305,8.4325,45.6001,-1.1593,-0.1117,0.0002,174.2969
15:40:08:679,-0.3339,2.1781,9.6452,46.3063,-1.2525,-0.2238,0.3201,174.6562
15:40:08:701,-0.2621,1.6502,10.0199,49.9413,-1.0392,-0.4731,0.5462,174.8906
15:40:08:726,-0.1423,1.4,9.4093,48.4929,-0.6876,-0.8001,0.7789,174.8125
15:40:08:742,0.8908,1.412,9.067,47.8472,-0.3196,-1.0086,0.9946,174.1719
15:40:08:759,2.7415,1.5999,8.4409,47.5956,-0.0085,-0.6505,1.0079,173.4844
15:40:08:780,3.1533,2.1338,8.1272,46.7073,-0.0242,0.2119,0.83,172.5
15:40:08:801,2.2818,2.4295,9.0993,47.543,-0.0583,0.1887,0.6908,171.4219
15:40:08:826,1.9382,2.3445,9.553,47.3004,0.2147,-0.3743,0.5509,170.5
15:40:08:843,2.18,3.0017,7.6472,47.3676,0.7689,-0.7591,0.3571,169.6875
15:40:08:860,3.0372,2.979,6.3064,45.9954,0.7699,-0.5743,0.3808,169.6875
15:40:08:884,3.6656,3.4351,6.1832,46.3484,0.4629,0.1991,0.3403,168.6719
15:40:08:899,3.3939,3.7954,7.2797,47.2973,0.184,0.9174,0.2508,168.25
15:40:08:922,2.5068,4.1653,7.379,47.4061,0.0993,1.0303,0.1861,168.0312
15:40:08:945,2.8013,4.3916,7.6388,45.6061,-0.0011,0.3368,0.181,168.0312
15:40:08:961,3.6908,4.2778,7.9848,46.8808,-0.2719,-0.4012,-0.0198,166.8906
15:40:08:979,3.8165,3.9068,9.3483,43.9698,-0.5981,0.0819,-0.2081,166.5
15:40:08:999,4.0547,3.2435,11.029,46.1741,-0.6796,0.6777,-0.3441,166.25
15:40:09:018,3.8632,2.991,12.6032,44.828,-0.5281,0.6327,-0.6142,166.3594
15:40:09:043,2.6002,2.888,14.8142,43.7953,-0.2735,0.4287,-0.7458,166.6562
15:40:09:061,2.0232,2.5205,16.6518,43.7953,0.0176,0.61,-0.603,167.0312
15:40:09:079,2.9845,1.6921,16.2831,45.0036,0.3212,0.5142,-0.4653,167.6719
15:40:09:099,3.9865,1.2216,14.7065,44.0117,0.5428,0.144,-0.6296,168.5
15:40:09:119,3.5016,1.2133,12.4356,43.912,0.6711,-0.0691,-0.9162,169.1094
15:40:09:144,2.0603,1.4491,9.863,42.6744,0.6461,0.0329,-1.0368,169.5469
15:40:09:159,0.2802,1.1534,7.725,44.4311,0.4104,0.3043,-0.8443,170.1719
15:40:09:179,0.2814,1.3821,6.8499,42.3749,-0.0272,0.4465,-0.5346,171.1875
15:40:09:200,1.1601,1.345,7.1193,42.5611,-0.4972,0.2167,-0.3196,172.8125
15:40:09:225,2.2662,0.7691,7.7106,40.9832,-0.8085,-0.4142,-0.3734,173.4844
15:40:09:242,2.5416,0.4783,8.806,40.6819,-0.9057,-0.6622,-0.672,173.8906
15:40:09:261,2.7163,0.8996,9.5733,42.7564,-0.7041,-0.3421,-1.048,174.2969
15:40:09:279,2.0675,1.1941,9.8247,42.4949,-0.245,0.1142,-1.4198,174.9844
15:40:09:300,0.9339,1.1821,9.4285,43.0881,0.4123,0.132,-1.6235,176.0938
15:40:09:326,-0.031,1.2348,8.8958,40.9405,1.089,-0.1335,-1.5471,177.5625
15:40:09:343,-0.5266,1.315,7.4186,40.7017,1.5223,-0.1367,-1.231,179.3125
15:40:09:362,-0.1938,1.5173,5.7307,41.936,1.4959,0.0982,-0.8675,181.0312
15:40:09:380,0.5783,1.8034,5.2195,42.5773,1.1396,0.0659,-0.6565,182.6094
15:40:09:400,1.2798,2.2332,6.1089,41.6289,0.6147,-0.3823,-0.7383,183.7188
15:40:09:426,0.4083,2.1458,8.1727,39.6785,0.2301,-0.4667,-0.8981,184.4375
15:40:09:443,-0.3004,2.2811,9.4261,41.38,0.1385,-0.4843,-0.8147,184.7812
15:40:09:459,-0.7469,2.3014,9.7002,40.5061,0.1744,-0.5375,-0.541,185.6719
15:40:09:479,-0.2884,2.4307,9.6488,41.6553,0.1015,-0.4616,-0.2366,186.7969
15:40:09:500,0.4382,2.3409,9.8139,39.8783,-0.0852,-0.1958,-0.0246,187.7656
15:40:09:525,0.6585,2.062,10.4293,40.4138,-0.3084,-0.043,0.0111,188.7188
15:40:09:545,0.2623,1.6981,11.4839,40.8376,-0.4794,-0.0406,-0.065,188.9219
15:40:09:562,-0.1447,1.7903,12.2979,40.1282,-0.5441,-0.1714,-0.0648,188.9375
15:40:09:580,-0.5099,1.7472,12.6176,42.1459,-0.5633,-0.1476,0.0934,188.9844
15:40:09:600,-0.3207,1.6885,12.5924,38.6936,-0.5832,0.0494,0.3485,189.1406
15:40:09:624,0.1378,1.5413,12.3626,39.4739,-0.5931,0.1237,0.5352,189.2188
15:40:09:644,0.5915,1.4144,11.6419,41.0084,-0.5465,-0.0843,0.5717,189.0156
15:40:09:659,0.6166,1.5928,10.7178,40.2382,-0.4221,-0.2241,0.4977,188.5
15:40:09:679,-0.0526,1.7065,9.6966,39.7012,-0.2953,-0.0331,0.4673,187.9062
15:40:09:699,-0.5829,1.8286,9.0873,42.339,-0.2732,0.4537,0.5984,187.3438
15:40:09:719,-0.3004,2.2176,8.4612,40.3369,-0.3417,0.7885,0.7685,186.8594
15:40:09:743,0.1869,1.9471,8.235,39.4881,-0.4461,0.895,0.9283,186.2656
15:40:09:759,0.9015,1.8094,7.9441,41.2745,-0.4517,0.6665,0.9981,185.4219
15:40:09:785,1.22,1.7687,7.2522,42.2138,-0.3742,0.2721,0.9494,184.3438
15:40:09:798,1.4127,2.0297,6.5291,40.942,-0.2828,-0.0286,0.854,182.5156
15:40:09:820,1.5851,2.3768,6.2203,41.7522,-0.1886,-0.0616,0.7528,181.4688
15:40:09:847,1.4163,2.5373,6.3639,40.9283,-0.0645,0.1349,0.6905,180.5156
15:40:09:911,1.4019,2.5576,6.8775,42.3458,0.0882,0.3903,0.683,179.6719
15:40:09:911,1.9011,2.7312,7.3886,40.5285,0.2549,0.5512,0.6559,178.9062
15:40:09:911,1.9538,3.0209,7.5311,42.171,0.3457,0.4873,0.535,178.0625
15:40:09:923,1.6533,3.3764,8.1236,40.6892,0.2679,0.4921,0.3834,177.2188
15:40:09:942,1.1158,3.7392,9.2549,42.3286,0.1859,0.5381,0.3248,176.8438
15:40:09:959,0.3425,3.7655,10.4041,42.2376,0.2413,0.532,0.4689,176.2812
15:40:09:982,0.6561,3.5069,10.8746,41.3413,0.3997,0.3781,0.7539,175.8281
15:40:10:000,1.7359,3.1945,11.0697,41.6014,0.5265,0.2236,0.9115,175.3125
15:40:10:028,2.7534,2.8078,11.0625,42.0703,0.5513,-0.0603,0.8197,174.5781
15:40:10:048,3.2131,2.6103,11.3714,42.5548,0.4421,-0.415,0.5419,173.5469
15:40:10:060,3.3939,2.6977,12.0669,40.6967,0.3055,-0.7937,0.233,172.4844
15:40:10:079,3.5531,2.7803,12.4751,41.8404,0.2155,-1.0909,0.0247,171.5
15:40:10:101,3.6644,3.0987,12.5338,41.7923,0.1196,-1.1059,-0.1018,171.3594
15:40:10:126,3.5723,3.0771,12.8031,41.8703,-0.037,-0.7415,-0.1601,171.5
15:40:10:143,3.917,2.6953,14.1032,41.6433,-0.1744,-0.2302,-0.2211,171.7812
15:40:10:159,4.3935,1.8753,15.0046,40.9017,-0.025,-0.1559,-0.4541,172.0938
15:40:10:179,4.3121,1.4108,14.1331,40.5832,0.3459,-0.4771,-0.8685,172.4062
15:40:10:200,3.2467,1.6358,12.2285,41.0488,0.6445,-0.6536,-1.293,172.9531
15:40:10:219,1.8029,2.0321,10.4137,41.7359,0.7084,-0.4283,-1.4755,173.9531
15:40:10:245,0.6441,2.1566,8.3427,41.9381,0.4189,-0.0233,-1.2432,175.5
15:40:10:263,0.4706,1.971,7.8423,41.3705,0.3153,-0.1535,-1.146,175.5
15:40:10:280,0.3305,1.8992,7.1564,40.2565,0.3159,-0.377,-1.1234,178.7188
15:40:10:301,0.1689,1.9651,6.3555,41.661,0.3625,-0.4997,-1.129,180.1094
15:40:10:326,-0.104,2.1147,5.739,41.4475,0.4211,-0.4694,-1.1218,182.7812
15:40:10:345,-0.5661,2.1698,5.4924,42.2373,0.4956,-0.3466,-1.0363,182.7812
15:40:10:360,-0.3794,2.3218,5.3057,40.5006,0.5646,-0.1887,-0.851,185.4531
15:40:10:379,0.0372,2.3218,5.2518,42.2014,0.5515,-0.0733,-0.685,186.0938
15:40:10:398,0.4287,2.3194,5.4685,42.8928,0.4093,-0.1461,-0.6107,186.6875
15:40:10:419,0.5472,2.5492,6.1544,40.8634,0.1824,-0.2696,-0.6038,187.6094
15:40:10:444,0.3521,2.7192,7.1181,41.4406,-0.0296,-0.3069,-0.5383,188.375
15:40:10:461,0.4047,2.9539,8.1165,40.21,-0.1507,-0.3144,-0.3977,189.0938
15:40:10:478,0.2671,3.0855,8.8467,41.2612,-0.1731,-0.2664,-0.2379,189.7969
15:40:10:498,0.1115,3.0628,9.6128,42.5059,-0.1593,-0.0558,-0.0299,190.5
15:40:10:518,0.4083,2.9084,10.2138,41.2925,-0.1577,0.1844,0.1584,191.0625
15:40:10:542,1.1709,2.7611,10.6986,40.2596,-0.196,0.3477,0.2407,191.4062
15:40:10:560,1.2643,2.6031,10.8255,41.0196,-0.2748,0.315,0.1725,191.4688
15:40:10:578,0.3796,2.6929,10.7214,42.5673,-0.4194,0.1589,0.0497,191.25
15:40:10:599,-0.8187,2.9347,10.8602,41.0471,-0.6365,0.1847,0.099,190.8906
15:40:10:618,-1.4879,2.8102,11.5162,39.812,-0.8735,0.4518,0.4199,190.6406
15:40:10:642,-0.9013,2.1961,12.3734,42.1322,-1.0219,0.6095,0.826,190.4531
15:40:10:660,0.4442,1.4431,12.7971,40.5496,-1,0.4071,1.0324,190.25
15:40:10:678,1.3349,1.1187,12.2848,40.7098,-0.8309,0.0151,0.9185,189.4844
15:40:10:698,1.208,1.3892,11.0027,41.899,-0.6333,-0.1687,0.6412,188.3125
15:40:10:718,0.3233,1.9639,9.8128,40.6917,-0.5598,0.1221,0.4806,187.1562
15:40:10:745,-0.2764,2.3553,9.2453,42.9607,-0.6253,0.5956,0.5619,186.375
15:40:10:761,-0.2992,2.329,8.9161,41.4799,-0.6765,0.8207,0.7374,185.8125
15:40:10:778,-0.0454,2.1422,8.8898,41.2198,-0.6397,0.8018,0.8585,185.2031
15:40:10:799,0.4718,1.9674,8.3523,41.798,-0.4525,0.4952,0.858,184.375
15:40:10:818,1.1481,2.062,7.3372,42.7157,-0.2754,0.0729,0.744,183.3906
15:40:10:844,1.5779,2.2835,6.5542,41.4705,-0.1814,-0.2033,0.5957,182.3125
15:40:10:860,1.4929,2.3792,6.0084,43.1408,-0.1185,-0.2656,0.5208,181.3438
15:40:10:880,1.6066,2.469,5.6636,41.9856,-0.0807,-0.1865,0.5211,180.9531
15:40:10:900,1.7922,2.5253,5.6193,41.8928,-0.0722,-0.0539,0.5472,180.3438
15:40:10:919,2.0531,2.6606,6.0958,43.8736,-0.1033,0.0809,0.5568,179.7812
15:40:10:945,2.3045,2.7563,7.6017,42.7658,-0.1585,0.2609,0.5416,178.9531
15:40:10:961,2.4147,2.7132,9.565,42.9336,-0.1404,0.258,0.4753,178.3125
15:40:10:979,2.1513,2.7156,11.0482,43.2982,-0.0264,0.0281,0.3624,177.6719
15:40:10:999,2.119,2.7982,11.4324,42.5859,0.1459,-0.341,0.3057,177.0469
15:40:11:018,2.3572,2.9443,10.8674,42.5964,0.2589,-0.6694,0.2748,176.5781
15:40:11:043,2.7199,3.1011,10.4101,43.8142,0.228,-0.7751,0.2481,176.2188
15:40:11:060,3.2,3.2017,11.0087,44.1781,0.1209,-0.6736,0.1789,175.9531
15:40:11:078,3.4657,3.0544,11.9783,43.5102,0.0948,-0.6193,0.0346,175.7344
15:40:11:099,3.674,3.0891,12.7133,45.2479,0.1348,-0.5993,-0.1657,175.5781
15:40:11:120,3.5076,3.3692,13.2137,44.8902,0.1617,-0.5082,-0.3694,175.5312
15:40:11:144,3.0491,3.6158,13.8841,44.8902,0.1414,-0.1897,-0.4451,175.6562
15:40:11:160,3.0551,3.5045,14.7376,44.7071,0.082,0.3067,-0.4142,176.0469
15:40:11:177,3.2131,2.7851,15.5576,47.1871,0.118,0.5232,-0.4328,176.5781
15:40:11:198,2.7774,1.837,15.1985,44.2925,0.3654,0.1762,-0.5916,177.0469
15:40:11:218,2.4757,1.5939,12.9743,46.7334,0.6602,-0.3524,-0.7913,177.4219
15:40:11:245,2.1369,1.9112,10.4221,46.934,0.7172,-0.4353,-0.9085,178.25
15:40:11:263,1.6521,1.8956,8.8347,46.8315,0.5814,-0.1961,-0.8861,179.1562
15:40:11:278,1.5983,1.7592,7.8615,45.3408,0.4221,0.0015,-0.8137,180.1562
15:40:11:298,1.4977,1.5532,7.0091,46.9626,0.3116,0.103,-0.7838,181.1562
15:40:11:318,1.3014,1.4048,6.4848,47.7174,0.2274,0.1616,-0.7766,182.0469
15:40:11:343,1.3289,1.3629,6.304,48.0756,0.1742,0.1067,-0.8035,182.8438
15:40:11:361,1.4187,1.4072,6.3495,49.6598,0.1776,-0.0073,-0.8608,183.6875
15:40:11:378,1.7994,1.4994,6.6021,47.3824,0.2431,-0.048,-0.913,184.5781
15:40:11:399,1.7515,1.3869,6.808,48.4699,0.388,-0.0464,-1.0065,185.0625
15:40:11:419,1.3205,1.3042,6.6273,49.2857,0.5683,-0.0803,-1.1133,186.0156
15:40:11:443,0.8525,1.5628,6.1724,48.2938,0.7039,-0.109,-1.1687,187.0938
15:40:11:461,0.3772,2.0249,5.8539,49.7781,0.755,-0.0432,-1.1167,188.2969
15:40:11:478,0.0384,2.3996,5.5283,50.814,0.6975,0.062,-0.9306,189.5312
15:40:11:498,-0.0909,2.5935,5.4637,50.0574,0.5151,0.1102,-0.68,190.8438
15:40:11:520,0.2467,2.7887,6.0144,50.437,0.1982,0.1235,-0.4443,191.9844
15:40:11:543,0.7268,2.9036,7.5167,50.7912,-0.1593,0.0588,-0.285,193.1562
15:40:11:562,0.5209,2.7863,9.4596,52.5351,-0.3902,-0.0334,-0.1593,193.625
15:40:11:578,0.5364,2.7815,10.8961,51.2431,-0.4418,-0.0547,0.0149,193.9375
15:40:11:598,0.7148,2.5672,11.4648,52.6053,-0.3944,-0.0518,0.172,194.1406
15:40:11:618,0.7902,2.2547,11.4671,52.2042,-0.3726,-0.0635,0.2335,194.1562
15:40:11:648,-0.1723,2.4846,11.1679,50.3979,-0.6882,-0.0883,0.1776,193.9844
15:40:11:663,-0.7696,2.3936,11.8143,52.369,-0.9888,-0.0265,0.3533,193.5625
15:40:11:678,-0.274,1.9842,13.0378,50.6533,-1.1574,0.0598,0.634,193.5625
15:40:11:699,0.7184,1.4192,13.6064,53.0747,-1.0346,-0.0696,0.7581,193.0625
15:40:11:722,1.4067,1.1714,12.8259,52.7551,-0.6959,-0.4057,0.6221,193.0625
15:40:11:747,1.3624,1.5939,11.2229,53.2512,-0.3521,-0.5271,0.3459,192.4062
15:40:11:761,0.2731,2.0285,9.8044,52.8642,-0.2,-0.1692,0.2098,191.6094
15:40:11:779,-0.3902,2.3685,9.2669,55.3047,-0.241,0.3861,0.3376,190.7188
15:40:11:797,-0.304,2.3397,9.3626,53.8759,-0.3329,0.6875,0.5706,190.6562
15:40:11:817,0.2144,1.9148,9.5195,53.4141,-0.3534,0.5477,0.748,190.5312
15:40:11:839,1.2343,1.6442,9.0358,55.7742,-0.2637,0.0276,0.7576,190.1094
15:40:11:862,1.8999,1.7328,7.8734,54.5339,-0.139,-0.5026,0.5893,188.8906
15:40:11:878,1.9251,1.9327,6.5399,54.3345,-0.0474,-0.7439,0.4156,188.4688
15:40:11:897,1.9167,2.2057,5.6373,54.5958,-0.0099,-0.6843,0.3102,187.6094
15:40:11:966,1.8472,2.3649,5.2075,56.1246,0.0189,-0.4454,0.2577,187.0156
15:40:11:967,1.7599,2.4271,5.1141,56.3612,0.028,-0.1498,0.2484,186.6875
15:40:11:967,1.7826,2.5672,5.4397,54.335,-0.0266,0.1019,0.2577,186.4375
15:40:11:981,1.8365,2.5732,6.3735,56.28,-0.1369,0.1874,0.2721,186.2031
15:40:11:998,1.761,2.5792,7.6316,55.1613,-0.2511,0.1158,0.2758,185.9375
15:40:12:018,1.7634,2.7252,8.9532,55.4421,-0.306,0.0244,0.3041,185.6562
15:40:12:044,1.7922,2.7264,9.9504,56.4426,-0.2642,-0.0733,0.3531,185.3281
15:40:12:060,2.2662,2.6283,10.4915,55.4338,-0.1337,-0.2302,0.389,185.0156
15:40:12:079,2.9115,2.6055,10.2317,57.3471,0.0336,-0.4004,0.3307,184.5156
15:40:12:098,3.5304,2.8449,9.802,55.5436,0.0898,-0.4049,0.1896,184.125
15:40:12:119,4.026,3.0305,10.5262,57.4918,0.0186,-0.149,0.0175,183.75
15:40:12:146,4.0619,2.9622,12.426,58.7497,-0.0216,0.1517,-0.1766,183.5156
15:40:12:163,3.9051,3.0209,14.5617,57.3084,0.0959,0.4276,-0.362,183.4219
15:40:12:181,3.3328,3.1131,15.7228,58.1374,0.3121,0.6068,-0.505,183.5156
15:40:12:197,2.9558,3.1466,16.0125,57.6019,0.4759,0.7158,-0.591,183.7656
15:40:12:217,2.8037,3.0329,15.9419,57.4118,0.5486,0.7688,-0.6344,184.1875
15:40:12:239,2.5056,2.6474,15.4331,56.7576,0.6842,0.6082,-0.7221,184.6875
15:40:12:258,2.0148,2.3266,13.8159,57.6323,0.9505,0.1501,-0.8739,185.2344
15:40:12:282,1.3888,2.2787,11.5438,56.7314,1.1662,-0.2249,-1.0102,185.8125
15:40:12:299,0.9195,2.4343,9.6523,56.9326,1.2054,-0.2353,-1.0539,186.6094
15:40:12:318,0.6597,2.4187,8.4277,57.1951,1.1108,-0.0235,-1.0113,187.6562
15:40:12:342,0.1534,2.1889,7.2198,56.9624,1.0016,0.0875,-0.9468,188.7812
15:40:12:361,-0.5793,2.0812,5.5247,57.6961,0.8442,-0.0776,-0.8565,189.9375
15:40:12:377,-0.3997,2.2727,4.0834,57.4249,0.5148,-0.3255,-0.6733,190.4688
15:40:12:398,0.7687,2.6462,4.0331,56.7361,0.0735,-0.3447,-0.4651,191.9375
15:40:12:418,1.8221,2.5109,5.3224,57.8879,-0.2256,-0.1508,-0.4094,192.8438
15:40:12:443,1.6629,1.9172,6.6692,58.6621,-0.2386,0.0705,-0.533,193.5625
15:40:12:460,1.1194,1.6526,7.3407,57.8251,-0.0149,0.0827,-0.7154,194.1094
15:40:12:477,0.8764,1.8573,7.2222,56.6613,0.3196,-0.0068,-0.8648,194.625
15:40:12:497,0.637,2.2272,6.4633,56.7743,0.5731,-0.0148,-0.9005,195.3125
15:40:12:518,0.5711,2.5528,5.7175,58.8767,0.6179,0.0862,-0.791,196.2188
15:40:12:543,0.3604,2.8318,5.2015,57.8896,0.4445,0.2404,-0.6384,197.1875
15:40:12:560,0.2168,3.0999,5.7079,57.3108,0.0836,0.3802,-0.4744,198.1562
15:40:12:579,-0.0394,3.0652,7.1408,58.4231,-0.3244,0.5048,-0.2978,198.9219
15:40:12:601,0.0887,2.7731,8.8515,60.003,-0.6437,0.4039,-0.1537,199.4688
15:40:12:619,0.2826,2.7144,10.6483,57.9163,-0.8314,0.0878,-0.0893,199.7656
15:40:12:646,-0.0071,2.5863,12.0597,56.6535,-0.8434,-0.1152,-0.0102,199.875
15:40:12:662,-0.1459,2.3553,12.5182,59.443,-0.7028,-0.2161,0.1358,199.9844
15:40:12:680,0.0683,2.226,12.2764,58.8272,-0.5151,-0.3705,0.2061,200.0156
15:40:12:697,-0.0981,2.0812,11.2385,57.819,-0.3537,-0.5538,0.1384,199.9062
15:40:12:720,-0.711,2.0045,10.2605,58.8939,-0.3611,-0.7034,0.1129,199.7656
15:40:12:744,-1.0988,2.4702,10.0713,57.3344,-0.5329,-0.6062,0.2103,199.7344
15:40:12:761,-1.5932,2.5253,10.7357,58.2482,-0.7361,-0.3524,0.4647,199.7656
15:40:12:778,-1.2592,2.4642,11.6611,57.8606,-0.8599,-0.0672,0.834,199.75
15:40:12:797,-0.2118,2.2045,12.511,57.7155,-0.8208,0.1067,1.1028,199.5
15:40:12:818,0.5508,2.0512,12.4404,57.5115,-0.612,0.0098,1.0844,198.875
15:40:12:837,0.5041,2.1231,11.7317,56.5466,-0.3736,-0.1562,0.8793,197.75
15:40:12:861,0.1785,2.3601,10.95,56.0724,-0.2125,0.0114,0.7533,196.4688
15:40:12:878,-0.1196,2.6306,10.227,57.5599,-0.1598,0.4066,0.7584,195.4219
15:40:12:902,-0.3698,2.5827,9.395,56.8316,-0.1627,0.5845,0.8402,194.125
15:40:12:917,-0.0801,2.4487,8.2912,57.4387,-0.164,0.4811,0.9565,193.1875
15:40:12:938,0.7351,2.335,7.1217,58.0188,-0.1803,0.2247,1.0135,192.1875
15:40:12:964,1.2439,2.1877,6.4226,57.9237,-0.1904,-0.0414,0.9456,191.0156
15:40:12:980,1.5719,2.1829,5.8755,58.9167,-0.1731,-0.2448,0.7848,189.8281
15:40:12:998,1.5767,2.329,5.6983,57.7692,-0.1284,-0.2726,0.6314,188.8281
15:40:13:021,1.5827,2.3781,5.6863,58.3666,-0.0533,-0.1892,0.5709,187.9688
15:40:13:045,1.8652,2.3804,5.7402,57.8209,-0.0035,-0.0797,0.5496,187.2969
15:40:13:062,2.0496,2.5397,6.8858,55.7421,-0.0775,-0.0092,0.4002,186.6719
15:40:13:078,1.9741,2.6402,7.8842,56.3622,-0.1396,-0.0475,0.3435,186.6719
15:40:13:097,1.943,2.7635,8.7126,56.7,-0.1763,-0.1498,0.323,186.0781
15:40:13:117,2.125,2.8186,9.1819,55.6707,-0.1883,-0.3234,0.3323,185.5312
15:40:13:140,2.435,2.7456,9.3579,57.5851,-0.2027,-0.5191,0.3243,184.7188
15:40:13:161,2.599,2.6881,9.7409,58.4786,-0.2522,-0.6507,0.2489,184.3906
15:40:13:178,2.5296,2.5361,10.6172,56.9944,-0.3422,-0.6611,0.1187,184.2344
15:40:13:196,2.52,2.651,12.1447,56.9944,-0.4067,-0.5921,0.0013,183.7969
15:40:13:216,2.2973,2.712,13.4316,56.0824,-0.3856,-0.4622,-0.0214,183.6094
15:40:13:238,2.696,2.8306,14.6071,55.5461,-0.4227,-0.0057,0.0511,183.5938
15:40:13:262,3.7662,2.4846,16.4172,56.71,-0.4687,0.597,0.0697,183.7188
15:40:13:279,4.3384,1.4527,17.6382,54.9789,-0.2607,0.6745,-0.1319,183.8281
15:40:13:302,3.9697,0.75,16.7871,55.1959,0.2253,0.0872,-0.5604,183.8125
15:40:13:316,3.1281,0.9858,14.0254,53.5239,0.6719,-0.3932,-0.9575,183.7188
15:40:13:336,1.9801,1.57,11.6767,53.9741,0.7337,-0.1391,-1.0805,183.8125
15:40:13:360,1.1505,1.6754,10.786,54.6916,0.5452,0.3687,-0.9324,184.4219
15:40:13:379,1.0775,1.388,10.4556,53.9696,0.3718,0.5344,-0.7085,185.5
15:40:13:396,1.2607,1.1498,9.8618,53.5929,0.3377,0.405,-0.5897,186.6406
15:40:13:417,1.3636,1.0337,8.7641,52.8625,0.4282,0.2058,-0.5593,187.5938
15:40:13:437,1.4857,0.9906,7.4138,54.7626,0.5393,0.054,-0.5575,188.3125
15:40:13:462,1.5324,0.9511,6.2179,52.327,0.6059,-0.0017,-0.5953,189.1562
15:40:13:480,1.4223,0.9284,5.4685,53.2171,0.6187,-0.0001,-0.6531,189.7344
15:40:13:497,1.2798,0.9547,5.1345,53.2004,0.5997,0.0111,-0.7055,190.3594
15:40:13:517,1.062,1.0457,5.2386,52.1495,0.5587,0.0894,-0.7149,191.0312
15:40:13:536,1.1182,1.1055,5.5666,54.7419,0.5212,0.0947,-0.6808,191.7344
15:40:13:561,1.0739,1.1343,5.9749,54.3658,0.5185,0.0188,-0.6922,192.5156
15:40:13:579,0.5939,1.2384,6.225,51.8513,0.5364,-0.0065,-0.7199,193.2656
15:40:13:597,0.0959,1.3557,6.2322,52.2588,0.5071,-0.0094,-0.6406,193.9688
15:40:13:617,-0.0741,1.6023,6.4513,54.4891,0.4093,0.0076,-0.448,194.7656
15:40:13:638,0.2252,1.8082,7.0091,51.0005,0.2586,0.0111,-0.2089,195.5312
15:40:13:661,0.7268,1.8681,7.9142,51.2511,0.0658,0.0215,0.0002,196.125
15:40:13:678,1.1302,1.7795,9.0442,52.548,-0.1593,0.0204,0.1179,196.4844
15:40:13:697,1.0859,1.6191,10.3359,53.6753,-0.3625,-0.0414,0.1358,196.5781
15:40:13:718,0.9566,1.5939,11.3163,51.8616,-0.4916,-0.1463,0.1376,196.5
15:40:13:737,0.5687,1.6634,11.7473,51.5357,-0.5646,-0.2478,0.1461,196.3594
15:40:13:762,0.0037,1.8908,11.6958,51.6068,-0.6698,-0.2851,0.1967,196.2969
15:40:13:780,-0.4141,2.1494,11.7616,52.779,-0.9073,-0.1721,0.3746,196.1562
15:40:13:797,-0.0346,2.0776,12.5457,51.6653,-1.252,0.0731,0.6785,196.0625
15:40:13:817,1.1841,1.5114,14.1427,53.6843,-1.4325,0.046,0.8604,195.8438
15:40:13:837,1.9777,1.0146,14.9136,50.9411,-1.2011,-0.296,0.6934,195.3125
15:40:13:861,1.6737,1.1714,14.0744,52.326,-0.6746,-0.6201,0.2753,194.5
15:40:13:879,0.4191,1.6694,12.4033,52.2734,-0.1531,-0.4307,-0.0773,193.6406
15:40:13:897,-0.8403,2.3349,10.8291,53.7379,0.118,0.2566,-0.105,193.2031
15:40:13:917,-1.5082,2.4451,9.8379,51.6708,0.1449,0.8633,0.1629,193.2344
15:40:13:937,-1.0665,2.2523,9.0466,50.8767,0.09,1.0327,0.5123,193.4062
15:40:13:965,-0.3147,1.9998,8.1033,52.3762,0.0423,0.8364,0.7235,193.2969
15:40:13:979,0.3652,1.8525,7.2007,51.7533,-0.0115,0.3405,0.7587,192.7656
15:40:14:046,0.9458,1.9291,6.5842,52.605,-0.0663,-0.1327,0.6798,191.9375
15:40:14:046,1.2643,2.0752,6.2813,50.3584,-0.078,-0.3378,0.5922,190.9844
15:40:14:047,1.4762,2.0919,6.2322,51.9951,-0.0258,-0.325,0.5171,190.1562
15:40:14:061,1.5755,2.1183,6.3196,50.4197,0.0834,-0.2105,0.4178,189.1875
15:40:14:081,1.4007,2.1386,6.5291,50.4076,0.2157,-0.064,0.3054,188.6406
15:40:14:097,1.2583,2.2117,6.7159,49.8026,0.3246,0.0939,0.2505,188.1875
15:40:14:116,1.3516,2.3924,7.1887,50.9862,0.3361,0.2233,0.2348,187.8281
15:40:14:138,1.4235,2.5049,8.0925,51.8474,0.2602,0.2814,0.2332,187.5312
15:40:14:161,1.7874,2.6115,9.2944,52.4762,0.1798,0.2369,0.2524,187.2031
15:40:14:179,2.0124,2.5444,9.9708,52.7366,0.171,-0.0129,0.2407,186.8906
15:40:14:196,2.2231,2.578,10.0294,53.4186,0.171,-0.403,0.2093,186.5781
15:40:14:218,2.787,2.7958,9.9935,53.6367,0.1087,-0.7053,0.1523,186.2812
15:40:14:237,3.4011,2.9048,10.5598,51.7813,0.0117,-0.8102,0.0567,186.1875
15:40:14:260,4.1086,3.0664,11.6479,52.47,-0.0338,-0.7437,-0.0885,186.0469
15:40:14:277,4.2582,2.9646,12.5577,52.528,0.0298,-0.6797,-0.2928,186.0312
15:40:14:303,4.1385,2.8521,12.7181,52.9707,0.1015,-0.6656,-0.4944,186.4844
15:40:14:318,4.0343,2.8593,13.0258,51.6943,-0.1542,-0.3277,-0.656,187
15:40:14:339,4.7119,2.2476,13.7057,52.8232,-0.236,-0.1141,-0.636,188.1875
15:40:14:363,4.8675,1.3773,13.6124,52.7108,-0.1047,-0.1596,-0.8206,189.0156
15:40:14:382,4.3755,1.0708,12.5158,50.775,0.1057,-0.2654,-1.121,189.7344
15:40:14:397,3.3089,1.2659,11.0075,49.8623,0.2107,-0.0779,-1.3319,190.7188
15:40:14:417,1.9011,1.2348,9.7685,50.946,0.175,0.2817,-1.3183,192.0312
15:40:14:439,1.5049,1.3031,8.7569,49.3081,0.0687,0.5118,-1.141,193.4688
15:40:14:462,1.6258,1.1295,8.138,50.0219,-0.0133,0.5661,-0.9894,193.4688
15:40:14:482,1.864,0.7153,7.7202,48.0926,-0.0181,0.4513,-0.9479,196.1406
15:40:14:497,2.3249,0.5297,7.3443,48.3017,0.0453,0.1709,-1.0624,196.1406
15:40:14:517,2.3955,0.6087,6.9265,49.093,0.1563,-0.1029,-1.3016,197.1719
15:40:14:538,1.8915,0.817,6.4393,48.1701,0.3081,-0.1935,-1.5013,198.1406
15:40:14:562,1.3516,1.1678,5.9557,46.6586,0.4397,-0.0408,-1.562,199.3125
15:40:14:579,0.8824,1.4359,5.7438,46.8549,0.4948,0.1999,-1.5002,200.8125
15:40:14:596,0.6561,1.5784,5.8635,46.1814,0.481,0.3498,-1.3735,202.4688
15:40:14:616,0.5807,1.6394,6.146,45.9505,0.4349,0.365,-1.2358,205.0938
15:40:14:638,0.5783,1.7149,6.5698,45.5935,0.3505,0.2896,-1.0968,205.8906
15:40:14:664,0.7028,1.746,7.1863,46.8256,0.2171,0.1866,-0.9548,208
15:40:14:684,0.935,1.8358,8.3331,46.808,0.0602,0.1006,-0.8272,208.6406
15:40:14:699,0.8692,1.8226,9.6404,44.5061,-0.0517,0.006,-0.7093,209.8281
15:40:14:722,0.9566,1.9375,10.5921,46.6204,-0.1214,-0.0318,-0.5418,210.8906
15:40:14:735,1.0607,1.898,11.0769,43.832,-0.1577,0.0081,-0.3457,211.7656
15:40:14:756,1.1757,1.7603,10.8878,44.5364,-0.175,-0.0518,-0.1694,212.5781
15:40:14:780,1.2427,1.7173,10.3646,44.1249,-0.2517,-0.239,-0.0754,213.2031
15:40:14:798,1.2307,1.8465,9.8965,45.2409,-0.4645,-0.2907,-0.0099,213.5781
15:40:14:816,1.1386,2.0608,10.0749,43.5936,-0.8663,-0.0659,0.0798,213.7812
15:40:14:840,1.123,2.0548,11.7856,45.0531,-1.3947,0.3038,0.2053,213.9219
15:40:14:860,1.785,1.5329,15.1004,42.9746,-1.6461,0.5011,0.2657,213.9844
15:40:14:881,2.3285,0.8913,16.89,43.9664,-1.2589,0.1317,0.0764,213.9062
15:40:14:896,2.4266,0.8517,15.4906,44.9879,-0.4487,-0.5556,-0.374,213.4219
15:40:14:917,1.6725,1.2671,12.4176,44.7956,0.2818,-0.8659,-0.8701,213.1406
15:40:14:938,0.2324,1.8944,9.9241,44.228,0.629,-0.4616,-1.1455,213.2969
15:40:14:962,-1.428,2.3649,8.6779,41.4148,0.6706,0.2494,-1.1213,214.1406
15:40:14:980,-2.4204,2.5708,8.0662,41.5076,0.5385,0.7988,-0.7926,215.4375
15:40:14:997,-2.2516,2.2691,7.6508,42.8299,0.3239,0.8492,-0.3114,216.7188
15:40:15:017,-0.9276,1.7843,7.5263,41.7764,0.0503,0.3746,0.078,217.7656
15:40:15:037,0.4395,1.3366,7.4461,40.8893,-0.179,-0.3357,0.2359,218.2656
15:40:15:061,1.5049,1.09,7.2737,40.8256,-0.2682,-0.8997,0.2114,218.2656
15:40:15:078,2.2159,1.0792,6.8691,41.1457,-0.1973,-1.0531,0.0519,218.0469
15:40:15:096,2.447,1.1738,6.401,39.873,-0.036,-0.8379,-0.1625,217.875
15:40:15:116,2.3273,1.3581,5.9629,40.0092,0.1262,-0.4528,-0.3548,217.8594
15:40:15:138,1.9274,1.4563,5.7378,40.3535,0.2234,-0.0603,-0.4675,218.0781
15:40:15:161,1.7826,1.6059,5.7594,39.0271,0.1875,0.2146,-0.4813,218.4844
15:40:15:177,1.7994,1.7149,6.3459,40.7076,-0.013,0.275,-0.4568,218.7344
15:40:15:197,1.8903,1.8453,7.6855,38.5818,-0.3039,0.1802,-0.4389,219.5156
15:40:15:216,2.1405,1.8729,9.7828,37.2365,-0.4764,-0.0118,-0.4376,220
15:40:15:237,2.4626,1.7065,11.4013,40.5645,-0.3473,-0.3266,-0.4842,220.4844
15:40:15:261,2.6014,1.509,11.2972,40.5645,-0.016,-0.7184,-0.5924,220.9375
15:40:15:278,2.9486,1.8142,10.2461,37.2702,0.2027,-0.9623,-0.7388,221.4844
15:40:15:296,3.3616,2.165,9.9073,40.0933,0.1923,-0.8976,-0.8904,222.1719
15:40:15:316,3.6357,2.3709,10.774,38.4883,0.0903,-0.6307,-1.0273,223.0625
15:40:15:336,3.7027,2.3828,12.2417,39.1666,0.0392,-0.4598,-1.1657,224.0938
15:40:15:361,3.3879,2.4187,13.2137,38.2458,0.0692,-0.5218,-1.3013,225.3125
15:40:15:380,3.1006,2.7312,13.6231,37.2934,0.0719,-0.6265,-1.3673,226.6406
15:40:15:397,3.2275,2.973,13.8841,36.5389,-0.0487,-0.4534,-1.3402,228.0625
15:40:15:417,4.0343,2.7228,15.0189,36.5347,-0.2141,-0.0163,-1.3162,229.6875
15:40:15:438,4.2295,1.7927,15.9168,34.2277,-0.0711,0.0846,-1.4733,231.3438
15:40:15:461,3.2706,1.0983,14.5593,36.1631,0.3204,-0.3202,-1.7562,232.8281
15:40:15:478,2.6768,1.4683,12.0034,34.0306,0.5606,-0.5461,-1.9532,235.25
15:40:15:496,2.0663,1.667,10.294,35.0626,0.5417,-0.2771,-1.9727,237.3125
15:40:15:516,1.5767,1.3857,9.6607,33.435,0.4983,-0.0241,-1.8933,239.5
15:40:15:536,1.135,1.0146,8.8814,32.591,0.5955,0.0215,-1.8315,241.8125
15:40:15:560,0.6717,0.8577,7.5215,32.3578,0.75,-0.0233,-1.7631,243.9688
15:40:15:576,0.4478,0.8146,5.9641,32.6897,0.8386,-0.0824,-1.6717,246.0625
15:40:15:595,0.5903,0.847,4.6688,32.4503,0.779,-0.0986,-1.5812,247.9688
15:40:15:616,1.0033,0.8721,4.2199,32.7075,0.5923,-0.1176,-1.5423,249.9062
15:40:15:637,1.5384,0.8913,4.737,30.314,0.3776,-0.199,-1.558,251.75
15:40:15:662,1.384,0.817,5.5104,30.6623,0.2511,-0.2579,-1.6084,253.4531
15:40:15:678,1.2212,1.0409,6.249,31.1718,0.188,-0.2339,-1.6044,255.2969
15:40:15:698,0.8501,1.3569,7.063,29.3186,0.1566,-0.0853,-1.5298,256.2344
15:40:15:716,0.4969,1.5317,7.719,30.6886,0.183,0.0817,-1.3482,258.1562
15:40:15:737,0.5723,1.8178,7.7454,29.6235,0.1893,0.202,-1.1005,259.9219
15:40:15:763,0.7914,2.0022,7.634,29.411,0.0549,0.1626,-0.8648,261.5938
15:40:15:780,1.0129,2.1709,8.0458,29.5496,-0.1872,-0.0065,-0.6611,262.9688
15:40:15:797,0.7531,2.0512,8.6061,29.9579,-0.4043,-0.2382,-0.4722,264.4375
15:40:15:816,0.619,2.1063,9.1663,30.1185,-0.5654,-0.3373,-0.2999,265.1875
15:40:15:837,0.3856,2.2907,9.8858,28.5801,-0.6892,-0.2781,-0.1521,265.7656
15:40:15:863,-0.3698,2.1494,10.786,29.6135,-0.8155,-0.1953,0.1485,266.3281
15:40:15:879,-0.7361,2.2476,10.6974,27.9478,-0.9888,-0.1527,0.2716,266.3281
15:40:15:897,-1.1563,2.4439,11.3654,27.9851,-1.3108,0.0076,0.4508,266.3281
15:40:15:916,-0.9073,2.1302,13.2436,28.6343,-1.6368,0.2103,0.7294,265.8281
15:40:15:936,0.3461,1.4,15.4224,28.7834,-1.6634,0.0542,0.8849,265.8281
15:40:15:962,1.1864,0.7703,15.8605,27.517,-1.2083,-0.4837,0.7376,265.2656
15:40:15:981,1.5551,0.8876,13.9164,30.1143,-0.5036,-0.8776,0.3896,264.3125
15:40:15:995,0.9327,1.3605,11.0972,25.8046,-0.0024,-0.6819,0.0287,263.2812
15:40:16:015,-0.304,1.8346,9.1938,27.9793,0.1156,-0.0411,-0.1319,262.4531
15:40:16:036,-1.173,2.2176,8.721,26.0249,0.0224,0.6175,-0.0182,262.125
15:40:16:061,-1.4029,2.0488,8.4804,27.5811,-0.0884,0.8931,0.2604,262.2188
15:40:16:127,-0.6786,1.5856,8.0051,28.4316,-0.2141,0.6345,0.5222,262.2969
15:40:16:127,0.4897,1.3342,7.6233,29.4691,-0.363,0.0771,0.6039,262.0781
15:40:16:128,1.3624,1.3078,7.4293,28.6155,-0.4565,-0.3908,0.5283,261.5469
15:40:16:141,1.7814,1.4072,7.4042,29.9742,-0.4194,-0.5477,0.3864,261.1875
15:40:16:161,1.609,1.424,7.1324,29.0506,-0.2474,-0.4758,0.2247,260.4688
15:40:16:177,1.2798,1.5018,6.838,29.011,-0.024,-0.2792,0.119,259.8906
15:40:16:195,1.0739,1.6107,6.4226,28.0907,0.1707,-0.0398,0.0987,259.5
15:40:16:220,1.1338,1.7747,6.1891,29.3824,0.2373,0.1786,0.1382,259.2969
15:40:16:234,1.4714,2.0345,6.4489,29.8475,0.1396,0.3168,0.1744,259.1875
15:40:16:255,1.7,2.3792,7.6352,29.8772,-0.0381,0.3128,0.1232,259.0781
15:40:16:286,1.615,2.7204,9.456,29.8983,-0.131,0.1514,0.0199,258.9062
15:40:16:295,1.2259,2.9443,10.9691,30.3605,-0.0213,-0.0707,-0.04,258.5156
15:40:16:324,1.3504,3.1669,11.5641,30.71,0.2277,-0.2699,0.0039,258.4844
15:40:16:335,1.9239,3.3022,11.3965,30.3561,0.4418,-0.3687,0.0588,258.4844
15:40:16:357,2.4302,3.1909,11.3798,30.735,0.4733,-0.362,0.0633,258.5469
15:40:16:390,2.9677,3.0197,12.2106,29.5886,0.4064,-0.3703,0.0108,258.5469
15:40:16:395,3.2275,2.8246,13.0473,31.4404,0.3963,-0.4411,-0.097,258.5312
15:40:16:421,3.0419,2.6929,13.4029,32.3163,0.3883,-0.4166,-0.1521,258.5156
15:40:16:434,2.7606,2.5397,13.6088,31.2304,0.2424,-0.1791,-0.1031,258.6094
15:40:16:456,3.1856,2.0393,14.5928,32.6301,-0.0131,0.0966,-0.031,258.8281
15:40:16:483,3.7147,1.1247,16.0497,33.0369,-0.0554,0.149,-0.1609,259.0156
15:40:16:501,3.3245,0.1538,15.7612,31.3414,0.3001,-0.1434,-0.4605,259.0938
15:40:16:518,2.8827,-0.3753,13.4615,32.2296,0.7534,-0.5684,-0.7346,259.1406
15:40:16:536,2.8157,-0.2412,10.7417,34.0566,0.9196,-0.667,-0.9037,259.4844
15:40:16:563,2.599,-0.0473,9.4117,32.4717,0.7563,-0.4089,-1.0193,260.2344
15:40:16:580,2.2902,-0.003,9.2226,33.7146,0.567,-0.1229,-1.1466,261.2812
15:40:16:597,2.0172,0.0808,8.9963,35.9016,0.5577,0.0641,-1.3141,262.4062
15:40:16:616,1.5216,0.1921,8.1512,33.8157,0.6932,0.1496,-1.4957,263.0156
15:40:16:638,0.9889,0.3226,6.9146,36.7167,0.833,0.1453,-1.6486,265.0781
15:40:16:661,0.643,0.5585,5.7594,35.9569,0.8783,0.0449,-1.7743,266.5781
15:40:16:679,0.3114,0.835,4.9346,35.5083,0.8195,-0.071,-1.8608,268.3594
15:40:16:696,-0.0657,1.0134,4.5264,36.6511,0.6972,-0.1469,-1.8632,270.3281
15:40:16:717,-0.1902,1.1307,4.4593,36.4742,0.5513,-0.1977,-1.7884,272.3281
15:40:16:737,-0.1866,1.2025,4.7478,38.8415,0.4192,-0.2526,-1.6949,274.5156
15:40:16:762,-0.4979,1.327,5.0363,39.3412,0.3135,-0.252,-1.5708,276.6719
15:40:16:780,-0.6116,1.5305,5.2913,37.5933,0.1451,-0.2153,-1.3633,278.7344
15:40:16:795,-0.0562,1.9148,6.1772,38.3913,-0.1196,-0.1639,-1.1327,280.5938
15:40:16:815,0.6059,2.056,7.9513,40.7046,-0.3236,0.0071,-0.9727,282.3594
15:40:16:836,0.303,2.1051,9.3806,38.6296,-0.3103,0.1951,-0.9194,283.8281
15:40:16:863,-0.4823,2.4942,9.9277,37.9162,-0.1806,0.2508,-0.8603,284.9688
15:40:16:883,-1.519,3.058,9.8654,40.5445,-0.1582,0.3586,-0.6515,286.4844
15:40:16:903,-2.1403,3.4494,10.1683,40.2433,-0.3457,0.5277,-0.2573,287.4062
15:40:16:914,-2.1858,3.4135,11.0613,41.5561,-0.6157,0.414,0.1658,288.0312
15:40:16:935,-2.3713,2.8868,11.7006,40.4089,-0.8024,0.0159,0.4695,288.1875
15:40:16:956,-2.2576,2.7336,11.7305,42.6385,-0.9305,-0.3761,0.7113,287.8594
15:40:16:978,-1.9691,2.5959,11.5952,42.487,-1.0767,-0.5764,0.9384,287.2812
15:40:16:997,-1.3442,2.3302,11.9951,43.1518,-1.2112,-0.5141,1.1605,286.4531
15:40:17:016,-0.6487,1.8992,12.7564,42.0546,-1.2248,-0.3122,1.3102,285.4062
15:40:17:036,0.1557,1.5676,13.5154,43.3029,-1.0631,-0.1165,1.29,284.0781
15:40:17:057,0.2707,1.4575,13.6112,42.4093,-0.7132,-0.0891,1.0732,283.4062
15:40:17:078,-0.4069,1.4874,12.766,42.9888,-0.2815,-0.1013,0.8191,281.8438
15:40:17:095,-1.2461,1.6215,11.126,44.5076,0.02,0.0923,0.7238,280.4375
15:40:17:116,-1.6148,1.6574,9.699,44.4118,0.065,0.3773,0.8087,279.3594
15:40:17:135,-1.3993,1.4084,8.8371,43.2777,-0.0378,0.5099,0.9501,278.5469
15:40:17:154,-0.6822,1.0804,8.1763,46.4558,-0.1603,0.3996,1.0234,277.6562
15:40:17:176,0.2994,0.8805,7.7238,43.7013,-0.241,0.0827,0.9608,276
15:40:17:197,1.0284,0.847,7.3599,45.779,-0.2075,-0.2611,0.7904,274.8281
15:40:17:223,1.3756,0.8781,6.5662,43.7009,-0.0711,-0.4606,0.5973,273.7031
15:40:17:245,2.5918,1.2516,5.8085,45.0474,0.2104,-0.2853,0.1872,272.2344
15:40:17:257,3.4549,1.4623,6.571,47.4019,0.3952,0.1054,-0.0821,272.2344
15:40:17:281,2.8325,1.09,6.8906,45.502,0.6357,0.4004,-0.3833,271.6562
15:40:17:298,1.6808,1.2791,6.9385,47.1172,0.7633,0.4787,-0.6086,271.6562
15:40:17:315,0.358,2.0393,6.8954,47.1172,0.6932,0.3315,-0.681,271.7344
15:40:17:335,-0.541,3.0784,7.2737,45.98,0.3681,0.0955,-0.5231,272.1406
15:40:17:361,-0.8702,3.6063,8.1644,47.8859,-0.0511,-0.182,-0.1572,272.7969
15:40:17:379,-0.5446,3.6446,9.0514,48.6877,-0.3374,-0.5266,0.282,273.5625
15:40:17:395,0.3066,3.6937,9.7361,48.2147,-0.5079,-0.7924,0.6106,274.125
15:40:17:417,1.0943,3.8457,11.928,46.9027,-0.5997,-0.8268,0.7723,274.3281
15:40:17:435,1.5983,3.7032,15.2368,48.29,-0.3057,-0.6571,0.8497,273.5
15:40:17:455,3.0575,3.5644,15.9228,50.52,0.3878,-0.663,0.8122,273.125
15:40:17:480,4.2546,3.7128,13.6303,49.0732,0.8898,-0.8473,0.532,272.2812
15:40:17:496,4.2762,4.23,11.1846,50.443,0.7593,-0.9226,0.1914,271.3906
15:40:17:514,3.838,5.0165,10.7956,50.0637,0.2107,-0.8249,-0.0272,270.75
15:40:17:535,4.0008,4.856,12.2213,48.5895,-0.2445,-0.3788,-0.1825,270.5625
15:40:17:555,3.7219,3.6314,13.604,50.3941,-0.3728,0.022,-0.3982,270.4688
15:40:17:579,3.0132,2.9144,14.8154,51.6427,-0.1933,0.0702,-0.7585,270.625
15:40:17:598,1.8592,2.7611,14.4084,51.1588,0.3012,-0.0275,-1.1577,270.8906
15:40:17:625,0.6573,3.0065,12.2848,48.5996,0.7721,0.1655,-1.3759,271.3594
15:40:17:634,-0.1747,3.1167,9.9492,50.7442,0.9108,0.658,-1.285,272.2344
15:40:17:655,-0.4464,2.8581,8.6516,49.1476,0.7667,1.0292,-1.0464,273.4844
15:40:17:680,-0.5302,2.2655,8.4708,50.8799,0.5981,1.0582,-0.8219,275.0156
15:40:17:701,-0.5398,1.661,8.3463,49.4393,0.6069,0.8747,-0.6294,276.3594
15:40:17:715,-0.1352,1.3114,7.3491,48.6138,0.7476,0.5703,-0.4691,277.3125
15:40:17:740,0.4191,0.9858,5.994,49.947,0.8642,0.303,-0.3876,278.3594
15:40:17:753,0.8632,0.7524,4.7706,48.3628,0.8679,0.1272,-0.391,278.8438
15:40:17:777,1.2331,0.6662,3.9422,47.9565,0.7555,0.039,-0.4384,279.25
15:40:17:795,1.4055,0.7452,3.7878,50.0599,0.5329,0.0798,-0.501,279.6719
15:40:17:816,1.2511,0.75,4.6712,48.3023,0.2916,0.1778,-0.538,279.9219
15:40:17:834,1.0165,0.7416,6.0155,51.1048,0.1614,0.1853,-0.5335,280.4531
15:40:17:855,0.8967,0.8338,7.0331,49.497,0.1427,0.0809,-0.5141,281
15:40:17:880,0.6382,1.0481,7.415,50.3966,0.1606,-0.0544,-0.4853,281.5938
15:40:17:896,0.2467,1.2863,7.2905,48.9651,0.1153,-0.1663,-0.3785,282.1562
15:40:17:917,-0.0538,1.3641,6.9445,50.0044,-0.0455,-0.2518,-0.1753,283
15:40:17:935,-0.0765,1.3162,6.7338,47.359,-0.3875,-0.2909,0.0644,283.5625
15:40:17:956,0.1581,1.491,7.2785,49.4213,-0.9004,-0.2499,0.242,283.9375
15:40:17:979,0.3006,1.6394,9.0346,49.8687,-1.4141,-0.1615,0.3139,284.0625
15:40:17:995,0.4526,1.8633,11.7497,49.9822,-1.6847,-0.0869,0.2905,283.8906
15:40:18:015,-0.3159,1.8046,13.5788,48.1924,-1.5603,-0.1367,0.2111,283.5469
15:40:18:035,-0.9995,1.965,13.4543,50.9276,-1.277,-0.2531,0.2593,283.1094
15:40:18:056,-0.9312,2.4044,12.5098,50.1231,-1.2155,-0.2254,0.4678,282.7812
15:40:18:078,-0.4883,2.3038,12.6547,51.3173,-1.4102,-0.0712,0.7898,282.5
15:40:18:094,0.6142,1.7472,13.7907,48.562,-1.5798,-0.0065,1.0447,282.0938
15:40:18:115,1.463,1.3138,14.7652,49.5734,-1.4738,-0.244,1.0293,281.3906
15:40:18:192,1.4797,1.1833,14.503,49.142,-1.0813,-0.5181,0.8434,280.25
15:40:18:193,0.9231,1.2312,13.4148,49.1672,-0.5941,-0.4973,0.6948,278.9688
15:40:18:193,0.4478,1.2671,11.7293,50.0982,-0.208,-0.1857,0.7057,277.8906
15:40:18:196,0.3976,1.2001,10.1168,48.0426,-0.0466,0.107,0.7651,276.7344
15:40:18:216,0.6035,1.1391,9.0035,49.5545,-0.0157,0.1735,0.7821,275.9375
15:40:18:237,1.1134,1.327,8.047,48.8867,0.0194,0.0915,0.7107,275.1094
15:40:18:263,1.4247,1.5868,7.2773,48.7412,0.0985,0.0289,0.5254,274.1875
15:40:18:279,1.4031,1.9028,6.6177,51.4271,0.2053,0.0257,0.2636,273.375
15:40:18:295,0.9877,2.1338,6.1784,50.3717,0.2906,-0.0315,-0.0288,272.7656
15:40:18:315,0.1557,2.3409,5.836,47.4092,0.3579,-0.1913,-0.2573,272.5938
15:40:18:335,-0.5925,2.5085,5.7713,49.0828,0.4056,-0.3698,-0.321,272.4688
15:40:18:355,-0.6739,2.8689,6.2298,47.5431,0.4365,-0.4582,-0.2469,272.6562
15:40:18:380,-0.4859,3.0065,6.7135,47.8156,0.4866,-0.3223,-0.1023,273.0469
15:40:18:396,-0.0753,2.9395,7.0762,48.6706,0.4913,0.0838,0.1107,273.4219
15:40:18:415,0.4706,2.8533,7.6197,48.9339,0.3912,0.4838,0.3057,273.6719
15:40:18:437,0.9566,2.6833,8.5187,48.0782,0.2256,0.6769,0.429,273.7031
15:40:18:453,1.615,2.3134,9.808,48.1765,0.0796,0.5056,0.4687,273.4219
15:40:18:474,2.3476,2.1506,10.7776,48.181,0.0264,0.0918,0.4045,272.625
15:40:18:495,2.8217,2.0872,11.1559,48.6953,0.0186,-0.3016,0.2604,272.0312
15:40:18:514,3.4382,2.3134,11.6671,47.3823,0.0109,-0.5309,0.0673,271.5781
15:40:18:541,3.6046,2.4978,12.3123,48.5027,0.0392,-0.5413,-0.1258,271.3125
15:40:18:554,3.3628,2.651,12.5936,47.6685,0.0858,-0.4608,-0.2491,271.3125
15:40:18:575,3.1736,3.0233,12.9839,46.0455,-0.0178,-0.2028,-0.2856,271.5156
15:40:18:596,3.0479,3.0903,14.3091,45.5309,-0.2975,0.2055,-0.211,271.8594
15:40:18:621,3.5878,2.4176,16.5452,47.1161,-0.4381,0.4345,-0.0983,272.4219
15:40:18:635,3.862,0.6279,16.143,46.3658,0.327,-0.4065,-0.5876,272.4688
15:40:18:656,3.0084,0.5956,13.1862,46.5729,0.7334,-0.729,-0.9966,272.4688
15:40:18:679,1.8772,0.8781,10.6675,47.655,0.8469,-0.5445,-1.2118,272.7031
15:40:18:698,1.293,0.9583,9.2717,44.9948,0.791,-0.1948,-1.2297,273.4219
15:40:18:715,1.1493,0.981,8.4959,46.1163,0.7364,0.0561,-1.2089,276.0469
15:40:18:735,0.7507,0.9978,7.6855,45.0373,0.7489,0.1871,-1.1889,276.7812
15:40:18:754,0.3784,1.0361,6.7314,44.4766,0.7673,0.2409,-1.1106,276.7812
15:40:18:783,0.2671,0.9954,5.8707,44.3685,0.7561,0.2028,-0.9953,278.7969
15:40:18:798,0.4885,0.9355,5.2039,45.0098,0.6932,0.0718,-0.9234,280.125
15:40:18:814,0.6478,1.0349,4.8448,43.5075,0.5875,-0.0494,-0.9138,281.3594
15:40:18:838,0.6382,1.1367,4.8891,45.1442,0.4751,-0.0715,-0.9039,282.4688
15:40:18:852,0.4814,1.2324,5.2015,44.0461,0.3856,-0.0305,-0.8653,283.4844
15:40:18:875,0.5568,1.2372,5.8779,44.3438,0.3252,0.0068,-0.8011,284.5469
15:40:18:897,0.4658,1.1929,6.656,42.3079,0.3252,0.006,-0.77,285.6094
15:40:18:915,0.0109,1.2348,6.8356,43.0902,0.3593,-0.0014,-0.7077,286.5781
15:40:18:937,-0.2238,1.5413,7.0235,42.5646,0.2802,0.0295,-0.5679,287.5
15:40:18:953,-0.4009,1.7496,7.6903,42.5192,0.1241,0.0758,-0.3772,288.3906
15:40:18:975,-0.4261,1.7268,8.296,42.5991,-0.0384,0.0833,-0.1274,289.1719
15:40:19:006,-0.0969,1.6646,8.8168,42.1771,-0.2677,0.0111,0.0742,289.8281
15:40:19:013,0.0217,1.6263,9.7373,41.2893,-0.5489,-0.1469,0.1786,290.25
15:40:19:041,0.0013,1.6694,10.853,42.48,-0.7438,-0.2686,0.2764,290.375
15:40:19:053,-0.3913,1.5377,11.4324,40.6104,-0.8056,-0.2691,0.3749,290.1875
15:40:19:076,-0.7469,1.6466,11.1882,42.5682,-0.8714,-0.1953,0.4703,289.9531
15:40:19:099,-1.1814,1.7113,11.2014,40.655,-1.0884,-0.0315,0.6391,289.6094
15:40:19:117,-0.8678,1.6047,12.3853,40.7052,-1.3878,0.198,0.903,289.1562
15:40:19:136,0.2204,1.2588,14.1534,42.3042,-1.4932,0.2042,1.0567,288.5312
15:40:19:154,0.6633,0.835,14.8442,41.9348,-1.2149,-0.1221,0.9845,287.6094
15:40:19:180,0.5616,0.8984,13.5082,41.3809,-0.69,-0.4787,0.8101,286.4375
15:40:19:196,-0.1615,1.4036,11.1092,41.1935,-0.3254,-0.4475,0.6633,285.1875
15:40:19:214,-0.9384,1.7232,9.8295,41.6756,-0.2943,-0.0214,0.7225,284.1719
15:40:19:235,-1.0318,1.7173,9.6344,41.7583,-0.3606,0.47,0.9754,283.4375
15:40:19:255,-0.7337,1.3474,9.3351,39.9013,-0.396,0.6958,1.2412,282.7031
15:40:19:281,-0.0334,0.9523,8.6216,40.8284,-0.433,0.5403,1.4066,281.7344
15:40:19:298,0.8046,0.6925,7.8914,38.7063,-0.4735,0.1466,1.4018,281.0938
15:40:19:313,1.5288,0.6387,7.2378,40.5409,-0.4807,-0.2611,1.2498,279.6719
15:40:19:334,1.9945,0.8506,6.82,40.3404,-0.4266,-0.509,1.0226,278
15:40:19:355,2.1741,1.078,6.6632,39.5107,-0.2831,-0.5255,0.7952,275.625
15:40:19:378,1.9562,1.2216,6.5459,39.7857,-0.0666,-0.349,0.605,274.4062
15:40:19:397,1.7395,1.3857,6.255,39.7234,0.1547,-0.105,0.486,273.4219
15:40:19:413,1.6138,1.5341,6.0754,39.7234,0.2538,0.1442,0.4268,272.6562
15:40:19:438,1.6605,1.6634,6.6177,38.7,0.1856,0.3232,0.393,272.0938
15:40:19:453,1.6605,1.8178,8.0363,40.0491,0.036,0.4468,0.3571,271.5781
15:40:19:474,1.5647,1.8537,9.7912,39.1296,-0.0639,0.3964,0.3451,271.0781
15:40:19:496,1.8029,2.0034,11.2038,39.6933,-0.0333,0.1256,0.3619,270.625
15:40:19:513,1.7934,1.9471,11.4456,38.1316,0.1039,-0.2813,0.3507,270.2031
15:40:19:534,1.7,1.9459,11.0721,38.2379,0.1715,-0.541,0.328,269.7656
15:40:19:558,1.293,1.971,11.2505,37.8684,0.057,-0.5056,0.2876,269.3594
15:40:19:580,0.8824,1.898,12.5254,37.9072,-0.1308,-0.325,0.25,269.0312
15:40:19:595,0.9207,2.1039,13.6746,36.8613,-0.1446,-0.3865,0.2234,268.7344
15:40:19:613,1.4175,2.3002,13.276,36.5675,0.0445,-0.6169,0.2103,268.4688
15:40:19:634,1.518,3.2041,11.8442,35.7824,0.1039,-0.5873,0.2396,268.125
15:40:19:654,1.8257,3.289,11.454,36.8217,-0.1193,-0.2315,0.38,267.9375
15:40:19:678,3.1389,2.4918,12.9312,37.0236,-0.4256,0.2452,0.3824,267.7188
15:40:19:697,4.4019,1.8322,15.3517,38.3794,-0.4424,0.5006,0.0836,267.3281
15:40:19:714,4.0667,1.3641,16.744,35.5056,0.0288,0.4383,-0.3527,266.8906
15:40:19:734,3.1449,1.1163,15.3577,36.6378,0.7366,0.1461,-0.6856,266.7656
15:40:19:754,2.4302,1.2875,12.4272,35.8791,1.1707,0.063,-0.873,267.1406
15:40:19:779,1.7527,1.4024,10.2904,36.354,1.1888,0.2305,-0.8765,267.4375
15:40:19:797,1.5707,1.3007,9.2357,33.8252,1.0309,0.2819,-0.7487,268.3281
15:40:19:813,1.5336,1.0313,8.5031,36.2428,0.9041,0.1275,-0.6326,269.3281
15:40:19:835,1.6868,0.8278,7.5383,34.8169,0.8456,-0.1005,-0.571,270.2188
15:40:19:855,1.8209,0.762,6.6117,35.0018,0.8192,-0.2142,-0.57,270.9219
15:40:19:879,1.9897,0.7308,5.9198,35.4852,0.7928,-0.1665,-0.6065,271.5938
15:40:19:897,2.0986,0.7033,5.6983,37.2278,0.7593,-0.0188,-0.6616,272.5938
15:40:19:919,2.0484,0.5082,5.8432,34.7662,0.7385,0.1315,-0.737,273.2812
15:40:19:933,1.8161,0.3621,6.1915,36.2608,0.7537,0.1879,-0.832,274.0312
15:40:19:954,1.4283,0.4148,6.2873,37.5722,0.7942,0.1466,-0.909,274.8438
15:40:19:976,0.7974,0.7308,6.1413,36.1029,0.7745,0.1109,-0.9103,275.7188
15:40:19:997,0.1198,1.1845,6.2286,37.028,0.6559,0.1333,-0.8073,276.7344
15:40:20:013,-0.4656,1.5568,6.6799,34.3972,0.4946,0.1988,-0.5878,277.7656
15:40:20:033,-0.4704,1.6059,7.0403,36.2958,0.3483,0.2311,-0.2869,278.6406
15:40:20:054,0.1234,1.6323,7.3515,35.3775,0.1936,0.1317,-0.06,279.2656
15:40:20:080,-0.0346,1.4754,8.1069,34.8575,-0.2312,0.0231,0.1081,279.5625
15:40:20:097,-0.2273,1.5185,9.0275,34.6798,-0.4709,0.2018,0.1973,279.5625
15:40:20:114,-0.6355,1.4168,10.1515,33.6826,-0.6562,0.3799,0.2932,279.5938
15:40:20:134,-1.027,1.1079,10.8758,36.9386,-0.7864,0.4478,0.3501,279.4219
15:40:20:154,-1.1814,1.1678,11.1439,35.5594,-0.906,0.3461,0.3368,279.1406
15:40:20:182,-1.428,1.1977,11.2648,34.0023,-1.0485,0.2508,0.3488,279.1406
15:40:20:197,-1.3083,1.3342,11.7497,35.7227,-1.1867,0.3309,0.4439,278.7344
15:40:20:264,-0.7756,1.4359,12.341,34.5463,-1.256,0.3853,0.5283,277.7188
15:40:20:265,-0.0753,1.7113,13.0294,35.4766,-1.2048,0.3304,0.4756,277.2656
15:40:20:265,-0.359,2.0692,13.0629,36.8097,-0.9465,0.1911,0.2785,276.6562
15:40:20:278,-1.2892,2.5421,12.1016,37.3454,-0.579,0.1884,0.1507,275.9219
15:40:20:297,-2.2457,2.8976,10.9775,37.0559,-0.3228,0.4846,0.2519,275.2812
15:40:20:313,-2.4827,2.9563,10.1982,36.5459,-0.2349,0.7693,0.5826,274.9219
15:40:20:335,-1.5274,2.5851,9.6392,36.2479,-0.2605,0.7858,0.955,274.6875
15:40:20:352,-0.049,2.0285,9.2693,36.2606,-0.326,0.4771,1.1576,274.3281
15:40:20:373,1.0488,1.6406,8.9855,35.1797,-0.3483,-0.0385,1.1161,273.5938
15:40:20:396,1.7,1.5245,8.308,36.021,-0.2559,-0.4411,0.9712,272.4062
15:40:20:419,1.9873,1.5066,7.5095,35.5311,-0.0935,-0.5682,0.8197,271
15:40:20:436,2.0005,1.4168,6.7697,36.3366,0.0975,-0.4662,0.6713,269.7031
15:40:20:453,1.8724,1.4024,6.1065,36.2032,0.2482,-0.2478,0.5608,268.6719
15:40:20:473,1.8484,1.4994,5.7199,35.3124,0.3007,-0.0313,0.4945,267.4219
15:40:20:497,1.8209,1.4826,5.8587,36.9574,0.2408,0.103,0.4575,266.7969
15:40:20:516,1.8844,1.4623,6.7398,37.8507,0.0847,0.1994,0.4295,266.2344
15:40:20:533,1.9777,1.4479,8.2852,36.4798,-0.0634,0.1549,0.3749,265.7031
15:40:20:554,1.767,1.5473,9.8199,36.0641,-0.0905,-0.0108,0.2886,265.1719
15:40:20:580,1.451,1.8513,10.5262,37.0409,0.0293,-0.2299,0.2551,264.7031
15:40:20:597,1.3493,2.0081,10.0905,37.6651,0.1603,-0.4062,0.3073,264.3125
15:40:20:617,1.7132,2.1781,9.6116,37.3848,0.1036,-0.4795,0.3595,264.0312
15:40:20:633,1.9873,2.317,10.0953,36.4195,-0.1225,-0.5157,0.3307,263.7812
15:40:20:653,2.2459,2.3864,11.5174,36.8139,-0.3124,-0.5343,0.2657,263.4531
15:40:20:673,2.2986,2.329,12.9168,36.7637,-0.3172,-0.6084,0.1643,263.0938
15:40:20:696,2.1453,2.4295,13.246,38.5339,-0.2237,-0.6611,0.0463,262.8281
15:40:20:713,1.9622,2.6702,13.2389,38.2009,-0.2501,-0.4614,-0.0283,262.6406
15:40:20:734,2.289,2.493,13.9858,37.5309,-0.416,-0.1239,-0.0392,262.5938
15:40:20:754,3.2048,1.8142,15.4906,37.1073,-0.4314,-0.0326,-0.1601,262.6719
15:40:20:780,3.2885,1.1378,15.6869,39.6857,-0.1084,-0.3338,-0.5197,262.7031
15:40:20:799,2.5655,1.0169,14.1247,38.5216,0.3462,-0.6784,-0.9607,262.8281
15:40:20:813,1.1828,1.2229,11.7844,38.0066,0.644,-0.5804,-1.2307,263.2031
15:40:20:832,0.0528,1.4263,9.8451,38.0682,0.6549,-0.1796,-1.2139,264.0625
15:40:20:853,-0.2585,1.5173,8.8323,38.4376,0.4679,0.0891,-1.0278,265.4219
15:40:20:873,-0.207,1.2719,8.5127,40.3402,0.2575,0.0649,-0.8051,266.8906
15:40:20:897,0.297,1.1223,8.1009,40.3191,0.1454,-0.104,-0.6267,268.1719
15:40:20:916,0.9159,0.9343,7.7513,40.4727,0.1289,-0.2238,-0.5644,269.1562
15:40:20:933,1.4486,0.8194,7.4772,39.6487,0.1744,-0.2904,-0.6126,269.9531
15:40:20:953,1.7766,0.744,7.4114,41.1475,0.2714,-0.2949,-0.7466,270.6406
15:40:20:975,1.4486,0.6147,7.2617,40.7842,0.4469,-0.2201,-0.9122,271.2969
15:40:20:996,0.953,0.6949,6.7063,40.7377,0.649,-0.0813,-0.9972,272.1094
15:40:21:012,1.2523,0.9212,6.5159,42.0844,0.7625,0.1264,-0.9838,273.0938
15:40:21:034,2.046,0.9798,7.658,39.6681,0.848,0.3802,-1.0054,274.1562
15:40:21:056,1.1278,0.4675,8.4014,40.842,1.0352,0.4492,-1.0861,275.2812
15:40:21:080,0.3676,0.756,8.0111,40.1663,1.1713,0.2662,-1.1266,276.9062
15:40:21:099,0.2336,1.6023,7.5299,42.9907,1.1055,0.2164,-1.0968,278.0156
15:40:21:114,-0.3159,2.1171,7.3934,41.8248,0.8914,0.3309,-0.9418,279.2656
15:40:21:133,-1.0737,2.402,7.4868,41.6285,0.6051,0.2921,-0.7039,280.5
15:40:21:154,-1.8901,2.6749,7.567,43.5184,0.2463,0.1219,-0.4142,281.5312
15:40:21:179,-2.3235,2.9275,8.0171,42.329,-0.2144,0.0393,-0.0414,282.2344
15:40:21:197,-1.9727,3.1502,9.2657,41.9312,-0.6714,0.0713,0.3241,282.7031
15:40:21:216,-1.8315,2.9742,11.0697,42.6687,-0.9201,0.1147,0.5264,282.7344
15:40:21:233,-2.2768,2.5444,12.3099,41.3769,-0.8661,0.0313,0.5917,282.3438
15:40:21:253,-2.193,2.5947,12.2656,43.5028,-0.6264,-0.0531,0.683,281.6875
15:40:21:273,-2.1331,2.6582,11.1966,43.0254,-0.4658,0.0497,0.8631,281.3281
15:40:21:298,-2.1032,2.408,10.3251,43.6812,-0.5563,0.2457,1.1672,280.5938
15:40:21:316,-1.1874,1.977,10.7657,44.328,-0.848,0.4614,1.5174,279.75
15:40:21:333,0.2982,1.23,12.2022,41.7872,-1.056,0.4516,1.69,278.5625
15:40:21:353,1.0476,0.6015,12.8642,42.9539,-0.9521,0.0934,1.5795,276.9375
15:40:21:374,1.1685,0.6135,11.9472,41.6733,-0.6503,-0.3402,1.3363,274.0312
15:40:21:398,0.9901,1.0397,9.9935,43.0112,-0.4354,-0.4422,1.1794,272.1875
15:40:21:415,1.1098,1.2887,8.5582,44.1909,-0.44,-0.1884,1.1653,270.6875
15:40:21:433,1.7347,1.3509,8.1967,44.1908,-0.4927,0.1307,1.1723,269.4688
15:40:21:454,2.3045,1.2085,7.8746,41.571,-0.2317,0.4042,0.8916,268.1562
15:40:21:474,2.119,1.3557,7.1157,42.2781,-0.045,0.2838,0.6836,268.1562
15:40:21:497,1.8365,1.5892,6.2454,42.2781,0.0522,0.1272,0.5358,265.5781
15:40:21:513,1.5887,1.8645,5.672,43.3779,0.0282,0.0308,0.4998,265.5781
15:40:21:533,1.4319,2.0429,5.7151,43.6347,-0.0751,0.0087,0.5531,263.6875
15:40:21:552,1.5516,2.0656,6.3615,42.6961,-0.1728,0.0233,0.6535,263.6875
15:40:21:575,2.0879,1.9878,7.4617,43.9116,-0.2064,0.0321,0.7147,262.5156
15:40:21:598,2.5308,2.0943,8.4014,43.6416,-0.167,-0.0904,0.6362,261.8906
15:40:21:613,2.3991,2.3182,9.1065,44.0885,-0.0783,-0.2102,0.4881,261.125
15:40:21:633,2.2973,2.5444,9.5721,42.8091,0.012,-0.219,0.4244,259.9688
15:40:21:652,2.593,2.6941,10.0594,43.5577,0.0583,-0.1892,0.4157,259.3438
15:40:21:673,3.0934,2.6917,10.719,42.9991,0.053,-0.1998,0.3616,258.875
15:40:21:698,3.3891,2.5983,11.594,43.8394,0.0096,-0.2635,0.2109,258.4375
15:40:21:717,3.1976,2.56,12.6271,44.1355,-0.029,-0.3708,-0.0049,258.2031
15:40:21:737,2.4745,2.6199,13.3083,42.3086,-0.0269,-0.4955,-0.2009,257.8125
15:40:21:755,1.3313,2.5947,13.3645,42.8406,-0.0418,-0.586,-0.2778,257.6094
15:40:21:771,0.3976,2.7767,13.3526,44.2544,-0.1846,-0.5985,-0.2216,257.6562
15:40:21:793,0.1043,2.5863,13.9487,43.3288,-0.3808,-0.4417,-0.0563,257.9375
15:40:21:814,0.862,1.9256,14.6873,43.3623,-0.4021,-0.2752,0.1043,258.3281
15:40:21:840,2.1561,1.2492,14.0948,43.1708,-0.1302,-0.4126,0.0628,258.6406
15:40:21:851,2.8959,0.9547,11.9771,45.0845,0.2346,-0.7045,-0.2089,258.7656
15:40:21:874,2.6613,1.1187,9.6272,44.5408,0.4469,-0.7133,-0.5138,258.7031
15:40:21:897,2.0891,1.3976,8.2302,43.2553,0.4181,-0.2622,-0.6302,258.7656
15:40:21:916,1.9227,1.661,8.2182,43.6583,0.24,0.5448,-0.5748,259.25
15:40:21:933,1.7036,1.2983,9.3088,43.4837,0.1004,1.1874,-0.4677,259.9688
15:40:21:952,1.7383,0.8003,10.1587,44.1175,0.1425,1.3283,-0.4067,260.6094
15:40:21:973,1.9693,0.5872,9.7768,44.2151,0.3385,1.0223,-0.4605,261.0781
15:40:21:997,2.1046,0.6674,8.3918,43.3288,0.5268,0.4574,-0.6246,261.4062
15:40:22:014,2.0903,0.9296,6.7913,43.0711,0.5966,-0.0614,-0.8017,261.7188
15:40:22:032,1.955,1.2588,5.8587,42.7587,0.5739,-0.214,-0.9189,262.2031
15:40:22:053,1.4235,1.4671,5.4816,43.5448,0.5483,-0.063,-0.9753,263
15:40:22:073,0.9267,1.5221,5.7163,43.4011,0.5297,0.2106,-0.9399,264.0156
15:40:22:101,0.5185,1.412,6.4178,44.0878,0.5553,0.4473,-0.8241,265.0781
15:40:22:117,0.3784,1.218,6.7865,43.4844,0.6056,0.5163,-0.6714,266.1719
15:40:22:134,0.4383,1.1786,7.2103,44.757,0.5585,0.496,-0.5407,267.125
15:40:22:155,0.2587,1.1235,7.7873,44.717,0.425,0.4122,-0.4312,267.5469
15:40:22:172,-0.0226,1.1702,8.3679,44.7264,0.2677,0.3323,-0.2912,268.1875
15:40:22:193,-0.4045,1.0469,8.7354,42.5137,0.1196,0.2191,-0.1039,268.9688
15:40:22:213,-0.4021,0.9248,9.0322,45.2697,-0.0487,0.1035,0.1145,269.3281
15:40:22:232,-0.2621,0.8805,9.5314,44.8621,-0.2581,0.0457,0.2649,269.5
15:40:22:252,-0.3925,0.8398,10.3993,44.5087,-0.4503,0.0481,0.348,269.4688
15:40:22:320,-0.4644,0.8817,11.181,45.3272,-0.5707,0.0753,0.4207,269.2188
15:40:22:321,-0.5123,0.8254,11.3055,45.4259,-0.6626,0.047,0.478,268.8594
15:40:22:321,-0.5817,1.005,11.2648,45.0528,-0.8224,0.1011,0.5147,268.3906
15:40:22:335,-0.5769,1.2707,11.9998,44.9918,-1.0589,0.3299,0.6141,267.8438
15:40:22:352,-0.2393,1.1486,13.5489,45.8359,-1.1939,0.458,0.7331,267.25
15:40:22:374,0.0695,0.7895,14.6443,47.1365,-1.0277,0.2106,0.7123,266.5781
15:40:22:397,0.2156,0.9176,14.1008,44.0568,-0.5811,-0.2462,0.5392,265.7031
15:40:22:412,-0.4416,1.3785,12.2357,45.3652,-0.171,-0.3061,0.3411,264.7656
15:40:22:432,-1.7405,1.7436,10.6256,44.8052,-0.0455,0.1144,0.3523,264.0312
15:40:22:452,-2.0781,1.9351,9.7888,45.6805,-0.1441,0.5464,0.6157,263.5781
15:40:22:472,-1.2736,1.6921,9.4034,44.3528,-0.2743,0.6319,0.9664,263
15:40:22:499,-0.019,1.1977,8.7557,47.0112,-0.3382,0.3722,1.1904,262.2656
15:40:22:516,1.2128,0.7584,7.9405,44.6988,-0.3414,-0.1378,1.1573,261.0781
15:40:22:532,2.2016,0.7967,7.2869,45.219,-0.2967,-0.6132,0.8692,259.6719
15:40:22:552,2.3057,1.0876,6.8368,45.304,-0.1499,-0.7833,0.5113,258.4062
15:40:22:576,1.9418,1.315,6.4166,45.3995,0.0892,-0.6419,0.2814,257.4688
15:40:22:598,1.718,1.4826,5.8898,46.9406,0.3342,-0.3335,0.1954,256.9531
15:40:22:615,1.5755,1.4682,5.4026,43.635,0.4738,-0.0241,0.1717,256.7031
15:40:22:633,1.7144,1.4563,5.3356,45.5808,0.445,0.2148,0.1696,256.5156
15:40:22:660,2.1489,1.716,6.17,43.5022,0.2767,0.373,0.1264,256.2188
15:40:22:681,2.1106,1.9555,7.4832,44.9504,0.1127,0.4345,0.0551,256
15:40:22:696,1.5324,2.4642,10.1731,45.3444,0.0988,0.173,0.1267,255.875
15:40:22:716,1.3564,2.6342,10.1264,46.0996,0.1984,-0.1839,0.2295,255.7656
15:40:22:736,1.3157,2.8725,9.7206,46.9956,0.1249,-0.4555,0.3195,255.6406
15:40:22:762,1.4007,2.955,10.1108,45.491,-0.151,-0.6012,0.3943,255.3281
15:40:22:774,1.5683,2.894,11.3965,45.4304,-0.4477,-0.72,0.4442,255.0156
15:40:22:798,1.3732,2.6091,12.5194,45.0231,-0.5928,-0.8531,0.4407,254.6406
15:40:22:816,1.2834,2.9024,13.2269,46.6732,-0.6895,-0.7802,0.3842,254.2344
15:40:22:834,0.9686,2.8641,14.8094,46.4997,-0.8906,-0.3229,0.3917,253.8281
15:40:22:852,1.961,1.7951,17.5712,47.0762,-0.9281,0.0617,0.483,253.8281
15:40:22:874,3.4406,0.4555,18.7778,46.3391,-0.4208,-0.0725,0.2537,253.5
15:40:22:899,3.8141,-0.1035,16.9271,46.8745,0.3425,-0.4539,-0.362,253.125
15:40:22:914,2.6984,-0.0497,14.0936,47.739,0.8514,-0.4465,-1.0065,252.5938
15:40:22:933,1.5168,0.319,11.9663,47.1806,0.9891,-0.0211,-1.2957,252.7656
15:40:22:959,1.0907,0.7584,10.9321,48.3266,0.9321,0.3538,-1.2912,252.7656
15:40:22:981,0.9099,0.6423,10.3155,47.6987,0.8839,0.3791,-1.2336,255.3125
15:40:23:000,0.9566,0.5549,9.1029,47.5365,0.8964,0.2257,-1.2028,256.7188
15:40:23:018,1.026,0.7117,7.8639,46.4842,0.9087,0.0521,-1.2041,256.7188
15:40:23:035,0.856,0.7404,6.8332,47.8703,0.9305,-0.0086,-1.2057,258
15:40:23:051,0.7267,0.7679,6.0551,48.6445,0.9742,0.0201,-1.1945,259.3281
15:40:23:071,0.5759,0.7416,5.2722,47.4773,1.0101,0.0588,-1.1663,260.6875
15:40:23:096,0.5244,0.7153,4.6892,47.9894,0.9798,0.0899,-1.1074,261.9844
15:40:23:116,0.7998,0.7703,4.445,47.4767,0.8709,0.0817,-1.0318,263.3438
15:40:23:131,0.9482,0.6327,4.6604,48.3653,0.7284,0.0063,-0.9889,264.6719
15:40:23:151,1.0177,0.7344,5.1189,49.3817,0.5835,-0.1114,-0.9852,265.9219
15:40:23:172,0.7567,0.9691,5.8096,48.9082,0.4658,-0.0696,-0.9492,267.0312
15:40:23:198,0.1881,1.2085,6.5794,49.1504,0.3758,0.1011,-0.8259,268.1719
15:40:23:217,-0.3207,1.5676,7.1815,48.9222,0.2882,0.2044,-0.6243,269.3281
15:40:23:235,-0.6954,1.716,7.4305,49.6815,0.1555,0.2281,-0.3327,271.3281
15:40:23:251,-0.6439,1.8058,7.5945,49.9647,-0.1081,0.1999,0.0226,272
15:40:23:271,-0.523,1.8214,8.3547,51.38,-0.5015,0.1283,0.3113,272.2188
15:40:23:298,-0.5757,1.3809,9.4057,50.4115,-0.9183,-0.0235,0.5379,272.25
15:40:23:313,-0.1603,1.175,10.7453,51.0778,-1.2576,-0.1429,0.6748,272.0781
15:40:23:331,-0.1148,0.8829,11.8514,50.9871,-1.4261,-0.2273,0.6881,271.5469
15:40:23:351,-0.5446,0.9032,12.45,52.3697,-1.481,-0.2171,0.675,270.8438
15:40:23:372,-0.4476,1.1031,13.41,51.0175,-1.5606,-0.0805,0.8125,270.0625
15:40:23:399,0.8908,0.7668,14.9519,52.457,-1.5854,-0.0978,1.0056,269.2969
15:40:23:413,1.9346,0.0437,15.1051,51.5938,-1.3854,-0.5096,0.9632,268.4688
15:40:23:433,1.9717,0.1981,14.1151,53.0788,-0.9915,-1.002,0.6151,267.4531
15:40:23:457,0.9458,0.9798,12.3662,54.2223,-0.5097,-1.247,0.1406,266.2969
15:40:23:471,-0.6739,2.1614,10.9368,52.942,-0.1755,-0.8044,-0.1244,265.4375
15:40:23:495,-2.0637,2.8425,10.4771,52.942,0.0163,0.0958,0.0529,265.1562
15:40:23:513,-2.3295,2.9275,9.966,52.1301,0.1585,0.8114,0.5781,265.3125
15:40:23:534,-1.6543,2.4211,8.9892,54.3218,0.1808,0.9477,1.0854,265.4219
15:40:23:552,-0.4787,1.8142,8.0243,55.2397,0.0578,0.5054,1.3462,265.3438
15:40:23:573,0.625,1.6418,7.3743,57.1484,-0.1169,-0.1636,1.3619,264.0156
15:40:23:598,1.19,1.6275,6.9984,55.3457,-0.2123,-0.6377,1.2636,262.5
15:40:23:615,1.548,1.7352,6.8822,54.2099,-0.1699,-0.7367,1.1731,260.9062
15:40:23:634,1.5527,1.728,6.7015,55.7249,0.0101,-0.5695,1.0929,259.5312
15:40:23:652,1.5815,1.7268,6.4932,56.3653,0.2189,-0.2699,1.041,258.2031
15:40:23:672,1.7766,1.813,6.4513,58.0408,0.3603,0.0691,1.0026,256.9844
15:40:23:697,1.9634,1.8645,6.8344,57.4289,0.4133,0.2851,0.9515,255.8594
15:40:23:715,1.9801,1.8597,7.506,56.5758,0.4011,0.3706,0.8724,254.6719
15:40:23:737,1.9729,2.0069,8.2015,58.243,0.3513,0.3171,0.7757,253.5156
15:40:23:751,2.0196,2.0752,8.8192,58.7496,0.2692,0.1666,0.7233,252.4688
15:40:23:772,2.2112,2.0883,9.2357,57.788,0.1875,-0.0784,0.7059,251.4688
15:40:23:795,2.7834,2.086,9.4225,58.7395,0.1108,-0.3751,0.6559,250.5781
15:40:23:813,3.5172,2.2021,9.5709,60.2929,0.0272,-0.6366,0.5243,249.75
15:40:23:832,4.2259,2.5361,10.057,59.5769,-0.0589,-0.7911,0.3445,249.0156
15:40:23:851,4.6185,2.7575,10.9967,60.5649,-0.1222,-0.8015,0.1621,248.1406
15:40:23:872,4.3935,2.8054,11.8359,60.9057,-0.1579,-0.6409,0.0362,247.8281
15:40:23:898,3.9553,3.0293,13.027,60.1282,-0.3095,-0.2049,0.0066,247.75
15:40:23:919,3.9529,2.4295,15.2655,60.3939,-0.5081,0.2497,0.1078,247.7969
15:40:23:938,4.8077,1.0792,17.7052,61.4739,-0.441,0.3826,0.1398,247.8438
15:40:23:951,4.998,0.1179,18.0883,61.3585,0.0165,0.0489,-0.1777,247.75
15:40:23:972,4.0942,-0.0341,16.1562,61.4457,0.5763,-0.4267,-0.6643,247.5938
15:40:23:997,2.4745,0.0796,12.9647,60.7051,0.9209,-0.5817,-0.8933,247.7812
15:40:24:015,1.7251,0.2628,10.0929,60.6392,0.9063,-0.3849,-0.8123,248.0938
15:40:24:031,1.7934,0.2987,8.4062,61.058,0.6253,-0.141,-0.6757,248.9844
15:40:24:057,2.0292,0.1766,7.6831,60.24,0.294,-0.0361,-0.6232,249.9531
15:40:24:071,2.1333,0.1024,7.306,60.0594,0.045,-0.0188,-0.6533,250.7656
15:40:24:091,2.1022,0.0629,7.1468,59.6496,-0.0599,0.0337,-0.7404,251.4219
15:40:24:118,2.04,0.076,7.1169,59.9982,-0.0045,0.1645,-0.847,252.125
15:40:24:135,1.9155,0.1299,7.4281,61.1467,0.2064,0.336,-0.9625,252.9219
15:40:24:152,1.7048,0.0868,7.0666,59.1323,0.5468,0.4012,-1.0824,254.2656
15:40:24:172,1.4905,0.1454,5.83,59.9345,0.832,0.3514,-1.1926,255.2969
15:40:24:201,1.1254,0.3753,4.5802,58.5366,0.9201,0.3094,-1.2675,256.4375
15:40:24:215,0.5556,0.7057,3.9434,60.2801,0.8195,0.3429,-1.2448,257.6875
15:40:24:231,0.1162,0.9906,4.008,59.4245,0.5864,0.4585,-1.1,258.9844
15:40:24:251,0.0073,1.2252,5.0842,58.5694,0.323,0.6116,-0.8773,260.2969
15:40:24:274,0.0157,1.2552,7.9453,58.1472,-0.0234,0.5751,-0.428,261.4531
15:40:24:296,0.285,1.5078,8.794,57.6185,-0.1366,0.1973,-0.2312,262.2656
15:40:24:312,0.3856,1.807,9.0921,58.7696,-0.2677,-0.092,-0.0128,262.8594
15:40:24:383,0.2886,2.0488,9.3926,58.2218,-0.4557,-0.1122,0.2447,263.4531
15:40:24:383,0.1474,2.0692,10.1324,58.7961,-0.6804,0.0987,0.5062,263.4531
15:40:24:384,0.2419,1.9387,11.3881,59.2708,-0.8978,0.3086,0.752,263.4844
15:40:24:396,0.1162,1.5389,12.9743,58.5978,-1.0373,0.3299,0.9291,263.2344
15:40:24:416,0.1665,1.4288,13.9858,59.01,-1.0583,0.1043,1.0372,262.6406
15:40:24:432,0.6382,1.7735,14.5353,56.4547,-1.0211,-0.0917,1.0697,261.7812
15:40:24:453,1.1086,2.2751,15.1973,58.4091,-0.927,-0.0869,1.0394,259.4844
15:40:24:470,1.2355,2.5241,15.8198,58.5009,-0.6794,-0.0459,0.9305,258.9375
15:40:24:491,0.7603,2.3864,15.2739,57.5623,-0.2474,-0.1671,0.7555,258.3438
15:40:24:516,0.449,2.5073,13.6016,58.0661,0.1973,-0.2188,0.5856,257.1875
15:40:24:533,-0.1914,2.627,11.7341,58.0325,0.4533,0.0281,0.4535,256.1406
15:40:24:551,-0.9755,2.6294,10.8363,57.3055,0.498,0.4534,0.4609,255.3281
15:40:24:571,-1.094,2.481,10.2748,57.6857,0.5396,0.7424,0.6015,254.6875
15:40:24:590,-0.8223,2.153,9.1747,56.6609,0.6045,0.8369,0.7493,254.1406
15:40:24:615,-0.4704,1.8022,7.8375,56.0079,0.6333,0.7552,0.8567,253.5469
15:40:24:631,-0.0358,1.4718,6.4716,55.4527,0.6469,0.5701,0.9163,252.7969
15:40:24:651,0.4335,1.1797,5.2039,55.4481,0.6117,0.3328,0.9062,251.8125
15:40:24:671,0.8716,1.084,4.4821,56.5358,0.502,0.0588,0.8111,250.7188
15:40:24:691,1.1817,1.1893,4.6305,54.7106,0.383,-0.1469,0.7145,249.0781
15:40:24:714,1.2786,1.0672,4.907,55.9286,0.3526,-0.2161,0.6681,248.0625
15:40:24:732,1.4271,1.0074,5.1441,55.4882,0.3638,-0.2046,0.6308,247.2031
15:40:24:751,1.5348,1.1941,5.3392,51.9273,0.3358,-0.1823,0.5717,246.4844
15:40:24:771,1.548,1.5269,6.0646,54.3737,0.2581,-0.0398,0.5776,245.7656
15:40:24:791,1.542,1.6933,7.4018,55.5541,0.1838,0.1746,0.6687,245.1094
15:40:24:816,1.7287,1.8753,9.2465,56.0517,0.2077,0.1853,0.7917,244.5156
15:40:24:831,1.6258,2.22,10.3874,54.7858,0.3792,-0.0824,0.9131,243.7969
15:40:24:850,1.5911,2.7372,10.5454,55.3054,0.5686,-0.4672,1.1051,242.9219
15:40:24:871,2.4458,2.8497,9.043,54.0056,0.5744,-0.8393,1.3163,241.9219
15:40:24:891,4.2965,3.2974,8.0865,54.7057,0.1997,-0.978,1.3182,240.875
15:40:24:915,5.5475,3.9379,9.3279,52.0243,-0.3143,-0.7716,1.0391,239.5781
15:40:24:932,5.229,4.0384,11.7604,50.9821,-0.5452,-0.3974,0.7081,238.2031
15:40:24:957,4.7299,4.2683,13.6973,53.6576,-0.4567,-0.1341,0.4772,237.5625
15:40:24:971,4.5,4.4418,14.3103,54.0345,-0.2743,-0.1258,0.2844,236.2344
15:40:24:993,4.8196,4.473,14.509,53.0783,-0.2157,-0.2611,0.0892,235.6562
15:40:25:017,5.3021,4.0384,14.9459,51.7664,-0.1404,-0.4755,-0.1806,235.2812
15:40:25:036,5.5571,3.5608,14.667,52.1852,0.0716,-0.6182,-0.587,235.125
15:40:25:053,4.8364,3.2352,13.4507,51.4165,0.2924,-0.5969,-1.0539,235.25
15:40:25:070,3.4226,3.0245,12.1112,51.4011,0.4141,-0.3527,-1.3961,235.7656
15:40:25:091,2.0603,2.8497,10.9823,49.9315,0.44,-0.0691,-1.5077,236.7656
15:40:25:113,1.1769,2.639,9.9408,50.2879,0.4205,0.0542,-1.4283,238.25
15:40:25:130,0.5424,2.2619,8.9748,50.2215,0.3782,0.0159,-1.2486,239.9375
15:40:25:151,0.4478,1.965,7.7083,48.9662,0.3657,-0.1322,-1.056,241.5
15:40:25:171,0.6286,1.7807,6.1843,48.2266,0.3316,-0.1689,-0.9053,243
15:40:25:190,0.6525,1.6454,5.2195,48.6423,0.228,-0.084,-0.7985,244.2969
15:40:25:215,0.4814,1.4838,5.3871,47.3456,0.1595,0.0825,-0.7135,245.4219
15:40:25:231,0.4478,1.2552,6.0227,47.7737,0.2631,0.197,-0.632,246.3438
15:40:25:250,0.7232,1.1774,6.0479,48.6434,0.482,0.2202,-0.5705,247.1875
15:40:25:271,1.1613,1.066,5.4888,47.2513,0.5997,0.0319,-0.574,248.2031
15:40:25:291,1.4498,1.181,4.9813,46.7031,0.5265,-0.2214,-0.64,248.7656
15:40:25:315,1.1924,1.5497,5.0363,46.3509,0.3127,-0.3245,-0.6778,249.375
15:40:25:332,0.7387,2.086,6.0826,46.9132,0.0898,-0.1977,-0.6211,250.125
15:40:25:351,0.3281,2.5457,7.7095,45.4339,0.0314,0.1099,-0.4464,250.9219
15:40:25:370,-0.0585,2.8042,8.5031,46.718,0.131,0.3592,-0.1814,251.6875
15:40:25:392,0.0564,2.8318,8.3846,46.7175,0.122,0.4537,0.1224,252.1562
15:40:25:416,0.2527,2.7946,8.7078,46.1992,-0.1358,0.4641,0.3451,252.2656
15:40:25:432,0.3664,2.6941,9.9672,46.0185,-0.5004,0.4441,0.4716,252
15:40:25:450,0.303,2.7108,11.8706,45.2954,-0.7609,0.3855,0.5347,251.4844
15:40:25:471,-0.1591,2.6318,12.8414,45.0852,-0.7947,0.2425,0.5986,251.1719
15:40:25:492,-0.4883,2.7144,12.5182,45.6836,-0.7992,0.1757,0.7478,250.5469
15:40:25:515,-0.6032,2.8748,12.5661,44.8353,-0.9766,0.3722,0.9733,249.8594
15:40:25:532,0.2659,2.6546,14.1259,44.7307,-1.1859,0.6393,1.2543,249.0938
15:40:25:550,1.4893,1.7819,15.4224,44.7307,-1.1039,0.3259,1.3584,248.1094
15:40:25:570,1.9813,1.3342,14.2384,45.4711,-0.7121,-0.3556,1.1488,246.8281
15:40:25:591,1.8101,1.7759,11.6467,44.6767,-0.3531,-0.6619,0.7904,244.4531
15:40:25:615,1.0344,2.2727,9.4069,43.8379,-0.2511,-0.2574,0.6364,243.2969
15:40:25:632,0.5292,2.5947,8.7054,45.2839,-0.3814,0.3823,0.6958,242.5312
15:40:25:656,0.0779,2.2045,8.873,44.1473,-0.4911,0.6308,0.8343,241.8594
15:40:25:670,0.6214,2.0788,7.7789,43.9192,-0.3249,0.3128,1.136,241.0312
15:40:25:691,1.6198,1.9076,6.8607,44.6492,-0.196,0.2188,1.2064,240.0469
15:40:25:715,2.3788,1.7352,6.4274,45.8138,-0.0898,0.2372,1.1051,238.8438
15:40:25:734,2.5224,1.5401,6.2526,44.7414,0.0202,0.2044,0.8703,236.1875
15:40:25:750,2.4626,1.6478,6.0155,45.5726,0.1582,0.1709,0.6162,236.1875
15:40:25:772,2.2722,1.9531,5.8755,45.2108,0.2527,0.2931,0.4428,234.8906
15:40:25:798,1.6713,2.1925,6.3986,44.6183,0.2783,0.4782,0.3805,233.875
15:40:25:817,1.0823,2.4343,7.4485,45.3388,0.2852,0.5173,0.4322,232.5938
15:40:25:832,1.3217,2.6654,8.387,45.5851,0.2986,0.3813,0.5701,231.7969
15:40:25:851,1.554,2.8593,9.3674,45.187,0.3334,0.2902,0.6985,231.7969
15:40:25:873,1.7084,2.8677,9.5661,43.3865,0.4112,0.1251,0.8202,231.1875
15:40:25:890,2.1178,3.052,9.1029,44.6321,0.3752,-0.0986,0.898,229.9375
15:40:25:916,2.514,3.3824,9.2453,43.6272,0.1923,-0.2848,0.9262,229.4688
15:40:25:934,2.9809,3.538,10.1216,45.1297,0.0192,-0.2906,0.9419,228.4531
15:40:25:957,3.5938,3.5764,11.272,43.747,-0.0674,-0.1998,0.8993,227.9844
15:40:25:969,4.026,3.5321,12.3303,44.7687,-0.0743,-0.1514,0.7486,226.9688
15:40:25:989,4.0739,3.7068,12.948,44.9808,-0.061,-0.1261,0.5134,225.9219
15:40:26:016,3.8392,4.0827,13.4759,44.3829,-0.0887,-0.0614,0.2881,224.9375
15:40:26:032,3.4825,3.8852,14.6419,42.8111,-0.1691,0.1743,0.1682,224.1562
15:40:26:052,4.093,3.3848,16.1706,44.6005,-0.0924,0.3781,0.0607,223.5938
15:40:26:069,3.8883,2.4451,16.6817,41.8492,0.2139,0.3227,-0.2113,223.2812
15:40:26:090,3.1078,1.667,15.1015,43.4787,0.6354,-0.0747,-0.5348,223.0781
15:40:26:113,2.6409,1.7256,11.9316,43.874,0.8852,-0.3189,-0.8187,222.9688
15:40:26:131,1.7455,1.8681,9.2118,43.3856,0.82,-0.247,-0.9332,223.1406
15:40:26:151,1.1385,1.6849,7.5634,43.0542,0.5856,-0.125,-0.8533,224.125
15:40:26:170,0.9925,1.5173,6.5722,43.3856,0.3284,-0.0997,-0.7628,225.1406
15:40:26:192,0.7136,1.3964,5.9317,42.5035,0.1137,-0.0893,-0.6989,226.1719
15:40:26:214,0.6358,1.3857,5.3607,43.5868,-0.0804,0.0446,-0.5958,227.0312
15:40:26:232,0.971,1.3928,5.3619,43.182,-0.2735,0.2132,-0.4965,227.875
15:40:26:249,1.6126,1.236,6.237,42.8705,-0.3475,0.3323,-0.4802,228.6406
15:40:26:270,1.9586,0.9595,6.9613,42.2922,-0.1955,0.3725,-0.571,229.2344
15:40:26:290,1.5899,0.6806,7.0965,43.1725,0.0852,0.3895,-0.7324,229.7188
15:40:26:317,0.8644,0.6028,6.9241,41.7812,0.3635,0.3211,-0.8909,230.25
15:40:26:333,0.3964,0.8517,6.5866,42.0811,0.5569,0.1376,-0.966,230.9219
15:40:26:352,0.0073,1.175,6.1664,43.0684,0.6072,0.0777,-0.8717,231.7344
15:40:26:371,-0.0885,1.2815,5.836,42.948,0.4972,0.1357,-0.6123,232.75
15:40:26:434,0.3952,1.3629,6.3459,42.8093,0.2399,0.1328,-0.3657,233.8125
15:40:26:434,0.5424,1.4946,7.6735,43.1761,-0.0253,0.0308,-0.2517,234.5938
15:40:26:434,0.2838,1.643,9.1615,42.454,-0.1888,-0.0973,-0.146,234.8906
15:40:26:449,-0.0035,1.8741,10.5179,40.7256,-0.2415,-0.0576,0.054,235.4219
15:40:26:471,-0.11,1.9399,11.5031,40.6567,-0.2567,0.0968,0.3275,235.6719
15:40:26:490,0.0971,1.7544,12.0705,40.6876,-0.2985,0.1309,0.5765,235.75
15:40:26:514,0.3401,1.4,11.8191,40.2286,-0.3779,-0.0912,0.7054,235.5312
15:40:26:535,0.7339,1.6371,11.4935,41.0605,-0.5726,-0.2523,0.7009,234.9844
15:40:26:552,0.042,1.7101,11.8179,39.3715,-0.8016,-0.2811,0.6564,234.2656
15:40:26:570,-0.3159,1.971,12.7241,41.3533,-0.9492,-0.1357,0.7731,233.4844
15:40:26:590,0.0289,1.831,13.531,42.0455,-0.9172,0.0247,0.9358,232.7969
15:40:26:615,0.449,1.2109,13.4855,40.396,-0.738,-0.0907,1.0143,232.1094
15:40:26:632,1.1733,0.9715,12.4212,42.2049,-0.5097,-0.3969,0.9134,231.1562
15:40:26:653,1.1326,1.0924,10.9416,40.925,-0.3659,-0.3956,0.6793,230.0469
15:40:26:672,0.224,1.4012,9.9361,40.4524,-0.3659,-0.0725,0.5043,228.9844
15:40:26:690,-0.6559,1.5473,9.4716,40.8297,-0.4213,0.2731,0.5307,228.2031
15:40:26:715,-0.4895,1.4958,8.818,40.8588,-0.4543,0.3895,0.7027,227.3281
15:40:26:736,0.3006,1.3737,8.071,40.0485,-0.4591,0.2462,0.829,226.7031
15:40:26:749,1.0344,1.1929,7.1911,40.4655,-0.4187,-0.0315,0.8204,225.9062
15:40:26:770,1.7084,1.2061,6.3867,39.8485,-0.3633,-0.2313,0.7017,224.9531
15:40:26:790,2.1034,1.3342,6.0898,41.2039,-0.2879,-0.2401,0.5081,224.0469
15:40:26:816,2.119,1.5054,6.1293,41.8883,-0.1665,-0.1439,0.2987,223.3281
15:40:26:831,1.8867,1.7436,6.4597,40.9966,-0.0194,0.0207,0.1648,222.7812
15:40:26:850,1.882,1.9483,6.8475,40.4757,0.0996,0.1384,0.1291,222.4688
15:40:26:875,1.9394,2.1841,7.2665,39.8841,0.1372,0.0798,0.1371,222.2969
15:40:26:889,1.9167,2.4559,7.9884,40.6307,0.1188,-0.0638,0.1712,222.2188
15:40:26:912,1.7036,2.7108,8.9137,41.2129,0.1158,-0.1636,0.254,222.0312
15:40:26:941,1.6689,2.8581,9.4333,39.2155,0.1414,-0.256,0.3973,221.8594
15:40:26:951,2.0962,2.9742,9.7936,38.7433,0.1497,-0.3932,0.5437,221.6406
15:40:26:971,2.6709,2.9191,10.1898,39.105,0.114,-0.5527,0.641,221.2969
15:40:26:994,3.3113,2.7827,10.8016,40.3002,0.0623,-0.7343,0.6479,220.4688
15:40:27:018,3.5531,2.6534,11.4145,38.9463,0.0429,-0.8715,0.5408,219.8125
15:40:27:032,3.4609,2.5708,11.8562,41.2253,0.0796,-0.8909,0.4002,219.1562
15:40:27:051,3.1832,2.6318,12.0681,40.7243,0.1049,-0.7623,0.2817,218.6406
15:40:27:076,2.7822,2.3374,12.5757,39.6742,-0.0115,-0.2624,0.2822,218.2812
15:40:27:098,3.4178,1.9627,13.3921,41.5791,-0.1161,-0.0486,0.3307,218.0312
15:40:27:118,4.1924,1.2396,14.1618,40.1558,-0.0453,-0.1285,0.279,217.8281
15:40:27:133,5.1429,0.9415,13.5202,39.8938,0.1965,-0.3413,0.0228,217.1875
15:40:27:151,4.9932,0.7883,12.4344,41.0598,0.3625,-0.3373,-0.3894,217.1875
15:40:27:170,3.9314,0.8015,11.6168,40.6087,0.3939,0.0169,-0.7306,216.8906
15:40:27:189,2.5954,0.8876,11.4049,40.1333,0.3689,0.4577,-0.8912,216.8906
15:40:27:212,1.4965,0.9523,10.6938,41.5186,0.4256,0.679,-0.872,217.2812
15:40:27:233,0.795,1.1307,9.4069,41.9645,0.4762,0.7213,-0.7207,218.5156
15:40:27:251,0.6884,1.0325,8.0937,41.0249,0.4677,0.606,-0.5023,219.4219
15:40:27:270,1.2714,0.8877,7.0151,43.0397,0.3854,0.3483,-0.3697,220.1562
15:40:27:288,1.7503,0.8505,6.559,41.1513,0.2879,0.0441,-0.4184,220.7031
15:40:27:311,1.7634,0.8649,6.6967,42.0216,0.2631,-0.1634,-0.5372,221.2344
15:40:27:333,1.3133,0.9367,6.7458,40.6604,0.347,-0.2459,-0.6225,221.2344
15:40:27:351,0.9805,1.1247,6.7182,41.0188,0.4615,-0.1903,-0.623,221.6562
15:40:27:369,0.8824,1.175,6.7961,41.7724,0.5718,-0.0677,-0.5657,222.2656
15:40:27:389,0.8237,1.175,6.8427,42.8669,0.6791,0.0169,-0.4975,222.9844
15:40:27:409,0.7052,1.1917,6.5531,41.8188,0.7262,0.0633,-0.4049,223.6406
15:40:27:432,0.6154,1.3749,6.425,42.5002,0.6013,0.1677,-0.2563,224.25
15:40:27:450,0.704,1.5413,7.0905,40.9802,0.3502,0.3171,-0.064,224.75
15:40:27:469,0.8261,1.5868,8.0626,43.2508,0.1276,0.3158,0.1523,225.125
15:40:27:494,1.0488,1.6622,8.6599,42.3856,0.0093,0.1301,0.3648,225.1875
15:40:27:513,1.3049,1.9686,8.9568,41.9842,-0.0786,-0.0406,0.5062,225.1875
15:40:27:531,1.2894,2.2021,9.3243,41.9704,-0.1513,-0.0432,0.6263,224.8594
15:40:27:548,1.6222,2.4295,9.6643,43.4059,-0.2168,0.1347,0.7627,224.3438
15:40:27:570,2.0867,2.5193,10.2413,43.6697,-0.3284,0.2851,0.8351,223.7188
15:40:27:590,2.0268,2.4223,10.9727,43.8091,-0.4469,0.2401,0.8047,222.9375
15:40:27:609,1.7455,2.4978,11.5102,43.8091,-0.547,0.1727,0.7637,222.0312
15:40:27:634,1.3253,2.6821,12.1244,45.4975,-0.6474,0.251,0.8,221.0625
15:40:27:651,1.1553,2.6678,13.3143,44.4072,-0.738,0.4028,0.9488,220.1875
15:40:27:669,1.5839,2.1494,14.3474,43.0309,-0.6349,0.275,1.1075,219.3594
15:40:27:689,2.3452,1.7436,13.6555,44.6877,-0.3262,-0.2049,1.1075,218.375
15:40:27:709,2.5811,1.8501,11.8323,43.2382,-0.0352,-0.5959,0.944,217.1875
15:40:27:732,1.8365,1.7352,10.051,44.0904,0.0743,-0.4683,0.8218,215.9375
15:40:27:750,1.3804,1.7256,9.219,44.5631,-0.0146,-0.0044,0.8114,214.8906
15:40:27:770,1.0045,1.716,9.3423,45.2112,-0.1316,0.4055,0.8418,213.9844
15:40:27:790,0.643,1.4587,9.1352,44.2534,-0.0983,0.5067,0.9033,213.0938
15:40:27:815,0.8692,1.3569,8.1404,43.7424,0.0285,0.4204,0.9544,212.6719
15:40:27:832,1.293,1.2252,6.7147,43.832,0.1284,0.2577,0.9398,211.125
15:40:27:857,1.6796,1.3007,5.5702,45.2481,0.1145,0.0819,0.8596,209.9844
15:40:27:868,1.9777,1.3055,5.0698,45.4289,0.0333,-0.0899,0.7395,208.8906
15:40:27:889,2.1776,1.3737,5.2566,44.5707,-0.0288,-0.199,0.6125,207.8125
15:40:27:910,2.2734,1.5963,5.7127,45.4865,-0.029,-0.1761,0.495,206.8906
15:40:27:931,2.2746,1.837,6.6045,44.8622,0.0237,0.0161,0.4439,206.1406
15:40:27:952,2.4362,1.9579,7.5562,44.583,0.1183,0.2582,0.4407,205.5781
15:40:27:969,2.8612,2.0716,8.5103,46.5039,0.1859,0.3541,0.4268,205.0625
15:40:27:989,2.7307,2.1686,9.0263,45.8046,0.2037,0.2417,0.3991,204.5312
15:40:28:010,2.7534,2.4511,9.3602,45.7771,0.1502,0.018,0.4364,204
15:40:28:031,3.1509,2.6163,9.7278,45.2434,0.0722,-0.2608,0.503,203.4531
15:40:28:049,3.5376,2.5732,9.9564,45.8687,0.0336,-0.513,0.5195,202.9531
15:40:28:069,4.2031,2.7288,10.1683,45.404,0.0064,-0.6654,0.4748,202.4375
15:40:28:091,4.7203,2.8258,10.5945,45.7193,0.0013,-0.639,0.3632,201.8906
15:40:28:118,4.8615,2.809,10.9524,45.6155,-0.0027,-0.5061,0.2407,201.1875
15:40:28:134,4.8999,2.5552,11.3881,43.8682,-0.0716,-0.411,0.131,200.8594
15:40:28:151,4.9872,2.4415,12.2548,44.5757,-0.196,-0.3495,0.0114,200.6562
15:40:28:169,4.9777,2.3781,13.434,44.9055,-0.2487,-0.2984,-0.1372,200.5625
15:40:28:189,4.9453,2.1817,14.2552,44.8124,-0.1158,-0.2275,-0.28,200.625
15:40:28:210,4.8316,1.8621,13.8913,43.624,0.1539,-0.244,-0.424,200.8594
15:40:28:232,4.4521,1.6011,12.5362,45.2962,0.3611,-0.2467,-0.5641,201.2188
15:40:28:251,3.8273,1.6203,11.2696,43.5576,0.3659,-0.1,-0.6667,201.7188
15:40:28:270,3.0348,1.6047,10.6938,43.814,0.2178,0.1743,-0.6595,202.2969
15:40:28:292,2.5691,1.5377,10.3993,42.6753,0.0692,0.3192,-0.554,203.0156
15:40:28:317,2.198,1.2803,9.6488,42.753,0.0069,0.3147,-0.4557,203.375
15:40:28:335,1.9813,1.1271,8.4624,43.364,-0.0192,0.2883,-0.3785,204.0156
15:40:28:353,2.0112,1.0217,7.3479,43.9468,-0.0439,0.3008,-0.345,204.5
15:40:28:369,1.9622,0.9679,6.7278,42.5001,-0.0429,0.3943,-0.3793,204.9375
15:40:28:389,1.8592,0.8745,6.3914,40.7067,0.0179,0.5078,-0.4512,205.2969
15:40:28:411,1.7503,0.8087,6.2143,42.1633,0.1089,0.5749,-0.546,205.8438
15:40:28:436,1.6521,0.7679,6.2119,42.4617,0.229,0.5522,-0.6568,206.2812
15:40:28:522,1.4594,0.7129,6.2562,40.4113,0.3531,0.446,-0.774,206.8125
15:40:28:523,0.9267,1.0409,6.231,40.9692,0.4666,0.2609,-0.8763,207.4062
15:40:28:523,0.4407,1.2121,6.4453,39.6078,0.4043,0.3112,-0.7716,207.4062
15:40:28:523,0.1222,1.3007,6.9182,42.3755,0.2762,0.3544,-0.558,208.1875
15:40:28:539,0.3904,1.3426,7.5538,41.401,0.1031,0.2998,-0.2898,209.9844
15:40:28:554,0.8297,1.3342,8.2625,40.6488,-0.102,0.1485,-0.0461,209.9844
15:40:28:573,1.2607,1.394,9.1699,40.1926,-0.3587,0.0273,0.1645,210.7344
15:40:28:588,1.3852,1.3916,10.7944,40.893,-0.6104,0.0409,0.3445,211.5469
15:40:28:611,1.281,1.1426,12.3746,40.3472,-0.6983,0.0872,0.5025,211.5781
15:40:28:636,1.208,0.9224,12.7564,39.3335,-0.6474,0.0974,0.6247,211.4062
15:40:28:651,1.1194,0.908,12.1339,39.834,-0.6695,0.0662,0.7083,211.0625
15:40:28:668,0.9746,1.0684,11.9448,38.4397,-0.8794,0.1592,0.788,210.2344
15:40:28:689,0.7615,1.2432,13.0174,39.5341,-1.1063,0.3112,0.9081,209.5
15:40:28:708,1.2307,1.2791,14.2863,38.0729,-1.0504,0.1983,1.0434,208.7031
15:40:28:733,1.7898,1.0181,13.8841,41.1156,-0.6812,-0.214,1.0532,207.8438
15:40:28:750,1.7898,1.1929,11.7856,40.4994,-0.3209,-0.619,0.8806,206.7656
15:40:28:768,0.6621,1.5616,9.9121,39.3027,-0.2964,-0.7455,0.7137,205.6094
15:40:28:788,-0.6116,2.1015,10.0582,39.8534,-0.5321,-0.4198,0.7438,205.0781
15:40:28:809,-1.2161,2.0129,11.8347,39.7784,-0.6261,0.0958,1.0016,204.2031
15:40:28:833,-0.523,1.4228,12.3578,39.2096,-0.3372,0.2694,1.3158,203.4844
15:40:28:853,0.9255,1.09,10.8985,38.5757,0.0722,0.0345,1.4335,202.7188
15:40:28:868,1.8963,0.7464,8.8036,40.2349,0.3486,-0.2757,1.3342,201.7031
15:40:28:891,2.35,0.7344,7.0953,39.8372,0.473,-0.4619,1.1068,200.2031
15:40:28:916,2.2076,0.7847,5.9856,37.8762,0.538,-0.5064,0.8687,198.5469
15:40:28:932,1.9993,0.8865,5.1608,39.6094,0.5798,-0.4153,0.7054,197
15:40:28:951,1.9669,1.072,4.5599,39.7477,0.5667,-0.2473,0.6186,195.2344
15:40:28:968,2.022,1.1977,4.6676,39.513,0.4964,-0.0518,0.5834,194.3125
15:40:28:989,2.2578,1.2647,5.6085,39.1265,0.4197,0.197,0.5637,193.5
15:40:29:009,2.7822,1.2923,7.1731,40.6734,0.3987,0.4707,0.5083,192.7969
15:40:29:031,3.2299,1.3557,8.6564,38.5849,0.4522,0.6095,0.3701,192.0625
15:40:29:051,3.0922,1.5616,9.5051,39.9858,0.5622,0.5536,0.2215,191.3594
15:40:29:070,2.9617,1.6861,9.4704,39.0073,0.6338,0.3517,0.1691,190.7656
15:40:29:089,3.0683,1.892,9.0622,39.7927,0.5156,0.03,0.1608,190.3125
15:40:29:109,3.2993,2.2979,9.395,39.2809,0.228,-0.1996,0.177,189.9844
15:40:29:133,3.7865,2.4307,10.5969,39.6391,-0.0597,-0.3492,0.2191,189.7188
15:40:29:151,4.2259,2.4523,12.444,40.1088,-0.2152,-0.467,0.1762,189.4844
15:40:29:168,3.8763,2.5002,13.7704,38.9841,-0.1481,-0.6134,0.0868,189.2812
15:40:29:191,3.3855,2.9395,14.0194,39.1786,-0.0141,-0.635,0.0689,189.1094
15:40:29:217,3.6321,2.8425,13.6614,39.7035,-0.0541,-0.3199,0.1925,189.0625
15:40:29:236,5.0686,2.5409,14.6646,40.3099,-0.2722,0.1152,0.2279,189.0625
15:40:29:253,5.4002,1.564,16.2077,40.5477,-0.2112,0.153,-0.1031,188.9844
15:40:29:269,4.5192,1.066,15.4499,40.4444,0.3057,-0.2542,-0.6025,188.6562
15:40:29:288,3.2478,1.1869,12.1782,40.4182,0.848,-0.5652,-0.9332,188.6562
15:40:29:309,2.2136,1.5928,8.6994,40.2978,0.9483,-0.4385,-0.9396,189.0625
15:40:29:334,1.9837,1.9459,6.9086,38.2588,0.6152,-0.064,-0.7319,189.9531
15:40:29:350,2.6409,1.8837,6.996,39.95,0.1771,0.2883,-0.5034,190.9219
15:40:29:368,3.1126,1.424,7.8675,40.2277,-0.0652,0.5027,-0.4331,191.7969
15:40:29:389,3.0982,1.1127,8.3475,39.3408,-0.017,0.5624,-0.538,192.4219
15:40:29:408,2.8145,1.0792,7.9357,41.7747,0.2402,0.614,-0.7039,192.8438
15:40:29:432,2.0831,1.1833,7.0499,39.5908,0.5116,0.6407,-0.8451,193.3125
15:40:29:451,1.3816,1.5377,6.0551,38.9829,0.6405,0.5778,-0.8656,193.9219
15:40:29:468,1.3421,1.9938,5.4362,40.1538,0.5734,0.3919,-0.7966,194.6406
15:40:29:488,1.4019,2.1506,5.8037,40.4722,0.4051,0.1461,-0.7849,195.4531
15:40:29:508,0.941,2.0117,6.838,40.987,0.3068,-0.1586,-0.823,196.25
15:40:29:533,0.5101,1.9974,7.5921,39.7537,0.3582,-0.3708,-0.7684,197.0469
15:40:29:552,0.4526,2.05,7.7944,40.8056,0.4711,-0.3895,-0.5471,198.375
15:40:29:570,0.9386,1.9459,7.8495,41.3617,0.5015,-0.2156,-0.2411,199.2969
15:40:29:588,1.8017,1.5173,8.1093,41.6975,0.4416,0.0169,0.0186,199.9219
15:40:29:607,2.3548,0.847,8.6456,41.4197,0.3414,0.0777,0.1057,200.1875
15:40:29:631,2.7403,0.6518,9.1627,42.3441,0.2282,0.0231,0.0513,200.1094
15:40:29:648,2.3057,0.5968,9.4955,41.718,0.0985,0.047,-0.0318,199.9375
15:40:29:667,1.8544,0.4782,9.7493,42.6197,-0.0868,0.0926,0.0151,199.8594
15:40:29:694,1.8113,0.3047,9.9995,42.6197,-0.3316,0.0287,0.0897,199.875
15:40:29:717,1.8963,0.416,11.0518,43.6533,-0.7827,0.055,0.0543,199.7812
15:40:29:731,1.5827,0.6806,12.0082,43.7183,-0.8597,0.2055,-0.0477,199.7344
15:40:29:750,0.9195,0.7799,12.5254,41.4616,-0.7742,0.2319,-0.0919,199.75
15:40:29:770,0.7675,1.1486,12.116,42.5732,-0.624,0.0928,-0.0278,199.7812
15:40:29:792,0.7519,1.4934,11.0925,43.9996,-0.5398,-0.1221,0.0639,199.7812
15:40:29:815,0.4371,1.801,10.2449,43.6434,-0.5489,-0.1636,0.1595,200.0156
15:40:29:834,-0.1172,2.0896,9.9301,43.3975,-0.628,0.0468,0.3219,200.0469
15:40:29:865,-0.511,2.1099,9.9061,44.2226,-0.7422,0.3115,0.5786,199.9531
15:40:29:873,-0.2225,1.9231,9.784,43.5046,-0.8477,0.36,0.87,199.6406
15:40:29:888,0.5113,1.7663,9.6296,43.7472,-0.8661,0.2263,1.0681,199.6406
15:40:29:909,1.2571,1.6849,8.9975,43.0714,-0.739,0.0556,1.1318,199
15:40:29:933,1.8748,1.7448,8.0997,45.0942,-0.534,-0.0733,1.042,198.0938
15:40:29:953,2.1489,1.8992,7.3276,44.2354,-0.2975,-0.108,0.8354,196.9219
15:40:29:967,1.9825,2.1638,6.7039,44.514,-0.0735,-0.0595,0.5917,195.6875
15:40:29:987,1.5216,2.3577,6.2837,44.9783,0.1158,-0.0177,0.4282,194.5625
15:40:30:008,1.2607,2.4954,6.1413,45.673,0.2506,0.0324,0.3999,193.6875
15:40:30:031,1.3684,2.4906,6.1532,43.4399,0.3028,0.1504,0.4748,193.0156
15:40:30:047,1.7539,2.5337,6.7111,46.2795,0.2197,0.2399,0.5651,192.5156
15:40:30:067,2.1513,2.5361,8.0638,45.7116,0.0756,0.2119,0.6111,192.0625
15:40:30:088,2.3596,2.5588,9.3435,46.2156,-0.0021,0.0683,0.6506,190.7656
15:40:30:107,2.5128,2.5875,9.79,44.8336,-0.069,-0.2153,0.7291,190.0781
15:40:30:132,2.8755,2.6665,9.9157,46.9164,-0.2431,-0.5841,0.8426,189.3281
15:40:30:150,3.7171,2.5851,10.8303,47.7318,-0.4637,-0.872,0.9241,188.9375
15:40:30:167,5.0483,2.4092,12.5481,46.0329,-0.4759,-0.9168,0.8708,188.0938
15:40:30:189,5.8408,2.2045,13.5381,49.2599,-0.216,-0.7564,0.6569,187.2344
15:40:30:208,5.7007,2.0153,13.2664,48.0097,0.1113,-0.5964,0.3611,186.3125
15:40:30:232,5.2769,2.2655,12.6008,46.2339,0.2578,-0.3831,0.0913,185.5469
15:40:30:252,4.5072,2.4439,12.5098,49.1631,0.143,-0.0499,-0.0307,185.2344
15:40:30:270,4.3324,1.8848,13.5082,47.6982,-0.1076,0.2931,0.0183,184.875
15:40:30:288,5.271,1.0253,15.0213,47.823,-0.176,0.1967,-0.0464,184.75
15:40:30:310,5.3799,0.4794,15.0429,47.6859,0.167,-0.2917,-0.4275,184.7656
15:40:30:333,4.4007,0.4471,12.9144,47.7012,0.6426,-0.5932,-0.8531,184.75
15:40:30:351,3.1533,0.8146,10.5238,48.7862,0.8575,-0.2355,-1.0312,184.8125
15:40:30:369,2.2291,1.0744,9.1543,46.7472,0.7627,0.381,-0.9521,185.2969
15:40:30:388,1.609,0.9738,8.6755,46.7288,0.5212,0.7248,-0.7482,186.2188
15:40:30:408,1.4462,0.8278,8.5474,47.3384,0.3188,0.7024,-0.5431,187.7188
15:40:30:433,1.6461,0.6494,8.3487,48.9705,0.253,0.4995,-0.4227,188.5312
15:40:30:451,2.2519,0.5441,7.9764,46.4926,0.3148,0.2159,-0.4557,189.1094
15:40:30:468,2.423,0.4292,7.3575,46.3982,0.4836,-0.0025,-0.6422,189.5156
15:40:30:487,2.1166,0.3825,6.3436,47.987,0.7015,-0.0864,-0.8557,189.9062
15:40:30:508,1.5911,0.501,5.32,47.9698,0.8562,0.0385,-0.9868,190.4688
15:40:30:533,0.9901,0.6889,4.7107,45.3526,0.8938,0.3003,-0.9908,191.2188
15:40:30:596,0.5963,0.8434,4.5958,45.9168,0.8088,0.5549,-0.8752,192.1875
15:40:30:597,0.5927,0.8446,4.9932,45.5331,0.6005,0.6564,-0.713,193.2031
15:40:30:597,0.7926,0.835,6.1113,44.5839,0.2812,0.5645,-0.5948,194.0781
15:40:30:611,0.795,0.9619,8.071,44.5108,0.0093,0.3605,-0.501,194.7812
15:40:30:635,0.3305,0.9774,9.5674,46.0503,-0.028,0.1474,-0.3641,195.3594
15:40:30:649,0.4143,1.1678,9.887,46.0536,0.1177,0.0151,-0.1151,195.875
15:40:30:668,0.4311,1.0193,9.055,45.9777,0.2157,0.0047,0.1355,196.3125
15:40:30:691,0.6897,1.0062,8.4109,46.2909,0.0381,0.1168,0.3451,196.5938
15:40:30:707,1.2738,1.1917,9.2992,45.8588,-0.3238,0.2311,0.4684,196.4375
15:40:30:728,1.4462,1.7939,11.1942,45.5234,-0.5372,0.2071,0.3989,196.0312
15:40:30:750,0.3688,2.5217,12.2836,44.7614,-0.4048,-0.0028,0.1536,195.4844
15:40:30:768,-1.6112,2.8796,11.6132,45.1505,-0.1185,-0.1343,0.1669,195.0312
15:40:30:788,-1.4711,3.38,9.6931,43.8156,-0.0884,-0.0241,0.6758,194.875
15:40:30:808,0.0983,3.1514,8.6935,44.1389,-0.5201,0.3389,1.3241,194.8438
15:40:30:834,1.7563,1.9615,10.2234,44.1956,-1.2235,0.7909,1.6996,194.4531
15:40:30:850,3.5136,0.8924,14.0852,45.4343,-1.6711,0.7336,1.5874,193.2812
15:40:30:867,4.02,0.4687,16.4998,43.3101,-1.33,0.0492,1.0495,191.5469
15:40:30:887,3.0635,0.7021,15.2201,43.543,-0.4946,-0.6667,0.3661,189.5781
15:40:30:908,1.3181,1.2025,12.1244,44.2727,0.1787,-0.6907,-0.0382,188.0938
15:40:30:933,0.2383,1.4611,9.3842,43.7004,0.4234,-0.1916,-0.0251,187.4219
15:40:30:951,0.3892,1.5413,7.5814,44.4907,0.3611,0.1866,0.1595,187.4062
15:40:30:967,0.7782,1.418,6.6201,42.9875,0.1904,0.1631,0.2782,187.4844
15:40:30:993,0.8728,1.394,5.9246,42.8672,0.0573,-0.0811,0.3025,187.25
15:40:31:007,0.9087,1.5999,5.3739,42.4071,-0.0029,-0.288,0.3174,186.8906
15:40:31:027,1.1098,1.8058,4.9681,43.7861,-0.0003,-0.3626,0.3091,186.5469
15:40:31:048,1.1158,1.9914,4.6592,42.086,0.013,-0.3202,0.2569,186.2344
15:40:31:067,0.941,2.0776,4.5946,41.6296,-0.0242,-0.219,0.237,185.9375
15:40:31:088,0.7531,2.0249,4.8999,43.1423,-0.1217,-0.2078,0.3043,185.6719
15:40:31:110,1.0081,2.1195,5.52,41.9196,-0.2823,-0.3122,0.4439,185.4375
15:40:31:132,1.4223,2.2416,6.644,40.8317,-0.429,-0.263,0.6487,185.1406
15:40:31:152,2.3033,2.1326,7.974,43.0491,-0.5199,-0.0057,0.8908,184.7031
15:40:31:167,3.425,1.7651,9.4369,41.0568,-0.5095,0.1128,0.9805,184.0469
15:40:31:188,4.5934,1.6299,10.4939,41.7421,-0.392,0.1043,0.8801,183.1406
15:40:31:208,5.1117,1.661,10.9955,40.3654,-0.2477,0.0931,0.649,182.0625
15:40:31:235,5.1908,1.8405,11.3079,39.5615,-0.2133,0.0345,0.4023,181.5625
15:40:31:249,5.2638,2.0812,11.8251,39.6987,-0.2895,-0.0398,0.1882,180.7031
15:40:31:270,4.755,2.408,13.9344,39.0609,-0.6426,-0.0752,-0.0685,179.9844
15:40:31:288,4.6628,2.4654,16.1622,39.092,-0.7683,0.1948,-0.081,179.7969
15:40:31:311,5.3404,1.8968,18.5133,39.0542,-0.6378,0.4332,-0.113,179.9844
15:40:31:335,5.5343,0.8637,19.0568,39.7186,-0.1587,0.3285,-0.3623,179.9844
15:40:31:353,4.8412,0.3789,17.0049,38.3879,0.4453,-0.0326,-0.7641,180.1719
15:40:31:369,3.2909,0.6171,13.8027,38.9299,0.8211,-0.1644,-1.0818,180.3594
15:40:31:386,1.7096,0.8601,11.3786,39.0483,0.8754,0.1253,-1.0949,180.75
15:40:31:408,1.105,0.993,9.9756,36.0281,0.7795,0.5469,-0.8888,181.5625
15:40:31:434,1.1769,0.519,9.0502,38.9375,0.674,0.6915,-0.6858,182.7188
15:40:31:454,1.6114,0.2245,8.8515,36.5265,0.5779,0.3831,-0.6874,183.8594
15:40:31:469,1.6006,0.1634,8.6923,37.0017,0.6629,-0.0947,-0.831,184.7031
15:40:31:486,1.4163,0.1622,7.5538,37.2333,0.9124,-0.4622,-0.9391,185.3438
15:40:31:507,1.2666,0.3741,5.976,37.0346,1.1047,-0.5687,-1.028,186.0469
15:40:31:528,0.935,0.6147,4.7299,37.3539,1.1228,-0.4401,-1.0765,187.9375
15:40:31:551,0.5891,0.7727,4.0858,37.0527,1.0067,-0.2097,-1.032,188.5156
15:40:31:570,0.3257,0.8146,4.1612,35.3063,0.8123,-0.0646,-0.9109,189.6875
15:40:31:587,0.3856,0.7763,5.0016,36.8568,0.6035,-0.011,-0.7817,190.7969
15:40:31:607,0.2551,0.7775,6.559,36.553,0.4764,0.018,-0.6957,191.8438
15:40:31:627,0.4442,0.9631,8.6073,35.4127,0.5084,0.1464,-0.6153,192.7344
15:40:31:650,-0.2836,0.6291,9.4979,36.1032,0.7513,0.3024,-0.5183,193.5
15:40:31:670,-0.608,0.7332,8.6145,35.8948,0.9076,0.4007,-0.3545,194.1875
15:40:31:687,-0.0119,1.4228,7.5251,35.53,0.7515,0.4154,-0.1844,194.4844
15:40:31:708,-0.2405,1.5161,7.1396,34.8921,0.3483,0.3927,-0.0137,194.9531
15:40:31:733,-0.4691,1.5952,7.573,35.6123,-0.1649,0.2913,0.2149,195.1875
15:40:31:750,0.0851,1.898,8.8515,35.6123,-0.6493,0.1914,0.4332,195.2344
15:40:31:767,0.698,1.8525,10.628,35.7822,-0.947,0.1538,0.5416,195.1406
15:40:31:786,0.8501,1.6921,11.8442,35.4116,-0.988,0.1096,0.5398,194.8281
15:40:31:808,0.5795,1.643,11.7449,35.8441,-0.951,0.0649,0.5779,194.3594
15:40:31:832,0.6286,1.7879,11.4552,36.8196,-1.1239,0.1743,0.7752,193.4844
15:40:31:851,1.3648,1.3833,12.5445,35.0962,-1.3896,0.1714,1.0572,192.9375
15:40:31:869,2.2734,0.6267,13.5561,33.8812,-1.4235,-0.1357,1.1568,192.2344
15:40:31:887,2.5212,0.7943,13.5645,36.2492,-1.1942,-0.5029,0.9232,191.2344
15:40:31:908,1.1697,1.3414,12.7289,36.383,-0.8354,-0.5218,0.5928,190.0156
15:40:31:933,-0.6523,1.6514,11.7389,33.4942,-0.5281,-0.0331,0.5712,188.9844
15:40:31:950,-0.9312,1.6933,10.5813,35.8411,-0.3135,0.5104,0.8628,188.2969
15:40:31:974,-0.3171,1.5185,9.1065,34.016,-0.2059,0.7192,1.1371,187.7969
15:40:31:987,0.5592,1.169,7.7789,35.4987,-0.2272,0.5142,1.2644,187.0469
15:40:32:008,1.5863,1.0672,6.808,34.9866,-0.3084,0.0486,1.1869,185.8438
15:40:32:036,2.1226,1.2803,6.3579,33.4693,-0.3494,-0.3383,0.9307,184.3906
15:40:32:057,2.0352,1.5568,6.1832,34.6934,-0.2748,-0.4188,0.6844,183.6406
15:40:32:066,1.5803,1.7915,6.0443,34.9679,-0.1057,-0.256,0.5683,181.8281
15:40:32:087,1.2726,1.8992,5.9952,35.4503,0.0698,-0.0022,0.6071,180.9688
15:40:32:109,1.87,1.9243,6.2969,36.1261,0.1691,0.1866,0.7161,180.3281
15:40:32:133,2.7858,1.8633,6.9074,34.8608,0.1787,0.1797,0.7153,179.7188
15:40:32:150,3.285,1.91,7.9704,35.5405,0.0996,0.0044,0.5914,178.9375
15:40:32:168,3.5136,2.2296,9.4859,34.1754,0.0368,-0.1109,0.4631,178.0469
15:40:32:195,3.2203,2.3469,10.6651,36.7058,0.0943,-0.1391,0.4106,177.3125
15:40:32:206,3.1928,2.4942,11.1308,34.0923,0.229,-0.2089,0.4335,176.7188
15:40:32:228,3.3269,2.5672,11.0817,34.8922,0.3529,-0.2837,0.4572,176.2344
15:40:32:253,3.8751,2.5648,10.7489,34.8917,0.3784,-0.3799,0.4793,175.75
15:40:32:269,4.6281,2.5804,10.7297,35.616,0.2751,-0.4499,0.4117,175.2656
15:40:32:287,5.0231,2.4738,11.5019,35.9713,0.1063,-0.4747,0.2535,174.7031
15:40:32:307,4.9549,2.4152,12.5266,35.5554,0.016,-0.488,0.0452,174.1719
15:40:32:327,4.658,2.4642,12.9264,34.2302,-0.0181,-0.4238,-0.1186,173.7188
15:40:32:350,4.4569,2.4678,13.428,34.8917,-0.1148,-0.1455,-0.1982,173.7031
15:40:32:367,4.8556,2.1255,14.9028,34.7698,-0.2306,0.3373,-0.2624,173.8906
15:40:32:386,5.6026,1.2444,16.5848,35.5739,-0.0615,0.6143,-0.4922,174.125
15:40:32:406,5.1022,0.24,16.5453,33.5395,0.4823,0.4364,-0.9303,174.4375
15:40:32:426,3.8632,0.0904,14.2744,34.9756,1.061,0.0398,-1.3913,174.9531
15:40:32:451,2.4578,0.5142,11.2816,35.7808,1.3012,-0.0339,-1.6416,175.8594
15:40:32:469,1.5049,0.8398,9.2489,35.745,1.2085,0.1525,-1.5823,177.3281
15:40:32:488,1.4295,0.9427,8.1165,35.1637,1.0091,0.2108,-1.4235,179.0781
15:40:32:508,1.4091,0.8302,7.3791,33.8637,0.845,0.1107,-1.3364,180.7344
15:40:32:528,1.3995,0.7919,6.5435,33.7428,0.7555,-0.0006,-1.305,182.1562
15:40:32:552,1.4366,0.7715,5.7725,35.2056,0.7033,-0.0896,-1.3255,183.5781
15:40:32:568,1.2655,0.8278,5.2374,34.7398,0.6599,-0.1396,-1.3791,184.2969
15:40:32:587,0.8082,0.9308,5.1225,35.5406,0.6256,-0.1365,-1.3932,185.7344
15:40:32:662,0.3844,1.0672,5.2865,33.6846,0.629,-0.1287,-1.345,187.1719
15:40:32:662,0.1234,1.3342,5.2327,34.8171,0.6456,-0.121,-1.2422,188.75
15:40:32:663,-0.0107,1.6191,5.0746,35.168,0.5822,-0.093,-1.0723,190.9844
15:40:32:667,-0.0777,1.9626,5.4433,34.0571,0.1835,-0.0544,-0.6414,192.3906
15:40:32:687,-0.0705,2.1338,6.225,34.0073,-0.0764,-0.0062,-0.424,192.3906
15:40:32:707,-0.1232,2.1889,7.3683,33.8858,-0.2695,0.0135,-0.2115,194.5781
15:40:32:731,-0.4979,2.074,8.1189,34.8594,-0.3888,-0.0707,0.0231,195.2656
15:40:32:752,-0.6475,2.0069,8.3224,35.7147,-0.5704,-0.2433,0.3227,196.0156
15:40:32:767,-0.207,1.7855,8.9317,33.7452,-0.9012,-0.464,0.6407,196.0156
15:40:32:792,1.0177,1.491,10.5885,35.1516,-1.2477,-0.5756,0.8553,195.75
15:40:32:806,2.0268,1.2061,13.343,34.1511,-1.3747,-0.4145,0.7994,195.75
15:40:32:826,1.9466,1.09,15.1877,33.4885,-1.0852,-0.0757,0.5541,195.1875
15:40:32:851,1.3373,1.3174,15.1913,34.246,-0.6309,0.3597,0.36,193.7344
15:40:32:867,1.2475,1.6215,14.1822,33.328,-0.408,0.7525,0.3768,193.7344
15:40:32:886,1.4725,1.6131,13.6602,33.6081,-0.4812,0.6225,0.4865,193.2188
15:40:32:906,1.6054,1.3078,13.1347,34.4425,-0.5334,-0.0848,0.5113,192.7969
15:40:32:929,1.609,1.2815,11.8885,33.9663,-0.437,-0.672,0.4402,191.9844
15:40:32:951,1.4139,1.5736,10.3539,32.8753,-0.2823,-0.6353,0.3927,191.3906
15:40:32:968,1.1374,1.8334,9.2812,33.2874,-0.2293,-0.0195,0.3848,190.9375
15:40:32:986,0.6166,1.9423,9.037,33.2451,-0.2708,0.5533,0.4615,190.625
15:40:33:007,0.1497,1.722,8.8802,33.9184,-0.285,0.7973,0.6354,190.2656
15:40:33:027,0.4454,1.6358,8.1727,33.9441,-0.2256,0.7024,0.8149,189.7812
15:40:33:051,1.0775,1.6167,6.9409,34.7827,-0.1997,0.4026,0.8711,189.125
15:40:33:069,1.6306,1.6311,6.1772,34.2918,-0.2405,0.0513,0.8287,188.2031
15:40:33:086,2.2159,1.655,5.9593,34.1394,-0.2748,-0.2251,0.7267,187.6875
15:40:33:107,2.6864,1.7364,6.3723,35.27,-0.237,-0.3365,0.5592,186.6562
15:40:33:127,2.3752,1.6933,6.7518,34.1103,-0.0831,-0.3442,0.3629,185.7656
15:40:33:151,2.0448,1.8789,6.9002,34.3157,0.1057,-0.296,0.2415,184.9688
15:40:33:169,2.1274,2.2416,6.7685,33.0394,0.2208,-0.2664,0.2314,184.3906
15:40:33:189,2.1729,2.4762,6.8954,33.0603,0.1926,-0.26,0.2735,184.0312
15:40:33:207,2.2854,2.5408,7.6029,34.1847,0.093,-0.2571,0.3286,183.6562
15:40:33:226,2.3871,2.5193,8.4888,34.0995,0.0099,-0.313,0.3427,183.3906
15:40:33:250,2.4374,2.6498,9.1136,35.6452,-0.0543,-0.4821,0.3555,183.0625
15:40:33:269,2.672,2.7408,9.6464,36.3965,-0.1638,-0.6667,0.4434,182.7031
15:40:33:285,3.1928,2.6893,10.4855,36.4297,-0.3084,-0.8603,0.5259,182.3594
15:40:33:307,4.1948,2.4978,11.8227,35.4734,-0.4091,-0.8571,0.5376,181.9844
15:40:33:327,5.6576,2.3613,13.4627,34.5176,-0.3505,-0.5748,0.3834,181.5625
15:40:33:352,5.9533,2.1027,14.2983,35.393,-0.0945,-0.3402,0.0324,181.0781
15:40:33:369,5.2135,2.4056,14.0146,36.5711,0.1225,-0.154,-0.2938,180.6406
15:40:33:388,4.3264,2.5959,13.5489,36.9379,0.1196,-0.0211,-0.4147,180.4844
15:40:33:406,4.3767,2.317,13.7081,36.7728,-0.0362,0.046,-0.362,180.6719
15:40:33:426,5.1177,1.6442,13.9978,37.3465,-0.0794,-0.1596,-0.4118,181.0938
15:40:33:450,5.2997,1.0744,13.1838,37.3125,0.1148,-0.5184,-0.685,181.5156
15:40:33:467,4.6987,1.1091,11.4288,38.0286,0.379,-0.5375,-1.0145,181.9375
15:40:33:487,3.4753,1.3904,9.7697,36.0808,0.4879,-0.0608,-1.1897,182.5781
15:40:33:507,2.3105,1.6155,9.0275,38.9005,0.3973,0.5751,-1.1364,184.1406
15:40:33:527,1.4283,1.491,8.6169,36.9253,0.2479,0.953,-0.9109,185.4219
15:40:33:551,1.269,1.3749,8.0602,39.7036,0.1076,0.9839,-0.6603,186.5938
15:40:33:568,1.3624,1.1857,7.8962,37.7397,0.0312,0.8396,-0.541,187.4688
15:40:33:586,1.4522,0.9535,7.6723,38.7885,0.094,0.5807,-0.5679,187.7812
15:40:33:608,1.7539,0.9762,7.3132,37.7186,0.2594,0.3663,-0.6797,188.3125
15:40:33:625,1.7682,1.0122,7.0175,38.4085,0.4799,0.2944,-0.8224,188.8281
15:40:33:646,1.1841,0.9415,6.5614,37.9275,0.714,0.3184,-0.9138,189.4219
15:40:33:669,0.5783,0.9571,6.0084,40.3272,0.8512,0.4276,-0.8829,190.1875
15:40:33:687,0.4347,1.066,5.7342,38.1974,0.7731,0.6228,-0.7314,191.0938
15:40:33:707,0.5676,1.0732,6.3472,38.8412,0.5188,0.6487,-0.5617,192.0156
15:40:33:729,0.7303,0.9906,7.713,38.118,0.2546,0.3751,-0.4376,192.75
15:40:33:752,0.935,1.0265,8.9892,37.1198,0.155,-0.0347,-0.3481,193.3281
15:40:33:766,0.8309,1.1762,9.2489,40.2001,0.2264,-0.3314,-0.2624,193.7656
15:40:33:786,0.6226,1.3306,8.7306,39.3292,0.3047,-0.3452,-0.0842,194.3281
15:40:33:808,0.6166,1.4299,8.2326,39.3292,0.229,-0.0353,0.1669,194.6875
15:40:33:825,0.8453,1.1738,8.5702,39.5851,-0.0301,0.2766,0.3952,194.8281
15:40:33:848,1.2463,0.902,9.7038,40.283,-0.3353,0.2494,0.5046,194.6562
15:40:33:867,1.2846,0.6147,10.7405,39.4235,-0.5534,-0.1074,0.4687,194.1406
15:40:33:885,0.9985,0.7895,11.3929,38.3237,-0.669,-0.3916,0.36,193.5469
15:40:33:906,0.3473,1.0744,11.6048,41.0907,-0.75,-0.3093,0.3422,193.0781
15:40:33:926,-0.0035,1.2516,12.025,39.0971,-0.8903,0.1094,0.5278,192.7969
15:40:33:950,0.4035,0.9475,13.0354,40.8317,-1.0205,0.5051,0.7906,192.5
15:40:33:969,1.5276,0.246,13.6291,39.414,-0.9673,0.2827,0.8727,191.9531
15:40:33:989,2.1214,-0.173,12.9922,39.728,-0.6895,-0.3117,0.6404,191.0781
15:40:34:007,1.8628,0.2807,11.1846,42.1858,-0.3388,-0.6622,0.2449,190.1094
15:40:34:029,0.4287,0.8949,9.456,40.7768,-0.1502,-0.3037,-0.0142,189.4688
15:40:34:052,-0.9348,1.3964,8.5678,41.1347,-0.1651,0.34,0.082,189.3281
15:40:34:068,-0.9576,1.5796,8.1284,38.641,-0.3121,0.7166,0.4489,189.3281
15:40:34:087,1.0895,0.9978,7.312,38.3655,-0.4772,0.6255,0.7845,189.25
15:40:34:108,1.9442,0.8589,7.2366,41.9139,-0.6605,-0.3498,0.724,188.7031
15:40:34:127,2.1274,1.236,7.0079,41.3546,-0.5457,-0.6739,0.462,188.7031
15:40:34:151,1.8006,1.6694,6.6656,42.7936,-0.3361,-0.5479,0.328,186.7812
15:40:34:169,1.8604,2.0872,6.4046,41.353,-0.1158,-0.2172,0.3091,186.7812
15:40:34:185,1.8568,2.1709,6.2622,42.9064,0.0418,0.0361,0.3102,186.0312
15:40:34:206,1.7239,2.2069,6.4441,41.924,0.0631,0.1102,0.3075,185.3281
15:40:34:226,1.7718,2.4044,7.3144,41.3479,-0.0583,0.0327,0.3363,185
15:40:34:252,1.9298,2.6618,8.9281,41.491,-0.1776,-0.0912,0.4135,184.6562
15:40:34:270,2.2135,2.6246,10.1874,41.9735,-0.1718,-0.2326,0.547,184.2969
15:40:34:287,3.0036,2.39,10.877,41.4582,-0.1198,-0.4813,0.6391,183.9219
15:40:34:305,3.8452,2.2703,11.2325,40.8836,-0.09,-0.7655,0.577,183.4688
15:40:34:325,4.3731,2.2871,11.8143,40.559,-0.0954,-0.8696,0.4181,182.9062
15:40:34:345,4.6652,2.4223,12.5038,43.1728,-0.0485,-0.7706,0.2721,181.8906
15:40:34:369,4.6437,2.4379,12.8953,41.484,0.0615,-0.5058,0.1603,181.4062
15:40:34:385,4.3707,2.1698,12.8654,41.4975,0.1585,-0.3434,0.0519,181.0938
15:40:34:405,4.427,2.2979,12.5577,41.0935,0.1523,-0.3077,-0.0762,180.8906
15:40:34:426,4.366,2.2871,12.7816,40.2268,0.029,-0.1535,-0.1774,180.7656
15:40:34:453,4.6712,1.6873,13.7632,40.1816,-0.0578,0.0731,-0.2198,180.7812
15:40:34:469,5.4457,1.0493,14.1702,40.3487,0.0905,0.0271,-0.4219,180.9375
15:40:34:488,5.1165,0.5525,13.2377,40.894,0.4056,-0.1687,-0.8232,181.1719
15:40:34:506,4.2319,0.7476,11.5569,39.7769,0.6229,-0.0933,-1.15,181.3125
15:40:34:527,2.9354,0.9104,10.4257,39.5961,0.6234,0.258,-1.2504,181.75
15:40:34:551,2.0795,1.0409,9.8989,38.5253,0.493,0.5482,-1.1378,182.6562
15:40:34:568,1.3852,1.0074,9.1927,40.5524,0.3185,0.4955,-0.9245,183.8906
15:40:34:586,0.9805,1.1534,8.308,37.4332,0.0567,0.1618,-0.6637,185.1406
15:40:34:611,0.7974,1.3438,7.9465,39.1088,-0.2032,-0.3679,-0.4243,186.3125
15:40:34:624,0.8034,1.5676,7.5562,37.1497,-0.3308,-0.9445,-0.2669,187.2812
15:40:34:646,0.5843,1.6227,6.996,36.7413,-0.3574,-1.3407,-0.1734,188.2812
15:40:34:670,1.1326,1.5856,7.3659,38.0341,-0.2927,-1.4281,-0.0746,188.7656
15:40:34:743,1.9502,1.2001,8.7557,37.1183,0.0426,-1.1762,-0.0781,189.2031
15:40:34:744,2.2782,0.3454,9.1891,37.5294,0.6727,-0.7708,-0.1623,189.5312
15:40:34:756,2.6493,-0.1514,7.8878,37.7379,1.228,-0.3612,-0.2762,189.7656
15:40:34:756,2.629,-0.1514,6.5219,36.6345,1.3809,-0.0536,-0.4225,189.9375
15:40:34:772,2.0747,-0.1203,6.2262,36.2567,1.199,0.173,-0.4488,190.0625
15:40:34:785,1.8053,0.0545,6.7458,37.5121,0.8954,0.2731,-0.3013,190.2188
15:40:34:808,1.8903,0.2652,7.4617,35.6753,0.6312,0.1637,-0.1191,190.4844
15:40:34:824,2.1202,0.1574,7.9704,36.5842,0.4517,-0.0089,0.0258,190.6875
15:40:34:845,2.4566,0.2041,8.29,36.0742,0.2903,0.0417,0.1342,190.7344
15:40:34:866,2.7104,0.07,8.703,36.7401,0.094,0.2361,0.1869,190.6719
15:40:34:887,3.5268,0.0664,9.3531,36.3023,-0.1382,0.3538,0.1411,190.5156
15:40:34:906,3.34,0.1275,10.3048,34.1363,-0.2828,0.2769,-0.1316,190.2812
15:40:34:930,1.8137,0.3969,10.4053,34.5216,-0.2354,0.0896,-0.394,189.9375
15:40:34:952,0.7076,1.1522,9.4177,34.734,-0.1856,0.0625,-0.3125,190.0781
15:40:34:968,0.2647,1.7556,8.6025,35.3782,-0.3888,0.377,0.1158,190.5312
15:40:34:986,0.6549,1.7005,9.0526,34.5137,-0.8256,0.8343,0.7272,190.9062
15:40:35:005,1.7275,0.7428,10.8818,34.164,-1.2136,1.0324,1.201,190.7812
15:40:35:026,2.5966,0.0305,12.4236,32.6676,-1.3092,0.7389,1.2948,190.4375
15:40:35:053,2.7271,0.1287,12.2608,34.2489,-1.1209,0.3102,1.1129,189.3594
15:40:35:071,2.1525,0.6171,10.6866,33.5005,-0.8956,0.1608,0.943,187.9375
15:40:35:086,1.9777,1.0253,9.2597,34.3026,-0.7931,0.2955,0.9424,186.6562
15:40:35:105,2.3009,1.2707,8.5666,34.4876,-0.7209,0.4968,0.9584,185.625
15:40:35:126,2.2734,1.1977,7.8902,32.3392,-0.6456,0.5581,0.8972,184.7031
15:40:35:146,2.3895,1.1917,7.7334,33.1462,-0.621,0.4351,0.797,183.6875
15:40:35:168,2.8325,1.2516,8.0363,32.938,-0.5824,0.1139,0.6612,182.6719
15:40:35:186,3.4095,1.3378,8.6432,33.0747,-0.4445,-0.207,0.4689,181.7812
15:40:35:210,3.5399,1.4946,8.8311,31.6728,-0.1587,-0.3088,0.2702,181.0156
15:40:35:225,3.425,1.6586,8.3798,32.3123,0.1859,-0.2105,0.1336,180.2188
15:40:35:250,3.1988,1.971,7.6699,33.6395,0.4187,-0.0363,0.0447,179.9531
15:40:35:270,3.0324,2.0704,7.664,32.2884,0.5028,0.1954,0.0356,179.7812
15:40:35:290,3.2323,2.1362,8.1009,31.8992,0.5385,0.3805,0.0758,179.6875
15:40:35:313,3.2646,2.1063,8.4864,30.5078,0.5454,0.308,0.075,179.5625
15:40:35:324,3.2874,2.1961,8.4924,32.0124,0.4908,0.0225,0.0679,179.3906
15:40:35:346,3.5795,2.2607,8.5367,31.7076,0.3665,-0.2214,0.083,179.2188
15:40:35:369,4.2498,2.1805,9.4333,29.8576,0.2168,-0.2286,0.0463,179.0781
15:40:35:396,4.4952,1.9878,10.9272,30.2716,0.119,-0.0728,-0.0824,178.9531
15:40:35:405,4.6676,1.9627,12.7002,30.8732,0.0756,0.0492,-0.2035,178.8906
15:40:35:426,4.166,1.922,13.7189,30.3993,0.1119,-0.1452,-0.3162,178.9688
15:40:35:452,3.6968,1.9662,13.2245,30.7811,0.139,-0.5224,-0.3415,179.1875
15:40:35:468,4.0152,2.2416,12.5505,30.7212,0.0011,-0.6449,-0.3029,179.5312
15:40:35:488,4.7311,1.3713,14.3414,28.8468,-0.2421,-0.3391,-0.2579,179.9531
15:40:35:513,4.8795,0.653,15.2225,29.1343,-0.1459,0.1658,-0.4557,180.1562
15:40:35:526,4.1744,0.2197,14.6299,29.3039,0.22,0.1693,-0.7292,180.6875
15:40:35:550,3.0288,0.3047,12.7888,29.6691,0.5047,0.1237,-0.9511,181.5781
15:40:35:568,2.1429,0.5249,10.5574,28.268,0.5657,0.0966,-0.9838,182.3281
15:40:35:586,1.7251,0.6734,8.8144,29.2416,0.4309,0.0707,-0.8826,182.3281
15:40:35:607,1.4582,0.7584,7.8555,29.2246,0.2551,-0.0174,-0.7833,183.3438
15:40:35:625,1.0763,0.75,7.2067,28.9472,0.159,-0.1077,-0.7186,184.375
15:40:35:645,0.9506,0.5716,6.9852,29.002,0.1563,-0.1745,-0.6842,185.2812
15:40:35:668,1.3935,0.6566,6.9792,29.1237,0.2336,-0.2467,-0.7173,186.1406
15:40:35:685,1.6928,0.665,7.2438,28.962,0.4117,-0.1911,-0.7942,186.9531
15:40:35:707,1.5145,0.4854,7.0882,29.5468,0.6922,-0.0635,-0.872,187.7031
15:40:35:724,1.2643,0.5154,6.6129,28.8263,0.9151,0.0561,-0.9402,188.5156
15:40:35:744,0.6442,0.7069,6.1987,28.8337,0.9835,0.1991,-0.9205,189.3906
15:40:35:767,0.1893,0.8901,5.9617,27.9329,0.89,0.3088,-0.733,190.3125
15:40:35:786,0.2683,1.0445,6.3519,30.046,0.6448,0.3301,-0.468,192.1094
15:40:35:805,0.6992,0.9332,7.5658,27.5829,0.3931,0.3011,-0.2336,192.4844
15:40:35:824,1.1278,0.9762,8.4708,29.7553,0.2559,0.2444,-0.088,193.0156
15:40:35:845,1.0739,1.0493,8.6851,28.8326,0.1654,0.1592,0.0098,193.2812
15:40:35:869,1.2619,1.3043,8.788,28.8326,-0.0043,0.1661,0.1464,193.3281
15:40:35:885,1.5743,1.3031,9.5829,30.0851,-0.2378,0.2785,0.2804,193.3594
15:40:35:906,1.8209,1.0433,10.7896,29.9889,-0.3891,0.3283,0.3421,193.2969
15:40:35:925,1.8125,0.9164,11.4001,30.9341,-0.4085,0.2263,0.2599,193.1094
15:40:35:945,1.111,0.9128,11.1284,31.2658,-0.3875,0.1216,0.111,192.3438
15:40:35:966,0.3317,1.1977,10.6316,28.1815,-0.4748,0.1552,0.1278,192.1875
15:40:35:987,-0.0202,1.4551,10.5765,30.5093,-0.6985,0.3605,0.3645,191.9844
15:40:36:004,0.3545,1.4934,11.7042,29.9531,-0.9281,0.5925,0.6846,191.9062
15:40:36:025,0.9482,1.0433,12.8079,29.4956,-0.9151,0.5861,0.89,191.6562
15:40:36:047,1.22,0.744,12.5769,29.718,-0.6938,0.2825,0.9059,191.0781
15:40:36:068,0.7531,0.6901,11.0565,29.8155,-0.5294,-0.0427,0.8609,190.1406
15:40:36:087,0.4514,0.8865,9.723,29.9181,-0.6091,-0.0158,0.9179,189.0938
15:40:36:106,0.8285,1.1163,9.4919,32.2199,-0.7814,0.1853,1.0466,188.1719
15:40:36:125,1.3744,1.2312,9.8319,29.9207,-0.8152,0.307,1.0873,187.2344
15:40:36:145,1.5647,1.1139,9.3998,30.3786,-0.6274,0.198,1.0135,186.1562
15:40:36:169,1.8269,1.2097,8.1835,32.943,-0.3526,-0.0132,0.8564,185.0156
15:40:36:186,1.858,1.4264,6.6357,30.2174,-0.1348,-0.1567,0.649,183.8438
15:40:36:205,1.8245,1.6299,5.5642,30.6498,-0.0549,-0.15,0.5094,182.7969
15:40:36:229,1.8903,1.7987,5.2686,33.0462,-0.0605,-0.0422,0.4687,181.9688
15:40:36:254,1.8856,1.916,5.7342,33.8329,-0.0879,0.0737,0.4612,181.375
15:40:36:270,1.9047,1.8884,7.0391,32.0383,-0.0746,0.1466,0.4532,181.0938
15:40:36:288,2.2064,1.9519,8.478,33.6091,0.0469,0.213,0.4295,180.3125
15:40:36:305,2.6277,2.165,9.4919,33.7708,0.1811,0.2417,0.3784,179.8125
15:40:36:326,2.951,2.2703,10.2353,34.0392,0.2754,0.2473,0.3411,179.2969
15:40:36:351,2.7894,2.3266,10.1216,32.6818,0.3316,0.084,0.3262,178.7969
15:40:36:366,2.6852,2.3625,9.5458,33.7483,0.2394,-0.1705,0.3613,178.3438
15:40:36:385,3.0623,2.4642,9.6583,33.2174,0.0077,-0.4054,0.4037,177.9531
15:40:36:405,3.7195,2.3685,10.8255,36.3746,-0.1686,-0.5429,0.3925,177.5469
15:40:36:425,4.2953,2.1997,12.0082,34.548,-0.1257,-0.5812,0.2697,177.125
15:40:36:445,4.7227,2.1315,12.8151,33.9564,0.0445,-0.4915,0.0489,176.7188
15:40:36:467,4.4378,1.9746,12.948,36.4098,0.2125,-0.4177,-0.2118,176.375
15:40:36:485,4.1134,2.329,12.6295,36.762,0.2288,-0.333,-0.3497,176.2344
15:40:36:506,3.9003,2.5911,13.1682,37.0174,-0.0011,-0.0355,-0.333,176.3438
15:40:36:527,4.3719,1.977,15.0297,37.4975,-0.241,0.2819,-0.2536,176.6875
15:40:36:554,5.1836,1.1726,16.7057,37.6566,-0.0879,0.1823,-0.4211,177.2812
15:40:36:570,4.4593,0.3322,15.6941,38.5615,0.4631,-0.2923,-0.8528,177.5625
