Time,Acc_X,Acc_Y,Acc_Z,Meg,Gyr_X,Gyr_Y,Gyr_Z,Ore
17:39:51:339,-2.1846,1.3785,8.7246,81.3542,-0.0865,0.16,0.0854,48.7031
17:39:51:350,-2.2672,1.4934,9.2441,79.7201,-0.1252,0.1898,0.086,48.7031
17:39:51:373,-2.1116,1.5556,9.6464,80.7619,-0.0514,0.0963,0.0583,48.7031
17:39:51:389,-2.1595,1.5688,9.5183,80.3556,0.0927,-0.0603,0.0069,191.75
17:39:51:409,-2.2552,1.5197,9.152,81.2225,0.1654,-0.1458,-0.0334,191.6406
17:39:51:436,-2.3426,1.4252,8.9987,80.6792,0.1443,-0.1338,-0.0411,191.6094
17:39:51:449,-2.436,1.4204,8.9413,80.3477,0.0961,-0.0624,-0.0187,191.6562
17:39:51:473,-2.3714,1.485,8.7856,79.7991,0.0498,0.0212,0.0175,191.7344
17:39:51:489,-2.2002,1.6155,8.6695,79.6946,0.0019,0.0265,0.0252,191.7969
17:39:51:522,-2.1978,1.6346,8.7725,80.2312,-0.0341,-0.0616,-0.0078,191.8125
17:39:51:535,-2.3725,1.4922,9.0131,81.5787,-0.0578,-0.1351,-0.027,191.7656
17:39:51:548,-2.5222,1.4168,9.3387,80.9773,-0.0732,-0.1343,-0.0019,191.7812
17:39:51:569,-2.4264,1.4048,9.4716,79.6938,-0.0666,-0.0427,0.0407,191.8125
17:39:51:587,-2.3366,1.473,9.4596,80.5365,-0.0543,0.0494,0.0649,191.8125
17:39:51:607,-2.2421,1.5509,9.3638,80.6239,-0.0242,0.0819,0.083,191.7656
17:39:51:628,-2.2229,1.6502,9.128,80.7215,0.0237,0.059,0.0889,191.6719
17:39:51:654,-2.1403,1.7053,8.9377,79.3105,0.0338,0.0095,0.0822,191.5781
17:39:51:674,-2.1068,1.7292,8.9963,79.6494,0.0053,0.0201,0.0692,191.4688
17:39:51:688,-2.0996,1.7256,9.0706,80.002,-0.0075,0.0659,0.0569,191.3906
17:39:51:706,-2.0637,1.7448,9.0945,81.2251,0.0123,0.091,0.0465,191.3125
17:39:51:727,-2.1008,1.7603,8.9018,78.9507,0.0442,0.0859,0.0343,191.2344
17:39:51:751,-2.175,1.7891,8.6935,80.167,0.0527,0.087,0.0322,191.2344
17:39:51:769,-2.1391,1.8382,8.49,81.662,0.0258,0.1022,0.0338,191.1406
17:39:51:788,-2.2265,1.8717,8.5319,78.9467,-0.0232,0.0896,0.0167,191.1406
17:39:51:804,-2.3474,1.8597,8.7725,80.8521,-0.0551,0.0827,0.0066,191.0781
17:39:51:824,-2.5952,1.9555,8.964,80.8116,-0.0447,0.1163,0.0252,191.0625
17:39:51:846,-2.825,2.2715,8.8204,79.5116,0.012,0.1847,0.0814,191.0312
17:39:51:869,-2.8083,2.7587,8.539,79.0121,0.0527,0.2295,0.1443,190.9844
17:39:51:887,-2.685,3.1071,8.3906,79.2469,0.0695,0.2082,0.1366,190.9688
17:39:51:905,-2.9902,3.1322,7.8124,80.1854,0.0895,0.1102,0.0516,190.8594
17:39:51:924,-3.4535,2.8712,7.3719,79.6919,0.0125,-0.0483,-0.044,190.6875
17:39:51:945,-3.4727,2.4571,7.664,80.9792,-0.1854,-0.1077,-0.0973,190.5156
17:39:51:969,-3.8821,2.1051,8.6516,80.5365,-0.3864,-0.0731,-0.1817,190.4688
17:39:51:987,-4.5836,1.7256,9.1867,79.3061,-0.4088,-0.0664,-0.1021,190.5156
17:39:52:005,-4.7332,1.3138,9.7972,80.1823,-0.3409,-0.1149,0.0857,190.6094
17:39:52:025,-4.1371,1.5437,9.6535,79.9273,-0.225,0.148,0.3241,190.7656
17:39:52:045,-2.5581,1.6083,8.8287,81.7681,-0.0906,0.2921,0.434,190.8281
17:39:52:068,-2.9436,1.8118,8.4121,80.0579,-0.004,0.0358,0.3211,190.6875
17:39:52:087,-2.8693,2.0979,8.4828,80.7527,0.0613,-0.2768,0.2601,190.2812
17:39:52:105,-2.758,2.0524,8.5893,79.7414,0.0738,-0.5916,0.1933,189.5312
17:39:52:127,-2.4061,2.159,9.4393,83.6684,0.0919,-0.598,0.1086,189.25
17:39:52:153,-2.4264,2.3362,10.0366,81.5963,0.3089,-0.0448,0.0812,189.0312
17:39:52:169,-2.8322,0.8362,8.4552,81.9433,0.5691,0.1591,0.1975,188.9219
17:39:52:189,-1.9476,0.6518,6.1604,81.3649,0.4962,-0.5913,0.5936,188.875
17:39:52:212,-1.2868,1.7532,6.2873,85.1442,0.081,-1.4827,0.634,188.8125
17:39:52:224,-2.2588,3.6853,8.0243,84.7345,-0.2328,-1.5762,0.3531,188.4375
17:39:52:244,-3.3638,4.0169,7.9812,85.4988,-0.4237,-0.8864,0.1893,187.8594
17:39:52:268,-2.3247,2.5014,6.3986,85.2303,-0.6245,-0.9029,0.3054,187.4219
17:39:52:287,-1.44,2.3158,7.9836,86.9321,-0.6573,-1.8129,0.3816,187.25
17:39:52:305,-0.9013,2.4989,8.9676,87.7702,-0.4005,-2.3605,0.2527,187.0312
17:39:52:330,-0.6547,2.4571,8.7162,89.0324,-0.1028,-2.5786,-0.0339,186.875
17:39:52:351,-1.0354,2.2464,9.4285,89.1185,0.0359,-2.5421,-0.2073,186.4531
17:39:52:369,-1.0725,1.0217,9.7373,89.8252,0.1238,-1.9277,0.0167,186.5156
17:39:52:385,0.0827,0.8913,10.0953,91.6556,-0.024,-1.1732,0.543,186.8594
17:39:52:405,1.2966,2.0249,11.1152,91.6799,-0.2157,-0.2414,0.9102,187.2031
17:39:52:424,2.3548,2.4259,11.0158,92.0851,-0.1702,0.345,1.078,187.0156
17:39:52:444,2.2734,2.4128,11.2469,90.4603,-0.0146,0.0697,1.2066,186.25
17:39:52:468,1.761,2.2966,11.1248,94.4445,0.2834,-0.4893,1.4985,185.0938
17:39:52:484,2.192,2.3864,10.4496,92.8266,0.5358,-1.035,1.7672,183.7969
17:39:52:505,3.7746,2.6067,10.7082,93.7315,0.5156,-1.1381,1.7454,182.2656
17:39:52:525,5.5762,2.5217,10.7225,94.9523,0.293,-0.3721,1.4689,180.4844
17:39:52:545,5.5439,2.7168,10.0941,95.2005,0.0277,0.1405,0.996,178.4531
17:39:52:569,4.8783,2.6881,10.3694,96.174,-0.1726,0.0012,0.5936,176.5938
17:39:52:585,5.0291,2.0656,11.3139,96.4818,-0.2386,-0.3072,0.3224,175.2188
17:39:52:604,5.5331,1.2504,12.8989,95.9002,-0.2069,-0.4454,0.1105,174.3438
17:39:52:624,6.0838,0.8146,13.6818,95.783,-0.0208,-0.2116,-0.0608,173.8594
17:39:52:645,5.575,1.0564,12.2177,94.9037,0.2573,0.0396,-0.2315,173.6719
17:39:52:668,4.7334,1.4718,9.8522,94.8084,0.4602,-0.0773,-0.3322,173.75
17:39:52:686,4.4126,1.6694,8.4433,95.1942,0.5393,-0.3255,-0.4107,173.9844
17:39:52:705,4.3228,1.5904,7.5706,95.6465,0.5292,-0.5005,-0.5149,174.2969
17:39:52:726,4.081,1.564,7.063,95.4738,0.47,-0.5716,-0.6102,174.7188
17:39:52:750,4.0978,1.5269,7.1217,95.3771,0.3886,-0.4973,-0.6696,175.2812
17:39:52:769,3.6728,1.5939,7.2438,94.61,0.2783,-0.1461,-0.713,175.6094
17:39:52:789,2.8995,1.916,6.8236,94.3063,0.1446,0.2409,-0.7047,176.2969
17:39:52:804,1.9849,2.2931,6.492,93.2056,0.0197,0.1837,-0.6608,177.0781
17:39:52:831,1.6844,2.2583,6.8811,92.3542,-0.0205,-0.0957,-0.5543,178.6094
17:39:52:851,2.2914,2.3661,6.8176,93.2832,0.0929,-0.3426,-0.431,179.2656
17:39:52:868,2.423,2.6318,6.1963,92.5755,-0.0117,-0.2675,-0.4749,179.8594
17:39:52:888,2.1441,2.7946,6.4381,92.9459,-0.2288,-0.1064,-0.5218,180.6562
17:39:52:906,1.7455,2.5995,6.6105,94.0253,-0.4013,0.0452,-0.5034,181.2031
17:39:52:933,1.275,2.7085,6.7913,92.7194,-0.5236,-0.0137,-0.4419,181.8594
17:39:52:946,0.9039,2.8689,7.6077,93.8781,-0.6168,-0.035,-0.3447,182.4844
17:39:52:968,0.9434,2.6809,8.1739,92.4061,-0.7292,0.295,-0.3188,183.0312
17:39:52:988,1.0835,2.2966,8.6947,92.2815,-0.7334,0.4172,-0.3029,183.5156
17:39:53:006,0.9255,2.5768,9.5242,90.6936,-0.6434,0.3509,-0.2222,183.9688
17:39:53:026,0.8118,2.6654,9.7218,92.5243,-0.5007,0.2228,-0.1311,184.3438
17:39:53:048,0.9111,2.6785,10.0402,92.4304,-0.4184,-0.0377,-0.0416,184.3438
17:39:53:069,0.6478,2.0453,10.6328,90.6821,-0.3894,-0.2576,0.1139,184.6562
17:39:53:086,1.0248,2.1362,11.2217,91.2374,-0.2927,-0.5985,0.4266,184.8594
17:39:53:105,2.6601,3.2867,11.9819,90.9889,-0.1909,-0.6712,0.5563,184.8906
17:39:53:125,3.4789,3.1394,11.6311,91.5338,-0.2655,-0.6667,0.3922,184.8906
17:39:53:145,2.7965,2.9766,11.8801,93.5862,-0.3063,-0.8529,0.3009,183.9219
17:39:53:168,2.6385,1.9842,12.6918,91.6354,-0.3774,-1.096,0.3738,183.5625
17:39:53:187,3.267,0.9451,13.6614,94.9795,-0.3313,-1.1905,0.5677,183.4375
17:39:53:204,4.6868,0.7069,14.6634,93.4153,0.0538,-1.3746,0.6932,183.3125
17:39:53:224,5.9437,0.8589,13.9906,95.314,0.7862,-1.5352,0.6228,183
17:39:53:296,6.3352,0.2807,10.7608,94.1767,1.3904,-1.7389,0.3957,182.5
17:39:53:298,4.0583,0.5872,6.8559,94.1767,1.4362,-1.6545,0.2047,181.75
17:39:53:298,2.6732,0.8111,5.8875,95.5098,1.0493,-1.6036,0.3398,180.9219
17:39:53:303,2.435,0.7284,5.739,94.7418,0.9129,-1.7567,0.5677,180.2344
17:39:53:323,3.2179,0.8781,5.2374,96.4249,1.0892,-2.4422,0.735,179.7656
17:39:53:343,3.8237,0.8122,3.8213,95.1607,1.2413,-3.0816,0.8093,179.2188
17:39:53:366,3.534,0.5106,3.2263,94.9009,1.1907,-3.4172,0.8783,178.4375
17:39:53:387,3.6321,0.2328,2.7331,96.3194,1.2181,-3.6737,1.0258,177.5312
17:39:53:405,4.366,0.0054,2.2974,94.0494,1.404,-4.1541,1.1238,176.4844
17:39:53:424,4.4043,-0.3477,1.6066,93.2731,1.6442,-4.5586,1.1789,175.375
17:39:53:445,4.0798,-0.9667,0.1713,93.3452,1.6943,-4.5858,1.3539,174.1562
17:39:53:470,4.6149,-1.5484,-1.1718,92.7304,1.4671,-4.3775,1.6892,172.6719
17:39:53:487,5.763,-1.8717,-2.1726,94.8505,1.0805,-4.1618,2.005,170.0156
17:39:53:504,7.1037,-2.1135,-1.8877,90.9167,0.686,-4.0942,2.2117,167.9062
17:39:53:524,8.1751,-2.487,-1.4304,90.174,0.3803,-3.7144,2.352,165.375
17:39:53:544,9.043,-3.1214,-1.7465,90.5844,0.0027,-2.9101,2.4676,162.6875
17:39:53:571,9.7457,-3.805,-1.6292,88.1345,-0.4019,-2.1892,2.5457,159.9062
17:39:53:587,10.3658,-4.4562,-0.9971,87.427,-0.5907,-1.9131,2.5526,157.25
17:39:53:605,10.2868,-5.5468,-1.0773,88.2222,-0.5326,-1.989,2.567,154.5938
17:39:53:624,10.6399,-6.7139,-1.6136,86.7084,-0.4354,-2.2297,2.7358,152.125
17:39:53:644,11.7365,-7.7626,-1.6531,85.7314,-0.3308,-2.5128,2.9675,149.75
17:39:53:670,13.0653,-8.6113,-1.1647,84.9702,-0.098,-2.7517,3.1052,146.9062
17:39:53:687,13.6794,-9.3081,-1.5753,82.8022,0.2599,-2.859,3.0668,143.5156
17:39:53:704,13.3035,-9.9832,-2.8358,81.7039,0.4392,-2.6792,2.9664,139.625
17:39:53:724,12.1758,-10.82,-3.596,81.969,0.2732,-2.2484,2.9358,134.7031
17:39:53:746,10.8698,-11.3539,-2.776,81.494,-0.078,-1.573,3.1169,129.1875
17:39:53:769,11.2936,-11.081,-1.1671,83.1313,-0.2961,-0.7549,3.4399,123.6094
17:39:53:787,12.833,-10.5375,-0.4668,84.115,-0.2527,0.0284,3.5768,121.2656
17:39:53:804,14.0888,-10.638,-1.2293,87.1918,-0.1441,0.6686,3.3917,114.2812
17:39:53:824,13.8973,-10.4728,-2.4408,90.6663,-0.2021,1.1373,3.0194,110.2656
17:39:53:846,12.7684,-9.4098,-2.6838,94.2758,-0.4434,1.3656,2.6269,107.0312
17:39:53:868,12.0944,-7.9086,-2.339,86.4632,-0.6754,1.4132,2.2618,104.5781
17:39:53:886,11.9161,-5.9598,-3.1423,73.8403,-0.8464,1.327,1.7976,103.2188
17:39:53:903,10.7656,-4.7615,-4.3705,68.9654,-1.1313,1.1389,1.2082,102.75
17:39:53:924,8.8718,-4.4765,-4.3944,73.3385,-1.5545,1.017,0.7067,102.8438
17:39:53:944,7.6101,-4.3305,-4.0377,79.7712,-1.9635,0.9983,0.4255,103.5938
17:39:53:968,6.1484,-4.2539,-2.2241,81.0661,-2.2613,0.9051,0.2873,105.1094
17:39:53:988,5.2662,-4.2802,-0.1914,84.489,-2.2304,0.8154,0.3078,107.3125
17:39:54:004,4.9908,-4.3257,0.8584,85.8954,-1.8866,0.8383,0.4202,110.25
17:39:54:024,4.4976,-4.5089,0.7196,87.1244,-1.4554,0.924,0.5773,113.3281
17:39:54:044,4.3659,-4.8141,0.0492,86.9017,-1.0916,1.0039,0.8205,116.0625
17:39:54:070,4.8137,-5.1338,-0.62,85.586,-0.8434,1.0537,1.098,118.5156
17:39:54:087,5.8767,-5.3301,-0.9504,87.6968,-0.6541,1.1054,1.3422,121.25
17:39:54:105,7.1301,-5.8113,-1.6806,88.4549,-0.474,1.2092,1.4849,122.375
17:39:54:125,8.0494,-6.9162,-2.5784,89.7963,-0.375,1.3901,1.5536,123.1562
17:39:54:144,8.6264,-8.0415,-3.1554,90.0287,-0.3646,1.5824,1.6479,123.7188
17:39:54:173,9.5733,-8.9405,-3.3147,90.4729,-0.3286,1.5991,1.7611,124.3281
17:39:54:192,10.5071,-9.4098,-3.2967,89.1034,-0.2285,1.4529,1.8311,125.1562
17:39:54:207,11.4444,-9.3069,-2.8406,88.5925,-0.0376,1.1618,1.8255,125.8125
17:39:54:224,12.4703,-8.7646,-2.8274,87.4734,0.24,0.7791,1.6772,126.0156
17:39:54:246,13.6124,-7.8452,-3.0166,88.8869,0.534,0.3166,1.3507,126.0312
17:39:54:270,13.8542,-7.2874,-3.1147,87.4378,0.9326,-0.2923,0.817,125.3594
17:39:54:287,13.5202,-6.7917,-4.1921,88.2281,1.3777,-0.909,0.303,124.1875
17:39:54:304,12.8103,-6.0998,-5.4742,86.5601,1.6051,-1.5352,-0.1737,122.4844
17:39:54:323,13.0545,-6.2064,-6.8557,85.6664,1.44,-1.932,-0.6049,121.5
17:39:54:344,14.5078,-7.4765,-7.0712,83.856,0.918,-2.1847,-1.1215,115.9219
17:39:54:372,14.9435,-8.8687,-5.8908,84.2805,0.2969,-2.1914,-1.737,113.125
17:39:54:390,13.9727,-9.4577,-3.9731,82.6291,-0.1952,-1.9639,-2.2923,110.7344
17:39:54:407,12.5697,-9.423,-2.2744,77.1548,-0.4898,-1.5463,-2.6941,109.4062
17:39:54:424,11.381,-8.8735,-0.9827,70.9845,-0.6064,-0.9708,-2.9849,109.3438
17:39:54:446,9.2393,-7.9075,-0.3219,67.1992,-0.4453,0.2921,-3.4824,110.5156
17:39:54:472,7.9369,-7.9853,-0.7397,73.0862,-0.2666,0.6553,-3.6087,113.0156
17:39:54:488,6.9421,-8.0391,-0.9432,82.7842,-0.09,0.8726,-3.5937,116.8281
17:39:54:505,6.6081,-8.0715,-1.4376,84.3078,0.0732,0.9368,-3.5061,126.6875
17:39:54:524,6.1963,-8.2175,-1.5561,83.4352,0.1902,0.8814,-3.4033,131.9375
17:39:54:544,5.7031,-8.3085,-1.3849,83.2719,0.2999,0.7299,-3.2736,131.9375
17:39:54:570,4.9441,-8.4306,-1.1766,82.4821,0.4328,0.4913,-3.0771,136.875
17:39:54:586,4.3839,-8.3791,-1.1192,82.8978,0.571,0.2042,-2.7815,141.1406
17:39:54:603,4.0415,-8.2175,-1.1252,81.7672,0.6895,-0.0904,-2.4294,145.0938
17:39:54:623,4.2522,-7.9948,-1.3502,80.2032,0.7742,-0.3394,-2.0672,149.625
17:39:54:645,4.3611,-8.2582,-1.8219,77.3433,0.8203,-0.5879,-1.7402,150.7812
17:39:54:669,4.4605,-8.6987,-2.3558,78.1953,0.7907,-0.7924,-1.3966,153.125
17:39:54:687,4.4557,-9.1979,-2.4444,77.9367,0.7225,-0.9466,-1.0251,153.5938
17:39:54:704,4.1337,-9.6349,-2.2756,76.8316,0.7044,-1.0505,-0.5777,154.0469
17:39:54:728,4.3647,-10.4166,-2.2361,77.37,0.7321,-1.0797,-0.0113,154.0938
17:39:54:743,5.0902,-10.7374,-2.102,78.567,0.7577,-0.9825,0.5488,153.7656
17:39:54:763,5.4864,-10.6991,-2.4839,77.3223,0.7571,-0.7791,1,152.8594
17:39:54:787,5.186,-9.9665,-2.9077,77.3925,0.6402,-0.5128,1.3901,151.3125
17:39:54:804,5.2099,-8.7215,-2.5689,75.1219,0.4631,-0.2001,1.793,149
17:39:54:823,6.8535,-8.3157,-2.4109,76.5282,0.3971,0.1344,2.0985,146.2344
17:39:54:843,8.4864,-8.7921,-2.9926,78.4094,0.437,0.3594,2.1579,143.4688
17:39:54:870,8.8611,-9.502,-4.234,77.2888,0.4349,0.4545,2.082,140.5469
17:39:54:888,8.3128,-9.6588,-4.7296,79.7981,0.3012,0.3954,2.0551,136.1562
17:39:54:908,7.5849,-8.8053,-4.1598,83.1117,0.1374,0.2947,2.1478,133.5312
17:39:54:925,7.3683,-7.3568,-3.3003,85.9068,0.0258,0.2659,2.2777,130.9844
17:39:54:944,7.5083,-6.0831,-2.8574,84.9718,-0.0389,0.3538,2.3102,128.625
17:39:54:971,7.4832,-5.1912,-2.7772,72.9114,-0.1324,0.5419,2.2437,126.3281
17:39:54:985,7.0678,-4.4406,-2.6814,60.7802,-0.2677,0.7767,2.1313,124
17:39:55:004,6.5207,-3.9319,-2.5174,63.6796,-0.3979,0.9736,2.0431,121.9219
17:39:55:023,6.3064,-3.7056,-2.4587,70.185,-0.5002,1.0657,1.9864,120.375
17:39:55:044,6.3771,-3.7822,-2.3474,75.8114,-0.5651,1.0148,1.9116,119.4062
17:39:55:068,6.3088,-4.3269,-2.1523,76.8529,-0.5768,0.846,1.8351,118.7812
17:39:55:085,6.3914,-5.0476,-1.768,78.1148,-0.5169,0.6084,1.8045,118.3594
17:39:55:104,6.741,-5.7754,-1.5801,76.5054,-0.3417,0.3091,1.8183,117.9375
17:39:55:125,7.2713,-6.702,-1.9392,75.8081,-0.1097,0.0297,1.8596,117.2969
17:39:55:145,8.2086,-7.765,-2.5749,75.7069,0.0621,-0.1178,1.9339,116.2188
17:39:55:169,9.0586,-8.603,-3.2381,75.8906,0.1499,-0.1311,2.0271,114.6094
17:39:55:188,10.1515,-9.2602,-3.9407,74.5905,0.1265,-0.067,2.1196,113.5625
17:39:55:205,11.2349,-9.6492,-4.2376,75.5569,-0.0013,0.0462,2.1475,109.8281
17:39:55:223,12.2788,-9.3835,-3.742,75.1147,-0.1689,0.2391,2.0969,107.1875
17:39:55:244,13.2903,-8.8532,-3.4631,73.0416,-0.2999,0.5538,1.944,104.7969
17:39:55:271,14.4599,-8.4569,-3.2728,73.6161,-0.4487,0.94,1.6154,102.5938
17:39:55:288,15.748,-8.7969,-3.1112,73.5632,-0.559,1.2785,1.0721,100.9531
17:39:55:307,15.4607,-8.7047,-2.2995,73.8963,-0.5084,1.4258,0.392,100.2031
17:39:55:380,13.8147,-7.4765,-1.9416,74.4493,-0.2109,1.3584,-0.1724,100.5469
17:39:55:381,13.5465,-6.6481,-2.606,74.4493,0.0914,1.1043,-0.6286,102.0781
17:39:55:382,14.9579,-7.2419,-3.5648,76.3669,0.2218,0.7403,-1.2265,104.1875
17:39:55:398,15.1135,-8.7801,-4.3932,76.491,0.1731,0.4369,-2.0225,106.5156
17:39:55:403,13.2568,-9.976,-4.5441,78.616,-0.0602,0.3315,-2.6792,108.8281
17:39:55:423,10.8853,-10.1963,-3.572,81.8098,-0.3081,0.4132,-2.9852,111.3906
17:39:55:444,9.4788,-9.6588,-2.4575,81.1977,-0.4043,0.4987,-3.014,114.4375
17:39:55:469,9.0741,-8.816,-1.6052,78.9632,-0.3284,0.442,-3.0164,120.5312
17:39:55:487,8.879,-8.0511,-0.863,76.5503,-0.1305,0.2351,-3.1216,124.9375
17:39:55:504,8.387,-7.7722,-0.1627,84.8675,0.1502,-0.0606,-3.3051,129.0312
17:39:55:523,7.9656,-7.528,0.291,93.9521,0.5111,-0.4164,-3.4952,133
17:39:55:544,7.476,-7.6417,-0.1555,96.2844,0.8743,-0.6443,-3.6606,136.5625
17:39:55:570,6.5925,-7.6237,-0.7684,93.0725,1.0839,-0.6851,-3.757,139.4062
17:39:55:588,5.7258,-7.7949,-1.8734,94.0298,1.1422,-0.3796,-3.7125,141.9531
17:39:55:603,4.7263,-8.1696,-3.4511,92.9606,0.971,0.1283,-3.5019,144.3125
17:39:55:623,3.5064,-8.2702,-4.4495,93.0553,0.5838,0.5632,-3.1272,146.6562
17:39:55:644,2.5116,-8.099,-4.6063,92.1057,0.135,0.7549,-2.594,148
17:39:55:672,2.3201,-8.087,-4.3657,92.2856,-0.2735,0.6974,-1.9753,151.0156
17:39:55:689,2.7642,-8.4725,-3.596,92.8889,-0.5912,0.4484,-1.395,154.25
17:39:55:704,3.6441,-9.3069,-2.5306,94.3067,-0.7406,0.1317,-0.9061,157.2188
17:39:55:723,4.2594,-10.0826,-1.5705,93.1475,-0.6756,-0.1759,-0.4675,160.0156
17:39:55:744,4.8591,-10.0443,-0.608,92.669,-0.3678,-0.488,-0.0318,162.3906
17:39:55:770,7.1348,-8.9513,-0.9121,91.9513,0.0927,-0.8257,0.278,164.7188
17:39:55:787,9.5242,-8.0104,-1.853,92.6243,0.5675,-1.0933,0.111,165.0781
17:39:55:803,8.2924,-8.9022,-5.2348,91.4471,0.8096,-1.5234,-0.216,164.3281
17:39:55:823,4.8436,-9.7917,-6.0345,91.589,0.4506,-1.9261,-0.1223,163.0156
17:39:55:844,4.2247,-8.7394,-2.1247,91.2413,-0.3952,-1.1173,1.429,161.4531
17:39:55:870,6.82,-9.1117,-0.9324,91.4015,-0.2807,-0.4763,2.0562,160.0781
17:39:55:886,8.2876,-10.1532,-1.7716,93.0685,-0.0546,0.1248,2.4202,158.875
17:39:55:905,8.5007,-10.468,-2.3211,92.0617,0.0346,0.5416,2.7049,155.2188
17:39:55:923,8.3307,-9.897,-1.9488,97.0836,0.0525,0.7693,3.0008,155.2188
17:39:55:943,8.3319,-8.6425,-0.7912,97.8393,0.1832,0.825,3.2437,152.625
17:39:55:964,8.4959,-7.3927,-0.3111,97.9818,0.527,0.6841,3.3425,147.0938
17:39:55:991,8.636,-6.465,-0.7193,96.3096,0.9191,0.4058,3.2735,143.8281
17:39:56:007,8.6647,-5.5791,-1.3299,87.0379,1.212,0.1075,3.0876,143.8281
17:39:56:023,8.5498,-4.6896,-1.7943,80.6617,1.3955,-0.1588,2.8314,137.9688
17:39:56:043,8.4648,-3.8313,-2.2636,84.2784,1.4866,-0.4116,2.5209,135.6406
17:39:56:063,9.5063,-2.7946,-3.0681,87.8783,1.4858,-0.6816,2.095,128.3438
17:39:56:087,9.4572,-2.5648,-3.8174,90.2753,1.3854,-1.0622,1.4277,123.7031
17:39:56:106,8.2326,-3.7763,-4.5932,89.1337,1.1321,-1.3277,0.8708,121.3125
17:39:56:122,6.1424,-5.1685,-4.9858,90.2758,0.6948,-1.3264,0.6865,116.75
17:39:56:148,5.5606,-6.3572,-4.3909,89.8116,0.1542,-0.9812,0.9541,112.6562
17:39:56:162,7.2581,-7.0312,-3.2464,89.3442,-0.2109,-0.5064,1.3249,109.3125
17:39:56:183,9.2908,-7.261,-2.6754,88.4363,-0.3457,0.0343,1.479,106.3438
17:39:56:206,10.8243,-7.3412,-2.6036,88.728,-0.3172,0.5131,1.3805,103.9062
17:39:56:223,11.6934,-8.1169,-3.5637,88.7565,-0.22,0.8577,1.1435,101.875
17:39:56:242,11.7592,-8.9537,-4.398,89.8395,-0.2261,1.0266,0.9177,100.5469
17:39:56:263,11.4217,-8.7035,-4.0317,89.8336,-0.2637,1.0753,0.7829,99.875
17:39:56:289,11.7832,-8.7885,-4.1586,90.9856,-0.1838,1.0186,0.683,99.8594
17:39:56:304,12.1184,-9.1177,-4.6267,89.6487,-0.1542,0.8742,0.5323,100.3125
17:39:56:323,12.0573,-8.6089,-3.8067,91.3973,-0.1436,0.7379,0.3619,101.3906
17:39:56:343,12.2644,-7.923,-3.0465,91.3681,0.0847,0.5815,0.1613,102.0781
17:39:56:363,12.6511,-7.2861,-3.1435,91.483,0.4855,0.3003,-0.1172,102.7188
17:39:56:385,13.3023,-7.1221,-4.179,90.264,0.8594,-0.1221,-0.4485,103.3438
17:39:56:403,14.6897,-7.3927,-5.8908,92.017,0.9726,-0.7565,-0.8749,103.7812
17:39:56:423,16.0161,-8.5383,-6.8725,91.7544,0.6352,-1.4736,-1.5311,103.875
17:39:56:443,15.1925,-9.4769,-5.5532,91.194,0.017,-1.9197,-2.2619,103.5312
17:39:56:463,13.5776,-9.8611,-3.2488,89.9208,-0.5201,-1.8934,-2.7924,102.9688
17:39:56:483,11.8131,-9.4457,-1.507,81.6172,-0.8405,-1.4457,-3.1176,102.7188
17:39:56:504,10.3227,-8.8101,-0.7816,69.9726,-1.0038,-0.6299,-3.2875,103.3281
17:39:56:524,9.5506,-8.3624,-0.7636,76.6037,-1.1071,0.2926,-3.4068,105.0469
17:39:56:544,8.946,-8.1014,-0.9121,89.0783,-1.1212,1.0092,-3.5437,108.1406
17:39:56:565,8.4744,-8.0343,-1.3622,89.4195,-1.0583,1.4132,-3.6928,112.5312
17:39:56:589,7.5754,-8.2343,-1.7165,88.7863,-1.0011,1.6021,-3.8422,118.4844
17:39:56:605,5.9832,-8.5276,-2.1738,85.4988,-1.0096,1.8204,-3.8654,128.75
17:39:56:623,4.7957,-8.8508,-2.023,84.5957,-1.0884,2.022,-3.6688,131.9375
17:39:56:642,3.8033,-8.7334,-1.179,85.7291,-1.0442,2.0641,-3.3295,139.125
17:39:56:662,3.1365,-8.4222,-0.5649,83.6363,-0.8171,1.9041,-2.8944,146.2969
17:39:56:687,2.8696,-8.3396,-0.2046,83.0661,-0.4698,1.512,-2.4177,153.0625
17:39:56:703,3,-8.348,-0.1351,80.1158,-0.0788,1.0377,-1.9402,158.625
17:39:56:721,3.2478,-8.4761,-0.2788,80.1417,0.3057,0.5317,-1.4994,163.25
17:39:56:742,3.6309,-8.7239,-0.7995,79.1839,0.6083,0.1237,-1.0797,166.5312
17:39:56:764,4.4868,-8.6425,-1.8195,78.7909,0.7702,-0.2209,-0.7189,168.4688
17:39:56:791,6.6476,-7.7794,-3.4954,77.815,0.75,-0.6403,-0.5535,169.4062
17:39:56:802,7.8699,-7.3855,-4.3801,77.1116,0.4786,-1.1706,-0.6949,169.5
17:39:56:822,6.9864,-8.3995,-4.3286,75.476,-0.0146,-1.2166,-0.6896,169.1094
17:39:56:843,4.9657,-9.508,-4.0545,77.1116,-0.7009,-0.4347,-0.26,168.7969
17:39:56:862,4.0523,-9.2865,-2.5246,77.9586,-1.3129,0.4726,0.5177,169.0781
17:39:56:889,5.3679,-8.3432,-0.6332,77.2714,-1.5087,0.8526,1.291,170.5781
17:39:56:905,7.4736,-8.0715,0.7232,77.9143,-1.1713,0.5858,1.8165,171.875
17:39:56:929,9.6476,-8.2127,0.3317,79.2125,-0.5305,0.0739,2.1488,172.5938
17:39:56:942,11.2433,-8.2833,-1.1407,80.4911,0.0312,-0.4046,2.2716,172.2031
17:39:56:963,10.9488,-8.0583,-2.5581,79.9906,0.3313,-0.8007,2.3022,170.5312
17:39:56:988,9.7553,-7.2694,-3.171,83.445,0.3459,-0.9967,2.3757,167.7656
17:39:57:005,8.7497,-6.368,-2.916,89.5854,0.191,-0.9426,2.5086,164.375
17:39:57:023,8.0686,-5.7275,-2.3558,95.5741,-0.0005,-0.6981,2.6498,160.9531
17:39:57:042,7.743,-5.1637,-1.7333,93.1083,-0.1361,-0.4377,2.7704,157.3281
17:39:57:063,7.7394,-4.4418,-1.0462,68.4495,-0.1526,-0.2598,2.825,155.5781
17:39:57:089,7.7956,-3.9067,-0.7589,52.0483,-0.0501,-0.1721,2.7947,152.2188
17:39:57:105,7.8256,-3.5871,-0.8965,67.4043,0.0818,-0.1498,2.6791,149.125
17:39:57:123,7.6065,-3.6242,-1.0713,75.6586,0.1792,-0.1809,2.5206,145.875
17:39:57:142,7.4329,-3.9834,-1.1156,80.5428,0.2495,-0.1953,2.3947,142.5625
17:39:57:162,7.5251,-4.7196,-1.5896,79.6288,0.3009,-0.1772,2.3393,139.4375
17:39:57:187,8.0398,-5.3241,-1.9153,79.4648,0.2887,-0.1556,2.3238,134.6094
17:39:57:204,8.3547,-5.8472,-2.011,79.1755,0.2986,-0.0789,2.3233,131.4375
17:39:57:223,8.6875,-6.6074,-2.582,82.4667,0.3095,0.0204,2.3888,128.4844
17:39:57:244,12.031,-8.907,-2.837,80.1311,0.0053,0.2489,2.5622,125.4531
17:39:57:265,13.3071,-8.9274,-2.0074,78.5878,-0.1614,0.4992,2.486,122.4688
17:39:57:291,14.8418,-8.5311,-1.1814,77.3786,-0.2613,0.8316,2.2817,119.7031
17:39:57:304,15.9862,-7.6692,-0.7684,77.6374,-0.2961,1.1395,1.8764,117.0781
17:39:57:322,17.3234,-7.5268,-0.9157,77.2077,-0.3483,1.2955,1.2585,114.9688
17:39:57:342,18.0129,-7.911,-0.4296,76.5778,-0.3595,1.32,0.4556,113.6094
17:39:57:362,17.2731,-8.0894,-0.3794,76.0761,-0.1779,1.2676,-0.3109,113.1562
17:39:57:387,15.6594,-7.6872,-0.8654,78.6947,0.1276,1.0476,-0.9319,113.625
17:39:57:439,14.3941,-7.3065,-1.9667,76.8121,0.4117,0.581,-1.3889,117.0625
17:39:57:439,14.4084,-7.6118,-2.7448,78.2075,0.5569,-0.1405,-1.7865,119.4375
17:39:57:452,14.9747,-8.5455,-2.6742,76.513,0.599,-0.9367,-2.2382,119.4375
17:39:57:461,14.5557,-9.1908,-1.8542,76.513,0.6123,-1.5788,-2.7208,121.5469
17:39:57:482,13.2305,-9.3476,-1.0629,78.3834,0.6117,-1.8915,-3.1045,123.0938
17:39:57:504,11.7281,-9.0926,-0.5506,78.8808,0.5388,-1.8087,-3.3234,124.0781
17:39:57:523,10.4628,-8.4438,-0.0992,74.393,0.4304,-1.3908,-3.4212,124.8906
17:39:57:541,9.4955,-7.7949,-0.0514,62.7863,0.3505,-0.79,-3.4497,125.7812
17:39:57:562,8.6994,-7.3053,-0.3853,65.506,0.3007,-0.21,-3.4616,127.0469
17:39:57:587,7.8483,-7.1042,-0.6296,87.3223,0.3036,0.1304,-3.4664,129.0625
17:39:57:609,7.0534,-7.103,-0.8965,88.7659,0.367,0.2172,-3.4188,131.8438
17:39:57:622,6.3603,-7.1593,-0.942,84.9767,0.432,0.0849,-3.3173,135.1094
17:39:57:642,5.6935,-7.358,-0.8474,82.3457,0.4996,-0.1543,-3.1714,138.8594
17:39:57:662,5.2733,-7.7722,-0.7529,79.5779,0.5798,-0.4821,-2.9913,145.8594
17:39:57:686,4.5287,-7.8596,-0.8367,78.6774,0.6378,-0.839,-2.7738,148.6406
17:39:57:705,4.1708,-8.0762,-0.8846,77.5133,0.6575,-1.1636,-2.4859,149.9062
17:39:57:722,4.6508,-7.844,-0.9348,77.7031,0.6578,-1.4987,-2.1759,152.0469
17:39:57:742,2.9294,-8.3875,-0.1064,75.9308,0.6165,-1.5479,-1.8696,153.6406
17:39:57:762,2.9941,-8.5084,-0.2225,74.0517,0.5529,-1.0262,-1.2571,154.8125
17:39:57:785,3.006,-9.3823,-0.9552,74.6402,0.4796,-0.5314,-0.603,155.5781
17:39:57:802,3.7231,-9.2889,-1.5202,73.0604,0.3734,-0.0901,0.0694,156.0781
17:39:57:821,5.314,-9.0148,-1.92,73.9345,0.2671,0.1384,0.5784,156.0625
17:39:57:842,7.2474,-9.5487,-2.4025,74.1564,0.139,0.1719,0.8207,155.625
17:39:57:862,7.1779,-10.2885,-2.5773,72.3798,-0.0554,0.0843,0.8956,154.7344
17:39:57:887,5.9006,-10.0359,-1.4879,72.211,-0.2671,0.0047,1.099,153.7188
17:39:57:904,5.8587,-9.5678,-0.0154,73.7993,-0.2921,-0.0153,1.5038,152.6875
17:39:57:924,7.4413,-9.7953,1.0081,72.6619,-0.0594,0.0681,1.9062,151.875
17:39:57:944,9.4093,-10.7446,0.2659,74.3812,0.3958,0.152,2.1579,150.8438
17:39:57:967,10.0582,-11.081,-1.4364,73.6135,0.7678,0.1581,2.2679,149.2656
17:39:57:988,9.6643,-10.304,-2.5425,74.4447,0.8943,0.1091,2.371,148.125
17:39:58:005,9.122,-8.5754,-2.8131,78.2048,0.8184,0.1325,2.4706,143.4375
17:39:58:021,8.6899,-6.8923,-2.5449,83.1752,0.6533,0.2649,2.4911,139.8594
17:39:58:042,8.2529,-5.8125,-2.3175,99.5154,0.4831,0.4521,2.4165,135.9531
17:39:58:063,7.7502,-4.8357,-2.2552,100.2259,0.3262,0.6473,2.2966,132.3125
17:39:58:088,7.3982,-3.7008,-2.7305,67.827,0.1768,0.8028,2.1504,129.2344
17:39:58:105,7.1971,-2.9179,-3.8186,54.2723,-0.0573,0.8439,1.9659,126.5469
17:39:58:128,6.8056,-2.8138,-4.337,70.9482,-0.4096,0.7546,1.7696,124.375
17:39:58:141,6.3998,-3.6973,-3.9144,76.0622,-0.8019,0.6199,1.6511,122.7188
17:39:58:161,6.0527,-4.7615,-2.4276,76.9915,-1.0581,0.4875,1.6711,121.6719
17:39:58:189,6.231,-5.7898,-0.7002,73.7969,-1.0176,0.3943,1.8421,121
17:39:58:210,7.1109,-6.5715,0.3317,74.5402,-0.6908,0.549,2.115,120.625
17:39:58:224,7.9908,-7.0647,-0.0861,75.2901,-0.3752,1.0761,2.38,120.125
17:39:58:241,9.5278,-7.2119,-1.0186,74.0574,-0.286,1.6228,2.5933,119.125
17:39:58:262,11.9795,-7.5746,-1.9955,75.4714,-0.3111,1.8945,2.5963,117.875
17:39:58:288,13.8266,-8.1122,-2.7245,74.5702,-0.3531,1.7973,2.3182,116.5469
17:39:58:309,14.0577,-8.6245,-2.509,74.426,-0.3438,1.4063,1.9366,116.0938
17:39:58:321,13.9212,-8.9046,-2.2337,72.5945,-0.343,1.1477,1.6237,115.8438
17:39:58:342,14.5054,-9.4362,-1.8781,72.9737,-0.4368,1.0915,1.3004,115.5781
17:39:58:362,15.068,-9.5427,-0.796,71.5604,-0.4719,1.0553,0.8844,115.3438
17:39:58:390,15.153,-8.8675,-0.0849,70.234,-0.1982,0.7597,0.3728,115.4531
17:39:58:407,14.4587,-7.5627,-0.9755,71.8506,0.318,0.1464,-0.0927,115.6719
17:39:58:422,15.0022,-7.1748,-3.1195,71.4168,0.5475,-0.5011,-0.5327,116.3125
17:39:58:444,16.2448,-7.7123,-3.8234,70.574,0.2764,-0.9815,-1.1175,116.75
17:39:58:461,16.6422,-9.1608,-2.5796,70.0911,-0.1814,-1.206,-1.8409,116.6094
17:39:58:482,15.0932,-10.3364,-0.4704,72.203,-0.5305,-1.1157,-2.4763,116.3594
17:39:58:504,13.0808,-10.5399,1.463,71.5666,-0.624,-0.8491,-2.8797,116.6094
17:39:58:521,11.1044,-9.83,2.6601,70.6357,-0.4594,-0.4853,-3.1008,118.8906
17:39:58:542,9.6356,-8.8532,3.0216,67.4041,-0.0961,-0.2073,-3.211,121.4375
17:39:58:562,8.8754,-8.0116,2.3045,70.763,0.3499,-0.1218,-3.2832,124.7812
17:39:58:587,8.2422,-7.3532,1.1458,79.3149,0.702,-0.219,-3.3959,128.2812
17:39:58:604,7.5466,-6.9905,0.7064,81.9073,0.927,-0.4784,-3.5338,131.5781
17:39:58:621,6.7709,-7.1844,0.4442,80.5184,1.1281,-0.831,-3.6387,134.4062
17:39:58:642,4.5,-7.905,0.285,79.7894,1.3649,-1.4891,-3.5274,137.0312
17:39:58:665,3.5639,-7.9841,0.2383,78.83,1.3683,-1.5578,-3.2712,139.2188
17:39:58:687,3.0958,-7.9697,0.1629,80.4098,1.3249,-1.5088,-2.9325,140.8594
17:39:58:705,2.866,-8.0679,-0.1208,80.469,1.2554,-1.3732,-2.5493,143.0469
17:39:58:721,3.0216,-8.2558,-0.4632,82.3274,1.1627,-1.2137,-2.1306,143.6562
17:39:58:742,3.5076,-8.4988,-0.7625,83.162,1.0711,-1.0608,-1.7133,144.0625
17:39:58:761,4.014,-8.7502,-1.2724,81.861,0.9731,-0.9399,-1.3298,144.0625
17:39:58:787,4.5802,-9.1405,-1.8135,83.3108,0.824,-0.8094,-0.9609,144.1875
17:39:58:807,4.9932,-9.5535,-2.2181,84.1465,0.5862,-0.5663,-0.6057,144.0781
17:39:58:823,4.9896,-9.6002,-2.272,82.6885,0.2922,-0.2462,-0.2416,143.7031
17:39:58:841,5.3476,-10.1388,-2.2876,86.1701,0.0157,0.0726,0.1741,143.2188
17:39:58:861,5.7175,-10.7769,-2.3091,87.3549,-0.2653,0.3711,0.5866,142.75
17:39:58:881,5.2805,-10.7494,-2.0733,88.2302,-0.5654,0.6737,1.0101,142.4844
17:39:58:903,4.9286,-10.2729,-1.1898,87.4336,-0.8109,0.911,1.5062,142.2812
17:39:58:920,6.1736,-10.1987,0.0552,87.5591,-0.8101,0.9536,2,142.1875
17:39:58:941,8.2194,-10.7446,0.534,89.7467,-0.4746,0.7863,2.331,142.2031
17:39:58:961,9.9241,-11.0331,0.0085,89.2731,0.0882,0.4367,2.4495,142.125
17:39:58:981,10.2545,-10.6883,-1.3682,90.529,0.6386,0.0673,2.4021,141.5156
17:39:59:004,9.3363,-9.5008,-2.7472,91.8003,0.931,-0.0912,2.3414,139.9688
17:39:59:021,7.9824,-8.0463,-3.5696,100.219,0.8852,0.0585,2.356,137.4219
17:39:59:041,7.051,-6.7211,-4.1095,111.0907,0.5473,0.6138,2.4876,133.8594
17:39:59:061,7.0391,-5.7359,-4.6183,111.1368,-0.0205,1.3744,2.6471,127.9844
17:39:59:091,7.0582,-4.6501,-4.2867,90.5295,-0.7004,1.9834,2.6876,124.7344
17:39:59:109,7.1037,-4.1988,-3.3709,85.5016,-1.2871,2.3493,2.6114,122.3125
17:39:59:127,6.7565,-3.981,-1.8698,87.682,-1.6562,2.396,2.4745,121.1875
17:39:59:144,6.7314,-4.2228,-0.4763,87.4093,-1.7092,2.1674,2.3534,121.2188
17:39:59:162,7.0846,-4.698,-0.1244,88.6938,-1.5303,1.789,2.2538,122.0781
17:39:59:188,7.6173,-5.3026,-0.1974,87.9072,-1.2767,1.2324,2.1198,123.1875
17:39:59:205,7.9333,-6.3668,-0.3985,85.5792,-1.0115,0.6034,1.9813,124
17:39:59:223,7.9537,-7.4813,-0.4608,85.3698,-0.7966,0.0593,1.9542,124.2812
17:39:59:240,8.3702,-8.2498,-0.3231,84.2041,-0.6698,-0.2286,2.053,123.8594
17:39:59:262,9.1879,-8.5479,0.0504,83.5407,-0.595,-0.2906,2.1792,122.6562
17:39:59:288,10.4783,-8.6939,0.6908,82.26,-0.469,-0.239,2.2146,120.8594
17:39:59:306,11.5785,-8.7215,0.7651,82.4118,-0.2533,-0.1559,2.102,119.7344
17:39:59:326,12.5397,-8.8232,-0.0765,79.9849,-0.1031,-0.0233,1.8985,117.2812
17:39:59:342,12.8785,-8.7789,-0.7361,79.549,-0.0935,0.1221,1.6157,113.6094
17:39:59:363,12.4117,-9.5977,-1.762,80.8893,-0.1361,0.1136,1.3954,111.2656
17:39:59:387,11.7712,-10.1915,-2.7556,79.6009,-0.2205,-0.0789,1.3928,109.375
17:39:59:405,13.3191,-10.0921,-2.8957,80.6534,-0.3958,-0.2558,1.4119,107.9844
17:39:59:422,14.9854,-8.1313,-0.9803,81.7535,-0.4882,-0.2052,1.0711,106.5312
17:39:59:496,16.0305,-6.35,0.5233,82.4291,-0.2573,0.1003,0.36,104.75
17:39:59:497,16.9535,-6.848,0.151,83.7862,0.1776,0.2907,-0.6107,103.0625
17:39:59:497,16.7464,-8.9202,-1.3383,87.3837,0.5814,0.1219,-1.6749,102.2969
17:39:59:500,15.3302,-10.7745,-2.5102,90.2501,0.8171,-0.3431,-2.5793,102.7656
17:39:59:526,13.8386,-11.5179,-2.8705,93.0838,0.8693,-0.8781,-3.2393,104.3125
17:39:59:541,12.924,-11.4892,-2.1032,98.3544,0.8101,-1.2089,-3.773,106.2812
17:39:59:563,11.8011,-11.4449,-1.2569,98.3544,0.7774,-1.2827,-4.234,108.3906
17:39:59:593,10.4053,-11.6304,-0.9935,96.668,0.7798,-1.1346,-4.5786,110.5312
17:39:59:606,8.4828,-11.8639,-1.3071,88.4549,0.7563,-0.8238,-4.732,113.0156
17:39:59:623,6.5279,-11.7585,-1.8614,103.9843,0.697,-0.5114,-4.6313,115.8594
17:39:59:642,5.1692,-11.0415,-2.2732,111.6993,0.58,-0.3242,-4.349,121.4219
17:39:59:664,4.4533,-10.1257,-2.1463,108.491,0.4413,-0.2928,-4.0108,125.3125
17:39:59:687,3.9841,-9.399,-1.8614,106.2382,0.3518,-0.3844,-3.7019,129.4062
17:39:59:704,3.2478,-8.8017,-1.7417,105.6467,0.297,-0.5692,-3.4217,133.25
17:39:59:720,2.5128,-8.5024,-1.671,104.5486,0.2266,-0.757,-3.1122,136.7656
17:39:59:741,1.6366,-8.3659,-1.3586,104.7589,0.138,-0.8699,-2.7314,139.75
17:39:59:762,1.1745,-8.1433,-0.924,104.3119,0.0842,-0.896,-2.2512,142.5312
17:39:59:787,1.3864,-8.0331,-0.9097,103.556,0.0671,-0.8443,-1.7527,145
17:39:59:807,1.6665,-8.4138,-1.1132,102.1758,0.0346,-0.7732,-1.3021,146.0469
17:39:59:823,1.8999,-9.3811,-1.2688,102.7544,0.0139,-0.712,-0.8406,147.6875
17:39:59:840,2.2471,-10.0802,-1.3071,102.858,0.0405,-0.7064,-0.3218,148.9688
17:39:59:861,3.0922,-10.4118,-1.1778,101.6667,0.114,-0.7213,0.2106,149.8594
17:39:59:881,4.2654,-11.0355,-1.3658,102.7375,0.2037,-0.6814,0.6593,150.2031
17:39:59:905,4.6066,-11.8675,-1.8458,102.6887,0.2104,-0.5319,1.0431,149.8438
17:39:59:922,4.2438,-12.4289,-1.9919,102.1043,0.0951,-0.3016,1.4783,148.0156
17:39:59:942,4.2151,-12.3523,-1.2652,103.266,-0.0458,-0.0283,2.0274,146.3125
17:39:59:961,5.7546,-12.0063,-0.1364,103.4081,-0.0136,0.2385,2.5686,144.3281
17:39:59:981,7.9848,-12.0243,0.2707,105.572,0.2738,0.4604,2.898,142.0469
17:40:00:009,9.7098,-12.7401,-0.7936,104.9004,0.698,0.6034,2.9912,139.4219
17:40:00:023,10.4879,-13.1328,-2.691,107.7889,0.9686,0.6425,2.9526,136.0469
17:40:00:042,9.3399,-10.1927,-3.6834,111.6938,0.7808,0.4532,2.8389,132.1406
17:40:00:065,8.7689,-8.1947,-2.9507,119.7692,0.5689,0.4196,2.7635,128.0469
17:40:00:085,8.5103,-6.6888,-2.2169,124.1011,0.3899,0.5131,2.6234,124.2812
17:40:00:106,8.0518,-5.5875,-1.6926,103.304,0.2461,0.7624,2.4253,120.5781
17:40:00:121,7.4293,-4.7411,-1.4663,90.4939,0.1393,1.0532,2.2306,117.2188
17:40:00:141,6.966,-4.1701,-1.7836,101.9781,0.0293,1.2889,2.07,114.4844
17:40:00:161,6.7422,-3.8517,-2.2253,107.0623,-0.1454,1.4135,1.9062,112.3281
17:40:00:183,6.6452,-3.9869,-2.588,108.6229,-0.3904,1.4471,1.7371,110.8281
17:40:00:205,6.3112,-4.6465,-2.5246,106.9838,-0.6429,1.3706,1.5851,109.6406
17:40:00:222,6.231,-5.7395,-2.424,104.5114,-0.848,1.2963,1.5142,109.4844
17:40:00:246,5.9485,-7.0431,-2.5054,105.9209,-1.053,1.3176,1.54,109.4531
17:40:00:259,5.7701,-8.02,-2.3725,106.3887,-1.3223,1.4247,1.695,109.8281
17:40:00:280,6.1855,-8.8903,-1.7932,104.4145,-1.5782,1.5613,1.9419,110.0312
17:40:00:309,7.4808,-9.8168,-1.0713,103.8004,-1.714,1.6119,2.1779,111.1406
17:40:00:323,9.2058,-10.4082,-0.3399,102.6728,-1.653,1.4819,2.2977,111.1406
17:40:00:340,10.64,-10.4082,0.1857,102.2751,-1.3529,1.1672,2.2751,111.7656
17:40:00:360,11.7341,-9.8204,0.3413,101.2409,-0.8823,0.7187,2.1273,112.4844
17:40:00:381,13.1682,-9.3488,0.0863,99.3353,-0.3523,0.2654,1.8671,112.4531
17:40:00:405,15.0944,-9.994,-0.6308,97.8308,0.1276,-0.0859,1.4631,111.8125
17:40:00:423,15.8066,-10.0048,-1.118,98.9607,0.4626,-0.2323,0.9557,110.4531
17:40:00:441,15.5816,-8.5036,-1.4975,99.1224,0.7643,-0.1618,0.4806,108.6719
17:40:00:461,15.481,-5.9777,-2.7891,98.8361,0.9172,0.1094,-0.0427,107
17:40:00:482,16.41,-5.1218,-4.3358,101.5176,0.7587,0.4103,-0.786,105.6719
17:40:00:505,16.8146,-7.0803,-5.1247,100.3065,0.4583,0.4356,-1.7623,105.1094
17:40:00:523,15.5361,-10.0407,-5.5688,104.3288,0.1686,0.0486,-2.668,105.2344
17:40:00:540,13.4555,-12.1584,-4.7727,104.4603,-0.1878,-0.5253,-3.247,106.4531
17:40:00:560,12.0106,-12.4971,-2.7149,105.5407,-0.4693,-0.9538,-3.4992,108.9219
17:40:00:580,11.1715,-11.4461,-0.3985,108.791,-0.5409,-1.1146,-3.6473,111.9844
17:40:00:604,10.8303,-10.3914,1.0691,108.1718,-0.3755,-1.0212,-3.8473,115.0938
17:40:00:622,10.1037,-9.9677,1.3253,103.9745,-0.0951,-0.7186,-4.1051,117.9375
17:40:00:640,8.7497,-9.909,0.6478,95.4026,0.1843,-0.32,-4.2928,121
17:40:00:660,7.5406,-9.8695,-0.4799,101.7939,0.384,-0.0113,-4.3266,126.0312
17:40:00:680,6.6057,-9.915,-1.3837,107.3459,0.465,0.1418,-4.2473,130.1875
17:40:00:705,6.0383,-10.0467,-1.8698,105.8822,0.4671,0.1387,-4.0856,134.6719
17:40:00:721,5.818,-10.3723,-1.8925,102.7469,0.4346,-0.002,-3.9005,139.2344
17:40:00:739,5.3559,-10.6728,-1.6842,100.641,0.4234,-0.1937,-3.6915,143.3906
17:40:00:760,4.7921,-10.7601,-1.622,100.6445,0.4455,-0.374,-3.415,147.5
17:40:00:780,4.4928,-10.6787,-1.7572,99.0142,0.4458,-0.5029,-3.0734,151.25
17:40:00:803,4.5084,-10.577,-2.0302,98.4791,0.3774,-0.5668,-2.7256,154.4219
17:40:00:822,4.184,-10.5004,-2.0972,98.9008,0.221,-0.5245,-2.378,157.2656
17:40:00:840,3.6321,-10.3615,-1.7285,97.688,0.0493,-0.365,-1.9924,159.7188
17:40:00:863,3.0204,-10.4094,-1.4699,97.2007,-0.0421,-0.1588,-1.5673,161.9688
17:40:00:879,2.0615,-10.5806,-1.4113,97.7953,-0.0559,0.0428,-1.0656,164
17:40:00:902,1.8257,-11.2952,-1.5513,98.8726,-0.0109,0.1682,-0.4651,165.9688
17:40:00:921,1.1649,-11.8315,-2.1199,96.6353,0.0272,0.2324,0.1768,168.0938
17:40:00:941,0.5077,-11.6556,-2.5354,98.7096,-0.0317,0.2252,0.932,168.6875
17:40:00:960,1.2607,-11.0774,-2.1906,97.8284,-0.0831,0.0835,1.7968,168.5
17:40:00:981,4.0152,-10.6692,-1.3813,97.8211,0.1241,-0.0771,2.5691,167.5312
17:40:01:003,7.6568,-10.7733,-2.1942,98.9639,0.6336,-0.1436,2.9712,166.7969
17:40:01:019,10.1886,-11.6316,-5.8394,100.2297,0.9563,-0.1508,2.9781,164.2812
17:40:01:039,9.875,-11.8351,-8.4945,100.6219,0.5723,-0.1985,2.845,160.4844
17:40:01:060,8.4529,-11.1959,-7.7882,104.8638,-0.2834,-0.0507,2.9262,155.7344
17:40:01:080,7.8663,-9.8587,-5.3438,112.0545,-1.1241,0.3999,3.201,151.3594
17:40:01:104,8.1895,-8.5479,-3.1171,122.6918,-1.7449,1.0239,3.3917,147.75
17:40:01:122,8.1859,-7.6632,-1.5633,115.9566,-2.1755,1.7251,3.3896,145.3125
17:40:01:139,7.9046,-6.9139,-0.4823,88.3437,-2.4317,2.3136,3.3049,144.0156
17:40:01:160,7.5179,-6.1956,0.1821,83.0375,-2.5175,2.6396,3.1864,143.7656
17:40:01:180,7.3695,-5.6318,0.3736,90.5985,-2.4733,2.6276,3.0306,144.5781
17:40:01:205,7.6508,-5.4749,0.4909,94.494,-2.3351,2.2298,2.7968,147
17:40:01:223,7.9369,-5.7599,0.7675,96.4915,-2.052,1.4684,2.4953,148.9062
17:40:01:240,7.8962,-6.4386,0.9734,96.3936,-1.6264,0.5035,2.213,150.5
17:40:01:260,7.6879,-7.5004,0.9698,98.0459,-1.1635,-0.451,2.0338,151.2812
17:40:01:280,7.4976,-8.3264,1.0236,93.8215,-0.7593,-1.1586,2.0202,150.9062
17:40:01:306,8.0782,-8.9274,0.9626,93.228,-0.4205,-1.488,2.1302,149.125
17:40:01:327,9.2968,-9.5966,0.5412,93.1657,-0.1731,-1.5101,2.2437,145.9531
17:40:01:341,10.4005,-10.0215,0.2204,92.8691,0.0165,-1.3463,2.3041,142.0156
17:40:01:360,11.3139,-10.1592,-0.1292,90.7428,0.1696,-1.0321,2.3209,137.3906
17:40:01:381,11.8502,-9.6887,-0.3554,88.7711,0.2863,-0.6166,2.306,132.6562
17:40:01:405,12.9563,-9.2123,-0.8869,89.4963,0.3835,-0.1887,2.2437,128.4844
17:40:01:422,15.1183,-8.9501,-1.6435,88.3486,0.4117,0.2186,2.0098,124.6719
17:40:01:441,16.5847,-7.2694,-2.0876,86.8533,0.4485,1.0817,0.8703,123.0469
17:40:01:461,16.2376,-5.9394,-3.0609,88.515,0.4456,1.6604,0.2383,120.4062
17:40:01:481,17.2096,-5.8891,-4.6542,90.0444,0.2575,2.2439,-0.4603,118.7188
17:40:01:505,17.5735,-7.3867,-5.6502,91.5244,-0.0993,2.7326,-1.334,119.3281
17:40:01:557,16.4411,-9.1441,-4.9032,94.6215,-0.3188,2.8122,-2.1769,125.3594
17:40:01:558,15.2141,-10.6596,-3.6247,96.1316,-0.2178,2.405,-2.8118,125.3594
17:40:01:570,13.8362,-11.0726,-1.8674,98.9873,0.1633,1.6537,-3.2989,131.1406
17:40:01:580,12.4643,-10.7757,-0.7816,101.1793,0.7534,0.7578,-3.6963,137.9844
17:40:01:600,11.5294,-10.5554,-0.8019,98.0005,1.3129,-0.0909,-4.0838,144.4688
17:40:01:623,10.2557,-10.5423,-1.0198,95.4149,1.6605,-0.7125,-4.4491,150.4375
17:40:01:639,8.6875,-10.4788,-1.3634,96.507,1.8083,-1.0031,-4.6721,155.1094
17:40:01:659,7.464,-10.4549,-1.8937,96.507,1.7649,-1.0307,-4.6947,158.4375
17:40:01:680,7.5347,-10.589,-1.8913,104.8618,1.6078,-0.8837,-4.5986,161.2656
17:40:01:708,7.5107,-10.7494,-2.0733,104.1462,1.5409,-0.7016,-4.5147,163.8125
17:40:01:725,6.7781,-11.0486,-3.0357,102.4346,1.4458,-0.6092,-4.4044,166.4062
17:40:01:741,5.5559,-11.1097,-3.681,99.3834,1.1601,-0.5687,-4.1935,170.4375
17:40:01:764,4.8113,-11.0379,-3.4691,97.3668,0.7848,-0.5109,-3.8433,173.2969
17:40:01:778,4.4043,-10.9002,-2.752,96.6879,0.4906,-0.3873,-3.415,176.2344
17:40:01:800,3.947,-10.6069,-2.2385,95.4531,0.3478,-0.2164,-2.9591,179.1875
17:40:01:820,3.1605,-10.1544,-2.2492,96.8306,0.3084,-0.1032,-2.4592,182.3438
17:40:01:841,2.5907,-9.6229,-2.6694,92.7732,0.2413,-0.0872,-1.9082,185.3594
17:40:01:860,2.3273,-9.1069,-2.6527,92.9937,0.1084,-0.112,-1.3569,187.8594
17:40:01:880,2.1417,-8.761,-2.6227,93.1256,-0.0093,-0.1098,-0.8214,189.9531
17:40:01:905,1.9286,-8.676,-2.776,93.9779,-0.1483,-0.0829,-0.285,191.5625
17:40:01:924,2.3345,-9.429,-3.0585,92.4903,-0.3337,-0.0291,0.2447,192.6719
17:40:01:946,2.2124,-10.3459,-3.3266,93.03,-0.5867,0.0494,0.7746,193.0938
17:40:01:959,1.4833,-10.6859,-3.1746,92.8805,-0.93,0.1946,1.458,193.625
17:40:01:979,2.2028,-10.7709,-2.2038,94.1294,-1.2994,0.3397,2.295,193.8125
17:40:02:007,4.664,-10.887,-0.7924,94.7753,-1.4599,0.4356,3.0226,193.75
17:40:02:025,8.2206,-12.0171,-0.5853,96.1138,-1.3643,0.4178,3.4471,193.4219
17:40:02:043,10.8518,-12.6815,-0.5865,94.7937,-1.1657,0.3136,3.5286,192.6406
17:40:02:059,11.0661,-12.1392,-0.8019,96.8746,-0.9547,0.2628,3.4237,190.4531
17:40:02:079,9.6428,-11.2234,-0.8438,99.9074,-0.889,0.3219,3.3353,188.25
17:40:02:100,8.1787,-10.0227,0.0444,105.8786,-0.8826,0.4843,3.4115,185.7656
17:40:02:123,8.1847,-8.767,0.4873,119.5399,-0.7784,0.6638,3.5616,183.3594
17:40:02:140,8.8647,-7.6884,0.121,128.0948,-0.6759,0.8545,3.5662,180.875
17:40:02:160,9.122,-6.6984,-0.2764,94.6127,-0.6685,1.0295,3.3912,178.2812
17:40:02:180,8.9413,-5.9981,-0.4895,64.1216,-0.7364,1.1429,3.1321,175.5781
17:40:02:208,8.6923,-5.7335,-0.6643,83.6637,-0.8522,1.1981,2.8666,173.2031
17:40:02:223,8.5366,-5.9801,-0.7505,89.7236,-1.0032,1.2122,2.6122,171.1406
17:40:02:240,8.4409,-6.6505,-0.6631,93.0982,-1.1558,1.1783,2.3917,169.5625
17:40:02:259,8.2805,-7.4478,-0.4608,94.0634,-1.2829,1.1064,2.2402,168.5312
17:40:02:279,8.2338,-8.3336,-0.2393,94.5019,-1.3793,0.9935,2.1773,167.8438
17:40:02:299,8.5977,-9.3583,0.0707,92.3957,-1.4466,0.8769,2.1755,167.4375
17:40:02:323,9.0957,-10.4704,0.3724,91.5416,-1.4786,0.7762,2.192,167.0312
17:40:02:339,9.559,-11.4341,0.7435,91.3186,-1.4671,0.756,2.2351,166.6719
17:40:02:359,9.8487,-11.6628,1.2834,90.0215,-1.3819,0.8745,2.3156,166.1719
17:40:02:380,10.045,-10.6847,1.7443,89.6921,-1.1566,1.0961,2.4367,165.625
17:40:02:404,10.9356,-9.156,1.0141,88.1942,-0.8583,1.2151,2.5028,165.3125
17:40:02:423,12.031,-7.4657,0.0504,86.825,-0.6868,1.2034,2.3664,164.7344
17:40:02:446,13.6028,-6.8313,-0.602,84.6092,-0.6525,1.1584,1.9859,164.0781
17:40:02:459,14.6107,-7.1449,-0.4823,85.6683,-0.6583,1.1815,1.4032,163.4219
17:40:02:480,13.9547,-7.5651,0.0815,83.3815,-0.5585,1.3565,0.7965,162.875
17:40:02:507,12.0896,-7.334,0.4083,85.0341,-0.3031,1.6417,0.4207,162.9062
17:40:02:523,11.1763,-6.3608,-0.1184,84.0191,0.0445,1.8481,0.2897,163.7344
17:40:02:540,12.4284,-5.9849,-1.2389,84.3005,0.4115,1.7011,0.1097,165.375
17:40:02:563,14.2851,-6.3931,-2.205,84.3488,0.783,1.1144,-0.3276,167.625
17:40:02:579,15.8976,-7.5806,-2.9256,85.797,1.15,0.1666,-1.0009,169.9219
17:40:02:600,16.4998,-8.7394,-3.1758,86.3941,1.4525,-0.7559,-1.786,172.4688
17:40:02:623,15.9132,-9.4888,-3.3673,87.8621,1.632,-1.2861,-2.5482,173.3438
17:40:02:639,14.8166,-9.9317,-3.6702,88.1733,1.6014,-1.2779,-3.1857,173.7344
17:40:02:659,13.7368,-10.316,-4.1897,91.7887,1.3827,-0.8544,-3.6893,174.1875
17:40:02:680,12.693,-10.8715,-4.7105,94.0762,1.0445,-0.3495,-4.1016,175.4062
17:40:02:706,11.4264,-11.4724,-4.6339,90.8804,0.7012,0.014,-4.4047,177.7969
17:40:02:725,10.2784,-11.7861,-4.3274,85.2909,0.4354,0.1765,-4.5695,181.2031
17:40:02:741,9.6954,-11.8423,-3.754,90.6733,0.2567,0.1821,-4.6595,185.7344
17:40:02:759,8.9532,-11.8794,-3.256,96.3494,0.1617,0.1253,-4.7173,190.7656
17:40:02:780,7.9082,-11.8483,-2.7257,95.3992,0.1276,0.0726,-4.6998,196.0312
17:40:02:806,6.6021,-11.4688,-2.5964,92.6666,0.1305,0.0444,-4.569,201.1094
17:40:02:823,3.9865,-10.1879,-2.7927,90.2029,0.0842,0.0236,-4.3203,206.4219
17:40:02:840,2.9582,-9.4158,-2.5006,88.0463,-0.2392,0.0859,-3.5202,211.5312
17:40:02:860,2.3165,-8.8148,-2.3402,89.0479,-0.4139,0.1323,-3.0387,211.5312
17:40:02:880,1.8101,-8.7023,-2.1654,86.4002,-0.5915,0.1546,-2.5636,216.1562
17:40:02:906,1.2032,-9.1919,-1.6651,84.3876,-0.7143,0.1581,-2.0291,228.9375
17:40:02:924,0.3102,-9.3308,-1.1383,83.6348,-0.71,0.1339,-1.3306,232.625
17:40:02:939,0.2108,-9.15,-0.8726,84.1873,-0.5808,0.0284,-0.4858,232.625
17:40:02:965,1.7479,-8.7634,-0.8989,82.2315,-0.3646,-0.1785,0.3382,235.8438
17:40:02:978,4.0691,-8.761,-1.6255,82.2899,-0.1206,-0.4931,0.8876,238.25
17:40:03:001,5.1165,-9.016,-3.0465,82.7671,-0.0333,-0.7764,1.156,239.4375
17:40:03:025,4.5275,-9.9294,-4.0186,80.71,-0.2826,-0.8984,1.4082,239.5
17:40:03:043,3.7542,-10.8559,-3.4775,84.5254,-0.726,-0.8118,1.9131,238.625
17:40:03:059,4.8951,-11.6316,-1.9703,81.8428,-1.0631,-0.6041,2.6098,237.3438
17:40:03:078,7.8268,-12.3846,-0.8654,80.7354,-1.0514,-0.4251,3.1936,236.0312
17:40:03:099,10.7597,-13.2345,-1.094,84.8055,-0.7806,-0.3042,3.4831,234.6719
17:40:03:124,12.0394,-13.4632,-2.3546,87.0159,-0.5806,-0.0963,3.5539,233.0469
17:40:03:139,11.6395,-12.4696,-3.2859,89.6886,-0.6818,0.201,3.5638,227.5938
17:40:03:159,10.7836,-10.6476,-2.7628,98.3836,-0.9603,0.5056,3.5875,225.9062
17:40:03:178,10.2329,-8.5539,-1.9655,97.9994,-1.1819,0.732,3.5536,222.7656
17:40:03:201,9.8965,-7.0467,-1.4484,62.51,-1.3665,0.9395,3.3715,219.9062
17:40:03:222,9.1807,-5.9933,-0.8929,61.6552,-1.5414,1.1826,3.0836,217.5156
17:40:03:239,8.3786,-5.6162,-0.5841,75.3686,-1.6722,1.4023,2.825,215.6094
17:40:03:259,7.8914,-5.6761,-0.4572,78.2769,-1.7641,1.5195,2.6391,214.4375
17:40:03:280,7.7478,-6.0508,-0.4584,77.3504,-1.7982,1.4668,2.5022,213.9062
17:40:03:305,7.6771,-6.6828,-0.4596,77.9489,-1.8003,1.2383,2.3925,213.9062
17:40:03:324,7.4784,-7.3316,-0.2501,77.6501,-1.7675,0.9091,2.3392,214
17:40:03:338,7.4676,-8.0942,0.1689,76.0037,-1.702,0.5648,2.3792,214.3125
17:40:03:362,7.9249,-8.6461,0.7926,74.3756,-1.5763,0.2886,2.4876,214.5156
17:40:03:379,8.7952,-8.8795,1.2954,72.5502,-1.3372,0.092,2.5829,214.4062
17:40:03:400,10.0689,-9.0375,1.1924,72.7546,-1.0091,-0.0502,2.6005,213.8438
17:40:03:422,11.0015,-9.1848,0.7088,70.7413,-0.6836,-0.1687,2.5251,212.6875
17:40:03:439,11.7724,-9.2099,0.2252,69.9332,-0.4053,-0.2249,2.4279,209.8438
17:40:03:459,12.6786,-9.3152,-0.4272,67.6098,-0.2133,-0.2118,2.3259,207.4844
17:40:03:480,13.6782,-9.2398,-0.9013,69.0204,-0.1404,-0.1335,2.1795,204.75
17:40:03:504,14.898,-8.6173,-0.9181,66.2839,-0.1806,0.0585,1.9393,201.8594
17:40:03:521,16.6123,-7.9529,-0.4847,64.5569,-0.2408,0.4079,1.4902,199.25
17:40:03:539,17.57,-7.0934,0.4969,64.2581,-0.196,0.924,0.7542,196.8594
17:40:03:606,16.5009,-5.621,1.1996,63.3547,0.0914,1.5056,-0.1007,195.2656
17:40:03:607,15.4762,-5.688,0.0887,65.1193,0.5385,1.8074,-0.9039,195.0312
17:40:03:607,15.3074,-6.9498,-1.1551,63.642,0.9832,1.5805,-1.6478,196.5938
17:40:03:627,15.0752,-8.6329,-2.4456,63.5315,1.4288,0.8529,-2.3546,199.6562
17:40:03:641,14.1056,-10.0682,-3.5325,67.1174,1.7199,-0.2273,-2.9679,203.4062
17:40:03:659,12.9049,-10.6728,-3.5229,68.9651,1.7862,-1.247,-3.4081,206.75
17:40:03:679,12.4559,-10.9756,-2.9926,69.5046,1.681,-1.8832,-3.7088,210.3594
17:40:03:700,12.2393,-10.9098,-2.0888,73.7214,1.4919,-2.0851,-3.9919,211.625
17:40:03:722,11.6323,-10.966,-1.519,74.7984,1.3073,-1.9075,-4.2784,212.4375
17:40:03:739,10.4436,-11.1277,-1.2425,62.1199,1.1335,-1.4779,-4.4949,213.5156
17:40:03:759,9.1484,-11.0726,-1.3442,62.1199,0.9851,-0.9501,-4.5623,215.2656
17:40:03:779,8.0578,-10.9421,-1.5633,60.7993,0.8485,-0.4627,-4.5061,216.4688
17:40:03:799,7.1301,-10.5901,-1.5394,72.3468,0.7641,-0.1546,-4.3605,219.3438
17:40:03:822,6.5303,-10.3076,-1.6638,76.0937,0.7516,-0.0608,-4.1583,222.9688
17:40:03:840,5.9401,-10.0143,-1.6435,77.341,0.7649,-0.1253,-3.9384,226.9531
17:40:03:859,5.2302,-9.6516,-1.598,80.9233,0.7928,-0.2555,-3.6768,230.6875
17:40:03:879,4.3552,-9.1979,-1.6255,78.8349,0.8046,-0.3969,-3.3445,234.3594
17:40:03:900,3.4944,-8.7418,-1.8614,81.4276,0.7625,-0.5391,-2.9333,237.6719
17:40:03:922,3.1018,-8.4569,-2.1164,83.5429,0.6272,-0.652,-2.4635,240.3906
17:40:03:939,3.0216,-8.4713,-2.0709,83.9482,0.4317,-0.7104,-1.9857,242.8281
17:40:03:959,2.8839,-8.7993,-1.8506,85.5601,0.2301,-0.7082,-1.496,244.8125
17:40:03:979,2.6816,-9.2482,-1.6854,85.3644,0.0575,-0.6571,-0.9447,247.1719
17:40:03:998,3.0443,-9.6409,-1.4807,87.51,-0.0589,-0.6001,-0.3436,248.4688
17:40:04:020,3.8488,-10.0371,-1.3323,86.5103,-0.1289,-0.504,0.2335,249.3906
17:40:04:039,4.992,-10.6943,-1.3825,88.3957,-0.1502,-0.3703,0.7289,249.8125
17:40:04:058,5.7258,-11.1348,-1.7489,86.9657,-0.1947,-0.1889,1.1105,249.6875
17:40:04:081,5.5068,-11.1935,-1.7788,86.1451,-0.3276,0.0124,1.4151,249.0312
17:40:04:107,4.8448,-10.8715,-1.0629,87.1495,-0.433,0.2055,1.7861,248.0312
17:40:04:122,5.1225,-10.1592,-0.1699,86.6783,-0.3468,0.332,2.2458,246.9531
17:40:04:140,6.8032,-9.9677,-0.4715,85.1623,-0.013,0.3227,2.6216,245.5781
17:40:04:159,8.5797,-10.2585,-2.1535,83.5173,0.3145,0.1685,2.7827,243.5781
17:40:04:180,9.4297,-10.4405,-3.4858,87.2388,0.4048,-0.0262,2.7739,240.875
17:40:04:208,9.1938,-10.0802,-3.8031,86.396,0.3065,-0.145,2.7547,237.3125
17:40:04:225,8.6971,-9.0052,-3.2823,86.9125,0.1467,-0.1434,2.7915,233.5625
17:40:04:240,8.2996,-8.0032,-2.5916,90.7398,0.0032,0.013,2.8274,231.7188
17:40:04:264,7.743,-6.5906,-1.5932,89.1407,-0.2546,0.6545,2.8317,223.375
17:40:04:281,7.6304,-6.0244,-1.3777,74.5541,-0.3217,0.9459,2.8112,223.375
17:40:04:301,7.5861,-5.6425,-1.422,74.2781,-0.3531,1.104,2.7606,220.5312
17:40:04:323,7.6616,-5.5001,-1.6196,85.2422,-0.3774,1.0942,2.6674,218.25
17:40:04:341,7.5526,-5.6509,-1.8219,83.737,-0.4301,0.952,2.551,216.2188
17:40:04:358,7.391,-6.0807,-1.8279,78.231,-0.5196,0.7517,2.4628,214.4531
17:40:04:379,7.4616,-6.6529,-1.4735,76.5257,-0.6147,0.5679,2.4383,212.9219
17:40:04:398,7.7597,-7.0898,-0.8977,71.7736,-0.6405,0.4199,2.454,211.3594
17:40:04:423,8.4445,-7.364,-0.5206,70.9338,-0.5768,0.3104,2.4839,209.7969
17:40:04:444,9.7158,-7.6201,-0.6451,69.4804,-0.4591,0.2369,2.454,208.125
17:40:04:460,10.9991,-8.1792,-1.106,69.0941,-0.3614,0.1895,2.319,206.3906
17:40:04:477,11.8406,-8.5575,-1.4268,66.4654,-0.3137,0.1951,2.1337,204.3438
17:40:04:497,12.4524,-8.7478,-1.701,66.2025,-0.3257,0.2987,1.943,200.0781
17:40:04:522,13.4567,-8.8125,-1.6842,64.5434,-0.4133,0.5325,1.7113,198.0625
17:40:04:539,14.6622,-8.9836,-1.5537,64.6656,-0.489,0.8929,1.3773,197.1875
17:40:04:557,15.384,-8.9417,-1.1443,62.5063,-0.478,1.3355,0.9001,195.4062
17:40:04:578,15.1147,-9.095,-1.3993,61.7266,-0.2922,1.7075,0.3717,195.2188
17:40:04:598,14.0038,-8.7514,-2.041,60.388,-0.0107,1.7845,-0.0589,195.625
17:40:04:621,12.9276,-7.0731,-2.4324,59.7046,0.3239,1.5744,-0.3809,197.1875
17:40:04:641,12.8127,-5.6772,-3.5122,60.3148,0.6389,1.1198,-0.725,199.375
17:40:04:667,14.0792,-6.2614,-4.9331,61.7829,0.7518,0.4305,-1.251,201.8594
17:40:04:677,14.7269,-8.0427,-5.4551,63.9603,0.6392,-0.4073,-1.9343,203
17:40:04:700,13.9751,-9.7617,-4.8577,67.6937,0.4083,-1.1485,-2.5671,204.9688
17:40:04:723,12.4033,-10.735,-3.3338,69.6435,0.1494,-1.6142,-2.9612,206.5
17:40:04:742,11.2409,-10.6057,-1.4891,73.8846,-0.0306,-1.7181,-3.1144,207.8906
17:40:04:760,10.7225,-9.9234,-0.0801,78.6315,-0.0668,-1.5061,-3.1932,209.2188
17:40:04:778,10.4173,-9.2422,0.6154,82.866,0.0064,-1.0656,-3.3197,210.5469
17:40:04:799,10.0055,-8.834,0.5364,82.0095,0.1348,-0.545,-3.5027,213.0938
17:40:04:823,9.3555,-8.7634,-0.1112,77.9296,0.2493,-0.1128,-3.6936,215.3906
17:40:04:839,8.7868,-8.9693,-0.8606,82.7303,0.3196,0.1203,-3.8443,218.2031
17:40:04:858,8.0686,-9.1895,-1.2018,89.5307,0.3595,0.16,-3.9517,221.8281
17:40:04:879,7.2545,-9.4816,-1.3287,94.2308,0.4027,0.0553,-3.9788,225.8594
17:40:04:899,6.1855,-9.7546,-1.3311,95.1237,0.4466,-0.1282,-3.8952,230.0938
17:40:04:923,5.1512,-9.7354,-1.3155,96.5632,0.4685,-0.3232,-3.6795,234.0938
17:40:04:939,4.3612,-9.5331,-1.2724,97.6665,0.4541,-0.4763,-3.358,238.0781
17:40:04:959,3.7818,-9.3488,-1.2066,99.0219,0.4091,-0.5631,-2.9618,241.7188
17:40:04:978,3.2874,-9.1417,-1.264,100.4031,0.3452,-0.5708,-2.5005,244.8125
17:40:05:000,3.2191,-8.9118,-1.3107,99.6668,0.2631,-0.5415,-2.015,247.6406
17:40:05:023,3.3975,-8.9633,-1.2952,101.4906,0.1779,-0.5032,-1.558,250.0781
17:40:05:039,3.4298,-9.1824,-1.1718,100.7623,0.1148,-0.4358,-1.1103,251.9844
17:40:05:058,3.2862,-9.3847,-0.9073,100.5865,0.1017,-0.3343,-0.6387,253.5781
17:40:05:079,3.4669,-9.5164,-0.7864,101.7607,0.1609,-0.2007,-0.1258,255.2969
17:40:05:099,4.2019,-9.8192,-1.2521,101.6987,0.2458,-0.0725,0.3541,255.7969
17:40:05:124,4.4509,-10.225,-2.2265,101.2485,0.2397,0.0297,0.7406,255.6875
17:40:05:142,3.7411,-10.4297,-2.9412,100.9913,0.0495,0.1403,1.1592,254.9219
17:40:05:158,3.5232,-9.9868,-2.5605,99.8617,-0.2546,0.2478,1.7046,254.3438
17:40:05:178,5.0974,-9.8862,-1.4185,100.6103,-0.436,0.3291,2.2538,253.1094
17:40:05:198,7.2797,-10.1544,-0.76,101.2849,-0.3603,0.3932,2.6042,251.6719
17:40:05:223,8.9066,-11.0055,-1.4615,99.1,-0.127,0.3925,2.7496,250.0156
17:40:05:239,9.4776,-11.6268,-2.3342,102.188,0.0802,0.2439,2.82,248.0156
17:40:05:257,8.976,-11.0259,-2.3893,103.5196,0.2413,0.013,2.9454,245.4375
17:40:05:278,8.8443,-9.4433,-2.2205,117.3241,0.4008,-0.1242,3.1225,242.4062
17:40:05:298,9.152,-7.6501,-2.1678,129.2716,0.5193,-0.1391,3.1787,238.9688
17:40:05:322,9.3914,-6.2315,-2.3989,111.6402,0.5438,-0.0006,3.0517,235.2188
17:40:05:340,9.0131,-5.2451,-3.0022,97.0981,0.4258,0.2742,2.8061,228.7031
17:40:05:357,8.0494,-4.9219,-3.3985,100.8186,0.1457,0.6172,2.5805,224.5625
17:40:05:378,7.1528,-4.9291,-3.4464,96.1375,-0.233,0.9424,2.4865,221.2812
17:40:05:399,6.9301,-5.2212,-3.1183,92.3477,-0.6096,1.1943,2.494,218.7188
17:40:05:424,7.2641,-5.8125,-2.9879,88.8842,-0.9223,1.2897,2.5137,217
17:40:05:441,7.9094,-6.4446,-2.448,86.4406,-1.179,1.2327,2.5169,215.9688
17:40:05:459,8.1488,-6.9522,-1.5286,83.943,-1.2698,1.0327,2.4873,215.2188
17:40:05:478,8.4241,-7.3807,-0.8403,80.3995,-1.1907,0.7674,2.5094,214.6406
17:40:05:500,9.4692,-7.6441,-0.4045,79.034,-1.0149,0.5235,2.5395,214.0156
17:40:05:525,11.1391,-7.826,-0.1842,78.2547,-0.7611,0.3203,2.4689,212.9375
17:40:05:541,12.7636,-7.9721,-0.3866,75.2709,-0.4442,0.2106,2.2375,211.4062
17:40:05:558,13.8135,-8.1289,-1.2736,74.8994,-0.1643,0.1387,1.8596,209.4844
17:40:05:580,14.3198,-8.4354,-1.9033,74.6415,-0.016,0.0295,1.3701,207.5938
17:40:05:600,14.1068,-9.1656,-2.1128,71.6078,0.0629,-0.0704,0.8929,205.75
17:40:05:623,13.8613,-9.2913,-2.1199,73.1579,0.0618,-0.0006,0.5672,204.9219
17:40:05:683,12.9168,-7.8919,-1.379,72.4314,0.008,0.1847,0.2692,203.5938
17:40:05:683,12.3231,-6.2387,-1.6531,73.4669,0.2471,0.6502,-0.3154,202.4375
17:40:05:683,13.0066,-5.8855,-2.8658,74.1557,0.3649,0.5762,-0.7189,202.375
17:40:05:698,13.768,-7.2658,-3.7851,74.0855,0.338,0.1613,-1.296,202.375
17:40:05:724,13.7764,-9.332,-3.7708,75.68,0.257,-0.5229,-1.8752,202.9531
17:40:05:741,12.9372,-10.6237,-2.5234,75.7686,0.2365,-1.2611,-2.2994,204.0625
17:40:05:758,12.031,-10.6416,-1.1132,80.6085,0.3116,-1.798,-2.5117,205.4375
17:40:05:778,11.9268,-9.7977,-0.0011,81.8419,0.4107,-1.9602,-2.6566,208.2344
17:40:05:796,12.1112,-8.9226,0.5424,86.6472,0.5065,-1.8012,-2.92,209.1562
17:40:05:825,11.8766,-8.6257,0.4766,89.5133,0.5731,-1.4465,-3.3202,209.5938
17:40:05:843,10.7848,-8.7634,-0.0693,74.5616,0.5888,-1.0193,-3.7157,209.9531
17:40:05:862,9.7816,-9.095,-0.7708,74.1064,0.5342,-0.635,-3.9874,210.7344
17:40:05:881,8.788,-9.3739,-1.112,74.1064,0.4495,-0.3788,-4.1447,214.9219
17:40:05:896,8.0279,-9.7354,-1.4185,87.4476,0.3662,-0.2776,-4.1945,218.125
17:40:05:917,7.1803,-10.1436,-1.434,88.569,0.2677,-0.2622,-4.1554,220.0469
17:40:05:940,6.425,-10.3483,-1.1216,90.3476,0.1835,-0.2973,-4.0172,224.0781
17:40:05:957,5.5547,-10.2957,-0.6655,90.9336,0.1651,-0.3501,-3.7919,228.0625
17:40:05:978,4.773,-10.1305,-0.4512,90.4426,0.208,-0.3945,-3.4782,232.2656
17:40:05:998,4.0056,-9.8599,-0.517,92.9706,0.2615,-0.419,-3.0888,236.3438
17:40:06:024,3.6261,-9.4984,-0.7708,92.2629,0.3057,-0.4206,-2.6321,240.0625
17:40:06:040,3.589,-9.2913,-1.0641,91.5696,0.3007,-0.4033,-2.1855,243.1562
17:40:06:060,3.3688,-9.2219,-1.258,94.2407,0.2631,-0.3642,-1.7522,244.5938
17:40:06:078,3.1976,-9.4625,-1.4687,93.2799,0.2067,-0.3117,-1.3034,247.0156
17:40:06:099,3.1054,-9.8348,-1.4364,91.2858,0.1486,-0.2385,-0.8105,248.9844
17:40:06:125,3.4705,-10.2322,-1.4101,93.2793,0.1193,-0.149,-0.288,250.4219
17:40:06:141,3.7279,-10.741,-1.6938,92.5606,0.0882,-0.0433,0.213,251.5469
17:40:06:162,3.4885,-11.051,-1.8877,92.1407,-0.0277,0.1142,0.7328,252.2188
17:40:06:179,3.0144,-10.6608,-1.2233,90.9203,-0.1798,0.3392,1.3331,252.2188
17:40:06:197,4.0308,-9.9042,-0.3626,91.352,-0.187,0.5475,2.0008,251.625
17:40:06:220,6.8775,-9.3919,-0.3901,90.9186,0.0184,0.6391,2.4402,250.6406
17:40:06:240,9.0598,-9.7258,-1.4496,89.6734,0.3252,0.5754,2.4996,249.2188
17:40:06:258,9.2645,-10.4704,-3.0238,91.3052,0.5246,0.3972,2.4082,246.9062
17:40:06:278,8.1655,-10.5471,-4.1419,89.6884,0.5052,0.1525,2.4698,243.9844
17:40:06:297,7.227,-9.8599,-4.0952,92.4425,0.3009,-0.0241,2.7206,240.8594
17:40:06:325,6.9936,-8.7394,-3.1746,96.5892,0.0477,-0.007,3.0391,237.4531
17:40:06:338,7.6592,-7.6644,-2.2289,110.6917,-0.1654,0.1821,3.2676,233.9688
17:40:06:358,8.1284,-6.8013,-1.422,116.548,-0.3183,0.5019,3.3185,230.4219
17:40:06:378,8.4121,-6.1381,-0.796,80.2711,-0.379,0.8425,3.2439,227.0781
17:40:06:399,8.2888,-5.7299,-0.7349,83.8783,-0.3521,1.1166,3.1137,223.8281
17:40:06:425,8.0578,-5.5982,-1.1778,91.245,-0.3289,1.2481,2.992,221.0625
17:40:06:441,7.9118,-5.6545,-1.3646,88.4664,-0.351,1.2175,2.8815,218.8281
17:40:06:459,7.9129,-6.0639,-1.3119,85.556,-0.3555,1.0734,2.7971,216.7969
17:40:06:478,8.4157,-6.6313,-1.3766,82.2929,-0.322,0.8556,2.7667,214.0938
17:40:06:498,9.6583,-7.0491,-1.3981,81.9293,-0.2296,0.5456,2.6841,212.3906
17:40:06:524,10.4616,-7.6525,-1.7141,78.2139,-0.061,0.1181,2.4807,210.4219
17:40:06:540,10.7381,-8.269,-2.1475,78.2632,0.0724,-0.2435,2.2969,208.125
17:40:06:557,11.0314,-8.9669,-2.3438,76.9446,0.1177,-0.418,2.2005,206.8438
17:40:06:577,11.5701,-9.241,-2.2959,75.2046,0.069,-0.3298,2.1883,204.1406
17:40:06:597,12.4093,-8.9453,-2.2253,74.3535,-0.0256,-0.0539,2.1678,201.0938
17:40:06:623,13.7368,-8.3671,-2.345,75.1747,-0.1585,0.2409,2.0013,198.0156
17:40:06:641,15.1853,-8.0954,-2.2564,71.3043,-0.29,0.4268,1.5874,195.375
17:40:06:657,15.8749,-8.2366,-1.9943,71.9466,-0.3766,0.5698,0.9725,193.125
17:40:06:677,15.821,-8.603,-1.762,71.1602,-0.3947,0.7363,0.3464,191.5781
17:40:06:698,14.8214,-8.3492,-0.8941,70.9312,-0.2682,0.8694,-0.2211,190.8906
17:40:06:724,13.5166,-7.1545,-1.124,69.9048,0.0618,0.9483,-0.6166,191.1562
17:40:06:740,13.8458,-6.4865,-2.3115,70.2937,0.3369,0.7437,-1.0323,192.2812
17:40:06:757,14.7747,-7.0898,-3.0908,73.03,0.4669,0.2367,-1.6334,194.9688
17:40:06:777,15.2476,-8.5611,-3.4188,73.0832,0.5404,-0.4845,-2.3551,196.9688
17:40:06:797,14.3869,-9.8216,-3.0669,74.1011,0.5385,-1.2108,-3.0385,198.9219
17:40:06:824,13.0377,-10.6237,-2.3175,76.7791,0.4671,-1.663,-3.5226,200.75
17:40:06:845,11.8191,-10.802,-1.592,76.7029,0.3137,-1.7448,-3.8108,202.3906
17:40:06:859,10.9811,-10.6428,-0.9109,75.9711,0.1417,-1.5242,-3.9913,204.1719
17:40:06:880,10.1994,-10.4788,-0.4201,59.96,0.0115,-1.1112,-4.1386,206.3281
17:40:06:898,9.1639,-10.3052,-0.3973,59.1552,-0.0503,-0.6012,-4.231,208.9375
17:40:06:923,8.1644,-10.1688,-0.7002,70.9646,-0.0874,-0.1242,-4.2348,212.5156
17:40:06:941,7.1851,-9.9174,-0.9911,75.9468,-0.1134,0.1682,-4.1972,216.8125
17:40:06:957,6.1376,-9.9497,-0.9863,75.9038,-0.081,0.2806,-4.0332,221.3906
17:40:06:977,5.344,-9.7043,-1.3179,76.1396,-0.0525,0.2705,-3.7533,226.4688
17:40:06:998,4.9238,-9.3799,-1.1204,77.2288,-0.0069,0.0625,-3.4284,231.3906
17:40:07:024,5.0746,-9.1955,-0.9683,77.6809,0.0591,-0.2409,-3.1096,235.9375
17:40:07:041,5.0842,-9.3655,-0.5374,77.4655,0.1819,-0.7514,-2.5943,237.7812
17:40:07:058,4.7885,-9.7498,-0.5829,76.7292,0.2021,-0.8513,-2.3285,241.4375
17:40:07:078,4.0092,-9.9617,-0.5553,77.5959,0.1846,-0.8284,-1.9743,241.4375
17:40:07:101,3.5076,-9.9389,-0.4416,80.7848,0.1776,-0.7138,-1.4986,248.3438
17:40:07:125,3.255,-9.6528,-0.4141,80.1396,0.1894,-0.5325,-0.9676,250.5312
17:40:07:143,3.5663,-9.2135,-0.4727,81.2731,0.2141,-0.2946,-0.4366,253.6562
17:40:07:159,4.3899,-9.4397,-1.1527,81.3723,0.2346,-0.0811,-0.0137,253.6562
17:40:07:176,4.1158,-9.7139,-1.8302,80.5776,0.1499,0.1149,0.3344,254.4375
17:40:07:196,3.2646,-9.8563,-1.9308,80.0403,-0.0048,0.2857,0.7491,254.5781
17:40:07:221,2.7139,-9.7486,-1.8745,80.0165,-0.1358,0.3594,1.3395,254.2344
17:40:07:241,3.6872,-9.8779,-1.4208,80.9209,-0.1779,0.3214,2.001,253.6562
17:40:07:258,5.9868,-10.4297,-1.2556,80.1718,-0.07,0.2524,2.5592,252.8125
17:40:07:276,8.1847,-11.1636,-1.7429,80.0926,0.1089,0.1967,2.8855,251.5469
17:40:07:297,9.1172,-11.6328,-2.4503,80.2626,0.2216,0.1568,3.0604,249.6875
17:40:07:318,9.2226,-11.1253,-2.4827,81.2964,0.2293,0.1746,3.2141,246.9219
17:40:07:341,8.8946,-9.8013,-2.0314,82.7127,0.2354,0.2686,3.3584,241.6719
17:40:07:358,8.788,-8.4222,-1.8267,85.2669,0.2666,0.4042,3.4514,238
17:40:07:378,8.8036,-7.2897,-1.8326,92.6124,0.2693,0.56,3.4359,234.0312
17:40:07:396,8.6013,-6.4673,-1.8829,70.1235,0.2349,0.7307,3.3307,230
17:40:07:416,8.3858,-5.8951,-2.1331,83.2555,0.1505,0.9038,3.204,227.9844
17:40:07:438,8.1009,-5.5887,-2.254,87.5706,0.0056,1.0542,3.082,224.3438
17:40:07:462,7.8184,-5.9059,-2.3797,81.9535,-0.1571,1.1807,3.0194,220.8281
17:40:07:481,7.8399,-6.4781,-2.3151,78.0648,-0.3619,1.2249,3.0351,217.7969
17:40:07:495,8.7318,-7.006,-1.7094,73.586,-0.4658,1.1262,3.0389,215.3438
17:40:07:516,9.5159,-7.4418,-1.5813,72.8759,-0.359,0.7632,2.9491,213.1562
17:40:07:540,10.0929,-7.9039,-1.9907,71.7046,-0.2048,0.2577,2.8301,211.2344
17:40:07:559,10.6878,-8.3384,-2.0589,71.7848,-0.1302,-0.145,2.726,208.3438
17:40:07:576,11.7748,-9.0231,-2.0134,71.3362,-0.1004,-0.3495,2.6413,205.7969
17:40:07:597,12.869,-9.3368,-1.6076,71.4414,-0.0637,-0.4092,2.5182,202.75
17:40:07:623,13.5812,-8.8711,-1.2604,70.483,0.0815,-0.4166,2.3174,199.4219
17:40:07:640,14.1391,-8.1409,-1.5884,71.4605,0.2701,-0.4875,2.0101,196.2031
17:40:07:656,14.9124,-7.5866,-2.0361,70.8174,0.3888,-0.6781,1.5563,192.9062
17:40:07:677,15.6438,-7.4334,-1.8434,71.9341,0.4482,-0.8523,0.9768,189.7812
17:40:07:758,16.0341,-7.4394,-1.7513,71.967,0.522,-0.7082,0.3608,187
17:40:07:758,15.8006,-7.1293,-1.9356,74.0264,0.5979,-0.3218,-0.2627,184.375
17:40:07:759,15.1087,-6.7127,-3.0741,73.0038,0.6831,0.0907,-0.8483,182.4219
17:40:07:759,15.402,-7.0372,-4.9834,73.4921,0.6149,0.2247,-1.4273,181.5312
17:40:07:780,16.2089,-8.591,-6.5061,74.8535,0.2842,-0.0779,-2.1112,181.8594
17:40:07:796,16.3812,-10.8248,-6.2703,77.8927,-0.2368,-0.6608,-2.8457,183.1875
17:40:07:819,15.5936,-12.7342,-4.4339,78.5835,-0.7326,-1.2137,-3.4726,185.2031
17:40:07:842,14.3845,-13.8989,-2.1882,82.401,-1.1028,-1.471,-3.8888,187.5
17:40:07:859,13.0473,-13.8163,0.2695,84.0869,-1.2629,-1.3458,-4.1376,191.7344
17:40:07:877,11.9005,-13.1891,1.718,68.7807,-1.1484,-0.9128,-4.2955,193.3438
17:40:07:899,10.9249,-12.5881,1.9969,49.6976,-0.8677,-0.3562,-4.427,199
17:40:07:924,9.7685,-12.0973,1.6066,69.0633,-0.5313,0.1203,-4.533,201.3281
17:40:07:941,8.7401,-11.6651,0.7375,79.263,-0.212,0.3871,-4.5525,206.5156
17:40:07:956,8.1823,-11.336,0.0444,83.1436,0.0077,0.4388,-4.5386,211.9844
17:40:07:977,7.5897,-11.1372,-0.3315,83.1436,0.1606,0.3221,-4.5136,217.8594
17:40:07:998,7.0067,-11.0953,-0.5817,84.2097,0.2751,0.0731,-4.4569,223.5625
17:40:08:024,5.9114,-11.0726,-0.608,85.4598,0.3465,-0.203,-4.3181,228.9219
17:40:08:042,4.7275,-10.7398,-0.3997,86.9812,0.3931,-0.431,-4.0321,233.6562
17:40:08:059,3.9733,-10.1616,-0.3195,88.3037,0.4258,-0.5999,-3.631,238.2344
17:40:08:077,3.5747,-9.5571,-0.4344,89.6382,0.4163,-0.6686,-3.1988,242.4062
17:40:08:096,3.334,-9.2973,-0.7337,90.3732,0.3308,-0.614,-2.7793,245.9062
17:40:08:117,2.617,-9.1153,-0.9815,91.6932,0.1577,-0.4315,-2.3634,249.0625
17:40:08:141,1.6713,-9.0303,-0.9803,90.5197,-0.0432,-0.178,-1.8451,253.1406
17:40:08:157,0.9853,-8.9382,-0.8486,92.2377,-0.1992,0.0564,-1.198,255.5
17:40:08:176,0.7411,-8.4821,-0.5482,90.8441,-0.2663,0.2239,-0.4659,257.6875
17:40:08:197,2.0771,-8.5072,-0.5182,90.7147,-0.2176,0.3179,0.2218,259.3594
17:40:08:217,3.2072,-8.7742,-1.112,90.4469,-0.1073,0.3413,0.7259,260.2188
17:40:08:241,3.6417,-9.0244,-2.0062,90.5151,-0.024,0.2372,1.135,260.2344
17:40:08:258,3.3293,-9.1381,-2.2061,89.9181,-0.0128,0.0918,1.5752,259.5312
17:40:08:277,3.9075,-9.3284,-1.9763,90.3155,0.053,0.0002,2.1619,258.2344
17:40:08:296,5.8898,-10.0108,-2.1882,90.5682,0.2125,-0.0499,2.7366,256.5312
17:40:08:316,8.0004,-11.1851,-2.7556,91.0704,0.3609,-0.0164,3.1742,253.9688
17:40:08:340,9.7218,-12.3104,-3.5589,90.1446,0.4424,0.1541,3.5265,250.5156
17:40:08:358,10.968,-12.3235,-4.4531,90.2702,0.359,0.4271,3.8096,246.5625
17:40:08:376,11.3319,-11.0977,-4.5704,90.9608,0.0932,0.7112,3.9726,241.9219
17:40:08:396,11.345,-9.423,-4.015,91.5177,-0.2493,0.9837,4.0189,237.1875
17:40:08:417,11.0984,-7.9386,-3.2201,96.7486,-0.5838,1.2116,3.9113,233.0469
17:40:08:442,10.4029,-6.9869,-2.2552,97.7784,-0.8461,1.3544,3.6967,229.2969
17:40:08:460,8.8898,-6.0232,-0.4955,72.1931,-0.8946,1.266,3.2924,226.3281
17:40:08:479,8.4289,-5.8688,-0.5326,74.835,-0.743,1.0484,3.1555,226.3281
17:40:08:501,8.1512,-5.9885,-0.772,90.5708,-0.6522,0.7669,3.0258,222.3125
17:40:08:524,7.9788,-6.4446,-0.7385,88.8725,-0.5974,0.4393,2.9273,220.5781
17:40:08:542,8.2074,-7.3664,-0.7768,86.626,-0.5534,0.0998,2.894,218.6406
17:40:08:559,8.8287,-8.4007,-0.4093,83.0699,-0.4581,-0.2238,2.8895,216.6094
17:40:08:576,8.9197,-9.3931,-0.0849,81.2433,-0.2607,-0.5751,2.9036,214.2188
17:40:08:595,9.1543,-9.8946,0.0025,81.5053,-0.0511,-0.8111,3.0309,211.4844
17:40:08:616,10.6124,-9.9665,0.2599,79.6042,0.1433,-0.9045,3.184,208.4531
17:40:08:641,13.0341,-9.3116,0.3341,81.278,0.3891,-0.871,3.1475,202.5156
17:40:08:657,14.9244,-8.5862,-0.4584,79.4353,0.6288,-0.7487,2.78,197.8125
17:40:08:675,15.5936,-7.4286,-1.1096,80.6048,0.6685,-0.5101,2.1896,193.0938
17:40:08:695,16.471,-7.1006,-1.5836,80.5071,0.5468,-0.1125,1.4841,190.6719
17:40:08:715,16.7655,-7.4633,-1.7656,80.0996,0.343,0.3876,0.7035,186.2188
17:40:08:741,16.7272,-8.1564,-2.1439,79.9743,0.1284,0.9296,-0.0469,182.7969
17:40:08:759,15.3158,-8.4497,-2.1774,79.3486,-0.0373,1.3933,-0.7564,180.8594
17:40:08:779,13.4759,-8.1576,-2.2756,79.3477,-0.0493,1.6489,-1.2723,180.4688
17:40:08:796,12.9432,-8.3193,-2.9292,78.1207,0.0567,1.523,-1.6419,181.7188
17:40:08:817,13.6399,-9.502,-3.9659,78.4055,0.1454,0.9059,-2.0459,184.4219
17:40:08:840,14.1259,-10.8918,-4.2257,78.9778,0.0977,-0.0803,-2.5391,187.8594
17:40:08:857,13.756,-11.9788,-2.9208,80.6572,-0.0152,-1.0603,-3.0342,191.6562
17:40:08:875,12.7169,-12.2709,-0.9779,83.8923,-0.0432,-1.6838,-3.3812,195.0781
17:40:08:896,11.8239,-11.6017,0.6202,86.9684,0.0426,-1.8284,-3.5911,198.8594
17:40:08:916,11.3678,-10.7386,1.3373,91.4148,0.2253,-1.6153,-3.7895,200.875
17:40:08:941,11.0458,-10.4357,0.9889,82.4081,0.3974,-1.1706,-4.0372,202.7656
17:40:08:959,10.2569,-10.4932,0.145,43.5069,0.4898,-0.6369,-4.292,204.7656
17:40:08:976,9.2788,-10.7123,-0.7505,64.6837,0.4836,-0.2427,-4.4779,207.4219
17:40:09:002,8.302,-10.9744,-1.0641,82.1265,0.4533,-0.006,-4.5541,210.8281
17:40:09:014,7.4652,-11.0343,-1.3035,84.6073,0.4237,0.0433,-4.5298,214.7656
17:40:09:037,6.5518,-11.1229,-1.1862,86.1203,0.3989,-0.0398,-4.4364,219.375
17:40:09:055,5.4086,-11.0223,-1.0054,86.8874,0.3814,-0.1615,-4.2385,224.125
17:40:09:075,4.1696,-10.5566,-0.7206,87.5068,0.3755,-0.2789,-3.9075,228.5469
17:40:09:096,3.1401,-9.891,-0.4704,88.4797,0.391,-0.3639,-3.4587,233
17:40:09:116,2.5188,-9.2063,-0.5769,89.1939,0.4035,-0.4041,-2.9389,237.1094
17:40:09:142,2.2986,-8.8304,-0.9995,89.8321,0.3555,-0.4068,-2.4169,240.7188
17:40:09:157,2.1501,-8.84,-1.4292,90.961,0.2139,-0.3775,-1.9029,243.5625
17:40:09:177,1.9179,-9.0411,-1.6519,91.6006,0.0189,-0.3162,-1.3484,246.0156
17:40:09:196,2.0484,-9.1836,-1.44,89.2473,-0.167,-0.2584,-0.7292,248.8906
17:40:09:217,2.8947,-9.0639,-0.7648,88.9577,-0.2426,-0.2137,-0.1266,249.6094
17:40:09:241,4.1481,-9.4924,-0.7277,89.327,-0.1715,-0.2323,0.3461,250.8906
17:40:09:257,4.415,-10.152,-1.3191,90.2881,-0.1252,-0.218,0.6724,251.7031
17:40:09:276,3.2263,-10.5914,-1.7465,89.392,-0.2107,-0.1314,1.0809,251.8438
17:40:09:303,2.9115,-10.4381,-1.1551,89.2466,-0.327,-0.0611,1.695,251.4219
17:40:09:315,4.4868,-10.3328,-0.1507,87.362,-0.2277,-0.0803,2.3483,250.6562
17:40:09:336,6.9134,-10.9924,-0.1316,86.9294,0.13,-0.1021,2.8138,249.4844
17:40:09:357,8.9844,-12.1069,-1.7548,88.3463,0.5057,-0.1,3.0913,247.7031
17:40:09:376,10.1048,-12.6683,-3.3949,88.4732,0.6557,-0.1674,3.2362,244.8125
17:40:09:397,9.9277,-12.2134,-4.1299,89.993,0.5633,-0.2869,3.3659,238.6562
17:40:09:416,9.4321,-10.8272,-3.5816,97.8913,0.3308,-0.3026,3.5363,234.2031
17:40:09:440,9.4464,-9.3607,-2.3881,117.6797,0.1326,-0.1783,3.6458,229.4219
17:40:09:458,9.717,-8.1912,-1.5214,107.5944,0.0354,0.0894,3.6256,224.75
17:40:09:476,9.6356,-7.1509,-0.9815,95.1274,0.0176,0.4721,3.4852,220.5156
17:40:09:498,9.1687,-6.2878,-1.1718,90.9916,0.0301,0.8742,3.3161,216.375
17:40:09:516,8.8144,-5.7024,-1.7261,85.2112,-0.0293,1.2122,3.1622,214.5156
17:40:09:541,8.6216,-5.5312,-2.2732,80.9854,-0.1656,1.4958,3.0226,211.2188
17:40:09:561,8.4133,-5.7203,-2.9663,76.9005,-0.4112,1.6375,2.9015,208.6406
17:40:09:577,8.4768,-6.1657,-3.1471,73.2625,-0.7683,1.7301,2.7952,206.5625
17:40:09:599,8.2924,-6.9019,-2.6718,72.3861,-1.0828,1.6737,2.6969,205.0625
17:40:09:615,8.6264,-7.9434,-2.2241,69.3852,-1.256,1.4284,2.6897,204.1562
17:40:09:635,9.4476,-8.9334,-1.7381,67.7207,-1.2685,0.9893,2.7198,203.6562
17:40:09:663,10.2389,-9.66,-1.4089,63.9084,-1.1654,0.4473,2.7678,203.2188
17:40:09:677,11.4037,-10.0383,-1.0593,62.4479,-1.0322,-0.1037,2.8112,201.875
17:40:09:695,12.4859,-9.8863,-0.541,62.0131,-0.84,-0.5969,2.7987,199.9531
17:40:09:716,14.0098,-9.4457,-0.3494,61.8179,-0.6235,-0.9953,2.6695,197.1406
17:40:09:735,16.5117,-8.9106,0.37,62.594,-0.4426,-1.1772,2.3121,193.5156
17:40:09:756,19.5236,-7.8931,0.6956,61.325,-0.2392,-0.9687,1.5757,189.5156
17:40:09:822,20.1473,-7.2036,0.7172,61.1521,-0.0698,-0.5032,0.3904,185.2969
17:40:09:822,17.3198,-6.6792,0.9351,59.4286,0.0831,0.1496,-0.7905,182.125
17:40:09:823,15.5361,-7.4681,-0.2501,58.3961,0.2772,0.7616,-1.5546,181.0156
17:40:09:845,15.8162,-8.8951,-1.4783,60.4866,0.4149,0.952,-2.198,182.125
17:40:09:859,15.5552,-12.4708,-3.116,60.4068,0.5675,0.03,-3.6289,184.9531
17:40:09:875,14.4168,-13.6523,-2.6143,63.0409,0.5052,-0.769,-4.2348,188.5312
17:40:09:896,13.2365,-14.3167,-1.6662,68.8969,0.4141,-1.3815,-4.659,192.625
17:40:09:916,12.0609,-14.7273,-0.3949,71.2796,0.3286,-1.6012,-4.9027,196.5312
17:40:09:939,10.9428,-14.3179,0.9255,71.798,0.3526,-1.4563,-4.9898,200.0781
17:40:09:955,10.2258,-13.8187,1.3169,63.5261,0.5454,-1.0406,-4.9911,203.2031
17:40:09:974,9.3411,-13.3411,0.558,70.0805,0.7963,-0.4949,-4.9674,206.625
17:40:09:994,7.9608,-12.7904,-0.7014,81.8509,0.9513,0.0383,-4.8755,210.3281
17:40:10:014,6.474,-12.0865,-1.8338,87.5787,0.947,0.4303,-4.6689,214.1562
17:40:10:034,5.4373,-11.2354,-2.1846,89.9454,0.8469,0.6031,-4.3623,218.4531
17:40:10:055,4.8244,-10.3663,-2.1176,93.0449,0.7449,0.5781,-4.0372,222.9219
17:40:10:075,4.4857,-9.66,-1.7572,95.3347,0.6922,0.3807,-3.7474,227.1406
17:40:10:095,4.1313,-9.1405,-1.3993,95.3347,0.7092,0.0769,-3.5043,231.4062
17:40:10:120,3.4526,-8.8544,-1.3921,97.276,0.7641,-0.2704,-3.259,235.3281
17:40:10:142,2.6277,-8.6904,-1.7584,100.2005,0.7473,-0.5969,-2.9445,238.8281
17:40:10:159,1.7838,-8.7622,-2.0326,102.6708,0.6024,-0.8275,-2.5343,241.75
17:40:10:179,1.0524,-8.7969,-1.9404,103.0088,0.3659,-0.9213,-1.994,244.3906
17:40:10:197,0.9566,-8.913,-1.5417,103.8832,0.1491,-0.9032,-1.3468,246.6719
17:40:10:216,1.3684,-8.9765,-0.8379,104.8116,0.0349,-0.8321,-0.684,250.3281
17:40:10:242,2.0065,-9.5606,-0.3554,104.9283,0.1007,-0.7631,-0.0587,251.7031
17:40:10:261,2.7834,-10.1592,-0.5529,105.7347,0.3065,-0.7226,0.5483,252.1875
17:40:10:277,3.5555,-10.6512,-1.6471,107.1939,0.5002,-0.7327,1.1193,252.6094
17:40:10:300,3.7997,-10.4968,-2.3558,105.3076,0.5249,-0.7338,1.6636,252.1094
17:40:10:314,4.3228,-9.8623,-2.3977,104.5959,0.4304,-0.6571,2.2303,250.5469
17:40:10:337,6.061,-9.5559,-2.0445,105.0499,0.3449,-0.5202,2.706,248.2812
17:40:10:357,7.9956,-10.3124,-1.9679,101.6208,0.3313,-0.3048,2.9683,246.8281
17:40:10:375,8.9604,-11.8315,-2.521,104.7647,0.3329,-0.0238,3.1105,239.8281
17:40:10:395,8.7018,-12.6863,-2.8478,103.9635,0.2599,0.2074,3.3233,237.8281
17:40:10:416,8.3176,-12.4097,-2.2947,101.0808,0.1976,0.3397,3.6724,233.9531
17:40:10:441,8.6611,-11.2773,-1.6878,102.2249,0.2458,0.402,4.0253,229.8438
17:40:10:457,9.3148,-10.2047,-1.5872,102.5452,0.3614,0.4228,4.2211,225.6719
17:40:10:475,9.7505,-9.4433,-1.7381,101.786,0.4431,0.4337,4.2431,221.3906
17:40:10:501,9.9073,-8.7741,-1.7034,94.4648,0.4943,0.4425,4.1715,216.4844
17:40:10:514,10.0103,-8.1528,-1.6495,91.9757,0.5912,0.4372,4.0549,211.4062
17:40:10:535,10.191,-7.6944,-1.9069,92.2044,0.7308,0.4015,3.9113,206.6406
17:40:10:557,10.3658,-7.3412,-2.3941,90.936,0.8754,0.3125,3.7355,201.75
17:40:10:578,10.7956,-7.0815,-3.2548,87.9586,0.9497,0.1935,3.5667,196.9375
17:40:10:597,11.6012,-6.6948,-3.7181,85.4523,0.9398,0.0436,3.3118,192.1875
17:40:10:616,11.7556,-6.4542,-4.0221,83.5602,0.9185,-0.1737,2.959,187.7344
17:40:10:641,11.7556,-6.508,-4.258,82.6198,0.8586,-0.3844,2.6239,183.1875
17:40:10:657,12.0082,-6.514,-4.1885,81.3942,0.7494,-0.4859,2.3249,178.9062
17:40:10:675,12.347,-6.8145,-4.0281,79.6964,0.5787,-0.4078,2.025,173.0781
17:40:10:695,12.426,-7.2431,-3.4894,80.4171,0.3577,-0.2108,1.7427,169.4375
17:40:10:715,12.4703,-7.2359,-2.576,80.5788,0.171,-0.011,1.4463,166.3438
17:40:10:742,12.5158,-6.9294,-2.175,78.0588,0.0509,0.2068,1.1267,164.0625
17:40:10:761,13.5274,-6.8983,-2.6048,78.0876,-0.1353,0.4494,0.7621,163.1094
17:40:10:775,15.3589,-8.0762,-3.0525,79.294,-0.4051,0.5416,0.1909,161.7344
17:40:10:795,16.2591,-10.1975,-3.2297,79.7305,-0.6866,0.4955,-0.5103,161.0781
17:40:10:815,15.4308,-11.5275,-2.5928,80.2917,-0.9348,0.5011,-1.0635,161.25
17:40:10:837,14.2648,-10.7805,-1.6639,81.2124,-1.0983,0.7744,-1.3266,162.2656
17:40:10:858,15.1698,-9.8013,-1.3167,81.8801,-1.1566,1.0708,-1.5804,164.0781
17:40:10:875,16.7751,-9.8851,-0.9552,86.3676,-1.1372,1.2108,-2.1692,166.4844
17:40:10:895,16.8349,-10.7637,-0.4428,89.833,-0.9385,1.1831,-3.0313,169.7812
17:40:10:916,15.3625,-11.889,-0.3853,92.5875,-0.5776,0.8827,-3.8393,173.9531
17:40:10:942,13.6435,-12.8575,-0.535,97.4017,-0.2045,0.3672,-4.4087,179.125
17:40:10:958,12.0154,-13.1364,-0.1759,99.7871,0.0988,-0.165,-4.7514,184.6719
17:40:10:975,10.9895,-13.1711,0.309,94.3439,0.3904,-0.6092,-4.9384,193.3125
17:40:10:995,10.1037,-13.1412,0.7208,94.2898,0.6658,-0.9056,-5.0345,198.2188
17:40:11:015,9.1938,-13.0885,0.9051,104.6384,0.9164,-0.9929,-5.0452,202.8281
17:40:11:040,8.0159,-12.8383,0.9578,107.6914,1.1212,-0.8909,-4.9639,206.9531
17:40:11:058,6.8942,-12.405,0.7411,107.489,1.3047,-0.7213,-4.7993,210.75
17:40:11:075,5.8803,-12.0243,0.376,108.6997,1.4501,-0.5839,-4.5685,214.125
17:40:11:095,4.8436,-11.5263,-0.0166,107.7641,1.5406,-0.5306,-4.2691,217.3906
17:40:11:115,3.7243,-10.8727,-0.3327,107.5751,1.5816,-0.5602,-3.8925,220.2812
17:40:11:141,2.7547,-10.134,-0.6188,105.9898,1.5723,-0.6302,-3.4257,222.6094
17:40:11:156,2.0807,-9.3129,-0.8738,107.6976,1.5223,-0.7186,-2.8997,224.5625
17:40:11:178,1.8353,-8.5898,-1.1419,105.7354,1.4256,-0.7999,-2.3596,225.9844
17:40:11:195,2.0065,-8.1301,-1.4029,106.4012,1.285,-0.8579,-1.8472,226.8594
17:40:11:215,2.3321,-8.1169,-1.6471,106.0239,1.1071,-0.8877,-1.3804,227.2344
17:40:11:236,2.8037,-8.3049,-1.7094,104.5721,0.9103,-0.8768,-0.9356,227.2969
17:40:11:256,3.6058,-8.3851,-1.0043,103.9122,0.7105,-0.7549,-0.0933,227.0312
17:40:11:275,4.2798,-8.8436,-1.2999,104.5051,0.7782,-0.6829,0.2892,226.6094
17:40:11:298,4.2726,-9.1417,-2.0816,103.4829,0.787,-0.6012,0.6301,224.8281
17:40:11:328,3.7578,-9.3942,-2.6802,101.7814,0.6221,-0.4342,1.0242,223.25
17:40:11:340,3.4621,-9.3428,-2.424,103.0467,0.3492,-0.182,1.5443,221.125
17:40:11:359,4.6736,-9.435,-1.8769,104.498,0.1563,0.0779,2.1118,221.125
17:40:11:375,6.9349,-10.1472,-1.786,101.3603,0.0988,0.2785,2.5148,217.6562
17:40:11:394,8.4062,-11.476,-2.3486,102.221,0.0919,0.4521,2.7462,216.4219
17:40:11:414,9.2106,-12.0746,-2.7029,103.8066,0.0384,0.6098,2.967,213.9062
17:40:11:434,9.5721,-11.4676,-2.5246,104.1702,-0.0061,0.7541,3.1987,210.9219
17:40:11:458,9.7385,-10.1796,-2.5653,106.7285,-0.0432,0.9155,3.367,207.8125
17:40:11:478,9.7086,-8.6975,-2.6503,108.2759,-0.147,1.1054,3.4072,204.7969
17:40:11:494,9.4728,-7.5842,-2.618,115.5551,-0.3047,1.2628,3.3321,201.5781
17:40:11:517,9.0298,-6.793,-2.2397,104.3522,-0.4746,1.3893,3.2,198.375
17:40:11:541,8.4995,-6.2926,-1.8506,75.2653,-0.5848,1.5371,3.0929,195.6406
17:40:11:559,8.2649,-6.0136,-1.8829,95.1894,-0.6496,1.6404,3.021,193.2656
17:40:11:576,8.3559,-6.046,-2.1475,103.4632,-0.7111,1.609,2.9401,191.4375
17:40:11:594,8.3068,-6.3033,-2.2325,102.3287,-0.7739,1.4236,2.8391,190.0156
17:40:11:615,8.3894,-6.9833,-2.2492,99.6911,-0.8181,1.095,2.7608,188.9531
17:40:11:634,8.6564,-7.7147,-1.8961,97.9388,-0.7931,0.6636,2.7212,187
17:40:11:661,8.9257,-8.2474,-1.4244,96.2243,-0.6479,0.2321,2.7331,186.4688
17:40:11:677,9.4249,-8.5,-1.1156,93.9789,-0.4266,-0.0891,2.7955,185.1406
17:40:11:694,10.2856,-8.6916,-1.4592,93.1755,-0.2272,-0.2238,2.8596,183.1875
17:40:11:715,11.205,-8.8783,-1.7812,92.2045,-0.1305,-0.2161,2.9015,180.5312
17:40:11:734,12.2225,-8.5587,-1.9069,88.6219,-0.0842,-0.1434,2.9065,177.4844
17:40:11:758,13.2544,-8.0942,-2.2696,88.4867,-0.0746,-0.1069,2.8322,174
17:40:11:777,14.9304,-7.8081,-2.5449,87.5941,-0.1715,-0.097,2.6554,170.4844
17:40:11:797,17.4874,-7.6441,-2.515,87.2976,-0.3468,-0.0251,2.2543,167.2188
17:40:11:814,20.0611,-7.3975,-2.1571,85.6375,-0.5068,0.1581,1.4577,163.9688
17:40:11:883,20.5508,-7.3652,-1.2126,84.4047,-0.5814,0.4212,0.2958,161.0938
17:40:11:884,18.3876,-7.2419,0.0097,84.7494,-0.4309,0.76,-0.8318,159.1406
17:40:11:885,16.2687,-7.6225,-0.4488,84.4948,-0.065,0.9794,-1.6323,158.7344
17:40:11:899,15.9096,-8.6042,-1.6327,84.5581,0.2754,0.8257,-2.2576,160.125
17:40:11:913,16.0137,-9.7977,-2.4887,86.4605,0.5473,0.2753,-2.9069,163.0625
17:40:11:935,15.2153,-10.7565,-2.8993,87.7289,0.7396,-0.4792,-3.5559,164.8438
17:40:11:957,13.8123,-11.4916,-2.9723,88.2116,0.7838,-1.1533,-4.0699,170.1562
17:40:11:975,12.4272,-11.7849,-2.3929,90.0357,0.6634,-1.5325,-4.3778,173.3594
17:40:11:998,11.6635,-11.7741,-1.6244,88.7799,0.4858,-1.5423,-4.5333,175.9844
17:40:12:014,11.2433,-11.6759,-1.0653,83.6293,0.3475,-1.2656,-4.6483,178.5
17:40:12:034,10.5047,-11.792,-0.6475,79.5141,0.2772,-0.8646,-4.7464,181.125
17:40:12:057,9.875,-11.804,-0.9169,88.3119,0.2533,-0.4014,-4.756,184.2969
17:40:12:078,9.3399,-11.8304,-1.0342,91.3158,0.2461,-0.0816,-4.7506,187.9375
17:40:12:095,8.6516,-12.0051,-1.1443,92.74,0.2778,0.0867,-4.7072,192.4375
17:40:12:114,7.725,-12.035,-0.9779,91.3114,0.343,0.1086,-4.5922,197.3594
17:40:12:134,6.5351,-11.7872,-0.7098,92.9918,0.4549,0.0204,-4.3756,202.2031
17:40:12:158,5.4589,-11.245,-0.523,92.6846,0.5912,-0.1306,-4.0449,207.2031
17:40:12:174,4.6975,-10.7338,-0.5841,92.3254,0.7207,-0.2915,-3.6331,211.8438
17:40:12:194,4.0499,-10.1927,-0.6032,93.0811,0.8029,-0.4172,-3.1788,215.8906
17:40:12:215,3.6285,-9.7498,-0.7481,91.4826,0.8434,-0.5032,-2.7056,219.0625
17:40:12:233,3.2083,-9.5559,-0.8079,91.4827,0.8376,-0.5466,-2.2153,221.7031
17:40:12:255,2.8791,-9.4433,-0.4285,92.5564,0.8522,-0.5152,-1.6763,224.4531
17:40:12:280,2.8588,-9.332,-0.0358,91.5177,0.9737,-0.4651,-1.0952,225.6406
17:40:12:296,3.4083,-9.2697,-0.1615,92.4285,1.203,-0.4582,-0.534,226.2031
17:40:12:315,4.099,-9.3248,-1.1814,91.7427,1.4285,-0.5298,-0.0864,225.9219
17:40:12:336,4.178,-9.4553,-2.6263,90.8602,1.4615,-0.6006,0.2686,224.6562
17:40:12:357,3.0168,-9.2686,-3.5613,90.995,1.2133,-0.5732,0.6644,222.4375
17:40:12:373,2.2028,-8.7059,-3.3266,91.8254,0.8139,-0.3975,1.2644,221.1094
17:40:12:393,3.765,-8.1576,-2.1571,92.2039,0.5342,-0.1474,1.9339,218.2812
17:40:12:414,6.2035,-8.2809,-1.9296,92.2421,0.5446,0.112,2.347,215.625
17:40:12:434,7.3312,-9.3188,-3.517,90.9479,0.5702,0.3711,2.5204,211.0312
17:40:12:458,7.1588,-10.3076,-5.1893,92.5877,0.3041,0.5853,2.7065,207.4531
17:40:12:477,6.6847,-10.65,-5.3701,92.8552,-0.208,0.703,3.0533,203.8906
17:40:12:494,7.1408,-10.1592,-3.7947,93.2527,-0.7172,0.8058,3.4764,200.4844
17:40:12:514,8.041,-9.3404,-1.9955,96.1673,-0.9726,0.9251,3.7792,197.6406
17:40:12:534,9.0275,-8.7358,-0.8738,97.6283,-0.9667,1.0497,3.8791,195.3281
17:40:12:559,9.5314,-8.166,-0.3255,80.4906,-0.7915,1.156,3.8178,193.0156
17:40:12:575,9.4452,-7.5567,-0.3913,69.3735,-0.4943,1.201,3.6876,190.7344
17:40:12:600,9.2561,-7.2299,-1.3706,88.2755,-0.1795,1.132,3.5944,188.5
17:40:12:613,9.3148,-7.0563,-2.5892,89.8603,-0.0189,0.9283,3.5156,185.9688
17:40:12:634,9.6463,-6.9581,-3.2416,88.8807,-0.0184,0.6273,3.4149,183.1406
17:40:12:658,10.4005,-7.1198,-2.831,85.0544,-0.0621,0.3104,3.2735,180.0625
17:40:12:678,10.8075,-7.3005,-2.91,83.706,-0.0671,0.042,2.972,177
17:40:12:694,11.3008,-7.4789,-3.0884,81.2449,-0.1252,0.0859,2.8285,177
17:40:12:715,11.8466,-7.5543,-3.0824,80.223,-0.2421,0.2217,2.682,170.2656
17:40:12:737,12.4978,-7.6022,-2.9388,78.9096,-0.3641,0.3584,2.5102,167.125
17:40:12:759,13.1455,-7.5064,-2.5306,78.1805,-0.433,0.3866,2.2764,161.4844
17:40:12:778,13.592,-7.2024,-2.2301,75.3772,-0.4192,0.3504,1.9811,161.4844
17:40:12:794,13.9667,-6.9486,-2.254,76.8345,-0.4067,0.3229,1.6349,159.4219
17:40:12:813,14.6766,-7.1473,-2.2265,73.4482,-0.444,0.3307,1.2338,157.6094
17:40:12:834,15.0956,-7.2299,-1.7896,73.5643,-0.4788,0.3999,0.7611,156.0469
17:40:12:859,15.6199,-7.6908,-1.349,72.232,-0.432,0.5048,0.213,154.8438
17:40:12:876,15.3003,-7.9613,-0.608,73.5975,-0.2599,0.5735,-0.3931,154.1719
17:40:12:893,13.9535,-7.6082,-0.3518,71.8211,0.1089,0.5618,-0.9034,154.0781
17:40:12:914,13.5333,-7.4729,-1.3239,73.058,0.5286,0.3432,-1.2978,154.7656
17:40:12:933,13.8805,-7.9841,-2.4013,74.6734,0.8248,-0.1317,-1.7141,156.125
17:40:12:959,14.4431,-9.1692,-3.2907,73.8409,0.9659,-0.8065,-2.1913,157.9531
17:40:12:977,14.1008,-9.9964,-3.2297,75.1255,0.9489,-1.5104,-2.672,159.6719
17:40:12:993,13.2712,-10.1676,-2.4073,76.4872,0.844,-1.9943,-3.0566,161.4531
17:40:13:014,12.8211,-10.231,-1.6663,79.5164,0.6847,-2.1975,-3.3634,162.0781
17:40:13:034,12.5852,-10.4609,-0.9073,79.619,0.4951,-2.1293,-3.6646,162.3906
17:40:13:060,12.2046,-10.8284,-0.3183,77.8931,0.3223,-1.8238,-3.9703,162.7031
17:40:13:077,11.3905,-11.1815,0.0684,64.8783,0.1995,-1.3719,-4.2438,163.4375
17:40:13:095,10.2042,-11.3168,0.3269,71.0108,0.1486,-0.8675,-4.423,164.9531
17:40:13:114,9.1747,-11.4138,-0.0454,81.4429,0.1678,-0.4465,-4.4899,167.4688
17:40:13:135,7.9537,-11.4365,0.1103,83.5623,0.1926,-0.2225,-4.4878,170.8281
17:40:13:160,6.7769,-11.1719,-0.1232,83.7291,0.2836,-0.0499,-4.3128,175.0625
17:40:13:179,6.1987,-10.7829,-0.4177,84.9743,0.3497,-0.0361,-4.0771,179.7031
17:40:13:198,5.4062,-10.3304,-0.5853,84.8431,0.3907,-0.1098,-3.822,184.1094
17:40:13:213,4.5934,-9.8156,-0.6499,83.8772,0.3984,-0.2302,-3.5173,188.4375
17:40:13:235,3.7722,-9.3152,-0.4775,85.3936,0.3923,-0.358,-3.1506,190.4688
17:40:13:259,2.5499,-9.1046,-0.5529,86.1196,0.424,-0.5189,-2.6907,194.1875
17:40:13:276,1.3636,-9.0938,-0.9396,86.1687,0.4431,-0.728,-2.0739,197.3438
17:40:13:294,1.6162,-8.9513,-0.9875,86.0472,0.4189,-0.9383,-1.3735,200.2188
17:40:13:320,2.605,-8.9346,-0.8606,86.4702,0.4213,-1.0654,-0.7971,203.3125
17:40:13:341,3.364,-9.0758,-0.6763,85.1932,0.4623,-1.0869,-0.3537,204.3438
17:40:13:359,4.0679,-9.642,-0.7277,86.3854,0.5393,-0.9738,0.0319,204.7031
17:40:13:375,4.2774,-9.9892,-0.9001,84.7406,0.6245,-0.7639,0.3949,204.4375
17:40:13:394,4.0475,-10.1903,-1.3981,85.6227,0.6623,-0.4744,0.7826,203.6406
17:40:13:414,3.753,-9.745,-1.7369,85.934,0.588,-0.1056,1.2332,201.3125
17:40:13:434,3.8296,-8.9872,-1.5825,85.6427,0.5143,0.2691,1.7201,200.2344
17:40:13:459,5.1117,-9.0495,-1.8326,86.3847,0.5353,0.5672,2.1574,198
17:40:13:478,6.3795,-9.8803,-2.6132,86.2445,0.5771,0.7893,2.4487,195.3594
17:40:13:495,7.0678,-10.8188,-3.7049,86.8356,0.542,0.8937,2.6812,192.3594
17:40:13:519,7.4269,-11.0415,-4.1754,84.6001,0.3992,0.8335,2.9366,189.0156
17:40:13:532,7.8914,-10.3615,-3.7935,88.193,0.2045,0.7115,3.1893,185.7344
17:40:13:558,8.4277,-9.259,-2.94,88.8538,0.0146,0.6737,3.3523,182.2344
17:40:13:574,8.8431,-8.1828,-2.0218,89.6941,-0.1217,0.7371,3.3763,178.7812
17:40:13:593,8.8898,-7.4514,-1.367,78.0108,-0.192,0.8633,3.2812,175.5312
17:40:13:613,8.6204,-6.9701,-0.8379,59.8258,-0.192,1.0111,3.1491,172.3281
17:40:13:635,8.3068,-6.6505,-0.7541,69.3809,-0.1353,1.1237,3.0394,169.4375
17:40:13:660,8.314,-6.5045,-0.9683,80.3186,-0.0685,1.1413,2.9473,166.9219
17:40:13:676,8.5163,-6.5128,-1.3263,83.0655,-0.0155,1.009,2.8242,164.7969
17:40:13:697,8.63,-6.6325,-1.6734,79.5172,0.0099,0.7546,2.6676,161.7031
17:40:13:713,8.7078,-6.9414,-1.944,79.6658,0.0139,0.4244,2.5068,159.7344
17:40:13:735,8.5929,-7.3879,-1.8566,76.9765,0.0032,0.1424,2.401,157.5469
17:40:13:759,8.6121,-7.6537,-1.3969,76.401,0.0194,0.0393,2.3885,155.1719
17:40:13:777,9.0598,-7.8811,-1.1359,75.5246,0.0783,0.1237,2.4277,152.5938
17:40:13:793,10.2281,-8.3097,-1.2521,75.3398,0.1675,0.2684,2.4346,150.0312
17:40:13:813,11.6802,-9.0291,-1.6603,73.1647,0.2818,0.3533,2.3369,147.3594
17:40:13:833,12.4212,-9.4852,-2.0577,73.6168,0.4077,0.3376,2.1528,144.8125
17:40:13:859,12.6822,-9.3428,-2.0816,71.3829,0.5262,0.2335,1.964,142.5781
17:40:13:879,13.2329,-8.4952,-1.7943,70.6229,0.7041,0.095,1.7637,140.375
17:40:13:895,14.8023,-7.9051,-2.2049,70.6541,0.927,-0.0819,1.4165,138.2188
17:40:13:948,15.9431,-7.6046,-2.8669,72.9967,1.0687,-0.2643,0.8098,136.1562
17:40:13:949,15.894,-8.0403,-3.7145,72.3335,1.077,-0.3381,0.0844,135.1094
17:40:13:961,14.5078,-7.8189,-4.2077,71.7851,0.9401,-0.2451,-0.5247,133.2344
17:40:13:975,13.598,-7.2622,-4.8589,73.2752,0.7012,-0.1018,-0.9663,132
17:40:13:993,13.6722,-7.595,-5.4838,76.0077,0.3334,-0.1093,-1.4142,131.6094
17:40:14:014,13.8685,-8.8927,-5.3126,75.9689,-0.0645,-0.4052,-1.9149,132.5
17:40:14:033,13.8206,-10.5171,-4.5812,77.7218,-0.4293,-0.8795,-2.3964,133.8906
17:40:14:060,12.3997,-11.8435,-1.3227,80.5153,-0.8927,-1.4595,-2.9799,135.5156
17:40:14:078,11.7137,-11.1995,0.4167,83.3772,-0.931,-1.3503,-3.1322,137.3438
17:40:14:094,11.3079,-10.407,1.4199,86.5975,-0.7976,-1.0694,-3.3176,139.2656
17:40:14:113,10.9416,-10.0299,1.682,83.5304,-0.5651,-0.7636,-3.5809,141.375
17:40:14:133,10.1946,-9.9461,1.5791,75.3168,-0.2932,-0.5231,-3.8689,143.7656
17:40:14:160,9.1436,-10.0299,0.8776,85.0481,-0.0384,-0.3871,-4.0774,146.8281
17:40:14:179,8.4481,-10.1963,0.2192,92.1917,0.1087,-0.3655,-4.1969,150.4844
17:40:14:197,7.6855,-10.3974,-0.1483,96.164,0.1691,-0.4326,-4.2523,154.375
17:40:14:214,6.8846,-10.5758,-0.3027,96.1194,0.1768,-0.5413,-4.2177,158.6719
17:40:14:233,6.0838,-10.6548,-0.3183,94.7285,0.1449,-0.6427,-4.0936,163
17:40:14:262,5.0208,-10.6021,-0.0777,95.589,0.0914,-0.6608,-3.8603,167.0469
17:40:14:279,4.0296,-10.1652,0.1809,95.7275,0.0573,-0.5714,-3.5008,173.25
17:40:14:298,3.2586,-9.7318,0.1426,95.1878,0.0376,-0.3913,-3.051,177.2031
17:40:14:315,2.7798,-9.484,-0.1028,93.6644,-0.0005,-0.1817,-2.5503,180.7812
17:40:14:333,2.3764,-9.4206,-0.298,95.0511,-0.0538,-0.0046,-2.0286,184.2344
17:40:14:358,2.0747,-9.411,-0.3159,95.0511,-0.0852,0.087,-1.4635,188.6719
17:40:14:376,2.4015,-9.271,-0.1651,94.2663,-0.0389,0.055,-0.8779,188.6719
17:40:14:393,3.1257,-9.0136,-0.0729,94.0291,0.1236,-0.06,-0.3631,190.9688
17:40:14:412,3.9901,-9.49,-0.4368,92.4654,0.3784,-0.2369,0.0529,193.4375
17:40:14:433,4.2929,-10.1424,-1.446,93.7713,0.629,-0.4475,0.4229,194.0938
17:40:14:459,4.1564,-10.2885,-2.2265,93.7495,0.7446,-0.6212,0.8157,193.8438
17:40:14:480,3.8835,-9.7079,-2.2923,93.379,0.7425,-0.6797,1.2796,192.7031
17:40:14:495,5.0339,-9.3595,-1.5274,93.4043,0.7401,-0.61,1.7552,190.7656
17:40:14:512,6.9469,-9.8216,-1.1874,93.8031,0.873,-0.3061,2.0708,188.3281
17:40:14:533,8.6061,-11.2486,-2.697,95.6354,0.9864,0.0987,2.2098,185.2031
17:40:14:559,8.2948,-12.4265,-4.4723,95.597,0.8131,0.414,2.3169,181.5156
17:40:14:576,7.4892,-12.5091,-4.6422,96.8152,0.4091,0.6068,2.6375,177.4688
17:40:14:594,7.5083,-11.3898,-3.5756,98.2934,0.0338,0.7791,3.111,173.7656
17:40:14:613,8.7426,-9.7893,-2.7472,101.8361,-0.224,0.9416,3.4373,170.2969
17:40:14:633,9.5506,-8.4222,-2.1583,104.263,-0.4064,1.0721,3.453,168.7344
17:40:14:660,9.4859,-7.4071,-1.8171,90.0241,-0.5132,1.1664,3.281,165.8125
17:40:14:677,8.7701,-6.6709,-1.8841,75.5078,-0.6011,1.2923,3.0956,162.9062
17:40:14:694,8.1596,-6.125,-2.187,89.9244,-0.7473,1.4279,2.9803,160.3594
17:40:14:713,7.9273,-5.8221,-2.2469,97.385,-0.9627,1.5112,2.8889,157.5312
17:40:14:733,7.8016,-5.8772,-1.8734,97.8609,-1.1606,1.4913,2.7733,156.1719
17:40:14:761,7.6304,-6.1932,-1.3801,97.8824,-1.2405,1.3528,2.6812,155.2344
17:40:14:777,7.6879,-6.7247,-1.0988,94.7848,-1.1891,1.0969,2.6362,154.6875
17:40:14:795,8.0171,-7.4849,-1.0007,94.8809,-1.0272,0.7288,2.6354,154.3594
17:40:14:812,8.3212,-8.263,-0.9983,91.9718,-0.78,0.2798,2.6889,153.8594
17:40:14:833,8.9628,-8.8903,-0.9552,94.1765,-0.4847,-0.1791,2.7984,152.9219
17:40:14:860,10.2688,-9.508,-1.2221,91.7602,-0.187,-0.5453,2.9217,151.375
17:40:14:876,11.8694,-10.0515,-1.3658,90.4763,0.0533,-0.7791,2.9856,148.7812
17:40:14:892,13.4064,-10.0179,-1.2113,90.0195,0.297,-0.8747,2.959,145.1875
17:40:14:913,14.503,-8.8196,-1.3263,88.9169,0.5627,-0.8148,2.8088,141.125
17:40:14:936,15.9204,-7.534,-2.2863,87.8244,0.7055,-0.6339,2.4991,136.375
17:40:14:960,18.0644,-6.5715,-3.0357,87.5406,0.6423,-0.4297,1.948,131.5781
17:40:14:976,20.1222,-5.9263,-3.2452,87.2762,0.5143,-0.2321,1.0546,125.4844
17:40:14:994,20.0839,-5.3768,-2.7712,87.6346,0.4285,-0.0427,-0.1119,122.4688
17:40:15:012,18.141,-5.5923,-2.6167,88.1535,0.4618,0.1381,-1.236,120.8281
17:40:15:033,16.7787,-7.1186,-3.3554,90.4314,0.5025,0.1613,-2.1386,120.8281
17:40:15:060,16.0293,-9.3727,-3.851,91.0745,0.4764,-0.1482,-2.8877,122.3125
17:40:15:075,15.3266,-11.6628,-3.9671,91.5939,0.3883,-0.7423,-3.4766,123.5
17:40:15:095,14.418,-13.1795,-3.3721,94.0374,0.2282,-1.3927,-3.8798,126.3594
17:40:15:112,13.8314,-13.8487,-2.0996,92.1792,0.0357,-1.8521,-4.1096,129.2812
17:40:15:134,13.4088,-13.8475,-0.8379,94.4592,-0.1111,-2.0164,-4.2912,131.8125
17:40:15:160,12.7696,-13.4476,0.2814,90.223,-0.1907,-1.8973,-4.4878,134.1094
17:40:15:177,12.1794,-13.3303,0.8788,69.122,-0.1926,-1.5605,-4.708,136.3594
17:40:15:194,11.533,-13.4428,0.8872,72.6687,-0.1369,-1.0957,-4.908,138.8125
17:40:15:213,10.7166,-13.7697,0.2228,85.2448,-0.0754,-0.5983,-5.0473,142.0469
17:40:15:236,9.784,-13.8319,-0.6272,88.6389,-0.0767,-0.1812,-5.0995,146.1094
17:40:15:261,8.5941,-13.6068,-1.1766,85.8088,-0.1292,0.0934,-5.0585,153.4219
17:40:15:278,7.4964,-13.1699,-1.5609,87.1684,-0.2245,0.2542,-4.8883,159.2031
17:40:15:297,6.5387,-12.6228,-1.543,83.7959,-0.3427,0.3344,-4.626,165.2344
17:40:15:319,5.5738,-11.8998,-1.1359,85.7253,-0.428,0.3514,-4.3027,171.0156
17:40:15:332,4.7239,-11.075,-0.6966,85.1852,-0.4431,0.3155,-3.945,177.0156
17:40:15:353,3.8464,-10.3017,-0.3099,83.4577,-0.4032,0.2625,-3.5695,182.75
17:40:15:375,3.0096,-9.5415,-0.1627,83.904,-0.3308,0.206,-3.1732,187.7812
17:40:15:393,2.125,-8.9884,-0.3626,83.6586,-0.2818,0.1549,-2.7479,192.5469
17:40:15:419,1.1828,-8.6269,-0.5865,84.1634,-0.3148,0.144,-2.2614,196.7188
17:40:15:432,-0.2764,-8.2163,0.0695,82.8819,-0.3361,0.1986,-0.9734,200.2812
17:40:15:455,-0.2728,-8.5647,0.3317,81.3928,-0.1284,0.2111,-0.2027,200.2812
17:40:15:480,0.0827,-8.8484,0.0707,82.659,0.2578,0.1328,0.6098,207.2188
17:40:15:498,1.1613,-8.9717,-1.3347,82.6276,0.722,-0.2171,1.3952,207.2188
17:40:15:516,1.6832,-9.1069,-3.1028,82.3398,1.0069,-0.7871,2.0927,207.5938
17:40:15:532,1.876,-8.9908,-3.3458,83.9106,1.0429,-1.2569,2.8852,206.4844
17:40:15:554,4.9417,-9.0172,-2.3055,85.1745,1.1492,-1.5642,3.7121,200.2031
17:40:15:576,8.5594,-9.9545,-2.2756,85.2313,1.4328,-1.6558,4.1864,200.2031
17:40:15:595,11.43,-11.737,-3.5589,85.8877,1.5319,-1.3602,4.318,195.3125
17:40:15:611,12.3985,-12.8072,-4.3059,86.2757,1.195,-0.6891,4.2751,189.1094
17:40:15:631,11.9017,-12.5067,-3.0118,89.6597,0.6565,0.0968,4.2818,181.5781
17:40:15:652,11.3391,-11.5059,-0.8151,88.9559,0.3372,0.7789,4.3569,173.9219
17:40:15:677,11.3953,-10.3017,0.5747,91.7572,0.3521,1.2873,4.3734,166.6562
17:40:15:694,11.8083,-9.3296,1.0368,85.5187,0.6067,1.5315,4.2016,160.7969
17:40:15:713,11.8311,-8.5036,0.8967,68.2034,0.9912,1.519,3.8562,156.1562
17:40:15:732,11.2229,-7.7638,0.0612,59.9365,1.3942,1.3115,3.4594,151.8594
17:40:15:752,10.4448,-7.2383,-1.1647,81.7484,1.6584,0.9549,3.0916,147.8125
17:40:15:777,9.4596,-6.842,-2.1547,88.6468,1.7055,0.5807,2.7843,143.875
17:40:15:795,8.8239,-6.836,-2.8226,90.6877,1.5311,0.3251,2.5619,138.0781
17:40:15:813,8.5498,-7.2395,-3.0836,90.9941,1.1934,0.2641,2.424,134.0625
17:40:15:832,8.7773,-7.7853,-2.7939,89.549,0.7976,0.3709,2.372,130.4062
17:40:15:851,9.6236,-8.2726,-2.4013,89.752,0.4328,0.5813,2.3355,126.8906
17:40:15:877,10.2234,-8.5048,-2.333,88.1424,0.0477,0.9421,2.2354,123.875
17:40:15:894,10.2305,-8.5455,-2.084,86.8544,-0.4786,1.5893,2.1156,121.3594
17:40:15:912,10.4412,-9.0064,-1.0342,85.9352,-0.9934,2.4604,2.0114,119.5625
17:40:15:933,11.0422,-9.8863,-0.7169,85.1181,-1.2096,3.2098,1.9488,118.625
17:40:16:008,10.8806,-10.5602,-1.6591,84.714,-1.1516,3.3723,1.9536,118.9844
17:40:16:009,11.3151,-10.1592,-3.1758,84.5624,-1.0291,2.7195,2.1369,120.5469
17:40:16:009,13.8458,-7.9565,-3.906,83.301,-0.9571,1.3536,2.2317,121.7188
17:40:16:011,18.1577,-5.7718,-3.4248,83.6659,-0.8826,-0.2249,1.9156,124.0312
17:40:16:031,22.909,-4.8668,-2.3462,82.5221,-0.7263,-1.2286,0.9568,125.2812
17:40:16:051,24.0475,-5.2678,-2.2061,84.3756,-0.62,-1.1525,-0.5969,124.7344
17:40:16:076,19.9893,-6.9821,-2.3438,84.5021,-0.7768,-0.1908,-2.112,122.4219
17:40:16:092,15.8425,-9.6875,-2.4611,85.9142,-0.9992,0.9464,-2.9865,119.0312
17:40:16:112,14.9028,-11.6915,-2.1714,88.0093,-0.9846,1.467,-3.3509,119.7344
17:40:16:132,15.6247,-13.1915,-2.351,90.2175,-0.6552,1.0505,-3.7083,123.5156
17:40:16:153,15.572,-14.282,-2.2026,93.6887,-0.2567,-0.0497,-4.2292,129.3281
17:40:16:178,14.2863,-14.7992,-1.5166,92.9986,0.0487,-1.1548,-4.7187,135.2969
17:40:16:193,12.8342,-14.8375,-0.8331,86.0255,0.2125,-1.8049,-5.0044,140.7812
17:40:16:213,11.272,-14.4724,-0.3375,74.8911,0.2261,-1.8566,-5.0833,145.1562
17:40:16:231,10.0665,-13.8953,0.1641,86.1702,0.1771,-1.471,-5.0036,148.6719
17:40:16:253,9.0191,-13.1783,0.4646,95.3045,0.1939,-0.9109,-4.8457,151.8125
17:40:16:280,8.0901,-12.4373,0.4035,98.6183,0.2884,-0.46,-4.6563,155.4375
17:40:16:295,7.2677,-11.8411,0.2479,95.1913,0.3925,-0.1535,-4.4555,159.6094
17:40:16:321,6.5159,-11.1073,0.0887,95.2591,0.4922,0.047,-4.2369,163.8906
17:40:16:331,5.8719,-10.4549,-0.1268,93.8646,0.5864,0.1054,-4.0129,168.3906
17:40:16:352,5.3655,-9.9341,-0.3518,90.8447,0.6586,0.0308,-3.7889,172.7344
17:40:16:374,4.761,-9.5271,-0.5254,90.9711,0.6972,-0.116,-3.5477,178.3906
17:40:16:393,4.1026,-9.0878,-0.6379,87.5877,0.6919,-0.2845,-3.2771,181.7656
17:40:16:412,3.4645,-8.7299,-0.7457,85.7858,0.6384,-0.4457,-2.9612,184.7344
17:40:16:438,2.6924,-8.749,-0.8379,84.7625,0.5217,-0.5282,-2.5809,187.2344
17:40:16:462,1.7227,-8.9645,-0.6487,84.8367,0.3625,-0.4907,-2.0709,188.4375
17:40:16:478,0.953,-9.1393,-0.4201,84.7314,0.2211,-0.3431,-1.3729,190.6406
17:40:16:495,1.141,-9.0974,-0.1136,84.7314,0.1404,-0.2387,-0.5836,192.5938
17:40:16:516,2.2782,-8.9489,0.4012,84.624,0.1659,-0.2129,0.1525,194.0469
17:40:16:533,4.0691,-9.241,0.2898,83.903,0.3145,-0.2222,0.7198,194.8906
17:40:16:552,5.4948,-9.6636,-0.0143,83.8723,0.5031,-0.2459,1.0442,194.9219
17:40:16:576,5.5295,-10.2047,-0.7541,84.2516,0.6983,-0.264,1.2277,194.0781
17:40:16:594,4.682,-10.1508,-1.7932,85.9582,0.7875,-0.2805,1.5358,192.375
17:40:16:611,6.7039,-8.749,-2.6359,85.98,0.7601,-0.2824,1.8764,190.0781
17:40:16:636,9.7577,-7.2694,-4.5884,86.1334,0.5428,-0.1096,1.8506,185.7969
17:40:16:651,10.112,-8.1361,-6.3649,87.6391,-0.1238,0.4875,1.6159,182.3281
17:40:16:673,7.7609,-9.9282,-5.6311,87.4684,-0.9958,1.3469,1.7464,179.2969
17:40:16:694,7.3491,-10.1831,-3.3458,90.4202,-1.4623,1.7443,2.3041,177.7812
17:40:16:712,8.1201,-9.2135,-1.7932,91.7704,-1.3846,1.4191,2.8389,177.8438
17:40:16:738,8.9125,-7.8464,-0.9935,94.1298,-1.041,0.7485,3.1563,178.125
17:40:16:761,9.1603,-6.9426,-0.5386,93.7616,-0.6562,0.2257,3.2876,177.5312
17:40:16:779,8.8946,-6.5882,0.0887,87.6041,-0.2684,0.0438,3.3843,175.8906
17:40:16:798,9.3459,-6.2674,-0.1196,72.7181,0.1997,-0.0076,3.5071,173.1875
17:40:16:812,10.47,-5.3995,-1.264,79.9539,0.7041,-0.4281,3.4426,169.7031
17:40:16:832,9.9887,-5.2535,-2.3833,92.3004,1.1643,-1.1016,3.2053,165.6562
17:40:16:853,9.2824,-6.696,-4.1742,98.7592,1.1867,-0.9178,3.4503,160.4375
17:40:16:877,10.5957,-7.0994,-3.2093,99.1784,0.8938,-0.2134,3.6333,154.3281
17:40:16:892,11.6108,-7.334,-2.6527,101.9147,0.8376,0.1797,3.6943,147.7188
17:40:16:920,12.7241,-7.1569,-2.9448,102.0273,0.9268,0.2151,3.6407,144.8125
17:40:16:931,13.5669,-6.6301,-3.5984,101.2843,1.028,-0.0078,3.4213,136.5312
17:40:16:952,14.0313,-6.6828,-4.2735,102.5735,1.0291,-0.3663,3.0751,131.7969
17:40:16:979,14.5437,-7.0252,-4.2843,102.8541,0.9209,-0.6805,2.6991,127.4219
17:40:16:998,14.8406,-6.8408,-4.1646,102.1298,0.7689,-0.8872,2.2932,122.8281
17:40:17:011,14.8621,-6.3788,-3.7133,101.5515,0.5334,-0.9655,1.8261,118.25
17:40:17:032,14.4623,-5.7682,-2.9436,102.923,0.2431,-0.6984,1.3608,113.8281
17:40:17:051,15.0417,-6.1082,-3.3206,101.0562,-0.1521,-0.0715,0.8961,109.9219
17:40:17:079,16.3801,-6.9869,-2.4827,101.6118,-0.6064,0.5403,0.2258,106.375
17:40:17:096,15.5373,-7.8476,-1.7357,101.2142,-0.7718,1.1237,-0.5596,103.8125
17:40:17:111,13.7177,-9.1069,-1.5849,100.6035,-0.7457,1.5299,-1.1061,102.8125
17:40:17:138,13.1982,-9.7247,-1.519,102.3627,-0.5191,1.6122,-1.3215,103.4375
17:40:17:150,13.8589,-9.5547,-1.9236,100.8885,-0.1159,1.1693,-1.4747,105.8125
17:40:17:172,15.0261,-9.6516,-2.7772,100.0423,0.2639,0.2348,-1.8107,109.2188
17:40:17:197,15.5062,-10.401,-2.7269,99.9982,0.404,-0.8268,-2.3524,114.8906
17:40:17:211,15.226,-10.9888,-1.7094,97.925,0.424,-1.6459,-2.9301,117.7188
17:40:17:243,14.7592,-11.6005,-0.8678,93.8682,0.4032,-2.1791,-3.5008,120.0469
17:40:17:250,13.9487,-11.9632,-0.0849,89.8459,0.3217,-2.3677,-4.0236,120.5781
17:40:17:271,13.0497,-12.2386,0.6106,76.4182,0.2314,-2.2055,-4.4723,121.5156
17:40:17:291,11.8347,-12.4828,0.7447,61.6173,0.1433,-1.7202,-4.8167,122.5938
17:40:17:318,10.5897,-12.6779,0.5472,77.1274,0.0437,-1.0648,-5.0286,124.375
17:40:17:330,9.5386,-12.7916,0.0995,84.4367,-0.0346,-0.4654,-5.1229,127.1719
17:40:17:351,8.3654,-12.733,-0.1591,78.6783,-0.0868,-0.0326,-5.1333,131.125
17:40:17:377,6.8523,-12.4361,-0.1747,75.6506,-0.0834,0.2476,-5.0244,135.9219
17:40:17:396,5.4386,-11.8232,-0.1459,73.8968,-0.0128,0.3759,-4.7682,141.6719
17:40:17:412,4.3827,-11.1983,-0.2046,69.9483,0.1025,0.3656,-4.4068,147.7344
17:40:17:437,3.3712,-10.4357,-0.2632,67.6853,0.2293,0.2337,-3.97,150.75
17:40:17:451,2.465,-9.7474,-0.4273,67.3771,0.3446,0.0297,-3.4566,156.1719
17:40:17:471,1.8029,-9.2805,-0.6798,64.018,0.4112,-0.202,-2.8784,161.2656
17:40:17:493,1.1589,-9.1177,-1.0521,63.1696,0.4248,-0.4574,-2.2478,165.5469
17:40:17:511,0.2707,-9.3368,-1.3442,63.0266,0.3955,-0.7501,-1.5117,170.2656
17:40:17:532,-0.5194,-9.4996,-1.6028,60.2936,0.3899,-1.1367,-0.578,172.5312
17:40:17:555,0.5699,-9.569,-1.4831,59.6355,0.3939,-1.5487,0.433,174.0469
17:40:17:578,3.2191,-9.4373,-0.8079,60.6106,0.4421,-1.7514,1.2074,174.625
17:40:17:595,5.3643,-9.2829,-0.5302,62.4037,0.4943,-1.5258,1.544,174.0781
17:40:17:612,5.2757,-9.2769,-0.8427,61.4712,0.3601,-0.7309,1.686,172.3594
17:40:17:631,4.5216,-9.6995,-1.3766,60.9662,-0.1009,0.7248,1.9994,169.9219
17:40:17:651,5.5008,-10.3316,-1.5765,64.5917,-0.6948,2.381,2.5283,167.0938
17:40:17:676,8.8072,-10.2178,-1.3778,64.2056,-1.0384,3.2663,2.9494,164.7031
17:40:17:695,12.529,-9.6564,-1.5418,66.0158,-0.9356,3.1137,2.8793,163.2812
17:40:17:712,13.27,-9.0686,-2.3749,66.6298,-0.5718,2.0694,2.404,162.5938
17:40:17:738,11.296,-8.0631,-2.8681,67.4984,-0.2016,0.6513,2.0173,162.0156
17:40:17:750,9.3567,-6.8492,-2.5641,69.5312,0.1031,-0.4752,1.9757,161.1719
17:40:17:771,8.8599,-5.6509,-2.4875,73.4835,0.306,-0.9263,2.0844,159.9062
17:40:17:798,8.3487,-4.7734,-2.4288,85.0205,0.3302,-0.7133,2.1206,157.7188
17:40:17:815,7.4245,-4.3664,-2.4887,110.3451,0.2426,-0.1373,2.1811,152.9375
17:40:17:831,6.7937,-4.2024,-2.5976,148.8299,0.1033,0.4462,2.3262,149.7656
17:40:17:853,6.9014,-4.0564,-2.4791,116.3497,-0.0141,0.7728,2.4482,146.875
17:40:17:877,7.1456,-4.0288,-2.4396,16.6253,-0.0719,0.7648,2.4436,144.4375
17:40:17:895,7.3527,-4.2671,-2.5677,59.4599,-0.1132,0.5181,2.3414,142.3906
17:40:17:918,7.3264,-4.5208,-2.4025,68.7784,-0.1838,0.2113,2.2093,140.3281
17:40:17:931,7.0594,-5.603,-2.2624,73.4987,-0.2557,-0.0286,2.1595,139.2812
17:40:17:951,6.9158,-7.2502,-2.2373,72.9518,-0.3297,-0.2006,2.3078,137.1719
17:40:17:975,7.5203,-8.518,-1.8925,73.751,-0.4099,-0.2659,2.6138,135.1094
17:40:17:993,9.1244,-9.4314,-1.2808,76.0884,-0.4056,-0.3005,2.9113,132.7344
17:40:18:052,10.9033,-10.3579,-0.8307,76.8559,-0.3236,-0.2662,3.0724,130.0156
17:40:18:053,12.3135,-11.318,-0.9013,76.4388,-0.2551,-0.0534,3.1513,126.875
17:40:18:053,13.9044,-11.5598,-1.039,77.7724,-0.2751,0.2952,3.1339,123.5625
17:40:18:079,15.1159,-10.978,-1.2221,75.9604,-0.3433,0.6849,2.9401,119.9688
17:40:18:090,16.1861,-10.1412,-1.4304,76.7842,-0.4418,1.0034,2.5582,115.3906
17:40:18:113,17.3162,-9.7342,-1.6315,77.4469,-0.5262,1.2127,1.9832,113.125
17:40:18:134,17.6945,-8.6496,-1.4568,75.7041,-0.4599,1.2612,1.2777,111.8125
17:40:18:151,17.5161,-5.8113,-2.7796,76.3442,-0.1715,1.0367,0.5177,111.4844
17:40:18:170,17.2072,-4.5424,-5.3294,76.0358,-0.0895,0.4116,-0.415,111.9844
17:40:18:195,16.8409,-5.5156,-5.3689,75.6639,-0.3337,-0.4049,-1.3548,112.9375
17:40:18:212,16.2196,-7.1916,-3.7767,75.4131,-0.4716,-1.1224,-2.1729,114.0312
17:40:18:232,14.9555,-8.6293,-2.4061,74.8936,-0.469,-1.6334,-2.8195,115.1094
17:40:18:251,12.4787,-9.5714,0.6035,74.8256,-0.2961,-1.5402,-3.6001,116.2031
17:40:18:277,11.0398,-9.1333,1.1709,71.4614,-0.0264,-0.9642,-3.8161,116.2031
17:40:18:298,9.5769,-8.8436,0.6884,66.4744,0.3023,-0.3508,-3.9445,118.75
17:40:18:314,8.1464,-8.7885,-0.2561,51.2229,0.5774,0.1352,-3.9631,118.75
17:40:18:331,6.7554,-8.8352,-0.8103,48.4416,0.7593,0.4673,-3.8345,120.9219
17:40:18:351,5.9689,-8.6868,-1.179,68.9132,0.8986,0.6012,-3.5863,125.7812
17:40:18:377,5.6552,-8.3755,-1.6064,72.1447,1.0038,0.503,-3.332,131.625
17:40:18:394,5.2673,-8.1552,-1.6998,70.6878,1.0711,0.2079,-3.1274,135.7188
17:40:18:411,4.8412,-8.008,-1.7548,70.5168,1.0844,-0.1575,-2.9221,139.4062
17:40:18:430,4.6353,-7.9374,-1.677,67.3829,1.0669,-0.5194,-2.6888,142.3281
17:40:18:450,4.573,-8.1493,-1.8123,67.5185,1.0029,-0.7538,-2.4246,144.7656
17:40:18:471,4.5383,-8.3085,-1.8147,65.8493,0.8802,-0.8566,-2.1213,146.625
17:40:18:495,4.8987,-8.524,-2.0134,66.3212,0.7358,-0.9074,-1.8062,147.8906
17:40:18:512,5.2374,-8.8651,-2.0386,64.6772,0.5507,-0.9492,-1.5317,148.8438
17:40:18:530,5.7654,-9.1081,-1.4627,64.6616,0.4245,-0.9285,-1.2709,149.5469
17:40:18:554,6.7482,-9.3775,-1.27,64.7683,0.4517,-0.8811,-1.0483,150.0781
17:40:18:579,7.4281,-9.8001,-1.8291,64.2305,0.5191,-0.8611,-0.9079,150.5
17:40:18:596,7.2533,-10.6404,-3.3805,64.2304,0.3902,-0.7903,-0.8035,150.875
17:40:18:614,5.3512,-11.2462,-4.4902,64.261,-0.1782,-0.5644,-0.5495,150.9688
17:40:18:631,3.3855,-10.978,-3.1016,63.7622,-1.0125,-0.0488,0.0607,150.7344
17:40:18:654,3.7878,-9.8408,0.2539,64.6498,-1.4892,0.6297,0.8772,150.9844
17:40:18:679,5.8863,-9.0567,2.3237,66.5128,-1.2706,1.1725,1.4964,152.0938
17:40:18:695,8.2338,-9.095,1.9562,67.25,-0.629,1.4122,1.7387,153.7656
17:40:18:714,8.5103,-9.3284,-0.1974,68.2116,0.004,1.3477,1.7092,155.0781
17:40:18:731,7.1612,-9.3607,-2.3342,68.6272,0.3174,1.0281,1.7427,155.3125
17:40:18:750,5.806,-8.6006,-3.2249,70.9872,0.3097,0.6026,1.9875,154.4688
17:40:18:770,5.2063,-7.4334,-3.1698,74.3658,0.1401,0.2862,2.3331,152.9219
17:40:18:793,5.5367,-6.593,-2.4803,81.1089,-0.1055,0.2076,2.633,150.7812
17:40:18:814,6.1041,-5.8844,-1.4747,94.797,-0.3193,0.3863,2.8096,148.2344
17:40:18:832,6.4704,-5.4438,-0.4572,115.3566,-0.4341,0.7011,2.8658,145.6406
17:40:18:850,6.6416,-5.0811,0.2491,105.9882,-0.4133,1.0244,2.8551,144.2812
17:40:18:871,6.9864,-4.8129,0.2048,36.2116,-0.281,1.2258,2.7891,141.75
17:40:18:894,7.2845,-4.7088,-0.5314,59.1967,-0.1361,1.2082,2.6357,139.5781
17:40:18:912,7.0798,-5.1984,-1.5717,75.6112,-0.0559,0.9959,2.4402,136.9219
17:40:18:930,7.1588,-6.0974,-2.3199,77.1733,-0.0674,0.625,2.3339,135.1875
17:40:18:951,8.5378,-6.6864,-2.7831,77.0688,-0.0594,0.1022,2.2639,133.4531
17:40:18:977,10.3251,-6.945,-3.608,75.2663,0.0671,-0.6238,2.0676,131.7031
17:40:18:995,10.3826,-7.6453,-4.9487,76.1936,0.1326,-1.4206,1.7933,129.5469
17:40:19:014,8.9436,-8.7323,-4.999,75.0644,-0.1236,-1.7631,1.784,126.7812
17:40:19:029,9.3112,-9.3823,-3.6295,76.3369,-0.506,-1.369,2.1494,123.4688
17:40:19:053,11.4372,-9.7007,-2.2337,72.4704,-0.7635,-0.488,2.4951,119.4844
17:40:19:077,13.4124,-9.3236,-1.6806,74.7437,-0.8144,0.4617,2.5781,115.4688
17:40:19:096,14.497,-9.0806,-1.8542,71.7028,-0.7699,1.2007,2.4021,112.1562
17:40:19:111,15.3182,-8.846,-1.8327,72.2545,-0.7105,1.675,2.1022,109.7188
17:40:19:130,16.2304,-8.0535,-1.7991,71.1696,-0.5271,1.8702,1.6514,108.5312
17:40:19:154,16.5129,-6.7355,-2.017,73.3431,-0.1942,1.7509,1.0314,108.4219
17:40:19:179,16.2508,-5.5504,-3.2608,72.6694,0.1649,1.3546,0.3091,109.1406
17:40:19:197,16.3429,-5.6892,-4.5848,73.3631,0.3097,0.7528,-0.4707,110.4219
17:40:19:214,16.4674,-6.9833,-4.7045,76.0623,0.2815,0.0606,-1.3042,112.6094
17:40:19:229,15.827,-8.6939,-3.9994,74.9915,0.2615,-0.5801,-2.0768,114.0938
17:40:19:250,14.5545,-10.0048,-3.2452,76.243,0.2538,-1.0177,-2.6702,115.5312
17:40:19:271,13.1658,-10.577,-2.2253,74.0005,0.2195,-1.1823,-3.0433,116.9844
17:40:19:293,11.873,-10.492,-1.5202,74.252,0.1902,-1.0915,-3.2611,118.4531
17:40:19:317,10.7214,-9.9246,-0.8319,74.152,0.1691,-0.8441,-3.3972,120.2188
17:40:19:330,9.711,-9.3236,-0.438,62.2846,0.2051,-0.5322,-3.5045,122.3906
17:40:19:352,8.7605,-8.8651,-0.6344,56.8564,0.2727,-0.2449,-3.5722,123.6719
17:40:19:378,7.9752,-8.5371,-0.954,76.0064,0.3073,-0.0576,-3.6103,126.4844
17:40:19:395,7.1672,-8.3312,-1.2808,81.8796,0.3001,0.034,-3.6225,129.875
17:40:19:411,6.4082,-8.1995,-1.6016,78.3763,0.2346,0.0516,-3.5895,133.5312
17:40:19:430,5.5618,-8.0511,-1.4867,77.2656,0.147,0.0297,-3.4885,137.1719
17:40:19:450,4.7825,-7.7734,-1.2161,76.5491,0.0908,-0.0294,-3.2899,141.0469
17:40:19:470,4.3025,-7.5376,-1.1539,75.3257,0.0645,-0.1445,-3.0299,146.8438
17:40:19:494,4.1062,-7.4992,-0.9755,74.962,0.0269,-0.2971,-2.75,150.2812
17:40:19:512,4.4234,-7.8177,-0.7241,76.4683,-0.0037,-0.4489,-2.4808,153.5781
17:40:19:530,4.5958,-8.4497,-0.7253,75.0428,-0.0256,-0.5719,-2.244,156.5156
17:40:19:551,4.5168,-9.3619,-0.9923,73.7126,-0.0874,-0.6315,-1.9668,159
17:40:19:577,4.2654,-10.0143,-0.9456,73.7075,-0.1875,-0.6089,-1.5769,161.3281
17:40:19:596,3.9877,-10.2298,-0.5757,75.4565,-0.2455,-0.5237,-1.0816,163.4375
17:40:19:612,3.923,-9.8743,-0.0083,74.0693,-0.2226,-0.3892,-0.5263,165.3125
17:40:19:631,4.6185,-9.8779,0.2958,75.2059,-0.0905,-0.2233,-0.0147,166.6562
17:40:19:650,5.0842,-10.6416,-0.9432,73.765,0.168,0.1269,0.679,167.4844
17:40:19:671,4.2438,-10.4106,-1.4508,75.1426,0.1811,0.2132,1.0921,167.4844
17:40:19:694,4.093,-9.6744,-1.0629,74.5449,0.2125,0.1762,1.649,167.5938
17:40:19:713,5.8911,-9.2506,-0.5146,75.2302,0.4184,0.0577,2.1624,167.0781
17:40:19:730,8.0422,-9.7354,-0.8391,76.6885,0.8091,-0.0837,2.42,166.0781
17:40:19:750,9.0993,-10.5447,-1.9787,77.1959,1.1745,-0.2169,2.506,162.5938
17:40:19:772,9.0957,-10.6692,-2.825,77.0846,1.3931,-0.3381,2.5701,159.5
17:40:19:795,8.5582,-9.7031,-3.0836,79.8135,1.4898,-0.4044,2.6935,157.6094
17:40:19:811,8.2625,-8.2414,-3.1578,86.4367,1.4754,-0.2803,2.8327,150.7969
17:40:19:830,8.4529,-6.7427,-3.2656,101.4719,1.3414,0.0145,2.8807,145.9219
17:40:19:849,8.7246,-5.5779,-3.5182,137.4667,1.0874,0.4311,2.771,140.5312
17:40:19:871,8.3894,-4.7986,-3.6678,131.4193,0.7353,0.9094,2.556,130.4688
17:40:19:896,7.7274,-4.3664,-3.9024,56.1581,0.3257,1.3195,2.3526,130.4688
17:40:19:915,7.0486,-4.4921,-3.9898,69.8147,-0.1212,1.573,2.2178,126.4844
17:40:19:932,6.8188,-5.0404,-3.748,80.6354,-0.5641,1.6844,2.159,123.6875
17:40:19:949,6.8655,-5.7742,-3.0058,81.3259,-0.9116,1.6167,2.1467,122.0781
17:40:19:970,7.2797,-6.6277,-2.187,82.208,-1.0868,1.3792,2.1672,121.2812
17:40:19:995,8.0446,-7.3927,-1.5932,82.1578,-1.1063,1.0471,2.1968,121.0625
17:40:20:015,8.8228,-7.8656,-0.9276,80.6511,-1.0213,0.7307,2.2074,121.0781
17:40:20:031,9.4034,-7.8464,-0.4261,83.304,-0.8573,0.5626,2.1954,120.9688
17:40:20:050,10.142,-7.8859,-0.4572,82.9803,-0.6722,0.5605,2.1547,120.4688
17:40:20:121,11.0374,-7.9625,-0.7038,81.5861,-0.5132,0.6284,2.0426,118.9062
17:40:20:121,11.8801,-8.324,-1.1419,80.922,-0.3726,0.6353,1.846,117.625
17:40:20:122,12.4823,-8.67,-1.3622,80.6464,-0.2618,0.5501,1.5986,116.3125
17:40:20:128,13.0521,-8.7658,-1.5681,82.1727,-0.147,0.409,1.3315,115.1562
17:40:20:154,13.7716,-8.7323,-1.9572,81.2655,-0.1007,0.2755,1.0146,114.1719
17:40:20:168,14.7592,-8.7083,-2.0984,81.7072,-0.1494,0.2468,0.5978,113.2344
17:40:20:191,15.0908,-8.3803,-1.6172,81.2655,-0.1968,0.3951,0.0601,112.3594
17:40:20:209,14.4048,-7.6764,-1.4903,83.4907,-0.123,0.6489,-0.5167,111.8125
17:40:20:229,13.5728,-7.8931,-2.3366,84.0084,-0.0075,0.7091,-1.0528,111.9219
17:40:20:250,13.2496,-8.743,-3.0812,82.985,0.0338,0.4159,-1.5162,112.9531
17:40:20:273,13.088,-9.7522,-3.1662,84.2094,0.0274,-0.1823,-1.9253,114.8594
17:40:20:294,12.7792,-10.4321,-2.3127,84.2922,0.0357,-0.8989,-2.2736,117.0312
17:40:20:325,12.0382,-10.2526,-0.8594,82.2288,0.1257,-1.4726,-2.5599,119.1719
17:40:20:328,11.0637,-9.423,0.115,79.0602,0.2879,-1.7162,-2.7815,120.1094
17:40:20:350,10.4041,-8.3528,0.5328,69.4376,0.4378,-1.6254,-2.9913,121.5312
17:40:20:371,9.8894,-7.7806,0.3102,48.8017,0.5497,-1.3088,-3.2339,122.875
17:40:20:394,9.2753,-7.692,-0.511,75.2101,0.5601,-0.863,-3.4667,123.7812
17:40:20:409,8.9113,-7.838,-1.3406,87.7287,0.4639,-0.4443,-3.6734,125.0312
17:40:20:431,8.1033,-8.3348,-1.6878,84.1852,0.3254,-0.2315,-3.8539,127.1094
17:40:20:451,7.1253,-8.846,-1.7237,79.8742,0.2125,-0.1721,-3.9218,133.5938
17:40:20:468,6.1353,-9.2027,-1.5011,73.4591,0.1404,-0.2576,-3.8425,133.5938
17:40:20:488,5.2793,-9.3571,-1.3897,73.3046,0.0938,-0.4084,-3.6374,137.3906
17:40:20:508,4.5443,-9.3691,-1.2437,70.3492,0.0298,-0.5546,-3.3245,141.4688
17:40:20:528,4.0008,-9.18,-0.9767,68.2324,-0.045,-0.6606,-2.9327,145.375
17:40:20:550,3.9494,-9.0878,-0.7481,67.5534,-0.1044,-0.6973,-2.4992,148.7812
17:40:20:569,4.0643,-9.1129,-0.6595,65.7102,-0.1574,-0.6595,-2.0853,151.9844
17:40:20:591,3.8356,-9.2111,-0.6739,65.8895,-0.216,-0.5458,-1.672,154.8281
17:40:20:609,3.8643,-9.3045,-0.6116,63.7895,-0.2562,-0.4118,-1.2243,157.2812
17:40:20:628,3.8895,-9.4074,-0.6607,63.9509,-0.2647,-0.2912,-0.7721,159.3125
17:40:20:651,3.7698,-9.1441,-0.4632,63.6384,-0.2482,-0.1564,-0.3082,161.9062
17:40:20:669,4.3659,-9.2662,-0.6188,64.0762,-0.2064,-0.0323,0.1294,163.1094
17:40:20:692,4.4545,-9.4709,-0.9528,63.4916,-0.1957,0.0657,0.4668,163.7344
17:40:20:709,3.8871,-9.6887,-1.3718,63.4916,-0.2522,0.1823,0.8314,163.9062
17:40:20:728,3.4933,-9.6444,-1.343,64.1505,-0.3539,0.2822,1.298,163.7031
17:40:20:749,3.8703,-9.4733,-0.9827,65.0016,-0.4003,0.3243,1.8418,163.2188
17:40:20:769,5.5104,-9.6444,-0.6008,67.7739,-0.3369,0.3054,2.3299,162.4062
17:40:20:790,7.3443,-10.3423,-0.6379,67.5028,-0.1579,0.2641,2.6394,161.0625
17:40:20:811,8.3104,-11.2486,-0.9911,68.3584,0.0626,0.1999,2.8319,160.125
17:40:20:828,8.4924,-11.5694,-1.0067,69.3518,0.3033,0.0998,3.0375,157.9062
17:40:20:848,8.4947,-10.8954,-0.7936,72.431,0.6,-0.0076,3.2855,154.9688
17:40:20:869,8.654,-9.6852,-0.7852,76.6678,0.93,-0.0896,3.4828,151.4688
17:40:20:892,9.0406,-8.3516,-0.9432,66.2177,1.2285,-0.1221,3.5547,147.4844
17:40:20:909,9.4117,-7.2814,-1.355,51.6206,1.4642,-0.0568,3.4628,142.5625
17:40:20:929,9.3447,-6.4757,-2.023,64.4718,1.5918,0.1219,3.2623,137.0781
17:40:20:949,8.9664,-5.9334,-2.8741,71.8384,1.5603,0.3626,3.0575,128.875
17:40:20:969,8.5019,-5.5755,-3.7696,74.2581,1.3526,0.5536,2.8793,123.7031
17:40:20:995,8.3918,-5.5815,-4.1682,73.0726,1.0208,0.6156,2.7321,119.2031
17:40:21:009,8.6923,-5.8855,-3.8952,73.9907,0.6645,0.6124,2.5848,115.6406
17:40:21:028,8.9987,-6.2495,-3.5253,72.9434,0.3891,0.5725,2.4375,112.4844
17:40:21:049,9.4129,-6.7894,-2.7436,72.983,0.0349,0.4739,2.1315,109.8125
17:40:21:070,9.6104,-6.9785,-2.4276,71.881,-0.0751,0.4726,2.0237,109.8125
17:40:21:094,10.2605,-7.4346,-2.3043,73.4891,-0.1617,0.4385,1.915,107.4688
17:40:21:111,11.2421,-8.1038,-2.1212,72.6895,-0.2186,0.299,1.7558,105.4844
17:40:21:129,12.5266,-8.7813,-1.8279,72.5345,-0.1987,0.0814,1.5294,103.5938
17:40:21:150,13.2843,-9.0327,-1.7896,72.4685,-0.0786,-0.1716,1.2154,100.3594
17:40:21:170,13.8853,-9.763,-2.5724,71.2974,0.0306,-0.4097,0.8929,98.7812
17:40:21:194,14.9771,-10.4166,-3.2021,73.4736,-0.0157,-0.5471,0.5757,97.1875
17:40:21:212,16.0149,-9.9054,-2.8167,70.8038,-0.0967,-0.4901,0.144,94.8906
17:40:21:230,15.7348,-7.8691,-2.254,69.2936,-0.0631,-0.0947,-0.443,93.4219
17:40:21:249,15.5062,-6.7127,-3.4583,70.0407,-0.0136,0.4431,-1.1402,92.7656
17:40:21:269,16.0832,-7.668,-5.2899,71.1309,-0.1507,0.6588,-1.946,91.9844
17:40:21:293,16.9128,-10.0431,-6.5899,71.7839,-0.4402,0.3227,-2.8382,92.3906
17:40:21:310,16.8026,-12.6408,-6.7479,70.7993,-0.8639,-0.41,-3.7434,94.2656
17:40:21:328,15.2344,-14.8662,-5.169,68.8544,-1.355,-1.0603,-4.4563,97.3906
17:40:21:349,13.3598,-15.6144,-2.6167,66.8007,-1.7436,-1.3522,-4.8337,101
17:40:21:368,11.9532,-15.114,-0.1364,61.723,-1.8466,-1.267,-4.9882,105.125
17:40:21:388,10.6651,-14.3395,1.226,41.521,-1.6765,-0.871,-5.0345,109.6094
17:40:21:411,9.1711,-13.3722,1.6042,52.1495,-1.3515,-0.2931,-5.0036,114.3438
17:40:21:429,7.8603,-12.4073,1.2367,63.5341,-0.9784,0.2702,-4.8827,119.9844
17:40:21:449,6.9637,-11.6125,0.5891,60.8367,-0.6386,0.6817,-4.7096,126.3281
17:40:21:468,6.1149,-11.0546,0.0552,61.266,-0.3563,0.9027,-4.5032,136.4375
17:40:21:492,5.1943,-10.5482,-0.2106,61.2039,-0.1132,0.9256,-4.247,143.4375
17:40:21:513,4.3085,-10.0287,-0.2441,58.075,0.1294,0.7445,-3.9293,150.0781
17:40:21:528,3.4358,-9.5762,-0.2369,58.137,0.3734,0.4348,-3.5442,156.0938
17:40:21:548,2.4757,-8.9046,-0.1435,58.5306,0.6056,0.0827,-3.0806,160.9688
17:40:21:569,2.0962,-8.2127,-0.3602,57.2588,0.8115,-0.304,-2.5697,165.1406
17:40:21:593,2.0663,-7.6836,-0.869,55.8085,0.9044,-0.5988,-2.0805,168.2969
17:40:21:611,2.2375,-7.6178,-1.4783,57.4807,0.8461,-0.7671,-1.6323,170.3281
17:40:21:629,2.2255,-7.9482,-1.7644,57.0574,0.6658,-0.8161,-1.186,171.5938
17:40:21:649,2.1549,-8.3839,-1.61,54.8625,0.4559,-0.7538,-0.6768,172.2656
17:40:21:669,2.2459,-8.6712,-0.8905,55.5051,0.3145,-0.6196,-0.0938,172.625
17:40:21:694,2.9127,-9.077,-0.1495,54.3969,0.3401,-0.4369,0.4934,172.7656
17:40:21:714,3.7506,-9.9341,-0.4141,55.1496,0.5041,-0.2659,1.0111,172.6094
17:40:21:733,3.8177,-10.5566,-1.4556,54.7772,0.6128,-0.1317,1.4801,171.8594
17:40:21:749,3.6477,-10.6273,-2.527,55.7608,0.555,-0.0715,2.0154,170.3594
17:40:21:769,4.439,-11.1193,-3.1088,55.4429,0.3782,-0.1261,2.6133,167.9688
17:40:21:792,6.2777,-11.9465,-2.3259,57.127,0.2501,-0.1793,3.1824,166.5156
17:40:21:814,8.5522,-12.9389,-1.5382,55.5123,0.3795,-0.1788,3.637,161.6875
17:40:21:830,10.7273,-13.3578,-1.4268,55.7724,0.6906,-0.1168,3.9017,157.8281
17:40:21:849,11.8694,-12.6671,-1.7692,59.5767,1.0227,0.0143,3.9382,153.3594
17:40:21:869,11.6371,-11.2773,-2.2804,64.4131,1.2325,0.2055,3.8138,148.125
17:40:21:894,10.5155,-9.7594,-2.4791,73.1449,1.2986,0.409,3.6541,142.5156
17:40:21:911,9.4836,-8.6281,-2.5282,81.953,1.2741,0.6004,3.5363,136.4688
17:40:21:928,9.0538,-7.7039,-2.752,47.0795,1.179,0.7759,3.4495,130.7188
17:40:21:949,8.7461,-7.0934,-3.0728,46.9733,0.9707,0.9797,3.3382,125.7188
17:40:21:969,8.5019,-6.8564,-3.2177,57.0545,0.6472,1.222,3.2343,120.9844
17:40:21:995,8.3655,-6.9893,-3.0525,59.3275,0.2706,1.4409,3.16,116.8594
17:40:22:012,8.4505,-7.3771,-2.6646,58.9805,-0.0762,1.572,3.1116,113.6875
17:40:22:031,8.7737,-7.8009,-2.2385,58.7058,-0.3454,1.5831,3.0698,111.1562
17:40:22:049,9.2968,-8.0619,-1.5944,58.6671,-0.4788,1.4668,3.012,109.25
17:40:22:069,10.3048,-8.2378,-1.1455,60.1708,-0.4179,1.2505,2.9297,107.75
17:40:22:094,11.3774,-8.239,-1.2964,58.5218,-0.2229,0.9821,2.756,105.7656
17:40:22:112,11.9843,-8.2211,-1.9512,59.4735,-0.0429,0.7813,2.5132,104.1875
17:40:22:128,12.4679,-8.3216,-2.5318,59.202,0.0091,0.7099,2.2447,102.4531
17:40:22:184,12.8534,-8.5311,-2.8993,58.9148,-0.0226,0.7381,1.9824,100.6094
17:40:22:185,13.3681,-8.6269,-3.1016,58.5177,-0.0887,0.785,1.7249,98.9531
17:40:22:200,13.6698,-8.2582,-3.1734,59.6088,-0.171,0.8558,1.4474,97.6406
17:40:22:213,14.3988,-7.8967,-3.6056,58.7728,-0.3143,0.9288,1.1384,96.7812
17:40:22:230,15.6809,-7.8536,-3.5637,60.4737,-0.5529,0.9704,0.6852,96.2969
17:40:22:248,16.6147,-7.9901,-2.8753,59.1849,-0.7462,1.0463,0.0524,96.2031
17:40:22:269,15.8258,-7.1401,-1.9296,61.4024,-0.7646,1.2305,-0.6541,96.4688
17:40:22:299,15.2213,-6.8971,-2.1702,62.41,-0.6506,1.3416,-1.3258,97.4375
17:40:22:314,15.1734,-7.7434,-2.7161,61.1167,-0.5691,1.1762,-2.0155,99.4375
17:40:22:333,15.2643,-9.6145,-3.2045,60.9229,-0.5246,0.708,-2.709,102.5
17:40:22:348,14.5988,-11.2845,-2.667,61.0105,-0.5278,0.055,-3.3327,106.1406
17:40:22:369,13.6507,-12.1967,-1.5908,62.1325,-0.4964,-0.5309,-3.7666,112.4688
17:40:22:394,13.2269,-12.5833,-0.5063,60.9692,-0.4077,-0.9548,-4.0763,116.5938
17:40:22:410,12.9144,-12.7713,0.4359,56.3884,-0.2708,-1.1567,-4.3693,120.25
17:40:22:427,12.3111,-12.8706,1.1278,48.8494,-0.0786,-1.0912,-4.6638,123.9219
17:40:22:449,9.468,-13.0729,0.7722,62.2745,0.1545,-0.8291,-4.928,127.6406
17:40:22:468,7.895,-12.715,0.3245,69.2572,0.3758,-0.4837,-5.0457,131.4688
17:40:22:488,6.6368,-12.2469,-0.1663,67.3866,0.6932,0.0393,-4.7581,136
17:40:22:509,5.4218,-11.6532,-0.5865,67.4786,0.8024,0.1115,-4.4332,136
17:40:22:528,4.5683,-10.9756,-0.9635,67.6092,0.8788,0.0289,-4.0345,145.7188
17:40:22:549,4.0643,-10.2681,-1.203,66.4236,0.901,-0.1596,-3.6188,150.0938
17:40:22:567,3.5878,-9.581,-1.2197,67.0605,0.8781,-0.378,-3.2233,154.2031
17:40:22:588,3.1054,-8.9346,-1.0976,67.2218,0.8304,-0.5692,-2.8299,157.6406
17:40:22:611,2.8552,-8.4234,-1.0258,66.8869,0.7713,-0.6856,-2.4379,160.3125
17:40:22:631,2.4721,-8.3073,-1.2509,66.1526,0.6669,-0.7042,-2.0486,162.6094
17:40:22:647,2.0316,-8.5766,-1.2844,67.2283,0.5182,-0.6337,-1.6171,164.4531
17:40:22:668,1.7874,-9.0423,-1.2509,66.8607,0.384,-0.5069,-1.1021,165.8438
17:40:22:688,1.6294,-9.3284,-0.9815,66.1454,0.298,-0.3674,-0.5215,167.0156
17:40:22:717,1.9909,-9.7665,-0.8582,66.0507,0.2943,-0.2302,0.1073,167.9531
17:40:22:737,2.6349,-10.632,-1.4101,66.2655,0.3217,-0.1242,0.7078,168.5469
17:40:22:749,2.5847,-11.2066,-2.0481,67.1947,0.2213,-0.014,1.3022,168
17:40:22:767,2.4865,-11.0475,-1.7453,66.3506,0.0146,0.1371,1.9922,166.6719
17:40:22:786,4.0212,-10.7721,-0.7469,66.9832,-0.1004,0.262,2.7065,164.9219
17:40:22:809,6.6201,-10.8535,-0.0442,67.5503,0.0269,0.307,3.2,163.875
17:40:22:830,9.0227,-11.6592,-0.3303,67.5503,0.3318,0.2926,3.4016,159.7812
17:40:22:847,10.1683,-12.5929,-1.4639,67.9122,0.6293,0.2316,3.4319,158.0781
17:40:22:870,10.0701,-12.7066,-2.4695,68.5764,0.7625,0.1104,3.4543,154.3281
17:40:22:893,9.2872,-11.792,-2.5773,71.5031,0.7491,0.0098,3.555,149.8438
17:40:22:911,8.9628,-10.5231,-2.1355,78.6898,0.6967,0.0164,3.6969,145
17:40:22:931,9.292,-9.4804,-1.9045,101.963,0.6751,0.1325,3.7819,140.2344
17:40:22:948,9.887,-8.6413,-2.0948,118.5721,0.5997,0.3584,3.7294,135.1719
17:40:22:968,9.9217,-7.838,-2.2277,54.0414,0.4285,0.7144,3.5726,130.0938
17:40:22:989,9.7697,-7.2203,-2.6024,60.3934,0.1792,1.1432,3.4051,125.2656
17:40:23:010,9.7493,-6.7726,-3.092,69.5659,-0.1635,1.5491,3.2463,123.2969
17:40:23:028,9.4836,-6.2435,-2.6886,68.8733,-0.5353,1.7235,3.0453,119.5312
17:40:23:048,9.4093,-5.9598,-2.0481,68.4263,-0.7966,1.7789,2.8426,116.75
17:40:23:068,9.7014,-5.9634,-1.6399,69.1673,-0.9404,1.7328,2.6224,114.9219
17:40:23:089,10.0629,-6.3967,-1.3945,69.4476,-1.0067,1.6332,2.3635,113.9219
17:40:23:113,10.3323,-6.8983,-1.094,69.1773,-1.0197,1.5025,2.099,113.1562
17:40:23:127,10.3466,-7.498,-0.8187,70.1456,-0.9444,1.3352,1.8705,112.9844
17:40:23:148,10.628,-8.3468,-0.8857,68.5817,-0.7966,1.0819,1.7169,112.9844
17:40:23:168,11.1415,-8.9825,-0.8355,68.2445,-0.6069,0.6969,1.5984,113.0781
17:40:23:188,11.843,-9.0878,-0.705,67.9519,-0.3547,0.2177,1.4775,113.0625
17:40:23:210,12.7349,-8.9968,-0.8714,68.7134,-0.094,-0.2374,1.2996,112.7031
17:40:23:227,13.5704,-8.7801,-1.1168,69.7589,0.0791,-0.4877,1.0412,111.7656
17:40:23:247,14.4467,-8.4988,-1.112,67.0229,0.1625,-0.4763,0.6894,110.2188
17:40:23:268,15.5768,-8.5467,-1.3023,67.729,0.2136,-0.2832,0.2053,108.4062
17:40:23:288,15.3721,-8.0499,-1.039,67.6878,0.2863,0.0023,-0.3947,106.6406
17:40:23:311,14.017,-6.8504,-1.452,67.7948,0.4506,0.3373,-0.9245,105.5
17:40:23:328,14.0325,-6.5631,-2.7939,69.9188,0.522,0.5064,-1.4182,105.3125
