Time,Acc_X,Acc_Y,Acc_Z,Meg,Gyr_X,Gyr_Y,Gyr_Z,Ore
19:25:41:500,-1.2497,3.0329,8.3954,53.9456,-0.4362,-0.2965,-0.4182,193.5938
19:25:41:513,-2.1571,3.3441,8.7485,54.4508,-0.4674,0.046,0.0362,194.3906
19:25:41:530,-1.7656,3.1993,8.7701,54.9556,-0.289,0.2574,0.1965,194.3906
19:25:41:558,-1.5992,2.7073,7.7226,54.4709,-0.265,0.3605,0.3853,194.3906
19:25:41:569,-0.8702,2.6713,7.6412,55.0237,-0.4091,-0.1735,0.8404,187.7969
19:25:41:592,-0.0621,2.645,7.9441,55.0031,-0.6637,-0.0701,0.556,187.7969
19:25:41:610,-1.1683,2.5971,8.6001,55.4618,-0.9766,-0.1216,0.3398,186.0938
19:25:41:628,-1.045,2.6558,9.6547,53.5307,-0.9028,-0.1314,0.2655,185.5781
19:25:41:657,-1.4532,2.9491,9.9564,53.3196,-0.5984,0.0574,0.132,185.125
19:25:41:668,-1.0569,3.5021,9.316,54.8373,-0.3928,0.013,0.0724,184.8125
19:25:41:691,0.3736,3.5967,9.9313,54.5316,-0.261,-0.3972,-0.1631,184.6562
19:25:41:708,-0.93,2.9395,10.6148,57.4386,-0.1478,-0.5399,-0.3561,184.6406
19:25:41:727,-1.2628,2.6127,10.7465,54.3005,-0.1654,-0.1628,-0.2528,185.0625
19:25:41:747,-1.0258,2.8629,9.942,55.5058,-0.2871,0.4412,-0.15,185.4844
19:25:41:767,-1.0509,3.1466,9.4788,54.1054,-0.3683,0.512,-0.1409,185.6406
19:25:41:792,-0.9097,3.1945,9.4309,54.4198,-0.2703,0.2817,-0.17,185.6719
19:25:41:809,-0.6487,3.0724,9.5733,54.1073,-0.0993,-0.121,-0.2603,185.75
19:25:41:826,-0.62,2.9347,9.6763,54.1073,0.0554,-0.2622,-0.3841,185.9375
19:25:41:846,-0.7972,2.9155,9.6583,54.5668,0.1907,-0.2949,-0.4805,185.9375
19:25:41:866,-1.1671,2.6546,9.6571,54.5668,0.3095,-0.3037,-0.5114,186.3438
19:25:41:891,-1.3263,2.5899,9.4668,56.6711,0.4253,-0.3447,-0.4539,186.9062
19:25:41:907,-0.6176,2.4331,8.9377,53.7488,0.4852,-0.41,-0.435,187.5156
19:25:41:925,-1.1096,3.0724,8.715,54.1315,0.433,-0.2965,-0.5162,188.1719
19:25:41:945,-1.7189,3.2938,8.7593,55.2482,0.2759,-0.231,-0.4722,188.75
19:25:41:966,-1.9356,2.8198,9.128,53.9148,0.1702,-0.1927,-0.2874,189.7188
19:25:41:992,-2.0589,2.6474,9.377,54.6648,0.1886,-0.3037,-0.0427,190.7031
19:25:42:008,-1.0845,2.6342,9.2082,56.3627,0.2711,-0.3524,0.193,190.7031
19:25:42:025,-0.687,3.0005,8.9053,54.1569,0.2764,-0.3772,0.1949,190.8281
19:25:42:045,-1.2018,3.3297,9.0981,54.9263,0.1467,-0.3841,0.1752,190.7031
19:25:42:066,-0.9276,3.0688,9.6871,54.9107,0.0466,-0.2677,0.2641,190.625
19:25:42:092,-0.7385,2.9838,9.7158,54.0099,-0.0045,0.0856,0.3059,190.5156
19:25:42:108,-0.881,3.2424,9.6164,55.4671,-0.0668,0.4018,0.3166,190.3281
19:25:42:125,-0.9839,3.477,9.4129,55.1719,-0.0988,0.4974,0.3288,190.0312
19:25:42:145,-0.9707,3.1466,9.201,55.3169,-0.0732,0.4649,0.3483,189.625
19:25:42:165,-1.0007,3.2112,9.3375,55.6017,0.004,0.2505,0.3701,189.1719
19:25:42:191,-1.0593,3.4746,10.1144,54.7831,0.0977,-0.1202,0.3264,188.7188
19:25:42:209,-0.772,3.2819,10.6256,56.3733,0.1233,-0.2552,0.2255,188.2188
19:25:42:225,-0.2645,2.8521,11.1918,55.5801,-0.0359,-0.0022,0.1454,187.8125
19:25:42:246,0.0779,2.4044,12.3303,54.2594,-0.163,0.2921,0.1488,187.5469
19:25:42:265,0.3616,1.7089,11.6587,55.2195,-0.1305,0.516,0.1294,187.3906
19:25:42:286,0.3437,1.5233,10.2138,54.6198,-0.1121,0.7235,-0.0211,187.1875
19:25:42:306,-0.2884,1.9962,9.4931,55.8103,-0.1843,0.6665,-0.2272,186.9375
19:25:42:326,-1.0402,2.0285,10.0522,56.5697,-0.2234,0.3277,-0.3095,186.75
19:25:42:346,-1.5334,1.2863,10.1982,54.2888,-0.1063,-0.0515,-0.1921,186.75
19:25:42:366,-1.1419,0.8577,9.8259,55.5596,0.0037,-0.3687,-0.0757,186.9688
19:25:42:389,-0.5087,0.744,9.5793,55.1276,0.0898,-0.6678,-0.0107,187.3125
19:25:42:406,-0.0669,1.2707,9.3148,54.8672,0.2067,-0.9208,0.0322,187.4688
19:25:42:431,0.4754,2.299,8.8168,53.5564,0.3305,-1.1586,0.0154,187.5938
19:25:42:444,1.032,2.7671,8.2565,54.5455,0.2868,-1.1008,-0.179,187.7344
19:25:42:465,0.8704,2.3038,8.2146,55.8133,0.0993,-0.8257,-0.4539,187.9375
19:25:42:487,0.3018,1.716,8.3631,55.2925,-0.1534,-0.4632,-0.5873,188.3594
19:25:42:505,-0.1304,1.4742,8.8718,55.2642,-0.3723,-0.0699,-0.5311,188.9844
19:25:42:525,-0.1627,1.5592,9.3531,55.1498,-0.4051,0.054,-0.3956,189.7344
19:25:42:545,0.7028,1.655,9.7553,56.7725,-0.2961,-0.064,-0.309,190.3281
19:25:42:566,1.1003,1.6191,9.5638,55.7381,0.1348,-0.4837,-0.3455,190.75
19:25:42:590,0.9829,1.6765,9.0442,56.0155,0.2397,-0.3596,-0.4653,191.0781
19:25:42:611,1.0823,2.2727,8.5857,53.7415,0.273,-0.1154,-0.3351,191.4375
19:25:42:626,1.0835,2.633,7.974,55.8507,0.2437,0.1842,-0.2046,191.9219
19:25:42:645,0.54,2.6306,7.6616,53.5799,0.1926,0.3506,-0.1103,192.5
19:25:42:666,0.1102,2.5792,7.3743,53.4015,0.2525,0.0388,-0.0717,192.9062
19:25:42:689,0.0923,2.8868,7.0822,54.5945,0.2464,-0.5668,-0.1561,193.125
19:25:42:709,0.2192,3.1562,7.9644,56.5377,0.1643,-0.8547,-0.2387,193.2031
19:25:42:725,0.6729,2.9455,8.3092,56.8684,0.1015,-0.6225,-0.1806,193.2969
19:25:42:745,0.558,2.9503,8.5941,55.7388,-0.0085,-0.1333,-0.1409,193.5781
19:25:42:765,0.5508,3.2567,8.7557,53.9989,-0.0591,0.308,-0.1058,194.0156
19:25:42:789,0.8704,3.3585,8.1967,55.1277,-0.0991,0.3008,-0.122,194.3125
19:25:42:806,0.6669,3.3178,8.5031,53.8098,-0.1571,-0.039,-0.1985,194.5
19:25:42:825,0.4406,3.4926,9.1436,55.5682,-0.0815,-0.566,-0.2131,194.5938
19:25:42:846,0.2515,3.4076,9.7601,55.0577,-0.0453,-0.7796,-0.2461,194.7344
19:25:42:865,-0.8893,2.9108,10.0258,54.4735,-0.1441,-0.4752,-0.2675,195.0156
19:25:42:887,-3.3302,2.9491,10.5621,54.6405,-0.3276,0.0657,-0.0113,195.4062
19:25:42:907,-1.9069,1.9232,11.7652,54.4759,-0.4344,0.4204,0.56,195.8125
19:25:42:925,-0.0154,1.6765,12.7121,56.4058,-0.273,0.5139,0.8242,196.0469
19:25:42:945,0.0815,2.1602,12.5122,55.3382,0.1249,0.2835,0.8916,195.6875
19:25:42:965,-0.1783,2.5504,11.1463,55.4237,0.3728,0.1416,0.8063,194.7969
19:25:42:988,0.2527,2.5684,10.4592,55.2074,0.3297,0.0175,0.8769,193.7188
19:25:43:005,0.7639,3.1502,10.4017,53.4375,0.1438,0.0108,0.9126,192.7344
19:25:43:025,1.0524,2.6019,11.8897,56.0914,-0.0205,-0.0206,0.7968,191.7812
19:25:43:045,0.8022,1.9746,13.2018,55.558,0.2061,-0.1591,0.7403,190.7969
19:25:43:065,0.8872,2.1243,11.5976,54.48,0.6147,-0.0451,0.6987,189.8125
19:25:43:087,0.6645,2.4307,9.1771,55.4085,0.7209,0.0521,0.6263,188.9688
19:25:43:105,0.8261,2.7491,7.9537,54.1205,0.5087,0.0359,0.5549,188.2031
19:25:43:125,0.8656,2.7348,8.3391,54.6049,0.2365,-0.112,0.4378,187.4531
19:25:43:145,1.1805,2.3182,8.8168,53.8125,0.1132,-0.3413,0.3038,187.1094
19:25:43:165,1.4941,1.8801,9.0598,53.7367,0.0685,-0.4049,0.184,186.4688
19:25:43:187,1.1086,1.7065,8.958,53.7111,0.0943,-0.2054,0.1323,186.0312
19:25:43:206,0.7375,1.7603,8.1272,55.8044,0.1782,0.169,0.1794,185.75
19:25:43:226,0.552,2.4702,6.3017,54.6377,0.1955,0.5371,0.287,185.6719
19:25:43:246,1.0081,3.0305,5.2327,56.4357,0.0013,0.5248,0.3563,185.4219
19:25:43:266,1.1015,2.584,6.2083,55.9952,-0.2575,0.1456,0.3022,185.0781
19:25:43:291,0.8129,2.6522,7.8304,56.7136,-0.294,-0.0787,0.2194,184.5781
19:25:43:310,0.2802,2.4235,8.041,54.2127,-0.2091,0.0436,0.1366,184.1406
19:25:43:326,-0.0226,2.8509,7.8651,55.063,-0.1193,0.1597,0.1994,183.8281
19:25:43:344,0.7651,3.1143,7.6089,54.9591,-0.1843,0.2311,0.1997,183.6562
19:25:43:364,0.4335,3.4231,8.5139,55.1685,-0.2993,0.1474,0.1003,183.4531
19:25:43:390,0.1186,3.6266,9.5434,56.1459,-0.2871,-0.0022,0.0388,183.1562
19:25:43:413,0.3796,3.386,10.3622,54.9593,-0.1734,-0.0851,0.0106,182.9375
19:25:43:425,0.1462,2.9922,11.0925,53.2771,-0.0325,-0.1692,0.0181,182.8594
19:25:43:485,0.9674,3.1957,11.6072,56.1653,0.1414,-0.3381,-0.0025,182.8438
19:25:43:485,0.9877,2.9491,11.8742,54.8552,0.3073,-0.5399,-0.1306,182.8594
19:25:43:492,0.9602,2.7887,12.0549,55.0064,0.3907,-0.6124,-0.1527,182.875
19:25:43:510,0.9267,2.3134,11.3331,54.239,0.3281,-0.525,-0.0533,183.0312
19:25:43:527,2.0974,2.1195,11.2636,56.4852,0.1233,-0.2451,0.1166,183.3125
19:25:43:544,3.2658,2.8114,11.1643,54.4514,0.0069,0.014,0.0926,183.5625
19:25:43:565,3.3867,3.3094,10.7752,55.6709,-0.0434,0.0841,-0.109,183.5938
19:25:43:586,1.8664,3.2962,11.0278,55.3167,-0.1302,-0.0185,-0.3721,183.4688
19:25:43:606,0.5663,2.7575,11.6228,53.7757,-0.2048,-0.2483,-0.3684,183.4531
19:25:43:624,2.0651,1.4371,12.5589,52.9575,-0.2232,-0.2502,-0.1388,183.7188
19:25:43:644,3.7003,0.7033,13.4208,54.6729,-0.1705,0.0657,-0.1053,184.5469
19:25:43:664,4.3061,0.8865,12.3338,53.3787,0.0898,0.4375,-0.182,184.625
19:25:43:691,3.7746,1.0181,9.6583,53.896,0.3108,0.5959,-0.3681,184.7344
19:25:43:710,2.9067,1.2923,7.8495,53.8597,0.3246,0.3746,-0.5364,184.8594
19:25:43:726,2.1729,1.2073,6.6309,53.3611,0.2189,0.1701,-0.6555,185.1562
19:25:43:745,1.688,1.3114,6.2885,52.6917,0.0378,0.0154,-0.6909,185.7031
19:25:43:766,1.5899,1.3438,6.2598,54.2454,-0.1095,0.0292,-0.7189,186.375
19:25:43:788,1.2702,1.57,6.2011,53.7218,-0.2698,0.2119,-0.7572,187.1719
19:25:43:807,0.54,2.0333,6.1963,52.0263,-0.3941,0.3368,-0.729,187.9844
19:25:43:824,0.941,1.8789,5.7055,51.833,-0.4554,0.2747,-0.6781,188.7969
19:25:43:845,0.0875,2.1015,5.4984,53.6667,-0.5377,0.1267,-0.6536,189.5312
19:25:43:865,0.1629,2.6211,6.261,50.5109,-0.6948,0.1325,-0.5724,190.2344
19:25:43:888,0.4323,2.5157,6.5566,50.5109,-0.8168,0.4422,-0.5322,190.9375
19:25:43:910,0.7435,2.4834,6.7757,52.8226,-0.8924,0.5834,-0.4837,191.5156
19:25:43:926,0.2898,2.973,7.889,50.3899,-0.9276,0.4111,-0.4667,192
19:25:43:949,0.1797,3.058,10.1839,50.6902,-0.4735,0.2787,-0.6102,192.4219
19:25:43:964,-0.1364,2.7683,10.0893,52.2547,-0.2304,0.0135,-0.7476,192.8281
19:25:43:985,-1.3107,2.5037,9.8511,50.6726,-0.1127,0.1671,-0.794,193.3125
19:25:44:006,-2.0098,2.4738,8.9401,50.784,-0.1377,0.2755,-0.6307,193.9531
19:25:44:025,-2.5641,1.8609,12.3458,50.7706,-0.3278,-0.6694,-0.2331,194.7812
19:25:44:044,-2.0469,0.9571,15.0561,50.8775,0.1739,-0.864,0.1398,195.625
19:25:44:064,-1.3969,1.5078,13.8793,50.4085,0.9169,-0.8483,0.3147,196.2969
19:25:44:088,-1.2102,1.7723,10.8135,50.4106,1.2576,-0.9663,0.3922,196.625
19:25:44:104,-1.3694,1.8824,8.5462,50.6846,1.0219,-1.0385,0.5027,196.4844
19:25:44:124,-1.3766,1.5676,8.0291,49.0275,0.3145,-0.6406,0.6356,196.25
19:25:44:144,-1.0282,1.0696,8.8814,49.9896,-0.53,0.0958,0.7528,195.9375
19:25:44:165,-0.3997,0.9727,9.4608,50.5106,-1.2184,0.7472,0.8596,195.4688
19:25:44:189,-0.1028,0.7835,12.1507,49.3535,-1.4871,0.4194,0.9661,194.7188
19:25:44:208,0.8261,0.1562,13.8889,48.0434,-1.1111,-0.1263,1.1081,193.7031
19:25:44:224,1.4845,-0.732,12.6535,50.2419,-0.5009,-0.7881,1.0852,192.5781
19:25:44:245,0.9279,-1.6239,10.476,50.6789,-0.1393,-1.2928,0.9938,191.9688
19:25:44:266,-0.7744,-3.1669,10.6567,49.4416,-0.8291,0.5988,1.2061,190.6875
19:25:44:290,-0.4009,0.6051,7.4545,48.7245,-1.7803,0.2167,1.3078,189.5156
19:25:44:307,0.0109,0.2065,11.5114,48.9953,-1.3167,-0.6102,1.0388,188.5469
19:25:44:330,0.1078,0.3394,9.9373,49.3044,-0.6245,-0.933,0.9462,187.1094
19:25:44:344,-0.4189,-0.1682,8.8192,48.9119,-0.1028,-0.8078,1.0047,185.5938
19:25:44:365,0.9829,-0.8829,8.3212,47.878,0.0746,0.2153,1.2652,184.4375
19:25:44:385,3.3352,-0.6255,7.4964,47.2653,-0.0117,0.9182,1.343,183.4531
19:25:44:405,3.674,-1.2145,7.9465,48.5,-0.082,0.4707,1.0207,182.3438
19:25:44:424,3.534,-1.0433,8.9999,48.0678,-0.2599,-0.7173,0.609,180.8906
19:25:44:444,1.1733,0.3394,9.1603,49.137,-0.3396,-2.446,0.347,179.3906
19:25:44:464,1.8915,0.4352,7.9489,47.2015,-0.3787,-2.794,0.422,178.2031
19:25:44:484,4.1337,0.3166,7.5347,48.7849,-0.3228,-2.4673,0.3587,177.5469
19:25:44:504,4.2666,0.3849,7.9381,48.211,-0.1656,-0.9642,0.2393,177.0938
19:25:44:525,4.2857,0.7069,8.9664,45.9976,0.1212,1.3,0.1589,176.7344
19:25:44:545,3.5399,1.0289,10.6292,47.4787,0.621,3.4143,0.1107,176.4844
19:25:44:565,2.617,0.7356,8.7581,46.849,0.9241,5.1252,0.2383,176.2656
19:25:44:590,3.2634,0.234,8.654,47.4571,0.657,4.253,0.3707,176.0312
19:25:44:608,1.7479,0.0233,10.9153,45.8373,0.4533,0.5371,-0.0552,175.6562
19:25:44:626,1.3756,0.5573,12.1686,45.3937,0.3832,1.1126,-0.5338,175.0312
19:25:44:646,0.4251,0.2951,12.3183,47.0951,0.4693,0.671,-0.7497,174.6875
19:25:44:665,-0.365,0.3442,13.1754,46.6442,0.7689,0.1906,-0.95,175.0938
19:25:44:689,-1.0198,0.4388,13.6519,46.0493,1.0501,0.3994,-0.828,175.7656
19:25:44:706,-1.1348,0.8841,12.5793,46.9507,1.3217,0.3757,-0.6211,176.75
19:25:44:724,-1.355,1.5736,11.5114,45.885,1.4006,-0.0243,-0.5013,177.8438
19:25:44:745,-1.2161,1.9303,10.3945,45.4014,1.1966,-0.2877,-0.3165,178.7188
19:25:44:764,-0.0274,2.147,9.6787,46.2126,0.8432,-0.6252,-0.1306,179.4219
19:25:44:793,1.3181,2.2583,9.6978,45.3419,0.445,-0.7437,-0.1857,180.0312
19:25:44:807,1.5444,2.159,10.0378,45.3952,0.0836,-0.6124,-0.4283,180.4062
19:25:44:824,1.1589,1.6119,10.3598,45.8272,-0.1518,-0.5386,-0.6709,180.6875
19:25:44:843,0.6861,1.2193,10.6615,44.9813,-0.1782,-0.5708,-0.6941,181.125
19:25:44:864,0.7196,1.0948,10.4197,45.0744,-0.0605,-0.5988,-0.5402,181.8438
19:25:44:885,0.9458,1.3366,10.0785,45.843,0.0594,-0.5335,-0.3593,182.7188
19:25:44:908,0.9422,1.3545,9.6464,45.0655,0.0985,-0.1703,-0.2925,184.0625
19:25:44:927,0.8285,1.0469,9.3519,43.1546,0.0706,0.2497,-0.2089,184.4844
19:25:44:944,0.8273,0.8505,9.4177,45.3255,0.0498,0.4444,-0.1678,184.7656
19:25:44:964,0.7854,1.0157,9.14,45.2814,0.0578,0.3898,-0.2507,184.8438
19:25:44:984,0.783,1.1893,8.2589,45.285,0.0474,0.0982,-0.4123,184.9844
19:25:45:005,0.3604,1.1546,7.3515,45.4793,-0.041,-0.2704,-0.55,185.2188
19:25:45:024,-0.0334,1.4659,7.6687,45.4793,-0.1638,-0.3695,-0.5159,185.6562
19:25:45:047,-0.2058,1.4383,8.211,46.1266,-0.1308,-0.1809,-0.39,186.3125
19:25:45:063,0.2024,1.1905,7.8124,44.5194,0.078,-0.2299,-0.3015,186.9375
19:25:45:085,0.4418,1.4084,7.8711,46.3563,0.2551,-0.3634,-0.1857,187.4062
19:25:45:118,0.8644,1.5209,7.7154,44.1783,0.3593,-0.3285,-0.1601,187.7656
19:25:45:123,0.9279,1.8022,7.5921,44.6589,0.4517,-0.4009,-0.182,188.0469
19:25:45:144,0.8441,2.062,7.4401,47.3376,0.4293,-0.4475,-0.1822,188.2812
19:25:45:163,1.1601,2.074,7.5933,44.57,0.2448,-0.3751,-0.1378,188.5469
19:25:45:184,1.4857,1.9256,8.2733,44.5933,0.0522,-0.3615,-0.1628,188.8438
19:25:45:204,1.1122,1.7208,9.365,46.2271,-0.1001,-0.3082,-0.2525,189.0625
19:25:45:226,0.6023,1.5341,10.5143,46.052,-0.1808,-0.0912,-0.2888,189.2969
19:25:45:245,0.3269,1.4156,11.2265,46.3955,-0.102,0.0723,-0.28,189.625
19:25:45:265,0.0815,1.4587,11.284,47.3014,0.0394,0.234,-0.2672,189.9688
19:25:45:287,-0.055,1.5437,10.8985,45.4348,0.1164,0.3347,-0.2475,190.2656
19:25:45:307,-0.4512,1.6107,10.4472,46.5473,0.0415,0.3789,-0.248,190.5312
19:25:45:324,-0.9719,1.4778,10.4233,47.2935,-0.1633,0.263,-0.2075,190.6406
19:25:45:344,-0.96,1.2492,10.5023,45.6708,-0.3941,0.0662,-0.1117,190.875
19:25:45:365,-0.4308,0.6004,11.363,45.7618,-0.7739,0.1125,0.0231,191.1719
19:25:45:389,-0.5721,0.2604,12.426,47.7669,-0.7449,0.3048,0.0577,191.2812
19:25:45:409,-0.6356,0.0712,12.517,44.7234,-0.4354,0.3136,0.0633,191.2812
19:25:45:425,-0.6631,0.1742,11.4408,47.4035,-0.0264,0.12,0.0814,191.2188
19:25:45:447,-0.5589,0.4579,9.6811,46.3891,0.1931,0.0076,0.1259,191.0781
19:25:45:465,-0.8594,0.6566,8.466,46.5754,0.1305,0.1032,0.2244,190.9531
19:25:45:487,-1.2102,0.6195,8.1093,46.7561,-0.1318,0.336,0.426,190.8438
19:25:45:535,-0.8463,0.2448,8.715,45.8011,-0.4272,0.4982,0.6545,190.7031
19:25:45:536,-0.268,-0.0629,9.2465,46.8077,-0.5209,0.3309,0.7286,190.4531
19:25:45:550,0.2563,0.0042,8.9341,47.0476,-0.379,-0.0893,0.6745,189.9219
19:25:45:563,0.5053,0.2568,7.7729,48.5331,-0.22,-0.4023,0.4862,189.125
19:25:45:583,0.1497,0.6039,7.3683,47.3532,-0.2104,-0.3618,0.4018,188.2344
19:25:45:606,-0.0873,0.8721,7.9381,48.4662,-0.1726,-0.1333,0.4191,187.4375
19:25:45:625,-0.0358,1.0469,8.0698,48.6404,0.0384,-0.0608,0.4476,186.9219
19:25:45:644,-0.0442,1.26,7.798,47.56,0.2195,0.0233,0.4657,186.5
19:25:45:664,-0.0741,1.4395,7.3898,46.9969,0.2799,0.042,0.5073,186.0312
19:25:45:684,0.0911,1.7137,7.1504,49.0448,0.2008,-0.0441,0.5227,185.5156
19:25:45:705,-0.0813,1.922,7.9465,49.2731,0.0248,0.0028,0.5371,185.0312
19:25:45:729,-0.0801,1.8872,9.1268,50.2988,-0.0437,0.0865,0.576,183.875
19:25:45:748,0.0253,1.7328,10.0833,49.472,0.0205,0.2169,0.5864,183.2812
19:25:45:771,0.3401,1.673,10.6854,49.1321,0.1902,0.2814,0.54,182.2656
19:25:45:788,0.6932,1.9124,10.4747,49.5219,0.4133,0.0833,0.3978,181.5781
19:25:45:807,0.8201,2.4391,9.9576,48.5303,0.4799,-0.035,0.2412,181.0469
19:25:45:828,0.8776,2.821,10.3407,47.7465,0.3883,0.0779,0.1459,180.7188
19:25:45:846,0.8788,2.7539,11.8562,49.1743,0.323,0.3253,0.0913,180.5156
19:25:45:872,0.9913,2.5349,13.1539,48.7961,0.4312,0.5173,0.0138,180.375
19:25:45:887,1.1469,2.4978,13.1156,50.4638,0.6248,0.4513,-0.1282,180.2812
19:25:45:905,1.1206,2.4295,12.2034,48.4635,0.6573,0.1919,-0.2754,180.2969
19:25:45:939,1.378,2.1434,11.5857,50.577,0.4698,-0.1383,-0.4065,180.5156
19:25:45:946,1.5061,1.8884,11.539,50.577,0.2591,-0.418,-0.5444,180.9219
19:25:45:964,1.2942,1.5137,11.8143,51.2181,0.143,-0.4236,-0.6509,181.5312
19:25:45:984,1.2918,1.0457,11.6527,50.5288,0.2061,-0.3162,-0.6824,182.3125
19:25:46:004,1.5121,0.8972,10.4676,50.3208,0.3659,-0.3309,-0.7253,183.0938
19:25:46:027,1.4462,1.0529,8.788,49.1196,0.3768,-0.3445,-0.7655,183.9688
19:25:46:047,1.1805,1.3102,7.6664,49.5353,0.13,-0.2214,-0.7356,184.9062
19:25:46:064,0.5544,1.3737,7.6759,50.386,-0.2735,0.1163,-0.6352,184.9062
19:25:46:083,-0.2968,0.8829,9.2717,50.1278,-0.5997,0.5855,-0.4488,185.8438
19:25:46:108,-0.4392,0.3346,10.9117,52.0672,-0.5936,0.8835,-0.2603,186.5938
19:25:46:125,-0.0406,0.07,11.1487,48.4391,-0.2775,0.679,-0.2408,187.1562
19:25:46:144,0.2755,0.3705,10.0043,49.8764,0.0431,0.2321,-0.3932,187.375
19:25:46:163,0.127,0.8673,8.3679,51.5865,0.1254,-0.1793,-0.5692,187.4688
19:25:46:184,-0.2225,1.2216,8.3834,48.6225,0.0589,-0.3066,-0.6339,187.75
19:25:46:205,-0.1579,1.4994,8.2852,49.7633,0.2139,-0.3836,-0.6225,188.3125
19:25:46:223,-0.2645,1.8872,7.3886,50.4252,0.429,-0.435,-0.6251,189.8125
19:25:46:243,-0.5733,2.384,7.0319,48.7497,0.4447,-0.2302,-0.5204,190.2031
19:25:46:263,-0.5865,2.6031,7.1337,50.2741,0.3827,-0.0363,-0.3362,191.0156
19:25:46:283,-0.3806,2.4966,7.4042,49.0566,0.3087,-0.0052,-0.1897,191.6562
19:25:46:305,-0.0011,2.3912,7.7561,49.2934,0.2144,-0.076,-0.1071,192.0781
19:25:46:324,0.3161,2.56,7.7083,50.4256,0.1052,-0.3021,-0.0975,192.3125
19:25:46:343,0.6322,2.7551,8.1105,50.9359,-0.0831,-0.4885,-0.1015,192.4688
19:25:46:364,0.9219,2.8282,8.8443,49.4279,-0.2461,-0.5218,-0.117,192.625
19:25:46:384,0.7543,2.7491,9.7792,48.8311,-0.3422,-0.3399,-0.1351,192.8125
19:25:46:406,0.5795,2.4463,10.9021,48.817,-0.3377,0.0295,-0.1063,193.0156
19:25:46:423,0.443,2.1338,11.7293,49.0773,-0.2208,0.3027,-0.1244,193.2031
19:25:46:443,0.2431,1.9722,11.9508,49.7662,-0.0762,0.4441,-0.182,193.25
19:25:46:463,-0.1591,2.1745,11.4923,49.9029,0.0274,0.4412,-0.252,193.3281
19:25:46:484,-0.7553,2.2799,10.0235,50.4538,-0.0392,0.3594,-0.2352,193.4375
19:25:46:507,-1.0665,1.8094,9.9456,49.994,-0.4778,0.4918,-0.0973,193.6094
19:25:46:524,-0.9456,0.5812,12.8031,49.7692,-0.8828,0.7216,0.0553,193.8438
19:25:46:543,-0.7744,-0.3346,15.1351,48.8032,-0.6477,0.5725,0.0202,193.9844
19:25:46:563,-0.8151,-0.3681,13.9858,50.3584,0.0698,0.1389,-0.1338,193.8438
19:25:46:584,-1.106,0.3454,10.2186,49.1228,0.6016,-0.3719,-0.231,193.6094
19:25:46:607,-1.185,0.9751,7.2558,46.9667,0.4514,-0.4915,-0.1468,193.5781
19:25:46:627,-1.2449,0.9571,7.2139,48.4245,-0.0479,-0.3295,0.0252,193.875
19:25:46:644,-1.1132,0.4471,8.6575,50.2732,-0.363,-0.2246,0.1595,194.3281
19:25:46:664,-0.8941,0.0784,9.632,47.3822,-0.367,-0.3357,0.1869,194.3438
19:25:46:683,-0.845,0.1586,9.2322,49.2208,-0.2746,-0.6124,0.1483,194.1562
19:25:46:707,-0.9288,0.5178,8.3774,50.6495,-0.3153,-0.8592,0.1387,193.9688
19:25:46:724,-0.5805,0.8422,8.0985,47.6151,-0.4272,-0.9224,0.217,193.8438
19:25:46:743,-0.1232,1.0062,8.0243,47.9749,-0.4844,-0.8124,0.2937,193.7812
19:25:46:763,0.8489,1.1438,8.4073,49.7909,-0.3593,-0.4491,0.2604,193.6094
19:25:46:784,0.8046,1.2683,8.4792,46.9399,-0.1902,-0.2536,0.144,193.3438
19:25:46:806,0.4682,1.4934,8.1967,47.108,-0.0088,-0.1335,0.0519,193.0312
19:25:46:828,0.5472,1.6311,7.5012,47.9228,0.1073,-0.104,0.0119,192.7812
19:25:46:844,0.2371,1.9627,7.312,48.4874,0.1201,-0.1192,-0.0248,192.6406
19:25:46:863,0.2288,2.1027,7.3156,45.8879,0.1004,-0.1178,0.0274,192.5938
19:25:46:883,0.4514,2.226,7.4808,48.1227,0.0914,-0.1439,0.0263,192.5938
19:25:46:908,0.5424,2.3709,7.9213,46.7573,0.0525,-0.1037,0.0303,192.625
19:25:46:923,0.4933,2.4176,8.8742,46.8812,0.0392,0.0071,0.0441,192.6094
19:25:46:942,0.4119,2.3589,9.8595,47.6375,0.1111,0.104,0.0625,192.6094
19:25:46:967,0.4993,2.2236,11.0087,46.8904,0.2375,0.1695,0.0617,192.5781
19:25:46:982,0.6166,2.2404,11.2924,47.0522,0.4187,0.0311,-0.011,192.5312
19:25:47:004,0.8105,2.4367,11.1499,45.5571,0.5065,-0.1916,-0.1223,192.4531
19:25:47:025,0.8788,2.7252,10.8961,46.1173,0.4666,-0.3809,-0.2144,192.375
19:25:47:043,1.3217,2.6785,11.5737,46.5909,0.3537,-0.2904,-0.1894,192.3906
19:25:47:063,2.3392,2.3302,12.4284,46.2569,0.3332,-0.0054,-0.1252,192.5625
19:25:47:084,3.0144,1.5293,12.5709,45.3328,0.3212,0.2175,-0.1127,193
19:25:47:107,3.2024,0.7344,13.4304,45.6802,0.1649,0.4409,-0.2451,193.2031
19:25:47:123,2.1417,0.0832,14.5724,44.2532,0.1318,0.4859,-0.4432,193.3125
19:25:47:143,1.2966,-0.2077,14.2277,45.7966,0.3366,0.3163,-0.5378,193.4531
19:25:47:163,1.0643,0.2688,11.9639,45.0074,0.5627,0.0343,-0.5934,193.7656
19:25:47:185,0.783,1.1881,9.2334,45.5891,0.538,-0.2693,-0.6062,194.2969
19:25:47:207,0.3808,1.728,7.9429,45.2803,0.2453,-0.3684,-0.4954,194.9219
19:25:47:227,0.3161,1.8765,7.9357,45.0926,-0.0772,-0.3165,-0.2888,195.6406
19:25:47:243,0.3832,1.6035,8.4145,43.6349,-0.3033,-0.1133,-0.0917,196.3594
19:25:47:267,0.4071,1.26,8.8072,44.557,-0.4059,0.0308,0.0316,196.8594
19:25:47:282,0.2695,1.0648,9.0526,45.3213,-0.4221,0.0851,0.1009,197.0938
19:25:47:303,-0.0262,1.0265,9.2465,44.949,-0.3483,0.0928,0.1707,197.1094
19:25:47:322,0.036,1.1139,8.964,42.8763,-0.1856,0.0103,0.2479,197.0156
19:25:47:342,0.546,1.2707,8.15,43.497,-0.0061,-0.1258,0.2719,196.8281
19:25:47:363,0.7327,1.4503,7.3862,45.3431,0.0921,-0.2148,0.2359,196.5938
19:25:47:384,0.8058,1.5724,7.1588,45.6638,0.1254,-0.2222,0.2266,196.2812
19:25:47:409,1.0847,1.5449,7.2964,42.1745,0.1531,-0.2193,0.222,196.0156
19:25:47:424,1.2583,1.6358,7.4796,43.8289,0.1747,-0.2435,0.1949,195.7969
19:25:47:444,1.4582,1.8238,7.4892,42.8493,0.159,-0.3053,0.1722,195.5781
19:25:47:464,1.6509,2.0453,7.6628,43.1548,0.0778,-0.3876,0.1509,195.5781
19:25:47:485,1.5803,2.1997,8.2242,43.7178,-0.0535,-0.3849,0.1443,195.375
19:25:47:508,1.5432,2.153,9.231,42.2228,-0.1366,-0.2979,0.177,195.0781
19:25:47:525,1.6737,1.9878,9.8642,42.0946,-0.1049,-0.1889,0.1911,194.9844
19:25:47:604,1.5384,1.9543,9.9971,41.7929,-0.037,-0.0805,0.164,194.8438
19:25:47:604,1.3014,1.9351,10.2078,41.3991,-0.0157,0.0473,0.1509,194.6719
19:25:47:604,1.281,1.8405,10.7345,42.0972,-0.0077,0.1661,0.148,194.5
19:25:47:605,1.4713,1.7292,11.3989,41.0634,0.033,0.3024,0.1131,194.3125
19:25:47:634,1.4199,1.7663,11.6216,41.4086,0.1449,0.3275,0.0079,194.1406
19:25:47:643,0.9267,1.7891,11.1571,43.2182,0.2506,0.323,-0.0941,193.9531
19:25:47:662,0.2348,1.8561,10.0211,42.7951,0.2298,0.3533,-0.1002,193.8281
19:25:47:682,-0.4763,1.6921,9.5362,40.2817,-0.0519,0.4976,0.0471,193.8281
19:25:47:705,-0.6284,1.0026,10.8279,40.3211,-0.4243,0.7379,0.3065,193.9062
19:25:47:723,-0.3842,0.1191,12.5864,43.2463,-0.5313,0.7458,0.4348,193.9062
19:25:47:743,-0.5278,-0.234,13.2999,43.0876,-0.2815,0.5173,0.4191,193.6094
19:25:47:762,-0.7672,0.1059,11.6228,41.5624,0.1127,0.1195,0.4026,193.0625
19:25:47:783,-0.7098,0.7081,8.7258,41.0031,0.1715,-0.1298,0.4692,192.4531
19:25:47:810,-0.8199,0.9954,7.2737,41.5172,-0.1891,-0.092,0.6141,191.9375
19:25:47:822,-0.6535,0.6841,8.0111,42.7984,-0.6221,0.0662,0.8181,191.4844
19:25:47:845,0.0348,0.1802,9.0825,41.1767,-0.775,0.0556,0.8961,190.9062
19:25:47:863,0.7004,0.1754,9.1149,40.8335,-0.6503,-0.096,0.8079,190.0625
19:25:47:882,0.7268,0.586,8.217,41.9891,-0.4304,-0.206,0.6436,189.0312
19:25:47:905,0.4335,1.0014,7.4221,42.7498,-0.3121,-0.1327,0.5597,188.0625
19:25:47:927,0.5125,1.1965,7.8339,39.5277,-0.2527,0.0548,0.5584,186.9062
19:25:47:943,0.6645,1.3629,8.0434,43.1494,-0.0384,0.0633,0.5211,186.2656
19:25:47:963,0.6693,1.6706,7.4126,40.813,0.1835,-0.0243,0.4604,185.6562
19:25:47:982,0.6573,2.0153,7.0043,40.813,0.232,-0.0177,0.4559,185.0469
19:25:48:008,0.6537,2.2488,7.2737,41.3487,0.1782,0.0271,0.4801,184.5312
19:25:48:026,0.6262,2.2763,7.9896,40.8459,0.1039,0.095,0.5352,184.0469
19:25:48:046,0.8153,2.22,8.8287,40.9796,0.0748,0.1285,0.5874,183.4844
19:25:48:066,1.202,2.153,9.4812,41.5367,0.0868,0.1184,0.5959,182.8594
19:25:48:082,1.4007,2.0584,10.0199,40.7305,0.1065,0.0481,0.5395,182.2188
19:25:48:102,1.4522,2.1279,10.4867,41.1349,0.1278,-0.0568,0.446,181.5156
19:25:48:122,1.6413,2.3038,11.017,41.1618,0.1774,-0.1551,0.3299,180.9062
19:25:48:143,1.9813,2.4918,11.46,40.9704,0.2607,-0.21,0.185,180.3906
19:25:48:162,1.9741,2.5947,12.6535,39.5421,0.4746,-0.0984,-0.1354,180.0625
19:25:48:184,2.1142,2.5265,12.833,41.256,0.6109,-0.0334,-0.2621,179.875
19:25:48:206,2.1705,2.6294,12.365,40.4531,0.6962,-0.0635,-0.4166,179.8906
19:25:48:225,2.0914,2.6845,11.7401,42.1734,0.612,-0.1815,-0.5189,180.0469
19:25:48:242,2.2519,2.2859,11.3774,42.1169,0.3691,-0.2992,-0.5276,180.3594
19:25:48:262,2.6014,1.5975,11.8059,41.6468,0.1212,-0.3186,-0.5327,180.8438
19:25:48:282,2.4027,1.1391,12.0645,40.6585,0.0727,-0.2739,-0.6078,181.4375
19:25:48:302,1.7323,0.9212,11.2529,40.9942,0.1742,-0.3319,-0.6083,182.0938
19:25:48:327,2.0112,1.0696,9.5446,40.8762,0.2096,-0.521,-0.5103,182.75
19:25:48:344,2.6493,1.1187,8.2649,40.759,0.0112,-0.5833,-0.4504,183.4844
19:25:48:362,2.9258,1.1079,8.3475,41.6314,-0.2876,-0.3956,-0.4454,184.2031
19:25:48:381,2.4554,0.9343,9.5099,40.7439,-0.4578,0.0193,-0.4643,184.875
19:25:48:402,1.7575,0.732,10.5765,43.2238,-0.3734,0.454,-0.4605,185.7812
19:25:48:427,1.3612,0.665,10.5909,41.7006,-0.1308,0.6503,-0.4504,186.3125
19:25:48:442,1.3253,0.9164,9.7062,41.742,0.1414,0.5626,-0.5122,186.8125
19:25:48:462,1.0368,1.3198,8.2924,41.497,0.3281,0.3136,-0.6379,187.2344
19:25:48:482,0.3748,1.7376,7.3467,42.061,0.388,0.0753,-0.721,187.6562
19:25:48:506,-0.0107,2.1087,7.2103,41.2305,0.4123,-0.0057,-0.6645,188.25
19:25:48:522,0.1497,2.3409,6.9146,41.8258,0.5031,-0.0949,-0.5511,189.0156
19:25:48:542,0.4981,2.4774,6.4262,40.7279,0.5593,-0.129,-0.4512,189.7812
19:25:48:562,0.9075,2.5373,6.1496,41.1725,0.5116,-0.1053,-0.3713,190.5
19:25:48:582,1.3217,2.7623,6.2274,40.0058,0.4011,-0.158,-0.3612,191.1094
19:25:48:602,1.2355,3.1837,6.7135,42.1099,0.2392,-0.2582,-0.3969,191.6094
19:25:48:628,0.9745,3.5883,7.6795,40.1145,0.0642,-0.3911,-0.3908,192.0156
19:25:48:648,0.5771,3.8074,8.6875,41.2195,-0.0421,-0.435,-0.3106,192.5
19:25:48:663,0.5232,3.8002,9.3878,40.8693,-0.073,-0.3301,-0.1737,193.0312
19:25:48:684,0.6166,3.6123,9.9911,40.6042,-0.0852,-0.1487,-0.0603,193.5
19:25:48:710,0.8429,3.392,10.7501,40.3768,-0.0661,0.0191,-0.0331,193.8594
19:25:48:727,0.8309,2.9886,11.2876,39.2117,-0.0093,0.0063,-0.0853,193.9531
19:25:48:743,0.9829,3.1705,11.7616,40.8433,0.1254,-0.1154,-0.069,194.0469
19:25:48:763,0.8357,3.1226,11.8873,41.2147,0.2317,-0.0267,-0.1154,194.0469
19:25:48:782,0.2347,3.0388,11.758,39.6246,0.2897,0.1608,-0.0965,194.1875
19:25:48:807,-0.1591,2.7228,11.1212,40.0327,0.2176,0.3131,0.0425,194.2812
19:25:48:823,-0.1747,2.1219,10.5059,41.6225,-0.0493,0.295,0.2098,194.4062
19:25:48:842,-0.1232,1.1223,11.7449,38.4857,-0.4306,0.3509,0.3667,194.4688
19:25:48:863,-0.1543,-0.0198,13.5741,40.1904,-0.4709,0.2968,0.4516,194.2656
19:25:48:882,0.1821,-0.6446,13.3334,39.8943,-0.0714,-0.0182,0.4455,193.875
19:25:48:903,0.5568,-0.167,10.713,40.1736,0.3987,-0.3642,0.3568,192.7656
19:25:48:925,0.7148,0.8541,7.5119,41.3862,0.4988,-0.456,0.3232,192.7656
19:25:48:942,0.6561,1.7328,5.5786,40.3754,0.1859,-0.2917,0.3946,192.3438
19:25:48:961,0.4837,1.9519,5.733,40.2349,-0.3361,0.108,0.5552,192.0781
19:25:48:981,0.2982,1.4647,7.409,40.4612,-0.7486,0.5256,0.7216,191.75
19:25:49:001,0.1486,0.9762,9.5817,41.8383,-0.8637,0.8079,0.8122,191.25
19:25:49:022,0.2934,0.7045,10.6184,39.4985,-0.621,0.818,0.826,190.4844
19:25:49:041,0.6525,0.8122,10.2066,40.7434,-0.2,0.5227,0.7379,189.4531
19:25:49:061,1.0835,1.0672,9.7733,39.6913,0.1726,0.3139,0.6207,188.3438
19:25:49:082,1.8867,1.4647,10.7046,39.6881,0.6048,0.6755,0.5219,187.3594
19:25:49:101,2.2674,1.9351,10.2581,41.697,1.2586,1.0713,0.3371,186.5312
19:25:49:122,1.7766,2.9491,7.707,40.4279,1.7489,1.119,0.0868,185.7969
19:25:49:142,0.5029,4.1007,4.8292,39.8441,1.6908,0.8833,-0.0416,185.1406
19:25:49:162,-0.1914,4.9518,3.4394,40.3145,1.0429,0.4928,0.0556,184.7656
19:25:49:181,-0.286,4.874,5.1261,41.1383,0.2554,0.0745,0.1925,184.625
19:25:49:202,-0.3399,4.4598,7.6927,39.613,-0.1523,-0.2012,0.2655,184.5156
19:25:49:222,-0.2082,4.0887,9.5709,40.6543,-0.1526,-0.2422,0.3065,184.2969
19:25:49:242,-0.0598,4.0887,9.9109,38.846,0.1041,-0.2702,0.286,184.0312
19:25:49:262,0.4478,4.3616,9.316,40.5047,0.2724,-0.2752,0.2473,183.7344
19:25:49:282,0.8824,4.643,8.9999,39.3092,0.2226,-0.301,0.1504,183.5
19:25:49:302,0.7962,4.8201,9.5099,40.7056,0.0607,-0.3098,0.0236,183.2969
19:25:49:327,0.5364,4.7567,10.5705,40.2459,-0.0506,-0.3085,-0.039,183.2031
19:25:49:346,0.8477,4.5963,11.1008,40.8025,-0.0136,-0.3881,-0.0608,183.2656
19:25:49:367,1.4366,4.5185,10.6842,41.4568,0.0144,-0.4371,-0.1095,183.375
19:25:49:381,1.8963,4.4047,10.2066,40.1095,-0.1467,-0.4747,-0.1833,183.5469
19:25:49:402,2.2997,4.0923,10.3383,40.8238,-0.4599,-0.5359,-0.2704,183.7812
19:25:49:422,2.3572,3.2639,11.7461,41.052,-0.7377,-0.4662,-0.3599,184.0938
19:25:49:443,2.1202,2.25,13.501,39.6583,-0.7137,-0.2379,-0.4363,184.5312
19:25:49:461,2.0555,1.5688,13.6411,41.2516,-0.3486,-0.0939,-0.522,185.0312
19:25:49:481,2.4123,1.6311,11.5054,41.0623,0.0815,-0.2014,-0.6424,185.5469
19:25:49:502,2.3093,2.1123,8.8228,44.3342,0.1848,-0.2869,-0.7498,186.1719
19:25:49:522,1.8484,2.469,7.6125,42.4151,-0.0575,-0.1165,-0.7364,186.9375
19:25:49:541,1.2595,2.335,8.2817,43.6908,-0.3545,0.1544,-0.6339,187.8281
19:25:49:563,0.643,1.8142,9.6918,42.9409,-0.2996,0.2897,-0.427,188.7031
19:25:49:582,0.631,1.9435,8.9568,43.1905,-0.159,0.1432,-0.4054,189.375
19:25:49:603,0.4814,2.1015,8.5666,44.1801,-0.1262,0.0031,-0.4035,189.8906
19:25:49:624,0.3976,2.1231,9.0263,41.8438,-0.0165,-0.0646,-0.3884,190.2812
19:25:49:680,0.4814,2.3757,8.3523,44.2817,0.2618,-0.1724,-0.4206,190.7188
19:25:49:681,0.4011,2.8222,7.4461,45.1827,0.4338,-0.1293,-0.439,191.3906
19:25:49:695,0.1378,3.2519,7.0546,42.9669,0.4855,0.0154,-0.411,191.8594
19:25:49:707,-0.0598,3.4854,7.0223,44.8856,0.5004,0.1277,-0.3244,192.4062
19:25:49:724,0.0899,3.5153,6.9373,46.0411,0.5228,0.0806,-0.2392,192.6719
19:25:49:741,0.3449,3.5536,6.6596,44.4089,0.4868,-0.0044,-0.1809,193.1406
19:25:49:761,0.625,3.6458,6.638,46.3942,0.3694,-0.0683,-0.1527,193.5
19:25:49:781,0.7303,3.8206,7.1767,45.7905,0.224,-0.0923,-0.1684,193.7812
19:25:49:802,0.5663,4.0695,8.4253,45.2363,0.1316,-0.0148,-0.1766,194.0156
19:25:49:824,0.3341,4.1282,9.5506,46.1262,0.1465,0.1538,-0.13,194.2188
19:25:49:842,0.2563,4.1043,11.0673,47.029,0.2357,0.4028,-0.0262,194.4375
19:25:49:862,0.4311,3.7894,11.9855,47.4739,0.4352,0.5943,0.0838,194.6562
19:25:49:882,1.032,3.6051,11.6395,46.4623,0.5872,0.5805,0.0607,194.7812
19:25:49:904,1.4761,3.6625,11.0865,46.3754,0.5665,0.4268,-0.1324,194.7188
19:25:49:927,1.056,3.7009,10.6232,47.3478,0.4591,0.1245,-0.3971,194.5
19:25:49:942,0.1534,3.7511,10.0606,48.6639,0.2839,-0.1357,-0.5796,194.3125
19:25:49:961,-0.5134,3.55,9.9564,48.926,0.082,-0.2065,-0.6089,194.3906
19:25:49:981,-0.6499,3.3226,9.7325,47.6069,-0.0828,-0.1665,-0.5473,194.8438
19:25:50:002,-0.8307,3.0293,9.6272,49.7602,-0.2778,0.022,-0.4541,195.5781
19:25:50:025,-1.2796,2.7061,10.1037,49.0324,-0.4815,0.2345,-0.3468,196.2969
19:25:50:043,-1.944,2.2547,11.2397,49.0324,-0.5452,0.3179,-0.2344,196.9688
19:25:50:061,-2.3845,2.0596,11.7137,49.019,-0.3502,0.2201,-0.0986,197.625
19:25:50:081,-2.2409,2.3062,10.3371,49.0254,-0.0562,0.0055,0.0423,197.8125
19:25:50:102,-2.0026,2.7204,8.308,51.0315,0.0256,-0.1037,0.1688,197.8906
19:25:50:127,-2.1128,2.8808,6.9996,51.7497,-0.1374,-0.0853,0.3251,197.875
19:25:50:142,-1.8781,2.8485,6.5854,50.5162,-0.3984,-0.0486,0.5259,197.7812
19:25:50:161,-1.3813,2.5804,6.8164,50.4363,-0.6107,-0.0547,0.6782,197.5312
19:25:50:182,-0.7768,2.2536,7.2498,50.9214,-0.6804,-0.1005,0.7374,197.0312
19:25:50:201,-0.4536,2.1662,7.2953,52.4242,-0.5822,-0.1338,0.7094,196.2969
19:25:50:226,-0.3506,2.2523,7.1169,50.9237,-0.4147,-0.0632,0.6825,195.4688
19:25:50:241,-0.213,2.4092,6.8272,51.572,-0.2197,0.1261,0.6748,194.6094
19:25:50:262,-0.1603,2.6618,6.2203,54.1483,-0.0972,0.262,0.6684,193.8125
19:25:50:281,-0.1244,2.8701,5.8719,53.6533,-0.1065,0.2335,0.666,193.0469
19:25:50:301,-0.0598,3.1203,5.8779,52.5687,-0.1984,0.1203,0.6719,192.2188
19:25:50:327,-0.1256,3.3453,6.0455,52.9943,-0.347,0.0074,0.6924,191.3906
19:25:50:344,-0.043,3.4818,6.7733,53.9519,-0.5462,-0.048,0.7525,190.6094
19:25:50:362,0.1917,3.4495,8.1236,53.2576,-0.6924,-0.0427,0.8101,189.8125
19:25:50:381,0.4323,3.3381,9.2908,53.4568,-0.7404,-0.104,0.8138,188.9688
19:25:50:404,0.613,3.2065,10.3706,53.3271,-0.7143,-0.1705,0.7738,188.0312
19:25:50:425,0.9638,3.2687,11.1152,53.3667,-0.6003,-0.2467,0.7027,187.1094
19:25:50:442,1.3277,3.4111,11.205,56.9339,-0.4589,-0.3623,0.5869,186.1875
19:25:50:460,1.5252,3.6099,11.3498,53.6676,-0.3854,-0.4534,0.4529,185.3438
19:25:50:481,1.5001,3.6601,12.0681,56.2708,-0.3286,-0.407,0.3613,184.6719
19:25:50:500,1.8197,3.5751,12.851,55.2761,-0.196,-0.222,0.2915,183.75
19:25:50:526,2.01,3.5931,13.0533,54.3814,0.0021,-0.1461,0.1552,183.5781
19:25:50:545,1.9095,3.7906,12.699,57.3856,0.1201,-0.2052,-0.0153,183.2969
19:25:50:563,1.7263,3.7475,12.5721,56.2925,0.1134,-0.316,-0.1103,183.1406
19:25:50:581,2.1645,3.7559,12.1782,55.9409,0.082,-0.4132,-0.1684,183.2031
19:25:50:600,2.4207,3.4614,12.0777,55.6947,0.0067,-0.3508,-0.2515,183.375
19:25:50:624,2.1369,2.8701,13.0545,57.7308,0.0202,-0.0243,-0.3271,183.6406
19:25:50:641,1.6342,2.1302,13.4256,56.14,0.3129,0.2412,-0.3937,183.9844
19:25:50:661,1.5013,1.9818,11.4552,57.0118,0.6994,0.2356,-0.4589,184.3594
19:25:50:681,1.5336,2.323,8.6947,56.7725,0.7018,0.0907,-0.4784,184.7656
19:25:50:701,1.2786,2.5636,8.0003,57.4554,0.3036,-0.0118,-0.4352,185.25
19:25:50:725,0.7232,2.0728,9.3806,55.8723,-0.0794,0.1006,-0.2733,185.7969
19:25:50:742,0.6394,1.3665,9.966,56.6674,-0.1563,0.3632,-0.0704,186.2812
19:25:50:763,0.7722,0.9738,9.0634,58.0915,-0.1294,0.5352,0.058,186.5625
19:25:50:782,1.1182,0.8458,8.2996,58.5227,-0.143,0.5714,0.1067,186.5625
19:25:50:801,1.433,1.0002,7.4185,55.9093,-0.1673,0.4484,0.042,186.4062
19:25:50:825,1.2798,1.2348,6.6895,58.2569,-0.2288,0.418,-0.052,186.1719
19:25:50:843,0.6873,1.236,8.3379,57.0401,-0.2397,0.7533,-0.0635,186.0312
19:25:50:861,0.1162,0.9643,9.7026,58.4773,0.1028,1.111,0.0029,186
19:25:50:882,0.2144,0.9403,9.1927,57.6071,0.5534,1.0087,0.025,185.9844
19:25:50:900,0.5412,1.2779,7.3862,56.5734,0.7401,0.6228,-0.0331,185.8281
19:25:50:924,0.2168,1.7352,6.1221,57.0605,0.5784,0.1144,-0.1162,185.6094
19:25:50:942,0.0049,2.0177,6.1736,59.3068,0.2852,-0.3146,-0.0941,185.5156
19:25:50:962,0.0971,2.3026,7.5478,57.9163,0.0011,-0.3325,-0.011,185.6719
19:25:50:985,0.2288,2.4068,8.1655,58.3349,0.0186,-0.1791,0.03,185.875
19:25:51:008,0.4275,2.5612,8.5738,58.0698,0.0394,-0.1335,-0.0096,186.0156
19:25:51:026,0.3257,2.6618,8.6109,58.1166,0.0176,-0.1583,-0.0973,186.1094
19:25:51:042,-0.0298,2.7683,8.5199,57.0409,-0.1132,-0.2403,-0.1671,186.1094
19:25:51:060,-0.1795,2.7144,9.0598,59.0383,-0.3044,-0.2827,-0.1838,186.1562
19:25:51:080,-0.0334,2.6594,10.0342,58.255,-0.4176,-0.2592,-0.2022,186.2969
19:25:51:101,0.1952,2.7025,11.0637,58.3343,-0.3832,-0.2435,-0.2589,186.5312
19:25:51:128,0.3844,2.6414,11.0889,59.4788,-0.265,-0.2105,-0.3535,186.7656
19:25:51:147,-0.2178,2.4439,10.3622,59.0639,-0.253,-0.0318,-0.4595,187.0156
19:25:51:163,-1.8039,1.8609,9.717,58.3939,-0.5156,0.1679,-0.4232,187.3438
19:25:51:181,-1.8398,1.2384,11.1583,59.6484,-0.8898,0.4223,-0.2238,187.7656
19:25:51:201,-1.3682,0.4651,13.1108,59.5579,-0.9321,0.4444,-0.1367,188.2812
19:25:51:226,-1.1036,0.4938,13.3466,56.9482,-0.6344,0.2119,-0.2062,188.6719
19:25:51:241,-1.9907,0.8685,12.1806,58.9055,-0.3017,0.0015,-0.2395,188.7969
19:25:51:261,-2.254,1.3198,10.2772,59.1834,-0.1534,-0.06,-0.0541,188.8125
19:25:51:280,-2.1164,1.4299,9.1951,59.5217,-0.2677,0.0114,0.197,188.9531
19:25:51:300,-1.9392,1.3222,8.9401,59.1621,-0.4682,0.0095,0.4013,189.2031
19:25:51:320,-1.5358,1.0696,9.0909,58.0779,-0.5992,-0.0986,0.5557,189.2656
19:25:51:342,-0.8738,0.835,9.1639,58.4687,-0.6131,-0.1895,0.637,189.0312
19:25:51:360,-0.4153,0.817,9.1639,57.7984,-0.5175,-0.2222,0.6442,188.5312
19:25:51:381,-0.0166,0.8733,8.7605,58.1623,-0.3499,-0.2273,0.6223,187.4844
19:25:51:401,0.4323,1.0277,7.9944,59.1833,-0.1995,-0.2433,0.5755,186.7656
19:25:51:420,0.8644,1.2695,7.4808,58.2194,-0.1036,-0.2552,0.49,186.0312
19:25:51:440,0.8513,1.5281,7.1887,59.1654,-0.0341,-0.2052,0.38,185.3594
19:25:51:460,0.5161,1.8298,7.2641,59.2491,0.0035,-0.1239,0.2921,184.7656
19:25:51:481,-0.0262,2.0321,7.5897,59.7418,0.0341,-0.0499,0.2825,184.3125
19:25:51:500,-0.3399,2.165,7.974,57.1232,0.0607,0.0074,0.3576,183.9688
19:25:51:524,-0.1962,2.2117,8.1141,58.5398,0.073,0.0095,0.4529,183.6562
19:25:51:542,0.0552,2.2799,8.4193,59.5295,0.0333,-0.0158,0.4974,183.3281
19:25:51:560,0.1893,2.2296,8.9113,58.5308,-0.0242,-0.0536,0.5011,182.8594
19:25:51:581,0.2946,2.1039,9.7349,57.8299,-0.0386,-0.109,0.4721,182.3125
19:25:51:602,0.5484,2.0812,10.7381,58.8742,0.065,-0.1405,0.413,181.7656
19:25:51:625,0.9578,2.3924,10.9524,57.3878,0.3057,-0.1636,0.2995,181.2188
19:25:51:643,1.1122,2.8401,10.2102,58.598,0.4823,-0.1394,0.1581,180.7188
19:25:51:661,1.0787,3.1514,10.2353,56.7556,0.4687,0.0092,0.0591,180.3281
19:25:51:745,0.9386,3.0365,11.3427,57.1878,0.4253,0.213,-0.0075,180.125
19:25:51:746,1.1254,2.7839,12.7289,55.867,0.5169,0.3368,-0.1018,180.0312
19:25:51:746,1.53,2.7659,12.863,56.347,0.7449,0.2609,-0.3026,180
19:25:51:746,1.5372,3.0077,11.5952,57.0979,0.8293,0.0332,-0.5492,180.0156
19:25:51:767,1.2954,2.9838,10.9715,57.018,0.6264,-0.1769,-0.6752,180.7188
19:25:51:780,1.7036,2.8988,10.9332,57.2688,0.3795,-0.4403,-0.7029,181.0938
19:25:51:803,2.2351,2.5492,10.9021,55.405,0.1787,-0.5591,-0.7415,181.875
19:25:51:824,2.1118,1.9519,11.1906,55.2794,0.0088,-0.4986,-0.8139,182.7812
19:25:51:847,1.536,1.4599,12.0537,57.3948,0.0088,-0.2326,-0.8145,183.7344
19:25:51:860,1.7706,1.0959,11.4408,56.4286,0.2431,-0.0108,-0.7583,184.7031
19:25:51:880,2.0927,1.1881,9.3626,55.5231,0.355,-0.0137,-0.8006,185.6875
19:25:51:902,1.7263,1.5389,8.1536,56.9421,0.1427,0.0055,-0.877,186.5625
19:25:51:925,0.9865,1.7256,8.5917,53.7322,-0.18,0.1118,-0.8504,187.5
19:25:51:941,0.6178,1.6167,9.231,55.8024,-0.3635,0.2308,-0.7633,187.9531
19:25:51:965,0.4622,1.4599,9.4859,55.8884,-0.4115,0.2923,-0.7005,188.9375
19:25:51:982,0.1605,1.3545,9.7529,56.1031,-0.3206,0.2574,-0.6912,189.8281
19:25:52:000,-0.2501,1.4551,9.2609,55.8715,-0.0932,0.0614,-0.7031,190.5781
19:25:52:024,-0.4416,1.7172,8.4672,55.571,0.1286,-0.1325,-0.6826,191.2656
19:25:52:042,-0.4452,1.9124,7.8184,57.3421,0.294,-0.2576,-0.6251,192.0156
19:25:52:063,-0.3794,2.1398,7.2929,56.7347,0.4269,-0.2662,-0.5766,192.8281
19:25:52:079,-0.7864,2.487,6.9577,56.3205,0.5127,-0.1578,-0.5165,193.5938
19:25:52:099,-0.9288,2.6881,6.9086,56.3205,0.5377,-0.0371,-0.3471,194.3438
19:25:52:121,-0.3064,2.6654,6.7494,55.6565,0.4916,-0.0395,-0.1705,195.0469
19:25:52:141,0.3401,2.6821,6.8679,53.8302,0.3574,-0.1615,-0.1069,195.5938
19:25:52:160,0.2659,2.8018,7.9034,54.6505,0.2378,-0.2118,-0.1428,195.9062
19:25:52:180,-0.6248,2.9778,9.1364,53.715,0.278,-0.1271,-0.1404,196.1094
19:25:52:200,-1.1575,3.0736,9.383,54.4363,0.3739,-0.0084,-0.0102,196.2969
19:25:52:220,-0.9767,2.9898,9.3471,55.1694,0.3478,0.1408,0.1272,196.6094
19:25:52:242,-0.699,2.8186,9.6128,55.8545,0.2181,0.247,0.1709,196.6406
19:25:52:261,-0.5182,2.7097,9.7996,53.8542,0.0762,0.1592,0.1299,196.5
19:25:52:281,-0.4273,2.7779,10.2772,54.458,-0.0466,0.0353,0.0535,196.2812
19:25:52:303,-0.5087,2.7863,10.0079,54.4946,-0.0921,-0.1242,-0.0035,196.0938
19:25:52:324,-0.5278,2.6725,9.6847,55.0055,-0.2213,-0.121,-0.0017,196.0312
19:25:52:341,-0.5613,2.4978,9.3519,53.6729,-0.4344,-0.0017,0.0561,196.0469
19:25:52:360,-0.1711,0.8302,9.9552,54.5242,-0.8085,0.1123,0.1736,196.0625
19:25:52:380,0.2072,-0.1538,13.6638,55.0082,-1.6387,0.201,0.2998,195.9688
19:25:52:400,0.3521,-0.4615,15.4319,53.3025,-1.1782,0.0673,0.1352,195.7031
19:25:52:424,-0.2681,0.2221,13.4148,53.3512,-0.3758,-0.1538,-0.0632,195.25
19:25:52:446,-1.2173,1.06,9.5614,54.009,-0.0154,-0.0488,-0.011,194.7656
19:25:52:460,-1.6579,1.2911,7.245,54.5519,-0.3033,0.246,0.2748,194.5156
19:25:52:479,-1.3873,0.744,7.5945,54.041,-0.8019,0.3536,0.5744,194.5781
19:25:52:499,-0.7541,0.1885,9.0825,54.0352,-1.0368,0.213,0.6961,194.5938
19:25:52:520,-0.3243,0.0616,9.6152,54.5084,-0.8975,-0.0036,0.6612,194.2344
19:25:52:541,-0.0406,0.3502,9.0741,53.9958,-0.5619,-0.2052,0.5653,193.5
19:25:52:559,0.0288,0.8074,7.731,53.1178,-0.2623,-0.2907,0.4809,192.5938
19:25:52:580,0.1509,1.2336,6.8595,53.4377,-0.1169,-0.2393,0.4689,191.7812
19:25:52:600,0.3976,1.4922,6.4166,54.0569,-0.037,-0.1602,0.4729,191.1406
19:25:52:622,0.552,1.6179,6.4154,52.9846,-0.0088,-0.0805,0.4756,190.6094
19:25:52:640,0.4766,1.7173,7.1085,53.6759,0.0099,0.022,0.4649,190.0781
19:25:52:660,0.2,1.8226,7.7262,53.883,0.0485,0.0686,0.4524,189.3125
19:25:52:680,0.0037,1.9351,8.2194,51.8592,0.0458,0.0707,0.4785,188.7812
19:25:52:699,0.1497,1.9339,8.7102,53.5368,-0.0184,0.0303,0.5251,188.25
19:25:52:719,0.5364,1.8106,9.3459,53.7775,-0.094,-0.1016,0.5278,187.7188
19:25:52:742,1.3289,1.6957,10.1455,51.8351,-0.1313,-0.2595,0.4561,187.1719
19:25:52:759,2.2698,1.922,10.6675,53.3285,-0.1023,-0.4531,0.2788,186.5625
19:25:52:780,2.7798,2.3445,11.2026,54.2881,-0.0714,-0.5674,0.0665,185.9844
19:25:52:799,2.8971,2.5468,11.7209,53.5504,-0.0477,-0.5357,-0.0861,185.6094
19:25:52:820,2.7427,2.4606,12.3877,52.7292,-0.0314,-0.386,-0.216,185.4688
19:25:52:842,2.2279,2.2476,13.1575,54.1368,-0.0008,-0.2992,-0.382,185.5312
19:25:52:863,1.451,2.3541,13.4316,53.7825,0.0578,-0.4049,-0.5271,185.7344
19:25:52:879,0.8764,2.4702,13.4627,53.7777,0.0612,-0.5255,-0.5471,186.1094
19:25:52:900,0.9494,2.2176,13.9092,52.6262,0.0482,-0.4928,-0.4842,186.6719
19:25:52:920,1.0967,1.74,14.1702,52.4667,0.1364,-0.4193,-0.4818,187.3594
19:25:52:942,0.88,1.0744,14.108,53.7592,0.319,-0.2683,-0.5237,187.9688
19:25:52:961,0.4442,0.4136,13.58,55.1179,0.6115,-0.0899,-0.5647,188.5625
19:25:52:981,0.4275,0.0808,11.6347,53.0942,0.922,-0.0821,-0.5561,189.1719
19:25:53:000,0.6346,0.1048,8.8467,54.4236,0.9739,-0.1916,-0.5117,189.7812
19:25:53:020,0.7686,0.2424,7.0678,53.2937,0.6605,-0.3096,-0.4344,190.4375
19:25:53:043,0.7483,0.252,7.3539,54.5592,0.2117,-0.2446,-0.3258,191.0781
19:25:53:065,0.6358,0.149,9.0502,55.1008,-0.0466,0.0833,-0.2001,191.6406
19:25:53:080,0.4957,-0.0928,9.9887,54.2254,0.0037,0.3719,-0.109,191.8906
19:25:53:100,0.6777,-0.0485,9.8487,53.9724,0.1529,0.4601,-0.0664,192.4375
19:25:53:120,0.8321,0.3118,8.9712,52.3441,0.2799,0.3464,-0.1135,192.5625
19:25:53:143,0.7088,0.7117,7.9309,54.4606,0.3369,0.2305,-0.1665,192.5938
19:25:53:161,0.2838,1.0241,7.2402,53.5393,0.3428,0.1482,-0.1844,192.625
19:25:53:179,-0.0562,1.1654,7.1289,53.3196,0.3689,0.1299,-0.1212,192.75
19:25:53:199,0.0384,1.2671,6.7051,53.0985,0.445,0.0896,-0.0427,192.9375
19:25:53:220,0.3784,1.2875,6.2717,53.5338,0.4719,0.0529,0.0002,193.1094
19:25:53:243,0.7411,1.4036,6.1317,53.4977,0.4549,0.0146,-0.0299,193.1875
19:25:53:261,0.7232,1.6741,6.3172,52.5014,0.4336,0.0175,-0.0986,193.2031
19:25:53:280,0.5687,2.0477,6.9265,53.4289,0.4408,0.0739,-0.1375,193.2188
19:25:53:299,0.376,2.5397,7.7118,53.6237,0.4663,0.2161,-0.1652,193.2969
19:25:53:319,0.0779,3.0436,8.0482,53.5667,0.4402,0.3434,-0.1468,193.4375
19:25:53:345,0.0504,3.4255,8.3403,53.5318,0.2778,0.4138,-0.0541,193.5938
19:25:53:361,0.2587,3.4913,8.8922,53.9021,0.0394,0.455,0.0505,193.7344
19:25:53:379,0.2323,3.368,9.8822,53.4744,-0.1896,0.5267,0.1419,193.8125
19:25:53:399,0.6501,3.0975,11.0015,51.9889,-0.3092,0.5653,0.2127,193.7344
19:25:53:419,0.9973,2.9371,11.7293,54.5757,-0.3057,0.4966,0.1504,193.5156
19:25:53:441,0.6849,3.0209,12.0489,53.9268,-0.2093,0.3674,0.0585,193.1875
19:25:53:459,0.5041,2.8282,11.017,54.3228,-0.1409,0.2233,0.075,192.8281
19:25:53:479,0.7256,2.3002,9.6452,55.265,-0.3417,0.1727,0.1422,192.6406
19:25:53:499,0.6573,1.2384,9.7816,53.4809,-0.8613,0.336,0.1901,192.5156
19:25:53:520,0.2132,0.0784,13.2712,54.7966,-1.2573,0.6127,0.1696,192.3438
19:25:53:544,-0.5374,-0.4675,16.1382,54.092,-0.8903,0.6657,0.0681,191.8906
19:25:53:562,-0.8391,0.1119,14.4479,52.8246,0.0357,0.1994,-0.0832,191.5156
19:25:53:579,-1.0306,1.3438,9.5781,53.124,0.5838,-0.0451,-0.1119,191.2656
19:25:53:602,-1.2173,2.3397,6.3208,53.0124,0.2778,0.0643,0.0537,191.3281
19:25:53:626,-1.5537,2.3888,6.7434,53.9855,-0.408,0.2351,0.3238,191.5156
19:25:53:643,-1.3263,1.5688,9.1747,54.1233,-0.848,0.2683,0.5696,191.4688
19:25:53:661,-0.5865,0.8565,10.6747,53.9516,-0.8565,0.1522,0.6668,191.0469
19:25:53:679,0.3317,0.7703,10.4927,53.4193,-0.5995,-0.0771,0.577,190.2812
19:25:53:700,0.3988,0.981,9.7038,52.9553,-0.3278,-0.182,0.3994,189.4219
19:25:53:720,0.2623,1.1319,8.7629,53.4939,-0.0863,-0.1974,0.3139,188.7188
19:25:53:745,0.5077,1.2779,7.7023,53.0444,0.0943,-0.1908,0.2628,188.2812
19:25:53:809,0.4263,1.7089,6.1604,55.4307,0.1827,-0.2009,0.1936,187.9375
19:25:53:809,0.4179,1.9926,6.1604,53.5603,0.1044,-0.305,0.1528,187.6719
19:25:53:809,0.5316,2.1913,6.4345,52.0857,0.0346,-0.3319,0.1845,187.5
19:25:53:825,0.8201,2.3876,6.9206,53.8038,-0.0242,-0.2872,0.2087,187.375
19:25:53:842,0.8812,2.5576,7.9932,52.2251,-0.0674,-0.1354,0.1983,187.25
19:25:53:859,0.7974,2.651,9.3591,53.5721,-0.0546,0.01,0.1611,187.0938
19:25:53:879,0.8094,2.6761,10.6172,52.6259,0.0157,0.0763,0.0929,186.8906
19:25:53:898,0.8548,2.7252,11.2421,54.017,0.1611,-0.056,-0.048,186.6875
19:25:53:919,0.8369,3.0113,11.0577,53.5447,0.3148,-0.2701,-0.2193,186.5
19:25:53:944,0.892,3.2603,10.5981,53.387,0.3601,-0.3698,-0.329,186.3906
19:25:53:960,1.2571,3.2268,11.0817,53.7387,0.3281,-0.313,-0.3953,186.5938
19:25:53:980,1.8305,2.9443,11.9663,53.9263,0.4024,-0.1958,-0.5066,186.9688
19:25:54:000,2.2495,2.6606,12.4141,53.5713,0.5728,-0.1269,-0.6989,187.4375
19:25:54:020,2.544,2.6318,11.5833,52.3901,0.6906,-0.2076,-0.9085,188
19:25:54:045,2.6924,2.6642,10.6088,50.9077,0.5366,-0.4158,-1.0568,188.7188
19:25:54:063,3.1473,2.4535,10.4879,52.5413,0.1883,-0.5306,-1.1026,189.6562
19:25:54:080,3.2646,1.8765,10.7704,52.2312,-0.1846,-0.464,-1.153,190.875
19:25:54:100,2.7295,1.151,11.8071,52.2286,-0.4831,-0.2046,-1.1913,192.2188
19:25:54:120,1.9514,0.3753,13.1622,51.3853,-0.502,0.1549,-1.1729,193.5312
19:25:54:141,1.7623,-0.0186,12.7014,51.4492,-0.1816,0.0494,-1.187,194.9219
19:25:54:159,1.8365,0.2735,10.0641,51.4492,0.1041,-0.4313,-1.2565,196.2656
19:25:54:179,2.4494,0.6937,7.5598,51.0552,-0.024,-0.7999,-1.2483,197.5469
19:25:54:199,3.0348,0.7476,7.2773,50.3811,-0.3894,-0.7956,-1.2411,198.9062
19:25:54:221,2.8265,0.4914,8.6935,50.3692,-0.6381,-0.5106,-1.2757,200.4531
19:25:54:245,2.2758,0.2089,10.4987,50.3802,-0.5763,-0.0784,-1.2741,202
19:25:54:260,2.1238,0.0257,11.0996,50.1966,-0.2687,0.2489,-1.2669,202.75
19:25:54:279,2.0065,0.0269,10.549,50.937,0.0266,0.2846,-1.3348,204.1875
19:25:54:299,1.6437,0.252,9.5458,51.0998,0.1699,0.0582,-1.4328,205.625
19:25:54:321,1.3397,0.5752,8.7246,50.2516,0.2035,-0.206,-1.4768,207.0312
19:25:54:345,1.2666,0.817,8.2673,51.0681,0.2288,-0.3112,-1.4592,208.4531
19:25:54:360,1.2595,1.0277,7.9357,50.1763,0.3097,-0.2438,-1.4041,210.0938
19:25:54:379,1.2475,1.2229,7.3958,49.0985,0.3846,-0.1237,-1.3447,211.8281
19:25:54:400,1.3468,1.3749,7.087,48.9129,0.3814,-0.0084,-1.2872,213.4688
19:25:54:419,1.3121,1.4898,7.1935,49.8656,0.3473,0.0854,-1.255,215.9219
19:25:54:442,1.05,1.5963,7.2785,48.3378,0.2932,0.1147,-1.2137,217.4688
19:25:54:459,0.9638,1.6837,7.5526,48.0522,0.2072,0.0606,-1.1543,218.8594
19:25:54:479,0.5711,1.6777,7.7944,48.3377,0.1004,-0.0488,-1.1117,220.2969
19:25:54:499,-0.0765,1.7005,8.4026,48.2999,-0.0559,-0.0944,-1.0257,221.6562
19:25:54:519,-0.4404,1.57,9.5195,48.3938,-0.175,0.0105,-0.856,222.9531
19:25:54:542,-0.2585,1.3378,10.7225,48.3878,-0.2008,0.1861,-0.6803,224.1406
19:25:54:561,0.0576,1.224,11.4576,45.5372,-0.1308,0.2236,-0.5969,225.2344
19:25:54:578,0.2048,1.345,11.1822,47.862,-0.057,0.0971,-0.5894,226.0781
19:25:54:598,0.2288,1.576,10.8195,46.556,-0.1137,-0.0393,-0.5753,226.7188
19:25:54:619,0.4502,1.807,10.5059,46.4438,-0.2445,-0.1346,-0.5524,227.3594
19:25:54:643,0.5891,1.8178,10.4053,48.209,-0.47,-0.0712,-0.5189,228.0156
19:25:54:660,0.5137,1.3737,11.6455,46.3886,-0.7832,0.1823,-0.4936,228.625
19:25:54:678,0.3748,0.5106,14.3965,47.7561,-0.8504,0.3235,-0.5042,229.2188
19:25:54:698,0.5843,-0.0629,15.2727,45.9277,-0.3984,0.1427,-0.6358,229.7344
19:25:54:719,0.5496,0.1909,12.7492,44.8325,0.2706,-0.3359,-0.9008,230.1719
19:25:54:741,0.1749,1.0517,9.2334,46.6385,0.604,-0.5202,-1.0336,230.6875
19:25:54:759,-0.1232,1.7089,7.1468,46.9184,0.5438,-0.3466,-0.9588,231.5625
19:25:54:781,-0.2836,1.7735,6.6596,47.6941,0.2394,0.0121,-0.7431,232.7969
19:25:54:799,-0.4859,1.5676,8.1799,45.5203,-0.1095,0.3115,-0.4792,234
19:25:54:819,-0.0514,0.5692,9.6104,45.3137,-0.2948,0.3885,-0.2267,235.4375
19:25:54:841,0.8812,0.0509,10.689,45.8805,-0.3172,0.0984,-0.2062,235.9531
19:25:54:863,1.3504,-0.0712,10.4364,44.5696,-0.1997,-0.3389,-0.3652,236.1406
19:25:54:878,1.3612,0.2532,9.4752,45.3259,-0.0498,-0.5948,-0.5615,236.3281
19:25:54:898,1.0081,0.6698,8.6743,45.7133,0.0996,-0.5477,-0.6693,236.75
19:25:54:919,0.8321,0.9451,7.8232,43.9563,0.237,-0.4121,-0.6973,237.3906
19:25:54:944,0.8537,1.1845,7.1372,46.0819,0.3001,-0.3237,-0.7055,238.2031
19:25:54:960,0.6932,1.3461,6.5542,46.1041,0.2738,-0.3152,-0.7239,239.0625
19:25:54:978,0.4275,1.6011,6.3663,44.4561,0.1417,-0.3288,-0.7117,239.9219
19:25:54:998,0.2383,1.7795,6.668,44.3306,-0.0565,-0.3293,-0.6382,240.7656
19:25:55:019,0.4814,1.7771,7.3635,43.7677,-0.2538,-0.3437,-0.5506,241.625
19:25:55:043,0.6717,1.7029,8.071,42.7917,-0.4333,-0.4291,-0.5215,242.375
19:25:55:059,0.6238,1.5137,8.964,44.1977,-0.636,-0.7285,-0.5354,242.9844
19:25:55:078,0.5568,1.2827,10.0558,44.9204,-0.8259,-1.3059,-0.5849,243.5781
19:25:55:099,0.8537,1.2372,10.9727,43.7417,-0.882,-1.7767,-0.6254,244.1875
19:25:55:119,1.366,1.2623,11.211,44.8115,-0.7188,-1.7948,-0.6339,244.8438
19:25:55:147,2.0256,1.4647,10.4951,43.9679,-0.4117,-1.6031,-0.676,245.5938
19:25:55:162,2.3189,1.74,9.5602,43.7014,-0.1193,-1.2475,-0.7284,246.375
19:25:55:180,2.7738,1.8729,8.6659,41.9147,0.0146,-0.8166,-0.7077,247.2031
19:25:55:199,3.0635,1.5125,9.7553,42.8468,-0.1241,-0.0358,-0.632,248.0312
19:25:55:221,3.5962,0.9846,10.847,43.7468,-0.1313,0.071,-0.6739,248.8594
19:25:55:245,4.178,0.4866,11.2397,42.9624,-0.1167,-0.0462,-0.783,250.0156
19:25:55:260,4.6054,-0.003,11.2493,42.6756,-0.1755,-0.259,-0.9348,250.7188
19:25:55:278,4.4809,-0.3406,11.2984,41.605,-0.2852,-0.373,-1.0488,251.5469
19:25:55:299,4.682,-0.6279,11.3307,41.0853,-0.3947,-0.2885,-1.0656,252.5312
19:25:55:318,4.9322,-0.9188,11.6563,42.8633,-0.4735,-0.0534,-1.1018,253.6406
19:25:55:344,4.5144,-1.2468,12.2788,42.3191,-0.4629,0.2106,-1.1846,254.2656
19:25:55:360,3.4705,-1.3976,12.5098,40.5846,-0.3076,0.3594,-1.2675,255.5
19:25:55:378,2.7151,-1.1774,11.7353,41.6435,-0.1039,0.2609,-1.2741,256.7812
19:25:55:398,2.4829,-0.6542,10.3251,42.1211,-0.0099,0.0928,-1.2238,258.0781
19:25:55:418,2.2303,-0.3166,9.7876,41.3364,-0.0951,0.0406,-1.1428,259.5469
19:25:55:441,1.7443,-0.1754,10.537,40.9459,-0.1659,0.1032,-1.0265,261
19:25:55:459,1.7156,-0.1467,11.0003,40.7415,-0.0413,0.1568,-0.8877,262.3281
19:25:55:478,2.18,0.0329,10.4448,40.6476,0.1758,0.0795,-0.8336,263.6406
19:25:55:498,2.3799,0.3322,9.3279,39.4042,0.3028,-0.0963,-0.8818,264.8281
19:25:55:518,2.2602,0.6734,8.6109,41.2873,0.3129,-0.2294,-0.9399,265.8438
19:25:55:542,2.0364,0.9343,8.3164,41.3926,0.3393,-0.2395,-0.9713,266.75
19:25:55:559,1.9514,1.1845,8.0123,40.9618,0.4541,-0.1407,-0.9849,267.75
19:25:55:578,1.7658,1.5125,7.2545,41.0791,0.5811,-0.0281,-0.9964,268.8125
19:25:55:598,1.6222,1.8765,6.6249,40.5566,0.6032,0.0585,-0.9599,269.875
19:25:55:619,1.6545,2.2045,6.4046,39.1631,0.5209,0.1027,-0.8989,271
19:25:55:642,1.6473,2.4092,6.82,40.4789,0.3941,0.104,-0.8347,272.125
19:25:55:659,1.7658,2.4283,7.6568,40.5203,0.3153,0.144,-0.7703,273.1562
19:25:55:678,1.7156,2.4798,8.551,39.3522,0.314,0.2561,-0.7346,274.6406
19:25:55:698,1.5013,2.4978,9.2597,38.7844,0.3627,0.393,-0.6949,275.5469
19:25:55:718,1.2164,2.5408,9.893,40.7824,0.4088,0.4585,-0.6392,276.3438
19:25:55:743,1.1984,2.5851,10.0917,36.7243,0.4693,0.3853,-0.5825,277.1406
19:25:55:761,1.1553,2.7384,9.7337,39.2811,0.486,0.2944,-0.5362,277.875
19:25:55:779,1.0679,2.7252,9.8044,38.7738,0.3936,0.3293,-0.4515,278.5469
19:25:55:798,1.1362,2.3146,11.3846,37.2835,0.2895,0.4271,-0.362,279.125
19:25:55:876,1.2176,1.5042,14.072,37.3539,0.4458,0.4758,-0.3439,279.6719
19:25:55:876,1.2475,1.0612,14.8178,36.901,0.9726,0.3602,-0.4347,279.6719
19:25:55:876,0.9075,1.4132,11.5162,37.37,1.3944,0.0361,-0.5753,280.4531
19:25:55:879,0.291,2.463,8.4636,36.7261,1.0757,-0.2289,-0.5969,280.8438
19:25:55:898,-0.0179,2.8545,8.2134,38.5614,0.4245,-0.2536,-0.391,281.4531
19:25:55:918,0.2108,2.4523,9.887,37.3372,-0.0951,-0.0622,-0.0874,282.1562
19:25:55:944,0.443,1.5221,11.5533,37.8543,-0.2487,0.2028,0.0958,282.8125
19:25:55:963,0.3748,0.8458,11.6994,36.42,-0.0836,0.3136,0.1278,283.1094
19:25:55:979,0.2036,0.9475,9.8403,36.3668,0.1742,0.0529,0.0399,283.0625
19:25:55:997,-0.3147,1.6406,7.3144,37.9369,0.1878,-0.3192,-0.0219,282.8906
19:25:56:018,-0.6906,2.2536,5.8312,37.0459,-0.1007,-0.4933,0.0937,282.75
19:25:56:047,-0.6954,2.3146,6.3986,36.243,-0.5065,-0.2574,0.3501,282.7812
19:25:56:066,-0.1603,1.7999,7.883,37.6835,-0.7223,0.1323,0.5805,282.8281
19:25:56:078,0.5891,1.3461,8.9425,36.3586,-0.7467,0.315,0.6287,282.6406
19:25:56:097,1.0727,1.2659,9.6619,36.6842,-0.6301,0.2335,0.4953,281.7031
19:25:56:117,0.9458,1.5365,9.444,34.8599,-0.4072,0.0201,0.2985,280.9688
19:25:56:138,0.7016,2.0644,8.3212,35.1839,-0.2011,-0.1261,0.1922,280.375
19:25:56:158,0.6047,2.4906,7.3647,35.1567,-0.1132,-0.112,0.1858,280.0156
19:25:56:183,0.5412,2.7599,7.1169,37.248,-0.082,-0.0363,0.218,279.8125
19:25:56:198,0.4598,2.9431,7.1372,37.248,-0.0325,0.0273,0.2766,279.6094
19:25:56:217,0.5568,3.1131,6.8846,36.7001,-0.0144,0.0287,0.3573,279.3594
19:25:56:238,0.7543,3.2771,6.8906,34.2892,-0.0804,0.01,0.4343,279.0469
19:25:56:258,0.9027,3.3321,7.5335,35.1589,-0.1814,0.0103,0.4956,278.6562
19:25:56:278,1.0464,3.2567,8.5821,33.5748,-0.2344,0.0609,0.547,278.1562
19:25:56:298,1.2523,3.0652,9.772,34.1544,-0.1894,0.1051,0.5728,277.5781
19:25:56:318,1.4319,2.9491,10.3096,35.6345,-0.0642,0.0529,0.5467,276.9844
19:25:56:343,1.694,3.0532,10.5143,36.3483,0.0466,-0.1146,0.4774,276.3125
19:25:56:362,2.046,3.3046,10.5394,33.6384,0.1108,-0.2776,0.3797,275.6875
19:25:56:378,2.2124,3.544,10.9069,34.8149,0.1201,-0.2614,0.2889,275.1719
19:25:56:398,2.1429,3.4746,11.7964,34.576,0.1364,-0.0893,0.2444,274.7656
19:25:56:420,2.2339,3.119,12.4631,33.968,0.2136,0.0489,0.2122,274.5938
19:25:56:442,2.429,2.9287,12.5625,33.574,0.2693,0.058,0.1565,274.3281
19:25:56:460,2.7151,2.9108,12.2728,34.2314,0.2186,-0.0094,0.1022,274.0625
19:25:56:479,3.2179,2.8282,11.9077,34.1527,0.0178,-0.1623,0.0519,273.8594
19:25:56:498,3.431,2.2547,12.7648,33.4093,-0.2298,-0.2046,-0.0195,273.7031
19:25:56:518,3.3915,1.1738,14.181,34.5995,-0.2557,-0.0515,-0.1018,273.625
19:25:56:542,3.504,0.3059,14.0948,34.1409,0.0328,0.0095,-0.2725,273.6562
19:25:56:561,3.5818,0.3969,11.8813,35.3811,0.4181,-0.1482,-0.5724,273.7812
19:25:56:578,2.3907,1.5568,7.6771,35.1399,0.2698,-0.1349,-0.8605,274.0781
19:25:56:598,1.7874,1.5425,8.2565,36.6313,0.0234,0.062,-0.831,274.7344
19:25:56:618,1.3373,1.3078,9.389,36.3624,-0.0136,0.2619,-0.7764,275.6562
19:25:56:637,1.196,1.1558,10.021,35.6877,0.147,0.3698,-0.7327,276.6562
19:25:56:664,1.0272,1.3078,9.5003,36.0093,0.3665,0.3059,-0.7567,277.5625
19:25:56:678,0.7914,1.5616,8.7617,35.2099,0.5095,0.1389,-0.7798,278.4219
19:25:56:698,0.7268,1.8513,7.9201,35.3982,0.6301,-0.0661,-0.7766,279.2188
19:25:56:717,0.8285,2.1985,6.9756,36.5944,0.7151,-0.2496,-0.7625,280.0156
19:25:56:738,0.7974,2.5792,6.1508,36.0046,0.7377,-0.3596,-0.7447,280.9062
19:25:56:760,0.6873,3.1083,5.9641,37.3709,0.7089,-0.3351,-0.6789,281.8125
19:25:56:778,0.7447,3.5201,6.0335,37.1362,0.681,-0.235,-0.5412,282.7344
19:25:56:804,1.2283,3.7475,6.0096,37.1856,0.6189,-0.1665,-0.3846,283.5938
19:25:56:817,1.603,3.8289,6.2861,36.6729,0.4828,-0.1418,-0.3015,284.4375
19:25:56:838,1.6629,3.9678,6.9888,37.992,0.3169,-0.1623,-0.2848,285.1094
19:25:56:866,1.2822,4.0971,8.1715,38.0834,0.1926,-0.1101,-0.2752,285.5469
19:25:56:880,0.8285,4.1162,9.2034,38.2622,0.1545,0.0558,-0.2145,285.9375
19:25:56:898,0.643,3.9546,10.0306,37.6167,0.1505,0.1972,-0.1191,286.2969
19:25:56:918,0.7938,3.641,10.701,38.5904,0.1497,0.2327,-0.0544,286.6094
19:25:56:942,0.9734,3.374,10.9751,39.1735,0.1441,0.165,-0.0773,286.8438
19:25:56:961,0.9039,3.2388,11.6383,40.3785,0.1236,0.0984,-0.1588,286.9688
19:25:56:978,0.7447,3.1334,12.1938,39.5349,0.2272,0.0769,-0.2398,286.9844
19:25:56:997,0.3844,3.0652,11.357,40.3614,0.3718,0.1501,-0.3181,287.1094
19:25:57:018,-0.116,3.2854,9.7134,39.9364,0.327,0.2582,-0.337,287.3281
19:25:57:038,-0.5781,3.3082,9.0203,41.1705,-0.0341,0.3669,-0.2334,287.6406
19:25:57:062,-0.681,2.6163,10.452,41.4639,-0.4392,0.4478,-0.0725,287.9688
19:25:57:084,-0.6188,1.667,11.8167,41.957,-0.4759,0.3621,-0.015,288.2656
19:25:57:098,-0.5542,1.5377,11.1858,41.3328,-0.1952,0.091,-0.089,288.3438
19:25:57:118,-1.027,2.2583,8.8132,41.8902,0.0503,-0.1458,-0.1396,288.2656
19:25:57:146,-1.5836,3.0353,6.2107,41.9563,-0.0463,-0.2185,0.0085,288.2656
19:25:57:159,-1.7692,3.3812,5.5714,41.767,-0.5196,-0.0646,0.3408,288.4219
19:25:57:177,-1.6351,2.8186,7.2605,42,-0.9705,0.2103,0.7075,288.5625
19:25:57:198,-1.0043,1.9459,9.0406,42.9687,-1.1193,0.3075,0.9483,288.3906
19:25:57:218,-0.1376,1.4623,9.6799,41.6816,-1.0328,0.2044,0.9965,287.7344
19:25:57:238,0.4406,1.4156,9.3674,42.8521,-0.8322,-0.0994,0.8719,286.6719
19:25:57:259,0.6226,1.7149,8.3403,43.9806,-0.6298,-0.3343,0.7289,285.5
19:25:57:278,0.7375,2.1231,7.4185,43.1363,-0.4874,-0.4339,0.6441,284.375
19:25:57:298,0.8177,2.4822,7.0211,45.7909,-0.3595,-0.362,0.5965,283.4688
19:25:57:318,0.8321,2.803,6.8451,43.6103,-0.2122,-0.1913,0.5762,282.75
19:25:57:343,0.8896,3.0748,6.9361,43.9137,-0.0914,0.0028,0.5704,281.7656
19:25:57:360,0.8034,3.3118,7.2438,45.6814,-0.0354,0.1562,0.5725,281.4531
19:25:57:380,0.7902,3.5009,7.7789,45.9968,-0.0575,0.1645,0.5802,280.8281
19:25:57:397,0.8501,3.5835,8.8311,46.0133,-0.0993,0.0588,0.5786,280.1719
19:25:57:417,0.892,3.6709,9.7361,46.1105,-0.0629,-0.0475,0.5645,279.4844
19:25:57:437,1.0715,3.7918,10.2677,46.3254,0.017,-0.0984,0.5424,278.8125
19:25:57:459,1.3241,3.8984,10.8375,47.2415,0.1111,-0.1165,0.5049,278.1875
19:25:57:478,1.6437,4.0037,10.9823,44.9832,0.2165,-0.161,0.4266,277.5625
19:25:57:499,1.797,4.0755,11.1894,48.1324,0.2799,-0.145,0.336,276.9688
19:25:57:517,1.8365,4.0253,11.4504,47.1235,0.3228,-0.0909,0.2532,276.4688
19:25:57:537,1.9861,3.9008,11.6994,46.4619,0.3633,-0.0291,0.1794,276.0625
19:25:57:558,2.1705,3.8649,11.6276,48.6468,0.3912,-0.0134,0.0966,275.7344
19:25:57:577,2.3285,3.9127,11.3905,46.7748,0.3425,-0.0302,0.0266,275.5
19:25:57:597,2.684,3.8744,11.3008,50.2456,0.2085,-0.0443,-0.015,275.3438
19:25:57:617,2.9007,3.5572,11.545,47.952,0.0469,-0.0659,-0.0773,275.2969
19:25:57:638,2.7127,2.888,12.5852,49.0809,-0.0514,0.0287,-0.1236,275.2812
19:25:57:657,2.9019,2.1757,13.3095,47.9933,0.0732,0.0761,-0.1726,275.3438
19:25:57:676,3.4585,1.8824,12.2034,48.4083,0.3422,-0.1197,-0.3335,275.4688
19:25:57:697,3.5028,2.1626,9.9313,49.551,0.4464,-0.3306,-0.533,275.625
19:25:57:717,3.2323,2.4726,8.4648,49.241,0.3036,-0.3293,-0.644,275.875
19:25:57:738,2.6373,2.4319,8.3367,49.1729,0.077,-0.1058,-0.6579,276.4219
19:25:57:761,2.0448,2.0848,8.8275,50.6509,-0.0607,0.1293,-0.6123,277.9531
19:25:57:777,1.5695,1.6682,8.958,49.8826,-0.0887,0.1536,-0.5958,278.2812
19:25:57:798,1.3852,1.4695,8.8407,49.7624,-0.0605,-0.0238,-0.6158,278.9688
19:25:57:818,1.2643,1.5808,8.205,48.5765,0.024,-0.2622,-0.6744,279.625
19:25:57:843,1.0117,1.892,7.3599,48.5234,0.1041,-0.4009,-0.726,280.3281
19:25:57:859,0.8046,2.2943,7.16,49.1251,0.1726,-0.3367,-0.717,281.1094
19:25:57:923,0.4921,2.5456,7.5287,50.6086,0.322,-0.1154,-0.6603,282
19:25:57:923,-0.043,2.8653,7.3132,51.8937,0.5665,0.1205,-0.5798,282.8594
19:25:57:923,-0.5386,3.4315,6.3136,50.2352,0.7582,0.2569,-0.4027,283.6094
19:25:57:957,-0.523,3.8265,5.2793,50.6857,0.7273,0.3405,-0.1069,284.25
19:25:57:957,0.3197,3.7643,4.9944,51.3983,0.4634,0.2753,0.1904,284.6719
19:25:57:977,1.2882,3.2064,7.9848,50.5734,-0.0852,-0.2513,0.3211,284.75
19:25:57:999,1.5779,3.2819,9.2681,51.4396,-0.0602,-0.2169,0.2918,284.4844
19:25:58:017,1.4594,3.4099,9.4405,50.4616,0.0208,-0.0291,0.2266,284.1406
19:25:58:037,1.2331,3.4638,9.4955,51.0878,-0.0125,0.222,0.1882,283.8125
19:25:58:060,0.9303,3.3513,9.8941,49.24,-0.0943,0.3696,0.1573,283.5312
19:25:58:080,0.8943,3.2962,10.1803,51.5981,-0.147,0.3285,0.1014,283.2812
19:25:58:097,1.0548,3.4255,10.9584,51.6282,-0.155,0.2854,-0.0035,283.0312
19:25:58:117,0.8812,3.6506,11.3319,51.2884,-0.0107,0.3224,-0.1346,282.7969
19:25:58:137,0.5257,3.9618,10.4616,50.8201,0.139,0.4905,-0.2027,282.6094
19:25:58:164,-0.0873,4.0755,9.5398,51.9598,0.0546,0.7288,-0.1543,282.5625
19:25:58:177,-0.4751,3.9068,9.3327,50.4055,-0.261,0.8329,-0.0041,282.6562
19:25:58:197,-0.4763,3.1514,10.2138,51.7207,-0.6765,0.8076,0.1904,282.8438
19:25:58:216,-0.2262,2.0285,12.2177,51.6558,-0.9374,0.6364,0.3001,282.7969
19:25:58:237,0.0205,1.327,13.7548,50.654,-0.7654,0.2681,0.2604,282.5312
19:25:58:259,0.0779,1.716,12.177,50.654,-0.2368,-0.1618,0.1025,282.0625
19:25:58:276,-0.1902,2.7456,8.7485,50.6637,0.025,-0.2297,0.086,281.5781
19:25:58:296,-0.4967,3.2208,6.6596,51.7895,-0.1835,0.0004,0.2577,281.3438
19:25:58:317,-0.6463,2.7755,6.984,51.7579,-0.6109,0.2888,0.5203,281.2969
19:25:58:336,-0.3231,1.9088,8.3643,51.246,-0.89,0.3083,0.6913,281.1406
19:25:58:362,0.0815,1.2839,9.5027,50.8695,-0.8903,0.0731,0.7091,280.6562
19:25:58:379,0.6717,1.1582,9.2573,52.1321,-0.6506,-0.2385,0.6292,279.8906
19:25:58:398,1.1194,1.3964,8.0506,50.9574,-0.3763,-0.407,0.4921,278.9844
19:25:58:416,1.2152,1.8537,6.6823,51.8769,-0.2091,-0.3708,0.3818,278.1719
19:25:58:438,1.3421,2.25,5.9473,50.6148,-0.1619,-0.2443,0.3363,277.5625
19:25:58:460,1.372,2.6019,5.6959,50.4879,-0.1776,-0.157,0.2892,277.1094
19:25:58:478,1.1074,2.9203,6.1652,48.9956,-0.2296,-0.0544,0.2607,276.9219
19:25:58:500,0.8668,3.1466,7.0989,50.2541,-0.2804,0.0723,0.3081,276.5469
19:25:58:516,0.8908,3.1574,8.217,50.473,-0.3076,0.1935,0.3752,276.25
19:25:58:536,0.8596,3.1059,9.2298,52.421,-0.3169,0.2337,0.3927,275.9531
19:25:58:558,0.6082,2.9682,10.3251,51.2232,-0.2943,0.1986,0.3824,275.5781
19:25:58:577,0.5771,2.8653,11.2373,52.3574,-0.2184,0.0918,0.3802,275.1094
19:25:58:596,0.953,2.8916,11.5473,50.8341,-0.0892,-0.1495,0.3352,274.6562
19:25:58:617,1.2714,3.0975,11.3702,50.7972,0.0133,-0.377,0.2239,274.1875
19:25:58:637,1.3959,3.2615,11.4887,52.4302,0.0453,-0.4044,0.1334,273.5312
19:25:58:659,1.4211,3.2448,12.2955,50.6566,0.1004,-0.2693,0.0809,273.25
19:25:58:678,1.6186,2.9634,12.8953,49.6459,0.2424,-0.1546,0.0399,273.0938
19:25:58:697,2.0316,2.8258,12.5517,51.6889,0.4269,-0.2425,-0.0579,273
19:25:58:717,2.5033,3.1298,11.1774,50.0039,0.4802,-0.4648,-0.207,272.9531
19:25:58:737,2.7738,3.4686,10.4029,49.4449,0.286,-0.4987,-0.3031,272.9844
19:25:58:760,2.9103,3.3393,10.8051,51.0073,-0.0021,-0.4108,-0.3303,273.1875
19:25:58:777,3.0312,2.6821,12.1651,51.6676,-0.1883,-0.226,-0.3572,273.5312
19:25:58:795,2.7546,1.8489,13.7129,49.4024,-0.0985,-0.0046,-0.4477,273.9375
19:25:58:816,2.4494,1.479,13.3394,50.3516,0.285,-0.0025,-0.5854,274.375
19:25:58:836,2.1992,1.9794,10.4628,48.7184,0.5601,-0.2409,-0.7319,274.8281
19:25:58:859,1.9741,2.4954,8.326,48.5972,0.3971,-0.3053,-0.7452,275.3906
19:25:58:876,1.8161,2.487,8.3679,48.9293,0.0764,-0.2076,-0.6818,276.1719
19:25:58:896,1.7287,1.9411,9.3267,48.4046,-0.0746,-0.0723,-0.628,277.0781
19:25:58:916,1.5312,1.5927,9.7385,49.0551,0.0003,0.0012,-0.6494,277.875
19:25:58:937,1.1362,1.5329,9.2381,49.9421,0.1558,-0.0022,-0.6978,278.6406
19:25:58:961,0.771,1.6071,8.4492,47.931,0.2711,-0.0917,-0.7266,279.3594
19:25:58:978,0.5041,1.7101,8.29,47.0915,0.383,-0.161,-0.7173,280.0938
19:25:58:996,0.3976,1.892,7.7202,49.4209,0.5902,-0.1916,-0.7031,280.9219
19:25:59:017,0.2874,2.2009,6.8176,48.4643,0.7438,-0.1397,-0.6738,282.6094
19:25:59:036,0.1988,2.572,6.1796,48.1896,0.8,-0.0704,-0.5862,282.9844
19:25:59:061,0.2802,2.8617,5.6169,48.7488,0.7614,-0.0752,-0.4565,283.7812
19:25:59:077,0.6178,3.1346,5.5451,48.2025,0.6168,-0.1375,-0.3314,284.4844
19:25:59:096,0.795,3.3896,6.243,48.1771,0.4565,-0.1514,-0.2523,285.0156
19:25:59:116,0.8094,3.4698,7.2091,48.6286,0.3771,-0.0867,-0.1822,285.4062
19:25:59:136,0.8477,3.4997,8.0566,49.7514,0.3539,0.0327,-0.1074,285.7188
19:25:59:159,1.0069,3.4363,8.8706,47.5835,0.3265,0.1086,-0.0435,285.9531
19:25:59:175,0.9865,3.5225,9.0634,47.4719,0.2921,0.1312,-0.0145,286.0625
19:25:59:196,0.8477,3.5859,9.2789,47.5018,0.1539,0.193,0.0332,286.0938
19:25:59:216,0.7244,3.3513,10.2808,46.8594,-0.0085,0.3328,0.1054,286.0938
19:25:59:237,0.8704,2.9981,10.962,46.6116,-0.073,0.3895,0.1315,286.0312
19:25:59:259,0.8836,2.8437,10.8064,47.6691,-0.0988,0.3264,0.0599,285.8438
19:25:59:279,0.2707,2.9862,10.1013,47.7867,-0.1835,0.3227,-0.0307,285.625
19:25:59:296,-0.4404,3.0748,9.1544,45.6178,-0.3915,0.4207,-0.0017,285.4844
19:25:59:317,-0.7589,2.8748,8.8874,47.4416,-0.7998,0.4905,0.1451,285.4531
19:25:59:336,-0.371,1.9591,10.4783,47.7442,-1.232,0.4977,0.2924,285.375
19:25:59:360,-0.1148,1.0098,13.1479,45.2791,-1.2789,0.4324,0.282,285.0938
19:25:59:379,-0.766,1.7388,11.2565,46.6244,-0.8195,0.2934,0.1435,284.6406
19:25:59:396,-1.6998,2.7156,8.2649,45.452,-0.1278,0.3842,0.1062,284.2031
19:25:59:416,-2.1762,2.8557,7.069,45.7742,-0.4336,0.45,0.3986,283.9531
19:25:59:436,-1.7908,2.2152,7.8124,46.1261,-0.8474,0.3014,0.7147,283.9062
19:25:59:460,-0.942,1.418,9.5638,46.5792,-1.0224,0.0337,0.8671,283.5156
19:25:59:478,-0.3866,1.1199,10.2329,45.9755,-0.8123,-0.1532,0.853,282.7656
19:25:59:495,-0.0861,1.2516,9.1496,47.8381,-0.4605,-0.2038,0.7869,281.8125
19:25:59:515,-0.0777,1.5736,7.6568,46.707,-0.2149,-0.1386,0.7334,281.2656
19:25:59:536,-0.1495,1.8058,6.905,46.5002,-0.1302,-0.0438,0.7366,280.2656
19:25:59:559,-0.0837,1.9986,6.5123,43.7846,-0.0724,-0.0789,0.7462,279.3594
19:25:59:580,0.0229,2.2452,6.2286,45.2262,-0.0485,-0.1551,0.7643,278.5625
19:25:59:596,0.1641,2.4822,6.2885,45.3874,-0.061,-0.1618,0.805,277.7188
19:25:59:616,0.3114,2.6163,6.6883,45.9464,-0.0778,-0.0616,0.8657,276.8594
19:25:59:636,0.5244,2.6833,7.1528,45.2581,-0.1089,0.0233,0.9243,276.0469
19:25:59:660,0.7962,2.8258,7.9548,46.1653,-0.1779,0.0713,0.9525,275.125
19:25:59:679,0.8692,2.8677,9.0646,46.8521,-0.2517,0.0691,0.9563,274.1406
19:25:59:697,1.2319,2.8461,10.1324,44.9091,-0.286,0.0239,0.9555,273.0781
19:25:59:717,1.7778,2.8174,10.7046,45.2245,-0.273,-0.1743,0.8806,272.0312
19:25:59:736,2.3345,2.8796,11.2361,45.4934,-0.2511,-0.3775,0.7342,270.9219
19:25:59:756,2.7223,2.9491,12.0011,45.6781,-0.1758,-0.4555,0.5603,269.8125
19:25:59:776,2.9151,3.0544,12.6355,45.2851,-0.0213,-0.3916,0.4023,268.8594
19:25:59:797,3.0491,3.1609,12.5062,45.3358,0.151,-0.3295,0.2689,268.0469
19:25:59:816,3.1162,3.3094,11.6539,45.1427,0.1598,-0.3106,0.1698,267.4375
19:25:59:836,3.1305,3.3046,11.539,44.4991,-0.073,-0.2757,0.1283,267
19:25:59:859,3.1904,2.7491,12.8402,44.0534,-0.351,-0.2555,0.1254,266.7344
19:25:59:878,3.5148,1.716,14.5066,44.0005,-0.371,-0.305,0.091,266.5
19:25:59:896,4.2151,0.999,14.3845,43.1965,-0.053,-0.4683,-0.0794,266.3906
19:25:59:916,4.2079,1.0756,12.2896,43.4867,0.3081,-0.6041,-0.3846,266.2812
19:25:59:979,3.7961,1.5532,10.106,43.5067,0.4211,-0.5237,-0.5878,266.2656
19:25:59:979,3.4214,1.7711,9.2262,42.9653,0.3348,-0.263,-0.6651,266.2656
19:25:59:980,2.8193,1.6287,9.705,42.0611,0.2162,0.0731,-0.6824,267.1562
19:25:59:997,2.1693,1.2588,10.525,43.0502,0.1909,0.2979,-0.6861,267.9219
19:26:00:015,1.627,0.9535,10.9608,42.1251,0.2525,0.3983,-0.6842,268.7031
19:26:00:036,1.293,0.7979,10.5155,43.2619,0.3422,0.3211,-0.6914,269.4219
19:26:00:056,1.0943,0.8338,9.6416,43.877,0.3918,0.1142,-0.7186,270.1719
19:26:00:082,0.7878,0.999,8.8958,42.4444,0.4522,-0.0781,-0.7434,270.9219
19:26:00:097,0.6394,1.3042,7.7789,43.2266,0.5353,-0.2254,-0.7308,271.7031
19:26:00:117,0.5999,1.6346,7.2402,42.1626,0.576,-0.2081,-0.6741,273.3594
19:26:00:135,0.6825,1.8441,6.9696,40.4877,0.6386,-0.0989,-0.5969,273.3594
19:26:00:161,0.7998,2.2128,6.4022,40.4441,0.6972,-0.0169,-0.5175,274.9062
19:26:00:175,1.0943,2.5432,6.1017,42.0872,0.6557,-0.0148,-0.4499,274.9062
19:26:00:195,1.2822,2.7671,6.4321,42.014,0.5601,-0.0608,-0.4198,276.0938
19:26:00:215,0.9961,2.9778,6.8799,43.105,0.452,-0.0685,-0.3886,276.0938
19:26:00:235,0.7016,3.0065,7.7992,42.7525,0.3396,0.0082,-0.2994,276.5625
19:26:00:256,0.6717,2.906,8.5917,41.11,0.3039,0.0316,-0.2121,277.0469
19:26:00:289,0.6442,2.9574,8.7653,42.0284,0.3188,-0.0408,-0.183,277.7344
19:26:00:295,0.5975,3.1729,8.4205,42.0284,0.2911,-0.1255,-0.1495,277.8281
19:26:00:316,0.6621,3.313,8.4373,41.1764,0.1494,-0.0861,-0.0712,278.0469
19:26:00:336,0.9051,3.2448,9.3231,41.9153,-0.0011,0.0537,0.0197,278.25
19:26:00:359,1.0727,3.0305,10.2653,43.102,-0.0562,0.2076,0.0585,278.3281
19:26:00:380,1.0081,2.8377,10.2688,40.7944,-0.0309,0.3371,0.0417,278.3125
19:26:00:396,0.5197,2.7025,9.8163,42.0748,-0.0714,0.4204,-0.0033,278.2031
19:26:00:415,-0.1304,2.4247,9.5003,41.394,-0.2344,0.4138,0.0093,278.1094
19:26:00:436,-0.2908,2.1219,9.3854,41.8666,-0.47,0.328,0.1014,278.0312
19:26:00:456,0.1258,1.6993,9.9037,42.1052,-0.7145,0.3008,0.2042,277.9531
19:26:00:477,0.3449,1.1774,11.1619,40.1274,-0.8349,0.3458,0.2439,277.7812
19:26:00:495,0.3557,0.8745,12.0621,42.3872,-0.7047,0.3022,0.2087,277.5
19:26:00:515,0.115,1.1223,11.6443,41.3518,-0.4091,0.2343,0.1392,277.1406
19:26:00:535,-0.4608,1.6634,10.136,42.1622,-0.1872,0.2721,0.1445,276.8438
19:26:00:556,-1.2329,2.1446,8.4277,41.7075,-0.1965,0.3696,0.2804,276.6406
19:26:00:576,-1.6423,2.2739,7.5179,42.1597,-0.4948,0.4169,0.5563,276.4531
19:26:00:595,-1.0976,1.7651,8.1512,40.0558,-0.8818,0.2737,0.8412,276.0781
19:26:00:621,-0.1531,1.1594,9.608,40.9447,-1.0312,0.014,0.9747,275.7656
19:26:00:635,0.7184,0.9798,9.9696,40.904,-0.8338,-0.1958,0.9494,274.8906
19:26:00:656,1.2283,1.2444,8.8084,42.6966,-0.5017,-0.2262,0.8351,273.8125
19:26:00:688,0.9973,1.6682,7.2677,43.9478,-0.2916,-0.1018,0.7278,272.6719
19:26:00:696,0.6226,1.9591,6.65,41.7897,-0.282,0.0313,0.7185,271.6406
19:26:00:718,0.6465,1.9579,7.1564,41.2306,-0.29,0.0252,0.7408,270.8125
19:26:00:736,0.6741,2.1398,7.2486,41.2203,-0.1931,-0.0773,0.7094,269.9844
19:26:00:766,0.6059,2.4164,7.2474,40.639,-0.1143,-0.1117,0.6987,268.7031
19:26:00:779,0.9446,2.8258,7.7238,42.3238,-0.0858,-0.0917,0.7302,267.9375
19:26:00:797,1.22,2.8748,8.6659,42.7072,-0.1662,0.0707,0.793,267.1406
19:26:00:816,1.4857,2.748,9.954,42.6933,-0.1688,0.1533,0.7778,266.3125
19:26:00:836,1.9382,2.6223,11.0661,41.986,-0.0908,0.1395,0.6996,265.4531
19:26:00:862,2.3572,2.6809,11.6311,40.0131,0.0109,0.0145,0.5512,264.5469
19:26:00:880,2.6361,2.8329,12.1495,41.037,0.0898,-0.121,0.3725,263.6406
19:26:00:899,2.8396,2.906,12.4991,42.8063,0.1819,-0.1644,0.193,262.8281
19:26:00:914,2.6804,2.9024,12.7708,41.1495,0.2727,-0.0725,0.0404,262.2344
19:26:00:934,2.5416,2.8725,12.6774,41.4043,0.3452,0.013,-0.0448,261.8125
19:26:00:955,2.8085,2.8653,12.2704,42.3474,0.3244,-0.0286,-0.1101,261.5938
19:26:00:976,2.8983,2.7408,12.0789,43.607,0.1923,-0.1721,-0.1953,261.5781
19:26:00:995,3.1174,2.4415,12.2333,42.35,0.0397,-0.2813,-0.26,261.625
19:26:01:015,3.279,1.819,12.8725,42.2177,-0.0021,-0.206,-0.3457,261.7656
19:26:01:035,3.261,1.3318,12.8306,42.4493,0.1824,-0.0795,-0.4728,261.9844
19:26:01:056,3.0515,1.3725,11.0925,42.4795,0.4349,-0.0779,-0.6352,262.3125
19:26:01:079,2.8444,1.904,8.8419,41.8955,0.4232,-0.0765,-0.7255,262.7188
19:26:01:095,2.544,2.1674,8.156,42.3074,0.1318,0.0526,-0.7031,263.2656
19:26:01:116,2.0986,1.8597,9.1017,41.4059,-0.1763,0.2798,-0.6158,263.9688
19:26:01:137,1.7814,1.2911,10.7273,42.2923,-0.3052,0.4724,-0.5178,264.8125
19:26:01:164,1.7395,0.7296,11.6132,43.2783,-0.1843,0.4761,-0.5151,265.6094
19:26:01:179,1.6377,0.5728,11.1451,41.8628,0.1127,0.3056,-0.636,266.5312
19:26:01:195,1.0703,0.8422,9.6368,41.556,0.4141,0.1554,-0.7804,267.0625
19:26:01:215,0.5735,1.3605,7.9249,43.5157,0.5883,0.0777,-0.8232,267.6719
19:26:01:235,0.2395,1.6813,6.8775,43.6796,0.6634,0.1086,-0.8041,268.4375
19:26:01:256,-0.0502,1.8717,6.413,41.5602,0.674,0.1099,-0.6789,269.375
19:26:01:278,0.0121,1.8848,6.4166,44.3813,0.7305,0.0934,-0.5481,270.3281
19:26:01:297,0.4957,1.9878,6.079,43.4016,0.8123,0.0486,-0.4416,271.1719
19:26:01:316,0.9997,2.159,5.4278,43.313,0.7934,-0.0539,-0.3974,271.8906
19:26:01:338,1.269,2.4918,5.5499,45.1591,0.6264,-0.0614,-0.3945,272.4688
19:26:01:364,0.9793,2.6654,6.7542,44.6973,0.4149,0.0383,-0.3748,272.9844
19:26:01:382,0.8022,2.7276,8.241,46.2992,0.294,0.063,-0.3218,273.4531
19:26:01:397,0.7411,2.8473,8.9245,44.7948,0.2293,0.034,-0.2808,273.9375
19:26:01:415,0.4921,2.912,9.4836,43.6681,0.1076,0.0449,-0.2278,274.3438
19:26:01:436,0.3437,2.809,10.0773,43.8878,-0.0378,-0.0054,-0.1655,274.6719
19:26:01:456,0.4335,2.7156,10.8064,44.7006,-0.1294,-0.0211,-0.1109,274.9688
19:26:01:481,0.552,2.6534,10.9943,46.3204,-0.1342,0.0225,-0.0989,275.1875
19:26:01:498,0.2731,2.6354,10.7968,47.0132,-0.1449,0.1424,-0.1183,275.4375
19:26:01:515,-0.3554,2.5241,10.3299,46.87,-0.2352,0.2601,-0.1218,275.4375
19:26:01:534,-0.7433,2.1542,9.9624,46.2937,-0.4477,0.291,-0.0555,275.5469
19:26:01:555,-0.4464,1.5401,10.2401,45.6341,-0.7278,0.2153,0.021,275.6406
19:26:01:578,-0.0633,0.9068,11.3498,45.5702,-0.8786,0.1293,-0.0065,275.6875
19:26:01:594,-0.0466,0.7033,11.9951,46.2168,-0.7225,0.0524,-0.1226,275.5625
19:26:01:614,-0.3506,1.0421,10.9632,45.7527,-0.3867,0.0484,-0.2539,275.5
19:26:01:634,-0.9049,1.7639,8.9305,46.6882,-0.1734,0.149,-0.2938,275.5781
19:26:01:655,-1.8231,2.3852,7.1193,46.9894,-0.2826,0.2846,-0.1833,275.8438
19:26:01:677,-2.4109,2.4044,7.0163,48.1119,-0.6967,0.3909,0.1169,276.1562
19:26:01:695,-1.8147,1.5856,8.8,46.4492,-1.094,0.401,0.4516,276.2969
19:26:01:715,-0.9169,0.8362,10.4987,49.0698,-1.1638,0.177,0.5765,276.0625
19:26:01:735,0.0013,0.6423,10.8327,49.6125,-0.9401,-0.113,0.5475,275.4219
19:26:01:755,0.5113,0.8338,9.8989,45.9857,-0.6312,-0.2536,0.4391,275.0469
19:26:01:777,0.5256,1.224,8.8371,46.5262,-0.4104,-0.2291,0.3581,274.3281
19:26:01:795,0.4778,1.4934,8.3978,46.3163,-0.2605,-0.1431,0.3278,273.7031
19:26:01:815,0.3245,1.746,7.9417,46.6351,-0.0985,-0.1892,0.287,273.2344
19:26:01:834,0.218,2.062,7.6616,46.624,0.0389,-0.2576,0.2774,272.8594
19:26:01:855,0.279,2.3038,7.5239,47.9485,0.1526,-0.2563,0.3147,272.5
19:26:01:877,0.4682,2.6079,6.8044,48.3252,0.1883,-0.2896,0.331,272.1875
19:26:01:896,0.3748,2.9203,6.8691,48.7539,0.0511,-0.2241,0.3605,271.875
19:26:01:919,0.3413,2.9347,8.1811,46.0058,-0.1049,-0.0385,0.4489,271.5469
19:26:01:937,0.6118,2.712,9.5961,47.6735,-0.119,0.0122,0.4892,271.1875
19:26:01:961,0.7112,2.5756,10.476,49.0499,-0.013,-0.1317,0.4087,270.7188
19:26:01:976,0.5987,2.7048,10.5909,49.0933,0.0943,-0.2403,0.3137,270.1875
19:26:02:036,0.6908,2.9598,10.385,47.7544,0.1092,-0.2584,0.2487,269.6562
19:26:02:036,0.6717,2.9622,11.1918,49.0462,0.0197,-0.1143,0.2101,269.2656
19:26:02:036,0.4825,2.6306,13.0234,47.2832,0.0341,0.0385,0.1696,268.9844
19:26:02:055,0.1366,2.3649,14.2085,49.697,0.2698,0.0678,0.1232,268.625
19:26:02:077,0.1462,2.475,13.003,47.9136,0.5499,-0.0427,0.1099,268.4375
19:26:02:100,0.6238,2.7839,10.9153,49.6155,0.5025,-0.1423,0.1315,268.3125
19:26:02:116,1.1015,2.7013,10.689,48.1377,0.1638,-0.2201,0.177,268.2031
19:26:02:135,1.7144,2.0105,11.958,48.8189,-0.0993,-0.2337,0.2138,268.0938
19:26:02:156,2.4039,1.1594,13.0126,48.999,-0.0914,-0.2022,0.1826,267.9219
19:26:02:177,3.5591,0.659,11.1152,49.8044,0.2767,-0.2472,-0.211,267.7031
19:26:02:200,3.3831,0.9367,9.7182,47.8358,0.2272,-0.17,-0.4296,267.5
19:26:02:218,2.6768,0.9679,9.6978,49.333,0.0256,0.0654,-0.538,267.4844
19:26:02:235,1.8676,0.5884,11.0458,49.6204,-0.1177,0.3831,-0.5242,267.75
19:26:02:254,1.5264,0.0712,12.092,49.6961,-0.057,0.4702,-0.5034,268.25
19:26:02:278,1.4031,-0.2221,11.6503,48.9886,0.1414,0.2007,-0.5684,268.875
19:26:02:295,1.1864,0.0928,10.2473,49.058,0.3236,-0.2377,-0.6989,269.4062
19:26:02:317,1.0512,0.5285,8.6156,50.2071,0.4511,-0.5093,-0.7663,269.9375
19:26:02:335,1.0452,0.9727,7.3491,49.0998,0.5475,-0.5977,-0.7849,270.5781
19:26:02:354,0.9698,1.2504,6.316,49.0998,0.6322,-0.5029,-0.7711,271.4219
19:26:02:378,0.7531,1.4934,5.9916,48.3284,0.6834,-0.3061,-0.7247,272.3125
19:26:02:396,0.455,1.7747,5.6277,49.1483,0.7153,-0.1029,-0.6494,273.2812
19:26:02:414,0.4514,2.1961,5.1788,50.2884,0.6565,-0.0294,-0.521,274.25
19:26:02:435,0.5257,2.5301,5.0746,49.8285,0.4685,-0.0963,-0.4123,275.0781
19:26:02:454,0.6394,2.8318,5.5942,50.4044,0.2096,-0.2334,-0.3188,275.8594
19:26:02:479,0.789,2.9658,7.0355,50.2675,-0.0144,-0.3069,-0.2493,276.4844
19:26:02:495,0.6813,3.1035,8.3224,49.7815,-0.0834,-0.3005,-0.2099,277.1562
19:26:02:514,0.5556,3.1801,9.3363,49.4949,-0.0671,-0.1572,-0.1433,277.5156
19:26:02:534,0.5077,3.1598,10.1156,48.4267,-0.0208,0.0686,-0.0573,277.8281
19:26:02:553,0.479,3.0951,10.3778,48.5813,0.0069,0.1581,0.0148,278.0469
19:26:02:575,0.6478,2.912,10.6519,52.1505,-0.0426,0.0622,0.0604,278.1719
19:26:02:594,0.9231,2.8042,11.2493,51.6477,-0.0882,-0.0558,0.0604,278.1719
19:26:02:617,0.9614,2.7563,11.7604,50.6936,-0.0328,-0.0432,0.0098,278.1094
19:26:02:634,0.5556,2.7767,11.5342,50.9444,0.102,0.1163,-0.0371,278.0312
19:26:02:655,0.127,2.7647,10.9249,51.725,0.1894,0.3456,-0.0094,278
19:26:02:678,-0.1759,2.73,9.6703,51.0473,0.1244,0.3687,0.0628,278.0156
19:26:02:695,-0.3099,2.5468,8.9832,50.5441,-0.1715,0.3035,0.164,278.0312
19:26:02:718,-0.4057,1.7544,10.1024,50.4104,-0.5334,0.3288,0.2873,277.9531
19:26:02:734,-0.1543,0.8565,11.9675,48.1312,-0.6136,0.3078,0.3219,277.7812
19:26:02:754,-0.1615,0.5321,12.6056,50.0602,-0.2892,0.2625,0.2268,277.5
19:26:02:777,-0.5254,1.1965,10.2509,50.6057,0.1364,0.2372,0.131,277.0469
19:26:02:795,-1.1838,1.9698,7.1253,50.4185,0.1454,0.2596,0.1808,276.6719
19:26:02:814,-1.6974,2.1769,6.1137,49.8283,-0.298,0.2524,0.3986,276.4531
19:26:02:834,-1.2461,1.6119,7.1097,50.9927,-0.7619,0.1813,0.675,276.2969
19:26:02:854,-0.4141,1.0205,8.4086,49.1092,-0.9726,0.0329,0.7957,275.9531
19:26:02:882,0.279,0.7476,9.28,51.1121,-0.8772,-0.0741,0.7989,275.2656
19:26:02:898,0.7627,0.926,8.8012,51.1703,-0.6189,-0.1088,0.7089,275.2656
19:26:02:914,1.0464,1.2276,8.1955,51.794,-0.3947,-0.0869,0.6066,274.3906
19:26:02:935,1.2152,1.5676,7.4808,50.5646,-0.1902,-0.1229,0.5019,272.5156
19:26:02:955,1.2954,1.9722,6.5423,50.8697,-0.0554,-0.1775,0.4151,271.75
19:26:02:979,1.5168,2.4068,5.9497,49.8856,-0.0479,-0.21,0.3592,271.1406
19:26:02:996,1.4809,2.803,6.3232,49.5578,-0.1348,-0.1391,0.3115,270.6406
19:26:03:014,1.1685,3.0664,7.4964,50.1404,-0.1965,0.0156,0.3163,270.2031
19:26:03:034,1.0619,3.2041,8.3164,50.9284,-0.2072,0.1253,0.3808,269.8594
19:26:03:053,1.4223,3.1143,8.8132,49.7365,-0.277,0.128,0.4263,269.5
19:26:03:074,1.706,2.8665,9.8642,49.6971,-0.3907,-0.0062,0.3888,269.0938
19:26:03:093,2.0328,2.6223,11.1882,50.0075,-0.4035,-0.1796,0.2908,268.6406
19:26:03:114,2.4219,2.469,12.3698,51.2122,-0.282,-0.3365,0.1419,268.1406
19:26:03:138,2.7882,2.4044,12.9599,51.8117,-0.0599,-0.3951,-0.0355,267.7344
19:26:03:155,2.7738,2.4702,13.1886,49.7552,0.1569,-0.3197,-0.2187,267.4844
19:26:03:174,2.5571,2.4678,13.3454,49.4828,0.3377,-0.2054,-0.3556,267.4375
19:26:03:197,2.3967,2.4044,13.0593,50.1177,0.4562,-0.1772,-0.444,267.6094
19:26:03:216,2.5128,2.3709,12.7744,49.6262,0.4464,-0.1948,-0.4978,267.9688
19:26:03:235,2.7259,2.2296,12.5374,48.3195,0.3015,-0.2757,-0.5338,268.9844
19:26:03:254,2.8504,1.7591,12.9803,48.7947,0.0865,-0.3024,-0.5601,269.6094
19:26:03:278,2.7654,0.9236,14.0661,50.4734,-0.025,-0.2488,-0.5932,269.9219
19:26:03:294,2.8935,0.2077,14.7256,49.3075,0.1411,-0.2726,-0.688,270.5625
19:26:03:314,2.8253,0.179,13.0162,49.7482,0.5044,-0.4169,-0.8888,271.25
19:26:03:336,2.3021,0.8565,10.1683,49.9454,0.6719,-0.4278,-1.0376,272.0625
19:26:03:354,1.8245,1.3761,8.3906,49.5777,0.5161,-0.2939,-1.0531,273.6562
19:26:03:378,1.0859,1.4898,8.3295,49.4297,0.2354,-0.0973,-0.9889,274.2969
19:26:03:399,0.6669,1.236,9.0358,50.5137,0.0711,0.0098,-0.8603,275.5156
19:26:03:417,0.6118,1.06,9.146,49.0544,0.061,-0.0134,-0.7652,276.6562
19:26:03:439,0.534,1.0995,8.654,49.0445,0.102,-0.0845,-0.7189,277.5938
19:26:03:453,0.3652,1.3474,7.9908,47.9448,0.1361,-0.1176,-0.6656,278.4688
19:26:03:479,0.309,1.5616,7.2486,48.5973,0.1609,-0.1202,-0.5846,279.3125
19:26:03:493,0.1869,1.7364,6.6907,49.9777,0.1689,-0.1154,-0.5101,280.0312
19:26:03:514,0.0851,1.8453,6.759,48.9905,0.1835,-0.0592,-0.4174,280.7188
19:26:03:534,-0.0286,1.825,7.0151,48.7429,0.2692,0.0156,-0.3103,281.3125
19:26:03:554,0.1749,1.9016,7.0008,49.3626,0.3899,0.0313,-0.2102,281.7812
19:26:03:576,0.704,2.4104,6.6093,48.0211,0.4498,0.0188,-0.158,282.1406
19:26:03:595,0.3281,2.5277,7.4006,47.8993,0.2716,0.0694,-0.1322,282.375
19:26:03:614,0.0863,2.5289,8.563,48.5281,0.1926,0.1695,-0.0533,282.5625
19:26:03:634,0.0767,2.3158,9.4907,47.9186,0.1614,0.2572,0.0298,282.7188
19:26:03:654,0.1773,2.1339,10.2617,48.0517,0.1579,0.2758,0.0705,282.8594
19:26:03:680,-0.0322,1.9555,10.7812,48.948,0.2189,0.2359,0.0742,282.9062
19:26:03:696,0.0935,2.0177,10.1408,47.8553,0.2815,0.1565,0.09,282.7812
19:26:03:715,0.631,2.1422,9.0909,48.5333,0.1851,-0.093,0.0804,282.6719
19:26:03:733,0.9291,2.6426,8.958,47.4578,-0.028,-0.4246,-0.0057,282.5469
19:26:03:754,0.5113,2.9,9.2118,48.5236,-0.1787,-0.4861,-0.0043,282.4531
19:26:03:774,0.4251,2.9383,8.9209,48.94,-0.2772,-0.1719,0.168,282.4375
19:26:03:795,0.6789,2.6019,8.6468,49.0237,-0.4868,0.3136,0.3888,282.5312
19:26:03:813,0.6238,1.8465,9.632,47.5344,-0.7862,0.7238,0.556,282.5625
19:26:03:834,0.5209,1.2971,11.1607,48.1115,-0.9076,0.9746,0.6303,282.3906
19:26:03:855,0.1294,0.8697,11.6072,47.1462,-0.8394,0.8793,0.6274,281.9062
19:26:03:879,0.2252,0.8841,11.6719,50.354,-0.7409,0.5578,0.6151,281.1719
19:26:03:898,0.1366,1.0457,10.9596,49.8059,-0.5955,0.2271,0.5701,280.3594
19:26:03:913,-0.4404,1.1965,10.1551,49.0244,-0.5406,0.0926,0.6095,279.5312
19:26:03:934,-0.9803,1.0589,9.5877,49.2166,-0.5862,0.2942,0.8053,278.7344
19:26:03:956,-0.4739,0.6207,9.055,49.6111,-0.6607,0.2319,1.0412,278.0781
19:26:03:978,-0.304,0.6614,8.4265,48.6562,-0.7271,0.2545,1.0458,277.3594
19:26:03:993,-0.1555,0.7105,7.6149,49.9622,-0.84,0.0529,1.1555,276.3906
19:26:04:013,0.0516,0.8889,7.1803,49.2144,-0.9761,-0.0763,1.2269,275.1562
19:26:04:034,0.1258,0.9523,8.0494,49.7849,-1.0376,0.0263,1.2902,273.9688
19:26:04:106,0.8261,0.5321,9.1125,50.3973,-0.8107,0.2364,1.336,272.6094
19:26:04:107,1.3911,0.6279,9.3878,50.335,-0.3963,0.1237,1.2554,271.1562
19:26:04:107,1.7132,0.7368,8.4397,49.2457,-0.1294,-0.2347,1.1299,269.7188
19:26:04:127,1.5863,1.1821,8.2039,51.3359,-0.041,-0.4371,0.9281,268.1562
19:26:04:133,1.6844,1.4946,8.642,50.8018,0.0197,-0.3698,0.8178,266.0156
19:26:04:155,1.852,1.5999,9.0777,49.8227,0.1569,-0.2113,0.7635,264.9062
19:26:04:173,1.3504,1.8896,9.4093,53.2696,0.2461,-0.1319,0.7581,263.9219
19:26:04:194,1.5707,1.6191,10.1096,51.8676,0.2511,-0.251,0.8468,263.0312
19:26:04:213,2.2327,1.4455,10.8734,52.5464,0.2701,-0.2531,0.8351,262.1719
19:26:04:233,2.3381,1.5485,11.2014,52.0838,0.3745,-0.2334,0.6852,261.3125
19:26:04:253,1.9047,1.7029,11.3941,51.5522,0.5185,-0.3756,0.6069,260.3438
19:26:04:274,2.3979,2.2811,11.1631,52.4192,0.6112,-0.2853,0.5587,259.4688
19:26:04:301,2.2088,1.8848,11.2026,52.053,0.6389,-0.0102,0.4404,258.8281
19:26:04:317,2.0903,2.22,11.4731,51.3744,0.6283,0.4215,0.3299,258.1406
19:26:04:333,1.9717,2.0297,11.5677,53.5695,0.6152,0.5208,0.3123,257.6094
19:26:04:353,3.3927,1.5509,9.8678,52.0192,0.4687,0.2809,0.2711,257.1562
19:26:04:374,4.3372,1.327,10.3479,53.0309,-0.0032,-0.0859,0.026,256.7969
19:26:04:395,3.7219,0.8302,12.839,53.0309,-0.4256,-0.3937,-0.3029,256.4062
19:26:04:415,3.516,0.5441,15.5301,52.9134,-0.3092,-0.3072,-0.3503,256.2031
19:26:04:433,3.8656,-0.1371,14.7843,53.9029,0.2099,-0.0054,-0.436,256.4062
19:26:04:452,4.2678,-0.2747,12.0573,54.338,0.3425,-0.4907,-0.7122,256.8281
19:26:04:473,3.7375,0.3442,10.124,53.0083,0.1454,-1.0702,-0.9793,257.2656
19:26:04:494,3.1066,0.8122,9.1184,52.5106,0.0027,-0.8451,-1.0563,257.875
19:26:04:513,2.544,1.0876,9.5374,53.6238,0.0234,-0.1508,-0.9655,258.9375
19:26:04:533,2.2028,1.0205,9.6667,53.875,0.3345,0.8034,-0.8243,261.375
19:26:04:553,1.5911,1.0157,8.9221,53.2694,0.6171,1.2851,-0.7545,261.9062
19:26:04:573,0.279,1.6047,7.9142,53.7709,0.6272,1.258,-0.6597,262.7812
19:26:04:594,-0.7625,2.062,6.9948,53.6815,0.4112,1.1525,-0.4613,263.5312
19:26:04:614,2.3919,0.5788,5.6109,52.0882,0.0983,1.0287,-0.3172,264.1562
19:26:04:634,3.194,1.4814,7.6197,55.4909,-0.3121,0.5011,-0.8976,264.5938
19:26:04:653,1.8903,1.2935,8.0375,52.1343,-0.1979,0.1693,-1.3937,265.2344
19:26:04:674,0.5807,1.5341,8.3331,53.2655,-0.0258,-0.2582,-1.4629,265.8125
19:26:04:696,-0.1986,1.9196,8.7856,52.8702,0.1361,-0.7727,-1.2358,267.3125
19:26:04:714,0.6382,2.0429,8.3487,52.6721,0.2535,-0.8198,-1.0515,269.0156
19:26:04:733,1.7299,1.8178,7.8064,53.0976,0.3132,-0.3053,-1.035,270.5
19:26:04:753,2.107,1.886,7.1145,52.7319,0.2703,0.8361,-1.1998,271.7344
19:26:04:773,-1.9464,2.9718,6.328,52.4229,0.2445,1.7736,-1.4773,272.9531
19:26:04:794,-2.3342,5.1589,7.6412,54.7262,0.2234,1.6995,-1.6278,274.2656
19:26:04:813,-3.9072,5.2571,9.9708,52.5981,0.5233,1.1062,-1.4384,275.7344
19:26:04:834,-5.0062,3.2376,8.3906,52.8208,0.5465,0.7216,-0.6251,277.4531
19:26:04:853,-1.7094,1.9686,8.1057,53.266,0.2908,0.0662,-0.1711,279.0625
19:26:04:874,-2.3714,2.9407,9.8978,53.5852,0.2205,-0.6401,-0.248,279.7812
19:26:04:894,-2.0517,2.9227,12.0968,52.2936,0.4032,-1.3165,-0.2043,280
19:26:04:914,-1.2832,2.7551,12.9456,52.7222,0.6746,-1.235,-0.2555,280.1719
19:26:04:933,-1.3371,2.9359,11.5737,52.6778,0.799,-0.5477,-0.3117,280.5781
19:26:04:955,-1.7201,2.9096,9.7314,54.0137,0.5957,-0.4646,-0.3165,281.0469
19:26:04:978,-1.7357,1.965,9.5697,52.5865,0.24,-0.9937,-0.2699,281.7812
19:26:04:994,-1.0174,1.1594,13.8422,53.2856,0.0658,-1.6353,-0.1077,282.25
19:26:05:013,-0.7098,1.2612,12.8522,53.6969,0.6922,-1.2523,0.1738,282.6875
19:26:05:034,-0.5099,1.5281,10.2365,52.2585,0.828,-0.5032,0.2226,283.0312
19:26:05:053,-1.5968,1.2252,8.2362,53.6318,0.5678,-0.3767,0.3816,283.2344
19:26:05:074,-1.1994,1.7675,7.7921,54.0306,0.1539,-0.1985,0.6332,283.25
19:26:05:095,-0.7038,1.7376,7.8854,53.7599,-0.2269,-0.0092,0.7368,283.0938
19:26:05:114,-0.2525,1.7903,8.6971,54.6811,-0.4139,-0.1223,0.8836,282.7344
19:26:05:137,0.2216,1.8525,8.9724,53.4643,-0.4282,-0.1474,0.9866,282.0312
19:26:05:152,0.7699,1.9639,8.4253,52.1041,-0.343,0.1946,1.0162,281.2344
19:26:05:173,1.0201,2.074,6.7745,53.3051,-0.2687,0.7435,0.9419,280.2344
19:26:05:196,0.7543,2.0632,5.271,54.7967,-0.2844,0.9166,0.7736,279.1406
19:26:05:212,0.4718,2.2212,5.5367,53.8685,-0.3196,0.3703,0.6767,277.9375
19:26:05:233,0.5077,2.244,6.9385,54.3979,-0.2434,-0.2891,0.6535,276.8125
19:26:05:252,1.2224,2.3613,8.4876,54.859,-0.0258,-0.4001,0.5965,275.7969
19:26:05:273,0.698,2.9586,8.7689,54.6024,0.1808,-0.0496,0.4905,274.9531
19:26:05:296,0.8022,3.2029,7.8914,53.6336,0.2943,0.2401,0.4737,274.2812
19:26:05:313,0.631,3.3046,7.6711,55.1533,0.1997,0.3496,0.3877,273.6562
19:26:05:332,0.3652,3.3537,7.9321,52.7866,0.0637,0.3791,0.3749,273.0938
19:26:05:353,0.2455,3.5608,8.1548,54.9775,-0.0701,0.3331,0.4452,272.5625
19:26:05:373,0.9111,3.6601,8.709,54.1922,-0.2431,0.2566,0.5382,272.0625
19:26:05:396,1.6054,3.7799,10.0222,54.325,-0.3896,0.1253,0.4806,271.5781
19:26:05:413,1.9274,3.2974,11.5797,54.1117,-0.4187,0.0742,0.3067,271.0156
19:26:05:433,1.3193,2.4942,12.42,54.7739,-0.3428,0.1743,0.172,270.0938
19:26:05:453,0.4694,2.1745,12.9372,54.7109,-0.2248,0.2007,0.2247,269.6094
19:26:05:473,0.7148,1.9986,12.8175,54.9935,-0.0501,0.2138,0.4125,269.3281
19:26:05:494,1.2152,1.916,11.7209,54.9776,0.0605,0.2478,0.5422,269.125
19:26:05:512,1.8472,2.0165,10.847,55.2417,0.029,0.1514,0.6029,268.7344
19:26:05:534,2.2962,2.0117,10.4951,55.0557,-0.1127,0.0143,0.5435,268.1406
19:26:05:552,2.0244,2.0069,11.2481,54.8457,-0.2836,-0.0526,0.4585,267.4844
19:26:05:573,1.9945,1.9674,12.3386,55.0231,-0.3103,0.038,0.4101,266.7969
19:26:05:596,1.9981,1.7125,12.0537,54.8932,-0.1534,0.2625,0.3339,266.2344
19:26:05:612,1.9789,1.8274,10.5059,54.7653,0.0218,0.3211,0.266,265.7656
19:26:05:632,2.2686,1.7616,9.0059,54.4754,0.0317,0.0633,0.1802,265.3125
19:26:05:654,2.5571,1.5604,8.8778,54.2735,-0.1529,-0.2677,0.0399,264.9375
19:26:05:675,2.5583,1.3018,9.4848,54.9809,-0.3553,-0.2726,-0.0957,264.6406
19:26:05:696,2.0352,1.2312,9.7182,54.0907,-0.4211,-0.0204,-0.1865,264.5312
19:26:05:713,1.5779,1.4766,9.0167,54.7354,-0.3318,0.3027,-0.2046,264.6094
19:26:05:732,1.208,1.9052,7.6281,54.4459,-0.2122,0.5179,-0.2198,264.7969
19:26:05:753,0.7244,2.2224,6.7087,55.1545,-0.1806,0.4915,-0.2427,264.9844
19:26:05:773,0.1545,2.2368,6.6608,53.9271,-0.2075,0.3757,-0.2451,265.1719
19:26:05:798,-0.0226,2.3266,7.16,54.6216,-0.1926,0.2966,-0.1479,265.375
19:26:05:814,0.2096,2.5672,7.4688,53.6372,-0.1212,0.3251,-0.0515,265.6094
19:26:05:832,0.3197,2.9395,7.6723,54.3524,-0.0772,0.3562,-0.0107,265.7969
19:26:05:854,0.6154,3.1262,8.2039,55.9024,-0.0383,0.2771,-0.0003,265.875
19:26:05:881,0.6861,3.1861,8.873,54.9928,0.0735,0.1725,-0.0304,265.8438
19:26:05:896,0.5448,3.1897,9.2202,53.606,0.2706,0.0518,-0.0927,265.8281
19:26:05:913,0.4251,3.1214,9.3375,54.2651,0.4173,-0.0323,-0.1207,265.8438
19:26:05:932,0.2551,3.0377,9.4297,53.6484,0.4554,-0.0081,-0.1236,265.9688
19:26:05:952,-0.0238,3.076,9.7385,53.5084,0.4237,0.0739,-0.1085,266.125
19:26:05:972,-0.0442,3.1741,10.2042,53.0679,0.3934,0.1538,-0.0856,266.2812
19:26:05:996,0.0181,3.2867,10.3479,53.0679,0.3731,0.1637,-0.105,266.4219
19:26:06:014,-0.195,3.1957,11.0984,53.8341,0.3614,0.0771,-0.1298,266.5156
19:26:06:033,-0.6296,2.9934,11.7126,53.0439,0.4541,0.1083,-0.0997,266.6406
19:26:06:053,-1.2975,2.8018,11.2577,54.5476,0.6075,0.3003,0.0194,266.7188
19:26:06:073,-1.6315,2.712,9.9145,53.6582,0.6362,0.507,0.2026,266.875
19:26:06:097,-1.4125,3.0377,8.6851,55.0053,0.3787,0.6116,0.3661,266.9375
19:26:06:114,-0.5302,3.1598,8.5055,53.7715,-0.1137,0.4755,0.3768,266.7969
19:26:06:177,-0.0178,2.5468,10.7345,53.1721,-0.5595,0.0998,0.2676,266.4219
19:26:06:177,-0.5027,1.4407,13.58,52.8332,-0.5681,-0.0369,0.2,265.9219
19:26:06:177,-1.2952,0.6004,13.7225,52.7898,-0.1443,0.3403,0.3427,265.4844
19:26:06:192,-1.1826,0.7344,10.5585,53.1506,0.2634,0.797,0.5765,265.1875
19:26:06:213,-0.7852,1.3378,7.5119,51.0477,0.2437,0.6513,0.6569,264.8594
19:26:06:232,-0.4105,1.588,6.9421,53.0413,-0.1055,0.1568,0.5693,264.2812
19:26:06:253,-0.1854,1.3785,7.8998,50.9973,-0.4344,-0.2385,0.4236,263.4688
19:26:06:274,0.1689,1.2947,8.563,51.2185,-0.5521,-0.4805,0.3272,262.6875
19:26:06:296,0.3652,1.3402,8.4205,50.4706,-0.498,-0.6403,0.233,261.9062
19:26:06:313,-1.0641,0.5178,8.4696,52.0623,-0.3526,-0.6182,0.2026,261.5469
19:26:06:332,-1.7201,0.5118,8.2266,51.495,-0.2067,-0.3381,0.4961,261.3281
19:26:06:353,-0.9109,0.6279,6.7482,51.5856,-0.0874,0.1168,0.8623,261.1562
19:26:06:372,0.1162,1.564,5.1752,51.7658,-0.2344,0.3568,1.0218,260.6094
19:26:06:396,0.5568,2.3517,7.0032,49.4695,-0.7502,0.1403,0.7075,259.6094
19:26:06:412,0.2431,2.159,8.1536,51.3904,-0.6282,-0.15,0.5209,258.4375
19:26:06:433,-0.3315,1.9567,8.0231,51.0977,-0.4125,-0.4033,0.4037,257.2969
19:26:06:451,-0.4931,1.9471,8.4373,50.3199,-0.2874,-0.6363,0.4548,256.4219
19:26:06:471,1.2068,1.2145,10.2401,50.3199,-0.1989,-0.2957,0.3925,255.7969
19:26:06:494,1.882,2.3673,11.3917,50.7928,-0.0232,0.422,0.0082,255.375
19:26:06:512,1.1254,3.7427,11.0913,50.8136,0.1377,0.8899,-0.3463,254.8906
19:26:06:534,-0.11,3.7547,10.8459,50.0103,0.1052,0.5682,-0.5434,254.4688
19:26:06:552,-0.966,2.4427,12.0513,48.3662,0.0056,0.1711,-0.5282,254.4219
19:26:06:573,-1.5729,1.1666,13.6555,49.7468,-0.0256,0.0553,-0.2488,254.75
19:26:06:597,-1.349,0.8422,14.4563,49.5948,0.0027,0.3267,0.2822,255.3281
19:26:06:614,-0.5793,1.1582,13.5561,49.2395,0.0652,0.7943,0.8039,255.8906
19:26:06:632,-0.3662,1.4132,12.1028,49.2741,0.0905,0.9802,1.2415,256.1562
19:26:06:653,-0.1579,1.6789,11.5629,49.9876,0.1065,0.8686,1.6263,255.8125
19:26:06:672,1.4654,1.7651,11.673,48.4997,0.1116,0.7232,1.7848,254.8125
19:26:06:694,2.6277,2.1171,12.0106,49.4789,0.1627,0.5099,1.6293,253.3906
19:26:06:714,2.7044,1.9639,11.0218,48.7653,0.2495,0.471,1.148,251.4531
19:26:06:732,2.1405,1.8705,9.5829,48.4783,0.2932,0.3048,0.7701,248.4219
19:26:06:752,2.0268,1.813,8.1572,49.407,0.2511,0.0028,0.519,246.7812
19:26:06:772,2.0914,1.8334,7.8423,47.159,0.1241,-0.5189,0.241,245.7031
19:26:06:797,2.0112,1.6442,7.9728,47.7578,-0.0285,-0.9492,-0.0882,244.9688
19:26:06:816,1.6557,1.2971,8.0339,46.5912,-0.1715,-1.1109,-0.3745,244.6094
19:26:06:833,1.0643,0.9044,7.482,47.5074,-0.3507,-1.0315,-0.5564,244.625
19:26:06:852,0.5388,0.7572,7.0858,46.2294,-0.6133,-0.7024,-0.6185,245.0312
19:26:06:873,0.5951,1.0122,6.5926,46.0904,-0.914,-0.3517,-0.6704,245.6562
19:26:06:897,-0.2405,1.0361,6.1472,45.6221,-1.2703,-0.1125,-0.7508,246.4219
19:26:06:918,-0.5494,0.8111,6.0275,45.6742,-1.6783,0.1634,-0.6813,247.1406
19:26:06:935,-0.7948,0.41,6.0491,44.164,-2.0557,0.466,-0.5785,247.9375
19:26:06:952,-1.0318,0.1694,6.2274,45.6138,-2.3454,0.4774,-0.4469,248.6406
19:26:06:971,-1.1311,0.1024,7.2893,45.3308,-2.4837,0.4545,-0.2509,249.2188
19:26:06:995,-0.7732,-0.0221,9.2753,44.7557,-2.3982,0.2303,-0.0808,249.6406
19:26:07:012,-0.5613,0.0784,11.5653,44.7752,-1.9409,-0.0675,0.0223,249.8281
19:26:07:032,-0.4189,-0.0054,13.1646,44.6175,-1.1611,-0.067,-0.0017,249.8281
19:26:07:052,-0.4117,-0.4555,13.8697,43.5279,-0.2551,0.2287,-0.1668,249.6562
19:26:07:072,-1.2844,-0.6686,13.2329,43.7989,0.5651,0.3594,-0.2659,249.5
19:26:07:094,-1.5932,-0.817,12.0705,43.9002,1.1169,0.4068,-0.1399,249.5312
19:26:07:113,-1.7058,-0.6063,11.6216,43.9175,1.3918,0.3482,0.0532,249.8438
19:26:07:132,-1.7955,-0.2448,11.3415,44.1045,1.4773,0.2566,0.1941,250.2031
19:26:07:152,-1.8949,-0.2687,11.0685,44.5755,1.3912,0.1123,0.3009,250.3125
19:26:07:172,-1.9871,-0.2879,10.8866,43.5475,1.1329,0.0508,0.5219,250.3906
19:26:07:197,-1.6435,0.1287,10.8459,42.0776,0.8376,0.1669,0.8783,250.1406
19:26:07:216,-1.009,1.0565,10.9428,43.1276,0.5276,0.2686,1.1768,249.9688
19:26:07:234,0.0181,1.8334,11.527,42.0736,0.2751,0.3413,1.25,249.2656
19:26:07:253,1.1721,1.8418,12.0226,42.8103,0.1665,0.2553,1.0524,248.1406
19:26:07:274,1.3959,1.2827,12.5948,42.0901,0.2059,-0.0209,0.6639,246.75
19:26:07:295,0.212,0.2292,12.4248,41.3055,0.3811,-0.113,0.2982,245.4688
19:26:07:312,-0.8786,-0.6291,10.9596,41.868,0.5193,0.0643,0.2098,244.4844
19:26:07:332,-0.7433,-0.8996,9.2226,41.9063,0.4501,0.2694,0.2628,244
19:26:07:351,-0.3626,-0.7416,7.9896,41.6157,0.1566,0.1219,0.1829,243.8125
19:26:07:372,-0.2178,-0.6387,7.9261,42.2147,-0.2085,-0.1445,-0.0203,243.5938
19:26:07:397,-0.6595,-0.6913,8.7497,43.122,-0.4834,-0.4547,-0.2046,243.3281
19:26:07:414,-0.7684,-0.677,9.6966,41.692,-0.5563,-0.5628,-0.2331,243.2344
19:26:07:431,-0.7182,-0.4734,9.9337,41.2258,-0.3859,-0.3711,-0.1271,243.3438
19:26:07:452,-0.5601,-0.1694,8.7222,41.4122,-0.1023,0.0031,0.0684,243.5938
19:26:07:472,-0.1627,0.1993,7.2366,41.8787,0.0985,0.2968,0.2476,243.7812
19:26:07:497,0.1617,0.6075,6.0826,43.3668,0.1236,0.3597,0.2913,243.7969
19:26:07:514,-0.2178,0.8685,6.2286,42.3299,-0.0035,0.2044,0.226,243.5938
19:26:07:531,-1.2209,0.6949,7.002,41.6152,-0.065,0.1107,0.2111,243.2812
19:26:07:552,-1.6136,0.4328,7.5143,42.5697,0.0051,0.1056,0.3707,242.9844
19:26:07:571,-1.294,0.6339,7.5323,41.9576,0.1079,0.2087,0.5861,242.7344
19:26:07:596,-0.699,1.2899,7.4652,42.7007,0.1369,0.2678,0.6846,242.1719
19:26:07:615,-0.4464,1.7412,7.6364,41.3055,0.0197,0.2505,0.5555,241.5469
19:26:07:634,-0.79,1.91,8.4109,41.5023,-0.1545,0.1789,0.34,240.7656
19:26:07:653,-1.2784,1.6873,9.6679,41.1421,-0.278,0.1054,0.1877,240.125
19:26:07:674,-1.458,1.333,10.7142,42.9809,-0.2937,0.1229,0.1464,239.7188
19:26:07:696,-1.1407,1.0217,11.3115,41.9309,-0.2429,0.1173,0.1443,239.4688
19:26:07:712,-0.6008,0.5956,12.0178,41.6111,-0.2192,0.0106,0.0894,239.2656
19:26:07:731,-0.3375,-0.0018,12.7265,41.2765,-0.1997,-0.0686,0.0154,239.0625
19:26:07:752,-0.3854,-0.641,12.7863,41.0256,-0.1547,0.0319,0.0644,238.9531
19:26:07:772,-0.0957,-0.7679,11.9472,41.1452,-0.1294,0.2087,0.2383,238.9062
19:26:07:797,0.8429,-0.3932,10.6627,39.8878,-0.1979,0.2449,0.3318,238.8125
19:26:07:814,0.8417,-0.4519,11.2026,39.4362,-0.4996,-0.0765,0.1225,238.5312
19:26:07:831,0.6717,-0.9284,12.5529,42.0886,-0.5771,-0.1367,-0.0331,238.125
19:26:07:851,-0.0789,-1.5257,12.9647,40.9125,-0.4242,0.0947,-0.0888,237.7656
19:26:07:872,-0.3387,-1.6179,11.6647,41.5312,-0.1151,0.3954,0.0745,237.5781
19:26:07:896,0.8225,-0.9978,9.6464,41.619,0.1308,0.4042,0.2593,237.5469
19:26:07:915,2.1501,-0.2005,8.5773,41.5179,0.2008,0.0249,0.1331,237.5938
19:26:07:931,2.423,0.0281,8.6671,41.7956,0.1318,-0.3785,-0.2834,237.4844
19:26:07:951,1.6509,-0.416,8.9868,40.9101,0.0125,-0.4078,-0.6605,237.2188
19:26:07:971,0.4083,-0.7512,8.7102,41.8676,-0.0682,-0.0986,-0.7995,237.0938
19:26:07:991,-0.5123,-0.6387,7.8004,41.3261,-0.0826,0.2532,-0.717,237.4375
19:26:08:014,-0.6439,-0.1574,6.5375,41.1492,-0.0972,0.4116,-0.5681,238.6094
19:26:08:034,-0.5146,0.4232,6.2681,41.8195,-0.1297,0.243,-0.4813,239.5
19:26:08:052,-0.3255,0.6782,6.8152,41.9914,-0.0938,-0.0081,-0.4725,240.2188
19:26:08:072,-0.5793,0.7572,7.3252,41.3944,-0.0032,-0.1178,-0.4808,240.75
19:26:08:101,-0.766,0.8949,7.3934,40.2833,0.093,-0.0939,-0.4155,241.2812
19:26:08:118,-0.6224,1.2827,7.1791,41.2765,0.1209,-0.0619,-0.345,241.8125
19:26:08:141,-0.3794,1.6047,7.4784,41.615,0.0328,-0.0848,-0.3676,242.3281
19:26:08:151,-0.3614,1.6897,8.4433,41.2246,-0.0527,-0.1327,-0.4595,242.7656
19:26:08:173,-0.7505,1.5317,9.5147,41.536,-0.0823,-0.1546,-0.5711,243.1719
19:26:08:196,-1.3694,1.218,10.2701,40.428,-0.0708,-0.0861,-0.6113,243.6406
19:26:08:245,-1.9811,0.8362,10.683,40.8754,-0.0437,0.0092,-0.5226,244.1875
19:26:08:245,-2.3749,0.8374,10.8722,39.2912,-0.0178,0.0252,-0.3114,244.875
19:26:08:258,-2.1966,0.9104,11.4217,42.1868,0.0186,-0.1162,-0.0978,245.5312
19:26:08:271,-1.9978,0.8673,12.3889,41.2735,0.127,-0.365,0.0495,246
19:26:08:291,-1.8997,0.7201,12.602,41.3635,0.3148,-0.5242,0.192,246.2188
19:26:08:312,-1.8063,0.6889,11.6491,40.4943,0.3694,-0.5623,0.3536,246.25
19:26:08:333,-2.1367,0.835,10.7872,39.8166,0.1294,-0.5873,0.5142,246.1406
19:26:08:352,-2.3342,0.7141,11.4205,40.1734,-0.2554,-0.7993,0.6724,245.875
19:26:08:372,-1.7692,-0.1538,13.2329,39.2873,-0.4913,-1.0502,0.7994,245.4062
19:26:08:398,-0.638,-0.9236,15.3697,40.9939,-0.3715,-1.0787,0.8631,244.7188
19:26:08:414,0.2874,-1.4072,15.7935,40.6044,0.1334,-0.7799,0.8263,244.3438
19:26:08:432,0.3593,-1.5413,13.3262,41.3177,0.7001,-0.2749,0.7211,243.375
19:26:08:452,0.1282,-1.4192,9.6332,40.3672,0.8882,0.0036,0.5826,242.3438
19:26:08:471,-0.1747,-1.2408,7.2043,42.1271,0.6064,0.0103,0.4146,241.4062
19:26:08:492,-0.5494,-1.078,6.474,40.6799,0.1276,-0.0457,0.299,240.3281
19:26:08:513,-0.5817,-0.8673,6.7625,41.837,-0.2852,-0.1266,0.2513,239.8125
19:26:08:533,-0.4141,-0.6913,7.6185,41.837,-0.4932,-0.2121,0.2175,239.4531
19:26:08:551,-0.1974,-0.3873,8.1524,40.1566,-0.461,-0.2347,0.1773,239.1406
19:26:08:571,-0.1184,-0.2484,7.7861,40.8577,-0.2842,-0.2068,0.1355,238.8438
19:26:08:592,-0.1651,-0.4328,6.7889,41.4246,-0.1148,-0.2217,0.1515,238.5938
19:26:08:612,-0.2764,-0.6315,6.1041,42.2786,-0.1158,-0.3157,0.2593,238.4219
19:26:08:630,-0.3016,-0.647,6.5674,40.1462,-0.2732,-0.3037,0.4029,238.2656
19:26:08:651,-0.5254,-0.6051,7.3575,40.2197,-0.4645,0.0327,0.535,238.0312
19:26:08:670,-0.7265,-0.4016,8.2074,41.6802,-0.5508,0.3938,0.6785,237.6719
19:26:08:691,-0.4464,-0.3023,8.4756,40.1917,-0.4346,0.5517,0.7768,237.125
19:26:08:712,-0.1519,-0.1981,8.2434,41.5403,-0.3129,0.3637,0.7944,236.4062
19:26:08:732,0.3425,-0.0688,9.3148,41.0922,-0.2269,0.0433,0.7003,235.5469
19:26:08:751,0.3473,-0.3885,10.7968,41.047,-0.1009,-0.2683,0.499,234.6719
19:26:08:771,-0.0178,-0.7608,12.11,42.1512,0.0826,-0.2507,0.3941,233.7812
19:26:08:792,0.0145,-0.9415,12.0082,41.3875,0.3081,0.0622,0.4114,233.0781
19:26:08:815,0.5556,-0.744,10.476,41.1631,0.334,0.307,0.4082,232.6094
19:26:08:832,1.3528,-0.7715,10.0342,42.3356,0.0288,0.3083,0.2452,232.1719
19:26:08:858,1.5803,-1.2563,11.4288,42.9683,-0.3334,0.2537,-0.0014,231.7031
19:26:08:870,1.0224,-1.8382,13.0545,42.9532,-0.4477,0.3778,-0.1479,231.3281
19:26:08:892,0.6394,-2.3002,13.671,41.4565,-0.2594,0.6401,-0.0981,231.1875
19:26:08:915,0.8429,-2.165,12.1579,41.6861,0.0242,0.9144,0.034,231.3594
19:26:08:933,1.1924,-1.5496,10.0055,42.5141,0.0647,0.8396,0.0524,231.4531
19:26:08:952,0.9279,-1.242,9.4548,42.5646,-0.1816,0.4116,-0.081,231.4375
19:26:08:970,0.0851,-1.6203,11.2086,40.7068,-0.3947,-0.0622,-0.1577,231.4062
19:26:08:991,-0.0083,-2.1266,12.7983,43.1557,-0.2413,-0.2052,0.0135,231.5
19:26:09:014,0.6693,-1.9746,12.3279,42.7914,0.1963,-0.1239,0.2979,231.625
19:26:09:032,2.1824,-1.3581,10.1037,41.9382,0.53,-0.0592,0.466,231.5781
19:26:09:058,3.8045,-0.7488,8.3978,42.333,0.4831,-0.2097,0.3035,231.25
19:26:09:070,3.9865,-0.2975,8.1452,41.2721,0.1822,-0.3484,-0.1559,230.7969
19:26:09:093,2.8744,-0.4639,8.7294,43.5203,-0.1025,-0.2238,-0.6022,230.4844
19:26:09:117,1.5108,-0.7284,8.8539,41.729,-0.2144,0.1336,-0.8123,230.6719
19:26:09:135,0.4538,-0.7715,8.1189,42.1978,-0.1691,0.5062,-0.7908,231.3125
19:26:09:157,0.0504,-0.5632,6.893,43.5208,-0.0386,0.651,-0.6547,232.2344
19:26:09:170,-0.0179,-0.179,5.903,42.1482,0.0802,0.5304,-0.5335,233.1406
19:26:09:192,-0.2836,0.3621,5.7749,43.108,0.1361,0.2556,-0.4906,233.8906
19:26:09:227,-0.6152,0.5046,6.3914,43.384,0.1598,-0.1993,-0.4576,234.4844
19:26:09:231,-1.0629,0.6818,7.0092,43.3541,0.1726,-0.2169,-0.3841,235.0781
19:26:09:251,-1.5477,0.7009,7.7537,43.3068,0.1862,-0.1663,-0.2725,235.6562
19:26:09:269,-2.2576,0.5513,8.2841,43.5312,0.1406,0.0332,-0.0952,236.1719
19:26:09:291,-2.509,0.8613,8.6181,43.0383,0.0019,0.2857,0.1978,236.625
19:26:09:312,-1.5825,1.4168,8.9018,44.1593,-0.1947,0.3584,0.3794,236.9375
19:26:09:333,-1.1647,1.8561,10.0665,44.2643,-0.4107,0.2058,0.3051,237
19:26:09:351,-1.7345,1.4287,12.5852,45.0615,-0.4714,-0.0667,0.1475,236.625
19:26:09:375,-2.9112,0.3717,14.6718,43.7606,-0.2317,-0.2124,0.1552,236.1875
19:26:09:399,-3.8067,-0.5776,15.068,45.7327,0.1334,-0.096,0.445,235.8906
19:26:09:419,-3.2141,-0.6829,14.2959,45.6001,0.3795,0.1552,0.8649,235.7188
19:26:09:435,-1.9476,-0.1419,13.1539,44.1597,0.4128,0.3956,1.1009,235.3906
19:26:09:451,-1.0701,0.3753,12.426,44.1244,0.3015,0.4518,1.0671,234.6719
19:26:09:470,-0.3578,0.3466,12.1268,44.3814,0.1728,0.3099,0.8745,233.6094
19:26:09:490,0.0205,-0.1143,12.2429,45.5901,0.0839,0.0462,0.6218,232.9844
19:26:09:512,-0.2262,-0.9475,12.45,46.2684,0.0844,-0.2251,0.4284,231.7969
19:26:09:535,-0.2788,-1.6418,12.5876,46.8957,0.2533,-0.4294,0.4061,230.8281
19:26:09:551,0.4646,-1.983,12.2908,48.1577,0.5848,-0.4539,0.4495,230.1562
19:26:09:571,1.1505,-1.965,10.2545,46.2283,0.8509,-0.3072,0.3531,229.6875
19:26:09:591,0.977,-2.05,8.0004,47.6082,0.7606,-0.1628,0.1113,229.25
19:26:09:617,0.2216,-2.2847,6.7075,48.3313,0.3409,-0.0986,-0.0872,228.8281
19:26:09:634,-0.5075,-2.5157,6.893,45.3859,-0.1667,-0.1032,-0.1021,228.5156
19:26:09:652,-0.7708,-2.4032,7.8351,46.7885,-0.4844,-0.1455,0.0074,228.4688
19:26:09:671,-1.0246,-1.892,8.7042,47.5776,-0.4924,-0.2275,0.1376,228.5938
19:26:09:690,-1.1252,-1.3438,8.6169,47.3773,-0.2586,-0.2723,0.2924,228.7031
19:26:09:714,-0.9887,-0.8266,7.5167,47.4676,0.0043,-0.3048,0.4615,228.6562
19:26:09:731,-0.5685,-0.1203,6.6333,46.9491,0.1481,-0.5327,0.5813,228.4531
19:26:09:750,-0.3734,0.1383,6.5542,47.8146,0.2184,-0.8041,0.6173,227.875
19:26:09:770,-0.4943,0.1706,6.9996,47.6734,0.2594,-0.9905,0.6354,227.2812
19:26:09:790,-0.6643,0.2101,7.4712,48.9017,0.2887,-0.9948,0.6966,226.625
19:26:09:812,-0.4057,0.234,7.828,48.7014,0.2408,-0.822,0.796,225.9688
19:26:09:832,0.2012,0.5046,8.2876,47.2674,0.1318,-0.5463,0.8932,225.2656
19:26:09:862,0.6633,0.89,8.721,47.7527,0.0149,-0.2944,0.9185,224.4531
19:26:09:870,0.8836,1.3354,9.4847,48.4405,-0.0466,-0.2257,0.8876,222.5312
19:26:09:892,1.2176,1.4671,10.6064,48.4227,0.0149,-0.1905,0.7968,222.5312
19:26:09:917,1.1302,1.345,10.8291,46.7364,0.1864,-0.0717,0.6942,221.5
19:26:09:937,1.4462,1.3569,10.361,47.2508,0.3268,-0.002,0.6316,220.5781
19:26:09:950,1.5204,1.4958,10.1731,47.4166,0.3571,-0.1128,0.4434,219.75
19:26:09:972,1.0763,1.5604,9.8163,48.1125,0.2586,-0.1665,0.2612,218.3594
19:26:09:991,1.3492,1.2947,9.96,48.4429,-0.0197,-0.129,0.1182,218.3594
19:26:10:014,0.8345,0.9224,10.6687,49.6406,-0.3569,-0.0076,-0.0339,218.0156
19:26:10:033,0.6094,0.6494,11.7185,48.5137,-0.6285,0.1171,-0.0746,217.7969
19:26:10:053,1.05,0.1514,12.8965,49.0502,-0.7816,0.1733,-0.0962,217.7656
19:26:10:072,1.6162,-0.6219,14.1726,48.1635,-0.8187,0.2172,-0.1045,217.8281
19:26:10:090,1.8903,-1.2995,15.0154,48.82,-0.7121,0.4593,-0.1287,217.9062
19:26:10:115,1.4055,-2.0668,14.515,48.5858,-0.4104,0.7632,-0.1268,218
19:26:10:133,0.8596,-2.1063,12.8965,49.3423,-0.0258,0.8042,0.0383,218.0938
19:26:10:150,1.5695,-1.9004,11.3403,49.4065,0.387,0.3637,0.2719,218.2969
19:26:10:170,2.9234,-1.5688,10.294,48.5866,0.7143,-0.2784,0.2865,218.2344
19:26:10:191,3.3352,-1.1702,9.6272,47.1715,0.8557,-0.5799,0.0697,217.7812
19:26:10:227,2.7642,-1.1402,8.7198,46.8718,0.8495,-0.4651,-0.1908,217.6562
19:26:10:236,1.773,-1.0636,7.5371,48.7185,0.7417,-0.1138,-0.3242,217.625
19:26:10:302,1.0739,-0.7655,6.255,48.0671,0.5654,0.2335,-0.3271,217.8906
19:26:10:302,0.8249,-0.4016,5.3105,48.5794,0.3486,0.385,-0.3061,218.2812
19:26:10:302,0.6394,-0.0353,5.3643,47.1741,0.1254,0.3269,-0.3159,218.6562
19:26:10:318,0.3628,0.2532,6.3268,46.4643,0.0104,0.2289,-0.337,219
19:26:10:330,0.0049,0.3154,7.4281,47.5986,0.0772,0.1898,-0.342,219.3281
19:26:10:350,-0.5709,0.6075,7.3084,49.2207,0.2099,0.2718,-0.2722,219.7031
19:26:10:370,-0.4285,1.2827,6.9277,46.9166,0.2269,0.2841,-0.1697,220.0781
19:26:10:391,0.2491,1.9866,7.0043,48.586,0.1177,0.2196,-0.2203,220.375
19:26:10:415,0.5029,2.3673,7.9213,47.8643,-0.0682,0.1805,-0.4552,220.5625
19:26:10:431,-0.5697,2.0788,8.8275,46.6825,-0.225,0.3272,-0.6869,220.7969
19:26:10:452,-2.2528,1.7412,9.6918,47.0668,-0.3281,0.5525,-0.6416,221.3125
19:26:10:470,-3.2129,1.8681,10.5765,46.2889,-0.3225,0.7277,-0.3098,222.0156
19:26:10:490,-3.5565,2.311,11.1427,46.0347,-0.1851,0.7192,0.1413,222.7031
19:26:10:511,-3.0046,2.8509,11.4241,46.8889,0.0184,0.52,0.5983,222.9844
19:26:10:532,-1.7919,3.1011,12.0118,47.7735,0.216,0.2534,0.8979,222.7812
19:26:10:550,-0.6595,2.9084,12.3362,46.7971,0.4032,0.1285,1.0002,222.0781
19:26:10:572,-0.0849,2.6306,12.3398,46.457,0.5233,0.1488,0.985,221.0625
19:26:10:591,0.2683,2.4379,11.3546,46.1616,0.5638,0.2681,0.9115,220
19:26:10:618,0.5029,2.1123,10.5741,46.1616,0.4637,0.4691,0.7741,218.9062
19:26:10:633,0.0659,1.339,10.683,44.2183,-0.1577,0.5938,0.1832,218.3906
19:26:10:650,-1.1024,0.082,12.2405,44.9606,-0.3332,0.3405,-0.0339,217.0156
19:26:10:669,-2.448,-1.1019,13.0234,46.3589,-0.151,0.3307,0.0338,216.4219
19:26:10:690,-2.5042,-1.7974,11.3917,45.7709,0.2226,0.4476,0.3512,216.1406
19:26:10:713,-1.5418,-1.3521,9.055,45.8172,0.3808,0.2889,0.5936,216.1094
19:26:10:733,-0.9181,-0.914,8.1452,44.8256,0.2618,-0.0984,0.5611,216.0312
19:26:10:751,-1.0497,-0.7452,8.4864,44.0601,0.0775,-0.4742,0.4402,215.625
19:26:10:769,-0.851,-0.6015,9.2489,43.7313,-0.0804,-0.5831,0.3896,214.9688
19:26:10:790,-0.4308,-0.4603,9.729,45.0067,-0.1569,-0.3839,0.3302,214.3594
19:26:10:817,-0.6607,-0.3693,9.4297,42.4512,-0.1305,-0.0408,0.2769,213.9531
19:26:10:833,-0.8893,-0.1155,8.6228,42.6822,-0.0077,0.2383,0.332,213.5469
19:26:10:852,-0.8869,0.1443,7.2306,43.1513,0.151,0.2769,0.4162,213.1875
19:26:10:870,-0.9109,0.4208,6.1353,44.7187,0.1949,0.0915,0.4921,212.875
19:26:10:891,-0.8714,0.6315,6.1963,43.394,0.1497,-0.1223,0.5653,212.4688
19:26:10:912,-0.7577,0.8829,6.4321,42.5071,0.1246,-0.1679,0.6213,211.9844
19:26:10:929,-0.444,1.2037,6.4752,44.3863,0.0895,-0.0883,0.6149,211.4688
19:26:10:954,-0.3889,1.4695,6.2897,41.8543,-0.0051,0.0209,0.5523,210.8438
19:26:10:970,-0.6786,1.6358,6.4872,43.3658,-0.1414,-0.0246,0.4862,210.1562
19:26:10:990,-0.9959,1.5951,7.3228,40.433,-0.2541,-0.1911,0.4657,209.4844
19:26:11:013,-1.0869,1.5389,8.4924,42.641,-0.293,-0.3599,0.5035,208.8906
19:26:11:032,-0.7792,1.5173,9.9899,41.5842,-0.2415,-0.4033,0.5464,208.3125
19:26:11:051,-0.2812,1.6287,10.6591,41.2108,-0.0719,-0.2757,0.5326,207.5
19:26:11:075,0.5089,1.7436,10.7752,41.6255,0.0602,-0.2598,0.4356,206.625
19:26:11:095,1.4929,1.6646,11.2469,42.2009,0.1089,-0.4302,0.2135,205.7969
19:26:11:112,1.0583,1.0816,12.0034,41.2164,0.0517,-0.5628,-0.0706,205.4531
19:26:11:132,-0.1352,0.082,12.3243,40.7825,-0.0969,-0.3314,-0.0909,205.4531
19:26:11:155,-0.3219,-0.2819,12.0681,42.4027,-0.2541,0.0694,0.1581,205.6562
19:26:11:174,0.5232,-0.094,10.8554,41.5761,-0.3808,0.2622,0.3525,205.6406
19:26:11:199,1.0871,0.2412,9.4261,41.5508,-0.6482,0.0862,0.3251,205.2812
19:26:11:210,0.6262,0.1981,9.8367,39.6652,-1.1225,-0.2805,0.1685,204.8125
19:26:11:236,0.1497,-0.665,12.5206,39.1545,-1.5374,-0.3074,0.1065,204.4688
19:26:11:257,-0.3351,-1.5149,14.4994,40.0066,-1.5026,0.168,0.2183,204.2969
19:26:11:269,-0.4213,-1.3114,13.9703,41.0052,-1.0093,0.6998,0.5113,204.0469
19:26:11:291,1.2391,-0.4854,11.302,40.0542,-0.4445,0.7235,0.7142,204.0469
19:26:11:312,2.6948,0.1634,9.1388,39.0876,-0.1467,0.1227,0.5139,203.5469
19:26:11:331,2.7882,0.0844,8.9101,40.8502,-0.1244,-0.6299,0.0908,202.75
19:26:11:354,2.2243,-0.5034,9.5302,40.9941,-0.2008,-0.8731,-0.2485,201.9531
19:26:11:369,1.4067,-0.8038,9.9121,40.9202,-0.2402,-0.586,-0.4235,201.6094
19:26:11:390,0.692,-0.8074,9.3758,40.4205,-0.1923,-0.1042,-0.4744,201.7344
19:26:11:414,0.4167,-0.6889,8.217,41.8664,-0.1244,0.2441,-0.4677,202.1406
19:26:11:433,0.1234,-0.5321,7.0905,39.4615,-0.1401,0.3323,-0.4584,202.6719
19:26:11:451,-0.1028,-0.3897,7.0594,40.7503,-0.2178,0.2271,-0.4174,203.2031
19:26:11:470,-0.3087,-0.3561,7.6687,41.3639,-0.24,0.1261,-0.3308,203.6875
19:26:11:489,-0.4081,-0.2472,8.0985,40.5248,-0.1848,0.1008,-0.187,204.5938
19:26:11:509,-0.104,0.0545,8.235,40.6625,-0.0796,0.0982,-0.0166,204.7656
19:26:11:529,0.2623,0.5297,8.156,41.0529,0.0535,0.0119,0.091,204.9531
19:26:11:549,0.7387,1.0756,8.0087,39.7527,0.146,-0.1034,0.1272,204.9531
19:26:11:569,1.2475,1.5628,8.1344,41.882,0.1249,-0.1967,0.066,204.8594
19:26:11:589,1.0583,1.813,8.7796,42.2569,0.0525,-0.2211,-0.0866,204.7344
19:26:11:609,0.218,1.4802,9.9025,41.7125,0.037,-0.2084,-0.1836,204.6719
19:26:11:630,-0.6439,1.005,10.9691,40.9756,0.1068,-0.0757,-0.1154,204.7812
19:26:11:651,-1.6244,1.0301,11.5342,40.0765,0.2181,0.1964,0.1137,204.9844
19:26:11:670,-1.5765,1.6011,11.4839,41.5054,0.347,0.3368,0.3757,205.1094
19:26:11:690,-1.294,1.8034,11.3869,39.4709,0.4898,0.2135,0.45,205
19:26:11:718,-1.1982,1.4431,11.5306,39.2353,0.5798,0.0209,0.4524,204.5781
19:26:11:734,-0.6367,1.06,12.3542,41.3641,0.5665,0.0047,0.4356,204.125
19:26:11:751,-0.1364,1.0684,12.5074,39.0158,0.4392,0.3363,0.3414,203.6406
19:26:11:769,-0.2118,0.9966,12.1088,40.204,0.126,0.7307,0.1512,203.4062
19:26:11:790,-1.1539,0.5716,12.4176,41.6969,-0.2562,0.838,-0.0043,202.9688
19:26:11:817,-2.1631,-0.4052,13.6531,41.8673,-0.3356,0.6042,0.0002,202.7031
19:26:11:836,-2.2696,-1.4347,14.0852,41.0276,-0.0067,0.2329,0.1999,202.5781
19:26:11:854,-1.6842,-1.9291,12.8965,42.0566,0.4812,0.0524,0.4615,202.5469
19:26:11:869,-1.0809,-1.7939,10.1755,40.4384,0.7958,0.0321,0.6356,202.4219
19:26:11:889,-0.2932,-1.3976,7.9944,41.5914,0.7476,-0.0715,0.6727,202.0469
19:26:11:916,0.1258,-0.9942,7.2725,40.4943,0.4724,-0.2046,0.5842,201.4688
19:26:11:934,0.1246,-0.6901,7.7956,41.7397,0.2067,-0.3543,0.4849,200.4688
19:26:11:951,0.0636,-0.5692,8.7222,41.4653,0.09,-0.4523,0.4436,199.8594
19:26:11:975,-0.0406,-0.2592,9.2585,41.5994,0.1433,-0.4582,0.4663,199.3594
19:26:11:990,-0.1028,0.1048,8.0243,41.6264,0.2882,-0.3357,0.5027,198.9062
19:26:12:012,-0.5601,0.2963,6.7422,43.2959,0.4589,0.0558,0.6085,198.4219
19:26:12:041,-0.5829,0.3813,5.8994,41.7164,0.4133,0.0659,0.7193,197.9062
19:26:12:049,-0.0657,0.7201,5.9162,41.8734,0.2866,-0.1349,0.7989,197.3281
19:26:12:073,0.3389,1.1917,6.8487,41.6021,0.1739,-0.3706,0.7741,196.6875
19:26:12:088,0.3784,1.254,7.828,44.3725,0.1758,-0.492,0.6162,195.875
19:26:12:109,0.2731,1.552,8.3942,43.4378,0.2863,-0.6219,0.5214,195
19:26:12:133,0.1773,1.5473,8.4289,43.8602,0.4264,-0.6872,0.4692,194.2031
19:26:12:149,0.1078,1.6239,7.9932,43.5234,0.4261,-0.7165,0.4335,193.5781
19:26:12:169,0.3688,2.0512,8.132,45.016,0.2788,-0.7154,0.45,193.0625
19:26:12:189,1.0835,2.5887,8.4995,44.3406,0.1411,-0.7498,0.3794,192.6406
19:26:12:217,1.2535,2.6342,9.2058,44.3406,0.0309,-0.8046,0.1627,192.25
19:26:12:233,0.6956,1.9172,10.1683,45.4295,-0.082,-0.6334,-0.0232,191.8438
19:26:12:259,-0.0502,1.2839,11.0529,45.4012,-0.1862,-0.4022,-0.0057,191.5156
19:26:12:268,0.0516,0.9631,12.0214,44.6758,-0.2245,-0.3351,0.1517,191.4375
19:26:12:289,0.7327,0.7919,12.9492,45.7444,-0.1803,-0.4014,0.2615,191.5469
19:26:12:350,1.949,0.8446,13.264,48.6559,-0.0722,-0.3234,0.3057,191.6094
19:26:12:350,3.0731,0.7464,12.4512,46.213,0.0453,-0.0621,0.2559,191.375
19:26:12:350,3.3053,0.7931,11.2182,47.8453,0.0325,0.2486,0.1312,191.0938
19:26:12:369,3.0515,0.8661,10.0989,48.0694,-0.1923,0.4894,-0.0323,190.7812
19:26:12:389,2.7223,0.8553,10.0043,47.074,-0.5651,0.515,-0.2115,190.5625
19:26:12:408,2.4793,0.6458,11.4624,46.8218,-0.8474,0.3392,-0.3564,190.4531
19:26:12:431,2.4506,0.2209,12.9743,47.8026,-0.7928,0.1866,-0.3971,190.5312
19:26:12:449,2.4709,0.0629,13.1084,48.0677,-0.4506,0.2308,-0.3146,190.8125
19:26:12:469,2.8815,-0.0461,11.4923,47.0544,-0.0583,0.3962,-0.1889,191.2344
19:26:12:490,3.5555,-0.1993,9.3184,47.1112,0.143,0.3594,-0.1327,191.6562
19:26:12:509,3.6237,-0.1442,7.8124,47.731,0.0722,0.1264,-0.1785,191.9062
19:26:12:531,3.1114,0.0473,7.2713,49.8869,-0.1547,-0.1394,-0.2672,192.0312
19:26:12:549,2.6098,0.3334,7.7238,49.2877,-0.3539,-0.2699,-0.3378,192.1719
19:26:12:569,2.3991,0.5154,8.4145,49.4657,-0.3638,-0.243,-0.3913,192.4219
19:26:12:593,2.1537,0.6985,8.1117,49.904,-0.1718,-0.0811,-0.456,192.7812
19:26:12:617,1.6485,0.8649,7.2103,50.3959,0.0219,-0.0385,-0.5466,193.2188
19:26:12:634,0.8118,1.1498,6.9337,50.3959,0.1318,-0.186,-0.6328,193.7188
19:26:12:651,0.631,1.3689,6.2825,51.6557,0.1926,-0.3735,-0.6829,194.25
19:26:12:669,1.0452,1.7089,6.4441,51.8537,0.1236,-0.6574,-0.7735,194.9375
19:26:12:690,0.8884,1.7723,8.0638,52.892,0.1238,-0.8827,-0.9181,195.7188
19:26:12:709,0.5879,2.0429,10.1611,52.1375,0.3622,-0.679,-0.9689,196.5938
19:26:12:731,0.947,1.9627,10.4676,51.6068,0.9603,-0.2265,-1.1277,197.5781
19:26:12:751,-0.2692,2.0656,10.0965,53.9759,1.4599,-0.3037,-1.1934,198.75
19:26:12:769,-0.705,1.9052,9.6128,53.1647,1.7191,-0.3503,-1.0169,199.9531
19:26:12:790,-0.8043,2.1374,8.9868,52.218,1.6064,-0.4403,-0.6688,201.25
19:26:12:810,-0.7277,2.7803,8.7018,54.2405,1.1047,-0.2797,-0.2339,202.5469
19:26:12:831,0.0229,3.3728,9.0646,54.7848,0.4812,0.0865,0.2109,203.5469
19:26:12:852,1.5085,3.8158,10.2186,55.0245,-0.0242,0.4694,0.4162,204.1094
19:26:12:869,2.2495,3.7499,10.8052,53.3965,-0.2602,0.6074,0.3533,204.0938
19:26:12:888,2.374,3.3273,11.4312,53.5835,-0.3214,0.6566,0.2782,203.625
19:26:12:908,2.119,3.058,11.6168,54.5807,-0.2812,0.7168,0.2806,203.0625
19:26:12:932,1.5516,3.2256,11.6707,53.7669,-0.2549,0.5997,0.421,202.625
19:26:12:950,1.5851,3.2376,11.6383,54.8779,-0.2764,0.3427,0.6005,202.2031
19:26:12:968,1.7742,3.0137,11.9005,53.7389,-0.3257,-0.0417,0.7081,201.7188
19:26:12:988,2.1621,2.6354,12.3614,56.4244,-0.3246,-0.3668,0.7877,201.0781
19:26:13:010,2.4685,2.2272,11.9544,54.5991,-0.2549,-0.3322,0.7797,200.2812
19:26:13:031,2.696,1.7388,10.9141,54.3654,-0.1342,-0.1104,0.6223,199.4688
19:26:13:051,2.6673,1.3785,9.638,55.7912,-0.0349,0.1046,0.3451,198.6094
19:26:13:069,2.1346,0.841,8.539,56.0607,-0.0306,0.1538,0.0284,197.875
19:26:13:089,1.0583,0.3609,7.6903,56.5979,-0.1321,-0.0057,-0.1625,197.2969
19:26:13:110,0.5137,0.082,7.5586,55.5279,-0.3044,-0.256,-0.1191,197.0625
19:26:13:133,0.71,0.1466,7.6017,55.9627,-0.5081,-0.4134,0.0303,197.1562
19:26:13:149,0.8812,0.3681,7.907,55.4454,-0.739,-0.3788,0.1176,197.375
19:26:13:169,0.6549,0.4747,8.0949,56.8661,-0.882,-0.1378,0.1334,197.4844
19:26:13:189,0.546,0.3621,8.0482,55.3575,-0.8788,0.0998,0.1658,197.4219
19:26:13:211,0.8225,0.6327,8.624,55.9722,-0.738,0.2609,0.1991,197.3125
19:26:13:234,1.0524,0.8924,9.6511,56.0604,-0.5023,0.348,0.1307,197.1406
19:26:13:251,0.7555,0.6566,9.8247,55.2959,-0.2186,0.565,0.0931,196.9219
19:26:13:271,0.2204,0.6291,9.4129,56.8081,0.0772,0.8961,0.1658,196.75
19:26:13:289,-0.3734,1.005,8.4181,56.0077,0.3406,0.9821,0.2639,196.5938
19:26:13:309,-0.3985,1.4192,7.3096,55.0909,0.4386,0.7469,0.3485,196.3125
19:26:13:334,-0.134,1.6179,7.1001,55.1924,0.326,0.3355,0.3619,195.9375
19:26:13:351,0.0049,1.5688,8.4193,53.8587,0.1675,-0.0249,0.3866,195.4688
19:26:13:369,0.3018,1.3641,9.7397,55.7802,0.171,-0.1053,0.4636,195.0156
19:26:13:389,0.6525,1.5125,9.6715,54.6414,0.2535,0.0164,0.5233,194.6094
19:26:13:410,1.937,1.7197,9.541,53.1067,0.0517,-0.154,0.3299,194.0938
19:26:13:432,2.3572,1.1534,10.3538,53.8085,-0.1268,-0.2901,0.1099,193.4844
19:26:13:450,2.4841,0.2388,11.3067,54.5802,-0.2794,-0.256,-0.0416,192.9688
19:26:13:474,2.4626,-0.4016,11.7113,52.9448,-0.4032,-0.0313,-0.085,192.6094
19:26:13:488,2.5499,-0.5764,11.4671,53.4409,-0.51,0.1528,-0.0967,192.5156
19:26:13:509,2.3895,-0.829,11.126,52.8208,-0.5995,0.0803,-0.1697,192.5938
19:26:13:534,2.2351,-1.2085,11.284,52.7496,-0.657,-0.1865,-0.2091,192.6875
19:26:13:557,2.3931,-1.3162,12.2489,52.8169,-0.6533,-0.3564,-0.1868,192.7656
19:26:13:570,3.0408,-1.4575,12.5302,52.2722,-0.5182,-0.1665,-0.1596,192.9531
19:26:13:588,3.9577,-1.2995,11.5509,52.1433,-0.4008,0.1296,-0.1915,193.2031
19:26:13:608,4.6329,-0.8326,10.4736,50.0389,-0.3878,0.2952,-0.3609,193.4375
19:26:13:631,4.5144,-0.6638,9.5685,51.812,-0.4538,0.2478,-0.6949,193.7344
19:26:13:651,3.3903,-0.7835,9.0215,51.0078,-0.5816,0.1488,-1.0126,194
19:26:13:668,1.9801,-0.8876,8.733,51.0443,-0.7273,0.1541,-1.1367,194.5625
19:26:13:688,0.5927,-0.7655,8.7066,50.8986,-0.7753,0.2385,-1.0771,195.5469
19:26:13:708,-0.4691,-0.3274,8.2613,50.7969,-0.6591,0.2609,-0.8677,196.7344
19:26:13:730,-0.7277,0.2939,7.7286,51.0438,-0.4759,0.1253,-0.5766,198
19:26:13:748,-0.3339,0.829,7.5514,48.931,-0.2815,-0.0627,-0.3444,199.1094
19:26:13:771,0.0145,1.1391,7.4126,50.7279,-0.094,-0.1687,-0.2374,199.9219
19:26:13:794,0.0863,1.3857,6.8978,49.3517,0.0192,-0.162,-0.1921,200.4062
19:26:13:808,0.1845,1.5401,6.6129,50.4716,-0.0309,-0.1279,-0.1873,200.7188
19:26:13:829,0.2635,1.576,7.1408,49.9962,-0.2016,-0.0792,-0.2142,200.9531
19:26:13:857,0.1713,1.7232,8.0482,50.5201,-0.3364,-0.0025,-0.2549,201.1562
19:26:13:867,0.2336,1.7496,9.0789,48.4746,-0.3385,-0.0243,-0.289,201.3906
19:26:13:888,0.6322,1.7328,10.5897,47.984,-0.2205,-0.1138,-0.3202,201.5156
19:26:13:908,1.0967,1.7005,11.9592,47.3957,0.0312,-0.0552,-0.374,201.8125
19:26:13:931,1.3481,1.418,11.5354,47.8287,0.2914,0.1861,-0.4712,202.125
19:26:13:951,0.9674,1.1893,10.7094,49.149,0.3324,0.3341,-0.542,202.4844
19:26:13:968,0.6286,0.9535,10.695,46.8415,0.2024,0.2971,-0.5186,202.9062
19:26:13:988,0.6226,0.5596,11.8203,45.815,0.0642,0.161,-0.4627,203.4219
19:26:14:011,0.6837,-0.082,12.7696,45.9409,0.0575,0.0952,-0.375,204.0469
19:26:14:032,0.8321,-0.4854,13.2891,48.5624,0.1585,0.0761,-0.2065,204.6406
19:26:14:051,1.0607,-0.1718,13.0521,45.9409,0.269,0.1224,-0.0206,205.375
19:26:14:069,1.4486,0.1024,12.4967,46.7786,0.2639,0.0891,0.0258,205.7188
19:26:14:092,1.3193,-0.0138,12.2105,45.7024,0.1113,-0.0472,-0.0339,205.8281
19:26:14:116,0.5652,-0.562,12.7696,44.844,-0.0128,-0.2334,-0.0382,205.8281
19:26:14:135,0.0145,-1.0445,13.0713,43.2164,0.1177,-0.211,0.1288,205.8281
19:26:14:150,0.212,-1.2372,11.7844,44.5586,0.4549,-0.0701,0.369,205.8906
