Time,Acc_X,Acc_Y,Acc_Z,Meg,Gyr_X,Gyr_Y,Gyr_Z,Ore
20:08:09:829,-3.1076,1.8621,8.5007,53.1773,-0.0083,0.409,0.2449,61.625
20:08:09:848,-2.3139,2.3589,8.6025,54.7046,0.0386,-0.0552,0.5097,61.625
20:08:09:867,-1.3849,2.8569,8.6743,54.965,0.0362,-0.3841,0.4039,61.625
20:08:09:887,-0.9671,3.064,8.9951,55.564,0.0083,-0.5341,0.2106,179.0781
20:08:09:913,-1.0833,2.73,9.444,55.1701,0.013,-0.4273,0.087,178.5312
20:08:09:929,-1.5274,2.3804,9.4069,54.7144,0.0208,-0.215,0.07,178.125
20:08:09:946,-1.9416,2.1494,9.1113,56.3163,-0.0075,-0.0337,0.1533,177.9688
20:08:09:966,-1.9308,2.1291,8.9377,54.8795,-0.0317,0.0231,0.2591,177.9219
20:08:09:986,-1.5154,2.4547,8.7677,56.0988,-0.0301,-0.0992,0.274,177.875
20:08:10:012,-1.0306,2.7216,8.7246,55.3501,-0.0128,-0.2491,0.1994,177.7031
20:08:10:030,-0.7026,2.7719,8.5307,54.9629,-0.012,-0.3682,0.0918,177.3906
20:08:10:046,-0.7385,2.7013,8.3295,54.3522,-0.0362,-0.5325,0.0053,177.1094
20:08:10:066,-0.7792,2.5636,8.4959,54.6334,-0.029,-0.7322,-0.0549,176.8594
20:08:10:087,-0.7708,2.4439,8.5977,53.3136,0.0448,-0.9288,-0.0568,176.8594
20:08:10:107,-0.79,2.3936,8.3822,53.3313,0.1196,-1.2236,-0.0299,176.9688
20:08:10:128,-0.6068,2.3349,8.2601,54.4166,0.1406,-1.4462,-0.0022,177.1562
20:08:10:146,-0.3997,2.0524,9.3902,55.0509,0.1318,-0.9274,0.0857,177.3594
20:08:10:169,0.1893,2.2404,8.9724,52.3366,-0.0234,-0.4395,0.1275,177.5625
20:08:10:187,0.3868,2.4307,8.8958,54.2805,-0.2948,0.0872,0.0804,177.7031
20:08:10:207,0.2299,2.584,9.1615,54.5706,-0.5385,0.4886,0.0196,177.7031
20:08:10:227,0.0001,2.5552,9.7002,53.6891,-0.5723,0.5965,0.0042,177.6094
20:08:10:247,-0.2417,2.5002,9.9971,54.1451,-0.432,0.4409,0.0503,177.4844
20:08:10:266,-0.3554,2.6642,9.9528,52.4734,-0.2711,0.2441,0.0561,177.3438
20:08:10:287,-0.2046,2.7899,9.7709,53.4491,-0.1433,0.013,0.0274,177.2188
20:08:10:307,-0.0514,2.8772,9.7074,53.1841,-0.0839,-0.0901,-0.0557,177.0625
20:08:10:326,-0.1016,2.8138,9.6906,54.9816,-0.0567,-0.1018,-0.1194,176.9531
20:08:10:347,-0.1519,2.6294,9.553,53.6223,-0.0352,-0.0829,-0.1734,176.9062
20:08:10:366,0.0791,2.4463,9.5051,53.626,0.0921,-0.2411,-0.2363,177.0156
20:08:10:387,-0.9959,2.5205,9.3878,52.7552,0.3787,-0.7285,-0.1471,177.1875
20:08:10:407,-1.3095,2.4427,9.0873,54.4911,0.6493,-1.2158,0.013,177.4375
20:08:10:426,-1.1108,2.5648,8.8527,52.5561,0.6828,-1.2726,0.1398,177.75
20:08:10:446,-0.3554,2.572,8.8874,53.3667,0.4996,-0.9266,0.1805,177.9844
20:08:10:466,-0.1244,2.6354,8.982,53.971,0.257,-0.4294,0.1954,178.1094
20:08:10:486,-0.1423,2.7827,8.982,54.119,0.0498,-0.0781,0.2423,178.0938
20:08:10:507,-0.1962,2.9778,8.9844,53.3671,-0.0743,0.0343,0.3043,178
20:08:10:526,0.0875,3.1609,8.9796,53.0544,-0.1012,-0.0616,0.3025,177.7969
20:08:10:546,0.2802,3.3776,8.9018,55.1858,-0.0796,-0.2496,0.2415,177.4688
20:08:10:566,0.5939,3.471,8.575,54.7594,-0.0887,-0.3809,0.1517,177.125
20:08:10:586,0.5328,3.4315,8.557,53.0853,-0.1675,-0.4177,0.0484,176.8281
20:08:10:607,0.2946,3.3561,8.8335,52.7538,-0.3065,-0.3663,-0.0477,176.6406
20:08:10:626,0.0707,3.2052,9.2741,53.514,-0.4397,-0.2475,-0.1095,176.5781
20:08:10:646,-0.2752,3.0771,9.7816,53.8634,-0.51,-0.125,-0.133,176.625
20:08:10:667,-0.5553,3.0353,9.8008,54.9757,-0.4887,-0.052,-0.114,176.7344
20:08:10:686,-0.4787,2.9969,10.3191,53.73,-0.4352,-0.1391,-0.0677,176.9531
20:08:10:708,-0.0885,2.9982,10.8243,54.0767,-0.3587,-0.2081,-0.0182,177.0156
20:08:10:727,0.1318,3.0748,10.8135,52.9398,-0.2509,-0.1642,-0.015,177.1562
20:08:10:746,-0.11,2.9862,10.3957,55.1639,-0.1635,-0.0358,-0.0643,177.1719
20:08:10:766,-0.5434,2.7013,9.7673,53.6303,-0.1118,0.1155,-0.1047,177.1875
20:08:10:786,-0.8355,2.4571,9.3351,53.6255,-0.1039,0.2337,-0.0512,177.2344
20:08:10:807,-0.7744,2.4618,9.3148,54.6753,-0.1153,0.2569,0.082,177.3438
20:08:10:852,-0.3267,2.5983,9.5602,54.2651,-0.0919,0.2031,0.2218,177.4219
20:08:10:852,0.5137,2.6749,9.7086,53.9074,-0.0146,0.1248,0.2833,177.375
20:08:10:865,-0.207,2.8461,9.28,53.0244,0.0943,0.0521,0.2039,177.1875
20:08:10:885,0.06,2.6366,8.8347,53.7953,0.1342,0.0412,0.185,176.6875
20:08:10:908,0.2048,2.748,8.891,54.7716,0.0621,0.0268,0.2407,176.4688
20:08:10:926,0.3832,2.8413,9.0382,54.1185,0.0003,-0.0164,0.2263,176.25
20:08:10:946,0.6274,2.8222,9.219,52.4974,-0.0405,-0.0821,0.2042,175.9844
20:08:10:966,0.8034,2.8581,9.3722,54.604,-0.0551,-0.1024,0.1573,175.7344
20:08:10:986,1.0775,2.9419,9.3902,54.3064,-0.0599,-0.0699,0.0913,175.5156
20:08:11:008,1.4259,3.0257,8.7521,54.2387,-0.1124,0.1333,-0.0126,175.3438
20:08:11:025,1.3109,3.0532,8.2601,54.431,-0.3404,0.5608,-0.1812,175.25
20:08:11:046,0.8261,2.876,8.563,54.8553,-0.6376,0.8636,-0.3596,175.25
20:08:11:066,0.3748,2.7408,9.2166,54.9962,-0.7782,0.9099,-0.4762,175.3906
20:08:11:086,0.1569,2.6067,10.1324,54.5537,-0.6855,0.7189,-0.5308,175.7031
20:08:11:107,-0.1088,2.548,10.2653,53.4887,-0.3896,0.426,-0.541,175.875
20:08:11:131,-0.2417,2.6785,9.8247,53.5781,-0.0671,0.1608,-0.5183,176.3594
20:08:11:149,-0.1699,2.7324,9.389,54.9813,0.1193,-0.0914,-0.4994,176.9062
20:08:11:169,0.06,2.8365,9.7864,55.407,0.1049,-0.3508,-0.5268,177.4844
20:08:11:186,0.4814,2.7492,10.7621,54.5567,-0.0503,-0.5016,-0.6067,178.0312
20:08:11:206,0.4071,2.4247,11.7066,54.2755,-0.1976,-0.4262,-0.7463,178.9531
20:08:11:233,-0.1998,2.0249,11.9747,54.0582,-0.2378,-0.1378,-0.8592,179.6406
20:08:11:251,-0.9061,1.6526,11.2864,54.8729,-0.1465,0.2177,-0.839,180.5
20:08:11:268,-1.2209,1.6837,10.2162,55.2405,0.0903,0.6633,-0.411,181.4844
20:08:11:287,-0.8199,1.8753,9.5757,52.9815,0.1156,0.7674,-0.2549,183.1094
20:08:11:309,-0.541,2.1566,9.4572,55.369,0.1329,0.8593,-0.2049,183.1094
20:08:11:326,-0.462,2.2416,9.4201,54.7217,0.2155,0.7661,-0.2184,183.5625
20:08:11:348,-0.3411,2.0477,9.2477,55.6552,0.3406,0.4638,-0.2493,184.0156
20:08:11:365,-0.1723,1.6981,9.1136,55.2025,0.44,0.0588,-0.2893,184.0156
20:08:11:386,-0.2668,1.3785,9.0406,54.2707,0.4328,-0.2443,-0.2691,184.25
20:08:11:409,0.0875,1.0409,9.2142,56.1381,0.3419,-0.3426,-0.3079,184.5469
20:08:11:426,0.0695,0.6554,9.3016,54.9881,0.2282,-0.1825,-0.3295,184.9375
20:08:11:449,-0.1435,0.3538,9.0047,54.3829,0.131,0.1048,-0.289,185.2812
20:08:11:466,-0.4033,0.3729,8.1835,56.1746,0.0341,0.3277,-0.2107,185.9062
20:08:11:486,-0.711,0.6602,7.3922,52.8203,-0.0746,0.3837,-0.1212,186.2969
20:08:11:508,-1.0545,0.841,7.0379,55.5789,-0.1433,0.2865,-0.0011,186.5625
20:08:11:529,-1.0497,1.0361,6.8428,55.579,-0.1872,0.0849,0.128,186.7188
20:08:11:546,-0.8606,1.4144,6.8751,55.3885,-0.2333,-0.2225,0.2095,186.75
20:08:11:568,-0.541,1.8585,7.2941,55.8137,-0.3081,-0.509,0.1946,186.6562
20:08:11:587,-0.1866,2.0249,8.0937,55.255,-0.4184,-0.618,0.1011,186.4219
20:08:11:610,-0.1723,1.9543,8.9281,54.976,-0.539,-0.4904,0.0039,186.2969
20:08:11:627,-0.4704,1.7975,9.8738,53.8959,-0.62,-0.2129,-0.0312,186.0625
20:08:11:646,-0.8522,1.7927,10.5107,54.2715,-0.5995,0.0534,-0.0014,185.9531
20:08:11:666,-1.106,1.8262,10.6148,55.5314,-0.4924,0.1709,0.0836,185.9219
20:08:11:687,-0.9767,1.8932,10.4628,54.061,-0.327,0.202,0.1941,185.9062
20:08:11:709,-0.7182,2.2081,9.8355,55.3384,-0.184,0.1767,0.2529,185.8438
20:08:11:726,-0.456,2.4152,9.2154,53.8875,-0.1095,0.1618,0.2612,185.7031
20:08:11:807,-0.2273,2.5851,8.6803,55.1588,-0.1015,0.1706,0.2388,185.4375
20:08:11:808,-0.1268,2.7994,8.1787,55.752,-0.1694,0.1397,0.18,184.9844
20:08:11:808,-0.1447,2.8916,8.3511,56.4349,-0.2349,0.0793,0.1094,184.6719
20:08:11:808,-0.3231,2.8593,8.8419,56.6392,-0.249,0.0787,0.0639,184.4062
20:08:11:830,-0.6116,2.7647,9.1328,55.513,-0.2626,0.1171,0.0705,184.2344
20:08:11:847,-0.9013,2.7396,9.529,53.6917,-0.277,0.1767,0.1214,184.1094
20:08:11:865,-1.0725,2.7599,10.0869,55.164,-0.2469,0.2084,0.1898,184.0156
20:08:11:886,-1.1587,2.7336,10.8877,55.8924,-0.13,0.2327,0.2764,183.9531
20:08:11:909,-1.1611,2.633,11.2193,54.3147,0.021,0.2489,0.3853,183.7812
20:08:11:926,-1.0737,2.5732,11.205,56.8717,0.1523,0.1996,0.5097,183.5312
20:08:11:946,-0.5865,2.6223,11.2517,55.2808,0.2533,0.0854,0.5667,183
20:08:11:966,0.4658,2.4966,11.0769,54.7858,0.2908,0.0177,0.4881,182.5312
20:08:11:986,0.2838,2.5145,11.2708,56.8685,0.2157,-0.0246,0.3139,181.9219
20:08:12:009,0.0899,2.1506,12.2872,54.3388,0.0924,-0.1346,0.1158,181.3281
20:08:12:026,-0.5123,1.4323,12.8474,55.4485,0.0772,-0.2875,-0.0885,180.9062
20:08:12:047,-1.1491,0.7847,12.9528,53.939,0.147,-0.3554,-0.1817,180.6875
20:08:12:065,-1.5501,0.1909,12.7935,55.2959,0.225,-0.3026,-0.1311,180.6875
20:08:12:085,-1.5597,-0.1215,11.8658,55.5129,0.339,-0.0997,0.0364,180.8906
20:08:12:105,-1.2832,0.0437,10.0007,55.1823,0.4863,0.1581,0.2788,181.1094
20:08:12:125,-0.7301,0.3957,8.2254,56.3233,0.5808,0.2193,0.4788,181.2188
20:08:12:147,-0.2465,0.7703,7.2055,55.5546,0.5846,-0.015,0.568,181.0781
20:08:12:165,-0.0813,1.0349,7.3874,54.8799,0.4892,-0.4417,0.5246,180.7031
20:08:12:185,-0.2022,1.0229,8.4122,55.6803,0.3641,-0.8188,0.4021,180.1562
20:08:12:206,-0.5206,0.9715,9.0598,54.7554,0.3057,-0.9804,0.279,179.5781
20:08:12:226,-0.7206,0.8697,9.2286,54.9951,0.2772,-0.8717,0.2218,179.125
20:08:12:247,-0.7924,0.8074,9.0478,55.5858,0.2328,-0.5887,0.2287,178.7656
20:08:12:265,-0.9492,0.9367,8.3714,55.6425,0.2067,-0.259,0.2689,178.5938
20:08:12:285,-0.8259,1.2205,7.5263,54.424,0.175,-0.0289,0.3467,178.4062
20:08:12:305,-0.5601,1.5808,7.057,54.3893,0.1233,0.0319,0.4189,178.1406
20:08:12:325,-0.2896,1.9722,6.8439,55.723,0.0868,-0.0281,0.4423,177.75
20:08:12:345,-0.0993,2.2883,6.7877,53.658,0.0612,-0.1367,0.4165,177.2812
20:08:12:365,0.0875,2.5983,6.9313,52.7657,0.0075,-0.2113,0.3667,176.7969
20:08:12:386,0.2695,2.9144,7.1995,53.8849,-0.0506,-0.244,0.2987,176.3438
20:08:12:409,0.3221,3.1286,7.5454,54.1862,-0.0972,-0.2707,0.2071,175.9375
20:08:12:426,0.2479,3.2244,7.998,52.0773,-0.1388,-0.2699,0.1059,175.7656
20:08:12:445,0.2108,3.2914,8.3954,51.8561,-0.1609,-0.2164,0.0356,175.5
20:08:12:465,0.2024,3.4195,8.6228,52.8288,-0.1641,-0.1389,-0.0118,175.3438
20:08:12:485,0.1318,3.465,8.8718,54.4246,-0.1646,-0.0984,-0.0587,175.2969
20:08:12:505,0.0983,3.4219,9.3495,53.7101,-0.1643,-0.1189,-0.0941,175.2812
20:08:12:525,0.0755,3.1837,10.0474,53.2608,-0.1601,-0.1948,-0.1252,175.3125
20:08:12:548,0.2455,2.9383,10.9967,52.9548,-0.1744,-0.2688,-0.1335,175.4688
20:08:12:565,0.8345,2.4882,12.286,54.1137,-0.1989,-0.2936,-0.1167,175.6094
20:08:12:585,1.7227,1.9698,12.8558,51.4667,-0.1638,-0.2385,-0.0885,175.7812
20:08:12:605,2.5811,1.8082,12.5493,52.549,-0.0999,-0.1322,-0.0595,175.9219
20:08:12:625,3.2886,1.6921,11.6431,52.6332,-0.0703,-0.0515,-0.097,176.0312
20:08:12:645,2.9115,1.4611,11.1152,51.1269,-0.1254,-0.1381,-0.2832,176.1094
20:08:12:665,2.356,0.9906,11.8442,51.6711,-0.2455,-0.4142,-0.5066,176.2188
20:08:12:686,1.6797,0.1766,12.596,50.1056,-0.2165,-0.3434,-0.6925,176.5469
20:08:12:706,1.1733,-0.3777,12.3291,50.7126,-0.0477,0.1048,-0.5796,176.5469
20:08:12:725,1.0045,-0.2209,10.4412,49.9421,0.0818,0.341,-0.4371,177.1094
20:08:12:744,1.433,0.3178,8.4098,50.5406,0.0791,0.0582,-0.3881,177.8906
20:08:12:765,1.9729,0.7655,7.8543,51.7952,-0.0043,-0.4781,-0.464,179.3281
20:08:12:785,2.1549,0.993,8.818,50.7019,-0.0732,-0.769,-0.6027,179.8125
20:08:12:806,1.8568,0.9212,9.8487,49.9166,-0.0756,-0.6382,-0.7031,180.7812
20:08:12:826,1.2331,0.9092,10.1408,49.8623,-0.0146,-0.271,-0.7069,181.125
20:08:12:845,0.8848,1.0469,9.3219,50.9158,0.0099,0.1368,-0.6547,181.9375
20:08:12:865,0.7782,1.4563,7.9944,50.9389,-0.0479,0.3866,-0.6142,182.7812
20:08:12:885,0.7256,1.807,7.2162,50.7363,-0.0629,0.401,-0.6014,183.1875
20:08:12:906,0.6765,2.0225,6.7805,48.878,-0.0045,0.2769,-0.5905,183.8906
20:08:12:925,0.6873,2.2212,6.4118,48.1426,0.0405,0.1096,-0.586,184.5625
20:08:12:945,0.7507,2.469,6.2322,49.3625,0.0189,-0.0366,-0.6121,185.2344
20:08:12:965,0.7926,2.6438,6.4429,47.764,-0.0589,-0.1037,-0.6576,185.8594
20:08:12:984,0.8213,2.7049,7.1348,49.0894,-0.1313,-0.0704,-0.6954,186.5312
20:08:13:005,0.8536,2.748,8.0231,49.333,-0.1478,0.0385,-0.7157,187.2344
20:08:13:026,0.7639,2.8437,8.7007,47.3605,-0.1286,0.1469,-0.7215,187.9844
20:08:13:044,0.6059,2.9299,9.2525,47.0194,-0.0898,0.2415,-0.7138,188.75
20:08:13:065,0.303,2.9826,9.6918,46.6293,-0.0509,0.32,-0.676,189.5625
20:08:13:085,-0.1591,3.0293,10.0689,46.9291,0.004,0.3522,-0.5937,190.375
20:08:13:104,-0.4823,2.9742,10.3981,46.945,0.077,0.3171,-0.4608,191.5312
20:08:13:124,-0.699,2.9371,10.7345,46.3579,0.1401,0.2497,-0.2989,192.25
20:08:13:144,-0.7169,2.9311,11.2086,46.723,0.1926,0.1552,-0.1428,192.8438
20:08:13:165,-0.3578,2.6833,11.7497,47.5772,0.2562,0.1357,-0.0168,193.25
20:08:13:184,0.1043,2.4619,11.6467,47.7995,0.2402,0.2484,0.0479,193.5
20:08:13:209,0.1785,2.6522,11.1583,45.6237,0.0975,0.3916,0.0583,193.5781
20:08:13:226,0.0145,2.8796,10.9273,45.7545,-0.077,0.4143,0.0079,193.5625
20:08:13:245,-0.4117,2.6426,11.1308,46.6951,-0.1574,0.2132,-0.0397,193.4844
20:08:13:266,-1.0845,1.91,11.5067,44.255,-0.147,-0.1274,0.0324,193.4219
20:08:13:285,-1.5561,1.2564,12.122,43.9585,-0.0623,-0.357,0.2098,193.4219
20:08:13:306,-1.6196,0.7332,12.4141,43.7725,0.0716,-0.4377,0.4303,193.4375
20:08:13:327,-1.0869,0.4735,12.0777,43.6298,0.1467,-0.4233,0.613,193.3125
20:08:13:347,-0.1723,0.5596,11.5797,44.8961,0.1545,-0.4454,0.6434,192.9688
20:08:13:366,0.7076,0.4364,11.0841,43.8888,0.1715,-0.4009,0.5424,192.4062
20:08:13:388,0.5065,0.4902,10.0462,43.743,0.2117,-0.1698,0.4449,191.6875
20:08:13:410,0.3987,0.6578,8.4672,43.5916,0.2666,0.0881,0.4186,191.3438
20:08:13:428,0.4131,0.9092,7.0032,44.7008,0.2956,0.2241,0.4194,190.5312
20:08:13:445,0.5616,1.2001,6.2466,44.1229,0.281,0.1711,0.4255,190.0469
20:08:13:464,0.698,1.3318,6.0227,43.0029,0.2658,0.002,0.4042,189.5781
20:08:13:484,0.6418,1.3485,6.2526,44.971,0.2626,-0.19,0.3739,189.0781
20:08:13:504,0.5173,1.5066,6.9074,43.2612,0.24,-0.2688,0.3677,188.625
20:08:13:525,0.3952,1.6538,7.1791,43.2612,0.2506,-0.2241,0.3824,188.2031
20:08:13:544,0.1749,1.8334,7.1504,43.4981,0.274,-0.1927,0.3922,187.8125
20:08:13:564,0.2324,2.0716,7.4676,42.6655,0.2639,-0.2843,0.4212,187.4219
20:08:13:585,0.7136,2.5397,7.8052,42.4862,0.2519,-0.406,0.4718,187.0156
20:08:13:605,1.3433,3.0724,8.4648,41.599,0.2338,-0.4856,0.466,186.5781
20:08:13:626,1.7191,3.4363,8.5474,42.5538,0.2525,-0.4544,0.348,186.125
20:08:13:645,1.6342,3.5799,7.7621,41.6709,0.2535,-0.2923,0.128,185.625
20:08:13:665,1.3935,3.2507,7.7083,42.0656,0.0988,-0.1974,-0.1175,185.1875
20:08:13:686,1.2894,2.5624,9.1364,41.4983,-0.1808,-0.2622,-0.2943,184.9219
20:08:13:706,1.3648,1.8441,10.9021,42.7377,-0.4053,-0.3032,-0.3492,185.0625
20:08:13:725,1.9789,1.169,12.0382,41.2015,-0.5017,-0.248,-0.2762,185.4375
20:08:13:744,2.9067,0.8194,12.0537,39.6745,-0.4924,-0.1359,-0.1263,185.8594
20:08:13:766,3.6489,0.8913,11.0733,40.8445,-0.4679,-0.1117,-0.0214,186.1875
20:08:13:786,3.7075,1.1343,10.9105,42.8986,-0.5444,-0.3959,-0.0683,186.3438
20:08:13:804,3.1748,0.7787,12.6223,41.9499,-0.7441,-0.8321,-0.2603,186.3906
20:08:13:826,1.9681,-0.0497,14.4419,41.8229,-0.853,-0.8819,-0.4438,186.5
20:08:13:885,1.105,-0.7165,13.7548,40.7772,-0.6874,-0.3399,-0.435,186.875
20:08:13:885,1.3744,-0.2927,10.3706,41.9583,-0.3393,0.3387,-0.2083,187.4531
20:08:13:885,2.526,0.5752,7.6113,40.865,-0.1494,0.4894,0.0191,188
20:08:13:906,3.1401,1.3198,7.0858,41.3824,-0.1569,-0.0435,-0.0019,188.1406
20:08:13:925,3.2658,1.6789,8.5331,40.5192,-0.2764,-0.7237,-0.224,188.2188
20:08:13:948,3.0958,1.3402,9.395,41.9342,-0.3622,-0.8534,-0.5271,188.1562
20:08:13:965,1.9634,1.0876,9.1974,41.6538,-0.4029,-0.4888,-0.8507,188.2812
20:08:13:985,0.8728,0.8649,8.5773,41.1452,-0.5601,0.2532,-1.0374,188.75
20:08:14:006,0.1689,0.9032,8.2661,41.3443,-0.6685,0.7704,-1.043,190.125
20:08:14:026,-0.1795,1.0636,7.6089,40.8478,-0.576,0.9328,-0.9428,191.2812
20:08:14:047,-0.4859,1.4084,6.656,41.294,-0.3507,0.8098,-0.7974,192.4844
20:08:14:064,-0.304,1.7376,6.1688,41.282,-0.0636,0.0817,-0.4944,193.5781
20:08:14:085,0.1162,2.074,6.4573,40.6597,-0.0226,-0.2757,-0.4304,194.4844
20:08:14:105,0.5663,2.299,7.2665,41.6441,-0.0298,-0.4385,-0.4454,195.1719
20:08:14:125,0.8465,2.3517,8.1931,40.915,-0.0892,-0.3668,-0.485,195.7344
20:08:14:144,0.7507,2.2212,9.1292,39.5673,-0.1835,-0.0752,-0.4869,196.2188
20:08:14:164,0.5484,2.256,10.0007,42.0302,-0.2261,0.2494,-0.4411,196.7188
20:08:14:184,0.4275,2.3936,10.5418,42.1275,-0.184,0.5016,-0.3966,197.2812
20:08:14:204,0.2144,2.4642,10.2102,42.8134,-0.1507,0.5978,-0.3274,197.8438
20:08:14:226,0.0456,2.5995,9.9181,44.3963,-0.2051,0.5381,-0.2531,198.3281
20:08:14:247,0.1138,2.7132,10.5226,42.5826,-0.3188,0.5134,-0.2256,199.3125
20:08:14:264,0.0707,2.6223,11.6108,45.4748,-0.4226,0.6524,-0.2248,199.3125
20:08:14:284,-0.207,2.3733,12.6319,43.5467,-0.4724,0.7738,-0.2094,199.5781
20:08:14:304,-0.4835,2.1374,13.5477,42.5345,-0.4898,0.813,-0.1697,199.8438
20:08:14:326,-0.7816,1.7843,14.6191,43.5325,-0.3372,0.6175,-0.0975,200.0938
20:08:14:344,-1.282,1.1941,15.2296,45.2845,-0.0996,0.3214,0.0479,200.2188
20:08:14:367,-1.7249,0.3166,15.7288,45.1252,0.232,0.1751,0.3299,200.4062
20:08:14:385,-1.707,-0.3849,15.1231,44.0657,0.5976,0.2859,0.6908,200.5156
20:08:14:404,-1.1766,-0.5333,12.772,45.1806,0.7997,0.3418,1.0063,200.4688
20:08:14:426,-0.043,-0.3992,10.361,45.6531,0.7984,0.0872,1.1592,200.125
20:08:14:445,1.0093,-0.1826,9.298,46.8895,0.7036,-0.3543,1.1406,199.375
20:08:14:464,1.4247,0.0605,9.6152,45.8826,0.6717,-0.6488,1.0023,198.2656
20:08:14:484,0.8118,0.0569,9.8954,45.3192,0.7287,-0.6132,0.9233,196.9688
20:08:14:504,0.3856,-0.1059,9.1759,45.6344,0.7649,-0.3125,0.9696,195.7656
20:08:14:527,0.3509,0.1,7.7071,45.9586,0.7286,-0.0195,1.0074,194.6406
20:08:14:544,0.3197,0.3418,6.3244,45.7053,0.6525,0.0734,1.0125,193.0938
20:08:14:565,0.3401,0.5321,5.2889,47.9212,0.5601,-0.0249,1.0194,192.0312
20:08:14:586,0.4849,0.677,4.8975,47.227,0.4695,-0.2369,1.0082,190.8906
20:08:14:603,0.7088,0.9332,5.156,47.0548,0.3934,-0.4422,0.96,189.7344
20:08:14:624,0.9925,1.0181,5.8671,47.9198,0.334,-0.5152,0.8743,188.6562
20:08:14:648,1.0631,1.1163,6.6979,45.7535,0.3137,-0.4238,0.7938,187.5469
20:08:14:666,1.0811,1.2504,7.1001,48.5149,0.2991,-0.308,0.7067,186.5312
20:08:14:686,1.1445,1.5604,7.1803,46.9771,0.2293,-0.2483,0.5973,185.6562
20:08:14:704,1.3923,1.9136,7.4233,48.1408,0.1081,-0.2654,0.4223,184.8281
20:08:14:734,1.603,2.086,8.0674,48.5284,-0.0256,-0.2864,0.1922,184.0938
20:08:14:749,1.8281,1.7699,8.8491,49.8565,-0.1848,-0.2931,-0.0254,183.5156
20:08:14:766,1.943,0.4519,11.6096,47.0675,-0.3657,-0.2009,-0.171,183.2031
20:08:14:785,2.0208,-0.0569,12.7109,49.1088,-0.4629,0.0279,-0.2067,183.1406
20:08:14:804,2.5667,-0.1466,11.7844,46.8671,-0.3816,0.3424,-0.1476,183.2031
20:08:14:827,3.3652,0.1969,9.8738,47.2321,-0.2794,0.4827,-0.1023,183.5312
20:08:14:844,4.3157,0.7416,8.5678,48.2686,-0.3254,0.2353,-0.1801,183.75
20:08:14:863,4.9441,1.0529,9.3974,46.5575,-0.5872,-0.386,-0.4589,183.8438
20:08:14:883,4.3396,0.1263,12.031,49.3362,-0.9622,-0.9716,-0.9428,183.9688
20:08:14:904,2.1154,-1.2264,14.5533,51.1142,-1.1502,-0.9679,-1.3434,184.2812
20:08:14:925,0.5352,-1.728,13.7464,49.8155,-0.9643,-0.2915,-1.2917,185.125
20:08:14:943,0.9901,-0.999,10.8399,50.5615,-0.6647,0.4337,-0.8443,186.5469
20:08:14:965,2.3129,0.1562,9.2417,49.3101,-0.5135,0.4734,-0.4283,188.1094
20:08:14:983,3.5507,1.06,9.5231,48.6737,-0.4288,-0.067,-0.2888,189.3906
20:08:15:004,3.4226,1.4862,9.5793,50.0221,-0.2802,-0.5455,-0.4299,190.0938
20:08:15:026,2.3572,1.2372,8.8946,50.499,-0.167,-0.5841,-0.7005,190.4531
20:08:15:044,1.4977,1.1139,7.7525,49.976,-0.1529,-0.3026,-0.8446,191.125
20:08:15:065,1.0871,1.309,6.8487,49.4695,-0.2195,0.0297,-0.8725,191.9375
20:08:15:083,0.8225,1.5724,6.4573,50.34,-0.3044,0.2353,-0.8723,192.8594
20:08:15:103,0.6801,1.8633,6.5483,49.0223,-0.3553,0.2588,-0.8672,193.875
20:08:15:123,0.5017,2.0644,7.2737,51.5942,-0.3593,0.1264,-0.8699,194.875
20:08:15:143,0.2443,2.0441,8.0039,50.348,-0.3071,-0.0318,-0.8701,195.8906
20:08:15:164,0.1282,2.2188,8.7845,50.5842,-0.2426,-0.0805,-0.8227,196.8438
20:08:15:184,0.1162,2.3146,9.5386,49.6045,-0.1691,-0.0677,-0.7551,197.8594
20:08:15:203,0.1988,2.3792,10.4113,50.649,-0.0828,-0.0789,-0.689,198.8125
20:08:15:226,0.1629,2.2272,11.4241,50.8099,-0.0226,0.0103,-0.6264,199.2031
20:08:15:243,0.0324,2.0907,11.8586,50.759,0.0575,0.2167,-0.5484,200.0312
20:08:15:264,-0.128,1.7867,11.6144,51.8621,0.1704,0.4521,-0.4315,200.7969
20:08:15:285,-0.1998,1.6323,11.1032,50.0451,0.249,0.6393,-0.2584,201.4688
20:08:15:307,0.2982,1.576,10.9177,50.8368,0.2812,0.6292,-0.0381,202
20:08:15:328,0.9279,1.6777,10.6747,51.6441,0.2823,0.467,0.1299,202.4062
20:08:15:344,1.5085,1.9243,10.4592,51.4303,0.1603,0.2891,0.1741,202.5781
20:08:15:364,1.6808,1.983,12.3231,50.2331,-0.1699,-0.0845,0.0793,202.4219
20:08:15:384,0.8632,0.9882,16.0185,51.5381,-0.4908,-0.5607,-0.1007,202.2344
20:08:15:405,-0.5338,-0.41,18.9406,50.5406,-0.4447,-0.5104,-0.1516,202.1406
20:08:15:427,-1.2628,-1.1797,16.2484,52.0137,0.1614,0.1751,0.1275,202.25
20:08:15:443,-0.8403,-0.5788,10.774,49.4077,0.7963,0.8737,0.6332,202.4219
20:08:15:468,0.5173,0.1802,7.7059,49.473,0.9446,0.8971,1.0524,202.2812
20:08:15:484,1.8149,0.5465,7.5885,49.9255,0.6943,-0.5208,1.1169,201.5938
20:08:15:505,2.2638,0.7057,8.715,51.0656,0.6855,-1.0166,0.9169,201.5938
20:08:15:528,1.8257,0.6961,9.4189,51.2547,0.6746,-1.1,0.7403,200.3906
20:08:15:547,1.1122,0.7153,9.4584,51.2547,0.5981,-0.8092,0.6641,197.7344
20:08:15:563,0.8321,0.6794,9.0059,50.581,0.4844,-0.3724,0.6343,196.7656
20:08:15:584,0.7459,0.6387,8.5761,47.039,0.44,0.0537,0.6234,195.9375
20:08:15:605,0.4957,0.7057,7.5658,49.4213,0.4711,0.2958,0.6631,194.5
20:08:15:627,0.2647,0.7775,6.322,49.5613,0.4978,0.2652,0.7424,194.1406
20:08:15:648,0.4203,0.9822,5.5092,48.1371,0.4922,0.0758,0.8018,193.375
20:08:15:664,0.795,1.2552,5.2506,47.8884,0.4751,-0.1287,0.8085,192.5312
20:08:15:684,1.2188,1.2863,5.3284,46.7952,0.4637,-0.2829,0.7752,192.0938
20:08:15:703,1.3971,1.3461,5.6516,48.0684,0.4346,-0.3088,0.7355,191.1875
20:08:15:726,1.6749,1.5544,5.8563,48.8391,0.3606,-0.2574,0.6537,190.25
20:08:15:745,2.028,1.8956,6.0239,47.1501,0.2408,-0.2094,0.495,189.375
20:08:15:766,2.2315,2.1243,6.4058,47.3554,0.1049,-0.1346,0.3027,188.5781
20:08:15:784,2.2997,2.226,6.9134,46.8769,-0.0304,-0.0398,0.1118,187.8281
20:08:15:804,2.4398,2.2823,7.4341,46.2886,-0.1851,-0.014,-0.0981,187.2656
20:08:15:828,2.7056,2.1123,8.1979,44.3163,-0.3904,-0.0321,-0.3231,186.9375
20:08:15:846,2.7175,1.4276,9.4907,44.2858,-0.6035,0.0753,-0.4754,186.8281
20:08:15:865,2.3129,0.3717,10.8518,45.9798,-0.6999,0.3245,-0.4291,186.9375
20:08:15:883,2.2662,-0.2197,11.1786,45.5057,-0.6959,0.4396,-0.2611,187.875
20:08:15:943,3.589,-0.4447,10.6016,47.3745,-0.7409,0.071,-0.2619,188.3906
20:08:15:943,4.694,-0.483,10.525,45.1383,-0.9505,-0.5735,-0.4824,188.5625
20:08:15:943,4.7119,-0.8386,11.9101,44.8383,-1.2346,-0.8299,-0.8022,188.8438
20:08:15:964,2.8336,-1.8693,14.2049,46.0664,-1.3803,-0.2542,-0.8297,189.2656
20:08:15:984,0.4837,-2.6163,15.0345,44.0106,-1.2394,0.6747,-0.3742,190.1094
20:08:16:006,0.5544,-2.1817,13.0808,45.0884,-0.9563,0.9973,0.1978,191.2031
20:08:16:027,2.6194,-0.8865,10.4448,43.7465,-0.7982,0.4681,0.4465,191.9844
20:08:16:043,4.4665,0.5573,9.541,44.6568,-0.7159,-0.3714,0.3283,192.125
20:08:16:063,4.7275,1.7196,10.0989,42.2888,-0.6229,-0.8497,-0.0323,191.75
20:08:16:084,3.9003,1.6861,10.8135,42.5333,-0.5084,-0.6555,-0.3609,191.3125
20:08:16:103,2.4015,1.1797,10.4724,44.5076,-0.3925,-0.0417,-0.4645,191.125
20:08:16:127,1.2104,1.0912,9.0155,42.823,-0.314,0.4851,-0.3668,191.375
20:08:16:144,0.971,1.4311,7.5011,44.0962,-0.2437,0.6295,-0.2592,191.9062
20:08:16:164,1.4295,2.1757,6.231,43.5588,-0.1241,0.4753,-0.2099,192.4062
20:08:16:185,1.7778,2.4762,6.1484,43.5062,-0.0173,0.2146,-0.2251,192.7969
20:08:16:205,1.9897,2.657,6.5746,42.4049,-0.0003,-0.0022,-0.3159,193.0938
20:08:16:228,1.9442,2.4223,7.7454,41.7521,-0.0698,-0.1154,-0.4757,193.4844
20:08:16:244,1.8197,2.1099,9.2848,42.9143,-0.1505,-0.1117,-0.5982,193.6406
20:08:16:270,1.4702,1.904,10.5849,41.8231,-0.1627,0.0297,-0.6563,194.0781
20:08:16:286,0.9913,1.728,11.4097,41.5493,-0.0951,0.2907,-0.6627,194.6719
20:08:16:303,0.7076,1.5808,11.1894,40.3406,0.0269,0.6484,-0.6025,195.4062
20:08:16:323,0.5328,1.4527,10.2964,40.9345,0.1521,0.891,-0.4997,196.1875
20:08:16:343,0.2719,1.394,9.9959,40.4762,0.1878,0.8433,-0.3588,196.9375
20:08:16:368,0.467,1.1331,11.1583,39.5958,0.1481,0.4974,-0.1796,197.5781
20:08:16:383,0.7926,0.5225,13.173,40.6675,0.1491,0.0375,0.0106,198.125
20:08:16:403,1.2583,0.1143,14.5102,38.4541,0.2498,-0.1567,0.2367,198.4688
20:08:16:425,1.6162,0.5692,14.0457,39.3345,0.4469,-0.0792,0.4788,198.5625
20:08:16:443,2.1944,1.2564,12.9647,38.2472,0.5177,0.0915,0.6194,198.4375
20:08:16:463,2.1513,1.1726,13.197,38.5518,0.3358,0.1789,0.556,198
20:08:16:487,1.056,0.5369,14.2205,37.7286,0.1987,0.0915,0.4087,197.3438
20:08:16:502,0.8022,0.0222,14.4228,37.3079,0.3731,-0.1194,0.4465,196.3906
20:08:16:523,1.226,-0.343,12.9647,36.7965,0.7241,-0.2113,0.5781,195.9219
20:08:16:543,1.5492,-0.4064,10.6411,37.0248,0.9718,-0.1844,0.6231,195.4219
20:08:16:566,1.6581,-0.2245,9.6272,36.7229,0.946,-0.2931,0.5885,194.75
20:08:16:583,1.0093,-0.0676,9.5171,38.1174,0.7976,-0.4201,0.4559,194.0156
20:08:16:603,0.4658,-0.161,9.1244,38.3293,0.722,-0.418,0.3643,193.3281
20:08:16:625,0.4382,-0.1838,8.2769,38.2604,0.7374,-0.3237,0.4093,192.8281
20:08:16:644,0.6849,0.2304,7.1516,37.0089,0.8211,-0.252,0.5406,192.4062
20:08:16:663,1.3828,0.7249,6.0239,37.6832,0.9257,-0.3239,0.6854,191.9219
20:08:16:683,1.9801,1.2468,5.1237,37.902,0.9718,-0.5058,0.7193,191.625
20:08:16:703,2.3105,1.5724,4.9238,37.7215,0.9004,-0.7229,0.6077,190.9375
20:08:16:723,2.2016,1.5592,5.3679,35.5524,0.7417,-0.884,0.3967,190.0938
20:08:16:744,1.8077,1.2013,6.0455,38.3587,0.5542,-0.8587,0.1778,189.2969
20:08:16:763,1.3732,0.8984,6.5674,36.8104,0.3907,-0.6686,0.0607,188.7656
20:08:16:785,1.281,0.8745,7.0187,37.7547,0.2629,-0.4126,0.0748,188.4688
20:08:16:804,1.524,1.1235,7.3204,37.7073,0.196,-0.2632,0.1509,188.375
20:08:16:827,1.8293,1.333,7.8184,38.9289,0.1838,-0.2837,0.1826,188.2969
20:08:16:844,2.186,1.4994,8.0219,38.7665,0.1992,-0.3186,0.1595,188.1406
20:08:16:867,2.4901,1.6538,7.895,38.141,0.1593,-0.2928,0.0492,187.9375
20:08:16:883,2.8564,1.4754,8.3547,38.7597,-0.359,-0.227,-0.3452,187.7656
20:08:16:904,3.1245,0.8087,9.7218,37.511,-0.6831,0.0018,-0.4981,187.7656
20:08:16:928,2.8193,0.1622,11.6671,37.1745,-0.8221,0.487,-0.4786,187.7344
20:08:16:944,2.593,-0.2664,12.4308,38.217,-0.7249,0.8862,-0.3008,187.9062
20:08:16:963,3.0539,-0.149,11.3893,37.1667,-0.6245,0.9482,-0.1628,188.375
20:08:16:983,3.7506,0.337,9.7074,37.0434,-0.6964,0.5775,-0.1985,188.9844
20:08:17:003,4.257,0.8685,8.8395,38.6742,-0.9545,-0.1069,-0.4392,189.9219
20:08:17:024,4.0403,0.9475,9.9528,37.9787,-1.2232,-0.6102,-0.7727,190.0781
20:08:17:043,2.8145,0.1574,11.9915,37.6611,-1.3438,-0.4489,-0.9495,190.3281
20:08:17:063,0.9638,-0.6003,13.2101,38.6231,-1.2789,0.1373,-0.7551,190.9062
20:08:17:082,0.4981,-0.7548,12.7493,35.5575,-1.102,0.5003,-0.3636,191.8438
20:08:17:103,1.354,-0.2795,11.6048,38.3934,-0.9089,0.4478,-0.0882,193.0625
20:08:17:124,2.2016,0.5273,10.8734,37.3609,-0.6871,0.1142,0.0074,194.0312
20:08:17:146,2.7223,1.0409,10.3598,38.411,-0.4213,-0.1106,-0.0286,194.5312
20:08:17:164,2.7511,1.2863,9.3531,37.5393,-0.22,-0.071,-0.1231,194.6875
20:08:17:184,2.3117,1.3042,7.9764,38.0573,-0.1473,0.1445,-0.1814,194.7344
20:08:17:203,1.8353,1.3629,6.82,38.7493,-0.1542,0.3512,-0.1852,194.7812
20:08:17:222,1.5468,1.6215,6.0108,39.1105,-0.1704,0.3775,-0.1833,194.9375
20:08:17:244,1.6342,1.8753,5.9593,38.5771,-0.1513,0.2902,-0.2195,195.3906
20:08:17:264,1.7024,2.0656,6.1616,37.4399,-0.13,0.2143,-0.2968,195.5
20:08:17:283,1.5994,2.2715,6.3639,40.1454,-0.1627,0.1456,-0.3958,195.7344
20:08:17:302,1.4749,2.2715,7.1324,39.6755,-0.2394,0.1038,-0.4832,196.0469
20:08:17:322,1.1948,2.2416,8.2865,38.3815,-0.2842,0.0809,-0.5335,196.4531
20:08:17:345,0.7375,2.0105,9.8235,39.2197,-0.2394,0.1605,-0.4911,196.9375
20:08:17:363,0.3341,1.9208,11.1272,37.4988,-0.0834,0.3096,-0.3551,197.5469
20:08:17:383,0.4658,1.9698,11.8035,37.4985,0.1316,0.4817,-0.2294,198.1719
20:08:17:403,0.5807,1.9854,11.6922,39.5949,0.3172,0.6556,-0.1135,198.6875
20:08:17:423,0.631,2.0512,10.8099,36.081,0.351,0.6718,-0.007,199.0156
20:08:17:448,0.795,2.0488,10.5992,38.4535,0.2946,0.4662,0.0892,199.2188
20:08:17:463,1.214,1.6706,11.4971,38.7614,0.2828,0.1951,0.1722,199.2969
20:08:17:483,1.6761,1.3904,12.7301,38.269,0.351,0.039,0.2386,199.25
20:08:17:503,2.131,1.3773,13.0653,38.3096,0.3696,0.0106,0.2045,199.2031
20:08:17:523,2.0831,1.6394,12.7002,38.365,0.2141,-0.0933,0.1059,199
20:08:17:546,1.779,1.4659,13.5513,36.8549,0.0679,-0.2646,0.0298,198.7188
20:08:17:563,1.0201,0.8577,15.3721,36.5762,0.1609,-0.2257,0.0804,198.4219
20:08:17:583,-0.0945,-0.7332,14.6646,38.6762,0.527,0.1078,0.3147,198.3438
20:08:17:603,0.5017,-0.6614,11.5414,37.1672,0.8708,0.3786,0.6649,198.2969
20:08:17:623,1.4725,-0.2137,10.2377,37.1672,0.9318,0.1711,0.9467,198.0938
20:08:17:643,2.0304,-0.003,10.476,37.4134,0.886,-0.3309,1.0167,197.5312
20:08:17:662,1.6533,0.0233,10.0941,39.3435,0.9137,-0.614,0.9478,196.5469
20:08:17:682,1.5204,-0.0365,8.9568,38.9955,0.9907,-0.5945,0.9179,195.4375
20:08:17:703,1.603,-0.1119,7.6268,38.3934,1.0256,-0.4608,0.9288,194.2969
20:08:17:722,1.1805,0.167,6.4393,37.0163,0.979,-0.2616,0.9126,193.2344
20:08:17:745,1.2188,0.3107,5.6744,38.7047,0.8794,-0.1072,0.9339,192.1562
20:08:17:766,1.2954,0.4723,5.2458,36.8716,0.7982,-0.0968,0.9416,191.1406
20:08:17:783,1.4306,0.6758,5.2997,38.7149,0.7316,-0.1911,0.9414,190.0469
20:08:17:806,1.5372,0.7679,5.5714,38.2879,0.6932,-0.2808,0.9302,188.9375
20:08:17:829,1.6856,0.8601,6.0036,38.5084,0.6799,-0.2856,0.927,187.875
20:08:17:846,1.9071,0.9667,6.1939,36.1539,0.6381,-0.1178,0.9166,186.7969
20:08:17:862,2.3321,1.3952,5.9617,38.7807,0.5481,0.1378,0.8772,185.1719
20:08:17:883,2.8349,2.0249,5.7546,37.8638,0.3633,0.3472,0.7619,184.1406
20:08:17:902,3.3137,2.6474,6.243,37.2405,0.0977,0.3956,0.535,183.0938
20:08:17:923,3.4741,2.7982,6.978,37.4712,-0.1438,0.3293,0.2,182.1562
20:08:17:944,3.0922,2.4259,7.4269,39.0329,-0.3169,0.1978,-0.182,181.5156
20:08:17:991,2.702,1.6418,8.4361,37.3497,-0.5121,0.0201,-0.4925,181.2656
20:08:17:991,2.2698,0.7045,9.8487,37.3286,-0.75,-0.0257,-0.6685,181.4688
20:08:18:003,2.1106,-0.0281,11.4264,38.1757,-0.9699,0.1091,-0.6685,182.0625
20:08:18:023,2.7247,-0.6458,12.1962,38.0645,-1.0623,0.2825,-0.5234,182.8281
20:08:18:046,3.7901,-0.8003,11.5007,37.9246,-1.052,0.3544,-0.3583,183.25
20:08:18:063,4.5144,-0.756,11.1308,38.714,-1.1297,0.1895,-0.3119,183.9844
20:08:18:082,4.6532,-1.1103,12.7684,39.3987,-1.358,-0.2363,-0.4451,184.5156
20:08:18:102,3.1114,-1.5532,14.5844,38.85,-1.5643,-0.3445,-0.644,184.875
20:08:18:123,1.0033,-1.9591,14.4204,39.2275,-1.5497,0.2375,-0.6983,185.3438
20:08:18:146,0.6465,-1.5042,11.7868,39.2589,-1.2826,0.9815,-0.4065,186.0469
20:08:18:164,1.9789,-0.2879,9.2657,39.8291,-0.9835,1.1546,0.0378,187.3125
20:08:18:182,3.4322,0.9846,8.6061,40.5838,-0.7641,0.5102,0.2553,187.8438
20:08:18:203,4.026,1.8908,8.9951,37.3603,-0.5508,-0.4643,0.1448,187.8438
20:08:18:223,3.7135,1.9375,9.3746,39.4101,-0.3907,-1.0672,-0.2051,187.5781
20:08:18:245,2.945,1.3677,9.5386,38.16,-0.3736,-0.9975,-0.6041,187.4062
20:08:18:262,1.8149,0.9164,9.4476,38.2106,-0.4613,-0.4017,-0.8946,187.6094
20:08:18:283,0.8836,0.8482,8.7557,39.5393,-0.4357,0.7746,-1.011,188.2344
20:08:18:303,0.3365,0.8709,7.8375,39.3143,-0.2599,0.8508,-0.8949,188.2344
20:08:18:323,0.1845,1.151,6.7422,41.5294,-0.0815,0.577,-0.75,189.2656
20:08:18:346,0.2671,1.503,6.1233,41.4769,0.0003,0.1437,-0.6531,191.7031
20:08:18:366,0.5328,1.8034,6.2801,43.4054,-0.0426,-0.1897,-0.6001,191.7031
20:08:18:386,0.953,1.9327,7.4341,40.7169,-0.1137,-0.2939,-0.5924,193.625
20:08:18:402,1.1386,1.9315,8.8491,41.3034,-0.147,-0.2001,-0.595,194.3906
20:08:18:424,1.056,1.8441,10.051,42.0724,-0.1518,0.0707,-0.5529,196.0312
20:08:18:446,0.8788,1.6718,11.2469,43.1726,-0.0623,0.4151,-0.4462,196.0312
20:08:18:463,0.8572,1.6107,11.7365,41.5495,0.1409,0.6367,-0.3053,196.6875
20:08:18:482,0.9829,1.558,11.266,43.6057,0.3316,0.5706,-0.1702,197.2656
20:08:18:502,1.305,1.5413,10.6112,42.319,0.4,0.2606,-0.0845,197.5156
20:08:18:522,1.7371,1.4659,10.8435,45.2699,0.3675,-0.0949,-0.0741,197.9062
20:08:18:546,2.1429,1.2001,12.0813,44.4606,0.3289,-0.2331,-0.1266,198.125
20:08:18:562,2.0831,0.7751,13.1108,42.4163,0.3345,-0.1407,-0.171,198.2188
20:08:18:582,1.6593,0.6746,13.0773,45.069,0.293,-0.0105,-0.2001,198.2969
20:08:18:602,1.3253,0.5609,12.7744,45.2757,0.1736,-0.101,-0.2121,198.4219
20:08:18:625,0.9351,0.2508,13.6183,47.4512,0.1257,-0.382,-0.1711,198.5938
20:08:18:643,0.3916,-0.4902,15.4152,47.4852,0.339,-0.4861,-0.0014,198.8125
20:08:18:663,-0.031,-1.236,15.9395,48.2422,0.7513,-0.1985,0.2889,199.0469
20:08:18:682,0.1306,-1.3761,13.4172,48.3326,1.016,0.1413,0.5709,199.2188
20:08:18:702,0.8991,-0.914,9.9947,48.5253,0.9577,0.1325,0.6884,199.1875
20:08:18:723,1.4151,-0.4459,8.0841,47.5407,0.6951,-0.1447,0.6657,198.5312
20:08:18:747,1.5025,-0.2029,8.2541,47.9121,0.506,-0.3772,0.5994,197.7812
20:08:18:766,1.0153,-0.2065,8.8862,48.5458,0.5116,-0.4134,0.5864,196.9688
20:08:18:782,0.5999,-0.2269,8.5785,48.3376,0.58,-0.3314,0.646,196.2344
20:08:18:802,0.4861,-0.0557,7.6747,50.2397,0.5896,-0.2281,0.7129,195.5469
20:08:18:823,0.5113,0.24,6.8248,49.194,0.5238,-0.1671,0.7509,194.8594
20:08:18:844,0.4706,0.4627,6.5734,50.9063,0.4759,-0.166,0.7784,194.0625
20:08:18:863,0.4825,0.4771,6.6452,49.1904,0.4951,-0.2164,0.8165,193.2031
20:08:18:881,0.5807,0.5261,6.6919,51.5852,0.538,-0.2483,0.862,192.3438
20:08:18:902,0.7675,0.6447,6.6309,51.3084,0.5726,-0.2646,0.9049,191.4219
20:08:18:922,1.0787,0.8278,6.4202,49.9106,0.5462,-0.2398,0.9592,190.4375
20:08:18:945,1.8113,1.248,6.3519,50.3878,0.4442,-0.1492,0.9472,189.4531
20:08:18:963,2.7439,1.8358,6.6979,51.4273,0.3385,-0.0555,0.7589,188.3594
20:08:18:982,2.9881,2.5875,7.7094,51.5013,0.2621,-0.0014,0.4247,187.2344
20:08:19:003,2.3416,2.3218,7.6472,52.8664,0.1923,0.1221,0.0567,186.6875
20:08:19:023,1.864,1.9052,7.5466,51.9594,0.0455,0.2665,-0.2315,185.5312
20:08:19:046,1.9861,1.4323,8.3307,53.488,-0.1872,0.2476,-0.3716,185.25
20:08:19:064,2.2914,0.8482,10.3646,53.2591,-0.4171,-0.0273,-0.4483,185.3438
20:08:19:082,2.423,0.2604,12.3243,51.8786,-0.5534,-0.1812,-0.4864,185.6719
20:08:19:101,2.4817,-0.3418,12.4811,53.8356,-0.5459,0.0654,-0.4565,186.1562
20:08:19:122,2.5954,-0.228,11.1511,53.9872,-0.5113,0.3914,-0.3487,186.7344
20:08:19:145,3.3436,0.0832,10.8004,53.97,-0.6453,0.463,-0.2139,187.3281
20:08:19:162,3.6752,0.0138,12.2381,54.1692,-0.897,0.1759,-0.2214,187.7969
20:08:19:181,3.0048,-0.2556,14.1642,54.0766,-1.0786,-0.0387,-0.3191,188.125
20:08:19:202,2.1848,-0.5668,14.8549,54.3664,-1.044,0.1685,-0.3186,188.375
20:08:19:222,2.374,-0.5369,13.4986,54.4162,-0.7462,0.5645,-0.109,188.7188
20:08:19:245,3.5711,-0.0221,11.3654,53.4072,-0.3473,0.7019,0.1866,189.1719
20:08:19:264,4.7742,0.5668,9.3734,54.2961,0.0016,0.3461,0.3243,189.4844
20:08:19:281,5.1931,1.1869,8.3726,54.7242,0.1907,-0.309,0.1765,189.3281
20:08:19:302,4.8364,1.2659,8.0434,53.5411,0.1577,-0.7173,-0.1737,188.9688
20:08:19:322,3.7674,0.9762,7.9596,54.2036,-0.0024,-0.6505,-0.5689,188.75
20:08:19:344,2.4613,0.6111,7.7693,54.0036,-0.1667,-0.2323,-0.8536,188.9219
20:08:19:365,1.3289,0.5154,7.5395,54.3682,-0.2434,0.2366,-0.9423,189.5781
20:08:19:381,0.7064,0.653,7.0235,52.8627,-0.1649,0.5459,-0.86,190.5625
20:08:19:402,0.643,0.8374,6.2262,53.2469,0.0362,0.5906,-0.6866,191.6562
20:08:19:422,0.8477,1.3066,5.2913,53.267,0.2357,0.4114,-0.5007,192.6094
20:08:19:449,1.2523,1.8633,4.9034,54.4482,0.2977,0.1344,-0.3724,193.3906
20:08:19:463,1.5707,2.3242,5.2566,55.5801,0.2061,-0.1183,-0.3729,193.7031
20:08:19:482,1.8161,2.5792,6.4776,57.1211,0.0157,-0.3048,-0.4635,194.1562
20:08:19:502,1.8221,2.4595,8.0063,55.2492,-0.1627,-0.3405,-0.6001,194.5469
20:08:19:522,1.5827,2.3481,9.3387,55.6666,-0.2722,-0.2009,-0.726,195.0156
20:08:19:546,1.2379,2.3014,10.3826,54.9032,-0.3329,0.0787,-0.7977,195.625
20:08:19:563,0.7435,2.2069,10.9237,54.8621,-0.3452,0.4092,-0.8318,196.3594
20:08:19:581,0.133,2.0357,11.1523,54.6243,-0.3324,0.6537,-0.8089,197.2656
20:08:19:601,-0.2417,1.7699,11.6982,54.6243,-0.3201,0.6809,-0.6845,198.7031
20:08:19:621,-0.1268,1.6909,12.438,55.8122,-0.2802,0.4827,-0.4731,199.5938
20:08:19:642,0.5424,1.6933,13.4771,55.8974,-0.2431,0.1123,-0.2595,200.3906
20:08:19:665,1.0512,1.7053,15.0381,56.2057,-0.2597,-0.3202,-0.1327,200.9531
20:08:19:682,1.2619,1.1953,17.3054,55.0974,-0.1904,-0.712,-0.0723,201.2344
20:08:19:702,0.8141,0.0736,19.2363,55.0531,0.2546,-0.3173,0.075,201.2344
20:08:19:722,0.0588,-0.8206,17.7902,53.2473,0.8336,0.3181,0.4037,201.4844
20:08:19:748,-0.1423,-0.8338,12.8953,55.1833,1.0613,0.6518,0.7376,201.5469
20:08:19:761,0.2324,-0.5824,8.8,54.5882,0.9244,0.4513,0.9619,201.4375
20:08:19:782,0.6478,-0.2987,7.1564,54.0752,0.6855,-0.0776,1.1006,200.9531
20:08:19:802,1.0847,-0.1131,7.6544,55.5465,0.5795,-0.5285,1.1512,200.0781
20:08:19:821,1.1242,0.0054,8.2817,53.0561,0.595,-0.6811,1.176,199.0156
20:08:19:842,0.9722,0.2807,7.9932,54.1303,0.5888,-0.6776,1.2103,197.7344
20:08:19:864,1.0236,0.6411,7.4916,53.1436,0.5191,-0.5865,1.2263,194.4219
20:08:19:881,1.3756,0.9128,7.2605,53.1025,0.4456,-0.4606,1.185,194.4219
20:08:19:901,1.5635,1.1678,7.2079,54.6689,0.4296,-0.3269,1.0985,193.0156
20:08:19:923,1.4785,1.2205,7.0295,53.661,0.4743,-0.2491,1.0197,191.625
20:08:19:948,1.2834,1.1893,6.5973,54.3578,0.5257,-0.2366,0.9845,190.375
20:08:19:964,1.3457,1.1917,6.255,55.4819,0.5529,-0.2307,0.9749,189.75
20:08:19:981,1.6234,1.4312,5.9808,52.4207,0.5446,-0.2539,0.9201,188.5625
20:08:20:036,2.0292,1.6921,5.7941,53.7049,0.4724,-0.2907,0.7901,187.4062
20:08:20:037,2.429,1.8944,6,53.3197,0.3212,-0.3085,0.5992,186.3125
20:08:20:048,2.6445,1.8645,6.8822,54.03,0.1875,-0.2401,0.3797,185.2344
20:08:20:064,2.623,1.7089,7.7142,52.9511,0.0858,-0.0219,0.1645,184.3125
20:08:20:081,2.4446,1.479,7.9106,53.8792,-0.0807,0.2761,-0.0134,183.6406
20:08:20:101,2.447,1.0349,7.9513,52.8229,-0.3316,0.434,-0.1409,183.2031
20:08:20:125,2.6696,0.7751,8.5929,55.0372,-0.5971,0.3011,-0.2565,183.0156
20:08:20:147,2.8684,0.3849,10.4688,53.5522,-0.7028,0.0779,-0.366,183.0156
20:08:20:166,2.3452,-0.2448,12.6295,53.9223,-0.5699,0.095,-0.3487,183.3125
20:08:20:187,1.9921,-1.084,13.3574,53.7711,-0.2961,0.4111,-0.1489,183.7344
20:08:20:201,2.3859,-1.3713,11.1032,54.9219,-0.2626,0.5954,0.0987,184.1875
20:08:20:222,3.3915,-0.5046,9.4273,54.7164,-0.4338,0.3589,0.1754,184.5156
20:08:20:245,4.8077,0.246,9.3375,53.7775,-0.6205,-0.2294,-0.0163,184.5312
20:08:20:264,5.5511,0.2544,10.5681,54.2973,-0.8171,-0.6355,-0.3223,184.3438
20:08:20:281,5.3392,0.0233,12.5421,54.2843,-0.9532,-0.5197,-0.6035,184.25
20:08:20:301,4.3217,-0.4723,14.163,54.7551,-0.9063,0.0782,-0.7056,184.5
20:08:20:321,3.3448,-0.7105,14.0086,53.3064,-0.6858,0.6806,-0.6225,185.125
20:08:20:346,2.9785,-0.3837,11.6683,55.501,-0.4868,0.7283,-0.5018,185.9375
20:08:20:363,3.0635,0.3166,9.9253,54.2032,-0.3358,0.3214,-0.4637,186.7812
20:08:20:381,3.036,0.8877,9.2214,54.5316,-0.1971,-0.0566,-0.5173,187.4688
20:08:20:403,2.3309,1.2193,7.7885,54.6427,-0.0985,-0.1053,-0.5995,188.0312
20:08:20:422,1.864,1.3773,6.6919,54.9524,-0.0482,0.0148,-0.6691,188.5781
20:08:20:447,1.5504,1.4754,5.6576,54.1565,-0.0248,0.1264,-0.7149,189.2188
20:08:20:464,1.2966,1.6849,4.8232,54.418,-0.0525,0.1759,-0.7492,189.9531
20:08:20:480,1.1625,1.9172,4.7574,55.9029,-0.1718,0.1488,-0.7785,190.7031
20:08:20:502,1.0512,1.8801,5.8767,55.0179,-0.3483,0.055,-0.8387,191.5469
20:08:20:521,0.9686,1.6598,7.5395,54.582,-0.4653,0.001,-0.8877,192.4375
20:08:20:541,0.7256,1.4754,9.0825,54.046,-0.461,0.058,-0.884,193.3281
20:08:20:563,0.4179,1.3749,9.9612,55.5691,-0.3214,0.1666,-0.7916,194.3438
20:08:20:582,0.7794,1.5173,9.9768,53.892,-0.0924,0.2545,-0.5713,195.3906
20:08:20:601,1.4294,1.9818,9.456,54.4064,0.1174,0.3059,-0.3122,196.3906
20:08:20:621,2.0508,2.5193,9.0909,56.5336,0.2304,0.2675,-0.1434,197.1719
20:08:20:640,2.4039,2.7444,9.1843,54.5589,0.24,0.1144,-0.0991,197.6719
20:08:20:662,2.4781,2.487,10.2102,56.2076,0.1774,-0.1405,-0.1394,197.9219
20:08:20:681,2.7415,1.9674,11.8347,54.7003,0.0914,-0.3732,-0.1548,198.0312
20:08:20:701,3.2299,1.6047,12.6427,55.4342,0.0724,-0.4747,-0.1463,198.1562
20:08:20:720,3.5459,1.242,12.6199,55.1596,0.0519,-0.5314,-0.1772,198.3125
20:08:20:741,3.2083,0.7249,14.1558,52.9341,-0.1217,-0.8363,-0.2619,198.4688
20:08:20:763,2.362,-0.0162,17.2013,55.7453,-0.274,-1.3051,-0.2834,198.7344
20:08:20:781,1.7886,-0.7955,19.034,54.865,-0.069,-1.3783,-0.1633,199.0312
20:08:20:802,1.621,-1.139,15.8449,53.7754,0.4812,-0.7114,0.0596,199.3281
20:08:20:820,1.6437,-0.7057,11.0134,54.121,0.7744,0.2308,0.271,199.4375
20:08:20:841,1.8185,-0.4304,9.0765,54.0664,0.5555,0.5674,0.3848,199.4531
20:08:20:863,1.87,-0.3202,10.033,53.9504,0.2368,0.2321,0.4284,199.1875
20:08:20:881,1.6557,-0.4052,10.8267,52.3816,0.2141,-0.1895,0.4857,198.7344
20:08:20:903,1.2499,-0.3801,9.7002,53.193,0.4693,-0.3477,0.5637,198.2344
20:08:20:923,1.2331,-0.021,7.8363,55.8189,0.6762,-0.2624,0.703,197.7031
20:08:20:947,1.5097,0.3382,6.3723,55.0769,0.7113,-0.1325,0.8255,197.0781
20:08:20:965,1.761,0.683,5.6229,53.8622,0.6429,-0.0949,0.8846,195.875
20:08:20:980,2.016,0.9056,5.5954,55.1779,0.5484,-0.1615,0.8993,194.8438
20:08:21:002,2.2052,1.011,5.8623,52.8036,0.5215,-0.2989,0.87,193.7656
20:08:21:021,2.3488,0.9487,5.9006,51.9706,0.5603,-0.4347,0.8175,192.7344
20:08:21:041,2.5559,0.9583,5.8635,53.5953,0.5843,-0.4797,0.768,191.6875
20:08:21:062,2.8193,1.0576,6.0287,53.266,0.5603,-0.4483,0.7086,190.6875
20:08:21:080,3.1353,1.2576,5.9126,52.8082,0.502,-0.317,0.6183,189.7969
20:08:21:101,3.4142,1.4311,5.745,53.9971,0.2043,-0.1831,0.2764,188.9375
20:08:21:120,3.5483,1.5185,6.2598,54.0549,-0.0125,-0.1969,0.066,188.9375
20:08:21:142,3.692,1.3485,7.2569,52.3223,-0.2328,-0.1146,-0.1391,188.1719
20:08:21:163,3.7518,1.0373,8.2469,51.9644,-0.478,0.0649,-0.3162,187.625
20:08:21:181,4.0595,0.8146,9.1687,54.4024,-0.7611,0.2324,-0.5093,187.2188
20:08:21:200,4.1912,0.3813,10.6184,52.0078,-1.0067,0.4801,-0.6901,187.4219
20:08:21:221,3.7758,-0.082,12.2908,51.9973,-1.0349,0.8004,-0.762,187.8281
20:08:21:243,3.5603,-0.6398,12.5613,54.4427,-0.935,1.0044,-0.7423,188.9531
20:08:21:264,3.583,-1.0696,11.4468,53.8591,-0.9561,0.9597,-0.6714,189.9219
20:08:21:281,4.0427,-1.1378,10.8494,53.6811,-1.0975,0.5959,-0.6573,190.8438
20:08:21:300,4.245,-1.254,11.8107,53.8876,-1.2032,0.1706,-0.7007,191.7656
20:08:21:320,3.9458,-1.6945,13.7943,53.4219,-1.1348,0.1581,-0.6728,192.1875
20:08:21:340,3.3975,-2.0057,15.0537,53.8082,-0.8027,0.6039,-0.4975,193.0156
20:08:21:361,3.5507,-2.1602,13.3645,53.6254,-0.4535,1.022,-0.2344,193.9375
20:08:21:381,4.6532,-1.588,10.4065,52.7703,-0.2876,0.9019,-0.0723,194.8125
20:08:21:403,5.909,-0.5417,8.3607,53.6629,-0.2695,0.2489,-0.19,195.4844
20:08:21:420,6.407,0.7572,8.0542,52.3762,-0.2911,-0.3951,-0.5644,195.8125
20:08:21:441,6.0922,1.0684,8.7294,52.5986,-0.3047,-0.5444,-1.0352,195.9688
20:08:21:463,4.6916,0.422,9.1867,54.3426,-0.3425,-0.0829,-1.3178,196.2031
20:08:21:481,2.8971,0.0269,8.9616,54.422,-0.3505,0.549,-1.3178,196.8125
20:08:21:500,1.7874,0.1059,8.0853,54.4604,-0.2823,0.8574,-1.2014,197.9844
20:08:21:520,1.135,0.4507,7.1959,53.856,-0.1185,0.7941,-1.0331,199.5156
20:08:21:540,1.0009,0.7715,6.261,55.0073,0.0397,0.5213,-0.8784,201.7656
20:08:21:568,1.05,1.1953,5.6109,54.6691,0.0932,0.2281,-0.7934,203.1094
20:08:21:588,1.196,1.4802,5.5642,54.104,0.0394,0.0268,-0.7796,204.2344
20:08:21:605,1.1422,1.5485,6.2813,52.3973,-0.0362,-0.0393,-0.7806,205.1562
20:08:21:625,0.9949,1.4946,7.3934,52.3974,-0.0554,0.0074,-0.7484,206.0469
20:08:21:639,0.9566,1.5006,8.2984,52.9031,-0.0458,0.1355,-0.6917,206.9531
20:08:21:662,0.9698,1.6011,9.067,53.3972,-0.0338,0.2883,-0.6366,207.8438
20:08:21:680,1.0033,1.8058,9.6631,53.6924,-0.0013,0.3826,-0.6078,208.625
20:08:21:701,0.8824,1.7532,10.0067,54.8182,0.016,0.3978,-0.5447,209.3906
20:08:21:720,0.8932,1.558,10.4676,53.7904,0.0288,0.3482,-0.4339,210.125
20:08:21:742,1.3397,1.3737,10.7812,53.8199,-0.0019,0.2076,-0.3274,210.7812
20:08:21:764,2.1597,1.145,11.5414,55.007,-0.1065,0.0193,-0.2914,211.375
20:08:21:782,2.9426,0.4759,14.2145,54.6427,-0.2181,-0.0118,-0.3178,211.8125
20:08:21:801,2.4506,0.2053,14.7664,55.9225,-0.2884,0.1163,-0.3545,212.1562
20:08:21:824,1.8664,-0.2915,15.4272,55.0366,-0.2946,0.2047,-0.341,212.3125
20:08:21:845,1.3864,-0.75,16.3944,54.2667,-0.1656,0.1517,-0.2216,212.8906
20:08:21:865,1.39,-1.1019,16.0353,54.3331,0.1843,0.1727,0.0101,213.3281
20:08:21:883,1.8245,-1.2456,13.0796,53.0446,0.6767,0.3498,0.2679,213.6719
20:08:21:902,2.7834,-1.0397,10.2856,54.5222,1.0014,0.3024,0.4697,213.8125
20:08:21:919,3.7291,-0.5082,9.4153,53.6013,1.0179,-0.0789,0.5342,213.6562
20:08:21:940,3.9194,-0.2113,9.9109,54.2843,0.9031,-0.5053,0.3936,213.2344
20:08:21:967,2.9402,-0.2963,9.644,53.6223,0.8509,-0.6065,0.1262,212.6094
20:08:21:981,1.8137,-0.3118,8.3631,51.6405,0.8298,-0.3844,-0.0459,212.0156
20:08:22:003,1.3576,-0.1909,7.1947,53.4227,0.7494,-0.1029,-0.0645,211.6719
20:08:22:025,0.9949,0.0042,6.3495,52.1798,0.6429,0.0529,-0.0342,211.625
20:08:22:040,0.9985,0.1933,6.0993,51.7661,0.5603,0.0422,0.0401,211.6562
20:08:22:099,1.1158,0.3789,5.9006,52.9155,0.5678,-0.1096,0.1198,211.6875
20:08:22:100,1.2427,0.5154,5.6576,51.6643,0.6272,-0.3101,0.1741,211.6719
20:08:22:101,1.4785,0.6219,5.3823,52.6867,0.6472,-0.4323,0.2021,211.5625
20:08:22:123,1.7886,0.7739,5.3284,50.7044,0.5824,-0.4568,0.1954,211.3594
20:08:22:140,2.0819,0.9906,5.4553,50.3027,0.4573,-0.41,0.1485,211.0156
20:08:22:164,2.2136,1.1438,5.7881,52.2626,0.314,-0.3724,0.0394,210.7812
20:08:22:182,2.1765,1.1606,6.662,52.75,0.1518,-0.3618,-0.0877,210.5938
20:08:22:200,2.1597,1.2444,8.0734,50.0943,-0.0043,-0.2824,-0.1774,210.5469
20:08:22:220,2.3033,1.497,8.5139,51.1287,-0.0751,-0.0694,-0.2469,210.6562
20:08:22:241,2.6792,1.831,7.9249,49.4903,-0.1577,0.1839,-0.3756,210.875
20:08:22:262,3.2263,1.7197,8.3535,50.8225,-0.4527,0.2707,-0.6019,211.1719
20:08:22:286,3.4885,0.9822,10.1982,49.1601,-0.9092,0.3331,-0.8877,212.2969
20:08:22:304,2.8241,0.1634,12.0298,50.49,-1.1859,0.4071,-1.1183,212.7812
20:08:22:331,2.4386,-0.5046,12.596,51.4309,-0.8429,0.3325,-0.9865,214.625
20:08:22:343,3.0575,-0.5668,11.8909,49.9865,-0.6602,-0.0057,-0.7921,215.3281
20:08:22:364,4.6688,-0.1885,11.3283,50.4102,-0.661,-0.5061,-0.815,216.6094
20:08:22:383,5.7989,-0.0365,11.7437,49.4673,-0.7918,-0.909,-1.0968,217.6562
20:08:22:405,5.4517,-0.7033,13.2628,49.0341,-0.9513,-0.7141,-1.3825,218.5156
20:08:22:431,3.9398,-1.6538,14.6862,50.9061,-0.9191,0.1027,-1.3937,220.3125
20:08:22:442,2.3548,-1.8824,13.8242,50.4059,-0.6354,0.8529,-1.1308,221.9531
20:08:22:465,2.2614,-1.2049,10.713,49.7958,-0.3795,0.7949,-0.9077,223.5312
20:08:22:483,3.0767,-0.5656,8.7449,50.1696,-0.2567,0.0769,-0.8746,224.9062
20:08:22:501,3.5292,-0.0856,8.958,49.0135,-0.1766,-0.5991,-0.9892,224.9062
20:08:22:520,3.1892,-0.0186,10.0677,49.5488,-0.074,-0.6968,-1.1431,226
20:08:22:540,2.3764,-0.1754,10.0462,48.5632,-0.0373,-0.2536,-1.2262,226.9688
20:08:22:564,1.7563,-0.1012,8.9413,48.436,-0.0655,0.2825,-1.2446,228.0781
20:08:22:579,1.4809,0.2089,7.6304,47.9987,-0.0929,0.5778,-1.2531,229.3594
20:08:22:604,1.2176,0.5345,6.7087,49.6071,-0.0607,0.5157,-1.2547,230.6875
20:08:22:619,0.9003,0.7225,6.243,49.3684,0.0181,0.2356,-1.2299,232.125
20:08:22:639,0.7447,0.8685,6.1652,48.5104,0.0594,-0.0054,-1.1679,233.5938
20:08:22:659,1.0212,1.0421,6.3723,46.8128,0.0471,-0.1114,-1.1242,235.0625
20:08:22:681,1.4127,1.3198,6.644,48.3885,-0.0208,-0.1476,-1.1428,236.4062
20:08:22:700,1.6952,1.5257,7.1336,47.5271,-0.1356,-0.1357,-1.2134,239.0156
20:08:22:719,1.8221,1.5161,7.7956,48.1658,-0.2706,-0.0701,-1.3021,240.25
20:08:22:740,1.7551,1.4491,8.5127,47.5432,-0.4221,0.0585,-1.382,240.9375
20:08:22:764,1.3157,1.3222,9.4548,46.7006,-0.535,0.2404,-1.4014,242.3906
20:08:22:782,0.6298,1.1881,10.64,46.1885,-0.5079,0.4508,-1.3133,243.9531
20:08:22:800,0.1091,0.9715,11.2122,45.9507,-0.3414,0.5794,-1.1223,245.5156
20:08:22:820,-0.3782,0.7751,10.7297,46.3143,-0.1968,0.5336,-0.8427,247.1406
20:08:22:840,-0.3698,0.5393,10.3933,46.8765,-0.1212,0.3059,-0.5394,248.6094
20:08:22:864,-0.049,0.0808,10.8423,46.1019,-0.0479,0.103,-0.232,249.2344
20:08:22:882,0.5448,-0.3418,11.1571,46.1411,0.0077,0.0124,0.0529,250.1875
20:08:22:903,1.6797,-0.246,10.9488,46.8088,-0.0115,-0.063,0.2199,250.8281
20:08:22:922,2.8372,0.3885,10.3886,45.7782,-0.1691,-0.2702,0.1728,251.1094
20:08:22:940,3.6764,0.7524,10.5155,45.345,-0.4586,-0.6321,-0.0547,251.0469
20:08:22:963,3.7039,0.5082,12.4715,44.1481,-0.722,-0.6997,-0.3026,250.7969
20:08:22:982,2.8827,-0.2221,15.2009,45.3643,-0.6725,-0.2385,-0.3945,250.5938
20:08:23:001,1.5851,-0.847,16.4698,44.9499,-0.2122,0.4153,-0.2416,250.6562
20:08:23:020,1.3002,-1.0888,13.8757,44.6897,0.2535,0.6604,0.0122,251.2188
20:08:23:040,2.0184,-0.6375,10.4532,43.5657,0.432,0.2433,0.1294,251.6562
20:08:23:062,2.951,-0.228,9.0442,43.5018,0.4474,-0.3602,0.0428,251.8281
20:08:23:079,3.3424,-0.2053,9.2393,42.5034,0.4,-0.5397,-0.1471,251.7344
20:08:23:104,2.9402,-0.4387,9.5099,43.539,0.3609,-0.2555,-0.3165,251.5781
20:08:23:119,2.131,-0.6434,8.6528,42.2861,0.3214,0.1451,-0.3782,251.5781
20:08:23:140,1.4474,-0.5752,7.1289,41.7672,0.2461,0.2809,-0.3441,251.7969
20:08:23:164,0.9794,-0.3525,6.2765,43.1264,0.2003,0.0492,-0.248,252.1875
20:08:23:181,0.8956,-0.1251,6.3172,40.136,0.2013,-0.3162,-0.1319,252.5938
20:08:23:200,1.5959,0.3059,7.6747,41.9862,0.2216,-0.5208,-0.0589,252.9219
20:08:23:220,1.7467,0.4555,7.9824,41.155,0.2195,-0.4536,-0.0488,253.125
20:08:23:240,2.0196,0.6853,8.0734,40.6861,0.1585,-0.2504,-0.0682,253.1875
20:08:23:269,2.2219,0.9643,8.2829,41.0222,0.0711,-0.0989,-0.1284,253.2031
20:08:23:279,2.3823,1.1953,8.5402,41.0108,0.0202,-0.055,-0.2134,253.2344
20:08:23:301,2.3979,1.4838,8.5259,40.9896,0.037,-0.055,-0.3106,253.3281
20:08:23:319,2.2626,1.6646,8.1631,39.9146,0.0663,-0.0315,-0.4302,253.6562
20:08:23:340,2.0089,1.6275,8.1392,39.6332,0.0256,-0.031,-0.567,253.7969
20:08:23:360,1.8077,1.2875,8.7749,40.136,-0.0905,-0.0768,-0.6768,254.2031
20:08:23:380,1.7395,0.7548,10.2269,39.0164,-0.2296,-0.1642,-0.7191,254.7812
20:08:23:400,1.7419,0.2269,11.4624,38.4833,-0.2538,-0.2417,-0.692,255.5
20:08:23:421,1.9047,0.1263,11.7904,38.7833,-0.1561,-0.2188,-0.5825,256.2812
20:08:23:439,2.6122,0.2221,10.8411,37.4076,-0.0165,-0.1303,-0.431,257.1094
20:08:23:462,3.7207,0.3298,10.6819,37.2172,0.0173,-0.2289,-0.3428,257.875
20:08:23:479,5.4218,0.5369,11.1308,37.6621,-0.0293,-0.4707,-0.3559,258.4219
20:08:23:499,6.5578,0.2017,12.3207,38.6988,-0.1169,-0.8414,-0.6038,258.8438
20:08:23:519,6.5064,-0.8577,14.5066,36.8573,-0.2692,-1.0598,-1.0379,259.2031
20:08:23:539,4.7394,-2.1434,15.001,35.0539,-0.2815,-0.7351,-1.4531,259.6875
20:08:23:565,2.672,-2.8736,13.076,37.67,-0.1007,-0.0741,-1.6022,260.6094
20:08:23:581,1.6413,-2.8796,10.2042,37.0529,0.0541,0.5016,-1.4041,262.0625
20:08:23:599,1.5085,-1.9914,8.3032,36.8433,0.0865,0.6361,-1.0265,263.8906
20:08:23:620,1.8772,-1.0086,7.8076,35.6503,0.1055,0.2228,-0.6778,266.3125
20:08:23:640,2.0771,-0.3011,7.5443,35.6503,0.1939,-0.3168,-0.4898,267.5
20:08:23:664,1.8436,0.2688,7.0905,36.4543,0.2602,-0.5791,-0.4323,268.2188
20:08:23:680,1.4965,0.6087,6.4884,35.5219,0.2421,-0.5421,-0.4398,268.75
20:08:23:703,1.2559,0.8673,5.9689,35.8566,0.1372,-0.3109,-0.4635,269.2188
20:08:23:719,1.1457,1.1474,5.5583,36.2897,-0.0091,-0.0219,-0.48,269.6875
20:08:23:738,1.044,1.4204,5.6612,35.4959,-0.1393,0.1237,-0.4917,270.1719
20:08:23:760,0.9327,1.5485,6.158,33.7928,-0.2059,0.0598,-0.4991,270.7188
20:08:23:781,1.0428,1.643,6.8835,34.1506,-0.2221,-0.0694,-0.4951,271.2969
20:08:23:805,1.2714,1.7053,7.5047,33.3401,-0.2248,-0.1335,-0.4882,271.875
20:08:23:821,1.5049,1.7699,8.1895,34.429,-0.257,-0.1026,-0.4954,272.4688
20:08:23:842,1.8772,1.8549,8.9724,35.682,-0.3167,-0.0089,-0.5,273.0625
20:08:23:866,2.2531,2.0357,9.8139,35.2859,-0.3475,0.0612,-0.5199,273.6719
20:08:23:882,2.6242,2.2823,10.7261,33.9557,-0.3334,0.1293,-0.5524,273.9375
20:08:23:902,2.7786,2.3493,10.871,34.7424,-0.2368,0.2572,-0.6201,274.5781
20:08:23:921,2.5763,2.1685,10.276,34.7493,-0.1747,0.4361,-0.7876,275.5938
20:08:23:940,2.1872,1.6789,10.367,35.5959,-0.2818,0.3325,-0.7687,275.5938
20:08:23:964,2.0172,1.2085,11.3857,35.4872,-0.3409,0.1717,-0.6941,277.1406
20:08:23:980,1.8544,0.6889,12.3781,34.8382,-0.3672,0.017,-0.5572,277.1406
20:08:24:006,1.8233,0.3549,13.2329,36.6062,-0.3965,-0.1668,-0.378,278.9375
20:08:24:018,1.9095,0.0557,14.5138,36.1432,-0.3768,-0.3018,-0.191,279.7812
20:08:24:039,1.9885,-0.4076,16.1227,36.3974,-0.1689,-0.1101,0.0013,280.4688
20:08:24:060,1.8592,-0.6279,16.0736,37.1902,0.2226,0.2966,0.1874,281.2031
20:08:24:081,1.4905,-0.7739,13.197,37.4976,0.5425,0.4899,0.3898,281.2031
20:08:24:099,1.5097,-0.8051,9.8594,36.6385,0.6264,0.2364,0.5813,281.2188
20:08:24:143,2.0053,-0.7524,8.1967,37.7841,0.5494,-0.2901,0.6758,280.9844
20:08:24:143,2.678,-0.6794,8.3882,35.6413,0.4498,-0.6379,0.6537,280.5
20:08:24:158,2.866,-0.5165,9.1208,38.573,0.3928,-0.6283,0.5398,278.9219
20:08:24:184,2.4494,-0.501,9.0562,37.739,0.3236,-0.3658,0.4505,278.5
20:08:24:199,1.9586,-0.5824,8.4253,37.8026,0.2165,-0.0313,0.4418,277.7812
20:08:24:221,1.4031,-0.41,7.8363,39.4248,0.1739,0.164,0.49,277.1875
20:08:24:238,0.9841,-0.1538,7.2641,39.7269,0.2317,0.1048,0.5965,276.6406
20:08:24:259,0.9123,-0.0054,6.8535,39.0191,0.3502,-0.0917,0.7264,276.1094
20:08:24:281,1.22,0.2161,6.571,39.425,0.4589,-0.2864,0.8327,275.4688
20:08:24:300,1.7814,0.5237,6.4417,40.3895,0.5129,-0.3895,0.8615,274.6719
20:08:24:319,2.4566,0.9008,6.3627,39.2349,0.5087,-0.4044,0.7802,273.7188
20:08:24:339,3.0132,1.2743,6.1532,40.295,0.4194,-0.3892,0.5983,273.25
20:08:24:359,3.3173,1.6095,6.1784,41.6184,0.2442,-0.3277,0.3392,272.1875
20:08:24:380,3.2239,1.7125,6.5243,41.345,0.0322,-0.215,0.0617,271.2188
20:08:24:399,2.836,1.6059,7.2498,41.5251,-0.1478,-0.0736,-0.1479,270.4688
20:08:24:419,2.4554,1.4599,7.9489,41.2015,-0.2788,-0.0094,-0.2733,270.0781
20:08:24:439,2.3788,1.3234,8.7916,42.5443,-0.3446,-0.1021,-0.3577,270.0156
20:08:24:459,2.7917,0.8996,9.5626,42.396,-0.4373,-0.3101,-0.4571,270.3594
20:08:24:479,3.1186,0.3466,10.8985,42.9354,-0.6056,-0.4366,-0.5407,270.7656
20:08:24:503,2.921,-0.5225,13.1132,44.1038,-0.7097,-0.333,-0.5226,271.2969
20:08:24:519,3.0755,-1.5425,14.7173,43.0073,-0.7025,0.0087,-0.3623,271.9688
20:08:24:539,3.6405,-1.8812,14.4072,42.8877,-0.7084,0.3293,-0.2073,272.6875
20:08:24:561,3.923,-1.5245,13.6207,44.5503,-0.7569,0.3243,-0.2003,273.3281
20:08:24:581,3.1976,-1.9363,14.0601,44.2748,-0.7428,0.3919,-0.1066,273.7812
20:08:24:600,2.5212,-2.0907,14.6071,45.882,-0.4932,0.7642,0.2953,274.1094
20:08:24:619,5.1225,-1.1726,11.545,46.5169,0.1427,0.9786,0.8058,274.4688
20:08:24:639,7.98,0.4016,7.5969,44.9409,0.8288,0.6305,1.0343,274.5312
20:08:24:661,9.6464,1.8453,5.2147,46.3358,1.1436,-0.1508,0.7121,273.9531
20:08:24:680,9.0358,2.2296,4.5635,45.48,0.9731,-0.8086,-0.1236,272.8438
20:08:24:698,6.7565,1.1462,5.4038,47.3738,0.4037,-0.8939,-1.1021,271.6094
20:08:24:721,4.1995,-0.2029,7.0343,46.7588,-0.3039,-0.3271,-1.7836,271.0469
20:08:24:739,1.9765,-0.7763,8.2158,46.5785,-0.7531,0.4441,-2.0118,271.6094
20:08:24:760,0.5149,-0.7679,8.7042,46.1868,-0.7622,0.875,-1.8957,274.4375
20:08:24:782,0.0001,-0.4675,8.1955,49.3382,-0.4123,0.8327,-1.5527,276.8594
20:08:24:801,0.2982,0.2053,6.8032,46.0087,0.0562,0.4971,-1.1386,279.0469
20:08:24:819,1.026,0.975,5.83,49.7659,0.3531,0.1102,-0.7937,280.875
20:08:24:839,1.9514,1.6694,5.5487,49.3514,0.4131,-0.1956,-0.5926,281.5938
20:08:24:860,2.6086,2.2356,5.7857,48.6298,0.3185,-0.3583,-0.5689,282.6406
20:08:24:882,2.781,2.5037,6.5375,49.3123,0.1137,-0.361,-0.6904,283.3281
20:08:24:899,2.6349,2.3936,7.6616,49.7167,-0.1478,-0.206,-0.8608,283.9219
20:08:24:919,2.1597,2.3314,9.0334,50.2234,-0.3867,0.0984,-0.9873,284.5938
20:08:24:939,1.9693,2.396,10.3706,50.7961,-0.4746,0.4343,-1.0171,285.4375
20:08:24:959,2.605,2.6797,11.211,51.9044,-0.2911,0.5727,-0.998,287.1719
20:08:24:982,3.2909,2.9862,11.5785,50.5156,0.098,0.3727,-1.0081,288.3906
20:08:25:002,2.0496,2.7408,10.5645,51.0098,0.6035,-0.1205,-1.1447,289.5
20:08:25:019,0.783,2.1662,10.215,51.7087,0.8242,-0.7037,-1.1937,290.6406
20:08:25:039,0.9985,1.9243,11.4408,51.7665,0.5822,-0.8563,-0.9737,291.875
20:08:25:058,1.4941,2.2104,12.4715,51.9887,0.1899,-0.5298,-0.7186,293.1562
20:08:25:083,1.694,2.4367,13.3155,52.893,-0.1563,-0.1008,-0.5902,294.1875
20:08:25:099,1.3433,1.9662,14.3438,51.9089,-0.3699,0.1885,-0.5402,295
20:08:25:118,0.5029,1.1343,14.9926,52.6092,-0.3188,0.2305,-0.4411,295.7031
20:08:25:139,-0.0334,0.4088,14.7544,52.0177,-0.0421,0.164,-0.1622,296.3281
20:08:25:161,0.3772,0.0449,13.3801,52.7518,0.3374,0.0995,0.25,296.875
20:08:25:181,1.5013,0.0102,11.5797,53.2724,0.6754,-0.052,0.6354,297.0625
20:08:25:202,2.7917,0.1562,10.4029,54.9723,0.8285,-0.3202,0.841,296.9531
20:08:25:219,3.1042,0.41,10.1048,53.388,0.7699,-0.5242,0.8255,296.375
20:08:25:241,2.4997,0.4974,10.106,52.3612,0.5982,-0.468,0.6844,295.4062
20:08:25:265,1.8544,0.2616,9.4093,54.6037,0.5063,-0.1727,0.5981,293.8438
20:08:25:282,1.548,0.1395,8.1488,53.2805,0.5393,0.1168,0.6434,293.0312
20:08:25:299,1.3157,0.5202,6.5339,55.5091,0.673,0.2313,0.8447,292.2812
20:08:25:321,1.4845,0.8625,5.3057,53.4206,0.6184,0.0779,0.8838,291.4531
20:08:25:338,1.8245,1.2181,4.901,54.0712,0.498,-0.0771,0.8535,291.4531
20:08:25:359,2.1094,1.5185,5.1895,53.8858,0.3755,-0.1572,0.7608,290.5156
20:08:25:379,2.259,1.7017,5.7019,55.2415,0.2511,-0.1551,0.6372,289.4062
20:08:25:398,2.3824,1.8729,6.2035,56.1684,0.1132,-0.0683,0.4969,288.2969
20:08:25:417,2.3045,1.9902,6.7733,55.9967,0.0192,0.0276,0.3826,286.375
20:08:25:437,2.1836,2.1434,7.2653,55.5783,-0.0008,0.0444,0.3089,285.625
20:08:25:458,2.2016,2.3457,7.6747,56.6162,0.0237,-0.0121,0.2324,285.0312
20:08:25:481,2.2459,2.5241,8.1057,54.165,0.0738,-0.0768,0.1416,284.625
20:08:25:497,2.277,2.5037,8.1823,54.8427,0.0549,-0.1548,0.0394,284.2656
20:08:25:518,2.2339,2.2703,8.49,56.1472,-0.0703,-0.251,-0.0134,284
20:08:25:538,2.5487,1.8633,9.4955,54.6828,-0.2184,-0.3018,-0.0304,283.7969
20:08:25:559,2.9713,1.5173,10.9308,57.6503,-0.3486,-0.26,-0.0152,283.8125
20:08:25:581,3.4873,1.1402,12.5122,56.6113,-0.3563,-0.0965,0.0495,283.8906
20:08:25:598,4.1122,0.6866,12.7732,57.2839,-0.2684,0.0319,0.1355,284
20:08:25:620,4.5778,0.8793,11.9232,56.9687,-0.2136,-0.0411,0.1677,284.0781
20:08:25:639,5.0303,1.1714,10.9428,56.4932,-0.2866,-0.3072,0.0439,284.0312
20:08:25:663,4.9082,1.0959,11.4324,56.4932,-0.4061,-0.3719,-0.1385,283.8906
20:08:25:681,4.1744,0.6351,12.2213,55.8034,-0.4586,0.0004,-0.236,283.8125
20:08:25:698,3.188,0.3513,11.8682,54.614,-0.4458,0.3424,-0.1617,283.8594
20:08:25:718,3.0515,0.2388,11.0781,56.1495,-0.3803,0.3003,-0.0131,284.125
20:08:25:739,3.68,0.4842,10.4281,57.0679,-0.3422,0.0265,0.0298,284.4688
20:08:25:758,3.868,0.7141,10.47,56.3136,-0.2927,-0.1096,-0.0262,284.7188
20:08:25:780,3.443,0.7919,10.1396,55.0693,-0.2144,0.0324,-0.1082,284.7812
20:08:25:798,2.5667,0.8661,8.8036,55.9704,-0.1891,0.3128,-0.1439,284.8125
20:08:25:818,1.7718,0.9212,7.1899,57.1198,-0.2043,0.4939,-0.0994,284.9062
20:08:25:838,1.305,1.1271,5.9796,54.2463,-0.2096,0.458,-0.0171,285.1562
20:08:25:858,1.1625,1.4288,5.4326,55.2007,-0.1702,0.2982,0.0673,285.3125
20:08:25:882,1.384,1.9399,5.3392,55.7591,-0.0924,0.1299,0.0987,285.3906
20:08:25:900,1.694,2.3936,5.4769,54.9644,-0.0376,0.0516,0.0596,285.375
20:08:25:918,1.8891,2.7216,5.4996,55.7092,-0.0573,0.1083,-0.0208,285.2656
20:08:25:939,1.7718,3.0556,5.6361,56.4056,-0.1654,0.185,-0.1167,285.1875
20:08:25:959,1.5324,3.076,6.237,56.0473,-0.3055,0.2572,-0.1788,285.1562
20:08:25:981,1.3576,2.9479,7.4006,54.7501,-0.4112,0.3256,-0.1793,285.25
20:08:25:999,1.293,2.9622,8.8754,56.6633,-0.4234,0.3413,-0.1492,285.4531
20:08:26:020,1.6186,2.7467,11.0961,55.7481,-0.3028,0.3498,-0.1569,285.7031
20:08:26:038,1.3062,2.408,10.9955,54.44,-0.1467,0.4036,-0.1676,285.9531
20:08:26:060,1.0835,2.2033,11.1056,55.6407,-0.0983,0.4779,-0.1034,286.1562
20:08:26:081,1.2044,2.0237,11.9316,55.5562,-0.138,0.5312,0.0226,286.3594
20:08:26:097,1.4055,1.7208,12.7026,55.2965,-0.1294,0.589,0.1523,286.5312
20:08:26:118,1.7251,1.4838,12.1615,55.6168,0.0016,0.7517,0.2719,286.5938
20:08:26:139,1.7922,1.5269,10.9009,54.1663,0.0991,0.8484,0.347,286.375
20:08:26:190,2.1393,1.7304,10.6124,55.021,0.0005,0.7642,0.3826,286.2344
20:08:26:191,2.5164,1.4467,12.2524,54.9758,-0.2565,0.3557,0.3363,285.625
20:08:26:197,2.3213,0.6147,15.1734,53.6697,-0.4631,-0.1871,0.25,285.4219
20:08:26:218,2.2926,-0.3274,17.8369,55.5559,-0.3965,-0.4433,0.2758,284.9844
20:08:26:238,2.441,-0.9619,17.1522,54.7576,0.0663,-0.2646,0.3936,284.6875
20:08:26:258,2.5499,-0.9499,13.0413,54.7829,0.6312,0.1176,0.524,284.4688
20:08:26:280,3.0108,-0.7093,10.2784,53.9956,0.8123,0.1474,0.6095,284.125
20:08:26:298,3.0826,-0.4723,9.3531,55.456,0.7095,-0.1229,0.5685,283.5625
20:08:26:321,2.544,-0.0748,9.1723,53.0419,0.5531,-0.3112,0.4564,282.8125
20:08:26:339,2.1884,0.076,8.4145,53.0932,0.433,-0.1897,0.3536,282.0781
20:08:26:357,1.6006,0.2245,7.142,55.2137,0.314,0.1243,0.2628,281.4219
20:08:26:380,0.8489,0.398,6.1963,52.3816,0.2101,0.3283,0.2164,280.9375
20:08:26:399,0.443,0.5166,5.769,52.8303,0.2245,0.2055,0.267,280.3906
20:08:26:421,0.5304,0.7919,5.6828,52.002,0.355,-0.1921,0.38,280.1094
20:08:26:438,0.9123,1.0804,6.0096,53.4962,0.5057,-0.6196,0.4734,279.7812
20:08:26:459,1.196,1.1558,6.4297,54.088,0.6147,-0.8624,0.4876,279.3281
20:08:26:481,1.4402,1.2695,6.668,52.7276,0.6599,-0.8411,0.4689,278.7656
20:08:26:497,1.9658,1.5449,6.7446,51.6615,0.6013,-0.5655,0.458,278.1875
20:08:26:518,2.4745,1.8932,6.662,52.0462,0.4602,-0.2635,0.381,277.625
20:08:26:537,2.7092,1.977,7.1528,52.8357,0.2754,-0.1647,0.2002,277.0781
20:08:26:559,2.7534,1.8801,7.9716,50.3135,0.0964,-0.1492,-0.0264,276.5938
20:08:26:580,2.593,1.6083,8.4026,51.2999,-0.0359,-0.0518,-0.2483,276.3438
20:08:26:598,2.3321,1.1881,8.63,52.7574,-0.1521,0.0489,-0.4371,276.3594
20:08:26:618,2.2375,0.6207,9.1065,51.6762,-0.2937,0.0649,-0.5479,276.6562
20:08:26:638,2.2662,0.1179,10.1719,49.325,-0.4487,-0.0177,-0.5772,276.8906
20:08:26:659,2.3668,-0.3825,11.2038,50.6919,-0.5515,-0.0909,-0.5471,277.5
20:08:26:681,2.6732,-0.7392,11.2493,48.5999,-0.5758,-0.0552,-0.432,278.1719
20:08:26:697,3.3616,-0.7787,10.7609,50.6137,-0.5899,-0.0326,-0.268,279.25
20:08:26:719,4.3923,-0.6015,10.5214,50.1752,-0.8101,-0.5389,-0.1963,279.8281
20:08:26:738,4.5491,-0.5297,11.5174,49.7968,-1.0184,-0.7192,-0.3833,279.8281
20:08:26:759,3.5471,-0.8972,13.5872,51.4279,-1.0802,-0.3319,-0.4608,280.4688
20:08:26:782,1.9538,-1.2336,14.5425,51.4795,-0.8874,0.3565,-0.2829,280.4688
20:08:26:797,1.518,-1.0612,13.191,51.13,-0.5737,0.7038,0.0074,280.8438
20:08:26:818,2.5739,-0.568,10.9572,48.4783,-0.3249,0.479,0.1653,282.1562
20:08:26:837,3.7602,0.2424,9.4716,50.8174,-0.1438,-0.08,0.0742,282.625
20:08:26:857,4.0643,0.9439,8.703,49.4136,-0.11,-0.4401,-0.19,282.6875
20:08:26:883,3.4753,1.0984,8.5414,46.9308,-0.1707,-0.3655,-0.4565,282.5625
20:08:26:899,2.4494,0.9679,8.2673,48.9288,-0.2312,-0.0717,-0.6075,282.4844
20:08:26:917,1.6509,0.8517,7.5694,49.1173,-0.294,0.2321,-0.6544,282.7344
20:08:26:937,1.1912,0.9164,7.0235,49.255,-0.3265,0.4257,-0.6422,283.25
20:08:26:957,0.8656,1.0181,6.7745,49.1732,-0.3159,0.5456,-0.5956,283.9844
20:08:26:981,0.6142,1.1965,6.5231,48.9708,-0.2866,0.54,-0.5074,285.1719
20:08:26:998,0.6178,1.57,6.5746,50.3704,-0.2567,0.422,-0.4259,285.9062
20:08:27:018,0.771,1.8789,7.1456,48.906,-0.1859,0.2833,-0.3644,286.5781
20:08:27:037,1.105,2.0872,7.9249,50.2988,-0.0463,0.1624,-0.3252,287.1562
20:08:27:058,1.5935,2.3182,8.1775,48.1336,0.0615,0.0356,-0.346,287.6094
20:08:27:082,1.8269,2.384,8.3894,49.054,0.0501,-0.0563,-0.3918,288.0156
20:08:27:099,1.852,2.2667,9.3483,46.3801,0.0013,-0.0297,-0.3958,288.3906
20:08:27:124,2.0125,2.2009,10.5286,48.7152,0.0189,0.1496,-0.3766,288.8125
20:08:27:137,2.0843,2.2236,10.8459,48.591,0.0402,0.3514,-0.3599,289.0156
20:08:27:158,1.9969,2.2404,10.47,48.5905,-0.0234,0.4247,-0.3324,289.4688
20:08:27:183,1.8616,2.0357,10.7956,47.7308,-0.1055,0.3493,-0.2651,289.8906
20:08:27:199,1.8532,1.6945,11.8849,47.9755,-0.0879,0.2324,-0.1583,290.2812
20:08:27:219,2.1764,1.3414,12.705,47.2482,-0.0056,0.2015,-0.056,290.6562
20:08:27:237,2.4973,1.2683,12.5122,46.4931,-0.0184,0.1943,-0.0161,290.9844
20:08:27:258,2.8313,1.4527,12.3793,46.0991,-0.1433,0.1107,-0.0712,291.2031
20:08:27:281,2.9222,1.3809,13.0605,47.7607,-0.2455,-0.0896,-0.2009,291.2344
20:08:27:298,2.1489,0.7129,14.4024,46.0461,-0.1635,-0.2473,-0.2371,291.2812
20:08:27:317,0.7938,0.0401,15.5912,44.5379,0.1449,-0.1546,-0.0645,291.4531
20:08:27:338,0.1043,-0.6039,15.1411,46.5496,0.5702,0.0771,0.2391,291.75
20:08:27:357,0.2036,-0.7895,12.4021,45.8193,0.784,0.1197,0.5312,291.9531
20:08:27:377,0.8704,-0.653,10.2281,45.1632,0.7835,-0.1844,0.6982,291.8125
20:08:27:397,1.4151,-0.4591,9.7649,45.7164,0.7747,-0.5194,0.7443,291.3125
20:08:27:418,1.3133,-0.1311,9.2776,45.735,0.8184,-0.5833,0.7408,290.5
20:08:27:438,1.2726,-0.1945,8.3104,45.6087,0.8192,-0.456,0.7453,289.5781
20:08:27:458,1.0572,0.0832,7.4185,43.969,0.7449,-0.2369,0.7576,288.7031
20:08:27:482,1.056,0.2939,6.9134,44.6239,0.6509,-0.0954,0.7882,287.75
20:08:27:499,1.0404,0.3537,6.5961,44.669,0.6109,-0.1093,0.7938,286.8125
20:08:27:516,0.9566,0.3741,6.3579,43.895,0.6232,-0.1905,0.796,285.8281
20:08:27:536,1.0548,0.4172,6.1041,44.7326,0.6424,-0.2595,0.8218,284.8906
20:08:27:557,1.4031,0.6434,5.8623,43.692,0.636,-0.3152,0.8553,283.9062
20:08:27:578,1.8101,0.8685,5.9796,44.3446,0.542,-0.3844,0.8303,282.3906
20:08:27:598,2.2399,1.1271,6.571,42.7966,0.3193,-0.317,0.7134,281.3906
20:08:27:617,2.5583,1.4108,7.3324,43.2086,-0.0815,0.1458,0.4948,280.3906
20:08:27:637,2.4219,1.667,8.3379,44.1779,-0.571,0.9421,0.1946,279.9375
20:08:27:657,2.0771,1.6789,9.0346,43.7986,-0.8615,1.5805,-0.1119,279.2188
20:08:27:680,1.5564,1.4802,8.9556,43.7986,-0.8133,1.736,-0.3756,278.8594
20:08:27:699,1.2403,1.1881,8.7437,42.6241,-0.5992,1.4279,-0.521,278.8438
20:08:27:718,0.8524,0.6746,8.9712,42.9965,-0.3534,0.7472,-0.5993,279.1562
20:08:27:738,0.6394,-0.1407,10.1623,44.2287,-0.1755,-0.0313,-0.5963,279.6562
20:08:27:757,0.9231,-0.8553,11.2648,43.013,-0.0573,-0.4965,-0.4635,280.3125
20:08:27:778,1.7563,-1.0924,11.3618,42.6912,0.0072,-0.5383,-0.2211,281.0156
20:08:27:798,2.9653,-0.8242,10.6316,42.2728,-0.0003,-0.447,0.0111,281.6406
20:08:27:818,4.1505,-0.5381,9.8954,43.628,-0.1614,-0.4164,0.0923,282.0625
20:08:27:838,4.2762,-0.4567,10.9763,41.619,-0.5436,-0.5264,-0.0525,282.1562
20:08:27:857,2.7846,-0.9044,13.4771,42.7412,-0.9561,-0.5359,-0.3109,282.0938
20:08:27:882,1.1038,-1.424,14.351,43.1874,-1.0245,-0.0949,-0.3868,282.2344
20:08:27:897,1.0512,-1.4419,12.4272,42.9504,-0.7348,0.4859,-0.1564,282.7031
20:08:27:917,2.3297,-0.7931,10.1743,42.5991,-0.4533,0.6849,0.1565,283.2812
20:08:27:937,3.5196,-0.009,9.3124,43.3412,-0.3254,0.3485,0.2652,283.5156
20:08:27:957,3.6537,0.4842,9.1424,43.5233,-0.2298,-0.2251,0.1171,283.3906
20:08:27:981,2.7882,0.3274,8.7413,42.0843,-0.1673,-0.5253,-0.1662,283.125
20:08:27:999,1.9777,0.2029,8.1248,43.0586,-0.1888,-0.4259,-0.3671,283.0156
20:08:28:017,1.4654,0.2939,7.2617,41.7522,-0.2546,-0.1311,-0.4384,283.2188
20:08:28:037,1.0763,0.5513,6.7123,43.474,-0.3537,0.1205,-0.46,283.6562
20:08:28:058,0.801,0.7488,6.674,42.9169,-0.4203,0.2436,-0.4547,284.1562
20:08:28:082,0.5663,0.8458,6.6321,43.1885,-0.3955,0.2622,-0.4339,284.7188
20:08:28:098,0.455,1.0505,6.7314,42.8525,-0.3137,0.2279,-0.3756,285.2969
20:08:28:118,0.7914,1.3605,6.8128,44.0825,-0.2101,0.1722,-0.2901,285.8438
20:08:28:140,0.9003,1.6059,7.2342,42.6773,-0.1486,0.0385,-0.2682,286.0781
20:08:28:159,0.7878,1.6706,8.1189,41.9604,-0.1521,0.0502,-0.2493,286.6562
20:08:28:182,0.8321,1.898,9.2046,43.002,-0.0772,0.0654,-0.2366,287.2812
20:08:28:200,1.1254,2.0596,9.7601,42.3743,-0.0266,0.1059,-0.2752,287.2812
20:08:28:247,1.1984,2.1422,10.1144,41.3853,-0.0256,0.2076,-0.33,287.5781
20:08:28:247,1.1984,2.0381,10.1348,43.8895,-0.1047,0.296,-0.3923,287.8594
20:08:28:256,0.9913,1.7113,10.4388,43.8689,-0.2378,0.304,-0.4054,288.1719
20:08:28:282,0.9949,1.2432,11.7185,43.3886,-0.2783,0.1727,-0.3604,288.5625
20:08:28:299,1.1637,0.647,13.4879,43.6555,-0.1278,0.0942,-0.2613,289.0312
20:08:28:320,1.6677,0.0832,14.0409,44.245,0.0796,0.099,-0.1596,289.5156
20:08:28:337,1.9837,-0.0892,13.2879,43.3526,0.1867,0.0015,-0.084,289.9375
20:08:28:357,2.3704,0.1538,12.4081,44.7543,0.1087,-0.2217,-0.1109,290.25
20:08:28:381,2.6254,0.2017,12.8857,43.699,-0.0898,-0.304,-0.1833,290.4375
20:08:28:400,2.4362,-0.0473,14.7101,43.2298,-0.0493,-0.145,-0.2171,290.5156
20:08:28:416,1.6246,-0.5441,15.3673,44.0521,0.2562,0.1205,-0.1295,290.8281
20:08:28:436,1.1338,-1.1235,13.7057,44.2196,0.5396,0.2153,0.091,290.9531
20:08:28:456,1.4079,-1.1498,11.5593,44.9411,0.665,-0.0579,0.2764,291.1875
20:08:28:478,1.9334,-0.9858,10.367,42.8879,0.6778,-0.4901,0.3307,291.1562
20:08:28:498,2.1142,-0.8194,10.2545,46.4114,0.6647,-0.6901,0.2924,290.875
20:08:28:518,1.6378,-0.7512,10.1647,44.4845,0.6871,-0.5663,0.2577,290.4375
20:08:28:537,0.8656,-0.6889,9.1795,45.6834,0.7052,-0.3136,0.3038,290.0156
20:08:28:558,0.2826,-0.5812,7.7214,48.0094,0.6836,-0.1149,0.4047,289.625
20:08:28:582,-0.1483,-0.2735,6.3974,45.8463,0.64,-0.1005,0.5531,289.2344
20:08:28:601,-0.189,0.1035,5.6564,46.7888,0.6195,-0.2752,0.6956,289.0312
20:08:28:616,0.1629,0.4483,5.4792,46.3802,0.6149,-0.5327,0.7829,288.5
20:08:28:636,0.6549,0.8553,6.0886,45.7631,0.6402,-0.6955,0.7962,287.7812
20:08:28:661,1.1026,1.0684,6.5734,47.3415,0.6679,-0.7064,0.7467,286.9219
20:08:28:681,1.3887,1.2372,6.7099,47.5115,0.6245,-0.5639,0.6846,286
20:08:28:698,1.9095,1.5233,6.5159,46.9201,0.4852,-0.4409,0.5531,285.0312
20:08:28:716,2.2806,1.8274,6.6189,46.7074,0.2783,-0.4124,0.3509,284.0938
20:08:28:737,2.3907,1.8837,7.6257,48.275,0.0943,-0.3652,0.1304,282.9062
20:08:28:757,2.2578,1.7436,9.0119,45.5251,0.0053,-0.2129,-0.064,282.3438
20:08:28:778,2.0508,1.3904,10.0258,47.9107,-0.0184,0.0047,-0.2006,282.0625
20:08:28:801,2.1298,0.8039,10.3203,47.6633,-0.0623,0.1791,-0.2688,282.0469
20:08:28:817,2.6266,0.003,11.3522,48.715,-0.2029,0.2534,-0.3223,282.2188
20:08:28:840,2.6098,-0.5094,11.9149,47.8195,-0.2602,0.3791,-0.3378,282.4844
20:08:28:860,3.1808,-0.8194,10.6639,47.3405,-0.1452,0.56,-0.2435,282.8125
20:08:28:881,4.0954,-0.8685,9.474,47.5307,-0.1196,0.5421,-0.146,283.2344
20:08:28:902,5.1117,-0.9236,9.4931,49.8744,-0.2892,0.2364,-0.1593,283.5938
20:08:28:916,5.0016,-1.3222,11.2026,50.5033,-0.5899,-0.1519,-0.3796,283.7969
20:08:28:936,3.3197,-2.062,13.0377,50.6396,-0.8456,-0.1631,-0.6624,283.9375
20:08:28:958,1.372,-2.6103,12.8091,50.6865,-0.8629,0.4108,-0.729,284.5938
20:08:28:978,1.2571,-2.4774,10.5825,49.2128,-0.6796,1.0005,-0.431,285.5
20:08:28:998,2.2255,-2.0321,8.9496,49.5591,-0.5478,1.0409,-0.0493,286.3906
20:08:29:016,2.7439,-1.2695,9.0298,49.6996,-0.5382,0.5948,0.1653,286.9688
20:08:29:037,2.8025,-0.4232,9.8618,51.3094,-0.5161,0.0747,0.2519,287.0625
20:08:29:056,2.1381,0.0688,9.3818,49.6605,-0.4064,-0.039,0.1944,287.0156
20:08:29:078,1.4702,0.3142,7.8387,52.9379,-0.3398,0.2859,0.1179,286.8438
20:08:29:098,1.3193,0.7991,6.7218,52.3178,-0.4045,0.6396,0.1201,286.625
20:08:29:116,1.3876,1.4084,6.2538,51.7065,-0.494,0.728,0.1392,286.4844
20:08:29:139,1.3947,1.8346,6.468,49.4732,-0.5092,0.4891,0.0969,286.4062
20:08:29:156,1.2583,1.9543,6.9888,51.9205,-0.4578,0.1799,0.0196,286.3125
20:08:29:177,1.2128,2.0668,7.3802,51.9698,-0.3824,0.0385,-0.0416,286.2344
20:08:29:196,1.293,2.2176,7.6723,52.2859,-0.3353,0.0747,-0.0965,286.2188
20:08:29:216,1.2714,2.2248,8.1524,50.6847,-0.322,0.1341,-0.1665,286.2812
20:08:29:237,1.2188,2.2152,8.8048,51.4629,-0.3132,0.1671,-0.2323,286.3906
20:08:29:256,1.275,2.2105,9.6128,49.6597,-0.2961,0.1959,-0.2821,286.6719
20:08:29:279,1.3612,2.1458,10.4819,50.1741,-0.2559,0.2343,-0.321,286.9688
20:08:29:301,1.2702,1.9866,11.1355,51.1619,-0.1609,0.2873,-0.3772,287.3281
20:08:29:317,1.1781,1.7173,10.9237,52.0617,-0.0163,0.3703,-0.4139,287.7031
20:08:29:335,0.9913,1.4718,10.3874,51.9106,0.0634,0.4601,-0.4299,288.1719
20:08:29:356,0.7483,1.1378,10.7369,50.0713,-0.0192,0.466,-0.423,288.6562
20:08:29:378,0.6071,0.3011,12.3111,53.1679,-0.1438,0.2998,-0.3684,289.1719
20:08:29:399,1.0548,-0.3501,14.1726,51.4714,-0.1806,0.1309,-0.1724,289.6562
20:08:29:419,1.0177,-0.4292,14.1367,54.0196,-0.0354,0.1815,0.0439,290.0938
20:08:29:437,1.2224,0.3717,13.0557,54.3509,0.1241,0.2817,0.2686,290.3125
20:08:29:459,2.1681,0.8745,12.7241,54.4032,0.1089,0.2327,0.4109,290.2812
20:08:29:476,2.2267,0.4591,13.4376,54.294,-0.0277,0.0622,0.2788,289.9844
20:08:29:500,0.7603,-0.5836,15.3972,52.4133,-0.1404,-0.1298,0.0708,289.9844
20:08:29:516,-0.7301,-1.4132,15.9742,53.6711,0.1577,-0.2909,0.0804,289.3281
20:08:29:537,0.2443,-1.813,13.4627,52.53,1.2208,-0.3253,0.69,289.125
20:08:29:557,1.609,-1.1043,10.2964,53.7625,1.1792,-0.4379,0.642,289.125
20:08:29:578,1.949,-0.4603,8.9796,54.1367,0.9294,-0.6526,0.4415,289.0156
20:08:29:598,1.5635,-0.4699,9.8056,54.5492,0.8048,-0.709,0.3041,288.4688
20:08:29:617,1.117,-0.8829,10.5621,53.2947,0.95,-0.5743,0.27,286.8125
20:08:29:635,0.5125,-0.8876,9.3686,52.9344,1.1049,-0.419,0.3435,286.25
20:08:29:655,0.6106,-0.7775,7.5897,54.6886,1.1215,-0.3072,0.4098,285.8594
20:08:29:675,0.8943,-0.5333,5.9461,53.6646,1.0016,-0.2893,0.3991,285.4688
20:08:29:699,0.9506,-0.2711,4.9992,53.6646,0.8075,-0.3564,0.3472,284.9844
20:08:29:718,0.9841,-0.2089,4.597,53.6433,0.5968,-0.4885,0.2804,284.4062
20:08:29:736,0.7962,-0.1012,4.6353,53.804,0.3681,-0.6459,0.2378,283.8906
20:08:29:756,0.7184,-0.0533,5.1836,53.1482,0.1183,-0.7506,0.2133,283.4375
20:08:29:778,0.3604,-0.3406,6.6596,53.3041,-0.045,-0.6278,0.2929,283.0781
20:08:29:801,0.0719,-0.659,8.6085,53.7618,0.0557,-0.2965,0.5248,282.6094
20:08:29:819,0.5472,-0.2508,8.9281,54.2756,0.2799,-0.0206,0.7286,282.4844
20:08:29:836,1.469,0.6734,7.6831,53.6479,0.3672,-0.0249,0.7142,282.0781
20:08:29:856,2.2315,1.4635,7.075,53.7494,0.3262,-0.1306,0.5035,281.3594
20:08:29:876,2.4494,1.7149,6.5662,52.9772,0.1478,-0.1687,0.2154,280.4531
20:08:29:898,2.2375,1.7077,6.3926,54.2895,-0.1755,-0.1615,-0.0051,279.6719
20:08:29:919,2.1729,1.3952,7.2186,53.6149,-0.5374,-0.1631,-0.1556,279.2656
20:08:29:936,2.0699,0.7596,8.8455,53.5959,-0.7982,-0.1431,-0.1937,279.1719
20:08:29:957,2.1142,0.1886,10.9081,54.6053,-0.8887,-0.0398,-0.093,279.3281
20:08:29:977,3.0946,-0.3944,12.45,53.3451,-0.7955,0.1802,0.0135,279.6719
20:08:29:998,3.8189,-0.4711,12.2345,55.0434,-0.7007,0.2875,0.0476,279.8125
20:08:30:016,4.4473,-0.5537,11.2768,54.651,-0.6887,0.0755,-0.0059,280.0625
20:08:30:036,4.8939,-0.829,10.8339,54.8971,-0.7702,-0.362,-0.1037,280.1562
20:08:30:056,5.1967,-0.9702,11.4001,54.1739,-0.9257,-0.6185,-0.2552,280.2031
20:08:30:075,4.6293,-1.1402,13.1287,55.3612,-0.9638,-0.3253,-0.3457,280.2969
20:08:30:099,3.4657,-1.4299,13.6267,54.7526,-0.8309,0.2689,-0.2326,280.5312
20:08:30:117,2.9761,-1.2492,12.1603,56.2496,-0.6243,0.5312,0.0074,281.25
20:08:30:135,3.6453,-0.6363,10.1575,52.4971,-0.4621,0.2476,0.1075,281.7344
20:08:30:156,3.9565,0.3011,9.0346,55.221,-0.3534,-0.2054,0.0559,281.9844
20:08:30:175,3.9326,1.2216,8.6983,54.2349,-0.2717,-0.4158,-0.1324,281.9688
20:08:30:199,3.2012,1.5161,8.1081,54.8484,-0.2586,-0.3045,-0.3423,281.9219
20:08:30:215,2.3788,1.6586,7.2282,54.4066,-0.3188,-0.0771,-0.4917,281.9844
20:08:30:236,1.0655,1.7089,6.5363,53.8192,-0.388,0.107,-0.5905,282.2969
20:08:30:292,0.6478,1.6562,6.7194,53.7069,-0.4205,0.2212,-0.6347,282.7812
20:08:30:292,0.3281,1.6634,7.0726,54.4146,-0.4184,0.2747,-0.6494,283.4688
20:08:30:305,0.1354,1.509,7.8172,54.8026,-0.4123,0.3091,-0.6438,284.25
20:08:30:317,0.0947,1.2264,8.5594,55.4807,-0.3989,0.4202,-0.6094,285.0625
20:08:30:335,0.3545,0.9978,9.2872,54.9792,-0.3659,0.5075,-0.5258,285.8438
20:08:30:355,0.862,1.0409,9.9612,56.6008,-0.2903,0.5088,-0.4129,286.6406
20:08:30:375,1.5132,0.9679,10.3395,55.6108,-0.163,0.4281,-0.3181,287.3906
20:08:30:405,1.8616,0.8625,10.5621,56.2627,-0.0274,0.3275,-0.2635,287.9688
20:08:30:416,1.8975,0.7943,10.3036,55.3506,0.0823,0.3134,-0.2158,288.625
20:08:30:435,1.6593,0.7679,9.7601,55.2263,0.1425,0.3485,-0.1615,288.9531
20:08:30:456,1.6701,0.8949,9.7529,52.6479,0.1118,0.287,-0.0725,289.2031
20:08:30:476,1.8496,0.6913,10.9931,53.9339,0.017,0.0601,0.0061,289.375
20:08:30:499,2.1453,0.3178,12.4212,54.2628,-0.0248,-0.1444,0.079,289.4375
20:08:30:517,2.757,0.179,12.9168,54.0315,0.0455,-0.2401,0.1581,289.4688
20:08:30:536,3.6142,0.4555,12.6882,54.3389,0.102,-0.2853,0.1709,289.4219
20:08:30:556,3.7865,0.252,14.0756,52.7755,-0.0304,-0.5868,0.0178,289.2812
20:08:30:575,2.6601,-0.5752,16.9247,53.3823,-0.2346,-0.8531,-0.2174,289.0469
20:08:30:598,1.1529,-1.6011,18.6294,51.0294,-0.1894,-0.5218,-0.2752,288.9062
20:08:30:617,0.358,-2.135,15.2428,53.1194,0.3017,0.315,-0.0584,289
20:08:30:638,0.5843,-1.6706,10.4676,51.8548,0.7803,0.817,0.3256,289.3125
20:08:30:655,0.9781,-1.145,8.1955,52.7792,0.8735,0.4606,0.6101,289.5312
20:08:30:675,1.3959,-0.7943,9.3267,50.174,0.7249,-0.3279,0.752,289.3281
20:08:30:699,1.4845,-0.7069,10.7285,51.2598,0.6788,-0.8454,0.8242,288.2656
20:08:30:716,1.1481,-0.6865,10.0785,51.2513,0.8642,-0.8797,0.8444,287.2969
20:08:30:736,1.0212,-0.5513,8.5271,51.826,1.037,-0.7069,0.9017,286.2969
20:08:30:755,1.1505,-0.2819,7.4617,51.2459,1.0602,-0.5309,0.9693,285.1875
20:08:30:775,1.445,-0.1466,6.7745,49.671,1.0272,-0.4664,0.9984,283.9688
20:08:30:798,1.6533,0.0281,6.4992,51.7783,0.9904,-0.4709,0.9874,282.75
20:08:30:816,1.8832,0.1012,6.2262,50.102,0.9776,-0.4851,0.9608,281.4375
20:08:30:835,2.119,0.1574,6.0598,50.5882,0.984,-0.5189,0.9139,280.1406
20:08:30:856,2.3788,0.3298,5.921,49.3622,0.9856,-0.5154,0.8615,278.9375
20:08:30:876,3.018,0.5453,5.8707,52.3498,0.9539,-0.4608,0.8197,277.7188
20:08:30:899,3.5507,0.9571,5.6768,49.7612,0.8738,-0.3727,0.7286,276.5625
20:08:30:917,3.9948,1.4503,5.7558,50.4099,0.4048,-0.227,0.2796,275.5156
20:08:30:937,4.2247,1.655,6.474,50.2541,0.1201,-0.1287,-0.0842,274.5156
20:08:30:959,4.1026,1.2887,7.1468,47.8564,-0.1646,-0.0081,-0.4219,273.4844
20:08:30:976,3.8404,0.6351,7.9525,49.7289,-0.4844,0.0779,-0.6485,273.4844
20:08:31:000,3.7051,0.0341,9.3914,48.7771,-0.7318,0.1631,-0.7948,273.4375
20:08:31:017,3.3723,-0.641,11.0027,49.1917,-0.8229,0.3237,-0.8384,273.9531
20:08:31:038,2.9198,-1.1833,12.0214,50.0403,-0.7822,0.6018,-0.7354,274.7969
20:08:31:055,2.6948,-1.467,11.4336,48.6983,-0.7585,0.7682,-0.5391,275.7969
20:08:31:075,3.0934,-1.3054,10.3838,50.3881,-0.8312,0.6447,-0.391,276.9062
20:08:31:096,3.7363,-1.0074,9.9564,49.628,-0.9753,0.2175,-0.4272,277.875
20:08:31:115,3.8392,-1.2312,11.1379,49.2953,-1.0482,-0.1546,-0.5319,278.6094
20:08:31:138,2.8923,-1.8824,12.7157,48.8287,-0.9806,-0.0219,-0.4888,279.1562
20:08:31:155,1.4953,-2.3349,12.9336,48.6698,-0.7966,0.4284,-0.1838,279.8125
20:08:31:177,1.4163,-2.1925,11.4049,50.61,-0.6245,0.6601,0.2141,280.6094
20:08:31:200,2.7104,-1.4228,9.6523,49.0768,-0.5321,0.4276,0.441,281.3281
20:08:31:217,4.2486,-0.5668,8.8826,49.6411,-0.4613,-0.1354,0.3858,281.6719
20:08:31:235,5.1273,0.246,8.9437,50.9864,-0.4282,-0.5644,0.135,281.5469
20:08:31:255,4.937,0.6782,9.3591,48.4013,-0.4535,-0.5306,-0.1631,281.125
20:08:31:275,3.9242,0.4232,9.9217,50.6254,-0.4187,-0.0496,-0.3181,280.6875
20:08:31:297,2.6565,0.2987,9.4069,48.9503,-0.2983,0.5091,-0.2656,280.7656
20:08:31:316,2.1082,0.6075,7.901,50.6223,-0.208,0.7544,-0.1575,281.125
20:08:31:334,1.9023,1.0361,6.7566,50.4728,-0.1076,0.6716,-0.0709,281.5469
20:08:31:355,2.0579,1.4982,5.9725,50.1262,-0.0298,0.3786,-0.0736,281.8594
20:08:31:375,2.1537,1.9004,5.4924,49.2775,-0.0368,0.0582,-0.1585,282.0469
20:08:31:395,2.1477,1.9818,5.6157,49.2338,-0.1244,-0.153,-0.2661,282.1406
20:08:31:416,2.0112,1.8837,6.4944,51.4644,-0.228,-0.1908,-0.3434,282.2812
20:08:31:435,1.9466,1.7735,7.6053,50.9132,-0.2983,-0.0907,-0.3961,282.5312
20:08:31:456,1.7922,1.5497,8.3942,49.5061,-0.3742,0.0558,-0.4011,282.875
20:08:31:475,1.7814,1.4647,9.3555,49.1585,-0.4264,0.1743,-0.374,283.3281
20:08:31:501,2.0974,1.4,10.6902,50.5853,-0.3691,0.2635,-0.3785,283.5938
20:08:31:515,2.459,1.2037,11.7221,49.1654,-0.2157,0.3067,-0.4296,284.1094
20:08:31:535,2.6912,0.853,11.8813,50.4251,-0.1241,0.3352,-0.533,284.5938
20:08:31:555,2.4949,0.2735,11.4336,49.7325,-0.2277,0.418,-0.6573,285.0938
20:08:31:576,1.8568,-0.507,11.6563,51.0559,-0.3941,0.5722,-0.7191,285.9375
20:08:31:595,1.3804,-1.1031,12.0178,50.3963,-0.514,0.8207,-0.7282,286.6406
20:08:31:616,1.0188,-1.2995,11.7664,52.4509,-0.6543,0.9586,-0.7229,287.5156
20:08:31:635,1.0117,-1.7532,12.7205,49.9557,-0.8581,0.7501,-0.7314,288.4531
20:08:31:656,0.8501,-1.9794,15.6103,50.8715,-1.0125,0.3488,-0.6773,289.3594
20:08:31:676,0.3712,-2.1075,16.8517,50.0162,-0.7726,0.2713,-0.5356,290.3594
20:08:31:700,0.1953,-2.378,14.2169,51.2192,-0.1023,0.4801,-0.2786,291.3281
20:08:31:717,0.382,-2.3517,10.0031,51.2192,0.5302,0.6305,0.1051,292.1562
20:08:31:734,1.1841,-1.8549,7.5826,53.5212,0.7417,0.3171,0.4998,292.6875
20:08:31:754,2.0938,-1.3737,7.9297,50.5691,0.5734,-0.3213,0.7262,292.8281
20:08:31:774,2.0268,-1.2971,9.4704,53.3566,0.3145,-0.782,0.7201,292.4688
20:08:31:795,1.3026,-1.3916,10.8746,50.8432,0.1675,-0.7708,0.6844,291.7031
20:08:31:815,0.5711,-1.2169,10.9093,51.5651,0.233,-0.4305,0.7821,290.7656
20:08:31:834,0.139,-0.7141,9.5003,52.5895,0.5049,-0.162,0.9637,289.8906
20:08:31:855,0.3676,-0.3681,8.3367,53.5793,0.7638,-0.1977,1.1573,288.5469
20:08:31:874,0.8285,-0.2173,7.7765,51.9763,0.9201,-0.3447,1.29,287.375
20:08:31:895,1.0212,0.0796,7.4988,52.0227,1.0416,-0.4715,1.3323,285.9531
20:08:31:916,1.3612,0.0976,7.5814,53.9422,1.1609,-0.55,1.3286,284.4219
20:08:31:936,1.6797,0.173,7.4185,53.6781,1.3209,-0.6148,1.286,283.5938
20:08:31:956,1.8808,0.3813,6.4657,55.2772,1.4868,-0.619,1.205,281.9062
20:08:31:975,2.2806,0.6782,5.6744,53.1271,1.477,-0.6001,1.0942,280.2344
20:08:32:000,2.7786,0.8493,5.6409,55.0557,1.2701,-0.6278,0.9089,278.6875
20:08:32:017,3.3508,0.8506,6.3627,55.7021,0.9318,-0.6766,0.6489,277.1562
20:08:32:037,3.8141,0.6291,7.1145,52.904,0.547,-0.6132,0.331,275.7969
20:08:32:055,4.3755,0.0401,8.2565,54.3671,0.1457,-0.4798,-0.024,274.7656
20:08:32:075,4.5383,-0.7823,9.9397,53.4183,-0.221,-0.3761,-0.3979,274.1094
20:08:32:094,4.1002,-1.4036,11.1679,54.1767,-0.4362,-0.1857,-0.7197,273.8906
20:08:32:115,3.3101,-2.0249,11.3223,53.8694,-0.4884,0.1328,-0.9154,274.4219
20:08:32:135,2.8839,-2.5696,10.6076,53.9764,-0.4706,0.3685,-0.9543,275.3281
20:08:32:154,2.9941,-2.5959,9.9672,54.2566,-0.5007,0.3802,-0.8446,276.4531
20:08:32:175,3.5735,-2.2057,9.7733,54.2138,-0.604,0.1416,-0.7231,277.625
20:08:32:200,3.6345,-2.2308,10.9907,54.4251,-0.8317,-0.2294,-0.7599,278.6094
20:08:32:217,2.4111,-2.4798,12.6954,54.9327,-1.1204,-0.2845,-0.8667,279.5469
20:08:32:237,0.7292,-2.4642,13.6686,54.4425,-1.2884,0.2604,-0.8075,280.5469
20:08:32:256,0.6693,-2.2691,12.274,54.7831,-1.1329,0.9602,-0.4621,281.6719
20:08:32:275,1.9634,-1.4563,10.2557,53.7167,-0.8248,1.1738,-0.0123,282.8125
20:08:32:340,3.2526,-0.4172,9.2657,53.3772,-0.6181,0.8217,0.2516,283.5469
20:08:32:340,4.2031,0.3717,9.1819,55.3789,-0.5981,0.3999,0.2021,283.7188
20:08:32:341,4.1696,0.6458,9.2944,55.9586,-0.9947,0.8862,-0.5577,283.5469
20:08:32:362,2.8013,0.3753,9.1364,55.7148,-1.0538,1.3195,-0.8805,283.4219
20:08:32:383,1.0392,-0.0964,8.6803,56.1263,-0.8828,1.4713,-0.9261,284.4375
20:08:32:397,-0.5529,-0.4196,7.9812,54.5342,-0.5332,1.3017,-0.7007,285.0156
20:08:32:415,-1.1707,-0.4196,7.1181,55.9485,-0.1185,0.8913,-0.3513,285.0156
20:08:32:434,-0.9049,-0.1239,6.0778,56.3944,0.1617,0.4345,-0.0693,286.9219
20:08:32:457,-0.1759,0.2795,5.4038,55.628,0.2218,0.1211,0.0415,287.8438
20:08:32:474,0.5316,0.7272,5.2925,55.0309,0.0914,-0.0283,-0.0224,288.3438
20:08:32:495,1.0308,0.8697,5.9138,56.0868,-0.1097,-0.0654,-0.207,288.4531
20:08:32:517,0.8309,0.6075,6.7709,56.8912,-0.3497,-0.0204,-0.3657,288.4062
20:08:32:534,0.1893,0.3513,8.3367,55.7727,-0.4826,0.0438,-0.4121,288.4219
20:08:32:558,-0.5697,-0.0245,10.2928,57.2888,-0.3872,0.0436,-0.2896,288.6562
20:08:32:574,-1.045,-0.2149,11.5438,55.4615,-0.1521,0.0263,0.0082,289.0938
20:08:32:594,-0.5853,0.0904,12.025,57.9496,0.0562,0.002,0.2939,289.5781
20:08:32:618,0.0564,0.5178,12.0597,56.7295,0.1758,-0.1503,0.4868,289.9375
20:08:32:634,0.9183,0.6422,12.4572,56.3772,0.2322,-0.4174,0.6109,289.9375
20:08:32:657,1.8496,0.6051,13.5525,56.2932,0.314,-0.5935,0.6585,289.6094
20:08:32:674,2.7199,0.4364,14.412,58.8572,0.44,-0.57,0.5888,289.0312
20:08:32:695,2.6577,0.3657,14.2384,56.9418,0.4956,-0.422,0.487,288.2812
20:08:32:718,2.6218,0.3094,13.3873,56.9492,0.4059,-0.2632,0.3406,287.0938
20:08:32:734,2.4087,-0.0269,12.7002,56.9224,0.2381,-0.2238,0.1259,286.3906
20:08:32:756,0.807,-0.4663,12.9899,56.1472,0.1643,-0.3383,0.1198,285.8438
20:08:32:774,-0.3387,-0.7931,13.9523,57.6156,0.298,-0.3671,0.3485,285.5312
20:08:32:794,-0.3447,-0.902,14.4707,57.734,0.5907,-0.0598,0.589,285.4219
20:08:32:815,0.145,-1.0074,13.0856,55.8614,0.9065,0.0731,0.7555,285.1094
20:08:32:834,0.4682,-1.0325,10.877,57.7527,1.0613,-0.2973,0.8287,284.5156
20:08:32:855,0.7615,-1.1223,10.0522,56.3511,1.0666,-0.8254,0.8434,283.7031
20:08:32:875,0.9111,-1.1726,10.6136,58.2938,1.0669,-1.0787,0.838,282.7031
20:08:32:897,1.0284,-1.2193,10.9727,55.0628,1.0874,-1.0393,0.8204,281.6094
20:08:32:917,0.9925,-1.218,11.011,57.1582,1.1667,-0.81,0.8071,280.5625
20:08:32:936,0.8285,-1.1953,10.5071,55.0993,1.3313,-0.5309,0.8141,279.4531
20:08:32:954,0.6705,-1.1295,8.9652,56.0137,1.4559,-0.2696,0.8375,278.9062
20:08:32:976,0.692,-1.0074,7.051,54.1772,1.4576,-0.1101,0.8404,277.8281
20:08:33:000,0.8728,-0.8158,5.4697,56.6234,1.3111,-0.0139,0.804,276.7812
20:08:33:018,1.1385,-0.6255,4.4821,55.2765,1.0773,0.0084,0.7288,275.0312
20:08:33:037,1.7191,-0.0521,4.3492,55.6612,0.8629,-0.0558,0.6077,273.8906
20:08:33:054,1.439,-0.0329,4.6042,54.9462,0.6988,-0.1863,0.4348,272.8906
20:08:33:074,0.9087,-0.1155,4.925,55.3958,0.5422,-0.2638,0.2955,271.9844
20:08:33:094,0.7926,-0.1155,5.3129,56.2925,0.3707,-0.2526,0.2732,271.2656
20:08:33:116,1.0727,0.1179,5.9258,54.1601,0.212,-0.2704,0.3051,270.7969
20:08:33:136,1.5396,0.2592,6.565,55.0933,0.0626,-0.2981,0.3137,270.4531
20:08:33:156,2.0316,0.1095,7.2139,54.1332,-0.0874,-0.3223,0.2649,270.0938
20:08:33:176,2.2914,-0.2328,7.8687,54.677,-0.3031,-0.2843,0.1749,269.75
20:08:33:199,2.4745,-0.7201,9.2812,55.3464,-0.6434,-0.19,0.1142,269.4375
20:08:33:217,2.593,-1.0409,11.3211,55.036,-1.0173,0.0247,0.1262,269.2344
20:08:33:234,3.5723,-1.2157,12.3015,55.2933,-1.2104,0.3711,0.2378,269.1719
20:08:33:254,4.6113,-0.9116,11.3127,54.6572,-1.2456,0.7733,0.2905,269.2031
20:08:33:274,5.1093,-0.574,10.2701,54.2468,-1.4152,1.0353,0.1424,269.1875
20:08:33:294,4.5228,-0.7081,10.5238,54.9748,-1.7678,1.0132,-0.2129,269.0469
20:08:33:315,2.7834,-1.5113,12.3985,55.0409,-2.1295,0.8074,-0.6355,269
20:08:33:335,0.3533,-2.3493,14.2444,57.5635,-2.2272,0.7581,-0.8467,269.5
20:08:33:354,-0.6607,-2.5265,13.9799,55.618,-1.89,0.9304,-0.6232,270.5156
20:08:33:374,0.5795,-1.9638,11.8251,56.9304,-1.3063,0.9472,-0.1106,271.7188
20:08:33:394,2.4039,-0.975,10.2904,56.3933,-0.865,0.5914,0.3001,272.7031
20:08:33:417,3.1629,-0.2771,9.8594,55.9997,-0.6256,-0.0217,0.3555,273.0469
20:08:33:435,2.939,-0.0245,10.0258,56.3516,-0.4844,-0.5247,0.1736,272.8281
20:08:33:454,2.1992,-0.0952,9.8894,54.8645,-0.4264,-0.5636,-0.0397,272.5
20:08:33:474,1.2092,-0.3513,9.5278,55.2374,-0.4381,-0.2337,-0.1764,272.375
20:08:33:495,0.552,-0.2316,9.0143,55.7115,-0.4663,0.2366,-0.1684,272.2656
20:08:33:517,0.4921,0.0616,8.3978,54.9336,-0.4221,0.5634,-0.0552,272.3906
20:08:33:533,0.6346,0.2771,7.6903,55.5507,-0.2642,0.6066,0.0649,272.6562
20:08:33:556,0.9578,0.6291,7.1767,56.6988,-0.069,0.4409,0.1547,272.8906
20:08:33:577,1.4678,0.9391,6.7841,55.3774,0.0908,0.2215,0.1709,273
20:08:33:600,1.6749,0.9703,6.8164,54.2099,0.1433,0.03,0.0641,272.9688
20:08:33:618,1.4211,0.7021,7.6316,56.5131,0.0645,-0.0638,-0.1159,272.7188
20:08:33:640,0.7675,0.2149,8.8946,55.1034,-0.0615,-0.0278,-0.2789,272.6406
20:08:33:658,0.1593,-0.0305,10.1551,55.3218,-0.1241,0.0995,-0.338,273.0625
20:08:33:675,-0.2154,-0.3083,11.0015,53.7006,0.045,0.406,-0.2107,273.4688
20:08:33:695,-0.4368,-0.5441,11.2732,54.2666,0.1545,0.4931,-0.0856,273.8438
20:08:33:718,-0.444,-0.6434,11.2086,54.4676,0.2048,0.4391,0.0455,274.1406
20:08:33:736,-0.2896,-0.6387,11.3043,53.6813,0.1819,0.2534,0.1512,274.1406
20:08:33:754,-0.0035,-0.6853,12.0262,54.3855,0.142,0.0705,0.2071,274.2969
20:08:33:774,0.3557,-0.8266,12.9611,54.3855,0.138,-0.0904,0.2127,274.2812
20:08:33:796,0.728,-1.1342,13.5441,53.0323,0.1209,-0.2651,0.1752,274.1406
20:08:33:817,0.722,-1.4467,14.1343,53.7603,0.0413,-0.5311,0.1366,273.9062
20:08:33:834,0.2587,-2.0081,16.1861,54.3927,0.1396,-0.6374,0.1954,273.6406
20:08:33:854,-0.6511,-2.651,18.232,53.4119,0.6429,-0.3418,0.4548,273.1875
20:08:33:874,-0.6894,-3.2268,16.3824,49.636,1.2045,0.0657,0.8125,273.1875
20:08:33:897,0.0348,-2.7671,11.7928,51.5308,1.3156,0.0478,1.0242,272.625
20:08:33:920,0.4957,-2.0704,8.8144,50.8787,1.0655,-0.3833,1.0247,271.8281
20:08:33:933,0.03,-1.6694,8.8084,48.4928,0.8282,-0.8055,1.0332,270.6562
20:08:33:953,-0.5446,-1.6897,10.4269,50.828,0.9121,-0.9391,1.155,269.375
20:08:33:974,-0.6547,-1.8705,10.713,48.833,1.2197,-0.8933,1.3219,268.7344
20:08:33:995,-0.7936,-1.752,9.2429,48.8327,1.457,-0.7516,1.5187,267.4844
20:08:34:017,-0.5194,-1.4048,7.385,47.2879,1.5233,-0.6254,1.6697,266.0156
20:08:34:035,0.0624,-1.0936,5.8444,47.4735,1.4554,-0.5801,1.7249,264.3281
20:08:34:054,0.5328,-0.6985,4.9238,47.7169,1.3119,-0.6254,1.6996,262.5
20:08:34:074,1.0344,-0.2939,4.8472,47.3716,1.1721,-0.7234,1.5898,260.3906
20:08:34:094,1.3816,-0.1071,5.156,45.1213,1.0677,-0.8102,1.4287,258.2344
20:08:34:116,1.5587,-0.0784,5.3978,46.1315,0.9286,-0.8342,1.2551,256.125
20:08:34:134,1.6413,-0.1945,5.8982,45.5226,0.7201,-0.7785,1.0854,254.25
20:08:34:153,1.6102,-0.3418,6.8164,44.6958,0.5063,-0.6132,0.9534,252.4688
20:08:34:174,1.8137,-0.2747,7.6999,45.7573,0.3334,-0.4283,0.8407,250.9062
20:08:34:194,2.3309,-0.1179,8.6216,45.0012,0.2684,-0.2955,0.6934,249.0312
20:08:34:217,3.1114,-0.0676,9.0466,44.6373,0.2546,-0.2068,0.4668,247.9531
20:08:34:236,3.6142,-0.0736,8.9077,44.0078,0.1803,-0.1322,0.1794,247.0156
20:08:34:254,3.5687,-0.2747,8.7629,43.7195,0.0144,-0.0052,-0.0973,246.3438
20:08:34:274,3.121,-0.5752,8.6983,44.5164,-0.2077,0.1155,-0.2778,245.9375
20:08:34:294,2.7606,-0.8601,9.0849,45.0313,-0.3968,0.1823,-0.2813,245.875
20:08:34:317,3.5495,-1.1283,9.7421,44.0905,-0.506,0.1541,-0.2163,246.1094
20:08:34:335,4.7107,-1.0912,9.8271,43.5038,-0.653,0.0175,-0.2667,246.5
20:08:34:354,5.5918,-0.7823,10.1144,45.0465,-0.8701,-0.2193,-0.5268,246.8594
20:08:34:397,4.8256,-0.9439,11.4133,41.3143,-1.0157,-0.3104,-0.7838,247.2188
20:08:34:398,2.8444,-1.7352,13.1539,43.6695,-0.9438,-0.0259,-0.7205,247.75
20:08:34:414,0.9123,-2.7096,13.6052,44.3621,-0.6895,0.4862,-0.2539,248.7031
20:08:34:435,0.0983,-2.8473,12.0956,43.834,-0.4471,0.7357,0.4734,249.8125
20:08:34:457,3.3723,-1.6837,9.3854,43.1929,-0.2677,0.422,1.1046,250.5312
20:08:34:474,4.9202,-0.6542,9.061,43.2173,-0.0796,-0.2211,1.4322,250.5312
20:08:34:495,5.4182,0.3334,8.8144,42.5365,0.0679,-0.7218,1.4364,249.6719
20:08:34:517,5.1907,0.8877,8.1739,44.2997,0.1193,-0.7213,1.2221,248.2812
20:08:34:534,4.6664,1.1965,6.7123,39.7841,0.0855,-0.3522,0.9091,246.5781
20:08:34:552,3.9326,1.2276,5.3344,41.4969,-0.1111,0.1102,0.5563,244.9844
20:08:34:573,2.9366,1.1905,4.8915,42.0408,-0.4477,0.4849,0.2489,243.7031
20:08:34:592,2.1836,1.2791,5.2494,42.0514,-0.7294,0.6273,0.0654,242.9062
20:08:34:613,1.9239,1.3845,6.0048,42.2327,-0.8453,0.5536,-0.0171,242.5312
20:08:34:633,1.8472,1.3725,6.8368,42.0518,-0.8072,0.3602,-0.06,242.5
20:08:34:652,1.7646,1.406,7.6939,43.1687,-0.7065,0.1908,-0.0981,242.6562
20:08:34:674,1.6509,1.412,8.3679,42.019,-0.5974,0.0859,-0.1385,242.875
20:08:34:694,1.7012,1.333,9.371,42.97,-0.5475,0.0691,-0.1588,243.1094
20:08:34:717,2.0089,1.2767,10.2712,42.4988,-0.5302,0.1602,-0.1638,243.3594
20:08:34:736,2.2399,1.2588,10.9129,40.2075,-0.4969,0.3301,-0.2091,243.6094
20:08:34:755,2.423,1.0529,11.126,42.3495,-0.4487,0.5024,-0.2776,243.8906
20:08:34:773,2.2399,0.7272,11.436,41.7057,-0.4192,0.5219,-0.3657,244.3594
20:08:34:793,2.0603,0.1059,12.541,42.6384,-0.4131,0.3847,-0.4139,244.7969
20:08:34:813,1.6006,-0.5034,13.598,41.5073,-0.3486,0.2612,-0.3785,245.3438
20:08:34:833,1.6246,-0.7512,13.6566,41.1566,-0.2181,0.3054,-0.2115,245.9219
20:08:34:853,1.955,-0.653,12.9216,41.6633,-0.1212,0.4028,-0.0158,246.4062
20:08:34:873,2.2973,-0.4268,13.0389,41.1412,-0.1782,0.4002,0.1136,246.7188
20:08:34:895,2.2997,-0.6626,14.6419,41.8878,-0.2866,0.1477,0.16,246.7969
20:08:34:918,1.4929,-1.0971,16.6422,42.3558,-0.2136,-0.1796,0.2122,246.75
20:08:34:937,0.8884,-1.7555,16.6183,41.7634,0.1558,-0.1703,0.396,246.6094
20:08:34:953,1.1553,-2.1338,14.0134,42.1168,0.7015,0.0321,0.7142,246.5156
20:08:34:976,2.1561,-2.1829,11.63,42.9348,1.0674,-0.015,1.0207,246.1719
20:08:34:993,3.121,-1.8824,10.5717,42.5862,1.1827,-0.3879,1.1864,245.5312
20:08:35:013,3.2742,-1.3976,10.5538,41.6124,1.1366,-0.729,1.1675,244.4219
20:08:35:035,2.6888,-1.218,10.3562,42.5175,1.0946,-0.7509,1.0314,242.9688
20:08:35:054,2.0112,-1.2611,9.3818,40.499,1.1191,-0.5176,0.9121,241.4688
20:08:35:073,1.4295,-1.2695,7.7513,42.8918,1.1835,-0.2174,0.8825,239.2969
20:08:35:093,1.0452,-1.1211,6.1927,42.6712,1.2416,-0.0904,0.936,238.0625
20:08:35:116,0.9159,-0.7823,4.9753,41.8062,1.2517,-0.1636,1.0364,235.6875
20:08:35:136,1.1625,-0.3681,4.5467,40.7069,1.1049,-0.6741,1.1337,234.3125
20:08:35:159,1.5659,-0.0066,5.0064,42.7093,1.0104,-0.875,1.0484,234.3125
20:08:35:173,1.7527,-0.0413,5.8587,42.0591,0.9183,-0.8579,0.9267,232.8438
20:08:35:193,1.7251,-0.2699,6.7218,41.1348,0.8235,-0.6185,0.8354,231.4375
20:08:35:218,1.6928,-0.2891,7.2234,41.2082,0.7217,-0.3322,0.7568,230.0625
20:08:35:236,1.8257,-0.252,7.4856,40.7474,0.637,-0.1298,0.6721,228.8281
20:08:35:252,2.2387,-0.1311,7.4114,42.5627,0.5334,-0.0598,0.5547,227.7812
20:08:35:273,2.6744,-0.0413,7.4329,40.5526,0.4064,-0.1266,0.3792,226.7969
20:08:35:293,3.0228,-0.2245,7.7334,41.4919,0.2485,-0.235,0.217,225.2031
20:08:35:317,3.2682,-0.6446,8.4696,40.0354,0.0916,-0.2885,0.1422,224.7031
20:08:35:334,3.5387,-1.0301,9.3183,41.3551,-0.0045,-0.2859,0.1448,224.5312
20:08:35:353,4.0188,-1.327,9.8798,41.4774,-0.0599,-0.2201,0.1821,224.3125
20:08:35:373,4.7466,-1.7891,9.8702,43.0146,-0.1433,-0.0845,0.2034,224.2344
20:08:35:394,5.2698,-2.0656,9.1496,42.2075,-0.3475,0.0359,0.2114,224.0781
20:08:35:418,5.9629,-1.8597,8.4804,41.9382,-0.6682,0.0068,0.1142,223.8906
20:08:35:436,6.7781,-1.5006,8.6252,40.1513,-1.0855,-0.1578,-0.1569,223.6875
20:08:35:453,6.3687,-1.576,10.5765,41.5931,-1.367,-0.1964,-0.4368,223.5156
20:08:35:474,4.8819,-2.5002,13.2448,40.6487,-1.2871,0.1054,-0.4547,223.5156
20:08:35:493,2.9929,-3.3501,14.1139,42.098,-0.9284,0.6068,-0.0781,223.9219
20:08:35:512,2.5356,-3.228,12.5769,40.8461,-0.5646,0.8305,0.4521,224.6875
20:08:35:533,3.7195,-2.0859,10.191,42.4173,-0.3598,0.6015,0.7384,225.4219
20:08:35:557,4.9837,-0.6794,8.703,41.3884,-0.2796,0.2268,0.6617,225.7188
20:08:35:573,5.2051,0.325,7.907,41.9272,-0.2922,0.0585,0.3717,224.6562
20:08:35:593,4.6999,0.7392,7.1923,40.559,-0.4053,0.1546,0.062,223.9531
20:08:35:613,3.9302,0.9272,6.5782,41.5743,-0.5675,0.3192,-0.1689,223.7188
20:08:35:633,3.194,1.0959,6.6225,41.1083,-0.645,0.4244,-0.3095,223.5469
20:08:35:652,2.6768,1.0912,6.7997,42.4356,-0.6072,0.4753,-0.3652,223.7188
20:08:35:673,2.3847,1.2923,6.747,42.2639,-0.5369,0.4865,-0.378,224.1406
20:08:35:692,2.3153,1.5712,6.6368,41.6117,-0.4815,0.3943,-0.4169,224.6719
20:08:35:714,2.3105,1.7627,6.8667,41.8478,-0.4384,0.255,-0.4917,225.2031
20:08:35:734,2.2878,1.7352,7.2282,41.8478,-0.44,0.1136,-0.5782,225.7812
20:08:35:754,2.1836,1.6191,7.9872,42.6466,-0.4807,0.0332,-0.6177,226.3906
20:08:35:772,2.1465,1.4108,9.1029,43.4221,-0.5009,0.0399,-0.6177,227.0938
20:08:35:793,2.046,1.2863,10.3586,42.0127,-0.4551,0.1533,-0.575,227.8281
20:08:35:812,2.0759,1.2097,11.1834,41.6929,-0.3467,0.3272,-0.5234,228.6094
20:08:35:834,2.2411,0.8194,10.6603,41.9503,-0.2485,0.4167,-0.477,229.3906
20:08:35:857,2.5655,0.4196,10.8794,41.9503,-0.2786,0.3339,-0.4267,230.0625
20:08:35:874,2.8995,0.0114,12.2117,42.8193,-0.3854,0.136,-0.3777,230.4062
20:08:35:893,2.9486,-0.5165,14.0146,41.3861,-0.4599,0.0223,-0.3452,231.3281
20:08:35:917,2.8887,-0.9942,15.5349,42.0927,-0.4418,0.0974,-0.2933,231.8438
20:08:35:934,2.6888,-1.3725,16.1753,42.7667,-0.3284,0.2846,-0.2155,232.3281
20:08:35:956,2.1166,-1.7304,16.7679,42.9564,-0.2037,0.3754,-0.1159,232.7656
20:08:35:973,1.0787,-1.977,17.3832,43.3761,-0.0216,0.4465,0.066,233.1406
20:08:35:992,0.6633,-2.4475,15.7312,43.9625,0.4346,0.581,0.3768,233.3906
20:08:36:012,0.9123,-2.5863,12.1435,43.5799,1.0195,0.5932,0.7419,233.5156
20:08:36:034,1.5492,-2.3421,9.3674,42.977,1.3223,0.2478,1.0354,233.3281
20:08:36:052,1.5396,-1.6035,9.0179,42.6093,1.2719,-0.3905,1.1502,232.7188
20:08:36:072,1.4534,-1.2659,10.5681,43.5951,1.0733,-0.9058,1.1534,231.6094
20:08:36:093,1.2008,-1.3749,11.3594,44.2543,1.0344,-0.973,1.107,230.1875
20:08:36:113,0.8644,-1.6035,10.628,42.446,1.1819,-0.7018,1.0806,228.6562
20:08:36:135,0.6633,-1.649,9.0801,44.3318,1.3862,-0.3727,1.1344,227.2188
20:08:36:153,0.7387,-1.4982,7.4257,45.1194,1.5529,-0.1349,1.2378,225.7656
20:08:36:173,0.9746,-1.3533,5.9844,45.0331,1.6538,-0.0856,1.3262,224.2969
20:08:36:192,1.2367,-1.2013,5.2374,43.5904,1.6525,-0.1921,1.3709,221.9688
20:08:36:213,1.5168,-1.0098,5.0064,43.6005,1.5793,-0.3391,1.3779,220.2344
20:08:36:233,1.8891,-0.7596,4.9597,43.0662,1.4892,-0.48,1.3435,218.4375
20:08:36:252,2.3213,-0.6051,5.1596,43.5434,1.3843,-0.5671,1.2647,216.7344
20:08:36:272,2.7331,-0.3573,5.4589,43.9204,1.2751,-0.5823,1.148,214.9844
20:08:36:292,3.0396,-0.0832,5.5918,44.2715,1.1907,-0.5522,0.9914,213.3281
20:08:36:312,3.3101,0.1299,5.1788,43.1737,1.0876,-0.4835,0.7976,211.9062
20:08:36:333,3.6501,0.2209,4.9226,44.2809,0.8621,-0.3889,0.5813,210.6094
20:08:36:353,3.9817,0.1083,5.2602,44.0238,0.4725,-0.3234,0.3201,209.5312
20:08:36:373,4.3085,-0.228,6.2095,44.1174,-0.024,-0.2592,0.0577,208.7344
20:08:36:392,4.6796,-0.5872,8.2865,44.3134,-0.5646,-0.222,-0.182,208.3281
20:08:36:450,4.9214,-1.054,11.4444,44.504,-0.983,-0.1085,-0.4267,208.2656
20:08:36:450,5.4206,-1.9555,12.4871,45.9003,-1.0213,0.2529,-0.611,208.3906
20:08:36:452,5.405,-2.2966,10.683,44.8421,-0.8943,0.765,-0.7367,208.875
20:08:36:474,4.8208,-1.6694,9.3279,45.4629,-1.0192,1.1104,-0.7924,209.6719
20:08:36:494,4.5491,-1.5496,9.9648,45.9387,-1.326,1.0108,-0.8283,211.1094
20:08:36:519,3.4071,-1.9124,11.8885,45.2467,-1.5204,0.5842,-0.8669,212.1094
20:08:36:533,1.937,-1.8142,13.7141,44.7638,-1.4733,0.3522,-0.6938,213.25
20:08:36:553,1.3289,-1.2468,13.0413,44.1787,-0.8,0.826,0.3499,214.4531
20:08:36:573,2.7834,-0.8254,10.9572,46.8643,-0.6709,0.8321,0.7211,214.4531
20:08:36:593,4.7813,-0.1119,9.3207,47.0766,-0.7374,0.4982,0.7286,215.4688
20:08:36:612,5.8156,0.8577,9.0598,45.9428,-0.8048,-0.0081,0.4335,215.8594
20:08:36:634,5.733,1.4156,9.7972,45.3738,-0.7593,-0.247,-0.0379,215.5938
20:08:36:652,4.257,1.0612,10.1348,46.609,-0.6527,-0.0137,-0.4107,214.2031
20:08:36:671,2.2746,0.3154,9.4859,46.3828,-0.5609,0.5016,-0.4928,213.7812
20:08:36:691,0.7351,0.1191,8.3284,46.5109,-0.4562,0.8401,-0.345,213.8906
20:08:36:711,0.2048,0.2065,7.1324,47.1441,-0.3199,0.7826,-0.1276,214.4062
20:08:36:733,0.4969,0.4807,6.3292,47.3544,-0.1888,0.463,0.0247,215.0781
20:08:36:752,1.0129,0.817,6.0479,47.6553,-0.0943,0.0825,0.0516,215.8438
20:08:36:773,1.445,1.0038,6.0718,47.8938,-0.1007,-0.2329,-0.0283,215.875
20:08:36:792,1.536,0.9559,6.6069,48.0988,-0.1909,-0.3988,-0.1359,215.8438
20:08:36:815,1.3744,0.4926,7.6843,48.3972,-0.2647,-0.3937,-0.1607,215.8281
20:08:36:834,1.4462,0.2879,8.9425,47.4688,-0.2575,-0.2928,-0.1303,215.8906
20:08:36:852,1.9442,0.6219,10.0558,49.6374,-0.1489,-0.1951,-0.1551,216.0469
20:08:36:877,2.6421,1.1426,11.0206,47.1351,0.0439,-0.0555,-0.3085,216.125
20:08:36:891,2.6541,1.1319,10.6938,49.4876,0.1369,0.0931,-0.4912,216.2812
20:08:36:912,2.113,0.7129,9.6212,48.3785,-0.0599,0.1908,-0.5426,216.4375
20:08:36:934,1.445,0.343,9.8271,48.1214,-0.3918,0.1975,-0.4382,216.7812
20:08:36:954,0.8537,-0.0233,11.9412,47.7192,-0.5148,0.1584,-0.2184,217.3281
20:08:36:972,0.783,-0.3346,13.9715,50.3882,-0.3678,0.1935,0.045,218.25
20:08:36:992,1.2331,-0.2831,14.3103,48.6889,-0.1734,0.1301,0.2316,218.7031
20:08:37:013,1.5982,-0.0102,14.0397,50.716,-0.1489,-0.1841,0.3238,218.875
20:08:37:034,1.9622,-0.0904,15.8066,48.9532,-0.0823,-0.4145,0.3536,218.75
20:08:37:052,1.6138,-0.6794,18.3026,50.577,0.3119,-0.2907,0.4665,218.4375
20:08:37:072,1.554,-1.6598,18.5815,50.2804,0.922,0.0678,0.6894,218.0312
20:08:37:092,2.1764,-2.2595,15.3913,49.6972,1.3225,0.2273,0.8721,217.5156
20:08:37:113,2.9246,-2.0417,11.849,49.7419,1.355,-0.003,0.8777,216.8281
20:08:37:132,2.8229,-1.6322,10.1886,48.9708,1.2104,-0.3064,0.7773,215.8281
20:08:37:152,1.9047,-1.4778,10.3778,49.5811,1.1585,-0.3788,0.7547,214.6719
20:08:37:176,1.0021,-1.4539,10.5957,47.5942,1.2789,-0.2473,0.8756,213.5938
20:08:37:191,1.0643,-1.6286,9.7026,48.4816,1.4195,-0.0787,1.0181,212.6562
20:08:37:213,1.1015,-1.3976,8.3355,50.1527,1.5209,0.042,1.144,211.5938
20:08:37:234,1.2271,-1.0648,6.8882,49.4986,1.5979,-0.0345,1.2322,210.375
20:08:37:253,1.9179,-0.6351,4.6508,49.5301,1.6072,-0.2222,1.2596,209.0469
20:08:37:272,2.3907,-0.4292,4.1768,48.6893,1.5183,-0.4297,1.225,208.3125
20:08:37:293,2.5188,-0.2197,4.2917,47.6501,1.3404,-0.6015,1.1222,205.9375
20:08:37:318,2.6517,-0.0449,5.1908,47.8055,1.1007,-0.6731,1.004,204.4219
20:08:37:336,2.684,0.1071,6.0467,47.2461,0.9137,-0.6102,0.8892,202.9375
20:08:37:352,2.8696,0.2328,6.2502,47.1446,0.8051,-0.431,0.7861,201.6094
20:08:37:377,3.17,0.507,6.0682,48.8808,0.7047,-0.2433,0.6846,200.4375
20:08:37:391,3.4789,0.7356,6.0287,48.7272,0.5428,-0.141,0.5453,199.4531
20:08:37:411,3.595,0.7763,5.9353,46.7411,0.3124,-0.1178,0.3382,198.5156
20:08:37:433,3.7937,0.5477,6.7434,47.1332,-0.0423,-0.2161,0.1011,197.7188
20:08:37:452,3.9637,-0.1682,8.4636,46.4872,-0.4583,-0.3029,-0.1165,197.1875
20:08:37:472,3.7578,-0.7703,10.3862,46.9319,-0.8266,-0.1636,-0.2709,196.9219
20:08:37:491,4.0451,-1.1726,11.5402,46.0997,-1.0706,0.3035,-0.2728,197
20:08:37:512,4.9274,-1.3006,10.7285,46.1417,-1.0842,0.7783,-0.1822,197.3281
20:08:37:534,6.1221,-1.0888,9.4381,48.0773,-1.0605,0.911,-0.1394,197.8125
20:08:37:553,7.2522,-0.8697,9.4189,46.8542,-1.1526,0.5184,-0.2408,198.2031
20:08:37:572,7.0977,-0.8182,10.701,45.6438,-1.2259,-0.2483,-0.5149,198.6094
20:08:37:592,5.3356,-1.4275,11.5952,45.02,-1.146,-0.8411,-0.8459,199.0156
20:08:37:611,3.7171,-1.6813,11.1367,44.7584,-0.963,-0.9274,-0.9221,199.75
20:08:37:634,3.4514,-1.418,9.6691,44.8345,-0.8211,-0.6427,-0.7007,200.8594
20:08:37:652,4.1816,-1.0636,9.0418,45.7621,-0.8562,-0.4382,-0.4169,201.9688
20:08:37:672,4.8532,-0.1993,9.5434,44.3764,-1.0136,-0.4126,-0.2512,202.8906
20:08:37:692,5.1261,0.3837,10.8614,45.436,-1.1308,-0.4683,-0.2917,203.4844
20:08:37:712,4.3695,0.6482,11.0589,44.5633,-1.0509,-0.3612,-0.4781,203.8906
20:08:37:732,2.8468,0.6446,10.2856,44.5633,-0.8719,-0.0326,-0.6691,204.3906
20:08:37:751,1.5875,0.4675,8.9556,43.5342,-0.6522,0.3304,-0.7223,205.0938
20:08:37:772,1.2415,0.6841,7.3659,43.8271,-0.4139,0.5581,-0.6105,205.5312
20:08:37:792,1.4031,1.0193,6.0814,45.7427,-0.2091,0.5126,-0.4762,206.4531
20:08:37:814,1.7515,1.3545,5.2698,44.4726,-0.0977,0.2604,-0.4272,207.3594
20:08:37:834,2.0903,1.4946,5.2398,45.5683,-0.1321,-0.0371,-0.4893,208.0781
20:08:37:851,2.0328,1.4072,6.4357,45.1189,-0.3028,-0.2694,-0.6171,208.6094
20:08:37:871,1.8999,1.1115,8.065,45.4964,-0.465,-0.3266,-0.717,209.1406
20:08:37:892,1.8401,0.8098,9.5242,44.5028,-0.5326,-0.2094,-0.7356,210.1719
20:08:37:911,1.6509,0.8386,10.2593,45.9713,-0.51,0.112,-0.6803,211
20:08:37:934,1.9538,0.8039,10.5981,44.1147,-0.4477,0.4851,-0.5729,211.9219
20:08:37:953,1.9717,0.8015,10.4951,43.9244,-0.2232,0.7437,-0.3625,212.7969
20:08:37:972,1.6785,0.8517,9.8247,43.1186,-0.2109,0.4668,-0.2126,212.7969
20:08:37:992,1.712,0.7679,10.1467,44.9456,-0.3071,0.0667,-0.0397,213.5625
20:08:38:012,2.3261,0.4615,12.086,44.1539,-0.3752,-0.2038,0.1171,214.7188
20:08:38:034,2.9222,0.009,14.3713,43.338,-0.3547,-0.2265,0.2713,214.7188
20:08:38:051,3.2861,-0.252,15.7408,44.5182,-0.2687,-0.178,0.4026,215.0469
20:08:38:074,3.6225,-0.586,16.4052,44.1344,-0.155,-0.0928,0.5049,215.0312
20:08:38:090,3.8835,-0.7967,16.647,42.9886,0.0056,-0.0126,0.5712,214.7656
20:08:38:111,3.8129,-0.7356,16.8625,42.9516,0.3004,0.067,0.6031,214.3438
20:08:38:135,3.4585,-0.9415,16.5129,42.431,0.7385,0.1948,0.6335,213.125
20:08:38:153,2.7319,-1.3461,14.6095,43.3949,1.15,0.2385,0.7584,212.3906
20:08:38:171,2.4925,-1.5628,12.3327,42.4462,1.4442,0.1032,0.9123,212.0469
20:08:38:192,2.4781,-1.5999,10.4795,43.2272,1.6261,-0.1112,1.0125,210.6094
20:08:38:211,2.5751,-1.5951,9.0191,41.9978,1.6924,-0.2973,1.0689,210.0156
20:08:38:235,2.6565,-1.4263,7.9106,41.0335,1.653,-0.4073,1.0822,208.7031
20:08:38:253,2.6984,-1.0445,7.1624,42.9313,1.5497,-0.4489,1.037,207.3281
20:08:38:272,2.684,-0.744,6.8272,41.8937,1.4685,-0.4124,0.9406,206.5781
20:08:38:292,2.5033,-0.6207,6.2957,42.5967,1.3761,-0.2952,0.8303,205.0781
20:08:38:312,2.2183,-0.5848,5.5822,41.4078,1.2336,-0.1484,0.7533,203.7188
20:08:38:336,2.0017,-0.4352,5.1788,42.2394,1.0514,-0.0337,0.6988,202.4219
20:08:38:356,1.7575,-0.4878,5.4613,42.6906,0.9177,0.0268,0.6846,201.2656
20:08:38:371,1.6461,-0.6315,6.1305,42.0792,0.8727,0.0926,0.7256,200.2031
20:08:38:392,1.7599,-0.7272,6.31,41.8623,0.8706,0.1251,0.7994,199.2812
20:08:38:411,2.1214,-0.3909,6.0802,42.4955,0.8314,0.1123,0.8386,198.3594
20:08:38:436,2.9486,0.2029,5.7187,42.9563,0.69,0.0151,0.7243,197.3906
20:08:38:453,3.8189,0.6973,5.9006,43.368,0.4503,-0.076,0.4812,195.8281
20:08:38:504,5.1225,1.2181,7.3108,43.5237,0.2626,-0.1301,0.0958,194.7812
20:08:38:504,5.6109,1.2205,8.6647,42.6527,0.1643,-0.1327,-0.3639,194
20:08:38:521,4.421,0.4579,8.9173,42.6151,-0.012,-0.0462,-0.5782,193.6094
20:08:38:541,3.2311,-0.7751,9.2381,42.823,-0.3004,0.2295,-0.4155,193.75
20:08:38:552,3.0994,-1.2204,9.9145,43.1813,-0.5268,0.541,-0.0629,194.3281
20:08:38:576,4.4138,-1.0002,10.1515,42.7089,-0.6165,0.622,0.1262,194.9375
20:08:38:590,5.7139,-0.6937,9.5733,44.1371,-0.6969,0.4257,0.0854,195.25
20:08:38:613,6.6117,-0.4184,8.7378,43.8263,-0.9316,0.0484,-0.1418,195.2344
20:08:38:636,6.729,-0.2053,9.0011,43.1813,-1.2951,-0.2667,-0.4893,195.1406
20:08:38:652,5.6528,-0.6722,10.6926,43.2513,-1.5524,-0.1732,-0.7378,195.25
20:08:38:675,2.9845,-2.0991,12.5218,44.9968,-1.5699,0.2811,-0.7125,195.7656
20:08:38:691,2.8037,-1.8729,11.4468,43.6007,-1.3577,0.6793,-0.4568,196.7188
20:08:38:712,3.6656,-1.4814,10.5023,43.0535,-1.0565,0.5669,-0.1663,197.75
20:08:38:735,4.2259,-0.6626,9.954,45.4471,-0.78,0.1898,-0.0065,198.6562
20:08:38:752,3.9733,0.0054,9.5171,44.324,-0.5737,-0.0497,-0.0493,199.1875
20:08:38:771,3.4705,0.2915,8.6001,44.6339,-0.4333,0.0614,-0.1836,199.375
20:08:38:790,3.1916,0.5896,6.9756,45.1544,-0.3561,0.4002,-0.2781,199.4688
20:08:38:811,2.8624,0.9128,5.6768,44.7959,-0.3449,0.6007,-0.3665,199.6562
20:08:38:833,2.5116,1.1247,5.2147,46.8906,-0.387,0.5339,-0.4581,199.9844
20:08:38:852,2.0328,1.2576,5.2961,45.797,-0.4362,0.3392,-0.541,200.4062
20:08:38:872,1.6294,1.3761,5.6792,44.5001,-0.4815,0.1895,-0.5849,200.9531
20:08:38:891,1.3217,1.4563,6.4609,44.4618,-0.5414,0.1091,-0.5873,201.6094
20:08:38:911,1.4534,1.6454,7.6149,45.6064,-0.6032,0.1158,-0.5396,202.2812
20:08:38:935,1.8018,1.8837,9.0346,45.9182,-0.6115,0.1291,-0.4973,203.0312
20:08:38:954,2.1944,2.0369,10.124,45.4742,-0.5249,0.0934,-0.4973,203.75
20:08:38:971,2.2579,1.9351,10.9871,45.9315,-0.404,0.0018,-0.5607,204.4062
20:08:38:991,2.0376,1.4802,11.8191,45.5623,-0.3316,0.0079,-0.6267,205
20:08:39:011,1.6425,0.9954,12.3458,47.0513,-0.2807,0.2082,-0.6185,205.6562
20:08:39:038,1.5887,0.5824,12.4583,46.4378,-0.2085,0.4489,-0.4962,206.375
20:08:39:055,1.9011,0.2077,12.8354,47.4355,-0.1145,0.4894,-0.2919,207.4844
20:08:39:071,2.3381,-0.4315,13.434,47.7011,0.0557,0.2761,-0.0784,208.125
20:08:39:091,3.2299,-0.9403,13.4088,48.3961,0.3278,-0.0057,0.1669,208.5156
20:08:39:111,3.9062,-0.8362,11.8442,47.4441,0.6796,-0.3176,0.3584,208.6094
20:08:39:132,4.3468,-0.252,10.3155,48.189,0.8466,-0.6326,0.3877,208.3906
20:08:39:153,4.6078,0.0796,10.1049,48.1427,0.6527,-0.8433,0.2157,207.8906
20:08:39:170,3.9996,-0.1335,11.2361,50.0643,0.1662,-0.7088,-0.1114,207.3438
20:08:39:191,2.3357,-0.8637,13.1096,48.2418,-0.3286,-0.2675,-0.4291,206.9531
20:08:39:212,0.2467,-1.6897,14.2205,49.6133,-0.5084,0.3392,-0.5162,207.0156
20:08:39:238,-0.7541,-2.2727,13.2329,50.985,-0.24,0.7525,-0.2573,207.5156
20:08:39:250,-0.7816,-2.1374,11.1439,50.7634,0.1875,0.7189,0.1981,208.1562
20:08:39:272,-0.3123,-1.7579,10.6531,50.206,0.4349,0.2007,0.6503,208.5469
20:08:39:291,0.2719,-1.3354,11.8418,50.4866,0.5867,-0.4489,0.9984,208.3594
20:08:39:314,0.7579,-1.1223,11.7449,51.1655,0.8906,-0.7471,1.2431,208.0469
20:08:39:336,0.8884,-0.896,9.9085,51.074,1.2456,-0.6331,1.3795,207.0625
20:08:39:352,1.1996,-0.7033,8.0207,51.504,1.4283,-0.3399,1.4753,204.8281
20:08:39:375,1.5623,-0.513,6.2574,49.2429,1.387,-0.093,1.5219,203.0781
20:08:39:391,1.8963,-0.1658,5.1931,49.8713,1.228,-0.2747,1.4735,203.0781
20:08:39:411,2.2614,0.0916,5.229,50.5656,1.0951,-0.5522,1.3611,201.2812
20:08:39:432,2.5056,0.0844,5.7163,49.2772,0.9944,-0.7399,1.2181,199.375
20:08:39:451,2.684,-0.1622,6.3603,49.6461,0.8725,-0.6832,1.0937,197.4531
20:08:39:470,2.7558,-0.3789,6.8918,51.1767,0.7236,-0.4379,1.0026,194.0312
20:08:39:490,2.9773,-0.5704,7.47,50.3006,0.5795,-0.1223,0.9238,192.5
20:08:39:510,3.0731,-0.6746,7.8232,51.3045,0.4402,0.1986,0.8748,191.2031
20:08:39:531,3.273,-0.7045,8.1679,48.4128,0.3438,0.5115,0.8407,189.9531
20:08:39:553,3.7734,-0.6638,7.7765,50.1631,0.2117,0.7126,0.7376,188.8125
20:08:39:573,4.1648,-0.7548,7.3348,50.5325,-0.0304,0.7861,0.609,187.7344
20:08:39:591,4.6137,-0.8469,7.5035,50.7975,-0.2674,0.6793,0.4639,186.7656
20:08:39:610,5.0064,-0.9451,8.2745,48.8699,-0.42,0.4702,0.2873,185.5
20:08:39:633,5.2602,-1.1618,8.9592,50.0204,-0.5241,0.312,0.1312,184.875
20:08:39:656,5.4146,-1.4539,9.1711,49.8928,-0.6762,0.2564,0.0324,184.5
20:08:39:670,5.7713,-1.3006,9.1927,49.944,-0.8994,0.1357,-0.0706,184.3125
20:08:39:691,6.2693,-0.8062,9.2286,49.7614,-1.2211,-0.1599,-0.2773,184.2969
20:08:39:711,6.6165,-0.3909,10.5202,50.7222,-1.5633,-0.4568,-0.5878,184.3906
20:08:39:731,6.0922,-0.7727,13.4831,49.2035,-1.6874,-0.2273,-0.8531,184.6719
20:08:39:756,4.336,-1.2408,16.6554,49.2035,-1.2938,0.5475,-0.8619,184.9375
20:08:39:771,3.0467,-1.5269,16.1502,51.324,-0.599,1.1075,-0.6211,185.7656
20:08:39:790,3.1868,-1.218,12.6116,52.4353,-0.1361,0.969,-0.3521,186.875
20:08:39:812,4.0583,-0.5022,10.1096,49.8372,0.1118,0.2979,-0.2738,188.0469
20:08:39:836,4.7143,0.1239,9.1986,50.7142,0.2493,-0.3008,-0.4105,188.8906
20:08:39:854,4.6916,0.5321,8.7653,52.9508,0.2764,-0.3724,-0.6659,189.3594
20:08:39:879,4.251,0.5022,7.8172,48.9643,0.2021,-0.1199,-0.9231,189.6875
20:08:39:890,3.5615,0.4184,6.5782,51.4183,0.0714,0.1445,-1.1253,190.4219
20:08:39:912,2.6122,0.2173,5.6432,51.4572,-0.0445,0.2705,-1.2131,191.25
20:08:39:943,1.6988,0.0868,5.0686,49.7432,-0.1044,0.2617,-1.1948,192.4219
20:08:39:954,0.9985,0.1311,4.7969,49.6958,-0.1606,0.1908,-1.1069,193.7969
20:08:39:970,0.6322,0.3178,4.8723,50.0684,-0.233,0.1078,-0.9961,195.1406
20:08:39:993,0.5963,0.562,5.3045,49.9816,-0.3124,0.0063,-0.8983,196.4844
20:08:40:010,0.7375,0.8374,6.1939,51.0979,-0.3779,-0.1253,-0.8155,197.7188
20:08:40:032,1.0895,1.0804,7.5035,51.2081,-0.3776,-0.2345,-0.7806,198.8281
20:08:40:054,1.1781,1.1355,8.7928,50.1327,-0.3236,-0.2467,-0.7503,199.7812
20:08:40:077,1.1003,0.9056,10.1204,50.3582,-0.2623,-0.0947,-0.6874,200.7188
20:08:40:091,1.1266,0.9427,10.0941,52.2576,-0.2748,0.1964,-0.5796,201.625
20:08:40:110,1.3504,0.993,10.2258,51.6539,-0.3649,0.4209,-0.4616,202.4219
20:08:40:131,1.8532,0.8996,10.8147,50.762,-0.4754,0.4255,-0.3737,203.1875
20:08:40:152,1.876,0.5585,12.3327,50.6047,-0.592,0.2428,-0.3556,203.8438
20:08:40:179,1.4283,-0.0916,14.8573,49.26,-0.6583,0.0742,-0.3346,204.3594
20:08:40:202,0.9087,-0.3932,15.0154,51.3656,-0.4706,0.2462,-0.1929,205.0781
20:08:40:210,0.8872,-0.0174,12.9527,51.0201,-0.2021,0.602,0.0521,205.5312
20:08:40:232,1.548,0.2855,12.0705,47.2004,-0.1989,0.6923,0.2663,205.7031
20:08:40:259,2.0508,-0.1167,13.7596,48.9051,-0.4029,0.422,0.3352,205.8125
20:08:40:271,2.1046,-1.0074,16.5644,46.8998,-0.4831,0.0313,0.3677,205.7188
20:08:40:291,1.8628,-1.752,17.9315,48.1042,-0.1683,-0.1245,0.4793,205.4375
20:08:40:309,2.0639,-2.5468,15.6438,46.9195,0.5028,0.0279,0.6857,205.125
20:08:40:331,2.6709,-2.5504,11.8239,47.8626,1.0804,0.1922,0.9038,204.6719
20:08:40:357,3.1114,-2.001,9.2274,46.9882,1.2562,0.0564,1.0226,203.9844
20:08:40:370,2.8217,-1.3773,8.7497,45.5955,1.1265,-0.2464,0.9747,203.0312
20:08:40:389,2.1405,-1.3461,9.122,45.5761,0.9356,-0.3428,0.8721,201.9062
20:08:40:409,1.36,-1.2875,8.5845,44.7892,0.9164,-0.2108,0.829,200.6562
20:08:40:430,1.0967,-1.1618,7.1576,44.8287,1.0224,-0.0457,0.8932,199.5156
20:08:40:452,1.2583,-0.9296,5.9413,44.6574,1.0831,-0.0198,1.0063,198.5312
20:08:40:474,1.6868,-0.4902,5.1752,44.0801,1.0549,-0.1341,1.1012,197.4844
20:08:40:490,2.2255,0.0497,4.9992,42.8465,0.9771,-0.3215,1.1206,195.7031
20:08:40:545,2.4805,0.3286,5.3943,42.4688,0.8866,-0.5343,1.0359,194.4375
20:08:40:545,2.5787,0.1993,5.9832,43.2548,0.8434,-0.6718,0.9059,193.0781
20:08:40:554,2.5871,0.0401,6.8667,43.5453,0.8357,-0.7511,0.7962,191.8281
20:08:40:569,2.702,0.1179,7.2462,43.1944,0.8512,-0.684,0.728,190.7812
20:08:40:591,2.8133,0.1634,6.9301,42.8817,0.8557,-0.5335,0.645,189.7969
20:08:40:610,3.0958,0.2364,6.4226,43.0025,0.7553,-0.3559,0.5486,188.8906
20:08:40:629,3.3688,0.4411,6.0036,41.37,0.5377,-0.1759,0.4364,188.0781
20:08:40:652,3.7506,0.4794,5.9557,41.9276,0.2485,-0.1088,0.2902,187.4219
20:08:40:670,3.9553,0.1945,6.632,41.0717,-0.074,-0.2265,0.1078,186.875
20:08:40:692,4.2798,-0.2233,8.2457,41.9415,-0.4107,-0.4126,-0.0416,186.5156
20:08:40:711,4.5599,-0.7703,10.0582,38.9707,-0.6735,-0.5319,-0.1511,186.4062
20:08:40:738,4.9896,-1.2983,11.0015,40.1785,-0.8176,-0.4318,-0.2115,186.4531
20:08:40:757,5.5654,-1.2456,10.8387,38.2905,-0.9526,-0.1034,-0.2113,186.6406
20:08:40:774,6.097,-0.9571,10.6411,39.5501,-1.147,0.0945,-0.2784,187.1406
20:08:40:791,6.0395,-1.1331,12.1076,38.0191,-1.6722,-0.4584,-0.7804,187.5156
20:08:40:811,4.6485,-1.503,15.2272,39.8954,-1.5622,-0.2496,-0.8526,187.5156
20:08:40:838,3.2059,-2.1446,16.8397,38.0245,-0.9846,0.3504,-0.6062,188.75
20:08:40:849,2.86,-2.1338,14.5042,40.4476,-0.3593,0.7016,-0.1822,189.8125
20:08:40:873,3.8069,-1.3258,10.543,37.9118,-0.0117,0.4132,0.0942,191
20:08:40:890,4.9669,-0.5537,7.9106,39.0997,0.0762,-0.2004,0.0758,191.8594
20:08:40:915,5.0327,0.2831,6.638,37.068,-0.0195,-0.6398,-0.1026,192.1406
20:08:40:938,4.6437,0.7225,6.3388,37.1439,-0.1792,-0.7583,-0.3298,192.0625
20:08:40:957,4.1517,0.7572,6.3783,38.5019,-0.3428,-0.6081,-0.5567,191.9531
20:08:40:973,3.3065,0.5632,6.3591,37.4258,-0.4946,-0.3378,-0.6856,192.0312
20:08:40:992,2.2555,0.4699,6.6644,37.6576,-0.5414,-0.0768,-0.6821,192.3906
20:08:41:009,1.5324,0.598,7.1636,39.4563,-0.4578,0.1717,-0.6137,193.0312
20:08:41:029,1.378,0.7703,7.0092,35.907,-0.3598,0.3853,-0.5599,193.875
20:08:41:054,1.3229,1.0457,6.2622,36.7079,-0.3651,0.4542,-0.5154,195.0938
20:08:41:071,1.4199,1.3809,6.1029,36.643,-0.4424,0.3445,-0.5031,195.8594
20:08:41:090,1.6713,1.5712,6.9277,37.7788,-0.4634,0.1645,-0.538,196.5625
20:08:41:110,1.9274,1.5592,8.1416,35.8266,-0.441,0.0739,-0.5761,197.1875
20:08:41:130,2.0484,1.4659,9.3052,34.704,-0.4003,0.1365,-0.5969,197.875
20:08:41:154,1.9682,1.3857,10.3706,36.9697,-0.3577,0.3264,-0.5873,198.5781
20:08:41:172,1.8125,1.236,11.0625,36.1276,-0.3076,0.5461,-0.5292,199.2969
20:08:41:190,1.9047,0.9535,11.4504,35.217,-0.2719,0.6468,-0.436,200.0469
20:08:41:210,2.1142,0.58,12.3734,34.8411,-0.1808,0.5991,-0.3138,200.7812
20:08:41:230,2.3045,0.2759,13.3083,36.3557,-0.0176,0.3916,-0.1647,201.125
20:08:41:255,2.3764,0.1143,14.2253,33.8818,0.1795,0.2167,0.0018,201.6875
20:08:41:272,2.5236,-0.1742,14.728,32.9969,0.3816,0.2422,0.1669,202.1406
20:08:41:290,2.4015,-0.3717,14.2097,32.6729,0.5079,0.2934,0.364,202.3594
20:08:41:310,2.678,-0.3573,13.4017,33.3397,0.5012,0.1235,0.5403,202.3594
20:08:41:330,3.0886,-0.2699,13.8985,33.0199,0.4836,-0.1066,0.679,202.1406
20:08:41:355,3.3759,-0.3669,15.4379,33.0494,0.6815,-0.0827,0.776,201.6875
20:08:41:372,3.4083,-0.8218,15.5277,32.7934,1.0583,0.1392,0.8607,200.6719
20:08:41:396,3.449,-1.2563,13.3765,34.1843,1.3164,0.243,0.9371,199.7656
20:08:41:408,3.589,-1.3042,10.8925,32.4987,1.3391,0.0316,0.9741,198.7344
20:08:41:432,3.5232,-0.9272,9.5386,31.8914,1.2232,-0.2997,0.9536,197.5781
20:08:41:456,3.4442,-0.5177,9.5829,30.8913,1.1212,-0.4321,0.8721,196.4062
20:08:41:474,2.5942,-0.6662,9.3172,32.2457,1.1603,-0.2707,0.7685,195.1562
20:08:41:491,2.0699,-0.8517,7.7633,32.3555,1.2807,0.0151,0.7456,193.9688
20:08:41:510,1.7108,-0.8074,5.8695,32.1615,1.3662,0.2492,0.8082,192.9688
20:08:41:530,1.7144,-0.6147,4.4545,31.4587,1.3353,0.2883,0.9105,191.9688
20:08:41:554,2.0436,-0.3107,3.8727,33.2671,1.1952,0.1373,0.9917,190.9375
20:08:41:571,2.374,0.0018,4.1229,31.4346,1.0022,-0.1141,1.0143,189.8594
20:08:41:589,2.8408,0.1443,4.5264,32.8817,0.8512,-0.3626,0.9773,188.6094
20:08:41:610,3.0396,0.2723,4.8256,32.2666,0.7481,-0.537,0.8748,187.3281
20:08:41:630,3.1676,0.3382,5.0435,32.6586,0.6208,-0.6033,0.7422,186.0938
20:08:41:656,3.3352,0.5848,5.7127,32.1441,0.4354,-0.5775,0.617,184.5156
20:08:41:676,3.6992,1.0624,6.6704,32.6587,0.2439,-0.4768,0.5043,183.6406
20:08:41:690,4.16,1.5221,7.3132,31.0406,0.1121,-0.2904,0.3403,182.9219
20:08:41:712,4.3791,1.4467,7.0079,29.9852,0.0224,-0.055,0.0889,182.6406
20:08:41:737,4.2809,1.1175,6.9241,30.4097,-0.1787,0.0814,-0.1897,182.1562
20:08:41:752,4.2379,0.5465,7.7537,32.4974,-0.5228,0.1072,-0.3916,181.9062
20:08:41:770,3.9924,-0.1371,9.3842,32.4974,-0.8852,0.0505,-0.509,181.9688
20:08:41:789,4.2893,-0.72,11.4241,30.9829,-1.1545,0.0393,-0.4722,182.3438
20:08:41:809,5.065,-1.139,12.1663,30.5254,-1.1931,0.1339,-0.341,182.9688
20:08:41:830,5.7258,-0.9619,11.2565,31.2024,-1.1041,0.2353,-0.2509,183.7031
20:08:41:851,5.8623,-0.762,11.1691,31.606,-1.1548,0.1355,-0.2842,184.3125
20:08:41:871,5.3631,-0.8505,12.2513,31.9062,-1.29,-0.0595,-0.4478,184.7969
20:08:41:889,4.4306,-1.1654,12.6259,31.4966,-1.322,0.0319,-0.6278,185.2188
20:08:41:909,3.5699,-1.3701,11.6347,31.0406,-1.2586,0.4449,-0.7146,186.1406
20:08:41:931,3.947,-1.4048,10.1946,31.4425,-1.2195,0.8215,-0.6376,187.0312
20:08:41:954,4.4988,-1.2863,9.0442,31.5593,-1.2112,0.834,-0.5633,188.0312
20:08:41:972,4.3001,-1.0181,8.9688,30.9431,-1.2512,0.503,-0.582,188.8906
20:08:41:988,3.6297,-0.7596,10.0665,31.8146,-1.2836,0.0923,-0.6318,189.7031
20:08:42:010,2.5296,-0.6303,10.4975,32.3025,-1.1159,-0.0662,-0.6629,190.5469
20:08:42:029,1.7,-0.3274,9.5195,31.701,-0.7854,0.0556,-0.5942,191.4062
20:08:42:053,1.4714,0.1359,7.8651,31.8781,-0.4509,0.1972,-0.4493,192.2344
20:08:42:071,1.3684,0.6135,6.6907,31.6586,-0.257,0.2164,-0.3319,193
20:08:42:089,1.4941,1.0612,6.0874,31.7803,-0.1918,0.1927,-0.269,193.5938
20:08:42:109,1.6737,1.4144,5.7283,30.8929,-0.2037,0.1837,-0.2813,194
20:08:42:130,1.8018,1.6251,5.8132,31.9026,-0.3076,0.1911,-0.3761,194.3438
20:08:42:155,1.7994,1.4826,6.9241,31.6007,-0.755,0.4143,-0.6672,194.7031
20:08:42:173,1.5731,1.2181,8.5833,31.5953,-0.8581,0.6681,-0.7476,195.8281
20:08:42:191,1.1637,0.8386,9.8391,30.6777,-0.8312,0.8194,-0.7236,196.7188
20:08:42:210,0.8836,0.5034,11.096,32.4255,-0.6474,0.8151,-0.5995,197.2188
20:08:42:232,0.862,0.2281,12.1507,31.5344,-0.2844,0.7011,-0.4243,197.7344
20:08:42:255,0.8177,-0.0868,11.9568,31.7054,0.0871,0.5639,-0.1982,199.5156
20:08:42:273,1.0583,-0.1562,10.8064,32.5552,0.2597,0.3565,0.0181,199.5156
20:08:42:289,1.7431,-0.0557,10.2222,32.568,0.2344,0.0819,0.1371,200.125
20:08:42:309,2.4099,-0.1538,10.9105,31.4588,0.1909,-0.1117,0.1816,200.4062
20:08:42:329,2.9055,-0.2891,11.788,31.5539,0.2184,-0.1295,0.1648,200.4219
20:08:42:350,3.3759,-0.4974,11.6766,30.997,0.1976,-0.0776,0.0737,200.0469
20:08:42:372,3.3891,-0.6494,11.0362,32.4256,0.0269,-0.0933,-0.0515,200.0469
20:08:42:388,3.4418,-0.8601,10.8674,31.8853,-0.2967,-0.3695,-0.1822,199.8125
20:08:42:409,3.2299,-1.2635,12.5793,31.9833,-0.5611,-0.7306,-0.2336,199.7188
20:08:42:428,2.672,-1.9315,16.0652,32.4261,-0.4021,-0.8084,-0.1479,199.75
