Time,Acc_X,Acc_Y,Acc_Z,Meg,Gyr_X,Gyr_Y,Gyr_Z,Ore
17:50:20:360,-3.8139,2.8772,6.4705,109.0138,0.3206,-0.4781,0.2266,80.2969
17:50:20:377,-3.7827,3.0365,6.0251,106.9098,0.1899,-0.599,0.1208,80.2969
17:50:20:396,-3.9348,3.0999,5.9796,108.1361,-0.0229,-0.7008,0.0034,80.2969
17:50:20:428,-4.0808,3.0496,6.3687,108.3869,-0.2589,-0.7045,-0.1061,183.2656
17:50:20:443,-4.3705,2.9287,7.1708,108.0176,-0.4453,-0.6419,-0.1809,183.3125
17:50:20:460,-4.6339,2.7372,8.0494,107.1025,-0.5127,-0.5983,-0.2171,183.6562
17:50:20:477,-5.0002,2.4942,8.6097,108.7439,-0.5041,-0.5991,-0.1916,183.8906
17:50:20:494,-5.3258,2.3302,8.9999,109.9917,-0.4384,-0.5817,-0.0994,184.0156
17:50:20:514,-5.3821,2.1913,9.14,108.8416,-0.3433,-0.4425,0.0652,184.2344
17:50:20:542,-5.1893,2.3014,8.9784,107.5449,-0.2341,-0.2265,0.2551,184.4062
17:50:20:562,-4.7524,2.6091,8.727,107.5449,-0.11,-0.0795,0.3754,184.4375
17:50:20:577,-4.4172,2.9814,8.2254,108.6999,0.0069,-0.0651,0.4308,184.25
17:50:20:593,-3.9575,3.155,7.5598,109.2729,0.0661,-0.2129,0.4173,183.8906
17:50:20:612,-3.6774,3.2507,7.0235,108.5756,0.0549,-0.4909,0.3376,183.4062
17:50:20:645,-3.5038,3.1681,6.996,109.3685,-0.0083,-0.8068,0.2396,182.9531
17:50:20:662,-3.2907,2.991,7.324,109.4532,-0.1073,-0.9503,0.1376,182.75
17:50:20:677,-3.1543,2.7348,7.5682,109.3752,-0.2565,-0.9064,0.0708,182.4844
17:50:20:693,-3.0585,2.5827,7.8974,109.3606,-0.4027,-0.7823,0.046,182.375
17:50:20:711,-2.9244,2.5073,8.229,108.1124,-0.4727,-0.6411,0.0412,182.375
17:50:20:743,-2.9723,2.4499,8.3583,110.7347,-0.478,-0.578,0.086,182.4062
17:50:20:760,-3.0178,2.2943,7.81,110.0042,-0.5268,-0.7157,0.2063,182.4375
17:50:20:777,-3.025,2.4247,7.6675,112.5368,-0.583,-0.7927,0.3744,182.3906
17:50:20:791,-2.5868,2.6833,7.8471,111.8836,-0.6245,-0.7362,0.4394,182.2812
17:50:20:810,-2.2253,2.8222,8.9473,109.5753,-0.6027,-0.2752,0.4473,181.9844
17:50:20:830,-1.8913,2.9275,9.1699,112.9931,-0.5468,0.0833,0.4372,181.5469
17:50:20:861,-2.0541,2.9383,9.0358,112.9515,-0.5246,0.2404,0.4247,181.0625
17:50:20:878,-2.0972,2.9167,9.1053,111.8428,-0.5167,0.307,0.3986,180.4844
17:50:20:894,-2.284,2.8401,9.5518,112.2943,-0.4637,0.2838,0.3699,179.9062
17:50:20:908,-2.3163,2.797,10.452,111.4284,-0.2778,0.1387,0.343,179.3438
17:50:20:929,-2.1188,2.73,12.1064,113.5666,0.1289,-0.0776,0.2449,178.8125
17:50:20:947,-2.266,2.3326,12.7133,112.3351,0.5444,-0.2174,0.1286,178.3125
17:50:20:977,-3.5266,0.7859,11.533,112.8838,0.6871,-0.5325,0.3331,177.9531
17:50:20:994,-2.5665,1.6059,11.1631,111.6015,0.5108,-0.6875,0.6947,177.8125
17:50:21:007,-0.2645,2.0907,10.5418,112.5114,0.0847,-0.304,0.5105,177.7812
17:50:21:028,-0.0047,1.6981,10.4592,111.7287,-0.3292,-0.4608,0.3272,177.2969
17:50:21:047,0.4586,2.414,12.5948,111.9892,-0.4839,-0.4984,0.1251,176.4688
17:50:21:077,0.7986,1.6239,13.8625,112.4711,-0.3958,-0.2102,-0.2499,176.125
17:50:21:093,0.1533,0.2328,13.8242,110.2872,-0.1949,-0.2467,-0.4027,176.0156
17:50:21:105,-0.851,-0.5154,13.2041,111.7196,0.0541,-0.2837,-0.1998,176.2812
17:50:21:132,-0.1292,-0.2412,12.2453,111.2479,0.3441,-0.2467,-0.0208,176.75
17:50:21:145,0.8764,0.4902,10.8183,113.3484,0.6213,-0.4475,0.0015,176.9219
17:50:21:171,1.8089,1.3653,9.3543,111.5765,0.743,-0.6438,-0.2168,177.0781
17:50:21:192,2.3285,1.9028,8.6312,110.9515,0.6333,-0.6092,-0.6246,177.1562
17:50:21:205,2.0807,1.57,7.8627,109.6468,0.3068,-0.3085,-0.9516,177.375
17:50:21:229,1.4259,1.1654,7.7382,111.4018,-0.1097,0.2702,-1.092,178.0156
17:50:21:243,0.7686,0.896,7.9417,110.5634,-0.3691,0.8412,-1.145,179
17:50:21:266,0.1953,0.6806,8.1859,112.2478,-0.3808,1.0678,-1.1708,180.2031
17:50:21:289,-0.3566,0.4998,8.1428,109.7914,-0.1587,0.9901,-1.154,181.375
17:50:21:304,-0.5673,0.6123,8.308,110.3938,0.2759,0.349,-1.1561,182.5156
17:50:21:324,-1.3299,0.5704,7.0582,110.8514,0.7143,-0.4616,-1.1881,184.1719
17:50:21:343,-2.1942,0.7823,4.0655,110.4354,0.7001,-1.7112,-1.0765,185.4844
17:50:21:363,-3.2345,0.8913,4.2702,110.8856,0.093,-2.1663,-0.9037,187.0156
17:50:21:388,-2.4276,0.8146,7.7478,111.1246,-0.3649,-1.1487,-0.7066,188.5156
17:50:21:402,0.042,0.0964,9.2932,111.5892,-0.3044,-0.4763,-0.5916,189.8906
17:50:21:424,-0.1591,0.7153,9.3986,110.6904,0.1105,-0.1796,-0.6422,190.8594
17:50:21:441,-1.4532,1.3007,7.4784,109.4717,0.2554,-0.2214,-0.3796,191.5312
17:50:21:473,-1.2054,2.1602,6.3555,109.8564,-0.0085,-0.3823,-0.1465,192.3125
17:50:21:480,-0.7349,2.633,8.0183,111.2754,-0.1249,-0.1727,-0.0315,192.7969
17:50:21:501,-0.5194,2.7132,9.201,109.7588,-0.0615,0.1142,0.0641,193.0156
17:50:21:524,-0.9731,2.572,9.2417,109.8785,-0.0325,0.2862,0.2737,193.0625
17:50:21:543,-1.0222,3.2986,9.201,110.5016,-0.0216,0.3272,0.4138,192.9688
17:50:21:560,0.1031,4.0995,9.2549,109.3658,-0.0346,0.1647,0.2101,192.6094
17:50:21:580,-0.3135,4.4538,9.7242,109.4288,0.0059,-0.1602,0.0431,192.6094
17:50:21:600,-0.5996,4.5089,9.5434,110.0011,-0.0612,-0.5737,-0.065,192.125
17:50:21:628,-1.3801,4.5652,10.2677,108.9294,-0.2149,-0.7186,-0.1042,191.8125
17:50:21:643,-2.1116,4.4227,10.8698,110.5634,-0.5081,-0.6611,-0.1327,191.8125
17:50:21:659,-2.2983,3.24,13.4424,109.1749,-0.6687,-0.6012,-0.1457,191.9688
17:50:21:679,-1.3203,0.8015,15.9479,108.2983,-0.3878,-0.7351,-0.0643,192.3906
17:50:21:698,-1.4687,0.0317,16.3896,108.9284,0.0304,-0.8153,0.2119,192.3906
17:50:21:724,-2.1415,-0.167,14.8238,109.5187,0.3342,-1.0196,0.8942,192.5938
17:50:21:740,-1.6782,-0.0617,13.7368,108.9274,0.5228,-0.9538,1.4506,192.75
17:50:21:758,-0.7445,-0.5932,12.4835,109.3387,0.7467,-0.8238,1.8042,192.6094
17:50:21:778,1.0404,0.2843,11.1128,109.2743,0.9931,-0.9636,1.507,191.7188
17:50:21:798,2.0017,2.3158,10.4017,108.0515,1.2562,-1.0848,0.6529,190.2656
17:50:21:822,1.6557,1.4647,8.6851,109.243,1.3145,-1.345,0.3065,188.3125
17:50:21:840,1.0069,1.2408,7.7178,106.9804,1.086,-0.7895,0.3118,186.7031
17:50:21:858,0.9087,1.412,6.7015,106.1219,0.7673,-0.1628,0.3962,186.0938
17:50:21:878,1.1637,1.5365,5.994,105.8284,0.608,-0.0369,0.3746,185.9219
17:50:21:898,0.856,1.8585,5.8707,105.095,0.6131,-0.3096,0.319,185.6406
17:50:21:925,0.2862,1.4551,5.52,104.267,0.677,-0.6427,0.3717,184.7344
17:50:21:943,0.2755,1.6059,5.2805,104.847,0.6195,-0.5386,0.4915,184.5312
17:50:21:958,0.4502,1.6275,5.0962,105.1142,0.3798,-0.1338,0.6263,184.2188
17:50:21:979,0.8357,1.7125,4.8903,104.0944,0.1017,0.1869,0.7328,183.8438
17:50:21:999,1.2643,1.8477,4.9836,103.3179,-0.1774,0.1682,0.8008,183.2344
17:50:22:023,1.9502,2.1027,6.7625,103.2413,-0.1838,0.1288,0.834,182.4062
17:50:22:042,3.6381,2.6115,7.8292,103.6955,-0.0224,-0.1535,0.4229,181.5
17:50:22:059,3.4214,2.8593,8.3499,103.8262,0.2437,-0.5927,0.1057,180.5312
17:50:22:079,3.1892,3.1622,7.6257,103.897,0.2714,-0.9551,-0.1162,179.7969
17:50:22:101,3.4202,3.2328,7.1923,103.2834,0.0019,-0.9423,-0.2704,179.5938
17:50:22:125,3.5675,2.7647,6.966,104.3619,-0.4533,-0.6292,-0.3652,179.75
17:50:22:144,3.1389,2.2236,8.0183,102.5738,-0.8069,-0.1642,-0.3425,180.1875
17:50:22:165,2.951,1.6813,8.5235,103.7179,-1.0368,0.1613,-0.1878,180.4688
17:50:22:179,3.2826,1.5413,8.5845,104.877,-1.2384,0.1477,-0.0547,181.0938
17:50:22:202,3.7075,1.5221,8.6252,104.0672,-1.4557,-0.0883,-0.0059,181.6094
17:50:22:222,3.7794,0.9679,9.6787,104.0003,-1.5928,-0.4795,0.0186,181.9375
17:50:22:240,4.5252,0.2735,11.9556,103.6631,-1.4448,-0.9138,0.0497,182.2344
17:50:22:307,5.6121,-0.7572,13.8099,102.4928,-1.0836,-1.1759,-0.0525,182.4844
17:50:22:307,5.2494,-0.9906,12.8821,102.9968,-0.5744,-1.1072,-0.0736,182.7656
17:50:22:308,5.5858,-0.5118,9.9265,104.1556,-0.2458,-1.0422,-0.0464,183.1094
17:50:22:328,5.8348,-0.1682,8.4481,101.4701,-0.3129,-1.0545,-0.1029,183.4844
17:50:22:339,5.7498,-0.2532,8.387,101.2004,-0.6077,-0.9309,-0.224,183.7344
17:50:22:364,4.7143,-0.4938,8.788,103.5522,-0.8855,-0.6864,-0.3694,183.9844
17:50:22:381,3.5795,-0.4579,8.4935,101.6491,-0.9731,-0.4571,-0.4051,184.375
17:50:22:398,3.7171,-0.149,8.4696,100.9389,-0.9619,-0.4459,-0.321,184.9531
17:50:22:418,4.5407,0.3573,8.1488,102.0551,-0.8506,-0.6124,-0.2997,185.6875
17:50:22:438,3.5639,0.2843,8.8371,102.4869,-0.686,-0.9186,-0.4238,186.375
17:50:22:458,3.5316,0.2376,8.6827,103.1254,-0.5683,-0.7921,-0.513,186.9219
17:50:22:478,3.0695,0.3573,8.7856,102.6768,-0.5095,-0.243,-0.5223,187.5625
17:50:22:498,3.4382,0.8314,8.4253,103.2258,-0.4471,0.2151,-0.5053,188.3438
17:50:22:523,3.2622,0.9942,7.9177,102.1892,-0.3055,0.2532,-0.5497,189.0781
17:50:22:540,2.6254,0.9954,7.2857,100.8927,-0.1534,0.0425,-0.6211,189.7812
17:50:22:559,2.1621,1.084,6.644,101.3939,-0.0913,-0.0456,-0.5902,190.7969
17:50:22:578,2.4985,1.394,6.7685,102.9535,-0.1406,-0.1351,-0.4698,191.5156
17:50:22:598,2.9665,1.3354,7.9034,99.4397,-0.2455,-0.3181,-0.3641,192.2188
17:50:22:619,3.115,1.1151,8.9784,101.4653,-0.339,-0.2797,-0.2882,192.7969
17:50:22:640,3.9122,1.309,9.802,101.4653,-0.404,-0.2086,-0.1868,193.2969
17:50:22:659,4.7083,1.6251,10.9452,101.3399,-0.4698,-0.2486,-0.1418,193.7031
17:50:22:679,4.8472,1.7364,11.5509,100.5913,-0.5531,-0.2555,-0.1955,194.0312
17:50:22:704,4.7179,1.5485,13.1575,101.8869,-0.7374,-0.0672,-0.2446,194.1719
17:50:22:723,3.6178,1.3354,14.2504,101.1072,-0.7699,0.1871,-0.2741,194.5156
17:50:22:742,3.516,1.3976,14.746,100.1423,-0.6056,0.2801,-0.1268,194.9219
17:50:22:758,4.6904,1.4874,15.1327,99.4424,-0.335,0.0694,0.1073,195.4219
17:50:22:778,6.3543,1.3892,15.9587,99.2341,0.0024,-0.4166,0.278,195.8438
17:50:22:798,7.3802,0.5249,16.8804,99.6341,0.4727,-1.1027,0.3153,195.9531
17:50:22:826,6.8416,-0.0724,15.2536,98.6748,1.1646,-1.5935,0.2647,195.5938
17:50:22:842,5.2434,-0.1407,11.0087,98.0045,1.6256,-1.1075,0.2585,195.1562
17:50:22:860,4.6784,0.2484,8.0171,99.0843,1.743,-0.6555,0.4814,194.6094
17:50:22:878,6.0119,0.7368,7.2103,97.4318,1.5918,-0.6837,0.7251,193.8906
17:50:22:898,6.7721,0.6375,7.6628,98.5953,1.5132,-1.223,0.6476,192.8594
17:50:22:924,5.3895,0.0533,7.3012,98.8001,1.5231,-1.5133,0.3693,191.6562
17:50:22:939,4.694,-0.1107,6.8392,96.9337,1.4786,-1.3509,0.286,190.5469
17:50:22:958,4.6185,-0.1215,6.2957,96.9412,1.4924,-1.2142,0.3547,189.75
17:50:22:979,3.6788,-0.3298,5.4373,95.1083,2.0669,-2.1623,0.3123,189.0938
17:50:23:000,2.2339,-0.677,4.0906,95.0525,2.3375,-2.8798,0.4473,188.2812
17:50:23:024,2.2554,-0.6937,2.9965,93.2895,2.3974,-3.259,0.6394,187.4219
17:50:23:041,3.5268,-0.4352,1.706,92.4068,2.1351,-3.1525,0.7169,186.5469
17:50:23:058,4.3647,-0.0581,0.4119,91.698,1.5478,-2.7346,0.7688,185.5469
17:50:23:078,4.8364,-0.3442,0.4957,90.1443,0.8546,-2.1304,0.8929,184.3125
17:50:23:097,5.2327,-0.8015,1.785,88.7358,0.3577,-1.5088,1.0687,182.4531
17:50:23:119,5.9365,-1.1546,2.6768,87.5897,0.1148,-1.0606,1.1968,181.9531
17:50:23:141,6.5854,-1.4706,2.4302,87.4097,-0.0621,-0.8076,1.266,180.9219
17:50:23:157,7.0319,-1.9866,1.937,87.0589,-0.2783,-0.6558,1.3225,179.2656
17:50:23:177,7.4317,-2.621,2.0244,87.3837,-0.4432,-0.5567,1.392,178.7188
17:50:23:197,7.8687,-3.8445,2.2531,85.2251,-0.4602,-0.6723,1.4817,177.5
17:50:23:218,7.8567,-5.0057,2.3656,85.0107,-0.2717,-1.162,1.6503,176.3438
17:50:23:239,7.8387,-6.4242,0.9506,84.464,-0.1209,-1.728,2.0128,175.1875
17:50:23:257,8.4014,-7.6309,-1.7321,84.1119,-0.4461,-1.9959,2.4436,174.0312
17:50:23:280,8.9317,-8.2929,-2.612,80.8709,-1.1414,-1.8422,2.963,172.5312
17:50:23:297,10.4221,-8.9645,-0.9683,81.1852,-1.7212,-1.4827,3.3949,170.5312
17:50:23:318,12.8725,-9.1548,1.3995,78.0886,-1.8418,-1.1533,3.4293,168.3906
17:50:23:339,14.1127,-9.0555,2.4218,78.0626,-1.547,-0.9192,3.0873,166.0781
17:50:23:357,13.2424,-9.4541,2.046,75.3202,-1.0613,-0.8683,2.6836,163.7656
17:50:23:378,11.3917,-9.6337,-0.0921,75.6612,-0.747,-1.1775,2.4729,160.4844
17:50:23:402,9.5434,-9.5259,-1.8961,72.8197,-0.7049,-1.7668,2.4759,158.2969
17:50:23:424,7.8962,-9.2542,-2.515,76.3329,-0.7809,-2.3967,2.6959,155.9531
17:50:23:441,7.561,-8.8843,-1.9931,79.4514,-0.8003,-2.9381,2.9521,153.5156
17:50:23:458,7.5754,-8.4737,-0.0765,75.8722,-0.5558,-3.2665,3.184,150.5156
17:50:23:478,8.296,-8.1971,-0.2824,36.6416,-0.3625,-3.3264,3.277,146.9062
17:50:23:499,8.4612,-7.8021,-0.1531,38.7077,-0.2642,-3.0542,3.3212,142.3906
17:50:23:524,8.6791,-7.3747,-0.2082,51.5548,-0.3023,-2.4598,3.3302,137.2344
17:50:23:543,8.8766,-7.4681,-0.122,50.3973,-0.4653,-1.5882,3.3105,131.2969
17:50:23:560,9.2178,-7.5902,0.5352,49.7659,-0.5923,-0.6587,3.2471,125.2656
17:50:23:579,10.0953,-7.5938,1.0153,50.0833,-0.5814,0.1336,3.0522,120.0312
17:50:23:599,10.8722,-7.8189,0.9853,46.0334,-0.4519,0.6742,2.7417,115.5938
17:50:23:623,10.7656,-8.0774,0.2503,45.14,-0.3174,0.9701,2.4559,112.2656
17:50:23:641,10.4089,-8.4402,-0.7062,45.8965,-0.2405,1.0742,2.2767,111.0312
17:50:23:658,10.367,-8.9178,-1.5094,47.4302,-0.2104,1.0066,2.1693,109.25
17:50:23:683,10.8734,-9.5427,-1.7967,44.629,-0.1049,0.768,2.1294,107.5156
17:50:23:698,12.268,-9.4529,-1.9607,44.5339,0.069,0.4441,2.0253,106.5938
17:50:23:721,12.9563,-9.3284,-1.871,44.4504,0.2298,0.1267,1.6897,105.5625
17:50:23:741,12.9839,-9.7067,-2.0589,43.359,0.3958,-0.0584,1.2263,104.0469
17:50:23:757,12.8067,-10.5315,-2.6599,43.0921,0.5465,-0.1213,0.7834,102.1719
17:50:23:777,12.2297,-10.7218,-3.2548,42.0756,0.6751,-0.125,0.4455,100.4531
17:50:23:797,11.9747,-9.5235,-3.7504,41.9406,0.7944,-0.1194,0.2343,98.9375
17:50:23:820,12.8881,-8.2522,-4.7081,43.4579,0.8581,-0.072,0.0455,97.7812
17:50:23:842,14.2959,-7.8739,-6.2093,46.1866,0.7814,-0.0574,-0.3497,96.9219
17:50:23:858,15.1231,-8.7897,-7.7128,46.9676,0.5073,-0.2465,-1.048,96.2656
17:50:23:877,14.3378,-10.0778,-7.3561,46.8958,0.0096,-0.6864,-1.9258,96
17:50:23:898,12.8067,-11.0522,-5.6406,47.8014,-0.5313,-1.2182,-2.6976,96.2969
17:50:23:917,12.1674,-10.9996,-2.5868,47.7231,-0.9851,-1.5565,-3.2007,97.2344
17:50:23:940,11.9615,-10.7613,-0.7924,47.5389,-1.1462,-1.5583,-3.6129,98.7812
17:50:23:957,11.3115,-10.9158,0.218,37.8019,-1.0533,-1.3527,-4.0747,100.7344
17:50:23:977,9.8618,-11.385,-0.4177,25.7401,-0.8037,-0.9658,-4.5011,104.6562
17:50:23:997,8.0279,-11.8351,-1.4053,48.0807,-0.6274,-0.4771,-4.7717,108.4219
17:50:24:017,6.0574,-11.9118,-1.932,60.5939,-0.5688,0.0082,-4.8084,113.0938
17:50:24:039,4.6401,-11.5826,-2.0553,62.4555,-0.5204,0.2793,-4.6092,118.4062
17:50:24:060,3.8859,-10.8978,-1.9619,66.3737,-0.444,0.3658,-4.2558,124.625
17:50:24:078,3.5687,-10.1472,-1.5082,66.4249,-0.3457,0.2726,-3.8771,130.875
17:50:24:098,3.2215,-9.4014,-1.1982,66.974,-0.2011,0.0859,-3.5341,136.7188
17:50:24:118,3.0013,-9.0543,-1.5968,69.5745,-0.0386,-0.146,-3.2134,139.125
17:50:24:144,2.5966,-8.8065,-2.4827,70.7894,0.0535,-0.4243,-2.876,143.9219
17:50:24:161,2.7247,-8.6796,-2.4492,70.5026,-0.0056,-0.7506,-2.4923,147.9531
17:50:24:179,1.7287,-9.0806,-1.8434,70.9909,-0.1025,-1.0001,-2.1104,151.125
17:50:24:198,1.5097,-9.6887,-1.5166,71.3595,-0.0796,-1.1186,-1.602,153.9062
17:50:24:220,1.1817,-9.6732,-1.2485,71.9012,0.0442,-1.1333,-1.0065,156.375
17:50:24:241,1.6904,-9.6157,-1.6998,71.7452,0.228,-1.0734,-0.3497,158.4375
17:50:24:259,4.3348,-9.1668,-2.9041,69.9551,0.3601,-0.8395,0.3131,159.9844
17:50:24:278,6.158,-9.8276,-5.0924,69.7788,0.3329,-0.4883,0.6615,159.7656
17:50:24:298,4.5718,-10.5135,-5.649,70.6538,-0.0748,-0.0265,0.698,158.5625
17:50:24:359,3.3891,-10.7003,-2.7125,71.3402,-0.7396,0.5107,0.9701,157.1406
17:50:24:367,4.4785,-10.0287,-1.0869,70.6945,-1.0005,0.9259,1.5856,156.4844
17:50:24:368,6.5938,-9.5068,-0.1926,73.4399,-0.8069,1.0276,2.151,156.9375
17:50:24:380,8.8503,-9.8719,-1.8327,70.6365,0.278,0.6667,2.405,157.2656
17:50:24:399,9.5721,-10.4154,-3.9755,69.9909,0.5028,0.3008,2.2687,154.625
17:50:24:429,8.648,-10.3651,-5.1414,69.4498,0.4818,-0.0936,2.2671,154.625
17:50:24:441,7.5993,-9.5894,-4.9774,67.9763,0.3489,-0.3053,2.4178,151.8594
17:50:24:456,7.2486,-8.4832,-4.1694,64.8827,0.1822,-0.1927,2.5699,148.5781
17:50:24:477,7.3048,-7.4118,-3.165,57.345,0.0565,0.1594,2.6325,145.0938
17:50:24:498,7.0223,-6.7127,-2.5066,40.8294,-0.009,0.5602,2.6714,141.5469
17:50:24:518,6.4908,-6.0651,-2.2852,40.2385,-0.0152,0.8327,2.7379,135.375
17:50:24:541,6.322,-5.7108,-2.5665,49.7533,-0.0482,0.9632,2.8037,134.0625
17:50:24:557,6.6716,-5.2918,-2.4731,59.9015,-0.0471,0.8889,2.7773,131.7031
17:50:24:576,6.9182,-5.2487,-2.187,61.4367,0.0743,0.6556,2.6844,129.625
17:50:24:599,7.1935,-5.4845,-2.0984,60.4553,0.2698,0.3165,2.5632,126.4375
17:50:24:622,7.2809,-5.7946,-2.3139,58.3598,0.4613,0.0137,2.4724,126.4375
17:50:24:640,7.2928,-6.3704,-2.8981,59.461,0.5675,-0.1048,2.4615,124.0312
17:50:24:657,7.6484,-6.9091,-3.4966,55.7481,0.5428,-0.0225,2.502,121.2969
17:50:24:679,8.3667,-7.3364,-4.2053,54.7134,0.3774,0.1885,2.5246,117.9844
17:50:24:697,9.1962,-7.7339,-4.592,54.4769,0.1382,0.413,2.5081,114.4688
17:50:24:720,10.1408,-8.2953,-4.4627,54.4769,-0.0525,0.6146,2.4564,111.25
17:50:24:741,11.0027,-8.6712,-3.9336,55.3757,-0.1241,0.8199,2.3896,108.2969
17:50:24:757,12.0489,-8.2067,-3.6965,56.3671,-0.122,0.9666,2.2434,105.8906
17:50:24:779,13.1551,-7.3328,-4.0197,53.2041,-0.1931,1.0537,1.9438,104.0781
17:50:24:797,14.5054,-6.9198,-4.41,52.9818,-0.3475,1.067,1.4538,102.6094
17:50:24:817,16.1526,-7.4789,-4.4651,53.8291,-0.4456,0.96,0.7691,101.1562
17:50:24:842,17.1091,-8.1002,-4.422,54.3817,-0.4586,0.8415,-0.0243,100.9219
17:50:24:860,16.4483,-8.0631,-4.0162,56.1042,-0.3518,0.7592,-0.7343,101.3281
17:50:24:879,15.7923,-8.1181,-4.4603,58.3847,-0.2717,0.5778,-1.3578,102.4531
17:50:24:898,16.3513,-9.3164,-5.3354,56.9586,-0.3436,0.1477,-2.0664,104.2031
17:50:24:916,16.9223,-11.0941,-4.7476,59.0354,-0.3691,-0.5184,-2.8771,106.5781
17:50:24:943,16.2508,-12.6372,-3.268,62.4815,-0.2304,-1.1993,-3.622,109.2812
17:50:24:958,14.5066,-13.1519,-1.8219,62.2654,-0.0131,-1.6244,-4.181,112.0938
17:50:24:976,12.3566,-12.5283,-0.4919,61.5699,0.2514,-1.6989,-4.5362,114.6406
17:50:24:997,10.713,-11.7968,-0.2525,56.5688,0.4922,-1.4925,-4.7336,117.1719
17:50:25:017,9.2812,-11.6532,-1.2796,46.5305,0.5252,-1.0076,-4.7581,119.7344
17:50:25:040,7.8423,-11.4724,-2.26,44.7926,0.3665,-0.2659,-4.5685,122.3594
17:50:25:058,6.2454,-10.8344,-3.7767,59.4573,0.2671,0.3602,-4.2265,125.5625
17:50:25:077,5.4182,-10.6165,-2.8897,62.7129,0.1457,0.6201,-3.9258,129.6094
17:50:25:097,4.7766,-10.4549,-1.6148,61.7224,0.0591,0.6795,-3.6731,134.0938
17:50:25:118,4.6137,-10.3447,-1.6399,60.5692,0.2895,0.4031,-3.3549,138.9375
17:50:25:140,3.4442,-10.0275,-0.8869,60.5936,0.5822,-0.4627,-3.1541,143.6875
17:50:25:156,3.0432,-9.5906,-0.875,58.6728,0.7723,-0.843,-2.8478,147.9531
17:50:25:176,2.7463,-9.4086,-1.4149,57.6511,0.9233,-1.0656,-2.504,150.7656
17:50:25:196,2.2064,-9.1752,-1.9595,56.3732,0.9143,-1.1354,-2.1484,152.8125
17:50:25:216,1.937,-9.1668,-2.3785,56.2739,0.7119,-0.9967,-1.7777,154.0938
17:50:25:237,2.4243,-8.931,-2.752,56.6455,0.4085,-0.7788,-1.387,154.7656
17:50:25:257,1.135,-9.5164,-2.3127,54.9901,0.1308,-0.7695,-1.0552,155.2656
17:50:25:277,0.376,-8.937,-0.4129,55.1324,-0.2011,-0.5397,-0.6115,155.8438
17:50:25:296,1.1242,-9.2769,1.0536,54.7135,-0.2112,-0.1125,0.0314,156.5938
17:50:25:316,2.0448,-9.7079,1.1266,52.2996,0.0325,0.3909,0.6093,157.4844
17:50:25:339,2.1046,-10.2621,-0.116,53.7827,0.4855,0.5573,1.0423,158.2812
17:50:25:357,3.1964,-10.5518,-2.339,53.2832,0.7547,0.6974,1.4681,157.6094
17:50:25:379,4.5371,-10.8451,-3.9946,52.1468,0.6605,0.7317,1.845,155.7188
17:50:25:398,5.7474,-11.5826,-4.1407,52.8553,0.3105,0.6052,2.1206,152.8906
17:50:25:417,6.5099,-12.0674,-3.3254,53.2546,0.0176,0.45,2.3419,151.3438
17:50:25:439,7.4796,-12.6456,-3.6463,54.0939,-0.0557,0.3818,2.5784,148.5781
17:50:25:456,7.16,-12.5546,-3.1243,54.195,-0.1473,0.4276,2.7773,146.0312
17:50:25:477,6.8104,-11.5754,-2.1068,57.8371,-0.2464,0.5525,3.0367,143.4688
17:50:25:497,7.3958,-10.0335,-1.5406,58.1787,-0.232,0.6761,3.3507,140.7344
17:50:25:517,8.2003,-8.5958,-1.2269,62.5658,-0.1377,0.7046,3.5148,138.2188
17:50:25:540,8.466,-7.5136,-1.2509,40.5812,0.0059,0.6665,3.4565,135.375
17:50:25:560,8.2469,-7.1042,-1.7261,25.2491,0.1651,0.6305,3.2767,132.25
17:50:25:577,7.8687,-7.0743,-2.2528,50.3974,0.2642,0.6249,3.1076,127.4375
17:50:25:597,7.6843,-7.352,-2.8131,53.3627,0.2834,0.6068,2.9997,124.125
17:50:25:617,7.9237,-7.8081,-3.2859,55.6779,0.2152,0.5552,2.9542,120.9062
17:50:25:643,8.2972,-8.239,-2.9292,54.4483,0.0714,0.4319,2.9225,117.9844
17:50:25:657,8.8024,-8.6365,-2.3642,51.9561,-0.0064,0.3027,2.8943,115.0312
17:50:25:676,9.4237,-8.9753,-2.2816,52.1647,0.0264,0.2665,2.882,112.1406
17:50:25:697,10.0354,-9.1907,-2.3701,51.8005,0.0905,0.3336,2.8623,109.3438
17:50:25:720,11.0817,-9.5175,-2.7879,51.972,0.138,0.4534,2.8237,106.3594
17:50:25:741,12.2524,-9.6971,-3.1566,50.3729,0.1726,0.5371,2.7291,103.4844
17:50:25:759,13.2855,-9.2147,-3.3661,50.6615,0.2112,0.5131,2.5528,100.7656
17:50:25:777,14.3174,-8.4294,-3.6283,51.2337,0.2557,0.3115,1.9078,98.4062
17:50:25:797,15.5445,-7.6225,-3.8617,48.587,0.1457,0.2601,1.3624,98.4062
17:50:25:818,16.9822,-7.419,-3.6738,50.9053,0.0333,0.2641,0.5975,96.1094
17:50:25:843,17.3341,-7.4957,-3.1315,49.6604,0.0415,0.3618,-0.2579,93.9375
17:50:25:859,16.2244,-7.4035,-2.8274,49.6811,0.1481,0.5104,-1.0102,90.9531
17:50:25:877,14.6718,-7.115,-3.4811,51.0807,0.2253,0.5962,-1.6081,90.8906
17:50:25:900,14.4395,-7.6477,-4.7488,51.4096,0.1742,0.3469,-2.2129,91.3594
17:50:25:915,15.0501,-9.6013,-5.8106,51.6054,-0.0149,-0.2475,-2.8704,93.1875
17:50:25:938,15.3697,-12.0207,-5.916,51.8805,-0.3012,-0.9572,-3.4827,95.7969
17:50:25:959,14.6634,-13.5985,-4.3334,52.2349,-0.5238,-1.43,-3.9296,98.7344
17:50:25:979,13.7297,-13.9935,-2.4156,54.0164,-0.5934,-1.5599,-4.2396,101.5469
17:50:25:997,12.9312,-13.5614,-1.0414,53.8174,-0.5478,-1.3834,-4.5157,104.4531
17:50:26:015,12.1914,-13.1974,-0.5996,45.4982,-0.4645,-0.9751,-4.7759,107.4219
17:50:26:037,11.0781,-13.1196,-1.0761,26.1907,-0.4376,-0.4113,-4.933,110.5469
17:50:26:057,9.978,-13.1029,-1.9536,51.2152,-0.4978,0.1336,-4.9863,114.4844
17:50:26:082,8.8622,-12.9915,-2.3977,57.4878,-0.5726,0.3834,-4.9541,119.2812
17:50:26:099,7.9213,-12.7952,-2.3821,56.9645,-0.5675,0.5586,-4.8055,124.9844
17:50:26:115,7.2605,-12.4911,-2.5078,57.8472,-0.5737,0.4734,-4.6452,131.1094
17:50:26:136,6.5279,-12.0865,-2.0565,58.5089,-0.5057,0.303,-4.463,137.9062
17:50:26:157,5.6337,-11.6628,-1.762,57.7384,-0.4112,0.0987,-4.2161,144.6406
17:50:26:176,4.7885,-11.0115,-1.4412,57.7612,-0.3132,-0.0664,-3.9184,153.8281
17:50:26:196,3.9721,-10.2131,-1.2664,60.2946,-0.233,-0.1463,-3.5778,159.5938
17:50:26:216,3.1665,-9.6169,-1.264,59.5488,-0.2032,-0.1628,-3.2044,164.8438
17:50:26:237,2.1417,-9.2063,-1.5142,57.0354,-0.249,-0.1141,-2.7735,169.3125
17:50:26:260,0.8943,-9.0088,-1.6615,59.3298,-0.3419,-0.0313,-2.2254,173.5469
17:50:26:278,-0.0825,-8.913,-1.4029,59.7004,-0.3593,-0.0054,-1.5396,177.3438
17:50:26:299,-0.4871,-9.0794,-1.209,60.3616,-0.2775,-0.0899,-0.7402,180.5469
17:50:26:317,-0.1076,-9.2027,-0.9193,59.5395,-0.0914,-0.2704,0.0865,183.2969
17:50:26:342,1.1697,-9.7833,-0.9492,57.5408,0.1553,-0.4664,0.8173,185.1562
17:50:26:360,1.9466,-10.1891,-1.5453,58.1109,0.2903,-0.4936,1.5028,185.8906
17:50:26:408,2.2758,-10.0778,-1.6782,58.1626,0.3316,-0.3,2.299,185.4375
17:50:26:409,3.6824,-10.0287,-1.6603,56.7899,0.4059,-0.0249,3.1212,183.9062
17:50:26:421,6.8332,-9.7223,-1.5274,57.174,0.6,0.2907,3.6522,181.3438
17:50:26:442,10.039,-9.9341,-2.6359,55.7872,0.7593,0.5325,3.7364,179.8438
17:50:26:459,11.7329,-10.6799,-4.568,56.8745,0.7063,0.5216,3.564,175.5938
17:50:26:479,9.7577,-10.9385,-5.2444,58.4078,0.4562,0.312,3.4647,167.6406
17:50:26:497,8.9449,-10.2047,-3.991,58.0275,0.1673,0.1421,3.575,162.5625
17:50:26:517,9.2202,-9.235,-2.8047,64.9025,-0.0493,0.1565,3.7963,157.7188
17:50:26:540,9.4883,-8.3947,-1.8734,73.0679,-0.1731,0.2841,3.8834,153.3125
17:50:26:559,9.3626,-7.7925,-1.1623,61.3081,-0.1744,0.4303,3.8152,149.0625
17:50:26:575,8.9317,-7.4466,-1.3167,22.3575,-0.0298,0.5501,3.6967,145.1719
17:50:26:595,8.8766,-7.2981,-1.8913,49.313,0.1438,0.6026,3.6154,141.2656
17:50:26:616,9.0753,-7.194,-2.3666,54.4017,0.232,0.5624,3.5334,137.5
17:50:26:641,9.2381,-7.4226,-2.6263,53.9323,0.2485,0.4087,3.4027,133.9375
17:50:26:661,9.3243,-7.9338,-2.7101,52.8997,0.2493,0.1517,3.2525,130.1875
17:50:26:677,9.4895,-8.5251,-2.5186,51.7074,0.2772,-0.1498,3.1342,126.4219
17:50:26:695,9.9001,-9.004,-2.3354,50.1061,0.3641,-0.3961,3.0844,122.8594
17:50:26:715,11.0518,-9.1824,-2.5341,49.0584,0.4972,-0.5383,3.0823,118.9688
17:50:26:736,12.2548,-9.1776,-2.8586,48.1193,0.6117,-0.5836,3.0178,114.7969
17:50:26:759,13.1491,-8.7358,-3.1435,47.0448,0.6711,-0.5056,2.8517,108.2188
17:50:26:777,13.9188,-8.3803,-3.6499,46.8362,0.685,-0.3671,2.6003,103.5781
17:50:26:795,14.8214,-8.348,-4.1359,46.8362,0.6117,-0.2353,2.2815,99.2188
17:50:26:817,16.2831,-8.4964,-4.3214,46.3777,0.4461,-0.1463,1.9033,95.3906
17:50:26:848,17.9483,-8.8531,-4.1921,45.7985,0.2384,-0.0699,1.3936,92.3438
17:50:26:863,18.5408,-8.3217,-3.4823,46.3704,0.0463,0.0769,0.6774,89.7969
17:50:26:876,16.5644,-6.2387,-2.5737,45.3874,-0.0559,0.4252,-0.2254,88.0312
17:50:26:899,14.9998,-5.6318,-3.5086,46.5664,-0.0306,0.9613,-1.0717,87.3906
17:50:26:917,15.4463,-7.3376,-5.0553,45.8175,-0.0565,1.3326,-1.8187,87.625
17:50:26:936,16.155,-10.1341,-6.0441,49.5177,-0.2024,1.1861,-2.598,89.3438
17:50:26:963,15.7923,-12.4588,-5.9196,50.5537,-0.4075,0.593,-3.3975,92.6562
17:50:26:979,14.4719,-13.6404,-4.2065,52.9613,-0.6549,-0.1357,-4.0704,96.7969
17:50:26:995,13.331,-14.0318,-2.436,55.8915,-0.8277,-0.5556,-4.537,101.625
17:50:27:016,12.4667,-14.2102,-1.355,57.8736,-0.8741,-0.6379,-4.8523,106.5
17:50:27:042,11.4564,-14.2772,-1.039,47.2349,-0.8136,-0.4406,-5.0886,111.2188
17:50:27:057,9.9552,-14.1994,-1.3885,37.8042,-0.6919,-0.0845,-5.2497,119.3594
17:50:27:076,8.4804,-13.6284,-1.5334,55.8683,-0.5894,0.2955,-5.2801,125.5
17:50:27:097,7.2091,-12.8946,-1.622,63.8962,-0.4876,0.5791,-5.1847,131.8594
17:50:27:117,5.9796,-12.041,-1.5561,66.1326,-0.3638,0.732,-4.998,138.9062
17:50:27:142,5.0124,-11.2174,-1.5801,67.3397,-0.2075,0.7427,-4.7197,145.9375
17:50:27:162,4.1337,-10.3436,-1.5717,69.7963,-0.0322,0.6228,-4.3573,152.2969
17:50:27:180,3.534,-9.5068,-1.5968,71.0117,0.2674,0.0984,-3.5107,163.625
17:50:27:197,3.267,-8.7598,-1.6351,71.9212,0.3454,-0.1586,-3.1021,163.625
17:50:27:216,2.9486,-8.172,-1.7105,74.667,0.3473,-0.3202,-2.7189,168.0156
17:50:27:236,2.4961,-7.7782,-1.7477,74.2791,0.2855,-0.3815,-2.325,171.4844
17:50:27:259,2.0711,-7.7829,-1.7776,74.6669,0.1854,-0.3911,-1.8875,174.5469
17:50:27:275,1.3732,-7.8775,-1.7081,75.9573,0.0831,-0.4073,-1.3455,177.1562
17:50:27:296,0.9207,-8.3372,-1.1443,76.4318,0.0975,-0.4606,-0.6579,179.3438
17:50:27:319,0.9303,-8.901,-0.4141,77.1886,0.3132,-0.57,0.1608,181.2969
17:50:27:341,2.0567,-9.8408,0.1198,74.5195,0.7582,-0.7908,1.037,183.5312
17:50:27:359,3.8572,-10.9002,0.0731,74.1504,1.3026,-0.8696,1.8548,183.4688
17:50:27:377,4.9753,-11.2976,-1.1096,73.0506,1.6221,-0.6089,2.6003,182.1719
17:50:27:398,5.8396,-11.1743,-2.764,74.4553,1.5465,-0.1911,3.262,180.8594
17:50:27:415,6.9361,-10.7398,-3.4416,73.3291,1.3055,0.0915,3.8253,176.8906
17:50:27:435,9.2465,-10.4261,-3.0106,74.5927,1.191,0.1669,4.106,171.6406
17:50:27:459,12.0046,-10.1748,-2.5114,72.7979,1.2765,0.124,3.9174,165.3594
17:50:27:477,13.0581,-10.0072,-2.9962,73.4381,1.3398,0.0838,3.4312,158.875
17:50:27:495,12.0382,-9.7641,-3.6104,74.1512,1.2301,0.1538,2.98,152.6094
17:50:27:515,9.5709,-8.992,-3.9647,74.6694,0.9681,0.2875,2.8234,146.1875
17:50:27:535,7.8244,-8.1421,-3.9204,80.5789,0.5899,0.5323,2.8815,140.2656
17:50:27:559,7.2402,-7.1593,-3.6223,92.6022,0.1491,0.8745,2.9648,135.1406
17:50:27:576,7.5131,-6.2423,-3.1495,111.9503,-0.302,1.2372,2.9329,131
17:50:27:595,7.5562,-5.53,-2.3067,102.9023,-0.6743,1.5611,2.8133,124.4531
17:50:27:616,7.2557,-5.0655,-1.5537,87.871,-0.9329,1.8111,2.6804,123.375
17:50:27:637,6.9373,-5.0619,-1.0043,84.1708,-1.0844,1.9222,2.5579,122.0156
17:50:27:657,6.6931,-5.4366,-0.6619,81.3644,-1.134,1.866,2.457,121.3438
17:50:27:679,6.583,-6.0675,-0.7002,75.4062,-1.1196,1.659,2.3901,121.2656
17:50:27:695,6.6021,-7.1377,-0.8786,75.967,-1.1076,1.2982,2.3736,121.4062
17:50:27:715,6.4405,-8.3947,-0.6846,71.5192,-1.041,0.9312,2.4817,121.5625
17:50:27:735,6.8451,-9.4421,-0.0932,71.544,-0.8266,0.5355,2.6799,121.4062
17:50:27:757,8.1404,-9.9641,0.3557,68.5015,-0.4562,0.1996,2.8298,120.8281
17:50:27:777,10.1982,-10.2047,-0.3051,68.689,-0.1297,-0.0334,2.7933,119.4844
17:50:27:796,11.4779,-10.1077,-1.2389,68.5934,0.02,-0.1183,2.6106,117.2344
17:50:27:816,12.3327,-10.0048,-1.8147,66.6385,0.0101,0.0052,2.3875,114.25
17:50:27:836,13.2879,-9.6959,-1.9631,66.7736,-0.0429,0.194,2.074,111.2031
17:50:27:861,14.5341,-9.3919,-2.096,65.7512,-0.0791,0.3277,1.5976,108.2188
17:50:27:877,16.4938,-9.7701,-2.6419,68.4774,-0.0999,0.3653,0.9097,105.7812
17:50:27:896,14.491,-8.5754,-2.1176,67.3662,-0.0842,0.4249,0.1355,104.9375
17:50:27:916,12.9372,-7.1162,-2.7018,69.2209,0.0549,0.6348,-0.456,103.2188
17:50:27:936,13.5166,-6.927,-4.0018,69.9269,0.1696,0.753,-0.9053,103.1719
17:50:27:960,14.91,-8.4378,-4.8254,71.9307,0.1278,0.5586,-1.484,104.0469
17:50:27:977,14.8454,-10.5482,-5.054,75.4209,0.0221,0.1208,-2.2539,105.75
17:50:27:999,13.6351,-12.1991,-4.3609,76.7858,-0.1228,-0.3724,-2.9991,107.9531
17:50:28:014,12.1363,-12.7856,-3.0944,79.1336,-0.2621,-0.7397,-3.528,110.5312
17:50:28:035,11.2146,-12.4648,-1.8542,81.9725,-0.3185,-0.9053,-3.8236,113.2656
17:50:28:058,10.3562,-12.1296,-1.3335,83.3395,-0.2567,-0.8829,-4.0364,116.4219
17:50:28:074,9.1567,-11.719,-1.124,79.9154,-0.147,-0.7831,-4.2318,119.8281
17:50:28:095,8.4097,-11.0905,-1.1192,60.8241,-0.0543,-0.513,-4.2944,123.2969
17:50:28:115,7.8818,-10.3328,-0.8115,80.5638,-0.0091,-0.1458,-4.3053,127.25
17:50:28:135,7.057,-9.9605,-0.7313,91.4435,0.1065,0.1522,-4.3346,131.5
17:50:28:158,5.9569,-9.7139,-0.8654,89.5798,0.289,0.2835,-4.3325,135.8906
17:50:28:176,4.5575,-9.6013,-1.1647,90.3266,0.4783,0.2289,-4.2233,140.8125
17:50:28:199,3.2658,-9.3248,-1.5789,87.7985,0.6245,0.0564,-3.9533,148.1094
17:50:28:215,2.4542,-8.822,-1.7249,88.2445,0.6701,-0.161,-3.5296,152.25
17:50:28:239,2.2854,-8.2678,-1.6974,88.2163,0.6306,-0.3666,-3.0347,155.9688
17:50:28:258,2.4111,-7.9146,-1.5753,88.3528,0.5529,-0.558,-2.55,159.0312
17:50:28:275,2.4949,-7.8632,-1.4663,87.9054,0.4511,-0.6848,-2.1167,161.4844
17:50:28:300,2.3333,-8.0391,-1.4149,87.8631,0.3254,-0.7101,-1.7165,164.9688
17:50:28:324,2.2183,-8.4318,-1.2329,87.3518,0.1766,-0.6457,-1.2885,165.6719
17:50:28:339,1.925,-8.9298,-1.1311,86.1094,-0.0322,-0.41,-0.1977,166.9219
17:50:28:363,2.0376,-9.3763,-1.0545,87.5169,-0.0959,-0.3064,0.4758,168.1562
17:50:28:379,3.4933,-9.9377,-1.1922,86.5152,-0.163,-0.2566,1.0359,168.4062
17:50:28:399,4.6796,-10.6488,-1.1275,86.8272,-0.2402,-0.2028,1.4719,168.0156
17:50:28:456,5.3392,-11.324,-0.9205,86.783,-0.2692,-0.158,1.8756,167.0312
17:50:28:457,5.9569,-11.992,-0.875,86.7164,-0.1832,-0.2113,2.2855,165.7188
17:50:28:457,6.9768,-12.4899,-0.8833,86.734,0.0855,-0.4062,2.6647,163.9375
17:50:28:477,8.6695,-12.794,-1.1838,85.0186,0.5441,-0.6915,2.9148,161.6719
17:50:28:496,10.707,-12.6839,-1.6459,85.6926,1.0993,-0.8821,2.9414,158.3281
17:50:28:516,12.1279,-11.5814,-2.7401,86.8936,1.452,-0.7509,2.7086,153.8438
17:50:28:537,11.8347,-9.6169,-4.2077,89.2369,1.3678,-0.3319,2.3414,148.5781
17:50:28:559,10.13,-7.8488,-4.726,95.4624,0.9824,0.2516,2.0546,142.7969
17:50:28:577,8.2517,-6.3967,-4.3406,110.4568,0.5372,0.8217,1.9233,137.8594
17:50:28:595,6.8763,-5.5216,-3.7193,121.1618,0.143,1.3112,1.8865,137.8594
17:50:28:615,5.9401,-4.862,-2.8669,74.3697,-0.1276,1.6756,1.9108,134.4844
17:50:28:636,5.5678,-4.4239,-2.3689,75.5032,-0.3049,1.8921,1.9504,131.0469
17:50:28:660,5.4601,-4.2323,-2.2229,92.513,-0.4365,1.9083,1.9709,131.0469
17:50:28:677,5.4888,-4.2707,-2.2181,93.1272,-0.5417,1.7469,1.9574,130.5156
17:50:28:695,5.3212,-4.698,-2.3043,92.9955,-0.6586,1.4766,1.9587,130.3906
17:50:28:714,5.0686,-5.518,-2.0541,91.2346,-0.7369,1.0883,2.0205,130.3594
17:50:28:735,5.0531,-6.6086,-1.5465,89.9835,-0.7055,0.6862,2.1829,130.3281
17:50:28:755,5.5343,-7.759,-0.9552,89.9626,-0.5508,0.2849,2.4032,130.1719
17:50:28:777,6.468,-8.6963,-0.79,88.7453,-0.3236,-0.0853,2.6208,129.6562
17:50:28:803,8.0602,-9.7821,-1.3143,87.4899,-0.1366,-0.403,2.7659,128.5
17:50:28:813,9.5219,-11.1145,-1.6806,83.6616,-0.0024,-0.6286,2.8929,126.5469
17:50:28:834,11.023,-11.7573,-1.2425,83.5423,0.2365,-0.7029,3.0051,123.8438
17:50:28:859,12.9779,-10.9289,-0.845,83.3883,0.5851,-0.6507,2.9425,120.3125
17:50:28:876,14.734,-9.4182,-1.8949,81.9294,0.7247,-0.4547,2.6343,116.25
17:50:28:894,17.0385,-8.5467,-3.4858,81.9294,0.4735,-0.1519,2.0234,111.9844
17:50:28:914,19.4793,-8.1229,-3.335,81.4267,0.2205,0.2673,1.0815,107.4375
17:50:28:935,19.945,-6.8959,-2.4384,80.8179,0.2173,0.8018,-0.0113,100.875
17:50:28:959,18.4642,-5.5085,-3.3111,83.75,0.1185,1.4756,-1.0438,100.1406
17:50:28:977,17.2527,-6.192,-5.2911,82.946,-0.2229,1.9816,-1.974,100.125
17:50:28:994,17.0815,-8.3767,-5.9196,85.0534,-0.4637,1.8513,-2.872,102.1719
17:50:29:015,16.0796,-10.7146,-6.062,87.89,-0.5582,1.0095,-3.6254,105.9844
17:50:29:035,13.8278,-12.3152,-5.2743,88.3014,-0.641,-0.0654,-4.0603,111.4688
17:50:29:060,11.5677,-12.9209,-3.3625,90.8589,-0.6895,-0.9003,-4.1453,117.3438
17:50:29:078,10.355,-12.1129,-1.1575,91.8718,-0.5899,-1.3141,-4.0832,122.7188
17:50:29:094,10.0498,-10.9924,0.2946,94.2475,-0.391,-1.2896,-4.0779,127.1094
17:50:29:116,9.9899,-10.2669,0.7758,71.7579,-0.1704,-0.9469,-4.1748,131.0938
17:50:29:135,9.5973,-10.006,0.4275,57.7115,-0.0112,-0.4132,-4.2917,134.7656
17:50:29:159,9.0227,-10.2047,-0.6212,79.8392,0.0277,0.0636,-4.3874,138.4375
17:50:29:175,8.1189,-10.5495,-1.2066,85.4234,0.0485,0.3418,-4.3868,142.7188
17:50:29:196,7.0271,-10.814,-1.4149,85.3171,0.1039,0.466,-4.2481,145.0781
17:50:29:215,6.0527,-10.7649,-1.4663,84.2822,0.1942,0.4241,-4.0023,150.125
17:50:29:240,5.083,-10.5339,-1.4352,83.6283,0.3076,0.2758,-3.6614,155.0469
17:50:29:260,4.166,-10.0754,-1.4304,82.4178,0.4072,0.055,-3.2332,162.3438
17:50:29:276,3.4059,-8.9358,-1.6734,83.255,0.473,-0.1918,-2.757,166.5625
17:50:29:295,3.5399,-8.8184,-1.8757,81.9322,0.4631,-0.4137,-2.2949,169.875
17:50:29:315,3.5004,-8.8699,-1.786,82.6899,0.3643,-0.5461,-1.8749,172.6719
17:50:29:337,3.2814,-9.0722,-1.5561,81.1482,0.2373,-0.5719,-1.4526,174.8281
17:50:29:360,3.0491,-9.1046,-1.0055,82.4946,0.1329,-0.5303,-0.9857,176.4844
17:50:29:375,3.2562,-9.3452,-0.7313,79.7647,0.1079,-0.4323,-0.4667,177.9531
17:50:29:394,3.5208,-9.8001,-1.0414,79.313,0.167,-0.3088,0.0564,179.125
17:50:29:414,3.3077,-10.4669,-1.871,79.6275,0.208,-0.1634,0.5664,179.7812
17:50:29:434,2.8971,-10.6021,-2.023,81.6852,0.1047,-0.0012,1.1286,179.8594
17:50:29:460,3.5328,-10.0263,-1.4077,77.838,-0.0711,0.1581,1.789,179.2031
17:50:29:479,5.599,-9.7474,-0.8391,78.4335,-0.1095,0.239,2.4271,177.9844
17:50:29:501,7.9979,-10.5291,-1.4268,79.9892,0.0783,0.2071,2.8394,176.375
17:50:29:514,9.6452,-11.798,-2.8837,78.8006,0.3662,0.0659,3.0224,174.1406
17:50:29:534,10.1396,-12.0075,-3.8186,79.4615,0.5348,-0.1397,3.0967,171.1719
17:50:29:560,10.0857,-10.717,-3.6762,79.7869,0.5515,-0.3501,3.1664,167.6875
17:50:29:576,9.6978,-8.8172,-2.6862,82.1875,0.465,-0.3703,3.1965,163.4531
17:50:29:594,9.3974,-7.1198,-2.3893,91.8593,0.3958,-0.1391,3.1491,158.9531
17:50:29:614,9.1172,-5.9861,-2.5653,118.274,0.269,0.2686,3.0096,154.6094
17:50:29:635,8.4265,-5.2738,-2.5234,153.7356,-0.0075,0.8279,2.7845,150.2188
17:50:29:659,7.6592,-4.8477,-2.4276,109.93,-0.3593,1.4199,2.571,144.5156
17:50:29:678,7.1887,-4.8656,-2.4671,52.6449,-0.6812,1.878,2.4325,142.0781
17:50:29:694,6.9445,-5.0775,-2.5545,75.4377,-0.9689,2.1126,2.3337,140.7188
17:50:29:714,6.9146,-5.6389,-2.4635,80.7725,-1.212,2.0929,2.2567,140.2969
17:50:29:734,6.9624,-6.4889,-2.0589,81.2831,-1.3896,1.8148,2.1733,140.5312
17:50:29:754,7.1157,-7.6297,-1.525,79.8386,-1.445,1.4012,2.1393,141.0625
17:50:29:774,7.4413,-8.6508,-0.9851,78.6832,-1.3774,0.9323,2.1792,141.625
17:50:29:795,8.3092,-9.4194,-0.6439,76.8344,-1.1984,0.4992,2.307,141.875
17:50:29:814,9.5159,-9.9521,-0.7469,75.7633,-0.9518,0.1381,2.4602,141.625
17:50:29:835,10.7094,-10.1436,-0.8235,76.6573,-0.7257,-0.0672,2.5619,141.1875
17:50:29:861,12.0214,-10.3819,-1.2987,74.1861,-0.5255,-0.117,2.5952,139.7344
17:50:29:877,13.1467,-10.1915,-1.5789,73.0707,-0.3976,-0.0584,2.5339,137.5781
17:50:29:896,14.2109,-10.0323,-1.9356,70.1529,-0.322,0.0625,2.3646,135.125
17:50:29:914,15.1051,-9.3763,-1.944,71.2445,-0.3036,0.2239,2.0945,132.375
17:50:29:935,15.5433,-8.2354,-1.6758,70.2728,-0.289,0.4345,1.7105,128.6562
17:50:29:960,15.2632,-6.3237,-1.2952,70.1867,-0.2208,0.7142,1.2135,126.8281
17:50:29:977,15.2213,-4.9769,-1.7297,70.8434,-0.0645,1.0404,0.6316,125.625
17:50:29:995,16.167,-5.0643,-2.7125,71.6179,0.2187,1.0947,-0.8813,125.2969
17:50:30:014,17.1426,-6.6385,-4.0497,73.1526,0.2639,0.6079,-1.8675,125.2969
17:50:30:035,16.4878,-8.6927,-4.4543,75.3979,0.2205,-0.0009,-2.7647,127.625
17:50:30:059,14.4719,-9.9736,-3.5888,74.4743,0.1902,-0.4212,-3.3602,129.9844
17:50:30:076,12.924,-10.6907,-2.6802,76.6317,0.1582,-0.5229,-3.7139,132.625
17:50:30:093,11.9544,-10.8631,-1.8674,74.9466,0.1635,-0.3453,-3.957,135.6562
17:50:30:114,11.2277,-10.7625,-1.5166,75.1184,0.2213,-0.0038,-4.1594,138.8594
17:50:30:134,10.294,-10.6333,-1.7165,64.267,0.2842,0.3448,-4.3163,142.375
17:50:30:160,9.0765,-10.5482,-1.9931,62.4077,0.3609,0.5693,-4.3714,146.2031
17:50:30:177,7.9082,-10.486,-2.3929,74.1523,0.4386,0.5954,-4.3064,155.7344
17:50:30:195,6.8691,-10.3603,-2.7233,79.6792,0.4999,0.4473,-4.1352,158.2969
17:50:30:214,6.091,-10.0586,-2.8753,76.4157,0.5273,0.2028,-3.9,163.0781
17:50:30:234,5.678,-9.7594,-2.8825,76.6774,0.5116,-0.0827,-3.6507,167.75
17:50:30:255,5.4314,-9.4768,-2.8753,75.8579,0.4378,-0.3298,-3.4158,171.9531
17:50:30:276,5.1632,-9.2566,-2.5749,75.1405,0.3353,-0.4702,-3.19,175.4688
17:50:30:294,4.6544,-9.0627,-2.2756,71.1271,0.2498,-0.5224,-2.9306,177.1875
17:50:30:314,3.8919,-8.9609,-2.2421,73.096,0.146,-0.4813,-2.5948,180.4219
17:50:30:334,3.1928,-8.9226,-2.3199,72.2288,-0.0069,-0.3737,-2.1812,183.5
17:50:30:358,2.5464,-8.9705,-2.3223,72.7075,-0.1638,-0.2457,-1.6978,186.2812
17:50:30:376,2.0986,-9.1668,-2.2744,72.2976,-0.2882,-0.1357,-1.1378,189
17:50:30:393,1.9981,-9.3428,-2.0876,71.411,-0.3459,-0.075,-0.5439,191.4844
17:50:30:414,2.362,-9.5152,-2.078,73.8466,-0.3475,-0.0848,0.0231,194.4531
17:50:30:433,3.0372,-10.3304,-2.412,70.2234,-0.3662,-0.1309,0.5496,195.8594
17:50:30:454,3,-11.2091,-2.9041,72.9182,-0.4988,-0.1221,1.1371,196.6562
17:50:30:475,2.8744,-11.5789,-2.7137,72.4023,-0.6605,-0.0755,1.8372,196.7969
17:50:30:521,3.7195,-11.2917,-1.7405,71.9129,-0.6911,-0.0299,2.5132,196.4375
17:50:30:522,5.988,-10.7709,-0.6331,72.2376,-0.4557,-0.0219,2.9552,195.5469
17:50:30:534,8.7653,-11.0151,-0.8199,71.6559,-0.1151,-0.0582,3.082,194.0156
17:50:30:560,10.7549,-11.634,-2.2145,73.3505,0.0426,-0.0691,2.9792,191.7812
17:50:30:576,11.0206,-11.6855,-3.1614,74.1689,-0.0186,-0.003,2.8269,188.6719
17:50:30:594,9.5566,-10.7003,-2.9627,76.1353,-0.155,0.1541,2.7981,185.1562
17:50:30:614,8.0758,-9.3751,-2.0673,85.652,-0.2357,0.365,2.8857,181.9531
17:50:30:634,7.2426,-8.2594,-1.5872,94.6687,-0.2807,0.5996,2.9973,178.8906
17:50:30:659,7.1923,-7.4705,-1.5058,72.505,-0.3555,0.8423,3.0554,176.0469
17:50:30:675,7.1157,-6.7355,-1.4651,51.259,-0.4597,1.0979,3.0628,173.3906
17:50:30:694,6.7853,-5.7323,-1.622,65.4988,-0.5979,1.3195,3.0588,170.75
17:50:30:714,6.8703,-5.6856,-1.8183,70.6859,-0.7689,1.4444,3.0322,168.3906
17:50:30:734,7.0127,-6.0543,-1.9955,68.8056,-0.9782,1.4468,2.9563,166.3594
17:50:30:754,7.1241,-6.8564,-1.786,69.3802,-1.2317,1.3408,2.857,164.7969
17:50:30:776,7.1839,-7.9075,-1.4077,66.7994,-1.4703,1.1741,2.7939,163.4688
17:50:30:793,7.3611,-8.8579,-0.7565,67.0659,-1.6608,1.0047,2.8106,162.4062
17:50:30:817,8.1212,-9.6061,-0.1735,64.8821,-1.7785,0.8673,2.906,161.6094
17:50:30:832,9.5901,-10.48,0.1414,64.0664,-1.8016,0.7272,3.0136,160.8125
17:50:30:853,11.1487,-11.1324,0.4191,63.5271,-1.7361,0.5941,3.0487,159.9219
17:50:30:876,12.5254,-11.1324,0.8058,62.3448,-1.5888,0.5499,2.9968,158.7969
17:50:30:897,13.8075,-10.2514,0.941,61.3103,-1.3521,0.6779,2.8524,157.4219
17:50:30:913,15.6342,-8.7155,0.3341,60.0607,-1.0804,1.038,2.5704,155.7656
17:50:30:934,17.9363,-7.352,-0.9001,59.6523,-0.8999,1.5802,2.0218,154.0781
17:50:30:954,18.3146,-7.1449,-1.5047,60.5249,-0.8607,2.2612,1.054,152.8438
17:50:30:976,17.0073,-7.6525,-1.7141,60.5249,-0.7396,2.8783,-0.0659,152.4531
17:50:30:997,14.1738,-6.8229,-1.6172,60.5259,-0.3308,3.1217,-0.9862,155.25
17:50:31:013,12.2776,-6.1274,-2.8059,63.8374,0.3872,2.8042,-1.5732,159.5625
17:50:31:034,11.624,-6.8444,-5.0433,66.1155,1.1297,1.8939,-1.9349,165.2031
17:50:31:062,11.6347,-8.3504,-6.9108,63.2033,1.5564,0.614,-2.2084,170.5469
17:50:31:079,12.1926,-9.66,-7.2447,65.7534,1.5622,-0.7141,-2.4076,174.3438
17:50:31:096,11.7928,-9.6852,-5.5293,65.5931,1.2546,-1.6784,-2.6126,176.6562
17:50:31:114,11.2445,-9.2721,-3.6834,65.5798,0.8855,-1.936,-2.7674,177.5781
17:50:31:134,10.6112,-8.5515,-2.2337,67.545,0.5811,-1.5192,-2.8691,177.8438
17:50:31:154,10.124,-8.0834,-1.7824,72.6162,0.4072,-0.6707,-2.9668,178.2812
17:50:31:176,9.9839,-8.1062,-2.029,78.4537,0.3454,0.2412,-3.1048,179.5312
17:50:31:193,9.6404,-8.3815,-2.661,78.7872,0.3912,0.7943,-3.3011,180.5625
17:50:31:214,8.6695,-8.5108,-2.9651,73.7123,0.4959,0.8987,-3.5208,183.3594
17:50:31:233,7.5802,-8.6389,-3.1854,71.8786,0.6083,0.6883,-3.6736,187.2031
17:50:31:253,6.5375,-8.8424,-3.2476,75.522,0.6898,0.2942,-3.7146,191.4219
17:50:31:277,5.7773,-8.9058,-3.0884,76.3908,0.6983,-0.1402,-3.6308,195.6094
17:50:31:293,4.925,-8.7634,-2.8083,75.5552,0.6442,-0.4606,-3.4475,201.1094
17:50:31:318,4.1744,-8.494,-2.588,73.4382,0.5441,-0.5929,-3.1783,204.4219
17:50:31:333,3.7435,-8.1684,-2.3606,75.6898,0.3984,-0.5626,-2.8366,207.2812
17:50:31:354,3.3269,-7.9039,-2.3833,74.206,0.2589,-0.4326,-2.468,210.0625
17:50:31:375,2.8768,-7.8739,-2.5557,72.1562,0.1039,-0.2536,-2.0859,212.6562
17:50:31:399,2.5188,-8.1648,-2.5198,72.9497,-0.2615,0.1328,-1.2006,215.0312
17:50:31:414,2.2902,-8.4928,-2.3821,74.465,-0.3646,0.2564,-0.6512,217.1406
17:50:31:434,2.0783,-8.6927,-2.199,74.7152,-0.3912,0.2961,-0.0371,217.1406
17:50:31:460,2.3548,-8.6676,-1.859,74.008,-0.3033,0.21,0.5944,219.1562
17:50:31:477,4.0164,-9.0172,-2.0421,74.0308,-0.1483,-0.0315,1.0876,222.0469
17:50:31:494,5.49,-9.7211,-2.8645,73.8338,-0.1079,-0.2528,1.4213,222.625
17:50:31:518,5.6445,-10.4058,-3.7061,75.0155,-0.2986,-0.2949,1.784,222.3281
17:50:31:532,5.5068,-10.9804,-3.6056,74.6436,-0.5854,-0.2038,2.2623,221.3281
17:50:31:554,6.5363,-11.2222,-2.5737,72.5441,-0.7073,-0.1506,2.7281,219.7969
17:50:31:578,8.7354,-11.4018,-1.932,72.9565,-0.603,-0.1642,2.9907,218.0625
17:50:31:597,11.0063,-11.6723,-1.9559,74.288,-0.4088,-0.1362,2.9955,216.1562
17:50:31:613,11.9544,-11.6232,-2.6156,74.4057,-0.3433,0.0646,2.8652,213.9844
17:50:31:632,11.2385,-10.7925,-3.1423,75.0322,-0.4908,0.4162,2.7627,211.2188
17:50:31:653,9.9851,-9.2386,-2.6503,72.4617,-0.6762,0.7512,2.7174,208.25
17:50:31:676,8.9209,-7.4657,-1.9559,64.2013,-0.8,0.9853,2.6546,205.5312
17:50:31:697,8.2493,-5.9945,-1.4592,61.7193,-0.8935,1.1733,2.5251,203.1719
17:50:31:713,7.7059,-4.9015,-1.0976,70.5083,-0.963,1.3302,2.3486,201.2969
17:50:31:733,7.1001,-4.2347,-0.936,77.6627,-1.0157,1.4367,2.1867,199.25
17:50:31:753,6.6775,-3.9869,-1.0294,76.652,-1.0583,1.4279,2.0543,198.3438
17:50:31:776,6.662,-4.1761,-1.1587,74.3957,-1.0589,1.2652,1.9203,197.8125
17:50:31:794,6.589,-4.6992,-1.3287,73.999,-1.0067,0.9549,1.813,197.5469
17:50:31:820,6.565,-5.4953,-1.3909,74.0161,-0.9007,0.5746,1.7843,197.375
17:50:31:832,6.4226,-6.4602,-1.3933,69.5631,-0.767,0.2162,1.8817,197.1406
17:50:31:853,6.6165,-7.4202,-1.4196,72.3088,-0.6549,-0.0182,2.0873,196.5781
17:50:31:878,7.4952,-8.1576,-1.3323,71.8276,-0.5561,-0.0962,2.3126,195.5781
17:50:31:895,9.2525,-8.6377,-1.2999,69.8763,-0.4264,-0.0907,2.416,193.9531
17:50:31:913,10.7788,-8.9501,-1.5334,70.3635,-0.3081,0.0154,2.401,191.7969
17:50:31:934,12.031,-9.1668,-1.9176,69.5611,-0.2687,0.2406,2.2959,189.4375
17:50:31:954,13.3274,-9.1022,-2.3342,69.375,-0.3113,0.5227,2.0596,188.1406
17:50:31:978,14.2624,-9.0854,-2.5018,68.5942,-0.3803,0.7874,1.7132,185.6094
17:50:31:995,15.2117,-9.1584,-2.3366,68.8537,-0.3787,0.9778,1.2585,183.4062
17:50:32:013,15.7983,-8.834,-1.9967,69.3602,-0.2123,1.099,0.7009,181.9062
17:50:32:033,15.2596,-7.7207,-1.8303,68.4631,0.0927,1.1594,0.1491,181.0625
17:50:32:053,14.5389,-6.5152,-2.7269,69.7498,0.3127,1.0207,-0.374,181.2188
17:50:32:078,15.4954,-6.0364,-3.9575,70.7073,0.3305,0.6252,-1.0949,182.125
17:50:32:095,15.6091,-8.7753,-4.0006,71.8801,0.2341,0.046,-2.0531,183.5
17:50:32:113,13.5274,-10.2873,-3.0118,73.8382,0.147,-0.513,-2.9013,185.1562
17:50:32:133,11.8526,-10.9876,-1.5525,73.262,0.0834,-0.9082,-3.41,187.1094
17:50:32:153,10.6902,-10.8116,-0.4799,75.7874,0.1073,-1.031,-3.6417,189.6094
17:50:32:179,10.0187,-10.3771,0.0181,74.7747,0.2136,-0.9242,-3.7453,192.375
17:50:32:195,9.3363,-9.9198,0.2587,72.7587,0.3412,-0.684,-3.8409,195.3281
17:50:32:213,8.4445,-9.6409,0.2467,60.502,0.485,-0.4275,-3.9514,198.25
17:50:32:232,7.4162,-9.4972,-0.0968,61.3568,0.6501,-0.2366,-4.0358,201.5781
17:50:32:252,6.6105,-9.3811,-0.4213,69.954,0.7966,-0.1628,-4.0481,205.1719
17:50:32:280,5.7989,-9.2219,-0.7576,76.5363,0.9143,-0.169,-3.985,208.75
17:50:32:298,4.9932,-9.0327,-1.1084,78.462,1.004,-0.2246,-3.8396,212.5
17:50:32:313,4.3815,-8.846,-1.5142,78.994,1.0331,-0.2853,-3.6078,216.0938
17:50:32:332,3.9817,-8.6556,-1.7919,81.3215,0.9931,-0.3492,-3.3021,220.7812
17:50:32:352,3.8572,-8.3839,-2.0996,82.1826,0.9028,-0.4017,-2.9434,223.5938
17:50:32:377,3.7279,-8.2283,-2.3558,83.2235,0.7465,-0.4267,-2.5919,226.0625
17:50:32:393,3.5507,-8.2402,-2.4168,83.8831,0.5313,-0.4156,-2.2496,228.1094
17:50:32:413,3.2646,-8.336,-2.3426,85.2907,0.2892,-0.369,-1.8912,230.0469
17:50:32:433,2.9833,-8.6485,-2.1858,84.6195,0.0517,-0.2696,-1.4986,231.875
17:50:32:453,2.7475,-9.1919,-2.0505,85.6863,-0.1547,-0.1429,-1.052,232.75
17:50:32:476,2.6325,-9.5391,-1.8315,83.7045,-0.3108,-0.0289,-0.5292,234.3594
17:50:32:495,3.3221,-10,-1.4173,85.2566,-0.3776,0.0137,0.0796,235.8906
17:50:32:513,4.2247,-10.668,-1.4185,86.3559,-0.2961,-0.0486,0.6814,237.0938
17:50:32:585,4.6724,-11.0858,-1.9236,84.6118,-0.1284,-0.1586,1.2213,237.8125
17:50:32:586,5.2422,-11.0115,-2.2277,86.7338,-0.0253,-0.247,1.748,237.8281
17:50:32:587,6.1772,-10.8523,-1.9715,86.22,0.0085,-0.3492,2.2548,237.0156
17:50:32:592,8.0434,-11.1217,-1.7273,86.6168,0.1127,-0.4702,2.7007,234.2656
17:50:32:615,10.1946,-11.2545,-1.8195,87.0056,0.3513,-0.5655,2.988,231.7344
17:50:32:633,11.1355,-11.0905,-2.7903,87.3819,0.6485,-0.5554,3.0157,228.375
17:50:32:652,10.3335,-10.4944,-3.5289,86.1059,0.7577,-0.3639,2.8682,224.3125
17:50:32:676,8.6575,-9.4972,-3.2835,85.5482,0.6101,-0.0382,2.7529,220.0312
17:50:32:693,7.7873,-8.2235,-2.5856,79.7776,0.3774,0.3214,2.8165,215.6094
17:50:32:717,7.9333,-7.0563,-2.0804,77.3885,0.1843,0.625,2.9323,211.7031
17:50:32:733,8.2182,-6.0304,-1.9141,89.7018,0.0549,0.8561,2.9454,208.3906
17:50:32:753,8.1715,-5.2319,-1.9715,99.2774,-0.0442,1.0367,2.8218,205.2656
17:50:32:778,7.9357,-4.7651,-2.2971,96.9098,-0.1143,1.1096,2.6309,202.4531
17:50:32:795,7.6831,-4.5939,-2.4767,93.0283,-0.2565,0.8393,2.258,200.0781
17:50:32:818,7.4245,-4.7363,-2.4875,88.7607,-0.327,0.6111,2.1172,200.0781
17:50:32:833,7.3144,-5.1912,-2.3426,87.3392,-0.4139,0.4276,2.025,196.4375
17:50:32:853,7.5311,-5.9382,-1.9595,87.339,-0.4709,0.3115,1.9712,194.8125
17:50:32:876,7.9872,-6.7008,-1.6028,84.5102,-0.4514,0.2406,1.9289,193.2969
17:50:32:895,8.4516,-7.2622,-1.3945,84.4584,-0.355,0.1973,1.8905,191.6875
17:50:32:912,8.6085,-7.7399,-1.4639,82.7123,-0.2141,0.1895,1.9081,189.2656
17:50:32:933,9.1268,-8.1876,-1.932,85.3673,-0.1073,0.1973,1.9579,188.5
17:50:32:952,10.1982,-8.3947,-2.3151,85.1887,-0.033,0.213,1.9507,186.7969
17:50:32:978,11.345,-8.3863,-2.8478,84.4622,-0.0011,0.2271,1.8452,184.9531
17:50:33:000,12.7337,-8.3228,-3.4368,83.4617,-0.0727,0.3067,1.5936,182.9844
17:50:33:014,13.9727,-8.5084,-3.8641,83.8442,-0.2671,0.5224,1.2173,181.0938
17:50:33:032,14.7256,-8.6341,-3.8354,83.9582,-0.5129,0.8838,0.7584,179.25
17:50:33:054,15.1219,-8.9848,-3.4715,83.9582,-0.6951,1.295,0.2529,177.7969
17:50:33:075,14.667,-8.5623,-2.5808,84.338,-0.6706,1.6812,-0.2456,177.1562
17:50:33:096,14.0876,-7.6501,-2.4049,82.6621,-0.4762,1.8204,-0.7498,177.5312
17:50:33:112,14.0206,-7.3245,-3.2835,82.3158,-0.3001,1.5831,-1.3319,179.0469
17:50:33:132,14.2576,-8.0284,-4.1035,83.8999,-0.1816,0.9682,-1.9865,181.4531
17:50:33:152,13.9068,-9.3272,-4.2304,86.3543,-0.0919,0.1024,-2.6044,184.6406
17:50:33:177,12.6702,-10.1604,-3.08,87.4486,0.0365,-0.7213,-3.0419,188.125
17:50:33:196,11.5521,-10.4525,-1.6698,90.3829,0.1973,-1.2917,-3.3285,193.0469
17:50:33:218,10.7836,-10.1568,-0.3829,93.2823,0.3766,-1.4867,-3.5447,195.9844
17:50:33:233,10.2449,-9.7402,0.2527,95.495,0.5374,-1.3423,-3.7461,198.4531
17:50:33:252,9.8175,-9.435,0.303,86.9279,0.6543,-0.9953,-3.9445,200.7031
17:50:33:272,9.1867,-9.4876,-0.4763,71.875,0.6522,-0.5517,-4.1067,202.9688
17:50:33:292,8.3284,-9.7115,-1.2928,80.997,0.5475,-0.1402,-4.1764,205.7344
17:50:33:315,7.324,-9.9353,-1.6818,90.3491,0.4503,0.1125,-4.1405,209.0469
17:50:33:333,6.2382,-10.164,-1.7297,93.2077,0.4061,0.194,-3.9783,212.7344
17:50:33:353,5.0686,-10.0945,-1.6375,96.1502,0.4136,0.1466,-3.6907,216.9844
17:50:33:381,4.0104,-9.8539,-1.5274,97.8013,0.4557,-0.0092,-3.3018,221.3125
17:50:33:393,3.4131,-9.4014,-1.3921,96.5174,0.5177,-0.2278,-2.8686,225.1562
17:50:33:413,3.334,-8.8891,-1.5154,97.2258,0.5489,-0.4054,-2.4749,228.6875
17:50:33:433,3.1138,-8.5826,-1.7153,97.7702,0.5127,-0.4949,-2.097,231.6094
17:50:33:453,2.6242,-8.567,-1.9512,97.2464,0.4059,-0.4955,-1.6725,233.8906
17:50:33:476,2.1369,-8.7251,-2.0194,96.8374,0.2855,-0.4459,-1.1719,234.7656
17:50:33:495,1.9466,-9.0782,-2.005,97.6954,0.1888,-0.37,-0.6131,236.4375
17:50:33:515,2.9187,-9.5834,-1.9583,96.6977,0.1561,-0.2931,-0.0312,238.2656
17:50:33:540,4.1349,-10.2933,-2.3498,96.8079,0.1617,-0.2678,0.4862,238.9219
17:50:33:551,4.4174,-11.385,-3.2009,97.672,0.155,-0.2696,0.8862,239.0312
17:50:33:572,3.9266,-11.8148,-3.6546,96.3742,0.0637,-0.1751,1.3027,238.5312
17:50:33:593,3.8117,-11.4401,-4.0138,97.4626,-0.1028,0.0034,1.8596,237.5312
17:50:33:619,5.6756,-10.9864,-3.7504,95.7943,-0.3696,0.2082,2.5251,236.0938
17:50:33:631,8.4277,-11.2007,-3.0022,96.6422,-0.6559,0.4111,3.0194,234.3125
17:50:33:652,10.3083,-11.9058,-3.0465,95.5303,-0.8062,0.6359,3.2016,232.125
17:50:33:680,10.6687,-12.0746,-3.0058,97.3268,-0.9164,0.8412,3.1776,229.7812
17:50:33:697,9.8092,-11.3324,-2.1295,98.9345,-1.0229,0.9294,3.0943,227.3125
17:50:33:711,8.8479,-9.9174,-1.0557,100.1082,-1.0141,0.9046,3.0809,225.0156
17:50:33:732,8.6085,-8.4725,-0.6846,96.3951,-0.8613,0.8495,3.122,223.1562
17:50:33:751,8.7425,-7.3436,-0.6918,85.0924,-0.6746,0.7962,3.0996,221.3594
17:50:33:772,8.5737,-6.3213,-0.7098,76.0436,-0.531,0.769,2.9574,219.4219
17:50:33:793,8.2673,-5.5408,-0.8319,95.6637,-0.4072,0.7259,2.7582,216.1719
17:50:33:813,7.9596,-5.0201,-1.2161,99.6107,-0.2914,0.6079,2.5513,213.9219
17:50:33:837,7.7501,-4.8261,-1.5645,98.6723,-0.228,0.4082,2.3395,211.75
17:50:33:851,7.628,-5.0105,-1.6351,95.2202,-0.2477,0.1797,2.1305,209.7031
17:50:33:872,7.482,-5.6162,-1.3909,93.2245,-0.3212,0.0063,1.944,207.5781
17:50:33:894,7.4126,-6.3524,-0.8822,91.8085,-0.3981,-0.0715,1.8269,205.5156
17:50:33:913,7.6256,-6.9246,-0.4512,90.5562,-0.4112,-0.0318,1.7994,203.5469
17:50:33:936,7.9537,-7.2383,-0.4213,90.3441,-0.347,0.0926,1.813,201.7812
17:50:33:951,8.5498,-7.437,-0.7708,90.8604,-0.2442,0.2337,1.8282,199.9688
17:50:33:973,9.5231,-8.1433,-1.6064,88.8959,-0.1555,0.3208,1.8077,199.0938
17:50:33:997,10.2461,-8.8819,-2.0625,87.6784,-0.1406,0.3301,1.7352,197.3594
17:50:34:013,10.8064,-9.3021,-2.0541,87.6589,-0.1531,0.2689,1.6474,195.8125
17:50:34:037,11.2612,-9.186,-2.023,87.5133,-0.1302,0.2343,1.5781,194.2344
17:50:34:051,12.1615,-8.8975,-2.2457,86.8608,-0.1068,0.3024,1.4985,192.7188
17:50:34:071,13.1599,-8.3624,-2.0553,86.2423,-0.1718,0.4774,1.3318,191.3125
17:50:34:094,14.0505,-8.0607,-1.7884,85.2635,-0.2448,0.7608,1.0016,189.2812
17:50:34:112,13.8769,-7.4585,-1.4711,88.078,-0.2208,1.0646,0.5089,188.4062
17:50:34:132,13.1287,-6.9462,-1.932,85.8775,-0.0226,1.2508,-0.0262,188.2969
17:50:34:153,13.2125,-7.2502,-3.3111,86.9825,0.265,1.1768,-0.5005,189.0781
17:50:34:178,13.829,-8.1265,-4.2628,86.8552,0.4322,0.7831,-0.9756,190.6406
17:50:34:199,13.8889,-9.2326,-4.5393,88.2774,0.4099,-0.6481,-2.097,192.4375
17:50:34:213,13.0832,-9.6995,-3.3075,89.6698,0.3915,-1.2747,-2.5668,194.3125
17:50:34:232,12.4907,-9.8096,-1.9847,90.1236,0.432,-1.6081,-2.9578,196.0156
17:50:34:252,12.1076,-9.6073,-0.9252,94.0795,0.4895,-1.6028,-3.3314,197.4844
17:50:34:272,11.6958,-9.4445,-0.4919,95.5158,0.5294,-1.3352,-3.7109,198.75
17:50:34:295,10.9464,-9.5367,-0.6056,94.7229,0.5193,-0.9298,-4.0425,200.1406
17:50:34:311,9.8906,-9.8803,-1.1359,74.2114,0.4522,-0.5165,-4.2625,201.9531
17:50:34:331,8.9748,-10.3256,-1.6375,63.7865,0.3635,-0.2265,-4.3727,204.3281
17:50:34:352,8.0387,-10.6823,-1.7273,82.5199,0.323,-0.1034,-4.3786,207.6562
17:50:34:379,6.9002,-10.972,-1.7285,88.895,0.3278,-0.1122,-4.2611,215.9375
17:50:34:396,5.6073,-10.9134,-1.616,88.8942,0.367,-0.2057,-4.0049,218.25
17:50:34:413,4.4964,-10.5064,-1.4843,89.6669,0.4083,-0.3359,-3.6473,225
17:50:34:432,3.7423,-9.8611,-1.3873,88.8121,0.4376,-0.456,-3.2369,227.1094
17:50:34:452,3.4118,-9.2027,-1.3885,90.386,0.4285,-0.516,-2.8268,230.7188
17:50:34:477,3.2024,-8.6772,-1.5346,89.0616,0.3641,-0.5053,-2.4331,234.0156
17:50:34:495,3.0934,-8.4952,-1.6998,87.4153,0.244,-0.4323,-2.0579,235.4531
17:50:34:512,2.6924,-8.6712,-1.7225,88.3337,0.1113,-0.3154,-1.6446,237.9844
17:50:34:532,2.2854,-9.0638,-1.7046,87.832,0.0123,-0.1964,-1.1487,240.0625
17:50:34:552,1.9274,-9.3452,-1.5992,86.746,-0.036,-0.1029,-0.5591,242.0156
17:50:34:578,2.1357,-9.3883,-1.3742,88.4371,-0.0048,-0.0278,0.0452,243.6875
17:50:34:595,3.2598,-9.6109,-1.6327,86.2515,0.0477,0.0058,0.5446,244.9688
17:50:34:650,4.2929,-10.2011,-2.3259,86.6026,0.0029,0.0239,0.931,245.6094
17:50:34:651,4.4713,-10.9852,-2.9268,86.2885,-0.1627,0.0691,1.34,245.5625
17:50:34:651,3.8727,-11.3084,-2.7101,85.5438,-0.3468,0.12,1.914,244.8594
17:50:34:672,4.4402,-11.0367,-1.5956,85.7436,-0.3401,0.1291,2.5251,242.5469
17:50:34:697,6.838,-10.9265,-0.7529,84.9869,-0.0844,0.0982,2.9017,241.75
17:50:34:719,9.6859,-11.239,-1.2832,86.1576,0.2424,0.01,2.9363,239.7031
17:50:34:731,10.8949,-11.7214,-2.7568,85.7585,0.3885,-0.076,2.8106,237.0156
17:50:34:751,10.3215,-11.5466,-3.9611,87.9988,0.2679,-0.1218,2.7568,233.5312
17:50:34:773,8.9293,-10.34,-3.6151,86.2808,0.0724,-0.0401,2.8477,229.8125
17:50:34:795,8.4648,-8.9202,-2.6599,87.2291,-0.0834,0.1525,2.9321,226.3438
17:50:34:813,8.4229,-7.668,-1.7776,73.5876,-0.1625,0.4311,2.9158,222.8906
17:50:34:833,8.405,-6.7319,-1.3646,93.8044,-0.2032,0.7301,2.8032,219.6094
17:50:34:855,7.9944,-5.961,-1.1611,96.7578,-0.2027,0.9877,2.6868,216.5938
17:50:34:878,7.6352,-5.5228,-1.537,91.8164,-0.2192,1.1038,2.5909,214.0781
17:50:34:896,7.579,-5.4486,-2.0697,87.7748,-0.2551,1.0407,2.4809,211.8438
17:50:34:912,7.5119,-5.9454,-2.1846,87.2166,-0.2602,0.7608,2.3401,209.9375
17:50:34:932,7.379,-6.6313,-2.0026,83.9297,-0.2402,0.4031,2.2375,208.2812
17:50:34:952,7.7442,-7.2251,-1.7177,83.5686,-0.1784,0.0721,2.22,206.5469
17:50:34:978,8.3128,-7.5184,-1.6435,83.1723,-0.0666,-0.1599,2.2477,204.6875
17:50:35:003,9.0694,-7.577,-1.7429,81.575,0.0517,-0.2473,2.2647,202.6406
17:50:35:011,10.191,-7.9613,-2.2433,80.3952,0.138,-0.2246,2.2426,200.125
17:50:35:031,10.9967,-8.2426,-2.5928,82.1003,0.1518,-0.1399,2.1483,197.2969
17:50:35:054,11.673,-8.3336,-2.7365,81.0321,0.1089,-0.0113,2.0119,194.3906
17:50:35:078,12.4093,-8.3264,-3.001,80.1413,0.0397,0.1837,1.8548,191.7188
17:50:35:096,13.4795,-8.6437,-3.3326,79.665,-0.0905,0.4169,1.641,189.1719
17:50:35:113,14.6754,-8.9489,-3.1794,78.8002,-0.3025,0.6271,1.3403,187
17:50:35:131,15.244,-8.8963,-2.3306,78.8002,-0.5052,0.8297,0.9158,185.4375
17:50:35:151,14.9459,-8.1505,-1.2329,77.8563,-0.5611,1.066,0.3981,184.375
17:50:35:171,13.6626,-6.4338,-0.6044,78.1651,-0.363,1.319,-0.1559,184.0625
17:50:35:193,12.9863,-5.6138,-1.9931,76.7561,0.073,1.4841,-0.6834,184.5781
17:50:35:212,13.4962,-6.4075,-3.7971,76.8676,0.4567,1.3062,-1.2187,186.0156
17:50:35:232,14.2947,-8.2103,-5.2995,75.892,0.6578,0.6481,-1.8419,188.2656
17:50:35:251,14.187,-10.0646,-5.4635,75.8825,0.6847,-0.4243,-2.5189,190.9531
17:50:35:271,12.9264,-11.0307,-4.0341,77.6211,0.567,-1.5442,-3.137,193.5156
17:50:35:294,12.1459,-11.4437,-2.4192,77.6757,0.4147,-2.2268,-3.5186,196.8906
17:50:35:312,11.7102,-11.4162,-1.173,79.3273,0.277,-2.3951,-3.7373,198.4844
17:50:35:332,11.2708,-11.2964,-0.5817,79.878,0.1824,-2.1261,-3.9067,199.9688
17:50:35:351,10.4364,-11.2557,-0.7253,70.129,0.0985,-1.5455,-4.0838,201.6406
17:50:35:371,9.3016,-11.245,-1.2329,48.8453,-0.0069,-0.8717,-4.2217,202.6562
17:50:35:395,8.3224,-11.166,-1.5573,55.2519,-0.1289,-0.3218,-4.2723,206.875
17:50:35:413,7.3587,-11.0474,-1.5645,62.8734,-0.2232,-0.003,-4.242,210.9375
17:50:35:436,6.5578,-10.7314,-1.3777,67.5039,-0.2594,0.132,-4.1312,215.6875
17:50:35:451,5.8695,-10.3292,-1.1252,70.7953,-0.2352,0.1362,-3.9637,220.5156
17:50:35:473,5.077,-9.8611,-0.93,69.1872,-0.1622,0.0611,-3.7559,225.6406
17:50:35:495,4.2546,-9.3488,-0.8438,69.4259,-0.0716,-0.039,-3.4981,230.5312
17:50:35:511,3.3424,-8.8053,-0.8702,69.4523,0.0091,-0.1437,-3.1791,235.0625
17:50:35:531,2.6565,-8.3037,-0.9276,70.4787,0.0591,-0.227,-2.7932,238.9375
17:50:35:551,2.3512,-8.0607,-1.2856,71.0817,0.0719,-0.2901,-2.358,242.5312
17:50:35:571,2.2674,-8.2139,-1.5705,69.7043,0.0101,-0.3122,-1.9128,245.5938
17:50:35:594,2.0938,-8.4821,-1.592,69.5299,-0.2392,-0.1713,-0.9375,248.0156
17:50:35:612,1.9179,-8.6628,-1.3466,70.0904,-0.3308,-0.031,-0.3697,250.1719
17:50:35:632,2.2842,-9.1333,-1.1348,68.2427,-0.3659,0.1019,0.2069,251.9688
17:50:35:653,2.9198,-9.8479,-1.1754,68.0525,-0.3638,0.2305,0.7565,254.1406
17:50:35:671,3.4717,-10.565,-1.7081,67.2422,-0.4093,0.3062,1.2854,254.3438
17:50:35:694,3.6824,-10.9936,-1.8051,66.9842,-0.4767,0.3275,1.8327,254.3906
17:50:35:712,3.7518,-11.1085,-1.4173,66.8832,-0.4661,0.295,2.4772,254.0156
17:50:35:731,5.8336,-11.0977,-0.9983,65.8786,-0.3092,0.1679,2.9811,253.125
17:50:35:750,8.6767,-11.2055,-0.7601,67.8235,0.0336,-0.0195,3.1667,251.6875
17:50:35:773,10.6986,-11.9369,-1.264,65.3301,0.4378,-0.1604,3.1561,249.5
17:50:35:794,10.9955,-12.2793,-2.1511,65.9848,0.755,-0.2563,3.1369,246.6719
17:50:35:815,10.3431,-11.5718,-2.6132,64.8742,0.9598,-0.3397,3.1723,242.9844
17:50:35:834,9.4237,-10.2681,-2.6503,62.8163,1.0884,-0.3655,3.2367,238.7812
17:50:35:850,8.9042,-9.01,-2.6646,64.024,1.1345,-0.2779,3.2841,234.375
17:50:35:870,8.9892,-8.0104,-2.8562,77.6314,1.0679,-0.0686,3.245,229.4219
17:50:35:894,8.9556,-7.1892,-2.9711,90.0043,0.9175,0.2353,3.1403,224.2344
17:50:35:912,8.5857,-6.6182,-3.0776,84.0588,0.718,0.5221,3.0426,219.0312
17:50:35:931,8.2134,-6.3476,-3.2823,74.6727,0.4778,0.7211,2.9758,214.4062
17:50:35:951,8.0135,-6.3668,-3.2165,70.7295,0.2431,0.7544,2.9257,210.0781
17:50:35:970,8.1033,-6.6469,-2.9938,67.7393,0.0498,0.7,2.8812,204.7188
17:50:35:995,8.3259,-6.9953,-2.5126,66.3785,-0.0605,0.6007,2.8493,201.8594
17:50:36:015,8.8311,-7.2526,-2.0254,64.1798,-0.0676,0.4774,2.8035,199.1094
17:50:36:032,9.3471,-7.2778,-1.75,64.1368,0.0107,0.3637,2.7278,196.4531
17:50:36:056,10.1611,-7.261,-1.8075,65.0934,0.0892,0.3062,2.5936,193.9375
17:50:36:070,11.0422,-7.1341,-2.1547,62.5823,0.1169,0.3245,2.3867,191.1875
17:50:36:091,11.9125,-7.2407,-2.7293,64.1338,0.0479,0.3791,2.1241,188.4531
17:50:36:114,12.6259,-7.5016,-3.0549,61.5229,-0.094,0.5072,1.8303,185.9844
17:50:36:132,13.3262,-7.5447,-2.9914,61.9952,-0.2408,0.699,1.495,183.7188
17:50:36:151,13.914,-7.4274,-3.1327,62.8402,-0.4229,0.9397,1.0974,181.9531
17:50:36:170,14.6227,-7.5052,-3.3745,63.74,-0.6629,1.1975,0.6029,180.75
17:50:36:192,15.1734,-7.692,-2.934,61.1575,-0.8275,1.4574,-0.0006,180.4375
17:50:36:215,15.3996,-8.2187,-2.3953,60.6917,-0.8123,1.6399,-0.6624,180.3594
17:50:36:233,14.3773,-8.5204,-1.835,59.0074,-0.5811,1.6982,-1.2283,181.2031
17:50:36:252,12.6631,-8.1277,-1.9835,59.2669,-0.2309,1.5629,-1.6126,184.2812
17:50:36:271,12.359,-7.8991,-3.1052,60.0068,0.0442,1.0902,-1.9924,187.5469
17:50:36:297,13.92,-9.9341,-4.7823,59.9287,0.1656,0.3163,-2.4691,191.2031
17:50:36:311,13.7081,-11.0127,-4.0616,58.3444,0.1619,-0.5314,-3.0251,194.6719
17:50:36:331,12.936,-11.8184,-3.2285,61.6842,0.1262,-1.1932,-3.5176,197.9688
17:50:36:350,12.3291,-12.2062,-2.2014,65.9983,0.0493,-1.545,-3.8622,200.9062
17:50:36:370,11.7796,-12.1775,-1.2497,69.3415,-0.0333,-1.5674,-4.1048,203.6406
17:50:36:393,10.6364,-12.0901,-0.9121,64.8775,-0.0437,-1.3069,-4.3136,206.2656
17:50:36:411,9.2824,-12.0039,-0.9887,35.4347,-0.0461,-0.8579,-4.431,209.25
17:50:36:431,8.2422,-11.7202,-1.1347,40.0084,-0.0613,-0.3807,-4.4156,214.6719
17:50:36:454,7.6292,-11.3671,-1.2305,55.577,-0.0426,-0.0544,-4.3165,218.8594
17:50:36:478,7.0235,-11.1205,-1.3215,62.3705,0.0136,0.0976,-4.2015,223.6562
17:50:36:498,6.4142,-10.8918,-1.3191,64.8082,0.0921,0.091,-4.0665,228.625
17:50:36:518,5.423,-10.4573,-1.1659,68.1909,0.188,0.0183,-3.8856,231.0625
17:50:36:532,4.4054,-9.8264,-1.1491,67.8873,0.2858,-0.0832,-3.6236,235.5625
17:50:36:550,3.4681,-9.0998,-1.3035,69.1999,0.3534,-0.1775,-3.2688,240
17:50:36:570,2.7008,-8.3264,-1.4532,68.4221,0.3633,-0.239,-2.8491,244.0156
17:50:36:596,2.2818,-7.838,-1.5741,67.7205,0.3031,-0.2603,-2.39,247.3594
17:50:36:612,1.9801,-7.5447,-1.7034,71.285,0.1888,-0.2339,-1.9301,250.375
17:50:36:630,1.6749,-7.6848,-1.6998,70.5916,0.0365,-0.1812,-1.4757,252.8906
17:50:36:651,1.4857,-7.9865,-1.434,70.6081,-0.1238,-0.1066,-0.983,254.9219
17:50:36:703,1.5839,-8.2043,-0.9684,72.0113,-0.2362,-0.0214,-0.424,256.7188
17:50:36:704,2.4997,-8.5539,-0.5745,71.8391,-0.253,0.0542,0.1733,258.1875
17:50:36:717,3.6549,-9.3296,-1.0545,71.0928,-0.1547,0.0734,0.7105,259.25
17:50:36:730,3.9134,-10.3208,-2.2145,71.0663,-0.0437,0.0367,1.1446,259.6719
17:50:36:751,3.9051,-10.8691,-2.6874,68.8869,-0.0991,-0.019,1.5874,259.0625
17:50:36:770,3.9254,-11.0379,-2.2744,69.4374,-0.2844,-0.0515,2.111,257.7969
17:50:36:793,5.7606,-11.0103,-1.2964,69.1068,-0.4202,-0.0539,2.7539,256.1875
17:50:36:813,8.5702,-11.2952,-1.0797,68.4346,-0.3406,-0.0608,3.2964,254.1406
17:50:36:830,10.7369,-11.9955,-1.689,69.1234,-0.0671,-0.108,3.5462,251.5
17:50:36:855,11.4396,-12.3307,-2.6551,68.4295,0.2426,-0.1524,3.5561,248.2969
17:50:36:869,10.8327,-11.7286,-3.335,65.8695,0.4557,-0.2089,3.4988,244.3125
17:50:36:891,10.3203,-10.419,-3.1447,59.3376,0.5454,-0.2787,3.4996,239.8594
17:50:36:913,10.142,-9.0842,-2.7963,87.5376,0.5816,-0.2574,3.5134,235.4375
17:50:36:933,10.1563,-7.9877,-2.8526,99.0105,0.5619,-0.0707,3.4631,230.6406
17:50:36:951,9.8822,-7.176,-2.9064,94.9343,0.44,0.2718,3.3214,225.7812
17:50:36:971,9.2693,-6.6792,-2.9017,81,0.2336,0.6787,3.1419,221.1719
17:50:36:997,8.9413,-6.5511,-2.8729,72.482,-0.2242,1.1712,2.8929,217.3438
17:50:37:013,8.9006,-6.5906,-2.5461,70.3758,-0.3736,1.1222,2.7664,217.3438
17:50:37:030,9.0239,-6.8588,-2.2109,68.9846,-0.4378,0.944,2.6317,212.75
17:50:37:051,9.1855,-7.1569,-1.8889,67.3857,-0.4229,0.7344,2.511,212.75
17:50:37:070,9.3447,-7.2981,-1.5166,66.3789,-0.3329,0.5197,2.4096,209.6094
17:50:37:097,9.5446,-7.1401,-1.2904,68.0256,-0.1923,0.344,2.3081,206.0312
17:50:37:114,9.7433,-6.757,-1.1862,65.6794,-0.0466,0.2798,2.2,204.2656
17:50:37:130,10.1024,-6.4135,-1.4687,65.8515,0.0397,0.3216,2.0681,202.25
17:50:37:149,10.9775,-6.4865,-1.871,66.9213,0.0708,0.3821,1.8559,200.0781
17:50:37:169,11.9125,-6.684,-2.1523,66.876,0.1025,0.4012,1.5547,197.8906
17:50:37:190,12.578,-6.9246,-2.4827,66.156,0.1337,0.3919,1.2032,195.9844
17:50:37:213,12.9671,-7.0623,-2.9196,66.1561,0.1089,0.3885,0.8253,194.25
17:50:37:230,13.355,-7.1928,-3.2153,65.6497,0.0155,0.4787,0.4316,192.8906
17:50:37:250,13.7285,-7.285,-3.3015,64.0191,-0.1055,0.6484,-0.0046,191.9531
17:50:37:270,14.1606,-7.6584,-3.1842,65.1091,-0.1944,0.8204,-0.5098,191.4219
17:50:37:290,13.4495,-7.3185,-2.5138,65.8058,-0.0953,0.9214,-0.991,191.4688
17:50:37:312,12.4284,-6.8229,-2.995,64.5657,0.0469,0.8103,-1.4038,192.25
17:50:37:330,12.6247,-7.2694,-4.0605,66.9476,0.0634,0.3895,-1.8542,194.8125
17:50:37:354,13.5884,-8.8376,-4.8278,66.4932,-0.0591,-0.1951,-2.3716,197.2031
17:50:37:369,14.2301,-10.7937,-4.7225,67.5442,-0.2431,-0.7253,-2.8864,199.6094
17:50:37:390,13.671,-12.1093,-3.3709,69.1451,-0.3529,-0.9911,-3.2536,202.1406
17:50:37:415,13.0341,-12.7114,-2.1295,68.3593,-0.3518,-1.0323,-3.4848,204.7188
17:50:37:434,12.7014,-12.7581,-1.2257,74.0912,-0.2647,-0.9019,-3.6843,207.4688
17:50:37:450,12.3362,-12.4109,-0.7289,78.2419,-0.1222,-0.6811,-3.9147,210.3281
17:50:37:473,11.7054,-12.065,-0.79,76.7694,0.0272,-0.451,-4.1479,213.6562
17:50:37:497,10.713,-11.9297,-1.3646,51.965,0.1129,-0.3173,-4.3179,217.375
17:50:37:512,9.8511,-11.8184,-1.7321,47.3799,0.146,-0.2992,-4.4196,221.2969
17:50:37:531,8.8694,-11.8411,-1.8698,63.1035,0.1491,-0.3524,-4.4353,223.5156
17:50:37:554,7.9142,-11.7573,-1.7082,70.6037,0.1569,-0.4489,-4.3554,228.0781
17:50:37:569,6.9325,-11.476,-1.4843,74.2545,0.1731,-0.525,-4.1831,232.7656
17:50:37:591,5.8479,-10.9313,-1.3466,76.0596,0.1739,-0.5556,-3.9176,237.2344
17:50:37:612,4.8388,-10.2298,-1.3993,76.1265,0.1204,-0.5295,-3.5743,241.7812
17:50:37:630,3.941,-9.3619,-1.2676,78.1234,0.0463,-0.4473,-3.1799,248.2031
17:50:37:650,3.3783,-8.5527,-1.1371,79.8707,-0.0264,-0.3476,-2.7796,251.9375
17:50:37:671,2.8768,-7.8715,-1.0821,80.1211,-0.1087,-0.2555,-2.3772,255.5781
17:50:37:698,1.8029,-7.1221,-0.9983,79.7319,-0.1992,-0.1831,-1.9708,258.9219
17:50:37:719,1.2403,-7.0874,-0.4835,79.6188,-0.2799,-0.1229,-1.5117,261.7812
17:50:37:734,0.9949,-7.03,0.0384,80.2932,-0.2554,-0.0646,-0.9495,264.4844
17:50:37:749,1.5994,-6.5667,0.2096,80.0176,-0.0661,-0.047,-0.2991,266.8125
17:50:37:769,3.3544,-6.2997,-0.6176,80.8809,0.2804,-0.1527,0.3254,268.6406
17:50:37:790,4.8999,-6.5643,-2.1116,80.9192,0.6397,-0.4398,0.7536,269.5469
17:50:37:814,5.2015,-7.0671,-3.3733,81.4767,0.7979,-0.7173,0.9771,269.4062
17:50:37:830,4.6939,-8.3659,-4.2879,80.634,0.7345,-0.8968,1.2061,268.125
17:50:37:850,4.4342,-9.4469,-3.6367,78.4056,0.4695,-0.9335,1.6554,266.2344
17:50:37:869,5.7175,-9.0986,-1.7094,80.5594,0.2157,-0.8113,2.3632,263.9375
17:50:37:890,7.8567,-8.3624,-0.9779,78.7436,0.236,-0.4923,3.0125,261.4844
17:50:37:913,9.9756,-8.2103,-1.4556,80.5977,0.4043,-0.0694,3.364,257.2031
17:50:37:930,11.2253,-8.5443,-2.1571,79.9631,0.4447,0.5528,3.3813,253.3281
17:50:37:950,10.6124,-9.2458,-2.7748,79.288,0.334,1.2428,3.1835,248.8906
17:50:37:970,9.231,-9.6432,-2.5701,78.309,0.1987,1.6439,3.0485,244.7656
17:50:37:991,8.2805,-9.496,-2.3019,79.1064,0.1694,1.6617,3.1214,241.2031
17:50:38:014,8.3092,-8.8771,-2.3019,76.8552,0.2602,1.3986,3.3249,238.2812
17:50:38:033,8.8802,-8.1409,-2.2421,96.9472,0.3478,1.0481,3.4807,236.8906
17:50:38:050,9.31,-7.5902,-2.1666,110.8883,0.4005,0.7997,3.4943,234.0312
17:50:38:070,9.2597,-7.2909,-2.351,106.1721,0.4133,0.695,3.3891,230.5469
17:50:38:097,9.383,-7.261,-2.6515,90.9175,0.3414,0.6716,3.2612,226.7656
17:50:38:115,9.4931,-7.4597,-2.5653,85.3,0.1691,0.6702,3.1068,223.1562
17:50:38:133,9.6057,-7.8907,-2.0517,80.5998,-0.0258,0.655,2.9403,219.5312
17:50:38:150,9.8582,-8.2726,-1.7297,78.6859,-0.122,0.6577,2.8098,216.2188
17:50:38:170,10.3012,-8.3552,-1.8853,78.0914,-0.1164,0.6596,2.7134,213.3125
17:50:38:190,10.6795,-8.2402,-2.1607,78.3771,-0.1065,0.6452,2.6064,210.8281
17:50:38:214,10.7477,-7.6788,-2.011,75.9478,-0.1396,0.6332,2.4759,207.2188
17:50:38:229,11.2553,-7.3089,-2.0086,76.093,-0.1595,0.6545,2.3339,204.9375
17:50:38:250,12.0956,-7.3903,-2.0146,77.8971,-0.1446,0.6814,2.1313,202.9531
17:50:38:269,12.4595,-7.4478,-2.0182,76.6752,-0.0695,0.666,1.8255,201.0469
17:50:38:290,12.6427,-7.7506,-2.6718,75.5157,0.0948,0.5935,1.483,199.4062
17:50:38:312,12.9839,-8.1852,-3.5002,77.8024,0.232,0.4116,1.1544,198.1406
17:50:38:331,13.7392,-8.3755,-3.8976,75.1106,0.2671,0.1528,0.837,197.0625
17:50:38:353,14.6251,-8.5934,-4.0952,76.3749,0.2232,-0.0861,0.4671,196.1094
17:50:38:369,14.8059,-8.4629,-3.651,75.9266,0.0905,-0.2004,-0.0006,195.2812
17:50:38:391,14.0385,-7.5268,-2.8059,76.5867,-0.0711,0.2383,-1.006,194.5781
17:50:38:413,13.0772,-6.5583,-2.8358,77.8964,-0.0908,0.515,-1.4949,194.5781
17:50:38:430,12.9109,-6.8732,-3.602,76.9209,-0.1555,0.4774,-2.0273,194.3281
17:50:38:450,13.0174,-8.2414,-3.8929,77.1805,-0.1758,0.1373,-2.5674,194.8281
17:50:38:468,12.912,-9.6995,-3.7384,77.1047,-0.1289,-0.4118,-3.0598,196.2031
17:50:38:491,12.1327,-10.7589,-3.2368,78.9817,-0.0354,-1.0158,-3.4113,201.4062
17:50:38:512,11.5737,-11.4748,-2.6814,82.3583,0.0112,-1.5383,-3.6563,204.4062
17:50:38:529,11.0027,-11.6616,-1.9536,88.1688,0.0104,-1.8294,-3.839,207.5625
17:50:38:549,10.3179,-11.5335,-1.3347,94.2797,-0.0264,-1.8449,-3.9583,210.4375
17:50:38:569,9.5015,-11.3958,-0.954,77.928,-0.1017,-1.5985,-3.9956,213.125
17:50:38:590,8.5067,-11.13,-0.7337,59.7197,-0.188,-1.1716,-3.9312,215.6562
17:50:38:613,7.5957,-10.8834,-0.7816,70.8002,-0.2716,-0.7146,-3.7879,218.5156
17:50:38:635,6.8463,-10.4944,-0.7385,76.4325,-0.3174,-0.3663,-3.6092,221.7969
17:50:38:649,6.1137,-10.0108,-0.5984,80.4136,-0.3025,-0.1439,-3.4057,225.3594
17:50:38:669,5.3643,-9.4876,-0.5518,80.3251,-0.2471,-0.0374,-3.1674,229.4219
17:50:38:690,4.6628,-8.913,-0.5649,81.3854,-0.1843,-0.0169,-2.8997,233.6719
17:50:38:714,3.9924,-8.2654,-0.5434,81.9642,-0.1302,-0.0424,-2.6068,237.625
17:50:38:769,3.4083,-7.7243,-0.5314,84.9413,-0.0895,-0.0986,-2.2856,241.5469
17:50:38:769,2.8504,-7.2574,-0.5146,83.2393,-0.0706,-0.1716,-1.9359,245.0781
17:50:38:769,2.4207,-7.0862,-0.4787,83.7755,-0.0676,-0.2382,-1.5554,249.4844
17:50:38:789,2.3225,-7.1964,-0.3973,84.1436,-0.0554,-0.2845,-1.1623,251.9688
17:50:38:811,2.1968,-7.674,-0.286,83.6992,-0.009,-0.297,-0.7332,254
17:50:38:829,2.0879,-8.3899,-0.4045,83.609,0.0559,-0.2936,-0.2094,255.5938
17:50:38:849,2.3357,-9.1512,-0.4991,85.4939,0.155,-0.2662,0.3936,256.6094
17:50:38:871,3.5196,-10.1831,-0.541,85.1596,0.3547,-0.2526,0.9936,256.8125
17:50:38:895,5.1117,-10.7362,-0.5961,82.8688,0.6655,-0.26,1.4948,256.8125
17:50:38:913,6.3651,-10.8056,-0.7409,83.7691,1.0384,-0.2297,1.8828,255.6875
17:50:38:934,6.978,-10.5207,-1.7824,84.9186,1.2237,-0.1101,2.1872,253.5
17:50:38:949,6.7973,-9.7869,-3.0681,83.6865,1.0293,0.1666,2.4738,250.3281
17:50:38:970,6.7841,-9.0938,-3.177,85.6712,0.682,0.4633,2.772,246.5625
17:50:39:001,8.0578,-9.1381,-2.5377,85.3155,0.4381,0.6444,2.9403,242.3281
17:50:39:026,9.2477,-9.6971,-1.6232,85.1484,0.4165,0.7091,2.9446,240.3281
17:50:39:029,9.5434,-10.2933,-1.0725,88.4442,0.6069,0.6084,2.9246,236.4844
17:50:39:049,8.9975,-10.5303,-0.9887,91.3053,0.9084,0.3594,2.9968,233.1094
17:50:39:069,8.7497,-10.1484,-1.0833,107.9485,1.2456,0.0438,3.11,227.8906
17:50:39:090,9.0969,-8.4653,-1.9308,122.1484,1.4988,-0.215,3.1704,224.0156
17:50:39:111,9.377,-7.4957,-2.1954,112.5801,1.6139,-0.3247,3.131,219.7656
17:50:39:130,9.4788,-6.5392,-2.3067,100.7018,1.6102,-0.2813,2.992,214.7344
17:50:39:149,9.4309,-5.5647,-2.3139,93.6321,1.5228,-0.1282,2.7694,209.4375
17:50:39:169,9.4129,-5.0081,-2.5569,92.0935,1.4,0.0537,2.486,204.5312
17:50:39:188,9.2441,-4.8345,-2.7927,91.6185,1.2128,0.2289,2.155,199.8281
17:50:39:212,9.0035,-4.9303,-3.0513,91.7388,0.9747,0.4162,1.8245,195.7344
17:50:39:233,9.0598,-5.2774,-3.4559,90.9443,0.6948,0.5999,1.5352,192.3594
17:50:39:252,8.7042,-5.6282,-3.3206,90.4418,0.3854,0.7296,1.2676,189.875
17:50:39:268,8.7497,-6.1717,-3.5409,92.5308,0.1526,0.6992,1.0434,187.9688
17:50:39:289,9.0526,-6.5739,-3.3589,92.5308,-0.0732,0.6436,0.8836,186.75
17:50:39:309,9.5745,-7.0455,-3.3757,91.7241,-0.2421,0.5506,0.7219,186.0312
17:50:39:328,9.9576,-7.6106,-3.5277,89.8425,-0.3681,0.442,0.552,185.5312
17:50:39:348,10.2964,-8.1014,-3.3242,90.4133,-0.5191,0.3392,0.3728,185.25
17:50:39:369,10.7381,-8.5168,-3.0824,90.7802,-0.6621,0.32,0.2023,185.1094
17:50:39:390,11.6611,-8.8735,-3.0393,91.6031,-0.7713,0.3616,0.0228,185.2344
17:50:39:411,12.7169,-9.3476,-3.0704,90.3605,-0.8639,0.405,-0.2451,185.5625
17:50:39:429,12.9432,-10.0371,-3.183,90.7406,-0.9476,0.4231,-0.6475,186.1719
17:50:39:450,12.0705,-10.6057,-2.8669,89.4455,-1.0139,0.4425,-1.076,187.2031
17:50:39:469,10.7166,-10.091,-2.1822,88.5352,-1.0008,0.4974,-1.3548,188.75
17:50:39:489,10.4305,-8.8544,-2.0649,89.9343,-0.8352,0.5448,-1.4507,189.7812
17:50:39:512,11.6766,-8.2809,-2.8047,90.9875,-0.608,0.4534,-1.5618,192
17:50:39:530,12.6212,-9.2757,-3.6068,90.6438,-0.4951,0.153,-1.9008,194.625
17:50:39:549,12.4176,-10.8475,-3.7696,92.8017,-0.5348,-0.308,-2.398,197.2344
17:50:39:569,10.9907,-11.6927,-2.7724,94.9896,-0.6416,-0.7895,-2.8281,199.8125
17:50:39:588,9.2956,-11.4832,-1.6064,99.7997,-0.6711,-1.1772,-3.0435,202.375
17:50:39:611,8.1033,-10.4309,-0.4093,99.7098,-0.6213,-1.3727,-3.0126,205.2344
17:50:39:630,7.8447,-9.2183,0.4107,84.0864,-0.5268,-1.2776,-2.8563,209.4531
17:50:39:654,7.7908,-8.2319,0.7651,71.0745,-0.387,-0.9477,-2.7351,214.7812
17:50:39:670,7.4413,-7.6046,0.5244,76.6286,-0.024,-0.3415,-2.7551,217.4688
17:50:39:692,6.7003,-7.4226,-0.0095,81.7719,0.1084,-0.2369,-2.7706,220.1719
17:50:39:714,5.8934,-7.4645,-0.3997,86.9907,0.2117,-0.2512,-2.7117,223.0781
17:50:39:731,5.2267,-7.443,-0.626,87.3445,0.3049,-0.3455,-2.5865,225.9688
17:50:39:750,4.5874,-7.4106,-0.93,88.1331,0.3478,-0.4747,-2.3974,228.5469
17:50:39:777,4.0439,-7.3017,-1.1886,88.9343,0.3185,-0.5935,-2.1588,230.9219
17:50:39:789,3.6154,-7.1198,-1.1527,87.3355,0.2565,-0.6731,-1.8813,230.9219
17:50:39:814,3.431,-7.0216,-1.0497,91.5596,0.176,-0.6917,-1.5857,232.9688
17:50:39:830,3.3161,-7.188,-0.8929,89.5849,0.1076,-0.6355,-1.2763,234.6719
17:50:39:849,3.0072,-7.595,-0.7948,88.6554,0.0655,-0.5437,-0.9122,236.2031
17:50:39:869,2.6373,-8.1313,-0.7397,89.8507,0.0637,-0.4502,-0.4544,237.5
17:50:39:889,2.7235,-8.7095,-0.6918,88.9677,0.1244,-0.3809,0.0684,238.5781
17:50:39:912,3.364,-9.1632,-0.7948,87.8001,0.2245,-0.3085,0.5739,239.2969
17:50:39:930,4.4043,-9.4421,-0.8917,87.2132,0.3686,-0.2499,1.001,239.4688
17:50:39:949,5.8408,-10,-1.4412,87.3699,0.4804,-0.2126,1.2775,239.2031
17:50:39:968,6.5698,-10.571,-2.0972,88.0082,0.4834,-0.1362,1.4711,237.3906
17:50:39:990,6.091,-11.0115,-2.5078,88.2928,0.3806,-0.0185,1.752,236.4219
17:50:40:011,5.8073,-10.8751,-2.0661,86.302,0.3033,0.1229,2.1291,234.1875
17:50:40:032,6.7829,-10.3064,-1.0569,86.6164,0.4155,0.234,2.424,231.7656
17:50:40:049,8.6935,-10.2095,-0.8031,88.5225,0.706,0.2532,2.4964,229.3594
17:50:40:069,10.0234,-10.6153,-1.5441,87.7587,1.0056,0.2271,2.4109,226.5781
17:50:40:089,10.0893,-10.7578,-2.3953,89.0423,1.1891,0.2292,2.3299,223.4062
17:50:40:112,9.5171,-9.8492,-2.6479,86.3971,1.2799,0.2619,2.2844,220
17:50:40:131,8.8096,-8.4282,-2.5964,86.5676,1.3065,0.299,2.2407,216.1719
17:50:40:152,8.472,-6.9474,-2.3654,93.084,1.2994,0.3232,2.1251,212.2969
17:50:40:169,8.2314,-5.8377,-2.2708,103.0598,1.2719,0.3584,1.9281,208.6562
17:50:40:189,7.7106,-5.2451,-2.2588,104.7023,1.2224,0.4654,1.7297,201.5312
17:50:40:211,6.8846,-4.9554,-2.4312,98.7386,1.1335,0.6516,1.6383,198.4688
17:50:40:235,6.3208,-4.9255,-2.8945,97.4667,0.9824,0.7927,1.6359,197.2344
17:50:40:249,6.2873,-4.8967,-3.1327,95.0599,0.8163,0.7919,1.638,194.8125
17:50:40:269,6.6512,-5.0931,-3.3302,91.447,0.6647,0.6545,1.5858,192.7812
17:50:40:289,7.0139,-5.5516,-3.5218,91.4834,0.5071,0.4185,1.4958,190.9688
17:50:40:311,7.16,-5.9358,-3.4966,91.3524,0.371,0.1727,1.4293,189.3594
17:50:40:328,7.6472,-6.4171,-3.1578,90.8534,0.2874,-0.0677,1.3472,187.7031
17:50:40:349,8.0494,-6.8492,-2.7329,90.8699,0.2437,-0.1833,1.2761,186.0469
17:50:40:369,8.7102,-7.0707,-2.5593,91.1291,0.2253,-0.2025,1.1744,184.3906
17:50:40:389,9.559,-7.6357,-3.0142,89.6975,0.1526,-0.1623,1.0122,182.5938
17:50:40:414,10.1192,-8.4234,-3.2895,90.0977,0.0322,-0.0595,0.8532,180.875
17:50:40:430,10.531,-8.9441,-3.4176,89.1804,-0.0882,0.0702,0.7051,179.4062
17:50:40:450,11.0003,-9.1632,-3.5529,89.3994,-0.2322,0.1762,0.5286,178.1719
17:50:40:469,11.6515,-9.4541,-3.7875,89.642,-0.4272,0.2534,0.2948,177.2969
17:50:40:489,12.3985,-10.7338,-3.2333,87.7475,-0.6408,0.3427,0.0181,176.9844
17:50:40:514,11.5905,-10.3436,-2.0493,88.1103,-0.7476,0.4284,-0.2536,176.6719
17:50:40:531,10.8554,-8.6748,-1.4891,90.1793,-0.6053,0.5299,-0.4464,177.0469
17:50:40:549,11.4624,-7.8931,-2.7975,89.0056,-0.2605,0.4673,-0.6214,177.9062
17:50:40:569,12.3231,-8.427,-4.0952,87.0996,-0.0647,0.1139,-0.9554,179.0938
17:50:40:589,12.3362,-9.654,-4.313,91.0302,-0.1143,-0.4622,-1.4435,180.4531
17:50:40:613,11.6527,-10.4405,-3.2368,90.0963,-0.2615,-1.1519,-1.9072,181.7188
17:50:40:633,10.9632,-10.3842,-1.8961,92.5066,-0.3545,-1.7562,-2.2267,182.8906
17:50:40:648,10.3419,-9.4996,-0.5925,94.4308,-0.3925,-2.1101,-2.4438,184.125
17:50:40:669,9.8511,-8.7945,0.2072,94.0347,-0.4032,-2.1035,-2.6363,185.2188
17:50:40:689,9.1927,-8.2965,0.5209,80.1989,-0.4099,-1.8212,-2.8382,186.1562
17:50:40:715,8.4457,-8.0774,0.3928,63.4921,-0.4138,-1.3413,-3.0204,187.1719
17:50:40:731,7.4185,-8.0966,-0.0538,68.6417,-0.4208,-0.8779,-3.1706,188.625
17:50:40:748,6.468,-8.2462,-0.1914,77.1027,-0.4525,-0.5144,-3.2537,190.7812
17:50:40:768,5.4505,-8.4174,-0.1543,80.6519,-0.4706,-0.2776,-3.2377,193.5312
17:50:40:821,4.5359,-8.4438,-0.2022,81.8993,-0.4168,-0.1991,-3.1098,198.9688
17:50:40:822,4.0679,-8.3839,-0.1759,81.9841,-0.3223,-0.263,-2.8718,202.9844
17:50:40:832,3.8632,-8.2953,-0.1675,82.2622,-0.2096,-0.4124,-2.5684,206.7031
17:50:40:847,3.929,-8.1301,-0.2142,79.8355,-0.0908,-0.5919,-2.2366,210.2031
17:50:40:868,4.4713,-8.1385,-0.6272,79.8622,0.0176,-0.7514,-1.909,213.1562
17:50:40:888,4.9202,-8.6592,-1.1084,79.947,0.0567,-0.8374,-1.6486,215.3906
17:50:40:913,4.7897,-9.314,-1.3167,79.5818,0.0053,-0.8393,-1.4219,217.1719
17:50:40:930,4.5958,-9.7701,-1.5394,78.9575,-0.0759,-0.7282,-1.1348,218.5625
17:50:40:947,4.7167,-9.903,-1.507,77.9694,-0.1774,-0.5636,-0.7687,219.7969
17:50:40:969,5.1728,-10.006,-1.3107,77.5603,-0.282,-0.3628,-0.3923,220.3281
17:50:40:988,5.5008,-10.389,-1.4771,76.9944,-0.3483,-0.1556,-0.0597,221.3281
17:50:41:012,4.8148,-10.4285,-1.2185,75.8241,-0.445,0.0809,0.2263,222.1719
17:50:41:031,4.3851,-9.9042,-0.3626,76.0956,-0.5462,0.3698,0.584,222.7812
17:50:41:048,5.1848,-8.9765,0.5675,76.3491,-0.5191,0.6377,1.0122,223.25
17:50:41:068,6.8284,-8.8651,0.2036,76.046,-0.2413,0.7826,1.3432,223.6562
17:50:41:088,7.5466,-9.7139,-0.9851,76.8494,0.1563,0.7597,1.4548,223.7812
17:50:41:115,7.4042,-10.425,-1.9464,77.0896,0.5044,0.6215,1.4926,222.8594
17:50:41:132,6.8679,-10.1257,-2.1654,76.2942,0.7697,0.4292,1.6117,221.3125
17:50:41:148,6.4728,-9.1237,-2.5114,74.6778,1.0298,0.2364,1.8103,219.1875
17:50:41:168,6.2083,-7.9314,-2.5557,69.5077,1.1763,0.1245,2.0146,216.6562
17:50:41:189,6.0275,-7.0252,-2.2648,64.9722,1.1516,0.2348,2.3092,213.3281
17:50:41:217,6.0993,-6.4721,-2.0362,70.0538,1.0993,0.3666,2.4018,213.3281
17:50:41:231,6.1544,-6.1273,-1.5142,83.7457,1.1396,0.4516,2.4674,209.5625
17:50:41:248,6.4022,-5.9298,-1.1599,87.788,1.3492,0.4111,2.4903,205.8594
17:50:41:267,6.8056,-5.8484,-1.4975,84.4472,1.6362,0.2074,2.4327,202
17:50:41:288,7.172,-5.8257,-2.4216,82.0976,1.8613,-0.068,2.2969,198.2812
17:50:41:312,6.9541,-6.0172,-3.7708,81.6337,1.8661,-0.2997,2.1848,190.8906
17:50:41:329,6.729,-6.4422,-4.9834,78.9542,1.6232,-0.3996,2.1669,186.7188
17:50:41:348,7.0199,-6.9534,-5.5497,79.1835,1.2512,-0.4057,2.2058,178.2812
17:50:41:375,7.798,-7.358,-5.0852,77.3305,0.9641,-0.411,2.2034,176.2031
17:50:41:388,8.9556,-7.9553,-4.3813,77.3305,0.8461,-0.4395,2.1211,170.3906
17:50:41:409,9.8068,-8.5335,-3.9755,78.2404,0.8261,-0.4057,2.0005,168.5781
17:50:41:433,10.7453,-8.8651,-4.2077,77.4388,0.7681,-0.2837,1.8327,167
17:50:41:448,11.7185,-8.9214,-4.7249,75.1922,0.6013,-0.0821,1.5885,163.625
17:50:41:469,12.669,-8.9274,-5.2935,74.4984,0.2842,0.1693,1.2468,160.4844
17:50:41:488,13.4244,-8.9884,-5.5329,75.6141,-0.1257,0.4271,0.8151,157.6875
17:50:41:518,13.9356,-9.3272,-5.3964,72.8096,-0.5489,0.6407,0.3211,155.6094
17:50:41:530,13.9308,-9.921,-4.7715,72.4849,-0.8762,0.7784,-0.1686,154.2344
17:50:41:564,13.3215,-10.3771,-3.669,75.6097,-0.9888,0.8918,-0.5695,153.7969
17:50:41:567,12.2465,-9.5798,-2.5054,73.9192,-0.8549,0.916,-0.8715,154.2656
17:50:41:589,12.1507,-8.597,-2.679,74.9765,-0.685,0.6907,-1.2278,155.6406
17:50:41:607,13.1862,-8.5204,-3.6391,74.7007,-0.6903,0.189,-1.7769,157.6406
17:50:41:628,13.8446,-9.5654,-3.8713,72.6194,-0.7963,-0.4571,-2.4425,162.3281
17:50:41:652,13.0916,-10.7661,-3.0333,74.4988,-0.8605,-1.0204,-2.9908,163.5938
17:50:41:671,11.6718,-11.3599,-1.8985,77.3847,-0.8597,-1.3916,-3.3256,166.2656
17:50:41:688,10.3072,-11.2737,-0.8139,79.891,-0.82,-1.5421,-3.4771,168.9844
17:50:41:708,9.377,-10.905,0.0085,78.6664,-0.7555,-1.4414,-3.529,171.9531
17:50:41:731,8.5486,-10.2729,0.5628,65.4482,-0.6725,-1.1698,-3.5293,175
17:50:41:749,7.7178,-9.6839,0.8369,58.2292,-0.5585,-0.8374,-3.5037,178.2031
17:50:41:776,6.9134,-9.1991,0.8668,63.6215,-0.4179,-0.5554,-3.4446,181.4844
17:50:41:786,6.1029,-8.8041,0.6118,72.1585,-0.2759,-0.369,-3.3437,185.25
17:50:41:809,5.4613,-8.4629,0.3006,74.1674,-0.1569,-0.2899,-3.2086,189.1875
17:50:41:830,4.7742,-8.3181,0.0181,74.027,-0.0626,-0.2803,-3.0217,192.9531
17:50:41:850,3.9817,-8.1828,-0.1783,75.8623,0.0096,-0.3266,-2.7469,196.75
17:50:41:872,3.4011,-7.9865,-0.3279,74.0253,0.0636,-0.4108,-2.4054,200.2656
17:50:41:889,2.9713,-7.4394,-0.6248,74.4994,0.085,-0.5101,-2.0435,203.3125
17:50:41:910,3.0575,-7.3759,-0.6858,75.7189,0.074,-0.6009,-1.6904,206.0312
17:50:41:934,3.2203,-7.6453,-0.796,75.4347,0.0336,-0.6502,-1.3535,208.2812
17:50:41:951,3.4394,-8.2295,-0.8786,75.7051,-0.0354,-0.6297,-1.0243,210.0781
17:50:41:967,3.6441,-8.8915,-0.7636,74.8305,-0.1055,-0.5535,-0.6608,211.4531
17:50:41:988,3.9158,-9.1297,-0.3315,75.3958,-0.1385,-0.4081,-0.2446,212.6094
17:50:42:013,4.7682,-9.3811,-0.1567,73.6158,-0.0674,-0.2273,0.1944,213.5312
17:50:42:031,5.6839,-9.6923,-0.6774,75.1844,0.1169,-0.0829,0.5699,214.0938
17:50:42:048,5.7043,-10.0119,-1.695,74.3237,0.2946,0.0257,0.8292,214.2188
17:50:42:068,5.0507,-9.7055,-2.0038,74.7045,0.3388,0.112,1.0652,213.7031
17:50:42:089,5.32,-9.3176,-1.8003,73.9723,0.3172,0.2087,1.396,212.6094
17:50:42:113,6.5028,-9.7977,-2.114,75.1284,0.3795,0.2425,1.7286,211.0469
17:50:42:131,7.652,-11.0283,-2.5832,74.0537,0.4855,0.2231,1.9781,209.1875
17:50:42:155,8.4935,-11.8782,-2.7508,74.5333,0.6032,0.1703,2.1771,207
17:50:42:167,9.0478,-11.4449,-2.7221,75.5512,0.7816,0.0846,2.3728,204.4375
17:50:42:188,9.3363,-9.9605,-2.831,72.0027,1.0117,0.0023,2.5166,201.375
17:50:42:215,9.1579,-8.2738,-3.1159,66.2174,1.1806,0.0305,2.5379,197.8594
17:50:42:235,8.794,-6.7858,-3.4954,61.7438,1.212,0.201,2.4612,194.0312
17:50:42:255,8.229,-5.5803,-3.7983,63.3022,1.0842,0.4691,2.3182,187.4375
17:50:42:266,7.5754,-4.7351,-3.8402,84.3133,0.8189,0.7831,2.1595,183.2656
17:50:42:289,7.0163,-4.194,-3.6618,90.1151,0.4959,1.0827,2.0184,179.8906
17:50:42:307,6.8643,-4.1605,-3.5804,85.9598,0.1982,1.2742,1.9052,177.1719
17:50:42:333,6.6716,-4.5137,-3.3757,81.2964,-0.0642,1.3038,1.7821,175.2969
17:50:42:348,6.4776,-5.2882,-3.0058,80.3673,-0.2802,1.1887,1.6753,174.0625
17:50:42:368,6.2801,-6.1549,-2.2911,77.8861,-0.4189,0.9677,1.6277,173.3281
17:50:42:388,6.3711,-6.9091,-1.6974,76.7172,-0.42,0.6849,1.6703,172.7812
17:50:42:414,6.9218,-7.3604,-1.2664,75.3488,-0.2631,0.3461,1.7795,172.2031
17:50:42:431,7.9704,-7.8248,-1.2784,75.8855,0.0397,-0.0608,1.8897,171.3438
17:50:42:447,9.2346,-8.2343,-1.7177,73.9552,0.3819,-0.4595,1.9387,170.7031
17:50:42:468,10.4364,-8.8113,-2.3402,74.0147,0.6863,-0.7746,1.8977,168.8281
17:50:42:488,11.3618,-9.1728,-3.0417,75.1298,0.9159,-0.9908,1.7827,166.2031
17:50:42:512,12.0322,-8.7933,-3.4451,74.2695,1.0509,-1.0774,1.6202,163.0938
17:50:42:533,12.8701,-8.0738,-4.1107,73.9829,1.0671,-0.9551,1.4088,159.4375
17:50:42:547,14.2624,-7.9733,-4.9966,74.6484,0.8946,-0.6196,1.0921,153.875
17:50:42:567,15.3888,-8.7777,-5.3785,76.2216,0.4991,-0.1663,0.5853,150.7812
17:50:42:588,14.7496,-9.7043,-5.1331,75.2827,-0.2961,0.6508,-0.6307,148.375
17:50:42:614,12.8378,-9.5726,-4.817,78.1124,-0.4831,0.7954,-0.9628,148.375
17:50:42:631,11.7126,-8.7346,-4.6219,75.8215,-0.5691,0.4739,-1.2233,147.6562
17:50:42:647,12.2979,-8.9214,-4.5261,75.7617,-0.6096,-0.2931,-1.6153,149.25
17:50:42:671,12.8163,-9.9138,-3.5601,76.075,-0.5537,-1.2004,-2.0888,151.4844
17:50:42:690,12.1806,-10.6919,-2.2504,75.5927,-0.4088,-1.9096,-2.4363,153.6094
17:50:42:707,11.0039,-10.565,-0.9372,79.5991,-0.2152,-2.3096,-2.606,155.4844
17:50:42:727,10.0749,-9.7306,0.0684,80.94,0.0011,-2.4108,-2.6939,156.9062
17:50:42:751,9.5051,-8.6461,0.4263,83.8052,0.1729,-2.2763,-2.8022,157.9062
17:50:42:767,9.0263,-7.923,0.2324,82.4527,0.2352,-2.0286,-2.9567,158.4688
17:50:42:787,8.3092,-7.5124,-0.2549,69.6259,0.1787,-1.6193,-3.0648,159.5469
17:50:42:809,7.6903,-7.3927,-1.0473,60.8455,0.0005,-1.2632,-3.1391,160.5
17:50:42:832,7.0774,-7.4921,-1.4484,66.8784,-0.2221,-0.9977,-3.1756,162.1562
17:50:42:888,6.4693,-7.7818,-1.4125,70.7139,-0.4083,-0.8342,-3.1375,163.2344
17:50:42:889,5.7701,-8.0774,-1.1276,72.7487,-0.5241,-0.7666,-3.0087,165.9219
17:50:42:889,5.0782,-8.2211,-0.7589,73.8719,-0.5688,-0.7711,-2.7903,168.9688
17:50:42:910,4.4593,-8.172,-0.4464,74.849,-0.5707,-0.7929,-2.4883,172.4844
17:50:42:929,4.0906,-8.0583,-0.2537,76.0751,-0.5659,-0.8137,-2.1327,176
17:50:42:948,4.0643,-7.8608,-0.2082,75.9766,-0.579,-0.8329,-1.7828,177.6875
17:50:42:967,4.4617,-7.9494,-0.207,76.3942,-0.6181,-0.7847,-1.4744,180.7031
17:50:42:987,4.6916,-8.4473,-0.2094,76.0873,-0.6706,-0.6241,-1.1556,183.5469
17:50:43:007,4.6964,-8.6413,0.2084,76.1595,-0.6248,-0.3493,-0.7727,186.0625
17:50:43:031,5.326,-8.8292,0.4406,75.5165,-0.4184,0.0974,-0.379,188.2656
17:50:43:055,5.3763,-8.9393,0.2599,77.4995,-0.0977,0.5094,0.0519,190.4375
17:50:43:067,6.6297,-9.0351,-1.1096,76.2824,0.1185,0.6582,0.3525,192.2656
17:50:43:086,7.9585,-9.4278,-2.4384,78.4832,0.0929,0.6644,0.4226,193.5
17:50:43:107,8.4852,-9.8408,-3.0728,77.248,-0.0663,0.5749,0.385,193.6406
17:50:43:130,7.3922,-9.7019,-2.3438,78.2069,-0.1742,0.4747,0.4322,193.2344
17:50:43:147,5.8324,-8.8376,-0.2597,78.7313,0.0421,0.4015,0.6703,193
17:50:43:167,6.0515,-8.4593,1.0057,78.7904,0.5654,0.2963,0.9012,193.0312
17:50:43:187,7.0606,-9.0543,0.6645,80.0473,1.1364,0.1493,1.0106,192.7969
17:50:43:206,7.2749,-9.6852,-0.6104,79.0572,1.5332,-0.0235,1.0841,191.5781
17:50:43:233,6.6368,-9.4409,-1.5034,78.3036,1.726,-0.1514,1.2277,189.2969
17:50:43:249,5.9521,-8.4653,-1.6567,78.6102,1.8134,-0.194,1.4213,185.9375
17:50:43:267,5.6241,-7.3269,-1.3191,76.9232,1.8922,-0.1748,1.6,181.9844
17:50:43:287,6.0431,-5.6581,-1.0462,74.221,2.0163,-0.1064,1.6777,177.875
17:50:43:309,5.9808,-5.3492,-1.4125,68.3961,2.138,0.0207,1.6538,173.2656
17:50:43:331,5.6133,-5.3504,-1.9691,67.369,2.2112,0.2135,1.6048,168.4688
17:50:43:347,5.4386,-5.4199,-2.7808,79.6089,2.2203,0.409,1.6104,163.6406
17:50:43:367,5.5942,-5.5719,-3.7432,90.2263,2.1393,0.5032,1.6628,159.2344
17:50:43:386,5.7127,-5.7467,-4.4459,93.4408,1.9545,0.4593,1.7014,154.9219
17:50:43:410,5.8168,-6.095,-4.7488,91.503,1.6775,0.3051,1.7225,150.9062
17:50:43:431,6.1329,-6.8085,-4.7548,88.3591,1.3686,0.095,1.747,147.3438
17:50:43:445,8.5043,-6.9306,-6.3349,86.4028,1.0544,-0.1391,1.7805,143.8438
17:50:43:468,6.5267,-8.7502,-2.7436,86.4028,0.6879,-0.4355,1.6378,140.5781
17:50:43:487,7.64,-9.9425,-4.4519,87.7169,0.9233,-0.4712,1.9089,136.0312
17:50:43:507,7.4641,-10.5495,-5.2827,83.8123,0.9231,-0.7375,2.0455,134.6094
17:50:43:531,9.0478,-10.48,-5.8848,84.2869,0.8764,-0.8097,2.3132,131.5156
17:50:43:550,10.7573,-9.9066,-5.7065,83.077,0.7031,-0.8955,2.3811,127.9375
17:50:43:567,11.7784,-9.8623,-6.001,80.5881,0.5713,-0.851,2.1337,124.1406
17:50:43:586,11.8011,-10.6081,-5.6921,81.4467,0.2757,-0.5751,1.7099,119.9844
17:50:43:607,11.1691,-11.391,-4.9296,80.3708,-0.1031,-0.0262,1.3158,115.9688
17:50:43:630,10.6711,-11.3778,-4.1059,80.1192,-0.3968,0.6241,1.0804,112.8594
17:50:43:647,10.7214,-10.2837,-3.8474,80.7905,-0.4666,1.0934,0.9446,110.7188
17:50:43:666,11.9256,-8.901,-4.7536,82.1285,-0.3888,1.2316,0.7818,109.8594
17:50:43:687,13.9811,-8.6113,-6.1614,81.634,-0.4107,0.9512,0.3994,109.9531
17:50:43:708,15.0106,-9.514,-6.1171,82.32,-0.7116,0.2723,-0.3234,110.9375
17:50:43:731,14.2552,-10.6213,-4.6542,82.7052,-1.1151,-0.5639,-1.2155,111.7656
17:50:43:749,13.1323,-11.0355,-2.6575,82.6666,-1.4392,-1.2039,-1.9615,112.7344
17:50:43:766,12.2381,-11.0115,-0.8977,84.4258,-1.6669,-1.4846,-2.5109,114
17:50:43:790,11.4408,-10.7841,0.3533,81.3231,-1.7593,-1.4411,-2.9338,115.5781
17:50:43:814,10.3981,-10.5542,0.7375,74.3578,-1.7327,-1.1266,-3.2827,117.6562
17:50:43:832,9.116,-10.2143,1.0284,68.5424,-1.6618,-0.6233,-3.5655,120.3438
17:50:43:848,7.907,-9.7318,1.038,68.588,-1.535,-0.0912,-3.7429,124.1094
17:50:43:866,7.0151,-9.4134,0.8704,73.3316,-1.342,0.3418,-3.8233,128.9688
17:50:43:886,6.1209,-9.2219,0.8297,80.7633,-1.114,0.5879,-3.8425,134.4844
17:50:43:907,5.1728,-9.0435,0.8357,81.31,-0.8312,0.6367,-3.7914,140.8438
17:50:43:932,4.36,-8.7658,0.4395,80.742,-0.4962,0.5584,-3.6366,147.2812
17:50:43:948,3.6764,-8.3073,-0.1148,81.7537,-0.2133,0.4066,-3.3993,153.0469
17:50:43:967,3.2934,-7.9673,-0.6104,81.2822,-0.0306,0.198,-3.1082,158.375
17:50:43:989,3.0671,-7.7997,-0.7744,81.179,0.0783,-0.3061,-2.4566,160.7344
17:50:44:015,3.0659,-7.8416,-0.8618,81.8623,0.0719,-0.5082,-2.1242,164.8281
17:50:44:032,3.03,-8.1373,-1.0928,78.7708,0.0053,-0.6225,-1.766,164.8281
17:50:44:050,2.8815,-8.6736,-1.2341,79.7286,-0.0828,-0.6465,-1.3335,169.5312
17:50:44:066,2.8755,-9.3763,-1.191,79.4414,-0.1396,-0.602,-0.8318,174.2344
17:50:44:086,2.8121,-9.8611,-0.5123,80.6607,-0.0296,-0.4694,-0.2693,174.2344
17:50:44:107,3.0898,-10.2909,0.1809,77.0454,0.3353,-0.3583,0.3171,177.4375
17:50:44:131,3.8237,-11.0989,-0.5051,79.3044,0.7302,-0.3021,0.834,178.7344
17:50:44:150,4.1756,-11.8782,-1.8614,78.3493,0.9164,-0.2784,1.3254,178.7344
17:50:44:170,3.783,-11.8555,-2.1403,78.013,0.9854,-0.1748,1.899,177.7188
17:50:44:186,4.1936,-10.7721,-0.9815,79.3694,1.2485,-0.051,2.4908,175.4375
17:50:44:207,6.5099,-10.3663,-0.3399,77.0781,1.7279,-0.0347,2.8026,168.4688
17:50:44:232,8.9209,-10.7685,-1.0138,77.5078,2.2155,-0.0925,2.7704,168.4688
17:50:44:252,10.0246,-11.7621,-2.7975,76.8875,2.4389,-0.1775,2.5768,163.4844
17:50:44:271,9.1124,-12.0566,-4.2963,74.8802,2.3356,-0.2507,2.4919,157.4219
17:50:44:285,7.5239,-11.2581,-4.556,75.1455,2.077,-0.2172,2.6498,147.6094
17:50:44:306,6.966,-9.8791,-4.0784,68.36,1.7795,-0.059,2.8732,141.0312
17:50:44:332,7.3683,-8.4186,-3.2704,54.7963,1.5332,0.1834,2.9981,134.8438
17:50:44:348,8.3595,-7.0671,-2.7532,51.2661,1.2943,0.5293,2.9081,129.3281
17:50:44:366,9.0287,-5.8867,-2.6467,67.6519,1.0123,0.9387,2.6242,124.0156
17:50:44:387,9.0765,-4.9985,-2.5354,75.4208,0.7049,1.2724,2.2463,117.4844
17:50:44:406,8.6635,-4.4766,-2.3486,75.9286,0.4538,1.4167,1.8791,117.4844
17:50:44:429,8.2805,-4.3868,-2.3546,77.7685,0.2602,1.3786,1.54,113.6719
17:50:44:450,7.9441,-4.8405,-2.2624,77.3249,0.1129,1.356,1.2628,112.3594
17:50:44:466,7.3312,-5.6042,-2.205,76.8876,0.0104,1.4311,1.1281,111.7188
17:50:44:486,6.8044,-6.1693,-2.3833,76.0227,-0.0866,1.4684,1.1254,111.5156
17:50:44:508,6.8547,-6.6074,-2.8969,76.5544,-0.2503,1.4055,1.1677,111.7031
17:50:44:530,7.5706,-7.1976,-2.995,77.802,-0.4346,1.2327,1.1491,112.0625
17:50:44:548,8.2003,-8.0128,-2.4887,76.7576,-0.5188,1.0167,1.1054,112.4375
17:50:44:569,8.7725,-9.0627,-2.0876,76.5055,-0.5095,0.8068,1.0817,112.8125
17:50:44:586,9.1615,-9.8743,-1.5693,77.188,-0.4109,0.6028,1.0788,113.0938
17:50:44:606,9.8559,-10.1568,-1.1958,76.0713,-0.2485,0.3826,1.0269,113.1562
17:50:44:630,10.774,-10.328,-1.3706,77.2489,-0.1073,0.1272,0.8735,113.0156
17:50:44:647,11.9089,-10.8463,-2.102,74.2922,-0.0876,-0.1053,0.625,112.5312
17:50:44:669,12.3901,-11.1324,-2.0805,76.3111,-0.0866,-0.1873,0.3627,111.8125
17:50:44:686,12.1399,-10.2861,-1.2042,74.9443,0.1076,-0.0741,0.1419,111.0469
17:50:44:707,12.7097,-7.8751,-2.5916,75.586,0.3971,0.0244,-0.1394,110.3125
17:50:44:729,13.8446,-8.0726,-4.1383,76.9135,0.518,-0.1003,-0.5854,109.875
17:50:44:747,14.0708,-9.2949,-4.896,74.6979,0.4051,-0.5114,-1.2584,109.75
17:50:44:766,12.7169,-10.1879,-4.4148,75.4302,0.1518,-1.1059,-1.9783,109.8594
17:50:44:785,11.9077,-10.5111,-3.3613,76.318,-0.1406,-1.6111,-2.4856,110.3594
17:50:44:805,11.697,-10.3854,-2.1858,76.0832,-0.4104,-1.9394,-2.8307,111.0938
17:50:44:832,11.6335,-10.2418,-1.3263,75.1622,-0.6264,-2.0454,-3.1562,112.125
17:50:44:851,11.0697,-10.2418,-0.7205,63.622,-0.7779,-1.9823,-3.5242,113.2969
17:50:44:865,10.0749,-10.4297,-0.3063,34.0757,-0.8951,-1.802,-3.8838,114.8125
17:50:44:885,8.7868,-10.5566,-0.0825,53.3557,-0.9798,-1.5338,-4.1506,116.7812
17:50:44:948,7.4569,-10.5973,0.1354,67.9193,-1.032,-1.1919,-4.2742,119.6562
17:50:44:948,6.1376,-10.3675,0.3497,72.9769,-1.0365,-0.8116,-4.2462,123.3906
17:50:44:949,5.0507,-9.9497,0.4155,73.8065,-0.9622,-0.451,-4.0814,127.7188
17:50:44:967,4.1804,-9.4146,0.285,74.6061,-0.8237,-0.1815,-3.823,132.9219
17:50:44:986,3.3987,-8.7766,0.1545,74.9136,-0.6687,-0.0092,-3.5016,138.5312
17:50:45:009,2.8552,-8.2115,-0.0561,74.8491,-0.4986,0.0414,-3.1338,144.125
17:50:45:029,2.3021,-8.0439,-0.3674,75.0444,-0.3262,-0.0321,-2.7362,149.125
17:50:45:049,2.1274,-8.2941,-0.8486,76.6121,-0.1625,-0.2507,-2.2715,156
17:50:45:066,1.9825,-8.7849,-0.7373,75.944,-0.0461,-0.5985,-1.7341,159.6406
17:50:45:085,1.8867,-9.3703,-0.608,74.3082,0.1276,-1.0531,-1.0989,162.2812
17:50:45:105,3.6273,-9.5798,-0.7385,75.277,0.4397,-1.5788,-0.3527,164.2031
17:50:45:130,5.812,-9.0938,-0.8295,73.6992,0.7521,-1.9666,0.238,165
17:50:45:151,7.3683,-8.8568,-1.2185,73.8097,1.0373,-2.104,0.5155,164.3125
17:50:45:167,7.6843,-9.0303,-1.9428,72.5025,1.2067,-1.9562,0.5331,162.1875
17:50:45:191,6.4597,-9.3978,-2.6826,71.0544,1.1689,-1.4848,0.4841,159.0312
17:50:45:206,5.0363,-9.5762,-2.6694,71.1266,0.9044,-0.7719,0.6055,157.2188
17:50:45:227,5.1812,-9.5104,-1.7704,71.4335,0.5846,0.0356,0.9784,153.6875
17:50:45:250,6.4345,-10.3232,-1.61,72.915,0.4655,0.7243,1.4061,150.4219
17:50:45:272,7.4509,-11.0103,-2.017,72.4237,0.551,1.1704,1.7046,147.8281
17:50:45:286,7.7442,-11.0439,-2.5677,70.4542,0.685,1.429,1.8732,145.7969
17:50:45:306,7.5335,-10.2107,-3.1938,72.5679,0.787,1.5611,1.993,142.4375
17:50:45:331,7.0858,-8.828,-3.3183,72.3938,0.7723,1.5885,2.0735,139.9844
17:50:45:346,6.6728,-7.449,-3.1471,69.9117,0.6751,1.5307,2.1217,137.5781
17:50:45:365,6.2969,-6.4925,-2.7005,62.7,0.5356,1.4513,2.1235,135.1406
17:50:45:387,5.9641,-5.8425,-2.2959,47.5689,0.3941,1.4167,2.0972,132.8906
17:50:45:406,5.5666,-5.4953,-2.0864,45.8366,0.2839,1.4321,2.0596,130.9844
17:50:45:429,5.1297,-5.4941,-2.0242,62.6391,0.1052,1.5067,2.062,129.2656
17:50:45:450,4.7119,-5.6114,-2.1236,73.1111,0.0011,1.4905,2.1315,126.5781
17:50:45:468,4.3731,-5.9681,-2.2444,76.8055,-0.1097,1.3933,2.2631,125.5781
17:50:45:492,4.2857,-6.775,-2.1271,78.5571,-0.1688,1.2042,2.4663,125.5781
17:50:45:505,4.6197,-7.7997,-1.7273,78.1552,-0.1023,0.9179,2.7294,124.5469
17:50:45:525,5.757,-8.6544,-1.2293,78.6472,0.1276,0.5568,2.9499,123.4531
17:50:45:556,7.4485,-9.1584,-1.0892,78.4232,0.4794,0.177,3.0224,122.0781
17:50:45:565,9.1807,-9.6612,-1.9751,78.4232,0.8131,-0.2028,2.9286,120.0156
17:50:45:585,11.2888,-9.5116,-3.815,75.1246,0.9899,-0.5927,2.5941,117.125
17:50:45:609,12.0513,-9.2769,-6.3206,74.4712,0.8192,-0.8949,2.127,109.4688
17:50:45:634,11.3714,-10.1616,-7.8852,73.8207,0.1808,-0.7964,1.8884,109.4688
17:50:45:652,10.9608,-10.9589,-7.04,73.7296,-0.5326,-0.2962,1.9105,105.1406
17:50:45:667,12.3721,-11.8112,-4.8254,73.8108,-0.9569,0.3075,1.8756,101.125
17:50:45:685,14.0505,-11.5562,-2.4324,72.769,-0.8629,0.7778,1.6402,98.0469
17:50:45:705,15.402,-10.8092,-1.6028,73.263,-0.4597,0.9898,1.1842,95.75
17:50:45:725,15.1806,-8.6664,-1.3478,74.4825,0.0882,1.0079,0.6114,94.1406
17:50:45:751,15.2153,-6.9234,-2.685,74.3235,0.5422,0.7083,-0.0776,94
17:50:45:768,15.8042,-6.4123,-4.5333,76.1552,0.6975,0.0694,-0.9516,94.4375
17:50:45:788,16.2053,-7.2861,-5.6777,77.1436,0.6109,-0.7106,-1.9375,95.1875
17:50:45:805,15.2165,-8.8819,-5.7113,79.3712,0.3867,-1.3072,-2.7666,96.0312
17:50:45:825,13.6554,-10.3591,-5.2959,78.6862,0.0458,-1.6076,-3.3032,96.9844
17:50:45:846,12.183,-11.166,-4.4268,79.7639,-0.3513,-1.537,-3.5882,98.1562
17:50:45:866,11.4193,-11.3407,-3.2919,80.6018,-0.7073,-1.2353,-3.7746,99.6094
17:50:45:887,10.7501,-11.2725,-2.3067,80.9617,-0.9486,-0.8995,-3.9573,101.6719
17:50:45:905,9.7756,-11.1264,-1.5597,76.4315,-1.0695,-0.6097,-4.1125,104.5469
17:50:45:933,8.5187,-10.9349,-0.9324,71.7396,-1.0836,-0.362,-4.1756,106.3438
17:50:45:949,7.3515,-10.6871,-0.5553,71.896,-1.02,-0.19,-4.1365,110.3906
17:50:45:967,6.4381,-10.3436,-0.4572,81.8311,-0.9225,-0.1024,-4.0236,115.4219
17:50:45:985,5.8982,-10.0119,-0.6511,81.182,-0.8541,-0.0574,-3.8848,120.9844
17:50:46:007,5.4709,-9.8324,-0.8259,83.1418,-0.8242,-0.0472,-3.7375,126.7344
17:50:46:030,4.9453,-9.6959,-0.845,83.4848,-0.7968,-0.0656,-3.5461,132.1406
17:50:46:047,4.3695,-9.6133,-0.7971,84.3813,-0.7726,-0.1024,-3.296,140.4531
17:50:46:066,3.7339,-9.5116,-0.5589,83.8278,-0.7287,-0.1452,-2.9772,145.5312
17:50:46:085,3.2311,-9.2662,-0.183,83.545,-0.6205,-0.2057,-2.6166,150.6094
17:50:46:107,2.5679,-9.1476,-0.1627,83.2311,-0.4756,-0.2819,-2.2384,155.375
17:50:46:132,2.0807,-9.3284,-0.3051,84.2801,-0.3406,-0.3612,-1.8345,159.6094
17:50:46:149,1.4582,-9.5116,-0.3015,81.8184,-0.2408,-0.3945,-1.3495,163.0312
17:50:46:165,1.1409,-9.5511,-0.1902,82.826,-0.1561,-0.3503,-0.7338,165.9844
17:50:46:190,1.5767,-9.7151,-0.6104,82.3138,-0.0453,-0.2443,-0.0059,168.2812
17:50:46:205,2.514,-9.8695,-1.3095,82.691,0.0165,-0.1122,0.72,169.7344
17:50:46:225,3.3927,-10.0108,-1.4819,82.4605,-0.0392,0.0228,1.3592,170.3281
17:50:46:251,4.324,-10.2095,-1.2425,80.5813,-0.1342,0.1584,1.9153,169.9062
17:50:46:268,6.2825,-10.9768,-1.2341,81.2781,-0.1563,0.2356,2.4226,168.6719
17:50:46:286,8.2589,-12.1512,-1.0952,84.2209,-0.0807,0.1935,2.7848,167.0469
17:50:46:308,9.3279,-12.9269,-1.0773,81.5438,0.1167,0.1125,2.9787,164.8594
17:50:46:331,9.4728,-12.8347,-1.4388,84.0198,0.4128,0.0297,3.1174,160.7031
17:50:46:348,9.3028,-11.9285,-1.4903,82.5105,0.6751,-0.0246,3.2634,157.1719
17:50:46:371,9.1005,-10.4058,-1.2724,79.5849,0.8695,0.0327,3.4051,152.9219
17:50:46:387,9.2118,-9.0184,-1.2628,71.197,1.04,0.2095,3.4964,148.1094
17:50:46:404,9.5602,-7.8117,-1.2042,56.5012,1.1878,0.4079,3.4714,145.7969
17:50:46:425,10.2018,-6.6756,-1.2497,66.3094,1.3686,0.5972,3.2919,140.5
17:50:46:447,10.1815,-5.5468,-3.0561,81.3794,1.6626,0.7941,2.9374,135.1562
17:50:46:466,8.5666,-4.6872,-6.3074,85.2725,1.8245,0.9427,2.4815,130.0625
17:50:46:485,6.5147,-4.3185,-9.4546,85.268,1.3931,1.0958,2.1534,123.4062
17:50:46:508,5.0172,-4.8489,-10.6421,85.8776,0.2514,1.3126,2.0823,119.5938
17:50:46:531,5.3476,-6.21,-8.1773,86.8308,-1.3489,1.6252,2.2751,116.9375
17:50:46:549,6.7015,-8.3264,-4.5872,89.152,-2.6776,1.924,2.5315,115.7812
17:50:46:567,7.9644,-9.9928,-0.5039,89.977,-3.3463,2.0031,2.702,116.0781
17:50:46:585,9.4273,-10.6033,1.7778,89.5389,-3.2041,1.7885,2.8479,117.5469
17:50:46:605,11.1056,-10.4393,2.3979,92.1801,-2.4688,1.259,2.9558,119.4219
17:50:46:625,13.1455,-9.7498,1.3576,91.9451,-1.4674,0.5895,2.9832,120.9062
17:50:46:648,15.1817,-8.2785,0.3054,90.3017,-0.551,-0.1056,2.8013,121.0625
17:50:46:673,16.2388,-6.9869,-0.7349,89.1436,0.1942,-0.676,2.2879,119.625
17:50:46:684,17.2563,-6.7175,-2.0721,89.4908,0.7145,-0.9418,1.5368,116.625
17:50:46:706,17.7986,-7.4238,-3.0226,87.9155,0.8764,-0.8457,0.6103,114.7812
17:50:46:736,16.5752,-8.2127,-3.165,87.1153,0.7526,-0.4326,-0.3825,111
17:50:46:751,14.2372,-8.2283,-2.758,85.3688,0.5465,0.1887,-1.1926,108.0469
17:50:46:773,12.7145,-8.2259,-3.0968,86.7627,0.465,0.8087,-1.684,106.5156
17:50:46:786,12.9599,-8.4713,-3.9767,86.7136,0.498,1.1046,-1.9703,107.9219
17:50:46:806,14.2277,-9.5104,-5.23,83.8086,0.5649,0.1517,-2.8273,110.6406
17:50:46:834,14.6838,-11.154,-5.8968,83.5663,0.3736,-0.7586,-3.4052,114.1875
17:50:46:857,13.9224,-12.4121,-5.0768,83.6714,0.0858,-1.4409,-3.83,114.1875
17:50:46:865,12.7588,-12.8826,-3.2273,82.596,-0.1342,-1.6673,-4.0665,120.5938
17:50:46:886,11.5809,-12.4588,-1.4927,77.564,-0.2168,-1.5184,-4.1879,123.2656
17:50:46:904,10.5346,-11.7142,-0.438,63.4431,-0.1739,-1.124,-4.2723,125.8281
17:50:46:924,9.6033,-11.1037,-0.1747,58.8334,-0.1036,-0.6039,-4.3304,128.6562
17:50:46:951,8.3738,-10.6859,-0.456,68.3647,-0.0541,-0.1093,-4.3219,131.7969
17:50:47:017,7.1085,-10.2693,-0.9205,70.4795,-0.033,0.213,-4.2278,135.6875
17:50:47:018,6.0371,-9.8324,-1.1084,73.2396,-0.0186,0.352,-4.067,140.1719
17:50:47:018,5.1357,-9.4601,-1.2485,73.0755,0.0021,0.319,-3.8412,144.8438
17:50:47:035,4.6927,-9.3595,-1.2054,69.4071,0.0349,0.1341,-3.5889,154.8125
17:50:47:049,3.9853,-9.1488,-0.8869,69.2194,0.1127,-0.1165,-3.2851,157.1562
17:50:47:064,3.4334,-8.8472,-0.6511,67.7034,0.2187,-0.3935,-2.9293,161.2812
17:50:47:084,2.9905,-8.7011,-0.6535,65.3609,0.3007,-0.6302,-2.5197,165.125
17:50:47:104,2.7702,-8.8029,-0.8522,65.1982,0.3276,-0.7698,-2.0539,168.3594
17:50:47:125,2.787,-8.9537,-1.0892,65.114,0.2911,-0.7905,-1.5516,170.875
17:50:47:145,2.9234,-9.0638,-1.3239,63.7519,0.2213,-0.7181,-1.028,172.8906
17:50:47:166,3.3951,-9.1656,-1.3813,64.0075,0.1382,-0.5983,-0.53,173.7031
17:50:47:184,3.7435,-9.0219,-1.179,63.0791,0.1097,-0.4598,-0.0818,174.9844
17:50:47:205,4.5683,-9.265,-1.282,63.4368,0.1542,-0.39,0.2801,175.7656
17:50:47:226,5.1417,-10.3136,-2.0793,62.4481,0.1454,-0.3564,0.601,176.1562
17:50:47:248,4.5132,-11.221,-2.5677,62.2021,0.0567,-0.2979,1.0697,176.1094
17:50:47:268,4.6197,-11.3036,-1.8913,62.1414,0.1004,-0.2326,1.6418,175.5156
17:50:47:285,6.1484,-10.8403,-0.6739,63.2697,0.4674,-0.2094,2.0889,173.3125
17:50:47:304,7.9369,-10.9553,-0.286,61.4087,1.0464,-0.1277,2.3393,171.2344
17:50:47:324,9.1029,-11.6424,-1.2078,60.993,1.5944,0.0273,2.4871,169.7812
17:50:47:350,9.2573,-11.9931,-2.7149,59.8653,1.8996,0.1946,2.6346,166.0625
17:50:47:365,8.6204,-11.5323,-3.9419,59.6435,1.926,0.3778,2.8357,160.9375
17:50:47:384,7.4114,-10.316,-4.3394,52.7603,1.7518,0.6082,3.1289,154.9844
17:50:47:405,6.7218,-9.1345,-3.7947,44.0508,1.5265,0.8178,3.4442,149.0625
17:50:47:426,6.8751,-8.4318,-3.2045,31.6947,1.3193,1.005,3.6818,142.9844
17:50:47:449,7.2952,-7.9278,-2.4097,51.4858,1.167,1.1909,3.808,137.2344
17:50:47:467,7.5838,-7.3699,-1.8937,60.4436,1.0565,1.3773,3.8367,132.0938
17:50:47:490,8.2601,-6.7594,-1.9811,62.4392,0.926,1.4444,3.7268,129.5312
17:50:47:504,9.0538,-6.0256,-3.1758,62.8925,0.7324,1.2598,3.4477,124.7656
17:50:47:525,8.6528,-6.2004,-3.4308,62.2955,0.4922,0.9096,3.1521,118.4688
17:50:47:554,8.49,-6.8552,-3.3793,60.928,0.2261,0.5608,2.9638,115.0938
17:50:47:569,8.9688,-7.5088,-2.6395,60.1824,-0.061,0.3395,2.907,111.9062
17:50:47:591,9.9516,-7.9505,-1.5849,60.5262,-0.2802,0.2708,2.9015,108.9219
17:50:47:604,11.1607,-8.2905,-0.9779,61.2767,-0.3396,0.3099,2.8615,106.1406
17:50:47:624,12.4919,-8.7059,-1.1491,61.1518,-0.2783,0.3901,2.7419,103.25
17:50:47:650,13.6423,-8.6413,-1.294,61.1518,-0.2264,0.5112,2.5164,100.4688
17:50:47:668,14.4862,-8.3276,-1.8207,58.782,-0.176,0.6239,2.1595,97.9688
17:50:47:688,14.5006,-8.1636,-2.9651,61.5836,-0.1087,0.6894,1.6908,95.625
17:50:47:705,15.5529,-7.8751,-6.1338,60.1388,-0.0812,0.663,1.2167,93.7188
17:50:47:724,15.5002,-8.105,-9.9298,58.6063,-0.3697,0.5917,0.5784,92.4219
17:50:47:749,13.3669,-10.243,-10.1405,60.3959,-1.3508,0.6726,-0.2437,91.7188
17:50:47:768,11.1571,-10.5506,-5.6622,59.5974,-2.5982,1.3349,-0.7474,91.5
17:50:47:784,11.9687,-9.429,-3.28,60.3091,-3.0581,2.2199,-0.8848,93.2969
17:50:47:804,14.4144,-9.1488,-2.6168,60.6922,-2.8033,2.6316,-1.1591,96.6719
17:50:47:827,16.0209,-10.4537,-2.8598,60.826,-2.2136,2.454,-1.8536,102
17:50:47:847,15.997,-12.0817,-3.3494,62.7361,-1.4772,1.8431,-2.7804,108.4531
17:50:47:866,14.5605,-13.1579,-3.2584,61.3312,-0.7904,1.0324,-3.6715,115.0781
17:50:47:884,12.4966,-13.7792,-2.934,63.4638,-0.208,0.2236,-4.2981,121.9375
17:50:47:905,10.5981,-13.638,-3.1207,61.539,0.2573,-0.4094,-4.5975,128.2031
17:50:47:928,9.3578,-12.897,-2.9472,57.5683,0.4898,-0.7594,-4.6446,133.3594
17:50:47:948,8.4325,-12.2122,-2.4683,51.5891,0.5217,-0.8055,-4.5954,137.8438
17:50:47:969,7.7059,-11.4377,-1.9368,52.6977,0.469,-0.5863,-4.4872,139.8125
17:50:47:985,7.0486,-10.9086,-1.6974,56.3948,0.436,-0.2757,-4.3708,143.5781
17:50:48:005,6.4884,-10.565,-1.4628,60.2345,0.4357,-0.0334,-4.2697,147.2031
17:50:48:025,5.6528,-10.2933,-1.4364,59.0504,0.4932,0.1011,-4.178,151.2656
17:50:48:054,4.5156,-9.9713,-1.7369,59.9092,0.58,0.1424,-4.0473,155.4688
17:50:48:068,3.4466,-9.5511,-2.0098,62.1548,0.6061,0.1027,-3.8257,159.6719
17:50:48:083,2.7008,-9.0555,-2.1798,62.228,0.5449,0.0087,-3.5027,165.3125
17:50:48:104,2.5021,-8.4892,-2.1247,60.4639,0.4157,-0.1394,-3.1096,168.7812
17:50:48:125,2.8289,-8.1145,-1.8877,59.6793,0.2578,-0.3037,-2.7224,171.7969
17:50:48:149,3.4454,-7.9601,-1.671,61.437,0.1353,-0.4819,-2.4022,174.6719
17:50:48:166,4.1445,-8.1026,-1.507,60.4467,0.0538,-0.7018,-2.149,177.3281
17:50:48:184,4.6341,-8.1277,-1.1228,60.0176,0.0232,-0.9181,-1.843,179.8594
17:50:48:205,4.8065,-7.7578,-0.6296,58.6177,0.3457,-0.9618,-0.7876,182.125
17:50:48:225,5.7474,-7.0922,-0.6822,60.4048,0.7273,-0.8246,-0.2312,182.125
17:50:48:248,6.9086,-7.0826,-2.3618,59.4012,0.9047,-0.6246,0.1376,184.2812
17:50:48:269,6.7685,-7.5914,-4.6087,58.9919,0.6274,-0.3748,0.5163,185.875
17:50:48:285,6.1245,-7.2742,-4.8398,56.2309,0.1944,-0.0342,1.0415,186.375
17:50:48:304,7.16,-6.4613,-2.7556,57.2769,0.0945,0.3512,1.4964,185.5
17:50:48:334,8.9676,-6.0124,-1.2066,57.9003,0.4115,0.7269,1.7076,182.25
17:50:48:350,10.3107,-6.344,-1.6567,57.6382,0.7846,0.9592,1.7033,180.7031
17:50:48:367,9.4883,-6.8983,-3.256,57.9249,0.9236,0.9509,1.7278,178.7812
17:50:48:384,8.1069,-6.5415,-4.0964,57.3118,0.8631,0.7967,1.845,174.5938
17:50:48:406,7.1887,-5.6964,-3.8055,58.0041,0.7555,0.6375,1.9653,169.4062
17:50:48:423,6.5842,-4.8273,-3.1519,58.1252,0.6554,0.6082,2.0399,169.4062
17:50:48:450,5.9581,-4.3281,-2.3953,59.2028,0.6139,0.7312,2.1113,165.9531
17:50:48:468,5.3488,-4.0013,-2.1535,58.946,0.6104,0.915,2.2093,162.7656
17:50:48:483,5.0231,-3.6973,-2.4767,61.3929,0.5598,1.066,2.3076,156.4219
17:50:48:503,5.0543,-3.3585,-3.0657,61.4273,0.4067,1.1094,2.355,154.875
17:50:48:523,5.2937,-3.1645,-3.5864,50.6208,0.1566,1.0029,2.3326,152.0312
17:50:48:545,5.168,-3.55,-3.6091,27.1905,-0.1095,0.7653,2.3169,149.2031
17:50:48:568,5.1033,-4.4466,-2.9172,43.1024,-0.2594,0.4497,2.3741,146.7344
17:50:48:588,5.4278,-5.9215,-2.1607,55.0363,-0.2389,0.0654,2.5012,144.625
17:50:48:603,6.0862,-7.6656,-1.4376,58.8188,-0.0357,-0.3461,2.7041,142.7344
17:50:48:630,7.2893,-9.32,-1.0701,58.9962,0.3116,-0.7287,2.9403,140.4844
17:50:48:650,9.0705,-10.5554,-1.1252,60.4359,0.7079,-0.9674,3.1134,137.6094
17:50:48:666,10.8626,-11.2509,-1.7105,58.2141,1.0075,-0.9288,3.167,133.9219
17:50:48:684,12.4344,-11.1887,-2.5581,56.6143,1.1047,-0.5823,3.0727,131.5781
17:50:48:703,13.5609,-10.7757,-3.906,53.781,0.8754,-0.014,2.8208,126.2969
17:50:48:723,13.6243,-10.1029,-4.7536,54.9444,0.375,0.6391,2.5174,120.625
17:50:48:747,13.5573,-10.5088,-5.1367,52.9945,-0.232,1.2029,2.2575,115.6562
17:50:48:763,13.4005,-11.4054,-4.1502,52.2365,-0.6392,1.5951,2.0881,111.6406
17:50:48:787,13.3873,-11.8651,-2.7592,52.6924,-0.6354,1.6974,1.9784,109.2344
17:50:48:804,13.3993,-10.8008,-2.0314,54.2361,-0.3031,1.459,1.8378,108.25
17:50:48:823,14.3629,-9.3045,-2.8215,53.3349,0.0112,1.0031,1.5217,108.4688
17:50:48:847,16.0173,-8.1086,-4.0688,52.2728,0.1007,0.4082,0.9376,108.6094
17:50:48:867,17.7459,-7.5459,-4.3789,52.5487,0.1132,-0.255,0.1051,108.3281
17:50:48:884,18.4187,-6.9749,-3.8342,52.7941,0.1374,-0.758,-0.9021,107.75
17:50:48:905,15.5888,-6.7151,-2.9974,53.8773,0.1289,-0.9338,-1.9594,107.1562
17:50:48:927,12.9982,-7.3364,-2.7879,54.3787,-0.0109,-0.7855,-2.8696,106.8594
17:50:48:952,10.9009,-7.9924,-2.5354,57.1316,-0.1981,-0.4619,-3.4963,107.2812
17:50:48:969,9.1938,-8.409,-2.2983,55.4399,-0.3369,-0.1341,-3.8782,108.9062
17:50:48:985,7.9692,-8.6221,-2.2923,45.8712,-0.3952,0.0875,-4.0723,111.9062
17:50:49:003,7.0894,-8.7131,-2.3019,37.2167,-0.4043,0.1312,-4.1442,115.8125
17:50:49:085,6.4585,-8.8579,-2.1104,51.1678,-0.3888,-0.0164,-4.1463,120.7031
17:50:49:086,5.903,-9.168,-1.8015,58.3065,-0.3577,-0.3037,-4.1027,125.9375
17:50:49:087,5.3081,-9.5355,-1.4747,60.4634,-0.3199,-0.6401,-4.0065,130.9375
17:50:49:087,4.6293,-9.83,-1.1323,59.8905,-0.2871,-0.9162,-3.8387,138.3125
17:50:49:105,4.0786,-9.927,-0.948,59.5336,-0.2668,-1.0566,-3.5591,142.8125
17:50:49:131,3.6261,-9.8958,-1.0174,57.5075,-0.2661,-1.035,-3.1903,146.7188
17:50:49:149,3.2299,-9.9006,-1.1754,58.173,-0.2999,-0.8832,-2.7524,148.6719
17:50:49:164,2.9809,-9.8875,-1.4508,57.6816,-0.3521,-0.6688,-2.2438,152.2812
17:50:49:183,2.8815,-9.7067,-1.5346,57.993,-0.4389,-0.4355,-1.6869,155.6406
17:50:49:204,3.1617,-9.4278,-1.5441,57.0905,-0.5308,-0.1937,-1.1151,158.5
17:50:49:225,3.4382,-9.089,-1.179,59.1406,-0.6168,0.0249,-0.5934,161.2031
17:50:49:254,3.8416,-9.35,-0.7828,60.2671,-0.6581,0.2036,-0.1412,163.4688
17:50:49:272,4.3288,-10.3436,-0.9444,60.4137,-0.6077,0.3251,0.2719,165.2656
17:50:49:289,4.5156,-11.2857,-1.1036,60.4611,-0.539,0.3669,0.6812,166.7812
17:50:49:303,4.178,-11.2079,-0.5625,59.9865,-0.473,0.34,1.1278,167.7969
17:50:49:324,5.2686,-10.3112,0.2336,61.3703,-0.3199,0.2399,1.6604,168.2969
17:50:49:347,7.385,-10.0239,0.3054,61.3692,0.0325,0.0247,2.1108,167.8438
17:50:49:364,9.1101,-10.9828,-0.8989,60.3974,0.5161,-0.1698,2.2908,166.5312
17:50:49:384,9.699,-11.561,-2.3486,61.7522,0.9172,-0.2592,2.3148,164.2031
17:50:49:404,9.1603,-10.7997,-2.8095,60.0132,1.1105,-0.3229,2.3102,160.7031
17:50:49:425,8.2003,-9.1716,-2.6563,59.2043,1.1766,-0.3138,2.3451,156.5
17:50:49:449,7.6436,-7.4095,-2.6108,55.1862,1.1753,-0.1756,2.429,152
17:50:49:466,7.5478,-6.0304,-2.7987,41.6643,1.0916,0.0601,2.4698,149.9375
17:50:49:485,7.2881,-5.2212,-2.7951,28.5995,0.9071,0.3264,2.4013,145.2969
17:50:49:504,6.7697,-4.7267,-2.5773,47.5022,0.6772,0.6194,2.2796,140.8125
17:50:49:524,6.2957,-4.4945,-2.4456,55.341,0.4999,0.8678,2.2053,136.8281
17:50:49:550,6.3831,-4.4119,-2.5844,61.1914,0.4016,1.0103,2.1989,132.3594
17:50:49:568,6.6524,-4.4801,-2.8693,59.7686,0.3497,0.9845,2.18,130.0781
17:50:49:583,6.8296,-4.9446,-3.2644,58.2207,0.3159,0.7901,2.0961,128.0938
17:50:49:604,6.9122,-5.7371,-3.5804,58.4016,0.1848,0.1395,1.9579,126.3125
17:50:49:624,7.2414,-6.8001,-3.6834,58.737,0.0762,-0.1445,1.9787,126.3125
17:50:49:644,7.8723,-7.6716,-3.0693,57.1993,0.0258,-0.2542,2.0357,122.3438
17:50:49:668,8.8994,-8.1828,-2.5581,56.3221,0.0474,-0.2374,2.061,120.2031
17:50:49:682,10.0594,-8.8136,-2.5988,56.575,0.0394,-0.1149,2.0106,117.7031
17:50:49:703,11.0362,-9.338,-2.5102,56.575,0.032,0.0936,1.9203,115.0781
17:50:49:726,12.007,-9.5654,-2.6072,54.1168,0.0266,0.3123,1.7547,112.5312
17:50:49:748,12.4595,-8.8759,-2.357,53.6488,0.0589,0.5083,1.5177,110.0625
17:50:49:768,13.4843,-8.5599,-2.9447,55.8859,0.0173,0.5948,1.1299,107.9531
17:50:49:785,14.4527,-8.7275,-3.0429,55.2567,-0.0341,0.6023,0.5725,105.25
17:50:49:803,14.7101,-9.2829,-2.9591,54.1812,0.0437,0.5419,0.0013,104.7031
17:50:49:823,13.5333,-9.095,-3.0034,55.5758,0.2077,0.4391,-0.4057,104.6875
17:50:49:844,13.0126,-8.3049,-4.0437,55.6411,0.2461,0.2561,-0.7479,105.0938
17:50:49:866,13.5441,-7.777,-5.0505,55.7043,0.1052,-0.0704,-1.2185,105.9062
17:50:49:884,14.5832,-8.0966,-5.9447,54.143,-0.2181,-0.5546,-1.8717,106.8906
17:50:49:904,14.6107,-9.2673,-5.6909,54.2791,-0.6317,-0.9967,-2.5479,107.4219
17:50:49:924,13.5788,-10.2885,-4.0976,54.4979,-0.9566,-1.2116,-3.055,108.6094
17:50:49:948,12.4296,-10.7422,-2.0733,54.5346,-1.1065,-1.1887,-3.4121,110.2031
17:50:49:965,11.2816,-10.5243,-0.4285,51.5043,-1.0647,-0.957,-3.6776,112.3438
17:50:49:983,10.3096,-10.1891,0.4598,41.4452,-0.9034,-0.5437,-3.8875,115.0938
17:50:50:003,9.4417,-9.9629,0.4335,28.6269,-0.7271,-0.0779,-4.0452,118.3281
17:50:50:024,8.4121,-9.8671,-0.0813,39.5239,-0.5704,0.3163,-4.121,122.4219
17:50:50:044,7.5287,-9.8204,-0.7289,49.882,-0.4602,0.5719,-4.1242,127.2031
17:50:50:069,6.6213,-9.6468,-0.9767,55.5604,-0.3377,0.6452,-4.0561,132.3125
17:50:50:084,5.6349,-9.4625,-1.1455,54.194,-0.1979,0.5432,-3.8875,140.9531
17:50:50:103,4.7945,-9.2745,-1.1994,55.0292,-0.0642,0.3219,-3.6345,146.7031
17:50:50:123,3.8823,-9.0267,-0.9815,55.2153,0.0666,0.0513,-3.2971,151.7969
17:50:50:143,3.1365,-8.5371,-0.7876,53.2109,0.1939,-0.2235,-2.9085,156.5312
17:50:50:168,2.836,-8.0511,-0.766,52.4763,0.2754,-0.4568,-2.5242,160.5938
17:50:50:186,2.5739,-7.8596,-0.8786,52.597,0.2823,-0.5761,-2.145,163.7812
17:50:50:203,2.2926,-8.1157,-1.2173,51.3093,0.1931,-0.5953,-1.7229,166.4375
17:50:50:224,1.8245,-8.6425,-1.2509,50.7469,0.0834,-0.5298,-1.187,168.5625
17:50:50:245,1.718,-8.986,-1.0019,51.3861,0.0461,-0.4267,-0.5497,170.3281
17:50:50:266,2.3823,-9.423,-0.6403,50.3252,0.1252,-0.3013,0.0809,171.6719
17:50:50:283,3.5854,-10.1029,-0.4668,51.7186,0.3289,-0.1969,0.6255,172.5625
17:50:50:310,4.9621,-12.0207,-2.2433,50.0579,0.4703,-0.1378,1.0263,172.7188
17:50:50:322,4.3755,-11.8698,-1.8063,49.7303,0.4437,-0.0843,1.4546,171.9844
17:50:50:345,5.5762,-11.3467,-0.3243,48.326,0.4525,0.0066,2.0362,171.2344
17:50:50:368,7.7873,-11.2893,-0.2166,49.1393,0.8402,0.1043,2.5614,168.1562
17:50:50:386,9.4476,-12.2469,-2.7257,49.2958,1.4828,0.1554,2.8146,165.625
17:50:50:403,9.6978,-12.7078,-5.4156,47.679,1.7782,0.2375,2.8714,162.0156
17:50:50:422,8.7114,-11.8507,-6.2835,48.1053,1.4709,0.3951,2.9228,157.0938
17:50:50:442,7.6771,-10.5183,-5.3294,49.9513,0.8077,0.7088,3.0881,151.25
17:50:50:469,7.3324,-9.3021,-3.8127,57.6915,0.1372,1.1472,3.3534,145.8281
17:50:50:489,7.567,-8.4641,-2.6634,85.7999,-0.3691,1.569,3.5904,141.0469
17:50:50:503,7.5658,-7.4992,-1.7955,52.4822,-0.7502,1.9009,3.6866,137.3594
17:50:50:523,7.792,-6.6421,-1.2748,44.701,-1.0405,2.127,3.6764,134.6719
17:50:50:544,8.2841,-6.016,-0.5901,52.049,-1.2642,2.2252,3.5486,132.5938
17:50:50:566,8.4169,-5.8089,-0.766,52.5437,-1.293,2.1456,3.3052,131.1094
17:50:50:584,7.9608,-6.1501,-1.5896,55.8836,-1.2474,1.9043,3.0051,130.1719
17:50:50:603,7.5275,-7.2921,-1.8614,54.1225,-1.3196,1.5618,2.7635,129.6562
17:50:50:622,7.4987,-8.749,-1.2521,53.9612,-1.4826,1.1925,2.6748,129.25
17:50:50:643,8.2003,-9.7881,-0.2345,55.1469,-1.5481,0.8305,2.7675,128.6406
17:50:50:668,9.2753,-9.9665,0.7543,54.6747,-1.4067,0.4028,2.9276,128.0781
17:50:50:685,10.7609,-9.9389,0.9698,54.3415,-1.0615,-0.0494,3.0341,127.0312
17:50:50:702,12.4775,-9.6217,1.2463,54.0865,-0.6812,-0.4049,2.9947,125.1406
17:50:50:723,14.1977,-9.1201,1.6413,53.4893,-0.3015,-0.5692,2.7294,122.4219
17:50:50:743,14.9519,-8.3755,1.7251,52.5676,0.0983,-0.5216,2.2226,118.8438
17:50:50:766,16.0497,-8.3791,0.8369,49.5908,0.4679,-0.3253,1.5651,115.0938
17:50:50:783,16.8433,-9.4074,-0.0382,51.5722,0.7031,-0.1532,0.7669,111.9219
17:50:50:803,15.9204,-9.4385,-0.0035,49.7383,0.8488,-0.0307,-0.0981,109.4688
17:50:50:823,14.3917,-8.9358,-0.693,51.5235,1.0764,0.1738,-0.8233,108.6562
17:50:50:843,13.6339,-9.0255,-2.3115,49.5113,1.3156,0.4183,-1.3671,107.9219
17:50:50:868,13.9404,-9.6073,-4.2388,49.0849,1.4024,0.3906,-1.8209,108.2031
17:50:50:885,14.4683,-10.8607,-5.8753,48.3375,1.2658,-0.1375,-2.3338,109.4844
17:50:50:904,13.9799,-11.9106,-5.418,47.9724,0.8176,-1.0316,-2.9562,111.4219
17:50:50:923,13.2365,-12.7234,-3.5505,47.4759,0.2546,-1.8382,-3.5138,114.3438
17:50:50:943,12.3721,-13.1232,-1.3478,47.4377,-0.2059,-2.2398,-3.9117,116.1094
17:50:50:968,11.2744,-12.9532,0.613,44.7896,-0.461,-2.1959,-4.178,117.8594
17:50:50:984,10.1479,-12.381,1.7527,40.0137,-0.4663,-1.7647,-4.3418,119.7969
17:50:51:003,9.0418,-11.9225,1.5216,20.2749,0.0056,-0.5642,-4.5035,122.4375
17:50:51:023,7.871,-11.3766,0.4059,28.6044,0.1734,-0.2584,-4.4928,122.4375
17:50:51:043,7.1085,-10.9708,-0.2896,40.4205,0.2775,-0.1074,-4.4153,130.0312
17:50:51:067,6.4764,-10.5961,-0.7768,44.279,0.3284,-0.1399,-4.2944,134.4062
17:50:51:085,5.8851,-10.2825,-0.9875,45.1023,0.3606,-0.2875,-4.1426,139.125
17:50:51:134,5.2195,-10.0167,-1.1276,42.8676,0.359,-0.4976,-3.9378,143.7656
17:50:51:134,4.5108,-9.7749,-1.1276,42.1279,0.3159,-0.6976,-3.6659,147.9375
17:50:51:149,3.8237,-9.4385,-0.9851,44.5244,0.2487,-0.8651,-3.3288,152.0469
17:50:51:169,3.3927,-9.1429,-0.8043,42.6998,0.1752,-0.9642,-2.9591,155.8125
17:50:51:184,3.0168,-9.0184,-0.7505,43.3802,0.0762,-0.953,-2.5634,160.7969
17:50:51:208,2.5823,-9.1393,-0.8295,42.5033,-0.0655,-0.8366,-2.1114,163.8594
17:50:51:222,2.1417,-9.1967,-0.7972,43.7983,-0.2045,-0.6486,-1.5783,166.6719
17:50:51:242,1.9813,-9.4014,-0.7337,43.7103,-0.3111,-0.4651,-0.9676,169.1562
17:50:51:265,2.1633,-9.435,-0.438,44.9515,-0.3361,-0.296,-0.3383,170.375
17:50:51:285,3.103,-9.9198,-0.456,44.8988,-0.3095,-0.1602,0.2204,172.5156
17:50:51:313,3.6189,-10.8451,-1.0138,44.5322,-0.3486,-0.0217,0.7342,174.1562
17:50:51:335,2.8013,-11.2522,-1.1084,44.7631,-0.4583,0.1216,1.3954,175.0938
17:50:51:342,2.8732,-10.9241,-0.0873,45.2615,-0.4131,0.2177,2.155,175.3594
17:50:51:362,4.9561,-10.99,0.6932,42.5,-0.1321,0.2502,2.7246,175.0938
17:50:51:384,7.5598,-11.628,0.546,41.8981,0.2927,0.2425,3.017,174.2344
17:50:51:412,9.45,-12.5785,-0.4572,42.2694,0.7065,0.2164,3.1377,172.5156
17:50:51:422,10.0318,-12.5115,-1.6698,42.9764,1.0022,0.1496,3.2208,169.6406
17:50:51:443,9.5673,-11.3096,-2.3534,44.3229,1.1225,0.1317,3.2993,165.7344
17:50:51:472,8.654,-9.7067,-2.7053,48.4894,1.0701,0.246,3.3885,158.7656
17:50:51:489,8.0758,-8.3145,-2.77,67.0451,0.8898,0.4012,3.4399,153.4062
17:50:51:503,8.0973,-7.4466,-2.4324,87.0361,0.6879,0.5722,3.3973,148.0156
17:50:51:525,8.1584,-7.0731,-1.8913,39.152,0.5625,0.7751,3.2956,143.1562
17:50:51:541,7.8675,-7.0216,-1.7704,41.9341,0.486,0.9712,3.2274,138.5
17:50:51:563,7.1097,-7.024,-1.9009,41.1433,0.3689,1.1456,3.2849,134.4062
17:50:51:583,7.1301,-6.945,-2.0194,40.2616,0.2147,1.2266,3.3814,130.9844
17:50:51:602,7.7118,-6.8935,-1.8147,38.9808,0.1108,1.1256,3.3803,127.75
17:50:51:622,8.7653,-7.2083,-1.5693,39.7205,0.1134,0.8098,3.2407,124.7656
17:50:51:644,9.9013,-8.0307,-1.4244,36.1055,0.2522,0.4305,3.0168,122.0781
17:50:51:668,10.3083,-8.9717,-1.7536,34.4199,0.3971,0.1525,2.8423,119.2188
17:50:51:685,10.4137,-9.6995,-2.272,34.516,0.4168,0.0889,2.7808,116.1875
17:50:51:704,12.1974,-10.2561,-2.5521,34.8629,0.3233,0.1695,2.7632,112.875
17:50:51:724,13.361,-9.9724,-2.6694,35.1494,0.2365,0.2731,2.6841,109.6719
17:50:51:743,14.3821,-9.2781,-2.7903,33.1188,0.1662,0.3253,2.4833,106.4062
17:50:51:767,15.2871,-8.3959,-2.9112,33.7856,0.0325,0.3927,2.1156,103.4062
17:50:51:785,16.8661,-8.6652,-3.2656,33.7856,-0.1585,0.5246,1.5944,100.8281
17:50:51:802,17.3665,-9.0423,-2.3929,32.9655,-0.4477,0.7288,0.8513,98.5625
17:50:51:822,16.1562,-9.0291,-1.4125,32.0403,-0.588,1.0588,0.0167,96.9844
17:50:51:841,13.9954,-8.2019,-1.2736,34.5538,-0.4575,1.3959,-0.6962,96.4062
17:50:51:870,13.3538,-7.6118,-2.5892,36.1055,-0.1491,1.5389,-1.1663,97.1562
17:50:51:886,14.0685,-8.0798,-4.3825,36.2929,0.0983,1.2686,-1.6086,99.3281
17:50:51:906,14.43,-9.6181,-5.7077,38.8971,0.1451,0.5499,-2.2084,102.4062
17:50:51:922,14.4264,-10.6368,-4.3346,40.741,-0.0104,-0.4265,-2.896,105.6562
17:50:51:942,13.5226,-11.7657,-3.3757,41.1933,-0.1939,-1.4667,-3.537,108.9375
17:50:51:969,12.3506,-12.5331,-1.8231,43.4691,-0.3771,-2.0843,-4.0329,111.9219
17:50:51:985,11.2648,-12.5271,-0.3638,43.4691,-0.5539,-2.2625,-4.3277,114.375
17:50:52:001,10.0881,-12.3619,0.3832,45.2395,-0.6141,-2.0001,-4.4896,116.8125
17:50:52:022,8.782,-11.8926,0.4742,29.9458,-0.5838,-1.4632,-4.5522,119.4219
17:50:52:043,7.6508,-11.3168,0.1043,32.3087,-0.5196,-0.8275,-4.5027,122.5156
17:50:52:067,7.1312,-10.644,-0.377,46.1807,-0.4402,-0.3144,-4.3786,128.4219
17:50:52:086,6.6823,-10.3663,-0.8008,50.7624,-0.3686,-0.0116,-4.2579,133.3281
17:50:52:103,5.9641,-10.249,-0.7852,49.9968,-0.3198,0.1144,-4.1447,138.3281
17:50:52:129,5.1848,-10.1436,-0.5972,51.7573,-0.253,0.1109,-3.9735,143.6562
17:50:52:142,4.5551,-9.9964,-0.5434,52.988,-0.1342,0.0031,-3.7237,148.9375
17:50:52:164,3.8859,-9.8096,-0.6619,53.9914,0.0013,-0.1698,-3.4007,153.9062
17:50:52:186,3.4083,-9.5594,-0.9061,54.768,0.1079,-0.3591,-3.0084,158.1406
17:50:52:206,3.1305,-9.4984,-1.3873,54.1983,0.1425,-0.5381,-2.5684,161.9688
17:50:52:222,2.8923,-9.5331,-1.6962,54.9044,0.0695,-0.6635,-2.0912,165.1562
17:50:52:244,2.8732,-9.6887,-1.7213,55.3933,-0.0972,-0.6821,-1.5711,167.6562
17:50:52:272,2.927,-9.6839,-1.185,55.6026,-0.2871,-0.6132,-1.0081,168.7969
17:50:52:289,3.4992,-9.5463,-0.4524,55.245,-0.4027,-0.4531,-0.4121,170.8438
17:50:52:303,4.7311,-10.0155,-0.6487,57.2527,-0.3699,-0.2462,0.1491,172.625
