Time,Acc_X,Acc_Y,Acc_Z,Meg,Gyr_X,Gyr_Y,Gyr_Z,Ore
12:58:36:905,-0.7756,3.3669,10.3646,53.6567,-0.1254,-0.1261,-0.1031,196.7969
12:58:36:964,0.03,2.7683,9.7481,53.5848,-0.1494,-0.5783,-0.0485,197.0312
12:58:36:980,0.1115,2.8772,9.6775,51.8149,-0.0996,-0.5969,-0.0408,197.0312
12:58:36:996,0.2635,2.9718,9.5614,52.7166,-0.0072,-0.5919,-0.0307,197.0312
12:58:37:014,0.4215,3.0556,8.958,53.965,0.0525,-0.4712,-0.0187,197.0312
12:58:37:030,0.4035,3.1849,8.3583,53.9274,0.0341,-0.3309,-0.0219,195.6094
12:58:37:048,0.2336,3.2268,8.1703,52.2384,-0.0559,-0.2494,-0.019,195.7188
12:58:37:085,0.2431,3.2435,8.2027,53.3475,-0.187,-0.2116,-0.0096,195.8125
12:58:37:095,0.3449,3.0305,8.5043,52.1533,-0.319,-0.2504,-0.0192,195.875
12:58:37:110,-0.1471,2.9072,8.7509,52.9323,-0.3846,-0.2379,0.0045,195.9375
12:58:37:127,-0.383,2.8784,8.9508,52.8848,-0.3409,-0.0952,0.1352,195.9844
12:58:37:146,0.0109,2.9287,8.3571,53.6495,-0.3507,0.1632,0.3395,196.0625
12:58:37:167,0.3712,3.2507,7.5897,53.0766,-0.477,0.3988,0.4764,196.0312
12:58:37:194,0.1246,3.2352,7.5083,55.0645,-0.6751,0.8372,0.5403,195.7656
12:58:37:209,0.1653,1.8729,7.8854,53.2755,-0.931,0.6905,0.6756,195.5312
12:58:37:225,0.4023,1.479,9.8367,52.5791,-1.0109,0.4609,0.7326,194.9844
12:58:37:245,0.5053,0.993,10.531,52.6676,-0.9324,0.7592,0.5853,194.2812
12:58:37:268,0.8465,1.7149,10.4089,53.8097,-0.6972,0.9182,0.3637,193.4375
12:58:37:291,0.4837,2.5468,9.7996,53.312,-0.3989,0.7123,0.1398,192.5625
12:58:37:311,-0.3447,2.6797,9.4141,53.7416,-0.0895,0.2087,-0.0067,191.8594
12:58:37:326,0.4814,3.3908,10.2605,53.5585,0.0727,-0.0246,-0.1812,191.3594
12:58:37:344,0.297,2.6594,10.033,52.5889,0.1143,0.0481,-0.4944,191.1094
12:58:37:363,-1.1288,2.3218,10.045,52.8092,0.1907,-0.0118,-0.5982,191.1875
12:58:37:383,-1.9524,2.1171,10.3299,54.026,0.2724,-0.3112,-0.4741,191.5938
12:58:37:409,-1.8865,2.153,10.3814,53.628,0.3763,-0.5226,-0.2616,192.25
12:58:37:425,-1.5621,2.4714,10.203,53.9173,0.4421,-0.5056,-0.129,192.875
12:58:37:443,-1.3933,2.7515,9.6739,53.6496,0.4173,-0.3815,-0.1093,193.3281
12:58:37:462,-1.4328,2.7743,9.2776,55.0316,0.3097,-0.2933,-0.1476,193.5938
12:58:37:483,-1.5226,2.712,9.2346,52.8899,0.1782,-0.276,-0.1694,193.75
12:58:37:502,-1.5657,2.6546,9.5578,53.0441,0.0948,-0.3452,-0.1686,193.9375
12:58:37:526,-1.6148,2.6151,10.1982,52.2027,0.0921,-0.4185,-0.1572,194.1562
12:58:37:562,-1.5262,2.4726,10.719,54.0061,0.175,-0.3791,-0.1335,194.3594
12:58:37:563,-1.2844,2.4283,10.2724,52.1327,0.3561,-0.1815,-0.1074,194.5938
12:58:37:581,-1.1048,2.4702,9.1735,53.6967,0.3995,-0.1876,-0.0664,194.7969
12:58:37:601,-0.9456,2.578,8.3355,54.4787,0.2386,-0.1876,-0.0134,195.0156
12:58:37:626,-0.5278,2.8282,8.4564,53.1891,0.0069,-0.2094,0.0045,195.1094
12:58:37:643,-0.3506,2.9682,8.7318,52.9654,-0.1593,-0.0933,-0.0927,195.1406
12:58:37:659,-0.5075,2.9012,8.7521,52.7171,-0.2591,0.0228,-0.1921,195.1562
12:58:37:678,-0.8427,2.7934,8.7856,53.0468,-0.2903,0.0659,-0.2139,195.2031
12:58:37:698,-1.0282,2.815,8.9042,53.4725,-0.2349,-0.0185,-0.1612,195.375
12:58:37:724,-1.0569,2.9455,9.0454,53.4725,-0.1033,-0.1881,-0.0959,195.625
12:58:37:740,-0.8666,3.1143,9.0993,53.4576,0.0431,-0.3389,-0.0493,195.8438
12:58:37:757,-0.7397,3.2411,8.7988,51.3777,0.1004,-0.3255,-0.0501,196
12:58:37:777,-0.8319,3.1669,8.5151,52.4003,0.0085,-0.2267,-0.068,196.1094
12:58:37:798,-0.8857,3.2412,9.0682,53.5347,-0.0943,-0.1,-0.0888,196.2031
12:58:37:816,-1.1742,3.2938,9.1974,52.1718,-0.0716,-0.146,-0.1061,196.2969
12:58:37:842,-1.0222,3.3142,9.4644,53.8162,0.004,-0.1916,-0.0539,196.3906
12:58:37:857,-0.8474,3.1095,9.0945,51.8411,0.074,-0.1463,-0.0184,196.5312
12:58:37:877,-0.6547,2.9766,8.4313,53.7188,0.0399,-0.0792,0.0255,196.6875
12:58:37:897,-0.2884,2.8581,8.2457,52.9995,-0.106,-0.1117,-0.0568,196.7188
12:58:37:918,-1.4759,3.7643,8.7892,51.0182,-0.1909,0.0388,-0.1215,196.6875
12:58:37:941,-1.7632,3.6434,9.2549,51.9994,-0.2083,0.03,0.0082,196.7656
12:58:37:955,-0.9324,3.1681,9.395,50.7805,-0.1912,0.1917,0.1225,196.9062
12:58:37:975,-0.1459,3.5081,8.9018,51.5024,-0.1768,0.3597,0.0985,196.9062
12:58:37:996,0.6322,4.1833,8.5642,51.8287,-0.1894,0.2359,-0.1055,196.7656
12:58:38:016,0.5616,3.8265,9.7373,52.9505,-0.0799,-0.374,-0.509,196.625
12:58:38:046,-0.9719,2.7994,11.0745,52.2527,0.278,-1.0912,-0.8254,196.7188
12:58:38:055,-2.2816,1.9651,11.849,53.4214,0.7199,-1.5759,-0.7101,197.3438
12:58:38:079,-2.6311,2.7456,11.8227,51.2603,1.0216,-1.6728,-0.3234,198.3438
12:58:38:094,-1.75,3.7667,10.792,51.7073,0.9769,-1.2648,-0.0813,199.2812
12:58:38:114,1.0727,2.8353,9.9923,52.1966,0.5356,-0.6954,-0.0962,199.7812
12:58:38:140,1.4953,2.1099,11.0158,52.3577,0.0383,-0.0648,-0.264,199.9375
12:58:38:155,1.0224,1.9902,11.8131,53.6971,-0.1614,0.7235,-0.2323,200
12:58:38:177,0.8608,2.232,10.8949,52.085,-0.0639,1.2124,-0.0975,200
12:58:38:193,0.4311,2.0153,8.7677,52.1184,0.0075,1.1259,0.0106,200.4062
12:58:38:212,0.5388,2.6881,8.4169,52.1226,-0.1254,0.4955,0.1422,200.5156
12:58:38:231,1.7084,2.7456,8.9712,52.1428,-0.2426,0.0667,0.1344,200.5156
12:58:38:251,2.107,2.4858,9.1268,54.0527,-0.3633,-0.1599,0.0148,200.3438
12:58:38:275,2.7642,2.4451,9.1077,53.8162,-0.4288,-0.2153,-0.0749,200.125
12:58:38:295,2.8791,2.9634,8.4768,53.3018,-0.4629,-0.2014,-0.1505,199.9844
12:58:38:311,2.5248,3.2867,8.3451,52.7239,-0.5108,0.0806,-0.2307,200.0156
12:58:38:330,2.1501,2.9036,8.29,53.1303,-0.4972,0.2375,-0.346,200.1562
12:58:38:351,1.2008,2.3445,8.7186,53.8248,-0.3904,0.0737,-0.5223,200.375
12:58:38:377,0.7052,2.2847,9.0083,52.3502,-0.2306,-0.1455,-0.5237,200.6562
12:58:38:393,1.1386,2.1973,9.1759,53.211,-0.1076,-0.1263,-0.4121,201.0625
12:58:38:410,1.3959,2.1745,8.8192,53.113,-0.0493,0.1078,-0.3386,201.6719
12:58:38:431,1.2858,2.39,8.2386,51.3103,-0.0501,0.234,-0.2717,202.5312
12:58:38:451,1.1074,2.6366,7.9608,53.9541,-0.0788,0.1565,-0.2017,202.9688
12:58:38:477,0.9039,2.7097,8.0602,53.1959,-0.0852,0.0116,-0.141,203.2812
12:58:38:494,1.2535,2.1721,8.1883,52.7984,-0.0541,-0.0624,-0.1034,203.5312
12:58:38:513,0.2084,2.718,8.7114,52.7053,0.0008,-0.1141,-0.1239,203.7344
12:58:38:532,-0.0681,2.9072,8.8658,53.5553,0.1103,-0.0387,0.0186,203.8594
12:58:38:552,0.455,3.0556,8.7964,51.4889,0.2008,0.0372,0.1342,204.0156
12:58:38:574,0.2659,3.5237,9.0801,52.3768,0.2999,0.0974,0.1893,204.0938
12:58:38:591,-0.1651,3.8002,8.9365,52.7352,0.5012,-0.0398,0.2918,204.0625
12:58:38:611,0.2491,4.1354,7.9848,52.4009,0.6887,-0.4441,0.4796,203.8906
12:58:38:631,1.5468,4.8465,6.4848,53.4425,0.5342,-1.0592,0.3248,203.6562
12:58:38:651,2.4985,5.2271,6.9421,52.0169,-0.066,-1.2531,-0.1631,203.2969
12:58:38:676,1.2762,5.4354,9.48,52.945,-0.538,0.1847,-0.6627,202.75
12:58:38:699,0.048,4.3928,9.9373,51.9555,-0.6911,1.3056,-0.7449,202.5
12:58:38:715,-0.875,3.0903,10.956,51.9379,-0.6352,0.8593,-0.4869,203.2344
12:58:38:731,-1.7058,2.4223,12.1339,53.51,-0.2184,0.4169,-0.1236,204.0469
12:58:38:751,-1.6028,2.3697,12.1088,52.8143,0.3009,0.132,0.2282,204.6406
12:58:38:775,-0.8846,2.7851,10.8387,52.7629,0.4938,0.1304,0.43,204.9688
12:58:38:791,-0.4105,2.8952,9.6871,52.996,0.2208,0.4646,0.5081,204.8594
12:58:38:811,-0.2704,2.973,9.7864,52.9268,-0.2085,0.8319,0.5486,204.4531
12:58:38:832,0.1797,2.9227,10.8111,54.5298,-0.4887,0.7296,0.5129,203.8438
12:58:38:852,0.7435,2.42,12.675,52.7821,-0.5206,0.1125,0.3421,203.1562
12:58:38:875,0.4885,1.8765,14.6359,54.0807,-0.2384,-0.4877,0.1674,202.4531
12:58:38:932,0.4861,1.3055,14.5437,52.462,0.298,-0.6297,0.1667,201.9375
12:58:38:942,0.7615,0.7787,12.0609,52.2682,0.7065,-0.419,0.1081,201.7031
12:58:38:943,0.4658,1.4084,9.3208,51.5249,0.6938,0.0473,0.095,201.5938
12:58:38:956,1.5587,2.232,8.4145,52.6733,0.3438,0.4154,0.0647,201.4688
12:58:38:975,0.8908,2.4008,8.3391,53.5637,0.0426,0.606,-0.1939,201.2656
12:58:38:999,-0.4883,1.9603,8.3918,52.8431,-0.0173,0.4292,-0.3892,201.125
12:58:39:012,-1.434,1.3198,8.2733,53.223,0.078,-0.0049,-0.3644,201.2656
12:58:39:032,-1.6268,1.1211,7.7944,52.5697,0.2202,-0.1767,-0.1833,201.6562
12:58:39:054,-1.3011,1.3318,6.668,52.7649,0.274,-0.0736,0.0154,201.875
12:58:39:077,-1.1264,1.7579,5.7594,53.4959,0.1707,0.0047,0.1073,202.2188
12:58:39:100,-1.4639,2.0536,5.8192,53.2071,0.0035,-0.0875,0.1629,202.2969
12:58:39:113,-1.7692,1.8717,6.8056,54.4597,-0.0988,-0.1263,0.2921,202.2188
12:58:39:131,-1.3466,2.0907,7.0965,53.5765,-0.0847,0.0095,0.4764,202.0625
12:58:39:154,-0.6655,2.6558,7.0103,52.0124,-0.0874,0.0755,0.564,201.8438
12:58:39:177,-0.0717,3.0269,7.4916,53.6256,-0.1278,0.0891,0.5262,201.4219
12:58:39:193,-0.0741,3.4327,8.1512,54.5843,-0.1297,0.1568,0.4212,200.7969
12:58:39:213,-0.0753,3.295,8.4696,52.6301,-0.118,0.202,0.3107,200.1875
12:58:39:231,-0.5697,3.3393,9.1172,55.0192,-0.1095,0.2196,0.2386,199.625
12:58:39:251,-0.7756,3.3273,9.7301,53.6081,-0.0184,0.2968,0.2796,199.0156
12:58:39:276,-0.8055,3.629,9.3255,53.6003,0.1132,0.3972,0.3555,198.75
12:58:39:293,-0.2968,4.0013,8.6324,53.3029,0.0983,0.3267,0.3589,198.3906
12:58:39:312,-0.0478,3.8613,8.9233,53.1138,-0.138,0.087,0.2684,197.9219
12:58:39:333,0.5915,3.307,10.7656,52.5476,-0.4003,-0.1295,0.2255,197.4688
12:58:39:352,0.8501,1.8896,12.7133,53.3776,-0.4269,-0.3567,0.262,197.1719
12:58:39:376,1.9981,1.5892,13.2377,52.6643,-0.1835,-0.1809,0.5701,196.9375
12:58:39:394,3.8811,2.3613,10.634,53.0185,0.0269,0.001,0.8005,196.7031
12:58:39:413,4.919,3.7763,8.2134,53.692,-0.1411,-0.2726,0.4955,196.0938
12:58:39:432,4.6532,3.6745,8.9353,54.5735,-0.649,-0.8055,-0.2935,195.1875
12:58:39:451,2.7522,1.6071,11.5785,53.093,-1.0868,-0.9711,-0.9929,194.6562
12:58:39:478,0.2515,-0.5405,13.5693,53.132,-1.22,-0.6015,-1.1277,195.0625
12:58:39:492,-0.8247,-1.0193,13.7297,51.8423,-1.077,-0.0188,-0.7375,196.3594
12:58:39:511,0.1115,-0.0461,12.3853,52.5362,-0.8131,0.1749,-0.2917,197.1094
12:58:39:534,2.3045,1.1678,10.2174,51.3972,-0.5105,-0.4462,-0.4778,198.3125
12:58:39:560,1.8568,0.8613,9.717,51.5251,-0.445,-0.5759,-0.758,199.0469
12:58:39:576,1.2547,0.4639,8.6252,50.9414,-0.3635,-0.4433,-0.8946,199.3438
12:58:39:593,0.3114,0.1981,7.318,51.6444,-0.2959,-0.3383,-0.8688,200.8281
12:58:39:610,0.0312,0.4483,6.255,51.5696,-0.2376,-0.1708,-0.7489,200.8281
12:58:39:630,0.0684,0.6925,5.5032,51.2543,-0.2128,-0.2315,-0.6608,201.9062
12:58:39:650,-0.1974,1.0636,5.8216,50.5055,-0.2032,-0.4196,-0.6166,202.9375
12:58:39:670,-0.1076,1.1319,6.4477,50.9324,-0.1132,-0.5463,-0.5734,203.7812
12:58:39:691,0.0193,1.2157,6.741,49.9408,0.045,-0.4627,-0.5719,204.5625
12:58:39:717,-0.3291,1.2983,6.4848,50.2101,0.1462,-0.284,-0.4925,205.2969
12:58:39:730,-0.3231,1.4144,6.6668,51.1494,0.0887,-0.0944,-0.3505,205.9844
12:58:39:750,-0.4404,1.734,7.8292,49.257,-0.0605,0.0707,-0.2166,206.6094
12:58:39:769,-0.4416,1.916,9.0502,48.8896,-0.1113,0.2452,-0.1114,207.1719
12:58:39:793,-0.5589,1.813,10.2688,49.3424,-0.1079,0.3831,-0.0352,207.5625
12:58:39:810,-0.7541,1.807,10.9847,48.3632,-0.1412,0.659,0.0604,207.8125
12:58:39:831,-0.7229,1.7939,11.4432,48.4598,-0.1207,0.7749,0.1778,207.9688
12:58:39:851,-0.8343,1.6335,12.3039,50.1096,-0.1321,0.6889,0.2535,207.9531
12:58:39:875,-0.4739,1.4982,13.2879,47.5142,-0.1015,0.6034,0.3121,207.7969
12:58:39:892,-0.6068,1.2288,13.7057,48.3632,-0.0605,0.4947,0.2822,207.5312
12:58:39:912,-0.9205,1.0708,13.4232,49.8788,-0.1449,0.6396,0.2673,207.1875
12:58:39:931,-1.3502,1.0708,12.7816,47.6707,-0.482,0.9419,0.2569,206.8438
12:58:39:951,-1.853,0.8805,13.2544,47.6707,-1.0235,1.221,0.2314,206.5312
12:58:39:978,-1.6926,-0.161,15.2428,47.0105,-1.3878,1.3371,0.2314,206.2188
12:58:39:994,-1.7524,-1.1115,16.3561,49.6111,-1.1532,1.3168,0.2503,206.0781
12:58:40:011,-1.9476,-1.6394,14.9447,47.8818,-0.4551,1.095,0.3192,205.8438
12:58:40:031,-1.7692,-1.6406,11.594,48.5818,0.2218,0.7371,0.4537,205.6094
12:58:40:050,-0.8379,-1.1606,8.709,48.0268,0.4791,0.1381,0.5432,205.3438
12:58:40:071,0.4167,-0.6075,7.7202,46.9326,0.3633,-0.4859,0.4082,205.0156
12:58:40:092,0.7244,-0.659,8.126,48.0823,0.0858,-0.7165,0.1206,204.5156
12:58:40:112,-0.0562,-1.0947,8.6815,45.952,-0.1076,-0.533,-0.0105,203.6406
12:58:40:130,-0.784,-1.1355,8.2434,47.4974,-0.1257,-0.1841,0.1179,203.3438
12:58:40:151,-0.8127,-0.7392,7.2605,47.0378,-0.0639,0.0018,0.4058,203.3125
12:58:40:173,-0.1471,-0.0401,6.5566,47.9345,0.0336,-0.0323,0.6354,203.2812
12:58:40:193,0.4095,0.4878,6.2334,46.6573,0.1627,-0.2552,0.7078,203
12:58:40:211,0.6262,0.8793,6.3914,47.5974,0.2842,-0.4992,0.6692,202.4062
12:58:40:233,0.3892,1.0421,6.8547,46.7711,0.3816,-0.5421,0.5653,201.6094
12:58:40:251,0.2024,1.005,7.2103,48.07,0.4863,-0.419,0.5238,200.7969
12:58:40:277,0.2419,1.1271,7.0738,47.286,0.5491,-0.2257,0.4955,200.125
12:58:40:294,0.4047,1.4575,7.2222,47.9527,0.5217,-0.1831,0.4191,199.5156
12:58:40:310,0.637,1.5712,7.9956,48.3578,0.457,-0.2222,0.2625,198.9062
12:58:40:336,0.552,1.6777,8.8599,46.8427,0.379,-0.1911,0.0708,198.3906
12:58:40:349,0.3916,1.5712,9.3902,45.8307,0.2802,-0.0925,-0.1343,197.9844
12:58:40:371,0.5735,1.0265,9.7122,45.7457,0.1579,-0.1655,-0.2874,197.7812
12:58:40:397,0.8596,0.483,10.6675,46.7993,0.0146,-0.3466,-0.3796,197.9062
12:58:40:412,0.9231,-0.1143,11.9508,46.5284,-0.0967,-0.4843,-0.403,198.2344
12:58:40:431,0.6968,-0.4363,13.0437,45.7689,-0.1404,-0.4976,-0.3071,198.6875
12:58:40:451,0.5795,-0.4375,13.5621,46.0032,-0.0732,-0.3884,-0.084,198.9219
12:58:40:470,1.2726,0.009,12.3111,46.3431,0.0748,-0.2449,0.1389,199.3438
12:58:40:494,2.0867,0.6075,10.5154,46.4832,0.0218,-0.4158,0.1033,199.6094
12:58:40:510,2.2902,0.3693,10.8099,46.4833,-0.289,-0.7208,-0.1734,199.5625
12:58:40:531,1.6593,-0.5656,12.6176,46.1141,-0.5095,-0.7871,-0.3825,199.3906
12:58:40:551,1.1805,-1.0134,13.1515,47.0616,-0.4051,-0.615,-0.3745,199.4375
12:58:40:579,1.5707,-0.7715,11.9628,46.8208,-0.1646,-0.4749,-0.2856,199.8281
12:58:40:593,2.52,-0.2089,10.1336,45.8931,-0.0461,-0.5538,-0.3561,200.3438
12:58:40:611,2.9689,0.0616,9.4381,46.0335,-0.1401,-0.7309,-0.6137,200.7188
12:58:40:636,2.3656,-0.2209,9.4979,47.7463,-0.3097,-0.6824,-0.8901,201.0625
12:58:40:649,1.2415,-0.428,9.3734,45.4972,-0.4149,-0.4033,-0.9929,202.0312
12:58:40:671,0.467,-0.3825,8.8275,47.925,-0.3944,-0.1133,-0.9322,203.0312
12:58:40:692,0.0863,-0.2209,8.2948,44.7251,-0.2698,-0.0241,-0.8185,204.2188
12:58:40:710,-0.5769,0.0317,8.3858,47.0451,-0.0767,-0.1032,-0.6688,205.3281
12:58:40:730,-0.5398,0.3346,7.8651,45.4054,0.2112,-0.1884,-0.4307,206.25
12:58:40:750,-0.1795,1.0074,7.3982,46.708,0.5073,-0.386,-0.2193,207.0156
12:58:40:771,0.1976,1.5604,6.9194,46.9816,0.6887,-0.403,-0.1649,207.4844
12:58:40:794,0.2455,1.9543,6.2406,46.8047,0.6706,-0.1916,-0.1841,207.6719
12:58:40:810,0.4251,2.1793,6.2155,45.3384,0.4674,-0.0347,-0.2121,207.7969
12:58:40:837,0.1869,2.4594,7.1576,47.3412,0.2642,0.1861,-0.2469,207.9219
12:58:40:849,0.1952,2.1721,8.2661,46.3366,0.1763,0.4446,-0.2533,208.1094
12:58:40:871,-0.4739,1.9938,9.037,46.796,0.1582,0.8441,-0.1987,208.3438
12:58:40:894,-1.0976,1.9579,9.2322,46.7778,0.1587,1.3056,-0.0238,208.5938
12:58:40:911,-2.0757,1.2504,9.5925,47.8415,0.1427,1.5661,0.192,208.7656
12:58:40:932,-2.0481,1.1618,10.3335,47.254,0.0043,1.2332,0.7486,208.7656
12:58:41:001,-1.6471,1.6777,12.183,46.6757,-0.1665,0.699,0.8569,208.4062
12:58:41:002,-1.6088,1.6586,14.1546,47.288,-0.3065,0.6095,0.8242,206.9375
12:58:41:002,-1.8578,1.1187,14.5401,46.9323,-0.3385,0.7211,0.8452,205.9219
12:58:41:016,-1.6842,0.8673,15.2416,46.3052,-0.29,0.4497,0.9339,205.9219
12:58:41:029,-1.3071,0.2843,16.4938,47.9594,0.0445,-0.0981,0.9723,204.9688
12:58:41:049,-0.9241,-0.1562,16.2137,46.7526,0.6525,-0.4491,1.0415,203.9844
12:58:41:069,-0.2836,0.3142,13.0928,47.9847,1.1686,-0.3562,1.14,202.9531
12:58:41:093,0.4921,1.3258,9.3387,47.3105,1.2032,-0.3306,1.0767,201.8438
12:58:41:109,1.0488,1.6897,7.5083,46.5093,0.8378,-0.4965,0.7842,200.6562
12:58:41:128,1.1601,1.4048,7.5,49.1221,0.395,-0.679,0.4484,199.3906
12:58:41:149,1.1074,0.7584,8.1344,47.5592,0.1214,-0.7402,0.1784,198.1406
12:58:41:169,0.631,0.3837,8.4457,47.9281,0.0344,-0.5743,0.0607,197.2344
12:58:41:191,0.3269,0.2711,7.8842,48.1093,0.0522,-0.1908,0.0907,196.7812
12:58:41:208,0.2168,0.3921,6.7242,47.5252,0.0724,0.2132,0.181,196.5938
12:58:41:229,0.4143,0.6889,6.0562,48.1803,0.0389,0.3807,0.229,196.5625
12:58:41:249,0.0947,0.6865,6.3926,48.7858,-0.004,0.4361,0.1965,196.4219
12:58:41:270,-0.7828,0.3633,7.2677,48.5844,0.0652,0.618,0.27,196.1406
12:58:41:305,-1.0114,0.3394,7.9764,49.465,0.2594,0.8439,0.502,195.8594
12:58:41:309,0.0001,0.8649,7.7178,47.5471,0.489,1.0319,0.7054,195.5781
12:58:41:329,1.2774,1.8884,6.4704,48.9127,0.5675,1.0457,0.6788,195.1094
12:58:41:349,1.7132,2.8401,6.0048,48.3979,0.3814,0.8244,0.3962,194.2969
12:58:41:369,1.1517,2.8054,6.6871,48.7146,0.0554,0.6454,-0.0152,193.3438
12:58:41:391,0.3006,2.4008,7.6268,49.3784,-0.2629,0.6228,-0.2909,192.9375
12:58:41:409,0.0169,2.05,8.9676,49.2779,-0.5292,0.5751,-0.4432,192.4219
12:58:41:429,-0.4129,1.5712,10.6148,49.0161,-0.6743,0.4199,-0.6019,192.375
12:58:41:449,-1.0976,0.9224,12.1962,49.1817,-0.6605,0.2305,-0.6579,192.6562
12:58:41:468,-1.9045,0.574,13.3837,48.6978,-0.4663,0.0713,-0.5314,193.0781
12:58:41:490,-1.6615,0.8422,12.6858,51.0117,-0.1808,0.0236,-0.2653,193.7344
12:58:41:509,-0.5434,1.6873,10.604,51.0669,-0.1265,-0.0981,-0.1351,194.4531
12:58:41:529,0.0683,2.086,9.9061,49.9665,-0.4951,-0.4704,-0.3351,195.2188
12:58:41:549,-0.0538,1.3892,11.7497,49.9814,-0.9992,-0.8528,-0.632,195.3906
12:58:41:569,-0.7648,0.2664,14.6,50.7548,-1.3036,-0.8478,-0.7937,195.6406
12:58:41:589,-1.0653,0.1347,14.6203,49.7154,-1.3103,-0.4142,-0.7191,196.2031
12:58:41:609,-0.292,0.847,12.7983,50.524,-1.2192,-0.231,-0.688,197.0938
12:58:41:629,0.3161,1.1091,11.4743,50.289,-1.1388,-0.4198,-0.8523,198.0156
12:58:41:649,0.5699,0.9523,11.0877,50.0285,-0.9952,-0.7066,-1.047,198.7656
12:58:41:669,0.0839,0.6363,11.4719,51.3169,-0.7225,-0.8251,-1.158,199.6406
12:58:41:691,-0.626,0.3107,11.5007,49.549,-0.2961,-0.6558,-1.0627,200.75
12:58:41:708,-0.6798,0.2424,10.877,48.9646,0.2248,-0.3357,-0.807,202.0469
12:58:41:730,-0.2118,0.1035,9.383,50.2732,0.7193,0.0263,-0.5404,203.2812
12:58:41:749,-0.2333,0.1873,7.8782,48.7753,1.0376,0.3149,-0.3266,204.3438
12:58:41:769,-0.3878,0.234,7.0008,47.7323,1.1574,0.5861,-0.1636,205.3438
12:58:41:791,-0.2273,0.3502,6.1508,47.7586,1.1811,0.8244,-0.0219,205.6406
12:58:41:809,-0.0729,0.6255,5.575,50.0565,1.138,0.8553,0.0641,205.7812
12:58:41:830,-0.0837,0.9056,5.7307,48.6031,1.0674,0.6779,0.1001,205.7656
12:58:41:849,0.1091,0.9583,6.1772,49.1314,1.0394,0.3666,0.078,205.7188
12:58:41:869,-0.1112,1.1738,6.3639,48.7159,0.991,0.0902,0.0212,205.5625
12:58:41:890,-0.353,1.3461,6.802,48.9424,0.8296,-0.0904,-0.0168,205.4219
12:58:41:908,-0.5709,1.5676,7.5706,49.452,0.5547,-0.0278,-0.023,205.3438
12:58:41:930,-0.7182,1.673,8.5127,48.9908,0.2402,0.2359,-0.0086,205.3438
12:58:41:948,-1.1192,1.6358,9.6476,50.302,0.0053,0.4715,0.0005,205.375
12:58:41:969,-2.0314,1.4671,10.5621,47.1888,-0.0466,0.5048,0.0772,205.375
12:58:41:990,-2.4384,1.4754,11.1331,48.1438,0.0413,0.3235,0.2604,205.3594
12:58:42:008,-2.0302,1.4323,11.1355,49.1398,0.1108,0.1232,0.4532,205.2812
12:58:42:028,-1.4687,1.4958,11.1834,49.1252,-0.0056,0.0374,0.5994,205.0469
12:58:42:048,-0.8666,1.5221,11.5797,48.8284,-0.2186,0.1011,0.6921,204.375
12:58:42:069,-0.4823,1.4299,12.5338,46.6025,-0.3843,0.0902,0.6734,203.6719
12:58:42:090,-0.5362,1.0181,13.9583,48.2478,-0.3364,-0.0177,0.5832,202.875
12:58:42:108,-0.693,0.4459,13.9104,47.4985,-0.0423,-0.0861,0.5054,202.125
12:58:42:129,-0.7912,0.2843,12.4967,47.4985,0.2386,-0.2076,0.4513,201.4688
12:58:42:148,-0.2561,0.4016,10.8985,47.3238,0.2823,-0.3823,0.3904,200.8906
12:58:42:169,0.2742,0.6411,10.1659,48.2139,0.0714,-0.5178,0.2433,200.3906
12:58:42:191,0.3473,0.7284,10.4352,45.0212,-0.1931,-0.5133,0.0886,200
12:58:42:211,0.1294,0.7799,10.0893,46.8985,-0.3212,-0.3426,0.0069,199.7656
12:58:42:229,0.0217,1.0086,9.0071,46.1191,-0.3345,-0.2424,0.0239,199.7031
12:58:42:248,0.0899,1.2432,8.1081,45.6351,-0.3007,-0.3232,0.0404,199.7344
12:58:42:268,0.206,1.2851,7.7142,46.7811,-0.2503,-0.4659,0.0612,199.7344
12:58:42:289,0.2096,1.1355,7.5622,46.3759,-0.2365,-0.5101,0.0599,199.7188
12:58:42:309,-0.6906,0.7655,7.567,45.9817,-0.2453,-0.3825,0.1027,199.6875
12:58:42:329,-0.5099,1.0337,7.2126,44.6144,-0.0895,0.1,0.4628,199.6719
12:58:42:355,-0.0861,1.5377,6.6716,44.2603,0.0266,0.1813,0.5557,199.5781
12:58:42:372,0.1079,1.9531,6.668,45.7822,0.1007,0.0859,0.5273,198.7969
12:58:42:391,0.1534,2.1171,7.0546,44.5794,0.2008,-0.0768,0.4396,198.1406
12:58:42:419,0.0648,2.3421,7.379,44.8866,0.2863,-0.2198,0.3288,197.5312
12:58:42:431,-0.2453,2.4738,7.7789,45.4202,0.2961,-0.2358,0.2279,197.5312
12:58:42:448,-0.4596,2.4547,8.0375,44.1255,0.2171,-0.1506,0.1618,197.0469
12:58:42:468,-0.3602,2.3637,8.8024,43.0662,0.0474,-0.0515,0.1123,196.6875
12:58:42:488,0.0264,2.1087,9.8403,41.9773,-0.1135,0.0196,0.0346,196.4219
12:58:42:515,0.1605,1.5904,10.9823,43.0662,-0.2288,-0.0102,-0.0762,196.2344
12:58:42:529,0.1629,0.8242,12.2848,42.1085,-0.2834,-0.0861,-0.1204,196.125
12:58:42:548,0.5316,0.2711,13.1682,41.8312,-0.2429,-0.1048,-0.0365,196.0781
12:58:42:568,1.6126,0.1886,12.8127,40.612,-0.2125,-0.0528,0.0516,196.1875
12:58:42:589,2.3069,0.2723,12.3769,41.526,-0.3595,-0.0715,-0.0334,196.3281
12:58:42:610,2.3979,-0.2245,13.1455,42.2532,-0.6155,-0.1887,-0.2592,196.3438
12:58:42:629,1.3289,-1.1295,14.6538,41.1276,-0.6826,-0.1335,-0.3937,196.3438
12:58:42:648,0.5137,-1.5018,13.999,40.669,-0.436,0.2231,-0.2507,196.5312
12:58:42:668,0.892,-0.8984,11.3403,41.8264,-0.1204,0.3703,0.0423,196.9844
12:58:42:688,2.5452,0.1359,8.8503,42.0913,-0.0016,0.1128,0.1206,197.4219
12:58:42:709,3.3257,0.8984,8.1189,40.4633,-0.1313,-0.3058,-0.1319,197.5469
12:58:42:728,3.0252,0.9068,8.7354,40.4516,-0.3183,-0.4459,-0.4539,197.3906
12:58:42:750,2.1645,0.7572,8.8503,39.1001,-0.3728,-0.1791,-0.6475,197.3594
12:58:42:768,1.4139,0.8661,8.0399,39.3814,-0.3041,0.1437,-0.701,197.7188
12:58:42:792,1.0248,0.9786,6.9457,40.0135,-0.1965,0.2468,-0.7122,198.3906
12:58:42:809,0.5903,1.2133,6.4166,37.8727,-0.0938,0.1067,-0.7031,199.2031
12:58:42:828,0.5173,1.3126,6.4118,38.7139,0.0522,-0.1831,-0.6589,199.6094
12:58:42:849,0.2,1.6275,7.3503,37.713,0.2911,-0.6094,-0.6035,200.3906
12:58:42:869,-0.0993,1.8705,8.4935,39.3683,0.6842,-0.9556,-0.5703,201.2031
12:58:42:892,-0.3578,1.9004,8.4038,38.1537,1.0527,-1.0771,-0.5415,201.9531
12:58:42:912,-0.2321,2.0153,7.6879,38.8271,1.1097,-0.9458,-0.4805,202.6406
12:58:42:928,-0.3327,2.3481,7.4724,37.562,0.8099,-0.6465,-0.4294,203.25
12:58:42:949,-0.5039,2.3553,8.2781,37.438,0.3787,-0.2401,-0.3402,204.0938
12:58:42:968,-0.462,2.4331,9.3531,37.4493,0.0597,0.1424,-0.2227,204.5938
12:58:42:989,-0.268,2.3936,10.3993,37.5323,-0.0903,0.4252,-0.1159,204.9844
12:58:43:009,-0.2417,2.0812,11.3175,38.2833,-0.1076,0.5962,0.0026,205.2812
12:58:43:072,-0.3602,1.8154,11.849,38.3841,-0.0522,0.589,0.1438,205.4531
12:58:43:073,-0.4344,1.2863,12.6702,37.3046,0.0053,0.4833,0.3027,205.4844
12:58:43:073,-0.2884,1.0433,13.3442,37.4421,0.0565,0.4947,0.5126,205.375
12:58:43:090,-0.055,1.3677,12.7792,36.0825,0.0661,0.6633,0.6793,205.0781
12:58:43:108,0.1462,1.9806,11.6982,36.774,-0.0938,0.6886,0.6969,204.6094
12:58:43:129,0.2156,1.9447,12.1255,38.1915,-0.3697,0.4257,0.5717,203.875
12:58:43:148,-0.5482,1.0481,13.9966,36.9899,-0.3659,0.0239,0.4556,203.0156
12:58:43:168,-1.513,0.3059,13.9164,37.5351,0.0581,-0.1005,0.5334,202.2344
12:58:43:188,-1.5178,0.5381,11.2445,36.3862,0.4218,-0.0129,0.7675,201.7031
12:58:43:209,-0.3997,1.5018,8.5702,37.1391,0.3318,-0.0523,0.8748,200.8594
12:58:43:232,0.6454,2.1314,8.1703,37.2439,-0.0791,-0.305,0.7065,200
12:58:43:248,0.7938,1.8034,9.8547,35.9048,-0.3601,-0.6145,0.3962,198.9844
12:58:43:268,0.3616,1.0541,10.7956,37.1307,-0.2796,-0.6233,0.168,198.2031
12:58:43:288,-0.2956,0.5321,9.7337,37.3948,-0.049,-0.3152,0.1382,197.9531
12:58:43:313,-0.4668,0.5118,7.8196,38.1559,0.1025,0.0614,0.2617,197.7344
12:58:43:329,-0.0202,0.9284,6.0203,36.5154,0.0746,0.308,0.3714,197.625
12:58:43:352,0.4359,1.4156,5.6768,36.6285,-0.0908,0.3016,0.3605,197.4219
12:58:43:368,0.7842,1.667,6.5902,36.9175,-0.2051,0.2284,0.2639,197.0156
12:58:43:389,0.3233,1.5054,7.549,35.6703,-0.1521,0.2209,0.14,196.5781
12:58:43:415,-0.7349,1.0193,8.0698,35.8893,-0.0205,0.2532,0.136,196.2188
12:58:43:434,-0.8223,0.8206,8.2194,37.6265,0.1036,0.2604,0.3014,196
12:58:43:448,0.0013,1.1438,8.4744,38.6032,0.1691,0.2446,0.4066,195.8594
12:58:43:468,0.5328,1.4311,8.7521,36.7662,0.1523,0.2865,0.3579,195.6094
12:58:43:487,0.4993,1.4024,9.2573,37.6051,0.082,0.4279,0.2455,194.9062
12:58:43:508,0.0648,1.1606,9.5015,35.3794,0.0474,0.5948,0.1893,194.5
12:58:43:528,0.0241,1.0588,9.2166,36.9603,0.0336,0.6234,0.2055,194.1875
12:58:43:549,0.5651,1.1762,9.28,37.4337,-0.0559,0.3821,0.181,193.9375
12:58:43:571,1.0248,1.0181,10.8135,36.5945,-0.1656,-0.0321,0.041,193.6719
12:58:43:597,0.3976,0.331,13.0389,38.8835,-0.1486,-0.3205,-0.0802,193.4531
12:58:43:612,-0.0107,-0.0928,14.3246,36.6606,0.0919,-0.2385,0.0615,193.4062
12:58:43:630,0.5292,0.3358,12.7241,35.9711,0.3755,0.124,0.3022,193.5312
12:58:43:648,1.1673,1.3402,10.2413,36.7622,0.3635,0.1933,0.3477,193.4688
12:58:43:668,1.7168,1.5939,9.7314,37.5737,0.0626,-0.1048,0.1443,193.0938
12:58:43:688,1.5707,0.9236,11.2672,36.7622,-0.232,-0.3311,-0.1133,192.6719
12:58:43:712,1.1026,0.4567,11.126,36.8399,-0.126,-0.047,-0.1258,192.5156
12:58:43:729,1.8377,0.9403,9.1843,37.3197,-0.0549,-0.0885,-0.1183,192.5156
12:58:43:749,2.3823,1.1965,8.0015,38.52,-0.1603,-0.2973,-0.2938,192.9219
12:58:43:768,2.0974,1.0457,7.5131,37.5364,-0.3585,-0.3863,-0.529,192.9219
12:58:43:788,1.5444,0.8685,6.9505,37.8553,-0.5446,-0.2736,-0.6717,193.2031
12:58:43:808,1.0895,0.9954,6.419,37.2779,-0.6996,-0.1301,-0.7473,193.5625
12:58:43:828,0.7196,1.1307,6.6871,37.6734,-0.8157,-0.0182,-0.8328,194.2031
12:58:43:848,0.3688,1.1067,7.215,36.4398,-0.7944,0.1291,-0.893,194.9844
12:58:43:868,-0.2728,1.1869,7.306,36.5213,-0.6541,0.2846,-0.8829,195.875
12:58:43:890,-0.7744,1.4934,6.9014,35.1051,-0.4943,0.3946,-0.7852,196.8906
12:58:43:909,-0.9492,1.9758,6.5004,36.8739,-0.391,0.3706,-0.6707,197.8906
12:58:43:927,-0.8905,2.4571,7.1875,36.6626,-0.3401,0.1501,-0.603,198.9375
12:58:43:947,-0.6751,2.6833,8.8024,35.4554,-0.1808,-0.1442,-0.6099,199.8594
12:58:43:967,-1.021,2.3876,10.4795,36.3172,0.0642,-0.4385,-0.6707,200.6094
12:58:43:987,-1.7764,1.5772,11.7209,34.6535,0.3492,-0.5983,-0.6408,201.3125
12:58:44:012,-2.5665,1.23,11.8981,34.8574,0.5508,-0.5058,-0.4363,202.0156
12:58:44:029,-2.3725,1.1702,11.6276,35.9235,0.5995,-0.3748,-0.1354,202.7812
12:58:44:048,-1.7536,1.4431,11.5222,34.7694,0.452,-0.2414,0.0884,203.75
12:58:44:068,-1.2281,1.4551,12.8127,36.1744,0.2189,-0.1767,0.1986,204.0469
12:58:44:090,-1.1778,0.9176,14.3976,35.3434,0.1627,-0.0393,0.2841,204.0156
12:58:44:111,-1.2042,0.5273,14.3222,34.4704,0.2615,0.1725,0.442,203.8281
12:58:44:129,-0.7062,0.7213,13.1718,36.3195,0.261,0.2417,0.6013,203.5625
12:58:44:148,0.036,0.8745,12.8977,35.9761,0.1223,0.1118,0.6252,203.1406
12:58:44:167,0.2539,0.5237,13.8087,34.8795,0.0799,-0.0757,0.54,202.5312
12:58:44:188,-0.3076,-0.0269,13.7381,36.1582,0.2855,-0.137,0.4964,201.7812
12:58:44:210,-0.4392,-0.0581,11.9292,38.4076,0.5595,-0.1255,0.6079,201.1094
12:58:44:227,0.394,0.653,9.6787,36.408,0.5494,-0.1682,0.6852,200.5469
12:58:44:249,1.1158,1.0565,9.3064,37.9371,0.2464,-0.3564,0.5286,200.25
12:58:44:267,1.2176,0.6985,10.1563,38.249,-0.0474,-0.4765,0.271,199.5156
12:58:44:289,0.716,0.234,10.4819,39.1451,-0.1752,-0.3721,0.1014,198.7031
12:58:44:309,0.1593,0.0078,9.8176,39.1451,-0.1523,-0.1876,0.0724,198.125
12:58:44:328,-0.2561,-0.0521,8.6228,38.7626,-0.0181,-0.0472,0.1629,197.8438
12:58:44:353,-0.2932,0.0952,7.2486,38.6037,0.1579,-0.0049,0.319,197.7344
12:58:44:367,0.0169,0.343,6.0539,39.604,0.3113,-0.1101,0.4516,197.6406
12:58:44:389,0.443,0.7632,5.5427,40.7411,0.3843,-0.3439,0.5006,197.3594
12:58:44:421,0.8201,0.8829,5.8228,41.2521,0.4029,-0.5162,0.4676,196.8906
12:58:44:428,0.9422,0.8673,6.1939,38.5719,0.4112,-0.4909,0.4292,196.3438
12:58:44:448,0.7339,1.005,6.6488,40.9282,0.4067,-0.2893,0.4311,195.7656
12:58:44:468,0.856,1.2085,7.0091,40.4195,0.4104,-0.0475,0.4703,195.2344
12:58:44:513,1.384,1.6765,6.9373,41.0167,0.3622,0.1189,0.4774,194.7344
12:58:44:513,1.7227,2.1326,7.3647,41.3781,0.1878,0.1789,0.3608,194.2188
12:58:44:527,1.7144,2.0488,8.4505,40.2887,-0.0232,0.1642,0.1557,193.6094
12:58:44:547,1.3612,1.6562,10.0905,43.3092,-0.163,0.157,-0.0051,193.0625
12:58:44:567,1.2882,1.4443,11.673,41.3935,-0.1499,0.1373,-0.0656,192.75
12:58:44:588,1.9981,1.5904,13.1922,42.6875,0.0224,0.0345,-0.1258,192.6875
12:58:44:610,1.9143,1.7687,13.6028,45.3164,0.2751,-0.0792,-0.2824,192.7969
12:58:44:628,0.9614,1.9914,13.197,43.3239,0.4304,-0.0891,-0.3378,192.9219
12:58:44:648,0.9889,2.3158,12.189,43.3233,0.3673,-0.0046,-0.2491,193.2188
12:58:44:668,1.39,2.7491,12.4476,43.602,0.0964,-0.0981,-0.2848,193.5625
12:58:44:689,1.1613,2.3158,14.4659,44.9586,-0.1435,-0.2283,-0.4422,193.7031
12:58:44:711,0.6166,1.2911,16.2496,45.1045,-0.0543,-0.0552,-0.4656,193.9375
12:58:44:729,0.6082,0.9068,14.7735,46.9598,0.3276,0.4718,-0.2392,194.375
12:58:44:748,1.4163,1.6622,10.4341,45.7824,0.595,0.8737,-0.0086,194.9531
12:58:44:768,2.2746,2.3733,6.5842,48.1514,0.429,0.8295,-0.0211,195.3438
12:58:44:789,2.4458,2.4355,5.6265,47.4287,-0.0732,0.5759,-0.2022,195.3438
12:58:44:810,2.3189,2.0369,7.0271,45.8287,-0.5137,0.4106,-0.3322,195.1875
12:58:44:831,1.8149,1.7556,8.6887,47.358,-0.6032,0.3866,-0.3737,195.2188
12:58:44:848,1.7036,1.5748,8.9042,47.4355,-0.4032,0.4521,-0.3708,195.5
12:58:44:868,1.9837,1.3366,8.0901,48.7097,-0.1744,0.5999,-0.3788,195.9375
12:58:44:887,2.1298,0.7703,6.8763,50.2528,-0.0844,0.6934,-0.4312,196.5469
12:58:44:911,1.6844,0.5704,6.5914,50.5063,-0.2061,0.8127,-0.5258,196.9375
12:58:44:931,0.7651,0.1885,6.2765,49.486,-0.3212,0.8167,-0.5726,197.375
12:58:44:947,0.0947,-0.1538,6.3531,50.3626,-0.3925,0.5485,-0.448,197.9219
12:58:44:967,-0.2429,-0.1873,6.905,50.0171,-0.3971,0.246,-0.1638,198.5
12:58:44:988,-0.3674,0.2843,8.5079,50.8795,-0.3217,0.206,0.1826,198.9844
12:58:45:009,-0.0466,0.6458,9.3267,50.5437,-0.0344,0.6012,0.507,199.1562
12:58:45:031,0.3018,1.169,9.0203,51.6957,0.3728,1.0199,0.7115,198.9531
12:58:45:048,0.2671,2.0488,7.6161,52.3663,0.7153,0.9751,0.6969,198.3438
12:58:45:072,0.0372,2.8497,6.4597,52.0309,0.7563,0.1818,0.4857,197.4531
12:58:45:095,0.1629,3.0005,7.1157,51.6415,0.5768,-0.7953,0.1563,196.6406
12:58:45:167,0.4514,2.4187,11.3582,51.9346,0.2956,-1.2909,-0.1561,196.0781
12:58:45:167,0.0073,2.1817,11.8957,52.3897,0.1049,-1.0971,-0.3947,195.9688
12:58:45:168,-0.0969,1.7867,11.2361,51.7509,0.123,-0.2022,-0.5937,196.0781
12:58:45:168,-0.0262,1.5604,10.61,54.4461,0.0509,-0.1202,-0.4478,196.7969
12:58:45:191,-0.3195,1.6155,11.3091,52.5875,-0.036,-0.4371,-0.346,197.5469
12:58:45:209,-0.1483,1.6239,12.3769,53.7843,-0.0972,-0.7122,-0.4011,198.7344
12:58:45:227,-0.2561,1.1546,13.1527,52.9555,-0.1238,-0.6409,-0.5809,198.7344
12:58:45:247,-0.5901,0.325,12.8175,54.541,-0.0921,0.042,-0.6728,199.1875
12:58:45:266,-1.4244,0.2472,10.8482,53.336,-0.1856,0.6487,-0.4837,199.7188
12:58:45:287,-1.446,0.6913,9.1436,55.0055,-0.4485,1.0092,-0.2384,200.4531
12:58:45:310,-1.9416,1.0517,8.3571,54.6194,-0.7377,1.054,-0.0813,201.1719
12:58:45:331,-1.756,1.1247,8.5558,53.9553,-0.9185,0.7754,0.0705,201.6719
12:58:45:347,-1.3059,1.2181,8.6588,53.7361,-0.9052,0.5648,0.14,201.875
12:58:45:366,-1.1539,1.254,8.4433,54.7077,-0.7816,0.5288,0.1485,201.8906
12:58:45:387,-0.8546,1.0852,7.8292,55.7,-0.6032,0.5546,0.2308,201.75
12:58:45:410,-0.292,1.2755,7.2258,54.7283,-0.4799,0.6577,0.3384,201.5625
12:58:45:431,0.23,1.5509,6.6991,55.8903,-0.4501,0.7384,0.2524,201.3594
12:58:45:448,-0.2621,1.5305,6.4453,55.7793,-0.4471,0.6777,0.0095,200.8594
12:58:45:467,-1.1216,1.1271,6.2825,56.2946,-0.4045,0.5054,-0.1543,200.4531
12:58:45:487,-1.622,0.6351,6.2741,56.5883,-0.3316,0.3751,-0.1564,200.2656
12:58:45:510,-1.9883,0.41,6.5531,56.2902,-0.2866,0.193,-0.085,200.3438
12:58:45:527,-2.4635,0.3897,7.306,56.681,-0.2719,-0.0326,0.0577,200.5
12:58:45:546,-2.4384,0.4699,8.3248,56.3456,-0.2562,-0.1711,0.242,200.625
12:58:45:569,-2.1702,0.8829,9.8666,56.7335,-0.1952,-0.3042,0.3672,200.6406
12:58:45:588,-1.5717,1.1941,11.8311,56.7134,-0.0224,-0.452,0.3454,200.4531
12:58:45:609,-0.9899,0.8362,12.6595,55.6969,0.2264,-0.5676,0.1888,200.0781
12:58:45:628,-1.179,0.6123,12.7564,56.3565,0.306,-0.6819,0.0686,199.875
12:58:45:647,-1.1814,0.6099,13.513,55.2793,0.122,-0.6494,0.0745,199.5
12:58:45:667,-0.5099,0.6028,14.734,55.3431,-0.0621,-0.2704,0.1832,199.2969
12:58:45:686,0.3341,0.7572,14.0972,56.8874,-0.0354,0.2002,0.2346,199.2344
12:58:45:706,0.3808,1.1163,12.3662,56.9438,0.0623,0.2297,0.1544,199.1562
12:58:45:727,0.2994,1.2983,11.2134,56.8186,0.025,-0.1482,0.0098,198.9531
12:58:45:746,0.0779,0.9164,11.7161,55.3376,-0.1334,-0.5977,-0.1697,198.5938
12:58:45:767,-0.5386,-0.076,12.4212,55.1884,-0.2013,-0.6587,-0.191,198.4844
12:58:45:788,-0.7612,-0.2005,11.9687,56.7866,-0.1167,-0.4915,0.0567,198.5938
12:58:45:811,0.6214,0.1742,10.8722,57.1994,0.0607,-0.4949,0.3009,198.8438
12:58:45:828,2.4135,0.6961,9.9325,55.2178,0.2277,-0.7085,0.2745,198.9531
12:58:45:847,3.3963,0.9176,8.9556,57.9177,0.3113,-0.9296,-0.04,198.7344
12:58:45:867,3.1736,0.7141,7.986,56.5989,0.2264,-0.9775,-0.4635,198.3594
12:58:45:887,2.1944,0.3238,7.2713,56.3604,0.0032,-0.7788,-0.7764,198.2031
12:58:45:910,1.0596,0.0102,6.7865,55.618,-0.2269,-0.4526,-0.888,198.5
12:58:45:928,0.2958,-0.0042,6.5459,55.21,-0.3689,-0.2171,-0.8304,199.25
12:58:45:946,0.0384,0.1885,6.4549,56.8367,-0.3672,-0.1431,-0.7058,200.25
12:58:45:967,-0.0825,0.4268,6.2669,54.3572,-0.2663,-0.1857,-0.5934,201.2344
12:58:45:986,-0.3351,0.5836,5.7546,54.6547,-0.1478,-0.2012,-0.4951,202.1406
12:58:46:009,-0.8546,0.4771,4.664,55.8497,-0.1478,-0.1783,-0.3639,203.2031
12:58:46:027,-1.0282,0.6985,4.0523,56.1005,-0.3617,-0.1958,-0.1385,203.7812
12:58:46:051,-0.2968,1.5532,4.9477,54.5084,-0.7401,-0.227,0.0556,204.2031
12:58:46:067,0.5041,2.42,7.5011,54.9202,-1.0626,-0.1761,-0.0187,204.3906
12:58:46:087,0.7866,2.22,10.9021,54.6733,-1.1017,-0.0893,-0.326,204.3906
12:58:46:109,-0.4344,1.1881,14.0984,56.3103,-0.7832,0.0667,-0.5729,204.3906
12:58:46:128,-2.0876,0.3753,15.1446,55.0614,-0.2277,0.2622,-0.4994,204.6406
12:58:46:146,-3.0142,-0.0257,14.5353,56.3641,0.2117,0.1288,-0.1862,205.2656
12:58:46:167,-2.7975,-0.0605,14.5042,54.8636,0.4051,-0.1855,0.196,205.9375
12:58:46:187,-1.689,-0.0138,14.916,53.9621,0.4442,-0.2704,0.4897,206.3594
12:58:46:207,-0.5194,0.0868,14.7185,56.3661,0.436,-0.1088,0.6268,206.3281
12:58:46:231,0.1976,0.2245,13.9248,55.2956,0.3571,0.1054,0.6426,205.8906
12:58:46:246,0.5209,0.2508,13.495,54.8196,0.225,0.2106,0.6095,205.1875
12:58:46:267,0.5843,0.0186,13.2676,54.7607,0.1356,0.1956,0.5496,204.4219
12:58:46:287,0.461,-0.4387,13.2843,54.3807,0.1963,0.0494,0.499,203.375
12:58:46:310,0.1078,-0.8434,12.8426,54.8287,0.4591,-0.0805,0.5078,202.7344
12:58:46:326,0.2228,-1.054,10.962,56.5092,0.7662,-0.1471,0.5749,202.1562
12:58:46:346,0.7519,-0.6626,8.4505,54.758,0.7971,-0.296,0.5962,201.5781
12:58:46:366,1.3109,-0.0856,7.306,56.568,0.4634,-0.5556,0.486,200.8594
12:58:46:387,1.4606,0.1035,7.8423,57.5249,0.012,-0.6571,0.2681,200.125
12:58:46:408,1.0093,-0.0114,8.4816,56.4263,-0.2724,-0.4419,0.0849,199.5469
12:58:46:426,0.4658,-0.2652,8.2685,56.963,-0.3148,-0.1088,0.0284,199.2656
12:58:46:446,0.0097,-0.4375,7.3515,57.059,-0.1989,0.1677,0.0998,199.1875
12:58:46:466,-0.1567,-0.3849,6.3268,57.7609,-0.0357,0.2412,0.2788,199.1875
12:58:46:486,0.2012,0.0066,5.7211,56.4481,0.0842,0.1062,0.4468,199.0938
12:58:46:509,0.5939,0.5022,6.5123,56.2299,0.1467,-0.3295,0.3552,198.7812
12:58:46:529,0.03,0.1885,7.6364,57.8179,0.1555,-0.374,0.291,198.7812
12:58:46:548,-0.0957,0.0186,8.6552,56.9915,0.2344,-0.2382,0.3619,197.75
12:58:46:574,0.4323,0.1526,8.8527,56.9915,0.3505,-0.0757,0.4372,197.75
12:58:46:603,0.8824,0.5836,8.648,56.4054,0.3686,0.0303,0.3989,197.3281
12:58:46:608,1.0164,0.908,8.8874,57.7112,0.2448,0.0952,0.2599,196.5469
12:58:46:627,0.7423,0.9631,9.9349,58.4207,0.0842,0.1781,0.0838,196.0469
12:58:46:646,0.1773,0.4591,11.2026,58.2145,0.0266,0.2287,-0.0395,195.5469
12:58:46:666,-0.2681,-0.0078,12.092,58.3659,0.0554,0.2153,-0.0182,195.2188
12:58:46:686,0.0971,-0.3801,12.7445,58.8352,0.0786,0.145,0.082,195.125
12:58:46:706,0.7806,-0.6327,13.6662,57.9871,0.0783,0.1416,0.1728,195.1719
12:58:46:728,1.6354,-0.5142,13.5884,57.5046,0.1212,0.3594,0.2212,195.1875
12:58:46:748,2.1154,0.0629,12.1244,58.7044,0.082,0.5757,0.1587,195.0781
12:58:46:774,2.119,0.6542,11.1128,59.182,-0.1401,0.4628,-0.0208,194.875
12:58:46:785,2.2471,0.1383,11.8131,58.2402,-0.3571,0.0806,-0.2171,194.6094
12:58:46:807,2.2219,-0.647,12.4559,58.4983,-0.3473,-0.2435,-0.2954,194.4062
12:58:46:828,2.0711,-0.7931,12.0609,58.3762,-0.1611,-0.3812,-0.2054,194.4375
12:58:46:848,2.4961,-0.4854,10.9237,59.3039,0.0666,-0.4592,-0.0539,195.0625
12:58:46:867,3.1365,0.0652,9.1735,58.2108,0.1659,-0.5421,-0.0254,195.2188
12:58:46:886,3.3855,0.5237,7.9764,59.8195,0.0195,-0.5785,-0.1338,195.3594
12:58:46:907,3.115,0.7835,7.6316,59.1981,-0.2293,-0.3831,-0.3175,195.375
12:58:46:931,2.3608,0.9559,7.3515,59.5776,-0.376,-0.0105,-0.4962,195.4375
12:58:46:947,1.5635,0.9367,6.5303,59.3266,-0.3587,0.2556,-0.6099,195.5312
12:58:46:967,0.9554,0.8685,5.5271,58.3177,-0.2618,0.242,-0.6379,195.9219
12:58:46:987,0.6166,1.0517,5.2147,59.1026,-0.1646,-0.0627,-0.6041,196.5312
12:58:47:012,0.6992,1.2624,5.733,60.1174,-0.0706,-0.4174,-0.6065,197.2656
12:58:47:029,0.6705,1.2576,6.2382,59.2966,-0.0115,-0.5216,-0.681,197.9844
12:58:47:046,0.285,1.2348,6.6883,58.8208,-0.0394,-0.345,-0.7471,198.6875
12:58:47:066,-0.292,1.1522,7.3443,59.8249,-0.0882,-0.0749,-0.7583,200.1406
12:58:47:087,-0.7768,1.1929,7.8591,58.8678,-0.1204,0.1056,-0.6856,200.5625
12:58:47:111,-1.0426,1.2779,8.9437,57.4969,-0.1449,0.0771,-0.5833,201.4375
12:58:47:128,-1.009,1.3294,10.683,58.7329,-0.0828,0.0177,-0.4858,202.2812
12:58:47:146,-1.0988,1.1582,11.6767,57.5984,0.0471,0.0878,-0.4169,202.9844
12:58:47:166,-1.3227,0.9068,11.7257,57.032,0.0919,0.1917,-0.3095,203.6094
12:58:47:247,-1.2161,0.7787,11.9927,58.9561,-0.0346,0.2327,-0.1364,204.125
12:58:47:248,-0.4632,0.653,13.4292,59.5328,-0.2317,0.1573,0.029,204.5312
12:58:47:248,0.3664,0.6243,15.1602,57.2813,-0.2927,0.1336,0.1155,204.7812
12:58:47:248,0.7651,0.671,15.7492,56.8126,-0.1928,0.1733,0.1648,204.8438
12:58:47:265,1.2714,0.7871,15.6594,57.0804,-0.0932,0.1826,0.2119,204.7812
12:58:47:285,1.5767,0.6004,15.8114,56.79,-0.0104,0.1581,0.209,204.6406
12:58:47:305,1.4271,0.0652,15.8354,57.523,0.204,0.193,0.2268,204.4375
12:58:47:328,1.3397,-0.4986,14.1199,55.9752,0.5598,0.3349,0.3288,204.2031
12:58:47:346,1.4702,-0.5249,11.187,56.6652,0.799,0.3104,0.4439,203.8125
12:58:47:366,1.8844,-0.1957,8.9341,55.6008,0.7388,-0.0291,0.4585,203.3906
12:58:47:388,1.7982,0.2699,8.5307,56.1522,0.4466,-0.4795,0.3248,202.8125
12:58:47:411,1.4737,0.0162,9.5793,56.3326,0.1989,-0.6856,0.1707,202.2656
12:58:47:428,0.789,-0.319,9.8678,57.0862,0.1646,-0.5112,0.1054,202.0312
12:58:47:452,0.1964,-0.3418,8.9616,56.6489,0.2543,-0.174,0.1848,201.75
12:58:47:465,0.1078,-0.0892,7.579,55.2323,0.3736,0.0803,0.3286,201.6094
12:58:47:485,0.3772,0.3597,6.6692,56.1643,0.49,0.1062,0.4359,201.4531
12:58:47:507,0.8692,0.665,6.4238,55.221,0.6298,-0.0448,0.4274,201.1406
12:58:47:527,0.8429,0.5453,6.1879,54.4303,0.8008,-0.2752,0.3344,200.6406
12:58:47:554,0.1905,0.1718,5.9952,54.7108,0.9705,-0.5469,0.3201,200.0938
12:58:47:566,-0.1795,-0.0018,6.152,54.7111,1.1108,-0.7852,0.4649,199.5781
12:58:47:590,0.0384,0.1419,6.2514,54.5413,1.1968,-0.8478,0.6617,199.1562
12:58:47:613,0.6047,0.7069,6.0455,54.2119,1.1534,-0.8038,0.7496,198.6875
12:58:47:625,1.1326,1.3761,6.1281,54.0078,0.9348,-0.6944,0.6713,197.5
12:58:47:647,1.5983,1.6849,6.4046,55.4974,0.6101,-0.496,0.4742,196.5625
12:58:47:666,1.8089,1.8489,6.9086,54.5823,0.2192,-0.2227,0.2204,195.7656
12:58:47:685,1.8951,1.7508,7.5909,54.223,-0.2045,0.0681,-0.0219,195.1875
12:58:47:705,2.0208,1.5449,8.788,54.8453,-0.6024,0.205,-0.2307,194.9219
12:58:47:730,2.277,1.1893,10.4209,52.5768,-0.889,0.2207,-0.4232,194.9688
12:58:47:746,2.2495,0.6387,12.2704,53.4943,-1.0365,0.2915,-0.5862,195.2969
12:58:47:767,2.0711,0.1873,12.9695,52.6295,-1.0405,0.5866,-0.6438,195.9062
12:58:47:787,2.4338,0.1634,11.9376,52.4219,-1.0964,0.8399,-0.6459,196.7031
12:58:47:806,2.9498,0.4651,11.7173,53.1391,-1.4038,0.8436,-0.7599,197.5
12:58:47:826,3.2706,0.064,13.5764,52.6146,-1.7486,0.7964,-1.003,198.3438
12:58:47:845,2.3249,-1.0947,15.4726,52.1174,-1.7422,1.0462,-1.1444,199.3281
12:58:47:866,1.3457,-1.5951,14.8645,51.8432,-1.3484,1.4135,-0.9383,199.9531
12:58:47:887,1.7132,-1.4659,12.5302,52.2773,-0.89,1.5275,-0.5431,201.3281
12:58:47:907,3.8608,-0.3094,9.6284,52.1379,-0.6053,1.1429,-0.2081,203.2344
12:58:47:927,3.3736,0.2017,10.713,50.9372,-0.4237,-0.1668,-0.2968,203.9219
12:58:47:945,2.1513,-0.009,10.9751,52.0791,-0.1057,-0.2126,-0.432,203.9219
12:58:47:965,1.2882,-0.0497,9.6332,50.2887,0.2107,0.1456,-0.3649,204.375
12:58:47:985,1.105,0.2436,7.6281,50.4676,0.3784,0.4963,-0.2275,204.375
12:58:48:007,1.2247,0.7057,6.1628,51.8781,0.3787,0.5938,-0.1804,205.1875
12:58:48:028,1.2379,1.1786,5.6935,49.7287,0.2751,0.5182,-0.2208,205.6094
12:58:48:047,1.0021,1.3653,6.1832,53.0389,0.2232,0.3512,-0.3071,205.8594
12:58:48:066,0.6465,1.3007,6.6692,49.0594,0.3089,0.2313,-0.3681,206.0312
12:58:48:085,0.3461,1.3497,6.7649,47.9706,0.4402,0.2255,-0.378,206.2812
12:58:48:105,0.3221,1.5688,6.5375,48.6487,0.4871,0.2518,-0.3897,206.625
12:58:48:130,0.2742,1.9579,6.826,49.4191,0.396,0.2545,-0.4504,207.0469
12:58:48:150,0.1462,2.3852,7.6723,49.4998,0.2581,0.1757,-0.5561,207.4375
12:58:48:166,-0.2681,2.299,9.1424,49.0929,0.1965,-0.0417,-0.6981,208.375
12:58:48:185,-0.8067,2.0249,10.4795,47.8303,0.2418,-0.15,-0.7636,208.6719
12:58:48:205,-1.2545,1.8166,11.0793,48.234,0.2645,-0.0409,-0.7279,209.3438
12:58:48:226,-1.2748,1.6945,11.7113,48.2636,0.1667,0.173,-0.647,210.6406
12:58:48:246,-0.8846,1.5114,12.5517,48.5993,0.0354,0.4388,-0.5798,211.0625
12:58:48:265,-0.2609,1.4551,12.7217,49.649,-0.1273,0.5733,-0.5937,211.8125
12:58:48:285,0.0348,1.3833,13.1467,47.9484,-0.4176,0.4998,-0.7308,212.5
12:58:48:305,-0.6966,0.6842,14.7915,48.3445,-0.6863,0.3118,-0.8792,213.1406
12:58:48:325,-1.1288,-0.5812,16.9104,47.2524,-0.5742,0.0356,-0.8491,213.8281
12:58:48:347,-1.0677,-1.2611,17.7783,49.7568,-0.0602,-0.2334,-0.692,214.75
12:58:48:365,-0.5877,-1.2899,16.574,45.9697,0.5918,-0.2044,-0.5114,215.25
12:58:48:387,0.3904,-1.248,13.2113,46.6011,1.0365,0.014,-0.4339,216.2344
12:58:48:406,0.7615,-0.8374,10.1707,46.9325,1.0128,0.099,-0.5114,216.9844
12:58:48:428,0.7387,-0.7464,9.1136,46.8069,0.6445,0.1645,-0.6478,217.5625
12:58:48:446,0.2707,-0.8146,9.3112,45.6323,0.2618,0.3392,-0.6861,218.0625
12:58:48:466,0.0528,-0.7524,9.5614,46.0943,0.1361,0.5253,-0.6126,218.6562
12:58:48:486,0.0336,-0.5584,9.0717,46.3324,0.2517,0.6161,-0.5114,219.3594
12:58:48:506,0.2551,-0.3154,8.1081,44.4292,0.4549,0.5898,-0.424,220.4844
12:58:48:527,0.4502,0.0054,7.1013,44.2102,0.6117,0.4721,-0.3972,221.0625
12:58:48:545,0.4861,0.1526,6.1736,43.5671,0.7047,0.3541,-0.4363,221.5781
12:58:48:568,0.3521,0.2101,5.2901,44.9134,0.7164,0.2422,-0.4914,222.0156
12:58:48:585,0.1701,0.2831,4.676,44.7337,0.6253,0.1544,-0.5346,222.4844
12:58:48:605,-0.1064,0.3945,4.773,42.4999,0.4541,0.1147,-0.5497,223
12:58:48:626,-0.5733,0.5022,5.3117,43.7252,0.2985,0.108,-0.5351,223.6094
12:58:48:655,-0.7038,0.6135,5.7247,42.7666,0.2128,0.0849,-0.4911,224.25
12:58:48:665,-0.8103,0.8039,6.2813,43.6831,0.1372,0.0702,-0.4786,224.8438
12:58:48:685,-1.0414,0.987,7.1755,43.6831,0.0985,0.091,-0.4802,225.4375
12:58:48:706,-1.3191,1.1534,7.7142,42.5656,0.142,0.0966,-0.5085,225.9844
12:58:48:730,-1.6698,1.236,7.822,42.5583,0.1723,0.013,-0.5719,226.5156
12:58:48:746,-1.6112,1.3354,8.1332,44.3176,0.0866,-0.1178,-0.6339,227.0625
12:58:48:765,-1.1048,1.1534,9.1627,43.0992,-0.1156,-0.2896,-0.7577,228.0312
12:58:48:785,-0.8846,0.6315,10.9321,42.6861,-0.3422,-0.4166,-0.9263,228.7344
12:58:48:806,-1.209,-0.185,12.7923,42.8791,-0.4876,-0.3026,-0.9977,229.625
12:58:48:828,-1.4639,-0.5034,13.3957,43.3837,-0.4647,0.0196,-0.8581,230.7031
12:58:48:845,-0.6942,-0.1514,12.2812,42.9523,-0.3949,0.2018,-0.6994,231.2812
12:58:48:865,0.1282,0.3825,11.3893,41.66,-0.5113,0.0103,-0.7793,232.3125
12:58:48:886,0.8213,0.0712,12.7133,42.0124,-0.7577,-0.4262,-1.0818,233.1406
12:58:48:905,0.5244,-1.0014,15.2991,41.6222,-0.845,-0.5522,-1.3958,233.9062
12:58:48:929,-0.3949,-1.9411,16.0556,42.0604,-0.5531,-0.1634,-1.4414,234.9375
12:58:48:946,-0.3638,-1.8992,13.8123,39.8567,-0.0927,0.2652,-1.2041,236.2812
12:58:48:965,0.9362,-1.0995,10.9584,39.6745,0.1995,0.3014,-1.0147,237.9531
12:58:48:985,2.0627,-0.3537,9.2621,39.0169,0.2501,0.0148,-1.1607,239.4688
12:58:49:005,2.04,-0.2843,8.6145,40.5481,0.1758,-0.2177,-1.4957,240.625
12:58:49:029,1.1841,-0.5525,8.205,40.2808,0.1028,-0.1921,-1.7458,241.8281
12:58:49:047,0.3401,-0.7213,7.5323,39.4426,0.0855,0.0406,-1.794,244.2812
12:58:49:065,-0.0753,-0.5896,6.6069,41.2566,0.1143,0.2654,-1.6853,246.2031
12:58:49:085,0.0504,-0.2125,6.0898,41.2338,0.1451,0.2923,-1.5772,248.25
12:58:49:107,0.03,0.0533,6.1413,41.1018,0.1995,0.2063,-1.5548,250.1875
12:58:49:129,-0.3818,0.1419,6.1484,38.6762,0.3172,0.1192,-1.5367,251.8906
12:58:49:146,-0.7337,0.2257,5.8899,38.747,0.4312,0.0574,-1.463,253.6875
12:58:49:165,-0.9193,0.5034,5.6792,38.3021,0.4607,-0.0374,-1.3575,255.4688
12:58:49:185,-0.7708,0.8625,6.1604,38.9549,0.3989,-0.1753,-1.2848,257.0938
12:58:49:206,-0.5458,1.169,7.1025,38.1852,0.3137,-0.2851,-1.3045,258.6875
12:58:49:231,-0.9037,1.1845,8.3667,38.1945,0.24,-0.3567,-1.431,260.1875
12:58:49:249,-2.1271,0.6997,9.6583,38.1331,0.1614,-0.2896,-1.5189,261.7344
12:58:49:303,-3.4427,0.2759,10.6878,38.3319,0.0535,-0.0313,-1.4091,263.3125
12:58:49:303,-3.9827,0.1407,11.6527,37.835,-0.0354,0.2598,-1.1559,265.0781
12:58:49:317,-3.3602,0.1706,13.1203,36.6707,-0.0328,0.4111,-0.8965,266.7031
12:58:49:329,-3.2069,-0.1814,13.4316,37.0123,0.1723,0.1051,-0.6331,267.4062
12:58:49:347,-3.0537,-0.4639,13.8135,36.2318,0.2115,0.0076,-0.4922,268.9531
12:58:49:368,-2.6192,-0.2041,13.6938,36.0671,0.2392,0.0774,-0.3199,270.4844
12:58:49:385,-2.0601,0.1826,13.1407,36.4189,0.2844,0.0489,-0.2459,270.4844
12:58:49:405,-1.6016,0.2292,12.6463,37.4158,0.2844,-0.1255,-0.2872,271.0625
12:58:49:429,-1.5298,-0.1694,12.9336,35.9283,0.2328,-0.3032,-0.3793,271.4531
12:58:49:447,-1.9009,-0.9248,13.3921,35.4827,0.2682,-0.2451,-0.3897,271.75
12:58:49:464,-1.8255,-1.3438,12.4715,35.796,0.4637,-0.0278,-0.2403,272.0938
12:58:49:485,-1.015,-1.0098,10.2341,37.0841,0.6035,0.0505,-0.0888,272.5625
12:58:49:505,-0.304,-0.4531,8.6623,35.1223,0.5449,-0.1735,-0.1141,273.0469
12:58:49:532,-0.1711,-0.2161,8.2601,35.9442,0.3958,-0.4334,-0.24,273.3594
12:58:49:549,-0.2082,-0.2628,8.1823,35.6429,0.265,-0.5133,-0.3125,273.5
12:58:49:564,-0.3494,-0.185,8.0123,36.4657,0.1952,-0.4622,-0.3196,274.0312
12:58:49:584,-0.4656,-0.0269,7.6544,35.2769,0.2141,-0.3501,-0.2826,274.4219
12:58:49:605,-0.2668,0.088,6.8248,34.4801,0.3039,-0.2989,-0.2227,274.6406
12:58:49:630,0.0312,0.1885,5.9485,35.7714,0.3582,-0.3698,-0.1902,275.0312
12:58:49:647,-0.1603,0.1227,5.4445,36.1,0.335,-0.525,-0.1785,275.3594
12:58:49:665,-0.6439,0.0114,5.5774,35.3486,0.294,-0.7205,-0.1007,275.625
12:58:49:686,-0.5218,0.1933,6.2191,34.9542,0.2791,-0.8592,0.0322,275.9062
12:58:49:705,-0.0789,0.3418,7.3898,34.1633,0.2812,-0.8347,0.0884,276.1562
12:58:49:730,0.1593,0.0892,8.6552,35.9377,0.3718,-0.7205,0.0769,276.2344
12:58:49:748,-0.0837,0.2879,8.4516,37.1921,0.5001,-0.4853,0.0825,276.2812
12:58:49:765,-0.1699,0.7644,7.6891,35.8769,0.494,-0.451,0.0537,276.2812
12:58:49:788,-0.1328,1.072,7.5634,36.1062,0.3286,-0.6441,-0.076,276.2812
12:58:49:804,-0.0609,1.011,8.7473,36.5552,0.0429,-0.9477,-0.2659,276.25
12:58:49:827,0.0396,0.5561,11.0134,35.8399,-0.2088,-1.0611,-0.4485,276.25
12:58:49:847,-0.2082,-0.1658,12.9791,35.8442,-0.3228,-0.8947,-0.5482,276.4219
12:58:49:865,-0.4476,-0.6985,13.75,35.2077,-0.3156,-0.4912,-0.485,277.125
12:58:49:887,-0.0214,-0.6626,12.6164,37.3911,-0.3097,-0.0342,-0.3101,277.8438
12:58:49:904,1.2403,-0.1814,11.047,36.703,-0.4922,0.0638,-0.2643,278.5469
12:58:49:926,1.9442,0.2759,11.6743,35.2508,-0.8519,-0.2283,-0.4941,279.0156
12:58:49:945,1.3229,-0.2496,14.2935,37.5956,-1.1004,-0.3373,-0.84,279.3125
12:58:49:964,0.0061,-1.2623,16.5333,36.8239,-0.9798,0.1043,-0.9434,279.7344
12:58:49:985,-0.3207,-1.8274,15.2069,36.8819,-0.493,0.8343,-0.6917,280.5312
12:58:50:006,0.5508,-1.4156,11.7269,36.2558,-0.0485,1.2396,-0.3154,281.6562
12:58:50:028,2.2794,-0.8948,8.3786,37.6802,0.119,1.0774,-0.1905,282.625
12:58:50:048,3.0276,-0.489,6.7386,37.1781,-0.0671,0.5312,-0.3974,283.1094
12:58:50:065,2.5655,-0.5106,7.1552,38.5715,-0.3931,0.0348,-0.6763,283.2031
12:58:50:085,1.6473,-0.6853,8.3499,38.8613,-0.5489,-0.133,-0.8363,283.5
12:58:50:106,0.722,-0.6865,8.539,40.1917,-0.4967,0.0295,-0.8235,284.1094
12:58:50:129,0.206,-0.4734,7.7944,39.9803,-0.3579,0.2553,-0.6635,284.9531
12:58:50:147,0.3772,-0.0006,6.9445,40.2106,-0.2269,0.3328,-0.4824,285.9219
12:58:50:165,0.5149,0.58,6.2598,39.4528,-0.1342,0.2865,-0.3753,286.7812
12:58:50:185,0.5855,1.078,6.1053,39.6315,-0.0759,0.157,-0.342,287.375
12:58:50:205,0.6466,1.2839,6.225,39.4864,-0.045,0.0223,-0.3431,287.8438
12:58:50:228,0.4203,1.3737,6.8356,41.4548,-0.0671,-0.0661,-0.3617,288.2344
12:58:50:247,0.3293,1.3988,7.9572,40.5773,-0.0938,-0.0491,-0.3633,288.6094
12:58:50:265,0.2838,1.3833,9.0933,42.0889,-0.0727,0.038,-0.37,288.9844
12:58:50:285,-0.1184,1.4359,10.1862,41.5143,-0.0099,0.1328,-0.3892,289.4062
12:58:50:305,-0.5829,1.4323,11.0338,43.1216,0.1196,0.1746,-0.3974,289.8281
12:58:50:329,-0.9276,1.2348,11.3666,41.9672,0.2783,0.1453,-0.3604,290.2344
12:58:50:346,-0.9588,1.1402,11.1367,43.4,0.3619,0.1091,-0.2555,290.9062
12:58:50:364,-0.5386,1.1498,11.0206,42.3625,0.282,0.0452,-0.17,291.3125
12:58:50:385,0.1605,0.8266,11.2768,44.5279,0.0844,-0.063,-0.1857,291.6094
12:58:50:405,0.7435,0.1886,11.6467,43.6897,-0.1707,-0.2598,-0.3157,291.7969
12:58:50:429,0.2144,-0.6734,12.8199,44.2548,-0.4725,-0.5543,-0.5364,292.0312
12:58:50:447,-1.0114,-1.8142,14.9771,45.3562,-0.5859,-0.7604,-0.6129,292.375
12:58:50:475,-1.0414,-2.9131,16.0054,45.6501,-0.3795,-0.6872,-0.4347,293
12:58:50:484,-0.7684,-2.8964,15.1626,45.6157,-0.0655,-0.4257,-0.1993,293.7188
12:58:50:506,-0.5099,-2.5744,13.7764,45.7888,0.1659,-0.1405,-0.0307,294.2344
12:58:50:529,-0.0514,-2.4618,11.7616,45.9867,0.3563,0.2406,0.0852,294.4531
12:58:50:552,0.637,-2.0776,8.8647,45.0433,0.4535,0.4457,0.1501,294.5
12:58:50:565,1.3385,-1.3425,6.4752,46.9696,0.3076,0.2231,0.0878,294.4688
12:58:50:588,1.4833,-0.8242,6.1784,47.2743,-0.0767,-0.3295,-0.1282,294.2969
12:58:50:604,1.2188,-0.981,7.9142,46.5564,-0.4224,-0.7738,-0.354,294.1406
12:58:50:625,0.5209,-1.169,9.468,47.98,-0.518,-0.8017,-0.4568,294.1562
12:58:50:649,-0.2225,-1.218,9.7685,47.5297,-0.4296,-0.5165,-0.3966,294.6875
12:58:50:666,-0.5087,-1.1223,9.3579,49.9914,-0.2533,-0.2225,-0.203,295.2344
12:58:50:686,-0.2381,-0.7236,8.9269,47.1089,0.0013,-0.0957,0.0066,295.7188
12:58:50:705,0.5472,-0.0078,8.0446,48.6209,0.7374,-0.2957,0.135,295.9531
12:58:50:730,0.2252,0.0605,7.1492,48.715,1.0485,-0.4164,0.1368,295.9531
12:58:50:746,0.1665,0.0042,6.3615,50.6465,1.1792,-0.4305,0.1957,295.9531
12:58:50:764,0.3114,0.1778,5.6971,52.1033,1.0956,-0.3535,0.2822,295.6562
12:58:50:784,0.7435,0.5477,5.648,50.0732,0.8746,-0.3141,0.3243,295.5
12:58:50:806,0.9243,0.75,6.0443,51.1016,0.616,-0.3261,0.2471,295.2656
12:58:50:828,0.4658,0.6865,6.6464,50.273,0.3481,-0.3943,0.156,294.9375
12:58:50:847,0.0133,0.501,8.1057,51.3401,0.0826,-0.4795,0.1456,294.5781
12:58:50:864,0.3772,0.3562,9.8726,52.3376,-0.0621,-0.5357,0.1794,294.2969
12:58:50:884,1.0536,0.349,11.4276,52.4124,-0.1196,-0.6068,0.1363,294.1406
12:58:50:905,1.5527,0.2149,13.015,52.4124,-0.1843,-0.6041,0.0037,293.9531
12:58:50:926,1.5396,-0.3525,14.0936,52.1642,-0.2162,-0.4606,-0.1465,293.8125
12:58:50:947,1.3887,-0.9212,14.0577,53.0768,-0.1979,-0.1572,-0.1455,293.7969
12:58:50:964,1.9885,-0.9272,12.8857,53.6202,-0.1936,0.0771,-0.0509,293.8438
12:58:50:984,2.5966,-0.5525,11.843,54.3579,-0.2884,-0.0158,-0.0863,294.0625
12:58:51:004,2.5368,-0.489,11.9137,53.5557,-0.4796,-0.2542,-0.264,294.2656
12:58:51:024,1.7287,-0.8793,12.687,54.5989,-0.6163,-0.2435,-0.3987,294.3281
12:58:51:045,1.2595,-1.631,12.8737,55.1924,-0.5446,0.0372,-0.3441,294.5781
12:58:51:066,1.6509,-1.9399,11.8059,55.4813,-0.3004,0.3871,-0.1103,295.0469
12:58:51:084,2.6373,-1.5425,9.9181,53.9536,-0.0059,0.4574,0.1105,295.5625
12:58:51:104,3.8033,-1.0529,8.0566,54.6486,0.1055,0.0771,0.1192,295.8438
12:58:51:124,4.1469,-0.5501,7.7932,55.1793,-0.0895,-0.4172,-0.0757,295.8125
12:58:51:147,3.6345,-0.477,8.7773,54.4039,-0.3537,-0.5317,-0.3157,295.625
12:58:51:165,2.5906,-0.5034,9.1603,55.8649,-0.4733,-0.1847,-0.4643,295.5781
12:58:51:184,1.4354,-0.4136,8.6935,55.3734,-0.4418,0.3179,-0.4488,295.8594
12:58:51:204,1.0224,-0.3178,7.4114,55.1177,-0.2937,0.6114,-0.2949,296.0938
12:58:51:224,1.3768,0.064,6.3196,54.3319,-0.1664,0.5227,-0.15,296.6875
12:58:51:245,1.3684,0.3957,6.0946,54.5579,-0.1174,0.2097,-0.1335,297.2188
12:58:51:266,0.704,0.2927,6.9852,54.6019,-0.0458,-0.1469,-0.1276,297.5156
12:58:51:284,0.1426,-0.0006,8.0315,54.0362,0.1305,-0.2877,0.0034,297.6719
12:58:51:357,0.1138,-0.021,8.5606,53.943,0.4024,-0.1626,0.2732,297.8281
12:58:51:357,0.8141,0.5417,8.2362,55.571,0.6711,0.0947,0.5704,298.0156
12:58:51:358,1.609,1.5197,7.6149,55.7845,0.7148,0.2841,0.6481,297.8594
12:58:51:374,1.5875,2.2811,7.6364,56.6282,0.5404,0.2881,0.4671,297.3281
12:58:51:384,1.5611,2.1961,8.4708,53.507,0.3332,0.0936,0.2178,296.5625
12:58:51:408,1.372,1.6861,9.4572,56.477,0.1665,-0.0859,0.0295,295.8281
12:58:51:428,1.0763,1.3533,10.5993,56.0233,-0.0219,-0.1807,-0.0424,295.4062
12:58:51:446,1.4546,1.0756,11.9939,56.2374,-0.2181,-0.2038,-0.0736,295.2656
12:58:51:463,1.6964,0.7488,12.9767,56.2648,-0.4147,-0.0957,-0.1828,295.2969
12:58:51:484,1.1589,0.1,13.8135,56.6668,-0.5704,0.0995,-0.2856,295.3906
12:58:51:504,0.6142,-0.5549,14.1415,55.111,-0.584,0.2367,-0.2073,295.5312
12:58:51:524,0.9303,-0.8278,13.908,57.2139,-0.489,0.2785,-0.0086,295.8594
12:58:51:545,1.8018,-1.0074,13.7668,55.2202,-0.3468,0.1895,0.1083,296.2031
12:58:51:563,2.0364,-1.2336,13.7608,55.1446,-0.0943,0.0763,0.1097,296.3438
12:58:51:584,1.7191,-1.6502,12.42,54.324,0.2557,0.0372,0.0956,296.2188
12:58:51:604,1.5097,-1.7232,10.0917,54.858,0.4341,-0.011,0.1664,296.0938
12:58:51:624,1.8281,-1.218,8.4612,53.6215,0.2908,-0.1727,0.2428,295.9688
12:58:51:646,2.2052,-0.7069,8.2134,53.8201,-0.041,-0.3314,0.1842,295.7656
12:58:51:664,2.1477,-0.6554,8.8766,54.4983,-0.3071,-0.3237,0.0348,295.625
12:58:51:684,1.5911,-0.7069,9.0095,53.6603,-0.3569,-0.17,-0.0661,295.3594
12:58:51:704,1.4091,-0.6626,8.648,55.1503,-0.2634,-0.0329,-0.0882,295.2656
12:58:51:725,1.2319,-0.6614,8.4576,53.2485,-0.1827,0.0713,-0.1071,295.3281
12:58:51:746,0.8309,-0.8493,8.6743,52.4487,-0.1364,0.2638,-0.0821,295.4531
12:58:51:766,0.2252,-1.0217,8.8982,54.9747,0.0099,0.4471,0.0564,295.5938
12:58:51:783,0.1222,-0.9451,8.4373,52.8952,0.3188,0.442,0.2865,295.7031
12:58:51:804,0.6621,-0.7165,7.4856,53.8269,0.6149,0.2516,0.466,295.7188
12:58:51:825,1.3804,-0.3047,6.7757,52.1108,0.7228,0.0534,0.5099,295.5
12:58:51:851,1.7383,-0.0461,6.4633,53.5966,0.6637,-0.0872,0.4141,294.7344
12:58:51:867,1.6078,0.0186,6.8104,52.9705,0.5012,-0.1974,0.2585,294.1094
12:58:51:883,1.0787,-0.1071,7.8555,52.1739,0.3388,-0.2547,0.1147,293.5938
12:58:51:906,0.8261,-0.41,8.8611,52.5101,0.2807,-0.2169,0.0207,293.2969
12:58:51:930,0.8393,-0.5824,8.9856,52.787,0.2738,-0.1769,-0.1002,293.1719
12:58:51:947,0.6214,-0.8793,9.2046,51.1076,0.188,-0.3383,-0.297,293.1406
12:58:51:966,0.3904,-1.5113,10.1994,50.2795,0.004,-0.6033,-0.4595,293.25
12:58:51:984,0.139,-2.2691,11.6946,51.4811,-0.2024,-0.6662,-0.4816,293.5938
12:58:52:004,0.2778,-2.724,12.9061,49.6775,-0.3569,-0.3884,-0.3215,294.1719
12:58:52:024,1.0967,-2.3637,12.4344,51.4126,-0.5297,0.0872,-0.1455,294.7969
12:58:52:048,1.6533,-1.7687,11.9472,52.1536,-0.8655,0.2489,-0.1886,295.2031
12:58:52:064,1.2379,-1.7974,13.6794,51.4784,-1.2469,0.19,-0.3418,295.4062
12:58:52:089,0.6418,-2.5935,15.8964,51.5061,-1.2504,0.3477,-0.2962,295.6719
12:58:52:105,1.8496,-2.2224,13.0497,51.4642,-0.0748,0.8228,0.4423,296.1406
12:58:52:125,3.7794,-1.3425,10.1946,51.6912,0.3196,0.5296,0.6894,296.5625
12:58:52:150,4.9465,-0.3561,8.6492,52.5301,0.3758,0.062,0.5456,296.5625
12:58:52:168,4.6856,0.1814,8.1189,52.5444,0.2093,-0.1484,0.16,295.25
12:58:52:189,3.5974,0.1024,7.9728,50.5856,-0.0003,0.0236,-0.1737,294.6094
12:58:52:203,2.3309,-0.1179,7.5191,51.0801,-0.1076,0.3626,-0.3093,294.6094
12:58:52:224,1.3792,-0.1347,6.6895,50.8909,-0.1087,0.6505,-0.2491,294.4219
12:58:52:246,1.0847,-0.0138,5.8013,48.9955,-0.0178,0.7038,-0.0938,294.6094
12:58:52:264,1.0045,0.2101,5.2051,49.9105,0.0972,0.5506,0.0559,294.9531
12:58:52:283,1.3145,0.5477,4.8963,50.577,0.2157,0.2654,0.1773,295.2188
12:58:52:304,2.0591,1.0672,4.8137,51.3163,0.2775,-0.0997,0.1941,295.3125
12:58:52:324,2.5511,1.5125,5.1752,50.8356,0.2195,-0.3791,0.0449,295.2188
12:58:52:346,2.4087,1.6969,5.9665,49.8485,0.0954,-0.5538,-0.1748,295
12:58:52:365,1.8855,1.5604,7.3671,49.9908,-0.0141,-0.7128,-0.3412,294.7812
12:58:52:384,1.6701,1.3893,9.231,49.0618,-0.0141,-0.8555,-0.3857,294.7344
12:58:52:403,1.7347,1.3234,10.8614,48.1377,0.1207,-0.9258,-0.3641,294.9688
12:58:52:424,1.3433,1.3605,12.2896,46.4654,0.2708,-0.8987,-0.3263,295.625
12:58:52:448,0.8201,1.1175,13.762,47.9223,0.3369,-0.7509,-0.2302,296.0625
12:58:52:465,1.2762,0.8577,14.7496,49.1768,0.3768,-0.5168,-0.0493,296.5
12:58:52:484,2.5942,0.8577,15.0118,49.4642,0.339,-0.2369,0.0979,296.8438
12:58:52:503,3.5567,0.8769,14.8526,49.2189,0.1883,0.0952,0.0263,297.0156
12:58:52:524,3.2395,0.6051,14.7664,48.8042,0.0288,0.2396,-0.2424,296.9531
12:58:52:548,2.1094,-0.2089,15.0788,46.7169,0.0219,0.2191,-0.4549,296.8281
12:58:52:565,0.8261,-1.0481,15.0345,48.052,0.2746,0.0811,-0.4922,296.9062
12:58:52:583,0.0384,-1.5532,14.1343,46.7527,0.6895,-0.0699,-0.317,297.3125
12:58:52:606,0.6645,-1.8501,12.201,47.0622,1.0152,0.0124,0.0034,297.8594
12:58:52:632,1.791,-1.473,9.6667,45.9232,1.0605,0.1349,0.2095,298.125
12:58:52:648,2.4111,-0.6889,8.0446,45.1141,0.8075,-0.0179,0.1869,298.4219
12:58:52:663,2.5332,-0.1826,7.7094,45.1543,0.4048,-0.2757,0.0071,298.3281
12:58:52:683,2.1489,-0.0772,8.229,45.1098,0.0807,-0.3967,-0.2118,297.9844
12:58:52:703,1.7682,-0.3394,8.2529,44.9354,-0.0482,-0.3048,-0.3583,297.7188
12:58:52:723,1.1218,-0.5489,7.5766,44.2595,-0.0466,-0.1008,-0.3836,297.8281
12:58:52:748,-0.0023,-0.7452,6.9074,44.3651,-0.012,-0.0235,-0.2864,298.2031
12:58:52:765,-1.3287,-1.0505,7.2162,44.7755,0.0226,-0.1636,-0.0786,298.6562
12:58:52:785,-1.5346,-1.3018,8.4876,42.6557,0.172,-0.3032,0.2556,299.0625
12:58:52:804,-0.4584,-1.6215,8.9365,42.4396,0.5159,-0.1594,0.6319,299.2969
12:58:52:824,1.0452,-1.145,8.4971,44.5021,0.8991,0.209,1.001,299.2344
12:58:52:848,1.8437,-0.2065,8.1548,43.5796,1.2344,0.781,1.2213,298.75
12:58:52:864,1.8257,0.6662,7.0451,43.6895,1.4746,0.8135,1.2279,297.7344
12:58:52:883,1.4678,1.1378,6.3555,41.6233,1.514,0.2763,1.0876,296.25
12:58:52:902,1.3768,1.2037,5.927,43.5289,1.2599,0.0412,0.8599,294.6406
12:58:52:923,1.2224,1.5329,6.1592,42.554,0.7763,0.1504,0.6921,293.0781
12:58:52:946,1.2403,2.0441,6.7625,41.727,0.1883,0.4383,0.5691,291.7969
12:58:52:966,1.5312,2.2117,7.7921,42.471,-0.3499,0.6324,0.4276,290.875
12:58:52:983,1.9119,1.7077,9.2764,41.7767,-0.7284,0.528,0.1845,290.0312
12:58:53:003,1.7227,1.1067,10.9213,43.0736,-0.9254,0.32,-0.0975,289.0938
12:58:53:023,1.2475,0.3633,12.201,43.0736,-0.9758,0.2502,-0.2443,288.8594
12:58:53:048,1.0811,-0.2316,12.7289,43.0102,-0.9254,0.3152,-0.2139,288.9844
12:58:53:066,1.032,-0.1442,12.7504,42.9447,-0.8714,0.3648,-0.1055,289.2969
12:58:53:084,1.1781,0.1766,13.4388,42.4475,-0.8634,0.1991,-0.0411,289.4531
12:58:53:103,0.8991,0.0102,14.7245,40.2354,-0.8301,0.0998,-0.0848,289.6406
12:58:53:127,0.6861,-0.8278,15.0369,42.1004,-0.6522,0.3277,-0.0448,289.7188
12:58:53:148,0.9291,-1.2588,13.5154,42.9196,-0.3657,0.7866,0.1986,289.8281
12:58:53:163,1.7132,-0.9355,10.9512,41.4187,-0.1555,1.0732,0.5113,289.9531
12:58:53:188,2.9438,-0.179,8.8742,41.9594,-0.0679,0.9019,0.6441,289.8594
12:58:53:204,3.51,0.7775,8.0686,42.1419,-0.1193,0.2873,0.5137,289.3594
12:58:53:223,3.4621,1.0385,8.5893,40.6016,-0.2099,-0.3064,0.2167,288.5469
12:58:53:246,2.7953,0.7655,9.1388,41.6172,-0.2298,-0.4776,-0.0752,287.8281
12:58:53:265,1.9263,0.5417,8.9221,41.8925,-0.2029,-0.1918,-0.1966,287.4062
12:58:53:284,1.208,0.5692,7.9201,40.9091,-0.1499,0.2209,-0.1668,287.5
12:58:53:303,0.977,0.8206,6.8188,41.9968,-0.0791,0.4036,-0.0816,287.7344
12:58:53:326,1.1841,1.2564,6.1149,40.6521,-0.0029,0.3152,-0.0387,287.9062
12:58:53:349,1.4821,1.5975,5.8168,40.2163,0.0578,0.1163,-0.0813,287.9688
12:58:53:364,1.7778,1.7831,5.5642,40.3397,0.0613,-0.0459,-0.1937,287.9844
12:58:53:430,1.8377,1.8801,5.6397,39.881,-0.0426,-0.1298,-0.3532,288.0625
12:58:53:430,1.6473,1.8489,6.0527,41.4936,-0.2258,-0.1442,-0.5111,288.2812
12:58:53:431,1.3097,1.7687,6.8655,40.0617,-0.4181,-0.1498,-0.6339,288.6719
12:58:53:447,0.6214,1.6466,8.2434,40.3955,-0.5225,-0.1924,-0.7207,289.2812
12:58:53:467,-0.9695,1.1797,9.5518,41.046,-0.4914,-0.4233,-0.7189,290.0312
12:58:53:487,-1.6758,-0.2987,13.3035,41.3034,-0.0101,-0.6616,-0.0094,290.8906
12:58:53:503,-0.6475,0.0018,13.7381,40.1852,0.3864,-0.2214,0.3328,290.8906
12:58:53:524,0.4035,0.6458,13.1108,39.7124,0.5265,0.1232,0.4125,291.7188
12:58:53:548,1.2762,0.8721,12.5182,37.7947,0.3321,0.3453,0.2958,292.3906
12:58:53:565,1.5192,0.6482,12.7301,40.5388,-0.0101,0.4444,0.1051,292.2344
12:58:53:583,1.1398,0.4268,13.1275,40.0653,-0.2634,0.5067,0.0034,291.5156
12:58:53:603,0.7591,0.3466,13.5022,40.8225,-0.3361,0.3988,-0.0177,291.5156
12:58:53:622,0.5185,0.0988,13.9427,40.0901,-0.2152,0.1757,-0.0009,291.125
12:58:53:648,0.3425,-0.3885,14.1702,39.1569,0.0746,-0.0246,0.083,290.9375
12:58:53:668,0.5987,-0.8613,13.3825,40.6197,0.4336,-0.0246,0.226,290.9375
12:58:53:684,1.2271,-1.0133,11.199,39.7371,0.6914,0.1067,0.3525,290.9375
12:58:53:702,1.9741,-0.6494,8.903,38.5547,0.6772,0.0905,0.3845,290.8438
12:58:53:722,2.4159,0.0401,7.7561,39.1348,0.4027,-0.1189,0.2668,290.5625
12:58:53:751,2.4434,0.2616,7.9106,40.5019,0.0565,-0.3519,0.0212,290.1406
12:58:53:765,1.7958,0.0569,8.3858,40.1648,-0.1784,-0.3879,-0.228,289.6875
12:58:53:782,1.0428,-0.325,8.4684,41.4397,-0.2607,-0.2193,-0.322,289.3906
12:58:53:802,0.4837,-0.4519,7.8208,40.6211,-0.2362,0.0012,-0.2624,289.3906
12:58:53:822,0.4574,-0.3059,7.0774,40.3011,-0.159,0.079,-0.142,289.7031
12:58:53:846,0.473,-0.1933,6.6297,41.9725,-0.0961,-0.0219,-0.073,290.0781
12:58:53:866,0.0624,-0.3657,6.6297,41.9429,-0.0434,-0.1807,-0.0059,290.4844
12:58:53:883,-0.3087,-0.5596,6.9601,41.9444,0.0679,-0.3548,0.173,290.5938
12:58:53:903,-0.0825,-0.5596,7.0522,41.4425,0.2623,-0.4923,0.3967,290.6719
12:58:53:923,0.5747,-0.2448,6.8667,42.2847,0.4147,-0.6222,0.5491,290.6094
12:58:53:947,1.2295,0.2221,7.0846,43.1979,0.4085,-0.708,0.5571,290.3125
12:58:53:966,1.3397,0.5417,7.5287,43.0515,0.2799,-0.6747,0.4362,289.8125
12:58:53:982,0.9339,0.5704,8.0686,42.4798,0.1241,-0.5706,0.2785,289.2031
12:58:54:003,0.558,0.4794,8.5714,42.0455,-0.0232,-0.4358,0.1911,288.6719
12:58:54:023,0.777,0.4004,9.3387,43.2573,-0.167,-0.3431,0.18,288.3281
12:58:54:049,1.3528,0.4507,10.4795,43.3086,-0.2903,-0.2912,0.1403,288.125
12:58:54:065,1.864,0.2065,11.6922,41.6705,-0.399,-0.2957,-0.0073,287.9688
12:58:54:084,2.1034,-0.2664,12.8797,42.8263,-0.526,-0.1988,-0.166,287.8281
12:58:54:102,2.4159,-0.738,13.5046,42.9143,-0.6333,0.0606,-0.2517,287.8125
12:58:54:123,2.6709,-0.8051,13.2113,42.0294,-0.6669,0.3003,-0.3034,287.875
12:58:54:148,2.7606,-0.3921,12.7169,44.7957,-0.6653,0.2715,-0.4049,288.1406
12:58:54:165,2.593,-0.252,13.1407,42.5657,-0.6512,0.0305,-0.6091,288.6562
12:58:54:186,2.0986,-0.9846,13.9188,43.3025,-0.5776,0.005,-0.8027,289.0938
12:58:54:204,1.5288,-2.0093,13.4448,43.2205,-0.4506,0.3751,-0.7705,289.7031
12:58:54:223,1.6533,-2.1662,11.8359,45.9652,-0.3265,0.7091,-0.4944,290.5469
12:58:54:249,2.441,-1.6658,10.2701,43.7887,-0.2224,0.6654,-0.2336,291.5312
12:58:54:265,3.0599,-1.09,9.2334,45.1078,-0.123,0.381,-0.1455,292.2812
12:58:54:283,3.0647,-0.6602,8.4492,44.6016,-0.021,0.1,-0.1617,292.6406
12:58:54:303,2.7079,-0.2568,7.5323,43.4757,0.0479,-0.0275,-0.2256,292.8125
12:58:54:324,2.3979,-0.009,6.6572,44.1477,0.0248,-0.0025,-0.2912,292.9688
12:58:54:348,2.0974,0.1071,6.0574,45.0328,-0.0871,0.1203,-0.3335,293.1875
12:58:54:365,1.9346,0.319,6.0946,46.3048,-0.2213,0.1709,-0.362,293.4688
12:58:54:382,1.6377,0.3454,6.7051,45.5827,-0.2698,0.1746,-0.4174,293.8281
12:58:54:403,1.2391,0.2556,6.9517,44.4172,-0.1848,0.2055,-0.4416,294.2344
12:58:54:424,0.9339,0.2292,6.7817,45.0617,-0.0685,0.2257,-0.4091,294.6562
12:58:54:447,0.8716,0.2723,6.6835,47.4728,-0.0112,0.1626,-0.3561,295.1719
12:58:54:468,0.9003,0.4028,7.0403,46.3198,-0.0389,0.0486,-0.3378,295.875
12:58:54:485,0.971,0.5585,8.0004,45.4638,-0.1422,-0.0305,-0.3668,296.2656
12:58:54:502,0.6729,0.5812,9.4213,46.4188,-0.2333,-0.0153,-0.4435,296.6562
12:58:54:523,0.2551,0.2448,10.6591,45.7271,-0.2229,0.0643,-0.4925,297.0781
12:58:54:548,-0.2872,-0.1993,11.4396,46.3605,-0.1662,0.1991,-0.4395,297.5625
12:58:54:568,-0.2944,-0.2771,11.9867,48.1927,-0.126,0.3751,-0.2656,298.1406
12:58:54:584,0.0145,-0.228,12.2513,47.9596,-0.1462,0.5432,-0.1375,298.6406
12:58:54:603,0.0444,-0.3537,12.6702,48.0713,-0.2178,0.6561,-0.0523,298.8125
12:58:54:623,0.4538,-0.5932,13.0617,47.4252,-0.2541,0.7134,0.0401,299.0156
12:58:54:649,0.9027,-0.7332,12.9037,47.6061,-0.2413,0.6811,0.0876,299.1094
12:58:54:667,1.1972,-0.416,12.7828,47.4788,-0.249,0.4577,0.09,299.0938
12:58:54:687,1.4738,-0.3238,13.4029,46.573,-0.2999,0.0841,0.0071,299
12:58:54:703,0.7902,-0.9403,14.8657,46.6143,-0.2943,-0.1445,-0.1146,298.8906
12:58:54:723,-0.2848,-2.0452,15.5469,49.4072,-0.029,-0.051,-0.0238,298.8125
12:58:54:748,-0.195,-2.6833,13.7668,46.9369,0.4194,0.247,0.3121,298.9688
12:58:54:767,0.7459,-2.3385,10.5394,48.5841,0.754,0.2878,0.6415,298.9844
12:58:54:784,1.8221,-1.3952,8.1201,48.6694,0.7958,-0.0984,0.7374,298.625
12:58:54:803,2.1561,-0.6147,7.3383,49.1804,0.5838,-0.5559,0.5664,297.875
12:58:54:825,1.6294,-0.5273,7.743,48.9132,0.2818,-0.7133,0.3171,297.0781
12:58:54:851,1.0404,-0.7679,8.1631,47.8272,0.0639,-0.5303,0.2045,296.4531
12:58:54:867,0.7076,-0.7608,8.0039,48.1425,0.0136,-0.2326,0.2314,296.1094
12:58:54:885,0.5268,-0.2664,6.984,47.8386,0.2115,-0.1181,0.3219,295.9219
12:58:54:907,0.3856,-0.246,6.6428,49.4827,0.3715,-0.2816,0.3454,295.9219
12:58:54:932,0.3904,-0.2819,6.3196,48.898,0.4932,-0.4401,0.3864,295.6719
12:58:54:949,0.4598,-0.2735,6.2873,50.4455,0.523,-0.517,0.4295,294.9688
12:58:54:967,0.7603,-0.2711,6.3819,49.0429,0.4799,-0.5056,0.4593,294.5938
12:58:54:984,1.1948,0.0174,6.7195,48.5262,0.3803,-0.4672,0.4447,293.6719
12:58:55:001,1.4869,0.2257,7.1743,50.751,0.2788,-0.4507,0.3539,293.6719
12:58:55:023,1.2032,0.2209,8.0327,49.544,0.1651,-0.4576,0.2093,293.1875
12:58:55:049,0.631,0.1179,9.1376,49.9393,0.0562,-0.3844,0.1254,292.6875
12:58:55:066,0.5879,-0.1012,10.0294,49.5798,0.012,-0.3168,0.0929,292.2969
12:58:55:085,0.7028,-0.3909,10.6376,50.4421,-0.0189,-0.3133,0.0641,292.0938
12:58:55:102,1.3145,-0.5812,11.3079,49.0158,-0.0959,-0.3359,0.046,291.9844
12:58:55:121,1.9765,-0.7632,12.2453,49.0473,-0.1987,-0.3791,-0.0603,291.8906
12:58:55:142,2.2279,-0.9978,13.2269,49.974,-0.282,-0.267,-0.183,291.8438
12:58:55:167,2.514,-1.3306,13.3394,51.3394,-0.2687,0.0502,-0.2475,291.8281
12:58:55:183,2.3464,-1.1498,12.1746,50.4462,-0.2248,0.2476,-0.2834,292.2031
12:58:55:202,2.3369,-0.5034,11.4217,50.7704,-0.2677,0.1267,-0.3378,292.2031
12:58:55:222,2.2231,-0.3214,12.0717,50.7704,-0.3454,-0.1104,-0.4909,292.4844
12:58:55:243,1.8389,-0.9595,12.8809,50.4999,-0.3188,-0.1503,-0.603,292.8125
12:58:55:266,1.5983,-1.7364,12.4284,51.5103,-0.1603,-0.0374,-0.4938,293.7969
12:58:55:284,2.0867,-1.8046,10.9189,50.1418,0.0061,-0.0371,-0.2366,294.5156
12:58:55:302,3.1664,-1.1726,9.6547,51.0414,0.0352,-0.2539,-0.0563,294.8438
12:58:55:324,4.0643,-0.5118,9.3232,50.7542,-0.0282,-0.4749,-0.1087,295.2656
12:58:55:348,3.8308,-0.3094,8.9963,50.8309,-0.0522,-0.4941,-0.3399,295.4062
12:58:55:366,2.6325,-0.4399,8.2242,50.4118,-0.037,-0.3013,-0.5143,295.5
12:58:55:383,1.4438,-0.6015,7.0666,51.211,-0.037,0.0295,-0.4909,295.7812
12:58:55:401,0.801,-0.3885,5.8934,51.3198,-0.078,0.3054,-0.3226,296.3125
12:58:55:422,0.7651,0.0808,5.2219,49.5926,-0.1462,0.3533,-0.1575,296.9062
12:58:55:480,0.9518,0.5321,5.3595,51.1237,-0.1926,0.1967,-0.0872,297.375
12:58:55:481,1.123,0.6925,6.0024,50.1201,-0.1651,0.0271,-0.0856,297.625
12:58:55:481,1.1302,0.8039,6.3124,50.2908,-0.1164,-0.0297,-0.0866,297.75
12:58:55:507,1.208,0.9715,6.6632,50.7089,-0.1161,-0.0046,-0.0912,297.8438
12:58:55:521,1.3576,1.0493,7.1265,52.3908,-0.1643,0.0295,-0.1228,297.9062
12:58:55:543,1.4007,1.1103,8.1129,51.479,-0.257,0.0777,-0.1753,298.0156
12:58:55:568,1.1003,0.9463,9.5015,50.5218,-0.3129,0.1512,-0.2376,298.125
12:58:55:593,0.376,0.4208,11.1056,50.5914,-0.2527,0.2284,-0.2392,298.375
12:58:55:602,0.2599,-0.0581,11.8323,50.2648,-0.053,0.3818,-0.0749,298.6406
12:58:55:623,0.7268,-0.0233,11.5078,51.243,0.1406,0.4641,0.1089,298.9375
12:58:55:642,1.5276,0.1634,11.2146,49.4378,0.1643,0.3762,0.1672,299.125
12:58:55:663,2.2806,0.0497,11.6072,50.9073,0.0101,0.2377,0.0583,299.0781
12:58:55:685,2.7379,-0.4387,12.3698,50.9351,-0.237,0.2127,-0.1332,298.875
12:58:55:702,2.3548,-0.7835,12.9695,50.9894,-0.5004,0.3019,-0.2856,298.7031
12:58:55:723,1.6617,-0.9643,13.6698,50.9093,-0.6709,0.3094,-0.3362,298.7344
12:58:55:750,0.7172,-1.2228,14.5784,50.5339,-0.6573,0.1698,-0.2824,298.9844
12:58:55:769,-0.0717,-1.6753,15.5193,51.6101,-0.4016,0.0835,-0.0544,299.375
12:58:55:786,0.0672,-2.2236,14.5413,51.3526,0.0911,0.2002,0.3009,299.7969
12:58:55:802,0.8728,-2.293,11.4743,48.9533,0.5262,0.2231,0.6178,300.0469
12:58:55:822,1.8269,-1.9171,8.7749,51.2508,0.6216,-0.1194,0.7685,299.9219
12:58:55:842,2.2207,-1.2324,7.9596,51.7513,0.3907,-0.6078,0.7254,299.3438
12:58:55:864,2.0843,-0.8972,8.7042,51.9974,0.0533,-0.815,0.6005,297.6406
12:58:55:881,1.621,-0.9164,9.3351,49.8435,-0.1699,-0.6257,0.5049,297.2344
12:58:55:902,0.9171,-0.9188,9.4752,51.6005,-0.2368,-0.252,0.482,296.5781
12:58:55:921,0.5963,-0.7883,9.1172,51.7238,-0.1369,0.0939,0.56,296.0469
12:58:55:942,0.6765,-0.6422,8.3236,51.2873,0.0868,0.1775,0.6474,295.5469
12:58:55:965,0.5448,-0.4842,7.7657,51.0118,0.3348,0.0119,0.7057,294.9062
12:58:55:981,0.5352,-0.5165,7.4138,49.7674,0.5811,-0.1889,0.776,294.5469
12:58:56:004,0.6046,-0.5992,7.0894,52.07,0.7521,-0.2992,0.8434,293.75
12:58:56:021,1.1134,-0.5142,6.7913,51.1468,0.7952,-0.3178,0.9025,292.9062
12:58:56:042,1.8413,-0.3454,6.8739,49.8646,0.7201,-0.3301,0.8484,291.9375
12:58:56:062,2.3788,-0.2388,7.4748,51.6604,0.5707,-0.312,0.683,290.875
12:58:56:081,2.338,-0.313,8.326,51.8549,0.4075,-0.2036,0.4591,289.8438
12:58:56:103,1.8006,-0.5836,9.1723,51.1046,0.2828,-0.0307,0.2788,288.9219
12:58:56:121,1.7132,-1.005,9.7026,51.777,0.2171,0.104,0.2029,287.9844
12:58:56:141,2.1705,-1.1211,10.0618,51.7284,0.1665,0.0963,0.1525,287.6562
12:58:56:164,2.7487,-1.0936,10.5861,50.9858,0.0714,0.0034,0.025,287.3906
12:58:56:186,2.9222,-1.2827,10.9895,51.7542,-0.0602,0.0212,-0.19,287.1875
12:58:56:202,2.8001,-1.8477,10.7273,51.0524,-0.2426,0.2119,-0.3742,287.1562
12:58:56:222,2.9354,-2.2631,10.0977,50.9464,-0.5366,0.4172,-0.4741,287.375
12:58:56:244,3.0599,-1.8812,10.0294,50.6772,-1.0136,0.5264,-0.6147,287.8125
12:58:56:267,2.3835,-1.9148,11.8466,51.4258,-1.5761,0.5578,-0.9077,288.375
12:58:56:286,-0.7206,-3.8205,15.5433,52.3518,-1.3697,1.2708,-0.7735,289.1094
12:58:56:305,0.0648,-3.6338,12.9061,51.7798,-0.6408,1.3927,-0.2153,289.1094
12:58:56:322,1.8784,-2.7168,10.0211,51.7813,-0.1185,0.8593,0.1757,291.5938
12:58:56:343,2.9127,-1.5125,8.7258,52.5354,0.0762,0.0321,0.189,292.5
12:58:56:367,2.8911,-0.9248,8.964,52.8878,0.1284,-0.5314,-0.0115,292.5938
12:58:56:385,2.3788,-0.9475,8.8862,51.6786,0.1819,-0.5359,-0.1998,292.4531
12:58:56:401,1.6461,-0.8422,7.7657,52.6286,0.196,-0.2108,-0.2581,292.4531
12:58:56:422,1.1565,-0.4328,6.3412,51.8121,0.1198,0.0846,-0.2115,292.3906
12:58:56:442,1.1218,0.1407,5.5906,53.325,-0.0221,0.1645,-0.1833,292.6094
12:58:56:467,1.1469,0.4136,5.9545,54.7293,-0.163,0.1109,-0.2363,292.8906
12:58:56:483,0.7052,0.3382,6.7781,53.931,-0.2099,0.0896,-0.3026,293.1094
12:58:56:501,0.0289,0.1311,7.5036,52.7101,-0.1177,0.1195,-0.2834,293.3281
12:58:56:520,-0.3662,-0.0748,7.9034,53.0502,0.1025,0.1687,-0.1628,293.6094
12:58:56:540,-0.5039,-0.1024,7.549,54.3459,0.3505,0.1669,-0.0075,293.9375
12:58:56:565,-0.1759,0.0293,7.2917,52.5786,0.4852,0.0462,0.1371,294.2656
12:58:56:583,0.3102,0.1562,7.8902,53.9915,0.4634,-0.1202,0.189,294.4531
12:58:56:601,0.4562,0.1454,9.4321,52.9131,0.3816,-0.2004,0.1725,294.4375
12:58:56:622,0.1689,-0.3621,11.1954,55.0864,0.363,-0.1495,0.1677,294.2812
12:58:56:643,-0.2058,-0.726,12.2752,52.8467,0.4418,0.0385,0.2918,293.8281
12:58:56:667,0.2132,-0.647,12.4907,55.4723,0.538,0.19,0.486,293.8281
12:58:56:683,1.2271,-0.422,12.4536,54.2838,0.5731,0.2052,0.5509,293.6406
12:58:56:701,2.1226,-0.2879,12.3698,54.6101,0.473,0.1964,0.4338,293.0156
12:58:56:722,2.5847,-0.331,12.1268,55.6896,0.2378,0.2476,0.1991,292.375
12:58:56:743,2.2411,-0.422,12.0214,55.2074,-0.1097,0.2659,-0.0757,291.3906
12:58:56:767,1.2786,-0.6638,12.7301,54.7774,-0.4916,0.1877,-0.2808,291.3906
12:58:56:787,0.0731,-1.169,14.2935,56.7817,-0.682,0.1285,-0.3162,291.3125
12:58:56:808,-0.5613,-1.6286,15.3865,56.2991,-0.4474,0.1959,-0.1239,291.5156
12:58:56:821,0.1318,-1.9327,13.6423,55.8733,0.1358,0.3751,0.1443,291.8906
12:58:56:843,0.5424,-1.479,10.1025,55.4629,0.5462,0.3102,0.2508,292.1875
12:58:56:871,0.5161,-1.0217,7.7825,57.2836,0.5116,-0.0797,0.2189,292.1719
12:58:56:881,0.4239,-0.8565,7.5502,56.153,0.2431,-0.4787,0.1416,291.8906
12:58:56:902,0.4239,-0.9212,8.2469,57.377,0.0282,-0.5999,0.0793,291.5938
12:58:56:924,0.3054,-0.841,8.2086,56.9577,-0.0176,-0.4909,0.0529,291.3906
12:58:56:940,0.212,-0.6889,7.3336,57.1943,0.0037,-0.3495,0.0628,291.3125
12:58:56:962,0.1438,-0.592,6.6045,56.6557,-0.0189,-0.2971,0.0995,291.2812
12:58:56:983,0.0863,-0.4244,6.4501,56.5292,-0.0796,-0.3202,0.1501,291.25
12:58:57:002,-0.1459,-0.4902,6.923,56.5226,-0.1196,-0.3192,0.2069,291.1562
12:58:57:021,-0.4632,-0.6015,7.4461,56.7226,-0.0634,-0.2795,0.3382,291.0312
12:58:57:042,0.0085,-0.659,7.5754,56.0655,0.098,-0.3223,0.5137,290.8438
12:58:57:067,0.7735,-0.4806,7.4976,56.3465,0.2591,-0.4686,0.5946,290.5781
12:58:57:084,1.4929,-0.2532,7.7561,58.7517,0.343,-0.6387,0.5267,290.0938
12:58:57:101,1.9059,-0.3382,8.2972,57.587,0.3513,-0.7319,0.3291,289.4531
12:58:57:121,1.2236,-0.6363,8.9257,58.6718,0.2735,-0.6683,0.1145,288.7969
12:58:57:142,0.0324,-1.1115,9.5817,57.4222,0.1824,-0.4406,0.0604,288.3281
12:58:57:165,-0.4536,-1.5353,9.8427,59.4216,0.134,-0.162,0.2106,288.1094
12:58:57:182,0.3736,-1.3018,9.8139,59.074,0.082,-0.0614,0.4061,288.0469
12:58:57:201,1.706,-1.1774,10.1515,57.432,-0.0005,-0.2211,0.4133,287.9219
12:58:57:226,2.5236,-1.3294,11.0542,58.7044,-0.1401,-0.4212,0.2551,287.5469
12:58:57:240,2.8552,-1.8022,12.0597,58.0555,-0.2597,-0.443,0.086,287.0469
12:58:57:262,3.2467,-2.317,11.9927,58.4785,-0.3529,-0.2624,-0.0368,286.6875
12:58:57:284,3.5076,-2.214,11.4181,58.7686,-0.5888,-0.0158,-0.1926,286.5469
12:58:57:312,3.0216,-1.8034,11.3869,57.2193,-0.9931,0.1956,-0.4387,286.6406
12:58:57:321,1.6425,-1.8082,12.6236,58.3021,-1.384,0.3988,-0.681,286.6406
12:58:57:344,0.2778,-2.4966,14.327,60.064,-1.4277,0.7432,-0.6744,287.5156
12:58:57:367,-0.0274,-2.9203,13.7883,58.6582,-1.0053,1.1033,-0.3639,288.4375
12:58:57:382,1.0057,-2.5169,11.2996,59.2099,-0.4703,1.0511,0.0311,289.3438
12:58:57:401,2.5356,-1.7687,9.456,59.2099,-0.1523,0.4596,0.2292,289.8125
12:58:57:423,3.3113,-1.1187,9.3076,59.0944,-0.0306,-0.2334,0.1374,289.8281
12:58:57:446,2.7642,-1.0277,9.7637,59.1238,0.0495,-0.4747,-0.0832,289.5781
12:58:57:469,1.7527,-1.2204,8.9832,56.1152,0.1156,-0.2129,-0.2054,289.4688
12:58:57:533,0.8955,-1.175,7.4904,58.2743,0.0868,0.181,-0.1567,289.4375
12:58:57:534,0.5711,-0.7967,6.2478,59.508,-0.0035,0.442,-0.0198,289.6094
12:58:57:534,0.7818,-0.3525,5.648,59.1311,-0.0517,0.4122,0.0838,289.8281
12:58:57:540,1.2128,0.064,5.6648,57.2714,-0.0202,0.1224,0.103,289.9375
12:58:57:562,1.3828,0.2245,6.085,58.1858,0.0519,-0.1394,0.0415,289.8906
12:58:57:587,1.3097,0.2041,6.3579,56.7624,0.1134,-0.19,-0.028,289.7188
12:58:57:609,1.2978,0.1143,6.4693,57.4328,0.1111,-0.1026,-0.0733,289.6719
12:58:57:620,1.4462,0.1311,6.6177,58.9942,0.0368,-0.0259,-0.1359,289.7031
12:58:57:642,1.7443,0.1107,7.1133,58.1516,-0.11,-0.0355,-0.2504,289.7812
12:58:57:667,1.8844,0.173,8.2015,57.56,-0.3052,-0.0446,-0.4462,289.9219
12:58:57:685,0.0659,-0.9044,10.9081,58.0758,-0.9529,0.6388,-1.0371,290.2031
12:58:57:701,-1.9452,-2.1745,12.6403,58.3811,-1.2549,1.3208,-1.0126,290.7344
12:58:57:722,-2.7484,-2.7587,13.8219,58.1203,-1.1526,1.6452,-0.6107,290.7344
12:58:57:741,-1.9069,-2.6989,14.157,58.2125,-0.6306,1.3581,-0.1551,291.6406
12:58:57:768,-0.6332,-2.6306,13.5585,61.1947,0.0636,0.6553,0.0764,294.1094
12:58:57:784,-0.0669,-2.7396,12.2058,58.8081,0.5191,-0.0435,0.0694,294.1094
12:58:57:800,-0.213,-2.9108,11.5438,59.6193,0.4666,-0.4457,0.0111,294.9219
12:58:57:821,-0.5649,-3.3118,12.839,58.7539,0.0818,-0.5197,0.0117,295.125
12:58:57:841,-1.2844,-3.6925,15.0034,58.9165,-0.1971,-0.2536,0.1595,295.0156
12:58:57:861,-1.1707,-4.1318,16.0652,56.9712,-0.0197,0.1496,0.4734,295
12:58:57:883,0.0887,-4.376,13.944,56.3351,0.5113,0.4644,0.7736,294.9688
12:58:57:901,1.1098,-3.9774,10.2521,57.7148,0.865,0.3568,0.9214,294.5625
12:58:57:921,1.3947,-3.1214,7.8842,59.0186,0.8301,-0.1157,0.8974,294.25
12:58:57:940,0.9674,-2.4906,7.3814,58.094,0.5563,-0.6156,0.7707,293.4062
12:58:57:960,0.3748,-2.4523,8.3032,57.4474,0.3004,-0.8406,0.7054,292.3594
12:58:57:982,0.0336,-2.3385,8.7892,58.1996,0.2431,-0.7522,0.7715,291.3281
12:58:58:002,0.1126,-1.9243,8.3535,56.6683,0.3204,-0.5519,0.8788,290.4688
12:58:58:020,0.2838,-1.4515,7.5526,58.2109,0.4189,-0.402,0.9312,289.6406
12:58:58:040,0.2958,-1.1163,6.8104,57.2374,0.514,-0.3841,0.9371,288.7344
12:58:58:061,0.2503,-1.0205,6.2011,57.9838,0.6123,-0.4747,0.9379,287.7656
12:58:58:083,0.2192,-1.157,5.8659,56.3096,0.6945,-0.6065,0.9712,286.6875
12:58:58:102,0.2874,-1.2169,5.9114,54.6903,0.7087,-0.6488,1.0522,285.5938
12:58:58:121,0.8273,-1.0612,6.2957,56.9348,0.6847,-0.6006,1.1169,283.9844
12:58:58:142,1.5743,-0.8122,6.5758,55.4468,0.6397,-0.5676,1.0375,282.7812
12:58:58:168,1.6174,-0.6674,6.9876,56.6609,0.5241,-0.5367,0.8255,281.5
12:58:58:184,1.0859,-0.6961,7.6687,55.1154,0.3603,-0.4568,0.6194,280.2031
12:58:58:202,0.534,-0.8817,8.4014,55.5836,0.2386,-0.3423,0.5057,279.1562
12:58:58:220,0.4861,-1.0229,8.9592,55.4386,0.1992,-0.2731,0.4718,278.3125
12:58:58:241,1.2212,-1.1163,9.1376,56.0477,0.1824,-0.3208,0.4386,277.6719
12:58:58:268,2.4721,-1.1067,9.4524,55.1056,0.041,-0.4574,0.2924,277.1406
12:58:58:284,3.5603,-1.1187,10.7417,54.5906,-0.278,-0.5197,0.0034,276.6094
12:58:58:301,4.3504,-1.1055,12.4727,56.7081,-0.5635,-0.4022,-0.3378,276.1562
12:58:58:325,4.3935,-1.2899,13.4412,54.5486,-0.6219,-0.2198,-0.6597,276.0156
12:58:58:339,3.3999,-1.4072,12.8714,54.675,-0.5483,-0.0781,-0.8544,276.2656
12:58:58:362,2.5775,-1.4036,12.007,54.8493,-0.5215,-0.0816,-0.8736,276.9375
12:58:58:386,1.8053,-1.3078,12.0669,54.1355,-0.5712,-0.1218,-0.7945,277.9062
12:58:58:403,1.3564,-1.4694,12.5326,54.8544,-0.5252,-0.0491,-0.5995,278.9375
12:58:58:423,1.5875,-1.8753,11.9029,53.6745,-0.3174,0.0311,-0.3212,280.4375
12:58:58:441,2.4015,-2.0309,10.5526,52.9769,-0.0943,-0.1359,-0.0232,280.8594
12:58:58:468,3.5771,-1.7663,9.7816,54.9137,0.0133,-0.5011,0.1757,281.4062
12:58:58:483,4.1074,-1.3246,9.8187,52.9992,0.0107,-0.709,0.1797,281.625
12:58:58:507,3.358,-0.9978,9.541,52.4553,0.0208,-0.6028,0.038,281.5156
12:58:58:523,2.113,-0.9391,8.4337,53.5747,0.0581,-0.3458,-0.06,281.2969
12:58:58:541,1.4319,-0.8948,6.9744,50.4314,0.0695,-0.1154,-0.027,281.1719
12:58:58:561,1.3026,-0.5357,5.8922,51.9497,0.0059,-0.0392,0.0282,281.2031
12:58:58:582,1.6402,-0.1323,5.751,50.2787,-0.0929,-0.1591,0.0247,281.25
12:58:58:601,1.8221,0.1107,6.5028,51.5842,-0.1451,-0.3263,-0.0824,281.25
12:58:58:621,1.4714,-0.0102,7.2881,51.675,-0.0945,-0.3255,-0.2177,281.2031
12:58:58:640,0.88,-0.258,7.4126,52.5799,-0.0117,-0.1777,-0.2648,281.25
12:58:58:661,0.3892,-0.2053,7.3467,49.8619,0.0104,-0.0009,-0.1902,281.4375
12:58:58:682,0.5568,0.003,7.8507,51.0693,-0.0005,0.0399,-0.0475,281.7344
12:58:58:700,1.2954,0.2927,8.9616,49.9229,0.041,-0.0211,0.0465,282.1094
12:58:58:721,1.6689,0.3609,9.9792,48.9128,0.1609,-0.1234,0.0085,282.1562
12:58:58:741,1.5599,0.0353,10.7405,50.2971,0.3105,-0.157,-0.0627,282.0938
12:58:58:762,1.3301,-0.4962,10.8614,49.9329,0.387,-0.1008,-0.065,282.0625
12:58:58:785,1.3289,-0.7919,11.4145,49.4641,0.3079,-0.003,0.0015,282.0781
12:58:58:801,1.6401,-1.0002,12.3686,48.2457,0.1617,0.1717,0.0473,282.0938
12:58:58:820,1.9813,-1.4084,12.7325,47.0607,0.024,0.4114,-0.0006,282.0312
12:58:58:842,1.9861,-2.1338,12.5098,46.1929,-0.1457,0.5693,-0.0837,281.9531
12:58:58:867,1.9358,-2.6079,12.2919,48.3356,-0.3651,0.4777,-0.0653,281.9375
12:58:58:884,2.1154,-2.7671,13.3813,45.9173,-0.6429,0.0755,0.0015,281.9844
12:58:58:902,1.6796,-2.9431,16.3657,45.1574,-0.7625,-0.2656,0.1131,282.1094
12:58:58:920,1.3528,-3.301,17.8549,46.7896,-0.355,-0.088,0.3701,282.2188
12:58:58:942,1.554,-3.702,14.8178,45.8331,0.3902,0.4178,0.6913,282.2812
12:58:58:967,1.8748,-3.2771,10.2425,46.466,0.885,0.6343,0.9869,282.1094
12:58:58:983,2.2578,-2.4199,6.8739,43.4398,0.9284,0.3056,1.119,281.5
12:58:59:001,1.9753,-1.4862,5.9928,44.9832,0.6389,-0.3141,1.0777,279.8125
12:58:59:020,1.6461,-1.2671,7.0211,45.4224,0.3095,-0.717,1.0287,278.4062
12:58:59:040,1.3804,-1.3665,8.2793,44.9259,0.1931,-0.6835,1.0596,277.0781
12:58:59:060,0.9159,-1.1869,8.4421,44.3051,0.2935,-0.4166,1.1677,275.9375
12:58:59:084,1.3457,-0.7081,6.3459,43.9994,0.592,-0.1431,1.4055,274.7031
12:58:59:101,1.7084,-0.4639,5.8958,43.865,0.6184,-0.341,1.4029,274.7031
12:58:59:121,1.8975,-0.4328,6.3472,43.3545,0.5966,-0.5791,1.34,270.125
12:58:59:141,2.1944,-0.5381,7.2857,43.6713,0.5694,-0.6587,1.2729,268.4219
12:58:59:162,2.4218,-0.6614,8.205,42.4394,0.5534,-0.5306,1.1856,266.875
12:58:59:185,2.5751,-0.7632,8.5785,43.0019,0.5665,-0.2883,1.1004,266.875
12:58:59:203,2.8301,-0.7811,8.6791,42.2292,0.5912,-0.0576,1.0165,265.3281
12:58:59:220,3.2586,-0.7655,8.3571,41.7359,0.5979,0.0809,0.9094,263.1875
12:58:59:239,3.5028,-0.756,8.3008,42.0381,0.5193,0.0846,0.7438,262.5156
12:58:59:259,3.5639,-0.8769,8.6252,42.241,0.3606,0.0444,0.5613,261.2969
12:58:59:285,3.6644,-1.0744,9.1077,41.4958,0.1622,0.0223,0.3906,260.1406
12:58:59:301,3.674,-1.3797,9.9229,40.9437,-0.0426,0.0289,0.2428,259.1719
12:58:59:319,3.2838,-1.831,11.1068,41.5438,-0.2061,0.0878,0.1589,258.5
12:58:59:340,3.1078,-2.0871,11.9759,40.3034,-0.2354,0.2122,0.209,258.0156
12:58:59:360,3.3233,-2.1709,11.7102,41.0262,-0.1441,0.3195,0.2828,257.75
12:58:59:384,3.2981,-1.5927,10.859,41.228,-0.1201,0.2718,0.327,257.6094
12:58:59:400,3.3149,-0.7249,10.6878,40.4246,-0.2384,-0.0265,0.303,257.4062
12:58:59:425,2.6744,-0.3861,11.9855,40.7376,-0.3862,-0.4387,0.2077,257.1094
12:58:59:439,2.0687,-0.8481,13.9691,39.2595,-0.293,-0.6595,0.2311,256.75
12:58:59:460,2.21,-1.4335,14.2432,40.4132,0.0882,-0.4864,0.4306,256.4531
12:58:59:486,2.9043,-1.5413,12.1687,40.7763,0.4591,-0.1586,0.6812,256.2969
12:58:59:505,3.7566,-1.1366,9.7074,39.0645,0.5609,-0.0246,0.838,255.9062
12:58:59:519,4.4952,-0.5872,8.2027,39.7185,0.4725,-0.056,0.8133,255.2344
12:58:59:600,4.5706,-0.0509,7.3719,40.2998,0.3329,-0.0832,0.629,254.2344
12:58:59:600,4.1086,0.2723,6.7769,40.6575,0.2197,-0.0472,0.3651,253.1562
12:58:59:601,3.2622,0.2843,6.2382,40.6575,0.1491,-0.0137,0.1195,252.2656
12:58:59:601,2.3931,0.2388,5.897,39.992,0.1017,-0.0177,-0.0262,251.6406
12:58:59:622,1.8676,0.1838,5.9437,41.181,0.089,-0.0656,-0.0973,251.3281
12:58:59:639,1.5132,0.0605,6.0515,39.7098,0.1318,-0.1207,-0.1194,251.2656
12:58:59:659,1.3265,0.0808,6.0371,40.7091,0.1678,-0.145,-0.0914,251.3281
12:58:59:681,1.0931,0.2017,6.4058,40.2649,0.1246,-0.1343,-0.0485,251.4375
12:58:59:700,1.1122,0.3358,7.4365,39.5127,0.0882,-0.105,0.0434,251.5312
12:58:59:727,1.4151,0.4519,8.3439,39.9842,0.1595,-0.0872,0.1544,251.5938
12:58:59:739,1.6701,0.5668,8.812,39.2675,0.2791,-0.096,0.2527,251.5781
12:58:59:761,2.0412,0.6782,9.3339,39.7108,0.3369,-0.1056,0.3352,251.5312
12:58:59:784,2.5452,0.7045,9.9911,39.5459,0.3577,-0.0294,0.3792,251.3125
12:58:59:800,2.8576,0.6327,10.2054,40.3665,0.3526,0.0612,0.3632,250.7812
12:58:59:822,2.8947,0.5441,10.6914,39.4418,0.2711,0.0833,0.3363,250.2812
12:58:59:849,2.9989,0.1909,11.6036,38.4176,0.1779,0.0787,0.3459,249.7969
12:58:59:868,3.1018,-0.0724,12.5481,40.3207,0.1518,0.0894,0.3842,249.3281
12:58:59:882,3.4083,-0.325,12.7014,39.7293,0.1662,0.1296,0.4077,248.8906
12:58:59:900,3.6608,-0.3741,12.286,40.2548,0.0938,0.0992,0.3776,248.4375
12:58:59:919,3.5208,-0.2221,12.7433,39.8149,-0.1633,-0.0789,0.3254,247.9531
12:58:59:940,3.0599,-0.4627,14.3737,39.0764,-0.3619,-0.1583,0.3062,247.4688
12:58:59:959,2.4518,-0.9535,15.5421,38.4267,-0.2695,-0.0267,0.3757,247.0625
12:58:59:982,2.441,-1.6131,14.9172,40.4854,0.1236,0.2694,0.5584,246.7969
12:59:00:001,2.8696,-1.9291,11.612,38.9198,0.522,0.4803,0.7432,246.5
12:59:00:020,2.9151,-1.5125,8.6348,39.2829,0.5646,0.2156,0.8596,246
12:59:00:040,2.9282,-0.9523,8.1021,38.6559,0.338,-0.3008,0.944,245.1562
12:59:00:059,3.0731,-0.6698,9.1196,39.2105,0.1723,-0.6435,0.9677,244.1406
12:59:00:081,2.933,-0.5285,9.7242,39.8284,0.244,-0.7019,0.9398,242.4375
12:59:00:101,2.6086,-0.4663,9.1879,38.085,0.4719,-0.5341,0.9366,241.375
12:59:00:119,2.3189,-0.3298,7.725,39.4696,0.6764,-0.2795,0.9728,240.2656
12:59:00:139,2.1681,-0.0485,6.1688,39.6567,0.7473,-0.08,1.0071,239.0938
12:59:00:160,2.2339,0.1155,5.2614,39.4579,0.6876,0.005,1.0066,237.8125
12:59:00:182,2.4242,0.24,5.1393,41.1589,0.5851,0.0007,0.9645,236.5469
12:59:00:199,2.4422,0.3298,5.818,40.808,0.5255,-0.0398,0.8828,235.2188
12:59:00:219,2.4913,0.179,6.6225,41.0158,0.559,-0.0432,0.7709,233.9688
12:59:00:240,2.4278,-0.2292,6.6117,40.5954,0.5739,0.0228,0.6758,233.3906
12:59:00:261,2.9797,0.0772,7.2019,39.9192,0.4059,0.218,0.6849,232.3594
12:59:00:284,3.6142,0.8146,8.4469,39.6218,0.2597,0.5328,0.6031,231.3906
12:59:00:301,3.2634,1.5904,8.5618,40.8205,0.2011,0.7139,0.2375,230.5
12:59:00:334,2.6732,1.503,8.5151,39.8231,-0.0029,0.7517,-0.1886,229.6719
12:59:00:339,2.3692,0.7009,9.4632,39.5019,-0.4157,0.8814,-0.4568,229.0625
12:59:00:359,1.9418,-0.1119,11.2589,40.1621,-0.767,1.0798,-0.5303,228.9844
12:59:00:384,1.4965,-0.5656,12.9935,40.9315,-0.8171,1.0391,-0.4368,229.6875
12:59:00:402,1.9909,-1.1091,14.2109,40.153,-0.5611,0.8281,-0.2451,230.4062
12:59:00:420,2.8001,-1.2863,13.4112,40.472,-0.2392,0.7941,-0.1111,231.0312
12:59:00:440,3.1413,-1.0684,11.4085,41.1391,-0.2397,0.8364,-0.1372,231.375
12:59:00:460,2.8073,-0.9331,10.6938,39.6513,-0.6258,0.7879,-0.2776,231.5312
12:59:00:485,1.4007,-1.2133,14.2408,41.2962,-1.04,0.6907,-0.342,231.7031
12:59:00:501,0.5472,-1.8094,14.1104,40.107,-0.4373,0.5395,-0.1119,232.1094
12:59:00:519,0.6537,-2.0632,11.6587,42.2691,0.2937,0.0614,0.3129,232.6562
12:59:00:538,2.0268,-1.6167,9.3387,39.5034,0.7422,-0.7141,0.7142,233.2031
12:59:00:561,3.2203,-0.3885,8.6588,41.0008,0.8413,-1.4523,0.801,233.3906
12:59:00:583,3.7159,0.4794,8.982,39.9613,0.7593,-1.7122,0.5683,233.0156
12:59:00:604,3.534,0.4627,9.3686,41.5004,0.6522,-1.3751,0.192,232.0938
12:59:00:619,2.6254,-0.0521,8.7832,40.0295,0.5699,-0.5575,-0.0943,230.625
12:59:00:638,1.5599,-0.149,7.1875,40.8318,0.4631,0.3158,-0.1481,230.3281
12:59:00:658,1.0308,0.1706,5.5475,41.2938,0.3204,0.7983,-0.0672,230
12:59:00:685,0.9243,0.5034,4.7825,40.2012,0.1997,0.826,0.0093,230.0156
12:59:00:702,1.0368,0.732,4.6628,40.6808,0.1377,0.5885,0.0716,230.0781
12:59:00:719,1.2451,0.9116,5.2171,41.7541,0.1028,0.3062,0.1169,230.0781
12:59:00:739,1.5719,1.1127,5.9317,41.6336,0.0583,0.1629,0.1299,230
12:59:00:759,1.8305,1.2935,6.802,41.3035,-0.0365,0.1378,0.0982,229.875
12:59:00:786,2.0938,1.2995,7.992,40.5063,-0.1201,0.1655,0.1073,229.7188
12:59:00:801,2.4961,1.3821,9.4512,41.2057,-0.1087,0.1381,0.185,229.5469
12:59:00:819,3.3664,1.7903,11.0518,42.5814,0.081,0.104,0.2279,229.4375
12:59:00:839,3.8512,2.0596,11.1403,40.7076,0.4258,0.0976,0.0663,229.3281
12:59:00:859,3.5352,1.9603,10.4053,41.238,0.6565,0.0662,-0.2025,229.1406
12:59:00:884,2.9737,1.5413,9.6619,42.0462,0.6557,0.0524,-0.3577,228.7188
12:59:00:901,2.283,1.2408,9.3698,40.4091,0.4669,-0.0518,-0.3761,228.7344
12:59:00:920,1.9681,0.7141,9.9408,41.7249,0.1595,-0.2864,-0.2946,228.9688
12:59:00:942,2.1058,-0.0629,11.2349,41.0591,-0.184,-0.3442,-0.1348,229.5
12:59:00:958,2.1094,-0.1766,12.4667,41.7883,-0.5326,-0.2749,0.091,229.6562
12:59:00:982,2.2638,-0.0114,14.418,40.8611,-0.734,-0.3261,0.3363,229.9375
12:59:01:002,2.0388,-0.0748,15.997,41.653,-0.5484,-0.333,0.4772,230.0469
12:59:01:019,1.208,-0.5034,15.0561,43.3175,0.0085,-0.1738,0.6042,229.9219
12:59:01:040,0.868,-0.7057,11.2852,42.7269,0.4796,0.0795,0.8093,229.7969
12:59:01:059,1.2104,-0.2089,7.7322,41.9088,0.4368,0.0739,0.9552,229.3438
12:59:01:085,1.3959,0.4603,6.5231,43.0695,-0.0085,-0.3181,0.9656,228.6719
12:59:01:098,1.2415,0.58,7.9285,44.4894,-0.4645,-0.8086,0.9243,227.6562
12:59:01:119,1.0069,0.3334,9.6212,42.3744,-0.5715,-1.0361,0.9195,225.9688
12:59:01:147,0.9506,0.1981,10.0629,41.7797,-0.3539,-0.9849,0.9592,224.9531
12:59:01:159,0.9901,0.3035,9.1125,44.1385,-0.0485,-0.7695,1.0199,224.0938
12:59:01:179,1.4163,0.6231,7.549,43.7555,0.0954,-0.5937,1.0263,223.1406
12:59:01:202,1.718,1.005,7.0678,43.8,-0.0128,-0.5482,0.9131,222.0625
12:59:01:220,1.9729,1.0732,7.8938,43.788,-0.1361,-0.4728,0.7422,220.875
12:59:01:239,1.8281,0.8601,8.7413,42.9661,-0.0802,-0.3839,0.5488,219.7969
12:59:01:259,1.4666,0.4435,8.9652,44.0851,0.1153,-0.2632,0.4173,218.8594
12:59:01:285,1.2415,0.2233,8.7449,42.5593,0.2945,-0.0885,0.3741,218.1562
12:59:01:301,1.3492,0.0473,8.1153,43.085,0.38,0.1253,0.3549,217.6406
12:59:01:318,1.7024,-0.0329,7.7298,43.4369,0.3209,0.262,0.3102,217.1406
12:59:01:342,2.0077,0.0557,8.1404,44.9674,0.1664,0.2675,0.2253,216.625
12:59:01:358,2.095,-0.0664,9.3255,43.918,0.0559,0.1786,0.0939,216.1562
12:59:01:378,2.2375,-0.5405,10.4448,44.1934,0.0325,0.1847,-0.0275,215.7969
12:59:01:401,2.3273,-0.8913,10.9704,45.1028,-0.0165,0.3853,-0.0946,215.5469
12:59:01:419,2.4302,-1.1905,11.1978,46.783,-0.1787,0.6667,-0.1207,215.5781
12:59:01:438,2.7738,-1.4539,11.515,45.8989,-0.3965,0.9232,-0.1207,215.6875
12:59:01:460,2.8588,-1.4431,11.8143,46.8167,-0.5475,1.1248,-0.1053,215.8594
12:59:01:485,3.0779,-1.5939,11.4193,46.5389,-0.5768,1.1951,-0.1095,216.0938
12:59:01:506,3.1892,-1.7208,10.4281,46.5729,-0.6496,1.1009,-0.1697,216.2031
12:59:01:521,2.8863,-1.315,10.2892,46.8203,-0.9329,0.8582,-0.2645,216.4531
12:59:01:539,2.3632,-1.3425,12.3051,46.9672,-1.3095,0.6263,-0.415,216.7344
12:59:01:559,1.0248,-2.1111,15.0644,46.5758,-1.3321,0.756,-0.4704,217.1406
12:59:01:586,1.0368,-3.2005,15.1075,46.5137,-0.8517,1.0092,-0.2424,217.7031
12:59:01:603,2.4793,-3.4614,12.5673,47.4848,-0.3428,1.0015,0.0825,218.5
12:59:01:674,3.6764,-2.4738,10.4185,48.2666,-0.184,0.6649,0.2327,219.1719
12:59:01:674,3.9733,-1.6957,9.7649,47.6538,-0.2623,0.2308,0.0415,219.4062
12:59:01:675,2.7008,-1.6801,10.185,45.9479,-0.363,0.0561,-0.2392,219.2656
12:59:01:691,1.6174,-1.9052,9.8271,47.2475,-0.3265,0.1908,-0.2941,219.1719
12:59:01:703,0.7555,-1.5975,8.6815,48.8515,-0.2272,0.3296,-0.1713,219.4844
12:59:01:718,0.3401,-0.6901,7.6939,49.0437,-0.0557,0.2103,0.1078,219.875
12:59:01:739,0.9123,0.3549,6.7901,48.1546,0.2623,-0.1847,0.4231,220.125
12:59:01:759,2.198,1.2695,5.7677,48.1546,0.5995,-0.7346,0.5627,220.0312
12:59:01:786,3.0886,2.0165,5.2039,48.3795,0.7193,-1.1439,0.3877,219.5
12:59:01:802,2.7283,2.4307,5.5379,47.9004,0.5638,-1.0225,-0.0105,218.7344
12:59:01:819,1.7168,1.8405,6.0072,48.1961,0.2977,-0.3721,-0.386,218.1094
12:59:01:839,0.1091,1.0744,6.3292,46.4074,0.0764,0.3538,-0.5734,217.9844
12:59:01:859,-1.1132,0.3693,6.6967,48.0181,0.0219,0.7411,-0.4746,218.3594
12:59:01:885,-0.8965,-0.9355,7.7154,47.8779,0.2996,0.2635,0.0873,219.0156
12:59:01:904,-0.9827,-1.2767,9.1496,48.2529,0.3097,-0.2233,0.3187,219.0156
12:59:01:919,-0.9588,-1.8058,11.3067,47.3871,0.2653,-0.5562,0.6055,219.8281
12:59:01:938,0.1761,-2.2188,13.3394,47.7354,0.2967,-0.6337,0.9123,219.8281
12:59:01:959,1.4462,-1.9231,14.1678,47.8924,0.3878,-0.4707,1.0745,219.3125
12:59:01:985,2.6649,-1.4503,14.1522,47.8646,0.4647,-0.2723,1.0189,218.5625
12:59:02:003,3.2335,-1.1893,13.3358,45.6062,0.4495,-0.0654,0.7653,216.125
12:59:02:023,2.708,-1.1774,12.3722,46.7078,0.335,0.0247,0.47,216.125
12:59:02:041,1.6162,-1.4886,11.9963,48.2402,0.2061,-0.0997,0.3019,214.9531
12:59:02:059,0.9662,-1.9016,12.1734,46.6431,0.1915,-0.2755,0.3366,214
12:59:02:085,1.1841,-2.1781,11.6563,46.2635,0.2804,-0.2904,0.4711,213.4219
12:59:02:103,1.8209,-2.0752,10.3562,47.4059,0.2615,-0.1745,0.5355,213.0625
12:59:02:118,2.0268,-1.6526,9.365,47.6594,0.0503,-0.0395,0.4924,212.6406
12:59:02:138,1.8496,-1.4479,8.9879,47.2125,-0.1973,0.0835,0.4021,212.0312
12:59:02:158,1.4941,-1.3809,8.6959,46.1719,-0.3353,0.2265,0.319,211.4062
12:59:02:179,0.9865,-1.3294,7.9285,45.3569,-0.3667,0.3493,0.2998,210.8438
12:59:02:202,0.5915,-1.2061,6.978,45.2485,-0.3617,0.2955,0.3536,210.4219
12:59:02:222,0.4287,-1.0337,6.6835,45.2228,-0.3694,-0.0105,0.4364,209.8438
12:59:02:238,0.2898,-0.811,7.4604,44.1881,-0.3223,-0.3967,0.5246,209.6875
12:59:02:259,0.0863,-0.8338,8.3906,43.878,-0.0927,-0.6454,0.625,209.2969
12:59:02:284,0.0624,-1.1079,8.4217,42.5582,0.2448,-0.5908,0.7568,208.7969
12:59:02:304,0.443,-1.0972,7.4712,43.4984,0.4607,-0.3242,0.9174,208.1719
12:59:02:319,0.8836,-0.8314,6.8571,45.172,0.4527,-0.1309,1.0173,207.3281
12:59:02:338,1.2559,-0.3837,7.3216,43.2298,0.3555,-0.1413,1.0053,206.2656
12:59:02:360,1.3864,-0.1658,8.2493,43.9627,0.286,-0.1857,0.8964,205.125
12:59:02:386,1.3481,-0.1431,8.8898,43.8721,0.2469,-0.1346,0.785,203.875
12:59:02:404,1.7096,-0.1299,9.0717,44.3226,0.2099,-0.0819,0.6987,202.7188
12:59:02:423,2.3476,-0.2364,9.1998,42.8464,0.1305,-0.1402,0.568,201.75
12:59:02:438,3.0503,-0.5489,10.0031,42.8016,-0.0146,-0.3013,0.4039,200.8594
12:59:02:459,3.6908,-0.823,11.2876,43.3041,-0.1633,-0.3788,0.2167,200.0938
12:59:02:479,4.0822,-1.1881,12.535,42.3725,-0.2506,-0.2965,0.0005,199.7812
12:59:02:503,4.4581,-1.5724,13.1586,43.6869,-0.241,-0.0648,-0.1764,199.3281
12:59:02:519,4.9465,-1.8453,12.4284,42.8803,-0.1787,0.2122,-0.3058,199.0781
12:59:02:538,5.3931,-1.7723,11.2193,42.114,-0.2429,0.2707,-0.4816,199.1875
12:59:02:561,5.2147,-1.4455,10.8219,40.1912,-0.469,0.1051,-0.7455,199.5
12:59:02:585,4.1385,-1.6418,12.3386,40.7025,-0.7731,-0.1346,-1.0472,199.9844
12:59:02:601,2.3967,-2.7958,14.6263,42.2584,-0.841,0.0201,-1.1141,200.75
12:59:02:619,1.3421,-3.5392,14.7185,41.6521,-0.4959,0.4689,-0.7711,201.8281
12:59:02:638,1.87,-3.064,12.1782,41.0492,0.0075,0.667,-0.2533,203.2656
12:59:02:659,3.0527,-2.0045,9.4979,40.8622,0.323,0.3456,0.0548,204.5469
12:59:02:685,3.5747,-1.1223,7.907,40.9354,0.404,-0.1485,0.0423,205.2188
12:59:02:703,3.261,-0.7308,7.1755,39.6566,0.3201,-0.4174,-0.125,205.2969
12:59:02:718,2.6158,-0.6015,6.7925,41.4358,0.1792,-0.3756,-0.2898,205.1406
12:59:02:738,1.7862,-0.4411,6.2693,40.022,0.0685,-0.1972,-0.4059,205.0938
12:59:02:759,1.0655,-0.2604,5.7869,39.0088,-0.0237,-0.0587,-0.4462,205.25
12:59:02:783,0.8261,-0.0569,5.7211,39.4479,-0.0679,-0.0033,-0.4376,205.6094
12:59:02:800,0.9015,0.2089,5.7905,39.8505,-0.0378,-0.0547,-0.4555,206.1094
12:59:02:818,0.862,0.3538,6.1197,40.6628,0.0011,-0.133,-0.529,206.625
12:59:02:838,0.7339,0.2328,6.5782,40.8105,-0.0096,-0.1029,-0.6094,207.375
12:59:02:858,0.3126,0.0988,7.336,40.2554,-0.0679,0.0561,-0.6334,207.9688
12:59:02:878,-0.1004,0.0245,8.1847,39.8131,-0.0908,0.2036,-0.5633,208.625
12:59:02:899,0.0612,0.0784,9.1903,40.1075,-0.0482,0.2319,-0.423,209.375
12:59:02:918,0.88,0.4974,10.5562,40.7144,0.0988,0.1368,-0.3223,210.0469
12:59:02:939,1.3995,0.5668,11.0051,41.6282,0.3414,0.0497,-0.3727,210.5469
12:59:02:958,1.3708,0.2496,10.5873,40.9035,0.4615,0.0007,-0.4531,210.8906
12:59:02:984,1.0739,-0.3118,10.8734,41.1787,0.3196,-0.0198,-0.4179,211.0625
12:59:03:001,0.8189,-0.6865,12.0094,39.4186,0.0794,0.071,-0.2118,211.4688
12:59:03:021,1.2774,-0.7596,13.3993,41.594,-0.07,0.1437,0.0657,211.9219
12:59:03:038,2.6266,-0.8829,14.3617,42.069,-0.0583,0.1565,0.2455,212.25
12:59:03:057,3.3484,-0.8876,14.5353,41.1287,-0.0258,0.1062,0.2505,212.3281
12:59:03:078,3.1569,-1.0636,14.7233,41.7212,-0.0325,0.0484,0.218,212.1406
12:59:03:101,2.3476,-1.473,14.6646,41.3208,0.0176,0.0769,0.27,211.75
12:59:03:123,1.5994,-1.8226,14.0098,43.0336,0.192,0.1861,0.4812,211.5
12:59:03:141,2.793,-1.8094,9.9516,40.9614,0.7539,0.2931,0.9102,210.6406
12:59:03:161,3.2778,-1.4299,7.4042,42.5899,0.7276,0.0745,0.8346,209.7031
12:59:03:184,3.1305,-0.981,6.2741,42.1711,0.3574,-0.2829,0.6335,208.5469
12:59:03:204,2.593,-0.9236,7.0882,42.9622,-0.1238,-0.5453,0.4212,207.5312
12:59:03:219,1.9957,-1.2085,8.3056,42.7179,-0.4224,-0.5367,0.279,206.7344
12:59:03:239,1.4043,-1.2875,8.8467,43.5247,-0.4751,-0.2986,0.2482,206.2656
12:59:03:264,0.9734,-1.1642,8.302,41.4575,-0.3483,-0.0057,0.3062,206.2656
12:59:03:285,0.7651,-0.9044,7.0486,41.6477,-0.1758,0.1586,0.3922,205.7969
12:59:03:303,0.5891,-0.7392,5.8144,42.1165,-0.0565,0.1573,0.47,205.7969
12:59:03:318,0.4574,-0.756,4.937,42.5886,0.0128,0.0561,0.5589,205.0938
12:59:03:339,0.3126,-0.9248,4.4354,42.2592,0.0405,-0.0635,0.6862,204.6094
12:59:03:361,0.546,-0.9116,4.3827,43.5113,0.025,-0.2411,0.8551,204.6094
12:59:03:384,1.3205,-0.7284,4.9777,44.3199,-0.0288,-0.5069,0.9603,203.1719
12:59:03:402,2.0879,-0.4782,6.3352,42.613,-0.1356,-0.7692,0.939,202.6875
12:59:03:418,2.7211,-0.2867,8.4002,44.5201,-0.2557,-0.8757,0.8064,202.2188
12:59:03:438,3.0503,-0.4591,10.1228,42.9849,-0.3284,-0.6896,0.584,201.0938
12:59:03:457,3.0862,-0.6997,11.0063,43.1176,-0.3843,-0.2979,0.3643,200
12:59:03:477,3.0647,-0.7799,11.0757,45.5347,-0.5004,0.0755,0.177,199.0625
12:59:03:502,3.0384,-0.9224,11.436,42.7532,-0.6575,0.2212,0.001,198.4375
12:59:03:523,3.0396,-1.4455,12.3063,44.6968,-0.751,0.2319,-0.1369,198.0781
12:59:03:537,2.8959,-1.9459,13.0784,45.1315,-0.7065,0.2489,-0.1777,197.9844
12:59:03:558,2.8875,-2.2045,12.9025,45.8969,-0.5484,0.2675,-0.1423,198.125
12:59:03:577,2.7965,-2.2727,11.9939,45.0811,-0.4421,0.145,-0.0954,198.4531
12:59:03:602,2.7235,-1.8585,11.8167,45.6815,-0.477,-0.1705,0.0242,198.8281
12:59:03:619,3.2072,-1.2599,13.5728,46.8704,-0.4562,-0.6252,0.1986,199.1094
12:59:03:637,3.4178,-0.9523,15.5672,46.011,-0.1619,-0.9088,0.3086,199.3281
12:59:03:660,3.8368,-1.2983,15.9778,46.7775,0.3646,-0.7802,0.4047,199.3594
12:59:03:682,4.6461,-1.9387,14.0397,47.7251,0.8948,-0.4092,0.4889,199.1406
12:59:03:750,5.6468,-2.578,11.0553,48.7923,1.1806,-0.0856,0.5206,198.4219
12:59:03:751,6.2454,-2.5361,8.5199,48.1891,1.1449,-0.0099,0.4567,197.6719
12:59:03:751,6.2849,-1.7579,7.0582,47.1234,0.8623,-0.1165,0.2657,196.8281
12:59:03:765,5.769,-1.066,7.1205,47.541,0.5097,-0.2856,-0.0917,196.0156
12:59:03:787,4.7095,-1.0241,7.7693,47.2747,0.3308,-0.337,-0.5082,195.3594
12:59:03:800,3.3496,-1.2695,7.5826,48.8793,0.3571,-0.2204,-0.7993,195.0781
12:59:03:821,2.2136,-1.4994,6.5255,48.7771,0.4096,-0.0265,-0.8685,195.2969
12:59:03:838,1.597,-1.3964,5.4386,49.3791,0.4266,0.1211,-0.7447,195.9688
12:59:03:860,1.6988,-1.0253,4.5826,48.7675,0.4144,0.2209,-0.5508,196.8594
12:59:03:884,2.3776,-0.6829,3.9518,49.0992,0.3433,0.3163,-0.439,197.6719
12:59:03:901,2.7941,-0.2328,3.8476,50.5071,0.1923,0.3706,-0.4504,198.3281
12:59:03:919,2.8372,0.3023,4.105,50.4678,-0.0301,0.3445,-0.5612,198.7969
12:59:03:943,2.8456,0.5225,6.0024,50.4678,-0.2591,0.1698,-0.7247,199.2188
12:59:03:957,2.5284,0.2448,8.5067,50.8038,-0.31,0.1781,-0.8621,199.4844
12:59:03:978,1.6282,-0.0629,9.7936,52.3893,-0.1843,0.3653,-0.9189,200.1406
12:59:04:003,0.6777,-0.4543,9.8523,52.3893,-0.0349,0.5733,-0.8406,201.5625
12:59:04:021,0.4155,-0.5058,9.8008,53.3978,0.0029,0.6574,-0.6512,202.6094
12:59:04:040,0.7052,-0.4352,10.2018,53.7929,-0.0892,0.7115,-0.4965,203.6875
12:59:04:058,0.959,-0.4866,10.853,52.7517,-0.2173,0.7304,-0.4158,204.5625
12:59:04:077,1.1314,-0.7189,12.0992,54.4885,-0.2898,0.6311,-0.3692,205.2031
12:59:04:102,1.463,-1.3641,13.6818,54.8604,-0.232,0.5661,-0.3039,205.7812
12:59:04:119,1.1805,-1.971,13.7656,55.4208,-0.2213,0.6809,-0.2304,206.2969
12:59:04:137,0.1545,-1.6753,13.9703,54.7711,-0.5081,0.6921,-0.0776,206.7656
12:59:04:157,-0.5518,-1.3773,16.0066,54.6291,-0.7329,0.5464,0.1344,207.1094
12:59:04:177,-0.2932,-1.9926,17.3126,54.1925,-0.4589,0.4566,0.3097,207.375
12:59:04:202,-0.0933,-2.5636,15.4954,55.2799,0.085,0.5757,0.4769,207.4844
12:59:04:220,0.4945,-2.6258,11.8742,55.3029,0.3766,0.7325,0.6569,207.3438
12:59:04:237,0.9255,-2.1506,9.1304,54.7976,0.2546,0.6617,0.7294,206.9688
12:59:04:257,0.8656,-1.4563,8.4804,55.3882,-0.0921,0.4199,0.7286,206.3125
12:59:04:282,0.6777,-1.1067,9.213,54.4135,-0.318,0.1517,0.7027,205.125
12:59:04:302,0.4263,-1.0576,9.6631,54.1311,-0.2424,0.005,0.6761,204.3281
12:59:04:319,0.1964,-1.072,8.9125,54.511,-0.0141,0.0239,0.7166,203.5625
12:59:04:337,0.1019,-1.0002,7.6185,54.0275,0.172,0.1352,0.826,202.8594
12:59:04:357,0.0384,-0.75,6.3855,53.8124,0.2578,0.2369,0.9736,202.0312
12:59:04:377,0.2276,-0.4567,5.6959,53.9478,0.2852,0.2324,1.1467,201.0781
12:59:04:403,1.1888,0.0365,6.0359,53.8247,0.3233,0.0646,1.2711,199.9531
12:59:04:418,1.6042,0.3107,6.413,53.4966,0.445,-0.0845,1.2085,198.7031
12:59:04:437,1.4642,0.4328,6.4417,52.9774,0.5188,-0.1397,1.0828,197.9688
12:59:04:459,1.4151,0.3621,6.8116,52.6654,0.4895,-0.1445,0.9874,196.4844
12:59:04:478,1.3672,0.4375,7.5694,53.9428,0.4282,-0.137,0.9321,195.1875
12:59:04:500,1.7012,0.5309,8.3595,52.5074,0.3981,-0.1003,0.8575,193.9531
12:59:04:520,2.1729,0.5644,8.8551,53.5277,0.3971,-0.0859,0.6921,192.7969
12:59:04:539,2.5224,0.7272,9.1843,51.9043,0.3406,-0.0989,0.4322,191.7188
12:59:04:557,2.52,0.5872,9.9229,51.7435,0.2083,-0.2606,0.0868,190.8281
12:59:04:578,2.2148,0.1,11.4624,53.5157,0.1108,-0.5093,-0.243,189.9062
12:59:04:602,2.3105,-0.5501,12.7109,51.439,0.1334,-0.6401,-0.4592,189.7812
12:59:04:619,2.5511,-0.8948,13.3885,51.2269,0.2141,-0.5413,-0.5873,190.0156
12:59:04:637,2.5464,-1.1809,13.1443,50.2844,0.2687,-0.0528,-0.6611,190.5
12:59:04:659,2.0029,0.5201,11.351,52.3173,-0.3116,1.0026,-0.8158,191.125
12:59:04:678,1.9693,0.9439,11.8562,51.5611,-0.8482,1.1432,-1.17,191.8125
12:59:04:698,1.7251,0.1634,12.8007,50.8311,-1.0876,1.0843,-1.5484,193.6094
12:59:04:719,1.6892,-0.9954,12.6631,50.5061,-0.9718,0.9041,-1.774,194.9844
12:59:04:738,1.8221,-1.5784,11.5821,49.8967,-0.7257,0.6673,-1.8105,194.9844
12:59:04:757,2.0962,-1.7089,10.1791,49.5394,-0.53,0.3384,-1.7396,196.9062
12:59:04:777,2.0807,-1.5784,9.2729,48.4461,-0.4123,-0.0395,-1.6941,199.0469
12:59:04:797,1.9155,-1.5245,9.2094,47.8258,-0.2583,-0.3692,-1.7154,201.2188
12:59:04:821,1.0536,-1.4838,8.6216,48.7234,0.0448,-0.6459,-1.7538,203.1562
12:59:04:836,-0.0023,-1.479,7.5083,46.6268,0.2692,-0.9019,-1.607,206.0938
12:59:04:857,-0.6751,-1.4491,6.7805,48.5222,0.4194,-0.823,-1.2701,207.0781
12:59:04:878,-0.7625,-1.054,6.4154,47.5343,0.5342,-0.5698,-0.8611,209.875
12:59:04:902,-0.2214,-0.6255,6.14,46.726,0.6008,-0.3285,-0.5143,211.4531
12:59:04:920,0.224,-0.2795,5.83,47.1252,0.6037,-0.1634,-0.3053,212.5781
12:59:04:937,0.4143,0.0114,5.8779,46.0903,0.5713,-0.0635,-0.1886,212.9375
12:59:04:960,0.4981,0.0497,6.1329,46.2573,0.5159,0.0777,-0.1135,213.4531
12:59:04:978,0.4646,0.082,6.662,45.9236,0.3976,0.1152,-0.0331,213.7188
12:59:05:006,0.2958,-0.0628,7.9154,47.3694,0.236,0.0785,0.0812,213.9219
12:59:05:021,-0.1806,0.0114,8.982,45.7796,0.1396,0.1341,0.2412,213.9219
12:59:05:038,-0.4117,0.2328,9.9935,45.8465,0.1566,-0.0251,0.4053,213.9219
12:59:05:056,-0.049,0.2999,10.8794,46.5265,0.3108,-0.0627,0.486,213.7969
12:59:05:076,0.2814,0.2723,11.3283,43.8772,0.5081,0.0465,0.4343,213.5312
12:59:05:105,0.2742,0.4304,11.2924,43.5908,0.5441,0.0974,0.3672,212.75
12:59:05:122,0.528,0.3825,11.527,44.2827,0.4107,0.1592,0.3374,212.1562
12:59:05:140,0.71,0.1802,12.0968,43.3281,0.1846,0.2406,0.2908,211.6719
12:59:05:163,0.9291,-0.0353,12.5888,44.2545,-0.028,0.3626,0.2713,211.2031
12:59:05:176,0.9267,0.1059,12.6762,42.3971,-0.2413,0.4393,0.2681,210.8125
12:59:05:197,0.5939,0.3562,13.495,42.5084,-0.448,0.2814,0.2452,210.5
12:59:05:220,-0.0909,0.1383,14.8932,42.3035,-0.4567,0.0449,0.2111,210.2031
12:59:05:238,-0.444,-0.9152,15.2644,41.8766,-0.1593,-0.0108,0.2719,209.9375
12:59:05:257,-0.2214,-1.734,13.4483,42.5813,0.2336,0.2689,0.4969,209.7344
12:59:05:279,0.1689,-1.6095,10.6579,40.8343,0.4051,0.4894,0.7696,209.5312
12:59:05:296,0.5388,-0.9068,8.6695,40.3734,0.3169,0.3581,0.9456,209.0938
12:59:05:318,0.874,-0.1838,7.9201,39.6306,0.1316,0.0449,0.9715,208.3438
12:59:05:337,1.2044,0.1694,8.1201,39.9199,-0.0245,-0.1775,0.8753,207.3438
12:59:05:357,1.105,0.0832,8.5223,38.7539,-0.11,-0.1072,0.7398,206.2031
12:59:05:377,0.4801,-0.173,8.5127,37.717,-0.1284,0.2002,0.6945,205.6562
12:59:05:399,0.1258,-0.0221,7.9776,40.243,-0.0871,0.5304,0.7805,204.2656
12:59:05:419,0.1091,0.4842,7.5957,36.1584,-0.0218,0.626,0.8625,203.4688
12:59:05:437,0.1905,0.6387,7.5203,37.3815,0.0783,0.5419,0.8647,202.6562
12:59:05:462,-0.1459,0.5644,7.5251,38.5976,0.2083,0.3477,0.8218,201.7188
12:59:05:476,-0.2776,0.3502,7.5155,35.4633,0.327,0.1831,0.8588,200.7656
12:59:05:498,-0.0298,0.1694,7.5035,37.6768,0.4083,0.1227,0.9272,199.7969
12:59:05:521,0.3126,0.1035,7.3336,37.8655,0.4357,0.1725,0.9789,198.8281
12:59:05:540,0.7112,0.4866,7.3036,36.1371,0.3981,0.2113,0.9802,197.8438
12:59:05:559,1.1062,0.9212,7.3347,34.7512,0.3406,0.1871,0.8628,196.7188
12:59:05:576,1.36,1.0588,7.4353,35.4761,0.2586,0.0414,0.6247,195.5625
12:59:05:597,1.2643,0.908,7.646,34.9412,0.1324,-0.1674,0.3587,194.5312
12:59:05:623,1.0572,0.428,8.2673,33.7833,-0.0764,-0.4467,0.1496,193.6406
12:59:05:640,1.0045,-0.2304,9.9588,35.7944,-0.3302,-0.6574,0.0503,193.0781
12:59:05:657,1.2523,-0.7141,11.6946,34.3378,-0.5233,-0.6084,0.0434,192.75
12:59:05:676,1.7024,-0.8446,12.8247,34.4472,-0.6144,-0.3104,0.0423,192.7188
12:59:05:702,2.623,-0.987,12.5302,33.7853,-0.6394,0.0692,-0.0563,192.7031
12:59:05:717,2.9629,-0.7416,11.2421,33.8546,-0.7364,0.2606,-0.3082,192.7031
12:59:05:746,2.1836,-0.0952,10.8195,33.0475,-0.9947,0.0465,-0.6118,192.8125
12:59:05:756,1.0153,-0.4208,12.5374,33.7162,-1.1976,-0.3919,-0.8773,193.2344
12:59:05:820,-0.0789,-1.7472,14.6682,32.7589,-1.0826,-0.4867,-0.9511,194
12:59:05:821,-0.4201,-3.1992,14.3857,31.3022,-0.7209,-0.0419,-0.6616,195.0156
12:59:05:821,0.1545,-3.222,11.8035,32.5558,-0.363,0.3978,-0.1439,195.6094
12:59:05:841,1.4881,-2.1889,9.3195,33.7146,-0.1486,0.2335,0.2583,196.6406
12:59:05:856,2.6086,-0.9272,8.4205,33.1906,-0.0711,-0.3626,0.3185,197.1719
12:59:05:876,2.9151,-0.0868,8.5809,32.3619,-0.0945,-0.8515,0.0929,197.1094
12:59:05:900,2.6242,0.2735,9.2417,29.3151,-0.1689,-0.9045,-0.2571,196.7344
12:59:05:922,2.0891,0.1419,9.4955,31.5802,-0.2072,-0.5194,-0.5796,196.4219
12:59:05:940,1.1098,0.0652,8.9604,31.6916,-0.1949,0.0169,-0.7687,196.4531
12:59:05:956,0.5125,0.1299,8.0434,33.3939,-0.118,0.406,-0.775,197.2812
12:59:05:978,0.3712,0.325,7.2402,31.5886,0.0224,0.4502,-0.6952,198.1875
12:59:06:003,0.5915,0.5237,6.7949,32.2234,0.1968,0.21,-0.6246,199.0625
12:59:06:021,0.6322,0.7644,6.996,32.663,0.3204,-0.1527,-0.6174,199.8906
12:59:06:037,0.6789,0.7668,7.652,31.8081,0.3582,-0.3849,-0.6155,200.6094
12:59:06:056,0.6573,0.7632,8.5797,32.174,0.3452,-0.3194,-0.5748,201.2344
12:59:06:078,0.7902,1.2887,9.3543,32.2072,0.4437,-0.0994,-0.5122,201.875
12:59:06:103,0.7268,1.5197,9.9265,32.1075,0.4788,-0.0432,-0.5311,201.875
12:59:06:119,0.449,1.418,9.9193,32.1554,0.4554,0.1466,-0.5801,202.4844
12:59:06:135,-0.0981,1.5042,9.7996,32.1554,0.2993,0.3589,-0.6139,203.5312
12:59:06:157,-0.881,1.5161,10.4305,32.4072,0.0535,0.4284,-0.6145,203.7969
12:59:06:176,-1.4005,1.2827,12.6535,29.7442,-0.0924,0.2598,-0.5218,204.7031
12:59:06:196,-0.9791,0.829,15.1315,32.2962,0.069,0.0737,-0.3284,205.3438
12:59:06:219,-0.5314,0.5944,15.5373,31.7233,0.4069,0.1184,-0.1849,206.0469
12:59:06:238,-0.6032,0.9391,14.4707,31.5105,0.5691,0.2833,-0.0757,206.6562
12:59:06:256,-0.4069,1.0888,13.7692,32.2159,0.4874,0.3898,0.0276,207.0156
12:59:06:276,-0.1064,0.8996,13.8757,31.1542,0.3854,0.4191,0.1073,207.1875
12:59:06:300,0.2898,0.3681,13.9296,31.0211,0.4645,0.4199,0.1595,207.2188
12:59:06:319,0.5723,-0.4244,12.9575,32.6045,0.6487,0.3568,0.1874,207.1406
12:59:06:336,0.7639,-0.993,11.5402,32.8974,0.7462,0.2153,0.2513,207
12:59:06:356,0.9303,-1.0098,10.3227,32.1298,0.6725,0.0425,0.3121,206.7656
12:59:06:376,0.9362,-0.6949,9.7649,31.7534,0.4767,-0.0768,0.3078,206.5
12:59:06:396,0.7926,-0.5273,9.5913,33.7556,0.2887,-0.0046,0.2377,206.1719
12:59:06:419,0.3796,-0.5369,9.1915,31.1699,0.22,0.2007,0.1722,205.375
12:59:06:436,0.0911,-0.6159,8.29,33.465,0.2914,0.3821,0.1882,205.0625
12:59:06:455,-0.1567,-0.6398,6.9146,31.7233,0.4431,0.4633,0.2857,204.9688
12:59:06:476,-0.2992,-0.416,5.3129,32.7397,0.5441,0.413,0.4263,204.6094
12:59:06:496,-0.298,-0.1694,4.366,32.3268,0.5137,0.2433,0.5579,204.4375
12:59:06:521,-0.2106,-0.0197,4.3133,32.7305,0.4203,0.0401,0.6804,204
12:59:06:538,0.1078,0.2688,4.755,32.9887,0.3595,-0.194,0.7683,203.3906
12:59:06:555,0.5604,0.5956,5.3979,31.1535,0.326,-0.4214,0.7661,202.6406
12:59:06:576,0.7866,0.6147,6.1113,33.5964,0.2906,-0.5788,0.6809,201.7812
12:59:06:596,0.886,0.5824,7.0977,32.4617,0.2032,-0.6108,0.5605,200.9219
12:59:06:620,0.9386,0.5644,8.1488,31.655,0.0999,-0.4382,0.4319,200.1094
12:59:06:638,0.8273,0.4866,8.5666,33.2924,0.0418,-0.1658,0.2918,199.4062
12:59:06:664,0.4406,0.1311,8.6516,32.3807,-0.0357,-0.1048,0.1909,198.8906
12:59:06:676,0.5412,-0.1383,9.6128,31.6526,-0.184,-0.2065,0.2244,198.5
12:59:06:696,1.4833,-0.4184,10.877,32.029,-0.3185,-0.2185,0.2793,198.3438
12:59:06:723,1.7108,-0.2041,11.7485,32.3763,-0.4224,-0.1061,0.2822,198.1406
12:59:06:739,2.2914,-0.0341,12.1734,32.8013,-0.4969,0.0806,0.279,197.7969
12:59:06:757,3.4238,-0.2328,11.6096,31.978,-0.5523,0.3062,0.1147,197.5156
12:59:06:778,3.364,0.0605,10.3874,34.0676,-0.7478,0.4734,-0.2126,197.2344
12:59:06:806,2.629,0.4016,9.9863,31.9899,-1.101,0.3946,-0.5564,197.0312
12:59:06:820,1.7096,0.0018,11.357,32.8313,-1.4725,0.0838,-0.8888,197.125
12:59:06:837,0.9003,-1.382,13.6985,31.5226,-1.6368,-0.0097,-1.0685,197.6406
12:59:06:856,0.2264,-2.238,14.9352,33.9457,-1.4725,0.3131,-0.9023,198.5156
12:59:06:876,0.8082,-2.1063,13.7955,32.4971,-1.0283,0.6247,-0.5343,199.8281
12:59:06:903,1.712,-0.9355,11.2469,32.1672,-0.636,0.6138,-0.2965,201.1406
12:59:06:919,2.1238,0.1586,9.6583,32.5253,-0.4903,0.2694,-0.3354,202.0469
12:59:06:936,1.785,0.5405,9.3447,31.1732,-0.4698,-0.0707,-0.537,202.5625
12:59:06:956,1.1888,0.4352,9.5338,31.9069,-0.4147,-0.157,-0.6754,202.9531
12:59:06:976,0.6178,0.234,9.3207,32.9922,-0.2892,0.0678,-0.6885,203.4844
12:59:07:001,0.1617,0.4016,8.6037,31.2788,-0.1164,0.3656,-0.6291,204.1875
12:59:07:022,-0.2273,0.6566,7.5095,34.7168,0.073,0.4939,-0.582,205
12:59:07:036,-0.2776,0.8936,6.5782,31.9042,0.183,0.4449,-0.5466,206.1406
12:59:07:056,-0.031,1.0744,6.3053,32.7153,0.1728,0.3869,-0.5111,206.7969
12:59:07:076,0.2395,1.321,6.5135,32.7083,0.1201,0.3224,-0.5141,207.4375
12:59:07:096,0.2527,1.2971,6.9852,31.656,0.0868,0.2239,-0.5716,208.0312
12:59:07:119,-0.11,1.1175,7.7513,33.4794,0.0376,0.1482,-0.6307,208.5938
12:59:07:137,-0.6667,0.8482,9.1065,34.7725,0.0011,0.1589,-0.6384,209.25
12:59:07:156,-1.3215,0.3681,10.3838,34.7951,0.0807,0.2542,-0.5593,209.9844
12:59:07:176,-1.8566,-0.082,10.8399,34.8767,0.277,0.341,-0.3513,210.7188
12:59:07:196,-1.8602,-0.1526,10.4975,33.5074,0.4333,0.3834,-0.0627,211.0312
12:59:07:222,-1.4005,0.1993,10.1372,33.9227,0.4317,0.2833,0.1651,211.5781
12:59:07:239,-0.8594,0.3705,10.5454,34.6116,0.3265,0.0167,0.2561,211.8125
12:59:07:255,-0.5494,0.1131,11.5521,33.8299,0.2221,-0.2643,0.2716,211.75
12:59:07:278,-0.3734,-0.2975,12.3757,35.6709,0.1928,-0.3935,0.3043,211.4688
12:59:07:296,-0.1052,-0.2101,12.4883,35.3003,0.1955,-0.443,0.3262,211.1562
12:59:07:324,0.2156,0.1359,12.2548,37.1917,0.0948,-0.3634,0.2495,210.6562
12:59:07:337,0.2048,0.0712,12.0872,35.8242,-0.168,-0.1724,0.0969,210.2656
12:59:07:362,-0.6032,-0.3322,12.7385,37.7458,-0.4163,-0.0201,-0.0152,209.9688
12:59:07:379,-1.4867,-0.9631,13.2532,36.4749,-0.4011,0.1078,0.0604,209.8594
12:59:07:400,-1.2892,-1.4311,12.6798,36.7811,-0.1593,0.0947,0.2905,209.9062
12:59:07:421,-0.1507,-1.5245,11.4755,37.7614,0.0685,-0.0781,0.5001,209.8594
12:59:07:436,0.868,-1.1929,10.221,37.7372,0.118,-0.2507,0.5416,209.5312
12:59:07:456,0.9362,-0.677,8.5103,38.6567,-0.0655,-0.2907,0.2697,208.9844
12:59:07:476,0.6047,-0.6722,7.6759,37.408,-0.1433,-0.2036,0.1656,208.9844
12:59:07:495,0.3042,-0.7787,7.051,38.9327,-0.2045,-0.1136,0.1525,208.3438
12:59:07:520,-0.0849,-0.7775,6.7997,37.1191,-0.2538,-0.0326,0.2292,207.8438
12:59:07:535,-0.4763,-0.6039,6.7925,36.7856,-0.2304,0.0047,0.3701,207.3594
12:59:07:557,-0.5841,-0.4734,6.7913,39.1015,-0.0879,-0.0401,0.5283,207.2031
12:59:07:578,-0.2609,-0.4531,6.3017,37.104,0.1286,-0.1748,0.6873,206.9375
12:59:07:602,0.2922,-0.1574,5.9042,41.1156,0.274,-0.4028,0.7981,206.5625
12:59:07:621,0.8812,0.155,5.8911,38.6747,0.3065,-0.6243,0.7898,205.9531
12:59:07:638,1.2786,0.2556,6.4034,39.1176,0.2381,-0.7759,0.6503,205.1562
12:59:07:655,1.1817,0.228,7.415,38.5271,0.0908,-0.7919,0.4418,204.25
12:59:07:674,0.5544,-0.1442,8.7904,38.6188,-0.0743,-0.6257,0.2849,203.2969
12:59:07:695,0.1414,-0.5836,10.3742,38.8351,-0.1414,-0.3876,0.2766,202.5
12:59:07:721,0.607,-0.6734,11.1284,38.6047,-0.0823,-0.2366,0.3328,201.9844
12:59:07:738,1.4773,-0.6231,11.539,40.0341,-0.0439,-0.2864,0.2836,201.6406
12:59:07:754,1.9705,-0.6003,12.1495,38.7304,-0.1366,-0.3351,0.1171,201.3281
12:59:07:774,2.2148,-0.7452,13.2616,39.7984,-0.3047,-0.2307,-0.0821,200.9531
12:59:07:795,2.7259,-1.4311,13.5944,39.0349,-0.3923,0.0979,-0.2485,200.6406
12:59:07:818,2.8851,-1.7328,12.7744,38.0013,-0.4727,0.3136,-0.4129,200.5
12:59:07:839,2.4997,-1.2061,12.5996,40.2365,-0.6131,0.2723,-0.5628,200.6094
12:59:07:903,2.0903,-1.1666,13.5537,39.6601,-0.6855,0.1163,-0.7575,200.9375
12:59:07:903,1.354,-2.08,14.4288,40.0683,-0.5646,0.1421,-0.8917,201.8125
12:59:07:913,0.7244,-2.9036,14.0361,40.8254,-0.3127,0.3834,-0.7466,202.6406
12:59:07:929,1.2247,-3.0819,12.347,40.5019,-0.0037,0.5075,-0.3806,203.6406
12:59:07:934,2.3776,-2.378,10.7597,39.115,0.2575,0.2912,-0.0581,204.6875
12:59:07:957,3.2897,-1.3258,9.5063,39.8455,0.4405,-0.0259,0.03,205.4062
12:59:07:975,3.3113,-0.6207,8.399,38.0623,0.5334,-0.1935,-0.1378,205.6406
12:59:07:994,2.5296,-0.337,7.1959,38.9545,0.5265,-0.1682,-0.366,205.5938
12:59:08:019,1.6425,-0.2807,6.1808,39.7385,0.4261,-0.0086,-0.485,205.5781
12:59:08:035,1.0069,-0.2256,5.4098,39.0057,0.2706,0.2052,-0.4821,205.7969
12:59:08:055,0.6382,0.0377,4.9525,39.6042,0.1246,0.3245,-0.4137,206.2344
12:59:08:078,0.7663,0.3945,5.071,39.6826,0.0421,0.2351,-0.3631,206.7656
12:59:08:095,1.0248,0.6578,5.5211,39.1579,0.0304,0.0255,-0.387,207.2812
12:59:08:116,1.105,0.7356,6.1999,39.763,0.0392,-0.1748,-0.444,207.6875
12:59:08:139,0.728,0.6866,7.1253,39.5761,0.0386,-0.256,-0.4826,208.125
12:59:08:155,0.297,0.6554,8.1631,38.7927,0.0551,-0.1929,-0.4478,208.3438
12:59:08:176,-0.1938,0.6877,9.4273,38.1039,0.1103,-0.0928,-0.3641,209.0781
12:59:08:196,-0.3566,0.7823,10.446,38.2632,0.2282,0.058,-0.2392,209.6094
12:59:08:219,0.206,0.5944,10.5609,38.5282,0.355,0.1837,-0.1711,210.0781
12:59:08:238,0.1378,0.4459,10.3,38.6321,0.351,0.2518,-0.1726,210.4062
12:59:08:255,-0.2022,0.2723,10.3933,39.564,0.2,0.2761,-0.1196,210.5938
12:59:08:275,-0.3854,0.0652,11.1703,37.8337,0.0067,0.2635,-0.0163,210.75
12:59:08:295,-0.1759,-0.3059,12.2596,37.6943,-0.0921,0.2388,0.1126,210.9062
12:59:08:323,0.5616,-0.5405,12.8318,37.6943,-0.1097,0.2124,0.2279,210.9844
12:59:08:340,1.2044,-0.0904,12.833,37.0188,-0.2045,0.0508,0.2303,210.9375
12:59:08:354,0.7675,0.3107,13.7847,38.2269,-0.4194,-0.2201,0.1089,210.75
12:59:08:375,-0.1914,-0.0892,15.3936,38.6454,-0.4376,-0.2334,0.0529,210.5
12:59:08:395,-0.2668,-1.0553,15.2667,37.7463,-0.0823,0.0574,0.1853,210.3125
12:59:08:420,0.1545,-1.3952,12.4164,36.8486,0.3542,0.3719,0.422,210.2812
12:59:08:436,0.7016,-1.0193,9.1735,36.6062,0.5041,0.2769,0.5997,210.1875
12:59:08:454,1.3265,-0.75,7.3587,34.6807,0.3505,-0.1367,0.6202,209.5781
12:59:08:481,1.5396,-0.5106,7.2067,35.7287,0.0397,-0.5442,0.5467,208.8438
12:59:08:501,1.6389,-0.4687,8.0458,36.6562,-0.1755,-0.7575,0.4577,208.1094
12:59:08:519,1.4642,-0.5022,8.7545,34.6428,-0.1734,-0.7908,0.3728,207.5
12:59:08:536,1.2523,-0.4639,8.8682,35.7362,-0.0615,-0.6033,0.3635,206.9688
12:59:08:555,1.2391,-0.2496,8.3128,34.4403,0.0525,-0.276,0.405,206.5312
12:59:08:578,1.3469,-0.0018,7.3324,35.7579,0.1539,-0.0856,0.4183,206.1406
12:59:08:594,1.3241,0.088,6.6057,35.5102,0.2221,-0.1082,0.3696,205.6562
12:59:08:616,1.0392,-0.0533,6.1424,35.0256,0.2424,-0.1538,0.3222,205.4062
12:59:08:638,0.8884,-0.1371,5.9162,35.2181,0.1952,-0.194,0.3416,204.9219
12:59:08:655,0.9279,0.1131,6.5064,35.1174,0.0871,-0.2656,0.3826,204.5156
12:59:08:678,1.0392,0.2987,7.719,34.7981,0.0458,-0.3511,0.3837,204.125
12:59:08:704,1.1254,0.4699,8.7198,34.6447,0.1145,-0.4017,0.3328,203.6719
12:59:08:721,1.1493,0.3466,9.48,34.5086,0.2421,-0.3772,0.2487,203.2344
12:59:08:738,1.2271,-0.2269,9.7158,33.3125,0.3265,-0.2749,0.1539,202.8125
12:59:08:755,1.2619,-0.5154,9.7852,33.7742,0.2162,-0.0989,0.1009,202.2812
12:59:08:775,1.5911,-0.6303,10.3215,31.2461,-0.0501,-0.0235,0.0444,202.0625
12:59:08:796,1.8568,-1.1091,11.8993,34.4917,-0.2996,-0.0661,-0.0536,201.9219
12:59:08:818,2.2004,-1.6682,13.3777,34.0061,-0.4069,0.058,-0.0491,201.875
12:59:08:835,3.7087,-2.0668,13.3825,32.8325,-0.3934,0.3088,0.0087,201.9688
12:59:08:856,5.8779,-0.6602,11.8813,31.5462,-0.391,0.3738,-0.4003,202.0938
12:59:08:876,5.3727,-0.2903,11.0194,33.1439,-0.4405,0.0486,-1.0342,202.1406
12:59:08:895,3.5591,-1.3581,10.9285,33.1457,-0.6626,-0.2417,-1.5783,202.2812
12:59:08:921,1.9897,-2.8078,11.5414,32.0201,-0.897,-0.2443,-1.6912,204.0312
12:59:08:937,1.1805,-3.3692,11.5869,33.3317,-0.9689,-0.0699,-1.4198,204.0312
12:59:08:954,1.3504,-3.0161,10.792,32.2161,-0.882,-0.0417,-0.9721,205.9062
12:59:08:974,1.9298,-2.0536,10.3694,31.5854,-0.7188,-0.1793,-0.5876,207.8594
12:59:08:996,2.1082,-0.9343,9.8008,30.8588,-0.4783,-0.2006,-0.3609,210.8438
12:59:09:020,1.9586,-0.1048,8.8407,31.9033,-0.1846,-0.014,-0.3034,211.2812
12:59:09:039,1.6222,0.3585,7.251,30.7941,0.1132,0.1608,-0.3782,211.5781
12:59:09:055,1.1912,0.5656,5.6373,29.9,0.2834,0.255,-0.4725,212.2344
12:59:09:074,0.7387,0.7093,4.6185,31.2018,0.2764,0.275,-0.5181,212.625
12:59:09:094,0.6681,0.829,4.2929,28.2095,0.1611,0.1834,-0.5394,212.8438
12:59:09:119,0.6657,0.8709,4.986,28.6754,0.0016,-0.003,-0.6171,213.3438
12:59:09:139,0.4586,0.5656,6.583,27.143,-0.0943,-0.0928,-0.7135,213.9062
12:59:09:154,0.0037,0.094,8.1404,28.8752,-0.049,0.0015,-0.7359,214.5156
12:59:09:174,-0.614,-0.1718,9.1304,25.9358,0.0823,0.1706,-0.6259,215.1875
12:59:09:196,-0.9336,-0.185,9.5314,29.0365,0.2178,0.2436,-0.415,216.0156
12:59:09:220,-0.7265,0.0509,10.4113,28.8454,0.3393,0.1554,-0.2288,216.8594
12:59:09:237,-0.2872,0.1275,11.5521,27.9317,0.4426,0.185,-0.1556,217.5469
12:59:09:254,-0.1507,-0.1347,12.1698,28.619,0.4655,0.3909,-0.1676,218
12:59:09:275,-0.3087,-0.2089,12.5302,27.3381,0.327,0.7158,-0.1745,218.2188
12:59:09:295,0.0995,-0.6566,12.5469,26.6223,0.0301,1.07,-0.1817,218.4062
12:59:09:319,1.0871,-1.3593,12.1028,26.6316,-0.493,1.4548,-0.2033,218.5781
12:59:09:337,1.8484,-1.1007,12.9037,28.161,-1.1627,1.5155,-0.2872,218.7812
12:59:09:356,1.5743,-0.908,15.487,27.1092,-1.4757,1.1136,-0.5346,219.0625
12:59:09:379,-0.1256,-1.6466,17.0049,27.7528,-1.1508,0.6329,-0.7655,219.4375
12:59:09:393,-1.2569,-2.9431,16.3274,26.9546,-0.4868,0.2715,-0.6206,220.0625
12:59:09:414,-0.7852,-3.6889,13.9535,28.1486,0.171,0.2588,-0.1945,220.9844
12:59:09:435,0.151,-2.9933,11.0506,27.7538,0.5984,0.2673,0.148,221.875
12:59:09:456,0.9027,-1.7137,8.8144,27.4107,0.6738,0.006,0.1744,222.375
