Time,Acc_X,Acc_Y,Acc_Z,Meg,Gyr_X,Gyr_Y,Gyr_Z,Ore
19:50:07:034,-0.4129,2.402,9.4417,56.4558,0.0368,0.3022,0.1563,29.4062
19:50:07:051,-0.3171,2.8533,9.5446,56.8363,0.1116,0.1893,0.1075,29.4062
19:50:07:065,-0.1759,3.2591,9.1711,57.6841,0.2285,-0.0741,0.0258,169.875
19:50:07:088,-0.4285,3.6314,8.9975,57.6841,0.2605,-0.1386,-0.0459,169.7344
19:50:07:103,-1.0905,3.7547,9.2633,55.5593,0.188,0.107,-0.0105,169.7344
19:50:07:123,-1.343,3.5285,9.954,56.0829,0.0479,0.4702,0.1427,169.8125
19:50:07:151,-1.0737,3.0879,10.5873,56.8151,-0.0357,0.5078,0.2346,169.8125
19:50:07:163,-0.7924,2.8114,10.5574,58.0489,0.0285,0.1544,0.1829,169.5938
19:50:07:196,-0.7529,2.985,9.9085,58.359,0.1678,-0.2307,0.0708,169.5938
19:50:07:206,-1.0809,3.1861,9.134,55.1693,0.2897,-0.3021,0.0298,169.2344
19:50:07:222,-1.264,3.4267,8.2829,56.5732,0.3675,-0.2164,0.09,168.9688
19:50:07:242,-1.3107,3.5033,7.4221,55.7497,0.3633,-0.1234,0.1845,168.9688
19:50:07:272,-1.3359,3.5572,6.8918,55.9331,0.2767,-0.0539,0.2655,168.9375
19:50:07:290,-1.4951,3.5488,6.8835,57.1258,0.175,-0.0185,0.3408,168.7656
19:50:07:309,-1.4017,3.5141,7.0307,56.6429,0.1012,-0.015,0.43,168.4688
19:50:07:320,-1.0737,3.4614,7.1935,55.6254,0.0296,-0.0358,0.5073,168.2969
19:50:07:340,-0.7349,3.4985,7.1396,58.5533,-0.0685,-0.1061,0.5443,168.0938
19:50:07:362,-0.4153,3.6254,7.2246,57.7147,-0.2096,-0.1847,0.5584,167.6094
19:50:07:382,-0.0981,3.7356,7.6795,56.1326,-0.3505,-0.1801,0.5502,167.0625
19:50:07:400,0.2838,3.6961,8.2948,57.4069,-0.4237,-0.1298,0.5227,166.4531
19:50:07:420,0.6741,3.6817,8.7832,56.1545,-0.4381,-0.072,0.4772,165.8438
19:50:07:440,0.7675,3.8194,9.383,57.1829,-0.3862,0.0002,0.3584,165.2656
19:50:07:461,0.868,3.7954,10.0222,57.0442,-0.3223,0.0622,0.3246,164.6875
19:50:07:488,1.1529,3.6577,10.5394,56.8167,-0.2338,0.0247,0.2492,164.1562
19:50:07:504,1.2068,3.6338,10.8902,57.32,-0.1526,-0.0488,0.1259,163.7656
19:50:07:522,1.0284,3.641,10.9057,57.4542,-0.089,-0.1109,0.058,163.375
19:50:07:544,1.1062,3.6566,10.9045,56.3597,-0.0836,-0.0603,0.078,163.0938
19:50:07:568,1.3481,3.5273,11.0565,57.0984,-0.1427,0.0782,0.1467,162.9531
19:50:07:585,1.8233,3.125,11.2349,56.7253,-0.2714,0.2271,0.2351,162.9062
19:50:07:605,2.4745,2.6259,11.5031,57.5592,-0.4267,0.1834,0.2271,162.75
19:50:07:620,2.8313,2.22,12.1315,57.5735,-0.5542,0.0492,0.1118,162.5
19:50:07:641,2.7439,1.8729,13.0054,56.917,-0.5428,0.0193,-0.0411,162.2031
19:50:07:661,2.5511,1.5736,13.3083,58.8784,-0.3457,0.0838,-0.1854,161.9844
19:50:07:683,2.5835,1.3785,12.4739,57.6879,-0.0455,0.0369,-0.3181,161.9531
19:50:07:703,2.6984,1.4084,10.7238,56.8168,0.2298,-0.1503,-0.4911,162.0625
19:50:07:726,2.605,1.6095,8.7785,58.3396,0.3782,-0.2475,-0.6565,162.3438
19:50:07:740,2.368,1.9543,7.3838,57.2886,0.3489,-0.1745,-0.7705,162.7969
19:50:07:762,2.0101,2.2368,6.9146,56.5874,0.1782,0.0806,-0.8121,163.4531
19:50:07:784,1.4163,2.1267,7.4329,57.7401,-0.0378,0.3911,-0.7758,164.3125
19:50:07:803,1.0679,1.7077,8.5522,55.9795,-0.1893,0.5275,-0.709,165.2344
19:50:07:828,0.9829,1.3461,9.6188,57.3586,-0.1907,0.5163,-0.6845,166.125
19:50:07:840,0.8249,1.1462,9.954,57.4051,-0.0493,0.3847,-0.7138,166.875
19:50:07:861,0.4909,1.1642,9.6464,57.7108,0.1454,0.2066,-0.7655,167.5781
19:50:07:885,0.127,1.4527,8.5103,57.0674,0.3017,0.0518,-0.7689,167.9531
19:50:07:903,0.0013,1.7759,7.3204,58.0056,0.2778,-0.0318,-0.7077,168.7188
19:50:07:922,0.1402,1.9483,6.99,57.2793,0.1188,-0.0763,-0.6227,169.9688
19:50:07:943,0.3185,1.886,7.251,57.7037,-0.0266,-0.1258,-0.5652,170.8438
19:50:07:967,0.5173,1.9136,8.0829,56.503,-0.1028,-0.076,-0.5436,171.5781
19:50:07:984,0.4849,1.9196,8.6911,56.0692,-0.077,0.0742,-0.5439,172.2656
19:50:08:000,0.2838,2.1183,8.7761,55.5711,-0.0067,0.1477,-0.5596,172.9062
19:50:08:022,0.054,2.3613,8.7354,56.2512,0.0333,0.1613,-0.5482,173.5312
19:50:08:041,-0.0633,2.5684,8.6983,56.9988,0.0301,0.1871,-0.5197,174.1094
19:50:08:062,-0.104,2.7707,8.7401,57.2981,-0.0181,0.169,-0.4906,174.7344
19:50:08:083,-0.2668,2.9646,9.0598,55.7377,-0.0956,0.1336,-0.4709,175.3281
19:50:08:104,-0.5003,3.0113,9.7804,55.925,-0.1609,0.1959,-0.4219,175.8438
19:50:08:121,-0.8642,2.9275,10.5657,58.3121,-0.1822,0.3299,-0.3481,176.375
19:50:08:141,-1.2545,2.6127,11.3474,55.5589,-0.1758,0.4513,-0.2648,176.875
19:50:08:161,-1.3418,2.1757,11.7868,55.0208,-0.1305,0.389,-0.219,177.2812
19:50:08:185,-1.3023,1.8741,11.6359,56.7368,-0.078,0.1813,-0.2208,177.6562
19:50:08:203,-1.4508,1.904,11.3235,56.4293,-0.0655,0.0662,-0.268,177.8594
19:50:08:221,-2.3295,1.7759,11.0051,54.4326,-0.0533,0.1163,-0.2688,178.0625
19:50:08:241,-3.1614,1.5018,10.847,55.4434,-0.0168,0.4779,-0.1244,178.3594
19:50:08:263,-3.3111,1.2504,10.804,57.5129,0.0264,1.0106,0.1179,178.6562
19:50:08:286,-3.0633,0.9008,11.1906,56.7057,0.0378,1.2993,0.3083,178.7344
19:50:08:301,-2.922,0.5381,11.1858,56.3223,0.0818,0.919,0.3704,178.5
19:50:08:320,-2.5581,0.6015,10.1491,54.6354,0.1694,0.0761,0.3515,178.0156
19:50:08:344,-2.2253,0.8481,8.7832,55.6509,0.1659,-0.5873,0.344,177.75
19:50:08:368,-1.8398,1.0421,8.2362,55.1258,0.0525,-0.6606,0.3936,177.2812
19:50:08:388,-1.6722,0.9355,8.3846,56.8141,-0.0538,-0.2291,0.478,176.9688
19:50:08:401,-1.4711,0.653,8.4361,55.4183,-0.1127,0.1458,0.5526,176.6562
19:50:08:421,-1.3035,0.5968,8.6348,56.1712,-0.1832,0.2798,0.5475,176.2188
19:50:08:441,-1.1,0.6626,8.8144,56.5533,-0.1992,0.1735,0.49,175.6406
19:50:08:462,-0.9121,1.0229,8.4516,54.9754,-0.1207,-0.002,0.4016,174.9531
19:50:08:489,-1.1671,1.4778,7.555,55.5592,-0.0479,-0.133,0.3416,174.0156
19:50:08:508,-1.3622,2.0069,6.7135,56.544,-0.0602,-0.1884,0.3733,173.5625
19:50:08:521,-1.2113,2.3721,6.3735,56.509,-0.1547,-0.1594,0.4702,173.1875
19:50:08:541,-1.0126,2.4271,6.6344,56.4914,-0.2716,-0.0776,0.5523,172.7812
19:50:08:561,-0.9324,2.5085,7.2977,54.2556,-0.3459,-0.0891,0.584,172.2656
19:50:08:588,-1.2113,2.6773,8.9461,56.2938,-0.2714,-0.0401,0.7009,171.625
19:50:08:604,-0.9803,2.6522,9.304,55.7917,-0.1683,-0.0414,0.7216,171.625
19:50:08:627,-1.0174,2.7384,9.3208,56.8283,-0.0951,-0.1221,0.7041,170.9375
19:50:08:641,-0.8786,2.7623,9.5745,56.8041,-0.0535,-0.1841,0.7014,170.2188
19:50:08:662,-0.5135,2.7468,9.7924,57.2676,0.0245,-0.2571,0.6716,168.5938
19:50:08:684,-0.1076,2.8748,9.6643,56.4251,0.1081,-0.3482,0.6053,167.7969
19:50:08:700,0.2312,3.0017,9.474,57.8407,0.1169,-0.3407,0.5328,167.7969
19:50:08:721,0.5125,3.1143,9.7182,56.1589,0.0613,-0.2222,0.4468,166.2969
19:50:08:743,0.7758,2.979,10.1815,56.672,-0.0154,-0.1138,0.3587,165.125
19:50:08:766,1.044,2.9395,10.8638,57.2146,-0.0804,-0.1546,0.218,164.875
19:50:08:786,1.105,2.9179,11.4252,56.9535,-0.0626,-0.3287,0.0591,164.6406
19:50:08:801,1.2738,3.0999,11.2971,56.7766,0.0248,-0.5202,-0.0698,164.0938
19:50:08:820,1.7347,3.4088,10.6878,57.5982,0.0365,-0.5857,-0.1671,164
19:50:08:840,2.0555,3.4554,10.361,57.3007,-0.1169,-0.4624,-0.2533,163.9688
19:50:08:861,2.1214,3.1095,11.2217,56.3117,-0.3723,-0.1535,-0.3197,164.1094
19:50:08:886,2.046,2.2907,12.9935,55.0896,-0.4962,0.1219,-0.3942,164.375
19:50:08:902,2.0615,1.4575,14.2648,56.346,-0.2985,0.1469,-0.522,164.6875
19:50:08:920,2.1908,0.9643,13.331,55.685,0.11,-0.153,-0.7101,165.0625
19:50:09:012,2.2219,1.1115,11.1739,56.5062,0.3763,-0.3567,-0.9063,165.4844
19:50:09:012,1.7634,1.1642,9.2286,54.7922,0.3662,-0.2986,-1.0347,166.0156
19:50:09:013,1.3145,1.2324,8.3667,55.3139,0.1675,-0.2363,-1.0864,166.8438
19:50:09:013,0.9913,1.0014,8.8838,53.9984,0.0099,-0.0267,-1.0688,167.9375
19:50:09:025,0.7256,0.6303,9.4991,54.9694,0.0634,0.2678,-1.0411,169.1719
19:50:09:043,0.5077,0.3849,9.4608,53.5638,0.2597,0.5541,-1.0299,171
19:50:09:068,0.3353,0.2592,8.8072,53.4487,0.4328,0.6151,-1.0528,172.2031
19:50:09:083,0.1067,0.3561,7.9752,53.3089,0.5009,0.3999,-1.105,173.3438
19:50:09:101,-0.1723,0.6327,7.4904,53.9905,0.4807,0.1251,-1.1599,174.4219
19:50:09:120,-0.7277,0.9679,7.336,54.6359,0.4677,-0.0132,-1.1713,175.6406
19:50:09:141,-1.0785,1.3078,6.8595,53.779,0.477,-0.0635,-1.0685,176.9375
19:50:09:161,-1.0294,1.6598,6.243,53.2417,0.4027,-0.0803,-0.9032,178.25
19:50:09:184,-0.9217,1.9255,6.3041,53.2417,0.1934,-0.0523,-0.7583,179.5781
19:50:09:201,-1.1048,2.0608,7.087,52.794,-0.0439,-0.0467,-0.6315,180.7656
19:50:09:220,-1.2772,2.1482,8.2745,52.2511,-0.2107,-0.0307,-0.4709,181.7031
19:50:09:243,-1.118,2.0141,9.5901,52.1008,-0.2799,-0.0219,-0.3236,182.5
19:50:09:259,-1.1479,2.0488,10.6112,53.0009,-0.2266,-0.0672,-0.2456,183.1406
19:50:09:282,-1.4053,2.1985,10.9548,51.9703,-0.1148,-0.1149,-0.1665,183.5625
19:50:09:301,-1.7656,2.1614,10.9428,50.4526,-0.0711,-0.0832,-0.0531,183.8438
19:50:09:324,-1.9548,1.9184,11.3427,53.1016,-0.1041,-0.0076,0.0708,184.0781
19:50:09:340,-2.1343,1.4766,12.0789,51.4316,-0.0759,0.0593,0.1307,184.1719
19:50:09:360,-2.4168,1.1091,12.0106,52.5232,0.0695,-0.0337,0.1294,184.2031
19:50:09:384,-2.6299,1.1797,11.0709,51.3926,0.2165,-0.2028,0.1091,184.0781
19:50:09:401,-2.8286,1.5006,9.7852,50.3095,0.2184,-0.2579,0.1611,183.9062
19:50:09:420,-2.6096,1.6933,9.1879,50.4571,0.0011,-0.0701,0.3145,183.8125
19:50:09:440,-2.4085,1.3461,10.0701,49.9863,-0.2921,0.3224,0.4657,183.7188
19:50:09:460,-2.3043,0.6877,11.6419,51.8261,-0.4192,0.5589,0.5576,183.5
19:50:09:486,-2.035,0.0533,12.3315,51.0018,-0.2434,0.4484,0.5531,183.0156
19:50:09:505,-2.0493,-0.0449,11.4803,50.4815,0.0514,0.2353,0.4828,182.3594
19:50:09:521,-2.4623,-0.0365,9.6978,50.0168,0.1675,0.1373,0.4745,181.6094
19:50:09:543,-2.7041,0.088,8.4756,50.6515,0.0192,0.1501,0.5453,180.9844
19:50:09:559,-2.6455,0.2041,7.8806,50.1291,-0.2125,0.1253,0.6689,180.4688
19:50:09:580,-2.0816,0.3897,7.7466,47.8909,-0.3931,0.0537,0.7768,179.8906
19:50:09:605,-1.3047,0.4974,8.0135,47.6573,-0.4139,0.0241,0.8146,179.1719
19:50:09:620,-0.8259,0.6411,7.7202,47.8847,-0.2482,0.0369,0.7621,177.8594
19:50:09:640,-0.5769,1.0098,6.9146,48.823,-0.0661,0.1189,0.6969,176.8906
19:50:09:661,-0.6116,1.3402,6.2622,49.6317,0.0048,0.2276,0.6825,176
19:50:09:684,-0.5925,1.5628,6.0108,48.897,-0.053,0.2508,0.723,175.2188
19:50:09:701,-0.1878,1.6741,6.3902,47.6311,-0.1928,0.1347,0.7525,174.4062
19:50:09:720,0.03,1.7999,7.4904,47.5068,-0.29,0.0092,0.7225,173.5469
19:50:09:741,-0.0645,1.9938,8.2278,48.3341,-0.2668,-0.0547,0.6812,172.6562
19:50:09:760,-0.0801,2.2763,8.6073,48.073,-0.2234,-0.0185,0.6657,171.8438
19:50:09:785,-0.201,2.4846,9.0311,47.9916,-0.1949,0.0553,0.6431,171.0469
19:50:09:802,-0.2453,2.7001,9.4764,46.6113,-0.1609,0.1014,0.6351,170.6562
19:50:09:827,-0.0969,2.7755,9.8606,47.875,-0.1364,0.0361,0.6066,169.8906
19:50:09:839,0.1019,2.8294,10.1982,47.459,-0.1108,-0.1245,0.5214,169.1719
19:50:09:861,0.2276,2.9742,10.5849,47.4404,-0.0671,-0.2747,0.3978,168.4375
19:50:09:897,0.2156,3.0257,10.9584,47.126,0.0091,-0.3301,0.2761,167.7812
19:50:09:900,0.1964,3.1609,11.272,48.3581,0.0855,-0.2656,0.1714,167.2812
19:50:09:921,-0.0681,3.1358,11.5773,46.247,0.1316,-0.1343,0.0849,166.8125
19:50:09:946,-0.2238,3.0053,11.7916,45.9515,0.1611,-0.1644,0.0314,166.6562
19:50:09:960,-0.1268,2.9263,11.4121,47.2902,0.1699,-0.4004,0.0045,166.6562
19:50:09:981,0.9674,2.6043,10.2162,47.3619,-0.171,-0.541,0.0553,166.5781
19:50:10:004,1.7072,1.9016,10.9931,47.0629,-0.4464,-0.4007,0.0263,166.5781
19:50:10:024,2.0903,1.0589,12.8833,46.0606,-0.5161,-0.019,-0.1638,166.6719
19:50:10:041,1.3876,0.5525,14.1367,46.9586,-0.1792,0.349,-0.4773,166.6562
19:50:10:060,-0.043,0.7763,12.9252,46.3371,0.343,0.4335,-0.692,166.6406
19:50:10:085,-1.0976,1.345,10.1348,46.0725,0.5273,0.3765,-0.6589,167.2969
19:50:10:101,-1.5525,1.3509,8.2027,45.5091,0.2269,0.3032,-0.4659,167.2969
19:50:10:118,-1.3777,1.1666,8.2637,46.7148,-0.2218,0.2113,-0.3002,168.0781
19:50:10:139,-1.3251,0.6985,9.4045,45.599,-0.4429,0.1711,-0.236,168.8125
19:50:10:159,-1.2281,0.5154,10.5885,45.1734,-0.3199,0.1701,-0.2464,169.2969
19:50:10:187,-1.4436,0.428,10.7249,45.329,0.0732,0.1773,-0.2917,169.6094
19:50:10:205,-1.5585,0.6195,9.6093,46.1481,0.4671,0.1205,-0.3002,169.8281
19:50:10:221,-1.7812,0.8278,8.2577,45.7098,0.6434,0.0816,-0.2669,170.0625
19:50:10:239,-1.7153,0.9487,7.403,44.2739,0.6501,-0.0164,-0.1822,170.3906
19:50:10:261,-1.5968,1.0828,7.0666,45.4028,0.6133,-0.1122,-0.1183,170.75
19:50:10:285,-1.5597,1.26,6.7242,45.4506,0.6024,-0.17,-0.0382,171.0938
19:50:10:303,-1.4089,1.5125,6.4633,45.3779,0.5326,-0.1026,0.0777,171.3438
19:50:10:319,-1.215,1.6143,6.7374,45.7504,0.3675,0.0292,0.2098,171.5938
19:50:10:340,-0.8319,1.4671,7.4557,46.8972,0.1864,0.1219,0.3097,171.6406
19:50:10:359,-0.4093,1.2935,8.3044,44.0877,0.0594,0.1125,0.328,171.5312
19:50:10:379,-0.3447,1.2791,8.97,45.1172,0.0027,0.0771,0.2724,171.2188
19:50:10:402,-0.3985,1.5389,9.3004,45.3427,-0.0218,0.0263,0.2423,170.8281
19:50:10:422,-0.4189,1.7328,9.3435,46.3349,-0.0575,-0.0062,0.2396,170.5
19:50:10:440,-0.4057,1.831,9.4536,43.5632,-0.1297,-0.0099,0.2415,170.2031
19:50:10:459,-0.201,1.8142,9.8846,45.9635,-0.1936,0.0257,0.2314,169.9219
19:50:10:480,-0.0765,1.7962,10.3251,47.1408,-0.1995,0.0891,0.1549,169.6562
19:50:10:501,-0.5769,1.6801,10.3503,46.1822,-0.159,0.1664,0.0314,169.375
19:50:10:519,-1.3801,1.7208,9.9013,43.5406,-0.1673,0.2087,-0.0155,169.1094
19:50:10:539,-1.8566,1.7663,9.3591,46.1822,-0.3177,0.243,0.0892,169.0312
19:50:10:560,-1.7297,1.5185,9.237,44.8508,-0.6392,0.2907,0.278,168.9531
19:50:10:585,-1.4101,0.8721,10.3179,45.2213,-1.0219,0.3283,0.4212,168.9375
19:50:10:602,-1.027,0.1897,12.4536,46.3192,-1.2197,0.3259,0.4308,168.7812
19:50:10:620,-1.0581,-0.2819,14.3103,45.9585,-0.9542,0.2582,0.2788,168.375
19:50:10:643,-1.5477,0.0629,13.6423,44.5133,-0.2863,0.0289,0.087,167.4844
19:50:10:659,-2.1283,0.8817,10.8351,46.0984,0.2884,-0.0054,0.0354,166.9219
19:50:10:682,-2.8035,1.3653,7.962,47.2549,0.3995,0.1107,0.1501,166.6719
19:50:10:703,-3.2021,1.5832,6.5818,47.2647,0.0874,0.2239,0.3733,166.625
19:50:10:722,-3.1028,1.3797,7.1133,47.367,-0.3609,0.2159,0.6487,166.5781
19:50:10:740,-2.1487,0.9559,8.3894,46.9468,-0.6269,0.0769,0.8471,166.2969
19:50:10:760,-1.1156,0.7416,9.3339,47.3605,-0.6139,-0.1596,0.8806,165.7031
19:50:10:787,-0.4332,0.7751,9.1843,45.8539,-0.3752,-0.3793,0.7941,164.7656
19:50:10:803,-0.1352,1.1594,8.32,48.3369,-0.1361,-0.3793,0.6865,163.7031
19:50:10:819,-0.1675,1.4623,7.6304,47.0985,0.0059,-0.1522,0.6191,162.7656
19:50:10:839,-0.2465,1.7125,7.1169,46.1706,0.0466,0.0231,0.597,161.9219
19:50:10:860,-0.3794,1.8884,7.1193,46.048,-0.0144,0.0534,0.5925,161.2031
19:50:10:887,-0.4871,2.0453,7.4808,48.1344,-0.0919,-0.0448,0.5983,160.5156
19:50:10:907,-0.4656,2.2117,8.126,45.7794,-0.1475,-0.1098,0.6157,159.5312
19:50:10:920,-0.5027,2.2775,8.9293,47.6871,-0.1457,-0.0872,0.6181,158.8281
19:50:10:939,-0.511,2.3002,9.6128,47.7314,-0.0924,-0.0044,0.6157,158.1719
19:50:10:967,-0.3303,2.3481,10.057,47.9696,0.0117,0.0369,0.5952,157.4531
19:50:10:987,-0.1268,2.4379,10.1168,48.7446,0.1222,0.0263,0.5419,157.0938
19:50:11:003,0.0085,2.5636,10.0905,48.488,0.188,-0.0829,0.4671,156.3906
19:50:11:019,0.2324,2.6929,9.9696,48.8378,0.2141,-0.2816,0.3829,155.7812
19:50:11:073,0.4969,2.8018,10.1479,48.4593,0.1894,-0.3775,0.2862,155.2031
19:50:11:074,0.6298,2.7659,10.9356,49.3427,0.1782,-0.2766,0.1656,154.75
19:50:11:085,0.6202,2.6737,11.8442,50.2927,0.2442,-0.1181,0.0378,154.4062
19:50:11:103,0.479,2.6115,12.1603,49.0291,0.4045,-0.0504,-0.1007,154.2031
19:50:11:120,0.364,2.7623,11.3055,48.2337,0.5161,-0.0385,-0.1886,154.125
19:50:11:138,0.2838,2.8952,10.288,50.3452,0.3656,-0.0949,-0.2075,154.25
19:50:11:160,0.3161,2.7504,9.9744,50.3582,-0.0344,-0.0837,-0.1915,154.4844
19:50:11:190,0.1797,2.2284,11.691,49.1677,-0.5531,0.2345,-0.1505,154.75
19:50:11:205,0.4023,0.9667,14.9016,49.9032,-0.7848,0.5251,-0.133,154.9844
19:50:11:222,0.8285,-0.1179,16.3094,51.8264,-0.4309,0.3293,-0.2959,155.0938
19:50:11:239,1.1637,-0.0592,14.0852,51.3914,0.2149,-0.2512,-0.6054,155.1562
19:50:11:259,0.9949,0.4854,10.0701,49.6732,0.6021,-0.5908,-0.8632,155.4375
19:50:11:279,0.9075,1.1079,7.4102,49.3755,0.5489,-0.4763,-0.9764,156.125
19:50:11:303,0.8572,1.2109,6.8739,49.3755,0.331,-0.1298,-1.0105,157.2031
19:50:11:320,0.8105,0.9427,7.6687,49.7333,0.224,0.1858,-1.0406,158.3906
19:50:11:339,0.7782,0.5692,8.5498,51.9628,0.318,0.3837,-1.0928,159.5156
19:50:11:360,0.5256,0.4615,8.8084,50.8169,0.5201,0.3954,-1.1753,160.7031
19:50:11:385,-0.1567,0.8781,7.6723,52.9304,0.6852,0.2926,-1.2201,161.9375
19:50:11:402,-0.2405,1.0648,7.221,51.5959,0.6698,0.1125,-1.1162,162.5938
19:50:11:420,-0.3099,1.2887,6.996,52.0183,0.5659,0.083,-1.0296,164.6094
19:50:11:445,-0.4308,1.4922,7.336,50.37,0.4346,0.0694,-0.9468,167.3281
19:50:11:467,-0.6715,1.6059,8.1368,51.3109,0.3803,0.075,-0.8763,168.4844
19:50:11:482,-1.203,1.7807,8.49,50.2647,0.453,0.0984,-0.8241,168.4844
19:50:11:504,-2.0816,2.0512,8.3331,53.4821,0.5238,0.1807,-0.7412,169.6094
19:50:11:519,-2.9914,2.4355,8.1476,52.0065,0.5007,0.2377,-0.5745,170.6406
19:50:11:539,-3.5804,2.6965,8.2086,53.0368,0.3665,0.1964,-0.3093,171.6094
19:50:11:558,-3.4416,2.73,8.3535,51.999,0.1888,0.0454,0.0186,172.4375
19:50:11:579,-2.4994,2.4331,8.49,50.6762,-0.0141,-0.1346,0.2892,173.1094
19:50:11:603,-1.5418,1.9435,9.1053,52.4378,-0.1987,-0.1918,0.3991,173.4688
19:50:11:620,-1.0725,1.5054,9.7182,51.3009,-0.2977,-0.0739,0.4141,173.4688
19:50:11:638,-0.5506,1.2564,10.1048,54.617,-0.3691,0.0806,0.3667,173.1562
19:50:11:660,-0.2309,1.1522,10.6196,51.4281,-0.4461,0.1882,0.2122,172.7188
19:50:11:684,-0.5027,1.4036,11.12,53.3216,-0.4791,0.2745,0.0039,172
19:50:11:702,-1.2952,1.7232,11.4456,50.5904,-0.4999,0.4231,-0.1332,171.5938
19:50:11:719,-2.1439,1.8082,12.5026,52.7999,-0.5398,0.6454,-0.1625,171.3906
19:50:11:739,-3.0034,1.5461,14.108,53.6121,-0.3867,0.6926,-0.1364,171.375
19:50:11:758,-3.414,1.3857,13.7632,52.7891,0.1273,0.3307,-0.1274,171.4219
19:50:11:779,-3.7013,1.7568,11.1427,52.2388,0.6309,-0.0353,-0.0776,171.4531
19:50:11:803,-4.0353,1.9327,8.0051,52.6912,0.7412,-0.1226,0.1001,171.5
19:50:11:822,-4.2125,1.9196,5.903,52.0973,0.4322,0.0268,0.3888,171.6719
19:50:11:840,-4.0844,1.5233,5.4362,52.5261,-0.1361,0.185,0.7669,171.7812
19:50:11:861,-3.1794,0.7907,6.6069,51.2509,-0.6863,0.1245,1.1017,171.75
19:50:11:889,-1.7094,0.1251,8.4205,52.1282,-0.9502,-0.0952,1.2263,171.3906
19:50:11:906,-0.523,-0.1371,9.4309,51.2813,-0.8296,-0.3215,1.1126,170.4688
19:50:11:922,0.206,0.1275,9.0598,53.2566,-0.4762,-0.4076,0.8815,169.0938
19:50:11:945,0.2491,0.7296,7.6975,52.2482,-0.1728,-0.2808,0.6391,167.5781
19:50:11:958,-0.1028,1.2815,6.5351,53.0248,-0.049,-0.0843,0.4889,166.3281
19:50:11:982,-0.5446,1.7029,5.9054,54.1957,-0.0921,0.0856,0.47,164.9219
19:50:12:005,-0.7361,1.9974,6.0155,51.695,-0.2538,0.1054,0.527,164.3125
19:50:12:024,-0.4069,2.0848,6.8164,53.4114,-0.4189,0.0036,0.601,163.7969
19:50:12:038,0.0911,2.0069,7.877,53.3314,-0.4932,-0.1021,0.6042,163.2031
19:50:12:060,0.3772,2.0907,8.806,52.5117,-0.4799,-0.1785,0.5347,162.5
19:50:12:080,0.5951,2.2631,9.6284,53.8016,-0.4027,-0.1817,0.4442,161.7969
19:50:12:104,0.6753,2.4942,10.0965,52.2261,-0.2589,-0.1429,0.3448,161.1094
19:50:12:124,0.6813,2.7731,10.1599,51.8791,-0.1214,-0.1322,0.2601,160.2812
19:50:12:144,0.6753,3.0448,10.1647,53.0683,-0.0589,-0.1612,0.1927,160.0781
19:50:12:158,0.8405,3.2352,10.203,52.9656,-0.0687,-0.2507,0.1307,159.7344
19:50:12:179,1.0177,3.3286,10.6387,51.5564,-0.1252,-0.3367,0.0503,159.4844
19:50:12:202,1.1828,3.4028,11.4851,51.7554,-0.1404,-0.4078,-0.0752,159.3125
19:50:12:220,1.1445,3.3716,12.3542,51.5151,-0.0306,-0.4526,-0.2224,159.2344
19:50:12:238,1.0404,3.2376,12.4368,51.3316,0.192,-0.5439,-0.362,159.2812
19:50:12:258,1.1122,3.2352,11.7293,51.4162,0.3747,-0.6915,-0.4715,159.4844
19:50:12:278,1.5827,3.2184,10.883,51.158,0.3965,-0.8766,-0.546,159.8438
19:50:12:304,2.3225,3.1657,10.8255,51.3074,0.2354,-0.8489,-0.636,160.4062
19:50:12:319,2.4099,3.0628,11.4719,51.7913,0.0192,-0.6811,-0.7924,161.0938
19:50:12:346,1.6138,2.2643,12.7109,51.5526,-0.1582,-0.2949,-0.9026,161.875
19:50:12:358,1.056,1.4024,14.4922,51.5351,-0.1414,0.3067,-0.9487,162.7344
19:50:12:379,0.9781,0.4914,15.0788,50.0811,0.2069,0.5006,-1.0166,163.7812
19:50:12:405,0.9865,0.5285,13.2053,51.7257,0.7137,0.1709,-1.1838,165.2969
19:50:12:420,0.3221,1.1762,9.9768,50.0101,0.8738,-0.0278,-1.2888,166.4219
19:50:12:438,-0.4416,1.6514,8.0734,48.0886,0.584,-0.0832,-1.2155,167.7969
19:50:12:459,-0.7014,1.7077,7.7346,49.896,0.1878,-0.17,-1.0264,169.3281
19:50:12:481,-0.3207,1.4359,8.4038,47.3682,-0.0197,-0.2243,-0.8347,170.6875
19:50:12:504,0.4059,1.0565,9.1998,49.9288,0.1012,-0.1338,-0.7572,171.8906
19:50:12:520,0.8046,0.8302,8.9413,49.5624,0.4461,0.0699,-0.8137,172.875
19:50:12:538,0.6059,1.0241,7.7513,49.9073,0.7356,0.2196,-0.9277,173.7188
19:50:12:559,-0.0645,1.3246,6.7398,47.304,0.8043,0.2937,-0.9551,174.1719
19:50:12:579,-0.6727,1.5736,6.1413,47.346,0.7129,0.254,-0.8539,175.1875
19:50:12:603,-0.7301,1.7819,6.0982,48.7035,0.5262,0.1387,-0.6976,176.2969
19:50:12:619,-0.851,1.8525,6.5638,47.6821,0.3188,0.0388,-0.5761,177.3125
19:50:12:638,-1.1599,1.8884,7.4461,48.117,0.1822,-0.0198,-0.4507,178.2031
19:50:12:661,-1.2964,1.9148,8.2565,45.5778,0.1539,0.0263,-0.2832,178.9531
19:50:12:677,-1.1826,1.8334,8.5163,46.6651,0.1649,0.0691,-0.1114,179.2812
19:50:12:700,-1.0581,1.8765,8.4313,47.2646,0.131,0.0263,-0.0075,180.1094
19:50:12:721,-1.3035,1.9806,8.4098,45.7554,0.0338,-0.0225,0.0718,180.25
19:50:12:739,-1.4412,2.0548,8.5726,45.8116,-0.0567,-0.0843,0.1829,180.2656
19:50:12:760,-1.3119,2.1985,8.5031,46.2569,-0.0834,-0.1663,0.2623,180.1875
19:50:12:788,-2.8945,2.6869,8.7066,47.6405,-0.1902,0.1618,0.2697,179.9844
19:50:12:804,-3.997,2.6007,8.897,46.988,-0.3851,0.2175,0.4929,179.4375
19:50:12:821,-3.7612,1.843,8.9616,46.708,-0.8245,0.1168,0.8913,179.4375
19:50:12:839,-2.3007,0.5537,10.6471,46.2781,-1.4341,0.0143,1.1936,178.4531
19:50:12:859,-0.6008,-0.5692,13.4208,44.453,-1.7705,-0.3242,1.1736,177.4062
19:50:12:878,0.6573,-0.8015,15.5361,45.5446,-1.534,-0.5229,0.8378,177.4062
19:50:12:903,0.7651,-0.4423,15.3553,45.2637,-0.8123,-0.4305,0.4023,175.9219
19:50:12:920,0.2826,0.0856,12.8857,45.2037,-0.0639,-0.1458,0.1166,173.5312
19:50:12:939,-0.3052,0.3717,9.9648,43.6078,0.2589,0.262,0.0098,173.25
19:50:12:958,-1.118,0.3681,8.6444,45.3006,0.1595,0.5967,-0.0206,172.9844
19:50:12:980,-2.2014,0.2424,8.4888,44.7584,-0.0485,0.613,0.0085,172.9531
19:50:13:004,-2.4803,0.2065,8.3655,42.3491,-0.1838,0.291,0.1688,172.9062
19:50:13:023,-1.7955,0.2867,7.9118,44.5491,-0.2794,-0.0515,0.3611,172.9062
19:50:13:038,-0.9408,0.3657,7.7609,44.6856,-0.3553,-0.1684,0.4644,172.8281
19:50:13:060,-0.3411,0.4124,7.8076,43.4804,-0.3398,-0.0904,0.4977,172.5938
19:50:13:078,-0.0861,0.5632,7.482,46.0898,-0.2333,0.0377,0.4742,172.1875
19:50:13:141,-0.2321,0.8625,6.8595,44.7734,-0.1617,0.1738,0.4471,171.0625
19:50:13:142,-0.6188,1.1618,6.6177,44.6146,-0.1989,0.2609,0.4764,170.5312
19:50:13:142,-0.7517,1.3282,6.8799,43.9517,-0.2892,0.2468,0.5635,170.2656
19:50:13:167,-0.4787,1.5078,7.4473,45.609,-0.3795,0.1424,0.6284,169.7188
19:50:13:186,-0.2812,1.5592,8.4744,44.7845,-0.4216,0.0564,0.6178,169.0781
19:50:13:205,-0.3219,1.6191,9.1747,43.7515,-0.3521,-0.0294,0.589,168.3906
19:50:13:220,-0.1088,1.8884,9.3243,43.5824,-0.2272,-0.088,0.5717,167.625
19:50:13:240,-0.0214,2.2296,8.9808,43.7973,-0.1377,-0.0827,0.543,166.9062
19:50:13:266,0.0779,2.5648,8.7449,44.6218,-0.1553,-0.0907,0.5219,166.2344
19:50:13:287,0.3114,2.7252,9.116,42.7008,-0.2088,-0.0984,0.487,165.625
19:50:13:302,0.5101,2.815,9.6595,42.3673,-0.184,-0.149,0.4119,165.3125
19:50:13:318,0.5759,3.0377,9.6368,41.5188,-0.0858,-0.2331,0.3198,164.7031
19:50:13:339,0.6262,3.3046,9.2585,43.6871,-0.0432,-0.231,0.262,164.1719
19:50:13:358,1.0201,3.3405,9.3291,42.0437,-0.131,-0.0901,0.2396,163.7031
19:50:13:378,0.9841,3.1286,10.9045,40.9066,-0.31,0.1948,0.1999,163.3438
19:50:13:401,1.2427,2.2727,13.0389,40.9066,-0.3539,0.1426,0.1786,163.0469
19:50:13:419,2.1956,1.7891,13.908,42.6207,-0.2458,-0.3128,0.0274,162.6562
19:50:13:438,2.7151,1.8633,13.9535,42.4374,-0.1827,-0.5626,-0.2344,162.4062
19:50:13:458,2.0914,1.9399,13.9619,43.1048,-0.1782,-0.4909,-0.4885,162.25
19:50:13:481,1.1266,1.8681,14.6012,42.2804,-0.1787,-0.1724,-0.6113,162.375
19:50:13:504,0.3604,1.4886,15.2117,42.7837,-0.0282,0.1078,-0.6536,162.8125
19:50:13:521,-0.1842,1.2181,14.5293,43.242,0.2743,0.1392,-0.6794,163.4688
19:50:13:538,-0.292,1.3114,12.6666,41.2792,0.5164,0.0092,-0.6741,164.1562
19:50:13:562,-0.5398,1.2947,10.9272,40.7102,0.5494,0.0801,-0.6419,164.9375
19:50:13:577,-0.7253,1.06,10.2138,42.3854,0.4474,0.2739,-0.5577,165.7188
19:50:13:599,-0.4404,0.6913,10.4424,42.0573,0.391,0.3786,-0.4797,166.4688
19:50:13:627,-0.0621,0.2999,10.6902,41.2284,0.5103,0.3797,-0.5103,167.1719
19:50:13:638,-0.2836,0.1622,10.1228,42.1682,0.792,0.2987,-0.6461,167.75
19:50:13:658,-0.9025,0.3047,8.7761,41.289,1.0794,0.1994,-0.7348,168.2969
19:50:13:679,-1.3969,0.5908,7.1133,42.4844,1.241,0.1674,-0.6962,169.3438
19:50:13:702,-1.6255,0.8158,5.6875,43.4542,1.2115,0.1309,-0.5604,170.25
19:50:13:721,-1.5849,0.8326,5.162,41.454,1.0003,0.0569,-0.386,171.1094
19:50:13:739,-1.27,0.7069,5.6935,41.8606,0.7577,-0.0286,-0.2358,171.7969
19:50:13:759,-0.8211,0.5118,6.4908,41.0021,0.6248,-0.1239,-0.1476,172.0781
19:50:13:778,-0.6751,0.4232,6.8583,40.7559,0.5771,-0.1708,-0.1306,172.4844
19:50:13:805,-0.9492,0.5884,6.8751,41.725,0.4999,-0.1109,-0.0893,172.75
19:50:13:821,-1.0797,0.7368,7.142,42.5052,0.3372,-0.0113,0.0263,172.9688
19:50:13:839,-0.8031,0.7057,7.822,42.4086,0.1534,0.0201,0.1429,173.1719
19:50:13:857,-0.3794,0.6015,8.308,42.9657,0.0376,-0.0353,0.1949,173.25
19:50:13:878,-0.0154,0.683,8.1153,41.2,-0.0541,-0.1876,0.1728,173.1562
19:50:13:905,-0.0454,0.817,8.1117,42.352,-0.2373,-0.235,0.1299,172.9688
19:50:13:921,-0.0502,0.8589,8.8587,40.828,-0.4357,-0.157,0.1102,172.7656
19:50:13:938,-0.2752,0.7308,9.9109,42.2027,-0.5201,-0.0046,0.0247,172.625
19:50:13:958,-1.1946,0.4699,9.9456,41.6241,-0.494,0.0364,-0.0677,172.4375
19:50:13:978,-1.677,0.6925,9.2597,43.4376,-0.5425,-0.0805,-0.0227,172.375
19:50:13:998,-1.8757,1.0553,8.6923,41.1086,-0.7942,-0.3138,0.1485,172.4062
19:50:14:021,-1.871,1.163,8.6121,43.5252,-1.2456,-0.7724,0.3989,172.4062
19:50:14:043,-1.2054,1.0205,9.9229,42.1303,-1.7295,-1.0931,0.6388,171.8281
19:50:14:059,-0.8115,1.1642,16.7033,41.4678,-1.4565,0.0167,0.4332,171.125
19:50:14:080,-2.8777,1.4802,17.3162,43.0366,-0.4107,0.6681,0.2543,170.3438
19:50:14:107,-4.4938,1.5808,14.2109,40.9376,0.5023,0.9424,0.3909,169.8125
19:50:14:125,-4.4938,1.588,10.0917,41.3553,0.7092,0.8809,0.7312,169.5
19:50:14:142,-3.7097,1.2516,7.7202,41.8882,0.2392,0.5954,1.0602,169.0156
19:50:14:160,-2.1008,0.6387,7.7537,42.6088,-0.3233,-0.0694,1.2522,168.1562
19:50:14:180,-0.1926,0.2783,8.1847,41.2862,-0.5284,-0.7298,1.2199,167.5781
19:50:14:207,1.2092,0.4663,8.1572,43.3026,-0.3739,-0.9232,0.992,167.5781
19:50:14:223,1.3409,0.8913,7.7585,41.6753,-0.0024,-0.5767,0.7115,165.5312
19:50:14:239,1.0177,1.3007,7.0283,42.338,0.3696,0.0236,0.5816,164.1562
19:50:14:260,0.7998,1.5461,6.34,43.8508,0.5603,0.5363,0.5384,162.3281
19:50:14:280,0.3999,1.6514,6.2286,42.1196,0.5412,0.7344,0.5264,162.3281
19:50:14:305,0.3772,1.807,6.7302,42.1932,0.4013,0.6255,0.5784,161.6719
19:50:14:322,0.5879,1.9962,7.5443,43.7981,0.2487,0.4063,0.625,161.0312
19:50:14:338,0.8297,1.9519,8.3655,41.5509,0.0991,0.0889,0.6346,160.4375
19:50:14:357,1.0057,1.9842,9.3543,42.5277,-0.0013,-0.1631,0.5919,159.7344
19:50:14:378,1.1613,2.0105,9.9995,41.1864,-0.0221,-0.3495,0.5493,159
19:50:14:404,1.6509,2.0381,10.458,40.1838,0.032,-0.4899,0.4865,158.3125
19:50:14:421,2.3129,2.1087,10.3562,42.7794,0.1409,-0.5921,0.3693,157.6406
19:50:14:439,2.6266,2.3074,9.8762,41.3558,0.2128,-0.6134,0.1888,157.0469
19:50:14:456,2.7175,2.6283,9.6859,41.1798,0.1603,-0.4955,0.009,156.5312
19:50:14:477,2.3728,2.6558,10.3802,39.2349,0.0482,-0.3261,-0.1364,156.1875
19:50:14:496,1.8832,2.7791,11.4839,41.5551,-0.0602,-0.1892,-0.2171,156.0625
19:50:14:520,1.3648,2.8413,11.9843,40.4535,-0.1523,-0.2126,-0.2115,156.1406
19:50:14:538,1.2595,2.8294,12.377,39.4306,-0.3918,-0.0832,-0.0903,156.5156
19:50:14:557,1.3983,2.0273,14.1139,43.1381,-0.7436,0.2476,0.0471,156.6406
19:50:14:577,2.0196,0.5716,16.574,41.9797,-0.8227,0.3136,0.0236,156.8438
19:50:14:597,2.6625,-0.0844,17.0025,42.0769,-0.3883,-0.0712,-0.3503,156.8438
19:50:14:622,1.9274,0.4016,13.9511,41.3657,0.2706,-0.4861,-0.8768,156.7344
19:50:14:639,0.5472,1.2983,9.5518,39.6701,0.5084,-0.5011,-1.0946,156.8594
19:50:14:658,0.1665,1.9375,7.1169,41.1864,0.212,-0.1399,-0.9961,157.5469
19:50:14:678,0.1976,1.7005,7.9908,42.0019,-0.2176,0.2697,-0.798,158.7656
19:50:14:706,0.4969,0.9655,10.2234,40.1404,-0.3289,0.5978,-0.7056,159.4219
19:50:14:721,0.5424,0.3107,11.7078,41.3682,-0.0037,0.7435,-0.7729,160.5781
19:50:14:738,0.6238,-0.0138,11.4013,41.6918,0.5771,0.617,-0.9359,161.4219
19:50:14:757,0.3497,0.1239,9.4201,40.9267,1.0693,0.3522,-1.1178,162.1875
19:50:14:778,-0.0598,0.5058,7.2964,41.9655,1.2448,0.1789,-1.166,163.0156
19:50:14:804,-0.3459,0.835,6.0646,40.5715,1.1731,0.0982,-1.1074,164.0156
19:50:14:822,-0.541,0.9942,5.8132,42.9426,1.0131,0.0854,-0.99,165.9844
19:50:14:839,-0.3602,1.1786,6.1484,42.9347,0.8732,0.0707,-0.8488,167.3438
19:50:14:857,-0.2932,1.2623,6.6428,42.1669,0.7718,0.0383,-0.7543,168.5312
19:50:14:879,-0.6116,1.224,7.0475,42.1633,0.6895,-0.0683,-0.6674,169.625
19:50:14:903,-0.869,1.236,7.215,43.054,0.6,-0.2329,-0.5287,170.5625
19:50:14:921,-0.5446,1.321,7.6388,42.3405,0.4437,-0.2518,-0.3529,171.4219
19:50:14:938,-0.1699,1.327,8.6133,42.7044,0.2711,-0.056,-0.2203,172.1406
19:50:14:959,-0.2225,1.2504,9.7649,43.1709,0.2008,0.1331,-0.1548,172.7188
19:50:14:983,-0.6595,1.175,10.0977,44.0629,0.2373,0.0865,-0.1263,173.0781
19:50:15:003,-0.7409,1.2612,9.5075,42.7059,0.1987,-0.0757,-0.0664,173.2656
19:50:15:024,-0.3985,1.3007,9.3076,43.924,-0.016,-0.1005,-0.0129,173.4219
19:50:15:037,-0.2046,1.1893,10.1312,42.9903,-0.2639,-0.052,-0.0456,173.5469
19:50:15:057,-0.5996,1.2396,11.1391,44.895,-0.3358,0.0167,-0.1862,173.6094
19:50:15:077,-1.6303,1.3605,11.029,43.5801,-0.2578,0.0835,-0.2853,173.6719
19:50:15:097,-2.497,1.5233,9.7744,44.0368,-0.3153,0.1096,-0.1647,173.8594
19:50:15:120,-2.5162,1.3725,8.9269,45.4384,-0.7073,0.0862,0.1645,174.1406
19:50:15:138,-1.543,0.3849,9.796,44.4152,-1.2549,-0.1476,0.482,174.2969
19:50:15:237,-0.4464,-0.4579,11.2349,46.2181,-1.5276,-0.6084,0.5078,174.2344
19:50:15:238,-0.6834,-0.1921,12.1232,46.0959,-1.3686,-0.8073,0.3009,173.7812
19:50:15:238,-1.9679,0.2316,12.013,45.6513,-0.9145,-0.5442,0.2314,173.1562
19:50:15:238,-2.6946,0.5201,10.5454,46.8334,-0.4714,-0.0331,0.4127,172.7031
19:50:15:239,-2.4599,0.5573,8.9987,45.1498,-0.3545,0.4612,0.7027,172.4531
19:50:15:257,-1.6615,0.5357,8.557,45.1246,-0.5364,0.6154,0.8913,172.125
19:50:15:278,-0.7217,0.3837,9.0119,46.3904,-0.7023,0.3048,0.8966,171.4844
19:50:15:301,0.1486,0.4352,9.4045,48.033,-0.6136,-0.1729,0.7216,170.4844
19:50:15:319,0.5292,0.7991,8.7294,46.6345,-0.3124,-0.4526,0.502,169.3594
19:50:15:337,0.7016,1.3234,7.4545,50.0392,-0.0285,-0.3905,0.3432,168.4375
19:50:15:357,0.5652,1.7735,6.498,47.2157,0.1076,-0.1104,0.2583,167.5
19:50:15:378,0.3652,1.995,6.2634,48.8499,0.1214,0.1797,0.2745,167.125
19:50:15:407,0.5699,1.989,6.7159,49.3128,0.0876,0.3277,0.3232,166.8438
19:50:15:424,0.9638,2.0369,7.5466,49.6319,0.0506,0.3722,0.3251,166.5312
19:50:15:442,1.1434,2.0309,8.8263,48.8236,0.0288,0.3656,0.286,166.1406
19:50:15:458,1.1457,2.0824,9.948,48.9876,0.0919,0.3363,0.2244,165.7656
19:50:15:477,0.807,2.3194,10.2928,49.0649,0.2091,0.3485,0.1651,165.4219
19:50:15:504,0.3461,2.5025,10.0582,49.0649,0.2368,0.3389,0.1624,165.1406
19:50:15:521,0.2156,2.645,10.1587,50.0449,0.1622,0.266,0.2042,164.9531
19:50:15:537,0.2886,2.639,10.3299,51.3726,0.0863,0.1205,0.2335,164.75
19:50:15:564,0.6789,2.6031,10.3838,51.6081,0.0107,-0.0238,0.2154,164.5156
19:50:15:577,0.6825,2.5911,12.0956,49.9793,-0.0692,-0.0603,0.136,164.25
19:50:15:600,0.5173,2.4439,12.4356,52.3717,-0.0407,-0.0241,0.0686,164.0156
19:50:15:620,0.4023,2.487,11.6383,52.3717,0.2224,-0.1937,-0.0858,163.8594
19:50:15:640,0.0708,2.566,11.3151,51.794,0.0852,-0.3192,-0.1604,163.8125
19:50:15:658,-0.0729,2.3218,12.0849,53.1946,-0.1627,-0.2864,-0.1487,163.8125
19:50:15:678,0.0133,1.7017,14.0409,55.294,-0.3345,-0.0475,-0.1295,163.7812
19:50:15:698,0.1857,0.8673,15.487,54.8841,-0.1944,0.001,-0.198,163.9062
19:50:15:720,0.5029,0.3562,14.8526,54.564,0.2365,-0.2443,-0.3806,164.2969
19:50:15:738,0.4143,0.4579,12.2752,54.0874,0.6575,-0.5253,-0.6001,164.4219
19:50:15:755,0.3808,0.7416,9.286,54.6175,0.7622,-0.5631,-0.6938,164.6406
19:50:15:777,0.8776,0.9918,7.6268,54.7827,0.5435,-0.3868,-0.7162,165.1094
19:50:15:797,1.275,0.8649,7.5023,56.3759,0.2852,-0.214,-0.778,165.8281
19:50:15:819,1.3337,0.7488,8.0853,54.5294,0.1563,-0.0262,-0.885,166.6875
19:50:15:836,0.9817,0.653,8.7509,55.1008,0.1891,0.2164,-0.9774,167.5625
19:50:15:856,0.4909,0.6039,8.9592,54.7325,0.3316,0.4433,-0.9953,168.4375
19:50:15:877,0.3257,0.5046,8.1799,56.7147,0.4533,0.54,-0.9343,169.4531
19:50:15:896,0.2982,0.5094,7.0379,57.5319,0.4296,0.5472,-0.8755,170.5625
19:50:15:920,0.2228,0.6794,5.9928,56.9727,0.2682,0.4241,-0.8315,172.1406
19:50:15:938,0.036,0.9751,5.8599,56.4263,0.0312,0.2739,-0.823,173.1406
19:50:15:956,-0.4344,1.0648,7.2988,57.0678,-0.0938,0.2457,-0.7841,174.0781
19:50:15:977,-0.9049,0.914,8.6504,56.5356,0.0607,0.2345,-0.7253,174.9531
19:50:15:999,-1.112,1.0289,8.4756,58.4489,0.371,0.1573,-0.6549,175.8438
19:50:16:021,-1.2245,1.4335,7.5371,57.9435,0.502,0.1677,-0.5434,176.6875
19:50:16:038,-1.3634,1.5592,7.3204,57.847,0.3531,0.1861,-0.3825,177.4688
19:50:16:058,-1.2245,1.4826,8.3643,59.6352,0.1015,0.0175,-0.2486,178.1406
19:50:16:076,-1.0713,1.509,9.5829,58.3351,-0.0184,-0.2385,-0.1721,178.7031
19:50:16:097,-1.0019,1.5951,10.0965,58.0999,0.0373,-0.4377,-0.1359,179.0469
19:50:16:122,-1.3873,1.801,9.8547,57.0817,0.1148,-0.3335,-0.0797,179.2969
19:50:16:139,-1.7417,1.7508,9.7685,59.61,0.0578,-0.0315,0.0527,179.4062
19:50:16:158,-1.8315,1.4706,10.3263,58.1625,-0.0679,0.1405,0.1762,179.6094
19:50:16:176,-1.9715,1.1043,10.8542,58.895,-0.1771,0.1259,0.2034,179.75
19:50:16:197,-2.3594,0.9607,11.0996,59.6835,-0.2844,0.0428,0.1746,179.7031
19:50:16:222,-2.8705,0.9272,11.2421,59.0347,-0.4304,0.0521,0.209,179.3438
19:50:16:239,-3.0345,0.5716,11.5486,58.5986,-0.6021,0.164,0.3145,179.1094
19:50:16:256,-2.7544,-0.2388,12.1854,59.089,-0.6932,0.2127,0.4079,178.875
19:50:16:281,-1.7764,-0.8302,12.0801,58.9638,-0.5422,-0.0158,0.3904,178.5312
19:50:16:303,-0.8319,-0.8829,10.634,58.8416,-0.2463,-0.2158,0.2149,178.0312
19:50:16:321,-0.6834,-0.5141,8.4959,59.1597,-0.0626,-0.1737,-0.0192,177.5156
19:50:16:337,-1.7285,-0.0916,6.9972,59.4097,-0.1449,0.1767,-0.1407,177.125
19:50:16:363,-2.9124,0.1706,6.9241,60.8887,-0.4434,0.5355,-0.0203,177.0312
19:50:16:375,-3.019,0.2376,8.0494,58.4588,-0.7161,0.6356,0.2647,177.1562
19:50:16:397,-2.0002,0.1622,8.7976,59.2093,-0.8208,0.4329,0.531,177.2188
19:50:16:422,-0.4919,0.3059,9.383,58.8283,-0.7867,0.0204,0.5866,177
19:50:16:439,-0.0693,0.7811,9.5614,59.9536,-0.5966,-0.2486,0.4684,176.4062
19:50:16:456,-0.3554,1.3342,9.1172,59.4086,-0.3135,-0.2861,0.3866,175.6719
19:50:16:476,-0.6727,1.7986,8.2015,58.8638,-0.0474,-0.1945,0.405,175.0156
19:50:16:495,-0.9396,2.1686,7.233,58.1587,0.0818,-0.0872,0.4894,174.2812
19:50:16:517,-1.3119,2.3912,6.7254,59.0988,0.0474,-0.0534,0.6226,173.8438
19:50:16:539,-1.2616,2.3984,6.9613,59.1985,-0.0887,-0.1032,0.8029,173.2969
19:50:16:560,-0.8486,2.1338,7.7932,58.7827,-0.2128,-0.1855,0.9358,172.5938
19:50:16:577,-0.4464,1.9962,8.8563,57.938,-0.2652,-0.2571,0.9664,171.7188
19:50:16:596,-0.3195,1.8884,9.7493,59.2439,-0.2466,-0.2904,0.9435,171.2031
19:50:16:622,0.0935,1.8489,10.4065,57.9322,-0.1654,-0.4033,0.886,170.0781
19:50:16:639,0.3557,1.9758,10.7082,58.9627,-0.0455,-0.5042,0.7659,168.9844
19:50:16:656,0.5903,2.0896,10.8387,59.6618,0.0586,-0.5205,0.65,167.9688
19:50:16:676,0.941,2.1219,11.2229,60.2427,0.1198,-0.3793,0.5233,167.0469
19:50:16:697,1.1577,1.9291,12.268,58.0687,0.1886,-0.1705,0.3488,166.2656
19:50:16:722,1.056,1.7376,13.112,61.2542,0.3422,-0.1559,0.1123,165.6094
19:50:16:740,0.8501,1.9052,13.325,60.794,0.5475,-0.2036,-0.1178,165.1562
19:50:16:756,0.4658,2.001,12.3985,59.7334,0.6866,-0.2137,-0.2573,164.875
19:50:16:778,0.3341,2.2595,11.3558,58.3872,0.5771,-0.2281,-0.2938,165.0469
19:50:16:795,0.4251,2.0153,11.3319,59.449,0.2543,-0.1482,-0.2323,165.375
19:50:16:816,1.1194,1.2827,11.9651,60.302,-0.0189,-0.1695,-0.1764,165.75
19:50:16:838,1.9741,0.6746,12.3901,57.3206,-0.1036,-0.2472,-0.2533,166.0312
19:50:16:856,2.3764,0.2807,12.1184,58.5922,0.0194,-0.3554,-0.448,166.2344
19:50:16:877,2.2842,0.3346,10.7944,59.7087,0.1952,-0.3554,-0.6499,166.5469
19:50:16:897,1.9083,0.6135,9.2417,59.6188,0.2242,-0.1213,-0.7793,167.0938
19:50:16:920,1.3026,0.7189,8.4912,59.5926,0.0533,0.2635,-0.8153,167.8281
19:50:16:938,0.6813,0.5309,8.6743,56.6638,-0.1574,0.4753,-0.8038,168.7344
19:50:16:956,0.2383,0.325,9.3088,58.0666,-0.2418,0.4303,-0.7788,169.6406
19:50:16:976,0.443,0.3059,9.3626,60.8032,-0.1169,0.2777,-0.7556,170.5156
19:50:16:997,0.461,0.671,8.2649,57.8745,0.1656,0.1291,-0.7844,171.3281
19:50:17:017,0.1078,1.0792,7.3719,58.9106,0.58,0.1626,-0.8845,172.1719
19:50:17:038,-0.3961,1.3845,6.9708,56.5884,0.6376,0.2018,-0.8427,172.1719
19:50:17:055,-0.8115,1.5461,6.6548,57.9469,0.6312,0.1421,-0.73,173.0625
19:50:17:076,-0.8055,1.746,6.7003,57.7191,0.5337,0.0417,-0.567,174
19:50:17:097,-0.5362,1.7747,7.087,58.5557,0.4091,-0.0307,-0.4027,176.0156
19:50:17:121,-0.3854,1.734,7.6556,58.2302,0.2775,-0.0909,-0.2765,176.8281
19:50:17:139,-0.2752,1.7675,8.5654,57.1261,0.168,-0.1088,-0.1724,177.5156
19:50:17:155,-0.2716,1.588,9.632,56.3748,0.126,-0.0398,-0.0837,178
19:50:17:175,-0.1124,1.4084,10.3754,58.8424,0.2067,-0.0552,-0.0379,178.3438
19:50:17:195,0.1102,1.4323,10.3718,57.7653,0.3262,-0.1234,-0.0315,178.5469
19:50:17:220,-0.0047,1.6119,9.8858,58.354,0.3619,-0.1309,-0.0392,178.6562
19:50:17:238,-0.2489,1.6849,9.6404,59.0383,0.2535,-0.08,-0.0123,178.7188
19:50:17:305,-0.3387,1.5161,10.0677,57.3603,0.0908,-0.0941,0.0284,178.7812
19:50:17:306,-0.0993,1.3426,11.1236,57.1455,0.0248,-0.149,-0.0041,178.8594
19:50:17:306,-0.6344,1.2109,11.4396,57.3916,0.1497,-0.2084,-0.1652,178.8906
19:50:17:322,-1.5154,1.3952,10.8638,56.4465,0.282,-0.1088,-0.2448,178.8906
19:50:17:340,-1.8698,1.9387,10.3706,56.9102,0.2879,0.1187,-0.1796,179
19:50:17:357,-2.3797,2.1889,10.0845,56.4087,0.1627,0.324,-0.068,179.2969
19:50:17:376,-3.0621,2.1063,10.3981,56.0421,-0.0474,0.402,0.115,179.5469
19:50:17:397,-2.9232,1.7304,11.1966,56.709,-0.1766,0.271,0.3235,179.6875
19:50:17:419,-2.1439,1.4323,11.2289,55.555,-0.1143,0.0108,0.4356,179.625
19:50:17:438,-1.6866,1.3055,10.1862,57.2627,-0.049,-0.1258,0.4772,179.3281
19:50:17:456,-1.5836,1.1833,8.6264,56.7267,-0.1404,-0.1442,0.5523,178.8438
19:50:17:476,-1.3323,0.993,7.8052,56.0494,-0.4895,-0.0763,0.6902,178.5781
19:50:17:496,-0.5506,0.5656,8.3331,54.9818,-0.8796,-0.1551,0.8199,178.0469
19:50:17:516,0.1342,0.4782,8.7749,55.4592,-1.0466,-0.4366,0.7778,177.4688
19:50:17:537,0.2359,0.7739,8.6444,56.2411,-0.9896,-0.6614,0.6758,176.6562
19:50:17:557,0.2766,1.1786,8.1416,54.9137,-0.7859,-0.6888,0.6167,175.6875
19:50:17:575,0.4993,1.4443,7.6592,56.1114,-0.5409,-0.4856,0.5861,174.7969
19:50:17:596,0.467,1.4742,7.2474,55.848,-0.2977,-0.2038,0.528,173.7656
19:50:17:622,-0.0514,1.7328,6.5734,55.848,-0.1204,0.005,0.5107,173.1094
19:50:17:636,-0.2704,1.9662,6.5578,55.8627,-0.0972,0.1634,0.6186,172.4844
19:50:17:655,0.1426,1.8394,7.0367,55.8154,-0.127,0.1664,0.7515,171.9375
19:50:17:677,0.874,1.8142,7.8902,56.0995,-0.1909,0.0787,0.7912,171.2969
19:50:17:697,1.1074,1.8154,8.9544,54.7182,-0.2184,0.0343,0.7384,170.5
19:50:17:721,1.0141,2.0058,10.1264,55.3589,-0.1521,-0.0044,0.637,169.625
19:50:17:739,0.8465,2.2547,10.9644,54.9566,0.0189,-0.0342,0.5339,168.7344
19:50:17:757,0.698,2.4583,11.29,53.716,0.2184,-0.0467,0.4545,167.9375
19:50:17:775,0.6609,2.6546,11.1547,55.0917,0.3614,-0.0891,0.4244,167.2969
19:50:17:796,1.135,2.6618,11.4648,54.7604,0.3686,-0.0947,0.4244,166.75
19:50:17:825,1.536,2.3792,12.4272,54.1202,0.3526,-0.0853,0.3552,166.2656
19:50:17:841,1.9179,2.0093,13.4388,54.8382,0.441,-0.1447,0.2271,165.7812
19:50:17:857,2.0986,1.9375,13.2568,55.9626,0.6535,-0.2888,0.0431,165.1719
19:50:17:876,1.9921,2.1698,11.7736,54.431,0.7673,-0.4334,-0.0914,164.9375
19:50:17:896,2.0543,2.4176,10.458,54.9583,0.579,-0.4345,-0.1111,164.9219
19:50:17:922,2.2483,2.0668,10.9189,54.3323,0.1867,-0.1887,-0.0709,165.0469
19:50:17:944,2.5248,1.1187,12.7217,53.6104,-0.0799,0.0689,-0.0592,165.2344
19:50:17:957,2.8684,0.0245,13.9224,54.0117,-0.0173,-0.0041,-0.1599,165.2969
19:50:17:976,3.0539,-0.4974,13.0533,55.5537,0.2815,-0.3556,-0.3756,165.3594
19:50:17:995,3.0659,-0.0281,10.7884,55.5924,0.4597,-0.5114,-0.6187,165.4531
19:50:18:016,2.2626,0.5249,8.9844,54.455,0.3342,-0.2787,-0.799,165.7656
19:50:18:035,1.0583,0.7464,8.3942,54.9641,0.057,-0.0054,-0.8517,166.3906
19:50:18:055,0.1641,0.7919,8.4983,55.1475,-0.2008,0.0872,-0.782,167.2188
19:50:18:078,-0.0466,0.7165,9.3459,55.7985,-0.3127,0.0513,-0.6749,168.2031
19:50:18:094,-0.1244,0.6794,9.6248,55.5825,-0.172,-0.0409,-0.6251,169.1406
19:50:18:117,0.0396,0.8577,8.9664,55.1039,0.0677,-0.1841,-0.5972,169.9219
19:50:18:136,0.2563,1.1881,8.0303,55.8154,0.2788,-0.2403,-0.6262,171.0156
19:50:18:156,0.0648,1.5556,6.99,54.6732,0.4213,-0.2273,-0.6525,171.7344
19:50:18:175,-0.0873,1.9567,6.431,54.2947,0.4674,-0.1285,-0.615,172.4375
19:50:18:196,-0.3279,2.1913,6.2885,53.82,0.4445,0.0335,-0.5338,173.2031
19:50:18:221,-0.5374,2.4511,6.5554,54.7861,0.3891,0.1067,-0.3977,173.9219
19:50:18:238,-0.2824,2.4714,6.8535,55.3172,0.3246,0.1038,-0.2328,174.5
19:50:18:255,0.1019,2.4343,7.0439,54.6335,0.2368,0.0374,-0.129,174.9375
19:50:18:276,0.2575,2.4786,7.8411,55.4681,0.1132,0.0146,-0.0738,175.1875
19:50:18:296,0.3377,2.3876,8.7844,56.0245,0.0618,0.0585,-0.02,175.3281
19:50:18:321,0.3987,2.3373,9.3746,56.0928,0.1007,0.152,0.0164,175.3906
19:50:18:339,0.5328,2.3014,9.5925,54.9134,0.1457,0.271,0.045,175.4062
19:50:18:355,0.6465,2.2392,9.6224,54.4086,0.1294,0.2886,0.0335,175.375
19:50:18:377,0.1785,2.1446,10.786,55.417,-0.078,0.2889,-0.0616,175.2812
19:50:18:398,-0.0993,1.7579,11.2134,53.2658,-0.0559,0.2417,-0.0784,175.2812
19:50:18:422,0.1078,1.5257,10.2174,54.5831,-0.0008,0.1024,-0.0669,175.1875
19:50:18:439,0.5484,1.6754,8.9425,54.8077,-0.159,-0.0078,-0.0802,175.1875
19:50:18:458,0.4957,1.8801,8.6994,54.3106,-0.5172,0.0068,-0.0776,175.3125
19:50:18:477,0.0145,1.7627,9.7397,55.7243,-0.9161,0.1924,0.0186,175.3906
19:50:18:496,-0.3195,1.0936,11.9436,54.9759,-1.1393,0.4857,0.1765,175.3906
19:50:18:518,-0.0526,0.3705,13.9954,53.3369,-1.0005,0.609,0.2572,175.4688
19:50:18:538,0.1964,0.0461,13.841,54.0867,-0.527,0.3557,0.1536,175.4062
19:50:18:554,-0.2776,0.5561,11.3403,55.6359,-0.0714,-0.014,-0.0326,175.1094
19:50:18:574,-1.5178,1.175,8.5331,54.3964,-0.0048,-0.1226,-0.06,174.7344
19:50:18:594,-2.1798,1.4395,7.1289,54.525,-0.2565,-0.109,0.1448,174.5156
19:50:18:615,-1.7237,1.2851,7.081,55.0864,-0.5609,-0.1748,0.4125,174.5469
19:50:18:639,-0.8019,0.8745,7.7454,55.4304,-0.7329,-0.2417,0.5573,174.625
19:50:18:657,0.0624,0.6075,8.5211,55.2948,-0.7041,-0.2611,0.5315,174.4688
19:50:18:674,0.4359,0.6542,8.7605,55.1483,-0.5009,-0.2747,0.3581,174
19:50:18:694,0.1725,1.0349,8.2122,55.1462,-0.2213,-0.256,0.1651,173.3594
19:50:18:715,-0.0645,1.5401,7.2103,56.0388,-0.0256,-0.1466,0.0926,172.5625
19:50:18:739,-0.1759,2.0225,6.6799,55.4244,0.0192,0.0023,0.1121,172.2969
19:50:18:757,-0.1507,2.3385,6.7781,54.7036,-0.0439,0.1517,0.1691,172.1875
19:50:18:775,-0.0011,2.4032,7.6915,56.267,-0.1729,0.2883,0.2396,172.0781
19:50:18:795,0.3389,2.2152,9.1938,55.5654,-0.2541,0.3072,0.2777,171.9219
19:50:18:814,0.3724,2.1314,10.5574,54.1352,-0.2096,0.2705,0.2553,171.6719
19:50:18:837,0.2515,2.2919,11.1487,55.2002,-0.0796,0.2095,0.2466,171.3594
19:50:18:856,0.3868,2.4056,11.2648,54.6899,0.0575,0.1485,0.2652,171.0156
19:50:18:875,0.6693,2.4463,11.1212,55.7007,0.1598,0.0649,0.2599,170.7188
19:50:18:896,1.0931,2.4415,10.8614,55.9496,0.2216,-0.1098,0.2143,170.4219
19:50:18:922,1.6665,2.4882,10.6579,57.12,0.2743,-0.3223,0.1089,170.125
19:50:18:939,1.8856,2.566,10.5286,57.9249,0.3135,-0.4406,-0.043,169.9688
19:50:18:959,1.9023,2.7252,10.8351,55.7985,0.3308,-0.3961,-0.1785,169.75
19:50:18:974,1.8257,2.748,11.4252,56.0829,0.3678,-0.223,-0.2605,169.6562
19:50:18:995,2.0831,2.6246,11.4983,56.522,0.4514,-0.1423,-0.3255,169.7344
19:50:19:016,2.441,2.6306,11.0685,55.7762,0.4583,-0.1793,-0.427,169.9844
19:50:19:036,2.593,2.6522,10.7249,53.536,0.2855,-0.2739,-0.5183,170.4688
19:50:19:060,2.5535,2.4714,11.2732,57.2127,0.0088,-0.2925,-0.5798,170.9062
19:50:19:075,2.538,1.8429,12.5158,57.0941,-0.1811,-0.1202,-0.6073,171.4844
19:50:19:095,2.8696,1.0086,13.6219,55.0447,-0.142,-0.0414,-0.6874,172.1406
19:50:19:120,3.1042,0.398,13.27,53.8618,0.1297,-0.2478,-0.884,172.8125
19:50:19:135,3.0144,0.5489,11.515,54.4656,0.38,-0.4821,-1.1407,173.5469
19:50:19:154,2.6625,0.9691,10.0438,54.8728,0.4056,-0.3415,-1.3119,174.4375
19:50:19:174,1.9933,1.163,9.7744,55.4983,0.3092,0.0388,-1.3727,175.5781
19:50:19:194,1.0835,1.0732,10.0689,56.0909,0.2461,0.373,-1.3569,177.0469
19:50:19:214,0.2371,1.0157,10.1671,54.4926,0.2487,0.5475,-1.2664,178.6094
19:50:19:237,-0.4716,0.9332,9.4955,55.1692,0.2631,0.5363,-1.1111,180.0938
19:50:19:254,-0.7002,0.9523,8.8587,54.5596,0.2029,0.3751,-0.9338,181.5469
19:50:19:274,-0.5853,0.8027,8.654,53.176,0.1654,0.194,-0.791,182.8594
19:50:19:293,-0.377,0.6985,8.2003,54.2502,0.2629,-0.0041,-0.7588,183.9844
19:50:19:360,-0.4428,0.8206,7.3647,55.2433,0.4187,-0.1173,-0.8001,185.3125
19:50:19:360,-0.8738,1.0205,6.2107,53.177,0.5321,-0.1373,-0.8057,186.1875
19:50:19:361,-1.1192,1.2528,5.3272,53.9725,0.5273,-0.0893,-0.7151,187.1406
19:50:19:378,-1.0905,1.3126,5.2578,52.9931,0.4171,-0.0289,-0.5394,188.0469
19:50:19:394,-0.4093,1.2097,5.9533,55.3431,0.3055,-0.0398,-0.3697,188.9062
19:50:19:414,0.3449,1.1833,6.6392,53.4671,0.2458,-0.0699,-0.3154,189.5312
19:50:19:434,0.5508,1.175,7.4437,53.2633,0.172,-0.0017,-0.3447,189.75
19:50:19:454,0.5532,1.3138,8.4253,52.4513,0.0677,0.1408,-0.3489,190.1406
19:50:19:476,0.3221,1.5125,9.3674,52.632,-0.0509,0.283,-0.3026,190.5312
19:50:19:494,0.0073,1.4838,10.5562,52.2305,-0.1739,0.3554,-0.2035,190.9375
19:50:19:518,0.0265,1.242,11.4612,52.5254,-0.2487,0.2348,-0.126,191.2656
19:50:19:539,0.3461,1.181,12.1088,53.7785,-0.2959,0.0454,-0.1212,191.5
19:50:19:555,0.5448,1.3354,12.5002,50.7303,-0.2802,-0.0819,-0.19,191.625
19:50:19:573,0.3209,1.7448,12.0023,51.4611,-0.1545,-0.2353,-0.2973,191.7812
19:50:19:594,-0.1172,2.2356,10.4747,51.1918,-0.0991,-0.3354,-0.2919,191.9844
19:50:19:614,-0.2549,2.578,8.788,51.2071,-0.3635,-0.3058,-0.0973,192.3438
19:50:19:635,0.2479,1.9902,8.97,49.6184,-0.9385,-0.17,0.1866,192.7031
19:50:19:654,1.4809,0.841,11.9903,51.0085,-1.339,0.096,0.3163,192.8438
19:50:19:674,2.4889,-0.2185,14.3593,51.2448,-1.0027,-0.0073,0.0665,192.6094
19:50:19:694,2.544,-0.0497,13.0784,49.8993,-0.0783,-0.4451,-0.4539,192.1875
19:50:19:714,1.6018,0.8362,9.2453,49.8993,0.6559,-0.5383,-0.8555,192.0625
19:50:19:737,0.8225,1.9591,5.8551,52.1171,0.6743,-0.1112,-0.9245,192.625
19:50:19:757,0.5448,2.2452,4.8496,50.2487,0.1174,0.3994,-0.729,193.6875
19:50:19:775,1.5994,0.4699,10.1467,50.526,-0.9036,0.2561,-0.5327,194.7188
19:50:19:797,2.1776,0.1407,12.1615,49.4663,-0.6852,-0.1993,-0.7189,194.7188
19:50:19:823,2.3919,0.4735,11.6898,49.8121,-0.155,-0.4196,-0.9516,195.5156
19:50:19:840,1.9669,0.9619,9.9887,49.6252,0.2946,-0.2499,-1.1199,196.5469
19:50:19:859,1.4761,1.3342,8.0686,49.1955,0.4932,-0.015,-1.1391,196.9062
19:50:19:877,1.433,1.4946,6.9517,49.2714,0.4109,0.1075,-1.0869,196.9062
19:50:19:894,1.469,1.4252,6.899,49.9049,0.1832,0.092,-1.0653,198.4688
19:50:19:916,1.4259,1.4024,7.8627,48.0635,-0.0344,0.0201,-1.0802,201.0469
19:50:19:939,1.2631,1.3485,9.0466,48.3975,-0.1009,-0.043,-1.1149,202.2969
19:50:19:955,1.0476,1.4467,9.7254,48.6826,-0.0272,-0.0659,-1.1277,203.5156
19:50:19:973,0.8584,1.5712,9.6248,48.5437,0.0503,-0.1176,-1.0968,204.6875
19:50:19:993,0.8513,1.643,9.5135,48.9623,0.0163,-0.2065,-1.0515,205.9688
19:50:20:019,1.1697,1.5161,9.9792,47.9478,-0.0652,-0.3383,-1.0363,207.2656
19:50:20:039,1.5935,1.2887,10.6615,46.7088,-0.0541,-0.5109,-1.0946,209.6875
19:50:20:056,1.7359,1.1726,10.7621,48.3938,0.0898,-0.655,-1.2177,209.6875
19:50:20:078,1.7251,1.3653,10.6663,47.2285,0.2373,-0.5823,-1.3282,210.9062
19:50:20:097,1.3145,1.3761,10.944,48.2075,0.3641,-0.3887,-1.3905,212.125
19:50:20:122,0.9973,1.3845,11.181,47.5963,0.4858,-0.2805,-1.3884,215.1562
19:50:20:141,0.9901,1.3593,11.4396,47.0657,0.5752,-0.2182,-1.3663,215.9844
19:50:20:158,0.9183,1.321,11.1008,45.3348,0.6147,-0.2856,-1.3338,218.3594
19:50:20:176,0.971,1.3569,10.5609,46.7355,0.4783,-0.4955,-1.2592,219.1562
19:50:20:194,1.3792,1.2755,10.5633,45.84,0.187,-0.6758,-1.1572,220.7656
19:50:20:214,2.1788,0.8517,11.1858,44.2454,-0.1161,-0.6244,-1.0976,222.3125
19:50:20:238,2.8444,0.1933,12.5697,45.942,-0.302,-0.3048,-1.1423,223.7031
19:50:20:259,3.0587,-0.647,13.6758,46.7012,-0.1843,-0.1753,-1.3303,225.0469
19:50:20:278,2.7199,-0.7955,12.8247,45.6629,0.253,-0.398,-1.5862,226.3594
19:50:20:296,2.2579,-0.3633,9.6356,45.2218,0.5542,-0.7082,-1.7495,227.6875
19:50:20:321,2.1633,0.234,7.0175,44.1327,0.3481,-0.7008,-1.7823,229.3906
19:50:20:339,2.2638,0.428,6.8523,46.107,-0.1353,-0.4297,-1.7591,231.3906
19:50:20:355,2.1262,-0.0916,8.4564,45.1257,-0.4783,-0.2028,-1.7522,232.4531
19:50:20:374,1.7766,-0.4387,9.9768,44.5804,-0.4895,-0.0379,-1.7924,234.4688
19:50:20:398,1.3098,-0.4962,10.5382,44.5339,-0.2344,0.1613,-1.8209,236.5156
19:50:20:422,0.935,-0.3274,10.0618,43.0569,0.0527,0.3115,-1.8289,238.5469
19:50:20:440,0.4406,-0.0569,9.1795,43.3117,0.2013,0.2803,-1.8156,241.5156
19:50:20:455,0.1593,0.2508,8.454,45.6469,0.1963,0.0367,-1.7671,243.5781
19:50:20:475,-0.1962,0.513,8.2146,42.9005,0.1425,-0.2161,-1.6946,245.6562
19:50:20:495,-0.4153,0.8111,8.0231,44.0816,0.1265,-0.3666,-1.5751,247.6094
19:50:20:517,-0.4021,1.0157,7.8794,45.3999,0.1427,-0.3745,-1.4318,249.6094
19:50:20:539,-0.4979,1.248,7.7023,42.607,0.1707,-0.3053,-1.2856,251.5156
19:50:20:557,-0.5374,1.4706,7.7621,43.1321,0.163,-0.2251,-1.1239,253.2812
19:50:20:575,-0.4799,1.5161,8.1225,41.9678,0.1342,-0.1895,-0.9719,254.7969
19:50:20:594,-0.3123,1.5329,8.5773,43.2645,0.0887,-0.1881,-0.8488,256.2031
19:50:20:615,-0.2429,1.5473,9.2178,42.5322,0.0224,-0.227,-0.758,257.4219
19:50:20:637,-0.2405,1.5568,9.8702,41.4933,-0.0024,-0.2728,-0.6829,258.4375
19:50:20:654,-0.2202,1.5832,10.2641,41.8002,0.0136,-0.3157,-0.6171,259.375
19:50:20:674,-0.134,1.5856,10.379,42.7376,0.0458,-0.2984,-0.5564,260.2188
19:50:20:698,-0.1064,1.6335,10.3323,40.8767,0.0461,-0.1974,-0.4986,260.9375
19:50:20:713,-0.2477,1.5341,10.379,40.5826,-0.0091,-0.0827,-0.4387,261.9688
19:50:20:734,-0.3566,1.406,10.8459,43.6251,-0.0991,-0.0363,-0.3961,262.5625
19:50:20:760,-0.626,1.1893,11.3546,41.1019,-0.1222,-0.0321,-0.3987,263.0469
19:50:20:776,-1.0976,1.1654,11.1068,40.7381,-0.0866,-0.0166,-0.3865,263.5
19:50:20:795,-1.4604,1.2683,10.4376,42.5448,-0.142,0.0707,-0.2914,263.9531
19:50:20:814,-1.4436,1.2348,9.8475,40.6396,-0.3185,0.1165,-0.1274,264.3906
19:50:20:839,-1.0557,1.0086,9.9923,40.5308,-0.5851,0.1964,0.0436,264.5625
19:50:20:856,-0.5709,0.4639,11.2852,39.9247,-0.7478,0.2476,0.1272,264.7969
19:50:20:875,-0.3159,-0.0126,12.2453,40.5586,-0.5667,0.12,0.0652,264.8125
19:50:20:894,-0.4979,0.1921,11.3905,39.5117,-0.1076,-0.0204,-0.0853,264.6562
19:50:20:914,-1.2365,0.732,9.2381,38.5112,0.2573,0.1637,-0.1276,264.4844
19:50:20:938,-2.2588,0.9092,7.4784,38.9735,0.2786,0.5733,0.0314,264.4844
19:50:20:955,-3.013,0.6746,6.9469,39.532,-0.0213,0.8396,0.3379,264.625
19:50:20:978,-2.6347,0.1035,7.5945,39.3159,-0.4216,0.7389,0.674,264.6875
19:50:20:997,-1.2844,-0.3956,8.5917,39.5612,-0.6969,0.336,0.8593,264.1875
19:50:21:013,0.054,-0.4304,9.292,37.7589,-0.7215,-0.1354,0.7962,263.3438
19:50:21:033,0.5161,0.0401,9.0526,38.3639,-0.5135,-0.3895,0.5874,262.3438
19:50:21:054,0.2336,0.8146,8.4217,38.0536,-0.2415,-0.2691,0.4002,261.4062
19:50:21:074,-0.45,1.4204,7.7118,37.1523,-0.0051,0.0894,0.3435,260.7188
19:50:21:093,-0.7684,1.8274,7.1648,38.4215,0.1103,0.3751,0.4061,260.2812
19:50:21:114,-0.7589,2.0093,7.1959,37.8583,0.118,0.4859,0.5022,259.875
19:50:21:138,-0.3674,1.9878,7.5502,36.3421,0.0589,0.3986,0.6026,259.4062
19:50:21:159,0.1701,1.7711,8.2625,36.3053,-0.0674,0.1291,0.6425,258.8438
19:50:21:175,0.8824,1.9243,10.3455,36.6669,-0.2043,-0.2454,0.5579,258.1406
19:50:21:194,1.2343,1.807,11.8837,37.7472,-0.0575,-0.1426,0.4979,257.3906
19:50:21:216,1.6569,1.5939,13.185,36.0735,0.3039,-0.0273,0.3896,256.7031
19:50:21:239,1.8233,1.4718,12.942,36.4152,0.7723,-0.084,0.2178,256.0781
19:50:21:256,1.9706,1.8944,11.7305,35.4859,1.0695,-0.1823,0.0106,256.0781
19:50:21:274,1.773,2.4762,10.8183,35.5324,1.0738,-0.1977,-0.1836,255.0938
19:50:21:294,1.5192,2.7504,11.2253,35.3558,0.9281,-0.1381,-0.3242,254.9062
19:50:21:314,1.1577,2.8617,12.3865,35.2353,0.8796,-0.0824,-0.4696,254.9688
19:50:21:339,0.704,3.0149,12.9456,34.9257,1.016,-0.0861,-0.5591,255.25
19:50:21:356,0.4634,3.2938,12.2596,35.4351,1.1862,-0.1005,-0.579,255.6562
19:50:21:373,0.3963,3.7834,10.9069,35.197,1.1555,-0.1735,-0.5641,256.25
19:50:21:447,0.2419,4.0743,10.3766,36.0263,0.8472,-0.2217,-0.4869,256.9688
19:50:21:447,0.2431,3.8373,10.9847,34.7458,0.4948,-0.2014,-0.3724,257.7031
19:50:21:448,0.4897,3.076,11.6192,34.8377,0.2956,-0.1721,-0.2754,258.4062
19:50:21:463,1.2176,2.1721,11.4911,34.4852,0.2762,-0.3684,-0.2544,259.0312
19:50:21:473,2.0855,1.8274,10.4879,34.2207,0.2956,-0.6515,-0.3575,259.5156
19:50:21:493,2.453,1.6921,9.4429,35.0388,0.1569,-0.6675,-0.4707,259.8594
19:50:21:515,2.4685,1.3557,9.9696,34.7513,-0.1156,-0.4781,-0.5625,260.75
19:50:21:537,2.2758,0.6626,12.3482,34.1037,-0.2091,-0.1833,-0.6278,261.0625
19:50:21:555,2.2674,-0.1837,13.3669,35.8361,0.1441,-0.1455,-0.7101,261.7188
19:50:21:573,2.787,-0.4447,11.1858,34.0068,0.6096,-0.647,-0.9308,262.4531
19:50:21:593,2.5044,-0.0138,7.9872,34.3166,0.7041,-1.2529,-1.2664,263.2031
19:50:21:614,2.0615,0.5309,6.0084,33.8846,0.4317,-1.5589,-1.4667,264.1406
19:50:21:638,1.4402,1.0624,5.7857,33.9962,0.0908,-1.517,-1.5958,265.5781
19:50:21:657,0.1174,1.1486,6.9601,35.7053,-0.0296,-1.1407,-1.6097,267.4219
19:50:21:674,-0.8355,1.4479,7.9022,33.6974,0.2253,-0.6252,-1.4568,269.4688
19:50:21:699,-0.6152,1.7807,6.2215,33.4121,0.3547,-0.1242,-1.3391,271.4688
19:50:21:712,-1.5801,2.0321,6.9158,35.475,0.4053,-0.7405,-1.1074,273.3906
19:50:21:734,-1.4196,2.663,7.0199,34.6006,0.4754,-0.6345,-0.7122,274.2344
19:50:21:755,-0.9276,2.8306,6.3005,34.4879,0.4746,-0.4627,-0.4126,275.7812
19:50:21:774,-0.4943,2.9443,6.2179,35.3387,0.2597,-0.2576,-0.1764,277.1094
19:50:21:794,-0.292,2.9886,7.0846,36.5067,0.0133,-0.1879,-0.0227,278.0469
19:50:21:814,-0.2214,3.0963,7.9967,36.5067,-0.1095,-0.1303,0.0657,278.6094
19:50:21:840,-0.4572,3.2328,8.2697,36.2168,-0.1638,-0.1282,0.1139,278.875
19:50:21:857,-0.6882,3.4447,8.5307,34.8025,-0.2559,-0.0819,0.1765,278.875
19:50:21:874,-1.0809,3.5524,9.1855,34.3466,-0.3553,0.1094,0.2593,278.7969
19:50:21:894,-1.1264,3.4902,9.7864,36.7584,-0.4136,0.2641,0.4042,278.6875
19:50:21:914,-0.5589,3.222,9.9839,36.6013,-0.4978,0.3517,0.5696,278.4375
19:50:21:939,0.2347,2.736,10.191,35.987,-0.6727,0.3866,0.654,278.0469
19:50:21:960,0.6884,2.2392,11.1367,36.8435,-0.8711,0.4678,0.6199,277.4688
19:50:21:977,0.5604,1.8405,12.2333,37.3173,-0.9673,0.5965,0.4793,276.7031
19:50:21:993,-0.0023,1.4287,13.513,39.0282,-0.9289,0.7467,0.3627,275.9062
19:50:22:013,-0.1579,1.0074,14.5078,36.6885,-0.5886,0.6905,0.3339,275.2031
19:50:22:040,0.1689,0.8901,12.8845,37.0824,-0.0016,0.5307,0.2215,274.6719
19:50:22:057,-0.1088,1.163,9.8152,36.6429,0.3518,0.4593,0.0734,274.1719
19:50:22:073,-1.6842,1.509,7.3336,38.4031,0.212,0.3786,0.1741,273.7656
19:50:22:093,-2.9555,1.4024,7.0929,38.6836,-0.4048,-0.2246,0.5898,273.5625
19:50:22:113,-1.8805,0.7823,9.0035,38.2466,-0.8381,-0.5112,1.1478,273.25
19:50:22:134,-0.019,0.0269,9.9528,38.0775,-0.8429,-0.484,1.4543,272.5938
19:50:22:155,1.4247,-0.246,9.4249,39.6926,-0.5904,-0.2662,1.4769,271.4062
19:50:22:176,2.0196,0.2125,8.2326,40.3557,-0.2738,0.1112,1.3147,269.7969
19:50:22:193,1.5001,0.8362,7.3395,37.5634,-0.0136,0.4881,1.1126,268.1406
19:50:22:214,0.7722,1.57,6.7338,39.3389,0.1337,0.7043,1.0186,267.3594
19:50:22:233,0.1964,2.2081,6.1077,38.6208,0.1065,0.6556,1.0194,266.0156
19:50:22:253,0.4095,2.6067,6.085,39.659,-0.0575,0.4806,1.0924,264.75
19:50:22:273,1.4151,2.8904,6.3519,39.4787,-0.2416,0.454,1.1222,263.5156
19:50:22:293,2.623,2.0273,7.4473,40.0401,-0.2924,0.4617,1.0402,262.3125
19:50:22:313,4.3995,1.9507,8.4935,42.2345,-0.3252,0.6662,0.6647,260.9844
19:50:22:333,2.465,2.463,10.045,41.5948,-0.3651,0.2729,0.2511,259.6875
19:50:22:356,0.9003,2.1853,12.2165,40.4323,-0.2586,0.039,0.1384,258.6406
19:50:22:373,1.8209,2.3781,12.8211,40.1903,0.0655,0.0769,0.1725,258.0938
19:50:22:393,2.6601,2.5397,12.3769,40.6278,0.4525,0.2143,0.0263,257.8125
19:50:22:413,2.6325,2.6821,11.679,41.2445,0.8077,0.6297,-0.313,257.625
19:50:22:442,1.4857,3.1646,11.0146,41.651,0.9912,0.8537,-0.5495,257.5781
19:50:22:461,0.2635,3.9355,10.2533,43.901,0.8525,0.5688,-0.5263,257.8906
19:50:22:481,-0.7193,4.1881,10.0199,42.3541,0.4951,0.0723,-0.3948,258.4531
19:50:22:493,-2.0062,4.2802,10.8375,44.0208,0.1361,0.0079,-0.2459,259
19:50:22:514,-1.1527,3.3788,12.6199,43.672,0.2059,0.2146,0.0758,259.4688
19:50:22:546,2.0017,2.5684,12.1411,43.6734,0.4519,0.1192,0.1091,259.75
19:50:22:560,1.858,2.6737,10.9213,42.8228,0.4282,-0.0909,-0.0211,259.6406
19:50:22:576,1.1864,2.6582,10.6986,44.0781,0.1731,-0.4158,-0.1647,259.5312
19:50:22:600,0.9351,1.485,12.2129,44.2736,-0.1547,-0.4662,-0.3716,259.8281
19:50:22:612,2.0519,0.8625,12.4332,44.0996,-0.2208,-0.3381,-0.5553,259.8281
19:50:22:635,2.3452,0.2783,12.365,45.1803,-0.2152,-0.2534,-0.8651,260.6875
19:50:22:658,1.9011,0.0401,11.7389,46.4762,0.0828,-0.3397,-1.0067,260.9844
19:50:22:677,2.113,0.1071,10.3251,46.5048,0.4834,-0.5381,-1.0941,260.9844
19:50:22:693,1.0344,0.6841,8.8778,44.6366,0.6746,-0.5442,-1.1191,262.3281
19:50:22:713,0.9003,1.5006,7.5263,45.9547,0.6043,-0.1021,-1.0755,263.5312
19:50:22:740,-0.1017,1.7029,6.5243,44.7133,0.3004,0.2742,-0.9426,264.875
19:50:22:758,0.4502,0.9164,6.1652,45.452,-0.143,0.6377,-0.795,266.1875
19:50:22:771,1.4689,2.1279,6.085,46.2495,-0.4748,0.8236,-0.8446,267.4531
19:50:22:791,0.2527,1.9878,5.4505,46.8296,-0.681,0.9424,-0.9356,268.5
19:50:22:811,-0.0813,2.1386,5.6732,46.7509,-1.0019,1.2196,-0.8161,269.2656
19:50:22:831,0.1258,2.5373,6.3424,47.3164,-1.2562,1.3688,-0.8677,270.0781
19:50:22:853,-0.5984,2.0453,7.0499,48.3875,-1.4405,1.6441,-0.9452,270.9688
19:50:22:878,-1.1108,1.8118,7.737,47.2611,-1.4666,1.7136,-0.9388,271.6562
19:50:22:892,-1.1467,1.3055,8.6875,46.379,-1.2197,1.5275,-0.8906,272.3438
19:50:22:912,-1.8482,1.1079,9.2453,47.2106,-0.7039,1.0298,-0.8435,273.0938
19:50:22:932,-2.284,1.0624,10.0773,48.718,-0.0312,0.3213,-0.7031,273.8281
19:50:22:952,-2.2588,1.1103,10.4843,47.7843,0.6666,-0.1506,-0.6065,274.9062
19:50:22:974,-2.8897,1.2061,9.7349,48.8751,1.1542,-0.4182,-0.529,275.7031
19:50:22:994,-3.6343,1.5353,8.4612,50.1978,1.2389,-0.4241,-0.3987,276.4844
19:50:23:020,-4.2424,1.9208,7.8974,48.82,0.9697,-0.3756,-0.239,277.2969
19:50:23:039,-4.4064,2.3936,8.8838,48.4825,0.5896,-0.3325,-0.0693,278.0625
19:50:23:052,-4.021,2.8246,10.4795,50.473,0.3784,-0.3277,0.0684,278.3906
19:50:23:071,-3.5649,3.1083,11.9424,48.9476,0.4013,-0.3234,0.1256,278.9844
19:50:23:092,-3.5373,2.9634,12.4153,49.9088,0.5718,-0.2092,0.1355,279.0781
19:50:23:112,-3.4523,2.9,12.1974,51.0431,0.7489,-0.0446,0.1422,279.0469
19:50:23:132,-3.7887,2.7216,11.5605,49.356,0.8698,-0.1852,0.1264,279
19:50:23:155,-3.5505,2.4283,11.515,50.9902,0.9364,-0.6398,0.1698,278.9531
19:50:23:171,-2.9759,2.3768,11.709,50.6833,1.0541,-1.2816,0.2332,278.9375
19:50:23:191,-1.7704,2.244,11.7521,51.0421,1.1843,-1.6206,0.1999,278.9531
19:50:23:211,-1.0138,1.74,11.2612,49.4748,1.2461,-1.3703,0.1006,278.9844
19:50:23:232,-0.3075,1.3653,9.8367,49.9937,1.1904,-0.819,0.038,279.0938
19:50:23:252,0.0552,1.1007,8.0506,51.7265,0.967,-0.5945,-0.0342,279.3125
19:50:23:271,-0.3734,1.2791,6.9409,50.8745,0.7318,-0.1202,-0.1375,279.5312
19:50:23:292,-0.7289,1.7616,6.0275,51.1266,0.5374,0.3568,-0.1985,279.75
19:50:23:312,-1.3586,2.4702,5.3667,49.6608,0.3459,0.5328,-0.1918,279.9844
19:50:23:333,-2.1547,2.8856,4.9884,51.0244,0.0975,0.4753,-0.1047,280.2188
19:50:23:355,-2.8406,2.9862,4.8987,51.9443,-0.2506,0.1911,0.1041,280.375
19:50:23:374,-2.5234,2.906,5.4314,51.7301,-0.6543,-0.1186,0.4367,280.4531
19:50:23:392,-0.4907,2.3529,6.7003,50.8186,-0.9707,-0.0472,0.6591,280.2656
19:50:23:413,-0.0262,2.6989,7.8746,51.5126,-1.0815,0.1903,0.5696,280.0625
19:50:23:431,-0.2561,2.9455,8.5319,49.7015,-0.9726,0.2976,0.4814,279.3438
19:50:23:452,-0.1627,2.9598,8.4564,51.3682,-0.7364,0.2699,0.4583,278.5
19:50:23:495,-0.2441,3.2256,8.4924,52.5244,-0.4498,0.3799,0.4356,277.7812
19:50:23:496,0.2156,3.9032,8.053,50.9938,-0.2152,0.4207,0.3749,277.1406
19:50:23:511,0.0253,4.0109,7.7825,51.2149,-0.1204,0.153,0.1246,276.5156
19:50:23:532,-0.7768,3.5728,8.0171,51.3447,-0.1523,-0.2086,-0.0994,275.9375
19:50:23:551,-1.4424,3.0257,9.5674,52.5579,-0.278,-0.4662,-0.1521,275.5938
19:50:23:571,-1.4927,2.6665,11.8119,52.4684,-0.3081,-0.3066,-0.0581,275.5938
19:50:23:591,-0.9384,2.6917,12.6343,50.667,-0.1593,0.1988,0.0604,275.7969
19:50:23:612,-0.1543,3.0831,11.3079,51.6774,0.049,0.4654,0.0676,275.9688
19:50:23:633,-0.1579,3.3106,9.7122,52.2802,0.0847,0.2534,-0.1135,275.9531
19:50:23:653,-2.0409,2.5923,9.8271,50.7388,-0.0892,-0.2329,-0.2842,275.7344
19:50:23:671,-3.2381,1.7208,11.2193,53.7332,-0.2844,-0.4371,-0.0808,275.8125
19:50:23:692,-2.503,1.8789,12.6547,51.0964,-0.3079,-0.288,0.3523,276.1719
19:50:23:712,-0.9935,2.7276,12.9085,52.4276,-0.1278,-0.166,0.5952,276.2969
19:50:23:733,0.1402,3.2531,12.45,52.6067,0.0589,-0.2667,0.5145,275.9375
19:50:23:755,0.1521,3.1633,12.2991,51.8338,0.1097,-0.4137,0.2982,275.2656
19:50:23:773,-0.1663,2.6953,12.6343,53.0972,0.0442,-0.4622,0.1603,274.7344
19:50:23:800,-0.0621,2.1219,13.501,52.1871,0.0104,-0.3234,0.1712,274.4531
19:50:23:811,0.9925,1.7125,13.0449,51.3928,0.1811,-0.0278,0.2439,274.3594
19:50:23:832,2.2315,1.8226,11.011,49.7725,0.4187,0.0454,0.1914,274.2031
19:50:23:854,2.3177,2.0189,8.9317,52.1966,0.543,-0.1452,-0.0323,273.9375
19:50:23:872,1.8293,1.8166,7.6292,51.3293,0.5252,-0.4217,-0.2592,273.8125
19:50:23:892,0.7675,1.8142,6.838,51.3293,0.3784,-0.598,-0.4206,273.7656
19:50:23:912,0.145,1.9435,6.577,50.5507,0.1055,-0.5421,-0.4898,274.0156
19:50:23:932,0.1964,2.0812,6.8655,50.6724,-0.2727,-0.2566,-0.5319,274.5312
19:50:23:956,-0.122,2.2476,8.1488,49.005,-0.5822,0.1139,-0.5939,275.4844
19:50:23:975,-0.6799,2.1434,8.46,50.5605,-0.5997,0.3983,-0.6033,276.125
19:50:23:999,-1.0497,2.5181,8.4433,51.5272,-0.1862,0.8215,-0.325,277.3125
19:50:24:015,-0.5135,2.9108,7.7873,50.189,0.1265,0.7658,-0.2533,277.3125
19:50:24:033,-0.0478,3.0879,7.6915,49.6278,0.2778,0.5965,-0.2632,277.7656
19:50:24:053,-0.1376,3.0831,7.9177,50.4877,0.2988,0.5831,-0.3306,278.1719
19:50:24:072,-0.7541,2.8737,8.1799,48.7641,0.265,0.7656,-0.3425,278.4062
19:50:24:091,-1.2257,2.6642,8.0398,50.124,0.2661,0.907,-0.2416,278.4062
19:50:24:112,-1.859,2.894,8.0027,48.3531,0.253,0.866,-0.0627,278.5625
19:50:24:133,-2.1032,3.295,7.8519,50.9313,0.2647,0.7594,0.1781,279.0312
19:50:24:154,-1.8434,3.7978,7.9094,49.4591,0.2631,0.4162,0.3944,279.1719
19:50:24:180,-1.0222,4.2276,8.7437,49.3912,0.2362,-0.1434,0.5509,279.1406
19:50:24:191,0.0169,4.3628,9.7242,49.0743,0.2394,-0.6528,0.6055,278.8438
19:50:24:211,0.5161,4.3557,10.7465,48.1245,0.294,-0.8438,0.5632,278.3906
19:50:24:231,0.0707,4.5436,11.0266,47.8838,0.4035,-0.651,0.4953,277.8125
19:50:24:255,-0.3674,4.698,10.968,49.3081,0.5308,-0.3642,0.4077,277.2656
19:50:24:271,-0.9516,4.7627,10.5657,47.9517,0.6253,-0.2941,0.2212,276.8281
19:50:24:292,-1.2066,4.0564,10.0163,49.2857,0.5694,-0.4664,-0.0147,276.4375
19:50:24:311,-1.6591,2.6091,10.5454,48.4616,0.3566,-0.7346,-0.1447,276.0938
19:50:24:332,-2.7496,1.6215,11.7233,47.0324,0.1827,-0.7154,-0.0168,275.9531
19:50:24:354,-3.3218,1.5353,12.1734,48.6359,0.2011,-0.2766,0.3541,276.125
19:50:24:374,-2.7568,1.9327,10.4724,48.6372,0.3625,0.3751,0.7126,276.4844
19:50:24:391,-2.0314,2.5145,8.2086,47.6727,0.3862,0.6694,0.8769,276.6562
19:50:24:412,-1.8063,2.9969,7.2246,48.3851,0.2578,0.4638,0.8482,275.9844
19:50:24:432,-2.0733,3.0819,7.2414,48.8982,0.1739,0.1016,0.7294,274.9375
19:50:24:457,-2.3725,2.7946,7.1181,47.4932,0.1249,-0.1751,0.6399,273.8125
19:50:24:474,-2.4025,2.2356,7.0905,47.2762,-0.008,-0.3338,0.6516,272.9062
19:50:24:492,-1.8171,1.9555,7.5826,46.961,-0.1659,-0.4148,0.7523,272.1562
19:50:24:515,-0.7517,1.9722,8.3607,47.145,-0.2165,-0.4209,0.7994,271.5
19:50:24:531,-0.0095,2.0572,8.4145,47.3017,-0.1039,-0.2526,0.7403,270.8125
19:50:24:555,-0.013,1.9327,7.494,47.3189,0.0711,0.0686,0.6426,270
19:50:24:577,0.0384,2.1686,5.9066,48.9678,0.1457,0.2705,0.6335,269.1875
19:50:24:598,0.0229,2.7731,4.8292,46.8648,0.0767,0.3365,0.6178,268.4219
19:50:24:611,0.3473,3.4566,4.5311,48.8903,-0.0914,0.3046,0.5384,267.7031
19:50:24:633,0.2288,3.8541,4.8352,46.5387,-0.2794,0.3725,0.3821,266.9062
19:50:24:657,-0.8295,3.6721,5.1704,47.9261,-0.494,0.5232,0.2655,266.1562
19:50:24:676,-1.6076,3.4937,5.9317,47.11,-0.7657,0.6454,0.3488,265.5625
19:50:24:693,-1.4771,3.8613,7.4832,47.3141,-0.9774,0.6497,0.6167,265.0938
19:50:24:717,-0.6858,3.9929,8.9568,47.2277,-1.0962,0.708,0.7454,264.8594
19:50:24:740,0.9745,3.8792,10.3287,48.2661,-1.1289,0.7645,0.7278,263.9062
19:50:24:758,0.9327,4.795,11.1104,46.6865,-1.0986,0.6284,0.6319,262.875
19:50:24:774,2.0699,4.2276,12.1004,46.7431,-1.0109,0.255,0.4527,261.8125
19:50:24:792,2.2148,3.5081,12.0705,47.4202,-0.8187,-0.0715,0.1419,260.8125
19:50:24:812,2.125,2.8808,11.2768,47.6254,-0.7617,-0.5165,-0.0416,260.0312
19:50:24:832,-0.1388,2.9144,10.5358,46.869,-0.8583,-0.3948,-0.0509,259.625
19:50:24:856,1.1852,2.9946,9.7086,46.6522,-1.1811,-0.0302,0.1403,259.5625
19:50:24:874,1.2403,2.5253,10.956,47.25,-1.4232,-1.3082,0.1853,259.7031
19:50:24:891,3.1664,1.6993,11.9244,48.2283,-1.4184,-2.0795,0.0385,259.5781
19:50:24:912,5.338,2.0153,15.1147,45.9431,-1.4024,-2.4595,-0.2579,259.3594
19:50:24:932,3.9134,0.1467,17.9123,44.7907,-1.131,-1.2768,-0.9559,259.3438
19:50:24:957,1.1673,-1.242,15.0393,46.7966,-0.7193,-1.0323,-0.88,259.625
19:50:24:976,1.6653,-0.3669,13.0964,45.7997,0.3513,-1.7064,-0.8704,260.4688
19:50:24:993,1.779,-0.4304,8.97,46.2324,0.7103,-1.6361,-0.9868,261.7031
19:50:25:014,1.4654,0.981,6.9924,46.0067,0.0146,-1.4425,-0.9833,263.25
19:50:25:032,1.0045,0.1538,7.3216,45.5163,-0.6714,-1.6952,-0.9138,264.4531
19:50:25:058,2.6062,0.076,7.1803,44.9586,-1.1545,-2.1602,-0.726,265.6875
19:50:25:074,3.7973,-0.5058,7.2881,46.2963,-1.3766,-2.1929,-0.783,266.8438
19:50:25:093,3.9529,-0.9499,8.6348,45.437,-1.3561,-1.606,-0.9644,267.9375
19:50:25:112,4.0619,-0.6135,9.3351,45.8373,-1.0852,-0.7018,-1.1308,269.125
19:50:25:132,3.0731,-0.2664,8.1751,46.3646,-0.7742,-0.1652,-1.1825,270.4375
19:50:25:158,1.8353,0.5908,8.7066,43.1734,-0.4922,0.7664,-1.0651,271.9219
19:50:25:174,1.536,0.8266,9.9241,45.9359,0.0189,2.0825,-0.8573,273.4219
19:50:25:192,1.5575,0.9379,8.2817,45.4856,0.6599,3.7968,-0.7095,274.7031
19:50:25:212,3.0408,1.4156,6.3316,44.1257,0.689,3.0399,-0.4107,275.1719
19:50:25:231,2.4554,1.8537,6.9601,45.7779,0.5742,0.185,-0.6126,275.9531
19:50:25:259,-0.2561,1.7089,7.7609,43.6631,0.1111,-0.2201,-1.096,276.4219
19:50:25:278,-0.7589,2.2583,9.9361,44.0947,-0.2005,-0.8007,-0.9114,276.7656
19:50:25:296,-1.6052,2.3074,11.7844,43.0584,-0.1875,-0.9077,-0.6025,277.8125
19:50:25:315,-1.3442,2.7683,13.0868,44.0534,0.0125,-0.1365,-0.1258,279.5469
19:50:25:331,-0.6834,2.4415,13.1419,42.8733,0.3246,0.6146,0.279,280.2656
19:50:25:352,-0.2824,1.7747,12.8941,45.5846,0.5182,0.8359,0.4934,280.4062
19:50:25:373,-0.9995,0.829,10.9716,43.4902,0.2996,-0.006,0.4458,280.0469
19:50:25:393,-0.4644,1.2971,10.9356,43.542,0.1105,-0.1935,0.5938,280.0469
19:50:25:412,1.2056,0.4759,10.2844,43.3985,-0.0123,0.0612,0.6231,279.4375
19:50:25:432,2.1501,-0.4675,9.8427,42.7772,-0.0421,0.1935,0.5179,278.2812
19:50:25:459,2.6936,-0.6722,10.6627,41.6857,-0.0415,0.2867,0.369,277.5938
19:50:25:475,1.5803,-0.8194,12.098,42.5517,0.0759,0.6018,0.2447,276.9219
19:50:25:493,0.8429,-1.218,11.5737,43.4881,0.2599,0.8612,0.181,276.3125
19:50:25:511,1.0512,-1.4192,9.8726,42.1129,0.3686,0.6028,0.1086,275.8906
19:50:25:572,0.7866,-1.0086,8.4971,43.5735,0.3662,-0.1495,0.1134,275.5781
19:50:25:573,0.3413,-0.349,7.251,42.4345,0.3925,-0.5375,0.2939,275.3125
19:50:25:573,0.2467,-0.0712,6.1496,43.7468,0.2706,-0.2643,0.5507,275.0781
19:50:25:593,0.9949,-0.4016,6.3567,41.0152,-0.1033,0.1538,0.8199,274.8906
19:50:25:610,1.7802,-0.683,7.7262,42.6615,-0.3827,0.4585,0.9424,274.4375
19:50:25:631,1.6246,-0.7476,9.1292,41.8296,-0.3441,0.3464,0.8724,274.0781
19:50:25:655,1.6437,-0.3513,9.0526,41.9891,-0.0432,0.1975,0.7669,273.1406
19:50:25:675,1.694,0.2113,7.8304,42.2626,0.2181,0.0944,0.6985,272.0938
19:50:25:692,1.7,0.6734,6.9804,42.7802,0.2429,0.1461,0.679,271.0781
19:50:25:711,2.1717,0.908,6.9613,40.9222,0.1856,0.3024,0.6327,270.2031
19:50:25:731,1.9454,1.4539,6.5327,42.8637,0.1878,0.4452,0.4668,269.4219
19:50:25:756,1.7563,1.9339,7.1348,42.2549,0.0594,0.4902,0.5121,268.625
19:50:25:776,1.7658,1.9734,8.1308,41.6865,0.0216,0.6614,0.5288,267.875
19:50:25:792,1.281,2.0788,8.9437,41.1547,0.0796,0.8191,0.3941,267.2969
19:50:25:811,-0.2501,2.2787,9.4907,42.1145,0.2277,0.7104,0.4002,266.7031
19:50:25:832,-0.7529,3.4267,9.7194,41.5116,0.3838,0.8769,0.3805,265.5469
19:50:25:857,-1.5621,2.8784,9.3722,41.1177,0.3665,1.2114,0.5403,265.3125
19:50:25:875,-0.517,2.9838,9.2441,41.899,0.2514,1.3171,0.7454,264.7969
19:50:25:891,-0.1328,2.8712,9.213,41.2228,0.0461,1.1746,0.7334,264.25
19:50:25:911,0.218,2.6498,10.0067,40.4675,-0.1491,0.8739,0.613,263.375
19:50:25:931,0.5616,2.5648,11.0913,41.2196,-0.2535,0.3232,0.3837,262.4531
19:50:25:958,0.4383,2.7515,12.0322,39.5697,-0.2831,-0.1447,0.1512,261.5625
19:50:25:973,0.0205,2.56,12.9312,41.3516,-0.2232,-0.5152,-0.0003,260.9219
19:50:25:991,0.1988,2.1159,12.8881,41.3516,-0.1209,-0.9237,-0.0254,260.6094
19:50:26:011,0.7327,1.8837,13.9164,42.6869,-0.0392,-1.4092,-0.0155,260.5469
19:50:26:032,1.5456,1.8549,14.2947,42.2076,0.2109,-1.0329,-0.1825,260.6406
19:50:26:056,1.8784,1.8322,12.4308,39.4702,0.5007,-0.2925,-0.432,260.7344
19:50:26:077,1.6389,1.728,10.0905,40.9275,0.5204,0.0066,-0.5439,260.9219
19:50:26:093,1.5037,1.9363,8.8515,40.9275,0.2557,-0.0022,-0.5759,261.3281
19:50:26:111,1.4893,1.8729,8.9018,40.9227,-0.0988,0.006,-0.5314,261.9219
19:50:26:133,1.4462,1.6837,9.9384,40.2859,-0.3289,0.1586,-0.4802,262.2188
19:50:26:158,1.0141,1.3641,11.4157,41.682,-0.3659,0.5869,-0.3793,263.1875
19:50:26:175,0.5424,1.0588,12.6846,41.7289,-0.1433,0.961,-0.1964,263.7656
19:50:26:194,0.71,0.6614,12.3039,41.055,0.2471,1.1626,-0.0589,264.2031
19:50:26:210,0.9793,0.568,10.3742,42.9125,0.5084,1.1632,-0.0896,264.4688
19:50:26:231,0.6657,0.8446,8.3439,41.0368,0.4924,1.0604,-0.2882,264.5
19:50:26:251,-0.1136,1.0589,6.9852,42.2446,0.3284,0.7863,-0.4917,264.4844
19:50:26:273,-1.1539,1.3833,6.3244,40.8498,0.1401,0.251,-0.5969,264.6094
19:50:26:291,-1.9308,1.5317,7.397,42.2968,-0.025,-0.2297,-0.5284,265
19:50:26:311,-1.5908,1.4647,8.2182,42.0093,-0.0091,-0.2941,-0.3694,265.6094
19:50:26:332,-1.3347,1.1618,8.3547,43.3832,0.1955,-0.5375,-0.2709,266.2656
19:50:26:358,-0.5051,1.6155,8.3882,42.088,0.4328,-0.6694,-0.3141,266.7812
19:50:26:376,-0.5194,1.7939,7.7657,42.1271,0.6256,-0.6481,-0.4384,267.1875
19:50:26:393,-0.8642,1.7544,7.166,42.0489,0.6969,-0.5383,-0.4691,267.5938
19:50:26:418,-1.021,1.7436,7.1492,41.404,0.649,-0.1929,-0.3271,268.4375
19:50:26:430,-0.6176,1.8908,7.2725,42.808,0.5617,0.2076,-0.1607,269.0781
19:50:26:451,-0.8558,1.6777,7.6975,42.2893,0.4168,0.5222,-0.1045,269.5
19:50:26:473,-1.3035,1.0612,8.8515,42.0547,0.216,0.7235,0.042,269.6875
19:50:26:490,-0.8965,0.9475,10.0115,42.8293,0.0639,0.5743,0.1749,269.7656
19:50:26:511,-0.7924,1.3186,10.5286,42.5687,-0.0868,0.3024,0.0902,269.625
19:50:26:534,-1.6842,0.7416,11.1583,42.4303,-0.2692,0.2034,0.0703,269.3594
19:50:26:558,-1.5956,1.1486,11.2146,42.1826,-0.3452,0.1733,0.1749,269.2188
19:50:26:575,-1.3969,1.1558,9.9384,42.8664,-0.4048,0.0263,0.1728,269.0781
19:50:26:592,-1.2628,0.8697,9.0334,43.0814,-0.6741,-0.0318,0.2125,268.8438
19:50:26:611,-0.6954,0.896,9.2106,43.0416,-1.056,-0.0432,0.2684,268.7188
19:50:26:631,-0.4608,0.562,10.4113,43.6338,-1.3545,0.1048,0.2774,268.4688
19:50:26:657,-0.116,0.0581,11.9795,43.892,-1.3795,0.2236,0.2314,268.1094
19:50:26:674,0.1102,0.0293,12.359,44.936,-1.0535,0.153,0.0303,267.7188
19:50:26:690,-0.1914,0.3741,11.0027,42.918,-0.599,0.0657,-0.2928,267.2656
19:50:26:715,-1.1048,1.0948,9.8594,44.174,-0.2253,-0.0558,-0.4555,266.9375
19:50:26:730,-2.3271,1.1271,8.4612,44.4541,-0.1156,0.1701,-0.2472,267.2031
19:50:26:752,-2.6215,1.1522,8.1823,43.8791,-0.3414,0.438,0.1408,267.7188
19:50:26:775,-2.3917,0.738,9.1029,42.4134,-0.6306,0.4524,0.5211,267.9688
19:50:26:792,0.115,0.3454,8.9042,44.174,-0.8163,-0.3852,0.7453,267.7656
19:50:26:818,0.5592,0.6423,8.2314,43.3556,-0.8045,-0.8973,0.5217,266.1094
19:50:26:830,0.23,0.6686,7.6747,44.7959,-0.7111,-1.1277,0.3387,266.1094
19:50:26:852,0.5711,1.6418,7.9094,44.7119,-0.5987,-1.0851,0.2905,264.5938
19:50:26:876,1.0141,1.9722,8.4948,44.0916,-0.3425,-0.7961,0.168,264.5938
19:50:26:890,0.3257,1.7101,8.2362,44.1407,-0.0141,-0.2962,0.139,263.8125
19:50:26:910,-1.288,1.5221,7.6328,44.0959,0.1401,0.2809,0.2932,263.8125
19:50:26:933,-1.4209,1.6215,7.81,44.2492,0.1124,0.5895,0.6189,263.4531
19:50:26:958,-0.6404,1.9315,9.3363,45.389,0.114,0.7,0.894,263.125
19:50:26:977,-0.2345,2.1518,9.9636,45.4403,0.3161,0.6526,1.0695,262.8281
19:50:26:995,-0.1914,1.7484,10.5466,44.2662,0.4583,0.2971,1.0564,261.9844
19:50:27:017,-0.28,0.4591,11.8442,45.1333,0.4828,0.3064,0.9555,260.8438
19:50:27:029,0.1474,0.501,11.6,45.3461,0.4605,0.2316,0.8002,260.2188
19:50:27:053,0.9171,1.3605,11.0374,44.5618,0.4591,-0.4443,0.5251,259.0469
19:50:27:074,1.1912,1.6849,11.1092,45.7789,0.2948,-0.9525,0.1813,258.0312
19:50:27:092,0.9327,1.7807,11.527,45.6285,-0.0498,-0.5674,-0.1575,257.1406
19:50:27:110,-0.2202,1.3198,12.2608,48.0484,-0.2144,-0.4971,-0.2922,256.5938
19:50:27:133,-0.3123,1.1977,12.9192,45.838,-0.2149,-0.6289,-0.2416,256.4688
19:50:27:158,0.382,1.0708,12.5697,46.0963,-0.1987,-0.6683,-0.187,256.6719
19:50:27:175,1.1026,0.5034,12.2022,47.27,-0.3071,-0.4718,-0.1934,257.0156
19:50:27:195,1.3181,-0.3669,12.9516,47.1584,-0.3638,-0.0707,-0.2091,257.2812
19:50:27:212,1.6306,-0.896,13.1335,46.5517,-0.1627,0.3522,-0.281,257.75
19:50:27:230,1.87,-0.3645,12.3937,46.8083,0.2565,0.4111,-0.5617,257.9688
19:50:27:250,1.6904,0.0605,11.4252,47.7675,0.804,0.2859,-0.9718,258.0938
19:50:27:273,0.279,-0.8601,9.881,46.5619,1.1116,0.528,-1.1031,258.5312
19:50:27:292,0.6382,0.167,8.3535,47.3766,0.9473,1.1014,-1.0254,259.4219
19:50:27:310,0.1952,0.4304,7.9561,46.3305,0.6219,1.2271,-1.0142,260.7031
19:50:27:330,-0.0909,0.4399,7.7597,48.049,0.2349,0.9437,-1.0608,261.875
19:50:27:350,-0.4727,0.3861,7.5706,47.3436,-0.0333,0.34,-1.1378,263.0156
19:50:27:375,-0.2621,0.665,8.0243,49.0728,-0.1625,-0.1056,-1.1287,264.1562
19:50:27:393,-0.4261,0.6506,8.5043,48.3272,-0.1119,-0.117,-1.0965,265.3281
19:50:27:411,-0.3925,0.8398,8.5079,47.4788,0.0671,-0.0624,-1.1029,266.625
19:50:27:434,-0.7936,0.847,8.5917,47.5418,0.3302,-0.113,-1.1008,267.8906
19:50:27:458,-1.264,0.8098,8.5474,47.8891,0.6125,-0.1793,-0.9716,269.0781
19:50:27:475,-1.3766,0.9236,8.2086,48.4205,0.8474,-0.2784,-0.7311,270.375
19:50:27:492,-0.9624,0.9523,7.4102,48.4194,0.906,-0.3199,-0.4765,271.6406
19:50:27:511,-0.6655,1.0995,7.1552,48.9745,0.7449,-0.2885,-0.2752,272.2031
19:50:27:531,-0.8666,0.9523,7.2881,50.6537,0.4823,-0.2214,-0.0797,273.4688
19:50:27:560,-0.6236,0.8074,7.9908,48.6248,0.1723,-0.214,0.0878,274
19:50:27:575,-0.3866,0.5345,9.3746,49.9618,-0.0698,-0.1354,0.1366,274.2812
19:50:27:651,-0.3614,0.0832,10.6064,48.7613,-0.1095,-0.1695,0.1011,274.3125
19:50:27:652,-0.3494,-0.2245,11.1643,48.9773,-0.0053,-0.3242,-0.0102,274.1875
19:50:27:652,-0.6487,-0.1634,11.345,48.7595,0.1292,-0.3964,-0.1705,274.0469
19:50:27:653,-1.1922,0.0138,10.9201,49.3364,0.2655,-0.3791,-0.3138,274
19:50:27:669,-1.8925,0.0425,10.1587,48.6306,0.3041,-0.329,-0.313,274.1406
19:50:27:694,-1.9404,0.2053,9.3974,49.0542,0.2336,-0.4419,-0.2661,274.4844
19:50:27:710,-2.0062,0.519,8.8647,51.2924,0.0442,-0.5682,-0.2435,274.9219
19:50:27:730,-2.363,0.7835,8.3331,51.2877,-0.2906,-0.4715,-0.0888,275.2812
19:50:27:750,-2.4575,1.1391,8.6719,49.1752,-0.7838,-0.137,0.2316,275.6406
19:50:27:775,-2.2552,0.7811,10.3479,50.5045,-1.2743,0.2699,0.6069,275.9062
19:50:27:793,-1.6543,-0.2484,12.2872,50.0147,-1.4589,0.3197,0.8394,275.6406
19:50:27:815,-0.5374,-0.3059,12.9551,51.0014,-1.1904,-0.1937,0.7363,274.8594
19:50:27:829,-0.1842,0.2532,12.4105,49.6825,-0.6858,-0.594,0.4905,273.7812
19:50:27:850,-0.9564,0.3741,11.0937,49.3603,-0.2434,-0.4742,0.4154,272.9375
19:50:27:874,-1.543,0.2688,9.4895,50.4781,-0.0346,-0.1162,0.5709,272.375
19:50:27:891,-1.3383,0.2388,8.4708,49.8077,-0.1007,0.2526,0.7811,271.9062
19:50:27:910,-0.8091,0.0293,7.9034,49.5106,-0.3113,0.2801,0.9456,271.2812
19:50:27:931,0.3521,0.009,7.7454,49.7286,-0.5238,-0.0358,1.0154,270.375
19:50:27:950,1.3876,0.0664,8.0135,49.6269,-0.6112,-0.3341,0.9283,269.2656
19:50:27:976,1.6006,0.1562,8.1045,49.5515,-0.5033,-0.4243,0.7025,268.6719
19:50:27:992,1.3469,0.5609,8.1248,52.0431,-0.2637,-0.3226,0.4908,267.5781
19:50:28:014,0.9051,0.9798,7.6903,50.2865,-0.0037,-0.1154,0.3877,266.625
19:50:28:030,0.6023,1.2528,7.0307,49.2954,0.1209,0.0582,0.3832,265.9375
19:50:28:050,0.613,1.4132,7.1337,49.6813,0.0501,0.1059,0.4196,265.4531
19:50:28:075,0.522,1.5784,7.719,51.1947,-0.1241,0.0068,0.4367,264.8281
19:50:28:090,0.4945,1.6981,8.9245,51.1947,-0.2802,-0.0472,0.4926,264.3438
19:50:28:110,0.5292,1.6287,10.4987,50.8927,-0.3172,0.0012,0.5254,263.875
19:50:28:130,0.2084,1.6909,11.5054,50.6355,-0.184,0.0129,0.4615,263.2969
19:50:28:150,-0.1747,1.6275,11.7281,50.9739,0.0661,-0.0965,0.4444,262.6875
19:50:28:173,0.2958,1.4335,11.2948,52.8956,0.3372,-0.235,0.5238,262.1562
19:50:28:191,2.4254,1.0828,9.9289,51.7923,0.5244,-0.4281,0.4569,261.6719
19:50:28:210,2.9617,0.9212,10.476,51.405,0.4487,-0.3261,0.2082,261.0781
19:50:28:230,2.9127,0.8266,11.4121,51.2724,0.4517,-0.1602,-0.0821,260.4531
19:50:28:252,2.5116,0.6099,11.758,50.7441,0.5822,-0.072,-0.3172,259.75
19:50:28:275,2.295,0.6315,11.3642,51.6281,0.6722,-0.0677,-0.4957,259.8594
19:50:28:295,2.0376,0.6853,10.8387,51.5494,0.5859,-0.0374,-0.5908,259.8594
19:50:28:311,2.0065,0.7237,10.9632,51.8054,0.3023,0.1224,-0.6067,260.2344
19:50:28:331,2.0795,0.5549,12.0801,50.9004,-0.0011,0.3461,-0.6504,261.4688
19:50:28:350,2.0879,0.1873,13.4807,51.1397,-0.0671,0.4292,-0.7971,261.8125
19:50:28:375,1.6617,0.0317,13.7045,51.1229,0.1664,0.2851,-1.0153,262.1562
19:50:28:391,0.7878,0.2688,12.1627,50.3396,0.4693,0.0417,-1.1492,262.8438
19:50:28:409,0.0935,0.7512,10.1898,50.8878,0.5201,-0.0403,-1.0946,264.2656
19:50:28:429,-0.2142,0.8936,9.1388,50.637,0.3228,0.0199,-0.9063,264.875
19:50:28:449,-0.013,0.8757,8.9592,51.8034,0.0668,0.0865,-0.7117,266.1406
19:50:28:476,0.4131,0.7715,9.3686,49.3255,-0.0961,0.1488,-0.5913,267.4219
19:50:28:491,0.4694,0.5956,9.8894,51.1474,-0.0645,0.1709,-0.5868,268.4688
19:50:28:511,0.2778,0.732,9.9983,51.0716,0.1478,0.1541,-0.6541,269.2656
19:50:28:530,-0.2261,1.0002,9.456,49.5427,0.4402,0.1557,-0.7135,269.9062
19:50:28:549,-0.8044,1.3294,8.5199,51.5593,0.6988,0.1248,-0.7284,270.5625
19:50:28:573,-1.2341,1.5401,7.3946,50.338,0.8328,0.0827,-0.6368,271.2969
19:50:28:592,-1.3538,1.6406,6.4501,50.6779,0.7968,0.005,-0.4818,272.0781
19:50:28:610,-1.0821,1.6682,6.0682,50.8476,0.6349,-0.1924,-0.3375,272.9375
19:50:28:630,-0.5218,1.6741,6.3172,50.187,0.4402,-0.4068,-0.2456,273.7031
19:50:28:650,-0.2573,1.6071,6.905,48.8343,0.3001,-0.448,-0.2057,274.5
19:50:28:675,-0.2477,1.5952,7.8734,48.5679,0.2527,-0.292,-0.1886,274.8906
19:50:28:694,-0.4775,1.5664,8.5187,50.571,0.3081,0.0012,-0.1519,275.2031
19:50:28:713,-0.6296,1.5353,8.6025,50.6985,0.4043,0.2697,-0.072,275.4688
19:50:28:729,-0.7457,1.4491,8.2266,50.1852,0.4109,0.4356,0.0447,275.7031
19:50:28:750,-0.511,1.4323,8.2565,49.4026,0.2133,0.4953,0.1688,275.8281
19:50:28:774,-0.1747,1.1043,9.0275,50.1823,-0.0711,0.4332,0.2346,275.8281
19:50:28:793,0.224,0.841,10.0594,49.099,-0.29,0.2761,0.2077,275.6562
19:50:28:809,0.4191,0.7979,10.8506,49.3187,-0.3566,0.1552,0.107,275.3438
19:50:28:830,0.0995,0.6518,10.9165,49.7936,-0.294,0.0947,-0.0107,275.0312
19:50:28:850,-0.5805,0.6303,10.1635,48.081,-0.2573,0.034,-0.0736,274.8125
19:50:28:876,-0.8762,0.6937,9.2393,49.2955,-0.4264,0.0343,-0.0078,274.7188
19:50:28:892,-1.1311,0.6303,9.0382,49.3562,-0.84,0.0542,0.1387,274.75
19:50:28:911,-0.9851,0.5369,10.3048,50.8155,-1.3553,0.0976,0.3203,274.7969
19:50:28:930,-0.4979,-0.0269,12.6044,49.4027,-1.6442,0.1293,0.417,274.5469
19:50:28:952,-0.1004,-0.5596,14.2312,48.5819,-1.4597,0.0782,0.3675,274.3438
19:50:28:974,-0.134,-0.1383,13.829,47.7862,-0.8623,-0.1144,0.1682,273.7969
19:50:28:991,-1.3586,0.41,11.7712,48.3268,-0.2562,-0.1924,0.0228,273.25
19:50:29:016,-2.667,0.7332,9.3423,48.0624,-0.0085,-0.0086,0.1914,272.8594
19:50:29:029,-2.928,0.8266,7.8735,48.0016,-0.1334,0.2074,0.5818,272.7656
19:50:29:050,-2.041,0.6482,7.6185,48.2875,-0.4663,0.2673,0.9531,272.6875
19:50:29:076,-0.6068,0.4627,8.4026,48.0668,-0.7473,0.0404,1.0671,272.25
19:50:29:094,0.0408,0.3322,9.2621,49.2389,-0.7859,-0.3519,0.9259,271.3281
19:50:29:111,0.1665,0.5525,9.4405,48.4933,-0.5587,-0.6124,0.776,270.125
19:50:29:133,0.0971,0.8709,8.6994,48.062,-0.2152,-0.6118,0.6947,268.9219
19:50:29:148,0.1294,1.1103,7.6173,47.9834,0.0405,-0.4409,0.6798,267.9375
19:50:29:169,0.1402,1.2444,6.8811,46.9751,0.1273,-0.263,0.6857,267.0938
19:50:29:193,0.2264,1.3928,6.6871,48.0929,0.0738,-0.1402,0.6924,266.375
19:50:29:209,0.4227,1.4898,7.2234,46.443,-0.0565,-0.0414,0.707,265.2031
19:50:29:229,0.5364,1.4946,8.296,47.9058,-0.1667,-0.0081,0.6796,264.4219
19:50:29:250,0.4287,1.4946,9.456,47.5151,-0.2043,-0.0259,0.6194,263.6406
19:50:29:276,0.2898,1.5281,10.5921,47.2881,-0.1446,-0.0624,0.584,262.8594
19:50:29:292,0.3209,1.4838,11.2182,45.4394,0.0418,-0.1343,0.5581,262.1562
19:50:29:309,0.5257,1.5508,11.0733,46.9541,0.306,-0.2299,0.5027,261.5156
19:50:29:329,0.7136,1.6382,10.2473,46.662,0.5257,-0.2952,0.4436,260.875
19:50:29:350,0.8118,1.7592,9.3591,47.5155,0.5768,-0.3434,0.38,260.3125
19:50:29:376,0.7878,1.9124,9.3531,46.2909,0.4296,-0.3386,0.3206,259.8438
19:50:29:392,0.9099,1.8693,10.3838,47.6645,0.2133,-0.2848,0.275,259.4375
19:50:29:410,1.0165,1.5125,12.0753,46.5831,0.126,-0.1988,0.196,259.0938
19:50:29:434,0.6334,1.1271,12.8965,45.8257,0.289,-0.207,0.0697,258.9375
19:50:29:459,0.9781,1.6586,11.788,46.0986,0.5175,-0.3644,0.0151,258.5312
19:50:29:472,1.0811,1.5329,11.296,46.4958,0.3763,-0.4089,0.0817,258.5156
19:50:29:496,1.6952,1.345,11.0817,47.1196,0.1486,-0.4587,0.1552,258.5469
19:50:29:513,2.6397,1.1726,11.1942,45.8817,-0.0274,-0.5021,0.1339,258.4688
19:50:29:531,3.1126,0.8074,11.1056,46.4539,-0.0727,-0.5136,0.0039,258.3281
19:50:29:551,3.3125,0.5932,10.4616,44.6998,-0.0407,-0.5069,-0.1391,258.2031
19:50:29:575,3.3161,0.4818,9.8152,45.6036,-0.0764,-0.3916,-0.2206,258.2344
19:50:29:593,2.9713,0.2077,9.4189,43.8339,-0.2123,-0.1578,-0.2208,258.4219
19:50:29:609,2.6373,0.0198,9.4153,46.7424,-0.4549,0.1887,-0.1732,258.4219
19:50:29:637,2.3021,-0.1371,10.2688,44.3208,-0.6573,0.5464,-0.1372,258.9688
19:50:29:649,1.3133,-0.3573,10.7824,47.1838,-0.6088,0.7778,-0.1335,258.9688
19:50:29:736,0.4957,-0.0724,10.4532,45.4957,-0.3848,0.8273,-0.1207,259.1719
19:50:29:736,-0.1028,0.3645,9.6356,45.0095,-0.1566,0.764,-0.097,259.3125
19:50:29:737,-0.3662,0.659,8.9939,46.6035,0.0085,0.6457,-0.056,259.4375
19:50:29:737,-0.3722,0.7895,8.7258,45.9862,0.1579,0.544,-0.0318,259.5469
19:50:29:748,-0.3554,0.8098,8.8455,46.0879,0.3369,0.4913,-0.0632,259.6406
19:50:29:771,-0.5829,0.6494,9.146,46.6111,0.5806,0.4361,-0.1354,259.6719
19:50:29:793,-1.1311,0.4076,8.7533,47.1999,0.8341,0.2886,-0.1862,259.7188
19:50:29:809,-1.3335,0.3945,7.828,45.1326,0.9702,0.067,-0.1652,259.8125
19:50:29:829,-1.2317,0.5369,6.8487,48.2597,0.9281,-0.1277,-0.0645,260.2188
19:50:29:849,-0.9947,0.4136,6.5961,47.3923,0.7342,-0.1338,0.0737,260.2188
19:50:29:874,-0.5146,0.1909,7.2689,45.8686,0.4836,-0.0409,0.1595,260.3906
19:50:29:892,-0.1902,-0.0976,8.5893,46.8351,0.3265,0.0332,0.1467,260.4219
19:50:29:909,-0.3087,-0.3023,9.4668,46.0886,0.3262,0.0838,0.0718,260.3906
19:50:29:929,-0.5901,-0.1191,9.7625,46.8175,0.3734,0.1091,0.029,260.2188
19:50:29:948,-0.8247,-0.021,9.541,46.5056,0.3678,0.1887,0.082,260.0469
19:50:29:969,-0.8582,0.0293,9.1747,47.9175,0.241,0.2329,0.1954,259.9688
19:50:29:991,-0.5721,0.2352,9.0059,47.7441,0.0027,0.1147,0.2812,259.9375
19:50:30:008,-0.5984,0.2472,9.0682,45.8514,-0.2834,-0.1117,0.3459,259.8438
19:50:30:029,-0.7864,-0.179,9.2106,47.7219,-0.5574,-0.2233,0.4734,259.5938
19:50:30:048,-0.8534,-0.5968,9.0777,49.2066,-0.8405,-0.2124,0.6612,259.2812
19:50:30:069,-0.845,-0.6913,8.946,49.1473,-1.2954,-0.0291,0.8556,258.6406
19:50:30:089,-0.286,-0.4962,10.7968,47.52,-1.8501,0.19,1.0061,258
19:50:30:110,-0.365,-0.738,13.3478,48.616,-1.9968,0.1371,1.0127,257.1719
19:50:30:129,-0.5398,-0.4124,14.1259,49.1323,-1.587,-0.1434,0.9233,256.0469
19:50:30:149,-0.8522,0.3071,13.1311,48.0767,-0.9263,-0.2787,0.8545,254.8125
19:50:30:176,-1.5023,0.6111,11.4648,48.0767,-0.4101,-0.0211,0.8902,253.7031
19:50:30:193,-2.0601,0.483,10.1132,48.6469,-0.1718,0.3717,1.0431,252.6719
19:50:30:210,-2.1439,0.1191,9.2872,49.0472,-0.1736,0.5914,1.2476,251.6875
19:50:30:228,-1.6555,-0.252,8.9413,48.9029,-0.3007,0.4705,1.3997,250.6406
19:50:30:248,-0.6224,-0.4028,8.794,48.4079,-0.4203,0.1733,1.4343,249.3281
19:50:30:268,0.2443,-0.2699,8.9461,49.0203,-0.4522,-0.0286,1.34,247.7969
19:50:30:291,0.2695,-0.1861,8.9868,50.4175,-0.3561,-0.1069,1.1922,246.1406
19:50:30:315,0.194,-0.0054,8.7964,48.8015,-0.1766,-0.1503,1.0822,244.5938
19:50:30:329,0.2707,0.264,8.5342,49.5033,0.021,-0.1098,1.0063,243.1406
19:50:30:350,0.2755,0.5417,8.1093,50.7316,0.1918,-0.0504,0.9262,242.4688
19:50:30:375,0.2611,0.7679,7.7956,50.346,0.2839,0.0337,0.8524,240.6875
19:50:30:393,0.2982,1.0253,8.0889,50.4417,0.297,0.1482,0.7757,239.5781
19:50:30:410,0.054,1.06,8.97,51.1181,0.3209,0.2476,0.69,238.5781
19:50:30:428,-0.3135,1.0385,9.4333,52.4893,0.4266,0.2566,0.6583,237.6562
19:50:30:449,-0.207,1.2755,9.4871,50.7244,0.5225,0.2225,0.6681,236.875
19:50:30:468,-0.1316,1.3593,9.3662,50.7528,0.5579,0.1395,0.6556,236.125
19:50:30:491,-0.0214,1.497,9.037,53.2611,0.5204,-0.0185,0.6167,235.375
19:50:30:508,0.2216,1.6023,8.8874,52.2968,0.4051,-0.1671,0.6023,234.6719
19:50:30:528,0.5113,1.7256,9.1005,51.0441,0.2629,-0.3093,0.5805,233.9688
19:50:30:549,0.8884,1.746,9.8989,53.48,0.1177,-0.3287,0.536,233.2969
19:50:30:575,1.0476,1.6035,11.4707,52.694,0.0365,-0.206,0.4567,232.6719
19:50:30:595,0.9722,1.3007,12.8725,53.0307,0.1465,-0.1594,0.3318,232.0469
19:50:30:613,0.9398,1.1666,13.0006,52.568,0.3923,-0.248,0.188,231.4844
19:50:30:628,0.8345,1.0181,11.9915,54.4599,0.5369,-0.4033,0.1006,230.875
19:50:30:651,0.7136,0.9667,10.6795,53.0557,0.4173,-0.5282,0.0838,230.6875
19:50:30:675,0.5855,0.8302,10.1192,55.0471,0.045,-0.5325,0.1539,230.6094
19:50:30:694,0.6681,0.4615,10.8099,54.9962,-0.3875,-0.456,0.2945,230.5469
19:50:30:709,1.4821,-0.0784,12.1291,55.0411,-0.5984,-0.4121,0.4023,230.4062
19:50:30:728,2.2447,-0.6003,12.9097,54.4576,-0.5148,-0.3447,0.3174,230.0938
19:50:30:747,2.0998,-0.8565,12.6212,55.21,-0.204,-0.3317,0.0447,229.6406
19:50:30:769,1.5863,-0.495,11.2265,55.9832,0.1342,-0.3455,-0.2177,229.3125
19:50:30:794,0.8584,-0.015,9.6966,54.9171,0.3076,-0.1663,-0.3103,229.2812
19:50:30:809,0.4849,0.2137,8.5869,54.3491,0.2631,0.095,-0.2299,229.5469
19:50:30:830,0.5113,0.416,8.1536,54.7876,0.0687,0.2918,-0.1231,229.875
19:50:30:848,0.5711,0.5046,8.4253,55.2822,-0.1656,0.3871,-0.0834,230.125
19:50:30:869,0.5843,0.5644,9.1101,56.0369,-0.3358,0.4292,-0.089,230.2188
19:50:30:892,0.5065,0.6063,9.8439,55.4808,-0.3643,0.4636,-0.1098,230.2969
19:50:30:910,0.4933,0.6746,10.0091,55.102,-0.2485,0.3938,-0.1412,230.375
19:50:30:929,0.862,0.9284,9.9397,55.1459,-0.0621,0.2558,-0.2134,230.4688
19:50:30:949,0.9015,1.0397,9.5267,56.6863,0.1529,0.0966,-0.3343,230.6719
19:50:30:976,0.2647,1.5377,8.8287,55.3238,0.5475,-0.1213,-0.5838,230.9062
19:50:30:993,-0.183,1.6957,8.1344,55.9922,0.7334,-0.1152,-0.5386,231.2812
19:50:31:010,-0.1028,1.8944,7.3024,55.7826,0.8075,-0.0598,-0.375,231.8281
19:50:31:028,0.2587,1.9567,6.9337,56.2115,0.7089,0.0292,-0.2078,232.4688
19:50:31:060,0.4837,1.8011,7.4425,55.9586,0.5116,0.1416,-0.0999,233.5469
19:50:31:070,0.4143,1.4587,8.6504,54.77,0.3641,0.2585,-0.0472,233.5469
19:50:31:092,0.3281,1.2097,9.7278,53.7512,0.3667,0.3046,-0.0115,233.7969
19:50:31:111,0.2898,0.9727,10.0306,56.2982,0.457,0.222,0.0338,233.8906
19:50:31:128,0.3976,0.9284,9.7828,57.2976,0.4663,0.0268,0.0798,233.9375
19:50:31:149,0.2467,0.914,9.7002,56.4487,0.3012,-0.1745,0.1312,233.9375
19:50:31:170,0.2946,0.7452,10.2353,56.0228,0.0469,-0.3373,0.2018,233.8438
19:50:31:191,0.5233,0.3238,10.9632,55.3955,-0.1167,-0.5346,0.2324,233.75
19:50:31:210,0.6837,-0.0305,11.0877,56.1294,-0.1276,-0.7687,0.1464,233.5938
19:50:31:229,0.5017,-0.1454,10.6459,56.6167,-0.0807,-0.9149,-0.0027,233.375
19:50:31:248,-0.0047,0.0114,9.5817,56.4713,-0.0823,-0.8771,-0.0885,233.2031
19:50:31:268,-0.4799,0.3047,8.5881,56.9399,-0.228,-0.679,0.0018,233.1875
19:50:31:293,-0.5446,0.4794,8.29,57.9174,-0.5305,-0.3817,0.286,233.2656
19:50:31:313,-0.2178,0.0066,8.6875,56.7345,-0.9209,-0.0952,0.6567,233.4375
19:50:31:330,0.7878,-0.7524,9.7948,56.6412,-1.2578,0.0023,0.8953,233.5
19:50:31:348,1.7754,-1.2372,11.1188,58.7663,-1.3569,-0.0587,0.8282,233.2344
19:50:31:368,1.6856,-1.2695,11.6144,57.0422,-1.1468,-0.1639,0.5238,232.5469
19:50:31:392,0.6741,-0.829,11.1655,56.2829,-0.7507,-0.1269,0.2194,231.5781
19:50:31:409,-1.0342,-0.3226,10.2844,56.7529,-0.367,0.2156,0.1523,230.6719
19:50:31:429,-2.0314,0.0269,9.2956,55.0329,-0.1712,0.556,0.3973,230.125
19:50:31:448,-1.7165,0.0054,8.5211,57.427,-0.2085,0.6215,0.7528,229.9219
19:50:31:469,-0.608,-0.0066,8.3224,57.5353,-0.3846,0.4295,0.972,229.5781
19:50:31:493,0.5304,0.0557,8.6683,56.8186,-0.5233,0.1541,0.9605,228.9531
19:50:31:511,1.0332,0.3382,9.2346,56.5778,-0.4831,-0.092,0.7776,227.9375
19:50:31:531,0.7339,0.7608,9.3076,56.8335,-0.2618,-0.1524,0.5784,226.7969
19:50:31:549,0.2731,1.1977,8.873,55.9383,0.0346,-0.0582,0.4836,225.8125
19:50:31:567,0.1222,1.5832,8.3714,56.1804,0.2653,0.1685,0.4825,225.0938
19:50:31:588,0.0384,1.7544,8.241,56.7216,0.3947,0.4255,0.5257,224.5
19:50:31:610,0.1845,1.8657,8.3954,57.8481,0.428,0.5496,0.5874,223.9531
19:50:31:631,0.7004,1.7687,8.9927,57.8846,0.4173,0.4971,0.6338,223.4062
19:50:31:647,1.0392,1.6933,9.4297,55.2095,0.4197,0.328,0.5909,222.7656
19:50:31:668,1.1038,1.8238,9.5027,56.3007,0.4309,0.0976,0.4921,222.0469
19:50:31:692,0.971,1.9459,9.0729,55.9256,0.404,-0.0677,0.4497,221.3594
19:50:31:708,1.117,2.0321,8.9856,58.5894,0.2783,-0.0928,0.4681,220.75
19:50:31:728,1.0224,1.7903,10.057,58.6027,0.1667,-0.0195,0.4785,220.2188
19:50:31:808,1.0991,1.388,11.3474,56.5036,0.2107,-0.0188,0.4708,219.9688
19:50:31:808,1.7934,1.1319,12.1591,57.2785,0.3838,-0.1255,0.3896,219.1875
19:50:31:808,2.1884,0.7943,12.4775,58.3898,0.5694,-0.2291,0.1858,218.6406
19:50:31:808,1.9167,0.4663,12.3602,57.8277,0.7409,-0.3754,-0.0667,218.125
19:50:31:829,1.4187,0.2747,11.4719,56.6109,0.8639,-0.6358,-0.227,217.7969
19:50:31:848,1.2523,0.4603,10.3191,57.0361,0.8208,-0.8965,-0.2017,217.75
19:50:31:869,1.6018,0.8936,9.389,57.0585,0.5539,-1.015,-0.0344,217.9531
19:50:31:891,2.2902,1.1953,9.8116,56.7609,0.1393,-0.9053,0.1797,218.25
19:50:31:907,3.2131,0.8326,11.3067,56.4033,-0.1625,-0.5807,0.2985,218.4375
19:50:31:928,3.9793,0.1227,12.4153,55.3128,-0.1787,-0.2624,0.2306,218.4062
19:50:31:949,4.6688,-0.2077,12.7504,54.6455,0.0032,-0.0406,-0.0075,218.1719
19:50:31:969,4.4737,-0.1718,12.5362,53.7483,0.2053,0.2215,-0.3649,217.8906
19:50:31:994,3.3544,0.0257,12.1854,55.4147,0.2897,0.5027,-0.6794,217.75
19:50:32:013,2.1142,0.3956,11.9053,54.283,0.3183,0.6798,-0.8368,217.9531
19:50:32:028,1.1685,0.7069,11.3283,54.4342,0.4,0.667,-0.8475,218.5
19:50:32:049,0.4981,1.1259,10.1503,53.0268,0.4943,0.5213,-0.7359,219.7812
19:50:32:068,0.0636,1.5221,8.3595,55.8447,0.4381,0.2244,-0.5468,220.6719
19:50:32:092,-0.4847,1.8034,6.4393,53.9434,0.0621,-0.264,-0.3149,221.4219
19:50:32:110,-0.7589,1.8453,4.8221,52.1251,-0.653,-0.9522,-0.0368,222.0156
19:50:32:128,0.3999,1.91,5.3787,54.2151,-1.407,-1.5146,0.225,222.4062
19:50:32:155,2.4434,1.7448,8.4552,54.5113,-1.7092,-1.4635,0.3006,222.5625
19:50:32:167,2.7475,1.1283,11.7018,54.2355,-1.2762,-0.8305,0.0878,222.4844
19:50:32:188,1.9394,0.7751,12.3446,53.0074,-0.2573,-0.4616,-0.1982,222.3438
19:50:32:215,1.524,1.072,10.9739,52.591,0.7838,-0.37,-0.4323,222.375
19:50:32:229,1.439,1.1151,8.9305,52.3612,1.3995,-0.2965,-0.4789,222.625
19:50:32:248,1.1326,0.9727,7.6089,52.0858,1.5143,-0.1572,-0.3822,223.0625
19:50:32:269,0.7734,1.0325,7.0079,52.0858,1.3028,-0.1913,-0.3074,223.2969
19:50:32:292,0.558,1.151,7.8423,51.8415,0.9105,-0.1649,-0.219,223.6719
19:50:32:311,0.7136,1.0457,9.4321,52.2418,0.6655,-0.1327,-0.0936,223.7969
19:50:32:328,1.0823,0.823,9.8211,51.4422,0.6482,-0.1556,0.0119,224.1562
19:50:32:352,1.6785,1.017,9.2346,49.1717,0.599,-0.1929,0.0559,224.2969
19:50:32:368,1.8604,1.0876,8.8778,50.1986,0.3577,-0.1418,0.0724,224.2344
19:50:32:389,1.4689,0.6698,9.5913,51.8122,-0.1896,-0.0078,-0.011,224.1406
19:50:32:410,0.9195,0.6734,9.3962,51.062,-0.2631,0.0654,-0.0603,224.1406
19:50:32:430,0.7208,0.7871,9.207,50.6926,-0.3539,0.2835,0.0404,224.0469
19:50:32:452,0.953,0.677,9.5242,50.1877,-0.5398,0.5541,0.2596,224.0156
19:50:32:467,1.6425,0.349,10.4436,50.3846,-0.7012,0.7099,0.4681,224.0938
19:50:32:489,2.5428,-0.0006,11.2864,49.5471,-0.6759,0.6502,0.4678,224.0938
19:50:32:513,2.8085,0.1526,11.4719,48.9799,-0.4386,0.5155,0.2298,223.75
19:50:32:530,1.9322,0.5668,10.713,49.6726,-0.1055,0.4707,-0.0437,223.1875
19:50:32:549,0.4095,1.0888,9.5578,50.5385,0.1361,0.6598,-0.1295,222.6406
19:50:32:575,-0.851,1.5269,8.7653,49.4425,0.138,1.0124,0.0953,222.3906
19:50:32:588,-0.7924,1.4228,8.4971,50.1961,-0.0426,1.2396,0.5456,222.4219
19:50:32:610,0.4119,1.1331,8.5809,48.8423,-0.2437,1.1581,0.8862,222.4219
19:50:32:628,1.4809,0.7476,8.7042,47.8227,-0.3369,0.8604,0.9272,221.9688
19:50:32:647,2.0735,0.6758,8.4062,48.0036,-0.257,0.5325,0.7424,221
19:50:32:669,1.9478,1.0014,7.7968,48.0706,-0.0522,0.3608,0.4751,219.8281
19:50:32:693,1.0105,1.4276,6.8607,48.2133,0.1238,0.3309,0.3326,218.8438
19:50:32:711,0.4143,1.7687,6.0886,48.3826,0.1143,0.3003,0.4215,218.4375
19:50:32:728,0.4909,1.9315,5.8348,48.1796,-0.0498,0.1751,0.6165,217.875
19:50:32:747,0.9554,1.9746,6.2921,47.734,-0.2639,-0.0203,0.7555,217.4531
19:50:32:768,1.3349,1.977,7.3539,48.8906,-0.4349,-0.1074,0.7797,216.9688
19:50:32:794,1.3469,2.0572,8.472,47.1307,-0.4847,-0.0835,0.7424,216.25
19:50:32:811,1.3457,2.2356,9.4141,47.273,-0.4424,0.0313,0.7115,215.3906
19:50:32:828,1.3121,2.2523,10.1396,46.8717,-0.3665,0.1293,0.7089,214.5469
19:50:32:847,1.5779,2.0943,10.6268,48.1521,-0.286,0.0651,0.7091,212.8906
19:50:32:867,2.3165,1.9435,10.6711,46.8668,-0.2123,-0.1863,0.6383,212.125
19:50:32:892,3.2239,1.9567,10.5538,46.2144,-0.1755,-0.5247,0.4492,211.7031
19:50:32:909,3.7973,2.0429,10.6603,45.5476,-0.1635,-0.8382,0.1555,210.9375
19:50:32:927,4.0786,2.2152,11.2972,46.7303,-0.1555,-1.0409,-0.1615,210.3125
19:50:32:947,4.3276,2.5002,12.5805,46.3072,-0.0852,-0.973,-0.4174,210.0156
19:50:32:968,3.9398,2.1662,13.3957,46.6731,0.1459,-0.692,-0.5748,210.0625
19:50:32:993,3.7446,2.22,13.519,45.8641,0.3715,-0.3104,-0.6624,210.4688
19:50:33:014,3.5723,2.3158,14.0601,45.5909,0.4229,0.2881,-0.6965,211.0938
19:50:33:028,2.945,1.643,15.3098,46.1137,0.4368,0.8316,-0.6941,211.7812
19:50:33:047,2.3297,0.5956,16.3214,44.9101,0.6482,1.0953,-0.7476,212.5625
19:50:33:068,1.7419,-0.1478,15.8485,45.9226,1.0666,1.074,-0.8853,213.2969
19:50:33:093,1.1122,-0.3083,13.5908,46.5798,1.494,0.8194,-1.0699,213.9688
19:50:33:109,0.54,0.0066,10.7225,45.3681,1.664,0.6633,-1.1929,214.7812
19:50:33:127,0.4646,0.6028,8.8647,44.4662,1.4991,0.7597,-1.2371,215.7812
19:50:33:147,0.0636,1.1151,8.2817,44.722,1.1739,0.9339,-1.2864,216.375
19:50:33:168,-0.9205,1.4156,8.2888,44.8209,0.8884,0.9765,-1.3018,218.2656
19:50:33:193,-1.6303,1.6682,7.9525,43.6111,0.6935,0.8441,-1.1934,219.6094
19:50:33:210,-1.8506,1.9926,7.4221,45.2093,0.5278,0.6178,-1.0097,220.9688
19:50:33:227,-1.8075,2.2547,7.2282,47.0936,0.4187,0.3879,-0.832,222.2344
19:50:33:247,-1.6447,2.4882,7.3443,43.8633,0.4597,0.2321,-0.7223,223.4062
19:50:33:267,-1.7836,2.724,7.2689,44.3075,0.6839,0.2409,-0.6877,224.4062
19:50:33:294,-2.5461,2.9766,6.6333,43.9251,0.979,0.4391,-0.6195,225.2188
19:50:33:311,-3.1842,3.3118,5.563,45.4766,1.1319,0.651,-0.3695,226.0156
19:50:33:328,-3.1926,3.5692,4.5527,45.112,1.0072,0.7134,0.0484,226.7969
19:50:33:355,-2.6084,3.4961,3.9565,42.7939,0.5941,0.5104,0.511,227.375
19:50:33:367,-1.4687,3.1526,4.3109,43.7458,0.025,-0.0294,0.8556,227.5312
19:50:33:387,-0.5518,2.7839,5.4026,43.0388,-0.5055,-0.619,1.0127,227.1406
19:50:33:410,-0.0143,2.5648,6.7937,44.1891,-0.8855,-0.9695,1.0673,226.3125
19:50:33:427,0.0983,2.3206,8.4421,44.4604,-1.0485,-1.0329,1.1139,225.3125
19:50:33:447,0.2731,2.0692,9.565,41.7565,-0.9766,-0.8923,1.196,223.7031
19:50:33:469,0.8189,1.6562,10.1336,42.417,-0.8189,-0.6121,1.3089,222.5781
19:50:33:493,1.6461,1.1941,10.276,43.2072,-0.7129,-0.2757,1.3552,221.3906
19:50:33:511,2.5452,0.7584,10.6483,44.3365,-0.7018,-0.0179,1.2554,219.9844
19:50:33:529,2.7666,0.513,11.3929,43.8316,-0.6887,0.1317,0.9448,218.4531
19:50:33:547,1.9693,0.6147,11.5629,43.8629,-0.5902,0.1749,0.499,217.0781
19:50:33:567,0.7016,1.1534,10.938,45.9567,-0.5009,0.2106,0.1581,215.9531
19:50:33:592,-0.614,1.6059,10.0438,42.9046,-0.5481,0.2729,0.0982,215.3438
19:50:33:609,-1.1814,1.6849,9.4524,42.6291,-0.8085,0.3376,0.307,215.1094
19:50:33:628,-0.9576,1.1797,10.1898,42.2891,-1.1971,0.3733,0.568,214.9375
19:50:33:647,-0.377,0.4196,11.4612,43.1163,-1.395,0.2146,0.6769,214.5156
19:50:33:669,0.1797,0.3382,11.6922,42.0046,-1.2874,-0.0717,0.5741,214.1719
19:50:33:694,0.1677,0.6219,11.3702,41.9556,-1.0607,-0.1849,0.344,213.3906
19:50:33:712,-0.7206,0.5309,11.3187,42.0103,-0.8139,0.0175,0.1645,212.5938
19:50:33:727,-1.9631,0.4244,11.2852,43.943,-0.5499,0.4012,0.0961,211.875
19:50:33:753,-2.4899,0.4411,10.707,43.1239,-0.3268,0.6769,0.2106,211.5156
19:50:33:775,-0.7876,0.6782,9.1376,43.0566,-0.3121,0.32,0.4284,211.2031
19:50:33:789,-0.377,0.9104,8.9281,42.1488,-0.3766,-0.3035,0.3211,211.2031
19:50:33:811,-0.6571,1.2935,8.6935,41.3446,-0.3358,-0.9093,0.2524,210.6875
19:50:33:882,-1.0845,1.6107,8.2338,42.3985,-0.216,-1.4462,0.3416,210.1875
19:50:33:882,-0.9576,1.6837,7.2964,42.1411,-0.1134,-1.8308,0.5238,209.5625
19:50:33:882,-0.353,1.7256,6.3483,43.2928,-0.0762,-1.9802,0.6721,209.5625
19:50:33:896,0.8788,1.8777,6.1472,41.063,-0.0775,-1.7386,0.7469,209.2812
19:50:33:912,1.8341,1.7472,6.8128,41.631,-0.0322,-1.1192,0.7339,208.1094
19:50:33:930,2.5392,1.6754,7.8926,42.5819,0.1012,-0.3735,0.6577,208.1094
19:50:33:945,2.7882,1.7496,8.4756,41.4503,0.2855,0.2007,0.5528,207.3906
19:50:33:966,2.9067,1.8585,8.7174,42.4406,0.3574,0.438,0.4945,206.6094
19:50:33:986,3.771,1.8633,9.5386,42.7427,0.3105,0.3549,0.4031,205.2188
19:50:34:009,4.6964,2.0081,10.5502,43.0447,0.2956,0.1858,0.1478,204.9219
19:50:34:026,4.5659,2.4307,10.7776,39.7659,0.347,0.0665,-0.1492,204.3594
19:50:34:047,3.9446,2.8509,10.8231,41.8445,0.322,0.0643,-0.3063,203.9844
19:50:34:067,3.7925,2.9622,11.5725,41.588,0.2495,0.1586,-0.3894,203.9844
19:50:34:093,3.6094,2.7875,12.4643,42.0777,0.2786,0.2697,-0.5186,204.0781
19:50:34:113,3.1257,2.6785,12.6894,40.9116,0.4056,0.2896,-0.6707,204.4062
19:50:34:132,2.465,2.7707,11.9256,42.6152,0.4429,0.1597,-0.7564,204.8281
19:50:34:147,1.6449,2.7815,10.9656,41.5637,0.2487,-0.0097,-0.7045,205.3594
19:50:34:169,1.4223,2.4451,10.8878,41.0686,-0.1409,-0.0377,-0.5207,206.0938
19:50:34:193,1.9107,1.7771,12.2584,41.2641,-0.4796,0.0396,-0.3748,206.9219
19:50:34:211,2.192,0.7572,13.0844,41.656,-0.5081,0.0209,-0.3918,207.7188
19:50:34:229,2.3285,0.2604,12.3063,40.9836,-0.3135,-0.1397,-0.5417,208.2969
19:50:34:247,2.2064,0.2233,10.8255,40.4364,-0.119,-0.264,-0.7213,208.7344
19:50:34:266,1.8305,0.2711,9.462,41.7126,-0.0373,-0.1884,-0.831,209.4844
19:50:34:287,1.3217,0.3897,8.6061,41.122,-0.0754,0.046,-0.8605,210.2031
19:50:34:311,1.1422,0.4962,8.9245,41.9583,-0.1595,0.3136,-0.8246,211.125
19:50:34:328,1.1146,0.2688,9.7589,40.463,-0.0969,0.5256,-0.8006,212.1094
19:50:34:346,1.1936,0.1227,9.7876,41.5121,0.1169,0.5472,-0.8589,213.0312
19:50:34:367,1.1841,0.228,9.3195,41.5121,0.3268,0.4209,-0.9729,213.9219
19:50:34:387,0.7627,0.4088,8.6575,40.2899,0.4789,0.2795,-1.0768,214.8125
19:50:34:409,0.2192,0.5836,7.9824,41.9124,0.5478,0.1288,-1.072,215.7656
19:50:34:428,0.2096,0.7979,7.6544,40.3009,0.5396,-0.0323,-0.9665,216.9219
19:50:34:446,0.309,0.8051,7.5778,42.1937,0.5257,-0.1626,-0.8693,218.1406
19:50:34:468,0.3832,0.8074,7.4138,40.5273,0.5465,-0.2518,-0.8105,219.3281
19:50:34:492,0.3796,1.0086,7.2282,40.5292,0.5585,-0.247,-0.7628,220.3281
19:50:34:511,0.054,1.2899,7.0211,39.9057,0.5172,-0.145,-0.681,221.2969
19:50:34:529,-0.1938,1.5425,7.2665,41.5448,0.3816,-0.0004,-0.4962,222.2344
19:50:34:547,-0.2764,1.5221,7.8639,42.4214,0.2029,0.0705,-0.2643,223.4219
19:50:34:567,0.0133,1.3725,8.5761,40.1312,0.0269,-0.0451,-0.0728,223.75
19:50:34:595,0.4814,1.3162,9.2453,41.8664,-0.1009,-0.2094,0.0314,224.1719
19:50:34:611,0.7962,1.3066,9.5961,41.7318,-0.175,-0.3266,0.0471,224.3438
19:50:34:629,0.8165,1.3294,9.8283,42.9607,-0.2421,-0.3511,0.0013,224.375
19:50:34:646,0.6286,1.3809,10.3898,41.0095,-0.3089,-0.2443,-0.068,224.3594
19:50:34:669,0.2503,1.5078,11.0984,40.8938,-0.2876,0.0042,-0.1431,224.375
19:50:34:694,-0.541,1.5365,11.6012,39.7462,-0.1763,0.3091,-0.2246,224.4375
19:50:34:713,-1.6315,1.4084,11.4899,41.0473,-0.065,0.5176,-0.2374,224.5781
19:50:34:730,-2.2409,1.1786,10.701,41.8089,-0.0972,0.4955,-0.1031,224.7812
19:50:34:746,-2.1978,0.8673,9.9672,41.038,-0.3891,0.4172,0.1472,225
19:50:34:768,-1.3837,0.5058,10.8147,40.7866,-0.7966,0.2787,0.3898,225.1562
19:50:34:793,-0.4644,-0.088,12.4416,42.3483,-0.9257,0.0052,0.4588,225.0781
19:50:34:812,-0.2908,-0.3968,12.5326,41.4959,-0.6354,-0.2896,0.347,224.7188
19:50:34:828,-0.6427,0.0389,11.1643,42.144,-0.1971,-0.3564,0.2236,223.9375
19:50:34:846,-1.4747,0.4447,9.4536,41.428,0.0605,-0.0022,0.2988,223.5625
19:50:34:866,-2.1283,0.4974,8.4074,41.9761,-0.0149,0.4982,0.6063,223.3438
19:50:34:888,-1.8698,0.1778,8.4325,41.7272,-0.294,0.6601,0.9693,223
19:50:34:912,-0.8929,0.1107,8.8862,43.8221,-0.5246,0.4337,1.1595,222.2656
19:50:34:928,-0.104,0.337,9.1017,41.864,-0.5521,0.0473,1.1366,221.1094
19:50:34:946,0.1222,0.6961,8.5726,43.7333,-0.3872,-0.2891,0.996,219.7969
19:50:34:967,-0.0849,1.2193,7.8004,42.9738,-0.1646,-0.3807,0.8519,218.4844
19:50:34:993,-0.541,1.5437,7.142,41.8423,0.0461,-0.2723,0.8085,217.3594
19:50:35:013,-0.5937,1.7616,6.4573,41.9991,0.2101,-0.0872,0.8766,216.4531
19:50:35:028,-0.274,1.9004,6.1041,44.2655,0.2354,0.1333,0.9922,215.5469
19:50:35:047,0.0157,1.8801,6.34,42.4951,0.1262,0.2462,1.0854,214.5469
19:50:35:068,0.4047,1.9639,7.2545,43.2353,-0.0304,0.2811,1.1494,213.9844
19:50:35:095,0.6729,2.0069,8.6755,42.9931,-0.1127,0.3746,1.185,212.8438
19:50:35:114,0.6537,2.2452,9.7816,42.7945,-0.0517,0.5243,1.135,211.5469
19:50:35:130,0.2156,2.9563,10.3754,42.5079,0.09,0.7229,0.988,210.1719
19:50:35:146,-0.4093,3.1741,10.9835,42.8716,0.2285,0.8638,0.9494,208.2188
19:50:35:167,1.135,3.3716,10.8363,43.9304,0.4836,0.7744,1.1084,207.0469
19:50:35:187,1.8496,3.556,10.9213,43.9226,0.4543,0.6225,0.8865,205.9062
19:50:35:210,1.5743,3.6446,11.9101,44.2976,0.4072,0.5485,0.5581,205.9062
19:50:35:228,1.2128,3.6829,13.2616,43.6984,0.5009,0.5197,0.3019,204.6719
19:50:35:246,0.5867,3.3238,13.61,45.052,0.7534,0.4004,0.1568,202.3125
19:50:35:269,0.6394,3.0736,12.3686,45.9528,0.9337,0.0335,0.1014,201.6406
19:50:35:294,1.1852,2.9479,11.0182,45.2586,0.7571,-0.1929,0.1411,201.125
19:50:35:312,1.603,2.4571,10.7046,46.9831,0.2301,-0.1769,0.2149,201.125
19:50:35:330,2.3811,1.4192,11.9005,45.7933,-0.4173,0.0044,0.2146,201.0625
19:50:35:347,3.0491,0.1754,14.0253,44.7261,-0.7302,0.0324,0.0846,200.9688
19:50:35:366,3.0491,-0.8146,14.1044,45.2924,-0.5089,-0.2715,-0.2304,200.4844
19:50:35:388,2.7319,-0.9331,11.8335,46.8367,-0.171,-0.7485,-0.5998,200.4219
19:50:35:411,1.8999,-0.5333,8.9221,45.8461,-0.1151,-1.0054,-0.8038,200.625
19:50:35:429,0.9374,0.0353,6.747,46.1051,-0.3941,-1.0156,-0.7831,200.9531
19:50:35:447,0.3293,0.4914,6.2454,44.8325,-0.8309,-0.9048,-0.6027,201.875
19:50:35:467,0.4047,0.513,8.0494,45.3611,-1.1265,-0.5468,-0.3167,202.8594
19:50:35:494,0.3473,0.0832,9.2633,46.9216,-0.9966,-0.0102,-0.0624,203.7656
19:50:35:511,0.947,-0.3011,9.1484,45.6629,-0.6567,0.1139,0.0524,204.0938
19:50:35:529,1.7419,-0.3633,8.6791,46.195,-0.3886,-0.112,-0.0592,204.5
19:50:35:545,1.9047,-0.2795,8.1488,46.2715,-0.2109,-0.5607,-0.3689,204.5469
19:50:35:566,1.5755,-0.2221,7.7561,47.0645,-0.13,-0.9365,-0.6278,204.4844
19:50:35:585,1.3217,0.2592,8.0829,47.06,-0.0485,-1.0033,-0.7948,204.5469
19:50:35:610,0.8357,0.1933,8.4971,46.9051,0.1286,-0.7817,-0.7886,204.9688
19:50:35:630,0.5783,0.2376,8.2565,47.5424,0.376,-0.4225,-0.6701,205.7344
19:50:35:648,0.807,0.3921,8.1117,46.1429,0.5441,-0.0243,-0.5452,206.7031
19:50:35:669,0.7208,0.4208,8.4804,45.9214,0.6037,0.4926,-0.4102,208.0156
19:50:35:685,0.692,0.3023,9.0981,45.9515,0.5878,0.9573,-0.2501,208.7188
19:50:35:708,0.5065,0.1167,9.9648,45.3044,0.4605,1.2063,-0.0938,209.2344
19:50:35:730,-0.1806,-0.0341,11.0745,46.0613,0.3393,0.8383,0.0386,209.5469
19:50:35:746,-0.7373,-0.2675,12.0322,46.1215,0.4645,-0.0315,0.3845,209.6406
19:50:35:766,0.7291,0.4699,11.0446,47.8414,0.302,-0.259,0.4471,209.5938
19:50:35:786,0.8668,1.0002,10.9692,45.1046,0.073,-0.3815,0.1483,209.3438
19:50:35:810,-0.2992,0.6566,10.4472,46.6076,-0.2027,-0.2909,-0.1087,208.8438
19:50:35:827,-1.1922,0.2556,10.4185,46.486,-0.3867,-0.399,-0.0648,208.5156
19:50:35:845,-0.9288,0.428,10.4149,47.4314,-0.4631,-0.4984,0.0585,208.5469
19:50:35:866,-0.8307,0.4483,10.0151,46.9024,-0.4559,-0.4643,0.1355,208.7188
19:50:35:946,-0.6822,0.7117,9.8499,46.6723,-0.547,-0.048,0.1667,208.75
19:50:35:947,-1.3622,0.8278,11.0984,47.2172,-0.6405,0.4843,0.1882,208.6719
19:50:35:947,-1.8051,0.6482,11.9496,46.4739,-0.5918,0.6641,0.2452,208.5312
19:50:35:947,-2.0852,0.2496,11.7628,46.7278,-0.3752,0.3626,0.2889,208.3281
19:50:35:970,-1.859,0.5513,9.8989,46.1979,-0.1987,-0.0848,0.2471,207.8906
19:50:35:995,-2.3187,0.6015,8.4588,45.8133,-0.1233,-0.4773,0.2407,207.5312
19:50:36:007,-2.5318,0.8302,7.6807,46.689,-0.2016,-0.2171,0.4364,207.3906
19:50:36:026,-2.5401,1.005,7.47,47.2172,-0.3135,0.1935,0.7291,207.1562
19:50:36:046,-2.1882,0.732,7.658,48.06,-0.436,0.3701,1.0583,206.8281
19:50:36:065,-1.2592,0.4423,7.9896,47.3236,-0.5209,0.2348,1.3062,206.2031
19:50:36:087,-0.0514,0.3454,8.0901,45.908,-0.5113,-0.1109,1.3643,205.1719
19:50:36:112,0.7292,0.4735,7.9094,47.2581,-0.4557,-0.4076,1.2583,203.7812
19:50:36:128,0.8285,0.5273,7.5945,47.3909,-0.3499,-0.6853,1.0956,202.2188
19:50:36:147,1.1026,1.0134,7.8387,46.4857,-0.2133,-0.7764,0.9978,200.7812
19:50:36:169,1.694,1.6382,8.8718,46.0927,-0.0165,-0.4864,0.9086,199.4531
19:50:36:185,1.1146,1.1618,9.2848,46.1478,0.2559,0.1405,0.842,198.2812
19:50:36:206,1.0871,1.1295,9.1831,46.8249,0.5009,0.5528,0.9483,197.25
19:50:36:230,1.7539,1.4419,9.3195,47.1666,0.6232,0.6862,1.0913,196.2656
19:50:36:248,2.2471,1.7292,10.1216,46.3591,0.6346,0.7224,1.0375,194.6562
19:50:36:266,1.6377,1.1546,10.9536,45.5363,0.576,1.1666,0.9725,193.4531
19:50:36:286,2.3548,1.3354,10.9895,46.8067,0.555,1.0255,0.8316,192.2344
19:50:36:311,1.8281,1.0983,10.7321,45.1356,0.5294,0.3685,0.5326,191.0625
19:50:36:326,1.5935,1.0684,10.9632,45.9261,0.3784,-0.2749,0.3533,190.125
19:50:36:346,2.1621,1.333,11.9209,45.4638,0.2309,-0.476,0.2804,189.5
19:50:36:365,2.6613,1.5281,12.7804,44.8187,0.2703,-0.3911,0.0881,189.1094
19:50:36:386,2.271,1.327,12.6714,45.7389,0.465,-0.2603,-0.166,188.8281
19:50:36:410,2.0112,1.2995,11.9831,45.3892,0.6786,-0.2507,-0.3188,188.7656
19:50:36:426,1.6713,1.2983,11.1224,42.4277,0.7729,-0.3202,-0.3354,188.9688
19:50:36:448,2.2914,1.8058,10.6435,43.5072,0.6543,-0.5136,-0.3436,189.3594
19:50:36:466,2.4673,1.5927,10.3107,43.5073,0.3649,-1.072,-0.5087,189.5625
19:50:36:485,2.3237,1.5688,10.8902,44.1106,0.0413,-1.4957,-0.6515,189.9375
19:50:36:511,2.2495,1.5197,11.6431,43.3667,-0.1505,-1.3972,-0.7439,190.4844
19:50:36:528,2.0364,1.388,11.4265,43.6674,-0.0418,-1.2316,-0.8001,191.2812
19:50:36:547,1.9358,1.564,10.5155,44.3799,0.171,-0.9405,-0.7934,192.7031
19:50:36:570,1.7204,1.971,9.5853,44.3673,0.2738,-0.3173,-0.742,193.7344
19:50:36:595,1.2535,1.7256,9.3878,42.4596,0.0852,1.0417,-0.5199,194.7344
19:50:36:612,0.8788,1.2145,9.6703,42.7065,0.0724,1.1059,-0.5023,194.7344
19:50:36:631,0.5005,1.0301,9.4632,41.4361,0.2274,0.7624,-0.5561,195.5469
19:50:36:646,0.3593,1.1127,8.5845,43.2678,0.465,0.2827,-0.6288,196.6719
19:50:36:665,0.2479,1.5389,7.6496,40.8527,0.661,-0.0496,-0.7189,197.1094
19:50:36:688,-0.5063,1.8441,7.1636,40.7588,0.7832,-0.116,-0.7508,197.6406
19:50:36:711,-1.1395,2.0345,6.9888,42.1056,0.844,0.0031,-0.5993,198.3125
19:50:36:728,-1.0881,2.1302,6.8104,41.7046,0.8469,0.1701,-0.3343,199.125
19:50:36:745,-0.6128,2.1291,6.6392,41.2219,0.7566,0.2878,-0.097,199.9375
19:50:36:766,-0.4727,2.1721,6.7781,40.6844,0.5697,0.3014,0.026,200.6094
19:50:36:786,-0.6619,2.2679,7.4545,40.6283,0.3196,0.2825,0.1336,200.9844
19:50:36:813,-0.7086,2.2559,8.5139,40.5181,0.0879,0.2974,0.2756,200.9531
19:50:36:833,-0.6475,2.0405,9.4931,42.6224,-0.0501,0.2697,0.4037,200.8125
19:50:36:849,-0.3638,1.8585,10.1048,42.026,-0.0511,0.1275,0.4833,200.5312
19:50:36:865,-0.0693,1.8142,9.948,42.1181,0.0091,-0.0164,0.5051,200.1094
19:50:36:885,0.1893,1.9243,9.5937,39.9475,-0.0069,-0.0347,0.5187,199.5469
19:50:36:910,0.394,1.9267,9.8128,41.1582,-0.1167,0.1341,0.5382,199.2656
19:50:36:929,0.6166,1.6586,10.3131,41.581,-0.1939,0.2843,0.5145,198.6875
19:50:36:944,0.5484,1.4671,10.452,38.986,-0.1915,0.3011,0.4055,198.125
19:50:36:965,0.0731,1.5712,10.1635,39.7508,-0.1926,0.2998,0.3041,197.4844
19:50:36:985,-0.5278,1.6837,9.5003,41.0892,-0.3228,0.4185,0.364,196.8594
19:50:37:012,-0.7457,1.6933,9.1699,40.1206,-0.6927,0.6417,0.5946,196.3594
19:50:37:027,-0.5781,1.1295,10.3874,41.3696,-1.1822,0.7983,0.842,195.9688
19:50:37:045,-0.1591,0.1251,12.4524,39.8916,-1.3763,0.6217,0.9435,195.4844
19:50:37:073,0.5651,-0.3286,13.4112,42.0879,-1.0078,0.1203,0.8103,194.7344
19:50:37:084,0.7016,-0.1227,11.9017,42.3712,-0.3364,-0.2531,0.5142,193.0469
19:50:37:106,-0.5518,0.5333,9.3746,40.2291,0.0748,-0.2654,0.3384,191.9375
19:50:37:130,-1.6232,1.096,7.9082,39.2318,0.0599,0.1288,0.5475,191.2188
19:50:37:149,-1.7022,1.1941,7.233,41.9058,-0.2738,0.5608,0.8772,190.8125
19:50:37:167,-1.0713,0.9367,7.579,41.4576,-0.6732,0.5014,1.1233,190.3594
19:50:37:186,-0.3459,0.9954,8.4529,42.4119,-0.9364,0.1088,1.1331,189.5
19:50:37:210,-0.1866,1.1175,9.2836,41.5357,-0.9305,-0.316,1.0093,188.3125
19:50:37:227,-0.268,1.394,9.3495,40.3267,-0.6903,-0.5596,0.919,186.9375
19:50:37:245,-0.2453,1.5987,8.879,41.9139,-0.3795,-0.5133,0.9179,185.7188
19:50:37:266,0.0181,1.6945,8.2685,39.1024,-0.1222,-0.2696,0.9627,184.7188
19:50:37:287,0.2946,1.7328,7.6999,40.775,0.0594,-0.0094,0.9992,183.7188
19:50:37:313,0.4849,1.8094,7.3515,41.2993,0.138,0.1866,1.0082,182.6719
19:50:37:329,0.5424,1.9543,7.4904,42.394,0.1068,0.3171,0.9936,181.6094
19:50:37:346,0.4706,2.0728,8.0458,40.6718,0.0115,0.4122,0.9741,180.4531
19:50:37:367,0.2994,2.1458,9.073,42.4163,-0.0988,0.4598,0.9749,178.7031
19:50:37:385,0.2898,2.0668,10.2545,42.4688,-0.1372,0.4119,0.9949,178.125
19:50:37:411,0.692,1.9291,10.7441,43.0224,-0.0429,0.1973,0.9909,177.0469
19:50:37:428,1.269,1.9435,10.4604,44.0683,0.0953,-0.068,0.8932,175.8906
19:50:37:446,1.524,2.129,10.2593,41.2936,0.1348,-0.2305,0.7605,174.7188
19:50:37:468,1.864,2.3852,10.8016,42.2673,0.0732,-0.1961,0.6609,173.6719
19:50:37:487,2.1369,2.2907,12.0082,42.2681,0.0469,-0.0933,0.5619,172.7344
19:50:37:511,2.4578,2.1913,13.1802,42.6668,0.1563,0.0393,0.4378,171.9375
19:50:37:532,2.4757,1.9555,13.3681,41.5026,0.3806,-0.011,0.2732,171.2812
19:50:37:545,2.4614,2.0381,12.347,43.1688,0.5728,-0.272,0.1025,170.7031
19:50:37:565,2.3021,2.4104,11.4695,41.9803,0.5385,-0.3695,-0.0235,170.2969
19:50:37:585,2.1094,2.3637,11.1116,43.0631,0.3406,-0.3058,-0.0525,170.0781
19:50:37:612,2.1561,2.1566,11.351,42.4516,0.114,-0.2246,-0.0424,170.0781
19:50:37:630,2.1525,1.728,11.9424,43.6821,-0.0546,-0.0837,-0.0525,170.1562
19:50:37:646,1.9837,1.1786,12.5661,43.6821,-0.09,-0.0038,-0.097,170.2188
19:50:37:667,1.7395,0.6231,12.4356,43.0001,0.0716,-0.1647,-0.1711,170.3281
19:50:37:685,1.9215,0.6195,11.0781,43.504,0.3292,-0.3754,-0.2501,170.4375
19:50:37:712,2.2148,0.7021,9.2753,44.5074,0.4178,-0.4566,-0.4035,170.6406
19:50:37:727,2.1166,0.8853,8.6025,44.8748,0.3124,-0.4177,-0.6296,170.9531
19:50:37:744,1.469,1.0445,8.818,44.5253,0.216,-0.1921,-0.7798,171.4375
19:50:37:765,0.6178,1.1367,9.201,45.2727,0.2354,0.0878,-0.8081,172.1875
19:50:37:786,0.1857,1.2516,8.976,44.9372,0.3531,0.1845,-0.7423,173.0469
19:50:37:811,0.4011,1.4742,8.3427,44.3908,0.4309,0.1738,-0.6539,173.9531
19:50:37:831,0.4382,1.6311,7.8986,45.613,0.4325,0.095,-0.6288,174.7812
19:50:37:846,0.139,1.7436,7.5383,45.7408,0.4506,-0.0683,-0.6155,175.4844
19:50:37:869,-0.0274,1.7747,7.002,45.8414,0.5169,-0.2528,-0.5774,176.1562
19:50:37:884,-0.0119,1.734,6.1377,43.8222,0.596,-0.3959,-0.5037,176.8594
19:50:37:905,0.1138,2.0165,5.253,45.5301,0.6117,-0.5178,-0.4198,177.2031
19:50:37:925,0.2312,2.2835,4.7311,44.6407,0.5182,-0.5415,-0.3039,177.8438
19:50:37:945,0.534,2.6665,5.0447,47.3228,0.2937,-0.4102,-0.1657,178.6562
19:50:37:995,1.0655,2.7731,9.1544,46.9989,0.0125,-0.1056,-0.0262,179.0781
19:50:37:995,1.0296,2.6905,11.5138,46.6979,-0.2394,0.4297,0.2202,179.3125
19:50:38:005,0.8644,2.3374,12.839,47.4529,-0.1294,0.3514,0.3477,179.3125
19:50:38:028,1.111,2.1997,12.8869,47.4994,0.045,-0.0198,0.4298,179.2188
19:50:38:048,1.3612,2.1721,12.1555,47.1068,0.1497,-0.3586,0.4607,178.9062
19:50:38:065,1.5228,2.1685,11.2493,47.3092,0.1577,-0.5096,0.4599,178.4688
19:50:38:084,1.4414,2.1877,10.7249,48.5932,0.0975,-0.463,0.4292,177.9844
19:50:38:105,1.0344,2.1326,10.6639,47.9712,0.0184,-0.2726,0.3794,177.5156
19:50:38:132,0.4574,2.0441,10.6388,48.1391,-0.0312,-0.1112,0.3414,176.6562
19:50:38:150,0.0049,2.0524,10.0929,48.9924,-0.1119,-0.0041,0.3994,176.6562
19:50:38:164,-0.104,1.9196,9.3327,49.116,-0.3672,0.0457,0.5728,176.2656
19:50:38:184,0.5436,1.6945,9.7828,49.0198,-0.8165,0.1155,0.7792,175.9219
19:50:38:205,1.5396,0.914,12.2345,49.2792,-1.1481,0.2995,0.8138,175.1719
19:50:38:228,1.8281,0.173,14.4467,49.9726,-0.9159,0.3568,0.5328,174.4219
19:50:38:245,1.2762,0.4016,14.43,49.9434,-0.1127,0.1629,0.0593,173.5625
19:50:38:268,-0.3171,1.0229,12.0896,49.7691,0.8056,0.1533,-0.3109,172.7656
19:50:38:283,-1.9883,1.5904,8.7258,49.5954,1.3103,0.507,-0.3061,172.4219
19:50:38:307,-2.8406,2.0297,5.7151,50.195,1.1721,0.8124,0.0388,172.5781
19:50:38:331,-2.369,2.2536,4.0379,49.8286,0.5047,0.6766,0.5435,172.8594
19:50:38:352,-1.3023,2.1937,4.7083,49.6385,-0.3127,0.1871,0.9334,172.9375
19:50:38:363,-0.5374,1.7891,6.6835,49.137,-0.8504,-0.2816,1.1355,172.7031
19:50:38:384,0.2539,1.6323,8.5642,49.0784,-0.8938,-0.5042,1.2309,171.9531
19:50:38:404,0.9997,1.6263,9.2717,49.5166,-0.5438,-0.3889,1.2325,170.9219
19:50:38:431,1.548,1.6047,8.6097,50.8746,-0.1161,-0.0387,1.1483,169.7031
19:50:38:450,1.6725,2.0728,7.9812,51.0225,0.1526,0.1893,1.0175,168.4062
19:50:38:467,1.3816,2.1099,7.6161,51.4773,0.2921,0.4103,1.0109,167.1406
19:50:38:484,1.6306,2.3326,7.3228,50.7319,0.2719,0.4809,1.0191,165.8438
19:50:38:505,1.8377,2.4942,7.4928,52.0623,0.1491,0.4039,0.9973,164.0312
19:50:38:530,1.9945,2.7444,8.4074,51.6554,-0.0032,0.3003,0.98,162.8438
19:50:38:549,2.3105,2.7396,9.7266,51.2041,-0.0503,0.2369,0.9693,161.625
19:50:38:564,2.7702,2.7001,10.4556,51.2041,0.0738,0.144,0.8977,160.4375
19:50:38:584,3.0982,2.736,10.276,51.9167,0.2866,0.0217,0.7533,159.3438
19:50:38:604,3.3975,2.9515,9.5039,51.3252,0.4272,-0.0097,0.6061,158.2344
19:50:38:628,3.6309,3.1765,9.3243,50.9808,0.3958,0.1213,0.474,157.2656
19:50:38:645,3.747,3.0137,10.288,50.5731,0.2914,0.3008,0.3765,156.4688
19:50:38:664,4.1409,2.7025,11.4025,51.9289,0.2922,0.3283,0.242,155.8594
19:50:38:689,4.2726,2.627,11.8347,51.3185,0.4157,0.1927,0.0162,155.3281
19:50:38:714,3.9362,2.9167,11.3474,53.4657,0.5055,0.0244,-0.1745,154.8906
19:50:38:732,3.5304,3.1609,10.3515,52.3908,0.3878,-0.1216,-0.2307,154.7031
19:50:38:750,3.3197,3.2974,10.0845,52.7088,0.0495,-0.1674,-0.178,154.7656
19:50:38:765,3.2993,3.0149,10.8231,51.0633,-0.327,-0.1104,-0.0605,155
19:50:38:787,3.7734,2.3804,12.0046,50.8835,-0.542,-0.0696,-0.0139,155.3438
19:50:38:810,3.9553,1.8896,12.5529,51.1028,-0.4661,-0.2563,-0.199,155.4531
19:50:38:830,3.613,1.995,11.758,50.7526,-0.1529,-0.5932,-0.5021,155.5
19:50:38:845,2.9462,2.384,9.8439,52.0779,0.114,-0.6891,-0.6816,155.6094
19:50:38:864,2.6409,2.7001,8.1572,50.8961,0.1071,-0.41,-0.6656,156.0625
19:50:38:891,2.5787,2.5911,7.8447,51.0237,-0.1396,0.0007,-0.5998,156.875
19:50:38:903,2.2495,2.1686,8.9137,51.5264,-0.3635,0.2873,-0.6105,157.75
19:50:38:925,1.5779,1.8801,10.1958,51.0271,-0.3598,0.4156,-0.652,158.4531
19:50:38:948,0.9865,1.8166,10.3311,51.7992,-0.127,0.4223,-0.6792,159.1406
19:50:38:965,0.6992,1.831,9.553,51.9949,0.1095,0.3496,-0.6725,159.8281
19:50:38:988,0.6597,1.8382,8.7665,52.0903,0.2381,0.3512,-0.6469,160.5156
19:50:39:012,0.3401,1.3629,7.464,50.923,0.2301,0.4047,-0.6153,161.2344
19:50:39:029,0.8848,1.655,6.4597,52.8215,-0.0083,0.2835,-0.6459,161.9375
19:50:39:045,0.3185,1.2599,7.1169,50.8729,-0.2059,-0.0976,-0.6707,162.5938
19:50:39:064,0.4849,1.2983,7.5143,51.7888,-0.2775,-0.3248,-0.6299,163.5781
19:50:39:084,0.7375,1.333,8.0794,51.6219,-0.1396,-0.6001,-0.591,164.3594
19:50:39:104,0.8752,1.3701,8.5019,51.9295,0.0898,-0.4867,-0.5181,165.1406
19:50:39:128,0.9291,1.4299,8.6875,51.3111,0.3257,-0.1737,-0.423,165.8594
19:50:39:146,1.0177,1.4766,8.8647,49.9044,0.4996,0.0564,-0.3457,166.5312
19:50:39:170,1.129,1.6394,8.8479,50.174,0.5294,0.1062,-0.3154,167.0156
19:50:39:183,0.9746,1.8178,8.8718,51.3855,0.4208,-0.0571,-0.2946,167.375
19:50:39:204,0.7926,2.0752,9.049,49.7133,0.253,-0.2704,-0.2462,167.6875
19:50:39:228,0.5903,2.3481,9.4704,48.7472,0.0642,-0.2829,-0.1591,168.0312
19:50:39:246,0.5209,2.5313,10.039,50.5131,-0.0943,-0.1045,-0.0264,168.3281
19:50:39:263,0.5065,2.4714,10.6388,50.7099,-0.1992,0.275,0.1027,168.5625
19:50:39:284,0.0157,2.2595,10.9692,48.7035,-0.2021,0.5104,0.136,168.6094
19:50:39:304,-0.614,2.1602,10.6675,49.4184,-0.1281,0.4231,0.1877,168.5469
19:50:39:329,-0.7182,2.0309,9.8175,49.8092,-0.1958,0.2383,0.3603,168.3438
19:50:39:346,-0.3375,1.9555,9.8654,49.9561,-0.5444,0.3046,0.5424,167.9531
19:50:39:364,-0.0861,1.4204,11.1032,48.6265,-0.8961,0.4417,0.6159,167.5
19:50:39:384,0.7878,1.1319,11.5988,50.5087,-0.5241,-0.1698,0.2774,166.8906
19:50:39:404,0.2347,1.4192,10.3347,47.9201,-0.1571,-0.3133,0.0228,166.1406
19:50:39:428,-0.9061,1.473,9.3447,48.7976,0.0815,-0.1756,0.0974,166.1406
19:50:39:446,-0.9324,1.7448,8.3631,49.0572,0.0679,0.2857,0.3509,165.25
19:50:39:463,-0.4943,1.4886,7.8459,48.0385,-0.1696,0.5626,0.5984,165.25
19:50:39:484,0.4071,1.3665,8.2326,46.4076,-0.4669,0.4457,0.6822,165.2656
19:50:39:504,1.0572,1.2049,8.9484,44.4528,-0.58,0.0494,0.5739,164.7344
19:50:39:530,1.354,1.4503,9.1591,45.8583,-0.4163,-0.3343,0.3699,164.0312
19:50:39:544,1.2092,1.8405,8.7342,45.3269,-0.0932,-0.4688,0.1994,163.2031
19:50:39:563,0.941,2.1925,7.8351,45.4422,0.212,-0.3333,0.1496,162.5469
19:50:39:582,0.9111,2.5504,7.2043,46.1608,0.3864,-0.0342,0.2122,162.1875
19:50:39:604,1.0835,2.8282,6.9265,44.0005,0.4141,0.3514,0.3432,161.8594
19:50:39:629,1.2224,2.9359,7.069,47.134,0.3364,0.6508,0.4513,161.7656
19:50:39:646,1.2212,2.9419,7.7298,43.4418,0.1971,0.7464,0.5041,161.4219
19:50:39:663,1.1601,2.9622,8.7845,43.1149,0.0716,0.7043,0.5286,160.8906
