Time,Acc_X,Acc_Y,Acc_Z,Meg,Gyr_X,Gyr_Y,Gyr_Z,Ore
20:59:03:370,-1.9392,0.5441,7.1923,61.9731,-0.0067,-0.6467,-0.9383,57.7812
20:59:03:422,-1.179,1.3892,6.7206,62.5227,0.3212,-0.4401,0.724,59.6094
20:59:03:436,-1.4424,1.5963,6.3579,60.8282,0.2312,-0.7373,0.5288,59.6094
20:59:03:454,-1.4544,1.6418,6.3448,61.5321,0.0671,-0.9349,0.3797,59.6094
20:59:03:473,-1.2221,1.722,6.6273,61.5047,-0.1366,-0.9746,0.2481,210.5312
20:59:03:492,-0.8905,1.8549,6.9158,60.1955,-0.3385,-0.9738,0.1182,210.0312
20:59:03:513,-0.9743,1.9255,7.4952,59.8734,-0.4975,-0.9157,-0.0049,209.7188
20:59:03:537,-1.2185,1.4443,9.1963,59.5815,-0.535,-0.2891,-0.0597,209.5469
20:59:03:554,-1.3335,1.4311,9.7757,61.8254,-0.4392,0.1882,-0.0395,209.5156
20:59:03:571,-1.4975,1.3761,10.3562,59.8592,-0.2977,0.2966,-0.0696,209.5938
20:59:03:591,-1.5286,1.0517,10.9907,59.9517,-0.0823,0.2731,-0.1316,209.6875
20:59:03:612,-1.4807,0.5225,11.4839,60.0349,0.1982,0.2761,-0.1492,209.7344
20:59:03:639,-1.2305,0.4842,11.5486,59.7805,0.4743,0.3283,-0.0872,209.8594
20:59:03:650,-1.2676,1.0313,11.1774,60.3881,0.6804,0.2798,0.0327,209.9375
20:59:03:670,-1.422,1.558,10.7142,60.3535,0.7553,0.0577,0.2311,210.0469
20:59:03:689,-0.948,2.0548,9.8535,60.904,0.5984,-0.1594,0.3251,210.0938
20:59:03:709,0.0193,2.4044,9.2058,60.5833,0.2011,-0.1655,0.1443,209.9688
20:59:03:735,0.4634,2.6103,9.2585,60.8519,-0.3111,-0.3562,-0.2645,209.6719
20:59:03:752,0.2252,2.0225,10.7465,59.937,-0.6408,-0.6385,-0.5777,209.4062
20:59:03:768,0.0947,0.8769,12.8163,59.863,-0.6125,-0.7959,-0.6717,209.4844
20:59:03:789,-0.1866,-0.1706,13.6914,59.285,-0.2594,-0.4483,-0.5774,210
20:59:03:807,-0.8331,-0.5429,12.007,61.1277,0.1992,0.1573,-0.2193,210.8125
20:59:03:833,-1.0605,0.0545,8.8671,58.4584,0.4802,0.4225,0.2964,211.6094
20:59:03:850,-0.3351,1.2324,6.5267,60.075,0.4754,0.0313,0.5744,211.9375
20:59:03:867,1.354,2.4571,6.0515,61.273,0.3108,-0.8971,0.2625,212.1719
20:59:03:886,2.3273,2.8557,7.1217,59.7975,0.1888,-1.9418,-0.3884,211.7969
20:59:03:906,2.0448,2.2344,8.7437,60.1419,0.1398,-2.5874,-0.9133,211.1562
20:59:03:926,1.4079,0.75,9.5015,58.5324,0.0541,-2.5069,-1.1492,210.9688
20:59:03:949,0.467,-0.149,9.6667,58.9882,-0.0067,-2.0041,-1.0762,212.25
20:59:03:969,-0.4297,-0.2532,9.6212,59.023,-0.0674,-1.3738,-0.8315,213.8125
20:59:03:985,-0.5075,0.0365,9.6224,58.2799,-0.1209,-0.6374,-0.5852,215.3281
20:59:04:004,-0.2585,0.6135,8.812,58.4048,-0.2621,-0.0182,-0.4605,216.6562
20:59:04:025,-0.14,1.2576,8.0279,58.5726,-0.494,0.3048,-0.4408,217.5938
20:59:04:050,-0.037,1.6634,7.828,59.4872,-0.7044,0.3514,-0.4701,218.2188
20:59:04:066,0.0181,1.8501,8.1608,60.5823,-0.8306,0.2209,-0.5327,218.7188
20:59:04:083,-0.2441,1.7603,8.8251,59.5453,-0.8461,0.0012,-0.5697,219.2344
20:59:04:103,-0.796,1.5221,9.6918,58.3313,-0.7404,-0.1458,-0.4994,219.8438
20:59:04:123,-0.9899,1.1702,10.2353,58.4206,-0.5795,-0.1338,-0.3396,220.5
20:59:04:144,-1.0629,1.0924,10.2736,58.7478,-0.4469,-0.0073,-0.1479,221.1875
20:59:04:168,-1.1036,1.2516,10.106,57.5941,-0.3686,0.1184,0.0287,221.75
20:59:04:185,-0.9552,1.3366,9.8834,57.8975,-0.3153,0.2273,0.173,222.0781
20:59:04:203,-0.8786,1.4168,9.5518,58.8872,-0.2953,0.2923,0.3046,222.1562
20:59:04:222,-0.8666,1.5365,9.4859,57.602,-0.2834,0.3094,0.4378,221.9219
20:59:04:241,-0.6499,1.6514,9.6272,59.0336,-0.2328,0.2851,0.5376,221.5781
20:59:04:266,-0.3423,1.7173,9.5841,59.6843,-0.1976,0.2087,0.5776,221.0938
20:59:04:283,-0.2214,1.7735,9.8762,57.3365,-0.1691,0.1461,0.5936,220.4844
20:59:04:300,-0.195,1.7149,10.1934,58.8793,-0.1228,0.0974,0.6053,220.1562
20:59:04:320,-0.14,1.6239,10.4616,57.4145,-0.07,0.0686,0.6167,219.5156
20:59:04:340,-0.1436,1.564,10.5981,58.0253,-0.0288,0.047,0.6298,218.8438
20:59:04:367,-0.0226,1.4682,10.786,58.0163,0.0144,0.0872,0.6516,218.1406
20:59:04:382,0.2132,1.4216,10.519,58.5969,0.0117,0.0638,0.6418,217.4219
20:59:04:399,0.7555,1.4024,10.0582,59.2853,-0.1044,-0.2733,0.5584,216.7188
20:59:04:418,1.2463,1.2707,10.7297,59.4918,-0.2421,-0.81,0.4013,215.9688
20:59:04:438,1.3157,0.7129,12.4141,57.1219,-0.2037,-1.0704,0.27,215.2656
20:59:04:458,0.9303,-0.0784,13.7177,57.7297,0.0546,-0.8806,0.3115,214.7812
20:59:04:484,0.4849,-0.6734,13.2472,56.1182,0.3776,-0.1905,0.5336,214.3594
20:59:04:498,0.0959,-0.665,12.1722,56.8797,0.7236,0.928,0.8796,214.0312
20:59:04:519,0.3916,-0.3609,10.4484,56.76,1.0091,1.7541,1.1376,213.4219
20:59:04:537,0.5723,0.6734,7.8806,57.6193,1.0322,1.6969,1.2079,212.2969
20:59:04:557,0.9554,1.5628,5.2698,56.3851,0.6261,0.7208,1.0045,210.8125
20:59:04:576,1.3097,1.6909,5.915,55.8573,0.1039,-0.7136,0.605,209.3438
20:59:04:596,1.4306,0.8326,9.9217,55.3828,-0.1134,-1.6699,0.2628,208.1094
20:59:04:617,1.208,-0.3609,14.2492,56.1838,0.0858,-1.6864,0.1307,207.4688
20:59:04:635,1.1422,-0.9367,16.0628,57.1156,0.5697,-0.8968,0.1568,207.2969
20:59:04:655,1.4295,-0.9547,14.8597,56.5808,1.0786,0.1805,0.1557,207.2656
20:59:04:675,1.0488,-0.5596,11.3618,55.8081,1.3167,0.8628,0.2042,207.1094
20:59:04:696,0.552,-0.2388,7.494,57.331,1.167,0.9277,0.3107,206.7969
20:59:04:717,0.3688,-0.2005,4.8041,54.3725,0.7723,0.7949,0.389,206.375
20:59:04:736,-0.0657,-0.0353,3.3712,57.5007,0.2914,0.6441,0.4873,206.375
20:59:04:754,-0.7002,0.155,2.8552,55.0085,-0.2485,0.2987,0.6737,205.8125
20:59:04:776,-1.021,0.5453,3.68,56.419,-0.7662,-0.0965,0.9057,204.8906
20:59:04:795,-0.4285,1.1498,5.6564,56.7786,-1.094,-0.292,1.0817,204.8906
20:59:04:817,0.6537,1.6454,8.0027,55.3776,-1.1345,-0.3208,1.111,202.8125
20:59:04:834,1.6222,2.1243,9.7517,55.0702,-0.9654,-0.2491,0.9736,202.8125
20:59:04:853,2.0053,2.3972,10.7824,54.5835,-0.718,-0.0787,0.7392,201.6875
20:59:04:873,1.7682,2.5959,11.1176,56.4889,-0.5052,0.1288,0.5493,200.5938
20:59:04:893,1.1924,2.6833,10.798,54.2043,-0.3835,0.2998,0.4774,199.5781
20:59:04:914,0.7866,2.7096,10.3742,55.552,-0.3342,0.3546,0.4892,198.7969
20:59:04:934,0.9494,2.7743,10.1491,55.7281,-0.294,0.3424,0.4977,198.2344
20:59:04:953,1.2415,2.985,10.0366,55.8741,-0.2408,0.1962,0.4135,197.7031
20:59:04:974,1.4869,3.0915,10.2509,55.3968,-0.1779,-0.088,0.2463,197.1406
20:59:04:994,1.597,2.821,10.9716,54.1804,-0.106,-0.3511,0.0612,196.5938
20:59:05:017,1.6402,2.0931,11.9065,54.7964,-0.0216,-0.4278,-0.0387,196.1406
20:59:05:036,1.7311,1.2959,12.7109,53.7737,0.0892,-0.2534,-0.0336,195.8906
20:59:05:054,2.1178,0.6135,12.6403,54.7619,0.1489,0.018,-0.027,195.8438
20:59:05:073,2.3548,0.5226,11.7904,55.3602,0.0631,0.0798,-0.0698,195.9219
20:59:05:093,2.5128,0.8434,11.4408,53.6521,-0.1244,-0.2329,-0.2371,195.9531
20:59:05:114,2.5224,0.7165,12.4368,53.6521,-0.2069,-0.5703,-0.4925,195.9688
20:59:05:134,1.9849,-0.0138,13.6566,54.6259,-0.0338,-0.5069,-0.6438,196.125
20:59:05:153,1.1948,-0.8098,13.246,54.677,0.2826,-0.1026,-0.5676,196.5781
20:59:05:174,0.9351,-1.0241,11.1439,57.0908,0.498,0.3339,-0.3692,197.2969
20:59:05:194,1.5312,-0.7799,8.6348,54.3618,0.5007,0.4071,-0.2571,197.9844
20:59:05:216,2.2255,-0.319,6.9002,54.6434,0.3172,0.0409,-0.3007,198.4844
20:59:05:233,2.4602,0.2783,6.6656,54.4341,0.0535,-0.4374,-0.4533,198.7344
20:59:05:254,2.3776,0.513,7.5466,56.4534,-0.1478,-0.6419,-0.6445,198.9844
20:59:05:274,2.1357,0.2388,8.5019,54.8164,-0.2495,-0.5029,-0.8091,199.375
20:59:05:294,1.3576,-0.0569,9.0047,56.3384,-0.2719,-0.1434,-0.8355,200.0469
20:59:05:317,0.4454,-0.064,8.7701,54.7454,-0.2626,0.1861,-0.7093,200.4844
20:59:05:366,-0.049,0.2735,8.2541,53.1459,-0.2234,0.3051,-0.5239,201.4062
20:59:05:366,0.0001,0.6937,7.8902,56.7708,-0.1571,0.2721,-0.3852,202.4062
20:59:05:384,0.291,1.0157,7.5885,54.1325,-0.0927,0.1573,-0.3282,203.2344
20:59:05:394,0.4095,1.3545,7.3383,55.4012,-0.0724,-0.0164,-0.333,204.0625
20:59:05:414,0.5951,1.5437,7.4162,55.3248,-0.1119,-0.1903,-0.3777,204.4531
20:59:05:434,0.5939,1.3952,8.5714,56.2107,-0.1848,-0.2781,-0.4472,204.8281
20:59:05:457,0.364,1.2121,9.231,54.5297,-0.2679,-0.2403,-0.4909,205.25
20:59:05:474,0.1102,1.1067,9.7086,56.9055,-0.3433,-0.0483,-0.4749,205.7188
20:59:05:493,-0.1627,1.0744,9.7744,55.979,-0.3646,0.194,-0.4043,206.2969
20:59:05:516,-0.2621,1.0816,9.5889,54.6114,-0.3177,0.3911,-0.2877,206.9062
20:59:05:534,-0.1579,1.163,9.2154,54.3578,-0.2304,0.4753,-0.15,207.4219
20:59:05:553,-0.1687,1.2707,9.0717,55.4236,-0.1569,0.4042,-0.0312,207.8438
20:59:05:573,-0.3447,1.3521,9.4584,55.2132,-0.1329,0.2417,0.0633,208.0938
20:59:05:593,-0.2932,1.3162,10.1348,55.8132,-0.1324,0.1403,0.1773,208.1875
20:59:05:613,-0.2022,1.3461,11.0793,55.0244,-0.1353,0.1131,0.2852,208.1719
20:59:05:634,-0.025,1.2408,11.9544,54.0521,-0.1246,0.1866,0.3738,208.0469
20:59:05:653,0.1569,1.1247,12.3781,53.7556,-0.0847,0.3445,0.4489,207.7812
20:59:05:674,0.5987,1.1199,12.1806,54.8591,-0.0394,0.4859,0.544,207.4219
20:59:05:693,1.0344,1.2312,12.0537,53.3297,-0.0213,0.4598,0.6063,206.6875
20:59:05:713,1.5959,1.084,12.5326,53.428,-0.0344,0.1794,0.6002,206.0469
20:59:05:733,1.5264,0.7799,13.944,53.4023,-0.0732,-0.2933,0.5139,205.375
20:59:05:753,0.9877,0.3825,15.5457,53.0028,-0.0312,-0.5937,0.4551,204.6875
20:59:05:774,0.8333,-0.2316,15.092,52.5165,0.2623,-0.4656,0.5184,204.1094
20:59:05:794,0.8153,-0.3142,12.4129,52.6692,0.7204,0.0308,0.6649,203.625
20:59:05:814,1.2655,-0.1526,8.9006,53.1385,1.0882,0.5288,0.8205,203.3594
20:59:05:833,1.4402,0.2592,6.4214,52.6654,1.1316,0.6284,0.8457,202.6562
20:59:05:858,1.3648,0.6877,5.6708,52.1881,0.8509,0.4106,0.785,200.6719
20:59:05:878,1.3983,0.8577,6.3902,52.1171,0.1326,-0.3676,0.54,199.625
20:59:05:902,1.366,0.7751,7.8244,50.793,-0.0192,-0.6454,0.3699,198.7344
20:59:05:917,1.0428,0.5094,9.2609,50.447,-0.0389,-0.7112,0.267,198.0469
20:59:05:937,0.5771,0.2688,10.3838,50.9992,0.0474,-0.5264,0.2668,197.3906
20:59:05:967,0.3161,0.0461,10.719,50.7191,0.1933,-0.1751,0.3342,197.1406
20:59:05:977,0.2431,-0.0329,10.045,50.314,0.3175,0.1608,0.4423,196.8906
20:59:05:995,0.3844,0.1502,8.8718,51.0775,0.3619,0.3562,0.5446,196.5
20:59:06:019,0.6849,0.5273,7.8806,50.0813,0.3531,0.3669,0.597,195.9531
20:59:06:037,1.117,0.9308,7.245,52.1586,0.3233,0.2508,0.5621,195.2656
20:59:06:054,1.4989,1.3306,7.0223,50.2267,0.2402,0.1488,0.4196,194.5625
20:59:06:074,1.3014,1.6718,7.0439,50.2504,0.0578,0.1464,0.218,193.875
20:59:06:100,0.461,1.8813,7.3779,48.5013,-0.1446,0.2172,0.1302,193.3594
20:59:06:114,-0.3961,1.8848,7.9106,49.6343,-0.2639,0.1951,0.2053,193.1094
20:59:06:134,-0.8438,1.8896,8.8024,49.4989,-0.2554,0.1299,0.4042,193.1094
20:59:06:153,-0.7864,2.0429,9.7074,47.6908,-0.0927,0.0862,0.6673,192.9531
20:59:06:173,-0.0609,2.2907,10.1001,49.305,0.1702,0.0457,0.8474,192.7344
20:59:06:193,0.8465,2.6642,9.5745,48.4843,0.3728,-0.0235,0.8665,192.2969
20:59:06:215,1.5468,2.9311,8.7426,48.6642,0.396,-0.1817,0.7352,191.5312
20:59:06:234,1.9765,2.9191,8.3248,47.3722,0.2402,-0.4134,0.5059,190.5469
20:59:06:253,2.0196,2.5397,9.1316,48.4741,0.0096,-0.5093,0.2926,190.0312
20:59:06:276,1.7922,1.7556,10.792,48.8848,-0.1345,-0.3271,0.2079,188.7188
20:59:06:292,1.8029,1.0373,12.1339,45.6499,-0.122,0.0169,0.2407,188.1406
20:59:06:313,2.3405,0.5321,12.3386,48.5431,-0.0413,0.3429,0.2724,187.8594
20:59:06:334,2.9797,0.416,11.7664,46.8897,0.0072,0.5656,0.2215,187.6719
20:59:06:358,3.6932,0.2592,10.8099,45.3671,-0.0261,0.5879,0.0263,187.4062
20:59:06:375,4.0463,0.3478,9.7996,45.9126,-0.1553,0.3794,-0.2991,187.0625
20:59:06:392,3.9374,0.3238,9.2094,45.6089,-0.3601,-0.0009,-0.6872,186.7812
20:59:06:412,2.9067,-0.0269,9.8163,45.9904,-0.4764,-0.3501,-0.9055,186.7031
20:59:06:435,2.0711,-0.6039,11.0051,46.2546,-0.3337,-0.4702,-0.8677,187.0312
20:59:06:452,2.0675,-0.9726,11.1224,47.6943,-0.0618,-0.4499,-0.741,187.8438
20:59:06:472,2.3668,-0.8649,10.1168,45.8832,0.0565,-0.4366,-0.6398,188.8906
20:59:06:492,2.6984,-0.513,9.134,46.7344,-0.0477,-0.4904,-0.6238,189.9531
20:59:06:513,2.9498,-0.082,9.152,48.6961,-0.2149,-0.4592,-0.6888,190.8281
20:59:06:534,2.8959,0.2304,9.4931,46.9679,-0.2943,-0.2467,-0.8022,191.9219
20:59:06:553,2.6337,0.4878,9.2525,47.8821,-0.2977,0.0316,-0.9194,192.7031
20:59:06:573,2.2423,0.7668,8.3846,47.2917,-0.3127,0.2396,-1.007,193.625
20:59:06:593,1.7527,1.0995,7.549,45.6724,-0.3342,0.2926,-1.0515,194.5938
20:59:06:613,1.4235,1.3785,7.1085,47.6881,-0.3196,0.2004,-1.0874,195.7188
20:59:06:634,1.2475,1.5652,6.9469,46.1644,-0.2828,0.0891,-1.137,196.9219
20:59:06:653,1.0811,1.6909,6.9218,47.8457,-0.2738,0.0114,-1.1825,198.0938
20:59:06:675,0.9291,1.8429,7.2749,47.9332,-0.2839,-0.0448,-1.2163,199.3906
20:59:06:692,0.9698,2.0297,8.1344,46.6554,-0.2333,-0.068,-1.2696,200.7344
20:59:06:712,0.8716,2.1123,8.8431,47.2571,-0.1012,-0.0395,-1.3482,202.1406
20:59:06:734,0.4706,2.0824,9.0179,47.8829,0.0149,0.0273,-1.3844,203.5
20:59:06:753,-0.0885,2.0129,8.6827,47.0493,0.0258,0.1043,-1.3447,205.0312
20:59:06:772,-0.6308,2.086,8.3727,46.5659,-0.0921,0.1371,-1.2395,206.5938
20:59:06:793,-1.0126,2.171,8.818,46.7235,-0.2434,0.1474,-1.0904,207.3906
20:59:06:814,-1.2197,2.2739,9.9313,47.1909,-0.31,0.1834,-0.941,208.8438
20:59:06:834,-1.5118,2.3158,11.1104,48.3177,-0.2637,0.2247,-0.7873,210.9219
20:59:06:854,-1.92,1.9375,12.6618,48.1795,-0.1744,0.2409,-0.5876,212.0312
20:59:06:873,-1.6184,1.6011,13.2867,46.7494,-0.0884,0.2271,-0.3351,213.0312
20:59:06:892,-0.8427,1.2731,13.7967,47.4752,-0.0101,0.1797,-0.0746,213.8281
20:59:06:912,-0.0777,1.2779,13.8649,48.1096,0.0703,0.2122,0.1467,214.3594
20:59:06:934,0.5065,1.3234,13.7273,47.6012,0.1134,0.2276,0.2532,214.5625
20:59:06:952,0.7639,0.9547,14.1858,47.2356,0.1017,0.0846,0.241,214.5
20:59:06:976,0.2826,0.3669,14.8142,48.3381,0.118,-0.068,0.1853,214.2344
20:59:06:992,-0.3016,-0.2352,14.2971,46.8083,0.2895,0.039,0.2199,213.9375
20:59:07:013,-0.2561,-0.5596,11.618,48.3597,0.6227,0.3999,0.392,213.6875
20:59:07:035,0.0217,-0.5369,8.4253,47.429,0.8464,0.6875,0.5773,213.4844
20:59:07:052,-0.013,-0.1766,6.4728,47.023,0.7793,0.6503,0.6972,213.1094
20:59:07:072,-0.1914,0.3825,6.4142,45.6415,0.4996,0.259,0.7733,212.5
20:59:07:092,0.0037,0.677,7.6173,46.3177,0.2282,-0.2433,0.821,211.6719
20:59:07:112,0.3185,0.5956,8.8,47.7712,0.123,-0.6401,0.8069,210.7656
20:59:07:135,0.2611,0.4771,9.2058,46.8009,0.1715,-0.7586,0.7403,209.4219
20:59:07:152,0.1186,0.4675,8.8658,47.1909,0.2264,-0.5692,0.6854,208.5469
20:59:07:172,0.1749,0.4998,8.0913,47.1909,0.2157,-0.194,0.6671,207.7656
20:59:07:192,0.315,0.6159,7.154,46.0618,0.1489,0.1783,0.6418,207.0625
20:59:07:215,0.3748,0.8625,6.668,45.856,0.0309,0.3871,0.5914,206.2969
20:59:07:235,0.3425,1.0122,6.7422,45.3731,-0.0956,0.4492,0.5283,205.5312
20:59:07:253,0.212,1.157,6.9218,47.27,-0.1625,0.4356,0.4833,204.8438
20:59:07:276,0.3114,1.3342,6.923,46.2799,-0.1244,0.3786,0.4785,204.5156
20:59:07:292,0.3748,1.7005,6.753,46.6679,-0.0437,0.263,0.4684,203.9062
20:59:07:313,0.3676,2.2428,6.7039,47.7068,0.0027,0.0865,0.4359,203.3281
20:59:07:337,0.4311,2.5971,7.1396,47.0711,-0.004,-0.1982,0.3581,202.7969
20:59:07:352,0.4395,2.6318,8.2027,46.8461,-0.0549,-0.4923,0.238,202.25
20:59:07:414,0.3365,2.3613,9.3579,46.0379,-0.1313,-0.5234,0.1062,201.7969
20:59:07:414,0.121,2.1279,9.7625,46.7297,-0.1734,-0.2579,0.0151,201.4062
20:59:07:414,0.0468,1.9686,9.7445,46.265,-0.2139,-0.0281,-0.0461,201.3438
20:59:07:438,-0.0047,1.7137,10.4113,46.2991,-0.3196,-0.0526,-0.1007,201.3594
20:59:07:453,-0.3027,1.1905,12.0166,45.4097,-0.4629,-0.2254,-0.1407,201.4219
20:59:07:475,-0.1423,0.2376,13.1874,45.9047,-0.4874,-0.2355,-0.0792,201.7656
20:59:07:494,0.6035,-0.2759,13.0413,46.8435,-0.2424,0.0878,0.3714,201.9062
20:59:07:515,1.8173,-0.0114,12.0561,46.4027,-0.1918,0.0614,0.4569,201.7969
20:59:07:536,2.8983,0.3909,11.1391,47.1428,-0.2378,-0.1618,0.2753,201.3906
20:59:07:555,3.2275,0.5417,10.847,46.1398,-0.3651,-0.4198,-0.0424,200.875
20:59:07:577,2.7115,0.3478,11.4348,46.9671,-0.5004,-0.4971,-0.3263,200.875
20:59:07:593,2.0723,-0.1514,12.4009,48.068,-0.5744,-0.2387,-0.4664,200.5938
20:59:07:613,1.6378,-0.6147,12.839,49.1552,-0.5449,0.1831,-0.4579,200.6875
20:59:07:636,1.6366,-0.6183,12.3243,48.013,-0.4242,0.3837,-0.4214,201.1406
20:59:07:652,1.6892,-0.3442,11.2553,47.1419,-0.2922,0.2971,-0.4291,201.7031
20:59:07:672,1.4953,-0.1766,10.4736,49.3937,-0.1571,0.1568,-0.4182,202.2656
20:59:07:691,1.1841,-0.0605,9.644,49.4782,-0.0061,0.1224,-0.3761,202.7656
20:59:07:711,0.8836,0.161,8.3918,47.3324,0.0871,0.1701,-0.3138,203.2812
20:59:07:735,0.6418,0.4579,7.0965,49.8671,0.0948,0.1988,-0.2472,203.7344
20:59:07:752,0.6358,0.7883,6.1772,48.1567,0.0498,0.1568,-0.1987,204.1562
20:59:07:772,0.7471,1.1965,5.8468,50.299,0.0059,0.0633,-0.1908,204.5
20:59:07:792,0.9267,1.5137,5.9545,49.5678,-0.033,-0.0395,-0.236,204.7656
20:59:07:814,0.959,1.7819,6.4142,48.009,-0.0559,-0.0555,-0.3111,204.9844
20:59:07:834,0.9243,1.9567,7.0043,50.396,-0.0685,0.0034,-0.4017,205.2031
20:59:07:853,0.6633,2.0081,7.5778,48.0916,-0.0698,0.1032,-0.4637,205.625
20:59:07:877,0.4706,1.9626,8.1272,49.6332,-0.0645,0.2124,-0.4906,206.0312
20:59:07:893,0.5304,2.0153,8.7126,50.2559,-0.0929,0.3618,-0.5487,206.5469
20:59:07:912,0.5927,2.3385,9.4213,50.6929,-0.2317,0.6636,-0.688,207.0625
20:59:07:934,0.2778,2.645,10.5933,51.2424,-0.3965,1.1075,-0.8174,207.6406
20:59:07:953,-0.2441,2.4535,11.7257,50.7335,-0.3649,1.4306,-0.8637,208.3281
20:59:07:972,-0.711,1.8896,12.0585,53.0428,-0.1055,1.4447,-0.8041,209.1875
20:59:07:993,-1.179,1.4156,11.2289,52.5825,0.1651,1.1006,-0.6509,210.1094
20:59:08:012,-1.4388,0.9056,10.361,52.4963,0.2964,0.5791,-0.4552,211.0469
20:59:08:035,-1.4364,0.41,10.3562,53.9123,0.314,0.2399,-0.2909,211.4844
20:59:08:052,-1.3849,0.1012,10.4676,53.3999,0.2469,0.1008,-0.1652,212.2031
20:59:08:072,-1.5813,0.0006,10.549,53.5126,0.0932,0.0228,-0.0416,212.6719
20:59:08:091,-1.4951,0.0509,10.9237,53.0523,-0.1252,-0.1455,0.0263,213.0156
20:59:08:113,-1.4783,0.0054,11.9891,54.1276,-0.3302,-0.488,0.013,213.2031
20:59:08:136,-2.4695,-0.5034,14.2923,53.3384,-0.3017,-0.6134,0.1075,213.2188
20:59:08:152,-3.2919,-1.4958,16.3046,53.3384,0.1382,-0.2672,0.429,213.2188
20:59:08:172,-2.9687,-2.2547,14.7328,55.4291,0.6131,0.161,0.8005,213.2031
20:59:08:192,-2.2014,-1.7137,10.8447,54.0748,0.6605,0.157,1.0412,212.9375
20:59:08:213,-1.2413,-0.9715,8.5702,53.733,0.4184,-0.1674,1.0655,212.2188
20:59:08:236,-0.7792,-0.6542,8.478,52.6244,0.217,-0.3996,0.9789,211.1406
20:59:08:253,-1.0138,-0.5225,8.636,53.1854,0.1947,-0.3897,0.9379,209.9688
20:59:08:272,-0.9025,-0.1407,7.652,52.859,0.2626,-0.2528,0.9808,208.8125
20:59:08:291,-0.1148,0.2376,6.5794,51.8204,0.2959,-0.1242,1.0591,207.7344
20:59:08:313,0.4335,0.8386,5.7893,52.2038,0.2653,-0.0837,1.054,206.6719
20:59:08:335,0.8333,1.406,5.4517,53.1073,0.184,-0.1554,0.9419,205.5625
20:59:08:353,0.9554,1.6789,5.9928,52.8508,0.045,-0.2579,0.728,204.3281
20:59:08:372,0.5113,1.4742,6.9828,53.8808,-0.204,-0.1008,0.4282,203.1875
20:59:08:391,-0.1986,1.0732,8.1931,53.3293,-0.5033,0.3911,0.1778,202.2656
20:59:08:411,-0.6056,0.9319,8.9066,53.9036,-0.6456,0.956,0.095,201.6094
20:59:08:432,-0.6439,1.0948,8.6372,53.5921,-0.4788,1.213,0.1097,201.2812
20:59:08:456,-0.7708,1.479,8.0674,54.0335,-0.1571,0.9514,0.1006,201.0625
20:59:08:471,-0.6547,1.4838,8.0123,54.221,0.1044,0.4175,0.0833,200.8906
20:59:08:492,-0.784,1.3138,8.4888,53.1914,0.2461,-0.1026,0.0101,200.7344
20:59:08:512,-0.8666,0.9559,8.9496,54.2431,0.2772,-0.374,-0.0856,200.625
20:59:08:534,-0.8606,0.6494,9.4931,53.3452,0.1702,-0.4009,-0.1737,200.625
20:59:08:552,-0.8079,0.1909,10.4556,54.6257,-0.0466,-0.4038,-0.2741,200.7344
20:59:08:572,-0.7253,-0.5656,11.7628,52.8007,-0.2961,-0.4164,-0.3729,200.8438
20:59:08:592,-0.2597,-1.5065,12.517,53.1704,-0.5002,-0.3263,-0.3833,201.0938
20:59:08:612,-0.6296,-2.0273,13.2269,53.9679,-0.673,-0.2528,-0.337,201.5
20:59:08:634,-1.3263,-2.0213,14.3079,52.0067,-0.7571,-0.3045,-0.2009,201.9531
20:59:08:653,-1.0845,-2.1003,14.7819,52.4408,-0.6184,-0.3431,0.0601,202.3906
20:59:08:675,-0.3099,-1.7388,14.1882,53.9425,-0.31,-0.3253,0.3118,202.7188
20:59:08:691,1.1505,-1.0481,12.9599,52.8285,-0.02,-0.2078,0.4985,202.8125
20:59:08:712,2.629,-0.3968,11.5521,53.2705,0.1587,-0.0424,0.5009,202.5938
20:59:08:735,3.3963,0.0401,10.063,51.2787,0.2344,0.1123,0.2396,201.8438
20:59:08:753,3.4142,0.1622,8.9317,52.5333,0.1933,0.1988,-0.1844,201.2656
20:59:08:771,2.6936,-0.0018,8.0291,51.8632,0.0741,0.2617,-0.6424,200.9844
20:59:08:792,1.3325,-0.2759,7.4892,52.1927,-0.0807,0.3024,-1.0296,201.1875
20:59:08:811,0.1761,-0.5608,7.4928,52.7784,-0.2314,0.2668,-1.2185,201.9219
20:59:08:833,-0.5673,-0.6195,7.7023,52.6624,-0.297,0.2308,-1.1844,203.0938
20:59:08:851,-0.7648,-0.325,7.7777,53.5771,-0.2354,0.209,-0.9908,204.4219
20:59:08:872,-0.4129,0.1311,7.4497,52.4364,-0.0639,0.1738,-0.7548,205.7812
20:59:08:892,0.0169,0.5477,6.8619,54.6178,0.1284,0.0982,-0.5979,206.9062
20:59:08:912,0.1354,0.8925,6.5004,52.8072,0.2546,-0.0129,-0.5631,207.7656
20:59:08:933,-0.1016,0.9846,6.4453,53.4613,0.2868,-0.1383,-0.6107,208.4219
20:59:08:952,-0.523,0.8709,6.6584,55.0876,0.1856,-0.2861,-0.6251,209.0625
20:59:08:972,-0.8367,0.829,7.1755,53.7689,0.1374,-0.3309,-0.538,209.0625
20:59:08:992,-0.7936,1.017,7.8806,52.5675,0.1555,-0.3913,-0.4525,209.7656
20:59:09:013,-0.4548,1.2815,8.6575,52.6774,0.2013,-0.4305,-0.4581,210.4844
20:59:09:035,-0.5793,1.3342,9.3578,52.8782,0.2155,-0.3492,-0.4949,211.8281
20:59:09:053,-1.2126,1.2707,9.9277,52.3838,0.2019,-0.1436,-0.4501,212.0938
20:59:09:071,-1.7596,1.0433,10.2114,52.8294,0.1236,0.1,-0.3117,212.8594
20:59:09:091,-2.0026,1.0588,10.4903,52.1077,0.0011,0.2588,-0.1268,213.4375
20:59:09:111,-1.8458,1.1474,11.0015,53.0994,-0.1095,0.2694,0.0111,213.9531
20:59:09:132,-1.5765,1.145,11.873,53.5977,-0.147,0.2074,0.1043,214.2812
20:59:09:152,-1.1922,1.0517,12.6176,53.283,-0.1356,0.1331,0.1427,214.4062
20:59:09:171,-1.1192,1.1678,12.8713,52.9207,-0.1284,0.0052,0.1395,214.3906
20:59:09:191,-1.343,1.2025,13.0354,52.5529,-0.1364,-0.2728,0.136,214.2812
20:59:09:211,-1.9847,0.9667,13.9559,52.5529,-0.0402,-0.5104,0.2215,214.1094
20:59:09:231,-2.5677,0.5285,14.928,52.6154,0.2482,-0.4281,0.4391,213.9531
20:59:09:251,-2.5365,0.0724,14.2253,51.5003,0.5614,-0.1346,0.7003,213.8125
20:59:09:271,-1.9691,-0.0126,11.9556,50.9842,0.6008,0.0798,0.8892,213.5781
20:59:09:294,-1.2006,0.0928,10.1695,52.4036,0.3971,0.0425,0.9659,212.2656
20:59:09:311,-0.784,0.0305,9.9552,52.049,0.2349,-0.1042,0.9893,211.8125
20:59:09:332,-0.5948,-0.082,10.3239,49.7934,0.2788,-0.1735,1.0042,210.7188
20:59:09:352,-0.6391,-0.0605,9.887,50.7982,0.4083,-0.1234,1.0543,209.5938
20:59:09:371,-0.4117,0.0856,8.7306,51.2134,0.4639,-0.0049,1.1028,208.4531
20:59:09:392,-0.0202,0.258,7.5526,49.1537,0.4621,0.0771,1.0908,207.3281
20:59:09:412,0.0145,0.5764,6.662,49.5803,0.4445,0.017,1.0567,206.0781
20:59:09:435,0.1378,0.7308,6.3651,48.2928,0.4626,-0.1037,1.017,204.7969
20:59:09:486,0.3389,0.671,6.4034,49.4816,0.5297,-0.2126,0.9736,203.6094
20:59:09:486,0.4023,0.683,6.073,48.6193,0.5348,-0.3215,0.9523,202.4062
20:59:09:496,0.5472,0.8015,6.0215,48.8145,0.4171,-0.3988,0.9214,201.2656
20:59:09:511,0.8524,1.0588,6.6261,47.2356,0.2858,-0.3831,0.8388,200.2188
20:59:09:531,1.1948,1.3378,7.4485,46.747,0.2051,-0.2779,0.6873,199.1406
20:59:09:551,1.451,1.5688,8.1608,48.0271,0.1561,-0.105,0.4862,198.625
20:59:09:571,1.7144,1.6801,8.63,46.6375,0.1433,0.0971,0.2457,197.6875
20:59:09:591,1.7395,1.5688,8.5247,46.0988,0.0929,0.1618,-0.0009,196.9531
20:59:09:611,1.4929,1.2947,8.5786,45.2015,-0.0543,-0.0076,-0.1993,196.2031
20:59:09:633,1.3732,0.7033,9.644,46.1228,-0.2392,-0.2353,-0.3505,196.0469
20:59:09:651,1.2415,-1.0493,12.8103,46.7592,-0.3406,-0.218,-0.39,196.1562
20:59:09:671,1.6689,-1.5197,12.3398,45.0137,-0.3135,0.1139,-0.2866,196.5
20:59:09:691,2.0364,-0.908,10.5262,44.6483,-0.257,0.5376,-0.1151,196.9844
20:59:09:710,2.4901,0.2879,9.3387,45.1315,-0.3443,0.666,-0.0145,197.4062
20:59:09:731,2.7642,1.0181,9.4177,45.4598,-0.5353,0.3893,-0.1519,197.625
20:59:09:751,2.2698,0.762,10.5083,44.5789,-0.7417,-0.0608,-0.5338,197.6406
20:59:09:770,0.9638,0.0892,12.183,45.3522,-0.906,-0.4236,-0.9079,197.6719
20:59:09:790,0.1785,-0.4914,13.7345,44.8548,-0.9265,-0.4883,-0.9966,198.0312
20:59:09:810,0.558,-0.3466,13.7105,43.799,-0.7204,-0.2853,-0.8097,198.9531
20:59:09:831,1.4235,0.3394,12.5026,45.1583,-0.4083,-0.0677,-0.6208,200.1562
20:59:09:852,1.8257,0.9703,11.047,43.5356,-0.1726,0.0196,-0.6171,201.2344
20:59:09:870,1.761,0.9918,9.6787,44.8388,-0.0352,0.0745,-0.7769,202.0625
20:59:09:890,1.2666,0.7955,8.2194,45.2969,0.0474,0.1738,-0.9729,203.125
20:59:09:910,0.6813,0.756,7.0247,45.0723,0.0714,0.2292,-1.0829,203.9844
20:59:09:931,0.1067,0.7488,6.6692,45.6335,0.0242,0.2143,-1.0946,205.0781
20:59:09:951,-0.1735,0.8087,6.5016,45.831,0.0184,0.2047,-1.0222,206.3125
20:59:09:970,-0.1735,1.0912,6.0263,45.5162,0.0804,0.2311,-0.9151,207.5
20:59:09:990,-0.0418,1.5185,5.5594,46.9055,0.123,0.222,-0.8312,208.0938
20:59:10:011,-0.134,1.8585,5.7163,46.5327,0.0748,0.1301,-0.8227,209.1875
20:59:10:030,-0.3722,2.0393,6.5363,45.8744,-0.0399,0.0124,-0.8552,210.1719
20:59:10:050,-0.7086,1.9734,7.7729,47.405,-0.1382,-0.1024,-0.881,211.0469
20:59:10:070,-1.0773,1.8693,8.9269,47.4835,-0.1664,-0.1564,-0.8565,212
20:59:10:090,-1.3861,2.05,9.8571,47.6134,-0.1547,-0.0976,-0.7625,213
20:59:10:110,-1.4915,2.2488,10.7932,46.3088,-0.1324,-0.0014,-0.6382,214.0312
20:59:10:130,-1.4987,2.1781,11.4324,46.3539,-0.0759,0.1296,-0.5191,214.9219
20:59:10:150,-1.5166,1.9375,11.5892,45.7973,-0.0053,0.2875,-0.4009,215.7344
20:59:10:171,-1.5501,1.6562,11.8502,47.0497,0.0152,0.3882,-0.2512,216.6719
20:59:10:191,-1.4412,1.309,12.7061,46.6568,-0.0064,0.3858,-0.0635,217.0938
20:59:10:210,-0.7936,1.0517,13.3274,45.6171,0.0226,0.3602,0.152,217.375
20:59:10:230,-0.2489,1.2731,13.246,45.0425,0.085,0.3759,0.3057,217.4219
20:59:10:251,-0.2393,1.3749,13.4675,45.4361,0.0652,0.2921,0.3078,217.25
20:59:10:270,-0.9396,0.8757,15.0441,45.4802,-0.0093,0.009,0.2314,216.875
20:59:10:290,-1.8578,-0.1371,16.6745,45.5553,0.0879,-0.2379,0.2348,216.5156
20:59:10:310,-1.6411,-1.0241,15.1614,45.716,0.5444,-0.0901,0.4601,216.2656
20:59:10:330,-0.6056,-0.981,11.3786,44.7822,1.0482,0.2494,0.7525,216
20:59:10:351,0.3676,-0.4962,8.3271,45.2211,0.6842,0.19,0.6548,215.4688
20:59:10:370,0.3389,-0.1778,8.1117,46.2957,0.1619,-0.06,0.3776,215.4688
20:59:10:391,-0.3135,-0.5393,9.7397,46.5186,-0.0272,-0.0715,0.1989,214.5781
20:59:10:411,-1.1311,-0.9535,10.3598,48.1217,0.0879,0.1482,0.229,213.625
20:59:10:432,-1.6627,-0.9822,9.2082,45.9445,0.2719,0.3743,0.4529,212.8594
20:59:10:450,-1.6136,-0.6973,7.4293,46.1224,0.4003,0.4556,0.7371,212.2188
20:59:10:470,-1.1683,-0.2388,5.7701,46.4195,0.4282,0.4303,0.9667,211.9531
20:59:10:490,-0.626,0.4256,4.6413,46.0441,0.3763,0.3027,1.0988,211.3906
20:59:10:509,-0.1328,0.926,4.2474,46.4873,0.3574,0.079,1.1579,210.5625
20:59:10:530,0.1905,1.011,4.2127,43.6633,0.4274,-0.1807,1.201,209.4219
20:59:10:551,0.127,0.9738,3.923,45.0622,0.4764,-0.4686,1.2737,208.125
20:59:10:570,-0.2154,1.0122,3.8404,44.8882,0.3947,-0.704,1.4122,206.7969
20:59:10:590,0.1988,1.4455,4.5311,43.1603,0.2277,-0.9823,1.4873,205.5156
20:59:10:610,1.4594,2.3242,6.2849,44.1806,0.0685,-1.2635,1.3161,204.0938
20:59:10:630,2.5559,3.0628,8.6935,42.7269,-0.0256,-1.3144,0.8982,202.5469
20:59:10:651,3.0276,3.0796,10.9177,42.5193,-0.0591,-0.9341,0.376,201.0312
20:59:10:670,2.8684,2.6486,11.7185,41.3291,-0.1345,-0.3498,-0.0917,199.6719
20:59:10:690,2.2267,1.8561,11.6431,42.4008,-0.3113,0.1355,-0.3801,198.7969
20:59:10:710,1.7718,1.2791,11.9364,41.6392,-0.4466,0.3656,-0.5122,198.5156
20:59:10:730,1.4618,1.1007,12.6008,42.5665,-0.4061,0.4284,-0.5617,198.8438
20:59:10:750,1.9083,0.8218,12.4883,43.0373,-0.2972,0.3714,-0.607,199.3594
20:59:10:770,2.3955,0.7668,11.6264,44.6705,-0.3111,0.1701,-0.7199,199.9531
20:59:10:790,2.8349,0.8601,10.9907,42.7091,-0.5068,-0.202,-0.966,200.5938
20:59:10:810,2.5416,0.841,11.7628,43.6063,-0.792,-0.496,-1.2619,201.3281
20:59:10:831,1.36,0.2017,13.7823,44.346,-0.9132,-0.2984,-1.3553,202.2969
20:59:10:850,0.3269,-0.5764,15.2775,43.3969,-0.6653,0.2963,-1.1908,203.5938
20:59:10:870,0.0695,-0.6722,13.7716,44.1544,-0.2695,0.6361,-0.9274,205.25
20:59:10:894,1.9957,0.1634,9.462,42.8138,-0.0919,0.3978,-0.7484,206.7812
20:59:10:911,2.3369,0.3442,9.7744,43.8483,-0.1081,-0.1357,-0.8211,207.9375
20:59:10:934,1.9454,0.1179,10.0246,45.7037,-0.1047,-0.4291,-1.0118,208.8281
20:59:10:954,1.1541,-0.2149,9.1771,43.8657,-0.0312,-0.2489,-1.1511,209.6875
20:59:10:971,0.3413,-0.0198,7.5335,44.0888,0.0184,0.2225,-1.1615,210.2031
20:59:10:991,0.2407,0.4256,6.006,44.738,0.008,0.6454,-1.036,211.3281
20:59:11:011,0.388,0.9487,4.9082,45.0278,-0.0056,0.7885,-0.9157,212.6719
20:59:11:032,0.4047,1.4335,4.2163,45.3178,-0.008,0.6327,-0.8802,214.5781
20:59:11:051,0.0288,1.8274,4.1792,46.458,-0.0562,0.3536,-0.9253,215.5781
20:59:11:070,-0.553,1.9507,5.0483,46.179,-0.1747,0.0681,-0.9822,216.5312
20:59:11:091,-1.0821,2.0046,6.2322,44.5893,-0.2922,-0.1234,-0.9916,217.5312
20:59:11:110,-1.7596,2.1063,7.7238,45.1943,-0.3641,-0.248,-0.9452,218.5469
20:59:11:131,-2.2121,2.1159,9.0586,45.2666,-0.384,-0.2574,-0.8422,219.7031
20:59:11:152,-2.424,2.2571,10.0845,45.8561,-0.3558,-0.1801,-0.7037,220.8438
20:59:11:172,-2.6682,2.4475,11.0206,47.0391,-0.315,-0.0728,-0.5761,221.8906
20:59:11:190,-2.8203,2.317,11.8059,42.8901,-0.2605,0.0745,-0.4528,222.75
20:59:11:210,-2.9483,1.9675,12.092,44.8411,-0.1899,0.2502,-0.326,223.5
20:59:11:230,-2.9591,1.5951,12.3195,46.3792,-0.135,0.3275,-0.1591,224.0938
20:59:11:252,-2.5749,1.2755,12.7744,44.4724,-0.123,0.2705,0.0527,224.5156
20:59:11:271,-1.9105,1.2923,12.9611,44.4724,-0.1113,0.1823,0.2615,224.7812
20:59:11:290,-1.4101,1.3569,13.5298,45.126,-0.1254,-0.0598,0.3611,224.8438
20:59:11:311,-1.1683,1.0589,15.086,46.2485,-0.2024,-0.4307,0.3557,224.6406
20:59:11:331,-1.3813,0.1048,17.2599,44.3847,-0.2424,-0.6355,0.3193,224.0625
20:59:11:353,-1.6758,-0.9104,17.7651,44.0904,-0.0253,-0.4105,0.381,223.6719
20:59:11:370,-1.5717,-1.4359,14.6754,45.179,0.4586,0.1909,0.5981,223.3594
20:59:11:398,-1.112,-1.491,10.4831,46.2741,0.8072,0.7451,0.8679,222.9375
20:59:11:410,-0.8534,-1.2193,7.907,45.7182,0.8024,0.8226,1.0894,222.625
20:59:11:431,-0.7732,-0.8553,7.4641,48.1522,0.6128,0.4457,1.2569,221.75
20:59:11:451,-0.438,-0.6303,8.1296,47.236,0.4738,-0.0299,1.4056,220.625
20:59:11:469,0.0683,-0.3633,8.3655,46.6615,0.5004,-0.3495,1.5049,219.2344
20:59:11:542,0.2,0.2628,7.9537,44.504,0.592,-0.4321,1.5046,217.6875
20:59:11:542,0.5747,0.592,7.3946,45.7994,0.5966,-0.3626,1.4372,216.0156
20:59:11:542,0.7591,0.7823,6.8032,45.3042,0.5105,-0.2092,1.294,214.3906
20:59:11:557,0.6549,0.8841,6.4764,46.7074,0.3784,-0.0515,1.1124,211.9219
20:59:11:570,0.4047,0.8889,6.5806,47.9932,0.2549,0.0428,0.9675,210.5156
20:59:11:591,0.2838,0.8314,6.6608,45.2499,0.2168,0.116,0.887,209.2344
20:59:11:610,0.4263,0.8769,6.5052,45.825,0.2541,0.1568,0.8583,208.1094
20:59:11:631,0.6082,1.1091,6.1185,46.9738,0.3004,0.201,0.8394,207.0781
20:59:11:651,0.722,1.4587,6.0527,47.0549,0.269,0.1908,0.7837,206.1094
20:59:11:669,0.7232,1.6789,6.5159,47.8506,0.1704,0.0971,0.6873,205.125
20:59:11:690,0.6549,1.655,7.3958,47.9197,0.0727,-0.0315,0.5669,204.1875
20:59:11:709,0.7686,1.6143,7.9596,47.6203,0.0043,-0.0353,0.4615,203.4375
20:59:11:731,1.1026,1.5269,8.4289,49.7588,-0.0826,0.0345,0.3395,202.7812
20:59:11:750,1.3504,1.1726,9.14,49.9355,-0.4226,-0.0827,-0.0358,202.2656
20:59:11:770,1.4618,0.5968,10.5059,49.4471,-0.6272,-0.1535,-0.1958,202.2656
20:59:11:790,1.4678,-0.0533,12.4105,49.1978,-0.7049,-0.0315,-0.2624,201.8906
20:59:11:810,1.7551,-0.7117,13.2556,49.3018,-0.6597,0.205,-0.2608,201.7031
20:59:11:829,2.4027,-0.8685,12.3662,47.6172,-0.6741,0.3144,-0.3351,201.7656
20:59:11:852,2.6385,-0.568,11.1272,49.8132,-0.845,0.0508,-0.5852,202.0312
20:59:11:876,2.192,-0.6159,11.527,50.1676,-1.0735,-0.3452,-0.9047,202.8281
20:59:11:891,0.6585,-1.2384,13.78,49.3539,-1.0802,-0.2962,-1.0043,203.0469
20:59:11:909,-0.8127,-2.0345,15.3003,50.0333,-0.7326,0.1631,-0.7311,203.7031
20:59:11:929,-0.5254,-2.0847,13.75,51.9175,-0.3015,0.4851,-0.3327,204.7969
20:59:11:953,0.8381,-1.0109,10.8387,50.2899,-0.1065,0.3735,-0.1436,205.9844
20:59:11:971,2.1322,0.2221,9.0418,52.5027,-0.0834,0.0161,-0.2882,206.8438
20:59:11:990,2.4901,1.0062,8.539,52.7476,-0.0956,-0.1583,-0.6334,207.2031
20:59:12:010,2.2136,1.0481,7.9872,52.9596,-0.1545,-0.0816,-0.9788,207.3594
20:59:12:032,1.4151,0.8541,7.2857,51.8064,-0.2743,0.083,-1.2155,207.6875
20:59:12:052,0.2802,0.6135,7.1396,53.7639,-0.3694,0.2422,-1.2747,208.3906
20:59:12:071,-0.6272,0.5106,7.4581,54.9324,-0.3294,0.3568,-1.1873,209.5156
20:59:12:089,-1.1024,0.6051,7.6352,54.6356,-0.1587,0.3922,-1.0336,210.9219
20:59:12:109,-1.2114,0.8422,7.47,54.4108,0.0445,0.3376,-0.8704,212.3125
20:59:12:130,-1.0414,1.1833,7.215,54.598,0.1928,0.2545,-0.7591,214.2812
20:59:12:151,-0.8486,1.5425,7.0223,55.177,0.2477,0.1605,-0.7279,215.3594
20:59:12:171,-0.8343,1.8022,7.1636,56.6683,0.2152,0.0739,-0.742,216.2344
20:59:12:189,-0.9372,1.8633,7.8327,57.0073,0.1806,-0.0318,-0.7585,217.0781
20:59:12:209,-1.1994,1.7723,8.9473,56.1346,0.1992,-0.0893,-0.7263,217.9062
20:59:12:230,-1.3801,1.6849,10.0007,57.5155,0.2578,-0.0624,-0.6635,218.7656
20:59:12:252,-1.4268,1.7879,10.6938,57.6305,0.3212,-0.0086,-0.6158,219.5781
20:59:12:269,-1.1443,1.971,11.1056,56.611,0.3627,0.0731,-0.6275,220.375
20:59:12:289,-0.7756,1.9339,11.1822,57.9071,0.3356,0.1413,-0.7029,221.1094
20:59:12:309,-1.2604,1.7927,11.2936,58.9252,0.2389,0.1733,-0.7407,221.7656
20:59:12:330,-2.0266,1.3234,11.7688,59.7736,0.1481,0.2036,-0.644,222.5312
20:59:12:351,-2.3953,0.7368,12.2477,59.5354,0.07,0.2702,-0.4272,223.3594
20:59:12:369,-2.1642,0.6255,12.1914,59.5418,-0.0378,0.2689,-0.2272,223.7812
20:59:12:390,-1.6878,0.9032,12.0322,60.1072,-0.2538,0.0494,-0.1186,224.4688
20:59:12:409,-1.3095,0.8601,13.3813,60.5463,-0.3963,-0.206,-0.0983,224.9375
20:59:12:431,-2.0781,0.0353,15.3948,59.7422,-0.1555,-0.2568,0.0306,225.2656
20:59:12:453,-2.9088,-1.6598,12.608,60.1561,0.3891,-0.0251,0.4391,225.375
20:59:12:471,-2.0936,-1.4515,9.1555,60.4059,0.7356,0.1362,0.9131,225.4531
20:59:12:489,-1.2652,-0.8098,7.7274,60.7405,0.6432,-0.0305,1.2623,225.2188
20:59:12:509,-0.4584,-0.228,8.5295,60.2297,0.3577,-0.4457,1.4303,224.4688
20:59:12:529,0.0624,-0.0485,9.6416,60.603,0.1973,-0.7785,1.4455,223.2031
20:59:12:549,0.0935,0.0437,9.6057,60.3657,0.2661,-0.8374,1.3792,221.6562
20:59:12:568,0.473,-0.0581,8.7306,57.5182,0.3731,-0.6614,1.3605,220.1094
20:59:12:589,0.4119,0.2257,7.5993,61.2533,0.3872,-0.3602,1.3262,218.5469
20:59:12:609,0.5843,0.3945,6.7685,60.9893,0.3265,-0.1064,1.2828,217.0312
20:59:12:629,0.5436,0.4208,6.2358,60.1089,0.265,0.0071,1.2093,215.5
20:59:12:649,0.2599,0.313,6.0383,61.1511,0.2274,0.0183,1.1315,214.0938
20:59:12:669,0.3832,0.2376,6.1819,60.7199,0.2117,-0.0339,1.1214,212.6406
20:59:12:689,0.6262,0.6028,6.2657,59.3553,0.2282,-0.0776,1.1414,211.2969
20:59:12:709,0.9758,1.1774,6.249,59.809,0.2495,-0.1373,1.1033,209.4219
20:59:12:729,1.3085,1.7232,6.6057,59.8245,0.221,-0.264,0.9829,208.1094
20:59:12:749,1.4893,2.1398,7.4365,58.961,0.1443,-0.3578,0.7829,206.8438
20:59:12:768,1.5468,2.244,8.2146,60.3867,0.0815,-0.3327,0.5403,205.7812
20:59:12:789,1.4498,2.0848,8.454,60.0481,0.0495,-0.1974,0.2716,204.9062
20:59:12:809,1.4283,1.8011,8.8108,61.0379,-0.0445,-0.1202,0.0236,204.3125
20:59:12:831,1.6521,0.9894,10.3646,61.7387,-0.2293,-0.2424,-0.1945,204.0312
20:59:12:852,1.6605,-0.2388,12.6702,60.9674,-0.429,-0.3796,-0.3697,204.0156
20:59:12:869,1.9969,-1.3461,14.175,60.0409,-0.5545,-0.2158,-0.39,204.1094
20:59:12:889,2.8576,-2.1099,13.8793,62.2638,-0.5563,0.1466,-0.2446,204.5
20:59:12:909,3.7961,-1.8322,12.6236,61.449,-0.5433,0.41,-0.0592,205
20:59:12:929,4.0703,-1.1881,12.098,61.1351,-0.6195,0.2857,-0.0411,205.4375
20:59:12:949,2.7163,-1.2911,12.9623,59.3775,-0.7779,-0.0534,-0.2959,205.625
20:59:12:970,1.0141,-2.0668,13.7189,60.2085,-0.8352,-0.1295,-0.5013,205.6562
20:59:12:990,0.6286,-2.2045,12.4907,60.2344,-0.6525,0.201,-0.3673,206.0938
20:59:13:011,1.6653,-1.1199,10.2461,62.668,-0.3939,0.5083,-0.0397,206.7344
20:59:13:030,2.7511,0.416,9.0634,62.2535,-0.2687,0.3663,0.1192,207.1719
20:59:13:053,3.0695,1.7579,9.1927,62.4684,-0.2421,-0.076,-0.0634,207.2344
20:59:13:070,2.605,1.9639,9.2381,61.8476,-0.1598,-0.4156,-0.4946,207.1094
20:59:13:090,1.5731,1.4718,8.4983,61.3799,-0.029,-0.4662,-0.9759,207.1875
20:59:13:109,0.4371,1.066,7.7023,62.2969,0.0293,-0.341,-1.3133,207.75
20:59:13:129,-0.6032,0.7763,7.6807,60.9119,-0.0216,-0.1879,-1.4709,208.8906
20:59:13:152,-1.2628,0.4938,7.9118,62.9502,0.1009,0.1562,-1.3327,210.3906
20:59:13:170,-1.4544,0.4711,7.646,61.8233,0.2503,0.3735,-1.1183,212
20:59:13:189,-1.1264,0.8733,6.9601,64.2283,0.3507,0.5056,-0.9391,213.6875
20:59:13:209,-0.5673,1.4682,6.3675,63.7151,0.3952,0.463,-0.8659,215.2031
20:59:13:229,-0.1579,1.9686,6.4022,64.2877,0.4013,0.2742,-0.872,216.4531
20:59:13:251,0.1138,2.2236,7.0594,63.1074,0.4048,0.0526,-0.9391,217.4375
20:59:13:270,-0.0083,2.1925,7.8782,64.8879,0.3683,-0.1154,-1.0062,218.375
20:59:13:288,-0.3231,1.8872,8.8383,64.3082,0.2943,-0.0816,-0.9934,219.8125
20:59:13:308,-0.5733,1.6179,9.7134,64.3082,0.2123,0.1546,-0.9266,220.3594
20:59:13:328,-0.9444,1.406,9.9792,64.0524,0.0977,0.4292,-0.8097,221.5
20:59:13:350,-1.2844,1.3713,9.9373,66.1055,-0.0892,0.5464,-0.6371,222.625
20:59:13:370,-1.5645,1.3198,10.7238,66.3625,-0.2168,0.5048,-0.4102,223.6094
20:59:13:389,-1.9248,1.0756,12.0417,63.9626,-0.1513,0.3895,-0.1037,224.5
20:59:13:409,-2.0852,0.8972,12.8857,65.3416,0.0439,0.4843,0.2817,225.2031
20:59:13:428,-1.4544,0.999,12.0322,65.6795,0.1611,0.6449,0.5656,225.6406
20:59:13:449,-1.1922,1.7184,10.4017,65.2607,0.0439,0.5767,0.6977,225.7344
20:59:13:471,-1.1874,2.6618,9.8654,63.5383,-0.2336,0.2422,0.7025,225.375
20:59:13:488,-0.96,2.7899,11.3438,63.0979,-0.4019,-0.1223,0.5629,224.6719
20:59:13:509,-1.4987,2.0081,13.5693,63.7987,-0.2937,-0.2654,0.531,223.875
20:59:13:529,-2.0421,0.8446,14.9352,64.2153,0.0522,-0.1508,0.6583,223.0625
20:59:13:597,-2.102,0.0365,13.8877,65.0026,0.3068,-0.0094,0.8388,222.4219
20:59:13:597,-1.7153,0.0449,11.8323,63.4324,0.2663,-0.0227,0.9946,221.5156
20:59:13:598,-0.8247,0.1658,10.9644,62.5267,0.1752,-0.1269,1.0023,220.6719
20:59:13:609,-0.1723,0.0197,10.8566,62.6777,0.2139,-0.1857,0.9195,219.5938
20:59:13:628,-0.037,-0.2292,10.2724,62.3949,0.3124,-0.1077,0.8631,218.4844
20:59:13:649,-0.1328,-0.2771,9.0945,61.9559,0.4061,0.0593,0.8487,217.3906
20:59:13:670,-0.2202,-0.2376,7.5,59.7155,0.4645,0.1786,0.8604,216.3906
20:59:13:692,-0.3243,-0.0748,5.8456,61.0328,0.4511,0.197,0.9006,215.4062
20:59:13:709,-0.1352,0.1454,4.5623,60.4943,0.3348,0.1309,0.9115,214.4688
20:59:13:729,0.4143,0.6578,4.1229,60.2698,0.0589,0.1296,0.78,213.4375
20:59:13:749,1.1182,1.3892,4.4797,61.3773,-0.3984,0.4337,0.4229,212.3594
20:59:13:769,1.3361,1.5928,5.3978,61.0582,-0.9321,1.0308,-0.0368,211.4062
20:59:13:788,0.5328,1.2216,6.5854,61.3381,-1.2682,1.5038,-0.3929,210.6562
20:59:13:808,-0.9516,0.6111,7.9944,61.9212,-1.2083,1.5019,-0.4909,210.3906
20:59:13:828,-2.3534,-0.0796,9.3686,60.655,-0.772,1.0372,-0.268,210.5625
20:59:13:851,-2.1319,-0.6889,9.9612,60.9866,-0.1276,0.3767,0.1496,211
20:59:13:870,-0.5446,-0.2879,9.0442,59.7551,0.4482,-0.2989,0.482,211.2188
20:59:13:889,0.6992,-0.0628,9.1508,59.248,0.6312,-0.8606,0.4817,211.2812
20:59:13:908,1.2343,-0.495,10.6064,59.0086,0.396,-1.0901,0.2007,211.0469
20:59:13:931,1.3301,-1.3042,12.4081,58.1295,0.0146,-0.9306,-0.1481,210.4844
20:59:13:953,1.9586,-2.1518,12.6475,57.9317,-0.2511,-0.4475,-0.4182,210.1406
20:59:13:970,2.1417,-2.165,11.7592,58.4652,-0.469,0.0484,-0.6826,210.1719
20:59:13:990,1.0667,-2.463,12.8486,58.0401,-0.8235,0.1714,-1.0273,210.5469
20:59:14:007,-0.9731,-3.6685,14.8142,58.362,-1.0714,0.115,-1.2797,211.1719
20:59:14:028,-2.3486,-4.2731,14.0685,58.9398,-0.8759,0.3562,-1.133,212.125
20:59:14:049,-1.4532,-3.3896,11.4624,60.719,-0.4783,0.5799,-0.5258,213.4062
20:59:14:068,0.9087,-1.5856,10.1467,59.182,-0.2482,0.308,0.1046,214.8438
20:59:14:090,2.3464,0.2807,10.3311,59.0886,-0.1896,-0.2417,0.2284,215.8281
20:59:14:108,2.7582,1.0972,11.1032,59.2973,-0.2173,-0.4997,-0.1149,216
20:59:14:128,2.0148,1.072,10.7908,57.9234,-0.2735,-0.0848,-0.6757,215.7188
20:59:14:148,0.4406,0.9092,9.0478,58.6113,-0.2871,0.6843,-1.2038,215.5938
20:59:14:169,-0.705,0.7524,7.2174,60.1102,-0.2796,1.3033,-1.5077,216.4688
20:59:14:188,-1.2018,0.7883,5.9437,59.1593,-0.2514,1.6215,-1.5769,217.8438
20:59:14:208,-1.4687,0.9343,5.0387,59.7493,-0.1449,1.605,-1.5274,219.5781
20:59:14:228,-1.6088,1.0134,4.4581,59.6958,0.0202,1.278,-1.4454,221.2969
20:59:14:249,-1.9117,1.0038,4.3552,60.0887,0.1718,0.7882,-1.3516,223.0781
20:59:14:269,-2.3271,0.8733,4.7921,61.4296,0.281,0.2348,-1.2589,224.75
20:59:14:293,-2.6838,0.598,5.6852,61.1544,0.3228,-0.2558,-1.1774,226.3438
20:59:14:308,-3.1411,0.3549,6.7889,59.5823,0.2711,-0.5298,-1.0938,226.3438
20:59:14:328,-3.7995,0.0832,8.3547,62.4656,0.147,-0.6561,-1.002,228.4375
20:59:14:349,-4.5249,-0.3837,10.5059,59.8351,0.0155,-0.6478,-0.8904,229.7656
20:59:14:368,-5.4515,-0.6997,11.9412,60.9498,0.0189,-0.4568,-0.6677,230.9062
20:59:14:388,-6.1302,-0.8805,11.7509,59.5267,0.1467,-0.0451,-0.3037,232
20:59:14:409,-5.3857,-0.8338,10.3562,60.6039,0.2434,0.3709,0.197,232.8906
20:59:14:428,-3.979,-0.1275,9.7517,59.6307,0.1316,0.4862,0.6537,233.4688
20:59:14:449,-2.9496,0.4603,10.9129,60.2802,-0.1161,0.2012,0.8809,233.5469
20:59:14:469,-2.1343,0.3226,12.2513,60.2367,-0.2567,-0.1503,0.8894,232.6406
20:59:14:487,-1.6531,0.167,12.7911,60.1864,-0.2272,-0.3881,0.8149,231.625
20:59:14:508,-1.531,0.1467,13.0198,59.0873,-0.1422,-0.6142,0.7129,230.6406
20:59:14:528,-2.0984,-0.1538,14.7532,60.367,-0.1574,-0.9921,0.5517,229.6875
20:59:14:548,-2.7125,-0.8996,17.3078,59.6878,-0.118,-1.2214,0.4652,228.8438
20:59:14:569,-2.3115,-1.8094,16.8996,60.0161,0.7699,0.0321,0.7906,228.2188
20:59:14:588,-1.3227,-1.8465,13.0378,57.7295,0.8498,0.4721,0.8916,228.2188
20:59:14:608,-0.2297,-1.339,10.1767,58.4376,0.5816,0.2851,0.8178,227.6562
20:59:14:627,0.1043,-1.0924,9.978,58.6656,0.4317,-0.0627,0.6535,226.9844
20:59:14:648,-0.1699,-1.2396,10.361,57.5429,0.538,-0.2278,0.5589,226.1406
20:59:14:669,-0.5182,-1.406,9.5362,59.0887,0.6954,-0.2105,0.5848,224.25
20:59:14:688,-0.6391,-1.2528,7.9034,57.7384,0.7372,-0.1873,0.6729,223.5156
20:59:14:708,-0.3602,-0.8924,6.4357,58.3989,0.6525,-0.2161,0.7294,222.2969
20:59:14:728,0.0193,-0.4998,5.7618,57.2862,0.5241,-0.2749,0.7291,221.9375
20:59:14:748,0.4215,-0.1263,5.9772,56.3224,0.4911,-0.3269,0.6785,221.1562
20:59:14:770,0.8884,0.2819,6.3771,56.3324,0.5856,-0.4395,0.5515,220.3906
20:59:14:787,1.2176,0.7763,7.0043,56.5525,0.7827,-0.5679,0.3746,219.9844
20:59:14:808,1.1003,0.7847,6.814,56.4314,0.9377,-0.6177,0.1917,219.2344
20:59:14:828,0.5843,0.5118,6.0838,54.8534,0.8397,-0.5154,0.0966,218.6562
20:59:14:850,0.0468,0.4292,5.7498,54.3716,0.5382,-0.2864,0.1118,218.2969
20:59:14:869,0.0827,0.6602,6.1293,55.3036,0.2408,-0.1261,0.1107,218.1406
20:59:14:887,0.2838,0.9415,7.1396,55.9053,0.0764,-0.0763,0.0207,218.0781
20:59:14:908,0.2611,1.0959,8.1464,57.0952,0.0487,-0.0166,-0.0826,217.9844
20:59:14:927,0.2755,1.06,8.5115,54.5861,0.0359,-0.0166,-0.2105,217.8594
20:59:14:948,0.1917,0.9619,8.636,54.7561,-0.1044,-0.1149,-0.3434,217.8438
20:59:14:968,0.1845,0.7428,9.6511,54.5054,-0.331,-0.1687,-0.4693,217.9375
20:59:14:987,0.145,0.4902,11.5773,54.8014,-0.4597,-0.0646,-0.5716,218.1719
20:59:15:008,0.5951,-0.1634,13.1862,56.6134,-0.4269,0.2406,-0.6177,218.8438
20:59:15:029,2.2076,-0.8757,12.6451,55.7868,-0.4884,0.4273,-0.8102,219.4375
20:59:15:048,3.1198,-0.8326,11.3786,55.0557,-0.857,0.287,-1.2376,220.1094
20:59:15:071,1.7862,-0.7093,11.9628,58.4269,-1.3702,0.0803,-1.5918,220.8594
20:59:15:089,-0.2992,-1.4982,14.9687,56.4745,-1.5236,0.307,-1.5287,221.9062
20:59:15:111,-2.2074,-1.9818,17.5652,56.0367,-1.0506,0.9072,-0.9734,223.5625
20:59:15:128,-1.7656,-1.4168,16.2436,55.6374,-0.3153,1.2068,-0.2858,225.3906
20:59:15:149,1.0093,-0.2544,12.4763,55.9496,0.1585,0.6276,0.0045,226.8438
20:59:15:172,3.8979,1.0505,10.3467,56.6341,0.3787,-0.472,-0.2704,227.4375
20:59:15:188,5.1153,1.5748,10.4245,55.7768,0.539,-1.1807,-0.9053,227.4844
20:59:15:212,4.2893,1.0349,10.6926,55.174,0.7151,-1.2145,-1.4901,227.5781
20:59:15:229,3.1066,0.0066,9.802,55.2956,0.8325,-0.7727,-1.8334,228.2344
20:59:15:249,1.9035,-0.835,7.7908,55.4565,0.7766,-0.1231,-1.9258,229.7031
20:59:15:270,0.2132,-0.6434,4.0655,54.9822,0.5742,0.3453,-1.8201,230.6562
20:59:15:290,0.042,-0.24,3.5974,56.028,0.3382,0.4782,-1.6534,233.9219
20:59:15:314,0.0863,0.2316,4.105,55.4353,0.179,0.2984,-1.4976,235.9688
20:59:15:327,0.2288,0.4986,4.7263,54.5459,0.1603,-0.0204,-1.3961,237.9375
20:59:15:350,-0.1328,0.6494,5.065,55.5598,0.2181,-0.2848,-1.3791,239.7188
20:59:15:372,-0.7481,0.6183,6.176,55.5598,0.1766,-0.4931,-1.4017,241.2812
20:59:15:390,-1.276,0.167,7.6197,55.636,0.0559,-0.5399,-1.391,242.875
20:59:15:407,-1.7034,0.179,8.8335,53.55,-0.0639,-0.4289,-1.3133,244.5
20:59:15:429,-1.8171,0.5561,9.3232,54.308,-0.135,-0.2667,-1.2115,246.0781
20:59:15:448,-2.3714,1.005,9.9624,55.235,-0.2719,-0.0869,-1.1799,247.6719
20:59:15:471,-2.9735,1.0864,10.8483,54.0879,-0.4743,0.1996,-1.1418,249.1406
20:59:15:488,-3.3326,0.9762,11.0326,54.5652,-0.5814,0.5757,-0.9969,250.5
20:59:15:511,-3.3206,1.1367,10.9368,54.4219,-0.5803,0.7911,-0.7311,251.7656
20:59:15:527,-3.1363,1.4371,11.1751,56.2661,-0.5486,0.7054,-0.4552,252.9688
20:59:15:547,-2.6239,1.3593,11.9771,55.9635,-0.5529,0.4521,-0.2885,254.2656
20:59:15:571,-2.3103,0.9583,13.6938,54.1796,-0.641,0.2167,-0.2179,254.7031
20:59:15:591,-2.0996,0.489,15.827,55.6596,-0.7175,0.0774,-0.1649,254.9844
20:59:15:607,-1.8458,-0.0317,17.5795,54.6991,-0.5734,-0.043,-0.0917,255.1875
20:59:15:662,-1.9248,-0.5573,17.8692,55.5013,-0.2024,0.0111,-0.0275,255.3281
20:59:15:663,-1.8027,-1.0361,15.9323,54.2665,0.2437,0.3927,0.0862,255.3906
20:59:15:674,-1.0881,-1.3844,12.7923,52.7537,0.603,0.8023,0.2316,255.4062
20:59:15:687,-0.28,-1.6179,10.4137,52.0865,0.7097,0.8827,0.3171,255.3906
20:59:15:708,0.0085,-1.4898,9.8702,53.5168,0.5981,0.5496,0.3451,255.2344
20:59:15:727,-0.0729,-1.151,10.2497,53.9664,0.5246,0.0473,0.3432,254.9375
20:59:15:747,0.1007,-1.1247,10.0211,53.198,0.6101,-0.3061,0.3107,254.5781
20:59:15:770,0.4347,-1.0684,9.146,53.1504,0.7417,-0.4076,0.3099,254.2344
20:59:15:791,0.8321,-0.926,7.8232,53.1906,0.8264,-0.3263,0.3328,253.9062
20:59:15:807,0.9135,-0.7632,6.3795,51.8699,0.8618,-0.2422,0.3185,253.6406
20:59:15:827,0.9183,-0.6758,5.3069,53.1457,0.8235,-0.2227,0.2745,253.2188
20:59:15:848,1.0284,-0.5453,4.5611,52.6211,0.7183,-0.2201,0.2407,252.9375
20:59:15:869,1.0332,-0.2831,4.3612,50.2645,0.5401,-0.2305,0.2117,252.7031
20:59:15:888,1.0093,0.0233,4.6197,51.0146,0.3473,-0.2414,0.1869,252.5
20:59:15:909,1.0069,0.2903,5.1405,51.1544,0.1971,-0.2659,0.18,252.3125
20:59:15:927,1.0524,0.5896,5.429,51.1429,0.1065,-0.2563,0.1776,252.1406
20:59:15:947,0.8477,0.9762,6.0287,50.0625,0.0035,-0.2323,0.1611,251.9844
20:59:15:970,0.4478,1.8561,6.6536,50.6594,-0.2003,-0.1394,0.14,251.8281
20:59:15:992,0.2108,2.8677,7.4377,52.1524,-0.1691,-0.2273,0.071,251.6719
20:59:16:009,0.6956,3.4375,7.8603,49.5976,-0.0519,-0.5487,-0.1236,251.3594
20:59:16:027,1.5168,3.6075,7.986,50.4314,-0.0658,-1.0851,-0.4339,251.3594
20:59:16:047,2.3105,3.2914,9.0382,50.5927,-0.3345,-1.6305,-0.8605,251.2969
20:59:16:070,1.8472,2.1841,12.2932,50.3035,-0.7247,-1.5948,-1.2076,251.5
20:59:16:087,0.3042,0.7105,17.1055,48.9854,-0.7803,-0.6435,-1.2044,252.1094
20:59:16:110,0.1569,-0.744,19.2579,48.0282,-0.3212,0.4529,-0.9886,254.75
20:59:16:128,0.7531,-0.8912,16.6398,48.8604,0.1907,0.8367,-0.8043,255.5156
20:59:16:149,2.0017,-0.501,13.009,48.8065,0.3992,0.4148,-0.9303,256.7969
20:59:16:170,2.7666,-0.4746,11.0925,48.3732,0.3087,-0.2358,-1.3551,257.6875
20:59:16:188,1.8987,-1.0014,11.4468,48.8352,0.0791,-0.4691,-1.717,258.5625
20:59:16:207,0.8967,-2.2847,12.7181,49.3984,0,-0.1269,-1.7897,259.125
20:59:16:227,0.443,-3.2854,12.3015,47.6582,0.0077,0.3727,-1.6267,260.625
20:59:16:246,0.4167,-3.1382,10.5406,47.2629,-0.0354,0.5096,-1.3543,262.625
20:59:16:267,0.7076,-2.4128,9.2262,47.37,-0.0602,0.23,-1.1681,264.7031
20:59:16:287,0.7722,-1.7005,8.7797,47.845,0.0045,-0.0656,-1.0573,266.5312
20:59:16:307,0.5628,-1.1774,8.229,47.8321,0.1047,-0.1461,-0.9484,267.9531
20:59:16:326,0.3592,-0.641,7.0032,46.9237,0.1289,-0.0981,-0.8456,269.2656
20:59:16:347,0.4418,-0.0054,5.7713,48.9989,0.0703,-0.0534,-0.8001,270.4844
20:59:16:369,0.6645,0.489,4.9645,47.3737,-0.0277,-0.0893,-0.8491,271.5312
20:59:16:386,0.8082,0.8877,4.6185,45.6036,-0.1385,-0.1897,-0.9716,273.4375
20:59:16:406,0.625,1.1558,4.9298,46.907,-0.2378,-0.2747,-1.1103,273.9062
20:59:16:427,0.1701,1.327,5.6409,45.7788,-0.3084,-0.2544,-1.2052,274.9062
20:59:16:447,-0.2932,1.4838,6.4645,48.2218,-0.3712,-0.15,-1.2677,276.125
20:59:16:466,-0.7792,1.5688,7.4221,45.6751,-0.445,0.0137,-1.2834,277.4688
20:59:16:486,-0.863,1.8837,8.4301,45.0775,-0.6352,0.487,-1.3309,278.8125
20:59:16:507,-0.6798,2.2835,9.462,46.2013,-0.9638,1.3461,-1.5258,280.2812
20:59:16:527,-1.1707,2.7671,10.6483,44.0895,-1.1896,2.2332,-1.794,281.7344
20:59:16:549,-2.1128,2.6318,11.6347,46.815,-1.0016,2.6543,-1.9716,283.25
20:59:16:568,-3.3039,1.7268,11.0996,46.4936,-0.5262,2.3001,-1.9279,284.9219
20:59:16:587,-4.5513,0.8673,10.1324,46.3197,-0.0623,1.2982,-1.644,286.9219
20:59:16:606,-5.3174,0.0616,10.2018,45.742,0.2373,0.1605,-1.251,289.0625
20:59:16:627,-5.0624,-0.6351,11.6898,46.1174,0.3787,-0.4092,-0.88,290.9844
20:59:16:647,-4.0257,-1.1462,12.7923,46.0884,0.327,-0.3967,-0.6469,292.6562
20:59:16:668,-2.7101,-0.8374,13.9823,44.696,0.0578,-0.1058,-0.4949,293.9219
20:59:16:687,-2.8514,-0.9559,15.5624,44.1082,-0.2871,0.1498,-0.4557,294.7969
20:59:16:708,-3.6989,-1.7436,17.3868,45.5311,-0.3923,0.2542,-0.4193,295.1562
20:59:16:727,-3.5649,-2.8964,15.7552,44.5375,0.0671,0.4401,-0.1314,295.9688
20:59:16:746,-2.7808,-3.0939,11.175,46.314,0.8069,0.5813,0.3336,296.4375
20:59:16:767,-1.2209,-2.6342,7.7944,46.4725,1.1678,0.2444,0.7555,296.7344
20:59:16:787,-0.5051,-1.7244,7.4245,45.6174,1.0251,-0.4611,0.8916,296.7031
20:59:16:807,-0.7505,-1.0636,8.8647,47.2927,0.7012,-1.0475,0.7704,296.2344
20:59:16:826,-1.0497,-0.8122,10.0342,46.1152,0.542,-1.283,0.6114,295.4844
20:59:16:846,-0.717,-1.0552,9.8068,46.7581,0.5787,-1.1554,0.5315,294.6719
20:59:16:866,-0.9037,-1.1785,8.2841,45.9734,0.69,-0.7809,0.4995,294.0312
20:59:16:886,-1.0569,-0.8553,6.6428,44.9993,0.7478,-0.39,0.5893,293.5156
20:59:16:907,-0.3913,-0.3968,5.265,44.8344,0.734,-0.1141,0.7816,293.0938
20:59:16:926,0.1713,0.3071,4.3851,46.2195,0.6487,-0.0435,0.8551,292.625
20:59:16:946,0.4849,0.7919,4.2331,46.7219,0.4954,-0.1572,0.7677,291.9375
20:59:16:967,0.5819,1.0517,4.6987,48.0113,0.302,-0.2917,0.6026,291.0938
20:59:16:987,0.4538,1.1247,5.6205,47.4609,0.1268,-0.4052,0.417,290.2188
20:59:17:006,-0.0861,1.0457,6.7242,46.6287,0.0099,-0.4638,0.2545,289.1875
20:59:17:026,-0.7984,1.0373,7.9345,46.6906,-0.0519,-0.4579,0.1922,288.7969
20:59:17:046,-0.9659,1.1714,8.8383,47.7232,-0.0157,-0.382,0.2561,288.5469
20:59:17:068,-0.5625,1.4132,8.806,47.374,0.1292,-0.2992,0.347,288.375
20:59:17:088,0.0073,1.7376,8.5271,47.8264,0.2413,-0.2944,0.3547,288.1406
20:59:17:107,0.4227,1.8226,9.037,48.2638,0.1758,-0.3887,0.2292,287.7812
20:59:17:127,0.4155,1.4168,10.6232,48.7103,-0.0381,-0.5423,-0.0025,287.4375
20:59:17:148,0.0947,0.4507,12.9001,48.3049,-0.289,-0.5599,-0.2499,287.2188
20:59:17:171,0.6346,-0.7476,14.3988,48.4926,-0.4341,-0.3112,-0.3207,287.2812
20:59:17:187,2.0472,-1.3461,14.7556,49.0054,-0.4264,-0.0001,-0.1908,287.625
20:59:17:210,3.6525,-1.1007,14.1319,48.8468,-0.3057,0.2004,-0.0347,288.125
20:59:17:229,4.3528,-0.7033,12.8773,51.2106,-0.0296,0.1086,-0.5977,288.2031
20:59:17:256,2.9498,-0.7272,11.5725,49.9204,-0.0911,0.0497,-1.0257,288.2031
20:59:17:270,1.3959,-1.5078,10.883,48.5963,-0.2157,0.1528,-1.1333,288.5781
20:59:17:290,0.7268,-1.965,10.3012,48.3426,-0.269,0.1823,-1.0499,290.125
20:59:17:310,0.6322,-1.5449,9.4943,49.6352,-0.2983,-0.1927,-1.011,291.3906
20:59:17:328,0.5699,-0.7213,9.9432,50.5134,-0.3553,-0.61,-1.1093,292.5625
20:59:17:355,0.1222,-0.4639,11.539,49.9717,-0.2986,-0.6028,-1.2427,293.6562
20:59:17:368,-0.8247,-0.8446,12.2501,50.2975,-0.0791,-0.1977,-1.2214,293.6562
20:59:17:387,-1.7189,-0.8661,10.9344,51.4052,0.163,0.3024,-1.0083,294.9531
20:59:17:411,-2.1188,-0.3274,8.4445,52.4234,0.293,0.548,-0.7476,297.75
20:59:17:426,-1.8841,0.2316,6.3424,52.4234,0.326,0.4875,-0.5556,297.75
20:59:17:446,-1.3598,0.6279,5.1153,51.8175,0.2935,0.2915,-0.4523,298.8906
20:59:17:467,-0.8822,1.0744,4.4617,50.6545,0.212,0.0686,-0.4483,299.7344
20:59:17:488,-0.5889,1.5101,4.409,53.4025,0.1025,-0.1,-0.537,300.3125
20:59:17:507,-0.4524,1.5916,4.7107,51.7866,-0.037,-0.2049,-0.6904,300.8281
20:59:17:527,-0.9288,1.4635,5.4924,51.769,-0.2032,-0.2691,-0.7924,301.9844
20:59:17:548,-1.6734,1.2707,7.2294,50.9539,-0.2724,-0.2331,-0.7519,302.3281
20:59:17:572,-2.1044,1.0433,9.1974,52.9363,-0.1696,-0.1072,-0.5929,303.2031
20:59:17:590,-1.8518,1.0205,10.5585,52.4702,0.045,0.087,-0.4091,304.1094
20:59:17:607,-1.3562,1.4024,10.8506,53.2535,0.228,0.2476,-0.3372,304.8906
20:59:17:628,-0.9181,1.5736,10.4736,53.7266,0.2722,0.3075,-0.3913,305.1719
20:59:17:647,-0.9288,1.5353,10.3562,53.3892,0.1965,0.3043,-0.4693,305.6406
20:59:17:710,-1.0773,1.254,10.5071,53.3213,0.0144,0.2638,-0.4975,306.0312
20:59:17:710,-1.3275,1.0828,11.375,54.5256,-0.1625,0.2239,-0.4672,306.4531
20:59:17:710,-1.4675,0.7488,12.3315,54.3408,-0.2831,0.19,-0.3966,306.9844
20:59:17:726,-1.8566,0.4783,13.1383,54.4612,-0.3401,0.0878,-0.2486,307.5312
20:59:17:746,-2.1834,0.3238,13.8302,54.5053,-0.286,-0.1144,-0.0264,308.0312
20:59:17:768,-2.3953,0.094,14.3498,55.2409,-0.1185,-0.3993,0.2404,308.4219
20:59:17:787,-2.6395,-0.0186,14.8166,54.8438,0.1449,-0.4952,0.5531,308.6719
20:59:17:810,-2.424,-0.1227,14.5772,55.9655,0.4498,-0.2009,0.8636,308.6875
20:59:17:826,-1.4699,-0.064,12.4117,56.2289,0.6325,0.1259,1.0522,308.1875
20:59:17:847,-0.4895,0.2915,9.6308,55.9707,0.5289,0.0694,1.0428,307.4219
20:59:17:866,0.0276,0.5501,8.4505,58.018,0.2775,-0.361,0.9195,306.3438
20:59:17:889,0.1677,0.5142,9.4393,58.0171,0.1601,-0.6664,0.7736,305.2031
20:59:17:907,0.0205,0.3705,10.3251,56.6205,0.2216,-0.6643,0.6633,304.1094
20:59:17:927,-0.0179,-0.0102,10.0965,57.6488,0.3039,-0.4078,0.5877,303.2031
20:59:17:947,-0.45,-0.07,8.6971,58.438,0.2695,-0.1213,0.5741,302.4688
20:59:17:967,-0.5937,0.0605,7.494,57.9708,0.164,-0.0222,0.5768,301.8594
20:59:17:988,-0.5817,0.1347,7.0499,58.8952,0.1065,-0.0393,0.5792,301.25
20:59:18:006,-0.6751,0.1035,7.1097,59.2054,0.1473,-0.0744,0.6298,300.5938
20:59:18:027,-0.6894,0.0928,7.1995,58.4809,0.2679,-0.0992,0.7408,299.9844
20:59:18:046,-0.383,0.1514,7.1001,60.4072,0.4203,-0.1154,0.8569,299.3125
20:59:18:067,0.6549,0.8853,6.1712,60.0616,0.5334,-0.1295,0.9198,298.5469
20:59:18:087,1.3169,1.3414,5.8731,59.4013,0.5635,-0.1921,0.8703,297.7031
20:59:18:108,1.4941,1.6346,5.8934,62.1706,0.4868,-0.2587,0.6718,296.7031
20:59:18:126,1.1864,1.6287,6.249,61.1988,0.314,-0.2643,0.3885,295.2344
20:59:18:147,0.6861,1.3378,7.1947,61.2563,0.0674,-0.1951,0.1246,294.8438
20:59:18:166,0.3425,1.0253,8.4241,60.8611,-0.1979,-0.0656,-0.0371,294.3125
20:59:18:189,0.37,0.7799,9.6847,60.7906,-0.4149,0.0236,-0.1236,294.0625
20:59:18:207,0.6166,0.2831,11.515,63.0566,-0.5638,-0.1439,-0.2184,294.0469
20:59:18:226,0.4526,-0.5561,13.938,60.7733,-0.6469,-0.3983,-0.3255,294.125
20:59:18:247,0.9207,-1.6622,14.9363,62.5886,-0.5811,-0.3112,-0.2773,294.3125
20:59:18:266,1.7168,-2.0105,13.6962,62.4449,-0.4115,0.0513,-0.1149,294.6562
20:59:18:287,2.5954,-1.4359,12.1447,62.2752,-0.3446,0.2731,-0.048,295.0625
20:59:18:307,2.5918,-1.0145,12.0956,62.5489,-0.4876,0.1661,-0.2294,295.2969
20:59:18:327,1.056,-0.987,13.3286,61.7447,-0.7015,0.087,-0.5553,295.3281
20:59:18:347,0.0169,-1.3006,12.7349,63.5463,-0.682,0.4401,-0.6589,295.4219
20:59:18:366,-0.0202,-0.8422,9.9995,62.6001,-0.4589,0.9685,-0.4813,295.8438
20:59:18:389,1.0536,-0.1945,7.4832,63.8375,-0.2983,1.0023,-0.2304,296.5469
20:59:18:410,1.7108,0.6985,7.0654,62.9641,-0.3619,0.3988,-0.1963,297.3594
20:59:18:427,1.7048,1.1019,9.3638,63.569,-0.5744,-0.463,-0.3801,297.5156
20:59:18:446,0.9279,0.5537,11.7616,62.1053,-0.6288,-0.9375,-0.6661,297.6875
20:59:18:467,-0.3997,-0.0772,12.013,65.3769,-0.444,-0.6819,-0.8989,297.8594
20:59:18:490,-1.4819,-0.1502,10.0294,63.176,-0.2266,0.092,-0.8858,298.4375
20:59:18:507,-1.683,0.149,7.8256,63.7413,-0.0914,0.6899,-0.6587,299.3906
20:59:18:526,-1.1671,0.6901,6.4764,63.3267,0.0059,0.7983,-0.3665,300.4531
20:59:18:546,-0.4536,1.2324,5.9413,63.47,0.1156,0.545,-0.1513,301.3438
20:59:18:566,-0.0442,1.5939,5.7953,62.8393,0.225,0.1975,-0.0967,301.8594
20:59:18:589,0.0528,1.7855,6.0898,62.9034,0.2621,-0.0574,-0.1492,302.1094
20:59:18:606,0.0408,1.7915,6.6752,62.8862,0.2226,-0.1655,-0.2424,302.2812
20:59:18:626,-0.2082,1.9124,7.719,65.1311,0.135,-0.1897,-0.3127,302.4531
20:59:18:646,-0.0645,1.9794,8.7653,62.2108,0.0852,-0.1359,-0.3202,302.7656
20:59:18:666,0.2922,1.977,9.4117,62.8956,0.1417,-0.1058,-0.3138,303.125
20:59:18:688,0.03,1.9411,9.6751,62.5835,0.2157,-0.0861,-0.3678,303.5
20:59:18:705,-0.4871,1.7173,10.2569,63.4449,0.204,-0.0401,-0.415,303.8594
20:59:18:728,-0.9887,1.3126,11.3235,62.9266,0.1531,-0.0102,-0.4107,304.2969
20:59:18:747,-1.2341,0.9691,12.5625,61.6714,0.1284,-0.0392,-0.3388,304.2969
20:59:18:766,-1.2257,0.7129,13.592,62.6075,0.3433,-0.0299,-0.0941,305.2344
20:59:18:788,-1.1539,0.4974,13.3705,64.8271,0.4775,-0.0006,0.0066,305.2344
20:59:18:807,-1.4197,0.6099,12.3805,63.3102,0.4445,-0.1231,0.1198,305.6406
20:59:18:826,-1.4975,0.9798,12.1974,62.1867,0.224,-0.3591,0.1696,305.8906
20:59:18:847,-1.4532,0.8278,13.5884,62.6459,0.033,-0.4885,0.1784,306.0156
20:59:18:867,-1.8351,0.1718,15.7671,63.4867,0.1918,-0.3604,0.2916,305.9375
20:59:18:890,-2.0098,-0.7213,16.337,61.8375,0.6554,-0.0544,0.523,305.7188
20:59:18:908,-1.6136,-1.4287,13.762,61.8079,0.8946,0.1229,0.7677,305.625
20:59:18:931,-0.9265,-1.6598,11.0027,60.0468,0.7486,-0.0139,0.9693,305.3281
20:59:18:945,-0.6379,-1.2683,10.1575,61.1311,0.5308,-0.2073,1.1307,304.7656
20:59:18:965,-0.4632,-0.9487,10.5705,61.9905,0.518,-0.2853,1.262,303.9375
20:59:18:994,-0.0226,-0.9355,10.4125,61.4862,0.694,-0.2214,1.3779,302.8438
20:59:19:006,0.1917,-0.7524,9.0538,61.2782,0.8498,-0.0787,1.4852,301.5938
20:59:19:028,0.5496,-0.3801,7.2354,61.3699,0.8495,0.0161,1.5416,300.2656
20:59:19:046,1.0847,0.0808,5.8934,61.8251,0.7377,0.043,1.4839,298.7344
20:59:19:067,1.4079,0.4447,5.022,59.6007,0.5878,0.0071,1.34,297.0469
20:59:19:087,1.4833,0.6566,4.609,61.1556,0.4461,-0.0435,1.197,295.375
20:59:19:107,1.4546,0.7655,4.354,60.7381,0.3033,-0.1351,1.0687,293.6719
20:59:19:126,1.3277,0.9319,4.5264,61.0512,0.1457,-0.2438,0.9747,292.1406
20:59:19:145,1.3576,1.1031,5.071,61.0026,0.0013,-0.3248,0.8926,290.7656
20:59:19:166,1.4486,1.3282,6.1652,59.6399,-0.0658,-0.3663,0.801,289.0781
20:59:19:189,1.5037,1.5341,7.3383,60.5996,-0.0573,-0.3117,0.6993,288.0469
20:59:19:207,1.5061,1.8286,8.4337,59.3671,0.0155,-0.1495,0.5904,287.1406
20:59:19:225,1.7491,1.9746,8.7701,59.2515,0.0764,0.0156,0.4263,286.3906
20:59:19:246,2.0831,2.0201,8.4109,60.3049,-0.0093,0.005,0.2061,285.6875
20:59:19:266,2.4518,1.9519,8.6564,60.2087,-0.2322,-0.1181,-0.0592,285.1094
20:59:19:286,2.6828,1.6203,9.9361,60.3379,-0.4626,-0.1801,-0.3212,284.75
20:59:19:306,2.6242,1.0193,11.8107,59.3877,-0.5665,-0.0006,-0.4797,284.6719
20:59:19:329,2.7235,0.4244,12.6247,60.0804,-0.5728,0.2785,-0.53,284.9531
20:59:19:346,3.1234,0.2855,12.0142,59.5037,-0.6274,0.3205,-0.5974,285.4375
20:59:19:366,3.5854,0.3633,11.4049,59.509,-0.8187,0.0369,-0.7921,286.0312
20:59:19:388,3.2981,0.1251,12.5888,60.9287,-0.9633,-0.1708,-0.9841,286.625
20:59:19:406,2.7068,-0.7859,14.266,59.3642,-0.8727,0.0518,-1.0379,287.4062
20:59:19:426,1.597,-1.1726,14.163,58.965,-0.6527,0.4894,-0.8853,288.4219
20:59:19:446,1.3373,-0.9798,12.3267,58.4081,-0.4922,0.7208,-0.6446,289.0312
20:59:19:467,3.0408,0.0233,8.9532,57.7152,-0.4836,0.6244,-0.595,290.25
20:59:19:488,2.8097,0.6303,8.8946,59.3766,-0.5776,0.3349,-0.7532,291.5469
20:59:19:509,2.2195,0.7021,8.9987,57.6819,-0.5859,0.1016,-0.9814,292.1406
20:59:19:526,1.305,0.4687,8.2446,57.6819,-0.4317,0.0787,-1.1969,292.8438
20:59:19:545,0.4873,0.2448,6.978,59.6759,-0.2543,0.2175,-1.2824,293.7656
20:59:19:565,-0.0789,0.4986,6.0263,57.7502,-0.1835,0.4076,-1.2305,295.0156
20:59:19:588,-0.1795,0.8996,5.7294,58.1714,-0.1819,0.4625,-1.1277,296.4375
20:59:19:606,-0.2393,1.1797,5.6995,57.2671,-0.1566,0.3698,-1.0597,297.8594
20:59:19:625,-0.4691,1.4479,6.1448,58.8265,-0.1169,0.1781,-1.0312,299.1094
20:59:19:647,-0.5781,1.6706,7.1241,58.9484,-0.0956,0.0031,-0.9993,300.3125
20:59:19:665,-0.6116,1.7556,7.9608,57.0939,-0.0354,-0.072,-0.9862,301.4844
20:59:19:688,-0.7253,1.7639,8.4876,56.5617,0.0253,-0.0853,-1.0078,302.5781
20:59:19:706,-1.0426,1.8322,9.1292,57.685,0.0027,-0.0424,-1.0161,303.7188
20:59:19:772,-1.3801,1.898,10.2688,57.1887,-0.077,0.0095,-1.0025,304.8594
20:59:19:772,-1.7201,1.8896,11.2589,56.4317,-0.1145,0.1147,-0.9807,306.0312
20:59:19:772,-2.114,1.4994,11.6575,57.6584,-0.0898,0.3192,-0.9476,307.7031
20:59:19:791,-2.6263,1.1797,11.7808,57.4024,-0.0775,0.5237,-0.8363,308.7969
20:59:19:810,-2.7484,0.8541,12.0178,56.6432,-0.0655,0.5621,-0.6182,309.8125
20:59:19:825,-2.3462,0.4866,12.3698,56.0092,-0.0501,0.3994,-0.3527,310.7344
20:59:19:846,-1.5106,0.3945,13.4926,56.5798,-0.0828,0.108,-0.0975,311.4062
20:59:19:868,-0.608,0.3837,15.1626,55.5208,-0.1585,-0.2062,0.0577,311.7812
20:59:19:888,-0.4356,0.0066,16.8517,57.6866,-0.18,-0.4233,0.0572,311.875
20:59:19:906,-1.021,-0.6805,17.8106,55.4935,-0.073,-0.4137,0.0244,311.8125
20:59:19:925,-1.4795,-1.248,16.8852,54.658,0.2384,-0.1322,0.139,311.7656
20:59:19:946,-1.3478,-1.4706,13.7907,55.2856,0.6778,0.2803,0.4029,311.7656
20:59:19:967,-0.7529,-1.5365,10.0127,56.1759,0.976,0.606,0.666,311.7188
20:59:19:989,-0.547,-1.3928,7.3862,53.4778,0.9646,0.6356,0.8263,311.4219
20:59:20:006,-0.8391,-0.9487,6.6357,54.8803,0.6943,0.3488,0.9438,310.8281
20:59:20:029,-0.8929,-0.6303,7.4293,55.4254,0.4027,-0.0736,1.0769,310.0156
20:59:20:047,-0.4512,-0.5225,8.2146,53.5526,0.302,-0.443,1.2162,309.0156
20:59:20:065,-0.2776,-0.2592,7.8028,53.675,0.3949,-0.6102,1.29,307.8906
20:59:20:089,0.0504,0.0329,6.9792,52.1476,0.4637,-0.6457,1.3193,306.0156
20:59:20:106,0.37,0.3382,6.6704,53.7326,0.4064,-0.6078,1.3139,304.625
20:59:20:125,0.2228,0.732,6.5291,53.2485,0.3143,-0.5093,1.249,303.2031
20:59:20:145,-0.1184,1.066,6.2274,51.5383,0.249,-0.3418,1.181,301.8594
20:59:20:168,-0.2561,1.1271,6.3424,52.3526,0.1907,-0.2358,1.2309,300.5
20:59:20:190,0.0288,1.1391,6.814,51.2387,0.2828,-0.2422,1.3121,300.5
20:59:20:207,0.4395,1.3581,7.2893,53.0923,0.4176,-0.2339,1.3427,299.2031
20:59:20:226,0.9566,1.7639,7.1767,52.1433,0.5036,-0.2888,1.2543,297.9062
20:59:20:245,1.4821,2.0991,7.0079,51.0992,0.4575,-0.358,1.05,296.5938
20:59:20:265,1.6665,2.1159,7.3012,53.3315,0.3103,-0.3418,0.8061,293.625
20:59:20:288,1.8197,1.9387,8.0458,50.2999,0.1643,-0.2422,0.5464,292.2969
20:59:20:307,1.9454,1.4491,8.7581,51.6562,0.0466,-0.1306,0.2977,291.1406
20:59:20:325,1.9334,0.9224,9.2106,51.5233,-0.0834,-0.1562,0.0993,290.25
20:59:20:345,1.9753,0.4639,10.0139,51.5287,-0.2122,-0.2433,-0.0488,289.5
20:59:20:365,1.9346,-0.0485,10.9967,51.2239,-0.2964,-0.2233,-0.1178,289.2969
20:59:20:390,2.2016,-0.6782,11.3091,51.3673,-0.3558,-0.1157,-0.1074,289.3125
20:59:20:408,2.7008,-0.7883,10.7896,49.3015,-0.5087,-0.0867,-0.1287,289.3906
20:59:20:424,3.3448,-0.3561,10.3622,48.1662,-0.7854,-0.2195,-0.2898,289.5625
20:59:20:446,3.5016,0.0593,11.2888,49.6369,-1.0384,-0.2672,-0.5785,289.8906
20:59:20:466,3.0755,-0.252,12.9935,48.7768,-1.0714,0.0055,-0.8288,289.8906
20:59:20:488,2.1357,-0.9583,13.5657,49.1155,-0.914,0.4636,-0.881,290.2656
20:59:20:507,1.5719,-1.418,12.116,48.7155,-0.8213,0.7256,-0.7641,291.0156
20:59:20:525,1.949,-1.2528,10.6244,49.3177,-0.9207,0.5629,-0.6925,292.0156
20:59:20:549,2.4673,-0.7823,11.0685,49.584,-0.9614,0.2217,-0.787,293.0156
20:59:20:565,2.1346,-0.5513,12.3027,48.9422,-0.7204,0.0641,-0.9154,293.7969
20:59:20:585,1.05,-0.4699,12.0597,50.7567,-0.3641,0.1948,-0.9261,294.5625
20:59:20:605,0.1486,-0.337,10.1719,46.9033,-0.102,0.4777,-0.7817,295.4531
20:59:20:629,-0.1256,0.0497,7.8555,48.5255,0.041,0.6303,-0.5932,297
20:59:20:645,0.0827,0.4687,5.8599,48.5065,0.0908,0.5714,-0.4659,297.9844
20:59:20:665,0.2659,1.0409,4.5994,48.1085,0.057,0.3533,-0.4176,298.7344
20:59:20:686,0.5987,1.5808,4.2163,47.2786,-0.0264,0.1054,-0.4749,299.25
20:59:20:704,0.6897,1.9555,4.7454,49.466,-0.1156,-0.0784,-0.6139,299.7188
20:59:20:724,0.3018,2.0285,5.6672,48.6311,-0.1942,-0.1117,-0.7423,300.2031
20:59:20:745,-0.4668,1.9351,6.7398,48.1462,-0.281,-0.0488,-0.7681,300.7812
20:59:20:766,-1.1036,1.8274,8.2086,48.5476,-0.3321,0.0886,-0.6781,301.5781
20:59:20:790,-1.2664,1.8346,9.638,47.7983,-0.3108,0.1392,-0.5692,302.4531
20:59:20:807,-1.1216,1.9351,11.2182,48.0435,-0.2048,0.1621,-0.5117,303.2969
20:59:20:824,-0.869,1.837,12.5828,48.1544,-0.0274,0.3094,-0.5045,303.9531
20:59:20:845,-0.766,1.5413,12.7313,48.1223,0.13,0.5067,-0.5127,304.5469
20:59:20:866,-1.1838,0.9308,11.7102,47.1562,0.1329,0.577,-0.4453,305.1094
20:59:20:890,-0.8175,0.7644,12.2046,47.4903,0.0602,0.5166,-0.3074,305.6562
20:59:20:907,-0.4344,0.6375,12.3099,47.8207,0.0423,0.4319,-0.1985,306.2031
20:59:20:925,-0.2022,0.4232,12.1627,47.7559,0.0067,0.3171,-0.1393,306.6094
20:59:20:945,-0.3662,0.0473,13.1359,47.7105,-0.1151,-0.0121,-0.1061,306.8594
20:59:20:964,-1.2054,-0.7105,15.5014,46.6497,-0.2362,-0.5146,-0.0485,307.0312
20:59:20:986,-2.2121,-1.3892,17.0959,47.2091,-0.1246,-0.6792,0.1552,307.1562
20:59:21:005,-2.2421,-1.6598,15.5397,47.7178,0.2234,-0.2267,0.5592,307.2656
20:59:21:025,-1.4101,-1.3473,11.2744,48.0427,0.633,0.4574,1.013,307.2344
20:59:21:045,-0.8163,-0.8553,7.7813,47.5123,0.7603,0.601,1.2791,306.875
20:59:21:064,-0.6475,-0.3537,6.9038,48.911,0.5222,0.2012,1.3757,305.9688
20:59:21:086,-0.7361,-0.2819,8.7521,47.4883,0.1526,-0.3663,1.389,304.6875
20:59:21:106,-0.9001,-0.58,10.3526,50.1859,0.0834,-0.758,1.409,303.1562
20:59:21:125,-0.8965,-0.5656,9.6918,49.0679,0.3734,-0.8214,1.465,301.5938
20:59:21:145,-0.6044,-0.1586,7.8483,48.9221,0.6482,-0.6475,1.5499,300.125
20:59:21:165,-0.0298,0.2304,6.5483,49.5449,0.7015,-0.4686,1.584,298.5469
20:59:21:185,0.3988,0.4759,5.7821,50.7808,0.6474,-0.3881,1.5057,296.8906
20:59:21:206,0.5209,0.7356,5.4745,50.3901,0.5721,-0.4062,1.3411,294.3438
20:59:21:224,0.3988,0.7464,5.7737,50.0299,0.5002,-0.4944,1.1504,292.6562
20:59:21:245,0.2048,0.5501,6.4501,48.8379,0.4594,-0.5498,0.9704,291.1562
20:59:21:265,0.1402,0.2879,6.8152,48.8975,0.4658,-0.5021,0.8474,289.8906
20:59:21:286,0.1581,0.149,6.9062,49.7032,0.4533,-0.3522,0.7608,288.8906
20:59:21:305,0.5197,0.1598,7.3802,49.2055,0.343,-0.2078,0.6894,287.9531
20:59:21:324,1.1266,0.0353,8.2182,51.3018,0.2045,-0.1346,0.5784,287.1094
20:59:21:345,1.4785,-0.2723,8.8407,50.1424,0.1137,-0.0717,0.4023,286.375
20:59:21:364,1.694,-0.6411,9.1065,49.3222,0.0402,0.038,0.2101,285.7188
20:59:21:386,1.9454,-0.9762,9.5015,49.894,-0.0903,0.1189,0.0436,285.4688
20:59:21:407,2.1585,-1.2576,10.1994,50.4301,-0.2565,0.1674,-0.0877,285.125
20:59:21:427,2.2291,-1.4216,10.7357,50.8955,-0.4083,0.2457,-0.195,284.9844
20:59:21:446,2.5511,-1.7124,10.6316,50.4321,-0.5137,0.3711,-0.2443,285
20:59:21:465,2.9653,-1.5317,10.1647,50.3166,-0.6261,0.426,-0.2632,285.1562
20:59:21:486,3.2131,-0.9607,10.2006,50.4337,-0.7944,0.279,-0.309,285.375
20:59:21:506,3.1413,-0.8326,11.7784,50.5232,-1.0264,-0.1154,-0.4781,285.7812
20:59:21:524,2.3237,-1.3162,14.2731,49.8404,-1.2219,-0.4499,-0.717,286.1406
20:59:21:547,1.3588,-1.9136,15.9647,49.8039,-1.2267,-0.3306,-0.8145,286.6875
20:59:21:565,1.3289,-1.9387,15.0369,49.8039,-0.9401,0.1086,-0.6619,287.5938
20:59:21:586,2.3632,-1.3162,12.8606,50.5886,-0.3292,0.4297,-0.1876,288.5938
20:59:21:607,3.4274,-0.4399,11.0123,51.5029,-0.2125,0.3293,-0.2746,289.3438
20:59:21:624,3.6513,0.3597,9.632,51.5029,-0.1481,0.2548,-0.5817,289.7656
20:59:21:644,2.8588,0.5261,8.4193,50.0611,-0.135,0.3067,-0.86,289.9688
20:59:21:664,1.8377,0.3442,7.2785,50.4821,-0.1321,0.4066,-0.9737,290.2812
20:59:21:686,1.0308,0.1634,6.2574,50.3175,-0.114,0.4348,-0.9452,290.9062
20:59:21:706,0.4849,0.2292,5.5499,51.4427,-0.11,0.3629,-0.8257,291.8906
20:59:21:726,0.2623,0.5956,5.3787,51.3417,-0.1153,0.2369,-0.7165,292.9844
20:59:21:745,0.3748,1.0409,5.7737,50.6292,-0.1044,0.1501,-0.7071,294.9375
20:59:21:764,0.4191,1.2659,6.1281,50.4916,-0.1374,0.1498,-0.7567,295.7344
20:59:21:821,0.2371,1.3222,6.7446,52.641,-0.2218,0.1996,-0.7777,296.1406
20:59:21:821,-0.1579,1.2959,7.9692,50.7591,-0.2493,0.2625,-0.7271,296.9219
20:59:21:824,-0.4261,1.4216,9.3662,51.1922,-0.1385,0.2614,-0.6432,297.7969
20:59:21:844,-0.2321,1.5257,10.1803,51.7174,0.0061,0.2119,-0.6195,298.6719
20:59:21:864,-0.1914,1.716,10.6902,52.3389,0.0802,0.2263,-0.6432,299.4375
20:59:21:885,-0.2429,1.6789,11.1834,52.2327,0.1193,0.312,-0.705,299.75
20:59:21:905,-0.6798,1.3162,11.2505,51.2561,0.1209,0.3871,-0.7207,300.4531
20:59:21:924,-1.2137,0.8865,11.3343,51.0992,0.0921,0.4026,-0.6057,301.1875
20:59:21:944,-1.5406,0.6183,11.7856,50.8897,0.0985,0.3232,-0.4206,301.9531
20:59:21:965,-1.2999,0.343,12.2872,51.2794,0.1433,0.2446,-0.2541,302.7656
20:59:21:983,-0.7756,0.1251,12.1986,50.2804,0.1129,0.1251,-0.1692,303.4531
20:59:22:004,-0.4296,0.1909,12.3338,52.6618,-0.045,-0.1777,-0.1758,303.9219
20:59:22:028,-0.2752,-0.1251,13.9451,50.4371,-0.1571,-0.4787,-0.2368,304.2031
20:59:22:044,-1.2437,-0.744,16.5417,51.4468,0.0541,-0.419,-0.1175,304.5938
20:59:22:065,-1.9943,-1.5784,17.6167,51.9839,0.591,0.063,0.218,304.8594
20:59:22:084,-1.7752,-1.9363,14.7891,50.0874,0.9598,0.4822,0.5624,304.9844
20:59:22:107,-0.8044,-1.7543,11.1044,50.2364,0.9159,0.4279,0.7613,304.9531
20:59:22:125,0.0229,-1.5389,9.4788,52.3663,0.6863,0.001,0.8346,304.5156
20:59:22:146,0.1079,-1.1462,10.0486,53.0664,0.5771,-0.3492,0.8849,303.7656
20:59:22:165,0.2946,-1.1007,11.2445,53.5974,0.6985,-0.3639,0.9137,302.875
20:59:22:184,0.3221,-0.9379,10.9775,52.1791,0.8868,-0.1114,0.9347,301.9219
20:59:22:204,0.4981,-0.4878,9.3159,52.862,0.8714,0.2252,0.9246,300.9844
20:59:22:224,0.8548,0.1107,7.9237,52.3487,0.7004,0.5829,0.8234,299.9844
20:59:22:244,1.1314,0.5848,7.0427,54.262,0.5265,0.8889,0.6593,298.9219
20:59:22:264,1.1613,0.7895,6.2969,53.2995,0.4447,0.9813,0.4932,297.8906
20:59:22:285,0.5568,0.7859,5.2147,56.0651,0.4559,0.8268,0.3683,297.0156
20:59:22:306,0.2886,0.7967,4.9729,53.9397,0.5119,0.5496,0.3288,296.2656
20:59:22:331,0.1701,0.8625,4.8711,55.12,0.5691,0.2867,0.34,295.6875
20:59:22:343,0.2647,1.2169,4.8975,56.135,0.5742,0.1118,0.3709,295.2656
20:59:22:364,0.4502,1.6682,5.0746,54.0961,0.4778,0.0255,0.3627,294.875
20:59:22:385,0.4191,1.9914,5.648,54.4588,0.3023,-0.0832,0.2679,294.4688
20:59:22:406,0.3952,1.8142,6.7182,55.1157,0.1241,-0.2164,0.1395,294.0938
20:59:22:423,0.0983,1.3258,7.6197,56.1546,0.0146,-0.349,0.0087,293.75
20:59:22:445,-0.0693,0.8637,8.5319,54.3402,-0.0783,-0.4965,-0.0584,293.5625
20:59:22:464,0.2539,0.2568,10.1443,56.8513,-0.2285,-0.7248,-0.0619,293.5312
20:59:22:484,0.2814,-0.2688,12.4117,56.9374,-0.4176,-0.9056,-0.0493,293.625
20:59:22:505,1.0224,-0.8805,13.8123,54.7151,-0.5164,-0.7953,0.0519,293.7812
20:59:22:525,2.4171,-0.8529,13.44,54.6547,-0.5177,-0.4409,0.2031,293.9844
20:59:22:544,3.6884,-0.2041,13.1311,54.3583,-0.6701,-0.1229,0.2055,294.1094
20:59:22:564,3.2754,0.264,14.4,55.2985,-1.0131,-0.0755,-0.1066,294.0312
20:59:22:583,1.5707,-0.4339,16.6626,55.7828,-1.2842,-0.0443,-0.5985,293.6875
20:59:22:605,0.4131,-1.5473,16.2292,56.1969,-1.085,0.368,-0.8331,293.7812
20:59:22:625,0.2707,-1.6574,13.1922,57.1398,-0.5372,0.9054,-0.7093,294.4531
20:59:22:644,1.2547,-0.823,9.6212,56.8102,-0.0578,1.0668,-0.4006,295.3438
20:59:22:664,2.1573,0.2388,7.731,57.2202,0.1238,0.695,-0.2781,296.0312
20:59:22:684,2.1992,0.8446,7.2031,56.1843,0.1156,0.079,-0.4709,296.3906
20:59:22:704,1.7168,0.7895,6.9852,56.1488,0.0565,-0.3199,-0.8137,296.6562
20:59:22:724,1.0105,0.6243,6.589,56.906,-0.0373,-0.3511,-1.1205,296.875
20:59:22:744,0.127,0.4938,6.2729,56.8858,-0.1656,-0.206,-1.3191,297.5781
20:59:22:764,-0.8486,0.4735,6.4932,57.6267,-0.319,-0.0361,-1.4022,298.7344
20:59:22:785,-1.5801,0.7033,6.9397,57.035,-0.42,0.1645,-1.3266,300.1562
20:59:22:806,-1.7441,0.9619,7.0151,57.2111,-0.3646,0.3368,-1.133,301.7344
20:59:22:824,-1.5094,1.3809,6.5315,56.8389,-0.1774,0.3898,-0.9229,303.2188
20:59:22:844,-1.2604,1.9196,6.5794,55.021,-0.0336,0.2923,-0.7628,304.5938
20:59:22:864,-0.9671,2.3062,6.9816,56.3775,0.0493,0.1557,-0.692,306.2031
20:59:22:885,-0.9731,2.3086,7.3527,57.5291,0.11,0.071,-0.741,307.0156
20:59:22:906,-1.5047,2.0692,7.8591,56.6891,0.1073,0.0367,-0.8528,307.7969
20:59:22:924,-2.096,1.7352,8.6947,55.7332,0.0384,0.034,-0.9066,308.6562
20:59:22:944,-2.6203,1.6969,9.699,58.0589,-0.0879,0.0936,-0.8866,309.5938
20:59:22:964,-2.9567,1.418,11.0482,56.7951,-0.2573,0.1259,-0.8422,310.625
20:59:22:985,-3.9132,1.0146,13.2616,56.1726,-0.4559,-0.2973,-0.5806,311.625
20:59:23:007,-4.8996,0.4076,16.4674,56.5562,-0.0914,-0.3639,-0.146,311.625
20:59:23:023,-4.8158,-0.1095,18.0644,55.0341,0.5824,-0.0358,0.4106,312.5156
20:59:23:044,-3.5876,0.0401,15.4439,58.0132,0.9785,0.4572,0.8218,313.375
20:59:23:064,-2.4982,1.1714,11.3427,56.6256,0.7553,0.8186,0.9387,314.1875
20:59:23:085,-1.8207,2.0931,9.0083,58.8105,0.2011,0.8883,0.8503,313.7812
20:59:23:105,-1.622,1.9686,9.0969,59.7051,-0.2019,0.5842,0.7472,312.8906
20:59:23:126,-1.9021,1.2695,10.9847,59.5101,-0.1526,0.2311,0.7467,310.8594
20:59:23:144,-2.2804,0.3071,11.94,57.5842,0.2005,-0.0677,0.8665,310.3906
20:59:23:165,-2.169,-0.6231,11.114,59.5577,0.4075,-0.4246,1.0266,309.5
20:59:23:184,-1.7824,-1.0923,10.4724,58.7708,0.2738,-0.7463,1.1494,308.5781
20:59:23:208,-1.6363,-1.1845,11.6288,59.4886,0.1055,-0.7482,1.241,308.1406
20:59:23:225,-1.6698,-1.0696,13.1383,59.6382,0.187,-0.3988,1.3427,307.0312
20:59:23:244,-1.2784,-1.2169,13.1874,59.8088,0.4993,0.0819,1.457,305.8125
20:59:23:265,-1.1276,-1.2169,11.0769,61.7996,0.8232,0.4337,1.6037,304.4688
20:59:23:284,-0.8714,-1.0134,8.2242,59.1912,0.9896,0.5197,1.7661,303.0469
20:59:23:305,-0.3099,-0.7655,6.0754,60.4843,1.0197,0.4657,1.8564,301.4062
20:59:23:325,0.2946,-0.4782,4.4498,63.2441,0.9497,0.2801,1.8604,299.5938
20:59:23:344,0.7818,-0.0616,3.2586,61.0249,0.7766,-0.0347,1.7843,297.6719
20:59:23:364,1.0871,0.4435,2.6661,61.1302,0.5449,-0.5032,1.6349,295.5469
20:59:23:383,1.0967,0.8302,2.8995,60.3156,0.3156,-1.1367,1.4471,293.4531
20:59:23:405,0.7854,1.0816,4.117,60.8565,0.2021,-1.6425,1.3004,291.4688
20:59:23:425,0.9087,1.1474,5.6792,60.4354,0.1963,-1.818,1.1408,289.0625
20:59:23:445,1.2319,1.1498,6.7901,62.9952,0.1598,-1.5652,0.9347,287.7656
20:59:23:464,1.5743,1.3114,7.4198,62.5259,0.0136,-1.0241,0.7083,286.7344
20:59:23:485,2.2231,1.4874,7.8974,61.7384,-0.2171,-0.4505,0.4039,285.875
20:59:23:506,2.6984,1.309,8.1069,62.4649,-0.5143,-0.0917,0.0417,285.1719
20:59:23:524,2.7427,0.7811,8.7713,63.8982,-0.8565,-0.0073,-0.2536,284.6719
20:59:23:543,2.2818,0.2412,10.622,64.4907,-1.097,-0.0294,-0.3649,284.4844
20:59:23:563,1.9466,-0.3873,12.9767,64.3488,-1.0703,0.0348,-0.3007,284.6719
20:59:23:586,2.198,-0.9224,14.3031,63.948,-0.8871,0.1243,-0.1809,285.1094
20:59:23:606,2.6744,-0.8661,14.3378,63.1632,-0.799,0.1125,-0.1468,285.5469
20:59:23:625,2.6996,-0.6243,14.4755,63.8622,-0.8304,0.144,-0.2464,285.8438
20:59:23:644,1.8305,-0.8721,15.0201,63.8622,-0.7776,0.458,-0.2573,286.0312
20:59:23:663,1.0979,-1.303,14.3198,64.8617,-0.6083,0.8292,-0.0374,286.2656
20:59:23:685,3.2299,-1.1558,9.9911,64.4596,-0.518,0.8766,0.2545,286.4219
20:59:23:706,4.1026,-0.1131,9.0502,64.4596,-0.6333,0.5754,0.3288,286.7344
20:59:23:725,4.2953,0.8649,9.3926,65.5098,-0.8477,0.1498,0.1493,286.5156
20:59:23:744,3.8057,1.0565,10.1025,66.441,-0.9556,-0.1213,-0.2174,286.0938
20:59:23:763,2.7331,0.8422,9.8163,65.7928,-0.8093,-0.1644,-0.6427,285.7656
20:59:23:783,1.5935,0.6494,8.4756,66.8522,-0.5382,-0.0385,-0.9362,285.7969
20:59:23:805,0.8141,0.5453,7.1301,66.6348,-0.3353,0.0795,-1.0472,286.2812
20:59:23:823,0.2264,0.665,6.5602,66.1549,-0.2538,0.0795,-1.0507,287.2344
20:59:23:865,-0.0514,0.8913,6.4824,66.1269,-0.2317,0.0963,-0.9764,288.3906
20:59:23:866,-0.0849,1.236,6.5183,66.696,-0.2027,0.173,-0.876,289.6094
20:59:23:882,0.1019,1.5975,6.1772,66.4555,-0.1156,0.2332,-0.7993,290.7188
20:59:23:904,0.2647,1.8489,6.1532,67.569,-0.0453,0.156,-0.7948,291.7656
20:59:23:923,0.1234,1.8573,6.8799,65.7342,-0.0589,-0.0086,-0.8515,292.7031
20:59:23:943,-0.2106,1.7029,8.1464,66.8681,-0.13,-0.1181,-0.9141,293.5625
20:59:23:963,-0.9049,1.576,9.7122,67.3488,-0.2021,-0.1018,-0.9511,294.5
20:59:23:983,-1.3191,1.3988,10.9261,65.8132,-0.2096,0.0473,-0.9085,295.5156
20:59:24:007,-1.4891,1.072,11.5892,67.8243,-0.151,0.2119,-0.8249,297.0781
20:59:24:023,-1.428,0.6614,12.3003,65.7259,-0.1049,0.2364,-0.7279,298.125
20:59:24:043,-1.343,0.2472,13.3203,67.9681,-0.0914,0.1525,-0.6022,299.0469
20:59:24:063,-1.3263,-0.2304,14.5293,66.6735,-0.0855,0.0657,-0.4573,299.8438
20:59:24:083,-1.1694,-0.7081,14.7783,68.7845,0.0242,0.0641,-0.2667,300.5156
20:59:24:106,-1.2269,-0.6482,14.1475,67.1517,0.142,0.1099,-0.0842,301.0469
20:59:24:129,-1.3239,-0.5513,14.5665,67.55,0.082,0.0633,0.0822,301.3438
20:59:24:144,-1.5286,-0.8206,16.5357,70.2255,-0.041,-0.1066,0.2457,301.4375
20:59:24:163,-1.6112,-1.4323,17.0432,69.7118,0.1606,-0.0957,0.4567,301.4062
20:59:24:184,-1.1407,-1.8202,14.254,69.9821,0.6916,0.1418,0.7629,301.2188
20:59:24:206,-0.3806,-1.3892,10.5825,69.5548,1.0884,0.2974,1.0604,300.8438
20:59:24:223,0.1031,-0.5824,8.9532,69.7124,1.0709,0.0247,1.2239,300.1875
20:59:24:243,0.2671,-0.0473,9.6344,70.4733,0.8157,-0.4273,1.2186,299.125
20:59:24:263,0.1521,-0.179,10.3874,70.7666,0.6541,-0.6244,1.115,297.7969
20:59:24:282,-0.2525,-0.3322,9.7673,69.6849,0.7036,-0.4917,1.017,296.4844
20:59:24:303,-0.3483,-0.3789,8.3774,69.9762,0.8128,-0.2307,1.0181,294.5938
20:59:24:323,-0.3111,-0.337,6.741,70.3219,0.894,0.0018,1.0894,293.4688
20:59:24:345,-0.3375,-0.2735,5.4972,71.427,0.918,0.0944,1.1685,292.375
20:59:24:363,-0.353,-0.1335,4.6963,68.5801,0.8855,0.103,1.254,291.1094
20:59:24:383,-0.0993,0.0102,4.178,68.9789,0.7143,0.0068,1.4197,289.75
20:59:24:404,0.2934,0.2963,4.0427,69.4984,0.5966,-0.1596,1.4271,286.7969
20:59:24:423,0.7124,0.7344,4.3061,69.422,0.4876,-0.403,1.3496,286.7969
20:59:24:443,1.2104,1.1319,5.0722,69.3662,0.4069,-0.6536,1.1752,285.1406
20:59:24:464,1.5635,1.3042,6.1125,70.1662,0.3337,-0.7461,0.9443,282.0938
20:59:24:482,1.6749,1.3055,7.1696,70.0155,0.192,-0.5604,0.7041,282.0938
20:59:24:503,1.5863,1.1738,8.0937,70.4587,-0.0077,-0.1668,0.4777,280.8281
20:59:24:523,1.7168,1.0972,8.5331,67.2933,-0.3036,0.2739,0.2021,279.8594
20:59:24:543,2.1585,1.0732,8.806,67.9963,-0.726,0.614,-0.186,278.6562
20:59:24:564,2.3859,0.7512,9.9193,69.5985,-1.1169,0.7871,-0.6203,278.4844
20:59:24:583,1.6521,-0.1,11.8598,70.3599,-1.2176,0.9317,-0.8842,278.4219
20:59:24:606,0.6441,-1.3629,13.0677,69.6644,-1.0418,1.1261,-0.811,278.8281
20:59:24:625,0.4466,-2.1039,12.2022,72.4945,-0.84,1.055,-0.5242,279.6719
20:59:24:644,1.2966,-1.7711,10.6304,70.9713,-0.8136,0.4651,-0.3703,280.1562
20:59:24:665,2.3728,-1.3354,10.3622,71.0518,-1.0213,-0.337,-0.534,280.9688
20:59:24:683,2.2902,-1.8405,12.6655,71.6165,-1.2155,-0.5956,-0.7524,281.4375
20:59:24:704,0.7986,-2.6199,15.3063,70.6104,-1.0932,-0.1485,-0.664,281.8281
20:59:24:725,-0.2609,-2.8689,15.6391,69.701,-0.6626,0.4289,-0.2318,282.4844
20:59:24:743,0.8118,-2.5337,13.1371,69.5128,-0.2831,0.5863,0.2077,283.3594
20:59:24:763,2.7714,-1.4,10.1922,69.6627,-0.1507,0.2319,0.295,284.1406
20:59:24:783,3.9996,0.0198,8.5666,71.4642,-0.2184,-0.2877,-0.0421,284.3906
20:59:24:803,3.7195,0.8841,8.5953,70.0099,-0.3593,-0.4536,-0.5505,284.1562
20:59:24:823,2.4494,0.5309,9.2058,68.3981,-0.3814,-0.1176,-0.8952,283.7969
20:59:24:842,0.9303,0.0329,8.484,71.2753,-0.3278,0.328,-0.9623,284.125
20:59:24:863,-0.2082,0.1646,6.8966,69.9002,-0.2937,0.4697,-0.8448,284.9531
20:59:24:882,-0.7577,0.5106,5.9306,67.3297,-0.2738,0.3211,-0.6544,286.0469
20:59:24:902,-0.8893,1.0409,5.8001,69.324,-0.2019,0.0705,-0.4802,287.0938
20:59:24:923,-0.5733,1.4587,6.1867,68.4374,-0.086,-0.1492,-0.4073,287.9375
20:59:24:942,-0.2704,1.7687,6.6117,68.1085,-0.0176,-0.2603,-0.4315,288.5469
20:59:24:964,-0.2046,1.8872,7.1025,69.1842,-0.057,-0.2374,-0.5005,289.0312
20:59:24:982,-0.3423,1.983,8.0997,67.7451,-0.1167,-0.1389,-0.5908,289.5156
20:59:25:003,-0.5087,1.8441,9.3459,68.1638,-0.1198,0.0359,-0.6659,290.0156
20:59:25:025,-0.8869,1.5748,10.4424,68.0049,-0.0945,0.2476,-0.6643,290.6406
20:59:25:043,-1.2066,1.3258,11.4073,67.1566,0.0008,0.4119,-0.6043,291.375
20:59:25:062,-1.3993,1.0277,12.0669,68.5042,0.1704,0.4907,-0.5133,292.1094
20:59:25:083,-1.513,0.4292,11.9364,67.53,0.3223,0.4295,-0.3844,292.8281
20:59:25:106,-1.4101,0.2257,12.377,67.2382,0.3971,0.2532,-0.2302,293.4688
20:59:25:125,-1.3203,-0.1826,13.2999,68.0852,0.4144,0.0777,-0.0746,293.9688
20:59:25:143,-1.2652,-0.5644,13.2448,69.3235,0.4895,0.0798,0.1145,294.1562
20:59:25:167,-1.4113,-0.3837,12.1172,66.8642,0.5792,0.1671,0.3246,294.4844
20:59:25:181,-0.6427,0.0401,11.4229,67.1132,0.5193,0.1181,0.5595,294.4688
20:59:25:203,-0.0238,0.24,12.3195,64.44,0.2583,-0.048,0.6665,294.25
20:59:25:223,-0.7098,-0.1586,13.841,65.6282,0.0519,-0.2036,0.584,293.7344
20:59:25:245,-1.2257,-1.1007,14.327,65.4049,0.1105,-0.1897,0.5912,293.0156
20:59:25:262,-1.1563,-1.7508,12.997,66.0546,0.3657,-0.0361,0.768,292.3438
20:59:25:282,-0.9348,-1.6538,10.7477,66.9784,0.5625,0.0859,0.9808,291.7031
20:59:25:303,-0.8127,-1.1007,9.7349,64.8887,0.4834,0.0177,1.1307,290.9531
20:59:25:325,-0.2968,-1.0157,10.5921,64.6263,0.2884,-0.2041,1.2154,289.9531
20:59:25:342,-0.3494,-0.987,11.1391,65.4827,0.3028,-0.3684,1.2061,288.7969
20:59:25:362,-0.3016,-1.0157,9.8223,64.3369,0.5641,-0.2851,1.2255,287.4531
20:59:25:382,-0.037,-0.8326,7.9309,64.8872,0.7846,-0.0457,1.294,286.0781
20:59:25:403,0.4395,-0.6925,6.0946,65.2019,0.8597,0.2055,1.3451,284.7969
20:59:25:427,0.7351,-0.4699,4.7179,64.2378,0.8133,0.3448,1.3366,283.375
20:59:25:443,0.9494,-0.1885,3.8428,64.384,0.6844,0.3544,1.2822,281.0469
20:59:25:463,1.0596,0.1012,3.5471,63.1838,0.4927,0.2353,1.1925,279.5625
20:59:25:482,0.9291,0.3166,4.1265,63.9467,0.2661,0.026,1.0569,278.0469
20:59:25:504,0.7244,0.3561,5.2698,64.2892,0.0626,-0.2145,0.9203,276.6406
20:59:25:525,0.6322,0.4112,6.4477,61.9105,-0.0487,-0.3847,0.8191,275.4219
20:59:25:544,0.6118,0.5489,7.6472,63.0089,-0.0977,-0.4715,0.7406,274.4531
20:59:25:563,0.6226,0.7225,8.5462,61.5428,-0.1052,-0.4089,0.6668,273.5625
20:59:25:583,0.7543,0.7715,8.7533,62.1761,-0.0983,-0.2046,0.5757,272.7812
20:59:25:604,1.0296,0.7871,8.7473,63.0057,-0.1337,-0.0073,0.4655,272.1094
20:59:25:624,1.123,0.6698,9.2405,62.3411,-0.2565,0.018,0.3073,271.4844
20:59:25:643,1.1398,0.2688,10.4484,60.5356,-0.4277,-0.0832,0.1294,270.9688
20:59:25:663,1.3756,-0.4734,12.2704,59.4394,-0.5971,-0.1836,-0.0035,270.625
20:59:25:683,2.3536,-1.1534,13.3789,60.0984,-0.6725,-0.1072,-0.0001,270.5469
20:59:25:703,3.4107,-1.1761,13.2065,60.7988,-0.64,0.071,0.0452,270.5156
20:59:25:723,3.9996,-0.683,12.1926,60.7988,-0.625,0.2281,-0.0126,270.5938
20:59:25:742,3.2646,-0.5237,12.1543,59.7401,-0.7561,0.0417,-0.2991,270.5938
20:59:25:762,1.3038,-1.3007,14.3546,58.7623,-1.0365,-0.2864,-0.636,270.5781
20:59:25:783,-0.5685,-2.2164,15.554,59.425,-0.7124,0.4076,-0.2536,270.9531
20:59:25:804,-0.7601,-2.2272,13.5812,58.6496,-0.2093,0.5296,0.3464,271.7031
20:59:25:825,1.2379,-1.6346,10.2114,58.2952,-0.0434,0.096,0.7062,271.7031
20:59:25:843,3.2359,-0.2496,8.9066,60.09,-0.0724,-0.4747,0.5768,272.5
20:59:25:862,3.6333,0.9439,9.2824,59.0127,-0.0498,-0.737,0.1624,272.7812
20:59:25:925,3.0551,1.0098,9.5458,59.2556,0.0336,-0.5429,-0.2456,271.5938
20:59:25:926,1.9993,0.6997,8.6659,58.8153,0.0895,-0.1213,-0.5005,270.9531
20:59:25:926,0.8453,0.647,7.0929,57.2896,0.0642,0.1868,-0.5892,270.7969
20:59:25:946,0.194,0.7033,6.0802,57.652,0.0293,0.2862,-0.5649,271.6719
20:59:25:962,0.0276,0.8889,5.6049,56.367,0.0051,0.2388,-0.5359,271.6719
20:59:25:981,0.0731,1.2181,5.769,57.5931,-0.0005,0.1402,-0.5503,272.3281
20:59:26:003,-0.0226,1.4168,6.2813,56.936,0.0306,0.0417,-0.5958,272.9375
20:59:26:025,-0.3638,1.4718,6.6261,57.9514,0.036,-0.023,-0.6137,273.8438
20:59:26:041,-0.6104,1.5293,7.2055,57.0854,-0.0059,-0.0683,-0.5977,274.4844
20:59:26:061,-0.62,1.4515,8.2565,56.4505,-0.0192,-0.0691,-0.5822,275.1562
20:59:26:081,-0.4596,1.2935,9.3124,55.8784,0.0003,-0.0148,-0.5841,275.8438
20:59:26:102,-0.614,1.0014,10.2377,55.3715,0.0037,0.161,-0.5556,276.5312
20:59:26:124,-1.0905,0.7488,10.9069,56.2072,0.0096,0.3874,-0.4414,277.1719
20:59:26:143,-1.2377,0.4711,11.1379,56.1391,0.0112,0.5735,-0.2904,277.8281
20:59:26:164,-1.191,0.2987,11.1487,54.6363,-0.0314,0.6633,-0.1135,278.3906
20:59:26:181,-1.0234,0.2436,11.2325,55.9367,-0.078,0.5861,0.0434,278.6094
20:59:26:203,-0.7612,0.0916,11.4995,54.7486,-0.1345,0.3112,0.1531,278.8906
20:59:26:223,-0.3806,-0.2616,12.2453,55.4353,-0.22,-0.0121,0.2306,279
20:59:26:242,0.1043,-0.4591,13.343,53.5911,-0.3553,-0.369,0.2412,278.9062
20:59:26:262,-0.0358,-0.6626,15.2679,53.9463,-0.4157,-0.5764,0.25,278.7188
20:59:26:282,-0.7864,-1.1271,17.7854,55.9255,-0.1451,-0.345,0.4215,278.4688
20:59:26:303,-0.9911,-1.5915,18.2918,52.6238,0.47,0.2412,0.715,278.2188
20:59:26:324,-0.1567,-1.8238,14.5485,51.7132,0.9068,0.5869,0.8998,277.7656
20:59:26:342,0.7854,-1.3294,10.2605,52.2402,0.8424,0.3922,0.8588,277.1562
20:59:26:362,1.032,-0.6722,8.4038,53.8057,0.4799,-0.0401,0.6479,276.1562
20:59:26:382,0.212,-0.5489,9.2681,53.0323,0.2346,-0.2454,0.5075,275.0781
20:59:26:403,-0.4584,-1.1019,10.5849,50.8264,0.3113,-0.0406,0.5416,274.2344
20:59:26:423,-0.948,-1.3174,9.9588,52.8588,0.518,0.258,0.7227,273.6094
20:59:26:449,-0.9791,-1.2133,8.0925,53.9353,0.6474,0.3528,0.9507,273.0469
20:59:26:464,-0.5482,-1.1115,6.2011,52.57,0.6008,0.2668,1.1241,272.3594
20:59:26:483,-0.0526,-0.4878,5.2267,53.5317,0.4405,0.0875,1.2585,271.3594
20:59:26:504,0.2336,-0.2161,5.6564,52.6119,0.3459,-0.1208,1.3669,270.125
20:59:26:525,0.5472,0.0784,6.0802,52.5344,0.3537,-0.3064,1.4293,268.7344
20:59:26:543,0.9722,0.3226,6.2406,52.8771,0.3952,-0.4081,1.4586,267.2969
20:59:26:563,1.293,0.6949,6.3639,51.9398,0.4096,-0.4475,1.4215,265.7188
20:59:26:584,1.548,1.011,6.5734,52.0668,0.363,-0.4334,1.3089,264.0781
20:59:26:602,1.5468,1.2743,6.9134,50.2974,0.2594,-0.3655,1.1336,262.5469
20:59:26:623,1.4845,1.3761,7.7382,51.261,0.1268,-0.3,0.9278,260.2969
20:59:26:642,1.3528,1.1438,8.4217,52.9733,0.0511,-0.2627,0.7259,259.0312
20:59:26:664,1.1206,0.7368,8.6959,50.1724,0.0282,-0.2616,0.5459,258.5312
20:59:26:685,1.214,0.2628,9.6116,49.7708,-0.0938,-0.3492,0.4407,257.2344
20:59:26:701,1.4342,-0.2292,11.3833,51.1526,-0.319,-0.4299,0.3842,256.9219
20:59:26:721,1.7515,-0.6578,13.3993,50.1637,-0.5084,-0.3599,0.3688,256.4062
20:59:26:745,2.7175,-1.1175,13.6339,50.6735,-0.4964,-0.0611,0.4348,256.0156
20:59:26:761,3.601,-0.835,12.353,50.4727,-0.3747,0.1983,0.4865,255.6719
20:59:26:781,4.099,-0.0293,11.2337,51.3787,-0.3569,0.1858,0.4212,255.2969
20:59:26:801,3.8512,0.2891,11.533,49.4016,-0.4879,-0.1026,0.1243,254.8125
20:59:26:825,2.5811,-0.4507,12.6702,51.7928,-0.6498,-0.325,-0.3186,254.2656
20:59:26:843,1.0512,-1.3102,13.2424,49.8905,-0.706,-0.1482,-0.5966,253.9531
20:59:26:864,0.382,-1.4623,12.1794,49.4165,-0.5872,0.2897,-0.5167,254.125
20:59:26:881,1.1589,-0.9978,10.2844,51.1538,-0.3707,0.5267,-0.2171,254.75
20:59:26:901,2.2483,-0.2065,8.7641,50.776,-0.2077,0.3403,-0.0035,255.4844
20:59:26:927,2.52,0.5872,8.5067,50.4905,-0.1965,-0.0739,-0.0645,255.9844
20:59:26:945,2.1166,0.7356,8.8096,49.0455,-0.273,-0.3125,-0.3045,255.9844
20:59:26:971,1.2331,0.4399,8.5869,48.6487,-0.2956,-0.2289,-0.5639,256.0781
20:59:26:991,0.546,0.3897,7.6556,50.0027,-0.2298,0.1767,-0.6962,257.1094
20:59:27:004,0.1091,0.5094,7.0319,50.5361,-0.237,0.3163,-0.6278,257.9219
20:59:27:024,-0.1447,0.6231,6.7434,49.3804,-0.2029,0.3304,-0.5119,258.7344
20:59:27:048,-0.3111,0.8206,6.7565,48.13,-0.1159,0.2646,-0.3652,259.4219
20:59:27:064,-0.2202,1.0529,6.8463,50.0322,-0.016,0.1517,-0.2467,260
20:59:27:084,0.0013,1.3114,6.9696,49.4488,0.0399,0.0217,-0.1748,260.4219
20:59:27:104,0.2898,1.4958,7.5119,47.7033,0.0463,-0.0752,-0.1553,260.6875
20:59:27:127,0.4837,1.5533,8.3427,48.2357,0.0383,-0.0584,-0.1761,260.875
20:59:27:147,0.5113,1.5329,9.2238,50.3306,0.0386,0.0241,-0.199,261.0469
20:59:27:163,0.4562,1.5736,9.9636,48.5881,0.0594,0.1754,-0.2193,261.25
20:59:27:183,0.3676,1.5161,10.4341,49.4479,0.0762,0.3586,-0.2232,261.25
20:59:27:206,0.2455,1.2504,10.4879,48.0507,0.0519,0.4015,-0.1854,261.5938
20:59:27:223,0.194,1.1965,10.938,48.1844,-0.0003,0.2721,-0.1189,261.5938
20:59:27:243,0.4957,1.0445,12.0621,48.7293,-0.0152,0.096,-0.097,261.9375
20:59:27:262,0.552,0.6758,13.5393,50.5601,0.0288,0.0566,-0.0808,262.125
20:59:27:281,0.6513,0.1981,14.4384,48.7784,0.0991,0.1807,-0.0587,262.25
20:59:27:301,0.5077,0.0437,14.1044,48.5744,0.098,0.2633,-0.0336,262.3594
20:59:27:325,0.2168,-0.021,13.5896,49.5193,0.0296,0.0643,0.0133,262.4375
20:59:27:340,-0.4045,-0.2484,14.175,49.4551,0.0677,-0.2606,0.1323,262.4844
20:59:27:361,-1.1455,-0.7129,15.3996,47.2296,0.3414,-0.1969,0.3866,262.5156
20:59:27:381,-1.4412,-1.2492,14.679,47.9565,0.6674,0.2217,0.7033,262.5
20:59:27:403,-1.0785,-1.388,11.7425,48.9872,0.7233,0.4731,0.9685,262.3594
20:59:27:424,-0.5613,-1.163,9.3387,50.1472,0.5246,0.2596,1.1288,261.9219
20:59:27:441,-0.3902,-0.7033,9.1699,48.5492,0.3617,-0.1972,1.2106,261.0625
20:59:27:460,-0.1998,-0.5968,10.5322,50.0121,0.474,-0.4366,1.241,259.9531
20:59:27:481,-0.1507,-0.7907,10.6783,50.4403,0.7057,-0.3572,1.2838,258.625
20:59:27:501,-0.2776,-0.7871,9.3411,49.427,0.828,-0.1599,1.3715,257.2344
20:59:27:524,-0.0202,-0.507,7.8399,49.4334,0.8296,-0.0472,1.4268,255.1719
20:59:27:544,0.4837,-0.2352,6.7733,48.9692,0.7832,-0.0515,1.3989,253.6406
20:59:27:561,0.8129,0.0305,6.1724,48.5874,0.7313,-0.0997,1.327,251.9844
20:59:27:585,0.9829,0.1909,5.8934,50.1215,0.6783,-0.1516,1.2372,250.3125
20:59:27:601,1.0895,0.3717,5.7306,49.3365,0.6168,-0.2126,1.1438,248.7812
20:59:27:621,1.3971,0.5225,5.7426,49.0189,0.5406,-0.2811,1.0258,247.2812
20:59:27:641,1.7347,0.7344,5.9102,49.4414,0.4368,-0.3471,0.8561,245.8906
20:59:27:662,1.9478,1.017,6.413,50.5321,0.326,-0.378,0.6412,244.6875
20:59:27:682,1.9622,1.1402,7.1696,48.9426,0.2352,-0.3066,0.4101,243.6094
20:59:27:701,1.6856,1.0086,7.8974,50.8354,0.1859,-0.1247,0.2412,242.75
20:59:27:723,1.2678,1.011,7.992,48.3528,0.1313,0.0769,0.152,242.4375
20:59:27:742,1.2068,1.0122,7.7274,49.9169,-0.0392,0.1823,0.1091,242.0156
20:59:27:761,1.5671,1.3162,8.2589,49.5049,-0.2445,0.1653,0.0543,241.7344
20:59:27:781,2.2914,1.5724,9.3578,48.4411,-0.3665,-0.055,-0.1441,241.5312
20:59:27:802,2.4841,1.2588,10.7285,48.7522,-0.408,-0.2949,-0.3862,241.3438
20:59:27:826,2.2315,0.1299,12.1244,48.7522,-0.4061,-0.2486,-0.4707,241.3906
20:59:27:844,2.0172,-0.9595,12.3219,48.9143,-0.4834,0.05,-0.3753,241.7812
20:59:27:861,1.688,-0.8027,11.8826,49.887,-0.6586,0.3179,-0.1881,242.3438
20:59:27:881,1.9574,-0.1706,11.8861,50.5136,-0.7973,0.2931,-0.0997,242.9219
20:59:27:902,1.6306,0.0712,13.5333,51.261,-0.7625,0.213,-0.0768,243.2656
20:59:27:925,1.4582,-0.0066,12.7038,50.8253,-0.5236,0.2606,0.026,243.4375
20:59:27:975,2.0795,0.1778,11.1308,50.5584,-0.2594,0.3003,0.2015,243.5938
20:59:27:975,3.1389,0.4196,9.8989,49.2906,-0.1177,0.144,0.3131,243.6875
20:59:27:985,3.364,0.841,9.2621,51.0529,-0.1041,-0.1626,0.2276,243.5625
20:59:28:000,2.8169,0.9367,9.1687,50.0247,-0.1699,-0.3905,-0.0243,243.25
20:59:28:021,1.937,0.7177,8.9712,51.0814,-0.2522,-0.3309,-0.2922,242.9219
20:59:28:042,1.1338,0.6243,8.2589,48.9294,-0.2836,-0.0749,-0.4445,242.8281
20:59:28:061,0.7411,0.7883,7.4964,50.5076,-0.2671,0.1285,-0.4565,243.0469
20:59:28:080,0.631,1.0481,7.0367,51.0314,-0.2514,0.2385,-0.423,243.5469
20:59:28:100,0.5376,1.242,6.5064,50.199,-0.2181,0.3251,-0.4017,244.0938
20:59:28:121,0.3533,1.4874,5.9832,50.5526,-0.1598,0.3671,-0.4083,244.8281
20:59:28:141,0.279,1.7184,5.6971,53.0486,-0.13,0.3365,-0.4256,245.2812
20:59:28:162,0.1342,1.8022,6.0024,51.0401,-0.1643,0.2497,-0.4608,245.7344
20:59:28:181,-0.1016,2.0201,6.8188,51.1869,-0.2325,0.1584,-0.488,246.1719
20:59:28:201,-0.1663,2.129,7.9142,53.8505,-0.269,0.0865,-0.4898,246.7031
20:59:28:227,-0.298,2.1302,9.1017,51.1811,-0.2645,0.0388,-0.4991,247.2656
20:59:28:243,-0.4871,2.0417,10.385,51.5794,-0.2538,0.0532,-0.5058,247.5469
20:59:28:261,-0.7876,1.813,11.7245,52.1995,-0.2346,0.157,-0.4949,248.0938
20:59:28:285,-1.1527,1.4228,12.4069,51.5718,-0.1601,0.3469,-0.4635,248.6875
20:59:28:300,-1.525,1.0241,12.6487,53.1689,-0.0631,0.463,-0.3665,249.2812
20:59:28:321,-1.6016,0.4938,13.5238,53.4182,-0.0146,0.4036,-0.1716,249.8281
20:59:28:341,-1.1419,0.167,14.0577,53.0824,0.0653,0.3818,0.1046,250.2812
20:59:28:361,-0.3901,0.2041,13.033,54.1525,0.2128,0.5352,0.3677,250.5781
20:59:28:381,-0.0478,0.5405,11.679,51.9446,0.257,0.6281,0.4921,250.5938
20:59:28:400,-0.1675,0.6841,11.3462,54.772,0.0983,0.524,0.5089,250.0312
20:59:28:422,-0.778,0.3478,12.596,54.2484,-0.1278,0.23,0.4838,249.4219
20:59:28:442,-1.4903,-0.1371,14.1032,54.8323,-0.187,-0.0686,0.5406,248.8125
20:59:28:461,-1.9488,-0.7165,14.0481,54.608,0.0186,-0.108,0.7198,248.2656
20:59:28:481,-1.6351,-1.1893,12.4332,55.3429,0.3039,-0.0198,0.9845,247.6562
20:59:28:500,-0.9863,-1.1462,11.2158,54.4897,0.4197,-0.0488,1.2506,246.8438
20:59:28:522,-0.4727,-0.8266,11.1056,55.3879,0.3665,-0.1985,1.4181,245.7656
20:59:28:543,-0.0621,-0.6398,11.023,54.9018,0.3214,-0.243,1.4695,244.3281
20:59:28:564,0.0863,-0.5884,10.2042,53.7996,0.367,-0.1567,1.4522,242.7031
20:59:28:582,0.0935,-0.4064,8.9496,54.4008,0.4645,0.1315,1.4085,241.0156
20:59:28:603,0.6035,-0.0664,7.8435,55.2068,0.3878,0.3397,1.3083,239.4375
20:59:28:626,1.0524,0.2484,7.2007,54.0807,0.1942,0.7086,1.0838,237.7812
20:59:28:644,0.9279,0.4711,7.0594,56.6094,0.0096,1.2412,0.8567,236.1406
20:59:28:663,0.4418,0.568,6.7182,55.3805,-0.0591,1.6151,0.7057,233.3594
20:59:28:680,-0.0047,0.7536,6.1005,55.0808,-0.0245,1.7073,0.6223,233.3594
20:59:28:700,-0.4332,1.1391,5.095,54.5387,-0.0216,1.3941,0.5589,232.2656
20:59:28:720,-0.7589,1.3617,4.8232,54.462,-0.0647,0.7861,0.4971,231.3594
20:59:28:743,-1.0138,1.3641,5.757,54.7105,-0.0775,0.1448,0.4713,230.5
20:59:28:764,-1.0821,1.0517,7.6544,55.8001,0.0008,-0.296,0.4639,229.0938
20:59:28:782,-1.0174,0.6841,9.8559,55.794,0.2171,-0.3852,0.4553,229.0938
20:59:28:800,-0.5374,0.2903,10.6579,54.7462,0.3681,-0.1663,0.3952,228.5781
20:59:28:821,0.0564,0.2233,10.1755,54.8908,0.2642,0.0763,0.2551,228.0625
20:59:28:841,0.3353,0.07,10.0653,53.3011,0.0312,0.1834,0.0721,227.5781
20:59:28:861,0.4395,-0.4136,10.8542,54.1521,-0.1302,0.1805,-0.0701,227.1719
20:59:28:880,0.1569,-0.9188,11.6288,54.4191,-0.1497,0.1698,-0.0669,226.7812
20:59:28:899,0.145,-1.2516,11.4983,55.8419,-0.1435,0.0779,0.0519,226.8438
20:59:28:921,0.7028,-1.2671,11.023,54.2997,-0.2131,-0.1167,0.128,226.875
20:59:28:942,1.3433,-1.0433,10.6459,54.7918,-0.3747,-0.3943,0.0359,226.875
20:59:28:965,1.0811,-0.7679,11.4827,53.5903,-0.5153,-0.5117,-0.1236,226.75
20:59:28:983,0.1833,-0.9702,12.675,53.5372,-0.4658,-0.2547,-0.1561,226.6562
20:59:28:999,-0.3937,-1.1558,12.3123,54.6452,-0.3254,0.1224,-0.0115,226.7344
20:59:29:021,0.2156,-0.8386,10.4747,54.6934,-0.2847,0.2159,0.1089,226.9531
20:59:29:041,1.2786,-0.1407,9.0682,54.3912,-0.338,-0.1197,0.0191,227.0781
20:59:29:061,1.9406,0.4256,9.1927,53.1501,-0.3803,-0.4595,-0.2547,226.9844
20:59:29:084,1.6234,0.6147,9.9672,54.8688,-0.3353,-0.3884,-0.5516,226.8594
20:59:29:100,0.6394,0.4747,9.4081,54.8663,-0.2711,-0.0534,-0.7157,227
20:59:29:123,-0.1088,0.5776,8.0494,52.7328,-0.2535,0.2958,-0.7303,227.2031
20:59:29:142,-0.3746,0.9236,6.4788,53.3594,-0.2975,0.4194,-0.7151,227.8281
20:59:29:161,-0.5003,1.2815,5.7163,53.496,-0.3459,0.2971,-0.7085,228.6406
20:59:29:180,-0.7648,1.4671,5.824,53.959,-0.3262,0.0745,-0.6986,229.4688
20:59:29:200,-1.2413,1.4204,6.5195,53.299,-0.2402,-0.0185,-0.6235,230.2188
20:59:29:221,-1.5537,1.4563,7.0151,53.4572,-0.1675,0.0145,-0.5114,231.4219
20:59:29:242,-1.6543,1.5916,7.4748,54.5995,-0.1587,0.0718,-0.4238,232.1719
20:59:29:265,-1.7345,1.7831,8.2817,54.2315,-0.147,0.0902,-0.3777,232.7812
20:59:29:280,-1.7058,1.8824,9.3567,53.3413,-0.0663,0.0601,-0.3822,233.3125
20:59:29:301,-2.1631,1.4778,10.9201,54.8311,0.0429,0.0915,-0.3958,233.7656
20:59:29:320,-2.4037,1.151,10.9296,54.2119,0.1369,0.2273,-0.3529,234.1562
20:59:29:341,-2.5282,0.9415,10.8602,53.7048,0.1529,0.3999,-0.2682,234.6094
20:59:29:360,-2.4659,0.8434,11.3618,53.5517,0.0882,0.4739,-0.1319,235.0469
20:59:29:379,-2.1523,0.5656,12.2872,53.7226,0.0594,0.3608,0.0183,235.4062
20:59:29:401,-1.6292,0.1095,12.6247,52.1077,0.1281,0.1751,0.1443,235.6094
20:59:29:421,-1.2197,-0.0377,12.1555,52.4414,0.2069,0.0747,0.2428,235.6719
20:59:29:443,-1.1252,0.173,11.4671,52.2557,0.172,-0.0164,0.2532,235.5625
20:59:29:460,-1.5406,0.0186,12.4595,52.308,-0.085,-0.2198,0.1475,235.3594
20:59:29:480,-2.6886,-0.6566,15.1195,52.3564,-0.3941,-0.4851,0.0676,234.9219
20:59:29:508,-3.5613,-1.6382,16.9822,52.3017,-0.3526,-0.504,0.2039,234.7656
20:59:29:526,-3.1566,-2.056,14.0301,53.1126,0.1918,-0.0805,0.5959,234.6875
20:59:29:543,-2.2445,-1.3138,9.4417,51.449,0.633,0.3725,1.0066,234.4531
20:59:29:560,-1.2904,-0.6997,7.4365,51.7872,0.5377,0.3091,1.2359,233.7812
20:59:29:581,-1.0174,-0.3717,8.1691,50.5578,0.2128,-0.1399,1.2591,232.7031
20:59:29:600,-1.1611,-0.337,9.5434,50.6902,0.0565,-0.5471,1.2239,231.2812
20:59:29:621,-1.039,-0.5189,9.444,51.0879,0.1926,-0.6797,1.2362,230.5625
20:59:29:641,-1.1383,-0.4495,8.2601,51.3192,0.3689,-0.5746,1.2524,229.1719
20:59:29:662,-0.675,-0.1861,7.3144,48.541,0.3803,-0.3333,1.3097,227.875
20:59:29:680,-0.183,0.0592,6.8691,49.6192,0.318,-0.1623,1.3251,226.4844
20:59:29:700,-0.0705,0.2448,6.48,49.9427,0.3127,-0.1303,1.258,225.0469
20:59:29:720,-0.0741,0.349,6.4082,49.6325,0.3204,-0.2001,1.1773,223.5469
20:59:29:744,-0.0286,0.3945,6.6859,49.4781,0.323,-0.2923,1.1158,222.1406
20:59:29:760,0.1402,0.5094,6.753,50.2458,0.3601,-0.3266,1.0721,220.75
20:59:29:781,0.5747,0.7715,6.6835,48.891,0.3939,-0.325,1.0279,218.9062
20:59:29:801,1.1661,1.1043,6.6776,49.0827,0.3768,-0.3237,0.9331,217.6875
20:59:29:821,1.3828,1.3438,7.0115,48.1417,0.2967,-0.3594,0.7358,216.5312
20:59:29:843,1.2068,1.4311,7.8591,48.1626,0.1545,-0.374,0.4615,215.4844
20:59:29:859,0.9291,1.0959,8.5091,48.6751,0.0301,-0.2827,0.1906,214.7031
20:59:29:880,0.4766,0.7787,8.6504,48.6751,-0.0647,-0.1024,-0.0235,214.2031
20:59:29:900,0.364,0.5201,9.0131,49.3085,-0.2147,0.0279,-0.1343,214.0156
20:59:29:922,0.2766,0.2137,10.0893,48.3133,-0.4085,-0.0076,-0.1977,214.0469
20:59:29:942,0.0935,-0.1837,11.46,48.7318,-0.5483,-0.1442,-0.2352,214.2031
20:59:29:960,0.3784,-0.7296,12.4404,48.1313,-0.5915,-0.2374,-0.1854,214.4531
20:59:30:016,0.9291,-1.0265,12.5852,48.9235,-0.5992,-0.2361,-0.0949,214.75
20:59:30:017,1.4618,-1.0409,12.7504,46.0565,-0.8088,-0.3106,-0.0725,215
20:59:30:029,1.5504,-0.8781,13.8769,48.5404,-0.8669,-0.3349,-0.1881,215
20:59:30:045,0.9195,-0.9475,15.2272,46.5316,-0.7263,-0.0614,-0.2459,215.25
20:59:30:060,0.1964,-1.1989,15.475,49.6011,-0.3779,0.4106,-0.1242,215.375
20:59:30:080,0.5843,-1.248,13.3945,48.0917,-0.0432,0.6886,0.0452,215.6719
20:59:30:099,1.6832,-0.7679,10.5933,49.4258,0.1065,0.5269,0.0769,216
20:59:30:120,2.7151,-0.2101,8.8802,48.5727,0.126,0.1336,-0.0917,216.1406
20:59:30:143,2.8995,0.2903,8.2529,48.693,0.0778,-0.0813,-0.3833,216.0781
20:59:30:160,2.2315,0.4196,8.0063,48.8357,0.0381,-0.0528,-0.6419,215.9688
20:59:30:182,1.2319,0.2364,7.6113,48.1317,0.0133,0.1051,-0.758,216.0625
20:59:30:199,0.3174,0.1419,7.1109,49.7281,-0.0133,0.2958,-0.725,216.4844
20:59:30:219,-0.1567,0.2999,6.5914,50.8064,-0.025,0.3903,-0.6232,217.2188
20:59:30:243,-0.2309,0.5836,6.3388,49.2615,-0.0109,0.3901,-0.5362,218.0781
20:59:30:259,-0.2657,0.9272,6.2286,49.3691,0.0245,0.3288,-0.4635,218.8594
20:59:30:279,-0.2609,1.3102,6.2227,50.3297,0.0432,0.2345,-0.4219,219.5625
20:59:30:299,-0.1579,1.6167,6.4633,51.4216,0.0482,0.1325,-0.4299,220.1562
20:59:30:320,-0.1268,1.8046,6.7709,51.2087,0.0037,0.0454,-0.4848,221.125
20:59:30:342,-0.2561,1.8346,7.2545,51.1555,-0.1252,0.0042,-0.529,221.625
20:59:30:360,-0.4237,1.7879,8.5007,50.8575,-0.2498,0.0409,-0.5356,221.8906
20:59:30:379,-0.5745,1.8034,10.4293,52.0875,-0.2045,0.1994,-0.4949,222.4375
20:59:30:399,-0.5458,2.0225,11.946,52.4195,0.0437,0.4524,-0.4605,223.0625
20:59:30:420,-0.5673,2.0129,11.6635,52.5757,0.2445,0.577,-0.4576,223.6562
20:59:30:444,-0.9839,1.7041,10.8327,52.0313,0.2695,0.4947,-0.4209,224.1875
20:59:30:462,-1.4723,1.2121,10.7836,52.8919,0.2053,0.3008,-0.2981,224.6719
20:59:30:480,-1.4472,0.6458,11.2948,52.6359,0.1499,0.1584,-0.1572,225.1719
20:59:30:500,-1.2365,0.3777,11.5617,53.2783,0.0245,0.063,-0.073,225.5781
20:59:30:519,-1.1156,0.4998,12.0046,54.7381,-0.1691,-0.0116,-0.0589,225.8125
20:59:30:541,-0.8965,0.5357,12.924,52.4864,-0.3414,-0.1796,-0.1231,225.9219
20:59:30:559,-1.0354,0.185,14.4827,54.4864,-0.3843,-0.3503,-0.19,225.9844
20:59:30:582,-2.0924,-0.4914,16.2424,53.4443,-0.1537,-0.2616,-0.0725,226.0312
20:59:30:600,-2.9639,-1.4,16.3525,53.681,0.3276,0.1277,0.2849,226.1562
20:59:30:620,-2.7927,-1.7843,13.1443,56.089,0.6442,0.4252,0.6894,226.3906
20:59:30:642,-1.9931,-1.3533,9.4381,53.9515,0.5763,0.2572,0.9568,226.4844
20:59:30:660,-1.0821,-0.8446,7.743,55.5762,0.3329,-0.203,1.0372,225.8281
20:59:30:679,-0.778,-0.4567,8.2829,53.8654,0.2165,-0.5841,1.0532,224.8438
20:59:30:700,-0.2273,-0.2388,8.891,54.5939,0.3127,-0.6763,1.0767,223.6875
20:59:30:720,-0.1292,-0.0245,7.8088,55.2142,0.4021,-0.5354,1.058,222.5625
20:59:30:743,0.03,0.2783,6.9505,53.8236,0.3595,-0.3327,1.0276,221.375
20:59:30:761,0.224,0.4687,6.6548,53.5569,0.257,-0.2299,0.976,220.1875
20:59:30:779,0.1414,0.513,6.6285,56.3458,0.1944,-0.2331,0.8641,219.0156
20:59:30:799,-0.0765,0.4136,6.6883,53.7945,0.1867,-0.2646,0.7677,217.9219
20:59:30:819,-0.3004,0.4675,6.923,55.9148,0.2021,-0.2923,0.7198,216.875
20:59:30:843,-0.1938,0.647,7.4209,55.2465,0.2298,-0.3005,0.7336,215.9531
20:59:30:861,0.2443,0.9116,7.6556,55.1203,0.2951,-0.2579,0.7677,215.1719
20:59:30:880,0.6513,1.3258,7.4557,54.5158,0.3694,-0.1937,0.7408,214.3594
20:59:30:899,1.0967,1.6885,7.3395,55.0119,0.3681,-0.1761,0.6306,213.5
20:59:30:919,1.0572,1.8142,7.7956,55.6007,0.2727,-0.2073,0.433,212.6719
20:59:30:942,0.5328,1.5892,8.4457,54.5133,0.1662,-0.1958,0.2082,211.5312
20:59:30:961,0.0672,1.2635,8.8647,54.8516,0.0724,-0.0843,0.0753,211.0469
20:59:30:981,0.1366,0.9284,9.2094,55.425,-0.0288,0.0191,0.0548,210.8125
20:59:30:999,0.6873,0.2867,9.2776,56.0182,-0.1244,-0.0566,0.0644,210.7344
20:59:31:019,1.4809,-0.1993,10.4963,55.2771,-0.274,-0.418,0.0601,210.6719
20:59:31:042,2.4973,-0.8721,12.4176,54.6301,-0.4442,-0.7849,0.0348,210.6094
20:59:31:060,2.8767,-1.3976,12.505,55.982,-0.4578,-0.7626,-0.0712,210.5938
20:59:31:081,1.9849,-1.4287,10.9416,55.3789,-0.4884,-0.4459,-0.2853,210.6094
20:59:31:099,0.6358,-1.4599,11.1667,56.8527,-0.8272,-0.1951,-0.4746,210.7031
20:59:31:120,-0.4321,-1.491,13.4184,55.4007,-1.2333,-0.0768,-0.4517,210.9688
20:59:31:143,-0.6583,-1.1079,14.7807,55.6193,-1.2472,0.1344,-0.1913,211.5
20:59:31:159,0.9099,-0.4675,13.5393,57.4717,-0.828,0.3687,0.2279,212.1719
20:59:31:179,2.8827,0.4938,11.3917,56.6491,-0.3563,0.3941,0.4977,212.6875
20:59:31:199,4.2714,1.3222,9.8547,55.2441,-0.0993,0.0995,0.4005,212.7344
20:59:31:219,4.1074,1.5233,9.286,54.7694,-0.0551,-0.2438,-0.0512,212.0312
20:59:31:242,2.7738,0.8936,9.2812,56.6996,-0.1601,-0.3519,-0.6438,211.5781
20:59:31:259,1.1015,-0.2292,9.1915,55.2934,-0.2871,-0.113,-1.0771,211.6562
20:59:31:283,-0.6152,-0.7081,8.6504,56.9682,-0.3614,0.3392,-1.1932,212.4062
20:59:31:299,-1.604,-0.6363,7.7645,56.331,-0.3289,0.7006,-0.9809,213.6562
20:59:31:319,-1.3538,-0.4687,6.6237,55.4781,-0.176,0.7419,-0.5604,214.9844
20:59:31:344,-0.7337,0.2903,5.5678,55.5262,0.0242,0.5272,-0.1268,216.125
20:59:31:359,0.0683,1.1271,5.2183,56.5246,0.1531,0.1376,0.1693,216.7812
20:59:31:385,0.7878,1.6251,5.8384,57.6019,0.1918,-0.2749,0.2524,216.9062
20:59:31:399,0.771,1.6861,7.3635,57.4654,0.0724,-0.5061,-0.0075,216.7031
20:59:31:421,0.4849,1.3689,8.7114,55.6471,0.0578,-0.255,-0.0616,216.7031
20:59:31:444,0.0408,1.1618,9.7577,55.4197,0.0754,0.1253,-0.0035,216.4062
20:59:31:462,0.1845,1.3318,10.1719,58.0438,0.0812,0.4471,0.0439,216.2656
20:59:31:484,0.7854,1.7424,10.4436,56.2413,0.0341,0.6819,-0.0565,216.3438
20:59:31:500,1.05,1.8753,10.792,55.66,-0.029,0.8135,-0.2611,216.2812
20:59:31:518,0.716,1.4838,11.181,56.8475,-0.0951,0.8726,-0.3987,216.2812
20:59:31:540,-0.1364,0.8134,11.8335,55.3006,-0.0999,0.781,-0.3511,216.3281
20:59:31:560,-0.9588,0.2927,12.9384,54.1052,0.0735,0.5602,-0.1314,216.6094
20:59:31:585,-0.8846,0.0952,13.2245,55.1185,0.3025,0.4063,0.079,217.0312
20:59:31:599,-0.6583,0.4052,12.3734,54.8909,0.3065,0.2966,0.1874,217.5781
20:59:31:619,-0.353,0.8853,12.0034,55.8421,0.1278,0.0603,0.1778,217.5781
20:59:31:644,-0.1196,0.8781,13.3586,55.8865,0.0024,-0.345,0.0788,217.4688
20:59:31:660,-0.8211,0.1143,15.8461,54.5103,0.2091,-0.5559,0.1318,217.25
20:59:31:678,-1.4592,-0.993,17.1306,53.3572,0.7366,-0.3849,0.4087,217.0469
20:59:31:699,-1.209,-1.5556,14.6838,52.4704,1.1084,-0.0148,0.7344,216.9531
20:59:31:719,-0.0598,-1.084,10.7764,51.9722,0.9971,0.1205,0.8625,216.8281
20:59:31:739,0.9147,-0.3765,8.6384,52.0229,0.6277,0.0215,0.7254,216.3438
20:59:31:760,0.8608,0.0557,8.5366,50.6529,0.3675,-0.1002,0.5406,215.4688
20:59:31:780,0.1869,-0.07,9.0825,50.0193,0.3603,-0.1221,0.4902,214.4375
20:59:31:800,-0.2585,-0.3262,8.7054,50.2819,0.4858,-0.0616,0.5651,213.6406
20:59:31:819,-0.4464,-0.325,7.4569,50.3238,0.5734,-0.0033,0.695,212.7344
20:59:31:844,-0.2549,-0.1107,6.0622,48.513,0.5582,0.0247,0.8055,212.1406
20:59:31:863,0.0875,0.2496,5.0818,48.5746,0.469,0.0023,0.8615,211.4375
20:59:31:879,0.5424,0.5201,4.6113,48.426,0.3598,-0.0667,0.8316,210.5469
20:59:31:899,0.8058,0.7428,4.4749,48.1721,0.2277,-0.1418,0.7488,209.5469
20:59:31:919,0.8082,0.811,4.9741,47.8415,0.1049,-0.1911,0.6884,208.6094
20:59:31:940,0.868,0.9607,5.751,47.8415,0.0325,-0.2757,0.637,207.7031
20:59:31:958,0.8716,1.2444,6.917,48.383,0.0338,-0.3482,0.6111,206.8906
20:59:31:979,1.105,1.4335,8.1356,47.0137,0.0967,-0.26,0.5874,206.1875
20:59:32:000,1.4055,1.8813,8.6085,46.8024,0.1188,-0.0837,0.4897,205.5156
20:59:32:065,1.767,2.5073,8.8706,45.5958,0.1108,0.0542,0.254,204.8438
20:59:32:065,1.9849,2.7803,8.8467,44.5276,0.0732,0.0974,-0.105,204.2188
20:59:32:065,1.5923,2.5049,8.7222,45.2127,-0.0919,0.0417,-0.4355,203.7969
20:59:32:080,1.0631,1.7412,9.1903,46.4088,-0.3425,-0.0451,-0.631,203.6875
20:59:32:100,0.6274,-0.0353,12.2081,45.1278,-0.5744,-0.1247,-0.6949,203.7969
20:59:32:128,1.0548,-0.4926,13.0545,44.8177,-0.6767,-0.0728,-0.6206,204.6094
20:59:32:143,1.3481,-0.2747,12.4248,46.1339,-0.6679,0.0638,-0.5146,205.4375
20:59:32:163,1.1254,-0.1694,12.2034,45.3471,-0.6871,-0.0099,-0.5188,206.25
20:59:32:183,0.5759,-0.7967,13.4483,44.1525,-0.7398,-0.3607,-0.5894,206.9062
20:59:32:199,-0.2118,-1.4203,14.242,43.6093,-0.6866,-0.476,-0.574,207.5156
20:59:32:218,-0.0981,-1.8202,13.258,44.1791,-0.4972,-0.182,-0.3511,208.2031
20:59:32:239,1.1625,-1.3461,11.0996,44.0394,-0.2751,0.1453,0.0023,208.9688
20:59:32:260,2.8923,-0.5441,9.0538,43.085,-0.1619,0.2287,0.2364,209.5625
20:59:32:281,3.8057,0.4232,8.2446,40.749,-0.2242,0.0127,0.1762,209.7812
20:59:32:298,3.3771,0.9966,8.6887,41.6608,-0.3665,-0.2662,-0.1535,209.625
20:59:32:318,2.2195,0.6387,8.7114,43.2633,-0.4077,-0.3136,-0.5423,209.3594
20:59:32:339,0.941,0.3502,8.1392,41.4478,-0.3787,-0.0867,-0.7862,209.3438
20:59:32:359,0.2659,0.3969,7.2581,41.8433,-0.3444,0.2585,-0.7878,209.7812
20:59:32:382,0.309,0.6662,6.4285,43.0764,-0.2645,0.4329,-0.6648,210.625
20:59:32:401,0.7411,1.0098,5.903,44.3013,-0.1622,0.3791,-0.5476,211.9688
20:59:32:418,1.0188,1.242,5.7414,42.0834,-0.0778,0.1879,-0.5204,212.7344
20:59:32:440,0.8237,1.3749,5.6373,42.0723,-0.0325,0.0066,-0.5892,213.3281
20:59:32:460,0.4418,1.497,5.982,42.2103,-0.0855,-0.117,-0.6669,213.9219
20:59:32:479,0.2814,1.7388,7.1217,42.468,-0.2171,-0.1996,-0.6965,214.6094
20:59:32:501,0.1713,1.904,8.6552,41.6112,-0.3204,-0.235,-0.7005,215.375
20:59:32:519,0.0624,2.1662,10.1264,39.9948,-0.3494,-0.1682,-0.6922,216.1562
20:59:32:538,-0.0394,2.1949,11.4157,40.1858,-0.3164,-0.003,-0.696,216.5625
20:59:32:559,-0.1364,1.7987,11.8023,40.81,-0.2024,0.2079,-0.7324,217.3906
20:59:32:578,-0.602,1.2085,11.7137,40.3148,-0.1164,0.3893,-0.7713,218.2031
20:59:32:600,-1.0438,0.7141,12.5002,41.03,-0.1566,0.4066,-0.7066,218.9844
20:59:32:618,-1.045,0.2915,14.0313,41.3377,-0.2043,0.2686,-0.5436,219.8594
20:59:32:639,-0.6248,0.0652,14.5784,38.6667,-0.1196,0.1773,-0.3604,220.7188
20:59:32:659,-0.7277,0.2053,14.1918,38.8799,-0.021,0.1975,-0.2605,221.7031
20:59:32:679,-1.1407,0.2664,14.8047,38.7826,-0.0602,0.12,-0.2216,222.125
20:59:32:698,-1.8674,-0.1526,16.744,38.8538,-0.1118,-0.0891,-0.1631,222.4219
20:59:32:718,-2.1858,-1.1953,17.3844,39.0063,0.0996,-0.0366,0.0117,222.6719
20:59:32:738,-1.6758,-2.0321,14.1906,39.2658,0.6091,0.3858,0.3227,222.8594
20:59:32:760,-0.7828,-2.0009,9.9528,39.6176,0.9654,0.7389,0.6415,222.8281
20:59:32:778,-0.292,-1.5089,7.7585,39.1722,0.882,0.5549,0.8138,222.4688
20:59:32:798,-0.7325,-1.2276,8.5618,39.4585,0.49,0.0468,0.8066,221.6719
20:59:32:819,-1.0725,-1.3677,10.4496,36.3023,0.3079,-0.3937,0.9576,220.7031
20:59:32:839,-0.5961,-1.2252,10.6268,36.9918,0.5848,-0.1945,1.1012,220.7031
20:59:32:860,-0.1555,-0.6817,8.7426,36.457,0.7417,-0.0558,1.1494,218.875
20:59:32:878,-0.104,-0.2879,6.5985,37.6129,0.6852,-0.1114,1.1667,217.7812
20:59:32:898,-0.0107,-0.0114,5.5499,34.5344,0.5201,-0.1852,1.217,216.5156
20:59:32:918,0.2264,0.1814,5.5403,37.1928,0.38,-0.2363,1.2735,215.2344
20:59:32:940,0.5089,0.501,6.3208,35.5588,0.3641,-0.2126,1.3265,213.875
20:59:32:960,1.0069,0.8721,6.9936,35.6475,0.4796,-0.1729,1.3211,211.75
20:59:32:980,1.5575,1.1079,6.9098,36.6593,0.6101,-0.158,1.2175,210.3281
20:59:33:000,1.9981,1.3749,6.3926,37.3088,0.6528,-0.1839,1.0327,208.0312
20:59:33:018,2.3704,1.5317,6.091,36.6381,0.5944,-0.2885,0.7651,208.0312
20:59:33:038,2.429,1.4826,6.3998,35.9384,0.4565,-0.3445,0.4655,206.6094
20:59:33:059,1.9646,1.1606,7.3216,36.9174,0.2871,-0.2049,0.2378,205.4688
20:59:33:080,1.7012,0.6961,8.0171,36.3278,0.1427,-0.0246,0.1038,204.5781
20:59:33:098,1.8053,0.3705,8.4469,35.5184,-0.0146,0.0361,-0.0166,204.0469
20:59:33:119,2.0914,0.07,8.8587,34.8155,-0.2021,-0.0952,-0.1484,203.6562
20:59:33:139,2.5236,-0.3035,9.9408,34.4836,-0.3995,-0.325,-0.2858,203.6562
20:59:33:160,3.0934,-0.9272,11.7904,33.4241,-0.5414,-0.3892,-0.3937,203.6719
20:59:33:178,3.5016,-1.5927,13.0282,34.6916,-0.6136,-0.2345,-0.4211,203.8594
20:59:33:200,3.2933,-1.7567,13.0066,34.2564,-0.6844,-0.2289,-0.4017,204.25
20:59:33:217,2.7977,-1.4934,12.8474,33.8828,-0.8067,-0.4773,-0.3793,204.7812
20:59:33:238,2.1429,-1.2109,14.0625,34.7155,-0.8495,-0.566,-0.333,205.5781
20:59:33:258,1.3911,-1.1223,15.4499,34.7389,-0.6354,-0.1429,-0.1924,206.125
20:59:33:280,1.305,-0.92,14.2564,33.5667,-0.2626,0.4156,0.0431,206.6719
20:59:33:299,2.2195,-0.0138,10.7238,35.3904,-0.0399,0.4335,0.1576,207.0938
20:59:33:317,3.2227,1.1019,7.9106,35.2543,-0.0519,-0.0387,0.0071,207.2031
20:59:33:338,3.5986,2.0177,6.9361,33.8902,-0.2051,-0.4678,-0.3545,207.0469
20:59:33:358,3.364,2.2883,7.3264,36.6307,-0.3422,-0.5583,-0.7788,206.8906
20:59:33:380,2.6948,1.989,7.7968,36.6478,-0.3795,-0.3961,-1.1511,207.0938
20:59:33:401,1.785,1.5844,7.4844,36.0026,-0.4298,-0.1519,-1.4123,207.7969
20:59:33:418,0.7651,1.1917,7.3336,35.6439,-0.4978,0.1115,-1.5029,208.9844
20:59:33:440,-0.0478,0.8853,7.6137,36.4465,-0.4607,0.3536,-1.4361,210.5312
20:59:33:458,-0.365,0.9547,7.7035,36.5341,-0.277,0.5182,-1.3141,212.1875
20:59:33:480,-0.2525,1.1833,7.0092,36.6716,-0.1108,0.4966,-1.2161,213.9375
20:59:33:498,-0.0574,1.491,6.2586,36.8312,-0.0511,0.3165,-1.1535,214.75
20:59:33:519,0.194,1.7723,7.2055,37.0257,-0.077,0.0404,-1.157,216.1875
20:59:33:540,-0.1747,1.7041,8.4361,38.0824,-0.1433,-0.1258,-1.1689,218.2188
20:59:33:561,-0.462,1.5772,9.5554,37.252,-0.1883,-0.1066,-1.1037,219.5312
20:59:33:580,-0.5374,1.4276,10.446,37.7588,-0.1939,0.0175,-0.9713,220.8125
20:59:33:597,-0.4955,1.4048,10.774,37.6288,-0.1824,0.2313,-0.7993,222.1562
20:59:33:617,-0.5254,1.3761,10.7453,37.3466,-0.188,0.4218,-0.6294,223.3594
20:59:33:638,-0.6427,1.1738,11.2265,38.093,-0.236,0.4553,-0.4515,224.3906
20:59:33:660,-0.6092,0.902,11.9771,37.7247,-0.2631,0.3586,-0.2288,225.1719
20:59:33:678,-0.0825,0.8613,12.6116,38.9698,-0.2269,0.1693,0.0212,225.7812
20:59:33:698,0.5639,1.0553,13.5298,38.0032,-0.1965,-0.0821,0.2015,226.1719
20:59:33:717,0.9303,1.1833,14.6646,36.681,-0.233,-0.2773,0.2178,226.2969
20:59:33:739,0.4251,0.9056,16.0149,38.9401,-0.293,-0.337,0.0945,226.1562
20:59:33:760,-0.7289,0.1873,17.1546,37.5627,-0.2847,-0.2054,-0.0131,225.9219
20:59:33:777,-1.5645,-0.6602,16.6147,38.1303,-0.0498,0.1496,0.074,225.75
20:59:33:801,-1.5442,-1.1247,13.6519,37.8138,0.3681,0.5778,0.356,225.7812
20:59:33:818,-1.0988,-1.1139,10.4041,38.1044,0.6645,0.7576,0.6804,225.6875
20:59:33:837,-0.7481,-0.9164,8.7102,38.8021,0.702,0.5006,0.9272,225.2812
20:59:33:860,-0.7612,-0.6973,8.9185,36.7578,0.5484,0.0414,1.0687,224.4375
20:59:33:878,-0.5302,-0.7404,9.9815,37.1683,0.4203,-0.3008,1.1898,223.3125
20:59:33:898,-0.3327,-0.6925,9.6715,37.1713,0.506,-0.3671,1.2956,222.0625
20:59:33:919,-0.1028,-0.4088,8.4361,36.0768,0.6378,-0.2683,1.3768,220.7656
20:59:33:938,0.2024,-0.1215,7.4221,37.899,0.6677,-0.1721,1.4348,219.2656
20:59:33:961,0.4957,0.0485,6.6608,37.2938,0.6591,-0.1373,1.4458,218.4844
20:59:33:979,0.8189,0.155,6.2382,35.8122,0.6458,-0.1314,1.4423,216.8281
20:59:33:998,1.1697,0.2604,5.8982,35.8364,0.6285,-0.0893,1.4319,215.2188
20:59:34:018,1.3528,0.4411,5.5882,35.8364,0.6192,-0.0262,1.3984,213.5312
20:59:34:040,1.372,0.6674,5.4122,35.3205,0.5864,0.0079,1.3339,211.8438
20:59:34:061,1.433,0.847,5.6049,36.6981,0.5225,-0.0094,1.2524,210.2656
20:59:34:077,1.548,1.1378,6.1724,35.7126,0.4232,-0.0726,1.1507,208.6406
20:59:34:122,1.7682,1.4742,7.2067,35.1134,0.3175,-0.149,1.0221,206.3906
20:59:34:122,1.9861,1.5676,8.3798,34.419,0.2597,-0.2052,0.849,205.1094
20:59:34:140,2.2519,1.6227,9.2812,35.3718,0.2684,-0.1714,0.6332,203.9375
20:59:34:160,2.5595,1.5401,9.225,35.1585,0.326,-0.1745,0.3858,202.9375
20:59:34:188,2.5392,1.0744,9.0909,34.831,0.2666,-0.2161,0.0979,202.25
20:59:34:199,2.3452,0.1682,10.4568,33.5841,-0.4336,-0.1594,-0.2334,201.6719
20:59:34:218,2.684,-0.8158,12.0214,35.1409,-0.6602,0.1767,-0.199,201.6719
20:59:34:238,4.0188,-1.5161,12.195,34.7371,-0.804,0.3685,-0.2603,201.8594
20:59:34:260,5.2554,-2.0057,11.5126,37.2463,-0.9824,0.2348,-0.582,202.1875
20:59:34:278,4.7945,-2.0129,11.3965,36.4133,-1.2384,-0.0403,-1.0113,202.4688
20:59:34:297,2.6685,-2.2727,12.6678,37.6527,-1.4088,0.0436,-1.1998,202.8125
20:59:34:319,0.5113,-2.633,13.9272,36.2832,-1.2762,0.5381,-0.9274,203.5312
20:59:34:342,0.4335,-2.1542,13.1335,37.3875,-0.8626,0.8244,-0.3878,204.8125
20:59:34:357,2.5284,-1.011,10.9572,35.8644,-0.469,0.6031,-0.1207,207.4219
20:59:34:379,3.9326,0.653,8.8922,35.8703,-0.2538,0.0114,-0.2682,207.75
20:59:34:400,4.3516,1.9088,7.804,38.48,-0.2661,-0.4925,-0.673,208
20:59:34:417,3.8368,2.007,8.0351,36.6337,-0.4208,-0.4731,-1.1191,208.1875
20:59:34:437,2.5966,1.3533,8.5905,39.9305,-0.5654,0.0108,-1.3998,208.3906
20:59:34:460,1.0308,0.9942,8.5402,36.0515,-0.5979,0.455,-1.4456,209.1562
20:59:34:483,-0.1148,0.9691,8.3774,39.2268,-0.4466,0.6124,-1.3386,210.4844
20:59:34:497,-0.7433,0.9104,7.9345,40.5624,-0.1526,0.5357,-1.1652,212.1406
20:59:34:516,-0.7936,0.8493,6.9565,40.7764,0.0882,0.3373,-0.9905,213.75
20:59:34:537,-0.5972,1.0959,6.2562,40.0035,0.1569,0.103,-0.8768,215.3125
20:59:34:559,-0.3674,1.3533,6.4944,41.1327,0.1385,-0.1298,-0.8675,216.6562
20:59:34:579,-0.3614,1.2013,7.5191,41.4161,0.1039,-0.1844,-0.8882,218.7188
20:59:34:599,-0.7708,1.0002,8.5091,40.5896,0.0471,0.0079,-0.8411,219.7188
20:59:34:617,-0.9791,0.9332,9.2549,39.7671,0.0013,0.2564,-0.7175,220.2188
20:59:34:637,-0.8594,1.0924,9.893,42.6254,0.0136,0.3791,-0.6009,221.6406
20:59:34:657,-0.5853,1.4383,10.3718,42.5857,0.0898,0.3429,-0.5575,222.0625
20:59:34:677,-0.4931,1.5269,10.7273,42.9733,0.1225,0.2462,-0.5932,222.8125
20:59:34:697,-0.8403,1.3773,11.211,41.8336,0.0831,0.1991,-0.6126,223.4531
20:59:34:718,-1.343,0.8841,11.9795,41.726,0.024,0.2494,-0.5463,224.0625
20:59:34:737,-1.7177,0.3909,12.7648,44.6054,0.0059,0.3754,-0.3862,224.75
20:59:34:762,-1.3694,0.076,12.7516,43.4906,-0.0429,0.3759,-0.277,225.4219
20:59:34:779,-1.0031,-0.1,12.693,43.1196,-0.1782,0.0769,-0.2643,225.9219
20:59:34:797,-1.6064,-0.5489,14.2157,42.8741,-0.1704,-0.2518,-0.1881,226.2812
20:59:34:817,-2.8957,-1.4611,16.2723,45.0783,0.2075,-0.1253,0.2005,226.5781
20:59:34:838,-2.7401,-2.3864,15.4583,42.8343,0.7273,0.3283,0.7579,226.8594
20:59:34:860,-1.2712,-1.9483,11.3403,44.1873,0.7846,0.4356,1.1371,226.9062
20:59:34:882,0.7483,-1.0169,8.6623,43.5921,0.396,-0.0813,1.1797,226.7188
20:59:34:898,2.0196,-0.5584,9.6823,41.8596,0.0392,-0.6488,0.9909,225.8125
20:59:34:919,1.2319,-0.9798,12.8558,43.6161,0.0562,-0.7415,0.8071,223.8438
20:59:34:939,0.7303,-1.0349,11.0889,41.6704,0.2823,-0.4278,0.7874,222.5938
20:59:34:961,0.5352,-0.7548,9.1124,42.5234,0.4211,-0.0518,0.9174,221.6094
20:59:34:979,0.625,-0.4184,7.4485,40.9876,0.4764,0.1703,1.0825,220.7812
20:59:34:997,0.8369,-0.0521,5.9677,42.4,0.5369,0.2375,1.2079,219.8125
20:59:35:017,1.111,0.2771,4.9262,41.6572,0.5689,0.1631,1.2831,218.6406
20:59:35:037,1.3073,0.6171,4.3336,41.1173,0.5452,0.0335,1.3006,217.2812
20:59:35:061,1.5396,0.999,4.2031,40.7543,0.4701,-0.1074,1.262,215.875
20:59:35:080,1.7371,1.3402,4.8771,40.0435,0.3422,-0.284,1.1757,214.3594
20:59:35:096,1.8293,1.4144,6.0539,39.6928,0.2216,-0.4339,1.0375,212.8594
20:59:35:116,1.5779,1.4575,7.403,39.3578,0.1491,-0.5011,0.87,211.5156
20:59:35:137,1.3564,1.5209,8.6599,40.9333,0.1124,-0.3985,0.7227,210.25
20:59:35:157,1.463,1.7005,9.0562,38.7217,0.1294,-0.1519,0.5818,209.1875
20:59:35:178,1.7634,1.5916,8.9927,37.7245,0.1249,0.0697,0.3669,208.3438
20:59:35:197,1.8233,0.9631,9.0993,38.7194,0.0165,0.1541,0.0937,207.2969
20:59:35:217,1.4893,-0.0485,10.185,37.9139,-0.2131,0.1123,-0.1409,206.8594
20:59:35:237,1.1374,-0.8876,11.9005,40.177,-0.4221,0.0273,-0.195,206.7344
20:59:35:260,1.6808,-1.3354,12.7073,39.2966,-0.4458,0.075,-0.0256,206.9062
20:59:35:283,2.8396,-1.1845,12.2058,38.7776,-0.322,0.1631,0.205,207.1562
20:59:35:301,4.5347,-0.7392,11.0553,38.2753,-0.2471,0.2444,0.2713,207.2188
20:59:35:320,5.569,-0.258,10.312,38.4016,-0.3252,0.1802,-0.0011,207.0156
20:59:35:337,4.3624,-0.1323,10.9297,37.6438,-0.5601,-0.0094,-0.6358,206.8438
20:59:35:358,2.3931,-1.1941,11.9496,38.8314,-0.7449,-0.1152,-1.2667,206.6406
20:59:35:379,0.9793,-2.2224,11.7521,39.3299,-0.7273,0.067,-1.5569,206.9688
20:59:35:397,0.631,-2.0824,10.5729,38.3624,-0.6328,0.3032,-1.4627,208.1406
20:59:35:416,1.1266,-1.2468,10.7417,39.168,-0.6157,0.1056,-1.236,209.875
20:59:35:437,1.6174,-1.0971,11.6551,38.9354,-0.5934,-0.312,-1.1777,211.6875
20:59:35:460,1.4797,-1.2372,11.4468,37.8508,-0.477,-0.3913,-1.2757,213.875
20:59:35:478,0.8932,-1.1055,10.203,39.1976,-0.3816,-0.0789,-1.345,215.2656
20:59:35:496,0.285,-0.7488,8.9281,39.1029,-0.3657,0.3562,-1.3103,216.7656
20:59:35:518,0.0564,-0.2436,7.7513,38.4584,-0.3156,0.6633,-1.1652,218.25
20:59:35:537,0.2778,0.246,6.5626,39.0484,-0.1523,0.7222,-0.9745,219.7812
20:59:35:561,0.6585,0.8063,5.6612,39.4118,0.0368,0.5738,-0.8134,221.125
20:59:35:579,1.0596,1.3497,5.0303,39.196,0.1744,0.3522,-0.7367,222.1875
20:59:35:602,1.1422,1.5892,4.9418,38.8775,0.1129,-0.0432,-0.9292,223.1094
20:59:35:620,0.7172,1.6239,5.417,40.2107,-0.0629,-0.1527,-1.0472,223.1094
20:59:35:637,0.1845,1.5281,6.5734,38.4875,-0.2461,-0.1833,-1.0973,223.9531
20:59:35:659,-0.5398,1.3354,8.1979,38.4626,-0.3643,-0.0917,-1.0496,225.3125
20:59:35:679,-1.1431,1.4635,9.7062,40.6333,-0.3851,0.0854,-0.9029,227.0625
20:59:35:697,-1.0031,1.6239,10.9763,39.2803,-0.3108,0.2449,-0.7886,228.3438
20:59:35:718,-0.8235,1.6658,11.612,38.2061,-0.1968,0.3112,-0.7426,229.5
20:59:35:736,-1.0749,1.4682,11.946,38.7638,-0.1268,0.3219,-0.6712,230.5469
20:59:35:757,-1.2892,1.0936,12.3003,38.3288,-0.102,0.3301,-0.5279,231.4531
20:59:35:779,-1.5633,0.7823,13.2005,38.8633,-0.0112,0.3762,-0.3103,232.2656
20:59:35:801,-1.5334,0.4447,13.6962,36.9109,0.1854,0.5227,-0.0555,233.0469
20:59:35:815,-1.094,0.5046,12.5876,38.609,0.2858,0.5062,0.1121,233.6406
20:59:35:836,-0.772,0.8553,11.4384,38.0295,0.1952,0.181,0.1445,234
20:59:35:858,-0.3878,0.9691,11.8598,37.5162,-0.0312,-0.345,0.0228,234.0469
