Time,Acc_X,Acc_Y,Acc_Z,Meg,Gyr_X,Gyr_Y,Gyr_Z,Ore
19:05:52:958,-0.1584,-0.4148,10.1882,71.8759,0.2204,-0.0652,-0.0579,230.1
19:05:52:979,-0.0758,-0.2842,9.751,71.3863,0.2044,-0.0338,-0.0201,230.1
19:05:53:002,-0.0101,-0.1908,9.4217,71.2679,0.1304,-0.0082,-0.0036,69.17
19:05:53:020,0.1167,-0.0948,9.2209,71.103,0.0591,0.0141,0.0092,69.44
19:05:53:047,0.2329,0.0402,9.1677,71.3279,-0.0005,-0.0119,-0.0121,69.45
19:05:53:060,0.1953,0.0112,9.2358,71.0829,-0.0335,-0.0471,-0.0446,69.39
19:05:53:080,0.0894,-0.0459,9.3236,71.0214,-0.0505,-0.0668,-0.0616,69.4
19:05:53:099,-0.0335,-0.1145,9.4242,71.0098,-0.0638,-0.0827,-0.0584,69.44
19:05:53:119,0.0294,-0.1042,9.6163,70.8688,-0.0505,-0.07,-0.0547,69.49
19:05:53:139,0.0479,-0.1144,9.565,70.6468,-0.0468,-0.0316,-0.068,69.53
19:05:53:159,0.0029,-0.1496,9.5535,70.8441,-0.0463,-0.0535,-0.0707,69.58
19:05:53:180,0.0064,-0.2112,9.6792,70.9217,-0.0319,-0.071,-0.0616,69.66
19:05:53:200,0.0392,-0.2696,9.8636,70.874,0,-0.0598,-0.0398,69.77
19:05:53:221,0.0968,-0.2644,9.9449,70.9221,0.0485,-0.038,-0.0222,69.88
19:05:53:241,0.2243,-0.1928,9.7663,70.9756,0.065,-0.0002,-0.0201,69.99
19:05:53:261,0.3324,-0.1605,9.5048,71.1553,0.049,0.0019,-0.0212,70.03
19:05:53:279,0.4303,-0.1262,9.3506,71.2343,0.0309,-0.0162,-0.0281,70.05
19:05:53:302,0.5131,-0.0825,9.3674,71.1322,0.0288,-0.0396,-0.0355,70.07
19:05:53:319,0.5762,-0.0519,9.4428,71.348,0.0352,-0.0412,-0.0489,70.09
19:05:53:339,0.5219,-0.0641,9.4449,71.2286,0.032,-0.0535,-0.0536,70.1
19:05:53:359,0.4617,-0.0749,9.5758,71.2318,0.032,-0.0524,-0.0451,70.11
19:05:53:379,0.3349,-0.0274,9.5006,71.2981,0.032,-0.0497,-0.0201,70.12
19:05:53:399,0.3427,0.0776,9.4174,71.2051,0.0155,-0.0407,0.0139,70.12
19:05:53:419,0.3706,0.1867,9.3528,71.2939,-0.0218,-0.0423,0.0406,70.09
19:05:53:439,0.389,0.26,9.5201,71.2808,-0.0361,-0.0598,0.0555,70.02
19:05:53:460,0.3855,0.2875,9.7249,71.3361,-0.0058,-0.038,0.0656,69.91
19:05:53:480,0.3664,0.3813,9.6183,71.5907,0.0394,0.0524,0.065,69.78
19:05:53:500,0.1792,0.4294,9.153,71.6088,0.0463,0.078,0.0592,69.62
19:05:53:519,0.1011,0.3857,8.9604,71.6486,0.0086,0.012,0.0565,69.48
19:05:53:539,0.0696,0.2921,9.2429,71.5704,-0.0117,-0.0151,0.0523,69.35
19:05:53:559,-0.0392,0.1434,9.6685,71.5349,0.0304,-0.0061,0.0496,69.23
19:05:53:579,-0.1964,0.0501,9.8667,71.5468,0.1187,0.0312,0.0885,69.12
19:05:53:601,-0.0448,0.2308,9.8772,71.6479,0.1837,0.1025,0.0975,69.02
19:05:53:620,0.1091,0.3926,10.0259,71.5266,0.1773,0.2665,0.064,68.88
19:05:53:640,0.1084,0.3982,10.1869,71.6402,0.1603,0.4794,0.0086,68.74
19:05:53:660,-0.9161,-0.492,10.418,71.61,0.2172,0.5348,0.1492,68.63
19:05:53:679,-1.0683,-0.0713,10.3121,71.4776,0.2007,0.5273,0.4031,68.6
19:05:53:701,-0.8871,0.6566,9.6261,71.4946,0.1129,0.2707,0.3264,68.44
19:05:53:721,-0.6382,0.9209,9.1407,71.461,0.0751,0.234,0.2152,67.98
19:05:53:740,-0.2431,1.0253,8.1333,71.4732,0.0985,0.1552,0.2093,67.61
19:05:53:759,0.145,1.4664,7.4165,71.4701,0.1422,-0.2265,0.1566,67.36
19:05:53:779,0.2487,1.7406,7.668,71.2014,0.18,-0.935,0.0139,67.11
19:05:53:799,0.4921,1.5816,9.0768,71.137,0.1549,-1.4125,-0.2416,66.92
19:05:53:819,0.6836,1.1612,10.7502,71.0775,0.0277,-1.2272,-0.48,66.92
19:05:53:839,0.3815,0.6121,11.617,71.1056,-0.0825,-0.6912,-0.5024,67.22
19:05:53:859,-0.1549,0.4231,11.2159,71.3023,-0.1373,-0.1344,-0.2916,67.8
19:05:53:880,-0.2765,0.7252,10.1767,71.5147,-0.1671,0.0029,-0.0185,68.38
19:05:53:900,-0.0052,1.273,9.5741,71.7676,-0.1511,-0.0833,0.0581,68.7
19:05:53:920,0.2363,1.4427,9.3027,71.8463,-0.1064,-0.1903,0.0108,68.7
19:05:53:939,-0.2777,0.7074,9.1405,72.0724,-0.1256,-0.2179,0.081,68.6
19:05:53:959,0.2612,1.2435,9.2545,72.2193,-0.1974,-0.1189,0.1412,68.57
19:05:53:979,0.4527,1.3448,9.3515,72.4147,-0.2544,-0.0886,0.0097,68.47
19:05:53:999,0.3375,1.1316,9.4765,72.4454,-0.2959,-0.0811,-0.0968,68.3
19:05:54:019,0.1685,0.8242,9.5965,72.6785,-0.2816,-0.0636,-0.1558,68.28
19:05:54:039,-0.0554,0.5168,9.5595,72.946,-0.2273,-0.1349,-0.1713,68.38
19:05:54:059,-0.2069,0.1065,9.704,72.8139,-0.1804,-0.2813,-0.1558,68.54
19:05:54:080,-0.1919,-0.3165,10.8165,73.0311,-0.0388,-0.0226,-0.0079,68.73
19:05:54:100,0.0669,-0.1128,10.7073,73.1969,0.1379,0.0812,0.1066,68.91
19:05:54:120,0.4786,0.1303,10.0633,72.963,0.213,0.0764,0.097,68.92
19:05:54:141,0.7029,0.3289,9.5611,73.0798,0.2146,0.0136,0.0869,68.79
19:05:54:160,1.0518,0.5624,9.3377,73.1467,0.181,-0.0769,0.0469,68.67
19:05:54:179,1.2388,0.5359,9.5293,73.0303,0.1044,-0.1604,-0.0504,68.57
19:05:54:199,0.9544,0.2961,10.2425,72.9136,0.0288,-0.1743,-0.1239,68.51
19:05:54:219,0.7208,-0.1274,10.6464,72.5302,-0.0319,-0.063,-0.1622,68.57
19:05:54:240,0.334,-0.3805,10.5841,72.514,-0.1123,0.0242,-0.1574,68.72
19:05:54:260,-0.312,-0.6474,10.5087,72.3326,-0.1533,-0.0189,-0.0494,68.91
19:05:54:279,-0.7768,-0.995,10.545,72.1317,-0.0771,-0.0923,0.2407,69.11
19:05:54:299,-0.0266,-0.5334,10.2524,72.0787,0.0751,-0.0657,0.5356,69.18
19:05:54:319,1.0919,0.2734,9.5183,72.1323,0.2194,-0.1919,0.5883,68.93
19:05:54:339,2.1439,1.0536,9.2355,72.1842,0.2364,-0.2749,0.3621,68.33
19:05:54:360,2.4324,1.0813,8.9377,72.2213,0.1294,-0.3319,-0.0164,67.68
19:05:54:380,2.1545,0.696,9.1076,72.4225,-0.0186,-0.3367,-0.3166,67.28
19:05:54:399,1.7289,-0.0818,9.85,72.4198,-0.1,-0.2424,-0.4869,67.31
19:05:54:419,1.2636,-0.7384,10.2437,72.5634,-0.0319,-0.0588,-0.4869,67.69
19:05:54:439,1.1079,-1.0521,9.975,72.6017,0.0852,0.0945,-0.3847,68.27
19:05:54:460,1.2359,-1.0184,9.1784,72.6456,0.1368,0.1291,-0.3092,68.85
19:05:54:480,1.6024,-0.894,8.6071,72.8594,0.0985,0.0801,-0.265,69.3
19:05:54:500,1.1608,-0.8027,8.4915,72.9428,0.0112,0.0812,-0.3368,69.66
19:05:54:520,1.6502,-0.785,8.6124,72.7829,-0.0644,0.0509,-0.2453,69.98
19:05:54:540,1.2607,-0.5565,8.7825,72.7682,-0.1032,0.0509,-0.1995,70.38
19:05:54:560,1.5406,-0.2795,9.0643,72.5408,-0.1261,0.0817,-0.1026,70.68
19:05:54:580,1.8888,0.0905,9.1958,72.6318,-0.1501,0.0977,-0.1106,70.93
19:05:54:600,1.9541,0.3735,9.3336,72.7418,-0.1735,0.1046,-0.2043,71.06
19:05:54:619,1.7477,0.4816,9.4748,72.5863,-0.198,0.0759,-0.298,71.2
19:05:54:639,1.4964,0.3279,9.745,72.6415,-0.1841,0.0833,-0.3501,71.44
19:05:54:659,1.2939,0.1194,9.7917,72.4409,-0.1437,0.1142,-0.3406,71.79
19:05:54:679,1.2083,0.0504,9.6883,72.4334,-0.0857,0.1094,-0.2863,72.21
19:05:54:699,1.3051,0.0807,9.5813,72.4756,-0.0378,0.1094,-0.2447,72.6
19:05:54:720,1.313,0.1243,9.368,72.4822,0.0075,0.1052,-0.2245,72.94
19:05:54:739,1.2759,0.1563,9.1263,72.4656,0.0202,0.061,-0.2213,73.23
19:05:54:759,1.1883,0.1583,9.2062,72.3778,0.0463,0.0141,-0.2054,73.49
19:05:54:779,1.0316,0.213,9.0665,72.1266,0.114,-0.0332,-0.1404,73.75
19:05:54:800,0.9499,0.5048,8.8048,72.0066,0.1081,-0.0449,-0.068,73.99
19:05:54:821,0.9569,0.8951,8.9244,71.8455,0.0415,0.0019,-0.0536,74.16
19:05:54:839,0.9055,1.0993,9.3406,72.0663,0.0197,0.0865,-0.076,74.24
19:05:54:859,0.808,1.2483,9.434,71.9974,0.0389,0.1578,-0.067,74.3
19:05:54:879,0.8296,1.4235,9.3412,71.9252,0.0564,0.2058,-0.0526,74.38
19:05:54:900,0.9516,1.6516,9.2845,71.8059,0.0591,0.2329,-0.0584,74.45
19:05:54:920,0.9902,1.8139,9.254,71.8249,0.0447,0.2813,-0.092,74.49
19:05:54:968,0.9407,1.8507,9.2853,71.8258,0.0532,0.3218,-0.1159,74.53
19:05:54:973,0.7725,1.8252,9.2336,71.7217,0.0953,0.3074,-0.1404,74.61
19:05:54:981,0.5447,1.6578,9.3288,71.6404,0.1682,0.2409,-0.1473,74.71
19:05:54:999,0.4347,1.4582,9.4537,71.6144,0.2502,0.2015,-0.1292,74.83
19:05:55:019,0.3856,1.2252,9.3211,71.4741,0.2795,0.2345,-0.093,74.96
19:05:55:040,0.3622,1.1716,9.18,71.3104,0.2412,0.2542,-0.0648,75.07
19:05:55:060,0.2552,1.029,9.1895,71.1362,0.1768,0.2734,-0.0504,75.14
19:05:55:080,-0.0048,0.7508,9.389,71.1337,0.1166,0.3,0.0097,75.17
19:05:55:099,-0.247,0.4233,9.4991,70.9356,0.0873,0.2712,0.138,75.19
19:05:55:119,-0.0593,0.2574,9.602,70.8136,0.0602,0.1105,0.2758,75.13
19:05:55:139,0.2665,0.4393,9.9323,70.8135,0.0485,0.0546,0.3648,74.93
19:05:55:160,0.8002,0.5911,9.9746,70.8219,0.0197,0.0296,0.3168,74.59
19:05:55:180,1.0377,0.5902,9.9468,70.6755,-0.1086,-0.0359,0.1417,74.16
19:05:55:200,1.0519,0.1942,10.4629,70.592,-0.314,-0.0854,-0.0968,73.78
19:05:55:220,0.4851,-0.5615,11.5878,70.6688,-0.4769,-0.0625,-0.2522,73.61
19:05:55:240,-0.452,-1.1418,12.7257,70.6062,-0.4716,0.095,-0.2203,73.72
19:05:55:260,-1.2329,-1.3973,13.0657,70.3827,-0.24,0.3718,0.0161,74.02
19:05:55:279,-0.9942,-0.9789,11.5412,70.4504,0.0538,0.5944,0.3094,74.27
19:05:55:300,-0.3062,-0.0752,9.1945,70.4117,0.1799,0.3777,0.4057,74.25
19:05:55:321,0.2665,0.5083,7.9091,70.4418,0.1054,-0.038,0.303,73.87
19:05:55:339,0.2395,0.4027,8.1606,70.5046,-0.0665,-0.3739,0.1476,73.4
19:05:55:359,-0.0184,-0.057,9.3879,70.4552,-0.1522,-0.4942,0.0422,73.06
19:05:55:379,-0.4054,-0.5135,10.5117,70.3717,-0.1368,-0.4399,0.0299,72.92
19:05:55:399,-0.6528,-0.7809,11.0332,70.3696,-0.0266,-0.3037,0.1076,72.91
19:05:55:421,-0.5714,-0.7143,10.6655,70.3211,0.0517,-0.1727,0.1923,72.91
19:05:55:440,-0.2066,-0.3444,10.2465,70.5053,0.0756,-0.0338,0.2274,72.82
19:05:55:460,0.0101,-0.0835,9.7015,70.5053,0.099,0.0509,0.1827,72.62
19:05:55:480,0.172,0.0532,8.975,70.4191,0.1102,0.0674,0.1369,72.38
19:05:55:500,0.3138,0.3065,8.3289,70.3208,0.0932,0.0338,0.0853,72.18
19:05:55:520,0.3489,0.4334,7.956,70.1642,0.0453,-0.0316,0.0315,72.04
19:05:55:539,0.5253,0.5102,7.9161,70.2867,-0.0165,-0.1498,-0.0712,71.95
19:05:55:561,0.0726,0.6129,8.2328,70.2421,-0.0607,-0.2499,-0.1415,71.93
19:05:55:579,-0.1404,0.2502,8.7219,70.2517,-0.0596,-0.3095,-0.1106,72.03
19:05:55:599,0.3402,0.2636,9.0641,70.3015,-0.0505,-0.416,-0.0797,72.21
19:05:55:619,0.159,0.371,9.4068,70.2231,-0.0463,-0.2504,-0.0696,72.37
19:05:55:640,-0.0128,0.2951,9.545,70.2508,-0.0266,-0.021,-0.035,72.49
19:05:55:661,0.0379,0.3416,9.3534,70.5981,0.0027,0.1025,0.0422,72.59
19:05:55:679,0.4339,0.4932,9.0082,70.6743,0.0117,0.1467,0.0911,72.64
19:05:55:699,0.6656,0.5572,8.7859,70.726,0.0107,0.2186,0.0869,72.59
19:05:55:720,0.7245,0.8635,8.6732,70.6846,0.0016,0.2031,0.0501,72.49
19:05:55:740,0.6506,1.2282,8.5862,70.6131,-0.0032,0.0221,-0.0281,72.39
19:05:55:759,0.4689,1.2906,8.7323,70.6565,-0.0005,-0.227,-0.1345,72.32
19:05:55:779,0.1811,1.1522,9.1002,70.5337,-0.0037,-0.3452,-0.1958,72.36
19:05:55:800,-0.1228,0.9869,9.5226,70.5346,-0.0117,-0.4016,-0.1761,72.52
19:05:55:820,-0.3658,0.7809,10.3719,70.356,-0.0239,-0.2797,-0.0691,72.76
19:05:55:839,-0.2556,0.9554,10.7747,70.2306,-0.0282,-0.2249,0.0379,72.98
19:05:55:859,0.3318,1.0089,11.0436,70.3827,-0.0127,-0.194,0.0427,73.08
19:05:55:880,0.9478,0.587,10.9844,70.2566,-0.0303,-0.1876,-0.0489,73.04
19:05:55:899,1.0268,-0.1873,11.2185,70.615,-0.1267,-0.3026,-0.1601,73
19:05:55:920,0.6505,-1.1496,12.3248,70.8681,-0.1836,-0.3516,-0.1612,73.07
19:05:55:939,0.138,-1.7756,13.2015,70.8334,-0.0926,-0.0556,0.0134,73.27
19:05:55:960,0.0226,-1.8356,12.4979,71.1509,0.0921,0.3809,0.2886,73.47
19:05:55:982,0.6131,-1.3518,10.5339,71.3117,0.2199,0.531,0.5564,73.47
19:05:56:000,1.5458,-0.4109,9.2399,71.4472,0.2364,0.2851,0.6538,73.13
19:05:56:020,2.5562,0.3603,9.3207,71.3811,0.238,0.0487,0.4393,72.48
19:05:56:039,2.9447,0.664,9.7882,71.1068,0.246,0.2036,0.0475,71.73
19:05:56:059,2.4961,0.2662,9.3989,71.1057,0.2204,0.4309,-0.34,71.23
19:05:56:079,1.4021,-0.4049,8.8888,70.8401,0.1336,0.349,-0.5817,71.18
19:05:56:100,0.3574,-0.8147,8.9191,70.8177,0.0644,0.0636,-0.579,71.55
19:05:56:120,-0.1473,-1.001,9.219,70.6942,0.0527,-0.1775,-0.413,72.2
19:05:56:139,-0.1655,-0.7663,9.5751,70.487,0.0953,-0.252,-0.1979,72.88
19:05:56:160,0.1763,-0.1927,9.5799,70.2245,0.1395,-0.1141,-0.019,73.37
19:05:56:180,0.708,0.4474,9.2177,69.956,0.14,0.1147,0.0539,73.63
19:05:56:200,1.1113,0.9394,8.6436,69.7555,0.1241,0.2941,0.0134,73.67
19:05:56:220,1.5205,1.327,7.8543,69.6844,0.1166,0.3404,-0.1175,73.61
19:05:56:240,1.9919,1.5933,7.0602,69.6031,0.1006,0.2324,-0.3815,73.58
19:05:56:259,1.3449,1.663,6.5094,69.5508,0.0261,0.0844,-0.586,73.7
19:05:56:280,0.8661,1.0555,6.8057,69.3337,-0.0644,-0.1445,-0.6057,74.12
19:05:56:299,0.3725,0.428,7.7468,69.245,-0.0734,-0.2595,-0.5418,74.79
19:05:56:319,-0.0048,0.2401,8.4853,69.1107,-0.0431,-0.2472,-0.3943,75.5
19:05:56:340,0.0149,0.3925,8.9668,69.2345,-0.0197,-0.178,-0.2884,76.14
19:05:56:359,0.1246,0.5989,9.0064,69.3999,-0.0612,-0.0402,-0.2442,76.62
19:05:56:379,0.0938,0.7911,8.8884,69.4968,-0.1378,0.0684,-0.2149,76.96
19:05:56:400,-0.0649,0.9545,8.8369,69.5957,-0.1724,0.0918,-0.15,77.25
19:05:56:421,-0.1847,1.1903,8.7987,69.6045,-0.1581,0.0397,-0.027,77.49
19:05:56:440,-0.0059,1.6282,8.9901,69.6089,-0.124,0.004,0.0752,77.67
19:05:56:460,0.3584,1.9678,9.1443,69.6673,-0.0905,0.0391,0.1018,77.7
19:05:56:479,0.4268,2.1879,9.1256,69.8181,-0.0926,0.0354,0.0901,77.61
19:05:56:500,0.3439,2.2347,9.6702,69.9553,-0.0745,-0.087,0.0778,77.49
19:05:56:519,0.3854,1.9733,10.8164,69.9587,0.0543,-0.1849,0.0592,77.38
19:05:56:540,0.3712,1.4026,11.1352,70.0505,0.2007,-0.1072,0.0661,77.29
19:05:56:560,0.4001,0.9096,10.9419,69.924,0.2502,0.0663,0.0991,77.23
19:05:56:580,0.6515,0.5505,10.5441,69.9601,0.1954,0.1366,0.1172,77.15
19:05:56:599,0.8849,0.3398,10.5296,70.0174,0.0602,0.0604,0.0917,77.03
19:05:56:619,0.829,0.0793,11.0796,70.1972,-0.091,-0.0519,0.0198,76.88
19:05:56:640,0.3838,-0.3734,12.0644,70.0826,-0.1511,-0.1056,-0.0057,76.77
19:05:56:660,-0.1237,-0.7125,12.6508,70.13,-0.1075,-0.0716,0.0667,76.75
19:05:56:680,-0.2181,-0.8033,12.557,70.3528,0.0133,-0.0013,0.2157,76.77
19:05:56:700,0.2966,-0.6386,11.7177,70.389,0.1762,0.0791,0.3541,76.7
19:05:56:719,0.9258,-0.2199,10.1648,70.4344,0.2726,0.1302,0.4041,76.45
19:05:56:739,1.3245,0.319,9.0098,70.6357,0.2742,0.0184,0.3078,76.05
19:05:56:760,1.2998,0.3919,8.6785,70.5853,0.205,-0.2376,0.0778,75.58
19:05:56:780,0.7347,0.1287,9.3731,70.6897,0.1267,-0.4181,-0.1127,75.23
19:05:56:800,0.0521,-0.3378,10.1725,70.7294,0.1123,-0.3627,-0.1266,75.17
19:05:56:820,-0.2438,-0.5586,10.4051,70.8633,0.1075,-0.2589,0.0283,75.34
19:05:56:840,-0.1088,-0.3365,10.153,70.7876,0.0463,-0.1307,0.22,75.53
19:05:56:860,0.2195,0.0653,9.6752,70.6878,-0.0761,0.0024,0.3094,75.53
19:05:56:880,0.2114,0.3681,9.2426,70.6379,-0.173,0.1264,0.2822,75.31
19:05:56:900,0.0283,0.4347,8.7951,70.7632,-0.2134,0.2446,0.246,74.96
19:05:56:920,-0.1696,0.4173,8.4251,70.5784,-0.1916,0.3213,0.229,74.64
19:05:56:940,-0.4417,0.3751,8.2669,70.5191,-0.1144,0.3293,0.2295,74.35
19:05:56:960,-0.6748,0.291,8.1406,70.3868,0.0069,0.2127,0.2609,74.07
19:05:57:026,-0.8745,0.285,8.1871,70.2834,0.1219,-0.0412,0.3419,73.8
19:05:57:026,-0.6667,0.43,8.7442,70.203,0.222,-0.2392,0.4174,73.49
19:05:57:026,-0.3485,0.6846,9.4876,70.1023,0.386,-0.2813,0.443,73.12
19:05:57:041,0.1407,1.08,9.7615,69.9134,0.5648,-0.0652,0.3962,72.67
19:05:57:059,0.5081,1.4544,9.1861,69.7883,0.6266,0.176,0.278,72.2
19:05:57:079,0.6576,1.7547,8.4555,69.5838,0.5536,0.2856,0.1433,71.76
19:05:57:099,0.6648,1.9598,7.9097,69.7062,0.4429,0.2547,0.0597,71.44
19:05:57:119,0.6493,2.1458,7.7726,69.7222,0.3338,0.1882,-0.0105,71.25
19:05:57:139,0.4796,2.2308,7.8278,69.7364,0.2092,0.1387,-0.0749,71.15
19:05:57:160,0.084,2.1391,8.1734,69.5563,0.0458,0.0391,-0.1069,71.14
19:05:57:180,-0.3124,1.9197,9.0374,69.4245,-0.0889,-0.0742,-0.0824,71.21
19:05:57:199,-0.7371,1.6884,10.2679,69.4307,-0.0883,-0.2611,0.0305,71.33
19:05:57:220,-0.6792,1.4798,11.3106,69.3557,0.04,-0.424,0.2114,71.44
19:05:57:239,-0.1007,1.3802,12.0315,69.2612,0.2305,-0.4288,0.3818,71.45
19:05:57:260,0.7668,1.1934,12.2464,69.3267,0.3684,-0.1434,0.4813,71.28
19:05:57:280,1.457,1.1149,11.5988,69.3843,0.2678,-0.0157,0.4574,70.91
19:05:57:299,0.9535,1.0246,11.8264,69.3216,0.0213,-0.3319,0.3174,70.39
19:05:57:320,-0.0677,0.356,12.9228,69.2436,-0.0782,-0.2014,0.3131,69.88
19:05:57:340,-0.598,-0.1979,12.5172,69.3544,0.0272,0.3639,0.5974,69.59
19:05:57:360,0.0379,-0.0431,10.7945,69.4261,0.2199,0.4155,0.8912,69.28
19:05:57:379,0.9598,0.8467,9.868,69.3319,0.3652,-0.0881,0.9551,68.55
19:05:57:399,1.8153,1.7179,9.9156,69.5265,0.4541,-0.343,0.7624,67.48
19:05:57:420,2.3837,1.9163,9.8056,69.3724,0.42,-0.0572,0.3844,66.42
19:05:57:440,2.2855,1.5811,9.225,69.2267,0.2816,0.309,-0.0073,65.63
19:05:57:460,1.2877,0.9771,8.7699,68.9307,0.1523,0.1589,-0.2309,65.21
19:05:57:480,0.6652,0.4917,9.7268,68.9152,0.1597,-0.2675,-0.274,65.17
19:05:57:500,0.5028,0.283,10.4483,68.8107,0.2657,-0.4916,-0.2208,65.41
19:05:57:520,0.624,0.3755,10.223,68.7003,0.247,-0.4405,-0.1548,65.79
19:05:57:540,0.7552,0.7884,9.4546,68.5551,0.1006,-0.2201,-0.1063,66.15
19:05:57:560,0.8715,1.3263,8.5313,68.4832,-0.0383,-0.0348,-0.109,66.44
19:05:57:580,0.6584,1.5625,7.844,68.063,-0.0681,-0.0151,-0.0877,66.62
19:05:57:599,0.6814,1.6611,7.238,67.8947,-0.0032,-0.1445,-0.0371,66.77
19:05:57:619,0.8449,1.7188,6.8185,67.9367,0.073,-0.2137,-0.0063,66.88
19:05:57:639,0.8474,1.8833,6.9758,67.9028,0.1576,-0.2387,-0.0004,66.97
19:05:57:659,0.7963,2.0147,7.0764,67.719,0.288,-0.1583,-0.018,67.04
19:05:57:680,0.7823,2.1583,7.3439,67.7428,0.4685,0.0024,-0.0547,67.1
19:05:57:700,0.6921,2.2222,7.465,67.628,0.6963,0.1089,-0.0978,67.17
19:05:57:720,0.3378,1.9203,6.6022,67.5958,0.6809,-0.095,-0.084,67.24
19:05:57:739,0.2119,1.9896,6.3629,67.4435,0.2923,-0.2834,0.0187,67.34
19:05:57:759,0.43,2.014,7.2116,67.6372,-0.1543,-0.0822,0.1316,67.47
19:05:57:780,0.6044,2.3058,8.0939,67.5873,-0.4876,0.1717,0.2785,67.53
19:05:57:800,0.8921,2.7914,8.8185,67.4797,-0.6547,0.3474,0.3812,67.42
19:05:57:820,1.1815,3.2789,9.2568,67.3281,-0.6792,0.4288,0.3951,67.07
19:05:57:839,1.3637,3.6329,9.7262,67.415,-0.5919,0.3963,0.3658,66.56
19:05:57:861,1.4445,3.6854,10.3403,67.3621,-0.4035,0.4011,0.3222,66.02
19:05:57:880,1.3573,3.5683,10.7141,67.4179,-0.1926,0.3985,0.3035,65.53
19:05:57:899,1.2693,3.4107,10.8779,67.3669,-0.0016,0.3357,0.2924,65.09
19:05:57:920,1.1638,3.0255,11.055,67.3928,0.1475,0.3522,0.278,64.67
19:05:57:940,0.9104,2.2675,10.9131,67.2144,0.205,0.5693,0.3328,64.28
19:05:57:960,0.7612,1.779,10.6333,67.1689,0.222,0.8302,0.4675,63.9
19:05:57:991,0.9685,1.5375,9.8891,67.0752,0.2295,0.9681,0.5228,63.41
19:05:58:000,0.8056,1.4827,9.0588,66.8717,0.1177,0.7328,0.5149,62.72
19:05:58:019,0.591,1.623,9.293,66.5745,-0.0633,0.2489,0.4898,61.93
19:05:58:039,0.2055,1.5766,10.9046,66.3473,-0.1251,-0.3777,0.4419,61.2
19:05:58:059,-0.0089,0.9837,13.1898,66.1243,0.0724,-0.6827,0.3855,60.6
19:05:58:080,-0.1159,0.1485,13.3904,65.7781,0.2758,-0.3542,0.3461,60.19
19:05:58:100,-0.1801,-0.2328,12.0497,65.7059,0.1954,0.1951,0.3147,59.92
19:05:58:120,-0.5513,-0.142,10.7405,65.5164,0.0032,0.5156,0.3174,59.62
19:05:58:140,-1.0145,0.1875,9.9766,65.3074,-0.1,0.4075,0.3834,59.24
19:05:58:160,-1.2485,0.5494,9.8058,65.0708,-0.1053,0.0583,0.4914,58.78
19:05:58:180,-0.969,0.8786,10.5558,65.1244,-0.0053,-0.0843,0.6251,58.28
19:05:58:200,-0.5157,1.2283,10.9665,64.8805,0.2018,0.1515,0.7086,57.74
19:05:58:219,-0.1821,1.6766,9.7681,64.7124,0.3897,0.4373,0.7347,57.07
19:05:58:240,0.454,2.0383,7.9576,64.4888,0.4685,0.5608,0.7102,56.26
19:05:58:260,1.2126,2.4355,6.4333,64.3445,0.4557,0.3926,0.5761,55.36
19:05:58:279,1.908,2.7348,5.7414,64.0132,0.3913,0.0434,0.3142,54.45
19:05:58:300,1.2007,2.6339,5.7072,63.948,0.2768,-0.2345,-0.0414,53.73
19:05:58:320,0.2991,2.3258,6.1834,63.9338,0.0309,-0.3894,-0.1873,53.39
19:05:58:340,-0.0518,1.5736,7.0213,63.7539,-0.1831,-0.3643,-0.3145,53.51
19:05:58:360,-0.5834,1.1974,7.6342,63.5871,-0.3939,-0.2014,-0.3065,53.84
19:05:58:382,-0.614,1.0969,8.0185,63.6814,-0.5094,-0.0854,-0.1841,54.3
19:05:58:402,-0.3414,1.385,8.2462,63.6832,-0.4865,-0.1573,-0.0781,54.71
19:05:58:420,0.1494,2.015,8.5009,63.6567,-0.3976,-0.3148,-0.0536,54.96
19:05:58:440,0.6564,2.4056,9.0255,63.6103,-0.2715,-0.4293,-0.1282,55.1
19:05:58:460,0.8262,2.5124,9.5011,63.4375,-0.1229,-0.4154,-0.1947,55.25
19:05:58:480,0.9986,2.7853,9.92,63.3816,-0.0356,-0.4144,-0.1958,55.51
19:05:58:500,1.3327,3.0268,10.7821,63.3256,0.0527,-0.4431,-0.2384,55.83
19:05:58:520,1.0274,2.5841,11.2344,63.0933,0.0724,-0.5453,-0.3427,56.16
19:05:58:540,0.6859,1.4215,12.2906,63.1289,-0.0441,-0.5512,-0.2884,56.54
19:05:58:560,0.7816,0.347,13.149,62.8238,-0.1852,-0.252,-0.0595,57.06
19:05:58:581,0.5594,0.4259,12.8799,62.5616,-0.2895,0.0056,0.229,57.53
19:05:58:600,0.4777,0.9859,12.3637,62.6898,-0.265,-0.0503,0.3935,57.67
19:05:58:619,0.2589,1.261,12.1468,62.6835,-0.1703,-0.2462,0.484,57.43
19:05:58:640,0.5044,1.3251,12.2863,62.7368,-0.0569,-0.2914,0.5788,57.01
19:05:58:660,1.2424,1.5927,12.496,62.5517,0.1123,-0.12,0.5649,56.54
19:05:58:681,2.1347,1.9605,12.1433,62.4647,0.37,0.1909,0.3844,55.96
19:05:58:699,2.6843,1.8664,10.6047,62.5854,0.5552,0.4639,0.0464,55.36
19:05:58:719,2.5155,1.4386,8.4589,62.3153,0.486,0.498,-0.3123,54.91
19:05:58:740,1.9198,0.9326,7.5228,62.2873,0.2284,0.2611,-0.5535,54.78
19:05:58:760,1.1279,0.5795,7.8206,62.2353,0.04,0.0317,-0.6365,55.05
19:05:58:780,0.4731,0.3476,8.184,61.8399,-0.0127,-0.0811,-0.587,55.63
19:05:58:800,0.1615,0.3991,8.218,61.4398,-0.0074,-0.0183,-0.4683,56.37
19:05:58:819,0.1004,0.7089,7.9786,61.1933,0.0346,0.0668,-0.3272,57.07
19:05:58:840,0.2099,0.9865,7.4726,60.8888,0.1145,0.1142,-0.208,57.63
19:05:58:860,0.3712,1.1914,6.8516,60.6787,0.1315,0.1206,-0.1207,58.01
19:05:58:880,0.5123,1.4329,6.398,60.0972,0.0942,0.0546,-0.0685,58.24
19:05:58:900,0.4699,1.6272,6.3279,59.8103,0.0171,-0.0274,-0.0568,58.37
19:05:58:920,0.4653,1.6373,6.4087,59.2589,-0.1155,-0.0386,-0.0707,58.46
19:05:58:940,0.2082,1.628,6.7778,58.8615,-0.2331,-0.0923,-0.0579,58.55
19:05:58:960,0.1738,1.7042,7.3061,58.7129,-0.2762,-0.2366,-0.0355,58.66
19:05:58:981,0.5952,1.977,7.6527,58.5199,-0.3534,-0.3404,-0.0925,58.77
19:05:58:999,0.892,2.2763,7.6911,58.3827,-0.5025,-0.4106,-0.208,58.89
19:05:59:019,1.0921,2.1266,7.4731,58.2284,-0.8011,-0.679,-0.3368,59.09
19:05:59:054,0.6835,1.6609,9.2047,58.0038,-1.087,-0.573,-0.2996,59.44
19:05:59:058,0.2897,1.2795,10.6472,58.0741,-1.0305,-0.0673,-0.06,59.98
19:05:59:079,0.3969,1.5449,11.0103,57.9548,-0.7654,0.3447,0.2242,60.45
19:05:59:099,0.5528,2.2694,10.7732,57.9926,-0.4748,0.4698,0.3786,60.55
19:05:59:119,1.1237,2.5217,10.7763,58.0461,-0.1762,0.1557,0.3578,60.27
19:05:59:141,1.5175,2.3873,11.3863,58.1351,0.148,-0.2227,0.2056,59.8
19:05:59:160,1.377,1.974,12.1156,58.1468,0.4009,-0.3649,0.0757,59.39
19:05:59:180,0.8311,1.3359,13.181,58.0666,0.4802,0.1397,0.1545,59.2
19:05:59:199,0.6622,0.9364,12.4704,57.9754,0.3955,0.9154,0.4962,59.18
19:05:59:219,0.4481,1.018,11.5872,57.9129,0.1677,1.1198,0.8827,59.01
19:05:59:239,0.6474,1.4225,11.6554,57.8601,0.0389,1.2092,1.1302,58.34
19:05:59:259,0.8019,1.7372,11.4392,57.8623,0.0474,1.1831,1.1329,57.19
19:05:59:279,0.4913,1.6266,11.1807,57.6523,0.1911,0.802,0.9924,55.76
19:05:59:301,0.0742,0.7805,11.2985,57.1841,0.4387,0.0743,0.8465,54.32
19:05:59:319,0.028,-0.3663,11.5441,56.7569,0.6351,-0.2525,0.8646,53.1
19:05:59:341,0.481,-1.1615,11.0926,56.4576,0.6782,-0.0274,0.9551,52.15
19:05:59:359,0.6048,-1.3253,9.8848,56.1829,0.5084,0.1712,1.0019,51.24
19:05:59:379,0.735,-0.7571,9.4745,56.2145,0.296,0.1946,1.0227,50.18
19:05:59:400,1.0444,-0.0368,9.2093,55.9525,0.1645,0.135,0.8976,49.04
19:05:59:420,0.9231,0.4987,8.6009,55.3991,0.0022,0.077,0.6101,47.88
19:05:59:441,0.3071,0.4366,8.0961,55.2783,-0.2134,0.1893,0.3807,46.86
19:05:59:461,-0.4552,0.1797,7.746,55.1017,-0.3699,0.3537,0.3871,46.18
19:05:59:480,-0.6655,0.3053,7.3718,55.2623,-0.3992,0.3814,0.534,45.74
19:05:59:500,-0.1859,0.726,7.1417,55.2424,-0.3247,0.2313,0.6133,45.27
19:05:59:519,0.2538,1.1676,7.081,55.1467,-0.2273,0.0509,0.5921,44.62
19:05:59:539,0.3977,1.4101,7.2621,54.9367,-0.1613,-0.1296,0.5111,43.91
19:05:59:559,0.4375,1.4731,7.8594,54.6122,-0.1181,-0.1802,0.4137,43.26
19:05:59:579,0.4208,1.4836,8.539,54.5273,-0.0681,-0.0109,0.3126,42.73
19:05:59:599,0.28,1.5432,8.6404,54.7462,-0.0564,0.218,0.2205,42.31
19:05:59:619,0.0938,1.6861,8.6171,54.4318,-0.0857,0.3644,0.1486,41.98
19:05:59:639,-0.167,1.8541,8.7541,54.4113,-0.0846,0.358,0.1124,41.72
19:05:59:659,-0.3503,1.9754,8.9433,54.3949,-0.0276,0.2547,0.1162,41.52
19:05:59:679,-0.4945,2.0541,9.215,54.1374,0.0384,0.2031,0.1704,41.37
19:05:59:699,-0.474,2.2799,9.2809,53.9655,0.0698,0.226,0.2519,41.22
19:05:59:719,-0.2805,2.5409,9.1797,53.9017,0.0245,0.1557,0.2631,41.02
19:05:59:739,-0.3567,2.7375,9.3346,53.7699,-0.0899,-0.0705,0.2445,40.73
19:05:59:760,-0.6411,2.6296,10.2069,53.4059,-0.207,-0.3979,0.2226,40.43
19:05:59:779,-0.7672,2.1322,11.6063,53.202,-0.2432,-0.5496,0.2743,40.18
19:05:59:800,-0.4869,1.4194,12.5917,53.2473,-0.1895,-0.4341,0.3999,40.01
19:05:59:819,0.0375,0.8924,12.7432,53.1643,-0.0691,-0.1551,0.5681,39.8
19:05:59:840,1.0573,0.9041,11.8306,52.9745,0.04,0.0812,0.6538,39.42
19:05:59:860,1.8353,1.3088,10.4541,53.0536,0.0485,-0.005,0.5303,38.82
19:05:59:880,1.8139,1.413,9.8873,53.1011,-0.0633,-0.31,0.2487,38.09
19:05:59:900,1.1609,0.9913,10.275,53.1415,-0.2235,-0.449,-0.0371,37.5
19:05:59:919,0.1625,0.3201,10.9591,53.2043,-0.3108,-0.375,-0.1958,37.28
19:05:59:939,-0.8106,-0.4904,11.4741,53.3939,-0.2885,-0.2291,-0.1511,37.4
19:05:59:959,-0.9656,-0.9367,11.5794,53.2452,-0.1086,0.0264,0.0368,37.7
19:05:59:979,-0.1264,-1.0563,10.4429,53.232,0.1523,0.2313,0.1364,37.92
19:06:00:000,0.4712,-0.7173,8.3587,53.0984,0.164,0.143,0.0587,37.9
19:06:00:019,0.4856,-0.1256,7.6918,52.8578,-0.0899,-0.1865,-0.0238,37.75
19:06:00:039,0.6126,0.2986,8.6311,52.6731,-0.2933,-0.5043,-0.1574,37.69
19:06:00:059,0.7718,0.557,9.9872,52.724,-0.2864,-0.5342,-0.2793,37.76
19:06:00:079,1.3057,0.8647,10.2418,52.674,-0.1362,-0.2014,-0.406,38.02
19:06:00:099,1.7144,1.3048,9.4333,52.7238,0.0564,0.1456,-0.5822,38.42
19:06:00:119,1.5654,1.2929,8.0733,52.6044,0.1927,0.3176,-0.7776,38.93
19:06:00:141,0.7847,0.9084,6.967,52.5434,0.2199,0.2936,-0.8425,39.61
19:06:00:159,0.0659,0.4861,6.5091,52.4286,0.1863,0.2324,-0.7148,40.49
19:06:00:179,-0.4261,0.4954,6.6297,52.4803,0.1624,0.1573,-0.4811,41.44
19:06:00:199,-0.5626,0.7414,6.9986,52.5341,0.1938,0.0711,-0.2474,42.26
19:06:00:219,-0.2783,1.1653,7.3768,52.5085,0.246,0.0349,-0.0888,42.81
19:06:00:239,0.1601,1.5282,7.583,52.1692,0.2279,0.004,-0.0249,43.11
19:06:00:261,0.5004,1.9401,8.1811,52.101,0.1395,-0.0332,-0.0212,43.23
19:06:00:279,0.5074,2.0545,9.0335,51.8986,0.0719,-0.0253,-0.0313,43.28
19:06:00:299,0.1587,2.0129,9.8282,51.8949,0.0368,0.0391,0.032,43.33
19:06:00:319,0.0158,2.0415,10.3859,51.8886,0.0442,0.1962,0.1715,43.39
19:06:00:339,-0.0477,2.2533,10.5024,52.0777,0.0745,0.374,0.3403,43.37
19:06:00:359,0.1331,2.4763,10.3301,51.84,0.1155,0.4049,0.4723,43.17
19:06:00:380,0.2695,2.4759,10.1922,51.7941,0.1464,0.2026,0.5394,42.75
19:06:00:399,0.2442,2.1856,10.609,51.871,0.1901,-0.1599,0.5553,42.18
19:06:00:419,0.0688,1.5457,11.3201,51.8196,0.2199,-0.2685,0.5798,41.56
19:06:00:440,-0.2555,0.9497,11.5141,51.7272,0.1448,-0.0066,0.648,40.97
19:06:00:459,-0.7136,0.8121,11.2923,51.7703,-0.066,0.2909,0.7752,40.38
19:06:00:480,-0.974,1.0163,11.3922,51.6064,-0.2502,0.4522,0.895,39.67
19:06:00:500,-1.1011,1.0099,11.3127,51.3792,-0.2922,0.3128,0.9535,38.76
19:06:00:521,-0.9731,0.7575,11.3417,51.1064,-0.2235,-0.0162,1.019,37.7
19:06:00:542,-0.354,0.6281,11.7467,51.2455,-0.0777,-0.2611,1.0211,36.6
19:06:00:560,0.3091,0.4853,11.8414,51.1256,0.0873,-0.1014,0.8518,35.47
19:06:00:580,0.1762,0.1116,10.5919,50.9946,0.0751,0.2239,0.6325,34.37
19:06:00:600,-0.3971,-0.1175,9.3056,51.0131,-0.1245,0.3719,0.509,33.44
19:06:00:620,-0.8567,-0.1517,8.848,50.9795,-0.3087,0.2175,0.451,32.71
19:06:00:640,-1.2059,-0.1434,8.9546,50.8439,-0.3928,-0.096,0.4547,32.11
19:06:00:659,-1.2527,-0.0572,9.4481,50.8497,-0.3758,-0.285,0.5021,31.59
19:06:00:679,-0.9467,0.0329,9.6538,51.0689,-0.2826,-0.1785,0.5298,31.12
19:06:00:699,-0.5069,0.2761,9.1144,51.05,-0.1937,0.119,0.5069,30.6
19:06:00:720,-0.0719,0.5872,8.1869,50.915,-0.1405,0.2808,0.4606,30.05
19:06:00:740,0.6554,1.1472,8.0123,50.8116,-0.0644,0.2164,0.3637,29.49
19:06:00:759,1.1425,1.6916,8.2266,50.8496,0.1054,0.1334,0.1444,28.93
19:06:00:779,0.6041,1.4855,7.8273,50.839,0.247,0.0769,-0.1319,28.55
19:06:00:799,-0.5502,0.7171,7.2497,50.6645,0.2124,0.0727,-0.2048,28.39
19:06:00:819,-1.2736,-0.0081,7.0838,50.7917,0.0719,0.1563,0.0379,28.56
19:06:00:839,-1.1671,0.1233,7.3239,50.69,-0.0425,0.2223,0.3711,28.82
19:06:00:859,-0.8355,0.8489,7.8172,50.5047,-0.0814,0.1419,0.5633,28.78
19:06:00:879,-0.4939,1.4996,8.393,50.5173,-0.0383,-0.0636,0.5899,28.36
19:06:00:900,-0.2209,1.7651,9.2552,50.5673,0.04,-0.2291,0.525,27.73
19:06:00:920,0.0186,1.855,10.2413,50.5666,0.09,-0.0178,0.4286,27.09
19:06:00:942,-0.0782,1.8771,10.2971,50.4038,0.0916,0.3271,0.361,26.55
19:06:00:960,-0.1962,1.8412,9.8856,50.2715,0.0639,0.3766,0.3435,26.08
19:06:00:980,-0.234,1.791,10.0074,50.2003,0.0256,0.1509,0.328,25.66
19:06:01:000,-0.4261,1.5466,10.543,49.9391,0.0085,-0.1471,0.3227,25.26
19:06:01:019,-0.4794,1.0912,11.3289,49.9394,0.0708,-0.3729,0.3605,24.89
19:06:01:039,-0.2969,0.3629,11.75,49.7669,0.1214,-0.3143,0.4505,24.56
19:06:01:132,0.1174,-0.3707,11.4132,49.7796,0.0234,-0.0173,0.6091,24.22
19:06:01:132,0.4825,-0.2349,10.9103,49.5915,-0.1959,0.0897,0.7321,23.77
19:06:01:132,0.7822,0.0982,10.8868,49.5913,-0.3742,-0.0955,0.657,23.1
19:06:01:133,0.2944,0.1426,11.3379,49.5007,-0.4599,-0.3186,0.5143,22.28
19:06:01:145,-0.516,0.028,12.3995,49.5417,-0.3981,-0.4479,0.4494,21.56
19:06:01:159,-0.7711,-0.4258,13.2269,49.5308,-0.1352,-0.1839,0.4877,21.03
19:06:01:179,-0.398,-0.7369,12.214,49.6434,0.1837,0.3932,0.5937,20.58
19:06:01:199,0.3664,-0.4374,9.4912,49.5824,0.2976,0.753,0.6405,20.05
19:06:01:219,0.8142,0.3234,7.3532,49.6121,0.1416,0.4639,0.4893,19.36
19:06:01:240,0.6368,0.932,7.2454,49.3329,-0.091,-0.185,0.2056,18.59
19:06:01:260,0.1449,0.8183,8.5648,49.3655,-0.2155,-0.6135,-0.0648,18.01
19:06:01:279,-0.5991,0.1976,9.6039,49.2877,-0.2134,-0.6055,-0.1521,17.81
19:06:01:299,-1.2175,-0.2529,9.708,49.3781,-0.1011,-0.3915,0.0076,17.96
19:06:01:319,-1.0939,-0.2132,9.1182,49.4297,0.0085,-0.1338,0.2753,18.2
19:06:01:340,-0.2601,0.4146,8.3876,49.315,0.0751,0.1121,0.4696,18.24
19:06:01:360,0.6901,1.1412,7.664,49.0779,0.098,0.292,0.4686,17.96
19:06:01:380,1.3026,1.7384,7.265,49.1007,0.1171,0.3873,0.3195,17.43
19:06:01:399,1.4847,2.0171,7.1288,49.2738,0.1693,0.4171,0.1204,16.89
19:06:01:419,1.2675,1.9919,7.0062,49.4222,0.2151,0.3644,-0.0467,16.51
19:06:01:439,1.0896,1.8246,7.1677,49.5273,0.2167,0.2909,-0.1457,16.36
19:06:01:459,0.9184,1.6849,7.5376,49.4275,0.1613,0.2026,-0.1963,16.4
19:06:01:479,0.6446,1.6337,8.2943,49.3361,0.0969,0.1217,-0.2155,16.56
19:06:01:499,0.2323,1.4457,9.3261,49.2438,0.0602,0.1115,-0.2016,16.79
19:06:01:520,-0.3827,0.9819,10.2707,49.3372,0.1001,0.2484,-0.0675,17.04
19:06:01:539,-0.8812,0.7706,10.5824,49.4075,0.1874,0.4192,0.2125,17.28
19:06:01:559,-0.9934,1.0702,10.4805,49.4544,0.2726,0.4991,0.5324,17.35
19:06:01:579,-0.6941,1.4367,10.3686,49.2893,0.3514,0.4783,0.7507,17.08
19:06:01:599,-0.3863,1.6399,10.4327,49.2791,0.4115,0.3399,0.854,16.44
19:06:01:620,-0.4089,1.5031,10.656,49.2092,0.4461,0.0487,0.8609,15.55
19:06:01:639,-0.6161,1.0171,11.1359,49.4746,0.4152,-0.0801,0.8683,14.55
19:06:01:660,-0.4232,0.5135,11.2594,49.43,0.304,0.1792,0.9051,13.58
19:06:01:679,-0.7535,0.6246,10.5992,49.4606,0.0942,0.3724,0.9663,12.62
19:06:01:699,-0.8788,1.1443,10.433,49.4268,-0.083,0.3,1.0504,11.59
19:06:01:719,-0.7039,1.6382,10.7954,49.5018,-0.1203,0.0652,1.0014,10.45
19:06:01:740,-0.5665,1.6893,10.8864,49.2209,-0.1208,-0.2286,0.8071,9.23
19:06:01:762,-0.8943,1.0848,11.2795,49.274,-0.1203,-0.6151,0.6144,8.1
19:06:01:779,-1.1009,0.0833,12.0672,49.2292,-0.0718,-0.638,0.5047,7.24
19:06:01:799,-1.0634,-0.6867,12.0318,49.1063,-0.0239,-0.145,0.4664,6.65
19:06:01:819,-1.0446,-0.719,10.6223,49.1215,-0.0676,0.2702,0.4558,6.19
19:06:01:840,-1.0806,-0.2788,9.2787,49.285,-0.1666,0.2819,0.4148,5.7
19:06:01:859,-1.0736,0.0733,8.7698,49.1775,-0.2289,0.0344,0.3759,5.16
19:06:01:879,-0.7046,0.396,9.0016,49.2223,-0.2171,-0.1221,0.3408,4.67
19:06:01:899,-0.2545,0.6452,9.127,48.9741,-0.1437,-0.0535,0.2492,4.25
19:06:01:919,0.0025,0.7733,8.7854,48.9492,-0.0511,0.1158,0.1444,3.9
19:06:01:940,0.1098,0.8759,8.0994,49.2421,0.0272,0.1882,0.0523,3.64
19:06:01:960,-0.0343,0.7966,7.5638,49.2901,0.0682,0.0807,-0.018,3.48
19:06:01:979,-0.2465,0.611,7.5292,49.3541,0.0996,-0.0614,-0.027,3.41
19:06:02:001,-0.3838,0.4788,7.5249,49.0572,0.106,-0.1306,0.0097,3.44
19:06:02:019,-0.37,0.5162,7.5063,48.9406,0.0559,-0.0721,0.0587,3.48
19:06:02:039,-0.5241,0.6397,7.5153,49.1208,-0.0335,0.0248,0.1124,3.5
19:06:02:059,-0.808,0.8033,7.6407,49.3013,-0.1075,0.0418,0.2029,3.46
19:06:02:079,-0.8942,1.0619,8.0738,49.3763,-0.1447,-0.0492,0.3115,3.34
19:06:02:099,-0.7613,1.3983,8.6843,49.7557,-0.1522,-0.1365,0.3876,3.12
19:06:02:119,-0.5795,1.7316,9.4263,49.7061,-0.1591,-0.1328,0.4329,2.79
19:06:02:138,-0.2935,2.0731,10.1464,49.6118,-0.0968,0.0264,0.4734,2.38
19:06:02:158,0.0415,2.4631,10.0254,49.9808,0.0123,0.235,0.4824,1.92
19:06:02:178,0.2353,2.6892,9.2597,50.3028,0.0346,0.3623,0.426,1.4
19:06:02:199,0.0091,2.5808,8.6518,50.2445,-0.0638,0.2175,0.3701,0.83
19:06:02:219,-0.2609,2.3429,9.0454,50.2869,-0.1676,-0.1344,0.3727,0.32
19:06:02:239,-0.4452,1.9086,10.4437,50.2872,-0.1841,-0.4958,0.4015,359.89
19:06:02:260,-0.5156,1.1792,11.9743,50.3969,-0.1277,-0.4766,0.476,359.49
19:06:02:279,-0.3387,0.5277,12.4697,50.27,-0.0718,-0.1349,0.6054,359.11
19:06:02:299,0.2029,0.4031,12.0904,50.4008,-0.0117,0.1408,0.7193,358.63
19:06:02:319,1.0858,0.5922,11.0556,50.6034,0.0086,0.2026,0.6644,357.97
19:06:02:340,1.3374,0.9092,9.9242,50.3594,-0.1357,0.0253,0.3951,357.15
19:06:02:363,0.5407,0.8402,9.8967,50.3649,-0.4444,-0.3473,0.0549,356.38
19:06:02:379,-0.8642,0.2605,11.8706,50.5554,-0.5892,-0.6087,-0.1085,355.94
19:06:02:399,-1.5513,-0.7456,13.8782,50.516,-0.3082,-0.408,0.0076,355.93
19:06:02:419,-1.1097,-1.2629,13.3103,50.4826,0.2305,0.3516,0.2854,356.12
19:06:02:440,0.1066,-0.8699,9.3223,50.7034,0.5047,0.9031,0.4414,356.16
19:06:02:460,0.9678,-0.062,5.8423,50.6425,0.2705,0.5544,0.312,355.82
19:06:02:480,0.7916,0.7493,5.3347,50.4974,-0.2326,-0.3531,0.0203,355.25
19:06:02:499,0.2179,0.7528,8.4534,50.2899,-0.5269,-1.1112,-0.2607,354.85
19:06:02:519,-0.5673,0.0162,11.7053,50.1801,-0.479,-1.0266,-0.389,354.88
19:06:02:539,-1.5948,-0.5902,12.8494,50.3044,-0.2006,-0.3404,-0.2133,355.28
19:06:02:559,-1.6331,-0.5842,11.5113,50.3061,0.0804,0.383,0.1257,355.81
19:06:02:580,-0.7063,0.1967,8.9233,50.4479,0.2013,0.6955,0.3855,356.09
19:06:02:599,0.4025,1.1652,7.156,50.5942,0.2598,0.5395,0.4457,355.94
19:06:02:619,1.204,1.9661,6.3211,50.4351,0.2572,0.267,0.3041,355.46
19:06:02:639,1.4037,2.3066,6.2663,50.7741,0.1629,0.0903,0.0347,354.93
19:06:02:661,1.18,2.0959,6.9726,50.8083,0.1028,0.0748,-0.2011,354.57
19:06:02:680,0.7269,1.7531,7.5943,50.915,0.115,0.1477,-0.3304,354.54
19:06:02:699,0.202,1.3013,7.8894,51.0412,0.1507,0.185,-0.3533,354.77
19:06:02:719,-0.2481,0.9664,8.1049,51.0803,0.1677,0.1914,-0.257,355.15
19:06:02:739,-0.4248,0.8457,8.398,51.2626,0.1688,0.1419,-0.1063,355.55
19:06:02:763,-0.428,0.7323,9.0005,51.1268,0.1863,0.0881,0.0624,355.83
19:06:02:780,-0.1395,0.7617,9.6419,51.3217,0.2481,0.1275,0.2609,355.95
19:06:02:800,0.3145,0.9926,9.9143,51.5567,0.3024,0.3436,0.4308,355.89
19:06:02:819,0.5198,1.3666,9.4767,51.5219,0.2822,0.5065,0.5271,355.59
19:06:02:839,0.5012,1.6081,9.0759,51.4605,0.1837,0.3154,0.5527,355.07
19:06:02:860,0.2636,1.6954,9.6822,51.5926,0.0767,-0.1168,0.5495,354.42
19:06:02:879,-0.0593,1.5271,10.974,51.653,0.041,-0.3904,0.566,353.76
19:06:02:899,0.0133,1.3325,11.9705,51.6694,0.066,-0.3037,0.599,353.16
19:06:02:919,0.215,1.4086,11.768,51.4643,0.0469,-0.0226,0.5676,352.58
19:06:02:939,0.3881,1.682,11.2766,51.3097,-0.0691,0.1845,0.4803,351.94
19:06:02:960,0.389,1.7857,10.9562,50.9787,-0.2262,0.2649,0.2785,351.31
19:06:02:979,-0.0272,1.4762,10.9883,50.6537,-0.3406,0.0972,0.0581,350.75
19:06:02:999,-0.849,0.9286,11.6537,50.4909,-0.3907,-0.317,-0.0584,350.41
19:06:03:019,-1.3708,0.0668,13.2286,50.649,-0.2464,-0.5081,-0.0653,350.34
19:06:03:039,-1.6472,-0.8625,13.3377,50.4603,0.0346,-0.0604,0.0219,350.46
19:06:03:060,-1.7472,-1.0691,10.824,50.4818,0.1581,0.5475,0.2295,350.59
19:06:03:079,-1.4328,-0.4923,8.2042,50.6457,0.0357,0.6002,0.3504,350.59
19:06:03:099,-1.0443,0.1475,7.2072,50.6697,-0.1426,0.1525,0.3339,350.28
19:06:03:119,-0.906,0.3407,7.7965,50.8202,-0.2283,-0.4543,0.2482,349.82
19:06:03:183,-0.8441,0.2021,9.0424,50.9263,-0.2225,-0.7077,0.18,349.43
19:06:03:183,-0.7994,0.0387,9.9789,51.1543,-0.19,-0.4766,0.1555,349.21
19:06:03:183,-0.8312,-0.0127,10.1254,51.2852,-0.1234,-0.055,0.1944,349.08
19:06:03:199,-0.7231,0.165,9.551,51.2938,-0.0292,0.3138,0.2748,348.95
19:06:03:219,-0.4331,0.4659,8.5425,51.4863,0.0629,0.4725,0.3232,348.75
19:06:03:239,-0.1245,0.7664,7.6074,51.3694,0.1182,0.4576,0.3323,348.42
19:06:03:260,0.0577,0.9756,6.9076,51.1222,0.1395,0.3208,0.3009,348.01
19:06:03:279,-0.045,1.1034,6.6983,51.0085,0.1108,0.0961,0.2572,347.6
19:06:03:300,-0.1372,1.1834,7.0368,51.1204,0.0618,-0.0338,0.2088,347.24
19:06:03:320,-0.3417,1.2339,7.3508,51.0768,-0.0005,-0.1093,0.1598,346.95
19:06:03:339,-0.5213,1.2435,7.8295,50.969,-0.0649,-0.1956,0.1417,346.72
19:06:03:360,-0.6184,1.3147,8.499,50.8427,-0.0681,-0.3052,0.1657,346.56
19:06:03:380,-0.5705,1.3562,9.0775,50.799,-0.0335,-0.3835,0.1992,346.39
19:06:03:400,-0.4002,1.5256,9.6157,50.6812,-0.0212,-0.3601,0.2445,346.17
19:06:03:419,-0.0357,1.8413,10.0302,50.9253,-0.0063,-0.2174,0.2625,345.96
19:06:03:439,0.2815,2.1598,9.9664,51.105,0.0123,-0.0827,0.2008,345.78
19:06:03:460,0.2736,2.283,9.8363,51.2786,-0.0117,-0.1727,0.1018,345.64
19:06:03:481,0.1742,1.9795,10.6391,51.2437,-0.0351,-0.301,0.0326,345.46
19:06:03:499,-0.0253,1.3222,11.4834,51.4222,-0.0308,-0.2589,0.0368,345.18
19:06:03:519,-0.0681,0.64,11.8961,51.6547,-0.0116,-0.0982,0.1657,344.98
19:06:03:539,0.5536,0.3001,11.6069,51.8925,-0.0074,0.1089,0.2695,345.01
19:06:03:559,1.1325,0.2029,10.7016,51.8898,-0.1266,0.0945,0.2498,345.1
19:06:03:580,1.4481,0.3764,10.7574,52.1502,-0.3082,-0.1232,0.1502,345.06
19:06:03:599,1.4853,0.3419,11.5935,52.1959,-0.3731,-0.3095,-0.0334,344.7
19:06:03:619,0.9121,0.1307,12.3758,52.3133,-0.3252,-0.3952,-0.1766,344.21
19:06:03:639,0.3705,-0.1008,12.9746,52.5572,-0.198,-0.3036,-0.2181,343.9
19:06:03:659,0.3384,-0.4105,13.0327,52.7696,0.0623,0.0551,-0.1931,343.92
19:06:03:679,0.7784,-0.6183,11.2293,53.1011,0.32,0.4256,-0.175,344.25
19:06:03:699,1.1516,-0.5898,8.53,53.1436,0.3205,0.3479,-0.2416,344.86
19:06:03:719,1.0813,-0.3724,7.5697,53.183,0.1289,-0.1242,-0.3688,345.41
19:06:03:739,0.7554,-0.2148,8.4049,53.6855,-0.0202,-0.507,-0.4662,345.53
19:06:03:759,0.4236,-0.2109,9.4086,53.807,-0.0984,-0.5517,-0.5311,345.4
19:06:03:779,0.1478,-0.2018,9.9759,54.1385,-0.0787,-0.3739,-0.5141,345.53
19:06:03:800,0.1849,-0.0095,9.7975,54.3401,0.0181,-0.1125,-0.438,346.05
19:06:03:819,0.3703,0.1982,8.9306,54.5171,0.073,0.1462,-0.3661,346.84
19:06:03:839,0.5022,0.3905,8.0638,54.6837,0.1353,0.2984,-0.3278,347.67
19:06:03:859,0.4816,0.625,7.191,54.6133,0.2162,0.2979,-0.2682,348.37
19:06:03:882,0.5288,0.9371,6.6713,54.8112,0.2849,0.2388,-0.2043,348.9
19:06:03:899,0.5458,1.2587,6.2634,54.9742,0.2965,0.1488,-0.1745,349.27
19:06:03:919,0.5583,1.5287,6.2672,55.1757,0.2039,-0.0119,-0.1718,349.52
19:06:03:939,0.6188,1.6518,6.9823,55.2879,0.1113,-0.1706,-0.1995,349.66
19:06:03:959,0.6935,1.6601,8.1249,55.3363,0.0868,-0.2334,-0.2437,349.71
19:06:03:979,0.5523,1.5928,8.9849,55.3933,0.1076,-0.1147,-0.2479,349.79
19:06:03:999,0.3098,1.5572,9.307,55.3883,0.1427,0.0929,-0.1761,349.97
19:06:04:019,0.2082,1.755,9.2379,55.5382,0.1778,0.1813,-0.0632,350.37
19:06:04:039,0.2489,2.0906,9.3851,55.6908,0.23,0.1382,0.0491,350.82
19:06:04:059,0.4571,2.4517,9.7097,55.8181,0.3216,0.2074,0.1177,351.07
19:06:04:079,0.7006,2.6682,9.2668,55.9965,0.3099,0.3096,0.0943,351.09
19:06:04:100,0.5245,2.7527,9.2165,56.0729,0.1869,0.2053,0.0193,351.07
19:06:04:120,0.0628,2.396,10.1223,56.1284,0.1012,-0.0332,-0.0414,350.98
19:06:04:139,-0.4103,1.6633,11.4631,56.2339,0.1342,-0.0998,-0.0084,350.74
19:06:04:160,-0.8452,0.8804,11.6264,56.3605,0.1432,0.0796,0.1492,350.51
19:06:04:179,-0.6999,0.7069,11.2327,56.3117,0.0453,0.2308,0.377,350.51
19:06:04:200,0.0313,1.0644,11.1143,56.2774,-0.0521,0.333,0.4824,350.65
19:06:04:220,0.4186,1.3587,10.7991,56.307,-0.1729,0.2931,0.3903,350.54
19:06:04:240,0.1855,1.239,11.0131,56.3272,-0.2773,0.1398,0.2476,350.12
19:06:04:260,-0.3396,0.6369,11.6125,56.3225,-0.272,0.0077,0.18,349.47
19:06:04:279,-0.7337,-0.1156,11.9484,56.321,-0.1767,0.0083,0.2279,348.87
19:06:04:301,-0.7619,-0.5741,11.5613,56.4348,-0.0904,0.177,0.353,348.48
19:06:04:320,-0.4256,-0.5147,10.4663,56.3608,-0.1021,0.2462,0.459,348.29
19:06:04:340,0.0683,-0.2111,9.7415,56.3421,-0.182,0.0275,0.4419,348.16
19:06:04:360,0.4121,0.045,9.8702,56.4088,-0.2416,-0.2642,0.3488,347.77
19:06:04:380,0.5442,0.1729,10.331,56.4008,-0.2411,-0.3276,0.237,347.04
19:06:04:401,0.4159,0.0675,10.1659,56.3217,-0.1964,-0.0838,0.1396,346.32
19:06:04:420,0.126,-0.0984,9.112,56.2529,-0.1394,0.2138,0.1343,345.91
19:06:04:440,0.0498,-0.1584,7.8089,56.0425,-0.1059,0.2771,0.2008,345.87
19:06:04:459,0.0791,-0.0511,7.1097,55.7329,-0.0915,0.0871,0.2721,345.95
19:06:04:480,0.2558,0.096,6.9316,55.6699,-0.0729,-0.1131,0.3339,345.83
19:06:04:500,0.3474,0.2792,6.7026,55.4836,-0.0793,-0.1748,0.3749,345.43
19:06:04:520,0.4887,0.6207,6.6426,55.2644,-0.1458,-0.1349,0.3812,344.97
19:06:04:539,0.6629,0.9829,7.0465,55.1654,-0.2219,-0.0886,0.327,344.55
19:06:04:559,0.7157,1.2495,7.4352,55.2045,-0.264,-0.1104,0.2402,344.15
19:06:04:579,0.627,1.384,7.7113,54.9301,-0.2916,-0.211,0.1523,343.74
19:06:04:600,0.44,1.3467,8.1743,54.7241,-0.3342,-0.3356,0.0901,343.35
19:06:04:620,0.2234,1.283,8.9865,54.8647,-0.3571,-0.409,0.0837,343.01
19:06:04:640,0.2066,1.3204,9.9389,54.8094,-0.3188,-0.3478,0.1188,342.75
19:06:04:659,0.3535,1.4832,10.5828,54.7287,-0.1985,-0.1296,0.1348,342.61
19:06:04:679,0.5474,1.7981,10.7061,54.8686,-0.0596,0.1398,0.0672,342.59
19:06:04:701,0.5148,1.81,10.2018,54.8867,-0.0489,0.2926,-0.0632,342.66
19:06:04:720,0.0563,1.4275,9.8243,55.0356,-0.1155,0.2345,-0.1218,342.75
19:06:04:740,-0.3636,0.686,10.4507,54.9417,-0.1245,-0.0364,-0.0952,342.79
19:06:04:759,0.0364,-0.2551,11.5616,55.1705,-0.0324,-0.1775,-0.0084,342.79
19:06:04:780,1.0802,-0.8174,11.9184,55.272,-0.0122,0.0557,0.0203,342.73
19:06:04:801,1.8004,-0.8958,11.1546,55.2371,-0.2081,0.4389,-0.0856,342.76
19:06:04:820,1.387,-0.3003,10.2515,55.0469,-0.5498,0.4065,-0.2384,342.95
19:06:04:840,0.8642,-0.2234,11.0041,55.0888,-0.6946,0.1062,-0.4172,343.14
19:06:04:859,-0.0523,-0.987,11.9226,55.133,-0.5573,-0.1722,-0.4795,343.11
19:06:04:880,-0.598,-1.6589,12.2315,55.1328,-0.3215,-0.2547,-0.2868,343.12
19:06:04:900,0.0282,-1.7814,11.9889,55.1188,-0.0782,-0.0369,-0.059,343.44
19:06:04:920,1.0639,-1.0248,11.048,55.3549,0.1092,0.2601,-0.0212,343.98
19:06:04:939,2.0359,-0.5367,9.4798,55.322,0.1241,0.3405,-0.2953,344.56
19:06:04:960,1.5339,-0.5727,8.293,55.4774,-0.0723,0.1824,-0.6648,344.89
19:06:04:979,0.2733,-0.9532,8.8362,55.6681,-0.2767,-0.0758,-0.8516,344.98
19:06:05:000,-0.7771,-1.3132,9.9073,56.1448,-0.3656,-0.1088,-0.8085,345.16
19:06:05:019,-1.3348,-1.3599,10.4989,56.3185,-0.3481,0.1073,-0.587,345.69
19:06:05:039,-1.2857,-1.0574,10.1386,56.3595,-0.248,0.4581,-0.2794,346.62
19:06:05:059,-0.7616,-0.3466,8.9622,56.3012,-0.0729,0.6689,-0.0254,347.71
19:06:05:079,-0.0085,0.2819,7.7495,56.0929,0.1321,0.613,0.0666,348.67
19:06:05:100,0.4053,0.7997,6.6899,55.9362,0.2742,0.4091,0.0374,349.2
19:06:05:120,0.5372,1.1131,6.1456,55.8276,0.2588,0.1664,-0.0707,349.25
19:06:05:140,0.4186,1.1419,6.3251,55.6836,0.1411,0.0434,-0.2096,349.07
19:06:05:160,0.0493,0.8587,7.0262,55.5014,0.0597,-0.0188,-0.2857,348.85
19:06:05:179,-0.2811,0.5376,7.627,55.3726,0.0634,-0.1019,-0.2756,348.83
19:06:05:254,-0.4998,0.3415,8.0776,55.0447,0.0735,-0.1865,-0.2011,349.01
19:06:05:254,-0.4553,0.3412,8.5835,54.948,0.0953,-0.2339,-0.0845,349.28
19:06:05:254,-0.3203,0.5809,8.9808,54.9715,0.1342,-0.2004,0.0257,349.54
19:06:05:265,-0.0366,0.9456,9.3466,55.0772,0.156,-0.0652,0.0895,349.73
19:06:05:279,0.1279,1.4637,9.5949,54.8985,0.1619,0.2063,0.1039,349.86
19:06:05:299,0.0411,1.7487,9.3054,54.8863,0.107,0.4097,0.0661,349.93
19:06:05:320,-0.3709,1.548,9.2693,55.0327,0.0267,0.3107,0.0778,350.02
19:06:05:340,-0.7373,1.2122,10.0523,54.9668,-0.0021,-0.0034,0.1566,350.05
19:06:05:360,-0.845,0.7667,11.4882,54.775,0.0304,-0.1982,0.2343,349.89
19:06:05:380,-0.8577,0.4192,12.3586,54.8836,0.0831,-0.0801,0.3621,349.57
19:06:05:400,-0.515,0.4245,12.3078,54.7585,0.0746,0.2175,0.443,349.25
19:06:05:420,-0.0048,0.4045,11.539,54.5964,-0.0441,0.1339,0.4206,349.07
19:06:05:440,0.0413,0.2077,11.646,54.4808,-0.1452,-0.367,0.353,348.87
19:06:05:460,-0.1827,-0.4294,12.6439,54.3515,-0.0431,-0.7045,0.36,348.29
19:06:05:480,-0.1913,-0.7915,12.8868,54.1966,0.155,-0.5198,0.4675,347.42
19:06:05:500,0.159,-0.896,12.2841,54.0583,0.2215,-0.0471,0.4792,346.79
19:06:05:520,0.5681,-1.2671,11.4216,53.9781,0.173,0.3107,0.3408,346.55
19:06:05:540,0.6099,-1.8765,10.5218,53.6398,0.1358,0.2984,0.2311,346.37
19:06:05:560,0.7157,-2.4732,9.8546,53.2166,0.0799,0.0626,0.1912,346.07
19:06:05:580,0.7787,-2.3558,9.8197,52.9043,0.0107,-0.1844,0.1822,345.66
19:06:05:600,0.8653,-1.7602,10.1642,52.569,-0.001,-0.2392,0.1348,345.21
19:06:05:620,0.7779,-1.2655,9.973,52.1952,0.0017,0.0125,-0.0047,344.8
19:06:05:640,0.2391,-1.0103,9.0199,51.8957,-0.0367,0.3101,-0.1106,344.55
19:06:05:659,-0.4047,-0.9578,7.9997,51.6191,-0.0931,0.3942,-0.1,344.58
19:06:05:680,-0.8655,-0.865,7.4463,51.0859,-0.1181,0.2707,0.0214,344.8
19:06:05:699,-0.9394,-0.6953,7.1661,50.7832,-0.1,0.0551,0.2237,344.97
19:06:05:720,-0.4894,-0.3043,7.1825,50.4397,-0.0351,-0.1477,0.4004,344.98
19:06:05:739,0.103,0.2546,7.3852,50.2877,0.0602,-0.2552,0.4371,344.8
19:06:05:760,0.5527,0.6582,7.3206,50.201,0.1103,-0.2887,0.3578,344.41
19:06:05:780,0.8803,0.8744,7.3511,49.8633,0.0629,-0.2744,0.2349,343.9
19:06:05:800,0.9659,1.0308,7.8041,49.7403,0.0027,-0.2493,0.0714,343.39
19:06:05:820,0.7035,0.9323,8.4136,49.6163,0.0182,-0.1828,-0.0733,342.98
19:06:05:840,0.242,0.8067,8.6627,49.493,0.0836,-0.0492,-0.1053,342.72
19:06:05:860,0.0016,0.9122,8.3446,49.5096,0.1353,0.0333,-0.0467,342.69
19:06:05:880,0.166,1.2336,8.0694,49.3857,0.1305,-0.0721,-0.0382,342.89
19:06:05:900,0.4087,1.4709,8.4201,49.3864,0.0996,-0.276,-0.1143,343.09
19:06:05:920,0.4335,1.4164,9.2513,49.3165,0.0304,-0.3489,-0.2389,343.06
19:06:05:940,0.0595,0.9719,10.1801,49.1714,-0.0739,-0.2504,-0.3251,342.96
19:06:05:960,-0.453,0.3869,11.1703,49.285,-0.1426,-0.1221,-0.2495,343.03
19:06:05:980,-0.5624,-0.0148,11.7698,49.4177,-0.1586,-0.0172,-0.0233,343.35
19:06:06:000,-0.104,-0.1358,12.0965,49.1988,-0.1075,-0.0391,0.1518,343.8
19:06:06:020,0.4923,-0.2731,12.2368,49.1035,-0.0202,-0.1077,0.2035,344.15
19:06:06:040,0.9844,-0.5495,12.2061,48.9267,0.0394,-0.0199,0.1656,344.18
19:06:06:060,1.3358,-0.7327,11.4167,48.8295,-0.051,0.1052,0.0278,343.98
19:06:06:080,1.0549,-0.5377,10.9767,48.6628,-0.2869,0.0035,-0.1931,343.82
19:06:06:100,0.0993,-0.5564,12.0818,48.3521,-0.4066,-0.1881,-0.3693,343.7
19:06:06:120,-0.8555,-1.3113,12.9628,48.3106,-0.1985,-0.0561,-0.3363,343.53
19:06:06:141,-1.1414,-1.9159,11.8436,48.1809,0.1065,0.2734,-0.0611,343.59
19:06:06:160,-0.3598,-1.8451,9.4652,47.908,0.2465,0.1579,0.1811,344.16
19:06:06:180,0.664,-1.0694,8.0776,47.8586,0.09,-0.3484,0.2018,344.87
19:06:06:200,1.19,-0.0575,9.0937,47.5179,-0.2192,-0.7939,-0.0041,344.89
19:06:06:220,1.079,0.1912,10.9647,47.4534,-0.3209,-0.7039,-0.2948,344.28
19:06:06:240,0.3605,0.0088,11.4885,47.493,-0.2129,-0.103,-0.4326,343.64
19:06:06:260,-0.2502,-0.0716,9.9736,47.372,-0.0675,0.5619,-0.3587,343.68
19:06:06:280,-0.4889,0.1109,7.9176,47.5109,0.0453,0.7099,-0.2006,344.48
19:06:06:299,-0.1505,0.3931,6.7508,47.2491,0.1603,0.44,-0.0675,345.5
19:06:06:320,0.397,0.7979,6.306,47.055,0.2588,0.1206,-0.0345,346.06
19:06:06:340,0.6832,1.0984,6.4413,46.7704,0.2694,-0.0151,-0.1431,346.13
19:06:06:360,0.46,0.9856,6.6662,46.4612,0.1853,0.1041,-0.2948,346.01
19:06:06:380,-0.0116,0.7093,6.8816,46.4955,0.0607,0.2202,-0.3693,345.95
19:06:06:400,-0.3809,0.4772,7.3133,46.1657,-0.0026,0.2223,-0.347,346.19
19:06:06:420,-0.4702,0.3202,7.795,45.7885,0.0016,0.1307,-0.2607,346.58
19:06:06:440,-0.4375,0.3314,8.3038,45.7636,0.0448,0.0072,-0.1367,346.99
19:06:06:460,-0.2512,0.5218,9.0033,45.4524,0.0794,-0.0157,-0.0276,347.32
19:06:06:481,-0.0532,0.7795,9.5657,45.1004,0.0874,0.1344,0.0421,347.53
19:06:06:500,0.0804,1.0114,10.0724,44.8728,0.0884,0.4011,0.0581,347.68
19:06:06:520,0.1298,1.0126,10.1774,44.9853,0.1102,0.7514,0.0949,347.82
19:06:06:540,0.1621,1.0093,9.4834,44.9703,0.0703,0.884,0.205,347.96
19:06:06:559,0.5229,1.1484,9.4434,44.5529,0.0368,0.5741,0.2338,348.15
19:06:06:580,0.6865,0.8641,10.1292,44.2953,0.0719,0.1142,0.0842,348.12
19:06:06:600,0.187,-0.0001,11.3482,44.1717,0.1129,-0.0822,-0.0531,347.63
19:06:06:620,-0.3978,-0.7488,12.3319,43.69,0.0559,0.0392,-0.0659,347.02
19:06:06:640,-0.7275,-0.7452,12.9935,43.585,-0.0707,0.2404,0.0326,346.79
19:06:06:660,-0.5543,-0.1272,13.5259,43.3836,-0.1767,0.4123,0.0714,346.93
19:06:06:681,-0.3682,0.4797,14.1503,43.1535,-0.0282,0.4065,-0.0595,347.13
19:06:06:700,-0.646,0.467,13.599,42.7625,0.2087,0.3277,-0.2293,347.2
19:06:06:720,-0.8782,-0.2624,12.405,42.4991,0.3072,0.5358,-0.3241,347.13
19:06:06:739,-1.3732,-0.8991,10.4549,42.4122,0.3077,0.8036,-0.2985,347.16
19:06:06:759,-1.9867,-1.115,8.2539,42.462,0.2327,0.6817,-0.1718,347.58
19:06:06:781,-2.1722,-1.0737,7.0194,42.279,0.0693,0.1105,-0.0068,348.12
19:06:06:800,-1.858,-0.8411,7.4264,42.3315,-0.0883,-0.5352,0.1497,348.34
19:06:06:820,-1.2478,-0.6328,8.6036,42.1147,-0.1862,-0.8754,0.2093,348.08
19:06:06:839,-0.93,-0.4448,9.6531,42.2008,-0.2097,-0.8535,0.2109,347.59
19:06:06:860,-0.8442,-0.3972,9.8335,42.0882,-0.1969,-0.5001,0.2088,347.19
19:06:06:881,-0.9189,-0.4526,8.9676,42.0276,-0.1958,-0.1136,0.2535,346.99
19:06:06:900,-1.0071,-0.4338,7.8809,41.9165,-0.1767,0.0067,0.3765,347.04
19:06:06:920,-0.78,-0.1624,7.0259,42.0317,-0.1218,-0.1583,0.501,347.09
19:06:06:940,-0.1266,0.2369,6.4885,41.8133,-0.0835,-0.4,0.5228,346.9
19:06:06:960,0.441,0.5628,6.364,41.8277,-0.1293,-0.6113,0.4307,346.35
19:06:06:983,0.7286,0.726,7.0382,41.7593,-0.1926,-0.6172,0.2732,345.61
19:06:07:000,0.739,0.6554,7.7012,41.8157,-0.2304,-0.343,0.0613,344.86
19:06:07:019,0.4064,0.5232,7.9801,41.9425,-0.2538,-0.0513,-0.1207,344.36
19:06:07:039,-0.0355,0.4451,8.1271,42.0493,-0.3007,0.0179,-0.2256,344.24
19:06:07:059,-0.4925,0.308,8.7425,42.055,-0.3204,-0.1578,-0.232,344.38
19:06:07:079,-0.6902,0.1629,9.9419,42.2641,-0.2325,-0.2243,-0.1612,344.55
19:06:07:099,-0.6569,0.2578,10.8942,42.2798,-0.0516,-0.0944,-0.0845,344.7
19:06:07:120,-0.5178,0.4972,10.8145,42.6481,0.0905,0.0439,0.0028,344.92
19:06:07:140,-0.0777,0.8061,10.6088,42.8515,0.123,0.0525,0.0709,345.23
19:06:07:160,0.4526,1.0332,10.7661,43.1276,0.0922,-0.0625,0.0272,345.46
19:06:07:181,0.7464,0.9427,11.3464,43.1869,0.0522,-0.2898,-0.1016,345.47
19:06:07:200,0.6633,0.3083,12.2898,43.2674,0.0442,-0.3878,-0.1958,345.31
19:06:07:220,0.7573,-0.5231,12.7309,43.3662,0.0852,-0.1636,-0.1644,345.1
19:06:07:240,1.1992,-0.9191,11.679,43.6086,0.0171,0.1392,-0.1431,345.14
19:06:07:314,1.2496,-0.6998,10.8409,43.7689,-0.1735,-0.0151,-0.2602,345.53
19:06:07:314,0.712,-0.6248,11.4012,44.0813,-0.331,-0.4053,-0.5216,345.92
19:06:07:314,-0.4488,-1.4224,13.0126,44.2511,-0.2709,-0.4852,-0.6637,345.93
19:06:07:319,-1.3435,-2.5579,12.9757,44.283,-0.0084,-0.1019,-0.4763,345.91
19:06:07:339,-0.9776,-2.9852,10.9926,44.4478,0.2439,0.3713,-0.0744,346.45
19:06:07:359,0.442,-2.2223,8.4458,44.715,0.3242,0.3208,0.1561,347.55
19:06:07:380,1.6536,-1.1839,7.1159,44.7829,0.1624,-0.1338,-0.0063,348.49
19:06:07:400,1.422,-0.6627,7.5406,45.2221,-0.1692,-0.4708,-0.3917,348.56
19:06:07:420,0.2125,-0.9387,8.7705,45.5273,-0.4109,-0.4293,-0.5988,348.03
19:06:07:440,-0.8798,-1.266,9.4519,45.9502,-0.4279,-0.211,-0.4944,347.72
19:06:07:460,-1.2007,-1.1642,9.1423,46.1219,-0.2863,0.0035,-0.2043,348.13
19:06:07:480,-0.7143,-0.6376,8.3172,46.3561,-0.1075,0.1211,0.0949,348.97
19:06:07:500,0.1499,0.1535,7.297,46.6227,-0.0036,0.077,0.2375,349.72
19:06:07:520,0.9078,0.9204,6.9451,46.8727,0.0469,0.0487,0.1971,350.09
19:06:07:540,1.2816,1.3632,6.713,46.9183,0.0629,0.1435,0.0193,349.97
19:06:07:559,1.0679,1.417,6.26,46.9216,-0.0122,0.2989,-0.2,349.69
19:06:07:580,0.4612,1.0824,6.0446,46.9386,-0.1522,0.2878,-0.3331,349.54
19:06:07:600,-0.0977,0.7885,6.6196,47.1337,-0.2757,0.1073,-0.3496,349.62
19:06:07:620,-0.3627,0.4954,7.8628,47.205,-0.3071,-0.1067,-0.3097,349.82
19:06:07:640,-0.4316,0.3157,9.3004,47.2622,-0.2373,-0.2153,-0.2027,350.06
19:06:07:660,-0.2853,0.2459,10.5074,47.4744,-0.0941,-0.0109,-0.0393,350.3
19:06:07:680,-0.0694,0.477,10.6093,47.5971,0.0549,0.2649,0.1044,350.58
19:06:07:701,0.1494,0.8983,10.1381,47.6771,0.1571,0.4549,0.1923,350.99
19:06:07:720,0.2822,1.2599,9.4818,48.0334,0.2098,0.5087,0.2136,351.27
19:06:07:740,0.2307,1.1471,9.0457,48.3408,0.2007,0.2824,0.1742,351.32
19:06:07:760,0.2127,0.7307,9.696,48.5144,0.1236,-0.1189,0.1465,351.18
19:06:07:780,-0.002,0.2793,11.3498,48.5687,0.0677,-0.4463,0.1428,350.79
19:06:07:801,-0.1479,-0.3918,13.6098,48.6612,0.1145,-0.4474,0.163,350.29
19:06:07:819,0.3094,-1.0443,13.9253,48.7988,0.1161,0.1323,0.2279,349.87
19:06:07:840,0.6626,-0.6639,12.5874,48.7136,-0.1303,0.4751,0.2274,349.7
19:06:07:859,0.6794,-0.3546,12.0144,48.8472,-0.4226,0.3149,0.0821,349.92
19:06:07:879,-0.0384,-0.761,12.4335,48.9824,-0.5743,0.1014,-0.0425,349.87
19:06:07:899,-0.8428,-1.8844,12.6162,48.9912,-0.5136,0.1829,0.0054,349.46
19:06:07:922,-1.3875,-2.6653,11.9693,49.2435,-0.265,0.2968,0.2748,349.19
19:06:07:939,-1.0431,-2.7375,10.9712,49.3578,0.0847,0.1776,0.6245,349.32
19:06:07:960,-0.1219,-2.2031,10.0094,49.2905,0.361,-0.1594,0.7714,349.47
19:06:07:982,0.6552,-1.5366,9.6562,49.3021,0.411,-0.3675,0.6405,349.16
19:06:07:999,0.4724,-1.0669,9.7819,49.4171,0.3093,-0.4463,0.4212,348.27
19:06:08:019,-0.0453,-1.0499,9.8276,49.4965,0.1406,-0.2621,0.3136,347.23
19:06:08:039,-0.6326,-1.199,9.4264,49.426,0.0139,-0.0039,0.3892,346.39
19:06:08:059,-0.831,-1.0296,8.9058,49.4766,0.0538,0.1478,0.5761,345.98
19:06:08:079,-0.4902,-0.5564,8.215,49.2615,0.2172,0.1366,0.7139,345.77
19:06:08:100,0.0973,-0.0224,7.4644,49.0094,0.3418,0.0908,0.7145,345.44
19:06:08:119,0.453,0.3012,6.9385,48.7868,0.3934,0.0759,0.607,344.82
19:06:08:139,0.4646,0.3748,6.7338,48.672,0.3802,0.0791,0.4611,344.01
19:06:08:159,0.3201,0.1641,6.7543,48.3485,0.3349,0.0892,0.353,343.19
19:06:08:179,0.1718,0.001,6.9564,48.2246,0.3163,0.0615,0.2955,342.5
19:06:08:199,0.092,0.0726,7.1346,47.9493,0.3312,0.0147,0.2269,341.97
19:06:08:220,-0.1357,0.137,7.3868,47.9818,0.3365,-0.0923,0.1241,341.51
19:06:08:240,-0.2692,0.1237,7.9008,47.6557,0.3477,-0.2536,0.0384,341.17
19:06:08:260,-0.2517,0.1483,8.5587,47.7505,0.3732,-0.3782,0.0033,340.84
19:06:08:280,-0.1566,0.3223,9.0789,47.7524,0.3998,-0.4351,-0.0079,340.59
19:06:08:299,0.0362,0.5476,9.4302,47.7644,0.3828,-0.3627,-0.0201,340.47
19:06:08:319,-0.2145,0.5088,9.3276,47.6291,0.2359,-0.2174,-0.0292,340.45
19:06:08:340,-0.3521,0.3869,9.3964,47.6741,-0.0212,-0.2291,0.0688,340.52
19:06:08:360,0.175,0.4972,10.3079,47.8126,-0.232,-0.2451,0.212,340.61
19:06:08:381,1.0419,0.6261,11.455,48.0588,-0.2581,-0.2328,0.1822,340.56
19:06:08:400,1.5237,0.3153,12.2518,48.0531,-0.1389,-0.2648,0.0054,340.41
19:06:08:420,1.607,-0.4457,12.3206,48.2757,-0.0707,-0.0998,-0.1026,340.18
19:06:08:440,1.4515,-0.8975,11.5085,48.3892,-0.1452,0.1126,-0.1005,340
19:06:08:460,1.2477,-0.7376,11.1116,48.5332,-0.2996,-0.0236,-0.1149,340.15
19:06:08:480,0.7409,-0.6096,11.7438,48.5919,-0.3901,-0.368,-0.1974,340.39
19:06:08:500,0.1376,-0.7979,13.3694,48.911,-0.2304,-0.4857,-0.183,340.36
19:06:08:520,0.4205,-1.1693,13.4757,49.1816,0.1257,-0.0359,-0.0324,340.22
19:06:08:540,1.1842,-0.9551,11.3391,49.1574,0.3551,0.5193,0.1055,340.42
19:06:08:560,2.1003,-0.4836,8.9119,48.9932,0.3919,0.497,0.0613,341.07
19:06:08:580,2.4285,0.0825,7.6677,48.8704,0.2471,0.0839,-0.2181,341.57
19:06:08:599,1.9385,0.362,8.0586,48.5194,-0.0516,-0.3521,-0.6413,341.44
19:06:08:620,0.7604,-0.1839,9.5334,48.6422,-0.3039,-0.409,-0.9224,341.03
19:06:08:640,-0.5259,-0.9652,10.5924,48.6366,-0.3305,-0.087,-0.883,340.89
19:06:08:659,-1.1879,-1.2169,10.0829,48.7011,-0.174,0.2835,-0.562,341.53
19:06:08:680,-0.8753,-0.6677,8.4717,48.5081,-0.0031,0.4602,-0.1713,342.82
19:06:08:700,0.0133,0.2287,7.0219,48.3868,0.1273,0.3389,0.0203,344.14
19:06:08:720,0.6913,1.0763,6.3733,48.209,0.2162,0.1584,0.0054,344.95
19:06:08:740,1.0692,1.5282,6.2303,48.4363,0.2444,0.1073,-0.1585,345.08
19:06:08:760,1.0419,1.525,6.2409,48.5211,0.1981,0.2271,-0.3667,344.94
19:06:08:780,0.5803,1.3616,6.1935,48.6582,0.1087,0.3245,-0.487,344.91
19:06:08:799,0.1637,1.2497,6.4262,48.3681,0.0331,0.2446,-0.512,345.17
19:06:08:820,-0.0725,1.3204,7.1711,48.3785,0.0102,-0.0039,-0.4715,345.63
19:06:08:840,-0.029,1.47,8.468,48.312,0.0256,-0.1977,-0.413,346.1
19:06:08:860,-0.0639,1.5954,9.7683,48.1893,0.0554,-0.1988,-0.3624,346.49
19:06:08:880,-0.3017,1.494,10.8656,48.2452,0.1065,-0.1556,-0.2889,346.89
19:06:08:899,-0.6675,1.3811,12.0272,48.1415,0.2391,0.0088,-0.1324,347.38
19:06:08:920,-0.7462,1.0869,12.2117,48.0719,0.3833,0.3266,0.0842,347.84
19:06:08:940,-0.614,0.7728,11.6856,47.99,0.4206,0.4528,0.2971,348.32
19:06:08:960,-0.5316,0.4449,11.1907,47.9987,0.378,0.2957,0.4765,348.72
19:06:08:980,-0.4054,0.4334,11.2031,47.9813,0.2891,0.119,0.6708,348.69
19:06:09:000,0.348,0.6248,11.3592,47.793,0.1821,0.2649,0.7821,348.19
19:06:09:021,0.9306,0.9814,10.7892,47.7374,0.0017,0.4767,0.7374,347.46
19:06:09:039,0.9319,1.5479,10.3527,47.7351,-0.2469,0.3618,0.5835,346.76
19:06:09:059,0.5575,1.8421,11.102,47.3407,-0.4008,0.0764,0.3104,345.96
19:06:09:079,-0.1184,1.2666,12.1539,47.121,-0.3587,-0.0428,0.0438,344.95
19:06:09:100,-0.791,0.106,12.1377,46.5918,-0.1947,-0.005,-0.0238,344.03
19:06:09:120,-0.9351,-0.974,11.4661,46.2059,0.0022,-0.0715,0.0821,343.61
19:06:09:140,-0.5902,-1.663,10.6655,45.9084,0.1486,-0.1572,0.1885,343.63
19:06:09:161,-0.2929,-1.6853,9.8618,45.6134,0.1449,-0.1439,0.2482,343.65
19:06:09:182,-0.1772,-1.3719,9.1546,45.3193,-0.0031,-0.1274,0.2434,343.53
19:06:09:199,-0.2177,-1.0842,9.0333,44.8559,-0.1537,-0.186,0.1806,343.33
19:06:09:220,-0.3268,-0.9222,9.2621,44.4183,-0.1985,-0.1359,0.1422,343.03
19:06:09:240,-0.4127,-0.693,9.0954,44.1965,-0.1671,0.0567,0.1492,342.68
19:06:09:260,-0.485,-0.3306,8.3702,44.0248,-0.1005,0.2446,0.1827,342.51
19:06:09:280,-0.4214,0.0264,7.3871,44.0574,-0.0681,0.2617,0.2013,342.51
19:06:09:299,-0.4879,0.2309,6.8119,43.7529,-0.0707,0.0573,0.2152,342.48
19:06:09:378,-0.483,0.3327,6.9926,43.5434,-0.0265,-0.1823,0.2583,342.28
19:06:09:379,-0.2124,0.5604,7.2152,43.3875,0.0357,-0.2323,0.2918,341.89
19:06:09:379,0.1656,0.8726,7.1264,43.0115,0.0182,-0.1344,0.2322,341.48
19:06:09:379,0.2312,1.1713,7.1553,42.7378,-0.0654,-0.0609,0.1044,341.17
19:06:09:401,0.105,1.3441,7.7003,42.5811,-0.1255,-0.1008,-0.0286,340.92
19:06:09:419,-0.1137,1.3828,8.5048,42.3075,-0.0941,-0.1945,-0.1165,340.69
19:06:09:439,-0.4469,1.3501,9.1328,42.2049,-0.0233,-0.2919,-0.1314,340.54
19:06:09:460,-0.5962,1.3031,9.7497,41.6637,0.0224,-0.2834,-0.0776,340.52
19:06:09:479,-0.4983,1.3932,10.2759,41.4971,0.0783,-0.1375,0.0108,340.62
19:06:09:500,-0.2702,1.716,10.1428,41.0931,0.1273,-0.0082,0.0587,340.8
19:06:09:520,-0.0447,1.8763,10.0333,41.0561,0.0879,-0.0039,0.0379,341.01
19:06:09:540,-0.1849,1.7033,10.4129,41.0515,0.0123,-0.0699,0.0086,341.11
19:06:09:560,-0.5425,1.3815,11.1393,41.001,-0.0169,-0.1333,0.032,341.04
19:06:09:580,-0.551,0.7626,11.7619,40.9551,0.0214,-0.1429,0.1289,340.93
19:06:09:599,0.225,0.0696,11.5751,40.7325,0.0411,-0.0311,0.2327,340.87
19:06:09:620,1.0794,-0.1703,10.772,40.3986,-0.1181,-0.0226,0.1939,340.84
19:06:09:639,1.3604,-0.2015,10.6517,40.2411,-0.396,-0.1961,-0.027,340.78
19:06:09:660,0.704,-0.6186,11.6375,39.8823,-0.5807,-0.3633,-0.2639,340.47
19:06:09:680,0.0964,-1.4816,12.5847,39.6811,-0.5386,-0.3494,-0.2959,340.04
19:06:09:699,0.313,-2.2669,12.4395,39.2602,-0.3326,-0.0769,-0.1042,339.91
19:06:09:720,1.1337,-2.1848,11.4158,39.0851,-0.0712,0.2957,0.1513,340.25
19:06:09:739,2.3345,-1.4064,9.9628,38.7463,0.164,0.3516,0.1444,340.85
19:06:09:760,2.7499,-0.6601,8.8185,38.6008,0.1826,0.0855,-0.2208,341.32
19:06:09:779,1.8673,-0.7519,8.9632,38.5372,0.0357,-0.1588,-0.6648,341.26
19:06:09:800,0.2565,-1.454,9.8608,38.2861,-0.0925,-0.1876,-0.7989,340.92
19:06:09:820,-1.0107,-1.9214,10.1439,38.1447,-0.1085,-0.0146,-0.5945,340.96
19:06:09:840,-1.3675,-1.7182,9.539,38.1458,-0.0255,0.1589,-0.2314,341.67
19:06:09:860,-0.7219,-0.9265,8.4752,38.0604,0.0453,0.1866,0.0688,342.71
19:06:09:880,0.0843,-0.0393,7.6515,38.065,0.0815,0.1722,0.1854,343.53
19:06:09:900,0.6731,0.6679,7.1284,37.9889,0.0953,0.2074,0.1465,343.82
19:06:09:920,0.8956,1.077,6.6943,37.7381,0.0874,0.2803,0.0358,343.74
19:06:09:940,0.8325,1.1947,6.2394,37.3824,0.0634,0.3426,-0.068,343.55
19:06:09:959,0.6484,1.2565,6.0109,37.3968,0.0251,0.2516,-0.1425,343.43
19:06:09:980,0.419,1.274,6.2902,37.2268,-0.0281,0.028,-0.2006,343.43
19:06:10:000,0.3313,1.2112,7.3104,37.1073,-0.0707,-0.1892,-0.2288,343.43
19:06:10:019,0.3358,1.292,8.6652,36.9352,-0.0531,-0.2163,-0.2325,343.41
19:06:10:039,0.3796,1.3503,9.6322,36.8312,-0.0191,-0.0923,-0.2416,343.48
19:06:10:059,0.2854,1.4291,10.3102,36.5758,0.0278,0.0663,-0.2165,343.73
19:06:10:079,0.1968,1.5794,10.7183,36.4047,0.0874,0.2005,-0.1548,344.1
19:06:10:100,0.1074,1.77,10.8854,36.348,0.1449,0.333,-0.0867,344.5
19:06:10:120,-0,1.9028,10.8115,36.3115,0.1954,0.3676,-0.0233,344.86
19:06:10:139,0.0168,1.8068,10.7449,36.2764,0.2471,0.2606,0.0272,345.14
19:06:10:159,0.0388,1.4379,10.8383,36.0617,0.2577,-0.0055,0.0443,345.26
19:06:10:179,-0.3383,0.5567,11.4763,35.8864,0.2125,-0.2036,0.1124,345.21
19:06:10:199,-0.6456,-0.3116,12.0906,35.8618,0.1166,0.0248,0.3365,344.98
19:06:10:220,-0.7964,-0.1659,12.0254,35.6045,-0.009,0.2138,0.6149,344.78
19:06:10:240,-0.1726,0.5781,12.2019,35.5317,-0.0489,0.226,0.7081,344.79
19:06:10:260,0.4352,1.0282,12.3567,35.1515,-0.0186,0.2297,0.5005,344.51
19:06:10:279,0.0303,0.7447,12.021,34.9495,0.0442,0.1754,0.2354,343.79
19:06:10:300,-0.7448,-0.2124,11.4339,34.775,0.1134,0.1424,0.139,342.98
19:06:10:319,-1.0703,-1.0145,10.499,34.4214,0.1821,0.1462,0.2444,342.39
19:06:10:339,-0.979,-1.2341,9.3968,34.4303,0.1885,0.0807,0.3871,342.1
19:06:10:359,-0.634,-1.066,8.5697,34.2239,0.0943,-0.087,0.4265,341.95
19:06:10:379,-0.3883,-0.7933,8.4092,34.1076,-0.0915,-0.2877,0.3679,341.62
19:06:10:400,-0.3146,-0.6601,9.1479,34.2546,-0.2096,-0.4559,0.2897,341.03
19:06:10:425,-0.2748,-0.5351,9.8074,34.0127,-0.2033,-0.4644,0.2428,340.36
19:06:10:439,-0.1607,-0.3914,9.9124,34.0536,-0.1394,-0.2259,0.2194,339.8
19:06:10:459,-0.0997,-0.0644,9.1913,34.0612,-0.0867,0.0839,0.1944,339.49
19:06:10:479,0.0208,0.2536,8.2392,33.8451,-0.0803,0.2547,0.139,339.42
19:06:10:500,-0.1449,0.4134,7.6406,33.783,-0.0622,0.1765,0.1002,339.42
19:06:10:519,-0.3655,0.274,7.461,33.5361,0.0118,-0.0135,0.1348,339.31
19:06:10:539,-0.2907,0.2729,7.4685,33.629,0.0996,-0.1237,0.2088,339.1
19:06:10:560,-0.0316,0.4412,7.3506,33.5713,0.1268,-0.1248,0.2285,338.86
19:06:10:581,0.1963,0.7925,7.3255,33.4541,0.09,-0.1083,0.18,338.66
19:06:10:602,0.3044,1.058,7.5114,33.4896,0.0474,-0.1711,0.0757,338.43
19:06:10:627,0.214,1.0685,8.0073,33.529,0.0373,-0.2499,-0.0265,338.18
19:06:10:640,0.0239,0.9956,8.5829,33.5204,0.0341,-0.302,-0.068,337.92
19:06:10:660,-0.0889,1.069,9.5493,33.4758,0.1028,-0.3132,-0.0537,337.79
19:06:10:679,0.0265,1.1727,9.9917,33.6242,0.2066,-0.1493,-0.0286,337.8
19:06:10:700,0.2281,1.3515,9.6448,33.7118,0.1992,0.0461,-0.0595,337.91
19:06:10:719,0.327,1.5153,9.431,33.826,0.0826,0.0695,-0.1511,338.13
19:06:10:740,0.1214,1.3863,9.8742,33.7549,-0.0202,-0.0859,-0.2362,338.31
19:06:10:760,-0.1579,0.8466,10.7069,33.778,-0.0862,-0.2648,-0.2794,338.36
19:06:10:780,-0.3328,0.0487,11.8031,33.9893,-0.1074,-0.2962,-0.2139,338.39
19:06:10:800,-0.0011,-0.4622,12.3541,34.0492,-0.0707,-0.1067,-0.0627,338.52
19:06:10:819,1.005,-0.4755,11.5719,34.1276,-0.0718,0.1174,0.032,338.82
19:06:10:839,1.7176,-0.1998,10.6839,34.5033,-0.1676,0.1105,-0.0537,339.22
19:06:10:859,1.8751,0.0184,10.6638,34.4908,-0.2741,-0.1093,-0.2666,339.45
19:06:10:879,1.2612,-0.2333,11.7251,34.8131,-0.3071,-0.2685,-0.479,339.38
19:06:10:900,0.5394,-0.6202,12.7666,34.9909,-0.1894,-0.0636,-0.5216,339.25
19:06:10:919,0.313,-1.0552,12.5151,35.3576,0.0336,0.3378,-0.4561,339.45
19:06:10:939,0.3563,-1.1568,10.4393,35.7103,0.1864,0.5545,-0.3576,340.2
19:06:10:960,0.676,-1.171,8.6118,35.7501,0.139,0.2633,-0.3352,341.15
19:06:10:980,0.635,-1.1206,8.5082,35.9996,-0.0484,-0.1977,-0.3911,341.86
19:06:11:003,0.3364,-0.9918,9.8982,36.3199,-0.1793,-0.3787,-0.4061,342.02
19:06:11:019,-0.0939,-0.8807,11.0194,36.6573,-0.1708,-0.2094,-0.3677,342.02
19:06:11:039,-0.3535,-0.6646,10.8568,37.0338,-0.0484,0.1627,-0.2416,342.31
19:06:11:059,-0.2238,-0.1484,9.4304,37.2091,0.0847,0.4554,-0.0845,342.91
19:06:11:079,0.1128,0.5492,7.8512,37.3891,0.1704,0.4363,-0.0121,343.64
19:06:11:100,0.4196,1.019,6.8364,37.5239,0.2167,0.2846,-0.019,344.15
19:06:11:119,0.6087,1.2906,6.454,37.5568,0.2311,0.1366,-0.0872,344.24
19:06:11:139,0.5874,1.4227,6.48,37.6959,0.2274,0.1142,-0.1835,344.13
19:06:11:159,0.444,1.498,6.5694,37.7325,0.1944,0.1967,-0.2911,344.05
19:06:11:180,0.1074,1.4929,6.6216,37.6558,0.1321,0.2404,-0.3757,344.12
19:06:11:200,-0.2025,1.4438,6.9214,37.7325,0.0618,0.1978,-0.4055,344.38
19:06:11:219,-0.3626,1.4578,7.471,37.8341,0.0134,0.0929,-0.3815,344.72
19:06:11:239,-0.4042,1.5153,8.4543,37.8542,0.024,-0.0029,-0.3368,345.09
19:06:11:259,-0.4443,1.4581,9.2558,38.01,0.0575,-0.0433,-0.2772,345.45
19:06:11:279,-0.6084,1.3687,9.9944,38.0586,0.0927,-0.0316,-0.1559,345.81
19:06:11:300,-0.5943,1.4265,10.5948,38.1245,0.1699,0.1217,0.0214,346.17
19:06:11:319,-0.2241,1.727,10.1798,38.3138,0.2119,0.3511,0.1539,346.5
19:06:11:339,0.1416,2.0223,9.5215,38.5922,0.1587,0.3351,0.2035,346.8
19:06:11:359,0.2845,1.9144,9.5584,38.8109,0.1145,0.1174,0.1944,346.93
19:06:11:426,0.4414,1.3137,10.0677,38.7608,0.0687,-0.1226,0.1593,346.7
19:06:11:426,0.55,0.5269,10.455,38.7585,-0.0744,-0.1461,0.1188,346.28
19:06:11:427,0.1255,0.1896,11.1395,38.7678,-0.3001,-0.129,0.1002,345.87
19:06:11:439,-0.265,0.124,12.3204,38.5969,-0.4237,-0.1668,0.1241,345.65
19:06:11:459,-0.5592,-0.0372,13.4872,38.4397,-0.3507,-0.2116,0.1092,345.5
19:06:11:479,-1.0881,-0.3376,13.7823,38.3689,-0.2134,-0.1296,0.1028,345.34
19:06:11:500,-1.424,-0.8443,13.3931,38.3873,-0.0867,-0.0252,0.1646,345.19
19:06:11:520,-1.4029,-1.3517,12.5289,38.501,0.0416,0.1355,0.278,345.17
19:06:11:540,-1.155,-1.3175,10.8858,38.5771,0.09,0.3059,0.3999,345.16
19:06:11:560,-0.8579,-0.8726,9.1697,38.5812,0.0293,0.2878,0.4531,345.11
19:06:11:579,-0.6911,-0.3136,8.2062,38.5718,-0.1085,0.0003,0.4366,344.92
19:06:11:600,-0.5818,-0.0167,8.6004,38.6839,-0.1969,-0.3622,0.3892,344.41
19:06:11:619,-0.3818,0.053,9.6794,38.9367,-0.1703,-0.4538,0.3541,343.64
19:06:11:639,-0.2236,0.1567,10.1122,38.9905,-0.117,-0.2334,0.3142,342.87
19:06:11:659,-0.1876,0.2046,9.8136,39.1917,-0.0335,0.0546,0.2822,342.38
19:06:11:680,-0.0477,0.3159,8.935,39.1457,0.0751,0.25,0.27,342.17
19:06:11:700,0.2104,0.4691,7.7773,39.1049,0.1433,0.3234,0.2386,342.05
19:06:11:719,0.3856,0.6054,6.9581,38.9749,0.1496,0.2537,0.1742,341.89
19:06:11:739,0.4326,0.6418,6.6358,38.9391,0.1347,0.1472,0.0847,341.64
19:06:11:759,0.2847,0.53,6.6154,38.9847,0.0874,0.0615,0.006,341.3
19:06:11:780,-0.0457,0.4665,6.9409,39.2458,0.0102,-0.0018,-0.0446,341.02
19:06:11:800,-0.4918,0.3706,7.4662,39.0747,-0.0681,-0.0779,-0.0462,340.84
19:06:11:819,-0.7837,0.3547,8.1592,39.3322,-0.0862,-0.1626,0.0299,340.77
19:06:11:839,-0.7309,0.6369,8.8369,39.1373,-0.0361,-0.2472,0.1167,340.75
19:06:11:859,-0.5629,1.0049,9.2267,39.2264,0.0144,-0.2669,0.1704,340.74
19:06:11:879,-0.318,1.3269,9.4366,39.2028,0.0267,-0.1935,0.1987,340.66
19:06:11:900,-0.1087,1.6594,9.7116,39.1098,0.049,-0.0779,0.1816,340.54
19:06:11:919,0.0287,1.8357,9.7329,39.2707,0.0597,-0.0109,0.105,340.41
19:06:11:939,-0.0259,1.8167,9.8211,39.1454,0.0118,-0.0662,0.0108,340.29
19:06:11:959,-0.3155,1.3616,10.2604,38.8921,-0.0292,-0.2121,-0.0526,340.14
19:06:11:979,-0.425,0.6666,10.9909,38.8693,-0.0436,-0.3601,-0.0414,339.97
19:06:12:001,-0.0043,-0.0111,11.8264,38.6747,-0.0212,-0.326,0.0134,339.85
19:06:12:019,0.7777,-0.5665,11.6388,38.953,-0.0643,-0.0519,-0.0228,339.81
19:06:12:039,0.8804,-0.5725,10.7845,38.8517,-0.2533,0.0589,-0.1404,339.91
19:06:12:059,0.6288,-0.6516,10.6165,39.1025,-0.4668,-0.0694,-0.3086,340.09
19:06:12:080,-0.1615,-0.8697,11.6827,39.2877,-0.5631,-0.2855,-0.4061,340.15
19:06:12:102,-0.851,-1.1812,13.0542,39.4255,-0.4407,-0.2488,-0.3134,340.15
19:06:12:120,-0.8019,-1.4026,13.312,39.5981,-0.1421,0.0849,-0.1031,340.33
19:06:12:140,-0.0508,-1.2057,11.399,39.8751,0.0975,0.4086,0.0911,340.86
19:06:12:160,1.064,-0.7242,9.4174,40.1331,0.1395,0.3101,0.1108,341.55
19:06:12:180,1.6998,-0.4071,8.4676,40.4256,0.0458,0.0211,-0.0835,341.97
19:06:12:200,1.4142,-0.4321,8.8666,40.4917,-0.1351,-0.1269,-0.3299,341.8
19:06:12:219,0.5224,-0.7375,9.6359,40.5433,-0.2182,-0.0279,-0.4513,341.44
19:06:12:239,-0.2971,-0.9838,9.8159,40.5317,-0.174,0.1765,-0.4039,341.38
19:06:12:259,-0.8329,-0.9263,8.9939,40.8066,-0.0686,0.3335,-0.2283,341.81
19:06:12:279,-0.7771,-0.4432,7.8294,40.9152,0.008,0.2867,-0.0286,342.49
19:06:12:300,-0.1711,0.1509,7.1794,41.0849,0.0309,0.1211,0.0634,343.1
19:06:12:319,0.3894,0.6255,7.2582,40.9879,0.0522,0.0301,0.0363,343.34
19:06:12:339,0.6078,0.979,7.5509,41.0624,0.0874,0.069,-0.0616,343.26
19:06:12:360,0.5779,1.0442,7.6101,41.1063,0.1177,0.2239,-0.1819,343.13
19:06:12:380,0.2777,0.8957,7.1747,41.2342,0.0762,0.3144,-0.249,343.12
19:06:12:402,0.0037,0.8734,7.162,41.5023,0.0096,0.2335,-0.2378,343.31
19:06:12:420,-0.0505,0.9981,7.8188,41.5719,-0.0005,0.0578,-0.2208,343.57
19:06:12:439,-0.0496,1.0733,8.7717,41.4362,0.0293,-0.0476,-0.2038,343.79
19:06:12:459,-0.0005,1.1358,9.7105,41.6247,0.0565,0.0434,-0.1921,343.93
19:06:12:479,-0.1493,1.1769,10.1869,41.7147,0.0863,0.2228,-0.1622,344.11
19:06:12:500,-0.4111,1.2617,10.4072,42.0941,0.1433,0.3532,-0.0787,344.41
19:06:12:519,-0.3694,1.4376,10.3283,42.1291,0.2274,0.3857,0.0528,344.77
19:06:12:539,-0.1344,1.7673,10.0556,42.2079,0.2614,0.3335,0.138,345.05
19:06:12:560,0.0073,1.908,10.2547,42.3493,0.2534,0.1424,0.1401,345.17
19:06:12:580,0.0648,1.5083,11.0551,42.5149,0.27,-0.0859,0.0672,345.06
19:06:12:601,-0.2408,0.6122,11.6447,42.6227,0.254,-0.1141,0.0193,344.76
19:06:12:620,-0.6484,-0.2033,11.6367,42.6771,0.1422,0.0275,0.0619,344.43
19:06:12:639,-0.9939,-0.2793,11.5892,42.4998,-0.0015,0.1376,0.1848,344.34
19:06:12:659,-1.042,-0.0193,11.7764,42.4085,-0.0415,0.1525,0.2865,344.4
19:06:12:679,-1.1031,0.0955,11.6098,42.2797,0.0006,0.1419,0.336,344.38
19:06:12:700,-1.2471,-0.072,11.0799,42.3233,0.0379,0.0652,0.3759,344.16
19:06:12:720,-1.286,-0.5552,11.0476,42.2702,0.1145,-0.2563,0.4063,343.82
19:06:12:740,-0.9746,-1.2848,11.3687,42.2823,0.2582,-0.3814,0.4148,343.38
19:06:12:759,-0.4043,-1.6293,10.5542,42.3199,0.2593,-0.014,0.3844,342.73
19:06:12:779,-0.2413,-1.4972,9.1184,42.4056,0.0975,0.25,0.2966,342.23
19:06:12:800,-0.3898,-1.1354,8.4066,42.622,-0.0766,0.111,0.1933,342.04
19:06:12:819,-0.6307,-0.8994,8.8434,42.7874,-0.1719,-0.1647,0.0682,341.75
19:06:12:839,-0.9228,-0.9681,9.9133,43.052,-0.158,-0.1839,-0.0324,341.26
19:06:12:859,-1.3405,-1.2274,10.0489,43.3695,-0.1016,0.0807,-0.0153,340.82
19:06:12:879,-1.6415,-1.3049,9.1333,43.3333,-0.059,0.3378,0.1406,340.75
19:06:12:899,-1.4851,-0.7944,8.2002,43.6366,-0.0079,0.3202,0.3653,341
19:06:12:919,-0.8562,-0.0512,7.6669,43.5703,0.0868,0.1153,0.4968,341.2
19:06:12:939,-0.1642,0.5873,7.3122,43.546,0.1182,-0.029,0.4872,341.01
19:06:12:960,0.2023,1.0516,7.3487,43.5119,0.0682,-0.087,0.3647,340.44
19:06:12:979,0.2431,1.271,7.6365,43.573,0.0139,-0.0881,0.1955,339.77
19:06:13:001,-0.0002,1.3015,7.8998,43.6394,-0.0441,-0.1173,0.0411,339.17
19:06:13:019,-0.3025,1.2009,8.4001,43.4905,-0.0909,-0.2238,-0.0595,338.75
19:06:13:040,-0.5104,1.0978,9.2575,43.2777,-0.0601,-0.3409,-0.117,338.51
19:06:13:059,-0.5828,0.9486,9.9943,43.3168,0.0304,-0.2898,-0.158,338.38
19:06:13:079,-0.6396,0.8359,10.0292,43.3138,0.0879,-0.0896,-0.1665,338.4
19:06:13:105,-0.5742,0.8418,9.4916,43.5561,0.0879,0.0945,-0.1505,338.61
19:06:13:123,-0.4359,1.0402,8.8605,43.6711,0.0783,0.0908,-0.1319,338.97
19:06:13:139,-0.3519,1.2759,8.6727,43.8449,0.0815,-0.0662,-0.1308,339.29
19:06:13:159,-0.4109,1.327,8.8264,43.8464,0.0517,-0.2014,-0.1298,339.45
19:06:13:181,-0.4868,1.236,9.4049,44.1808,0.0017,-0.293,-0.1031,339.49
19:06:13:201,-0.4973,1.1052,10.0667,44.5343,-0.0212,-0.3521,-0.0393,339.54
19:06:13:220,-0.2635,1.0496,10.5983,44.9245,-0.034,-0.4442,0.0283,339.63
19:06:13:240,0.3033,1.0873,11.3156,45.2881,-0.0303,-0.5059,0.0581,339.71
19:06:13:260,1.1967,0.9742,11.7238,45.5156,0.0016,-0.3755,-0.0393,339.71
19:06:13:279,1.48,0.6704,11.1828,45.5353,-0.0899,-0.194,-0.2953,339.67
19:06:13:300,0.672,0.2634,11.0132,45.6511,-0.2741,-0.2259,-0.5013,339.75
19:06:13:319,-0.088,-0.314,11.9886,45.8607,-0.3518,-0.3138,-0.5599,339.92
19:06:13:339,-0.6738,-0.7168,12.9413,46.1479,-0.2538,-0.2419,-0.4827,340.24
19:06:13:359,-0.9071,-0.8026,12.8488,46.3024,-0.0558,-0.0476,-0.3214,340.71
19:06:13:379,-0.467,-0.7173,11.7718,46.3761,0.1816,0.1472,-0.1697,341.44
19:06:13:399,0.4679,-0.6372,10.1722,46.4939,0.3471,0.3149,-0.1372,342.2
19:06:13:419,1.3262,-0.6484,8.3653,46.7394,0.3711,0.3586,-0.2501,342.77
19:06:13:483,1.4627,-0.7839,6.9734,46.7802,0.1757,0.1632,-0.4555,343.12
19:06:13:483,0.6757,-0.9935,7.1696,47.2452,-0.1277,-0.1045,-0.6083,343.3
19:06:13:483,-0.2602,-1.3537,8.6847,47.6232,-0.2767,-0.2174,-0.6105,343.38
19:06:13:504,-1.0051,-1.4047,9.7944,47.8746,-0.3087,-0.0731,-0.4721,343.63
19:06:13:521,-1.2806,-1.1149,9.9327,48.0678,-0.2198,0.2084,-0.2522,344.22
19:06:13:539,-1.1189,-0.3916,8.8112,48.2484,-0.1256,0.3208,-0.0387,345.02
19:06:13:559,-0.611,0.3865,7.7921,48.5181,-0.1027,0.1903,0.0709,345.78
19:06:13:579,-0.1655,1.0074,7.4953,48.8481,-0.1027,0.0456,0.0879,346.15
19:06:13:600,0.2025,1.5101,7.7294,48.9966,-0.0936,-0.0071,0.0294,346.09
19:06:13:619,0.3434,1.7476,8.1351,49.274,-0.0585,0.0094,-0.101,345.89
19:06:13:639,0.1821,1.681,8.4315,49.3889,-0.0127,0.0967,-0.2203,345.75
19:06:13:660,-0.11,1.4711,8.3663,49.4651,0.015,0.1813,-0.2756,345.74
19:06:13:679,-0.323,1.311,8.2491,49.7354,0.0096,0.1664,-0.2724,345.94
19:06:13:699,-0.395,1.2725,8.5856,49.8336,-0.0021,0.0855,-0.2687,346.26
19:06:13:720,-0.488,1.186,9.0862,49.9072,-0.0079,0.0988,-0.2634,346.55
19:06:13:740,-0.71,1.0711,9.4185,50.0402,-0.0138,0.1994,-0.2266,346.79
19:06:13:759,-0.9425,0.999,9.4807,50.2109,0.0112,0.3032,-0.1383,347.11
19:06:13:779,-0.9982,1.0898,9.1242,50.4436,0.0352,0.3665,0.0012,347.48
19:06:13:802,-0.8634,1.4457,8.7215,50.6405,0.0341,0.3474,0.1417,347.81
19:06:13:821,-0.5567,1.7704,8.5413,50.6961,0.0304,0.2281,0.213,348
19:06:13:839,-0.3332,2.0162,8.7972,50.5804,0.0086,0.0439,0.2199,347.96
19:06:13:859,-0.1826,1.8657,9.5622,50.5936,-0.0202,-0.1573,0.1481,347.69
19:06:13:879,-0.3501,1.2274,10.6753,50.7208,-0.0473,-0.2882,0.0853,347.3
19:06:13:901,-0.5162,0.5523,11.7684,50.5844,-0.0654,-0.1392,0.0885,346.9
19:06:13:923,-0.6476,0.1938,12.0148,50.6353,-0.0979,0.2053,0.1396,346.64
19:06:13:939,-0.7548,0.3451,11.3989,50.5112,-0.1681,0.3782,0.2104,346.66
19:06:13:959,-0.6961,0.6964,11.1554,50.5109,-0.2038,0.3261,0.2365,346.81
19:06:13:979,-0.7632,0.7641,11.0678,50.325,-0.224,0.2441,0.1917,346.76
19:06:14:000,-1.1655,0.4404,11.0551,50.4489,-0.2879,0.0935,0.1646,346.46
19:06:14:023,-1.7332,-0.0533,11.9074,50.5962,-0.3135,-0.2163,0.2258,346.12
19:06:14:039,-1.9311,-0.6681,13.588,50.496,-0.1469,-0.4495,0.3738,345.77
19:06:14:059,-1.4718,-1.4489,14.3847,50.7051,0.2439,-0.1935,0.5814,345.35
19:06:14:078,-0.3429,-1.4764,12.0244,50.9924,0.5271,0.3511,0.7762,344.95
19:06:14:099,1.1075,-0.7519,8.8297,51.0131,0.5169,0.5198,0.7363,344.78
19:06:14:119,1.7079,-0.0183,6.848,50.9459,0.3306,0.1589,0.443,344.55
19:06:14:140,1.2093,0.0739,6.9344,50.584,0.0453,-0.3361,0.0581,343.77
19:06:14:163,-0.0061,-0.6863,8.8314,50.7489,-0.1005,-0.5187,-0.2011,342.62
19:06:14:180,-1.2861,-1.3758,10.0397,50.7514,-0.1442,-0.3601,-0.2075,341.71
19:06:14:199,-1.8817,-1.5548,10.3855,50.784,-0.1176,-0.1498,-0.0345,341.51
19:06:14:221,-1.8675,-1.1602,10.2739,50.7705,-0.0356,-0.0412,0.1598,341.87
19:06:14:239,-1.58,-0.751,9.7531,50.69,0.0788,-0.0428,0.3259,342.27
19:06:14:259,-1.0138,-0.26,9.1043,50.5336,0.1683,-0.0519,0.4611,342.41
19:06:14:282,-0.3431,0.4143,8.5076,50.441,0.2167,-0.0412,0.4877,342.25
19:06:14:301,-0.015,0.8602,7.9871,50.6728,0.2524,-0.0055,0.402,341.89
19:06:14:319,0.0278,1.0223,7.4471,50.8614,0.238,0.0216,0.2993,341.38
19:06:14:339,-0.0704,1.1195,7.1135,50.7263,0.1837,-0.0492,0.2125,340.86
19:06:14:360,-0.2599,1.0983,7.2395,50.6196,0.1443,-0.2057,0.1343,340.42
19:06:14:379,-0.4165,1.0493,7.7325,50.4963,0.1267,-0.3004,0.0773,340.02
19:06:14:399,-0.4579,1.0246,8.2233,50.4828,0.1044,-0.2595,0.0145,339.67
19:06:14:421,-0.5461,0.9861,8.5281,50.2536,0.0794,-0.195,-0.0579,339.46
19:06:14:439,-0.6757,0.8845,8.7871,50.1533,0.0724,-0.2025,-0.101,339.42
19:06:14:459,-0.6687,0.768,9.1327,50.1774,0.0799,-0.2036,-0.1047,339.47
19:06:14:479,-0.5414,0.7591,9.3979,49.9381,0.0815,-0.1871,-0.1069,339.54
19:06:14:500,-0.3538,0.8086,9.5118,50.0076,0.0501,-0.1722,-0.1292,339.68
19:06:14:520,-0.135,0.7908,9.8385,49.91,-0.0047,-0.1961,-0.167,339.83
19:06:14:539,0.0025,0.6279,10.38,49.8479,-0.0329,-0.2286,-0.2,339.97
19:06:14:559,0.0348,0.366,10.8747,50.0159,-0.0292,-0.1998,-0.191,340.1
19:06:14:579,0.327,0.1603,10.8596,50.1908,0.0219,-0.0694,-0.0989,340.28
19:06:14:601,1.1824,0.2396,9.9913,50.4263,0.024,-0.0114,-0.0494,340.55
19:06:14:619,2.0596,0.5537,9.1533,50.3556,-0.1341,-0.2116,-0.1537,340.89
19:06:14:640,2.5404,0.6544,9.6737,50.7953,-0.3949,-0.4442,-0.4555,341.04
19:06:14:659,1.7263,0.2082,11.2492,50.9835,-0.6387,-0.5256,-0.8063,340.92
19:06:14:679,0.0778,-0.8856,12.924,51.2464,-0.7095,-0.3883,-0.9123,340.89
19:06:14:706,-1.2319,-1.682,13.9498,51.8036,-0.4998,-0.0673,-0.6594,341.33
19:06:14:720,-1.2926,-1.8585,13.3174,52.0882,-0.0649,0.2175,-0.2708,342.36
19:06:14:739,-0.0783,-1.299,10.9518,52.2248,0.2715,0.3543,-0.0127,343.71
19:06:14:759,1.4779,-0.6492,8.7323,52.2414,0.3493,0.3303,-0.0499,344.79
19:06:14:779,2.2562,-0.1448,7.2313,52.3243,0.2087,0.1627,-0.3358,345.27
19:06:14:799,1.7264,0.0093,7.3192,52.6108,-0.067,-0.1317,-0.6972,345.28
19:06:14:819,0.5968,-0.3802,8.9617,52.7048,-0.2065,-0.2584,-0.8889,345.17
19:06:14:839,-0.2476,-0.8011,9.9307,52.9148,-0.2091,-0.1104,-0.8521,345.29
19:06:14:860,-0.7716,-0.8458,9.9268,52.9993,-0.1282,0.1046,-0.6312,345.97
19:06:14:880,-0.5735,-0.3985,9.2306,53.0656,-0.0106,0.1632,-0.3682,347.11
19:06:14:900,0.0103,0.3951,8.5051,53.2101,0.0485,0.069,-0.2394,348.26
19:06:14:919,0.5339,1.0454,8.1497,53.4668,0.04,0.0413,-0.2794,349.04
19:06:14:941,0.6282,1.2754,8.1147,53.806,0.0091,0.0865,-0.4018,349.39
19:06:14:964,0.3041,1.1425,8.1019,54.0467,0.0048,0.1541,-0.4917,349.64
19:06:14:980,-0.0488,0.8828,7.9525,54.3068,-0.0084,0.1738,-0.4923,349.99
19:06:15:001,-0.2537,0.8007,7.9987,54.4076,-0.0217,0.1387,-0.4359,350.5
19:06:15:020,-0.2707,0.8527,8.1161,54.6351,-0.0324,0.1068,-0.3885,351.07
19:06:15:039,-0.3472,0.8777,8.2627,54.9337,-0.0558,0.1259,-0.3688,351.6
19:06:15:059,-0.6117,0.8348,8.3409,55.0779,-0.1122,0.1866,-0.3273,352.06
19:06:15:080,-0.9508,0.7808,8.3463,55.3705,-0.174,0.2191,-0.2197,352.51
19:06:15:101,-1.0219,0.9469,8.5173,55.5457,-0.1862,0.1664,-0.0451,352.97
19:06:15:121,-0.7082,1.3737,8.6673,55.7695,-0.1676,0.0892,0.1098,353.35
19:06:15:140,-0.2794,1.8579,8.8303,56.0048,-0.157,0.0365,0.1907,353.55
19:06:15:159,0.0566,2.2747,9.1152,56.0275,-0.1554,0.0125,0.2056,353.53
19:06:15:179,0.3267,2.5528,9.587,56.0561,-0.1122,-0.0194,0.1571,353.36
19:06:15:199,0.3765,2.4888,10.0207,56.1089,-0.0516,-0.0668,0.0794,353.13
19:06:15:219,0.2281,2.1069,10.4633,56.1044,-0.0377,-0.1077,0.0155,352.87
19:06:15:240,-0.0761,1.4561,11.1436,56.1776,-0.0612,-0.1008,-0.0153,352.67
19:06:15:260,-0.4904,0.6681,11.8647,56.1709,-0.0398,-0.0284,0.0406,352.55
19:06:15:288,-0.7309,0.085,11.8377,56.4965,-0.0319,0.1265,0.1651,352.54
19:06:15:303,-0.804,0.0669,11.5189,56.5385,-0.092,0.2164,0.2924,352.61
19:06:15:321,-0.8629,0.0755,11.5873,56.3689,-0.1325,0.2015,0.3993,352.68
19:06:15:339,-0.9386,0.0021,11.7799,56.4227,-0.1208,0.1653,0.4968,352.55
19:06:15:361,-0.7973,-0.0428,11.8094,56.7271,-0.1091,0.0328,0.5292,352.2
19:06:15:379,-0.749,-0.0128,12.3767,56.6275,-0.0941,-0.2334,0.5117,351.71
19:06:15:399,-0.5972,-0.2178,13.5827,56.6841,0.0788,-0.3026,0.4728,351.04
19:06:15:418,-0.5959,-0.7668,13.7441,56.6397,0.4083,0.0812,0.4638,350.24
19:06:15:438,-0.3502,-1.0809,11.2734,56.4685,0.584,0.6034,0.4861,349.63
19:06:15:458,-0.1875,-0.9484,8.6919,56.3159,0.5617,0.6641,0.4707,349.43
19:06:15:478,-0.1846,-0.7884,7.1359,56.081,0.4344,0.267,0.4196,349.3
19:06:15:522,-0.3606,-0.6758,7.2346,55.9175,0.2646,-0.2722,0.3717,348.76
19:06:15:523,-0.521,-0.6891,8.7662,55.7525,0.1901,-0.549,0.3408,347.89
19:06:15:539,-0.5749,-0.6678,9.9045,55.5126,0.1438,-0.4282,0.3466,346.98
19:06:15:559,-0.5591,-0.5604,10.5029,55.4684,0.1592,-0.1674,0.3541,346.36
19:06:15:579,-0.4808,-0.3737,10.3308,55.3643,0.2353,0.0083,0.3451,346.09
19:06:15:600,-0.3403,-0.2132,9.6484,55.3114,0.2875,0.1036,0.3163,345.91
19:06:15:620,-0.245,-0.0953,8.9865,55.3292,0.2769,0.1877,0.2876,345.66
19:06:15:639,-0.1684,-0.0003,8.3031,54.9549,0.2726,0.2595,0.2785,345.34
19:06:15:659,-0.0022,0.239,7.5636,54.9702,0.2614,0.2489,0.2657,345.03
19:06:15:679,0.1182,0.5157,7.1036,54.978,0.2135,0.168,0.212,344.74
19:06:15:699,0.0977,0.7727,6.9823,55.0154,0.1129,0.0801,0.1177,344.39
19:06:15:719,-0.0414,0.8874,7.2037,54.7653,0.0155,-0.0023,0.0272,344
19:06:15:739,-0.2282,0.8462,7.6217,54.5836,-0.0622,-0.0817,-0.0286,343.66
19:06:15:759,-0.3754,0.754,8.0766,54.2738,-0.1059,-0.1578,-0.0238,343.44
19:06:15:779,-0.414,0.725,8.4651,54.055,-0.0984,-0.2712,0.0299,343.34
19:06:15:799,-0.2881,0.8371,8.8986,53.8256,-0.0766,-0.3862,0.0922,343.32
19:06:15:820,0.0001,1.0827,9.471,53.959,-0.0649,-0.351,0.1012,343.28
19:06:15:839,0.2177,1.3429,9.6578,53.8548,-0.0542,-0.1583,0.0624,343.19
19:06:15:859,0.2856,1.6074,9.3408,53.9731,-0.0612,-0.0013,-0.0142,343.15
19:06:15:879,0.2253,1.7373,9.1836,53.8309,-0.1021,-0.0098,-0.1117,343.21
19:06:15:899,-0.0082,1.648,9.5103,54.0032,-0.1548,-0.0976,-0.1825,343.27
19:06:15:919,-0.3321,1.4,10.1477,54.0626,-0.1538,-0.2568,-0.1841,343.28
19:06:15:939,-0.5171,1.0627,11.1555,54.2074,-0.0633,-0.3739,-0.1063,343.34
19:06:15:959,0.1231,0.8267,11.4798,54.5187,0.0512,-0.2004,-0.0361,343.44
19:06:15:979,0.6424,0.7693,10.5754,54.7439,0.0341,-0.0087,-0.0994,343.61
19:06:15:999,0.9038,0.6814,9.9903,54.7586,-0.1075,-0.0636,-0.265,343.91
19:06:16:019,0.9643,0.3532,10.1816,54.8368,-0.331,-0.2174,-0.5327,344.11
19:06:16:039,0.2944,-0.4473,11.5849,54.8025,-0.495,-0.3585,-0.7398,344.16
19:06:16:059,-0.652,-1.4282,12.9234,55.0997,-0.438,-0.2504,-0.7148,344.31
19:06:16:079,-1.1288,-2.0106,13.2116,55.3175,-0.2373,0.0833,-0.4422,344.8
19:06:16:099,-0.4437,-1.6226,12.0352,55.6761,0.0064,0.3894,-0.1266,345.77
19:06:16:119,0.8011,-0.8663,10.2777,55.8454,0.2215,0.4624,-0.0318,346.88
19:06:16:139,1.957,-0.4467,8.4543,55.8482,0.3189,0.4411,-0.1676,347.65
19:06:16:160,2.3148,-0.3089,6.9895,56.0832,0.1954,0.3415,-0.4369,347.87
19:06:16:179,1.7795,-0.5646,6.6594,56.1367,-0.0771,0.1116,-0.7137,347.89
19:06:16:199,0.7548,-1.0655,8.1366,56.3763,-0.2464,-0.0998,-0.7957,347.97
19:06:16:219,0.1823,-1.1932,9.2595,56.6102,-0.2704,-0.0369,-0.7148,348.24
19:06:16:239,-0.125,-0.9463,9.4746,56.6265,-0.2379,0.144,-0.5748,348.87
19:06:16:259,-0.1857,-0.2879,8.9451,56.6707,-0.1974,0.2473,-0.4401,349.83
19:06:16:279,-0.0558,0.4314,8.3661,56.7717,-0.1846,0.1866,-0.38,350.78
19:06:16:299,-0.0917,0.8885,8.2241,56.9923,-0.1665,0.0637,-0.3629,351.51
19:06:16:321,-0.1279,1.1502,8.4449,56.9366,-0.1373,-0.0013,-0.3379,351.96
19:06:16:339,-0.0711,1.3698,8.5599,57.106,-0.0835,-0.0013,-0.3331,352.3
19:06:16:359,-0.0032,1.5457,8.5971,57.3926,-0.0548,0.0051,-0.3832,352.66
19:06:16:379,0.0065,1.6144,8.7513,57.4855,-0.0697,0.0269,-0.4747,353.06
19:06:16:399,-0.2141,1.4925,9.0225,57.5835,-0.0963,0.0801,-0.579,353.45
19:06:16:420,-0.7155,1.1853,9.3266,57.8794,-0.1133,0.1776,-0.6232,353.9
19:06:16:439,-1.3204,0.8594,9.3221,58.1571,-0.0952,0.2931,-0.5546,354.49
19:06:16:459,-1.8109,0.6454,8.9649,58.213,-0.0803,0.3367,-0.3741,355.22
19:06:16:479,-1.9121,0.7768,8.5412,58.2912,-0.0878,0.2638,-0.134,356.02
19:06:16:499,-1.5602,1.2685,8.5205,58.659,-0.1021,0.152,0.0619,356.68
19:06:16:520,-1.1834,1.7466,8.756,58.7593,-0.1122,0.1014,0.1571,357.04
19:06:16:539,-1.0057,1.9792,9.0604,58.6,-0.1186,0.0892,0.2189,357.1
19:06:16:559,-0.8595,2.1358,9.4737,58.6526,-0.0846,0.0876,0.2471,356.99
19:06:16:579,-0.7645,2.0883,9.6571,58.8592,-0.0792,0.0514,0.246,356.8
19:06:16:599,-0.7082,1.8146,10.2616,58.5631,-0.0787,-0.0476,0.2333,356.54
19:06:16:620,-0.6661,1.3504,11.064,58.4997,-0.0707,-0.1077,0.1997,356.23
19:06:16:640,-0.8166,0.7488,11.8063,58.4889,-0.0878,-0.0306,0.1854,355.88
19:06:16:659,-1.1376,0.2015,12.0651,58.3971,-0.1298,0.1376,0.2428,355.57
19:06:16:679,-1.3734,0.15,12.1463,58.179,-0.1724,0.2617,0.3786,355.4
19:06:16:699,-1.1471,0.3251,12.1099,58.0967,-0.124,0.2553,0.4904,355.31
19:06:16:720,-0.9978,0.4056,11.6177,58.2204,-0.1016,0.1589,0.5393,355.12
19:06:16:739,-0.9463,0.1864,11.6525,58.2836,-0.1229,-0.0886,0.5505,354.69
19:06:16:759,-1.0676,-0.0927,13.0036,58.0706,-0.0542,-0.3377,0.5926,354.06
19:06:16:780,-1.0587,-0.482,14.0927,58.2024,0.1683,-0.2211,0.632,353.25
19:06:16:800,-0.8623,-1.1991,13.3674,58.1468,0.5079,0.2361,0.7283,352.44
19:06:16:821,-0.2825,-1.2359,10.3529,57.8865,0.6772,0.5747,0.8566,351.86
19:06:16:839,0.5117,-0.7384,7.6068,57.5769,0.6452,0.3894,0.8273,351.5
19:06:16:859,0.7675,-0.2008,6.347,57.4307,0.4233,-0.1104,0.6251,350.92
19:06:16:879,0.2901,-0.2477,7.4463,57.0331,0.1901,-0.5751,0.3802,349.78
19:06:16:899,-0.4342,-0.7483,9.3592,56.7486,0.1427,-0.6773,0.2561,348.44
19:06:16:920,-1.0388,-1.1339,10.487,56.4653,0.1709,-0.4676,0.2625,347.38
19:06:16:939,-1.273,-1.1792,10.6501,56.1667,0.263,-0.1796,0.3461,346.9
19:06:16:959,-1.1521,-0.9761,9.8188,55.794,0.3519,0.003,0.4068,346.8
19:06:16:979,-0.808,-0.6887,8.6331,55.5252,0.3674,0.0605,0.4324,346.75
19:06:16:999,-0.463,-0.4656,7.8076,55.4341,0.3482,0.0338,0.4254,346.52
19:06:17:021,-0.1266,-0.2306,7.2174,55.2278,0.3221,-0.0013,0.3919,346.09
19:06:17:040,0.0948,0.035,6.6682,54.9671,0.2417,-0.0428,0.3158,345.57
19:06:17:059,0.1167,0.3038,6.4666,55.0361,0.0863,-0.1253,0.1933,345.06
19:06:17:079,-0.1088,0.3968,6.9433,55.0304,-0.0478,-0.2094,0.0619,344.57
19:06:17:099,-0.5461,0.2562,7.6523,54.8249,-0.1165,-0.2105,-0.0116,344.13
19:06:17:120,-0.8789,0.2143,7.9711,54.7513,-0.1612,-0.1722,-0.0041,343.85
19:06:17:139,-0.9642,0.3243,8.185,54.6189,-0.1846,-0.1695,0.031,343.79
19:06:17:160,-0.8666,0.6065,8.3543,54.5568,-0.2134,-0.203,0.0571,343.84
19:06:17:180,-0.6229,0.9354,8.8243,54.5796,-0.2357,-0.2392,0.0565,343.86
19:06:17:199,-0.2848,1.2822,9.3696,54.8179,-0.231,-0.1998,0.0203,343.8
19:06:17:220,-0.0958,1.5551,9.63,54.9657,-0.2246,-0.0758,-0.0483,343.73
19:06:17:239,-0.1588,1.6936,9.5456,54.8008,-0.2325,0.0094,-0.1127,343.71
19:06:17:259,-0.3183,1.6749,9.5526,54.986,-0.2373,-0.0588,-0.1479,343.8
19:06:17:279,-0.4463,1.4738,9.9577,55.0854,-0.2395,-0.2041,-0.1399,343.93
19:06:17:299,-0.4129,1.1945,10.6831,55.1437,-0.2384,-0.3047,-0.0914,344.01
19:06:17:320,-0.1908,1.0367,11.5734,55.3573,-0.1884,-0.3446,-0.002,344.07
19:06:17:339,0.6717,0.9261,11.9773,55.2994,-0.0856,-0.244,0.0395,344.17
19:06:17:360,1.4787,0.8807,11.2274,55.392,-0.1037,-0.0561,-0.067,344.27
19:06:17:380,1.7125,0.7216,10.601,55.2196,-0.2336,-0.1024,-0.2857,344.39
19:06:17:400,1.3147,0.2555,11.0692,55.1016,-0.3507,-0.2749,-0.5045,344.49
19:06:17:421,0.6661,-0.4594,12.1414,55.4918,-0.3614,-0.269,-0.6211,344.51
19:06:17:440,-0.1097,-1.0474,12.6688,55.5063,-0.2613,-0.0401,-0.5567,344.7
19:06:17:460,-0.2361,-1.1677,12.3116,55.5709,-0.05,0.21,-0.3853,345.29
19:06:17:479,0.3469,-0.8815,11.0021,55.7196,0.1672,0.325,-0.266,346.2
19:06:17:499,1.1467,-0.6845,9.6464,55.7121,0.3093,0.3069,-0.2905,347.07
19:06:17:520,1.7243,-0.6753,8.377,56.0346,0.3147,0.2148,-0.4534,347.64
19:06:17:585,1.474,-0.8928,7.5443,56.1052,0.0975,0.0828,-0.6759,347.96
19:06:17:585,0.4693,-1.3506,8.2561,56.3154,-0.1399,-0.0519,-0.7861,348.22
19:06:17:585,-0.5339,-1.7367,9.4042,56.7798,-0.2171,-0.0481,-0.6839,348.6
19:06:17:599,-1.1017,-1.6408,10.0531,56.9096,-0.1804,0.0408,-0.4241,349.23
19:06:17:621,-0.7737,-1.0497,9.8387,56.8937,-0.0798,0.1648,-0.1489,350.12
19:06:17:639,-0.0837,-0.0102,8.8974,57.0665,-0.0415,0.1898,-0.026,350.97
19:06:17:659,0.3555,0.7629,8.4317,57.373,-0.042,0.1238,-0.059,351.56
19:06:17:679,0.4276,1.2088,8.4436,57.5327,-0.0132,0.1084,-0.1372,351.74
19:06:17:699,0.3462,1.4266,8.3485,57.8738,0.0432,0.1632,-0.2064,351.72
19:06:17:720,0.2483,1.4989,7.9438,57.9789,0.0831,0.2042,-0.2788,351.78
19:06:17:739,0.0824,1.5559,7.6631,58.1966,0.0916,0.185,-0.3587,351.98
19:06:17:759,-0.1681,1.4627,7.6032,58.0877,0.0671,0.1339,-0.4364,352.25
19:06:17:779,-0.5715,1.2194,7.8941,58.1371,0.024,0.0967,-0.471,352.56
19:06:17:799,-0.8644,0.9807,8.3295,58.2585,-0.009,0.1366,-0.4444,352.92
19:06:17:819,-1.1013,0.8682,8.5992,58.3934,-0.0383,0.209,-0.3869,353.39
19:06:17:843,-1.354,0.7766,8.6943,58.4074,-0.0526,0.2622,-0.2692,353.95
19:06:17:859,-1.4321,0.8819,8.6128,58.4642,-0.0691,0.2665,-0.0973,354.5
19:06:17:879,-1.3793,1.169,8.6175,58.2995,-0.0984,0.217,0.072,354.98
19:06:17:899,-1.1133,1.5979,8.8895,58.2703,-0.125,0.1637,0.2141,355.27
19:06:17:920,-0.7676,1.9777,9.279,58.1153,-0.1048,0.1478,0.2897,355.34
19:06:17:940,-0.5874,2.1392,9.3484,58.1658,-0.1202,0.1179,0.2908,355.2
19:06:17:960,-0.5967,1.9816,9.9419,58.0661,-0.1602,-0.0321,0.2556,354.94
19:06:17:983,-0.6671,1.479,11.0019,58.1391,-0.174,-0.194,0.2279,354.59
19:06:17:999,-0.8364,0.9352,12.2696,58.0766,-0.174,-0.2073,0.238,354.14
19:06:18:019,-1.0417,0.5643,13.0527,58.0318,-0.1708,-0.0311,0.2929,353.72
19:06:18:039,-1.1801,0.6332,13.435,57.8973,-0.1271,0.1589,0.4084,353.45
19:06:18:059,-0.9185,0.8699,13.1871,57.9615,-0.034,0.2622,0.4659,353.32
19:06:18:080,-0.9618,0.9282,12.6911,58.0149,0.0203,0.2047,0.4547,353.13
19:06:18:099,-1.2767,0.4696,12.7877,57.9998,0.0836,0.0738,0.4781,352.74
19:06:18:121,-1.569,-0.0415,13.2389,57.9416,0.2353,-0.005,0.5958,352.17
19:06:18:139,-1.4842,-0.7467,13.0428,57.7128,0.5004,0.0951,0.7501,351.56
19:06:18:159,-1.0159,-1.0814,11.2061,57.4988,0.6628,0.2782,0.913,350.96
19:06:18:179,-0.3087,-0.9756,9.2903,57.1266,0.6916,0.2542,0.9764,350.38
19:06:18:199,0.2566,-0.7443,7.831,56.944,0.5936,0.0067,0.8992,349.66
19:06:18:220,0.3238,-0.6429,7.5854,56.6983,0.3908,-0.3366,0.7326,348.59
19:06:18:239,-0.1189,-0.8783,8.8839,56.1704,0.2763,-0.5336,0.5915,347.27
19:06:18:260,-0.4739,-1.1809,9.9385,55.7471,0.2944,-0.4255,0.5287,345.97
19:06:18:279,-0.7329,-1.3036,9.9251,55.5103,0.3232,-0.2036,0.518,345.01
19:06:18:299,-0.6764,-1.1955,9.2669,55.0968,0.3573,-0.0343,0.5393,344.47
19:06:18:320,-0.4217,-0.8369,8.3249,54.9538,0.3599,-0.0039,0.5351,344.07
19:06:18:339,-0.0854,-0.5089,7.7757,54.7225,0.3482,-0.014,0.4989,343.63
19:06:18:359,0.24,-0.1352,7.2699,54.5358,0.3248,0.0285,0.4244,343.04
19:06:18:379,0.4025,0.2024,6.7057,54.2166,0.263,0.0322,0.2982,342.42
19:06:18:399,0.3534,0.3995,6.2943,53.8901,0.1555,-0.0284,0.1534,341.89
19:06:18:420,0.1391,0.5381,6.2671,53.9368,-0.0036,-0.1258,0.0177,341.4
19:06:18:439,-0.169,0.5498,6.9335,53.6881,-0.1415,-0.1924,-0.0813,341
19:06:18:459,-0.4022,0.5785,7.628,53.3934,-0.2054,-0.1828,-0.1362,340.73
19:06:18:479,-0.5408,0.6868,7.9297,53.3208,-0.2395,-0.1769,-0.1638,340.66
19:06:18:500,-0.5882,0.8352,8.144,53.1699,-0.2698,-0.2089,-0.1681,340.77
19:06:18:520,-0.5581,0.9823,8.5158,53.1397,-0.3055,-0.2382,-0.1479,340.95
19:06:18:540,-0.4216,1.2112,9.2129,53.2325,-0.3278,-0.2142,-0.1378,341.13
19:06:18:564,-0.2185,1.4168,9.6235,53.3963,-0.3108,-0.1317,-0.1708,341.31
19:06:18:580,-0.11,1.5723,9.7698,53.7217,-0.3097,-0.0497,-0.2256,341.52
19:06:18:599,-0.1589,1.4992,9.8076,53.8021,-0.3241,-0.0396,-0.2645,341.76
19:06:18:619,-0.2823,1.3692,10.0805,54.186,-0.3348,-0.1062,-0.2618,342.03
19:06:18:639,-0.2897,1.221,10.5495,54.453,-0.3284,-0.1913,-0.2389,342.3
19:06:18:659,-0.2685,1.0479,11.1015,54.6738,-0.2991,-0.2541,-0.1708,342.56
19:06:18:679,0.2608,0.9611,11.6282,54.8377,-0.2347,-0.2105,-0.0962,342.8
19:06:18:699,1.1695,1.0264,11.2368,55.1932,-0.2496,-0.1019,-0.1569,343.05
19:06:18:721,1.5388,1.0486,10.9267,55.4439,-0.3741,-0.2158,-0.3858,343.31
19:06:18:739,1.2128,0.4169,11.964,55.4344,-0.4545,-0.3979,-0.619,343.51
19:06:18:759,0.4541,-0.4567,13.1291,55.39,-0.4433,-0.2722,-0.6823,343.59
19:06:18:779,-0.3721,-0.88,13.4936,55.6469,-0.3262,-0.0077,-0.5641,343.89
19:06:18:799,-0.2165,-0.7477,12.947,55.6216,-0.0409,0.2718,-0.3416,344.72
19:06:18:819,0.5157,-0.3909,10.939,55.7153,0.2087,0.3751,-0.2426,345.73
19:06:18:841,1.1892,-0.251,9.1174,55.9487,0.3189,0.3271,-0.29,346.65
19:06:18:859,1.4881,-0.3146,7.6249,56.1146,0.2524,0.2074,-0.4438,347.17
19:06:18:879,1.1174,-0.5114,7.0563,55.9266,0.0075,0.011,-0.62,347.43
19:06:18:902,0.154,-0.7871,8.1847,55.912,-0.2086,-0.1881,-0.6844,347.65
19:06:18:921,-0.5564,-0.8938,9.514,55.9567,-0.2395,-0.1349,-0.6078,347.96
19:06:18:939,-1.104,-0.6639,9.9801,56.1932,-0.174,0.0445,-0.4492,348.53
19:06:18:959,-1.1314,-0.2307,9.504,56.0703,-0.0521,0.2005,-0.2554,349.3
19:06:18:979,-0.7792,0.4652,8.4566,56.0448,0.007,0.1776,-0.1207,350.15
19:06:18:999,-0.3786,1.0527,8.06,56.207,0.0363,0.0743,-0.0893,350.79
19:06:19:019,-0.1145,1.4271,7.9751,56.0322,0.0634,0.0285,-0.126,351.07
19:06:19:041,-0.0409,1.675,7.9905,56.2712,0.0741,0.0551,-0.2096,351.13
19:06:19:059,-0.1944,1.7347,8.0623,56.4313,0.082,0.1036,-0.3124,351.2
19:06:19:079,-0.5325,1.5885,8.0715,56.5364,0.0953,0.1217,-0.3778,351.37
19:06:19:099,-0.8523,1.4005,8.1533,56.5377,0.0783,0.1084,-0.3911,351.65
19:06:19:119,-1.0272,1.265,8.5019,56.5016,0.0645,0.0982,-0.3661,352.02
19:06:19:140,-1.1174,1.2232,8.8737,56.6564,0.0591,0.1217,-0.3054,352.44
19:06:19:160,-1.0295,1.2054,9.1472,56.861,0.081,0.1573,-0.2149,352.87
19:06:19:180,-0.8145,1.3049,9.1258,56.7245,0.0991,0.1989,-0.1005,353.31
19:06:19:201,-0.493,1.5668,9.0691,56.6917,0.1129,0.2287,-0.0201,353.68
19:06:19:222,-0.3648,1.7868,8.973,56.6188,0.0996,0.2633,0.0272,353.95
19:06:19:239,-0.3829,1.8862,8.9895,56.6874,0.0735,0.2872,0.0725,354.07
19:06:19:259,-0.406,1.8686,9.0005,56.6,0.0278,0.2361,0.1002,354.11
19:06:19:279,-0.5655,1.5899,9.5018,56.5429,-0.0063,0.0232,0.1247,354.08
19:06:19:299,-0.7126,1.0864,10.743,56.2895,-0.0026,-0.1599,0.1736,353.94
19:06:19:319,-0.8649,0.5948,11.6745,56.1328,0.0065,-0.0923,0.2546,353.65
19:06:19:340,-0.9322,0.2314,12.0572,56.1547,0.015,0.2021,0.3754,353.37
19:06:19:359,-0.6922,0.4442,11.0498,56.0396,-0.0564,0.5294,0.4739,353.23
19:06:19:379,-0.7685,1.0379,10.1988,55.9672,-0.1713,0.4363,0.493,353.16
19:06:19:399,-0.8825,1.231,10.2432,55.7828,-0.2475,0.0972,0.4286,352.95
19:06:19:420,-1.418,0.6777,11.4976,55.5556,-0.2719,-0.2174,0.3775,352.3
19:06:19:440,-1.9226,-0.0235,12.8891,55.394,-0.24,-0.3569,0.4654,351.46
19:06:19:460,-1.8147,-0.6939,14.3673,55.177,-0.0633,-0.3909,0.5984,350.73
19:06:19:479,-1.126,-1.3117,14.8794,55.2331,0.3338,-0.0683,0.7523,350.2
19:06:19:499,-0.2044,-1.2549,12.176,54.8866,0.5696,0.4448,0.8342,349.68
19:06:19:522,0.5134,-0.7851,9.0832,54.5159,0.493,0.5225,0.7331,349.29
19:06:19:540,0.5672,-0.4567,7.5083,54.2635,0.2907,0.1525,0.5441,348.83
19:06:19:559,-0.0289,-0.5608,8.0818,54.15,0.1156,-0.3271,0.4121,347.9
19:06:19:580,-0.4406,-0.7832,9.9236,53.8426,0.156,-0.4207,0.4084,346.74
19:06:19:649,-0.5458,-0.6928,10.3279,53.6138,0.2503,-0.1423,0.4457,345.74
19:06:19:650,-0.3923,-0.4407,9.4493,53.2451,0.3173,0.1552,0.485,345.24
19:06:19:650,-0.1725,0.0289,8.0902,53.0433,0.3179,0.1637,0.4787,345.02
19:06:19:659,0.0889,0.2989,7.5485,52.7314,0.303,-0.0167,0.426,344.75
19:06:19:679,0.2464,0.4627,7.5048,52.6947,0.2897,-0.145,0.353,344.18
19:06:19:699,0.3553,0.5959,7.5579,52.5788,0.2726,-0.1684,0.2593,343.49
19:06:19:719,0.3555,0.7188,7.433,52.4597,0.2332,-0.1242,0.1507,342.92
19:06:19:739,0.2657,0.8647,7.2284,52.1112,0.1475,-0.1115,0.0171,342.52
19:06:19:759,0.0192,0.9329,7.2767,51.9399,0.0506,-0.1849,-0.1048,342.28
19:06:19:779,-0.2086,0.9028,7.7662,51.6641,0.0001,-0.2877,-0.1665,342.12
19:06:19:799,-0.2791,1.0024,8.2308,51.6392,-0.0148,-0.326,-0.1867,342.05
19:06:19:819,-0.3295,1.0792,8.5722,51.6034,-0.0276,-0.2499,-0.2032,342.11
19:06:19:839,-0.58,1.1514,8.736,51.6298,-0.0649,-0.1828,-0.191,342.31
19:06:19:862,-0.6438,1.248,9.0207,51.6044,-0.0776,-0.1285,-0.1319,342.62
19:06:19:880,-0.538,1.4949,9.0481,51.5137,-0.0638,-0.07,-0.0755,342.92
19:06:19:900,-0.4038,1.7783,8.8773,51.4047,-0.0941,-0.0694,-0.0749,343.19
19:06:19:922,-0.504,1.8472,9.1008,51.3704,-0.1671,-0.1429,-0.1053,343.4
19:06:19:939,-0.6988,1.6519,9.7482,51.556,-0.2006,-0.2366,-0.1244,343.48
19:06:19:959,-0.8035,1.2767,10.4133,51.6711,-0.2267,-0.2866,-0.0962,343.51
19:06:19:979,-0.5096,0.796,11.051,51.7075,-0.2304,-0.2621,-0.0371,343.57
19:06:20:001,0.1732,0.3069,10.9167,51.6388,-0.2895,-0.1647,-0.0419,343.69
19:06:20:022,0.5414,0.1606,10.7623,51.6214,-0.4322,-0.1615,-0.1063,343.85
19:06:20:039,0.6014,0.1378,11.1903,51.555,-0.5876,-0.2456,-0.241,343.97
19:06:20:059,0.1982,-0.2321,12.2206,51.6294,-0.6275,-0.2536,-0.3608,344
19:06:20:079,-0.3235,-0.5639,13.0219,51.8271,-0.529,-0.1179,-0.3395,344.04
19:06:20:100,-0.6163,-0.7318,13.3482,51.9219,-0.2922,0.0637,-0.2075,344.32
19:06:20:119,-0.1174,-0.7349,12.7131,51.924,0.0597,0.2894,-0.0356,344.88
19:06:20:139,0.8654,-0.3965,10.5988,51.9529,0.2838,0.3767,0.023,345.47
19:06:20:159,1.9062,-0.1193,8.9584,51.967,0.3083,0.2638,-0.1095,345.95
19:06:20:180,2.0333,0.0584,8.1397,52.1728,0.1395,0.086,-0.3736,346.1
19:06:20:201,1.1848,-0.1571,8.8472,52.2366,-0.05,-0.0364,-0.587,345.98
19:06:20:220,0.119,-0.5645,9.8106,52.1577,-0.0654,0.0099,-0.5679,345.94
19:06:20:240,-0.4768,-0.6275,9.838,52.2605,0.0331,0.1153,-0.3629,346.24
19:06:20:260,-0.3135,-0.15,8.974,52.133,0.1422,0.1744,-0.1415,346.94
19:06:20:279,0.1567,0.6621,7.8376,52.0571,0.1481,0.1073,-0.0499,347.68
19:06:20:299,0.602,1.2207,7.5628,52.0161,0.1001,0.0509,-0.1085,348.15
19:06:20:320,0.6013,1.4166,7.6031,52.1305,0.0645,0.0839,-0.2133,348.25
19:06:20:340,0.3187,1.3772,7.592,52.2059,0.0671,0.1222,-0.3001,348.25
19:06:20:360,-0.1021,1.2347,7.4754,52.1243,0.0496,0.1243,-0.3139,348.39
19:06:20:380,-0.4056,1.1395,7.6924,52.0862,0.0283,0.0999,-0.2676,348.66
19:06:20:403,-0.3918,1.1763,8.065,52.2071,0.032,0.0775,-0.2336,349
19:06:20:419,-0.3489,1.1817,8.2925,52.1276,0.0208,0.0823,-0.2352,349.33
19:06:20:439,-0.3817,1.0607,8.5331,52.3325,-0.0154,0.1142,-0.2368,349.61
19:06:20:459,-0.4054,0.9689,8.8391,52.3965,-0.0345,0.1462,-0.1819,349.87
19:06:20:480,-0.3624,1.0946,9.0949,52.3693,-0.0212,0.1935,-0.0888,350.15
19:06:20:501,-0.2287,1.4879,9.0895,52.1863,0.0011,0.2819,-0.0116,350.43
19:06:20:520,-0.122,1.9674,8.8565,52.1099,0.0176,0.3649,0.0315,350.67
19:06:20:540,-0.098,2.3001,8.4238,52.1546,-0.0036,0.3431,0.0267,350.82
19:06:20:560,-0.2008,2.3596,8.5398,52.0216,-0.0734,0.1659,-0.019,350.87
19:06:20:580,-0.6226,1.9649,9.596,51.9017,-0.1175,-0.1067,-0.0547,350.79
19:06:20:602,-0.9168,1.155,11.0012,51.7421,-0.116,-0.2163,-0.0409,350.6
19:06:20:619,-1.325,0.3678,11.9485,51.6137,-0.149,-0.0471,0.0592,350.41
19:06:20:639,-1.5585,-0.0063,12.2591,51.651,-0.1931,0.1206,0.2359,350.4
19:06:20:659,-1.3089,0.1149,12.4871,51.5213,-0.1767,0.0839,0.4169,350.57
19:06:20:679,-0.7998,0.3162,12.5376,51.5519,-0.1138,0.0253,0.5016,350.62
19:06:20:699,-0.3974,0.4031,12.2106,51.6239,-0.0643,-0.0157,0.4888,350.32
19:06:20:719,-0.4225,0.3065,12.002,51.5658,-0.0638,-0.021,0.4265,349.8
19:06:20:739,-0.6696,0.0584,12.0232,51.7917,-0.0771,0.1488,0.386,349.2
19:06:20:759,-0.8921,-0.2012,11.8204,51.7538,0.0065,0.2952,0.3988,348.64
19:06:20:779,-1.03,-0.5703,10.837,51.8753,0.1677,0.2824,0.4606,348.25
19:06:20:800,-0.9446,-0.7742,9.4356,51.7704,0.2205,0.136,0.5516,347.94
19:06:20:819,-0.5451,-0.7084,8.5856,51.6943,0.1539,-0.0753,0.5777,347.49
19:06:20:840,-0.231,-0.5134,8.5602,51.7247,0.0331,-0.3223,0.5303,346.85
19:06:20:860,-0.0753,-0.296,9.6024,51.7144,-0.0132,-0.4745,0.452,346.01
19:06:20:879,0.1265,-0.0828,10.4243,51.6496,0.0357,-0.417,0.3349,345.19
19:06:20:901,0.1305,0.0189,10.4335,51.3828,0.065,-0.228,0.2056,344.49
19:06:20:920,-0.0338,-0.0077,10.07,51.4102,0.131,-0.03,0.1263,344.05
19:06:20:940,-0.1672,0.0158,9.1924,51.4447,0.2082,0.0706,0.0959,343.84
19:06:20:960,-0.0841,0.1152,8.3829,51.4553,0.2476,0.1078,0.0895,343.78
19:06:20:979,0.1828,0.2962,7.7514,51.3356,0.2721,0.136,0.0587,343.73
19:06:21:001,0.4049,0.4799,7.0669,51.2011,0.2673,0.1041,-0.0175,343.66
19:06:21:019,0.4216,0.6597,6.6623,50.9424,0.2066,-0.0082,-0.1298,343.57
19:06:21:039,0.3565,0.7584,6.8344,50.8556,0.1055,-0.1328,-0.2746,343.47
19:06:21:059,0.1075,0.6963,7.503,50.723,0.0097,-0.2249,-0.4167,343.4
19:06:21:079,-0.3092,0.492,8.232,50.9777,-0.0436,-0.2392,-0.5029,343.45
19:06:21:100,-0.8251,0.1465,8.8521,50.7269,-0.0643,-0.178,-0.4838,343.69
19:06:21:120,-1.2837,-0.0039,9.0295,50.5908,-0.0824,-0.095,-0.3459,344.18
19:06:21:140,-1.4228,0.0984,9.1009,50.4629,-0.0814,-0.0678,-0.1495,344.81
19:06:21:159,-1.1465,0.499,9.1497,50.5214,-0.0601,-0.0476,0.0278,345.43
19:06:21:179,-0.7487,1.0576,8.9539,50.5266,-0.0691,-0.0481,0.1044,345.84
19:06:21:200,-0.4955,1.4727,8.9344,50.6893,-0.1106,-0.1029,0.1007,346.03
19:06:21:219,-0.3725,1.5359,9.2782,50.5531,-0.1506,-0.2073,0.0874,345.99
19:06:21:239,-0.2058,1.5833,9.9426,50.6729,-0.1607,-0.2962,0.08,345.83
19:06:21:259,-0.023,1.5831,10.5002,50.514,-0.1447,-0.3382,0.04,345.64
19:06:21:279,0.1214,1.3858,10.959,50.7345,-0.1335,-0.375,-0.0116,345.49
19:06:21:300,0.3756,0.9961,11.2889,50.6982,-0.1133,-0.3457,-0.0329,345.4
19:06:21:319,0.8689,0.7655,11.0449,50.7371,-0.157,-0.2658,-0.0893,345.36
19:06:21:339,1.0582,0.6606,10.8113,50.7732,-0.3172,-0.3771,-0.2533,345.43
19:06:21:359,0.6173,0.3017,12.0048,50.8878,-0.4311,-0.5474,-0.4124,345.54
19:06:21:379,-0.1078,-0.3317,13.1857,51.0956,-0.396,-0.4335,-0.4225,345.54
19:06:21:399,-0.751,-0.65,13.4165,51.3993,-0.248,-0.0976,-0.241,345.71
19:06:21:419,-0.5144,-0.4309,12.4309,51.5322,-0.0079,0.1717,0.0049,346.3
19:06:21:439,0.3147,0.0298,10.9169,51.8068,0.2231,0.1302,0.113,347.08
19:06:21:459,1.2869,0.1345,9.6452,52.0149,0.3785,0.0275,0.0469,347.62
19:06:21:479,1.8545,0.0747,8.4683,52.2116,0.3477,-0.0492,-0.1473,347.63
19:06:21:500,1.8456,-0.1451,8.059,52.2519,0.1688,-0.1471,-0.4087,347.46
19:06:21:519,1.0635,-0.4825,8.8965,52.3732,0.0267,-0.2275,-0.5822,347.35
19:06:21:539,0.3222,-0.7987,9.6006,52.2061,0.0384,-0.1455,-0.5988,347.43
19:06:21:559,-0.3125,-0.8751,9.3293,52.1243,0.09,0.0232,-0.5067,347.82
19:06:21:579,-0.6273,-0.6586,8.4367,52.0165,0.097,0.16,-0.3486,348.57
19:06:21:600,-0.5922,-0.1705,7.5875,51.8335,0.065,0.1605,-0.2006,349.4
19:06:21:619,-0.3884,0.3542,7.1031,51.5767,0.0208,0.0727,-0.1319,350.07
19:06:21:641,-0.3179,0.7617,6.9851,51.2734,-0.0473,-0.0316,-0.1202,350.44
19:06:21:729,-0.2716,0.9869,7.399,51.2024,-0.0968,-0.0268,-0.1218,350.58
19:06:21:729,-0.2888,1.2264,7.54,51.2089,-0.1197,0.0376,-0.126,350.64
19:06:21:729,-0.3464,1.3967,7.6223,50.9013,-0.1213,0.0306,-0.1431,350.77
19:06:21:730,-0.3596,1.4753,7.8245,50.9883,-0.0734,-0.0582,-0.1543,350.96
19:06:21:739,-0.3,1.5249,8.1364,50.8326,0.0341,-0.211,-0.1734,351.09
19:06:21:760,0.0019,1.6461,8.4907,50.8407,0.1789,-0.3755,-0.2298,351.2
19:06:21:779,0.2301,1.6419,9.1657,50.8328,0.3163,-0.4516,-0.29,351.29
19:06:21:802,0.2631,1.6171,9.8037,50.7962,0.4477,-0.2435,-0.2554,351.42
19:06:21:819,0.2649,1.6638,10.1267,51.0022,0.5633,0.136,-0.1255,351.69
19:06:21:839,0.3142,1.9714,9.7374,50.8789,0.6085,0.5263,0.04,352.24
19:06:21:859,0.3652,2.5663,9.181,50.6661,0.5548,0.7259,0.1502,352.85
19:06:21:880,0.4166,2.7678,8.3218,50.6645,0.3205,0.8116,0.1571,353.28
19:06:21:902,0.6974,2.6331,8.007,50.5294,-0.0074,0.5145,0.0858,353.24
19:06:21:920,0.0507,2.5656,9.0646,50.594,-0.2065,-0.0705,0.1614,353.03
19:06:21:940,-0.1137,1.7906,11.2888,50.3475,-0.1154,-0.696,0.2865,352.48
19:06:21:961,0.2795,1.2826,13.4039,50.3203,0.2135,-0.5959,0.3908,351.84
19:06:21:979,0.9357,1.1276,13.6042,50.1316,0.6053,0.1078,0.4584,351.23
19:06:21:999,1.1395,1.467,12.0386,49.8661,0.7592,0.5246,0.485,351.1
19:06:22:019,0.9904,2.0789,10.4268,49.6168,0.5904,0.4214,0.4845,351.32
19:06:22:039,0.7623,2.3852,9.5162,49.4165,0.1087,-0.0502,0.4313,351.11
19:06:22:059,0.6408,2.1869,10.5454,49.414,-0.339,-0.4325,0.3466,350.36
19:06:22:080,0.4707,1.4697,12.6292,49.2654,-0.4497,-0.4958,0.238,349.31
19:06:22:100,0.0893,0.4737,13.4635,49.021,-0.2538,-0.1024,0.2439,348.46
19:06:22:121,-0.2788,-0.2189,12.111,48.9097,-0.0111,0.3655,0.3381,348.08
19:06:22:139,-0.1107,-0.3944,10.0064,48.6618,0.1097,0.6599,0.4473,348.22
19:06:22:159,0.3805,-0.1739,8.213,48.5169,0.0751,0.489,0.459,348.35
19:06:22:179,0.5195,0.2421,7.7753,48.1895,-0.0361,-0.062,0.3951,348.14
19:06:22:200,0.5177,0.5604,8.5707,47.9614,-0.1532,-0.5102,0.278,347.4
19:06:22:221,0.7388,0.8456,9.8707,47.8069,-0.1559,-0.623,0.0858,346.39
19:06:22:239,0.7425,1.0783,11.0548,47.3911,0.0613,-0.3175,-0.1622,345.6
19:06:22:259,0.3387,0.9494,10.856,47.2504,0.3237,-0.0763,-0.2996,345.3
19:06:22:280,0.0979,0.6556,10.3156,47.0329,0.5404,0.3043,-0.307,345.61
19:06:22:300,-0.0991,0.5418,8.571,46.8674,0.5872,0.5731,-0.2208,346.1
19:06:22:320,-0.2301,0.7423,6.8269,46.6095,0.4147,0.6375,-0.1154,346.79
19:06:22:340,0.09,0.9786,5.7604,46.2228,0.1385,0.5231,-0.1372,347.28
19:06:22:360,0.094,1.331,5.6846,45.9778,-0.0872,0.2979,-0.2006,347.41
19:06:22:380,0.0228,1.4226,6.2408,45.5408,-0.174,0.0642,-0.2565,347.28
19:06:22:400,-0.1777,1.3149,6.9335,45.4263,-0.1697,-0.1844,-0.298,347.13
19:06:22:419,-0.3886,1.2238,7.8883,45.1501,-0.1335,-0.3303,-0.2927,347.12
19:06:22:439,-0.3835,1.3978,9.0213,44.7497,-0.0414,-0.2919,-0.2511,347.22
19:06:22:459,-0.4778,1.6823,9.7556,44.4707,0.1358,-0.162,-0.1787,347.5
19:06:22:479,-0.4348,1.7949,9.9621,44.1385,0.3211,-0.0391,-0.1122,347.93
19:06:22:499,-0.3477,1.9256,9.936,43.8993,0.4302,0.1696,-0.0398,348.39
19:06:22:519,-0.0736,2.2687,9.2819,43.8076,0.4132,0.3703,0.0113,348.75
19:06:22:539,0.0887,2.6662,8.706,43.6702,0.2737,0.349,0.0097,349.04
19:06:22:559,0.1511,2.8803,8.7606,43.5421,0.0911,0.2005,-0.0164,349.19
19:06:22:579,-0.0734,2.7185,9.3987,43.2638,-0.0734,-0.0939,-0.0435,349.06
19:06:22:599,-0.3772,2.1588,10.5645,43.0921,-0.1234,-0.4309,0.031,348.83
19:06:22:621,0.0015,1.4869,11.3949,42.9093,-0.0579,-0.5213,0.1896,348.57
19:06:22:639,0.796,1.184,11.0106,42.7779,-0.0372,-0.4154,0.2657,348.37
19:06:22:660,0.8383,1.2128,10.373,42.6189,-0.1639,-0.4724,0.278,348.35
19:06:22:679,0.6909,1.2443,10.5698,42.4818,-0.3603,-0.648,0.2173,348.32
19:06:22:699,0.3461,1.3083,11.6756,42.3632,-0.5189,-0.7716,0.1135,348.04
19:06:22:719,0.3005,1.2271,12.8108,42.3232,-0.5439,-0.5144,0.0187,347.65
19:06:22:740,0.5748,0.8274,12.864,42.4861,-0.4716,0.0019,-0.0361,347.41
19:06:22:760,1.0506,0.4146,11.5062,42.5629,-0.3512,0.4586,-0.0132,347.62
19:06:22:780,1.7311,0.1146,9.5762,42.5926,-0.2735,0.5949,-0.0121,348.09
19:06:22:800,2.1377,0.0342,8.3996,42.3819,-0.2464,0.349,-0.1244,348.51
19:06:22:820,1.8515,0.2821,8.4234,42.0889,-0.2677,-0.0694,-0.3177,348.57
19:06:22:840,1.2839,0.349,9.3219,42.1624,-0.3033,-0.2818,-0.5322,348.34
19:06:22:860,0.4522,0.1837,10.0121,41.9785,-0.3395,-0.1136,-0.619,348.14
19:06:22:880,-0.2579,0.0244,9.7324,41.7182,-0.3715,0.2697,-0.5045,348.37
19:06:22:899,-0.4658,0.1784,8.5144,41.4251,-0.3874,0.4996,-0.2953,349.14
19:06:22:919,-0.3224,0.628,7.6682,40.9481,-0.3486,0.4118,-0.1314,350.13
19:06:22:939,0.0041,1.1592,7.7037,40.5394,-0.1612,0.218,-0.1026,350.83
19:06:22:959,0.1544,1.5793,7.6323,40.321,0.0267,0.0615,-0.1883,351.04
19:06:22:980,0.0876,1.7334,7.3744,40.1455,0.0246,0.0264,-0.2623,351.04
19:06:23:000,-0.2086,1.6148,7.6319,39.9508,-0.0622,0.0839,-0.2937,351.06
19:06:23:019,-0.4938,1.4098,8.0817,39.4566,-0.0888,0.1739,-0.2778,351.25
19:06:23:039,-0.617,1.2193,8.0581,39.2381,-0.0952,0.193,-0.2144,351.58
19:06:23:059,-0.6622,1.2496,8.2303,38.9082,-0.1357,0.0956,-0.1447,351.97
19:06:23:079,-0.6252,1.3025,8.8207,38.6518,-0.1671,0.0094,-0.0808,352.28
19:06:23:099,-0.6508,1.4488,9.593,38.4573,-0.1932,0.0354,0.0017,352.42
19:06:23:119,-0.5602,1.6964,10.2188,38.2595,-0.1447,0.2308,0.1071,352.5
19:06:23:139,-0.3356,2.1195,9.9827,37.6597,-0.0281,0.4097,0.2072,352.61
19:06:23:159,-0.1098,2.4427,9.2998,37.3577,0.0703,0.4283,0.2758,352.75
19:06:23:179,0.2013,2.5323,8.8044,37.306,0.0938,0.3202,0.2934,352.75
19:06:23:199,0.3797,2.6097,8.8946,36.7696,0.0395,0.0743,0.254,352.51
19:06:23:219,0.3473,2.3764,10.016,36.5745,-0.0106,-0.2201,0.1412,352.08
19:06:23:240,0.2284,1.6305,11.4161,36.4184,-0.0249,-0.2387,0.0501,351.53
19:06:23:261,-0.1282,0.8754,12.3157,35.9721,-0.043,0.02,0.0666,351.01
19:06:23:280,-0.2621,0.5601,12.1674,35.5592,-0.0861,0.3341,0.1417,350.86
19:06:23:300,-0.2173,0.8034,11.697,35.1711,-0.1239,0.3666,0.2279,351.01
19:06:23:319,-0.0306,0.8948,11.5978,35.0157,-0.1053,0.1754,0.2402,351.16
19:06:23:339,-0.2218,0.7166,11.9747,34.7007,-0.076,-0.0609,0.2178,350.99
19:06:23:359,-0.5875,0.3292,12.6696,34.4466,0.007,-0.1407,0.2663,350.56
19:06:23:379,-0.6649,-0.0692,12.9289,34.284,0.1816,0.0125,0.3637,350.1
19:06:23:399,-0.2805,-0.5999,11.6486,34.0428,0.3567,0.3101,0.4371,349.81
19:06:23:419,-0.0187,-0.8496,9.678,33.8771,0.3966,0.3921,0.4787,349.65
19:06:23:439,0.244,-0.8216,8.166,33.6713,0.3141,0.1701,0.4627,349.47
19:06:23:459,0.2639,-0.4933,8.0878,33.2895,0.156,-0.2893,0.3743,349.01
19:06:23:480,-0.092,-0.3211,9.7811,32.9005,0.0986,-0.6741,0.2929,348.25
19:06:23:500,-0.3346,-0.2039,11.4474,32.7527,0.156,-0.5884,0.2503,347.35
19:06:23:520,-0.5518,-0.0911,11.8662,32.5505,0.271,-0.1796,0.2434,346.68
19:06:23:540,-0.6601,0.0495,10.8725,32.1492,0.3716,0.1664,0.2748,346.49
19:06:23:560,-0.5738,0.3205,9.5135,32.1217,0.4158,0.2292,0.319,346.59
19:06:23:580,-0.3743,0.6034,8.7981,31.951,0.4685,0.1462,0.3397,346.61
19:06:23:601,-0.132,0.7074,8.1329,31.7285,0.5143,0.1105,0.3174,346.32
19:06:23:620,0.0014,0.709,7.3137,31.7646,0.4882,0.1669,0.2854,345.88
19:06:23:640,0.1421,0.7133,6.4208,31.7538,0.4009,0.1856,0.253,345.46
19:06:23:659,0.1974,0.8052,5.7006,31.844,0.2689,0.0754,0.1997,345.12
19:06:23:679,0.0824,0.9353,5.5411,31.7997,0.0953,-0.1839,0.1257,344.77
19:06:23:699,-0.1289,0.9315,6.464,31.6964,-0.0579,-0.4314,0.0517,344.35
19:06:23:720,-0.3378,0.8255,7.6106,31.6703,-0.1543,-0.4596,0.0129,343.89
19:06:23:791,-0.4624,0.7579,8.4988,31.5804,-0.1947,-0.3255,0.0187,343.58
19:06:23:791,-0.4659,0.872,8.9314,31.5242,-0.1601,-0.2051,0.0629,343.56
19:06:23:791,-0.1538,1.058,8.6987,31.4485,-0.117,-0.1503,0.0927,343.71
19:06:23:798,0.1683,1.3947,8.4223,31.2239,-0.1601,-0.1764,0.0661,343.84
19:06:23:819,0.3305,1.6933,8.7238,31.1718,-0.2187,-0.1966,-0.0063,343.85
19:06:23:839,0.3165,1.7798,9.0493,31.0444,-0.2661,-0.1679,-0.0898,343.74
19:06:23:859,0.117,1.7116,9.3463,30.9718,-0.3305,-0.1647,-0.1314,343.68
19:06:23:879,-0.1252,1.688,9.9624,30.9451,-0.3757,-0.228,-0.1234,343.73
19:06:23:899,-0.2896,1.7309,10.7772,30.9995,-0.3614,-0.309,-0.0792,343.85
19:06:23:920,-0.1219,1.6729,11.5495,31.2586,-0.3033,-0.2855,-0.0089,343.96
19:06:23:939,0.5164,1.5633,11.7034,31.3088,-0.2655,-0.0731,0.0081,344.07
19:06:23:960,0.8311,1.2836,11.1712,31.1955,-0.3353,0.0807,-0.0696,344.23
19:06:23:979,0.6317,1.0663,11.0649,31.2616,-0.4258,-0.0343,-0.1436,344.44
19:06:23:999,0.7107,0.6333,11.6907,31.4239,-0.4561,-0.1977,-0.1889,344.54
19:06:24:021,0.801,0.3631,12.3285,31.6385,-0.4561,-0.1035,-0.2187,344.51
19:06:24:039,0.6453,0.4076,12.312,31.7425,-0.3997,0.0892,-0.2384,344.54
19:06:24:059,0.5486,0.5639,11.946,31.9333,-0.2804,0.1978,-0.2501,344.88
19:06:24:079,0.7236,0.5192,11.5331,31.9233,-0.0851,0.2431,-0.2634,345.28
19:06:24:099,1.072,0.2222,10.7703,31.6575,0.1465,0.3192,-0.3081,345.66
19:06:24:120,1.3892,-0.1539,9.2959,31.6433,0.2497,0.3729,-0.397,346.03
19:06:24:139,1.4639,-0.3338,8.2305,31.7903,0.1848,0.2691,-0.4992,346.43
19:06:24:160,1.4057,-0.4161,8.1546,31.7849,0.0725,0.0376,-0.6291,346.83
19:06:24:179,0.911,-0.4983,8.8426,31.7648,-0.0058,-0.1327,-0.7244,347.18
19:06:24:199,0.3684,-0.5518,9.3245,31.7045,-0.0611,-0.0753,-0.7382,347.54
19:06:24:219,-0.2223,-0.3996,9.4389,31.534,-0.0819,0.0802,-0.6733,348.12
19:06:24:240,-0.644,-0.1326,9.0721,31.4499,-0.0452,0.185,-0.5365,348.99
19:06:24:260,-0.7731,0.3042,8.3402,31.5301,0.0123,0.1754,-0.3677,349.95
19:06:24:280,-0.576,0.8167,7.6347,31.7033,0.0166,0.0919,-0.2447,350.79
19:06:24:300,-0.3236,1.3223,7.4333,31.6582,-0.0031,0.003,-0.1984,351.39
19:06:24:320,-0.1237,1.569,7.4692,31.7346,-0.0079,-0.0481,-0.2266,351.72
19:06:24:340,-0.1684,1.608,7.5716,31.7702,-0.0271,-0.062,-0.2778,351.93
19:06:24:360,-0.3662,1.519,7.8396,31.708,-0.0409,-0.0417,-0.3129,352.12
19:06:24:380,-0.5705,1.4502,8.0197,31.7286,-0.0712,-0.0061,-0.3283,352.37
19:06:24:400,-0.7292,1.4253,8.3294,31.6806,-0.1192,0.0227,-0.3374,352.71
19:06:24:419,-0.9429,1.3232,8.7263,31.8926,-0.1564,0.0275,-0.3134,353.09
19:06:24:439,-1.1643,1.2369,9.2202,31.9103,-0.1623,0.078,-0.2213,353.49
19:06:24:460,-1.2366,1.2829,9.5179,31.7314,-0.1356,0.1584,-0.0824,353.87
19:06:24:480,-1.2184,1.4776,9.4305,31.845,-0.1026,0.2606,0.0837,354.26
19:06:24:500,-0.9298,1.8845,9.1185,31.9402,-0.0931,0.3075,0.2285,354.56
19:06:24:519,-0.5396,2.2711,8.9887,31.9146,-0.0851,0.2287,0.3035,354.72
19:06:24:540,-0.308,2.4621,9.2918,32.1681,-0.0787,0.0855,0.3264,354.64
19:06:24:560,-0.1454,2.3413,10.0508,32.0345,-0.0649,-0.0194,0.3179,354.3
19:06:24:580,-0.0968,1.8965,10.8801,32.1576,-0.0601,0.0046,0.2934,353.83
19:06:24:600,-0.2732,1.4904,11.5503,32.003,-0.0686,0.0972,0.3163,353.37
19:06:24:619,-0.2015,1.3971,12.0767,31.9185,-0.0302,0.2622,0.3695,353.03
19:06:24:639,0.1208,1.4948,11.6534,31.8732,-0.0169,0.4656,0.3663,352.76
19:06:24:661,-0.049,1.6271,11.0924,31.7951,-0.0569,0.4421,0.3344,352.52
19:06:24:680,-0.3566,1.5999,11.251,31.5775,-0.0691,0.1611,0.2939,352.24
19:06:24:700,-0.8242,1.3522,12.4121,31.5128,-0.0292,-0.0928,0.2828,351.78
19:06:24:720,-1.2062,0.8127,13.6194,31.1527,0.1161,-0.0172,0.3381,351.16
19:06:24:740,-1.3679,0.0845,13.5091,31.1772,0.3269,0.2223,0.4579,350.63
19:06:24:761,-0.9904,-0.6576,12.1115,31.1933,0.5021,0.3729,0.6144,350.39
19:06:24:783,-0.428,-0.8344,10.5807,31.1072,0.5952,0.2862,0.7273,350.2
19:06:24:800,0.1696,-0.7271,9.407,30.9324,0.5958,0.0487,0.7352,349.79
19:06:24:820,0.5276,-0.5087,9.0645,30.8399,0.4818,-0.2137,0.6538,349
19:06:24:840,0.4299,-0.3678,9.8851,30.5797,0.4148,-0.3771,0.5463,347.97
19:06:24:861,0.2773,-0.3062,10.5385,30.3857,0.4526,-0.3452,0.4691,346.93
19:06:24:880,0.2051,-0.2106,10.4773,30.2545,0.4973,-0.1647,0.4052,346.09
19:06:24:900,0.1661,-0.1123,9.8237,30.0761,0.5201,0.0062,0.3317,345.55
19:06:24:920,0.0566,-0.0542,9.0146,29.997,0.5058,0.0951,0.2806,345.21
19:06:24:940,-0.0789,0.0528,8.3733,29.7208,0.4962,0.0903,0.2567,344.91
19:06:24:960,-0.0381,0.1553,7.8738,29.513,0.4946,0.0999,0.2439,344.59
19:06:24:980,0.0347,0.2771,7.1915,29.4381,0.4696,0.1478,0.2162,344.26
19:06:25:000,0.0293,0.4176,6.4477,29.1731,0.4036,0.1446,0.18,343.97
19:06:25:021,-0.0314,0.61,5.8027,28.9863,0.2705,0.0482,0.1252,343.67
19:06:25:041,-0.193,0.8062,5.7939,28.6527,0.1033,-0.1312,0.0725,343.41
19:06:25:060,-0.2967,0.964,6.4656,28.548,-0.0111,-0.2898,0.0272,343.09
19:06:25:079,-0.3663,1.0644,7.1888,28.3941,-0.0989,-0.2845,-0.0143,342.78
19:06:25:099,-0.5048,1.283,7.7587,28.2512,-0.1884,-0.1801,-0.0324,342.6
19:06:25:120,-0.5235,1.5467,8.1622,28.1484,-0.2235,-0.0934,-0.0371,342.62
19:06:25:139,-0.4349,1.8062,8.2031,27.978,-0.2395,-0.0806,-0.0324,342.75
19:06:25:161,-0.2376,2.0296,8.2156,27.7788,-0.2789,-0.1184,-0.0446,342.88
19:06:25:180,-0.1536,2.2205,8.5435,27.7512,-0.3342,-0.1721,-0.0728,342.94
19:06:25:200,-0.1659,2.3447,9.179,27.9536,-0.356,-0.2158,-0.0994,342.96
19:06:25:219,-0.1508,2.1192,9.7006,28.1679,-0.3789,-0.1887,-0.1154,342.99
19:06:25:239,-0.2619,1.856,10.1098,28.182,-0.4093,-0.194,-0.0744,343.07
19:06:25:259,-0.1414,1.672,10.5824,28.0864,-0.421,-0.2818,0.0113,343.23
19:06:25:279,0.1863,1.5643,11.3004,28.0978,-0.3731,-0.3467,0.0991,343.38
19:06:25:300,0.9994,1.4185,11.1948,28.174,-0.355,-0.2057,0.0805,343.42
19:06:25:320,1.2635,1.0919,10.3755,28.0999,-0.5136,-0.1844,-0.0936,343.4
19:06:25:340,0.7481,0.7293,10.8336,28.2142,-0.7122,-0.4298,-0.2203,343.45
19:06:25:361,0.279,0.3364,12.4841,28.2501,-0.7393,-0.5996,-0.2517,343.37
19:06:25:380,-0.1211,0.2551,13.8708,28.1131,-0.6163,-0.4452,-0.2,343.27
19:06:25:399,-0.1801,0.4376,14.3984,28.1324,-0.33,0.0408,-0.085,343.44
19:06:25:419,0.3668,0.6864,12.4591,28.2321,0.0059,0.597,-0.0031,343.92
19:06:25:439,1.055,0.8201,9.5603,28.2811,0.2018,0.605,-0.019,344.62
19:06:25:459,1.9032,0.8669,7.693,28.192,0.171,0.1488,-0.1809,345.22
19:06:25:479,2.0916,0.9551,8.0045,28.0344,0.007,-0.4197,-0.4907,345.24
19:06:25:500,1.5327,0.6669,9.8039,28.093,-0.1101,-0.5826,-0.8175,344.89
19:06:25:520,0.4452,0.0505,11.3773,28.1408,-0.1681,-0.2584,-0.9927,344.65
19:06:25:539,-0.7324,-0.4445,11.6809,28.4735,-0.0803,0.2782,-0.9213,345.12
19:06:25:560,-1.4342,-0.5046,10.2535,28.4848,0.0783,0.5598,-0.668,346.34
19:06:25:580,-1.3918,-0.0758,8.4823,28.5418,0.1805,0.4821,-0.3778,347.91
19:06:25:600,-0.9565,0.5354,7.4103,28.3556,0.2072,0.2335,-0.1761,349.17
19:06:25:620,-0.509,0.9973,7.1053,28.6434,0.1976,0.0727,-0.0744,349.84
19:06:25:640,-0.1321,1.3356,6.9575,28.7261,0.1598,0.0504,-0.0505,350.04
19:06:25:661,0.0008,1.5982,6.8612,29.0098,0.1071,0.0525,-0.0787,350.09
19:06:25:681,-0.0226,1.6636,6.8193,29.1446,0.048,0.0237,-0.1218,350.15
19:06:25:700,-0.0912,1.611,6.9545,29.149,-0.0223,-0.0476,-0.158,350.19
19:06:25:720,-0.2466,1.5567,7.5052,28.9351,-0.083,-0.137,-0.1867,350.25
19:06:25:739,-0.3336,1.4726,8.1762,28.9688,-0.1282,-0.1312,-0.2054,350.33
19:06:25:759,-0.5081,1.4015,8.9313,28.8245,-0.1506,-0.0465,-0.1968,350.44
19:06:25:779,-0.7601,1.3596,9.4603,28.8862,-0.1197,0.0972,-0.1356,350.66
19:06:25:847,-0.9075,1.4474,9.5263,28.749,-0.0601,0.2633,-0.0164,350.97
19:06:25:848,-0.6259,1.7934,9.0068,28.7297,-0.0287,0.4033,0.0938,351.31
19:06:25:848,-0.3101,2.2346,8.4152,28.7023,-0.0361,0.4028,0.1343,351.58
19:06:25:864,-0.1956,2.4546,8.3588,28.6139,-0.068,0.2281,0.1252,351.68
19:06:25:880,-0.413,2.2954,9.125,28.6057,-0.1005,0.0227,0.1193,351.54
19:06:25:899,-0.5444,1.8692,10.2858,28.4877,-0.1117,-0.0508,0.1481,351.21
19:06:25:925,-0.6302,1.5121,11.3344,28.3257,-0.1314,-0.0439,0.1859,350.9
19:06:25:938,-0.6487,1.158,12.2613,28.2906,-0.1479,-0.0305,0.2162,350.7
19:06:25:961,-0.9514,0.9668,13.3114,28.1848,-0.1202,-0.1104,0.286,350.54
19:06:25:981,-1.1826,1.0829,14.5446,28.0611,-0.0042,-0.1572,0.4281,350.33
19:06:25:999,-1.1424,1.3436,15.098,27.9401,0.131,-0.079,0.5399,350.03
19:06:26:019,-1.0827,1.4725,15.0981,27.7227,0.2615,0.0408,0.6155,349.69
19:06:26:039,-0.9011,1.3345,14.8876,27.6643,0.4712,0.2042,0.6735,349.29
19:06:26:059,-0.432,0.7905,13.6238,27.6808,0.7384,0.5422,0.6852,348.78
19:06:26:082,0.0418,0.1405,10.7107,27.5795,0.8411,0.8563,0.6783,348.23
19:06:26:099,0.3857,-0.3003,7.9118,27.3908,0.7336,0.7754,0.6767,347.73
19:06:26:120,0.4198,-0.2994,6.5085,27.3201,0.5627,0.3048,0.6788,347.13
19:06:26:140,0.4348,-0.0427,6.6857,27.3884,0.3988,-0.3286,0.6384,346.18
19:06:26:161,0.4796,0.1054,7.8456,27.2976,0.2135,-0.623,0.5383,344.93
19:06:26:179,0.4565,0.1402,9.1312,27.2514,0.0384,-0.4995,0.4169,343.64
19:06:26:199,0.0948,0.131,10.1168,27.139,0.0187,-0.1796,0.3296,342.73
19:06:26:220,-0.2796,0.032,9.9955,27.1849,0.2061,0.0977,0.327,342.28
19:06:26:239,-0.3819,0.0634,8.6417,27.2307,0.3743,0.1866,0.3844,342.13
19:06:26:259,-0.2472,0.3371,7.343,27.2052,0.3775,0.0567,0.4228,342.03
19:06:26:285,0.0025,0.5716,7.0409,27.4702,0.3216,-0.128,0.402,341.74
19:06:26:299,0.3164,0.7251,7.2465,27.6132,0.2849,-0.1753,0.3291,341.18
19:06:26:319,0.4782,0.8522,7.0283,27.4668,0.2189,-0.1067,0.2104,340.55
19:06:26:339,0.3711,0.9725,6.7801,27.405,0.0906,-0.0891,0.072,340.09
19:06:26:360,0.2217,1.0116,6.8498,27.5105,-0.0308,-0.1061,-0.0483,339.8
19:06:26:383,0.0319,1.0095,7.0531,27.9432,-0.1202,-0.1594,-0.1378,339.57
19:06:26:399,-0.2007,1.015,7.3439,27.9328,-0.1889,-0.2334,-0.1851,339.48
19:06:26:419,-0.3712,1.1227,7.7369,28.1623,-0.2538,-0.2802,-0.199,339.51
19:06:26:439,-0.4418,1.3447,8.343,28.2752,-0.2916,-0.3084,-0.1819,339.63
19:06:26:460,-0.3418,1.6198,8.9584,28.1969,-0.2772,-0.2573,-0.1606,339.83
19:06:26:482,-0.2007,1.9725,9.1781,28.24,-0.2698,-0.1652,-0.1857,340.08
19:06:26:499,-0.1288,2.0791,9.133,28.6407,-0.3071,-0.0992,-0.2389,340.38
