Time,Acc_X,Acc_Y,Acc_Z,Meg,Gyr_X,Gyr_Y,Gyr_Z,Ore
19:01:19:659,-0.407,0.6128,9.5518,46.2247,0.0753,-0.2429,-0.1128,357.34
19:01:19:681,-0.6029,0.4328,9.7188,46.4133,0.071,-0.1588,-0.0452,136.48
19:01:19:702,-0.5377,0.5318,9.6918,46.3254,0.0944,-0.1013,0.0091,136.67
19:01:19:725,-0.4478,0.6478,9.5753,46.5646,0.0923,-0.0741,0.0304,136.68
19:01:19:741,-0.3692,0.7009,9.4889,46.5059,0.0614,-0.0497,0.0437,136.73
19:01:19:761,-0.2998,0.7357,9.4406,46.497,0.0273,-0.0417,0.0544,136.79
19:01:19:782,-0.2159,0.8133,9.4482,46.5941,0.0013,-0.0342,0.057,136.81
19:01:19:801,-0.1286,0.86,9.4592,46.5392,-0.0072,-0.0299,0.0432,136.81
19:01:19:825,-0.0827,0.8409,9.5273,46.5299,-0.0003,-0.0624,0.0198,136.81
19:01:19:841,-0.0876,0.7895,9.6756,46.5824,0.0263,-0.0661,0.0059,136.81
19:01:19:862,-0.0315,0.7832,9.6308,46.5336,0.0364,-0.0614,0.0027,136.85
19:01:19:881,-0.024,0.7789,9.7212,46.4877,0.021,-0.0257,-0.0079,136.89
19:01:19:901,-0.0684,0.7671,9.5766,46.3917,0.0023,0.0254,-0.0058,136.94
19:01:19:924,-0.0874,0.7865,9.5047,46.4763,-0.0237,0.0009,-0.0047,136.96
19:01:19:942,-0.0665,0.7549,9.6191,46.5689,-0.0157,-0.0007,0.0113,136.98
19:01:19:961,0.0847,0.8409,9.5007,46.2924,0.0007,-0.0065,0.0262,136.96
19:01:19:981,0.2762,0.9742,9.4916,46.2132,-0.0072,-0.0236,0.0038,136.92
19:01:20:001,0.3411,0.9595,9.5841,46.1304,-0.0083,0.0158,-0.0334,136.93
19:01:20:023,0.2358,0.9241,9.3835,46.0818,-0.0142,0.0318,-0.0542,136.97
19:01:20:041,0.1798,0.8347,9.3806,46.0394,-0.0376,-0.0034,-0.076,137.02
19:01:20:061,0.0138,0.7313,9.5952,46.0852,-0.0487,-0.0108,-0.059,137.1
19:01:20:081,-0.0349,0.7168,9.6768,46.0925,-0.0392,-0.0028,-0.0324,137.17
19:01:20:102,-0.0558,0.7809,9.6754,46.0021,-0.0376,0.0174,0.0054,137.21
19:01:20:121,0.0349,0.9182,9.576,45.8261,-0.0285,0.0142,0.0251,137.19
19:01:20:143,0.0616,1.0095,9.5742,46.0184,-0.0269,-0.006,0.0139,137.16
19:01:20:161,0.0303,1.0179,9.5706,46.005,-0.0216,0.0068,0.0086,137.14
19:01:20:182,0.0154,1.0419,9.5083,46.0607,-0.028,0.0004,0.0033,137.12
19:01:20:201,-0.0096,1.0165,9.6478,45.7926,-0.0472,-0.0459,-0.018,137.11
19:01:20:226,-0.0639,0.9147,9.9966,45.8064,-0.0498,-0.0528,-0.034,137.13
19:01:20:241,-0.2088,0.7848,10.2159,45.7182,-0.0221,0.0025,-0.0356,137.17
19:01:20:262,-0.3424,0.7276,10.018,45.6281,0.0359,0.1036,-0.0036,137.21
19:01:20:281,-0.4414,0.7751,9.384,45.5087,0.0651,0.1265,0.0171,137.2
19:01:20:301,-0.4963,0.802,9.01,45.6398,0.0428,0.036,0.0065,137.18
19:01:20:325,-0.5115,0.69,9.2095,45.6261,-0.0078,-0.0438,-0.0153,137.18
19:01:20:342,-0.6336,0.4499,9.6514,45.6829,-0.0344,-0.0204,0.0001,137.2
19:01:20:361,-0.7158,0.3162,9.784,45.8548,-0.0227,0.0323,0.0496,137.21
19:01:20:381,-0.6134,0.3662,9.6993,46.1142,0.0119,0.0595,0.1012,137.16
19:01:20:402,-0.3687,0.5509,9.4513,46.2403,0.0327,0.0302,0.1071,137.04
19:01:20:425,-0.127,0.6782,9.3712,46.2894,0.0172,-0.0034,0.0751,136.92
19:01:20:441,-0.0043,0.6762,9.395,46.3251,-0.0237,0.0041,0.0288,136.84
19:01:20:461,-0.0539,0.6097,9.4214,46.6258,-0.0605,0.0403,0.0091,136.8
19:01:20:481,-0.0779,0.6165,9.3405,46.4402,-0.0935,0.0696,0.0017,136.79
19:01:20:502,-0.124,0.6282,9.3583,46.4919,-0.1185,0.0674,-0.0127,136.77
19:01:20:521,-0.2607,0.5264,9.3808,46.4887,-0.1142,0.0238,-0.0132,136.78
19:01:20:541,-0.3075,0.4118,9.5539,46.2521,-0.0967,-0.0443,0.0203,136.79
19:01:20:561,-0.1704,0.4419,9.7294,46.3489,-0.085,-0.0401,0.0624,136.77
19:01:20:582,0.0041,0.5857,9.6653,46.3521,-0.0892,0.0121,0.0751,136.7
19:01:20:601,0.1153,0.7271,9.4173,46.4036,-0.1094,0.0046,0.0576,136.62
19:01:20:621,0.234,0.8071,9.4226,46.371,-0.1137,-0.0598,0.015,136.56
19:01:20:641,0.2332,0.7884,9.5066,46.2024,-0.0951,-0.0912,-0.0398,136.56
19:01:20:662,0.1424,0.6548,9.3697,46.1298,-0.0956,-0.0864,-0.0734,136.61
19:01:20:681,0.0042,0.5778,9.3153,45.9565,-0.1249,-0.0805,-0.0734,136.7
19:01:20:701,-0.0938,0.5296,9.3826,45.9812,-0.1483,-0.0816,-0.0691,136.79
19:01:20:721,-0.1473,0.489,9.4857,45.8811,-0.1696,-0.0992,-0.0734,136.87
19:01:20:742,-0.2333,0.4373,9.735,45.878,-0.2053,-0.1258,-0.0851,136.97
19:01:20:761,-0.3492,0.2758,10.1638,45.8119,-0.2228,-0.1465,-0.0899,137.06
19:01:20:781,-0.4767,0.1701,10.429,45.7311,-0.1808,-0.1205,-0.0611,137.17
19:01:20:801,-0.5285,0.1439,10.2927,45.6006,-0.0903,-0.0672,-0.0026,137.25
19:01:20:826,-0.4534,0.2707,9.8761,45.6961,-0.0014,-0.0092,0.0693,137.25
19:01:20:845,-0.2446,0.478,9.37,45.8219,0.0295,-0.0294,0.0858,137.17
19:01:20:861,-0.1091,0.5324,9.2576,45.8176,0.0023,-0.1444,0.0528,137.08
19:01:20:881,-0.0765,0.3736,9.5461,45.9179,-0.0339,-0.2296,0.016,137.02
19:01:20:902,0.1422,0.1546,9.6971,46.0826,-0.0541,-0.2599,-0.026,137.01
19:01:20:921,0.3411,0.3035,9.6253,46.0481,-0.0658,-0.2807,-0.1298,137.05
19:01:20:941,0.3995,0.3566,9.3439,45.9151,-0.0828,-0.2796,-0.2496,137.21
19:01:20:961,0.3281,0.2874,9.4688,45.9506,-0.1297,-0.2099,-0.3305,137.5
19:01:20:982,0.018,0.0356,10.0422,45.9141,-0.1206,0.0169,-0.3358,137.88
19:01:21:001,-0.2144,-0.3016,10.3961,45.9311,-0.0237,0.2644,-0.3092,138.27
19:01:21:021,-0.3558,-0.5969,10.0666,45.8336,0.063,0.3214,-0.2538,138.62
19:01:21:041,-0.7929,-1.0367,9.5175,45.8935,0.0407,0.323,-0.1042,138.9
19:01:21:062,0.0107,-0.6429,9.1772,45.5784,-0.0381,0.4326,0.0134,139.01
19:01:21:081,-0.3811,0.3734,9.2464,45.5897,-0.0237,0.4273,0.0113,138.98
19:01:21:102,-0.724,0.6926,9.1652,45.6333,0.0662,0.283,-0.0212,138.96
19:01:21:121,-0.7288,0.5621,8.8917,45.5512,0.1216,0.0792,-0.0175,138.97
19:01:21:142,-0.7805,0.6255,8.8222,45.4594,0.0843,-0.0177,0.0272,138.99
19:01:21:161,-0.7489,0.8172,8.891,45.5495,0.0002,-0.0278,0.0671,138.95
19:01:21:181,-0.5936,1.0602,8.9051,45.397,-0.0658,-0.0997,0.0767,138.88
19:01:21:201,-0.4919,1.1864,9.0301,45.6107,-0.1153,-0.2998,0.0299,138.79
19:01:21:222,-0.3826,0.9802,10.1325,45.6328,-0.1355,-0.3547,-0.0473,138.76
19:01:21:241,-0.3966,0.4416,10.9961,45.8691,-0.0498,-0.0502,-0.0521,138.82
19:01:21:261,-0.8187,0.3622,10.9557,45.7812,0.0423,0.2191,0.0027,138.88
19:01:21:281,-1.143,0.4771,10.1859,45.4919,0.0406,0.2154,0.1033,138.87
19:01:21:302,-1.0152,0.6258,9.5466,45.4879,-0.0578,0.1728,0.188,138.74
19:01:21:321,-0.7899,0.8053,9.2325,45.3197,-0.1632,0.1973,0.2396,138.51
19:01:21:341,-0.5538,0.8967,9.2387,45.3271,-0.1275,0.1595,0.2673,138.23
19:01:21:361,-0.4189,1.0089,9.0017,45.47,0.0093,0.0515,0.2657,137.92
19:01:21:382,-0.3314,1.1457,8.7406,45.3105,0.0987,-0.1002,0.2449,137.61
19:01:21:401,-0.1636,1.2231,8.8469,45.352,0.0901,-0.2157,0.1986,137.32
19:01:21:421,-0.0552,1.1654,9.1261,45.2925,0.0162,-0.2381,0.1374,137.1
19:01:21:441,-0.0966,1.0657,9.386,45.4605,-0.0733,-0.2024,0.0975,136.94
19:01:21:462,-0.108,1.0509,9.5978,45.6817,-0.1691,-0.1604,0.0837,136.83
19:01:21:481,0.0036,0.9886,9.8061,45.7443,-0.2468,-0.0997,0.0826,136.73
19:01:21:501,0.1214,0.9811,9.9395,46.0595,-0.2441,-0.0007,0.0911,136.64
19:01:21:521,0.0969,0.9406,9.75,46.0956,-0.1675,0.0536,0.1161,136.53
19:01:21:542,-0.013,0.9743,9.7523,46.2034,-0.0482,-0.0119,0.1582,136.39
19:01:21:561,0.0313,1.0374,9.7911,46.2771,0.0987,-0.0965,0.2018,136.21
19:01:21:581,0.0665,1.2193,9.6203,46.3032,0.1929,-0.1907,0.2423,135.97
19:01:21:601,0.2449,1.4727,9.4877,46.3198,0.2296,-0.2472,0.237,135.69
19:01:21:622,0.5725,1.6886,9.3846,46.2249,0.2179,-0.2487,0.1619,135.41
19:01:21:690,0.9196,1.7853,9.1144,46.3835,0.1572,-0.236,0.0118,135.24
19:01:21:695,0.967,1.8568,9.1669,46.2825,0.0609,-0.2253,-0.2341,135.23
19:01:21:695,-0.2327,1.9439,9.3422,46.2768,0.0353,-0.3244,-0.2134,135.5
19:01:21:703,0.1018,1.4923,9.6787,46.3469,0.0444,-0.3568,-0.1346,135.76
19:01:21:721,0.2817,1.3829,9.8296,46.2922,0.0257,-0.3116,-0.141,135.92
19:01:21:741,0.3531,1.3067,10.0519,46.5136,-0.0605,-0.3786,-0.1628,136.1
19:01:21:762,0.5618,0.9596,10.545,46.5029,-0.1941,-0.5378,-0.2309,136.3
19:01:21:782,0.6811,0.3827,11.5681,46.5903,-0.2947,-0.517,-0.3209,136.58
19:01:21:802,0.309,-0.3379,12.012,46.781,-0.2234,-0.1583,-0.2741,136.97
19:01:21:821,0.0916,-0.5389,10.928,46.765,-0.0546,0.1382,-0.0638,137.29
19:01:21:842,0.6477,-0.1385,9.6576,47.1444,0.0396,0.11,0.0794,137.36
19:01:21:862,1.4811,0.2133,9.0988,47.4354,-0.0174,-0.1636,0.0336,137.26
19:01:21:881,1.7657,0.3597,9.8291,47.4005,-0.118,-0.5197,-0.1846,137.23
19:01:21:901,1.5016,0.0702,11.2022,47.639,-0.1595,-0.5335,-0.3731,137.46
19:01:21:921,1.1281,-0.325,11.6144,47.7011,-0.1339,-0.1609,-0.4135,137.9
19:01:21:942,0.8394,-0.5288,11.0683,47.8535,-0.0184,0.0967,-0.3576,138.38
19:01:21:961,0.7242,-0.4979,10.3721,47.9896,0.1556,0.0483,-0.2783,138.79
19:01:21:981,1.0335,-0.3705,9.8249,48.102,0.3244,-0.0917,-0.2352,139.11
19:01:22:001,1.5042,-0.2776,9.2081,48.339,0.351,-0.2003,-0.2783,139.38
19:01:22:022,1.7856,-0.3189,9.1935,48.3261,0.2317,-0.1838,-0.3784,139.71
19:01:22:043,1.7136,-0.5584,9.482,48.2436,0.1104,-0.0992,-0.4859,140.16
19:01:22:061,1.4016,-0.8158,9.8448,48.4221,0.0486,0.002,-0.5163,140.72
19:01:22:081,1.0752,-0.9424,9.9527,48.4169,0.0502,0.0525,-0.446,141.31
19:01:22:102,0.6393,-0.7663,9.8151,48.4143,0.071,0.126,-0.3001,141.82
19:01:22:121,1.0516,-0.6288,9.4895,48.4708,0.1423,0.2133,-0.1735,142.16
19:01:22:141,1.2204,-0.0563,8.9061,48.6368,0.2259,0.1973,-0.1516,142.34
19:01:22:161,1.4396,0.4498,8.4591,48.5345,0.2504,0.1303,-0.2192,142.5
19:01:22:182,1.5742,0.6755,8.0671,48.4304,0.1775,0.1137,-0.3342,142.74
19:01:22:201,1.4475,0.6698,7.7197,48.504,0.0028,0.1627,-0.4407,143.12
19:01:22:221,1.1466,0.5564,7.6651,48.4853,-0.217,0.1648,-0.503,143.61
19:01:22:241,0.7588,0.5414,8.0985,48.3256,-0.3799,-0.0789,-0.487,144.17
19:01:22:262,0.7316,0.4539,8.6578,48.4157,-0.4278,-0.2716,-0.4199,144.74
19:01:22:281,1.0748,0.3214,9.1454,48.4518,-0.357,-0.2924,-0.4178,145.23
19:01:22:301,1.0908,0.2605,9.5399,48.376,-0.2356,-0.1599,-0.4258,145.73
19:01:22:321,1.1254,0.2782,9.402,48.2076,-0.1254,0.0568,-0.3976,146.23
19:01:22:342,1.0512,0.2954,9.1379,48.2039,-0.0898,0.2021,-0.3645,146.68
19:01:22:361,0.8947,0.3115,8.9324,48.049,-0.1334,0.241,-0.2932,147.09
19:01:22:381,0.8089,0.4521,8.8831,48.0539,-0.2058,0.3016,-0.199,147.42
19:01:22:401,0.7849,0.6019,8.8416,48.0018,-0.2622,0.3735,-0.1213,147.63
19:01:22:422,0.6844,0.7825,8.8995,47.9385,-0.258,0.3464,-0.043,147.76
19:01:22:441,0.5705,0.9663,9.0991,47.7447,-0.193,0.2953,0.0384,147.79
19:01:22:461,0.5627,1.1778,9.2603,47.4245,-0.0892,0.2399,0.0964,147.74
19:01:22:482,0.575,1.4155,9.3461,47.4687,0.0263,0.1755,0.1049,147.62
19:01:22:502,0.4369,1.5136,9.4506,47.5163,0.1072,0.1308,0.0916,147.5
19:01:22:521,0.1307,1.3641,9.6365,47.453,0.1567,0.1829,0.1214,147.39
19:01:22:543,-0.2291,1.2318,9.6885,47.7965,0.1918,0.2245,0.2141,147.24
19:01:22:561,-0.2705,1.1721,9.7534,47.8125,0.235,0.2197,0.3248,146.99
19:01:22:582,-0.2548,1.1835,9.5795,47.8931,0.2695,0.16,0.3903,146.61
19:01:22:601,-0.2809,1.1724,9.4447,47.9928,0.2573,0.0488,0.4275,146.15
19:01:22:621,-0.2378,1.1446,9.819,48.4127,0.1993,0.0185,0.4632,145.66
19:01:22:643,0.0547,0.99,10.2223,48.8546,0.096,0.0797,0.4728,145.12
19:01:22:662,0.0639,0.7752,10.7963,49.0191,-0.0067,0.2069,0.476,144.57
19:01:22:681,-0.0247,0.498,11.1579,49.2583,-0.0424,0.3895,0.5042,144.01
19:01:22:701,-0.2109,0.3576,11.0922,49.5477,-0.0381,0.521,0.5404,143.41
19:01:22:721,-0.4052,0.3725,10.7042,49.7233,-0.0307,0.4603,0.5707,142.76
19:01:22:742,-0.497,0.3704,10.6725,50.0411,-0.0264,0.315,0.5356,142.08
19:01:22:761,-0.6421,0.2704,11.1778,50.4759,0.039,0.25,0.4872,141.44
19:01:22:781,-0.8559,0.1435,11.1002,50.7591,0.1274,0.3283,0.4627,140.87
19:01:22:801,-1.1485,0.0373,10.4917,50.9215,0.1721,0.4188,0.4792,140.32
19:01:22:821,-1.2948,0.0116,9.9278,51.0602,0.2126,0.3756,0.5281,139.74
19:01:22:844,-1.2176,0.1211,9.669,51.2868,0.2301,0.1627,0.5409,139.1
19:01:22:861,-1.0557,0.174,9.9566,51.484,0.2477,-0.0103,0.4877,138.47
19:01:22:881,-1.0892,0.0907,10.0418,52.1526,0.2504,0.0323,0.4249,137.91
19:01:22:902,-1.1696,-0.0553,9.7483,52.2694,0.2041,0.1718,0.4089,137.42
19:01:22:921,-1.24,-0.04,9.3023,52.5377,0.1322,0.2202,0.4408,136.93
19:01:22:944,-1.1645,0.0995,9.0362,52.9941,0.0625,0.1004,0.4579,136.4
19:01:22:961,-1.0807,0.1983,8.9788,53.4364,0.0124,-0.0246,0.444,135.87
19:01:22:982,-1.1242,0.1745,8.7806,53.5919,-0.0328,-0.0369,0.4318,135.36
19:01:23:001,-1.1284,0.2056,8.6257,53.9388,-0.0775,-0.0257,0.4568,134.86
19:01:23:022,-1.099,0.2238,8.7021,54.3132,-0.0296,-0.1098,0.4994,134.34
19:01:23:044,-0.9534,0.092,8.6403,54.8467,0.0768,-0.2003,0.5792,133.78
19:01:23:062,-0.654,0.2446,8.5735,54.8544,0.1423,-0.1748,0.6676,133.13
19:01:23:081,-0.1926,0.7089,8.1917,55.4613,0.0965,-0.1306,0.6692,132.38
19:01:23:101,0.3012,1.0974,8.0131,55.8237,-0.0131,-0.2024,0.5383,131.63
19:01:23:121,0.4427,1.2352,8.0625,56.1189,-0.1558,-0.3004,0.3583,131.03
19:01:23:144,0.5196,1.1815,8.4954,56.4047,-0.2718,-0.3286,0.2237,130.65
19:01:23:161,0.5969,1.1418,8.9498,56.8568,-0.2654,-0.3494,0.1215,130.42
19:01:23:181,0.6754,1.1162,9.1013,57.2957,-0.2457,-0.2876,0.0352,130.31
19:01:23:202,0.726,1.3604,9.0604,57.7135,-0.2388,-0.178,-0.0483,130.3
19:01:23:222,1.0308,1.737,8.762,57.9189,-0.266,-0.088,-0.2011,130.36
19:01:23:244,1.1531,2.0073,8.9085,58.2209,-0.2409,-0.1157,-0.4125,130.6
19:01:23:261,1.0417,1.9067,9.3815,58.4196,-0.0626,-0.195,-0.595,131.07
19:01:23:281,0.6988,1.7902,9.6992,58.6043,0.2094,-0.236,-0.7015,131.77
19:01:23:302,0.7624,1.554,9.9702,58.5932,0.4425,-0.2126,-0.8,132.58
19:01:23:321,0.2693,1.3282,10.089,58.8634,0.5463,-0.2237,-0.7872,133.51
19:01:23:345,-0.2905,1.0613,10.0293,59.0327,0.3851,-0.0215,-0.6195,134.43
19:01:23:361,-1.0776,0.0544,9.557,59.2186,-0.2005,0.1419,-0.2448,135.13
19:01:23:381,-1.4476,-0.6959,10.2617,59.3703,-0.8457,0.2271,0.1608,135.4
19:01:23:401,-1.23,-0.5996,10.8126,59.4784,-1.0666,0.2378,0.4195,135.19
19:01:23:421,-0.1392,-0.5106,10.6517,59.646,-1.1039,-0.2371,0.5021,134.69
19:01:23:444,1.456,-0.1724,11.0653,59.9541,-1.0937,-0.5128,0.303,134.13
19:01:23:462,1.9721,-0.1318,11.8123,60.3998,-1.0272,-0.6917,-0.0808,133.79
19:01:23:481,1.4913,-0.7169,12.6769,60.7994,-0.8696,-1.0792,-0.4045,133.87
19:01:23:501,0.4054,-1.8207,14.5962,61.1748,-0.554,-0.8343,-0.4029,134.3
19:01:23:521,0.2156,-2.2398,14.5893,61.6275,0.0571,-0.0885,-0.0356,134.72
19:01:23:545,1.2795,-1.437,12.0377,61.9286,0.6283,0.5311,0.2056,134.76
19:01:23:561,2.3506,-0.2862,8.5648,62.462,0.8109,0.5721,0.0608,134.55
19:01:23:581,2.8577,0.1083,6.8441,62.7288,0.5735,0.4156,-0.3763,134.49
19:01:23:601,1.6527,-0.3665,7.2066,63.1077,0.2403,0.2404,-0.7494,134.93
19:01:23:622,0.0451,-0.957,8.7234,63.1795,0.1173,0.0999,-0.7414,135.83
19:01:23:645,-0.7811,-1.3791,9.8073,63.0148,0.22,0.1223,-0.4939,136.64
19:01:23:661,-0.8483,-1.281,9.5702,63.0779,0.4303,0.1116,-0.1745,137.21
19:01:23:681,-0.3956,-0.6663,8.6049,62.8058,0.5841,-0.0348,0.0837,137.4
19:01:23:755,0.4745,0.2518,7.4625,62.6041,0.6182,-0.2791,0.1608,137.3
19:01:23:755,0.8303,0.8538,6.9026,62.5273,0.5181,-0.5676,0.056,137.14
19:01:23:756,0.3785,0.6667,7.2188,62.3887,0.4234,-0.8205,0.0006,137.1
19:01:23:764,0.2257,0.3976,7.9696,62.5275,0.5128,-0.9674,0.065,137.16
19:01:23:781,0.8606,0.6869,8.5456,62.6299,0.6225,-0.7891,0.0544,137.15
19:01:23:801,1.7159,1.4978,8.3153,62.9536,0.5219,-0.4127,-0.1042,137.16
19:01:23:821,1.9641,1.9231,7.9615,63.3874,0.2323,-0.0257,-0.3118,137.32
19:01:23:841,1.5962,1.7721,7.9328,63.8336,-0.0397,0.2314,-0.4396,137.68
19:01:23:862,1.0121,1.3336,8.5361,64.355,-0.1345,0.2245,-0.4598,138.16
19:01:23:881,0.4408,0.6815,9.0853,64.8282,-0.061,0.2143,-0.3677,138.66
19:01:23:902,0.703,1.0026,9.3809,65.176,0.0486,0.3506,-0.2575,139.06
19:01:23:921,0.788,1.969,8.8789,65.5182,0.0896,0.4885,-0.1564,139.32
19:01:23:945,0.9756,2.5215,8.6052,65.6408,0.0486,0.455,-0.1474,139.44
19:01:23:961,1.005,2.6335,8.8549,65.9183,0.0465,0.415,-0.1947,139.56
19:01:23:981,0.8037,2.5324,9.2882,65.8629,0.0928,0.3506,-0.2171,139.73
19:01:24:001,0.5429,2.2558,9.6605,65.9618,0.1104,0.1451,-0.2022,139.94
19:01:24:021,0.5066,1.6768,10.7149,65.849,0.1471,-0.1769,-0.1782,140.15
19:01:24:041,0.5159,0.9169,12.347,65.841,0.3323,-0.1529,-0.1362,140.38
19:01:24:061,0.5929,0.7428,12.2784,65.8099,0.5245,0.2245,-0.0893,140.55
19:01:24:081,0.4259,0.9417,11.3033,65.7798,0.524,0.3432,-0.0276,140.63
19:01:24:102,0.3684,1.1961,10.5265,65.7224,0.3073,0.2878,0.0624,140.61
19:01:24:121,0.2526,1.3404,10.6959,65.8246,0.0257,0.1611,0.1363,140.49
19:01:24:141,-0.0385,1.0469,11.7876,65.8305,-0.1105,-0.0513,0.2476,140.31
19:01:24:161,-0.2326,0.5239,13.0115,66.1258,0.0422,-0.2498,0.3929,140.04
19:01:24:182,0.1608,0.1254,13.0607,66.4293,0.3632,-0.1098,0.5042,139.63
19:01:24:201,0.8871,0.1392,11.131,66.8156,0.5011,0.3261,0.5265,139.08
19:01:24:221,1.2388,0.4627,8.6966,67.1191,0.2946,0.53,0.4169,138.42
19:01:24:241,0.9751,0.6677,7.9055,67.435,-0.0142,0.3192,0.2535,137.86
19:01:24:262,0.6421,0.7021,8.4086,67.6266,-0.2239,-0.03,0.114,137.51
19:01:24:281,0.3087,0.619,9.3262,68.0671,-0.3229,-0.244,-0.0031,137.39
19:01:24:301,0.0006,0.4502,10.0223,68.2111,-0.34,-0.203,-0.059,137.44
19:01:24:321,-0.1585,0.3528,9.9013,68.2179,-0.3267,0.0344,-0.042,137.54
19:01:24:342,-0.2079,0.3796,9.386,68.2377,-0.2995,0.2426,0.0118,137.58
19:01:24:361,-0.0665,0.5653,8.8469,68.2636,-0.2335,0.3086,0.0224,137.54
19:01:24:381,-0.0882,0.746,8.631,68.0717,-0.1419,0.299,-0.01,137.47
19:01:24:401,-0.2567,0.5974,8.5228,67.9698,-0.0227,0.3325,-0.035,137.44
19:01:24:422,-0.5291,0.5612,8.1623,67.8379,0.0822,0.3485,-0.0175,137.43
19:01:24:443,-0.7811,0.5177,7.8579,67.7349,0.154,0.2835,0.0485,137.4
19:01:24:463,-0.8689,0.601,7.569,67.5551,0.1652,0.1973,0.1449,137.31
19:01:24:481,-0.7609,0.9447,7.4661,67.3515,0.096,0.0653,0.2412,137.12
19:01:24:502,-0.3291,1.4013,7.6532,67.46,0.03,-0.1386,0.2513,136.84
19:01:24:521,-0.2914,1.669,7.8255,67.2831,-0.0956,-0.2818,0.1475,136.57
19:01:24:541,-0.4466,1.6993,8.4912,67.0427,-0.258,-0.3073,0.164,136.45
19:01:24:561,-0.1978,1.6422,9.6147,67.0031,-0.3016,-0.1721,0.2013,136.31
19:01:24:582,-0.0054,1.7635,10.1084,66.9062,-0.2159,0.0573,0.2141,136.11
19:01:24:602,0.2998,1.9667,10.0099,66.7637,-0.0919,0.1893,0.1837,135.86
19:01:24:621,0.4967,2.0005,9.639,66.5957,-0.0184,0.1595,0.1108,135.63
19:01:24:641,0.4309,1.9019,9.5205,66.5163,-0.0307,-0.0417,0.0421,135.48
19:01:24:662,0.0828,1.5027,10.0456,66.6724,-0.0818,-0.2828,0.0384,135.44
19:01:24:681,-0.0331,1.0051,11.1368,66.587,-0.0616,-0.3068,0.147,135.44
19:01:24:701,0.3376,0.9199,11.6413,66.5566,0.0465,-0.1577,0.2625,135.31
19:01:24:721,1.3668,1.0041,11.2458,66.7097,0.1359,-0.0082,0.2311,135.04
19:01:24:741,2.2343,1.2401,9.882,66.8404,-0.0504,-0.0257,-0.0659,134.78
19:01:24:761,1.5854,1.3942,9.5505,66.7351,-0.5178,-0.3249,-0.4912,134.86
19:01:24:781,0.0131,0.4141,11.5719,66.6556,-0.7376,-0.3951,-0.6813,135.46
19:01:24:801,-1.0303,-1.0091,12.7491,66.5177,-0.5827,-0.1029,-0.5168,136.29
19:01:24:822,-0.9072,-1.5273,12.0288,66.2529,-0.3086,0.0216,-0.1607,136.89
19:01:24:841,0.1105,-0.9065,11.2715,66.0082,-0.0882,-0.2535,0.0698,137.08
19:01:24:861,1.5021,-0.1891,11.1899,65.8613,0.0672,-0.3339,0.0129,137.02
19:01:24:881,2.528,-0.1072,10.5683,65.7022,0.112,-0.0481,-0.2714,137.04
19:01:24:902,2.2918,-0.4325,9.4004,65.1369,0.0401,0.1734,-0.5785,137.37
19:01:24:921,1.2768,-0.7645,8.6046,64.7984,-0.0791,0.0759,-0.6733,137.99
19:01:24:941,0.5809,-0.8943,8.5686,64.716,-0.1819,-0.1332,-0.586,138.76
19:01:24:961,0.3235,-0.656,8.8425,64.4712,-0.2186,-0.2498,-0.4556,139.45
19:01:24:982,0.17,-0.1117,8.8872,64.5826,-0.2143,-0.2887,-0.3246,139.99
19:01:25:001,0.2402,0.5204,8.9277,64.1215,-0.1696,-0.294,-0.2229,140.39
19:01:25:021,0.3989,1.0179,8.807,63.822,-0.0903,-0.244,-0.1889,140.67
19:01:25:041,0.3768,1.3363,8.4225,63.4364,-0.0051,-0.1822,-0.1788,140.91
19:01:25:061,0.4676,1.491,8.0489,63.0719,0.0587,-0.1082,-0.1851,141.13
19:01:25:081,0.4914,1.5188,7.7139,62.7744,0.0822,-0.0465,-0.2192,141.35
19:01:25:101,0.4218,1.4336,7.6104,62.4415,0.0715,-0.0231,-0.2458,141.61
19:01:25:121,0.3604,1.3481,7.8342,62.0062,0.0683,0.0195,-0.2453,141.89
19:01:25:141,0.354,1.2857,8.0964,61.8474,0.072,0.1313,-0.2506,142.17
19:01:25:161,0.234,1.1363,8.2017,61.412,0.0944,0.2564,-0.2352,142.45
19:01:25:181,0.0695,0.9445,8.1468,61.2735,0.1375,0.3107,-0.1218,142.71
19:01:25:201,0.259,0.927,7.9555,61.1557,0.1785,0.2527,0.097,142.83
19:01:25:222,0.6561,1.3536,7.9639,61.1402,0.2078,0.1744,0.3243,142.7
19:01:25:241,0.9922,2.0056,8.2919,61.034,0.2163,0.1159,0.427,142.32
19:01:25:261,0.8447,2.4205,8.8914,61.1204,0.2301,0.1137,0.4217,141.82
19:01:25:281,0.4951,2.442,9.5971,60.7992,0.2397,0.2473,0.4222,141.33
19:01:25:302,0.2025,2.3364,10.0539,60.8105,0.2317,0.4512,0.4754,140.83
19:01:25:321,0.0006,2.3124,10.2499,60.5937,0.2131,0.472,0.5276,140.24
19:01:25:341,-0.0256,2.1143,10.8505,60.4433,0.2131,0.2702,0.5441,139.59
19:01:25:361,-0.0601,1.5934,11.7058,60.4435,0.252,0.1904,0.5191,138.94
19:01:25:381,-0.3014,0.848,12.2586,60.1956,0.3414,0.4081,0.5654,138.33
19:01:25:401,-0.299,0.5535,11.6118,60.0449,0.4111,0.9319,0.6655,137.64
19:01:25:421,-0.0189,1.0878,9.8645,60.1029,0.2749,1.1592,0.7113,136.76
19:01:25:441,0.1715,1.9208,9.1496,59.7907,0.0348,0.768,0.5878,135.79
19:01:25:462,0.0987,2.0934,9.9147,59.9142,-0.1451,-0.1338,0.336,135.01
19:01:25:481,-0.3618,1.3723,12.1794,59.7234,-0.1552,-0.9887,0.1582,134.65
19:01:25:501,-0.2117,-0.0972,14.4969,59.7728,0.0539,-0.9126,0.0331,134.62
19:01:25:521,-0.3258,-1.2664,14.015,59.8348,0.3009,-0.0129,0.0107,134.71
19:01:25:542,-0.3106,-1.4423,10.7107,59.7621,0.2961,0.7286,0.057,134.7
19:01:25:561,-0.3453,-0.8157,7.9297,59.7265,0.031,0.5949,0.0193,134.53
19:01:25:581,-0.5952,-0.2501,7.6684,59.5245,-0.1952,-0.0971,-0.0105,134.42
19:01:25:601,-0.4785,-0.0526,8.8708,59.2597,-0.1883,-0.6315,-0.0164,134.45
19:01:25:621,-0.2667,0.1333,9.4731,59.3554,-0.0914,-0.5964,-0.0356,134.57
19:01:25:641,-0.2034,0.2464,9.042,59.1679,-0.0365,-0.3121,-0.0276,134.7
19:01:25:661,-0.0194,0.4806,8.3521,59.2478,0.0002,-0.0917,0.0219,134.78
19:01:25:681,0.4246,0.8181,7.6514,59.0637,0.0412,-0.0401,0.0283,134.77
19:01:25:702,0.7611,1.1993,7.1938,58.975,0.0875,-0.1114,-0.035,134.74
19:01:25:721,0.9528,1.3771,6.9498,58.9252,0.0731,-0.2104,-0.1708,134.8
19:01:25:741,0.7218,1.3531,7.272,58.7524,-0.0323,-0.2392,-0.2985,135.03
19:01:25:812,0.3417,1.1033,8.1177,58.6645,-0.1116,-0.2402,-0.3459,135.41
19:01:25:813,0.0488,0.9477,9.1238,58.6602,-0.0988,-0.1945,-0.3049,135.84
19:01:25:813,-0.0771,0.9117,9.976,58.3927,0.005,-0.0326,-0.2203,136.21
19:01:25:821,-0.0318,1.0754,9.8694,58.2561,0.0965,0.2026,-0.1575,136.47
19:01:25:841,-0.0779,1.3835,9.3367,57.975,0.1056,0.3533,-0.1207,136.62
19:01:25:863,-0.0987,1.6746,9.0244,57.7426,0.1141,0.3181,-0.109,136.71
19:01:25:881,-0.144,1.7729,8.9996,57.3398,0.112,0.2261,-0.0867,136.79
19:01:25:901,-0.2491,1.8901,9.2073,57.2888,0.0885,0.1499,-0.0409,136.86
19:01:25:921,-0.3582,1.9876,9.6336,57.1557,0.0683,0.0967,-0.0015,136.88
19:01:25:942,-0.4687,1.9923,10.2024,57.0628,0.0369,0.0999,0.0288,136.87
19:01:25:961,-0.8022,1.9181,11.1046,56.8829,0.071,0.1462,0.1012,136.82
19:01:25:981,-0.9345,1.3895,11.5368,56.7482,0.1423,0.2734,0.2753,136.68
19:01:26:003,-0.4245,1.2368,11.4134,56.75,0.1476,0.4283,0.493,136.33
19:01:26:022,1.0231,1.8215,10.6311,56.6658,0.0443,0.415,0.4015,135.7
19:01:26:041,1.5413,2.3155,10.4834,56.6225,-0.1835,0.2527,-0.0052,135.18
19:01:26:061,0.7865,1.8977,11.1188,56.8492,-0.3613,0.1973,-0.3959,135.14
19:01:26:081,-0.7156,0.8861,11.5161,56.7248,-0.3708,0.2175,-0.5157,135.56
19:01:26:102,-1.9147,0.1018,11.4135,56.7462,-0.2404,0.1132,-0.3294,136.12
19:01:26:121,-2.1821,-0.0188,11.513,56.707,-0.0493,-0.0917,0.0038,136.48
19:01:26:141,-1.3156,0.2278,11.438,56.7478,0.1742,-0.1008,0.245,136.49
19:01:26:163,-0.1476,0.72,10.3615,56.7624,0.2972,0.1057,0.2652,136.22
19:01:26:182,0.4997,1.11,8.6584,56.6827,0.2062,0.2255,0.024,135.9
19:01:26:201,-0.0458,1.01,7.8326,56.644,0.0002,0.0509,-0.2575,135.84
19:01:26:221,-0.8345,0.524,8.0724,56.6918,-0.16,-0.2067,-0.3576,136.13
19:01:26:241,-1.3447,0.2571,8.6734,56.4749,-0.2308,-0.4079,-0.2868,136.57
19:01:26:264,-1.4554,0.2302,9.2771,56.4721,-0.1723,-0.516,-0.1122,136.95
19:01:26:281,-1.0171,0.5421,9.711,56.6871,0.0151,-0.491,0.065,137.15
19:01:26:301,-0.2623,1.1876,9.3988,56.9039,0.22,-0.3648,0.1273,137.15
19:01:26:321,0.4825,1.7965,8.627,56.9866,0.3323,-0.1812,0.0171,137.06
19:01:26:342,0.946,2.0696,7.7811,56.9342,0.3222,0.0807,-0.2096,137.06
19:01:26:361,0.9321,2.0324,6.8307,56.9911,0.2232,0.307,-0.438,137.29
19:01:26:381,0.6025,1.8586,6.1554,57.0629,0.0986,0.3102,-0.586,137.74
19:01:26:401,0.3177,1.798,6.1318,57.2779,-0.0046,0.1425,-0.6557,138.35
19:01:26:421,0.054,1.6739,6.5603,57.2837,-0.0898,-0.0545,-0.6951,139.07
19:01:26:441,-0.4371,1.3024,7.4704,57.1836,-0.1829,-0.129,-0.6456,139.86
19:01:26:463,-0.9292,1.0145,8.565,57.0407,-0.2452,-0.0896,-0.4614,140.62
19:01:26:481,-1.1537,0.9554,9.6636,56.9666,-0.2005,0.0317,-0.1915,141.15
19:01:26:503,-1.0871,1.2147,10.2533,56.697,-0.0605,0.1733,0.0906,141.37
19:01:26:521,-0.5185,1.916,10.663,56.7963,0.1322,0.1994,0.3174,141.24
19:01:26:541,0.7165,3.0096,11.669,56.7887,0.4638,0.2782,0.3685,140.84
19:01:26:564,1.4302,3.5757,11.1569,56.823,0.7901,0.4619,0.1582,140.38
19:01:26:582,0.8664,3.075,9.8422,56.8443,0.6762,0.554,-0.1026,140.12
19:01:26:601,-0.1193,2.2207,10.0556,56.8741,0.318,0.6147,-0.1649,140.13
19:01:26:621,-0.7963,1.4084,11.2064,56.9842,0.1785,0.6216,-0.1005,140.2
19:01:26:641,-1.1401,1.1638,10.9747,56.9294,0.1002,0.6652,0.0347,140.18
19:01:26:664,-1.4108,1.5449,10.4555,56.9063,-0.0616,0.5316,0.1694,140
19:01:26:681,-1.5269,1.7147,10.5043,56.9741,-0.1893,0.2074,0.2237,139.7
19:01:26:702,-1.7747,1.6329,11.3005,57.0647,-0.2325,-0.3025,0.2753,139.4
19:01:26:721,-1.9901,1.2535,12.7947,57.135,-0.0754,-0.788,0.3951,139.15
19:01:26:742,-1.3797,0.7896,13.4974,57.2026,0.178,-0.7241,0.5111,138.85
19:01:26:765,-0.4344,0.7356,12.3968,57.3878,0.2711,-0.179,0.4967,138.42
19:01:26:784,0.0414,0.9952,10.317,57.5019,0.1577,0.2117,0.3269,137.89
19:01:26:801,-0.1629,1.0207,8.9462,57.7796,0.0236,0.1196,0.1289,137.48
19:01:26:821,-0.6262,0.7788,8.7293,58.0223,-0.0419,-0.2184,-0.0153,137.31
19:01:26:841,-1.148,0.4946,9.1095,58.1188,-0.0855,-0.458,-0.0675,137.37
19:01:26:864,-1.3456,0.3867,9.6053,58.3212,-0.0972,-0.4101,-0.0728,137.54
19:01:26:881,-1.4508,0.3706,9.5185,58.5713,-0.0818,-0.2009,-0.0414,137.71
19:01:26:902,-1.4254,0.4223,8.9021,58.7081,-0.0504,-0.0161,0.0357,137.8
19:01:26:921,-1.2462,0.6402,8.4918,58.9292,0.0502,0.0057,0.122,137.76
19:01:26:941,-0.7528,0.8498,8.3599,59.0985,0.2291,-0.046,0.18,137.62
19:01:26:964,-0.0341,1.3976,8.5225,59.1166,0.4633,-0.0763,0.1497,137.42
19:01:26:982,0.4217,1.7113,7.8495,59.2056,0.6251,-0.0028,-0.0271,137.27
19:01:27:001,0.1661,1.6879,6.5193,59.2826,0.4718,0.151,-0.2245,137.3
19:01:27:021,-0.2799,1.6391,6.0436,59.4901,0.1274,0.1909,-0.3108,137.52
19:01:27:041,-0.572,1.6548,6.6234,59.8534,-0.1271,0.1057,-0.3267,137.81
19:01:27:064,-0.8115,1.7498,7.6112,59.9316,-0.2159,-0.0358,-0.2788,138.15
19:01:27:081,-0.9612,1.7611,8.3638,60.0532,-0.1931,-0.137,-0.1878,138.47
19:01:27:102,-1.0111,1.8309,8.814,60.0544,-0.1441,-0.1625,-0.0776,138.72
19:01:27:121,-0.9401,2.098,9.1114,60.1325,-0.0978,-0.1306,0.0113,138.84
19:01:27:141,-0.8197,2.3395,9.1114,60.3952,-0.0504,-0.1029,0.0538,138.85
19:01:27:164,-0.6003,2.649,9.0236,60.4441,-0.0339,-0.0747,0.0645,138.82
19:01:27:181,-0.4159,2.8644,8.8906,60.5344,-0.0594,-0.0651,0.0389,138.76
19:01:27:201,-0.3675,2.9575,9.0427,60.8255,-0.1191,-0.1508,0.0043,138.73
19:01:27:221,-0.5108,2.8813,10.0415,60.7379,-0.1276,-0.2701,-0.0073,138.76
19:01:27:241,-0.6069,2.5452,11.0942,60.8859,-0.0568,-0.2796,0.0208,138.82
19:01:27:261,-0.3832,2.131,11.6878,60.8815,0.0252,-0.1082,0.0725,138.86
19:01:27:281,0.2446,1.7724,11.2784,61.0513,0.0454,0.0951,0.0352,138.8
19:01:27:302,0.7295,1.7955,10.3637,61.0853,-0.1265,0.1867,-0.1245,138.74
19:01:27:321,0.7533,2.0552,10.0638,61.0332,-0.4358,-0.0018,-0.3965,138.83
19:01:27:341,-0.1251,1.9068,11.2185,60.8894,-0.6131,-0.3355,-0.661,139.28
19:01:27:364,-1.2539,1.1508,12.7112,61.1363,-0.5992,-0.4558,-0.7153,140.09
19:01:27:382,-1.9826,0.4746,13.7408,60.8151,-0.4246,-0.2727,-0.4982,140.98
19:01:27:402,-1.8418,0.2385,13.8322,60.7578,-0.0642,-0.0262,-0.158,141.59
19:01:27:421,-0.3943,0.5187,12.3135,60.6323,0.3632,0.134,0.081,141.78
19:01:27:441,1.1991,1.0073,9.8006,60.786,0.5511,0.1574,0.0326,141.66
19:01:27:465,2.0818,1.3488,7.9435,60.6418,0.4388,0.0605,-0.2565,141.59
19:01:27:482,1.9852,1.3411,7.56,60.6215,0.1785,-0.1024,-0.6137,141.87
19:01:27:501,1.1061,0.9704,8.388,60.6231,0.0193,-0.2253,-0.8484,142.58
19:01:27:521,0.1841,0.4644,9.2257,60.7409,-0.003,-0.1865,-0.8852,143.58
19:01:27:541,-0.3679,0.2404,9.4872,60.6005,0.0395,0.0041,-0.7483,144.62
19:01:27:561,-0.3753,0.4672,9.2145,60.5644,0.1396,0.2159,-0.562,145.46
19:01:27:581,-0.1298,1.0037,8.1589,60.6954,0.22,0.2516,-0.4779,146.05
19:01:27:601,-0.0724,1.3563,7.2437,60.5832,0.17,0.1867,-0.4902,146.54
19:01:27:622,-0.2058,1.3795,6.9478,60.4741,0.0662,0.1718,-0.5115,147.05
19:01:27:641,-0.5068,1.3064,6.8832,60.4362,0.0108,0.1819,-0.4673,147.59
19:01:27:661,-0.7408,1.4309,6.8805,60.3664,-0.0062,0.1845,-0.3773,148.08
19:01:27:682,-0.6882,1.6553,6.7314,60.1472,-0.0169,0.1718,-0.3113,148.46
19:01:27:702,-0.6265,2.0111,6.6672,59.9183,-0.0648,0.1153,-0.3001,148.78
19:01:27:721,-0.6893,2.1967,6.8474,59.7142,-0.135,0.0429,-0.3252,149.09
19:01:27:741,-0.955,2.2243,7.2936,59.5533,-0.2213,0.0073,-0.3124,149.45
19:01:27:761,-1.2203,2.3355,8.0943,59.3429,-0.2575,-0.0092,-0.2096,149.8
19:01:27:782,-1.2622,2.5364,8.9823,59.2606,-0.1808,-0.014,-0.0734,150.03
19:01:27:801,-1.1955,2.7861,9.4568,59.0191,-0.0685,0.0658,0.0576,150.12
19:01:27:865,-1.0319,3.1465,9.477,58.7895,-0.0163,0.1797,0.1518,150.04
19:01:27:866,-0.7704,3.4113,9.586,58.6455,-0.0392,0.1968,0.172,149.83
19:01:27:866,-0.6831,3.2606,10.1192,58.6955,-0.1122,0.1089,0.1316,149.6
19:01:27:885,-0.8574,2.5742,11.2949,58.663,-0.1526,0.0797,0.1108,149.43
19:01:27:901,-1.0549,1.7339,12.2655,58.4274,-0.1563,0.2399,0.1981,149.28
19:01:27:921,-0.9642,1.5143,12.1499,58.4128,-0.2042,0.4278,0.3429,149.01
19:01:27:941,-0.5679,2.0412,11.8602,58.3895,-0.2687,0.382,0.3999,148.55
19:01:27:961,-0.18,2.4653,11.904,58.1492,-0.3075,0.1196,0.2641,148.02
19:01:27:982,-0.4967,2.2398,12.6416,58.0461,-0.3022,-0.2115,0.0709,147.7
19:01:28:001,-1.1735,1.3882,13.5871,58.0028,-0.2106,-0.2887,0.0081,147.65
19:01:28:021,-1.6925,0.3393,14.059,57.9273,0.0475,-0.014,0.1167,147.69
19:01:28:041,-1.4933,-0.3246,12.1839,57.512,0.3541,0.4097,0.3599,147.55
19:01:28:061,-0.7842,0.0277,9.0393,57.2549,0.3558,0.4965,0.5053,147.08
19:01:28:082,-0.1297,0.6357,7.5119,57.3017,0.1455,0.0685,0.4052,146.42
19:01:28:102,-0.1672,0.7632,8.143,57.2234,-0.0121,-0.4548,0.2178,145.94
19:01:28:121,-0.6371,0.464,9.7568,57.1167,-0.0115,-0.7678,0.0853,145.77
19:01:28:141,-1.05,0.1278,10.837,57.2061,0.0188,-0.6304,0.023,145.81
19:01:28:161,-1.3614,-0.0527,10.9574,57.3121,0.063,-0.2371,0.0554,145.89
19:01:28:182,-1.4309,0.049,10.0324,57.194,0.1391,0.1015,0.1433,145.87
19:01:28:201,-1.3191,0.3092,8.4942,57.0447,0.1923,0.2005,0.2359,145.69
19:01:28:221,-1.1433,0.6759,7.3647,57.2611,0.2259,0.0919,0.3174,145.38
19:01:28:241,-0.7672,0.9876,6.7414,57.2675,0.2567,-0.0731,0.3488,145
19:01:28:262,-0.4394,1.2353,6.5042,57.1436,0.2493,-0.1535,0.3253,144.62
19:01:28:283,-0.3284,1.3936,6.5516,57.1933,0.203,-0.154,0.2817,144.28
19:01:28:301,-0.3418,1.5975,6.6015,57.3929,0.1247,-0.1487,0.2061,143.99
19:01:28:321,-0.5222,1.6863,6.9722,57.3324,0.0316,-0.1886,0.123,143.79
19:01:28:342,-0.8003,1.5846,7.6568,57.3963,-0.0493,-0.1945,0.0821,143.69
19:01:28:361,-1.1546,1.3795,8.6346,57.3331,-0.0914,-0.1024,0.1353,143.64
19:01:28:381,-1.3281,1.4244,9.4471,57.298,-0.0893,0.0823,0.2625,143.5
19:01:28:401,-1.0184,1.7855,9.5964,57.2097,-0.0206,0.1819,0.3525,143.19
19:01:28:422,-0.3509,2.5576,9.213,57.1731,0.0316,0.1313,0.304,142.75
19:01:28:441,0.2472,2.9915,8.9967,57.145,0.0167,0.1254,0.0853,142.38
19:01:28:462,-0.1293,2.73,9.121,57.166,-0.1058,0.2809,-0.1245,142.26
19:01:28:481,-1.1571,2.284,9.363,56.8286,-0.2309,0.2931,-0.1793,142.33
19:01:28:502,-1.6633,1.9095,9.8831,56.6068,-0.2543,0.1036,-0.0766,142.48
19:01:28:521,-1.3991,1.7652,10.4005,56.4331,-0.2314,-0.1184,0.0512,142.54
19:01:28:541,-0.8915,1.5504,10.9473,56.2277,-0.1973,-0.3068,0.1428,142.5
19:01:28:561,0.0431,1.2912,11.3328,56.0716,-0.1829,-0.3031,0.1853,142.4
19:01:28:582,0.9542,1.5189,11.2007,55.7691,-0.2543,-0.1647,0.1081,142.24
19:01:28:601,1.3786,2.0044,11.1868,55.4221,-0.365,-0.1205,-0.141,142.14
19:01:28:621,1.2235,2.176,11.5068,55.1635,-0.4704,-0.1934,-0.496,142.32
19:01:28:641,0.4984,1.7278,12.4631,54.8483,-0.4795,-0.2083,-0.726,142.91
19:01:28:662,-0.0363,0.9795,13.1183,54.6169,-0.3219,-0.1146,-0.7819,143.77
19:01:28:681,-0.4467,0.3418,12.9302,54.4376,-0.0712,0.0317,-0.6701,144.67
19:01:28:701,-0.1447,0.1059,11.7689,54.186,0.1934,0.1968,-0.4827,145.43
19:01:28:721,0.6259,0.2545,9.9103,53.8471,0.3451,0.2314,-0.4268,145.95
19:01:28:742,1.081,0.3464,8.3616,53.3865,0.3078,0.1377,-0.5695,146.4
19:01:28:761,0.704,0.1569,8.1005,53.1491,0.1561,-0.0236,-0.7553,147.02
19:01:28:781,-0.1263,-0.1285,8.632,53.0657,0.0582,-0.1529,-0.8319,147.88
19:01:28:802,-0.6891,-0.2891,9.043,52.7094,0.047,-0.1625,-0.7861,148.85
19:01:28:821,-1.0026,-0.1714,9.0413,52.1778,0.0859,-0.0795,-0.6595,149.77
19:01:28:841,-0.8257,0.3019,8.4758,51.7835,0.1284,-0.014,-0.5524,150.53
19:01:28:861,-0.6296,0.784,7.7427,51.3134,0.1231,-0.0087,-0.5152,151.15
19:01:28:881,-0.4834,1.2025,7.2991,50.8873,0.0843,-0.0374,-0.5471,151.74
19:01:28:902,-0.5484,1.3605,7.3558,50.5038,0.0539,0.0126,-0.6126,152.36
19:01:28:921,-0.6909,1.293,7.4088,50.1163,0.0587,0.143,-0.6328,153.05
19:01:28:941,-0.894,1.3748,7.1621,49.8067,0.0662,0.2319,-0.594,153.74
19:01:28:961,-0.8977,1.5824,6.9872,49.4007,0.0683,0.1776,-0.5386,154.38
19:01:28:982,-0.7887,1.795,7.162,48.95,0.047,0.0509,-0.503,154.96
19:01:29:002,-0.6098,1.9833,7.6485,48.5093,0.0039,-0.0071,-0.4923,155.52
19:01:29:021,-0.4252,2.1898,8.3397,48.0476,-0.0174,0.0312,-0.4998,156.07
19:01:29:041,-0.3994,2.3341,8.8096,47.8098,-0.0174,0.0978,-0.4902,156.63
19:01:29:061,-0.5321,2.5312,9.2317,47.2295,-0.0004,0.1446,-0.4321,157.17
19:01:29:081,-0.6519,2.7659,9.6689,46.8014,0.055,0.1537,-0.3299,157.64
19:01:29:101,-0.6158,2.9709,9.9113,46.4459,0.1205,0.1537,-0.2341,157.98
19:01:29:121,-0.5341,3.1403,9.9149,45.6377,0.1455,0.1419,-0.1596,158.22
19:01:29:141,-0.3378,3.1961,9.9938,45.2028,0.1428,0.0131,-0.1495,158.38
19:01:29:161,-0.1999,2.7978,10.3896,44.7333,0.1061,-0.1678,-0.2192,158.54
19:01:29:183,-0.4076,2.0489,10.9579,44.3393,0.0092,-0.2408,-0.2895,158.82
19:01:29:201,-0.8233,1.429,11.4528,43.9642,-0.11,-0.1679,-0.265,159.18
19:01:29:221,-1.0103,1.3309,11.6955,43.3667,-0.2048,-0.0571,-0.1447,159.51
19:01:29:241,-0.7691,1.6955,11.8198,43.037,-0.2351,0.0121,-0.0941,159.68
19:01:29:261,-0.6935,1.8457,11.8586,42.6402,-0.2117,-0.0385,-0.1953,159.78
19:01:29:283,-1.0943,1.4972,12.3328,42.3594,-0.1313,-0.1599,-0.3081,160.01
19:01:29:302,-1.6,0.755,12.6129,42.164,0.0289,-0.1503,-0.347,160.38
19:01:29:321,-1.7329,-0.137,12.0192,41.6874,0.2014,0.0179,-0.3214,160.79
19:01:29:341,-1.741,-0.8139,10.5636,41.2978,0.2791,0.2053,-0.2181,161.15
19:01:29:361,-1.5522,-0.927,9.1095,41.1043,0.204,0.2617,-0.0569,161.36
19:01:29:383,-1.1311,-0.5979,8.3656,40.7648,0.0507,0.159,0.0256,161.38
19:01:29:401,-0.8713,-0.1363,8.3196,40.2619,-0.0935,-0.1407,0.0097,161.32
19:01:29:421,-0.5713,0.2354,8.9035,39.976,-0.1553,-0.5006,-0.043,161.32
19:01:29:441,-0.08,0.6397,9.6844,39.7392,-0.1436,-0.6997,-0.1628,161.45
19:01:29:461,0.2796,0.8646,10.0279,39.2168,-0.1313,-0.4979,-0.3406,161.74
19:01:29:481,0.0533,0.7052,9.4604,39.1386,-0.1537,-0.1673,-0.4731,162.19
19:01:29:503,-0.2897,0.6999,8.4638,39.062,-0.1622,-0.0944,-0.4822,162.75
19:01:29:521,-0.401,0.7369,7.9545,38.7857,-0.093,-0.2903,-0.4263,163.31
19:01:29:541,-0.2957,0.8189,7.7778,38.4205,0.0523,-0.5021,-0.3422,163.83
19:01:29:561,-0.0652,1.0185,8.027,37.9063,0.2248,-0.4314,-0.3012,164.28
19:01:29:583,0.0928,1.0276,7.6695,38.0667,0.3659,-0.3914,-0.3374,164.68
19:01:29:601,-0.2278,1.2488,7.158,37.751,0.3153,-0.417,-0.3358,165.12
19:01:29:621,-0.3769,1.3524,7.1754,37.4267,0.1599,-0.5762,-0.2799,165.56
19:01:29:641,-0.3219,1.5771,8.0204,37.3238,0.0773,-0.7476,-0.2011,165.96
19:01:29:661,0.0104,1.9283,9.1084,37.0213,0.1242,-0.7566,-0.1734,166.3
19:01:29:684,0.3437,2.2424,9.8564,36.6193,0.245,-0.615,-0.1958,166.62
19:01:29:702,0.4082,2.3538,10.0792,36.3271,0.368,-0.3659,-0.2187,166.94
19:01:29:721,0.1655,2.3669,9.7653,36.243,0.4159,-0.1274,-0.2032,167.24
19:01:29:741,-0.1398,2.4506,9.1097,36.2261,0.351,-0.0108,-0.1415,167.49
19:01:29:761,-0.1545,2.5607,8.6439,35.9401,0.1849,0.044,-0.068,167.64
19:01:29:784,-0.0854,2.7219,8.7376,35.6066,-0.0004,-0.013,-0.034,167.7
19:01:29:801,0.2149,2.6672,9.572,35.683,-0.1074,-0.1881,-0.0728,167.74
19:01:29:821,0.5481,2.1041,10.9152,35.4534,-0.1036,-0.3744,-0.1287,167.85
19:01:29:841,0.9167,1.3158,12.0434,35.1907,-0.0632,-0.2323,-0.1293,168.06
19:01:29:861,1.2448,0.9474,11.8686,35.1414,-0.0775,0.1632,-0.1335,168.24
19:01:29:923,1.1792,0.8411,11.1309,34.922,-0.1931,0.4209,-0.1851,168.35
19:01:29:923,0.755,0.7512,10.8327,34.6027,-0.3501,0.4182,-0.2767,168.47
19:01:29:924,-0.0894,0.836,11.3808,34.3686,-0.447,0.2298,-0.3778,168.7
19:01:29:941,-0.7834,0.6844,12.6062,34.2351,-0.3581,0.1063,-0.4162,169.07
19:01:29:961,-0.8393,0.0767,13.1554,34.2094,-0.0701,0.2745,-0.3134,169.52
19:01:29:984,-0.1339,-0.3723,12.0114,33.6548,0.2674,0.5561,-0.1133,169.82
19:01:30:001,1.1027,-0.1995,9.9489,33.3583,0.4963,0.5103,-0.035,169.84
19:01:30:022,2.0704,0.3633,8.12,33.1866,0.4622,0.1616,-0.2118,169.78
19:01:30:041,2.1067,0.8882,7.4737,32.7861,0.1465,-0.1583,-0.5524,169.98
19:01:30:061,1.2384,0.875,8.2713,32.635,-0.2016,-0.3201,-0.8713,170.62
19:01:30:083,0.1381,0.3245,9.2594,32.5546,-0.3512,-0.2541,-0.9799,171.66
19:01:30:102,-0.831,-0.0328,9.4911,32.6336,-0.3033,-0.0944,-0.7984,172.81
19:01:30:121,-0.9579,0.3769,8.886,32.443,-0.1814,0.0136,-0.4966,173.72
19:01:30:141,-0.2833,1.2849,8.0955,32.3553,-0.052,0.0184,-0.3076,174.26
19:01:30:161,0.2798,1.9796,7.4373,32.4366,0.014,0.011,-0.3172,174.6
19:01:30:184,0.1679,2.1723,7.0051,32.289,-0.0185,0.0153,-0.4125,174.95
19:01:30:204,0.1495,2.1807,6.8661,32.1701,-0.0882,0.0498,-0.4731,175.4
19:01:30:221,0.2415,2.211,6.7613,32.3567,-0.1467,0.1159,-0.4843,175.92
19:01:30:241,0.2857,2.4095,6.7904,32.5659,-0.1968,0.0919,-0.4747,176.44
19:01:30:262,0.3293,2.4855,7.1328,32.4698,-0.2532,0.0275,-0.5216,176.95
19:01:30:284,0.0244,2.242,7.5169,32.263,-0.3565,-0.0875,-0.5679,177.52
19:01:30:302,-0.2684,2.0545,8.4609,32.2089,-0.4518,-0.1226,-0.5008,178.17
19:01:30:321,-0.2673,1.9211,9.5022,32.2815,-0.4395,-0.0188,-0.3933,178.75
19:01:30:341,-0.2802,1.9005,10.2293,32.2415,-0.3043,0.2064,-0.2432,179.18
19:01:30:361,-0.2464,2.1495,10.4241,32.3041,-0.0478,0.4427,-0.0888,179.42
19:01:30:381,-0.0457,2.4913,10.0824,32.0674,0.2072,0.5114,0.0097,179.46
19:01:30:402,0.092,2.657,9.6265,31.8162,0.2865,0.374,0.0214,179.38
19:01:30:422,0.0197,2.355,9.8946,31.5392,0.2051,0.1494,-0.0585,179.29
19:01:30:441,-0.3251,1.5307,10.7654,31.4813,0.0832,0.0631,-0.1149,179.33
19:01:30:461,-0.6826,0.9159,11.6679,31.4491,-0.0227,0.2127,-0.0601,179.44
19:01:30:484,-0.7429,0.842,12.0674,31.4661,-0.1036,0.4134,0.0235,179.47
19:01:30:502,-0.6963,1.1383,12.1098,31.4902,-0.1473,0.4267,0.0661,179.37
19:01:30:521,-0.673,1.4934,12.3437,31.5273,-0.1659,0.1718,0.0017,179.23
19:01:30:541,-0.8535,1.443,13.2311,31.6393,-0.0728,-0.1663,-0.1277,179.19
19:01:30:561,-1.1571,0.7164,13.8624,31.9893,0.1529,-0.1609,-0.1889,179.34
19:01:30:584,-1.3353,-0.1558,12.9401,32.3653,0.3845,0.333,-0.0872,179.57
19:01:30:601,-1.2011,-0.3525,10.4384,32.5678,0.4643,0.7866,0.1204,179.61
19:01:30:621,-0.8324,0.1027,8.1822,32.9887,0.3845,0.7078,0.2327,179.35
19:01:30:641,-0.7042,0.6435,7.2066,33.1509,0.1886,0.1489,0.1635,178.96
19:01:30:661,-1.0228,0.7491,7.9596,33.2626,-0.0073,-0.5176,0.0347,178.74
19:01:30:685,-1.2219,0.5868,9.6359,33.3973,-0.0712,-0.8599,-0.0377,178.77
19:01:30:702,-1.164,0.4614,10.854,33.6681,-0.085,-0.7268,-0.0648,178.93
19:01:30:721,-1.1036,0.6911,11.1565,33.8772,-0.0238,-0.3888,-0.0824,179.11
19:01:30:741,-0.9892,0.9188,10.4296,34.2129,0.0992,-0.1184,-0.1351,179.25
19:01:30:761,-0.9622,0.9642,9.0514,34.4332,0.195,-0.0055,-0.1623,179.41
19:01:30:784,-0.9057,0.9376,7.7261,34.8446,0.2365,-0.0635,-0.1239,179.58
19:01:30:802,-0.5471,1.0526,6.8221,35.264,0.2658,-0.2301,-0.0388,179.73
19:01:30:822,0.0533,1.3236,6.3161,35.7719,0.2791,-0.3946,-0.0105,179.79
19:01:30:841,0.5322,1.5479,6.1377,36.3408,0.2408,-0.5038,-0.0893,179.85
19:01:30:861,0.4869,1.5546,6.4603,36.8061,0.1189,-0.4596,-0.2245,180.03
19:01:30:881,-0.0078,1.3016,7.1733,37.2497,-0.0382,-0.2568,-0.3113,180.36
19:01:30:904,-0.5989,1.1071,7.9918,37.8983,-0.1175,-0.0481,-0.2937,180.74
19:01:30:921,-0.9974,1.0366,8.4834,38.1767,-0.1031,0.0546,-0.1851,181.07
19:01:30:941,-1.0599,1.2975,8.7272,38.5729,-0.0605,-0.0188,-0.0547,181.25
19:01:30:961,-0.8259,1.7057,9.0602,38.8046,-0.0142,-0.1487,-0.0068,181.31
19:01:30:985,-0.6433,1.9978,9.3772,39.1237,0.0209,-0.2046,-0.0228,181.33
19:01:31:001,-0.5073,2.1675,9.5834,39.5049,0.0188,-0.1205,-0.0467,181.37
19:01:31:021,-0.4447,2.298,9.7182,39.6907,-0.0174,0.0323,-0.0585,181.43
19:01:31:041,-0.1947,2.398,9.8433,39.9323,-0.0595,0.0988,-0.1149,181.48
19:01:31:062,-0.0864,2.164,10.0397,40.2198,-0.1494,0.0243,-0.1846,181.58
19:01:31:081,0.0667,1.5056,10.7352,40.4074,-0.1931,-0.1593,-0.199,181.76
19:01:31:102,0.5597,0.8663,11.4952,40.6761,-0.1835,-0.1503,-0.1734,182
19:01:31:122,1.3203,0.5405,11.1964,40.866,-0.3091,0.0392,-0.2751,182.21
19:01:31:141,1.2304,0.6538,10.7195,41.369,-0.6019,0.0887,-0.4987,182.5
19:01:31:161,-0.0512,0.7434,11.2329,41.5855,-0.8691,-0.0321,-0.7036,183.04
19:01:31:181,-1.8019,0.0841,12.8332,41.8707,-0.8984,-0.0577,-0.7026,183.83
19:01:31:202,-2.9512,-0.8487,13.6784,42.29,-0.636,0.1185,-0.3848,184.62
19:01:31:222,-2.5378,-1.3294,13.1125,42.6938,-0.2069,0.307,0.1332,185.04
19:01:31:241,-0.6686,-0.7857,11.2498,43.1531,0.1785,0.3107,0.4802,184.84
19:01:31:261,1.3986,0.3745,9.347,43.5173,0.336,0.0605,0.4286,184.25
19:01:31:281,2.723,1.313,8.4206,43.8272,0.2578,-0.2472,-0.0292,183.74
19:01:31:303,2.5362,1.4152,8.7812,43.9709,0.0427,-0.3425,-0.6637,183.78
19:01:31:322,1.3703,0.6723,9.4282,44.2485,-0.1191,-0.1396,-1.1125,184.56
19:01:31:341,-0.0421,-0.0603,9.6556,44.6222,-0.1611,0.1462,-1.237,185.83
19:01:31:361,-1.0209,-0.3196,9.1821,44.7947,-0.0914,0.3687,-1.0811,187.22
19:01:31:385,-1.3093,0.0273,8.2259,44.8679,0.006,0.3735,-0.8202,188.4
19:01:31:401,-1.0166,0.5081,7.6535,44.9973,0.1125,0.1297,-0.6334,189.29
19:01:31:421,-0.6483,0.7998,7.5051,44.9966,0.2024,-0.1029,-0.5349,189.99
19:01:31:441,-0.3208,1.0553,7.4413,44.9428,0.2248,-0.1567,-0.4902,190.6
19:01:31:462,-0.0603,1.2228,7.4907,45.1087,0.2003,-0.0614,-0.4891,191.16
19:01:31:481,0.0835,1.3979,7.5427,45.1977,0.1737,0.0456,-0.4928,191.71
19:01:31:501,0.1748,1.5404,7.662,45.1977,0.1827,0.0898,-0.4864,192.25
19:01:31:521,0.2019,1.675,8.0995,45.3471,0.2636,0.0307,-0.463,192.78
19:01:31:541,0.3548,1.8583,8.1401,45.3111,0.3589,-0.031,-0.4641,193.29
19:01:31:561,0.4558,2.1314,8.0683,45.3065,0.3174,-0.0949,-0.5067,193.81
19:01:31:581,0.4475,2.3237,8.4479,45.3387,0.1891,-0.1008,-0.5684,194.38
19:01:31:604,0.1415,2.2821,9.2277,45.5532,0.1093,-0.0023,-0.578,195.03
19:01:31:622,-0.2861,2.2542,9.7159,45.582,0.1178,0.2149,-0.4886,195.67
19:01:31:642,-0.5611,2.3973,9.573,45.6593,0.1274,0.3474,-0.3672,196.19
19:01:31:661,-0.6405,2.6725,9.3776,45.8638,0.0954,0.2857,-0.2916,196.54
19:01:31:681,-0.4282,2.6778,9.6543,45.8752,0.0646,0.0573,-0.3065,196.82
19:01:31:702,-0.3007,2.1713,10.3163,45.769,0.0284,-0.1338,-0.3821,197.14
19:01:31:721,-0.3386,1.3933,10.8942,45.8137,-0.069,-0.0651,-0.4007,197.58
19:01:31:741,-0.7956,0.8854,11.039,45.9154,-0.2213,0.1648,-0.331,198.04
19:01:31:761,-1.1439,1.0741,11.2559,46.0711,-0.3906,0.2159,-0.2198,198.37
19:01:31:781,-1.2114,1.1623,12.073,46.1602,-0.4087,-0.0337,-0.2352,198.58
19:01:31:801,-1.7141,0.7353,13.2637,46.4478,-0.2495,-0.3462,-0.2549,198.84
19:01:31:822,-2.037,-0.0642,13.9401,46.617,-0.0131,-0.3159,-0.1548,199.16
19:01:31:841,-1.8277,-0.6752,13.3515,46.5157,0.2046,0.1052,0.024,199.35
19:01:31:861,-1.2913,-0.8428,11.0946,46.8352,0.2461,0.4794,0.1907,199.3
19:01:31:881,-0.8138,-0.4634,9.237,46.8976,0.0949,0.3852,0.2343,199.01
19:01:31:901,-0.7056,-0.0631,8.9631,46.8292,-0.0403,-0.0209,0.1475,198.68
19:01:31:921,-0.7701,-0.011,9.4971,46.7148,-0.0669,-0.4463,0.0544,198.49
19:01:32:006,-0.8075,-0.0664,10.049,46.6616,-0.0781,-0.5836,0.0081,198.47
19:01:32:006,-1.1448,-0.428,10.3154,46.5788,-0.084,-0.401,0.0544,198.51
19:01:32:007,-1.207,0.0069,10.2461,46.3993,-0.0046,-0.0284,0.2529,198.48
19:01:32:007,-0.9953,0.3051,9.0525,46.1819,0.1109,0.1531,0.3514,198.18
19:01:32:022,-0.7562,0.8185,7.8911,46.2228,0.1359,0.1563,0.4068,197.75
19:01:32:041,-0.3387,1.1322,7.3623,45.9913,0.1508,0.0807,0.386,197.25
19:01:32:061,-0.147,1.2866,7.1828,45.9074,0.1955,-0.0454,0.3051,196.78
19:01:32:081,-0.2741,1.4419,7.0099,45.9909,0.2594,-0.1535,0.2838,196.42
19:01:32:102,-0.085,1.3499,6.7216,46.1079,0.253,-0.2259,0.2199,196.09
19:01:32:121,-0.2068,1.4997,6.6281,46.19,0.171,-0.3041,0.1353,195.86
19:01:32:142,-0.3052,1.6726,6.8256,45.97,0.088,-0.5304,0.0363,195.74
19:01:32:161,-0.6094,1.5311,8.1702,45.9556,0.0358,-0.5075,-0.0409,195.76
19:01:32:181,-0.6824,1.4867,8.8962,46.2004,-0.0243,-0.2743,0.0517,195.86
19:01:32:201,-0.352,1.8885,9.4314,46.3079,0.0129,-0.0949,0.0698,195.83
19:01:32:221,-0.1114,2.2491,9.3173,46.3645,0.0699,-0.0193,0.0139,195.75
19:01:32:241,-0.1009,2.451,8.9925,46.4814,0.0848,0.0174,-0.0691,195.72
19:01:32:262,-0.278,2.4954,8.5976,46.588,0.0369,-0.046,-0.1314,195.78
19:01:32:281,-0.4867,2.4405,8.8185,46.6272,-0.0472,-0.2216,-0.1782,195.92
19:01:32:302,-0.6826,2.2037,9.8435,46.6014,-0.0403,-0.4457,-0.1585,196.14
19:01:32:322,-0.4757,1.9,11.2515,46.6706,0.0869,-0.5517,-0.0851,196.37
19:01:32:342,-0.0308,1.3982,12.1873,46.8462,0.1955,-0.5362,0.0081,196.54
19:01:32:361,0.9712,0.6109,12.3997,46.5814,0.1865,-0.3132,0.0858,196.59
19:01:32:381,1.668,0.3065,11.6746,46.6195,-0.0089,-0.0262,0.1763,196.53
19:01:32:402,1.889,0.6035,10.9058,46.5897,-0.3107,0.1206,0.1901,196.32
19:01:32:422,1.2402,0.7624,10.9677,46.5677,-0.5066,0.1084,0.0453,196.07
19:01:32:441,0.0783,0.5657,11.7039,46.4957,-0.4864,-0.0279,-0.0441,195.98
19:01:32:461,-0.5192,0.2829,12.3716,46.371,-0.3022,-0.0247,0.0187,196.02
19:01:32:481,-0.1595,0.2838,12.3687,46.3328,-0.0366,0.0317,0.0868,195.98
19:01:32:511,0.677,0.477,11.5364,46.4901,0.1992,0.1504,0.0203,195.86
19:01:32:521,1.5009,0.7483,10.0893,46.1886,0.295,0.1872,-0.1889,195.8
19:01:32:541,1.8076,0.892,9.0206,46.1508,0.2152,0.0791,-0.5301,195.98
19:01:32:561,1.3497,0.7338,8.9637,45.9491,0.0587,-0.0428,-0.8676,196.55
19:01:32:582,0.2894,0.2331,9.5136,45.6915,-0.0243,-0.0816,-1.0188,197.52
19:01:32:601,-0.7099,-0.2158,9.7801,45.6168,-0.002,0.0184,-0.9011,198.68
19:01:32:621,-1.096,-0.0695,9.1911,45.3723,0.104,0.1648,-0.6052,199.68
19:01:32:641,-0.6084,0.6018,7.9507,45.3138,0.2056,0.1632,-0.3773,200.33
19:01:32:662,0.0006,1.3386,6.9978,45.0829,0.2349,-0.0124,-0.3081,200.71
19:01:32:681,0.4023,1.7153,6.7836,44.7119,0.2109,-0.1247,-0.3582,201.05
19:01:32:703,0.3913,1.8112,6.9178,44.4481,0.1721,-0.0981,-0.4343,201.46
19:01:32:721,0.3838,1.7581,6.9947,44.2926,0.1433,0.0339,-0.4795,201.95
19:01:32:741,0.4641,1.7961,6.9419,44.2428,0.1093,0.1685,-0.495,202.47
19:01:32:761,0.5092,2.0128,6.9224,44.2094,0.0938,0.1606,-0.537,202.98
19:01:32:781,0.543,2.1616,7.2742,43.8934,0.1141,0.0344,-0.6099,203.54
19:01:32:803,0.4595,2.1058,7.8438,43.8253,0.1386,-0.1279,-0.6972,204.21
19:01:32:822,0.1593,1.9353,8.7221,43.4778,0.1359,-0.1913,-0.7217,205
19:01:32:841,-0.2681,1.6914,9.4858,43.28,0.1401,-0.039,-0.6302,205.84
19:01:32:861,-0.7254,1.7137,9.7506,43.2138,0.138,0.193,-0.4268,205.83
19:01:32:881,-0.6731,2.1599,9.806,42.9307,0.1694,0.4336,-0.1985,206.52
19:01:32:902,-0.4024,2.8076,9.3481,42.6657,0.1737,0.5593,-0.0521,206.93
19:01:32:921,-0.3231,3.3653,9.0382,42.2988,0.1109,0.3916,-0.0031,207.05
19:01:32:941,-0.217,3.5013,9.7811,41.8868,0.0385,0.0802,-0.035,207.04
19:01:32:961,-0.2636,2.9858,11.055,41.7437,0.0092,-0.1354,-0.0835,207.02
19:01:32:982,-0.5801,2.1342,12.0922,41.1302,0.0321,-0.0561,-0.002,207.08
19:01:33:002,-0.7742,1.8306,11.9227,40.8048,-0.0036,0.2409,0.1662,207.19
19:01:33:023,-0.7031,2.4065,11.5299,40.5111,-0.134,0.333,0.2795,207.15
19:01:33:041,-0.3769,2.8184,11.7805,39.9786,-0.1846,0.2228,0.1997,206.9
19:01:33:061,-0.5808,2.5364,12.039,39.7493,-0.1233,-0.0348,0.0086,206.54
19:01:33:081,-1.1463,1.608,12.1133,39.4763,-0.0669,-0.2259,-0.0813,206.31
19:01:33:103,-1.4582,0.5429,12.272,39.333,-0.0185,-0.1881,-0.0526,206.34
19:01:33:121,-1.4129,-0.3817,11.7279,39.1552,0.064,0.0211,0.0437,206.47
19:01:33:142,-1.2775,-0.6483,10.4044,38.8194,0.0726,0.1494,0.1598,206.53
19:01:33:161,-1.0852,-0.2912,9.268,38.8546,0.0065,0.0786,0.2114,206.45
19:01:33:181,-0.8167,0.2087,8.9034,38.7229,-0.0738,-0.1663,0.1843,206.26
19:01:33:206,-0.6723,0.4931,9.1444,38.5385,-0.1031,-0.359,0.123,206.05
19:01:33:224,-0.6606,0.6761,9.2824,38.3838,-0.0967,-0.3978,0.0837,205.9
19:01:33:241,-0.6613,0.7439,9.1637,38.3893,-0.0903,-0.2802,0.0789,205.83
19:01:33:261,-0.6459,0.8343,8.8116,38.1294,-0.0717,-0.1056,0.114,205.79
19:01:33:281,-0.4051,1.0649,8.3216,37.969,-0.0323,0.0206,0.1539,205.72
19:01:33:303,-0.1453,1.3336,7.7078,37.9118,0.0225,0.0105,0.155,205.59
19:01:33:323,0.067,1.4396,7.2152,37.84,0.0715,-0.072,0.1236,205.41
19:01:33:341,0.1923,1.5293,6.9532,37.8734,0.1013,-0.1705,0.1081,205.26
19:01:33:361,0.4043,1.6778,6.8955,37.9054,0.0954,-0.2099,0.0837,205.15
19:01:33:381,0.3553,1.8268,7.0169,37.758,0.0363,-0.2238,0.032,205.06
19:01:33:403,0.1722,1.9376,7.4628,37.8639,-0.0344,-0.2323,-0.0185,205.01
19:01:33:421,-0.1044,2.0852,8.0923,37.7609,-0.0717,-0.253,-0.0712,205.01
19:01:33:442,-0.3105,2.1096,8.8091,37.9674,-0.0541,-0.2381,-0.1085,205.07
19:01:33:461,-0.6559,2.0926,9.2966,37.8819,0.0044,-0.178,-0.0776,205.19
19:01:33:481,-0.8452,2.1733,9.5417,37.8997,0.0885,-0.1146,0.0155,205.36
19:01:33:503,-0.6952,2.3188,9.6048,37.9435,0.1641,-0.0183,0.0996,205.47
19:01:33:522,-0.4876,2.6215,9.2725,37.8472,0.1471,0.0962,0.1151,205.47
19:01:33:542,-0.4468,2.9256,9.3349,37.8503,0.055,0.0397,0.064,205.34
19:01:33:561,-0.3145,2.8649,9.8542,37.7969,-0.0211,-0.1098,-0.0638,205.19
19:01:33:581,-0.3247,2.1631,10.6408,37.7837,-0.1153,-0.2578,-0.1607,205.13
19:01:33:604,-0.3786,1.0528,11.9172,37.7479,-0.1505,-0.2174,-0.0718,205.24
19:01:33:622,0.23,0.2711,12.2386,37.5307,-0.1127,0.0935,0.0549,205.46
19:01:33:641,0.7543,0.3866,11.308,37.5945,-0.1877,0.3256,0.0267,205.53
19:01:33:661,0.8659,0.8255,10.6125,37.5496,-0.4028,0.2154,-0.1873,205.4
19:01:33:681,0.1271,1.1414,11.2971,37.1195,-0.6099,-0.0108,-0.4817,205.31
19:01:33:704,-0.8656,0.4854,12.6249,36.9639,-0.5859,-0.0949,-0.6781,205.51
19:01:33:721,-1.7439,-0.5689,13.118,36.8074,-0.3709,0.028,-0.5833,206.07
19:01:33:741,-1.666,-1.2024,12.3637,36.6108,-0.0728,0.2745,-0.2245,206.85
19:01:33:761,-0.5121,-0.7665,10.6108,36.5403,0.1918,0.3932,0.0916,207.5
19:01:33:781,0.9481,0.1745,8.6727,36.5023,0.286,0.2457,0.1034,207.72
19:01:33:803,1.7138,0.9162,7.4906,36.2181,0.1412,0.0206,-0.1431,207.59
19:01:33:821,1.4377,1.085,7.6084,36.0048,-0.0999,-0.1764,-0.4529,207.47
19:01:33:843,0.7306,0.7387,8.2603,35.9377,-0.2511,-0.2014,-0.6568,207.64
19:01:33:861,-0.1284,0.4439,8.5501,35.9392,-0.315,-0.1003,-0.6669,208.17
19:01:33:881,-0.5736,0.5257,8.4802,35.6483,-0.3144,0.0275,-0.5487,208.92
19:01:33:904,-0.5154,0.8113,8.1916,35.4615,-0.2793,0.0834,-0.4433,209.68
19:01:33:921,-0.3737,1.0764,8.1562,35.3899,-0.1872,0.0855,-0.3981,210.29
19:01:33:942,-0.2936,1.236,8.0068,35.0688,-0.0509,0.1201,-0.3789,210.8
19:01:33:961,-0.2659,1.2756,7.76,34.6846,0.0656,0.1409,-0.3534,211.24
19:01:33:981,-0.3423,1.3623,7.6262,34.6478,0.1311,0.1627,-0.3012,211.67
19:01:34:004,-0.3498,1.5253,7.4477,34.4435,0.1306,0.1925,-0.2575,212.06
19:01:34:062,-0.2725,1.7368,7.3493,34.2079,0.0555,0.1813,-0.2661,212.38
19:01:34:063,-0.3336,1.8822,7.565,33.9252,-0.0541,0.1025,-0.3012,212.65
19:01:34:063,-0.5414,1.8027,8.3557,33.9081,-0.1047,0.0115,-0.3044,212.94
19:01:34:081,-0.7038,1.6453,9.1662,33.6249,-0.0834,0.0302,-0.2224,213.28
19:01:34:104,-0.6812,1.6897,9.6707,33.4434,-0.028,0.1824,-0.0664,213.63
19:01:34:122,-0.4823,1.9995,9.6284,33.3533,0.0395,0.3,0.0757,213.86
19:01:34:141,-0.3378,2.317,9.4631,33.2057,0.0768,0.3043,0.1608,213.9
19:01:34:161,-0.3428,2.4937,9.4704,33.0148,0.0688,0.2133,0.2173,213.78
19:01:34:181,-0.2641,2.3699,9.8893,33.0172,0.0236,0.0083,0.2146,213.58
19:01:34:204,-0.4621,1.7861,10.9055,32.7822,-0.0131,-0.2067,0.221,213.34
19:01:34:224,-0.9007,0.9462,12.1276,32.7357,-0.0142,-0.2035,0.3461,213.13
19:01:34:242,-0.9175,0.4766,12.6486,32.8508,-0.0265,0.1499,0.5771,212.9
19:01:34:262,-0.3904,0.947,12.0344,32.8659,-0.1127,0.4603,0.7384,212.47
19:01:34:281,0.4551,1.8588,11.4614,32.9618,-0.184,0.4512,0.6426,211.74
19:01:34:304,1.0509,2.1125,11.1381,33.0025,-0.2165,0.1733,0.2332,210.84
19:01:34:321,0.6061,1.3985,11.2836,33.2596,-0.2266,-0.1774,-0.2107,210.1
19:01:34:342,-0.5626,0.1537,11.9334,33.1918,-0.1718,-0.2727,-0.4976,209.87
19:01:34:361,-1.7254,-1.3537,12.05,33.078,-0.0025,0.0136,-0.5285,210.15
19:01:34:382,-2.6023,-2.2061,10.519,33.2336,0.1279,0.4257,-0.2501,210.67
19:01:34:404,-2.7255,-1.9921,8.372,33.2928,0.0736,0.4565,0.1486,211.21
19:01:34:422,-2.0691,-0.9777,7.3772,32.9302,-0.0834,-0.005,0.4254,211.45
19:01:34:441,-1.1137,0.0909,8.1385,33.0355,-0.2186,-0.5921,0.4648,211.32
19:01:34:461,-0.6176,0.755,9.8712,32.8353,-0.2202,-0.9589,0.3504,210.93
19:01:34:481,-0.3822,0.8834,11.2566,32.8673,-0.1627,-0.8194,0.1805,210.51
19:01:34:504,-0.5449,0.808,11.4306,32.7985,-0.0887,-0.3276,0.081,210.18
19:01:34:521,-0.7544,0.6545,10.4048,32.7184,0.0039,0.1302,0.1145,209.96
19:01:34:541,-0.9581,0.6782,8.6509,32.7339,0.0837,0.2484,0.2402,209.82
19:01:34:561,-0.7816,0.7888,7.4512,32.7269,0.171,0.0882,0.3983,209.67
19:01:34:581,-0.2095,1.098,6.7353,32.4302,0.2471,-0.112,0.4898,209.41
19:01:34:605,0.364,1.5296,6.2837,32.4796,0.2306,-0.2653,0.4366,208.98
19:01:34:621,0.5837,1.8904,6.4488,32.4134,0.1359,-0.3989,0.262,208.46
19:01:34:641,0.6074,1.9487,7.3396,32.5079,0.0688,-0.4787,0.0379,208.01
19:01:34:662,0.4141,1.7241,8.1701,32.5309,0.0252,-0.3819,-0.1532,207.76
19:01:34:681,-0.1017,1.4868,8.8584,32.6203,-0.0099,-0.2589,-0.256,207.74
19:01:34:705,-0.5034,1.3068,9.6028,32.5819,0.0385,-0.1758,-0.257,207.93
19:01:34:721,-0.6607,1.2423,10.3957,32.828,0.2381,-0.1194,-0.1564,208.24
19:01:34:742,-0.2944,1.5522,10.5428,32.9566,0.542,-0.0156,-0.0446,208.57
19:01:34:761,0.1923,2.0689,9.6964,33.142,0.7406,0.1323,-0.0893,208.77
19:01:34:781,0.4289,2.5584,8.5184,33.1268,0.6272,0.2308,-0.3081,208.82
19:01:34:801,-0.0411,2.3681,8.1299,33.1042,0.262,0.159,-0.5791,208.86
19:01:34:822,-1.0671,1.5096,9.3351,32.9793,-0.1079,0.0328,-0.6701,209.15
19:01:34:841,-1.9171,0.5742,11.381,32.8458,-0.2575,0.0903,-0.4992,209.77
19:01:34:861,-2.0178,0.1125,12.398,32.7397,-0.1696,0.2841,-0.2203,210.5
19:01:34:881,-1.4812,0.1175,11.4429,32.8927,-0.1409,0.4597,0.0027,211.04
19:01:34:905,-0.9152,0.585,10.3316,32.598,-0.332,0.3708,0.1183,211.22
19:01:34:921,-0.4552,1.1828,10.7435,32.2783,-0.4731,0.061,0.1342,211.16
19:01:34:941,-0.6,1.2757,11.7227,32.2834,-0.4491,-0.1705,0.0964,211.02
19:01:34:962,-0.7962,0.9333,12.503,32.2905,-0.3112,-0.1407,0.1353,210.9
19:01:34:982,-0.639,0.5978,12.4279,32.3924,-0.1271,0.1025,0.2114,210.81
19:01:35:001,0.0781,0.4892,11.4425,32.6267,0.0736,0.307,0.2332,210.64
19:01:35:021,1.0885,0.4983,10.0991,32.6507,0.2227,0.3091,0.1188,210.37
19:01:35:041,1.5597,0.4385,8.7299,32.6318,0.1923,0.119,-0.1511,210.07
19:01:35:062,1.0447,0.0633,8.2318,32.3335,-0.0163,-0.0832,-0.4093,209.92
19:01:35:081,0.1407,-0.3643,8.6106,32.2884,-0.2245,-0.2504,-0.4801,210.1
19:01:35:105,-0.5384,-0.4667,9.2846,32.213,-0.3198,-0.3308,-0.3502,210.6
19:01:35:121,-0.573,-0.2093,9.5159,32.0295,-0.3038,-0.2482,-0.1346,211.18
19:01:35:142,-0.1092,0.3486,9.1376,31.9896,-0.2442,-0.0609,0.04,211.61
19:01:35:161,0.4518,1.0382,8.3677,31.8457,-0.1713,0.0759,0.0794,211.76
19:01:35:181,0.6661,1.6099,7.6579,31.6636,-0.0871,0.0999,-0.001,211.71
19:01:35:201,0.5553,1.846,6.9775,31.446,-0.0227,0.0882,-0.1362,211.61
19:01:35:222,0.2091,1.7654,6.3181,31.3131,-0.0515,0.0392,-0.241,211.6
19:01:35:241,-0.2139,1.6653,6.5322,31.2456,-0.0909,-0.0694,-0.2464,211.77
19:01:35:261,-0.3855,1.5844,7.4373,31.2915,-0.0254,-0.1476,-0.1921,212.04
19:01:35:281,-0.4034,1.6485,8.1399,31.3711,0.0869,-0.1088,-0.1532,212.34
19:01:35:305,-0.4265,1.7279,8.3971,31.2206,0.1077,-0.0566,-0.1468,212.58
19:01:35:321,-0.4046,1.8509,8.9354,31.2406,0.056,0.0041,-0.1431,212.76
19:01:35:341,-0.3193,1.9959,9.7296,31.3026,0.0667,0.0605,-0.1639,212.92
19:01:35:361,-0.4796,2.0378,10.1787,31.2391,0.1423,0.1446,-0.1532,213.07
19:01:35:382,-0.6429,2.1394,10.1463,31.1214,0.2152,0.3032,-0.0478,213.24
19:01:35:401,-0.8064,2.3243,9.7543,31.1445,0.2317,0.4603,0.073,213.38
19:01:35:421,-1.0934,2.4992,9.5464,30.9997,0.2014,0.4177,0.1848,213.38
19:01:35:441,-1.2777,2.2289,10.02,31.0737,0.2019,0.1829,0.2774,213.26
19:01:35:462,-1.3523,1.4684,10.8528,31.0338,0.2344,-0.0944,0.3631,213.04
19:01:35:481,-1.1836,0.6875,11.3346,31.2085,0.2189,-0.1732,0.4813,212.75
19:01:35:501,-1.0123,0.6482,11.4591,31.4558,0.0161,-0.1396,0.558,212.36
19:01:35:521,-0.8257,1.0179,12.5656,31.4143,-0.1627,-0.1205,0.591,211.83
19:01:35:542,-0.5202,1.0287,13.4629,31.6496,-0.1015,-0.0997,0.5079,211.2
19:01:35:561,-0.6471,0.5008,13.0722,31.8111,0.0172,-0.2174,0.402,210.54
19:01:35:581,-0.72,-0.2528,12.7825,32.0565,0.0784,-0.2898,0.3323,209.99
19:01:35:601,-0.7548,-0.9927,12.2148,32.4154,0.1391,-0.0252,0.2694,209.58
19:01:35:622,-1.094,-1.3817,10.2749,32.3886,0.0369,0.3501,0.2726,209.19
19:01:35:641,-1.4382,-1.1276,8.7423,32.7169,-0.1585,0.4209,0.3631,208.81
19:01:35:661,-1.5615,-0.5678,8.3863,32.7042,-0.2133,0.0999,0.4456,208.44
19:01:35:681,-1.4125,-0.1015,8.6332,32.6471,-0.1595,-0.2924,0.5074,208.03
19:01:35:702,-1.1049,0.2497,9.201,32.8843,-0.1084,-0.4436,0.5425,207.58
19:01:35:721,-0.7396,0.5529,9.4951,32.9022,-0.0547,-0.3329,0.5276,207.06
19:01:35:741,-0.4134,0.8063,9.297,33.0415,0.0044,-0.1412,0.4792,206.48
19:01:35:761,-0.1537,1.0459,8.6909,33.1861,0.0619,-0.0034,0.4116,205.89
19:01:35:782,-0.0518,1.1848,8.1023,33.3875,0.1226,0.0392,0.3397,205.33
19:01:35:802,0.0092,1.2286,7.7881,33.7108,0.2046,0.0536,0.2865,204.86
19:01:35:821,0.0759,1.1978,7.538,33.874,0.2855,0.0791,0.2476,204.47
19:01:35:841,-0.017,1.3056,7.6478,33.9628,0.3419,0.1504,0.2279,204.13
19:01:35:862,-0.1517,1.4802,7.8184,34.2897,0.3957,0.2463,0.1928,203.83
19:01:35:881,-0.2105,1.5581,7.606,34.2418,0.376,0.3549,0.1252,203.53
19:01:35:901,-0.4284,1.7137,7.2931,34.5056,0.2711,0.3474,0.098,203.25
19:01:35:921,-0.6678,1.9374,7.3611,34.5859,0.1556,0.1808,0.1018,203.05
19:01:35:942,-0.7781,2.1315,8.0448,34.7728,0.1056,-0.0417,0.155,202.91
19:01:35:961,-0.4582,2.4944,9.0462,34.8892,0.1838,-0.1753,0.2066,202.8
19:01:35:982,-0.0527,2.9209,9.2175,34.7132,0.2243,-0.1066,0.1438,202.66
19:01:36:001,0.0862,3.2235,9.2339,34.6597,0.1311,0.0727,-0.01,202.45
19:01:36:022,-0.1353,3.2731,9.3484,34.8941,-0.003,0.159,-0.1894,202.26
19:01:36:041,-0.5831,2.8935,9.8017,34.9523,-0.0978,0.0397,-0.3289,202.24
19:01:36:061,-1.1083,2.0325,10.7764,34.8193,-0.1515,-0.1977,-0.3544,202.44
19:01:36:119,-1.0165,0.8343,11.7931,34.733,-0.184,-0.2472,-0.2916,202.84
19:01:36:120,-0.802,0.3103,11.9825,34.6081,-0.3799,-0.1924,-0.2261,203.29
19:01:36:127,-0.809,0.218,12.7891,34.562,-0.538,-0.1796,-0.1761,203.65
19:01:36:141,-1.2328,-0.1993,13.6116,34.4994,-0.43,-0.1333,-0.1144,203.93
19:01:36:161,-1.4168,-0.6171,13.1595,34.4656,-0.1888,0.0131,0.0704,204.15
19:01:36:181,-0.8985,-0.4206,11.8595,34.4554,-0.0318,0.102,0.2215,204.29
19:01:36:201,-0.124,-0.1022,10.9541,34.3266,0.0528,0.1228,0.2194,204.2
19:01:36:221,0.7511,0.2426,10.0575,34.0295,0.1407,0.1515,0.1097,203.94
19:01:36:241,1.5107,0.6423,8.7942,34.0908,0.1412,0.1111,-0.1436,203.67
19:01:36:262,1.5138,0.7149,7.8433,34.0644,-0.0174,-0.0912,-0.4864,203.52
19:01:36:281,0.8891,0.5195,8.0735,34.114,-0.2112,-0.3377,-0.7201,203.69
19:01:36:301,0.0962,0.0955,8.8927,33.7933,-0.348,-0.4276,-0.7893,204.29
19:01:36:321,-0.6773,-0.1862,9.8405,33.4763,-0.3278,-0.2892,-0.6435,205.16
19:01:36:342,-0.9963,0.0731,9.8426,33.1919,-0.1686,-0.0545,-0.3858,206.09
19:01:36:362,-0.7508,0.6904,9.0507,32.885,0.0198,0.0839,-0.1915,206.84
19:01:36:381,-0.3584,1.2681,7.9833,32.4357,0.1252,0.143,-0.1197,207.27
19:01:36:401,-0.2975,1.4929,7.0167,32.2312,0.1284,0.1723,-0.1186,207.48
19:01:36:422,-0.4415,1.4271,6.5773,32.0194,0.0656,0.1547,-0.1197,207.59
19:01:36:441,-0.3672,1.5011,6.846,31.8823,0.0619,0.1228,-0.0856,207.71
19:01:36:461,-0.0256,1.7701,7.1401,31.792,0.1077,0.1036,-0.1144,207.83
19:01:36:481,0.0382,2.0348,7.3573,31.7565,0.1465,0.0908,-0.1883,207.92
19:01:36:502,-0.1233,2.0348,7.4346,31.6362,0.1055,0.0296,-0.256,208.04
19:01:36:521,-0.2802,1.9355,7.9359,31.6549,0.0129,-0.0124,-0.2581,208.25
19:01:36:541,-0.444,1.8918,8.6729,31.7462,-0.0632,0.0025,-0.1963,208.54
19:01:36:561,-0.5645,1.9949,9.5165,31.8314,-0.0312,0.0946,-0.0659,208.83
19:01:36:582,-0.6991,2.2797,9.8034,31.7648,0.048,0.2196,0.0693,209.04
19:01:36:601,-0.7956,2.5591,9.7212,31.4649,0.0805,0.3075,0.1976,209.09
19:01:36:621,-0.8448,2.6855,9.9297,31.3619,0.0789,0.2409,0.3078,208.97
19:01:36:641,-0.8527,2.5409,10.5867,31.02,0.1034,0.0408,0.3764,208.71
19:01:36:662,-0.8094,1.9212,11.4119,30.9441,0.1508,-0.1274,0.4078,208.37
19:01:36:681,-0.8602,1.118,11.9686,30.9844,0.1838,-0.087,0.4898,207.97
19:01:36:701,-0.8579,0.8193,11.5426,30.8308,0.0283,0.1196,0.5915,207.52
19:01:36:723,-1.0354,1.1495,11.8372,30.6968,-0.1627,0.1499,0.7086,206.93
19:01:36:742,-0.8888,1.358,12.5817,30.5518,-0.1398,0.1047,0.7102,206.23
19:01:36:762,-0.8191,1.1268,12.5178,30.8323,-0.0238,0.0679,0.6155,205.41
19:01:36:781,-0.9976,0.688,12.0784,30.91,0.0486,-0.0571,0.5313,204.6
19:01:36:802,-1.1272,0.0629,11.957,30.7566,0.137,-0.1274,0.427,203.91
19:01:36:822,-1.3657,-0.7612,11.0177,30.8112,0.162,0.1009,0.3802,203.32
19:01:36:841,-1.4663,-0.8739,9.3149,31.028,0.0177,0.2697,0.4371,202.82
19:01:36:861,-1.2863,-0.2725,8.4386,30.895,-0.1585,0.069,0.4744,202.33
19:01:36:881,-0.9626,0.3698,8.793,30.9479,-0.2112,-0.3435,0.4126,201.83
19:01:36:902,-0.7616,0.725,9.5306,31.0303,-0.1989,-0.5495,0.3163,201.35
19:01:36:923,-0.4867,0.7592,9.8819,31.1486,-0.1713,-0.4095,0.2034,200.97
19:01:36:941,-0.7631,0.6535,9.4948,30.7633,-0.1792,-0.0965,0.1364,200.66
19:01:36:961,-0.9529,0.5123,8.9113,30.8928,-0.1276,0.1414,0.2029,200.43
19:01:36:982,-0.7274,0.4932,8.0527,30.8233,-0.0302,0.1861,0.3189,200.25
19:01:37:001,-0.4589,0.7709,7.4653,30.6905,0.0613,0.0184,0.4126,199.99
19:01:37:023,-0.0833,0.9558,7.413,30.4294,0.1529,-0.1295,0.4392,199.64
19:01:37:042,0.0787,1.1136,7.4899,30.4154,0.204,-0.137,0.419,199.2
19:01:37:061,0.2365,1.278,7.4345,30.24,0.1817,-0.0502,0.3519,198.73
19:01:37:081,0.2613,1.4478,7.4322,30.1521,0.0821,0.052,0.2476,198.25
19:01:37:101,-0.0001,1.4897,7.6985,30.0144,-0.0334,0.0962,0.1715,197.83
19:01:37:124,-0.132,1.6343,7.9471,30.1066,-0.0983,0.0679,0.1412,197.53
19:01:37:142,-0.2311,1.7742,8.2009,29.8374,-0.1563,0.0184,0.1374,197.32
19:01:37:161,-0.3223,1.9929,8.7348,29.8401,-0.1819,0.02,0.164,197.16
19:01:37:181,-0.3082,2.2328,9.1322,29.7385,-0.1702,0.0009,0.1667,197
19:01:37:202,-0.3547,2.3599,9.6227,29.8555,-0.1042,-0.0491,0.1364,196.81
19:01:37:224,-0.4481,2.1959,9.9524,29.7768,-0.0408,-0.1439,0.1108,196.63
19:01:37:241,-0.5705,1.9752,10.3253,29.7405,-0.0185,-0.2163,0.1294,196.5
19:01:37:261,-0.6611,1.7297,10.755,29.6467,-0.0392,-0.2472,0.1752,196.41
19:01:37:281,-0.5496,1.3799,11.1266,29.5637,-0.0674,-0.2094,0.1986,196.3
19:01:37:302,-0.389,0.6881,11.2198,29.3779,-0.102,-0.0816,0.2034,196.12
19:01:37:324,-0.0073,0.0992,10.7024,29.206,-0.2037,0.0355,0.212,195.9
19:01:37:343,-0.0669,0.2509,10.2152,29.2292,-0.4379,0.0855,0.1449,195.65
19:01:37:361,-0.7729,0.4632,10.498,29.4275,-0.6647,-0.0076,0.0389,195.38
19:01:37:382,-1.3439,0.0847,11.5264,29.3009,-0.6929,-0.1599,0.007,195.21
19:01:37:401,-1.6914,-0.3211,12.4107,29.2058,-0.5396,-0.2307,0.1523,195.19
19:01:37:424,-1.3031,-0.337,12.5909,29.2106,-0.2458,-0.1013,0.3551,195.22
19:01:37:441,-0.281,0.1462,11.5745,29.2322,0.0374,0.0733,0.3988,195.05
19:01:37:462,0.6818,0.8401,10.138,29.2378,0.1598,0.1547,0.2769,194.64
19:01:37:481,1.3222,1.3642,9.1029,29.3828,0.1061,0.0328,-0.0281,194.17
19:01:37:501,0.981,1.2569,9.4588,29.5894,-0.028,-0.2035,-0.3991,193.86
19:01:37:524,0.1287,0.4517,10.6596,29.6741,-0.0797,-0.2605,-0.6233,193.92
19:01:37:543,-0.9679,-0.3887,11.3547,29.3918,-0.0174,-0.0859,-0.5993,194.4
19:01:37:561,-1.7027,-0.8946,10.9146,29.284,0.1519,0.2266,-0.3454,195.1
19:01:37:581,-1.491,-0.7247,9.1441,29.354,0.3174,0.5034,0.0102,195.74
19:01:37:601,-0.7235,0.0666,6.9775,29.3357,0.3637,0.5156,0.2348,196.08
19:01:37:625,-0.0184,0.9177,5.6997,29.2282,0.3179,0.3038,0.2838,196.03
19:01:37:641,0.2971,1.4408,5.4639,29.2962,0.2062,0.0605,0.1901,195.76
19:01:37:661,0.2209,1.4631,6.0067,29.075,0.0954,-0.0417,0.0586,195.45
19:01:37:681,-0.083,1.3002,6.738,28.9403,0.0225,0.0073,-0.0223,195.24
19:01:37:701,-0.5146,1.0992,7.3073,28.8669,0.0001,0.0882,-0.0366,195.16
19:01:37:724,-0.7803,0.9307,7.569,28.9177,-0.0116,0.1313,0.0107,195.17
19:01:37:743,-0.7218,1.0341,7.8706,28.8399,-0.0461,0.0887,0.0762,195.19
19:01:37:762,-0.4972,1.2712,8.6225,28.9322,-0.0685,0.0578,0.0757,195.18
19:01:37:782,-0.3556,1.3544,9.6309,28.8967,-0.0515,0.2266,0.0379,195.09
19:01:37:801,-0.4959,1.3961,10.0681,28.9395,-0.0062,0.5561,0.0586,194.96
19:01:37:824,-0.5977,1.6096,10.0708,28.9505,0.0699,0.7994,0.147,194.83
19:01:37:841,-0.8181,2.0678,9.7873,29.0997,0.1646,0.81,0.2492,194.66
19:01:37:862,-0.9016,2.4592,9.3773,29.11,0.2365,0.5678,0.2913,194.41
19:01:37:881,-0.9509,2.6341,9.4066,29.1206,0.179,0.1978,0.3008,194.08
19:01:37:902,-0.8794,2.4174,10.4438,29.1396,0.0661,-0.0534,0.2748,193.76
19:01:37:924,-0.8942,1.8462,11.6441,29.2499,0.0134,-0.0672,0.2524,193.45
19:01:37:942,-0.9833,1.2157,12.0643,29.2143,-0.1143,0.1095,0.2471,193.15
19:01:37:961,-1.324,1.2274,12.4755,29.0394,-0.2634,0.1803,0.278,192.84
19:01:37:981,-1.8044,0.8714,12.7765,29.158,-0.2202,0.0131,0.2535,192.54
19:01:38:001,-2.6877,0.0662,12.0985,29.1464,-0.0967,-0.3446,0.3386,192.23
19:01:38:025,-2.8784,-0.536,11.9491,29.2084,-0.0179,-0.6177,0.5659,192
19:01:38:041,-1.9483,-0.6611,12.3219,29.4084,0.1348,-0.4724,0.7113,191.7
19:01:38:061,-1.3167,-0.6191,11.0759,29.5547,0.2439,-0.0683,0.6932,191.09
19:01:38:081,-0.8884,-0.561,9.0046,29.6651,0.1577,0.2452,0.6298,190.25
19:01:38:102,-0.5241,-0.3043,7.463,29.7253,-0.0941,0.184,0.5345,189.4
19:01:38:169,-0.2064,0.2914,7.8524,29.9133,-0.2948,-0.2616,0.4015,188.67
19:01:38:169,-0.0513,0.4445,9.3131,30.0012,-0.3363,-0.5671,0.1928,188.13
19:01:38:170,-0.4028,0.2502,10.4519,30.1649,-0.373,-0.4404,0.0432,187.76
19:01:38:181,-0.8015,0.0261,11.092,30.0875,-0.3565,-0.0103,0.0267,187.57
19:01:38:201,-0.9754,0.1806,10.6217,30.1339,-0.216,0.3921,0.0927,187.48
19:01:38:224,-0.808,0.4866,9.3654,30.1487,-0.0345,0.5529,0.1353,187.37
19:01:38:242,-0.7169,0.6087,7.9913,30.1971,0.0853,0.5348,0.1529,187.2
19:01:38:262,-0.639,0.6704,6.9158,30.1956,0.1263,0.4134,0.1891,186.99
19:01:38:281,-0.5031,0.739,6.3884,30.3375,0.1337,0.2383,0.2178,186.8
19:01:38:301,-0.497,0.8186,6.3029,30.2955,0.1135,0.0514,0.2194,186.58
19:01:38:324,-0.734,0.8775,6.7109,30.2919,0.0672,-0.1247,0.2082,186.35
19:01:38:342,-1.2143,0.8314,7.3341,30.2344,0.0007,-0.2387,0.2109,186.13
19:01:38:361,-1.5737,0.8595,8.296,30.3576,-0.0382,-0.2759,0.2492,185.93
19:01:38:381,-1.4471,1.0698,9.1716,30.4202,-0.0195,-0.2301,0.3035,185.72
19:01:38:401,-1.0885,1.4741,9.6173,30.525,0.0268,-0.1657,0.3323,185.45
19:01:38:425,-0.8348,1.8075,9.8398,30.611,0.1119,-0.1391,0.344,185.11
19:01:38:441,-0.5549,1.9926,9.8679,30.6256,0.1779,-0.0534,0.3275,184.74
19:01:38:461,-0.6063,2.0737,9.8729,30.5561,0.1582,0.0307,0.2966,184.34
19:01:38:481,-0.8471,2.0141,9.9898,30.6175,0.0656,0.0291,0.2471,183.96
19:01:38:503,-1.2095,1.8393,10.4626,30.8237,-0.0078,-0.1263,0.2444,183.62
19:01:38:521,-1.2544,1.3541,11.3803,30.8171,0.0119,-0.3068,0.2849,183.35
19:01:38:541,-0.9226,0.8075,12.0574,31.1545,0.0992,-0.3121,0.4078,183.14
19:01:38:561,-0.3119,0.623,11.8088,31.2266,0.1455,-0.1386,0.5431,182.85
19:01:38:581,0.2933,1.1393,10.8116,31.2952,0.0134,-0.0689,0.5154,182.38
19:01:38:602,0.454,1.703,10.6549,31.2396,-0.1569,-0.2802,0.3168,181.77
19:01:38:621,0.1813,1.5947,11.338,31.5338,-0.2522,-0.5208,0.0416,181.23
19:01:38:642,-0.6806,0.9912,12.3133,31.611,-0.1654,-0.5602,-0.1042,180.94
19:01:38:661,-1.28,0.3194,12.4735,31.8059,0.014,-0.3318,-0.1042,180.96
19:01:38:681,-1.3454,-0.2675,11.7376,31.9861,0.2024,0.0605,-0.0228,181.09
19:01:38:701,-0.9693,-0.4542,9.8083,32.071,0.2881,0.2154,0.0618,181.17
19:01:38:721,-0.3032,-0.2573,8.5343,32.0284,0.2285,-0.0449,0.0544,181.16
19:01:38:742,0.2021,0.0094,8.6582,32.1504,0.1359,-0.359,-0.0686,181.12
19:01:38:761,0.2063,-0.0342,9.1831,32.0982,0.0784,-0.4873,-0.2219,181.12
19:01:38:781,-0.1212,-0.1989,9.4253,32.219,0.0331,-0.351,-0.3161,181.26
19:01:38:801,-0.4364,-0.2531,9.0428,32.2254,-0.0164,-0.0369,-0.3257,181.55
19:01:38:825,-0.5669,-0.0229,8.2563,32.4238,-0.0717,0.2346,-0.2836,181.89
19:01:38:841,-0.585,0.2701,7.4665,32.4695,-0.0994,0.3208,-0.208,182.21
19:01:38:861,-0.5349,0.6401,6.9023,32.441,-0.0904,0.2447,-0.1175,182.48
19:01:38:882,-0.3762,1.0364,6.7228,32.4524,-0.0637,0.1499,-0.0547,182.7
19:01:38:901,-0.2753,1.3049,6.6681,32.3881,-0.068,0.1302,-0.0292,182.82
19:01:38:921,-0.1524,1.5821,6.8952,32.274,-0.0882,0.1654,-0.0191,182.87
19:01:38:941,-0.1434,1.7653,7.1203,32.3528,-0.1164,0.2,-0.0196,182.88
19:01:38:961,-0.1119,1.9488,7.4279,32.4216,-0.1542,0.1441,-0.0238,182.88
19:01:38:982,-0.0853,2.0332,8.067,32.2618,-0.1856,0.0488,-0.0244,182.89
19:01:39:001,-0.2865,1.9875,8.9266,32.0606,-0.2053,-0.0066,0.006,182.92
19:01:39:021,-0.4375,1.9432,9.9616,32.2045,-0.1521,0.0168,0.0943,182.96
19:01:39:041,-0.4985,1.9715,10.6922,32.1527,0.0033,0.1584,0.2056,182.95
19:01:39:062,-0.5083,2.1192,10.286,32.1958,0.1151,0.365,0.3189,182.81
19:01:39:081,-0.5908,2.3608,9.7479,32.2267,0.1226,0.4432,0.4217,182.52
19:01:39:101,-0.5342,2.4831,9.6803,32.2636,0.1412,0.3575,0.4877,182.1
19:01:39:121,-0.5708,2.3992,9.7782,32.1298,0.1614,0.1685,0.5164,181.6
19:01:39:142,-0.5993,1.9316,10.102,31.9748,0.1598,-0.0582,0.5345,181.04
19:01:39:161,-0.8693,1.396,10.7422,32.0767,0.1572,-0.1716,0.6176,180.48
19:01:39:181,-0.6493,1.1318,10.9723,32.0855,0.105,-0.1567,0.682,179.9
19:01:39:201,-0.6176,1.2982,11.3104,31.9398,-0.0813,-0.1088,0.6586,179.22
19:01:39:225,-0.6742,1.4548,12.3036,32.0584,-0.2091,-0.0215,0.5803,178.45
19:01:39:241,-0.8592,1.3434,12.9711,31.9737,-0.1925,0.086,0.4536,177.7
19:01:39:261,-1.2568,0.8818,13.014,31.9284,-0.1095,0.0472,0.378,177.01
19:01:39:281,-1.5341,0.2411,13.3601,31.9314,0.1082,-0.0018,0.3951,176.49
19:01:39:303,-1.502,-0.4442,12.4695,32.0334,0.418,0.2548,0.4371,176.06
19:01:39:321,-1.4033,-0.6281,9.7164,32.0284,0.4223,0.5268,0.5106,175.55
19:01:39:341,-0.9079,-0.3958,7.8517,32.1316,0.2328,0.3336,0.6282,174.96
19:01:39:361,-0.0986,0.3697,7.5871,32.0357,0.0624,-0.2062,0.6298,174.36
19:01:39:381,0.3197,1.0037,8.391,31.9249,-0.0345,-0.6773,0.4579,173.72
19:01:39:401,0.1667,1.053,9.5722,31.9347,-0.0898,-0.8168,0.2678,173.13
19:01:39:421,-0.3804,0.7973,10.2663,32.0922,-0.1095,-0.714,0.1976,172.72
19:01:39:441,-0.8511,0.6272,10.655,32.1292,-0.044,-0.4489,0.2364,172.51
19:01:39:461,-0.8265,0.5521,10.2764,32.3203,0.0369,-0.0428,0.2976,172.32
19:01:39:481,-0.7837,0.5848,9.0922,32.516,0.0986,0.2638,0.3786,172.04
19:01:39:501,-0.5856,0.7326,7.8097,32.5579,0.155,0.3644,0.4515,171.64
19:01:39:521,-0.2447,0.9052,6.8529,32.6881,0.1944,0.3,0.4536,171.16
19:01:39:542,-0.1072,1.0475,6.233,32.8382,0.17,0.1808,0.4137,170.61
19:01:39:561,-0.0426,1.2068,6.0706,32.6867,0.0885,0.0291,0.3344,170.07
19:01:39:581,-0.2255,1.2122,6.5792,32.7563,0.0081,-0.1279,0.2551,169.6
19:01:39:601,-0.3542,1.2455,7.3097,32.7416,-0.019,-0.2408,0.2237,169.25
19:01:39:622,-0.352,1.3965,7.9571,32.8588,-0.0238,-0.2413,0.1917,169
19:01:39:641,-0.4766,1.6246,8.3044,32.682,-0.0616,-0.2041,0.172,168.78
19:01:39:661,-0.8559,2.022,8.859,32.6838,-0.0744,-0.1668,0.221,168.59
19:01:39:681,-1.169,2.4236,9.3035,32.7166,0.0087,-0.1732,0.3786,168.42
19:01:39:702,-0.629,2.7021,9.41,32.6858,0.0928,-0.2589,0.5122,168.2
19:01:39:721,0.0636,2.9427,9.829,32.8945,0.0427,-0.343,0.5372,167.81
19:01:39:741,0.628,2.9494,11.2275,33.1506,-0.0339,-0.4032,0.4792,167.28
19:01:39:761,1.0031,2.4116,12.7924,33.4021,-0.0094,-0.4191,0.3488,166.73
19:01:39:781,0.8151,1.417,13.6582,33.6337,0.0826,-0.1604,0.3051,166.24
19:01:39:801,0.8484,0.6263,12.7683,33.6872,0.1332,0.3,0.361,165.86
19:01:39:821,1.1991,0.6641,11.1079,33.9119,0.0294,0.5183,0.3488,165.45
19:01:39:841,1.337,1.0035,10.1519,33.9597,-0.2133,0.3149,0.1257,164.95
19:01:39:862,0.4328,0.8543,11.0492,33.9363,-0.357,-0.1232,-0.1314,164.5
19:01:39:881,-0.6237,-0.1018,12.8376,34.1828,-0.1776,-0.2248,-0.1883,164.39
19:01:39:901,-1.0639,-1.0844,12.9776,34.2266,0.1332,0.2228,-0.0297,164.58
19:01:39:921,-0.6486,-1.1378,10.8044,34.2479,0.3616,0.7589,0.2125,164.74
19:01:39:942,0.6583,-0.3608,8.206,34.276,0.3387,0.7541,0.2465,164.65
19:01:39:961,1.4572,0.3824,6.8431,34.0212,0.0816,0.2878,0.0043,164.3
19:01:39:981,1.0121,0.6962,7.4523,34.0485,-0.2634,-0.3132,-0.3007,163.99
19:01:40:002,0.1957,0.3195,9.4659,33.9115,-0.4214,-0.5463,-0.4907,164.06
19:01:40:021,-0.8142,-0.1418,10.8137,33.9177,-0.3789,-0.3483,-0.4417,164.49
19:01:40:041,-1.2358,-0.2015,10.6125,33.9711,-0.2,0.0222,-0.1974,165.09
19:01:40:061,-0.9237,0.252,9.2476,33.9716,-0.0552,0.2942,0.0672,165.57
19:01:40:081,-0.2343,0.9083,7.6594,33.9525,0.0113,0.3437,0.2439,165.74
19:01:40:101,0.4752,1.5666,6.6401,33.9729,0.0353,0.2202,0.2828,165.62
19:01:40:121,0.9962,2.0143,6.1031,33.9454,0.0486,0.0717,0.1992,165.33
19:01:40:141,1.1687,2.2261,5.9559,34.0316,0.0214,-0.0305,0.0586,165.01
19:01:40:161,1.062,2.2688,6.2457,34.0025,-0.0147,-0.0385,-0.0824,164.79
19:01:40:224,0.7699,2.13,6.6061,34.0948,-0.0467,0.0014,-0.1974,164.72
19:01:40:224,0.356,1.9953,7.0455,34.1591,-0.118,0.0387,-0.2357,164.81
19:01:40:225,0.2074,1.9844,7.7816,34.3505,-0.1979,-0.0284,-0.2107,165.03
19:01:40:244,0.1575,2.0071,9.0467,34.3394,-0.1931,-0.1508,-0.1708,165.31
19:01:40:261,0.0396,1.9792,10.3263,34.4249,-0.1015,-0.1934,-0.1053,165.58
19:01:40:281,-0.1137,1.8735,11.3045,34.6201,0.039,-0.0252,0.0235,165.8
19:01:40:301,-0.1974,1.9627,11.4194,34.6143,0.1657,0.3985,0.2114,165.91
19:01:40:321,0.1243,2.3238,10.5457,34.8916,0.2147,0.7515,0.336,165.8
19:01:40:342,0.3093,2.6785,9.5831,35.032,0.2109,0.6961,0.3573,165.45
19:01:40:362,0.3642,2.6951,9.3511,35.1108,0.163,0.2441,0.2588,164.98
19:01:40:381,0.0106,2.0795,10.461,35.1002,0.0997,-0.1125,0.1507,164.58
19:01:40:401,-0.358,1.1112,11.5763,35.044,0.0278,0.0088,0.1571,164.32
19:01:40:422,-0.7834,0.6729,11.7329,34.98,-0.1132,0.2558,0.2865,164.15
19:01:40:442,-0.8661,1.0437,11.6611,34.7875,-0.2484,0.2867,0.4121,163.93
19:01:40:461,-0.5275,1.3973,11.992,34.6075,-0.2687,0.1308,0.378,163.58
19:01:40:481,-0.658,1.1063,12.1628,34.7347,-0.2122,-0.12,0.2556,163.1
19:01:40:502,-1.2656,0.4292,12.4645,34.5883,-0.1574,-0.3057,0.2221,162.7
19:01:40:521,-1.5631,-0.4216,13.0481,34.6186,0.0145,-0.1301,0.3195,162.45
19:01:40:541,-1.3801,-0.9454,11.9109,34.637,0.2402,0.2809,0.4882,162.19
19:01:40:561,-1.0267,-0.605,9.1931,34.4781,0.2168,0.4847,0.6149,161.75
19:01:40:582,-0.4671,0.0016,7.4549,34.5557,-0.0041,0.2415,0.5446,161.12
19:01:40:601,-0.4686,0.2791,7.5921,34.6375,-0.2383,-0.2711,0.3764,160.43
19:01:40:621,-0.8499,0.0099,9.3619,34.8291,-0.2708,-0.7135,0.3024,159.89
19:01:40:641,-1.0932,-0.1825,11.0709,34.9259,-0.1872,-0.7406,0.2971,159.57
19:01:40:662,-1.2459,-0.3812,11.7629,35.0146,-0.0345,-0.319,0.3669,159.3
19:01:40:681,-1.026,-0.342,10.7364,34.7988,0.1189,0.2149,0.4888,158.96
19:01:40:702,-0.5855,0.0332,8.6806,34.8033,0.1763,0.4991,0.5691,158.46
19:01:40:721,-0.1481,0.3434,7.1686,34.8939,0.2115,0.4656,0.5931,157.83
19:01:40:743,0.1366,0.618,6.2519,35.1424,0.1854,0.2958,0.5548,157.13
19:01:40:761,0.1636,0.7927,5.8673,35.18,0.1066,0.0738,0.4712,156.43
19:01:40:782,-0.0304,0.9568,6.3043,35.2007,0.0305,-0.1146,0.3818,155.81
19:01:40:801,-0.2945,0.9957,7.0209,35.1909,-0.0233,-0.1705,0.3211,155.3
19:01:40:822,-0.4408,1.149,7.5824,35.2754,-0.0744,-0.1061,0.3083,154.9
19:01:40:844,-0.5154,1.4543,8.0629,35.2346,-0.1084,-0.0657,0.2987,154.54
19:01:40:861,-0.4331,1.7327,8.4886,35.3431,-0.0994,-0.0587,0.2929,154.2
19:01:40:881,-0.335,1.999,8.7804,35.4486,-0.0627,-0.154,0.2977,153.86
19:01:40:902,-0.0034,2.2595,9.2158,35.543,-0.0084,-0.2743,0.2971,153.55
19:01:40:921,0.4776,2.5829,9.7646,35.6285,0.0395,-0.2871,0.2247,153.25
19:01:40:941,0.7092,2.7447,10.1437,35.7414,0.0204,-0.1269,0.0624,152.93
19:01:40:962,0.475,2.5425,10.2586,35.9985,-0.0685,0.0812,-0.0946,152.68
19:01:40:982,-0.1438,2.0236,10.6751,36.1313,-0.1255,0.0892,-0.1319,152.59
19:01:41:001,-0.7137,1.216,11.319,36.2053,-0.1037,-0.0694,-0.0345,152.69
19:01:41:021,-0.7479,0.5319,11.7052,36.4277,-0.0627,-0.1609,0.1513,152.86
19:01:41:043,-0.2202,0.0914,11.3574,36.7837,-0.1563,-0.0933,0.2306,152.92
19:01:41:062,-0.3982,0.1851,11.0352,36.9942,-0.4395,-0.0577,0.2588,152.76
19:01:41:081,-1.0706,0.2072,12.1086,37.3405,-0.6275,-0.1556,0.328,152.51
19:01:41:101,-1.4937,0.2823,13.52,37.4515,-0.5018,-0.1668,0.4925,152.25
19:01:41:121,-1.284,0.4914,13.7928,37.3465,-0.1004,0.0286,0.6857,151.88
19:01:41:144,-0.4944,0.708,12.492,37.5984,0.3573,0.2601,0.7315,151.28
19:01:41:161,0.41,0.9951,10.3498,37.5984,0.5942,0.415,0.6532,150.43
19:01:41:181,1.3703,1.3986,8.5397,37.6158,0.5564,0.3341,0.4249,149.53
19:01:41:201,1.6185,1.7685,7.9818,37.6674,0.3701,0.0152,0.0102,148.76
19:01:41:222,1.2211,1.4783,8.7432,37.6526,0.2434,-0.286,-0.4375,148.3
19:01:41:244,0.76,0.7719,9.2966,37.4661,0.122,-0.3073,-0.7792,148.35
19:01:41:261,-0.1559,-0.0991,9.5464,37.5184,0.0145,-0.1466,-0.9261,148.88
19:01:41:281,-0.8917,-0.8959,9.5187,37.4609,0.0076,0.0605,-0.816,149.78
19:01:41:302,-1.1929,-1.2662,8.9447,37.5273,0.0832,0.34,-0.4902,150.82
19:01:41:321,-0.9732,-0.8244,7.5072,37.3966,0.1423,0.4917,-0.1474,151.7
19:01:41:344,-0.475,-0.1137,6.2334,37.3968,0.13,0.3889,0.04,152.19
19:01:41:361,-0.0647,0.5645,5.545,37.4173,0.056,0.1973,0.1002,152.32
19:01:41:382,0.2344,0.9625,5.5444,37.4372,-0.0616,0.0286,0.0656,152.27
19:01:41:402,0.2484,1.0942,6.2522,37.328,-0.1468,-0.0555,0.0288,152.17
19:01:41:421,0.2709,1.2034,6.9632,37.3563,-0.1718,-0.0369,0.0097,152.12
19:01:41:444,0.3249,1.4217,7.4187,37.2636,-0.1931,-0.047,0.0054,152.09
19:01:41:462,0.48,1.7274,8.0646,37.4578,-0.2064,-0.0891,-0.0068,152.09
19:01:41:482,0.5743,2.0297,8.7995,37.7029,-0.1931,-0.0561,-0.0558,152.09
19:01:41:501,0.4732,2.119,9.3019,37.8889,-0.1478,0.0626,-0.0984,152.1
19:01:41:521,0.2177,2.1328,9.5457,37.9116,-0.0659,0.1723,-0.0861,152.15
19:01:41:544,0.0097,2.1607,9.5259,38.1627,-0.0195,0.3059,-0.0286,152.23
19:01:41:561,-0.2682,2.2908,9.4876,38.2398,-0.0419,0.4124,0.0501,152.28
19:01:41:581,-0.5375,2.4372,9.7234,38.6505,-0.085,0.3431,0.1039,152.27
19:01:41:601,-0.8919,2.305,10.4674,38.8481,-0.0951,0.0679,0.1295,152.19
19:01:41:622,-1.2078,1.8494,11.8044,39.179,-0.0563,-0.2616,0.1656,152.09
19:01:41:644,-1.4121,1.0663,13.2031,39.365,-0.0147,-0.2445,0.2774,151.99
19:01:41:661,-1.4529,0.5029,13.6118,39.4594,-0.0094,-0.0023,0.4478,151.82
19:01:41:681,-1.002,0.6048,13.4097,39.6114,-0.0355,0.3006,0.6048,151.48
19:01:41:702,-0.4892,1.1675,12.716,39.7404,-0.0563,0.4262,0.583,150.92
19:01:41:721,-0.5751,1.3553,11.9599,40.0735,-0.0584,0.2271,0.4105,150.15
19:01:41:745,-1.3282,0.8735,11.9836,40.439,-0.0174,-0.0177,0.2732,149.51
19:01:41:762,-1.9709,-0.1214,12.0337,40.6498,0.1289,0.0083,0.2774,149.06
19:01:41:782,-2.3175,-0.9272,10.7699,41.0091,0.2509,0.1978,0.3961,148.72
19:01:41:801,-2.2849,-1.0749,8.8763,41.182,0.2344,0.2569,0.5936,148.36
19:01:41:821,-1.7193,-0.7195,7.3187,41.3811,0.0619,-0.0034,0.731,147.88
19:01:41:844,-0.9919,-0.0195,7.2854,41.7186,-0.1867,-0.4521,0.7294,147.25
19:01:41:862,-0.4315,0.3965,8.527,41.9716,-0.3341,-0.8168,0.6085,146.52
19:01:41:881,-0.1116,0.6726,9.878,42.2527,-0.4135,-0.8258,0.452,145.81
19:01:41:901,0.2373,0.7855,10.7702,42.4594,-0.3544,-0.5043,0.27,145.2
19:01:41:921,0.0907,0.6874,10.2404,42.7311,-0.2192,-0.0939,0.1161,144.68
19:01:41:944,-0.1878,0.4139,8.8843,42.8686,-0.1361,0.2,0.0677,144.33
19:01:41:961,-0.3262,0.1969,7.6365,43.0482,-0.1068,0.2766,0.1028,144.15
19:01:41:981,-0.1908,0.0908,6.951,43.1228,-0.0861,0.1536,0.1672,144.04
19:01:42:001,-0.107,0.2325,7.0379,43.3842,-0.0467,-0.0853,0.2263,143.93
19:01:42:022,-0.0098,0.3591,7.6657,43.3976,0.0693,-0.2248,0.2577,143.76
19:01:42:045,0.2035,0.6134,7.8813,43.5589,0.1551,-0.1471,0.237,143.52
19:01:42:061,0.345,1.0467,7.9173,43.6646,0.1039,0.0269,0.1614,143.22
19:01:42:081,0.2481,1.3559,8.0657,43.7223,0.0241,0.1579,0.0725,142.93
19:01:42:102,0.0316,1.5925,8.2617,43.8991,0.0017,0.1297,0.032,142.73
19:01:42:121,-0.1555,1.8651,8.7817,44.2381,0.0422,-0.0396,0.0374,142.64
19:01:42:144,-0.1739,1.9939,9.4829,44.3871,0.1375,-0.1636,0.065,142.62
19:01:42:161,-0.0842,2.2012,9.9839,44.771,0.2077,-0.1152,0.073,142.59
19:01:42:182,-0.1072,2.2593,10.2248,45.0335,0.1699,0.0594,0.0299,142.51
19:01:42:201,-0.4016,2.1481,10.6289,45.3791,0.1077,0.1616,0.0075,142.42
19:01:42:221,-0.6139,1.8545,11.0367,45.6849,0.0773,0.0866,-0.0031,142.37
19:01:42:291,-0.8217,1.1774,11.5478,46.0926,0.0869,-0.1285,0.0086,142.36
19:01:42:292,-0.7129,0.2156,12.3378,46.4444,0.1412,-0.2339,0.13,142.39
19:01:42:292,0.2399,-0.4878,12.1548,46.6698,0.1572,-0.0672,0.2189,142.4
19:01:42:301,0.5651,-0.4102,11.0394,46.7982,-0.0211,0.0269,0.2114,142.25
19:01:42:321,0.5984,-0.014,10.8717,47.1171,-0.2506,-0.1226,0.1055,142.01
19:01:42:345,0.2004,-0.0981,11.875,47.3097,-0.2815,-0.2498,-0.0206,141.8
19:01:42:361,-0.3399,-0.5771,12.2777,47.4838,-0.0696,-0.1482,-0.0036,141.71
19:01:42:381,-0.3913,-0.8893,11.3512,47.6515,0.1689,0.0866,0.1225,141.72
19:01:42:401,0.2461,-0.7459,9.4941,47.7765,0.2631,0.2053,0.2279,141.69
19:01:42:422,1.2427,-0.4171,8.0271,47.9198,0.1556,0.0088,0.1539,141.51
19:01:42:445,1.6565,0.065,7.6251,47.9404,-0.1223,-0.3063,-0.0856,141.27
19:01:42:461,1.2266,0.1772,8.5416,47.8456,-0.3783,-0.5479,-0.3475,141.17
19:01:42:481,0.5218,-0.0488,9.6688,47.902,-0.4688,-0.5431,-0.495,141.34
19:01:42:502,-0.119,-0.3601,10.19,47.8633,-0.3794,-0.2706,-0.454,141.79
19:01:42:521,-0.5038,-0.3116,9.5851,47.8868,-0.2538,0.0775,-0.2799,142.37
19:01:42:541,-0.4402,0.1211,8.4098,48.0013,-0.192,0.2548,-0.0973,142.83
19:01:42:561,-0.0358,0.6932,7.7061,47.9965,-0.1452,0.2149,-0.0047,143.11
19:01:42:582,0.3207,1.2324,7.6737,48.0708,-0.0307,0.135,0.0091,143.22
19:01:42:601,0.6045,1.5638,7.5489,48.0127,0.0917,0.1222,-0.0441,143.22
19:01:42:621,0.6919,1.7474,7.299,48.0533,0.1465,0.2005,-0.1144,143.19
19:01:42:641,0.7093,1.8908,7.122,48.2698,0.1556,0.2681,-0.1857,143.22
19:01:42:662,0.656,2.0822,7.2186,48.2648,0.1673,0.2165,-0.2437,143.33
19:01:42:682,0.5802,2.2225,7.548,48.3069,0.1811,0.0802,-0.2943,143.53
19:01:42:701,0.4905,2.1636,8.1907,48.2717,0.1678,0.0041,-0.3204,143.82
19:01:42:721,0.4447,2.072,8.959,48.1097,0.1407,0.0509,-0.3262,144.16
19:01:42:745,0.3171,1.9115,9.6261,48.3035,0.1013,0.1755,-0.3358,144.52
19:01:42:761,-0.2856,1.417,9.9639,48.4217,0.0683,0.3756,-0.2687,144.89
19:01:42:781,-0.8051,0.7523,9.9311,48.5667,0.0571,0.4938,-0.0127,145.21
19:01:42:802,-0.862,0.5406,9.8251,48.7903,0.0374,0.3921,0.386,145.48
19:01:42:822,-0.2118,0.7097,10.5845,49.0061,0.0811,0.0701,0.6958,145.47
19:01:42:841,0.5561,0.8652,11.6739,49.0426,0.1902,-0.1556,0.7863,145.05
19:01:42:861,1.0394,0.7554,11.9437,49.2647,0.1817,0.0413,0.69,144.28
19:01:42:881,0.8995,0.8404,11.3851,49.6584,-0.0462,0.2319,0.5367,143.36
19:01:42:902,0.6107,1.2824,11.635,49.9736,-0.2703,0.1473,0.361,142.56
19:01:42:921,0.061,1.1748,12.6079,50.3524,-0.3022,-0.1503,0.1092,141.96
19:01:42:941,-0.9353,0.3905,13.4091,50.5534,-0.1787,-0.2802,-0.0036,141.59
19:01:42:961,-1.6987,-0.4134,13.2936,50.8555,0.0044,-0.1162,0.064,141.48
19:01:42:982,-1.9269,-0.8354,11.8127,51.1879,0.1524,0.1813,0.1869,141.46
19:01:43:001,-1.7276,-0.6707,9.6158,51.4326,0.0736,0.3251,0.2466,141.33
19:01:43:021,-1.6741,-0.4282,8.3153,51.8378,-0.1138,0.0871,0.2396,141.09
19:01:43:041,-1.7076,-0.3678,8.5441,52.04,-0.2319,-0.3473,0.237,140.84
19:01:43:062,-1.4875,-0.4009,9.4133,52.0871,-0.249,-0.5793,0.2631,140.64
19:01:43:081,-1.1048,-0.2964,9.8877,52.2119,-0.2059,-0.4771,0.2939,140.43
19:01:43:101,-0.7816,-0.1711,9.6724,52.2184,-0.1303,-0.1907,0.3163,140.15
19:01:43:121,-0.5163,-0.0289,8.7009,52.2172,-0.0483,0.0738,0.3509,139.79
19:01:43:145,-0.1981,0.1648,7.4776,52.2744,-0.0227,0.1489,0.3674,139.39
19:01:43:161,0.0938,0.3562,6.8025,52.5075,-0.0286,0.0254,0.361,138.97
19:01:43:181,0.1914,0.4347,6.7294,52.5337,-0.0259,-0.1498,0.3472,138.56
19:01:43:201,0.2975,0.4659,6.8306,52.7001,-0.0281,-0.2222,0.3307,138.17
19:01:43:221,0.3962,0.6684,6.9781,52.9158,-0.085,-0.2211,0.2977,137.79
19:01:43:241,0.4608,0.932,7.4279,53.1745,-0.1803,-0.17,0.2407,137.43
19:01:43:262,0.3537,1.1551,8.0095,53.3497,-0.2378,-0.1354,0.1763,137.1
19:01:43:281,0.2074,1.3938,8.6836,53.4198,-0.1995,-0.2051,0.1433,136.83
19:01:43:302,0.2119,1.6071,9.2521,53.7118,-0.0914,-0.278,0.1555,136.64
19:01:43:321,0.3893,1.8659,9.6706,53.8861,0.0241,-0.2695,0.1928,136.48
19:01:43:341,0.7414,2.1985,9.8372,54.0021,0.0975,-0.2163,0.1955,136.31
19:01:43:361,1.272,2.3709,9.8646,54.2342,0.0954,-0.1774,0.0922,136.08
19:01:43:382,1.2847,2.0199,10.2755,54.349,0.0204,-0.2078,-0.0962,135.86
19:01:43:401,0.8094,0.9868,11.3835,54.5024,-0.0478,-0.203,-0.1788,135.77
19:01:43:421,0.0309,-0.1485,12.3632,54.6051,-0.044,-0.0577,-0.0175,135.89
19:01:43:441,-0.1839,-0.5989,12.5155,54.9151,0.0869,0.0584,0.32,136.08
19:01:43:462,0.5502,-0.4418,11.6138,55.2293,0.2242,0.1536,0.542,136.08
19:01:43:481,1.4803,0.0465,10.0168,55.3966,0.072,0.135,0.4941,135.69
19:01:43:502,1.8133,0.8277,9.4742,55.5397,-0.3634,-0.1343,0.2338,135.07
19:01:43:521,1.1933,1.0241,11.3786,55.6274,-0.6642,-0.5426,-0.1394,134.56
19:01:43:542,0.1687,0.0791,13.6581,55.7224,-0.513,-0.5655,-0.3816,134.36
19:01:43:562,-1.0772,-1.0889,14.441,55.6978,-0.1026,-0.0758,-0.2751,134.53
19:01:43:581,-1.1893,-1.6761,12.663,55.6889,0.3611,0.5034,0.048,134.89
19:01:43:601,0.0469,-1.28,9.4571,55.6488,0.6134,0.6157,0.2168,135.11
19:01:43:622,1.3238,-0.507,6.8497,55.5486,0.5042,0.2777,0.0837,135.01
19:01:43:641,1.8786,0.2786,6.0982,55.5654,0.0768,-0.2163,-0.281,134.79
19:01:43:661,1.5699,0.2033,7.8457,55.5307,-0.2841,-0.5815,-0.6829,134.78
19:01:43:681,0.5479,-0.6359,9.6301,55.3733,-0.3395,-0.6597,-0.8814,135.18
19:01:43:702,-0.3036,-1.4051,10.13,55.2701,-0.2218,-0.4782,-0.7803,136
19:01:43:721,-0.5301,-1.5683,9.5039,54.9311,-0.1356,-0.1524,-0.5189,137
19:01:43:741,-0.3882,-1.1501,8.6151,54.7412,-0.1154,0.1728,-0.2352,137.87
19:01:43:761,0.1837,-0.643,7.8019,54.4683,-0.0978,0.4092,-0.0366,138.42
19:01:43:782,0.679,-0.017,7.2039,54.341,-0.0286,0.4289,0.1076,138.65
19:01:43:801,1.2492,0.6503,6.9556,54.1206,0.0944,0.324,0.1555,138.68
19:01:43:821,1.5607,1.1594,6.6847,53.607,0.1513,0.2335,0.0837,138.56
19:01:43:841,1.5731,1.4925,6.9496,53.2132,0.1034,0.2282,-0.0377,138.39
19:01:43:862,1.5091,1.613,7.3837,52.8925,0.0241,0.3426,-0.1479,138.29
19:01:43:881,1.1389,1.7461,7.8747,52.7745,-0.0286,0.3831,-0.2176,138.31
19:01:43:901,0.789,1.7741,8.6071,52.7928,0.0129,0.3341,-0.2336,138.46
19:01:43:921,0.4788,1.7872,9.0873,52.4878,0.064,0.2756,-0.2118,138.71
19:01:43:942,0.3465,1.912,9.7661,52.4648,0.0805,0.3224,-0.1537,138.97
19:01:43:961,0.1266,1.9259,10.4801,52.2984,0.1284,0.489,-0.0835,139.2
19:01:43:981,-0.1559,1.9222,10.5512,52.0696,0.1896,0.6631,0.0022,139.33
19:01:44:001,-0.3123,1.978,10.1594,51.8333,0.1753,0.621,0.0688,139.38
19:01:44:022,-0.4778,1.7991,10.2127,51.7449,0.1125,0.3032,0.0996,139.36
19:01:44:041,-0.6224,1.1935,11.2821,51.4446,0.0933,0.0339,0.147,139.3
19:01:44:061,-0.6027,0.4785,11.9976,51.0744,0.1045,0.0898,0.262,139.22
19:01:44:081,-0.4147,0.4666,11.771,50.8145,0.0028,0.226,0.3759,139.04
19:01:44:101,-0.1402,0.8528,11.8576,50.8246,-0.1382,0.1941,0.403,138.73
19:01:44:121,0.1351,0.8836,12.4499,50.6668,-0.1606,0.0078,0.2897,138.31
19:01:44:141,-0.1839,0.415,12.8504,50.5685,-0.06,-0.1572,0.1433,137.87
19:01:44:161,-0.7715,-0.2755,12.8921,50.3849,0.0401,-0.0454,0.0916,137.55
19:01:44:182,-1.1831,-0.9984,12.1185,50.4836,0.1817,0.3458,0.1337,137.36
19:01:44:202,-1.4684,-1.3191,9.7919,50.2853,0.2423,0.604,0.2492,137.18
19:01:44:221,-1.4426,-1.2212,7.4383,50.4199,0.1162,0.4022,0.3573,136.96
19:01:44:241,-1.2575,-0.9096,6.5036,50.3246,-0.1627,-0.1593,0.3839,136.69
19:01:44:262,-0.7653,-0.4968,7.3422,50.3664,-0.4773,-0.6901,0.3227,136.39
19:01:44:281,-0.2051,-0.1644,9.2417,50.0729,-0.6573,-0.7417,0.1614,136.08
19:01:44:343,-0.2104,-0.1364,10.3823,50.0048,-0.6876,-0.2924,-0.027,135.77
19:01:44:343,-0.5359,-0.323,10.1302,49.8335,-0.62,0.2819,-0.1096,135.54
19:01:44:344,-0.7611,-0.4483,9.2022,49.7543,-0.4981,0.6343,-0.0696,135.49
19:01:44:362,-0.935,-0.5034,8.2754,49.5403,-0.3129,0.6173,0.048,135.55
19:01:44:381,-0.8445,-0.4659,7.7291,49.6515,-0.1111,0.3426,0.1683,135.62
19:01:44:401,-0.7902,-0.3302,7.5664,49.4847,0.0252,0.0759,0.2498,135.58
19:01:44:421,-0.6394,-0.2106,7.7559,49.2432,0.1423,-0.0571,0.2886,135.41
19:01:44:441,-0.6759,-0.235,7.5227,49.0441,0.1971,-0.08,0.2971,135.12
19:01:44:461,-0.7052,-0.0108,7.1714,49.0338,0.1343,-0.1327,0.3222,134.78
19:01:44:481,-0.3483,0.2996,6.9909,49.0851,-0.0302,-0.3526,0.2987,134.46
19:01:44:502,-0.0621,0.8143,7.6484,49.0475,-0.1239,-0.6933,0.2338,134.15
19:01:44:521,-0.0675,0.9963,8.8396,49.1125,-0.102,-0.9834,0.1172,133.87
19:01:44:541,-0.2684,0.9118,10.2713,48.9391,-0.0723,-0.9387,0.0491,133.63
19:01:44:563,-0.2422,0.7616,11.7527,48.806,0.0108,-0.4654,0.0783,133.47
19:01:44:582,-0.0497,0.9323,11.6574,48.8325,0.1747,0.0802,0.1188,133.32
19:01:44:601,0.2051,1.1666,10.6119,49.0398,0.2652,0.2276,0.0948,133.12
19:01:44:621,0.3923,1.4026,10.0151,49.2021,0.2439,0.0472,-0.0105,132.96
19:01:44:641,0.3741,1.1506,10.2512,49.2033,0.1199,-0.1466,-0.1532,132.88
19:01:44:662,0.1145,0.4578,11.3288,48.9631,0.0172,-0.1716,-0.1734,132.93
19:01:44:681,0.3179,-0.1792,12.187,48.9399,0.0438,0.0051,-0.101,133.12
19:01:44:701,0.8117,-0.2765,12.0099,48.8929,0.0523,0.2021,-0.117,133.29
19:01:44:721,0.9142,-0.14,11.5971,48.9991,0.0156,0.2495,-0.2469,133.38
19:01:44:742,0.3882,-0.2802,11.207,49.0289,-0.0941,0.151,-0.4252,133.51
19:01:44:764,-0.6981,-0.7716,11.7315,48.9357,-0.0951,0.0211,-0.4321,133.82
19:01:44:781,-0.9758,-1.2891,12.4464,48.8585,0.1715,0.0168,-0.2432,134.32
19:01:44:801,-0.3335,-1.4317,11.9028,48.8123,0.4728,0.2181,-0.0462,134.79
19:01:44:822,0.9163,-1.3178,10.3141,48.8104,0.5788,0.3261,-0.0308,135
19:01:44:841,1.5916,-1.0232,8.9042,48.9411,0.3861,0.225,-0.2352,135.02
19:01:44:865,1.2839,-0.8013,9.06,48.8816,0.0613,0.0807,-0.4816,135.09
19:01:44:881,0.4104,-0.8751,10.2998,48.6647,-0.0653,0.1212,-0.6179,135.41
19:01:44:902,-0.458,-1.0721,10.4544,48.6844,0.0294,0.3282,-0.5753,135.97
19:01:44:921,-0.7785,-0.8849,9.1672,48.6207,0.1125,0.5454,-0.3874,136.63
19:01:44:941,-0.6701,-0.1671,7.7386,48.5676,0.1348,0.5619,-0.207,137.23
19:01:44:964,-0.3266,0.6195,6.8146,48.4683,0.1343,0.4267,-0.1441,137.65
19:01:44:982,-0.1251,1.1463,6.3157,48.2508,0.1194,0.2819,-0.1867,137.88
19:01:45:001,-0.0924,1.3737,6.2017,48.2735,0.0784,0.2111,-0.2682,138.04
19:01:45:021,-0.3243,1.402,6.286,48.1217,0.039,0.1739,-0.3225,138.26
19:01:45:041,-0.5871,1.4501,6.501,48.0077,0.015,0.1084,-0.3331,138.57
19:01:45:064,-0.6731,1.5305,6.83,48.0293,-0.0227,0.0482,-0.3118,138.95
19:01:45:081,-0.5624,1.7713,7.6163,47.8474,-0.0424,-0.0193,-0.2842,139.34
19:01:45:101,-0.346,1.9886,8.5371,47.7049,-0.0041,-0.0124,-0.2985,139.71
19:01:45:121,-0.4026,2.1247,9.1968,47.5747,0.0486,0.0855,-0.3342,140.02
19:01:45:142,-0.7199,1.979,9.5826,47.4877,0.0773,0.1973,-0.3539,140.34
19:01:45:164,-1.2605,1.6751,10.0045,47.3501,0.1098,0.3203,-0.273,140.7
19:01:45:181,-1.5564,1.4431,10.0721,47.165,0.1737,0.4299,-0.0909,141.07
19:01:45:201,-1.4214,1.3583,9.5491,47.1936,0.1763,0.3676,0.0922,141.33
19:01:45:222,-1.0561,1.1621,9.6622,47.295,0.0773,0.1164,0.1923,141.42
19:01:45:241,-0.8154,0.7191,10.5229,47.3221,-0.0233,-0.1301,0.2428,141.35
19:01:45:265,-0.5253,0.3061,11.2555,47.4148,-0.1367,-0.2317,0.2748,141.18
19:01:45:281,-0.4472,0.2564,11.9481,47.5652,-0.3001,-0.2296,0.2679,140.95
19:01:45:302,-0.4085,0.3082,12.7136,47.7377,-0.4129,-0.1641,0.1795,140.68
19:01:45:321,-0.883,0.1035,13.3594,47.9597,-0.4241,-0.1822,0.0815,140.4
19:01:45:342,-1.463,-0.3063,14.056,48.2745,-0.3421,-0.1737,0.0709,140.2
19:01:45:365,-1.9984,-0.5887,14.5267,48.5945,-0.1233,0.0216,0.1694,140.1
19:01:45:382,-2.1921,-0.821,13.4008,48.542,0.2019,0.3889,0.3291,139.95
19:01:45:401,-2.0781,-0.7926,10.5186,48.5144,0.336,0.6189,0.4638,139.63
19:01:45:421,-1.7646,-0.5761,7.9953,48.6114,0.2344,0.4635,0.5111,139.18
19:01:45:441,-1.6084,-0.294,7.0365,48.5947,0.0124,-0.0545,0.4893,138.66
19:01:45:465,-1.5994,-0.0303,8.1047,48.8033,-0.0792,-0.673,0.4504,138.18
19:01:45:481,-1.4283,0.0048,9.616,49.041,-0.0526,-0.8748,0.3961,137.74
19:01:45:501,-1.4558,-0.099,10.349,49.0267,-0.0313,-0.615,0.3722,137.28
19:01:45:521,-1.539,-0.0772,10.1995,49.0012,0.0001,-0.2269,0.3786,136.82
19:01:45:542,-1.6051,-0.0114,9.4515,49.0478,0.0475,0.0536,0.4105,136.36
19:01:45:565,-1.5882,0.0887,8.5127,49.206,0.1204,0.1473,0.4872,135.89
19:01:45:581,-1.3882,0.1978,7.6802,49.3699,0.2072,0.1025,0.5628,135.39
19:01:45:602,-1.038,0.3493,7.0204,49.5424,0.2743,0.0136,0.6224,134.81
19:01:45:622,-0.5649,0.6078,6.532,49.8243,0.2982,-0.0401,0.6447,134.16
19:01:45:641,0.0088,0.9754,6.0812,49.9028,0.2647,-0.1247,0.5755,133.45
19:01:45:664,0.6618,1.6133,6.2231,50.0787,0.2237,-0.2738,0.378,132.73
19:01:45:681,0.9769,2.1625,6.587,50.4685,0.1742,-0.3978,0.0496,132.11
19:01:45:702,0.6752,2.2583,7.4395,50.8589,0.1071,-0.4101,-0.2884,131.73
19:01:45:721,-0.3455,2.0288,8.1303,50.8655,0.0853,-0.3882,-0.4023,131.71
19:01:45:741,-1.4031,1.4696,8.6811,51.1154,0.1093,-0.4958,-0.265,132.06
19:01:45:761,-1.6208,1.2004,9.5854,51.5309,0.1822,-0.565,0.032,132.57
19:01:45:783,-0.8234,1.443,10.2295,51.5019,0.2162,-0.4377,0.2061,132.92
19:01:45:802,-0.0704,1.6855,10.2788,51.467,0.1369,-0.3334,0.1683,132.92
19:01:45:821,0.149,1.2806,10.6726,51.3996,0.014,-0.3366,0.089,132.73
19:01:45:841,0.0982,0.6791,11.4235,51.2769,-0.0478,-0.2908,0.1215,132.59
19:01:45:866,0.2609,0.4516,11.902,51.138,-0.0057,-0.1822,0.2247,132.53
19:01:45:881,1.1051,0.3715,11.3375,50.7135,0.0427,-0.0523,0.1949,132.39
19:01:45:901,1.6114,0.2636,9.8657,51.0136,-0.1851,-0.031,-0.051,132.14
19:01:45:921,1.127,0.0999,9.8343,50.9753,-0.5737,-0.2759,-0.3496,131.94
19:01:45:942,0.1405,-0.262,12.0759,50.8218,-0.7243,-0.5139,-0.5253,132.06
19:01:45:961,-0.7109,-0.7714,14.396,50.7717,-0.5183,-0.3265,-0.4838,132.53
19:01:45:981,-0.7637,-1.1211,14.5023,50.6886,-0.0738,0.2447,-0.2932,133.12
19:01:46:001,-0.2927,-0.87,11.3667,50.4596,0.1343,0.6327,-0.1191,133.59
19:01:46:021,0.7387,-0.4536,9.3235,50.3816,0.1114,0.4736,-0.1229,133.85
19:01:46:041,1.0021,-0.3481,8.7131,50.37,0.0464,0.1276,-0.2453,133.97
19:01:46:061,0.7972,-0.3933,9.041,50.2145,-0.0243,-0.0736,-0.323,134.13
19:01:46:081,0.4281,-0.3214,9.4595,49.8025,-0.0568,-0.0337,-0.347,134.44
19:01:46:101,0.1526,-0.1724,9.4045,49.2702,-0.077,0.1882,-0.3337,134.81
19:01:46:121,-0.1101,0.0617,8.7964,48.8157,-0.0829,0.4608,-0.2708,135.18
19:01:46:141,-0.3337,0.4709,7.8948,48.5219,-0.051,0.5348,-0.1937,135.51
19:01:46:161,-0.1426,0.8161,7.2855,48.0035,0.0305,0.4017,-0.1308,135.78
19:01:46:182,0.2151,1.1072,6.8301,47.7541,0.0832,0.2734,-0.1223,135.98
19:01:46:201,0.4192,1.4224,6.6702,47.4342,0.0427,0.2143,-0.2022,136.12
19:01:46:222,0.3022,1.514,6.8391,46.8723,-0.0185,0.2814,-0.3092,136.25
19:01:46:241,0.0366,1.5069,6.8775,46.4933,-0.0728,0.382,-0.3566,136.47
19:01:46:266,-0.204,1.5843,6.8461,46.1619,-0.1106,0.3224,-0.3762,136.8
19:01:46:282,-0.4679,1.566,7.2036,45.8413,-0.1436,0.1494,-0.3672,137.2
19:01:46:302,-0.7338,1.2899,7.3803,45.5115,-0.2293,0.0174,-0.2943,137.64
19:01:46:321,-0.918,1.5119,8.429,45.1058,-0.3278,-0.0848,-0.191,138.08
19:01:46:342,-0.88,1.7668,10.093,44.9686,-0.2415,-0.0247,-0.1175,138.45
19:01:46:417,-0.9121,1.8558,10.9166,44.6052,-0.0834,0.1978,-0.0079,138.65
19:01:46:417,-0.8026,1.9959,10.6332,44.1864,0.0246,0.4683,0.1289,138.73
19:01:46:417,-0.6318,2.2353,9.7495,43.9122,0.0502,0.4805,0.2178,138.67
19:01:46:421,-0.4924,2.2947,9.6197,43.6218,0.063,0.1382,0.2359,138.5
19:01:46:441,-0.2983,2.0536,10.6181,43.0448,0.1103,-0.2568,0.1864,138.28
19:01:46:461,-0.2184,1.3417,11.6656,42.7082,0.1375,-0.3281,0.1268,138.05
19:01:46:481,-0.1122,0.7046,11.9058,42.4782,0.0374,-0.0273,0.1119,137.86
19:01:46:501,0.0008,0.7319,11.7587,42.2105,-0.1814,0.2979,0.0666,137.7
19:01:46:521,-0.0894,1.0225,11.7705,41.7961,-0.3187,0.2532,-0.0595,137.56
19:01:46:541,-0.7367,0.7824,12.51,41.5468,-0.2958,-0.1008,-0.1921,137.51
19:01:46:561,-1.6255,-0.0421,13.4287,41.19,-0.1473,-0.2887,-0.1724,137.62
19:01:46:582,-2.3119,-0.9296,13.6943,40.8212,0.0949,-0.186,0.0214,137.84
19:01:46:601,-2.3336,-1.7,12.2785,40.4194,0.3078,0.069,0.2631,137.98
19:01:46:621,-1.711,-1.7883,9.2791,40.0213,0.187,0.1835,0.4819,137.89
19:01:46:641,-0.6474,-0.9495,8.113,39.6432,-0.0691,-0.1375,0.4701,137.59
19:01:46:661,0.0174,-0.3534,8.9477,39.221,-0.1798,-0.581,0.2652,137.12
19:01:46:682,-0.0088,-0.5672,10.2904,38.852,-0.2059,-0.6629,0.0799,136.67
19:01:46:702,-0.7066,-1.0258,11.099,38.4336,-0.1452,-0.4143,0.0672,136.4
19:01:46:721,-1.2013,-1.1952,10.8379,37.9927,-0.0201,-0.0225,0.2274,136.28
19:01:46:742,-1.0152,-0.6438,9.4134,37.5872,0.0587,0.2234,0.377,136.14
19:01:46:761,-0.4888,0.0407,8.171,37.1248,0.1066,0.2175,0.377,135.82
19:01:46:782,-0.2327,0.3248,7.5001,36.8775,0.1582,0.0722,0.3094,135.4
19:01:46:801,-0.3136,0.3169,7.1172,36.427,0.2029,-0.0396,0.2726,134.97
19:01:46:822,-0.381,0.269,6.6914,36.3166,0.1955,-0.0843,0.2748,134.63
19:01:46:841,-0.3537,0.4115,6.66,36.2648,0.1524,-0.0768,0.2987,134.32
19:01:46:861,-0.1967,0.688,6.7566,35.9029,0.1061,-0.0353,0.2913,134.02
19:01:46:882,-0.0015,1.1197,7.023,35.6784,0.031,-0.0327,0.2077,133.68
19:01:46:902,-0.1721,1.3852,7.791,35.594,-0.0334,-0.0816,0.1119,133.36
19:01:46:921,-0.639,1.3736,8.8086,35.5863,0.0182,-0.145,0.1151,133.13
19:01:46:941,-0.6913,1.5102,9.3981,35.4274,0.1337,-0.2131,0.2034,133.01
19:01:46:961,-0.336,1.8955,9.7997,35.2237,0.212,-0.212,0.221,132.88
19:01:46:983,-0.0339,2.1197,10.1144,35.289,0.2248,-0.0859,0.1337,132.64
19:01:47:002,-0.0568,1.9994,10.1298,35.1537,0.1779,0.0429,0.0001,132.38
19:01:47:021,-0.2883,1.4848,10.1783,34.8587,0.1156,-0.0204,-0.0883,132.22
19:01:47:041,-0.3804,0.7677,10.8117,34.8794,0.0805,-0.2291,-0.1069,132.24
19:01:47:061,-0.1953,0.0616,11.8019,34.753,0.0571,-0.3217,-0.0648,132.37
19:01:47:081,0.4287,-0.3151,12.4422,34.5329,0.0656,-0.1008,0.0123,132.53
19:01:47:101,1.0945,-0.279,11.2661,34.3947,-0.0531,0.2958,-0.0292,132.59
19:01:47:121,1.2775,0.0091,10.1156,34.314,-0.2905,0.3666,-0.2086,132.55
19:01:47:142,0.6653,-0.1364,9.9522,34.1726,-0.4326,0.0642,-0.4226,132.58
19:01:47:161,-0.3612,-0.7303,10.8447,33.8758,-0.3576,-0.4202,-0.4375,132.85
19:01:47:181,-0.7672,-1.2199,12.0397,33.9837,-0.1292,-0.5032,-0.2714,133.39
19:01:47:201,-0.2835,-1.2853,11.7951,33.9529,0.0512,-0.1051,-0.0318,133.89
19:01:47:222,0.8863,-0.7258,10.204,33.8723,0.0528,0.1717,0.0118,134.15
19:01:47:241,1.7293,-0.1616,9.1538,33.7674,-0.0669,0.0328,-0.2203,134.15
19:01:47:261,1.4276,-0.0331,9.6455,33.9359,-0.1553,-0.2158,-0.52,134.16
19:01:47:281,0.5476,-0.323,10.5144,33.923,-0.1266,-0.187,-0.6919,134.46
19:01:47:302,-0.4864,-0.7089,10.4123,33.8714,-0.0717,0.1542,-0.6547,135.05
19:01:47:321,-1.0356,-0.6123,9.2866,33.9737,-0.019,0.4704,-0.4822,135.8
19:01:47:341,-0.9829,-0.0797,8.0118,34.1296,0.0374,0.5114,-0.3299,136.49
19:01:47:361,-0.6863,0.4198,7.1276,33.88,0.0794,0.4108,-0.2788,137.02
19:01:47:382,-0.5465,0.6787,6.6383,33.742,0.0826,0.3038,-0.2842,137.38
19:01:47:401,-0.529,0.8386,6.4997,33.6959,0.0763,0.2314,-0.2831,137.7
19:01:47:421,-0.5948,1.0206,6.4678,33.5451,0.0507,0.201,-0.2533,138.02
19:01:47:441,-0.5731,1.2445,6.5446,33.298,0.0188,0.1276,-0.2022,138.34
19:01:47:462,-0.3827,1.5433,7.0326,33.4187,-0.0036,0.0371,-0.1697,138.64
19:01:47:481,-0.1361,1.8569,7.9178,33.4134,-0.0387,0.0269,-0.1798,138.88
19:01:47:501,-0.0327,2.1059,8.8127,33.2764,-0.0542,0.0903,-0.2309,139.08
19:01:47:521,-0.1232,2.1648,9.6267,33.227,-0.0334,0.176,-0.2895,139.28
19:01:47:542,-0.5669,1.9548,10.0906,33.2832,0.056,0.2484,-0.2613,139.53
19:01:47:561,-0.9501,1.745,10.1057,33.3875,0.162,0.2889,-0.1239,139.82
19:01:47:581,-1.1565,1.666,9.9518,33.2057,0.2343,0.3144,0.0741,140.09
19:01:47:601,-1.124,1.695,9.8204,33.2677,0.2556,0.2122,0.2577,140.2
19:01:47:622,-0.5026,1.7412,10.0768,33.3001,0.2721,-0.0678,0.3205,140.11
19:01:47:641,-0.1532,1.4187,10.8315,33.022,0.2562,-0.3648,0.2599,139.84
19:01:47:661,-0.2734,0.593,11.4056,33.2224,0.2104,-0.4122,0.2088,139.53
19:01:47:681,-0.6825,0.1863,11.2805,33.392,-0.035,-0.2541,0.2226,139.27
19:01:47:703,-0.8263,0.5303,12.4807,33.5588,-0.2421,-0.2232,0.2641,139.08
19:01:47:721,-0.8998,0.4775,13.6926,33.7612,-0.1872,-0.1215,0.2024,138.87
19:01:47:741,-1.2394,-0.0411,13.4493,33.6994,-0.0941,0.0919,0.2104,138.56
19:01:47:761,-1.5534,-0.591,12.5449,34.0846,-0.0355,0.1494,0.3003,138.29
19:01:47:782,-1.4642,-0.937,11.8692,34.3752,0.1108,0.093,0.41,138.03
19:01:47:801,-1.1381,-1.1055,10.239,34.8773,0.1423,0.1398,0.4701,137.66
19:01:47:821,-0.9559,-1.0657,8.6264,35.2458,-0.0361,0.0834,0.4707,137.17
19:01:47:841,-0.8936,-0.7925,8.3555,35.5038,-0.2122,-0.1743,0.4451,136.66
19:01:47:862,-0.7522,-0.4816,9.0422,35.6004,-0.2623,-0.4063,0.4063,136.19
19:01:47:881,-0.6494,-0.3089,9.7017,35.7326,-0.2351,-0.3819,0.3594,135.73
19:01:47:901,-0.7191,-0.2733,9.815,36.1128,-0.1819,-0.1471,0.3509,135.28
19:01:47:921,-0.6855,-0.1796,9.1204,36.4457,-0.1218,0.1015,0.3924,134.84
19:01:47:942,-0.3676,0.1612,8.1248,36.6799,-0.0845,0.193,0.4063,134.41
19:01:47:961,-0.0741,0.5205,7.5504,36.8176,-0.0398,0.1089,0.3498,133.93
19:01:47:983,-0.0491,0.6009,7.3143,36.8584,0.0321,-0.0268,0.2721,133.46
19:01:48:002,-0.1593,0.4814,7.1602,37.1257,0.0683,-0.0561,0.2354,133.07
19:01:48:021,-0.1402,0.541,7.0093,37.3282,0.0299,-0.0108,0.2157,132.75
19:01:48:041,-0.1878,0.8289,7.1496,37.6154,-0.043,0.019,0.1582,132.49
19:01:48:061,-0.3974,1.0541,7.7577,37.9686,-0.1537,0.1286,0.0411,132.25
19:01:48:083,-0.8801,1.0113,8.5375,38.0952,-0.2761,0.3857,-0.0558,132.07
19:01:48:102,-1.5228,0.8418,8.8874,38.0244,-0.3315,0.6253,-0.0595,132
19:01:48:121,-2.0163,0.736,8.8305,38.2643,-0.2974,0.6343,0.0262,132.03
19:01:48:141,-2.3446,0.6771,8.744,38.1503,-0.2128,0.373,0.1992,132.08
19:01:48:162,-2.0097,1.1229,9.0973,38.2096,-0.0547,-0.006,0.4047,132.05
19:01:48:183,-1.0298,1.875,9.3465,38.2636,0.0294,-0.2456,0.4552,131.83
19:01:48:201,-0.1335,2.3027,9.771,38.2513,-0.0238,-0.3105,0.2897,131.38
19:01:48:221,0.0654,1.971,10.7225,38.3816,-0.0983,-0.3494,0.0544,130.88
19:01:48:241,-0.234,0.9937,11.9045,38.38,-0.0712,-0.3824,-0.0372,130.58
19:01:48:262,-0.0835,0.0165,12.6204,38.4182,0.0347,-0.3808,0.0544,130.52
19:01:48:281,0.8842,-0.4259,12.1412,38.8255,0.0896,-0.1865,0.1789,130.55
19:01:48:301,1.862,-0.1449,10.4672,38.9941,-0.1138,0.0206,0.1145,130.45
19:01:48:321,2.1044,0.4702,9.9513,39.4684,-0.3767,-0.1636,-0.1607,130.26
19:01:48:342,1.3955,0.2932,11.0552,39.7958,-0.3991,-0.5245,-0.4726,130.2
19:01:48:361,0.0639,-0.6025,12.3337,40.0838,-0.2288,-0.7476,-0.578,130.43
19:01:48:384,-1.0715,-1.7391,13.1559,40.4846,0.0299,-0.6209,-0.4204,130.97
19:01:48:402,-1.0719,-2.3568,12.4295,40.8411,0.2796,-0.1838,-0.1229,131.58
19:01:48:463,0.0874,-2.0978,10.2282,41.1458,0.2833,0.0711,0.0107,131.96
19:01:48:463,1.1286,-1.4798,8.9964,41.6513,0.0949,-0.0263,-0.1548,132.07
19:01:48:464,0.8721,-1.1135,9.4352,41.9491,-0.0765,-0.2488,-0.4289,132.09
19:01:48:484,-0.1143,-1.2714,10.5669,42.151,-0.0611,-0.2924,-0.5769,132.32
19:01:48:501,-1.1022,-1.5219,10.6252,42.3137,0.0597,-0.1546,-0.5019,132.82
19:01:48:521,-1.2383,-1.1899,9.7013,42.5596,0.1284,0.1127,-0.3251,133.45
19:01:48:541,-0.7103,-0.4333,8.5636,42.6949,0.121,0.3873,-0.1984,133.98
19:01:48:561,-0.1629,0.3871,7.4713,42.6555,0.1327,0.4917,-0.1867,134.32
19:01:48:584,0.1054,0.8552,6.5041,42.8085,0.1614,0.4352,-0.2506,134.52
19:01:48:601,0.1837,1.0648,5.7772,42.6637,0.146,0.357,-0.3262,134.73
19:01:48:621,-0.0459,1.1163,5.4403,42.6762,0.0587,0.291,-0.3997,135.02
19:01:48:641,-0.523,0.95,5.8063,42.6485,-0.0387,0.2122,-0.4167,135.41
19:01:48:662,-0.9161,0.7825,6.7793,42.6654,-0.1026,0.126,-0.364,135.88
19:01:48:684,-1.0726,0.8141,7.9479,42.7626,-0.1058,0.0791,-0.2852,136.38
19:01:48:701,-1.0159,0.8857,8.9554,42.7943,-0.0856,0.119,-0.2171,136.8
19:01:48:721,-0.9148,0.9568,9.7619,42.9153,-0.0483,0.2633,-0.1245,137.11
19:01:48:742,-0.7311,1.1736,10.1044,42.9253,0.015,0.4038,-0.0281,137.34
19:01:48:761,-0.5896,1.4916,10.1639,43.0241,0.1029,0.4587,0.0661,137.44
19:01:48:784,-0.5383,1.7324,10.0807,43.3039,0.179,0.4874,0.1688,137.45
19:01:48:801,-0.2998,1.9887,9.8249,43.2253,0.2088,0.456,0.2428,137.34
19:01:48:821,0.0739,2.1111,9.7,43.2593,0.1875,0.2841,0.2056,137.13
19:01:48:841,0.1825,1.7449,10.1225,43.4265,0.1295,-0.055,0.0571,136.87
19:01:48:861,-0.4729,0.777,11.2381,43.3601,0.0912,-0.3089,0.0065,136.69
19:01:48:881,-1.2079,-0.0027,12.0144,43.617,0.0619,-0.2477,0.1566,136.67
19:01:48:902,-1.4674,0.2759,11.9974,43.734,-0.1079,0.0866,0.3307,136.67
19:01:48:921,-1.3394,1.1223,12.4561,44.1543,-0.2703,0.3458,0.3227,136.48
19:01:48:941,-1.6377,1.09,13.1893,44.2274,-0.2016,0.3623,0.1811,136.1
19:01:48:961,-2.2429,0.209,13.2654,44.4148,-0.0105,0.1174,0.1646,135.7
19:01:48:986,-2.4034,-0.5446,13.3165,44.6401,0.2051,-0.1545,0.3179,135.48
19:01:49:002,-1.8319,-0.8043,12.9577,44.7958,0.4915,-0.1945,0.4536,135.28
19:01:49:021,-0.8557,-0.7854,11.005,44.8961,0.582,0.0078,0.4457,134.86
19:01:49:041,-0.0834,-0.6829,8.5776,45.2316,0.3962,0.1441,0.3131,134.3
19:01:49:061,-0.0565,-0.5653,7.3726,45.3027,0.0651,-0.0497,0.1369,133.81
19:01:49:085,-0.5517,-0.6754,8.2689,45.2911,-0.0818,-0.4255,0.0922,133.54
19:01:49:102,-0.511,-0.7296,9.3901,45.4555,0.0246,-0.6182,0.205,133.47
19:01:49:121,-0.1445,-0.4685,9.3673,45.5992,0.1284,-0.5117,0.3307,133.4
19:01:49:141,0.2114,-0.0251,8.666,45.6661,0.0986,-0.2083,0.3211,133.17
19:01:49:161,0.1858,0.19,7.8662,46.0218,-0.0009,0.0786,0.2412,132.79
19:01:49:184,-0.1212,0.197,7.1231,46.3803,-0.0403,0.1339,0.2018,132.42
19:01:49:204,-0.3684,0.2343,6.6284,46.533,-0.0126,-0.014,0.2141,132.14
19:01:49:222,-0.5061,0.2748,6.3372,46.6634,0.0039,-0.1625,0.2338,131.91
19:01:49:241,-0.5781,0.3599,6.3439,46.8841,-0.027,-0.2419,0.2482,131.69
19:01:49:261,-0.6166,0.5657,6.5248,47.1613,-0.0861,-0.2584,0.2508,131.45
19:01:49:284,-0.5384,0.9284,6.9374,47.0601,-0.1638,-0.3159,0.2013,131.19
19:01:49:302,-0.5294,1.1957,7.7533,47.5272,-0.225,-0.3723,0.1092,130.94
19:01:49:321,-0.8025,1.3039,8.826,47.6906,-0.2303,-0.3861,0.0571,130.75
19:01:49:341,-1.0279,1.486,9.6882,47.7217,-0.1638,-0.3286,0.0528,130.65
19:01:49:361,-1.0582,1.7851,10.2075,48.0217,-0.0786,-0.1929,0.065,130.59
19:01:49:384,-1.031,2.0956,10.3716,48.3295,-0.0206,0.0041,0.0491,130.51
19:01:49:401,-0.9316,2.31,10.1688,48.5336,-0.0217,0.1824,-0.0238,130.41
19:01:49:421,-1.0332,2.2464,10.0871,48.6584,-0.0637,0.1685,-0.1314,130.34
19:01:49:441,-1.2254,1.5504,10.6621,48.8858,-0.085,-0.0406,-0.2192,130.36
19:01:49:461,-1.3881,0.3237,11.5652,49.1437,-0.077,-0.194,-0.1894,130.53
19:01:49:485,-1.3907,-0.6862,12.2402,48.958,-0.0573,-0.0726,-0.0015,130.8
19:01:49:501,-0.6521,-0.9493,11.5991,49.1654,-0.093,0.3586,0.2104,131.01
19:01:49:521,0.1082,-0.4328,9.8723,49.0228,-0.2948,0.6157,0.196,130.97
19:01:49:542,0.5486,-0.221,9.3187,49.0699,-0.578,0.2899,-0.0356,130.71
19:01:49:561,0.0893,-0.6537,11.351,49.4107,-0.6365,-0.2828,-0.2309,130.55
19:01:49:584,-0.7533,-1.3035,13.9588,49.5295,-0.3389,-0.5522,-0.1718,130.66
19:01:49:601,-0.6496,-1.7639,14.821,49.5362,0.1204,-0.1082,0.0384,130.92
19:01:49:622,0.4233,-1.2462,12.4858,49.6904,0.3531,0.6716,0.212,130.99
19:01:49:641,1.8272,-0.2501,9.3624,49.7617,0.3142,0.9255,0.0475,130.81
19:01:49:661,2.1636,0.2596,7.6075,49.8489,0.1268,0.6189,-0.3337,130.54
19:01:49:684,1.1759,0.1286,7.4946,49.871,-0.0952,0.1366,-0.6781,130.54
19:01:49:702,-0.3679,-0.3693,8.9017,50.114,-0.1606,-0.2057,-0.7707,131.01
19:01:49:721,-1.5934,-0.7311,9.8001,49.9286,-0.0691,-0.178,-0.5807,131.84
19:01:49:741,-1.7789,-0.4894,9.4339,49.7429,0.072,-0.0082,-0.2708,132.71
19:01:49:761,-1.0279,0.1168,8.3634,49.6219,0.1087,0.1121,-0.0883,133.33
19:01:49:785,-0.3879,0.6636,7.815,49.4638,0.1071,0.1685,-0.0515,133.61
19:01:49:802,-0.1816,0.9149,7.3884,49.2959,0.1396,0.2122,-0.0797,133.7
19:01:49:821,-0.0602,0.9885,6.7918,49.101,0.1364,0.2527,-0.1207,133.75
19:01:49:841,-0.1486,1.0349,6.5216,49.0549,0.0752,0.2298,-0.1729,133.83
19:01:49:862,-0.2775,1.113,6.7564,48.822,0.0486,0.1238,-0.2086,133.98
19:01:49:885,-0.2844,1.1438,7.251,48.7456,0.0241,-0.0055,-0.2373,134.19
19:01:49:901,-0.3048,1.2462,8.0179,48.714,0.0166,-0.0891,-0.2687,134.45
19:01:49:922,-0.4723,1.224,8.8218,48.346,0.0145,-0.0875,-0.2676,134.73
19:01:49:942,-0.6204,1.2875,9.4808,48.2937,0.0603,-0.014,-0.2224,135.05
19:01:49:961,-0.7782,1.4037,9.7853,48.3827,0.1295,0.1063,-0.1335,135.34
19:01:49:985,-0.8238,1.5797,9.6705,48.2361,0.1625,0.2819,-0.0286,135.56
19:01:50:001,-0.8613,1.5725,9.4218,48.2177,0.1007,0.4613,0.0741,135.68
19:01:50:021,-0.9549,1.5426,9.5688,48.1297,-0.0052,0.481,0.172,135.69
19:01:50:041,-0.7595,1.5346,10.2493,48.2058,-0.0398,0.2223,0.1608,135.6
19:01:50:061,-0.8432,0.9209,11.2108,48.0464,-0.0222,-0.1146,0.0491,135.43
19:01:50:081,-1.1607,-0.108,12.0444,47.787,-0.076,-0.2078,0.0017,135.28
19:01:50:102,-1.4422,-0.3309,12.7716,47.6611,-0.232,-0.0321,0.0725,135.26
19:01:50:121,-1.204,0.0787,13.3966,47.5957,-0.2538,0.0988,0.0805,135.27
19:01:50:141,-1.1375,0.3828,13.4096,47.3457,-0.2096,0.1126,0.0033,135.17
19:01:50:161,-1.6977,0.184,13.4398,47.1053,-0.1143,0.0488,-0.059,135.07
19:01:50:185,-2.4648,-0.4659,13.4142,47.0516,0.114,0.0993,0.0496,135.05
19:01:50:201,-2.7348,-1.1364,11.747,46.8842,0.335,0.2266,0.2907,135.06
19:01:50:221,-2.4651,-1.2992,9.4301,46.4022,0.3206,0.266,0.5069,134.93
19:01:50:241,-2.0666,-1.0901,7.8381,46.1025,0.1566,0.0105,0.6027,134.58
19:01:50:262,-1.6855,-0.8767,7.9237,45.8965,0.0145,-0.4457,0.6266,134.06
19:01:50:281,-1.2164,-0.6203,8.9692,45.8021,-0.0307,-0.771,0.5782,133.47
19:01:50:301,-0.9735,-0.4122,9.9284,45.5066,-0.0542,-0.7476,0.4888,132.82
19:01:50:321,-0.9317,-0.251,10.4062,45.2497,-0.0387,-0.4197,0.4196,132.19
19:01:50:342,-1.046,-0.0552,9.9566,45.2621,0.0236,-0.0231,0.3972,131.61
19:01:50:362,-1.0746,0.0938,8.7177,45.0108,0.0906,0.1893,0.4095,131.08
19:01:50:385,-0.9734,0.2518,7.594,44.8604,0.1481,0.1366,0.4494,130.59
19:01:50:401,-0.8093,0.4322,7.1419,44.8346,0.2067,-0.0279,0.4802,130.11
19:01:50:422,-0.5462,0.5797,7.0019,44.7534,0.2493,-0.1077,0.4893,129.59
19:01:50:441,-0.1833,0.7724,6.8352,44.755,0.2333,-0.0651,0.443,129.05
19:01:50:461,-0.0141,0.9772,6.8049,44.5369,0.1742,-0.0257,0.3567,128.49
19:01:50:546,0.0368,1.1682,6.8438,44.6232,0.1295,-0.0614,0.2641,128
19:01:50:546,0.0279,1.3979,7.0578,44.8394,0.0927,-0.1327,0.1789,127.6
19:01:50:546,0.0181,1.687,7.4629,44.7988,0.0565,-0.2025,0.0954,127.32
19:01:50:547,-0.0304,1.9738,8.0428,44.7843,0.0363,-0.2429,-0.0042,127.14
19:01:50:561,-0.249,2.0565,8.624,44.6587,0.0262,-0.2339,-0.0861,127.06
19:01:50:585,-0.4611,2.0019,9.1725,44.6337,0.0395,-0.1881,-0.1143,127.08
19:01:50:601,-0.4915,2.0128,9.3311,44.523,0.0305,-0.178,-0.1346,127.19
19:01:50:621,-0.4129,1.7893,9.7737,44.2526,-0.0243,-0.2025,-0.1814,127.33
19:01:50:641,-0.5006,1.2119,10.402,44.1466,-0.1063,-0.2397,-0.208,127.51
19:01:50:661,-0.5862,0.4458,11.5026,44.0055,-0.1404,-0.3047,-0.1761,127.75
19:01:50:681,-0.6285,-0.2486,12.6627,43.6063,-0.0733,-0.1796,-0.0366,128.02
19:01:50:701,0.1218,-0.5546,12.0306,43.3283,-0.0275,0.1755,0.0805,128.22
19:01:50:721,0.8164,-0.2563,10.3722,42.9336,-0.2389,0.3117,-0.0153,128.22
19:01:50:742,1.051,-0.0462,9.9929,42.9536,-0.5215,0.0003,-0.2868,128.14
19:01:50:762,0.1798,-0.1243,11.8683,42.6326,-0.6243,-0.5267,-0.5503,128.21
19:01:50:781,-1.2775,-0.8093,14.4005,42.4247,-0.3938,-0.5996,-0.5753,128.62
19:01:50:801,-2.0966,-1.6992,15.0114,42.2376,0.0225,-0.0199,-0.2884,129.24
19:01:50:822,-1.4234,-1.6783,12.4278,42.1749,0.2924,0.6125,0.0826,129.79
19:01:50:842,0.4042,-0.8808,9.3201,42.0707,0.2956,0.5449,0.155,130.01
19:01:50:861,1.6412,-0.1753,8.1114,41.7555,0.1343,0.0296,-0.0957,129.9
19:01:50:881,1.4835,-0.0489,9.0114,41.4348,-0.0504,-0.3345,-0.455,129.79
19:01:50:902,0.4568,-0.4216,10.3655,41.2836,-0.0552,-0.2807,-0.6483,129.97
19:01:50:921,-0.478,-0.7357,10.3587,40.9786,0.0406,0.0743,-0.6174,130.5
19:01:50:941,-0.7499,-0.548,8.8873,40.891,0.055,0.4416,-0.4971,131.19
19:01:50:961,-0.6068,-0.0226,7.4601,40.7322,0.0204,0.5327,-0.397,131.85
19:01:50:985,-0.4834,0.511,6.7102,40.7788,0.0416,0.292,-0.3528,132.39
19:01:51:001,-0.4126,0.7105,6.5663,40.4684,0.1055,0.0349,-0.3385,132.85
19:01:51:021,-0.4181,0.7919,6.7065,39.9352,0.0943,0.0429,-0.3225,133.26
19:01:51:041,-0.4467,0.9446,6.7203,40.0094,0.0448,0.2276,-0.2991,133.65
19:01:51:061,-0.5134,1.1917,6.6889,39.9839,0.014,0.2633,-0.2597,134
19:01:51:081,-0.3708,1.4915,6.7606,39.9345,0.0086,0.1435,-0.2272,134.33
19:01:51:101,-0.1461,1.7076,7.1278,39.8484,-0.0217,-0.0204,-0.2602,134.63
19:01:51:121,-0.1117,1.6186,7.9062,39.4974,-0.0765,-0.1082,-0.3092,134.91
19:01:51:142,-0.3545,1.4823,8.8944,39.5779,-0.1266,-0.0726,-0.3166,135.23
19:01:51:161,-0.7492,1.4334,9.9607,39.5115,-0.118,0.0557,-0.2517,135.61
19:01:51:181,-1.0901,1.5482,10.6098,39.5081,-0.0307,0.2409,-0.1143,135.94
19:01:51:202,-1.2627,1.8535,10.542,39.448,0.0725,0.4682,0.0416,136.18
19:01:51:222,-1.3639,2.0437,9.7303,39.1544,0.1002,0.5321,0.1646,136.25
19:01:51:241,-1.3152,1.9488,9.5068,39.0055,0.0981,0.2303,0.2551,136.17
19:01:51:261,-1.1495,1.5239,10.2711,38.8766,0.0938,-0.187,0.2993,136
19:01:51:281,-0.8078,0.8975,11.4392,38.8507,0.0683,-0.3132,0.3009,135.75
19:01:51:302,-0.6803,0.4041,11.9754,39.1479,-0.0653,-0.2488,0.2769,135.44
19:01:51:321,-0.548,0.332,13.031,39.2804,-0.1457,-0.2206,0.2327,135.13
19:01:51:341,-0.6233,0.1853,13.674,39.2525,-0.1095,-0.1327,0.1534,134.84
19:01:51:361,-0.9132,-0.1392,13.3077,39.2348,-0.1202,-0.0774,0.0943,134.57
19:01:51:385,-1.3521,-0.4058,13.6288,39.3715,-0.1196,-0.1679,0.1151,134.39
19:01:51:401,-1.6716,-0.8483,14.2312,39.7447,0.1353,-0.0827,0.197,134.3
19:01:51:421,-1.7143,-1.2147,12.3462,40.0284,0.3504,0.3234,0.3355,134.11
19:01:51:441,-1.5143,-1.2051,9.3271,40.2519,0.2764,0.6338,0.4286,133.79
19:01:51:462,-1.4183,-0.8785,7.2602,40.3857,0.08,0.4464,0.4914,133.36
19:01:51:481,-1.2562,-0.4968,7.1674,40.5468,-0.0121,-0.1381,0.533,132.9
19:01:51:501,-1.0231,-0.2039,8.0567,40.4347,0.0443,-0.6267,0.55,132.4
19:01:51:521,-0.7565,0.0116,8.8129,40.6998,0.0709,-0.6454,0.5063,131.86
19:01:51:542,-0.7746,0.1262,9.0652,40.8045,0.0613,-0.3648,0.4765,131.27
19:01:51:561,-0.6911,0.3975,8.7886,40.9962,0.0683,-0.1109,0.4483,130.69
19:01:51:581,-0.6859,0.5563,8.322,40.9957,0.1071,-0.0295,0.4142,130.14
19:01:51:601,-0.68,0.5449,7.897,40.9188,0.1619,-0.0593,0.4174,129.62
19:01:51:622,-0.6042,0.6011,7.5411,40.9452,0.1981,-0.0939,0.4478,129.14
19:01:51:641,-0.4303,0.7764,7.2567,41.0265,0.2024,-0.1684,0.4403,128.67
19:01:51:661,-0.2708,0.9713,7.2746,41.1956,0.1667,-0.2216,0.3828,128.17
19:01:51:681,-0.3644,1.0439,7.6162,41.29,0.1247,-0.2365,0.3195,127.69
19:01:51:702,-0.3464,1.1618,8.0157,41.539,0.0911,-0.2089,0.2828,127.29
19:01:51:721,-0.28,1.4153,8.417,41.7543,0.0752,-0.1455,0.2588,126.94
19:01:51:741,-0.1302,1.7784,8.5429,41.8987,0.0789,-0.0593,0.2332,126.64
19:01:51:761,0.1178,2.1916,8.6116,42.1193,0.0906,-0.014,0.1795,126.34
19:01:51:782,0.2455,2.5082,8.6429,42.3576,0.0949,-0.0066,0.0922,126.08
19:01:51:801,0.2417,2.6624,8.711,42.6191,0.0507,-0.0018,-0.0191,125.87
19:01:51:821,0.0676,2.5967,8.951,42.7899,-0.0339,-0.0279,-0.1202,125.77
19:01:51:841,-0.2031,2.3243,9.4826,42.7811,-0.1101,-0.1125,-0.183,125.81
19:01:51:862,-0.2569,1.9788,10.0715,42.7673,-0.1766,-0.2514,-0.2096,125.97
19:01:51:881,-0.3864,1.704,11.1108,42.8151,-0.2218,-0.5016,-0.1702,126.21
19:01:51:902,-0.1437,1.5132,13.0508,43.1825,-0.1047,-0.7242,-0.0755,126.51
19:01:51:921,0.6567,1.1237,13.8355,43.2701,0.0512,-0.4505,-0.0574,126.77
19:01:51:942,1.4931,0.6865,12.9371,43.6889,-0.0776,0.069,-0.1495,126.87
19:01:51:961,1.6927,0.4012,12.2197,43.8442,-0.2772,0.4576,-0.3432,126.92
19:01:51:982,1.093,0.0326,11.7155,43.9955,-0.389,0.572,-0.5306,127.06
19:01:52:001,-0.3103,-0.6022,11.9298,44.1685,-0.3597,0.4129,-0.5679,127.41
19:01:52:022,-1.9153,-1.4086,12.4506,44.1633,-0.0025,0.1116,-0.3145,127.99
19:01:52:041,-1.8927,-1.9466,11.4232,44.459,0.3866,0.0062,0.0938,128.64
19:01:52:061,-0.2256,-1.4285,9.5353,44.5736,0.4329,0.0312,0.2625,128.93
19:01:52:081,1.2919,-0.4293,8.3562,44.6687,0.2343,0.0275,0.0358,128.82
19:01:52:102,1.5607,0.0981,8.5917,44.9218,0.0565,-0.0518,-0.3773,128.54
19:01:52:121,0.6269,-0.2487,9.2215,44.7676,0.0305,-0.0497,-0.6626,128.53
19:01:52:141,-0.4787,-0.7561,9.291,44.9026,0.0517,0.0786,-0.6813,128.96
19:01:52:161,-1.0572,-0.7276,8.65,45.1955,0.0661,0.2708,-0.5503,129.71
19:01:52:182,-1.0349,-0.246,7.6803,45.2798,0.0252,0.4225,-0.3938,130.45
19:01:52:201,-0.8579,0.403,7.0778,45.5692,0.0076,0.4241,-0.2953,131.04
19:01:52:221,-0.6629,0.9315,6.6302,45.7145,0.0347,0.3176,-0.2426,131.46
19:01:52:241,-0.5697,1.2145,6.2472,45.5742,0.0336,0.1803,-0.2213,131.76
19:01:52:262,-0.6606,1.3272,6.4237,45.6576,0.0001,0.0546,-0.2043,132.03
19:01:52:281,-0.6782,1.4069,7.0094,45.6173,-0.0217,-0.0135,-0.1777,132.28
19:01:52:302,-0.5927,1.5201,7.5762,45.5511,-0.0579,0.0498,-0.167,132.52
19:01:52:321,-0.4043,1.8516,8.2863,45.5884,-0.1393,0.209,-0.2245,132.73
19:01:52:342,-0.232,2.3172,9.6313,45.5823,-0.2644,0.5295,-0.3837,132.9
19:01:52:361,-0.3818,2.5515,10.9701,45.5859,-0.2756,1.0144,-0.5445,133.12
19:01:52:381,-0.7743,2.4321,10.8371,45.5901,-0.142,1.4365,-0.628,133.46
19:01:52:401,-1.4723,2.0987,9.426,45.3643,-0.0031,1.4738,-0.5264,133.93
19:01:52:422,-1.9674,2.0047,8.202,45.5586,0.1215,1.1012,-0.2953,134.5
19:01:52:441,-2.1413,2.2563,7.6553,45.4592,0.1571,0.4613,-0.0792,135
19:01:52:461,-2.2489,2.3695,8.7137,45.4253,0.1236,-0.1263,0.0762,135.33
19:01:52:481,-2.1836,2.1493,10.5726,45.3198,0.1151,-0.3393,0.1976,135.47
19:01:52:502,-2.2648,1.6355,12.0239,45.3229,0.1689,-0.2121,0.344,135.42
19:01:52:521,-1.874,1.3632,11.7614,45.0591,0.1763,0.1425,0.509,135.18
19:01:52:541,-1.1654,1.5952,10.8096,45.2641,-0.0515,0.3581,0.5164,134.75
19:01:52:613,-0.8742,1.9132,11.0324,45.1523,-0.2538,0.2298,0.353,134.18
19:01:52:613,-1.5393,1.5709,11.796,45.2869,-0.2309,-0.0486,0.097,133.64
19:01:52:614,-2.7083,0.3993,11.972,45.3691,-0.1947,-0.1993,0.031,133.25
19:01:52:623,-3.5316,-0.5891,12.1181,45.5449,-0.1116,-0.1769,0.213,133.15
19:01:52:641,-3.6026,-1.1019,11.5555,45.7752,0.0656,-0.1567,0.4451,133.1
19:01:52:662,-2.93,-1.3278,10.1764,46.0124,0.121,-0.1429,0.625,132.8
19:01:52:681,-1.9017,-1.1849,8.9184,46.2335,0.0347,-0.2227,0.6548,132.25
19:01:52:701,-1.062,-0.947,8.4316,46.8744,-0.1287,-0.4351,0.5159,131.62
19:01:52:721,-0.7931,-0.781,8.9814,47.0451,-0.2479,-0.5533,0.3211,130.96
19:01:52:742,-1.024,-0.8355,9.4755,47.7032,-0.2756,-0.4388,0.1768,130.46
19:01:52:761,-1.3277,-0.8468,9.333,48.1848,-0.2724,-0.1381,0.1444,130.14
19:01:52:781,-1.4971,-0.6741,8.4391,48.6721,-0.2767,0.1079,0.1763,129.93
19:01:52:802,-1.3873,-0.3039,7.6048,49.2346,-0.2905,0.1419,0.2072,129.74
19:01:52:822,-1.2549,0.1142,7.4383,49.5472,-0.2761,-0.0268,0.2061,129.53
19:01:52:841,-1.3009,0.3766,7.6055,49.9467,-0.1899,-0.2105,0.2327,129.3
19:01:52:861,-1.2616,0.6796,7.6211,50.274,-0.1068,-0.2876,0.2716,129.06
19:01:52:881,-0.9777,1.1526,7.5442,50.46,-0.0589,-0.3009,0.2668,128.79
19:01:52:901,-0.5271,1.8671,7.8359,50.8706,-0.0094,-0.3803,0.1401,128.48
19:01:52:922,-0.3935,2.3724,8.567,50.9741,0.1098,-0.5352,-0.0973,128.19
19:01:52:941,-0.6922,2.4677,9.2289,51.0285,0.2301,-0.6076,-0.3321,128.04
19:01:52:961,-1.2515,2.2019,9.517,51.1725,0.2546,-0.5357,-0.4603,128.17
19:01:52:982,-1.9913,1.8716,9.9727,51.2176,0.2801,-0.3989,-0.4103,128.57
19:01:53:001,-2.3426,1.6998,10.1983,51.4225,0.3366,-0.2632,-0.1979,129.11
19:01:53:021,-2.0101,1.9514,10.0598,51.683,0.4244,-0.1077,-0.0111,129.57
19:01:53:041,-1.5458,2.2753,9.3503,51.8766,0.4329,-0.0353,0.0182,129.78
