Time,Acc_X,Acc_Y,Acc_Z,Meg,Gyr_X,Gyr_Y,Gyr_Z,Ore
18:47:18:258,0.2947,0.0419,9.6291,67.8965,0.0379,-0.1237,-0.1473,222.69
18:47:18:279,0.3436,0.0611,9.7315,67.5279,0.0517,-0.1056,-0.126,222.69
18:47:18:299,0.3414,0.1117,9.6731,67.2869,0.0555,-0.0417,-0.0898,69.65
18:47:18:320,0.4362,0.2525,9.4686,67.3019,0.047,-0.0092,-0.0702,70.11
18:47:18:339,0.4979,0.3521,9.4498,67.5622,0.0448,-0.0273,-0.0829,70.2
18:47:18:360,0.5156,0.4149,9.488,67.6038,0.0629,-0.0406,-0.1021,70.25
18:47:18:380,0.4064,0.4128,9.5516,67.4435,0.0848,-0.071,-0.1271,70.33
18:47:18:399,0.2306,0.2421,9.6299,67.3904,0.0922,-0.087,-0.1324,70.34
18:47:18:419,0.0895,0.1526,9.783,67.4595,0.0879,-0.1216,-0.1074,70.39
18:47:18:439,0.061,0.0971,10.1031,67.4134,0.1039,-0.1487,-0.0898,70.48
18:47:18:459,0.0125,0.0579,10.393,67.4412,0.1646,-0.0997,-0.0686,70.58
18:47:18:480,-0.0861,0.063,10.1111,67.478,0.2349,0.0003,-0.018,70.75
18:47:18:499,-0.1124,0.2118,9.5227,67.513,0.2418,0.0839,0.0405,70.95
18:47:18:519,-0.1724,0.4031,9.078,67.413,0.1944,0.0594,0.0666,71.18
18:47:18:539,-0.1542,0.5171,9.0759,67.4298,0.13,-0.0492,0.0517,71.53
18:47:18:559,-0.1075,0.4934,9.2062,67.6817,0.0991,-0.1705,0.0022,71.49
18:47:18:579,-0.0898,0.3888,9.3764,67.7463,0.1193,-0.3345,-0.0356,71.45
18:47:18:600,0.0118,0.2675,9.5953,67.8292,0.1609,-0.3936,-0.0574,71.48
18:47:18:620,0.1237,0.2256,9.8071,67.7874,0.1811,-0.2749,-0.0691,71.56
18:47:18:640,0.384,0.1625,9.6052,67.8543,0.146,-0.1274,-0.1064,71.69
18:47:18:660,0.1435,0.3339,9.4355,67.9241,0.0752,0.0488,-0.1122,71.85
18:47:18:680,0.0577,0.3423,9.2968,67.9698,0.0187,0.0413,-0.1282,72.04
18:47:18:701,-0.0702,0.2852,9.4832,67.9431,0.0012,-0.1221,-0.1532,72.23
18:47:18:719,-0.1827,0.1163,9.7465,68.0283,-0.0068,-0.1407,-0.1319,72.45
18:47:18:739,-0.1338,-0.1523,10.057,68.1384,-0.0558,0.0754,0.0155,72.72
18:47:18:759,0.1201,0.2555,10.1233,68.0401,-0.0776,0.3463,0.1412,73
18:47:18:779,0.4176,0.701,9.9245,68.0563,-0.0574,0.4038,0.1097,73.1
18:47:18:799,0.334,0.9099,9.5995,67.984,0.0156,0.1334,0.0315,73.02
18:47:18:819,0.2534,0.9139,9.3774,67.9445,0.047,-0.2035,-0.0286,72.94
18:47:18:839,0.3919,0.5816,9.4209,68.0769,0.0097,-0.3499,-0.0494,72.93
18:47:18:860,0.4406,0.3966,9.552,68.1023,-0.0888,-0.2679,0.0012,73
18:47:18:879,0.4827,0.3344,9.6067,68.1652,-0.2532,-0.0257,0.0725,73.09
18:47:18:899,0.5429,0.3298,9.6363,68.0954,-0.4241,0.1382,0.0948,73.12
18:47:18:920,0.4848,0.3571,9.9014,67.9427,-0.4726,0.0924,0.0933,73.05
18:47:18:939,0.4894,0.2603,10.2158,68.0521,-0.3256,0.028,0.1076,72.96
18:47:18:959,0.5975,0.2033,10.2038,68.1346,-0.0483,-0.0289,0.1007,72.86
18:47:18:979,0.843,0.4351,9.6427,68.3724,0.2051,-0.0737,0.0491,72.73
18:47:19:001,1.1318,0.7,8.9206,68.4422,0.2748,-0.1732,-0.0734,72.6
18:47:19:019,1.2118,0.7407,8.6643,68.3969,0.1843,-0.31,-0.2261,72.52
18:47:19:039,0.7615,0.3858,9.5169,68.4812,0.0879,-0.2584,-0.2826,72.58
18:47:19:059,0.4237,0.0746,10.2295,68.6832,0.1412,0.0631,-0.1878,72.82
18:47:19:079,0.2534,0.1476,10.0551,68.7773,0.2264,0.2452,-0.0526,73.13
18:47:19:100,0.2755,0.3996,9.4393,68.8861,0.2455,0.2404,0.0437,73.33
18:47:19:119,0.335,0.507,9.0499,68.9105,0.1987,0.168,0.1076,73.37
18:47:19:142,0.4168,0.5896,8.8937,68.9962,0.1614,0.1898,0.1518,73.3
18:47:19:159,0.4534,0.7206,8.5472,68.998,0.1428,0.2622,0.1816,73.17
18:47:19:179,0.3359,0.8767,8.0925,69.0496,0.08,0.1999,0.1768,72.98
18:47:19:199,0.1939,0.8011,8.0492,69.0494,-0.0206,0.1148,0.1704,72.76
18:47:19:220,0.023,0.5313,8.1058,68.724,-0.1255,0.1089,0.2088,72.54
18:47:19:240,-0.2098,0.4166,8.5539,68.3849,-0.2272,0.0493,0.2615,72.34
18:47:19:259,-0.3534,0.2705,9.6603,68.3414,-0.2421,-0.0209,0.2913,72.1
18:47:19:280,-0.6217,0.1964,10.7933,68.3639,-0.1585,0.0083,0.3408,71.81
18:47:19:302,-0.4709,0.1172,11.2233,68.321,-0.052,0.0914,0.4467,71.48
18:47:19:320,0.6695,0.84,10.7376,68.0103,-0.0291,0.2058,0.4132,71.09
18:47:19:340,1.2558,1.7575,10.3372,67.9622,-0.1149,0.3048,-0.0105,70.57
18:47:19:360,-0.2259,2.0686,9.6499,67.7723,-0.2351,0.1185,-0.1319,70.08
18:47:19:380,-0.0802,1.8799,9.9984,67.7924,-0.3437,-0.0358,-0.067,70.06
18:47:19:399,0.1014,1.8329,10.3758,68.1413,-0.3975,-0.1269,-0.0707,70.18
18:47:19:420,-0.0743,1.6523,10.9252,68.164,-0.3395,-0.121,-0.0451,70.22
18:47:19:439,-0.3204,1.2674,10.98,68.0839,-0.1729,-0.0247,0.0847,70.27
18:47:19:460,-0.3187,1.1227,10.4438,67.7624,0.056,0.1377,0.2982,70.28
18:47:19:481,-0.0766,1.263,9.1795,67.9619,0.2333,0.2005,0.4787,70.14
18:47:19:502,0.3691,1.6033,8.1102,68.0421,0.3035,0.052,0.4792,69.75
18:47:19:520,0.7279,1.7701,7.5371,68.174,0.2934,-0.2823,0.2828,69.15
18:47:19:540,0.6883,1.5904,7.5116,68.1413,0.0512,-0.4889,-0.0089,68.55
18:47:19:559,0.328,0.9991,8.5776,68.1096,-0.2197,-0.4633,-0.1798,68.18
18:47:19:579,0.1089,0.4704,10.2488,68.0274,-0.2623,-0.2983,-0.2272,68.16
18:47:19:600,-0.0733,0.2146,10.8475,68.0517,-0.092,-0.0843,-0.2064,68.34
18:47:19:620,-0.0783,0.2454,10.194,68.1546,0.0214,0.1094,-0.1873,68.57
18:47:19:640,-0.1352,0.3993,9.3427,68.3847,-0.0047,0.2399,-0.2107,68.77
18:47:19:660,-0.2268,0.2224,8.9353,68.6603,-0.0771,0.2899,-0.2602,68.95
18:47:19:680,-0.3809,0.1929,8.795,68.6432,-0.1622,0.3511,-0.3187,69.15
18:47:19:700,-0.463,0.7038,8.8087,68.5523,-0.232,0.3676,-0.3225,69.41
18:47:19:719,-0.3994,1.2276,8.8399,68.5989,-0.2314,0.2596,-0.3353,69.73
18:47:19:739,-0.525,1.6122,8.8105,68.6316,-0.1755,0.0434,-0.3182,70.06
18:47:19:759,-0.6628,1.7734,9.0067,68.4563,-0.1388,-0.1636,-0.2283,70.41
18:47:19:779,-0.5556,1.6864,9.352,68.6301,-0.1543,-0.3249,-0.1016,70.74
18:47:19:799,-0.1839,1.4968,9.9551,68.7961,-0.2085,-0.2962,-0.0042,70.96
18:47:19:819,-0.2801,1.099,10.6373,68.6523,-0.2788,-0.0859,0.1529,71.05
18:47:19:839,-0.4433,1.1641,11.1483,68.3909,-0.3278,0.0546,0.319,71.02
18:47:19:860,-0.2643,1.4245,11.5512,68.3681,-0.2831,0.0062,0.3344,70.8
18:47:19:880,-0.2563,1.2082,11.9682,68.2178,-0.1766,-0.121,0.213,70.4
18:47:19:899,-0.1758,0.4724,12.1135,68.3631,-0.0334,-0.0901,0.1385,69.97
18:47:19:919,-0.2045,-0.1075,11.4697,68.3528,0.0379,0.1121,0.164,69.69
18:47:19:940,0.0249,-0.3613,10.6974,68.5241,0.039,0.2809,0.2205,69.49
18:47:19:960,0.4187,-0.2468,10.3348,68.3117,0.0347,0.3133,0.2349,69.27
18:47:19:980,0.9632,-0.1072,10.214,68.1449,0.0869,0.2138,0.1348,69
18:47:20:001,1.2786,-0.0463,10.082,68.1882,0.1247,0.1669,-0.0574,68.7
18:47:20:019,1.265,-0.1518,9.8639,68.1086,0.1273,0.1739,-0.2331,68.52
18:47:20:039,1.1581,-0.3222,9.976,68.1007,0.1619,0.2431,-0.3507,68.56
18:47:20:059,0.9462,-0.4863,9.8261,68.0105,0.2232,0.3213,-0.4343,68.79
18:47:20:080,0.7398,-0.6199,9.4571,67.7875,0.2056,0.2809,-0.5274,69.17
18:47:20:100,0.5868,-0.865,9.64,67.625,0.1449,0.176,-0.6174,69.64
18:47:20:120,0.2389,-1.1634,9.9175,67.4786,0.1066,0.1164,-0.6381,70.22
18:47:20:141,-0.1054,-1.2829,10.0333,67.4599,0.0831,0.1467,-0.5721,70.92
18:47:20:159,-0.2714,-1.0782,9.8345,67.3439,0.0933,0.2436,-0.4534,71.64
18:47:20:180,-0.2853,-0.5536,9.3595,67.3045,0.1172,0.3698,-0.3581,72.29
18:47:20:201,-0.2344,0.1045,8.5755,67.1085,0.0997,0.4294,-0.3342,72.8
18:47:20:273,-0.373,0.5326,7.9847,67.0002,0.0597,0.3479,-0.3592,73.2
18:47:20:274,-0.5264,0.6561,7.6413,67.0893,0.0395,0.2298,-0.3619,73.57
18:47:20:279,-0.8165,0.5513,7.2604,66.8266,-0.0015,0.1318,-0.3076,73.97
18:47:20:279,-1.0508,0.583,7.0309,66.6704,-0.0829,0.0131,-0.1974,74.38
18:47:20:299,-0.8167,0.7418,7.3521,66.5356,-0.1495,-0.0827,-0.1351,74.72
18:47:20:319,-0.4036,0.7892,8.244,66.2928,-0.166,-0.0433,-0.1788,74.95
18:47:20:340,-0.3204,0.7054,8.9151,66.2469,-0.1266,0.1025,-0.265,75.1
18:47:20:359,-0.6751,0.5216,9.1433,66.1737,-0.0558,0.2452,-0.2932,75.3
18:47:20:380,-1.1218,0.3694,9.0641,66.1175,0.0283,0.2617,-0.2043,75.6
18:47:20:400,-1.2786,0.4917,8.8162,65.946,0.0853,0.159,-0.0286,75.92
18:47:20:419,-1.0263,0.9912,8.7686,65.87,0.1199,-0.005,0.1348,76.15
18:47:20:440,-0.6343,1.5436,9.0425,65.9678,0.0991,-0.0715,0.2008,76.17
18:47:20:459,-0.3122,1.9088,9.5099,65.961,0.0661,-0.0204,0.1774,76
18:47:20:481,-0.2476,1.9412,9.937,65.96,0.0517,0.0781,0.1097,75.76
18:47:20:502,-0.3504,1.5911,10.1413,65.9835,0.0491,0.0977,0.0741,75.54
18:47:20:520,-0.5104,1.0738,10.5874,65.9944,0.0853,-0.0177,0.0895,75.39
18:47:20:540,-0.6515,0.5745,11.2008,65.7152,0.1875,-0.1114,0.1523,75.28
18:47:20:560,-0.7165,0.2048,11.264,65.6522,0.2567,-0.0124,0.2492,75.15
18:47:20:580,-0.6898,0.0369,10.7022,65.8794,0.1454,0.225,0.3546,74.96
18:47:20:601,-0.6434,0.2775,10.5951,65.9997,-0.0526,0.3698,0.4137,74.66
18:47:20:620,-0.4851,0.5078,10.8439,65.9055,-0.1739,0.3325,0.3392,74.23
18:47:20:640,-0.4252,0.5195,11.1106,66.0033,-0.2187,0.1073,0.1555,73.71
18:47:20:660,-0.6966,0.1567,11.6981,66.0481,-0.2442,-0.2451,-0.0547,73.29
18:47:20:680,-1.4811,-0.5451,12.8047,66.1516,-0.191,-0.3962,-0.1207,73.09
18:47:20:699,-2.3064,-1.175,13.2349,66.205,0.0198,-0.2019,0.0922,73.16
18:47:20:719,-2.0587,-1.1311,11.9803,66.2741,0.2625,0.1888,0.4329,73.31
18:47:20:740,-1.0245,-0.318,9.8428,66.2703,0.3339,0.3911,0.5798,73.21
18:47:20:760,-0.1829,0.3969,8.2674,66.2046,0.3296,0.1994,0.4526,72.71
18:47:20:780,-0.0735,0.5323,7.5872,66.0195,0.2051,-0.161,0.1923,72.03
18:47:20:800,-0.2776,0.1954,8.1879,66.0005,0.0427,-0.4532,-0.0574,71.5
18:47:20:820,-0.9519,-0.4035,9.3638,65.8157,-0.0355,-0.5586,-0.2181,71.29
18:47:20:840,-1.4697,-0.8866,10.1636,65.8798,-0.0275,-0.4452,-0.2118,71.39
18:47:20:860,-1.5254,-0.8765,9.9338,65.6535,-0.0089,-0.2296,-0.1479,71.69
18:47:20:880,-1.5357,-0.6237,9.223,65.6159,-0.0206,-0.0742,-0.0978,71.97
18:47:20:900,-1.5267,-0.3856,8.6533,65.7453,0.0001,-0.0156,-0.0398,72.17
18:47:20:922,-1.4794,-0.2372,8.0754,65.801,0.0565,-0.0066,0.0629,72.3
18:47:20:940,-1.3011,-0.0533,7.5727,65.5726,0.0784,0.0067,0.1832,72.36
18:47:20:960,-1.1917,0.1977,7.2851,65.341,0.0613,0.0434,0.2843,72.31
18:47:20:980,-1.0415,0.4535,7.1983,65.3946,0.0331,0.0253,0.3376,72.11
18:47:21:000,-0.9103,0.646,7.1669,65.4821,-0.0185,-0.0369,0.3408,71.8
18:47:21:020,-0.8624,0.8216,7.398,65.3838,-0.0659,-0.1407,0.328,71.42
18:47:21:040,-0.7234,0.9842,7.875,65.3423,-0.0744,-0.2722,0.3051,71.05
18:47:21:060,-0.4538,1.1192,8.4541,65.2793,-0.0707,-0.3318,0.2577,70.69
18:47:21:080,-0.2178,1.1647,8.9454,65.2345,-0.1085,-0.252,0.1885,70.37
18:47:21:100,-0.0932,1.1903,9.5754,65.1933,-0.1244,-0.0992,0.1215,70.1
18:47:21:119,-0.234,1.2047,10.048,65.4466,-0.0568,0.0392,0.0554,69.91
18:47:21:140,-0.4624,1.172,10.1574,65.6045,0.0283,0.1339,0.0043,69.78
18:47:21:160,-0.6638,1.1342,10.5085,65.6504,0.0672,0.1547,-0.0308,69.72
18:47:21:180,-0.7148,0.9167,11.7257,65.5953,0.1768,0.1052,-0.0776,69.71
18:47:21:200,-0.6268,0.2487,12.2663,65.6069,0.2753,0.1685,-0.101,69.74
18:47:21:219,-0.678,-0.3699,11.912,65.8602,0.2423,0.3543,-0.0031,69.82
18:47:21:240,-0.2308,-0.2679,11.2523,65.949,0.1492,0.4496,0.164,69.93
18:47:21:260,0.5619,0.5989,10.7539,65.8165,0.0619,0.2425,0.1374,69.92
18:47:21:280,0.4516,0.9947,10.5279,65.7811,0.0086,-0.3712,-0.1388,69.7
18:47:21:299,-0.4337,0.5118,11.2241,65.6884,-0.1425,-0.8264,-0.3512,69.53
18:47:21:320,-1.2056,-0.2885,12.8225,65.6072,-0.2751,-0.6299,-0.3954,69.72
18:47:21:340,-1.8713,-0.8612,13.2243,65.849,-0.1862,0.004,-0.166,70.19
18:47:21:360,-1.6266,-0.7815,11.6475,66.0543,0.0475,0.4533,0.2545,70.7
18:47:21:380,-0.2935,-0.0207,9.576,66.0983,0.2998,0.5838,0.5484,70.91
18:47:21:401,1.1632,1.1954,7.6015,65.9743,0.3967,0.2825,0.5042,70.6
18:47:21:419,2.1038,2.1321,6.9356,65.9589,0.2775,-0.3909,0.0421,69.94
18:47:21:440,2.1073,1.8642,8.2904,65.9222,0.0363,-0.9041,-0.6461,69.34
18:47:21:461,1.018,0.3466,10.3447,65.9139,-0.2059,-0.7854,-1.1508,69.33
18:47:21:480,-0.8963,-1.3574,11.8706,65.917,-0.2597,-0.3329,-1.1854,70.16
18:47:21:499,-2.232,-2.2102,11.7283,66.0677,-0.1122,0.1962,-0.7611,71.55
18:47:21:519,-2.3371,-1.6868,10.1222,65.9039,0.073,0.4906,-0.2011,72.94
18:47:21:540,-1.5066,-0.4826,8.159,65.695,0.1832,0.3346,0.1507,73.81
18:47:21:560,-0.5424,0.3965,6.7969,65.5397,0.2045,-0.0529,0.2679,74.02
18:47:21:580,0.0941,0.9526,6.4714,65.6154,0.2013,-0.4782,0.2955,73.84
18:47:21:600,0.5796,1.3121,6.9352,65.4897,0.1949,-0.6379,0.254,73.55
18:47:21:622,0.8235,1.5189,7.3953,65.5514,0.1422,-0.5059,0.1241,73.27
18:47:21:640,0.6982,1.5051,7.5637,65.6999,0.031,-0.2238,-0.0435,73.04
18:47:21:660,0.2786,1.1842,7.4846,65.627,-0.0994,-0.0172,-0.1756,72.96
18:47:21:680,-0.4979,0.7325,7.6977,65.4539,-0.1846,-0.0071,-0.1969,73.04
18:47:21:700,-1.0219,0.3157,8.5052,65.4027,-0.1308,-0.1184,-0.1016,73.25
18:47:21:720,-1.1104,-0.0311,8.8748,65.5988,-0.0254,-0.1466,0.0544,73.48
18:47:21:740,-1.1613,0.0448,8.9278,65.7151,-0.0244,-0.0939,0.2242,73.62
18:47:21:760,-1.0066,0.3589,9.4651,65.8321,-0.0446,0.0419,0.352,73.57
18:47:21:781,-0.5996,0.77,9.8576,65.8989,-0.0281,0.2878,0.4409,73.34
18:47:21:801,-0.0686,1.2292,9.8651,66.0449,-0.011,0.465,0.451,72.94
18:47:21:820,0.2914,1.4487,9.7066,65.9049,0.0086,0.3708,0.3733,72.43
18:47:21:840,0.6039,1.434,9.9662,65.8401,-0.0009,0.1739,0.2705,71.88
18:47:21:860,0.578,0.9864,10.5546,65.833,-0.0329,0.2069,0.1981,71.43
18:47:21:880,0.1366,0.5469,10.5372,65.7465,-0.1181,0.4437,0.2274,71.12
18:47:21:900,0.0191,0.4139,9.9457,65.4548,-0.3688,0.4789,0.2726,70.88
18:47:21:921,0.2555,0.4114,10.6036,65.2596,-0.6493,0.0583,0.2088,70.59
18:47:21:940,0.2703,-0.336,13.1752,64.7514,-0.5955,-0.3377,0.0384,70.25
18:47:21:960,-0.6774,-1.5654,14.6357,64.7651,-0.2479,-0.3201,0.0916,70.02
18:47:21:980,-1.4734,-2.2689,14.0356,64.5745,0.1486,0.0882,0.5143,70
18:47:22:000,-0.8804,-1.6425,11.7425,64.4681,0.3344,0.4816,0.9801,69.93
18:47:22:020,0.3734,-0.4968,9.277,64.391,0.2833,0.5087,1.0898,69.35
18:47:22:039,1.1031,0.2538,8.065,64.2905,0.1944,0.2058,0.8364,68.22
18:47:22:059,0.9796,0.3527,7.4443,64.1296,0.0656,-0.2562,0.4632,66.96
18:47:22:080,0.5472,0.2772,7.7556,64.0742,-0.1303,-0.6645,0.114,66.01
18:47:22:099,0.3189,-0.0467,8.8997,64.0553,-0.2277,-0.8929,-0.2,65.51
18:47:22:120,-0.3098,-0.8342,10.4276,64.4349,-0.1234,-1.0521,-0.3608,65.43
18:47:22:140,-0.826,-1.2991,11.6159,64.4641,0.2003,-0.9866,-0.3156,65.73
18:47:22:160,-0.918,-1.2253,11.5092,64.4309,0.5532,-0.7811,-0.1644,66.22
18:47:22:180,-0.6424,-0.7102,10.3465,64.6369,0.7209,-0.475,0.0107,66.65
18:47:22:201,-0.2399,-0.2025,8.8196,64.9365,0.6272,-0.1082,0.1295,66.91
18:47:22:220,-0.12,0.1946,7.3229,64.8853,0.3344,0.1451,0.205,66.95
18:47:22:239,-0.1778,0.3207,6.4286,65.192,-0.0025,0.1622,0.3051,66.83
18:47:22:260,-0.0532,0.5657,6.3058,65.3996,-0.257,-0.063,0.3999,66.6
18:47:22:332,0.1169,0.6329,7.0721,65.3881,-0.3086,-0.3776,0.4717,66.26
18:47:22:332,0.26,0.9126,8.3464,65.2558,-0.1644,-0.5719,0.4834,65.83
18:47:22:332,0.5157,1.1972,9.2304,65.239,0.0342,-0.4692,0.4425,65.34
18:47:22:340,0.7502,1.3201,9.0632,65.5419,0.0784,-0.1876,0.3147,64.85
18:47:22:359,0.6044,1.4224,8.713,65.4148,-0.0153,0.0211,0.1944,64.4
18:47:22:379,0.4725,1.4342,8.8046,65.5937,-0.0882,0.0754,0.1278,64.08
18:47:22:400,0.38,1.4813,8.942,65.816,-0.0558,0.0456,0.1114,63.87
18:47:22:420,0.4337,1.6868,8.932,65.7497,-0.0047,0.0062,0.1076,63.72
18:47:22:440,0.5391,2.0552,8.8112,65.7544,-0.0169,-0.055,0.032,63.6
18:47:22:461,0.55,2.1054,9.2334,65.8047,-0.0712,-0.1322,-0.1064,63.49
18:47:22:480,0.2402,1.7083,10.2868,65.9327,-0.0356,-0.0348,-0.1266,63.47
18:47:22:500,-0.0479,1.1516,10.6105,66.0488,0.0507,0.1398,-0.0159,63.62
18:47:22:520,0.1501,0.8351,10.7647,65.8709,0.1646,0.1978,0.1321,63.78
18:47:22:540,0.8234,0.4426,11.0288,65.7811,0.2423,0.267,0.2444,63.8
18:47:22:560,1.5187,0.11,11.1314,65.659,0.2753,0.4437,0.2332,63.64
18:47:22:580,1.1855,0.0858,10.4349,65.3874,0.0927,0.4374,0.1608,63.35
18:47:22:600,0.4209,-0.0155,11.242,65.4535,-0.199,0.1488,0.0991,63.06
18:47:22:620,-0.3958,-0.6194,13.5663,65.2441,-0.1532,0.0019,0.1614,62.85
18:47:22:640,-0.4895,-0.8261,14.239,65.4559,0.1476,0.2404,0.4009,62.74
18:47:22:660,0.7502,-0.4503,12.7983,65.3246,0.4318,0.4853,0.5479,62.57
18:47:22:680,1.9085,0.2102,11.0215,65.0193,0.5974,0.4421,0.4382,62.11
18:47:22:700,2.3942,0.6189,9.5627,64.86,0.5921,0.4219,0.1257,61.46
18:47:22:720,1.994,0.5513,8.2644,64.6856,0.3482,0.4251,-0.249,60.93
18:47:22:740,0.7401,0.1279,8.074,64.1773,0.0358,0.3203,-0.4923,60.75
18:47:22:760,-0.529,-0.2625,8.7024,64.1793,-0.134,0.143,-0.496,61
18:47:22:780,-1.1782,-0.4558,9.0314,63.6989,-0.1521,0.0211,-0.2895,61.54
18:47:22:799,-1.1084,-0.2555,8.7473,63.4724,-0.1218,-0.0045,-0.0068,62.11
18:47:22:820,-0.5937,0.3557,7.9786,62.9564,-0.1138,-0.0194,0.212,62.45
18:47:22:839,0.0533,0.9909,7.2073,62.5024,-0.1415,-0.0753,0.2891,62.49
18:47:22:860,0.5246,1.4354,6.7975,62.3659,-0.1819,-0.1263,0.2189,62.27
18:47:22:880,0.6584,1.5003,6.603,62.3035,-0.2346,-0.17,0.0767,61.97
18:47:22:900,0.49,1.2976,6.7069,62.1697,-0.3219,-0.2488,-0.0414,61.75
18:47:22:921,0.1082,0.9326,7.3411,62.2834,-0.3853,-0.301,-0.0797,61.7
18:47:22:940,-0.1785,0.6117,8.0767,62.1885,-0.3906,-0.3334,-0.0244,61.8
18:47:22:960,-0.2277,0.4951,8.6977,62.1924,-0.3368,-0.3531,0.0634,61.93
18:47:22:980,-0.0017,0.5406,9.0898,62.2446,-0.2676,-0.294,0.1204,62.01
18:47:23:000,0.2334,0.6693,8.9751,62.439,-0.2527,-0.1759,0.1428,61.99
18:47:23:021,0.2,1.0512,8.6229,62.5157,-0.3203,-0.1594,0.1683,61.89
18:47:23:039,0.2784,1.3891,8.6158,62.5701,-0.4502,-0.2291,0.2104,61.76
18:47:23:059,0.5676,1.556,9.6149,62.5436,-0.5194,-0.1652,0.2907,61.59
18:47:23:079,1.0171,1.6131,10.8709,62.5841,-0.3837,0.2968,0.3807,61.38
18:47:23:099,1.0773,1.8355,11.255,62.6334,-0.0707,0.5289,0.402,61.07
18:47:23:121,1.086,1.8003,11.1166,62.4798,0.3057,0.365,0.3083,60.64
18:47:23:140,0.9276,1.2066,11.1255,62.4215,0.4962,0.0679,0.1774,60.18
18:47:23:160,0.6138,0.4886,11.7208,62.2666,0.5239,0.1105,0.1454,59.83
18:47:23:179,0.2932,-0.0644,11.8443,62.2032,0.3866,0.4198,0.2285,59.64
18:47:23:200,0.0391,-0.0666,11.5255,62.2642,0.0975,0.645,0.4057,59.48
18:47:23:221,0.3595,0.3426,11.6609,62.0596,-0.1548,0.6519,0.4808,59.21
18:47:23:240,0.5651,0.5823,12.3231,61.764,-0.2091,0.3788,0.3344,58.72
18:47:23:260,0.0436,0.0829,12.9713,61.622,-0.0989,0.0552,0.1476,58.15
18:47:23:279,-0.7434,-1.0108,12.9884,61.3604,0.065,-0.0279,0.1273,57.76
18:47:23:299,-1.385,-1.942,12.1984,61.1726,0.2338,0.2324,0.3296,57.61
18:47:23:320,-1.2357,-2.0927,10.4065,60.8062,0.3057,0.5193,0.6075,57.49
18:47:23:340,-0.6472,-1.616,8.613,60.57,0.2673,0.4826,0.772,57.12
18:47:23:360,-0.0383,-0.9362,7.617,60.0883,0.1635,0.085,0.7725,56.42
18:47:23:380,0.4711,-0.3487,7.8108,59.6972,0.0619,-0.4175,0.6517,55.53
18:47:23:399,0.763,-0.0966,8.6903,59.385,-0.0276,-0.64,0.4483,54.66
18:47:23:420,0.6688,-0.0829,9.4724,59.2349,-0.1095,-0.4729,0.2551,53.97
18:47:23:440,0.2055,-0.0613,9.7377,59.0716,-0.1628,-0.1226,0.1534,53.53
18:47:23:460,-0.0471,0.1179,9.5195,58.8649,-0.1351,0.1052,0.1119,53.3
18:47:23:480,-0.0529,0.3067,8.952,58.6298,-0.0542,0.1717,0.0746,53.16
18:47:23:500,-0.171,0.3508,8.4117,58.622,0.0193,0.1456,0.0416,53.05
18:47:23:521,-0.4061,0.2095,7.9846,58.5241,0.0693,0.1446,0.0725,52.98
18:47:23:540,-0.4605,0.1652,7.4695,58.5634,0.0896,0.1542,0.1555,52.95
18:47:23:560,-0.2532,0.3994,6.9244,58.5616,0.056,0.0924,0.2109,52.88
18:47:23:580,0.0792,0.7571,6.8336,58.3917,-0.0329,-0.0396,0.1774,52.72
18:47:23:599,0.257,1.0345,7.2336,58.1304,-0.1191,-0.2078,0.0512,52.5
18:47:23:621,0.0743,1.066,8.0564,57.8753,-0.1936,-0.3116,-0.109,52.32
18:47:23:640,-0.3802,0.7463,9.1887,57.708,-0.2144,-0.3057,-0.1713,52.3
18:47:23:660,-0.6418,0.4954,10.0534,57.7495,-0.1436,-0.1482,-0.0978,52.47
18:47:23:680,-0.5483,0.7138,10.1857,57.4946,-0.0031,0.036,0.0283,52.71
18:47:23:700,-0.2556,1.1544,9.7473,57.3502,0.1023,0.1382,0.0773,52.85
18:47:23:721,-0.1077,1.5239,9.3362,57.1171,0.0847,0.1217,0.0432,52.84
18:47:23:740,-0.1803,1.5454,9.4685,56.9526,-0.0025,-0.0108,-0.0047,52.77
18:47:23:760,-0.6486,1.3018,10.2592,56.8051,-0.0228,-0.2408,0.0129,52.71
18:47:23:780,-0.9589,0.7982,11.186,56.805,0.0102,-0.3936,0.1523,52.74
18:47:23:800,-0.8289,0.4623,11.9208,56.7025,0.0544,-0.4654,0.3626,52.76
18:47:23:820,0.0219,0.2951,12.5111,56.6482,0.1311,-0.4191,0.517,52.63
18:47:23:839,0.9411,0.2257,12.1731,56.465,0.18,-0.2344,0.5308,52.27
18:47:23:860,1.3273,0.4553,11.1368,56.4539,0.0549,-0.1157,0.4158,51.72
18:47:23:880,1.0282,0.5276,10.9388,56.3816,-0.1543,-0.1519,0.2093,51.15
18:47:23:900,-0.2985,-0.0058,11.9257,56.2242,-0.2187,-0.3105,0.0869,50.7
18:47:23:921,-1.5741,-0.9156,12.6784,56.0038,-0.0499,-0.4287,0.2327,50.5
18:47:23:940,-1.7851,-1.4446,12.8313,56.0862,0.2631,-0.335,0.5915,50.44
18:47:23:961,-0.7174,-1.2852,11.6569,56.0705,0.5894,-0.0045,0.9354,50.23
18:47:23:980,0.8532,-0.5755,9.4236,56.0634,0.7443,0.2489,1.0557,49.6
18:47:24:000,2.0616,0.3388,7.2448,55.8942,0.6048,0.1132,0.838,48.55
18:47:24:021,2.3796,1.1985,6.6104,55.7732,0.2498,-0.2637,0.3738,47.35
18:47:24:039,1.9793,1.2541,7.5295,55.5839,-0.1207,-0.4873,-0.1303,46.36
18:47:24:061,1.1852,0.548,8.856,55.6377,-0.3076,-0.474,-0.447,46
18:47:24:079,0.3285,-0.143,9.4633,55.6478,-0.3251,-0.3494,-0.4997,46.23
18:47:24:099,-0.1234,-0.424,9.5161,55.7213,-0.2479,-0.1024,-0.3496,46.81
18:47:24:120,-0.1902,-0.2608,9.0935,55.7773,-0.1319,0.1275,-0.0968,47.44
18:47:24:139,0.1699,0.1811,8.6212,55.795,0.0086,0.3346,0.0459,47.88
18:47:24:159,0.3928,0.717,8.0081,55.6159,0.1768,0.4411,0.0943,48.01
18:47:24:179,0.4901,1.1234,7.3882,55.4815,0.3019,0.4331,0.089,47.96
18:47:24:199,0.4746,1.3109,6.894,55.4652,0.3461,0.398,0.0549,47.84
18:47:24:220,0.287,1.3242,6.5127,55.4741,0.312,0.3224,0.0432,47.72
18:47:24:241,0.2285,1.3847,6.5557,55.4054,0.2136,0.192,0.0746,47.65
18:47:24:260,0.3678,1.4927,7.1953,55.2468,0.113,0.0621,0.0943,47.59
18:47:24:279,0.5141,1.5858,8.0794,55.134,0.0507,0.004,0.0901,47.51
18:47:24:300,0.4746,1.5343,9.0083,54.9957,0.0139,0.0456,0.0916,47.42
18:47:24:319,0.2651,1.5301,9.9004,54.8265,0.0198,0.234,0.1603,47.34
18:47:24:390,0.0058,1.5529,10.3685,54.5925,0.0746,0.5023,0.286,47.26
18:47:24:391,-0.11,1.6706,10.2178,54.6413,0.1598,0.7195,0.444,47.07
18:47:24:391,-0.1337,1.8908,9.6636,54.5425,0.2194,0.7078,0.5809,46.71
18:47:24:399,-0.0238,2.0127,9.3434,54.1955,0.2098,0.3969,0.592,46.14
18:47:24:419,-0.2072,1.6605,9.9492,53.9118,0.1327,-0.0103,0.5303,45.42
18:47:24:442,-0.8199,0.6506,11.1337,53.7234,0.0187,-0.1407,0.5617,44.71
18:47:24:459,-1.3547,-0.1835,12.1927,53.5976,-0.0558,-0.1082,0.8082,44.14
18:47:24:479,-1.3603,-0.2571,12.9098,53.3539,-0.019,-0.0784,1.1606,43.54
18:47:24:499,-0.8167,0.2511,13.1007,53.2635,0.1108,0.1063,1.4086,42.66
18:47:24:519,0.1238,1.072,12.2415,53.2116,0.1784,0.3841,1.4161,41.38
18:47:24:539,0.6844,1.8002,11.0853,53.0567,0.1167,0.4597,1.2117,39.78
18:47:24:559,0.8605,2.03,10.9271,52.9971,0.1385,0.3,0.8502,38.15
18:47:24:580,0.3909,1.4083,10.351,53.0207,0.2482,0.2734,0.4547,36.73
18:47:24:600,-0.4216,0.7022,8.8999,52.9302,0.1156,0.3591,0.1992,35.75
18:47:24:620,-1.073,0.3215,8.1686,53.0154,-0.1819,0.3602,0.0693,35.22
18:47:24:641,-1.7749,0.08,8.398,53.0066,-0.4353,0.0993,-0.0025,34.96
18:47:24:660,-1.8839,-0.0537,9.189,52.8862,-0.5663,-0.3143,0.0198,34.86
18:47:24:680,-1.535,0.0564,10.2764,52.6315,-0.5908,-0.5485,0.0592,34.88
18:47:24:699,-0.6769,0.2837,10.8713,52.4324,-0.5056,-0.408,0.0475,34.92
18:47:24:720,-0.0149,0.6708,10.2228,52.204,-0.3949,-0.0662,-0.0398,34.95
18:47:24:739,0.2975,0.921,8.9806,52.0799,-0.2815,0.151,-0.142,34.97
18:47:24:761,0.3623,0.959,7.824,51.8789,-0.1553,0.1637,-0.2128,35.05
18:47:24:779,0.2114,0.8128,7.1725,51.9213,-0.0419,0.0466,-0.2341,35.23
18:47:24:799,-0.1887,0.4863,6.7825,51.6371,0.0485,-0.1072,-0.1889,35.48
18:47:24:819,-0.7148,0.2577,6.6196,51.6466,0.0693,-0.2573,-0.1053,35.78
18:47:24:841,-1.2179,0.1228,7.1088,51.5298,0.0358,-0.3185,0.0102,36.03
18:47:24:859,-1.4106,0.119,7.872,51.4241,0.0001,-0.2365,0.1396,36.2
18:47:24:879,-1.3923,0.3661,8.612,51.4958,-0.0127,-0.1359,0.2476,36.24
18:47:24:900,-1.2289,0.6063,9.3098,51.6522,0.0102,-0.0641,0.3275,36.13
18:47:24:920,-1.1223,0.8702,9.8331,51.5069,0.0938,-0.03,0.4196,35.89
18:47:24:940,-0.7883,1.2024,10.0865,51.6229,0.1981,0.0961,0.4904,35.55
18:47:24:960,-0.4237,1.5745,9.8775,51.7048,0.2418,0.2926,0.4994,35.1
18:47:24:981,-0.263,1.8892,9.7021,51.8686,0.2061,0.3485,0.4494,34.56
18:47:25:000,-0.2628,1.9605,9.8612,51.7421,0.1279,0.2345,0.345,34
18:47:25:022,-0.5554,1.4952,10.4709,51.9213,0.0501,0.0062,0.2891,33.48
18:47:25:039,-0.7545,0.6961,11.514,51.7448,0.0171,-0.1604,0.3158,33.09
18:47:25:059,-0.6699,-0.1325,12.3569,51.699,0.0187,0.019,0.4499,32.79
18:47:25:079,-0.1572,-0.3736,11.7444,51.6252,-0.0755,0.3533,0.6208,32.48
18:47:25:099,-0.1207,0.0792,10.6543,51.7013,-0.3262,0.332,0.6634,31.99
18:47:25:120,-0.4969,0.3316,10.835,51.5242,-0.5098,-0.0071,0.6006,31.28
18:47:25:139,-1.0369,0.0462,11.8347,51.2304,-0.496,-0.269,0.5782,30.52
18:47:25:160,-1.1545,-0.4087,12.6925,50.8815,-0.3076,-0.3047,0.6942,29.83
18:47:25:180,-0.5142,-0.5856,12.8177,50.8592,0.015,-0.1514,0.8555,29.25
18:47:25:200,0.646,-0.283,11.8192,50.6808,0.3275,0.085,0.9008,28.51
18:47:25:222,1.9398,0.3098,10.0747,50.9529,0.4398,0.1355,0.6916,27.57
18:47:25:239,2.4838,0.8769,8.9017,50.8643,0.3216,-0.0018,0.2183,26.56
18:47:25:259,1.7732,0.7744,8.8745,50.8811,0.1263,-0.1732,-0.3076,25.79
18:47:25:279,0.3396,-0.2052,9.3265,50.5258,0.0294,-0.2105,-0.5594,25.57
18:47:25:300,-1.1271,-1.1401,9.5939,50.3639,0.0278,-0.071,-0.4199,25.96
18:47:25:321,-1.7125,-1.2589,9.258,50.4414,0.0991,0.1068,-0.034,26.65
18:47:25:340,-1.2097,-0.4731,8.5568,50.5041,0.179,0.1558,0.3067,27.16
18:47:25:359,-0.275,0.553,7.8066,50.4159,0.2301,0.1212,0.4228,27.22
18:47:25:379,0.346,1.2523,7.1465,50.4884,0.2391,0.0999,0.3477,26.89
18:47:25:399,0.5624,1.5106,6.5229,50.2765,0.1758,0.1318,0.1896,26.42
18:47:25:420,0.462,1.5111,6.0738,50.0792,0.0459,0.1387,0.0752,26.04
18:47:25:441,0.3323,1.5248,6.1992,49.7825,-0.0212,0.0248,0.0459,25.84
18:47:25:460,0.4394,1.6256,6.6962,49.8607,0.0161,-0.1807,0.0283,25.76
18:47:25:479,0.6893,1.6347,7.2759,49.9411,0.065,-0.3292,-0.01,25.73
18:47:25:499,0.9803,1.705,7.8063,49.9517,0.0273,-0.3595,-0.0856,25.75
18:47:25:519,1.1905,1.7835,8.6538,49.9986,-0.0547,-0.301,-0.2165,25.82
18:47:25:539,0.8403,1.57,9.5523,49.9944,-0.1218,-0.1311,-0.3235,25.98
18:47:25:559,0.1059,1.1221,10.3723,49.7495,-0.0984,0.0748,-0.2554,26.28
18:47:25:579,-0.4786,0.9284,11.0315,49.7776,0.0326,0.3117,-0.0025,26.69
18:47:25:600,-0.478,1.1932,11.1844,49.8671,0.238,0.5098,0.2796,27
18:47:25:619,-0.4564,1.3839,10.523,49.9647,0.3802,0.4342,0.4696,26.99
18:47:25:639,-0.4271,1.2363,10.3753,50.1077,0.3807,0.1845,0.5793,26.64
18:47:25:659,-0.6397,0.7026,10.7487,49.9489,0.2519,0.0562,0.6767,26.08
18:47:25:679,-1.1339,0.0732,11.3128,49.7778,0.1146,-0.0156,0.8864,25.42
18:47:25:700,-1.0282,0.0831,11.9791,49.6256,0.0959,-0.1093,1.159,24.67
18:47:25:720,-0.2152,0.708,12.3344,49.4893,0.1428,-0.0651,1.2777,23.69
18:47:25:740,0.7109,1.4299,11.8915,49.4702,0.0704,0.1041,1.127,22.41
18:47:25:760,0.7266,1.6302,11.3794,49.2126,-0.1362,0.1217,0.8028,20.99
18:47:25:780,-0.025,0.9979,12.0549,49.1792,-0.1553,-0.0215,0.5447,19.72
18:47:25:800,-0.8279,-0.0031,11.9572,49.1379,0.0421,0.0887,0.4621,18.81
18:47:25:821,-1.3012,-0.5703,10.0352,48.8328,0.0922,0.4512,0.575,18.22
18:47:25:842,-1.337,-0.232,7.9622,48.6842,-0.0845,0.5662,0.7113,17.71
18:47:25:860,-0.9813,0.3767,7.2808,48.6771,-0.2969,0.2383,0.7076,17.02
18:47:25:879,-0.4722,0.7238,7.8032,48.6134,-0.3943,-0.3105,0.5926,16.16
18:47:25:899,-0.1908,0.9356,9.1071,48.6323,-0.3874,-0.8152,0.4052,15.35
18:47:25:919,0.0345,0.9092,10.5698,48.6474,-0.2879,-0.8604,0.1763,14.74
18:47:25:939,-0.0373,0.6878,10.8701,48.5649,-0.1686,-0.4255,-0.0159,14.4
18:47:25:959,-0.3055,0.4522,9.8367,48.5271,-0.1117,0.1068,-0.0893,14.32
18:47:25:979,-0.3089,0.3874,8.4371,48.5508,-0.1111,0.4331,-0.0845,14.41
18:47:25:999,0.3617,0.8083,7.1307,48.7031,-0.1942,0.5656,-0.1367,14.53
18:47:26:019,1.4952,1.7475,6.0639,48.7802,-0.4497,0.4906,-0.4417,14.61
18:47:26:040,1.6414,1.8274,6.2905,48.8594,-0.7377,0.4411,-0.8942,14.74
18:47:26:059,0.0014,0.5924,7.4954,49.1081,-0.8473,0.4773,-1.0874,15.22
18:47:26:079,-2.306,-1.05,8.9358,49.1761,-0.6648,0.5294,-0.7111,16.24
18:47:26:099,-3.1436,-1.799,9.5976,49.3062,-0.241,0.5614,0.0256,17.48
18:47:26:119,-2.551,-0.8907,8.8024,49.4591,0.0592,0.3389,0.5606,18.3
18:47:26:139,-1.2476,0.6978,8.1016,49.6259,0.0363,-0.0098,0.6389,18.28
18:47:26:159,-0.2973,1.523,8.7996,49.8149,-0.0286,-0.2749,0.4286,17.66
18:47:26:179,-0.3934,1.3807,9.6629,49.923,0.0714,-0.3419,0.2428,16.95
18:47:26:199,-0.7823,1.0341,9.7881,50.002,0.2274,-0.2589,0.2109,16.49
18:47:26:221,-0.9071,0.7513,9.3332,50.0242,0.2732,-0.2706,0.2758,16.25
18:47:26:240,-0.6662,0.7904,9.3081,50.0845,0.2013,-0.5677,0.3253,16.05
18:47:26:260,-0.2954,0.8783,10.4142,50.0903,0.1566,-0.9195,0.2828,15.77
18:47:26:281,-0.2738,0.2795,12.0005,49.9479,0.2274,-1.0579,0.229,15.44
18:47:26:299,-0.6669,-0.7078,12.9658,50.1289,0.3844,-0.5432,0.4723,15.19
18:47:26:319,-0.4305,-0.9876,11.9918,50.1344,0.3765,-0.0795,0.8369,15.01
18:47:26:339,0.3729,-0.5464,10.6072,50.0451,0.1124,0.1009,1.0222,14.53
18:47:26:361,0.9256,0.0349,10.1443,50.1558,-0.1591,-0.1178,0.9982,13.6
18:47:26:380,0.8512,0.2166,10.5789,50.209,-0.2809,-0.5293,0.8523,12.45
18:47:26:445,0.3138,0.0376,11.4444,50.3657,-0.249,-0.8748,0.7783,11.34
18:47:26:445,0.1436,-0.0751,12.6943,50.45,-0.1058,-0.8285,0.8241,10.42
18:47:26:445,0.6209,-0.2989,13.1061,50.5336,0.0885,-0.2834,0.8869,9.6
18:47:26:459,1.3527,-0.1686,11.9585,50.5038,0.2594,0.3921,0.9024,8.72
18:47:26:479,1.9669,0.2223,9.8013,50.4889,0.3057,0.6226,0.7469,7.73
18:47:26:499,2.153,0.6471,8.201,50.4312,0.1784,0.3426,0.4036,6.69
18:47:26:519,1.8294,0.7686,8.2504,50.3436,-0.0419,-0.0758,-0.0143,5.82
18:47:26:540,1.2339,0.3327,9.1928,50.3284,-0.1511,-0.2461,-0.3219,5.35
18:47:26:559,0.4778,-0.4307,9.6015,50.4019,-0.0984,-0.2174,-0.3922,5.39
18:47:26:579,-0.1594,-0.8519,9.2466,50.2499,0.0145,-0.0162,-0.208,5.79
18:47:26:599,-0.1814,-0.6738,8.3614,50.1175,0.0933,0.1978,0.0523,6.28
18:47:26:620,0.2449,-0.071,7.5987,50.2381,0.1263,0.2899,0.205,6.53
18:47:26:639,0.6769,0.5271,7.1254,50.3929,0.1555,0.3245,0.2237,6.48
18:47:26:659,0.7235,0.9441,6.7144,50.2022,0.1848,0.3272,0.1891,6.25
18:47:26:679,0.7006,1.2062,6.4521,50.3343,0.1971,0.259,0.1444,5.99
18:47:26:700,0.7088,1.4268,6.8805,50.514,0.2647,0.1206,0.0938,5.77
18:47:26:720,0.7754,1.7047,7.3286,50.6089,0.3621,-0.0289,0.0224,5.6
18:47:26:739,0.8191,1.8965,7.6068,50.5141,0.3781,-0.1482,-0.1085,5.5
18:47:26:759,0.6761,1.7997,8.1897,50.5709,0.2812,-0.1439,-0.2309,5.5
18:47:26:779,0.2463,1.4583,8.9845,50.7391,0.1433,0.0152,-0.2522,5.65
18:47:26:799,-0.0562,1.2965,9.8403,50.533,0.1145,0.2063,-0.1628,5.95
18:47:26:819,-0.0592,1.3388,10.0756,50.7908,0.18,0.3666,-0.051,6.25
18:47:26:839,-0.1056,1.4938,9.7451,50.9293,0.1987,0.5475,0.0735,6.43
18:47:26:859,-0.1212,1.8032,9.3919,51.0226,0.1566,0.6572,0.1731,6.47
18:47:26:879,-0.1428,1.9012,9.3039,51.2164,0.0863,0.5811,0.2194,6.34
18:47:26:900,-0.357,1.5737,9.6502,51.2787,0.0549,0.2841,0.2535,6.08
18:47:26:921,-0.506,1.0336,10.3346,51.5523,0.0336,0.0876,0.3285,5.77
18:47:26:940,-0.3811,0.4659,10.6198,51.6237,-0.0829,0.152,0.4116,5.47
18:47:26:959,-0.5701,0.3858,10.9777,51.6245,-0.258,0.2436,0.5463,5.1
18:47:26:980,-0.4614,0.7101,11.6826,52.0174,-0.3533,0.184,0.6229,4.63
18:47:26:999,-0.3737,0.9054,12.3702,51.8719,-0.3709,0.0695,0.5537,3.99
18:47:27:019,-0.5966,0.6942,12.7771,51.9643,-0.3688,-0.0263,0.4382,3.28
18:47:27:040,-1.0989,0.1438,13.3846,52.2286,-0.3081,-0.1668,0.3999,2.65
18:47:27:059,-1.4415,-0.5691,14.0854,52.2399,-0.0121,-0.1051,0.4723,2.17
18:47:27:081,-1.418,-1.0353,12.5817,52.24,0.3062,0.2883,0.6437,1.74
18:47:27:099,-1.0548,-0.6157,9.7646,52.2777,0.3195,0.5614,0.7821,1.23
18:47:27:119,-0.48,0.2413,7.7194,52.413,0.0869,0.3783,0.723,0.48
18:47:27:140,-0.1217,0.8147,7.7676,52.2991,-0.1734,-0.1104,0.4904,359.55
18:47:27:159,-0.2524,0.7517,9.2424,52.1552,-0.215,-0.5575,0.2578,358.71
18:47:27:180,-0.4394,0.5216,10.3057,52.135,-0.1878,-0.5969,0.081,358.17
18:47:27:199,-0.6418,0.3299,10.5713,51.9476,-0.1378,-0.3361,-0.0206,357.94
18:47:27:220,-0.852,0.2172,10.0225,51.6858,-0.0377,-0.0364,-0.027,357.92
18:47:27:240,-1.0305,0.0036,8.8822,51.5946,0.089,0.1408,0.0709,357.99
18:47:27:259,-1.1794,-0.1265,7.7172,51.6304,0.2066,0.1589,0.2572,358.04
18:47:27:279,-1.0628,-0.2076,6.7625,51.6383,0.2961,0.1403,0.492,357.96
18:47:27:299,-0.7621,-0.0878,5.9721,51.4972,0.3152,0.1142,0.7187,357.66
18:47:27:319,-0.3413,0.3328,5.5907,51.5451,0.2636,-0.0135,0.8433,357.1
18:47:27:340,0.2696,0.7889,5.8909,51.5856,0.2045,-0.2115,0.8215,356.28
18:47:27:359,0.6471,1.2078,6.6335,51.423,0.1193,-0.3984,0.6825,355.34
18:47:27:379,0.7625,1.4333,7.6032,51.3537,0.0022,-0.5091,0.493,354.44
18:47:27:399,0.6311,1.5662,8.7739,51.1914,-0.1356,-0.5165,0.3264,353.72
18:47:27:421,0.4765,1.7152,10.1162,51.039,-0.1878,-0.4473,0.2183,353.23
18:47:27:439,0.23,1.6535,11.4489,50.8413,-0.0435,-0.2499,0.2093,352.93
18:47:27:459,0.1286,1.7538,11.4642,50.7807,0.1742,0.085,0.2737,352.74
18:47:27:479,0.356,2.1088,10.3433,50.7424,0.2343,0.333,0.2769,352.54
18:47:27:499,0.4616,2.3836,9.5181,50.6971,0.105,0.2793,0.1784,352.23
18:47:27:519,0.3493,2.2363,9.8962,50.6977,-0.0116,0.0897,0.089,351.89
18:47:27:539,0.0768,1.6734,10.7136,50.6996,-0.0302,-0.0763,0.0688,351.67
18:47:27:560,0.2172,0.9786,11.3676,50.8574,-0.0643,-0.0997,0.1012,351.57
18:47:27:579,0.5352,0.3584,11.5532,50.86,-0.1947,0.053,0.1295,351.51
18:47:27:599,0.7267,0.1326,11.9798,50.7433,-0.3342,0.0631,0.139,351.42
18:47:27:619,0.7364,0.084,12.421,50.7604,-0.3741,0.0349,0.0837,351.28
18:47:27:639,0.4611,0.1788,12.5947,50.64,-0.3661,0.012,-0.0148,351.12
18:47:27:659,0.0242,0.0652,12.9792,50.7345,-0.2368,-0.0093,-0.1101,351.04
18:47:27:679,-0.2759,-0.4406,12.8173,50.5922,0.0209,0.1222,-0.0845,351.07
18:47:27:699,0.0314,-0.6253,11.2176,50.4976,0.2663,0.3272,0.0363,351.2
18:47:27:719,0.8795,-0.2788,9.0606,50.6497,0.3514,0.2942,0.0501,351.3
18:47:27:739,1.5984,0.1998,7.7217,50.7907,0.2354,0.011,-0.1245,351.25
18:47:27:759,1.4724,0.5255,7.9115,51.016,0.0123,-0.2935,-0.4082,351.17
18:47:27:779,0.8939,0.2395,8.887,51.235,-0.1362,-0.3947,-0.6589,351.33
18:47:27:799,0.09,-0.315,9.4453,51.1513,-0.1718,-0.2546,-0.7377,351.83
18:47:27:819,-0.5229,-0.5786,9.2309,51.1929,-0.1314,-0.0284,-0.6105,352.64
18:47:27:840,-0.6274,-0.4054,8.4372,51.3136,-0.0606,0.1675,-0.3858,353.52
18:47:27:860,-0.5315,0.1338,7.582,51.5224,-0.0297,0.2383,-0.1803,354.23
18:47:27:879,-0.286,0.8312,7.4753,51.7912,0.0571,0.1951,-0.0813,354.66
18:47:27:899,0.0367,1.1553,7.4168,51.8492,0.2013,0.209,-0.0803,354.86
18:47:27:919,0.1087,1.3641,6.7353,51.9291,0.2178,0.3091,-0.1037,354.94
18:47:27:940,-0.0726,1.5447,6.3946,51.8844,0.1183,0.3394,-0.1239,355.03
18:47:27:959,-0.2587,1.644,6.8488,52.1688,0.0682,0.2537,-0.1266,355.13
18:47:27:979,-0.3795,1.6691,7.4155,52.5479,0.065,0.1589,-0.0755,355.24
18:47:27:999,-0.4043,1.6692,8.1553,52.8714,0.048,0.1057,0.0139,355.37
18:47:28:019,-0.2787,1.7103,9.1123,52.9774,0.0783,0.0727,0.1268,355.45
18:47:28:042,-0.0928,1.7949,9.7871,53.1393,0.1992,0.0142,0.254,355.43
18:47:28:059,0.0816,1.9482,10.2411,53.115,0.3094,0.0381,0.3727,355.29
18:47:28:079,0.3158,2.2784,10.6927,53.2376,0.3834,0.2452,0.4659,355.01
18:47:28:099,0.7163,2.5919,10.7679,53.29,0.4079,0.5294,0.4478,354.59
18:47:28:120,0.8656,2.5192,10.4681,53.3764,0.3466,0.6561,0.3126,354.04
18:47:28:143,0.4219,1.9151,10.4196,53.2832,0.2407,0.5837,0.1992,353.46
18:47:28:160,-0.2062,1.0824,10.5914,53.2448,0.1348,0.4107,0.1981,353.02
18:47:28:180,-0.6839,0.5237,10.7401,53.2662,-0.0105,0.267,0.3312,352.72
18:47:28:200,-0.8113,0.7736,11.2083,53.1335,-0.1692,0.1472,0.5132,352.44
18:47:28:220,-0.3385,1.3407,11.9654,53.027,-0.2208,0.1227,0.5494,352.03
18:47:28:241,-0.0848,1.7287,12.2626,53.1557,-0.1905,0.1174,0.4212,351.43
18:47:28:259,-0.4975,1.5878,12.1083,53.0861,-0.1654,-0.0087,0.2764,350.8
18:47:28:279,-1.0973,0.9834,12.4822,53.1294,-0.0712,-0.1333,0.2428,350.29
18:47:28:299,-1.4277,0.0562,12.4239,53.2619,0.1678,-0.0103,0.3147,350
18:47:28:319,-1.5629,-0.466,10.7654,53.0343,0.3253,0.1637,0.4542,349.75
18:47:28:341,-1.1373,-0.2885,8.8011,53.0647,0.2774,0.1355,0.5404,349.4
18:47:28:359,-0.4706,0.2514,7.7732,53.1012,0.064,-0.1514,0.4483,348.87
18:47:28:379,-0.1426,0.6774,8.2247,53.1261,-0.1622,-0.5874,0.2024,348.25
18:47:28:399,-0.1267,0.6788,9.6264,53.1361,-0.2453,-0.8354,-0.0553,347.77
18:47:28:419,-0.1191,0.4445,10.4053,53.0876,-0.2474,-0.6624,-0.2842,347.64
18:47:28:441,-0.3674,0.1726,10.1024,52.9655,-0.2203,-0.2403,-0.4087,347.84
18:47:28:505,-0.7294,-0.1185,9.0797,53.0585,-0.1457,0.1196,-0.3667,348.27
18:47:28:505,-0.9523,-0.1652,7.6341,53.0355,-0.0467,0.2681,-0.1756,348.78
18:47:28:505,-0.7009,0.1286,6.3958,53.2046,0.0118,0.1755,0.0262,349.19
18:47:28:518,-0.2704,0.4982,5.8963,53.2395,0.0203,-0.0454,0.1385,349.36
18:47:28:540,0.052,0.8865,6.0627,53.168,-0.0015,-0.2051,0.1752,349.31
18:47:28:559,0.2159,1.2883,6.5396,53.5181,-0.0552,-0.277,0.1257,349.17
18:47:28:580,0.297,1.5571,7.322,53.6506,-0.1154,-0.2781,0.0166,349.01
18:47:28:599,-0.0365,1.5938,8.4277,53.6089,-0.1463,-0.1711,-0.0553,348.91
18:47:28:619,-0.3798,1.6375,9.2336,53.9459,-0.1319,-0.0279,-0.0324,348.94
18:47:28:640,-0.529,1.8377,9.8167,54.0231,-0.0733,0.0605,0.0352,349.03
18:47:28:661,-0.5112,2.0986,10.097,54.3411,0.0102,0.119,0.0783,349.08
18:47:28:679,-0.527,2.2524,10.079,54.4433,0.0666,0.1749,0.097,349.04
18:47:28:699,-0.5356,2.3378,9.9466,54.6533,0.0885,0.1776,0.0916,348.93
18:47:28:719,-0.5597,2.2304,9.9183,54.6655,0.0773,0.1259,0.0906,348.81
18:47:28:740,-0.5174,2.0998,10.0884,54.8754,0.0219,0.0227,0.0938,348.68
18:47:28:759,-0.5477,1.8257,10.6158,55.177,-0.0377,-0.0795,0.1087,348.57
18:47:28:779,-0.5096,1.3768,11.1379,55.4013,-0.0441,-0.2041,0.1566,348.47
18:47:28:799,-0.2025,0.915,11.5932,55.4433,-0.0041,-0.2174,0.2466,348.36
18:47:28:819,0.3017,0.8078,11.2737,55.5733,-0.0398,-0.0934,0.2822,348.22
18:47:28:839,0.6456,1.0931,10.8462,55.5878,-0.2197,-0.0987,0.1853,347.97
18:47:28:859,0.4455,1.2588,11.6891,55.7723,-0.3533,-0.3675,0.0017,347.67
18:47:28:879,-0.0966,0.8654,13.3413,55.8446,-0.2293,-0.4867,-0.1468,347.48
18:47:28:899,-0.7649,0.0026,14.1539,56.0068,0.1305,-0.195,-0.1218,347.53
18:47:28:919,-0.6104,-0.6976,12.2492,55.9331,0.4856,0.3671,0.0783,347.76
18:47:28:939,0.4735,-0.3172,8.9672,55.7552,0.5101,0.5284,0.2024,347.92
18:47:28:961,1.6091,0.3892,7.1245,55.6676,0.286,0.0818,0.0315,347.8
18:47:28:979,1.8117,0.9354,7.5346,55.6648,-0.0265,-0.4543,-0.3427,347.51
18:47:28:999,1.2557,0.6704,9.0794,55.661,-0.2293,-0.6161,-0.7121,347.47
18:47:29:019,0.3009,0.0919,9.9496,55.6489,-0.2746,-0.4335,-0.8718,347.93
18:47:29:040,-0.4715,-0.2422,9.94,55.5407,-0.1819,-0.1125,-0.8005,348.83
18:47:29:059,-0.8261,-0.2406,8.9034,55.3478,-0.0856,0.2132,-0.587,349.89
18:47:29:080,-0.8252,0.245,7.5942,55.5922,-0.0371,0.324,-0.3486,350.82
18:47:29:100,-0.5069,0.8041,6.7114,55.5924,-0.0036,0.1877,-0.2054,351.47
18:47:29:121,-0.2039,1.3435,6.3982,55.8395,0.0374,0.0663,-0.1527,351.83
18:47:29:141,-0.079,1.6259,6.3583,56.202,0.0347,0.0525,-0.1798,352.05
18:47:29:159,-0.3585,1.5511,6.5728,56.3666,-0.01,0.1393,-0.1867,352.22
18:47:29:179,-0.8607,1.3833,7.0895,56.5445,-0.0595,0.259,-0.0835,352.43
18:47:29:199,-0.9596,1.5883,7.5985,56.4532,-0.0606,0.2425,0.0528,352.63
18:47:29:219,-0.6486,1.9372,8.2578,56.5145,-0.0324,0.127,0.0996,352.7
18:47:29:241,-0.3168,2.1015,8.9822,56.7295,-0.0244,0.0567,0.0916,352.61
18:47:29:260,-0.0853,2.1852,9.9517,56.5858,0.0038,0.0961,0.097,352.49
18:47:29:280,0.0704,2.2451,10.5965,56.5426,0.0597,0.2819,0.1273,352.38
18:47:29:300,0.1171,2.4544,10.7425,56.5063,0.1236,0.5513,0.1843,352.27
18:47:29:320,0.19,2.6635,10.3682,56.3021,0.1673,0.6859,0.213,352.09
18:47:29:341,0.3392,2.6748,10.1277,56.0972,0.2088,0.5279,0.1949,351.82
18:47:29:360,0.1395,2.2693,10.165,55.9917,0.2104,0.1206,0.1326,351.49
18:47:29:380,-0.215,1.365,11.0436,55.8527,0.1715,-0.0981,0.1619,351.21
18:47:29:400,-0.3947,0.7517,11.5132,55.7887,0.0549,0.0615,0.2753,351.04
18:47:29:420,-0.4556,1.1744,11.5652,55.6788,-0.1117,0.1632,0.3567,350.88
18:47:29:441,-0.0873,1.5133,11.9436,55.6723,-0.1936,0.1201,0.2833,350.56
18:47:29:460,-0.0619,1.5286,12.2807,55.7571,-0.1809,-0.047,0.1188,350.14
18:47:29:480,-0.5217,1.1891,12.5791,55.6619,-0.1244,-0.3244,-0.0441,349.81
18:47:29:500,-1.1211,0.3075,13.186,55.5958,-0.035,-0.3483,-0.1218,349.68
18:47:29:519,-1.599,-0.6508,12.8626,55.8018,0.18,0.0733,-0.0238,349.78
18:47:29:540,-1.7959,-0.8155,10.2761,55.6445,0.2641,0.4938,0.1981,349.97
18:47:29:560,-1.5374,-0.1265,7.9108,55.6295,0.1763,0.3506,0.377,350
18:47:29:580,-0.8907,0.6422,7.2451,55.6054,0.0091,-0.2557,0.3605,350.37
18:47:29:600,-0.3229,0.8344,8.4762,55.5066,-0.0893,-0.8604,0.2136,349.94
18:47:29:620,0.0319,0.7394,10.1456,55.193,-0.1016,-0.9791,0.0342,349
18:47:29:641,-0.0489,0.3328,11.0376,54.9613,-0.0845,-0.4883,-0.0978,348.19
18:47:29:660,-0.535,0.1469,10.4157,54.9475,-0.0489,0.1616,-0.0872,348
18:47:29:680,-0.8508,0.1379,8.8112,54.7232,0.0241,0.5039,-0.0063,348.48
18:47:29:702,-0.9729,0.2854,7.1977,54.4647,0.1145,0.4799,0.1257,349.14
18:47:29:721,-0.7765,0.503,6.1456,54.3326,0.1609,0.2058,0.238,349.47
18:47:29:741,-0.5975,0.6971,5.8948,54.2086,0.1641,-0.079,0.3009,349.39
18:47:29:759,-0.6511,0.7879,6.1861,53.8643,0.1247,-0.2445,0.3365,348.97
18:47:29:779,-0.7133,0.9343,6.891,53.7939,0.0735,-0.2754,0.3562,348.46
18:47:29:799,-0.807,1.042,7.3696,53.5505,0.0187,-0.2589,0.3695,348
18:47:29:819,-0.7712,1.2494,7.8991,53.3157,-0.0302,-0.2701,0.4052,347.62
18:47:29:839,-0.4908,1.6246,8.5013,53.1237,-0.0473,-0.3004,0.4068,347.26
18:47:29:859,-0.1486,1.9063,9.3131,52.9209,-0.0164,-0.31,0.3434,346.86
18:47:29:879,-0.0324,2.0456,9.9806,52.9062,0.0123,-0.1828,0.2657,346.42
18:47:29:899,-0.2539,2.0105,10.3488,52.9047,0.0358,0.0243,0.2301,346.01
18:47:29:918,-0.4519,1.8895,10.2882,52.8307,0.0459,0.143,0.2662,345.77
18:47:29:939,-0.3451,1.7856,10.4893,52.9248,0.0491,0.1238,0.3339,345.66
18:47:29:959,-0.0631,1.637,10.629,52.8498,0.0251,-0.0263,0.3584,345.48
18:47:29:979,0.4278,1.2565,11.1305,52.8208,-0.0191,-0.2126,0.3232,345.13
18:47:30:000,1.2742,0.6027,11.2577,53.0508,-0.1111,-0.1391,0.2455,344.62
18:47:30:019,1.562,0.502,10.7658,52.8885,-0.3624,-0.0715,0.1209,344.07
18:47:30:039,1.3057,0.6631,11.2155,52.8724,-0.6158,-0.2062,-0.0765,343.77
18:47:30:059,0.4637,0.44,12.4893,52.5347,-0.6962,-0.4085,-0.2277,343.51
18:47:30:079,-0.4275,-0.0791,13.9177,52.5103,-0.5184,-0.3734,-0.2075,343.24
18:47:30:100,-0.5162,-0.6374,14.1131,52.281,-0.1005,0.0706,-0.0366,343.19
18:47:30:120,0.1764,-0.5275,11.5501,52.1301,0.2269,0.4964,0.1459,343.57
18:47:30:140,1.2996,0.0988,8.685,51.8815,0.2567,0.4251,0.1385,344.28
18:47:30:160,2.0204,0.692,7.3426,51.9162,0.0597,0.1036,-0.1303,344.69
18:47:30:180,1.7513,0.8548,7.7844,51.3615,-0.1718,-0.1945,-0.4891,344.43
18:47:30:199,0.7999,0.2917,8.7804,51.1535,-0.2687,-0.252,-0.7457,343.96
18:47:30:219,-0.335,-0.3664,9.2714,51.0503,-0.2591,-0.1003,-0.7366,343.85
18:47:30:240,-1.0206,-0.5788,9.0093,50.9123,-0.1846,0.11,-0.5146,344.39
18:47:30:260,-0.9882,-0.1905,8.3646,50.6024,-0.0829,0.2154,-0.2543,345.38
18:47:30:280,-0.4732,0.4726,7.6731,50.4257,0.0209,0.1723,-0.1058,346.39
18:47:30:300,-0.0456,0.9733,7.0442,50.3373,0.0783,0.0945,-0.0835,347.05
18:47:30:320,0.1697,1.1694,6.683,50.4256,0.0847,0.0866,-0.1229,347.3
18:47:30:341,0.1245,1.2005,6.4988,50.2046,0.0076,0.1126,-0.175,347.35
18:47:30:361,-0.0051,1.2486,6.7854,50.1614,-0.0984,0.1073,-0.1926,347.44
18:47:30:380,0.0205,1.3974,7.5505,50.2515,-0.1239,0.0248,-0.1942,347.58
18:47:30:399,0.04,1.5151,8.3337,49.9476,-0.0957,-0.0619,-0.2027,347.74
18:47:30:419,-0.1457,1.501,8.9265,49.8636,-0.0781,-0.0864,-0.1718,347.89
18:47:30:441,-0.3157,1.4657,9.5818,49.7364,-0.0334,-0.0598,-0.0648,348.05
18:47:30:460,-0.2657,1.6394,10.3297,49.9131,0.064,0.0424,0.0916,348.27
18:47:30:480,0.1847,2.1501,10.7354,49.8164,0.196,0.2532,0.2178,348.5
18:47:30:500,0.7052,2.7108,10.462,49.5897,0.279,0.497,0.2338,348.66
18:47:30:571,0.9507,2.9537,10.0167,49.6307,0.3126,0.5678,0.1545,348.72
18:47:30:571,0.7654,2.7979,9.872,49.722,0.3078,0.3969,0.0086,348.64
18:47:30:572,0.1864,2.2191,10.1987,49.3719,0.246,0.2164,-0.1415,348.38
18:47:30:580,-0.6552,1.4026,10.8526,49.4195,0.1507,0.1888,-0.2,348.03
18:47:30:599,-1.4331,0.6647,11.0709,49.3335,0.031,0.3655,-0.0691,347.84
18:47:30:619,-1.607,0.8741,10.9832,49.1605,-0.0968,0.4225,0.1694,347.95
18:47:30:639,-1.0985,1.2339,11.3514,48.8584,-0.1101,0.2058,0.2966,348.25
18:47:30:659,-0.4897,1.455,11.5354,48.6,-0.1367,-0.0795,0.2897,348.29
18:47:30:679,-0.4186,1.5712,12.4376,48.3766,-0.1681,-0.4005,0.1976,347.88
18:47:30:700,-0.532,0.9738,13.8648,47.9292,0.0214,-0.4463,0.1305,347.3
18:47:30:720,-0.7322,-0.0625,13.4605,47.4982,0.336,-0.0987,0.139,346.75
18:47:30:740,-0.7753,-0.7286,11.0166,47.3463,0.3924,0.3022,0.2317,346.57
18:47:30:759,-0.5803,-0.7602,8.8339,46.9329,0.1981,0.3208,0.3248,346.78
18:47:30:780,-0.3041,-0.385,8.2491,46.6812,-0.027,-0.0848,0.3211,346.92
18:47:30:800,-0.0516,-0.1501,9.0282,46.3656,-0.1149,-0.5586,0.2615,346.59
18:47:30:820,0.0198,-0.0661,10.1021,46.0945,-0.101,-0.6667,0.2034,345.85
18:47:30:840,-0.1388,-0.1532,10.2952,45.8253,-0.0494,-0.3808,0.1955,345.14
18:47:30:860,-0.2383,-0.0853,9.508,45.5541,0.0225,-0.0071,0.279,344.85
18:47:30:880,0.0884,0.2863,8.0079,45.3475,0.0629,0.2069,0.3456,344.92
18:47:30:900,0.2935,0.7414,6.7709,45.3229,0.0533,0.127,0.3307,345.02
18:47:30:920,0.2647,0.9901,6.4229,44.8821,0.0475,-0.1029,0.2673,344.87
18:47:30:940,0.0765,0.8733,6.6169,44.7464,0.0438,-0.26,0.2146,344.39
18:47:30:959,-0.1481,0.7983,6.8674,44.4674,0.0081,-0.26,0.2077,343.83
18:47:30:980,-0.3451,0.8915,7.2701,44.2382,-0.0457,-0.2264,0.1917,343.43
18:47:30:999,-0.4085,1.0127,7.7459,44.2188,-0.0914,-0.1854,0.1758,343.22
18:47:31:019,-0.3526,1.2317,8.2603,43.9909,-0.1229,-0.1051,0.1422,343.03
18:47:31:039,-0.2848,1.4555,8.685,43.8134,-0.1383,-0.0119,0.0911,342.86
18:47:31:059,-0.379,1.563,9.0057,43.7233,-0.1106,0.0535,0.0533,342.73
18:47:31:079,-0.6417,1.5853,9.1048,43.4941,-0.0568,0.0179,0.0874,342.65
18:47:31:100,-0.535,1.8434,9.3364,43.502,-0.0111,-0.0135,0.1406,342.61
18:47:31:120,-0.2593,2.2038,9.5741,43.0981,-0.0084,0.0541,0.1433,342.53
18:47:31:139,0.0985,2.3877,9.8548,43.0059,-0.0249,0.1073,0.0815,342.41
18:47:31:160,0.3521,2.3098,10.1004,42.867,-0.0766,0.0488,-0.019,342.3
18:47:31:180,0.3573,1.8758,10.7943,42.4213,-0.142,-0.1359,-0.1143,342.17
18:47:31:200,0.2615,1.0527,12.117,42.2371,-0.1351,-0.2797,-0.1239,342.02
18:47:31:220,0.3927,0.1778,12.6048,42.1394,-0.1229,-0.1301,-0.0521,341.89
18:47:31:241,0.6441,-0.0025,12.1855,42.089,-0.2325,0.0009,-0.0068,341.94
18:47:31:260,0.8465,0.1484,12.0353,41.9477,-0.4002,-0.0289,-0.1064,342.21
18:47:31:280,0.3035,0.0946,13.0185,41.8981,-0.4183,-0.1168,-0.2251,342.35
18:47:31:300,-0.2763,-0.5563,13.5434,41.9867,-0.1521,0.0237,-0.2048,342.29
18:47:31:320,-0.2291,-1.0143,12.33,42.073,0.1742,0.3037,-0.0249,342.36
18:47:31:340,0.5906,-0.5993,10.038,41.9854,0.3658,0.4022,0.1066,342.8
18:47:31:359,1.9866,-0.0062,8.0766,42.1618,0.3509,0.1254,-0.0324,343.31
18:47:31:380,2.5692,0.446,7.2737,42.1621,0.0981,-0.2403,-0.4103,343.42
18:47:31:400,1.9756,0.2894,8.1046,42.0324,-0.2112,-0.4468,-0.7941,343.07
18:47:31:420,0.8337,-0.342,9.1789,42.0145,-0.389,-0.4277,-0.9852,342.8
18:47:31:439,-0.3264,-0.8893,9.5592,42.0133,-0.4007,-0.294,-0.8724,343.09
18:47:31:460,-0.7886,-0.9107,8.9244,42.0694,-0.3337,-0.2089,-0.5684,344.02
18:47:31:480,-0.5719,-0.3877,8.0933,42.3455,-0.249,-0.2536,-0.2602,345.27
18:47:31:500,0.1049,0.4252,7.5907,42.2791,-0.1569,-0.3675,-0.1021,346.36
18:47:31:520,0.6753,1.1433,7.2949,42.5821,-0.067,-0.4064,-0.1282,346.99
18:47:31:541,0.7685,1.4607,7.0395,42.9422,-0.0201,-0.359,-0.2389,347.24
18:47:31:561,0.5418,1.4166,7.4849,42.8957,0.0379,-0.2227,-0.3198,347.37
18:47:31:581,0.2422,0.9102,7.9293,43.082,0.1087,0.1233,-0.282,347.6
18:47:31:600,-0.0055,1.0114,7.7366,43.164,0.0933,0.4666,-0.1404,348.02
18:47:31:620,0.1715,1.2259,7.6657,43.5225,0.0251,0.4874,-0.0707,348.67
18:47:31:640,0.2887,1.4068,8.1487,43.5887,-0.0089,0.2702,-0.0414,349.23
18:47:31:659,0.2891,1.5347,9.0898,43.5523,0.0171,0.0237,-0.0313,349.35
18:47:31:679,0.1432,1.5057,10.245,43.6143,0.0869,0.028,-0.0292,349.22
18:47:31:699,-0.2146,1.3516,10.9336,43.6946,0.1587,0.3101,0.0693,349.07
18:47:31:720,-0.5587,1.4799,10.7634,43.4629,0.2508,0.6524,0.2721,349.13
18:47:31:739,-0.4443,1.9048,9.9673,43.687,0.3307,0.7722,0.4664,349.37
18:47:31:759,0.1883,2.4218,9.049,43.935,0.2886,0.5135,0.4999,349.52
18:47:31:780,0.7378,2.5861,9.196,43.7447,0.1577,0.0163,0.352,349.24
18:47:31:800,1.0158,2.1094,10.4059,43.5329,0.0145,-0.2701,0.1215,348.44
18:47:31:819,0.9165,1.1352,11.547,43.4549,-0.126,-0.1934,-0.06,347.44
18:47:31:842,0.3235,0.4853,12.284,43.4912,-0.2527,-0.0438,-0.0723,346.82
18:47:31:859,0.1121,0.35,12.9419,43.4953,-0.2735,0.0695,-0.0116,346.75
18:47:31:880,0.1572,0.3273,13.0083,43.3938,-0.1761,0.11,-0.0068,346.92
18:47:31:900,-0.0706,0.1682,12.4531,43.2757,-0.0835,0.0493,-0.0324,347.08
18:47:31:920,-0.4291,-0.2403,12.0807,43.3251,0.0129,0.0312,-0.0121,347.14
18:47:31:940,-0.7213,-0.7202,11.2028,43.1154,0.1523,0.1408,0.0565,347.11
18:47:31:959,-0.9659,-0.8451,9.377,43.5813,0.1928,0.1824,0.1529,347.15
18:47:31:980,-0.9975,-0.6382,7.9589,43.8057,0.0693,-0.0337,0.2412,347.26
18:47:32:000,-0.7578,-0.2735,8.0651,44.008,-0.1197,-0.4128,0.2535,347.22
18:47:32:020,-0.3121,0.0181,9.3196,44.1357,-0.2155,-0.6491,0.172,346.84
18:47:32:039,-0.0715,0.1208,10.4316,44.0203,-0.2437,-0.5437,0.0432,346.25
18:47:32:059,-0.0145,0.2619,10.8909,44.0691,-0.2144,-0.1604,-0.0579,345.81
18:47:32:079,0.0735,0.4748,10.4678,44.3567,-0.2165,0.3277,-0.182,345.75
18:47:32:100,0.0276,0.5178,9.5148,44.2313,-0.2767,0.7094,-0.2916,346.03
18:47:32:120,-0.3017,0.2117,8.2305,44.4774,-0.3134,0.7557,-0.2708,346.48
18:47:32:139,-0.5373,0.2087,7.6299,44.4299,-0.2235,0.4693,-0.1425,346.94
18:47:32:160,-0.3973,0.1721,7.4729,44.5176,0.0102,0.1717,-0.0137,347.26
18:47:32:180,-0.2481,0.176,6.7906,44.6118,0.1997,0.0317,0.0986,347.33
18:47:32:200,-0.1648,0.3665,6.1204,44.6344,0.2199,-0.1237,0.1555,347.28
18:47:32:220,-0.1213,0.4591,6.0298,44.9534,0.1087,-0.2499,0.1481,347.21
18:47:32:240,-0.2836,0.5086,7.0283,45.0875,0.0214,-0.3648,0.163,346.99
18:47:32:260,-0.2927,0.4525,8.1351,45.1562,0.0427,-0.327,0.2306,346.71
18:47:32:280,-0.1612,0.738,8.8689,45.5512,0.0917,-0.2738,0.3296,346.45
18:47:32:300,0.3041,1.3984,9.4227,45.6646,0.1566,-0.2339,0.3232,346.32
18:47:32:320,0.5815,2.0394,9.4998,45.7188,0.1449,-0.178,0.163,346.12
18:47:32:340,0.4639,2.2068,9.7528,45.7682,0.0097,-0.1658,-0.0558,345.81
18:47:32:359,0.1135,1.6833,10.5109,45.8804,-0.134,-0.1886,-0.2027,345.5
18:47:32:380,-0.3375,1.0178,11.6205,46.0376,-0.1867,-0.2829,-0.2261,345.32
18:47:32:400,-0.5215,0.2587,12.8286,45.9812,-0.1042,-0.3052,-0.1282,345.35
18:47:32:419,0.069,-0.4518,12.8998,46.231,0.0028,-0.1051,0.0166,345.51
18:47:32:440,0.6799,-0.6016,11.8397,46.3383,-0.0648,0.0903,0.1012,345.79
18:47:32:460,0.9922,-0.294,10.7945,46.4649,-0.2692,0.0844,0.0363,346.12
18:47:32:480,0.7793,-0.1334,10.7886,46.4338,-0.4918,-0.1652,-0.1724,346.23
18:47:32:500,-0.0082,-0.6214,12.3289,46.5458,-0.4795,-0.3074,-0.2943,346.06
18:47:32:520,-0.6088,-1.3419,13.1267,46.6714,-0.2261,-0.0502,-0.1841,345.78
18:47:32:539,-0.5936,-1.5975,12.3229,46.8862,0.0959,0.2862,0.0507,345.89
18:47:32:561,0.2995,-1.1529,10.3421,47.0479,0.3333,0.3564,0.2194,346.49
18:47:32:632,1.6446,-0.4506,8.4478,47.335,0.3323,0.1387,0.1087,347.02
18:47:32:632,2.0516,0.3667,7.6011,47.1757,0.0571,-0.1269,-0.1958,347.05
18:47:32:633,1.6793,0.612,8.273,47.3667,-0.2479,-0.4048,-0.586,346.63
18:47:32:645,0.5838,0.2391,9.7144,47.3502,-0.3257,-0.4569,-0.8362,346.26
18:47:32:659,-0.1886,-0.4167,10.8726,47.6243,-0.0643,-0.1641,-0.7601,346.23
18:47:32:679,-0.2694,-0.6556,10.1388,47.9789,0.3174,0.045,-0.4699,346.87
18:47:32:699,-0.0176,-0.2589,8.8179,47.9037,0.5335,-0.03,-0.1628,348.12
18:47:32:719,0.3602,0.3821,7.4642,48.1505,0.6192,-0.1338,0.0794,349.23
18:47:32:740,0.8538,1.1455,6.2633,48.0594,0.5771,-0.3313,0.1939,349.74
18:47:32:760,1.4402,1.7195,5.7143,48.1181,0.4377,-0.483,0.1326,349.86
18:47:32:780,1.7492,2.0283,5.9288,48.4426,0.2157,-0.4298,-0.1,349.62
18:47:32:800,1.5594,1.7934,6.4756,48.4327,-0.0158,-0.2137,-0.3395,349.29
18:47:32:820,0.8205,1.3983,7.2513,48.6982,-0.141,-0.0737,-0.4375,349.19
18:47:32:840,0.2925,1.1437,8.4862,48.7165,-0.0568,-0.0832,-0.4098,349.47
18:47:32:860,0.0341,0.8579,9.3075,48.7494,0.1172,-0.0854,-0.3161,349.96
18:47:32:880,0.0497,0.914,9.319,48.8755,0.2125,0.0269,-0.1622,350.49
18:47:32:900,0.2384,1.3798,9.3683,48.9793,0.1864,0.1824,-0.0739,351
18:47:32:920,0.3135,1.8695,9.7239,49.3749,0.1774,0.4038,0.0022,351.46
18:47:32:940,0.3733,2.2449,9.4669,49.5525,0.131,0.5481,0.073,351.74
18:47:32:959,0.6707,2.4583,9.4505,49.4448,-0.0084,0.5475,0.0986,351.96
18:47:32:980,0.7571,2.2009,10.3371,49.5684,-0.0446,0.3618,0.0193,352
18:47:33:000,0.3095,1.6454,11.0839,49.6345,0.0123,0.0562,-0.018,351.82
18:47:33:020,0.4153,1.0219,11.5678,49.6515,-0.0079,-0.021,0.0129,351.51
18:47:33:039,0.5927,0.6594,11.9316,49.6479,-0.0776,0.0312,0.0118,351.23
18:47:33:059,0.4379,0.8228,11.9617,49.7637,-0.2048,0.0339,0.0368,351.18
18:47:33:079,0.3562,0.8274,12.2996,49.7443,-0.3549,0.0456,0.0549,351.2
18:47:33:099,0.2334,0.304,12.8467,49.7571,-0.3363,0.0173,-0.0313,351.15
18:47:33:120,-0.4234,-0.5234,13.0026,49.8552,-0.1761,-0.0023,0.0049,351.09
18:47:33:141,-0.8139,-1.2353,12.3346,50.0168,0.0171,0.251,0.2359,351.01
18:47:33:160,-0.4054,-1.4123,10.5125,50.1433,0.1316,0.5342,0.3897,351.06
18:47:33:180,-0.2404,-0.9904,8.8152,50.2374,0.0773,0.439,0.4563,351.26
18:47:33:200,0.044,-0.5542,8.215,50.2451,-0.076,0.0152,0.4643,351.19
18:47:33:219,0.2946,-0.2085,8.9482,50.0787,-0.1154,-0.3505,0.3988,350.61
18:47:33:239,0.3126,0.02,9.3859,50.0958,-0.0936,-0.3388,0.3381,349.7
18:47:33:260,0.2521,0.21,8.8448,50.021,-0.1617,0.0099,0.3051,348.9
18:47:33:279,0.1296,0.3608,7.7131,49.7438,-0.3565,0.3091,0.2806,348.49
18:47:33:299,0.2875,0.3144,6.7759,49.4835,-0.6472,0.4044,0.27,348.38
18:47:33:319,0.4039,0.3793,6.7342,49.5107,-0.8665,0.2351,0.2397,348.21
18:47:33:339,0.3114,0.3509,7.6592,49.2161,-0.9112,0.0663,0.2061,347.88
18:47:33:359,0.2655,0.154,8.5173,49.1067,-0.7452,0.2287,0.1822,347.38
18:47:33:380,-0.1256,0.0055,8.688,49.2751,-0.5003,0.4326,0.1949,346.96
18:47:33:400,-0.3275,-0.0322,8.2884,49.4558,-0.3267,0.588,0.2343,346.88
18:47:33:420,-0.2952,0.1973,7.9204,49.2191,-0.2421,0.5385,0.2535,346.88
18:47:33:440,-0.2398,0.607,8.1391,49.003,-0.1585,0.2564,0.1885,346.81
18:47:33:460,-0.3394,0.7709,8.8813,49.0518,0.0139,-0.0167,0.0949,346.54
18:47:33:480,-0.4917,0.688,9.3023,49.0896,0.1806,-0.1583,0.0693,346.06
18:47:33:500,-0.6725,0.6474,9.5554,48.8576,0.2471,-0.1125,0.1789,345.68
18:47:33:520,-0.5836,0.892,9.7677,48.9239,0.2593,-0.0225,0.2828,345.5
18:47:33:540,-0.4152,1.1345,9.8106,48.7573,0.2162,-0.0321,0.2913,345.47
18:47:33:560,-0.2551,1.1829,10.007,48.3485,0.1188,-0.1807,0.1992,345.33
18:47:33:581,-0.2685,0.8774,10.836,47.8907,0.007,-0.3984,0.0602,344.99
18:47:33:600,-0.4415,0.0014,12.1559,47.8008,0.0086,-0.3888,0.0246,344.53
18:47:33:620,-0.5037,-0.8734,12.4861,47.864,0.1034,-0.1056,0.172,344.12
18:47:33:641,-0.0735,-1.0864,11.6019,47.5629,0.1662,0.1584,0.3674,344.06
18:47:33:661,1.0073,-0.7135,10.1792,47.3923,0.0799,0.0669,0.3248,344.25
18:47:33:680,1.5501,-0.2619,9.7912,47.0573,-0.1862,-0.334,-0.0079,344.26
18:47:33:700,1.1084,-0.5854,11.4491,46.8272,-0.4114,-0.6432,-0.4268,343.75
18:47:33:720,-0.1641,-1.6715,13.2945,46.7837,-0.3038,-0.4016,-0.5285,343.03
18:47:33:740,-1.0311,-2.4129,13.1987,47.0421,0.097,0.1792,-0.2442,342.76
18:47:33:760,-0.4361,-1.9791,10.4485,47.0975,0.4281,0.5805,0.0996,343.44
18:47:33:780,1.2659,-1.1419,7.7672,46.8089,0.3786,0.2542,0.0752,344.57
18:47:33:800,2.223,-0.41,7.1887,46.3565,0.0224,-0.3515,-0.3017,345.22
18:47:33:820,1.8806,-0.375,9.1244,46.4557,-0.3858,-0.7321,-0.7537,344.86
18:47:33:841,0.6879,-1.2996,11.5633,46.4466,-0.5242,-0.6001,-0.9905,344.25
18:47:33:860,-0.8564,-2.0437,12.2968,46.5308,-0.3597,-0.1439,-0.8197,344.23
18:47:33:880,-1.4578,-1.9304,11.0736,46.5472,-0.1127,0.2947,-0.3496,345.15
18:47:33:900,-0.7031,-0.814,9.3002,46.4429,0.0949,0.5113,0.0581,346.66
18:47:33:920,0.4247,0.4879,7.718,46.1962,0.2631,0.4304,0.1449,347.98
18:47:33:939,0.9736,1.2556,6.4815,45.9158,0.3328,0.2745,0.0123,348.59
18:47:33:960,0.9643,1.4524,5.8503,46.1164,0.2929,0.1744,-0.1713,348.51
18:47:33:980,0.6569,1.3058,5.6131,46.0737,0.1699,0.185,-0.3092,348.24
18:47:34:000,0.2656,1.1149,5.7729,45.8124,0.0421,0.2191,-0.3651,348.15
18:47:34:019,0.049,1.0239,6.1213,45.5507,-0.0111,0.16,-0.364,348.33
18:47:34:039,0.0305,0.9071,6.5496,45.5173,-0.0398,0.0104,-0.3608,348.69
18:47:34:060,0.0186,0.7618,7.1682,45.2476,-0.0733,-0.1556,-0.3438,349.06
18:47:34:079,-0.157,0.6001,8.1857,44.8959,-0.1117,-0.2637,-0.2932,349.36
18:47:34:100,-0.2845,0.5854,9.3721,44.697,-0.1287,-0.2286,-0.1958,349.64
18:47:34:120,-0.3604,0.7392,10.397,44.5344,-0.0819,-0.0114,-0.059,349.95
18:47:34:141,-0.3711,1.0068,10.6265,44.1905,-0.0361,0.292,0.072,350.31
18:47:34:160,-0.1805,1.2783,10.5082,44.1461,-0.0329,0.3873,0.1417,350.7
18:47:34:180,0.0913,1.3464,10.6395,44.0098,-0.0148,0.217,0.0933,351
18:47:34:200,-0.0811,0.9431,11.1691,43.9691,-0.0206,-0.021,-0.0057,350.99
18:47:34:219,-0.28,0.149,11.6916,43.7997,-0.084,-0.137,-0.0265,350.71
18:47:34:239,-0.3685,-0.349,12.5121,43.5169,-0.167,-0.2067,0.0219,350.43
18:47:34:260,-0.1539,-0.5968,13.2265,43.5248,-0.2075,-0.1658,0.0842,350.34
18:47:34:281,0.0964,-0.7898,13.6564,43.4691,-0.2277,-0.1429,0.0704,350.3
18:47:34:300,-0.0097,-1.1083,14.2603,43.1974,-0.1175,-0.1162,0.0395,350.3
18:47:34:320,-0.6282,-1.6043,14.0915,43.293,0.1225,0.151,0.0741,350.21
18:47:34:340,-1.4084,-2.0598,11.9169,43.4075,0.2993,0.572,0.2801,350.17
18:47:34:360,-1.4662,-1.6853,9.0594,43.3204,0.295,0.6934,0.5665,350.36
18:47:34:380,-0.8261,-0.865,7.1597,42.9899,0.1278,0.2766,0.6543,350.61
18:47:34:400,-0.249,-0.2967,7.3037,42.6974,-0.0898,-0.4835,0.5149,350.39
18:47:34:420,-0.191,-0.4055,9.132,42.537,-0.183,-1.0143,0.3211,349.42
18:47:34:440,-0.2975,-0.6581,10.8646,42.027,-0.2139,-0.9126,0.1784,348.08
18:47:34:460,-0.6287,-0.8391,11.485,41.6865,-0.2027,-0.4026,0.1177,347.08
18:47:34:481,-0.9097,-0.8399,10.9371,41.4798,-0.1569,0.1142,0.1465,346.76
18:47:34:500,-0.9173,-0.5639,9.9076,41.0405,-0.1314,0.432,0.1625,346.91
18:47:34:520,-0.82,-0.1382,9.3841,40.4435,-0.1777,0.7035,0.0863,347.17
18:47:34:540,-1.1085,-0.0477,9.105,40.1099,-0.1878,0.9308,0.0347,347.22
18:47:34:560,-1.5396,-0.2946,8.556,39.8488,-0.0281,1.0431,0.1438,347.26
18:47:34:580,-1.614,-0.5302,7.4111,39.5031,0.2088,0.9686,0.3882,347.35
18:47:34:600,-1.1603,-0.5158,5.996,39.089,0.419,0.6849,0.6469,347.5
18:47:34:620,-0.4007,-0.0469,4.7473,38.8541,0.4685,0.2132,0.7778,347.27
18:47:34:681,0.308,0.6707,4.5502,38.5031,0.3445,-0.277,0.715,346.74
18:47:34:681,0.9013,1.0127,5.4105,38.2523,0.2029,-0.5932,0.4861,345.68
18:47:34:681,1.0912,0.9652,6.5466,37.8402,0.056,-0.6885,0.2194,344.41
18:47:34:699,0.6888,0.6382,8.132,37.4889,-0.0068,-0.6624,0.0709,343.33
18:47:34:719,0.1146,0.2589,9.5999,37.1223,0.0773,-0.458,0.0783,342.69
18:47:34:739,0.0481,0.3729,9.8995,36.8331,0.1002,-0.1945,0.1523,342.44
18:47:34:760,0.6394,0.7162,10.0906,36.7789,-0.018,-0.03,0.0853,342.53
18:47:34:780,0.9247,0.8092,10.744,36.511,-0.1473,-0.1301,-0.126,342.64
18:47:34:800,0.5945,0.0776,12.1212,36.3424,-0.2139,-0.3553,-0.3438,342.55
18:47:34:820,-0.0702,-1.1782,13.4129,36.1051,-0.1867,-0.2078,-0.3166,342.35
18:47:34:840,-0.1928,-1.8328,13.0595,35.9951,-0.1527,0.1015,-0.1026,342.32
18:47:34:860,0.1424,-1.7161,11.8155,35.7479,-0.1777,0.0413,0.0523,342.83
18:47:34:880,0.5029,-1.2781,11.0759,35.5793,-0.2485,-0.3148,0.0629,343.42
18:47:34:900,0.6296,-0.9655,11.6282,35.5542,-0.3544,-0.5394,-0.0467,343.49
18:47:34:919,0.3532,-1.234,12.7171,35.3532,-0.3044,-0.4016,-0.1175,343.16
18:47:34:939,0.0918,-1.5669,12.5825,35.2945,-0.1021,-0.0545,-0.0749,342.89
18:47:34:960,0.2781,-1.5909,11.2442,35.4499,0.0869,0.2468,0.0038,343.04
18:47:34:979,0.8202,-1.3096,9.3948,35.4507,0.1763,0.1909,-0.0063,343.46
18:47:34:999,1.2577,-0.6667,8.3628,35.6419,0.0885,-0.1296,-0.1867,343.82
18:47:35:019,1.2507,-0.2618,8.902,35.6016,-0.0483,-0.3813,-0.4896,343.8
18:47:35:039,0.6648,-0.5362,9.5973,35.8208,-0.0537,-0.3797,-0.7388,343.56
18:47:35:061,-0.2977,-0.9737,9.6364,35.9488,0.0438,-0.2179,-0.767,343.55
18:47:35:079,-0.845,-1.0305,8.9388,35.8722,0.1295,-0.0327,-0.6429,344.1
18:47:35:100,-0.7976,-0.6934,8.0571,36.1565,0.1673,0.0376,-0.5061,345.08
18:47:35:119,-0.5848,-0.2987,7.552,36.1623,0.196,-0.0023,-0.4241,346.11
18:47:35:139,-0.3632,0.0162,7.3242,36.2882,0.2237,-0.0364,-0.3874,346.91
18:47:35:160,-0.1362,0.2712,7.0574,36.508,0.1901,-0.0039,-0.3954,347.47
18:47:35:179,-0.0185,0.4639,7.2794,36.6653,0.1454,0.0003,-0.4241,347.94
18:47:35:199,-0.029,0.4539,7.8255,36.7381,0.1795,-0.0029,-0.4337,348.4
18:47:35:219,-0.1201,0.401,7.9064,36.9895,0.2002,0.0163,-0.381,348.84
18:47:35:240,-0.0565,0.4805,8.0109,37.2734,0.164,0.0605,-0.2836,349.34
18:47:35:260,0.1655,0.7116,8.456,37.4141,0.1332,0.1611,-0.1803,349.85
18:47:35:280,0.4723,1.1161,8.7929,37.5981,0.1609,0.258,-0.0946,350.31
18:47:35:299,0.8394,1.5793,9.0053,37.6067,0.229,0.2729,-0.0622,350.7
18:47:35:319,0.9387,1.8554,9.1667,37.575,0.2828,0.2553,-0.0718,350.98
18:47:35:339,0.7515,1.8133,9.3543,37.3987,0.2114,0.2532,-0.0824,351.11
18:47:35:361,0.5836,1.579,10.2038,37.206,0.0672,0.2675,-0.0744,351.17
18:47:35:380,0.4013,1.2506,11.4727,37.3608,0.0107,0.1526,-0.0968,351.23
18:47:35:399,0.2018,0.763,12.6344,37.1124,0.0528,0.1435,-0.1138,351.3
18:47:35:419,-0.1604,0.2848,12.609,37.0248,0.0203,0.4448,-0.0696,351.28
18:47:35:440,-0.4987,0.2917,11.7086,36.9965,-0.1393,0.6492,0.0347,351.39
18:47:35:461,-0.5985,0.6465,11.6257,36.8961,-0.2298,0.4624,0.0922,351.73
18:47:35:483,-0.6716,0.516,12.1693,37.0678,-0.1266,0.2021,0.0304,351.93
18:47:35:499,-1.2568,-0.1882,11.8092,37.2354,0.0086,0.1723,0.0315,351.71
18:47:35:519,-1.5797,-0.7742,10.9014,37.4158,0.0565,0.1185,0.1603,351.41
18:47:35:539,-1.2239,-1.0672,10.6031,37.4778,0.155,-0.17,0.2812,351.36
18:47:35:560,-0.5281,-1.2453,10.3659,37.5546,0.2338,-0.417,0.2828,351.28
18:47:35:579,0.0125,-1.3372,9.9632,37.7708,0.139,-0.4601,0.1688,350.88
18:47:35:599,0.1932,-1.3801,9.9734,37.8098,-0.0606,-0.4473,0.0384,350.39
18:47:35:619,0.5362,-1.1614,10.8425,37.9814,-0.1819,-0.4191,-0.0861,350.05
18:47:35:639,0.7542,-0.7401,11.7073,38.0488,-0.166,-0.1599,-0.2368,349.86
18:47:35:661,0.4992,-0.5088,11.2731,37.9241,-0.0686,0.3048,-0.3273,349.84
18:47:35:679,-0.0024,-0.318,9.3678,37.9161,-0.0148,0.646,-0.3102,350.16
18:47:35:699,-0.4392,0.0162,7.4702,37.8612,-0.0004,0.6455,-0.2064,350.8
18:47:35:720,-0.7098,0.386,6.2422,38.0944,0.0661,0.3383,-0.0707,351.45
18:47:35:742,-0.7748,0.71,5.6604,38.2715,0.1577,-0.0907,0.0602,351.75
18:47:35:760,-0.7774,0.8813,5.6249,38.3346,0.2418,-0.4426,0.1555,351.75
18:47:35:779,-0.5626,0.9851,5.9825,38.3096,0.2647,-0.607,0.1875,351.51
18:47:35:799,-0.6447,1.0198,6.7094,38.479,0.1896,-0.5389,0.1342,351.19
18:47:35:819,-0.9164,0.9862,7.8189,38.5168,0.0688,-0.2983,0.0539,350.91
18:47:35:839,-1.0898,1.0488,9.271,38.7593,-0.0526,0.1132,-0.0489,350.77
18:47:35:868,-1.1692,0.9597,10.3792,38.8242,-0.141,0.6056,-0.1426,350.81
18:47:35:879,-1.4345,0.8481,10.5926,38.8507,-0.0489,0.8765,-0.1101,351.06
18:47:35:899,-1.4365,0.8349,9.9542,38.8256,0.1939,0.7472,-0.0377,351.47
18:47:35:919,-1.1648,0.7881,9.0606,38.7742,0.4142,0.3863,0.0501,351.81
18:47:35:939,-0.7185,0.7579,8.3546,38.7404,0.4776,-0.0156,0.1326,351.82
18:47:35:960,-0.1833,0.5316,8.4363,38.6435,0.2977,-0.277,0.1507,351.56
18:47:35:981,-0.049,0.0683,9.6953,38.575,0.0129,-0.3766,0.1736,351.19
18:47:35:999,-0.2783,-0.6789,11.4183,38.6573,-0.1234,-0.36,0.2625,350.83
18:47:36:019,-0.6588,-1.3451,12.3613,38.5775,-0.0867,-0.1966,0.4686,350.58
18:47:36:039,-0.4329,-1.0641,11.7474,38.719,-0.0276,0.0701,0.7198,350.4
18:47:36:060,0.6456,0.0576,10.3253,38.9349,-0.1005,0.0892,0.7422,350.25
18:47:36:079,1.354,1.3678,9.9117,38.8557,-0.2485,-0.2376,0.4249,349.92
18:47:36:099,0.9018,1.6848,10.4456,38.9142,-0.3778,-0.5975,-0.0994,349.1
18:47:36:119,-0.4393,0.5154,11.6751,39.0069,-0.4156,-0.6683,-0.4374,347.99
18:47:36:139,-1.6136,-1.0474,12.5195,39.2791,-0.2783,-0.4596,-0.389,347.26
18:47:36:159,-2.0743,-1.9216,12.2824,39.2327,-0.0537,-0.1168,-0.0137,347.36
18:47:36:179,-0.6592,-1.5421,11.0491,39.5767,0.1055,0.1462,0.3285,348.07
18:47:36:199,1.1473,-0.4344,9.3844,39.7159,0.0571,0.11,0.245,348.82
18:47:36:220,1.7486,0.2133,8.9586,39.754,-0.1447,-0.1008,-0.1031,349.05
18:47:36:240,1.208,-0.0337,9.3655,39.6128,-0.2533,-0.2344,-0.4007,348.64
18:47:36:263,0.2995,-0.4181,9.4396,39.7993,-0.2346,-0.2083,-0.4667,348.17
18:47:36:279,-0.1423,-0.389,8.8261,40.2051,-0.1601,-0.0689,-0.3486,348.18
18:47:36:299,0.1014,0.0262,7.8563,40.5313,-0.1111,0.02,-0.2213,348.68
18:47:36:319,0.6478,0.4552,7.0496,40.577,-0.0749,-0.0406,-0.2011,349.33
18:47:36:339,0.8452,0.6902,6.7274,40.6174,-0.0547,-0.1865,-0.257,349.81
18:47:36:361,0.7685,0.7669,7.0094,40.7167,0.0102,-0.2626,-0.3092,350.02
18:47:36:383,0.459,0.6043,7.235,41.026,0.0315,-0.1977,-0.3294,350.15
18:47:36:399,-0.0499,0.48,7.3628,41.3032,-0.0169,-0.0843,-0.248,350.41
18:47:36:419,-0.2637,0.5431,8.0497,41.7632,0.0054,-0.0311,-0.076,350.82
18:47:36:439,-0.0406,0.8305,8.6275,41.9938,0.1406,-0.0694,0.0874,351.28
18:47:36:460,0.3991,1.2039,9.0125,41.9286,0.229,-0.112,0.1502,351.6
18:47:36:480,0.7214,1.4991,9.5983,41.9742,0.1901,-0.0279,0.1098,351.68
18:47:36:500,0.4825,1.6315,10.62,42.0827,0.1241,0.1914,0.08,351.57
18:47:36:521,0.0537,1.5879,11.4447,42.4875,0.2029,0.4459,0.1683,351.45
18:47:36:539,-0.2534,1.6891,11.504,42.3573,0.3727,0.6439,0.3136,351.48
18:47:36:560,-0.125,1.7395,10.7727,42.1549,0.5303,0.6796,0.4579,351.58
18:47:36:579,0.5467,1.7349,9.816,42.0027,0.5351,0.3985,0.4568,351.53
18:47:36:599,0.8915,1.4649,9.6235,41.8429,0.3818,-0.0188,0.2987,351.18
18:47:36:619,0.6923,0.7558,10.3797,41.6943,0.1337,-0.1397,0.147,350.4
18:47:36:639,-0.191,0.0867,11.0915,41.5606,-0.1431,-0.0114,0.1545,349.53
18:47:36:660,-0.9039,0.0464,12.0005,41.3165,-0.2496,0.0605,0.3445,349.07
18:47:36:679,-0.8454,0.2575,12.3579,41.3699,-0.2128,0.1925,0.4808,348.96
18:47:36:768,-0.6718,0.5647,11.8918,41.0467,-0.1952,0.2585,0.5191,348.81
18:47:36:769,-0.5522,0.5925,11.4914,40.9498,-0.1617,0.1185,0.4611,348.51
18:47:36:769,-0.5558,0.2697,11.7037,40.7287,-0.0483,0.0009,0.3525,348
18:47:36:769,-0.5912,-0.2195,11.5378,40.6948,0.0358,0.2383,0.2279,347.29
18:47:36:780,-0.7514,-0.6187,10.4117,40.7962,-0.0643,0.6593,0.1417,346.69
18:47:36:799,-0.875,-0.5941,9.1759,40.767,-0.2464,0.8153,0.1039,346.49
18:47:36:819,-0.76,-0.3571,8.7226,40.7368,-0.3629,0.5374,0.039,346.51
18:47:36:839,-0.6044,-0.1528,9.1325,40.4889,-0.2666,0.0014,-0.0542,346.42
18:47:36:860,-0.6693,-0.3779,9.2205,40.4144,-0.0494,-0.4191,-0.1431,345.98
18:47:36:880,-0.7265,-0.6057,8.7819,40.475,0.0491,-0.4857,-0.1452,345.55
18:47:36:899,-0.49,-0.5996,8.0215,40.4173,0.0001,-0.3148,-0.0962,345.34
18:47:36:919,-0.0822,-0.3813,7.1695,40.6339,-0.1197,-0.2397,-0.076,345.49
18:47:36:939,0.1176,-0.1225,6.7528,40.5474,-0.2165,-0.3521,-0.0851,345.79
18:47:36:960,0.2077,0.0695,7.2418,40.4889,-0.2096,-0.5432,-0.093,345.95
18:47:36:979,0.0272,-0.0337,8.104,40.6253,-0.0941,-0.5996,-0.0829,345.95
18:47:36:999,-0.2974,-0.2703,8.4466,40.7389,0.0342,-0.4367,0.0113,345.92
18:47:37:019,-0.4084,-0.2583,8.1707,41.081,0.0544,-0.235,0.147,346.02
18:47:37:039,-0.2611,0.1333,8.0079,41.1511,0.0033,-0.1492,0.2285,346.28
18:47:37:060,-0.0237,0.5635,8.306,41.3048,0.0161,-0.1604,0.2088,346.43
18:47:37:081,0.0353,0.8211,8.3852,41.375,0.0251,-0.1998,0.146,346.32
18:47:37:099,-0.2542,0.9996,8.6923,41.6179,-0.0148,-0.1881,0.1007,346.06
18:47:37:119,-0.7198,1.2288,9.1134,41.9321,-0.0403,-0.0598,0.147,345.8
18:47:37:139,-0.9291,1.7166,9.3189,42.0113,-0.0031,0.0573,0.245,345.64
18:47:37:163,-0.8146,2.2828,9.2302,42.0448,0.0549,-0.0385,0.2758,345.62
18:47:37:179,-0.2853,2.4105,9.6188,42.3238,0.0778,-0.3196,0.1907,345.54
18:47:37:199,0.3964,1.8536,10.774,42.3649,0.0581,-0.5533,0.0374,345.2
18:47:37:219,0.5543,0.4986,12.4792,42.6207,-0.0089,-0.4905,-0.0856,344.69
18:47:37:239,-0.0129,-1.0977,13.9502,42.5997,-0.0345,-0.0337,0.0448,344.32
18:47:37:259,-0.0634,-1.7539,13.9148,42.9525,0.0885,0.571,0.3988,344.33
18:47:37:279,0.7177,-1.3922,11.9293,43.1163,0.246,0.8196,0.5862,344.76
18:47:37:299,1.6951,-0.7974,9.5983,43.1187,0.2002,0.5805,0.4776,345.17
18:47:37:319,1.9069,-0.2905,8.6464,43.1547,-0.035,0.0642,0.1827,344.91
18:47:37:340,1.576,-0.1844,9.783,43.2964,-0.2751,-0.4085,-0.167,344.02
18:47:37:364,0.7925,-0.6885,12.1933,43.2044,-0.2783,-0.5075,-0.4231,343.02
18:47:37:380,0.0876,-1.6131,13.1811,43.375,-0.0888,-0.1226,-0.4374,342.42
18:47:37:399,-0.0473,-2.044,11.8997,43.3761,0.0608,0.3596,-0.2288,342.56
18:47:37:419,0.6012,-1.3818,10.04,43.7299,0.1039,0.3895,-0.0616,343.4
18:47:37:440,1.2567,-0.3493,8.8509,43.8271,0.0501,0.0567,-0.1591,344.29
18:47:37:460,1.0821,0.0801,8.9626,43.8656,-0.0547,-0.2307,-0.38,344.56
18:47:37:479,0.5413,0.0177,9.3798,44.0829,-0.1106,-0.2664,-0.4646,344.37
18:47:37:499,0.3275,0.0493,9.4235,44.3003,-0.0537,-0.1567,-0.4337,344.32
18:47:37:519,0.3966,0.3377,8.8992,44.373,0.0895,-0.0396,-0.3826,344.73
18:47:37:539,0.5977,0.6424,7.9005,44.5934,0.1853,0.0179,-0.3821,345.36
18:47:37:559,0.7296,0.8608,7.0897,44.8476,0.1939,0.019,-0.4433,345.99
18:47:37:579,0.5416,0.9328,6.7026,44.8038,0.1593,0.0408,-0.528,346.49
18:47:37:600,0.1621,0.8243,6.8195,44.9222,0.1305,0.0743,-0.5785,346.93
18:47:37:619,-0.2919,0.5812,7.1422,45.2345,0.1097,0.1451,-0.5423,347.45
18:47:37:640,-0.5797,0.7078,7.4657,45.3024,0.0858,0.1648,-0.4492,348.08
18:47:37:661,-0.5649,0.9526,7.967,45.6298,0.09,0.1227,-0.373,348.78
18:47:37:681,-0.341,1.2661,8.5432,45.9215,0.1385,0.077,-0.3273,349.4
18:47:37:700,-0.2786,1.412,8.9517,46.1809,0.1837,0.0365,-0.3193,349.87
18:47:37:719,-0.2982,1.3633,9.2161,46.5062,0.1678,0.1041,-0.2756,350.26
18:47:37:740,-0.4003,1.3873,9.6634,46.71,0.1092,0.2558,-0.1846,350.61
18:47:37:761,-0.5462,1.583,10.2418,46.9934,0.1619,0.4842,-0.0526,351.02
18:47:37:779,-0.6529,1.7286,9.5987,47.0864,0.212,0.654,0.0863,351.43
18:47:37:799,-0.6139,1.7489,9.0358,46.9514,0.1816,0.4932,0.2194,351.79
18:47:37:819,-0.3272,1.5553,9.3247,47.4004,0.1369,0.0552,0.278,351.93
18:47:37:839,-0.0461,1.114,10.3882,47.4861,0.064,-0.2861,0.246,351.65
18:47:37:859,-0.0611,0.4747,11.2563,47.4948,-0.0515,-0.3579,0.2513,351.02
18:47:37:879,-0.1994,0.4704,12.1796,47.6002,-0.1665,-0.2791,0.3056,350.44
18:47:37:900,0.0633,0.6793,12.8156,47.5637,-0.2293,-0.0513,0.3041,350.12
18:47:37:920,0.2497,0.8763,12.6896,47.6104,-0.2708,0.0983,0.1912,349.9
18:47:37:940,-0.1087,0.6449,12.7548,47.9329,-0.2868,-0.0093,0.0272,349.74
18:47:37:961,-0.9774,0.0323,13.1722,48.072,-0.1468,-0.0508,-0.0009,349.5
18:47:37:979,-1.6531,-0.7766,12.4902,48.3993,0.1332,0.1787,0.1699,349.2
18:47:37:999,-1.5757,-0.9104,10.2185,48.2402,0.2758,0.3463,0.4345,349.17
18:47:38:019,-0.7379,-0.4893,8.3726,48.2803,0.2492,0.1105,0.5511,349.38
18:47:38:039,0.0762,-0.1058,7.8828,48.2229,0.1273,-0.3781,0.4707,349.3
18:47:38:061,0.5695,0.0733,8.8378,48.3081,0.04,-0.7236,0.2955,348.6
18:47:38:079,0.8255,-0.014,9.6456,48.5741,-0.027,-0.6411,0.0783,347.59
18:47:38:099,0.6702,-0.16,9.8511,48.4751,-0.0782,-0.2685,-0.0718,346.82
18:47:38:119,0.3415,-0.2929,9.2106,48.3304,-0.0829,0.1307,-0.1127,346.6
18:47:38:139,0.0358,-0.2895,7.9814,48.4767,-0.0813,0.3682,-0.0824,346.84
18:47:38:160,-0.1879,-0.277,6.8744,48.5184,-0.125,0.3522,-0.0063,347.24
18:47:38:181,-0.213,-0.1261,6.7411,48.6182,-0.1984,0.0525,0.081,347.53
18:47:38:199,-0.1962,0.0359,7.4942,48.7085,-0.1516,-0.1775,0.1619,347.57
18:47:38:219,-0.1897,0.379,7.9888,49.0372,-0.0111,-0.2131,0.2152,347.31
18:47:38:239,-0.0056,0.7288,7.8292,49.1389,0.072,-0.1354,0.1758,347.05
18:47:38:259,0.0434,0.8512,7.6082,49.2593,0.0379,-0.0518,0.08,346.88
18:47:38:280,-0.2541,0.9298,7.4427,49.4718,-0.0414,-0.0321,0.0315,346.72
18:47:38:299,-0.5205,1.0581,8.01,49.6207,-0.0781,-0.1397,0.0523,346.59
18:47:38:319,-0.568,1.4184,8.7822,49.8962,-0.0217,-0.2876,0.1183,346.5
18:47:38:339,-0.2392,1.8559,9.4582,50.0007,0.0571,-0.4101,0.146,346.38
18:47:38:361,0.0963,2.2764,9.981,50.0444,0.0949,-0.3978,0.1071,346.23
18:47:38:379,0.2772,2.4289,10.3515,50.2059,0.0677,-0.2712,0.0065,346.04
18:47:38:399,0.2685,2.2522,10.9483,50.364,0.0283,-0.2105,-0.0941,345.92
18:47:38:419,0.0644,1.6967,12.124,50.4373,0.1007,-0.2823,-0.1606,345.92
18:47:38:439,0.0076,0.8612,12.8454,50.5634,0.229,-0.2137,-0.126,345.97
18:47:38:459,0.3577,0.1825,12.6173,50.7056,0.3014,0.0232,0.0043,346.07
18:47:38:481,0.9483,0.0546,11.048,50.8515,0.2098,0.2143,0.0485,346.36
18:47:38:499,1.2519,0.2279,9.5576,51.0336,-0.1122,0.0221,-0.0835,346.7
18:47:38:519,1.081,0.1984,10.2056,51.1204,-0.4226,-0.3893,-0.2708,346.8
18:47:38:539,0.655,-0.1517,12.0045,51.4671,-0.4124,-0.5629,-0.3549,346.51
18:47:38:559,0.2308,-0.5501,12.9057,51.8063,-0.1665,-0.4255,-0.2655,346.23
18:47:38:581,0.3683,-0.5884,12.3106,51.8118,0.1667,-0.0939,-0.0835,346.46
18:47:38:599,1.2467,-0.2982,10.4017,52.0133,0.2982,0.1227,0.0028,347.07
18:47:38:619,2.3947,-0.0008,9.1779,52.2626,0.221,0.0227,-0.1351,347.73
18:47:38:639,2.8035,0.0524,9.1583,52.3335,0.0863,-0.1588,-0.4449,348.02
18:47:38:659,2.4255,-0.0831,9.5671,52.4548,-0.0691,-0.1439,-0.7409,347.92
18:47:38:679,1.5435,-0.2892,9.7534,52.4291,-0.191,0.0498,-0.9022,347.93
18:47:38:700,0.6282,-0.5213,9.3799,52.6341,-0.216,0.2447,-0.8516,348.45
18:47:38:719,-0.0045,-0.4675,8.5939,52.6952,-0.1734,0.3085,-0.6307,349.44
18:47:38:740,-0.1117,-0.0376,8.0345,52.6448,-0.0925,0.2569,-0.3933,350.61
18:47:38:760,0.0979,0.6219,7.6842,52.9293,0.0182,0.1589,-0.2586,351.61
18:47:38:781,0.2572,1.1401,7.3911,53.1557,0.1284,0.0674,-0.2432,352.27
18:47:38:828,0.3107,1.4271,7.0022,53.1322,0.1784,0.0743,-0.2724,352.64
18:47:38:828,0.3173,1.5838,6.5512,53.3345,0.1156,0.1217,-0.3214,352.88
18:47:38:839,0.141,1.5358,6.5217,53.5136,0.0065,0.1371,-0.3693,353.17
18:47:38:860,-0.2381,1.292,6.9435,53.7436,-0.0696,0.0951,-0.34,353.5
18:47:38:879,-0.3138,1.0998,7.6615,53.7861,-0.0797,0.0583,-0.2298,353.85
18:47:38:900,-0.264,1.1197,8.3329,53.9534,-0.0537,0.0695,-0.1058,354.22
18:47:38:919,-0.0999,1.2481,8.7668,54.276,0.0017,0.1137,-0.0079,354.56
18:47:38:939,0.1149,1.4212,9.0759,54.2797,0.0672,0.1526,0.0682,354.83
18:47:38:963,0.0711,1.6434,9.1228,54.2291,0.089,0.2191,0.1545,354.98
18:47:38:981,0.0179,2.0739,9.1694,54.2252,0.0698,0.2867,0.2269,355.01
18:47:38:999,0.2521,2.3749,9.233,54.1772,0.0001,0.2431,0.2056,354.96
18:47:39:019,0.3534,2.3579,9.8028,54.0803,-0.0946,0.0754,0.0879,354.81
18:47:39:039,0.1817,1.862,10.9492,54.0268,-0.174,-0.0976,-0.0345,354.48
18:47:39:059,-0.3207,1.0196,12.1681,54.2984,-0.2229,-0.0124,-0.0334,354.1
18:47:39:080,-0.5659,0.5232,12.5039,54.3773,-0.2746,0.1914,0.1114,353.86
18:47:39:102,-0.3591,0.2706,12.5367,54.1969,-0.306,0.2739,0.2599,353.96
18:47:39:120,0.017,0.1959,12.2663,54.1266,-0.2804,0.25,0.3477,354.14
18:47:39:140,0.0229,0.0039,11.7988,54.2103,-0.1846,0.0679,0.3722,354.05
18:47:39:161,-0.2282,-0.2136,11.6695,54.2797,-0.0036,-0.1056,0.3988,353.72
18:47:39:181,-0.4209,-0.6401,11.2678,54.4798,0.1348,-0.0529,0.3988,353.18
18:47:39:200,-0.6493,-1.2758,10.3415,54.7339,0.0725,0.0578,0.4116,352.64
18:47:39:219,-0.9106,-1.6341,10.1027,54.8515,-0.0425,-0.0279,0.5149,352.25
18:47:39:239,-0.6232,-1.472,10.3992,54.7047,-0.0489,-0.2594,0.6389,351.87
18:47:39:259,-0.1661,-1.028,10.6698,54.581,-0.0212,-0.4271,0.6714,351.31
18:47:39:282,0.1616,-0.604,10.8824,54.7894,0.0012,-0.3419,0.6341,350.54
18:47:39:299,0.3094,-0.2595,10.4313,54.9004,0.0528,-0.1013,0.5681,349.7
18:47:39:319,0.2175,-0.1071,9.1381,54.8779,0.1007,0.0951,0.5244,349.03
18:47:39:339,0.1042,0.071,7.7418,54.9898,0.1129,0.144,0.5191,348.51
18:47:39:360,0.1524,0.2562,6.7824,54.9542,0.1055,0.0456,0.525,348.02
18:47:39:379,0.2549,0.5094,6.2764,54.6807,0.0725,-0.1072,0.5122,347.45
18:47:39:400,0.3699,0.7277,6.3837,54.5101,0.0395,-0.2823,0.4749,346.78
18:47:39:419,0.4625,0.8732,7.0164,54.4813,0.039,-0.3462,0.4143,346.05
18:47:39:439,0.427,0.9596,7.48,54.6114,0.0405,-0.3116,0.3488,345.34
18:47:39:459,0.4687,1.023,7.8403,54.3815,0.0086,-0.2738,0.2801,344.77
18:47:39:481,0.5613,1.0685,8.4739,54.2732,-0.0137,-0.2488,0.212,344.34
18:47:39:499,0.8069,1.1851,9.1762,54.1191,0.0235,-0.2115,0.1428,343.98
18:47:39:519,1.0684,1.2513,9.7227,53.8073,0.0799,-0.1189,0.0411,343.69
18:47:39:539,0.9412,1.1831,9.883,53.7585,0.1358,0.094,-0.0339,343.51
18:47:39:560,0.6459,1.1732,9.4606,53.8189,0.1502,0.308,-0.0414,343.45
18:47:39:580,0.6087,1.291,8.9847,53.9781,0.1247,0.2643,-0.0281,343.59
18:47:39:599,0.7846,1.357,9.1902,53.7207,0.0384,0.0392,-0.076,343.78
18:47:39:619,0.9099,1.1859,9.9753,53.8031,-0.0696,-0.2323,-0.1814,343.77
18:47:39:639,0.9321,0.4071,11.5752,53.9186,-0.126,-0.3606,-0.2682,343.6
18:47:39:659,0.6754,-0.486,12.4747,53.8538,-0.0962,-0.0651,-0.1803,343.46
18:47:39:679,0.8676,-0.803,11.6723,54.3433,-0.1016,0.2047,-0.0052,343.58
18:47:39:701,1.6287,-0.7407,10.8733,54.6066,-0.2272,0.135,0.0091,344.13
18:47:39:719,2.2223,-0.3272,10.9248,54.865,-0.422,-0.1748,-0.1436,344.52
18:47:39:739,2.0527,-0.2516,12.613,55.168,-0.4662,-0.5038,-0.3853,344.43
18:47:39:759,1.3605,-0.7935,13.851,55.283,-0.2693,-0.3036,-0.5045,344.13
18:47:39:779,0.5622,-1.3688,13.3483,55.6581,0.0336,0.2787,-0.3528,344.06
18:47:39:800,0.7209,-1.16,10.7259,55.5659,0.2354,0.6237,-0.1186,344.74
18:47:39:819,1.7372,-0.6359,8.4073,55.8268,0.2732,0.3112,-0.1032,345.85
18:47:39:840,2.3573,-0.1996,7.4719,55.9587,0.0826,-0.1727,-0.3214,346.54
18:47:39:859,2.064,0.0548,8.3701,55.7124,-0.1974,-0.3531,-0.6057,346.43
18:47:39:880,1.1855,-0.1846,9.5026,55.8802,-0.298,-0.244,-0.7872,346.14
18:47:39:899,0.3033,-0.5005,9.7249,56.0235,-0.1947,-0.0705,-0.7313,346.33
18:47:39:919,0.0193,-0.4309,8.9693,56.2354,-0.0185,0.0354,-0.5349,347.1
18:47:39:940,0.145,0.0148,7.9331,56.2389,0.0917,0.0892,-0.3368,348.17
18:47:39:960,0.5225,0.6702,7.1585,56.3534,0.1278,0.1281,-0.2692,349.13
18:47:39:980,0.6549,1.0237,6.582,56.7614,0.1342,0.1446,-0.3049,349.8
18:47:40:000,0.5982,1.112,6.2721,56.8983,0.1167,0.1723,-0.3411,350.22
18:47:40:019,0.3718,0.9828,6.3043,57.2796,0.0901,0.1749,-0.3645,350.54
18:47:40:039,0.0334,0.899,6.4233,57.4514,0.0139,0.1659,-0.3225,350.9
18:47:40:060,-0.2547,1.043,7.1041,57.564,-0.0936,0.1499,-0.2272,351.28
18:47:40:080,-0.439,1.416,8.182,57.7452,-0.0909,0.1483,-0.0819,351.67
18:47:40:100,-0.337,1.6061,9.101,57.73,-0.0153,0.2888,0.0571,351.99
18:47:40:120,-0.2645,1.8709,9.4721,57.7329,0.0235,0.5071,0.2061,352.23
18:47:40:140,-0.0084,2.4523,9.7696,57.8915,0.0597,0.5816,0.2945,352.43
18:47:40:160,0.2451,2.8724,9.912,57.809,0.1034,0.5513,0.2753,352.52
18:47:40:180,0.5638,2.8899,10.0063,57.9028,0.098,0.4118,0.205,352.31
18:47:40:200,0.9094,2.5266,10.4566,57.7342,0.0602,0.1925,0.1087,351.92
18:47:40:220,0.9192,1.9795,11.3603,58.0487,0.0198,-0.0002,-0.0249,351.47
18:47:40:239,0.6722,1.1567,12.4195,57.9626,-0.0153,0.028,-0.1372,351.05
18:47:40:261,0.2031,0.252,12.5845,57.8563,-0.1372,0.2638,-0.1564,350.77
18:47:40:280,-0.5198,-0.08,12.7445,57.7153,-0.2719,0.3772,-0.0659,350.82
18:47:40:300,-0.9799,-0.0923,12.9692,57.9527,-0.2826,0.3346,0.0177,351.14
18:47:40:320,-1.3548,-0.2257,12.9842,57.778,-0.2251,0.1494,0.073,351.37
18:47:40:339,-1.6196,-0.5476,12.8813,57.778,-0.1479,-0.0577,0.1619,351.39
18:47:40:361,-1.8665,-1.1723,13.0387,57.5234,0.0081,-0.1626,0.3174,351.22
18:47:40:380,-1.8538,-1.6465,12.2845,57.5422,0.2412,-0.0076,0.558,350.98
18:47:40:400,-1.315,-1.4256,10.276,57.2595,0.3498,0.2212,0.7677,350.73
18:47:40:420,-0.6623,-0.9243,8.2484,57.1903,0.2945,0.1776,0.821,350.52
18:47:40:440,-0.3263,-0.5296,7.2745,57.1279,0.1337,-0.1567,0.7762,350.05
18:47:40:460,-0.1314,-0.3983,8.0122,56.8706,0.006,-0.4899,0.7022,349.12
18:47:40:480,-0.048,-0.2782,9.2902,56.5138,0.0262,-0.5346,0.6293,347.9
18:47:40:500,-0.0012,-0.1733,9.4579,56.368,0.0586,-0.2898,0.5729,346.76
18:47:40:520,0.0668,0.072,8.8516,56.094,0.0571,-0.022,0.525,345.96
18:47:40:540,0.1423,0.3333,8.0028,55.7669,0.0624,0.0876,0.4627,345.46
18:47:40:561,0.2141,0.5238,7.2709,55.41,0.0815,0.0312,0.41,345.02
18:47:40:579,0.2866,0.6286,6.8,55.1749,0.1002,-0.0811,0.3701,344.51
18:47:40:600,0.4566,0.7863,6.5517,54.9571,0.0975,-0.1663,0.3211,343.94
18:47:40:620,0.6199,0.9262,6.5113,54.7271,0.0544,-0.2067,0.2306,343.39
18:47:40:641,0.5847,0.9715,6.7534,54.6449,0.0012,-0.2355,0.1098,342.92
18:47:40:662,0.4358,0.8468,7.3863,54.5601,-0.0196,-0.2669,0.0166,342.52
18:47:40:679,0.3136,0.8445,8.0887,54.537,-0.0057,-0.3031,-0.0169,342.25
18:47:40:699,0.2743,1.0005,8.9361,54.4254,0.0155,-0.2946,-0.0153,342.11
18:47:40:719,0.5842,1.3988,9.864,54.4969,0.0842,-0.154,-0.0217,342.09
18:47:40:739,0.8512,1.8345,10.0396,54.4273,0.1625,0.0626,-0.1468,342.15
18:47:40:759,0.8419,2.0052,9.9873,54.301,0.073,0.2585,-0.3619,342.31
18:47:40:780,0.4741,1.817,10.9195,54.3562,-0.0766,0.5103,-0.5918,342.53
18:47:40:799,-0.5229,1.3325,11.3543,54.5147,-0.1324,0.6125,-0.7111,342.82
18:47:40:819,-1.2813,0.5596,11.6883,54.5962,-0.0968,0.4395,-0.7015,343.37
18:47:40:887,-2.0785,-0.4687,12.1388,54.8032,0.0358,0.1307,-0.4726,344.08
18:47:40:888,-1.877,-1.0796,11.8683,54.7712,0.1619,-0.0481,-0.093,344.73
18:47:40:888,-0.6847,-0.6038,11.1229,54.9499,0.0746,-0.1338,0.1848,345.29
18:47:40:899,0.8171,0.0764,11.2786,55.1183,-0.043,-0.2786,0.1603,345.7
18:47:40:919,1.274,0.301,12.0379,55.4499,-0.1026,-0.3569,-0.0084,345.71
18:47:40:939,0.978,0.0449,13.1564,55.5862,0.0267,-0.2722,-0.1372,345.38
18:47:40:959,0.5371,-0.5177,13.1229,55.7786,0.3232,0.0264,-0.1383,345.16
18:47:40:982,0.4781,-0.7827,11.0667,55.9684,0.5101,0.325,-0.0627,345.3
18:47:41:000,1.0737,-0.7506,8.8725,56.0082,0.4882,0.2824,-0.0781,345.76
18:47:41:019,1.6363,-0.5782,7.512,55.8527,0.2625,0.0083,-0.2293,346.17
18:47:41:039,1.4189,-0.4155,7.6736,55.7524,-0.0616,-0.2419,-0.4289,346.18
18:47:41:059,0.5446,-0.6587,9.0188,55.6793,-0.1851,-0.4101,-0.5354,346
18:47:41:080,-0.3991,-0.9056,9.6212,55.8103,-0.1511,-0.3356,-0.4417,346.01
18:47:41:099,-0.7176,-0.6472,9.0869,55.7449,-0.1069,-0.0705,-0.2378,346.44
18:47:41:119,-0.3782,0.038,7.9455,55.8885,-0.1591,0.2037,-0.0941,347.1
18:47:41:140,0.0615,0.7308,6.9108,55.7922,-0.2394,0.2915,-0.0691,347.83
18:47:41:160,0.1506,1.1657,6.4123,55.7039,-0.2437,0.1744,-0.1053,348.29
18:47:41:181,0.0302,1.3897,6.3819,55.494,-0.2075,0.004,-0.1298,348.43
18:47:41:199,-0.0722,1.5434,6.7106,55.7039,-0.15,-0.0731,-0.1308,348.39
18:47:41:219,-0.1028,1.6545,6.959,55.8127,-0.1489,-0.0625,-0.1255,348.38
18:47:41:239,-0.013,1.808,7.5761,56.0785,-0.1399,-0.0635,-0.1175,348.48
18:47:41:259,0.2228,1.957,8.1479,55.9669,-0.1122,-0.0822,-0.1277,348.65
18:47:41:280,0.4319,1.9757,8.9247,56.077,-0.0989,-0.0417,-0.1601,348.79
18:47:41:299,0.3494,1.8596,9.7817,55.8933,-0.0446,0.0919,-0.1761,348.93
18:47:41:319,-0.0299,1.6458,10.4113,56.1514,0.0501,0.2968,-0.1335,349.11
18:47:41:339,-0.3631,1.5345,10.5097,56.3035,0.1364,0.5864,-0.0047,349.41
18:47:41:360,-0.4156,1.6176,9.9535,56.4162,0.1784,0.7179,0.1444,349.77
18:47:41:380,-0.2881,1.7692,9.5531,56.3579,0.171,0.4592,0.2269,350.13
18:47:41:400,0.0561,1.4445,10.3395,56.2472,0.1848,-0.0348,0.2231,350.18
18:47:41:419,0.0487,0.6345,11.7125,56.131,0.238,-0.2413,0.2242,349.77
18:47:41:439,0.0615,-0.002,11.8491,56.0132,0.1864,-0.0497,0.2817,349.11
18:47:41:459,-0.1136,0.0394,11.2709,55.8697,-0.0025,0.1323,0.3796,348.71
18:47:41:480,0.1611,0.7167,11.3988,56.0092,-0.1335,0.1291,0.4238,348.61
18:47:41:500,0.4318,1.0912,11.4829,55.6735,-0.2155,0.078,0.2971,348.39
18:47:41:519,0.0217,0.8926,11.673,55.4602,-0.2693,-0.1338,0.1406,347.92
18:47:41:539,-0.6241,0.2895,12.503,55.5049,-0.2421,-0.3553,0.0741,347.38
18:47:41:559,-1.0451,-0.5294,13.4798,55.5262,-0.0563,-0.2807,0.1295,346.87
18:47:41:581,-1.3773,-1.0782,12.525,55.6301,0.2114,0.1004,0.2796,346.57
18:47:41:599,-1.1007,-1.034,9.6872,55.6907,0.2029,0.3506,0.3993,346.6
18:47:41:619,-0.6677,-0.6647,7.9455,55.7588,0.0043,0.1563,0.3706,346.79
18:47:41:639,-0.4608,-0.4191,8.0346,55.7233,-0.1931,-0.2344,0.2689,346.64
18:47:41:659,-0.3823,-0.3779,9.2248,55.6311,-0.1713,-0.5261,0.1875,345.98
18:47:41:681,-0.1605,-0.348,9.5561,55.6459,-0.0877,-0.4495,0.1326,345.22
18:47:41:704,0.0845,-0.1483,8.968,55.7747,-0.0542,-0.1599,0.0949,344.73
18:47:41:720,0.2832,0.1939,7.7718,55.7018,-0.0718,0.0424,0.0272,344.63
18:47:41:740,0.347,0.4074,7.0047,55.5283,-0.1106,0.0003,-0.084,344.73
18:47:41:760,0.2295,0.396,6.8992,55.6272,-0.1122,-0.1604,-0.1772,344.78
18:47:41:781,-0.1094,0.1576,7.1054,55.5915,-0.0893,-0.2445,-0.2054,344.72
18:47:41:803,-0.4667,-0.0845,7.2865,55.6276,-0.0776,-0.1727,-0.1282,344.7
18:47:41:820,-0.4332,0.055,7.1869,55.4452,-0.0899,-0.1045,-0.0244,344.86
18:47:41:839,-0.1383,0.4119,7.1847,55.5781,-0.1378,-0.1546,0.0054,345.16
18:47:41:859,0.0843,0.7748,7.6844,55.5317,-0.1841,-0.2712,-0.0201,345.36
18:47:41:881,0.231,1.0857,8.6617,55.5233,-0.1942,-0.3255,-0.0552,345.34
18:47:41:899,0.2392,1.3152,9.6887,55.5665,-0.1654,-0.2568,-0.0728,345.25
18:47:41:920,0.1999,1.5743,10.5871,55.5914,-0.0851,-0.0934,-0.0718,345.25
18:47:41:939,0.0707,1.8041,10.8714,55.5299,0.0033,0.1307,-0.0883,345.38
18:47:41:959,-0.2068,1.9417,10.7289,55.6281,-0.0084,0.3671,-0.1175,345.62
18:47:41:982,-0.3517,1.9001,10.5656,55.7425,-0.1074,0.4592,-0.1596,345.9
18:47:42:001,-0.6645,1.5578,11.1611,55.9113,-0.0994,0.2223,-0.1564,346.16
18:47:42:019,-1.0486,0.7895,12.0604,55.9015,0.064,-0.0774,-0.0414,346.33
18:47:42:039,-0.9886,0.0104,12.4683,55.9111,0.2466,-0.0992,0.1763,346.32
18:47:42:059,-0.2309,-0.2363,11.8224,55.7486,0.2631,0.1068,0.3179,346.31
18:47:42:080,0.4752,0.0796,10.9026,55.6889,0.0938,0.1733,0.2891,346.37
18:47:42:099,1.0238,0.3887,10.8391,55.918,-0.1106,0.0003,0.0629,346.33
18:47:42:120,0.5393,0.2945,11.581,55.7497,-0.183,-0.2999,-0.2336,345.97
18:47:42:140,-0.4541,-0.4933,12.7384,55.5831,-0.0361,-0.4133,-0.3741,345.46
18:47:42:159,-1.2084,-1.5677,12.6321,55.3272,0.237,-0.1737,-0.2309,345.16
18:47:42:181,-0.8896,-1.8917,10.8018,55.3041,0.5191,0.0882,0.1012,345.41
18:47:42:200,0.6707,-1.1799,8.1503,55.163,0.5255,0.0275,0.2583,346.09
18:47:42:219,2.0113,-0.0354,6.8936,55.1671,0.2338,-0.26,0.0528,346.61
18:47:42:240,2.0802,0.5387,7.613,55.3368,-0.1069,-0.5128,-0.3523,346.44
18:47:42:260,1.0411,0.1814,8.7605,55.1778,-0.2836,-0.5559,-0.6483,345.87
18:47:42:281,-0.0655,-0.362,9.5324,55.2744,-0.2911,-0.384,-0.6706,345.59
18:47:42:299,-0.6303,-0.6295,9.4925,55.2829,-0.1761,-0.0556,-0.4763,345.97
18:47:42:319,-0.6185,-0.4034,8.5351,55.3981,-0.068,0.2255,-0.191,346.88
18:47:42:339,-0.0824,0.2289,7.4924,55.5213,-0.0116,0.266,-0.0015,347.94
18:47:42:359,0.4233,0.9216,6.9953,55.4213,0.0038,0.201,0.0091,348.71
18:47:42:380,0.7392,1.232,6.9461,55.3713,-0.0547,0.3117,-0.0813,348.94
18:47:42:401,0.6931,1.2074,6.8354,55.4342,-0.1048,0.4097,-0.1484,348.88
18:47:42:419,0.4045,1.0482,6.5256,55.2346,-0.0984,0.2447,-0.1186,348.94
18:47:42:439,0.3902,1.0986,6.6848,54.9758,-0.0733,-0.1327,-0.0042,349.08
18:47:42:460,0.9505,1.4959,7.7784,54.7999,-0.0425,-0.3861,0.0267,349.1
18:47:42:481,1.3609,1.8306,9.1103,54.8561,-0.0505,-0.2392,-0.0867,348.94
18:47:42:504,1.0164,1.6801,9.7313,54.6113,-0.1213,0.1462,-0.2213,348.77
18:47:42:520,-0.0437,1.239,10.359,54.5691,-0.1676,0.4629,-0.1995,348.87
18:47:42:539,-0.7481,1.1542,10.8211,54.6574,-0.0345,0.6029,0.0363,349.26
18:47:42:559,-0.8143,1.6002,10.514,54.6581,0.1912,0.5087,0.2828,349.74
18:47:42:580,-0.3938,2.0284,10.1828,54.5557,0.3498,0.2377,0.3892,350.07
18:47:42:599,0.2432,2.0933,10.1715,54.5771,0.3333,0.0269,0.3067,349.96
18:47:42:619,0.5672,1.7627,10.8242,54.7224,0.164,-0.0385,0.0911,349.43
18:47:42:639,0.1966,0.9186,11.7836,54.6278,-0.0329,0.1318,-0.0946,348.81
18:47:42:659,-0.7594,0.1105,12.2604,54.6125,-0.2016,0.3777,-0.0733,348.39
18:47:42:680,-1.4585,0.205,12.7153,54.7733,-0.2352,0.4257,0.1284,348.39
18:47:42:699,-1.4696,0.4823,12.8909,54.6498,-0.1,0.2707,0.2758,348.64
18:47:42:720,-1.2775,0.4789,12.8587,54.42,0.0938,-0.0178,0.4355,348.72
18:47:42:740,-0.6657,0.61,12.9004,54.2175,0.271,-0.2222,0.5415,348.45
18:47:42:760,0.1598,0.4534,12.7482,53.9976,0.4425,-0.1727,0.4936,347.93
18:47:42:779,0.4814,-0.0844,11.4657,53.8096,0.5526,-0.0316,0.3674,347.31
18:47:42:799,0.4633,-0.5378,9.8378,53.4596,0.4893,0.0173,0.2375,346.78
18:47:42:819,0.2179,-0.8132,8.8764,53.1803,0.2955,-0.0886,0.1326,346.36
18:47:42:839,-0.033,-1.0234,9.038,52.9182,0.1337,-0.2355,0.0677,345.98
18:47:42:859,-0.2589,-1.1311,9.2898,52.4826,0.0725,-0.2972,0.0485,345.59
18:47:42:881,-0.5054,-1.0671,9.1392,52.2423,0.039,-0.2195,0.1023,345.32
18:47:42:948,-0.602,-0.8394,8.6327,51.9087,0.048,-0.1099,0.2082,345.21
18:47:42:948,-0.5053,-0.5313,7.8747,51.8406,0.0986,-0.0753,0.3461,345.23
18:47:42:948,-0.0028,-0.1138,6.9033,51.699,0.1523,-0.1934,0.4909,345.21
18:47:42:959,0.7573,0.5182,6.167,51.7096,0.1885,-0.4569,0.5516,345.01
18:47:42:981,1.3502,1.0753,5.8596,51.7683,0.1976,-0.7268,0.4765,344.54
18:47:43:000,1.5603,1.3752,6.0053,51.7714,0.114,-0.7902,0.3051,343.8
18:47:43:019,1.3319,1.488,6.4518,51.6916,-0.0318,-0.6113,0.1385,343.06
18:47:43:039,1.0899,1.5722,6.926,51.5814,-0.2022,-0.3478,-0.0073,342.55
18:47:43:059,0.6837,1.6095,7.564,51.546,-0.3214,-0.2083,-0.1255,342.4
18:47:43:080,0.1912,1.5159,8.33,51.6293,-0.3369,-0.268,-0.1692,342.46
18:47:43:099,-0.0769,1.4887,9.316,51.7789,-0.2645,-0.3968,-0.1324,342.58
18:47:43:119,0.044,1.6235,10.2414,51.5724,-0.1521,-0.3819,-0.0877,342.71
18:47:43:142,0.2638,1.949,10.5977,51.685,-0.051,-0.1807,-0.0723,342.86
18:47:43:159,0.366,2.3174,10.1038,51.7738,-0.0196,0.0642,-0.0978,343.1
18:47:43:179,0.4451,2.5527,9.8298,51.7642,-0.0244,0.1031,-0.1591,343.42
18:47:43:199,0.6104,2.4786,10.1964,51.8513,-0.0276,0.0253,-0.2442,343.71
18:47:43:220,0.5653,1.9063,11.0519,52.1006,-0.0478,0.0461,-0.3134,343.85
18:47:43:239,0.2692,0.9022,11.6179,52.1407,-0.0345,0.1185,-0.2623,343.98
18:47:43:261,0.4793,0.1525,11.4801,52.2689,-0.0728,0.2558,-0.1207,344.27
18:47:43:282,1.0195,-0.1886,10.7415,52.0843,-0.2703,0.2313,-0.0212,344.68
18:47:43:300,1.686,-0.0258,10.8854,52.2403,-0.4657,-0.1482,-0.0116,345.04
18:47:43:319,1.7689,0.0406,12.6332,52.2719,-0.4705,-0.631,-0.1527,345.06
18:47:43:339,1.1125,-0.4616,14.2775,52.2459,-0.274,-0.5767,-0.2102,344.72
18:47:43:360,0.6452,-1.0569,14.2865,52.3649,0.0922,-0.0486,-0.0537,344.4
18:47:43:385,1.1322,-0.8977,11.5811,52.3293,0.3403,0.4656,0.1284,344.74
18:47:43:399,2.2174,-0.4026,8.8348,52.0689,0.3285,0.4028,0.0815,345.52
18:47:43:419,2.7037,0.0248,7.6722,51.8925,0.1236,-0.0167,-0.1931,346.03
18:47:43:439,2.2603,-0.0447,8.6127,51.6775,-0.1255,-0.2935,-0.512,345.8
18:47:43:459,1.1274,-0.6691,9.7932,52.0116,-0.2634,-0.2387,-0.6642,345.32
18:47:43:480,-0.068,-1.149,10.2329,52.0304,-0.2458,-0.0417,-0.5423,345.29
18:47:43:499,-0.481,-1.053,9.613,51.8849,-0.1489,0.226,-0.2735,345.92
18:47:43:520,-0.2359,-0.437,8.3614,51.8913,-0.0845,0.382,-0.0063,346.84
18:47:43:540,0.2353,0.3709,7.3207,51.7922,-0.0276,0.2926,0.1417,347.68
18:47:43:559,0.6595,0.9958,6.7951,51.567,0.0475,0.1488,0.1715,348.09
18:47:43:581,0.9522,1.4478,6.4647,51.7165,0.1049,0.1169,0.1241,348.01
18:47:43:599,1.0657,1.6889,6.2296,51.7829,0.1113,0.168,0.0198,347.74
18:47:43:619,0.9833,1.721,6.1377,51.8989,0.0682,0.1941,-0.101,347.53
18:47:43:639,0.6264,1.6173,6.4691,51.6599,0.0262,0.1664,-0.1681,347.43
18:47:43:659,0.4179,1.5537,6.9654,51.6457,-0.0084,0.1297,-0.166,347.41
18:47:43:679,0.5286,1.7232,7.7842,51.5159,-0.0478,0.0615,-0.1681,347.48
18:47:43:701,0.6522,1.7972,9.0333,51.4572,-0.034,0.0493,-0.1958,347.63
18:47:43:719,0.6114,1.7372,9.9338,51.3726,-0.026,0.2441,-0.1931,347.75
18:47:43:739,0.4868,1.7309,10.2082,51.6849,-0.0377,0.5151,-0.1351,347.93
18:47:43:760,0.5709,1.5953,10.1046,51.647,-0.0382,0.6657,-0.0537,348.3
18:47:43:780,0.3449,1.5497,10.1021,51.6231,-0.0153,0.6173,0.0858,348.7
18:47:43:800,0.2993,1.7107,10.6499,51.4492,0.056,0.3831,0.2285,348.92
18:47:43:826,0.3498,1.8077,10.9991,51.2636,0.1326,0.1488,0.2961,348.9
18:47:43:840,0.8625,1.492,10.8401,51.2845,0.0097,0.0434,0.1944,348.59
18:47:43:860,0.8441,0.9416,11.5734,51.2636,-0.2597,-0.129,0.056,348.13
18:47:43:880,0.3743,0.389,13.3262,51.2529,-0.3853,-0.1732,-0.0361,347.69
18:47:43:900,-0.4147,-0.2358,14.2878,51.2533,-0.3752,-0.0417,-0.0861,347.28
18:47:43:920,-1.2504,-0.9028,14.3872,51.1559,-0.2836,0.1408,0.0006,347.17
18:47:43:940,-1.7078,-1.3741,14.0262,51.1329,-0.0776,0.2117,0.1944,347.33
18:47:43:959,-1.6461,-1.6669,12.797,51.0131,0.2018,0.3022,0.4228,347.58
18:47:43:980,-1.2576,-1.421,10.5053,51.1121,0.2838,0.39,0.5974,347.66
18:47:43:999,-0.7073,-0.9795,8.6548,51.3259,0.1949,0.2457,0.6554,347.55
18:47:44:019,-0.2106,-0.5445,8.0908,51.0804,0.0815,-0.1061,0.6298,347.12
18:47:44:039,0.1307,-0.1994,8.7472,51.1604,0.0666,-0.4463,0.5521,346.29
18:47:44:059,0.3738,0.0103,9.2295,51.0792,0.0752,-0.4772,0.4377,345.25
18:47:44:079,0.4212,0.1662,9.1773,50.9045,0.0629,-0.2562,0.3333,344.29
18:47:44:099,0.3223,0.3245,8.5933,50.6993,0.0576,-0.054,0.2476,343.67
18:47:44:120,0.2298,0.3921,7.7759,50.7222,0.0704,0.0392,0.1949,343.36
18:47:44:139,0.1884,0.4243,7.041,50.6516,0.0778,0.0158,0.1816,343.14
18:47:44:159,0.2497,0.499,6.5326,50.7362,0.0815,-0.0753,0.1822,342.94
18:47:44:179,0.3579,0.6112,6.3255,50.4784,0.0805,-0.1732,0.1715,342.7
18:47:44:202,0.4914,0.6871,6.2854,50.6838,0.0554,-0.2488,0.146,342.42
18:47:44:219,0.6755,0.8361,6.5718,50.5761,0.0155,-0.2845,0.0991,342.15
18:47:44:239,0.9977,1.091,6.9411,50.5479,-0.0292,-0.3238,0.0091,341.91
18:47:44:259,1.1653,1.3593,7.5207,50.7653,-0.0526,-0.3808,-0.1378,341.72
18:47:44:279,1.1036,1.4352,8.0706,51.0477,-0.0728,-0.4037,-0.2873,341.59
18:47:44:299,0.9703,1.4073,8.667,50.9329,-0.1122,-0.3462,-0.3901,341.57
18:47:44:319,0.7532,1.434,9.3151,50.9677,-0.1468,-0.1913,-0.4364,341.74
18:47:44:340,0.6651,1.7458,9.9947,51.1915,-0.24,0.1265,-0.5104,342.14
18:47:44:361,0.7011,1.8138,10.673,51.3956,-0.3858,0.5561,-0.6419,342.71
18:47:44:380,0.3718,1.4938,11.4166,51.453,-0.4007,0.7626,-0.7313,343.43
18:47:44:401,-0.4864,0.6851,11.3786,51.5133,-0.274,0.5039,-0.7228,344.29
18:47:44:420,-1.5632,-0.6168,11.7577,51.7272,-0.1495,-0.0108,-0.4875,345.15
18:47:44:440,-1.448,-1.3757,12.1435,51.6038,0.0033,-0.2232,-0.0185,345.8
18:47:44:460,-0.4808,-0.971,11.2764,51.4632,-0.0616,-0.3606,0.2753,346.25
18:47:44:480,0.5948,-0.1548,11.3982,51.4201,-0.3081,-0.6432,0.2189,346.67
18:47:44:499,0.5827,-0.1852,13.3334,51.5668,-0.4689,-0.8924,-0.0233,346.57
18:47:44:519,-0.169,-1.0494,15.3806,51.5529,-0.3709,-0.7263,-0.0712,346
18:47:44:539,-0.7112,-1.6848,15.7367,51.5711,0.065,-0.1572,0.2152,345.54
18:47:44:559,0.1213,-1.4123,12.9223,51.5731,0.4749,0.3889,0.5553,345.73
18:47:44:582,1.8394,-0.6027,9.4879,51.5357,0.6043,0.3884,0.6208,346.37
18:47:44:600,3.1609,0.2063,7.6387,51.6178,0.4659,-0.0076,0.3285,346.64
18:47:44:619,3.233,0.466,7.8297,51.6075,0.2178,-0.2382,-0.1239,346.02
18:47:44:639,2.0088,0.0398,8.6905,51.6566,0.1332,-0.2179,-0.4412,344.98
18:47:44:661,0.7552,-0.5303,8.6908,51.8691,0.1619,0.0216,-0.4902,344.39
18:47:44:680,0.0534,-0.675,7.858,51.9506,0.2029,0.3389,-0.3395,344.55
18:47:44:699,-0.0246,-0.2403,6.7682,51.7226,0.2242,0.4507,-0.1622,345.28
18:47:44:721,0.2801,0.3566,5.8396,51.3516,0.2205,0.316,-0.0813,346.05
18:47:44:739,0.5113,0.7366,5.4812,51.0637,0.1832,0.1244,-0.0936,346.49
18:47:44:759,0.6272,0.9517,5.4964,51.0019,0.0986,0.0493,-0.1468,346.54
18:47:44:779,0.5597,1.07,5.6988,50.6912,-0.0318,0.0658,-0.2011,346.47
18:47:44:799,0.3327,1.1448,6.1548,50.5667,-0.1591,0.0232,-0.2229,346.49
18:47:44:819,0.3016,1.3083,7.1935,50.4946,-0.2229,-0.0981,-0.1873,346.63
18:47:44:839,0.5102,1.5432,8.4252,50.2558,-0.2155,-0.1769,-0.1676,346.8
18:47:44:859,0.544,1.687,9.4191,49.94,-0.1383,-0.1668,-0.1596,346.94
18:47:44:879,0.3466,1.7551,9.9885,49.7347,-0.0766,-0.0034,-0.1175,347.1
18:47:44:901,0.3024,1.8607,10.3055,49.5692,-0.0691,0.2936,-0.0345,347.34
18:47:44:919,0.1875,2.0516,10.4619,49.6744,-0.0127,0.5534,0.0778,347.67
18:47:44:939,0.1159,2.0957,9.9546,49.4556,0.0618,0.6828,0.1811,348.02
18:47:45:004,0.1586,2.0847,9.4933,49.3502,0.0469,0.4821,0.237,348.24
18:47:45:004,0.4221,1.7389,10.4096,49.0407,0.0501,0.0823,0.2018,348.23
18:47:45:005,0.6102,1.1138,11.7764,48.7377,0.0858,-0.0556,0.105,347.82
18:47:45:019,0.6687,0.3548,12.0737,48.3649,-0.0169,0.1568,0.0187,347.23
18:47:45:039,0.3705,-0.0721,12.1107,47.9823,-0.2144,0.2521,0.0022,346.9
18:47:45:060,0.2399,-0.1638,12.9534,47.7062,-0.2671,0.1105,0.0182,346.93
18:47:45:079,0.0951,-0.334,13.7233,47.6266,-0.1681,-0.0763,0.0145,346.92
18:47:45:100,-0.2333,-0.665,14.0443,47.381,-0.043,-0.1365,0.0602,346.79
18:47:45:119,-0.5431,-1.0499,13.9317,47.0215,0.188,-0.0465,0.155,346.64
18:47:45:139,-0.5481,-1.4927,12.2159,46.6795,0.3818,0.2766,0.2897,346.61
18:47:45:159,-0.3479,-1.2831,9.4387,46.3085,0.3408,0.4634,0.4206,346.67
18:47:45:179,0.0835,-0.7594,7.3727,46.1317,0.1444,0.1126,0.4297,346.77
18:47:45:199,0.2609,-0.3738,7.5853,45.8277,-0.0787,-0.5192,0.3541,346.54
18:47:45:219,0.4816,-0.2138,9.5464,45.6706,-0.0978,-0.8248,0.2679,345.72
18:47:45:239,0.8153,0.0198,10.946,45.5174,-0.068,-0.6299,0.1321,344.71
18:47:45:259,1.0255,0.3938,11.4441,45.2321,0.0294,-0.0731,-0.0281,344.12
18:47:45:280,0.6375,0.5144,9.8532,45.0057,0.0767,0.4267,-0.191,344.03
18:47:45:302,0.1317,0.3782,8.06,44.9066,0.0453,0.6343,-0.2447,344.36
18:47:45:320,-0.1407,0.3434,6.9601,44.6044,0.0251,0.5779,-0.2197,344.79
18:47:45:340,-0.3233,0.331,6.3262,44.6512,0.0661,0.3527,-0.1521,345.12
18:47:45:361,-0.3137,0.3336,5.969,44.1898,0.106,0.0791,-0.0728,345.31
18:47:45:380,-0.2034,0.4097,6.0981,44.0091,0.1167,-0.1413,-0.0297,345.36
18:47:45:399,-0.1539,0.4679,6.4217,43.3548,0.0948,-0.244,-0.0222,345.32
18:47:45:419,-0.1269,0.5563,6.8044,42.9696,0.0241,-0.2733,-0.0175,345.23
18:47:45:439,-0.1262,0.7234,7.3514,42.6054,-0.0547,-0.2924,-0.0116,345.2
18:47:45:459,-0.1598,0.9689,8.0548,42.2452,-0.0877,-0.2807,0.0161,345.21
18:47:45:479,-0.1482,1.2798,8.6648,42.0042,-0.0585,-0.2083,0.0602,345.21
18:47:45:500,-0.1233,1.6617,8.7157,41.7059,-0.0223,-0.0827,0.1028,345.25
18:47:45:519,-0.1066,1.9586,8.4564,41.4383,-0.0904,-0.0385,0.1343,345.31
18:47:45:539,0.2026,2.0851,8.9112,41.3171,-0.1937,-0.1429,0.1247,345.36
18:47:45:561,0.3882,1.9429,9.9319,41.2392,-0.2543,-0.3042,0.0507,345.26
18:47:45:579,0.4593,1.2539,11.2862,41.5128,-0.3347,-0.4165,-0.0542,345
18:47:45:600,0.1823,0.2055,12.8491,41.4995,-0.3406,-0.3696,-0.0302,344.74
18:47:45:619,0.2947,-0.565,12.9382,41.7155,-0.2868,-0.0423,0.106,344.6
18:47:45:639,0.7779,-0.7287,11.3617,41.7572,-0.4146,0.2159,0.1667,344.71
18:47:45:660,1.1668,-0.6891,10.557,41.746,-0.6429,0.0663,0.0688,345.01
18:47:45:680,0.6163,-0.8712,11.7507,41.6997,-0.7451,-0.3792,-0.0739,345.05
18:47:45:700,-0.2882,-1.6708,13.6214,41.7072,-0.4758,-0.6204,-0.0201,344.67
18:47:45:720,-0.532,-2.1464,14.0199,41.539,-0.0675,-0.3547,0.2631,344.23
18:47:45:740,0.6018,-1.5051,12.1691,41.2989,0.246,0.0791,0.5234,344.22
18:47:45:760,2.308,-0.2483,9.7491,40.9852,0.3834,0.0056,0.451,344.56
18:47:45:781,3.4362,0.6858,8.2858,41.0002,0.2301,-0.3159,0.0182,344.66
18:47:45:800,3.0076,0.8417,9.1666,40.3595,-0.0962,-0.5496,-0.5413,344.05
18:47:45:819,1.5311,-0.0014,10.954,39.911,-0.166,-0.5352,-0.9048,343.27
18:47:45:839,-0.2403,-1.0038,11.6749,39.7403,-0.018,-0.2578,-0.8878,342.99
18:47:45:859,-1.1377,-1.414,10.7485,39.4638,0.1608,0.192,-0.5801,343.62
18:47:45:879,-0.9343,-0.8902,8.9721,39.2102,0.2215,0.6082,-0.2288,344.92
18:47:45:904,-0.308,-0.0201,7.2664,39.1035,0.2173,0.703,-0.0675,346.32
18:47:45:919,0.0558,0.4868,6.2582,38.91,0.2221,0.5481,-0.0435,347.3
18:47:45:939,0.1788,0.6135,5.8374,38.8503,0.2455,0.3203,-0.0244,347.61
18:47:45:959,0.157,0.6393,5.5757,38.1417,0.238,0.1366,0.0283,347.56
18:47:45:981,0.2827,0.6963,5.7349,38.0794,0.1763,-0.0662,0.0815,347.44
18:47:46:001,0.5183,0.7587,6.6204,37.943,0.1278,-0.2307,0.1428,347.32
18:47:46:019,1.0448,1.0044,7.7401,37.4878,0.1199,-0.244,0.1704,347.11
18:47:46:039,1.5763,1.2461,8.4714,37.4461,0.105,-0.1391,0.1119,346.88
18:47:46:059,1.8216,1.4016,8.9935,36.943,0.0554,0.0078,0.0022,346.71
18:47:46:079,1.8635,1.4078,9.5525,36.7479,-0.0095,0.1281,-0.101,346.61
18:47:46:100,1.4698,1.3639,10.1689,36.2747,-0.0191,0.2149,-0.1165,346.58
18:47:46:119,1.0217,1.5024,10.5367,35.8532,0.0517,0.3245,-0.0356,346.66
18:47:46:139,1.0217,1.7699,10.207,35.7639,0.1252,0.3628,0.0432,346.83
18:47:46:159,1.4554,2.048,9.7461,35.5742,0.1438,0.2617,0.0257,347.05
18:47:46:179,1.9559,1.8762,9.8359,35.2664,0.0948,0.0307,-0.1314,347.12
18:47:46:200,1.9427,1.0089,10.4735,34.9885,-0.0781,-0.0689,-0.3246,346.98
18:47:46:219,1.087,-0.0546,11.4642,34.4448,-0.2905,-0.1088,-0.3858,346.77
18:47:46:239,-0.0138,-0.8881,12.9751,34.1725,-0.34,-0.1296,-0.2267,346.81
18:47:46:260,-0.1634,-1.0268,13.9422,33.8943,-0.2251,-0.0396,0.0065,347.1
18:47:46:280,0.3082,-0.727,13.7035,33.6997,-0.1234,0.0115,0.0922,347.51
18:47:46:300,0.3081,-0.6029,13.661,33.6606,-0.034,-0.0742,0.0411,347.87
18:47:46:319,-0.3245,-1.0854,13.5271,33.4471,0.2029,0.0599,0.0496,347.92
18:47:46:339,-0.9001,-1.4307,11.2178,33.204,0.3536,0.4496,0.2003,347.78
18:47:46:360,-1.0349,-1.0059,8.4449,33.0868,0.2748,0.5656,0.3626,347.89
18:47:46:380,-0.7126,-0.4089,6.848,33.0423,0.0661,0.1813,0.4015,348.15
18:47:46:400,-0.3393,0.0224,7.2835,32.8216,-0.0813,-0.466,0.3615,347.96
18:47:46:420,0.0329,0.233,8.524,32.8241,-0.0851,-0.9243,0.2785,347.18
18:47:46:440,0.3519,0.3079,9.4403,32.8969,-0.1016,-0.9041,0.1539,346.2
18:47:46:460,0.3003,0.2306,9.8253,32.9468,-0.1314,-0.5778,0.0517,345.47
18:47:46:480,0.0601,0.0412,9.6972,32.9606,-0.1229,-0.145,0.0395,345.21
18:47:46:500,-0.1581,-0.1032,8.9797,32.895,-0.0377,0.1824,0.1412,345.31
18:47:46:519,-0.0018,0.0073,7.787,32.6576,0.0645,0.2723,0.2545,345.59
18:47:46:539,0.3353,0.3246,7.1037,32.6521,0.1502,0.1781,0.3019,345.82
18:47:46:559,0.6246,0.5444,6.7271,32.6052,0.2194,0.0541,0.2897,345.74
18:47:46:579,0.8525,0.7662,6.5161,32.7868,0.2082,-0.0252,0.2221,345.39
18:47:46:600,0.8641,0.8933,6.6722,32.8655,0.1097,-0.0332,0.1034,344.97
18:47:46:619,0.683,0.8646,7.1034,32.7718,-0.0121,-0.0156,0.0017,344.58
18:47:46:639,0.4708,0.8652,7.9579,32.8103,-0.1101,0.0051,-0.0467,344.29
18:47:46:659,0.2701,1.0054,8.9306,32.5991,-0.1197,-0.0359,-0.0702,344.16
18:47:46:679,0.0635,1.1077,9.7822,32.7191,-0.0579,-0.0417,-0.0696,344.14
18:47:46:700,-0.0309,1.3021,10.1984,32.7988,-0.0143,0.0972,-0.0249,344.16
18:47:46:719,0.0864,1.6499,10.3749,32.7961,0.0075,0.2415,-0.0025,344.26
18:47:46:740,0.218,1.6766,10.4112,32.9325,0.0411,0.1552,-0.0329,344.46
18:47:46:760,0.2073,0.8648,10.9661,32.72,0.1241,-0.2057,-0.0638,344.59
18:47:46:779,0.668,-0.6337,11.6539,32.6217,0.1965,-0.573,-0.0201,344.54
18:47:46:800,1.5335,-1.8752,12.4396,32.7126,0.1385,-0.4191,0.1044,344.33
18:47:46:819,1.9863,-2.3119,12.1752,32.3756,-0.0153,0.177,0.2955,344.17
18:47:46:840,1.927,-1.5373,10.743,32.3731,-0.2362,0.5151,0.4425,344.31
18:47:46:860,1.8118,-0.6127,9.5167,32.1774,-0.4385,0.2872,0.3301,344.58
18:47:46:880,0.7975,0.0004,9.8003,32.2324,-0.6046,-0.3297,0.1822,344.39
18:47:46:900,0.3992,-0.1798,12.0015,32.3277,-0.5115,-0.7683,0.1428,343.63
18:47:46:919,0.6549,-0.4444,13.6096,32.1581,-0.1559,-0.6267,0.1896,342.74
18:47:46:939,1.2902,-0.3028,12.9933,32.2127,0.2418,-0.1226,0.278,342.25
18:47:46:959,2.2049,0.6136,10.6648,32.2414,0.4116,0.2404,0.238,342.33
18:47:46:979,3.2777,1.3195,8.6402,32.1387,0.3179,0.2494,-0.1575,342.63
18:47:47:001,3.0395,1.2236,7.8166,32.1766,0.0778,0.0131,-0.7292,342.63
18:47:47:067,1.8461,0.1812,8.5199,32.2455,-0.0558,-0.2616,-1.0864,342.35
18:47:47:067,0.5822,-0.7771,9.1026,32.36,-0.0382,-0.3361,-1.1007,342.31
18:47:47:067,-0.1553,-1.2561,9.3618,32.3539,0.0352,-0.1386,-0.8676,342.93
18:47:47:079,-0.2058,-1.1765,8.865,32.4426,0.0698,0.2537,-0.5264,344.15
18:47:47:100,0.2141,-0.4557,7.869,32.504,0.0523,0.5066,-0.2048,345.59
18:47:47:119,0.9963,0.3525,7.0371,32.62,0.0581,0.4299,-0.0904,346.87
18:47:47:140,1.2779,0.9117,6.7341,32.5965,0.1055,0.2771,-0.1277,347.63
18:47:47:160,1.3635,1.1562,6.6168,32.6287,0.171,0.135,-0.2181,347.78
18:47:47:180,1.2226,1.2272,6.7466,32.74,0.1683,0.0344,-0.3022,347.76
18:47:47:201,1.05,1.1348,7.007,32.6669,0.0869,0.0541,-0.348,347.82
18:47:47:220,0.8307,1.0849,7.5177,32.7354,-0.0217,0.0929,-0.3501,347.99
18:47:47:240,0.8638,1.2079,8.3272,32.4418,-0.0638,0.0983,-0.332,348.33
18:47:47:260,0.9373,1.4651,9.1806,32.3232,-0.001,0.1009,-0.339,348.73
18:47:47:280,0.9145,1.6782,9.7467,32.1158,0.1103,0.1898,-0.3454,349.12
18:47:47:301,0.6941,1.7644,9.8011,31.9816,0.1928,0.3671,-0.3139,349.51
18:47:47:319,0.4557,1.8124,9.4494,31.7879,0.1901,0.5268,-0.2373,349.99
18:47:47:339,0.3297,1.7901,9.2962,31.8302,0.1337,0.4709,-0.1383,350.53
18:47:47:359,0.3077,1.4919,9.7017,31.7341,0.0762,0.1978,-0.0792,350.97
18:47:47:379,0.265,0.9952,10.9588,31.6924,0.0528,-0.1508,-0.06,351.14
18:47:47:401,0.1944,0.2963,12.0121,31.5744,0.0416,-0.0955,-0.0004,351.05
18:47:47:420,-0.2591,0.196,11.9133,31.6345,-0.0425,0.0418,0.1348,350.86
18:47:47:440,-0.1952,0.6018,12.1637,31.5759,-0.15,0.0573,0.2727,350.97
18:47:47:460,0.2284,0.9514,12.6095,31.5853,-0.1756,0.0919,0.2774,351.06
18:47:47:479,0.0586,0.849,12.5729,31.456,-0.1404,0.012,0.1816,350.88
18:47:47:501,-0.5674,0.1876,12.4876,31.6111,-0.0936,-0.1088,0.1582,350.58
18:47:47:519,-0.9163,-0.6909,12.2686,31.4805,0.0416,-0.0939,0.2365,350.21
18:47:47:540,-0.9863,-1.3727,10.9617,31.4666,0.1672,0.0136,0.3887,349.93
18:47:47:559,-0.7764,-1.619,9.145,31.3065,0.114,-0.0295,0.5771,349.79
18:47:47:579,-0.2786,-1.2732,8.1731,31.2396,-0.1181,-0.2743,0.7022,349.62
18:47:47:600,0.4782,-0.84,8.3636,31.1554,-0.3507,-0.4505,0.7044,349.12
18:47:47:619,1.0575,-0.4884,9.2468,30.8922,-0.4226,-0.4926,0.6101,348.22
18:47:47:639,1.4508,-0.1197,9.9292,30.7585,-0.3337,-0.3776,0.4893,347.23
18:47:47:659,1.4755,0.1963,9.8555,30.6508,-0.1639,-0.1296,0.3525,346.4
18:47:47:679,1.1608,0.286,8.8147,30.41,-0.0829,-0.0093,0.2301,345.84
18:47:47:700,0.6812,0.2442,8.2895,30.1229,-0.059,0.0296,0.2146,345.54
18:47:47:721,0.4047,0.2721,7.8901,29.8861,0.0203,0.0083,0.2695,345.26
18:47:47:739,0.4635,0.486,7.4316,29.8609,0.1204,0.0152,0.3232,345.03
18:47:47:759,0.6382,0.8019,6.9058,29.735,0.1779,0.044,0.312,344.79
18:47:47:779,0.8621,1.1289,6.4177,29.6709,0.1459,0.0504,0.212,344.52
18:47:47:800,0.9429,1.2772,6.2625,29.6475,0.0256,-0.0055,0.0485,344.19
18:47:47:819,0.7516,1.1742,6.7509,29.4355,-0.0925,-0.1556,-0.0978,343.83
18:47:47:839,0.4116,0.9537,7.7476,29.1395,-0.1447,-0.277,-0.1638,343.51
18:47:47:860,0.2156,0.7616,8.8043,28.9737,-0.1191,-0.2743,-0.1633,343.31
18:47:47:880,0.1546,0.2795,9.4711,28.8863,-0.0675,-0.1248,-0.1223,343.33
18:47:47:900,-0.0054,-0.1991,9.3298,28.8182,-0.0787,0.0701,0.0033,343.54
18:47:47:920,0.4895,-0.3701,9.3195,28.5735,-0.1585,0.0562,0.1167,343.86
18:47:47:944,1.0278,-0.3689,9.9421,28.3266,-0.2352,-0.1434,0.1167,344.14
18:47:47:959,1.4719,-0.2953,10.9215,28.1922,-0.2852,-0.3148,0.048,344.09
18:47:47:979,1.5905,-0.3628,11.8819,28.1304,-0.2857,-0.2616,-0.0153,343.78
18:47:48:000,1.3765,-0.3029,12.1331,28.0864,-0.2464,-0.0646,0.0182,343.51
18:47:48:019,1.5811,0.0696,11.8725,28.2926,-0.1926,0.0972,0.064,343.5
18:47:48:039,2.1324,0.6655,11.4892,28.3135,-0.249,0.0589,-0.0584,343.68
18:47:48:059,2.612,1.1051,11.7694,28.3222,-0.4007,-0.2893,-0.3661,343.79
18:47:48:079,2.249,0.9773,13.7712,28.2163,-0.4529,-0.6342,-0.7356,343.68
18:47:48:099,1.2173,-0.1421,15.6563,28.385,-0.2107,-0.4463,-0.9,343.45
18:47:48:119,0.22,-1.439,15.2968,28.7399,0.2652,0.2835,-0.7121,343.61
18:47:48:139,0.2938,-1.9874,11.9952,28.8775,0.6729,0.8632,-0.3427,344.68
18:47:48:160,1.5473,-1.8804,8.3442,29.2028,0.7725,0.6897,-0.1819,346.42
18:47:48:184,2.2719,-1.392,6.3807,29.3479,0.509,0.1707,-0.3113,347.79
18:47:48:204,1.8984,-0.7667,6.7301,29.4942,0.0725,-0.2328,-0.496,348.08
18:47:48:219,1.366,-0.8402,8.5837,29.8356,-0.0893,-0.2887,-0.6318,347.83
18:47:48:239,0.4315,-1.0631,9.1805,29.8141,-0.0175,-0.1168,-0.5546,347.77
18:47:48:259,-0.0567,-0.8725,8.4176,30.1779,0.098,0.0413,-0.3294,348.26
18:47:48:279,0.1579,-0.2831,7.4704,30.1593,0.1374,0.0972,-0.1473,349.15
18:47:48:299,0.7304,0.3445,6.7942,30.2411,0.1097,0.1036,-0.0781,349.93
18:47:48:319,1.122,0.758,6.5385,30.1973,0.0783,0.0748,-0.1133,350.35
18:47:48:341,1.1766,0.9731,6.5175,30.202,0.0533,0.0567,-0.1862,350.51
18:47:48:359,1.0649,1.0641,6.6039,30.4359,-0.0228,0.0514,-0.2666,350.58
18:47:48:379,0.7695,1.0969,6.9916,30.5707,-0.1218,0.0466,-0.315,350.69
18:47:48:399,0.5348,1.027,7.7386,30.6394,-0.1841,0.0541,-0.3038,350.87
18:47:48:421,0.2938,1.0215,8.4832,30.7252,-0.1713,0.0722,-0.2517,351.15
18:47:48:439,0.2388,1.0817,8.9831,30.871,-0.1085,0.0674,-0.1755,351.5
18:47:48:459,0.3295,1.1739,9.2793,31.0258,-0.0473,0.0514,-0.0909,351.88
18:47:48:479,0.3828,1.1813,9.7275,31.2332,0.0049,0.077,0.0134,352.16
18:47:48:500,0.5679,1.4284,10.1107,31.5061,0.0922,0.1488,0.1332,352.36
18:47:48:521,0.8672,1.7915,9.9897,31.5179,0.172,0.299,0.2157,352.49
18:47:48:539,1.2253,2.1216,9.6625,31.6116,0.1907,0.3682,0.1997,352.54
18:47:48:559,1.4743,1.929,9.1853,31.7464,0.1321,0.2079,0.0922,352.51
18:47:48:579,1.3908,1.1138,8.4861,31.7941,-0.1436,-0.1578,0.0113,352.31
18:47:48:599,1.2835,0.6185,10.0211,32.0052,-0.3986,-0.5756,0.0209,351.93
18:47:48:619,1.5057,0.1381,11.9556,32.1783,-0.3331,-0.6794,0.0278,351.49
18:47:48:639,1.3687,-0.0535,13.0382,32.5157,-0.1383,-0.401,0.0789,351.1
18:47:48:659,1.6319,0.1754,12.577,32.8402,-0.1484,0.0653,0.1007,351.03
18:47:48:679,1.9595,0.746,12.4714,32.9977,-0.3438,0.4235,-0.0467,351.28
18:47:48:701,1.2484,0.4873,12.9374,33.4765,-0.3512,0.4209,-0.2676,351.55
18:47:48:722,-0.2266,-0.4242,13.3163,33.8407,-0.1032,0.3022,-0.2719,351.66
18:47:48:739,-1.3094,-1.3243,12.4524,34.0327,0.2034,0.3442,-0.0627,351.71
18:47:48:759,-1.5404,-1.5325,10.5608,34.3913,0.2918,0.4182,0.2013,351.99
18:47:48:779,-1.117,-1.4733,9.0831,34.8248,0.1598,0.2324,0.3562,352.4
18:47:48:799,-0.7003,-1.358,8.9902,35.2574,-0.0105,-0.211,0.4153,352.53
18:47:48:821,-0.3828,-1.217,10.1481,35.4825,-0.0254,-0.6629,0.4627,352.12
18:47:48:839,0.1779,-0.9708,11.0818,35.4169,0.0837,-0.681,0.4904,351.34
18:47:48:859,0.6168,-0.6796,10.638,35.5895,0.2088,-0.2951,0.5117,350.52
18:47:48:879,0.8342,-0.273,9.0187,35.7191,0.2551,0.0887,0.525,350.01
18:47:48:901,1.1114,0.0937,7.3486,35.7576,0.2295,0.1148,0.5063,349.77
18:47:48:921,1.3407,0.3821,6.6594,35.9475,0.2183,-0.1604,0.4712,349.49
18:47:48:939,1.5003,0.5272,6.6723,36.0568,0.2556,-0.4085,0.426,348.89
18:47:48:961,1.5927,0.5588,6.5122,36.2694,0.2407,-0.3936,0.377,348.1
18:47:48:980,1.623,0.8676,6.2908,36.1992,0.0863,-0.2184,0.2593,347.39
18:47:49:000,1.4243,0.9789,6.8473,36.2106,-0.0382,-0.0774,0.0826,346.93
18:47:49:019,1.1605,0.7369,7.4583,36.5335,-0.0483,-0.0167,-0.0244,346.59
18:47:49:040,0.7965,0.5307,7.99,36.6206,-0.0467,-0.0124,-0.0515,346.37
18:47:49:059,0.627,0.6171,8.6656,36.7053,-0.0159,-0.0721,-0.0196,346.33
18:47:49:118,0.8704,0.882,9.6045,36.9891,0.0927,-0.0939,-0.0137,346.37
18:47:49:118,1.0288,1.1714,9.9079,37.2329,0.2008,0.0354,-0.067,346.39
18:47:49:122,0.9267,1.3198,9.602,37.5406,0.1497,0.2468,-0.1479,346.44
18:47:49:139,0.8191,1.1536,9.7512,37.5517,0.0241,0.3208,-0.216,346.6
18:47:49:159,0.7078,0.5063,10.4438,37.8215,-0.0372,0.2111,-0.2378,346.82
18:47:49:179,0.5471,-0.3344,11.0381,38.3003,-0.0941,-0.0518,-0.1857,347
18:47:49:202,0.5484,-1.11,12.2653,38.4741,-0.1122,-0.1572,-0.0201,347.13
18:47:49:222,1.1356,-1.4719,12.3442,38.7361,-0.1436,0.0674,0.1502,347.18
18:47:49:240,1.3644,-1.0454,11.3637,38.8884,-0.3502,0.1616,0.2189,347.3
18:47:49:259,1.2308,-0.4033,11.4244,39.062,-0.5397,-0.0981,0.2003,347.47
18:47:49:279,0.9468,-0.1636,12.8065,39.2723,-0.4013,-0.4277,0.1507,347.3
18:47:49:301,0.8906,-0.554,13.3864,39.365,-0.0244,-0.3728,0.1518,346.78
18:47:49:319,1.1554,-0.7811,12.0064,39.6242,0.2349,-0.0242,0.1742,346.36
18:47:49:339,1.8391,-0.752,10.0456,39.8001,0.2987,0.1393,0.1098,346.36
18:47:49:359,2.6062,-0.5524,8.9196,39.8329,0.2748,0.0024,-0.0297,346.53
18:47:49:379,3.244,-0.1703,8.5369,40.0439,0.1688,-0.112,-0.2969,346.48
18:47:49:399,2.99,-0.1326,8.8179,40.3137,0.0656,-0.0758,-0.6211,346.25
18:47:49:422,2.0729,-0.4925,9.0106,40.756,0.0523,0.0882,-0.8165,346.19
18:47:49:439,0.9098,-0.8433,8.5064,40.9713,0.0565,0.3165,-0.8064,346.55
18:47:49:459,0.0441,-0.7804,7.5531,41.2121,0.0565,0.4507,-0.6248,347.4
18:47:49:479,-0.1262,-0.2811,6.5696,41.5769,0.0656,0.3799,-0.4241,348.52
18:47:49:499,0.1929,0.2767,5.9514,41.8369,0.0826,0.1009,-0.2506,349.52
18:47:49:519,0.7313,0.8777,6.0526,42.2242,0.0847,-0.1567,-0.1372,350.16
18:47:49:539,1.3562,1.5154,6.4219,42.6233,0.0267,-0.2355,-0.1255,350.41
18:47:49:559,1.911,2.0065,7.0103,42.8264,-0.0563,-0.1216,-0.2692,350.5
18:47:49:579,1.8694,2.1408,7.4747,43.1233,-0.117,-0.0236,-0.4917,350.59
18:47:49:599,1.1961,1.7091,8.2309,43.319,-0.1239,-0.0273,-0.6461,350.82
18:47:49:622,0.4671,0.9659,9.3428,43.5092,-0.0744,0.0354,-0.6206,351.21
18:47:49:639,-0.2191,0.4539,10.1418,43.8258,-0.0004,0.1946,-0.4369,351.79
18:47:49:659,-0.3268,0.3607,10.4006,43.9882,0.0927,0.3421,-0.1963,352.6
18:47:49:679,0.0107,0.7016,10.2572,44.3543,0.1561,0.4161,0.0102,353.44
18:47:49:699,0.4197,1.28,10.1204,44.4288,0.2242,0.4693,0.1454,354.05
18:47:49:719,0.8543,1.7947,9.9743,44.646,0.2742,0.5598,0.1896,354.31
18:47:49:739,1.275,2.2079,9.6408,45.1031,0.2492,0.5726,0.13,354.32
18:47:49:759,1.4471,2.3361,9.7362,45.2988,0.1939,0.3719,-0.0339,354.19
18:47:49:780,1.0452,1.7946,10.4229,45.4502,0.171,0.0823,-0.1867,353.94
18:47:49:801,0.5295,0.9059,11.1785,45.612,0.1678,0.0871,-0.1633,353.6
18:47:49:819,0.3112,0.6075,10.7057,45.5906,0.0714,0.2883,0.0017,353.4
18:47:49:840,0.4911,1.1532,10.464,45.5474,-0.0558,0.1355,0.2205,353.61
18:47:49:859,1.4838,2.0113,11.2122,45.7799,-0.0254,-0.2387,0.3035,353.91
18:47:49:879,1.9269,2.4793,12.0166,45.9657,0.0528,-0.6347,0.1279,353.73
18:47:49:900,1.2638,1.7859,13.014,45.9605,0.1444,-0.9169,-0.0537,353.19
18:47:49:921,0.5422,0.4974,14.2905,45.7861,0.2886,-0.7801,-0.0473,352.59
18:47:49:939,0.2632,-0.6807,14.1972,45.9191,0.4978,-0.2946,0.08,352.33
18:47:49:959,0.3828,-1.2191,12.0654,46.1325,0.533,0.1669,0.1917,352.61
18:47:49:979,0.4217,-1.3547,10.055,46.4139,0.3759,0.1792,0.2008,353.14
18:47:50:005,0.3171,-1.4389,9.3488,46.6645,0.2258,-0.0582,0.2152,353.42
18:47:50:019,0.3623,-1.3868,9.2223,46.971,0.138,-0.1934,0.2365,353.15
18:47:50:040,0.3385,-1.1376,8.871,47.0318,0.0778,-0.1381,0.2258,352.69
18:47:50:059,0.241,-0.9219,8.0559,47.1798,0.0129,-0.0114,0.2024,352.32
18:47:50:081,0.2041,-0.6747,7.1872,47.4031,-0.0718,0.0424,0.205,352.11
18:47:50:099,0.3259,-0.3646,6.6803,47.6301,-0.1564,-0.0199,0.212,351.95
18:47:50:122,0.4173,-0.0479,6.6244,47.8472,-0.1883,-0.1524,0.2178,351.74
18:47:50:140,0.551,0.2158,6.7343,47.9005,-0.1426,-0.2898,0.2343,351.43
18:47:50:159,0.8583,0.5269,6.7969,47.9867,-0.1053,-0.3382,0.2295,351.08
18:47:50:179,1.206,0.8925,6.9511,48.1169,-0.1186,-0.2626,0.1859,350.76
18:47:50:199,1.4363,1.3423,7.2208,48.1913,-0.1447,-0.1594,0.0826,350.5
18:47:50:219,1.4864,1.6603,7.5534,48.3217,-0.182,-0.0486,-0.0872,350.33
18:47:50:239,1.2393,1.618,7.9094,48.5456,-0.2549,0.1169,-0.232,350.23
18:47:50:259,0.7973,1.5601,8.547,48.6838,-0.2927,0.2361,-0.2613,350.25
18:47:50:280,0.472,1.6589,9.214,49.0819,-0.2368,0.2856,-0.2304,350.47
18:47:50:299,0.1982,1.8646,9.6126,49.0561,-0.1506,0.3293,-0.183,350.81
18:47:50:319,0.1097,2.1105,9.6865,49.2253,-0.1277,0.3953,-0.1574,351.14
18:47:50:340,0.0715,2.2027,9.6711,49.3179,-0.1883,0.4826,-0.1527,351.43
18:47:50:360,-0.0285,2.1202,9.8266,49.5447,-0.2501,0.3953,-0.1346,351.67
18:47:50:380,-0.035,1.8776,10.3209,49.7798,-0.2394,0.1174,-0.1356,351.86
18:47:50:400,-0.0617,1.3306,11.0539,49.9746,-0.2059,-0.2536,-0.1686,351.92
18:47:50:420,-0.2658,0.4309,12.319,50.0488,-0.1378,-0.4431,-0.0941,351.84
18:47:50:440,0.2944,-0.4298,12.6798,50.0104,-0.0787,-0.2137,0.0464,351.71
18:47:50:460,0.934,-0.5071,11.8313,50.1925,-0.2032,-0.0146,0.147,351.79
18:47:50:480,1.6809,-0.067,11.659,50.228,-0.356,-0.0976,0.0906,352.11
18:47:50:500,1.5816,0.0227,12.3406,50.5162,-0.3832,-0.1546,-0.0579,352.18
18:47:50:520,0.6397,-0.4532,12.6982,50.6724,-0.2314,0.0328,-0.0345,351.92
18:47:50:540,-0.0757,-0.737,11.9156,50.9649,-0.001,0.3069,0.171,351.78
18:47:50:560,0.0683,-0.6035,10.1703,51.1263,0.2237,0.4528,0.4132,352.03
18:47:50:580,0.9956,-0.2004,8.3851,51.3541,0.3253,0.2553,0.5202,352.32
18:47:50:602,2.1848,0.1875,7.5924,51.4141,0.2359,-0.1929,0.3584,352.26
18:47:50:620,2.5911,0.2803,8.0202,51.5035,-0.0356,-0.5432,0.0017,351.64
18:47:50:640,2.1785,-0.1341,9.7153,51.5636,-0.2416,-0.6278,-0.2927,350.68
18:47:50:660,1.2756,-0.6859,11.0583,51.6876,-0.1984,-0.4197,-0.3592,349.97
18:47:50:680,0.7702,-0.8035,10.8128,51.8327,0.0139,-0.03,-0.216,349.9
18:47:50:700,0.8973,-0.3656,9.1404,52.296,0.1497,0.3107,-0.0526,350.44
18:47:50:720,1.3858,0.4466,7.6523,52.1026,0.1353,0.4129,-0.0153,351.21
18:47:50:740,1.7235,1.0345,7.2016,52.4528,0.1758,0.3335,-0.1106,351.75
18:47:50:760,1.6521,1.1605,6.6713,52.4814,0.2428,0.2308,-0.2538,351.86
18:47:50:780,1.3925,1.1131,6.2703,52.6335,0.1885,0.2101,-0.3832,351.82
18:47:50:800,0.9567,1.0548,6.1543,52.82,0.0656,0.2643,-0.4614,351.87
18:47:50:820,0.4845,1.0192,6.3567,52.8625,-0.0675,0.2526,-0.4646,352.13
18:47:50:840,0.1076,1.0887,7.0453,52.8774,-0.1559,0.1707,-0.3906,352.58
18:47:50:859,-0.1931,1.1312,8.0242,52.9787,-0.2075,0.1057,-0.2591,353.05
18:47:50:880,-0.3734,1.2954,9.3335,52.7114,-0.1931,0.1046,-0.093,353.49
18:47:50:900,-0.433,1.3207,10.4623,52.8285,-0.0638,0.1989,0.0752,353.86
18:47:50:919,-0.3973,1.4639,10.9859,52.8683,0.0954,0.3682,0.2439,354.14
18:47:50:939,-0.2487,1.5988,10.7329,52.8914,0.2253,0.5747,0.3866,354.33
18:47:50:959,-0.0864,1.706,10.0417,52.7978,0.2657,0.6061,0.4994,354.38
18:47:50:979,0.3051,1.6588,9.7945,52.7887,0.2455,0.3437,0.5425,354.25
18:47:50:999,0.6179,1.4852,10.4164,52.6966,0.2018,0.0142,0.493,353.79
18:47:51:019,0.5127,1.0124,11.2835,52.6968,0.1875,0.0099,0.4483,352.98
18:47:51:039,0.1102,0.5942,10.7177,52.5541,0.0927,0.2926,0.4808,352.08
18:47:51:059,-0.1869,0.7673,10.0772,52.4652,-0.1378,0.332,0.559,351.51
18:47:51:079,0.1609,1.0522,10.6881,52.3324,-0.2714,0.1467,0.5085,351.19
18:47:51:099,0.324,0.8843,11.3917,51.9677,-0.3587,-0.1253,0.2918,350.6
18:47:51:119,-0.042,0.1479,12.5354,51.8681,-0.4902,-0.5581,0.105,349.78
18:47:51:167,-0.951,-0.9262,15.0916,51.9632,-0.3603,-0.6299,0.0666,348.98
18:47:51:168,-1.6731,-2.1233,15.3898,51.9545,0.147,0.1297,0.3072,348.3
18:47:51:179,-1.6173,-1.9689,11.0359,52.0287,0.4025,0.8302,0.673,348.19
18:47:51:201,-0.6363,-0.7945,7.0835,52.1459,0.2162,0.6572,0.7991,348.81
18:47:51:219,0.2995,0.1327,6.2753,52.0215,-0.1016,-0.1083,0.633,349.01
18:47:51:239,0.6742,0.1949,8.1743,52.1612,-0.191,-0.8477,0.3983,348.02
18:47:51:259,0.7196,0.1588,9.9656,52.1271,-0.1367,-0.9712,0.2082,346.44
18:47:51:279,0.7307,0.1035,10.7134,52.2475,-0.0664,-0.5378,0.0395,345.17
18:47:51:300,0.5042,0.0406,10.2895,52.3324,-0.0201,0.0365,-0.0664,344.69
18:47:51:320,0.2337,0.0236,8.9562,52.4211,0.0166,0.3415,-0.0845,344.84
18:47:51:339,0.0227,0.1072,7.9427,52.3938,0.0421,0.2585,-0.0654,345.26
18:47:51:359,-0.0998,0.1807,7.7456,52.3634,0.1273,-0.013,-0.0031,345.57
18:47:51:379,-0.2025,0.1329,7.7621,52.3653,0.2492,-0.1737,0.0906,345.6
18:47:51:399,-0.1251,0.1958,7.5974,52.4362,0.2982,-0.1796,0.196,345.48
18:47:51:420,0.2738,0.5248,7.4124,52.4281,0.2545,-0.1327,0.2263,345.4
18:47:51:439,0.6876,0.964,7.5309,52.5386,0.1789,-0.0822,0.1311,345.31
18:47:51:459,0.9026,1.1997,7.8286,52.643,0.0901,-0.0135,-0.0356,345.11
18:47:51:479,0.6932,1.1392,8.1897,52.5903,0.0389,-0.013,-0.1745,344.89
18:47:51:499,0.2489,0.9355,8.5597,52.5757,0.0501,-0.0582,-0.2096,344.78
18:47:51:519,-0.0514,0.8299,8.9718,52.4882,0.1007,-0.0715,-0.1367,344.82
18:47:51:539,0.0365,0.983,9.2934,52.6241,0.1215,-0.0311,-0.0627,344.99
18:47:51:559,0.191,1.2216,9.8397,52.6552,0.0773,0.003,-0.0489,345.24
18:47:51:580,0.4396,1.2517,10.4642,52.8799,0.0054,0.0482,-0.1298,345.43
18:47:51:600,0.3527,0.9697,11.0588,53.0245,-0.0978,0.1153,-0.2314,345.51
18:47:51:620,-0.138,0.3651,11.9825,53.0602,-0.1298,0.1526,-0.2485,345.59
18:47:51:639,-0.2805,-0.3204,12.2578,53.0226,-0.0345,0.3516,-0.1106,345.76
18:47:51:659,0.1917,-0.4431,11.0166,53.1174,-0.0707,0.4634,0.0091,346.04
18:47:51:679,0.6992,-0.0276,10.2305,53.1524,-0.2607,0.2707,-0.002,346.48
18:47:51:699,0.9265,0.1896,10.4367,53.1888,-0.43,-0.1125,-0.1676,346.64
18:47:51:720,0.2327,-0.004,11.6109,53.0803,-0.4641,-0.3797,-0.306,346.41
18:47:51:740,-0.5013,-0.551,12.5992,53.0043,-0.3283,-0.2924,-0.3033,346.07
18:47:51:759,-0.6992,-1.0821,12.4726,52.772,-0.093,0.1004,-0.1793,346.07
18:47:51:779,-0.3229,-1.0604,10.7056,52.7786,0.1044,0.3671,-0.0308,346.54
18:47:51:799,0.8014,-0.7043,8.9171,52.7854,0.1396,0.3112,-0.0377,347.25
18:47:51:821,1.6331,-0.2695,7.8052,52.7646,-0.0191,0.069,-0.2533,347.69
18:47:51:839,1.4448,-0.0758,8.2582,52.6559,-0.2501,-0.1876,-0.5498,347.68
