Time,Acc_X,Acc_Y,Acc_Z,Meg,Gyr_X,Gyr_Y,Gyr_Z,Ore
18:32:04:078,0.014,1.0683,9.1371,58.0224,-0.0319,-0.0875,-0.093,353.07
18:32:04:100,0.001,0.9977,9.3482,54.9562,-0.1437,-0.0279,-0.0627,353.07
18:32:04:121,0.1024,1.0578,9.3865,54.341,-0.165,-0.0311,-0.0462,131.39
18:32:04:141,0.2749,1.0961,9.3162,54.586,-0.1453,-0.0705,-0.0888,131.56
18:32:04:161,0.2555,1.0302,9.447,54.4867,-0.1378,-0.0961,-0.1399,131.67
18:32:04:182,0.1518,0.8463,9.6897,54.3406,-0.132,-0.0524,-0.1526,131.82
18:32:04:201,-0.1492,0.6426,9.6013,54.0795,-0.1182,-0.0077,-0.1138,131.94
18:32:04:221,-0.3242,0.6556,9.561,53.899,-0.1102,-0.0269,-0.0238,132.06
18:32:04:241,-0.1399,0.7562,9.7972,53.8407,-0.0761,-0.0593,0.0187,132.09
18:32:04:262,-0.0252,0.7536,9.9147,53.798,-0.0255,-0.0583,0.0033,132.09
18:32:04:281,-0.1062,0.7346,9.8269,53.4764,0.0032,-0.0247,0.0113,132.08
18:32:04:301,-0.1761,0.7194,9.6495,53.3573,-0.001,0.0077,0.0363,132.07
18:32:04:321,-0.1647,0.748,9.4713,53.0468,-0.0186,0.0083,0.0752,132.01
18:32:04:342,0.038,0.8783,9.4906,53.0938,-0.0351,-0.0279,0.0896,131.91
18:32:04:361,0.198,0.967,9.61,53.1462,-0.0314,-0.0263,0.0544,131.81
18:32:04:381,0.1252,0.883,9.639,53.2689,-0.0096,-0.0269,0.0315,131.75
18:32:04:401,0.0758,0.7947,9.5128,53.4809,-0.0016,-0.012,0.0411,131.7
18:32:04:422,0.145,0.8425,9.6209,53.4809,-0.009,-0.0226,0.0368,131.64
18:32:04:441,0.1362,0.8026,9.6906,53.4347,0.0069,-0.0008,0.0246,131.58
18:32:04:462,0.0551,0.7482,9.6082,53.5756,0.0218,-0.0066,0.0347,131.54
18:32:04:481,0.0566,0.7772,9.5484,53.8331,0.0256,-0.0103,0.0581,131.48
18:32:04:502,0.146,0.8319,9.5618,54.0772,0.0154,-0.0205,0.0645,131.41
18:32:04:528,0.2063,0.9459,9.5867,54.1249,0.0032,0.0056,0.0656,131.33
18:32:04:542,0.3309,0.989,9.5713,53.9323,-0.0048,-0.0061,0.0576,131.25
18:32:04:561,0.4695,0.8837,9.6835,54.0604,0.0069,-0.0316,0.0156,131.18
18:32:04:581,0.3459,0.6774,9.8176,53.9779,0.0389,-0.0247,-0.0015,131.18
18:32:04:601,0.2166,0.5371,9.7855,54.0005,0.0979,0.0258,0.0406,131.18
18:32:04:621,0.3013,0.6162,9.3228,53.9653,0.1288,0.0828,0.0842,131.14
18:32:04:641,0.5122,0.8032,8.7691,54.1405,0.0708,0.0407,0.0874,131.04
18:32:04:662,0.7552,0.9493,8.7954,54.1523,-0.0165,-0.0135,0.0406,130.95
18:32:04:681,0.6287,0.8697,9.0575,54.1297,-0.0953,-0.0151,-0.002,130.92
18:32:04:701,0.377,0.8035,9.3532,54.1304,-0.1299,-0.0024,0.0305,130.93
18:32:04:721,0.3797,0.9421,9.5983,54.3948,-0.1245,0.0173,0.0778,130.9
18:32:04:741,0.5031,1.1622,9.8037,54.4732,-0.108,0.0333,0.0938,130.82
18:32:04:761,0.4783,1.2976,9.9639,54.6134,-0.0665,0.0407,0.0752,130.72
18:32:04:781,0.3661,1.2201,9.9413,54.7789,-0.0149,0.0434,0.0523,130.63
18:32:04:802,0.2866,1.069,9.7915,54.891,0.0202,0.0791,0.0539,130.58
18:32:04:821,0.2715,1.006,9.5834,54.6374,0.0154,0.1339,0.0597,130.53
18:32:04:841,0.3082,0.9727,9.3568,54.61,-0.0133,0.1552,0.0342,130.46
18:32:04:861,0.1645,0.8279,9.3093,54.66,-0.0197,0.12,-0.0009,130.42
18:32:04:881,-0.0386,0.6053,9.4016,54.5806,0.0202,0.0535,0.0023,130.42
18:32:04:902,-0.1641,0.5846,9.3965,54.5933,0.0665,0.0674,0.0427,130.44
18:32:04:921,-0.1335,0.8306,9.1413,54.6149,0.0378,0.1312,0.0773,130.41
18:32:04:941,-0.083,1.1018,9.0421,54.6852,-0.0495,0.1254,0.0741,130.33
18:32:04:961,-0.1973,1.2537,9.296,54.4138,-0.0963,0.0487,0.0246,130.25
18:32:04:982,-0.3821,1.2187,9.5797,54.4959,-0.1001,-0.0386,-0.0414,130.24
18:32:05:002,-0.6394,1.0028,9.8779,54.6755,-0.1245,-0.087,-0.084,130.32
18:32:05:021,-0.9463,0.6967,10.2629,54.8514,-0.1554,-0.045,-0.06,130.45
18:32:05:041,-1.2573,0.5948,10.1684,54.8926,-0.1756,0.0658,0.0571,130.54
18:32:05:061,-1.303,0.8716,9.5331,54.8595,-0.1762,0.1046,0.2067,130.5
18:32:05:081,-0.9188,1.4122,8.7305,54.7341,-0.2007,-0.0327,0.2833,130.27
18:32:05:101,-0.3666,1.8161,8.408,54.4619,-0.3167,-0.2568,0.221,129.97
18:32:05:121,0.034,1.7877,8.6338,54.3936,-0.5121,-0.4687,0.0613,129.73
18:32:05:142,-0.0811,1.2708,9.6914,54.3849,-0.6239,-0.5778,-0.0291,129.7
18:32:05:161,-0.0427,0.4273,10.6025,54.2454,-0.5914,-0.5666,0.031,129.76
18:32:05:181,-0.369,0.2111,10.771,54.2323,-0.4945,-0.3026,0.2434,129.75
18:32:05:202,-0.3354,0.7023,10.9678,54.1435,-0.2912,0.0471,0.4281,129.48
18:32:05:222,-0.4057,0.7806,10.6331,54.2453,-0.0287,0.4017,0.3962,128.99
18:32:05:241,0.6469,1.3281,9.4954,54.2636,0.1219,0.6188,0.2657,128.54
18:32:05:261,0.5966,1.5312,8.3584,54.6602,0.0793,0.5571,-0.027,128.22
18:32:05:281,0.047,1.4141,8.0171,54.8537,-0.0213,0.1781,-0.2474,128.24
18:32:05:302,-0.3329,1.1057,8.1989,55.1228,-0.0468,-0.1158,-0.3006,128.52
18:32:05:321,-0.4829,1.0104,8.6271,55.413,-0.0553,-0.3505,-0.2453,128.87
18:32:05:341,-0.4029,0.8986,8.9514,55.5137,-0.0654,-0.3633,-0.1585,129.16
18:32:05:361,-0.4147,0.8621,8.9512,55.5502,-0.1416,-0.4085,-0.0771,129.35
18:32:05:382,-0.3882,0.8663,8.944,55.4936,-0.2991,-0.4325,-0.0116,129.45
18:32:05:401,-0.5025,0.5799,10.0714,55.5438,-0.4695,-0.1961,0.1018,129.48
18:32:05:422,-0.2733,0.7255,10.5153,55.6603,-0.4407,0.1669,0.2567,129.37
18:32:05:441,-0.1498,0.9244,10.3966,55.3485,-0.3284,0.2366,0.2806,129.08
18:32:05:462,-0.1649,0.9489,10.3693,55.4026,-0.1756,0.1126,0.2918,128.76
18:32:05:481,-0.1387,0.9873,10.5046,55.3184,-0.0181,0.028,0.3195,128.43
18:32:05:503,-0.0437,0.98,10.6682,55.4007,0.0937,0.0615,0.3403,128.05
18:32:05:522,-0.0258,0.9636,10.5942,55.6748,0.1416,0.1366,0.3882,127.68
18:32:05:542,0.1331,0.8418,10.4037,55.8204,0.1602,0.1861,0.4015,127.22
18:32:05:561,0.4312,0.8036,10.0407,56.0072,0.1272,0.1307,0.386,126.78
18:32:05:581,0.9411,0.5969,10.049,55.9543,0.0176,-0.0423,0.2365,126.34
18:32:05:601,1.1381,0.1705,10.6301,56.1535,-0.0969,-0.1498,-0.0281,126.07
18:32:05:622,0.7097,-0.3737,11.2241,56.4032,-0.1229,-0.0977,-0.2027,126.11
18:32:05:641,0.1691,-0.8017,11.1611,56.7942,-0.0527,0.0301,-0.1745,126.33
18:32:05:661,0.2654,-0.8341,10.508,56.9068,0.0128,-0.0434,-0.0803,126.53
18:32:05:681,0.9201,-0.6012,10.3353,56.9816,0.0192,-0.1945,-0.1212,126.62
18:32:05:702,1.1529,-0.4171,10.5753,57.1352,0.0123,-0.2361,-0.2884,126.77
18:32:05:721,0.8589,-0.6599,10.6607,57.3199,0.0745,-0.1498,-0.3815,127.09
18:32:05:741,0.5502,-0.8483,10.3586,57.3779,0.1916,-0.0258,-0.3336,127.53
18:32:05:761,0.7237,-0.8312,9.6561,57.5724,0.2571,0.0125,-0.2751,127.91
18:32:05:781,1.0235,-0.6857,9.2843,57.5935,0.2092,-0.07,-0.3139,128.23
18:32:05:802,1.0944,-0.6339,9.4764,57.5786,0.1017,-0.202,-0.4188,128.59
18:32:05:821,0.9845,-0.8138,10.0416,57.7303,0.0458,-0.2499,-0.4811,129.07
18:32:05:841,0.7991,-0.8867,10.3343,57.6973,0.0692,-0.2643,-0.464,129.63
18:32:05:861,0.6106,-0.7891,10.285,57.9157,0.1672,-0.219,-0.3837,130.17
18:32:05:881,0.6024,-0.5198,9.6752,57.7036,0.2731,-0.0881,-0.2415,130.62
18:32:05:901,0.8424,-0.0404,8.7384,57.6929,0.296,0.0705,-0.0989,130.89
18:32:05:921,1.121,0.3593,7.9416,57.7318,0.2273,0.135,-0.0568,131
18:32:05:942,1.2639,0.7383,7.4287,57.5908,0.1091,0.12,-0.1212,131.06
18:32:05:961,1.2254,0.8536,7.2549,57.609,-0.041,0.0684,-0.2644,131.19
18:32:05:981,0.8904,0.7426,7.4901,57.6672,-0.1629,-0.0237,-0.389,131.49
18:32:06:003,0.6331,0.5093,8.1525,57.5564,-0.1804,-0.1126,-0.4268,131.94
18:32:06:022,0.4884,0.3048,8.8437,57.4951,-0.0697,-0.128,-0.3954,132.43
18:32:06:041,0.5125,0.2926,9.1916,57.0484,0.0825,-0.0811,-0.3427,132.89
18:32:06:061,0.8176,0.5787,8.9629,57.066,0.2018,0.0077,-0.3422,133.29
18:32:06:134,0.1899,0.1129,8.2627,57.0192,0.2231,0.0051,-0.2905,133.68
18:32:06:134,-0.037,0.7385,8.2453,56.81,0.1496,0.1206,-0.0244,134.01
18:32:06:135,0.0902,1.0291,8.1344,56.8213,0.124,0.1903,0.0752,134.03
18:32:06:142,-0.4322,0.9557,9.0559,56.7994,0.189,0.2265,0.2434,133.94
18:32:06:161,0.1207,1.5636,9.0335,56.8547,0.157,0.5459,0.369,133.64
18:32:06:182,0.9153,2.4355,8.1277,56.892,-0.107,0.7727,0.2274,133.18
18:32:06:202,0.9197,2.7127,8.7818,56.9259,-0.2145,0.5997,-0.0084,132.87
18:32:06:223,0.212,2.2965,10.3286,57.1095,0.1996,-0.0524,-0.1617,132.84
18:32:06:241,-0.0427,1.8945,10.0805,57.1569,0.6191,-0.704,-0.257,133.03
18:32:06:262,0.1134,1.5213,9.4627,57.1621,0.4599,-0.8823,-0.3326,133.38
18:32:06:281,0.0941,1.0638,10.4674,57.5279,0.1278,-0.5107,-0.2533,133.84
18:32:06:301,-0.0103,1.06,12.0368,57.6647,0.1437,0.0429,-0.0536,134.18
18:32:06:321,0.4387,1.4138,10.947,57.7528,0.1565,0.2994,0.0821,134.23
18:32:06:342,0.8142,1.6088,11.338,57.5878,0.1022,0.3697,0.0975,134.11
18:32:06:361,0.302,1.6021,11.6486,57.6592,0.0298,0.72,-0.0057,133.96
18:32:06:381,-0.1126,1.0767,12.0114,58.11,-0.0021,0.7344,0.0214,133.89
18:32:06:401,-0.1502,-0.1759,12.5275,58.1929,-0.0436,0.6247,0.0166,133.78
18:32:06:421,-0.2434,-0.8115,12.0452,58.4496,-0.0378,0.7636,0.0331,133.69
18:32:06:441,-1.2775,-1.1729,11.025,58.674,-0.2028,0.9734,0.1215,133.57
18:32:06:461,-1.6879,-0.6098,10.5395,58.6036,-0.157,1.1453,0.4153,133.33
18:32:06:482,-0.4599,0.8437,10.0722,58.7174,0.1959,0.4964,0.4089,132.73
18:32:06:504,0.9399,1.5728,9.3741,58.7522,0.6745,-0.7135,0.1273,132.21
18:32:06:521,0.2691,0.9021,8.7188,58.9779,0.8113,-1.5584,-0.166,132.15
18:32:06:541,-0.6838,-0.3482,8.7605,58.9885,0.5164,-1.4285,-0.3869,132.54
18:32:06:561,-1.1609,-0.8157,9.0398,59.07,0.0921,-0.49,-0.3991,133.19
18:32:06:582,-2.0402,0.0219,8.8197,59.4279,-0.4013,0.2297,-0.0547,133.72
18:32:06:601,-1.2503,0.2489,8.5254,59.6716,-0.8075,0.3639,0.1779,133.75
18:32:06:622,-1.2308,0.1296,8.9878,59.8698,-0.9869,0.1882,0.3488,133.49
18:32:06:641,-0.5915,0.3118,10.2744,60.3827,-0.741,0.3186,0.4387,133.07
18:32:06:662,0.2545,0.6335,10.7262,60.6084,-0.0181,0.1595,0.3578,132.52
18:32:06:681,0.4767,0.9617,9.3917,60.9519,0.6372,-0.227,0.1391,132.11
18:32:06:701,0.1426,1.081,7.7742,61.0174,0.8555,-0.5783,-0.035,131.98
18:32:06:721,-0.1851,1.1083,6.9272,61.2081,0.7075,-0.7162,-0.0472,132.08
18:32:06:742,-0.3169,1.2822,6.6096,61.409,0.3407,-0.7237,0.0517,132.22
18:32:06:761,0.1653,1.4151,7.3026,61.5636,-0.0617,-0.3862,0.1225,132.26
18:32:06:781,0.707,1.5314,8.2211,61.7853,-0.2869,0.0003,0.1412,132.17
18:32:06:804,1.0083,1.4782,9.2606,62.1174,-0.2491,0.0445,0.0422,132.01
18:32:06:822,1.2686,1.2802,10.1742,62.1953,-0.0239,-0.2462,0.0299,131.96
18:32:06:841,0.1849,1.0512,10.3404,62.3475,0.2204,-0.0939,0.2317,131.96
18:32:06:861,-0.2663,1.8208,8.9588,62.5683,0.404,0.4581,0.1779,131.7
18:32:06:881,0.3423,2.4012,8.3532,62.9934,0.3865,-0.1647,-0.1143,131.44
18:32:06:902,0.205,1.9273,9.6476,63.3372,0.4498,-0.6294,-0.1729,131.59
18:32:06:922,0.3134,1.6275,10.0432,63.4189,0.395,-0.8147,-0.0595,131.88
18:32:06:941,0.3109,1.3478,10.0382,63.7983,0.189,-1.0367,0.1864,132.09
18:32:06:961,1.3405,0.9783,10.1599,64.0217,0.0154,-0.9004,0.2854,132.05
18:32:06:981,2.3398,1.5864,10.1019,64.151,-0.0623,-0.5597,0.1289,131.88
18:32:07:004,3.0933,1.6329,9.5342,64.3186,-0.2172,-0.2659,-0.1053,131.83
18:32:07:021,2.8978,1.3794,9.6359,64.7208,-0.5536,-0.0694,-0.4268,132
18:32:07:041,2.0193,0.3202,11.1189,65.0052,-0.8176,-0.0918,-0.5306,132.5
18:32:07:062,1.7525,-0.4279,13.1623,65.242,-0.6776,-0.0567,-0.4928,133.12
18:32:07:081,1.7493,-0.7086,13.814,65.5404,-0.1815,0.1419,-0.4539,133.69
18:32:07:104,1.8363,-0.3391,12.1123,65.7607,0.271,0.5337,-0.4358,134.19
18:32:07:121,2.0094,0.2798,9.4735,65.7449,0.2843,0.6865,-0.5035,134.62
18:32:07:141,1.4682,0.477,8.1671,65.8782,0.0602,0.6236,-0.6568,135.1
18:32:07:161,0.714,0.2456,7.8938,65.7463,-0.2411,0.4698,-0.6866,135.76
18:32:07:181,0.4375,-0.0176,8.5923,65.363,-0.4695,0.3261,-0.6445,136.48
18:32:07:204,0.5061,-0.0636,9.4258,65.2499,-0.5451,0.2483,-0.5588,137.17
18:32:07:222,0.8381,0.1348,9.6861,65.0577,-0.503,0.3729,-0.4715,137.78
18:32:07:241,0.7387,0.3825,9.2347,64.7445,-0.4317,0.4549,-0.4273,138.28
18:32:07:261,0.1159,0.4322,8.9044,64.2598,-0.3316,0.35,-0.389,138.72
18:32:07:281,-0.2884,0.3479,8.4802,63.9972,-0.1868,0.242,-0.2447,139.14
18:32:07:304,0.3808,0.872,7.684,63.6879,-0.1251,0.1206,-0.2101,139.4
18:32:07:321,0.2943,0.9304,7.5948,63.2042,-0.1559,0.0865,-0.2751,139.63
18:32:07:341,-0.2613,0.6353,7.7064,63.0748,-0.1618,0.1685,-0.2261,139.93
18:32:07:361,-0.3681,0.5697,7.5997,63.1259,-0.223,0.1696,-0.1303,140.18
18:32:07:382,0.5855,0.8075,8.0474,62.9097,-0.2448,0.1866,-0.1308,140.32
18:32:07:405,0.8669,0.9541,8.8692,62.87,-0.1384,0.2111,-0.2602,140.45
18:32:07:421,0.3248,0.7559,8.9702,62.7874,0.0602,0.2164,-0.3108,140.74
18:32:07:441,-0.077,0.6956,8.5058,62.405,0.1437,0.251,-0.2442,141.08
18:32:07:462,-0.0919,0.9596,8.4119,62.1991,0.0937,0.21,-0.199,141.35
18:32:07:481,-0.3382,1.1778,8.9521,61.7121,0.1198,0.0445,-0.1489,141.56
18:32:07:505,-0.1856,1.4856,9.3137,61.5715,0.1347,-0.0609,-0.0909,141.73
18:32:07:521,-0.2005,1.734,9.5985,61.5249,0.0591,-0.0322,-0.0382,141.83
18:32:07:542,-0.2499,1.5727,10.2172,61.3448,-0.0787,0.029,0.0113,141.88
18:32:07:561,-0.3279,1.1675,11.346,61.213,-0.108,-0.0061,0.0459,141.86
18:32:07:581,-0.4287,0.7575,12.0409,61.0383,0.0032,-0.1434,0.0778,141.81
18:32:07:605,-0.5968,0.8811,11.2454,60.9904,0.1044,-0.2824,0.1763,141.73
18:32:07:622,0.5522,1.0897,9.82,61.3314,-0.2044,-0.5688,0.1092,141.54
18:32:07:641,0.7867,0.4553,11.2043,61.6372,-0.536,-0.6577,-0.0872,141.45
18:32:07:661,-0.4432,-1.2672,13.2378,62.2168,-0.5153,-0.3611,0.0006,141.58
18:32:07:681,-1.3468,-2.3695,13.1983,62.6095,-0.2028,0.1062,0.393,141.6
18:32:07:705,-0.5492,-1.9727,12.1291,62.7441,0.132,0.3782,0.6128,141.14
18:32:07:721,0.0831,-0.9873,10.6284,63.1825,0.3428,0.1776,0.4835,140.42
18:32:07:741,-0.4897,-0.668,10.0252,63.4797,0.4195,-0.0987,0.3062,139.86
18:32:07:761,-1.0545,-0.7043,9.6995,63.8716,0.3929,-0.1695,0.3621,139.51
18:32:07:782,-0.6555,-0.5558,9.6439,64.2245,0.1943,-0.0162,0.4329,139.11
18:32:07:805,-0.236,-0.4721,9.8866,64.3594,0.0032,0.0913,0.4052,138.61
18:32:07:822,-0.6853,-0.5197,9.4306,64.6335,-0.2113,-0.2137,0.5457,138.14
18:32:07:841,0.1615,-1.1077,9.1169,64.9624,-0.3859,-0.2531,0.6171,137.52
18:32:07:862,0.1353,0.0079,9.4391,65.3281,-0.2124,0.0791,0.4989,136.83
18:32:07:881,0.2698,0.0643,8.7799,65.7756,0.1129,0.0908,0.4542,136.25
18:32:07:901,0.022,0.5228,7.7973,66.0901,0.395,0.1344,0.4057,135.72
18:32:07:922,0.0341,0.8776,7.3768,66.4505,0.6101,0.3569,0.3733,135.25
18:32:07:942,0.425,1.0906,7.5242,67.0253,0.7831,0.4804,0.2705,134.8
18:32:07:961,0.0888,1.1363,7.5741,67.5041,0.9028,0.3,0.1034,134.45
18:32:07:981,-0.5672,1.1109,6.7689,67.9804,0.7889,-0.0311,0.0667,134.3
18:32:08:001,-0.5686,1.5041,6.2921,68.3306,0.2752,-0.1913,0.1619,134.23
18:32:08:022,-0.2324,1.589,7.4239,68.6747,-0.2645,0.1169,0.1279,134.06
18:32:08:041,-0.6036,1.2318,8.8984,68.8418,-0.4806,0.3277,0.1353,133.9
18:32:08:061,-0.3122,1.0513,10.2601,69.0188,-0.322,0.2632,0.1343,133.71
18:32:08:081,-0.4014,1.0271,10.3952,69.4576,-0.0367,0.1547,0.0965,133.52
18:32:08:105,-0.5562,1.1196,9.6945,69.8565,0.1091,0.0141,0.1582,133.39
18:32:08:121,0.0187,1.604,9.2548,69.9021,0.1102,-0.0093,0.1768,133.21
18:32:08:219,0.118,1.7965,9.1733,70.1666,-0.0378,0.0583,0.1066,133.01
18:32:08:219,-0.0948,1.468,10.2572,70.4702,-0.1799,0.2366,0.0603,132.88
18:32:08:220,-0.3052,0.9425,11.1622,70.5549,-0.1948,0.3447,0.1406,132.78
18:32:08:220,-0.4134,0.8354,11.7546,70.9144,-0.0873,0.2217,0.2194,132.59
18:32:08:228,-0.0869,1.1562,11.609,70.9657,0.0628,-0.0907,0.2625,132.31
18:32:08:241,0.6683,1.6027,10.5537,71.1097,-0.0069,-0.4101,0.1444,132.02
18:32:08:262,1.2894,1.1781,10.4122,71.2424,-0.421,-0.6044,-0.1319,131.89
18:32:08:281,0.8498,-0.4312,12.9063,71.2216,-0.6739,-0.4852,-0.3549,132.1
18:32:08:302,-0.2966,-2.0284,14.9576,71.303,-0.3609,-0.1434,-0.2384,132.54
18:32:08:321,-0.1145,-2.091,14.1337,71.3452,0.3199,0.0759,0.0283,132.82
18:32:08:345,0.9445,-0.7744,11.1762,71.3162,0.725,-0.0295,0.0384,132.78
18:32:08:361,1.6135,0.0217,8.8258,71.4638,0.5888,-0.1754,-0.1851,132.74
18:32:08:381,1.6186,0.1527,8.3466,71.6432,0.2044,-0.1402,-0.4369,132.97
18:32:08:401,0.8222,-0.1941,8.6676,71.8925,-0.1155,0.0535,-0.5742,133.48
18:32:08:422,-0.1488,-0.5619,8.6728,71.9202,-0.2933,0.2132,-0.5578,134.13
18:32:08:441,-0.6994,-0.5022,8.3077,71.9178,-0.3609,0.201,-0.4518,134.74
18:32:08:461,-0.9038,-0.037,8.0484,71.789,-0.3369,-0.0061,-0.3544,135.24
18:32:08:482,-0.6977,0.1448,8.0565,71.6221,-0.215,-0.2334,-0.2698,135.64
18:32:08:502,-0.2983,0.446,7.8911,71.3601,-0.0718,-0.3058,-0.2064,135.96
18:32:08:521,-0.2521,0.6954,7.5489,71.2341,0.0181,-0.2345,-0.1601,136.22
18:32:08:545,-0.1751,0.8952,7.2727,71.0997,0.0272,-0.0678,-0.0994,136.42
18:32:08:562,0.1129,1.1782,7.0704,70.6131,0.0213,0.0365,-0.1159,136.54
18:32:08:582,0.1225,1.2145,7.2257,70.3548,0.0075,0.0077,-0.2027,136.67
18:32:08:601,-0.0944,0.9709,7.7672,70.2269,0.0469,0.0104,-0.2181,136.9
18:32:08:621,-0.1295,0.8672,8.1372,70.0916,0.1379,0.0775,-0.167,137.15
18:32:08:645,-0.0626,0.9697,8.1599,70.1814,0.1767,0.1344,-0.1367,137.33
18:32:08:662,-0.1989,0.9863,8.1835,70.051,0.1395,0.2297,-0.0882,137.48
18:32:08:681,-0.1367,1.237,8.542,69.9673,0.0761,0.2617,-0.0387,137.56
18:32:08:702,0.0104,1.5647,9.1218,70.1063,0.0783,0.1983,-0.0318,137.58
18:32:08:721,0.1041,1.7264,9.711,70.0333,0.1139,0.1259,-0.0606,137.6
18:32:08:745,0.1915,1.8901,10.0276,69.9058,0.1145,0.1137,-0.0877,137.66
18:32:08:762,0.019,1.8233,10.3738,69.8674,-0.0287,0.1749,-0.0904,137.74
18:32:08:781,-0.2977,1.5189,11.4066,69.8663,-0.2039,0.4112,-0.0339,137.83
18:32:08:801,-0.6001,1.2777,12.7963,69.6924,-0.0697,0.4927,0.0555,137.83
18:32:08:822,-0.9743,1.3052,12.8365,69.4179,0.279,0.3026,0.1747,137.72
18:32:08:841,-1.3112,1.8294,12.163,69.6081,0.576,0.1397,0.369,137.5
18:32:08:861,-0.5962,2.9788,10.672,69.7104,0.5632,0.1222,0.4595,137.06
18:32:08:881,0.8863,3.0821,9.5658,69.5046,0.0043,0.0104,0.105,136.52
18:32:08:902,0.7077,0.3908,11.7174,69.5147,-0.5403,-0.1131,-0.4044,136.4
18:32:08:921,-1.9422,-2.8619,15.5203,69.6481,-0.2933,0.0732,-0.3501,136.85
18:32:08:941,-4.1263,-3.5663,15.3053,69.5237,0.5446,0.4501,0.36,137.24
18:32:08:961,-2.4532,-1.6761,11.1195,69.5106,1.0184,0.3356,0.8295,136.78
18:32:08:982,-0.2475,0.3692,7.7588,69.8378,0.8379,-0.095,0.6698,135.79
18:32:09:002,0.3273,0.8072,6.8008,70.2403,0.2401,-0.4362,0.2343,135.04
18:32:09:021,-0.5357,-0.2174,8.2777,70.315,-0.3135,-0.3707,0.0289,134.85
18:32:09:041,-1.067,-1.0879,9.8577,70.4534,-0.5131,-0.1232,0.0794,134.87
18:32:09:062,-1.172,-1.2852,10.2869,70.5927,-0.4189,0.0445,0.2125,134.8
18:32:09:081,-0.9862,-0.9422,9.5483,70.6093,-0.1964,0.0328,0.3493,134.56
18:32:09:101,-0.6551,-0.2915,8.3115,70.659,-0.0532,-0.0295,0.435,134.15
18:32:09:121,-0.2738,0.4249,7.4181,71.0424,-0.0149,-0.0806,0.4553,133.66
18:32:09:141,-0.1675,0.7905,7.1709,71.2995,0.0165,-0.1583,0.41,133.15
18:32:09:161,-0.2753,1.0659,6.8579,71.2129,0.0687,-0.2494,0.3669,132.71
18:32:09:181,-0.1453,1.2851,6.5716,71.1106,0.0532,-0.3074,0.3286,132.32
18:32:09:201,0.0201,1.378,6.7413,71.0751,-0.0292,-0.3393,0.2295,131.99
18:32:09:222,0.0919,1.3224,7.3265,71.2882,-0.0585,-0.3441,0.1321,131.77
18:32:09:241,0.0665,1.2924,7.9541,71.4557,-0.0899,-0.2408,0.0464,131.67
18:32:09:261,-0.3461,1.2123,8.615,71.8428,-0.0793,-0.0971,0.0086,131.65
18:32:09:281,-0.6822,1.2314,8.9642,72.1186,0.0261,-0.0726,0.0422,131.65
18:32:09:301,-0.5402,1.4245,9.0006,72.2165,0.1384,-0.1525,0.0757,131.61
18:32:09:321,0.0423,1.7783,9.1072,72.2685,0.198,-0.1716,0.0523,131.54
18:32:09:341,0.3662,2.0849,9.2387,72.4924,0.2225,-0.1115,-0.0339,131.51
18:32:09:361,0.4036,2.2964,9.1871,72.5685,0.2103,-0.0763,-0.092,131.56
18:32:09:382,0.4691,2.4131,9.2786,72.5449,0.0942,-0.1141,-0.1617,131.67
18:32:09:401,0.3192,2.145,10.3843,72.4586,0.0112,-0.1519,-0.2016,131.88
18:32:09:421,0.2938,1.6352,11.7772,72.4735,0.0687,-0.1141,-0.1372,132.13
18:32:09:441,0.7516,1.6541,12.308,72.3044,0.2262,-0.0561,-0.0238,132.3
18:32:09:462,1.7379,2.1546,11.2063,72.3829,0.2257,-0.1408,-0.0696,132.33
18:32:09:481,2.2291,2.0448,10.3831,72.2738,-0.2299,-0.3287,-0.3565,132.44
18:32:09:501,1.2655,0.1926,12.7231,72.1081,-0.6771,-0.2137,-0.5668,132.89
18:32:09:521,-0.368,-1.496,15.1701,71.9877,-0.4892,0.1632,-0.3757,133.57
18:32:09:542,-0.6518,-1.5603,14.193,71.8848,0.0751,0.2531,-0.0494,133.97
18:32:09:561,0.4784,-0.6429,11.4875,71.9745,0.3567,-0.0109,0.0267,134
18:32:09:581,1.4647,-0.1261,10.2127,71.8959,0.3833,-0.1695,-0.1079,133.97
18:32:09:601,1.6546,0.0246,9.1389,71.9199,0.3077,-0.1046,-0.2511,134.11
18:32:09:622,1.2269,0.0653,8.2416,71.7281,0.115,-0.0162,-0.3603,134.41
18:32:09:644,0.7018,-0.0184,8.2254,71.4972,-0.0702,0.0312,-0.3879,134.82
18:32:09:663,0.3129,-0.0107,8.4366,71.2366,-0.141,0.0381,-0.3464,135.26
18:32:09:681,0.1512,0.2757,8.3862,71.1671,-0.1096,-0.0205,-0.2916,135.65
18:32:09:702,0.0817,0.6083,8.0821,70.9363,-0.0564,-0.1003,-0.2554,135.98
18:32:09:721,-0.1017,0.8636,7.807,70.8942,-0.0154,-0.1242,-0.2282,136.29
18:32:09:741,-0.3468,1.1357,7.4412,70.6152,-0.017,-0.0018,-0.1606,136.56
18:32:09:761,-0.2712,1.432,7.2863,70.4163,-0.0607,0.1595,-0.0771,136.74
18:32:09:782,0.0394,1.7669,7.3392,69.9128,-0.0899,0.2196,-0.0547,136.81
18:32:09:801,0.3931,2.0348,7.6504,69.8504,-0.0324,0.1525,-0.0888,136.84
18:32:09:821,0.5523,2.163,7.7133,69.5786,0.0187,0.1387,-0.1436,136.92
18:32:09:841,0.4319,2.1077,7.7622,69.3385,-0.017,0.1786,-0.1931,137.06
18:32:09:862,0.3324,1.9352,8.0996,69.3128,-0.0793,0.2068,-0.2123,137.25
18:32:09:881,0.1714,1.7309,8.8737,69.1828,-0.1038,0.2691,-0.1707,137.47
18:32:09:901,0.2133,1.6419,9.4793,69.0726,0.0059,0.317,-0.059,137.62
18:32:09:921,0.3719,1.8841,9.5441,69.0346,0.1347,0.3058,0.0326,137.65
18:32:09:942,0.4085,2.2154,9.4253,68.9168,0.206,0.234,0.056,137.57
18:32:09:961,0.4138,2.5391,9.1793,68.8049,0.1996,0.0993,0.0496,137.47
18:32:09:981,0.4859,2.5197,9.2872,68.7811,0.0261,-0.0785,-0.035,137.4
18:32:10:001,0.229,1.799,10.7622,68.652,-0.1261,-0.1099,-0.0962,137.45
18:32:10:022,-0.3923,0.9479,12.2729,68.5151,-0.0889,0.0354,0.006,137.57
18:32:10:041,-0.8732,0.9852,12.5004,68.1352,0.1198,0.2366,0.3174,137.56
18:32:10:061,0.1406,2.125,11.2743,68.1742,0.1379,0.3394,0.4893,137.16
18:32:10:081,1.1214,2.9107,10.7848,68.1296,-0.1623,0.3005,0.2365,136.55
18:32:10:102,0.5025,2.0729,11.725,68.1009,-0.38,0.144,-0.0866,136.24
18:32:10:121,-0.7683,0.41,12.9624,67.8544,-0.3311,-0.0045,-0.1724,136.31
18:32:10:141,-1.852,-0.9266,13.5517,67.8358,0.0155,-0.0236,0.0193,136.51
18:32:10:161,-2.0108,-1.2662,11.9738,67.6979,0.4349,-0.0077,0.3546,136.49
18:32:10:183,-1.4121,-0.614,9.5795,67.7004,0.5238,-0.037,0.5516,136.08
18:32:10:201,-0.5547,0.0147,8.076,67.6971,0.3274,-0.1503,0.5378,135.46
18:32:10:270,0.1563,0.3181,7.6591,67.8702,0.0154,-0.3106,0.3759,134.87
18:32:10:270,0.3209,0.0762,8.6094,67.8983,-0.2262,-0.3947,0.1965,134.49
18:32:10:271,0.099,-0.4258,9.6818,67.8884,-0.2384,-0.35,0.1263,134.33
18:32:10:283,-0.1953,-0.4506,9.7171,68.061,-0.1304,-0.2078,0.1646,134.24
18:32:10:301,-0.1982,-0.0291,8.956,68.3346,-0.0729,-0.0929,0.2035,134.08
18:32:10:321,-0.2324,0.3562,8.158,68.4923,-0.0638,0.0088,0.2194,133.86
18:32:10:341,-0.2752,0.6233,7.5195,68.6076,-0.0596,0.0237,0.2375,133.61
18:32:10:361,-0.2136,0.8704,7.1376,68.7404,-0.0564,0.0226,0.2562,133.33
18:32:10:381,0.047,1.2048,6.9041,68.9527,-0.0851,0.0014,0.2551,133.03
18:32:10:402,0.6144,1.6485,6.9242,69.2881,-0.1448,-0.0247,0.1635,132.74
18:32:10:422,0.5678,1.9076,7.1475,69.4185,-0.2214,-0.0588,0.0086,132.56
18:32:10:441,0.1712,1.8377,7.645,69.5298,-0.281,-0.0849,-0.0824,132.55
18:32:10:461,-0.2352,1.6192,8.2931,69.4702,-0.2672,-0.1562,-0.0701,132.65
18:32:10:483,-0.2922,1.5082,9.0205,69.6672,-0.2097,-0.2302,-0.0121,132.75
18:32:10:503,-0.0174,1.4504,9.6411,69.7372,-0.1432,-0.1743,0.0283,132.78
18:32:10:521,-0.1253,1.3839,10.3151,69.7189,-0.0324,-0.004,0.056,132.77
18:32:10:541,-0.2855,1.5855,10.2186,69.8143,0.14,0.0727,0.1193,132.7
18:32:10:563,-0.3435,1.999,9.6063,69.9675,0.247,-0.0556,0.1566,132.55
18:32:10:582,-0.0517,2.3127,9.3748,69.7615,0.2002,-0.2382,0.1284,132.38
18:32:10:601,0.2247,2.2948,9.7794,69.7915,0.0799,-0.3303,0.072,132.26
18:32:10:621,0.4368,1.8686,10.6288,69.7334,-0.0287,-0.3266,0.0384,132.21
18:32:10:641,0.474,1.326,11.7375,69.8358,-0.0314,-0.2488,0.073,132.21
18:32:10:663,0.9395,1.1776,11.5991,69.8794,0.0048,-0.1349,0.1545,132.15
18:32:10:681,1.7592,0.9649,11.1443,69.7316,-0.2193,-0.1157,0.0464,131.99
18:32:10:701,1.5816,0.2609,12.391,69.8511,-0.4295,0.0237,-0.1276,131.94
18:32:10:721,0.7981,-0.7269,13.6386,69.8941,-0.3305,0.1488,-0.1441,132.08
18:32:10:741,0.6374,-1.1294,13.5669,69.6934,-0.0441,0.1866,-0.0563,132.23
18:32:10:762,1.0083,-0.9875,12.3234,69.7977,0.1847,0.2036,-0.052,132.27
18:32:10:782,1.349,-0.7958,10.6347,69.8214,0.2774,0.1765,-0.1058,132.31
18:32:10:801,1.4789,-0.4336,9.3125,69.7629,0.2598,0.1334,-0.1867,132.4
18:32:10:822,1.2794,-0.1086,8.2741,69.575,0.1315,0.0865,-0.2602,132.61
18:32:10:841,0.9988,0.2317,7.607,69.4479,-0.1165,0.0189,-0.306,132.87
18:32:10:864,0.8582,0.4745,8.0799,69.447,-0.33,-0.0519,-0.3544,133.22
18:32:10:882,0.7204,0.413,9.102,69.3259,-0.3108,-0.1227,-0.3959,133.62
18:32:10:902,0.4325,0.4141,9.3881,69.205,-0.1469,-0.185,-0.405,134.08
18:32:10:921,0.1554,0.4751,9.2158,69.0924,0.016,-0.1301,-0.364,134.56
18:32:10:941,0.0601,0.6237,8.5552,68.6974,0.1363,-0.0189,-0.3017,134.98
18:32:10:964,0.2088,0.9703,7.6714,68.6639,0.1837,0.036,-0.2639,135.33
18:32:10:982,0.3674,1.2139,7.177,68.4904,0.1342,0.0594,-0.2921,135.62
18:32:11:001,0.2025,1.2001,7.4337,68.3442,0.1118,0.1201,-0.2948,135.94
18:32:11:021,0.0568,1.1884,7.3878,68.1507,0.1209,0.1632,-0.2602,136.26
18:32:11:041,0.0707,1.3677,7.3082,67.9386,0.0927,0.1387,-0.2666,136.53
18:32:11:064,-0.0584,1.3889,7.4618,67.868,0.0256,0.1419,-0.2666,136.82
18:32:11:081,-0.1328,1.2675,7.8525,67.6325,-0.0431,0.1893,-0.2437,137.1
18:32:11:102,-0.4745,1.0596,8.4075,67.5957,-0.0622,0.209,-0.175,137.35
18:32:11:121,-0.6357,1.034,8.9319,67.66,-0.0154,0.202,-0.0441,137.52
18:32:11:141,-0.4453,1.306,9.2393,67.2107,0.0575,0.2052,0.0927,137.55
18:32:11:164,0.0447,1.902,9.2217,67.053,0.099,0.2606,0.1625,137.41
18:32:11:181,0.2032,2.5182,9.1014,66.9853,0.0719,0.2824,0.1529,137.19
18:32:11:201,0.1716,2.8292,9.3556,66.797,-0.0085,0.227,0.1268,136.98
18:32:11:221,0.3535,2.7318,10.0288,66.6968,-0.1272,0.1408,0.0645,136.8
18:32:11:241,0.0408,2.0192,11.2743,66.6358,-0.1783,0.0706,0.0246,136.71
18:32:11:261,-0.5201,1.403,12.381,66.5067,-0.067,0.0881,0.1593,136.67
18:32:11:282,-0.088,1.9642,11.601,66.174,-0.0282,0.1616,0.3035,136.47
18:32:11:302,0.6689,2.2256,10.8451,66.0764,-0.3161,0.103,0.1353,136.1
18:32:11:321,0.5974,0.9468,11.6695,66.085,-0.6622,0.037,-0.1207,135.93
18:32:11:341,-0.0021,-1.1173,14.1259,66.0228,-0.6185,0.0391,-0.274,136.06
18:32:11:361,-1.2784,-2.5588,14.8125,65.7202,-0.0649,0.2318,-0.068,136.36
18:32:11:382,-1.7861,-2.4209,12.2106,65.5738,0.3801,0.2739,0.2732,136.42
18:32:11:402,-1.1664,-1.5376,9.661,65.5535,0.4664,0.0934,0.4563,136.08
18:32:11:421,-0.3645,-0.6291,8.1905,65.1876,0.3035,-0.1019,0.4409,135.55
18:32:11:441,0.1044,-0.1226,7.8938,65.3081,0.0314,-0.2392,0.311,135.05
18:32:11:464,0.0432,-0.1824,8.521,65.5107,-0.2081,-0.2887,0.1864,134.71
18:32:11:481,-0.2357,-0.3958,9.5608,65.6438,-0.2789,-0.2818,0.146,134.52
18:32:11:501,-0.3411,-0.4188,10.1126,65.6756,-0.1959,-0.2424,0.1577,134.38
18:32:11:521,-0.3704,-0.2166,9.9377,65.836,-0.0511,-0.1818,0.1859,134.21
18:32:11:541,-0.4403,0.1283,9.1827,66.177,0.0815,-0.1046,0.229,134.01
18:32:11:561,-0.4056,0.6568,8.0682,66.4277,0.1422,-0.0705,0.2657,133.75
18:32:11:581,-0.2094,1.1827,7.2871,66.5143,0.1283,-0.0886,0.2599,133.45
18:32:11:601,-0.03,1.4551,6.8381,66.7344,0.0719,-0.1551,0.2141,133.16
18:32:11:622,0.0136,1.4977,6.9274,66.7231,-0.001,-0.2142,0.1619,132.93
18:32:11:641,0.0955,1.4633,7.3187,66.6205,-0.0782,-0.2259,0.1114,132.76
18:32:11:661,0.114,1.385,7.9258,66.5899,-0.1203,-0.211,0.0587,132.65
18:32:11:681,0.0644,1.2869,8.384,66.7693,-0.1346,-0.17,0.0352,132.59
18:32:11:702,0.1837,1.3439,8.7432,66.7398,-0.1362,-0.1386,0.0235,132.56
18:32:11:721,0.3793,1.3749,9.3172,66.5912,-0.0692,-0.1434,-0.0079,132.54
18:32:11:741,0.3817,1.4812,9.4178,66.5942,0.0809,-0.1482,-0.0004,132.56
18:32:11:761,0.4966,1.9736,8.9503,66.7607,0.1523,-0.1466,-0.0009,132.57
18:32:11:782,0.6709,2.3378,8.7223,66.9866,0.0852,-0.1637,-0.0425,132.58
18:32:11:802,0.7143,2.3168,9.3415,66.879,-0.0388,-0.1993,-0.0978,132.64
18:32:11:821,0.6484,1.7879,10.5345,67.1394,-0.1064,-0.2025,-0.1223,132.76
18:32:11:841,0.4516,1.0482,11.9516,67.0931,-0.0756,-0.1695,-0.0749,132.92
18:32:11:861,0.346,0.5722,12.8502,67.126,0.1315,-0.0779,0.0571,133.01
18:32:11:881,0.8895,0.781,11.8652,67.07,0.2614,-0.062,0.1374,132.95
18:32:11:901,1.5499,0.8925,10.8996,67.2196,0.0735,-0.1322,0.0198,132.79
18:32:11:921,1.4855,0.5113,11.1803,67.2196,-0.1847,-0.1487,-0.1777,132.78
18:32:11:942,0.9524,-0.5527,12.4552,67.0968,-0.2901,-0.0497,-0.266,132.99
18:32:11:962,0.5147,-1.4995,13.5446,66.6481,-0.0841,0.1584,-0.2165,133.29
18:32:11:981,0.209,-1.5742,12.8235,66.5438,0.3093,0.2159,-0.0765,133.52
18:32:12:001,0.8327,-0.8688,10.8263,66.3221,0.5329,0.1302,-0.0281,133.59
18:32:12:022,1.7059,-0.1261,9.102,66.1806,0.452,0.0871,-0.1793,133.6
18:32:12:041,1.678,0.0908,8.2913,65.814,0.1246,0.1499,-0.3981,133.78
18:32:12:061,0.783,-0.1879,8.5056,65.5358,-0.207,0.2335,-0.4784,134.21
18:32:12:081,0.0635,-0.4858,9.2206,64.9078,-0.3358,0.2079,-0.3901,134.73
18:32:12:101,0.1431,-0.2471,9.7274,64.3833,-0.2501,0.0945,-0.2698,135.15
18:32:12:121,0.8676,0.2869,9.3053,63.8456,-0.1011,-0.0242,-0.2378,135.44
18:32:12:141,1.3108,0.611,8.73,63.7144,-0.0212,-0.0886,-0.3464,135.71
18:32:12:161,0.9862,0.5841,8.2016,63.4006,0.0011,-0.0423,-0.4332,136.11
18:32:12:184,0.5768,0.6748,7.8849,62.9685,0.0272,-0.055,-0.4779,136.6
18:32:12:201,0.3116,0.6991,7.8063,62.4089,0.0953,-0.0939,-0.4843,137.15
18:32:12:221,0.2444,0.8129,7.6275,61.8216,0.1352,-0.0535,-0.4524,137.71
18:32:12:241,0.3974,1.0765,7.5322,61.3526,0.14,0.0093,-0.4545,138.22
18:32:12:265,0.3319,1.252,7.4293,61.1899,0.1241,0.069,-0.447,138.74
18:32:12:327,0.1908,1.4238,7.5474,60.8816,0.115,0.0514,-0.4279,139.23
18:32:12:327,-0.0494,1.4492,7.6115,60.5371,0.0911,-0.0492,-0.389,139.71
18:32:12:328,-0.1335,1.3723,7.9883,60.3204,0.1065,-0.095,-0.2517,140.16
18:32:12:341,0.3339,1.703,7.98,59.8421,0.1533,-0.0284,-0.1058,140.45
18:32:12:361,0.9893,2.287,8.1198,59.3892,0.189,0.0833,-0.1345,140.57
18:32:12:381,0.9104,2.6011,7.6328,59.0734,0.238,0.0322,-0.216,140.71
18:32:12:406,0.7115,2.8176,6.5608,58.888,0.0245,-0.2696,-0.2852,140.94
18:32:12:422,0.797,2.2217,7.8138,58.6012,-0.4237,-0.5544,-0.3629,141.3
18:32:12:441,0.7609,1.0486,11.1616,58.1463,-0.7356,-0.457,-0.3485,141.78
18:32:12:461,0.2292,-0.0997,14.1011,57.5832,-0.6739,-0.0886,-0.191,142.22
18:32:12:481,-0.4082,0.002,14.5694,57.4457,-0.3784,0.2771,0.1619,142.45
18:32:12:503,0.4426,1.0912,13.4418,56.7563,-0.2523,0.3452,0.311,142.23
18:32:12:521,0.8938,1.589,13.333,56.3756,-0.2209,0.2856,0.1534,141.84
18:32:12:541,0.3731,1.0035,13.4722,56.0124,-0.0755,0.1988,0.0347,141.64
18:32:12:561,-0.5399,0.2707,13.2076,55.7047,0.2257,0.1408,0.0986,141.58
18:32:12:582,-0.5534,0.0029,11.8251,55.348,0.5249,0.103,0.2317,141.45
18:32:12:601,-0.0376,-0.0104,10.0761,54.7974,0.5585,0.1105,0.245,141.18
18:32:12:621,0.144,-0.2527,9.1722,54.7193,0.3168,0.1254,0.1119,140.88
18:32:12:641,-0.2881,-0.7271,9.2434,54.5349,0.0756,0.1073,-0.002,140.73
18:32:12:662,-0.7462,-1.1433,9.6004,54.2353,-0.0383,0.0205,-0.0371,140.72
18:32:12:681,-1.1629,-1.3207,9.6527,54.2312,-0.0691,-0.0535,0.0187,140.75
18:32:12:701,-1.1423,-1.1228,9.3486,53.9757,-0.0585,-0.0598,0.1481,140.73
18:32:12:721,-0.7472,-0.5484,8.717,53.9069,-0.0314,-0.0369,0.2578,140.56
18:32:12:742,-0.3425,0.0138,8.1576,53.6514,0.0203,-0.0513,0.3195,140.27
18:32:12:761,0.0191,0.4735,7.6861,53.499,0.0724,-0.0992,0.3504,139.9
18:32:12:781,0.5455,0.8682,7.5116,53.5148,0.1491,-0.1471,0.3275,139.5
18:32:12:801,1.1098,1.2584,7.3638,53.4904,0.2066,-0.128,0.2221,139.14
18:32:12:822,1.2373,1.4624,7.2724,53.2333,0.1981,-0.1695,0.039,138.89
18:32:12:841,0.87,1.5995,7.115,53.1244,0.1475,-0.1509,-0.0675,138.86
18:32:12:861,0.5397,1.5954,7.4582,53.062,0.0155,-0.1296,-0.1606,138.95
18:32:12:881,0.1854,1.4427,8.1778,53.2317,-0.0729,-0.0412,-0.1825,139.14
18:32:12:902,0.0061,1.3498,8.7161,52.952,-0.1224,0.07,-0.1452,139.35
18:32:12:921,0.2708,1.2864,9.1298,53.103,-0.1836,0.2233,-0.1143,139.5
18:32:12:941,0.4092,1.244,9.6726,53.0826,-0.1666,0.2963,-0.1425,139.6
18:32:12:961,0.0697,1.2321,9.9823,52.9063,-0.0127,0.2052,-0.1388,139.72
18:32:12:982,-0.2495,1.3452,9.6927,52.4793,0.1379,0.0695,-0.0446,139.85
18:32:13:001,-0.079,1.7613,9.2795,52.2284,0.1667,-0.0758,0.0305,139.89
18:32:13:021,0.3388,2.0238,9.2629,51.9092,0.0793,-0.1865,0.0347,139.85
18:32:13:041,0.5752,1.9521,9.6997,51.5286,-0.0729,-0.2967,-0.018,139.83
18:32:13:061,0.6843,1.5775,10.4777,51.057,-0.2203,-0.3601,-0.0462,139.88
18:32:13:083,0.7982,1.2014,11.4462,50.8869,-0.2549,-0.2935,-0.019,139.96
18:32:13:101,1.0673,1.104,11.3491,50.3448,-0.2863,-0.1988,0.0619,140.01
18:32:13:121,1.7128,0.8504,11.1932,49.9438,-0.5152,-0.1338,0.0262,139.95
18:32:13:142,2.0644,0.2014,12.4201,49.7347,-0.7393,0.0029,-0.1729,139.92
18:32:13:161,1.3564,-1.1551,14.1706,49.478,-0.6499,0.0759,-0.3395,140.1
18:32:13:182,0.4558,-2.2939,14.4838,49.2799,-0.2006,0.1052,-0.3129,140.48
18:32:13:202,1.8813,-3.1005,12.7267,49.0613,0.2912,0.0333,-0.397,140.82
18:32:13:221,1.1134,0.0739,10.6358,48.973,0.7288,-0.0386,-0.5418,141.27
18:32:13:241,2.611,0.3426,8.6877,48.7956,0.8645,-0.0998,-0.6083,141.88
18:32:13:261,2.9155,0.2257,8.0331,48.3559,0.733,-0.046,-1.0305,142.58
18:32:13:283,1.6797,-0.2091,8.3002,48.2366,0.5137,-0.0859,-1.262,143.75
18:32:13:302,0.677,-0.9292,8.8344,48.1992,0.3093,-0.1014,-1.1321,145.19
18:32:13:321,0.3968,-0.8956,9.0444,47.8112,0.1597,0.0029,-0.8362,146.49
18:32:13:341,-0.1963,0.1731,8.8483,47.6372,0.1145,0.1185,-0.5168,147.43
18:32:13:361,0.0645,0.855,8.2541,47.3623,0.1677,0.2468,-0.298,147.99
18:32:13:383,0.517,1.1948,7.8033,47.0768,0.2768,0.2356,-0.2575,148.29
18:32:13:401,0.5225,1.6294,7.0073,46.8679,0.3487,0.0168,-0.3491,148.53
18:32:13:422,0.3088,2.0443,6.3683,46.4666,0.2981,-0.1408,-0.4539,148.92
18:32:13:441,0.2503,2.0114,5.788,46.2855,0.0868,-0.1259,-0.5434,149.45
18:32:13:461,-0.2619,1.9841,6.3317,46.1709,-0.1549,0.0099,-0.579,150.07
18:32:13:483,-0.2621,1.8607,7.0857,45.7176,-0.2725,0.1941,-0.529,150.72
18:32:13:501,-0.1831,1.6567,7.6913,45.4398,-0.2927,0.2159,-0.4976,151.28
18:32:13:521,-0.1718,1.4988,8.2884,45.2984,-0.2592,0.1195,-0.488,151.8
18:32:13:542,-0.1114,1.6011,8.6204,45.0469,-0.224,0.1887,-0.4321,152.32
18:32:13:561,0.2392,1.9702,8.517,44.9293,-0.273,0.3138,-0.3933,152.77
18:32:13:583,-0.0297,2.2318,9.0411,44.4724,-0.3114,0.4128,-0.3597,153.17
18:32:13:601,-0.0012,2.2337,9.3233,44.3567,-0.2602,0.3176,-0.3395,153.51
18:32:13:622,-0.2963,2.6186,9.7438,44.0359,-0.1469,0.2036,-0.2602,153.84
18:32:13:641,0.1968,2.5321,9.8704,43.6818,-0.1527,0.1307,-0.2399,154.1
18:32:13:661,0.522,1.9749,10.7536,43.5765,-0.2475,0.1807,-0.2879,154.35
18:32:13:684,0.3944,1.4543,12.0665,43.64,-0.2225,0.2356,-0.2959,154.64
18:32:13:702,-0.2813,1.5653,12.4967,43.3241,-0.1128,0.3351,-0.1707,154.94
18:32:13:721,-0.3096,2.149,11.9963,43.0857,-0.1415,0.3814,-0.0291,155.09
18:32:13:741,0.1399,2.3574,12.3757,42.9608,-0.2469,0.2633,-0.092,155.07
18:32:13:761,0.3328,1.4297,13.2102,42.9046,-0.19,0.0695,-0.274,155.14
18:32:13:784,-0.1297,-0.1814,13.6152,42.7126,0.0501,-0.0008,-0.3778,155.43
18:32:13:801,-0.748,-1.3377,12.8193,42.7007,0.3737,0.0658,-0.2927,155.85
18:32:13:821,-0.9147,-1.3497,10.4836,42.7874,0.5414,0.1078,-0.142,156.17
18:32:13:841,-0.6379,-0.878,8.4483,42.5244,0.3924,0.0189,-0.1117,156.3
18:32:13:862,-0.3297,-0.4708,7.632,42.4324,0.0352,-0.1796,-0.224,156.41
18:32:13:884,-0.4439,-0.7504,8.4492,42.3088,-0.3135,-0.3856,-0.3603,156.68
18:32:13:902,-0.6384,-1.341,9.7285,42.3899,-0.4519,-0.5187,-0.4066,157.12
18:32:13:921,-1.152,-1.4717,10.4195,42.5208,-0.3816,-0.4431,-0.2964,157.63
18:32:13:942,-1.2841,-1.1321,9.6718,42.7406,-0.3007,-0.2408,-0.0632,157.99
18:32:13:961,-0.9262,-0.3301,8.6355,43.095,-0.2943,-0.0226,0.1412,158.07
18:32:13:984,-0.5072,0.3672,7.6568,43.4767,-0.3417,0.1068,0.237,157.9
18:32:14:003,-0.3486,0.8363,7.742,43.6694,-0.3066,0.004,0.22,157.61
18:32:14:021,-0.2526,0.8363,8.2404,44.17,-0.0468,-0.1929,0.2098,157.34
18:32:14:041,-0.0404,1.2209,7.9276,44.4272,0.172,-0.2675,0.1885,157.1
18:32:14:061,0.2799,1.6455,7.2301,44.9992,0.1709,-0.153,0.1311,156.88
18:32:14:084,0.3861,1.9517,7.0666,45.5114,0.0511,-0.0364,0.0108,156.73
18:32:14:102,-0.0023,1.8902,7.53,45.896,0.0043,-0.0566,-0.1026,156.7
18:32:14:121,-0.3547,1.7657,7.657,46.2658,-0.0809,-0.1189,-0.1569,156.81
18:32:14:141,-0.1883,1.6891,8.5152,46.6259,-0.1974,-0.1434,-0.2096,156.98
18:32:14:161,0.084,1.5169,10.0354,46.8487,-0.1415,-0.1833,-0.2985,157.21
18:32:14:184,-0.2659,1.3006,10.7978,47.0959,0.0666,-0.1189,-0.2996,157.55
18:32:14:201,-0.4327,1.6099,10.3772,47.3884,0.2007,-0.005,-0.2123,157.88
18:32:14:221,-0.1903,2.0416,9.597,47.7174,0.1438,0.0727,-0.1894,158.11
18:32:14:241,-0.0733,2.0574,9.7691,47.9496,-0.0207,0.0381,-0.2176,158.32
18:32:14:261,0.0523,1.4279,10.8603,48.1573,-0.0995,-0.038,-0.2011,158.55
18:32:14:284,0.4716,0.6914,12.0763,48.3578,-0.0084,-0.0561,-0.125,158.76
18:32:14:301,0.8901,0.4087,12.3221,48.562,0.1576,-0.0061,-0.0403,158.89
18:32:14:321,1.4687,0.7924,11.2924,48.5417,0.1592,-0.0056,-0.0489,158.92
18:32:14:379,2.4467,1.048,10.543,48.8527,-0.1793,-0.0891,-0.3368,158.96
18:32:14:379,2.1356,0.4309,11.5944,49.0061,-0.519,-0.1354,-0.7371,159.33
18:32:14:381,0.7932,-1.339,13.0657,49.3136,-0.5695,-0.0476,-0.8686,160.16
18:32:14:401,-0.5281,-2.6634,13.9677,49.551,-0.1852,0.0242,-0.6498,161.14
18:32:14:421,0.0317,-2.4617,12.1299,49.9791,0.361,-0.0545,-0.2724,161.86
18:32:14:441,1.8658,-1.1652,9.4539,50.1385,0.5499,-0.1929,-0.233,162.16
18:32:14:461,3.225,-0.4707,7.746,50.3882,0.4137,-0.2989,-0.5082,162.42
18:32:14:481,3.2252,-0.2629,7.0704,50.794,0.1124,-0.3079,-0.8548,163
18:32:14:502,2.0798,-0.4657,7.3158,51.2088,-0.2182,-0.2499,-1.0624,163.98
18:32:14:521,0.9007,-0.7255,8.1372,51.1449,-0.4237,-0.1791,-1.0432,165.2
18:32:14:541,0.2996,-0.4165,8.6251,51.5383,-0.4503,-0.1706,-0.899,166.38
18:32:14:561,0.25,0.0611,8.8839,51.8298,-0.3608,-0.219,-0.7781,167.4
18:32:14:585,0.4353,0.4514,9.0858,52.2042,-0.1644,-0.2116,-0.7084,168.28
18:32:14:603,0.4123,0.8222,8.6038,52.1995,0.0522,-0.169,-0.6898,169.08
18:32:14:621,0.1358,1.0714,7.9014,52.504,0.1432,-0.0199,-0.6749,169.86
18:32:14:641,-0.1349,1.2248,7.3103,52.6169,0.1374,0.1169,-0.6147,170.61
18:32:14:662,0.0641,1.4517,7.2356,52.7286,0.1188,0.1462,-0.5923,171.29
18:32:14:681,0.2001,1.569,7.339,52.9655,0.0927,0.2036,-0.6392,171.94
18:32:14:702,0.2185,1.5107,7.7218,53.2448,0.0426,0.268,-0.6977,172.64
18:32:14:721,0.0171,1.3386,8.2855,53.3885,0.0479,0.316,-0.7201,173.4
18:32:14:742,-0.4648,1.0736,8.784,53.5127,0.0655,0.3548,-0.6573,174.18
18:32:14:761,-0.6622,1.1121,9.1581,53.2076,0.1102,0.3367,-0.5082,174.89
18:32:14:781,-0.4582,1.4795,9.5296,53.1916,0.1826,0.2755,-0.3709,175.43
18:32:14:801,-0.1932,2.0934,9.6558,53.161,0.2737,0.2526,-0.2714,175.81
18:32:14:821,0.0514,2.6441,9.3937,53.0017,0.2625,0.2537,-0.2501,176.08
18:32:14:841,0.2547,2.6333,9.5732,52.9393,0.1081,0.176,-0.3294,176.32
18:32:14:861,-0.0345,1.7585,11.0948,52.7659,0.0267,0.0929,-0.3986,176.66
18:32:14:881,-0.4461,0.7438,12.5069,52.5643,0.0645,0.1376,-0.306,177.09
18:32:14:902,-0.4644,0.7324,12.3605,52.6121,0.0134,0.2819,-0.1223,177.4
18:32:14:921,0.0145,1.2382,12.3788,52.2882,-0.1974,0.324,-0.1154,177.49
18:32:14:941,0.2619,1.3232,12.9475,52.0444,-0.3284,0.2712,-0.2746,177.57
18:32:14:961,-0.0614,0.2356,13.4642,51.9566,-0.3103,0.193,-0.4651,177.84
18:32:14:985,-1.2411,-1.2101,14.141,51.6496,-0.0106,0.0487,-0.4864,178.34
18:32:15:002,-2.3093,-1.9606,13.1507,51.6354,0.5366,-0.0375,-0.1665,178.87
18:32:15:021,-2.0493,-1.2408,10.1136,51.2203,0.7751,-0.0875,0.2077,179.04
18:32:15:041,-0.8404,0.088,7.7716,51.2941,0.5936,-0.2472,0.303,178.78
18:32:15:061,0.1452,0.7308,7.6169,51.2077,0.2433,-0.4458,0.1199,178.44
18:32:15:081,0.2508,0.5374,8.8197,50.9973,0.0165,-0.5698,-0.1111,178.33
18:32:15:101,-0.1802,-0.0911,10.1631,50.916,0.0038,-0.499,-0.1867,178.5
18:32:15:121,-0.7163,-0.4901,10.5582,51.3619,0.0932,-0.277,-0.0771,178.74
18:32:15:141,-0.9213,-0.372,9.8774,51.4604,0.1624,-0.0423,0.105,178.84
18:32:15:161,-0.7287,0.0627,9.0279,51.8949,0.2364,0.036,0.2269,178.7
18:32:15:181,-0.4282,0.4815,8.0486,51.9473,0.3375,-0.0109,0.2934,178.41
18:32:15:201,-0.3244,0.7603,7.1244,52.4614,0.3599,-0.0726,0.3232,178.05
18:32:15:222,-0.5578,0.69,6.9839,52.396,0.3445,0.0003,0.4302,177.67
18:32:15:242,-0.6369,0.8216,6.8625,52.6326,0.2721,0.1467,0.6187,177.16
18:32:15:261,0.0984,1.5343,6.8134,52.6414,0.1459,0.1776,0.6176,176.41
18:32:15:281,0.7614,2.1599,6.885,52.8906,0.0075,0.2106,0.4036,175.65
18:32:15:302,0.6587,2.3221,6.98,52.6118,-0.1218,0.1243,0.1268,175.14
18:32:15:321,0.1037,1.9724,7.6981,52.6076,-0.2198,0.02,-0.0568,174.95
18:32:15:341,-0.4172,1.4744,8.7763,52.3437,-0.1884,-0.0236,-0.0989,174.98
18:32:15:361,-0.3903,1.3989,9.3997,52.4045,-0.0122,-0.1514,-0.0648,175.07
18:32:15:385,-0.1183,1.9003,9.35,52.1899,0.1592,-0.2717,-0.0733,175.14
18:32:15:405,0.0038,2.3867,8.7495,52.219,0.1038,-0.2318,-0.1436,175.24
18:32:15:421,-0.1489,2.5795,8.73,52.5052,-0.0798,-0.17,-0.2096,175.44
18:32:15:441,-0.324,2.338,9.6654,52.5946,-0.215,-0.1604,-0.2272,175.68
18:32:15:461,-0.5666,1.7516,10.8534,52.3697,-0.2336,-0.1487,-0.1548,175.94
18:32:15:481,-0.4422,1.3734,11.5772,52.5145,-0.1458,-0.1551,-0.0073,176.11
18:32:15:501,0.4547,1.4721,10.8569,52.6465,-0.1905,-0.1338,0.0762,176.11
18:32:15:521,1.6001,1.6239,10.3777,52.9416,-0.5605,-0.1056,-0.0771,176.02
18:32:15:543,1.6131,0.7436,12.0618,52.8728,-0.9342,0.0258,-0.3661,176.09
18:32:15:561,0.5881,-0.9022,13.8926,53.1216,-0.9209,0.1829,-0.4444,176.48
18:32:15:581,-0.4399,-2.0044,15.0909,53.2363,-0.4657,0.2233,-0.3022,176.95
18:32:15:601,-0.253,-1.8866,14.0851,53.1574,0.2992,0.0094,-0.018,177.25
18:32:15:622,1.5165,-0.7627,10.986,53.2977,0.7027,-0.2674,0.0225,177.24
18:32:15:641,2.8998,0.2529,8.7955,53.393,0.5127,-0.2877,-0.1931,177.21
18:32:15:661,3.154,0.4404,8.5682,53.5595,0.1736,-0.194,-0.5402,177.44
18:32:15:681,1.9367,-0.0804,9.242,53.8002,0.007,-0.1285,-0.7238,178.05
18:32:15:702,0.6583,-0.4658,9.5088,53.7822,-0.0191,-0.0689,-0.6663,178.86
18:32:15:721,0.0639,-0.1983,9.3656,53.808,0.0549,-0.0864,-0.4971,179.6
18:32:15:741,0.1727,0.4458,8.8348,53.6256,0.1331,-0.137,-0.3768,180.15
18:32:15:761,0.2274,0.8875,8.2994,53.5389,0.2194,-0.2046,-0.3187,180.57
18:32:15:781,0.3016,1.2754,7.5052,53.4785,0.3109,-0.2627,-0.274,180.93
18:32:15:801,0.4479,1.7646,6.6034,53.4508,0.287,-0.2786,-0.2921,181.25
18:32:15:821,0.5747,2.1658,6.382,53.3862,0.1741,-0.1759,-0.3374,181.59
18:32:15:841,0.7986,2.1947,6.765,53.2177,0.0229,0.0258,-0.4289,181.97
18:32:15:861,0.6965,1.913,7.9037,53.0901,0.015,0.1329,-0.5168,182.43
18:32:15:881,0.4645,1.6292,8.615,52.8584,0.1858,0.1547,-0.5407,182.97
18:32:15:902,0.2547,1.5824,8.2458,52.8253,0.3008,0.1408,-0.5088,183.54
18:32:15:922,0.2152,1.6777,8.0729,52.6614,0.2822,0.1914,-0.4476,184.07
18:32:15:941,0.1965,1.8686,8.0931,52.5872,0.2343,0.2739,-0.3837,184.52
18:32:15:961,0.14,2.0285,8.0891,52.4615,0.1571,0.2654,-0.3422,184.89
18:32:15:981,0.0197,2.1372,8.8884,52.3561,0.1331,0.2106,-0.3028,185.2
18:32:16:003,-0.1951,2.411,9.3617,52.2354,0.1544,0.1893,-0.249,185.48
18:32:16:022,-0.3945,2.5495,9.594,51.8826,0.082,0.2186,-0.1857,185.71
18:32:16:041,-0.2874,2.4052,10.21,51.5831,-0.0574,0.218,-0.1415,185.85
18:32:16:061,-0.3642,1.9636,11.1634,51.5669,-0.1064,0.1978,-0.101,185.95
18:32:16:081,-0.5104,1.8782,11.617,51.3037,-0.0441,0.2031,-0.0089,186
18:32:16:102,-0.0663,2.252,10.5417,51.3586,-0.1027,0.1797,0.0645,185.95
18:32:16:121,0.6135,2.2453,10.139,51.2034,-0.3731,0.0445,-0.0318,185.82
18:32:16:142,0.4701,1.6532,11.0592,50.9008,-0.6009,-0.0614,-0.1628,185.82
18:32:16:161,-0.1115,0.7793,12.4716,50.7355,-0.5434,-0.0561,-0.1665,185.99
18:32:16:181,-0.4593,0.0969,12.9582,50.6644,-0.2267,-0.0157,-0.1106,186.16
18:32:16:201,-0.6617,-0.3624,11.9591,50.7237,0.065,0.028,-0.0355,186.26
18:32:16:222,-0.6731,-0.3364,10.265,50.6327,0.0666,0.0929,-0.0057,186.27
18:32:16:241,-0.7884,-0.3043,9.308,50.5002,-0.1463,0.1312,0.0214,186.23
18:32:16:262,-0.5336,-0.2032,9.3845,50.6088,-0.339,0.0578,0.0182,186.16
18:32:16:281,-0.3017,-0.2862,9.6261,50.4126,-0.43,-0.079,-0.0356,186.11
18:32:16:303,-0.485,-0.422,10.0875,50.3674,-0.3758,-0.2057,-0.0547,186.13
18:32:16:323,-0.7595,-0.381,10.0432,50.3201,-0.1916,-0.2185,0.0305,186.19
18:32:16:341,-0.8121,0.0091,9.0116,50.2916,-0.0473,-0.1514,0.1566,186.14
18:32:16:361,-0.6764,0.5317,7.8216,50.2495,-0.0042,-0.1631,0.2343,185.95
18:32:16:434,-0.4161,0.8298,7.3081,50.2259,-0.001,-0.276,0.2503,185.67
18:32:16:435,-0.2245,0.802,7.6846,50.4236,0.0213,-0.3047,0.2322,185.38
18:32:16:435,-0.2883,0.8331,7.7448,50.4035,0.0629,-0.2589,0.2152,185.12
18:32:16:441,-0.2513,0.982,7.5453,50.5195,0.0453,-0.1737,0.2072,184.87
18:32:16:461,-0.193,1.1937,7.7374,50.6096,0.0277,-0.161,0.1752,184.62
18:32:16:481,-0.0816,1.3684,8.0326,50.9187,0.0863,-0.162,0.1694,184.41
18:32:16:502,0.2591,1.7449,7.8949,51.1272,0.0874,-0.1285,0.1502,184.2
18:32:16:524,0.5085,2.103,8.143,51.2007,0.0394,-0.0907,0.0863,184.02
18:32:16:541,0.7236,2.2632,8.8073,51.4489,0.0368,-0.1173,-0.0095,183.9
18:32:16:561,0.4853,2.2161,9.6636,51.6066,0.1161,-0.0774,-0.0914,183.89
18:32:16:582,0.0202,2.1935,9.4797,51.6769,0.1289,-0.0167,-0.1,183.98
18:32:16:601,0.0384,2.2579,9.515,51.865,0.016,-0.0242,-0.092,184.09
18:32:16:625,0.1894,2.0403,10.467,51.9364,-0.0606,-0.0641,-0.1101,184.17
18:32:16:641,0.1363,1.4944,11.4642,52.0236,-0.0659,-0.087,-0.0872,184.28
18:32:16:662,0.221,0.8999,12.3544,51.8656,0.0197,-0.1093,-0.0009,184.36
18:32:16:681,0.2944,0.9406,12.3532,52.1039,0.2151,-0.0614,0.1422,184.37
18:32:16:702,1.0995,1.5217,10.611,52.2412,0.1566,-0.1301,0.1358,184.19
18:32:16:721,1.8296,1.7338,10.0062,52.429,-0.1799,-0.227,-0.0771,184.02
18:32:16:741,1.8406,0.874,11.1257,52.581,-0.4976,-0.2158,-0.3475,184.1
18:32:16:761,1.1044,-0.482,12.2866,52.7916,-0.5812,-0.0854,-0.4454,184.49
18:32:16:781,0.4485,-1.4832,13.3615,52.7727,-0.3412,0.0807,-0.3491,184.98
18:32:16:801,0.6735,-1.4335,12.4373,52.7809,0.0921,0.1312,-0.2048,185.35
18:32:16:823,1.2155,-0.781,10.0251,52.8642,0.271,0.0541,-0.1766,185.54
18:32:16:841,1.8884,-0.1381,8.4592,53.0169,0.1518,-0.0657,-0.2426,185.71
18:32:16:861,2.2653,0.0644,8.4338,52.8692,-0.0681,-0.1855,-0.3885,185.96
18:32:16:881,2.0762,-0.2498,9.2945,52.8961,-0.1703,-0.2366,-0.4747,186.4
18:32:16:903,1.6621,-0.3525,9.8841,52.8079,-0.1197,-0.1998,-0.4657,186.93
18:32:16:921,1.4685,0.0067,9.5918,52.6314,0.0485,-0.0934,-0.3981,187.45
18:32:16:941,1.5434,0.7151,8.5855,52.3607,0.1837,0.0397,-0.4135,187.89
18:32:16:961,1.4477,1.0941,7.4827,52.3806,0.2125,0.1116,-0.4811,188.33
18:32:16:982,1.1164,1.3362,7.0276,52.3096,0.2109,0.1014,-0.5663,188.84
18:32:17:003,0.6555,1.3486,6.7261,52.0159,0.1571,0.1552,-0.6216,189.44
18:32:17:021,0.0991,1.257,6.6794,51.6293,0.0389,0.2335,-0.6419,190.11
18:32:17:042,-0.3649,1.147,7.0672,51.5896,-0.0031,0.1962,-0.5897,190.79
18:32:17:061,-0.3414,1.3397,7.1333,51.3452,-0.0202,0.1126,-0.5258,191.41
18:32:17:081,-0.0131,1.5328,7.2957,51.0966,-0.1069,0.0668,-0.4939,191.97
18:32:17:103,0.1523,1.5103,7.825,50.9618,-0.1862,0.0711,-0.4912,192.49
18:32:17:122,0.0717,1.3205,8.5527,50.9428,-0.1692,0.0999,-0.4476,193.02
18:32:17:142,-0.2109,1.3492,9.023,50.5197,-0.0473,0.0881,-0.347,193.49
18:32:17:161,-0.3808,1.5224,9.4217,50.2428,0.1251,0.0275,-0.2171,193.85
18:32:17:181,-0.5287,1.8936,9.5949,50.2301,0.3211,0.0088,-0.068,194.06
18:32:17:201,-0.5476,2.3305,8.9829,50.1262,0.3051,0.0924,0.0837,194.11
18:32:17:223,-0.1088,2.5206,8.7176,50.0263,0.0049,0.1371,0.1183,193.97
18:32:17:241,0.2909,1.9551,9.8658,49.8288,-0.3252,0.0493,0.0044,193.79
18:32:17:261,-0.212,0.9205,11.9129,49.9261,-0.4056,-0.013,-0.0116,193.75
18:32:17:281,-0.2732,0.2358,12.9179,49.9341,-0.4008,-0.0215,0.0821,193.74
18:32:17:304,0.0515,0.3602,13.5542,49.6898,-0.3848,0.1041,0.1587,193.62
18:32:17:321,0.3322,0.5352,13.3869,49.7044,-0.3784,0.1887,0.1151,193.4
18:32:17:341,0.3491,0.2171,13.0835,49.7604,-0.3827,0.136,0.0246,193.22
18:32:17:361,-0.052,-0.6588,13.5348,49.6325,-0.2304,-0.0029,-0.0403,193.15
18:32:17:381,-0.5651,-1.1648,13.2731,49.6888,0.1656,0.0046,0.0847,193.17
18:32:17:403,-0.5268,-0.7926,10.972,49.6186,0.435,0.0786,0.2578,193.04
18:32:17:422,-0.1081,0.2039,8.5157,49.486,0.411,0.0865,0.3152,192.71
18:32:17:441,0.3302,0.9332,7.0383,49.2745,0.0991,-0.087,0.1885,192.32
18:32:17:461,0.3771,0.6661,7.9372,49.2697,-0.1969,-0.342,-0.0121,192.08
18:32:17:481,0.0444,-0.0546,9.5337,49.3689,-0.1995,-0.4357,-0.0845,192.09
18:32:17:503,-0.2455,-0.4446,10.2434,49.5181,-0.0585,-0.3755,-0.0398,192.19
18:32:17:521,-0.356,-0.4558,9.7044,49.6894,0.0448,-0.178,0.0853,192.23
18:32:17:541,-0.2854,-0.1078,8.8931,49.8257,0.0517,-0.0204,0.1806,192.11
18:32:17:561,-0.1592,0.2148,8.2028,49.9115,0.0698,0.0509,0.2258,191.88
18:32:17:581,0.0183,0.5501,7.4236,50.0589,0.0772,0.0157,0.229,191.59
18:32:17:604,0.0435,0.842,6.9854,50.416,0.0666,-0.0843,0.1912,191.29
18:32:17:622,0.076,0.8966,7.047,50.6302,0.0613,-0.2073,0.1507,191.08
18:32:17:641,0.2245,1.0304,7.4083,50.7115,0.0602,-0.2834,0.1018,190.9
18:32:17:661,0.2652,1.1652,7.6492,50.7484,0.0464,-0.277,0.0347,190.77
18:32:17:682,0.2059,1.2307,7.9687,51.0752,-0.0345,-0.1663,-0.0105,190.72
18:32:17:703,0.2282,1.2574,8.5487,51.3057,-0.1075,-0.0375,-0.0371,190.72
18:32:17:721,0.2197,1.2979,9.2616,51.5868,-0.092,-0.0215,-0.067,190.73
18:32:17:741,0.1812,1.2913,9.9188,51.9099,0.0187,-0.0401,-0.0632,190.78
18:32:17:761,0.3082,1.4882,10.2445,51.9539,0.1715,-0.0348,-0.035,190.83
18:32:17:781,0.6704,1.7691,10.0203,52.0243,0.2604,0.0067,-0.0494,190.84
18:32:17:804,0.8551,1.9433,9.8899,52.1579,0.2109,-0.0071,-0.1393,190.86
18:32:17:821,1.041,1.5983,10.4818,52.1006,0.1033,-0.0045,-0.2565,190.99
18:32:17:841,0.9433,0.9018,11.2126,52.2427,0.073,-0.0263,-0.2916,191.26
18:32:17:862,0.7289,0.4549,11.9931,52.0684,0.1773,-0.0199,-0.1968,191.56
18:32:17:881,1.3862,0.611,11.7179,51.8538,0.2817,0.0647,-0.0877,191.76
18:32:17:904,2.3263,1.1481,10.4399,51.7313,0.0634,0.2425,-0.1772,191.82
18:32:17:921,2.1148,0.9566,10.3921,51.7253,-0.3614,0.3804,-0.4295,191.97
18:32:17:942,0.9327,0.0707,11.6715,51.6991,-0.5152,0.4272,-0.5077,192.38
18:32:17:961,0.324,-0.8691,12.4004,51.5568,-0.3779,0.316,-0.4705,192.89
18:32:17:981,0.0034,-1.318,12.2891,51.3774,-0.0489,0.0695,-0.3363,193.37
18:32:18:004,0.9077,-0.8548,11.0768,51.4007,0.2593,-0.1466,-0.2304,193.72
18:32:18:022,2.2914,0.0544,9.0784,51.5401,0.2055,-0.1466,-0.3693,193.97
18:32:18:041,2.421,0.2027,8.3238,51.4617,-0.0904,-0.0737,-0.6589,194.37
18:32:18:061,1.3441,-0.385,8.7264,51.2682,-0.3113,0.0227,-0.8511,195.1
18:32:18:081,0.0458,-0.7758,9.0068,51.0106,-0.3587,0.0647,-0.8037,196.04
18:32:18:104,-0.45,-0.5413,8.9929,50.6977,-0.2517,-0.03,-0.636,196.92
18:32:18:121,-0.0084,0.0445,8.706,50.6209,-0.1314,-0.1556,-0.5184,197.62
18:32:18:141,0.5681,0.5441,8.6139,50.5577,-0.0361,-0.1817,-0.5072,198.19
18:32:18:161,0.5652,0.826,8.263,50.4392,0.0554,-0.1163,-0.5237,198.75
18:32:18:181,0.3954,0.9917,7.6025,49.9778,0.0543,-0.0423,-0.5152,199.33
18:32:18:204,0.1494,1.0644,7.3973,49.4884,0.0299,-0.0268,-0.4902,199.89
18:32:18:221,-0.0725,1.08,7.3658,49.3033,0.0059,-0.029,-0.4507,200.42
18:32:18:241,-0.1058,1.0554,7.6275,49.2343,0.0038,-0.0401,-0.3853,200.91
18:32:18:261,0.022,1.0102,7.7169,49.0925,-0.0047,-0.0385,-0.3129,201.32
18:32:18:281,0.4012,1.0711,8.1595,48.998,0.0245,-0.0758,-0.2655,201.65
18:32:18:304,0.7194,1.2092,8.6246,48.8375,0.0991,-0.07,-0.2746,201.93
18:32:18:321,0.5234,1.2281,8.5924,48.583,0.1512,0.0189,-0.2527,202.21
18:32:18:342,0.2603,1.3816,8.3414,48.6164,0.0778,0.185,-0.1782,202.47
18:32:18:361,0.1003,1.7282,8.7012,48.8218,0.0219,0.2878,-0.1026,202.63
18:32:18:381,-0.0417,2.1282,8.9653,48.7713,0.0437,0.2345,-0.0776,202.69
18:32:18:405,-0.2577,2.129,9.0145,48.7034,-0.0111,0.062,-0.0627,202.73
18:32:18:422,-0.2111,1.8064,9.7984,48.7193,-0.1777,-0.0939,-0.0526,202.77
18:32:18:496,-0.3308,1.1109,11.5021,48.7679,-0.2491,-0.1439,-0.027,202.8
18:32:18:496,-0.4354,0.5892,12.5882,49.0237,-0.1282,-0.129,0.08,202.81
18:32:18:497,-0.116,0.5298,12.2026,48.9175,-0.1085,-0.0843,0.1758,202.7
18:32:18:507,0.0643,0.7046,12.04,48.9278,-0.2725,0.0253,0.2088,202.49
18:32:18:521,0.0997,0.5177,12.4745,48.7526,-0.3944,0.0136,0.1726,202.23
18:32:18:541,0.0514,-0.3108,13.5208,48.6498,-0.3497,-0.1349,0.0863,202
18:32:18:561,-0.0528,-1.2443,14.5793,48.6035,0.007,-0.1375,0.0523,201.88
18:32:18:582,-0.9446,-1.7191,12.9763,48.7474,0.411,0.1371,0.1992,201.79
18:32:18:601,-1.1546,-1.3198,10.0886,48.8257,0.4733,0.3234,0.4063,201.53
18:32:18:622,-0.7484,-0.3675,8.0103,48.8329,0.3439,0.2649,0.4659,201.01
18:32:18:641,-0.5212,0.2356,6.9719,48.8363,0.0405,-0.0204,0.3866,200.43
18:32:18:662,-0.0705,0.2979,7.961,48.9149,-0.2357,-0.3292,0.2631,199.96
18:32:18:681,0.3684,-0.0058,10.0132,48.9931,-0.1841,-0.4058,0.1561,199.65
18:32:18:704,0.256,-0.178,10.2825,49.009,-0.0249,-0.252,0.1241,199.46
18:32:18:721,0.0041,-0.1278,9.4801,49.2844,0.0629,-0.0146,0.1901,199.31
18:32:18:742,0.1199,0.1783,8.7453,49.5442,0.1273,0.1717,0.2769,199.06
18:32:18:761,0.3512,0.5731,7.8206,49.5614,0.2034,0.1877,0.2758,198.7
18:32:18:781,0.4621,0.8376,7.0795,49.5803,0.2348,0.1137,0.2327,198.34
18:32:18:805,0.2115,0.8487,6.8604,49.6411,0.1912,0.0152,0.1704,198.03
18:32:18:822,-0.3098,0.7006,6.9068,49.6988,0.1433,-0.055,0.1987,197.81
18:32:18:841,-0.3606,0.7171,7.2305,50.0086,0.0549,-0.103,0.2386,197.55
18:32:18:861,-0.2613,0.7921,7.857,50.3771,-0.0036,-0.1258,0.2402,197.26
18:32:18:881,-0.134,0.8925,8.3978,50.6813,-0.0377,-0.136,0.2237,196.96
18:32:18:905,-0.0786,1.0251,8.9213,50.7241,-0.0441,-0.1051,0.1939,196.69
18:32:18:921,-0.2445,1.0339,9.2862,51.0717,-0.0217,-0.0918,0.2162,196.44
18:32:18:945,-0.3323,1.182,9.6438,51.3135,0.0464,-0.0976,0.2716,196.17
18:32:18:961,-0.2537,1.523,9.5358,51.6332,0.1353,-0.1088,0.3403,195.84
18:32:18:981,-0.0889,1.9289,9.1442,51.8317,0.1507,-0.1344,0.3754,195.43
18:32:19:001,0.2746,2.2476,9.1757,51.8847,0.0272,-0.1498,0.3291,195.44
18:32:19:021,0.4273,2.2217,9.9479,51.9977,-0.092,-0.1583,0.2402,195.02
18:32:19:041,0.2727,1.7616,10.8819,51.9192,-0.1122,-0.2339,0.1747,194.65
18:32:19:061,0.2006,1.0494,11.7711,52.0645,-0.0148,-0.3116,0.2018,194.39
18:32:19:081,0.6501,0.8358,11.3755,52.146,0.0123,-0.2744,0.2508,194.22
18:32:19:101,1.6352,0.8077,10.5375,52.146,-0.3262,-0.1972,0.1694,194.01
18:32:19:121,2.3174,0.3349,11.7025,52.3218,-0.7292,-0.0694,-0.0952,193.71
18:32:19:142,1.4675,-0.9841,13.956,52.2803,-0.6541,0.0913,-0.2772,193.49
18:32:19:161,0.0777,-2.0585,14.1167,52.143,-0.1628,0.136,-0.1468,193.6
18:32:19:181,0.0371,-1.7867,11.9746,52.327,0.2934,0.1195,0.1433,193.96
18:32:19:201,1.5905,-0.6958,9.4647,52.3622,0.4025,0.0535,0.2524,194.16
18:32:19:222,3.1235,0.2698,8.0043,52.4809,0.1912,-0.0481,-0.0004,194.01
18:32:19:241,3.1008,0.3277,7.8591,52.4898,-0.1831,0.0003,-0.3709,193.7
18:32:19:261,1.9764,-0.4051,8.8123,52.6443,-0.4428,0.0578,-0.5753,193.67
18:32:19:281,0.7889,-0.9885,9.575,52.4503,-0.4593,0.0312,-0.5982,194.07
18:32:19:305,-0.161,-1.0691,9.7085,52.3108,-0.3369,0.0072,-0.4374,194.73
18:32:19:321,-0.2972,-0.7064,9.088,52.4648,-0.2123,0.0094,-0.2133,195.42
18:32:19:342,0.1672,-0.0571,8.2896,52.495,-0.1665,0.0386,-0.0867,195.94
18:32:19:361,0.4901,0.5424,7.6181,52.4386,-0.1474,0.0908,-0.067,196.18
18:32:19:381,0.409,0.8022,7.2815,52.2276,-0.1117,0.0951,-0.1021,196.28
18:32:19:401,0.145,0.7985,7.2486,52.1062,-0.0116,0.0738,-0.0984,196.36
18:32:19:421,0.0172,0.9193,6.9205,52.114,0.0352,0.0583,-0.0627,196.48
18:32:19:441,0.111,1.1232,6.8009,52.0876,-0.0106,0.0674,-0.0542,196.6
18:32:19:462,0.1209,1.182,7.1259,52.1883,-0.0963,0.0732,-0.0856,196.67
18:32:19:481,-0.0018,0.9849,7.9475,51.996,-0.1234,0.037,-0.0829,196.72
18:32:19:502,0.1724,0.8468,8.8405,51.6906,-0.0702,-0.0151,-0.0723,196.82
18:32:19:521,0.2414,0.7215,9.8193,51.7309,0.0618,-0.022,-0.0366,196.92
18:32:19:542,0.2263,0.8003,10.2507,51.5586,0.2045,0.0434,0.0677,197.01
18:32:19:561,0.4197,1.2449,10.1266,51.6641,0.3093,0.1589,0.1976,197.06
18:32:19:581,0.8877,1.8784,10.0805,51.8475,0.3179,0.3452,0.253,196.98
18:32:19:601,1.0859,2.2381,9.5763,51.787,0.2226,0.4597,0.18,196.74
18:32:19:622,0.6227,1.7882,9.8991,51.7199,0.1278,0.2899,0.0459,196.43
18:32:19:641,0.1264,0.7721,10.8186,51.7008,0.04,0.1339,0.0475,196.21
18:32:19:661,-0.1256,0.1195,11.8633,51.7324,-0.0079,0.2862,0.2045,196.15
18:32:19:681,-0.134,0.3973,11.7485,51.8338,-0.108,0.4091,0.3663,196.08
18:32:19:701,0.3206,0.8248,11.8761,51.8472,-0.2389,0.3341,0.352,195.83
18:32:19:721,0.3625,0.6187,12.161,51.939,-0.339,0.1941,0.2093,195.4
18:32:19:741,-0.1126,-0.3255,12.5555,51.779,-0.4077,0.1009,0.0847,194.99
18:32:19:761,-0.8648,-1.5221,13.1495,51.6836,-0.3135,0.0354,0.1007,194.75
18:32:19:782,-1.5491,-2.2936,13.2257,51.5883,0.0677,0.0599,0.2886,194.66
18:32:19:801,-1.4239,-2.0474,10.9147,51.4952,0.3785,0.0498,0.5159,194.54
18:32:19:821,-0.7893,-1.0712,8.6893,51.3942,0.3237,-0.0098,0.5723,194.22
18:32:19:841,-0.2454,-0.4406,7.7049,51.5931,0.0368,-0.1322,0.4691,193.63
18:32:19:862,-0.0023,-0.5099,8.7552,51.7311,-0.2017,-0.2882,0.3131,192.98
18:32:19:881,-0.1221,-0.9978,10.0474,51.7918,-0.1905,-0.3457,0.237,192.45
18:32:19:901,-0.4263,-1.2212,10.6482,51.8645,-0.0516,-0.219,0.2934,192.1
18:32:19:921,-0.446,-1.0167,10.0299,51.9813,0.106,-0.0087,0.4015,191.83
18:32:19:942,-0.294,-0.4522,8.9355,51.7888,0.2135,0.0711,0.4733,191.49
18:32:19:961,-0.0804,-0.0825,8.2465,51.7932,0.3402,0.0887,0.4952,191.03
18:32:19:981,-0.0548,0.3392,7.4415,52.0065,0.4344,0.0919,0.4638,190.48
18:32:20:001,-0.3906,0.4878,6.4328,52.0613,0.4025,0.0413,0.4366,189.92
18:32:20:022,-0.4924,0.7194,6.1591,51.9799,0.2939,-0.0636,0.4744,189.38
18:32:20:041,0.0996,0.9993,6.3378,51.8402,0.1885,-0.1354,0.4797,188.89
18:32:20:061,0.7619,1.3456,6.5973,51.7243,0.065,-0.1572,0.3834,188.35
18:32:20:081,1.1009,1.5565,7.3632,51.7886,-0.0771,-0.1211,0.2045,187.8
18:32:20:101,0.974,1.4454,8.3953,51.7945,-0.1389,-0.0609,0.0475,187.37
18:32:20:122,0.6061,1.2338,9.1167,52.0799,-0.149,-0.0524,-0.0701,187.13
18:32:20:141,0.3208,0.9577,10.1653,51.967,-0.0867,-0.1024,-0.1335,187.08
18:32:20:161,0.0898,0.7986,10.9698,51.8681,0.1124,-0.0747,-0.0973,187.17
18:32:20:182,0.0177,1.135,10.2549,52.022,0.2018,0.0141,-0.0366,187.33
18:32:20:202,0.1622,1.4657,10.0096,51.8824,0.139,0.0019,-0.0281,187.45
18:32:20:221,0.1039,1.3924,10.3815,51.8306,0.1012,-0.178,-0.0584,187.49
18:32:20:241,0.117,0.9206,11.1639,51.8976,0.1156,-0.3702,-0.0318,187.53
18:32:20:261,0.269,0.5928,11.7606,51.9322,0.2029,-0.3925,0.0736,187.62
18:32:20:281,0.8099,0.9202,10.6748,51.8724,0.0911,-0.4064,0.1444,187.68
18:32:20:309,1.8201,1.1268,10.1613,51.8601,-0.3864,-0.4788,-0.0036,187.62
18:32:20:325,1.842,0.3053,12.5039,52.0524,-0.7899,-0.3494,-0.2384,187.45
18:32:20:341,0.937,-1.2163,15.2873,52.0198,-0.5386,-0.2259,-0.2948,187.44
18:32:20:361,0.1901,-1.9977,15.0045,52.0077,0.1305,-0.0694,-0.0914,187.75
18:32:20:381,0.7129,-1.2371,11.8,52.3433,0.4291,-0.0268,0.0768,188.15
18:32:20:401,2.1914,-0.3966,9.758,52.3512,0.3503,-0.0077,-0.0201,188.28
18:32:20:423,2.7415,0.0063,8.9621,52.3946,0.1784,0.0615,-0.2969,188.19
18:32:20:442,1.9265,-0.278,8.5541,52.5017,0.0086,0.1323,-0.521,188.19
18:32:20:461,0.5931,-0.7866,8.4943,52.6203,-0.0622,0.1653,-0.5237,188.49
18:32:20:481,-0.0733,-0.7978,8.0297,52.7072,-0.0867,0.1456,-0.3943,189.07
18:32:20:546,-0.2209,-0.4422,7.3968,52.8495,-0.1341,0.0647,-0.2804,189.66
18:32:20:547,0.1023,-0.143,7.3195,52.9012,-0.2033,-0.0369,-0.2208,190.11
18:32:20:547,0.3172,0.1956,7.7267,52.7961,-0.1559,-0.0098,-0.2309,190.42
18:32:20:561,0.1582,0.3997,7.7422,52.7136,-0.0201,0.0365,-0.2506,190.68
18:32:20:581,-0.3811,0.4711,7.2691,52.7157,0.1246,0.0083,-0.2144,190.96
18:32:20:601,-0.5621,0.5948,6.7809,52.6314,0.1523,-0.0029,-0.1244,191.26
18:32:20:623,-0.2687,0.8973,6.7049,52.4886,0.0943,0.0434,-0.0792,191.51
18:32:20:641,-0.1177,1.1399,6.922,52.5727,-0.034,0.1462,-0.0973,191.64
18:32:20:662,-0.3208,1.0844,7.2547,52.4194,-0.1735,0.1813,-0.1276,191.71
18:32:20:681,-0.499,0.8252,8.2723,52.2805,-0.2464,0.1552,-0.0893,191.8
18:32:20:701,-0.5213,0.5915,9.4492,52.0162,-0.1932,0.1424,0.0054,191.94
18:32:20:723,-0.2365,0.6723,10.2224,52.0841,-0.043,0.103,0.1225,192.04
18:32:20:742,0.2606,1.2654,10.3611,52.0379,0.1209,0.0711,0.1949,192.04
18:32:20:761,0.6482,1.9484,10.0404,52.0283,0.1411,0.151,0.204,191.9
18:32:20:781,0.6511,2.3711,9.9395,52.1619,0.0581,0.2989,0.1843,191.68
18:32:20:801,0.4991,2.2229,10.1822,52.3387,0.0065,0.2995,0.1731,191.42
18:32:20:823,0.3343,1.5065,10.6978,52.2143,0.0293,0.0493,0.1539,191.19
18:32:20:841,0.1286,0.7203,11.4775,52.1613,0.147,-0.2579,0.2109,191
18:32:20:861,0.2536,0.5358,11.6212,52.1319,0.2125,-0.3515,0.3429,190.84
18:32:20:881,0.9613,0.8769,11.3408,52.3518,-0.0047,-0.1588,0.4201,190.62
18:32:20:902,1.5123,0.8043,12.2703,52.5896,-0.3071,0.2058,0.3408,190.22
18:32:20:923,1.0774,0.0979,13.585,52.8001,-0.2805,0.2707,0.1816,189.71
18:32:20:941,-0.1127,-1.0959,13.9731,52.7292,0.0496,0.0711,0.1481,189.31
18:32:20:961,-0.8752,-1.7865,12.8995,52.7216,0.3812,0.0008,0.3126,189.12
18:32:20:981,-0.7253,-1.5739,10.9214,52.8473,0.4696,0.0844,0.4792,188.97
18:32:21:001,-0.5011,-1.261,9.2169,52.9435,0.378,0.0929,0.5191,188.61
18:32:21:023,-0.6822,-1.0379,8.0976,53.0264,0.1757,-0.0029,0.5314,188.05
18:32:21:042,-0.6037,-0.7653,7.7607,53.1017,-0.0883,-0.1775,0.5569,187.45
18:32:21:061,-0.0195,-0.6028,8.6366,52.9938,-0.2331,-0.3473,0.5175,186.83
18:32:21:081,0.1791,-0.6463,9.1582,52.7816,-0.2443,-0.3936,0.4717,186.21
18:32:21:101,0.3897,-0.5115,9.3168,52.6826,-0.1985,-0.2685,0.4494,185.64
18:32:21:123,0.5604,-0.2198,8.6234,52.9228,-0.1612,-0.1226,0.4206,185.12
18:32:21:142,0.5461,0.072,7.849,53.0373,-0.1527,-0.0694,0.3765,184.61
18:32:21:162,0.4864,0.0878,7.3157,52.9071,-0.191,-0.0779,0.3621,184.13
18:32:21:181,0.545,0.0998,7.7518,53.0084,-0.2054,-0.1466,0.3706,183.7
18:32:21:201,0.9886,0.1198,8.8282,53.0873,-0.0074,-0.1333,0.3903,183.29
18:32:21:223,1.2597,0.6144,8.2799,53.224,0.1544,-0.0247,0.344,182.88
18:32:21:241,1.2867,1.1255,7.3857,53.4393,0.0741,0.1137,0.2546,182.45
18:32:21:261,1.1118,1.3605,7.4188,53.599,-0.1059,0.267,0.1614,182.04
18:32:21:281,1.0266,1.4294,8.0431,53.8366,-0.1809,0.2681,0.0571,181.72
18:32:21:301,0.8207,1.2749,8.75,53.8398,-0.1442,0.1339,-0.0387,181.52
18:32:21:323,0.6811,1.126,9.3449,53.9471,-0.0867,0.0227,-0.0888,181.46
18:32:21:341,0.6384,1.0419,9.9642,54.1144,0.0395,-0.0609,-0.0925,181.51
18:32:21:361,0.6198,1.2146,9.85,54.0523,0.1513,-0.0454,-0.0744,181.62
18:32:21:381,0.5743,1.5353,9.471,54.1237,0.1486,-0.0396,-0.0824,181.74
18:32:21:401,0.4295,1.5831,9.6853,54.1578,0.1081,-0.1296,-0.1191,181.83
18:32:21:426,0.5004,1.3715,10.651,54.2191,0.1193,-0.277,-0.1745,181.92
18:32:21:441,-0.1073,0.7295,11.3052,54.3492,0.1571,-0.3409,-0.1122,182.08
18:32:21:461,-0.4857,0.204,11.929,54.3525,0.1954,-0.2829,0.1428,182.29
18:32:21:481,0.4786,0.6733,11.4084,54.3588,0.1433,-0.1807,0.2886,182.44
18:32:21:501,1.7452,0.9267,10.5324,54.3127,-0.1532,-0.2227,0.1518,182.27
18:32:21:523,2.1779,0.3806,11.5389,54.4871,-0.512,-0.2664,-0.1,181.92
18:32:21:542,1.6337,-0.7732,13.5448,54.4701,-0.4497,-0.2456,-0.2288,181.72
18:32:21:561,0.9367,-1.6429,14.4589,54.6898,-0.0441,-0.0811,-0.1617,181.86
18:32:21:581,0.7376,-1.6628,12.5949,54.6289,0.4169,0.0818,-0.0228,182.16
18:32:21:602,1.372,-0.9516,9.8867,54.7443,0.5148,0.0748,-0.0281,182.39
18:32:21:624,2.1268,-0.3661,8.2692,54.6515,0.3221,0.0306,-0.1755,182.42
18:32:21:641,1.9536,-0.0229,8.174,54.6953,0.024,-0.0135,-0.3709,182.43
18:32:21:661,1.6557,-0.6463,8.6562,54.86,-0.1777,0.0019,-0.5003,182.6
18:32:21:681,0.6752,-0.9471,9.3072,55.0247,-0.2735,0.0397,-0.5056,183.01
18:32:21:701,0.042,-1.0914,9.6644,54.9229,-0.1862,0.0615,-0.3816,183.57
18:32:21:724,-0.2266,-0.642,9.2208,54.9232,0.0006,0.0365,-0.1873,184.16
18:32:21:741,0.1635,0.032,8.2109,54.8012,0.1289,-0.0247,-0.0696,184.61
18:32:21:761,0.466,0.671,7.2398,54.8665,0.1353,-0.038,-0.0281,184.85
18:32:21:782,0.7242,1.0333,6.9081,54.6867,0.0693,-0.0162,-0.0579,184.93
18:32:21:801,0.6421,1.149,6.981,54.7686,0.0357,0.0205,-0.1149,184.95
18:32:21:822,0.316,0.9923,7.1168,54.728,0.0208,0.0839,-0.1074,185.02
18:32:21:842,0.235,1.0266,7.3937,54.7464,0.0363,0.1377,-0.0861,185.14
18:32:21:861,0.4157,1.1537,7.4512,54.656,0.0453,0.1478,-0.0803,185.26
18:32:21:881,0.6522,1.2396,7.615,54.6232,-0.0127,0.1643,-0.1042,185.35
18:32:21:901,0.6987,1.1186,8.3179,54.6101,-0.0585,0.1962,-0.1383,185.43
18:32:21:924,0.405,0.8573,9.1317,54.7911,0.0128,0.2218,-0.1042,185.53
18:32:21:942,0.3568,1.0652,9.0203,54.7408,0.1129,0.2473,-0.0254,185.68
18:32:21:962,0.5207,1.4641,8.6771,54.561,0.0709,0.2643,0.0091,185.8
18:32:21:981,0.3547,1.7209,9.036,54.4183,-0.0047,0.3096,0.0214,185.81
18:32:22:001,-0.1103,1.8259,9.342,54.4183,-0.0143,0.2409,0.0757,185.77
18:32:22:024,-0.0799,1.7391,9.4423,54.3003,-0.1053,0.0988,0.1614,185.74
18:32:22:041,0.3435,1.251,10.5035,54.0247,-0.2096,-0.0508,0.1901,185.64
18:32:22:061,0.3839,0.3647,12.1271,53.9324,-0.2011,-0.03,0.2572,185.45
18:32:22:081,0.4584,0.2597,12.8795,53.7113,-0.0739,0.1627,0.4286,185.23
18:32:22:102,0.9145,0.6669,12.1263,53.445,-0.141,0.317,0.4776,184.94
18:32:22:124,1.1456,0.6961,12.5136,53.4255,-0.2475,0.3394,0.3695,184.42
18:32:22:141,0.6252,-0.0236,13.0517,53.5614,-0.2118,0.2617,0.2407,183.86
18:32:22:161,-0.3263,-1.0953,13.0785,53.4682,-0.1053,0.2047,0.2583,183.43
18:32:22:182,-0.9383,-1.8594,12.9913,53.3574,0.1507,0.1712,0.4222,183.15
18:32:22:201,-0.8971,-1.7294,11.2654,53.231,0.3908,0.1403,0.6224,182.86
18:32:22:224,-0.3844,-1.0033,9.2845,53.0793,0.377,0.0615,0.6836,182.38
18:32:22:241,-0.1313,-0.46,8.3611,53.147,0.2045,-0.0763,0.6075,181.67
18:32:22:261,-0.171,-0.4423,8.5822,53.2154,0.0373,-0.2264,0.5069,180.89
18:32:22:281,-0.4896,-0.7619,9.1472,53.2239,-0.0303,-0.3233,0.4739,180.2
18:32:22:302,-0.649,-0.8305,9.4657,53.1155,-0.0436,-0.3366,0.5521,179.63
18:32:22:324,-0.3299,-0.6421,9.5814,53.1969,-0.0116,-0.285,0.6298,179.1
18:32:22:342,0.1213,-0.3512,9.3377,53.0028,0.0427,-0.2046,0.6501,178.49
18:32:22:361,0.5072,-0.0568,8.8716,52.9596,0.0996,-0.1338,0.6022,177.78
18:32:22:381,0.4823,0.1236,8.3652,53.0111,0.1848,-0.096,0.5431,177.04
18:32:22:401,0.3312,0.3571,7.5278,53.0828,0.2455,-0.0934,0.5175,176.36
18:32:22:424,0.4049,0.6151,6.8293,52.9173,0.2455,-0.1519,0.4968,175.75
18:32:22:441,0.5895,0.9704,6.5905,52.8041,0.1582,-0.2296,0.435,175.16
18:32:22:461,0.9596,1.1937,7.1338,52.8979,0.0613,-0.2893,0.3232,174.6
18:32:22:481,1.1552,1.2557,7.7547,52.9213,-0.0042,-0.2877,0.1896,174.11
18:32:22:501,0.8576,1.0789,8.5415,52.8844,-0.0324,-0.2488,0.0954,173.76
18:32:22:521,0.5912,0.8806,9.302,53.2288,0.0017,-0.2025,0.0991,173.55
18:32:22:542,0.6384,0.9269,9.7146,53.0164,0.0703,-0.162,0.1236,173.46
18:32:22:607,0.5023,1.1409,10.0087,53.1684,0.1763,-0.1141,0.1609,173.36
18:32:22:608,0.3666,1.4609,9.9484,53.1511,0.287,-0.0699,0.2402,173.24
18:32:22:608,0.459,1.8397,9.4959,53.1514,0.303,-0.1242,0.2908,173.07
18:32:22:621,0.7963,2.0747,9.6468,53.2832,0.2284,-0.2728,0.2748,172.81
18:32:22:641,1.0143,1.9263,10.4157,53.1426,0.1651,-0.3867,0.2061,172.48
18:32:22:662,0.8231,1.2674,11.1238,53.1199,0.1608,-0.4064,0.2088,172.19
18:32:22:681,0.589,0.6859,11.5173,53.1333,0.2306,-0.334,0.3126,171.99
18:32:22:701,0.5187,0.6647,11.1705,53.2033,0.3418,-0.252,0.4563,171.79
18:32:22:721,0.9841,1.1553,9.5643,53.3498,0.2093,-0.2861,0.5117,171.48
18:32:22:742,1.9041,1.3396,9.304,53.2243,-0.2437,-0.4096,0.3498,170.96
18:32:22:761,1.9094,0.4075,11.3629,53.1806,-0.52,-0.4245,0.1268,170.33
18:32:22:781,1.1541,-0.9018,13.5401,53.3761,-0.3725,-0.269,0.0773,169.93
18:32:22:801,0.1746,-1.411,13.8996,53.41,0.1672,0.0732,0.2561,169.84
18:32:22:825,-0.3349,-0.6752,10.3674,53.4645,0.4717,0.2431,0.5047,169.85
18:32:22:841,0.5086,0.3767,7.7418,53.5873,0.3051,0.0807,0.5825,169.58
18:32:22:862,1.6042,0.7651,7.6875,53.587,-0.043,-0.2296,0.4031,168.95
18:32:22:881,1.5109,0.3143,9.0955,53.5632,-0.273,-0.3095,0.2274,168.23
18:32:22:901,0.9489,-0.3465,10.1518,53.6584,-0.3464,-0.1551,0.213,167.75
18:32:22:921,0.4698,-0.5361,10.6921,53.6549,-0.216,0.0594,0.3136,167.49
18:32:22:942,0.3725,-0.2388,9.9914,53.858,0.0118,0.1989,0.4393,167.27
18:32:22:961,0.4686,0.2245,8.6888,53.9127,0.1582,0.2361,0.5069,166.93
18:32:22:982,0.6538,0.6254,7.5904,53.7266,0.1656,0.2271,0.5649,166.43
18:32:23:003,1.1238,1.0135,7.4397,53.8094,0.1779,0.201,0.5548,165.82
18:32:23:021,1.317,1.246,7.3083,53.7903,0.2306,0.1802,0.5079,165.15
18:32:23:041,1.1509,1.3286,7.0143,53.6382,0.2279,0.2015,0.4803,164.51
18:32:23:062,1.1068,1.3766,6.8593,53.395,0.1188,0.2324,0.4957,163.9
18:32:23:081,1.4396,1.5417,7.3704,53.3229,0.0017,0.2595,0.4808,163.31
18:32:23:101,1.6705,1.5778,8.003,53.2718,-0.0452,0.2723,0.4095,162.7
18:32:23:121,1.4773,1.3546,8.4373,52.9772,-0.0851,0.2952,0.3445,162.12
18:32:23:142,1.2546,1.0072,9.1837,52.8562,-0.0729,0.3357,0.3397,161.62
18:32:23:161,0.8943,0.8092,9.6889,52.8453,0.0331,0.3005,0.3823,161.2
18:32:23:181,0.7309,0.9145,9.9024,52.5422,0.2055,0.2942,0.4893,160.8
18:32:23:201,0.7527,1.321,9.6137,52.3548,0.3328,0.2899,0.5777,160.35
18:32:23:221,0.7348,1.7388,9.3205,52.5002,0.3567,0.2622,0.6251,159.78
18:32:23:241,0.7893,2.0149,9.2743,52.6095,0.2998,0.1962,0.6165,159.1
18:32:23:261,0.8277,1.6921,9.9479,52.6133,0.2247,0.0786,0.5441,158.35
18:32:23:281,0.3641,0.9455,11.1464,52.586,0.2311,0.0408,0.534,157.62
18:32:23:301,-0.0991,0.6541,11.8084,52.5268,0.3072,0.3,0.6746,156.99
18:32:23:321,0.2677,0.7557,10.9517,52.3472,0.1347,0.5736,0.7448,156.37
18:32:23:342,0.3134,0.9434,11.0471,52.2382,-0.1229,0.5561,0.6975,155.53
18:32:23:361,0.1563,0.7123,11.8695,52.35,-0.2442,0.3735,0.607,154.6
18:32:23:382,0.0051,0.0923,12.4435,52.3321,-0.2261,0.2031,0.5463,153.75
18:32:23:401,-0.398,-0.813,12.7357,52.2446,-0.1245,0.119,0.5702,153.02
18:32:23:421,-0.7841,-1.3571,12.3881,52.0679,0.0959,0.1552,0.7246,152.39
18:32:23:441,-0.7148,-0.9133,10.6668,52.0108,0.2396,0.2154,0.8811,151.74
18:32:23:462,-0.3288,-0.0546,8.9988,51.9005,0.2263,0.2005,0.9232,150.9
18:32:23:482,-0.1097,0.5626,7.7338,51.8898,0.0389,0.0557,0.8385,149.87
18:32:23:501,-0.267,0.5548,7.8206,52.0782,-0.1708,-0.1775,0.7395,148.79
18:32:23:521,-0.0973,0.2035,8.905,51.9378,-0.2033,-0.3883,0.6863,147.83
18:32:23:542,0.1005,0.2166,9.1212,51.9808,-0.1442,-0.3989,0.6735,147
18:32:23:561,0.3316,0.4186,8.7873,51.9427,-0.1383,-0.2483,0.6671,146.25
18:32:23:581,0.5861,0.7911,8.2345,51.8656,-0.2112,-0.1658,0.6117,145.5
18:32:23:601,0.7361,0.7749,8.4031,51.9686,-0.2554,-0.1354,0.493,144.75
18:32:23:622,0.4127,0.4955,8.5783,52.0105,-0.2075,-0.1008,0.4441,144.05
18:32:23:641,0.1624,0.2429,8.3313,52.246,-0.1995,0.0168,0.4829,143.49
18:32:23:662,0.0321,0.4197,7.9827,52.4406,-0.2533,0.0243,0.5202,142.98
18:32:23:681,0.0439,0.5959,8.0603,52.5525,-0.3049,0.0323,0.5351,142.42
18:32:23:702,0.1446,0.7226,8.2743,52.8695,-0.2948,-0.014,0.5228,141.81
18:32:23:721,0.2159,0.7839,8.4798,53.175,-0.297,-0.005,0.4925,141.2
18:32:23:741,-0.0587,0.5357,8.9407,53.3702,-0.3017,0.0509,0.4861,140.6
18:32:23:761,-0.2128,0.4285,9.3508,53.6227,-0.2187,-0.0098,0.5521,140.03
18:32:23:782,-0.0399,0.6874,9.7572,53.736,-0.0473,-0.1019,0.6245,139.48
18:32:23:801,0.637,1.0982,9.7747,53.9808,0.1129,-0.0806,0.6586,138.86
18:32:23:821,1.2301,1.506,9.4868,54.0654,0.1284,0.0402,0.5686,138.15
18:32:23:841,1.4948,1.8369,9.6471,54.181,0.0693,0.1105,0.3488,137.39
18:32:23:862,1.0345,1.4089,9.9967,54.291,0.0347,-0.0124,0.0943,136.73
18:32:23:881,0.1221,0.4871,10.4097,54.5797,-0.0159,-0.186,-0.0036,136.33
18:32:23:901,-0.4005,-0.4295,11.1952,54.5593,-0.0095,-0.2786,0.1284,136.23
18:32:23:921,-0.1122,-0.8274,11.7399,54.7992,0.0773,-0.2051,0.3669,136.23
18:32:23:942,0.7844,-0.3608,11.3704,54.9184,0.1976,-0.0955,0.4952,136.09
18:32:23:961,1.7568,0.3,10.3856,54.9846,0.0996,0.0461,0.427,135.67
18:32:23:981,2.2274,0.3533,10.227,55.1078,-0.1852,0.0386,0.1332,135.09
18:32:24:001,1.5894,-0.4881,11.11,55.349,-0.3204,-0.1125,-0.1681,134.57
18:32:24:022,0.4518,-1.7163,11.8685,55.4668,-0.2591,-0.1876,-0.2325,134.41
18:32:24:041,-0.2773,-2.2937,12.3586,55.5307,0.0432,0.0429,0.0246,134.62
18:32:24:061,0.4072,-1.5738,10.263,55.6734,0.2966,0.2649,0.3317,134.9
18:32:24:081,1.9328,-0.3784,8.3217,55.8123,0.1933,0.1856,0.2902,134.89
18:32:24:102,2.7366,-0.0697,8.0601,55.8763,-0.158,-0.0242,-0.0281,134.5
18:32:24:121,2.2124,-0.5138,9.4669,56.1433,-0.3672,-0.1706,-0.3214,134.14
18:32:24:142,1.0744,-1.2509,10.6833,56.2851,-0.3635,-0.2504,-0.4098,134.16
18:32:24:161,0.1358,-1.419,11.0213,56.4941,-0.1282,-0.096,-0.2102,134.53
18:32:24:182,0.1907,-0.8282,9.895,56.507,0.0608,0.1313,0.0677,135.02
18:32:24:201,0.8843,0.0318,8.6295,56.8209,0.1241,0.234,0.1704,135.27
18:32:24:221,1.199,0.55,7.8476,56.9087,0.1241,0.2191,0.1257,135.19
18:32:24:241,1.1273,0.8617,7.4009,56.9856,0.1252,0.2281,0.0555,135
18:32:24:262,0.8246,0.9714,6.9827,57.1129,0.0714,0.2516,0.0177,134.86
18:32:24:281,0.751,1.0001,6.981,57.1247,0.0256,0.1909,0.0161,134.79
18:32:24:301,0.8997,1.085,7.1243,57.2025,-0.0132,0.1211,-0.0531,134.77
18:32:24:321,0.9173,1.027,7.3259,57.3519,-0.0851,0.11,-0.1505,134.75
18:32:24:342,0.6365,0.5983,7.7073,57.4819,-0.1623,0.0642,-0.2011,134.81
18:32:24:361,0.1989,0.0696,8.7402,57.551,-0.1591,0.0354,-0.158,134.98
18:32:24:381,0.0423,-0.248,9.7635,57.639,-0.0164,0.0509,-0.0473,135.22
18:32:24:402,0.0591,-0.0975,10.2354,57.7667,0.1741,0.1611,0.0949,135.41
18:32:24:421,-0.0404,0.3523,10.0334,57.8345,0.3019,0.4059,0.2716,135.47
18:32:24:443,0.2077,1.0661,9.4541,58.0938,0.3259,0.5358,0.4041,135.36
18:32:24:461,0.7096,1.7572,9.1204,58.2873,0.271,0.3937,0.3461,135.04
18:32:24:481,0.8972,1.6838,9.3492,58.3493,0.1859,0.094,0.172,134.58
18:32:24:501,0.8209,0.8666,10.0896,58.3121,0.1033,-0.2153,0.0517,134.19
18:32:24:521,0.7525,0.0771,11.6463,58.3811,0.1294,-0.3686,0.0475,134
18:32:24:543,0.6701,-0.3213,12.5552,58.5839,0.2785,-0.0652,0.1848,133.95
18:32:24:561,0.792,0.1082,11.6832,58.7496,0.2854,0.3804,0.3674,133.89
18:32:24:581,1.0684,0.7356,10.6734,58.7229,0.0166,0.4991,0.3615,133.67
18:32:24:601,0.7837,0.8348,11.2943,58.8315,-0.1633,0.3192,0.2141,133.22
18:32:24:650,0.1926,0.11,12.1028,58.8845,-0.1058,0.0333,0.1193,132.79
18:32:24:650,-0.3753,-0.6761,12.5428,58.9654,0.0799,-0.104,0.1481,132.55
18:32:24:661,-0.7551,-1.1389,12.1845,59.1337,0.2891,-0.0864,0.3381,132.42
18:32:24:681,-0.3048,-0.8017,11.1908,59.4363,0.4648,-0.0013,0.5202,132.26
18:32:24:701,0.1507,0.0919,9.5428,59.6269,0.5324,0.02,0.5212,131.87
18:32:24:721,0.1823,0.7984,7.9412,59.5952,0.3764,-0.104,0.3802,131.28
18:32:24:742,0.1229,0.8622,7.3756,59.5381,0.0639,-0.318,0.1848,130.68
18:32:24:763,0.0505,0.3473,8.4222,59.8718,-0.1745,-0.5762,0.0187,130.25
18:32:24:781,-0.0361,-0.273,9.8701,60.1157,-0.1692,-0.5937,-0.043,130.06
18:32:24:801,-0.1965,-0.6611,10.4342,60.2409,-0.0664,-0.4037,0.0118,130.07
18:32:24:821,-0.188,-0.6799,9.9999,60.5977,0.0469,-0.1546,0.1454,130.15
18:32:24:844,-0.026,-0.3295,9.1097,60.7691,0.1012,-0.0023,0.2274,130.16
18:32:24:861,0.0603,0.0844,8.3118,60.996,0.1662,0.0807,0.2695,130
18:32:24:881,-0.0835,0.3754,7.3826,61.1486,0.229,0.0706,0.2913,129.74
18:32:24:901,-0.1589,0.5819,6.7948,61.3811,0.2476,-0.0215,0.3222,129.42
18:32:24:921,0.1094,0.8624,6.4796,61.6875,0.1885,-0.0955,0.3275,129.09
18:32:24:944,0.5252,1.2128,6.5342,61.9246,0.0192,-0.0577,0.2572,128.72
18:32:24:961,0.7095,1.3129,7.2889,62.2707,-0.1527,-0.0013,0.1358,128.34
18:32:24:982,0.7381,1.3895,8.2618,62.6328,-0.1617,-0.0481,0.0038,128.03
18:32:25:001,0.5121,1.3746,9.1055,62.6823,-0.116,-0.0955,-0.109,127.88
18:32:25:021,0.0818,1.1636,9.9236,62.9497,-0.0574,-0.0662,-0.1026,127.88
18:32:25:044,-0.0179,1.2584,10.8389,63.234,0.0932,0.0237,-0.0105,128.02
18:32:25:062,0.1372,1.6533,10.8321,63.5498,0.27,0.16,0.0869,128.15
18:32:25:081,0.3924,2.0779,10.2204,63.7972,0.3237,0.2894,0.1321,128.16
18:32:25:102,0.7217,2.2354,9.6961,63.9862,0.1752,0.2175,0.0714,128.05
18:32:25:121,0.9732,1.6013,10.6399,63.9865,-0.0276,0.0136,-0.0835,127.87
18:32:25:143,0.7739,0.0579,12.5909,63.8536,-0.0095,-0.1365,-0.1069,127.77
18:32:25:161,0.849,-1.18,13.3491,63.8139,0.2231,-0.0747,0.0741,127.87
18:32:25:182,1.2705,-0.9805,11.51,64.0264,0.3024,0.0344,0.278,128.01
18:32:25:201,2.1289,-0.2681,10.0831,63.9783,0.0964,0.0285,0.2572,127.94
18:32:25:221,2.2293,0.1346,9.7281,63.8944,-0.1186,0.0179,0.0757,127.6
18:32:25:243,1.1699,0.1702,9.5796,64.0081,-0.2304,0.0014,-0.0297,127.29
18:32:25:262,0.1882,0.241,9.4673,64.1153,-0.2384,-0.046,0.0331,127.2
18:32:25:281,0.2182,0.6737,9.2025,64.1586,-0.2336,-0.1956,0.097,127.23
18:32:25:302,1.0463,1.0387,9.5093,64.3075,-0.273,-0.3782,0.0464,127.2
18:32:25:321,1.8228,0.8176,9.9981,64.4916,-0.364,-0.441,-0.1319,127.11
18:32:25:344,2.0205,0.0415,11.0103,64.5194,-0.455,-0.3297,-0.331,127.07
18:32:25:362,1.3384,-0.851,12.087,64.5874,-0.3912,-0.0891,-0.3965,127.24
18:32:25:381,0.5992,-1.2446,12.0012,64.6096,-0.1628,0.2101,-0.2623,127.63
18:32:25:401,0.428,-0.7755,10.2048,64.7162,0.0315,0.3953,-0.1016,128.11
18:32:25:421,0.3875,-0.0716,8.347,64.5536,0.0943,0.4251,-0.0057,128.41
18:32:25:444,0.472,0.511,6.9313,64.4269,0.0975,0.3128,0.0363,128.52
18:32:25:462,0.3696,0.92,6.0851,64.4981,0.0533,0.1339,0.0597,128.51
18:32:25:481,0.1803,0.9214,6.1556,64.4938,-0.001,-0.0864,0.1012,128.46
18:32:25:501,0.2173,1.0799,6.7935,64.4632,-0.0074,-0.2461,0.1539,128.38
18:32:25:521,0.3123,1.177,7.665,64.5344,0.0576,-0.2642,0.1864,128.28
18:32:25:544,0.6115,1.253,8.0098,64.3554,0.1135,-0.1061,0.1997,128.12
18:32:25:561,0.8447,1.5054,7.8001,64.4081,0.0746,0.0594,0.1593,127.91
18:32:25:581,0.7778,1.5729,7.8708,64.3649,-0.051,0.1233,0.0757,127.68
18:32:25:601,0.6234,1.2725,8.3324,64.4626,-0.1346,0.1334,0.089,127.48
18:32:25:621,1.1537,1.2142,9.082,64.7959,-0.141,0.0961,0.1247,127.38
18:32:25:644,1.6239,1.3664,10.1408,64.8712,0.024,0.0658,0.105,127.27
18:32:25:661,1.7076,1.7513,10.5539,64.8667,0.2726,0.152,0.0842,127.14
18:32:25:681,1.5722,2.1413,9.5111,64.9922,0.345,0.3037,0.0757,127.03
18:32:25:702,1.6212,2.3118,8.7444,65.2857,0.1055,0.2569,-0.0276,126.92
18:32:25:721,1.4614,1.4762,10.4884,65.657,-0.0313,0.0472,-0.1782,126.81
18:32:25:744,0.6069,0.3334,12.045,65.8892,0.0464,-0.0572,-0.1564,126.83
18:32:25:764,0.0924,-0.045,12.2305,66.2882,0.1747,0.0956,0.0496,127.04
18:32:25:782,0.4229,0.2354,11.0843,66.4554,-0.0026,0.2894,0.1763,127.22
18:32:25:802,0.7375,0.5372,11.3054,66.4924,-0.2427,0.3256,0.1289,127.14
18:32:25:821,0.3787,0.1801,11.872,66.5862,-0.3156,0.0999,0.0081,126.91
18:32:25:844,0.1187,-0.9062,12.3775,66.8888,-0.3912,-0.1631,-0.0712,126.75
18:32:25:862,-0.4639,-2.1358,14.0105,66.8982,-0.2501,-0.1397,-0.0489,126.74
18:32:25:881,-1.6038,-2.6949,13.7463,66.798,0.1939,0.1872,0.278,126.83
18:32:25:901,-1.3328,-1.5883,10.5781,66.7882,0.4573,0.3325,0.6219,126.9
18:32:25:921,-0.3136,0.002,7.7966,66.8429,0.3833,0.1786,0.7022,126.58
18:32:25:945,0.6732,0.8368,6.6776,66.7745,0.023,-0.0997,0.5218,125.85
18:32:25:961,0.9148,0.6445,8.1067,67.0015,-0.2277,-0.3633,0.2599,125.04
18:32:25:981,0.5973,-0.0208,9.6246,67.0208,-0.1852,-0.3547,0.1406,124.44
18:32:26:001,0.1672,-0.4276,9.8816,67.3377,-0.0766,-0.1338,0.1965,124.16
18:32:26:021,0.2775,-0.1928,9.2528,67.5037,-0.0063,0.0578,0.2838,124.01
18:32:26:044,0.5295,0.2008,8.7082,67.7326,0.0405,0.1009,0.2567,123.79
18:32:26:061,0.4381,0.2771,8.2265,68.1058,0.0906,0.0418,0.2199,123.46
18:32:26:081,0.2556,0.4135,7.9164,68.3475,0.1438,-0.0066,0.2226,123.17
18:32:26:102,0.3096,0.5937,7.5638,68.6025,0.1544,0.0354,0.2412,122.92
18:32:26:121,0.3457,0.8415,7.2921,68.7389,0.1225,0.0557,0.2189,122.66
18:32:26:145,0.3146,0.8913,7.049,68.8994,0.0421,0.0014,0.1704,122.38
18:32:26:161,0.1262,0.8609,7.4317,69.033,-0.0393,-0.1168,0.1188,122.13
18:32:26:182,0.13,0.803,8.1034,69.0556,-0.0436,-0.1753,0.1103,121.93
18:32:26:201,0.2934,0.8985,8.5081,69.3393,-0.0324,-0.1583,0.1098,121.8
18:32:26:221,0.5264,1.119,8.8077,69.5196,-0.0446,-0.1131,0.0933,121.68
18:32:26:241,0.6852,1.3829,9.2055,69.4994,-0.0361,-0.0795,0.0629,121.56
18:32:26:262,0.7456,1.6979,9.5729,69.6232,0.0128,-0.0657,0.0251,121.46
18:32:26:281,0.8309,1.8847,9.5127,69.8518,0.0139,-0.1147,-0.0276,121.39
18:32:26:301,0.8626,1.7053,9.9402,70.1936,-0.0739,-0.1972,-0.0994,121.37
18:32:26:321,0.9161,1.2342,11.0892,70.331,-0.1266,-0.2712,-0.1388,121.4
18:32:26:344,1.0263,0.5161,12.3668,70.3264,-0.0531,-0.277,-0.1388,121.53
18:32:26:361,0.9698,0.1787,12.608,70.2544,0.122,-0.1397,-0.0318,121.7
18:32:26:381,1.3161,0.5824,11.0494,70.313,0.0948,-0.0982,0.0235,121.88
18:32:26:401,1.7353,0.8086,10.3848,70.2725,-0.1277,-0.2706,-0.0968,121.92
18:32:26:422,1.7974,0.1745,11.3369,70.3353,-0.3347,-0.3664,-0.2432,121.89
18:32:26:441,1.4992,-0.7043,12.6915,70.3557,-0.2906,-0.2552,-0.2325,122
18:32:26:462,1.4887,-1.0339,13.1351,70.0797,-0.0457,-0.0433,-0.1612,122.29
18:32:26:481,1.7066,-0.7756,11.8098,69.9901,0.2476,0.1057,-0.1303,122.59
18:32:26:502,2.1839,-0.4721,9.8872,69.9194,0.2897,0.086,-0.2416,122.8
18:32:26:521,2.3085,-0.5084,9.0305,70.0876,0.1704,0.0525,-0.4124,122.95
18:32:26:541,1.8726,-0.765,8.9476,70.3077,-0.0095,0.1387,-0.5098,123.22
18:32:26:568,1.2058,-1.0203,9.113,70.2,-0.1101,0.209,-0.4917,123.67
18:32:26:582,0.7278,-0.9835,9.2669,70.1119,-0.0723,0.2079,-0.3773,124.24
18:32:26:601,0.7517,-0.4718,8.846,70.0246,0.0416,0.1792,-0.2511,124.8
18:32:26:621,0.8804,0.1584,7.9193,70.0107,0.0932,0.1414,-0.1905,125.23
18:32:26:641,1.0283,0.6255,7.2968,69.9424,0.0634,0.1062,-0.1819,125.52
18:32:26:705,0.9591,0.8396,7.1532,70.0044,0.0538,0.0658,-0.2032,125.73
18:32:26:706,0.7452,0.9376,7.0844,69.8116,0.0491,0.0557,-0.2043,125.93
18:32:26:706,0.6203,1.0951,7.0013,69.7382,0.0166,0.0818,-0.2128,126.16
18:32:26:721,0.4077,1.1427,6.9811,69.5627,-0.035,0.1009,-0.2336,126.39
18:32:26:745,0.1129,1.0457,7.3178,69.4601,-0.092,0.0647,-0.2357,126.63
18:32:26:761,-0.0525,0.9142,7.8552,69.3613,-0.1197,0.0259,-0.1952,126.89
18:32:26:781,-0.0766,0.7819,8.5363,69.3062,-0.1016,0.0402,-0.126,127.15
18:32:26:801,-0.0365,0.8243,8.9305,69.1252,-0.0829,0.1259,-0.0265,127.38
18:32:26:822,0.1587,1.0346,9.1696,69.0501,-0.0409,0.2292,0.0581,127.52
18:32:26:841,0.1507,1.2735,9.2181,68.8001,0.0304,0.2899,0.1273,127.54
18:32:26:861,0.0192,1.6503,9.0771,68.6628,0.0858,0.2942,0.1987,127.46
18:32:26:881,0.0768,2.1153,8.7156,68.5129,0.0661,0.1925,0.2455,127.3
18:32:26:901,0.5213,2.1641,8.7304,68.1743,-0.1122,-0.0337,0.2082,127.06
18:32:26:921,0.9082,1.5418,9.9797,68.0929,-0.3113,-0.2371,0.122,126.77
18:32:26:941,0.8368,0.6277,11.8693,68.1445,-0.3683,-0.3217,0.089,126.53
18:32:26:961,0.835,-0.0853,13.2123,68.0244,-0.1591,-0.2621,0.1678,126.4
18:32:26:982,0.9827,-0.3651,13.2521,67.9951,0.031,-0.0827,0.2902,126.32
18:32:27:001,1.096,0.12,12.1418,67.9348,-0.0185,0.2707,0.3887,126.13
18:32:27:021,1.1707,0.1781,11.2747,68.105,-0.2421,0.275,0.2961,125.8
18:32:27:041,0.8735,-0.3689,12.1312,68.0242,-0.3124,0.0679,0.1758,125.33
18:32:27:061,0.3085,-1.149,13.1495,68.2,-0.1319,-0.0982,0.1231,124.99
18:32:27:081,-0.2804,-1.57,12.8514,68.4782,0.188,-0.0188,0.253,124.8
18:32:27:101,-0.3537,-1.2573,11.21,68.6509,0.3924,0.1483,0.3972,124.67
18:32:27:121,-0.1399,-0.6033,9.2276,68.7379,0.3546,0.2638,0.4771,124.39
18:32:27:142,0.09,-0.0887,7.9089,68.9783,0.1443,0.1563,0.4084,123.92
18:32:27:161,0.155,-0.1239,7.8971,69.1432,-0.0931,-0.0854,0.3147,123.36
18:32:27:181,0.2583,-0.3598,8.7607,69.3403,-0.2032,-0.2813,0.2519,122.88
18:32:27:202,0.3874,-0.5325,9.6997,69.3184,-0.1351,-0.2722,0.2317,122.53
18:32:27:222,0.4688,-0.4385,9.4302,69.4713,-0.0771,-0.0827,0.2434,122.25
18:32:27:241,0.4444,-0.2456,8.8742,69.4561,-0.0611,0.0679,0.2556,121.98
18:32:27:261,0.4754,-0.0832,8.6038,69.4614,-0.0366,0.1217,0.2588,121.7
18:32:27:281,0.4282,0.1168,8.5636,69.5953,0.1044,0.0504,0.2652,121.41
18:32:27:302,0.2694,0.3149,8.0161,69.4337,0.2482,-0.0582,0.2955,121.12
18:32:27:321,0.1918,0.6001,7.171,69.31,0.2662,-0.1104,0.3504,120.82
18:32:27:341,0.4194,0.9667,6.7451,69.2937,0.1475,-0.0971,0.3589,120.48
18:32:27:361,0.5733,1.1957,6.9585,69.3443,0.0097,-0.1221,0.2828,120.08
18:32:27:382,0.5301,1.1878,7.7372,69.528,-0.0313,-0.2158,0.1976,119.66
18:32:27:401,0.4534,1.0903,8.6295,69.7088,0.0272,-0.2531,0.1625,119.34
18:32:27:421,0.6105,1.1818,9.0934,69.676,0.1044,-0.1876,0.1667,119.13
18:32:27:441,0.9155,1.4905,9.2169,69.8459,0.1491,-0.1184,0.1587,118.95
18:32:27:462,1.1606,1.9748,9.408,69.7627,0.2082,-0.0588,0.1188,118.77
18:32:27:499,1.1874,2.365,9.1694,70.3104,-0.0095,-0.1354,-0.0537,118.59
18:32:27:519,1.2166,1.76,10.821,70.3095,-0.1463,-0.1525,-0.1654,118.47
18:32:27:539,0.9283,0.6297,12.0291,70.2793,-0.1511,-0.0747,-0.1798,118.39
18:32:27:560,0.5088,-0.2045,12.7389,69.894,0.0533,-0.0327,-0.0356,118.45
18:32:27:580,1.3549,-0.035,10.9488,69.7088,0.1534,-0.0747,0.1087,118.65
18:32:27:599,2.348,0.196,10.0493,69.4244,-0.1053,-0.1455,0.0448,118.87
18:32:27:619,2.6295,0.0022,10.5215,69.2898,-0.3416,-0.219,-0.1271,118.92
18:32:27:639,1.9094,-0.5952,11.7021,69.1877,-0.3778,-0.2616,-0.2464,118.78
18:32:27:659,1.0926,-1.1889,12.176,69.0727,-0.2671,-0.1322,-0.2133,118.72
18:32:27:680,0.6515,-1.4702,11.9457,68.892,-0.0382,-0.0412,-0.0808,118.87
18:32:27:699,1.186,-1.0748,10.7612,68.5881,0.1726,-0.095,0.0161,119.17
18:32:27:719,2.3419,-0.406,9.7035,68.4202,0.2103,-0.1242,-0.0568,119.44
18:32:27:739,2.7906,0.063,8.8131,68.5361,0.0219,-0.013,-0.2495,119.55
18:32:27:759,2.3965,0.0443,8.823,68.2522,-0.2432,0.144,-0.4327,119.54
18:32:27:780,1.6378,-0.3492,9.3119,68.2079,-0.3709,0.2095,-0.5077,119.59
18:32:27:799,1.0472,-0.5776,9.8493,68.3233,-0.3283,0.2393,-0.4651,119.85
18:32:27:819,1.0697,-0.4054,9.7319,67.8575,-0.265,0.2883,-0.3965,120.36
18:32:27:839,1.1961,-0.0712,9.6687,67.5872,-0.1889,0.3836,-0.3778,120.91
18:32:27:859,1.2115,0.1586,9.1175,67.4028,-0.0569,0.4794,-0.3752,121.45
18:32:27:882,1.079,0.4377,8.0834,67.1988,0.0735,0.4831,-0.4071,121.91
18:32:27:899,0.7123,0.5869,6.9372,66.5814,0.1135,0.3996,-0.4481,122.35
18:32:27:926,0.1513,0.4518,6.7934,66.1925,0.1741,0.2308,-0.4359,122.79
18:32:27:938,-0.161,0.4088,6.4146,65.8435,0.1773,0.1243,-0.3592,123.26
18:32:27:959,-0.2425,0.3742,6.5466,65.5391,0.098,0.1196,-0.2559,123.78
18:32:27:980,-0.1253,0.4887,7.0323,65.4118,0.0395,0.1148,-0.1425,124.28
18:32:27:999,0.0887,0.643,7.6691,65.1638,0.0049,0.1227,-0.0765,124.69
18:32:28:020,0.2034,0.795,8.3444,65.078,0.0107,0.1142,-0.0153,124.97
18:32:28:040,0.201,0.9981,9.158,65.0494,0.056,0.1339,0.0624,125.13
18:32:28:060,0.2525,1.2388,9.9861,64.5681,0.1411,0.2117,0.147,125.22
18:32:28:081,0.4226,1.5568,10.0573,64.3791,0.2306,0.2377,0.2109,125.23
18:32:28:100,0.8688,1.6491,10.0118,64.3004,0.2407,0.1355,0.2077,125.16
18:32:28:120,1.4362,1.4387,10.6609,64.2521,0.1965,-0.0199,0.0954,124.98
18:32:28:140,1.1379,1.0173,11.4622,64.3274,0.1912,-0.0678,-0.0158,124.74
18:32:28:160,0.7074,0.2852,11.4121,64.576,0.0187,0.0429,-0.0308,124.5
18:32:28:180,0.3367,-0.1371,12.0308,64.7359,-0.2437,0.1717,0.0044,124.39
18:32:28:200,0.0399,-0.6186,13.1082,64.7104,-0.3326,0.1403,-0.0052,124.41
18:32:28:220,-0.4193,-1.2849,13.7697,64.5666,-0.2123,0.0227,0.0278,124.43
18:32:28:240,-1.039,-1.8713,13.7125,64.8041,0.0278,-0.0199,0.139,124.42
18:32:28:260,-1.2433,-1.9294,12.6797,64.723,0.2758,0.036,0.3285,124.42
18:32:28:281,-1.0428,-1.2236,10.5777,64.595,0.4094,0.0828,0.4669,124.4
18:32:28:299,-0.6963,-0.3326,8.6697,64.9587,0.3078,-0.0023,0.5101,124.24
18:32:28:320,-0.267,0.2709,7.8336,64.9208,0.0464,-0.1982,0.4382,123.86
18:32:28:339,0.1968,0.1643,8.7978,65.1625,-0.1665,-0.3526,0.311,123.32
18:32:28:359,0.2889,-0.4171,10.2918,65.7972,-0.1287,-0.3467,0.2104,122.74
18:32:28:381,0.0821,-0.8347,10.5817,65.8407,0.0453,-0.1945,0.2247,122.25
18:32:28:400,0.1825,-0.7472,9.5999,66.0274,0.131,-0.0545,0.253,121.91
18:32:28:421,0.3562,-0.4407,9.0061,66.4535,0.1672,0.0413,0.2343,121.69
18:32:28:440,0.286,-0.2116,8.3281,66.4059,0.212,0.0999,0.213,121.44
18:32:28:460,0.1904,0.1086,7.479,66.6951,0.2375,0.1094,0.2173,121.15
18:32:28:481,0.237,0.5318,6.6388,66.4923,0.1821,0.0237,0.2008,120.88
18:32:28:499,0.3594,0.8186,6.3931,66.4891,0.0533,-0.1567,0.1374,120.63
18:32:28:520,0.5842,0.8707,7.1765,66.5662,-0.0553,-0.302,0.0294,120.37
18:32:28:540,0.5738,0.6631,8.1771,66.9039,-0.076,-0.318,-0.0622,120.14
18:32:28:560,0.2989,0.4633,8.7146,67.2903,-0.0526,-0.2057,-0.0797,119.99
18:32:28:580,0.152,0.5575,8.6736,67.4666,-0.0249,-0.0683,-0.0478,119.98
18:32:28:599,0.2698,0.8805,8.3263,67.6521,-0.0436,-0.0566,-0.0616,120.07
18:32:28:620,0.3463,1.0375,8.5396,67.7295,-0.0638,-0.1088,-0.1202,120.17
18:32:28:640,0.2141,1.0637,8.9882,67.3951,-0.0372,-0.1051,-0.1239,120.23
18:32:28:660,0.1702,1.2678,9.2219,67.382,-0.0207,-0.096,-0.1026,120.3
18:32:28:681,0.2428,1.5188,9.5414,67.3648,-0.0425,-0.1311,-0.0984,120.45
18:32:28:700,0.4902,1.5573,10.1327,67.2793,-0.092,-0.1493,-0.1255,120.6
18:32:28:771,0.6053,1.318,10.8278,67.0948,-0.1223,-0.1775,-0.175,120.72
18:32:28:771,0.4422,0.8979,11.5552,66.7345,-0.0616,-0.1636,-0.1548,120.84
18:32:28:772,0.4877,0.8551,11.2323,66.7414,0.0294,-0.1099,-0.0819,120.99
18:32:28:783,1.0381,0.9488,10.4206,66.7794,-0.0292,-0.162,-0.0989,121.21
18:32:28:799,1.4735,0.6412,10.004,66.7788,-0.347,-0.2153,-0.2293,121.4
18:32:28:819,1.4542,-0.2749,11.5884,66.7126,-0.6509,-0.1876,-0.3523,121.5
18:32:28:842,0.9566,-1.271,13.5873,66.78,-0.5594,-0.1413,-0.34,121.59
18:32:28:860,0.4834,-1.7614,14.5427,66.6681,-0.1064,0.0062,-0.1825,121.84
18:32:28:881,0.7037,-1.3365,12.3182,66.5489,0.2694,0.1786,0.0054,122.26
18:32:28:900,1.3489,-0.5655,10.0848,66.4651,0.3775,0.2399,0.0427,122.69
18:32:28:920,1.6207,-0.2028,8.3225,66.4511,0.2987,0.1611,-0.0371,122.93
18:32:28:940,1.677,-0.2784,7.4483,66.5329,0.0842,0.0488,-0.1197,122.93
18:32:28:960,1.6777,-0.6105,8.0387,66.451,-0.1591,-0.0098,-0.1846,122.86
18:32:28:981,1.5323,-0.9436,9.255,66.2511,-0.1857,0.011,-0.174,122.89
18:32:29:000,1.3925,-0.8779,9.7332,66.5162,-0.0712,0.0743,-0.1143,123.01
18:32:29:019,1.4549,-0.383,9.1371,66.5675,0.057,0.1057,-0.0882,123.22
18:32:29:040,1.4028,0.1824,8.1942,66.1789,0.0666,0.0961,-0.1101,123.42
18:32:29:060,1.2462,0.5016,7.7539,66.1902,0.0256,0.0977,-0.1431,123.56
18:32:29:082,1.1133,0.6955,7.567,66.2551,-0.0079,0.0812,-0.166,123.66
18:32:29:100,0.9304,0.8195,7.5226,66.0549,-0.0356,0.0504,-0.1894,123.78
18:32:29:120,0.6439,0.8298,7.6625,65.821,-0.0521,0.037,-0.1862,123.94
18:32:29:139,0.5084,0.8688,7.6834,66.0239,-0.0963,0.0482,-0.1612,124.13
18:32:29:160,0.514,0.8708,7.985,65.9033,-0.158,0.061,-0.1431,124.34
18:32:29:180,0.5519,0.7887,8.4171,65.8828,-0.1702,0.0232,-0.1378,124.55
18:32:29:199,0.5335,0.578,8.7678,65.7336,-0.1841,0.012,-0.1106,124.73
18:32:29:220,0.6665,0.4896,9.2658,65.6336,-0.1692,0.0679,-0.06,124.89
18:32:29:240,0.7114,0.5156,9.5254,65.3832,-0.1133,0.143,-0.0175,125.05
18:32:29:260,0.6815,0.726,9.4556,65.2573,-0.034,0.2042,0.0379,125.18
18:32:29:281,0.5989,1.1177,9.0304,65.0608,0.0043,0.2265,0.0885,125.24
18:32:29:300,0.6702,1.4835,8.8948,64.9972,-0.0084,0.192,0.1151,125.26
18:32:29:320,0.8528,1.7961,9.1649,64.8871,-0.0217,0.1398,0.0885,125.22
18:32:29:339,0.8532,1.6783,9.8109,64.9208,-0.0404,0.1041,0.048,125.11
18:32:29:360,0.6906,1.2259,10.5564,65.3717,-0.0286,0.0972,0.0453,124.98
18:32:29:379,0.6729,0.7442,11.2018,65.4637,0.0176,0.0961,0.0682,124.88
18:32:29:399,0.6247,0.5188,11.7433,65.5582,0.1491,0.0786,0.1284,124.82
18:32:29:419,0.7002,0.6524,11.056,65.462,0.2056,0.1259,0.1981,124.77
18:32:29:440,1.1407,0.9002,10.2612,65.2846,-0.0063,0.2154,0.2003,124.69
18:32:29:460,1.3484,0.7784,11.1147,65.1117,-0.1851,0.2069,0.0975,124.54
18:32:29:480,0.9803,0.3024,11.5121,65.1245,-0.2187,0.0988,0.0134,124.3
18:32:29:499,0.5945,-0.4656,12.0268,65.3527,-0.2229,0.0067,-0.0308,124.07
18:32:29:521,0.0705,-1.3441,12.7296,65.4398,-0.0766,0.012,0.0246,123.95
18:32:29:539,-0.3059,-1.7234,12.2946,65.4229,0.1981,0.0706,0.18,123.94
18:32:29:559,-0.0167,-1.2012,10.2554,65.1981,0.3264,0.0461,0.2844,123.98
18:32:29:580,0.2123,-0.6272,8.9084,64.7908,0.287,-0.055,0.2498,123.95
18:32:29:600,0.1116,-0.4405,8.2104,64.7004,0.1151,-0.2099,0.172,123.75
18:32:29:619,0.0963,-0.6618,9.1257,64.7265,-0.0223,-0.301,0.1231,123.42
18:32:29:640,0.2624,-0.7729,10.1722,64.7612,0.0107,-0.2408,0.0986,123.14
18:32:29:659,0.2572,-0.739,10.1952,64.8241,0.0815,-0.1258,0.0874,122.95
18:32:29:679,0.2914,-0.4903,9.8048,64.8983,0.1342,-0.0486,0.089,122.81
18:32:29:699,0.3402,-0.1943,9.333,64.7087,0.1837,-0.0247,0.0688,122.7
18:32:29:719,0.2847,-0.0245,8.7625,64.7079,0.2151,-0.0013,0.0619,122.61
18:32:29:740,0.3487,0.1605,8.2349,64.8191,0.2258,0.0237,0.0709,122.51
18:32:29:760,0.4651,0.4629,7.7053,64.6532,0.2338,0.0147,0.0592,122.43
18:32:29:780,0.4317,0.7976,7.1639,64.5274,0.1917,-0.0225,0.0214,122.36
18:32:29:799,0.3917,1.0902,6.6456,64.5078,0.064,-0.0689,-0.0302,122.28
18:32:29:820,0.3827,1.12,7.0166,64.3241,-0.1048,-0.1349,-0.1005,122.21
18:32:29:840,0.3073,0.8198,8.1424,64.2476,-0.1484,-0.1812,-0.1548,122.18
18:32:29:860,0.0651,0.467,8.9188,64.1752,-0.1074,-0.1604,-0.1255,122.22
18:32:29:879,0.1914,0.494,9.3266,63.8027,-0.0494,-0.0939,-0.0835,122.34
18:32:29:900,0.2945,0.6666,9.3974,63.7372,0.0038,-0.0369,-0.0712,122.53
18:32:29:920,0.311,0.8772,9.3126,63.1401,0.0225,-0.0124,-0.0835,122.68
18:32:29:939,0.1068,1.0256,9.377,62.9949,0.0618,-0.0055,-0.0723,122.78
18:32:29:960,0.0231,1.2654,9.2308,63.0135,0.0959,-0.0705,-0.0478,122.86
18:32:29:980,0.1676,1.3842,9.3716,62.8477,0.0597,-0.1839,-0.0478,122.96
18:32:30:000,0.4766,1.2127,10.0987,62.7411,0.0107,-0.2382,-0.0552,123.05
18:32:30:020,0.6624,0.8234,11.076,62.7999,0.0145,-0.2083,-0.0648,123.11
18:32:30:040,0.5743,0.6355,11.3821,62.9378,0.1018,-0.1178,-0.0127,123.17
18:32:30:060,0.7007,0.9791,10.0696,62.6507,0.023,-0.087,0.0118,123.25
18:32:30:081,1.2094,1.1723,9.3905,62.8187,-0.282,-0.1801,-0.1111,123.34
18:32:30:100,1.0556,0.3934,10.392,62.6818,-0.6861,-0.2312,-0.2778,123.35
18:32:30:119,0.3096,-1.1042,12.8124,62.4865,-0.7803,-0.2051,-0.2405,123.32
18:32:30:140,-0.1356,-2.0749,15.093,62.3744,-0.3422,-0.0753,-0.0068,123.43
18:32:30:159,0.5037,-1.7063,13.7264,61.8525,0.3631,0.1547,0.2961,123.75
18:32:30:181,1.6138,-0.3987,9.9431,61.5316,0.6224,0.2276,0.3552,124.06
18:32:30:199,2.736,0.6351,7.2913,61.3866,0.4877,0.1403,0.1492,124.12
18:32:30:220,2.9264,0.7606,6.524,61.3505,0.1023,0.0221,-0.2,123.79
18:32:30:240,2.1974,-0.2157,7.978,61.045,-0.2464,0.0354,-0.422,123.37
18:32:30:260,1.3646,-1.1435,9.4825,61.0329,-0.3715,0.1158,-0.4385,123.17
18:32:30:281,0.503,-1.5521,10.8273,61.0207,-0.2522,0.2383,-0.2772,123.38
18:32:30:299,0.4353,-1.0139,10.4644,60.7105,0.0017,0.2808,-0.0686,123.85
18:32:30:320,0.7254,0.041,8.8658,60.3076,0.1119,0.1787,0.0134,124.35
18:32:30:340,0.9328,0.7398,7.9863,60.3791,0.064,0.0897,0.0107,124.68
18:32:30:359,0.9364,1.0317,7.8032,60.3238,-0.0073,0.0679,-0.018,124.76
18:32:30:380,0.7119,1.0785,7.947,60.4397,-0.0361,0.0743,-0.0403,124.74
18:32:30:400,0.5266,0.9836,8.1023,60.2998,-0.0127,0.0599,-0.0233,124.72
18:32:30:420,0.6073,1.0233,8.2095,59.9572,0.0075,0.0679,-0.0004,124.74
18:32:30:440,0.8456,1.1297,8.1423,59.7833,0.0129,0.0951,-0.0116,124.78
18:32:30:460,0.9901,1.188,8.0612,59.5902,-0.0057,0.1148,-0.067,124.81
18:32:30:480,0.8489,1.0796,8.03,59.344,-0.06,0.1249,-0.1149,124.81
18:32:30:500,0.6245,0.8264,8.3306,59.287,-0.133,0.1568,-0.1197,124.82
18:32:30:520,0.3454,0.5414,9.0457,59.1756,-0.1362,0.1818,-0.0824,124.89
18:32:30:540,0.1059,0.4202,9.6125,58.9509,-0.034,0.2164,0.0166,125.01
18:32:30:560,0.1569,0.6934,9.6622,58.7677,0.1028,0.2569,0.1263,125.14
18:32:30:580,0.3002,1.252,9.168,58.9062,0.1779,0.2665,0.1869,125.24
18:32:30:599,0.618,1.8122,8.7403,58.7923,0.1231,0.1946,0.1603,125.21
18:32:30:620,0.9684,1.8362,9.2023,58.6634,-0.0132,0.0562,0.0267,125.06
18:32:30:640,0.6595,1.134,10.5138,58.6061,-0.1452,-0.005,-0.0739,124.84
18:32:30:660,0.3243,0.4863,12.3547,58.3421,-0.1335,0.1116,-0.0595,124.65
18:32:30:680,0.2011,0.4404,12.9956,58.4344,0.0821,0.4373,0.0597,124.62
18:32:30:699,0.0797,0.8786,11.3533,58.0508,0.0778,0.5492,0.1289,124.7
18:32:30:720,0.2259,1.1383,11.0027,57.7345,-0.0718,0.4704,0.1114,124.76
18:32:30:740,0.1058,0.9409,11.3898,57.6708,-0.1122,0.2287,0.0272,124.68
18:32:30:759,-0.16,0.2536,11.6041,57.5989,-0.1112,-0.0311,-0.0467,124.52
18:32:30:833,-0.6731,-0.7389,12.1039,57.5769,-0.1218,-0.0375,-0.0137,124.38
18:32:30:833,-1.3336,-1.5524,12.4071,57.344,-0.0308,0.061,0.1795,124.35
18:32:30:834,-1.1473,-1.5832,11.9159,57.0119,0.2503,0.0408,0.4329,124.41
18:32:30:838,-0.384,-0.7237,9.9772,56.7378,0.4856,-0.0981,0.5287,124.42
18:32:30:859,0.2016,0.1271,7.9053,56.6604,0.4047,-0.2818,0.4302,124.2
18:32:30:879,0.4533,0.3654,7.1094,56.6746,0.0906,-0.4191,0.2551,123.7
18:32:30:900,0.4026,-0.0507,8.1565,56.8521,-0.2187,-0.4048,0.0783,123.11
18:32:30:919,-0.0016,-0.5414,9.3961,57.1104,-0.3049,-0.3057,-0.0068,122.64
18:32:30:939,-0.4474,-0.8447,9.8045,57.185,-0.2645,-0.2137,0.0118,122.38
18:32:30:960,-0.6983,-0.6824,9.7486,57.1623,-0.1356,-0.1498,0.1002,122.3
18:32:30:980,-0.5784,-0.3601,8.9972,57.1022,-0.0691,-0.1503,0.1641,122.31
18:32:31:000,-0.2851,-0.0914,8.558,57.1131,-0.0409,-0.12,0.2035,122.3
18:32:31:020,-0.1471,0.2102,8.0597,57.3753,0.0193,-0.0907,0.2285,122.19
18:32:31:040,-0.0643,0.5604,7.2889,57.4335,0.0608,-0.1237,0.2423,122.01
18:32:31:060,0.1198,0.8943,6.8547,57.5424,0.0363,-0.2099,0.2258,121.78
18:32:31:080,0.3637,1.1336,7.007,57.3969,-0.068,-0.2653,0.1518,121.52
18:32:31:100,0.4661,1.1095,7.9571,57.5299,-0.1484,-0.2509,0.072,121.25
18:32:31:120,0.4111,1.0401,8.8001,57.4107,-0.15,-0.2131,0.0225,120.99
18:32:31:140,0.4767,1.0279,9.3616,57.2107,-0.142,-0.1748,-0.0233,120.82
18:32:31:160,0.5008,0.9117,10.1539,57.4292,-0.0734,-0.1093,-0.0499,120.74
18:32:31:180,0.5193,0.8857,10.3825,57.4337,0.0352,-0.0423,-0.0526,120.72
18:32:31:200,0.4958,1.0402,10.2368,56.9142,0.1422,0.0115,-0.0473,120.75
18:32:31:220,0.4782,1.443,9.748,56.7695,0.2199,0.0488,-0.0377,120.81
18:32:31:240,0.4073,1.7379,9.3277,56.7547,0.237,0.0317,-0.043,120.87
18:32:31:260,0.5304,1.9198,9.0298,56.4054,0.1561,-0.0614,-0.0765,120.93
18:32:31:279,0.475,1.6,9.6859,56.6847,0.0219,-0.219,-0.1463,120.97
18:32:31:300,0.4185,0.8406,10.8933,56.8594,0.0161,-0.2754,-0.1207,121.02
18:32:31:319,0.553,0.5192,11.3105,57.3079,0.1167,-0.2184,-0.0302,121.11
18:32:31:340,1.1182,0.9583,10.2149,57.4082,0.0517,-0.1849,-0.0222,121.29
18:32:31:360,1.903,1.0565,9.8025,57.5995,-0.2826,-0.1785,-0.1915,121.44
18:32:31:380,1.8092,0.33,11.2811,57.5571,-0.5844,-0.153,-0.4273,121.48
18:32:31:400,1.0028,-0.9281,12.8225,57.1858,-0.5775,-0.2163,-0.5093,121.48
18:32:31:421,0.6171,-1.8723,13.8912,57.1097,-0.3246,-0.1317,-0.4172,121.69
18:32:31:441,0.7226,-2.2015,13.3472,56.8416,0.0342,0.11,-0.2501,122.18
18:32:31:460,1.0551,-1.9618,10.994,56.8777,0.2599,0.2835,-0.1378,122.79
18:32:31:479,1.41,-1.4704,8.8037,56.7934,0.3184,0.251,-0.0936,123.29
18:32:31:500,1.9507,-0.8024,7.1371,56.6914,0.2141,0.1185,-0.1532,123.59
18:32:31:520,2.1134,-0.481,6.703,56.6157,-0.0585,-0.0013,-0.2873,123.75
18:32:31:541,1.8009,-0.642,7.7626,56.7156,-0.2741,0.0072,-0.348,123.86
18:32:31:559,1.3261,-0.6885,8.6448,56.5909,-0.3219,0.0461,-0.3294,124.02
18:32:31:580,1.0205,-0.4119,9.0392,56.1738,-0.24,0.0951,-0.274,124.33
18:32:31:601,0.7639,0.0601,8.5244,56.3827,-0.1548,0.0945,-0.2357,124.73
18:32:31:620,0.6181,0.4826,8.2096,56.3506,-0.134,0.0701,-0.2038,125.11
18:32:31:640,0.5618,0.7949,8.0946,56.2375,-0.1085,0.0583,-0.191,125.43
18:32:31:660,0.6619,0.9087,8.2899,56.1384,-0.0585,0.0626,-0.1899,125.7
18:32:31:679,0.6433,0.9683,8.3995,55.9904,0.023,0.119,-0.2064,125.94
18:32:31:702,0.4296,0.9567,8.1514,55.8157,0.073,0.184,-0.2043,126.16
18:32:31:721,0.3125,1.0148,7.7715,55.739,0.0815,0.2207,-0.1814,126.39
18:32:31:740,0.2433,1.064,7.477,55.5204,0.0256,0.2319,-0.1697,126.63
18:32:31:760,0.1517,1.0196,7.7627,55.5417,-0.0537,0.2053,-0.1527,126.86
18:32:31:780,-0.0032,0.9647,8.3477,55.4787,-0.0797,0.1802,-0.0946,127.07
18:32:31:801,0.03,0.8578,9.3271,55.4273,-0.0308,0.1611,-0.0196,127.26
18:32:31:820,-0.1383,0.8534,9.7735,55.5016,0.0597,0.1547,0.081,127.43
18:32:31:840,-0.2248,1.1962,10.2175,55.7488,0.1965,0.1648,0.2056,127.55
18:32:31:860,-0.1735,1.5335,9.8789,55.7375,0.2146,0.209,0.3083,127.57
18:32:31:880,0.0766,1.62,10.0305,55.5313,0.1406,0.193,0.3408,127.48
18:32:31:901,0.0767,1.2191,10.8847,55.5598,0.1438,0.0338,0.303,127.24
18:32:31:920,-0.11,0.706,11.1973,55.6319,0.1278,-0.0646,0.3025,126.89
18:32:31:941,0.1854,0.3491,11.2233,55.5819,-0.1266,0.0163,0.3285,126.5
18:32:31:961,0.7049,-0.1698,12.3184,55.7895,-0.4678,0.0647,0.2301,126.16
18:32:31:980,0.3788,-1.2389,13.8361,55.5952,-0.611,0.0296,0.1444,125.8
18:32:32:001,-0.2542,-2.3524,15.5131,55.6809,-0.3954,0.0578,0.1603,125.42
18:32:32:020,-1.0447,-2.9547,15.4198,55.4964,0.1555,0.152,0.3562,125.15
18:32:32:040,-1.2079,-2.3323,11.9709,55.6776,0.4659,0.2942,0.6043,124.99
18:32:32:059,-0.7924,-1.1401,9.0469,55.8527,0.4366,0.2425,0.6746,124.81
18:32:32:080,-0.7648,-0.325,7.4011,55.8932,0.2332,-0.022,0.6298,124.4
18:32:32:100,-0.5627,0.046,7.2035,55.8496,0.0145,-0.2861,0.5787,123.71
18:32:32:119,-0.0104,0.0275,8.1611,56.3153,-0.1101,-0.3702,0.4787,122.95
18:32:32:140,0.0312,-0.2962,8.5469,56.0705,-0.1985,-0.3398,0.3898,122.24
18:32:32:160,-0.0846,-0.613,9.041,56.2064,-0.2203,-0.2999,0.3387,121.58
18:32:32:180,-0.1,-0.8063,9.1369,56.5471,-0.1804,-0.2573,0.3243,121.03
18:32:32:199,-0.0675,-0.7975,8.9497,56.4267,-0.1026,-0.2003,0.327,120.57
18:32:32:219,-0.1248,-0.6986,8.6657,56.6839,0.0054,-0.145,0.3568,120.18
18:32:32:240,-0.0506,-0.5365,8.2127,56.8549,0.1518,-0.1508,0.3988,119.81
18:32:32:260,0.1072,-0.1563,7.3665,57.0152,0.2311,-0.2035,0.4244,119.43
18:32:32:280,0.584,0.3746,6.8858,57.3742,0.1635,-0.2126,0.3765,119.02
18:32:32:300,0.8038,0.6757,6.8488,57.6597,0.0209,-0.186,0.2492,118.57
18:32:32:319,0.7216,0.6089,7.4616,57.8686,-0.0776,-0.1822,0.146,118.07
18:32:32:341,0.6699,0.5936,8.1035,58.1242,-0.1165,-0.1721,0.0491,117.63
18:32:32:359,0.3201,0.3266,8.7179,58.1782,-0.1165,-0.1487,0.0315,117.34
18:32:32:379,0.4502,0.3146,9.3282,58.3442,-0.0702,-0.1333,0.0672,117.16
18:32:32:399,0.8469,0.535,9.8394,58.2096,0.024,-0.0721,0.0602,117.1
18:32:32:419,0.9864,0.8493,9.8157,58.5822,0.1225,0.0115,0.04,117.07
18:32:32:439,1.0093,1.2409,9.7653,58.4441,0.1662,0.045,0.0118,116.99
18:32:32:459,1.1917,1.3899,9.6136,58.3456,0.1278,-0.047,-0.0547,116.93
18:32:32:479,1.2433,1.0431,10.1926,58.3103,0.0544,-0.2392,-0.1175,116.88
18:32:32:499,1.3074,0.4177,11.1452,58.2206,0.0256,-0.3659,-0.1436,116.87
18:32:32:519,1.2418,-0.2343,12.108,58.4078,0.1135,-0.3031,-0.0611,116.93
18:32:32:540,1.0273,-0.401,11.4909,58.4322,0.2035,-0.1892,0.1358,117.07
18:32:32:560,1.9187,0.3081,10.2432,58.3548,-0.0095,-0.3036,0.1337,117.24
18:32:32:580,2.5782,0.2871,10.5612,58.5536,-0.4082,-0.392,-0.1303,117.31
18:32:32:599,1.8857,-0.8874,12.3164,58.5764,-0.6573,-0.3776,-0.3555,117.14
18:32:32:619,0.9076,-2.1096,14.8983,58.4608,-0.3959,-0.2185,-0.3092,116.95
18:32:32:640,0.7568,-2.3696,14.603,58.4653,0.2455,0.0402,-0.0904,117.07
18:32:32:660,1.4714,-1.3497,10.8484,58.764,0.5149,0.1542,0.0257,117.5
18:32:32:680,2.6314,-0.3502,8.4945,58.7863,0.3961,0.1174,-0.1314,117.92
18:32:32:700,2.6953,-0.2251,7.643,58.7403,0.0735,0.0456,-0.4273,118.05
18:32:32:720,1.8618,-0.7868,8.3466,58.6983,-0.2043,0.0812,-0.5716,118.01
18:32:32:739,1.0734,-1.1378,9.2873,58.4154,-0.2698,0.1696,-0.5466,118.13
18:32:32:759,0.5271,-1.0228,9.2793,58.3788,-0.1426,0.1888,-0.4247,118.6
18:32:32:779,0.5342,-0.4119,8.5976,58.0934,-0.0121,0.0972,-0.2975,119.25
18:32:32:799,0.9832,0.2214,7.909,57.8235,0.0746,-0.0428,-0.2751,119.89
18:32:32:819,1.214,0.5464,7.4228,57.9948,0.0704,-0.0795,-0.2943,120.4
18:32:32:886,1.3716,0.8144,7.1821,57.9894,0.0278,-0.0172,-0.3305,120.76
18:32:32:886,1.1714,0.8104,7.2099,57.9069,-0.002,0.0317,-0.373,121.08
18:32:32:887,0.8891,0.742,7.3743,58.0161,0.0421,0.0376,-0.3725,121.41
18:32:32:905,0.775,0.7731,7.1628,57.9083,0.0571,0.036,-0.3581,121.79
18:32:32:920,0.8896,0.8187,7.0465,57.3744,-0.0238,0.0541,-0.3629,122.22
18:32:32:939,0.8319,0.7884,7.3933,57.4775,-0.1468,0.0818,-0.3858,122.65
18:32:32:959,0.5953,0.4596,8.3669,57.2526,-0.2048,0.1126,-0.3709,123.06
18:32:32:980,0.4337,0.2637,9.2362,57.4008,-0.1474,0.1606,-0.2857,123.47
18:32:33:000,0.4459,0.3008,9.9629,57.4184,-0.0153,0.2239,-0.167,123.9
18:32:33:019,0.3906,0.6205,10.1208,57.3864,0.1598,0.2505,-0.0393,124.34
18:32:33:040,0.3985,1.1838,9.6431,57.0814,0.2375,0.2819,0.0858,124.68
18:32:33:060,0.7605,1.6905,9.4234,56.942,0.1821,0.251,0.146,124.88
18:32:33:080,1.3642,1.7406,10.127,56.8115,0.1012,0.1531,0.0869,124.93
18:32:33:100,1.3873,0.9467,11.0807,56.8111,0.1119,0.0237,-0.0025,124.83
18:32:33:120,0.666,0.1885,11.7004,57.0025,0.1853,0.0179,0.0469,124.65
18:32:33:140,0.2719,0.2157,11.2275,56.8583,0.172,0.193,0.2588,124.56
18:32:33:160,0.8533,1.0278,10.6639,57.0511,-0.0159,0.3383,0.3445,124.56
18:32:33:180,1.4062,1.2074,10.8728,57.0803,-0.2309,0.2766,0.2013,124.5
18:32:33:200,1.0134,0.1554,12.0681,56.9105,-0.2602,0.0637,0.0214,124.18
18:32:33:219,0.0208,-1.3897,13.063,56.9536,-0.1521,-0.0444,0.0624,123.77
18:32:33:240,-0.0621,-2.2649,13.884,56.8259,0.1848,0.0674,0.2365,123.54
18:32:33:260,0.5024,-1.943,11.7079,57.0633,0.4712,0.1792,0.3647,123.52
18:32:33:280,1.1507,-1.0542,9.2637,57.0867,0.4078,0.152,0.2934,123.46
18:32:33:300,1.0843,-0.507,7.7511,56.9859,0.0858,0.036,0.1273,123.2
18:32:33:320,0.8959,-0.5428,8.2161,57.3185,-0.2804,-0.0981,-0.0089,122.77
18:32:33:340,0.7104,-0.8393,9.8012,57.4637,-0.3757,-0.1477,-0.0914,122.42
18:32:33:360,0.2246,-1.0914,10.4062,57.8024,-0.2991,-0.0886,-0.0643,122.27
18:32:33:380,-0.0935,-0.9043,9.8907,57.7411,-0.1585,-0.0513,0.0634,122.28
18:32:33:401,0.3851,-0.3332,9.0885,58.0416,-0.0531,-0.0902,0.1795,122.38
18:32:33:419,1.1225,0.2782,8.4473,58.0131,0.0113,-0.1471,0.1603,122.46
18:32:33:440,1.1844,0.5293,7.9866,57.8831,0.0783,-0.1945,0.1039,122.4
18:32:33:460,1.0848,0.5432,7.7634,58.016,0.1428,-0.2243,0.0768,122.2
18:32:33:480,1.0393,0.6746,7.8146,58.4506,0.1987,-0.2568,0.0304,122.02
18:32:33:500,0.9767,0.8147,7.8283,58.7307,0.213,-0.2296,-0.0105,121.9
18:32:33:520,0.9342,1.0189,7.8036,59.3032,0.1385,-0.1551,-0.0835,121.82
18:32:33:540,0.7243,1.0491,7.903,59.5542,0.081,-0.1088,-0.1654,121.79
18:32:33:560,0.378,0.9873,7.8314,59.6286,0.0459,-0.1125,-0.2229,121.8
18:32:33:580,0.1319,0.8467,8.0084,59.5802,-0.0148,-0.1083,-0.2251,121.9
18:32:33:600,0.2013,0.8571,8.7345,59.5544,-0.0292,-0.0997,-0.208,122.09
18:32:33:620,0.0758,0.9056,9.3012,59.4813,0.0549,-0.1029,-0.1878,122.34
18:32:33:640,-0.0779,1.099,9.1735,59.6477,0.1119,-0.088,-0.1314,122.6
18:32:33:660,0.0967,1.4664,9.0146,60.0821,0.1018,-0.0763,-0.0946,122.85
18:32:33:680,0.4644,1.803,8.9805,60.26,-0.0217,-0.1173,-0.126,123.08
18:32:33:700,0.7481,1.6731,9.7776,60.4783,-0.1308,-0.2483,-0.2117,123.23
18:32:33:719,0.5608,0.8682,11.6298,60.6616,-0.0835,-0.3526,-0.2447,123.33
18:32:33:740,0.6035,0.2868,12.9146,60.6851,0.1566,-0.318,-0.1521,123.47
18:32:33:760,1.0085,0.4981,11.8265,60.8855,0.2737,-0.1477,-0.0728,123.73
18:32:33:780,1.3613,0.7453,9.692,60.925,-0.1202,-0.0247,-0.0803,124.05
18:32:33:800,1.5688,-0.0422,10.3958,61.1071,-0.7164,-0.0806,-0.1862,124.25
18:32:33:819,1.084,-1.2352,13.8295,61.4167,-0.6408,-0.2467,-0.1724,124.29
18:32:33:840,0.5763,-1.8876,14.6432,61.3648,-0.0483,-0.2153,0.0821,124.31
18:32:33:860,1.4938,-1.1491,11.7269,61.5163,0.3003,-0.0646,0.3371,124.54
18:32:33:880,2.7991,-0.0449,9.5698,61.7727,0.2796,-0.0236,0.2748,124.81
18:32:33:905,3.5932,0.1748,8.5061,62.3309,0.0656,-0.113,-0.0159,124.75
18:32:33:920,3.2502,-0.3845,8.743,62.4663,-0.1702,-0.096,-0.306,124.36
18:32:33:939,2.1413,-1.2835,9.08,62.7751,-0.3848,-0.005,-0.413,124.02
18:32:33:959,1.3639,-1.8422,10.2158,62.9363,-0.3587,0.053,-0.3651,124.02
18:32:33:980,0.9443,-1.6226,10.4743,62.7914,-0.0776,0.1334,-0.2224,124.34
18:32:34:000,0.9864,-0.8651,8.7852,62.6128,0.1124,0.1547,-0.1122,124.82
18:32:34:020,0.9834,-0.1014,7.6152,62.4636,0.1012,0.1227,-0.0765,125.28
18:32:34:040,0.9462,0.5338,7.0848,62.0277,0.0624,0.1153,-0.0718,125.56
18:32:34:060,0.8991,0.9392,6.6807,61.9519,0.0075,0.0903,-0.0984,125.69
18:32:34:079,0.8197,1.1252,6.8202,61.907,-0.0345,0.0488,-0.1479,125.77
18:32:34:100,0.7227,1.0945,7.1611,62.0787,-0.0302,0.0195,-0.1851,125.85
18:32:34:120,0.784,1.003,7.5013,62.1268,-0.0148,0.0424,-0.207,125.96
18:32:34:140,0.8445,0.97,7.6519,62.1755,-0.0233,0.0887,-0.2288,126.13
18:32:34:160,0.9611,0.9038,8.0626,62.2999,-0.0409,0.1084,-0.2618,126.35
18:32:34:180,0.9407,0.7564,8.7598,62.1548,0.0262,0.1174,-0.2783,126.58
18:32:34:199,0.7788,0.6687,9.073,61.7897,0.1348,0.077,-0.2522,126.85
18:32:34:220,0.6166,0.6422,9.0219,61.4535,0.1699,0.1126,-0.1681,127.16
18:32:34:240,0.7282,0.8703,9.4863,61.1845,0.1832,0.1957,-0.0606,127.49
18:32:34:260,0.7698,1.2367,9.7582,61.2228,0.2237,0.2974,0.0177,127.78
18:32:34:280,0.6332,1.4785,9.7196,61.4087,0.212,0.317,0.0693,127.97
18:32:34:300,0.5819,1.4199,9.998,61.6553,0.164,0.2234,0.0879,128.04
18:32:34:320,0.5545,0.9646,10.7858,61.5413,0.1167,0.1302,0.0885,128
18:32:34:340,0.1604,0.3009,11.6904,61.3715,0.1715,0.0275,0.1641,127.91
18:32:34:360,-0.0756,0.1247,11.8179,61.3141,0.2061,0.0354,0.3301,127.8
18:32:34:380,0.6883,0.5045,11.84,61.0387,0.073,0.1244,0.4068,127.7
18:32:34:399,1.2588,0.6861,12.2953,60.972,-0.092,0.2803,0.2934,127.51
18:32:34:420,0.7136,0.0021,12.6983,60.8812,-0.1239,0.2841,0.1438,127.12
18:32:34:439,-0.2895,-0.9851,12.731,60.7681,-0.0648,0.2063,0.1492,126.63
18:32:34:460,-0.9396,-1.541,12.5343,60.7623,0.1135,0.184,0.279,126.27
18:32:34:480,-0.8298,-1.5369,11.6228,60.4721,0.2961,0.1456,0.4441,126.1
18:32:34:500,-0.4719,-0.8499,10.144,60.573,0.3839,0.1105,0.5425,125.94
18:32:34:520,0.0238,0.0024,8.7576,60.9125,0.2535,0.0589,0.5271,125.62
18:32:34:541,0.3297,0.2965,8.4413,60.5739,0.0278,-0.0311,0.4068,125.11
18:32:34:560,0.2472,0.092,9.0129,60.5472,-0.0845,-0.1104,0.303,124.47
18:32:34:580,0.0811,-0.1935,9.6196,60.8992,-0.0249,-0.1104,0.2764,123.85
18:32:34:599,0.1131,-0.1696,9.3751,60.9679,0.0901,-0.0369,0.2993,123.38
18:32:34:620,0.2769,0.152,8.6467,60.947,0.1875,0.0349,0.3099,123.05
18:32:34:641,0.38,0.4647,7.6451,60.6778,0.2114,0.0722,0.2961,122.74
18:32:34:660,0.4535,0.801,6.9521,60.5992,0.1566,0.0605,0.2822,122.4
18:32:34:680,0.4563,0.9685,6.7526,60.3952,0.0847,-0.0412,0.2317,122.04
18:32:34:699,0.2567,0.9764,7.0253,60.3473,0.0491,-0.1434,0.2157,121.7
18:32:34:722,0.2406,0.9142,7.4477,60.643,0.0278,-0.1679,0.2375,121.37
18:32:34:740,0.5571,1.131,7.8575,60.6889,0.0075,-0.129,0.221,121.1
18:32:34:760,0.5953,1.2218,8.1282,60.695,0.024,-0.1029,0.1635,120.87
18:32:34:780,0.3565,1.2014,8.1212,60.8967,0.0123,-0.0918,0.1481,120.6
18:32:34:800,0.365,1.2713,8.3733,60.8484,0.0198,-0.1567,0.1784,120.36
18:32:34:821,0.7602,1.4749,8.843,60.9066,0.0799,-0.1908,0.1699,120.18
18:32:34:845,0.752,1.6459,9.0331,60.9577,0.1534,-0.1525,0.1326,120.01
18:32:34:860,0.4075,1.8192,8.971,60.8984,0.1534,-0.0875,0.1518,119.83
18:32:34:880,0.7014,1.959,9.036,60.946,-0.0025,-0.0598,0.1481,119.65
18:32:34:946,0.9719,1.6596,10.3821,60.9742,-0.2011,-0.1306,0.0453,119.51
18:32:34:946,0.8882,0.6086,12.4943,60.8955,-0.1857,-0.211,0.006,119.32
18:32:34:947,0.9435,-0.3029,13.6232,60.9281,0.032,-0.1333,0.1177,119.14
18:32:34:959,1.3175,0.0423,12.9856,60.8618,0.2615,0.0317,0.2551,119.1
18:32:34:979,2.3277,1.362,10.8912,60.6911,0.1933,0.0663,0.139,119.13
18:32:34:999,2.954,1.6012,10.8709,60.68,-0.1899,-0.0172,-0.2511,119.02
18:32:35:020,2.4692,0.5018,12.7264,60.5266,-0.3448,0.1377,-0.5737,118.72
18:32:35:040,0.9336,-0.9792,13.8557,60.3435,-0.2693,0.5071,-0.579,118.52
18:32:35:060,-0.0871,-1.5162,13.1202,60.4251,0.0938,0.7594,-0.2559,118.8
18:32:35:080,0.4348,-0.819,10.3687,60.3398,0.4142,0.5332,-0.0057,119.45
18:32:35:101,1.7279,0.2017,7.9191,60.1411,0.4419,0.0818,-0.0105,120.1
18:32:35:121,2.4549,0.6882,6.8256,59.7294,0.0916,-0.1881,-0.2447,120.37
18:32:35:140,2.2469,0.344,7.639,59.4559,-0.3257,-0.1658,-0.4438,120.35
18:32:35:160,1.6218,-0.1818,8.8847,59.0051,-0.4556,-0.121,-0.5434,120.34
18:32:35:181,0.8812,-0.5447,9.4248,58.9187,-0.3198,-0.1354,-0.5184,120.61
18:32:35:200,0.4173,-0.267,8.9574,58.9525,-0.1617,-0.1173,-0.4098,121.13
18:32:35:221,0.3486,0.2348,8.4083,58.9662,-0.0356,-0.1492,-0.3124,121.77
18:32:35:240,0.5055,0.7009,7.8475,58.9872,0.0608,-0.1615,-0.2591,122.38
18:32:35:260,0.5648,1.1466,7.3803,59.0288,0.0554,-0.0923,-0.2485,122.87
18:32:35:280,0.4199,1.4228,6.9976,58.857,0.0006,0.0786,-0.2442,123.25
18:32:35:300,0.1216,1.5911,6.8157,58.8331,-0.0627,0.11,-0.2464,123.55
18:32:35:321,-0.1579,1.5648,7.0987,58.9043,-0.0877,0.0211,-0.2304,123.83
18:32:35:339,0.088,1.5253,7.9115,58.8407,-0.0361,-0.0124,-0.2117,124.1
18:32:35:360,0.2339,1.505,8.3079,59.0666,0.0235,0.0275,-0.2032,124.38
18:32:35:380,0.241,1.4748,8.5384,58.8619,0.0357,0.0748,-0.175,124.65
18:32:35:400,0.3004,1.3798,8.9716,58.6757,0.064,0.0722,-0.134,124.9
18:32:35:420,0.4487,1.4167,9.5221,58.4274,0.1667,0.0205,-0.0712,125.13
18:32:35:439,0.4906,1.5434,9.8777,58.391,0.3078,0.0823,0.0177,125.32
18:32:35:460,0.5987,2.0179,9.4178,58.5812,0.3259,0.291,0.0922,125.48
18:32:35:480,0.6481,2.3511,8.8003,58.6786,0.1257,0.3836,0.0863,125.57
18:32:35:500,0.5259,2.0008,9.7238,58.4921,-0.075,0.1744,0.0044,125.54
18:32:35:520,0.3746,0.8276,11.6578,58.5483,-0.0819,-0.0657,-0.0254,125.39
18:32:35:539,-0.206,0.1819,13.1467,58.2206,0.114,-0.0587,0.1273,125.25
18:32:35:560,0.3361,1.1523,11.731,58.1016,0.1529,0.1621,0.3812,125.24
18:32:35:580,1.7339,2.8983,10.7817,57.7402,-0.3134,0.3783,0.3089,125.28
18:32:35:600,2.1315,2.6905,12.3859,57.5973,-0.809,0.4682,-0.1005,125.14
18:32:35:620,0.7107,0.0813,14.9717,57.4606,-0.8175,0.2537,-0.3826,124.66
18:32:35:640,-1.5269,-2.2436,17.0013,57.3907,-0.117,0.0184,-0.1936,124.26
18:32:35:659,-2.2052,-3.0831,14.8172,57.509,0.6607,0.0733,0.3387,124.35
18:32:35:680,-0.7486,-1.7554,10.8042,57.4323,0.8747,0.2202,0.6895,124.8
18:32:35:700,0.8525,-0.2407,7.6773,57.1152,0.6378,0.242,0.632,125.03
18:32:35:720,1.3939,0.4602,6.5684,56.9384,0.245,-0.0071,0.3615,124.63
18:32:35:740,1.2064,0.2105,7.722,56.9661,0.0107,-0.2382,0.1193,123.83
18:32:35:760,0.7593,-0.2102,8.7762,57.1028,0.0943,-0.3627,0.0054,123.09
18:32:35:780,0.147,-0.2638,8.1047,57.2883,0.205,-0.2893,0.0363,122.68
18:32:35:800,-0.0217,0.1026,6.9142,57.566,0.1119,-0.121,0.0996,122.57
18:32:35:820,-0.0816,0.3214,6.3325,57.3996,-0.0563,-0.0273,0.1374,122.6
18:32:35:840,-0.1825,0.5183,6.5695,57.1828,-0.1181,-0.1104,0.155,122.58
18:32:35:860,-0.2504,0.6003,6.883,57.2468,-0.0574,-0.2594,0.1869,122.47
18:32:35:880,-0.1358,0.8263,7.0377,57.568,-0.0095,-0.3329,0.2306,122.32
18:32:35:900,0.1775,1.1606,7.0501,57.9038,-0.0372,-0.3132,0.2349,122.16
18:32:35:920,0.3953,1.4281,7.2721,58.3337,-0.1271,-0.2467,0.1901,121.98
18:32:35:940,0.4113,1.5269,7.8515,58.5996,-0.1681,-0.1924,0.1348,121.74
18:32:35:960,0.5302,1.5706,8.3532,58.9811,-0.1277,-0.1908,0.0837,121.5
18:32:35:980,0.697,1.5883,8.9511,59.233,-0.1064,-0.1381,0.0214,121.3
18:32:36:000,0.606,1.5182,9.5201,59.4756,-0.0712,-0.0593,-0.0222,121.16
18:32:36:021,0.4815,1.5004,10.0244,59.6477,0.04,-0.0119,-0.0132,121.09
18:32:36:040,0.4696,1.8578,9.6849,59.917,0.1135,0.0445,-0.0132,121.07
18:32:36:060,0.2445,2.0379,9.4457,59.7364,0.0203,0.0173,-0.0079,121.11
18:32:36:080,0.3206,1.8679,10.3844,60.0179,-0.0877,-0.0742,-0.0143,121.13
18:32:36:099,0.3704,1.1872,12.0481,59.943,0.0006,-0.1849,0.0198,121.14
18:32:36:125,0.5226,0.5702,12.8489,59.928,0.2109,-0.1881,0.1279,121.14
18:32:36:140,0.6999,0.6933,11.9735,59.6969,0.3812,-0.1024,0.2945,121.17
18:32:36:159,1.6529,1.6349,9.7579,59.8796,0.1917,-0.0982,0.3115,121.18
18:32:36:179,2.7368,1.84,9.0191,59.8751,-0.4332,-0.1982,0.015,121.06
18:32:36:199,2.2374,0.2795,11.8488,60.4094,-0.9043,-0.2083,-0.2799,120.72
18:32:36:219,0.922,-1.6431,14.9473,60.806,-0.7537,-0.1232,-0.2788,120.32
18:32:36:242,0.2162,-2.3881,16.0059,61.2835,-0.0462,0.103,0.04,120.27
18:32:36:259,0.8876,-1.1945,12.2028,61.4467,0.459,0.1009,0.2679,120.62
18:32:36:279,2.401,0.1372,8.9892,61.4827,0.4041,-0.0295,0.2008,121.02
18:32:36:299,3.2604,0.774,7.8696,61.4136,0.0672,-0.0518,-0.1111,121.01
18:32:36:319,2.4449,0.4354,8.0512,61.7066,-0.257,0.0727,-0.3438,120.69
18:32:36:339,1.3543,-0.1487,8.8725,61.5344,-0.3784,0.0812,-0.3773,120.44
18:32:36:359,0.946,-0.405,9.7177,61.6229,-0.2128,-0.0279,-0.3156,120.54
18:32:36:379,0.9274,-0.1163,9.3267,61.9234,-0.002,-0.0721,-0.2426,120.92
18:32:36:399,1.1427,0.3258,8.3501,61.5791,0.0592,-0.0502,-0.2165,121.36
18:32:36:419,1.1793,0.6168,7.803,61.7539,0.0342,-0.0018,-0.2346,121.75
18:32:36:439,0.9553,0.725,7.5985,61.8546,0.0123,0.0525,-0.2559,122.04
18:32:36:458,0.7641,0.6699,7.6717,61.7116,0.0602,0.0759,-0.2485,122.29
18:32:36:479,0.5854,0.7475,7.6325,61.7007,0.1193,0.0913,-0.2357,122.55
18:32:36:499,0.445,0.8887,7.4564,61.9684,0.1827,0.1148,-0.2038,122.85
18:32:36:520,0.4378,1.1331,6.976,62.2094,0.1763,0.1472,-0.1905,123.14
18:32:36:539,0.3016,1.2655,6.9746,62.1815,0.1049,0.1568,-0.1878,123.41
18:32:36:559,-0.0004,1.1818,7.7562,62.1767,0.0746,0.144,-0.1548,123.63
18:32:36:579,-0.0052,1.2263,8.461,62.1264,0.1034,0.1036,-0.0739,123.83
18:32:36:599,0.3612,1.5089,8.8926,62.106,0.139,0.1744,0.0049,124.03
18:32:36:619,0.4961,1.8008,9.2727,61.8056,0.131,0.2718,0.0379,124.2
18:32:36:639,0.4245,1.9805,9.5973,61.7726,0.1422,0.3575,0.0911,124.27
18:32:36:660,0.3331,2.2013,9.6352,61.7786,0.1124,0.4427,0.1523,124.25
18:32:36:679,0.5281,2.1885,10.0595,61.5511,0.0554,0.3863,0.1603,124.18
18:32:36:699,0.5575,1.4981,10.8766,61.2926,0.1002,0.1904,0.1502,124.04
18:32:36:719,0.4169,1.117,11.4301,61.1945,0.2103,0.0631,0.2173,123.82
18:32:36:740,0.735,1.2228,10.7276,61.3309,0.138,0.1339,0.2897,123.6
18:32:36:759,1.3661,1.5158,10.5533,61.3876,-0.1804,0.2574,0.2695,123.42
18:32:36:781,1.7715,1.5811,11.6895,61.799,-0.3885,0.2351,0.081,123.16
18:32:36:799,1.1526,0.8461,12.5672,62.0316,-0.4279,0.1302,-0.1127,122.8
18:32:36:819,0.2946,-0.1971,13.2039,62.107,-0.3422,0.0567,-0.1644,122.46
18:32:36:842,-0.711,-1.0062,13.5269,62.1704,0.0059,0.036,-0.0244,122.35
18:32:36:859,-1.0954,-0.9675,11.8082,62.1579,0.3509,0.0727,0.254,122.47
18:32:36:879,-0.4698,0.0864,9.4131,62.2192,0.3371,0.0605,0.3743,122.66
18:32:36:899,0.0078,0.8365,8.3117,62.4444,0.0954,-0.0337,0.2934,122.69
18:32:36:919,0.0636,0.6888,8.7383,62.6311,-0.1303,-0.1663,0.1593,122.39
18:32:36:940,0.0892,0.1147,9.6707,63.0373,-0.1921,-0.301,0.0587,121.96
18:32:37:007,-0.0949,-0.1873,10.2285,62.976,-0.1261,-0.2589,0.0453,121.63
18:32:37:007,-0.0604,-0.2569,9.7556,63.0835,-0.0238,-0.0918,0.0922,121.46
18:32:37:008,-0.249,0.0242,8.7003,63.2987,0.0507,-0.0343,0.1247,121.42
18:32:37:018,-0.2281,0.282,7.3819,63.3778,0.0193,-0.005,0.1534,121.39
18:32:37:039,-0.1264,0.4079,6.3622,63.5631,-0.1633,0.0259,0.1726,121.29
18:32:37:059,-0.0752,0.5176,6.4065,64.0869,-0.4231,0.1829,0.1885,121.15
18:32:37:079,0.0268,0.603,7.2922,64.3718,-0.5631,0.3591,0.2567,120.97
18:32:37:099,0.4439,0.8668,8.2548,64.2414,-0.4513,0.3974,0.2913,120.76
18:32:37:119,0.9009,1.0475,8.5793,64.3356,-0.1772,0.2298,0.1752,120.52
18:32:37:143,0.7124,1.2173,8.3243,64.121,0.0006,0.0504,0.0326,120.21
18:32:37:161,0.566,1.3224,8.3339,63.9822,0.0384,0.0668,-0.059,119.87
18:32:37:179,0.1989,1.3001,8.115,63.8643,-0.0494,0.0621,-0.1271,119.66
18:32:37:199,-0.0082,1.232,8.7263,63.8945,-0.0994,-0.0162,-0.1676,119.62
18:32:37:219,-0.1714,1.1167,9.6087,64.1445,-0.0233,-0.0034,-0.1356,119.69
18:32:37:240,-0.3198,1.3583,9.8929,64.1033,0.1411,-0.0305,-0.0792,119.83
18:32:37:261,-0.2522,1.7269,9.7251,64.4664,0.1997,-0.0992,-0.0728,120.02
18:32:37:279,0.0126,1.8863,10.0009,64.4935,0.1209,-0.1892,-0.1154,120.18
18:32:37:299,0.1036,1.3402,10.592,64.5258,-0.0239,-0.2445,-0.2192,120.27
18:32:37:319,-0.2492,0.2325,11.7965,64.7945,-0.0957,-0.1455,-0.174,120.36
18:32:37:341,-0.5451,-0.0725,12.3122,64.9027,0.0091,0.0232,0.08,120.51
18:32:37:359,0.2635,0.5061,11.3436,65.0608,0.0608,-0.0923,0.1912,120.77
18:32:37:379,1.3915,0.9227,10.5543,65.1898,-0.1282,-0.3286,-0.0568,120.97
18:32:37:399,1.4291,0.1961,10.9106,65.0916,-0.4822,-0.36,-0.4311,120.88
18:32:37:419,0.585,-1.4942,12.6626,65.3955,-0.6131,-0.0508,-0.5146,120.67
18:32:37:440,-0.4839,-2.2914,13.4232,65.1868,-0.3246,0.2116,-0.3539,120.74
18:32:37:461,-0.4507,-1.7719,11.8955,65.7785,0.2098,0.1041,-0.0638,121.23
18:32:37:493,1.0566,-0.2894,9.2519,65.8807,0.3642,-0.2653,-0.1197,122.25
18:32:37:501,1.9592,0.3093,7.9129,65.9931,0.0719,-0.4734,-0.4337,122.33
18:32:37:523,1.2558,-0.435,8.309,66.0097,-0.4375,-0.2483,-0.6041,122.49
18:32:37:544,0.2797,-1.3437,9.613,65.9705,-0.6861,0.0802,-0.4917,122.97
18:32:37:561,-0.1513,-1.3788,10.5864,66.131,-0.4955,0.2313,-0.2682,123.65
18:32:37:582,0.0897,-0.9129,9.9528,66.1866,-0.0404,0.0631,-0.0622,124.22
18:32:37:601,0.7226,0.0879,8.6068,65.9037,0.2348,-0.1556,-0.0632,124.55
18:32:37:623,0.8946,0.4815,7.8814,65.6386,0.3328,-0.1833,-0.0904,124.64
18:32:37:641,1.075,0.8365,7.1267,65.5676,0.3136,-0.0795,-0.1266,124.72
