Time,Acc_X,Acc_Y,Acc_Z,Meg,Gyr_X,Gyr_Y,Gyr_Z,Ore
18:42:40:459,0.6947,-0.003,8.8896,47.9282,0.1406,-0.2403,-0.2022,0.31
18:42:40:479,0.5767,-0.1425,9.2633,47.8522,-0.018,-0.2009,-0.141,0.31
18:42:40:499,0.6843,-0.1192,9.6369,48.169,-0.0776,-0.1274,-0.0718,135.68
18:42:40:520,0.845,-0.049,9.7947,48.3351,-0.076,-0.0577,-0.0462,135.95
18:42:40:540,0.9365,-0.0099,9.9089,48.4271,-0.0335,-0.038,-0.0654,136.1
18:42:40:560,0.8538,-0.113,9.8584,48.1976,0.0283,-0.0311,-0.0867,136.24
18:42:40:580,0.6836,-0.1852,9.6715,48.4335,0.0634,-0.0407,-0.0654,136.39
18:42:40:599,0.6596,-0.1368,9.5484,48.2999,0.0565,-0.029,-0.0244,136.53
18:42:40:619,0.7024,-0.0633,9.5989,48.194,0.0299,-0.0087,0.0017,136.61
18:42:40:639,0.7786,-0.0108,9.6296,48.4233,0.0102,0.0312,0.0108,136.61
18:42:40:659,0.7776,0.0253,9.6511,48.5316,0.0086,0.0376,0.0028,136.61
18:42:40:680,0.7073,0.0431,9.7287,48.6399,0.0235,0.0354,-0.0095,136.59
18:42:40:700,0.582,0.0094,9.7421,48.5844,0.0565,0.0594,-0.0143,136.59
18:42:40:719,0.4259,-0.0258,9.7289,48.6048,0.1049,0.0583,0.0033,136.57
18:42:40:739,0.3747,-0.0047,9.644,48.9857,0.164,0.0243,0.0539,136.54
18:42:40:760,0.6087,0.0831,9.5773,48.8452,0.2162,0.0094,0.081,136.5
18:42:40:780,0.7618,0.2272,9.2388,49.11,0.1896,-0.013,0.0549,136.41
18:42:40:800,0.7951,0.1967,9.2019,49.1627,0.0969,-0.0577,0.0278,136.3
18:42:40:820,0.7772,0.0317,9.474,48.9675,0.0176,-0.0534,0.0251,136.25
18:42:40:840,0.7632,-0.0789,9.6641,48.9391,0.0038,-0.0188,0.0432,136.23
18:42:40:860,0.7894,-0.0618,9.585,48.7551,0.0506,-0.0327,0.0773,136.21
18:42:40:880,0.8617,-0.0024,9.3641,48.9511,0.0858,-0.0976,0.1193,136.18
18:42:40:899,1.1184,0.0998,9.3284,48.9819,0.0884,-0.1471,0.1364,136.12
18:42:40:919,1.308,0.2566,9.444,48.8061,0.0655,-0.0662,0.1151,136.02
18:42:40:939,1.4322,0.407,9.416,48.7834,0.0267,0.0945,0.0555,135.9
18:42:40:959,1.2932,0.4068,9.2103,48.4451,-0.0383,0.1302,-0.0217,135.8
18:42:40:979,1.0199,0.3337,9.1436,48.6732,-0.0819,0.0706,-0.0153,135.78
18:42:41:001,0.9366,0.2205,9.1128,48.9894,-0.0957,-0.0029,0.048,135.84
18:42:41:019,0.2437,-0.1937,9.4823,49.0419,-0.0899,0.1211,0.2977,135.89
18:42:41:039,1.1987,1.0646,9.7128,49.0639,0.0453,0.103,0.386,135.86
18:42:41:059,1.5922,1.3983,9.147,48.9858,0.0469,0.1595,0.0672,135.55
18:42:41:079,1.2918,1.0825,8.9061,49.0303,-0.1271,0.193,-0.1915,135.13
18:42:41:100,0.5755,0.494,9.2378,49.0805,-0.2416,0.251,-0.2469,135.08
18:42:41:119,0.0393,0.0994,9.6375,49.2596,-0.2203,0.2356,-0.1591,135.33
18:42:41:140,-0.2305,-0.0855,9.7561,49.3986,-0.1304,0.1323,-0.0339,135.63
18:42:41:160,-0.1683,-0.0943,9.8555,49.1911,-0.0537,0.0227,0.0725,135.83
18:42:41:179,0.185,-0.2233,9.8907,48.8165,-0.0324,-0.0391,0.0996,135.88
18:42:41:199,0.2866,-0.4211,10.0411,48.9579,-0.0441,-0.0641,0.1172,135.81
18:42:41:219,0.1163,-0.7164,10.6698,48.8704,-0.018,0.1233,0.1912,135.7
18:42:41:240,0.1155,-0.6381,10.4045,48.8237,0.0565,0.3197,0.287,135.56
18:42:41:260,0.1749,-0.4135,9.8114,48.8395,0.0293,0.2526,0.3067,135.34
18:42:41:279,0.3456,-0.1596,9.7401,48.5536,-0.0409,0.1211,0.2769,135.01
18:42:41:300,0.3591,0.0305,10.1462,48.4004,-0.0377,0.0258,0.2407,134.65
18:42:41:319,0.458,0.2288,10.2551,48.4881,0.0331,0.0354,0.2439,134.33
18:42:41:340,0.6818,0.5261,9.8653,48.5882,0.0874,0.0514,0.2237,134.05
18:42:41:360,0.8354,0.6695,9.5751,48.8626,0.0932,0.0684,0.1619,133.77
18:42:41:379,0.8148,0.6399,9.5419,48.873,0.0916,0.0924,0.0821,133.52
18:42:41:400,0.5959,0.4239,9.5469,48.9126,0.0948,0.0913,-0.0047,133.34
18:42:41:420,0.1927,0.0356,9.5152,48.8555,0.0671,0.0599,-0.059,133.25
18:42:41:440,-0.1635,-0.3322,9.6894,48.8769,0.0261,0.0062,-0.0622,133.26
18:42:41:459,-0.2605,-0.4976,9.9703,49.1732,0.0171,0.0088,-0.0446,133.34
18:42:41:479,-0.4222,-0.52,9.9369,49.4146,0.0426,0.0599,-0.027,133.42
18:42:41:500,-0.5489,-0.5407,9.5565,49.3575,0.0671,0.0818,0.0251,133.47
18:42:41:520,-0.4917,-0.4269,9.2846,49.5891,0.0623,0.0248,0.0906,133.5
18:42:41:540,-0.2044,-0.2795,9.1125,49.4951,0.0389,-0.0343,0.1145,133.46
18:42:41:560,0.0083,-0.1579,9.1363,49.5836,0.0059,-0.1077,0.1145,133.36
18:42:41:580,0.2246,-0.0878,9.4318,49.6701,-0.0015,-0.1354,0.1092,133.23
18:42:41:600,0.3628,-0.0147,9.5603,49.6373,-0.0031,-0.1423,0.0853,133.1
18:42:41:619,0.3736,-0.0062,9.6987,49.7653,-0.0138,-0.0827,0.0571,132.97
18:42:41:640,0.4245,0.0058,9.7775,49.9538,-0.0175,-0.0263,0.0469,132.88
18:42:41:660,0.421,0.0297,9.8259,50.0066,0.0107,-0.0167,0.0331,132.81
18:42:41:679,0.3831,-0.0217,9.7335,50.0828,0.0304,0.0014,0.032,132.76
18:42:41:699,0.376,-0.0036,9.5474,50.1199,0.023,0.0232,0.0363,132.72
18:42:41:720,0.4075,-0.0365,9.4468,50.2632,-0.0026,0.0163,0.0278,132.69
18:42:41:740,0.4415,-0.1036,9.555,50.1324,-0.0079,-0.0236,0.0177,132.65
18:42:41:760,0.4036,-0.1747,9.5858,50.181,0.0091,-0.0433,0.0193,132.62
18:42:41:780,0.4408,-0.1489,9.4575,50.4492,0.0118,-0.0407,0.0411,132.6
18:42:41:799,0.557,-0.0359,9.3631,50.1663,-0.01,-0.0087,0.0512,132.58
18:42:41:819,0.6779,0.0732,9.279,50.065,-0.0436,0.0046,0.0352,132.53
18:42:41:839,0.7405,0.1491,9.2752,50.0575,-0.0745,-0.0252,0.0092,132.48
18:42:41:860,0.7118,0.1805,9.4686,50.045,-0.0952,-0.0412,-0.0201,132.44
18:42:41:880,0.7307,0.1831,9.7388,49.7282,-0.083,-0.0497,-0.0489,132.43
18:42:41:899,0.5873,0.1519,9.7576,49.7815,-0.0617,-0.0316,-0.0659,132.46
18:42:41:919,0.4769,0.1578,9.7587,50.0065,-0.0521,-0.0039,-0.0568,132.52
18:42:41:940,0.4533,0.1799,9.7988,50.0732,-0.0292,-0.0157,-0.0547,132.6
18:42:41:959,0.4545,0.1698,9.8229,50.1832,0.0096,-0.0162,-0.0552,132.67
18:42:41:979,0.474,0.1252,9.7001,50.3397,0.0261,-0.0183,-0.0696,132.73
18:42:42:001,0.4192,0.0043,9.7147,50.3359,0.0171,-0.0231,-0.0765,132.8
18:42:42:019,0.2836,-0.1149,9.8896,50.2903,0.0352,0.0019,-0.0536,132.88
18:42:42:039,0.2352,-0.1667,9.7377,50.3727,0.0671,0.0445,-0.0089,132.97
18:42:42:059,0.2191,-0.0797,9.3372,50.5031,0.057,0.0951,0.0517,133.03
18:42:42:079,0.3652,0.0786,9.0771,50.444,0.0496,0.0919,0.0911,133.04
18:42:42:099,0.647,0.3357,8.805,50.408,0.0251,0.0456,0.0863,132.98
18:42:42:119,0.8036,0.5324,8.618,50.3101,-0.0627,-0.0428,0.0097,132.88
18:42:42:140,0.6209,0.4467,9.0809,50.1133,-0.1681,-0.1184,-0.0574,132.78
18:42:42:160,0.2323,0.2466,9.436,50.036,-0.2789,-0.0614,-0.0297,132.77
18:42:42:180,0.0236,0.1656,9.5998,50.1265,-0.3273,0.1275,0.048,132.84
18:42:42:199,-0.1566,0.2699,9.2779,50.13,-0.3358,0.2745,0.1401,132.87
18:42:42:220,-0.1531,0.6345,8.9924,49.912,-0.3252,0.2675,0.1726,132.82
18:42:42:240,0.2974,0.8813,9.1524,49.9767,-0.2767,0.1073,0.0523,132.66
18:42:42:259,0.0428,1.0561,9.4255,49.9207,-0.1708,-0.1104,-0.1963,132.46
18:42:42:279,-0.6462,0.9459,9.4313,49.74,-0.158,-0.2728,-0.2187,132.4
18:42:42:299,-0.732,0.7165,9.6827,49.5393,-0.2469,-0.2941,-0.0893,132.62
18:42:42:319,-0.3827,0.5862,10.2872,49.5023,-0.3486,-0.3026,0.0017,132.85
18:42:42:340,-0.0551,0.5162,11.0081,49.3972,-0.388,-0.2424,0.0118,132.93
18:42:42:360,-0.0682,0.3693,11.1723,49.3825,-0.3358,-0.0502,0.0438,132.91
18:42:42:379,-0.0996,0.2836,10.6216,49.274,-0.1932,0.1717,0.1401,132.87
18:42:42:399,0.0306,0.4844,9.8829,49.3078,0.0032,0.1989,0.2343,132.81
18:42:42:419,0.2672,0.6879,8.9563,49.2889,0.164,0.0189,0.2593,132.66
18:42:42:494,0.5486,0.8056,8.6573,49.2826,0.1959,-0.1604,0.2066,132.39
18:42:42:500,0.5873,0.8181,8.7797,49.3841,0.1677,-0.2323,0.1135,132.09
18:42:42:500,0.4743,0.6789,9.0477,49.6659,0.1289,-0.2435,0.0368,131.83
18:42:42:500,0.3471,0.5265,9.3363,49.8307,0.0842,-0.2461,-0.0132,131.68
18:42:42:519,0.2842,0.3812,9.5629,50.0967,0.0384,-0.203,-0.051,131.62
18:42:42:539,0.2091,0.294,9.5946,50.1063,-0.0106,-0.1147,-0.052,131.61
18:42:42:559,0.2641,0.3612,9.4909,50.2449,-0.0707,-0.0487,-0.0387,131.66
18:42:42:581,0.3954,0.269,9.4683,50.6323,-0.1176,0.0248,-0.0478,131.7
18:42:42:601,0.362,0.0931,9.5131,50.9194,-0.1117,0.1227,-0.0558,131.74
18:42:42:620,0.3226,0.2311,9.4236,51.1101,-0.0872,0.2021,-0.0489,131.79
18:42:42:640,0.663,0.4335,9.3283,51.2118,-0.1149,0.1568,-0.0984,131.85
18:42:42:660,0.8177,0.6511,9.5626,51.2509,-0.1176,0.0179,-0.1926,131.91
18:42:42:680,0.8126,0.6761,9.7709,51.2842,-0.0521,-0.1594,-0.2368,132.02
18:42:42:699,1.2896,0.3238,10.1222,51.2046,0.0724,-0.367,-0.3651,132.23
18:42:42:720,1.3952,0.2664,10.5953,51.3934,0.2391,-0.4825,-0.5237,132.49
18:42:42:740,1.286,0.2686,11.0701,51.5528,0.4004,-0.2797,-0.5769,132.89
18:42:42:760,1.3916,0.0782,11.5102,51.5348,0.5068,0.2904,-0.5977,133.46
18:42:42:780,1.2807,-0.4116,11.3395,51.4826,0.5441,0.7482,-0.5817,134.11
18:42:42:801,0.1237,-0.8758,10.4463,51.4771,0.4222,0.8451,-0.4699,134.8
18:42:42:820,-1.0058,-1.0569,9.3439,51.5281,0.1108,0.5747,-0.1931,135.47
18:42:42:840,-0.9326,-1.1189,8.5505,51.5698,-0.3124,0.2505,0.1646,136.01
18:42:42:860,0.0204,-0.8569,8.7487,51.6222,-0.5722,-0.0769,0.4041,136.22
18:42:42:880,1.3689,-0.3056,8.9947,51.9213,-0.6526,-0.6699,0.4387,136.03
18:42:42:900,2.3115,-0.0175,9.6442,51.9195,-0.6627,-1.1069,0.2269,135.56
18:42:42:919,2.0448,-0.6042,10.6768,51.9142,-0.7351,-0.9818,-0.0222,135.05
18:42:42:940,1.4044,-1.208,11.7588,51.8069,-0.6446,0.2526,0.0379,134.75
18:42:42:960,1.1448,-1.0355,11.3364,52.0352,-0.4125,0.6737,0.0336,134.73
18:42:42:980,1.1749,-0.9162,10.5212,52.1094,-0.1357,0.6774,-0.1378,134.71
18:42:43:000,0.9647,-1.0357,9.8602,52.3397,0.0618,0.3213,-0.3443,134.72
18:42:43:019,0.4734,-1.4537,9.7372,52.5675,0.2103,-0.1546,-0.4348,134.94
18:42:43:039,-0.0398,-1.8143,9.95,52.6804,0.3413,-0.441,-0.34,135.36
18:42:43:059,-0.2614,-1.795,9.9313,52.7148,0.4467,-0.4335,-0.093,135.85
18:42:43:079,0.161,-1.2314,9.6103,52.7313,0.4648,-0.2078,0.1343,136.21
18:42:43:100,0.9115,-0.4389,9.1105,53.0856,0.3833,0.127,0.1827,136.29
18:42:43:119,1.3428,0.1462,8.5967,53.1277,0.2678,0.3756,0.0778,136.12
18:42:43:140,1.2921,0.2616,8.3265,53.2302,0.1629,0.5103,-0.0526,135.92
18:42:43:159,0.9045,0.149,8.1963,53.3995,0.09,0.5459,-0.1031,135.85
18:42:43:179,0.6985,0.1655,8.0647,53.5757,0.0512,0.4741,-0.1191,135.93
18:42:43:200,0.7803,0.2735,8.0485,53.6103,0.0453,0.3681,-0.1782,136.06
18:42:43:220,0.9618,0.3713,8.0304,53.7369,-0.0111,0.3021,-0.2809,136.22
18:42:43:240,1.2803,0.4082,8.279,53.8161,-0.0415,0.2824,-0.4699,136.43
18:42:43:260,0.8444,0.4858,8.245,54.0444,-0.0553,0.2505,-0.5881,136.76
18:42:43:280,0.4604,0.2637,8.2262,54.0194,-0.0707,0.2276,-0.5993,137.31
18:42:43:299,-0.1015,0.0677,8.0993,54.2072,-0.1,0.1781,-0.5248,137.99
18:42:43:320,-0.5714,0.0228,8.2213,54.272,-0.158,0.0999,-0.3438,138.69
18:42:43:340,-0.7331,0.3259,8.7012,54.2809,-0.1831,0.0189,-0.1335,139.3
18:42:43:359,-0.4459,0.7055,9.1982,54.3704,-0.1341,0.0131,0.0177,139.69
18:42:43:379,-0.0567,1.085,9.3827,54.2443,-0.0904,0.0589,0.0608,139.85
18:42:43:399,0.2026,1.3016,9.5431,54.3203,-0.092,0.0711,0.0091,139.83
18:42:43:420,0.2371,1.2348,10.0205,54.4676,-0.0888,0.0445,-0.0925,139.76
18:42:43:440,0.0565,0.7986,10.5751,54.418,-0.0212,0.0184,-0.175,139.75
18:42:43:459,-0.268,0.243,10.8087,54.6805,0.0629,0.0791,-0.1649,139.85
18:42:43:480,-0.5459,-0.0675,10.7652,54.942,0.1113,0.1941,-0.0622,140.05
18:42:43:502,-0.4716,-0.0651,10.6204,54.9891,0.1438,0.3394,0.0555,140.24
18:42:43:521,0.0011,0.1956,10.244,55.1412,0.1512,0.4778,0.1316,140.32
18:42:43:541,0.4193,0.471,9.6927,55.3176,0.0751,0.4789,0.1012,140.26
18:42:43:559,0.2355,0.3067,10.1139,55.6773,-0.0361,0.2846,-0.0127,140.13
18:42:43:581,0.0207,-0.2713,11.2316,55.8635,-0.083,0.2143,-0.0936,140.03
18:42:43:602,-0.1623,-0.7412,11.6829,55.96,-0.124,0.2436,-0.1399,140.05
18:42:43:620,-0.3971,-1.234,12.0007,56.2559,-0.1825,0.077,-0.2272,140.16
18:42:43:640,-1.2155,-1.6764,12.8765,56.2071,-0.1202,-0.0465,-0.2698,140.33
18:42:43:660,-1.9758,-2.1623,12.7398,56.3353,0.0687,0.1792,-0.0952,140.59
18:42:43:680,-2.1899,-2.3104,11.1856,56.5228,0.2449,0.5438,0.2876,140.9
18:42:43:700,-1.6929,-1.7359,9.1992,56.7792,0.336,0.6189,0.6245,141.01
18:42:43:720,-0.6889,-0.9576,7.776,56.9372,0.2944,0.3117,0.6932,140.71
18:42:43:740,-0.0744,-0.4146,7.6443,57.0239,0.1693,-0.1205,0.5287,140.01
18:42:43:760,-0.1153,-0.4818,8.5614,57.4343,0.0874,-0.4937,0.279,139.22
18:42:43:780,-0.4728,-1.0107,9.6514,57.6333,0.0613,-0.5187,0.1428,138.61
18:42:43:800,-0.8021,-1.2506,10.1202,57.9185,0.0352,-0.309,0.1364,138.29
18:42:43:820,-0.8931,-1.2059,10.0922,58.3924,0.0347,-0.0758,0.1518,138.12
18:42:43:841,-0.9467,-1.0272,9.671,58.5798,0.0522,0.078,0.1742,137.96
18:42:43:860,-0.9947,-0.8928,9.094,59.0244,0.1007,0.1078,0.2162,137.79
18:42:43:880,-0.9956,-0.73,8.3735,59.1938,0.1454,0.0754,0.2892,137.59
18:42:43:900,-0.7657,-0.4461,7.6553,59.3924,0.1443,0.004,0.3514,137.35
18:42:43:920,-0.506,-0.0451,7.3575,59.7251,0.073,-0.0849,0.3493,137.02
18:42:43:940,-0.3046,0.19,7.601,59.8961,-0.0042,-0.1737,0.2758,136.62
18:42:43:960,-0.4284,0.0692,7.9736,60.125,-0.0835,-0.1913,0.2072,136.23
18:42:43:980,-0.822,-0.2068,8.503,60.3492,-0.1698,-0.1301,0.221,135.91
18:42:44:000,-0.8138,-0.1668,9.1424,60.4429,-0.1596,-0.1258,0.2822,135.68
18:42:44:020,-0.4364,0.1816,9.3183,60.6227,-0.0574,-0.1471,0.2886,135.43
18:42:44:040,0.1016,0.5793,9.1045,61.0151,-0.0047,-0.1823,0.1923,135.11
18:42:44:059,0.4138,0.8598,8.9412,61.0546,-0.0393,-0.1737,0.0123,134.78
18:42:44:080,0.2771,0.8281,8.9754,61.6004,-0.1059,-0.1173,-0.1707,134.56
18:42:44:099,-0.0929,0.6611,9.0987,61.7978,-0.1511,-0.0519,-0.265,134.55
18:42:44:120,-0.5071,0.5944,9.1401,61.956,-0.1484,-0.0577,-0.2857,134.74
18:42:44:140,-0.7581,0.5294,9.0801,62.2215,-0.1437,-0.1067,-0.2447,135.05
18:42:44:159,-0.8168,0.5782,9.2942,62.2948,-0.1495,-0.1674,-0.1782,135.38
18:42:44:180,-0.8052,0.5982,9.609,62.4548,-0.1367,-0.2776,-0.1159,135.66
18:42:44:200,-0.6997,0.5286,10.1204,62.6115,-0.1101,-0.4032,-0.0478,135.86
18:42:44:219,-0.3887,0.3707,10.6778,62.5414,-0.0649,-0.5219,0.0113,135.99
18:42:44:239,0.2596,-0.0152,11.2517,62.9004,-0.0292,-0.5182,0.04,136.03
18:42:44:259,0.9283,-0.3571,11.3821,62.9184,-0.0713,-0.3622,-0.0212,136
18:42:44:280,1.1563,-0.379,11.3031,63.2734,-0.2634,-0.3074,-0.1878,135.94
18:42:44:300,0.8792,-0.564,12.0225,63.3076,-0.4561,-0.3201,-0.4199,135.96
18:42:44:320,-0.0564,-1.3394,13.1263,63.3406,-0.4535,-0.2706,-0.5173,136.16
18:42:44:340,-1.1794,-2.0029,13.6254,63.501,-0.2405,-0.1439,-0.3294,136.63
18:42:44:359,-1.2321,-2.2912,13.2312,63.4697,0.1353,0.0035,0.0278,137.21
18:42:44:380,-0.0454,-1.7113,11.352,63.6421,0.485,0.0727,0.3115,137.59
18:42:44:400,1.8241,-0.9264,9.4225,63.7004,0.6154,-0.0849,0.2444,137.56
18:42:44:420,3.0184,-0.3853,8.272,63.6527,0.4579,-0.2414,-0.15,137.21
18:42:44:440,2.758,-0.3886,8.5366,63.5603,0.1278,-0.2286,-0.6552,136.93
18:42:44:459,1.3281,-1.2405,9.6017,63.3565,-0.0601,-0.0492,-0.966,137.1
18:42:44:480,-0.4257,-2.1193,10.0531,63.5919,-0.0723,0.1696,-0.8915,137.85
18:42:44:550,-1.4553,-2.3171,9.7906,63.649,0.032,0.284,-0.521,138.97
18:42:44:550,-1.4327,-1.804,9.0053,63.526,0.1667,0.2053,-0.1101,140
18:42:44:550,-0.6176,-0.857,8.2719,63.56,0.2465,0.0205,0.1156,140.61
18:42:44:558,-0.0101,-0.1592,7.922,63.321,0.2454,-0.0705,0.1577,140.75
18:42:44:579,0.2906,0.1599,7.7335,63.3468,0.2045,-0.0508,0.1417,140.62
18:42:44:599,0.5139,0.3782,7.7167,63.2468,0.1715,-0.0497,0.1076,140.45
18:42:44:619,0.6929,0.5342,7.881,63.3661,0.1629,-0.0609,0.0352,140.29
18:42:44:640,0.7182,0.5439,7.9426,63.3345,0.1576,-0.0412,-0.06,140.17
18:42:44:660,0.6691,0.4252,8.0557,63.0761,0.1315,0.0258,-0.1244,140.13
18:42:44:680,0.5821,0.2806,8.0862,62.8904,0.0937,0.0663,-0.1633,140.2
18:42:44:699,0.5516,0.2083,8.2415,62.7699,0.073,0.0429,-0.1591,140.35
18:42:44:719,0.6766,0.2237,8.3401,62.7324,0.0602,0.0157,-0.1367,140.54
18:42:44:740,0.8624,0.3599,8.4084,62.6165,0.032,-0.029,-0.1447,140.73
18:42:44:760,0.7808,0.4001,8.6812,62.5152,0.0139,-0.0641,-0.1692,140.89
18:42:44:780,0.5818,0.3999,9.118,62.6143,-0.0154,0.0019,-0.1553,141.06
18:42:44:800,0.5143,0.4535,9.443,62.6063,-0.051,0.2239,-0.1234,141.26
18:42:44:819,0.4499,0.4792,9.5441,62.4045,-0.0931,0.3516,-0.0898,141.45
18:42:44:840,0.4408,0.3829,9.8726,62.4141,-0.0798,0.3751,-0.051,141.59
18:42:44:860,0.2439,0.2906,10.017,62.4345,-0.0217,0.2755,-0.0175,141.7
18:42:44:880,-0.0401,0.0564,10.115,62.5031,-0.0026,0.1696,0.031,141.76
18:42:44:900,-0.5244,-0.3005,10.4422,62.2757,-0.0319,0.1648,0.1492,141.78
18:42:44:920,-0.7068,-0.4722,10.6366,62.2763,-0.067,0.2627,0.3216,141.75
18:42:44:940,-0.1494,-0.3002,10.2199,62.2097,-0.124,0.2409,0.4126,141.59
18:42:44:961,0.6989,-0.0642,10.0501,62.0024,-0.2714,-0.0327,0.3019,141.22
18:42:44:980,0.6978,-0.1749,11.0634,61.6687,-0.405,-0.3287,0.048,140.76
18:42:45:000,-0.1788,-0.8358,12.2726,61.5469,-0.3449,-0.2781,-0.1053,140.42
18:42:45:020,-0.9782,-1.5345,12.2091,61.2711,-0.1814,-0.1045,-0.0265,140.37
18:42:45:039,-1.1668,-1.5109,11.6682,61.0725,-0.0164,-0.2307,0.1955,140.49
18:42:45:059,-0.4266,-1.0876,11.5113,60.8788,0.164,-0.4516,0.3552,140.53
18:42:45:080,0.395,-0.7424,11.2423,60.9532,0.37,-0.5235,0.3525,140.31
18:42:45:100,0.8033,-0.597,10.6185,60.9858,0.551,-0.416,0.2285,139.89
18:42:45:120,0.7208,-0.6036,9.9062,60.8129,0.6601,-0.3617,0.106,139.49
18:42:45:140,0.6685,-0.6231,9.5725,60.8088,0.6894,-0.4011,0.0203,139.23
18:42:45:160,0.6919,-0.5752,9.4658,60.7193,0.6665,-0.4277,-0.0739,139.12
18:42:45:179,0.7887,-0.2139,9.5349,60.8444,0.6436,-0.3558,-0.1873,139.11
18:42:45:200,0.9309,-0.2029,9.0993,60.803,0.4754,-0.2323,-0.4135,139.22
18:42:45:220,0.4458,-0.0882,8.8473,60.6629,0.2817,-0.1093,-0.5098,139.46
18:42:45:240,0.0213,0.0769,8.4529,60.7037,0.0874,-0.0023,-0.5077,139.98
18:42:45:260,-0.1486,0.3363,7.7961,60.5956,-0.108,0.0062,-0.5141,140.55
18:42:45:280,-0.1574,0.4956,7.2614,60.5129,-0.3342,-0.1881,-0.5561,141.14
18:42:45:300,-0.1501,0.0877,7.7539,60.2324,-0.5184,-0.1509,-0.5162,141.74
18:42:45:322,-0.2693,-0.278,7.9399,59.8936,-0.5733,-0.1546,-0.3837,142.4
18:42:45:339,-0.0468,-0.2449,8.1119,59.8456,-0.5546,-0.2318,-0.3432,143.01
18:42:45:359,-0.1963,0.3895,8.5683,59.4133,-0.437,-0.2674,-0.1127,143.46
18:42:45:379,0.7654,0.4558,8.9907,59.0783,-0.2523,-0.2589,-0.0111,143.87
18:42:45:399,1.4606,0.5801,9.0511,58.8773,-0.0622,-0.07,-0.1282,144.02
18:42:45:420,1.1218,0.6429,8.9798,58.505,0.0895,0.1222,-0.2756,144.04
18:42:45:439,0.713,0.4732,8.8403,58.0649,0.2109,0.2255,-0.3278,144.2
18:42:45:459,0.688,0.4183,8.8407,57.6575,0.3056,0.3575,-0.2985,144.52
18:42:45:480,0.8311,0.7303,8.6535,57.6058,0.3392,0.4161,-0.2959,144.89
18:42:45:500,0.7476,1.1754,8.3775,57.5111,0.328,0.2819,-0.3134,145.23
18:42:45:520,0.7192,1.3087,7.9632,57.0167,0.1976,0.0482,-0.3603,145.56
18:42:45:540,0.5417,0.8371,8.1273,56.8899,-0.0484,-0.2046,-0.3874,145.91
18:42:45:560,-0.0629,-0.063,9.4942,56.7258,-0.2741,-0.0077,-0.1915,146.33
18:42:45:580,0.1258,-0.2026,10.8691,56.5644,-0.3412,-0.0071,0.1023,146.79
18:42:45:600,0.9416,0.3242,11.6951,56.2961,-0.2501,0.1249,0.2956,147.02
18:42:45:620,1.6604,0.7766,11.716,56.1322,-0.0659,0.3303,0.3733,146.9
18:42:45:640,2.2166,0.6568,11.0575,56.024,0.073,0.5901,0.3312,146.56
18:42:45:660,1.7689,0.334,10.8469,55.7033,0.0724,0.4453,0.2349,146.13
18:42:45:680,0.8667,0.1441,11.7733,55.3521,0.0203,0.0935,0.1683,145.74
18:42:45:700,0.585,-0.3411,13.1101,55.3585,0.0453,0.0461,0.0943,145.46
18:42:45:720,0.3424,-0.8133,13.3049,55.1189,0.2146,0.3351,0.1151,145.27
18:42:45:740,0.3884,-0.7819,12.1957,54.887,0.4169,0.5034,0.2232,145.16
18:42:45:761,1.034,-0.5525,10.7981,54.7454,0.5531,0.4075,0.204,145.02
18:42:45:780,1.6006,-0.3284,9.6612,54.6298,0.5542,0.1946,0.0528,144.75
18:42:45:799,1.8211,0.1891,8.9903,54.7569,0.4121,0.0062,-0.1936,144.5
18:42:45:820,1.3581,0.2752,8.7064,54.5363,0.2561,-0.2201,-0.4545,144.43
18:42:45:840,0.6179,0.429,8.7452,54.5022,0.1427,-0.2621,-0.6099,144.66
18:42:45:860,0.0734,0.5557,8.3649,54.3354,0.065,-0.1184,-0.6653,145.21
18:42:45:880,-0.1496,0.8127,7.6771,54.2306,-0.0239,0.0562,-0.6525,145.93
18:42:45:899,-0.2047,0.9885,7.0852,54.1543,-0.1059,0.1126,-0.603,146.71
18:42:45:920,-0.02,1.1862,6.677,53.9735,-0.1857,0.0482,-0.5109,147.46
18:42:45:940,0.4251,1.4807,6.691,53.753,-0.2006,-0.0066,-0.438,148.14
18:42:45:960,0.801,1.6702,6.6792,53.6872,-0.2235,-0.0412,-0.4364,148.73
18:42:45:980,1.015,1.7792,6.8959,53.3701,-0.3065,-0.0321,-0.4816,149.23
18:42:46:000,0.9419,1.6196,7.4052,53.2728,-0.4444,-0.0114,-0.5716,149.74
18:42:46:020,0.5899,1.2928,8.1146,52.9877,-0.5504,-0.0167,-0.6323,150.3
18:42:46:039,0.1116,0.8501,8.8346,52.8144,-0.5956,-0.0263,-0.6174,150.96
18:42:46:059,-0.5655,0.5392,9.361,52.402,-0.5988,-0.022,-0.4864,151.69
18:42:46:079,-0.8916,0.4562,9.8215,51.9756,-0.5051,-0.0433,-0.2735,152.4
18:42:46:099,-0.9939,0.5694,10.3089,51.744,-0.3502,-0.0396,-0.0489,152.96
18:42:46:120,-0.8016,0.8144,10.7697,51.4315,-0.1671,0.0019,0.1348,153.28
18:42:46:140,-0.1101,0.8628,10.9676,51.217,0.0054,0.1014,0.2056,153.34
18:42:46:160,0.2281,0.4946,11.2267,50.7636,0.1113,0.201,0.2189,153.18
18:42:46:180,0.3157,0.0034,11.4922,50.7006,0.1629,0.2622,0.2764,152.95
18:42:46:200,0.4127,-0.2833,11.7013,50.4476,0.2002,0.3596,0.3451,152.7
18:42:46:230,0.4745,-0.21,11.513,50.2843,0.2151,0.5459,0.4031,152.39
18:42:46:240,0.59,-0.0085,10.7981,50.3082,0.1443,0.6567,0.4052,151.99
18:42:46:259,0.6641,0.2729,10.451,50.2951,-0.0005,0.5188,0.3312,151.52
18:42:46:279,0.8165,0.3478,10.6704,50.2262,-0.1708,0.3341,0.1417,151.05
18:42:46:299,0.3992,0.1815,11.3015,50.1369,-0.3172,0.0961,-0.0952,150.66
18:42:46:320,-0.3977,-0.435,12.4428,50.2291,-0.3113,-0.1301,-0.249,150.49
18:42:46:339,-1.4461,-1.4388,13.1334,50.4484,-0.0516,-0.0678,-0.1915,150.6
18:42:46:360,-1.7559,-2.1485,12.3121,50.312,0.321,0.3346,0.0688,150.89
18:42:46:379,-1.1009,-2.0226,9.5392,50.4955,0.4626,0.6428,0.2876,151.11
18:42:46:399,-0.2617,-1.2085,7.3292,50.467,0.2561,0.4554,0.3025,151.03
18:42:46:421,0.3167,-0.4659,7.1462,50.6299,-0.0282,-0.1003,0.0773,150.7
18:42:46:440,0.3347,-0.3688,8.4737,50.6109,-0.1868,-0.564,-0.2208,150.34
18:42:46:460,-0.0592,-0.7327,10.0023,50.4943,-0.2065,-0.6315,-0.3645,150.26
18:42:46:479,-0.4636,-0.9992,10.8001,50.5736,-0.1224,-0.4032,-0.3395,150.53
18:42:46:499,-0.6228,-0.7415,10.5476,50.4653,0.023,-0.1024,-0.2453,150.96
18:42:46:519,-0.4787,-0.2997,9.6252,50.3472,0.1134,0.1036,-0.1931,151.36
18:42:46:539,-0.3042,0.0383,8.6799,50.23,0.1677,0.1451,-0.1724,151.64
18:42:46:613,-0.1828,0.2777,7.9729,50.1368,0.1928,0.045,-0.1681,151.86
18:42:46:613,-0.0843,0.3594,7.79,50.1297,0.2013,-0.0082,-0.1867,152.06
18:42:46:614,0.0527,0.3791,7.8831,49.9466,0.2258,0.0088,-0.2623,152.25
18:42:46:624,-0.3525,0.3734,7.7694,50.1188,0.1805,0.127,-0.3528,152.47
18:42:46:639,-0.8689,0.2006,7.8019,50.2006,0.0495,0.1818,-0.3528,152.77
18:42:46:659,-1.2174,0.1623,8.202,50.2828,-0.0383,0.1334,-0.266,153.17
18:42:46:679,-1.0365,0.285,8.5842,50.4182,-0.0383,0.0205,-0.1463,153.57
18:42:46:700,-0.7106,0.4128,8.9467,50.5102,-0.0037,-0.0471,-0.1042,153.87
18:42:46:721,-0.2933,0.6493,9.112,50.3864,0.0245,-0.0172,-0.0983,154.04
18:42:46:739,-0.1247,0.8087,9.2215,50.4501,0.0724,0.0338,-0.1734,154.16
18:42:46:760,-0.1697,0.8297,9.0232,50.5632,0.0831,0.0732,-0.2501,154.27
18:42:46:779,-0.3261,0.7541,8.8892,50.5837,0.0075,0.029,-0.3086,154.47
18:42:46:799,-0.4707,0.5338,9.7961,50.4258,-0.0468,-0.1312,-0.3384,154.75
18:42:46:820,-0.7987,-0.0621,11.6312,50.3195,0.0549,-0.1727,-0.2879,155.11
18:42:46:840,-1.1926,-0.4715,12.5132,50.3164,0.1645,0.0077,-0.1037,155.5
18:42:46:865,-1.1986,-0.5602,12.5656,50.1554,0.2912,0.3218,0.1295,155.84
18:42:46:880,-0.3064,-0.2959,11.3157,50.1737,0.3179,0.6875,0.2966,155.95
18:42:46:900,0.7442,0.2646,9.4632,50.4443,0.1353,0.8137,0.2258,155.79
18:42:46:920,0.9163,0.7437,8.5761,50.5409,-0.2139,0.4491,-0.0515,155.41
18:42:46:940,0.3979,0.7002,9.5193,50.2545,-0.5301,-0.0934,-0.348,155.11
18:42:46:960,-0.4556,0.2132,11.4703,50.2471,-0.6158,-0.4149,-0.5157,155.14
18:42:46:979,-1.1337,-0.2874,12.8344,50.4512,-0.4407,-0.3819,-0.5003,155.55
18:42:46:999,-1.318,-0.6433,12.6155,50.6441,-0.1671,-0.0806,-0.3257,156.15
18:42:47:020,-0.8162,-0.6172,11.2143,50.7545,0.0905,0.1259,-0.0968,156.74
18:42:47:039,0.4653,-0.2805,9.5762,50.6172,0.262,0.0711,-0.0174,157.11
18:42:47:059,1.6119,0.1544,8.5611,50.456,0.296,-0.1312,-0.2128,157.22
18:42:47:079,1.6991,0.3353,8.1939,50.5259,0.173,-0.2861,-0.5673,157.24
18:42:47:099,0.8556,0.1139,8.5528,50.5069,-0.0154,-0.3601,-0.8681,157.49
18:42:47:123,-0.294,-0.2925,9.1194,50.5586,-0.1266,-0.31,-0.9543,158.15
18:42:47:139,-1.1584,-0.5115,9.4131,50.6189,-0.1192,-0.1908,-0.8117,159.15
18:42:47:159,-1.3687,-0.3789,9.1688,50.4715,-0.0015,-0.0934,-0.5609,160.26
18:42:47:180,-0.8513,0.1625,8.418,50.311,0.0874,-0.1466,-0.3757,161.19
18:42:47:199,-0.1081,0.7281,7.9905,50.1093,0.0932,-0.2967,-0.3608,161.84
18:42:47:221,0.2574,1.0096,7.9902,50.2931,0.1246,-0.3989,-0.4539,162.27
18:42:47:239,0.3138,0.9068,7.9574,50.3368,0.1667,-0.3883,-0.5375,162.69
18:42:47:259,0.2827,0.774,7.804,50.1752,0.1592,-0.2658,-0.5567,163.22
18:42:47:279,0.4224,0.7717,7.889,49.988,0.1103,-0.1407,-0.5466,163.84
18:42:47:299,0.6167,0.9499,8.2523,50.0396,0.0762,-0.087,-0.5455,164.49
18:42:47:319,0.8381,1.0786,8.6029,49.8721,0.0868,-0.1014,-0.5657,165.12
18:42:47:339,0.9613,1.1551,8.9921,49.8817,0.131,-0.128,-0.5844,165.74
18:42:47:359,0.9002,1.0809,9.2488,50.0545,0.148,-0.0428,-0.6041,166.39
18:42:47:379,0.3403,1.1395,9.3441,49.909,0.0943,0.1158,-0.5844,167.07
18:42:47:400,-0.4992,1.1096,9.7284,49.899,0.0666,0.2904,-0.4699,167.76
18:42:47:419,-0.8344,1.1009,9.973,49.7151,0.1582,0.391,-0.2501,168.42
18:42:47:440,-0.6199,1.3068,9.6919,49.7358,0.2327,0.398,-0.0536,168.95
18:42:47:459,-0.282,1.7282,9.5153,49.6261,0.2486,0.2478,0.0161,169.22
18:42:47:479,-0.0297,1.7593,9.8854,49.6071,0.2268,0.0328,-0.0712,169.26
18:42:47:499,-0.2388,1.3275,10.6468,49.6021,0.1933,-0.0508,-0.1601,169.23
18:42:47:519,-0.5613,0.6928,11.1748,49.3084,0.164,0.0833,-0.1532,169.3
18:42:47:541,-0.6933,0.3697,10.884,49.1104,0.0421,0.3543,-0.0771,169.49
18:42:47:560,-0.6431,0.5302,10.5766,49.1694,-0.1618,0.5039,0.0006,169.66
18:42:47:579,-0.67,0.9243,10.8001,49.0227,-0.2885,0.4427,-0.0116,169.72
18:42:47:599,-0.8898,1.0544,11.1478,49.0136,-0.2948,0.2361,-0.1181,169.68
18:42:47:621,-1.3708,0.6645,11.2052,48.9077,-0.2964,-0.1232,-0.2235,169.66
18:42:47:639,-2.2304,-0.0481,12.1041,48.8907,-0.2629,-0.4857,-0.1537,169.78
18:42:47:659,-2.4085,-0.7612,13.2827,48.9951,-0.0862,-0.3963,0.0933,170.04
18:42:47:680,-1.5825,-1.0921,12.8087,49.0267,0.1587,-0.0348,0.3647,170.23
18:42:47:699,-0.3301,-0.7247,11.0227,49.1557,0.2396,0.1706,0.4867,170.14
18:42:47:721,0.7714,-0.1534,9.7399,49.2491,0.1768,0.1877,0.3307,169.72
18:42:47:739,1.0131,-0.0129,9.0911,49.2875,0.0927,0.0732,0.0608,169.15
18:42:47:759,0.7432,-0.2146,8.9409,49.278,0.0623,-0.046,-0.1276,168.76
18:42:47:779,0.2977,-0.4956,8.7206,49.4846,0.1134,-0.0694,-0.2022,168.69
18:42:47:799,-0.113,-0.6876,8.1468,49.627,0.1592,-0.0162,-0.1606,168.83
18:42:47:819,-0.308,-0.6613,7.5265,49.8472,0.1363,0.0157,-0.0803,169.07
18:42:47:839,-0.3685,-0.4568,7.276,49.9719,0.1118,0.0157,-0.0073,169.25
18:42:47:859,-0.3616,-0.3003,7.0733,50.0358,0.1347,-0.0008,0.0486,169.34
18:42:47:879,-0.2758,-0.1861,6.6954,50.3646,0.1198,-0.0588,0.0949,169.35
18:42:47:899,-0.2304,0.0329,6.6259,50.4572,0.0458,-0.2094,0.0996,169.29
18:42:47:920,-0.1388,0.2296,7.1816,50.5261,-0.0388,-0.3633,0.0805,169.19
18:42:47:940,-0.0884,0.4213,7.9906,50.663,-0.1138,-0.3835,0.0555,169.09
18:42:47:962,0.0526,0.7469,8.6565,50.6967,-0.1671,-0.3409,-0.002,169.02
18:42:47:980,0.1081,1.0274,9.3178,50.8233,-0.1814,-0.2813,-0.0882,168.99
18:42:47:999,-0.0209,1.0941,9.7439,50.7437,-0.1415,-0.244,-0.1548,169.01
18:42:48:019,-0.1676,1.0589,9.9698,50.7778,-0.084,-0.252,-0.1676,169.13
18:42:48:039,-0.2298,1.1749,10.1414,50.6847,-0.0265,-0.2509,-0.1511,169.32
18:42:48:059,-0.1494,1.4058,10.0876,50.7149,0.0022,-0.1402,-0.158,169.53
18:42:48:079,-0.1917,1.6029,9.8442,50.7083,-0.0255,-0.0694,-0.2027,169.72
18:42:48:099,-0.4789,1.6722,10.6071,50.6715,-0.0116,-0.1062,-0.2442,169.91
18:42:48:120,-0.7773,1.3213,11.5216,50.6261,0.1363,-0.1434,-0.2314,170.14
18:42:48:139,-0.8972,0.8867,11.7526,50.5915,0.2417,-0.1024,-0.1356,170.42
18:42:48:159,-0.2771,0.3933,11.778,50.459,0.2614,0.0003,-0.0467,170.7
18:42:48:179,0.4425,0.1672,11.3935,50.3882,0.1241,0.2074,-0.0707,170.86
18:42:48:199,0.6712,0.2938,11.205,50.3652,-0.1564,0.2798,-0.1457,170.91
18:42:48:222,0.7869,0.2593,11.7128,50.3436,-0.2735,0.2287,-0.2826,170.97
18:42:48:241,0.2278,0.088,11.7503,50.1569,-0.1996,0.078,-0.4311,171.12
18:42:48:262,-0.6896,-0.3272,11.6532,50.1223,-0.1069,-0.046,-0.4417,171.42
18:42:48:280,-1.16,-0.7952,11.7554,49.857,0.0166,0.0285,-0.2788,171.91
18:42:48:299,-0.9651,-1.037,11.3063,49.7056,0.2146,0.1962,-0.0265,172.42
18:42:48:322,-0.0275,-0.8261,10.1072,49.5589,0.4163,0.1861,0.1582,172.73
18:42:48:340,1.193,-0.4253,8.7557,49.545,0.4504,0.0008,0.1289,172.75
18:42:48:359,1.8318,0.0654,8.1043,49.4755,0.3008,-0.1775,-0.0941,172.55
18:42:48:379,1.5771,0.3438,8.2732,49.3187,0.1448,-0.2536,-0.3762,172.41
18:42:48:399,0.7913,0.2713,8.4041,49.2264,0.0852,-0.2068,-0.5727,172.53
18:42:48:419,-0.1035,0.1076,8.3505,49.1037,0.0347,-0.0375,-0.5924,172.98
18:42:48:439,-0.5726,0.1107,8.1454,48.9308,0.0139,0.1169,-0.4763,173.66
18:42:48:459,-0.5317,0.3897,7.9012,48.9806,0.0283,0.1131,-0.3411,174.34
18:42:48:479,-0.2836,0.8138,7.765,48.8847,0.057,-0.0135,-0.2586,174.87
18:42:48:499,-0.1137,1.1367,7.9871,48.8477,0.1033,-0.1189,-0.2442,175.25
18:42:48:520,-0.0425,1.2452,8.0094,48.8848,0.1342,-0.0923,-0.265,175.54
18:42:48:540,-0.1597,1.3339,7.7783,48.6862,0.0943,-0.0364,-0.2788,175.83
18:42:48:563,-0.1894,1.3115,8.0439,48.4155,0.0304,0.0195,-0.2341,176.15
18:42:48:580,-0.0649,1.3323,8.3381,48.3107,0.0075,0.0695,-0.1787,176.47
18:42:48:599,0.0641,1.4692,8.3712,48.0767,0.0139,0.0349,-0.1207,176.75
18:42:48:665,0.3096,1.7359,8.4906,48.0183,0.0325,-0.046,-0.0861,176.93
18:42:48:665,0.5976,2.0044,8.6155,48.0059,0.0368,-0.0215,-0.093,177.07
18:42:48:666,0.5253,2.2231,8.5982,47.8636,0.0208,0.0637,-0.093,177.17
18:42:48:679,0.4504,2.5596,8.6013,47.6275,0.024,0.0844,-0.0877,177.28
18:42:48:699,0.5748,2.9201,8.6361,47.2026,0.0219,0.1078,-0.1457,177.38
18:42:48:719,0.6359,3.1558,8.6428,47.0543,-0.0734,0.0881,-0.3022,177.47
18:42:48:739,0.5674,2.932,8.8808,47.0044,-0.2799,-0.0082,-0.5178,177.62
18:42:48:759,0.3563,2.2908,9.7365,46.7457,-0.4795,-0.1093,-0.6738,177.96
18:42:48:780,-0.0946,1.745,11.0909,46.6597,-0.5424,-0.1019,-0.7361,178.55
18:42:48:800,-1.1525,1.1515,13.1883,46.3791,-0.3592,0.1643,-0.7089,179.33
18:42:48:820,-1.5242,-0.3314,14.0046,45.9794,0.0501,0.5284,-0.5157,180.18
18:42:48:840,-1.3233,-1.1648,11.7901,45.5272,0.1762,0.7961,-0.191,180.97
18:42:48:860,-0.6705,-0.5991,10.2577,45.2873,-0.0718,0.6987,0.0044,181.53
18:42:48:880,-0.416,-0.0112,10.3457,45.0445,-0.3326,0.2957,-0.0989,181.69
18:42:48:900,-0.9423,-0.2925,11.8303,44.5895,-0.3497,-0.0694,-0.2117,181.63
18:42:48:920,-1.831,-0.9457,12.6144,44.1922,-0.182,-0.0817,-0.0914,181.73
18:42:48:941,-2.2804,-1.293,12.2338,43.6639,0.007,0.1424,0.2375,181.97
18:42:48:960,-1.7585,-1.0121,10.8723,43.2474,0.1347,0.3117,0.5729,182.08
18:42:48:979,-0.5376,-0.4464,9.4185,43.0551,0.2188,0.1866,0.7054,181.8
18:42:48:999,0.2985,0.1533,8.3545,42.7933,0.1741,-0.1652,0.5894,181.13
18:42:49:019,0.4911,0.458,8.4762,42.7862,0.041,-0.4825,0.3472,180.31
18:42:49:039,0.1473,0.1934,9.5525,42.5509,-0.0095,-0.5922,0.1252,179.64
18:42:49:059,-0.2849,-0.2715,10.2123,42.4783,0.0278,-0.4186,0.0342,179.27
18:42:49:080,-0.7473,-0.4918,9.9361,42.5709,0.0645,-0.0934,0.0741,179.17
18:42:49:099,-0.9388,-0.2838,8.9306,42.6289,0.0879,0.1142,0.155,179.16
18:42:49:119,-0.9211,0.0531,7.8946,42.6304,0.0959,0.1281,0.2162,179.08
18:42:49:139,-0.7803,0.1835,7.2991,42.7389,0.1177,-0.0071,0.2657,178.9
18:42:49:159,-0.7191,0.3122,7.0624,42.5451,0.1326,-0.1684,0.2945,178.64
18:42:49:179,-0.7117,0.4814,7.1385,42.5475,0.1166,-0.2451,0.2977,178.33
18:42:49:200,-0.5697,0.6512,7.2211,42.4042,0.0607,-0.203,0.2578,178.01
18:42:49:220,-0.4059,0.8658,7.3373,42.3758,-0.0542,-0.162,0.1433,177.69
18:42:49:240,-0.5772,1.0441,7.9185,42.4192,-0.1452,-0.1562,0.0086,177.41
18:42:49:259,-0.8126,1.0188,8.626,42.3292,-0.1474,-0.178,-0.0664,177.26
18:42:49:279,-0.9426,0.9961,8.9769,42.0139,-0.1043,-0.2036,-0.0366,177.26
18:42:49:299,-0.82,1.0892,9.4511,41.9567,-0.034,-0.2387,0.0682,177.35
18:42:49:319,-0.329,1.331,9.7876,41.6147,0.0336,-0.2116,0.1433,177.41
18:42:49:340,0.161,1.7581,9.9456,41.6568,0.0591,-0.0902,0.1215,177.35
18:42:49:359,0.5074,1.9843,9.9616,41.4587,0.0448,0.053,-0.0105,177.2
18:42:49:381,0.2961,1.9281,10.0726,41.2896,-0.0202,0.1153,-0.1516,177.07
18:42:49:399,-0.0984,1.5149,10.4447,40.937,-0.0739,0.1131,-0.2059,177.08
18:42:49:419,-0.4318,1.0399,10.8387,40.5172,-0.0979,0.0418,-0.1463,177.24
18:42:49:439,-0.3796,0.6771,11.2205,40.2015,-0.0872,-0.0774,-0.0175,177.47
18:42:49:459,0.103,0.4198,11.4312,40.0207,-0.0367,-0.0934,0.1098,177.63
18:42:49:479,0.8437,0.393,10.773,39.7173,-0.0963,-0.1152,0.1151,177.66
18:42:49:500,1.1687,0.7439,10.4419,39.6658,-0.3151,-0.2653,-0.0339,177.54
18:42:49:521,1.0214,0.853,11.3527,39.1598,-0.4434,-0.4931,-0.29,177.42
18:42:49:540,0.5307,0.3794,12.5551,38.8653,-0.3885,-0.5863,-0.4838,177.47
18:42:49:560,-0.1968,-0.2337,13.3826,38.5812,-0.2081,-0.3617,-0.5019,177.85
18:42:49:580,-0.6371,-0.8201,13.1798,38.2907,0.1161,0.012,-0.3241,178.4
18:42:49:600,-0.2072,-0.9631,11.3437,38.0063,0.3855,0.2856,-0.1111,178.99
18:42:49:621,0.7874,-0.7081,9.2457,37.8141,0.4642,0.2058,-0.0787,179.36
18:42:49:640,1.5978,-0.5923,8.0673,37.5908,0.3871,-0.0864,-0.2458,179.48
18:42:49:659,1.4776,-0.5893,7.9435,37.518,0.1837,-0.276,-0.4428,179.55
18:42:49:679,0.7565,-0.6771,8.795,37.1878,0.0586,-0.3388,-0.545,179.84
18:42:49:699,0.0748,-0.7234,9.2448,36.9744,0.0458,-0.2227,-0.4949,180.36
18:42:49:719,-0.2233,-0.4562,8.9495,36.7462,0.0336,0.0173,-0.3416,181.01
18:42:49:739,-0.0789,0.0927,8.3038,36.4942,0.0155,0.193,-0.2128,181.59
18:42:49:759,0.1551,0.6309,7.6032,36.2931,0.0235,0.1808,-0.1606,181.98
18:42:49:780,0.2752,0.9733,7.0923,35.9955,0.0432,0.0732,-0.1633,182.21
18:42:49:799,0.3405,1.2175,6.8045,35.5801,0.0277,-0.0199,-0.1995,182.38
18:42:49:820,0.4179,1.3816,6.9085,35.1536,-0.0234,-0.046,-0.249,182.56
18:42:49:840,0.4438,1.5447,7.3393,34.7587,-0.0606,-0.0258,-0.3113,182.79
18:42:49:860,0.5104,1.6125,7.9053,34.3801,-0.0494,0.0243,-0.3848,183.08
18:42:49:880,0.452,1.5671,8.2533,34.0402,-0.0282,0.0647,-0.4555,183.43
18:42:49:900,0.2103,1.4559,8.5286,33.6161,-0.0335,0.0993,-0.487,183.87
18:42:49:920,-0.2182,1.2563,8.996,33.2231,-0.0446,0.1227,-0.4204,184.39
18:42:49:940,-0.5889,1.019,9.684,32.8686,0.0011,0.1824,-0.2251,184.93
18:42:49:959,-0.7602,1.2805,9.9794,32.4073,0.0863,0.2638,0.039,185.4
18:42:49:979,-0.375,1.835,10.11,31.9229,0.1672,0.3644,0.2125,185.65
18:42:49:999,0.0093,2.3135,9.8479,31.3932,0.2061,0.4347,0.2471,185.58
18:42:50:020,0.3303,2.5147,9.5766,31.0375,0.1864,0.2984,0.18,185.31
18:42:50:039,0.4742,2.2689,9.8103,30.536,0.139,-0.0172,0.0459,184.99
18:42:50:060,0.1396,1.5636,10.8275,30.0292,0.1252,-0.3185,-0.0297,184.75
18:42:50:080,-0.4601,0.8325,11.8192,29.678,0.1597,-0.3132,0.0453,184.7
18:42:50:101,-0.6402,0.8273,11.8511,29.1308,0.1161,-0.0157,0.2247,184.76
18:42:50:119,-0.3411,1.6149,11.2184,28.5965,0.0032,0.2436,0.3477,184.74
18:42:50:139,0.1811,2.3433,10.7309,28.2749,-0.1154,0.2159,0.262,184.48
18:42:50:159,0.2148,2.3159,10.7924,28.1394,-0.1974,-0.0566,0.0624,184.06
18:42:50:179,-0.1464,1.6026,11.4171,27.9814,-0.2171,-0.3585,-0.085,183.74
18:42:50:199,-0.4302,0.5258,12.5906,27.4128,-0.092,-0.5091,-0.1463,183.67
18:42:50:219,-0.6672,-0.784,13.2743,27.1864,0.205,-0.3728,-0.1165,183.8
18:42:50:240,-0.8381,-1.6725,12.1667,26.9992,0.4616,0.045,0.0453,184.01
18:42:50:259,-0.3311,-1.7298,9.614,26.6685,0.4376,0.3495,0.2205,184.17
18:42:50:279,0.4666,-1.1836,7.904,26.4578,0.2306,0.2239,0.213,184.12
18:42:50:299,0.7713,-0.6883,7.734,26.6009,0.0224,-0.1759,0.0336,183.82
18:42:50:319,0.5945,-0.3967,8.4586,26.5339,-0.0878,-0.4979,-0.1537,183.55
18:42:50:341,0.3349,-0.1064,8.9828,26.0878,-0.1639,-0.5608,-0.339,183.53
18:42:50:359,-0.1515,-0.0904,9.1698,25.9171,-0.2171,-0.3808,-0.4257,183.77
18:42:50:380,-0.5695,-0.1386,8.7837,26.1159,-0.2198,-0.2291,-0.348,184.21
18:42:50:399,-0.4886,0.0439,8.2155,26.0109,-0.2033,-0.1722,-0.1777,184.74
18:42:50:421,-0.2189,0.4116,7.9622,25.8912,-0.1463,-0.2185,0.0044,185.16
18:42:50:441,0.2499,0.7305,8.2515,25.9461,-0.0478,-0.1993,0.1066,185.38
18:42:50:462,0.3979,1.0718,8.2273,26.0654,0.0591,-0.0737,0.1332,185.39
18:42:50:479,0.3774,1.3763,7.6576,25.8039,0.0905,0.0381,0.1012,185.29
18:42:50:499,0.3814,1.5377,7.23,25.8724,-0.0031,0.0546,0.0033,185.14
18:42:50:519,0.254,1.5643,7.4563,25.7416,-0.1383,0.0131,-0.0872,185.02
18:42:50:540,-0.1169,1.4502,8.3857,25.5093,-0.1575,0.0003,-0.1053,185
18:42:50:559,-0.4227,1.3928,9.2941,25.2653,-0.0377,0.0083,-0.0308,185.1
18:42:50:579,-0.4813,1.3392,9.7139,25.2278,0.1241,0.0493,0.0959,185.22
18:42:50:600,-0.3024,1.544,9.8184,25.1952,0.2321,0.1062,0.2152,185.25
18:42:50:620,0.1336,1.8138,9.8257,25.0034,0.2668,0.1957,0.2242,185.13
18:42:50:641,0.4745,1.9165,9.8009,24.6989,0.2093,0.2803,0.1124,184.87
18:42:50:663,0.6965,1.4752,9.971,24.56,0.0368,0.2771,-0.0526,184.59
18:42:50:728,0.6255,0.7388,10.9458,24.3398,-0.2129,0.317,-0.1537,184.42
18:42:50:728,0.1703,0.3712,12.5445,24.4074,-0.3427,0.5667,-0.1127,184.44
18:42:50:728,-0.0758,0.1143,13.2886,24.3057,-0.198,0.9303,0.023,184.58
18:42:50:743,0.3263,-0.0102,11.8688,24.1562,-0.0084,1.1358,0.0709,184.65
18:42:50:759,0.6649,0.251,9.9217,23.8545,-0.034,0.9116,-0.0148,184.52
18:42:50:779,0.4051,0.5661,8.9264,23.4488,-0.2262,0.3538,-0.2091,184.34
18:42:50:800,-0.2856,0.6497,9.5287,23.1979,-0.429,-0.2392,-0.397,184.27
18:42:50:820,-1.0123,0.0794,11.4165,23.3061,-0.404,-0.5528,-0.4667,184.47
18:42:50:842,-1.3158,-0.527,12.5827,23.0988,-0.1841,-0.5352,-0.3358,184.94
18:42:50:861,-1.0517,-0.719,12.4253,22.9227,0.1294,-0.4,-0.0808,185.51
18:42:50:879,0.1538,-0.493,11.0933,22.9873,0.3871,-0.2557,0.0608,185.93
18:42:50:899,1.1222,0.0075,9.2872,23.1771,0.4217,-0.1897,-0.0201,186.04
18:42:50:919,1.4788,0.3814,8.1404,23.356,0.2779,-0.2195,-0.2256,185.98
18:42:50:939,1.1012,0.6165,7.9922,23.6899,0.1001,-0.2951,-0.4194,186.02
18:42:50:959,0.5909,0.6539,8.4158,24.15,0.0432,-0.3835,-0.5232,186.29
18:42:50:979,0.0487,0.6106,8.7104,24.7308,0.0618,-0.3579,-0.5248,186.79
18:42:51:000,-0.1582,0.5827,8.7061,24.957,0.0969,-0.2467,-0.4539,187.42
18:42:51:020,-0.1066,0.6904,8.4757,25.3896,0.1236,-0.1168,-0.3842,188.05
18:42:51:040,0.0389,0.9352,8.1119,25.7902,0.1257,-0.0252,-0.3533,188.58
18:42:51:060,0.0954,1.1143,7.7532,26.0187,0.114,0.0269,-0.3682,189.03
18:42:51:080,0.1363,1.1621,7.3989,26.4703,0.1001,0.0706,-0.3741,189.43
18:42:51:100,0.1678,1.1905,7.0286,26.5999,0.0607,0.0637,-0.3789,189.84
18:42:51:119,0.1694,1.227,6.9234,26.8091,-0.0164,-0.005,-0.3746,190.25
18:42:51:140,0.2276,1.2933,7.3022,27.0152,-0.0713,-0.1674,-0.3523,190.67
18:42:51:159,0.4681,1.3277,8.1267,27.1197,-0.051,-0.3595,-0.2964,191.09
18:42:51:180,0.727,1.3687,8.91,27.4591,0.0102,-0.3585,-0.2511,191.51
18:42:51:200,0.8329,1.5085,9.2051,27.5467,0.0421,-0.1764,-0.2453,191.88
18:42:51:220,0.6068,1.687,9.1744,27.8314,0.0091,0.0434,-0.2607,192.2
18:42:51:240,0.1177,1.7178,9.4036,28.106,-0.0255,0.2702,-0.208,192.49
18:42:51:260,-0.2411,1.7471,9.5478,28.1447,-0.0015,0.4538,-0.0579,192.78
18:42:51:280,-0.208,1.9015,9.3245,28.5775,0.0171,0.3905,0.0741,192.98
18:42:51:299,-0.1481,1.988,9.7862,28.8628,-0.0068,0.1142,0.1167,192.99
18:42:51:319,-0.0304,1.7899,11.0472,29.0044,-0.0063,-0.0652,0.0752,192.85
18:42:51:340,-0.2651,1.2055,11.9223,29.0988,0.0213,0.0429,0.0512,192.7
18:42:51:360,-0.6096,0.7134,11.7918,29.1696,-0.01,0.3799,0.1343,192.61
18:42:51:380,-0.5899,0.5232,11.2407,29.6233,-0.1399,0.6252,0.2647,192.54
18:42:51:400,-0.4942,0.8714,10.9777,29.5752,-0.2725,0.5289,0.3914,192.34
18:42:51:420,-0.1039,1.3229,11.4489,29.6712,-0.2922,0.1808,0.3871,191.97
18:42:51:443,0.0972,1.2501,12.2942,29.7436,-0.1623,-0.1493,0.2407,191.46
18:42:51:460,-0.2908,0.6043,12.6099,29.9417,0.0171,-0.1876,0.179,190.99
18:42:51:480,-0.5202,-0.0805,11.985,30.0737,0.1928,0.0525,0.2546,190.72
18:42:51:500,-0.2585,-0.3629,10.404,30.1977,0.2572,0.3005,0.3381,190.52
18:42:51:519,0.1546,-0.305,8.8178,30.6138,0.1976,0.2547,0.3466,190.22
18:42:51:540,0.398,-0.0703,8.0407,30.6639,0.0464,-0.1045,0.2604,189.8
18:42:51:559,0.4147,0.0944,8.4135,30.7084,-0.1484,-0.4916,0.1151,189.37
18:42:51:579,0.1613,-0.0282,9.7971,30.9365,-0.2358,-0.6811,-0.0004,189.07
18:42:51:600,-0.2111,-0.2256,10.7947,31.169,-0.2123,-0.5384,-0.0254,188.98
18:42:51:619,-0.4906,-0.3305,10.7749,31.4855,-0.1005,-0.2046,0.0634,189.04
18:42:51:641,-0.4128,-0.1819,9.6574,31.7097,0.0171,0.1041,0.2088,189.11
18:42:51:660,-0.0719,0.321,8.0801,31.8211,0.0405,0.2473,0.3025,189.05
18:42:51:680,0.3426,0.8701,7.165,32.0254,0.0144,0.1499,0.2865,188.8
18:42:51:700,0.5743,1.2857,7.0247,32.1109,-0.0036,-0.0753,0.1683,188.42
18:42:51:719,0.5738,1.4902,7.2365,32.5254,-0.0383,-0.2477,-0.0222,188.07
18:42:51:741,0.1286,1.2541,7.6767,32.493,-0.1176,-0.1972,-0.1958,187.87
18:42:51:759,-0.2319,0.9078,8.2192,32.8621,-0.2581,0.0498,-0.2687,187.91
18:42:51:779,-0.5973,0.5273,8.8926,33.0895,-0.3827,0.3985,-0.2256,188.14
18:42:51:799,-0.8799,0.6373,9.5368,33.2331,-0.3731,0.8313,0.0033,188.44
18:42:51:819,-0.4798,1.1719,8.8183,33.3432,-0.2129,0.77,0.015,188.65
18:42:51:840,-0.5234,1.3976,8.4558,33.5142,-0.0824,0.2835,-0.1505,188.58
18:42:51:860,-0.7606,1.5374,8.6383,33.7005,-0.0297,-0.0226,-0.1346,188.51
18:42:51:880,-0.3412,1.4033,8.928,33.7702,-0.0068,-0.1881,-0.1308,188.65
18:42:51:899,-0.4068,1.4778,9.409,33.7281,0.0224,-0.2839,-0.1697,188.8
18:42:51:919,-0.4129,1.423,9.8328,33.9859,0.0309,-0.4186,-0.1889,188.95
18:42:51:941,-0.4673,1.2785,10.43,33.9838,0.0464,-0.6103,-0.174,189.15
18:42:51:959,-0.3219,1.0145,10.8666,34.0869,0.0613,-0.7822,-0.1165,189.38
18:42:51:979,-0.2107,0.3498,12.2541,34.1809,0.0842,-0.195,0.1002,189.6
18:42:51:999,0.2162,0.1671,12.4254,34.3135,0.1661,0.061,0.2817,189.77
18:42:52:019,1.0544,0.2665,11.7371,34.419,0.1597,0.1659,0.2365,189.66
18:42:52:040,1.2697,0.4676,11.1337,34.3485,-0.0516,0.0551,0.0485,189.32
18:42:52:059,0.9158,0.378,11.6092,34.4165,-0.2597,-0.0833,-0.1755,189.03
18:42:52:080,0.0883,-0.1122,12.4891,34.5293,-0.2118,-0.0428,-0.2927,188.96
18:42:52:100,-0.4896,-0.6925,12.2502,34.7955,0.0474,0.1036,-0.1936,189.15
18:42:52:120,-0.4526,-0.8224,10.9374,35.0243,0.345,0.2079,0.0193,189.48
18:42:52:141,0.4258,-0.497,9.2426,35.0284,0.542,0.1126,0.155,189.68
18:42:52:159,1.429,-0.0367,7.8127,34.9098,0.5356,-0.1903,0.064,189.64
18:42:52:179,1.8344,0.2765,7.2615,34.6552,0.3141,-0.5459,-0.2197,189.44
18:42:52:199,1.4999,0.323,8.0216,34.7199,0.0128,-0.7716,-0.5248,189.37
18:42:52:219,0.9724,0.0036,9.3112,34.9268,-0.1644,-0.7907,-0.7132,189.66
18:42:52:240,0.3247,-0.3123,10.2095,34.8766,-0.2262,-0.5283,-0.735,190.33
18:42:52:259,-0.1611,-0.3617,10.2013,34.961,-0.2192,-0.0939,-0.5833,191.21
18:42:52:279,-0.2732,0.0003,9.5659,34.9037,-0.15,0.2638,-0.3661,192.09
18:42:52:300,-0.0646,0.6025,8.5423,34.6664,-0.0313,0.3389,-0.2133,192.75
18:42:52:320,0.2746,1.1446,7.5621,34.4969,0.0724,0.1999,-0.1846,193.13
18:42:52:341,0.42,1.3796,6.9246,34.5569,0.0655,0.0466,-0.2325,193.34
18:42:52:360,0.2489,1.358,6.9727,34.8193,-0.0202,-0.0487,-0.2549,193.52
18:42:52:380,0.1373,1.3525,7.6176,34.827,-0.0574,-0.0364,-0.224,193.78
18:42:52:399,0.1765,1.4313,8.0077,34.7964,-0.0351,0.0104,-0.1841,194.06
18:42:52:419,0.3568,1.5832,8.1228,34.8697,-0.0015,0.003,-0.1745,194.31
18:42:52:440,0.3815,1.5996,8.4364,34.6805,0.007,0.0211,-0.1947,194.52
18:42:52:459,0.2544,1.5813,8.7058,34.4776,0.0283,0.0802,-0.1793,194.71
18:42:52:479,0.0357,1.5416,8.7846,34.4973,0.0655,0.1094,-0.1159,194.92
18:42:52:499,-0.137,1.625,8.9809,34.6314,0.0767,0.1265,0.0347,195.1
18:42:52:519,-0.0134,2.0501,9.4346,34.565,0.1017,0.2148,0.1923,195.22
18:42:52:540,0.2937,2.4729,9.605,34.2815,0.1188,0.3021,0.2338,195.16
18:42:52:560,0.5575,2.6376,9.7569,34.2304,0.0879,0.1674,0.1577,194.91
18:42:52:580,0.7848,2.2324,10.4493,34.1727,0.0512,-0.1338,-0.0302,194.6
18:42:52:600,0.5971,0.9581,11.4052,34.0634,-0.0164,-0.2477,-0.1729,194.39
18:42:52:620,-0.049,-0.1016,11.9333,33.9077,-0.1628,-0.0167,-0.1058,194.43
18:42:52:641,-0.6728,-0.3684,12.3432,33.9171,-0.3108,0.3144,0.1385,194.63
18:42:52:659,-0.5908,0.211,12.3455,33.6581,-0.3289,0.4794,0.3701,194.74
18:42:52:679,-0.0648,0.8288,12.0558,33.3199,-0.2544,0.3351,0.3993,194.54
18:42:52:700,0.2025,0.9292,12.1076,33.1288,-0.124,-0.0481,0.2444,194.08
18:42:52:720,-0.1307,0.2566,12.4173,33.1404,0.016,-0.3026,0.105,193.59
18:42:52:740,-0.4169,-0.6598,12.204,32.9411,0.1134,-0.0918,0.0874,193.3
18:42:52:793,-0.5513,-1.1239,10.8487,32.6987,0.164,0.2175,0.1694,193.18
18:42:52:794,-0.5187,-0.8629,9.0345,32.5455,0.1252,0.209,0.2604,193.08
18:42:52:801,-0.1855,-0.4121,8.0327,32.5042,0.0506,-0.1157,0.2753,192.86
18:42:52:819,0.1103,-0.0589,8.016,32.3599,-0.0271,-0.4596,0.221,192.53
18:42:52:840,0.3722,0.1294,8.5619,32.3918,-0.0894,-0.5751,0.1326,192.21
18:42:52:864,0.3715,0.134,9.1455,32.5992,-0.1122,-0.3909,0.0443,191.98
18:42:52:881,0.0414,0.1285,9.1688,32.7143,-0.0856,-0.0508,0.0342,191.86
18:42:52:899,-0.1981,0.2141,8.4714,32.5448,-0.042,0.1424,0.0853,191.83
18:42:52:919,-0.3391,0.3632,8.0263,32.5546,-0.009,0.0807,0.1566,191.78
18:42:52:942,-0.3887,0.404,8.0836,32.7306,0.0293,-0.0375,0.2354,191.66
18:42:52:959,-0.3656,0.4594,8.2791,32.7497,0.0991,-0.0992,0.3206,191.47
18:42:52:980,-0.1048,0.6819,8.1934,32.8466,0.1401,-0.0859,0.3568,191.19
18:42:53:000,0.2318,1.0348,8.0289,32.9231,0.1033,-0.0119,0.3041,190.82
18:42:53:019,0.4131,1.3412,8.163,32.9605,0.0203,0.103,0.1678,190.4
18:42:53:040,0.1619,1.4469,8.2897,33.0868,-0.0404,0.144,0.0304,190.04
18:42:53:061,-0.1975,1.3246,8.5326,33.0722,-0.0409,0.0663,-0.0212,189.83
18:42:53:079,-0.3406,1.2326,8.8468,33.1361,0.0086,-0.0321,0.0171,189.77
18:42:53:100,-0.1624,1.4538,9.0492,33.2424,0.0709,-0.0891,0.0613,189.77
18:42:53:120,0.1231,1.6333,9.2192,33.1538,0.081,0.0024,0.0448,189.74
18:42:53:140,0.1381,1.6399,9.3848,33.0601,-0.0122,0.2569,0.0022,189.67
18:42:53:159,-0.068,1.7235,9.7426,33.141,-0.1101,0.35,-0.0457,189.61
18:42:53:179,-0.2592,1.539,10.419,33.3371,-0.0926,0.1909,-0.0856,189.58
18:42:53:199,-0.4035,1.2042,10.9866,33.366,-0.0217,0.0109,-0.0946,189.59
18:42:53:220,-0.4672,0.8354,11.3886,33.3148,0.0038,-0.0449,-0.0393,189.66
18:42:53:241,0.0176,0.3963,11.8062,33.2569,0.04,0.069,0.0379,189.75
18:42:53:259,0.7419,0.1367,11.3907,33.2529,-0.0058,0.2361,0.0155,189.78
18:42:53:281,1.0441,0.0841,11.0084,33.3632,-0.1479,0.2638,-0.1053,189.72
18:42:53:299,0.6995,-0.1396,10.9242,33.3245,-0.2682,0.0791,-0.2597,189.67
18:42:53:319,-0.1637,-0.4735,11.3585,33.51,-0.2746,-0.1615,-0.3033,189.76
18:42:53:339,-0.8736,-0.8595,12.0403,33.4434,-0.1468,-0.1508,-0.1889,190.03
18:42:53:359,-0.7177,-0.9673,11.7666,33.3175,0.0581,0.1052,0.0054,190.38
18:42:53:380,0.0006,-0.5863,10.424,33.5497,0.2306,0.2244,0.1332,190.59
18:42:53:399,1.1494,-0.1867,9.1328,33.4218,0.2747,-0.0194,0.0682,190.56
18:42:53:419,1.7782,0.1879,8.7834,33.4027,0.1417,-0.3249,-0.1793,190.38
18:42:53:439,1.4975,0.2089,9.4235,33.4988,-0.0281,-0.524,-0.4646,190.29
18:42:53:460,0.6716,-0.1389,10.3249,33.4585,-0.075,-0.565,-0.6051,190.5
18:42:53:480,-0.1199,-0.5023,10.5619,33.4922,0.0017,-0.3803,-0.5253,191.06
18:42:53:499,-0.4458,-0.3882,9.7432,33.516,0.1076,-0.1173,-0.2884,191.77
18:42:53:519,-0.0978,0.1843,8.4448,33.542,0.181,0.0232,-0.0765,192.39
18:42:53:540,0.4687,0.7589,7.262,33.4369,0.2045,-0.014,-0.0095,192.71
18:42:53:559,0.805,1.12,6.5557,33.1445,0.1635,-0.0912,-0.0552,192.78
18:42:53:580,0.7369,1.2187,6.4183,33.1876,0.0772,-0.1466,-0.1319,192.78
18:42:53:599,0.4037,1.1976,6.9367,33.1666,0.0448,-0.161,-0.1819,192.85
18:42:53:619,0.1938,1.0047,7.3555,32.9399,0.0858,-0.12,-0.1612,193
18:42:53:639,0.1348,1.0522,7.3403,32.9655,0.0709,-0.0694,-0.0994,193.21
18:42:53:662,0.4664,1.3569,7.6547,33.0587,0.0411,-0.0753,-0.0749,193.4
18:42:53:680,0.8361,1.681,8.0857,32.8876,0.0128,-0.0854,-0.1362,193.51
18:42:53:699,0.9612,1.8888,8.6626,32.7887,-0.0308,-0.0396,-0.2458,193.59
18:42:53:719,0.5477,1.7448,9.2732,32.8158,-0.0606,0.0642,-0.2863,193.73
18:42:53:740,-0.0045,1.6623,9.8383,32.9284,-0.0436,0.1999,-0.1772,194
18:42:53:761,-0.1607,1.9526,10.2003,32.979,0.0474,0.284,-0.0153,194.31
18:42:53:779,-0.1021,2.189,9.8918,32.9722,0.1252,0.2989,0.1082,194.48
18:42:53:799,0.0251,2.1813,9.641,33.1484,0.1012,0.1275,0.1917,194.45
18:42:53:819,0.3006,1.8168,10.0993,33.1781,0.0469,-0.228,0.229,194.28
18:42:53:841,0.4138,1.2277,11.1172,33.1208,0.0182,-0.5251,0.2551,194.03
18:42:53:862,0.5422,0.4645,11.7237,33.2485,-0.0292,-0.5288,0.336,193.78
18:42:53:879,0.5024,0.2786,11.8741,33.2489,-0.1431,-0.3771,0.4909,193.97
18:42:53:899,0.9686,0.7121,12.3293,33.4444,-0.1836,-0.2307,0.5766,193.7
18:42:53:919,1.6632,1.2047,12.6196,33.4438,-0.1681,-0.0082,0.4425,193.33
18:42:53:948,1.9157,1.0867,12.4939,33.3693,-0.157,0.16,0.1497,192.75
18:42:53:959,1.3318,0.2611,12.3645,33.5352,-0.0824,0.1052,-0.0882,192.04
18:42:53:982,0.3184,-0.9826,12.189,33.6794,0.09,0.102,-0.1388,191.47
18:42:53:999,-0.4998,-1.8957,11.0248,33.6411,0.2657,0.3559,0.0464,191.31
18:42:54:019,-0.494,-1.7147,8.9398,33.701,0.3083,0.5603,0.3403,191.43
18:42:54:041,0.3506,-0.7945,7.1611,33.6501,0.1906,0.3921,0.4457,191.52
18:42:54:062,1.1284,0.032,6.6941,33.8273,-0.0521,-0.0439,0.295,191.38
18:42:54:079,1.1567,0.3263,7.8838,33.8137,-0.2554,-0.4894,0.0709,190.98
18:42:54:099,0.7306,0.1478,9.7968,33.9274,-0.2613,-0.6225,-0.0898,190.55
18:42:54:119,0.2039,-0.1214,10.7586,34.0183,-0.1559,-0.276,-0.1234,190.33
18:42:54:139,-0.1149,-0.0452,10.168,34.0265,-0.034,0.1813,-0.0552,190.34
18:42:54:163,0.1112,0.2854,8.7434,33.8583,0.0325,0.4081,-0.0084,190.39
18:42:54:179,0.3333,0.5615,7.7017,33.9682,0.0134,0.341,-0.0292,190.42
18:42:54:199,0.3686,0.6668,7.4798,33.9362,0.0022,0.1148,-0.0382,190.4
18:42:54:219,0.3781,0.727,7.7363,34.2377,0.1129,-0.1445,-0.0254,190.4
18:42:54:239,0.4051,0.681,7.5869,34.2377,0.1731,-0.2408,-0.0158,190.48
18:42:54:262,0.3621,0.7658,7.5598,34.1793,0.0474,-0.1535,-0.0068,190.61
18:42:54:279,0.3791,0.9429,8.196,34.183,-0.0697,-0.0763,-0.0217,190.7
18:42:54:299,0.3198,1.0517,8.8795,34.2222,-0.0532,-0.0774,-0.0494,190.69
18:42:54:319,0.0965,1.015,9.1115,34.0401,-0.0127,-0.0481,-0.0318,190.67
18:42:54:341,-0.1196,1.1059,9.1929,34.1488,0.0049,-0.0034,0.0693,190.7
18:42:54:362,0.0575,1.4316,9.2992,34.1437,0.0261,0.0184,0.172,190.76
18:42:54:379,0.4286,1.9044,9.5099,34.0617,0.073,0.0296,0.1928,190.79
18:42:54:399,0.7351,2.3058,9.4705,33.9324,0.0453,0.0823,0.0986,190.71
18:42:54:419,0.6984,2.4327,9.5741,33.9115,-0.0415,0.0456,-0.0371,190.52
18:42:54:439,0.3347,2.1148,10.0805,34.1246,-0.1005,-0.0763,-0.1266,190.27
18:42:54:463,0.0453,1.5076,10.695,33.9836,-0.1085,-0.1876,-0.1053,190.15
18:42:54:480,-0.0313,0.8714,11.2036,34.0405,-0.0798,-0.2579,0.0006,190.22
18:42:54:499,0.3866,0.294,11.5675,34.0825,-0.0574,-0.1823,0.1092,190.41
18:42:54:519,1.1342,0.1036,11.2679,34.0485,-0.1394,0.0173,0.0991,190.57
18:42:54:540,1.1887,0.1575,10.8848,34.0452,-0.3284,0.0599,-0.0334,190.57
18:42:54:559,0.8537,-0.1838,11.2493,34.0291,-0.4146,-0.0449,-0.1495,190.38
18:42:54:580,0.1252,-0.5841,11.5271,33.8415,-0.3459,-0.1312,-0.1484,190.22
18:42:54:599,-0.1846,-0.8363,11.5102,33.8403,-0.2336,-0.1583,-0.0084,190.28
18:42:54:619,0.1534,-0.7007,11.3378,33.7268,-0.0649,-0.1099,0.1507,190.49
18:42:54:639,0.955,-0.3107,10.6265,33.721,0.0922,0.0173,0.1917,190.7
18:42:54:659,1.7848,-0.2001,9.5835,33.7535,0.196,0.0647,0.0863,190.72
18:42:54:680,2.313,-0.1527,8.5161,33.7799,0.1667,-0.0604,-0.1165,190.54
18:42:54:699,2.2396,0.0242,8.256,33.9286,0.0203,-0.2818,-0.3539,190.32
18:42:54:719,1.7583,0.0013,9.014,34.0438,-0.0617,-0.4527,-0.5524,190.25
18:42:54:739,1.1873,-0.1578,9.4214,34.0894,-0.0712,-0.3888,-0.6594,190.44
18:42:54:763,0.6416,-0.1751,9.1878,34.2679,-0.0729,-0.128,-0.6488,190.91
18:42:54:779,0.3451,-0.0104,8.5887,34.3104,-0.075,0.1344,-0.5599,191.55
18:42:54:828,0.3391,0.324,7.9366,34.1736,-0.0686,0.2233,-0.4694,192.24
18:42:54:828,0.4689,0.5997,7.5755,34.1095,-0.0271,0.1131,-0.4034,192.91
18:42:54:841,0.6567,0.7708,7.4748,33.9318,0.0166,-0.0162,-0.3677,193.51
18:42:54:858,0.6097,0.7835,7.6899,33.7827,0.015,-0.0066,-0.3305,194.09
18:42:54:878,0.5417,0.7873,7.9705,33.4784,-0.0191,0.1249,-0.2703,194.59
18:42:54:899,0.5536,0.8384,8.1132,33.1219,-0.0377,0.2212,-0.2117,195.01
18:42:54:918,0.6057,0.9003,8.1773,33.14,-0.0484,0.1797,-0.1734,195.34
18:42:54:939,0.6601,0.9709,8.4909,33.0545,-0.0468,0.111,-0.1372,195.61
18:42:54:959,0.6376,1.007,8.9215,32.9466,-0.0287,0.0897,-0.0994,195.85
18:42:54:980,0.4488,0.9637,9.3098,32.7765,0.0357,0.1068,-0.0185,196.06
18:42:55:000,0.2988,1.2041,9.4948,32.7064,0.1252,0.1776,0.097,196.23
18:42:55:019,0.4588,1.5623,9.2624,32.6541,0.1763,0.309,0.1673,196.34
18:42:55:039,0.4024,1.7678,9.1302,32.6696,0.1725,0.3687,0.2221,196.35
18:42:55:059,0.3467,1.8661,9.4378,32.5951,0.1864,0.2478,0.2993,196.19
18:42:55:079,0.6533,1.6903,10.0374,32.7147,0.2721,0.0232,0.3498,195.96
18:42:55:100,0.8977,1.4412,10.3254,32.6804,0.2588,-0.1072,0.3328,195.72
18:42:55:120,0.9398,1.2287,10.7581,32.7035,0.1363,-0.0513,0.3136,195.45
18:42:55:140,1.0917,0.9029,11.1376,32.8302,-0.0132,0.1653,0.3019,195.09
18:42:55:159,1.1994,0.7886,11.1338,32.897,-0.1868,0.3447,0.328,194.68
18:42:55:179,1.2572,0.9771,11.3842,33.1045,-0.2608,0.317,0.311,194.23
18:42:55:199,0.9799,0.9873,11.4854,33.1797,-0.2597,0.2404,0.229,193.78
18:42:55:219,0.2729,0.6782,11.5259,33.4053,-0.2746,0.1472,0.1795,193.38
18:42:55:240,-0.5219,0.3193,11.8838,33.76,-0.2182,0.0258,0.2684,193.03
18:42:55:260,-0.548,0.1043,12.148,33.9357,-0.0489,-0.0944,0.4089,192.78
18:42:55:280,-0.0535,-0.1716,11.6066,33.9454,0.1443,-0.1418,0.4717,192.61
18:42:55:300,0.5119,-0.3423,10.4696,34.0185,0.2002,-0.1423,0.4339,192.36
18:42:55:320,0.7446,-0.3901,9.501,34.1565,0.131,-0.2105,0.2934,191.94
18:42:55:341,0.6045,-0.489,9.1112,34.5112,-0.0079,-0.3531,0.1326,191.41
18:42:55:360,0.4164,-0.5753,9.3906,34.4913,-0.1106,-0.5102,0.0304,190.94
18:42:55:380,0.41,-0.556,9.7194,34.4301,-0.1474,-0.5379,-0.0095,190.65
18:42:55:400,0.5284,-0.3849,9.7178,34.448,-0.1319,-0.3893,-0.0206,190.55
18:42:55:420,0.6312,-0.1651,9.0248,34.5105,-0.0925,-0.1477,-0.0292,190.55
18:42:55:440,0.6278,0.0568,7.9617,34.2772,-0.1,0.0301,-0.0286,190.55
18:42:55:460,0.545,0.2699,7.1666,34.3218,-0.1538,-0.0055,-0.0158,190.52
18:42:55:480,0.4747,0.3373,7.3113,34.215,-0.1862,-0.1541,0.0272,190.5
18:42:55:500,0.2962,0.4601,7.9656,34.0961,-0.1053,-0.2903,0.1135,190.54
18:42:55:520,0.2615,0.4792,8.4615,34.0911,0.0533,-0.2994,0.205,190.6
18:42:55:540,0.4435,0.8239,8.3307,34.1181,0.1252,-0.2062,0.2508,190.63
18:42:55:563,0.805,1.1555,8.2892,34.1972,0.0959,-0.1333,0.1704,190.55
18:42:55:580,0.8441,1.2721,8.6478,34.1566,0.0687,-0.0779,0.0475,190.3
18:42:55:600,0.7421,1.2376,9.061,34.2451,0.0703,-0.005,-0.0537,190
18:42:55:620,0.4984,1.0907,9.3792,34.4833,0.0772,0.1036,-0.0813,189.78
18:42:55:640,0.3322,1.0768,9.6125,34.4618,0.1145,0.2223,-0.0356,189.71
18:42:55:660,0.3983,1.3515,9.6087,34.6327,0.2071,0.2478,0.0145,189.73
18:42:55:680,0.7184,1.6821,9.3207,34.9346,0.2742,0.1978,-0.0228,189.79
18:42:55:700,1.1083,2.0201,9.5998,34.9006,0.2817,0.0626,-0.1303,189.82
18:42:55:719,1.5098,2.13,10.8584,35.05,0.378,-0.0801,-0.2996,189.82
18:42:55:740,1.16,1.9216,11.5784,35.2196,0.4919,-0.0923,-0.4332,189.88
18:42:55:760,0.4188,1.0794,11.6218,35.3794,0.4749,-0.0125,-0.4098,190.09
18:42:55:780,0.1371,0.3509,11.6442,35.246,0.3945,0.1547,-0.1761,190.46
18:42:55:800,0.9914,-0.0013,11.2072,35.3116,0.2806,0.1866,-0.0228,190.94
18:42:55:820,1.7899,0.1453,10.6238,35.4474,0.0549,0.0227,-0.0494,191.34
18:42:55:842,2.0222,0.4025,10.8434,35.5753,-0.2469,-0.1716,-0.2698,191.5
18:42:55:860,1.2573,0.1485,12.6288,35.4138,-0.3257,-0.1908,-0.4587,191.52
18:42:55:880,0.1621,-0.7331,13.3551,35.3945,-0.083,0.1749,-0.3965,191.58
18:42:55:899,-0.2044,-1.2142,11.8965,35.3316,0.2769,0.5864,-0.0968,191.91
18:42:55:919,0.5125,-0.9096,8.7917,35.2283,0.4504,0.5241,0.1295,192.35
18:42:55:940,1.5524,-0.4141,6.7967,34.9965,0.3131,-0.0449,0.1337,192.72
18:42:55:960,2.078,0.1682,6.8824,35.0463,-0.0462,-0.5847,-0.0387,192.81
18:42:55:984,1.9833,0.3284,8.6034,34.8091,-0.3278,-0.7598,-0.2799,192.77
18:42:56:000,1.2138,0.1007,9.9878,34.7192,-0.3587,-0.5379,-0.3917,192.74
18:42:56:019,0.6808,-0.0308,9.9308,34.6165,-0.2624,-0.1109,-0.3454,192.86
18:42:56:039,0.4821,0.2498,8.7445,34.5002,-0.1692,0.2409,-0.2171,193.2
18:42:56:059,0.6564,0.8037,7.5278,34.3935,-0.1042,0.2494,-0.1101,193.59
18:42:56:079,0.9262,1.3705,6.923,34.3625,-0.0297,0.0716,-0.1202,193.9
18:42:56:099,1.1099,1.6714,6.8751,34.3751,0.0384,-0.0934,-0.2112,194.14
18:42:56:119,1.2943,1.8536,7.2353,34.2532,0.1028,-0.1312,-0.3368,194.31
18:42:56:139,1.6524,2.192,7.9518,34.2631,0.1874,-0.1067,-0.5178,194.51
18:42:56:159,1.4636,2.2475,8.1905,34.388,0.3019,-0.029,-0.7462,194.78
18:42:56:180,0.7741,1.896,7.6696,34.3825,0.23,0.1259,-0.8639,195.19
18:42:56:200,0.1634,1.5663,7.5133,34.1251,0.0219,0.2297,-0.8064,195.79
18:42:56:219,-0.1346,1.4898,8.0334,33.8742,-0.1144,0.1957,-0.6376,196.58
18:42:56:240,-0.2473,1.5867,8.6815,33.8365,-0.1293,0.103,-0.4241,197.47
18:42:56:260,-0.1564,1.7829,9.2661,33.6756,-0.1037,0.0578,-0.2133,198.35
18:42:56:279,-0.0257,2.0586,9.8036,33.6142,-0.0276,0.1696,-0.0217,199.08
18:42:56:299,0.0435,2.2508,9.6771,33.4731,0.0102,0.3825,0.1497,199.58
18:42:56:319,0.0316,2.2573,9.4745,33.3313,-0.0579,0.498,0.311,199.8
18:42:56:341,0.172,2.2464,10.1026,33.0672,-0.0787,0.2878,0.4568,199.74
18:42:56:363,0.7073,1.9631,11.1523,32.9778,0.0432,-0.0588,0.5085,199.47
18:42:56:379,1.0894,1.4004,11.6414,32.9477,0.0943,-0.1115,0.4941,199.12
18:42:56:399,1.0155,0.8431,11.4596,32.9506,-0.0217,0.1403,0.5085,198.7
18:42:56:419,0.8515,0.9357,11.2601,33.0743,-0.2027,0.374,0.5782,198.16
18:42:56:439,1.0669,1.2666,11.2792,32.9626,-0.3113,0.4086,0.5564,197.5
18:42:56:460,0.8521,1.2581,11.2396,33.0744,-0.3454,0.2313,0.4095,196.8
18:42:56:479,0.2068,0.6786,11.4901,33.2536,-0.3672,-0.0838,0.2939,196.07
18:42:56:499,-0.4403,-0.034,12.1849,33.3523,-0.3252,-0.2589,0.3285,195.44
18:42:56:519,-0.5382,-0.6676,12.7994,33.4752,-0.0984,-0.1344,0.4244,195.04
18:42:56:539,-0.3859,-0.9742,11.5259,33.4803,0.156,0.1377,0.5282,194.78
18:42:56:560,-0.1026,-0.5976,9.1432,33.6367,0.1353,0.2116,0.5723,194.42
18:42:56:579,0.2307,-0.084,8.0564,33.6987,-0.0606,-0.0327,0.492,193.89
18:42:56:599,0.2872,0.1486,8.6292,33.8171,-0.1921,-0.3904,0.3653,193.25
18:42:56:619,0.2022,0.1709,9.6844,33.7408,-0.1766,-0.6177,0.2705,192.63
18:42:56:640,0.2457,0.172,10.3183,33.6961,-0.1495,-0.4979,0.2173,192.17
18:42:56:660,0.2846,0.2854,10.3572,33.4564,-0.076,-0.1844,0.1971,191.86
18:42:56:679,0.2754,0.4845,9.5328,33.4623,0.0379,0.0317,0.2035,191.56
18:42:56:699,0.442,0.6276,8.4206,33.3613,0.122,0.0727,0.2136,191.26
18:42:56:719,0.6775,0.7767,7.6531,33.4861,0.1598,-0.0439,0.2061,190.99
18:42:56:739,0.8839,0.9667,7.386,33.5858,0.1869,-0.1535,0.1561,190.75
18:42:56:760,1.0133,1.0448,7.1453,33.7965,0.1981,-0.1998,0.0677,190.55
18:42:56:779,0.9032,0.9095,7.0598,33.7047,0.1422,-0.1455,-0.0073,190.36
18:42:56:800,0.6074,0.7685,7.1197,33.7819,0.04,-0.0582,-0.0313,190.21
18:42:56:820,0.4283,0.8399,7.5375,33.7672,-0.0531,-0.0359,-0.0217,190.12
18:42:56:883,0.4683,0.9901,8.2781,34.0732,-0.0824,-0.0311,0.0065,190.09
18:42:56:884,0.5353,1.124,8.8208,33.9815,-0.0574,0.003,0.0358,190.11
18:42:56:884,0.4491,1.1189,9.1428,33.7626,-0.0398,0.0823,0.0837,190.13
18:42:56:899,0.1656,1.1372,9.4866,33.5249,-0.0292,0.2239,0.1939,190.12
18:42:56:919,0.3193,1.5367,9.9285,33.4247,-0.0361,0.3995,0.2519,190.06
18:42:56:939,0.4276,1.5763,10.6093,33.181,-0.0734,0.7062,0.1928,189.91
18:42:56:960,-0.0787,1.2712,10.9628,33.0328,-0.2139,1.0958,0.105,189.61
18:42:56:979,-0.6485,0.7724,11.1599,32.9662,-0.3417,1.2193,0.064,189.17
18:42:57:000,-1.4347,0.1642,11.2801,32.7484,-0.2916,0.8728,0.1997,188.72
18:42:57:019,-1.0016,-0.2259,11.7901,32.5697,-0.051,0.4539,0.4771,188.5
18:42:57:039,0.2784,-0.0351,11.1867,32.5375,0.1156,0.2207,0.5324,188.46
18:42:57:059,1.0514,0.6115,10.2513,32.5325,-0.0537,-0.0226,0.3615,188.33
18:42:57:079,1.2228,0.9316,10.7441,32.5084,-0.3092,-0.219,0.0411,187.85
18:42:57:099,0.3689,0.7398,12.2852,32.3691,-0.3752,-0.2733,-0.2107,187.3
18:42:57:119,-0.4684,0.1131,13.187,32.265,-0.1106,-0.112,-0.2283,186.94
18:42:57:139,-0.5562,-0.1929,12.2427,32.1316,0.229,0.2351,-0.1079,186.91
18:42:57:164,-0.2334,-0.1913,9.9846,31.9821,0.4153,0.3303,0.0006,187.12
18:42:57:179,0.448,-0.1062,8.2791,31.8406,0.4137,0.0716,-0.0206,187.29
18:42:57:199,0.7594,-0.042,7.5755,31.6448,0.2162,-0.1908,-0.1692,187.38
18:42:57:219,0.38,0.0177,8.0281,31.6824,-0.0223,-0.3627,-0.3214,187.44
18:42:57:239,-0.2088,-0.1808,8.7696,31.7968,-0.1016,-0.4351,-0.3954,187.54
18:42:57:262,-0.8184,-0.3632,8.9717,31.5737,-0.0771,-0.3947,-0.3097,187.8
18:42:57:279,-0.7783,-0.2692,8.4713,31.6284,-0.0861,-0.26,-0.1559,188.21
18:42:57:299,-0.336,0.1855,7.7462,31.533,-0.1585,-0.1689,-0.0398,188.68
18:42:57:319,0.4009,0.8632,7.741,31.6145,-0.1564,-0.276,-0.0489,189.02
18:42:57:339,0.8993,1.308,7.6929,31.5167,-0.083,-0.3771,-0.2016,189.18
18:42:57:360,0.8539,1.2578,7.5516,31.6017,-0.0787,-0.3718,-0.3901,189.27
18:42:57:379,0.1451,0.6578,7.8571,31.6115,-0.1426,-0.2259,-0.4332,189.38
18:42:57:399,-0.5192,0.3389,8.423,31.5942,-0.1532,-0.0737,-0.2655,189.63
18:42:57:419,-0.3595,0.5477,9.0585,31.4713,-0.0526,0.053,-0.0611,190.04
18:42:57:439,0.1167,0.9277,9.028,31.4029,0.0751,0.1744,0.0283,190.5
18:42:57:460,0.5297,1.2438,8.6038,31.3235,0.1033,0.2425,0.0278,190.78
18:42:57:482,0.4959,1.1713,8.5734,31.2411,0.0671,0.2691,0.0118,190.82
18:42:57:499,0.2458,1.1343,9.0968,31.1326,0.0714,0.2414,0.0885,190.76
18:42:57:519,0.1632,1.2619,9.662,31.2157,0.1294,0.2324,0.1944,190.7
18:42:57:539,0.1084,1.4207,9.8631,31.3265,0.189,0.3,0.3051,190.68
18:42:57:559,0.5046,1.6424,9.6189,31.2719,0.1645,0.3304,0.3424,190.58
18:42:57:579,1.1295,1.9408,9.8269,31.178,0.0591,0.1994,0.2247,190.33
18:42:57:600,1.1562,1.5028,10.7048,31.2286,-0.05,-0.0231,0.0113,189.95
18:42:57:619,0.4181,0.3324,12.1711,31.2972,-0.0734,0.0258,-0.0505,189.57
18:42:57:639,-0.4405,-0.5596,12.7011,31.0968,-0.083,0.2622,0.065,189.36
18:42:57:660,-0.9622,-0.5492,12.58,31.133,-0.1399,0.5358,0.2902,189.33
18:42:57:679,-0.4478,0.3224,11.5497,31.0449,-0.2464,0.6732,0.386,189.3
18:42:57:699,-0.0794,0.774,10.8969,31.0263,-0.323,0.4315,0.2146,189.12
18:42:57:719,-0.6645,0.5076,11.3457,30.7685,-0.2576,-0.0854,0.056,188.71
18:42:57:739,-1.5821,-0.3828,12.1216,30.6256,0.0001,-0.4122,0.0539,188.31
18:42:57:760,-2.2198,-1.3243,11.5558,30.3275,0.188,-0.1679,0.2695,188.21
18:42:57:779,-1.8415,-1.2179,9.8003,30.1794,0.1731,0.1957,0.5367,188.27
18:42:57:799,-0.987,-0.4404,8.4158,30.114,0.0586,0.1281,0.5995,188.15
18:42:57:819,-0.4098,0.0148,8.2054,30.0735,-0.0521,-0.2275,0.5016,187.73
18:42:57:840,-0.4391,0.009,8.921,29.9059,-0.1122,-0.5879,0.393,187.13
18:42:57:861,-0.4429,-0.0144,10.1719,29.9225,-0.067,-0.6496,0.3349,186.55
18:42:57:879,0.1187,0.3513,10.9103,29.8638,0.1188,-0.2515,0.2668,186.11
18:42:57:899,0.3669,0.8681,9.4952,29.9365,0.263,0.2138,0.0933,185.71
18:42:57:920,0.1104,0.9508,7.7497,30.1529,0.2992,0.3655,-0.0718,185.23
18:42:57:940,0.0577,0.6033,6.2946,30.3405,0.2199,0.2154,-0.1292,184.78
18:42:57:961,0.0787,0.2401,5.7578,30.3501,0.0267,-0.1189,-0.1271,184.61
18:42:57:979,-0.2184,-0.0976,6.6131,30.5753,-0.1862,-0.3792,-0.0632,184.71
18:42:57:999,-0.5734,-0.1387,8.1071,30.6448,-0.1985,-0.4463,0.056,184.96
18:42:58:019,-0.578,-0.1188,8.8865,30.6319,-0.0649,-0.2786,0.1811,185.19
18:42:58:039,-0.2825,0.2945,8.4465,30.8166,-0.0707,-0.013,0.2423,185.31
18:42:58:059,-0.0302,0.806,8.199,30.8391,-0.2277,0.0855,0.179,185.23
18:42:58:079,-0.0139,1.0776,9.0073,30.8466,-0.2927,-0.0353,0.0736,184.94
18:42:58:099,-0.1868,1.0355,10.0903,30.9447,-0.1719,-0.1993,0.0198,184.62
18:42:58:119,-0.5881,0.8693,10.7236,31.0697,-0.0084,-0.1887,0.0693,184.45
18:42:58:139,-0.6287,1.0214,10.8071,31.1119,0.0464,0.0844,0.1694,184.43
18:42:58:160,-0.1822,1.603,10.5568,30.9881,0.0288,0.3453,0.1603,184.42
18:42:58:180,0.1261,1.9399,10.3817,31.0044,0.0336,0.3043,0.023,184.26
18:42:58:200,-0.0356,1.5479,10.5943,31.2038,0.0517,0.0951,-0.1266,183.97
18:42:58:220,-0.6528,0.5582,11.3029,31.2711,0.0544,-0.0428,-0.1111,183.79
18:42:58:239,-0.8752,-0.5099,12.2679,31.3469,0.0815,0.1073,0.0507,183.82
18:42:58:261,-0.5307,-0.9006,12.0493,31.4805,0.0975,0.3612,0.2093,184.01
18:42:58:280,0.083,-0.5289,11.1566,31.394,0.0475,0.3548,0.1987,184.09
18:42:58:300,0.4307,-0.1546,10.4741,31.4244,-0.0744,0.1648,-0.0132,183.94
18:42:58:320,-0.3048,-0.2982,10.4648,31.3776,-0.2176,-0.0518,-0.2416,183.68
18:42:58:339,-1.3911,-0.9563,11.2654,31.5861,-0.1692,-0.1636,-0.1963,183.5
18:42:58:359,-1.6094,-1.3867,11.2904,31.7809,0.0602,-0.0641,0.1023,183.57
18:42:58:379,-0.8048,-0.9811,10.1888,31.844,0.2524,0.0844,0.3615,183.89
18:42:58:399,0.5949,-0.3472,8.9815,31.7182,0.3189,0.0456,0.352,184.1
18:42:58:420,1.5335,0.1131,8.0629,31.6702,0.164,-0.1003,0.0576,183.94
18:42:58:440,1.2442,0.3162,8.1974,31.5737,-0.1399,-0.2126,-0.3076,183.54
18:42:58:461,0.0377,-0.1174,9.3716,31.6191,-0.2576,-0.2871,-0.4981,183.17
18:42:58:479,-1.1245,-0.6551,10.0736,31.5808,-0.1889,-0.1562,-0.3773,183.14
18:42:58:499,-1.5154,-0.6841,9.8943,31.6117,-0.0079,0.0354,-0.0584,183.52
18:42:58:519,-0.7564,0.0035,8.5756,31.3782,0.1417,0.1504,0.2061,184.06
18:42:58:539,0.2247,0.8279,7.2953,31.4062,0.1411,0.1116,0.2428,184.45
18:42:58:560,0.9069,1.2662,6.9604,31.2763,0.1156,-0.0226,0.1092,184.48
18:42:58:580,0.9591,1.2697,7.0939,31.3375,0.0847,-0.0838,-0.0595,184.26
18:42:58:599,0.4863,1.012,7.4268,31.3317,0.0496,-0.0561,-0.1649,184.02
18:42:58:620,0.0636,0.7279,7.7313,31.4423,-0.0063,0.0541,-0.1548,183.91
18:42:58:639,-0.0599,0.7868,8.0113,31.4154,-0.0526,0.0951,-0.1053,183.97
18:42:58:660,0.016,1.0491,8.3734,31.5623,-0.0771,0.0573,-0.1053,184.12
18:42:58:683,-0.0455,1.1904,8.7449,31.8709,-0.0979,-0.0029,-0.1468,184.28
18:42:58:699,-0.3961,1.0572,9.3271,32.0445,-0.0893,0.0014,-0.1239,184.41
18:42:58:719,-0.7396,1.0477,9.8147,32.059,-0.0313,0.1046,0.015,184.54
18:42:58:739,-0.6487,1.3894,9.9432,32.1863,0.0698,0.2319,0.1843,184.71
18:42:58:759,-0.2799,1.886,9.5306,32.0835,0.1385,0.2931,0.2668,184.82
18:42:58:779,0.0931,2.2128,9.346,32.225,0.1491,0.2106,0.2503,184.76
18:42:58:799,0.259,2.2057,9.7496,32.2545,0.1321,-0.0114,0.1571,184.52
18:42:58:819,0.1445,1.678,10.9494,32.3671,0.1262,-0.1525,0.0512,184.23
18:42:58:839,-0.1491,0.9486,11.8264,32.4454,0.1481,-0.1088,-0.0015,184
18:42:58:859,-0.4257,0.2515,12.115,32.2118,0.1773,0.0631,0.0411,183.87
18:42:58:879,-0.3742,0.0351,11.5107,32.2956,0.1134,0.3011,0.0938,183.81
18:42:58:943,-0.3021,0.2349,10.9492,32.333,0.0017,0.3735,0.1098,183.76
18:42:58:944,-0.4262,0.4006,10.5468,32.4202,-0.0915,0.3474,0.0624,183.62
18:42:58:944,-0.8767,0.4497,10.266,32.6692,-0.2027,0.2212,0.0182,183.47
18:42:58:964,-1.3821,0.1614,10.7757,32.5489,-0.2384,-0.0556,0.0304,183.32
18:42:58:979,-1.6915,-0.2579,11.6254,32.6339,-0.1671,-0.2105,0.1417,183.27
18:42:58:999,-1.7979,-0.7311,11.94,32.5502,0.0097,-0.1775,0.3307,183.33
18:42:59:019,-1.3581,-0.8154,11.0089,32.4702,0.1843,-0.0561,0.5228,183.35
18:42:59:039,-0.6127,-0.4523,9.4021,32.3416,0.1608,-0.022,0.5713,183.19
18:42:59:059,0.0751,-0.078,8.6753,32.3601,-0.0095,-0.1157,0.4536,182.79
18:42:59:081,0.4371,0.2717,9.1604,32.3787,-0.2096,-0.154,0.229,182.18
18:42:59:099,0.8899,0.6755,10.1087,32.1487,-0.3646,-0.0039,-0.0994,181.56
18:42:59:119,0.7672,0.825,10.6664,32.2458,-0.4396,0.4049,-0.4508,181.06
18:42:59:140,0.0204,0.5254,10.281,32.4376,-0.3954,0.8233,-0.6568,180.75
18:42:59:161,-1.121,-0.042,9.0315,32.3222,-0.2549,0.9835,-0.6243,180.72
18:42:59:180,-2.408,-0.6466,7.6091,32.4145,-0.1154,0.6966,-0.3741,181.08
18:42:59:199,-3.1194,-0.8858,6.9238,32.3398,0.0341,0.0546,0.0954,181.75
18:42:59:219,-2.5968,-0.6775,7.1921,32.3665,0.238,-0.5416,0.5521,182.53
18:42:59:239,-1.2868,-0.0241,7.3174,32.3705,0.3242,-0.6954,0.7672,183.16
18:42:59:259,-0.1894,0.7931,7.4183,32.366,0.2061,-0.4745,0.6852,183.25
18:42:59:279,0.1952,1.1368,7.7312,32.3953,0.0687,-0.2312,0.4563,182.69
18:42:59:300,-0.0769,1,8.1677,32.1297,0.0246,-0.1429,0.2945,181.76
18:42:59:319,-0.4284,0.8149,8.4779,32.0568,0.057,-0.1918,0.2732,180.91
18:42:59:339,-0.4523,0.8562,8.7571,31.9833,0.1214,-0.2382,0.3168,180.37
18:42:59:359,-0.3322,1.0918,8.9318,32.2205,0.1534,-0.2137,0.3413,180.05
18:42:59:380,-0.2765,1.3804,9.2269,32.1941,0.1571,-0.1168,0.3232,179.76
18:42:59:400,-0.3134,1.4673,9.5135,32.2915,0.1374,0.0754,0.2801,179.41
18:42:59:419,-0.5875,1.464,9.6185,32.275,0.1023,0.185,0.2758,178.99
18:42:59:439,-0.7477,1.339,9.9113,32.3758,0.0757,0.036,0.2918,178.56
18:42:59:460,-0.7307,1.2453,10.8517,32.5049,0.0772,-0.1775,0.3003,178.2
18:42:59:480,-0.4857,0.949,11.8619,32.7372,0.0895,-0.235,0.2748,177.92
18:42:59:501,0.2216,0.4669,12.3035,32.9141,0.0592,-0.021,0.2146,177.66
18:42:59:519,0.8919,0.0942,11.8848,32.968,-0.1027,0.258,0.064,177.35
18:42:59:539,0.8711,-0.155,11.4246,32.8815,-0.3502,0.3713,-0.1021,176.98
18:42:59:561,-0.0673,-0.4776,11.5971,33.0098,-0.4119,0.226,-0.1841,176.64
18:42:59:579,-1.2201,-0.9463,11.6412,32.9247,-0.215,0.0173,-0.0563,176.51
18:42:59:599,-1.3009,-1.0029,11.0561,32.8822,0.0033,-0.0082,0.2333,176.66
18:42:59:619,-0.4664,-0.492,10.1037,32.7307,0.1257,0.0535,0.4089,176.92
18:42:59:639,0.5667,0.2206,9.3288,32.5788,0.2024,-0.0188,0.3461,176.99
18:42:59:659,1.2711,0.3996,8.7883,32.3886,0.1539,-0.2786,0.0672,176.7
18:42:59:679,1.0182,0.165,9.1171,32.2982,-0.0196,-0.5565,-0.2538,176.25
18:42:59:699,0.1005,-0.4572,10.1368,32.4174,-0.1383,-0.7119,-0.4225,175.94
18:42:59:719,-0.9583,-0.9337,10.9314,32.4515,-0.1314,-0.598,-0.3432,175.98
18:42:59:740,-1.4445,-0.9961,10.8599,32.3702,0.0049,-0.2818,-0.0856,176.35
18:42:59:763,-1.1639,-0.4959,9.5046,32.4418,0.1571,0.0067,0.1864,176.84
18:42:59:780,-0.5597,0.3162,7.7256,32.4815,0.1502,0.0849,0.328,177.16
18:42:59:802,-0.007,0.9513,6.9888,32.5663,0.1023,-0.0274,0.3312,177.18
18:42:59:820,0.2722,1.2098,6.8295,32.6535,0.0863,-0.1748,0.2551,176.94
18:42:59:840,0.439,1.3444,6.9603,32.8628,0.0666,-0.2461,0.179,176.59
18:42:59:860,0.6091,1.4589,7.4491,33.0556,0.0496,-0.1961,0.081,176.27
18:42:59:880,0.6873,1.4566,7.9048,33.0285,0.0602,-0.0614,-0.0276,176.01
18:42:59:900,0.5626,1.2888,8.1103,32.9785,0.0746,0.0802,-0.0936,175.8
18:42:59:919,0.3136,1.09,8.1696,33.0748,0.0219,0.1696,-0.109,175.67
18:42:59:939,0.0379,0.9726,8.7476,33.1703,-0.0265,0.2005,-0.0568,175.66
18:42:59:960,-0.1098,0.9388,9.4568,33.275,0.008,0.2239,0.0374,175.73
18:42:59:979,-0.1946,1.0246,9.8442,33.283,0.0719,0.3213,0.1497,175.83
18:42:59:999,-0.3415,1.2507,9.8674,33.2298,0.0975,0.4741,0.2854,175.87
18:43:00:019,-0.3715,1.5353,9.8356,32.931,0.1156,0.5768,0.4329,175.79
18:43:00:039,-0.2727,1.8502,9.7463,32.6824,0.1635,0.5209,0.5383,175.54
18:43:00:060,-0.0038,1.982,9.6977,32.5674,0.2034,0.2335,0.5388,175.15
18:43:00:079,0.0708,1.509,9.9937,32.4582,0.1699,-0.0833,0.4691,174.63
18:43:00:103,-0.225,0.6419,10.9277,32.4259,0.0911,-0.1322,0.4856,174.07
18:43:00:119,-0.5389,0.163,11.4197,32.1246,0.0671,0.0131,0.5952,173.54
18:43:00:139,-0.5339,0.2538,11.1091,32.2061,-0.035,0.2047,0.674,173.04
18:43:00:159,-0.3405,0.6661,11.0056,32.3064,-0.2203,0.3825,0.6772,172.45
18:43:00:179,-0.3347,0.9179,11.3573,32.278,-0.3731,0.4331,0.5234,171.71
18:43:00:199,-0.9135,0.3014,11.7501,32.3098,-0.3896,0.2776,0.3711,170.87
18:43:00:219,-1.9894,-0.6382,11.8118,32.3863,-0.3284,0.0557,0.4403,170.06
18:43:00:239,-2.4555,-1.4328,11.8663,32.3074,-0.1474,-0.0114,0.7054,169.48
18:43:00:259,-1.8468,-1.2807,10.8508,32.3031,0.0719,0.1659,1.0003,169.1
18:43:00:281,-0.6825,-0.3183,8.8796,32.0928,0.0698,0.3133,1.0616,168.61
18:43:00:300,0.1947,0.3702,7.6434,32.0169,-0.1021,0.1579,0.8417,167.72
18:43:00:320,0.2558,0.5868,7.9052,31.648,-0.2959,-0.2978,0.5447,166.52
18:43:00:339,-0.1404,0.2822,9.306,31.2015,-0.3262,-0.8551,0.2966,165.35
18:43:00:359,-0.4068,-0.1705,10.7844,31.1512,-0.3012,-0.9696,0.1444,164.55
18:43:00:379,-0.6042,-0.4515,11.4458,31.1644,-0.1979,-0.6252,0.1039,164.13
18:43:00:399,-0.733,-0.4938,10.9348,31.0937,-0.0345,-0.1125,0.1343,163.86
18:43:00:419,-0.7203,-0.3913,9.2418,31.1575,0.0522,0.2894,0.1939,163.61
18:43:00:439,-0.5707,-0.2246,7.5613,31.2677,0.0592,0.3634,0.2774,163.33
18:43:00:460,-0.3376,0.0393,6.4609,31.3954,0.0485,0.1398,0.353,163.04
18:43:00:480,-0.1214,0.2939,6.1072,31.4825,0.0155,-0.2206,0.3796,162.78
18:43:00:500,0.0335,0.4213,6.5759,31.6906,-0.0372,-0.4814,0.3812,162.52
18:43:00:520,0.3738,0.5894,7.255,31.882,-0.1048,-0.5623,0.3387,162.24
18:43:00:540,0.6273,0.7276,7.925,32.0137,-0.1857,-0.5405,0.2444,161.9
18:43:00:563,0.6505,1.0004,8.8886,32.063,-0.2304,-0.442,0.0996,161.51
18:43:00:580,0.3747,1.0865,9.952,32.1723,-0.1468,-0.3201,-0.0691,161.14
18:43:00:600,0.0428,1.063,10.6545,32.1469,-0.0947,0.0147,-0.2346,160.85
18:43:00:620,-0.0872,1.2157,11.1438,32.3284,-0.1676,0.6354,-0.3895,160.7
18:43:00:640,-0.4127,1.1669,11.0806,32.3273,-0.2033,1.2098,-0.4689,160.67
18:43:00:660,-1.0026,1.0441,10.5061,32.4938,-0.0601,1.4025,-0.3901,160.74
18:43:00:680,-1.1617,0.9728,9.5048,32.3868,0.1523,1.1688,-0.2389,161
18:43:00:700,-1.2268,0.7925,8.5341,32.291,0.2306,0.6002,-0.1495,161.45
18:43:00:720,-1.6361,0.3401,8.608,32.2556,0.1976,-0.1594,-0.0563,161.92
18:43:00:740,-1.5074,-0.2866,9.7846,32.2167,0.2018,-0.8184,0.0789,162.35
18:43:00:762,-0.7351,-0.733,11.1637,32.1545,0.3434,-1.0122,0.2391,162.77
18:43:00:780,0.5785,-1.0624,11.3412,32.1198,0.4856,-0.7907,0.4126,163.06
18:43:00:799,1.3445,-0.7035,10.9279,31.6606,0.4318,-0.6267,0.5787,163.05
18:43:00:819,1.3011,0.0919,10.7074,31.7207,0.2274,-0.6944,0.715,162.73
18:43:00:839,0.9762,0.8964,10.6973,31.744,-0.076,-0.9286,0.8082,162.25
18:43:00:859,1.1567,1.0941,11.0601,31.8873,-0.3475,-0.911,0.583,161.66
18:43:00:879,0.9337,0.8186,11.842,32.0418,-0.3433,-0.7902,0.2375,160.98
18:43:00:900,0.5796,0.4522,11.6656,32.2193,-0.1293,-0.4064,0.1571,160.11
18:43:00:919,0.8396,0.3346,10.4471,32.3735,0.0831,-0.0023,0.1955,159.44
18:43:00:939,1.1502,0.5294,9.017,32.6679,0.1342,-0.0199,0.1023,159.07
18:43:01:000,1.0815,0.6649,8.5276,32.9262,0.0421,-0.376,-0.1346,158.77
18:43:01:001,0.6509,0.4584,8.8371,33.481,-0.0696,-0.7061,-0.3645,158.55
18:43:01:001,0.0441,0.0261,9.4153,33.7308,-0.1341,-0.795,-0.4518,158.55
18:43:01:019,-0.4532,-0.4064,9.5336,33.8794,-0.1761,-0.4117,-0.3022,158.82
18:43:01:039,-0.4937,-0.4087,8.6233,33.9754,-0.29,-0.0353,-0.0371,159.3
18:43:01:059,-0.0235,-0.1248,8.1268,34.1644,-0.4178,0.3612,0.1678,159.73
18:43:01:079,0.4002,0.0596,7.7937,34.4168,-0.4444,0.6386,0.2625,159.97
18:43:01:099,0.5143,0.0772,7.5716,34.4856,-0.3512,0.8707,0.3695,159.88
18:43:01:119,0.6638,0.1731,7.2499,34.3194,-0.2208,0.8856,0.5058,159.59
18:43:01:140,1.0247,0.5951,7.3378,34.4471,-0.0728,0.6977,0.6272,159.22
18:43:01:160,1.5492,1.1449,7.7394,34.1149,0.0826,0.4991,0.633,158.77
18:43:01:180,1.8194,1.5689,8.1397,34.0402,0.2045,0.3218,0.4643,158.25
18:43:01:200,1.5296,1.6606,8.5782,33.7776,0.2066,0.1126,0.204,157.61
18:43:01:220,0.7157,1.3323,9.4199,33.8233,0.1358,0.0216,0.0086,156.93
18:43:01:240,-0.5275,0.7465,10.4193,33.7353,0.13,0.1126,0.0501,156.47
18:43:01:260,-1.4429,0.4179,10.8782,33.4573,0.2061,0.35,0.3232,156.26
18:43:01:279,-1.8602,0.4207,10.8323,33.3528,0.3408,0.5859,0.707,156.22
18:43:01:300,-1.1032,0.7509,10.3848,33.3137,0.4872,0.6977,0.9892,156.09
18:43:01:320,-0.1407,1.2244,9.5188,33.2924,0.5127,0.5119,1.0137,155.63
18:43:01:340,0.2693,1.3636,9.2398,33.3643,0.3956,0.0509,0.8167,154.75
18:43:01:361,-0.1205,0.8106,9.9722,33.6216,0.2189,-0.2935,0.5819,153.65
18:43:01:380,-0.4785,-0.1254,10.9051,33.9326,0.0267,-0.2296,0.459,152.62
18:43:01:400,-1.1081,-0.7175,11.664,34.222,-0.1868,0.0243,0.5143,151.81
18:43:01:420,-1.3761,-0.863,12.323,34.5225,-0.2911,0.2329,0.6549,151.17
18:43:01:440,-1.1065,-0.8793,12.5567,34.9062,-0.2554,0.1504,0.8018,150.61
18:43:01:461,-0.4157,-0.6696,12.594,35.2075,-0.1399,-0.1285,0.9125,149.97
18:43:01:480,0.1977,-0.4036,12.651,35.4168,0.0506,-0.2893,0.9625,149.24
18:43:01:500,0.7264,-0.1859,11.8532,35.6709,0.2572,-0.0508,0.9237,148.38
18:43:01:520,0.8646,0.1087,9.9603,36.2268,0.2769,0.3234,0.8018,147.35
18:43:01:540,0.694,0.3975,8.178,36.1432,0.1316,0.4145,0.6394,146.16
18:43:01:560,0.2477,0.6124,7.43,36.3499,-0.0579,0.0849,0.4728,144.99
18:43:01:580,-0.143,0.5843,7.8463,36.6969,-0.1846,-0.4207,0.3158,144.05
18:43:01:600,-0.4426,0.1662,9.1087,37.0275,-0.2075,-0.7023,0.2253,143.42
18:43:01:620,-0.5646,-0.1527,10.0423,37.2501,-0.1585,-0.6134,0.2216,143.04
18:43:01:640,-0.554,-0.0844,10.2655,37.5325,-0.0585,-0.3473,0.2466,142.78
18:43:01:660,-0.3345,0.1165,9.7424,37.7782,0.0453,-0.0641,0.2221,142.51
18:43:01:680,-0.2324,0.2668,8.8415,38.0708,0.106,0.0839,0.1832,142.19
18:43:01:700,-0.1916,0.3366,8.0451,38.205,0.1619,0.0796,0.1609,141.82
18:43:01:720,-0.0996,0.4528,7.4053,38.7273,0.197,-0.0454,0.1337,141.52
18:43:01:740,0.0525,0.5109,7.1199,38.9888,0.1667,-0.1934,0.0874,141.3
18:43:01:761,0.0376,0.5345,7.37,39.1337,0.0815,-0.2669,0.0358,141.14
18:43:01:780,-0.0964,0.4772,7.9353,39.1436,-0.0004,-0.2211,0.0097,141.03
18:43:01:800,-0.2524,0.4635,8.5538,39.4386,-0.0457,-0.0737,0.0214,140.97
18:43:01:821,-0.3319,0.5176,9.0721,39.5906,-0.0462,0.1073,0.064,140.94
18:43:01:839,-0.2647,0.6715,9.3639,40.0288,-0.0249,0.2707,0.1162,140.91
18:43:01:859,-0.0876,0.9752,9.4509,40.194,0.0107,0.3894,0.1539,140.84
18:43:01:880,0.0399,1.2195,9.4542,40.5041,0.0309,0.5071,0.1758,140.72
18:43:01:900,0.0917,1.4128,9.3792,40.7198,0.0341,0.5646,0.1763,140.54
18:43:01:920,0.1148,1.4032,9.3143,41.1026,-0.0026,0.4618,0.1566,140.31
18:43:01:940,0.0852,1.1142,9.5311,41.2792,-0.042,0.1983,0.1353,140.07
18:43:01:960,-0.0713,0.6694,10.1249,41.445,-0.0782,-0.0795,0.1396,139.87
18:43:01:986,-0.26,0.1616,10.8409,41.5302,-0.1218,-0.1791,0.212,139.75
18:43:02:004,-0.2713,-0.1272,11.4019,41.8416,-0.1021,-0.0822,0.3892,139.66
18:43:02:019,0.5682,0.1032,11.0175,41.8509,-0.0718,0.0493,0.4824,139.54
18:43:02:039,1.303,0.5637,10.167,42.0518,-0.1873,-0.0151,0.3275,139.28
18:43:02:059,1.3446,0.6914,9.9209,42.2176,-0.4247,-0.342,0.0123,138.8
18:43:02:080,0.4535,0.341,11.2346,42.2423,-0.5839,-0.6528,-0.257,138.28
18:43:02:099,-0.4704,-0.3769,12.7149,42.397,-0.5184,-0.5836,-0.3395,138.03
18:43:02:119,-1.0209,-0.8821,13.3988,42.7194,-0.2352,-0.12,-0.2123,138.12
18:43:02:139,-0.8056,-0.862,12.3189,42.7768,0.156,0.366,-0.0121,138.39
18:43:02:159,-0.0412,-0.3809,9.7743,43.2071,0.3599,0.3799,0.0406,138.62
18:43:02:179,0.9073,-0.1237,8.0634,43.3126,0.2684,0.0338,-0.141,138.67
18:43:02:199,0.9676,-0.0195,7.917,43.4208,-0.0169,-0.3015,-0.4092,138.65
18:43:02:220,0.4685,-0.3614,9.1211,43.5087,-0.1905,-0.4239,-0.6073,138.7
18:43:02:240,-0.6386,-0.9399,9.9046,43.4069,-0.1884,-0.3616,-0.5711,139
18:43:02:260,-1.2992,-1.0951,9.8382,43.7481,-0.0664,-0.1679,-0.2911,139.53
18:43:02:280,-1.0253,-0.5671,8.9472,43.6965,0.0517,0.0131,0.0001,140.21
18:43:02:300,-0.1623,0.2272,7.9284,43.7211,0.0794,0.1121,0.1401,140.81
18:43:02:320,0.6062,0.9362,7.2766,43.8476,0.0544,0.1206,0.1151,141.08
18:43:02:340,1.0244,1.318,7.031,43.8907,0.0363,0.0296,0.0081,141.05
18:43:02:360,1.1872,1.4407,7.0075,44.0611,0.0182,-0.1248,-0.1324,140.89
18:43:02:380,1.2111,1.402,7.3072,44.2017,-0.0143,-0.2706,-0.3007,140.78
18:43:02:399,1.0701,0.9115,7.8671,44.3975,-0.0569,-0.228,-0.4433,140.81
18:43:02:420,0.3394,0.4057,8.3448,44.6307,-0.141,-0.0439,-0.4151,141.01
18:43:02:440,-0.0963,0.2368,9.0058,44.6343,-0.1841,0.1015,-0.273,141.35
18:43:02:459,-0.3599,0.1223,9.9619,44.7643,-0.1341,0.2372,-0.0781,141.82
18:43:02:480,-0.4788,0.3183,10.6899,44.8196,0.0113,0.4629,0.1635,142.26
18:43:02:500,-0.1099,0.7688,10.6528,44.9504,0.204,0.6737,0.3349,142.54
18:43:02:520,0.269,1.2825,9.7901,45.0816,0.3424,0.7711,0.4025,142.55
18:43:02:540,0.4836,1.7107,8.9576,45.0699,0.3716,0.6854,0.4036,142.28
18:43:02:560,0.4261,1.9921,8.9955,45.3618,0.3184,0.4565,0.3466,141.84
18:43:02:581,0.2926,1.6172,10.0293,45.2958,0.3168,0.1169,0.254,141.39
18:43:02:600,0.1587,1.0457,10.9364,45.5999,0.2966,-0.1008,0.2258,140.98
18:43:02:620,-0.0082,0.7099,11.8566,45.7954,0.271,-0.1178,0.253,140.66
18:43:02:640,-0.3113,0.452,12.2733,46.0703,0.3551,0.0908,0.3461,140.43
18:43:02:660,-0.1367,0.4572,11.3724,46.191,0.3615,0.4954,0.4717,140.18
18:43:02:680,0.0741,1.1154,9.9395,46.4621,0.156,0.6583,0.5425,139.83
18:43:02:700,0.3117,1.7738,9.8084,46.7018,-0.0452,0.4251,0.4728,139.32
18:43:02:720,0.2241,1.7717,10.3318,47.0776,-0.1367,0.1446,0.2301,138.75
18:43:02:740,-0.53,1.0581,10.6614,47.1927,-0.1969,-0.1365,0.0209,138.2
18:43:02:760,-1.1838,-0.0937,11.4129,47.6538,-0.1969,-0.3936,-0.0132,137.72
18:43:02:781,-1.6927,-1.1586,12.0683,47.7227,-0.0468,-0.3664,0.1444,137.53
18:43:02:800,-1.7004,-1.6587,11.4254,47.9357,0.2157,-0.0566,0.4371,137.58
18:43:02:820,-0.8627,-1.1096,8.9241,48.1155,0.2583,0.1813,0.6256,137.57
18:43:02:840,-0.005,-0.2181,7.0305,48.4975,0.0075,-0.0013,0.5681,137.29
18:43:02:860,0.2753,0.3169,7.1706,49.008,-0.3188,-0.3941,0.3642,136.72
18:43:02:881,0.3443,0.3496,8.5721,49.1397,-0.4598,-0.7306,0.1603,136.1
18:43:02:901,0.4782,0.4096,9.6318,49.3022,-0.4215,-0.7609,-0.018,135.62
18:43:02:920,0.2178,0.1776,10.0985,49.5782,-0.3236,-0.4527,-0.133,135.34
18:43:02:940,-0.2294,0.0045,9.9558,49.8359,-0.1889,-0.0816,-0.1095,135.18
18:43:02:960,-0.3481,-0.1054,9.4348,50.0168,-0.0654,0.0993,-0.0467,135.13
18:43:02:980,-0.3198,-0.0026,8.8774,50.4049,0.0203,0.1169,0.0129,135.18
18:43:03:000,-0.2749,0.0631,8.6059,50.6712,0.0815,0.0019,0.048,135.24
18:43:03:049,-0.3469,0.0747,8.6565,50.9634,0.1443,-0.0822,0.1023,135.27
18:43:03:049,-0.1612,0.2183,8.554,50.9345,0.1874,-0.0162,0.1486,135.27
18:43:03:058,0.1114,0.401,8.285,51.3218,0.139,0.1227,0.1428,135.22
18:43:03:079,0.2116,0.6164,8.2117,51.699,0.0623,0.1989,0.114,135.08
18:43:03:099,0.2552,0.7884,8.2603,51.7672,0.015,0.1712,0.0741,134.89
18:43:03:120,0.2033,0.9466,8.4265,51.8954,0.0145,0.0674,0.048,134.72
18:43:03:139,0.1401,1.0505,8.7951,52.2988,0.0677,-0.0417,0.0491,134.59
18:43:03:159,0.1361,1.1458,9.0548,52.4514,0.1018,-0.0391,0.064,134.53
18:43:03:180,0.013,1.2458,9.1851,52.381,0.0501,0.0759,0.0895,134.48
18:43:03:199,-0.0392,1.2373,9.539,52.5197,-0.0366,0.184,0.1209,134.42
18:43:03:219,0.0485,1.2368,9.9133,52.7078,-0.1117,0.1456,0.1183,134.33
18:43:03:239,0.2064,1.0686,10.5516,52.6839,-0.1468,-0.0726,0.0485,134.22
18:43:03:259,0.4885,0.2257,11.4772,52.6841,-0.142,-0.1674,-0.026,134.1
18:43:03:280,0.6392,-0.623,11.4975,52.9471,-0.2778,-0.0311,-0.0803,134.02
18:43:03:299,0.6295,-0.7939,11.5785,53.0233,-0.5115,0.0993,-0.1793,133.98
18:43:03:320,-0.0437,-0.9476,11.888,52.9342,-0.7042,0.1259,-0.3235,134.02
18:43:03:340,-1.283,-1.3878,12.6069,53.176,-0.6573,0.0024,-0.2703,134.12
18:43:03:359,-2.1404,-1.9332,13.0253,53.2755,-0.339,-0.0864,0.0592,134.35
18:43:03:379,-1.2825,-1.8122,12.488,53.3442,0.1177,-0.0566,0.4744,134.74
18:43:03:399,0.5474,-0.9157,10.6925,53.4666,0.4243,-0.1008,0.6144,135.01
18:43:03:419,2.3185,-0.1357,9.2092,53.6428,0.4515,-0.195,0.4164,134.84
18:43:03:439,3.0263,0.3535,8.5761,53.7394,0.2577,-0.1972,-0.0308,134.26
18:43:03:459,2.4906,0.4268,8.754,53.6459,0.0283,-0.1072,-0.52,133.57
18:43:03:479,1.2859,-0.1592,9.1782,53.8095,-0.0478,-0.0476,-0.8388,133.13
18:43:03:499,0.0345,-0.8699,9.0753,53.9173,-0.0404,0.0668,-0.8649,133.19
18:43:03:519,-0.8333,-1.1134,8.5716,53.7011,-0.009,0.1249,-0.6541,133.79
18:43:03:539,-1.0138,-0.7744,8.111,53.6345,0.0341,0.11,-0.3789,134.72
18:43:03:559,-0.613,-0.1769,7.8087,53.6226,0.0703,0.0988,-0.1819,135.69
18:43:03:580,-0.0389,0.3522,7.4969,53.6986,0.0826,0.1313,-0.1058,136.44
18:43:03:599,0.3164,0.7653,7.2294,53.7163,0.0613,0.1392,-0.1079,136.87
18:43:03:620,0.4178,0.9951,7.215,53.5462,0.04,0.1121,-0.1543,137.07
18:43:03:641,0.2606,1.0129,7.4145,53.6328,0.0155,0.0732,-0.1793,137.19
18:43:03:660,0.1978,1.0426,7.8666,53.4714,-0.0026,0.0418,-0.166,137.32
18:43:03:681,0.1848,1.1447,8.4828,53.4011,0.0001,0.0104,-0.1484,137.51
18:43:03:700,0.1768,1.1889,9.2565,53.3451,0.0315,0.0514,-0.1399,137.73
18:43:03:719,0.0018,1.1219,9.9077,53.4995,0.0943,0.2287,-0.1063,137.93
18:43:03:739,-0.1954,1.0602,10.0969,53.3508,0.188,0.4177,-0.0158,138.08
18:43:03:759,-0.207,1.1783,9.8528,53.0661,0.2726,0.5151,0.0975,138.18
18:43:03:780,-0.0598,1.4346,9.4043,52.8986,0.2849,0.5113,0.1848,138.23
18:43:03:800,0.0811,1.723,9.2998,52.8623,0.2205,0.3953,0.2061,138.2
18:43:03:820,0.1378,1.771,9.6388,52.9123,0.1214,0.2335,0.1688,138.07
18:43:03:841,-0.1192,1.5577,10.3872,52.9547,0.0485,0.0812,0.1305,137.88
18:43:03:860,-0.5895,0.9694,11.3053,53.0863,0.057,0.0621,0.1715,137.7
18:43:03:881,-0.9581,0.2895,11.2871,53.1375,0.098,0.1696,0.3397,137.55
18:43:03:901,-0.7975,0.2367,10.5244,53.1869,0.024,0.2095,0.5351,137.4
18:43:03:920,-0.1899,0.7961,10.4282,53.2611,-0.1356,0.0866,0.5968,137.16
18:43:03:940,0.2394,1.1666,11.1088,53.3071,-0.2214,0.0067,0.4324,136.78
18:43:03:959,-0.129,0.6769,11.4437,53.4801,-0.2304,-0.0444,0.1869,136.23
18:43:03:979,-1.0031,-0.2227,11.3256,53.4514,-0.2858,-0.1897,0.0757,135.58
18:43:03:999,-1.7138,-1.2022,11.8582,53.3784,-0.2884,-0.3271,0.1082,135.1
18:43:04:019,-2.1821,-1.9544,12.3086,53.3318,-0.0787,-0.2371,0.3072,134.94
18:43:04:039,-1.625,-2.0529,10.9842,53.2943,0.1592,0.0338,0.5537,134.89
18:43:04:059,-0.6909,-1.2064,8.6236,53.4485,0.0879,0.0615,0.616,134.7
18:43:04:079,0.0371,-0.3295,7.8158,53.4657,-0.1495,-0.2445,0.4339,134.22
18:43:04:099,-0.0899,-0.0713,8.7951,53.283,-0.2911,-0.515,0.2008,133.6
18:43:04:119,-0.3104,-0.1468,9.7072,53.4309,-0.248,-0.4958,0.065,133.03
18:43:04:139,-0.5342,-0.2443,9.6916,53.2592,-0.1335,-0.2435,0.0363,132.63
18:43:04:159,-0.5841,-0.2415,8.8858,53.492,-0.0329,-0.0002,0.1007,132.39
18:43:04:179,-0.4596,-0.0162,7.8225,53.5588,-0.0036,0.0275,0.1816,132.24
18:43:04:199,-0.1999,0.2879,7.4993,53.4123,-0.0047,-0.1839,0.2136,132.11
18:43:04:219,0.1094,0.5115,8.0691,53.2773,0.0384,-0.3899,0.1907,131.99
18:43:04:239,0.3377,0.5345,8.679,53.2508,0.1065,-0.3271,0.1209,131.83
18:43:04:259,0.3073,0.5076,8.7794,53.3424,0.1177,-0.055,0.0549,131.62
18:43:04:279,0.1581,0.548,8.5209,53.4934,0.0783,0.119,0.0028,131.37
18:43:04:299,-0.0634,0.5325,8.5126,53.4431,0.0554,0.1387,-0.0265,131.17
18:43:04:320,-0.1847,0.5391,8.5925,53.4528,0.0453,0.0956,-0.0137,131.08
18:43:04:340,-0.1871,0.7048,8.8059,53.3682,0.0405,0.0525,0.0022,131.07
18:43:04:360,-0.1726,0.9443,8.9799,53.3281,0.0666,0.0541,0.0177,131.11
18:43:04:380,-0.1821,1.2743,8.9712,53.4744,0.0927,0.0924,0.0283,131.14
18:43:04:400,-0.3742,1.6967,8.91,53.2272,0.1033,0.1073,0.0533,131.13
18:43:04:419,-0.3842,2.1385,8.9553,52.9853,0.0879,0.0142,0.0709,131.09
18:43:04:440,-0.3406,2.3235,9.3429,52.7459,0.0735,-0.187,0.0438,131.05
18:43:04:460,-0.3486,2.096,10.2576,52.5256,0.0693,-0.3707,-0.0127,131.01
18:43:04:479,-0.314,1.3744,11.3516,52.5149,0.0671,-0.3883,-0.0339,130.98
18:43:04:499,-0.0876,0.3549,12.1522,52.4095,0.0751,-0.2749,-0.0217,130.98
18:43:04:519,0.2936,-0.8358,12.3376,52.2517,0.0847,-0.0109,0.0384,131.01
18:43:04:539,0.7189,-1.3235,11.6741,52.0494,0.0235,0.2707,0.1177,131.03
18:43:04:559,1.0403,-1.2116,10.7969,52.0101,-0.1218,0.3777,0.0634,131
18:43:04:579,0.6625,-0.9209,10.0798,51.9608,-0.3278,0.2319,-0.0898,130.91
18:43:04:599,-0.203,-0.9631,10.4998,51.9871,-0.4433,-0.0641,-0.1761,130.77
18:43:04:619,-0.6604,-1.3376,11.4983,51.9679,-0.2794,-0.1887,-0.1016,130.76
18:43:04:639,-0.4343,-1.3305,11.1402,51.8044,-0.0393,-0.054,0.0257,130.95
18:43:04:659,0.1144,-0.9201,9.7028,51.7541,0.0459,0.0205,0.0757,131.15
18:43:04:679,0.728,-0.6368,8.8239,51.5933,-0.0121,-0.1508,0.015,131.18
18:43:04:699,1.0182,-0.3698,8.8691,51.5149,-0.1447,-0.3574,-0.0973,131.12
18:43:04:720,0.8726,-0.0843,9.8782,51.2894,-0.2166,-0.4878,-0.233,131.08
18:43:04:739,0.4877,-0.0059,10.9083,50.9605,-0.1335,-0.3601,-0.3305,131.14
18:43:04:759,0.1103,-0.0211,10.9845,50.9916,0.048,0.0477,-0.332,131.29
18:43:04:779,-0.0522,0.0755,9.5967,50.7384,0.1976,0.4134,-0.274,131.51
18:43:04:799,0.0163,0.3597,7.8962,50.6493,0.213,0.4592,-0.2283,131.76
18:43:04:819,0.1689,0.5662,6.9474,50.587,0.1997,0.251,-0.2197,132.03
18:43:04:839,0.243,0.7232,6.6284,50.1433,0.1427,0.0094,-0.2384,132.33
18:43:04:860,0.222,0.7881,6.9764,50.2432,0.0698,-0.0854,-0.2645,132.64
18:43:04:884,0.1574,0.7447,7.5144,50.0725,0.0208,-0.022,-0.29,132.95
18:43:04:900,-0.0193,0.6065,8.007,49.9959,-0.0153,0.0855,-0.2826,133.26
18:43:04:920,-0.1638,0.6387,8.3357,49.942,-0.0105,0.136,-0.2352,133.56
18:43:04:940,-0.0881,0.7655,8.589,49.749,0.0246,0.1392,-0.1931,133.88
18:43:04:960,-0.0952,0.8804,8.6286,49.5594,0.0214,0.1334,-0.1564,134.19
18:43:04:980,-0.1629,1.0409,8.8873,49.5211,-0.0068,0.1526,-0.1,134.45
18:43:05:001,-0.2239,1.2995,9.2833,49.5977,0.0219,0.1872,-0.0222,134.67
18:43:05:019,-0.1916,1.5814,9.3857,49.5632,0.0794,0.2218,0.0847,134.85
18:43:05:039,0.0111,2.0326,9.3782,49.3223,0.1055,0.1909,0.212,134.94
18:43:05:097,0.4698,2.3656,9.7334,49.1967,0.1151,0.0621,0.2753,134.94
18:43:05:097,0.7854,2.3674,10.4703,49.2899,0.1284,-0.1258,0.2178,134.85
18:43:05:099,0.6743,1.7564,11.4226,49.377,0.1002,-0.2211,0.0768,134.63
18:43:05:119,-0.1348,0.4731,12.2762,49.2527,0.0294,-0.0992,0.0219,134.35
18:43:05:139,-0.9875,-0.7067,12.7594,49.2943,-0.0308,0.0967,0.1598,134.13
18:43:05:159,-1.1083,-0.9761,12.8556,49.391,-0.0159,0.2452,0.3669,134.04
18:43:05:179,-0.8418,-0.6545,12.1148,49.2765,-0.0499,0.3847,0.4377,133.98
18:43:05:200,-0.8834,-0.4544,11.5665,49.4651,-0.1245,0.2659,0.394,133.76
18:43:05:220,-1.3011,-0.6433,11.8576,49.6174,-0.0819,0.0344,0.3977,133.31
18:43:05:241,-1.4527,-0.9775,11.7325,49.624,0.0837,0.0679,0.4925,132.84
18:43:05:260,-1.2265,-0.8474,10.2713,49.5963,0.1678,0.3234,0.6224,132.43
18:43:05:281,-0.672,-0.274,8.5536,49.6321,0.1779,0.4075,0.6809,131.92
18:43:05:299,-0.3154,0.3653,7.0511,50.0047,0.0719,0.2265,0.6048,131.27
18:43:05:321,-0.1489,0.6669,6.4219,50.1371,-0.1809,-0.161,0.4414,130.53
18:43:05:339,-0.234,0.3981,7.4138,50.2671,-0.3693,-0.5874,0.279,129.8
18:43:05:360,-0.6954,-0.1639,8.9852,50.4843,-0.4359,-0.8392,0.2231,129.26
18:43:05:381,-0.9359,-0.4078,10.5837,50.5014,-0.3874,-0.6853,0.2748,128.9
18:43:05:399,-0.9203,-0.3038,11.1166,50.7383,-0.1942,-0.2781,0.3387,128.67
18:43:05:419,-0.701,-0.0714,9.9046,51.1224,-0.0052,0.0844,0.3818,128.38
18:43:05:439,-0.2131,0.0934,8.1187,51.3847,0.0166,0.2084,0.3892,127.93
18:43:05:459,0.1879,0.3564,7.2342,51.6397,-0.035,0.0072,0.3408,127.42
18:43:05:479,0.2966,0.4766,7.6015,51.9505,-0.0398,-0.3159,0.2631,126.95
18:43:05:499,0.2711,0.3607,8.4441,52.17,0.0432,-0.4154,0.2141,126.56
18:43:05:520,0.3333,0.2875,8.6501,52.3195,0.0831,-0.2036,0.1859,126.23
18:43:05:540,0.4915,0.4645,8.2106,52.5373,0.0512,-0.0013,0.1492,125.93
18:43:05:559,0.6595,0.7018,7.8744,52.8953,-0.0121,-0.013,0.0587,125.63
18:43:05:580,0.5551,0.7356,8.2273,53.0934,-0.0585,-0.1168,-0.0313,125.39
18:43:05:599,0.1938,0.6374,9.1149,53.3122,-0.0297,-0.145,-0.0568,125.23
18:43:05:620,0.016,0.5724,9.7641,53.4904,0.0496,0.0429,-0.0254,125.19
18:43:05:639,0.0422,0.6771,9.7769,53.6628,0.0608,0.3053,0.0038,125.23
18:43:05:659,0.2914,0.9166,9.9771,53.6695,0.0624,0.3394,-0.0579,125.24
18:43:05:679,0.2056,0.8499,10.1313,53.8945,0.0581,0.1685,-0.1793,125.21
18:43:05:699,-0.1497,0.2997,10.5978,54.1129,0.0049,-0.0566,-0.2698,125.2
18:43:05:719,-0.4737,-0.6009,11.5593,54.2608,0.0043,-0.1402,-0.224,125.3
18:43:05:739,0.0021,-1.2869,11.5677,54.3545,0.0091,0.0312,-0.1489,125.56
18:43:05:760,0.2218,-1.2721,10.624,54.3901,-0.1862,0.1675,-0.1617,125.89
18:43:05:780,0.0881,-0.9652,10.4893,54.468,-0.4449,0.0067,-0.1926,126.11
18:43:05:800,-0.3222,-0.823,11.5063,54.3859,-0.512,-0.2637,-0.2165,126.3
18:43:05:820,-0.604,-0.8627,12.4459,54.3545,-0.3379,-0.3127,-0.1335,126.58
18:43:05:840,-0.2322,-0.7599,12.3236,54.3695,-0.0984,-0.1477,-0.0196,126.87
18:43:05:859,0.4184,-0.5018,11.3442,54.293,0.0922,-0.0061,0.0278,127.08
18:43:05:881,1.4145,-0.3733,10.242,54.0726,0.1555,-0.0263,-0.0632,127.14
18:43:05:899,1.9242,-0.3885,9.5726,54.1907,0.0799,-0.153,-0.2937,127.08
18:43:05:921,1.5383,-0.486,9.6936,54.1194,-0.0377,-0.3015,-0.513,127.04
18:43:05:939,0.9065,-0.7916,10.1813,54.1664,-0.0627,-0.3169,-0.6238,127.15
18:43:05:959,0.2294,-1.0257,10.1562,53.9694,0.0176,-0.1732,-0.5716,127.54
18:43:05:981,-0.0642,-0.9092,9.4193,54.0258,0.13,0.0221,-0.4199,128.13
18:43:06:000,0.0855,-0.4458,8.2852,54.0269,0.1864,0.1632,-0.2714,128.8
18:43:06:019,0.52,0.1274,7.3222,53.8884,0.1784,0.1717,-0.2155,129.38
18:43:06:039,0.7559,0.5368,6.9187,53.8035,0.1513,0.1164,-0.2511,129.83
18:43:06:059,0.7079,0.6656,6.7453,53.8167,0.1332,0.0621,-0.3081,130.14
18:43:06:079,0.5769,0.6566,6.6849,53.5918,0.1044,0.0381,-0.3459,130.41
18:43:06:100,0.2615,0.4772,6.8292,53.3649,0.0427,0.0557,-0.3395,130.71
18:43:06:120,-0.0237,0.3732,7.2453,53.4153,-0.0292,0.0807,-0.2533,131.07
18:43:06:140,0.0583,0.4962,7.8015,53.2867,-0.0686,0.0887,-0.1702,131.48
18:43:06:159,0.2105,0.6772,8.4522,52.9674,-0.0947,0.1307,-0.1473,131.88
18:43:06:179,0.2487,0.7946,9.1385,52.8904,-0.1085,0.2681,-0.1548,132.17
18:43:06:199,0.1066,0.8031,9.4887,52.9243,-0.0728,0.4224,-0.1425,132.36
18:43:06:220,-0.2349,0.7917,9.4654,52.8301,-0.0148,0.4746,-0.067,132.5
18:43:06:239,-0.4326,0.9936,9.4651,52.6633,0.0427,0.4943,0.0746,132.64
18:43:06:259,-0.2222,1.322,9.562,52.6558,0.0735,0.4959,0.1683,132.78
18:43:06:280,0.1216,1.5106,9.6349,52.5657,0.0821,0.3767,0.1523,132.84
18:43:06:299,0.2915,1.3055,9.7953,52.3502,0.0629,0.0333,0.0672,132.75
18:43:06:319,0.1086,0.8449,10.6939,52.4056,0.0006,-0.3148,-0.0276,132.58
18:43:06:339,-0.1247,0.2608,12.0148,52.4794,-0.0542,-0.2472,-0.0718,132.49
18:43:06:359,-0.345,-0.13,12.4747,52.3424,-0.0915,0.1414,-0.0739,132.51
18:43:06:380,-0.7466,-0.0095,12.0224,52.1328,-0.1804,0.4405,-0.035,132.54
18:43:06:399,-1.0373,-0.0478,11.5998,52.0499,-0.2341,0.3378,-0.0105,132.54
18:43:06:420,-1.1666,-0.396,11.7259,51.7982,-0.2432,0.0312,0.08,132.58
18:43:06:440,-1.0284,-0.5506,12.331,51.5979,-0.2043,-0.1508,0.204,132.66
18:43:06:459,-0.9015,-0.6548,12.7818,51.4572,-0.043,-0.0699,0.3083,132.75
18:43:06:479,-0.7495,-0.9674,12.0333,51.5061,0.2066,0.1946,0.4276,132.69
18:43:06:499,-0.5932,-1.0077,9.7954,51.2635,0.2923,0.3554,0.5292,132.39
18:43:06:519,-0.3054,-0.7775,7.838,51.1665,0.1859,0.1707,0.5521,131.91
18:43:06:540,-0.0982,-0.6646,7.1402,50.9201,-0.0366,-0.2829,0.4999,131.36
18:43:06:561,0.0161,-0.6977,8.0954,50.7502,-0.2379,-0.6587,0.4307,130.83
18:43:06:580,-0.1322,-0.6533,9.7562,50.3809,-0.2517,-0.6459,0.3615,130.36
18:43:06:600,-0.3074,-0.7268,10.2242,50.3325,-0.1442,-0.2392,0.3195,129.93
18:43:06:620,-0.4594,-0.5247,8.805,50.187,-0.0957,0.2106,0.3211,129.42
18:43:06:639,-0.0898,-0.0925,7.7956,49.9345,-0.1458,0.2564,0.2551,128.88
18:43:06:659,-0.0496,0.1333,7.6657,49.4388,-0.1687,-0.054,0.1135,128.4
18:43:06:679,-0.4205,-0.0526,8.685,49.189,-0.108,-0.4117,0.0283,128.04
18:43:06:699,-0.6386,-0.357,9.5826,48.8818,0.0411,-0.3893,0.0432,127.83
18:43:06:719,-0.5457,-0.3681,9.338,48.6217,0.1438,-0.0976,0.0964,127.75
18:43:06:739,-0.1229,0.0099,8.4827,48.4977,0.1294,0.143,0.1082,127.66
18:43:06:759,0.2922,0.3898,7.9979,48.3841,0.0821,0.1866,0.0139,127.52
18:43:06:781,0.3279,0.4646,7.9208,48.0352,0.0491,0.0871,-0.1016,127.35
18:43:06:800,0.0354,0.378,8.3007,47.7166,0.0554,-0.0673,-0.1559,127.24
18:43:06:820,-0.2131,0.3311,8.8959,47.4589,0.0725,-0.1029,-0.1537,127.25
18:43:06:840,-0.4513,0.4008,9.4152,47.4122,0.0906,0.0221,-0.1026,127.4
18:43:06:860,-0.3578,0.7,9.4781,47.1873,0.1167,0.1941,-0.0563,127.58
18:43:06:879,-0.0795,1.1297,9.2006,46.968,0.122,0.2037,-0.101,127.73
18:43:06:899,0.0744,1.1786,9.1666,46.742,0.0565,0.0163,-0.2261,127.8
18:43:06:919,-0.1275,0.7581,10.1175,46.3355,-0.0052,-0.2483,-0.299,127.86
18:43:06:939,-0.2088,0.1078,11.4592,46.0406,0.0182,-0.3947,-0.3092,128.04
18:43:06:960,-0.1973,-0.5247,12.2979,45.7714,0.0581,-0.3569,-0.2251,128.37
18:43:06:981,0.6064,-0.8326,12.3426,45.4514,0.1113,-0.1615,-0.1415,128.74
18:43:07:003,1.4211,-0.5879,11.2108,45.1721,0.0113,0.0344,-0.2219,129.07
18:43:07:019,1.6396,-0.204,10.4287,44.709,-0.208,-0.0311,-0.4236,129.27
18:43:07:039,1.1246,-0.2299,10.8609,44.4025,-0.3635,-0.1508,-0.6137,129.41
18:43:07:059,0.3702,-0.5043,11.7326,44.0032,-0.3108,-0.0982,-0.6589,129.73
18:43:07:080,-0.2614,-0.865,11.5879,43.7092,-0.0883,0.0381,-0.5705,130.27
18:43:07:099,-0.4358,-1.0625,10.422,43.2894,0.1103,0.11,-0.414,130.95
18:43:07:154,0.008,-1.1133,9.1658,42.7914,0.1614,0.0887,-0.315,131.62
18:43:07:155,0.458,-1.3325,8.2425,42.4802,0.057,-0.1514,-0.3411,132.22
18:43:07:162,0.4477,-1.3985,8.8722,42.0358,-0.1436,-0.3931,-0.3762,132.69
18:43:07:183,0.2467,-1.3471,10.1316,41.4925,-0.2709,-0.4452,-0.405,133.13
18:43:07:199,-0.1342,-1.2006,11.3633,41.029,-0.2347,-0.2605,-0.3672,133.62
18:43:07:219,-0.2186,-1.0559,11.6316,40.586,0.0118,0.0935,-0.2522,134.08
18:43:07:239,0.057,-0.6236,10.0701,40.0306,0.2646,0.4358,-0.1346,134.48
18:43:07:260,0.404,0.0477,7.8556,39.6353,0.2982,0.4485,-0.0904,134.76
18:43:07:281,0.7158,0.4227,6.8086,39.3624,0.2338,0.2292,-0.1356,134.93
18:43:07:300,0.6432,0.5434,6.8082,39.1012,0.1571,0.0674,-0.1926,135.08
18:43:07:319,0.3891,0.5157,7.1872,38.6151,0.1145,0.0541,-0.2144,135.26
18:43:07:339,0.1585,0.4818,7.338,38.4405,0.097,0.0988,-0.2011,135.47
18:43:07:359,-0.018,0.5179,7.2874,38.2288,0.0581,0.0951,-0.1676,135.7
18:43:07:379,0.0465,0.6626,7.4967,37.8579,0.0017,0.0168,-0.1447,135.94
18:43:07:399,0.3274,0.9524,8.2607,37.5978,0.0054,-0.095,-0.1537,136.18
18:43:07:419,0.5972,1.1552,8.9705,37.5946,0.0874,-0.1232,-0.2405,136.4
18:43:07:440,0.3271,1.0593,9.2107,37.3172,0.0847,0.0094,-0.3081,136.6
18:43:07:459,-0.2659,0.882,9.5707,37.0007,0.04,0.1903,-0.2405,136.76
18:43:07:479,-0.6633,0.9606,10.0498,36.7052,0.098,0.3016,-0.0574,137
18:43:07:500,-0.6095,1.2179,10.0173,36.6774,0.1997,0.3884,0.1364,137.34
18:43:07:519,-0.263,1.5621,9.4856,36.3056,0.2082,0.3852,0.2311,137.56
18:43:07:539,-0.1246,1.6037,9.3376,36.0222,0.155,0.2037,0.2434,137.58
18:43:07:560,-0.1108,1.1033,9.7958,35.8796,0.0954,-0.0375,0.2359,137.42
18:43:07:580,-0.3367,0.3198,10.4057,35.6735,0.0219,-0.2014,0.2945,137.21
18:43:07:600,-0.4347,-0.2981,11.0092,35.3302,-0.083,-0.2105,0.4009,137
18:43:07:620,-0.3003,-0.3841,11.49,35.2305,-0.2075,-0.0518,0.5095,136.79
18:43:07:640,0.1191,-0.0706,11.7136,35.1251,-0.3055,0.1776,0.5005,136.48
18:43:07:660,0.2141,0.1711,11.4578,35.1578,-0.3481,0.2095,0.3621,135.99
18:43:07:682,-0.152,-0.198,11.398,34.918,-0.3789,-0.1072,0.2024,135.4
18:43:07:700,-0.817,-0.9129,12.2993,34.8188,-0.3667,-0.3212,0.1694,134.83
18:43:07:719,-1.4382,-1.61,13.2181,34.8182,-0.158,-0.0673,0.2955,134.49
18:43:07:740,-1.3368,-1.7082,12.0635,34.9893,0.1821,0.4331,0.5431,134.31
18:43:07:760,-0.5735,-0.9764,9.0654,35.0926,0.2976,0.5757,0.6724,134
18:43:07:779,0.2845,-0.1798,7.1168,35.129,0.1348,0.2489,0.5601,133.46
18:43:07:800,0.7017,0.1331,6.9812,34.9975,-0.1548,-0.2504,0.2966,132.79
18:43:07:819,0.2633,-0.1531,8.7789,35.2737,-0.2996,-0.6496,0.0634,132.14
18:43:07:839,-0.183,-0.7005,10.4423,35.2159,-0.2698,-0.5485,-0.0616,131.69
18:43:07:860,-0.6389,-0.9851,11.0443,35.4424,-0.1729,-0.0156,-0.0499,131.48
18:43:07:880,-0.7357,-0.7512,10.1414,35.4186,-0.0457,0.4464,0.0097,131.36
18:43:07:900,-0.3982,-0.404,8.8398,35.5681,0.0331,0.6221,0.0214,131.27
18:43:07:919,-0.3268,-0.0948,7.8136,35.4097,0.0294,0.4906,-0.0148,131.19
18:43:07:939,-0.4341,0.0948,7.5348,35.22,0.0608,0.1488,-0.0276,131.14
18:43:07:960,-0.3089,0.2264,7.65,35.1571,0.1518,-0.1391,-0.0377,131.16
18:43:07:980,-0.1438,0.4047,7.5517,35.1368,0.196,-0.2999,-0.068,131.26
18:43:08:000,0.2217,0.6631,7.5571,34.8654,0.1369,-0.334,-0.174,131.33
18:43:08:019,0.0822,0.5134,8.0418,34.8566,0.0102,-0.235,-0.2932,131.4
18:43:08:039,-0.5016,0.2464,8.8208,34.8493,-0.0601,-0.1136,-0.2937,131.5
18:43:08:059,-1.0064,0.1084,9.4958,35.0443,0.0176,-0.0556,-0.1899,131.7
18:43:08:079,-1.196,0.1356,9.6001,34.742,0.1385,-0.0412,-0.0531,132.02
18:43:08:100,-1.0259,0.4215,9.4979,34.8445,0.171,-0.0188,0.0746,132.32
18:43:08:119,-0.7218,0.791,9.6515,34.9835,0.1837,0.0328,0.1353,132.51
18:43:08:139,-0.6377,1.0923,9.6229,34.8789,0.1848,0.0764,0.1422,132.55
18:43:08:159,-0.6242,1.1624,9.6699,35.1694,0.1411,-0.0273,0.1263,132.45
18:43:08:181,-0.579,1.0118,10.3979,35.3904,0.0927,-0.2568,0.0959,132.29
18:43:08:200,-0.5205,0.5628,11.7385,35.3362,0.1273,-0.5155,0.08,132.16
18:43:08:219,-0.4624,0.0469,12.6603,35.3878,0.1518,-0.5176,0.1273,132.08
18:43:08:241,0.1163,-0.2928,12.8302,35.4708,0.1603,-0.1706,0.1923,132.02
18:43:08:259,0.6181,-0.2056,11.6506,35.8515,0.0682,0.1478,0.146,131.93
18:43:08:279,0.5179,-0.152,10.6023,35.9804,-0.116,0.1648,0.0469,131.71
18:43:08:300,-0.1271,-0.3853,10.5481,36.1551,-0.2506,0.0237,-0.0068,131.44
18:43:08:319,-0.795,-0.7821,11.1831,36.4273,-0.1878,-0.0731,0.0869,131.3
18:43:08:339,-0.8355,-1.0682,11.1311,36.4385,0.0065,-0.0529,0.287,131.31
18:43:08:360,-0.055,-0.8832,10.324,36.4746,0.1699,-0.0162,0.4675,131.33
18:43:08:380,1.2995,-0.4436,9.4427,36.6208,0.245,-0.0353,0.4616,131.18
18:43:08:401,2.3775,0.0177,8.7227,36.7624,0.2221,-0.0854,0.2018,130.81
18:43:08:420,2.4135,0.1175,8.1763,36.8045,0.056,-0.1381,-0.2059,130.26
18:43:08:440,1.5174,-0.1841,8.6277,36.9656,-0.0952,-0.1849,-0.5152,129.74
18:43:08:460,0.4123,-0.6764,8.973,36.9984,-0.1463,-0.1274,-0.6131,129.56
18:43:08:479,-0.4446,-0.9075,9.0924,37.2675,-0.1202,0.0046,-0.5035,129.84
18:43:08:499,-0.7318,-0.692,8.8271,37.4651,-0.0446,0.0807,-0.3028,130.43
18:43:08:519,-0.4891,-0.1938,8.4391,37.6557,0.0086,0.0668,-0.1441,131.1
18:43:08:539,0.0332,0.3362,8.2668,37.7254,0.0283,0.094,-0.0957,131.64
18:43:08:560,0.3464,0.7198,8.048,37.8084,0.04,0.1408,-0.1282,131.98
18:43:08:580,0.3345,0.9039,7.8447,37.9808,0.0496,0.152,-0.1798,132.14
18:43:08:599,0.2391,0.9682,7.7036,38.1278,0.0512,0.1824,-0.2059,132.23
18:43:08:620,0.2305,1.0629,7.6613,38.1888,0.0485,0.1898,-0.2192,132.37
18:43:08:640,0.2184,1.1447,7.7547,38.4191,0.0176,0.1797,-0.2437,132.57
18:43:08:660,0.2001,1.2047,8.0469,38.215,-0.0223,0.1632,-0.2873,132.8
18:43:08:681,-0.0129,1.002,8.536,38.2631,-0.068,0.1818,-0.3129,133.06
18:43:08:700,-0.4264,0.7875,9.0932,38.2002,-0.092,0.2372,-0.2442,133.34
18:43:08:720,-0.7179,0.7028,9.6815,38.3942,-0.0467,0.251,-0.1031,133.68
18:43:08:740,-0.7336,0.8031,10.0615,38.4948,0.0725,0.3059,0.08,134.02
18:43:08:760,-0.4627,1.1874,9.7646,38.6072,0.1513,0.4358,0.2306,134.29
18:43:08:780,-0.0431,1.5599,9.1434,38.5848,0.1353,0.4831,0.2796,134.36
18:43:08:800,0.2295,1.6073,8.8248,38.7293,0.0709,0.2824,0.2199,134.21
18:43:08:820,0.0437,1.1331,9.2812,38.6459,-0.0446,-0.0683,0.1507,133.93
18:43:08:842,-0.4131,0.3027,10.5283,39.0164,-0.101,-0.1663,0.1944,133.67
18:43:08:860,-0.719,-0.3261,10.8396,39.1532,-0.1436,0.0227,0.3701,133.52
18:43:08:880,-0.439,-0.3185,10.4244,39.3951,-0.2661,0.2111,0.5393,133.39
18:43:08:900,-0.2075,-0.0326,10.2725,39.7447,-0.4726,0.0605,0.5921,133.14
18:43:08:920,-0.0555,0.1169,11.5807,39.9119,-0.602,-0.1594,0.5511,132.7
18:43:08:940,0.1007,0.2929,13.0522,40.0147,-0.5498,-0.1014,0.393,132.17
18:43:08:960,-0.2356,0.0914,13.3542,40.273,-0.4199,0.0477,0.212,131.58
18:43:08:980,-0.7877,-0.5599,13.2957,40.4613,-0.2166,-0.0486,0.1369,130.92
18:43:09:000,-1.1975,-1.4258,13.2495,40.7853,0.0954,-0.1093,0.1981,130.4
18:43:09:021,-0.9179,-1.7519,11.9364,40.8554,0.3482,0.0935,0.3365,130.12
18:43:09:039,-0.3199,-1.3051,9.8453,41.039,0.3913,0.242,0.3701,129.89
18:43:09:059,0.1215,-0.7894,8.1652,41.2613,0.2391,0.1062,0.2295,129.54
18:43:09:079,0.009,-0.6684,7.9333,41.3519,0.015,-0.1956,0.0544,129.11
18:43:09:100,-0.3837,-0.8149,8.9545,41.5236,-0.0499,-0.3845,-0.0292,128.76
18:43:09:120,-0.6449,-0.9219,9.4289,41.7792,0.0246,-0.3063,-0.0206,128.63
18:43:09:139,-0.6958,-0.8361,8.9197,42.0447,0.097,-0.129,0.0411,128.63
18:43:09:206,-0.4672,-0.4492,7.8536,42.1277,0.1087,-0.1093,0.0858,128.62
18:43:09:206,-0.1626,-0.1592,7.2108,42.2606,0.0613,-0.3212,0.0677,128.58
18:43:09:206,0.1265,0.0254,7.3156,42.5669,0.0357,-0.5916,0.0374,128.52
18:43:09:219,0.5269,0.1369,7.4381,42.8706,0.0656,-0.8301,-0.0025,128.48
18:43:09:239,0.7916,0.1847,7.7359,43.0674,0.0704,-0.8849,-0.0712,128.47
18:43:09:259,0.6462,0.2361,8.1471,43.3537,0.0001,-0.6496,-0.1591,128.47
18:43:09:280,0.3072,0.2915,8.5604,43.6402,-0.1011,-0.2956,-0.2432,128.48
18:43:09:300,-0.1158,0.1491,9.0554,43.9793,-0.1548,0.086,-0.2703,128.52
18:43:09:320,-0.5444,0.051,9.1996,44.1712,-0.1032,0.2681,-0.1857,128.64
18:43:09:340,-0.604,0.3588,9.172,44.6084,0.0176,0.1818,-0.0489,128.84
18:43:09:360,-0.1532,0.8675,9.1724,45.0526,0.0922,0.0466,0.0022,129.11
18:43:09:380,0.2941,1.3188,9.5315,45.4072,0.0927,0.0142,-0.0579,129.32
18:43:09:400,0.2908,1.4567,9.9492,45.4417,0.057,0.1132,-0.1841,129.39
18:43:09:420,0.0263,1.2573,10.3177,45.5811,0.0176,0.275,-0.2581,129.39
18:43:09:440,-0.3045,0.9602,10.4589,45.789,-0.0164,0.4043,-0.2575,129.44
18:43:09:460,-0.7915,0.6329,10.4676,45.8676,-0.0196,0.3809,-0.1782,129.63
18:43:09:479,-0.8941,0.2273,10.323,45.9908,-0.0058,0.1909,-0.0473,129.9
18:43:09:500,-0.3962,-0.4038,10.3024,46.1655,-0.0286,-0.055,0.0885,130.21
18:43:09:520,0.0268,-1.3648,10.3554,46.1361,-0.1846,-0.1466,0.1673,130.45
18:43:09:541,-0.1137,-1.7565,10.7746,46.1655,-0.4513,-0.1689,0.3104,130.57
18:43:09:560,0.1588,-1.4371,11.7877,46.1469,-0.5748,-0.1647,0.3871,130.52
18:43:09:580,0.1193,-0.9042,12.4151,46.5718,-0.5056,-0.1014,0.3482,130.39
18:43:09:601,-0.1203,-0.8241,12.3149,46.7227,-0.3049,0.0306,0.3243,130.06
18:43:09:620,-0.0678,-0.8121,11.5775,46.8536,-0.0201,0.1531,0.3615,129.58
18:43:09:640,0.4024,-0.571,10.1344,46.8982,0.1885,0.1978,0.3019,129.1
18:43:09:660,1.0094,-0.3148,8.8022,47.0638,0.164,0.1419,0.0773,128.64
18:43:09:680,1.1721,-0.1573,8.2753,47.2296,-0.0622,-0.0034,-0.2996,128.18
18:43:09:700,0.4952,-0.5423,9.187,47.583,-0.2341,-0.227,-0.6413,127.86
18:43:09:719,-0.6111,-1.2846,10.3378,47.6335,-0.2549,-0.2323,-0.7579,127.86
18:43:09:740,-1.7853,-1.8843,10.9711,47.7532,-0.1506,-0.0018,-0.5743,128.29
18:43:09:760,-2.111,-1.7468,10.513,47.5898,0.0725,0.2803,-0.2469,129.02
18:43:09:779,-1.3616,-0.9457,8.6421,47.5401,0.1933,0.4703,0.0283,129.8
18:43:09:800,-0.4266,-0.0541,7.1464,47.5944,0.1529,0.4432,0.1316,130.35
18:43:09:820,0.2123,0.4303,6.5085,47.7751,0.0964,0.1914,0.1311,130.58
18:43:09:840,0.6805,0.8066,6.647,47.6767,0.0805,-0.0912,0.1305,130.58
18:43:09:860,1.194,1.2335,6.9428,47.6803,0.0879,-0.2525,0.0523,130.52
18:43:09:880,1.476,1.3822,7.4298,47.6623,0.0544,-0.2312,-0.1234,130.45
18:43:09:900,1.1514,1.0413,7.9634,47.705,-0.0223,-0.0918,-0.2847,130.33
18:43:09:920,0.4205,0.6791,8.4826,47.8654,-0.0851,-0.0327,-0.3379,130.26
18:43:09:940,-0.1215,0.3018,9.3619,47.873,-0.0744,-0.0545,-0.2905,130.38
18:43:09:959,-0.5274,-0.0239,10.2464,47.9978,0.0309,0.0317,-0.1532,130.71
18:43:09:980,-0.6279,0.0287,10.4256,48.1385,0.1582,0.176,0.0209,131.09
18:43:10:000,-0.2649,0.3879,10.0668,48.0284,0.2492,0.3309,0.1406,131.38
18:43:10:020,0.0464,0.9039,9.45,48.2165,0.2742,0.4288,0.1901,131.49
18:43:10:039,0.3946,1.2773,8.9404,48.1045,0.2705,0.4038,0.1811,131.42
18:43:10:059,0.5753,1.3902,8.6679,48.2041,0.2199,0.2558,0.1076,131.24
18:43:10:079,0.4864,1.1286,9.0015,48.3546,0.1129,0.0296,0.0038,131.04
18:43:10:100,-0.1464,0.4936,10.1034,48.3904,0.0235,-0.1716,-0.0547,130.89
18:43:10:121,-0.7569,-0.2703,11.4435,48.7943,0.0043,-0.1226,0.0315,130.85
18:43:10:140,-0.76,-0.7486,11.8634,48.809,0.0347,0.1371,0.1843,130.91
18:43:10:160,-0.5154,-0.4337,11.0886,48.7744,-0.0265,0.3468,0.287,130.97
18:43:10:180,-0.2109,0.0249,10.84,48.9703,-0.1506,0.3224,0.2945,130.86
18:43:10:200,0.0585,0.1542,11.1707,48.9404,-0.1718,0.2622,0.1901,130.62
18:43:10:219,-0.014,-0.1031,10.7251,49.1591,-0.2325,0.1776,-0.0063,130.34
18:43:10:240,-0.9321,-0.559,11.0149,49.1718,-0.3912,-0.1844,-0.1292,130.03
18:43:10:260,-1.7826,-1.4818,12.4607,49.0273,-0.3448,-0.4319,-0.1037,129.85
18:43:10:279,-2.3397,-2.3022,13.2812,49.0466,-0.0228,-0.2334,0.1593,129.99
18:43:10:301,-1.7467,-2.2831,11.4523,48.9414,0.3264,0.2175,0.4329,130.17
18:43:10:320,-0.887,-1.4936,8.3309,49.1286,0.2625,0.2979,0.5149,130.14
18:43:10:340,-0.3599,-0.8662,6.9274,49.026,-0.0281,-0.1242,0.4425,129.74
18:43:10:360,-0.1144,-0.6527,8.0396,49.0555,-0.24,-0.6065,0.3557,129.25
18:43:10:380,0.0087,-0.5006,9.4273,49.1757,-0.232,-0.7614,0.2955,128.85
18:43:10:401,0.2368,-0.3391,10.0585,49.2393,-0.15,-0.5613,0.2844,128.5
18:43:10:420,0.5052,0.0451,9.8479,49.3353,-0.0409,-0.2552,0.271,128.1
18:43:10:439,0.5817,0.4841,8.976,49.4519,0.0166,-0.0566,0.1885,127.67
18:43:10:460,0.418,0.5663,8.4994,49.3385,0.0299,-0.0811,0.0704,127.22
18:43:10:479,-0.0101,0.2183,8.6081,49.2518,0.0576,-0.1525,0.0081,126.84
18:43:10:501,-0.4813,-0.1148,8.8742,49.2973,0.1177,-0.1636,0.0336,126.63
18:43:10:520,-0.7868,-0.4009,8.9819,49.5245,0.1944,-0.1152,0.1172,126.55
18:43:10:540,-0.7125,-0.3786,8.7986,49.4106,0.2343,-0.005,0.2061,126.52
18:43:10:560,-0.3995,-0.0506,8.4979,49.2718,0.2268,0.1094,0.2146,126.45
18:43:10:580,-0.1532,0.1924,8.2784,49.2672,0.1938,0.1637,0.1428,126.28
18:43:10:601,-0.1109,0.2451,8.2881,49.33,0.1726,0.1387,0.0587,126.02
18:43:10:620,-0.219,0.286,8.5327,49.4048,0.1896,0.0551,-0.0009,125.77
18:43:10:639,-0.3183,0.297,8.803,49.6527,0.2386,-0.0045,-0.0201,125.62
18:43:10:660,-0.2436,0.3892,9.0707,49.5502,0.2721,0.0477,-0.0366,125.57
18:43:10:679,-0.1167,0.7015,9.1501,49.4241,0.2849,0.1015,-0.1,125.57
18:43:10:701,0.2522,0.7305,9.2497,49.3687,0.2125,0.1653,-0.2352,125.58
18:43:10:720,0.0839,0.4647,9.496,49.4342,0.0581,0.1659,-0.3523,125.6
18:43:10:740,-0.3913,-0.0406,10.2687,49.2818,-0.0356,0.0605,-0.3746,125.72
18:43:10:762,-0.783,-0.6518,11.0979,49.2856,-0.0675,0.0354,-0.2533,126.03
18:43:10:780,-0.3752,-0.9667,11.3896,49.0278,-0.0686,0.1675,-0.0893,126.49
18:43:10:801,0.4234,-0.7376,10.8257,48.9634,-0.2017,0.2638,-0.0526,126.92
18:43:10:820,1.0366,-0.4145,10.3799,48.6859,-0.462,0.2122,-0.1974,127.18
18:43:10:840,0.3587,-0.4746,11.0171,48.6782,-0.7276,-0.0518,-0.3512,127.3
18:43:10:860,-0.8615,-1.0944,12.7672,48.5936,-0.6286,-0.3377,-0.2756,127.43
18:43:10:879,-1.4374,-1.5626,13.6976,48.4293,-0.265,-0.2323,0.0358,127.79
18:43:10:901,-0.4544,-1.4434,12.646,48.3122,0.1741,0.168,0.3238,128.22
18:43:10:920,1.1272,-0.7797,10.0267,48.3602,0.3887,0.3485,0.3142,128.41
18:43:10:940,2.1482,-0.4671,7.9704,48.0307,0.3471,0.0951,0.0347,128.16
18:43:10:960,2.1818,-0.2892,7.3822,48.001,0.064,-0.236,-0.3416,127.7
18:43:10:980,1.3253,-0.6205,8.5914,47.7452,-0.1394,-0.4074,-0.6355,127.41
18:43:11:001,0.0241,-1.1195,9.2492,47.4512,-0.1058,-0.4617,-0.6626,127.52
18:43:11:020,-0.7995,-1.2649,9.3232,47.132,0.0278,-0.4734,-0.4678,128
18:43:11:039,-0.7966,-0.8041,8.8733,46.8206,0.1529,-0.4282,-0.2469,128.72
18:43:11:059,-0.3309,-0.1155,8.3278,46.616,0.163,-0.3052,-0.1234,129.44
18:43:11:079,0.1904,0.4351,8.2205,46.2706,0.1284,-0.1487,-0.1346,129.92
18:43:11:099,0.4857,0.7488,8.4249,46.1328,0.1406,0.0413,-0.2144,130.17
18:43:11:119,0.4081,0.7627,8.266,45.8234,0.1688,0.1898,-0.2783,130.27
18:43:11:140,0.2459,0.7874,7.9499,45.6852,0.1704,0.234,-0.2873,130.38
18:43:11:160,0.1565,0.8583,7.8002,45.3889,0.1364,0.2255,-0.2628,130.59
18:43:11:180,0.2619,1.0918,7.855,45.4317,0.0975,0.1797,-0.2474,130.9
18:43:11:200,0.3859,1.2548,8.1091,45.1766,0.0517,0.136,-0.2724,131.24
18:43:11:268,0.4141,1.2774,8.5663,44.993,0.0219,0.0924,-0.299,131.56
18:43:11:268,0.2556,1.1701,9.153,44.5832,0.023,0.0754,-0.2943,131.86
18:43:11:269,-0.0728,1.0588,9.6792,44.4586,0.0592,0.143,-0.1963,132.19
18:43:11:278,-0.1271,1.1131,9.9682,44.0645,0.1678,0.2617,-0.0313,132.53
18:43:11:299,0.1781,1.4722,9.5307,43.7809,0.2577,0.3719,0.1007,132.85
18:43:11:319,0.4842,1.7644,8.7317,43.4012,0.2274,0.3309,0.1343,133.02
18:43:11:340,0.5599,1.5806,8.7015,43.1267,0.139,0.0844,0.113,133.01
18:43:11:360,0.3246,0.8909,9.4555,42.6963,0.0666,-0.2483,0.1295,132.9
18:43:11:380,0.004,-0.0106,10.1643,42.5388,0.0368,-0.5112,0.2583,132.82
18:43:11:401,0.1967,-0.5972,10.5805,42.4372,0.0049,-0.7119,0.451,132.79
18:43:11:420,0.7577,-0.4372,10.9024,42.3952,-0.1394,-0.763,0.5766,132.71
18:43:11:440,1.1404,0.3211,12.0288,42.0742,-0.2847,-0.6544,0.5489,132.49
18:43:11:460,1.0434,0.6727,13.0694,42.048,-0.2719,-0.2653,0.3477,132.03
18:43:11:480,0.3598,0.2407,12.3111,41.9421,-0.2831,0.1781,0.1561,131.39
18:43:11:501,-0.6361,-0.5553,11.5399,41.8224,-0.4007,0.0887,0.1444,130.67
18:43:11:520,-1.2287,-1.3661,12.5398,41.6462,-0.2868,-0.3478,0.3115,130.17
18:43:11:539,-1.0029,-1.8755,13.3438,41.5181,0.1092,-0.3334,0.5202,130.03
18:43:11:559,-0.2403,-1.6386,11.3525,41.3723,0.3796,0.1866,0.6352,129.95
18:43:11:579,0.5374,-0.8855,8.495,41.1342,0.2865,0.5289,0.5409,129.51
18:43:11:599,0.6865,-0.3326,6.8526,41.0635,-0.0297,0.4613,0.2897,128.75
18:43:11:621,0.1844,-0.4459,7.1016,41.096,-0.3214,0.0791,0.1012,127.96
18:43:11:640,-0.385,-0.7799,8.5647,40.8352,-0.3044,-0.4287,0.1018,127.41
18:43:11:663,-0.4979,-0.6651,9.5442,40.8039,-0.1676,-0.6795,0.1726,127.22
18:43:11:679,-0.1423,-0.5089,10.1141,40.7783,-0.0547,-0.5304,0.2178,127.21
18:43:11:699,0.1741,-0.1862,10.0618,40.7988,0.04,-0.1929,0.2327,127.11
18:43:11:719,0.5207,0.0851,9.3369,41.0096,0.1358,0.0578,0.2003,126.84
18:43:11:739,0.7191,0.2969,8.3683,41.2302,0.2055,0.1424,0.1279,126.49
18:43:11:759,0.7522,0.2564,7.6833,41.1984,0.213,0.1387,0.0666,126.15
18:43:11:779,0.5666,0.1216,7.3088,41.1229,0.1465,0.1153,0.0613,125.89
18:43:11:800,0.5391,0.3142,7.3762,41.1977,0.0634,0.0706,0.0842,125.74
18:43:11:819,0.7357,0.6669,7.7621,41.2911,0.0235,0.0184,0.0283,125.68
18:43:11:839,0.6961,0.8355,8.1398,41.3375,-0.0058,0.0115,-0.0744,125.64
18:43:11:859,0.3968,0.8499,8.5522,41.3154,-0.0308,0.0546,-0.1202,125.56
18:43:11:879,0.1901,0.9601,8.8545,41.4128,-0.0244,0.0642,-0.1106,125.53
18:43:11:899,0.1753,1.0556,9.1993,41.2825,0.0038,0.02,-0.0893,125.61
18:43:11:920,0.1632,1.1673,9.5441,40.9862,0.0347,-0.0082,-0.059,125.75
18:43:11:940,0.3075,1.2431,9.8718,41.0468,0.0501,0.0344,-0.0478,125.88
18:43:11:960,0.3835,1.2786,10.2388,40.8762,0.0038,0.0908,-0.0744,125.98
18:43:11:980,0.3232,1.011,10.897,40.6681,-0.0345,0.16,-0.0861,126.04
18:43:12:000,0.1115,0.5953,11.2193,40.4211,-0.0127,0.2063,-0.0308,126.09
18:43:12:021,0.0486,0.3053,11.043,40.24,0.0411,0.1408,0.0688,126.17
18:43:12:039,0.4909,-0.0031,10.6867,40.1854,0.0341,0.044,0.1268,126.26
18:43:12:059,1.1723,-0.2222,10.3322,39.9928,-0.1213,-0.0699,0.0597,126.3
18:43:12:079,1.5066,-0.4041,10.576,39.7615,-0.4119,-0.2584,-0.1649,126.24
18:43:12:099,0.7006,-0.9291,12.2177,39.7194,-0.5716,-0.4053,-0.3682,126.15
18:43:12:119,-0.5925,-1.6997,13.5033,39.6938,-0.438,-0.2962,-0.3241,126.17
18:43:12:140,-1.1892,-2.1472,13.6184,39.9399,-0.0377,0.0195,-0.0143,126.41
18:43:12:160,-0.2037,-1.7189,11.7197,39.9946,0.3647,0.3144,0.2551,126.78
18:43:12:179,1.3392,-0.906,9.3847,40.0595,0.5026,0.3447,0.2247,127
18:43:12:200,2.3171,-0.4168,7.7743,40.2004,0.3796,0.0876,-0.0824,126.89
18:43:12:219,2.1632,-0.3265,7.6494,40.1742,0.0544,-0.1301,-0.487,126.57
18:43:12:240,1.1293,-0.8237,9.0413,40.0908,-0.1601,-0.1466,-0.7611,126.39
18:43:12:260,-0.1749,-1.3737,9.778,40.2093,-0.1495,0.0099,-0.7499,126.59
18:43:12:279,-0.9775,-1.4846,9.6426,40.1276,-0.0313,0.2005,-0.5205,127.19
18:43:12:300,-0.972,-1.0205,8.7252,40.2291,0.0469,0.3293,-0.2517,128.03
18:43:12:320,-0.4428,-0.3131,7.7618,40.1183,0.0458,0.2862,-0.0829,128.83
18:43:12:340,-0.0611,0.2526,7.3227,40.0135,0.0389,0.1515,-0.0249,129.39
18:43:12:360,0.2083,0.598,7.2468,39.9162,0.0464,0.0594,-0.0318,129.69
18:43:12:380,0.2777,0.7431,7.2091,39.9829,0.0405,0.0408,-0.0643,129.82
18:43:12:400,0.3071,0.7995,7.2646,40.0093,0.0203,0.0461,-0.084,129.87
18:43:12:420,0.3054,0.9062,7.4778,40.1037,-0.0015,0.0466,-0.0994,129.91
18:43:12:440,0.3489,1.0027,7.8483,40.2318,-0.0281,0.0434,-0.1175,129.99
18:43:12:460,0.3875,1.13,8.3607,40.4498,-0.0515,0.0397,-0.141,130.09
18:43:12:480,0.34,1.2225,8.8847,40.1359,-0.0744,0.053,-0.1591,130.21
18:43:12:500,0.2569,1.2543,9.6165,40.1514,-0.0627,0.094,-0.134,130.35
18:43:12:519,0.1453,1.3419,10.3353,40.2151,0.0256,0.2233,-0.0552,130.51
18:43:12:540,0.2358,1.5396,10.4945,40.2375,0.1779,0.4315,0.031,130.69
18:43:12:560,0.6189,1.4501,9.7279,40.1523,0.2274,0.5827,0.0198,130.79
18:43:12:580,0.5311,1.1863,9.5793,40.1312,0.1417,0.58,-0.0371,130.78
18:43:12:600,-0.0597,0.7569,10.0685,40.1346,0.0368,0.3091,-0.0808,130.7
18:43:12:620,-0.9313,-0.0846,11.2721,39.9031,-0.0137,0.0083,0.0342,130.7
18:43:12:645,-1.02,-0.6138,12.2768,39.7521,0.0006,0.053,0.2801,130.82
18:43:12:660,-0.6358,-0.4008,12.0036,39.9713,-0.0276,0.1563,0.4398,130.99
18:43:12:681,-0.079,-0.1407,11.7913,39.9369,-0.0819,0.0748,0.4536,130.94
18:43:12:702,0.1039,-0.0909,11.811,39.9988,-0.1197,-0.0444,0.3514,130.6
18:43:12:720,-0.1939,-0.3268,12.0572,39.9639,-0.1154,-0.1375,0.2631,130.13
18:43:12:739,-0.6734,-0.537,12.2803,40.0814,-0.0808,-0.1551,0.2578,129.65
18:43:12:759,-0.8847,-0.72,12.4073,40.2824,0.0267,-0.0971,0.3083,129.26
18:43:12:779,-0.6357,-1.0673,11.8548,40.5997,0.2471,0.0472,0.3706,128.96
18:43:12:800,-0.2757,-0.9112,9.7587,40.7992,0.3514,0.2095,0.3812,128.62
18:43:12:820,0.0934,-0.6482,7.7563,41.0817,0.2247,0.1339,0.2615,128.18
18:43:12:840,-0.0161,-0.5921,6.9133,41.1971,-0.0345,-0.2169,0.1002,127.69
18:43:12:860,-0.4411,-0.7947,8.0357,41.2798,-0.1979,-0.5991,0.0219,127.3
18:43:12:880,-0.5676,-0.9775,9.4431,41.6338,-0.2171,-0.6592,0.0193,127.14
18:43:12:900,-0.5399,-0.8615,10.3163,41.9928,-0.1516,-0.3462,0.0629,127.15
18:43:12:920,-0.3226,-0.5246,9.9941,42.1776,-0.0276,0.0434,0.0714,127.15
18:43:12:940,-0.1143,-0.1765,8.7456,42.2358,0.0416,0.2287,0.0491,127.05
18:43:12:960,0.0451,0.0385,7.7995,42.4328,0.0379,0.1584,-0.0025,126.86
18:43:12:980,0.0768,0.0821,7.7022,42.5453,0.0437,-0.0146,-0.0723,126.73
18:43:12:999,-0.11,-0.0988,7.9497,42.7786,0.0815,-0.1008,-0.1031,126.69
18:43:13:019,-0.1897,-0.1583,8.0135,43.1128,0.1156,-0.0428,-0.0765,126.72
18:43:13:039,-0.0339,0.0195,7.7801,43.5309,0.0826,0.0754,-0.084,126.81
18:43:13:059,0.0772,0.2265,7.6296,43.6653,-0.0212,0.1398,-0.1324,126.91
18:43:13:079,0.0157,0.3095,7.8478,43.9027,-0.1048,0.0743,-0.1846,126.98
18:43:13:100,-0.3232,0.3064,8.3668,44.2737,-0.1314,-0.0864,-0.1894,127.09
18:43:13:120,-0.5514,0.2657,9.061,44.7103,-0.1149,-0.2083,-0.126,127.27
18:43:13:140,-0.6807,0.268,9.5927,44.8399,-0.1037,-0.17,-0.0143,127.52
18:43:13:160,-0.4881,0.6106,9.9102,45.2269,-0.0994,-0.0604,0.0874,127.76
18:43:13:180,-0.2564,1.0458,9.8756,45.2803,-0.0872,0.0328,0.1252,127.9
18:43:13:199,-0.0808,1.3094,9.737,45.2802,-0.0739,0.0386,0.1199,127.89
18:43:13:219,0.0369,1.4636,9.7082,45.5688,-0.0739,-0.021,0.089,127.77
18:43:13:240,0.0312,1.3903,9.86,45.8259,-0.0984,-0.1327,0.0453,127.62
18:43:13:260,-0.1595,1.0511,10.2463,45.8636,-0.1207,-0.2499,0.0469,127.49
18:43:13:335,-0.065,0.4278,10.7483,45.9098,-0.1165,-0.3409,0.0949,127.42
18:43:13:335,0.3402,0.0215,11.2263,45.9237,-0.0952,-0.3707,0.1587,127.4
18:43:13:336,1.2339,-0.0071,11.3248,45.9776,-0.0558,-0.2743,0.1193,127.36
18:43:13:339,1.8785,0.1369,10.647,46.1725,-0.1106,-0.0449,-0.1505,127.24
18:43:13:359,1.5811,0.0762,9.8819,46.5769,-0.3257,0.0983,-0.5184,127.02
18:43:13:379,0.6113,-0.5707,10.3382,46.9197,-0.5035,-0.0029,-0.8117,126.84
18:43:13:399,-0.9098,-1.4521,11.4748,47.0209,-0.5115,-0.1658,-0.8553,127.03
18:43:13:420,-2.1296,-2.1467,12.7793,47.3477,-0.3188,-0.1296,-0.5897,127.68
18:43:13:440,-2.0893,-2.2465,12.9555,47.7493,0.0719,0.1478,-0.174,128.64
18:43:13:461,-0.7398,-1.5408,10.8837,48.0052,0.3429,0.3985,0.0863,129.57
18:43:13:480,0.6409,-0.7701,8.9271,48.2823,0.3626,0.3852,0.0421,130.11
18:43:13:499,1.0895,-0.4861,7.7873,48.5123,0.1736,0.176,-0.1894,130.21
18:43:13:520,0.4698,-0.6392,8.0006,48.6679,-0.0803,-0.0327,-0.3427,130.12
18:43:13:539,-0.3512,-0.9152,9.4083,48.7931,-0.1181,-0.1173,-0.307,130.18
18:43:13:560,-0.7705,-0.8805,9.9685,48.8933,0.0145,0.0163,-0.142,130.5
18:43:13:580,-0.565,-0.4837,9.324,49.0238,0.1294,0.1957,0.007,130.92
18:43:13:600,-0.0953,0.0556,8.3199,49.078,0.1513,0.2489,0.0539,131.21
18:43:13:620,0.163,0.4588,7.8637,49.1049,0.1523,0.1227,0.0187,131.31
18:43:13:640,0.1571,0.5555,7.9087,49.0792,0.1529,0.0227,-0.0425,131.29
18:43:13:660,-0.0131,0.5271,7.9363,48.9931,0.1401,0.0796,-0.0813,131.26
18:43:13:680,-0.2501,0.5036,7.725,49.0738,0.1262,0.1238,-0.0888,131.27
18:43:13:700,-0.2823,0.4623,7.5667,49.2483,0.0906,0.1015,-0.092,131.3
18:43:13:720,-0.3163,0.353,7.6682,49.4773,0.0374,0.0397,-0.0914,131.39
18:43:13:740,-0.3729,0.2308,8.0649,49.5784,-0.0196,-0.0124,-0.0771,131.51
18:43:13:760,-0.4909,0.1313,8.5909,49.7252,-0.0691,-0.0321,-0.0515,131.64
18:43:13:779,-0.6581,0.0125,9.1374,49.8882,-0.0904,0.0227,0.006,131.77
18:43:13:799,-0.7982,0.0539,9.512,50.0909,-0.0856,0.1659,0.0964,131.88
18:43:13:819,-0.8505,0.2556,9.6019,50.4451,-0.0462,0.291,0.2247,131.93
18:43:13:839,-0.2595,0.5653,9.5021,50.9599,-0.0079,0.3953,0.3381,131.89
18:43:13:860,0.279,1.1098,9.2022,51.047,-0.0074,0.3847,0.36,131.74
