Time,Acc_X,Acc_Y,Acc_Z,Meg,Gyr_X,Gyr_Y,Gyr_Z,Ore
18:38:01:040,0.4884,0.8452,10.0452,81.0101,0.1404,-0.1584,0.0055,212.83
18:38:01:060,0.5354,0.942,9.895,81.0481,0.2575,-0.1456,0.0076,212.83
18:38:01:080,0.455,0.9393,9.5822,80.9204,0.3033,-0.1456,0.0156,72.11
18:38:01:101,0.4964,1.0508,9.3591,80.8095,0.2666,-0.1169,0.0284,72.16
18:38:01:119,0.6053,1.1745,9.3535,80.7552,0.1681,-0.0471,0.0119,72.23
18:38:01:140,0.6361,1.2093,9.4728,80.7424,0.0978,0.0476,-0.0163,72.26
18:38:01:159,0.4926,1.1299,9.3778,80.7443,0.0909,0.0934,-0.0307,72.32
18:38:01:180,0.4153,1.1081,9.2559,80.8953,0.1042,0.0849,-0.0185,72.38
18:38:01:199,0.5203,1.2724,9.4084,80.9396,0.1399,0.1099,-0.028,72.45
18:38:01:220,0.4794,1.3277,9.4092,80.9214,0.1745,0.1663,-0.0744,72.47
18:38:01:240,0.1031,1.071,9.3686,81.0222,0.175,0.2494,-0.0754,72.52
18:38:01:260,-0.574,1.0541,9.2571,80.9967,0.1063,0.4303,0.1588,72.66
18:38:01:280,-0.2898,1.4676,9.0771,81.0301,0.0398,0.5671,0.2807,72.81
18:38:01:300,-0.3881,1.8948,8.9763,80.7955,-0.0145,0.5687,0.3131,72.62
18:38:01:319,-0.339,2.1731,9.3057,80.6939,-0.0443,0.4676,0.2919,72.24
18:38:01:340,0.0944,2.3086,9.7869,80.4109,-0.0374,0.3798,0.1338,71.78
18:38:01:360,0.0394,2.1982,9.948,80.0201,-0.0432,0.3638,-0.0754,71.32
18:38:01:382,-0.4851,1.9172,9.6375,79.8939,-0.0523,0.3153,-0.1659,70.99
18:38:01:401,-1.0946,1.6276,9.2819,79.5948,-0.0917,0.2094,-0.1457,70.91
18:38:01:419,-1.5042,1.4929,9.3223,79.3005,-0.1481,0.0987,-0.0595,70.98
18:38:01:441,-1.6677,1.3522,9.5365,79.1298,-0.1476,-0.0014,0.0592,71.09
18:38:01:461,-1.426,1.3076,9.6866,78.8752,-0.1013,-0.0823,0.1774,71.15
18:38:01:481,-0.8715,1.4511,9.7625,79.0307,-0.0704,-0.1446,0.1971,71.12
18:38:01:501,-0.5797,1.4994,9.924,78.7944,-0.0592,-0.1584,0.1183,70.98
18:38:01:521,-0.6985,1.2383,9.9864,78.7642,-0.023,-0.0966,0.0763,70.82
18:38:01:541,-0.7621,1.1102,9.6369,79.0005,0.0291,-0.0003,0.1359,70.76
18:38:01:561,-0.4702,1.4163,9.1476,78.9421,0.0739,-0.0386,0.1641,70.76
18:38:01:581,0.0032,1.7453,9.0605,79.0314,0.117,-0.1493,0.0736,70.65
18:38:01:601,-0.0636,1.7642,9.3479,78.9504,0.1974,-0.202,-0.0579,70.5
18:38:01:620,-0.4881,1.5774,9.3123,79.052,0.2586,-0.135,-0.1505,70.46
18:38:01:640,-1.077,1.2909,8.7991,79.1829,0.1431,0.0487,-0.1196,70.58
18:38:01:660,-1.4458,1.3911,8.7782,79.0709,-0.0624,0.1445,-0.0206,70.8
18:38:01:680,-1.0159,1.7149,9.4962,79.2301,-0.1582,0.4128,-0.0174,70.96
18:38:01:701,-1.176,1.5467,9.7825,79.3047,-0.0986,0.5842,0.0167,70.99
18:38:01:719,-1.1092,2.1119,9.4924,79.1159,0.0771,0.515,0.0475,70.96
18:38:01:741,-0.7919,2.4125,9.1098,78.9007,0.3225,0.2201,-0.0664,70.86
18:38:01:760,-0.5534,2.836,8.9633,78.6406,0.3464,0.1269,-0.2724,70.72
18:38:01:781,-0.2038,3.1954,8.9669,78.4336,0.2879,0.169,-0.5199,70.74
18:38:01:799,-0.7477,3.1166,9.0819,78.4614,0.0824,0.2462,-0.6163,70.99
18:38:01:819,-1.4647,2.7477,9.662,78.1004,-0.0975,0.4841,-0.4651,71.5
18:38:01:840,-1.7615,2.5904,9.0868,77.8018,-0.2141,0.5102,-0.1079,72.09
18:38:01:860,-1.0465,1.6394,8.3593,77.6789,-0.3291,0.8179,-0.0249,72.46
18:38:01:880,-1.3224,1.4212,8.3362,77.5432,-0.451,1.1761,-0.1074,72.43
18:38:01:900,-1.8227,2.3466,9.1401,77.1427,-0.4084,0.6614,-0.1446,72.25
18:38:01:920,-1.6186,2.6543,9.8506,76.8228,-0.1258,-0.0514,-0.1175,72.09
18:38:01:939,-0.8462,1.9413,9.322,76.5836,0.0771,-0.5709,-0.2357,72.07
18:38:01:959,-1.0006,1.0191,9.4996,76.594,-0.0533,-0.7024,-0.3347,72.16
18:38:01:979,-1.6658,0.2452,10.1023,76.2437,-0.2493,-0.2074,-0.1856,72.5
18:38:02:000,-1.6722,-0.4104,10.2174,75.9952,-0.4686,0.4144,-0.1505,72.99
18:38:02:019,-2.4268,-0.0264,10.5097,75.9588,-0.394,0.6933,-0.1803,73.24
18:38:02:039,-1.9954,0.9778,9.6193,75.6743,-0.0933,-0.135,-0.0536,73.35
18:38:02:059,-0.7148,2.0065,9.4603,75.4214,0.2043,-1.6377,-0.2559,73.46
18:38:02:081,-0.0911,1.9174,10.5778,75.5478,0.397,-2.9345,-0.4853,73.55
18:38:02:100,-0.736,0.9631,11.8464,75.8641,0.5077,-2.8828,-0.4108,74.12
18:38:02:119,-0.3289,-0.0973,11.943,76.5488,0.0797,-1.478,-0.3017,75.17
18:38:02:139,0.4991,0.0407,11.5334,77.0995,-0.179,-0.1765,-0.1979,76.15
18:38:02:159,0.6853,0.8983,10.4439,77.54,-0.0826,-0.3516,-0.241,76.77
18:38:02:181,0.7975,0.9584,9.6119,78.1927,0.1106,-0.9739,-0.3022,77.04
18:38:02:200,1.0055,0.7833,9.8354,78.8375,0.2703,-1.1182,-0.2713,77.39
18:38:02:220,1.0756,0.4826,9.918,79.7301,0.4002,-0.695,-0.1713,77.92
18:38:02:239,1.272,0.8163,8.5074,80.4374,0.3033,-0.4246,-0.0882,78.44
18:38:02:259,1.5637,1.3289,8.6024,81.0211,0.051,-0.1637,-0.0823,78.78
18:38:02:279,1.2676,0.9364,8.8451,79.7626,-0.0454,-0.1467,-0.0568,78.97
18:38:02:300,0.9329,0.2962,9.3573,78.1609,0.0605,-0.5683,0.1678,79.11
18:38:02:319,1.2977,0.524,9.2043,76.4921,0.1846,-0.9398,0.4143,79.22
18:38:02:339,1.5976,1.3692,8.6782,75.1515,0.1053,-0.7509,0.4271,79.15
18:38:02:360,1.5191,1.496,8.1911,73.663,-0.1449,-0.2824,0.3674,78.88
18:38:02:380,1.5381,1.5004,7.5183,71.9688,-0.4334,-0.1078,0.3722,78.55
18:38:02:400,2.0308,1.4276,8.1161,70.1942,-0.5825,-0.1467,0.3627,78.19
18:38:02:419,2.405,1.0166,9.3033,68.6676,-0.4159,-0.2484,0.3323,77.79
18:38:02:439,2.1937,1.5581,10.1542,67.0766,-0.0006,-0.0929,0.2801,77.41
18:38:02:459,1.9267,2.0926,9.2975,67.1737,0.2644,0.417,0.1055,77.07
18:38:02:480,1.8327,2.2473,7.6587,67.3205,0.2043,0.6071,-0.0616,76.76
18:38:02:500,1.4173,1.9252,7.4754,67.2978,0.0041,0.6108,-0.1106,76.58
18:38:02:519,1.1634,1.7733,7.8223,67.1495,-0.1571,0.6348,-0.035,76.55
18:38:02:540,1.3718,1.9686,8.5126,66.9698,-0.1694,0.5522,0.0156,76.57
18:38:02:559,1.6978,2.2221,9.0061,66.9302,-0.0422,0.457,-0.0195,76.51
18:38:02:586,1.3779,2.2744,9.0787,66.7831,0.0393,0.5395,-0.0153,76.4
18:38:02:598,1.2359,2.3424,9.1495,66.6668,0.0531,0.6906,0.0518,76.34
18:38:02:619,1.2637,2.4551,9.4095,66.5054,0.0483,0.8855,0.0614,76.26
18:38:02:639,1.0411,2.3549,9.0191,66.0605,0.0036,0.8972,0.0316,76.09
18:38:02:659,0.7715,2.1026,9.155,65.9442,-0.039,0.8104,0.0172,75.86
18:38:02:680,0.4093,1.6873,9.3428,65.5168,-0.0161,0.425,0.0427,75.67
18:38:02:699,-0.0298,1.2077,9.5415,65.3938,0.0728,-0.1318,0.1487,75.51
18:38:02:719,0.5793,1.405,10.036,65.3071,0.1851,-0.7083,0.2897,75.38
18:38:02:739,1.22,2.0695,9.7978,65.1815,-0.006,-0.6423,0.2935,75.22
18:38:02:759,1.4473,2.1019,10.3691,65.0103,-0.2413,-0.4799,0.3211,74.99
18:38:02:779,1.752,1.9878,11.0827,65.0279,-0.319,-0.3042,0.2333,74.74
18:38:02:799,1.8215,1.663,11.5757,64.887,-0.2482,-0.1792,-0.0073,74.44
18:38:02:819,0.8115,0.9239,11.2659,65.1278,-0.2801,-0.0093,-0.1478,74.21
18:38:02:839,-0.0568,0.3279,11.9325,65.2597,-0.3243,0.2116,-0.142,74.23
18:38:02:860,-0.6872,-0.1054,12.4946,65.4439,-0.1928,0.4224,-0.0052,74.39
18:38:02:880,-0.7368,-0.1596,11.7235,65.4854,-0.0017,0.4985,0.1295,74.51
18:38:02:899,-0.3181,0.0455,10.5859,65.5725,0.0834,0.3611,0.1566,74.46
18:38:02:919,-0.1288,0.088,10.0579,65.4354,0.1276,0.1567,0.0693,74.25
18:38:02:939,-0.4817,-0.2332,9.7458,65.4821,0.1372,0.0024,0.0268,74.03
18:38:02:959,-1.0615,-0.7138,9.7188,65.3479,0.1234,-0.0807,0.1194,73.93
18:38:02:980,-0.8464,-0.501,9.8064,65.3596,0.0893,-0.0945,0.2652,73.91
18:38:03:057,0.2711,-0.0081,9.5949,65.3387,-0.0033,0.0077,0.2759,73.79
18:38:03:058,0.3791,0.0215,9.6872,64.9193,-0.0879,0.0865,0.1582,73.51
18:38:03:063,-0.1317,-0.014,9.8154,64.7366,-0.1226,0.1695,0.1604,73.21
18:38:03:063,0.0066,0.1538,9.6417,64.6665,-0.0571,0.2584,0.1487,73.03
18:38:03:079,0.4661,-0.0818,9.2393,64.5424,0.1282,0.177,-0.0222,72.84
18:38:03:100,-0.251,0.2205,8.8881,64.5497,0.3464,0.0503,-0.2958,72.65
18:38:03:121,-0.8788,0.9729,9.3804,64.5871,0.7584,0.0386,-0.1776,72.67
18:38:03:141,-0.1888,0.4098,9.0858,64.7111,1.1103,0.0423,-0.1334,73.02
18:38:03:159,-0.4266,0.5806,8.0821,64.6576,1.2402,0.0716,-0.0387,73.23
18:38:03:180,0.1189,1.5974,6.3622,64.3191,0.7526,-0.0296,0.1162,73.39
18:38:03:200,0.931,2.939,5.5982,64.3832,-0.0741,0.2477,0.0262,73.43
18:38:03:220,0.4867,1.7688,6.4601,64.3694,-0.6645,0.3654,-0.0786,73.32
18:38:03:241,-0.0426,1.1586,8.0343,64.1417,-0.6352,-0.0466,-0.0972,73.24
18:38:03:260,-0.4129,1.2853,9.3551,64.0645,-0.1896,-0.473,-0.0131,73.25
18:38:03:280,-0.8535,1.9385,9.4434,64.0454,0.1787,-0.4038,0.1449,73.38
18:38:03:300,-0.2997,2.4639,8.8086,64.1113,0.1883,-0.2154,0.2227,73.49
18:38:03:320,0.693,2.3751,9.1005,63.9534,0.1175,-0.1621,0.1023,73.4
18:38:03:340,0.3658,2.2506,9.4576,64.0433,0.1303,-0.218,-0.0291,73.2
18:38:03:360,-0.1568,2.1715,9.6449,64.1752,0.076,-0.4788,-0.0456,73.11
18:38:03:379,-0.2392,1.7849,10.6996,64.2733,0.0973,-0.6598,0.0704,73.19
18:38:03:400,0.3957,1.7977,11.6628,64.3812,0.3645,-0.6614,0.2227,73.34
18:38:03:421,1.6904,3.0072,10.0664,64.6812,0.3943,-0.5459,0.0784,73.4
18:38:03:441,2.1517,3.1779,8.3206,64.9849,-0.0906,-0.3016,-0.1925,73.28
18:38:03:460,2.8862,2.5227,8.0462,65.0524,-0.7118,-0.1275,-0.3544,73.31
18:38:03:480,2.6024,1.6742,9.7237,64.9531,-1.1132,-0.1776,-0.5758,73.59
18:38:03:501,1.5875,-0.0333,10.9473,65.1314,-1.2463,-0.2776,-0.6338,74.01
18:38:03:521,0.7176,-0.7173,11.6425,64.9911,-1.1217,-0.1887,-0.3868,74.7
18:38:03:540,1.3964,-0.4974,10.7693,65.0152,-0.9248,-0.07,-0.2192,75.47
18:38:03:559,2.1744,0.1205,9.7734,65.0671,-0.8742,-0.0003,-0.3081,75.94
18:38:03:580,2.3595,0.0307,9.3664,64.9936,-0.9498,-0.1371,-0.5359,76.2
18:38:03:600,2.3793,-0.0247,9.5529,64.9396,-0.995,-0.2835,-0.7861,76.55
18:38:03:621,2.2399,-0.8095,8.9035,64.8132,-1.0547,-0.6002,-0.9607,77.18
18:38:03:641,1.8338,-1.5106,10.1883,65.0954,-1.2165,-1.0277,-1.0171,78.11
18:38:03:660,1.149,-2.1199,11.8433,65.3577,-1.1931,-1.099,-0.9996,79.24
18:38:03:680,0.0607,-1.7692,11.4636,65.6918,-1.1686,-0.7285,-0.4316,80.43
18:38:03:700,1.614,-2.6721,9.2201,66.1837,-1.4241,0.2414,0.0598,81.58
18:38:03:719,2.1343,-1.6577,8.8098,66.5479,-1.6839,0.5847,0.1891,82.06
18:38:03:739,2.305,-0.4698,10.2074,66.6931,-1.1829,0.6736,0.1396,82.01
18:38:03:760,2.615,-0.9382,10.3558,66.9597,-0.1917,0.408,-0.0701,81.86
18:38:03:781,2.0198,-1.5364,9.7807,67.2498,0.6967,0.0449,-0.3863,81.8
18:38:03:800,0.6583,-1.3005,8.9919,67.5181,1.1667,-0.1509,-0.2458,81.95
18:38:03:821,0.7267,-1.0652,8.3361,67.5909,1.1098,0.2057,0.1763,82.41
18:38:03:841,1.1596,-0.6629,8.585,67.4282,0.8755,0.6906,0.4303,82.67
18:38:03:860,1.3513,-0.5031,9.2227,67.2995,0.8399,0.8637,0.4068,82.5
18:38:03:881,1.2942,-1.0527,9.6058,66.8886,1.0922,0.7274,0.3595,82.06
18:38:03:900,0.4507,-0.2643,9.5579,66.7033,1.4467,0.6135,0.4345,81.65
18:38:03:921,1.126,0.1901,8.1851,66.5726,1.4654,0.8887,0.4303,81.27
18:38:03:940,1.2783,1.0609,6.6882,66.0761,1.2189,0.9094,0.4154,80.79
18:38:03:959,1.1745,1.7616,5.8858,65.7339,0.7749,0.606,0.2429,80.28
18:38:03:980,0.8178,1.8911,6.4936,65.4368,0.3405,0.6204,0.0497,79.76
18:38:03:999,0.4534,2.041,7.2576,65.0385,0.0893,0.6284,-0.0062,79.44
18:38:04:019,0.5497,2.4021,7.6357,64.8655,-0.0885,0.3792,-0.0653,79.33
18:38:04:039,0.8975,2.4787,8.3334,64.6209,-0.2327,0.1695,-0.2655,79.28
18:38:04:059,0.5039,2.119,9.6029,64.4935,-0.1928,-0.1004,-0.4768,79.31
18:38:04:082,-0.7322,1.2705,10.4257,64.2445,0.1186,-0.7557,-0.5125,79.6
18:38:04:101,-1.2437,0.6271,10.5886,64.0318,0.4039,-1.6111,-0.3554,80.14
18:38:04:122,0.0273,0.6242,11.6188,64.1909,0.4401,-1.6233,-0.069,80.78
18:38:04:141,1.5636,0.9941,11.6359,64.3565,0.1809,-0.7466,0.1114,81.32
18:38:04:160,1.7993,1.1484,11.2852,64.3951,-0.138,-0.0525,0.1534,81.56
18:38:04:180,1.4064,1.0306,10.8431,64.6034,-0.4286,0.376,0.163,81.5
18:38:04:200,0.6655,0.3638,11.4247,64.925,-0.6155,0.5091,0.1859,81.33
18:38:04:220,0.3853,-0.3259,12.3984,64.9125,-0.5851,0.277,0.2221,81.1
18:38:04:239,0.1829,-0.9758,13.417,64.9778,-0.2998,-0.0386,0.2722,80.84
18:38:04:260,0.0354,-1.2636,13.0325,65.3045,0.0371,-0.0956,0.4196,80.57
18:38:04:280,0.3633,-0.8123,11.2772,65.4118,0.1899,0.0833,0.5468,80.24
18:38:04:299,0.6965,-0.1487,9.0184,65.5041,0.1702,0.1195,0.5138,79.79
18:38:04:320,0.3219,-0.0074,8.0861,65.5404,0.0792,-0.1073,0.3792,79.16
18:38:04:339,-0.0117,-0.3961,8.4004,65.558,0.0265,-0.3176,0.3648,78.57
18:38:04:359,0.2933,-0.4446,8.9837,65.4878,-0.0161,-0.3932,0.3478,78.14
18:38:04:380,0.4122,-0.5194,9.5568,65.2805,-0.0517,-0.2984,0.3408,77.75
18:38:04:401,0.3009,-0.4228,9.7889,65.327,-0.0448,-0.1451,0.3515,77.38
18:38:04:423,0.2276,-0.3024,9.5196,65.2814,-0.0177,-0.0269,0.3781,77.01
18:38:04:442,0.0773,-0.2365,8.9604,65.2372,-0.0028,0.0881,0.4585,76.62
18:38:04:460,0.452,0.0582,8.4499,65.0675,-0.0501,0.2254,0.5122,76.19
18:38:04:480,0.7946,0.2224,8.9995,65.0523,0.0222,0.2382,0.4047,75.67
18:38:04:500,0.4184,0.1716,8.8372,65.029,0.3337,0.0263,0.352,75.07
18:38:04:520,-0.0889,0.3069,7.5664,64.9127,0.4779,-0.3341,0.3845,74.6
18:38:04:540,0.5311,0.6354,6.9924,64.9007,0.3496,-0.4123,0.4196,74.2
18:38:04:559,1.0141,0.8769,7.5756,65.0065,0.1835,-0.2547,0.3669,73.78
18:38:04:579,1.0387,0.8108,8.1948,65.2148,0.1138,-0.1296,0.3062,73.33
18:38:04:604,0.8611,0.6864,8.8936,65.3295,0.1484,-0.1307,0.2647,72.93
18:38:04:620,0.6812,0.6203,9.3529,65.1082,0.2261,-0.1201,0.2812,72.6
18:38:04:639,0.7034,0.9319,9.4224,65.3032,0.3006,-0.0716,0.3206,72.31
18:38:04:659,0.7353,1.4651,9.1217,65.1276,0.3257,-0.1227,0.3078,72
18:38:04:679,1.1355,2.0207,8.9877,65.0783,0.2985,-0.268,0.2019,71.64
18:38:04:699,1.201,2.0817,9.2874,65.3355,0.2235,-0.3932,0.0443,71.3
18:38:04:721,1.1079,1.8133,9.7306,65.3938,0.1548,-0.4533,-0.0392,71.09
18:38:04:739,0.9767,1.4196,10.1533,65.6002,0.1393,-0.5598,-0.0387,71.09
18:38:04:761,1.0976,1.3027,10.5243,65.6499,0.1942,-0.7722,-0.0307,71.19
18:38:04:781,1.0718,1.319,10.6363,65.6683,0.2565,-0.8536,-0.0121,71.3
18:38:04:800,1.1187,1.2737,9.9595,65.9886,0.1351,-0.7205,0.0502,71.43
18:38:04:821,1.7865,1.3185,8.944,66.1335,-0.435,-0.5395,0.088,71.55
18:38:04:839,2.9727,0.199,11.3345,66.4534,-1.0994,-0.5757,-0.1345,71.59
18:38:04:859,2.2561,-2.0982,16.2665,66.7505,-0.8492,-0.4927,-0.2128,71.56
18:38:04:880,0.8637,-2.7761,16.9194,66.6855,0.1622,-0.1211,0.1524,71.79
18:38:04:899,1.5309,-1.7387,12.0057,66.9157,0.7787,0.227,0.5591,72.09
18:38:04:920,4.1498,0.2916,7.7568,66.8916,0.6541,0.2265,0.5011,71.93
18:38:04:940,5.3121,1.3072,6.4313,66.935,0.224,-0.0477,0.0055,71.26
18:38:04:959,4.5927,0.491,7.5991,67.2289,-0.1263,-0.2846,-0.3815,70.65
18:38:04:980,3.3757,-0.5006,9.701,67.2242,-0.1305,-0.3905,-0.4896,70.65
18:38:04:999,2.3919,-0.6857,10.2215,67.2335,0.1095,-0.4714,-0.4017,71.14
18:38:05:019,1.7811,-0.1469,9.2664,67.173,0.2006,-0.4698,-0.2197,71.76
18:38:05:039,2.4787,0.6364,8.5608,67.116,0.174,-0.4922,-0.1143,72.3
18:38:05:132,2.9764,1.1358,8.4587,67.0683,0.1787,-0.5284,-0.1915,72.62
18:38:05:132,3.0704,1.2829,8.0462,67.0535,0.2117,-0.5433,-0.2905,72.83
18:38:05:132,2.8471,1.453,7.7874,67.0756,0.2277,-0.5252,-0.3906,73.13
18:38:05:133,2.3255,1.4628,7.5687,66.985,0.2304,-0.4171,-0.4363,73.56
18:38:05:144,1.7713,1.2661,7.357,66.9891,0.1851,-0.2542,-0.4044,74.1
18:38:05:159,1.713,1.1386,7.2028,67.0341,0.1537,-0.2649,-0.3187,74.69
18:38:05:179,2.0727,1.0189,7.4317,67.1101,0.1431,-0.341,-0.316,75.22
18:38:05:199,1.905,0.5871,7.5482,67.2684,0.1287,-0.3069,-0.2868,75.65
18:38:05:219,2.0656,0.6516,7.3246,67.4609,0.0175,-0.1163,-0.2405,76.1
18:38:05:239,1.9343,1.1493,7.9845,67.5914,-0.0496,0.1562,-0.1771,76.5
18:38:05:260,1.8145,1.1638,8.661,67.3953,0.0228,0.2882,0.0497,76.82
18:38:05:279,1.9408,1.2042,8.7695,67.4824,0.1905,0.4351,0.2738,77.01
18:38:05:299,1.9797,1.6606,8.2168,67.6442,0.2565,0.4346,0.4383,76.9
18:38:05:319,2.2342,1.8664,8.3315,67.6086,0.2778,0.2909,0.5341,76.49
18:38:05:339,2.2434,2.1339,8.6965,67.5073,0.4076,0.2291,0.7225,75.9
18:38:05:359,2.5874,2.7627,9.0003,67.3701,0.4305,0.2967,0.8417,75.21
18:38:05:379,3.1271,3.0517,9.2701,67.3688,0.4364,0.3941,0.7661,74.32
18:38:05:399,2.9015,2.8583,9.106,67.2304,0.3959,0.3132,0.6874,73.27
18:38:05:419,2.5599,2.0439,9.7395,67.3206,0.3278,0.3814,0.7337,72.29
18:38:05:440,2.3228,1.5364,11.023,67.3822,0.4337,0.4362,0.8944,71.42
18:38:05:459,2.7045,1.1857,11.4653,67.2178,0.6536,0.557,1.0664,70.49
18:38:05:479,2.6795,1.4411,10.5579,66.969,0.7776,0.4862,1.2676,69.35
18:38:05:499,3.5114,2.17,10.4488,66.8556,0.7079,0.359,1.3017,67.99
18:38:05:519,3.7523,2.2573,10.3426,66.8295,0.5865,0.1844,0.9855,66.41
18:38:05:543,3.2749,1.9243,10.0652,66.8365,0.4593,0.0039,0.7305,64.82
18:38:05:559,2.4781,1.5653,10.2344,66.8798,0.1755,0.2744,0.6096,63.64
18:38:05:579,1.7909,1.268,10.132,66.7651,-0.1784,0.6656,0.5889,62.79
18:38:05:599,1.428,0.9137,10.3629,66.425,-0.4132,0.7428,0.5958,62.03
18:38:05:619,0.7362,0.4668,10.7747,66.3765,-0.3344,0.4809,0.6618,61.19
18:38:05:641,0.4668,0.2623,10.4482,66.291,-0.081,0.1567,0.7997,60.33
18:38:05:659,1.1998,0.3753,9.2197,66.5364,0.0265,-0.0397,0.854,59.47
18:38:05:679,1.6112,1.0194,8.3264,66.495,-0.1704,-0.0061,0.7869,58.52
18:38:05:699,2.0138,1.3346,8.6487,66.4011,-0.4031,-0.0397,0.6767,57.55
18:38:05:719,2.1261,0.9382,9.3336,66.3067,-0.5356,-0.0748,0.59,56.65
18:38:05:740,2.2441,0.5869,10.3694,66.1489,-0.5058,-0.2074,0.5543,55.88
18:38:05:759,2.5631,0.5113,10.9088,66.0054,-0.2615,-0.3037,0.4872,55.22
18:38:05:779,2.6957,0.5315,10.6664,66.0068,0.0297,-0.1371,0.4404,54.62
18:38:05:799,2.8121,0.7915,9.2567,65.9669,0.1931,0.2738,0.3962,54.1
18:38:05:819,2.6956,0.9287,7.9347,66.0221,0.1979,0.6199,0.3206,53.62
18:38:05:841,2.3109,1.0743,6.7701,65.6947,0.1596,0.5315,0.2514,53.12
18:38:05:859,1.8484,1.2479,6.4178,65.4248,0.1393,0.2307,0.1646,52.67
18:38:05:879,1.582,1.2441,6.5799,65.2449,0.1271,-0.0865,0.1343,52.3
18:38:05:899,1.5007,1.1315,6.8388,65.2855,0.0781,-0.1946,0.1396,52.09
18:38:05:919,1.5361,1.2942,7.1054,65.191,-0.0171,-0.2063,0.1433,51.96
18:38:05:944,1.6456,1.2677,7.6377,65.0386,-0.1135,-0.2547,0.1343,51.84
18:38:05:959,1.657,1.2745,8.8772,65.0332,-0.1034,-0.2792,0.0954,51.72
18:38:05:980,1.7237,1.2181,9.6103,65.1144,0.0206,-0.2718,0.0912,51.61
18:38:05:999,1.9489,1.4073,9.6918,65.0608,0.0361,-0.1328,0.0928,51.55
18:38:06:019,2.5833,1.2942,9.8648,65.0609,-0.0768,0.112,0.0715,51.5
18:38:06:041,2.9396,0.7486,11.1111,65.1397,-0.0986,0.2132,0.0299,51.42
18:38:06:060,2.9921,0.3926,11.8602,65.1855,0.0329,0.0103,-0.0057,51.34
18:38:06:081,3.1314,0.1425,12.0189,65.292,0.0962,-0.0658,-0.0297,51.28
18:38:06:099,3.1324,0.193,11.2007,65.333,0.0308,0.0236,-0.0392,51.3
18:38:06:119,2.9893,0.3332,10.18,65.4682,-0.2876,0.0449,-0.0765,51.36
18:38:06:141,2.9759,-0.2335,11.4441,65.4501,-0.5947,-0.0589,-0.1611,51.42
18:38:06:161,2.2272,-1.3058,13.7507,65.3135,-0.4393,-0.0269,-0.1297,51.51
18:38:06:179,1.5245,-1.6244,13.3083,64.9856,0.0222,0.1578,0.1173,51.73
18:38:06:199,1.6457,-1.0159,10.2005,64.8895,0.2511,0.4176,0.4036,51.9
18:38:06:219,2.8162,0.257,7.9013,64.9478,0.1724,0.4873,0.4861,51.76
18:38:06:240,3.7409,1.2115,6.9537,65.0323,0.0467,0.1961,0.2477,51.25
18:38:06:259,3.7238,1.1469,6.9789,64.7805,-0.1278,-0.1504,-0.0941,50.64
18:38:06:280,2.9619,0.4477,7.9673,64.508,-0.319,-0.2499,-0.3022,50.34
18:38:06:301,2.0096,-0.1313,9.291,64.4099,-0.361,-0.1637,-0.3309,50.48
18:38:06:319,1.1309,-0.422,9.9194,64.3245,-0.2226,-0.0668,-0.2149,50.88
18:38:06:341,1.0201,-0.2254,9.7695,64.0478,-0.0395,0.0311,-0.0547,51.3
18:38:06:364,1.0597,0.0605,9.3044,64.1263,0.1452,0.1078,0.0975,51.58
18:38:06:379,1.4657,0.5875,8.3937,63.927,0.2639,0.2201,0.1673,51.65
18:38:06:400,1.5998,1.0737,7.072,63.8071,0.232,0.2797,0.1673,51.54
18:38:06:419,1.6846,1.3868,6.5688,63.5144,0.1159,0.1546,0.1252,51.34
18:38:06:439,2.1123,1.5119,6.9631,63.3551,0.0744,-0.1084,0.0289,51.13
18:38:06:461,2.3492,1.4555,7.392,63.5126,-0.0485,-0.1925,-0.0861,50.99
18:38:06:479,2.0795,0.839,8.4047,63.2394,-0.2359,0.0343,-0.0813,50.98
18:38:06:499,1.9208,0.4108,9.7228,63.2124,-0.237,0.2036,0.0299,51.12
18:38:06:519,2.0331,0.3033,10.1863,63.3018,-0.0735,0.2094,0.1306,51.23
18:38:06:540,2.1983,0.4348,9.8499,63.1788,0.0281,0.211,0.2072,51.19
18:38:06:562,2.4744,0.7345,9.522,63.1707,0.0505,0.2738,0.2551,51.03
18:38:06:579,2.5261,1.048,9.1046,63.1131,0.0744,0.3122,0.27,50.78
18:38:06:600,2.4892,1.3574,8.6034,63.1895,0.093,0.2648,0.2769,50.47
18:38:06:619,2.5499,1.6736,8.3181,63.0729,0.1154,0.1913,0.2572,50.14
18:38:06:639,2.5672,1.8591,8.1917,62.7127,0.0936,0.1674,0.228,49.81
18:38:06:661,2.6064,2.0439,8.2123,62.7398,0.0302,0.1818,0.1811,49.51
18:38:06:679,2.4533,2.098,8.3579,62.5851,-0.0491,0.1567,0.1194,49.23
18:38:06:699,2.1106,1.8103,8.9028,62.511,-0.1103,0.1349,0.1002,49.01
18:38:06:722,1.9645,1.4619,9.5992,62.1093,-0.1018,0.1104,0.1226,48.87
18:38:06:740,1.7458,1.1282,10.1283,61.896,-0.0304,0.1051,0.1811,48.76
18:38:06:759,1.6018,0.9861,10.3264,61.946,0.0494,0.0929,0.2663,48.62
18:38:06:779,1.527,1.1093,10.3736,61.8806,0.1165,0.0646,0.3595,48.4
18:38:06:799,1.4676,1.4961,10.3337,61.7256,0.1495,0.1078,0.4665,48.09
18:38:06:819,1.5615,2.2006,9.8455,61.8938,0.0984,0.0939,0.5208,47.69
18:38:06:840,1.9012,2.418,9.799,61.8519,-0.0783,-0.0381,0.4542,47.15
18:38:06:861,2.0669,1.7755,10.5186,61.7388,-0.3046,-0.1366,0.3179,46.55
18:38:06:882,1.8872,0.5223,11.887,61.5357,-0.4451,-0.1275,0.1918,46.04
18:38:06:900,1.6902,-0.9081,13.5472,61.6137,-0.3163,0.0013,0.1529,45.7
18:38:06:919,1.5627,-1.7334,14.0713,61.7085,0.1138,0.2467,0.1934,45.5
18:38:06:939,1.5327,-1.9596,11.9999,61.3347,0.5269,0.524,0.3126,45.34
18:38:06:959,2.3108,-1.1524,9.1736,61.1002,0.594,0.5831,0.2924,45.12
18:38:06:979,4.4506,0.2966,7.869,61.2795,0.5019,0.2004,-0.2096,44.73
18:38:06:999,3.6438,0.1826,7.788,61.0841,0.3337,-0.3633,-0.8755,44.36
18:38:07:019,0.927,-1.4859,8.1896,61.0684,0.0127,-0.4826,-0.8856,44.6
18:38:07:039,0.1767,-1.9622,9.362,61.085,-0.237,-0.3101,-0.48,45.67
18:38:07:061,0.8177,-1.6739,10.4175,61.1009,-0.1848,-0.2239,-0.1601,46.76
18:38:07:079,1.4576,-1.0682,10.437,61.2253,0.0515,-0.2249,0.0108,47.37
18:38:07:099,1.4768,-0.6408,9.5784,61.0705,0.167,-0.0796,0.1673,47.6
18:38:07:119,1.4075,-0.2123,8.6817,61.1514,0.1915,0.1221,0.3493,47.63
18:38:07:196,1.5672,0.4025,7.8335,61.0703,0.2293,0.1104,0.4382,47.47
18:38:07:196,1.6111,0.8633,6.995,60.9637,0.2219,-0.0365,0.4366,47.07
18:38:07:196,1.6838,1.193,6.6902,60.885,0.1159,-0.1387,0.3712,46.56
18:38:07:199,1.5043,1.2812,7.0358,60.7239,0.0228,-0.202,0.2732,46.08
18:38:07:219,1.2336,1.2412,7.3457,60.5117,-0.0783,-0.2531,0.2147,45.69
18:38:07:239,1.0567,1.2346,8.0448,60.4908,-0.155,-0.3298,0.1865,45.41
18:38:07:260,1.1226,1.1486,9.1266,60.3522,-0.1108,-0.4432,0.1801,45.21
18:38:07:279,1.3545,1.1527,9.8393,60.4004,0.0579,-0.5603,0.1705,45.05
18:38:07:299,1.4995,1.066,9.8256,60.3372,0.1894,-0.5028,0.1593,44.91
18:38:07:319,1.551,0.964,9.3617,60.4127,0.1729,-0.2563,0.1843,44.79
18:38:07:341,1.7556,1.283,8.8196,60.4656,0.093,-0.0498,0.2227,44.68
18:38:07:360,2.0627,1.7313,8.2786,60.5278,-0.0193,-0.0136,0.1891,44.51
18:38:07:381,2.0553,1.8177,8.3063,60.6314,-0.1241,-0.0961,0.1529,44.28
18:38:07:399,2.1227,1.7747,8.5921,60.7258,-0.1864,-0.1972,0.1636,44.07
18:38:07:419,2.2732,1.7239,9.0011,60.6917,-0.2482,-0.2824,0.2035,43.92
18:38:07:439,2.4894,1.6889,9.7883,60.8539,-0.2625,-0.3165,0.2514,43.77
18:38:07:459,2.7195,1.7759,10.4463,60.8395,-0.2279,-0.2643,0.2828,43.58
18:38:07:479,2.8129,1.8704,10.7712,60.9526,-0.1773,-0.1424,0.3052,43.33
18:38:07:499,2.8707,2.0212,10.4976,61.0698,-0.1651,-0.0578,0.3094,43.04
18:38:07:519,3.1671,1.8197,10.3136,60.936,-0.2407,-0.0876,0.2493,42.71
18:38:07:539,3.6739,0.9818,10.9935,60.9393,-0.2961,-0.1616,0.1731,42.37
18:38:07:559,3.7452,0.2441,11.7442,60.8122,-0.2327,-0.1216,0.146,42.09
18:38:07:579,3.5597,0.099,11.678,60.8627,-0.1316,-0.0338,0.1322,41.92
18:38:07:599,3.5019,-0.0003,11.1165,60.9284,-0.1002,0.0247,0.0613,41.77
18:38:07:620,3.3367,-0.4593,11.0101,60.8621,-0.0592,-0.0019,-0.0563,41.63
18:38:07:640,2.8317,-1.0289,11.121,60.9241,0.0978,-0.0322,-0.1079,41.58
18:38:07:659,2.3707,-1.3081,10.3758,60.7351,0.3023,0.0189,-0.0403,41.66
18:38:07:679,2.5334,-0.8703,8.7865,60.484,0.3677,0.0929,0.015,41.81
18:38:07:699,2.7552,-0.3631,7.326,60.3591,0.1846,0.103,-0.0174,41.88
18:38:07:720,2.8003,-0.1643,7.4901,60.3604,-0.0842,0.0332,-0.0903,41.87
18:38:07:739,2.6697,-0.3354,8.6349,60.5587,-0.1827,-0.0652,-0.1297,41.9
18:38:07:759,2.4614,-0.5436,9.579,60.3853,-0.1124,-0.0498,-0.1127,42.03
18:38:07:779,2.2284,-0.4539,9.605,60.5169,0.0377,0.095,-0.0345,42.2
18:38:07:799,2.1521,-0.0899,8.7588,60.2141,0.1548,0.2334,0.0417,42.36
18:38:07:820,2.2127,0.1849,7.7356,60.082,0.1708,0.3005,0.0858,42.41
18:38:07:841,2.3114,0.4425,7.1626,60.0854,0.1809,0.2813,0.1029,42.37
18:38:07:860,2.4887,0.6049,6.6623,59.8379,0.1788,0.2254,0.1034,42.26
18:38:07:880,2.6489,0.9392,6.3434,59.7935,0.1277,0.2414,0.0752,42.14
18:38:07:900,2.6232,1.1383,6.1641,59.5505,0.0452,0.2728,0.0321,42.02
18:38:07:920,2.4766,1.2755,6.0863,59.2383,-0.0858,0.251,-0.0164,41.91
18:38:07:941,2.2468,1.1819,6.6011,58.991,-0.2327,0.1642,-0.0435,41.87
18:38:07:959,2.1495,1.005,7.6213,58.5067,-0.3184,0.0779,-0.003,41.89
18:38:07:981,2.1806,0.9036,8.8837,58.5122,-0.2955,0.0732,0.072,41.94
18:38:08:000,2.2825,1.0053,9.766,58.3452,-0.163,0.1008,0.162,41.96
18:38:08:019,2.4071,1.2978,10.1604,58.0676,0.001,0.177,0.2471,41.89
18:38:08:039,2.6185,1.7211,10.0195,57.8499,0.1458,0.2478,0.2929,41.71
18:38:08:059,2.8455,2.1043,9.5865,57.7395,0.174,0.2659,0.2796,41.43
18:38:08:079,2.978,2.0587,9.9819,57.5872,0.1585,0.2297,0.2152,41.09
18:38:08:099,2.7355,1.4997,10.6149,57.5617,0.1841,0.1232,0.162,40.76
18:38:08:119,2.3317,0.8313,11.344,57.7286,0.2762,-0.0386,0.1865,40.52
18:38:08:139,2.1542,0.5763,11.0566,57.6071,0.3039,-0.1584,0.2567,40.34
18:38:08:159,2.284,0.3862,10.9162,57.4974,0.142,-0.235,0.294,40.14
18:38:08:183,2.352,-0.0463,11.4699,57.4074,0.002,-0.3026,0.3046,39.87
18:38:08:199,2.3577,-0.8188,12.1941,57.2988,-0.0714,-0.3612,0.335,39.56
18:38:08:219,2.2109,-1.5452,12.723,57.2788,-0.0246,-0.3186,0.4063,39.24
18:38:08:239,1.9475,-1.9212,12.6965,57.2226,0.1857,-0.1855,0.5064,38.89
18:38:08:259,1.6273,-1.6302,11.2357,57.0571,0.4322,-0.0429,0.6474,38.45
18:38:08:280,1.6502,-0.7422,9.2027,56.9312,0.4747,0.1328,0.7395,37.89
18:38:08:299,1.7332,0.1363,7.5833,56.7261,0.3177,0.161,0.6805,37.15
18:38:08:319,1.4971,0.3315,7.089,56.8823,0.0643,-0.0152,0.5836,36.28
18:38:08:339,1.7652,0.3161,8.0207,56.8644,-0.0948,-0.3607,0.4877,35.49
18:38:08:359,2.1802,0.172,9.3599,57.0059,-0.0842,-0.6252,0.3637,34.82
18:38:08:380,2.2767,-0.1076,10.1567,56.935,-0.0767,-0.5406,0.2961,34.29
18:38:08:400,2.2242,-0.2118,10.6528,57.0863,-0.0155,-0.2734,0.302,33.93
18:38:08:419,2.239,-0.1956,10.5208,57.231,0.1197,0.0008,0.3254,33.64
18:38:08:439,2.0237,-0.0698,9.3885,57.3455,0.24,0.1466,0.3525,33.32
18:38:08:459,1.8741,0.1938,8.3355,57.3445,0.3363,0.1402,0.3829,32.95
18:38:08:481,1.8738,0.5431,7.3498,57.1297,0.3874,0.0663,0.3925,32.54
18:38:08:502,1.9428,0.881,6.662,56.9749,0.3289,0.0066,0.3658,32.1
18:38:08:520,1.9707,1.1406,6.4727,56.9702,0.2129,-0.0631,0.3142,31.62
18:38:08:540,2.0551,1.2659,6.6134,56.827,0.0681,-0.1568,0.2386,31.23
18:38:08:560,2.0643,1.2399,7.3077,56.6462,-0.0613,-0.21,0.1779,30.88
18:38:08:580,2.3832,1.2171,8.2508,56.6117,-0.1151,-0.2366,0.1034,30.63
18:38:08:602,2.8226,1.3211,8.9242,56.3752,-0.1012,-0.2505,-0.0345,30.45
18:38:08:619,2.4503,1.1341,9.0944,56.3814,-0.0975,-0.2137,-0.1207,30.37
18:38:08:639,1.9335,0.7589,9.2924,56.2074,-0.09,-0.1179,-0.0632,30.45
18:38:08:659,1.8937,0.7473,9.5932,56.1252,0.0058,-0.0636,0.047,30.64
18:38:08:679,2.212,0.9568,9.2593,55.9457,0.076,-0.0631,0.0885,30.74
18:38:08:700,2.345,1.1325,8.7944,55.7481,-0.0134,-0.0146,0.0944,30.71
18:38:08:720,2.2502,1.0066,9.047,55.6044,-0.1486,-0.0429,0.0896,30.63
18:38:08:739,2.0936,0.5913,9.8383,55.6783,-0.1922,-0.1568,0.1593,30.54
18:38:08:759,2.2618,0.4477,10.6489,55.4906,-0.1225,-0.2377,0.2919,30.45
18:38:08:779,2.9869,0.7867,10.6699,55.5622,-0.0677,-0.2372,0.3877,30.31
18:38:08:801,3.9263,1.2195,10.0376,55.4617,-0.1922,-0.209,0.3712,29.99
18:38:08:820,4.7282,1.235,10.5453,55.592,-0.4999,-0.2068,0.2301,29.56
18:38:08:839,4.6384,0.539,12.7632,55.9033,-0.4637,-0.2856,0.0763,29.15
18:38:08:859,4.0389,-0.1121,14.0159,56.1811,-0.0783,-0.2765,0.0635,28.9
18:38:08:879,4.1089,-0.2388,13.1682,56.3117,0.3065,-0.0908,0.0794,28.84
18:38:08:900,4.097,-0.1981,11.4886,56.6292,0.4992,0.1802,0.0518,28.79
18:38:08:919,4.0019,-0.1602,9.8033,56.8412,0.6206,0.3718,-0.0286,28.71
18:38:08:940,3.7392,-0.0977,7.7311,57.0655,0.5982,0.3771,-0.1553,28.67
18:38:08:959,3.5016,-0.1826,6.2105,56.9516,0.3012,0.2031,-0.3139,28.7
18:38:08:979,2.9582,-0.5995,6.9163,57.0069,-0.0906,0.0476,-0.414,28.88
18:38:09:001,2.4049,-1.122,8.6424,56.9172,-0.254,0.004,-0.4033,29.26
18:38:09:019,1.6714,-1.4252,9.7669,56.7311,-0.2119,0.0939,-0.2335,29.78
18:38:09:039,1.4426,-1.0184,9.8835,56.6674,-0.008,0.1653,0.0071,30.28
18:38:09:059,1.8084,-0.2708,8.6941,56.6325,0.1766,0.1461,0.1987,30.57
18:38:09:079,2.3604,0.4094,7.5583,56.3533,0.24,0.1488,0.2919,30.57
18:38:09:101,2.7223,0.8052,6.7035,56.3221,0.2512,0.2052,0.327,30.34
18:38:09:119,2.6862,1.2458,5.8522,56.3359,0.2017,0.285,0.3249,30
18:38:09:139,2.5036,1.5211,5.4386,56.2995,0.0952,0.3404,0.2839,29.61
18:38:09:160,1.9377,1.6143,5.5998,56.1675,-0.0102,0.3239,0.2376,29.21
18:38:09:180,1.3121,1.6061,5.5715,56.084,-0.1795,0.2483,0.2557,28.86
18:38:09:201,1.298,1.4819,6.091,56.0046,-0.4733,0.1025,0.2801,28.57
18:38:09:266,1.7714,1.162,7.78,55.948,-0.7075,-0.0189,0.2301,28.26
18:38:09:266,1.9521,0.755,10.0579,55.9833,-0.7453,0.0024,0.1843,27.94
18:38:09:266,2.0096,0.3491,11.9888,56.0266,-0.4951,0.1392,0.1998,27.69
18:38:09:279,1.8968,0.1839,12.7829,55.8787,0.0079,0.276,0.2801,27.49
18:38:09:300,1.9546,0.6381,11.5428,55.7962,0.445,0.4085,0.4111,27.26
18:38:09:319,2.4886,1.2943,9.862,55.9057,0.5791,0.4426,0.4393,26.94
18:38:09:339,2.8064,1.7461,9.0014,55.8062,0.5163,0.3542,0.3419,26.46
18:38:09:359,2.6727,1.5512,8.975,55.9638,0.3454,0.2712,0.2296,25.95
18:38:09:380,2.3782,0.9494,9.8138,55.9832,0.2283,0.1791,0.2029,25.55
18:38:09:400,2.1916,0.408,10.8915,55.9328,0.2533,0.128,0.2423,25.28
18:38:09:419,1.797,0.101,11.171,55.9002,0.3294,0.227,0.3925,25.05
18:38:09:440,1.8809,0.4411,10.7035,55.8389,0.2741,0.3644,0.5782,24.78
18:38:09:459,2.3863,0.7301,10.4022,55.8668,0.0963,0.392,0.6171,24.32
18:38:09:479,2.5251,0.6405,10.6575,55.6789,-0.0852,0.2542,0.5463,23.63
18:38:09:499,2.4958,-0.1512,11.5407,55.5577,-0.2077,0.0678,0.4776,22.9
18:38:09:519,2.2642,-1.074,12.9122,55.5866,-0.1252,-0.0067,0.4776,22.26
18:38:09:539,2.2691,-1.6622,13.1546,55.5168,0.1852,0.1312,0.566,21.72
18:38:09:561,2.1494,-1.1708,10.9145,55.6839,0.3726,0.3297,0.623,21.17
18:38:09:579,1.8616,-0.5967,8.6794,55.6688,0.2858,0.3984,0.6001,20.52
18:38:09:600,1.4954,-0.2819,7.4298,55.5479,0.0766,0.2648,0.5245,19.79
18:38:09:620,1.145,-0.4016,7.3742,55.5246,-0.1209,-0.0684,0.4425,19.08
18:38:09:639,0.9471,-0.76,8.5338,55.4925,-0.1358,-0.4107,0.4143,18.44
18:38:09:659,0.8646,-0.9467,9.3175,55.5054,-0.0453,-0.4868,0.4702,17.97
18:38:09:679,1.1605,-0.6812,9.4155,55.4643,0.035,-0.2984,0.5479,17.53
18:38:09:700,1.594,-0.0854,8.7418,55.3852,0.0409,-0.0812,0.5213,17.02
18:38:09:721,1.5845,0.145,8.2423,55.3466,-0.0032,0.0072,0.4308,16.37
18:38:09:739,1.2614,-0.0244,8.4316,55.2401,0.0404,-0.0876,0.3999,15.81
18:38:09:759,1.3417,-0.0198,8.7719,55.0263,0.2118,-0.2015,0.3925,15.32
18:38:09:779,1.6114,0.2266,8.2684,55.0805,0.2805,-0.1578,0.3456,14.87
18:38:09:800,1.4252,0.388,7.7957,54.8689,0.2038,-0.0109,0.2759,14.44
18:38:09:819,1.1872,0.3153,8.3707,54.8847,0.1857,0.0567,0.2264,14.05
18:38:09:839,1.1875,0.2982,8.9141,54.7015,0.3188,-0.0072,0.1747,13.74
18:38:09:859,0.8832,0.5022,8.943,54.6436,0.3917,-0.0354,0.1582,13.49
18:38:09:879,0.8192,0.8398,8.5195,54.6734,0.2821,0.0503,0.1896,13.3
18:38:09:899,1.0107,1.1715,8.5511,54.7011,0.1357,0.1504,0.2131,13.13
18:38:09:919,1.216,1.4134,8.7487,54.5474,0.0415,0.1493,0.2216,12.92
18:38:09:939,1.4074,1.4937,9.0063,54.5947,0.0361,0.0711,0.2546,12.68
18:38:09:959,1.7069,1.6647,9.2653,54.7619,0.084,0.004,0.2897,12.42
18:38:09:979,1.9811,1.9596,9.0525,54.8897,0.0941,0.0098,0.3169,12.13
18:38:10:000,2.3653,2.1667,8.735,54.8505,-0.0171,-0.0141,0.3137,11.81
18:38:10:020,2.569,1.9452,9.5995,54.8533,-0.0741,-0.1573,0.2748,11.45
18:38:10:040,2.7078,1.4293,10.2714,54.6348,-0.0405,-0.333,0.2876,11.1
18:38:10:062,3.3515,1.0496,10.7471,54.5908,0.0159,-0.4187,0.3233,10.8
18:38:10:079,4.113,1.2255,10.1769,54.3957,-0.0724,-0.4277,0.2588,10.5
18:38:10:100,4.7285,1.1362,10.1342,54.2737,-0.4371,-0.5161,0.0427,10.17
18:38:10:120,4.3259,0.2018,12.0008,54.3787,-0.6947,-0.613,-0.1558,9.9
18:38:10:140,3.3724,-1.0565,14.1158,54.1858,-0.6058,-0.5331,-0.1771,9.9
18:38:10:160,2.6861,-1.7754,15.1403,54.1758,-0.0826,-0.276,-0.0563,10.13
18:38:10:180,2.4761,-1.5335,13.011,54.257,0.4769,0.0535,0.1013,10.37
18:38:10:200,2.7501,-0.7716,9.5574,54.2075,0.6392,0.2041,0.0927,10.46
18:38:10:221,2.8222,-0.1867,7.0781,54.5012,0.4253,0.1546,-0.0653,10.35
18:38:10:240,2.3765,-0.305,6.6852,54.5758,0.0324,0.0168,-0.2453,10.24
18:38:10:260,1.5893,-0.8879,7.4304,54.7609,-0.3061,-0.1051,-0.2894,10.33
18:38:10:279,1.0423,-1.4213,8.4858,54.9538,-0.502,-0.1403,-0.1947,10.63
18:38:10:300,0.7304,-1.4227,9.1073,54.8661,-0.5707,-0.0317,0.006,11
18:38:10:319,0.866,-1.0066,9.2013,54.9088,-0.5127,0.1434,0.1987,11.25
18:38:10:339,1.2503,-0.3831,8.6953,54.8246,-0.3759,0.2403,0.3094,11.26
18:38:10:359,1.4939,0.1161,8.0836,54.7348,-0.2332,0.2286,0.3179,11.03
18:38:10:379,1.576,0.3084,7.9722,55.0042,-0.0304,0.1147,0.3174,10.67
18:38:10:400,1.7284,0.5834,7.3243,55.0027,0.1713,-0.054,0.3243,10.31
18:38:10:419,2.143,0.8885,6.4884,55.0239,0.1229,-0.0971,0.3083,9.94
18:38:10:439,2.5855,1.0293,6.9312,54.9416,0.0132,-0.0359,0.2189,9.57
18:38:10:460,2.5699,0.8358,7.2987,55.0448,-0.0586,0.0636,0.1316,9.22
18:38:10:480,2.5339,0.7412,7.7638,55.2424,-0.1161,0.1025,0.064,8.97
18:38:10:500,2.5405,0.5929,8.4812,55.1301,-0.1204,0.1073,0.039,8.82
18:38:10:520,2.5376,0.4699,9.3699,55.1715,-0.0421,0.1488,0.0528,8.76
18:38:10:540,2.5866,0.4724,9.799,54.9853,0.1005,0.1956,0.1199,8.73
18:38:10:559,2.7931,0.6993,9.6231,55.0008,0.2059,0.2361,0.1875,8.68
18:38:10:579,3.0912,1.05,9.4519,54.8783,0.2475,0.2606,0.1981,8.55
18:38:10:599,3.1858,1.2079,9.4818,54.8587,0.2666,0.2409,0.1667,8.34
18:38:10:619,3.1675,1.0189,9.4919,54.8704,0.2634,0.1754,0.097,8.12
18:38:10:639,2.9711,0.4409,9.7977,54.8888,0.2304,0.0886,0.047,7.94
18:38:10:659,2.6376,-0.213,10.5245,54.5429,0.2592,-0.021,0.0677,7.83
18:38:10:679,2.3214,-0.5724,10.7347,54.5496,0.2469,-0.0317,0.1619,7.79
18:38:10:701,2.24,-0.3062,10.8279,54.5694,0.1266,0.1083,0.2956,7.72
18:38:10:719,2.5057,0.156,11.0687,54.6948,-0.0102,0.2041,0.3429,7.54
18:38:10:739,2.5935,0.3044,11.2062,54.6882,-0.1219,0.119,0.2897,7.2
18:38:10:759,2.4655,-0.2359,11.8021,54.7439,-0.2055,-0.0279,0.2051,6.81
18:38:10:779,1.9154,-1.2243,12.7957,54.6499,-0.155,0.0045,0.2274,6.47
18:38:10:800,1.2993,-1.9513,13.1113,54.6309,0.1761,0.1536,0.3999,6.24
18:38:10:819,1.3103,-1.4959,10.7156,54.6691,0.4072,0.2467,0.5724,5.99
18:38:10:841,1.7286,-0.7441,8.45,54.7421,0.3518,0.1754,0.5559,5.52
18:38:10:860,1.6846,-0.5688,7.4093,54.6684,0.1713,-0.0013,0.4542,4.86
18:38:10:880,1.5296,-0.7102,7.5205,54.5659,-0.0038,-0.2888,0.352,4.21
18:38:10:900,1.5057,-1.0456,8.5061,54.6457,-0.0682,-0.482,0.2785,3.69
18:38:10:919,1.408,-1.2214,9.1423,54.5219,-0.0676,-0.4267,0.27,3.29
18:38:10:939,1.4449,-1.1578,9.3341,54.4701,-0.0517,-0.2473,0.3057,2.98
18:38:10:959,1.5704,-0.9412,9.1252,54.2948,-0.0096,-0.127,0.328,2.68
18:38:10:979,1.6979,-0.7191,8.7681,54.2784,0.0798,-0.1163,0.3307,2.33
18:38:10:999,1.8828,-0.4762,8.2774,54.1226,0.1756,-0.1371,0.3318,1.96
18:38:11:021,2.2577,-0.0517,7.7142,54.1819,0.2059,-0.1174,0.3025,1.57
18:38:11:039,2.6877,0.3894,7.2325,54.1553,0.1586,-0.1136,0.1987,1.19
18:38:11:059,2.6263,0.5239,7.3499,54.0354,0.0271,-0.0908,0.0475,1.17
18:38:11:079,2.2754,0.4768,7.9911,54.0157,-0.0474,-0.0402,-0.0472,0.81
18:38:11:099,1.9309,0.448,8.3725,53.9173,-0.0809,-0.0045,-0.0856,0.56
18:38:11:120,1.7493,0.449,8.7197,53.8189,-0.1342,0.0231,-0.0845,0.51
18:38:11:140,1.7591,0.4343,9.4638,54.0793,-0.123,0.0301,-0.0813,0.58
18:38:11:159,1.6441,0.4007,9.9782,54.26,-0.0123,0.0716,-0.052,0.68
18:38:11:179,1.4762,0.4478,9.9505,54.3469,0.1165,0.1461,0.0278,0.79
18:38:11:199,1.703,0.7507,9.818,54.4981,0.2523,0.2116,0.114,0.94
18:38:11:226,2.0621,1.1954,9.3537,54.5542,0.3326,0.235,0.1364,1.07
18:38:11:241,2.328,1.4159,9.1369,54.5411,0.3183,0.2531,0.113,1.1
18:38:11:259,2.3403,1.4042,9.3083,54.5416,0.2203,0.3106,0.0757,0.99
18:38:11:316,2.1811,0.9675,11.0715,54.6193,0.2134,0.1424,0.064,0.67
18:38:11:319,2.3525,0.7613,11.5811,54.5844,0.4104,-0.0285,0.0645,0.6
18:38:11:339,2.651,0.7705,11.0628,54.3538,0.4295,0.0332,0.0741,0.42
18:38:11:359,2.9565,0.9234,10.3389,54.6201,0.1937,0.2073,0.0416,0.3
18:38:11:379,3.0534,0.6803,10.7082,54.6722,-0.1108,0.2776,-0.077,0.27
18:38:11:399,2.4533,-0.0485,11.9933,54.602,-0.148,0.1919,-0.1505,0.21
18:38:11:419,1.8713,-0.7705,12.5787,54.5599,0.0612,0.0753,-0.1047,0.11
18:38:11:440,1.752,-1.0706,12.3458,54.7813,0.3337,0.1552,-0.0126,0.14
18:38:11:459,1.5369,-0.9061,10.7847,54.6156,0.5855,0.3314,0.0826,0.29
18:38:11:479,1.6589,-0.2596,8.5423,54.8983,0.6552,0.3175,0.0944,0.51
18:38:11:500,2.014,0.2721,7.1808,54.9795,0.47,0.1152,-0.0227,0.65
18:38:11:520,2.0901,0.261,7.2323,54.8274,0.0979,-0.0923,-0.199,0.54
18:38:11:539,2.0007,-0.2266,9.0553,54.4321,-0.1374,-0.1562,-0.3102,0.26
18:38:11:560,1.4403,-0.824,10.31,54.6205,-0.1422,-0.0146,-0.2815,0.1
18:38:11:579,1.074,-0.9215,10.6791,54.6452,0.0644,0.2127,-0.1202,0.26
18:38:11:599,1.0493,-0.1375,9.135,54.7137,0.2608,0.3452,0.0177,0.71
18:38:11:619,1.2538,0.7172,7.7365,54.9948,0.3252,0.3766,0.0624,1.19
18:38:11:639,1.2571,1.2922,6.8204,54.9129,0.2549,0.4059,0.0757,1.4
18:38:11:660,1.2626,1.6877,6.696,54.6024,0.1586,0.358,0.0512,1.36
18:38:11:680,1.1094,1.8163,7.1327,54.2862,0.1251,0.2824,0.0326,1.24
18:38:11:699,0.7926,1.8666,7.4222,54.0694,0.1533,0.1871,0.0539,1.06
18:38:11:719,0.8563,1.9901,7.5532,53.8236,0.165,0.1152,0.0896,0.91
18:38:11:740,1.0822,2.0634,7.6089,53.8806,0.1511,0.053,0.1087,0.79
18:38:11:760,1.51,2.1711,7.6987,54.1911,0.0708,0.053,0.0768,0.67
18:38:11:780,1.6734,2.0593,8.0581,53.8667,-0.0389,0.0913,0.014,0.51
18:38:11:800,1.5293,1.7534,8.5821,53.9381,-0.0969,0.1658,-0.0068,0.37
18:38:11:820,1.1373,1.4952,8.9293,53.9537,-0.0942,0.2366,0.0331,0.27
18:38:11:840,0.9138,1.5761,8.8607,53.7867,-0.0538,0.285,0.1013,0.28
18:38:11:860,0.9355,1.8931,8.6898,53.8862,-0.0224,0.2675,0.1566,0.29
18:38:11:880,1.2268,2.2588,8.6255,53.9799,-0.0192,0.202,0.1428,0.25
18:38:11:899,1.3253,2.3779,8.7213,54.1533,-0.1033,0.1717,0.0651,0.08
18:38:11:919,1.088,2.0096,9.2761,54.544,-0.2108,0.1408,0.0118,359.84
18:38:11:940,0.921,1.5122,10.2135,54.6459,-0.238,0.1142,0.0204,359.62
18:38:11:960,0.7296,1.2103,10.7662,54.9007,-0.2273,0.1557,0.0848,359.5
18:38:11:980,1.0715,1.1111,10.9929,55.3355,-0.3019,0.1552,0.1375,359.45
18:38:11:999,1.3119,0.8444,12.0368,55.3896,-0.3524,0.1349,0.1284,359.43
18:38:12:019,1.2066,0.5587,12.6118,55.4997,-0.3381,0.1786,0.1417,359.3
18:38:12:039,1.1588,0.3529,12.5083,55.4426,-0.3593,0.1456,0.1465,359.11
18:38:12:059,1.0519,-0.2629,12.8879,55.4145,-0.3546,0.038,0.1226,358.97
18:38:12:079,0.6753,-1.0967,13.3667,55.2861,-0.1767,-0.046,0.1822,358.77
18:38:12:099,0.4182,-1.4457,12.6387,55.2367,0.1389,-0.0072,0.3632,358.53
18:38:12:120,0.6049,-0.8596,10.2951,54.8083,0.2682,0.1301,0.5133,358.37
18:38:12:140,0.93,-0.0301,8.4271,54.3818,0.2374,0.0695,0.5053,358.22
18:38:12:161,0.9262,0.3777,7.386,54.5452,0.0473,-0.1062,0.3946,357.89
18:38:12:180,0.8575,0.1722,7.9711,54.2031,-0.1741,-0.3154,0.2716,357.25
18:38:12:200,0.9817,-0.1869,9.5372,54.3023,-0.1555,-0.5161,0.1572,356.55
18:38:12:221,1.123,-0.3082,10.3921,54.1192,0.0101,-0.5012,0.0518,355.96
18:38:12:240,1.6005,0.0487,10.8495,53.9182,0.1591,-0.0982,-0.0904,355.58
18:38:12:260,1.7104,0.4298,10.0398,53.6107,0.1778,0.4905,-0.257,355.48
18:38:12:280,1.0563,0.6909,8.7951,53.2148,0.05,0.992,-0.4986,355.71
18:38:12:300,-0.548,0.472,8.0398,53.3865,-0.0181,1.1224,-0.5492,356.13
18:38:12:323,-2.0498,-0.1363,7.3658,53.3568,0.0165,1.0409,-0.3363,356.64
18:38:12:339,-2.2702,-0.0554,6.4665,53.8229,0.0111,0.844,0.023,357.19
18:38:12:359,-1.4343,0.6955,6.0028,53.7118,-0.024,0.4506,0.2716,357.67
18:38:12:379,-0.5402,1.1986,6.2759,53.5351,-0.0101,-0.2228,0.3435,357.85
18:38:12:400,0.0683,1.6539,6.7069,53.2835,0.0628,-0.6609,0.2594,357.53
18:38:12:420,0.0996,1.5695,7.0092,52.9104,-0.032,-0.8568,0.1912,356.83
18:38:12:440,0.1528,1.3827,8.0223,52.8638,-0.1965,-0.6513,0.1902,356.25
18:38:12:460,0.274,1.2694,8.8914,52.8159,-0.3194,-0.3559,0.1731,355.9
18:38:12:480,0.2367,1.1005,9.4056,52.857,-0.3599,-0.1147,0.196,355.83
18:38:12:500,0.172,1.092,9.5689,53.1794,-0.337,0.0263,0.2535,355.8
18:38:12:519,0.2461,1.1729,9.5052,53.1533,-0.3279,0.0301,0.2881,355.74
18:38:12:540,0.5372,1.1026,9.691,53.2178,-0.3854,-0.0689,0.2876,355.6
18:38:12:560,0.6469,0.5117,10.1756,53.6865,-0.5291,-0.054,0.3174,355.31
18:38:12:579,0.6828,-0.0544,11.3184,53.4342,-0.6393,0.0631,0.4196,354.91
18:38:12:600,0.668,-0.2925,11.7543,53.6513,-0.6926,0.2536,0.5724,354.57
18:38:12:620,0.8014,-0.016,11.3502,53.5567,-0.8565,0.3026,0.6826,354.24
18:38:12:640,1.4038,0.0424,11.6555,53.3988,-1.1333,0.0774,0.6203,353.85
18:38:12:660,1.8442,-0.8949,13.1233,53.66,-1.3143,-0.1397,0.4462,353.19
18:38:12:680,1.5804,-2.4994,15.091,53.3261,-1.1988,-0.1951,0.3216,352.25
18:38:12:700,1.097,-3.3809,15.6913,53.3887,-0.6638,-0.0615,0.368,351.38
18:38:12:720,1.2793,-3.1885,13.9549,53.2726,-0.0336,0.1323,0.4137,350.85
18:38:12:740,1.9184,-2.4853,11.5902,53.147,0.4668,0.2137,0.327,350.64
18:38:12:760,2.3553,-1.5666,8.8984,52.8998,0.684,0.1259,0.0858,350.44
18:38:12:782,2.6317,-1.028,7.2086,52.76,0.5488,-0.0577,-0.266,350.11
18:38:12:800,2.4781,-1.077,7.133,52.5405,0.1746,-0.0184,-0.6381,349.75
18:38:12:820,1.5244,-1.8883,8.5626,52.5983,-0.1102,0.3234,-0.8351,349.54
18:38:12:841,0.2627,-2.6268,9.7105,52.6325,-0.0676,0.5736,-0.7813,349.78
18:38:12:861,-0.5938,-2.5026,9.2658,52.5649,0.1554,0.5305,-0.5742,350.63
18:38:12:881,-0.9491,-1.8697,8.2329,52.9202,0.3039,0.3378,-0.3416,351.75
18:38:12:900,-0.8183,-1.1233,7.5289,52.8301,0.355,0.1504,-0.1521,352.72
18:38:12:920,-0.5507,-0.5061,7.0408,53.0328,0.3747,0.0503,-0.0291,353.35
18:38:12:940,-0.3545,0.1021,6.685,52.8588,0.3747,-0.0593,0.015,353.68
18:38:12:960,-0.2798,0.3893,6.3426,52.6442,0.2991,-0.0774,0.0113,353.82
18:38:12:980,-0.0311,0.6673,6.3319,52.4868,0.1916,-0.0908,-0.0307,353.8
18:38:13:000,0.111,0.8581,6.7786,52.2541,0.1352,-0.2355,-0.1063,353.76
18:38:13:020,0.2606,0.6445,7.2405,52.3291,0.0553,-0.3378,-0.1111,353.72
18:38:13:040,0.7199,0.6085,8.1377,52.215,-0.1299,-0.2095,-0.0829,353.67
18:38:13:060,1.2004,0.3659,9.4493,52.1875,-0.2827,0.1408,-0.0632,353.72
18:38:13:080,1.1855,0.1813,10.3642,52.0207,-0.2508,0.4421,0.0134,353.88
18:38:13:099,1.295,0.4703,10.6574,51.801,-0.09,0.5874,0.138,354.12
18:38:13:120,1.6611,1.2081,10.036,51.5619,0.009,0.6364,0.2088,354.37
18:38:13:139,1.9471,1.7035,9.1155,51.4662,-0.0501,0.5023,0.2381,354.47
18:38:13:159,2.2478,2.0644,8.6914,51.2983,-0.2401,0.0785,0.1795,354.38
18:38:13:180,2.1065,1.558,10.2386,51.4764,-0.3407,-0.3457,0.0166,354.11
18:38:13:199,1.141,0.2974,11.8062,51.5662,-0.2385,-0.5315,-0.0185,353.62
18:38:13:220,0.0136,-0.776,12.5216,51.7545,-0.0043,-0.6199,0.1705,353.19
18:38:13:240,-0.1361,-0.8024,12.0268,51.9714,0.116,-0.4746,0.468,353.06
18:38:13:260,0.5981,-0.3003,11.2383,51.9622,-0.0506,-0.1126,0.55,353.03
18:38:13:280,0.9451,-0.3859,11.3815,51.9477,-0.2704,0.2041,0.3552,352.88
18:38:13:299,0.3582,-1.1651,11.6245,52.0105,-0.3221,0.1999,0.0768,352.48
18:38:13:320,-0.491,-2.2328,11.9328,51.7232,-0.2364,-0.0663,-0.1404,351.96
18:38:13:374,-1.2609,-3.3057,12.3754,51.3655,0.0122,-0.2403,-0.1548,351.56
18:38:13:374,-1.6306,-3.6328,11.6026,51.1484,0.2842,-0.1488,0.0124,351.35
18:38:13:381,-1.6091,-3.0587,9.7118,50.7143,0.3231,0.0146,0.1981,351.46
18:38:13:399,-1.0887,-2.18,8.4602,50.3453,0.1309,0.1259,0.2636,351.7
18:38:13:419,-0.6876,-1.6162,8.0696,50.4995,-0.1246,0.0301,0.1662,351.77
18:38:13:440,-0.6504,-1.6453,8.9331,50.4491,-0.2215,-0.3149,0.0049,351.57
18:38:13:460,-0.6563,-1.8783,9.8111,50.5134,-0.1086,-0.6949,-0.0957,351.19
18:38:13:480,-0.6434,-2.0504,10.2189,50.5909,0.0367,-0.7343,-0.0701,350.81
18:38:13:500,-0.4845,-1.9757,9.6015,50.7614,0.0766,-0.4346,0.072,350.59
18:38:13:520,0.0674,-1.5158,8.7346,50.5378,0.0505,-0.1019,0.2136,350.65
18:38:13:540,0.6434,-0.9627,7.9453,50.3957,0.0622,0.1035,0.2668,350.83
18:38:13:560,0.9179,-0.6327,7.1213,50.3505,0.0974,0.1163,0.2482,350.88
18:38:13:580,1.0497,-0.6153,7.2582,50.1605,0.1975,0.0114,0.2125,350.73
18:38:13:600,0.8268,-0.5359,6.912,49.9501,0.2459,-0.013,0.2088,350.45
18:38:13:621,0.6616,-0.2044,6.2983,49.9077,0.1363,-0.0444,0.2067,350.14
18:38:13:640,0.7678,0.0077,6.6261,49.5212,-0.0314,-0.0801,0.1657,349.89
18:38:13:660,0.916,0.0549,7.5323,48.9838,-0.1299,-0.0679,0.105,349.61
18:38:13:680,0.89,0.0591,8.2438,48.9116,-0.1895,-0.0476,0.0422,349.32
18:38:13:699,0.7376,0.0386,9.185,48.9455,-0.1693,-0.0609,0.0161,349.1
18:38:13:719,0.8665,0.1183,9.9494,48.8599,-0.0761,-0.0838,0.0395,348.97
18:38:13:739,0.954,0.5022,10.1771,49.2437,0.0479,-0.0854,0.0549,348.92
18:38:13:760,1.1369,0.7111,9.7826,49.2278,0.034,-0.0503,0.0555,348.91
18:38:13:779,1.2731,0.7659,9.9197,48.9425,-0.0868,-0.1014,0.0006,348.88
18:38:13:799,1.1634,0.0214,11.0689,48.725,-0.1437,-0.1951,-0.0419,348.83
18:38:13:819,0.8137,-1.124,12.5116,48.412,-0.0937,-0.1733,0.0794,348.7
18:38:13:839,1.3269,-1.6662,13.0106,48.7478,0.0564,-0.0545,0.2679,348.63
18:38:13:860,1.9769,-1.537,12.3903,48.7256,0.1208,0.0088,0.3381,348.69
18:38:13:880,2.2838,-1.6041,11.6141,48.4213,0.0697,-0.0466,0.3019,348.68
18:38:13:899,2.066,-1.6583,11.2247,47.9796,-0.0032,-0.1796,0.2285,348.41
18:38:13:919,1.8386,-1.668,11.1675,47.8037,-0.0996,-0.2962,0.1614,347.98
18:38:13:940,1.7821,-1.7755,11.9801,47.6389,-0.0974,-0.2446,0.0571,347.55
18:38:13:960,1.6125,-2.1424,12.4992,47.8618,0.1591,-0.0487,0.0145,347.18
18:38:13:980,1.7517,-1.9062,11.3333,47.8358,0.4775,0.1632,-0.0126,346.99
18:38:14:000,2.0604,-1.3762,9.1887,47.6581,0.5791,0.2686,-0.1218,347.07
18:38:14:021,2.299,-0.8905,7.5944,47.3818,0.4019,0.2542,-0.3283,347.24
18:38:14:039,2.0337,-0.6639,7.2702,47.1166,0.0564,0.1861,-0.6009,347.35
18:38:14:060,1.2253,-1.0607,8.4426,46.9431,-0.1698,0.095,-0.7776,347.46
18:38:14:080,0.4098,-1.6499,9.6464,46.6524,-0.1342,0.0397,-0.7712,347.73
18:38:14:100,-0.1229,-1.6168,9.7666,46.6641,-0.0128,0.119,-0.6339,348.33
18:38:14:121,-0.2309,-1.2454,9.0165,46.8024,0.0734,0.2121,-0.4571,349.21
18:38:14:140,0.178,-0.6889,8.433,46.8148,0.1591,0.1978,-0.3437,350.17
18:38:14:160,0.5669,-0.1684,7.8321,46.8049,0.2203,0.1467,-0.3209,350.98
18:38:14:180,0.6048,0.0031,7.6819,46.8642,0.2613,0.1754,-0.3145,351.52
18:38:14:200,0.2458,-0.0107,7.2682,46.5286,0.256,0.2989,-0.2208,351.92
18:38:14:220,0.325,0.2868,6.9502,46.5548,0.1778,0.3851,-0.1037,352.31
18:38:14:240,0.7522,0.6471,7.0769,46.193,0.1293,0.3718,-0.0888,352.74
18:38:14:260,0.8558,0.744,7.2561,46.3028,0.0953,0.2989,-0.1202,353.03
18:38:14:279,0.7925,0.5938,7.689,46.1124,0.0394,0.2734,-0.117,353.15
18:38:14:299,0.6347,0.4138,8.4036,45.8022,-0.0027,0.3447,-0.0675,353.21
18:38:14:319,0.4589,0.3943,8.8207,45.6818,-0.0139,0.3718,-0.0004,353.34
18:38:14:339,0.1658,0.4748,9.3706,45.4898,-0.0011,0.4,0.0927,353.51
18:38:14:360,-0.0042,0.6356,9.9689,44.9943,0.0191,0.4889,0.2317,353.6
18:38:14:380,0.1707,1.0933,10.584,44.8648,0.1352,0.4969,0.3227,353.63
18:38:14:399,0.3309,1.423,10.5766,44.6393,0.2725,0.4261,0.311,353.58
18:38:14:419,0.1855,1.1859,10.3981,44.3828,0.2592,0.276,0.2205,353.33
18:38:14:439,-0.2995,0.6014,11.3883,44.4605,0.2039,0.2457,0.1822,352.95
18:38:14:460,-0.982,-0.203,11.8353,44.7805,0.1714,0.4091,0.3014,352.51
18:38:14:480,-1.266,-0.1766,11.9295,44.7228,0.0138,0.6976,0.4819,352.24
18:38:14:500,-0.9093,0.3169,11.7985,44.4047,-0.0964,0.7604,0.5457,352.11
18:38:14:519,-0.7822,0.43,11.622,44.0676,-0.1006,0.341,0.4584,351.9
18:38:14:540,-1.1027,-0.179,12.0504,43.6663,0.0697,-0.3559,0.3451,351.37
18:38:14:560,-1.6006,-1.3015,12.4824,43.0139,0.3699,-0.8168,0.3371,350.53
18:38:14:580,-1.5135,-2.004,11.9477,42.6881,0.6648,-0.9025,0.4973,349.65
18:38:14:599,-0.6961,-1.6741,10.5234,42.7369,0.6931,-0.4927,0.6661,349.05
18:38:14:619,0.0386,-0.8837,8.974,42.4002,0.4748,0.0524,0.6751,348.67
18:38:14:639,0.1401,-0.218,8.0409,42.375,0.1416,0.3857,0.5575,348.33
18:38:14:659,0.2043,-0.0531,8.0731,42.3811,-0.1033,0.2781,0.3562,347.83
18:38:14:681,-0.2227,-0.1258,8.8366,42.1205,-0.1885,-0.0652,0.1822,347.18
18:38:14:700,-0.4928,-0.3425,9.7239,41.7838,-0.2034,-0.1983,0.1284,346.44
18:38:14:719,-0.4459,-0.5284,10.1927,41.8097,-0.1613,-0.0609,0.1571,345.84
18:38:14:740,-0.6042,-0.3432,9.4265,41.2384,-0.0889,-0.0476,0.2391,345.57
18:38:14:760,-0.4613,0.0413,8.4173,41.1712,-0.0197,-0.3196,0.3291,345.5
18:38:14:780,0.0995,0.5367,7.58,41.3071,-0.0123,-0.6034,0.3419,345.34
18:38:14:800,0.5648,1.01,7.3221,40.9828,-0.1044,-0.5954,0.2434,344.94
18:38:14:820,0.4866,0.8413,7.8343,41.1719,-0.1767,-0.4059,0.1422,344.44
18:38:14:839,0.2064,0.4108,8.0324,41.118,-0.2092,-0.2095,0.13,344.06
18:38:14:860,-0.1955,0.2189,7.7114,41.2436,-0.2678,-0.0774,0.2072,343.88
18:38:14:879,-0.2924,0.4296,7.3672,41.3796,-0.3886,0.0476,0.2801,343.82
18:38:14:899,-0.2163,0.9977,5.569,41.4441,-0.493,1.4296,0.1327,343.73
18:38:14:921,-0.1996,0.7293,7.4219,41.4232,-1.3005,0.8818,0.0581,343.53
18:38:14:940,0.148,0.4919,10.3592,41.3772,-0.922,0.3649,-0.1856,343.9
18:38:14:960,0.0091,0.291,11.8047,41.4132,-0.0985,-0.2584,-0.4188,343.33
18:38:14:980,-0.5227,-0.0398,10.375,41.8865,0.4972,-0.3851,-0.5338,343.09
18:38:15:000,-1.1587,-0.0878,8.8312,41.791,0.404,-0.3713,-0.3507,343.13
18:38:15:020,-1.0326,0.2745,8.9528,42.2961,0.0362,-0.1445,-0.0914,343.63
18:38:15:039,-0.3191,0.3823,10.397,42.4036,-0.1602,-0.0349,-0.0808,344.23
18:38:15:060,-0.2649,-0.2352,11.653,42.3031,-0.1336,-0.0274,-0.151,344.67
18:38:15:080,-0.1643,-0.9009,12.0024,42.5555,-0.0293,0.0311,-0.1329,344.79
18:38:15:101,0.0226,-1.1573,11.3693,42.936,-0.0884,0.1365,-0.0478,344.89
18:38:15:123,0.2001,-1.0961,11.0687,43.0946,-0.2688,0.0689,-0.026,345.11
18:38:15:139,0.3819,-1.2112,11.4253,43.1156,-0.3748,-0.0881,-0.109,345.31
18:38:15:160,0.3305,-1.7411,11.7137,43.2932,-0.3631,-0.3053,-0.2059,345.3
18:38:15:180,0.1111,-2.3852,12.3465,43.3363,-0.231,-0.4714,-0.257,345.24
18:38:15:199,0.2259,-2.8101,12.7783,43.3554,0.0489,-0.2712,-0.2346,345.25
18:38:15:220,0.1317,-2.7263,11.6605,43.4228,0.321,0.1137,-0.0116,345.4
18:38:15:239,0.5931,-1.9272,9.654,43.7763,0.4109,0.3963,0.2652,345.81
18:38:15:260,0.9761,-0.8944,7.9096,43.8826,0.2725,0.3197,0.2493,346.31
18:38:15:280,1.3291,-0.502,7.6498,44.0345,-0.0154,0.0093,-0.1116,346.49
18:38:15:299,0.326,-0.7888,8.5228,43.93,-0.1512,-0.1866,-0.4417,346.15
18:38:15:319,-0.7525,-1.2319,8.9046,44.048,-0.1278,-0.1754,-0.3374,345.67
18:38:15:339,-0.8026,-1.1428,8.5813,44.007,-0.1091,-0.0785,-0.1154,345.67
18:38:15:359,-0.3633,-0.6589,8.4077,44.2837,-0.1123,0.0098,0.0124,346.18
18:38:15:433,0.2272,-0.129,8.4742,44.1879,-0.0649,0.0721,-0.0217,346.61
18:38:15:433,0.4604,0.22,8.1706,44.3028,0.0175,0.144,-0.1313,346.78
18:38:15:433,0.4608,0.3503,7.5642,44.3791,0.0128,0.2675,-0.2144,346.81
18:38:15:442,0.1286,0.3871,7.2351,44.569,-0.0607,0.3415,-0.241,346.89
18:38:15:459,-0.343,0.1706,7.4096,44.8608,-0.1123,0.3388,-0.1691,347.11
18:38:15:479,-0.2852,0.314,7.8831,45.3069,-0.1001,0.3607,-0.0648,347.39
18:38:15:500,0.3239,0.7132,8.286,45.3446,-0.0527,0.4102,-0.0579,347.68
18:38:15:520,0.8575,0.9889,8.8501,45.6363,0.0245,0.3606,-0.1835,347.91
18:38:15:539,0.5619,0.8746,9.3588,45.6521,0.1655,0.2308,-0.3129,348.04
18:38:15:560,-0.2819,0.4202,9.4347,45.699,0.2369,0.1573,-0.2692,348.11
18:38:15:580,-0.7895,0.2349,9.6423,45.9821,0.2049,0.1781,-0.0451,348.29
18:38:15:600,-0.4172,0.7124,10.3006,46.0064,0.198,0.2334,0.1646,348.63
18:38:15:620,0.2355,1.3892,10.6716,46.0533,0.2741,0.2451,0.1944,348.96
18:38:15:640,0.4982,1.6569,10.4636,46.0264,0.3077,0.2228,0.0635,349.05
18:38:15:660,0.2058,1.1938,10.4339,46.0321,0.2539,0.1456,-0.0904,348.88
18:38:15:680,-0.5487,0.2805,10.8941,45.9844,0.1975,0.054,-0.1143,348.66
18:38:15:700,-1.0708,-0.437,11.5478,45.7859,0.1661,0.0902,0.0342,348.55
18:38:15:720,-0.9094,-0.4226,11.7386,45.9757,0.0974,0.2042,0.1997,348.61
18:38:15:740,-0.1545,-0.0881,12.0709,45.9884,0.0207,0.2116,0.195,348.76
18:38:15:760,0.1485,-0.1449,12.3944,45.8504,-0.0234,0.103,-0.0073,348.77
18:38:15:780,-0.4759,-1.0382,12.7699,45.8974,0.0096,0.0381,-0.2006,348.55
18:38:15:800,-1.7459,-2.1482,12.4387,46.1491,0.1448,0.0418,-0.1766,348.27
18:38:15:820,-2.4943,-2.7246,11.2092,46.2596,0.2906,0.0492,0.0778,348.24
18:38:15:840,-2.1571,-2.2669,9.6567,46.3513,0.3199,0.0194,0.3456,348.48
18:38:15:860,-1.322,-1.2463,8.4085,46.1908,0.2065,-0.0535,0.4196,348.7
18:38:15:880,-0.8603,-0.5728,7.7844,45.9516,-0.0144,-0.1456,0.3291,348.6
18:38:15:900,-0.9476,-0.4948,8.1225,45.8253,-0.1932,-0.285,0.2131,348.16
18:38:15:919,-1.2212,-0.69,8.8689,45.9172,-0.2337,-0.4352,0.1582,347.62
18:38:15:940,-1.3874,-0.9297,9.4386,45.987,-0.2108,-0.4224,0.2035,347.16
18:38:15:960,-1.1568,-0.8338,9.5708,46.1115,-0.1533,-0.2542,0.2865,346.83
18:38:15:980,-0.8513,-0.436,9.0514,45.9548,-0.0873,-0.0828,0.3238,346.66
18:38:15:999,-0.6407,-0.1373,8.2265,45.7727,-0.0516,0.0168,0.3227,346.52
18:38:16:019,-0.4329,0.1633,7.457,45.6131,-0.0522,0.0487,0.3051,346.28
18:38:16:040,-0.4088,0.4802,6.9636,45.6212,-0.0559,-0.0002,0.27,345.96
18:38:16:060,-0.4751,0.4273,6.793,45.7041,-0.0527,-0.1333,0.2636,345.61
18:38:16:080,-0.2771,0.5658,7.0258,45.8704,-0.0926,-0.2302,0.228,345.23
18:38:16:100,-0.1233,0.7094,7.5062,46.0133,-0.1469,-0.2526,0.1577,344.86
18:38:16:120,0.1024,0.7192,8.1812,45.9795,-0.1874,-0.2009,0.0597,344.5
18:38:16:141,0.2033,0.7116,8.8648,45.8179,-0.156,-0.1152,-0.0622,344.22
18:38:16:160,-0.1715,0.5421,9.3141,45.7198,-0.0266,-0.12,-0.1324,344.05
18:38:16:180,-0.4547,0.4362,9.3462,45.9267,0.0633,-0.1418,-0.0941,344.02
18:38:16:200,-0.4227,0.7085,9.4867,46.1364,0.0734,-0.0753,-0.0222,344.11
18:38:16:219,-0.2202,1.0823,9.6848,46.5726,0.0458,0.0349,0.0038,344.26
18:38:16:240,-0.0509,1.2976,9.8974,46.831,0.0005,0.1147,-0.0323,344.4
18:38:16:261,-0.0306,1.1222,10.1389,46.7159,-0.0857,0.1227,-0.1042,344.47
18:38:16:280,-0.2348,0.3418,10.8304,46.8384,-0.1719,0.0104,-0.1654,344.5
18:38:16:300,-0.7267,-0.8681,12.2725,46.4362,-0.066,-0.1759,-0.0723,344.53
18:38:16:319,-0.4954,-1.3017,12.574,46.6373,0.1171,-0.2249,0.1439,344.59
18:38:16:341,0.4782,-0.7402,11.7883,47.0707,0.1203,-0.1674,0.1678,344.7
18:38:16:360,1.2098,-0.1155,11.0564,47.0202,-0.1645,-0.1355,-0.1069,344.78
18:38:16:380,1.1387,-0.8907,12.0571,47.0484,-0.4727,-0.1131,-0.4997,344.64
18:38:16:399,-0.1196,-2.4146,13.4338,47.1553,-0.4168,-0.112,-0.6695,344.41
18:38:16:419,-1.2641,-3.7388,13.7484,47.1479,-0.0154,-0.013,-0.4374,344.48
18:38:16:441,-0.8282,-3.3445,11.5332,47.2408,0.3652,0.1482,-0.0574,345.06
18:38:16:461,0.9316,-1.578,8.7883,47.5709,0.3934,0.1525,0.0038,345.94
18:38:16:481,2.1014,-0.2775,7.3212,47.7714,0.1783,-0.037,-0.3075,346.58
18:38:16:500,1.7202,-0.3689,7.7408,47.9011,-0.0996,-0.2127,-0.6605,346.66
18:38:16:520,0.6558,-1.0336,8.8878,47.4389,-0.2183,-0.2744,-0.8079,346.53
18:38:16:541,-0.4596,-1.6441,9.8491,47.5193,-0.1352,-0.2233,-0.6828,346.75
18:38:16:560,-0.6889,-1.5064,10.2023,47.6571,0.0628,-0.0615,-0.4236,347.45
18:38:16:580,-0.3359,-0.8602,9.5817,47.6403,0.2028,0.1546,-0.2634,348.41
18:38:16:599,-0.027,-0.3067,8.5281,48.0437,0.2459,0.2648,-0.1835,349.3
18:38:16:620,0.1854,0.1474,7.7881,48.4122,0.2693,0.2435,-0.1686,349.91
18:38:16:640,0.1992,0.4041,7.2497,48.5268,0.2736,0.1962,-0.1793,350.28
18:38:16:660,0.0878,0.5955,6.8421,48.44,0.2044,0.1861,-0.1894,350.49
18:38:16:680,-0.1223,0.6975,6.7926,48.2157,0.1166,0.177,-0.1947,350.66
18:38:16:700,-0.2988,0.646,6.9733,47.8602,0.0468,0.1461,-0.1904,350.86
18:38:16:720,-0.3618,0.6043,7.202,47.5332,-0.0197,0.12,-0.1835,351.06
18:38:16:739,-0.2713,0.5706,7.5964,47.5096,-0.1059,0.1291,-0.208,351.26
18:38:16:760,-0.6503,0.3476,8.1764,47.602,-0.1464,0.1898,-0.2123,351.46
18:38:16:780,-1.2295,0.1626,8.4091,47.5275,-0.1613,0.2558,-0.1154,351.67
18:38:16:800,-1.6597,0.1743,8.6732,47.2703,-0.1741,0.2744,0.0778,351.94
18:38:16:821,-1.3331,0.6671,9.2938,47.4187,-0.1581,0.3021,0.2833,352.22
18:38:16:841,-0.6961,1.4714,9.7773,47.1446,-0.0873,0.3308,0.3642,352.37
18:38:16:860,-0.0398,1.923,9.9681,47.1534,-0.0804,0.293,0.2908,352.3
18:38:16:880,0.2702,1.5782,10.5984,47.3097,-0.09,0.0689,0.1039,352
18:38:16:901,-0.2517,0.546,12.1241,47.0966,0.008,-0.2121,0.0023,351.57
18:38:16:922,-0.7467,-0.4384,13.0718,47.1068,0.1432,-0.1584,0.0997,351.13
18:38:16:941,-0.558,-0.6493,12.6335,46.4941,0.1155,0.0636,0.2711,350.87
18:38:16:960,0.0291,-0.4182,12.625,46.1245,0.0005,0.2132,0.3243,350.9
18:38:16:980,0.2859,-0.3806,12.8291,45.8191,-0.0123,0.2361,0.2429,350.89
18:38:16:999,-0.3651,-0.9083,12.5308,45.418,0.0489,0.1994,0.1737,350.66
18:38:17:019,-1.1333,-1.4972,11.7328,45.1583,0.1368,0.1743,0.2487,350.3
18:38:17:039,-1.399,-1.6872,10.7105,45.1025,0.2342,0.0482,0.3935,350.01
18:38:17:061,-0.9698,-1.4705,9.6094,44.681,0.2512,-0.1232,0.4728,349.81
18:38:17:080,-0.3255,-1.1826,8.9636,44.7594,0.1341,-0.2041,0.3924,349.47
18:38:17:100,-0.0761,-1.1456,8.9647,44.4956,-0.0415,-0.178,0.2295,348.91
18:38:17:120,-0.2879,-1.1688,9.186,44.3205,-0.1709,-0.1216,0.0715,348.34
18:38:17:139,-0.7326,-1.167,9.3389,44.118,-0.1863,-0.0636,-0.0185,347.89
18:38:17:161,-1.2,-1.0525,9.0913,43.8856,-0.1453,-0.0189,-0.0238,347.65
18:38:17:180,-1.2785,-0.746,8.4732,43.5081,-0.1054,-0.0306,0.0283,347.59
18:38:17:200,-1.0231,-0.2262,7.9888,43.4082,-0.1421,-0.111,0.014,347.64
18:38:17:220,-0.8523,-0.0472,8.3104,43.3306,-0.1464,-0.1961,-0.0387,347.67
18:38:17:239,-0.9098,-0.0656,8.7849,43.1037,-0.0357,-0.2265,-0.0616,347.59
18:38:17:260,-1.1809,-0.2323,8.6059,42.7314,0.0889,-0.1748,0.007,347.53
18:38:17:280,-1.2269,-0.2417,8.0061,42.9277,0.1171,-0.1158,0.1279,347.56
18:38:17:299,-0.896,0.1252,7.8889,42.7607,0.0974,-0.0892,0.1976,347.66
18:38:17:320,-0.5564,0.4398,8.0589,42.4909,0.0772,-0.1062,0.1673,347.69
18:38:17:339,-0.4356,0.5342,8.3108,42.2521,0.0905,-0.1914,0.0901,347.55
18:38:17:360,-0.6267,0.4257,8.5417,42.1842,0.1033,-0.2957,0.0411,347.31
18:38:17:380,-0.7553,0.2504,9.0128,42.0979,0.1224,-0.309,0.0927,347.08
18:38:17:400,-0.5256,0.4621,9.2261,42.0254,0.1528,-0.2196,0.1412,346.92
18:38:17:419,-0.3165,0.7144,9.0838,41.9639,0.1852,-0.2313,0.1854,346.87
18:38:17:482,-0.2692,1.051,9.1845,41.7809,0.2236,-0.2866,0.204,346.81
18:38:17:482,-0.0036,1.4867,9.5079,41.4064,0.2017,-0.2504,0.1784,346.64
18:38:17:482,0.3957,1.7385,9.869,41.0023,0.0575,-0.0391,0.0608,346.41
18:38:17:499,0.2332,1.4411,10.5606,40.6255,-0.1049,0.1477,-0.0898,346.19
18:38:17:519,-0.564,0.6525,11.4377,40.3565,-0.1262,0.1482,-0.1053,346.08
18:38:17:539,-0.9773,-0.1177,12.2352,40.2324,0.0324,0.0711,0.0784,346.08
18:38:17:559,-0.0879,-0.2172,11.5913,39.8158,0.1613,0.0114,0.2817,346.18
18:38:17:580,0.9466,0.5842,10.9941,39.6749,0.1197,-0.4224,0.2902,346.28
18:38:17:600,1.86,0.5972,11.3668,39.6426,0.1277,-0.7987,-0.0494,346.18
18:38:17:619,1.1283,-0.2132,12.6681,39.7517,0.1788,-0.9249,-0.3453,345.63
18:38:17:639,0.2699,-1.3163,13.4406,39.8019,0.5083,-0.919,-0.2948,345.12
18:38:17:659,0.5027,-1.8943,11.9024,39.979,0.856,-0.82,-0.0941,345.15
18:38:17:680,1.6266,-1.5243,9.5399,39.9125,0.9065,-0.7168,-0.0222,345.64
18:38:17:700,2.7692,-0.3747,7.8929,39.9119,0.6877,-0.7402,-0.258,346.14
18:38:17:720,2.5903,0.5179,7.6974,39.5763,0.1927,-0.6566,-0.6179,346.36
18:38:17:740,1.5516,0.0813,8.9234,39.3666,-0.3918,0.0253,-0.7297,346.39
18:38:17:760,0.498,-1.0057,9.8927,39.3563,-0.8065,0.8568,-0.6009,346.69
18:38:17:780,-0.0387,-1.4135,10.8634,39.2206,-0.7362,1.0106,-0.4518,347.66
18:38:17:800,0.1485,-0.5859,10.5286,39.3747,-0.1906,0.5672,-0.3943,348.82
18:38:17:820,0.1541,0.1698,8.9305,39.5343,0.2768,0.0748,-0.3858,349.54
18:38:17:839,0.3361,0.4954,7.3859,39.5495,0.445,-0.1818,-0.3603,349.88
18:38:17:860,0.3073,0.7051,6.9094,39.5029,0.3912,-0.1775,-0.2815,350.14
18:38:17:880,0.0664,0.5815,6.595,39.1911,0.2017,0.0365,-0.1777,350.48
18:38:17:900,-0.2766,0.8086,6.4439,39.0587,-0.0846,0.3175,-0.01,350.89
18:38:17:920,0.0355,1.1926,6.8004,38.975,-0.2896,0.3681,0.1023,351.3
18:38:17:939,0.3778,1.2966,7.4182,38.9192,-0.3412,0.1365,0.1529,351.58
18:38:17:960,0.7148,1.4617,8.0759,38.8417,-0.2885,-0.1307,0.1305,351.55
18:38:17:980,1.0441,1.59,8.7916,38.8073,-0.1725,-0.2467,0.0768,351.28
18:38:18:000,0.9513,1.4175,9.3674,38.7137,-0.0798,0.0077,0.0667,350.96
18:38:18:019,0.9622,1.2686,9.585,38.6279,0.0303,0.334,0.121,350.78
18:38:18:039,0.8093,1.682,9.5474,38.5455,0.2326,0.2845,0.1673,350.86
18:38:18:062,0.8317,1.9822,9.0679,38.4355,0.3034,0.5385,0.138,350.97
18:38:18:079,1.0144,2.1275,8.5003,38.0066,0.2321,0.2749,0.0693,350.81
18:38:18:099,0.9353,1.8701,8.8296,37.6423,0.1086,-0.0338,-0.0669,350.75
18:38:18:119,0.5696,0.8767,9.7203,37.0773,-0.057,-0.1631,-0.1287,350.41
18:38:18:139,0.2389,0.2556,11.0794,36.9563,-0.1996,-0.0008,-0.0552,350.14
18:38:18:159,0.2501,-0.0735,11.4515,36.9452,-0.3285,0.1467,-0.0036,350.13
18:38:18:180,0.0298,-0.3073,12.0388,36.8329,-0.453,0.1318,0.0289,350.35
18:38:18:199,-0.2738,-0.6398,12.6343,36.9423,-0.4504,-0.1227,0.0486,350.47
18:38:18:219,-0.4367,-0.9283,13.4311,36.9156,-0.2981,-0.4511,0.073,350.43
18:38:18:239,-0.5439,-1.2062,13.4837,36.7198,-0.0687,-0.4847,0.1598,350.26
18:38:18:262,-0.4806,-1.0415,12.3107,36.7934,0.0532,-0.276,0.2588,350.06
18:38:18:280,-0.313,-0.5805,10.843,36.8684,0.0404,-0.0386,0.294,350
18:38:18:299,-0.2806,-0.17,9.4942,36.8067,-0.0516,-0.0141,0.2711,349.97
18:38:18:319,-0.3252,0.0112,8.9853,36.9593,-0.1762,-0.2313,0.2152,349.81
18:38:18:339,-0.4103,-0.2507,9.6566,36.783,-0.2284,-0.4735,0.1806,349.47
18:38:18:360,-0.3052,-0.6073,10.482,36.5995,-0.1581,-0.5927,0.1955,349.02
18:38:18:379,-0.0864,-0.7832,10.6833,36.447,-0.0469,-0.457,0.2657,348.65
18:38:18:399,0.1243,-0.6229,10.1379,36.8905,0.025,-0.1253,0.3552,348.4
18:38:18:419,0.3556,-0.2892,9.119,36.6979,0.0782,0.1344,0.4047,348.28
18:38:18:440,0.4125,0.0711,8.0419,36.4187,0.1214,0.235,0.4105,348.17
18:38:18:460,0.3885,0.2551,7.3275,36.6584,0.141,0.1695,0.4132,347.9
18:38:18:479,0.5341,0.4035,7.051,36.4167,0.1884,-0.005,0.435,347.49
18:38:18:499,1.2009,0.8422,6.9998,36.204,0.2305,-0.2206,0.3658,346.99
18:38:18:520,1.4297,1.1141,7.2291,36.2066,0.198,-0.3436,0.1806,346.43
18:38:18:539,1.0779,0.9407,7.6093,36.2743,0.124,-0.2574,0.0464,345.83
18:38:18:560,0.5685,0.6978,8.2229,35.8901,0.0537,-0.1014,0.0102,345.36
18:38:18:579,0.2098,0.6047,8.9514,35.8418,0.1288,-0.0758,0.0257,345.19
18:38:18:599,0.195,0.8051,9.1802,35.7709,0.2789,-0.2041,0.0145,345.21
18:38:18:619,0.4452,1.2436,8.8495,35.5171,0.3455,-0.326,-0.0472,345.23
18:38:18:639,0.9607,1.7043,8.8608,35.7105,0.3013,-0.3532,-0.1803,345.19
18:38:18:660,1.1171,1.8149,9.1607,35.968,0.2656,-0.2302,-0.2964,345.14
18:38:18:681,0.7588,1.8211,8.6941,36.0978,0.148,-0.0487,-0.2953,345.2
18:38:18:699,0.5705,1.6094,8.7447,36.1417,-0.0916,0.0024,-0.1787,345.49
18:38:18:719,1.0313,1.4047,9.7398,36.2854,-0.2443,-0.111,-0.0707,345.9
18:38:18:739,1.6979,1.1025,11.0668,35.9473,-0.239,-0.3,-0.0345,346.19
18:38:18:760,2.3697,0.5009,12.091,36.1655,-0.1485,-0.2728,-0.0174,346.29
18:38:18:779,2.757,0.2747,11.6665,36.43,-0.0793,-0.0583,-0.0062,346.28
18:38:18:799,2.8267,0.4864,10.3857,36.6419,-0.2742,-0.0002,-0.0824,346.38
18:38:18:819,2.2574,-0.1126,10.2702,36.7247,-0.6063,0.0083,-0.1393,346.55
18:38:18:839,1.8712,-0.8621,11.2621,36.8119,-0.8986,0.2212,-0.0957,346.53
18:38:18:859,1.5587,-1.482,12.1509,36.7709,-0.9545,0.482,-0.0478,346.53
18:38:18:879,1.4472,-2.0787,12.8528,36.9872,-0.5249,0.4442,0.0113,346.71
18:38:18:899,1.5972,-1.6595,10.8169,37.1564,-0.1544,0.3213,-0.0052,346.94
18:38:18:920,2.0716,-1.0878,8.8588,37.4753,-0.1847,0.1168,-0.1553,347.11
18:38:18:940,1.9814,-1.1117,9.0097,37.6632,-0.2971,-0.1312,-0.3837,347.14
18:38:18:961,1.3377,-1.5155,9.7285,38.284,-0.3157,-0.2691,-0.5024,347.04
18:38:18:979,0.7899,-1.738,10.2888,38.2922,-0.2678,-0.153,-0.4736,347.08
18:38:18:999,0.5299,-1.5149,10.0696,38.5514,-0.1539,0.1003,-0.3682,347.44
18:38:19:019,0.4815,-0.9238,8.9916,38.9994,-0.0501,0.2494,-0.2815,348.09
18:38:19:039,0.5873,-0.3348,7.8247,39.3072,-0.033,0.2393,-0.2373,348.79
18:38:19:060,0.5902,-0.0193,7.4881,39.6012,-0.0665,0.1312,-0.2272,349.32
18:38:19:079,0.6345,-0.0283,8.1038,39.5921,0.0612,0.0173,-0.2053,349.65
18:38:19:100,0.5801,0.1364,7.9137,39.4709,0.2198,0.012,-0.1585,349.87
18:38:19:119,0.494,0.346,7.3649,39.642,0.2347,0.1653,-0.0898,350.11
18:38:19:139,0.3574,0.529,7.0878,39.493,0.124,0.4181,0.0187,350.39
18:38:19:160,0.5533,0.856,7.0775,39.4865,0.0159,0.506,0.0917,350.65
18:38:19:180,0.8722,1.2625,7.6503,39.9411,-0.0213,0.3681,0.0406,350.86
18:38:19:201,0.9222,1.301,8.0731,39.952,0.0133,0.1823,-0.0494,350.87
18:38:19:220,0.7732,1.1511,8.4741,39.6412,-0.0133,0.1062,-0.0696,350.7
18:38:19:240,0.7368,1.0342,9.2238,39.3806,-0.0091,0.0759,-0.035,350.58
18:38:19:261,0.717,1.0046,10.1044,39.3824,0.1187,0.0498,0.0193,350.6
18:38:19:279,0.8541,1.133,10.479,39.4425,0.2821,0.1546,0.0688,350.67
18:38:19:299,1.0246,1.2676,9.7369,39.5196,0.3013,0.2973,0.0778,350.72
18:38:19:319,1.3678,1.1148,9.4448,39.6611,0.1879,0.2068,-0.0174,350.78
18:38:19:340,1.0693,0.2642,10.1178,39.6276,0.0953,-0.0146,-0.1116,350.78
18:38:19:361,0.4576,-0.7076,11.245,39.7944,0.1229,-0.1019,-0.0637,350.63
18:38:19:380,0.1204,-0.8248,10.9726,39.3387,0.0335,0.0503,0.0789,350.52
18:38:19:399,0.2977,-0.4237,10.6619,39.3901,-0.2593,0.243,0.1571,350.61
18:38:19:419,0.3971,-0.4676,10.9007,39.1832,-0.5557,0.2457,0.1156,350.74
18:38:19:440,-0.2964,-1.3644,12.0101,39.358,-0.7325,-0.0838,0.0959,350.7
18:38:19:460,-0.4242,-2.4786,13.9983,39.3564,-0.5281,-0.4139,0.2099,350.48
18:38:19:480,0.3309,-2.5337,14.0084,39.7877,-0.1459,-0.3133,0.3323,350.14
18:38:19:555,0.846,-2.2113,12.6547,40.231,0.0937,0.12,0.3797,349.89
18:38:19:555,0.9069,-1.5028,10.0993,40.3001,0.1011,0.473,0.3488,349.76
18:38:19:556,0.8987,-0.8424,8.3529,40.1046,-0.1315,0.4006,0.2109,349.63
18:38:19:565,0.7128,-0.8849,8.9819,40.0146,-0.2667,0.0391,0.0161,349.38
18:38:19:579,0.3087,-1.551,10.4392,40.1311,-0.1549,-0.2632,-0.0675,348.92
18:38:19:599,0.1375,-1.85,10.9381,40.1308,0.0697,-0.2808,-0.0142,348.49
18:38:19:619,0.1614,-1.5956,10.3878,40.2112,0.2427,-0.0796,0.0858,348.34
18:38:19:639,0.4212,-1.0777,9.3024,40.3427,0.3652,0.1094,0.1444,348.44
18:38:19:660,0.5682,-0.5875,8.1104,40.1778,0.4099,0.153,0.1401,348.57
18:38:19:679,0.4175,-0.32,7.3254,40.0929,0.4056,0.0934,0.1295,348.59
18:38:19:700,0.2639,-0.2561,7.0311,40.1022,0.3827,-0.0301,0.1571,348.46
18:38:19:720,0.2948,-0.0723,7.3201,40.085,0.4083,-0.136,0.1939,348.27
18:38:19:740,0.4338,0.2252,7.585,40.0064,0.4812,-0.1999,0.1838,348.06
18:38:19:760,0.4596,0.621,7.1567,39.9672,0.4652,-0.1946,0.1364,347.83
18:38:19:780,0.5652,0.9743,6.9028,39.9905,0.3013,-0.1733,0.0464,347.59
18:38:19:801,0.4732,1.0523,7.5294,39.7091,0.1144,-0.152,-0.0808,347.38
18:38:19:819,0.1548,0.7969,8.6168,39.2021,0.0676,-0.1344,-0.1351,347.2
18:38:19:839,-0.0821,0.6812,9.2862,39.2418,0.1224,-0.1328,-0.117,347.13
18:38:19:860,0.0198,0.8446,9.5286,39.4629,0.1954,-0.1434,-0.0845,347.22
18:38:19:880,0.2502,1.2164,9.5431,39.5623,0.2582,-0.1232,-0.092,347.39
18:38:19:899,0.3522,1.5706,9.2465,39.6728,0.2363,-0.0444,-0.1431,347.54
18:38:19:919,0.3646,1.6727,9.5597,40.0338,0.2251,-0.1136,-0.2213,347.67
18:38:19:939,-0.0562,1.4287,9.6376,40.0257,0.231,-0.3047,-0.241,347.81
18:38:19:959,-0.4145,0.8341,10.103,40.1595,0.1576,-0.433,-0.1351,347.95
18:38:19:979,-0.205,0.294,11.0751,40.3595,0.0612,-0.399,0.0794,348.11
18:38:19:999,0.9772,0.309,12.1534,40.5846,0.0468,-0.3047,0.2003,348.32
18:38:20:019,1.6729,0.5886,11.9664,40.8123,0.0777,-0.2318,0.1183,348.48
18:38:20:039,1.5748,0.5349,11.1443,40.7951,-0.0878,-0.2845,-0.0361,348.45
18:38:20:060,1.453,0.0347,11.9448,40.7359,-0.2593,-0.3074,-0.1436,348.29
18:38:20:079,1.2226,-0.8033,13.1701,40.9141,-0.2023,-0.2105,-0.1686,348.1
18:38:20:099,0.9938,-1.6103,13.5377,41.2332,0.1341,-0.0338,-0.059,348.11
18:38:20:119,1.4145,-1.4877,11.3589,41.3503,0.4024,0.0652,0.0592,348.36
18:38:20:139,2.4604,-0.9128,8.9744,41.6868,0.3162,0.0146,0.0278,348.74
18:38:20:159,3.1844,-0.4331,8.2646,41.7161,0.041,-0.0668,-0.1803,348.92
18:38:20:179,2.7827,-0.5915,8.6688,41.4556,-0.2358,0.0045,-0.3895,348.81
18:38:20:199,1.7751,-1.112,9.6911,41.5486,-0.2736,0.1025,-0.4497,348.67
18:38:20:219,0.8792,-1.132,9.7351,41.3242,-0.0777,0.16,-0.3613,348.86
18:38:20:239,0.4274,-0.5721,8.3488,41.4468,0.0852,0.1834,-0.2128,349.36
18:38:20:260,0.4077,0.2039,6.9544,41.4262,0.1496,-0.0343,-0.1271,349.95
18:38:20:279,0.8216,0.7644,6.618,41.6765,0.1959,-0.433,-0.1111,350.4
18:38:20:299,1.4573,1.1114,6.7883,41.8077,0.2257,-0.6124,-0.1644,350.53
18:38:20:319,1.7654,1.4968,6.8911,41.9563,0.1693,-0.4666,-0.2383,350.49
18:38:20:340,1.6326,1.2914,7.1341,42.5163,0.0734,-0.038,-0.3416,350.57
18:38:20:361,1.1755,1.0792,7.1264,42.6302,0.0064,0.1983,-0.3672,350.88
18:38:20:382,0.8566,1.012,7.5706,42.6689,-0.0516,0.3101,-0.364,351.39
18:38:20:401,0.4816,0.9101,8.1082,42.7989,-0.0719,0.3335,-0.2942,351.89
18:38:20:420,0.3672,1.0314,8.4268,42.8927,-0.0644,0.3032,-0.1819,352.34
18:38:20:439,0.436,1.3902,8.6169,42.7398,-0.0665,0.2558,-0.0696,352.74
18:38:20:460,0.487,1.5815,8.7262,42.9759,-0.0958,0.251,0.0448,353.03
18:38:20:479,0.6067,1.9529,8.9576,42.9291,-0.115,0.1866,0.1359,353.18
18:38:20:499,0.8985,2.137,9.8428,42.8154,-0.0405,0.144,0.18,353.23
18:38:20:519,1.3112,2.2904,10.0655,42.4375,0.0474,0.2409,0.1588,353.11
18:38:20:539,1.4361,2.1946,9.9631,42.6386,-0.0202,0.3362,0.0922,352.93
18:38:20:561,1.5995,1.7038,10.9534,42.6104,-0.1139,0.3692,0.007,352.78
18:38:20:582,1.2701,1.0666,12.0396,42.471,-0.131,0.4884,-0.06,352.62
18:38:20:599,0.714,0.813,11.6653,42.4975,-0.1113,0.4778,-0.0749,352.49
18:38:20:619,0.2157,0.6791,11.3449,42.7239,-0.2199,0.4448,-0.0478,352.52
18:38:20:639,0.0198,0.5225,11.5777,42.7318,-0.3391,0.3825,-0.0249,352.56
18:38:20:660,-0.2961,0.2623,11.7565,42.9155,-0.4072,0.2558,-0.0121,352.57
18:38:20:680,-0.6294,-0.3131,12.365,43.1897,-0.4168,0.0695,0.031,352.55
18:38:20:699,-0.809,-1.0637,13.446,43.2542,-0.1794,-0.1184,0.1055,352.48
18:38:20:719,-0.9984,-1.7076,13.2257,43.4663,0.1985,-0.1525,0.2588,352.39
18:38:20:739,-0.7933,-1.5044,11.0033,43.387,0.3561,-0.0386,0.4606,352.28
18:38:20:759,-0.1046,-0.7644,9.1981,43.4433,0.2965,0.0178,0.5149,352.2
18:38:20:780,0.2642,-0.2392,7.8064,43.498,0.1016,-0.1104,0.4398,351.99
18:38:20:799,0.4761,-0.0919,7.6526,43.1262,-0.1661,-0.3377,0.3488,351.48
18:38:20:819,0.8957,-0.1859,8.9264,43.1646,-0.2454,-0.5411,0.2354,350.79
18:38:20:839,1.0419,-0.3405,9.5898,43.1873,-0.1815,-0.5352,0.1524,350.13
18:38:20:859,0.9456,-0.3685,9.4489,43.1821,-0.0634,-0.366,0.1263,349.63
18:38:20:880,0.8074,-0.1646,8.5229,43.4118,0.0266,-0.1717,0.1433,349.4
18:38:20:900,0.8772,0.1839,7.5252,43.7967,0.0671,-0.0285,0.1486,349.35
18:38:20:919,1.0426,0.6071,6.8522,43.9766,0.0548,0.0216,0.0991,349.34
18:38:20:939,1.0412,0.8263,6.828,44.1442,0.0809,-0.087,-0.0079,349.26
18:38:20:959,1.1533,1.0806,6.976,43.8952,0.1293,-0.2632,-0.1415,349.12
18:38:20:983,1.424,1.4005,7.0527,44.1652,0.1091,-0.4085,-0.3469,348.96
18:38:21:000,1.3588,1.3483,7.5735,44.5092,0.0303,-0.4948,-0.5545,348.9
18:38:21:020,1.1195,1.2171,8.3088,44.7736,-0.0277,-0.5251,-0.7031,349.01
18:38:21:040,0.6256,0.7883,8.9157,45.4181,-0.0798,-0.4719,-0.7387,349.37
18:38:21:062,-0.1043,0.2467,9.5929,45.9125,-0.156,-0.2701,-0.5822,350.02
18:38:21:084,-0.4731,-0.1026,10.6388,46.1273,-0.1198,0.0295,-0.2889,350.88
18:38:21:101,-0.3926,0.203,10.8069,46.492,0.0378,0.2382,-0.0132,351.83
18:38:21:119,0.0202,0.7764,10.2207,46.7502,0.1842,0.2499,0.1204,352.66
18:38:21:139,0.1453,1.0909,9.2725,46.7718,0.1437,0.1435,0.1848,353.13
18:38:21:159,0.3527,0.9384,9.7083,46.8517,0.0383,-0.0625,0.2391,353.16
18:38:21:184,0.5501,0.3995,10.8139,47.0775,0.041,-0.2169,0.3355,352.94
18:38:21:199,0.7638,-0.2503,11.6548,47.1399,0.108,-0.2478,0.525,352.59
18:38:21:219,1.2616,-0.3766,12.2208,47.2859,0.2534,-0.1381,0.7528,352.23
18:38:21:239,2.0827,0.1408,10.9906,47.1806,0.297,-0.0673,0.8502,351.84
18:38:21:259,2.7126,1.133,9.517,46.9054,-0.0091,-0.2542,0.7172,351.32
18:38:21:296,3.218,1.0765,10.4007,46.8287,-0.3588,-0.4187,0.4212,349.36
18:38:21:301,2.8617,0.1473,12.2488,46.886,-0.4408,-0.3255,0.1524,348.4
18:38:21:321,2.6468,-0.7356,13.1213,47.0739,-0.1677,-0.1131,0.0358,347.96
18:38:21:341,2.6775,-0.8635,11.6883,47.1104,0.0266,0.2419,-0.084,348
18:38:21:363,2.3964,-0.8969,9.4557,47.3521,-0.1022,0.4277,-0.2037,348.22
18:38:21:382,2.1146,-1.0288,8.5346,47.2973,-0.3758,0.3665,-0.3113,348.37
18:38:21:403,1.7976,-1.3788,9.6297,47.6318,-0.4903,0.1387,-0.4188,348.49
18:38:21:421,1.445,-1.746,11.1651,47.9568,-0.2944,0.0237,-0.4582,348.7
18:38:21:441,0.9026,-1.8528,11.1728,48.3467,-0.0383,0.2233,-0.3826,349.18
18:38:21:464,0.4495,-1.3643,9.7634,48.4159,0.1214,0.4953,-0.2043,349.89
18:38:21:481,0.6795,-0.3632,8.2163,48.6038,0.2023,0.547,-0.1212,350.51
18:38:21:501,0.9417,0.329,6.9039,48.9033,0.1937,0.3883,-0.1654,350.78
18:38:21:521,1.0587,0.5739,6.4272,48.9986,0.1182,0.2244,-0.2261,350.83
18:38:21:542,0.99,0.5351,6.796,49.0358,0.0601,0.1562,-0.2607,350.92
18:38:21:603,0.9768,0.5078,7.3703,49.375,0.0654,0.2302,-0.233,351.13
18:38:21:603,0.6723,0.5668,7.4105,49.3562,0.0793,0.3399,-0.1814,351.46
18:38:21:603,0.6366,0.8461,7.3374,49.5008,0.0474,0.3548,-0.1489,351.77
18:38:21:621,0.3611,0.8165,7.8159,49.5632,0.0112,0.3378,-0.1644,351.97
18:38:21:641,-0.0976,0.6299,8.5971,49.7014,0.0756,0.3096,-0.0792,352.12
18:38:21:664,0.2256,0.9226,8.3743,49.6483,0.099,0.2089,0.0118,352.29
18:38:21:681,0.8519,1.5754,7.7425,49.506,-0.0623,-0.0194,-0.0659,352.32
18:38:21:702,0.9054,1.6063,8.3592,49.5855,-0.2252,-0.3175,-0.2037,352.15
18:38:21:721,0.5854,1.1809,9.9088,49.6381,-0.1884,-0.4394,-0.192,352.05
18:38:21:741,0.5106,0.9662,11.2179,49.6935,0.0447,-0.1733,0.0321,352.24
18:38:21:764,0.6761,0.9961,11.2676,49.786,0.2592,0.2238,0.2684,352.65
18:38:21:782,1.0614,1.1917,10.734,49.7988,0.3337,0.3628,0.2987,352.85
18:38:21:801,1.0244,0.9816,10.4322,50.0077,0.3524,0.2478,0.2221,352.62
18:38:21:821,0.2062,0.2893,10.466,49.8671,0.3071,0.1349,0.2471,352.2
18:38:21:841,-0.3757,-0.1425,11.0194,49.9987,0.248,0.0657,0.435,351.87
18:38:21:864,0.4293,0.2498,11.1861,50.1412,0.1804,0.0972,0.6048,351.52
18:38:21:881,1.3678,1.0059,11.5358,50.2465,0.0756,0.0759,0.5303,351.02
18:38:21:902,1.2165,0.8922,12.3479,50.2362,0.1171,-0.013,0.3371,350.29
18:38:21:921,0.8029,0.2606,12.6416,50.2411,0.2741,-0.1743,0.2327,349.65
18:38:21:941,0.5316,-0.0557,12.2529,50.388,0.428,-0.2334,0.22,349.22
18:38:21:965,0.5004,-0.2723,11.3678,50.3327,0.4359,-0.1264,0.2338,348.96
18:38:21:981,1.0011,-0.1299,10.4913,50.0474,0.4061,-0.0024,0.2274,348.79
18:38:22:001,1.6198,0.3232,9.3753,50.2488,0.3359,0.0956,0.064,348.59
18:38:22:022,1.5024,0.5537,8.2525,50.2009,0.1293,0.1195,-0.1766,348.37
18:38:22:041,0.5717,0.1056,7.808,50.1456,-0.189,0.1211,-0.3214,348.27
18:38:22:064,-0.1395,-0.3834,8.2542,50.0643,-0.4498,0.0583,-0.3075,348.4
18:38:22:081,-0.4492,-0.6938,8.9888,50.1767,-0.5015,-0.0711,-0.208,348.67
18:38:22:102,-0.1575,-0.6416,8.9105,50.0804,-0.4259,-0.1227,-0.1329,348.93
18:38:22:121,0.2693,-0.1922,8.0321,50.0463,-0.4227,-0.0604,-0.1212,349.16
18:38:22:141,0.2466,-0.0709,7.6798,49.9292,-0.4669,-0.0402,-0.1478,349.36
18:38:22:161,0.1979,-0.1485,8.0279,50.3206,-0.387,-0.1929,-0.1314,349.5
18:38:22:182,0.4385,0.1889,8.2003,50.3532,-0.2523,-0.3393,-0.1303,349.61
18:38:22:201,0.8361,0.6394,7.9754,50.2634,-0.2124,-0.3452,-0.2069,349.73
18:38:22:221,0.816,0.8334,8.0527,50.4447,-0.223,-0.2754,-0.3219,349.9
18:38:22:241,0.5397,0.8006,8.1759,50.589,-0.231,-0.1669,-0.4199,350.19
18:38:22:265,-0.0427,0.6529,8.291,50.7054,-0.2172,-0.1578,-0.4412,350.63
18:38:22:281,-0.2818,0.5285,8.599,50.8688,-0.2172,-0.169,-0.3826,351.13
18:38:22:301,-0.5741,0.4469,9.3459,51.1119,-0.1693,-0.2057,-0.2873,351.64
18:38:22:321,-0.8461,0.1709,10.0812,51.5551,-0.0761,-0.1775,-0.06,352.07
18:38:22:342,-0.0301,0.6024,10.7544,51.8342,0.0862,-0.0498,0.1689,352.43
18:38:22:361,0.7605,1.26,10.3165,52.0509,0.2752,0.0466,0.2184,352.6
18:38:22:381,1.0845,1.6834,9.3718,52.4257,0.297,0.0381,0.1774,352.49
18:38:22:401,1.5059,1.8019,9.2679,52.6147,0.1437,-0.0056,0.0778,352.24
18:38:22:421,1.7507,1.4329,10.2005,52.8919,0.0266,-0.0498,-0.0648,351.99
18:38:22:441,1.2784,0.49,11.345,52.9713,0.0505,-0.0918,-0.0941,351.85
18:38:22:461,0.9788,-0.0896,11.8005,53.4057,0.1725,-0.0503,0.0342,351.92
18:38:22:481,1.3223,-0.0358,11.2512,53.3119,0.2534,0.0365,0.1774,352.07
18:38:22:502,2.0023,0.4173,9.8583,53.4394,0.1863,0.045,0.1784,352.09
18:38:22:521,2.568,0.5366,8.8214,53.2878,-0.0783,-0.2025,-0.0132,351.87
18:38:22:541,2.5379,-0.1153,9.6594,53.3371,-0.3311,-0.5145,-0.2751,351.49
18:38:22:561,1.8181,-0.8318,10.8949,53.3739,-0.4892,-0.6023,-0.4225,351.3
18:38:22:586,1.1766,-1.5453,12.2207,53.2478,-0.5371,-0.3963,-0.4023,351.54
18:38:22:601,1.0092,-2.0627,13.4833,53.2313,-0.2443,-0.0764,-0.2527,352.21
18:38:22:621,1.4422,-1.4179,12.2431,53.4493,0.1277,0.1908,-0.1202,352.88
18:38:22:641,2.2768,-0.482,9.5026,53.5842,0.1395,0.2622,-0.1436,353.4
18:38:22:666,2.7947,-0.1695,8.3172,53.8526,-0.1059,0.152,-0.3379,353.58
18:38:22:681,2.3632,-0.4475,8.9429,53.8366,-0.3093,0.062,-0.5077,353.63
18:38:22:702,1.3935,-0.8152,9.4957,54.073,-0.371,0.1717,-0.5104,353.93
18:38:22:721,0.4297,-0.7886,9.8473,54.2222,-0.2012,0.2867,-0.3629,354.57
18:38:22:742,0.0722,-0.211,8.7364,54.3861,0.0351,0.3064,-0.1707,355.25
18:38:22:761,0.2424,0.535,7.3037,54.7078,0.0889,0.2286,-0.0504,355.72
18:38:22:781,0.6413,0.9695,6.9819,54.7969,0.05,0.1046,-0.026,355.88
18:38:22:802,0.5413,0.9545,7.5322,54.6415,0.0985,0.012,-0.0201,355.86
18:38:22:822,0.3086,0.77,7.9474,54.6242,0.1927,-0.0082,0.039,355.85
18:38:22:841,0.2494,0.7705,7.9682,54.4975,0.264,0.0556,0.1311,355.88
18:38:22:861,0.4941,0.9929,7.718,54.5958,0.2534,0.1525,0.2178,355.88
18:38:22:881,1.1072,1.4091,7.557,54.5567,0.1458,0.2329,0.2013,355.77
18:38:22:902,1.3993,1.5402,7.8941,54.6726,0.016,0.2558,0.0544,355.54
18:38:22:921,0.9395,1.1542,8.5001,54.6118,-0.0649,0.2478,-0.0366,355.29
18:38:22:941,0.4776,0.773,9.0684,54.4662,-0.0602,0.2137,-0.0142,355.21
18:38:22:961,0.2886,0.6428,9.3312,54.5405,-0.0213,0.218,0.0805,355.22
18:38:22:982,0.3195,0.8456,9.55,54.7212,0.0314,0.2286,0.1902,355.24
18:38:23:001,0.5341,1.2,9.7953,54.517,0.1639,0.2483,0.2556,355.15
18:38:23:021,0.7764,1.4499,9.267,54.6568,0.1836,0.2616,0.2514,354.96
18:38:23:041,0.8826,1.5368,9.1995,54.704,0.0644,0.1121,0.1534,354.66
18:38:23:061,0.7555,1.1386,10.3819,54.8299,0.0197,-0.1876,0.0182,354.27
18:38:23:081,0.3776,0.2889,11.6048,54.7014,0.1166,-0.3383,-0.0025,353.93
18:38:23:101,0.158,-0.0877,11.6605,54.8072,0.1395,-0.1786,0.1348,353.86
18:38:23:121,0.561,0.1934,11.2235,55.0123,0.0101,0.0748,0.2604,353.96
18:38:23:142,0.9409,0.6856,11.1748,55.0411,-0.1432,0.227,0.2567,353.91
18:38:23:161,0.8383,0.7549,11.3541,55.0239,-0.2832,0.3101,0.1752,353.66
18:38:23:181,0.1818,0.2221,11.6055,55.2571,-0.3982,0.3042,0.13,353.38
18:38:23:201,-0.5659,-0.6809,12.5107,55.2744,-0.288,0.1435,0.2269,353.15
18:38:23:223,-0.6696,-1.1946,12.8257,55.3708,0.05,0.0141,0.4627,352.93
18:38:23:241,0.3121,-0.6682,11.2418,55.265,0.2811,0.0045,0.6389,352.65
18:38:23:261,1.5713,0.1927,9.6726,55.3574,0.2528,-0.0205,0.5378,352.15
18:38:23:281,1.6038,0.3102,8.793,55.327,0.0719,-0.0923,0.303,351.4
18:38:23:302,1.0901,-0.0398,9.0253,55.1671,-0.1065,-0.2025,0.1258,350.71
18:38:23:321,0.5032,-0.6043,9.8865,55.1655,-0.1182,-0.3303,0.0507,350.28
18:38:23:341,0.2574,-0.9168,10.2979,55.2892,-0.0341,-0.3478,0.0933,350.08
18:38:23:361,0.272,-0.859,10.1064,55.1895,0.0756,-0.2132,0.1918,350.03
18:38:23:382,0.5507,-0.4554,9.2035,54.9919,0.156,-0.0503,0.2647,350.02
18:38:23:401,0.8801,0.1376,8.1457,54.968,0.2012,0.0327,0.2711,349.91
18:38:23:422,1.0844,0.5217,6.9437,55.2824,0.1416,0.1004,0.2173,349.65
18:38:23:441,0.8585,0.5936,6.7611,55.2687,0.0564,0.0194,0.1391,349.36
18:38:23:461,0.3729,0.4441,6.8852,55.3341,0.0708,-0.1653,0.1151,349.05
18:38:23:481,0.2551,0.5032,6.8207,55.5131,0.0575,-0.4362,0.1124,348.8
18:38:23:502,0.4827,0.7614,7.0722,55.3552,0.0261,-0.729,0.0496,348.54
18:38:23:521,0.5166,0.5677,8.4543,55.3826,0.0788,-0.869,-0.0243,348.27
18:38:23:542,0.2945,0.3269,9.7219,55.3467,0.2555,-0.7247,0.0001,348.19
18:38:23:561,-0.046,-0.1796,9.8617,55.5471,0.3247,-0.2605,0.1689,348.37
18:38:23:581,0.4488,0.331,9.4264,55.6705,0.2656,0.1179,0.36,348.65
18:38:23:601,1.4572,1.3023,9.1794,55.6525,0.2938,0.1259,0.2812,348.62
18:38:23:676,1.3439,1.6701,8.6337,55.7734,0.2704,0.0807,0.1321,348.22
18:38:23:677,1.0576,2.0704,8.0778,55.8383,0.1208,-0.0215,0.0336,347.86
18:38:23:677,0.9174,2.1686,8.2578,55.7828,-0.0926,-0.2254,-0.0499,347.62
18:38:23:686,0.8509,1.8519,9.0736,55.8151,-0.2284,-0.4139,-0.0983,347.42
18:38:23:702,0.7769,1.1862,9.8316,55.9099,-0.338,-0.5289,-0.0653,347.36
18:38:23:721,0.6276,0.3863,11.1918,56.086,-0.2842,-0.5182,0.1252,347.4
18:38:23:741,2.0108,0.396,11.1417,56.1671,-0.1448,-0.5592,0.2524,347.51
18:38:23:761,3.1507,0.3693,10.0633,56.0123,-0.2236,-0.5916,0.1965,347.4
18:38:23:782,4.1556,0.2238,9.5686,56.1902,-0.5371,-0.6582,0.0539,347.09
18:38:23:802,4.5338,-0.6268,11.8283,56.3392,-0.8475,-0.6332,-0.216,346.74
18:38:23:821,3.598,-1.6992,14.641,56.4922,-0.7202,-0.4639,-0.3294,346.61
18:38:23:841,2.9075,-2.3011,15.8524,56.6656,-0.1629,-0.0758,-0.241,347.01
18:38:23:861,2.9194,-1.7155,13.1133,57.1373,0.2725,0.3266,-0.1431,347.82
18:38:23:882,3.5264,-1.0002,10.2477,57.2203,0.3013,0.5214,-0.2282,348.47
18:38:23:901,3.493,-0.9245,8.6044,57.4353,0.1453,0.522,-0.4124,348.76
18:38:23:921,2.8379,-1.162,8.1903,57.5037,0.001,0.3947,-0.5215,348.99
18:38:23:942,2.1648,-1.3113,8.2125,57.6285,-0.0431,0.3037,-0.5136,349.36
18:38:23:961,1.649,-1.2342,8.1675,57.5768,0.0362,0.209,-0.4199,349.9
18:38:23:981,1.4916,-0.7888,7.5041,57.6208,0.0442,0.1701,-0.3075,350.47
18:38:24:002,1.5646,-0.2429,7.3524,57.5827,0.0027,0.1541,-0.2522,350.93
18:38:24:022,1.601,0.1927,7.4414,57.5274,0.0191,0.1669,-0.2373,351.27
18:38:24:041,1.4563,0.4579,7.1068,57.385,0.0474,0.227,-0.2314,351.57
18:38:24:061,1.1555,0.6707,6.5864,57.5702,0.0452,0.2521,-0.1984,351.88
18:38:24:081,1.0049,1.0163,6.1338,57.6458,0.0681,0.0343,-0.1862,352.16
18:38:24:102,1.2607,1.3968,6.0777,57.939,0.0335,-0.3526,-0.257,352.27
18:38:24:121,1.6956,1.3937,6.6197,58.0803,-0.1741,-0.3718,-0.3778,352.29
18:38:24:141,1.6199,1.03,8.0425,58.2037,-0.388,-0.0939,-0.4507,352.54
18:38:24:161,1.187,0.4821,9.5369,58.1803,-0.4179,0.209,-0.405,353.07
18:38:24:184,0.7209,0.2732,10.3589,58.3455,-0.2246,0.3553,-0.2399,353.75
18:38:24:202,0.6852,0.6065,10.0911,58.5868,0.0287,0.3319,-0.0329,354.34
18:38:24:221,0.9409,1.1902,9.3328,58.5652,0.1405,0.2787,0.1273,354.67
18:38:24:241,1.2785,1.7123,9.0195,58.6497,0.1522,0.169,0.22,354.69
18:38:24:262,1.9352,1.9702,9.2031,58.6011,0.0761,-0.0258,0.2253,354.48
18:38:24:281,2.4685,1.6815,10.2841,58.4924,-0.0479,-0.1786,0.1603,354.1
18:38:24:301,2.5712,0.8185,12.0963,58.5647,-0.05,-0.1764,0.1124,353.73
18:38:24:321,2.4823,0.2342,13.0795,58.5537,0.0958,0.0242,0.1343,353.55
18:38:24:342,2.3817,0.0813,12.3513,58.6685,0.049,0.3772,0.1444,353.56
18:38:24:361,1.8837,-0.1996,12.4928,58.6734,-0.1224,0.6582,0.171,353.58
18:38:24:384,1.5236,-0.4356,13.4339,58.578,-0.1576,0.7429,0.1412,353.5
18:38:24:404,1.0455,-0.8977,14.1881,58.5862,-0.1017,0.9632,0.073,353.33
18:38:24:422,-0.4835,-1.5868,13.7896,58.4165,0.0027,1.2486,0.1364,353.3
18:38:24:441,-1.3267,-1.9351,12.3699,58.2238,0.2933,1.1229,0.4073,353.38
18:38:24:461,-0.8078,-1.2275,9.7759,57.8594,0.5254,0.688,0.6309,353.19
18:38:24:483,0.0919,-0.2894,7.4105,57.6615,0.4684,0.2601,0.6394,352.51
18:38:24:502,0.5873,0.1665,6.2361,57.3673,0.1954,-0.1253,0.5085,351.54
18:38:24:521,0.7296,0.0236,7.0476,57.1835,-0.0586,-0.5283,0.3238,350.56
18:38:24:541,0.644,-0.518,8.2864,56.9229,-0.1623,-0.7253,0.1832,349.73
18:38:24:561,0.2992,-1.1478,9.3511,56.8067,-0.2097,-0.5948,0.1742,349.26
18:38:24:584,0.2321,-1.29,9.9357,56.5725,-0.1496,-0.3441,0.2365,349.13
18:38:24:601,0.2737,-1.0364,9.6282,56.4183,-0.0671,-0.112,0.2812,349.08
18:38:24:621,0.132,-0.6523,8.8144,56.3814,-0.0021,-0.0247,0.2993,348.95
18:38:24:641,0.1528,-0.2365,7.9752,56.2025,0.049,-0.062,0.3179,348.69
18:38:24:661,0.4736,0.3006,7.3081,56.0911,0.0628,-0.0859,0.3009,348.34
18:38:24:685,0.8274,0.7458,6.8,55.9007,-0.009,-0.0854,0.2131,347.97
18:38:24:702,1.055,0.7961,7.3831,55.8147,-0.1043,-0.1296,0.0997,347.61
18:38:24:721,0.7826,0.677,8.6384,55.7299,-0.2496,-0.0625,-0.0153,347.32
18:38:24:741,-0.4657,0.0271,10.3004,55.7005,-0.2081,0.0141,0.073,347.21
18:38:24:760,-0.6951,-0.2824,11.1696,55.6318,0.0027,0.2595,0.3711,347.27
18:38:24:784,0.6624,0.7118,10.8127,55.591,0.1581,0.5539,0.434,347.36
18:38:24:801,1.6006,1.8102,9.6858,55.5296,0.1916,0.8243,0.2226,347.12
18:38:24:829,0.8663,1.7953,8.9993,55.4304,0.1719,0.8839,-0.0504,346.76
18:38:24:841,-0.438,1.0286,9.2563,55.1378,0.2981,0.6401,-0.0393,346.53
18:38:24:861,-0.8156,1.0945,8.9019,55.1666,0.4615,0.2899,0.1156,346.48
18:38:24:885,-0.248,1.4209,8.5462,55.0198,0.363,0.144,0.1795,346.36
18:38:24:905,0.3067,1.4074,8.7155,55.0237,0.0788,0.2478,0.1497,346.12
18:38:24:921,0.2842,0.7218,9.1229,54.8345,-0.1581,0.2143,0.1151,345.91
18:38:24:942,0.1995,0.0543,10.0361,54.6797,-0.1607,-0.1764,0.1635,345.67
18:38:24:961,0.8888,-0.0587,10.8672,54.3468,0.0815,-0.622,0.2317,345.33
18:38:24:984,1.8041,0.8025,10.4505,54.285,0.231,-0.795,0.1651,344.97
18:38:25:001,2.6561,0.8824,9.7334,54.2938,0.0314,-0.7263,-0.0925,344.68
18:38:25:021,2.5502,0.3848,10.0612,54.2915,-0.2997,-0.639,-0.4161,344.52
18:38:25:042,1.6768,-0.3822,11.9241,54.3697,-0.3902,-0.4043,-0.6669,344.62
18:38:25:061,0.4871,-1.31,11.647,54.3962,-0.3641,-0.292,-0.6418,345.23
18:38:25:083,0.1885,-1.8825,11.4762,54.5111,-0.1219,-0.0263,-0.4252,346.07
18:38:25:101,0.868,-1.8213,10.0199,54.6879,-0.0154,0.062,-0.2495,347.01
18:38:25:121,1.7051,-1.4308,8.319,54.8066,-0.1357,-0.005,-0.29,347.57
18:38:25:142,1.8984,-1.1021,7.856,55.1447,-0.469,-0.0891,-0.4752,347.79
18:38:25:161,1.3224,-1.1408,8.4095,55.3358,-0.7857,-0.0274,-0.6546,348.01
18:38:25:184,0.3582,-1.5392,9.4153,55.6779,-0.8347,0.0194,-0.6679,348.51
18:38:25:201,-0.3683,-1.8381,9.8187,55.9477,-0.5866,0.0476,-0.4401,349.28
18:38:25:221,-0.2604,-1.2838,9.2802,56.2891,-0.2411,0.0338,-0.1324,350.13
18:38:25:241,0.5173,-0.3029,8.4402,56.5296,-0.0362,-0.029,-0.0089,350.7
18:38:25:261,0.9417,0.2917,7.9732,56.9202,0.0362,-0.0327,-0.0659,350.87
18:38:25:284,0.8425,0.436,7.5901,56.8368,0.0048,0.1733,-0.1143,350.89
18:38:25:302,0.1308,0.3064,7.2234,57.1004,-0.1895,0.7083,-0.0925,351.07
18:38:25:321,-0.2019,-0.1109,6.7803,56.9846,-0.5387,1.3518,0.0161,351.45
18:38:25:341,-0.2053,0.145,7.4705,57.0857,-0.7671,1.4258,0.1667,351.87
18:38:25:361,0.0496,0.5515,8.7788,56.9272,-0.692,0.9696,0.2168,351.95
18:38:25:385,0.3824,0.6799,10.1816,56.9864,-0.3045,0.3713,0.0997,351.65
18:38:25:401,0.2732,0.4643,10.4597,56.954,0.2002,-0.2723,-0.0616,351.21
18:38:25:421,-0.1295,0.0587,10.3809,56.9406,0.5414,-0.6875,-0.0829,350.85
18:38:25:441,-0.0506,0.0186,10.6594,56.6738,0.5483,-0.4011,0.0629,350.73
18:38:25:462,0.3696,0.2748,10.8567,56.6206,0.3247,0.5129,0.229,350.92
18:38:25:481,0.5524,0.7193,10.7252,56.4522,0.1655,1.1858,0.327,351.26
18:38:25:501,0.6059,1.0697,10.0259,56.3375,0.2151,1.1107,0.2918,351.36
18:38:25:522,0.4693,1.2952,9.6104,56.1594,0.2811,0.383,0.122,351.02
18:38:25:542,0.1261,0.7681,10.3946,56.3101,0.3582,-0.3707,-0.093,350.37
18:38:25:561,-0.393,-0.0309,10.928,56.1216,0.3971,-0.6715,-0.1707,349.86
18:38:25:581,-0.5848,-0.4008,10.7543,55.767,0.2992,-0.6896,-0.1202,349.81
18:38:25:603,-0.3158,-0.2925,10.9425,55.522,0.0958,-0.5049,-0.0291,349.97
18:38:25:622,-0.0322,-0.1717,11.1125,55.4111,-0.1086,-0.2824,-0.0217,350.16
18:38:25:641,0.2407,-0.3435,11.5385,55.5985,-0.2044,-0.2291,-0.1324,350.27
18:38:25:661,0.0583,-0.7721,11.7804,55.7804,-0.1522,-0.3345,-0.3081,350.31
18:38:25:727,-0.0372,-1.2836,12.2578,56.0652,0.1086,-0.4889,-0.4992,350.4
18:38:25:727,-0.0422,-1.631,11.7587,56.0423,0.5323,-0.5214,-0.6317,350.7
18:38:25:727,-0.2146,-1.9899,10.2585,56.0597,0.8336,-0.3691,-0.603,351.31
18:38:25:741,-0.3046,-2.2232,9.2794,56.1674,0.9396,-0.0902,-0.4257,352.16
18:38:25:761,-0.28,-1.4057,7.7714,56.5194,0.7942,-0.2845,-0.2021,353.01
18:38:25:784,-0.1809,-0.6309,7.5749,56.6694,0.2662,-0.6646,-0.0148,353.38
18:38:25:801,0.4489,-0.6731,8.1856,56.6397,-0.272,-0.5975,0.0198,353.34
18:38:25:821,0.6664,-0.949,9.0554,56.5672,-0.5525,-0.0269,0.0001,353.33
18:38:25:841,0.1563,-0.891,9.0299,56.4406,-0.6329,0.2797,0.1092,353.58
18:38:25:861,0.0087,-0.6335,8.6025,56.3443,-0.5626,0.4379,0.3083,353.73
18:38:25:881,0.2753,-0.376,7.9061,56.4314,-0.4812,0.4198,0.3967,353.69
18:38:25:901,0.2835,-0.3018,7.5222,56.5126,-0.4477,0.2483,0.3658,353.34
18:38:25:921,0.1519,-0.3758,7.6233,56.471,-0.4216,0.0897,0.3626,352.81
18:38:25:942,0.3917,-0.3503,7.8903,56.3605,-0.3918,0.0663,0.3637,352.31
18:38:25:961,0.4183,-0.1268,7.9687,56.3875,-0.3971,0.1381,0.328,351.89
18:38:25:981,0.4688,0.1261,8.0423,56.4661,-0.4759,0.1461,0.2508,351.51
18:38:26:001,0.583,0.2915,8.7049,56.4517,-0.5568,0.0988,0.1407,351.14
18:38:26:021,0.3455,0.1862,9.6357,56.7004,-0.4972,0.0642,0.0816,350.82
18:38:26:041,0.1777,-0.0161,10.2341,56.5853,-0.322,0.062,0.0986,350.66
18:38:26:061,0.1696,0.0816,10.542,56.8657,-0.0963,0.0535,0.171,350.6
18:38:26:081,0.4172,0.4781,10.5407,56.5111,0.1224,0.1414,0.2216,350.52
18:38:26:102,0.8565,0.7713,9.9761,56.5455,0.124,0.3676,0.1939,350.41
18:38:26:122,0.8484,0.9821,9.7379,56.5803,-0.0463,0.506,0.1018,350.29
18:38:26:141,0.3948,0.8624,10.128,56.2371,-0.1937,0.3703,-0.0137,350.14
18:38:26:161,-0.0125,0.1988,11.099,56.2476,-0.174,0.1168,-0.1186,349.98
18:38:26:181,-0.4418,-0.6801,11.7806,56.1686,-0.0479,-0.0646,-0.1015,349.9
18:38:26:201,-0.0834,-1.2715,11.7755,55.9875,0.058,-0.0998,-0.018,349.97
18:38:26:221,0.6047,-1.3897,11.2088,55.9984,-0.0122,0.0072,-0.0222,350.08
18:38:26:241,1.0315,-1.2673,11.1007,55.7331,-0.1804,-0.0396,-0.2149,350.14
18:38:26:261,0.6842,-1.6126,11.4374,55.6175,-0.2608,-0.1227,-0.4491,350.11
18:38:26:281,0.0194,-2.2214,11.8565,55.5162,-0.2092,-0.2062,-0.553,350.29
18:38:26:302,-0.8116,-2.9114,11.9837,55.4596,-0.0426,-0.2398,-0.5077,350.75
18:38:26:321,-1.3449,-3.2526,11.6863,55.6481,0.2231,-0.1158,-0.2591,351.36
18:38:26:341,-0.6664,-2.8842,10.1235,55.7988,0.3593,0.0562,-0.0025,352.03
18:38:26:361,0.5998,-2.0691,8.6377,55.551,0.2364,0.0146,-0.0047,352.43
18:38:26:381,0.9415,-1.6052,8.5385,55.4432,0.016,-0.1269,-0.1963,352.4
18:38:26:404,0.4275,-1.7581,9.1918,55.3911,-0.0868,-0.2281,-0.3246,352.3
18:38:26:422,-0.1455,-1.867,9.5043,55.3387,-0.0489,-0.244,-0.2942,352.44
18:38:26:441,-0.2671,-1.6254,9.3276,55.5528,0.0538,-0.1035,-0.1574,352.79
18:38:26:461,0.1007,-1.1049,8.5663,55.5119,0.091,0.136,-0.0334,353.19
18:38:26:481,0.6126,-0.4876,7.7247,55.6224,0.0538,0.2861,-0.0004,353.5
18:38:26:501,0.7883,0.0274,7.3033,55.566,0.0522,0.2707,-0.0606,353.62
18:38:26:522,0.733,0.2122,7.0996,55.4377,0.0841,0.2132,-0.1383,353.64
18:38:26:541,0.4184,0.2204,6.9089,55.5074,0.065,0.1999,-0.1841,353.7
18:38:26:561,0.1092,0.167,7.0193,55.4382,0.0032,0.2138,-0.1766,353.87
18:38:26:581,-0.0359,0.1257,7.4172,55.345,-0.0569,0.2334,-0.1234,354.1
18:38:26:601,-0.0213,0.2008,8.0932,55.408,-0.0569,0.2138,-0.0536,354.32
18:38:26:621,0.1939,0.449,8.7315,55.269,-0.0037,0.1781,-0.0153,354.48
18:38:26:641,0.5209,0.6931,9.4457,55.0309,-0.0021,0.2457,-0.0158,354.55
18:38:26:661,1.0868,0.9913,10.6916,54.8727,-0.0527,0.4815,-0.1164,354.61
18:38:26:681,0.4946,0.5554,11.7289,54.7207,0.0298,0.7232,-0.2027,354.77
18:38:26:701,-1.0306,-0.3457,11.8027,54.553,0.3668,0.7274,0.0044,355.07
18:38:26:721,-1.5645,-0.2749,10.8551,54.2394,0.7298,0.5826,0.3264,355.39
18:38:26:742,-0.7991,0.5709,9.1891,54.3278,0.6963,0.49,0.41,355.39
18:38:26:761,-0.2611,1.1216,8.1146,54.1622,0.2923,0.3186,0.2162,354.96
18:38:26:781,-0.5496,0.3822,9.0645,53.9006,-0.0218,0.0285,0.0086,354.46
18:38:26:802,-1.6907,-0.888,10.2639,53.7242,-0.0319,-0.1275,0.0736,354.07
18:38:26:822,-1.8704,-1.2551,9.9273,53.7146,-0.0436,-0.2691,0.32,353.98
18:38:26:841,-1.1281,-0.9393,10.1269,53.3849,-0.2113,-0.342,0.4137,353.82
18:38:26:861,-0.4827,-0.5891,10.9083,53.0043,-0.3582,-0.2589,0.3376,353.42
18:38:26:881,-0.3633,-0.749,11.5618,52.7993,-0.4088,-0.2041,0.1422,352.96
18:38:26:902,-1.0743,-1.4528,11.8815,52.7011,-0.3652,-0.1818,0.0395,352.58
18:38:26:923,-1.7358,-2.2133,11.7957,52.4485,-0.1906,-0.1322,0.1007,352.42
18:38:26:941,-1.8575,-2.4441,10.7939,52.4152,0.0133,-0.046,0.3003,352.4
18:38:26:961,-1.3243,-1.7492,9.1401,52.2013,0.0548,0.0173,0.4505,352.34
18:38:26:982,-0.4573,-0.7295,8.1043,52.0657,-0.0937,0.0104,0.3626,352.03
18:38:27:002,0.1137,-0.3038,8.038,52.084,-0.3199,-0.029,0.0688,351.5
18:38:27:021,0.1909,-0.5189,8.5353,52.0619,-0.4998,-0.0955,-0.2905,351.04
18:38:27:042,-0.3851,-1.1917,9.2446,52.1793,-0.5744,-0.0652,-0.5439,350.9
18:38:27:061,-1.1228,-1.7558,9.6018,52.139,-0.5515,0.1366,-0.5849,351.22
18:38:27:081,-1.7322,-2.101,9.0836,52.0929,-0.569,0.4629,-0.4518,351.94
18:38:27:103,-1.6261,-2.0545,8.4497,51.9386,-0.6132,0.7072,-0.232,352.8
18:38:27:121,-0.8517,-1.549,8.1443,51.8324,-0.602,0.777,-0.1266,353.53
18:38:27:142,-0.6359,-1.099,7.9442,51.8136,-0.5286,0.6875,-0.1495,353.95
18:38:27:161,-1.2966,-1.1023,8.1421,51.6352,-0.3513,0.4176,-0.1116,354.17
18:38:27:181,-1.4739,-1.2403,8.1441,51.4536,-0.0862,0.1477,0.0118,354.32
18:38:27:203,-1.1956,-0.9555,7.8442,51.4798,0.0485,-0.0598,0.0698,354.39
18:38:27:221,-1.1566,-0.7395,7.9569,51.3436,0.0469,-0.2275,-0.0025,354.29
18:38:27:241,-1.3108,-1.0193,8.7168,51.3679,-0.0058,-0.2637,-0.067,354.11
18:38:27:261,-1.6687,-1.4427,9.7818,51.3404,-0.008,-0.1679,-0.0329,354.05
18:38:27:281,-1.8703,-1.6245,10.5989,51.1938,0.0926,-0.0998,0.0789,354.13
18:38:27:302,-1.8571,-1.6335,11.0607,51.3038,0.2859,-0.0598,0.2312,354.18
18:38:27:321,-1.7768,-1.21,10.9416,51.2961,0.4573,0.0221,0.3658,354.11
18:38:27:341,-1.2312,-0.5209,10.2751,51.3264,0.4796,0.1914,0.386,353.88
18:38:27:361,-0.7189,-0.023,9.7296,51.2221,0.3311,0.2052,0.229,353.56
18:38:27:382,-1.0067,-0.5144,10.1965,51.0307,0.2321,-0.0268,0.0225,353.15
18:38:27:402,-1.8698,-1.6526,11.3986,51.0508,0.3796,-0.3372,0.065,352.79
18:38:27:421,-1.8511,-2.1211,11.7405,51.0625,0.6404,-0.4836,0.2657,352.6
18:38:27:441,-0.7594,-1.573,10.6299,50.978,0.5366,-0.3116,0.2966,352.42
18:38:27:461,0.2307,-0.8699,9.7084,50.924,-0.0713,-0.0769,0.0001,352.16
18:38:27:481,-0.3685,-1.4123,11.1357,50.7569,-0.6446,0.1227,-0.4119,351.88
18:38:27:504,-1.9292,-3.1653,12.7959,50.5746,-0.5871,0.1658,-0.4795,351.94
18:38:27:521,-2.8878,-4.3042,12.7038,50.4982,-0.1181,0.0897,-0.0978,352.45
18:38:27:541,-1.7133,-3.7244,11.0735,50.693,0.3412,0.0626,0.3914,353
18:38:27:561,0.6808,-1.9303,9.0389,50.5001,0.4727,0.0285,0.4877,353.14
18:38:27:581,2.2307,-0.6198,7.6619,50.414,0.3354,0.0072,0.1359,352.69
18:38:27:604,2.0599,-0.3976,7.2299,50.275,0.0479,-0.0316,-0.3698,352.11
18:38:27:621,0.6068,-1.187,7.7054,50.0312,-0.1714,-0.1099,-0.7153,351.91
18:38:27:641,-1.0634,-2.1137,8.5191,50.0525,-0.2225,-0.1988,-0.7244,352.27
18:38:27:661,-1.9678,-2.4459,9.1243,50.0123,-0.1011,-0.2068,-0.488,353.03
18:38:27:681,-1.9548,-2.0513,8.8355,49.9847,0.0048,-0.104,-0.1963,353.84
18:38:27:703,-1.3338,-1.2964,8.2703,50.0371,-0.025,0.0317,-0.0339,354.44
18:38:27:721,-0.7981,-0.5631,8.079,50.0014,-0.0654,0.1382,-0.0153,354.73
18:38:27:788,-0.8857,-0.3502,8.0645,50.2948,-0.0234,0.1137,-0.0409,354.83
18:38:27:789,-1.1752,-0.4404,8.0424,50.3458,0.1118,0.0104,-0.0047,354.85
18:38:27:789,-1.1824,-0.3926,7.826,50.448,0.1805,-0.0764,0.0528,354.86
18:38:27:807,-0.9447,-0.2147,7.8783,50.8761,0.1304,-0.0545,0.089,354.83
18:38:27:821,-0.5576,-0.003,8.1592,50.9872,0.0644,0.0125,0.0773,354.77
18:38:27:841,-0.3271,0.1059,8.3646,51.0411,0.0277,0.07,0.0214,354.7
18:38:27:861,-0.4057,0.0044,8.4026,51.0411,0.0032,0.094,-0.0185,354.64
18:38:27:881,-0.6839,-0.1407,8.6278,50.9458,-0.0143,0.094,0.0134,354.63
18:38:27:904,-0.7987,0.0647,9.0775,51.0402,0.0154,0.0945,0.0816,354.67
18:38:27:921,-0.7752,0.3874,9.4818,50.7601,0.0021,0.1488,0.1327,354.67
18:38:27:942,-0.8025,0.7325,9.9639,50.7852,-0.033,0.3713,0.1811,354.62
18:38:27:961,-0.6426,1.0012,10.2742,50.7757,-0.0484,0.5156,0.1614,354.58
18:38:27:981,-0.5456,0.8963,10.4874,50.6342,-0.0186,0.4938,0.0667,354.51
18:38:28:004,-0.9639,0.2357,10.5572,50.3731,0.0421,0.2468,-0.0451,354.37
18:38:28:021,-1.8523,-0.8072,11.1556,50.4057,0.0969,-0.0316,-0.0132,354.21
18:38:28:041,-2.2117,-1.7827,11.5972,50.3373,0.1608,-0.0891,0.1939,354.15
18:38:28:061,-1.843,-1.7074,11.0918,50.2269,0.0857,-0.0625,0.3983,354.14
18:38:28:082,-1.1497,-1.2096,11.2142,49.9298,-0.1245,-0.1062,0.4281,353.93
18:38:28:105,-0.9239,-1.1246,12.0951,50.0042,-0.2108,-0.0726,0.3067,353.45
18:38:28:121,-1.4999,-1.6689,12.1508,49.9546,-0.1213,-0.1168,0.2104,352.97
18:38:28:141,-2.1922,-2.4355,11.7322,49.9003,-0.0213,-0.1551,0.2913,352.58
18:38:28:161,-2.156,-2.7228,11.1663,49.8805,0.1235,-0.1078,0.4957,352.31
18:38:28:181,-1.3333,-2.26,10.0569,49.9521,0.263,-0.0971,0.6149,351.99
18:38:28:204,-0.3034,-1.6116,8.565,49.7639,0.2342,-0.145,0.5287,351.42
18:38:28:221,0.1861,-1.1892,7.6101,49.734,-0.0085,-0.218,0.2727,350.68
18:38:28:242,0.0457,-1.3374,7.9704,49.9096,-0.2821,-0.3148,-0.0105,350.01
18:38:28:261,-0.4577,-1.855,8.8956,49.8681,-0.4178,-0.3558,-0.1979,349.61
18:38:28:281,-1.0302,-2.2152,9.7442,49.9677,-0.4476,-0.2275,-0.2229,349.56
18:38:28:301,-1.4712,-2.3395,10.0589,50.0842,-0.3492,0.0093,-0.1111,349.81
18:38:28:321,-1.5748,-2.0717,9.4997,49.8549,-0.2007,0.1823,0.0533,350.17
18:38:28:342,-1.284,-1.549,8.5734,49.7552,-0.1102,0.2164,0.1704,350.4
18:38:28:361,-1.0712,-1.0462,8.1036,49.7354,-0.059,0.103,0.1827,350.39
18:38:28:381,-1.2059,-0.8115,7.9621,49.7697,0.0575,-0.0646,0.1917,350.17
18:38:28:404,-1.2428,-0.6659,7.6382,49.7901,0.1677,-0.2201,0.237,349.9
18:38:28:422,-0.9022,-0.2822,7.4137,49.668,0.1629,-0.2941,0.2317,349.6
18:38:28:441,-0.7073,-0.0073,7.7537,49.6683,0.0916,-0.3068,0.1321,349.26
18:38:28:461,-0.8661,-0.0902,8.4885,49.5037,0.0735,-0.2691,0.0363,348.94
18:38:28:481,-1.1029,-0.2837,8.8996,49.3071,0.1022,-0.1993,0.0086,348.77
18:38:28:505,-1.1007,-0.3106,9.2016,49.4239,0.1475,-0.1605,0.0118,348.73
18:38:28:521,-0.8756,-0.1471,9.479,49.3299,0.2156,-0.1509,0.0028,348.72
18:38:28:541,-0.6977,0.0165,9.5657,49.3983,0.2641,-0.1078,-0.0254,348.7
18:38:28:561,-0.5968,0.2192,9.5617,49.3338,0.2678,0.0099,-0.0579,348.7
18:38:28:581,-0.552,0.4336,9.3646,49.2816,0.2129,0.1339,-0.1298,348.78
18:38:28:601,-0.6814,0.4182,9.2514,49.1025,0.1182,0.127,-0.225,348.9
18:38:28:621,-1.1312,-0.0709,9.7078,49.2555,0.0357,0.0019,-0.2751,349.05
18:38:28:641,-1.5672,-0.7371,10.7112,49.1454,0.0474,-0.1381,-0.2181,349.25
18:38:28:662,-1.4435,-1.3537,11.4094,49.115,0.107,-0.1668,-0.0739,349.49
18:38:28:681,-0.5621,-1.655,11.1409,49.1217,0.0548,-0.0354,0.0118,349.73
18:38:28:701,0.7181,-1.7219,10.5605,49.0267,-0.2416,0.1099,-0.1,349.86
18:38:28:721,0.7162,-2.0473,10.6273,48.9029,-0.5578,0.1898,-0.3267,349.9
18:38:28:741,-0.3918,-2.5142,10.9452,48.8722,-0.6169,0.1073,-0.4044,350.04
18:38:28:761,-1.3625,-2.7947,10.9553,49.022,-0.4679,-0.095,-0.3171,350.38
18:38:28:781,-1.332,-2.7847,10.9054,48.9982,-0.3194,-0.2329,-0.1702,350.76
18:38:28:801,-0.6663,-2.3736,10.9673,48.922,-0.1783,-0.2345,-0.0866,351.06
18:38:28:821,0.1221,-1.847,10.6506,48.953,-0.0708,-0.1466,-0.1388,351.23
18:38:28:841,0.6909,-1.5451,10.0525,48.8426,-0.0431,-0.0332,-0.3076,351.34
18:38:28:861,0.5265,-1.618,9.534,48.8514,-0.0777,0.0322,-0.4886,351.53
18:38:28:881,-0.0803,-1.9149,9.5451,48.792,-0.1075,0.0812,-0.5583,351.89
18:38:28:905,-0.8455,-2.2588,9.7622,48.8204,-0.0085,0.1392,-0.4561,352.47
18:38:28:921,-1.1565,-2.0217,9.2529,48.7893,0.1384,0.2169,-0.2612,353.16
18:38:28:941,-0.8081,-1.2275,8.2487,48.6381,0.1661,0.2792,-0.1303,353.76
18:38:28:961,-0.4972,-0.4992,7.6744,48.64,0.1251,0.309,-0.1133,354.13
18:38:28:982,-0.4109,-0.1019,7.4442,48.4381,0.1102,0.2851,-0.1447,354.34
18:38:29:001,-0.5142,0.107,7.3048,48.3277,0.1139,0.2255,-0.1734,354.5
18:38:29:023,-0.7601,0.0683,7.2002,48.3042,0.106,0.1461,-0.1734,354.67
18:38:29:041,-0.8572,0.0092,7.3548,47.9827,0.0884,0.0785,-0.1335,354.85
18:38:29:062,-0.6659,0.1014,7.548,47.9311,0.0713,0.0471,-0.1181,355.04
18:38:29:081,-0.4805,0.1966,7.7124,47.6466,0.0357,0.0136,-0.1553,355.19
18:38:29:106,-0.4505,0.0807,8.0794,47.6505,-0.0202,0.0019,-0.2112,355.31
18:38:29:122,-0.6905,-0.2184,8.6716,47.2277,-0.0601,-0.0215,-0.2176,355.48
18:38:29:142,-1.0779,-0.4124,9.5088,47.1161,-0.0495,-0.0359,-0.1452,355.71
18:38:29:161,-1.4229,-0.4332,10.3348,46.9087,0.0644,-0.0077,0.0139,355.95
18:38:29:181,-1.3434,-0.0624,10.5656,46.6407,0.2114,0.0759,0.1917,356.13
18:38:29:201,-1.0872,0.529,9.9666,46.4192,0.2241,0.2335,0.287,356.17
18:38:29:222,-0.6558,0.8782,9.7423,46.2137,0.1571,0.2138,0.253,356.05
18:38:29:241,-0.6667,0.4916,10.1318,45.9375,0.1251,-0.0428,0.1178,355.74
18:38:29:261,-1.3133,-0.533,10.9724,45.818,0.1389,-0.2872,0.0933,355.34
18:38:29:281,-1.8373,-1.2901,11.6643,45.3702,0.1943,-0.3425,0.2359,355.07
18:38:29:301,-1.5745,-1.2393,11.6233,45.4912,0.1304,-0.218,0.3914,354.91
18:38:29:321,-0.7584,-1.0129,11.8124,45.3278,-0.1,-0.0886,0.3658,354.68
18:38:29:341,-0.4517,-1.2256,13.0028,45.2014,-0.2528,-0.0625,0.1582,354.27
18:38:29:361,-1.1866,-2.3455,13.9493,45.0767,-0.0878,-0.0801,0.0469,353.85
18:38:29:381,-1.995,-3.4278,13.4436,44.8557,0.2667,0.0269,0.1944,353.65
18:38:29:401,-1.9575,-3.6283,11.0795,44.6075,0.494,0.21,0.4867,353.65
18:38:29:421,-0.9921,-2.782,8.5881,44.4571,0.4126,0.3032,0.6352,353.55
18:38:29:443,-0.1957,-1.791,7.165,43.9989,0.1725,0.1871,0.5521,353.06
18:38:29:462,0.1803,-1.2821,6.8938,43.7217,-0.1224,-0.062,0.3227,352.3
18:38:29:481,0.1842,-1.4355,7.9372,43.3451,-0.3226,-0.3446,0.0874,351.54
18:38:29:501,-0.1827,-1.7453,9.1451,42.8876,-0.4061,-0.4607,-0.0739,351
18:38:29:522,-0.7518,-2.1474,10.2396,42.5104,-0.3997,-0.3579,-0.1069,350.8
18:38:29:542,-1.1081,-2.2153,10.489,42.2188,-0.3087,-0.1397,-0.0127,350.89
18:38:29:561,-1.2871,-1.9534,10.0351,41.9612,-0.2054,0.0301,0.1268,351.09
18:38:29:581,-1.1819,-1.4928,9.3734,41.837,-0.0452,0.07,0.2758,351.19
18:38:29:601,-0.8215,-0.9318,8.4286,41.5828,0.1166,0.0104,0.3844,351.09
18:38:29:623,-0.3887,-0.3084,7.5895,41.4031,0.1959,-0.0519,0.4159,350.77
18:38:29:641,0.0016,0.1952,7.1016,41.2786,0.1975,-0.0657,0.3695,350.31
18:38:29:661,0.2737,0.5379,6.9149,41.0917,0.1501,-0.0588,0.2556,349.82
18:38:29:681,0.2032,0.5649,7.1081,40.8849,0.0841,-0.0497,0.1098,349.38
18:38:29:701,-0.0793,0.3488,7.7286,40.762,0.049,-0.0678,-0.0095,349.08
18:38:29:722,-0.3741,0.0854,8.408,40.4355,0.0873,-0.0982,-0.084,348.93
18:38:29:741,-0.6591,-0.1532,8.9216,40.2678,0.1581,-0.0976,-0.1117,348.92
18:38:29:761,-0.711,-0.2035,9.1725,39.8476,0.2151,-0.0471,-0.1138,349.01
18:38:29:782,-0.7232,-0.0863,9.3392,39.7967,0.2417,0.0684,-0.125,349.16
18:38:29:847,-0.6792,0.1819,9.0851,39.7284,0.2114,0.1759,-0.1766,349.35
18:38:29:847,-0.7963,0.2006,9.0042,39.3833,0.0958,0.2084,-0.2671,349.55
18:38:29:847,-1.2221,-0.0062,9.5305,39.0747,-0.0021,0.0892,-0.3358,349.77
18:38:29:861,-1.7375,-0.6419,10.366,38.8781,0.0208,-0.2494,-0.3304,350.02
18:38:29:881,-1.5977,-1.1925,11.1719,38.6281,0.0692,-0.5155,-0.2378,350.24
18:38:29:901,-0.5288,-1.9984,11.6454,38.525,-0.0149,-0.5453,-0.1697,350.47
18:38:29:921,0.7672,-2.6514,12.1421,38.2634,-0.2395,-0.293,-0.1553,350.68
18:38:29:942,1.1287,-2.5603,12.2331,38.1888,-0.4429,-0.0822,-0.1692,350.94
18:38:29:961,0.4651,-2.2252,11.9103,38.1191,-0.5456,-0.0087,-0.1734,351.19
18:38:29:981,-0.2946,-2.1628,11.6608,37.8493,-0.4615,-0.1514,-0.1457,351.4
18:38:30:001,-0.7333,-2.1055,11.7014,37.6,-0.206,-0.3569,-0.0153,351.53
18:38:30:023,-0.3858,-1.7452,11.5204,37.4956,0.1001,-0.3808,0.113,351.6
18:38:30:041,0.373,-1.1824,10.8406,37.5357,0.2971,-0.2041,0.1523,351.6
18:38:30:061,1.1604,-0.505,9.8569,37.5476,0.2971,-0.0966,-0.0015,351.54
18:38:30:081,1.4862,-0.3971,9.3666,37.3511,0.214,-0.0556,-0.3347,351.4
18:38:30:102,0.841,-0.7735,9.3714,37.0539,0.1523,-0.013,-0.578,351.38
18:38:30:123,0.0627,-1.2648,9.2773,36.8986,0.2103,-0.0002,-0.6972,351.77
18:38:30:141,-0.6018,-1.5579,8.8094,36.7988,0.2949,0.0317,-0.652,352.44
18:38:30:161,-0.8471,-1.4448,7.9544,36.7609,0.3503,0.0349,-0.5082,353.26
18:38:30:182,-0.6725,-1.0413,7.3096,36.6319,0.3407,-0.0332,-0.3549,354.02
18:38:30:201,-0.4046,-0.5493,6.971,36.5552,0.3189,-0.1157,-0.2719,354.57
18:38:30:223,-0.1147,-0.1631,6.7988,36.2966,0.2976,-0.2185,-0.2437,354.94
18:38:30:241,0.3326,0.3005,6.6489,36.1244,0.2731,-0.2387,-0.299,355.19
18:38:30:261,0.3715,0.7467,7.1811,36.2263,0.2582,-0.3457,-0.406,355.44
18:38:30:281,0.242,0.8565,8.3316,36.4147,0.4823,-0.4186,-0.4683,355.72
18:38:30:301,0.2516,0.6581,8.7424,36.3906,0.6926,-0.0247,-0.5205,356.16
18:38:30:321,0.7644,0.6189,8.7738,36.1812,0.8241,0.4331,-0.5301,356.91
18:38:30:343,0.4148,0.7207,8.242,35.9802,0.7405,0.5555,-0.5189,357.75
18:38:30:361,-0.0387,1.1535,8.037,36.0786,0.5105,0.3213,-0.4774,358.4
18:38:30:381,-0.3239,1.1343,8.5229,36.0567,0.2758,0.1057,-0.4146,358.85
18:38:30:401,-0.5185,0.9971,9.1772,35.9486,0.1379,0.1307,-0.2937,359.26
18:38:30:423,-0.8159,1.0813,9.6962,35.7678,0.0863,0.2356,-0.0308,359.73
18:38:30:441,-0.416,1.411,9.8165,35.364,0.0682,0.2792,0.1827,0.11
18:38:30:461,0.3069,1.704,9.9219,34.9207,0.0314,0.1057,0.1704,0.15
18:38:30:481,0.4926,1.1871,11.0871,34.586,0.0219,0.0104,0.0352,359.84
18:38:30:502,-0.145,0.2887,11.6114,34.2659,0.057,0.1988,0.0714,359.59
18:38:30:521,-0.4804,-0.2023,11.6429,33.9536,-0.0314,0.1307,0.1784,359.65
18:38:30:542,-0.462,-0.3086,12.277,33.7202,-0.1453,-0.1131,0.2327,359.52
18:38:30:561,-0.345,-0.4222,12.8071,33.1578,-0.1591,-0.2254,0.2599,359.18
18:38:30:583,-0.1756,-0.6493,13.0385,33.1892,-0.0734,-0.2195,0.237,358.85
18:38:30:601,-0.0045,-1.0141,13.1786,32.8756,0.1251,-0.1865,0.1401,358.57
18:38:30:624,-0.2411,-1.4022,12.8538,32.8552,0.403,-0.0945,0.0848,358.34
18:38:30:641,-0.6275,-1.3194,11.5168,32.6885,0.6292,0.2068,0.1774,358.25
18:38:30:661,-1.3222,-0.5451,9.4443,32.5676,0.6878,0.3367,0.4015,358.33
18:38:30:681,-0.6079,-0.4877,6.9762,32.5512,0.4498,0.5071,0.5319,358.17
18:38:30:701,0.6027,0.2265,7.211,32.3233,0.0128,-0.7758,0.4372,357.75
18:38:30:724,0.3415,0.6688,8.3472,32.2636,-0.2187,-0.7551,0.3115,356.42
18:38:30:742,0.3736,0.6075,9.3198,32.4013,-0.3694,-0.8195,0.1422,355.99
18:38:30:761,0.4787,0.1722,9.7813,32.1147,-0.4157,-0.6081,-0.0244,355.66
18:38:30:781,0.1585,-0.0191,9.6072,32.333,-0.3603,-0.3569,-0.0819,355.67
18:38:30:801,-0.2453,-0.0194,8.91,32.2703,-0.2549,-0.2291,-0.002,355.88
18:38:30:824,-0.3134,0.1155,8.3747,32.3729,-0.1336,-0.2957,0.1396,356.08
18:38:30:841,-0.2253,0.2692,7.9794,32.4763,0.0069,-0.4394,0.2609,356.07
18:38:30:861,-0.0454,0.2939,8.0515,32.6953,0.1427,-0.5198,0.3365,355.87
18:38:30:881,0.3233,0.426,7.6691,32.8789,0.1555,-0.5113,0.3658,355.57
18:38:30:901,0.3103,0.8403,7.4833,32.8339,0.0724,-0.3468,0.3594,355.21
18:38:30:924,0.5775,1.1641,7.549,33.0062,-0.1405,-0.2318,0.2854,354.89
18:38:30:941,0.7572,1.3884,8.1556,33.2367,-0.3215,-0.0657,0.1997,354.52
18:38:30:961,0.6659,1.3988,8.8227,33.2732,-0.4109,0.077,0.1215,354.26
18:38:30:982,0.4676,1.2154,9.6071,33.2489,-0.3736,0.2132,0.105,354.09
18:38:31:001,0.2529,1.089,10.0159,33.4614,-0.2145,0.3484,0.121,354.03
18:38:31:024,0.0486,1.2249,9.8076,33.678,-0.0298,0.4277,0.1422,354.01
18:38:31:041,0.1056,1.5579,9.4817,33.4246,0.0937,0.3389,0.1412,353.94
18:38:31:062,0.4342,1.6644,9.7922,33.4647,0.1736,0.1845,0.0736,353.74
18:38:31:081,0.6849,1.5403,10.467,33.494,0.2492,0.0221,-0.0616,353.5
18:38:31:101,0.7183,1.1011,10.9907,33.4355,0.279,-0.0923,-0.1883,353.35
18:38:31:121,0.6259,0.6374,11.5194,33.5216,0.2199,-0.0444,-0.2165,353.37
18:38:31:142,0.9197,0.0438,11.3567,33.3034,0.0708,0.2223,-0.1931,353.61
18:38:31:161,1.1239,-0.1641,10.96,33.1894,-0.1634,0.3042,-0.2181,353.98
18:38:31:181,0.9136,-0.2743,11.1698,33.1924,-0.3747,0.2766,-0.2916,354.19
18:38:31:202,0.3519,-0.6473,11.7245,32.9698,-0.4269,0.1483,-0.3241,354.38
18:38:31:225,-0.1371,-1.2566,12.1909,33.0001,-0.2826,-0.0577,-0.2384,354.63
18:38:31:241,-0.2969,-1.602,12.3634,33.1235,-0.0197,-0.1903,-0.0291,354.91
18:38:31:261,0.259,-1.5811,12.0712,33.0157,0.2236,-0.095,0.1396,355.15
18:38:31:281,1.1663,-1.1521,11.0345,32.8236,0.3263,0.1759,0.1822,355.27
18:38:31:301,1.877,-0.7161,9.7575,32.7823,0.2508,0.3947,0.0794,355.27
18:38:31:325,1.9837,-0.5309,8.6992,32.735,0.0517,0.4246,-0.1149,355.16
18:38:31:342,1.2989,-0.5418,8.2076,32.8125,-0.1831,0.2723,-0.2623,355.05
18:38:31:361,0.6437,-0.7088,8.1497,32.5513,-0.3992,0.1701,-0.3017,355.06
18:38:31:382,0.2824,-0.7911,8.2034,32.5995,-0.5722,0.2798,-0.2368,355.27
18:38:31:401,0.2005,-0.5371,8.2407,32.5812,-0.668,0.4363,-0.1117,355.65
18:38:31:421,0.4825,0.003,8.1743,32.3367,-0.6403,0.5161,-0.0467,356
18:38:31:442,0.5328,0.4531,8.077,32.4029,-0.5067,0.5161,-0.0717,356.17
18:38:31:462,0.315,0.6712,7.9897,32.2838,-0.2885,0.4986,-0.1511,356.25
18:38:31:481,-0.005,0.7765,7.9155,32.1367,-0.0516,0.473,-0.2032,356.35
18:38:31:501,-0.2705,0.7637,7.8246,32.1818,0.1496,0.4868,-0.2006,356.53
18:38:31:521,-0.4564,0.7752,7.4642,32.0515,0.2162,0.4437,-0.192,356.8
18:38:31:542,-0.5441,0.8349,7.297,31.9527,0.098,0.3351,-0.2394,357.02
18:38:31:561,-0.6318,0.8309,7.7674,31.8928,-0.0905,0.1983,-0.34,357.19
18:38:31:581,-1.0262,0.4227,8.7462,31.5878,-0.2182,0.1414,-0.3927,357.4
18:38:31:601,-1.6628,-0.0853,9.6573,31.5223,-0.2496,0.2122,-0.2628,357.77
18:38:31:625,-2.0981,-0.2312,10.1444,31.2842,-0.206,0.3037,0.0246,358.26
18:38:31:642,-1.9769,0.1385,10.2182,31.3147,-0.0963,0.4049,0.3408,358.63
18:38:31:661,-1.5033,0.7671,10.1048,31.212,0.065,0.4842,0.5644,358.67
18:38:31:681,-0.8748,1.3341,9.802,30.9058,0.2194,0.4671,0.6575,358.33
18:38:31:701,-0.317,1.5965,9.5627,30.6972,0.3104,0.3223,0.6059,357.69
18:38:31:721,-0.0619,1.3056,9.7,30.3895,0.3562,0.0583,0.4547,356.87
18:38:31:741,-0.2453,0.6336,9.8251,30.1092,0.2976,-0.1493,0.287,356.04
18:38:31:761,-0.754,-0.0374,10.2356,29.7617,0.115,-0.1972,0.2045,355.42
18:38:31:781,-0.94,-0.361,10.783,29.5059,-0.1054,-0.0444,0.213,355.07
18:38:31:801,-0.7279,-0.2252,11.3647,29.2094,-0.3284,0.0647,0.1907,354.92
18:38:31:821,-0.7767,-0.2774,12.1747,28.711,-0.4311,0.0189,0.0576,354.74
18:38:31:841,-1.2509,-0.8879,12.822,28.5045,-0.3444,-0.1014,-0.0409,354.5
18:38:31:917,-1.6506,-1.5925,13.0828,28.2424,-0.157,-0.104,0.0539,354.36
18:38:31:918,-1.5276,-2.0042,12.6292,28.112,0.0826,0.1089,0.2333,354.4
18:38:31:918,-1.2437,-2.0001,10.8933,28.0854,0.2444,0.2622,0.3637,354.45
18:38:31:921,-0.9185,-1.6131,9.0436,27.9616,0.2194,0.1951,0.3781,354.26
18:38:31:942,-0.6647,-1.2415,7.993,28.0864,0.0155,-0.07,0.2594,353.82
18:38:31:961,-0.8001,-1.1833,8.342,28.0422,-0.2193,-0.3973,0.0778,353.26
18:38:31:983,-1.2265,-1.4276,9.4051,28.0249,-0.3151,-0.5661,-0.0228,352.79
18:38:32:001,-1.5252,-1.5397,9.9863,28.162,-0.2879,-0.5006,0.0044,352.59
18:38:32:025,-1.5071,-1.4477,9.769,28.2406,-0.2086,-0.3574,0.0997,352.62
18:38:32:041,-1.2383,-1.1732,9.0914,28.2408,-0.1463,-0.2834,0.1912,352.7
18:38:32:061,-1.0131,-0.9303,8.5242,28.4608,-0.1628,-0.2462,0.2482,352.6
18:38:32:081,-1.086,-0.7523,8.4092,28.5749,-0.1554,-0.2914,0.328,352.39
18:38:32:102,-1.2266,-0.646,8.5766,28.5452,-0.026,-0.3468,0.4478,352.07
18:38:32:121,-0.9031,-0.5083,8.6533,28.4664,0.1384,-0.1743,0.5218,351.66
18:38:32:142,-0.5127,-0.1452,8.1877,28.2646,0.2321,0.0743,0.5287,351.23
18:38:32:161,-0.0079,0.4018,7.5815,28.3562,0.1959,0.1941,0.4425,350.76
18:38:32:181,0.3022,0.8467,7.3252,28.2916,0.1044,0.2164,0.229,350.22
18:38:32:201,0.2026,0.95,7.3716,28.1975,-0.0053,0.1866,-0.0201,349.72
18:38:32:221,-0.2255,0.7635,7.7848,28.2443,-0.0979,0.1323,-0.1633,349.44
18:38:32:241,-0.5691,0.5694,8.6019,27.9534,-0.1,0.0445,-0.1936,349.43
18:38:32:262,-0.7546,0.5344,9.3464,27.7551,0.0144,-0.0008,-0.1569,349.58
18:38:32:281,-0.6827,0.7139,9.6757,27.7923,0.1315,0.0168,-0.1415,349.79
18:38:32:301,-0.5224,0.9097,9.838,27.8922,0.1411,0.0887,-0.1761,349.99
18:38:32:321,-0.5018,0.8116,10.005,27.9868,0.0783,0.1477,-0.258,350.19
18:38:32:342,-0.8111,0.427,10.3354,27.7513,-0.0058,0.1185,-0.3129,350.42
18:38:32:361,-1.2958,-0.1812,11.0398,27.8439,-0.0202,-0.0188,-0.274,350.7
18:38:32:381,-1.5911,-0.6305,11.7749,27.6537,0.0884,-0.1445,-0.1409,350.99
18:38:32:401,-0.9953,-0.8378,11.6442,27.5291,0.1704,-0.0646,0.0177,351.25
18:38:32:421,-0.2149,-0.5766,10.7177,27.682,0.0293,-0.0045,0.0044,351.45
18:38:32:441,0.1987,-0.3016,10.6156,27.7935,-0.2645,-0.2052,-0.233,351.46
18:38:32:461,-0.3438,-0.645,11.8608,27.722,-0.3987,-0.4016,-0.488,351.33
18:38:32:481,-1.2823,-1.5366,12.8692,27.5458,-0.2517,-0.3904,-0.4933,351.47
18:38:32:501,-1.7577,-2.1534,12.8476,27.707,0.0847,-0.1924,-0.2447,352.02
18:38:32:521,-1.2815,-2.2055,11.5839,27.9389,0.3801,0.0599,0.0661,352.7
18:38:32:541,0.0219,-1.6731,9.8087,28.1974,0.4536,0.1792,0.1662,353.12
18:38:32:561,1.0808,-1.1942,8.6406,28.425,0.3423,0.086,-0.0063,353.12
18:38:32:582,1.2936,-0.9487,8.1562,28.6889,0.1289,-0.0242,-0.3092,352.88
18:38:32:602,0.5359,-1.0798,8.479,28.8348,-0.0835,-0.0912,-0.5727,352.82
18:38:32:621,-0.4516,-1.529,9.0458,28.8158,-0.1783,-0.0327,-0.6317,353.12
18:38:32:641,-1.1487,-1.6246,9.0931,29.1464,-0.1421,0.127,-0.4662,353.8
18:38:32:664,-1.2398,-1.2596,8.4968,29.6006,-0.0899,0.2537,-0.233,354.61
18:38:32:681,-1.0072,-0.5436,7.841,29.8748,-0.0521,0.2516,-0.0638,355.22
18:38:32:702,-0.7581,0.1206,7.382,29.9462,-0.0228,0.1499,-0.0217,355.5
18:38:32:721,-0.7674,0.5108,7.0354,29.9922,0.0038,0.0636,-0.0265,355.53
18:38:32:741,-0.81,0.6978,6.7913,30.0403,-0.0346,0.02,-0.0377,355.52
18:38:32:761,-0.9617,0.6748,7.1326,30.216,-0.0718,0.029,-0.0233,355.53
18:38:32:781,-1.0345,0.6547,7.4862,30.4914,-0.058,0.0759,0.0209,355.58
18:38:32:801,-0.9553,0.7084,7.5954,30.8264,-0.092,0.0705,0.0305,355.63
18:38:32:821,-0.8157,0.7058,8.1523,30.8773,-0.1575,0.0402,-0.0089,355.61
18:38:32:842,-0.8094,0.6032,9.0245,30.9916,-0.1655,0.0519,-0.0398,355.56
18:38:32:861,-1.0439,0.4234,9.8572,31.0259,-0.0771,0.1052,-0.0206,355.58
18:38:32:881,-1.3697,0.2292,10.1154,31.1835,0.0011,0.2249,0.0901,355.66
18:38:32:901,-1.4951,0.3498,10.2966,31.2918,0.0432,0.3926,0.2881,355.75
18:38:32:921,-1.2132,0.8164,10.3264,31.4018,0.1251,0.5752,0.4616,355.75
18:38:32:941,-0.7558,1.2035,9.8076,31.4074,0.173,0.5842,0.5165,355.54
18:38:32:963,-0.3438,1.3091,9.6875,31.1885,0.1416,0.3665,0.4387,355.04
18:38:32:982,-0.1589,1.0072,10.2377,31.1037,0.0554,0.102,0.2492,354.36
18:38:33:001,-0.4834,0.2941,11.5151,31.1614,0.0229,0.0354,0.1162,353.73
18:38:33:021,-0.8969,-0.2809,12.3821,31.185,0.1331,0.2547,0.1555,353.41
18:38:33:043,-1.2443,-0.2526,12.0325,31.2658,0.2598,0.3005,0.262,353.39
18:38:33:061,-0.9683,-0.0817,11.705,31.2294,0.2257,0.0972,0.2636,353.24
18:38:33:081,-0.5424,-0.1773,11.9113,31.1296,0.0575,-0.12,0.1002,352.85
18:38:33:101,-0.6328,-0.7528,12.4434,31.1419,-0.083,-0.2323,-0.1127,352.44
18:38:33:121,-1.1238,-1.6072,12.9703,31.3554,-0.042,-0.1998,-0.1952,352.27
18:38:33:143,-1.8186,-2.5552,12.7181,31.5692,0.1784,-0.0236,-0.0733,352.41
18:38:33:162,-2.27,-2.8977,10.9282,31.7702,0.3748,0.3144,0.2615,352.71
18:38:33:181,-1.8098,-2.2058,8.2502,31.9341,0.3024,0.4432,0.5207,352.97
18:38:33:201,-1.0091,-1.1875,6.7308,32.1444,0.0219,0.2239,0.5053,352.74
18:38:33:221,-0.7471,-0.573,6.6884,32.2009,-0.2991,-0.1935,0.3019,352.04
18:38:33:243,-1.1298,-0.6264,7.8169,32.4291,-0.4727,-0.6603,0.0997,351.25
18:38:33:261,-1.6519,-1.0197,9.1598,32.8116,-0.4753,-0.9036,0.0326,350.66
18:38:33:281,-1.7828,-1.1172,10.189,33.1412,-0.3412,-0.8253,0.0555,350.4
18:38:33:302,-1.5924,-0.9914,10.4068,33.3228,-0.0947,-0.5789,0.1055,350.38
18:38:33:321,-1.2863,-0.7339,9.9716,33.5919,0.2162,-0.3452,0.1609,350.43
18:38:33:343,-1.0833,-0.4473,8.4507,33.8116,0.4152,-0.1684,0.1822,350.42
18:38:33:362,-0.8435,-0.2042,6.967,34.0878,0.3626,-0.145,0.1327,350.33
18:38:33:381,-0.6553,-0.1205,6.3423,34.2571,0.1528,-0.1056,0.0842,350.13
18:38:33:401,-0.4988,0.1435,6.6243,34.408,-0.1288,-0.0689,0.0134,349.98
18:38:33:421,-0.5707,0.587,7.9007,34.6876,-0.2209,0.0525,-0.0994,349.88
18:38:33:443,-0.6713,0.5722,9.3694,34.9443,-0.0723,0.2484,-0.2495,349.92
18:38:33:462,-1.1021,0.3461,9.3335,35.136,0.0873,0.9095,-0.2352,350.15
18:38:33:481,-1.1779,0.6671,7.6811,35.4403,0.0181,0.9835,-0.2724,350.79
18:38:33:501,-1.8018,0.958,7.5646,35.6352,-0.1527,0.6625,-0.3501,351.11
18:38:33:521,-1.6328,1.0431,8.729,35.8096,-0.1735,0.2122,-0.348,351.28
18:38:33:543,-1.685,1.0328,9.3692,35.869,-0.0516,-0.0976,-0.3427,351.46
18:38:33:562,-2.1189,0.8794,9.364,36.0301,0.0011,-0.4495,-0.3193,351.7
18:38:33:581,-2.0401,0.5799,9.5679,36.5604,-0.0436,-0.8903,-0.2831,351.91
18:38:33:601,-1.7495,0.0778,12.1661,36.86,-0.0037,-0.8456,-0.2203,352.04
18:38:33:621,-0.9323,-0.221,12.786,36.9804,0.1246,-0.5043,-0.1516,352.36
18:38:33:644,-0.5732,-0.5376,12.6462,37.328,0.2108,-0.1887,-0.1425,352.77
18:38:33:662,0.1104,-0.6469,11.3466,37.6276,0.1635,-0.0769,-0.134,353.1
18:38:33:682,1.2627,-0.2233,10.3146,38.1081,-0.0361,-0.3856,-0.2974,353.31
18:38:33:701,1.4531,-0.6106,10.8176,38.3382,-0.306,-0.6736,-0.6344,353.29
18:38:33:721,0.1535,-1.9201,12.9863,38.8392,-0.3555,-0.515,-0.7483,353.46
18:38:33:744,-1.436,-2.2815,14.2858,39.3427,-0.0202,-0.1211,-0.4971,354.24
18:38:33:761,-1.1179,-1.9925,13.0456,39.8443,0.3865,0.2563,-0.1511,355.31
18:38:33:781,0.3464,-1.5041,10.2464,40.0659,0.5339,0.5321,-0.0797,356.1
18:38:33:801,1.1514,-0.7872,8.5471,40.5446,0.5265,0.5699,-0.208,356.43
18:38:33:821,1.1139,-0.4259,7.523,40.8921,0.4466,0.3713,-0.3933,356.54
18:38:33:844,0.5371,-0.8432,7.596,41.0561,0.2635,0.0679,-0.5987,356.68
18:38:33:862,-0.3878,-1.5028,8.3215,41.089,0.0852,-0.0327,-0.6818,356.97
18:38:33:881,-1.3036,-1.7365,8.5021,41.2576,-0.0649,-0.0609,-0.5567,357.6
18:38:33:901,-1.5822,-1.419,7.9702,41.4255,-0.2129,-0.0737,-0.3219,358.37
18:38:33:969,-1.3041,-0.7131,7.0235,41.6487,-0.4008,-0.1211,-0.1308,359
18:38:33:969,-0.8692,-0.054,6.481,41.6461,-0.5855,-0.3228,-0.0318,359.35
18:38:33:969,-0.5663,0.3469,6.9118,41.9399,-0.6504,-0.5283,0.015,359.39
18:38:33:981,-0.5528,0.5251,8.0416,42.1713,-0.5844,-0.4697,0.0592,359.31
18:38:34:003,-0.5762,0.5441,8.7091,42.4563,-0.4178,-0.2211,0.1044,359.31
18:38:34:021,-0.6682,0.6517,9.0414,42.9487,-0.198,-0.0018,0.1646,359.36
18:38:34:044,-0.6236,0.7107,9.035,43.3125,0.0442,0.1334,0.2093,359.35
18:38:34:061,-0.5858,0.734,8.8264,43.671,0.2343,0.1062,0.2178,359.24
18:38:34:081,-0.5801,0.8141,8.5481,43.8102,0.3221,-0.1301,0.1917,359
18:38:34:102,-0.5269,0.9076,8.8651,43.9704,0.346,-0.4021,0.1736,358.63
18:38:34:121,-0.3291,1.0351,9.7787,44.4237,0.3993,-0.5054,0.1742,358.27
18:38:34:144,0.2007,1.1755,10.3865,44.6435,0.4546,-0.326,0.1497,358.01
18:38:34:161,0.373,1.3709,10.4029,44.6954,0.427,0.0312,0.1609,357.89
18:38:34:181,0.4741,1.5816,9.9509,44.8462,0.2822,0.3601,0.1891,357.9
18:38:34:201,0.6548,1.6519,10.01,44.6754,0.1097,0.449,0.1279,357.88
18:38:34:221,0.5656,1.3527,10.8561,44.6914,0.1022,0.3447,0.0139,357.7
18:38:34:244,0.0475,0.6936,11.6665,44.855,0.2114,0.2052,-0.0281,357.5
18:38:34:263,-0.4988,-0.0028,11.8399,45.1357,0.3098,0.3229,0.0816,357.41
18:38:34:281,-0.7389,0.1383,11.0719,45.1433,0.2273,0.4975,0.2455,357.5
18:38:34:301,-0.4265,0.8118,10.3053,44.8393,0.0373,0.4437,0.2956,357.49
18:38:34:321,0.0411,0.7335,10.1061,45.057,-0.1517,0.0051,0.056,357.17
18:38:34:344,-0.3757,0.9063,11.5191,45.0403,-0.108,-0.3042,-0.1228,356.59
18:38:34:362,-0.6408,-0.0821,12.1761,45.2246,0.139,-0.5746,-0.1095,356.37
18:38:34:381,-1.1758,-1.3054,12.5507,45.5375,0.4381,-0.7268,-0.0515,356.38
18:38:34:401,-1.1389,-2.0489,12.5661,45.7898,0.807,-0.3766,0.1667,356.45
18:38:34:421,-0.3771,-2.1107,10.8733,45.9443,0.9486,0.1057,0.4143,356.73
18:38:34:444,0.2948,-1.1664,8.1551,46.104,0.5936,0.1488,0.5213,356.81
18:38:34:461,0.7507,-0.3588,7.5231,46.3918,0.0208,-0.0465,0.3738,356.32
18:38:34:482,0.3001,-0.382,8.9626,46.7454,-0.306,-0.2307,0.1465,355.59
18:38:34:501,-0.3996,-0.6938,10.1075,46.9036,-0.3359,-0.2675,0.073,355.05
18:38:34:521,-0.7941,-0.85,9.9294,47.2458,-0.3657,-0.0902,0.1002,354.88
18:38:34:544,-0.8963,-0.8058,9.3745,47.4247,-0.4785,0.1893,0.1949,354.91
18:38:34:561,-0.6479,-0.399,8.6543,47.5488,-0.5227,0.3346,0.2753,354.94
18:38:34:581,-0.382,0.0296,8.1123,47.6226,-0.4721,0.2473,0.279,354.78
18:38:34:601,-0.2392,0.2608,8.0828,47.5984,-0.3545,0.0152,0.2301,354.41
18:38:34:621,-0.2534,0.3755,8.0242,47.6752,-0.2491,-0.1674,0.1933,353.97
18:38:34:644,-0.2044,0.482,8.0892,47.7535,-0.2006,-0.203,0.1987,353.62
18:38:34:662,-0.1639,0.4668,8.2884,47.9226,-0.1357,-0.1839,0.2035,353.39
18:38:34:682,-0.2134,0.3903,8.6621,47.775,-0.0095,-0.2068,0.2051,353.18
18:38:34:702,-0.0133,0.5008,9.0101,47.7423,0.1805,-0.1972,0.1832,352.94
