Time,Acc_X,Acc_Y,Acc_Z,Meg,Gyr_X,Gyr_Y,Gyr_Z,Ore
18:52:01:738,0.1619,0.0342,8.6627,45.1638,-0.0015,-0.1317,-0.0169,359.22
18:52:01:759,0.173,0.0639,9.1379,44.8985,-0.3022,-0.0476,0.0735,359.22
18:52:01:780,0.2136,-0.0293,10.1435,45.0824,-0.3203,-0.0481,0.1316,136.61
18:52:01:799,0.2544,-0.0728,10.7724,45.17,-0.0616,-0.0651,0.1577,136.5
18:52:01:820,0.274,0.0224,10.5638,45.0294,0.2604,-0.0806,0.1742,136.1
18:52:01:839,0.3876,0.227,9.8338,45.0692,0.426,-0.1125,0.1784,135.82
18:52:01:860,0.5615,0.4974,9.1925,45.1051,0.3807,-0.1274,0.105,135.54
18:52:01:881,0.495,0.5359,9.1001,45.091,0.212,-0.1056,0.0241,135.31
18:52:01:901,0.2359,0.4281,9.211,45.2599,0.0512,-0.0076,-0.002,135.19
18:52:01:920,-0.0111,0.3548,9.4248,45.3615,-0.027,0.0594,0.0012,135.15
18:52:01:940,-0.2242,0.2653,9.7174,45.5951,0.0038,0.0637,0.0214,135.15
18:52:01:959,-0.2726,0.171,10.1035,45.7219,0.1385,0.0472,0.0608,135.07
18:52:01:981,-0.1234,0.0923,9.9679,45.7951,0.2801,-0.0013,0.0954,135
18:52:01:998,0.1199,0.1292,9.7153,46.0317,0.3435,-0.08,0.0959,134.95
18:52:02:019,0.4253,0.1646,9.5209,46.1511,0.3057,-0.1125,0.0794,134.86
18:52:02:039,0.5796,0.1002,9.4906,46.3524,0.2035,-0.0561,0.0693,134.81
18:52:02:059,0.5878,0.0677,9.4861,46.5551,0.1199,0.0339,0.1097,134.77
18:52:02:080,0.7238,0.1567,9.3315,46.6159,0.0715,0.0727,0.1672,134.74
18:52:02:103,1.0208,0.3834,9.1679,46.786,0.0454,0.004,0.172,134.67
18:52:02:119,1.2549,0.508,9.2104,46.6919,0.0257,-0.0758,0.138,134.53
18:52:02:139,1.4074,0.5681,9.2555,46.7135,-0.0004,-0.0891,0.1028,134.39
18:52:02:160,1.4525,0.6253,9.262,46.7961,-0.0531,-0.055,0.072,134.29
18:52:02:180,1.485,0.6786,9.2779,46.8794,-0.1095,-0.0369,0.0256,134.24
18:52:02:201,1.3206,0.6166,9.4209,46.9233,-0.1585,-0.0401,-0.026,134.22
18:52:02:220,1.0404,0.5206,9.7171,46.7091,-0.1628,-0.0598,-0.0457,134.27
18:52:02:239,0.8328,0.4433,9.9158,46.6756,-0.1138,-0.0587,-0.0324,134.36
18:52:02:260,0.746,0.4669,9.8831,46.8456,-0.059,-0.0433,-0.0047,134.49
18:52:02:279,0.7067,0.508,9.8015,46.6365,-0.0265,-0.0273,0.023,134.59
18:52:02:299,0.7518,0.5708,9.7513,46.6862,-0.0121,-0.0071,0.0134,134.65
18:52:02:319,0.7154,0.5475,9.6926,46.6862,-0.0105,-0.0007,-0.0153,134.66
18:52:02:339,0.6457,0.5063,9.6061,46.6601,-0.0196,0.0158,-0.0393,134.68
18:52:02:359,0.5667,0.4871,9.4987,46.4531,-0.0409,0.0099,-0.0547,134.72
18:52:02:380,0.5429,0.3926,9.4674,46.5087,-0.0643,-0.0273,-0.0595,134.78
18:52:02:401,0.5431,0.312,9.5534,46.4029,-0.0765,-0.055,-0.0462,134.85
18:52:02:420,0.6025,0.2643,9.6586,46.6363,-0.0707,-0.038,-0.0116,134.93
18:52:02:440,0.6974,0.2697,9.6522,46.4971,-0.0414,-0.0199,0.0209,134.99
18:52:02:459,0.788,0.3353,9.5156,46.6666,-0.0164,-0.022,0.0411,135
18:52:02:479,0.8707,0.4041,9.4497,46.535,-0.0217,-0.0343,0.0384,134.98
18:52:02:499,0.8794,0.3971,9.547,46.2917,-0.0334,-0.0406,0.0256,134.94
18:52:02:521,0.8642,0.363,9.7113,46.2475,-0.0206,-0.0465,0.0198,134.9
18:52:02:539,0.8489,0.3579,9.7287,46.3791,-0.0073,-0.0076,0.0299,134.88
18:52:02:559,0.882,0.4321,9.5911,46.3429,-0.0143,0.0317,0.0352,134.87
18:52:02:579,0.8944,0.4707,9.5103,46.3588,-0.0164,0.003,0.0145,134.84
18:52:02:599,0.8893,0.4042,9.6533,46.0893,-0.0169,-0.0337,-0.0164,134.81
18:52:02:619,0.7754,0.2959,9.7721,46.2205,0.0001,-0.0034,-0.0228,134.79
18:52:02:639,0.6589,0.2303,9.67,46.1608,0.0161,0.0402,-0.0031,134.8
18:52:02:660,0.6573,0.2453,9.4984,46.424,0.0171,0.0413,0.0177,134.83
18:52:02:680,0.6927,0.2923,9.4389,46.424,0.023,0.0152,0.0193,134.83
18:52:02:700,0.704,0.2829,9.4108,46.3986,0.0113,-0.0039,0.0134,134.81
18:52:02:721,0.6827,0.2675,9.4452,46.4433,-0.0036,0.0051,0.0097,134.78
18:52:02:739,0.6591,0.2429,9.5128,46.4089,-0.0153,0.0136,0.0102,134.76
18:52:02:759,0.6333,0.2832,9.5666,46.4406,-0.0233,0.0142,0.0171,134.74
18:52:02:779,0.6015,0.3121,9.6817,46.4864,-0.0212,0.0259,0.0224,134.73
18:52:02:800,0.5919,0.363,9.6402,46.3611,-0.0153,0.0456,0.0288,134.71
18:52:02:819,0.5495,0.3717,9.5784,46.2007,-0.0089,0.0376,0.0262,134.68
18:52:02:839,0.5438,0.3346,9.5607,46.056,-0.0095,0.011,0.0256,134.64
18:52:02:859,0.5758,0.2929,9.6459,46.2484,-0.0084,-0.0045,0.0267,134.61
18:52:02:879,0.5733,0.2594,9.7494,46.2522,-0.0036,0.0136,0.0299,134.58
18:52:02:901,0.5549,0.2081,9.6903,46.0993,-0.0015,0.0482,0.04,134.55
18:52:02:919,0.5929,0.2601,9.5915,46.0537,-0.0015,0.0466,0.0539,134.51
18:52:02:939,0.6743,0.3139,9.5321,46.3211,-0.0047,0.0253,0.0443,134.46
18:52:02:959,0.6517,0.3034,9.5618,46.3173,-0.0158,0.0238,0.032,134.39
18:52:02:979,0.6247,0.2724,9.5866,46.1754,-0.0174,0.0275,0.0342,134.34
18:52:03:001,0.662,0.3137,9.5415,46.3227,-0.0063,0.0238,0.039,134.3
18:52:03:019,0.7007,0.3407,9.4628,46.2931,-0.0126,0.003,0.0256,134.26
18:52:03:039,0.6707,0.2984,9.5024,46.3609,-0.0308,-0.0177,0.007,134.21
18:52:03:059,0.63,0.2592,9.625,46.2648,-0.0451,-0.013,0.0028,134.18
18:52:03:080,0.5651,0.2028,9.6998,46.214,-0.0499,-0.0098,0.0065,134.17
18:52:03:101,0.5363,0.2128,9.7222,46.3448,-0.0425,0.0206,0.0241,134.17
18:52:03:119,0.5469,0.2842,9.6824,46.2245,-0.0127,0.012,0.031,134.16
18:52:03:139,0.5818,0.2974,9.5981,46.3019,0.0092,-0.0247,0.0272,134.13
18:52:03:159,0.5737,0.304,9.5785,46.4001,0.0086,-0.0167,0.0241,134.09
18:52:03:180,0.5766,0.3542,9.4697,46.4001,-0.0158,0.0163,0.0235,134.06
18:52:03:202,0.5043,0.431,9.4887,46.4504,-0.0403,-0.0018,0.0123,134.03
18:52:03:219,0.4392,0.4362,9.6399,46.334,-0.0366,-0.022,0.0033,134
18:52:03:239,0.3318,0.4227,9.5685,46.3488,-0.018,-0.0045,0.007,133.99
18:52:03:259,0.2604,0.4332,9.2562,46.5153,-0.0164,-0.0268,0.0097,133.98
18:52:03:279,0.2639,0.4539,9.0136,46.5185,-0.0153,-0.129,-0.0137,133.97
18:52:03:301,0.2534,0.3963,9.0309,46.4986,-0.0217,-0.2616,-0.0579,133.96
18:52:03:321,0.2103,0.2758,9.1869,46.2782,-0.0478,-0.3009,-0.0851,133.97
18:52:03:339,0.2234,0.132,9.5698,46.3581,-0.0664,-0.2498,-0.0808,134.04
18:52:03:360,0.1586,0.0301,9.7375,46.4935,-0.0286,-0.1647,-0.0451,134.15
18:52:03:380,0.2333,0.0813,9.7171,46.444,0.0363,-0.1631,-0.0238,134.24
18:52:03:399,0.4997,0.2397,9.6252,46.3332,0.0933,-0.2195,-0.0414,134.29
18:52:03:419,0.9201,0.3815,9.4681,46.428,0.0768,-0.2621,-0.1404,134.32
18:52:03:439,0.9593,0.4488,9.4859,46.3413,-0.0036,-0.2163,-0.2277,134.37
18:52:03:459,1.4269,0.0884,9.5658,46.4989,-0.1053,-0.1673,-0.3209,134.54
18:52:03:479,0.6682,0.4102,9.8757,46.5862,-0.1452,-0.1024,-0.2943,134.8
18:52:03:499,0.1797,0.129,10.1447,46.8501,-0.1031,0.004,-0.117,135.17
18:52:03:519,0.6248,0.1987,10.3417,46.8866,-0.0547,0.2585,0.1002,135.51
18:52:03:540,1.2102,0.5476,9.7584,46.7013,-0.0403,0.4943,0.1183,135.64
18:52:03:560,1.1886,0.6365,9.2438,46.6719,-0.1,0.4187,0.0107,135.52
18:52:03:579,1.0641,0.5566,9.2115,46.5996,-0.1047,0.2393,-0.0515,135.37
18:52:03:599,1.1329,0.2948,9.2621,46.4691,-0.0627,0.053,-0.0925,135.35
18:52:03:619,1.1356,0.2263,9.3045,46.4232,0.0049,-0.1753,-0.1213,135.4
18:52:03:640,0.8468,-0.1546,10.3287,45.9981,0.0869,-0.129,-0.1079,135.51
18:52:03:659,0.988,0.0501,10.2436,45.9987,0.246,0.209,0.0171,135.65
18:52:03:679,1.4472,0.5593,9.715,45.8311,0.2711,0.2276,-0.0191,135.78
18:52:03:700,1.5037,0.7001,9.4286,45.684,0.1582,0.193,-0.1825,135.75
18:52:03:761,1.1717,0.551,10.0129,45.6829,0.0528,0.1148,-0.2996,135.77
18:52:03:766,0.8531,0.3123,10.6552,45.6535,0.08,0.1568,-0.3198,135.97
18:52:03:767,0.6708,0.2819,10.6123,45.728,0.2083,0.3187,-0.2501,136.31
18:52:03:779,0.5242,0.4132,9.7604,45.8743,0.3392,0.4273,-0.1197,136.67
18:52:03:801,0.4403,0.7672,8.7299,45.8532,0.36,0.3745,0.0379,136.95
18:52:03:819,0.598,1.5272,8.0596,45.9763,0.2178,0.1914,0.131,137.07
18:52:03:839,0.7397,1.8985,8.1648,45.7269,-0.0137,0.0014,0.0879,137
18:52:03:859,0.6103,1.69,8.7289,45.6398,-0.1888,-0.0093,0.0123,136.84
18:52:03:879,0.2855,1.3537,8.8562,45.7051,-0.2793,0.044,0.04,136.74
18:52:03:901,0.1999,1.2218,8.8265,45.8226,-0.3246,0.0104,0.1263,136.72
18:52:03:919,0.2931,1.1923,8.9241,45.8983,-0.3054,-0.0529,0.1955,136.67
18:52:03:940,0.5651,1.1996,8.9844,45.9138,-0.258,-0.121,0.1891,136.52
18:52:03:959,0.6812,1.0693,9.1793,45.8262,-0.2006,-0.1519,0.1082,136.3
18:52:03:979,0.5787,0.9258,9.2061,45.8074,-0.2,-0.1508,0.0352,136.09
18:52:03:999,0.4595,0.6677,9.4503,45.7454,-0.2426,-0.0832,0.0113,135.97
18:52:04:019,0.2444,0.4741,9.835,45.8432,-0.2357,0.0562,0.0624,135.93
18:52:04:039,0.3166,0.6685,9.9184,45.9685,-0.1724,0.1904,0.1603,135.92
18:52:04:059,0.6402,1.0142,9.6077,46.0429,-0.1127,0.2542,0.2008,135.84
18:52:04:079,0.9931,1.2938,9.3859,46.0876,-0.0882,0.2314,0.1476,135.65
18:52:04:100,1.1125,1.4539,9.3121,45.9716,-0.0967,0.2138,0.04,135.42
18:52:04:121,1.1129,1.4784,9.3159,46.1524,-0.1298,0.2154,-0.0659,135.24
18:52:04:140,1.0521,1.2265,9.6211,46.2367,-0.1138,0.2329,-0.1388,135.19
18:52:04:160,0.9557,1.0357,9.8918,46.3088,-0.0281,0.2723,-0.1979,135.26
18:52:04:180,0.9507,1.1151,10.1184,46.3723,0.0911,0.3192,-0.3102,135.42
18:52:04:201,0.6514,1.2826,10.0907,46.2519,0.2162,0.3564,-0.4045,135.64
18:52:04:219,0.1826,1.3037,9.6802,46.0469,0.295,0.2468,-0.4167,135.99
18:52:04:240,-0.1102,1.1152,9.6297,45.8326,0.3062,0.119,-0.3438,136.45
18:52:04:259,-0.2298,0.8441,9.622,45.6381,0.2881,-0.0135,-0.2245,136.92
18:52:04:279,-0.135,0.7322,9.7265,45.509,0.2125,-0.178,-0.0952,137.3
18:52:04:300,0.0713,0.7586,10.1538,45.2909,0.1284,-0.3909,-0.0308,137.55
18:52:04:319,0.1547,0.5721,11.0629,45.3508,0.1119,-0.5086,-0.0191,137.67
18:52:04:339,0.0611,0.1991,11.7331,45.3689,0.1699,-0.3553,0.0304,137.72
18:52:04:359,0.1192,0.0962,11.5385,45.3325,0.2306,-0.0657,0.1252,137.76
18:52:04:379,0.3452,0.2992,10.5683,45.5729,0.2136,0.2617,0.197,137.74
18:52:04:399,0.5948,0.7537,9.4125,45.8352,0.0757,0.4219,0.2364,137.6
18:52:04:419,0.7543,1.1704,8.9954,45.913,-0.0829,0.3171,0.2402,137.35
18:52:04:439,0.7296,1.2071,9.565,46.0651,-0.101,0.0615,0.1401,137.05
18:52:04:460,0.409,0.8938,10.1576,46.3398,-0.0377,-0.128,0.0416,136.76
18:52:04:480,0.0414,0.4938,10.4542,46.3493,0.007,-0.0705,0.04,136.59
18:52:04:501,-0.1348,0.0788,10.2464,46.3308,0.0246,0.1073,0.0789,136.55
18:52:04:520,-0.2705,-0.037,9.7441,46.2938,0.0033,0.2191,0.1177,136.51
18:52:04:539,-0.2368,-0.0105,9.3351,46.3696,-0.0355,0.1808,0.1167,136.41
18:52:04:560,-0.3345,-0.0138,9.2417,46.4998,-0.1015,0.0025,0.0491,136.26
18:52:04:580,-0.6782,-0.2957,9.7161,46.6245,-0.1617,-0.1673,-0.0084,136.11
18:52:04:601,-1.1474,-0.6402,10.2763,46.8357,-0.191,-0.1647,0.0033,136.05
18:52:04:620,-1.4961,-0.8296,10.5475,46.9172,-0.191,0.0057,0.0847,136.07
18:52:04:640,-1.4196,-0.8704,10.0886,47.0735,-0.1755,0.2537,0.2088,136.07
18:52:04:659,-1.1515,-0.6862,9.2819,47.6046,-0.1617,0.4124,0.3158,135.98
18:52:04:680,-0.4943,-0.3836,8.643,47.8832,-0.1372,0.3692,0.3009,135.72
18:52:04:701,-0.8486,0.055,8.4565,48.2169,-0.0499,0.2846,0.2769,135.34
18:52:04:720,-0.8799,0.2197,8.3932,48.5068,0.0613,0.1659,0.3163,134.98
18:52:04:740,-0.4957,0.3637,8.1247,48.5112,0.1023,0.0163,0.3067,134.65
18:52:04:759,-0.3103,0.5266,8.355,48.6514,0.0597,-0.1114,0.1955,134.28
18:52:04:779,-0.29,0.5062,8.8491,48.8432,-0.0132,-0.0992,0.0666,133.93
18:52:04:799,-0.341,0.4034,9.2837,49.1314,-0.0323,-0.0087,-0.0036,133.71
18:52:04:819,-0.4773,0.4017,9.5304,49.338,-0.0063,0.0812,-0.0164,133.63
18:52:04:839,-0.5493,0.5138,9.6283,49.3228,0.0336,0.1446,-0.027,133.64
18:52:04:859,-0.7352,0.493,9.5069,49.3982,0.0528,0.1872,-0.0419,133.65
18:52:04:880,-1.1174,0.4118,9.2516,49.501,0.0273,0.1696,-0.0068,133.67
18:52:04:902,-1.2945,0.4451,9.1229,49.5534,-0.0318,0.1137,0.0959,133.71
18:52:04:919,-1.1067,0.6128,9.2394,49.6845,-0.0717,0.0387,0.2024,133.71
18:52:04:940,-0.8491,0.8657,9.5265,49.8185,-0.0771,-0.0353,0.262,133.59
18:52:04:960,-0.6707,0.9005,9.9839,49.952,-0.0323,-0.1327,0.2785,133.36
18:52:04:980,-0.6219,0.8241,10.3146,50.0566,0.0507,-0.2291,0.2982,133.05
18:52:05:000,-0.3771,0.8165,10.4801,50.1137,0.1007,-0.3105,0.3041,132.74
18:52:05:019,-0.0968,0.7518,10.8129,50.2941,0.122,-0.2738,0.2764,132.4
18:52:05:042,0.1664,0.6417,10.9396,50.3982,0.138,-0.0832,0.2418,132.06
18:52:05:060,0.3749,0.6224,10.8295,50.6622,0.1002,0.1808,0.1848,131.75
18:52:05:079,0.3939,0.6555,10.4154,51.0599,-0.0552,0.3618,0.0565,131.48
18:52:05:099,0.087,0.5852,10.4252,51.3041,-0.2059,0.3288,-0.093,131.26
18:52:05:119,-0.4165,0.1592,10.6401,51.6471,-0.2325,0.2196,-0.1835,131.17
18:52:05:139,-0.9102,-0.293,10.6184,51.8009,-0.1377,0.1425,-0.1255,131.26
18:52:05:159,-0.9323,-0.4921,10.2432,51.8818,-0.0318,0.0419,-0.0079,131.46
18:52:05:180,-0.5791,-0.4942,10.0473,52.1092,0.0741,-0.0369,0.073,131.6
18:52:05:200,0.1486,-0.4191,9.8045,52.1532,0.1917,-0.1178,0.0634,131.6
18:52:05:220,0.6823,-0.3672,9.5789,52.4492,0.2482,-0.1977,-0.0808,131.52
18:52:05:240,0.6984,-0.6096,9.52,52.3761,0.2306,-0.1381,-0.2708,131.45
18:52:05:260,0.4234,-1.0841,9.1987,52.2337,0.1662,-0.0028,-0.3853,131.56
18:52:05:280,0.0347,-1.4224,8.8032,52.3134,0.0794,0.019,-0.3975,131.87
18:52:05:299,-0.2104,-1.4812,8.7469,52.4182,0.0203,-0.071,-0.3187,132.32
18:52:05:319,-0.149,-1.2683,8.9001,52.5379,0.0006,-0.1508,-0.216,132.78
18:52:05:340,-0.0078,-0.9163,8.8912,52.7936,-0.0201,-0.1801,-0.15,133.15
18:52:05:359,0.0528,-0.5746,8.9387,52.9035,-0.0611,-0.2019,-0.1186,133.41
18:52:05:380,-0.063,-0.3226,9.1354,52.999,-0.076,-0.1892,-0.0872,133.6
18:52:05:401,-0.1186,-0.0312,9.1597,53.0261,-0.0877,-0.1349,-0.0537,133.75
18:52:05:419,-0.1984,0.2326,9.1465,53.3779,-0.1063,-0.0673,-0.0308,133.86
18:52:05:440,-0.2961,0.4011,9.0785,53.7105,-0.1021,-0.0252,0.0001,133.93
18:52:05:460,-0.3163,0.4091,8.9732,53.7692,-0.0936,-0.0609,0.0358,133.97
18:52:05:480,-0.2829,0.3451,9.1271,53.8379,-0.0909,-0.1253,0.0608,133.98
18:52:05:500,-0.2481,0.1473,9.5247,54.1556,-0.0893,-0.1306,0.0767,133.94
18:52:05:520,-0.4541,-0.256,9.8155,54.185,-0.085,-0.0311,0.1278,133.88
18:52:05:540,-0.7341,-0.4341,9.7166,54.3117,-0.0866,0.0839,0.254,133.8
18:52:05:560,-0.6721,-0.279,9.5139,54.4463,-0.0733,0.1126,0.3802,133.66
18:52:05:579,-0.426,-0.0177,9.3079,54.7045,-0.0771,0.0855,0.4531,133.37
18:52:05:600,-0.3365,0.1299,9.3805,54.7144,-0.0643,0.0823,0.5069,132.93
18:52:05:619,-0.2877,0.3278,9.2961,54.8285,-0.0334,0.1116,0.5574,132.41
18:52:05:639,-0.0593,0.4919,9.0409,55.0754,-0.0249,0.1105,0.567,131.83
18:52:05:659,0.328,0.6099,9.0204,55.2573,-0.0254,0.0552,0.5117,131.19
18:52:05:680,0.5109,0.5124,9.0193,55.2141,-0.0281,-0.0194,0.3855,130.54
18:52:05:700,0.4328,0.0264,9.2528,55.6291,-0.0558,-0.0359,0.2689,129.96
18:52:05:719,0.1998,-0.5386,9.5253,55.8184,-0.0888,0.0935,0.237,129.52
18:52:05:739,-0.1675,-1.0894,9.1258,56.0706,-0.1787,0.1962,0.3014,129.21
18:52:05:759,-0.326,-1.3198,9.0164,56.4564,-0.3203,0.0488,0.378,128.94
18:52:05:820,-0.2966,-1.3709,9.9313,56.6344,-0.3794,-0.145,0.3897,128.6
18:52:05:820,-0.2872,-1.4362,11.0026,56.9069,-0.3267,-0.0667,0.3977,128.17
18:52:05:821,-0.4632,-1.4614,10.9351,57.1121,-0.2341,0.2266,0.4584,127.73
18:52:05:839,-0.642,-1.3979,10.0166,57.5401,-0.1942,0.4613,0.5697,127.28
18:52:05:860,-0.8576,-1.3996,9.3726,57.8374,-0.1659,0.4288,0.7161,126.76
18:52:05:879,-0.9274,-1.1441,9.2486,57.8924,-0.1069,0.0993,0.8885,126.12
18:52:05:899,-0.4691,-0.7045,10.0078,58.0696,0.0065,-0.1849,0.9529,125.31
18:52:05:921,0.1703,-0.1957,10.4253,58.3782,0.0853,-0.12,0.8454,124.3
18:52:05:939,0.5409,0.2608,10.2414,58.3468,0.0507,0.119,0.6144,123.21
18:52:05:959,0.6714,0.5169,9.9184,58.5174,-0.0025,0.283,0.3088,122.24
18:52:05:979,0.6269,0.5218,9.5958,58.7233,-0.026,0.2441,0.0075,121.55
18:52:05:999,0.7506,0.5148,9.8334,58.8019,0.0363,0.1031,-0.248,121.2
18:52:06:020,0.7755,0.3514,10.256,58.7792,0.146,0.069,-0.4784,121.21
18:52:06:039,0.6722,0.2444,10.5173,58.7432,0.2929,0.1228,-0.6312,121.5
18:52:06:059,0.6615,0.2758,10.227,58.8856,0.4159,0.1989,-0.7329,122.05
18:52:06:079,0.7251,0.2925,9.5747,58.937,0.4601,0.2175,-0.8026,122.78
18:52:06:099,0.8482,0.2948,9.0323,59.0299,0.3829,0.1579,-0.7984,123.63
18:52:06:119,1.1359,0.6126,8.8535,59.0637,0.254,0.0594,-0.7398,124.56
18:52:06:139,1.4369,0.847,9.1109,58.8731,0.1907,-0.0082,-0.7819,125.48
18:52:06:159,1.0892,0.7466,9.1814,58.589,0.1662,-0.0598,-0.8926,126.33
18:52:06:179,0.5145,0.3936,9.3453,58.3372,0.1305,-0.0971,-0.9458,127.24
18:52:06:199,-0.0124,-0.0668,9.6378,58.1615,0.1438,-0.0598,-0.9038,128.27
18:52:06:219,-0.7399,-0.3136,9.5567,58.1405,0.2109,-0.0997,-0.7691,129.36
18:52:06:239,-0.6602,-0.2145,9.2019,58.0661,0.2194,-0.2344,-0.6291,130.41
18:52:06:259,-0.4207,0.1362,9.3761,57.9942,0.2056,-0.4564,-0.6323,131.3
18:52:06:279,-0.6497,0.144,9.7855,57.7707,0.1763,-0.7108,-0.7095,132.03
18:52:06:301,-1.0139,-0.0821,10.4858,57.716,0.1502,-0.7774,-0.7169,132.78
18:52:06:321,-1.5025,-0.1051,10.702,57.6596,0.0816,-0.6134,-0.6765,133.63
18:52:06:340,-2.3993,0.3097,10.9364,57.6543,0.0006,-0.2797,-0.5934,134.49
18:52:06:360,-2.5331,0.2153,10.5091,57.8882,0.0326,0.0328,-0.5003,135.29
18:52:06:381,-2.6411,0.1178,9.5412,57.9158,0.0698,0.0764,-0.3379,135.99
18:52:06:401,-2.5406,0.4478,8.9216,57.9568,0.0741,0.0402,-0.1303,136.57
18:52:06:420,-2.3155,0.8772,8.332,57.929,0.0629,-0.0625,-0.0068,136.95
18:52:06:441,-1.6423,1.2352,8.4343,58.0477,0.0778,-0.1343,0.073,137.1
18:52:06:459,-1.3368,1.5157,8.4324,58.0373,0.1422,-0.3036,0.0858,137.11
18:52:06:479,-1.0804,1.5701,8.6309,58.0217,0.1151,-0.3824,0.0437,137.04
18:52:06:500,-1.012,1.4154,9.0897,58.3437,0.0315,-0.2456,0.007,136.96
18:52:06:519,-1.1934,1.2667,9.4646,58.587,-0.0116,-0.0486,0.0294,136.93
18:52:06:539,-1.3232,1.2654,9.3699,58.6157,-0.0254,0.0802,0.0815,136.94
18:52:06:559,-1.1685,1.4445,9.2781,58.9324,-0.0243,0.1361,0.1529,136.91
18:52:06:579,-0.7854,1.7312,9.1197,59.078,-0.0062,0.1685,0.188,136.81
18:52:06:600,-0.5159,1.9173,8.9508,59.2076,-0.0121,0.1973,0.1763,136.63
18:52:06:620,-0.3765,1.8541,9.1487,59.2375,-0.0137,0.2867,0.18,136.4
18:52:06:640,-0.2604,1.944,9.0093,59.526,-0.0201,0.3085,0.1944,136.18
18:52:06:660,0.1202,1.8855,9.0902,59.704,-0.0313,0.1132,0.1672,135.96
18:52:06:680,0.2955,1.6825,9.6739,59.8546,-0.0196,-0.1146,0.18,135.72
18:52:06:700,0.6313,1.5694,10.8053,60.1252,0.0581,-0.2216,0.2114,135.52
18:52:06:720,0.8291,1.2786,11.3448,60.398,0.1699,-0.0997,0.1715,135.32
18:52:06:740,0.7328,1.0207,10.5669,60.2886,0.1188,0.0552,0.0805,135.09
18:52:06:759,0.1929,0.5913,10.1835,60.4251,-0.1133,0.0493,-0.0579,134.9
18:52:06:779,-0.9206,-0.0258,10.7478,60.6421,-0.2463,-0.0406,-0.1026,134.81
18:52:06:799,-1.9064,-0.7289,11.3218,61.0702,-0.2187,-0.0311,0.0065,134.87
18:52:06:820,-2.2087,-1.1514,11.0042,61.2182,-0.1734,0.0823,0.2295,134.99
18:52:06:839,-1.8027,-1.1745,10.3658,61.4577,-0.1638,0.0025,0.3722,134.99
18:52:06:859,-1.5017,-1.2165,10.1966,61.68,-0.1707,-0.2365,0.4057,134.73
18:52:06:879,-1.3802,-1.3525,10.4338,61.7741,-0.1521,-0.3175,0.4393,134.3
18:52:06:899,-1.0714,-1.3153,10.3579,61.7399,-0.1101,-0.1397,0.4824,133.85
18:52:06:919,-0.5758,-1.2269,9.8359,62.2339,-0.0882,0.1393,0.4882,133.36
18:52:06:939,-0.1114,-1.112,9.1881,62.4252,-0.0616,0.3575,0.4515,132.82
18:52:06:959,0.432,-0.8921,8.4888,62.4971,-0.0558,0.3314,0.4015,132.26
18:52:06:980,1.1531,-0.4525,8.4433,62.3995,-0.0489,0.1499,0.32,131.74
18:52:07:000,1.8303,0.1183,8.8691,62.387,-0.0164,0.0083,0.1486,131.27
18:52:07:020,2.2371,0.5056,9.247,62.5282,-0.0004,-0.0108,-0.0856,130.9
18:52:07:039,2.2423,0.7415,9.4612,62.6448,-0.0036,0.0206,-0.2772,130.74
18:52:07:059,2.1579,0.9201,9.5871,62.7416,-0.0105,0.0221,-0.373,130.84
18:52:07:079,2.1884,1.1327,9.5616,62.9537,-0.0414,0.0844,-0.4087,131.17
18:52:07:099,2.1666,1.395,9.3192,62.8837,-0.1223,0.1984,-0.4247,131.6
18:52:07:120,2.2093,1.5802,9.2616,62.8141,-0.1516,0.2947,-0.496,132.07
18:52:07:139,2.0361,1.5877,9.1167,62.9862,-0.0866,0.2553,-0.6264,132.56
18:52:07:159,1.5104,1.2798,8.9617,63.007,-0.0244,0.1622,-0.7228,133.13
18:52:07:179,0.8201,0.8713,8.9508,63.1068,0.0049,0.0866,-0.7563,133.85
18:52:07:200,0.0664,0.5448,9.0025,62.764,-0.0041,0.0679,-0.7068,134.68
18:52:07:221,-0.5278,0.3406,8.9116,62.5303,-0.0217,0.0466,-0.5828,135.55
18:52:07:240,-0.8061,0.4796,8.6813,62.5345,-0.0371,-0.0587,-0.4321,136.41
18:52:07:260,-0.8162,0.8003,8.5399,62.3715,-0.0472,-0.2791,-0.3097,137.05
18:52:07:280,-0.7191,1.1253,8.8207,62.0729,-0.0377,-0.4505,-0.2336,137.55
18:52:07:300,-0.7151,1.4063,9.3816,62.0098,-0.01,-0.499,-0.1899,137.92
18:52:07:322,-0.6103,1.6288,9.7326,61.9607,-0.0041,-0.367,-0.1468,138.21
18:52:07:340,-0.569,1.8006,9.7087,62.1024,-0.0691,-0.1365,-0.0962,138.43
18:52:07:359,-0.6437,1.9179,9.6481,62.2191,-0.1431,0.077,-0.0308,138.61
18:52:07:379,-0.5216,1.9724,9.9307,62.2734,-0.1393,0.1946,0.0246,138.73
18:52:07:399,-0.2425,1.8725,10.3495,62.3727,-0.0052,0.2633,0.0278,138.77
18:52:07:419,-0.1545,1.5721,10.6287,62.3389,0.1971,0.2372,-0.0073,138.75
18:52:07:441,-0.3282,0.9869,10.7127,62.2011,0.3642,0.2138,0.0081,138.72
18:52:07:459,-0.5981,0.5031,10.5508,62.3597,0.4222,0.266,0.1193,138.73
18:52:07:479,-0.6769,0.2341,10.13,62.3662,0.3387,0.4273,0.2748,138.72
18:52:07:499,-0.5394,0.3098,9.6274,62.3283,0.1422,0.5002,0.4217,138.58
18:52:07:520,-0.0837,0.5839,9.8275,62.3613,-0.0701,0.3314,0.4425,138.25
18:52:07:540,0.1444,0.596,10.8665,62.3091,-0.1718,-0.0028,0.2982,137.75
18:52:07:559,-0.1024,0.0739,12.2986,62.4713,-0.1186,-0.3829,0.1241,137.24
18:52:07:580,-0.8021,-0.8396,13.5369,62.5293,0.0587,-0.5022,0.1028,136.9
18:52:07:599,-1.3552,-1.4844,13.6729,62.6589,0.2924,-0.1226,0.312,136.78
18:52:07:621,-0.7753,-1.2497,11.7546,62.8964,0.434,0.4485,0.5883,136.69
18:52:07:640,0.2673,-0.2215,9.1627,63.1134,0.3898,0.5949,0.6421,136.34
18:52:07:660,0.764,0.5151,7.7345,63.1528,0.2562,0.2942,0.4222,135.65
18:52:07:679,0.4938,0.5687,7.7592,63.3375,0.1183,-0.1822,0.1593,134.89
18:52:07:699,-0.0656,0.2045,8.861,63.2758,0.0645,-0.5868,-0.0143,134.4
18:52:07:719,-0.4948,-0.1878,10.0324,63.2704,0.0097,-0.6065,-0.1026,134.23
18:52:07:739,-0.7916,-0.3973,10.75,63.2214,-0.0313,-0.3542,-0.1122,134.3
18:52:07:760,-1.0044,-0.4006,10.7193,63.3437,-0.0318,-0.0497,-0.0606,134.48
18:52:07:779,-1.0435,-0.3686,9.9815,63.4709,0.032,0.217,0.0235,134.64
18:52:07:799,-0.9153,-0.2326,8.7235,63.2288,0.1236,0.3155,0.1252,134.72
18:52:07:819,-0.7014,0.0752,7.5928,63.0582,0.1976,0.2111,0.221,134.69
18:52:07:881,-0.3366,0.4932,6.9723,62.8227,0.2391,0.0259,0.2593,134.53
18:52:07:881,0.0393,0.8743,6.7094,62.5806,0.204,-0.1519,0.2104,134.27
18:52:07:881,0.1848,1.1594,7.0726,62.5435,0.1098,-0.2445,0.1119,133.98
18:52:07:899,0.0989,1.1887,7.6609,62.6405,0.0422,-0.2296,0.0038,133.76
18:52:07:920,-0.1963,1.1796,8.0336,62.4971,-0.0158,-0.1583,-0.0696,133.67
18:52:07:939,-0.4506,1.1436,8.3487,62.3699,-0.0632,-0.1194,-0.1079,133.69
18:52:07:960,-0.7565,1.0915,8.7225,62.0679,-0.0755,-0.1365,-0.0946,133.8
18:52:07:980,-0.9576,1.1076,9.1092,62.3755,-0.0563,-0.1546,-0.0286,133.94
18:52:08:000,-1.0073,1.2231,9.3534,62.2775,0.0182,-0.1024,0.0778,134.07
18:52:08:021,-0.8239,1.4976,9.1461,62.4873,0.1023,-0.047,0.1827,134.13
18:52:08:039,-0.4845,1.8817,8.787,62.4674,0.1273,-0.0401,0.2359,134.06
18:52:08:059,-0.1516,2.2001,8.5594,62.3484,0.0965,-0.0651,0.2104,133.86
18:52:08:079,0.0386,2.351,8.4525,62.021,0.006,-0.1216,0.1252,133.6
18:52:08:099,-0.0955,2.3181,8.9511,62.1642,-0.1058,-0.1934,0.0602,133.37
18:52:08:120,-0.2689,2.2607,9.717,62.0435,-0.1468,-0.2786,0.0395,133.25
18:52:08:139,-0.0691,2.1993,11.0243,62.1637,-0.1489,-0.1913,0.0097,133.2
18:52:08:159,0.3663,2.0445,11.7499,61.8787,-0.2288,0.2782,-0.0515,133.19
18:52:08:180,0.7204,1.6054,12.0111,61.7172,-0.2453,0.571,-0.0883,133.21
18:52:08:200,1.2057,0.894,11.8474,61.6258,-0.1079,0.6609,-0.1452,133.25
18:52:08:221,0.9094,0.5453,10.2238,61.3846,-0.2373,0.4454,-0.2693,133.31
18:52:08:240,-0.1314,0.2937,10.3408,61.225,-0.5471,-0.0641,-0.3709,133.43
18:52:08:259,-1.1091,-0.828,12.5692,61.0957,-0.5838,-0.3723,-0.3486,133.71
18:52:08:280,-2.1951,-1.8514,13.9878,60.5449,-0.2847,-0.4,-0.0467,134.15
18:52:08:300,-1.7771,-2.2199,13.7577,60.3449,0.113,-0.195,0.4153,134.58
18:52:08:321,-0.0054,-1.4949,11.8843,59.8316,0.3467,0.0456,0.7225,134.66
18:52:08:339,2.1262,-0.0923,9.9673,59.5966,0.3286,0.019,0.5782,134.2
18:52:08:359,3.0122,1.0273,9.3147,59.3476,0.1933,-0.2429,0.0086,133.34
18:52:08:379,2.1469,0.7874,9.9674,59.1348,0.1114,-0.3952,-0.5977,132.72
18:52:08:399,0.2501,-0.4615,10.1413,58.9954,0.1305,-0.2786,-0.8255,132.73
18:52:08:419,-1.312,-1.2478,9.5679,58.8599,0.2221,-0.0886,-0.6445,133.45
18:52:08:439,-1.7663,-1.1931,8.4535,58.3864,0.3073,0.0152,-0.2629,134.43
18:52:08:459,-1.154,-0.4809,7.5066,58.3444,0.3573,-0.0619,0.0416,135.18
18:52:08:479,-0.2993,0.2959,7.038,58.0784,0.369,-0.1998,0.1364,135.49
18:52:08:500,0.1692,0.7619,6.9555,57.9109,0.3605,-0.2711,0.1167,135.46
18:52:08:532,0.346,0.993,7.1618,57.874,0.3562,-0.2435,0.0783,135.33
18:52:08:540,0.3916,1.0645,7.2145,57.9898,0.3381,-0.1029,0.0634,135.23
18:52:08:559,0.5114,1.2186,7.2211,57.9214,0.2679,0.0615,0.0799,135.18
18:52:08:579,0.5797,1.3766,7.3887,57.8618,0.1704,0.2324,0.0911,135.13
18:52:08:599,0.554,1.4966,7.6886,57.7649,0.0741,0.3373,0.098,135.04
18:52:08:620,0.5868,1.8313,7.8801,57.7623,-0.0057,0.2835,0.0294,134.91
18:52:08:640,0.6265,1.8687,8.4884,57.6041,-0.0446,0.0951,-0.068,134.76
18:52:08:659,0.4097,1.7287,9.1171,57.6386,-0.0318,0.0259,-0.1239,134.7
18:52:08:679,0.0522,1.5874,9.4639,57.6484,-0.0025,0.0887,-0.0771,134.78
18:52:08:699,-0.2683,1.5902,9.6795,57.528,0.0321,0.2298,0.0629,134.92
18:52:08:719,-0.2535,1.9081,9.6448,57.1582,0.0832,0.4347,0.2253,135.01
18:52:08:739,0.2006,2.2963,9.3044,56.8987,0.1518,0.4991,0.2939,134.91
18:52:08:760,0.5644,2.5518,9.1165,56.8202,0.2114,0.2484,0.2301,134.6
18:52:08:780,0.8619,2.2969,9.4591,56.6219,0.2072,-0.1269,0.0613,134.21
18:52:08:800,0.6214,1.6643,10.3697,56.5637,0.08,-0.1806,-0.1069,133.92
18:52:08:820,-0.0328,0.9179,11.0162,56.5138,-0.0691,0.1174,-0.1431,133.88
18:52:08:840,-0.8428,0.6514,11.0177,56.2746,-0.2522,0.423,0.0022,134.03
18:52:08:860,-1.2363,1.084,11.6661,56.1158,-0.3485,0.4326,0.2056,134.18
18:52:08:880,-1.0596,1.2693,12.627,56.0506,-0.2431,0.226,0.2322,134.13
18:52:08:899,-1.2562,1.0092,13.0404,55.9088,-0.0462,-0.0412,0.1949,133.84
18:52:08:920,-1.2032,0.4528,13.2589,55.8014,0.1167,-0.1152,0.2402,133.55
18:52:08:940,-0.5783,0.0453,12.6303,55.6949,0.2705,0.0828,0.2726,133.34
18:52:08:960,-0.0347,-0.0007,10.7066,55.6006,0.2764,0.3405,0.2157,133.09
18:52:08:980,0.2563,0.3692,8.8949,55.8187,0.0954,0.3053,0.0714,132.77
18:52:09:000,0.4576,0.6428,8.2089,55.8215,-0.1771,0.0131,-0.2091,132.48
18:52:09:020,0.1081,0.4978,8.8486,55.8707,-0.3485,-0.3478,-0.4891,132.37
18:52:09:039,-0.327,-0.0126,10.0473,55.7922,-0.29,-0.5437,-0.611,132.61
18:52:09:059,-0.3839,-0.3598,10.7093,55.7596,-0.0515,-0.4266,-0.6041,133.22
18:52:09:079,-0.1599,-0.2346,10.3325,55.6424,0.2381,-0.1306,-0.5652,133.99
18:52:09:100,0.2187,0.2148,9.2353,55.6183,0.4547,0.2361,-0.5737,134.74
18:52:09:120,0.4036,0.3784,7.0586,55.5283,0.3318,0.4214,-0.6019,135.41
18:52:09:147,0.0266,0.5249,5.7239,55.699,-0.0132,0.3091,-0.5019,136.03
18:52:09:159,-0.1841,0.5584,5.8009,55.4142,-0.3533,0.0355,-0.4082,136.66
18:52:09:179,-0.2722,0.7424,6.6686,55.2549,-0.5258,-0.2259,-0.3917,137.19
18:52:09:199,-0.2115,0.9111,7.8236,55.1225,-0.4997,-0.3185,-0.4247,137.66
18:52:09:219,0.1084,1.2794,8.9245,54.98,-0.2932,-0.3382,-0.5471,138.14
18:52:09:239,0.0944,1.5462,9.5784,54.9946,-0.0057,-0.2876,-0.7579,138.67
18:52:09:259,-0.2804,1.1478,9.9193,55.0273,0.2498,0.1286,-0.9368,139.33
18:52:09:280,-0.7631,1.1183,9.752,55.1663,0.4691,0.4799,-0.9586,140.23
18:52:09:300,-1.5154,0.9172,9.4066,54.9234,0.5782,0.5449,-0.8458,141.29
18:52:09:320,-2.0629,1.1626,9.1526,54.598,0.5548,0.3591,-0.6099,142.34
18:52:09:341,-1.9975,1.5814,9.0769,54.5205,0.4872,0.143,-0.3246,143.23
18:52:09:360,-1.5354,2.0225,9.2895,54.6745,0.4622,0.0115,-0.1495,143.88
18:52:09:379,-1.0071,2.2817,9.3671,54.4289,0.4616,-0.1232,-0.1207,144.23
18:52:09:399,-0.8194,2.47,9.1274,54.2983,0.4041,-0.4708,-0.1378,144.4
18:52:09:419,-0.8731,2.3823,9.946,54.0684,0.3658,-0.9525,-0.1298,144.56
18:52:09:439,-0.5035,1.9306,11.1986,54.0446,0.492,-1.1766,-0.0281,144.81
18:52:09:459,0.3634,1.4046,11.3157,53.7681,0.5921,-0.8854,0.0778,145.13
18:52:09:479,0.1548,0.8266,10.7542,53.9676,0.3722,-0.4676,0.3094,145.4
18:52:09:500,0.9052,0.8763,10.7526,54.3511,0.0086,-0.3329,0.5069,145.5
18:52:09:521,1.1448,1.6685,11.9373,54.5275,-0.142,-0.4543,0.4244,145.25
18:52:09:540,0.9219,1.9288,13.1185,54.6685,-0.0094,-0.6725,0.2913,144.76
18:52:09:560,0.6832,1.3011,13.236,55.1346,0.2801,-0.599,0.2024,144.39
18:52:09:579,0.6456,0.744,11.6363,55.4161,0.4414,-0.1503,0.2444,144.21
18:52:09:599,1.5619,1.0028,9.3899,55.8231,0.3562,0.2894,0.2317,144.12
18:52:09:619,2.3284,1.4406,7.9042,55.9104,0.1561,0.3011,0.0363,143.88
18:52:09:639,2.3526,1.6862,7.536,56.4784,-0.0616,0.0259,-0.2927,143.55
18:52:09:659,1.7726,1.6705,7.8692,56.6427,-0.2825,-0.2711,-0.6137,143.44
18:52:09:679,0.9711,1.251,8.5883,56.6138,-0.455,-0.4425,-0.8372,143.76
18:52:09:700,0.2273,0.7367,8.8986,56.5844,-0.6158,-0.3835,-0.8878,144.52
18:52:09:720,-0.2808,0.4381,8.4766,56.5891,-0.8793,-0.1886,-0.7787,145.56
18:52:09:740,-0.0825,0.3981,8.4878,56.5289,-1.0752,0.1451,-0.6759,146.65
18:52:09:760,-0.2336,0.4424,8.7787,56.4805,-1.0342,0.2516,-0.553,147.57
18:52:09:780,-0.0872,0.7058,8.8598,56.2512,-0.727,0.4283,-0.3933,148.31
18:52:09:799,0.2494,1.0636,8.6962,56.1974,-0.2517,0.572,-0.3518,148.89
18:52:09:819,0.2888,1.3865,7.9769,55.7221,0.2391,0.6194,-0.3965,149.28
18:52:09:839,0.0983,1.5759,6.919,55.5904,0.476,0.3772,-0.4263,149.61
18:52:09:859,0.0299,1.7132,6.4709,55.4035,0.4845,0.1275,-0.4156,149.98
18:52:09:879,0.0894,1.898,6.7327,55.2233,0.2961,-0.1253,-0.3917,150.41
18:52:09:944,0.2071,2.1204,7.7523,55.0771,0.1353,-0.2988,-0.3571,150.86
18:52:09:944,0.2932,2.1318,8.6796,54.8032,0.089,-0.318,-0.339,151.32
18:52:09:944,0.2482,1.9861,9.3286,55.0242,0.1146,-0.1902,-0.3007,151.78
18:52:09:959,-0.8162,1.8503,9.7252,55.0544,0.1763,0.0509,-0.0568,152.22
18:52:09:980,-0.6791,2.4967,10.0765,54.9657,0.254,0.3213,0.2977,152.59
18:52:09:999,-0.0016,3.3365,9.5211,55.2258,0.3035,0.4374,0.419,152.64
18:52:10:019,0.5345,3.6735,9.164,55.325,0.2194,0.0844,0.2077,152.25
18:52:10:039,0.3288,3.2649,10.2105,55.4519,0.1103,-0.3829,-0.0675,151.69
18:52:10:059,-0.0257,2.0775,11.5942,55.5572,0.0981,-0.3334,-0.1404,151.44
18:52:10:079,-0.6174,0.9617,12.6597,55.8029,0.0869,0.3564,0.0443,151.59
18:52:10:100,-0.649,1.51,11.9505,56.0346,0.0294,0.6434,0.3014,151.81
18:52:10:120,-0.1152,2.2886,11.7468,55.9208,-0.0435,0.5731,0.3434,151.69
18:52:10:140,0.0936,2.4261,11.88,56.3319,-0.0824,0.365,0.1699,151.22
18:52:10:160,-0.4644,2.123,12.5863,56.3939,-0.0845,0.1792,0.0358,150.71
18:52:10:179,-0.9848,1.4756,13.3697,56.3391,0.0432,0.1446,0.0405,150.45
18:52:10:200,-1.1998,0.6195,13.3091,56.6054,0.3467,0.3038,0.1444,150.37
18:52:10:220,-1.1643,0.0843,11.0035,56.6376,0.5,0.6061,0.3062,150.29
18:52:10:240,-0.9612,0.2019,8.5147,57.0113,0.3568,0.6327,0.4254,150.07
18:52:10:259,-0.7981,0.4826,7.8582,57.1329,0.1566,0.2654,0.4345,149.59
18:52:10:279,-0.7247,0.5313,8.7454,57.1979,0.1241,-0.2392,0.3802,148.97
18:52:10:299,-0.7657,0.4146,9.4414,57.5479,0.0938,-0.4559,0.3371,148.42
18:52:10:320,-0.7545,0.476,9.9983,57.5252,0.0182,-0.2163,0.3472,148.05
18:52:10:339,-0.6904,0.5758,9.9366,57.8709,0.007,0.1813,0.3615,147.77
18:52:10:359,-0.7121,0.764,8.8734,58.2339,0.023,0.4587,0.3855,147.43
18:52:10:379,-0.5867,0.9677,7.5351,58.3021,0.0134,0.4576,0.4116,146.98
18:52:10:400,-0.4147,1.2072,6.7244,58.6216,-0.0158,0.2388,0.4228,146.44
18:52:10:421,-0.248,1.3934,6.4556,58.8087,-0.0451,0.0104,0.4004,145.87
18:52:10:440,-0.4423,1.5181,6.6754,59.0033,-0.0856,-0.1774,0.3541,145.33
18:52:10:459,-0.5029,1.4201,7.1586,59.2912,-0.1526,-0.1774,0.345,144.88
18:52:10:479,-0.3816,1.5911,7.2347,59.523,-0.2889,-0.0348,0.3291,144.52
18:52:10:499,-0.2284,1.9946,7.3539,59.7272,-0.438,0.0312,0.2146,144.18
18:52:10:520,-0.4268,2.1979,7.7322,59.8977,-0.5184,-0.0066,0.0602,143.81
18:52:10:540,-1.1224,2.101,8.0986,59.8944,-0.52,-0.1141,0.0512,143.56
18:52:10:559,-1.1619,2.1341,8.8781,59.9535,-0.4114,-0.2999,0.1417,143.49
18:52:10:579,-1.048,2.3386,9.5902,60.103,-0.2016,-0.4527,0.1806,143.46
18:52:10:600,-0.8911,2.5927,9.8682,60.0023,0.0315,-0.4324,0.1976,143.35
18:52:10:620,-0.8071,2.7953,9.3167,60.0893,0.1007,-0.3356,0.1795,143.23
18:52:10:641,-0.7347,2.9395,9.584,60.2936,0.0906,-0.3435,0.1534,143.08
18:52:10:660,-0.602,2.9809,9.9683,60.4379,0.0778,-0.4133,0.1135,142.94
18:52:10:679,-0.418,2.7565,10.698,60.5318,0.0006,-0.5298,0.0602,142.83
18:52:10:699,-0.0049,2.1565,12.0447,60.5315,-0.0174,-0.5304,0.0187,142.77
18:52:10:719,0.4887,1.3735,12.696,60.8036,0.0278,-0.2286,0.0251,142.8
18:52:10:740,0.971,1.1897,11.7006,60.9322,-0.002,0.2101,0.0544,142.88
18:52:10:760,1.2902,1.5411,10.1275,61.1331,-0.1686,0.234,-0.0451,142.89
18:52:10:780,1.3117,1.6784,10.0378,61.4411,-0.3704,-0.1093,-0.2464,142.79
18:52:10:800,1.0751,1.5047,11.4962,61.4532,-0.4406,-0.3803,-0.3986,142.8
18:52:10:820,0.7242,1.02,13.1851,61.4267,-0.257,-0.3952,-0.4699,143.09
18:52:10:841,0.4748,0.5425,13.4693,61.1749,0.0326,-0.0768,-0.4135,143.61
18:52:10:860,0.8385,0.4055,12.1553,61.1966,0.2924,0.2734,-0.3294,144.21
18:52:10:880,1.5256,0.3839,10.0116,61.4565,0.4031,0.4113,-0.3693,144.69
18:52:10:900,1.8749,0.3047,8.2829,61.2431,0.3429,0.3032,-0.5072,145.02
18:52:10:921,1.684,0.042,7.7505,61.1091,0.1864,0.0402,-0.6499,145.36
18:52:10:940,1.0963,-0.2542,8.2367,60.991,0.0422,-0.1849,-0.7047,145.88
18:52:10:959,0.5383,-0.3876,8.8407,60.8957,-0.067,-0.1796,-0.653,146.61
18:52:10:979,0.1592,-0.1608,9.0629,60.972,-0.1106,-0.038,-0.5343,147.44
18:52:10:999,0.0715,0.2964,8.7576,60.9515,-0.0941,0.1031,-0.4231,148.21
18:52:11:019,0.0466,0.9423,8.0244,60.8812,-0.0611,0.1595,-0.3576,148.82
18:52:11:040,-0.0774,1.4416,7.5176,60.6223,-0.0744,0.1057,-0.3491,149.28
18:52:11:059,-0.489,1.6668,7.5294,60.4668,-0.1058,0.0727,-0.3507,149.65
18:52:11:081,-0.8427,1.7514,7.5587,60.3783,-0.1095,0.0663,-0.2879,150.03
18:52:11:099,-0.6896,1.8427,7.7575,60.3668,-0.035,0.0402,-0.1809,150.41
18:52:11:121,-0.0779,2.391,8.004,60.2924,0.0502,0.0818,-0.1479,150.72
18:52:11:140,0.103,2.3499,7.7852,60.0081,0.007,0.0967,-0.2634,150.92
18:52:11:163,-0.0568,2.3594,8.2632,59.8618,-0.109,0.151,-0.3613,151.07
18:52:11:180,-0.5287,2.011,8.7444,59.7328,-0.1297,0.1526,-0.4018,151.35
18:52:11:199,-0.9353,1.8115,8.9349,59.4895,-0.0707,0.1696,-0.2959,151.73
18:52:11:219,-1.0111,1.7781,8.7658,59.1635,-0.0153,0.1659,-0.0968,152.16
18:52:11:240,-0.8259,2.1784,8.6226,58.9631,0.0358,0.1228,0.0943,152.46
18:52:11:259,-0.5092,2.6017,8.5613,58.7131,0.0486,0.0669,0.1955,152.54
18:52:11:280,-0.4108,2.7759,9.1046,58.5743,0.0246,0.1994,0.2679,152.41
18:52:11:300,-0.135,2.9702,9.3835,58.4432,0.0331,0.2324,0.2897,152.18
18:52:11:320,0.0978,2.9355,9.8296,58.422,0.0496,0.085,0.1901,151.84
18:52:11:341,0.1776,2.6613,10.4676,58.2232,0.0305,-0.0406,0.0656,151.47
18:52:11:365,-0.0133,2.2213,11.2598,58.022,-0.0084,-0.0603,-0.0185,151.24
18:52:11:379,-0.4802,1.6648,11.7906,58.1092,-0.0536,0.0818,0.0155,151.17
18:52:11:399,-0.5556,1.5567,11.7552,58.2286,-0.0999,0.1898,0.1534,151.2
18:52:11:419,-0.0891,1.7522,11.5615,58.2785,-0.1489,0.1473,0.2301,151.17
18:52:11:439,0.4168,1.8768,11.6978,58.4585,-0.1899,-0.0305,0.2045,150.97
18:52:11:459,0.5431,1.7392,12.3011,58.2207,-0.1425,-0.1817,0.1055,150.68
18:52:11:479,0.1582,1.1762,12.9599,58.2872,0.0108,-0.1876,0.0368,150.45
18:52:11:499,0.0383,0.3707,12.8446,58.1386,0.2753,0.1073,0.0698,150.36
18:52:11:519,-0.0321,-0.1371,10.8767,58.1279,0.4015,0.4608,0.1965,150.35
18:52:11:541,0.1946,0.0795,8.7214,58.1044,0.3238,0.4432,0.2625,150.25
18:52:11:559,0.4714,0.4754,7.7998,58.0195,0.1795,0.1238,0.1396,149.94
18:52:11:579,0.3784,0.5679,8.1649,58.0465,0.0693,-0.269,-0.0537,149.56
18:52:11:600,-0.0162,0.261,9.2513,57.7221,0.0241,-0.4846,-0.2213,149.38
18:52:11:620,-0.6128,-0.1063,10.0295,57.5132,-0.0201,-0.3537,-0.281,149.49
18:52:11:641,-1.1224,-0.2205,10.1803,57.4756,-0.0238,-0.063,-0.2213,149.83
18:52:11:660,-1.1938,0.0181,9.4252,57.3477,0.0124,0.2457,-0.1026,150.22
18:52:11:679,-1.06,0.4742,8.1889,57.4416,0.0283,0.3666,-0.0025,150.48
18:52:11:699,-0.8126,0.9477,7.4751,57.5253,0.0459,0.2633,0.0448,150.54
18:52:11:719,-0.5839,1.2956,7.1949,57.4609,0.0794,0.0962,0.0464,150.47
18:52:11:740,-0.4555,1.5177,7.1863,57.3782,0.0635,-0.0135,0.0081,150.37
18:52:11:759,-0.5263,1.54,7.4494,57.1636,0.0006,0.0259,-0.0185,150.3
18:52:11:779,-0.6041,1.6256,7.8127,57.22,-0.0345,0.1723,-0.0057,150.29
18:52:11:800,-0.8426,1.866,7.5981,57.0148,-0.067,0.2207,0.0182,150.3
18:52:11:820,-0.96,2.166,7.6991,56.931,-0.1181,0.1031,0.0187,150.27
18:52:11:840,-1.063,2.379,8.2074,56.7112,-0.1239,-0.0332,0.0028,150.21
18:52:11:861,-1.1963,2.4214,8.9073,56.4725,-0.1031,-0.0609,0.0288,150.16
18:52:11:880,-1.327,2.4001,9.612,56.0411,-0.0174,0.0876,0.1295,150.16
18:52:11:900,-1.2366,2.6264,9.4321,55.9546,0.0789,0.2489,0.2471,150.14
18:52:11:920,-0.987,3.0067,8.7571,55.9865,0.0486,0.217,0.2737,149.98
18:52:11:940,-0.8507,3.1604,8.8135,55.9558,-0.0217,0.0195,0.2008,149.65
18:52:12:006,-0.9425,2.9351,9.4678,55.8702,-0.0723,-0.2089,0.1342,149.29
18:52:12:006,-1.1017,2.3802,10.4562,55.7248,-0.1068,-0.3739,0.1587,149.06
18:52:12:006,-0.9681,1.9718,11.4806,55.5674,-0.1042,-0.3936,0.2742,148.95
18:52:12:018,-0.3343,1.8098,11.849,55.2224,-0.0888,-0.2472,0.3488,148.83
18:52:12:039,0.2718,1.8673,11.3332,55.006,-0.2064,-0.1333,0.2694,148.59
18:52:12:059,0.3048,1.7261,11.49,54.9752,-0.3512,-0.2035,0.1241,148.24
18:52:12:079,0.1048,1.1987,11.8059,54.7485,-0.3762,-0.2014,0.0214,147.96
18:52:12:099,-0.2931,0.8691,11.3292,54.4488,-0.3863,-0.0928,0.0443,147.85
18:52:12:119,-0.4486,0.8478,11.2958,54.2527,-0.3565,-0.2051,0.0384,147.85
18:52:12:140,-0.5321,0.4834,11.9761,54.028,-0.1707,-0.2882,0.0166,147.81
18:52:12:160,-0.1738,-0.0428,11.8222,53.9867,0.1156,-0.0289,0.0554,147.8
18:52:12:180,0.6296,-0.0574,9.9341,53.9811,0.2908,0.1749,0.0469,147.82
18:52:12:199,1.4458,0.1908,8.2022,53.9738,0.2216,0.0296,-0.1548,147.76
18:52:12:219,1.3689,0.2689,8.3076,53.7673,0.014,-0.2264,-0.455,147.67
18:52:12:240,0.797,-0.0294,9.589,53.5709,-0.1191,-0.2743,-0.6903,147.84
18:52:12:259,-0.073,-0.3926,10.3871,53.4254,-0.1777,-0.022,-0.7622,148.39
18:52:12:279,-0.8597,-0.5117,10.0398,53.1455,-0.1718,0.3107,-0.6222,149.21
18:52:12:299,-1.1533,-0.1262,8.87,52.793,-0.126,0.4028,-0.3874,150.08
18:52:12:320,-0.9217,0.4562,7.7597,52.6508,-0.0664,0.2441,-0.191,150.74
18:52:12:340,-0.4834,0.9757,7.0161,52.4731,-0.0371,0.0126,-0.0898,151.12
18:52:12:360,-0.1399,1.3924,6.7235,52.0639,-0.0611,-0.1748,-0.0702,151.29
18:52:12:380,0.1351,1.6986,7.0807,51.7111,-0.0818,-0.2536,-0.1239,151.39
18:52:12:400,0.3176,1.6894,7.3641,51.4504,-0.0882,-0.293,-0.2139,151.49
18:52:12:419,0.4454,1.6344,7.6415,51.1562,-0.126,-0.3052,-0.2884,151.66
18:52:12:440,0.3752,1.5442,8.1824,50.8051,-0.1574,-0.3009,-0.372,151.95
18:52:12:459,-0.1445,1.2799,8.7741,50.3472,-0.1085,-0.3345,-0.4178,152.3
18:52:12:480,-0.6338,0.9213,8.8391,50.0238,-0.0339,-0.4229,-0.3512,152.76
18:52:12:499,-0.6643,0.8949,8.6901,49.4799,-0.0196,-0.4761,-0.175,153.27
18:52:12:520,-0.1883,1.3425,8.7072,48.9775,-0.0254,-0.3984,0.0081,153.74
18:52:12:540,0.4812,1.9732,9.067,48.671,-0.0126,-0.1365,0.0847,153.98
18:52:12:559,0.81,2.675,9.407,48.5458,0.0443,0.1936,0.0741,154.02
18:52:12:579,0.9235,3.1674,9.0317,48.2806,0.0954,0.415,0.0091,153.93
18:52:12:599,1.0209,3.43,8.6645,47.8746,0.0331,0.3064,-0.1335,153.82
18:52:12:619,1.0454,3.3391,9.502,47.4141,-0.0403,-0.014,-0.3257,153.75
18:52:12:640,1.1167,2.4248,11.1174,47.2597,-0.0515,-0.2312,-0.5232,153.86
18:52:12:659,0.7073,1.263,12.563,46.9749,-0.0765,-0.0401,-0.5663,154.23
18:52:12:679,0.0162,0.6292,13.2874,46.6393,-0.044,0.4523,-0.3778,154.85
18:52:12:699,-0.1584,0.7543,12.4201,46.1378,0.0374,0.9596,-0.0877,155.49
18:52:12:720,0.079,1.3705,10.8609,45.7127,-0.0009,1.0937,0.0416,155.86
18:52:12:740,-0.1377,1.6522,10.0955,45.0744,-0.1154,0.8994,-0.0542,155.84
18:52:12:761,-0.9748,1.5691,10.3879,44.4849,-0.1798,0.4448,-0.1633,155.65
18:52:12:779,-1.6223,0.9308,11.5121,44.0338,-0.1431,-0.0162,-0.1873,155.6
18:52:12:799,-1.8802,-0.0227,12.8005,43.6013,0.0406,-0.186,-0.1202,155.73
18:52:12:819,-1.77,-0.8117,13.0188,43.386,0.3067,-0.0273,0.0459,155.94
18:52:12:840,-1.314,-1.0225,11.3552,42.8871,0.4073,0.2346,0.2183,156.09
18:52:12:859,-0.8211,-0.5647,9.7759,42.682,0.2993,0.176,0.2694,156.03
18:52:12:879,-0.4884,-0.2616,9.5421,42.3933,0.2269,-0.1689,0.1965,155.75
18:52:12:911,-0.4104,-0.2872,9.698,42.0356,0.2114,-0.4085,0.1071,155.41
18:52:12:920,-0.5183,-0.3387,9.5519,41.8659,0.1609,-0.3616,0.0757,155.2
18:52:12:939,-0.5834,-0.1756,9.0715,41.5928,0.097,-0.1663,0.1247,155.13
18:52:12:959,-0.2853,0.1836,8.4405,41.6265,0.0768,-0.0071,0.1859,155.09
18:52:12:979,0.1153,0.6925,7.685,41.7068,0.1039,-0.0039,0.1752,154.97
18:52:12:999,0.4408,1.0937,7.0151,41.4467,0.1092,-0.1524,0.0602,154.75
18:52:13:019,0.4776,1.2558,6.7938,41.6439,0.0592,-0.2121,-0.0888,154.55
18:52:13:039,0.1316,1.2007,6.6295,41.6058,-0.0036,-0.1892,-0.207,154.49
18:52:13:061,-0.3125,1.1167,6.5443,41.5204,-0.1143,-0.1423,-0.2283,154.62
18:52:13:080,-0.6326,1.2033,7.0701,41.6778,-0.183,-0.162,-0.183,154.88
18:52:13:099,-0.7165,1.4559,7.7694,41.4511,-0.1532,-0.2706,-0.1271,155.15
18:52:13:120,-0.6825,1.7677,8.3281,41.4922,-0.1069,-0.3569,-0.0813,155.38
18:52:13:141,-0.4703,2.1006,8.8826,41.1858,-0.0744,-0.3371,-0.0334,155.55
18:52:13:161,-0.077,2.4955,9.3565,40.9304,-0.0504,-0.2669,-0.0393,155.69
18:52:13:180,0.2509,2.8134,9.5872,40.6808,-0.0164,-0.2349,-0.1048,155.77
18:52:13:200,0.2887,2.9051,9.7673,40.485,0.0507,-0.2413,-0.1921,155.85
18:52:13:220,0.1502,2.8412,9.9567,40.149,0.155,-0.2206,-0.248,156
18:52:13:240,0.2389,2.8206,9.4868,40.2068,0.2008,-0.1599,-0.3038,156.24
18:52:13:261,0.1597,2.8141,8.9729,39.8915,0.1018,-0.2312,-0.3592,156.55
18:52:13:280,0.327,2.6789,9.3021,39.7423,0.0086,-0.4122,-0.4465,156.91
18:52:13:299,0.4081,2.1134,10.0643,39.6053,-0.0243,-0.5852,-0.5354,157.34
18:52:13:319,0.3167,1.1215,10.8541,39.6338,-0.011,-0.4734,-0.5194,157.9
18:52:13:340,0.3931,0.2633,10.5716,39.4278,-0.1133,-0.2264,-0.3832,158.59
18:52:13:360,0.508,0.0477,10.3652,39.366,-0.3411,-0.2025,-0.2719,159.25
18:52:13:379,0.9271,0.0607,10.7927,39.0019,-0.5567,-0.4665,-0.3007,159.71
18:52:13:399,0.9283,0.0497,12.5056,38.9869,-0.6243,-0.713,-0.4077,160.04
18:52:13:420,0.4777,-0.2777,13.9632,38.7905,-0.5311,-0.6214,-0.4497,160.44
18:52:13:440,0.1017,-0.6581,14.5586,38.834,-0.2144,-0.1918,-0.3108,160.98
18:52:13:460,0.653,-0.5969,12.9112,38.9412,0.1625,0.3277,-0.0808,161.56
18:52:13:479,2.0377,0.0385,9.879,38.9819,0.3067,0.3666,-0.0206,161.92
18:52:13:499,3.3168,0.7406,7.9969,38.9354,0.1955,-0.0816,-0.2943,161.97
18:52:13:518,3.542,1.0369,8.0808,39.0396,-0.0579,-0.4809,-0.7228,161.94
18:52:13:539,2.8914,0.6968,8.9981,39.0338,-0.2815,-0.467,-1.0842,162.28
18:52:13:559,1.7878,0.1904,9.4037,39.0581,-0.3847,-0.1732,-1.2104,163.15
18:52:13:579,0.9413,-0.0687,9.2667,39.1638,-0.3155,0.0147,-1.0917,164.43
18:52:13:599,0.6146,0.0852,8.8243,39.1724,-0.1287,0.0844,-0.841,165.83
18:52:13:619,0.8186,0.5144,8.4161,39.0953,0.0832,0.1563,-0.644,167.06
18:52:13:639,0.9621,1.0446,7.8075,38.8593,0.2514,0.1723,-0.5892,168
18:52:13:660,1.0442,1.2875,6.961,38.885,0.2439,0.1984,-0.6264,168.71
18:52:13:679,0.8311,1.3082,6.5762,38.7578,0.1087,0.2548,-0.6589,169.36
18:52:13:699,0.5372,1.3407,6.8204,38.8081,-0.0041,0.2723,-0.6616,170.04
18:52:13:720,0.3248,1.2826,7.2599,38.7366,-0.0382,0.2409,-0.6451,170.74
18:52:13:740,0.2249,1.2685,7.5999,38.741,-0.035,0.1717,-0.5998,171.45
18:52:13:761,0.2586,1.3911,8.0569,38.536,-0.0132,0.0972,-0.5466,172.15
18:52:13:780,0.3021,1.5409,8.5902,38.3949,0.0156,0.0908,-0.5088,172.8
18:52:13:800,0.1601,1.6325,8.9046,38.522,0.0342,0.1989,-0.4433,173.39
18:52:13:820,-0.0299,1.9254,8.9538,38.4676,0.0406,0.3607,-0.331,173.95
18:52:13:839,-0.1974,2.4042,8.9536,38.3347,0.0571,0.5028,-0.208,174.42
18:52:13:861,-0.3013,2.8188,8.8222,38.1655,0.0613,0.4757,-0.1159,174.73
18:52:13:880,-0.2363,3.0087,9.2835,37.8745,0.0555,0.217,-0.0973,174.89
18:52:13:899,0.0168,2.8245,10.3041,37.8371,0.0848,-0.0018,-0.1463,174.95
18:52:13:919,0.2668,2.0531,11.1149,37.6524,0.0635,-0.0018,-0.2437,175.02
18:52:13:939,0.3584,1.1357,11.2565,37.7575,-0.1207,0.1616,-0.3102,175.17
18:52:13:960,0.1225,0.6922,11.867,37.5908,-0.3815,0.1462,-0.3092,175.44
18:52:13:979,-0.081,0.3865,13.1571,37.1792,-0.4662,0.0275,-0.306,175.75
18:52:13:999,-0.5709,-0.1707,14.1565,37.1653,-0.3193,-0.0651,-0.29,176.07
18:52:14:077,-1.1238,-0.7909,14.1634,37.1215,-0.0488,-0.0273,-0.15,176.4
18:52:14:077,-1.239,-1.173,12.8504,37.2035,0.1625,0.2649,0.0672,176.73
18:52:14:078,-1.1062,-1.0412,10.6149,37.471,0.1795,0.5103,0.2673,176.89
18:52:14:079,-0.7073,-0.4732,8.7478,37.3716,0.0975,0.3719,0.4286,176.77
18:52:14:099,0.009,0.296,8.0178,37.7252,-0.052,-0.0561,0.4259,176.39
18:52:14:119,0.2732,0.7392,8.8392,37.5565,-0.1266,-0.508,0.2716,175.84
18:52:14:139,0.2897,0.7635,9.6685,37.8406,-0.1415,-0.6315,0.1263,175.35
18:52:14:160,0.1937,0.6819,10.1417,38.1808,-0.1537,-0.4276,0.0304,175.08
18:52:14:179,-0.0636,0.5952,10.0164,38.4497,-0.125,-0.1519,-0.0079,174.99
18:52:14:199,-0.2953,0.5769,9.5983,38.5394,-0.0483,0.0184,0.015,174.98
18:52:14:219,-0.5456,0.5808,9.0293,38.9076,0.0896,0.0685,0.0853,174.99
18:52:14:239,-0.4291,0.6271,8.2575,38.8459,0.2221,0.0749,0.1752,174.96
18:52:14:261,-0.167,0.8991,7.3799,39.1725,0.2663,0.0743,0.2285,174.84
18:52:14:279,0.2035,1.1894,6.7204,39.3677,0.2418,-0.0002,0.1987,174.61
18:52:14:299,0.4805,1.3709,6.4914,39.6465,0.1529,-0.137,0.0922,174.33
18:52:14:319,0.5062,1.3447,7.0021,39.6938,0.0539,-0.2653,-0.0302,174.09
18:52:14:339,0.3468,1.1982,7.8923,39.9731,0.0102,-0.2924,-0.1096,173.98
18:52:14:360,0.2082,1.1362,8.4859,40.1375,0.0071,-0.2051,-0.1495,174.03
18:52:14:380,0.0085,1.0299,8.6699,40.2742,0.0007,-0.1035,-0.1431,174.18
18:52:14:400,-0.156,1.0585,8.7626,40.4261,0.0039,-0.0241,-0.0744,174.36
18:52:14:420,-0.043,1.4482,8.7724,40.8386,0.0305,-0.0124,-0.0121,174.52
18:52:14:439,0.2109,1.8988,8.6172,41.0212,0.0582,-0.0172,-0.0361,174.59
18:52:14:461,0.1996,2.0675,8.3472,41.1974,0.0188,-0.0454,-0.1149,174.59
18:52:14:480,0.0083,2.0222,8.5852,41.4051,-0.0621,-0.1333,-0.1649,174.61
18:52:14:499,-0.1038,1.9202,9.1548,41.5658,-0.1462,-0.2674,-0.1984,174.73
18:52:14:519,0.1342,1.5469,9.9104,41.7652,-0.2719,-0.4564,-0.265,174.92
18:52:14:539,0.3197,0.6355,11.4618,42.2,-0.3736,-0.5213,-0.281,175.16
18:52:14:559,0.6676,-0.1552,12.3957,42.4568,-0.3853,-0.2722,-0.1601,175.5
18:52:14:580,1.1526,-0.2671,12.3388,42.6313,-0.4023,-0.1439,-0.0089,175.86
18:52:14:599,1.9707,0.2001,12.4846,42.8599,-0.381,-0.3371,-0.0137,176.06
18:52:14:619,2.3518,0.362,13.1936,43.0516,-0.3107,-0.6262,-0.1841,176.07
18:52:14:639,2.1354,0.0311,14.205,43.3137,-0.1952,-0.5975,-0.3395,176.09
18:52:14:660,1.8045,-0.3944,14.3905,43.7852,0.0677,-0.1535,-0.3576,176.34
18:52:14:679,1.8436,-0.5265,12.487,44.1547,0.3813,0.4214,-0.2714,176.77
18:52:14:699,2.5843,-0.2885,9.3572,44.4883,0.5601,0.5987,-0.2916,177.16
18:52:14:719,3.252,0.1438,6.6572,44.6894,0.4223,0.2441,-0.5258,177.42
18:52:14:739,3.0171,0.5792,6.3225,45.1567,-0.0137,-0.2967,-0.916,177.68
18:52:14:761,2.2823,0.1709,8.6414,45.4174,-0.324,-0.5027,-1.2988,178.24
18:52:14:780,0.9204,-0.575,10.3903,45.8048,-0.3155,-0.2828,-1.3988,179.31
18:52:14:800,-0.2043,-0.9424,10.3421,46.0641,-0.1393,0.1521,-1.196,180.83
18:52:14:820,-0.377,-0.7014,8.931,46.2511,-0.0031,0.5236,-0.8596,182.44
18:52:14:839,0.0997,0.162,7.3498,46.4119,0.0709,0.5854,-0.6302,183.78
18:52:14:859,0.6325,0.9661,6.4502,46.6555,0.1178,0.3852,-0.5865,184.69
18:52:14:879,0.9874,1.2425,5.9655,46.8256,0.1077,0.1925,-0.6685,185.34
18:52:14:900,0.95,1.2044,5.8001,47.0113,-0.0084,0.1222,-0.759,185.95
18:52:14:919,0.7009,1.1067,6.137,47.1151,-0.1452,0.1446,-0.7968,186.68
18:52:14:939,0.6294,1.0923,6.5233,47.2368,-0.2325,0.152,-0.7851,187.52
18:52:14:959,0.7112,1.1485,6.9969,47.1345,-0.2676,0.0727,-0.7872,188.4
18:52:14:979,0.6587,1.1105,7.5344,47.2742,-0.3011,-0.0412,-0.8048,189.26
18:52:15:000,0.4464,1.0273,8.2506,47.3265,-0.3624,-0.0156,-0.7755,190.13
18:52:15:020,0.124,1.0346,9.0178,47.3643,-0.3932,0.1142,-0.685,191.04
18:52:15:039,-0.1436,1.3697,9.4349,47.4754,-0.3629,0.2575,-0.545,191.91
18:52:15:060,-0.333,1.8901,9.6214,47.4128,-0.3161,0.3325,-0.4055,192.67
18:52:15:079,-0.6816,2.2944,9.8517,47.4494,-0.2559,0.2724,-0.3007,193.26
18:52:15:100,-1.0109,2.2167,10.6149,47.568,-0.1468,0.0264,-0.1761,193.69
18:52:15:120,-0.8231,1.9867,11.973,47.9043,0.0518,-0.1897,-0.0302,194
18:52:15:140,-0.1251,1.7571,12.8138,48.0946,0.2162,-0.1913,0.0017,194.18
18:52:15:161,0.1804,1.5209,12.938,48.4157,0.1556,0.0142,-0.0989,194.21
18:52:15:179,-0.2328,1.3677,12.8807,48.6861,-0.0951,0.126,-0.1686,194.2
18:52:15:199,-0.6481,1.2801,13.9559,48.9257,-0.2218,0.1755,-0.1058,194.3
18:52:15:219,-0.5328,1.0086,14.6707,49.2109,0.0039,0.0988,-0.0446,194.47
18:52:15:240,-0.0407,0.3072,14.2153,49.6341,0.2557,-0.0939,-0.0175,194.56
18:52:15:263,0.4269,-0.5014,13.8173,49.793,0.4377,-0.1381,-0.0217,194.59
18:52:15:279,0.6142,-1.3289,12.7706,49.9699,0.6309,0.0711,-0.0318,194.6
18:52:15:299,0.7322,-1.8977,10.3884,50.0811,0.6581,0.3756,-0.01,194.61
18:52:15:320,0.749,-1.8875,7.8795,50.2196,0.4388,0.4427,0.0267,194.63
18:52:15:340,0.6681,-1.4687,6.7306,50.3507,0.1114,0.085,0.0347,194.59
18:52:15:362,0.6777,-0.9854,7.4846,50.3669,-0.0877,-0.3653,0.0145,194.5
18:52:15:380,0.5983,-0.6312,8.1954,50.4242,-0.184,-0.5815,-0.0308,194.44
18:52:15:400,0.4694,-0.3636,8.6689,50.4963,-0.2916,-0.5192,-0.0585,194.44
18:52:15:420,0.2425,-0.139,9.0481,50.4319,-0.3629,-0.3153,-0.0686,194.52
18:52:15:439,-0.176,0.0349,9.3289,50.5621,-0.3086,-0.1535,-0.0089,194.61
18:52:15:460,-0.3866,0.1587,9.4375,50.9265,-0.0967,-0.0412,0.1156,194.7
18:52:15:485,-0.4982,0.286,9.437,50.9412,0.2056,0.0525,0.2694,194.71
18:52:15:499,-0.7928,0.3853,9.1282,51.1753,0.5048,0.2362,0.4957,194.56
18:52:15:520,-0.5256,1.0473,7.8734,51.2741,0.623,0.3554,0.633,194.23
18:52:15:539,0.1043,1.8075,6.7275,51.6576,0.5181,0.3416,0.5122,193.63
18:52:15:560,0.4125,2.2953,6.1843,51.5796,0.302,0.193,0.2439,192.86
18:52:15:578,0.4429,2.421,6.6679,51.2069,0.1614,-0.072,-0.0068,192.22
18:52:15:598,0.3598,2.3547,7.4391,51.1964,0.154,-0.3079,-0.2006,191.9
18:52:15:619,0.2661,2.1802,8.0568,51.1936,0.1556,-0.3355,-0.3113,191.9
18:52:15:639,0.3315,2.142,8.223,51.0837,0.1125,-0.2088,-0.3747,192.15
18:52:15:659,0.4093,2.3155,8.1966,51.0161,0.0518,-0.1162,-0.454,192.53
18:52:15:680,0.3587,2.4708,8.1899,50.9285,-0.0052,-0.1412,-0.5588,192.97
18:52:15:699,0.089,2.3467,8.3775,50.8654,-0.1058,-0.2147,-0.6477,193.48
18:52:15:720,-0.2853,1.9007,9.0108,50.7602,-0.2495,-0.2568,-0.6419,194.12
18:52:15:739,-0.6515,1.2995,10.2213,51.0157,-0.3613,-0.3568,-0.521,194.87
18:52:15:760,-0.6452,0.6755,12.0776,51.3049,-0.3554,-0.4846,-0.3342,195.62
18:52:15:780,-0.2579,0.0353,13.5262,51.5837,-0.2128,-0.3558,-0.1277,196.24
18:52:15:800,0.5827,-0.48,13.1508,51.8076,-0.1047,0.0227,0.0794,196.68
18:52:15:820,1.3633,-0.4374,11.9242,51.7427,-0.1297,0.0951,0.1912,196.84
18:52:15:840,1.9682,-0.3594,11.3878,52.011,-0.2261,-0.1588,0.0943,196.73
18:52:15:859,1.8601,-0.571,12.0915,52.0417,-0.3001,-0.326,-0.092,196.48
18:52:15:879,1.1835,-1.0414,13.2478,52.0693,-0.3059,-0.0768,-0.2043,196.37
18:52:15:899,0.5235,-1.5412,13.2547,52.2938,-0.183,0.3836,-0.1463,196.49
18:52:15:919,0.8282,-1.4926,11.4671,52.2436,0.0363,0.7381,0.0645,196.72
18:52:15:939,2.0137,-0.7448,9.1959,52.2864,0.2466,0.687,0.1667,196.84
18:52:15:959,3.1586,0.3326,7.5693,51.9283,0.3243,0.2223,-0.0382,196.68
18:52:15:979,3.2811,1.1282,7.2927,51.6618,0.1231,-0.2488,-0.5061,196.42
18:52:15:999,2.4438,0.9177,8.4773,51.4642,-0.1521,-0.3164,-1.0044,196.42
18:52:16:020,0.7255,0.0892,9.5835,51.0707,-0.2453,-0.022,-1.1625,197.01
18:52:16:039,-0.6116,-0.3551,9.5254,50.8288,-0.1675,0.2676,-0.9442,198.17
18:52:16:065,-0.72,0.0133,8.7615,50.6947,0.0502,0.2942,-0.6291,199.48
18:52:16:129,-0.052,0.8204,7.6864,50.2888,0.2253,0.1228,-0.4939,200.52
18:52:16:130,0.4567,1.4035,7.1083,49.8863,0.2498,-0.0044,-0.5375,201.19
18:52:16:130,0.655,1.5806,7.069,49.7428,0.1992,0.1084,-0.6589,201.73
18:52:16:139,0.3922,1.5514,6.7832,49.4632,0.1412,0.2202,-0.7574,202.33
18:52:16:160,0.1091,1.4266,6.5512,49.2716,0.0944,0.1499,-0.7861,203.05
18:52:16:179,-0.037,1.3346,6.7673,49.0719,0.0651,-0.0412,-0.7489,203.87
18:52:16:199,0.1134,1.3313,7.5044,48.8327,0.0374,-0.1828,-0.7015,204.74
18:52:16:219,0.2435,1.3426,8.3438,48.6086,0.0097,-0.178,-0.6786,205.58
18:52:16:239,0.1778,1.3823,8.8882,48.2222,-0.0185,-0.0742,-0.6531,206.38
18:52:16:259,0.0405,1.4506,9.1879,48.0792,-0.0307,0.0727,-0.5727,207.16
18:52:16:279,-0.0669,1.8162,9.219,47.7857,-0.0068,0.1962,-0.4428,207.89
18:52:16:299,-0.0812,2.2365,9.08,47.6979,0.015,0.2463,-0.3395,208.52
18:52:16:319,-0.0734,2.5613,9.1825,47.4785,0.0188,0.1877,-0.281,208.98
18:52:16:340,-0.1059,2.6572,9.765,47.3589,0.0097,-0.0209,-0.2916,209.33
18:52:16:360,-0.1221,2.0905,11.0784,47.124,0.0188,-0.2248,-0.3374,209.61
18:52:16:379,-0.3775,1.157,12.3396,46.9783,0.0268,-0.2158,-0.3252,209.92
18:52:16:399,-0.7662,0.5063,12.8628,46.722,0.0204,-0.0545,-0.1713,210.32
18:52:16:419,-0.8267,0.5183,12.8245,46.6739,-0.0153,0.0812,0.0198,210.69
18:52:16:439,-0.5125,0.8537,12.6761,46.4192,-0.0174,0.0871,0.1428,210.88
18:52:16:460,-0.3001,1.1462,12.4798,46.3578,0.0108,-0.0146,0.1353,210.83
18:52:16:480,-0.2994,1.0849,12.5217,46.0908,0.0523,-0.1354,0.0629,210.64
18:52:16:499,-0.2275,0.8089,12.7366,45.8567,0.1157,-0.0396,-0.0159,210.48
18:52:16:519,-0.1946,0.3333,11.9791,45.5227,0.2008,0.1776,-0.1138,210.41
18:52:16:539,-0.5556,-0.2016,10.1796,45.293,0.203,0.2058,-0.1617,210.41
18:52:16:559,-0.803,-0.5077,8.8786,44.9262,0.0954,0.0339,-0.1058,210.5
18:52:16:579,-0.7475,-0.4144,8.468,44.7571,-0.0153,-0.253,-0.0169,210.64
18:52:16:599,-0.436,-0.1047,8.7692,44.4113,-0.1084,-0.5043,0.0203,210.74
18:52:16:619,-0.1338,0.1133,9.3965,44.3252,-0.1579,-0.5256,0.0097,210.77
18:52:16:639,-0.0971,0.1528,9.7463,44.0195,-0.1532,-0.3137,0.0022,210.79
18:52:16:659,-0.3502,0.2037,9.585,43.6714,-0.0808,-0.0385,0.0565,210.83
18:52:16:679,-0.3832,0.38,8.7692,43.4809,0.0316,0.1702,0.1294,210.84
18:52:16:699,-0.1638,0.6607,7.6149,43.1605,0.0773,0.259,0.1571,210.77
18:52:16:719,-0.0036,0.8691,6.8145,43.0469,0.0757,0.1957,0.1481,210.58
18:52:16:739,0.0896,1.0402,6.502,42.9129,0.0848,0.0174,0.0996,210.35
18:52:16:759,0.1576,1.0997,6.5406,42.7201,0.0864,-0.1285,0.023,210.13
18:52:16:779,0.1228,1.1146,6.7838,42.4712,0.0465,-0.1801,-0.0521,210
18:52:16:799,0.1044,1.245,7.2598,42.1522,0.006,-0.1966,-0.133,209.98
18:52:16:819,-0.131,1.2677,7.7189,41.8781,-0.0653,-0.1897,-0.2325,210.04
18:52:16:840,-0.6222,1.0742,8.5251,41.6786,-0.1255,-0.1897,-0.2464,210.19
18:52:16:859,-0.9751,0.9982,9.4696,41.5984,-0.0738,-0.2099,-0.1255,210.46
18:52:16:881,-0.7649,1.2723,10.2147,41.5093,0.0741,-0.1679,0.0368,210.75
18:52:16:900,-0.3029,1.8686,10.3092,41.0766,0.1966,-0.0241,0.1055,210.9
18:52:16:920,0.0293,2.4653,9.8268,40.9649,0.1966,0.1329,0.0544,210.86
18:52:16:940,0.169,2.771,9.6379,40.8493,0.1306,0.1361,-0.0718,210.72
18:52:16:960,0.0157,2.673,9.8146,40.6146,0.0151,-0.013,-0.2032,210.62
18:52:16:981,-0.3009,2.191,10.9522,40.4711,-0.0265,-0.2727,-0.2379,210.69
18:52:16:999,-0.4698,1.3808,12.4186,40.4166,0.0795,-0.3329,-0.1468,210.9
18:52:17:019,-0.2414,0.73,12.6948,40.372,0.2275,-0.0114,0.065,211.19
18:52:17:039,0.6501,0.5954,11.1875,40.075,0.2477,0.2809,0.2088,211.38
18:52:17:061,1.348,0.8445,10.0002,39.8496,0.0901,0.2622,0.156,211.29
18:52:17:080,1.5731,0.9056,9.7362,39.8258,-0.1436,0.053,-0.0547,211
18:52:17:099,0.8293,0.5452,10.5542,39.6741,-0.2564,-0.1833,-0.2698,210.76
18:52:17:119,-0.0692,-0.1828,11.6061,39.4663,-0.1696,-0.2158,-0.323,210.8
18:52:17:139,-0.3021,-0.8232,11.644,39.3345,0.0246,0.011,-0.1868,211.11
18:52:17:160,0.4781,-0.7811,10.4608,39.1578,0.1401,0.2154,-0.0622,211.13
18:52:17:179,1.7713,-0.5223,9.3902,38.9019,0.1348,0.1787,-0.1612,211.5
18:52:17:199,2.3967,-0.282,8.8514,38.4888,-0.0158,0.0631,-0.446,211.68
18:52:17:220,1.7455,-0.3487,9.1997,38.4442,-0.2378,0.052,-0.7393,211.73
18:52:17:239,0.5322,-0.6603,9.8161,38.4445,-0.3384,0.1388,-0.8319,211.89
18:52:17:259,-0.6134,-0.6904,9.9501,37.9476,-0.3096,0.3086,-0.6557,212.34
18:52:17:279,-0.8243,-0.1252,9.3215,37.7866,-0.1766,0.4475,-0.3459,213.13
18:52:17:299,-0.1966,0.907,8.0105,37.4926,-0.0765,0.3964,-0.1298,214.02
18:52:17:319,0.3968,1.8814,7.2857,37.414,-0.0147,0.1574,-0.1175,214.73
18:52:17:341,0.6337,2.4199,7.1693,37.1888,0.0119,-0.0279,-0.2645,215.11
18:52:17:359,0.4874,2.524,7.3006,37.0711,-0.0062,-0.0587,-0.4513,215.29
18:52:17:379,0.0457,2.238,7.5332,36.8675,-0.0153,-0.0273,-0.5844,215.45
18:52:17:399,-0.5351,1.7892,7.8458,36.676,-0.0083,0.0323,-0.5913,215.76
18:52:17:420,-0.8804,1.5207,8.1433,36.2106,0.0113,0.0663,-0.503,216.27
18:52:17:440,-0.8591,1.3671,8.5315,36.1406,0.048,0.0972,-0.4018,216.92
18:52:17:460,-0.8413,1.2739,8.8356,35.6989,0.0731,0.1803,-0.2911,217.59
18:52:17:480,-0.6504,1.3922,9.1015,35.5823,0.0614,0.2409,-0.1905,218.16
18:52:17:500,-0.3981,1.5892,9.4054,35.352,0.0731,0.2894,-0.1394,218.59
18:52:17:519,-0.43,1.8268,9.4809,34.8467,0.088,0.3298,-0.1085,218.89
18:52:17:539,-0.6072,2.016,9.3301,34.3935,0.1119,0.3948,-0.0446,219.07
18:52:17:566,-0.7704,2.2955,8.8327,34.0046,0.0938,0.3991,0.0443,219.19
18:52:17:581,-0.7297,2.6161,8.7088,33.7135,0.0326,0.167,0.0853,219.26
18:52:17:599,-0.7348,2.5932,9.5963,33.6761,0.0071,-0.2019,0.0491,219.26
18:52:17:619,-0.9147,2.1092,10.9239,33.4591,0.0039,-0.3494,0.032,219.22
18:52:17:639,-1.2066,1.4491,11.6658,33.4061,-0.0222,-0.2126,0.1284,219.18
18:52:17:661,-1.2586,1.3757,11.7843,33.2912,-0.0765,-0.1439,0.2907,219.19
18:52:17:680,-0.6227,1.571,12.2584,33.0183,-0.117,-0.1391,0.3551,219.16
18:52:17:699,-0.0331,1.5644,12.6893,33.1859,-0.11,-0.0348,0.2615,219.02
18:52:17:719,-0.0962,1.2155,12.4947,33.1146,-0.1058,0.0317,0.1305,218.7
18:52:17:739,-0.6573,0.6364,12.2696,33.2657,-0.0823,-0.0422,0.0821,218.29
18:52:17:759,-1.0241,-0.1153,12.522,33.4358,0.0587,-0.1386,0.1262,217.97
18:52:17:780,-1.2063,-0.9417,12.0513,33.2633,0.2764,-0.0124,0.2545,217.84
18:52:17:801,-0.998,-1.2127,10.0179,33.2303,0.3041,0.2346,0.419,217.8
18:52:17:819,-0.6534,-0.8814,8.0787,33.3344,0.1151,0.1968,0.451,217.67
18:52:17:839,-0.5449,-0.5434,7.7049,33.1028,-0.1324,-0.1689,0.3674,217.33
18:52:17:859,-0.4828,-0.353,8.7677,32.9726,-0.2133,-0.5639,0.3136,216.81
18:52:17:880,-0.2179,0.0458,9.6482,33,-0.1824,-0.7337,0.2694,216.32
18:52:17:899,0.124,0.4949,10.0625,33.2651,-0.1526,-0.5708,0.2029,216.01
18:52:17:919,0.1134,0.7084,9.8661,33.3975,-0.101,-0.2174,0.1555,215.77
18:52:17:939,-0.0977,0.8442,8.9376,33.2243,-0.044,0.0483,0.1869,215.51
18:52:17:959,-0.0483,1.0687,8.088,33.3389,0.0209,0.0812,0.2189,215.27
18:52:17:981,0.0466,1.1671,7.6653,33.5551,0.1029,-0.0039,0.229,215.06
18:52:17:999,0.0617,1.1552,7.4097,33.549,0.1769,-0.0523,0.246,214.84
18:52:18:019,0.0274,1.1769,7.1028,33.8674,0.1817,-0.0726,0.2588,214.62
18:52:18:039,0.1115,1.3564,7.1704,33.979,0.129,-0.0891,0.229,214.39
18:52:18:059,0.2114,1.5218,7.6207,34.0623,0.0944,-0.1066,0.1438,214.12
18:52:18:084,0.0209,1.5433,8.142,34.1322,0.0832,-0.1482,0.0421,213.83
18:52:18:099,-0.3192,1.3445,8.8016,33.9278,0.1034,-0.2275,0.0187,213.58
18:52:18:119,-0.4205,1.3015,9.5026,34.0258,0.1551,-0.2243,0.0751,213.43
18:52:18:184,-0.2964,1.584,9.8308,34.1131,0.2024,-0.0816,0.1193,213.43
18:52:18:185,-0.213,1.857,9.7375,34.0161,0.2291,0.093,0.0996,213.45
18:52:18:185,-0.3881,2.063,9.1785,33.9216,0.2189,0.2026,0.0645,213.37
18:52:18:200,-0.6864,2.2067,8.7236,33.8001,0.1343,0.1356,0.0342,213.2
18:52:18:219,-0.9237,2.2675,8.9839,33.8946,0.0417,-0.1061,0.0118,213.04
18:52:18:239,-1.022,2.0488,10.0712,33.8061,0.0044,-0.3036,0.0389,212.94
18:52:18:259,-0.9893,1.7672,11.1318,33.7834,0.0513,-0.3025,0.1321,212.92
18:52:18:280,-0.5022,1.4311,11.4087,33.9058,0.1194,-0.1929,0.2439,212.97
18:52:18:300,0.4727,1.1713,10.8566,33.9923,0.0907,-0.0619,0.3083,212.99
18:52:18:319,1.5264,1.2322,10.339,34.0841,-0.0871,-0.0726,0.2189,212.88
18:52:18:339,1.9487,1.2111,10.6058,33.9147,-0.3038,-0.1295,-0.0031,212.59
18:52:18:359,1.6862,0.8722,11.2642,34.0219,-0.4044,-0.1668,-0.2405,212.21
18:52:18:380,0.9191,0.4007,11.6022,34.1012,-0.3661,-0.2014,-0.3571,211.94
18:52:18:401,0.5048,-0.0926,11.8762,33.897,-0.2527,-0.1859,-0.3502,211.95
18:52:18:419,0.4111,-0.4649,12.0153,33.8507,-0.0142,-0.0236,-0.2277,212.26
18:52:18:439,1.0337,-0.4681,10.5842,33.754,0.228,0.175,-0.0973,212.71
18:52:18:459,1.8536,-0.0843,8.5606,33.5674,0.195,0.0701,-0.1388,213.15
18:52:18:481,2.2941,0.3703,8.0703,33.347,-0.0057,-0.2307,-0.3725,213.42
18:52:18:499,1.9746,0.3876,9.1113,33.1659,-0.1734,-0.4409,-0.6355,213.52
18:52:18:520,1.2453,0.2048,9.8917,33.2865,-0.2287,-0.4409,-0.7728,213.7
18:52:18:539,0.512,0.0213,9.9706,33.0286,-0.1808,-0.252,-0.7143,214.17
18:52:18:559,0.1029,0.1823,9.2615,32.8667,-0.1143,0.0179,-0.5125,214.94
18:52:18:580,0.2955,0.6856,8.2981,32.7193,-0.0786,0.2186,-0.3486,215.84
18:52:18:600,0.5767,1.2786,7.368,32.503,-0.0909,0.2298,-0.3321,216.64
18:52:18:619,0.568,1.5392,6.9905,32.1814,-0.094,0.1473,-0.3997,217.18
18:52:18:639,0.3234,1.5149,6.8664,32.0567,-0.0802,0.0972,-0.4433,217.54
18:52:18:659,0.0624,1.4288,6.8558,31.766,-0.0903,0.0908,-0.4407,217.91
18:52:18:680,-0.0578,1.3532,7.0858,31.5206,-0.0733,0.0924,-0.3917,218.37
18:52:18:701,0.0381,1.4812,7.2224,31.1474,-0.0717,0.0296,-0.3464,218.86
18:52:18:719,0.2218,1.7119,7.5227,30.7283,-0.11,-0.0518,-0.356,219.35
18:52:18:739,0.2962,1.754,8.0683,30.4442,-0.1723,-0.1029,-0.3991,219.81
18:52:18:760,0.0712,1.7412,9.0003,30.3329,-0.1915,-0.0832,-0.381,220.21
18:52:18:781,-0.0087,1.8347,9.9502,30.2137,-0.1143,0.011,-0.2772,220.62
18:52:18:801,-0.0429,1.9682,10.5389,30.1184,0.0044,0.2149,-0.1277,221.08
18:52:18:819,-0.131,2.3049,10.4715,30.0189,0.1103,0.5098,0.0629,221.52
18:52:18:839,-0.0609,2.6093,9.9532,29.8819,0.1354,0.6008,0.1853,221.82
18:52:18:859,0.1493,2.5533,10.1021,29.6955,0.1199,0.4667,0.2162,221.9
18:52:18:879,-0.0019,1.9827,10.9025,29.5466,0.1434,0.1686,0.2045,221.75
18:52:18:901,-0.2775,0.8828,11.9876,29.7073,0.2126,0.1169,0.2998,221.51
18:52:18:919,-0.2802,0.3398,12.0088,29.4951,0.1929,0.3921,0.5372,221.28
18:52:18:939,0.0085,0.9053,11.4541,29.4354,0.0427,0.5944,0.7411,221.06
18:52:18:959,0.5667,1.7866,11.4445,29.3474,-0.0674,0.4927,0.7006,220.64
18:52:18:979,0.6759,1.9269,11.7269,29.437,-0.0839,0.1702,0.4291,219.9
18:52:18:999,0.0659,1.2623,12.2064,29.3958,-0.0935,-0.171,0.1907,218.99
18:52:19:019,-0.6751,0.2246,12.9737,29.5701,0.0108,-0.3898,0.1513,218.2
18:52:19:039,-1.1482,-0.6736,12.937,29.7135,0.3057,-0.2434,0.2785,217.76
18:52:19:059,-0.9556,-1.0053,10.6724,29.8979,0.4585,0.1547,0.4754,217.64
18:52:19:079,-0.3163,-0.518,8.1531,29.9391,0.3142,0.2894,0.5974,217.53
18:52:19:099,0.3659,0.3388,7.1587,30.1393,0.064,-0.1497,0.5622,217.18
18:52:19:119,0.9149,1.1201,8.4022,30.3256,-0.0365,-0.7023,0.3732,216.56
18:52:19:139,1.1679,1.2935,9.679,30.5204,-0.0137,-0.804,0.1066,215.91
18:52:19:159,0.7966,1.1227,9.944,30.5056,-0.003,-0.5559,-0.0712,215.41
18:52:19:179,0.3159,0.9037,9.7868,30.6669,0.0209,-0.253,-0.1436,215.11
18:52:19:199,-0.0611,0.768,9.4129,30.5375,0.0385,0.0126,-0.1628,215.04
18:52:19:219,-0.4116,0.7296,8.9355,30.6669,0.0811,0.1254,-0.1346,215.13
18:52:19:239,-0.5801,0.7242,8.5548,30.5534,0.1545,0.1281,-0.092,215.27
18:52:19:260,-0.7539,0.683,8.2475,30.6947,0.2541,0.1265,-0.0473,215.43
18:52:19:282,-0.9615,0.5731,7.6317,30.7904,0.3217,0.1121,0.0256,215.58
18:52:19:301,-1.0092,0.6029,7.1707,30.7091,0.2653,0.0562,0.1199,215.69
18:52:19:320,-0.7329,0.8745,7.3746,30.7091,0.1694,0.0099,0.1571,215.74
18:52:19:340,-0.4884,1.156,8.0259,30.6506,0.1668,-0.0507,0.1342,215.7
18:52:19:359,-0.3449,1.3692,8.3117,30.6015,0.211,-0.0247,0.1002,215.55
18:52:19:380,-0.2935,1.624,8.1765,30.6652,0.2238,0.1026,0.0709,215.38
18:52:19:400,0.0249,2.1215,8.2482,30.5157,0.2003,0.1893,0.0267,215.24
18:52:19:420,0.1288,2.6016,8.3346,30.7234,0.2429,0.2814,-0.0675,215.1
18:52:19:440,-0.2979,2.8631,7.7087,30.9343,0.1503,0.2388,-0.1575,214.97
18:52:19:460,-0.7761,2.9284,7.8217,31.1222,-0.0983,0.0174,-0.1857,214.88
18:52:19:480,-1.1056,2.6563,9.2094,31.151,-0.3006,-0.2743,-0.1133,214.89
18:52:19:499,-1.3325,2.3546,11.1502,31.0368,-0.3533,-0.5176,0.0618,215.03
18:52:19:520,-1.0085,2.1259,13.2004,31.1434,-0.1606,-0.5325,0.2822,215.27
18:52:19:540,-0.0555,1.9523,13.3225,31.2598,0.1375,-0.2855,0.4691,215.51
18:52:19:560,1.1449,1.8572,11.7918,31.2616,0.2344,-0.1593,0.5356,215.59
18:52:19:580,2.4569,1.665,10.6676,31.6617,0.1093,-0.2088,0.3871,215.38
18:52:19:600,2.7065,1.4645,10.5454,31.7633,-0.1356,-0.2509,0.0831,214.9
18:52:19:620,1.6795,0.6096,10.9158,31.5642,-0.3501,-0.0795,-0.2251,214.3
18:52:19:639,-0.3111,-0.3941,11.038,31.6527,-0.4172,0.1276,-0.2261,213.85
18:52:19:659,-1.377,-0.8234,10.9251,31.7683,-0.2852,0.0706,0.1342,213.7
18:52:19:680,-0.8873,-0.4114,10.5692,31.7346,-0.0121,-0.0774,0.5276,213.89
18:52:19:699,0.3051,0.3716,9.7568,31.6834,0.1838,-0.1348,0.6841,214.19
18:52:19:719,1.5062,1.0148,8.7966,31.6794,0.1753,-0.105,0.5622,214.14
18:52:19:740,2.233,1.2758,8.2513,31.8516,-0.0153,-0.0896,0.2391,213.62
18:52:19:759,2.1706,1.1643,8.4104,31.7753,-0.2356,-0.1173,-0.1351,212.85
18:52:19:780,1.4983,0.7422,8.9542,31.7368,-0.34,-0.1082,-0.389,212.17
18:52:19:799,0.7924,0.2816,9.1489,31.8093,-0.3453,0.0094,-0.4566,211.86
18:52:19:819,0.3273,0.1685,8.6742,31.5591,-0.3112,0.1654,-0.3874,212.01
18:52:19:839,0.138,0.4457,7.8777,31.5671,-0.3224,0.225,-0.2847,212.41
18:52:19:859,0.121,0.8861,7.5117,31.7875,-0.3378,0.1196,-0.2176,212.9
18:52:19:880,0.3706,1.1257,7.6939,32.1039,-0.3144,-0.055,-0.2267,213.3
18:52:19:901,0.5147,1.3615,8.6706,32.1755,-0.1712,-0.0699,-0.2421,213.62
18:52:19:920,0.9545,1.8247,9.4316,32.0591,0.1066,0.0669,-0.3012,213.9
18:52:19:939,1.5091,2.254,10.0507,31.937,0.4202,0.3256,-0.4678,214.2
18:52:19:960,1.1619,2.2529,8.7569,31.7181,0.5911,0.6562,-0.6557,214.52
18:52:19:981,0.2158,2.0992,6.7138,31.8081,0.3478,0.7147,-0.7558,214.86
18:52:20:000,-0.5449,1.9301,6.5323,31.7586,-0.0509,0.5103,-0.6759,215.29
18:52:20:019,-0.8571,1.9224,8.1583,31.4595,-0.1558,0.1883,-0.4939,215.86
18:52:20:039,-0.9867,1.89,9.2525,31.0663,-0.0397,-0.005,-0.2767,216.58
18:52:20:059,-0.7699,2.0045,9.7771,30.7417,0.0486,0.0355,-0.0526,217.33
18:52:20:079,-0.4607,2.4124,9.8393,30.5021,0.0971,0.2431,0.1092,217.95
18:52:20:099,-0.3774,2.7114,9.4713,30.4449,0.1008,0.4102,0.1954,218.28
18:52:20:120,-0.3969,2.666,9.0734,30.4985,0.055,0.2745,0.2764,218.29
18:52:20:140,0.0492,2.2749,9.6285,30.3877,0.038,-0.228,0.3424,218.09
18:52:20:160,0.5904,1.6308,10.9756,30.1488,0.0848,-0.7199,0.3573,217.83
18:52:20:180,0.7222,0.9972,12.0504,30.2051,0.1247,-0.7071,0.4494,217.6
18:52:20:250,0.7799,0.9538,12.1802,30.3591,0.0678,-0.2195,0.624,217.38
18:52:20:250,0.7928,1.624,11.2395,30.5484,-0.1009,0.1686,0.7427,217.1
18:52:20:250,0.8183,2.1642,10.5925,30.5713,-0.2979,0.1473,0.698,216.58
18:52:20:258,0.3646,2.3178,10.7349,30.5494,-0.4305,-0.1955,0.5638,215.78
18:52:20:279,0.0331,2.11,11.9392,30.5856,-0.4347,-0.5916,0.4504,214.87
18:52:20:299,-0.4415,1.6389,13.3678,30.5219,-0.159,-0.7108,0.3999,214.11
18:52:20:319,-0.7626,0.8883,13.1335,30.6539,0.2615,-0.4638,0.4387,213.6
18:52:20:340,-0.8625,0.3577,11.435,30.8946,0.5958,-0.1109,0.5505,213.25
18:52:20:359,-0.7377,0.4468,9.3173,31.0609,0.6997,-0.0321,0.6383,212.93
18:52:20:379,-0.0666,0.7437,7.914,31.0868,0.5298,-0.2024,0.5633,212.49
18:52:20:400,0.2647,0.9522,7.9966,31.2831,0.2983,-0.4963,0.3557,211.89
18:52:20:420,0.5535,0.9825,8.9355,31.4752,0.204,-0.6853,0.1087,211.17
18:52:20:440,0.694,0.8473,9.9576,31.7508,0.3297,-0.6581,-0.1447,210.58
18:52:20:460,0.4313,0.5705,10.1577,31.7721,0.5591,-0.344,-0.2794,210.29
18:52:20:480,0.0375,0.3509,9.1521,31.7384,0.6736,0.1377,-0.24,210.33
18:52:20:500,-0.2409,0.3262,7.3273,31.6654,0.5336,0.5071,-0.101,210.6
18:52:20:520,-0.4042,0.4856,5.9477,31.5161,0.1812,0.5396,0.0384,210.89
18:52:20:541,-0.1053,0.5434,5.8015,31.1966,-0.1829,0.3118,0.0629,210.98
18:52:20:559,-0.0856,1.1469,6.581,31.1913,-0.283,0.0339,0.1007,210.87
18:52:20:579,0.0967,1.2869,7.434,31.1078,-0.1888,-0.2211,0.1529,210.66
18:52:20:600,0.4269,1.3227,8.1864,31.1941,-0.0435,-0.2296,0.147,210.57
18:52:20:620,0.4487,1.48,8.6253,31.1837,0.105,-0.006,0.1624,210.54
18:52:20:639,0.3106,1.6729,8.8605,31.1762,0.1812,0.1739,0.2513,210.46
18:52:20:660,0.3705,2.1041,8.9594,31.3231,0.1817,0.3597,0.4238,210.33
18:52:20:680,0.5281,2.8597,8.97,31.3592,0.1338,0.3565,0.5574,210.12
18:52:20:700,1.1285,3.4464,9.0727,31.4571,0.0486,0.3506,0.5489,209.75
18:52:20:720,1.5378,3.8214,9.0976,31.5038,-0.0504,0.3373,0.4126,209.18
18:52:20:740,1.4667,3.7952,9.4471,31.652,-0.1409,0.2218,0.254,208.45
18:52:20:759,1.1816,3.4981,10.2272,31.6323,-0.1835,0.0855,0.147,207.72
18:52:20:780,0.9495,3.1161,11.1278,31.6682,-0.1829,-0.0007,0.0885,207.18
18:52:20:800,0.8403,2.5154,11.3731,31.5138,-0.1829,-0.0779,0.1081,206.87
18:52:20:820,0.8879,1.7768,11.0178,31.6481,-0.283,-0.071,0.27,206.71
18:52:20:840,1.159,1.2368,10.9522,31.3243,-0.349,0.0477,0.5415,206.63
18:52:20:860,1.708,1.0672,10.718,31.3417,-0.2532,0.0184,0.7368,206.5
18:52:20:880,2.2281,1.2175,10.7441,31.3734,-0.0993,-0.1189,0.6799,206.19
18:52:20:900,1.8256,1.3487,10.485,31.437,-0.1217,-0.4361,0.4595,205.6
18:52:20:919,1.2682,1.4252,11.2358,31.2865,-0.316,-0.5559,0.2253,204.83
18:52:20:939,0.8509,1.0747,12.448,31.1911,-0.398,-0.3435,0.0192,204.12
18:52:20:959,0.5378,0.6009,12.6841,30.8926,-0.2479,0.0738,-0.0313,203.69
18:52:20:980,0.6294,0.2538,11.1996,30.8145,-0.0451,0.423,0.0432,203.44
18:52:21:001,1.1125,0.261,9.4436,30.6604,0.0795,0.3448,0.1119,203.4
18:52:21:019,2.183,0.4841,8.5751,30.8074,0.1498,0.0147,-0.0659,203.37
18:52:21:039,2.2713,0.7408,8.3706,30.7277,0.1758,-0.3808,-0.4588,203.31
18:52:21:059,1.7334,0.5166,7.9594,30.4514,0.0018,-0.4787,-0.8495,203.23
18:52:21:079,1.1096,0.2321,8.2985,30.6027,-0.2207,-0.2291,-1.0347,203.42
18:52:21:100,0.5428,-0.2918,8.111,30.5698,-0.3645,0.1569,-1.1039,203.99
18:52:21:119,-0.022,-0.2348,7.3842,30.4617,-0.447,0.4518,-1.0193,204.91
18:52:21:139,-0.0112,0.0436,6.4395,30.6162,-0.5556,0.4432,-0.8468,205.98
18:52:21:159,0.6555,0.6386,6.8683,30.3504,-0.7509,0.4012,-0.7356,207.1
18:52:21:180,1.498,1.6277,8.5746,30.4152,-1.0272,0.851,-0.8309,208.18
18:52:21:201,1.4819,2.2162,9.6719,30.2379,-1.2705,1.7325,-1.1487,209.05
18:52:21:219,0.1138,1.9002,9.2213,30.0684,-1.4014,2.2702,-1.3493,209.65
18:52:21:240,-1.545,1.0426,8.0873,29.8242,-1.4142,2.2244,-1.1503,210.22
18:52:21:259,-2.226,0.37,7.6262,29.4648,-1.1842,1.6921,-0.7201,211.25
18:52:21:279,-2.3569,0.401,7.9112,28.9513,-0.7105,0.8766,-0.3709,212.74
18:52:21:301,-2.367,0.8053,8.6932,28.5823,-0.0797,0.0797,-0.1889,214.22
18:52:21:320,-2.313,1.0106,9.118,28.2747,0.4037,-0.4697,-0.0308,215.33
18:52:21:340,-1.9871,1.1076,9.3505,28.0505,0.6379,-0.4042,0.1811,216.02
18:52:21:360,-1.8512,1.4287,9.376,27.6728,0.7034,-0.3206,0.3695,216.4
18:52:21:380,-1.6174,1.7942,9.3552,27.5333,0.7108,-0.2285,0.559,216.43
18:52:21:400,-1.0601,1.921,9.3884,27.3771,0.6778,-0.3318,0.6511,216.21
18:52:21:420,-0.4402,1.825,10.0233,27.24,0.6214,-0.5697,0.5276,215.76
18:52:21:439,-0.3551,1.428,11.0747,27.2847,0.5437,-0.5958,0.2764,215.16
18:52:21:459,-0.7615,0.7889,11.7201,27.3786,0.4495,-0.5144,0.0868,214.48
18:52:21:479,-1.455,0.2907,12.2727,27.4523,0.3185,-0.3856,0.0932,213.91
18:52:21:499,-1.945,-0.0495,12.3077,27.5001,0.1274,-0.2402,0.2657,213.6
18:52:21:519,-1.9877,-0.0438,12.5197,27.7354,-0.1355,-0.3116,0.4739,213.49
18:52:21:540,-1.6977,0.0788,13.6087,27.8407,-0.2298,-0.3866,0.5484,213.36
18:52:21:560,-1.766,-0.1429,14.6703,27.74,0.0188,-0.3579,0.5904,213.07
18:52:21:579,-1.6606,-0.6469,13.8529,28.0319,0.401,0.101,0.7267,212.57
18:52:21:601,-1.4164,-0.6444,10.8663,28.2874,0.5384,0.6248,0.8976,212
18:52:21:619,-1.0859,-0.2129,7.984,28.3171,0.4106,0.6647,1.0046,211.29
18:52:21:640,-0.8669,0.4034,6.6553,28.2432,0.2046,0.1904,0.9934,210.33
18:52:21:659,-0.9174,0.7964,6.8951,28.1595,0.0795,-0.4675,0.8885,209.21
18:52:21:679,-0.9639,0.7187,8.1053,28.2491,0.0625,-0.8471,0.7783,208.1
18:52:21:699,-0.9555,0.5117,9.1691,28.2702,0.1109,-0.7124,0.7235,207.11
18:52:21:719,-1.0127,0.4269,9.3299,28.1103,0.1705,-0.4548,0.7028,206.26
18:52:21:740,-0.8177,0.4463,8.905,28.222,0.2019,-0.2136,0.6532,205.45
18:52:21:760,-0.6256,0.3049,8.2883,28.0907,0.1774,-0.0215,0.5793,204.65
18:52:21:779,-0.4383,0.2344,7.6158,28.263,0.1391,0.0531,0.5872,203.85
18:52:21:800,0.0856,0.4927,7.1762,28.4526,0.1051,-0.0135,0.5777,203.07
18:52:21:820,0.4883,0.8988,7.1306,28.7002,0.0912,-0.0672,0.4914,202.39
18:52:21:840,0.6845,1.1406,7.0916,28.9041,0.0646,-0.063,0.37,201.73
18:52:21:860,0.7331,1.2826,7.0737,28.9896,-0.0126,0.0014,0.2455,201.08
18:52:21:880,1.1642,1.3468,7.369,28.9869,-0.1377,0.0259,0.0682,200.53
18:52:21:900,0.4687,1.4111,8.7841,29.2172,-0.0999,0.036,-0.2331,200.08
18:52:21:920,-0.8424,1.6727,8.9292,29.4354,0.0188,0.0365,-0.125,199.77
18:52:21:939,-1.2832,1.7102,8.7778,29.5605,0.0779,0.0738,0.0868,199.68
18:52:21:959,-1.2103,1.9371,8.6326,29.4709,0.1061,0.0312,0.171,199.96
18:52:21:979,-1.4964,2.1468,8.6892,29.4569,0.0513,-0.245,0.1837,200.1
18:52:22:000,-1.6045,1.9222,9.3191,29.476,-0.0701,-0.6123,0.3035,200.01
18:52:22:019,-0.8975,1.5703,10.6856,29.6902,-0.1558,-0.8514,0.4999,199.89
18:52:22:040,-0.0096,1.491,12.0049,29.7438,-0.1126,-0.9488,0.6479,199.81
18:52:22:060,1.0244,1.395,13.2526,29.9417,0.0571,-0.7923,0.6932,199.62
18:52:22:079,2.0239,1.2802,12.9098,30.1161,0.2094,-0.1971,0.6325,199.21
18:52:22:101,2.2378,1.4052,11.2663,30.2284,0.0747,0.1356,0.4909,198.59
18:52:22:120,1.915,1.7122,10.5717,30.3148,-0.2553,-0.1263,0.3003,197.77
18:52:22:140,1.3032,1.6966,12.1211,30.5582,-0.4874,-0.5405,0.0459,196.94
18:52:22:159,0.4552,0.9632,14.34,30.7628,-0.3884,-0.4367,-0.0915,196.37
18:52:22:180,-0.1209,-0.0887,14.5268,31.0419,-0.0264,0.1936,0.0475,196.11
18:52:22:200,0.0124,-0.4682,12.1445,31.0336,0.3366,0.8191,0.3578,196.12
18:52:22:219,1.0479,-0.156,9.2232,31.138,0.5463,0.8963,0.5399,196.16
18:52:22:241,1.9108,0.5265,7.1351,31.2638,0.5144,0.3613,0.3983,195.97
18:52:22:298,1.9376,1.1193,6.8821,31.145,0.2328,-0.2541,0.0554,195.47
18:52:22:298,1.5263,0.8957,8.2595,31.2432,-0.06,-0.4904,-0.2937,194.89
18:52:22:306,0.6307,0.1513,9.3772,31.3534,-0.1552,-0.3227,-0.4327,194.52
18:52:22:319,-0.2551,-0.2478,9.2122,31.421,-0.1105,-0.0853,-0.2985,194.51
18:52:22:339,-0.4419,-0.1028,8.458,31.3522,-0.0727,0.0307,-0.0372,194.85
18:52:22:359,-0.0061,0.4866,7.9915,31.2898,-0.0291,0.0296,0.1736,195.33
18:52:22:379,0.401,1.108,8.0519,31.2179,0.0742,0.0318,0.2567,195.66
18:52:22:400,0.5151,1.4747,7.8867,31.459,0.1998,0.1462,0.2497,195.71
18:52:22:420,0.558,1.6188,7.4993,31.5806,0.2355,0.2969,0.2034,195.53
18:52:22:440,0.5214,1.6837,7.1232,31.7053,0.1444,0.4576,0.1678,195.22
18:52:22:460,0.4576,1.8232,7.0354,31.9757,0.0348,0.5433,0.1566,194.87
18:52:22:479,0.375,2.0291,7.1738,31.9849,-0.0254,0.4768,0.1278,194.52
18:52:22:499,0.2434,2.0865,7.5666,31.9284,-0.0184,0.3075,0.0922,194.21
18:52:22:520,0.0319,2.0711,8.0256,31.9855,0.0076,0.1691,0.0895,193.96
18:52:22:539,-0.1532,2.08,8.5602,31.9996,0.0215,0.1686,0.131,193.79
18:52:22:560,-0.2865,2.2755,9.101,32.065,0.0401,0.2708,0.2029,193.68
18:52:22:580,-0.3452,2.6086,9.977,31.8959,0.195,0.3682,0.2806,193.56
18:52:22:601,-0.4719,2.8386,10.1793,31.6501,0.3856,0.4023,0.3551,193.36
18:52:22:620,-0.4794,2.9908,10.4871,31.6675,0.5224,0.2889,0.4281,193.08
18:52:22:640,-0.6078,2.7645,10.8041,31.473,0.5911,0.061,0.4377,192.71
18:52:22:660,-0.75,2.3816,11.4045,31.4174,0.5831,0.0259,0.4866,192.29
18:52:22:679,-0.4397,1.9493,11.8445,31.4983,0.475,0.3405,0.5814,191.84
18:52:22:702,-0.1363,1.7222,11.6724,31.6432,0.3031,0.6248,0.6729,191.34
18:52:22:720,-0.0663,1.9986,11.269,31.6833,0.1232,0.6424,0.7837,190.68
18:52:22:741,0.4741,2.1415,11.0382,31.6675,-0.0248,0.5124,0.7895,189.85
18:52:22:760,0.5035,2.1926,10.9918,31.7471,-0.1616,0.3059,0.691,188.94
18:52:22:779,0.3788,1.9653,11.2205,31.9011,-0.2457,-0.0875,0.5255,187.95
18:52:22:799,0.0468,1.3203,12.0551,31.8332,-0.1744,-0.3297,0.3493,187
18:52:22:822,-0.4697,0.2464,11.8126,31.7827,-0.0317,-0.1013,0.2779,186.27
18:52:22:839,-0.9286,-0.6207,10.1797,31.7874,-0.0573,0.34,0.4089,185.76
18:52:22:859,-0.9806,-0.6993,8.4322,31.8269,-0.2191,0.4826,0.6607,185.37
18:52:22:879,-0.6516,-0.0463,7.6992,31.6416,-0.3426,0.0413,0.8475,184.95
18:52:22:900,0.0117,0.7577,8.1011,31.7838,-0.3666,-0.5714,0.8358,184.38
18:52:22:919,0.4514,1.2766,9.1608,31.97,-0.3213,-0.8561,0.6681,183.68
18:52:22:939,0.4958,1.337,9.9068,32.0856,-0.2425,-0.7758,0.4813,182.9
18:52:22:959,0.286,1.2129,9.9674,32.3038,-0.1989,-0.5245,0.3541,182.14
18:52:22:980,-0.0095,1.0471,9.8448,32.3432,-0.1712,-0.3606,0.2881,181.51
18:52:23:001,-0.4325,0.9366,9.8383,32.6483,-0.012,-0.2775,0.3253,181.02
18:52:23:021,-0.4499,0.9152,9.2362,32.7678,0.2509,-0.2131,0.4424,180.65
18:52:23:039,-0.0689,1.0319,7.9145,33.0182,0.4202,-0.1162,0.5473,180.37
18:52:23:059,0.2847,1.3531,6.6532,33.2563,0.4377,-0.0635,0.6021,180.06
18:52:23:079,0.6444,1.7366,5.879,33.2134,0.3526,-0.121,0.5798,179.58
18:52:23:099,0.8927,2.1733,5.7109,33.3814,0.1806,-0.2567,0.4797,178.97
18:52:23:124,0.934,2.3765,6.3216,33.4543,-0.0674,-0.3648,0.3237,178.31
18:52:23:139,0.8833,2.4577,7.8213,33.4442,-0.2106,-0.3377,0.1965,177.7
18:52:23:159,0.5837,2.479,9.1438,33.612,-0.2181,-0.2583,0.1353,177.21
18:52:23:179,0.3197,2.4321,10.0355,33.6752,-0.1132,-0.1018,0.163,176.86
18:52:23:200,0.2092,2.5226,10.1824,33.777,0.022,0.1297,0.2332,176.68
18:52:23:220,0.2272,2.7958,9.6538,33.6649,0.0598,0.2175,0.2849,176.54
18:52:23:240,0.4215,3.0529,9.6858,33.7973,0.0183,0.1345,0.2726,176.32
18:52:23:260,0.6415,3.1496,10.2682,33.9034,-0.0195,0.0738,0.1827,176.01
18:52:23:279,0.6557,2.8418,11.3785,33.9086,-0.0099,0.0578,0.0751,175.66
18:52:23:299,0.6649,2.1755,12.6299,34.017,0.0912,0.2543,0.0363,175.34
18:52:23:320,0.9957,1.4778,12.6795,33.9386,0.1423,0.5971,0.0267,175.12
18:52:23:340,1.0451,1.2405,11.6059,33.9476,0.0028,0.6083,0.0315,174.97
18:52:23:360,0.812,1.2401,11.3323,33.9969,-0.1803,0.2303,0.0161,174.78
18:52:23:379,0.3957,0.9537,11.9569,34.1505,-0.1888,-0.0997,-0.0324,174.62
18:52:23:399,0.0276,0.3961,12.2872,34.1295,-0.0344,-0.1466,0.0326,174.58
18:52:23:420,0.1789,0.0981,11.7987,33.9441,0.1822,0.0861,0.2226,174.62
18:52:23:439,0.8261,0.1471,10.3913,33.9709,0.3686,0.3607,0.3961,174.7
18:52:23:459,1.6455,0.4906,8.5874,34.0654,0.4489,0.3677,0.4265,174.64
18:52:23:479,2.2836,0.9131,7.1248,34.1334,0.3547,0.0302,0.2615,174.3
18:52:23:499,2.375,1.2936,6.6845,33.9541,0.0486,-0.3941,-0.0531,173.79
18:52:23:520,1.9703,1.2295,7.4615,33.8869,-0.3389,-0.7135,-0.3912,173.33
18:52:23:539,1.2049,0.7564,8.9795,33.7817,-0.5513,-0.7715,-0.5988,173.13
18:52:23:559,0.2876,0.316,9.4872,33.661,-0.653,-0.5618,-0.5812,173.33
18:52:23:580,0.0021,0.0285,9.4521,33.8239,-0.695,0.0184,-0.3709,173.9
18:52:23:600,-0.0589,0.1669,8.77,33.9606,-0.5742,0.3107,-0.1085,174.65
18:52:23:621,0.0966,0.7668,7.965,33.9518,-0.341,0.3522,0.1337,175.23
18:52:23:640,0.5489,1.2935,7.24,33.7744,-0.0988,0.3538,0.2146,175.59
18:52:23:659,0.7592,1.7372,6.6005,33.7527,0.0476,0.2825,0.131,175.68
18:52:23:679,0.7617,2.0056,6.4266,33.9275,0.022,0.1883,0.0304,175.5
18:52:23:699,0.7815,2.032,6.7573,34.052,-0.0935,0.1207,-0.0633,175.24
18:52:23:720,0.7916,2.1151,7.8084,34.1562,-0.16,0.0674,-0.1479,175.08
18:52:23:739,0.8526,2.0291,8.6949,34.2279,-0.127,0.1127,-0.2474,175.03
18:52:23:759,0.6543,1.9331,9.4526,34.1012,-0.1212,0.1835,-0.3071,175.09
18:52:23:779,0.3958,1.7866,10.2844,34.1543,-0.0759,0.3559,-0.2804,175.24
18:52:23:800,0.0256,1.7711,10.42,34.088,0.03,0.5588,-0.133,175.48
18:52:23:821,-0.2379,1.8665,10.2239,34.1917,0.1849,0.6775,0.0895,175.76
18:52:23:840,-0.2737,2.1748,9.9133,34.1161,0.3643,0.7126,0.3307,175.98
18:52:23:860,-0.1244,2.5731,9.3645,34.1672,0.4596,0.6557,0.5122,176.03
18:52:23:880,0.2359,2.9025,8.9124,34.0273,0.367,0.4299,0.5462,175.84
18:52:23:900,0.5044,2.8383,9.0873,33.8061,0.1396,0.036,0.4137,175.39
18:52:23:920,0.3191,2.0325,10.3727,33.7151,-0.0472,-0.3286,0.2465,174.78
18:52:23:940,-0.3984,1.0587,11.8706,33.5637,-0.077,-0.4287,0.2902,174.22
18:52:23:960,-0.807,0.8736,13.1175,33.5602,0.038,-0.2722,0.5542,173.85
18:52:23:979,-0.4385,1.2806,13.2047,33.6909,0.1444,0.0137,0.7256,173.66
18:52:23:999,-0.1763,1.6663,12.4949,33.6866,0.0859,0.0584,0.6873,173.36
18:52:24:019,-0.4006,1.6324,12.4631,33.6158,0.0018,-0.1215,0.5691,172.69
18:52:24:039,-0.4864,0.9395,12.983,33.6309,0.1141,-0.0326,0.4861,171.85
18:52:24:059,-0.6788,0.2916,11.7722,33.7019,0.2685,0.3363,0.4919,171.11
18:52:24:079,-0.8284,0.2455,9.4522,33.8027,0.2568,0.521,0.5782,170.45
18:52:24:100,-0.7087,0.6483,7.6701,33.8661,0.1013,0.3144,0.6298,169.79
18:52:24:123,-0.3807,1.1349,7.2752,33.9876,-0.0972,-0.252,0.6059,169.12
18:52:24:140,0.0754,1.5938,8.3219,34.0057,-0.2069,-0.805,0.5372,168.44
18:52:24:160,0.8314,1.938,10.2132,33.9731,-0.2063,-1.0605,0.3663,167.86
18:52:24:180,1.4246,2.2097,11.7912,33.9138,-0.0099,-0.7923,0.1129,167.38
18:52:24:200,1.5931,2.2069,11.8469,34.0032,0.2733,-0.2131,-0.1234,166.98
18:52:24:220,1.2135,1.8791,10.5617,33.9131,0.4058,0.3485,-0.3401,166.64
18:52:24:240,0.4219,1.3149,8.8994,33.9377,0.2988,0.702,-0.4332,166.46
18:52:24:260,-0.2571,0.7731,7.9647,34.0278,0.1476,0.8867,-0.3949,166.45
18:52:24:280,-0.7996,0.404,7.4174,34.0961,0.1492,0.8755,-0.2714,166.66
18:52:24:342,-1.0846,0.3067,6.7668,33.876,0.2355,0.7185,-0.0797,166.96
18:52:24:342,-1.0474,0.4137,5.9587,33.9244,0.2626,0.4374,0.0986,167.25
18:52:24:342,-0.8865,0.6604,5.4507,33.9442,0.1716,0.0807,0.2162,167.44
18:52:24:359,-0.7589,0.8909,5.5664,33.8041,-0.0179,-0.2488,0.2758,167.48
18:52:24:379,-0.7748,1.1055,6.5634,33.6643,-0.184,-0.4595,0.3104,167.4
18:52:24:399,-0.7375,1.2601,7.8902,33.514,-0.2244,-0.5208,0.3408,167.26
18:52:24:421,-0.7522,1.5418,8.8324,33.6356,-0.1813,-0.4436,0.3972,167.07
18:52:24:439,-0.6764,2.0822,9.6604,33.5956,-0.0791,-0.3078,0.4573,166.84
18:52:24:460,-0.3617,2.4621,9.7986,33.5986,0.03,-0.1274,0.4536,166.53
18:52:24:480,-0.1062,2.6646,9.5544,33.6069,0.0082,-0.1114,0.3823,166.13
18:52:24:500,0.0213,2.6773,9.9673,33.5644,-0.0818,-0.1934,0.2875,165.61
18:52:24:521,-0.1623,2.3651,11.0163,33.6418,-0.1446,-0.2429,0.2269,165.11
18:52:24:540,-0.2912,1.7965,12.1594,33.9096,-0.0972,-0.1758,0.262,164.72
18:52:24:559,0.0149,1.2511,12.64,34.1992,0.0486,0.0291,0.3599,164.45
18:52:24:580,0.6485,0.9118,11.6758,34.3937,0.0742,0.275,0.4228,164.22
18:52:24:600,0.9847,1.045,10.3073,34.4478,-0.0882,0.2383,0.4217,163.89
18:52:24:621,0.901,1.1607,9.6807,34.6019,-0.2553,-0.1167,0.3509,163.41
18:52:24:639,0.4023,1.0632,10.1516,34.5955,-0.332,-0.6038,0.2769,162.89
18:52:24:659,0.1632,0.7197,11.7695,34.8334,-0.2047,-0.7523,0.3275,162.47
18:52:24:679,0.4691,0.404,12.385,34.9326,0.0491,-0.2722,0.4616,162.24
18:52:24:699,1.3191,0.4786,11.1137,34.9473,0.2105,0.3442,0.5329,162.07
18:52:24:719,2.3713,0.6529,8.9012,35.1015,0.1189,0.4598,0.4025,161.69
18:52:24:739,2.465,1.2453,7.7607,35.0433,-0.1701,0.0477,0.0842,161.02
18:52:24:759,1.7705,1.411,8.5491,35.1688,-0.4193,-0.4393,-0.2666,160.32
18:52:24:779,0.7732,0.7215,9.9196,35.1807,-0.4336,-0.5809,-0.429,159.89
18:52:24:799,-0.2088,0.2117,10.4556,35.2297,-0.2287,-0.3212,-0.2831,159.91
18:52:24:819,-0.4358,0.316,9.5184,35.4188,-0.0248,0.0062,-0.0201,160.32
18:52:24:839,-0.1375,0.9362,8.2397,35.4805,0.0619,0.1175,0.1726,160.83
18:52:24:859,0.4138,1.5802,7.3881,35.596,0.0992,0.1116,0.2322,161.12
18:52:24:880,0.7432,2.0564,6.809,35.6434,0.0949,0.1026,0.1906,161.11
18:52:24:900,0.8331,2.2989,6.3963,35.6123,0.039,0.0791,0.1076,160.9
18:52:24:921,0.7911,2.345,6.5745,35.7566,-0.0344,0.0248,0.0278,160.62
18:52:24:940,0.7317,2.2965,7.0818,35.7413,-0.0759,-0.0156,-0.0169,160.39
18:52:24:959,0.8148,2.2234,7.5978,35.6143,-0.118,-0.0156,-0.0547,160.27
18:52:24:979,0.8619,2.237,8.15,35.8068,-0.1552,-0.0082,-0.092,160.24
18:52:24:999,0.8539,2.1541,8.7877,35.6489,-0.1552,-0.0438,-0.1042,160.26
18:52:25:019,0.894,1.9851,9.6629,35.4907,-0.0914,-0.0161,-0.0585,160.32
18:52:25:041,0.7765,1.9542,10.2492,35.4132,0.0396,0.1691,0.0661,160.44
18:52:25:059,0.7578,2.1438,10.163,35.3335,0.129,0.4906,0.1997,160.56
18:52:25:080,0.8642,2.3922,9.769,35.3393,0.1322,0.686,0.2854,160.58
18:52:25:099,0.9887,2.5504,9.7174,35.2816,0.1285,0.6029,0.311,160.39
18:52:25:120,1.0453,2.3944,10.0553,35.3241,0.1397,0.3368,0.27,160.04
18:52:25:141,0.7273,1.871,10.8194,35.3172,0.1359,0.1542,0.2348,159.64
18:52:25:160,0.4055,1.1565,11.3383,35.391,0.0704,0.1973,0.2599,159.28
18:52:25:180,0.1492,0.8221,11.5586,35.5007,-0.0413,0.2452,0.37,158.98
18:52:25:200,0.0297,1.0316,12.0558,35.5129,-0.1393,0.2032,0.476,158.68
18:52:25:220,-0.092,1.3536,12.7316,35.6373,-0.1755,0.1457,0.5186,158.35
18:52:25:240,-0.2046,1.5008,13.3344,35.9244,-0.1579,0.0376,0.5122,157.91
18:52:25:260,-0.5765,1.5898,13.967,35.8594,-0.0168,-0.0097,0.5122,157.36
18:52:25:279,-0.9011,1.1712,13.9742,36.074,0.3297,0.2181,0.5202,156.78
18:52:25:299,-1.2343,0.5705,11.7877,36.1242,0.6065,0.687,0.6043,156.2
18:52:25:319,-1.1855,0.3952,8.7532,36.214,0.5804,0.9026,0.7682,155.52
18:52:25:339,-0.6785,0.6929,6.7169,36.0061,0.3323,0.579,0.8688,154.74
18:52:25:359,-0.1458,1.3116,6.5365,36.0472,0.0827,-0.1748,0.8454,153.89
18:52:25:379,0.3506,1.6601,7.7591,36.1768,-0.0078,-0.9216,0.6894,153
18:52:25:399,0.7131,1.5827,9.1999,36.2966,-0.0467,-1.2064,0.4366,152.16
18:52:25:419,0.7458,1.1153,10.3071,36.2119,-0.0259,-0.9296,0.2274,151.45
18:52:25:439,0.4912,0.4544,9.9762,36.536,-0.0003,-0.277,0.1449,150.9
18:52:25:460,0.0846,0.1613,8.66,36.6125,-0.0855,0.3022,0.1598,150.52
18:52:25:480,-0.1234,0.16,7.7438,36.7278,-0.135,0.5481,0.2268,150.23
18:52:25:500,-0.1535,0.3606,7.0159,36.9311,-0.0754,0.4869,0.3088,149.96
18:52:25:522,0.0903,0.6476,6.5663,37.0571,0.0151,0.3123,0.3408,149.66
18:52:25:540,0.3251,0.9178,6.141,37.0782,0.0076,0.2511,0.2939,149.33
18:52:25:560,0.2904,1.2474,6.0598,37.2459,-0.1217,0.2463,0.2066,148.94
18:52:25:580,0.1069,1.5402,6.5094,37.23,-0.2388,0.1973,0.1401,148.52
18:52:25:599,-0.0375,1.8626,7.2125,37.3217,-0.2782,0.0744,0.0996,148.15
18:52:25:621,-0.1114,2.08,7.832,37.2937,-0.2612,-0.1151,0.0938,147.9
18:52:25:639,-0.0998,2.2419,8.6873,37.4649,-0.1962,-0.3568,0.1273,147.75
18:52:25:659,-0.0488,2.4758,9.6549,37.6575,-0.0546,-0.5229,0.1779,147.67
18:52:25:679,0.1657,2.6048,10.1824,37.7354,0.0337,-0.4457,0.1912,147.64
18:52:25:699,0.2455,2.6813,10.3993,38.0572,-0.0536,-0.1109,0.1928,147.58
18:52:25:719,0.4018,2.779,10.8203,38.4702,-0.1632,0.101,0.1518,147.42
18:52:25:741,0.6727,2.7206,11.4524,38.6132,-0.1504,0.0536,0.0027,147.17
18:52:25:759,0.7759,2.0617,11.8029,39.0059,-0.0679,-0.0832,-0.1559,146.92
18:52:25:779,0.919,0.8357,11.998,39.4372,-0.0067,-0.0465,-0.2368,146.74
18:52:25:799,0.9046,-0.2314,11.4598,39.6916,-0.1057,0.2128,-0.1862,146.75
18:52:25:820,0.6675,-0.5316,10.8248,39.9514,-0.3256,0.3341,-0.0915,146.92
18:52:25:840,0.2478,-0.2904,11.1135,40.0423,-0.4336,0.0536,-0.0505,147.14
18:52:25:859,-0.5443,-0.027,12.2343,40.3827,-0.4746,-0.2903,-0.0047,147.32
18:52:25:879,-0.8985,-0.2395,14.0237,40.4494,-0.3112,-0.2637,0.1592,147.47
18:52:25:900,-0.4997,-0.632,14.0428,40.6578,0.1428,0.1792,0.4648,147.62
18:52:25:920,0.6519,-0.1487,11.2916,40.9048,0.491,0.4874,0.6953,147.63
18:52:25:940,2.0291,0.9092,8.3186,40.837,0.4835,0.3235,0.6021,147.33
18:52:25:960,2.5811,1.939,7.232,40.8015,0.2286,-0.1205,0.1848,146.67
18:52:25:979,2.1603,2.0789,8.0327,40.8363,-0.0099,-0.4846,-0.3592,145.86
18:52:25:999,0.9339,1.2677,9.2126,40.8582,-0.0844,-0.5367,-0.7212,145.27
18:52:26:021,-0.3358,0.384,9.4463,40.9778,-0.0584,-0.31,-0.7494,145.18
18:52:26:039,-1.1813,-0.1453,9.1495,40.8104,-0.0009,-0.0465,-0.528,145.65
18:52:26:059,-1.2825,-0.0972,8.5981,40.9449,0.0864,0.1015,-0.2437,146.48
18:52:26:080,-0.8202,0.3264,7.9675,40.8179,0.1455,0.1212,-0.0318,147.3
18:52:26:099,-0.2584,0.8281,7.5375,40.7771,0.1769,0.1052,0.0799,147.88
18:52:26:119,0.2666,1.1448,7.051,40.8125,0.17,0.0722,0.1119,148.14
18:52:26:139,0.5462,1.4071,6.9573,41.0102,0.1375,-0.0481,0.1044,148.17
18:52:26:159,0.869,1.5917,7.4131,41.1468,0.1194,-0.1311,0.0672,148.08
18:52:26:180,1.0345,1.7239,7.9001,41.1504,0.0997,-0.0614,0.0017,147.98
18:52:26:199,1.001,1.7463,8.138,41.1664,0.039,0.1212,-0.0633,147.89
18:52:26:220,0.752,1.7746,8.3051,41.472,-0.0067,0.2729,-0.0494,147.8
18:52:26:240,0.5255,1.9448,8.4063,41.5537,-0.0019,0.3315,0.0304,147.76
18:52:26:260,0.4132,2.2457,8.5406,41.7766,0.046,0.2894,0.1348,147.78
18:52:26:280,0.474,2.6676,8.7536,42.0126,0.0827,0.2628,0.2359,147.79
18:52:26:299,0.6967,3.0751,9.0366,42.2774,0.0859,0.3496,0.2721,147.72
18:52:26:320,0.8815,3.3471,9.2867,42.4233,0.063,0.3874,0.2354,147.53
18:52:26:341,0.9722,3.2463,9.713,42.4532,0.0369,0.2271,0.1182,147.2
18:52:26:390,0.773,2.7066,10.7818,42.5838,0.0204,-0.0571,-0.0345,146.83
18:52:26:390,0.4072,1.7777,12.0869,42.8372,0.0231,-0.0369,-0.0856,146.55
18:52:26:399,-0.1407,0.8338,12.4709,42.9472,0.0353,0.2718,0.0411,146.46
18:52:26:419,-0.5333,0.9227,12.1156,43.1491,0.0342,0.5486,0.3365,146.5
18:52:26:439,-0.1097,1.7641,11.6928,43.1627,0.0539,0.5753,0.5276,146.52
18:52:26:460,0.4114,2.2606,11.1113,43.2502,0.0704,0.464,0.4265,146.37
18:52:26:479,0.0984,2.0557,10.4032,43.4571,-0.0419,0.0243,0.2205,145.91
18:52:26:499,-0.5052,1.2431,11.65,43.5415,-0.0679,-0.6677,0.082,145.24
18:52:26:519,-1.0946,-0.2743,13.0974,43.668,0.1524,-0.8162,0.0954,144.82
18:52:26:544,-1.2435,-1.3992,12.3668,44.0166,0.3941,-0.2807,0.3472,144.74
18:52:26:559,-0.7138,-1.296,9.8039,44.2279,0.3084,0.2239,0.5494,144.76
18:52:26:579,-0.2244,-0.4827,8.0926,44.5913,-0.0232,0.11,0.5707,144.6
18:52:26:599,0.1427,0.1775,8.896,44.8034,-0.1403,-0.3339,0.5143,144.14
18:52:26:619,0.503,0.4253,9.8743,45.1807,-0.0371,-0.4734,0.41,143.56
18:52:26:640,0.5387,0.4719,9.72,45.4779,0.0289,-0.1897,0.3062,143.02
18:52:26:659,0.3193,0.4483,8.7355,45.6059,0.0124,0.1883,0.2567,142.5
18:52:26:679,0.1864,0.5672,7.6705,46.0807,-0.0121,0.3426,0.2684,142.03
18:52:26:699,0.4181,0.7829,7.0433,46.3402,-0.0014,0.2559,0.2673,141.61
18:52:26:720,0.6913,1.0567,6.7982,46.4566,0.014,0.0818,0.2146,141.26
18:52:26:739,0.7843,1.3298,6.8838,46.7184,0.0087,-0.0608,0.139,140.92
18:52:26:759,0.7923,1.6103,7.0976,46.6281,-0.0147,-0.1263,0.0469,140.61
18:52:26:779,0.6439,1.8886,7.4305,47.031,-0.0727,-0.1412,-0.067,140.39
18:52:26:799,0.1322,1.8856,8.0022,47.2218,-0.1164,-0.1684,-0.1277,140.25
18:52:26:819,-0.3842,1.7509,8.8291,47.4026,-0.0855,-0.171,-0.0851,140.23
18:52:26:840,-0.5769,1.71,9.5668,47.5857,-0.0099,-0.0092,0.0443,140.33
18:52:26:862,-0.4492,2.061,9.8406,47.5274,0.0188,0.2804,0.1694,140.5
18:52:26:879,-0.1861,2.7305,9.9045,47.7174,0.0295,0.4715,0.1933,140.58
18:52:26:899,0.01,3.2126,9.8043,47.9412,0.1098,0.5327,0.1332,140.46
18:52:26:919,0.1305,3.3786,9.3034,48.0174,0.2035,0.4065,0.0496,140.18
18:52:26:940,0.1213,3.0861,8.83,48.2931,0.1993,0.0211,-0.0191,139.86
18:52:26:959,0.1629,2.6101,9.3707,48.3875,0.1359,-0.4196,-0.0425,139.64
18:52:26:980,0.4848,1.8959,10.7119,48.5801,0.0678,-0.6075,-0.0579,139.61
18:52:27:000,0.7411,0.9909,11.8614,48.8159,0.0199,-0.5064,-0.0164,139.74
18:52:27:019,1.0829,0.5171,12.4189,48.8634,0.0114,-0.1599,0.1103,139.92
18:52:27:040,1.3642,0.7405,11.4396,49.2776,-0.0562,0.2585,0.2045,140.07
18:52:27:059,1.1721,1.4299,10.1017,49.4322,-0.2298,0.1872,0.1284,140.1
18:52:27:080,0.7964,1.6032,10.1219,49.6229,-0.3655,-0.2626,-0.051,139.91
18:52:27:099,0.2328,1.0586,11.0656,49.6872,-0.3448,-0.5905,-0.1532,139.67
18:52:27:119,-0.2124,0.4076,11.746,49.8729,-0.2409,-0.5809,-0.125,139.61
18:52:27:140,-0.2328,-0.0814,11.7625,49.996,-0.0743,-0.4399,-0.0169,139.78
18:52:27:160,0.5033,-0.3216,11.0282,50.2376,0.0971,-0.344,0.0959,140.03
18:52:27:180,1.4051,-0.0678,9.7634,50.4606,0.1066,-0.3318,0.0767,140.2
18:52:27:199,1.8739,0.4327,8.9543,50.7204,-0.0488,-0.3951,-0.1016,140.25
18:52:27:219,1.7285,0.7422,9.0135,50.6632,-0.2143,-0.3893,-0.3363,140.18
18:52:27:240,1.1114,0.6786,9.29,50.7664,-0.2761,-0.1918,-0.5078,140.17
18:52:27:259,0.3819,0.478,8.9398,50.8408,-0.267,0.167,-0.5541,140.34
18:52:27:279,-0.2454,0.3604,7.8523,51.0677,-0.2723,0.4475,-0.4535,140.73
18:52:27:299,-0.5705,0.5687,6.7778,51.0411,-0.2804,0.4747,-0.24,141.24
18:52:27:320,-0.3764,1.0339,6.3035,50.9215,-0.2495,0.2229,-0.0537,141.79
18:52:27:341,0.1169,1.4938,6.532,50.8828,-0.1813,-0.0667,0.0107,142.26
18:52:27:360,0.4848,1.8738,7.0765,50.7591,-0.1265,-0.1806,-0.0095,142.54
18:52:27:380,0.5768,2.0845,7.8619,50.6862,-0.085,-0.0949,-0.0888,142.65
18:52:27:399,0.3768,2.0596,8.4264,50.7107,-0.0456,0.0845,-0.1591,142.67
18:52:27:420,0.0901,1.8089,8.6709,50.5067,-0.0344,0.2234,-0.1447,142.67
18:52:27:441,0.0347,1.608,9.0099,50.4865,-0.0206,0.2303,-0.042,142.73
18:52:27:461,0.1693,1.5971,9.5791,50.4855,0.0513,0.1361,0.0986,142.87
18:52:27:480,0.4978,1.701,10.1469,50.6299,0.1609,0.1361,0.2237,143.01
18:52:27:499,0.8376,1.9041,10.3269,50.5343,0.2685,0.2953,0.32,143.06
18:52:27:519,1.076,2.2996,10.0549,50.7255,0.3446,0.496,0.3748,142.93
18:52:27:540,1.3186,2.7488,9.5805,51.0917,0.3994,0.6737,0.3717,142.61
18:52:27:559,1.3656,2.9373,8.7695,51.3743,0.376,0.6349,0.3035,142.15
18:52:27:579,1.1816,2.8618,8.6221,51.4662,0.2658,0.2793,0.2024,141.61
18:52:27:599,0.8645,2.4803,9.7604,51.9136,0.179,-0.1593,0.1156,141.11
18:52:27:619,0.6519,1.8469,11.4582,52.2622,0.1721,-0.1716,0.0922,140.77
18:52:27:640,0.5259,1.3089,11.7502,52.4953,0.1226,0.1132,0.1188,140.62
18:52:27:660,0.3868,1.4066,11.7091,52.8221,-0.0019,0.2846,0.1417,140.52
18:52:27:679,0.3491,1.6776,11.9372,53.0141,-0.0983,0.3735,0.0927,140.37
18:52:27:699,-0.0973,1.6593,12.1128,53.0932,-0.1574,0.2878,0.0086,140.2
18:52:27:719,-0.8018,1.1555,12.612,53.1284,-0.1521,0.0371,-0.0233,139.99
18:52:27:740,-1.5522,0.4533,13.3558,53.277,-0.0466,-0.1088,0.0794,139.85
18:52:27:760,-1.8299,-0.3363,13.226,53.3158,0.1817,0.1223,0.3056,139.86
18:52:27:780,-1.5323,-0.5424,11.2459,53.427,0.359,0.4938,0.5974,139.9
18:52:27:800,-0.8581,-0.0659,8.6636,53.4318,0.3712,0.5353,0.8241,139.74
18:52:27:819,-0.013,0.7211,6.9617,53.5005,0.2142,0.1499,0.822,139.26
18:52:27:842,0.3694,1.1506,6.8037,53.4547,-0.0424,-0.442,0.6511,138.5
18:52:27:860,0.3237,1.2429,8.2896,53.7761,-0.1973,-0.8695,0.4696,137.6
18:52:27:879,0.3845,1.0419,9.767,53.8674,-0.1973,-0.812,0.2673,136.83
18:52:27:899,-0.1041,0.5244,10.2428,54.1804,-0.1504,-0.3494,0.1656,136.29
18:52:27:919,-0.8692,-0.058,9.8781,54.1834,-0.1159,0.2239,0.2764,135.87
18:52:27:939,-1.1911,-0.0251,8.9905,54.3531,-0.0286,0.6029,0.4978,135.57
18:52:27:959,-0.9557,0.4464,7.6629,54.6797,0.1141,0.6482,0.6474,135.3
18:52:27:979,-0.4957,0.886,6.2128,54.7192,0.1838,0.5039,0.6325,134.87
18:52:27:999,-0.2892,1.091,5.1014,54.9464,0.0843,0.2335,0.5505,134.18
18:52:28:019,-0.1974,1.1987,5.0106,55.0179,-0.1212,-0.1167,0.5212,133.37
18:52:28:042,0.1964,1.4576,6.1446,55.0716,-0.2739,-0.417,0.5308,132.64
18:52:28:060,0.6815,1.8958,7.7197,55.1196,-0.2835,-0.549,0.4818,132.1
18:52:28:079,1.092,2.3444,8.8393,55.0597,-0.2149,-0.4436,0.3232,131.62
18:52:28:099,1.18,2.5356,9.1762,55.1415,-0.2117,-0.2307,0.1001,131.1
18:52:28:119,0.9011,2.4809,9.3679,55.3632,-0.2378,-0.0757,-0.0595,130.58
18:52:28:139,0.4958,2.3554,9.5934,55.3557,-0.1978,-0.0257,-0.1016,130.22
18:52:28:160,0.275,2.3312,9.5772,55.3971,-0.1196,-0.0353,-0.0723,130.1
18:52:28:179,0.3023,2.3746,9.423,55.4467,-0.0898,-0.1758,-0.0468,130.16
18:52:28:199,0.6132,2.179,9.7492,55.5442,-0.1185,-0.425,-0.051,130.27
18:52:28:219,0.8285,1.6581,10.7957,55.6267,-0.1813,-0.5895,-0.0579,130.38
18:52:28:240,1.1373,0.8451,12.2672,55.7242,-0.1962,-0.5639,-0.0499,130.51
18:52:28:260,1.4485,0.2194,13.1414,55.8539,-0.1925,-0.1189,0.0043,130.66
18:52:28:280,1.6148,0.0519,12.4121,55.6517,-0.333,0.2985,0.0469,130.78
18:52:28:299,1.5734,0.27,11.6786,55.382,-0.547,0.3171,-0.0121,130.8
18:52:28:319,1.2139,0.1023,11.7827,55.1062,-0.6381,0.0744,-0.1383,130.74
18:52:28:339,0.3213,-0.2595,12.4513,54.9207,-0.5305,-0.1561,-0.1495,130.68
18:52:28:359,-0.368,-0.5756,12.73,54.5121,-0.2697,-0.0816,0.0049,130.73
18:52:28:379,-0.1724,-0.7394,11.8452,54.1358,0.0752,0.1031,0.2577,130.92
18:52:28:447,1.1509,-0.4415,9.9228,53.9416,0.3292,0.1089,0.4169,131.05
18:52:28:447,2.3796,0.3852,8.0844,53.4242,0.2951,-0.2083,0.3046,130.97
18:52:28:448,3.0624,1.1956,7.8944,53.0836,0.0369,-0.6107,-0.0888,130.64
18:52:28:461,2.7978,1.2714,9.3622,52.9908,-0.2095,-0.6762,-0.611,130.22
18:52:28:479,1.5757,0.4107,10.6944,53.0912,-0.2479,-0.3244,-0.9437,129.99
18:52:28:499,0.1956,-0.3176,10.5583,52.8774,-0.127,0.2346,-0.9224,130.16
18:52:28:519,-0.4727,-0.4264,9.2572,52.7458,-0.0035,0.6237,-0.7031,130.83
18:52:28:540,-0.5126,-0.0278,7.927,52.541,0.1173,0.6147,-0.4524,131.81
18:52:28:561,-0.0889,0.5281,7.0107,52.4911,0.2344,0.398,-0.2868,132.77
18:52:28:580,0.2927,0.9582,6.381,52.2897,0.2615,0.1829,-0.2522,133.53
18:52:28:600,0.4753,1.1329,6.2204,52.2258,0.1535,0.0967,-0.29,134.05
18:52:28:620,0.3729,1.1668,6.6431,51.941,0.0263,0.11,-0.3076,134.4
18:52:28:640,0.2105,1.1083,7.1975,51.6728,-0.0158,0.0994,-0.2794,134.71
18:52:28:660,0.2654,1.1424,7.7897,51.1174,0.0151,0.06,-0.2187,135.05
18:52:28:680,0.3582,1.203,8.1691,50.8491,0.0396,0.0568,-0.1697,135.4
18:52:28:700,0.2786,1.1428,8.504,50.6468,0.0167,0.1345,-0.1165,135.72
18:52:28:719,0.1729,1.0652,8.9103,50.4818,-0.0376,0.3235,-0.0175,135.96
18:52:28:740,0.1499,1.2073,9.365,50.2179,-0.0397,0.5242,0.1215,136.14
18:52:28:759,0.1905,1.6497,9.4074,50.0066,0.0076,0.6562,0.2364,136.23
18:52:28:780,0.3463,2.1673,9.1163,49.6145,0.0071,0.7131,0.2662,136.18
18:52:28:800,0.4867,2.4702,9.0865,49.5337,-0.0568,0.5811,0.2114,135.97
18:52:28:820,0.4688,2.3813,9.7211,49.4256,-0.102,0.2277,0.1113,135.63
18:52:28:840,0.1587,1.8834,11.0299,49.2913,-0.0706,-0.1471,0.0342,135.31
18:52:28:860,0.0499,1.1263,12.1348,49.1805,-0.0419,-0.0789,0.0139,135.11
18:52:28:880,-0.0027,0.6003,12.1837,49.1225,-0.1329,0.3352,0.0416,135.05
18:52:28:899,-0.196,0.686,11.7769,48.9887,-0.2841,0.4965,0.0613,135
18:52:28:919,-0.4571,0.6812,11.8773,48.8621,-0.3602,0.3096,0.0267,134.91
18:52:28:939,-0.8923,0.1934,12.3989,48.5495,-0.3607,-0.0534,0.0342,134.84
18:52:28:959,-1.0692,-0.2916,13.1265,48.6201,-0.2857,-0.2823,0.1874,134.8
18:52:28:980,-0.911,-0.4934,13.7103,48.4222,-0.0546,-0.278,0.3786,134.83
18:52:29:000,-0.4685,-0.6579,12.7809,48.1715,0.269,0.0451,0.5101,134.83
18:52:29:019,-0.1165,-0.4422,10.1346,48.167,0.3297,0.3964,0.5372,134.57
18:52:29:039,0.175,-0.1994,7.7834,48.1132,0.1466,0.3128,0.468,134.01
18:52:29:059,0.1657,-0.0775,7.248,48.0763,-0.0765,-0.2216,0.353,133.33
18:52:29:079,0.0862,-0.2228,8.3324,48.0792,-0.1739,-0.7337,0.2588,132.75
18:52:29:099,0.0002,-0.6153,8.7889,48.3122,-0.2196,-0.8391,0.2274,132.37
18:52:29:120,-0.205,-0.5682,8.7286,48.4613,-0.3224,-0.6618,0.2386,132.11
18:52:29:141,-0.1583,-0.2218,8.7406,48.5055,-0.3474,-0.3845,0.2061,131.88
18:52:29:159,0.0836,0.0777,8.4021,48.571,-0.2676,-0.2205,0.1566,131.64
18:52:29:179,0.2415,0.3052,8.0173,48.8181,-0.2165,-0.1583,0.0613,131.33
18:52:29:199,0.0064,0.3913,8.1775,48.8202,-0.1174,-0.2386,0.0006,131.05
18:52:29:219,-0.1795,0.3842,8.4971,48.934,0.0209,-0.2349,0.0176,130.85
18:52:29:239,-0.0208,0.5252,8.413,49.0864,0.1386,-0.1625,0.0427,130.78
18:52:29:260,0.3153,0.8512,8.1812,49.0619,0.178,-0.0976,-0.0031,130.76
18:52:29:280,0.6321,1.1869,8.31,48.9375,0.1881,-0.0726,-0.1245,130.71
18:52:29:300,0.7776,1.4003,8.6473,48.8494,0.22,-0.0246,-0.2799,130.64
18:52:29:320,0.6357,1.421,8.8794,48.6837,0.236,0.0744,-0.4242,130.64
18:52:29:340,0.2918,1.2553,8.9254,48.8746,0.2243,0.1957,-0.4896,130.78
18:52:29:360,-0.0852,1.1477,8.8887,48.8858,0.1998,0.2798,-0.4465,131.05
18:52:29:380,-0.284,1.2313,8.8241,48.8369,0.1647,0.2963,-0.3688,131.51
18:52:29:400,-0.3977,1.3695,8.8274,48.9232,0.1008,0.184,-0.3086,132.05
18:52:29:420,-0.4449,1.3586,9.1738,48.6885,0.0177,-0.0843,-0.2724,132.55
18:52:29:439,-0.472,0.9274,10.1341,48.6142,-0.0557,-0.4351,-0.2219,133
18:52:29:459,-0.4861,0.3797,11.85,48.5511,-0.0759,-0.6118,-0.1127,133.41
18:52:29:480,-0.1274,-0.1116,13.1583,48.6986,0.0236,-0.3552,0.0709,133.82
18:52:29:501,0.7459,-0.4551,12.5268,48.6024,0.1263,0.1414,0.2386,134.15
18:52:29:520,1.5028,-0.2729,10.665,48.6539,-0.003,0.2772,0.2801,134.24
18:52:29:540,2.0106,0.3945,10.0336,48.5179,-0.3139,0.0083,0.1145,134.06
18:52:29:559,1.8605,0.6201,11.3348,48.3802,-0.5401,-0.3472,-0.2054,133.76
18:52:29:580,0.8746,0.1672,13.083,48.2947,-0.4448,-0.3973,-0.389,133.52
18:52:29:599,0.1101,-0.6987,13.5992,48.2731,-0.1462,-0.1151,-0.3166,133.5
18:52:29:620,0.1296,-1.1186,12.4069,48.4601,0.1993,0.2202,-0.0633,133.74
18:52:29:640,1.1349,-0.8357,10.3357,48.4828,0.3824,0.2894,0.0842,134.1
18:52:29:660,2.0763,-0.3398,8.596,48.3468,0.3222,0.1169,-0.0393,134.35
18:52:29:680,2.1359,0.0636,8.0624,48.3711,0.0864,-0.0997,-0.314,134.38
18:52:29:700,1.3753,-0.0329,8.6983,48.3636,-0.0887,-0.1705,-0.5285,134.31
18:52:29:720,0.3236,-0.3609,9.0739,48.2494,-0.0962,-0.0651,-0.5205,134.43
18:52:29:740,-0.2839,-0.452,8.7363,48.3138,-0.0317,0.1244,-0.3156,134.83
18:52:29:759,-0.2808,0.0119,8.0475,48.3374,0.0433,0.2128,-0.0797,135.42
18:52:29:780,0.1023,0.6157,7.4287,48.444,0.1167,0.1419,0.0453,135.98
18:52:29:800,0.4092,1.1278,7.0981,48.3657,0.1631,0.0286,0.056,136.31
18:52:29:820,0.6073,1.4133,7.0113,48.3925,0.1785,-0.0257,-0.0042,136.4
18:52:29:840,0.6626,1.4429,6.9665,48.566,0.1407,-0.0534,-0.1016,136.36
18:52:29:859,0.5739,1.3795,7.278,48.667,0.0667,-0.0859,-0.1883,136.3
18:52:29:880,0.4647,1.297,7.9592,48.688,0.0364,-0.0853,-0.2347,136.32
18:52:29:900,0.4497,1.2206,8.6753,48.8042,0.0571,-0.0342,-0.256,136.45
18:52:29:920,0.4606,1.2391,9.0991,48.9238,0.1051,0.0861,-0.2432,136.68
18:52:29:940,0.3986,1.3571,9.1224,48.8653,0.1146,0.2239,-0.2171,136.94
18:52:29:959,0.2659,1.5332,9.2252,48.6625,0.1093,0.3102,-0.1585,137.2
18:52:29:980,0.2474,1.7603,9.6293,48.4506,0.1966,0.3299,-0.0223,137.44
18:52:30:000,0.4979,2.1557,9.7196,48.5073,0.3361,0.3586,0.1396,137.65
18:52:30:020,0.8453,2.5124,9.402,48.4707,0.3936,0.414,0.2088,137.79
18:52:30:039,1.0301,2.6616,9.2751,48.3874,0.335,0.3879,0.1758,137.77
18:52:30:059,1.1731,2.4176,9.7113,48.2674,0.2605,0.2793,0.0885,137.56
18:52:30:079,0.9055,1.6921,10.1959,48.3057,0.1785,0.1265,-0.0116,137.29
18:52:30:100,0.0903,0.7721,10.9805,48.3093,0.0939,0.1223,0.0203,137.08
18:52:30:121,-0.5115,0.2534,11.3306,48.4449,-0.0355,0.3512,0.188,137
18:52:30:140,-0.9491,0.5628,11.4503,48.5831,-0.184,0.5162,0.4297,137.02
18:52:30:159,-0.7505,1.1427,11.7423,48.7879,-0.1835,0.3874,0.5846,136.96
18:52:30:180,-0.3998,1.3181,11.783,49.0236,-0.0696,0.0563,0.5399,136.7
18:52:30:200,-0.3784,0.9019,11.711,49.0664,-0.0094,-0.319,0.4345,136.19
18:52:30:220,-0.4306,0.1585,12.0377,49.3999,0.0678,-0.5485,0.3999,135.53
18:52:30:240,-0.1914,-0.4785,12.0007,49.5232,0.1695,-0.4713,0.3717,134.97
18:52:30:260,0.1364,-0.6455,11.0527,49.5751,0.1077,-0.1444,0.3216,134.55
18:52:30:280,0.3077,-0.3844,10.011,49.6885,-0.0903,0.0397,0.2274,134.11
18:52:30:300,0.21,-0.0713,9.6197,49.9427,-0.2053,-0.0811,0.114,133.67
18:52:30:320,0.0613,0.0839,9.5289,49.8467,-0.2378,-0.2211,0.0331,133.32
18:52:30:340,-0.0033,0.1206,9.4066,50.0385,-0.233,-0.2163,0.0033,133.1
18:52:30:360,-0.1005,0.2009,9.1053,49.8126,-0.1733,-0.0859,0.0283,133.01
18:52:30:380,-0.0817,0.4182,8.3921,49.7825,-0.0727,-0.0012,0.0719,132.99
18:52:30:400,0.1021,0.711,7.789,49.5076,0.0188,-0.0832,0.0885,132.97
18:52:30:420,0.3402,0.9413,7.647,49.2881,0.0986,-0.2051,0.0634,132.91
18:52:30:440,0.5168,1.0522,7.7227,48.9501,0.1833,-0.2674,0.0198,132.83
18:52:30:459,0.5724,1.0411,7.7461,48.7614,0.2323,-0.1875,-0.0127,132.74
18:52:30:525,0.641,1.1316,7.598,48.4678,0.2099,-0.0076,-0.0595,132.69
18:52:30:525,0.6186,1.3402,7.3971,48.3834,0.104,0.134,-0.1548,132.66
18:52:30:525,0.4476,1.4773,7.7144,48.0438,-0.0094,0.1265,-0.257,132.66
18:52:30:539,0.1143,1.4727,8.3338,47.9461,-0.0317,0.0169,-0.2895,132.71
18:52:30:559,-0.2642,1.4892,8.8642,47.6468,0.0161,-0.13,-0.2277,132.89
18:52:30:579,-0.5054,1.607,9.4273,47.6005,0.1237,-0.1982,-0.0952,133.2
18:52:30:599,-0.419,1.863,9.451,47.467,0.2291,-0.1093,0.0485,133.55
18:52:30:619,-0.1867,2.31,9.0677,47.6448,0.2472,0.011,0.1422,133.83
18:52:30:640,0.1691,2.7496,8.7356,47.3586,0.2104,0.0323,0.1555,133.93
18:52:30:660,0.4323,2.942,8.6806,47.0904,0.1348,-0.1178,0.0948,133.86
18:52:30:680,0.4457,2.6664,9.2876,46.8033,0.0236,-0.3355,0.0155,133.7
18:52:30:700,0.2717,1.8984,10.6512,46.7353,-0.0403,-0.4388,0.0161,133.56
18:52:30:720,0.3055,0.8984,12.0208,46.4534,-0.028,-0.319,0.1252,133.53
18:52:30:740,0.7612,0.1737,12.3716,46.2955,-0.0105,0.0025,0.2737,133.59
18:52:30:760,1.404,0.0405,11.7295,45.9478,-0.0727,0.2111,0.336,133.6
18:52:30:780,2.0355,0.3145,10.906,45.7853,-0.16,0.0861,0.2439,133.43
18:52:30:800,2.1405,0.3179,10.5045,45.3487,-0.2452,-0.1008,-0.0031,133.08
18:52:30:820,1.2254,-0.0347,10.4106,45.0039,-0.2803,-0.1279,-0.1969,132.7
18:52:30:840,0.3458,-0.6513,10.5969,44.7482,-0.1808,-0.0571,-0.2176,132.46
18:52:30:860,0.2906,-0.8931,10.3892,44.369,-0.1116,0.085,-0.1362,132.48
18:52:30:880,0.8368,-0.8301,10.0116,43.8831,-0.1771,0.102,-0.0787,132.69
18:52:30:900,1.3281,-0.3429,10.0788,43.5166,-0.3336,-0.1258,-0.1623,132.9
18:52:30:920,1.1975,0.2784,11.2559,43.1533,-0.4246,-0.3116,-0.3124,133.06
18:52:30:940,0.6494,0.5103,12.3146,42.7425,-0.2968,-0.0949,-0.3959,133.21
18:52:30:961,0.0268,0.67,11.5125,42.2767,-0.0562,0.2979,-0.3108,133.45
18:52:30:980,-0.0171,1.0467,9.6602,41.8977,0.1003,0.562,-0.1383,133.77
18:52:31:000,0.3687,1.6744,8.0448,41.526,0.2131,0.5098,-0.0004,134.12
18:52:31:020,0.9539,2.3438,7.1861,41.1982,0.3707,0.1952,0.0001,134.38
18:52:31:039,1.3071,2.6756,6.6027,40.7678,0.4819,-0.1077,-0.1692,134.49
18:52:31:059,1.1621,2.5527,6.2042,40.3893,0.4377,-0.219,-0.3997,134.49
18:52:31:079,0.6468,2.1507,6.2286,40.0356,0.2807,-0.1934,-0.5423,134.52
18:52:31:099,0.1629,1.7041,6.7113,39.5506,0.1306,-0.1407,-0.5333,134.75
18:52:31:119,0.0213,1.4987,7.4979,39.3708,0.0779,-0.129,-0.446,135.24
18:52:31:139,0.0104,1.3936,8.0901,39.0169,0.1178,-0.1508,-0.3411,135.9
18:52:31:160,0.0517,1.2786,8.4492,38.7597,0.1609,-0.1913,-0.2442,136.53
18:52:31:181,0.1872,1.2122,8.9709,38.4104,0.1689,-0.1971,-0.1489,137.06
18:52:31:201,0.3587,1.2498,9.6817,37.8909,0.2035,-0.0869,-0.0648,137.48
18:52:31:220,0.4357,1.4296,9.9713,37.5242,0.2403,0.2085,0.0208,137.79
18:52:31:241,0.5604,1.7802,9.627,37.1209,0.1758,0.5934,0.0975,137.96
18:52:31:261,0.7928,2.23,9.2481,36.7586,0.0672,0.7073,0.1273,137.97
18:52:31:281,1.0289,2.4817,9.4818,36.5104,0.0236,0.4097,0.1076,137.84
18:52:31:301,0.9601,2.4281,10.4475,36.0434,0.0896,0.0206,0.0868,137.63
18:52:31:320,0.822,2.1079,11.2571,35.7689,0.1205,0.0632,0.0656,137.44
18:52:31:339,0.5798,1.7464,10.9955,35.3846,-0.0291,0.3959,0.0549,137.34
18:52:31:361,-0.0501,1.771,10.9178,35.2001,-0.2149,0.448,0.1183,137.22
18:52:31:380,-0.4089,1.698,11.5787,34.9874,-0.2069,0.2686,0.1736,137.08
18:52:31:400,-0.6156,1.1906,11.9456,34.7564,-0.1137,-0.0497,0.2194,136.98
18:52:31:420,-0.6926,0.5838,12.4459,34.5826,-0.0525,-0.4367,0.3338,136.82
18:52:31:440,-0.3163,0.3003,13.4951,34.3476,0.0688,-0.5964,0.4366,136.64
18:52:31:461,0.2079,0.0588,13.5414,34.2378,0.2855,-0.2637,0.4371,136.48
18:52:31:480,0.4608,-0.0762,11.3238,34.0564,0.3318,0.2852,0.4126,136.18
18:52:31:500,0.4037,0.0945,8.598,33.876,0.138,0.4193,0.3541,135.66
18:52:31:519,0.1745,0.319,7.5942,33.7568,-0.0919,0.0067,0.2769,135.07
18:52:31:539,-0.1059,0.3997,8.3134,33.6225,-0.1547,-0.5367,0.2482,134.55
18:52:31:560,0.0153,0.5554,9.1265,33.56,-0.1382,-0.7412,0.2407,134.21
18:52:31:580,0.2009,0.7005,9.6364,33.7169,-0.1398,-0.5554,0.1939,134.03
18:52:31:601,0.168,0.7757,9.4758,33.9472,-0.1329,-0.2136,0.1497,133.87
18:52:31:620,0.1111,0.8582,8.7308,34.016,-0.0962,0.0099,0.1433,133.66
18:52:31:640,0.1787,0.8883,7.8985,33.9359,-0.0371,0.0003,0.1449,133.45
18:52:31:661,0.2704,0.8812,7.4433,33.887,0.0156,-0.1875,0.1534,133.25
18:52:31:679,0.4367,1.0065,7.4842,33.8703,0.0923,-0.385,0.1811,133.08
18:52:31:700,0.7667,1.203,7.4592,33.9907,0.1652,-0.4494,0.1619,132.95
18:52:31:719,0.9274,1.4141,7.1308,34.1004,0.1476,-0.3946,0.0831,132.84
18:52:31:741,0.9043,1.65,6.9766,34.06,0.0497,-0.3494,-0.0148,132.69
18:52:31:761,0.6209,1.7976,7.1935,33.9073,-0.0509,-0.352,-0.0835,132.56
18:52:31:781,0.2014,1.7674,7.7286,33.6246,-0.1377,-0.3158,-0.0776,132.52
18:52:31:800,0.0582,1.9261,8.5475,33.576,-0.175,-0.2253,-0.0068,132.6
18:52:31:820,0.0929,2.1688,9.2626,33.7039,-0.1223,-0.1993,0.0613,132.74
18:52:31:840,0.3421,2.4784,9.7398,33.8141,-0.0136,-0.1508,0.1188,132.87
18:52:31:860,0.5341,2.8537,9.8474,33.815,0.0688,0.0067,0.1411,132.9
18:52:31:880,0.6336,3.172,9.5094,33.7469,0.0683,0.1473,0.1087,132.84
18:52:31:900,0.6047,3.2055,9.3739,33.7248,0.0103,0.1244,0.0538,132.69
18:52:31:919,0.6167,2.9457,9.6566,33.8097,-0.036,-0.0262,0.0193,132.49
18:52:31:940,0.754,2.3341,10.5115,33.9396,-0.0227,-0.253,0.0102,132.35
18:52:31:960,0.978,1.4242,11.6591,34.0684,0.0513,-0.2945,0.056,132.31
18:52:31:980,1.331,0.4562,12.2459,34.1071,0.1418,-0.0199,0.1731,132.34
18:52:32:000,1.8549,0.0091,11.4162,34.2238,0.0923,0.3171,0.2812,132.37
18:52:32:020,2.1643,0.1889,10.2975,34.3923,-0.1318,0.2532,0.2535,132.29
18:52:32:041,2.2712,0.4443,10.3809,34.4817,-0.3703,-0.1657,0.0278,132.02
18:52:32:059,1.6677,0.5915,12.0202,34.6881,-0.4597,-0.5123,-0.2032,131.68
18:52:32:080,1.1742,0.034,13.4401,34.9587,-0.3075,-0.3105,-0.281,131.45
18:52:32:100,0.782,-0.6278,12.9439,35.2111,-0.011,0.3315,-0.1628,131.51
18:52:32:120,0.9094,-0.6821,10.1315,35.3406,0.1588,0.7898,0.081,131.75
18:52:32:140,1.6951,-0.1518,7.6187,35.6417,0.1205,0.5635,0.2295,131.97
18:52:32:160,2.5829,0.665,6.8546,35.7959,-0.0653,0.0334,0.1145,132.02
18:52:32:180,2.7894,1.2762,7.7932,35.8998,-0.3384,-0.278,-0.2096,131.88
18:52:32:200,2.1516,1.3065,9.4413,36.0926,-0.5284,-0.1348,-0.5524,131.67
18:52:32:220,0.9395,0.7601,10.1555,36.2671,-0.5103,0.3022,-0.6717,131.61
18:52:32:240,-0.0059,0.5471,9.4454,36.3193,-0.3927,0.7184,-0.5269,131.86
18:52:32:262,-0.1101,0.7945,8.2275,36.2626,-0.2564,0.81,-0.331,132.41
18:52:32:280,0.1744,1.2728,7.3365,36.0857,-0.1201,0.5572,-0.2128,133.06
18:52:32:300,0.2905,1.6565,7.0533,35.9865,0.0172,0.1893,-0.1947,133.58
18:52:32:320,0.316,1.635,7.0056,35.8558,0.0923,-0.0726,-0.2384,133.94
18:52:32:339,0.2542,1.4135,7.1234,35.9605,0.0252,-0.0603,-0.256,134.2
18:52:32:360,0.0924,1.2473,7.4654,35.8174,-0.0871,0.0541,-0.2091,134.45
18:52:32:380,0.0621,1.3197,7.9717,35.7803,-0.1079,0.0893,-0.1367,134.74
18:52:32:400,0.1604,1.4693,8.3673,35.6733,-0.0435,0.0073,-0.0808,135.03
18:52:32:420,0.2886,1.6168,8.7067,35.6879,0.0044,-0.0449,-0.0297,135.26
18:52:32:440,0.4039,1.6697,9.1472,35.8164,0.0475,0.0222,0.048,135.42
18:52:32:460,0.6275,2.0167,9.3207,36.0027,0.1141,0.1244,0.1417,135.52
18:52:32:480,0.9305,2.6182,9.362,36.2157,0.1609,0.2154,0.164,135.54
18:52:32:500,1.1648,2.9716,9.4242,36.3152,0.1689,0.2676,0.0767,135.45
18:52:32:520,1.1942,2.9499,9.6589,36.2533,0.1141,0.1835,-0.0499,135.25
18:52:32:590,1.0281,2.4414,10.6944,36.4419,0.0518,-0.0321,-0.183,135.03
18:52:32:591,0.4594,1.4662,12.384,36.4702,0.0417,-0.0683,-0.2123,134.94
18:52:32:591,-0.0624,0.644,13.333,36.8235,0.0678,0.2388,-0.0521,135.03
18:52:32:599,0.0251,0.72,13.0627,37.0524,0.0699,0.6178,0.1608,135.26
18:52:32:619,0.4958,1.3261,12.2144,37.0958,0.0587,0.7142,0.254,135.44
18:52:32:639,0.7592,1.7979,11.5383,37.1602,0.0491,0.4198,0.1486,135.39
18:52:32:659,0.3237,1.6235,11.6666,37.0733,0.0529,0.0014,-0.0398,135.13
18:52:32:680,-0.3491,0.6515,12.1962,37.0382,0.171,-0.1226,-0.0946,134.83
18:52:32:700,-0.7614,-0.3936,11.5428,37.2144,0.3419,0.0536,0.0049,134.71
18:52:32:720,-0.6799,-1.0204,9.8016,37.3483,0.3872,0.1936,0.1768,134.76
18:52:32:740,-0.2518,-0.9414,8.1255,37.5249,0.2355,0.0339,0.3275,134.81
18:52:32:759,0.1139,-0.2523,7.9353,37.5066,0.0044,-0.4132,0.3536,134.76
18:52:32:779,0.5733,0.3016,9.0328,37.6352,-0.1286,-0.7545,0.2482,134.6
18:52:32:800,0.8793,0.4692,10.368,37.6157,-0.1505,-0.7555,0.0714,134.37
18:52:32:820,0.6432,0.3346,10.8295,38.0297,-0.0621,-0.4649,-0.0345,134.12
18:52:32:840,0.3449,0.2231,10.0618,38.4853,0.0252,-0.1061,-0.0388,133.93
18:52:32:873,0.2278,0.3072,8.8712,38.8702,0.0811,0.1329,0.0033,133.86
18:52:32:880,0.2825,0.5305,7.6428,39.1586,0.1231,0.1531,0.0496,133.86
18:52:32:899,0.4551,0.8016,6.9514,39.3592,0.1503,-0.0018,0.0687,133.86
18:52:32:919,0.5749,1.1098,6.8719,39.6213,0.1812,-0.1577,0.0485,133.83
18:52:32:939,0.6154,1.391,7.0504,39.7141,0.1796,-0.2142,-0.0063,133.78
18:52:32:960,0.523,1.5872,7.3022,39.8942,0.1439,-0.1396,-0.0734,133.73
18:52:32:980,0.2852,1.7428,7.5106,40.3506,0.0853,-0.1013,-0.1122,133.71
18:52:33:000,0.0487,2.022,8.0672,40.5798,0.0752,-0.1684,-0.0978,133.73
18:52:33:019,-0.0172,2.1934,8.5339,40.8184,0.1263,-0.2706,-0.0648,133.83
18:52:33:040,0.0862,2.3934,8.9855,41.0004,0.1758,-0.3158,-0.0276,133.99
18:52:33:059,0.2708,2.5793,9.2848,41.1604,0.2115,-0.261,-0.0143,134.14
18:52:33:079,0.3291,2.7215,9.3219,41.3894,0.2349,-0.1764,-0.0217,134.26
18:52:33:099,0.2817,2.7459,9.0387,41.6295,0.2126,-0.0864,-0.051,134.33
18:52:33:119,0.1929,2.5437,8.8167,42.0194,0.0859,-0.104,-0.0973,134.36
18:52:33:140,-0.0453,2.166,9.5245,42.2395,-0.0759,-0.1535,-0.0856,134.4
18:52:33:160,0.0036,1.6243,10.7907,42.2408,-0.1095,-0.2184,-0.0127,134.49
18:52:33:179,0.2673,0.7838,11.7204,42.3979,-0.0557,-0.2094,0.0714,134.64
18:52:33:200,0.6258,0.0081,11.816,42.6296,-0.0136,-0.0257,0.2482,134.79
18:52:33:220,1.3737,-0.2262,10.9773,42.9641,-0.0978,0.2303,0.4403,134.83
18:52:33:240,2.0197,0.5472,10.1019,43.1995,-0.292,0.1457,0.484,134.75
18:52:33:261,2.4373,1.4001,10.4267,43.2559,-0.4938,-0.3009,0.2556,134.43
18:52:33:279,1.8162,1.6203,12.3864,43.4426,-0.5753,-0.5969,-0.0489,133.93
18:52:33:300,1.0079,0.8211,14.1978,43.592,-0.3698,-0.2743,-0.1319,133.46
18:52:33:320,0.6314,-0.0665,13.4689,43.776,0.0598,0.4087,0.0304,133.26
18:52:33:340,0.9952,-0.2014,10.572,43.9892,0.3558,0.7291,0.2396,133.3
18:52:33:360,1.9855,0.2444,7.7572,44.1812,0.3696,0.3847,0.2588,133.32
18:52:33:380,2.7241,0.9094,6.914,44.2363,0.1391,-0.1332,-0.001,133.15
18:52:33:400,2.5856,1.3479,8.0327,44.1822,-0.1606,-0.3962,-0.4029,132.84
18:52:33:420,1.7114,0.9448,9.6504,44.2306,-0.2649,-0.2674,-0.7164,132.61
18:52:33:440,0.4841,0.2833,10.2123,44.2833,-0.2149,0.1473,-0.7734,132.7
18:52:33:460,-0.3758,0.0523,9.2994,44.4054,-0.1707,0.5162,-0.6201,133.18
18:52:33:480,-0.5468,0.2007,7.9913,44.6462,-0.1489,0.5614,-0.4242,133.94
18:52:33:500,-0.3114,0.4683,7.2217,44.6961,-0.1111,0.4145,-0.2693,134.73
18:52:33:520,-0.0868,0.8376,6.7058,44.8416,-0.0791,0.2548,-0.166,135.37
18:52:33:540,0.0787,1.2024,6.5571,44.884,-0.085,0.1414,-0.108,135.82
18:52:33:560,0.2657,1.4235,6.6674,44.7835,-0.1026,0.0371,-0.0797,136.11
18:52:33:580,0.4558,1.6419,7.0852,44.7754,-0.1052,-0.0699,-0.0675,136.31
18:52:33:601,0.848,1.9048,7.8261,44.9967,-0.0967,-0.145,-0.0899,136.44
18:52:33:620,1.4329,2.2995,8.9349,45.1648,0.0018,-0.1279,-0.1633,136.55
18:52:33:640,1.787,2.7858,9.7761,45.1907,0.1748,-0.0683,-0.2964,136.65
18:52:33:661,1.2152,2.8736,9.5264,45.1965,0.2812,-0.0124,-0.4071,136.75
18:52:33:680,0.5617,2.6626,9.2186,45.4633,0.2152,0.0744,-0.3608,136.91
18:52:33:700,0.4105,2.7222,9.5559,45.703,0.1487,0.2426,-0.1687,137.23
18:52:33:720,0.6123,3.0167,9.6963,45.6435,0.1689,0.447,-0.0175,137.68
18:52:33:740,0.8573,3.299,9.47,45.7852,0.1742,0.4816,0.0086,138.06
18:52:33:760,1.013,2.9206,9.791,46.0153,0.1327,0.2479,-0.0569,138.18
18:52:33:780,0.7224,1.9015,10.8093,45.9676,0.0997,0.0169,-0.0739,138.13
18:52:33:800,0.2738,0.815,11.6435,45.9668,0.0241,0.0376,0.0166,138.1
18:52:33:820,-0.3801,0.3942,12.0589,45.9048,-0.1137,0.1483,0.2199,138.19
18:52:33:840,-0.4455,0.7672,12.5073,45.9656,-0.2394,0.3064,0.4552,138.28
18:52:33:860,-0.1372,1.2501,12.594,45.8497,-0.2686,0.4092,0.4994,138.26
18:52:33:880,-0.3539,1.1041,12.3309,45.9531,-0.1915,0.2032,0.4291,137.98
18:52:33:899,-0.901,0.4711,12.3305,46.0568,-0.0616,-0.1705,0.4483,137.4
18:52:33:920,-0.6783,-0.1468,12.3074,46.2553,0.1306,-0.252,0.509,136.81
18:52:33:940,-0.3032,-0.6834,10.9741,46.3421,0.2764,0.0376,0.559,136.36
18:52:33:960,-0.1469,-0.8103,8.7351,46.5315,0.2296,0.2931,0.6548,135.86
18:52:33:980,0.0993,-0.3125,6.9938,46.6873,0.0002,0.068,0.7028,135.22
18:52:34:001,0.3967,0.4015,7.0551,46.9752,-0.2415,-0.4628,0.6362,134.53
18:52:34:019,0.8666,0.8267,8.2825,47.1835,-0.3554,-0.8311,0.4648,133.84
18:52:34:039,1.2169,1.0095,9.5632,47.3812,-0.3831,-0.7513,0.2354,133.19
18:52:34:059,1.0695,0.9445,9.9391,47.5123,-0.3703,-0.3504,0.0432,132.61
18:52:34:080,0.5092,0.7665,9.3282,47.9719,-0.349,0.0222,-0.0111,132.16
18:52:34:100,0.366,0.6332,8.3869,48.149,-0.341,0.2404,0.0155,131.88
18:52:34:121,0.4221,0.7501,7.763,48.4654,-0.2894,0.2292,0.0384,131.78
18:52:34:140,0.5283,0.9267,7.5647,48.6969,-0.1537,0.0892,0.0395,131.75
18:52:34:159,0.6191,1.036,7.5374,48.8103,0.0172,-0.0491,0.0107,131.7
18:52:34:180,0.6177,1.1004,7.4922,49.0415,0.1231,-0.1167,-0.0409,131.65
18:52:34:200,0.4588,1.1719,7.7957,49.2496,0.1136,-0.1013,-0.0797,131.6
18:52:34:220,0.3065,1.2626,8.3199,49.4714,0.0715,-0.0758,-0.0968,131.59
18:52:34:240,0.1965,1.4438,8.8182,49.6411,0.0316,-0.0252,-0.1058,131.65
18:52:34:260,0.017,1.5915,9.2052,49.8192,0.0231,0.0222,-0.0899,131.75
18:52:34:280,-0.0103,1.8415,9.3874,49.8376,0.0768,0.069,-0.0377,131.86
18:52:34:300,0.0875,2.1544,9.413,49.8934,0.1663,0.1057,0.0027,131.97
18:52:34:320,0.2285,2.4132,9.3914,49.9939,0.2232,0.1675,-0.0079,132.06
18:52:34:340,0.2995,2.5546,9.5427,50.0755,0.195,0.1073,-0.0542,132.07
18:52:34:359,0.3561,2.2711,10.2518,50.1126,0.1125,-0.0225,-0.1144,132.04
18:52:34:380,0.3338,1.5431,11.1507,50.3271,0.022,-0.1141,-0.1495,132.05
18:52:34:400,0.2078,0.6005,12.3538,50.2961,-0.0099,-0.014,-0.0638,132.14
18:52:34:420,0.597,-0.052,12.6309,50.3816,-0.011,0.3932,0.0725,132.3
18:52:34:440,0.8821,-0.0982,11.5849,50.2945,-0.16,0.6056,0.1161,132.47
18:52:34:459,0.7877,0.1875,10.7636,50.3941,-0.3911,0.3597,0.04,132.46
18:52:34:481,0.1367,0.2922,11.3408,50.3342,-0.4954,-0.211,-0.0707,132.32
18:52:34:500,-0.4921,-0.1668,12.79,50.3019,-0.3006,-0.4537,-0.0505,132.21
18:52:34:521,-0.5285,-0.7076,12.8949,50.4588,0.0236,-0.1466,0.1459,132.26
18:52:34:540,0.2018,-0.5911,11.1483,50.5894,0.2898,0.2798,0.3695,132.38
18:52:34:560,1.5721,0.0905,8.8501,50.4028,0.3861,0.3075,0.3711,132.36
18:52:34:580,2.6728,0.8165,7.4416,50.2959,0.2977,-0.1034,0.0693,132.08
18:52:34:660,2.7096,1.0854,7.3924,49.9789,0.0555,-0.4931,-0.3763,131.61
18:52:34:661,1.7095,0.5881,8.5045,49.8928,-0.1686,-0.6826,-0.7191,131.25
18:52:34:661,0.4799,-0.1422,9.6873,49.8819,-0.2229,-0.5533,-0.7925,131.29
18:52:34:661,-0.4042,-0.4883,9.9385,49.758,-0.1313,-0.1833,-0.6291,131.84
18:52:34:683,-0.6191,-0.1935,9.2833,49.7447,-0.0105,0.1579,-0.3683,132.7
18:52:34:699,-0.2789,0.498,8.1636,49.5346,0.0582,0.2889,-0.1937,133.58
18:52:34:719,0.1762,1.0649,7.3968,49.462,0.0821,0.2394,-0.1404,134.23
18:52:34:740,0.4969,1.425,7.2392,49.3853,0.0981,0.2037,-0.1724,134.61
18:52:34:759,0.6224,1.5111,7.2725,49.3214,0.0917,0.2676,-0.2458,134.81
18:52:34:779,0.5046,1.4647,7.3236,49.2697,0.0736,0.3304,-0.2975,134.95
18:52:34:799,0.3159,1.397,7.5186,49.0851,0.0593,0.3389,-0.2953,135.11
18:52:34:819,0.2827,1.4776,7.7589,48.803,0.0193,0.3501,-0.2741,135.35
18:52:34:839,0.2747,1.6831,8.1514,48.7941,-0.0349,0.3272,-0.2512,135.66
18:52:34:860,0.0209,1.8546,8.5371,48.3287,-0.0403,0.2697,-0.1729,135.97
18:52:34:881,-0.1022,2.0522,8.8745,48.1261,0.022,0.2032,-0.0334,136.26
18:52:34:900,0.0657,2.5342,9.1487,47.7284,0.1056,0.1574,0.0799,136.52
18:52:34:920,0.3098,3.0203,9.4757,47.5387,0.1487,0.2197,0.1236,136.7
18:52:34:940,0.4609,3.2678,9.6387,47.1955,0.1497,0.3549,0.1034,136.71
18:52:34:959,0.4259,3.1488,9.7056,46.8506,0.1152,0.2883,0.0416,136.58
18:52:34:980,0.0122,2.4687,10.3597,46.7231,0.0561,-0.0396,-0.0052,136.39
18:52:35:000,-0.2346,1.3958,11.7284,46.493,0.0231,-0.2514,0.0336,136.25
18:52:35:019,-0.4208,0.5651,12.5502,46.4616,-0.0243,-0.2716,0.1885,136.25
18:52:35:039,-0.3266,0.6157,13.3792,46.3133,-0.0046,-0.2637,0.3849,136.32
18:52:35:059,0.3053,0.9158,13.5523,46.111,0.0635,-0.039,0.4259,136.33
18:52:35:079,0.6068,1.2076,12.5688,45.8538,0.0438,0.1244,0.3317,136.15
18:52:35:099,0.3551,1.3284,11.7848,45.5024,-0.0515,-0.0268,0.1795,135.68
18:52:35:119,-0.1352,0.8754,12.3522,45.4383,0.038,-0.1732,0.0496,135.16
18:52:35:140,-0.8089,-0.0569,11.5752,45.2052,0.2237,0.0791,0.0374,134.81
18:52:35:160,-1.1534,-0.52,9.2713,44.9895,0.1822,0.4225,0.1981,134.62
18:52:35:181,-1.1139,-0.2111,7.3929,44.5651,0.005,0.2516,0.3935,134.49
18:52:35:200,-0.6367,0.477,7.3521,43.9122,-0.0903,-0.401,0.509,134.38
18:52:35:220,0.2551,1.0529,8.4567,43.6895,-0.0871,-0.9333,0.4414,134.18
18:52:35:240,0.7983,1.3245,9.758,43.4965,-0.1159,-0.9488,0.2178,133.86
18:52:35:260,0.6433,1.0296,10.6869,43.4395,-0.0935,-0.5234,-0.0111,133.45
18:52:35:281,-0.0123,0.573,10.3259,43.354,-0.028,0.0504,-0.0686,133.06
