Time,Acc_X,Acc_Y,Acc_Z,Meg,Gyr_X,Gyr_Y,Gyr_Z,Ore
18:27:03:561,-0.1371,1.2295,9.6453,71.1608,0.2127,-0.2442,0.0092,26.09
18:27:03:580,0.0571,1.2758,9.6146,71.8201,0.2803,-0.3735,-0.0184,26.09
18:27:03:600,0.1632,1.2554,9.5304,71.9366,0.285,-0.4108,-0.0488,71.32
18:27:03:620,0.1698,1.1867,9.5012,72.1095,0.2254,-0.3517,-0.0578,71.32
18:27:03:639,0.1775,1.2081,9.5478,72.0503,0.127,-0.208,-0.0509,71.35
18:27:03:660,0.0976,1.1557,9.4834,72.1463,0.0306,-0.0376,-0.0291,71.47
18:27:03:679,-0.0101,1.1049,9.3645,72.2365,-0.0216,0.0135,0.0151,71.57
18:27:03:699,0.0489,1.1807,9.4153,72.2524,-0.0114,-0.0515,0.0545,71.63
18:27:03:719,0.2576,1.2976,9.5513,72.5069,0.0428,-0.0978,0.0534,71.65
18:27:03:739,0.3347,1.3474,9.4474,72.713,0.087,-0.1004,0.0225,71.65
18:27:03:759,0.3856,1.3564,9.1321,72.7147,0.0609,-0.101,-0.0035,71.65
18:27:03:779,0.4463,1.3614,9.1734,72.7094,-0.0109,-0.0632,-0.0286,71.64
18:27:03:808,0.3972,1.345,9.3371,72.6562,-0.0482,-0.0291,-0.0493,71.66
18:27:03:820,0.3387,1.3026,9.404,72.8045,-0.0418,-0.0211,-0.0509,71.72
18:27:03:839,0.3504,1.3191,9.4938,72.8045,-0.0231,-0.0387,-0.053,71.81
18:27:03:859,0.4032,1.2724,9.4434,72.7759,-0.0077,-0.0318,-0.0664,71.9
18:27:03:881,0.3569,1.2648,9.4112,72.7101,-0.0418,-0.0413,-0.0813,71.99
18:27:03:900,0.309,1.2099,9.5901,72.6162,-0.0503,-0.0195,-0.0855,72.09
18:27:03:920,0.1934,1.1809,9.5221,72.6694,-0.0636,0.0321,-0.0536,72.2
18:27:03:939,0.1797,1.2719,9.4659,72.5376,-0.0737,0.0065,-0.0195,72.31
18:27:03:959,0.2827,1.3171,9.6008,72.5911,-0.0498,-0.027,-0.0264,72.37
18:27:03:980,0.3022,1.2909,9.5249,72.5767,-0.053,-0.0382,-0.0296,72.4
18:27:03:999,0.2874,1.2687,9.7423,72.4615,-0.0572,-0.0222,-0.0248,72.43
18:27:04:020,0.2873,1.1781,9.9188,72.5562,-0.0242,0.0215,-0.0243,72.47
18:27:04:040,0.235,1.2076,9.7713,72.5673,0.0088,0.0465,-0.0121,72.51
18:27:04:059,0.2196,1.2715,9.5583,72.4268,0.0168,0.0736,-0.0003,72.53
18:27:04:079,0.2485,1.3388,9.3055,72.3344,-0.0183,0.0571,-0.0046,72.53
18:27:04:099,0.2182,1.3068,9.3524,72.3955,-0.0455,-0.0115,-0.0089,72.52
18:27:04:121,0.2526,1.2532,9.6542,72.3297,-0.0199,-0.0339,0.0018,72.52
18:27:04:140,0.2629,1.26,9.736,72.2044,0.0226,-0.0099,0.0209,72.54
18:27:04:159,0.3112,1.2958,9.584,72.2298,0.0402,0.0055,0.039,72.55
18:27:04:179,0.52,1.3503,9.4435,72.3173,0.0168,0.0039,0.0443,72.54
18:27:04:200,0.7023,1.3596,9.4792,72.0763,-0.021,0.0044,0.0082,72.5
18:27:04:220,0.6519,1.1986,9.5662,72.1386,-0.0412,0.0087,-0.019,72.44
18:27:04:239,0.6414,1.1271,9.5852,72.3656,-0.0226,0.0124,-0.0089,72.44
18:27:04:260,0.6953,1.1484,9.4281,72.4331,0.0098,-0.0121,0.0119,72.47
18:27:04:280,0.7822,1.2122,9.2696,72.4506,0.0247,-0.036,0.0262,72.47
18:27:04:299,0.8428,1.3388,9.1993,72.4821,0.0093,-0.0211,0.0369,72.45
18:27:04:320,0.9173,1.5033,9.1402,72.5436,-0.0061,0.0087,0.046,72.41
18:27:04:339,1.0109,1.6784,9.1332,72.6086,-0.0231,-0.0083,0.0188,72.36
18:27:04:359,1.0173,1.8223,9.2597,72.507,-0.0135,-0.0286,-0.0259,72.28
18:27:04:380,0.8683,1.789,9.4252,72.6957,0.0248,-0.0956,-0.0802,72.23
18:27:04:400,0.7724,1.6008,9.6967,72.7094,0.1243,-0.1872,-0.1127,72.23
18:27:04:419,0.2707,0.8016,10.0439,72.7679,0.1919,-0.167,0.0273,72.31
18:27:04:439,0.4684,1.6019,10.6176,72.7822,0.3511,-0.003,0.2993,72.44
18:27:04:459,1.7698,2.1231,10.2604,72.8078,0.6241,0.0034,0.1343,72.41
18:27:04:479,1.5762,2.6982,9.1202,72.7519,0.9393,-0.2852,-0.209,72.04
18:27:04:499,0.8982,2.5522,8.5921,73.046,1.1309,-0.5604,-0.5055,71.85
18:27:04:520,-0.0313,1.9407,8.7606,73.0553,1.1336,-0.5561,-0.5518,72.1
18:27:04:540,-0.1924,1.5933,8.3248,73.3039,0.9159,-0.217,-0.4411,72.76
18:27:04:561,-0.4947,1.8635,7.2972,73.5602,0.07,0.3233,-0.3064,73.5
18:27:04:579,-1.1207,2.1524,8.6913,73.7304,-0.8365,1.2352,-0.1435,74.03
18:27:04:599,-2.3944,1.4682,10.3775,73.6301,-1.2006,1.9016,0.1817,74.28
18:27:04:619,-2.7502,0.4874,10.6323,73.3792,-1.1698,0.624,0.9286,74.11
18:27:04:640,-0.1288,1.5008,11.9983,73.2545,-0.2238,-0.1994,1.0632,73.44
18:27:04:659,1.0874,3.1299,10.1925,73.2494,0.2334,-1.2758,0.5011,72.26
18:27:04:679,0.804,3.0371,9.7327,72.9033,-0.0407,-1.1113,-0.0845,71.11
18:27:04:700,-0.3595,1.9111,9.1951,72.8265,-0.5289,0.178,0.0736,70.82
18:27:04:719,0.2117,2.5454,9.605,72.7228,-0.7663,0.6389,0.1226,71.15
18:27:04:740,1.9066,3.1387,11.3159,72.4603,-0.2707,-0.0201,-0.1664,71.03
18:27:04:760,2.2351,2.798,10.474,72.427,0.4661,-0.7185,-0.7083,70.77
18:27:04:780,0.8307,2.0721,8.4523,72.3911,0.712,-1.0895,-1.0458,70.95
18:27:04:801,-1.1753,2.0332,7.4564,72.714,0.5347,-1.2295,-0.8819,71.87
18:27:04:820,-2.6037,2.605,7.7998,73.0849,0.2089,-0.8872,-0.3405,73.26
18:27:04:839,-2.328,2.6048,8.6579,73.3277,-0.2691,-0.0099,0.2743,74.51
18:27:04:859,-0.4983,1.3487,8.6203,73.6918,-0.5134,0.3142,0.8396,75.09
18:27:04:880,0.6719,2.4295,8.9992,73.9614,-0.457,0.0215,0.953,74.78
18:27:04:899,1.8114,3.1191,9.9837,74.3607,-0.1876,0.1657,0.4755,73.76
18:27:04:920,1.3806,2.7476,9.4364,74.449,0.0982,0.0555,0.1146,72.67
18:27:04:939,0.4585,2.375,9.0126,74.69,0.1871,-0.0408,0.0268,72.09
18:27:04:960,0.0163,2.0435,9.3567,74.7318,0.1115,0.3046,0.2051,71.94
18:27:04:980,0.0154,2.1039,8.9859,75.0064,-0.1163,0.7949,0.4761,71.91
18:27:04:999,0.5892,2.6384,9.1136,75.1548,-0.3095,0.9339,0.5517,71.61
18:27:05:020,0.9449,2.915,9.5292,75.0092,-0.2685,0.7699,0.4085,70.9
18:27:05:040,1.1652,3.0765,9.57,74.9258,-0.0263,0.41,0.1412,70.08
18:27:05:059,1.1462,3.3089,9.326,74.7291,0.2127,0.0443,-0.2101,69.45
18:27:05:079,0.2417,2.8256,8.9336,74.3012,0.3069,-0.0786,-0.365,69.2
18:27:05:100,-0.6049,2.3299,8.6609,74.1712,0.1562,0.1961,-0.1776,69.4
18:27:05:120,-0.0717,2.4964,8.6462,73.8741,-0.0913,0.4276,0.0002,69.81
18:27:05:142,0.7069,3.0802,9.303,73.7473,-0.2185,0.3797,-0.1254,69.95
18:27:05:162,0.7844,2.8701,9.9602,73.3123,-0.2238,0.178,-0.3687,69.84
18:27:05:183,0.2175,2.2086,10.3456,72.811,-0.1908,0.088,-0.4714,69.88
18:27:05:199,-0.2485,1.6135,10.3672,72.5673,-0.226,0.1013,-0.3975,70.24
18:27:05:219,-0.2577,1.3067,10.6678,72.4731,-0.2462,0.2557,-0.2394,70.73
18:27:05:239,-0.3651,1.208,10.7707,72.4883,-0.2196,0.4931,-0.1244,71.16
18:27:05:259,-0.4251,1.156,9.9262,72.331,-0.2632,0.6736,-0.0472,71.36
18:27:05:279,-0.3097,1.2185,9.3336,72.2173,-0.3692,0.499,-0.0743,71.39
18:27:05:299,-0.2676,1.0012,9.607,71.9172,-0.392,0.1061,-0.1931,71.31
18:27:05:319,-0.2464,0.6193,10.1882,71.8703,-0.2856,-0.3112,-0.3091,71.3
18:27:05:339,-0.3775,0.1086,10.7483,71.7342,-0.1259,-0.522,-0.3011,71.49
18:27:05:359,-0.9672,-0.4599,10.6699,71.6168,0.0844,-0.5497,-0.1265,71.89
18:27:05:379,-1.3041,-0.2942,9.4109,71.7929,0.3096,-0.8696,0.2232,72.31
18:27:05:399,0.1459,0.3641,8.3273,71.6556,0.2228,-1.0895,0.3925,72.54
18:27:05:420,1.8639,0.974,8.6569,71.5608,-0.1509,-1.0442,0.2488,72.43
18:27:05:439,2.4062,0.7736,10.1342,71.9555,-0.3958,-0.6918,-0.0334,72.17
18:27:05:459,1.4609,0.1021,10.8849,72.0843,-0.4596,-0.176,-0.1281,72.07
18:27:05:480,0.5518,-0.2467,10.4631,72.4061,-0.4298,0.2759,0.0353,72.22
18:27:05:500,0.5751,0.1938,9.5169,72.7686,-0.3995,0.4494,0.2115,72.4
18:27:05:589,0.8914,0.7443,8.9376,73.0419,-0.3489,0.3526,0.2158,72.33
18:27:05:589,1.2764,1.1025,8.915,73.311,-0.1951,0.2094,0.0758,72.04
18:27:05:591,0.9906,1.0346,8.5184,73.2419,-0.0993,0.1519,-0.0722,71.76
18:27:05:591,0.4099,0.8351,8.0287,73.3389,-0.1424,0.1482,-0.0882,71.65
18:27:05:599,0.3914,0.9047,7.8853,73.5836,-0.2776,0.0912,-0.0759,71.72
18:27:05:619,0.7453,1.0401,8.4436,73.5377,-0.2983,-0.0642,-0.1489,71.81
18:27:05:639,0.9089,1.097,9.4067,73.5125,-0.103,-0.2101,-0.2697,71.89
18:27:05:659,0.8543,0.9821,9.5065,73.5996,0.0993,-0.0829,-0.3075,72.07
18:27:05:680,0.5596,0.937,8.8564,73.4524,0.1424,0.1317,-0.2591,72.4
18:27:05:701,0.239,1.014,8.359,73.5263,0.1057,0.1476,-0.1611,72.76
18:27:05:719,0.3855,1.3043,8.4938,73.6215,0.1174,-0.0706,-0.1026,73.04
18:27:05:740,0.5814,1.5454,8.8597,73.8138,0.1392,-0.1425,-0.0914,73.21
18:27:05:760,0.6271,1.8269,9.0711,73.9965,0.1019,-0.0445,-0.0578,73.33
18:27:05:781,0.7108,2.0017,9.3611,73.67,0.0828,0.0513,-0.0679,73.45
18:27:05:800,0.5359,1.9546,9.7166,73.5625,0.12,0.039,-0.0903,73.52
18:27:05:820,0.4988,1.8822,9.717,73.693,0.185,-0.0733,-0.0946,73.58
18:27:05:840,0.4459,1.693,9.8027,73.674,0.1701,-0.1978,-0.102,73.68
18:27:05:860,0.4149,1.4257,10.2683,73.5947,0.1009,-0.1473,-0.0493,73.78
18:27:05:880,0.4288,1.3451,10.9737,73.5646,0.111,0.0545,0.0555,73.92
18:27:05:900,0.397,1.6072,11.136,73.6014,0.227,0.2583,0.1391,73.98
18:27:05:921,0.3204,1.7698,10.3689,73.5673,0.2601,0.3584,0.1673,73.91
18:27:05:939,0.3463,1.7726,10.0374,73.6681,0.1626,0.2328,0.1189,73.71
18:27:05:959,0.1552,1.4368,10.4938,74.0469,0.1115,-0.0546,0.0587,73.47
18:27:05:979,0.2397,0.9821,11.2388,74.1183,0.0982,-0.2303,0.0294,73.29
18:27:05:999,0.094,0.4599,11.7671,74.0664,0.1025,-0.094,0.039,73.23
18:27:06:019,-0.2681,0.1612,11.3357,73.9988,0.0897,0.1561,0.1301,73.22
18:27:06:039,-0.5854,0.0932,10.7795,74.0756,0.1004,0.3004,0.2397,73.19
18:27:06:060,-0.4317,0.2573,10.0894,73.9597,0.1712,0.1785,0.2993,73.02
18:27:06:081,-0.0466,0.2809,9.749,73.7545,0.234,-0.1057,0.2498,72.71
18:27:06:100,-0.1026,0.166,9.8862,73.7334,0.2718,-0.2335,0.2094,72.34
18:27:06:121,-0.3361,0.0845,9.7661,73.5009,0.2409,-0.1153,0.2429,72.08
18:27:06:140,-0.3876,0.1738,9.44,73.107,0.1578,0.03,0.2945,71.89
18:27:06:159,-0.1437,0.4451,9.112,72.895,0.045,0.0944,0.2866,71.64
18:27:06:181,0.0565,0.5466,9.0429,72.7464,-0.0396,0.0247,0.1902,71.31
18:27:06:199,-0.1088,0.3579,9.3182,72.6712,-0.0875,-0.068,0.1295,70.98
18:27:06:219,-0.4291,0.1188,9.7311,72.5817,-0.0774,-0.0328,0.1753,70.77
18:27:06:239,-0.419,0.1542,9.6738,72.518,-0.0056,0.13,0.3015,70.65
18:27:06:259,-0.0984,0.6674,8.6771,72.6857,0.004,0.2759,0.3925,70.47
18:27:06:279,0.3292,1.2793,7.9384,72.4848,-0.0412,0.2535,0.3547,70.12
18:27:06:299,0.367,1.4726,7.7269,72.4065,-0.079,0.0981,0.2333,69.64
18:27:06:320,0.1924,1.2011,8.2275,72.3601,-0.0636,-0.1318,0.145,69.2
18:27:06:340,-0.0252,0.9841,8.7453,72.1637,0.0088,-0.1888,0.1492,68.93
18:27:06:360,0.2435,1.0698,8.8379,72.1164,0.0035,-0.0563,0.1849,68.79
18:27:06:381,0.4367,1.4005,8.7357,72.2064,-0.0455,0.1497,0.1641,68.66
18:27:06:400,0.2625,1.5784,8.6209,72.0913,-0.0301,0.1599,0.1221,68.47
18:27:06:420,0.1284,1.7384,8.5426,72.0671,0.0892,-0.0685,0.0683,68.27
18:27:06:439,0.096,1.899,8.3594,71.9108,0.1887,-0.3112,0.0268,68.11
18:27:06:459,0.0602,2.1477,8.0561,72.1324,0.1035,-0.3261,0.0337,68.05
18:27:06:481,0.1468,2.3032,8.3909,72.0846,-0.0966,-0.1936,0.1056,68.07
18:27:06:500,0.4631,2.4816,9.373,72.236,-0.1748,-0.0594,0.1205,68.09
18:27:06:520,0.6937,2.5362,9.7863,72.3865,-0.0923,-0.0664,0.0662,68.01
18:27:06:540,0.6427,2.5264,9.7869,72.4434,-0.0439,-0.16,-0.0334,67.88
18:27:06:560,0.3713,2.3431,10.3628,72.3562,-0.0215,-0.2111,-0.11,67.82
18:27:06:581,-0.0795,2.0961,10.5802,72.5174,0.0551,-0.2005,-0.0908,67.88
18:27:06:600,-0.2947,2.0258,10.4485,72.8069,0.0647,-0.1909,-0.0147,68.04
18:27:06:620,0.0899,2.0808,10.2038,72.7879,-0.0018,-0.2213,0.0279,68.17
18:27:06:639,0.7021,1.7309,10.0557,72.5856,-0.1967,-0.291,-0.0131,68.22
18:27:06:659,1.0638,0.9487,11.0073,72.5869,-0.3441,-0.3389,-0.0813,68.22
18:27:06:680,1.1986,0.2053,12.153,72.6522,-0.3239,-0.2367,-0.069,68.28
18:27:06:700,1.4542,-0.0077,12.4089,72.9186,-0.185,-0.0408,-0.0248,68.43
18:27:06:720,1.8592,0.2532,11.6646,73.0322,-0.0354,0.0981,-0.0626,68.55
18:27:06:741,1.9416,0.2878,10.6216,73.1875,0.0168,0.0603,-0.2085,68.58
18:27:06:762,1.6896,-0.256,10.0315,73.1173,-0.0482,-0.019,-0.3261,68.65
18:27:06:781,1.3504,-0.7183,10.3173,73.0157,-0.0945,-0.0089,-0.349,68.88
18:27:06:799,0.9765,-0.8135,10.0477,73.0243,-0.0508,0.0678,-0.2857,69.26
18:27:06:820,0.6766,-0.5091,9.2757,73.2117,-0.062,0.1189,-0.1627,69.67
18:27:06:839,0.9714,0.1536,8.8238,73.3357,-0.1136,0.1481,-0.0664,69.99
18:27:06:859,1.3381,0.7069,8.6801,73.5316,-0.1365,0.1114,-0.0818,70.17
18:27:06:880,1.3923,0.8877,8.7112,73.3694,-0.0897,-0.0121,-0.1776,70.24
18:27:06:900,0.994,0.7445,9.0058,73.3073,-0.0082,-0.0717,-0.2255,70.32
18:27:06:920,0.6714,0.7332,9.0623,73.4324,0.0674,0.0273,-0.2005,70.53
18:27:06:940,0.4131,0.7761,8.8121,73.2612,0.1158,0.1631,-0.1718,70.81
18:27:06:960,0.2065,0.837,8.3746,73.2283,0.1509,0.2349,-0.1457,71.04
18:27:06:981,0.0979,0.9913,7.8131,73.3205,0.1525,0.2078,-0.1382,71.22
18:27:07:000,-0.008,1.0483,7.5818,73.1525,0.1067,0.1247,-0.1356,71.37
18:27:07:019,-0.1942,0.9927,7.8455,73.1525,0.0769,0.0422,-0.0754,71.5
18:27:07:051,0.0341,1.0933,8.2763,72.8818,0.0439,0.039,0.0332,71.73
18:27:07:063,0.1001,1.1202,8.4135,72.8175,0.0312,0.0523,0.0587,71.73
18:27:07:081,0.299,1.2298,8.7235,72.9841,0.0178,0.0944,0.1013,71.66
18:27:07:102,0.2577,1.3782,8.8318,72.8905,0.0077,0.1599,0.1444,71.54
18:27:07:121,0.1687,1.5394,8.8378,72.8963,-0.0103,0.17,0.2211,71.36
18:27:07:141,0.3057,1.7696,8.9962,72.7864,0.0146,0.0997,0.2812,71.09
18:27:07:162,0.687,2.1152,9.1367,72.6329,0.0285,0.0768,0.2908,70.76
18:27:07:181,0.6955,2.2473,9.2747,72.4164,0.0226,0.104,0.2631,70.43
18:27:07:201,0.7098,2.2897,9.2886,72.3783,-0.0162,0.1721,0.2424,70.11
18:27:07:221,0.6992,2.2101,9.4039,72.7729,-0.0641,0.2211,0.2126,69.81
18:27:07:241,0.4533,1.9442,9.6637,73.0546,-0.0641,0.1492,0.1955,69.54
18:27:07:265,0.1575,1.6378,10.3736,72.5723,0.0312,-0.0296,0.2482,69.3
18:27:07:282,0.0788,1.5648,10.9468,72.8412,0.2324,-0.1446,0.3531,69.02
18:27:07:302,0.0361,1.8446,10.6164,72.7702,0.3569,-0.0988,0.4835,68.65
18:27:07:322,0.0098,2.2244,10.0066,72.6302,0.3064,0.0369,0.6001,68.11
18:27:07:341,0.4072,2.3095,9.6043,72.9613,0.07,0.1173,0.5767,67.43
18:27:07:364,0.6108,1.7969,10.2096,73.2352,-0.185,0.0279,0.4324,66.76
18:27:07:382,0.2934,0.7257,11.6998,73.5743,-0.2137,-0.0775,0.2876,66.26
18:27:07:401,-0.3947,-0.2495,12.285,73.5912,-0.1014,-0.0179,0.2935,65.95
18:27:07:421,-0.7219,-0.6265,11.6369,73.734,-0.0886,0.0518,0.3813,65.63
18:27:07:441,-0.1754,-0.7009,11.3745,73.6368,-0.1519,-0.0051,0.4063,65.2
18:27:07:465,0.3324,-0.7557,11.6964,73.7569,-0.1296,-0.0791,0.3025,64.74
18:27:07:482,0.0388,-0.9476,11.5116,73.6807,-0.07,-0.0616,0.2349,64.42
18:27:07:501,-0.2665,-0.8796,10.8682,73.5453,-0.0556,-0.0089,0.2328,64.17
18:27:07:521,-0.4004,-0.5042,10.3444,73.564,-0.0242,-0.0089,0.244,63.92
18:27:07:542,-0.3465,-0.1026,9.5253,73.6521,-0.0119,-0.0275,0.2509,63.66
18:27:07:565,-0.2777,0.189,9.0388,73.7514,-0.0279,-0.0701,0.269,63.39
18:27:07:581,-0.1108,0.3662,8.9707,74.0593,-0.0029,-0.0898,0.2903,63.1
18:27:07:665,-0.039,0.4279,8.8056,74.2331,0.0386,-0.0515,0.3265,62.8
18:27:07:666,-0.1164,0.4778,8.5143,74.7503,0.0434,0.0145,0.3755,62.45
18:27:07:666,-0.2231,0.5392,8.2548,74.6617,0.0493,0.0145,0.4335,62.03
18:27:07:666,0.0791,0.72,8.1862,74.6778,0.0562,-0.0057,0.4633,61.55
18:27:07:683,0.3091,0.922,8.2047,74.6406,0.0977,-0.0179,0.4276,61.04
18:27:07:701,0.2934,1.0421,8.0246,74.4892,0.1328,-0.0376,0.3776,60.56
18:27:07:721,0.1338,1.0986,7.9821,74.5519,0.1408,-0.0637,0.3515,60.15
18:27:07:741,0.225,1.2159,7.9738,74.7619,0.0966,-0.0355,0.3302,59.77
18:27:07:761,0.2413,1.2658,8.1156,74.6323,0.0439,0.0055,0.2807,59.42
18:27:07:782,0.0226,1.2202,8.2018,74.9374,0.0232,0.0236,0.2615,59.11
18:27:07:801,0.0065,1.2519,8.3033,75.3199,0.0338,0.0082,0.2818,58.81
18:27:07:821,0.4983,1.6481,8.4471,75.3681,0.0631,-0.0142,0.2791,58.5
18:27:07:841,0.9748,2.127,8.4554,75.4355,0.1046,-0.0578,0.1737,58.2
18:27:07:863,0.8561,2.2896,8.4485,75.4359,0.0871,-0.0983,0.055,58.02
18:27:07:884,0.5386,2.2306,8.8443,75.4912,0.0312,-0.1393,-0.0216,57.98
18:27:07:901,0.2359,2.1332,9.8398,75.3566,0.036,-0.168,-0.0509,58.04
18:27:07:921,0.0293,1.8989,10.8833,75.5978,0.0737,-0.0498,-0.0355,58.13
18:27:07:942,-0.1337,1.6429,12.2233,75.9964,0.1387,0.1263,0.0044,58.19
18:27:07:961,-0.2477,1.5694,12.7715,76.2281,0.308,0.2956,0.0683,58.18
18:27:07:982,-0.1653,1.8468,11.7478,76.0884,0.4203,0.3803,0.1386,58.06
18:27:08:002,0.4264,1.8576,9.7387,75.7917,0.1903,0.2248,0.0901,57.86
18:27:08:022,0.3458,0.7769,9.8501,75.8157,-0.243,-0.1478,-0.0137,57.73
18:27:08:041,-0.1921,-0.719,12.5138,75.4193,-0.2345,-0.4565,0.0747,57.78
18:27:08:061,-0.2841,-0.8688,13.6697,75.7064,0.2478,-0.2745,0.3488,57.79
18:27:08:082,0.6178,0.2303,11.3128,76.0988,0.506,0.1561,0.4872,57.45
18:27:08:102,1.4002,1.1121,9.0888,76.1818,0.3048,0.3504,0.2828,56.89
18:27:08:121,0.8021,1.0973,8.3365,76.5297,-0.0678,0.3116,0.0438,56.52
18:27:08:141,0.0592,0.5968,9.1546,76.4073,-0.3218,0.1402,0.0124,56.43
18:27:08:161,0.2779,0.5323,10.0776,76.4,-0.3739,0.0997,0.0885,56.41
18:27:08:182,0.4074,0.8176,10.2958,76.4606,-0.3436,0.1029,0.1157,56.31
18:27:08:201,0.4053,0.4878,10.0939,76.2579,-0.2723,0.0736,0.1583,56.18
18:27:08:221,0.0619,0.5666,9.5278,76.3904,-0.243,0.0071,0.228,56
18:27:08:241,0.5629,0.6387,9.2307,76.3318,-0.2345,-0.1819,0.2323,55.76
18:27:08:265,0.3514,0.4741,8.8257,76.6668,-0.1636,-0.3799,0.1923,55.54
18:27:08:282,0.39,0.7394,8.4764,76.4781,0.0727,-0.58,0.2317,55.39
18:27:08:302,1.3613,1.4823,8.0119,76.7348,0.2845,-0.6913,0.0853,55.22
18:27:08:321,2.1085,1.9308,7.37,76.8361,0.3112,-0.7067,-0.1813,55.23
18:27:08:342,1.6427,1.9774,7.6608,77.2409,0.3798,-0.7403,-0.4427,55.56
18:27:08:361,1.0216,1.7842,8.2986,77.6147,0.5438,-0.4965,-0.5492,56.19
18:27:08:382,0.1992,1.0641,7.281,77.8588,0.4144,-0.0669,-0.4342,56.91
18:27:08:401,-0.5847,0.9327,6.9517,78.3662,0.0509,0.2812,-0.0568,57.44
18:27:08:422,-0.2061,1.1495,7.5744,78.598,-0.2797,0.4324,0.2823,57.47
18:27:08:441,0.7499,1.6029,8.4259,78.6097,-0.3792,0.4479,0.4431,57.09
18:27:08:461,1.8316,2.0154,8.5507,78.6615,-0.3382,0.3217,0.2754,56.52
18:27:08:483,1.6081,2.4036,8.1674,78.5866,-0.392,0.1348,0.0337,56.17
18:27:08:503,0.5024,1.9955,9.2364,78.2567,-0.3494,0.1572,0.071,56.13
18:27:08:521,-0.7122,1.4007,10.4957,78.2592,-0.0758,0.319,0.5277,56.04
18:27:08:541,-0.0499,1.5662,10.998,78.1716,0.2106,0.6033,1.0286,55.41
18:27:08:561,2.0077,2.287,10.5232,78.3084,0.1658,0.7885,0.9871,54.17
18:27:08:582,2.0907,2.168,10.4988,78.0936,0.0402,0.7555,0.5836,52.95
18:27:08:601,0.472,1.4643,10.5562,77.7881,0.1062,0.5085,0.4878,52.19
18:27:08:621,0.1592,1.1648,10.3497,77.4838,0.0711,0.1945,0.5399,51.58
18:27:08:643,0.273,1.0027,11.3265,77.2844,-0.169,0.1109,0.5719,50.96
18:27:08:665,0.4072,0.3491,12.4234,76.8542,-0.2824,0.2972,0.5501,50.31
18:27:08:681,0.1249,-0.4503,12.4764,76.7854,-0.3569,0.4745,0.4484,49.66
18:27:08:702,-0.6042,-1.2299,12.5895,76.4757,-0.3068,0.4223,0.467,49.11
18:27:08:721,-0.601,-1.2137,12.5468,76.3144,-0.0077,0.2264,0.5011,48.54
18:27:08:741,-0.4937,-0.8338,11.7575,76.4218,0.358,0.0816,0.4787,47.97
18:27:08:761,-0.3729,-0.1861,10.1932,76.3988,0.5017,0.0028,0.3925,47.43
18:27:08:781,-0.4915,0.2561,8.7434,76.3735,0.35,-0.0286,0.2748,47.01
18:27:08:801,-0.2688,0.6277,7.6243,76.5743,-0.0524,-0.1792,0.0694,46.72
18:27:08:821,0.0071,0.8338,7.1337,76.6287,-0.5837,-0.2324,-0.2505,46.69
18:27:08:841,-0.1281,0.8117,7.3919,76.7929,-1.265,-0.4938,-0.4299,47.03
18:27:08:861,-0.5548,-0.8486,9.0244,76.6173,-1.6036,-0.678,-0.2649,47.6
18:27:08:883,-1.2118,-1.8492,9.4285,76.8018,-1.4146,-0.6152,0.0076,47.98
18:27:08:902,-0.3933,-1.2063,9.6566,77.2804,-0.8014,-0.5316,0.211,48.03
18:27:08:921,0.2738,-0.2469,9.0313,77.3794,-0.2041,-0.3517,0.2312,47.82
18:27:08:941,0.813,-0.3128,8.0264,77.6026,-0.0385,0.1503,0.2381,47.58
18:27:08:961,0.1895,-0.3104,8.256,77.8397,-0.0849,0.8333,0.3361,47.33
18:27:08:982,-0.6784,-0.7957,8.3411,78.0717,-0.1386,1.0526,0.6278,46.97
18:27:09:001,-1.163,-0.8084,8.7415,78.0199,-0.1019,1.0276,0.9344,46.28
18:27:09:021,-0.9132,-0.5413,9.2485,77.8156,0.0439,0.8679,1.0776,45.24
18:27:09:041,-0.2477,0.0097,9.1817,77.521,0.3032,0.6688,1.0563,44.03
18:27:09:062,0.2654,1.2,7.3929,76.978,0.2579,0.3451,0.6746,42.85
18:27:09:083,0.1127,1.2579,6.9086,76.4787,-0.1541,0.0933,0.3142,42.1
18:27:09:101,-0.1073,0.7242,8.6208,76.0482,-0.3324,0.0124,0.2195,41.76
18:27:09:121,0.2903,0.6479,10.1533,76.0543,-0.1439,-0.0126,0.2003,41.53
18:27:09:142,0.8293,0.862,10.3427,76.0456,0.0338,-0.0163,0.1125,41.33
18:27:09:161,0.7281,0.8267,10.3732,76.1564,0.1483,-0.0818,-0.0089,41.22
18:27:09:183,0.0499,0.6299,10.0042,76.2035,0.1696,-0.1952,-0.0328,41.26
18:27:09:201,-0.3353,0.6562,10.362,76.2738,0.1632,-0.4949,0.0529,41.32
18:27:09:221,0.164,0.7776,11.1671,76.7071,0.1568,-0.5167,0.0433,41.28
18:27:09:241,0.3195,0.8183,11.5697,76.7536,0.184,-0.5045,0.0768,41.26
18:27:09:261,0.8188,0.6579,11.0425,77.1149,0.0908,-0.4672,0.0231,41.2
18:27:09:282,1.1444,0.1473,11.1613,77.3455,-0.1871,-0.4368,-0.1164,41.2
18:27:09:302,0.7653,-0.7505,11.9694,77.319,-0.376,-0.34,-0.1952,41.36
18:27:09:321,0.401,-1.482,12.6633,77.4234,-0.309,-0.2883,-0.167,41.61
18:27:09:341,0.119,-1.6524,12.9044,77.4257,0.0386,-0.2756,-0.0775,41.82
18:27:09:362,0.2196,-1.3623,11.7674,77.6865,0.4379,-0.2223,0.0135,41.94
18:27:09:383,0.4318,-0.9304,9.6321,77.7232,0.5017,-0.0722,0.0092,41.95
18:27:09:404,0.7961,-0.5627,8.4409,77.9753,0.2686,0.0364,-0.0861,41.96
18:27:09:422,0.8767,-0.5243,8.4715,77.9487,0.0104,0.0784,-0.2521,42.08
18:27:09:441,0.6067,-0.8712,8.5825,77.8754,-0.2025,0.0768,-0.373,42.39
18:27:09:461,-0.0482,-1.2235,9.0671,77.9629,-0.301,-0.0014,-0.3889,42.84
18:27:09:482,-0.4711,-1.4717,9.5438,77.5969,-0.2328,-0.0993,-0.2718,43.32
18:27:09:501,-0.4465,-1.2896,9.5899,77.9906,-0.0641,-0.0935,-0.0605,43.65
18:27:09:521,0.1473,-0.6686,8.9452,78.0085,0.069,0.0082,0.1002,43.75
18:27:09:542,0.6273,-0.0995,7.9522,77.8045,0.0418,0.1476,0.1247,43.66
18:27:09:561,0.579,0.0937,7.5893,77.6375,-0.0258,0.2035,0.0981,43.54
18:27:09:581,0.4615,0.1232,7.8871,77.476,0.0424,0.0901,0.0683,43.46
18:27:09:601,0.4117,0.2562,7.9591,77.3569,0.1829,-0.0046,0.0412,43.4
18:27:09:621,0.4611,0.4791,7.6966,76.9373,0.2169,0.0364,0.03,43.38
18:27:09:642,0.6288,0.7265,7.3632,77.0327,0.1116,0.2073,-0.003,43.37
18:27:09:661,0.6456,0.7594,7.5093,76.9069,-0.071,0.3978,-0.0648,43.37
18:27:09:743,0.2716,0.4964,8.1832,76.857,-0.1514,0.4644,-0.0786,43.46
18:27:09:743,-0.0412,0.2343,8.8079,76.6253,-0.096,0.3856,-0.0201,43.57
18:27:09:744,0.085,0.3553,9.2729,76.6836,0.0216,0.212,0.0412,43.61
18:27:09:744,0.2499,0.6263,9.5401,76.5333,0.0828,0.1232,0.0742,43.59
18:27:09:761,0.325,0.8992,9.8175,76.4121,0.103,0.1327,0.1167,43.53
18:27:09:782,0.3033,1.2119,10.0843,76.267,0.119,0.1929,0.1849,43.42
18:27:09:801,0.1796,1.5939,10.3466,76.2086,0.1669,0.2206,0.236,43.22
18:27:09:821,0.279,1.696,10.253,76.2276,0.1893,0.2802,0.2599,42.97
18:27:09:841,0.3284,1.5679,10.2247,75.9792,0.0924,0.2088,0.1971,42.69
18:27:09:862,-0.0964,0.9574,10.9617,75.9006,0.0514,0.1136,0.129,42.48
18:27:09:883,-0.8892,0.6274,11.4282,75.8887,0.1557,0.0342,0.2291,42.35
18:27:09:906,-0.8799,0.5227,10.5784,75.7842,0.0897,0.0614,0.3733,42.11
18:27:09:921,-0.6611,0.4439,10.4848,75.9421,-0.1764,0.0901,0.4292,41.71
18:27:09:941,-0.6781,0.0342,11.42,75.8873,-0.3105,0.0619,0.4079,41.24
18:27:09:961,-0.8018,-0.5865,11.7968,75.5949,-0.3164,-0.0248,0.3696,40.79
18:27:09:983,-0.9421,-1.0834,12.1037,75.6907,-0.2078,-0.1968,0.3132,40.39
18:27:10:001,-1.0452,-1.4328,12.0562,75.44,0.0221,-0.3517,0.2924,40.06
18:27:10:021,-1.1043,-1.5155,10.9659,75.4409,0.1856,-0.3282,0.3472,39.76
18:27:10:041,-1.199,-1.252,9.8297,75.396,0.2116,-0.2394,0.4228,39.4
18:27:10:061,-1.1274,-0.8475,9.0398,75.3892,0.1909,-0.159,0.4867,38.95
18:27:10:083,-0.8844,-0.4599,8.4275,75.7665,0.094,-0.1398,0.4542,38.42
18:27:10:102,-0.75,-0.3562,8.2869,75.6558,-0.0481,-0.192,0.3302,37.93
18:27:10:121,-0.9714,-0.5954,8.7902,75.9933,-0.1477,-0.2404,0.2328,37.59
18:27:10:141,-1.1599,-0.9217,9.4017,75.7891,-0.1716,-0.1914,0.2557,37.36
18:27:10:161,-1.0245,-0.9555,9.5985,75.9153,-0.153,-0.0749,0.3297,37.1
18:27:10:184,-0.8454,-0.7648,9.4708,75.8608,-0.0849,0.0545,0.4031,36.76
18:27:10:202,-0.6204,-0.4508,8.9571,75.5712,0.0046,0.1125,0.4585,36.32
18:27:10:222,-0.4202,-0.1098,8.2714,75.6176,0.0658,0.0853,0.4782,35.83
18:27:10:241,-0.1556,0.2353,7.8,75.5466,0.0738,0.0076,0.4691,35.31
18:27:10:262,-0.0179,0.4131,7.7436,75.487,0.0402,-0.0818,0.4239,34.8
18:27:10:283,0.0955,0.4203,8.1334,75.5251,0.004,-0.1318,0.3813,34.34
18:27:10:301,0.2093,0.3881,8.6457,75.7606,-0.0103,-0.1329,0.3542,33.94
18:27:10:322,0.3305,0.4773,9.0081,75.7937,0.0109,-0.0818,0.3339,33.56
18:27:10:342,0.4245,0.7005,9.0375,75.625,0.0743,-0.0685,0.3078,33.21
18:27:10:361,0.6143,1.0694,8.9984,75.6139,0.1275,-0.1004,0.2248,32.89
18:27:10:383,0.4928,1.1603,8.8924,75.2771,0.0951,-0.0727,0.1173,32.64
18:27:10:401,-0.0337,0.8404,9.1605,75.337,0.0184,0.006,0.0555,32.53
18:27:10:422,-0.6016,0.4845,9.8628,75.2874,0.0264,-0.0424,0.1125,32.5
18:27:10:441,-0.3857,0.5451,10.4726,75.1872,0.2132,-0.2095,0.1902,32.4
18:27:10:461,0.083,0.7708,10.1866,75.1554,0.292,-0.2505,0.2088,32.21
18:27:10:483,0.2978,0.8743,10.0566,75.422,0.192,-0.1739,0.1961,32.01
18:27:10:502,0.2234,0.8878,10.4044,75.3404,0.1382,-0.1845,0.178,31.82
18:27:10:521,0.0203,0.8277,11.3271,75.2134,0.2494,-0.3495,0.2142,31.65
18:27:10:541,0.3865,1.1293,11.4549,75.2457,0.3862,-0.4033,0.2796,31.45
18:27:10:561,0.8836,1.0663,10.424,75.1854,0.144,-0.2819,0.2418,31.18
18:27:10:582,1.016,0.4232,10.7377,75.2905,-0.2829,-0.1041,0.1758,30.95
18:27:10:601,0.9178,-0.5579,12.3451,75.4463,-0.3675,-0.1776,0.1082,30.78
18:27:10:622,0.6765,-1.2363,13.7258,75.6118,0.0546,-0.4321,0.0938,30.69
18:27:10:641,0.4742,-1.1196,12.7019,75.6186,0.5481,-0.415,0.1891,30.63
18:27:10:662,0.7617,-0.5034,10.2183,75.685,0.6263,-0.1441,0.2376,30.46
18:27:10:684,1.1251,-0.0384,8.599,75.5895,0.3719,0.0337,0.1535,30.23
18:27:10:701,1.2059,-0.0755,8.5368,75.6013,0.1073,-0.0131,0.0103,30.08
18:27:10:721,1.134,-0.3861,9.318,75.5767,-0.0109,-0.0887,-0.1217,30.09
18:27:10:742,0.9051,-0.646,9.5681,75.613,-0.0534,-0.0003,-0.1318,30.27
18:27:10:761,0.9875,-0.3603,9.5518,75.3324,-0.0034,0.1242,-0.1111,30.45
18:27:10:784,1.0864,0.1762,8.9425,75.3779,0.1196,0.2243,-0.1201,30.59
18:27:10:802,0.9211,0.5772,7.736,75.155,0.1164,0.2717,-0.1462,30.74
18:27:10:822,0.5502,0.6165,7.4887,75.1917,0.0807,0.2286,-0.1558,30.91
18:27:10:842,0.3199,0.6636,7.5748,75.0684,0.1158,0.1673,-0.1223,31.1
18:27:10:861,0.1487,0.8172,7.5559,74.9396,0.1589,0.1311,-0.0786,31.25
18:27:10:883,0.1836,1.0841,7.8025,74.6548,0.2186,0.088,-0.0408,31.35
18:27:10:902,0.1684,1.3838,7.8577,74.3884,0.2958,-0.0099,-0.036,31.42
18:27:10:921,0.198,1.6301,7.8575,73.9658,0.3138,-0.0919,-0.0451,31.49
18:27:10:941,0.1885,1.7707,7.8087,73.8623,0.1856,-0.0466,-0.0546,31.58
18:27:10:961,0.0015,1.5935,8.2914,73.8952,0.0078,0.0816,-0.0302,31.67
18:27:10:983,-0.1213,1.3578,9.1277,74.2078,-0.0268,0.1402,0.0193,31.72
18:27:11:001,-0.2418,1.2174,9.7855,74.3678,0.1201,0.1285,0.1194,31.71
18:27:11:021,-0.2454,1.4352,9.4933,74.6042,0.2452,0.1657,0.2589,31.59
18:27:11:041,-0.1351,1.7192,9.3607,74.7872,0.3181,0.228,0.3824,31.3
18:27:11:061,0.0813,2.0981,8.9536,74.7302,0.3288,0.2153,0.4569,30.86
18:27:11:083,0.3167,2.3785,8.7831,74.5198,0.2601,0.1386,0.4303,30.34
18:27:11:101,0.2927,2.1572,9.1706,74.201,0.1142,0.0806,0.3425,29.86
18:27:11:121,-0.221,1.4722,10.2036,74.0549,0.0594,0.1232,0.3595,29.48
18:27:11:142,-0.6706,0.9652,10.8569,73.7864,0.0871,0.2387,0.5091,29.09
18:27:11:161,-0.8888,1.1417,10.7347,73.721,0.1408,0.3648,0.7028,28.5
18:27:11:183,-0.5915,1.5471,9.8808,73.7266,0.0477,0.3079,0.7928,27.67
18:27:11:201,-0.2249,1.7008,9.7045,73.3307,-0.228,0.2514,0.7619,26.75
18:27:11:222,-0.1277,1.0902,10.8403,73.3177,-0.5048,0.2658,0.6496,25.88
18:27:11:241,-0.7483,0.1092,12.1806,73.2494,-0.5213,0.277,0.6012,25.13
18:27:11:261,-1.5094,-0.5901,12.5964,73.1315,-0.3654,0.236,0.6906,24.44
18:27:11:283,-1.7065,-0.7625,12.1428,73.1388,-0.145,0.1051,0.8615,23.65
18:27:11:302,-1.2303,-0.4102,11.4058,73.2518,0.0392,-0.0296,0.9653,22.69
18:27:11:325,-0.7531,0.0958,10.4052,73.3376,0.1425,-0.0365,0.9669,21.62
18:27:11:341,-0.7288,0.5009,9.1653,73.1252,0.1126,-0.0179,0.9168,20.55
18:27:11:361,-0.7122,0.732,8.4432,73.0263,-0.0289,-0.052,0.8503,19.54
18:27:11:382,-0.6708,0.7025,8.6788,72.7827,-0.1397,-0.1531,0.7529,18.61
18:27:11:401,-0.6412,0.4637,9.1884,72.631,-0.1519,-0.2143,0.6789,17.8
18:27:11:421,-0.6351,0.2612,9.6065,72.0608,-0.1184,-0.135,0.656,17.08
18:27:11:441,-0.6234,0.1147,9.4736,72.0619,-0.0449,-0.0057,0.6672,16.37
18:27:11:461,-0.6552,0.1549,8.96,71.9989,0.0104,0.046,0.6831,15.64
18:27:11:481,-0.7835,0.2936,8.4881,71.4771,0.0759,0.014,0.706,14.89
18:27:11:502,-0.7372,0.4604,7.9893,71.4226,0.0807,0.0034,0.7364,14.11
18:27:11:521,-0.6209,0.6495,7.6267,70.8669,0.0333,-0.0179,0.747,13.3
18:27:11:542,-0.454,0.8612,7.9643,70.891,-0.0055,-0.0993,0.7028,12.48
18:27:11:561,-0.2883,0.9671,8.388,70.7198,0.0323,-0.1488,0.6906,11.72
18:27:11:582,0.1223,1.2442,8.5692,70.7316,0.0669,-0.1813,0.6789,10.98
18:27:11:601,0.5194,1.5714,8.7554,70.5969,0.102,-0.1973,0.6219,10.25
18:27:11:621,0.9048,1.8246,9.1584,70.3818,0.1574,-0.2244,0.4787,9.59
18:27:11:641,0.8111,1.9132,9.5946,70.1831,0.251,-0.2867,0.3132,9.1
18:27:11:661,0.5124,1.6235,9.7238,70.1591,0.3697,-0.2878,0.2807,8.8
18:27:11:683,0.3789,1.7082,9.5091,69.9241,0.3863,-0.1728,0.3403,8.54
18:27:11:702,0.2758,2.0374,9.1988,70.055,0.3229,0.0082,0.4202,8.21
18:27:11:721,0.4379,2.247,8.9358,69.8901,0.1882,0.0822,0.4755,7.76
18:27:11:741,1.1004,2.3208,9.2786,69.7473,0.0339,0.013,0.4106,7.23
18:27:11:796,1.2348,1.9822,10.1977,69.4581,-0.0406,-0.1803,0.269,6.79
18:27:11:796,1.0035,1.4338,11.2912,69.3725,0.0259,-0.432,0.1801,6.53
18:27:11:801,0.8172,1.1979,11.8301,69.3744,0.1361,-0.4645,0.2003,6.41
18:27:11:821,1.1403,1.222,11.0232,69.3423,-0.0241,-0.2537,0.2344,6.27
18:27:11:841,1.4467,1.046,11.0077,69.4687,-0.401,-0.0221,0.1966,6.07
18:27:11:862,1.4776,0.3498,12.2862,69.2253,-0.6204,0.1519,0.1269,5.87
18:27:11:883,0.8582,-0.5828,13.5298,69.0001,-0.475,0.2184,0.1311,5.73
18:27:11:901,0.3484,-0.909,13.4443,69.1686,0.0014,0.1354,0.2748,5.58
18:27:11:921,0.8141,-0.1791,11.2992,69.0369,0.3724,-0.0269,0.3797,5.28
18:27:11:942,2.0571,0.6179,9.0977,69.0014,0.3463,-0.1446,0.252,4.87
18:27:11:961,2.5662,0.8949,8.4078,69.0739,0.118,-0.1217,-0.0334,4.63
18:27:11:983,2.0919,0.4341,8.5691,68.8568,-0.1067,-0.0072,-0.2671,4.71
18:27:12:001,1.1536,-0.2187,9.0139,68.4702,-0.194,0.0678,-0.3517,5.04
18:27:12:022,0.382,-0.5511,9.2446,68.5199,-0.1051,0.0673,-0.2644,5.46
18:27:12:041,0.2379,-0.2699,8.8072,68.5857,0.0205,0.055,-0.1175,5.78
18:27:12:061,0.4364,0.2032,8.0962,68.5342,0.0887,0.046,-0.011,5.93
18:27:12:083,0.6837,0.6207,7.5329,68.6083,0.0759,0.0316,0.0225,5.97
18:27:12:102,0.684,0.8759,7.5502,68.5903,0.0855,-0.004,0.0151,5.96
18:27:12:121,0.4888,0.9952,7.4973,68.5979,0.1313,-0.0413,0.0475,5.97
18:27:12:141,0.5919,1.3333,7.3708,68.6344,0.1393,-0.0397,0.0853,5.95
18:27:12:161,0.7763,1.7443,7.3693,68.5878,0.127,-0.052,0.0715,5.88
18:27:12:183,0.858,2.0032,7.3686,68.3914,0.0631,-0.0317,0.0087,5.83
18:27:12:202,0.7181,1.9506,7.6983,68.4853,-0.0412,-0.0174,-0.0722,5.85
18:27:12:221,0.4104,1.6908,8.3396,68.3014,-0.096,-0.0434,-0.1132,5.96
18:27:12:241,0.2962,1.3917,8.9379,68.3023,-0.0976,-0.0749,-0.0855,6.12
18:27:12:262,0.4051,1.2319,9.4627,68.2411,-0.0476,-0.0605,0.0002,6.26
18:27:12:283,0.6081,1.3171,9.7069,68.2328,0.019,0.0619,0.1215,6.29
18:27:12:301,0.8305,1.7618,9.8277,68.3411,0.0967,0.2291,0.2237,6.17
18:27:12:321,1.0552,2.2068,9.6509,68.2645,0.1627,0.3371,0.2541,5.91
18:27:12:342,1.1175,2.4512,9.5446,68.3349,0.1441,0.3909,0.219,5.6
18:27:12:361,0.9854,2.362,9.8537,68.32,0.0871,0.4926,0.1657,5.32
18:27:12:383,0.4313,1.9627,10.1321,68.2015,0.0397,0.5788,0.1535,5.09
18:27:12:401,-0.0441,1.5546,10.2512,67.9246,0.0248,0.565,0.2408,4.86
18:27:12:422,-0.1747,1.468,10.747,67.45,0.0685,0.4559,0.3414,4.53
18:27:12:441,-0.2098,1.7755,10.8569,67.0925,0.1962,0.3505,0.4377,4.11
18:27:12:461,-0.0339,1.9622,10.2031,66.7975,0.1249,0.2408,0.458,3.59
18:27:12:484,0.0301,1.8986,10.4512,66.1459,-0.1136,0.2179,0.4159,3.05
18:27:12:502,-0.0278,1.3854,11.3124,66.197,-0.3313,0.2541,0.3467,2.58
18:27:12:521,-0.3633,0.4485,12.2304,66.1574,-0.4431,0.3483,0.3025,2.17
18:27:12:541,-0.8134,-0.5815,13.0423,65.9053,-0.3196,0.3121,0.3435,1.81
18:27:12:561,-1.0349,-1.2287,12.9775,65.8149,0.0083,0.1785,0.4564,1.4
18:27:12:583,-1.006,-1.2198,11.5239,65.3939,0.2958,0.1311,0.6123,0.89
18:27:12:604,-0.6899,-0.5952,9.6163,64.6242,0.3415,0.1508,0.7018,0.2
18:27:12:621,-0.3744,-0.0028,8.0677,64.133,0.2239,0.1168,0.6927,359.4
18:27:12:641,-0.0551,0.3556,7.503,64.0088,0.0147,-0.0387,0.5862,358.62
18:27:12:662,0.0682,0.3144,8.1454,63.4356,-0.1099,-0.1622,0.4729,357.99
18:27:12:683,0.077,0.1374,8.6143,63.2807,-0.1322,-0.1611,0.4431,357.49
18:27:12:702,0.1614,0.1644,8.6684,62.8481,-0.1562,-0.1068,0.434,357.03
18:27:12:721,0.3039,0.2826,8.7112,62.308,-0.153,-0.0626,0.4026,356.58
18:27:12:742,0.3441,0.4112,8.5529,62.1604,-0.1375,-0.0152,0.3573,356.15
18:27:12:761,0.0548,0.4614,8.445,61.6779,-0.1082,-0.0088,0.3211,355.77
18:27:12:784,-0.3106,0.445,8.3436,61.729,-0.0358,-0.0834,0.3541,355.42
18:27:12:801,-0.1316,0.7434,8.215,61.6113,-0.0071,-0.1574,0.3871,355.05
18:27:12:822,0.1456,1.1339,8.1952,61.2917,-0.0406,-0.1425,0.3499,354.65
18:27:12:841,0.1576,1.2649,8.2858,60.9454,-0.0907,-0.1121,0.2887,354.29
18:27:12:861,0.0465,1.3104,8.506,60.4474,-0.096,-0.1212,0.2498,354
18:27:12:884,0.0528,1.3807,8.6024,60.3541,-0.0726,-0.1451,0.236,353.73
18:27:12:902,0.1324,1.4655,8.7519,60.22,-0.0646,-0.1563,0.2301,353.5
18:27:12:922,0.2369,1.5767,9.0712,60.2136,-0.0417,-0.1473,0.2344,353.27
18:27:12:941,0.4775,1.7506,9.2661,60.088,0.0014,-0.1377,0.2306,353.04
18:27:12:961,0.5907,1.9767,9.3239,60.2993,0.0323,-0.144,0.1891,352.81
18:27:12:984,0.5467,1.9998,9.316,60.1065,0.0014,-0.1472,0.1508,352.61
18:27:13:001,0.6982,1.8588,9.7412,59.8148,-0.0667,-0.1286,0.1029,352.48
18:27:13:021,0.6162,1.5791,10.3802,59.5002,-0.0885,-0.1425,0.0662,352.4
18:27:13:041,0.6136,1.2528,11.0507,59.3524,-0.0646,-0.1302,0.072,352.36
18:27:13:062,0.4688,0.9934,11.7433,59.1793,0.069,-0.143,0.1322,352.31
18:27:13:084,0.5257,1.1481,11.3503,59.0415,0.1888,-0.0908,0.2621,352.19
18:27:13:101,1.3142,1.481,10.1462,59.0282,0.0088,-0.1052,0.2253,351.92
18:27:13:121,1.8957,1.1693,10.5333,59.0142,-0.3329,-0.1973,-0.0025,351.7
18:27:13:142,1.7591,0.0379,12.3195,59.2787,-0.4761,-0.2803,-0.1963,351.74
18:27:13:161,1.315,-1.1536,13.9585,59.4267,-0.2786,-0.225,-0.1979,352.01
18:27:13:184,1.0278,-1.6036,14.203,59.4463,0.1558,-0.0434,-0.0563,352.28
18:27:13:202,1.2024,-1.1111,11.9913,59.2386,0.5236,0.0524,0.0374,352.37
18:27:13:222,1.5486,-0.4637,9.7081,58.9262,0.5997,-0.0232,-0.0307,352.35
18:27:13:241,1.6037,0.0118,8.1452,58.6981,0.4187,-0.0834,-0.1441,352.4
18:27:13:261,1.5236,0.1454,7.784,58.9124,0.1212,-0.0583,-0.25,352.6
18:27:13:284,1.1748,-0.0345,8.3155,58.7571,-0.0657,0.0305,-0.2931,352.92
18:27:13:302,0.5391,-0.0804,8.611,58.7764,-0.0912,0.0891,-0.234,353.27
18:27:13:321,0.3051,0.1534,8.3092,58.8664,-0.0571,0.0981,-0.1217,353.55
18:27:13:341,0.514,0.587,7.7496,58.871,-0.0593,0.0811,-0.076,353.7
18:27:13:361,0.5321,0.899,7.1916,58.6085,-0.1306,0.0768,-0.101,353.8
18:27:13:384,0.4019,1.0051,7.0749,58.9712,-0.2291,0.0859,-0.1414,353.92
18:27:13:401,0.1933,0.9912,7.4661,58.9302,-0.2227,0.0486,-0.1574,354.1
18:27:13:422,0.053,1.0806,7.3846,59.1874,-0.179,0.0832,-0.1175,354.27
18:27:13:441,0.1288,1.2631,7.2981,59.5487,-0.2307,0.1423,-0.0722,354.42
18:27:13:462,0.2596,1.3323,7.5239,59.441,-0.2871,0.194,-0.0765,354.51
18:27:13:484,0.0238,1.1721,8.1664,59.4916,-0.3079,0.2142,-0.0621,354.6
18:27:13:501,0.0541,1.0568,8.6873,59.7354,-0.2882,0.2126,0.0167,354.67
18:27:13:521,0.3789,1.1587,9.6277,59.481,-0.1865,0.1764,0.0507,354.66
18:27:13:542,0.3814,1.1981,9.8572,59.3978,-0.0188,0.1764,0.1178,354.61
18:27:13:561,0.4452,1.5059,9.6091,59.6795,0.0504,0.2083,0.2051,354.48
18:27:13:584,0.6261,1.8837,9.5525,59.4858,0.0498,0.2578,0.2647,354.25
18:27:13:602,0.5531,2.1658,9.7869,59.0844,0.1095,0.2525,0.2988,353.95
18:27:13:622,0.6902,2.3327,9.4941,59.3068,0.1095,0.2078,0.2903,353.61
18:27:13:641,0.8837,2.0768,9.8015,58.8377,-0.0119,0.1812,0.1902,353.28
18:27:13:661,0.5504,1.276,10.8283,58.3697,-0.0028,0.1583,0.1269,353.07
18:27:13:684,-0.0247,0.7049,11.114,58.144,0.0871,0.1817,0.2147,352.93
18:27:13:702,-0.0311,0.9871,10.8854,57.712,0.1467,0.2813,0.3861,352.69
18:27:13:721,0.6736,1.4274,10.2784,57.4137,0.0557,0.277,0.3765,352.25
18:27:13:741,0.7329,1.4219,10.4974,56.9553,-0.1295,0.2126,0.2402,351.82
18:27:13:761,0.2536,0.8359,11.1626,56.8134,-0.2743,0.228,0.1364,351.54
18:27:13:784,-0.1564,0.0435,11.5446,56.609,-0.3888,0.2397,0.0901,351.39
18:27:13:864,-0.5182,-0.8686,12.0141,56.41,-0.4447,0.1455,0.0454,351.29
18:27:13:865,-0.9212,-1.7143,12.8048,56.3206,-0.261,-0.003,0.064,351.25
18:27:13:865,-1.3623,-2.0776,12.6203,56.3264,0.1111,-0.0892,0.2024,351.2
18:27:13:865,-1.2872,-1.495,11.1179,56.0755,0.3575,-0.0024,0.3728,350.98
18:27:13:885,-0.8734,-0.6043,9.1365,56.0066,0.2676,0.0673,0.4132,350.59
18:27:13:901,-0.3365,-0.1513,8.6924,55.7396,0.0275,0.0061,0.2679,350.13
18:27:13:921,-0.4444,-0.4576,9.3374,55.5348,-0.0598,-0.151,0.1119,349.84
18:27:13:941,-0.689,-0.6672,9.7301,55.2147,0.019,-0.2649,0.0694,349.74
18:27:13:961,-0.7695,-0.7073,9.3683,54.8981,0.0791,-0.085,0.1742,349.7
18:27:13:984,-0.2808,-0.4774,8.8485,54.5556,0.0781,0.2429,0.2674,349.52
18:27:14:001,0.4257,0.0942,8.2326,54.0812,0.1116,0.393,0.245,349.22
18:27:14:021,0.8561,0.3483,7.7938,53.831,0.2399,0.3143,0.0869,348.93
18:27:14:041,-0.1247,0.9171,6.622,53.6816,0.258,0.1407,0.0135,348.83
18:27:14:061,-0.793,0.9219,6.0247,53.5814,0.0775,-0.053,0.0364,348.82
18:27:14:084,-1.2385,0.7579,7.0912,53.3828,-0.0939,-0.2095,0.2615,348.8
18:27:14:102,0.132,1.5506,8.2702,53.4376,-0.1812,0.2882,0.3467,348.54
18:27:14:121,0.7895,1.3015,8.3038,53.1386,-0.3414,0.7646,0.2695,348.13
18:27:14:142,0.6313,1.4961,8.1347,52.9072,-0.4824,0.8945,0.1412,347.79
18:27:14:161,0.143,1.6329,7.7875,52.8184,-0.525,0.2648,-0.0536,347.59
18:27:14:184,-0.0994,1.6267,8.2857,52.8467,-0.5038,-0.481,-0.2229,347.66
18:27:14:201,0.2758,1.2195,9.5172,52.9874,-0.516,-0.6939,-0.3453,347.95
18:27:14:221,0.7444,1.2531,11.345,52.9982,-0.3808,-0.3288,-0.4502,348.38
18:27:14:242,1.6481,0.6413,12.8206,53.0745,0.1787,0.7918,-0.8526,348.92
18:27:14:262,0.3464,1.3533,12.4101,53.2664,0.9538,0.7119,-0.8303,349.9
18:27:14:285,-0.5387,0.7632,10.5733,53.668,1.139,-0.1355,-0.7515,350.85
18:27:14:302,-1.4526,-0.4745,10.5799,53.7821,0.9191,0.0981,-0.6727,351.74
18:27:14:321,-1.6029,-0.9299,10.4727,53.9074,0.6982,0.5219,-0.1606,352.51
18:27:14:342,-1.0355,0.5767,9.5619,53.7444,0.1765,0.26,0.3057,352.67
18:27:14:361,-0.4402,1.8184,9.3953,53.8157,-0.5133,-0.0019,0.343,352.31
18:27:14:385,-0.0384,1.3621,10.1531,53.4182,-0.9546,-0.439,0.0704,351.93
18:27:14:403,-0.3858,-0.271,11.6508,53.4552,-0.8993,-0.8462,-0.1824,351.9
18:27:14:421,-0.9809,-2.1131,13.5136,53.5242,-0.311,-0.5257,-0.1904,352.18
18:27:14:441,0.3845,-1.7025,12.8896,53.4621,0.629,-0.1329,-0.2452,352.43
18:27:14:461,1.1727,-0.0772,11.3595,53.5984,1.3157,0.0364,-0.489,352.74
18:27:14:485,0.5769,0.686,8.9568,53.8199,1.3503,-0.3772,-0.7009,353.31
18:27:14:502,-1.1802,0.7277,6.7559,53.9221,0.5034,-1.1618,-0.4827,354.16
18:27:14:521,-0.9456,-0.1792,8.4132,54.0597,-0.3121,-0.6583,-0.307,354.87
18:27:14:541,-1.3852,-0.8477,10.1144,54.4896,-0.5756,0.055,-0.0882,355.31
18:27:14:561,-2.0386,-0.9977,10.6218,54.6739,-0.3371,0.2445,0.2493,355.42
18:27:14:582,-0.9818,0.087,9.7426,54.8622,0.0344,0.4362,0.426,355.13
18:27:14:601,-0.4894,0.7593,8.1831,54.8376,0.1531,0.3255,0.3169,354.61
18:27:14:621,-0.7121,1.2472,6.7294,54.4939,-0.031,0.2467,0.1646,354.23
18:27:14:641,-1.0079,1.2657,6.5816,53.9474,-0.3206,0.1008,0.0859,354.04
18:27:14:662,-1.0059,0.898,7.2555,53.7218,-0.4319,0.1562,0.1295,353.94
18:27:14:685,-0.7195,0.8021,8.0784,53.4935,-0.4713,0.4292,0.2477,353.8
18:27:14:702,-0.5735,1.1618,8.3787,53.0943,-0.3467,0.4612,0.2152,353.49
18:27:14:721,-0.5424,1.4948,7.8926,53.1584,-0.2397,0.2946,0.0997,353.23
18:27:14:741,1.5515,1.1971,7.8943,52.8841,-0.245,0.0753,-0.2495,353.11
18:27:14:761,-1.3356,1.6186,8.836,52.9346,-0.1215,-0.0008,-0.3448,353.41
18:27:14:781,-1.1944,1.0132,9.0038,53.3501,-0.0747,0.054,-0.0728,353.81
18:27:14:802,-0.7876,0.7082,8.8268,53.176,-0.1625,0.1934,0.0752,353.91
18:27:14:822,-0.9721,0.8636,9.4012,53.0889,-0.1716,0.0896,0.2631,353.83
18:27:14:841,-0.5967,0.9181,10.0367,53.0551,-0.0124,0.0753,0.4473,353.54
18:27:14:861,-0.3745,1.4316,10.4293,52.6622,0.1132,0.0337,0.4984,353.03
18:27:14:881,-0.166,1.3913,10.4553,52.2826,0.1702,-0.0259,0.4755,352.48
18:27:14:903,0.0175,1.1806,10.5166,51.8629,0.1308,-0.0961,0.4063,351.95
18:27:14:921,-0.1231,0.656,11.0002,51.7583,0.1238,-0.2521,0.3925,351.5
18:27:14:941,-0.4132,0.365,11.1271,51.313,0.1292,-0.3069,0.5282,351.08
18:27:14:961,-0.2715,0.5445,10.8227,51.3405,0.0163,-0.0972,0.7443,350.5
18:27:14:985,0.6041,1.2563,10.7039,50.9051,-0.1758,0.0673,0.6453,349.67
18:27:15:003,1.0116,1.5454,11.4011,50.6048,-0.3265,0.1572,0.2083,348.94
18:27:15:021,0.6612,0.4911,12.1694,50.0571,-0.4441,0.3936,-0.0941,348.71
18:27:15:041,-0.3258,-0.8436,12.4743,49.8693,-0.4792,0.6049,-0.1366,348.81
18:27:15:062,-1.0604,-1.536,12.7884,49.3552,-0.1423,0.664,-0.0685,348.96
18:27:15:081,-1.1682,-1.3165,11.19,49.4319,0.3144,0.6033,-0.0648,349.03
18:27:15:102,-0.9074,-0.9931,8.7686,48.9931,0.3442,0.3159,-0.1047,349.1
18:27:15:121,-1.1557,-0.9107,7.6416,48.8125,0.0179,0.0135,-0.1867,349.23
18:27:15:142,-1.2036,-0.8485,7.9605,48.5867,-0.351,-0.2117,-0.225,349.45
18:27:15:161,-1.3701,-1.0825,8.8835,48.5651,-0.558,-0.3458,-0.242,349.73
18:27:15:181,-1.5826,-1.2197,9.5861,48.9693,-0.5756,-0.3277,-0.1808,350.03
18:27:15:202,-1.8223,-1.2428,9.7038,49.3266,-0.475,-0.2665,-0.0515,350.25
18:27:15:222,-1.8066,-1.0702,9.401,49.5,-0.3142,-0.2228,0.121,350.33
18:27:15:241,-1.2728,-0.7215,8.8005,49.6157,-0.1881,-0.1951,0.2285,350.2
18:27:15:261,-0.5942,-0.3312,8.2103,49.3227,-0.1945,-0.1664,0.2237,349.94
18:27:15:281,-0.4687,-0.0965,8.3764,49.1947,-0.2019,-0.201,0.1487,349.7
18:27:15:302,-0.8903,-0.226,8.8568,49.6386,-0.0656,-0.2851,0.1183,349.53
18:27:15:321,-1.3132,-0.3946,8.774,49.5727,0.1089,-0.2798,0.2243,349.4
18:27:15:341,-1.0477,-0.175,8.43,49.807,0.1542,-0.1621,0.3573,349.15
18:27:15:362,-0.4491,0.3951,8.1952,49.8815,0.0925,-0.045,0.3605,348.75
18:27:15:386,-0.02,0.8298,8.2853,49.3922,-0.0007,-0.0243,0.2269,348.35
18:27:15:403,-0.0501,0.8904,8.8042,49.0525,-0.0225,-0.0876,0.0811,348.1
18:27:15:421,-0.0358,0.7421,9.498,48.8207,0.0589,-0.0897,-0.0243,348.02
18:27:15:441,-0.2567,0.5535,9.6838,48.5121,0.1702,-0.0285,-0.0669,348.05
18:27:15:462,-0.5527,0.4843,9.6763,48.3826,0.2532,0.0625,-0.0185,348.14
18:27:15:481,-0.5431,0.6975,9.5135,48.284,0.2676,0.1684,0.0284,348.18
18:27:15:503,-0.3967,0.9324,9.383,48.1519,0.2213,0.2051,0.022,348.16
18:27:15:521,-0.2481,1.1069,9.5388,48.1825,0.1531,0.1269,-0.0701,348.14
18:27:15:542,-0.3806,0.9139,9.8474,48.0009,0.1318,-0.0812,-0.1718,348.24
18:27:15:561,-0.7481,0.3475,10.7348,47.7112,0.159,-0.2228,-0.1345,348.44
18:27:15:581,-0.4656,0.1849,10.9922,47.8656,0.1515,-0.144,-0.0078,348.61
18:27:15:603,0.6399,0.305,10.1929,47.6142,-0.1231,-0.069,-0.0728,348.64
18:27:15:622,1.1232,-0.0652,10.8002,47.7209,-0.5916,-0.0003,-0.3331,348.73
18:27:15:641,0.3157,-0.8568,12.5319,47.8527,-0.7513,0.013,-0.521,349.13
18:27:15:661,-0.6912,-1.8441,13.7929,48.2441,-0.4942,-0.0344,-0.481,349.73
18:27:15:681,-0.8455,-2.2391,13.648,48.6044,-0.0821,-0.044,-0.3059,350.3
18:27:15:703,-0.3762,-2.1991,12.3745,48.7696,0.2133,-0.0003,-0.1829,350.66
18:27:15:721,0.263,-2.0151,10.9483,49.0203,0.3458,0.0614,-0.1334,350.88
18:27:15:741,0.8019,-1.6596,9.7914,48.872,0.3948,0.1274,-0.1526,351.04
18:27:15:761,0.9169,-1.2424,8.4942,48.7774,0.3336,0.1157,-0.2372,351.23
18:27:15:786,0.6473,-0.9742,7.7197,48.8532,0.1617,0.038,-0.3256,351.52
18:27:15:803,0.1324,-0.9238,7.6738,48.9001,-0.0124,-0.0243,-0.3512,351.9
18:27:15:821,-0.2852,-0.7864,7.7414,49.0154,-0.1343,-0.045,-0.2969,352.31
18:27:15:841,-0.4294,-0.5878,7.8611,49.2546,-0.1929,-0.0567,-0.2309,352.67
18:27:15:861,-0.4003,-0.4227,7.9583,49.355,-0.2067,-0.0445,-0.1659,352.94
18:27:15:919,-0.3207,-0.0984,8.2348,49.5123,-0.13,-0.011,-0.1297,353.14
18:27:15:919,-0.385,0.303,8.2988,49.6968,0.0291,0.0045,-0.1223,353.3
18:27:15:921,-0.4115,0.6202,7.8408,49.6756,0.1558,0.0337,-0.1382,353.45
18:27:15:941,-0.4662,0.9053,7.3333,49.5859,0.1058,0.1067,-0.1718,353.62
18:27:15:961,-0.6037,1.0058,7.3163,49.6287,-0.0486,0.2658,-0.1899,353.82
18:27:15:981,-0.8988,0.982,7.4924,49.7523,-0.1721,0.3553,-0.1808,354.05
18:27:16:002,-1.0911,0.804,7.8696,49.7234,-0.2472,0.3196,-0.1409,354.27
18:27:16:021,-1.2633,0.5903,8.6539,49.3078,-0.2062,0.2068,-0.0589,354.45
18:27:16:041,-1.1462,0.4637,9.4556,49.4603,-0.0757,0.1109,0.0486,354.54
18:27:16:061,-0.9834,0.486,10.0432,49.3825,0.0861,0.088,0.1737,354.49
18:27:16:081,-0.7167,0.8165,10.007,49.5286,0.1771,0.1514,0.2865,354.31
18:27:16:103,-0.3972,1.3167,9.7783,49.4662,0.1494,0.2435,0.3382,353.99
18:27:16:122,-0.0933,1.6329,9.8833,49.2697,0.1036,0.2238,0.3084,353.62
18:27:16:141,-0.0287,1.4666,10.3057,49.0218,0.1052,0.0833,0.2232,353.28
18:27:16:161,-0.2325,0.8587,10.9361,48.3638,0.1398,-0.0381,0.1471,353.04
18:27:16:186,-0.7493,0.0665,11.4604,48.2569,0.1947,-0.0046,0.1785,352.88
18:27:16:203,-1.1241,-0.1502,11.1923,47.8368,0.1782,0.0683,0.3094,352.69
18:27:16:222,-0.6994,-0.0047,10.7426,47.4396,-0.0034,0.0492,0.3584,352.34
18:27:16:241,-0.1269,0.2551,11.1109,47.2614,-0.2706,0.0029,0.2312,351.94
18:27:16:262,0.1035,-0.2309,11.8799,47.0738,-0.4377,-0.0024,-0.0318,351.69
18:27:16:281,-0.7893,-1.3686,12.5005,46.8392,-0.4138,-0.0211,-0.1904,351.74
18:27:16:303,-1.9981,-2.271,12.7019,46.9803,-0.1455,0.0093,-0.0722,351.97
18:27:16:321,-2.4585,-2.4592,11.2925,47.1688,0.1356,0.0316,0.2519,352.06
18:27:16:343,-1.7752,-1.6935,9.7316,46.704,0.1925,-0.0003,0.4723,351.78
18:27:16:361,-1.0327,-0.8159,8.8259,46.3716,0.0951,-0.0562,0.45,351.25
18:27:16:381,-0.6423,-0.4509,8.3954,45.6649,-0.0795,-0.1291,0.2929,350.75
18:27:16:403,-0.6784,-0.575,8.5823,45.3789,-0.2599,-0.2478,0.1077,350.42
18:27:16:422,-0.9741,-0.9136,9.2521,45.068,-0.3243,-0.2963,-0.0099,350.3
18:27:16:441,-1.2895,-1.1576,9.6974,45.2937,-0.3052,-0.1808,-0.0099,350.32
18:27:16:461,-1.4959,-1.1871,9.5371,45.335,-0.2147,-0.0354,0.0624,350.33
18:27:16:481,-1.5314,-1.0892,9.3807,45.6853,-0.0193,-0.0924,0.1492,350.27
18:27:16:502,-1.5549,-0.7742,8.9322,45.6829,0.2479,-0.3208,0.2291,350.11
18:27:16:521,-1.3736,-0.5151,8.2841,45.5683,0.3927,-0.4251,0.3142,349.85
18:27:16:541,-1.1408,-0.2231,7.6313,45.7957,0.3783,-0.3421,0.4446,349.48
18:27:16:561,-0.5121,0.3436,7.3541,45.5815,0.3086,-0.2127,0.5064,348.98
18:27:16:582,0.1725,0.8394,7.0529,45.4253,0.1893,-0.1318,0.4356,348.41
18:27:16:602,0.3897,1.1433,7.1017,45.2429,0.0041,-0.0993,0.2727,347.92
18:27:16:621,0.1437,0.9284,7.9663,44.8974,-0.1023,-0.1254,0.1279,347.62
18:27:16:641,-0.4916,0.5875,9.0401,44.5998,-0.0167,-0.201,0.1061,347.48
18:27:16:662,-0.7124,0.4827,9.5613,44.4173,0.184,-0.2638,0.1955,347.37
18:27:16:681,-0.4261,0.7988,9.2178,44.1619,0.2617,-0.2319,0.2588,347.15
18:27:16:703,-0.3022,1.0431,9.7645,44.0054,0.3171,-0.2393,0.2504,346.87
18:27:16:722,-0.1819,1.283,10.0655,43.9668,0.4449,-0.2787,0.2067,346.6
18:27:16:742,-0.0305,1.4984,9.5411,43.8297,0.3533,-0.1983,0.1231,346.37
18:27:16:761,0.0039,1.4294,9.6788,43.698,0.0525,-0.012,0.0422,346.25
18:27:16:781,-0.2295,0.9882,11.0287,43.5068,-0.104,0.0891,-0.0382,346.21
18:27:16:803,-0.8527,0.4349,12.2088,43.1785,0.0243,0.0635,0.0113,346.27
18:27:16:822,-0.6267,0.2426,11.5492,42.9423,0.109,0.0577,0.0986,346.26
18:27:16:841,-0.0303,0.1481,10.8443,42.7457,-0.1806,0.2392,0.097,346.16
18:27:16:861,0.5057,-0.1061,10.7848,42.7021,-0.5937,0.4862,-0.011,346.05
18:27:16:881,0.5742,-0.6333,11.6864,42.7166,-0.8024,0.4915,-0.1957,346.07
18:27:16:903,-0.0089,-1.6764,12.6316,43.1189,-0.6022,0.3169,-0.2734,346.3
18:27:16:922,-0.5089,-2.1897,12.5212,43.3842,-0.1763,0.153,-0.1361,346.63
18:27:16:941,-0.0403,-2.1974,11.4734,43.8575,0.1622,0.0497,0.0449,346.81
18:27:16:961,1.0032,-1.5738,10.0537,43.6964,0.2378,0.0156,0.0624,346.77
18:27:16:981,1.5214,-0.9888,9.0247,43.6099,0.1004,0.0071,-0.0956,346.71
18:27:17:001,1.3637,-0.8727,8.7164,43.2338,-0.0986,0.0061,-0.2915,346.83
18:27:17:021,0.7451,-1.078,8.8168,42.9957,-0.2131,-0.0152,-0.3788,347.17
18:27:17:043,0.2355,-1.0338,8.8723,43.0158,-0.1785,-0.0429,-0.3405,347.62
18:27:17:061,0.1176,-0.7965,8.5099,43.3226,-0.0709,-0.0679,-0.2564,348.02
18:27:17:081,0.115,-0.5064,8.0534,43.3028,-0.0124,-0.0674,-0.1829,348.33
18:27:17:102,0.2548,-0.1828,7.8716,43.7511,0.0323,-0.0418,-0.143,348.55
18:27:17:121,0.347,0.1898,7.7175,44.3127,0.1095,0.022,-0.1478,348.72
18:27:17:141,0.286,0.5054,7.403,44.7578,0.1739,0.0678,-0.1963,348.9
18:27:17:161,-0.0022,0.6704,6.9798,45.1218,0.1707,0.0982,-0.2474,349.14
18:27:17:181,-0.3717,0.7926,6.9041,45.3332,0.1036,0.0715,-0.2687,349.44
18:27:17:202,-0.729,0.8409,7.5205,45.3054,0.0861,-0.045,-0.241,349.76
18:27:17:222,-1.0186,0.9671,8.6411,45.297,0.2388,-0.2489,-0.1595,350.05
18:27:17:241,-0.9389,1.1912,9.1146,45.1072,0.4379,-0.3713,-0.0445,350.24
18:27:17:261,-0.5199,1.5341,9.1715,45.0244,0.4422,-0.1941,0.0497,350.3
18:27:17:281,0.1966,1.9357,9.516,45.3916,0.2979,0.1285,0.0193,350.26
18:27:17:303,0.2032,1.7798,9.7882,45.5541,0.1643,0.3915,-0.0871,350.25
18:27:17:321,-0.3892,1.1294,10.2126,45.6812,0.1505,0.3579,-0.1015,350.35
18:27:17:341,-0.7339,0.4747,10.5562,45.6748,0.2165,0.1296,-0.027,350.47
18:27:17:361,-0.8788,0.0246,11.0213,45.9806,0.3421,-0.1137,0.1029,350.51
18:27:17:382,-0.7191,0.1501,10.856,45.9623,0.3735,-0.1579,0.2184,350.41
18:27:17:403,-0.2095,0.4742,10.218,45.7238,0.0839,0.0077,0.2349,350.18
18:27:17:421,0.5453,0.3801,10.25,45.5471,-0.4287,0.1061,0.0614,349.92
18:27:17:441,0.6393,-0.6379,12.0764,45.7029,-0.7832,0.0167,-0.2357,349.86
18:27:17:461,-0.7866,-2.0056,14.3817,45.7987,-0.6395,-0.1754,-0.3517,350.14
18:27:17:481,-2.0303,-3.1412,15.0979,46.2357,-0.0135,-0.1999,-0.118,350.56
18:27:17:503,-2.4108,-2.9927,12.4064,46.7835,0.4193,0.0391,0.3217,350.7
18:27:17:522,-1.75,-1.6738,9.3782,46.9907,0.282,0.2083,0.5777,350.35
18:27:17:541,-0.9526,-0.4957,8.2995,46.9676,-0.0662,0.2392,0.5511,349.69
18:27:17:562,-0.6692,-0.0756,8.6019,46.9961,-0.3126,0.1178,0.3627,349.07
18:27:17:581,-0.8956,-0.2876,9.4403,46.5305,-0.3137,-0.0807,0.2094,348.66
18:27:17:603,-1.2287,-0.4996,9.6763,46.0769,-0.2046,-0.1504,0.1588,348.44
18:27:17:622,-1.2944,-0.6153,9.518,46.0116,-0.1423,-0.0094,0.2046,348.27
18:27:17:641,-1.0167,-0.546,9.1757,45.8958,-0.0832,0.17,0.2567,348.05
18:27:17:661,-0.6986,-0.2793,8.743,45.8273,0.0121,0.2493,0.2477,347.76
18:27:17:681,-0.905,-0.1749,8.2738,45.8483,0.1414,0.1551,0.2264,347.49
18:27:17:703,-0.9774,-0.1796,7.9556,45.8055,0.3043,-0.0323,0.2652,347.25
18:27:17:721,-0.7339,0.1054,7.4812,45.9178,0.3746,-0.1664,0.2775,346.95
18:27:17:741,-0.5245,0.4458,7.0297,45.6798,0.2681,-0.1903,0.2306,346.65
18:27:17:761,-0.4496,0.5992,7.1325,45.5819,0.085,-0.1243,0.1721,346.4
18:27:17:781,-0.4316,0.7255,7.6857,45.2716,-0.0326,-0.0684,0.1252,346.22
18:27:17:803,-0.1986,0.8858,8.1722,45.4932,-0.0331,-0.0738,0.064,346.09
18:27:17:822,-0.1553,1.0209,8.4506,45.6105,0.0078,-0.1334,-0.0046,346.04
18:27:17:841,-0.1212,1.0879,9.1457,45.4994,0.093,-0.2148,-0.0648,346.06
18:27:17:862,-0.2554,1.0779,9.6131,45.1971,0.2282,-0.2595,-0.069,346.15
18:27:17:881,-0.1205,1.3155,9.6185,45.2169,0.2857,-0.1866,-0.0477,346.25
18:27:17:903,0.1361,1.7738,9.1914,45.225,0.1787,-0.0312,-0.084,346.32
18:27:17:972,0.3304,1.8915,9.3282,45.5308,-0.0182,0.0471,-0.2106,346.43
18:27:17:973,0.0497,1.3877,10.2301,45.8057,-0.0656,-0.0621,-0.3411,346.69
18:27:17:973,-0.4764,0.4947,11.1186,46.1724,0.028,-0.2537,-0.3432,347.09
18:27:17:984,-0.6489,0.0436,11.4998,46.5991,0.1553,-0.2894,-0.2048,347.51
18:27:18:002,0.18,0.1706,10.3211,46.7442,0.0531,-0.2952,-0.1452,347.77
18:27:18:021,1.2268,0.1689,10.0884,46.9685,-0.476,-0.3085,-0.3304,347.96
18:27:18:041,1.0686,-0.6301,12.6646,47.2759,-0.7992,-0.1398,-0.562,348.36
18:27:18:061,-0.3293,-1.5542,14.3199,47.4316,-0.5788,0.0327,-0.57,349.03
18:27:18:081,-1.2155,-2.2334,14.0056,47.9992,-0.0763,0.1365,-0.2958,349.69
18:27:18:103,-0.7585,-1.8087,11.7922,48.3601,0.2362,0.1615,-0.0004,350.04
18:27:18:121,0.8186,-1.0748,10.0545,48.7925,0.2378,0.1455,0.0385,350.05
18:27:18:141,1.829,-0.4992,9.1346,48.9136,0.0605,0.1801,-0.1829,350.02
18:27:18:161,1.5549,-0.3767,8.6294,48.7829,-0.1646,0.2387,-0.4677,350.24
18:27:18:182,0.5177,-0.7629,8.412,49.0865,-0.3281,0.2871,-0.5716,350.79
18:27:18:203,-0.333,-0.9457,8.2571,49.167,-0.4015,0.3042,-0.4768,351.45
18:27:18:221,-0.4442,-0.742,8.3065,49.5449,-0.3664,0.2366,-0.3278,352.01
18:27:18:241,-0.1737,-0.4341,8.4112,49.961,-0.2503,0.1232,-0.2484,352.4
18:27:18:261,-0.028,-0.0821,8.708,50.032,-0.0534,0.0497,-0.2202,352.7
18:27:18:281,-0.0123,0.1529,8.6745,50.4493,0.2154,0.03,-0.1909,352.96
18:27:18:303,-0.0865,0.4797,7.7782,50.0655,0.3751,0.0401,-0.1521,353.2
18:27:18:321,-0.0541,0.9081,7.0695,49.9053,0.3938,0.0519,-0.118,353.38
18:27:18:342,0.1728,1.3455,6.808,49.988,0.3267,0.0646,-0.1505,353.53
18:27:18:361,0.3777,1.645,6.9433,50.1234,0.2101,0.128,-0.2633,353.72
18:27:18:381,0.1874,1.5793,7.4475,50.2701,0.0989,0.1461,-0.4177,354.03
18:27:18:402,-0.6353,0.978,8.199,50.5245,0.0786,0.0486,-0.4699,354.52
18:27:18:422,-1.3533,0.5758,9.0818,50.7552,0.1515,-0.1339,-0.3693,355.07
18:27:18:441,-1.3649,0.5426,9.9901,50.7026,0.2916,-0.2351,-0.2106,355.51
18:27:18:461,-1.2787,0.8774,10.2833,51.0073,0.3879,-0.0982,-0.0515,355.77
18:27:18:481,-1.0668,1.3873,9.9275,51.2139,0.3379,0.1913,0.0715,355.84
18:27:18:503,-0.6479,1.763,9.4867,51.0399,0.142,0.3664,0.0997,355.77
18:27:18:521,-0.4618,1.6846,10.0302,51.0385,0.0126,0.2531,0.0182,355.65
18:27:18:541,-0.8698,1.0226,11.1358,50.8844,0.077,0.0274,-0.0366,355.63
18:27:18:561,-1.4413,0.3949,11.7858,50.659,0.1963,0.0508,0.0715,355.64
18:27:18:581,-1.5218,0.4803,11.0807,50.3311,0.1654,0.276,0.3041,355.69
18:27:18:603,-1.0363,1.2401,10.1354,50.2233,-0.1407,0.3409,0.3973,355.69
18:27:18:621,-0.336,1.3265,11.0482,50.0867,-0.418,0.2951,0.2796,355.35
18:27:18:641,-0.1014,0.6763,12.0932,49.7474,-0.558,0.2126,0.0555,354.87
18:27:18:661,-0.8495,-0.78,12.8798,49.6894,-0.5074,0.0183,-0.0935,354.51
18:27:18:681,-1.5801,-2.2311,13.6692,49.6345,-0.1758,-0.2271,0.0028,354.36
18:27:18:703,-1.5354,-2.7365,13.0322,49.7097,0.2814,-0.1456,0.2642,354.35
18:27:18:721,-1.113,-2.1081,10.1772,49.4991,0.381,0.1258,0.4755,354.38
18:27:18:741,-0.6425,-1.1204,7.8585,49.1634,0.0914,0.2419,0.467,354.19
18:27:18:761,-0.334,-0.541,7.2276,48.6851,-0.3009,0.17,0.3041,353.69
18:27:18:781,-0.453,-0.5487,7.9384,48.2311,-0.5223,-0.0296,0.096,353.12
18:27:18:803,-1.1221,-0.9642,8.9184,47.9819,-0.4984,-0.2553,0.0145,352.69
18:27:18:822,-1.7783,-1.2041,9.4871,47.8123,-0.3105,-0.3479,0.1215,352.49
18:27:18:841,-1.8457,-1.1414,9.2133,47.5294,-0.1284,-0.3197,0.3201,352.43
18:27:18:861,-1.3946,-0.6925,8.5753,47.7313,-0.0214,-0.2516,0.4819,352.31
18:27:18:881,-0.7736,-0.0806,7.9572,47.6201,0.0515,-0.2516,0.5176,351.97
18:27:18:903,-0.3949,0.3375,7.5966,47.3373,0.0893,-0.2947,0.4484,351.42
18:27:18:921,-0.3189,0.5512,7.516,46.7148,0.1319,-0.3229,0.3627,350.81
18:27:18:941,-0.1845,0.7208,7.2884,46.5157,0.1037,-0.2984,0.269,350.29
18:27:18:961,-0.0545,0.8449,7.4197,46.3987,-0.0049,-0.1824,0.1439,349.88
18:27:18:981,-0.1379,0.8065,7.7593,46.4308,-0.105,-0.0887,0.0236,349.62
18:27:19:003,-0.334,0.642,8.3195,46.3008,-0.1641,-0.0599,-0.0669,349.48
18:27:19:021,-0.3713,0.4912,9.1127,46.5613,-0.1141,-0.0243,-0.1095,349.47
18:27:19:041,-0.2371,0.5932,9.3769,46.46,-0.0214,0.12,-0.151,349.56
18:27:19:062,-0.3979,0.9233,8.9543,46.246,0.0116,0.2861,-0.1995,349.75
18:27:19:081,-0.6498,1.2771,9.0954,45.9605,0.0456,0.4069,-0.2399,349.99
18:27:19:103,-0.4942,1.2449,9.5643,45.7709,0.1228,0.4969,-0.3086,350.27
18:27:19:121,-0.5865,0.7111,9.1958,45.3852,0.1052,0.3744,-0.3879,350.59
18:27:19:142,-1.1679,0.018,9.6517,45.3526,-0.1231,0.0843,-0.3767,350.89
18:27:19:161,-1.3928,-0.8945,12.3845,45.2256,-0.113,-0.1579,-0.1995,351.21
18:27:19:181,-0.8883,-1.2231,13.213,45.0171,0.1484,-0.2122,0.0672,351.54
18:27:19:203,0.2821,-0.3481,12.1501,44.9938,0.0179,-0.1217,0.1071,351.76
18:27:19:222,1.2616,0.0292,12.3162,44.9387,-0.3541,0.0625,-0.1595,351.71
18:27:19:241,0.9896,-0.5978,13.4501,44.8514,-0.5325,0.1493,-0.464,351.66
18:27:19:261,-0.4333,-1.7415,14.322,44.7555,-0.2855,0.055,-0.5231,351.87
18:27:19:281,-1.2878,-2.7359,14.118,45.2449,0.1755,-0.0258,-0.2596,352.37
18:27:19:303,-0.6595,-2.605,12.4008,45.1886,0.5897,-0.0456,0.0619,352.95
18:27:19:321,0.6376,-1.6467,9.9044,44.9394,0.6812,-0.0658,0.1433,353.24
18:27:19:341,1.4577,-0.8751,8.1142,44.943,0.4422,-0.07,-0.035,353.17
18:27:19:362,1.1297,-0.6894,7.7489,44.3904,0.1223,-0.0349,-0.2569,353
18:27:19:381,0.1181,-0.8868,7.6117,44.2579,-0.0603,-0.0663,-0.2974,353.05
18:27:19:404,-0.2692,-0.7034,7.8442,43.9839,-0.1109,-0.0743,-0.242,353.33
18:27:19:421,-0.1098,-0.4103,7.9982,43.777,-0.0661,-0.0471,-0.2287,353.67
18:27:19:441,-0.0509,-0.185,7.7353,44.0994,-0.0486,0.0087,-0.2586,353.96
18:27:19:462,-0.2208,0.0558,7.4355,44.2248,-0.0358,0.0332,-0.2729,354.24
18:27:19:481,-0.2362,0.3835,7.2703,44.2264,0.0211,0.0055,-0.2958,354.55
18:27:19:503,-0.3901,0.7281,6.7447,44.5425,0.0259,-0.0056,-0.3309,354.85
18:27:19:521,-0.576,0.836,7.0357,44.4706,-0.0273,0.0822,-0.3592,355.19
18:27:19:542,-0.7944,0.7844,7.149,44.2296,-0.0933,0.2041,-0.3501,355.6
18:27:19:561,-1.0109,0.785,7.216,44.1677,-0.2072,0.2286,-0.324,356.06
18:27:19:581,-1.3715,0.6714,7.7876,43.9974,-0.278,0.129,-0.2665,356.47
18:27:19:604,-1.5461,0.483,8.9198,43.9058,-0.1971,-0.028,-0.1436,356.81
18:27:19:622,-1.376,0.533,10.1344,43.9839,0.0153,-0.1297,-0.0201,357.05
18:27:19:641,-1.3332,0.679,10.4297,44.0928,0.241,-0.0993,0.1268,357.16
18:27:19:661,-1.1218,1.1958,9.8976,44.0144,0.2798,0.0295,0.2652,357.19
18:27:19:681,-0.7052,1.603,9.7028,43.9731,0.1809,0.1546,0.3073,357.1
18:27:19:703,-0.247,1.5159,9.9205,43.9802,0.0605,0.1466,0.2381,356.85
18:27:19:721,-0.1405,0.9689,10.797,43.6841,0.0137,0.0556,0.1061,356.49
18:27:19:741,-0.7026,0.1555,11.5346,43.6394,0.0584,0.0226,0.0821,356.18
18:27:19:761,-1.1336,-0.1729,11.4143,43.7324,0.0669,0.0593,0.1944,356.05
18:27:19:782,-0.857,0.1278,11.0584,43.5537,-0.097,0.1429,0.2759,355.97
18:27:19:803,-0.274,0.3067,11.3816,43.2456,-0.3344,0.1998,0.1966,355.78
18:27:19:821,-0.1721,-0.0633,12.2514,42.9841,-0.4361,0.1423,0.014,355.49
18:27:19:841,-0.892,-0.9894,13.1805,42.6808,-0.3328,0.0614,-0.0829,355.24
18:27:19:861,-1.6183,-1.8861,13.4884,42.6309,0.0249,0.0146,0.0268,355.19
18:27:19:881,-1.5725,-2.1685,11.7553,42.3939,0.3155,0.0407,0.2088,355.26
18:27:19:904,-1.1693,-1.8346,9.8549,42.4438,0.2857,0.0747,0.2929,355.23
18:27:19:921,-0.8696,-1.377,8.7191,42.2386,0.1063,0.0146,0.2828,355.01
18:27:19:941,-0.7363,-1.0579,8.4685,41.9781,-0.1007,-0.1078,0.2147,354.65
18:27:19:961,-0.7234,-1,9.0001,41.9077,-0.2179,-0.1994,0.1497,354.28
18:27:19:981,-0.7326,-0.9844,9.4924,41.7669,-0.2322,-0.1664,0.1242,354
18:27:20:035,-0.9311,-0.9377,9.5464,42.2161,-0.1689,-0.0615,0.1588,353.84
18:27:20:036,-1.0101,-0.669,9.121,42.3184,-0.056,-0.0019,0.2487,353.74
18:27:20:041,-0.8364,-0.3269,8.4903,42.4304,0.0712,0.0002,0.3137,353.58
18:27:20:061,-0.6354,0.008,7.8566,42.3929,0.1691,-0.0796,0.3403,353.3
18:27:20:081,-0.5342,0.2913,7.3733,42.1233,0.2218,-0.1781,0.3281,352.91
18:27:20:103,-0.5371,0.4979,7.1345,42.0298,0.2218,-0.2553,0.3009,352.48
18:27:20:122,-0.4149,0.7115,7.2323,42.1633,0.1697,-0.2569,0.2487,352.07
18:27:20:141,-0.4309,0.7885,7.4844,42.065,0.0994,-0.1595,0.1811,351.73
18:27:20:161,-0.5391,0.8444,7.7133,41.8776,0.0499,-0.0988,0.1189,351.48
18:27:20:182,-0.557,0.862,7.894,41.5505,0.0201,-0.0956,0.0544,351.3
18:27:20:204,-0.5262,0.7537,8.329,41.2713,0.0078,-0.1371,-0.0131,351.16
18:27:20:221,-0.5732,0.5996,9.0442,41.2317,0.0462,-0.1302,-0.0531,351.09
18:27:20:243,-0.8211,0.661,9.2702,41.2944,0.0978,-0.077,-0.0328,351.11
18:27:20:262,-0.8611,0.9985,9.1341,41.5687,0.0866,-0.0535,-0.0147,351.2
18:27:20:281,-0.7667,1.2381,9.3199,41.7281,-0.0023,-0.1169,-0.0493,351.24
18:27:20:303,-0.4867,1.1186,10.0454,41.8802,-0.1082,-0.2255,-0.1489,351.23
18:27:20:321,-0.5314,0.6459,11.2547,42.0398,-0.1726,-0.2564,-0.2532,351.24
18:27:20:343,-1.0199,-0.0651,12.2509,42.1857,-0.1252,-0.1392,-0.1979,351.4
18:27:20:361,-1.0015,-0.3062,11.7816,42.6162,-0.0954,-0.0168,-0.0509,351.75
18:27:20:381,-0.2239,-0.1724,11.0354,43.2571,-0.2961,0.0119,-0.0557,352.02
18:27:20:404,0.1349,-0.5765,11.4961,43.5176,-0.5468,0.0721,-0.1595,352.08
18:27:20:421,-0.2143,-1.4136,12.6048,43.9263,-0.5346,0.0566,-0.1877,352.16
18:27:20:441,-0.4427,-2.1122,12.985,44.2939,-0.2759,-0.062,-0.0967,352.34
18:27:20:461,-0.1973,-2.2072,12.9909,44.6132,0.0595,-0.1243,0.0491,352.52
18:27:20:481,0.7135,-1.91,12.0332,44.7001,0.3086,-0.0354,0.1135,352.62
18:27:20:503,1.585,-1.5757,10.2836,44.5671,0.3182,0.0157,0.0353,352.61
18:27:20:521,2.0116,-1.2594,9.3386,44.8212,0.1942,-0.0046,-0.1553,352.5
18:27:20:542,1.5576,-1.3109,9.1076,44.8788,0.0733,-0.0354,-0.3416,352.45
18:27:20:561,0.7088,-1.4088,8.7779,44.7613,0.0062,-0.0711,-0.3677,352.6
18:27:20:581,0.2134,-1.1113,8.3373,45.2475,-0.0475,-0.0823,-0.2777,352.98
18:27:20:602,0.022,-0.5964,7.8259,45.2316,-0.0731,-0.0945,-0.1702,353.39
18:27:20:621,0.0648,-0.0391,7.4908,45.4236,-0.0789,-0.1041,-0.0781,353.7
18:27:20:641,0.4406,0.4358,7.5335,45.9929,-0.0587,-0.0626,-0.0589,353.89
18:27:20:661,0.8618,0.6055,7.524,46.2345,-0.0283,-0.0317,-0.1409,354
18:27:20:681,0.7527,0.4307,7.7934,46.5722,-0.0358,0.0023,-0.2548,354.08
18:27:20:703,0.3329,0.1336,8.2436,46.8324,0.0291,-0.0487,-0.3192,354.25
18:27:20:721,-0.3082,-0.0864,8.6781,47.0199,0.1489,-0.0136,-0.3011,354.53
18:27:20:743,-0.789,0.0919,8.2645,46.9135,0.2447,0.112,-0.1877,354.91
18:27:20:763,-0.676,0.5291,7.7553,47.1832,0.1633,0.2339,-0.1201,355.31
18:27:20:781,-0.3897,0.912,8.0045,47.7496,0.0861,0.26,-0.1452,355.58
18:27:20:803,-0.4315,1.0222,8.5709,47.8607,0.0765,0.1807,-0.2181,355.72
18:27:20:822,-0.7019,0.9136,9.1599,47.882,0.11,0.1578,-0.2101,355.85
18:27:20:841,-1.0548,0.8385,9.4574,48.0162,0.1489,0.1817,-0.0994,356.1
18:27:20:861,-0.991,0.9697,9.8803,48.0525,0.2048,0.1972,0.0534,356.35
18:27:20:887,-0.7835,1.1562,10.314,48.2236,0.3208,0.1562,0.1614,356.46
18:27:20:903,-0.432,1.1813,10.245,48.1468,0.438,0.0316,0.1998,356.38
18:27:20:923,-0.0732,1.0413,9.9914,48.4102,0.3805,-0.1036,0.1476,356.14
18:27:20:941,-0.2038,0.5691,10.6796,48.127,0.2911,-0.2106,0.1194,355.86
18:27:20:961,-0.5571,0.3629,11.4055,48.2549,0.3395,-0.2281,0.2014,355.65
18:27:20:981,-0.5321,0.5784,11.1684,48.2174,0.3059,-0.1776,0.3403,355.52
18:27:21:004,-0.0689,1.0274,11.5415,48.1804,0.1851,-0.0131,0.4249,355.32
18:27:21:021,0.2115,1.4369,11.8427,48.2193,0.1292,0.1418,0.3637,355
18:27:21:041,0.1455,1.0844,11.5993,48.184,0.0584,0.1578,0.2487,354.58
18:27:21:062,-0.2427,0.338,11.6798,48.1154,0.0281,0.0561,0.1519,354.16
18:27:21:081,-0.8623,-0.5438,12.0728,48.2381,0.1532,-0.0296,0.1566,353.82
18:27:21:104,-1.3123,-1.1637,11.6727,48.0925,0.3528,-0.0317,0.2732,353.62
18:27:21:122,-1.3052,-1.1677,10.4593,48.0766,0.4113,-0.0109,0.409,353.44
18:27:21:142,-0.8753,-0.6934,9.3662,47.9478,0.2862,-0.029,0.4462,353.14
18:27:21:161,-0.4534,-0.356,8.9214,47.9048,0.0872,-0.1254,0.3643,352.66
18:27:21:181,-0.2315,-0.2695,9.2476,47.6057,-0.0475,-0.2005,0.253,352.11
18:27:21:203,-0.3957,-0.2947,9.607,47.6556,-0.0464,-0.1307,0.2062,351.67
18:27:21:222,-0.4956,-0.1123,9.1857,47.4823,0.0137,-0.0094,0.2258,351.43
18:27:21:242,-0.2938,0.3348,8.3363,47.3679,0.0616,0.0758,0.2296,351.26
18:27:21:261,-0.1816,0.652,7.6165,47.3903,0.0797,0.0769,0.1955,351.04
18:27:21:281,-0.3779,0.7652,7.493,47.5147,0.1175,-0.0722,0.1694,350.78
18:27:21:303,-0.636,0.6516,7.9367,47.4227,0.2634,-0.2212,0.2094,350.49
18:27:21:324,-0.7488,0.8019,8.0138,47.5584,0.4129,-0.3271,0.3057,350.25
18:27:21:341,-0.4322,1.196,7.7073,47.6584,0.4039,-0.2388,0.3541,350.01
18:27:21:361,-0.0698,1.6405,7.3277,47.5007,0.217,-0.0376,0.3206,349.73
18:27:21:381,-0.1449,1.8668,7.4565,47.4625,0.0142,0.0636,0.2344,349.42
18:27:21:404,-0.3519,1.8229,8.1919,47.3729,-0.0358,0.0002,0.1907,349.09
18:27:21:421,-0.3919,1.8413,9.0089,47.1968,0.0675,-0.1238,0.195,348.78
18:27:21:441,-0.188,1.9688,9.4424,47.2077,0.2192,-0.1669,0.196,348.53
18:27:21:462,-0.1948,2.2538,9.3585,47.2764,0.2894,-0.0647,0.203,348.32
18:27:21:481,-0.4232,2.5465,8.7609,47.135,0.2043,0.062,0.2227,348.17
18:27:21:504,-0.3854,2.713,8.4323,46.9232,-0.0087,0.0705,0.2397,347.99
18:27:21:521,-0.3198,2.2271,8.784,47.0039,-0.2737,0.0162,0.2796,347.7
18:27:21:542,0.1047,1.6531,11.1032,46.8346,-0.5335,0.1764,0.4516,347.36
18:27:21:561,1.7778,1.3456,13.7572,46.5668,-0.3563,0.4303,0.3238,347.06
18:27:21:581,2.3153,0.9042,13.7319,46.5018,0.0195,0.6885,0.1928,346.66
18:27:21:604,1.6664,1.3319,12.1853,46.3365,0.3576,0.0646,0.2935,346.39
18:27:21:621,2.2872,0.9654,10.0742,46.3901,0.5572,-0.5459,-0.0845,345.87
18:27:21:641,1.3557,1.285,9.4404,46.5144,0.331,-1.0889,-0.3166,345.34
18:27:21:661,1.3699,0.7013,10.6838,46.6283,-0.0459,-1.1448,-0.4821,345.29
18:27:21:681,1.3827,-0.2925,12.2374,47.2596,-0.2487,-0.6599,-0.5849,345.75
18:27:21:703,0.7224,-1.277,12.3098,47.869,-0.2929,0.3521,-0.5412,346.63
18:27:21:721,0.628,-1.0671,10.6412,48.0227,-0.1753,1.0127,-0.3261,347.78
18:27:21:741,1.2198,-0.0392,9.3534,48.2536,-0.1146,0.6172,-0.4422,348.62
18:27:21:763,1.6842,0.7669,8.3578,48.7214,-0.0235,-0.1036,-0.7313,348.71
18:27:21:781,1.1108,0.8952,7.9582,48.8348,-0.1045,-0.6774,-1.007,348.87
18:27:21:804,0.19,0.5893,8.3327,49.3953,-0.2769,-0.7035,-1.0693,349.49
18:27:21:822,-0.6254,0.116,8.1939,49.9378,-0.4537,-0.2478,-0.8734,350.7
18:27:21:841,-1.0617,0.4653,8.2726,50.6512,-0.5218,0.1216,-0.5689,352.16
18:27:21:861,-0.3553,0.8548,8.032,51.069,-0.3201,-0.1659,-0.4262,353.31
18:27:21:881,0.3836,1.0933,7.8078,51.4232,-0.0746,-0.5619,-0.3991,353.85
18:27:21:903,0.8773,1.3805,8.0593,51.8858,0.068,-0.6061,-0.5194,354.22
18:27:21:922,0.4801,1.188,7.852,52.5674,-0.0113,-0.1973,-0.6056,354.73
18:27:21:942,-0.2892,0.7681,8.1324,52.8975,-0.0853,0.2786,-0.5093,355.55
18:27:21:961,-0.7733,0.7399,8.2921,53.4312,-0.0502,0.6044,-0.3118,356.44
18:27:21:981,-0.9927,0.9134,8.0048,53.4345,-0.0416,0.7572,-0.0983,357.13
18:27:22:002,-0.9739,1.2752,8.2476,53.3351,0.0249,0.5384,0.0587,357.48
18:27:22:022,-0.6142,1.5155,8.6018,53.1756,0.2197,0.0864,0.1135,357.42
18:27:22:074,-0.451,1.7959,9.0854,53.329,0.4209,-0.3751,0.1194,357.13
18:27:22:074,-0.4601,2.0919,9.3569,53.012,0.5295,-0.5364,0.1918,356.82
18:27:22:081,-0.181,2.4,9.4183,53.2854,0.4337,-0.3027,0.3334,356.67
18:27:22:101,0.3475,2.5771,9.9723,52.9013,0.1963,0.1477,0.4052,356.6
18:27:22:121,0.5734,2.1095,10.9043,53.0293,0.0142,0.417,0.4063,356.41
18:27:22:141,0.5355,1.6774,11.8184,53.1453,0.1063,0.2291,0.3621,356.02
18:27:22:161,0.5632,1.2389,11.9598,52.8561,0.1532,0.013,0.3089,355.43
18:27:22:181,0.4131,1.0565,12.384,52.598,0.0542,0.0742,0.3281,354.91
18:27:22:204,0.4596,1.1136,12.5755,52.1427,-0.0613,0.3265,0.3573,354.57
18:27:22:222,0.521,0.9798,12.1079,51.707,-0.1252,0.4245,0.3153,354.28
18:27:22:241,0.2208,0.6212,11.8104,51.569,-0.1572,0.2866,0.2477,353.86
18:27:22:261,-0.1821,0.1127,11.7144,51.3924,-0.0571,0.0668,0.2392,353.39
18:27:22:281,-0.3132,-0.1266,11.5535,51.128,0.1244,-0.0743,0.2935,352.99
18:27:22:303,-0.2797,0.2021,10.5786,51.2169,0.258,-0.0849,0.3504,352.66
18:27:22:323,-0.2454,0.7483,9.2607,51.1038,0.191,-0.1227,0.3456,352.34
18:27:22:343,-0.3716,0.7731,8.7796,50.9166,0.0068,-0.1627,0.3291,351.94
18:27:22:361,-0.4802,0.5254,8.8938,50.9473,-0.1726,-0.1387,0.3659,351.53
18:27:22:381,-0.3464,0.4528,9.4215,50.9055,-0.195,-0.1329,0.4526,351.17
18:27:22:404,0.0362,0.6165,9.3473,50.7774,-0.039,-0.1073,0.4862,350.76
18:27:22:422,0.3338,0.8341,8.3833,50.5776,0.1047,-0.0301,0.4739,350.29
18:27:22:441,0.5826,1.0985,6.9863,50.8549,0.0866,0.1131,0.4324,349.81
18:27:22:461,0.4501,1.1704,6.1527,50.751,-0.1295,0.1093,0.3962,349.33
18:27:22:481,0.1264,1.0221,6.5235,50.6582,-0.3158,-0.0919,0.4068,348.79
18:27:22:504,0.2027,0.9582,7.3167,50.6367,-0.3941,-0.275,0.4414,348.22
18:27:22:522,0.6618,1.2478,7.9963,50.628,-0.4292,-0.3341,0.3185,347.68
18:27:22:541,0.7359,1.3148,8.6193,50.3726,-0.3595,-0.2707,0.1636,347.18
18:27:22:561,0.5054,1.1775,9.2131,50.751,-0.1252,-0.2063,0.0885,346.9
18:27:22:582,0.4123,1.2396,9.1281,50.8688,0.1755,-0.2053,0.0236,346.81
18:27:22:604,0.0889,1.351,8.5904,50.9208,0.2878,-0.2792,-0.0595,346.79
18:27:22:622,-0.0509,1.4702,8.7637,51.1488,0.2831,-0.3969,-0.0616,346.78
18:27:22:641,0.3599,1.865,9.2047,51.207,0.3118,-0.4097,-0.0685,346.83
18:27:22:661,0.698,2.2676,9.1674,51.1184,0.2421,-0.3112,-0.1441,346.95
18:27:22:681,0.9536,2.2299,9.3172,51.3191,0.0419,-0.2249,-0.2575,347.11
18:27:22:703,0.9312,1.581,10.0756,51.6636,-0.1673,-0.1648,-0.3224,347.31
18:27:22:721,0.8048,0.6926,11.3353,51.5657,-0.2189,-0.127,-0.3102,347.62
18:27:22:742,0.6402,0.2488,12.2794,51.7972,-0.0565,-0.0924,-0.1478,348.01
18:27:22:761,1.018,0.5294,11.4287,52.1667,0.0856,0.1461,0.0406,348.42
18:27:22:781,1.7156,1.2103,9.518,52.6095,-0.2035,0.1269,0.0182,348.72
18:27:22:803,2.3501,1.0092,9.76,52.7606,-0.6964,-0.1919,-0.2554,348.59
18:27:22:822,1.8534,-0.2067,12.1617,53.0561,-0.8194,-0.4075,-0.4715,348.33
18:27:22:841,1.1208,-1.3759,13.5152,53.3822,-0.4931,-0.3671,-0.3847,348.54
18:27:22:861,1.0925,-1.3721,12.4835,53.9569,-0.0124,-0.102,-0.1771,349.21
18:27:22:881,1.9795,-0.7807,9.6492,54.4457,0.0408,0.1716,-0.0813,349.88
18:27:22:904,2.8133,-0.2572,8.1278,54.9521,-0.3121,0.2754,-0.2207,350.21
18:27:22:921,2.7377,-0.0206,8.3283,55.1477,-0.6565,0.252,-0.4363,350.26
18:27:22:941,2.1727,-0.2336,9.3123,55.1964,-0.7757,0.1604,-0.6104,350.43
18:27:22:961,1.3321,-0.4733,10.3671,55.2517,-0.5873,0.1136,-0.6157,350.86
18:27:22:982,0.9178,-0.4614,10.2907,55.6425,-0.2647,0.1471,-0.4709,351.58
18:27:23:004,0.7629,-0.1379,9.7466,55.9761,-0.0411,0.1754,-0.3389,352.35
18:27:23:022,0.7414,0.1859,9.2104,56.2356,0.0723,0.3063,-0.258,352.94
18:27:23:041,0.516,0.4226,8.4751,56.7047,0.1585,0.4782,-0.1681,353.39
18:27:23:062,0.3927,0.6926,7.6041,56.5338,0.2272,0.5368,-0.1116,353.76
18:27:23:081,0.3839,0.9963,7.1176,56.5085,0.2772,0.4436,-0.1382,353.97
18:27:23:104,0.3339,1.2103,6.8432,56.726,0.2809,0.2823,-0.1984,354.04
18:27:23:121,0.4034,1.3706,7.0952,56.651,0.2144,0.1583,-0.2612,354.12
18:27:23:142,0.3989,1.3239,7.8617,56.7226,0.1665,0.0683,-0.3251,354.28
18:27:23:161,0.0714,1.11,8.4601,57.1633,0.2192,0.0103,-0.3309,354.53
18:27:23:181,-0.1386,0.9473,8.8814,57.3388,0.2804,-0.0354,-0.2665,354.88
18:27:23:204,-0.0061,1.0131,9.0708,57.6337,0.2873,0.0864,-0.1532,355.24
18:27:23:222,-0.0746,1.3017,9.1339,57.6833,0.2229,0.277,-0.0323,355.6
18:27:23:241,-0.4148,1.5008,9.3545,57.6959,0.1947,0.4405,0.1013,355.83
18:27:23:261,-0.7666,1.4703,9.4441,57.7173,0.217,0.4208,0.302,355.91
18:27:23:281,-0.5038,1.4571,9.708,57.7653,0.2426,0.2674,0.4516,355.74
18:27:23:304,0.004,1.1801,10.25,57.5919,0.2144,0.062,0.4654,355.29
18:27:23:321,0.1238,0.943,11.0712,57.4002,0.2277,-0.0163,0.4547,354.66
18:27:23:341,0.2836,1.0355,10.7667,56.6121,0.0941,0.0343,0.418,354.09
18:27:23:361,0.1334,1.1146,11.1229,55.9029,-0.196,0.0753,0.377,353.59
18:27:23:381,-0.0021,0.9493,12.0051,55.9055,-0.3344,0.0758,0.3366,353.1
18:27:23:404,-0.172,0.4592,12.5177,55.8112,-0.278,0.0178,0.2812,352.66
18:27:23:422,-0.3727,-0.0734,12.342,55.8255,-0.1561,-0.0876,0.2253,352.25
18:27:23:441,-0.4883,-0.6496,11.8443,56.3293,-0.0752,-0.1951,0.196,351.89
18:27:23:461,-0.4142,-0.8847,11.4103,56.3616,-0.0496,-0.1855,0.187,351.61
18:27:23:481,-0.5796,-0.9148,10.7384,56.4443,-0.0549,-0.1222,0.1833,351.41
18:27:23:504,-0.7743,-0.8126,9.9619,56.4906,-0.105,-0.1206,0.2072,351.23
18:27:23:522,-0.6421,-0.656,9.6457,56.4143,-0.1502,-0.1573,0.2344,351.03
18:27:23:542,-0.3629,-0.5468,9.4513,56.1702,-0.1231,-0.1525,0.2477,350.78
18:27:23:563,-0.2153,-0.3717,8.8582,56.0233,-0.0773,-0.1062,0.2759,350.53
18:27:23:581,-0.0629,-0.0726,8.2445,55.8998,-0.0411,-0.1009,0.3084,350.28
18:27:23:604,0.0699,0.1785,7.8558,55.7468,0.0041,-0.144,0.3206,349.98
18:27:23:622,0.1026,0.3491,7.619,55.68,0.0616,-0.2074,0.3254,349.62
18:27:23:641,0.1323,0.4823,7.2659,55.5986,0.0643,-0.2532,0.335,349.24
18:27:23:661,0.2468,0.665,7.4782,55.5927,0.0286,-0.317,0.31,348.87
18:27:23:681,0.4065,0.785,7.9656,55.6114,0.0446,-0.3367,0.2642,348.47
18:27:23:704,0.4998,0.9109,8.1733,55.7049,0.0387,-0.3181,0.2003,348.14
18:27:23:723,0.5816,1.0204,8.5178,55.7099,0.0238,-0.2297,0.1274,347.87
18:27:23:741,0.5549,1.0415,8.7746,55.904,0.0105,-0.0785,0.0603,347.69
18:27:23:761,0.3243,1.058,8.9175,56.0031,0.0238,0.0247,0.023,347.62
18:27:23:781,0.1333,1.1215,8.9313,55.5865,0.0994,0.0502,0.0172,347.61
18:27:23:804,0.1839,1.4922,8.6575,55.7038,0.1638,0.0274,0.0507,347.6
18:27:23:821,0.5292,2.141,8.4298,55.4251,0.0909,0.0902,0.0316,347.58
18:27:23:841,0.7002,2.4794,8.7777,55.0017,-0.1103,0.2754,-0.0653,347.53
18:27:23:862,0.4676,2.0985,9.8135,55.1842,-0.32,0.5054,-0.1675,347.53
18:27:23:881,-0.0754,1.3212,11.0394,55.3317,-0.3168,0.425,-0.1883,347.64
18:27:23:904,0.0249,0.6264,11.9454,55.2212,-0.0789,-0.004,-0.1782,347.77
18:27:23:921,0.4121,0.2188,12.5732,55.2391,0.192,-0.3367,-0.1452,347.82
18:27:23:941,1.0017,0.4324,11.6934,55.7987,0.2266,-0.2803,-0.1276,347.94
18:27:23:961,1.3563,0.5524,11.0004,55.8507,-0.0858,-0.1243,-0.2117,348.16
18:27:23:981,1.4735,0.0239,11.4637,55.8961,-0.4292,-0.0668,-0.3363,348.34
18:27:24:004,1.0396,-0.802,13.3695,56.1771,-0.3834,-0.2409,-0.4177,348.56
18:27:24:022,0.2699,-1.3872,14.3504,56.4683,0.1042,-0.3138,-0.3097,348.89
18:27:24:041,0.1963,-1.1553,12.3533,56.7194,0.4763,-0.0828,-0.0632,349.43
18:27:24:061,1.048,-0.4101,9.8843,56.8063,0.4699,0.1727,-0.0004,349.95
18:27:24:081,1.454,-0.0846,8.3568,57.1849,0.2607,0.2009,-0.1212,350.13
18:27:24:143,1.3885,-0.1148,7.7774,57.0154,0.035,0.0556,-0.2681,350.1
18:27:24:144,1.0268,-0.3354,8.0048,56.8307,-0.1662,-0.1073,-0.3427,350.13
18:27:24:144,0.7888,-0.4642,8.8043,56.6102,-0.2242,-0.127,-0.3411,350.34
18:27:24:161,0.7299,-0.2728,8.7905,56.7063,-0.1417,-0.0083,-0.2985,350.72
18:27:24:181,0.7064,0.2475,7.6165,56.7707,-0.1598,0.1828,-0.2639,351.18
18:27:24:203,0.6791,0.6071,6.9154,57.2337,-0.2535,0.276,-0.2474,351.6
18:27:24:223,0.8614,0.8572,6.8396,57.5958,-0.261,0.2515,-0.25,351.91
18:27:24:241,0.7772,0.9849,6.8298,57.7953,-0.2524,0.1881,-0.2713,352.17
18:27:24:262,0.5515,1.009,7.0707,58.2329,-0.2551,0.1535,-0.2681,352.42
18:27:24:281,0.38,1.0821,7.214,58.3426,-0.2892,0.1317,-0.2575,352.7
18:27:24:304,0.21,1.1503,7.7535,58.5572,-0.3259,0.1115,-0.2554,352.99
18:27:24:321,0.1034,1.1819,8.3596,58.597,-0.295,0.1024,-0.2388,353.27
18:27:24:343,0.1148,1.0808,8.7298,58.5962,-0.2743,0.1248,-0.2351,353.56
18:27:24:361,-0.2152,0.8552,9.4939,58.6976,-0.2274,0.1562,-0.1877,353.84
18:27:24:381,-0.4641,0.8127,9.8822,58.7126,-0.1343,0.1823,-0.027,354.12
18:27:24:404,-0.13,1.1502,9.959,58.7695,-0.0406,0.2036,0.1247,354.35
18:27:24:422,0.2905,1.6479,9.9364,59.175,0.0329,0.2451,0.1763,354.4
18:27:24:441,0.5376,2.0803,9.6406,59.3135,0.0169,0.3686,0.1481,354.27
18:27:24:461,0.4868,1.9417,9.1511,59.4201,-0.1635,0.5879,0.0944,354.12
18:27:24:481,-0.0032,1.4524,9.4823,59.5687,-0.4419,0.6236,0.055,354.02
18:27:24:504,-0.309,0.5534,11.5405,59.138,-0.3174,0.3148,0.0081,353.91
18:27:24:521,-0.5939,-0.0752,12.4963,58.7392,0.0462,-0.0439,0.0374,353.72
18:27:24:541,-0.4844,0.2057,12.0292,58.796,0.2559,-0.1344,0.1481,353.58
18:27:24:561,0.2313,0.4693,11.0585,58.6345,0.0568,0.1227,0.1412,353.51
18:27:24:582,0.421,0.0291,11.4202,58.8453,-0.2216,0.3526,0.0198,353.44
18:27:24:604,-0.1166,-0.7478,12.4615,58.6131,-0.1736,0.2531,-0.1058,353.36
18:27:24:621,-1.047,-1.3598,12.5363,58.5868,0.1314,-0.0014,-0.0962,353.3
18:27:24:641,-1.4402,-1.5949,11.3328,58.6491,0.2634,-0.1408,0.0145,353.32
18:27:24:661,-1.1283,-1.7067,10.4389,58.4373,0.1441,-0.2106,0.0832,353.38
18:27:24:681,-0.5788,-1.9272,10.403,58.5289,-0.0406,-0.2217,0.0576,353.34
18:27:24:704,-0.5654,-2.2275,10.5553,58.7521,-0.1683,-0.2164,0.0177,353.23
18:27:24:722,-1.0414,-2.4743,10.6799,58.862,-0.1885,-0.1871,0.0853,353.16
18:27:24:743,-1.2973,-2.3027,10.538,59.0552,-0.065,-0.1078,0.2573,353.15
18:27:24:761,-1.2396,-1.6738,9.5532,59.1069,0.1053,-0.0376,0.459,353.09
18:27:24:781,-0.7694,-0.8703,8.1511,59.2541,0.1974,-0.0439,0.5894,352.84
18:27:24:804,-0.218,-0.1312,7.0842,59.1377,0.1862,-0.1531,0.5857,352.31
18:27:24:823,0.0899,0.3798,6.7846,58.7125,0.1351,-0.3032,0.4989,351.59
18:27:24:841,0.1145,0.4497,7.2077,58.5318,0.1654,-0.4475,0.4095,350.86
18:27:24:861,0.0321,0.3995,7.3731,57.9757,0.2112,-0.4959,0.3627,350.24
18:27:24:881,0.1267,0.5188,7.1927,57.8001,0.1441,-0.4368,0.3329,349.76
18:27:24:903,0.3342,0.6309,7.4167,57.808,-0.0006,-0.3404,0.2557,349.37
18:27:24:922,0.237,0.586,7.8648,57.8264,-0.0981,-0.2547,0.1694,349.02
18:27:24:940,-0.0002,0.4675,8.492,57.849,-0.1279,-0.1344,0.1449,348.75
18:27:24:961,-0.0355,0.4005,9.2633,58.1097,-0.0225,-0.0636,0.1785,348.61
18:27:24:981,0.1443,0.6347,9.3292,57.805,0.1383,-0.0589,0.2248,348.49
18:27:25:004,0.4759,1.1791,8.9256,57.8542,0.1718,-0.0557,0.2408,348.31
18:27:25:022,0.8842,1.7381,8.8683,58.0848,0.1218,-0.0817,0.1763,348.06
18:27:25:041,1.0304,1.922,9.2054,58.3091,0.0366,-0.0998,0.0693,347.77
18:27:25:062,1.0971,1.7162,9.8876,58.2653,-0.0645,-0.0929,-0.0131,347.55
18:27:25:081,0.9944,1.2848,10.8777,58.1139,-0.122,-0.1264,-0.0744,347.46
18:27:25:103,0.7932,0.545,12.1211,58.1257,-0.0294,-0.218,-0.0595,347.45
18:27:25:125,0.8951,0.1062,12.3881,58.1621,0.1324,-0.2888,0.0252,347.52
18:27:25:142,1.2835,0.1883,11.4419,58.1219,0.1585,-0.3011,0.0789,347.59
18:27:25:161,1.945,0.28,10.624,58.4468,-0.0331,-0.382,0.0167,347.57
18:27:25:181,2.6923,-0.0134,10.8822,58.6783,-0.261,-0.4485,-0.1851,347.42
18:27:25:204,2.4736,-0.6831,12.238,58.9373,-0.3594,-0.4017,-0.4135,347.34
18:27:25:222,1.5338,-1.6222,13.4063,59.2588,-0.1593,-0.144,-0.472,347.57
18:27:25:241,0.6302,-2.0202,12.5695,59.4173,0.1878,0.1168,-0.356,348.2
18:27:25:261,0.6805,-1.6628,10.2903,59.8144,0.3166,0.1722,-0.2282,348.92
18:27:25:281,1.3612,-1.1907,8.9275,60.2245,0.1739,0.0678,-0.2548,349.37
18:27:25:303,1.6033,-0.8347,8.8668,60.715,-0.0347,0.0188,-0.3778,349.56
18:27:25:321,1.0757,-0.9543,9.1763,61.18,-0.1912,0.1019,-0.4502,349.8
18:27:25:342,0.3821,-1.0073,9.3406,61.3638,-0.2232,0.2164,-0.3927,350.24
18:27:25:361,0.0066,-0.672,8.989,61.6789,-0.1311,0.2547,-0.2468,350.79
18:27:25:382,0.3863,-0.0461,8.3272,62.0294,-0.0113,0.2275,-0.1425,351.27
18:27:25:405,0.951,0.4465,7.4891,62.1043,0.0387,0.1674,-0.1537,351.56
18:27:25:422,1.1589,0.7072,7.2798,62.263,0.0632,0.12,-0.242,351.7
18:27:25:441,0.9024,0.6879,7.5493,62.5561,0.1404,0.079,-0.3182,351.86
18:27:25:461,0.3421,0.546,7.6127,62.5823,0.2628,0.079,-0.3288,352.13
18:27:25:481,0.0525,0.6943,7.2502,62.8921,0.2793,0.1413,-0.2841,352.52
18:27:25:505,-0.0131,1.0256,6.8976,63.1316,0.2011,0.2089,-0.275,352.92
18:27:25:522,-0.2814,1.1365,6.9992,63.1504,0.0574,0.2477,-0.2719,353.25
18:27:25:542,-0.4915,1.1057,7.6728,63.1994,-0.0145,0.2403,-0.2224,353.56
18:27:25:561,-0.622,1.0559,8.6073,63.2296,0.0398,0.129,-0.1414,353.84
18:27:25:581,-0.5611,1.0604,9.3645,63.1276,0.2235,-0.0519,-0.0435,354.05
18:27:25:604,-0.337,1.2768,9.4526,63.1443,0.3182,-0.0296,0.0768,354.15
18:27:25:622,-0.2481,1.6586,9.4036,63.1687,0.2235,0.2318,0.1801,354.22
18:27:25:641,-0.26,1.8805,9.4781,63.4302,0.06,0.3335,0.2461,354.22
18:27:25:661,0.0478,1.6701,10.3879,63.2617,0.0025,0.1349,0.2439,354.02
18:27:25:681,0.349,1.1785,11.5785,63.0611,0.0457,-0.0876,0.1934,353.63
18:27:25:704,0.0954,0.8063,12.0018,62.9933,0.085,-0.0988,0.2088,353.26
18:27:25:722,0.1273,0.5705,11.672,62.6678,-0.064,0.0881,0.2801,353.05
18:27:25:741,0.3856,0.4993,12.1503,62.8115,-0.2854,0.2935,0.3217,352.87
18:27:25:761,0.3824,0.349,12.7828,63.0457,-0.3158,0.3457,0.2615,352.6
18:27:25:782,-0.0961,-0.2607,12.8035,63.002,-0.246,0.2009,0.236,352.24
18:27:25:805,-0.4387,-0.8215,12.9289,63.0385,-0.1204,0.0918,0.2801,351.87
18:27:25:821,-0.6404,-1.1227,12.6643,62.7848,0.0696,0.0705,0.3664,351.56
18:27:25:841,-0.6368,-1.1707,11.3966,62.349,0.2155,0.0455,0.4532,351.24
18:27:25:861,-0.6142,-0.9745,9.7143,61.9398,0.1952,0.0141,0.4973,350.82
18:27:25:881,-0.4987,-0.719,8.7087,61.7764,0.026,-0.0716,0.5192,350.29
18:27:25:901,-0.2509,-0.5609,8.7569,61.7557,-0.1055,-0.1589,0.4846,349.66
18:27:25:922,-0.1923,-0.5558,8.643,61.6496,-0.1779,-0.0471,0.4319,349.02
18:27:25:941,-0.4107,-0.3881,8.289,61.3785,-0.2977,0.1237,0.4665,348.51
18:27:25:961,-0.6392,-0.3676,7.6217,61.26,-0.4297,0.2802,0.5096,348.07
18:27:25:981,-0.3977,-0.1149,6.8003,60.8432,-0.5942,0.2589,0.5415,347.58
18:27:26:001,0.2346,0.1568,6.5473,60.3999,-0.7464,0.1067,0.4441,346.96
18:27:26:022,0.9399,0.3974,7.1579,60.2924,-0.7927,-0.1754,0.1976,346.25
18:27:26:041,0.8248,0.0589,8.4344,60.3146,-0.6565,-0.3218,-0.0669,345.62
18:27:26:061,-0.3398,-0.7297,9.0949,60.5286,-0.4238,-0.35,-0.1004,345.35
18:27:26:081,-0.747,-0.921,9.3958,60.651,-0.0981,-0.1839,0.1077,345.43
18:27:26:105,-0.2989,-0.3692,8.5797,60.8374,0.0377,-0.0775,0.2599,345.65
18:27:26:122,0.6048,0.425,8.619,61.0597,0.0073,-0.0046,0.1668,345.59
18:27:26:142,0.5093,0.561,9.0593,60.6848,0.0813,-0.1488,-0.0334,345.31
18:27:26:212,0.1806,0.1585,9.6447,60.6567,0.2932,-0.465,-0.1468,345.07
18:27:26:212,-0.0549,0.1457,10.2587,60.9446,0.5567,-0.5731,-0.1223,345.01
18:27:26:213,0.1972,0.5887,10.1803,60.7701,0.6727,-0.2904,-0.0547,345.17
18:27:26:226,0.568,1.0377,9.5418,60.9674,0.4848,0.0519,-0.0499,345.43
18:27:26:241,0.835,1.1595,9.8903,61.2647,0.1473,0.2078,-0.216,345.59
18:27:26:261,0.5954,-0.0262,11.3963,61.2859,0.0467,0.1908,-0.39,345.64
18:27:26:281,0.2925,-0.8932,13.0572,61.2863,0.4044,-0.0631,-0.3176,345.87
18:27:26:301,0.2041,-1.2171,12.5781,61.2195,0.8489,0.0125,-0.0994,346.28
18:27:26:322,1.0839,-0.3129,10.864,61.1449,0.7994,0.2068,0.0283,346.75
18:27:26:342,2.092,0.6342,9.3474,61.2796,0.216,0.1929,-0.0717,346.92
18:27:26:361,2.2791,0.3653,10.0953,61.0403,-0.3695,-0.021,-0.3852,346.78
18:27:26:381,0.5485,-1.4387,12.3581,60.9565,-0.5106,0.062,-0.4385,346.68
18:27:26:401,-0.3843,-2.2256,13.1082,61.1745,-0.1587,0.2313,-0.036,347.13
18:27:26:422,0.7493,-1.5487,11.6074,61.1833,0.3395,0.4224,0.2285,347.75
18:27:26:442,2.1028,-0.423,8.9605,61.1358,0.4673,0.2121,0.0635,347.93
18:27:26:461,2.6633,0.1584,7.3422,61.1126,0.2043,-0.169,-0.3022,347.58
18:27:26:481,2.2247,-0.1111,7.7828,61.1447,-0.1742,-0.2617,-0.6253,347.32
18:27:26:505,1.0485,-0.8252,8.626,60.7745,-0.3882,-0.1531,-0.6695,347.59
18:27:26:522,0.2015,-1.1326,9.0438,61.107,-0.3296,-0.0014,-0.48,348.34
18:27:26:542,0.1359,-0.6922,8.4413,61.4713,-0.2338,0.087,-0.2644,349.18
18:27:26:561,0.438,-0.0614,7.8382,61.9993,-0.2546,0.0833,-0.1638,349.77
18:27:26:581,0.6508,0.3974,7.5351,62.1609,-0.3062,0.0577,-0.1713,350.07
18:27:26:601,0.6762,0.6502,7.4351,62.494,-0.3525,0.0567,-0.2367,350.24
18:27:26:621,0.5253,0.7548,7.281,62.4827,-0.426,0.1094,-0.2979,350.43
18:27:26:641,0.2954,0.7048,7.283,62.5834,-0.5681,0.1796,-0.3198,350.71
18:27:26:661,0.0818,0.665,8.0361,62.4271,-0.6298,0.2392,-0.3102,351.07
18:27:26:681,-0.1138,0.6224,8.9818,62.7122,-0.4478,0.2462,-0.282,351.46
18:27:26:701,-0.0489,0.8128,9.4082,62.9153,-0.1028,0.1988,-0.2804,351.84
18:27:26:721,-0.036,0.8023,9.3987,63.0287,0.175,0.17,-0.2926,352.18
18:27:26:744,-0.3846,0.6922,8.9809,63.089,0.2911,0.2052,-0.2117,352.53
18:27:26:761,-0.4222,0.9321,8.8488,63.0614,0.2362,0.2052,-0.0983,352.9
18:27:26:781,-0.4318,1.165,9.5163,63.0781,0.2229,0.227,0.0023,353.14
18:27:26:801,-0.5574,1.2903,9.9875,63.1475,0.3033,0.1802,0.0906,353.26
18:27:26:822,-0.2268,1.3467,10.4355,63.15,0.4353,0.0508,0.1055,353.25
18:27:26:841,0.4883,1.0604,10.8178,63.0384,0.5327,-0.0951,-0.0158,353.1
18:27:26:861,0.5553,0.3045,11.3049,62.8454,0.5796,-0.1499,-0.1233,352.93
18:27:26:881,-0.1122,-0.303,11.6023,62.8505,0.5913,0.0173,-0.0174,352.93
18:27:26:905,-0.4299,-0.3201,11.0618,63.1141,0.4444,0.3462,0.2482,353.14
18:27:26:923,-0.0535,0.3644,10.4882,62.7349,0.0994,0.5123,0.4185,353.28
18:27:26:941,0.4807,0.9252,10.7666,62.4763,-0.2391,0.4314,0.2839,353.02
18:27:26:961,0.3264,0.4983,11.4225,62.4323,-0.4345,0.1519,0.0028,352.47
18:27:26:981,-0.3384,-0.5198,12.5524,61.8393,-0.476,-0.102,-0.208,352
18:27:27:001,-1.7273,-1.6907,13.4538,61.4431,-0.3206,-0.1717,-0.1505,351.89
18:27:27:022,-2.5562,-2.2713,13.2799,61.3848,-0.0342,0.0551,0.1854,352.11
18:27:27:041,-2.3003,-1.6012,11.4724,61.1032,0.1883,0.3979,0.5442,352.39
18:27:27:061,-1.4628,-0.361,9.3226,60.9487,0.1734,0.4777,0.6639,352.32
18:27:27:081,-0.566,0.518,8.12,60.9141,0.0105,0.2419,0.4995,351.72
18:27:27:101,-0.2738,0.6402,8.2316,60.5438,-0.0933,-0.0812,0.2328,350.84
18:27:27:123,-0.6612,0.2689,8.558,59.9875,-0.0693,-0.2888,0.0688,350.13
18:27:27:142,-0.9568,-0.0837,8.4072,60.0702,0.0004,-0.3064,0.0768,349.79
18:27:27:161,-0.9294,-0.0445,7.7611,59.6745,0.0265,-0.2632,0.1534,349.71
18:27:27:181,-0.5429,0.147,7.0272,59.8198,-0.0054,-0.2813,0.204,349.65
18:27:27:201,-0.0688,0.3316,6.8453,59.6667,-0.031,-0.3303,0.1694,349.47
18:27:27:222,-0.093,0.4034,6.9243,59.6964,-0.0358,-0.3963,0.0992,349.22
18:27:27:241,-0.2784,0.234,7.3375,59.7837,-0.0065,-0.4192,0.0736,349.01
18:27:27:261,-0.5012,0.1288,7.5915,59.9,0.035,-0.3655,0.1284,348.9
18:27:27:281,-0.3681,0.2096,7.883,60.2892,0.0324,-0.2968,0.1774,348.86
18:27:27:301,-0.1554,0.4749,8.0834,60.4577,-0.0001,-0.2542,0.1843,348.74
18:27:27:322,0.0251,0.6169,8.5769,60.6356,-0.0049,-0.2505,0.154,348.56
18:27:27:341,0.1218,0.7654,8.7626,60.4421,-0.0086,-0.3085,0.1252,348.36
18:27:27:361,0.1037,0.9822,9.5172,60.4141,-0.0294,-0.3282,0.1093,348.17
18:27:27:381,-0.0894,1.2006,10.7694,60.18,0.1085,-0.2649,0.1156,348.02
18:27:27:401,-0.2343,1.2466,11.2203,60.3922,0.3475,-0.1946,0.1439,347.95
18:27:27:423,-0.1079,1.4089,10.2702,60.7256,0.3906,-0.1456,0.2216,347.89
18:27:27:442,0.6143,1.8726,10.1895,61.1314,0.216,-0.1903,0.195,347.76
18:27:27:462,1.3893,1.6361,11.0405,61.0656,0.1639,-0.0892,0.0044,347.46
18:27:27:481,1.187,0.8832,11.2736,61.0953,0.2102,-0.0727,-0.1324,347.29
18:27:27:501,0.7287,0.3412,10.9811,60.9826,0.2118,-0.0056,-0.0169,347.31
18:27:27:523,0.962,0.2132,10.1204,60.8074,-0.0602,0.1663,0.1428,347.49
18:27:27:542,1.4815,0.2791,10.5092,60.7506,-0.3828,0.2754,0.0683,347.52
18:27:27:565,1.4616,-0.106,11.3095,60.6841,-0.5425,0.2376,-0.1111,347.34
18:27:27:581,1.2207,-0.7118,12.3016,60.6219,-0.5127,0.1168,-0.2916,347.22
18:27:27:602,0.7586,-1.3332,12.8937,60.66,-0.2114,-0.0216,-0.3459,347.29
18:27:27:622,0.6365,-1.3729,12.1317,60.9451,0.1974,-0.0477,-0.257,347.62
18:27:27:641,1.3338,-0.8566,10.2141,61.0616,0.2756,-0.0205,-0.2511,348.06
18:27:27:661,1.7985,-0.5189,9.1195,61.2405,0.0494,0.0471,-0.3932,348.38
18:27:27:681,1.4109,-0.5193,8.8966,61.1916,-0.1502,0.0598,-0.5529,348.67
18:27:27:701,0.6861,-0.6856,8.6602,61.0336,-0.2402,-0.0072,-0.5987,349.1
18:27:27:723,0.1742,-0.6412,8.5411,61.3963,-0.2492,-0.0365,-0.5428,349.69
18:27:27:742,0.0365,-0.3947,8.3652,61.2875,-0.2114,-0.0072,-0.4443,350.36
18:27:27:761,0.2953,-0.1446,8.1526,61.3563,-0.2168,0.0897,-0.3709,351
18:27:27:782,0.6282,0.1504,8.3531,61.7516,-0.2301,0.2249,-0.357,351.55
18:27:27:801,0.8172,0.4456,8.8685,61.884,-0.0512,0.3665,-0.4241,352.03
18:27:27:823,0.4397,0.439,8.2063,62.0995,0.199,0.3777,-0.4944,352.51
18:27:27:841,-0.0634,0.5245,7.0359,62.1587,0.2836,0.3132,-0.5183,353.02
18:27:27:862,-0.4886,0.7467,6.4884,62.0638,0.1644,0.2456,-0.5018,353.57
18:27:27:881,-0.6079,0.7722,6.9309,62.1365,-0.0081,0.2307,-0.4699,354.12
18:27:27:901,-0.4714,0.7611,7.8526,62.0994,-0.1172,0.3478,-0.4539,354.67
18:27:27:926,-0.5599,0.8636,8.4361,61.9348,-0.1491,0.3846,-0.4486,355.24
18:27:27:942,-1.0372,0.8094,8.8625,62.2763,-0.0842,0.2717,-0.3858,355.77
18:27:27:961,-1.2208,0.7986,9.3469,62.2225,0.0883,0.0609,-0.2538,356.23
18:27:27:981,-1.2774,1.0862,9.7539,62.1782,0.2512,0.0082,-0.0845,356.58
18:27:28:001,-0.9699,1.4702,10.0943,62.3685,0.3251,0.1956,0.0752,356.85
18:27:28:023,-0.5296,1.7464,9.6634,61.9502,0.1867,0.4176,0.1428,357.03
18:27:28:042,0.1292,1.7647,9.7246,61.7812,-0.0554,0.3963,0.072,357.02
18:27:28:061,0.0346,1.2035,11.099,61.486,-0.139,0.2659,-0.0834,356.83
18:27:28:081,-1.2304,0.0662,12.1568,60.6798,0.0196,0.1876,0.0023,356.69
18:27:28:101,-1.569,-0.0798,11.8631,60.259,0.1436,0.0977,0.2306,356.74
18:27:28:122,-0.6561,0.4218,11.7106,59.8386,0.0318,0.0992,0.2748,356.69
18:27:28:141,-0.3381,0.3927,12.0793,59.8155,-0.1688,0.2792,0.1652,356.42
18:27:28:161,-0.8743,-0.26,12.1542,59.8757,-0.2066,0.343,0.0901,356.18
18:27:28:182,-1.4356,-0.8527,11.7465,59.4509,-0.0661,0.1519,0.1279,356.01
18:27:28:201,-1.0981,-1.2156,11.0172,59.1878,0.0877,-0.1397,0.1465,355.82
18:27:28:222,-0.7899,-1.5588,10.3336,59.1231,0.0925,-0.2547,0.0858,355.54
18:27:28:272,-0.7719,-1.6985,9.7698,58.9513,-0.0193,-0.2084,0.0757,355.33
18:27:28:272,-0.7615,-1.409,9.1106,58.9436,-0.2103,-0.1536,0.0507,355.26
18:27:28:281,-0.697,-1.1836,9.0118,59.0798,-0.4036,-0.1776,0.0007,355.21
18:27:28:302,-0.7445,-1.0769,9.2626,59.3873,-0.4957,-0.2217,-0.0206,355.15
18:27:28:321,-0.8524,-0.9828,9.6551,59.1298,-0.4712,-0.1786,0.0299,355.13
18:27:28:341,-0.8442,-0.8862,9.7451,58.9633,-0.3429,-0.1089,0.1252,355.17
18:27:28:361,-0.9216,-0.7378,9.7135,58.9216,-0.1534,-0.07,0.2418,355.17
18:27:28:381,-0.8438,-0.4345,9.2812,59.1849,0.0946,-0.0945,0.376,355.04
18:27:28:401,-0.5208,0.1257,8.4102,59.179,0.2852,-0.1264,0.4526,354.76
18:27:28:422,-0.2238,0.584,7.7197,58.9338,0.3725,-0.1366,0.4649,354.31
18:27:28:441,-0.0244,0.9255,7.2463,58.9378,0.3672,-0.1451,0.4207,353.79
18:27:28:461,0.2053,1.2028,7.1598,58.7011,0.2975,-0.1233,0.3403,353.26
18:27:28:481,0.3983,1.375,7.4784,58.1061,0.2123,-0.1099,0.1928,352.78
18:27:28:501,0.2769,1.3288,8.0176,57.8256,0.1883,-0.1563,0.0081,352.4
18:27:28:522,0.0597,1.0771,8.575,57.6798,0.1921,-0.1781,-0.1404,352.16
18:27:28:541,-0.3238,0.7463,9.4066,57.5057,0.2512,-0.1499,-0.1947,352.15
18:27:28:561,-0.6605,0.7137,9.7581,57.4539,0.3842,-0.0924,-0.1414,352.34
18:27:28:581,-0.6878,1.1113,9.3744,57.2337,0.4236,-0.0125,-0.0733,352.59
18:27:28:601,-0.4739,1.4972,9.0922,57.309,0.3097,0.0034,-0.0754,352.79
18:27:28:622,-0.3252,1.6174,9.3713,57.1037,0.1197,-0.0562,-0.167,352.88
18:27:28:641,-0.604,1.0382,10.3641,56.9329,-0.0241,-0.1179,-0.2266,352.93
18:27:28:662,-1.1054,0.1208,11.8115,56.8232,0.0616,-0.1701,-0.1111,353.1
18:27:28:684,-0.8022,-0.0178,12.1947,56.8941,0.3028,-0.0455,0.0789,353.34
18:27:28:701,0.1396,0.1718,10.6377,57.1684,0.331,-0.0328,0.1199,353.54
18:27:28:722,1.4852,0.2499,9.6768,57.3254,-0.1545,-0.0993,-0.1303,353.46
18:27:28:741,1.5953,-0.5569,11.1584,57.2074,-0.6623,0.0561,-0.4981,353.28
18:27:28:761,0.1175,-1.6064,13.356,57.3731,-0.6256,0.2483,-0.6477,353.48
18:27:28:781,-1.3995,-2.3621,13.3588,57.3343,-0.1497,0.3691,-0.3842,354.13
18:27:28:801,-1.1938,-1.6947,10.9788,57.2673,0.1889,0.3308,0.0209,354.93
18:27:28:821,0.6065,-0.1852,9.26,57.1897,0.1058,0.2014,0.0912,355.34
18:27:28:841,1.8474,0.4004,9.1864,57.1111,-0.1262,0.103,-0.1936,355.24
18:27:28:861,1.129,0.0299,9.6309,56.6055,-0.2716,0.1072,-0.4465,355.09
18:27:28:881,-0.1172,-0.4234,9.4654,56.4527,-0.3115,0.1285,-0.431,355.31
18:27:28:901,-0.7013,-0.4028,9.2516,56.4118,-0.2471,0.1195,-0.257,355.83
18:27:28:921,-0.407,0.0113,8.7451,56.339,-0.1294,0.087,-0.1388,356.31
18:27:28:941,-0.0742,0.2929,7.9782,56.4474,-0.105,0.0705,-0.1356,356.59
18:27:28:962,-0.2426,0.3186,7.6283,56.5527,-0.1321,0.0508,-0.1638,356.74
18:27:28:982,-0.5424,0.3104,7.8629,56.5541,-0.048,-0.0141,-0.1308,356.88
18:27:29:002,-0.5776,0.41,8.2206,56.48,0.1947,-0.0471,-0.0786,357.05
18:27:29:023,-0.6465,0.5476,7.6491,56.9223,0.3784,0.0199,-0.0339,357.18
18:27:29:041,-0.8336,0.8193,6.7072,56.7448,0.322,0.178,0.0283,357.29
18:27:29:062,-0.8179,1.1966,6.2132,56.6681,0.1021,0.2925,0.0688,357.4
18:27:29:081,-0.6223,1.4881,6.6343,56.5984,-0.0938,0.2355,0.0134,357.4
18:27:29:101,-0.6809,1.4731,7.6695,56.3805,-0.1614,0.0593,-0.0526,357.3
18:27:29:123,-0.739,1.3615,8.9366,55.9441,-0.139,-0.0924,-0.0808,357.21
18:27:29:142,-0.9421,1.1368,10.3271,55.8755,-0.0097,-0.1467,-0.0206,357.2
18:27:29:161,-1.1165,1.1677,11.0919,56.0553,0.2565,-0.1472,0.1093,357.27
18:27:29:181,-1.1144,1.5855,10.528,55.8782,0.4135,-0.1179,0.2578,357.29
18:27:29:201,-0.6533,1.9783,9.8029,55.7786,0.3102,-0.0189,0.3355,357.18
18:27:29:223,0.3067,1.9794,9.9335,55.8127,0.0132,0.0678,0.2269,356.93
18:27:29:241,0.4967,1.3653,10.9938,55.7439,-0.1614,0.1221,0.006,356.59
18:27:29:261,-0.3748,0.496,11.518,55.684,-0.2029,0.2158,-0.068,356.35
18:27:29:281,-0.7073,0.2713,11.6272,55.5619,-0.2588,0.2525,0.0028,356.38
18:27:29:301,-0.3231,0.3631,12.0423,55.7438,-0.3051,0.2329,-0.0568,356.47
18:27:29:323,-0.6687,0.014,12.2666,55.2818,-0.3142,0.1807,-0.1824,356.45
18:27:29:341,-1.3132,-0.7049,12.2533,55.2461,-0.2923,0.0801,-0.2383,356.49
18:27:29:361,-2.1344,-1.5797,12.4414,55.2386,-0.1619,-0.0237,-0.134,356.65
18:27:29:382,-2.4476,-2.0968,11.942,55.5584,0.0872,-0.0823,0.1348,356.87
18:27:29:401,-1.9099,-1.9358,10.4145,55.3391,0.2181,-0.1153,0.352,356.99
18:27:29:423,-1.2591,-1.3029,8.9372,55.4798,0.1287,-0.1834,0.4052,356.82
18:27:29:441,-0.745,-0.6857,8.3165,55.2719,-0.0868,-0.2936,0.3254,356.39
18:27:29:461,-0.4399,-0.4525,8.7278,54.9892,-0.2721,-0.4102,0.1753,355.89
18:27:29:481,-0.3863,-0.5356,9.3391,55.1778,-0.3567,-0.4379,0.0518,355.48
18:27:29:501,-0.6092,-0.7139,9.8873,55.9023,-0.3381,-0.317,0.0102,355.28
18:27:29:523,-0.8999,-0.9347,9.8747,56.2968,-0.1928,-0.169,0.0715,355.27
18:27:29:542,-1.0091,-0.8359,9.0163,56.9512,-0.0411,-0.1004,0.1758,355.32
18:27:29:561,-0.8377,-0.4706,8.0689,57.0988,0.0334,-0.0993,0.2551,355.27
18:27:29:581,-0.6315,-0.1483,7.5327,57.3251,0.026,-0.1009,0.2727,355.07
18:27:29:601,-0.6988,-0.007,7.2952,57.3404,0.0324,-0.0679,0.2977,354.78
18:27:29:623,-0.7248,0.1736,7.1232,57.0195,0.0334,-0.0855,0.3376,354.48
18:27:29:642,-0.3299,0.5274,7.162,56.9079,0.0058,-0.144,0.3307,354.14
18:27:29:661,0.0285,0.9158,7.508,56.8114,-0.0278,-0.2164,0.2354,353.72
18:27:29:681,0.1743,1.0145,8.3707,56.7168,-0.0214,-0.2318,0.0805,353.31
18:27:29:702,-0.0985,0.8647,9.0723,56.7171,0.0382,-0.2212,-0.0371,353.04
18:27:29:723,-0.4188,0.6376,9.7046,56.9028,0.1431,-0.1951,-0.0797,352.96
18:27:29:741,-0.7101,0.6414,10.1201,56.7263,0.2602,-0.1025,-0.0707,353.02
18:27:29:761,-1.0413,0.7635,10.2949,56.6824,0.3938,0.0093,-0.0084,353.15
18:27:29:782,-1.1515,1.0424,9.5549,56.7627,0.3933,0.0407,0.0464,353.29
18:27:29:801,-0.9007,1.1931,9.2161,56.8845,0.183,0.0093,0.0438,353.31
18:27:29:823,-0.5555,1.0081,9.8597,56.9337,-0.0288,-0.0679,-0.0089,353.23
18:27:29:844,-0.3929,0.4977,11.1076,57.6131,-0.0581,-0.1903,-0.0462,353.14
18:27:29:862,-0.2887,0.0796,12.0134,57.4338,0.1064,-0.242,0.0113,353.1
18:27:29:881,0.3069,0.1872,11.6106,57.6987,0.215,-0.1706,0.0709,353.15
18:27:29:901,1.1206,0.6226,10.6759,57.4865,0.0345,-0.0434,-0.0382,353.18
18:27:29:923,1.832,0.3633,10.9454,57.2087,-0.3402,0.1174,-0.3251,353.14
18:27:29:942,1.1045,-0.5835,12.3699,56.8034,-0.4632,0.21,-0.5822,353.23
18:27:29:961,-0.1638,-1.8095,13.3095,56.7862,-0.1619,0.1471,-0.6104,353.63
18:27:29:981,-0.7578,-2.5545,12.4377,57.2307,0.3395,0.0354,-0.3842,354.29
18:27:30:001,-0.24,-2.1234,10.0489,57.6228,0.6217,-0.0881,-0.1734,354.97
18:27:30:024,0.7534,-1.3957,8.2806,57.6621,0.5738,-0.1168,-0.1462,355.37
18:27:30:041,1.1862,-1.0759,7.1779,57.613,0.2426,0.0034,-0.2607,355.56
18:27:30:061,0.7387,-1.0892,6.9063,57.6845,-0.2662,0.2478,-0.3224,355.77
18:27:30:081,0.2588,-0.9873,7.9896,57.6205,-0.5989,0.3819,-0.291,356.14
18:27:30:101,0.0503,-0.6589,9.2274,57.4262,-0.6117,0.3297,-0.2463,356.54
18:27:30:124,-0.003,-0.1258,9.8081,57.0073,-0.4499,0.26,-0.2224,356.84
18:27:30:141,-0.1645,0.3598,9.8626,56.9532,-0.2545,0.235,-0.2096,357.09
18:27:30:161,-0.3184,0.7086,9.5954,56.9272,-0.0342,0.2302,-0.1808,357.33
18:27:30:181,-0.4008,0.9452,8.7485,56.7819,0.1144,0.2275,-0.1484,357.57
18:27:30:201,-0.3346,1.1613,7.9991,56.6356,0.1431,0.2206,-0.1249,357.77
18:27:30:224,-0.4056,1.2691,7.6286,56.6357,0.1223,0.2228,-0.1335,357.94
18:27:30:242,-0.6141,1.1928,7.3852,56.4788,0.0936,0.202,-0.1212,358.08
18:27:30:262,-0.7662,1.1243,7.1501,56.3067,0.0574,0.1594,-0.0983,358.22
18:27:30:330,-0.8031,1.1045,7.227,55.9716,0.0196,0.1024,-0.0845,358.34
18:27:30:331,-0.873,1.0331,7.4643,56.0154,0.0138,0.0135,-0.0611,358.42
18:27:30:331,-0.8407,1.1119,7.9213,55.9641,0.05,-0.1291,-0.035,358.48
18:27:30:345,-0.8743,1.1666,8.6087,55.6786,0.1149,-0.2728,0.0102,358.49
18:27:30:361,-0.6622,1.3156,9.568,55.7181,0.2512,-0.3489,0.0821,358.48
18:27:30:381,-0.3828,1.712,9.956,55.8457,0.3401,-0.3042,0.1055,358.44
18:27:30:401,-0.0433,1.8936,9.9198,56.1202,0.1995,-0.0338,0.0651,358.37
18:27:30:423,0.1697,1.7877,10.1104,56.0141,-0.0852,0.2142,-0.0547,358.38
18:27:30:441,-0.1668,1.1244,11.3542,56.089,-0.2226,0.2291,-0.1808,358.41
18:27:30:461,-0.9324,0.2587,12.4142,56.0153,-0.1262,0.1578,-0.167,358.47
18:27:30:483,-1.4655,0.0311,12.2536,55.6307,-0.0309,0.1626,0.0363,358.64
18:27:30:501,-0.7947,0.8942,11.8804,55.2752,-0.0868,0.1717,0.1566,358.82
18:27:30:524,-0.1753,1.2942,12.1287,54.9071,-0.139,0.1158,0.055,358.78
18:27:30:541,-0.3188,0.9518,12.3475,54.589,-0.1199,0.0151,-0.0866,358.58
18:27:30:561,-0.7274,0.2165,12.5396,54.3772,-0.0565,-0.0631,-0.184,358.47
18:27:30:581,-1.511,-1.095,12.6517,54.2499,0.0947,-0.0993,-0.11,358.54
18:27:30:601,-1.6577,-1.8882,12.0207,54.1333,0.3113,-0.1126,0.1188,358.73
18:27:30:624,-1.0462,-1.7348,10.6505,54.0318,0.4194,-0.1658,0.2791,358.84
18:27:30:642,-0.3562,-1.2627,9.4358,54.2708,0.2778,-0.2254,0.2934,358.69
18:27:30:662,0.1213,-0.949,9.2086,53.9903,0.0537,-0.2313,0.2051,358.35
18:27:30:681,0.3092,-0.9297,9.2728,53.8687,-0.1044,-0.2143,0.0992,358.03
18:27:30:701,0.1275,-1.041,9.0675,53.9297,-0.196,-0.1706,0.0289,357.82
18:27:30:723,-0.2557,-1.2127,8.7537,53.6287,-0.2221,-0.12,0.0406,357.73
18:27:30:742,-0.4968,-1.2339,8.3152,53.8476,-0.1832,-0.0833,0.1156,357.73
18:27:30:761,-0.6242,-0.9873,7.8244,54.0041,-0.098,-0.0988,0.1779,357.7
18:27:30:781,-0.7435,-0.7341,7.3884,53.7264,-0.0102,-0.1349,0.2498,357.56
18:27:30:801,-0.8722,-0.3687,6.9124,53.9277,0.0281,-0.193,0.3126,357.35
18:27:30:827,-0.8597,-0.0351,6.8977,53.8353,0.0398,-0.2239,0.3973,357.04
18:27:30:841,-0.1959,0.5633,6.8224,53.731,0.0079,-0.2409,0.402,356.68
18:27:30:861,0.5039,1.1588,7.2115,53.8231,-0.1055,-0.194,0.2594,356.22
18:27:30:881,0.5113,1.3056,7.8338,54.1216,-0.2221,-0.1019,0.0544,355.78
18:27:30:901,-0.0549,1.1265,8.8142,53.9497,-0.2529,-0.0141,-0.0536,355.53
18:27:30:924,-0.3631,1.0045,9.891,53.8698,-0.1246,0.0093,-0.0605,355.5
18:27:30:941,-0.3036,1.1453,10.1435,54.0284,0.067,-0.0035,-0.0675,355.58
18:27:30:961,-0.3195,1.2686,9.9219,53.8538,0.1266,0.0253,-0.0935,355.66
18:27:30:982,-0.4588,1.2315,10.0232,53.8201,0.1144,0.1333,-0.109,355.75
18:27:31:001,-0.8077,1.155,9.9352,53.8745,0.1037,0.2052,-0.0754,355.9
18:27:31:024,-0.8656,1.1414,9.758,53.6483,0.1293,0.0859,-0.0398,356.05
18:27:31:042,-0.8317,0.9951,9.7494,53.7977,0.1202,-0.1924,-0.0249,356.08
18:27:31:062,-0.8126,0.4381,10.5322,53.4485,0.1042,-0.3873,0.0555,356.01
18:27:31:082,-0.3057,0.0197,11.2379,53.1956,0.1735,-0.4054,0.204,355.97
18:27:31:102,0.5882,0.1553,10.3279,53.5138,0.0595,-0.4341,0.2035,355.91
18:27:31:124,1.4013,0.1461,9.9559,53.74,-0.4781,-0.3058,0.0246,355.67
18:27:31:142,1.5689,-0.6866,11.9632,53.8527,-0.9561,0.0668,-0.2101,355.47
18:27:31:161,0.463,-1.9792,13.8525,54.228,-0.8933,0.3015,-0.2868,355.57
18:27:31:181,-0.694,-2.8395,14.3288,54.029,-0.303,0.2771,-0.076,355.92
18:27:31:201,-0.5117,-2.3541,12.3494,53.7856,0.3438,0.1381,0.2519,356.28
18:27:31:225,1.1731,-0.9114,9.5138,53.1847,0.4753,0.0402,0.3206,356.36
18:27:31:245,2.5927,-0.0351,8.0983,52.9197,0.2049,0.0508,0.0534,356.04
18:27:31:261,2.5067,-0.0571,8.1964,52.5485,-0.1779,0.1818,-0.3043,355.66
18:27:31:283,1.1398,-0.8968,9.0338,52.3624,-0.3977,0.3234,-0.4603,355.63
18:27:31:302,-0.0887,-1.4202,9.6036,52.0717,-0.3679,0.342,-0.3608,356.03
18:27:31:321,-0.4605,-1.2133,9.6465,51.9124,-0.1843,0.2605,-0.1931,356.57
18:27:31:342,-0.4545,-0.7862,9.0468,52.0386,-0.0102,0.1514,-0.0728,356.96
18:27:31:362,-0.4446,-0.4054,8.3806,51.6828,0.0729,0.0945,0.0342,357.15
18:27:31:381,-0.5366,0.0167,8.0318,51.3688,0.1394,0.1136,0.1375,357.22
18:27:31:401,-0.5086,0.4593,7.4705,51.3272,0.1926,0.1466,0.2104,357.19
18:27:31:421,-0.4237,0.8442,6.9356,51.0613,0.149,0.1839,0.2365,357.05
18:27:31:442,-0.2922,1.1379,6.9312,50.964,0.0744,0.1631,0.2051,356.82
18:27:31:462,-0.3586,1.2992,7.1318,50.9148,0.0462,0.0694,0.1354,356.55
18:27:31:481,-0.514,1.2786,7.3954,50.8818,-0.0006,-0.0136,0.0885,356.27
18:27:31:501,-0.3386,1.1984,7.9067,50.4011,-0.0512,-0.0482,0.0576,356.08
18:27:31:521,0.0209,1.1872,8.6333,50.3884,-0.1001,-0.0067,0.0161,355.97
18:27:31:545,0.3211,1.1489,9.4607,50.1515,-0.0884,0.0657,-0.0536,355.92
18:27:31:561,0.0989,1.0626,10.186,49.7081,0.0281,0.1754,-0.084,355.93
18:27:31:581,-0.3353,1.1087,10.4491,49.7095,0.2176,0.2563,-0.0488,356.04
18:27:31:601,-0.7097,1.3008,10.0617,49.3293,0.3667,0.1871,-0.0057,356.17
18:27:31:621,-0.6816,1.2597,9.5636,49.1251,0.297,0.0343,-0.0004,356.2
18:27:31:642,-0.4779,0.8745,10.1596,48.7502,0.1287,-0.0737,-0.0403,356.14
18:27:31:661,-0.7917,0.3521,11.3135,48.6114,0.0414,-0.0402,-0.0419,356.1
18:27:31:681,-1.3437,0.0213,11.5798,48.4871,0.0079,0.078,0.0747,356.16
18:27:31:701,-0.9605,0.0065,11.476,48.4222,-0.0783,0.0726,0.146,356.26
18:27:31:721,-0.7308,-0.2169,11.7793,48.2176,-0.2077,-0.0402,0.0688,356.17
18:27:31:743,-0.9914,-0.846,12.6228,48.4311,-0.2465,-0.1179,-0.0126,355.96
18:27:31:761,-1.5384,-1.5901,12.9892,48.2865,-0.1576,-0.0492,0.0438,355.85
18:27:31:781,-1.7099,-1.6879,12.2492,48.3358,-0.0751,0.1072,0.212,355.89
18:27:31:802,-1.2035,-1.6116,11.0066,48.3091,-0.0884,0.1935,0.3163,355.9
18:27:31:821,-0.961,-1.4069,10.1745,48.2238,-0.0698,0.0844,0.3068,355.7
18:27:31:843,-1.0977,-1.2707,9.4188,48.2936,-0.024,-0.1397,0.2775,355.29
18:27:31:862,-0.9982,-1.1283,8.827,48.0918,-0.073,-0.2808,0.2695,354.85
18:27:31:881,-0.7341,-1.0415,8.8524,48.0695,-0.2029,-0.2531,0.2418,354.47
18:27:31:901,-0.6968,-1.0522,9.2307,47.8089,-0.2513,-0.1296,0.2179,354.17
18:27:31:920,-0.9996,-1.0195,9.0624,47.5556,-0.2002,-0.0434,0.2429,353.94
18:27:31:941,-1.1345,-0.8699,8.6207,47.6187,-0.1151,-0.0668,0.3052,353.72
18:27:31:961,-1.0258,-0.6563,8.2713,47.4815,-0.0043,-0.1408,0.3595,353.44
18:27:31:981,-0.8187,-0.3655,7.8849,47.5623,0.0899,-0.2084,0.3893,353.06
18:27:32:001,-0.429,-0.0941,7.7274,47.6365,0.1415,-0.2132,0.3919,352.62
18:27:32:025,-0.0296,0.316,7.7172,47.3366,0.158,-0.144,0.3398,352.17
18:27:32:041,-0.0275,0.5869,7.5198,47.485,0.1271,-0.0386,0.2636,351.75
18:27:32:061,-0.1829,0.7517,7.5159,47.3117,0.0963,-0.0045,0.204,351.39
18:27:32:081,-0.0999,0.9675,7.7355,47.4221,0.0947,-0.0636,0.121,351.1
18:27:32:102,-0.0086,1.1377,8.0192,47.3874,0.0654,-0.0924,-0.0201,350.85
18:27:32:121,-0.2236,1.0686,8.469,47.4956,0.0036,-0.0817,-0.1265,350.69
18:27:32:143,-0.6247,0.815,9.4118,47.8274,-0.0001,-0.0109,-0.1313,350.71
18:27:32:161,-1.0726,0.8031,10.0107,47.7191,0.1325,0.0013,-0.0733,350.89
18:27:32:182,-1.1973,0.8557,9.84,47.5873,0.2251,-0.0668,0.0076,351.05
18:27:32:201,-0.7185,0.9214,10.0177,47.5167,0.1783,-0.1376,0.0235,351.12
18:27:32:221,-0.3283,0.7536,10.5861,47.2071,0.0867,-0.1669,-0.0398,351.08
18:27:32:242,-0.1205,-0.1003,11.4699,47.5022,0.0335,-0.128,-0.052,351.03
18:27:32:261,0.2257,-0.7722,12.2646,47.6813,0.1303,-0.0035,0.0172,351.09
18:27:32:281,0.6183,-0.6083,11.132,47.4425,0.1303,0.1131,0.0321,351.21
18:27:32:301,1.2759,-0.2499,9.895,47.6901,-0.2503,0.1349,-0.1452,351.24
18:27:32:321,1.0381,-0.7469,10.8319,47.38,-0.6069,0.0801,-0.3964,351.18
18:27:32:343,0.0609,-1.5644,12.6564,46.9602,-0.5505,-0.0386,-0.5109,351.29
18:27:32:395,-0.9515,-2.592,13.2744,46.8769,-0.2737,0.0173,-0.3352,351.7
18:27:32:396,-0.9002,-2.6074,12.4257,46.9216,0.0462,0.1488,-0.0078,352.33
18:27:32:404,0.3532,-1.5802,10.3118,47.201,0.1426,0.1402,0.1417,352.8
18:27:32:426,1.8433,-0.6947,9.1733,46.9289,0.0068,0.0577,-0.0084,352.81
18:27:32:442,1.957,-0.6541,9.0921,46.8959,-0.1592,0.0391,-0.2996,352.61
18:27:32:461,0.8262,-1.1316,8.994,46.7555,-0.2976,0.1552,-0.438,352.6
18:27:32:481,-0.1595,-1.2883,8.7738,46.6379,-0.336,0.2403,-0.373,352.99
18:27:32:502,-0.4568,-1.0258,8.3777,46.7492,-0.262,0.1999,-0.266,353.53
18:27:32:521,-0.3691,-0.5038,8.2448,46.7782,-0.1379,0.0934,-0.1942,353.95
18:27:32:542,-0.1249,-0.1912,8.1986,47.0567,0.0063,0.0529,-0.1627,354.23
18:27:32:561,-0.0853,0.2062,8.0617,46.8402,0.1415,0.0711,-0.1542,354.44
18:27:32:582,-0.3622,0.3557,7.7637,46.8195,0.2427,0.1605,-0.1404,354.64
18:27:32:601,-0.6381,0.6061,7.1886,46.3589,0.2288,0.2451,-0.0893,354.86
18:27:32:621,-0.6128,0.897,7.0928,46.341,0.1788,0.26,-0.0542,355.07
18:27:32:642,-0.5245,1.0417,7.3248,45.9045,0.1777,0.1557,-0.085,355.18
18:27:32:662,-0.5029,1.0355,7.7713,45.5413,0.2246,-0.028,-0.1276,355.21
18:27:32:681,-0.3267,1.0749,8.2506,45.4578,0.2629,-0.1642,-0.1702,355.24
18:27:32:701,-0.0998,1.0582,9.0929,45.684,0.2704,-0.2473,-0.2016,355.33
18:27:32:721,0.3263,0.8114,10.4455,45.6128,0.4822,-0.449,-0.2383,355.49
18:27:32:743,0.7629,1.2532,10.5943,45.6733,0.931,-1.025,-0.2953,355.64
18:27:32:761,0.9266,2.352,9.8951,45.9615,1.0928,-1.4705,-0.4374,355.7
18:27:32:781,1.122,2.522,9.6474,46.4124,0.8101,-1.2651,-0.5694,355.92
18:27:32:801,1.1725,2.044,10.4357,46.777,0.2549,-0.3756,-0.6381,356.56
18:27:32:825,-0.0044,0.7474,11.505,47.1451,-0.1518,0.4729,-0.554,357.6
18:27:32:843,-1.7498,-0.4003,11.8218,47.4435,-0.1459,0.6449,-0.233,358.67
18:27:32:862,-2.027,-0.4901,11.2865,47.3581,-0.0719,0.2856,0.1252,359.33
18:27:32:881,-1.0565,-0.3697,12.0111,46.7806,-0.1188,0.0231,0.3222,359.4
18:27:32:901,-0.4058,-0.4089,12.996,46.3132,-0.1284,-0.0434,0.3605,359.13
18:27:32:921,-0.1923,-0.9199,13.5196,45.9236,-0.049,-0.0333,0.3371,358.73
18:27:32:943,-0.453,-1.5177,13.545,45.8661,0.1437,-0.0237,0.3983,358.33
18:27:32:961,-0.3625,-1.5975,12.4981,45.7216,0.3773,0.0498,0.4904,357.96
18:27:32:982,-0.1631,-1.2674,10.2434,45.8224,0.4316,0.1073,0.5351,357.55
18:27:33:001,0.0323,-0.628,8.3012,45.9372,0.2427,0.054,0.5234,357.01
18:27:33:021,0.4144,-0.0897,7.6312,45.502,-0.0064,-0.0636,0.4287,356.35
18:27:33:043,0.6413,0.1309,7.7722,45.5768,-0.1635,-0.1387,0.2934,355.68
18:27:33:062,0.3606,0.1102,7.7377,45.2585,-0.2625,-0.144,0.2115,355.16
18:27:33:081,0.2471,0.1657,7.7152,44.97,-0.312,-0.1333,0.2024,354.82
18:27:33:101,0.3527,0.2067,7.8334,45.0616,-0.3232,-0.1509,0.1923,354.59
18:27:33:121,0.485,-0.0545,8.5605,44.9674,-0.262,-0.1924,0.1822,354.36
18:27:33:143,0.3481,-0.2471,9.186,45.032,-0.0549,-0.2148,0.2035,354.14
18:27:33:163,0.3262,-0.142,8.9105,45.0033,0.1319,-0.1749,0.2562,353.95
18:27:33:181,0.3045,0.1543,8.2814,45.1415,0.2022,-0.0881,0.3153,353.77
18:27:33:202,0.4423,0.6244,7.746,45.08,0.2214,-0.0242,0.3419,353.53
18:27:33:222,0.6672,1.1019,7.3515,45.1743,0.1495,-0.0338,0.2839,353.2
18:27:33:243,0.4816,1.2278,8.1681,44.6576,0.1586,-0.1578,0.1832,352.8
18:27:33:261,0.2456,1.1423,9.0451,44.6029,0.3577,-0.2686,0.1353,352.43
18:27:33:281,0.0672,1.3178,8.8974,44.9436,0.4668,-0.2707,0.1369,352.21
18:27:33:302,0.1404,1.6742,8.7062,44.9917,0.4322,-0.1855,0.1625,352.1
18:27:33:321,0.2381,2.0548,8.8042,45.0311,0.4034,-0.2068,0.1513,351.99
18:27:33:343,0.4733,2.2822,8.7815,45.101,0.4998,-0.548,0.1077,351.81
18:27:33:361,0.8575,2.6898,8.8939,44.6942,0.511,-0.8791,-0.0073,351.55
18:27:33:382,1.1326,2.5852,9.7995,44.8897,0.3816,-0.9377,-0.1116,351.37
18:27:33:401,1.5107,2.0834,11.1769,45.0778,0.2059,-0.6146,-0.1521,351.45
18:27:33:421,1.7479,1.4189,12.4675,45.2103,0.0995,-0.1568,-0.1548,351.8
18:27:33:442,1.5427,0.9248,12.7411,45.5371,0.1814,0.1669,-0.0983,352.22
18:27:33:462,1.8312,1.1018,11.3207,45.8934,0.1469,0.2313,-0.0973,352.57
18:27:33:481,2.2664,1.2562,10.4938,46.0063,-0.1512,0.1605,-0.2149,352.67
18:27:33:501,2.4063,0.7497,11.4862,45.8471,-0.4302,0.1237,-0.3821,352.67
18:27:33:521,1.7868,-0.086,12.9627,45.8245,-0.3194,0.12,-0.463,352.83
18:27:33:543,0.916,-0.6586,12.5958,45.4536,0.0579,0.1887,-0.3374,353.28
18:27:33:561,0.8568,-0.0855,10.4118,45.1644,0.297,0.2329,-0.1601,353.89
18:27:33:581,1.7667,0.4583,7.9517,45.389,0.2129,0.078,-0.1308,354.3
18:27:33:601,2.4164,0.6134,6.9859,45.4246,-0.1257,-0.2686,-0.2713,354.37
18:27:33:621,2.3878,0.1337,7.5714,45.5001,-0.4658,-0.3974,-0.3986,354.31
18:27:33:642,1.8871,-0.1316,8.7738,45.6226,-0.7155,-0.1813,-0.3964,354.56
18:27:33:661,1.4068,-0.2888,10.011,45.717,-0.6064,0.0828,-0.3012,355.11
18:27:33:681,1.0927,0.0868,9.4279,45.9275,-0.2902,0.1887,-0.1803,355.71
18:27:33:702,1.2553,0.8105,8.1515,46.1774,-0.1102,0.1413,-0.1271,356.14
18:27:33:721,1.5475,1.3447,7.5947,46.378,-0.0597,0.1376,-0.1878,356.34
18:27:33:743,1.4564,1.6173,7.4232,46.4586,-0.0602,0.2073,-0.2878,356.48
18:27:33:762,1.068,1.6647,7.3457,46.3857,-0.041,0.2728,-0.3608,356.72
18:27:33:781,0.7254,1.7155,7.2368,46.3686,-0.0379,0.2909,-0.406,357.06
18:27:33:801,0.3389,1.7586,7.3475,46.4422,-0.0341,0.3037,-0.4199,357.46
18:27:33:821,0.0045,1.8659,7.4018,46.6862,-0.0496,0.3069,-0.4103,357.9
18:27:33:845,-0.1345,2.0312,7.4553,46.8327,-0.1108,0.2962,-0.3869,358.35
18:27:33:862,-0.2233,2.0837,7.9372,47.1075,-0.1922,0.2621,-0.3538,358.78
18:27:33:881,-0.2534,1.9735,8.9815,47.1986,-0.1842,0.2158,-0.2937,359.17
18:27:33:902,-0.253,1.8797,9.7071,47.0722,-0.0714,0.1946,-0.2032,359.53
18:27:33:921,-0.2569,1.973,9.952,47.4092,0.0425,0.2669,-0.0818,359.85
18:27:33:942,-0.2092,2.2256,9.8016,47.5041,0.083,0.2914,0.0172,0.1
18:27:33:961,0.0936,2.1036,10.0384,47.1132,0.0494,0.2478,0.0518,0.18
18:27:33:981,0.2299,1.4913,11.1447,47.3825,0.0904,0.111,0.0624,0.11
18:27:34:001,0.0682,0.9214,11.99,47.1223,0.2517,0.0088,0.1108,359.97
18:27:34:021,-0.3184,0.7795,11.4624,47.2037,0.2767,0.1381,0.2482,359.86
18:27:34:043,0.0406,0.9064,10.7145,47.3519,0.0691,0.26,0.3658,359.78
18:27:34:061,0.694,1.1137,11.0895,47.2133,-0.2023,0.2478,0.3222,359.51
18:27:34:081,0.8274,0.5486,12.2175,46.9462,-0.3327,0.1615,0.1726,359.04
18:27:34:101,0.0717,-0.5149,12.8644,46.7204,-0.2508,0.0705,0.1337,358.61
18:27:34:121,-0.8013,-1.2189,12.7463,46.6244,-0.0554,0.0332,0.2732,358.37
18:27:34:143,-0.8437,-1.2457,11.3794,46.5601,0.125,0.0375,0.4755,358.2
18:27:34:161,-0.3822,-0.7306,9.4819,46.6095,0.0484,0.0396,0.5841,357.89
18:27:34:181,0.1625,-0.1932,8.707,46.6029,-0.1959,-0.0445,0.5516,357.34
18:27:34:201,0.6565,-0.0891,8.8918,46.7023,-0.3759,-0.1791,0.4217,356.62
18:27:34:221,1.0951,-0.0253,9.2867,46.7067,-0.5239,-0.1552,0.2514,355.92
18:27:34:243,1.0762,-0.1994,10.0978,46.5367,-0.4962,0.0178,0.0912,355.46
18:27:34:265,0.4355,-0.4549,9.7877,46.845,-0.3109,0.1988,0.0486,355.26
18:27:34:281,-0.0181,-0.4327,8.776,47.0539,-0.1267,0.2265,0.1204,355.25
18:27:34:301,-0.0929,-0.1056,7.6694,47.58,0.0026,0.0609,0.1785,355.21
18:27:34:321,0.0112,0.2298,7.0646,47.8213,0.0409,-0.136,0.1966,355
18:27:34:343,0.1164,0.466,6.8843,47.9864,0.0053,-0.2457,0.1864,354.72
18:27:34:361,0.1378,0.5697,7.0072,48.0425,-0.0687,-0.2877,0.1737,354.45
18:27:34:381,0.0941,0.5658,7.6395,48.1759,-0.0996,-0.2973,0.1683,354.22
18:27:34:447,0.1194,0.6397,8.0841,48.321,-0.0874,-0.2797,0.1662,354.03
18:27:34:448,0.1984,0.8267,8.567,48.6205,-0.0331,-0.1978,0.1699,353.85
18:27:34:448,0.3542,1.1937,8.5279,48.8394,0.0148,-0.1376,0.1513,353.71
18:27:34:464,0.48,1.464,8.5764,48.5892,0.026,-0.1094,0.1018,353.56
18:27:34:481,0.4493,1.5993,8.7716,48.9088,0.0164,-0.0993,0.0667,353.41
18:27:34:501,0.7936,1.755,8.9085,48.8702,-0.0373,-0.1195,-0.002,353.3
18:27:34:521,1.1371,1.6561,9.4268,49.1295,-0.1331,-0.1589,-0.1484,353.21
18:27:34:543,0.9784,1.2129,10.5948,49.4866,-0.1704,-0.1312,-0.2799,353.19
18:27:34:561,0.3134,0.6383,11.6745,49.6961,-0.1118,-0.0753,-0.3102,353.38
18:27:34:582,-0.3326,-0.4402,12.6206,49.7162,0.1096,-0.1408,-0.1638,353.73
18:27:34:602,0.216,-0.4075,12.5412,50.1374,0.3486,-0.1605,0.0007,354.09
18:27:34:621,1.2471,-0.1232,10.8757,50.3877,0.1825,-0.2308,-0.0494,354.31
18:27:34:643,1.8061,-0.2104,10.8069,50.9348,-0.4919,-0.1621,-0.2341,354.27
18:27:34:664,1.4183,-1.3459,14.2871,51.3565,-0.7591,0.0253,-0.3443,354.26
18:27:34:681,0.1311,-2.1611,16.1634,51.9658,-0.1427,0.2073,-0.1361,354.58
18:27:34:701,0.0545,-1.5631,13.0909,52.6078,0.5743,0.1844,0.2029,355.14
18:27:34:721,1.5949,-0.3805,9.4419,53.1301,0.7223,0.0088,0.2796,355.37
18:27:34:743,2.9246,0.4024,7.7576,53.2483,0.4317,-0.136,0.0582,355.08
18:27:34:761,3.0724,0.4783,7.8579,52.9388,0.0574,-0.0892,-0.2831,354.67
18:27:34:781,2.0854,-0.0004,8.4151,53.0488,-0.1773,0.0444,-0.5167,354.59
18:27:34:801,1.163,-0.4,8.4319,52.8658,-0.2609,0.1647,-0.5556,354.94
18:27:34:821,0.49,-0.4206,8.1431,53.3553,-0.2556,0.2073,-0.4907,355.58
18:27:34:844,0.3786,-0.2046,7.8976,54.1314,-0.1949,0.152,-0.4012,356.22
18:27:34:861,0.31,0.1038,7.5809,54.8847,-0.1443,0.087,-0.3368,356.76
18:27:34:881,0.2991,0.3765,7.5366,55.1816,-0.0666,0.0141,-0.2831,357.2
18:27:34:902,0.2299,0.6684,7.4776,55.6331,0.0681,-0.0274,-0.2639,357.56
18:27:34:921,0.2,0.7907,7.1767,55.5725,0.1474,-0.0146,-0.2687,357.88
18:27:34:943,-0.0184,0.8027,6.9019,55.5992,0.1,0.0599,-0.2522,358.2
18:27:34:961,-0.272,0.8474,7.1805,55.6023,0.0063,0.0993,-0.1979,358.53
18:27:34:981,-0.2433,0.8911,7.8354,55.8342,-0.0208,0.0833,-0.1292,358.83
18:27:35:001,-0.0906,1.0078,8.53,55.7734,-0.0048,0.0412,-0.0824,359.04
18:27:35:021,0.1516,1.1428,9.2109,55.8829,0.0542,0.0221,-0.0717,359.17
18:27:35:042,0.2932,1.3126,9.7097,56.2012,0.1591,0.0428,-0.0829,359.26
18:27:35:062,-0.009,1.5,9.7183,56.2749,0.2459,0.1445,-0.0494,359.36
18:27:35:081,-0.1692,1.8617,9.2589,56.6383,0.1591,0.3111,0.0182,359.5
18:27:35:101,-0.0552,2.0313,9.5986,56.9482,-0.0128,0.3505,0.0358,359.6
18:27:35:121,0.129,1.6141,10.7639,56.8585,-0.0373,0.1972,-0.0185,359.57
18:27:35:143,-0.1627,0.5527,11.7905,56.9349,0.0622,0.0567,-0.0243,359.45
18:27:35:161,-0.6745,-0.0484,11.8267,57.365,0.1192,0.1035,0.1316,359.4
18:27:35:182,-0.5731,0.0127,11.1852,57.1709,-0.04,0.1988,0.3397,359.45
18:27:35:201,0.1546,0.5974,11.4348,57.2236,-0.3189,0.2345,0.4233,359.32
18:27:35:222,0.5324,0.5844,12.4941,57.1249,-0.4264,0.1456,0.3163,358.91
18:27:35:243,0.2446,-0.3482,13.1515,57.2119,-0.3466,0.0029,0.2088,358.38
18:27:35:262,-0.2495,-1.2282,13.2554,57.4387,-0.1965,-0.1541,0.228,357.95
18:27:35:281,-0.3921,-1.7517,13.044,57.4269,0.0766,-0.2047,0.3163,357.66
18:27:35:302,-0.3167,-1.6741,11.2367,57.6201,0.2006,-0.07,0.4058,357.4
18:27:35:321,-0.2609,-1.186,9.4872,57.8455,0.0968,0.0332,0.4398,357.11
18:27:35:346,-0.0832,-0.8019,8.6291,57.868,-0.0315,-0.0146,0.4212,356.68
18:27:35:361,0.1698,-0.5671,8.6004,57.9441,-0.0826,-0.161,0.3754,356.14
18:27:35:381,0.2486,-0.4555,8.7593,58.2706,-0.0581,-0.2308,0.3334,355.59
18:27:35:401,0.0536,-0.4119,8.6782,58.4894,0.0149,-0.234,0.3573,355.14
18:27:35:421,0.0002,-0.2148,8.1983,58.4454,0.092,-0.2265,0.4074,354.77
18:27:35:441,0.191,0.0672,7.6014,58.3623,0.092,-0.2169,0.4334,354.38
18:27:35:464,0.3654,0.3515,7.3194,58.1459,0.0851,-0.235,0.402,353.92
18:27:35:481,0.4173,0.4873,7.12,58.4124,0.0596,-0.3058,0.3456,353.43
18:27:35:502,0.3788,0.5198,7.3675,58.2498,0.034,-0.3314,0.3121,352.94
18:27:35:521,0.3605,0.5332,7.7654,58.4738,0.0478,-0.3021,0.2902,352.54
18:27:35:542,0.4127,0.6188,7.7651,58.5575,0.0505,-0.259,0.2626,352.21
18:27:35:562,0.4305,0.811,7.9085,58.4712,0.0351,-0.2127,0.2328,351.91
18:27:35:581,0.4893,1.0891,8.2901,58.5674,0.0478,-0.1844,0.1896,351.63
18:27:35:601,0.5244,1.2695,8.6968,58.9175,0.1341,-0.2159,0.1359,351.39
18:27:35:621,0.5187,1.5929,8.8045,59.151,0.2028,-0.2238,0.081,351.18
18:27:35:643,0.6481,2.0078,8.7879,59.1955,0.1852,-0.1781,0.0289,351.05
18:27:35:662,0.7357,2.2732,8.9132,59.3373,0.0723,-0.1195,-0.0632,350.98
18:27:35:681,0.7808,2.0793,9.6615,59.4433,-0.0794,-0.1094,-0.1643,350.96
18:27:35:701,0.6452,1.3785,10.9456,59.5879,-0.1555,-0.1003,-0.2202,351.02
18:27:35:721,0.346,0.4745,12.0834,59.8969,-0.1241,-0.0844,-0.1707,351.2
18:27:35:743,0.3414,-0.0772,12.501,60.1994,0.0053,-0.0615,-0.0227,351.47
18:27:35:761,0.8664,0.0376,11.5754,60.3831,-0.0054,-0.0434,0.0858,351.7
18:27:35:781,1.8469,0.1715,10.9872,60.5476,-0.2098,-0.1211,0.0523,351.73
18:27:35:801,2.4727,-0.479,11.9861,60.9084,-0.5089,-0.1419,-0.1244,351.56
18:27:35:821,1.8365,-1.6635,14.0896,61.2726,-0.3897,-0.1105,-0.1761,351.44
18:27:35:845,1.1371,-2.1845,14.3084,61.7517,0.0803,0.0748,0.0065,351.63
18:27:35:862,1.7566,-1.5068,11.549,62.0402,0.3976,0.1977,0.1497,352.01
18:27:35:882,2.8353,-0.6827,9.0688,62.0401,0.3625,0.1429,0.0619,352.11
18:27:35:901,3.1941,-0.2574,7.7989,62.0589,0.1027,0.0056,-0.1995,351.9
18:27:35:921,2.5232,-0.4971,8.1827,61.9934,-0.173,-0.0226,-0.4172,351.73
18:27:35:941,1.5366,-0.9773,8.4353,62.0202,-0.3658,0.0183,-0.4731,351.9
18:27:35:963,0.8264,-1.1041,8.8274,62.148,-0.4621,0.0977,-0.3725,352.36
18:27:35:981,0.7573,-0.7631,9.102,62.3682,-0.3796,0.1663,-0.2234,352.92
18:27:36:002,1.098,-0.1989,8.8356,62.5049,-0.2039,0.1546,-0.143,353.39
18:27:36:021,1.3457,0.3739,8.3507,62.7613,0.0101,0.1003,-0.1484,353.67
18:27:36:041,1.3324,0.8416,7.3547,63.2414,0.124,0.0599,-0.1835,353.85
18:27:36:061,1.3465,1.1758,6.7333,63.7037,0.1085,0.0332,-0.2437,354.02
18:27:36:081,1.0666,1.2349,6.6199,64.1072,0.0149,0.0737,-0.3118,354.22
18:27:36:101,0.6572,1.0625,7.3342,64.3852,-0.04,0.1232,-0.3326,354.51
18:27:36:121,0.4499,0.8445,7.9583,64.4508,0.0649,0.1099,-0.3086,354.88
18:27:36:143,0.3818,0.9223,8.0911,64.5587,0.1634,0.046,-0.2846,355.27
18:27:36:161,0.2806,0.9921,8.43,64.3901,0.1926,0.0338,-0.2293,355.61
18:27:36:182,0.5353,1.2172,8.8392,64.316,0.2028,0.1158,-0.1856,355.94
18:27:36:201,0.5794,1.378,9.1909,64.5219,0.1905,0.276,-0.1723,356.23
18:27:36:221,0.1273,1.5464,9.4437,64.4065,0.224,0.3846,-0.1191,356.51
18:27:36:243,-0.0986,1.7576,9.348,64.6707,0.231,0.4006,-0.0233,356.74
18:27:36:261,0.3378,1.8018,9.5147,64.7503,0.1559,0.2659,0.0071,356.86
18:27:36:281,0.7623,1.2633,10.5825,64.6844,0.067,0.1099,-0.0664,356.81
18:27:36:301,0.6197,0.5282,11.8022,64.3585,0.059,0.128,-0.0967,356.71
18:27:36:321,0.2059,0.0902,11.3269,64.4736,-0.0288,0.293,-0.0036,356.79
18:27:36:343,0.4662,0.1803,11.1156,64.4734,-0.2907,0.2808,0.0672,356.95
18:27:36:361,0.7437,0.2205,12.4579,64.4647,-0.4067,0.1679,0.0039,356.91
18:27:36:381,0.175,-0.6506,13.6677,64.2792,-0.2476,0.0535,-0.0014,356.76
18:27:36:401,-0.5262,-1.1156,13.4993,64.5618,0.0814,0.0397,0.1864,356.72
18:27:36:422,-0.2648,-0.6696,11.7259,64.3782,0.2453,0.0599,0.3568,356.74
18:27:36:444,0.653,-0.3008,10.4671,64.424,0.1735,-0.0114,0.3105,356.54
18:27:36:501,0.8202,-0.4561,9.9355,64.487,-0.0224,-0.1296,0.13,356.1
18:27:36:502,0.4824,-0.8494,10.4931,64.4867,-0.1411,-0.2473,0.0007,355.68
18:27:36:502,0.0124,-1.0792,10.8168,64.6121,-0.0905,-0.2425,-0.0307,355.47
18:27:36:521,-0.4481,-1.0404,10.1557,64.9437,-0.0512,-0.0732,0.0741,355.49
18:27:36:542,-0.4928,-0.5728,9.0112,65.0664,-0.033,0.0694,0.188,355.61
18:27:36:561,-0.3562,-0.0578,7.8898,65.0717,-0.0304,0.0636,0.2493,355.59
18:27:36:584,-0.269,0.2462,7.2314,65.1935,-0.032,-0.0721,0.2849,355.36
18:27:36:601,-0.1474,0.3816,7.276,64.8552,0.034,-0.21,0.3222,355.02
18:27:36:622,-0.0345,0.5507,7.2409,64.7908,0.1309,-0.2744,0.3541,354.64
18:27:36:643,0.0882,0.7119,7.1035,64.8785,0.198,-0.3085,0.369,354.27
18:27:36:663,0.3463,0.9472,7.0927,64.7885,0.2001,-0.3138,0.328,353.87
18:27:36:681,0.4108,1.0448,7.4258,64.6387,0.1932,-0.2781,0.2604,353.45
18:27:36:702,0.3476,1.0745,7.7631,64.5165,0.1857,-0.2254,0.1976,353.11
18:27:36:721,0.3226,1.1315,8.0856,64.3189,0.1863,-0.1898,0.1444,352.84
18:27:36:743,0.3199,1.201,8.4495,64.2262,0.1841,-0.1477,0.0864,352.65
18:27:36:761,0.2247,1.3309,8.7932,64.3043,0.1985,-0.0524,0.0613,352.51
18:27:36:784,0.1894,1.7164,8.8043,64.3197,0.2086,0.054,0.0539,352.46
18:27:36:801,0.2473,2.146,8.778,64.3937,0.1703,0.0679,0.0071,352.44
18:27:36:821,0.3881,2.3016,8.8827,64.7725,0.0766,-0.0327,-0.0829,352.37
18:27:36:844,0.5077,1.8473,9.9378,64.9188,-0.0852,-0.0897,-0.1633,352.31
18:27:36:861,0.5285,0.7346,11.6175,65.007,-0.1209,-0.0998,-0.159,352.36
18:27:36:882,0.5164,0.0335,12.4097,64.8679,-0.0075,-0.0295,-0.0078,352.54
18:27:36:901,1.2155,-0.0387,11.4058,64.7223,-0.0969,0.0162,0.0763,352.77
18:27:36:921,2.2972,-0.1086,10.889,64.652,-0.5137,0.0109,-0.0052,352.78
18:27:36:944,2.4658,-1.0624,12.7197,64.6973,-0.8321,0.0146,-0.1755,352.62
18:27:36:961,1.6627,-2.0888,14.452,64.7974,-0.6277,-0.0019,-0.1707,352.58
18:27:36:986,1.3392,-2.4384,14.0967,65.0457,-0.0666,0.0668,0.0448,352.81
18:27:37:001,2.2535,-1.464,10.8734,65.3133,0.2288,0.1014,0.1561,353.13
18:27:37:021,3.5246,-0.5253,8.7063,65.1391,0.1192,0.0551,-0.0201,353.14
18:27:37:044,3.5814,-0.0949,8.0667,65.0928,-0.2055,0.0418,-0.3389,352.92
18:27:37:062,2.5154,-0.4907,9.1795,64.8611,-0.4019,0.0828,-0.5593,352.89
18:27:37:081,1.1408,-0.8326,9.9023,64.6543,-0.3482,0.152,-0.5561,353.27
18:27:37:102,0.3346,-0.7326,9.8525,64.8934,-0.1757,0.186,-0.4225,353.95
18:27:37:121,0.1623,-0.413,9.0243,65.2856,-0.0261,0.1738,-0.3006,354.63
18:27:37:144,0.1376,-0.0496,8.3364,65.0753,0.05,0.1152,-0.2224,355.13
