Time,Acc_X,Acc_Y,Acc_Z,Meg,Gyr_X,Gyr_Y,Gyr_Z,Ore
15:54:22:939,-1.127,3.8644,8.6596,64.9718,-0.0064,0.0549,0.1125,98.3397
15:54:22:957,-1.2132,4.0343,8.7386,64.1689,-0.0064,0.0549,0.1125,97.8285
15:54:22:976,-1.2778,4.0726,8.6596,63.6065,0.018,-0.0368,0.0441,97.4848
15:54:23:005,-1.3831,4.0582,8.7529,65.4876,-0.0333,0.0231,0.049,97.2687
15:54:23:016,-1.328,4.0128,8.9372,65.1536,-0.065,0.0145,0.0575,97.2465
15:54:23:034,-1.1486,3.9912,9.2531,63.8283,-0.0565,-0.0209,0.0636,97.4003
15:54:23:055,-1.2156,3.9266,9.119,63.1587,0.0009,-0.0502,0.0416,97.5308
15:54:23:082,-1.3017,3.9577,8.8798,65.1537,0.0547,-0.0893,0.0184,97.5511
15:54:23:092,-1.2419,3.9673,8.7864,65.0294,0.0388,-0.1052,0.0294,97.5255
15:54:23:113,-1.2778,3.9577,8.7601,62.6397,0.0095,-0.0844,0.0392,97.4987
15:54:23:132,-1.261,3.8548,9.2076,63.6065,-0.0223,-0.1113,0.0416,97.6724
15:54:23:149,-1.1581,3.8548,9.4158,64.7135,0.0022,-0.1626,0.0551,97.9064
15:54:23:168,-1.0026,3.9314,8.8295,65.1526,0.0852,-0.1443,0.066,97.9078
15:54:23:192,-1.0313,4.0319,8.4802,65.7297,0.095,-0.0942,0.0465,97.7687
15:54:23:211,-1.1462,3.9817,8.9013,63.6065,0.0131,-0.0722,0.0147,97.7946
15:54:23:226,-1.3376,3.8812,8.9157,64.942,-0.0308,-0.1113,-0.0109,97.8545
15:54:23:247,-1.3185,3.8931,8.7697,63.7236,-0.0211,-0.1858,0.0013,97.9085
15:54:23:276,-1.0457,3.9027,8.8606,65.0945,-0.037,-0.2591,0.0477,97.9996
15:54:23:293,-0.8064,3.9841,9.2004,64.5074,-0.0345,-0.253,0.0709,98.0519
15:54:23:309,-0.7561,3.9912,9.0592,64.9764,0.0119,-0.2102,0.0355,98.1593
15:54:23:324,-1.0935,4.0247,8.2481,64.7183,0.0681,-0.1711,-0.0317,98.1797
15:54:23:344,-1.0744,3.9841,7.858,64.9433,0.0058,-0.1846,-0.0329,98.1288
15:54:23:378,-0.9236,4.0702,8.5591,64.2186,-0.1628,-0.2286,0.0147,98.1479
15:54:23:384,-0.7394,3.9888,8.93,65.1687,-0.2336,-0.2408,0.0355,98.2014
15:54:23:414,-0.5145,3.9769,8.7984,63.0734,-0.175,-0.2738,0.0269,98.2477
15:54:23:424,-0.5192,4.0439,8.3773,62.8657,-0.1212,-0.3239,-0.0024,98.2919
15:54:23:446,-0.4762,4.1444,8.2289,65.6678,-0.1371,-0.2188,-0.0073,98.2722
15:54:23:477,-0.6891,4.1946,8.5424,65.0455,-0.1982,-0.0453,0.0025,98.1449
15:54:23:484,-1.4955,4.41,8.875,66.1906,-0.2116,-0.1382,-0.0048,98.0337
15:54:23:519,-1.6439,4.264,8.4347,63.8725,-0.1615,-0.5988,0.0709,98.0398
15:54:23:525,-1.2467,3.9721,8.0542,64.0702,-0.1774,-0.9311,0.1626,98.1577
15:54:23:545,-1.1103,3.8524,8.3318,63.8165,-0.2874,-0.8284,0.1882,98.2341
15:54:23:567,-1.1797,3.673,8.4514,64.9589,-0.3448,-0.4644,0.2725,98.0858
15:54:23:598,-1.0457,3.8548,9.0114,64.2899,-0.2837,-0.0697,0.4484,97.6094
15:54:23:603,-0.7155,4.2138,8.7266,64.6606,-0.142,0.1575,0.5608,96.8424
15:54:23:632,-0.8303,4.7689,7.9992,63.6929,0.0009,0.3029,0.5242,95.8994
15:54:23:643,-0.9117,4.9484,7.3436,64.3301,0.0498,0.5069,0.4155,94.934
15:54:23:664,-1.4189,4.8144,7.1833,63.2556,-0.0944,0.7219,0.2505,94.0526
15:54:23:688,-2.2947,4.5488,7.724,65.9382,-0.3705,0.761,0.1039,93.4066
15:54:23:706,-2.8235,4.0965,9.1549,64.9488,-0.6368,0.5399,0.1039,92.968
15:54:23:722,-2.4431,3.752,11.0166,64.8713,-0.77,0.2247,0.2908,92.6325
15:54:23:743,-1.1749,3.5533,10.2676,63.8796,-0.2886,-0.1883,0.5767,92.1991
15:54:23:762,-0.6676,3.2806,9.6861,63.5963,-0.0272,-0.0209,0.6048,91.7097
15:54:23:786,-0.5527,3.606,8.9539,63.5616,0.095,0.0781,0.6134,90.4216
15:54:23:803,-0.9021,3.9003,8.4036,64.8943,0.1426,0.1685,0.5608,89.6884
15:54:23:825,-1.4309,4.1994,8.193,65.6164,0.1549,0.2552,0.4814,88.9488
15:54:23:845,-1.2227,4.2951,7.7719,65.1779,0.1292,0.2137,0.5144,88.1586
15:54:23:869,-0.6867,4.3908,7.7145,66.3199,0.0364,0.1831,0.5975,87.3075
15:54:23:883,-0.5145,4.3573,8.4467,64.9788,-0.1298,0.2271,0.5828,86.4904
15:54:23:905,-0.2584,4.1013,9.3966,66.6558,-0.2752,0.155,0.4814,85.879
15:54:23:923,-0.3206,3.7974,9.7819,63.7147,-0.2849,0.0671,0.3483,85.498
15:54:23:942,-0.9021,3.7304,10.3681,63.3243,-0.2116,0.0842,0.2359,85.2847
15:54:23:966,-1.3185,3.6802,10.191,63.9271,-0.0626,0.0744,0.198,85.1027
15:54:23:984,-1.2778,3.7208,9.7316,65.4535,0.1084,0.061,0.2469,84.8607
15:54:24:007,-1.0911,3.8692,9.064,66.3734,0.1768,-0.0429,0.2921,84.5367
15:54:24:046,-0.6054,3.9482,8.8798,65.2213,0.1182,-0.0856,0.3006,83.8918
15:54:24:051,-0.5384,4.0534,9.3512,65.0919,0.0119,-0.0087,0.2688,83.6498
15:54:24:070,-0.7753,3.9194,9.7819,64.1444,-0.043,0.0988,0.1992,83.3518
15:54:24:087,-0.2919,3.8453,9.5474,63.6168,0.0009,0.2039,0.22,83.0376
15:54:24:106,0.079,3.6945,9.4229,66.2217,-0.037,0.1355,0.1797,82.7864
15:54:24:126,0.0957,3.5486,10.0714,67.0451,-0.1335,0.0268,0.1137,82.6858
15:54:24:147,-0.1316,3.2279,10.7031,65.2076,-0.1408,-0.1834,0.0868,82.7562
15:54:24:165,-0.3063,2.9169,10.6002,65.2213,-0.0101,-0.424,0.1235,82.9218
15:54:24:187,0.1125,2.881,11.3468,64.7756,0.0913,-0.5719,0.132,83.1479
15:54:24:205,0.9117,2.3569,11.3444,65.0276,0.1366,-0.7392,0.1406,83.4621
15:54:24:223,1.1366,2.2732,11.196,63.5811,0.2135,-0.7295,0.1491,83.7599
15:54:24:244,1.3687,2.3402,11.3204,65.4716,0.365,-0.402,0.1442,83.9315
15:54:24:270,1.1486,2.5914,9.8393,62.9385,0.6753,0.0268,0.1247,83.8954
15:54:24:285,0.9428,2.9862,8.0758,66.5472,0.8745,0.3444,0.1051,83.6851
15:54:24:303,0.7633,3.2495,7.2383,67.8918,0.7462,0.3248,0.0868,83.431
15:54:24:324,0.6963,3.3117,7.8174,66.0572,0.4737,0.2027,0.0551,83.2848
15:54:24:343,0.0718,3.3643,7.7121,68.0604,0.2783,0.1453,0.0196,83.2012
15:54:24:364,-0.4666,3.4911,7.8317,68.0604,0.1585,0.2674,0.0722,83.0111
15:54:24:385,-0.3374,3.6084,8.1499,67.5067,0.029,0.3346,0.2542,82.6098
15:54:24:404,0.7394,3.7208,8.2792,68.8206,-0.0492,0.2308,0.424,82.0865
15:54:24:425,1.3615,3.7711,8.7195,67.4896,-0.0968,0.0536,0.4277,81.647
15:54:24:454,1.4357,3.7591,9.4421,68.4086,-0.1041,-0.06,0.286,81.4053
15:54:24:471,1.139,3.7878,9.2004,69.5148,0.0388,-0.1846,0.1369,81.3638
15:54:24:486,0.4834,4.0319,8.3964,67.2153,0.1756,-0.3141,0.0807,81.4301
15:54:24:504,0.0383,4.2568,8.1356,67.0578,0.1756,-0.3324,0.165,81.3758
15:54:24:523,0.6532,4.4507,7.8963,67.1175,0.1366,-0.2982,0.3299,81.109
15:54:24:543,1.2203,4.4578,7.5015,65.3046,0.0535,-0.1956,0.4277,80.6902
15:54:24:563,0.8542,4.2664,7.3986,65.0304,-0.026,0.1233,0.4106,80.1836
15:54:24:582,0.6437,4.2712,7.5996,63.8551,-0.1261,0.3444,0.4338,79.5383
15:54:24:605,0.6939,4.3358,7.7551,65.6258,-0.1835,0.3859,0.4888,78.8303
15:54:24:625,0.5456,4.5488,7.8724,63.9483,-0.1603,0.3334,0.49,78.1279
15:54:24:644,0.4857,4.4243,8.3629,64.3585,-0.1029,0.2124,0.479,77.5312
15:54:24:670,0.5145,3.8692,8.4658,64.5456,0.0962,0.2845,0.5083,76.9721
15:54:24:686,0.1675,3.9386,7.6714,65.9495,0.1353,0.3432,0.4912,76.3188
15:54:24:702,0.5432,4.0726,8.2409,64.7723,0.0034,0.2992,0.5156,75.6917
15:54:24:722,0.859,3.874,9.2291,66.8751,-0.1505,0.2589,0.5107,74.425
15:54:24:742,0.926,3.9984,9.9398,65.4396,-0.1933,0.2515,0.4264,73.9225
15:54:24:765,0.1149,4.0534,9.1382,67.8239,-0.1273,0.2186,0.264,73.5778
15:54:24:789,-0.7298,3.8596,8.7529,67.0847,-0.1884,0.2088,0.165,73.3451
15:54:24:803,-0.9117,3.3691,10.3825,66.3651,-0.511,0.2259,0.253,73.0799
15:54:24:823,-1.0624,2.8881,11.7799,65.4514,-0.6906,0.3493,0.4167,72.674
15:54:24:843,-1.1821,3.3691,11.8995,65.595,-0.4804,0.5655,0.5804,71.9801
15:54:24:971,-1.0959,3.7304,10.3226,65.2639,-0.0235,0.6547,0.6745,71.098
15:54:24:971,-0.7059,3.8572,8.7458,65.1005,0.205,0.4263,0.7001,70.2281
15:54:24:972,-0.347,3.4768,9.0257,63.9181,0.0425,0.1184,0.6512,69.5628
15:54:24:980,-0.5025,3.1035,10.2939,62.5775,-0.2434,0.0182,0.5926,69.0528
15:54:24:981,-0.3063,2.4072,11.2798,61.6293,-0.3375,0.1501,0.5779,68.5407
15:54:24:981,0.4475,1.8568,11.988,62.1188,-0.2752,0.2186,0.5572,68.0549
15:54:24:992,0.4929,2.2014,11.4688,64.2966,-0.0834,0.2002,0.4692,67.6248
15:54:25:003,0.0431,2.7278,9.466,64.0628,0.1866,0.2552,0.3666,67.2209
15:54:25:023,-0.2082,3.1777,7.7336,62.1188,0.2526,0.2296,0.3446,66.8077
15:54:25:042,-0.1603,3.2997,7.3388,63.7945,0.0999,0.1795,0.3715,66.3651
15:54:25:063,-0.2058,3.4409,7.6116,63.5051,-0.0834,0.1294,0.3446,65.9658
15:54:25:085,-0.1077,3.4552,7.7121,62.7934,-0.1444,0.1294,0.2994,65.6158
15:54:25:105,-0.0359,3.3858,7.7671,62.6746,-0.1481,0.1306,0.2444,65.3183
15:54:25:125,0.0455,3.3547,7.7121,63.9145,-0.1249,-0.0612,0.1003,65.0366
15:54:25:144,-0.4618,3.3571,7.803,63.0504,-0.1652,-0.341,0.0831,65.0976
15:54:25:163,-0.3183,3.5055,8.3653,63.4173,-0.2019,-0.3911,0.1638,65.1122
15:54:25:187,-0.0598,3.6514,8.5424,63.1354,-0.0589,-0.2518,0.253,64.9543
15:54:25:205,0.0048,3.8166,8.6333,63.9145,0.0877,-0.1492,0.22,64.8003
15:54:25:223,0.0814,3.8118,8.6094,63.6825,0.2526,-0.1284,0.1858,64.674
15:54:25:243,0.0455,3.8835,8.2983,63.5103,0.3699,-0.1601,0.1161,64.6267
15:54:25:263,-0.2465,3.9865,8.0184,61.1138,0.3479,-0.3385,0.0697,64.7112
15:54:25:284,-0.4762,3.9338,8.0877,63.0718,0.2404,-0.3556,0.0734,64.796
15:54:25:306,-0.6006,4.0152,8.5687,64.539,0.1048,-0.198,0.1174,64.8079
15:54:25:325,-0.8997,4.4459,9.4134,64.0707,-0.0565,-0.0673,0.1467,64.7371
15:54:25:342,-0.2513,4.5631,9.789,63.0504,-0.1811,-0.1015,0.2029,64.5861
15:54:25:362,1.785,3.271,9.9015,62.3858,-0.3729,-0.2958,0.2224,64.5049
15:54:25:385,1.8066,1.1007,12.6963,62.7957,-0.7333,-0.264,0.1467,64.6355
15:54:25:402,1.5266,0.2943,15.1896,64.9048,-0.9398,-0.2237,0.2359,64.7138
15:54:25:423,1.6176,1.4046,15.7185,62.7957,-0.6099,0.0231,0.3983,64.4717
15:54:25:443,2.6058,1.3089,13.2658,64.7141,0.073,-0.0441,0.4888,64.1179
15:54:25:462,3.1872,1.5051,11.5765,64.1987,0.3589,-0.4619,0.3849,63.9617
15:54:25:483,2.9145,1.7252,10.0834,62.621,0.3516,-0.5719,0.2261,64.0104
15:54:25:503,2.8642,2.1942,9.6383,62.6237,0.2282,-0.4008,0.1369,64.059
15:54:25:524,2.8786,2.4885,9.344,65.4923,0.0938,-0.176,0.0831,64.0812
15:54:25:542,2.4096,2.5125,8.8774,62.9604,0.084,-0.1455,-0.0537,64.229
15:54:25:565,1.4812,2.455,8.461,63.5374,0.1378,-0.2897,-0.2174,64.6326
15:54:25:586,0.2847,2.668,7.212,64.3979,0.3161,-0.3813,-0.1954,65.16
15:54:25:608,0.2943,2.9408,6.6138,62.0923,0.3882,-0.264,-0.0744,65.7662
15:54:25:633,0.5886,3.1418,5.6279,64.0487,0.3772,-0.121,0.0184,65.8177
15:54:25:642,0.5862,3.1872,5.9605,63.5374,0.2306,0.1062,0.0868,65.7167
15:54:25:665,0.4044,3.0437,7.1809,62.2639,0.0376,0.2638,0.1271,65.5213
15:54:25:682,0.4546,2.7494,7.9872,61.3691,-0.0125,0.1856,0.1662,65.3647
15:54:25:703,0.2417,2.6895,8.4203,63.3641,0.04,0.1318,0.2334,65.1851
15:54:25:724,0.5743,2.8857,7.937,63.1005,0.1463,0.2589,0.3776,64.7767
15:54:25:743,1.3591,3.0652,7.9968,62.7633,0.1524,0.4275,0.5107,64.1274
15:54:25:764,1.6128,3.082,8.741,62.54,0.084,0.5326,0.5144,63.4339
15:54:25:786,1.2036,3.326,9.5186,62.2732,0.0791,0.6242,0.4558,62.7799
15:54:25:804,0.8686,3.338,9.5115,63.0366,0.1414,0.4934,0.4155,62.2253
15:54:25:823,1.2514,3.3428,9.2387,63.8081,0.1805,0.1575,0.4142,61.8119
15:54:25:842,1.4524,3.716,8.9994,63.0262,0.0706,0.0402,0.4472,61.3821
15:54:25:864,1.3232,3.1466,9.0281,64.623,-0.1774,0.3505,0.4326,60.8853
15:54:25:883,1.9813,2.3282,11.0788,62.4284,-0.5708,0.5387,0.4326,60.3431
15:54:25:903,1.3161,2.3258,13.9908,62.4843,-0.748,0.579,0.3971,59.8888
15:54:25:922,-0.0933,2.79,13.3113,64.2966,-0.3472,0.5875,0.2994,59.5112
15:54:25:943,-0.4881,3.1178,9.8967,62.189,0.1781,0.3065,0.3067,59.1955
15:54:25:964,0.2752,2.6584,9.0808,62.4844,0.1133,0.188,0.3971,58.8299
15:54:25:988,0.8925,1.943,10.8467,62.4263,-0.3143,0.3456,0.4509,58.3617
15:54:26:003,1.2514,1.5649,12.1866,64.6398,-0.5012,0.4287,0.402,57.9456
15:54:26:024,1.0193,1.6893,11.6913,64.5137,-0.2886,0.309,0.2872,57.6732
15:54:26:042,0.2273,2.1464,8.4156,61.2056,0.2147,-0.0869,0.11,57.546
15:54:26:063,0.2608,2.2445,8.205,63.0519,0.1475,-0.1284,0.1198,57.5794
15:54:26:088,0.3206,2.2349,8.6237,64.5625,0.0302,-0.0221,0.1528,57.5564
15:54:26:104,0.39,2.2301,8.6979,63.4201,0.0425,-0.0111,0.165,57.5005
15:54:26:133,0.5025,2.4144,8.0542,63.1489,0.1488,-0.082,0.1638,57.4532
15:54:26:143,0.7442,2.5866,7.3172,63.297,0.2269,-0.0832,0.1552,57.382
15:54:26:164,1.0816,2.7182,6.8506,62.1424,0.1805,-0.0319,0.1149,57.3322
15:54:26:184,0.6652,2.7159,7.6427,63.6825,0.0217,0.0793,0.0379,57.3413
15:54:26:203,0.2273,2.68,8.7218,62.2,-0.0675,0.1184,-0.0219,57.4276
15:54:26:222,0.0431,2.6656,8.9635,63.2888,0.0009,-0.0135,-0.0537,57.6021
15:54:26:243,0.0526,2.8379,8.607,62.189,0.15,-0.1626,-0.0598,57.8528
15:54:26:261,-0.1531,3.0461,8.7577,63.6623,0.2489,-0.2225,-0.061,58.114
15:54:26:281,0.7274,3.3069,7.4489,62.189,0.3051,-0.3556,-0.0561,58.4684
15:54:26:300,0.5982,3.3428,7.7169,64.0665,0.2037,-0.4277,-0.1367,58.8425
15:54:26:321,0.213,3.3117,8.016,63.2888,0.0901,-0.4399,-0.177,59.302
15:54:26:341,0.134,3.2973,8.0327,63.2322,-0.0015,-0.3153,-0.1221,59.64
15:54:26:366,0.4594,3.46,8.9779,61.2866,-0.1518,0.0023,0.0037,59.7468
15:54:26:381,0.6126,3.6299,9.8536,62.7536,-0.2776,0.3004,0.0685,59.6598
15:54:26:402,0.9212,4.0558,10.6505,62.419,-0.3338,0.4275,0.0367,59.5509
15:54:26:434,0.5121,3.7137,11.5549,63.2512,-0.3387,0.4446,-0.0781,59.5933
15:54:26:443,0.2082,3.2399,11.598,62.8944,-0.2397,0.2687,-0.1612,59.8131
15:54:26:486,0.4714,2.6393,10.7773,61.5701,-0.1481,0.0695,-0.1355,60.0659
15:54:26:486,0.859,1.9501,10.806,64.4406,-0.2019,0.0817,-0.072,60.2565
15:54:26:503,0.4953,1.6008,11.8636,62.5029,-0.2361,0.3004,0.0355,60.3818
15:54:26:520,1.1103,1.7013,11.0094,61.0254,-0.0272,0.2442,0.1222,60.2802
15:54:26:540,1.1198,1.6439,10.6217,62.0555,0.0376,0.1624,0.1418,60.2287
15:54:26:560,0.7944,1.4261,10.6983,62.5965,-0.0003,0.1098,0.1113,60.247
15:54:26:581,0.7322,1.5721,10.5117,63.7854,-0.0321,0.0707,0.099,60.2837
15:54:26:602,0.6508,1.7922,9.8824,62.0555,-0.0272,0.0622,0.0941,60.3187
15:54:26:624,0.4546,1.876,9.7316,62.3769,-0.0492,0.0634,0.099,60.3476
15:54:26:641,-0.1699,2.0219,9.265,63.4607,-0.043,0.061,0.1222,60.346
15:54:26:661,-0.5838,2.3139,8.9707,62.6975,0.0046,0.1453,0.2017,60.2535
15:54:26:682,-0.1771,2.5938,8.272,60.6364,0.0583,0.1721,0.3446,59.9712
15:54:26:701,0.2321,2.7111,7.9705,62.3106,0.0522,0.1954,0.4546,59.5386
15:54:26:721,0.3302,2.6058,8.485,59.5885,-0.0137,0.2405,0.5047,59.0582
15:54:26:741,0.5097,2.4646,8.6955,59.8678,-0.0162,0.188,0.5205,58.5685
15:54:26:761,0.4403,2.3354,8.5472,60.9784,0.0364,0.1355,0.5083,58.1131
15:54:26:792,0.3876,2.2588,8.4299,60.8964,0.073,0.1233,0.4961,57.6766
15:54:26:801,0.3948,2.3354,8.473,59.8013,0.0889,0.1111,0.4973,57.253
15:54:26:821,0.4594,2.534,8.3246,59.5549,0.1097,0.1282,0.5156,56.803
15:54:26:841,0.4427,2.8259,8.1667,61.5495,0.1182,0.1795,0.5303,56.3128
15:54:26:860,0.6963,3.1322,8.1189,60.4667,0.1072,0.1746,0.5327,55.8094
15:54:26:881,0.6796,3.4026,7.8748,62.0555,0.1072,0.1343,0.5315,55.3
15:54:26:910,0.737,3.6108,7.9083,60.2495,0.0791,0.1673,0.5401,54.9377
15:54:26:927,1.0313,3.8357,8.0566,61.1846,0.0461,0.2405,0.5718,54.4818
15:54:26:942,1.3376,4.1252,8.3988,61.5667,0.0571,0.287,0.5828,53.9952
15:54:26:967,0.9739,4.4961,8.0351,63.2343,0.1561,0.3346,0.4961,52.8288
15:54:26:993,1.0624,4.4483,8.284,60.3356,0.1488,0.2784,0.4912,52.4193
15:54:27:080,1.4118,4.3669,8.9013,60.6326,0.1524,0.1184,0.4912,52.0786
15:54:27:081,1.5864,4.4267,9.3009,61.0165,0.2257,0.0194,0.4741,51.7874
15:54:27:081,1.7013,4.5057,8.3175,62.1985,0.3723,-0.071,0.4277,51.5731
15:54:27:083,1.7133,4.5344,8.3151,59.23,0.3626,0.0109,0.3922,51.3658
15:54:27:084,1.4644,4.5607,9.143,58.5082,0.2514,0.155,0.3629,51.1478
15:54:27:100,0.6508,5.0656,10.3298,56.1077,0.2135,0.2809,0.3336,50.9492
15:54:27:119,-0.2273,5.1063,10.392,58.287,0.3259,0.403,0.325,50.5872
15:54:27:140,-0.3733,4.6086,10.6361,59.5988,0.3943,0.2955,0.3348,50.2974
15:54:27:160,0.5671,3.4169,12.0431,59.478,0.3149,0.0317,0.3935,50.0811
15:54:27:182,0.95,2.4933,13.7276,59.8013,0.2367,-0.2029,0.3776,50.0052
15:54:27:215,-0.0981,2.5244,13.529,58.9305,0.3809,-0.176,0.2982,50.0135
15:54:27:223,-1.8305,2.5819,11.3372,57.8971,0.6374,0.0744,0.2346,50.0299
15:54:27:242,-2.723,2.4479,9.9541,57.4747,0.5959,0.1367,0.2432,50.0352
15:54:27:261,-2.9384,1.9262,9.8154,58.6616,0.2037,0.0317,0.2811,50.0469
15:54:27:285,-2.9288,1.2849,11.0094,57.955,-0.2348,0.1037,0.3275,50.0098
15:54:27:302,-2.5962,0.5671,12.481,58.5942,-0.4865,0.2308,0.4264,49.8269
15:54:27:322,-2.4072,0.3493,12.6365,56.5232,-0.3827,0.2931,0.5621,49.4752
15:54:27:342,-1.9382,0.6987,11.0094,57.955,-0.015,0.2577,0.7343,48.9277
15:54:27:363,-1.4094,1.3639,8.3605,56.8293,0.3186,0.1929,0.9078,48.1837
15:54:27:386,-1.1773,2.1655,6.6209,57.294,0.3748,0.2491,1.0422,47.2892
15:54:27:404,-0.536,2.5508,6.1735,57.0436,0.1964,0.3554,1.1522,46.1424
15:54:27:424,0.189,2.8379,7.5948,56.2867,-0.1701,0.2992,1.0593,43.7666
15:54:27:441,0.0766,2.7565,8.4395,56.8238,-0.219,0.2063,0.9384,42.9117
15:54:27:462,-0.0024,2.7135,9.0162,56.6284,-0.2287,0.0561,0.8431,42.2269
15:54:27:488,-0.0168,2.8044,8.8917,57.0219,-0.1664,-0.0099,0.8113,41.6013
15:54:27:504,-0.0909,2.8857,8.8654,56.4706,-0.1286,0.0646,0.8186,40.9179
15:54:27:522,-0.0335,2.9791,9.1813,54.7473,-0.131,0.2381,0.8431,40.1454
15:54:27:542,0.1771,3.0078,9.4038,56.1783,-0.0882,0.4446,0.8736,39.2614
15:54:27:561,0.1651,3.1442,9.7364,55.4976,0.0156,0.5765,0.8687,38.3305
15:54:27:582,-0.1149,3.3093,9.6239,55.1162,0.2037,0.5839,0.8223,37.4645
15:54:27:602,-0.213,3.4959,8.8247,55.4193,0.4334,0.4483,0.7893,36.6808
15:54:27:622,-0.1603,3.618,8.0806,55.7861,0.58,0.2772,0.7478,35.9857
15:54:27:642,-0.1364,3.8405,7.8676,55.2253,0.602,0.1282,0.6891,35.4103
15:54:27:661,0.2823,3.7089,7.7169,54.301,0.5531,0.0304,0.6244,34.9301
15:54:27:683,0.4116,3.7137,8.3892,57.5326,0.4334,0.0243,0.5535,34.5312
15:54:27:702,0.1723,3.9553,9.2746,54.3215,0.3503,0.1269,0.4998,34.1635
15:54:27:721,-0.6341,4.7569,10.0331,55.0186,0.4261,0.2833,0.4973,33.7484
15:54:27:742,-0.3422,4.8838,9.2483,53.5274,0.5837,0.2601,0.5193,33.293
15:54:27:762,1.6223,3.8118,8.4682,55.0017,0.4823,-0.0343,0.4949,32.9428
15:54:27:788,3.9936,2.3857,11.1625,54.6954,-0.1273,-0.5535,0.3336,32.9615
15:54:27:802,3.8142,1.8449,16.0511,54.0098,-0.715,-0.76,-0.0024,33.4893
15:54:27:823,1.7157,2.1009,16.4961,54.1546,-0.3155,-0.3862,-0.2394,34.1599
15:54:27:842,0.6365,2.7757,12.9523,53.2958,0.624,0.0854,-0.0879,34.4519
15:54:27:865,0.6891,3.4696,9.2195,54.9369,1.1713,0.392,0.2383,34.2471
15:54:27:889,0.5743,4.0199,6.6784,53.9326,0.6875,0.7549,0.446,33.6907
15:54:27:900,-0.6006,4.2209,6.664,55.2253,0.2612,0.7977,0.4057,32.867
15:54:27:920,-1.328,4.0702,7.1785,54.2568,-0.0443,0.7818,0.4484,31.6501
15:54:27:941,-1.675,3.9338,7.6714,53.5106,-0.2092,0.6205,0.5889,30.987
15:54:27:961,-1.6367,3.9649,7.5517,53.5304,-0.2055,0.436,0.7636,30.2561
15:54:27:982,-1.1844,3.8931,7.1976,53.5278,-0.1701,0.3493,0.9151,29.3807
15:54:28:003,-0.5168,3.807,8.0016,54.497,-0.1945,0.3811,1.0202,28.3854
15:54:28:022,-0.055,3.7352,8.4227,53.0676,-0.1689,0.4091,1.0618,27.3196
15:54:28:042,0.4116,3.594,8.5137,52.2367,-0.0626,0.4495,1.0605,26.2216
15:54:28:061,0.7466,3.4337,8.5519,54.9266,0.04,0.4397,1.0019,25.1969
15:54:28:080,0.8088,3.3332,8.6022,50.5413,0.1243,0.4043,0.9127,24.2766
15:54:28:104,0.7202,3.2686,8.3533,52.3566,0.2318,0.392,0.8345,23.4401
15:54:28:123,0.67,3.3141,7.8102,51.9362,0.3284,0.4373,0.8125,22.5909
15:54:28:143,0.6748,3.3476,7.2359,52.5658,0.3345,0.5057,0.8321,21.689
15:54:28:161,1.2395,3.3619,7.9705,52.5918,0.2172,0.5802,0.8638,20.683
15:54:28:188,1.7061,3.3236,8.6453,52.9013,0.1243,0.5802,0.8479,19.702
15:54:28:202,1.9382,3.4959,9.1334,52.3063,0.1756,0.4434,0.7856,18.8218
15:54:28:222,1.9836,3.7448,9.1669,52.5658,0.2844,0.2161,0.7075,18.1513
15:54:28:243,2.4455,3.8405,8.7147,52.2458,0.3907,0.0549,0.6464,17.5986
15:54:28:263,2.8379,3.807,8.4132,51.7114,0.3723,0.0023,0.5889,17.1086
15:54:28:288,2.6178,4.0798,8.595,54.5495,0.2001,0.0414,0.5107,16.6853
15:54:28:303,1.4836,4.7952,8.8774,51.7515,0.0156,0.3236,0.4827,16.1808
15:54:28:320,-0.1292,5.4437,8.8869,50.8623,-0.0333,0.8587,0.5291,15.401
15:54:28:339,-0.1005,4.9507,9.2052,52.5311,-0.1444,0.9198,0.6378,14.3737
15:54:28:360,-0.5025,4.8957,10.3801,52.6353,-0.2764,0.3664,0.5059,12.8342
15:54:28:380,-1.0552,5.4867,10.6002,52.4603,-0.1359,0.0854,0.4423,12.5822
15:54:28:403,-0.6532,5.6877,8.6548,52.6097,0.2282,0.2601,0.5388,12.1173
15:54:28:423,-0.0502,5.4365,7.2263,53.0724,0.2941,0.4519,0.5547,11.4955
15:54:28:484,0.6269,4.4483,7.6379,49.9633,-0.0504,0.4543,0.3922,11.0313
15:54:28:484,0.9141,3.338,10.0858,51.1342,-0.5256,0.2357,0.121,10.9421
15:54:28:484,0.4451,2.589,11.9665,52.699,-0.7651,-0.121,-0.1685,11.3598
15:54:28:501,-0.1292,2.3234,11.5741,49.8583,-0.6038,-0.2628,-0.2956,11.986
15:54:28:521,-0.8064,2.6441,9.5761,51.2099,-0.3204,-0.0368,-0.2064,12.4181
15:54:28:545,-0.5623,2.8475,8.2744,51.1574,-0.186,0.5276,0.066,12.3055
15:54:28:560,-0.1196,3.0628,7.5063,51.5671,-0.2422,0.9589,0.2933,11.7361
15:54:28:582,0.28,3.4002,7.2311,50.9217,-0.3314,1.0322,0.3519,11.0603
15:54:28:602,0.3852,3.6299,8.1859,51.6054,-0.39,0.7598,0.2383,10.6169
15:54:28:621,0.1795,3.5629,8.6525,52.0312,-0.2813,0.3346,0.0343,10.5734
15:54:28:641,-0.2177,3.6993,7.5422,49.2212,0.0376,-0.0783,-0.1074,10.88
15:54:28:661,-0.2441,4.0774,6.2357,52.084,0.2013,-0.3251,-0.1404,11.3211
15:54:28:685,-0.0479,4.3358,6.2764,50.5537,0.0901,-0.2909,-0.1319,11.7298
15:54:28:706,0.067,3.8788,8.1476,52.83,-0.1286,-0.1919,-0.1844,12.1516
15:54:28:722,-0.3852,3.5844,9.7819,51.4222,-0.1811,-0.3923,-0.3053,12.8325
15:54:28:740,-0.9667,3.6778,9.7603,52.1624,0.0522,-0.6611,-0.4043,13.728
15:54:28:761,-1.1964,3.7759,9.1669,51.7641,0.3271,-0.7955,-0.3713,14.6629
15:54:28:788,-0.9834,3.9601,8.6764,50.5727,0.387,-0.6586,-0.2467,15.4315
15:54:28:808,-0.3111,4.209,10.9831,50.4185,-0.0308,-0.2567,-0.0854,16.1696
15:54:28:823,-1.084,4.7904,11.2534,51.0329,0.0168,-0.0221,-0.0928,16.4729
15:54:28:840,-1.4812,5.3862,10.6935,50.5727,0.2269,0.2149,-0.0353,16.6417
15:54:28:859,-1.1749,5.1613,9.734,50.1361,0.332,0.2552,0.0465,16.675
15:54:28:880,-0.2632,4.453,9.3177,51.6451,0.2245,0.0194,0.0538,16.7664
15:54:28:904,0.3948,3.4768,10.2389,51.3069,-0.0797,-0.2811,-0.0011,17.0593
15:54:28:928,0.4857,2.9958,12.0694,50.8654,-0.3253,-0.4265,-0.0439,17.4822
15:54:28:940,0.7107,2.4742,12.5097,50.5861,-0.263,-0.396,0.0062,17.8344
15:54:28:960,1.4716,2.1224,12.1842,51.1734,-0.0504,-0.3593,0.1186,18.0326
15:54:28:981,2.0722,2.1823,10.4351,50.3173,0.1622,-0.4204,0.1687,18.1743
15:54:29:003,2.2516,2.5531,9.0975,50.6592,0.1622,-0.4265,0.1345,18.3442
15:54:29:020,2.1846,2.8235,9.4708,50.7751,-0.0455,-0.3471,0.0868,18.5257
15:54:29:040,1.8521,3.1274,10.1599,51.0329,-0.1774,-0.2347,0.0208,18.7383
15:54:29:059,1.3256,3.4217,9.6861,51.0329,-0.0443,-0.1369,-0.0317,18.9628
15:54:29:080,1.0648,3.7567,8.1835,50.4526,0.1646,-0.0807,-0.0268,19.1523
15:54:29:188,1.3185,3.8644,7.4321,48.7281,0.2208,-0.0294,0.005,19.2719
15:54:29:189,1.5027,3.7591,7.6881,49.0619,0.1805,-0.0355,-0.0158,19.4146
15:54:29:190,1.3185,3.5892,7.6116,48.7281,0.2367,-0.1186,-0.0989,19.6926
15:54:29:190,0.9787,3.6036,6.8506,51.0935,0.3809,-0.1931,-0.1612,20.0671
15:54:29:191,0.9045,3.7639,6.0299,51.5609,0.4957,-0.1174,-0.1502,20.3926
15:54:29:205,0.8136,3.9458,5.7069,49.3772,0.4933,0.0549,-0.1135,20.5944
15:54:29:225,0.7513,4.0822,5.5059,52.4474,0.4175,0.1929,-0.0879,20.6993
15:54:29:245,0.8207,4.2784,5.7691,49.8709,0.2868,0.2112,-0.0732,20.7836
15:54:29:259,1.1677,4.5631,7.2455,50.1506,0.0596,0.1001,-0.0463,20.8691
15:54:29:280,0.6461,4.9675,7.3914,50.1888,0.0962,0.177,-0.0292,20.8317
15:54:29:300,0.5719,5.3886,7.3029,50.6556,0.1463,0.298,0.0367,20.8263
15:54:29:322,0.7466,5.5777,7.7839,49.8212,0.1194,0.3371,0.1149,20.6498
15:54:29:342,1.0792,5.4796,8.9468,50.4578,0.0486,0.2418,0.1284,20.4998
15:54:29:359,1.4453,5.2116,9.4708,49.1648,0.0535,0.1001,0.0758,20.4694
15:54:29:380,1.3137,4.8766,9.6837,49.944,0.0779,0.006,-0.0292,20.6049
15:54:29:402,0.8136,5.0513,10.4327,50.6556,-0.0027,-0.0343,-0.1038,20.8785
15:54:29:421,0.2871,4.989,10.593,48.9094,-0.0748,0.1758,-0.0903,21.0256
15:54:29:439,-0.7442,4.6373,10.6026,49.5544,-0.0772,0.5668,-0.061,20.9829
15:54:29:459,-1.8114,4.4171,11.4138,49.1322,-0.1139,0.6902,0.0025,20.8448
15:54:29:481,-2.5268,4.6875,11.2534,50.0315,0.0486,0.6388,0.1577,20.5999
15:54:29:502,-2.5962,5.0704,9.4062,49.7457,0.4187,0.5863,0.3727,20.1522
15:54:29:520,-2.2421,5.4293,7.2359,49.5878,0.6069,0.5338,0.5413,19.5345
15:54:29:539,-1.3089,5.0608,6.8076,48.5415,0.3687,0.5008,0.6134,18.8168
15:54:29:559,-0.6269,4.2018,8.5807,47.8245,-0.1689,0.403,0.5352,18.246
15:54:29:580,-0.4953,3.1896,10.8562,48.98,-0.5977,0.1868,0.3788,17.9424
15:54:29:602,-0.3996,2.5651,12.816,49.2553,-0.7125,-0.0612,0.286,17.8849
15:54:29:620,-0.4331,2.4096,12.603,49.5355,-0.4389,-0.0978,0.3177,17.8109
15:54:29:640,-0.5551,2.8475,10.2341,48.263,0.0449,0.133,0.4668,17.472
15:54:29:660,0.0526,3.5246,7.8102,50.4113,0.3284,0.3969,0.6512,16.7565
15:54:29:680,0.7609,4.075,6.4008,50.303,0.3186,0.5521,0.738,14.9862
15:54:29:704,0.7178,4.5727,5.6375,49.589,0.0119,0.3029,0.4985,14.4245
15:54:29:719,0.4642,4.5607,5.5131,47.3398,-0.0662,-0.0001,0.3324,14.072
15:54:29:740,0.615,4.5535,4.8742,49.9177,-0.1212,-0.2164,0.2298,14.0445
15:54:29:759,0.9619,4.6349,4.6804,50.2449,-0.2776,-0.2554,0.1296,14.1176
15:54:29:780,0.4427,4.5679,5.9653,48.1654,-0.5329,-0.2017,-0.028,14.3284
15:54:29:804,-0.2201,4.2042,7.7408,49.1243,-0.6637,-0.1968,-0.1367,14.6935
15:54:29:821,-0.2321,3.9649,8.5878,49.1672,-0.5415,-0.3177,-0.1209,15.1005
15:54:29:840,0.1651,4.1204,8.3175,48.3143,-0.2959,-0.5267,-0.0622,15.5334
15:54:29:860,0.5025,4.2832,7.9346,46.6792,-0.0907,-0.611,-0.0634,15.9833
15:54:29:879,0.5408,4.3095,7.9466,48.8361,-0.0308,-0.589,-0.1306,16.5046
15:54:29:902,0.6126,4.1109,8.7601,49.1919,-0.0662,-0.5316,-0.2211,17.0815
15:54:29:919,0.012,3.9841,9.9613,47.748,-0.1567,-0.534,-0.3212,17.7978
15:54:29:940,0.0287,3.8405,10.2891,49.3908,-0.186,-0.479,-0.3114,18.4849
15:54:29:960,0.6365,3.9936,10.282,47.9492,-0.142,-0.3165,-0.1392,18.8991
15:54:29:979,1.5003,4.0415,10.8275,47.4849,-0.2348,-0.1992,-0.0011,19.0867
15:54:30:000,2.6058,3.4887,10.8921,49.4363,-0.3472,-0.231,-0.006,19.2692
15:54:30:021,3.1178,3.1633,11.8588,46.2666,-0.4462,-0.2823,-0.1648,19.6311
15:54:30:041,2.3186,2.4622,11.6243,47.5631,-0.4144,-0.341,-0.4617,20.3579
15:54:30:061,0.3589,2.3857,11.8253,47.0043,-0.3558,-0.3165,-0.6816,21.3554
15:54:30:078,-1.0696,2.4455,11.9593,48.7787,-0.2165,-0.1015,-0.6047,22.2305
15:54:30:098,-0.9667,2.7446,11.0764,46.6318,0.0022,-0.0746,-0.1758,22.647
15:54:30:119,0.2776,3.1585,9.6503,47.5581,0.1536,-0.2408,0.2933,22.5978
15:54:30:141,1.6439,3.3978,9.009,48.2304,0.0522,-0.413,0.5071,22.3324
15:54:30:160,2.7063,3.685,9.7675,46.1252,-0.1909,-0.4534,0.4387,22.1501
15:54:30:179,2.3521,3.4409,9.7627,46.0361,-0.2849,-0.2884,-0.0317,22.2658
15:54:30:207,1.3615,3.3045,9.4804,46.0121,-0.1786,-0.0697,-0.243,22.6438
15:54:30:223,0.8662,3.5007,8.7888,45.6861,-0.0113,0.2577,-0.3273,22.9644
15:54:30:244,0.8734,3.5175,7.8532,47.3398,0.1879,0.6315,-0.243,23.0359
15:54:30:258,0.7849,3.6993,6.9679,45.6572,0.3442,0.8685,-0.1685,22.9174
15:54:30:279,0.6963,3.7687,6.3386,44.3652,0.4518,0.9394,-0.16,22.7583
15:54:30:301,0,4.4411,5.8792,46.413,0.4627,0.9137,-0.1502,22.5859
15:54:30:321,-0.0048,4.2903,5.8983,47.1076,0.2807,0.7085,-0.0573,22.4231
15:54:30:339,0.3398,4.2496,7.0277,45.7179,0.1316,0.5411,0.0159,22.264
15:54:30:375,0.0287,4.1133,7.0564,47.8379,0.1402,0.3603,0.0257,22.1576
15:54:30:379,-0.1172,4.0511,6.7765,44.0873,0.172,0.2332,0.0807,22.0656
15:54:30:398,0.4762,3.9745,7.3723,45.6232,0.1207,0.1905,0.1833,21.8734
15:54:30:423,0.1962,4.2114,7.5709,45.7231,0.1426,0.254,0.2224,21.6133
15:54:30:437,0.0455,4.2281,7.547,47.5858,0.2282,0.3078,0.2835,21.2834
15:54:30:457,0.5073,4.2736,7.87,46.0317,0.2392,0.2491,0.413,20.8237
15:54:30:478,0.9978,4.587,8.2313,46.6272,0.1964,0.2112,0.5107,20.2782
15:54:30:499,1.3137,4.5272,8.4036,44.9533,0.0791,0.3065,0.5132,19.6783
15:54:30:522,1.0744,4.3669,9.2554,45.2205,-0.1408,0.4825,0.4411,19.0752
15:54:30:540,0.3063,4.9484,10.6313,42.238,-0.4548,0.5497,0.3935,18.5024
15:54:30:561,0.4116,4.7378,11.5095,43.517,-0.6246,0.6779,0.4179,17.8323
15:54:30:579,0.2201,4.599,12.4355,43.169,-0.6295,0.7683,0.3373,17.2247
15:54:30:602,-1.084,4.6493,11.8301,44.7909,-0.4169,0.7378,0.1454,16.8795
15:54:30:621,-3.1561,5.3145,9.3775,43.738,0.0632,0.6462,-0.1991,16.6642
15:54:30:641,-3.4265,4.9866,10.0834,42.54,-0.2849,0.2112,-0.2614,16.9876
15:54:30:659,-2.6082,3.3882,12.4642,42.9607,-0.7748,-0.0954,-0.2015,17.3792
15:54:30:679,-1.9884,2.0937,15.3117,44.4585,-1.0571,-0.3556,-0.1221,17.8058
15:54:30:700,-1.718,1.6439,15.6251,42.7455,-0.7834,-0.3654,0.0013,18.0854
15:54:30:721,-1.1916,1.8927,12.9523,41.9051,-0.0809,-0.0209,0.2273,17.9781
15:54:30:738,-0.4929,2.0746,9.7675,41.6417,0.4578,0.3493,0.4264,17.4855
15:54:30:758,-0.2273,2.3067,7.9394,41.3682,0.6167,0.6401,0.5193,16.7495
15:54:30:778,-0.2441,2.4455,7.0205,39.4522,0.5568,0.7439,0.534,15.9578
15:54:30:801,-0.3709,2.388,6.9081,40.8699,0.4811,0.7525,0.5169,15.1798
15:54:30:820,-0.4522,2.4239,6.5396,41.0742,0.5544,0.6559,0.4851,14.468
15:54:30:840,-0.3685,2.5436,5.4485,43.4763,0.7449,0.3957,0.4436,13.8885
15:54:30:859,-0.5743,2.8307,4.4578,41.3423,0.8427,0.0842,0.38,13.5261
15:54:30:878,-0.5623,3.058,4.1803,40.3325,0.7608,-0.1308,0.3287,13.3145
15:54:30:898,-0.2967,3.0867,4.3023,40.1924,0.5641,-0.2298,0.2896,13.188
15:54:30:920,-0.3278,3.0724,5.2068,39.0424,0.3247,-0.2787,0.2151,13.1491
15:54:30:939,-0.2465,3.0341,5.9605,40.0558,0.1488,-0.3055,0.1357,13.2154
15:54:30:958,-0.335,3.0987,6.4367,38.698,0.073,-0.3434,0.049,13.3722
15:54:30:978,-0.7226,3.4002,7.3651,38.0691,-0.0003,-0.4192,-0.0549,13.6855
15:54:31:001,-0.8399,3.3069,7.9753,38.3764,-0.076,-0.5816,-0.1099,14.1381
15:54:31:023,-0.8853,3.4863,8.1835,36.9003,-0.1897,-0.7222,-0.1025,14.6628
15:54:31:039,-0.5575,3.6012,8.8319,36.27,-0.3668,-0.5878,-0.0109,15.0185
15:54:31:060,-0.5767,3.9529,9.9637,37.5923,-0.6136,-0.2774,0.0526,15.1706
15:54:31:079,-0.548,3.3476,13.6846,38.2445,-1.1316,-0.0184,-0.0231,15.2928
15:54:31:101,0.5599,2.6082,15.1035,39.3817,-1.2379,-0.2603,-0.0512,15.5039
15:54:31:125,0.8758,1.5338,17.2546,38.3967,-1.3173,-0.6806,-0.1624,16.0093
15:54:31:139,-0.1149,1.0624,18.2955,37.9223,-1.1353,-0.7979,-0.2455,16.6524
15:54:31:159,-0.8686,1.5362,16.4291,36.1957,-0.5097,-0.4766,-0.072,16.9935
15:54:31:179,-0.2656,2.0554,13.3639,36.289,0.1072,-0.1577,0.2933,16.8101
15:54:31:201,0.7729,2.6058,10.9448,36.0807,0.3772,-0.0991,0.5841,16.2772
15:54:31:283,1.651,2.9145,9.2937,36.7358,0.3931,-0.2054,0.6818,15.6409
15:54:31:284,2.3761,3.0508,7.9442,35.3461,0.2966,-0.3006,0.6342,15.0396
15:54:31:285,2.6393,3.0269,6.8124,34.789,0.1805,-0.1736,0.4973,14.5243
15:54:31:285,2.2445,2.9958,6.006,32.4994,0.084,0.1831,0.3043,14.0775
15:54:31:298,1.4357,3.0078,5.5896,33.997,0.0437,0.5631,0.1381,13.6922
15:54:31:321,0.8327,3.0963,4.8766,35.3688,0.0974,0.7317,0.0538,13.3461
15:54:31:338,0.4283,3.283,4.1061,33.7535,0.1536,0.6303,0.0269,13.0695
15:54:31:359,0.2273,3.3595,3.7759,34.9075,0.1145,0.3933,0.0208,12.8842
15:54:31:379,-0.0311,3.3356,3.4481,34.7829,0.0131,0.2296,0.0208,12.7807
15:54:31:399,0.1986,3.2542,3.8812,32.4479,-0.1335,0.3139,0.0502,12.6029
15:54:31:420,-0.1077,3.8453,4.8287,33.0577,-0.3082,0.4079,0.0477,12.4056
15:54:31:443,-0.0455,3.9099,6.2812,31.6427,-0.423,0.3102,0.0172,12.2555
15:54:31:460,0.3111,3.46,7.882,32.603,-0.4682,0.0182,-0.017,12.253
15:54:31:478,0.0933,3.2303,9.0114,34.3039,-0.4267,-0.3068,-0.1221,12.4775
15:54:31:500,-0.6652,3.1418,9.9063,31.9262,-0.3533,-0.4314,-0.2443,12.9086
15:54:31:523,-0.6317,3.2423,11.1745,29.7527,-0.2825,-0.3202,-0.2406,13.5234
15:54:31:540,1.8281,2.5316,13.7085,31.2633,-0.3937,-0.4803,-0.1233,13.7998
15:54:31:560,1.7204,2.1512,14.4479,30.7438,-0.4853,-0.5291,-0.243,14.1807
15:54:31:578,0.1531,2.5938,12.8279,29.5321,-0.1652,0.1611,-0.3457,14.5153
15:54:31:601,-0.9739,3.4481,10.0666,31.3542,0.3137,1.0933,-0.2039,14.4091
15:54:31:622,-1.6726,4.209,8.4443,31.5607,0.4187,1.5625,0.0868,13.849
15:54:31:640,-2.1559,4.6373,7.9035,30.8007,0.2025,1.6113,0.3446,12.9977
15:54:31:660,-2.2612,5.0177,8.6979,30.2926,-0.0418,1.4611,0.4765,12.031
15:54:31:683,-1.7085,4.7928,10.5404,29.1152,-0.3375,0.8526,0.4631,11.2747
15:54:31:702,-0.402,3.5629,12.8853,30.1596,-0.6649,-0.1479,0.3202,10.9379
15:54:31:721,0.189,1.8975,15.8788,28.0771,-0.9972,-1.1595,0.0013,11.252
15:54:31:739,-0.3446,0.67,16.9579,29.197,-0.963,-1.4381,-0.2931,11.9474
15:54:31:759,-1.2658,0.5336,15.2399,29.0275,-0.4132,-0.6195,-0.243,12.3978
15:54:31:780,-1.6534,0.9308,12.6532,29.0038,0.1011,0.353,0.11,12.2041
15:54:31:805,-1.2227,1.2802,11.4975,28.988,0.2673,0.7793,0.4594,11.5096
15:54:31:822,-0.0359,1.4692,10.5691,28.5101,0.409,0.7427,0.6806,10.5251
15:54:31:838,0.7178,1.6726,9.076,28.5715,0.7205,0.5106,0.7087,9.5583
15:54:31:858,0.9715,1.9813,7.0134,29.0475,1.0516,0.2699,0.5462,8.8169
15:54:31:878,0.7178,2.1775,5.2666,30.1678,1.2153,0.1367,0.3336,8.3409
15:54:31:900,0.2297,2.3521,4.4698,30.5307,1.1457,0.1147,0.187,8.0248
15:54:31:919,0.1125,2.388,4.7378,29.6798,0.9465,0.0597,0.132,7.8039
15:54:31:938,0.3398,2.3617,4.855,30.8624,0.7535,-0.0966,0.0917,7.6736
15:54:31:958,0.5121,2.3785,5.2881,30.8624,0.6118,-0.2041,0.0074,7.654
15:54:31:979,0.2776,2.4144,5.6877,29.2,0.5373,-0.2787,-0.1209,7.8048
15:54:32:005,-0.2321,2.5292,5.9892,27.7482,0.409,-0.5572,-0.3261,8.7158
15:54:32:023,-0.2513,2.7446,6.6425,30.8624,0.2697,-0.7197,-0.3835,9.3563
15:54:32:042,-0.1842,2.8283,7.4345,28.764,0.0925,-0.8883,-0.4507,10.1158
15:54:32:060,0.0502,2.7948,8.8822,28.764,-0.1212,-0.9751,-0.5082,10.9716
15:54:32:078,-0.6437,3.46,9.6383,28.6595,-0.269,-0.7686,-0.5692,11.8141
15:54:32:100,-1.3328,4.4028,9.5593,28.0425,-0.3912,-0.1968,-0.5741,12.449
15:54:32:119,-0.0383,3.8812,9.7771,28.1657,-0.803,0.2992,-0.5827,12.84
15:54:32:141,1.2754,1.986,14.7876,28.0436,-1.8353,0.1453,-0.8038,13.495
15:54:32:159,0.0263,-0.7226,21.6311,28.5532,-2.7638,-0.4057,-1.2461,14.8983
15:54:32:179,-3.5557,-1.0289,23.0381,27.6047,-2.3484,-0.341,-1.3731,16.5213
15:54:32:202,-4.532,-0.0239,20.5256,29.2692,-0.9716,0.1831,-0.6938,17.2711
15:54:32:218,-2.3928,0.8566,15.3165,29.0706,0.4566,0.4739,0.2542,16.8752
15:54:32:239,0.2943,1.73,11.2008,31.1074,1.208,0.3224,0.8663,15.7661
15:54:32:260,2.1799,2.3689,8.7912,29.6555,1.3131,0.0304,0.9689,14.5524
15:54:32:277,2.0243,2.6034,7.4082,30.062,1.0993,-0.2078,0.6891,13.718
15:54:32:298,0.9571,2.5508,6.5348,32.6131,0.9013,-0.1101,0.3813,13.2148
15:54:32:318,0.189,2.3928,5.6183,30.2947,0.861,0.221,0.2798,12.7116
15:54:32:339,-0.1029,2.4287,4.8479,31.2579,0.9075,0.5179,0.325,12.0626
15:54:32:359,-0.1029,2.5412,4.2042,30.5432,0.9331,0.5448,0.4069,11.3104
15:54:32:379,0.0191,2.9575,3.6897,31.9698,0.9197,0.3371,0.4314,10.5946
15:54:32:406,0.1603,3.1298,2.9551,30.9366,0.8525,0.0915,0.3873,10.0266
15:54:32:427,0.591,3.3882,3.46,30.7061,0.6594,-0.1125,0.3153,9.6109
15:54:32:442,0.8016,3.3332,4.1755,31.8957,0.3809,-0.2176,0.1821,9.2698
15:54:32:465,0.5288,3.4457,6.3027,31.7984,-0.1713,-0.104,-0.0561,9.3441
15:54:32:480,0.7178,3.192,7.9059,30.8368,-0.4328,0.0145,-0.0964,9.3028
15:54:32:502,0.5384,3.4002,9.3464,31.5956,-0.5342,0.2283,-0.1135,9.1943
15:54:32:532,-0.0215,3.7376,11.0836,32.3162,-0.4865,0.403,-0.1209,9.0114
15:54:32:537,-0.2536,4.0774,11.9952,32.8309,-0.2776,0.331,-0.0989,8.858
15:54:32:558,0.3206,4.264,11.6913,32.8309,0.0241,-0.0197,-0.0524,8.7554
15:54:32:577,1.2036,4.319,11.5932,32.8309,0.1475,-0.396,-0.0109,8.7428
15:54:32:597,1.1533,4.9149,11.5836,32.8309,0.1255,-0.3874,-0.0305,8.747
15:54:32:619,0.4834,5.0704,10.739,32.8309,0.1402,0.1404,-0.1013,8.6202
15:54:32:639,-0.603,4.9316,10.3418,33.6655,0.073,0.6278,-0.1636,8.3807
15:54:32:660,-1.9262,5.0249,10.5308,32.6837,-0.054,0.728,-0.1966,8.1754
15:54:32:681,-2.534,5.0943,10.3537,33.9361,-0.0626,0.5912,-0.1612,8.0066
15:54:32:706,-2.1559,4.8694,9.9206,33.3007,-0.0626,0.2687,-0.094,7.8787
15:54:32:720,-1.3089,3.8572,10.3849,32.5289,-0.2568,-0.115,-0.083,7.8942
15:54:32:740,-0.7442,2.7685,12.1747,33.682,-0.605,-0.435,-0.1172,8.0582
15:54:32:758,-0.8088,1.8831,13.5266,33.6376,-0.792,-0.479,-0.1392,8.2534
15:54:32:777,-1.1533,1.6702,12.9308,34.9083,-0.5488,-0.0942,-0.0476,8.2359
15:54:32:797,-1.2299,1.7037,11.0907,34.2629,-0.1115,0.3725,0.1491,7.8225
15:54:32:821,-1.0074,1.8927,9.6479,33.6376,0.1976,0.5167,0.3507,7.1532
15:54:32:840,-0.1244,2.1248,8.4203,36.1515,0.3723,0.3188,0.5156,6.3713
15:54:32:859,0.548,2.3402,7.2766,35.2366,0.4847,-0.0148,0.5547,5.6287
15:54:32:878,0.9858,2.4526,6.2955,35.9844,0.5678,-0.1992,0.479,5.0351
15:54:32:900,1.1916,2.5196,5.4269,37.4519,0.6264,-0.2188,0.3483,4.2964
15:54:32:928,0.5145,2.5244,4.6564,35.4703,0.5397,-0.0881,0.0135,4.2845
15:54:32:938,0.5743,2.4479,4.7234,36.5688,0.4175,-0.0978,-0.0695,4.228
15:54:32:958,0.9858,2.3258,4.7593,36.2272,0.2709,-0.286,-0.1355,4.3271
15:54:32:979,1.2371,2.3952,4.5607,35.3203,0.1182,-0.5218,-0.2577,4.6399
15:54:33:004,0.926,2.7206,4.5488,37.2256,-0.0919,-0.6647,-0.4605,5.2105
15:54:33:021,-0.1149,3.015,5.4772,35.7282,-0.3533,-0.6134,-0.7024,6.0121
15:54:33:037,-1.139,3.1848,7.1354,35.4703,-0.5427,-0.4863,-0.8673,6.9718
15:54:33:058,-1.5625,3.1274,8.2122,37.8708,-0.5928,-0.5255,-0.8869,7.9624
15:54:33:078,-1.8975,3.3667,8.808,36.0109,-0.6698,-0.6684,-0.7855,8.8827
15:54:33:098,-1.5553,3.3165,10.081,35.8282,-0.9031,-0.6134,-0.557,9.5693
15:54:33:121,-1.5386,3.5653,12.6748,37.5604,-1.2061,-0.3935,-0.3591,9.9662
15:54:33:140,-1.4046,3.4481,15.1466,36.6699,-1.321,-0.2029,-0.2198,10.1216
15:54:33:157,-0.2465,3.149,16.41,38.9607,-1.178,-0.2383,-0.1123,10.1424
15:54:33:179,1.2538,2.2612,17.3049,39.5799,-1.0778,-0.7429,-0.1319,10.3001
15:54:33:198,1.4189,1.3113,18.2644,39.5799,-1.0681,-1.162,-0.298,10.7369
15:54:33:224,0.3206,0.9834,17.7284,37.7233,-0.7858,-0.9482,-0.3579,11.1882
15:54:33:241,-0.2297,1.2562,15.5366,37.1512,-0.1689,-0.2518,-0.1245,11.234
15:54:33:258,0.2058,1.8664,12.5145,38.9256,0.4102,0.2784,0.2518,10.7398
15:54:33:280,1.1342,2.4503,10.1504,40.3228,0.6631,0.3859,0.5242,9.8864
15:54:33:386,2.254,2.7948,8.8247,40.1068,0.6631,0.2051,0.6268,8.9434
15:54:33:386,3.0365,2.8857,8.0088,39.51,0.5837,0.0317,0.5205,8.1627
15:54:33:387,2.7517,2.5986,7.5446,39.6472,0.4847,-0.0563,0.209,7.7291
15:54:33:387,1.2634,2.2205,6.3506,41.2075,0.453,0.0927,-0.127,7.6373
15:54:33:388,-0.5647,2.4191,5.4437,39.1472,0.3882,0.7048,-0.1624,7.5179
15:54:33:400,-0.5647,2.4742,5.3934,39.1472,0.3736,0.6816,-0.0366,7.1609
15:54:33:419,-0.3517,2.6848,5.147,37.9524,0.4163,0.4971,0.0697,6.7463
15:54:33:438,-0.1053,2.9695,5.0752,37.828,0.4078,0.2149,0.1015,6.4083
15:54:33:459,0.1412,3.1274,5.5083,37.6724,0.3357,0.0036,0.0905,6.0959
15:54:33:478,0.4451,3.1011,6.384,37.6683,0.2184,-0.1357,0.0624,5.8532
15:54:33:500,0.9165,2.9791,7.3866,39.8362,0.0901,-0.2286,0.0245,5.7055
15:54:33:524,1.1103,2.8929,8.3366,40.2103,0.0241,-0.2127,-0.0353,5.6162
15:54:33:540,1.1677,2.9456,9.0808,39.5792,0.0168,-0.1895,-0.1001,5.5696
15:54:33:558,0.9715,3.2088,9.8393,38.7829,0.0522,-0.2139,-0.1502,5.5988
15:54:33:577,0.8638,3.5366,10.4973,39.6634,0.1366,-0.264,-0.1746,5.6919
15:54:33:600,1.5529,3.7137,10.9472,39.8362,0.2502,-0.3422,-0.171,5.7927
15:54:33:622,2.5531,3.4026,11.0429,39.4213,0.288,-0.4863,-0.2418,5.9906
15:54:33:640,1.7611,3.929,10.3418,40.494,0.2477,-0.3862,-0.4287,6.3474
15:54:33:661,-0.0263,4.1587,9.8106,40.1571,0.1243,0.2931,-0.5472,6.6148
15:54:33:677,-1.3878,4.3645,9.8656,41.0174,-0.0137,1.2363,-0.4483,6.4335
15:54:33:697,-2.3258,4.8431,9.9876,40.4513,-0.0797,1.7873,-0.2748,5.888
15:54:33:718,-2.9121,5.1063,10.0188,41.4742,-0.0772,1.8264,-0.1587,5.2112
15:54:33:739,-3.2877,5.3695,10.2867,41.197,-0.1554,1.3462,-0.1245,4.6882
15:54:33:759,-2.7398,4.4674,11.0812,40.4701,-0.4193,0.5252,-0.094,4.4573
15:54:33:779,-2.1105,3.2638,13.9071,41.3948,-0.8567,-0.3849,-0.0292,4.4901
15:54:33:798,-1.608,1.809,17.1661,39.9311,-1.1169,-1.0508,0.0514,4.6606
15:54:33:822,-1.3807,1.3376,17.1637,40.466,-0.6527,-0.9201,0.2554,4.545
15:54:33:843,0.2513,2.0865,11.0142,41.8283,0.7767,0.3163,0.8626,2.8092
15:54:33:860,0.8279,2.1846,9.0233,41.6025,0.9392,0.5851,0.9274,1.4546
15:54:33:878,0.9882,2.2229,8.1476,40.4121,0.9551,0.7732,0.8883,0.0208
15:54:33:902,1.2969,2.2899,7.3125,41.3029,1.0492,0.8209,0.793,358.6412
15:54:33:926,1.6534,2.3282,5.7571,41.6905,1.2251,0.706,0.6244,357.4953
15:54:33:940,1.3448,2.412,4.2879,40.6732,1.3265,0.5851,0.38,356.6206
15:54:33:958,0.6652,2.5579,3.2351,40.4113,1.2691,0.491,0.1442,356.0636
15:54:33:978,-0.0359,2.7637,2.8499,40.4281,1.0834,0.3395,-0.0146,355.7164
15:54:33:998,-0.3039,2.7733,2.8235,40.878,0.8244,0.0695,-0.1074,355.6193
15:54:34:023,-0.4379,2.9647,3.1729,41.0637,0.5715,-0.2164,-0.149,355.6792
15:54:34:043,-0.3876,3.2136,3.5462,41.0862,0.3577,-0.4497,-0.188,355.9329
15:54:34:071,-0.6126,3.405,3.6634,42.1437,0.1793,-0.6562,-0.2687,356.3539
15:54:34:077,-0.9165,3.594,4.1803,42.6894,-0.0455,-0.9091,-0.3713,357.0368
15:54:34:097,-0.3541,3.3165,5.123,42.1221,-0.3766,-1.3061,-0.4471,357.9815
15:54:34:119,0.4044,2.8905,6.7789,40.9084,-0.8653,-1.7032,-0.4923,359.1489
15:54:34:140,0.5815,2.2995,9.4205,42.2581,-1.426,-1.6934,-0.5289,0.3169
15:54:34:159,0.0933,2.2253,12.3637,41.4839,-1.7046,-1.0361,-0.5057,1.1378
15:54:34:177,0.2895,2.3426,13.9813,42.5552,-1.6349,-0.3752,-0.4043,1.5339
15:54:34:197,0.9882,2.0387,15.4122,41.5085,-1.5494,-0.4778,-0.3591,1.9055
15:54:34:222,1.6367,1.7372,16.5464,42.0942,-1.4407,-0.8126,-0.3579,2.3621
15:54:34:239,1.2251,1.4859,16.8957,41.8523,-1.2025,-0.7942,-0.386,2.8397
15:54:34:262,0.0502,1.6128,16.453,42.1297,-0.8311,-0.3996,-0.3224,3.0451
15:54:34:279,0.0814,2.0387,14.7709,41.7909,-0.3754,0.0365,-0.0647,2.599
15:54:34:300,1.4165,2.8163,11.799,43.761,0.0461,0.0915,0.3238,2.2095
15:54:34:324,1.7635,3.2112,10.4854,42.1127,0.0974,0.0927,0.3458,1.6155
15:54:34:344,2.1368,3.4074,9.1023,41.8131,0.1353,0.1673,0.3006,1.0028
15:54:34:360,1.9884,3.4935,7.7934,40.7561,0.1243,0.2393,0.1491,0.5429
15:54:34:377,1.2634,3.4074,6.9368,42.5287,0.0486,0.298,-0.0549,0.3087
15:54:34:398,0.3183,3.2471,6.5563,41.3905,-0.026,0.3322,-0.2003,0.2247
15:54:34:417,-0.2082,3.0963,6.3027,41.6997,-0.0113,0.3236,-0.2186,0.1844
15:54:34:438,-0.3015,3.1777,5.8504,41.6783,0.0974,0.2503,-0.1526,0.1235
15:54:34:458,-0.2584,3.4241,5.0847,42.4382,0.2257,0.1599,-0.0769,359.9943
15:54:34:478,-0.2273,3.6251,4.7498,41.8126,0.2551,0.1343,-0.0329,359.803
15:54:34:498,-0.5886,3.7472,4.9962,41.4779,0.1622,0.1599,-0.0341,359.6226
15:54:34:520,-0.8638,3.7663,5.9629,41.9327,0.0315,0.1954,-0.0268,359.4389
15:54:34:541,-0.9093,3.795,7.066,42.1127,-0.037,0.21,0.0172,359.1912
15:54:34:558,-0.725,3.7328,8.1835,42.0425,-0.0418,0.144,0.077,358.9083
15:54:34:578,-0.3948,3.6993,9.4852,41.8126,-0.0137,-0.0331,0.1198,358.6254
15:54:34:598,-0.2632,3.5079,11.1051,43.0087,0.04,-0.2689,0.1235,358.4233
15:54:34:621,-0.1699,3.4792,12.1508,41.8472,0.2428,-0.2835,0.1479,358.1693
15:54:34:637,0.5025,3.7615,11.8349,43.7497,0.5067,-0.1333,0.2188,357.8023
15:54:34:659,1.5888,3.6323,11.9928,41.4331,0.4762,-0.1797,0.2359,357.3824
15:54:34:677,1.6774,3.5916,12.8686,40.7507,0.2001,-0.1785,0.121,357.1152
15:54:34:696,0.9476,3.6036,12.5504,40.9081,0.1011,0.3175,-0.0048,356.8185
15:54:34:718,0.0096,3.6084,11.8612,41.0083,0.1414,0.9345,-0.0366,356.3408
15:54:34:738,-0.9452,3.5892,11.5406,44.2935,0.1549,1.2228,-0.0097,355.7432
15:54:34:761,-2.2229,4.41,9.2411,41.8529,0.4114,1.1239,0.1345,354.5487
15:54:34:779,-1.6367,4.3669,8.6835,42.0452,0.2783,0.6779,0.1968,353.953
15:54:34:796,-0.9236,3.5127,10.2939,42.2725,-0.1982,0.0194,0.1552,353.6094
15:54:34:818,-0.5312,2.2493,13.3998,43.2349,-0.693,-0.5462,0.0526,353.5742
15:54:34:845,-0.6748,1.4596,15.0341,41.4402,-0.6844,-0.5719,0.0331,353.5612
15:54:34:864,-1.084,1.5386,13.4692,40.9766,-0.1273,-0.0135,0.1748,353.2482
15:54:34:877,-1.1414,1.7324,11.3659,42.538,0.3772,0.5191,0.4093,352.4851
15:54:34:896,-0.4235,1.8712,10.325,41.8157,0.591,0.6767,0.6366,351.4093
15:54:34:916,0.5288,1.8736,9.6263,43.6158,0.7217,0.5472,0.782,350.1883
15:54:34:938,1.0265,1.9119,8.3725,44.0154,0.9123,0.3505,0.7795,349.0452
15:54:34:958,1.0122,2.0004,6.6975,43.5632,1.1103,0.3065,0.7062,347.9904
15:54:34:979,0.8255,2.2756,5.2164,41.6281,1.2202,0.4397,0.6427,346.9673
15:54:34:997,0.7633,2.5795,4.0654,43.4015,1.2165,0.546,0.5865,345.9373
15:54:35:018,0.5312,2.9575,3.2327,42.338,1.1176,0.5338,0.5071,344.9906
15:54:35:038,0.5049,3.3188,2.6608,42.7351,0.9551,0.3774,0.4203,344.2249
15:54:35:057,0.5049,3.5366,2.6106,43.8985,0.7315,0.1123,0.3177,343.6883
15:54:35:077,0.4355,3.685,2.9193,42.6775,0.4786,-0.1699,0.1882,343.4371
15:54:35:096,0.4092,3.7878,3.2853,43.8985,0.2392,-0.3801,0.066,343.4062
15:54:35:117,0.3613,4.0463,4.0989,42.749,0.0095,-0.5377,-0.05,343.5865
15:54:35:139,0.3781,4.2951,5.0321,43.391,-0.2312,-0.7038,-0.1917,343.991
15:54:35:159,0.4498,4.1898,6.1998,43.3746,-0.4963,-0.881,-0.3469,344.6442
15:54:35:179,0.7561,3.661,7.5876,42.3552,-0.8286,-0.9457,-0.4581,345.4217
15:54:35:200,0.6221,3.5701,9.9541,44.0383,-1.2415,-0.8187,-0.5204,346.1778
15:54:35:218,0.536,3.0963,16.5153,44.1756,-1.5824,-0.5022,-0.5424,347.5621
15:54:35:240,1.3687,3.0341,16.9053,43.8,-1.233,-0.7026,-0.5363,348.2232
15:54:35:258,1.9597,2.6632,16.4124,43.5339,-0.9202,-0.9506,-0.5839,348.983
15:54:35:279,1.2849,2.1105,16.8885,43.7497,-0.8457,-0.8016,-0.6768,349.7788
15:54:35:296,0.2034,2.0459,16.9005,43.9227,-0.6502,-0.2799,-0.6376,350.3907
15:54:35:319,0.1675,2.4024,15.1035,44.5843,-0.1652,0.144,-0.4055,350.6048
15:54:35:337,0.8495,2.7326,12.7394,43.0745,0.2795,0.0768,-0.1795,350.6019
15:54:35:356,1.2849,3.0867,10.6624,43.9062,0.4835,-0.2225,-0.0952,350.5999
15:54:35:377,1.462,3.338,8.7864,43.5737,0.5153,-0.3507,-0.0989,350.6657
15:54:35:451,1.596,3.4361,7.334,43.1747,0.4359,-0.2432,-0.1526,350.7466
15:54:35:452,1.2036,3.3404,6.5755,43.1747,0.2722,-0.0123,-0.2626,350.8607
15:54:35:453,0.469,3.1968,6.3577,46.3775,0.1182,0.1941,-0.3664,351.017
15:54:35:465,-0.0742,3.1083,6.2285,44.81,0.0767,0.2332,-0.3982,351.2156
15:54:35:476,-0.3661,3.082,5.8433,45.0459,0.1536,0.122,-0.3652,351.4329
15:54:35:496,-0.3613,3.1992,5.0824,43.9823,0.2856,-0.0172,-0.2992,351.6293
15:54:35:517,-0.2943,3.3691,4.3621,44.81,0.3406,-0.0856,-0.2333,351.7887
15:54:35:539,-0.2106,3.649,4.319,45.8678,0.2599,-0.0502,-0.1856,351.8857
15:54:35:558,-0.1531,3.862,4.8024,44.8906,0.1231,-0.0062,-0.1661,351.9276
15:54:35:578,-0.0814,4.0487,5.5609,46.1325,0.0131,-0.049,-0.1734,352.0078
15:54:35:597,0.0622,4.1946,6.4774,45.5811,-0.065,-0.1516,-0.2003,352.1475
15:54:35:622,0,4.209,7.4943,44.8906,-0.1029,-0.1834,-0.2528,352.3685
15:54:35:638,-0.4451,4.1731,8.5448,45.3031,-0.098,-0.1052,-0.3066,352.6097
15:54:35:662,-1.0289,4.276,9.6383,46.7409,-0.0504,0.0023,-0.298,352.9282
15:54:35:678,-0.7849,4.5488,11.3181,47.9258,0.2294,0.0512,-0.0683,352.9949
15:54:35:705,0.201,4.3286,11.9187,45.5811,0.3247,-0.2005,0.0135,352.942
15:54:35:723,0.6987,4.5224,12.9212,45.3858,0.2636,-0.512,0.0147,353.0101
15:54:35:740,0.5695,4.7043,12.7968,45.1939,0.266,-0.3397,-0.0073,353.0446
15:54:35:762,-0.2249,5.3192,10.7964,44.4522,0.4029,0.5154,0.0257,352.7086
15:54:35:778,-1.3831,5.9414,9.6191,45.1715,0.3687,1.4916,0.0819,351.8977
15:54:35:797,-2.455,6.3027,9.6072,45.1715,0.1378,1.9791,0.0966,350.847
15:54:35:822,-2.9145,6.2764,9.8728,45.2326,-0.1127,1.7421,0.0526,349.9607
15:54:35:839,-2.7613,5.2379,11.3181,46.44,-0.4083,0.8734,-0.0744,349.5746
15:54:35:859,-2.3426,3.8237,13.2132,46.7498,-0.6832,-0.1357,-0.2015,349.7581
15:54:35:877,-2.0267,2.6943,13.5577,46.3275,-0.7028,-0.5584,-0.1673,350.0551
15:54:35:897,-1.3807,2.2181,13.0337,46.0798,-0.4731,-0.1003,0.0648,349.9275
15:54:35:918,-0.7418,2.0411,12.067,48.4382,-0.1725,0.6169,0.347,349.2168
15:54:35:936,-0.2752,1.9143,10.928,47.3264,0.1341,1.042,0.5388,348.1246
15:54:35:958,0.055,1.919,9.7388,48.1855,0.4175,1.0616,0.6402,346.9097
15:54:35:976,0.2273,1.9813,8.528,44.5757,0.6497,0.7427,0.6635,345.8035
15:54:35:998,0.4522,2.1129,7.1521,46.5015,0.839,0.3884,0.661,344.8441
15:54:36:019,0.7753,2.3139,5.9916,46.787,0.9734,0.2222,0.6635,343.9531
15:54:36:036,1.0265,2.4837,4.9962,45.1593,1.0186,0.2063,0.639,343.1091
15:54:36:057,0.8782,2.7326,4.5392,47.6696,0.9759,0.2124,0.5645,342.3284
15:54:36:076,0.548,3.0915,4.2496,46.4511,0.8903,0.1538,0.4656,341.6751
15:54:36:096,0.3278,3.3141,4.0917,47.6061,0.7987,0.0023,0.3739,341.2321
15:54:36:116,0.2776,3.5509,3.7902,47.7875,0.6998,-0.231,0.2945,340.9991
15:54:36:139,0.0933,3.9721,4.733,47.5515,0.3345,-0.644,0.0905,340.994
15:54:36:157,-0.1842,4.4507,4.9101,46.1575,0.2147,-0.7063,-0.0121,341.6226
15:54:36:177,-0.3254,4.7713,5.3647,47.638,0.0437,-0.7893,-0.1147,342.1189
15:54:36:196,-0.2201,4.7067,6.9512,48.771,-0.313,-0.9433,-0.2149,342.7819
15:54:36:216,0.0718,4.1133,9.1454,47.4477,-0.7321,-1.0789,-0.3017,343.6013
15:54:36:241,-0.4738,4.2066,11.3994,47.4516,-1.0009,-0.9983,-0.3701,344.4266
15:54:36:257,-0.5384,4.2473,12.9715,48.8904,-1.0326,-0.7368,-0.3444,345.0899
15:54:36:276,0.8566,3.8979,13.6176,48.1582,-0.9496,-0.6831,-0.254,345.594
15:54:36:296,2.3354,3.0269,14.3857,48.4865,-0.9996,-0.9702,-0.2956,346.2455
15:54:36:322,1.9956,2.3306,15.9601,49.6796,-1.1206,-1.107,-0.5082,347.1565
15:54:36:339,0.3972,2.2229,15.6467,48.0259,-0.9105,-0.7222,-0.6523,348.0535
15:54:36:358,-0.7513,2.7517,13.0505,48.5597,-0.4083,-0.0258,-0.5167,348.5545
15:54:36:376,-0.4786,3.4289,10.7222,49.133,-0.1004,0.392,-0.2076,348.5418
15:54:36:397,0.2584,3.7783,9.399,50.7649,-0.1127,0.298,0.005,348.3586
15:54:36:416,0.7633,3.9984,8.3246,50.6532,-0.2507,0.0194,0.0612,348.2265
15:54:36:438,1.0122,3.874,7.3196,50.4825,-0.4108,-0.0978,0.0221,348.1801
15:54:36:457,0.8829,3.6658,6.6975,47.364,-0.5684,0.0426,-0.0512,348.1609
15:54:36:477,0.122,3.3978,6.5707,50.2208,-0.66,0.2968,-0.127,348.1174
15:54:36:497,-0.7753,3.2518,6.4032,49.859,-0.6209,0.4421,-0.1429,348.0823
15:54:36:516,-1.2323,3.2686,5.9414,49.5579,-0.4609,0.3554,-0.0524,347.9732
15:54:36:538,-1.2347,3.3021,5.2738,49.3093,-0.2972,0.0891,0.0954,347.8408
15:54:36:556,-1.0768,3.405,4.8814,50.6676,-0.2251,-0.1382,0.2383,347.6315
15:54:36:578,-0.9188,3.4768,5.1494,50.6993,-0.2617,-0.209,0.3568,346.9109
15:54:36:596,-0.7346,3.4576,6.8267,49.7783,-0.4548,0.0304,0.4973,346.4029
15:54:36:622,-0.4068,3.3165,7.9848,50.2053,-0.5183,0.2149,0.5413,345.7141
15:54:36:641,-0.1292,3.2758,9.6766,48.5795,-0.5159,0.3884,0.5511,344.9619
15:54:36:656,-0.3374,3.3117,10.6385,51.7611,-0.3839,0.4592,0.5132,344.2264
15:54:36:677,-0.4475,3.4624,10.9208,51.6628,-0.1738,0.4067,0.4827,343.5841
15:54:36:697,-0.3087,3.5916,11.7799,50.732,-0.0565,0.2442,0.4753,342.9973
15:54:36:728,0.0359,3.4074,12.7968,52.0553,-0.0162,0.0145,0.4619,342.4869
15:54:36:744,0.7729,3.0915,14.1799,51.8555,-0.0101,-0.2298,0.4582,342.0331
15:54:36:756,1.1701,3.1872,14.9695,52.4935,0.0461,-0.3666,0.4374,341.6441
15:54:36:780,1.4931,3.3356,14.2469,50.6954,0.2783,-0.0771,0.4118,341.1771
15:54:36:794,1.2921,3.5653,12.2847,52.263,0.5177,0.469,0.358,340.6043
15:54:36:815,0.1149,3.7496,11.2032,52.0163,0.5299,0.9186,0.2652,340.0184
15:54:36:835,-1.1677,4.3286,10.3872,52.9813,0.5336,1.185,0.2175,339.4077
15:54:36:856,-1.5553,5.0034,9.1095,53.4177,0.6118,1.152,0.2493,338.7663
15:54:36:875,-1.0074,5.1613,8.4323,51.6086,0.4835,0.7622,0.2371,338.2669
15:54:36:895,0.0933,4.2664,9.923,53.2138,0.0058,0.1355,0.0868,338.1052
15:54:36:915,-0.0885,2.802,13.2084,52.9743,-0.5549,-0.3764,-0.1929,338.4209
15:54:36:935,-1.1749,1.4668,15.5629,54.3072,-0.6612,-0.2713,-0.3176,338.8516
15:54:36:956,-2.3713,1.3495,14.9743,54.8111,-0.1286,0.4812,-0.1257,338.8357
15:54:36:975,-2.7039,1.3854,12.8447,55.0111,0.5006,1.1886,0.2737,338.1711
15:54:36:995,-1.9908,1.5793,11.4473,56.692,0.8634,1.4036,0.7087,336.9409
15:54:37:015,-0.6269,1.742,10.3537,55.6338,1.0785,1.2143,1.0385,335.3938
15:54:37:035,0.2034,1.9573,8.7673,56.5814,1.3228,0.9321,1.1509,333.8271
15:54:37:056,0.9978,2.467,5.4748,56.4119,1.6234,0.7231,1.0422,330.8875
15:54:37:075,0.9739,2.5555,4.7258,54.6038,1.5488,0.6767,0.9237,329.6377
15:54:37:094,0.737,2.8259,3.9745,53.7962,1.4511,0.5887,0.7844,328.5567
15:54:37:115,0.603,3.0652,3.6395,55.4699,1.3338,0.4971,0.6647,327.645
15:54:37:140,0.4714,3.2973,3.4265,56.2471,1.1982,0.2931,0.5535,326.9639
15:54:37:159,0.536,3.6132,3.5797,55.1581,1.065,0.0268,0.446,326.5461
15:54:37:174,0.7609,3.8189,4.4435,55.1581,0.9649,-0.2249,0.3153,326.3971
15:54:37:195,0.6724,3.9171,4.7498,55.612,0.9661,-0.4583,0.1345,326.5693
15:54:37:217,0.0383,4.398,3.4839,57.2743,0.9746,-0.6501,-0.0537,327.0496
15:54:37:238,-0.4331,4.9388,2.9312,57.8491,0.6729,-0.727,-0.1648,327.7048
15:54:37:256,-0.5336,5.0919,4.5655,57.8231,-0.0101,-0.7283,-0.1978,328.4149
15:54:37:277,-0.2225,4.9244,8.004,56.9442,-0.6979,-0.5242,-0.177,328.9293
15:54:37:296,-0.079,5.0967,10.3107,58.0214,-0.9996,-0.2567,-0.1673,329.2527
15:54:37:316,-0.1436,5.4126,10.9089,58.2845,-1.0094,-0.1492,-0.2125,329.5488
15:54:37:339,0.323,5.2666,11.8828,58.0127,-1.112,-0.3605,-0.2931,330.0359
15:54:37:358,0.5599,4.6588,13.5242,58.9163,-1.3564,-0.8541,-0.4471,330.9493
15:54:37:379,0.2058,3.8022,15.4481,58.7763,-1.5164,-1.1901,-0.6096,332.1852
15:54:37:398,-0.1651,3.3523,15.8668,61.1998,-1.3381,-1.1326,-0.6267,333.3928
15:54:37:416,-0.4594,3.5103,14.2876,59.7094,-0.908,-0.7991,-0.4874,334.2915
15:54:37:440,0.0742,3.8859,12.4618,57.6316,-0.5708,-0.457,-0.2797,334.8182
15:54:37:547,0.7585,4.1228,10.9424,59.5887,-0.4523,-0.3019,-0.149,335.1149
15:54:37:548,1.2754,4.2162,9.5186,60.1606,-0.4132,-0.2334,-0.1514,335.3937
15:54:37:549,1.4644,4.2688,8.3175,59.7145,-0.3533,-0.1296,-0.2577,335.7271
15:54:37:551,0.6006,3.8524,5.9892,60.464,-0.1897,0.072,-0.5558,336.7141
15:54:37:551,0.0024,3.6634,5.3982,59.3978,-0.1676,0.1196,-0.6096,337.3018
15:54:37:568,-0.4618,3.6036,5.1613,59.5137,-0.164,0.1123,-0.5619,337.8581
15:54:37:575,-0.5073,3.673,5.5394,61.6068,-0.1359,0.0781,-0.4458,338.3123
15:54:37:595,-0.615,3.7926,5.5681,61.159,-0.0528,-0.0331,-0.3554,338.7359
15:54:37:616,-0.8183,3.9793,5.4772,59.2751,0.0119,-0.2261,-0.287,339.1798
15:54:37:639,-0.7035,4.276,5.6877,60.0194,-0.026,-0.3862,-0.2015,339.612
15:54:37:655,-0.4977,4.5344,6.6664,60.5288,-0.1335,-0.3898,-0.1196,339.9499
15:54:37:676,-0.4092,4.7354,7.657,60.3284,-0.1945,-0.3422,-0.0879,340.2361
15:54:37:695,-0.2704,4.8263,8.5352,59.9433,-0.1848,-0.3532,-0.1123,340.56
15:54:37:715,-0.67,4.6804,9.6144,62.0395,-0.1652,-0.435,-0.1991,341.0121
15:54:37:740,-1.34,4.5607,10.7629,62.9772,-0.131,-0.5389,-0.2626,341.5813
15:54:37:757,-1.8114,4.6947,11.3324,64.0023,-0.0162,-0.5706,-0.2088,342.1245
15:54:37:777,-1.3807,4.8239,11.5549,61.236,0.1463,-0.5206,-0.0256,342.4532
15:54:37:795,0.0311,4.8383,11.7918,62.3307,0.2416,-0.4876,0.1674,342.5493
15:54:37:815,1.0816,4.9651,12.1053,62.8395,0.2404,-0.4937,0.2114,342.5934
15:54:37:839,0.9308,4.9292,11.5549,62.9956,0.2599,-0.3019,0.0819,342.6928
15:54:37:856,0.067,4.8431,9.8752,63.7279,0.3381,0.2332,-0.0537,342.6872
15:54:37:877,-1.0433,4.9077,8.3964,62.9956,0.3235,0.9491,-0.0891,342.4254
15:54:37:896,-1.8066,5.1326,7.7049,63.8723,0.1952,1.5478,-0.0476,341.8476
15:54:37:918,-2.1942,5.4867,7.3531,62.0611,0.0009,1.7555,-0.0378,341.15
15:54:37:935,-2.2493,5.269,7.8126,62.9576,-0.3448,1.4696,-0.1257,340.6811
15:54:37:960,-2.8116,2.747,13.9573,63.541,-1.2086,0.2638,-0.3994,340.6355
15:54:37:976,-3.2088,1.9669,14.6441,62.2355,-0.9642,-0.016,-0.3017,340.9415
15:54:37:995,-2.7446,2.0913,12.7681,63.7131,-0.3656,0.1611,0.0404,341.3099
15:54:38:015,-1.2825,2.4287,11.4688,62.0994,0.0095,0.4556,0.4374,340.7274
15:54:38:037,-0.1172,2.4742,11.2152,62.9761,0.1133,0.5985,0.639,339.856
15:54:38:058,0.3398,2.4742,10.4399,62.5593,0.2734,0.6181,0.6561,338.9458
15:54:38:075,0.5049,2.5125,9.3368,62.8447,0.5092,0.5631,0.6109,338.1041
15:54:38:095,0.6748,2.5795,8.3438,62.0579,0.7388,0.4996,0.5511,337.3528
15:54:38:117,0.6604,2.7159,7.2263,61.9678,0.916,0.4165,0.4814,336.6976
15:54:38:138,0.7202,2.9073,6.6377,62.7908,1.0064,0.3224,0.4155,336.1701
15:54:38:155,0.7777,2.948,6.5851,62.2584,0.9844,0.1404,0.3275,335.7974
15:54:38:176,0.7849,3.0556,6.207,62.5267,0.9722,-0.0856,0.2236,335.6413
15:54:38:196,0.8925,3.0867,5.8241,62.9887,0.9539,-0.2713,0.1247,335.679
15:54:38:215,0.8806,3.1633,5.3647,61.3347,0.8842,-0.3752,0.0318,335.8874
15:54:38:238,0.8064,3.3236,5.056,62.1841,0.7731,-0.4167,-0.0524,336.2059
15:54:38:257,0.548,3.5438,4.9388,61.1936,0.6374,-0.3984,-0.1331,336.5912
15:54:38:274,0.0622,3.8405,4.678,61.633,0.5104,-0.4033,-0.2101,337.0708
15:54:38:295,-0.2297,4.252,4.7234,60.3264,0.3222,-0.6085,-0.254,337.7105
15:54:38:315,-0.28,4.3956,4.9149,61.2297,0.0596,-0.9225,-0.2797,338.5613
15:54:38:338,-0.3733,4.7258,5.1422,60.9327,-0.2299,-1.1155,-0.2956,339.5576
15:54:38:357,-0.4044,5.3527,5.6183,62.4389,-0.5953,-1.1632,-0.309,340.5789
15:54:38:376,-0.0359,5.3168,7.7049,61.4328,-1.1365,-1.1168,-0.3554,341.6035
15:54:38:396,0.2656,4.7186,11.3181,61.3553,-1.6753,-1.0215,-0.4483,342.6319
15:54:38:416,0.2106,3.4481,16.812,60.2213,-1.7596,-1.3049,-0.7012,343.7713
15:54:38:440,-0.2823,2.7039,18.0132,59.6932,-1.4774,-1.5932,-0.7769,345.0437
15:54:38:456,-1.1318,2.534,17.5681,59.5536,-1.0192,-1.4002,-0.6987,347.9026
15:54:38:476,-1.139,2.7661,15.7065,58.1003,-0.4511,-0.7454,-0.4019,348.6858
15:54:38:496,-0.3278,3.0461,13.8305,61.0237,-0.0211,-0.1809,-0.0732,348.867
15:54:38:515,0.2321,3.3858,11.5143,59.0477,0.2636,0.0768,0.0917,348.8164
15:54:38:540,0.3637,3.6347,9.2004,60.3073,0.4114,0.1758,0.1088,348.7113
15:54:38:557,0.5121,3.728,7.3268,61.6077,0.4065,0.2882,0.0929,348.5546
15:54:38:575,0.6389,3.7472,5.9773,60.1085,0.3125,0.4617,0.0575,348.3592
15:54:38:595,0.3685,3.6467,5.2211,58.8218,0.1854,0.6376,-0.0146,348.1597
15:54:38:615,-0.0479,3.5773,5.1015,59.0471,0.0865,0.7036,-0.0964,348.0273
15:54:38:640,-0.4953,3.5055,4.9412,59.1671,0.0571,0.5558,-0.1465,348.0097
15:54:38:656,-0.6365,3.6036,4.6708,60.1393,0.0693,0.2662,-0.1355,348.1312
15:54:38:676,-0.4642,3.7304,4.5057,59.399,0.04,0.0085,-0.0769,348.2755
15:54:38:694,-0.0407,3.9314,4.8861,58.137,-0.0687,-0.1296,-0.0182,348.411
15:54:38:715,0.2177,4.1396,5.9509,59.7186,-0.2177,-0.2029,-0.0048,348.5689
15:54:38:737,0.3948,4.4124,7.3795,58.137,-0.3277,-0.2945,-0.0598,348.8033
15:54:38:756,0.4307,4.4794,8.6692,57.876,-0.3619,-0.4167,-0.1575,349.1902
15:54:38:779,0.2656,4.3717,9.3799,57.5087,-0.3216,-0.413,-0.2394,349.6604
15:54:38:794,0.1555,4.2903,10.148,58.5312,-0.2849,-0.2347,-0.2638,350.105
15:54:38:814,-0.1268,4.2114,11.1434,58.3933,-0.2495,-0.0502,-0.2589,350.4669
15:54:38:835,-0.4498,4.2808,12.2656,57.7402,-0.153,0.0659,-0.2394,350.77
15:54:38:854,-0.2895,3.9577,12.9523,57.1964,0.0522,0.0829,-0.1929,350.9995
15:54:38:877,0.0048,3.9673,13.0648,57.927,0.3002,-0.3202,-0.0757,351.4559
15:54:38:895,0.1842,3.8596,11.8851,58.3325,0.4175,-0.0966,0.0392,351.5283
15:54:38:916,0.2082,3.8692,11.074,57.6599,0.4493,0.3126,0.1723,351.2953
15:54:38:940,-0.4929,4.1611,11.0596,56.0929,0.3699,0.6792,0.2615,350.8318
15:54:38:955,-0.8279,4.4004,10.404,57.4056,0.4334,0.9088,0.3324,350.1894
15:54:38:975,-0.6867,4.3813,9.2818,56.9931,0.5043,0.8026,0.3483,349.5649
15:54:38:993,-0.2297,3.8716,8.875,57.1657,0.3125,0.4189,0.2921,349.1402
15:54:39:014,-0.0096,3.3141,9.2459,56.3129,-0.0687,0.0585,0.2114,348.9695
15:54:39:034,0.0885,3.0987,9.2483,56.3129,-0.3668,0.0878,0.1992,348.7836
15:54:39:058,0.0981,2.9815,8.5304,56.4629,-0.5036,0.4128,0.2322,348.4266
15:54:39:074,0.1364,2.8092,7.9537,56.1814,-0.6062,0.7012,0.2505,347.9236
15:54:39:095,0.3541,2.4694,7.7264,56.3817,-0.7187,0.7463,0.2383,347.4257
15:54:39:115,0.2632,2.278,7.937,54.4003,-0.8152,0.4776,0.1821,347.0961
15:54:39:138,0.1819,2.1033,8.3868,55.3856,-0.8188,0.0683,0.1271,346.9633
15:54:39:156,0.3302,2.0411,8.9013,55.9031,-0.6258,-0.2444,0.1479,346.9371
15:54:39:178,0.3613,2.1583,7.9585,55.0209,-0.2385,-0.3629,0.1882,346.9139
15:54:39:196,0.804,2.4455,6.3888,54.4702,0.0974,-0.3165,0.2053,346.8525
15:54:39:215,0.8399,2.5579,6.0299,56.4891,0.1207,-0.2066,0.121,346.8246
15:54:39:242,0.0048,2.3833,7.1928,54.9472,-0.0443,-0.0404,-0.0427,346.9453
15:54:39:259,-1.072,2.4335,8.3486,55.9031,-0.0626,0.0121,-0.1319,347.1593
15:54:39:276,-1.328,2.5053,8.4156,55.2953,0.139,-0.1601,-0.0671,347.3669
15:54:39:296,-0.7609,2.7087,8.1212,54.084,0.376,-0.3459,0.077,347.4814
15:54:39:315,-0.2536,2.9551,8.1236,55.2612,0.4518,-0.3996,0.1528,347.5308
15:54:39:339,-0.3039,3.5103,10.0307,55.9745,0.1805,-0.0795,0.1125,347.5585
15:54:39:358,-0.5647,3.8764,11.8517,55.0209,0.0388,0.0781,0.0978,347.4217
15:54:39:377,-0.792,4.5057,12.5049,54.2447,0.1292,0.2137,0.099,347.3086
15:54:39:417,0.2847,4.0032,10.7318,56.2341,0.343,0.2014,0.1064,347.2599
15:54:39:431,1.1079,2.4479,12.3853,55.4596,-0.4462,-0.5096,-0.2565,347.7549
15:54:39:453,0.4235,1.8688,15.0509,55.3163,-0.7907,-0.6036,-0.3835,348.4192
15:54:39:472,0.859,1.5673,15.1322,54.8529,-0.4633,-0.6708,-0.2455,348.9483
15:54:39:490,1.7635,1.8185,12.792,54.295,0.1683,-0.6928,-0.0146,349.2183
15:54:39:508,2.4455,2.2971,9.7723,55.8492,0.591,-0.611,0.0978,349.3274
15:54:39:528,2.9503,2.6752,7.8628,55.9564,0.525,-0.4644,0.0844,349.4141
15:54:39:545,2.8786,2.6895,7.4848,55.8324,0.1316,-0.2518,-0.0207,349.5226
15:54:39:637,1.9884,2.7039,7.9178,53.3886,-0.2312,0.0793,-0.1587,349.6711
15:54:39:638,1.1294,2.7733,8.327,55.8617,-0.3216,0.3713,-0.2516,349.8418
15:54:39:639,0.5264,2.7517,8.1595,55.6896,-0.1493,0.4067,-0.2992,350.0439
15:54:39:640,0.1507,2.7972,7.1187,53.3896,0.1304,0.2173,-0.3029,350.325
15:54:39:656,0.1172,2.9815,6.2357,53.9348,0.3039,0.05,-0.2467,350.6182
15:54:39:661,0.268,3.1944,6.3697,51.7664,0.3015,-0.0038,-0.1673,350.8373
15:54:39:679,0.5408,3.3069,6.7669,54.1527,0.2538,-0.0258,-0.1209,351.0137
15:54:39:698,0.4977,3.5557,7.0373,53.121,0.2697,-0.0001,-0.116,351.1765
15:54:39:720,0.4092,3.8596,7.4082,56.2051,0.31,0.0536,-0.1062,351.3066
15:54:39:741,0.6556,4.118,7.7049,53.9451,0.3772,0.0585,-0.0524,351.394
15:54:39:757,1.1007,4.3358,7.657,52.4872,0.4908,0.0133,-0.0036,351.4168
15:54:39:776,1.2275,4.465,7.2287,53.0243,0.5935,0.0145,-0.028,351.4654
15:54:39:796,1.084,4.5081,7.3125,53.3114,0.5813,0.05,-0.0952,351.5261
15:54:39:816,0.5815,4.6947,8.351,54.5637,0.4774,0.0903,-0.1636,351.6475
15:54:39:837,-0.0694,4.9484,9.1549,54.3318,0.4713,0.1306,-0.188,351.8403
15:54:39:860,-0.0144,4.9029,8.8223,52.5989,0.5837,0.1257,-0.1465,351.9894
15:54:39:876,0.5623,4.7139,8.2887,53.0185,0.5739,0.0426,-0.0891,352.0786
15:54:39:894,0.3374,5.1135,8.8415,52.5821,0.3369,0.0329,-0.0891,352.2538
15:54:39:914,-0.5934,5.4317,9.5856,53.0243,0.084,0.2797,-0.127,352.3304
15:54:39:937,-1.462,5.2307,9.8967,53.8858,-0.0443,0.524,-0.1233,352.2828
15:54:39:955,-2.0387,5.0919,10.4782,53.0117,-0.142,0.436,-0.0622,352.2267
15:54:39:975,-2.2086,4.9723,10.4471,54.1131,-0.1725,0.1086,0.0001,352.2811
15:54:39:996,-1.6606,4.4507,9.813,54.1569,-0.1738,-0.1895,0.0514,352.4056
15:54:40:015,-0.8375,3.5749,9.0497,53.6927,-0.3228,-0.3397,0.0673,352.5702
15:54:40:038,-0.3063,2.7709,9.4253,54.038,-0.7297,-0.2994,0.0636,352.7155
15:54:40:055,-0.4283,2.1296,9.9972,55.8356,-1.1377,-0.0025,0.0624,352.6987
15:54:40:075,-0.7753,1.9717,10.1384,52.3636,-1.2916,0.4776,0.1454,352.4212
15:54:40:094,-0.4235,1.785,9.935,53.591,-1.288,0.7708,0.2994,351.8525
15:54:40:114,0.2177,1.6534,10.7462,53.3816,-1.2721,0.6608,0.3813,351.2465
15:54:40:134,0.7537,1.6487,11.5717,52.4062,-1.1157,0.2943,0.3483,350.7865
15:54:40:157,0.658,1.8305,11.1482,54.0349,-0.7223,-0.0465,0.2518,350.5688
15:54:40:175,0.2417,2.1823,9.6431,52.7969,-0.2165,-0.1125,0.1955,350.4278
15:54:40:196,0.2895,2.8163,6.9224,53.4784,0.3186,0.1575,0.2896,350.2121
15:54:40:215,0.4068,3.0556,6.4965,52.8804,0.3222,0.2124,0.297,349.8495
15:54:40:235,0.1579,3.2566,6.5085,55.2093,0.2599,0.1453,0.2371,349.5298
15:54:40:256,-0.0598,3.2925,6.944,55.1616,0.1903,0.0036,0.1687,349.111
15:54:40:277,-0.0909,3.2231,7.4106,54.3715,0.1658,-0.1541,0.132,349.0721
15:54:40:298,0.0622,3.2734,7.949,54.9339,0.1927,-0.2823,0.1149,349.102
15:54:40:316,0.1412,3.1346,8.2911,55.2093,0.2318,-0.3459,0.0709,349.2043
15:54:40:338,-0.1364,3.1777,8.5998,54.079,0.2465,-0.3715,0.0037,349.3917
15:54:40:359,-0.2249,3.2782,9.2315,53.3961,0.1598,-0.4448,-0.0488,349.649
15:54:40:373,-0.4546,3.4935,10.0594,54.0529,-0.0076,-0.4912,-0.0732,349.9643
15:54:40:394,-0.2177,3.5557,11.0812,53.7053,-0.131,-0.3569,-0.0341,350.1884
15:54:40:414,-0.0622,4.0104,12.4594,54.0841,-0.1286,-0.1944,0.0074,350.3034
15:54:40:434,0.2058,3.8644,13.1605,57.0912,0.0278,-0.1711,-0.0134,350.4169
15:54:40:456,0.469,3.2399,12.0933,54.9488,0.2502,-0.3837,-0.0964,350.7058
15:54:40:476,1.3256,2.479,10.9041,55.5423,0.2758,-0.5951,-0.116,351.0727
15:54:40:496,1.6032,2.0674,11.0812,56.8491,0.0156,-0.4741,-0.0695,351.3358
15:54:40:514,1.0002,2.0483,12.3278,56.2488,-0.263,-0.0893,-0.0048,351.3961
15:54:40:534,1.1055,1.876,12.6126,55.3037,-0.2678,0.1049,0.1149,351.2626
15:54:40:558,1.584,1.8401,11.6626,53.7937,-0.0687,-0.0685,0.1907,351.1006
15:54:40:576,1.8855,1.8736,10.2341,55.6629,0.0816,-0.2945,0.1736,351.0176
15:54:40:595,1.8329,2.2205,9.0856,54.9489,0.0608,-0.2958,0.1247,351.0036
15:54:40:615,1.7874,2.4766,8.4227,54.8713,-0.0895,-0.0587,0.0929,350.9385
15:54:40:635,1.3759,2.7757,8.0231,58.1554,-0.2422,0.276,0.0526,350.8187
15:54:40:654,0.6389,2.9647,7.8628,57.3787,-0.3179,0.546,0.0013,350.6699
15:54:40:677,0.0502,3.1178,7.669,57.9581,-0.2678,0.662,-0.0219,350.4146
15:54:40:696,-0.0168,3.3093,6.5181,56.6435,0.018,0.2797,0.0318,350.3443
15:54:40:716,0.2034,3.2877,6.0227,56.4498,0.0877,0.1196,0.0697,350.2383
15:54:40:734,0.3757,3.2806,6.0443,56.8277,0.0583,0.0878,0.0978,350.1585
15:54:40:756,0.5982,3.3811,6.5444,56.6911,-0.0284,0.0683,0.1259,350.0474
15:54:40:774,0.9523,3.3763,7.2574,56.6911,-0.1017,0.0475,0.1381,349.9148
15:54:40:794,1.1438,3.3069,7.9801,56.6911,-0.0858,0.0829,0.0978,349.8072
15:54:40:813,1.139,3.1537,8.4227,56.6911,0.0022,0.1233,0.0294,349.757
15:54:40:834,0.8925,3.2782,8.7841,56.6911,0.0938,0.1159,-0.0158,349.7633
15:54:40:856,0.6724,3.2901,9.8082,57.8131,0.172,0.0952,-0.0256,349.7911
15:54:40:879,0.5312,3.4887,10.5619,59.3039,0.3112,0.0194,-0.017,349.8423
15:54:40:902,0.8327,3.3715,10.0235,56.0525,0.5299,-0.1003,0.0025,349.8896
15:54:40:935,1.5529,2.8355,9.3392,57.4683,0.58,-0.2396,0.0013,349.9711
15:54:40:937,1.2825,3.3452,10.1839,59.7043,0.3393,-0.2334,-0.0134,350.066
15:54:40:953,0.7442,3.9817,11.5884,60.6755,0.1304,0.0585,0.0062,350.0832
15:54:40:973,0.335,4.2305,11.0429,60.9319,0.2673,0.4446,0.0709,349.8923
15:54:40:994,-0.4475,4.6804,10.4279,59.9875,0.4908,0.6816,0.1198,349.5722
15:54:41:014,-1.1198,4.9077,9.8489,61.1269,0.5947,0.6278,0.0856,349.3229
15:54:41:034,-1.3304,4.5583,8.9276,61.5519,0.5214,0.232,-0.0366,349.356
15:54:41:059,-1.5482,3.7974,8.54,61.7682,0.1683,-0.2274,-0.1734,349.7124
15:54:41:074,-1.4788,2.9839,9.411,62.0304,-0.3912,-0.341,-0.1624,350.1135
15:54:41:093,-0.9595,2.321,10.9352,61.9126,-0.9153,-0.1443,0.0196,350.2244
15:54:41:114,-0.1388,2.0195,12.7442,63.1818,-1.1927,0.1025,0.2322,349.9899
15:54:41:134,0.3039,1.8521,13.2084,62.3157,-1.0925,0.2369,0.3324,349.5808
15:54:41:156,0.0048,1.9717,11.7272,62.9593,-0.6979,0.2772,0.325,349.1873
15:54:41:178,0.2919,2.3737,8.0901,62.3902,-0.28,0.3236,0.4228,348.2114
15:54:41:195,0.8112,2.3665,7.9418,62.9593,-0.3436,0.469,0.468,347.6129
15:54:41:213,1.2921,2.534,7.7025,63.3757,-0.2972,0.5875,0.4093,347.0236
15:54:41:235,1.1007,2.5771,7.7934,63.0895,-0.1579,0.4874,0.2188,346.6633
15:54:41:255,0.469,2.321,7.9944,64.5616,0.0339,0.1257,-0.0305,346.6971
15:54:41:282,-0.3876,2.4766,7.2168,65.0641,0.3186,-0.2823,-0.2137,347.0498
15:54:41:293,-0.9906,2.5747,6.1065,63.3572,0.5287,-0.4741,-0.254,347.5411
15:54:41:313,-1.1701,2.4574,5.6614,65.1204,0.5104,-0.4656,-0.1575,347.9283
15:54:41:333,-0.792,2.4,6.1974,65.6577,0.2624,-0.4803,0.0001,348.1629
15:54:41:357,0.3709,1.9956,7.7456,64.9534,-0.0113,-0.5743,0.1296,348.2652
15:54:41:375,0.6221,2.1081,9.679,65.9653,-0.0589,-0.5364,0.1015,348.3609
15:54:41:393,0.7537,2.1488,10.3179,65.0681,0.1536,-0.5487,-0.0158,348.5949
15:54:41:413,0.0766,2.7446,9.0903,66.319,0.5104,-0.5474,-0.1465,348.9782
15:54:41:434,0.256,2.9169,8.1476,65.7859,0.5238,-0.3202,-0.1453,349.2936
15:54:41:459,-0.0742,3.3093,8.9587,66.9574,0.2001,0.1049,-0.1025,349.4217
15:54:41:475,0.0144,3.5127,10.459,66.3855,-0.1493,0.4238,-0.0622,349.3955
15:54:41:494,1.0289,2.9432,11.2582,66.6814,-0.3509,0.3432,-0.0585,349.3629
15:54:41:513,2.3737,1.6726,11.4616,66.7277,-0.5378,-0.0966,-0.1795,349.5669
15:54:41:533,2.7182,0.7011,12.8399,65.7579,-0.8897,-0.5145,-0.386,350.1172
15:54:41:557,2.0267,0.3637,15.3212,66.9069,-1.1304,-0.5523,-0.5265,350.8325
15:54:41:575,0.9954,0.5934,15.7567,67.1488,-0.875,-0.3764,-0.5069,351.5111
15:54:41:594,0.6867,1.0313,13.2754,66.7639,-0.2972,-0.2066,-0.3163,351.9276
15:54:41:614,1.3687,1.5506,10.9352,67.7111,-0.0015,-0.1589,-0.0451,352.0454
15:54:41:634,1.8497,2.4359,9.3631,67.708,-0.241,0.1306,0.1174,351.9328
15:54:41:762,1.34,2.5914,8.54,67.9457,-0.2483,0.3493,0.0196,351.7415
15:54:41:762,0.6078,2.656,7.7862,69.7407,-0.1432,0.4348,-0.0671,351.6433
15:54:41:763,0.0885,2.7781,6.8363,68.5485,0.029,0.364,-0.1123,351.6444
15:54:41:764,0.0144,2.881,6.2572,68.2021,0.1744,0.1416,-0.1147,351.8617
15:54:41:765,0.0263,2.9001,5.6901,67.7366,0.2489,-0.1101,-0.1233,352.0753
15:54:41:765,-0.012,3.07,5.4843,66.6553,0.2502,-0.2164,-0.1355,352.327
15:54:41:782,0.0742,3.2064,6.1089,67.2501,0.1732,-0.1699,-0.1245,352.56
15:54:41:793,-0.0383,3.3811,6.609,68.3991,0.1268,-0.0991,-0.1282,352.7848
15:54:41:813,-0.1771,3.6323,6.7813,67.3649,0.1255,-0.0624,-0.1355,353.0028
15:54:41:833,0.067,3.8477,7.6953,69.3307,0.0706,-0.0966,-0.1172,353.2011
15:54:41:857,0.5025,3.7208,9.6622,68.1187,-0.0455,-0.2347,-0.1306,353.4498
15:54:41:874,0.8207,3.3595,10.8969,68.4266,-0.037,-0.3764,-0.2052,353.806
15:54:41:894,0.5647,3.137,11.2606,67.8411,0.1035,-0.3629,-0.2809,354.2579
15:54:41:918,0.2297,3.125,12,67.4972,0.1976,-0.253,-0.2748,354.6825
15:54:41:933,0.1675,3.1322,12.4738,68.7707,0.2758,-0.1223,-0.1868,354.9678
15:54:41:954,0.7489,3.0748,12.3733,69.9988,0.3736,-0.0722,-0.0598,355.0976
15:54:41:976,1.1605,3.3571,12.2201,68.7835,0.4236,-0.0441,0.0477,355.0948
15:54:41:995,1.3878,3.7041,12.0455,68.1276,0.4676,0.1257,0.1125,354.9572
15:54:42:013,1.1916,3.728,11.0429,70.7346,0.5727,0.4678,0.1296,354.6896
15:54:42:033,0.201,3.7902,10.1575,67.9972,0.6448,0.7341,0.0844,354.3974
15:54:42:062,-0.9882,4.2257,9.5809,68.6454,0.6961,0.8624,0.0514,353.8471
15:54:42:077,-1.6439,4.5105,7.7049,70.5831,0.5458,0.5216,0.0648,353.661
15:54:42:099,-0.4977,3.3978,8.4706,70.5045,-0.026,0.0524,0.0758,353.5761
15:54:42:119,0.4786,2.3689,11.3276,69.927,-0.7199,-0.3263,0.0465,353.7107
15:54:42:139,0.6054,1.3711,14.0937,69.4352,-1.1255,-0.5169,-0.05,353.9445
15:54:42:158,-0.323,1.395,14.0459,68.6364,-0.8323,-0.2041,-0.0622,354.1189
15:54:42:175,-0.548,1.6941,11.8636,70.0631,-0.1579,0.353,0.1369,353.907
15:54:42:193,-0.1675,2.0315,9.1932,67.4974,0.365,0.6987,0.3739,353.3268
15:54:42:213,0.4929,2.4407,7.1234,68.4001,0.5263,0.7439,0.4949,352.5851
15:54:42:233,1.2012,2.6393,6.0945,67.9781,0.3626,0.5655,0.4704,351.9139
15:54:42:261,1.1988,2.7541,7.1474,67.365,0.0522,0.2992,0.297,351.502
15:54:42:281,0.7753,2.5125,8.5759,69.9758,-0.0895,0.0036,0.066,351.4409
15:54:42:297,-0.012,2.668,8.6357,68.4242,0.1732,-0.1394,-0.0757,351.6136
15:54:42:312,-0.2345,2.7805,7.1115,66.8567,0.6203,-0.1687,-0.0732,351.7873
15:54:42:333,-0.2249,3.2064,5.336,67.757,0.8903,-0.132,-0.0024,351.8813
15:54:42:358,0.2967,3.3978,4.8598,69.274,0.7865,-0.104,0.0551,351.89
15:54:42:374,0.5216,3.1633,6.0778,66.9543,0.4285,-0.1809,0.0208,351.9692
15:54:42:394,0.0431,3.0891,7.9107,66.0721,0.1964,-0.2933,-0.0659,352.1797
15:54:42:413,-0.0311,3.1059,8.4778,68.5244,0.2831,-0.3862,-0.0793,352.4486
15:54:42:433,0.1364,3.2758,7.8078,67.5424,0.5324,-0.3727,-0.0378,352.6756
15:54:42:461,0.3637,3.6323,7.6403,69.028,0.6277,-0.3104,-0.0158,352.8436
15:54:42:477,0.3446,3.7902,8.3557,66.8357,0.5043,-0.2689,-0.0353,353.0213
15:54:42:495,-0.0718,4.2568,9.1478,68.0419,0.343,-0.2518,-0.0585,353.2318
15:54:42:512,-0.5384,5.1565,9.6622,66.2476,0.2575,-0.1626,-0.0207,353.3721
15:54:42:533,-0.1053,5.2283,9.6694,66.7955,0.1866,-0.0465,0.0612,353.3685
15:54:42:562,2.5388,2.9862,11.2893,66.3797,-0.6172,-0.1638,-0.0463,353.3004
15:54:42:580,2.4909,1.8018,15.3404,67.3561,-1.1841,-0.3788,-0.2687,353.7516
15:54:42:599,1.1964,1.3735,17.7476,65.6563,-1.0681,-0.3886,-0.4373,354.3369
15:54:42:612,0.2153,1.6917,16.3549,65.484,-0.2556,-0.3019,-0.3676,354.8563
15:54:42:633,0.3087,2.2349,12.1651,65.6563,0.5764,-0.2444,-0.1221,355.0916
15:54:42:657,1.0122,2.8522,8.8319,66.0344,0.8525,-0.0917,0.1149,355.012
15:54:42:675,1.675,3.3595,7.8197,65.7405,0.5434,0.122,0.2432,354.7065
15:54:42:695,1.5242,3.6826,8.3797,65.708,0.0364,0.188,0.209,354.4128
15:54:42:713,0.9356,3.7974,8.7912,65.7405,-0.2361,0.1282,0.1088,354.2371
15:54:42:733,0.6317,4.0391,8.3821,64.2305,-0.1799,0.0329,0.0551,354.1973
15:54:42:757,0.5408,4.1683,7.2359,65.7094,0.0351,-0.0429,0.0367,354.2063
15:54:42:775,0.5575,4.1228,6.1041,66.25,0.1903,-0.0746,0.0404,354.2197
15:54:42:793,0.6078,4.0678,5.604,65.3164,0.194,-0.0856,0.0526,354.2237
15:54:42:812,0.6796,3.9673,5.8911,65.7094,0.1048,-0.104,0.0587,354.2259
15:54:42:832,0.6796,3.9338,6.5515,64.2489,0.0779,-0.0869,0.0612,354.2193
15:54:42:853,0.7872,4.0439,6.7047,63.2746,0.1903,-0.0416,0.0709,354.1909
15:54:42:874,0.9739,4.2832,6.0706,65.1992,0.3723,0.0268,0.0709,354.1149
15:54:42:893,1.1533,4.5129,5.8122,64.2922,0.4505,0.1062,0.0441,354.0247
15:54:42:914,1.1725,4.7019,6.3697,62.4641,0.3882,0.1306,-0.0073,353.9563
15:54:42:932,1.0768,4.7952,7.2311,64.2994,0.3149,0.1025,-0.0585,353.9677
15:54:42:956,1.2108,4.7952,8.3701,62.8211,0.3039,0.017,-0.0879,354.049
15:54:42:975,1.3902,4.9077,9.2195,64.7028,0.365,-0.1198,-0.116,354.2135
15:54:42:997,1.2897,5.2451,9.1693,62.6521,0.5153,-0.1797,-0.1624,354.4563
15:54:43:024,1.5721,5.525,9.4277,63.117,0.547,-0.038,-0.2259,354.7086
15:54:43:035,1.0122,5.8265,10.2317,63.6954,0.398,-0.016,-0.2907,355.1965
15:54:43:055,0.3422,6.1185,10.6098,61.6752,0.3442,0.0634,-0.3261,355.4855
15:54:43:071,-0.0814,6.195,10.1862,63.0885,0.3968,0.1379,-0.2858,355.7052
15:54:43:092,-0.4834,6.3936,9.8489,63.7482,0.4236,0.2088,-0.2467,355.8758
15:54:43:113,-0.7777,6.0921,8.8511,62.9175,0.3858,0.2772,-0.2907,356.0432
15:54:43:132,-1.3878,5.4509,8.0399,62.2123,0.1439,0.2674,-0.4031,356.3409
15:54:43:157,-1.785,4.4602,8.8391,60.8916,-0.3802,0.1941,-0.4483,356.7272
15:54:43:174,-1.785,3.7208,10.8754,62.963,-0.9056,0.1721,-0.3408,357.0149
15:54:43:197,-1.3615,3.1872,12.6628,61.7366,-1.1133,0.188,-0.1282,357.0895
15:54:43:213,-1.0289,3.07,12.7418,63.26,-0.8518,0.2613,0.1051,356.89
15:54:43:232,-0.6006,3.3045,10.7509,61.2147,-0.3216,0.3432,0.3104,356.4361
15:54:43:253,-0.1531,3.4409,8.4754,61.0565,0.0681,0.342,0.4484,355.8336
15:54:43:273,0.4427,3.4409,6.9894,61.1144,0.161,0.3297,0.5376,355.1434
15:54:43:292,0.7705,3.3858,6.3936,61.8844,0.0828,0.3126,0.5657,354.4339
15:54:43:313,1.0457,3.4385,6.1065,60.5508,0.0266,0.2515,0.5547,353.7579
15:54:43:333,1.4165,3.4098,5.9031,61.8106,0.0706,0.1465,0.5156,353.1519
15:54:43:358,1.4524,3.3715,5.5777,61.0948,0.194,-0.0148,0.4142,352.7227
15:54:43:374,1.1294,3.4959,4.733,61.5891,0.3479,-0.2005,0.2823,352.5366
15:54:43:395,0.7466,3.7376,4.1683,60.3849,0.4004,-0.3104,0.1943,352.519
15:54:43:413,0.6508,3.8788,4.3525,59.5114,0.3235,-0.3349,0.1638,352.5439
15:54:43:432,0.682,4.0869,4.7186,60.8909,0.205,-0.3495,0.1491,352.6004
15:54:43:454,0.5815,4.4865,5.4365,60.9874,0.1194,-0.3349,0.1222,352.6848
15:54:43:476,0.5264,5.3025,7.3125,60.3313,0.062,-0.5071,-0.0402,352.8647
15:54:43:492,0.8782,5.2738,7.4249,62.3979,0.007,-0.622,-0.1416,353.6783
15:54:43:513,0.8303,5.1781,8.0806,62.4209,-0.2202,-0.5768,-0.2528,354.2553
15:54:43:533,0.3948,4.9627,10.0834,61.7148,-0.5611,-0.3239,-0.3151,354.766
15:54:43:552,-0.122,4.9029,12.926,60.7212,-0.8091,-0.0392,-0.2821,355.1115
15:54:43:573,-0.0838,4.7904,14.7948,60.664,-0.7846,0.1013,-0.1392,355.241
15:54:43:594,1.6774,4.2856,14.5555,61.3493,-0.5953,-0.06,0.0269,355.2367
15:54:43:613,3.7304,3.5533,14.8427,60.3475,-0.6014,-0.4253,0.0526,355.3144
15:54:43:632,3.7208,2.7517,16.1205,60.7883,-0.8335,-0.7454,-0.1612,355.7422
15:54:43:653,2.0483,2.6321,16.6756,61.0752,-0.8567,-0.7246,-0.3884,356.44
15:54:43:674,0.6485,2.6584,15.0078,62.2011,-0.5586,-0.5096,-0.3774,357.0762
15:54:43:695,0.9117,3.0532,13.1174,59.9433,-0.1652,-0.1919,-0.1062,357.3156
15:54:43:712,1.4189,3.7663,10.2963,61.4778,0.1744,0.1477,0.1589,357.1045
15:54:43:732,1.4118,4.3956,7.6523,62.215,0.3112,0.4324,0.1968,356.7266
15:54:43:753,1.1366,4.6038,6.3936,61.0934,0.1634,0.6828,0.1516,356.3019
15:54:43:861,0.658,4.5153,6.7478,62.7119,-0.087,0.8062,0.1015,355.8699
15:54:43:862,0.4738,4.1492,7.8078,62.5975,-0.1432,0.7146,0.0746,355.5344
15:54:43:863,0.3733,3.807,7.6881,60.9259,0.1695,0.403,0.0502,355.3652
15:54:43:863,0.2297,3.606,5.9845,60.6993,0.7047,0.0817,0.0135,355.3651
15:54:43:863,0.0455,3.6778,4.118,61.9261,1.0834,-0.1015,-0.017,355.4605
15:54:43:884,-0.0502,3.9434,3.2471,61.8593,1.1176,-0.071,-0.0134,355.5488
15:54:43:894,-0.0383,4.1013,3.4169,61.753,0.9075,0.1013,0.0111,355.5399
15:54:43:915,0.079,4.2736,4.5416,63.0628,0.6167,0.2137,0.0355,355.4446
15:54:43:934,0.871,4.9173,6.4032,61.757,0.3748,0.0976,0.0819,355.164
15:54:43:960,0.9882,5.1876,7.145,63.0911,0.3271,-0.0514,0.0318,355.1945
15:54:43:978,0.8973,5.5633,8.2576,64.0306,0.2453,-0.1638,-0.0585,355.3705
15:54:43:994,0.6772,5.7188,9.2052,61.6119,0.1989,-0.2359,-0.1587,355.7137
15:54:44:013,0.7035,5.6064,9.4732,60.2528,0.2184,-0.2579,-0.2186,356.0907
15:54:44:032,0.6197,5.7069,9.8489,63.1025,0.1561,-0.297,-0.2345,356.5114
15:54:44:054,0.1842,6.0897,10.7773,63.1267,0.0144,-0.2897,-0.2149,356.9308
15:54:44:076,0.1795,5.8648,10.3035,60.8308,0.062,0.0365,-0.1306,357.0883
15:54:44:095,-0.6174,6.6377,9.2674,60.9777,0.172,0.5142,-0.0683,356.9064
15:54:44:114,-1.6199,6.9176,8.5687,64.3428,0.095,0.9675,-0.094,356.558
15:54:44:132,-2.5531,6.5085,8.0853,62.9588,-0.1676,1.3071,-0.1783,356.1193
15:54:44:152,-3.3499,5.2905,8.4251,63.5566,-0.6258,1.4061,-0.2394,355.7209
15:54:44:175,-3.1872,3.9577,10.55,62.9637,-1.211,1.1165,-0.127,355.365
15:54:44:193,-1.986,2.8403,13.9597,63.7446,-1.6777,0.4727,0.1296,355.0767
15:54:44:214,-0.8088,2.12,15.2734,64.4488,-1.5238,0.0109,0.3837,354.7427
15:54:44:233,-0.2704,2.455,13.2873,64.4352,-0.7211,0.2112,0.6122,354.0843
15:54:44:253,0.0909,2.7733,9.7507,62.9637,0.018,0.612,0.771,353.0631
15:54:44:279,0.5384,2.9193,7.9537,63.7188,0.2172,0.7928,0.837,351.8875
15:54:44:294,0.7729,2.79,7.5661,63.0294,0.1035,0.7354,0.8064,350.7542
15:54:44:312,0.6796,2.8355,7.3699,64.4882,0.0608,0.5985,0.7245,349.7571
15:54:44:332,0.8327,2.9575,7.1306,63.6187,0.2062,0.5154,0.6671,348.8588
15:54:44:354,1.0816,2.9503,6.4223,61.6189,0.4371,0.4104,0.5963,348.0816
15:54:44:375,0.993,3.125,5.7619,65.0316,0.6277,0.2833,0.4741,347.48
15:54:44:393,0.213,3.5318,5.0465,64.4662,0.69,0.0048,0.1907,347.1352
15:54:44:413,-0.0814,3.8189,5.2355,64.3371,0.6106,-0.0807,0.1271,346.8927
15:54:44:434,-0.0335,3.9577,5.9055,63.7211,0.4884,-0.2359,0.1015,346.9798
15:54:44:459,0.0311,4.1276,6.4391,63.835,0.3894,-0.4973,0.0685,347.2253
15:54:44:481,0.3422,4.2856,6.7358,64.3676,0.3064,-0.7588,0.0086,347.6648
15:54:44:495,0.3996,4.3023,6.5611,66.5254,0.1353,-1.008,-0.0854,348.3397
15:54:44:512,0.1196,4.4195,6.9751,62.2815,-0.2055,-1.0936,-0.1245,349.1112
15:54:44:532,-0.146,4.7019,9.4397,62.8894,-0.6124,-0.8969,-0.0439,349.7023
15:54:44:552,0.3111,4.7522,11.3492,65.0061,-0.7602,-0.6452,0.1076,349.986
15:54:44:573,1.718,4.3932,10.9663,64.4293,-0.6429,-0.5719,0.2163,350.0816
15:54:44:593,3.9266,3.1178,11.4568,63.1848,-0.8445,-0.7747,0.1736,350.2288
15:54:44:612,3.8788,1.7587,14.7613,64.4737,-1.481,-1.0862,-0.1123,350.7931
15:54:44:632,2.266,1.1079,18.6042,62.5847,-1.8231,-1.1766,-0.4495,351.7513
15:54:44:652,0.8399,1.1486,18.463,64.2167,-1.2843,-0.9555,-0.4752,352.6799
15:54:44:677,1.4548,2.12,13.8927,64.8315,-0.2568,-0.4558,-0.1319,353.0353
15:54:44:698,2.7087,3.1609,9.868,65.618,0.2734,-0.027,0.198,352.8296
15:54:44:712,3.1753,3.9027,7.6211,65.3611,0.194,0.3982,0.2346,352.409
15:54:44:732,2.5771,4.1133,6.3817,64.6233,-0.087,0.7879,0.0453,352.0302
15:54:44:751,1.1318,4.1109,6.2429,65.94,-0.3558,0.9589,-0.2174,351.911
15:54:44:771,0.2847,3.9721,6.5372,63.8154,-0.4706,0.8221,-0.3701,352.0402
15:54:44:791,-0.0191,3.8548,6.7765,63.0583,-0.3827,0.4165,-0.4031,352.3755
15:54:44:812,-0.2823,3.8477,6.3864,64.5293,-0.1664,-0.0856,-0.4104,352.9153
15:54:44:832,-0.3637,3.9505,5.8385,65.0668,0.0412,-0.4118,-0.3774,353.5597
15:54:44:853,-0.0335,4.1683,6.5228,64.2166,0.1414,-0.4045,-0.2443,354.5686
15:54:44:878,-0.1268,4.2592,7.1569,63.2907,0.1952,-0.3068,-0.2296,355.0333
15:54:44:894,-0.28,4.3884,7.6044,63.8411,0.2783,-0.3055,-0.2406,355.4991
15:54:44:916,-0.2632,4.5177,8.0351,62.1736,0.3552,-0.3605,-0.2259,355.9575
15:54:44:931,-0.1436,4.5607,8.595,62.6149,0.3992,-0.3849,-0.2064,356.4351
15:54:44:951,-0.0598,4.4219,9.277,61.3707,0.4102,-0.3349,-0.1819,356.8428
15:54:44:975,-0.0981,4.4219,9.9135,60.7471,0.4273,-0.2261,-0.1477,357.1772
15:54:44:995,-0.3278,4.8096,10.2533,62.3696,0.4762,-0.0869,-0.0903,357.4114
15:54:45:011,-0.0215,5.0345,9.9757,63.1424,0.5385,0.1013,-0.0036,357.4732
15:54:45:031,0.6102,5.1039,10.2556,61.7793,0.4725,0.2137,0.066,357.3868
15:54:45:053,0.6987,5.5035,11.4162,62.0554,0.2807,0.1477,0.0514,357.3318
15:54:45:075,1.0648,5.1159,11.8493,63.3946,0.1781,0.0634,-0.017,357.3824
15:54:45:092,0.8112,4.8072,12.0335,60.2812,0.1536,0.0121,-0.1184,357.5592
15:54:45:112,-0.1699,4.8263,12.0144,62.7326,0.128,0.0133,-0.2113,357.8626
15:54:45:139,-0.2752,4.879,11.2104,59.343,0.1634,0.2088,-0.1832,358.0585
15:54:45:157,-0.1579,4.6205,10.2748,60.4601,0.0962,0.4311,-0.1294,358.0666
15:54:45:171,-0.1053,4.0965,9.8632,59.5136,-0.1347,0.612,-0.1147,357.949
15:54:45:190,-0.3972,3.6036,10.3131,60.2465,-0.4267,0.805,-0.0891,357.725
15:54:45:210,-0.469,3.2471,10.3394,57.8653,-0.5806,0.9247,-0.0085,357.395
15:54:45:231,-0.2225,3.015,10.2915,60.0034,-0.5794,0.8722,0.1076,356.949
15:54:45:252,0.067,2.668,10.1839,59.0254,-0.478,0.6816,0.2053,356.477
15:54:45:273,0.2489,2.6154,9.5186,58.2407,-0.2581,0.4874,0.2823,355.9989
15:54:45:293,0.4714,2.5866,8.4467,58.4651,0.0107,0.3859,0.3678,355.4829
15:54:45:313,1.1222,2.814,6.4343,57.6907,0.3992,0.3151,0.4753,354.2208
15:54:45:331,1.3735,3.0197,5.9031,57.7048,0.4884,0.166,0.4338,353.6787
15:54:45:355,1.4309,3.1705,6.0275,58.4709,0.4701,-0.1223,0.3226,353.3941
15:54:45:372,1.1438,3.2303,6.4199,57.2079,0.4371,-0.3336,0.1736,353.3699
15:54:45:391,0.7346,3.2806,6.2812,56.7561,0.5214,-0.3006,0.049,353.4786
15:54:45:412,0.3565,3.527,5.7356,55.8509,0.6411,-0.2444,-0.0305,353.6451
15:54:45:431,0.3781,3.9482,5.4628,56.3507,0.6521,-0.2921,-0.0488,353.887
15:54:45:452,0.457,4.4626,5.4652,56.5876,0.5788,-0.3324,-0.0549,354.1498
15:54:45:476,0.7872,4.7306,5.8002,56.0115,0.4432,-0.4033,-0.0781,354.4503
15:54:45:493,1.2921,5.0034,6.3697,54.961,0.2551,-0.5988,-0.1441,354.881
15:54:45:515,1.584,4.9436,7.3866,54.3081,-0.0003,-0.8565,-0.2846,355.5958
15:54:45:533,1.2849,4.946,8.918,54.152,-0.2715,-0.9897,-0.4581,356.5801
15:54:45:556,0.737,4.6612,9.8656,53.0512,-0.445,-0.8394,-0.5766,357.6155
15:54:45:575,0.1627,4.3214,10.6289,52.9745,-0.616,-0.6183,-0.5717,358.555
15:54:45:591,0.5838,3.6203,12.0431,53.5584,-0.9153,-0.4998,-0.3933,359.2284
15:54:45:612,1.8161,2.7111,14.199,53.0069,-1.1841,-0.556,-0.1441,359.6276
15:54:45:632,2.8714,2.4909,15.9601,53.3803,-1.1499,-0.6916,0.005,359.8866
15:54:45:652,3.0652,2.5053,15.4648,51.4986,-0.7101,-0.5829,-0.0158,0.1245
15:54:45:673,2.4526,2.6632,14.4191,52.4793,-0.2898,-0.4497,-0.116,0.4204
15:54:45:694,2.0865,2.6824,13.9908,50.9234,-0.0882,-0.3666,-0.127,0.7121
15:54:45:714,2.3091,2.7781,13.194,52.0655,0.0962,-0.4082,-0.0744,0.9401
15:54:45:732,2.5412,3.2495,11.1434,52.3765,0.3271,-0.4399,-0.0353,1.1635
15:54:45:752,2.1344,4.1228,6.9655,52.591,0.4017,0.0512,-0.2027,1.3168
15:54:45:772,1.127,4.0175,6.0778,49.1168,0.2025,0.3578,-0.4116,1.4532
15:54:45:798,-0.0646,3.8668,6.0969,51.1328,-0.0113,0.5264,-0.5815,2.1524
15:54:45:814,-0.8112,3.7424,6.2429,48.4256,-0.087,0.4849,-0.6218,2.6354
15:54:45:831,-0.9284,3.5988,6.1783,49.6362,-0.0296,0.3065,-0.5509,3.1293
15:54:45:850,-0.8399,3.4863,5.8313,50.8204,0.0803,0.243,-0.4251,3.5312
15:54:45:933,-0.7968,3.6706,5.3384,49.1457,0.1817,0.3823,-0.2577,3.7059
15:54:45:934,-0.4642,3.8716,5.0728,48.6174,0.2318,0.5411,-0.0476,3.5891
15:54:45:947,0.5192,4.1707,5.135,49.1267,0.2147,0.5448,0.187,3.1488
15:54:45:948,1.5003,4.4339,5.7236,48.0058,0.1768,0.4214,0.3434,2.5574
15:54:45:961,1.919,4.7761,6.5037,48.731,0.2037,0.2051,0.3373,2.0764
15:54:45:976,1.5673,5.2546,6.1759,47.5349,0.3564,-0.005,0.231,1.8383
15:54:45:994,1.4836,5.6806,5.1326,47.7651,0.4701,-0.071,0.1577,1.6831
15:54:46:011,1.8425,5.7332,5.3791,48.5757,0.31,-0.0135,0.1332,1.4982
15:54:46:031,1.8927,5.5202,7.0445,45.8218,-0.0088,0.0072,0.088,1.3659
15:54:46:051,1.8138,5.4843,8.6859,45.9133,-0.1725,-0.071,0.0184,1.3593
15:54:46:073,1.5362,5.6638,9.1693,46.6523,-0.076,-0.1528,-0.0451,1.4536
15:54:46:092,1.4477,5.6901,8.8295,46.8043,0.0865,-0.198,-0.1074,1.6523
15:54:46:114,1.8616,5.1661,9.2339,45.9133,0.0473,-0.3019,-0.171,1.918
15:54:46:131,1.4333,4.9579,11.2008,45.6055,-0.1505,-0.4693,-0.2699,2.4012
15:54:46:152,0.323,5.2834,12.6006,44.1794,-0.109,-0.4473,-0.3188,3.0065
15:54:46:176,-0.6748,5.7787,11.0812,44.4481,0.4139,0.0659,-0.2113,3.2845
15:54:46:194,-1.5936,6.3912,8.8271,43.3675,0.9038,0.7207,-0.0647,3.0912
15:54:46:213,-1.1174,6.1711,7.3842,42.6432,0.602,0.6291,-0.0537,2.7398
15:54:46:231,-0.3541,4.5153,9.0688,42.9064,-0.2715,-0.3849,-0.3004,2.5205
15:54:46:250,-0.1699,2.5125,12.7681,43.3584,-1.2733,-1.0105,-0.5778,4.2537
15:54:46:275,-0.5743,1.3495,14.7948,42.0258,-1.514,-0.5682,-0.5546,5.1847
15:54:46:293,-0.7777,1.4094,13.7061,40.1303,-1.0815,0.4043,-0.2931,5.4024
15:54:46:312,-0.2943,1.9813,12.2249,41.487,-0.7553,0.8832,0.0379,5.0098
15:54:46:330,0.548,2.3833,11.921,41.1323,-0.6979,0.8587,0.2603,4.3723
15:54:46:351,1.0624,2.735,10.8849,39.7208,-0.5366,0.6914,0.3458,3.6904
15:54:46:373,1.1844,2.9073,9.1884,42.6345,-0.2422,0.5875,0.3434,3.0629
15:54:46:392,0.9715,2.8475,7.9466,41.8579,0.0009,0.5643,0.3031,2.4732
15:54:46:414,0.7489,2.6082,7.4369,39.5407,0.1329,0.4263,0.2554,2.0314
15:54:46:432,0.5934,2.5866,7.1857,39.7039,0.2135,0.0585,0.2261,1.7748
15:54:46:452,0.8351,2.8283,6.7095,38.7661,0.3112,-0.3471,0.2542,1.6366
15:54:46:476,1.2132,3.2758,6.0251,39.7208,0.3955,-0.4766,0.3031,1.4942
15:54:46:493,1.2849,3.527,5.604,38.3592,0.4224,-0.3263,0.2908,1.3151
15:54:46:514,1.1486,3.6347,5.8528,37.4772,0.3858,-0.2506,0.22,1.1652
15:54:46:530,0.8566,3.9027,6.3912,38.9496,0.3674,-0.3837,0.1394,1.1848
15:54:46:552,0.7083,4.3693,6.3984,38.4745,0.4603,-0.5132,0.099,1.3348
15:54:46:576,0.6221,4.8287,5.8887,38.3511,0.5813,-0.4656,0.0612,1.5178
15:54:46:593,0.469,5.2307,5.4676,38.1588,0.5861,-0.2994,-0.0292,1.7003
15:54:46:612,1.0074,5.4389,6.3266,38.4745,0.4017,-0.2164,-0.1734,1.9666
15:54:46:634,1.9525,5.4054,7.346,36.6064,0.1524,-0.4057,-0.4202,2.529
15:54:46:652,2.1224,5.2379,7.4225,37.8715,-0.0418,-0.5853,-0.8062,3.5576
15:54:46:679,-1.3567,4.5727,9.0425,37.0306,-0.5745,0.2161,-1.3487,4.8885
15:54:46:694,-1.6869,3.9625,13.0481,37.8715,-0.8152,0.4886,-1.0799,7.1204
15:54:46:714,0.2513,3.0724,16.1683,36.2186,-0.6734,0.0549,-0.5766,7.7298
15:54:46:733,1.5529,3.0197,15.7017,37.0306,-0.12,-0.6941,-0.2834,8.3264
15:54:46:751,1.5266,3.4337,12.0431,36.55,0.442,-0.9274,-0.2101,8.9508
15:54:46:774,1.2514,3.6132,8.7027,37.0409,0.42,-0.4961,-0.1392,9.3259
15:54:46:794,0.8686,3.0054,10.1934,35.5339,-0.3448,0.0732,-0.05,9.3475
15:54:46:813,0.4307,2.3713,13.6295,35.0484,-1.1023,0.2222,0.0159,9.2708
15:54:46:831,-0.0024,2.1703,14.7805,35.6989,-1.1292,-0.0587,0.0367,9.3618
15:54:46:850,0.0646,2.7326,12.6437,33.7753,-0.583,-0.3385,0.11,9.4758
15:54:46:871,0.5121,3.3404,9.6335,35.6008,-0.0992,-0.3654,0.2053,9.4709
15:54:46:892,0.8686,3.5103,8.1811,35.3972,-0.0565,-0.2542,0.2175,9.3526
15:54:46:912,0.9308,3.3165,7.9466,36.5787,-0.2226,-0.1101,0.165,9.2641
15:54:46:931,0.4307,2.991,8.4251,36.0715,-0.3033,-0.0013,0.088,9.2139
15:54:46:950,-0.1555,3.0078,8.2433,36.0204,-0.1359,0.0854,0.0514,9.2235
15:54:46:973,-0.2345,3.1178,6.676,36.0204,0.2428,0.1098,0.0978,9.1559
15:54:46:992,0.0072,3.3715,5.2092,35.1517,0.5238,0.0976,0.1454,9.0216
15:54:47:013,0.0359,3.5868,4.5966,36.2308,0.5715,0.0927,0.1247,8.8992
15:54:47:031,-0.1531,3.9171,4.7139,33.2473,0.4933,0.0756,0.0648,8.8827
15:54:47:052,-0.0622,4.2377,4.8215,35.8149,0.4383,0.0573,0.0025,8.9158
15:54:47:077,0.938,4.4243,5.0536,33.9055,0.3736,0.0085,-0.0488,8.9529
15:54:47:092,1.8329,4.3765,5.8289,36.41,0.1879,-0.0795,-0.1722,9.123
15:54:47:111,1.4405,4.386,7.4967,34.2183,-0.0504,-0.0502,-0.3823,9.5416
15:54:47:131,0.1292,4.2233,9.2435,36.113,-0.1188,0.3933,-0.4874,10.0292
15:54:47:151,0.4522,4.0558,10.3107,36.1387,-0.1579,0.458,-0.3139,10.3557
15:54:47:177,0.9188,3.8931,11.129,34.5022,-0.208,0.4018,-0.1306,10.5295
15:54:47:197,1.6702,3.8812,11.6483,34.7924,-0.142,0.469,0.0135,10.2536
15:54:47:219,1.6104,4.2377,11.0166,32.6322,0.0706,0.5497,0.0917,9.8966
15:54:47:229,1.328,4.8383,9.7699,32.7899,0.2636,0.7427,0.1186,9.3781
15:54:47:249,0.2871,5.056,9.1214,33.3012,0.2318,0.9944,0.0367,8.8967
15:54:47:270,-1.1127,4.6301,10.6505,34.5448,-0.1151,1.0762,-0.0793,8.5567
15:54:47:290,-2.6848,4.3406,12.6413,34.3838,-0.3912,0.9149,-0.1257,8.4761
15:54:47:311,-3.6203,4.5033,12.414,35.1501,-0.2715,0.5741,-0.0537,8.5079
15:54:47:331,-3.1681,4.4435,10.7414,34.5375,-0.0724,0.1673,0.0893,8.526
15:54:47:351,-2.2875,4.075,10.727,36.5092,-0.2043,-0.1565,0.1589,8.5953
15:54:47:373,-1.797,3.4529,11.5406,36.5823,-0.4755,-0.3202,0.1296,8.7222
15:54:47:393,-2.0243,3.0676,11.6554,35.0992,-0.5354,-0.2689,0.0893,8.8909
15:54:47:411,-2.1631,2.8475,10.6624,34.6386,-0.3876,-0.0392,0.1711,8.901
15:54:47:430,-1.8209,2.8714,9.1286,35.625,-0.186,0.1917,0.3825,8.5883
15:54:47:450,-1.0648,2.7733,8.2289,35.7434,-0.0882,0.2455,0.5987,8.0008
15:54:47:473,-0.1149,2.6201,8.2911,35.5391,-0.0479,0.1245,0.7392,7.2682
15:54:47:492,0.536,2.5484,8.205,35.0652,0.1023,-0.0978,0.7746,6.5381
15:54:47:513,0.7442,2.6178,7.4919,37.0718,0.3809,-0.2823,0.7441,5.8959
15:54:47:531,0.7561,2.8738,6.3362,36.483,0.6472,-0.3507,0.6879,5.3448
15:54:47:552,0.8207,3.082,5.4532,36.793,0.7755,-0.3288,0.6378,4.8517
15:54:47:578,0.792,3.2518,5.1805,37.1943,0.7401,-0.2848,0.5572,4.4618
15:54:47:596,0.7394,3.4026,5.3073,35.9908,0.5947,-0.3263,0.3116,3.9852
15:54:47:619,0.1196,3.5964,5.5274,34.8441,0.5189,-0.3483,0.1613,4.0248
15:54:47:630,-0.1675,4.075,5.7069,35.7702,0.4322,-0.3177,0.0819,4.1787
15:54:47:651,0.1507,4.4124,5.8863,35.7434,0.2746,-0.3129,0.0502,4.3764
15:54:47:671,0.4092,4.3956,7.4273,36.6541,-0.0724,-0.4057,-0.0305,4.6668
15:54:47:693,0.5838,4.4818,10.1025,34.6642,-0.4768,-0.4436,-0.1172,5.078
15:54:47:712,0.213,4.8838,12.4953,35.6003,-0.7199,-0.3972,-0.1893,5.5508
15:54:47:731,0.6748,4.9747,13.9478,36.8524,-0.7578,-0.2078,-0.1893,5.9163
15:54:47:750,2.3043,4.3214,15.0844,36.0614,-0.7981,-0.2603,-0.1978,6.2592
15:54:47:769,3.472,2.6776,17.7189,36.0748,-1.0241,-0.6488,-0.353,6.8624
15:54:47:793,3.0676,1.2227,20.4802,35.8981,-1.0375,-0.8419,-0.5314,7.7974
15:54:47:811,1.6223,1.0409,19.657,34.6227,-0.3754,-0.6036,-0.4764,8.6457
15:54:47:831,1.4979,1.3615,15.4457,36.5383,0.6362,-0.165,-0.1013,8.9121
15:54:47:852,2.3091,1.9669,11.1458,37.0777,1.2776,0.0805,0.3141,8.5747
15:54:47:869,2.9288,2.6417,8.528,38.4694,1.3974,0.2063,0.5327,7.9303
15:54:47:892,2.9719,3.2662,6.1687,37.6972,1.3473,0.2943,0.5523,7.1861
15:54:47:912,2.6584,3.661,4.0774,38.995,1.2471,0.3811,0.4546,6.5195
15:54:47:931,2.1966,3.874,2.7374,37.9212,1.054,0.4984,0.3079,5.9502
15:54:48:030,1.3495,4.1946,2.1703,38.1204,0.767,0.5387,0.1442,5.5544
15:54:48:031,0.5695,4.2042,2.0818,39.8937,0.4615,0.4483,-0.0073,5.3597
15:54:48:032,-0.3063,4.3741,2.1727,38.5786,0.183,0.265,-0.1245,5.4541
15:54:48:032,-0.6437,4.2209,3.1633,37.8548,-0.0907,0.1367,-0.1392,5.6573
15:54:48:032,-0.7777,4.2688,4.721,36.7374,-0.3069,0.0085,-0.0903,5.8758
15:54:48:053,0.28,4.544,5.9749,35.6222,-0.1909,-0.2982,0.0709,6.1061
15:54:48:083,0.5743,4.8455,5.671,36.7036,-0.0821,-0.3226,0.0722,6.3968
15:54:48:097,0.6269,5.2714,5.6327,37.6762,-0.1066,-0.0612,0.0416,6.4611
15:54:48:110,0.603,5.3839,6.6281,37.667,-0.2532,0.3273,-0.0048,6.3517
15:54:48:131,0.5504,5.269,7.9753,38.3076,-0.401,0.524,-0.0891,6.2525
15:54:48:150,0.2608,5.0177,9.5474,39.6093,-0.4645,0.4776,-0.1844,6.2837
15:54:48:170,-0.0622,5.0273,10.4566,37.5013,-0.4059,0.309,-0.232,6.4698
15:54:48:195,0.0622,4.9938,11.2822,37.3712,-0.3375,0.0988,-0.2039,6.7378
15:54:48:215,0.6245,4.8335,12.1244,39.5377,-0.3033,-0.0539,-0.1306,6.9825
15:54:48:231,0.8088,5.0273,12.0431,37.2295,-0.2067,0.0536,-0.0415,7.058
15:54:48:250,0.2249,5.726,10.4231,37.6762,-0.0113,0.6511,0.0294,6.7734
15:54:48:270,-0.3541,5.8887,8.8439,38.5173,0.029,1.2485,0.0599,6.2069
15:54:48:292,-1.5051,5.6566,9.4397,38.0123,-0.2299,1.3926,0.0184,5.636
15:54:48:314,-2.7206,5.5968,10.349,38.6285,-0.4242,1.2082,-0.0134,5.2502
15:54:48:331,-3.1561,5.6949,10.0929,38.2309,-0.3815,0.8502,0.0331,5.0154
15:54:48:357,-2.5531,5.1733,10.3849,38.3205,-0.4267,0.3346,0.1015,4.9172
15:54:48:378,-1.2514,4.0654,12.0335,38.363,-0.7101,-0.1956,0.1064,5.0338
15:54:48:393,-1.0146,2.7446,12.7155,38.5327,-0.9459,-0.413,0.0257,5.2998
15:54:48:410,-1.1174,2.0052,12.7514,38.7959,-0.93,-0.0502,0.0416,5.3828
15:54:48:430,-1.1318,1.6965,12.3398,39.8145,-0.748,0.491,0.187,5.0904
15:54:48:449,-0.8495,1.5482,11.6889,40.9539,-0.4939,0.7805,0.3519,4.5272
15:54:48:471,-0.1555,1.4285,10.8849,39.2269,-0.1982,0.7268,0.4827,3.8075
15:54:48:495,0.1507,1.3998,10.2915,38.8911,0.0938,0.4055,0.4973,2.6719
15:54:48:513,0.2943,1.919,7.3436,39.0353,0.8244,0.0109,0.4839,2.1353
15:54:48:533,0.5934,2.3904,5.4963,39.6245,1.0565,0.0365,0.5254,1.626
15:54:48:556,1.06,2.7852,4.4243,37.8986,1.0333,0.0878,0.5254,1.0553
15:54:48:569,1.2873,3.0963,4.1276,40.2647,0.8146,0.0768,0.4423,0.5789
15:54:48:591,1.1653,3.4122,4.4148,40.2253,0.5299,-0.016,0.2823,0.3043
15:54:48:610,0.9188,3.5701,5.0417,39.1898,0.2978,-0.1406,0.1113,0.262
15:54:48:630,0.6772,3.6658,5.6112,40.8287,0.1573,-0.2567,-0.0231,0.4413
15:54:48:650,0.6772,3.7184,6.2955,40.0203,0.084,-0.3801,-0.1123,0.7479
15:54:48:670,0.5647,3.8524,6.8148,42.0684,0.0535,-0.5364,-0.1954,1.2223
15:54:48:695,0.5384,4.0534,6.7932,40.4855,0.0241,-0.7136,-0.2772,1.8831
15:54:48:710,0.5647,4.2401,7.1497,39.9905,-0.1249,-0.8089,-0.3554,2.6472
15:54:48:731,0.67,4.1922,8.1978,39.9905,-0.3925,-0.7612,-0.4275,3.4539
15:54:48:750,0.4642,4.063,9.8441,39.9905,-0.6527,-0.5975,-0.4972,4.25
15:54:48:770,-0.2656,4.1157,11.4879,39.9905,-0.8005,-0.424,-0.5582,5.0532
15:54:48:792,-0.3948,4.0463,12.3206,39.9905,-0.7675,-0.3446,-0.5375,5.8
15:54:48:814,0.5647,3.9458,12.1508,39.9905,-0.6612,-0.4619,-0.4581,6.4633
15:54:48:833,1.5338,3.3212,12.3517,42.5493,-0.6991,-0.7173,-0.4752,7.2069
15:54:48:850,1.4237,2.546,13.6846,42.0435,-0.9141,-0.9176,-0.5973,8.2011
15:54:48:870,1.0361,1.8473,15.6443,39.5116,-1.0656,-0.9555,-0.6462,9.3097
15:54:48:894,1.0193,1.4668,15.7161,41.6265,-0.8482,-0.8675,-0.5411,10.2559
15:54:48:917,1.474,1.4955,14.1392,41.332,-0.4095,-0.6733,-0.3554,10.9337
15:54:48:929,1.8879,1.7563,12.3422,40.7433,-0.0944,-0.4558,-0.1966,11.3361
15:54:48:949,2.0698,2.2732,10.8323,40.0295,0.0693,-0.2408,-0.1221,11.5653
15:54:48:970,1.2467,3.0341,7.346,40.7047,0.3198,0.2014,-0.1893,11.6807
15:54:48:991,0.5743,3.2997,6.2022,40.7047,0.3369,0.298,-0.2418,11.9289
15:54:49:010,0.122,3.5533,5.4485,42.4198,0.2954,0.2577,-0.2553,12.1469
15:54:49:030,-0.2465,3.7304,4.9531,41.7529,0.2172,0.1355,-0.2577,12.4431
15:54:49:050,-0.5719,3.6347,4.8838,40.9947,0.0962,-0.0612,-0.2699,12.8217
15:54:49:070,-0.7944,3.5749,5.0967,40.0687,-0.0528,-0.2506,-0.2638,13.2637
15:54:49:095,-0.8662,3.46,6.1472,43.1661,-0.1848,-0.3471,-0.2161,13.7287
15:54:49:112,-0.8782,3.4816,6.9392,41.8058,-0.2275,-0.3556,-0.1392,14.1184
15:54:49:129,-0.6532,3.6514,7.1234,40.8675,-0.1493,-0.2774,-0.0305,14.345
15:54:49:149,-0.2369,3.728,7.7456,42.6908,-0.0736,-0.1907,0.0563,14.4139
15:54:49:169,0.079,3.8477,7.9346,40.4597,-0.0015,-0.1516,0.0954,14.4275
15:54:49:194,0.2153,4.0175,7.803,41.7044,0.0535,-0.1272,0.1113,14.4051
15:54:49:210,0.5121,4.0511,8.406,41.2239,0.0266,-0.0673,0.1198,14.3613
15:54:49:230,0.5934,3.9673,9.2315,43.1041,0.0034,0.006,0.1076,14.2946
15:54:49:250,0.2106,4.0702,9.5928,43.7602,0.0718,0.0585,0.077,14.2418
15:54:49:270,0.3948,4.1516,9.7125,41.6265,0.1658,0.0842,0.1064,14.1581
15:54:49:295,1.0122,4.1228,9.9494,42.6908,0.1744,0.0732,0.154,13.9948
15:54:49:317,1.5984,4.1731,10.727,40.719,0.0718,0.0304,0.1528,13.8351
15:54:49:335,1.2993,4.6349,11.5047,42.0754,-0.0272,0.0952,0.1027,13.6734
15:54:49:349,1.0504,4.812,11.0237,43.5383,-0.0027,0.3578,0.0636,13.4839
15:54:49:368,0.5647,4.5511,10.9376,43.7164,-0.0602,0.6071,0.0245,13.2416
15:54:49:390,-0.5312,3.9912,12.4546,41.4958,-0.2471,0.6755,-0.0402,13.0848
15:54:49:411,-1.6989,3.9865,12.7107,43.6965,-0.1909,0.6511,-0.0439,12.9898
15:54:49:432,-1.7539,3.5581,11.0979,44.1321,-0.015,0.3786,0.2127,12.5872
15:54:49:450,-0.7059,2.7254,13.005,44.1321,-0.3191,0.1428,0.3263,12.3145
15:54:49:469,-0.4714,1.9119,14.6489,44.1722,-0.511,-0.0661,0.3263,12.0909
15:54:49:495,-0.5384,1.4836,14.0339,42.8707,-0.2849,0.0695,0.3776,11.7663
15:54:49:510,-0.6748,1.7037,11.9306,42.8844,0.1316,0.5106,0.5352,11.1179
15:54:49:531,-0.2225,1.8329,10.2533,45.8933,0.3968,0.7757,0.727,10.1383
15:54:49:553,0.6485,2.0219,9.2171,43.4683,0.5006,0.7195,0.8455,8.9741
15:54:49:568,1.1821,2.1775,8.3964,43.5619,0.536,0.4238,0.8101,7.9561
15:54:49:590,1.2802,2.3545,7.5063,43.7851,0.5715,0.1941,0.7026,7.1067
15:54:49:610,1.2802,2.5292,6.8411,41.7307,0.5971,0.1758,0.6048,6.3973
15:54:49:631,1.2538,2.668,6.4582,43.6218,0.6118,0.2515,0.5266,5.7188
15:54:49:650,1.2419,2.8092,5.8935,43.1667,0.6313,0.2711,0.4411,5.1318
15:54:49:669,1.0648,2.9623,5.4006,43.1067,0.6155,0.188,0.3397,4.6646
15:54:49:696,0.9404,3.0365,5.4054,44.7276,0.5238,0.0487,0.242,4.4043
15:54:49:717,0.9356,3.0389,5.8768,42.7368,0.4029,-0.0966,0.1626,4.2429
15:54:49:734,1.0792,3.0532,6.3266,43.1667,0.3381,-0.1773,0.1064,4.1929
15:54:49:750,1.2323,3.1226,6.5324,45.0815,0.3479,-0.165,0.0648,4.1612
15:54:49:768,0.9547,3.3045,6.2907,44.4171,0.409,-0.1296,0.0062,4.1914
15:54:49:789,0.804,3.6227,5.9845,42.8585,0.4224,-0.2371,-0.0622,4.3096
15:54:49:810,0.7346,3.8812,6.6209,42.4189,0.2599,-0.4644,-0.1429,4.6906
15:54:49:830,0.5145,3.8453,7.9872,42.8552,0.0144,-0.5975,-0.2308,5.2111
15:54:49:849,0.0838,3.9051,9.2195,42.8552,-0.1286,-0.5719,-0.2638,5.7756
15:54:49:874,-0.4475,4.6229,9.2961,43.9021,-0.1115,-0.4179,-0.2235,6.599
15:54:49:894,0.7155,5.0058,9.8225,41.9648,-0.4902,-0.4289,-0.1221,6.915
15:54:49:920,1.5888,4.0511,12.3829,43.4547,-0.9886,-0.4912,-0.1905,7.3222
15:54:49:933,1.3185,3.3858,14.6871,42.9094,-1.1634,-0.2066,-0.3004,7.7051
15:54:49:952,-0.0718,3.3595,14.7757,41.7941,-0.8054,0.3248,-0.3493,7.9727
15:54:49:970,-0.7083,3.4026,13.1557,42.659,-0.274,0.5533,-0.2381,8.0373
15:54:49:991,-0.1747,3.2518,11.8851,42.3367,0.018,0.3102,-0.0292,7.9913
15:54:50:012,0.6652,3.015,11.1242,42.3638,0.0547,-0.0734,0.1222,7.8745
15:54:50:031,1.005,2.9408,10.7868,43.1067,-0.0247,-0.1687,0.1931,7.7053
15:54:50:112,1.0528,2.9575,10.2556,44.8545,-0.0931,0.0732,0.2444,7.4081
15:54:50:113,0.9308,3.058,9.5641,43.562,-0.1444,0.3456,0.2737,6.9547
15:54:50:113,0.4546,3.125,8.9659,45.1903,-0.1848,0.5032,0.2603,6.474
15:54:50:114,-0.1101,3.2542,8.3318,44.4145,-0.1713,0.5863,0.2542,6.0023
15:54:50:130,-0.5336,3.3882,7.6738,43.9527,-0.1066,0.579,0.2823,5.4981
15:54:50:148,-0.5671,3.4887,7.1737,44.358,-0.043,0.4739,0.3397,5.0033
15:54:50:170,-0.5767,3.5151,7.1833,43.1102,-0.0064,0.309,0.3849,4.4992
15:54:50:191,-0.6508,3.5581,7.2072,42.5926,0.0461,0.1673,0.4155,4.0201
15:54:50:209,-0.5504,3.6012,7.4393,42.8177,0.1219,0.0903,0.4594,3.5448
15:54:50:229,-0.3302,3.618,7.5996,44.3595,0.2086,0.0402,0.501,3.024
15:54:50:249,-0.201,3.6299,7.6546,44.339,0.2978,0.0365,0.5217,2.483
15:54:50:270,0.1125,3.7376,7.7073,44.0535,0.3968,0.0903,0.523,1.8931
15:54:50:295,0.2728,3.8166,7.5254,45.0504,0.4664,0.1269,0.49,1.349
15:54:50:309,0.6532,3.7807,7.7886,45.0618,0.4542,0.1391,0.4558,0.7887
15:54:50:328,1.1079,3.6419,8.729,45.0041,0.376,0.1465,0.4264,0.2344
15:54:50:350,1.1701,3.6347,9.7412,44.7004,0.486,0.2564,0.2896,359.2545
15:54:50:369,0.9045,4.0056,9.1454,43.6739,0.602,0.3053,0.2188,358.8456
15:54:50:391,1.3735,4.0295,9.1286,43.7044,0.5373,0.3322,0.1931,358.4343
15:54:50:412,1.584,3.8596,10.2245,41.4321,0.3125,0.3188,0.1345,358.0717
15:54:50:431,0.6508,4.4746,10.7629,42.1504,0.2355,0.414,0.066,357.7399
15:54:50:450,0.0479,5.3408,8.351,42.4632,0.4884,0.8233,0.1125,357.1802
15:54:50:470,-0.5049,6.0754,6.6018,43.9256,0.5886,1.2839,0.176,356.3392
15:54:50:494,-1.0074,6.2118,6.9894,43.0848,0.3149,1.345,0.1406,355.5518
15:54:50:512,-1.8903,5.7476,8.3294,43.1935,-0.0113,0.9333,-0.0158,355.1212
15:54:50:531,-2.5172,5.2211,9.2674,42.9591,-0.1689,0.3591,-0.1575,355.1395
15:54:50:551,-2.3976,4.6469,9.5641,44.902,-0.2239,-0.0392,-0.1746,355.3745
15:54:50:568,-1.3017,3.7759,10.5739,44.2518,-0.423,-0.2432,-0.1172,355.6163
15:54:50:588,-0.5958,2.5603,13.4596,42.313,-0.7858,-0.3776,-0.1172,355.8859
15:54:50:610,-0.4546,1.9047,14.4191,41.8592,-0.7614,-0.1919,-0.1209,356.0546
15:54:50:631,-0.6389,1.9884,12.6126,43.6032,-0.313,0.2589,-0.0451,355.9285
15:54:50:648,-0.6604,2.3306,10.7198,41.621,0.0339,0.6022,0.0722,355.5641
15:54:50:670,-0.6221,2.6488,9.722,45.0196,0.1439,0.6938,0.1577,355.0175
15:54:50:696,-0.4379,2.9073,8.7673,42.7553,0.2184,0.5729,0.2029,354.5051
15:54:50:714,-0.3111,3.1107,7.4752,43.2389,0.3198,0.3676,0.2102,354.0697
15:54:50:732,-0.1507,3.3332,6.317,42.7553,0.3711,0.2198,0.2212,353.6949
15:54:50:749,0.1412,3.5557,5.6949,43.0836,0.3149,0.1428,0.2359,353.3356
15:54:50:768,0.4235,3.6754,5.7188,44.0332,0.1915,0.0512,0.2163,353.0433
15:54:50:790,0.591,3.6514,6.1902,44.0802,0.0742,-0.1235,0.1394,352.8997
15:54:50:810,0.3374,3.5175,6.8961,42.8694,0.0608,-0.4912,-0.0928,352.9537
15:54:50:828,0.012,3.5629,6.9799,41.9925,0.1109,-0.5584,-0.1685,353.6295
15:54:50:848,-0.2536,3.716,6.8913,44.3435,0.1536,-0.5462,-0.1905,354.0448
15:54:50:869,-0.3111,3.9697,6.4798,44.2518,0.1854,-0.5597,-0.1844,354.4839
15:54:50:892,-0.1172,4.2736,6.1663,45.9928,0.1549,-0.6427,-0.2003,354.9794
15:54:50:914,-0.2273,4.4698,6.5731,44.6863,0.007,-0.7234,-0.2772,355.5904
15:54:50:929,-0.5886,4.5153,7.3795,41.9966,-0.1945,-0.7405,-0.3823,356.3162
15:54:50:949,-0.9715,4.5942,8.0901,44.4925,-0.3521,-0.6586,-0.4422,357.0684
15:54:50:969,-1.407,4.9149,8.5376,43.8357,-0.4401,-0.5047,-0.4458,357.7755
15:54:50:989,-1.4836,5.3767,8.4084,44.0851,-0.5183,-0.3569,-0.4031,358.3359
15:54:51:009,-0.5815,5.1159,8.7649,43.3206,-0.7419,-0.2542,-0.3457,358.8146
15:54:51:028,0.2153,4.2975,10.6983,43.4308,-1.145,-0.2261,-0.386,359.2591
15:54:51:048,0.5073,3.2112,13.8233,43.3025,-1.4993,-0.3043,-0.5033,359.8193
15:54:51:068,0.2465,2.5579,16.6325,43.8769,-1.4908,-0.5145,-0.601,0.5848
15:54:51:088,-0.2034,2.2564,17.3551,44.3606,-0.9776,-0.7001,-0.6059,1.4253
15:54:51:111,-0.2943,2.345,14.8427,44.1002,-0.1884,-0.727,-0.4862,2.1693
15:54:51:130,0.3135,2.4048,12.0646,45.56,0.2856,-0.5902,-0.2882,2.6205
15:54:51:149,1.1414,2.4861,10.8515,44.9551,0.2648,-0.2799,-0.1257,2.7875
15:54:51:168,1.5051,2.5579,10.3944,42.5484,0.0852,-0.0148,-0.0842,2.7929
15:54:51:189,1.1414,2.6106,10.1839,44.3438,-0.0308,0.0243,-0.1612,2.8707
15:54:51:209,0.7777,2.6656,9.7077,44.3938,-0.015,-0.0954,-0.2381,3.0997
15:54:51:229,0.5432,2.8403,8.3605,43.7309,0.0816,-0.1785,-0.2699,3.3685
15:54:51:248,0.2393,2.924,7.5278,43.5226,0.0865,-0.1125,-0.2675,3.6382
15:54:51:268,0.1627,2.8451,7.7408,43.1463,-0.0003,0.0463,-0.1795,3.8265
15:54:51:287,0.2106,2.9743,7.133,44.4144,0.1561,0.0292,-0.1282,3.9931
15:54:51:313,0.2201,3.2303,6.0921,43.7181,0.343,-0.016,-0.0854,4.123
15:54:51:334,0.4594,3.5844,5.3049,44.3439,0.3992,-0.038,-0.0524,4.1353
15:54:51:353,0.7801,3.74,5.3575,43.7181,0.2844,-0.0343,-0.0585,4.1403
15:54:51:379,0.8183,3.6921,6.2548,43.4407,0.1035,-0.0184,-0.1196,4.202
15:54:51:404,0.4666,3.7232,7.2574,42.885,0.0229,0.0072,-0.1917,4.3329
15:54:51:407,0.146,3.8764,7.2861,44.3439,0.1133,0.039,-0.2137,4.4378
15:54:51:427,-0.0144,4.1324,7.1306,43.8918,0.2196,0.0903,-0.1844,4.5084
15:54:51:447,-0.0024,4.276,7.7432,42.2372,0.2001,0.061,-0.1551,4.5664
15:54:51:468,0.0742,4.2999,9.2554,43.5434,0.1219,-0.0514,-0.1502,4.6642
15:54:51:488,0.1507,4.2712,10.4973,42.2335,0.1341,-0.2078,-0.1526,4.7899
15:54:51:508,0.7226,4.0104,11.3635,43.8963,0.2392,-0.3788,-0.1319,4.9984
15:54:51:528,1.1079,3.9051,11.72,43.8963,0.3161,-0.4656,-0.1221,5.2601
15:54:51:549,0.3183,4.2544,11.3348,43.8918,0.376,-0.1858,-0.1575,5.4658
15:54:51:570,-1.0241,4.5607,9.8273,43.2469,0.464,0.4922,-0.1331,5.3784
15:54:51:590,-1.797,5.0728,9.4182,43.6542,0.4578,0.9931,0.0416,4.9249
15:54:51:612,-1.5051,5.8648,9.2937,44.5656,0.431,0.9663,0.2982,4.1921
15:54:51:631,-1.0744,6.3936,8.2098,43.8879,0.4945,0.5326,0.3764,3.554
15:54:51:648,-0.7226,6.4367,7.2574,44.535,0.332,-0.0869,0.2163,3.3477
15:54:51:667,-0.2823,5.4796,7.681,44.9698,-0.2593,-0.5071,-0.0305,3.5971
15:54:51:688,0.0909,3.9458,11.0237,44.0918,-1.1059,-0.4631,-0.2186,3.9819
15:54:51:710,-0.3111,2.199,15.819,43.4299,-1.7168,-0.3422,-0.3676,4.4721
15:54:51:728,-1.7324,2.0483,13.718,43.4299,-0.4902,0.3969,-0.0683,4.8947
15:54:51:750,-1.3974,2.4814,10.215,44.4105,0.2477,0.6645,0.275,4.3808
15:54:51:770,-0.481,2.7996,7.9657,44.3938,0.5348,0.6645,0.5254,3.546
15:54:51:794,0.2225,3.0173,6.7693,44.5958,0.5592,0.491,0.6048,2.6732
15:54:51:813,0.5432,3.1346,6.0491,42.7339,0.5055,0.2955,0.5547,1.9297
15:54:51:831,0.5767,3.3284,5.3264,44.2512,0.4542,0.1819,0.4533,1.3121
15:54:51:848,0.3398,3.4409,5.269,44.1646,0.3626,0.1538,0.3434,0.8482
15:54:51:868,-0.0024,3.4146,5.6542,45.6478,0.2428,0.1062,0.2395,0.4988
15:54:51:890,-0.2417,3.4146,6.262,44.5958,0.1805,0.0329,0.1821,0.2854
15:54:51:910,-0.414,3.3906,6.7047,44.7387,0.1964,-0.0404,0.1662,0.1259
15:54:51:929,-0.5958,3.4672,6.7119,45.2794,0.2697,-0.0856,0.1638,359.9707
15:54:51:948,-0.6269,3.5581,7.0732,43.5513,0.3235,-0.1259,0.1662,359.8512
15:54:51:968,-0.7155,3.7137,7.8604,43.519,0.3723,-0.1773,0.1479,359.769
15:54:51:989,-1.0863,3.9912,8.6333,44.6263,0.4603,-0.2493,0.1039,359.7527
15:54:52:009,-1.1342,4.118,9.478,43.4027,0.5861,-0.2994,0.1137,359.7804
15:54:52:029,-0.9356,4.3645,8.9468,47.0455,0.6729,-0.3483,0.1674,359.7676
15:54:52:048,-0.9428,5.0106,8.7841,42.0954,0.558,-0.1724,0.2298,359.6196
15:54:52:068,-0.6485,5.281,9.9733,44.4963,0.1854,0.1379,0.2798,359.2423
15:54:52:092,0.3517,4.8718,11.9521,39.9513,-0.1701,0.3261,0.286,358.7826
15:54:52:109,1.5266,4.1276,13.3663,44.0098,-0.3289,0.1807,0.1907,358.3827
15:54:52:226,1.8616,3.3691,13.9645,45.17,-0.3436,-0.2469,-0.0219,358.4281
15:54:52:227,1.7922,2.6776,13.7109,43.7076,-0.274,-0.4607,-0.1795,358.7586
15:54:52:228,1.194,2.7709,12.6245,44.9412,-0.1151,-0.165,-0.1783,358.7917
15:54:52:230,1.1533,3.2901,9.7603,40.8006,-0.0589,0.568,0.0599,358.4223
15:54:52:231,1.4979,3.3643,9.8058,45.58,-0.3008,0.4776,0.1003,357.9785
15:54:52:232,1.517,3.46,9.9733,43.9649,-0.4218,0.3395,0.0783,357.653
15:54:52:249,1.1366,3.5198,9.3751,42.1166,-0.3155,0.309,0.0269,357.4299
15:54:52:267,0.5145,3.728,7.7216,41.7922,-0.0809,0.3664,0.0013,357.1878
15:54:52:287,-0.012,3.929,6.3051,44.1286,0.0755,0.4128,0.0147,356.9678
15:54:52:308,-0.4092,4.0032,5.805,43.8751,0.0999,0.3627,0.0441,356.7415
15:54:52:330,-0.6915,3.8716,5.7188,44.5705,0.0913,0.2039,0.0673,356.5758
15:54:52:347,-0.8782,3.8213,5.7691,42.313,0.117,-0.0074,0.0893,356.468
15:54:52:367,-0.792,3.728,5.9007,41.3126,0.1634,-0.1699,0.1332,356.3957
15:54:52:388,-0.7059,3.7735,6.0323,42.8081,0.2001,-0.2493,0.1858,356.2964
15:54:52:408,-0.5025,3.8955,6.3936,43.0102,0.2037,-0.2237,0.2505,356.1418
15:54:52:432,-0.1914,4.1109,6.8913,41.931,0.2159,-0.1284,0.3104,355.8741
15:54:52:452,0.0598,4.3478,7.4417,43.5403,0.2489,-0.0991,0.3312,355.5467
15:54:52:467,0.3541,4.5392,7.992,43.8779,0.2807,-0.1528,0.3153,355.2641
15:54:52:488,0.7059,4.6708,8.54,43.2767,0.3125,-0.2017,0.2908,355.0379
15:54:52:511,0.7968,4.9531,9.1286,43.764,0.354,-0.198,0.2456,354.8446
15:54:52:528,0.8638,5.3815,9.3296,43.646,0.4249,-0.132,0.1809,354.6832
15:54:52:548,0.8495,5.7858,8.5687,42.2577,0.4823,-0.0087,0.1149,354.5445
15:54:52:568,1.4142,5.7906,8.5328,42.2577,0.3332,0.0744,0.049,354.3907
15:54:52:588,1.7563,5.3647,10.2197,44.5757,-0.0602,-0.0465,-0.05,354.3818
15:54:52:611,1.5816,5.1374,12.1771,41.7976,-0.3179,-0.176,-0.16,354.5584
15:54:52:630,-0.7801,5.5226,9.0808,43.1379,0.2831,0.6523,-0.2381,354.6049
15:54:52:649,-2.1679,5.8194,8.5113,41.2717,0.31,0.7891,-0.2113,354.5242
15:54:52:668,-2.5795,6.0395,8.4945,42.1692,0.194,0.5509,-0.1013,354.2014
15:54:52:687,-2.2205,6.0036,8.3438,41.4329,0.0229,0.1599,0.0001,354.1659
15:54:52:712,-1.06,5.3671,9.344,40.1923,-0.2813,-0.1601,0.0392,354.2127
15:54:52:730,-0.2967,4.3358,11.3851,43.5085,-0.6539,-0.3764,-0.0488,354.4151
15:54:52:749,-0.524,3.2471,12.9691,41.8444,-0.8518,-0.4754,-0.2161,354.8477
15:54:52:769,-1.1198,2.9169,12.2369,42.1364,-0.6283,-0.1638,-0.2381,355.1598
15:54:52:788,-1.1844,3.1872,9.5904,40.6091,-0.2165,0.3835,-0.0769,355.0781
15:54:52:807,-0.3637,3.4026,7.5541,41.5915,-0.0516,0.7402,0.11,354.5837
15:54:52:829,0.3948,3.3811,6.9775,43.8238,-0.1982,0.7195,0.1516,354.0586
15:54:52:848,0.6748,3.1107,7.3771,42.8081,-0.4413,0.3884,0.0135,353.8108
15:54:52:868,0.658,2.9264,8.193,40.1459,-0.5256,0.1172,-0.1563,353.8783
15:54:52:888,0.3206,2.7613,8.607,41.3699,-0.3717,0.0145,-0.2687,354.0954
15:54:52:906,0.0574,2.8211,7.9226,42.9447,-0.0479,0.0158,-0.2846,354.349
15:54:52:927,0.0479,3.0006,6.8626,42.5497,0.2245,-0.0294,-0.2369,354.5962
15:54:52:951,0.1986,3.1035,6.7358,42.4324,0.2856,-0.1101,-0.188,354.8243
15:54:52:966,0.4068,3.1537,7.2909,41.4581,0.244,-0.1724,-0.1722,355.0461
15:54:52:987,0.4475,3.2973,7.456,41.3657,0.2783,-0.187,-0.1807,355.2617
15:54:53:014,0.2895,3.3906,7.5494,40.6321,0.3393,-0.2054,-0.2125,355.5558
15:54:53:034,0.1507,3.5677,7.7599,42.2577,0.3736,-0.2945,-0.2443,355.9252
15:54:53:048,0.0766,3.807,8.0877,40.7992,0.3882,-0.4851,-0.2895,356.417
15:54:53:067,0.335,4.0845,8.2983,40.4171,0.3503,-0.7441,-0.3444,357.0932
15:54:53:087,0.3876,4.2114,8.7147,39.8295,0.2208,-0.892,-0.4067,357.9177
15:54:53:113,-0.0359,4.7665,10.2485,40.0155,-0.0736,-0.5303,-0.4177,359.4063
15:54:53:129,0.5384,4.7928,9.8728,39.7065,-0.0968,-0.3507,-0.3799,359.9209
15:54:53:147,1.151,4.4363,9.722,39.8467,-0.241,-0.3752,-0.48,0.5284
15:54:53:166,1.1055,3.5151,10.9974,39.0365,-0.6331,-0.5328,-0.7317,1.4514
15:54:53:186,0.1771,2.3186,13.4237,39.6978,-1.0277,-0.5975,-0.9846,2.7058
15:54:53:206,-1.1103,1.8114,15.5294,41.282,-1.0693,-0.5328,-1.0176,3.9957
15:54:53:229,-1.0337,2.0315,14.9767,40.5167,-0.6111,-0.4118,-0.7207,4.9558
15:54:53:246,0.3852,2.7135,12.067,41.3225,-0.0296,-0.3288,-0.3139,5.4263
15:54:53:266,1.2538,3.3404,9.8465,42.1839,0.1903,-0.2432,-0.1099,5.6075
15:54:53:289,1.3185,3.9051,8.4467,40.8691,0.1292,-0.093,-0.1111,5.7182
15:54:53:311,0.8423,4.1516,7.5637,38.8417,-0.0052,0.1172,-0.2125,5.8575
15:54:53:327,0.0455,4.1683,7.0158,40.8003,-0.1053,0.2699,-0.3212,6.0375
15:54:53:347,-0.6532,4.0367,6.9775,40.6214,-0.1225,0.254,-0.3689,6.3106
15:54:53:366,-0.9523,4.0056,6.6927,40.6625,-0.0223,0.0805,-0.3322,6.6389
15:54:53:387,-0.9834,3.9697,5.9821,41.2326,0.1488,-0.1492,-0.2601,6.9965
15:54:53:409,-0.8997,3.9984,5.3575,41.0872,0.2599,-0.3153,-0.1942,7.3255
15:54:53:432,-0.658,4.0152,5.068,40.6214,0.2587,-0.3752,-0.1429,7.636
15:54:53:457,-0.5192,4.0295,5.5035,39.2761,0.1732,-0.2958,-0.1135,7.8763
15:54:53:471,-0.6245,4.0726,6.1663,39.1016,0.084,-0.1663,-0.1086,8.05
15:54:53:488,-0.8638,4.1826,6.9416,38.4862,0.0571,-0.0661,-0.1001,8.1893
15:54:53:514,-0.9643,4.41,7.6642,37.6284,0.0865,-0.0307,-0.0622,8.287
15:54:53:531,-0.7729,4.5344,7.9346,40.0565,0.1634,-0.06,-0.0011,8.3313
15:54:53:547,-0.7155,4.6349,9.2411,40.2792,0.2318,-0.1858,0.0734,8.365
15:54:53:565,-0.5767,4.9005,9.3775,41.0863,0.3076,-0.1883,0.1332,8.3996
15:54:53:596,0.0311,4.934,9.2267,40.2703,0.3442,-0.0771,0.2004,8.18
15:54:53:613,0.5791,4.9507,9.88,38.8103,0.2062,0.0378,0.2298,7.9377
15:54:53:641,0.6317,5.2379,11.3468,39.6684,0.0131,0.1074,0.2078,7.6702
15:54:53:646,0.5192,5.2977,11.1745,39.9122,0.051,0.2699,0.1821,7.3483
15:54:53:665,-0.2608,5.257,10.1001,39.0063,0.1732,0.5154,0.1418,6.9378
15:54:53:685,-2.0076,5.2642,10.1408,40.0049,0.1414,0.7121,0.0978,6.5744
15:54:53:706,-2.948,5.5131,9.8417,42.2788,0.128,0.728,0.1711,6.1495
15:54:53:726,-2.7063,5.5968,9.009,38.8771,0.0803,0.4922,0.3287,5.6782
15:54:53:745,-1.1773,4.9795,9.3823,38.5977,-0.2312,0.166,0.4374,5.1957
15:54:53:769,0.055,3.8357,12.189,38.8167,-0.7467,-0.1492,0.3971,4.86
15:54:53:786,-0.0838,2.6058,14.7972,39.9522,-1.0265,-0.3397,0.2139,4.8006
15:54:53:805,-0.7346,2.2253,14.4933,39.9014,-0.704,-0.1308,0.1748,4.7099
15:54:53:830,-0.6245,2.4359,11.7583,41.282,-0.0956,0.3701,0.3739,4.1776
15:54:53:845,0.4594,2.7254,9.4349,40.145,0.2551,0.6926,0.6195,3.2507
15:54:53:866,1.4429,2.9408,8.6142,39.4599,0.2587,0.6902,0.6891,2.2168
15:54:53:885,1.3208,2.9049,8.0566,40.1436,0.2123,0.579,0.5633,1.3398
15:54:53:906,0.9021,2.9575,7.1689,37.7448,0.2905,0.5716,0.4338,0.5976
15:54:53:925,0.737,3.1729,6.25,40.3871,0.4151,0.6022,0.3873,359.8979
15:54:53:945,0.7561,3.4481,5.549,37.9597,0.4908,0.5607,0.3678,359.2373
15:54:53:965,0.8279,3.6251,5.1087,39.457,0.4823,0.4043,0.3141,358.7023
15:54:53:985,0.6556,3.7735,5.0489,39.4163,0.3955,0.1892,0.2114,358.3448
15:54:54:008,0.5073,3.7184,6.4319,39.7558,0.1744,-0.1174,0.0587,358.1761
15:54:54:026,0.4618,3.6586,7.1378,39.7253,0.1805,-0.1638,0.0233,358.2104
15:54:54:045,0.3924,3.7663,7.322,38.328,0.2465,-0.242,-0.0256,358.3422
15:54:54:065,-0.0622,4.1994,7.0301,39.7065,0.3088,-0.3324,-0.0952,358.5758
15:54:54:085,-0.0335,4.3837,7.456,39.3296,0.2269,-0.4827,-0.1661,358.9879
15:54:54:106,0.2417,4.398,8.8989,39.176,0.0193,-0.6806,-0.2223,359.5443
15:54:54:126,0.1986,4.3597,10.1791,39.9122,-0.1542,-0.8113,-0.2895,0.2193
15:54:54:145,0.1149,4.6181,11.1458,37.5268,-0.2214,-0.7869,-0.3224,0.9447
15:54:54:165,0.8566,4.4219,11.3803,39.7317,-0.2263,-0.6721,-0.3102,1.5688
15:54:54:186,1.9501,3.8524,11.6913,39.3485,-0.3326,-0.7246,-0.3396,2.2117
15:54:54:205,3.1824,3.0748,12.457,37.9943,-0.5769,-0.8492,-0.4214,2.9668
15:54:54:225,3.3093,2.266,13.6822,37.3854,-0.8103,-0.7625,-0.5692,3.8021
15:54:54:302,2.0435,1.9645,14.2086,38.3119,-0.8139,-0.4436,-0.7171,4.6826
15:54:54:303,0.6628,2.1057,13.127,39.1898,-0.5501,-0.115,-0.7183,5.4638
15:54:54:304,0.3015,2.4981,11.4449,38.2586,-0.2788,-0.0184,-0.5448,6.0332
15:54:54:316,0.9069,3.0915,9.6909,39.0966,-0.1371,-0.115,-0.3359,6.3977
15:54:54:328,1.5625,3.649,8.3749,38.2586,-0.1518,-0.1699,-0.2381,6.647
15:54:54:345,1.3639,3.9458,7.3842,38.2068,-0.241,-0.082,-0.2882,6.923
15:54:54:365,0.7346,4.0199,6.8339,38.6909,-0.3289,0.0854,-0.3909,7.2675
15:54:54:385,-0.0479,3.9865,6.5348,39.3762,-0.3509,0.1941,-0.4605,7.6366
15:54:54:405,-0.6963,3.9697,6.061,38.944,-0.269,0.1929,-0.4752,8.0495
15:54:54:427,-1.151,3.996,5.4556,38.3158,-0.1396,0.0695,-0.4434,8.4834
15:54:54:448,-1.4285,3.929,4.8885,38.7323,-0.0602,-0.1431,-0.3909,8.9705
15:54:54:474,-1.5218,3.7328,6.3793,39.5681,-0.1518,-0.3849,-0.2149,9.8757
15:54:54:488,-1.2084,3.7735,7.1737,39.6274,-0.1225,-0.3605,-0.0854,10.1311
15:54:54:510,-0.658,3.8501,7.9178,38.5327,-0.0394,-0.3446,0.0257,10.2476
15:54:54:534,-0.0742,3.8501,8.6501,39.2419,0.018,-0.3617,0.0758,10.3141
15:54:54:551,0.2153,3.7926,9.5904,39.8037,0.0522,-0.3495,0.066,10.3931
15:54:54:571,0.1436,3.7639,10.5141,40.138,0.1378,-0.2334,0.0318,10.45
15:54:54:586,-0.0909,4.1826,10.3466,38.2791,0.3674,-0.0612,0.0282,10.4543
15:54:54:608,-0.201,4.8431,9.4158,40.4411,0.5886,0.072,0.0538,10.3729
15:54:54:627,0.3374,5.0967,9.0688,38.0351,0.558,0.1257,0.0685,10.2293
15:54:54:646,1.0385,4.8503,10.3035,37.9626,0.2624,0.0952,0.0196,10.1151
15:54:54:669,0.7489,4.721,12.0455,38.377,-0.0137,0.0817,-0.0781,10.1334
15:54:54:687,0.0957,4.7402,11.6746,38.2791,0.084,0.3835,-0.105,10.0612
15:54:54:707,-1.2586,4.9699,10.0259,38.3994,0.3601,0.8429,-0.061,9.7914
15:54:54:728,-2.6536,5.6016,9.1406,38.6909,0.4688,1.0542,0.0269,9.3554
15:54:54:748,-3.0006,6.2381,8.0399,39.0966,0.4432,0.904,0.1564,8.8411
15:54:54:767,-2.0602,5.9031,7.535,38.944,0.1329,0.4018,0.22,8.4672
15:54:54:786,-0.4857,4.7665,9.6168,37.9993,-0.5293,-0.2005,0.1687,8.3809
15:54:54:806,-0.2082,3.1322,13.8449,38.2653,-1.2086,-0.6085,-0.0256,8.658
15:54:54:828,-0.8519,2.1535,15.0078,38.5175,-1.2464,-0.4839,-0.1294,9.0217
15:54:54:847,-1.6822,2.2349,12.6676,38.7927,-0.7003,0.2381,0.049,8.8922
15:54:54:867,-1.6295,2.4311,9.8297,39.0804,-0.274,0.9198,0.4008,8.1454
15:54:54:886,-0.7274,2.6249,8.3486,37.5446,-0.1738,1.1862,0.7026,6.9427
15:54:54:909,0.3685,2.5627,7.4225,39.716,-0.2226,0.9247,0.8211,5.6999
15:54:54:941,0.8207,2.4718,7.7073,40.015,-0.3863,-0.0392,0.5486,4.1487
15:54:54:949,0.4977,2.2995,8.2863,39.4014,-0.3375,-0.1577,0.4252,3.7106
15:54:54:966,0.1436,2.2827,8.3318,40.6743,-0.1432,-0.0343,0.3971,3.29
15:54:54:985,0.0502,2.3091,7.6977,40.0538,0.1109,0.0964,0.4301,2.8021
15:54:55:007,0.28,2.3928,7.6116,40.9626,0.2697,0.0915,0.4594,2.247
15:54:55:025,0.4403,2.467,8.0351,39.407,0.3406,-0.0673,0.424,1.83
15:54:55:045,0.3135,2.5986,8.059,39.4014,0.4505,-0.2188,0.3434,1.5344
15:54:55:066,0.0502,2.8786,7.4608,40.3276,0.5788,-0.1626,0.2847,1.2989
15:54:55:086,-0.0407,3.2518,6.786,40.1553,0.6106,-0.0795,0.2627,1.0436
15:54:55:107,0.1484,3.6203,7.2383,39.6985,0.4371,-0.1589,0.2127,0.8497
15:54:55:128,1.0265,3.3978,8.8965,40.3512,0.1451,-0.3972,0.1222,0.8486
15:54:55:146,0.8829,2.9551,11.1314,40.0095,-0.1212,-0.6183,-0.0329,1.0847
15:54:55:167,-0.0335,3.3787,12.7849,42.1631,-0.1396,-0.6378,-0.1099,1.46
15:54:55:187,0.3278,4.1085,12.256,40.3419,0.1817,-0.3617,0.0453,1.548
15:54:55:213,1.5625,4.197,10.4375,41.2801,0.4798,-0.2444,0.1809,1.4016
15:54:55:231,3.1035,3.8548,9.8417,40.0554,0.3332,-0.4607,0.1149,1.4023
15:54:55:247,3.941,2.6297,11.086,39.7167,-0.2092,-0.7527,-0.1514,1.7753
15:54:55:265,2.8307,1.6798,13.4955,42.5569,-0.7235,-0.7258,-0.4776,2.4836
15:54:55:286,1.4453,1.0696,14.881,43.1651,-0.8042,-0.4583,-0.5888,3.2517
15:54:55:312,0.6413,1.2012,13.864,41.3605,-0.412,-0.1064,-0.4006,3.7025
15:54:55:332,1.2706,1.8066,11.05,41.0656,0.0901,0.1037,-0.0598,3.7038
15:54:55:349,2.2062,2.5316,8.7314,40.4398,0.266,0.0781,0.1332,3.4817
15:54:55:367,2.4694,3.1322,7.5374,41.1203,0.1109,0.0854,0.0954,3.2879
15:54:55:391,0.9858,3.2112,7.8293,40.9626,-0.3363,0.403,-0.2125,3.2911
15:54:55:412,0.2058,3.2686,7.9992,44.0928,-0.2715,0.5448,-0.243,3.2972
15:54:55:428,0.0455,3.4361,7.2335,42.8527,0.0009,0.5252,-0.1942,3.306
15:54:55:452,0.067,3.5198,6.0443,41.9946,0.2746,0.353,-0.1551,3.3387
15:54:55:465,0.0502,3.527,5.0824,43.151,0.3919,0.2039,-0.1624,3.4424
15:54:55:485,-0.0694,3.4457,5.0273,44.0928,0.3259,0.1245,-0.1758,3.5555
15:54:55:505,-0.1125,3.2901,5.6351,43.4345,0.1915,0.0561,-0.1734,3.7203
15:54:55:525,-0.1914,3.2973,5.9821,46.8907,0.1475,0.0402,-0.1502,3.8615
15:54:55:548,-0.1436,3.3667,6.0467,45.6709,0.172,0.061,-0.1074,3.9618
15:54:55:566,0.012,3.6299,6.1352,45.5442,0.1708,0.0903,-0.05,3.986
15:54:55:587,0.1268,3.8883,6.1496,47.9794,0.1182,0.1306,-0.0011,3.9673
15:54:55:611,0.4235,4.0463,6.786,45.7701,-0.0443,0.1831,0.0221,3.8906
15:54:55:628,0.268,4.0199,8.0973,47.506,-0.2752,0.3016,0.0184,3.7707
15:54:55:646,-0.2871,4.1037,10.191,47.3068,-0.4462,0.5326,0.0465,3.5309
15:54:55:665,-0.6317,4.5416,11.5502,47.4923,-0.3228,0.794,0.1613,3.1026
15:54:55:687,-0.3805,4.9723,11.1506,47.7345,0.051,0.8575,0.2921,2.4856
15:54:55:705,0.0096,5.1709,10.8682,46.8038,0.2978,0.5607,0.3287,1.9252
15:54:55:726,-0.1842,5.7476,11.6842,47.1102,0.3454,0.1648,0.3079,1.554
15:54:55:749,0.0024,5.5729,11.7296,46.5139,0.464,0.05,0.297,1.2303
15:54:55:766,0.0742,5.5537,11.3396,44.6393,0.5996,0.0133,0.2786,0.961
15:54:55:786,-0.4786,5.6231,11.0405,46.3252,0.635,-0.0233,0.1821,0.7917
15:54:55:806,-1.5434,5.8887,10.148,45.7011,0.6326,-0.0502,0.0343,0.8283
15:54:55:828,-2.0913,6.0562,9.1262,47.7838,0.5189,-0.1101,-0.0928,1.0191
15:54:55:850,-0.7394,3.7735,10.8323,48.4053,-0.5207,-0.5523,-0.3261,2.0292
15:54:55:867,-0.7083,2.0985,13.6702,47.8217,-1.1548,-0.7942,-0.5497,2.9857
15:54:55:891,-1.5362,1.1988,14.333,48.9007,-1.255,-0.5572,-0.6474,3.9574
15:54:55:905,-2.0435,1.1462,12.926,48.708,-0.897,0.1184,-0.4251,4.4543
15:54:55:926,-2.3737,1.4548,11.2941,46.8907,-0.4853,0.7561,-0.0671,4.3118
15:54:55:947,-2.0889,1.9669,10.1432,49.7032,-0.1518,1.0383,0.2823,3.7098
15:54:55:967,-1.261,2.2971,8.5424,48.6392,0.1708,0.8698,0.5572,2.8793
15:54:55:987,-0.4092,2.6225,7.0445,49.578,0.3674,0.4153,0.6781,2.0277
15:54:56:005,0.2776,2.7709,6.4223,47.7182,0.3662,0.0097,0.6781,1.3377
15:54:56:025,0.7274,2.6034,6.317,47.7838,0.2746,-0.1748,0.6158,0.7634
