Time,Acc_X,Acc_Y,Acc_Z,Meg,Gyr_X,Gyr_Y,Gyr_Z,Ore
19:55:31:948,-1.4309,2.6656,9.052,24.0401,-0.1398,-0.4722,-0.5164,190.2711
19:55:31:964,-1.4309,2.6656,9.052,24.6837,-0.1398,-0.4722,-0.5164,190.9183
19:55:31:984,-1.876,2.9288,9.344,25.2412,-0.1398,-0.4722,-0.5164,191.3775
19:55:32:004,-1.6319,2.8403,9.0808,23.9991,0.1436,0.2791,0.395,190.8302
19:55:32:031,-1.5936,2.7326,9.009,25.1186,0.1607,0.2352,0.285,190.3596
19:55:32:044,-1.9813,2.1344,8.7218,24.3081,0.1143,0.1118,0.1958,190.0302
19:55:32:064,-2.6632,2.9145,9.0784,24.1671,0.0166,0.0446,0.1873,189.5927
19:55:32:083,-2.3234,3.216,9.0903,25.7197,-0.0213,0.0299,0.3755,188.9878
19:55:32:104,-1.8401,3.4002,8.9157,24.4125,0.0239,0.0434,0.5355,188.1981
19:55:32:133,-1.6845,3.4959,8.6644,24.2688,0.0777,0.0922,0.4842,187.4324
19:55:32:144,-1.6941,3.4505,8.6979,25.1186,0.0471,0.0885,0.2899,186.9769
19:55:32:163,-1.6582,3.2997,8.9204,24.7681,-0.0543,0.0238,0.1103,186.7958
19:55:32:183,-1.8544,3.2112,9.1765,24.2688,-0.1374,-0.0556,0.015,186.6928
19:55:32:203,-2.388,3.2327,9.1334,23.7926,-0.1655,-0.0165,0.0016,186.5883
19:55:32:237,-2.6345,3.4481,8.9324,25.2279,-0.1569,0.135,0.0835,186.2527
19:55:32:245,-2.3186,3.5844,8.7171,25.7271,-0.1019,0.1741,0.2655,185.697
19:55:32:282,-1.9262,3.6371,8.5161,24.6492,-0.0299,0.1142,0.4255,185.039
19:55:32:286,-1.8449,3.7472,8.3462,25.4291,-0.0054,0.0812,0.4549,184.4088
19:55:32:306,-1.9382,3.6419,8.406,24.2477,-0.0604,0.0776,0.3522,183.9261
19:55:32:334,-2.0148,3.5749,8.5352,24.2417,-0.141,0.0263,0.2728,183.5509
19:55:32:344,-1.8903,3.5438,8.796,25.3254,-0.1874,-0.0421,0.3095,183.1634
19:55:32:371,-1.8066,3.5151,9.2171,26.0849,-0.1887,-0.1008,0.3681,182.722
19:55:32:385,-1.5386,3.3619,9.5067,26.4264,-0.1459,-0.1093,0.3901,182.3111
19:55:32:407,-1.2347,3.3212,9.5737,26.742,-0.1068,-0.036,0.3535,181.707
19:55:32:432,-1.0122,3.4074,9.4038,24.6557,-0.0409,-0.0189,0.3156,181.3543
19:55:32:451,-0.9476,3.4098,9.5115,24.6894,-0.0286,-0.0739,0.3083,181.0854
19:55:32:463,-0.8519,3.3452,9.8034,24.6093,-0.0726,-0.1252,0.2569,180.788
19:55:32:484,-0.6269,3.271,10.1336,24.0183,-0.1532,-0.1729,0.1873,180.5923
19:55:32:519,-0.548,3.3212,10.5835,24.7666,-0.2339,-0.1863,0.1482,180.4286
19:55:32:525,-0.3541,3.3547,10.8323,24.2019,-0.2864,-0.1375,0.1445,180.2573
19:55:32:543,-0.1149,3.0963,11.1817,24.487,-0.3145,-0.0324,0.1189,180.094
19:55:32:565,-0.2465,2.9169,11.5095,24.1136,-0.3157,-0.0067,0.0383,180.0378
19:55:32:585,-0.3781,2.7709,11.8181,26.028,-0.2815,-0.0751,-0.0424,180.0298
19:55:32:623,-0.2632,2.4,12.055,25.3588,-0.2058,-0.1619,-0.0851,180.1281
19:55:32:625,0.3015,1.8042,12.3302,23.431,-0.0946,-0.2437,-0.1157,180.3043
19:55:32:645,0.7992,1.2491,12.3494,23.8773,0.0129,-0.3403,-0.1829,180.5943
19:55:32:664,0.9308,0.8925,11.9569,24.487,0.1241,-0.3488,-0.2598,180.9928
19:55:32:684,0.6437,0.9165,10.9591,25.1778,0.2499,-0.1619,-0.2806,181.3307
19:55:32:708,0.5192,1.1222,9.7938,26.6406,0.3867,0.1203,-0.1975,181.4989
19:55:32:727,0.7131,1.328,8.7266,24.487,0.5236,0.3024,-0.0668,181.4492
19:55:32:745,0.9667,1.5362,7.882,24.7666,0.6091,0.2901,-0.0069,181.3382
19:55:32:764,1.1414,1.7539,7.3196,24.7666,0.5859,0.1509,-0.057,181.2907
19:55:32:784,1.0792,1.943,7.0612,26.0644,0.4491,-0.0299,-0.1853,181.4329
19:55:32:804,0.7202,2.0148,7.1354,24.6093,0.2426,-0.1497,-0.3246,181.7852
19:55:32:827,0.2536,2.1583,7.4058,25.3536,0.0361,-0.1802,-0.4284,182.228
19:55:32:847,-0.055,2.1799,7.6929,24.5839,-0.1142,-0.1924,-0.4736,182.7471
19:55:32:867,-0.2082,2.2469,7.9992,25.8881,-0.1923,-0.2181,-0.4846,183.2782
19:55:32:889,-0.3326,2.3976,8.2624,25.8493,-0.2155,-0.2278,-0.4724,183.8365
19:55:32:906,-0.2082,2.6776,8.6453,24.5556,-0.1801,-0.1582,-0.4284,184.3
19:55:32:926,-0.2919,2.7398,8.9898,25.2159,-0.1642,-0.135,-0.4321,185.2497
19:55:32:944,-0.2465,2.6967,9.2148,25.7528,-0.1349,-0.1619,-0.4345,185.7138
19:55:32:964,-0.0622,2.6512,9.3129,25.7013,-0.0665,-0.1619,-0.4199,186.1727
19:55:32:984,0.268,2.6632,9.5139,27.1674,0.0068,-0.0922,-0.3918,186.55
19:55:33:006,0.4618,2.7685,9.7268,27.7294,0.0373,0.0067,-0.3673,186.8683
19:55:33:027,0.2967,2.857,9.7771,25.7128,0.0557,0.0653,-0.3661,187.2015
19:55:33:046,-0.1125,3.015,9.6096,27.0557,0.0972,0.069,-0.3734,187.503
19:55:33:064,-0.4666,3.2423,9.3296,27.7869,0.1546,0.0922,-0.3405,187.7635
19:55:33:085,-0.682,3.4385,9.1573,25.0996,0.1949,0.1484,-0.2537,187.927
19:55:33:105,-0.8853,3.649,9.1167,25.2199,0.1949,0.1741,-0.1682,187.9964
19:55:33:123,-0.9715,3.9242,9.1932,25.6884,0.1632,0.1875,-0.0925,187.9651
19:55:33:144,-0.8231,3.9529,9.4852,26.7474,0.1118,0.2437,-0.0265,187.8302
19:55:33:165,-0.4929,3.7472,9.8991,27.2013,0.0508,0.2413,-0.0167,187.748
19:55:33:187,-0.6197,3.6538,10.2341,26.4031,0.0019,0.1716,-0.0668,187.7248
19:55:33:207,-1.0504,3.606,10.5332,27.8414,-0.0079,0.1912,-0.1157,187.7304
19:55:33:223,-1.7157,3.5175,10.6194,25.2384,0.019,0.2828,-0.1218,187.7007
19:55:33:244,-2.4861,3.4552,10.4351,27.8711,0.0605,0.3915,-0.0912,187.6036
19:55:33:264,-3.0891,3.2997,10.2341,26.4748,0.0996,0.4844,-0.0191,187.3948
19:55:33:288,-3.3978,3.0317,10.124,28.4454,0.1192,0.5247,0.0786,187.0728
19:55:33:307,-2.9073,2.3665,10.27,28.5113,0.14,0.4099,0.2081,186.6362
19:55:33:326,-2.2038,1.5553,10.27,27.1554,0.1815,0.1325,0.2973,186.2368
19:55:33:351,-2.1942,1.3998,9.8991,27.9878,0.2634,-0.0214,0.3205,185.3806
19:55:33:364,-2.613,1.7276,8.6357,25.1411,0.4735,0.3341,0.4707,184.7641
19:55:33:383,-2.3952,1.584,7.9848,28.4886,0.5321,0.3952,0.5551,184.0003
19:55:33:404,-1.986,1.7898,7.5182,28.4599,0.4991,0.2608,0.5868,183.2141
19:55:33:422,-1.3161,1.998,7.2957,28.029,0.366,0.047,0.5844,182.5369
19:55:33:442,-0.4475,1.8975,7.5924,28.0407,0.1461,-0.1362,0.5135,182.0212
19:55:33:461,-0.3374,1.9669,8.2265,28.5416,-0.1545,-0.2278,0.3119,181.7331
19:55:33:482,-0.8806,2.1105,8.7888,30.681,-0.4623,-0.1888,0.0908,181.6752
19:55:33:502,-1.474,2.2612,8.8152,27.8592,-0.6236,-0.0373,0.0285,181.6262
19:55:33:523,-1.7276,2.5508,8.5926,28.5303,-0.5564,0.1435,0.1323,181.3595
19:55:33:546,-1.6008,2.9719,8.2265,28.4757,-0.3463,0.212,0.2728,180.9185
19:55:33:565,-1.1222,3.2518,7.9155,29.3825,-0.1496,0.1667,0.3559,180.4242
19:55:33:587,-0.9787,3.4193,7.882,29.3341,-0.0616,0.0678,0.3437,179.9478
19:55:33:604,-1.017,3.3954,8.0327,27.9511,-0.0787,-0.047,0.2679,179.6133
19:55:33:625,-1.0146,3.3093,8.2505,28.6041,-0.1532,-0.1008,0.1873,179.3859
19:55:33:644,-0.9978,3.2806,8.5783,28.7301,-0.2546,-0.0825,0.1494,179.1932
19:55:33:664,-1.1821,3.3165,9.1382,28.12,-0.3548,-0.0348,0.1335,178.9871
19:55:33:684,-1.4572,3.2973,9.5426,28.7301,-0.4061,-0.0812,0.1091,178.8169
19:55:33:705,-1.5194,3.2734,9.5665,29.3193,-0.345,-0.1509,0.1079,178.6772
19:55:33:723,-1.5075,3.0772,9.3153,28.5473,-0.1716,-0.091,0.147,178.4891
19:55:33:743,-1.7204,3.125,9.2722,30.922,-0.0042,0.0092,0.1861,178.1749
19:55:33:764,-1.5745,3.2279,9.2243,28.9432,0.0569,-0.0654,0.2362,177.8574
19:55:33:787,-0.9069,3.0772,9.6407,31.1266,0.0129,-0.1973,0.2618,177.5678
19:55:33:803,-0.4068,2.9288,10.3107,30.3534,-0.119,-0.2926,0.1836,177.3983
19:55:33:824,-0.481,2.8116,12.0168,30.9929,-0.4513,-0.5052,-0.0509,177.651
19:55:33:844,-0.1771,2.4909,12.7777,32.1812,-0.5515,-0.5504,-0.0436,177.8047
19:55:33:866,0.8423,1.5147,13.9262,32.0395,-0.5747,-0.5589,0.0053,177.8846
19:55:33:885,1.718,0.6461,14.6225,29.9814,-0.4916,-0.6102,-0.0302,178.0291
19:55:33:964,1.6798,0.5838,14.0985,32.3446,-0.2571,-0.5198,-0.123,178.2399
19:55:33:965,1.1988,0.9284,12.5647,32.2825,0.107,-0.1228,-0.123,178.3359
19:55:33:981,0.7083,1.2395,10.4566,32.3446,0.4894,0.2999,-0.0338,178.2511
19:55:33:982,0.6054,1.3352,8.7266,31.0519,0.7679,0.4783,0.0529,177.9889
19:55:34:000,0.7178,1.5314,7.7647,31.8366,0.8437,0.3451,0.0517,177.7816
19:55:34:003,0.9691,1.8473,7.5446,32.2825,0.6971,-0.0373,-0.0937,177.8317
19:55:34:023,1.1725,1.7396,7.4441,32.1837,0.3782,-0.3671,-0.3478,178.274
19:55:34:044,0.7992,1.3807,7.5398,35.6295,0.0166,-0.4209,-0.5982,178.9929
19:55:34:066,-0.0072,1.2897,7.6235,36.5442,-0.251,-0.3305,-0.751,179.8271
19:55:34:086,-0.6126,1.3878,7.5924,32.5646,-0.367,-0.2608,-0.7546,180.6908
19:55:34:107,-0.7131,1.6606,7.4465,33.4533,-0.356,-0.2462,-0.6496,181.4192
19:55:34:141,-0.4738,1.9023,7.2048,34.0329,-0.2681,-0.212,-0.5433,181.9922
19:55:34:142,-0.2513,2.0243,7.2263,34.1236,-0.1801,-0.0874,-0.5054,182.5136
19:55:34:163,-0.4522,2.3474,7.5613,33.5222,-0.1557,0.0238,-0.5103,182.9752
19:55:34:182,-0.6652,2.5364,7.9657,34.2503,-0.1984,0.0214,-0.5103,183.4318
19:55:34:201,-0.6748,2.5388,8.473,33.5141,-0.2583,-0.0348,-0.4712,183.8775
19:55:34:223,-0.67,2.5029,9.1023,34.1143,-0.2852,-0.0739,-0.4138,184.2891
19:55:34:242,-0.658,2.5747,9.7077,35.1061,-0.2583,-0.0959,-0.3417,184.6172
19:55:34:263,-0.2823,2.79,10.2509,34.1552,-0.0689,-0.1497,-0.2134,184.8629
19:55:34:283,-0.5599,3.0867,10.0762,33.6086,0.0215,-0.1118,-0.2085,185.1301
19:55:34:305,-0.993,3.4122,9.7747,36.1865,0.0825,0.0336,-0.1462,185.3984
19:55:34:323,-1.1749,3.7184,9.7699,34.3186,0.1167,0.2266,-0.0179,185.2882
19:55:34:344,-0.8399,3.6897,10.2891,35.5464,0.0886,0.3317,0.0835,185.0397
19:55:34:364,-0.3015,3.472,11.1099,35.8533,0.0019,0.2987,0.0981,184.7884
19:55:34:384,-0.1914,3.1753,11.8325,34.303,-0.0787,0.229,0.0199,184.6611
19:55:34:405,-0.7226,2.6991,12.1149,35.769,-0.0934,0.1484,-0.123,184.6708
19:55:34:423,-1.9214,2.5077,11.8636,35.7402,-0.0225,0.1069,-0.2317,184.8119
19:55:34:443,-3.1394,2.7302,11.1218,35.8533,0.1106,0.1533,-0.1951,184.8963
19:55:34:464,-2.9839,2.6728,10.8778,36.1257,0.223,0.2327,0.0138,184.7451
19:55:34:483,-1.7085,1.8975,11.1434,36.8562,0.2133,0.0531,0.1849,184.4566
19:55:34:504,-1.2179,1.2156,11.208,35.8995,0.1118,-0.317,0.1421,184.3188
19:55:34:524,-1.9095,1.2634,10.4542,37.3163,0.0642,-0.3622,0.0749,184.2614
19:55:34:543,-2.6512,1.4022,9.4564,36.3692,0.1412,0.0214,0.1788,183.9976
19:55:34:564,-2.79,1.3926,8.6166,37.1388,0.2621,0.4099,0.4011,183.3474
19:55:34:583,-2.4814,1.9262,8.674,37.8547,0.2988,0.3488,0.5612,182.5641
19:55:34:604,-1.3735,2.2636,9.2195,38.6398,0.2047,-0.058,0.5844,181.8791
19:55:34:623,-0.3805,1.7276,9.8321,40.4869,0.0728,-0.3329,0.4781,181.4053
19:55:34:643,-0.6054,1.4429,9.8273,40.3716,-0.0213,-0.4258,0.2802,181.2158
19:55:34:663,-1.3328,1.6606,9.3416,37.9155,-0.0445,-0.3842,0.1519,181.1451
19:55:34:683,-1.7659,1.9789,8.4682,38.5789,-0.0067,-0.2156,0.1775,180.9417
19:55:34:707,-1.5697,2.1488,7.6092,38.773,0.0324,0.0421,0.2765,180.5619
19:55:34:726,-0.7346,1.7013,7.6857,38.3283,-0.1728,0.3036,0.3132,179.6513
19:55:34:746,-1.4644,2.3258,7.925,40.1553,-0.4721,-0.223,0.3584,179.2503
19:55:34:768,-0.7035,2.8403,8.1835,39.3707,-0.7861,-0.8106,0.4781,178.9058
19:55:34:787,-0.2632,2.7254,8.6835,38.2879,-0.918,-0.9169,0.4928,178.5585
19:55:34:802,-0.591,2.2062,9.3129,40.575,-0.8191,-0.4734,0.3351,178.2267
19:55:34:824,-0.5168,1.943,9.6861,39.4725,-0.4611,0.1435,0.3095,177.784
19:55:34:844,0.0048,1.2562,9.4349,41.2011,0.0031,0.3769,0.3901,177.2299
19:55:34:864,0.0383,1.2108,9.1573,40.8103,0.438,0.328,0.3535,176.6945
19:55:34:885,-0.1555,1.6104,8.9994,41.6458,0.8082,0.339,0.2276,176.2613
19:55:34:905,-0.0191,1.9023,9.0712,39.9897,1.055,0.5088,0.1751,175.8685
19:55:34:923,0.0933,1.9836,9.1741,41.4444,1.0685,0.6115,0.1629,175.4254
19:55:34:948,-0.189,1.998,9.0473,42.5641,0.7789,0.4258,0.1116,175.0798
19:55:34:962,-0.5551,1.742,9.3129,40.1775,0.2634,0.1313,0.0932,174.8475
19:55:34:984,-0.9093,1.7444,9.734,42.0619,-0.2876,0.0104,0.1775,174.5784
19:55:35:003,-0.402,1.5266,10.4351,42.2707,-0.6822,0.157,0.3632,174.0447
19:55:35:023,0.7849,1.2084,11.7559,42.1291,-0.9156,0.3195,0.5111,173.3357
19:55:35:043,1.8018,0.39,13.3687,43.9492,-1.0451,0.2645,0.4475,172.7399
19:55:35:065,1.3495,-0.3206,14.5867,43.1733,-1.0671,0.0311,0.2068,172.4369
19:55:35:084,0.4116,-0.4451,14.6632,43.2779,-0.9107,-0.091,0.0346,172.3478
19:55:35:104,0.1531,-0.4977,13.6774,42.4046,-0.5393,0.1118,0.1421,172.1088
19:55:35:122,0.5025,-0.3876,11.7703,44.7617,-0.0482,0.4758,0.3694,171.5615
19:55:35:142,1.1127,0.0574,9.8776,42.2292,0.3501,0.8057,0.5318,170.7819
19:55:35:163,1.5816,0.6365,8.5878,43.8729,0.5138,0.956,0.5318,169.9583
19:55:35:185,1.2921,1.4572,7.0469,44.9637,0.245,0.6518,0.103,169.3218
19:55:35:205,0.8303,1.3735,6.5994,44.8264,0.0215,0.4355,-0.1694,169.1307
19:55:35:225,0.2536,1.2634,6.4367,43.7387,-0.1679,0.2755,-0.3979,169.4039
19:55:35:241,-0.0838,1.3017,6.6808,43.7837,-0.2864,0.1386,-0.5298,169.8876
19:55:35:262,-0.3135,1.5625,7.0827,44.0226,-0.3072,0.0385,-0.5982,170.4466
19:55:35:284,-0.5025,1.742,7.1497,45.8474,-0.2278,0.0336,-0.6447,171.079
19:55:35:303,-0.6987,1.8257,7.3388,44.4796,-0.1142,0.1386,-0.6813,171.7289
19:55:35:323,-0.603,1.9597,7.7049,45.9048,-0.0518,0.1826,-0.7106,172.3887
19:55:35:343,-0.5121,2.2062,8.3031,47.6993,-0.0689,0.113,-0.7338,173.1072
19:55:35:367,-0.6437,2.266,9.0042,45.0233,-0.1581,-0.0287,-0.7766,173.8911
19:55:35:389,-0.6843,2.0578,9.7149,47.0655,-0.2595,-0.2242,-0.7962,174.7481
19:55:35:417,-0.7513,1.9884,10.6648,46.0393,-0.2937,-0.372,-0.7656,175.6004
19:55:35:425,-0.9571,2.2469,11.6124,46.7617,-0.218,-0.4539,-0.7021,176.4027
19:55:35:443,-1.1366,2.479,12.134,47.6284,-0.0384,-0.4966,-0.5836,177.0574
19:55:35:465,-1.1988,2.656,11.4353,47.5759,0.2462,-0.394,-0.4076,177.5059
19:55:35:488,-1.5745,2.9695,10.7629,47.5759,0.5688,0.0043,-0.2452,177.7136
19:55:35:505,-1.9669,3.271,10.4351,47.7009,0.7459,0.2865,-0.1376,177.7446
19:55:35:532,-2.1918,3.5653,10.4518,47.5042,0.7154,0.1386,-0.0424,177.6848
19:55:35:550,-2.1775,3.5868,10.7103,49.4593,0.5798,-0.1423,0.0285,177.5978
19:55:35:567,-2.3857,3.5366,11.1003,46.8785,0.4503,-0.2816,0.0554,177.5055
19:55:35:582,-2.723,3.3643,11.062,50.0183,0.388,-0.2498,0.0871,177.3812
19:55:35:601,-3.0102,3.0772,10.5284,47.586,0.4271,-0.0617,0.1946,177.0974
19:55:35:621,-3.5222,3.2088,10.0666,49.5358,0.4833,0.218,0.351,176.5819
19:55:35:644,-3.3595,2.4503,9.9518,49.1886,0.399,0.0214,0.6381,175.1266
19:55:35:664,-3.204,1.8616,10.0355,50.8019,0.3281,-0.4905,0.6699,174.4396
19:55:35:681,-3.0987,1.7061,10.0164,49.2379,0.3354,-0.8461,0.6565,173.8645
19:55:35:701,-2.8068,1.529,10.002,50.9723,0.3929,-0.9658,0.6565,173.3616
19:55:35:721,-2.3306,1.4692,9.9278,50.5097,0.3965,-1.044,0.6198,172.9581
19:55:35:741,-1.8808,1.4429,9.6,51.5731,0.2792,-1.1002,0.5416,172.662
19:55:35:764,-0.8949,0.9595,9.2913,51.4515,0.085,-0.9438,0.5025,172.3944
19:55:35:782,-0.1555,0.5623,9.5115,49.4426,-0.1178,-0.6078,0.4329,172.0327
19:55:35:801,-0.1196,0.0072,9.4205,51.2585,-0.262,-0.2413,0.2692,171.7705
19:55:35:824,-0.5504,-0.5216,9.1861,51.2207,-0.3108,0.1228,0.1189,171.524
19:55:35:843,-1.0409,-0.6293,8.729,51.6871,-0.2779,0.3989,0.1152,171.2249
19:55:35:861,-1.0074,-0.1986,7.9059,52.0796,-0.1642,0.5504,0.3364,170.6531
19:55:35:881,-0.3063,0.256,6.987,52.1606,0.008,0.7165,0.6699,169.6679
19:55:35:900,0.5384,0.8495,6.1831,51.8889,0.1583,0.9474,0.9277,168.3702
19:55:35:920,1.0241,1.7587,5.7476,52.4385,0.1986,1.2211,1.0499,166.858
19:55:35:942,1.2179,2.5795,5.7428,51.1884,0.1009,1.3714,1.0364,165.3051
19:55:35:963,1.0217,3.283,6.5803,52.2056,-0.1276,1.2162,0.8886,163.9503
19:55:36:017,0.7681,3.661,7.3986,53.2261,-0.4098,0.631,0.6259,163.0473
19:55:36:017,0.5384,3.6754,8.1547,53.7198,-0.5918,-0.0165,0.3217,162.6547
19:55:36:021,0.1531,3.6634,9.0162,52.2105,-0.5821,-0.2779,0.0309,162.6322
19:55:36:040,-0.3685,3.649,9.7125,53.2793,-0.4306,-0.1741,-0.1731,162.8063
19:55:36:061,-0.8997,3.4839,10.5906,54.0721,-0.2632,-0.0751,-0.2549,163.0557
19:55:36:081,-1.151,3.2997,11.397,53.0997,-0.1581,-0.328,-0.2659,163.3792
19:55:36:101,-0.3159,2.6512,12.2489,54.4639,0.0129,-0.9499,-0.2989,163.8187
19:55:36:120,0.055,2.3713,12.3805,54.7126,0.074,-0.978,-0.3209,164.38
19:55:36:141,0.5001,2.321,12.2489,54.6709,0.052,-0.8986,-0.2574,165.4016
19:55:36:164,1.1964,2.2588,11.9163,54.5065,-0.0555,-0.6787,-0.1083,165.6532
19:55:36:180,1.8664,2.0076,11.72,53.2232,-0.2339,-0.3146,0.0016,165.7151
19:55:36:200,2.1152,1.2897,12.2249,53.5183,-0.4831,-0.0605,-0.0802,165.7881
19:55:36:220,1.6989,0.5719,12.7298,54.0033,-0.703,-0.1961,-0.3258,166.1702
19:55:36:242,1.2682,-0.0359,12.938,55.3155,-0.7189,-0.4624,-0.5164,166.8339
19:55:36:260,1.2658,-0.6102,12.5001,55.792,-0.4648,-0.5748,-0.5445,167.5093
19:55:36:280,1.3185,-0.6652,11.5717,56.1445,-0.0494,-0.5052,-0.4736,168.1063
19:55:36:301,1.4118,-0.3589,10.2652,54.4328,0.3684,-0.2853,-0.3747,168.537
19:55:36:322,1.6199,-0.2058,9.0257,55.2059,0.6335,-0.0055,-0.3099,168.8483
19:55:36:342,1.2897,0.1484,7.8532,55.5343,0.6641,0.1802,-0.3368,169.1659
19:55:36:367,0.938,0.2823,6.877,54.7526,0.5077,0.2926,-0.4138,169.5151
19:55:36:382,0.4594,0.3733,6.3314,54.1217,0.2621,0.3757,-0.4956,169.9426
19:55:36:402,-0.0742,0.5097,5.9581,55.2862,-0.0152,0.3769,-0.5579,170.4343
19:55:36:422,-0.469,0.6724,5.9007,55.0085,-0.2534,0.3573,-0.5579,170.9307
19:55:36:445,-0.5838,0.9212,5.9964,56.7424,-0.4391,0.3402,-0.5164,171.3882
19:55:36:462,-0.5168,1.1868,6.1496,55.044,-0.5589,0.3622,-0.4504,171.7642
19:55:36:482,-0.5671,1.5793,6.5994,55.324,-0.6358,0.4282,-0.3942,172.0784
19:55:36:503,-0.3183,1.8066,7.2048,53.6217,-0.6822,0.4306,-0.3612,172.354
19:55:36:522,-0.2273,2.1631,8.1189,55.8138,-0.7006,0.3195,-0.3551,172.6505
19:55:36:543,-0.0431,2.3234,9.0449,56.2762,-0.6847,0.0825,-0.3808,173.0339
19:55:36:566,0.2058,2.1607,10.5332,55.3202,-0.5161,-0.3928,-0.4284,174.0156
19:55:36:584,0.3254,2.1775,10.9424,54.623,-0.3646,-0.4905,-0.3991,174.5009
19:55:36:606,0.2465,2.3976,11.086,55.5319,-0.207,-0.4417,-0.3515,174.9286
19:55:36:621,-0.2058,2.7613,11.2606,55.3509,-0.0897,-0.245,-0.2757,175.2213
19:55:36:643,-0.4116,3.0389,11.3587,55.0833,-0.0482,-0.0495,-0.1474,175.3602
19:55:36:663,-0.0694,3.1059,11.4616,56.8344,-0.0641,0.0947,0.0016,175.3081
19:55:36:682,0.0359,3.259,11.8062,56.3808,-0.1117,0.1936,0.037,175.2228
19:55:36:702,-0.6293,3.3571,12.4044,55.1631,-0.1483,0.229,-0.1034,175.2869
19:55:36:721,-1.4165,2.8881,13.2108,54.3598,-0.1264,0.157,-0.2916,175.5479
19:55:36:744,-1.9454,2.0028,13.4357,54.7034,0.0117,-0.0568,-0.4541,176.0151
19:55:36:763,-2.6297,1.2849,13.2443,56.7206,0.2279,-0.1485,-0.5567,176.5798
19:55:36:783,-2.7039,0.7585,13.139,54.7048,0.4356,-0.0544,-0.5359,177.1271
19:55:36:802,-2.0004,0.3278,13.8257,56.7167,0.5101,-0.157,-0.3344,177.4788
19:55:36:822,-1.1557,0.1627,14.467,55.0886,0.5053,-0.5809,-0.0815,177.6425
19:55:36:844,-1.0744,-0.1531,13.5338,54.7624,0.6909,-0.6994,0.0993,177.6392
19:55:36:864,-1.5386,-0.2177,11.5717,54.7924,1.0844,-0.245,0.285,177.3586
19:55:36:884,-1.6798,-0.0383,9.3224,52.8904,1.4545,0.4575,0.5624,176.6334
19:55:36:901,-1.3448,0.1292,7.6523,55.3347,1.5877,1.0342,0.8409,175.4521
19:55:36:922,-0.8375,0.7609,6.8243,53.5409,1.3751,1.1429,1.0181,174.0131
19:55:36:945,-0.2608,1.5673,6.7047,52.9946,0.9206,0.8741,1.095,172.5791
19:55:36:962,0.4164,1.876,7.0899,53.6321,0.4234,0.5052,1.0437,171.3049
19:55:36:982,0.5623,1.7515,7.3053,52.4507,0.0251,0.1973,0.7884,170.4062
19:55:37:002,0.1101,1.2036,7.4512,53.0152,-0.2168,0.0299,0.4036,169.9616
19:55:37:025,-0.9188,0.8279,8.3103,52,-0.334,-0.1118,-0.013,169.8856
19:55:37:046,-0.7322,1.2179,8.6166,51.1895,-0.2327,-0.1594,0.059,169.824
19:55:37:064,-0.4164,1.6678,8.3486,52.0941,0.0105,-0.0617,0.1983,169.5903
19:55:37:082,-0.2704,2.0961,7.8293,49.1333,0.3,0.1997,0.2142,169.2862
19:55:37:101,-0.6389,2.4526,6.9033,50.4133,0.515,0.4038,0.1238,169.0002
19:55:37:122,-0.9212,2.7446,6.7597,49.7083,0.559,0.4966,0.0236,168.7834
19:55:37:146,-1.0528,3.015,6.9368,52.1159,0.3904,0.3598,-0.0778,168.7086
19:55:37:165,-0.9691,3.2997,7.3795,52.2918,0.0618,0.0324,-0.1523,168.8015
19:55:37:182,-0.5815,3.4863,7.9514,49.6504,-0.2693,-0.2022,-0.1657,169.0057
19:55:37:202,-0.7394,3.6682,9.1286,50.971,-0.51,-0.2046,-0.2122,169.2531
19:55:37:225,-0.7992,3.5175,10.2676,51.4091,-0.6456,-0.2254,-0.2953,169.5946
19:55:37:243,-0.5599,3.0532,11.464,51.694,-0.637,-0.3683,-0.3686,170.0698
19:55:37:262,-0.0718,2.4957,12.5169,50.8861,-0.4721,-0.5956,-0.4272,170.6553
19:55:37:282,0.1819,2.1057,13.151,49.3607,-0.1997,-0.8607,-0.4846,171.3722
19:55:37:302,0.1914,2.0722,13.2443,49.232,0.1045,-1.0647,-0.5201,172.1801
19:55:37:322,-0.0479,2.3928,12.8566,49.8215,0.3635,-1.0464,-0.4871,172.9488
19:55:37:342,0.0407,2.7206,12.2895,48.6945,0.5419,-0.7801,-0.3368,173.4887
19:55:37:364,0.7801,3.058,11.8517,49.8298,0.6116,-0.4404,-0.0973,173.6788
19:55:37:382,1.8042,3.1896,11.5693,49.5787,0.5505,-0.2034,0.0395,173.678
19:55:37:401,2.0028,2.601,11.4521,49.5014,0.4002,-0.1216,-0.0704,173.7802
19:55:37:424,1.0337,1.651,11.2487,48.8594,0.2572,-0.1497,-0.3478,174.179
19:55:37:441,0.1172,1.0504,10.7581,50.2059,0.1803,-0.1668,-0.5335,174.7702
19:55:37:462,-0.189,0.6174,10.1384,49.5372,0.1962,-0.1179,-0.5029,175.3015
19:55:37:484,0.5001,0.9715,8.1045,48.2359,0.3269,0.1643,-0.1401,175.6348
19:55:37:504,0.8375,1.2538,7.5494,48.6164,0.3147,0.3586,-0.0179,175.7324
19:55:37:526,0.8973,1.6128,7.401,49.364,0.2255,0.3537,-0.0191,175.4789
19:55:37:549,1.0576,1.7539,6.9416,50.1445,0.118,0.1753,-0.0741,175.4758
19:55:37:566,0.9141,1.8664,6.865,50.2885,0.0239,0.1118,-0.1609,175.5768
19:55:37:582,0.3517,2.1894,6.9105,48.9525,-0.0421,0.1448,-0.2268,175.7217
19:55:37:601,0.1436,2.4598,6.5755,49.2876,-0.0555,0.1753,-0.2,175.8234
19:55:37:621,0.2249,2.6584,6.2309,48.5696,-0.0518,0.2584,-0.112,175.8242
19:55:37:641,0.3565,2.8594,6.3984,50.4232,-0.0824,0.3512,-0.0472,175.7068
19:55:37:663,0.4498,3.0317,7.0493,48.9712,-0.1545,0.2889,-0.0497,175.6161
19:55:37:683,0.6054,3.2375,7.6833,49.3695,-0.2375,0.0531,-0.112,175.6771
19:55:37:703,0.7083,3.3619,8.741,49.4898,-0.2754,-0.1558,-0.1865,175.8989
19:55:37:724,0.658,3.326,9.3559,48.6037,-0.2253,-0.2865,-0.25,176.2261
19:55:37:745,0.6174,3.1992,9.7579,50.3693,-0.0934,-0.306,-0.283,176.5983
19:55:37:764,0.6174,3.1131,9.6311,49.3301,0.0679,-0.2523,-0.2696,176.9182
19:55:37:783,0.4929,3.2136,9.5115,49.3085,0.1974,-0.1057,-0.2293,177.1639
19:55:37:799,-0.0814,3.7424,9.6407,49.4898,0.2475,0.1093,-0.1767,177.2829
19:55:37:820,-0.3159,4.2042,9.7555,48.9828,0.2072,0.2681,-0.09,177.2414
19:55:37:840,0.2297,4.1204,9.9446,49.8612,0.1277,0.3146,0.0089,177.0854
19:55:37:865,0.4211,4.0487,10.4614,50.4162,0.0361,0.2449,0.0053,176.9471
19:55:37:881,0.3422,3.9769,11.0429,49.7774,-0.0482,0.0715,-0.0766,176.9588
19:55:37:903,-0.1484,3.6897,11.3468,51.6521,-0.0775,-0.0678,-0.1645,177.0975
19:55:37:922,-1.3256,3.6538,11.3587,51.0571,-0.0189,-0.0397,-0.2195,177.3092
19:55:37:941,-2.4191,3.4361,10.2341,51.7834,0.1485,0.3305,-0.0253,177.4189
19:55:37:962,-1.7635,2.7422,10.404,50.4071,0.0886,0.306,0.1238,177.0444
19:55:37:983,-2.0291,2.2373,10.6528,50.5601,-0.0482,-0.0666,0.1507,176.8439
19:55:38:007,-2.9839,2.3378,10.4686,49.7774,-0.0885,-0.3586,0.1702,176.6934
19:55:38:024,-3.1848,2.1894,9.7053,49.8612,0.0605,-0.2193,0.3144,176.3503
19:55:38:105,-2.991,2.2947,8.7505,51.0708,0.2572,0.1839,0.505,175.6761
19:55:38:105,-2.1512,2.4431,8.3222,49.3956,0.3,0.4551,0.6357,174.7742
19:55:38:106,-1.2036,2.3952,8.5783,49.8739,0.1082,0.3439,0.6491,173.9228
19:55:38:106,-0.6987,2.3115,9.2937,49.0172,-0.2106,-0.0202,0.5453,173.2919
19:55:38:121,-0.481,2.0028,9.3129,51.0635,-0.4208,-0.306,0.4145,172.9125
19:55:38:141,-0.7035,1.541,8.8511,49.8904,-0.3951,-0.1692,0.3339,172.5824
19:55:38:162,-0.9404,1.3735,8.2935,51.3997,-0.2339,0.2376,0.3449,172.0947
19:55:38:181,-0.9571,1.6845,7.6905,51.6208,-0.0934,0.5565,0.4573,171.3634
19:55:38:202,-0.7083,2.1224,7.3531,52.5354,-0.0457,0.6615,0.5941,170.4506
19:55:38:223,-0.2847,2.4598,7.0899,49.8125,-0.0751,0.6335,0.6748,169.4888
19:55:38:242,-0.3302,2.8211,7.3412,51.5464,-0.1398,0.5504,0.665,168.5444
19:55:38:261,-0.4714,3.1657,7.9131,52.3275,-0.1984,0.3512,0.6051,167.733
19:55:38:281,-0.5934,3.216,8.4514,50.6595,-0.2021,0.0104,0.5135,167.1086
19:55:38:302,-0.7107,3.0652,8.7793,51.5445,-0.1349,-0.2401,0.4084,166.687
19:55:38:323,-0.7442,3.0341,8.9587,52.1374,-0.0054,-0.2364,0.384,166.2847
19:55:38:343,-0.6628,3.1561,9.2148,50.5086,0.1363,-0.1191,0.4011,165.82
19:55:38:365,-0.6676,3.5533,9.3799,49.9963,0.2316,-0.0825,0.4194,165.3323
19:55:38:384,-0.3183,3.6754,9.4445,51.3975,0.2682,-0.1154,0.4329,164.8573
19:55:38:402,0.3015,3.5079,10.1862,52.3875,0.1497,-0.2584,0.3107,164.2131
19:55:38:423,0.1938,3.5605,10.55,54.4636,0.0386,-0.3586,0.2276,164.0521
19:55:38:441,0.0933,3.3954,10.8203,52.9272,-0.0311,-0.3464,0.1836,163.92
19:55:38:462,-0.1053,3.4289,10.7701,51.746,-0.047,-0.2706,0.1678,163.7763
19:55:38:480,0.335,3.4289,10.9376,53.1478,-0.0677,-0.1753,0.1824,163.5939
19:55:38:501,1.2371,3.1872,11.0812,53.9628,-0.1642,-0.1753,0.158,163.4521
19:55:38:523,2.2229,2.4072,11.732,52.5292,-0.3695,-0.2816,0.0322,163.479
19:55:38:544,2.5699,1.4859,12.4642,52.5292,-0.6322,-0.5015,-0.1633,163.7952
19:55:38:561,2.01,1.0552,12.7226,52.5292,-0.78,-0.642,-0.3087,164.2932
19:55:38:580,1.0935,1.0241,12.189,52.5292,-0.6554,-0.3769,-0.2953,164.6793
19:55:38:601,0.938,0.9141,10.7581,52.5292,-0.3023,0.2058,-0.0949,164.6875
19:55:38:623,1.1055,1.0983,9.6598,53.0902,0.0459,0.7092,0.0908,164.3652
19:55:38:641,1.517,1.4501,9.0257,54.6678,0.1827,0.7849,0.1543,163.9653
19:55:38:662,1.7803,1.5314,8.5328,54.0711,0.1033,0.4673,0.0431,163.7802
19:55:38:682,1.3567,1.3639,8.4826,55.5419,-0.0628,0.1399,-0.2085,163.9412
19:55:38:702,0.6652,1.1988,8.2863,54.8794,-0.1972,0.0043,-0.4076,164.353
19:55:38:728,0.2153,1.0576,8.2505,55.6869,-0.251,0.0788,-0.4394,164.7611
19:55:38:763,0.0191,1.1749,8.1835,55.5378,-0.2241,0.1582,-0.3991,165.3876
19:55:38:773,0.0479,1.4548,7.9633,53.438,-0.1471,0.1716,-0.3282,165.5933
19:55:38:789,0.0311,2.2062,7.6235,56.7294,-0.0518,0.1887,-0.2733,165.7729
19:55:38:805,0.0502,2.5053,7.4584,56.3118,0.0398,0.2095,-0.2647,165.9624
19:55:38:820,0.4307,2.6895,7.3579,56.1659,0.1094,0.1545,-0.2537,166.1669
19:55:38:839,0.5264,3.0652,7.6714,54.9186,0.0483,0.1472,-0.2659,166.3812
19:55:38:859,0.658,3.3212,8.2648,55.1828,-0.0482,0.0776,-0.294,166.6819
19:55:38:878,1.1844,3.4529,8.9348,53.5579,-0.1166,-0.0947,-0.2916,166.995
19:55:38:898,2.0076,3.7567,9.655,57.5413,-0.0885,-0.3439,-0.2684,167.3859
19:55:38:924,2.1392,4.0989,9.8249,56.8804,0.0508,-0.5638,-0.3295,167.8623
19:55:38:941,1.2921,3.9865,10.0929,56.4844,0.234,-0.5076,-0.4712,168.4798
19:55:38:959,0.2608,3.8907,10.3179,55.6686,0.3122,-0.2413,-0.5665,169.1127
19:55:38:979,0.146,3.5629,10.6816,56.892,0.1974,0.0153,-0.4981,169.6046
19:55:39:000,0.5168,3.137,11.1769,57.1526,-0.0335,0.1386,-0.3453,169.9141
19:55:39:021,0.3517,3.1801,11.7368,57.8832,-0.1984,0.1496,-0.294,170.1689
19:55:39:042,-0.2082,2.9575,12.0862,55.9492,-0.1838,0.2229,-0.3319,170.4425
19:55:39:063,-1.3639,2.6871,11.8158,57.6538,-0.0311,0.3109,-0.3686,170.7156
19:55:39:080,-2.656,3.0532,11.0477,55.142,0.1668,0.4038,-0.3209,170.8912
19:55:39:106,-2.8594,3.3619,10.3585,57.264,0.3281,0.5455,-0.1328,170.8264
19:55:39:121,-1.7515,3.058,10.1886,55.9503,0.3379,0.5443,0.0285,170.6018
19:55:39:140,-0.5073,1.6965,10.471,59.0412,0.1546,0.1557,-0.024,170.5742
19:55:39:160,-1.4931,0.9117,10.9328,57.2157,-0.0934,-0.4588,-0.2745,170.9725
19:55:39:179,-3.0796,1.072,10.5595,56.3938,-0.1728,-0.7043,-0.3747,171.5254
19:55:39:200,-3.3835,0.9021,10.5691,56.1866,0.1118,-0.1765,-0.1438,171.6652
19:55:39:219,-3.5294,1.4261,8.9468,58.9876,0.763,0.6689,0.1397,171.269
19:55:39:239,-2.2014,1.584,7.4345,59.5425,0.9182,0.7043,0.3938,170.5737
19:55:39:259,-0.8471,1.9023,7.2335,58.5163,0.4784,0.1985,0.4793,169.975
19:55:39:279,-0.4666,1.9023,7.7862,59.7695,-0.0983,-0.3341,0.3034,169.7397
19:55:39:313,-0.6317,2.0722,7.8485,59.8831,-0.5454,-0.7324,0.0798,169.8542
19:55:39:320,-0.8112,1.2562,8.8893,57.6824,-0.637,-0.4087,-0.0497,170.2156
19:55:39:368,-0.8183,1.3232,8.5137,58.3861,-0.2388,-0.0483,0.0028,170.2036
19:55:39:368,-0.457,1.5529,7.7886,59.1845,0.223,0.2401,0.169,169.9417
19:55:39:383,-0.2058,2.0698,7.0995,59.3749,0.5444,0.3793,0.2411,169.563
19:55:39:400,-0.2273,2.4263,6.5181,58.8738,0.625,0.3891,0.1898,169.226
19:55:39:420,-0.3302,2.6297,6.3242,57.7947,0.4466,0.2987,0.0981,169.0011
19:55:39:442,-0.5216,2.7015,6.6353,57.5045,0.1143,0.1203,0.0431,168.889
19:55:39:458,-0.5647,2.6321,7.4536,56.8723,-0.218,-0.0666,0.0224,168.849
19:55:39:479,-0.5001,2.6871,8.6022,58.4094,-0.4269,-0.1985,0.0212,168.8608
19:55:39:501,-0.4738,2.8522,9.7388,56.5446,-0.4452,-0.2034,0.0175,168.8828
19:55:39:528,-0.1555,3.082,10.0786,57.3532,-0.2852,-0.0812,0.0346,168.8415
19:55:39:538,0.2393,3.0987,10.526,57.1846,-0.0396,0.1167,0.0346,168.767
19:55:39:559,0.5934,3.2973,11.4066,57.7527,0.1571,0.0873,-0.0912,168.8356
19:55:39:580,0.9284,3.1537,11.8158,56.502,0.2426,-0.2841,-0.3344,169.2743
19:55:39:601,0.8519,2.8331,12.2178,57.3532,0.2084,-0.6261,-0.6056,170.0861
19:55:39:624,0.1771,2.9408,12.2895,57.2479,0.107,-0.6823,-0.7656,171.0898
19:55:39:639,0.6102,2.8738,11.7751,55.7247,0.0276,-0.4417,-0.6887,171.9446
19:55:39:658,1.5266,2.7446,11.6507,55.8414,-0.0518,-0.1558,-0.5787,172.6052
19:55:39:678,2.2588,2.0411,12.012,56.8411,-0.2351,-0.146,-0.6642,173.3729
19:55:39:701,2.4837,1.5314,12.4164,55.7543,-0.5246,-0.4478,-0.8878,174.4578
19:55:39:723,2.3857,0.8686,12.5527,57.3759,-0.7519,-0.7385,-1.1114,175.8575
19:55:39:739,1.8473,0.3948,12.213,56.3221,-0.7861,-0.719,-1.2164,177.3649
19:55:39:759,1.3854,0.1747,11.5717,56.954,-0.6285,-0.4355,-1.1065,178.6634
19:55:39:781,1.7659,0.481,9.7723,54.6889,-0.0103,0.1716,-0.5078,180.0972
19:55:39:801,2.1846,0.9906,8.7482,56.1535,0.2853,0.3353,-0.3111,180.3762
19:55:39:827,2.1344,1.2347,7.6235,56.0528,0.4613,0.5137,-0.3417,180.6277
19:55:39:851,1.5888,1.3998,6.3673,55.7996,0.4698,0.6176,-0.4968,181.0188
19:55:39:868,0.7872,1.6965,5.6327,56.6653,0.3147,0.6188,-0.6593,181.5658
19:55:39:878,0.012,1.8305,5.3312,57.6606,0.063,0.521,-0.7571,182.2072
19:55:39:900,-0.1986,1.8161,5.3527,56.5145,-0.1911,0.306,-0.7595,182.9311
19:55:39:925,-0.3661,1.9334,5.5777,56.5564,-0.3768,0.0898,-0.696,183.6351
19:55:39:939,-0.5121,2.1272,5.7882,55.8299,-0.4587,0.0006,-0.6007,184.2631
19:55:39:958,-0.3302,2.254,6.5851,56.0495,-0.4562,0.0751,-0.5127,184.7878
19:55:39:980,-0.2177,2.3282,7.3819,55.9877,-0.4367,0.0641,-0.4895,185.2897
19:55:40:012,-0.1268,2.1823,7.8508,55.8109,-0.4025,-0.1216,-0.5286,185.8852
19:55:40:020,0.0383,1.9645,8.8678,55.0317,-0.3512,-0.2327,-0.5946,186.5685
19:55:40:044,-0.347,2.2181,9.9876,53.1475,-0.2974,-0.3403,-0.6532,187.3461
19:55:40:060,-0.6652,2.3234,10.4973,54.3751,-0.2241,-0.4246,-0.6496,188.1267
19:55:40:079,-0.7633,2.412,10.5715,55.1648,-0.1154,-0.3366,-0.5591,188.8205
19:55:40:101,-1.0146,2.7661,10.7749,53.9897,-0.0237,0.0043,-0.4211,189.2954
19:55:40:129,-0.7537,2.9791,10.9113,51.6359,0.0031,0.273,-0.2232,189.5091
19:55:40:205,-0.012,2.9336,11.3874,51.1135,-0.0152,0.2633,-0.0314,189.5037
19:55:40:206,0.1866,3.3236,12.0215,52.055,-0.047,0.1399,-0.0008,189.4922
19:55:40:207,-0.993,2.8427,11.6339,50.6039,-0.0262,0.2999,-0.2195,189.5938
19:55:40:207,-1.7061,2.5866,11.6961,48.9287,-0.0983,0.4404,-0.3075,189.7771
19:55:40:224,-1.4859,2.1775,12.4594,51.192,-0.2681,0.3195,-0.3405,190.0293
19:55:40:239,-0.5312,0.8183,14.1272,49.4802,-0.4868,-0.0947,-0.4138,190.823
19:55:40:261,-0.8638,0.0455,15.1537,49.7475,-0.648,-0.7654,-0.6569,191.668
19:55:40:279,-2.0315,-0.2584,14.3833,50.3233,-0.5246,-1.0965,-0.8401,192.7207
19:55:40:299,-2.7876,-0.5599,12.1149,50.1244,-0.047,-0.6897,-0.6715,193.511
19:55:40:318,-2.8235,-0.5192,10.2604,48.6743,0.493,0.0275,-0.2586,193.7443
19:55:40:340,-2.479,0.0766,9.2124,50.0737,0.7936,0.4282,0.1165,193.5148
19:55:40:359,-1.7994,0.7466,8.5137,48.5725,0.7496,0.2523,0.3364,193.1023
19:55:40:379,-0.67,0.8925,8.205,51.0694,0.4833,-0.1093,0.3889,192.7122
19:55:40:399,0.2489,0.5767,7.602,48.7261,0.2218,-0.3024,0.2777,192.4766
19:55:40:419,-0.0407,0.4953,7.4776,48.6918,0.0361,-0.1057,0.026,192.4807
19:55:40:441,-0.859,0.6245,7.3699,47.6753,-0.1398,0.1741,-0.1963,192.6597
19:55:40:459,-1.2108,0.67,7.078,50.3358,-0.2888,0.3561,-0.2488,192.8538
19:55:40:481,-1.2849,0.7202,6.8818,49.3945,-0.3805,0.5968,-0.2012,192.9631
19:55:40:501,-1.2036,0.8758,7.0517,48.2356,-0.4367,0.8204,-0.1193,192.9524
19:55:40:521,-1.3185,1.407,7.3125,48.4156,-0.4819,0.8424,-0.024,192.8473
19:55:40:540,-1.3352,1.7803,7.6403,48.1287,-0.4794,0.7178,0.0603,192.6828
19:55:40:559,-1.139,1.7372,8.0806,48.9003,-0.3646,0.4783,0.0859,192.5414
19:55:40:580,-1.084,1.6343,8.5567,46.2234,-0.1581,0.2217,-0.0094,192.5326
19:55:40:600,-1.5123,1.8018,8.6955,47.6015,0.0544,0.0543,-0.1584,192.7
19:55:40:621,-1.6391,1.8161,8.7984,44.5517,0.1974,0.0275,-0.1975,192.9159
19:55:40:640,-1.8736,1.7276,8.9707,46.2954,0.234,0.0507,-0.1657,193.0844
19:55:40:658,-2.0865,1.8903,9.533,44.4723,0.1656,0.0141,-0.1169,193.2145
19:55:40:686,-0.8566,1.6415,11.3492,46.162,-0.0421,-0.2156,0.0126,193.318
19:55:40:700,-0.2417,1.2849,12.189,44.9083,-0.0958,-0.3635,-0.0179,193.4321
19:55:40:721,-0.3565,1.2945,12.4977,45.0506,-0.1142,-0.3928,-0.1291,193.6619
19:55:40:746,-0.402,1.2778,11.8995,44.1834,-0.0885,-0.3598,-0.1597,193.9115
19:55:40:760,-0.067,1.1581,11.3946,43.9475,-0.0567,-0.2205,-0.1022,194.1118
19:55:40:784,0.5791,1.3041,11.1769,44.1404,-0.0702,-0.1631,-0.0949,194.3057
19:55:40:801,1.3519,1.2562,11.2774,43.6346,-0.0934,-0.2608,-0.2464,194.6716
19:55:40:819,1.6391,0.615,11.6818,44.8563,-0.1215,-0.4392,-0.5946,195.4547
19:55:40:839,1.0026,-0.1723,11.6052,43.0233,-0.1496,-0.7068,-0.9758,196.651
19:55:40:858,0.2273,-1.1533,11.3659,43.6387,-0.1325,-0.8265,-1.1444,198.0387
19:55:40:880,-0.256,-1.1342,11.1553,44.6133,-0.0848,-0.7691,-1.0588,199.2794
19:55:40:898,-0.0957,-1.1222,10.739,44.8361,-0.0262,-0.5528,-0.8181,200.2655
19:55:40:919,0.6389,-1.0026,10.1145,42.5171,0.0105,-0.2718,-0.5787,200.9543
19:55:40:939,1.2251,-0.7083,9.6096,43.2157,-0.0213,-0.0214,-0.5005,201.5637
19:55:40:959,1.2203,-0.4618,9.0353,42.4913,-0.1166,0.1875,-0.586,202.2382
19:55:40:983,0.5049,-0.323,8.4323,44.1489,-0.24,0.2828,-0.7363,203.0603
19:55:41:000,-0.2943,-0.2058,7.9035,44.7151,-0.3206,0.2743,-0.8279,203.9711
19:55:41:019,-0.9093,-0.1077,7.3364,45.6101,-0.3035,0.218,-0.8023,204.8523
19:55:41:040,-1.1366,-0.0526,6.9966,44.6443,-0.2168,0.1985,-0.6911,205.6135
19:55:41:060,-1.4692,0.134,7.3675,44.1398,-0.1545,0.3586,-0.6166,206.2865
19:55:41:084,-1.9238,0.7131,7.8269,44.4971,-0.1972,0.5895,-0.6105,206.9438
19:55:41:102,-1.5912,0.9332,8.2505,44.3496,-0.3304,0.7483,-0.5616,207.5592
19:55:41:119,-1.1486,1.1701,8.8367,45.3767,-0.4758,0.7104,-0.4687,208.0909
19:55:41:141,-0.6293,1.5793,10.2963,44.8097,-0.3646,0.2681,-0.338,208.9356
19:55:41:162,-0.4259,1.5793,10.5117,43.3231,-0.0775,0.0141,-0.404,209.4332
19:55:41:184,-0.402,1.4357,10.5595,46.3321,0.2194,-0.1167,-0.5384,210.0985
19:55:41:200,-0.6556,1.4189,10.4207,45.3767,0.41,-0.1093,-0.6508,210.8645
19:55:41:220,-0.9284,1.5697,10.4136,44.5097,0.4613,-0.0275,-0.6679,211.6556
19:55:41:239,-0.9547,1.6606,10.4255,43.603,0.4405,0.0727,-0.5982,212.3769
19:55:41:259,-0.8207,1.6128,10.4566,45.5644,0.4173,0.2046,-0.5249,212.9949
19:55:41:280,-1.0528,1.6869,10.6696,43.9627,0.3428,0.3048,-0.4736,213.5442
19:55:41:305,-1.3663,1.797,10.9567,43.3339,0.2365,0.2339,-0.4223,214.0629
19:55:41:350,-1.7372,1.7157,10.9448,45.0226,0.1766,0.1753,-0.4418,214.6159
19:55:41:352,-2.3282,1.6199,10.4518,44.4522,0.1534,0.2058,-0.4932,215.2017
19:55:41:360,-2.8546,1.5745,10.1695,44.3815,0.1021,0.2303,-0.4846,215.7602
19:55:41:381,-2.6584,0.9021,10.8515,42.0779,-0.0005,0.1509,-0.4076,216.2411
19:55:41:401,-2.2875,-0.5384,12.3159,45.501,-0.119,-0.1802,-0.3551,216.6872
19:55:41:419,-2.4646,-0.5719,13.6965,44.4263,-0.2046,-0.6493,-0.4443,217.2484
19:55:41:438,-2.6584,-0.3111,13.3041,44.2099,-0.0152,-1.0941,-0.5225,217.9073
19:55:41:459,-2.6488,-0.7561,11.2893,45.4851,0.5737,-1.0134,-0.4186,218.4387
19:55:41:482,-2.4526,-0.8614,10.1192,45.5641,1.0526,-0.1851,-0.1804,218.6438
19:55:41:500,-1.998,0.0622,8.2576,45.708,1.0636,0.1325,-0.0656,218.7378
19:55:41:519,-1.4165,0.6054,7.9226,44.7969,0.9304,-0.0421,0.0089,218.7581
19:55:41:539,-1.1342,0.8231,8.2313,47.128,0.6091,-0.08,-0.0277,218.861
19:55:41:559,-0.7849,0.5815,8.5089,46.4399,0.3037,-0.1252,-0.1413,219.0748
19:55:41:583,-0.7226,0.189,8.138,47.0364,0.1681,-0.0128,-0.2464,219.4005
19:55:41:602,-1.4716,0.3087,7.8365,47.6975,0.2133,0.3647,-0.305,219.7492
19:55:41:619,-1.584,0.7418,7.8628,46.1711,0.2499,0.2364,-0.2439,220.0018
19:55:41:640,-1.2395,0.9284,7.7145,47.534,0.3049,0.0214,-0.1657,220.4771
19:55:41:663,-1.2706,1.3472,7.5685,44.9846,0.3794,-0.0458,-0.1218,220.6657
19:55:41:681,-1.5864,1.8544,7.523,44.8301,0.4283,0.0128,-0.0961,220.8015
19:55:41:700,-1.8951,2.0578,7.4991,46.3321,0.4222,0.0641,-0.0521,220.8714
19:55:41:721,-2.1775,2.1751,7.5494,46.9492,0.3195,-0.0079,-0.0314,220.9478
19:55:41:753,-2.3952,2.2756,7.8939,45.2462,0.1497,-0.0922,-0.0375,221.035
19:55:41:764,-2.345,2.3833,8.3007,46.8909,-0.0115,-0.1008,-0.057,221.1547
19:55:41:780,-2.3186,2.4335,8.7218,45.5644,-0.0885,-0.0226,-0.079,221.2799
19:55:41:801,-2.0267,2.2947,9.3918,45.3428,-0.0677,0.0141,-0.0534,221.3908
19:55:41:818,-1.5601,2.1918,10.148,48.1456,-0.0213,-0.1252,-0.0069,221.4454
19:55:41:838,-0.7705,1.9334,11.1553,48.4029,-0.0189,-0.4319,-0.0081,221.6073
19:55:41:858,-0.0814,1.6917,12.0263,46.0621,-0.0592,-0.7251,-0.0961,221.9166
19:55:41:881,0.0287,1.6128,12.2082,47.7347,-0.0689,-0.6921,-0.1975,222.3347
19:55:41:901,0.0502,1.5745,11.72,46.8335,-0.0384,-0.3561,-0.1902,222.6637
19:55:41:918,0.3781,1.919,11.208,47.2877,-0.0592,-0.0373,-0.0582,222.8037
19:55:41:938,1.7085,2.0028,11.3922,48.2942,-0.1838,0.0947,0.1006,222.7934
19:55:41:960,3.4576,1.5673,12.3254,47.8645,-0.3597,0.0568,0.1103,222.8197
19:55:41:981,3.8548,1.048,13.1677,48.1903,-0.4587,-0.1277,-0.2085,223.1971
19:55:42:000,2.5364,0.5623,13.4237,47.1811,-0.367,-0.3256,-0.7656,224.1653
19:55:42:019,1.1222,0.0455,12.6868,47.502,-0.1068,-0.4905,-1.1737,225.5594
19:55:42:039,0.5815,-0.1747,11.7775,46.9051,0.1949,-0.4746,-1.2409,227.0042
19:55:42:059,0.7729,-0.4594,10.2341,47.3903,0.5346,-0.2511,-1.0234,228.315
19:55:42:083,0.9356,-0.6221,9.4277,47.1003,0.5602,-0.1973,-0.9977,230.5886
19:55:42:103,0.4451,-0.457,8.5017,46.1833,0.5517,-0.1179,-1.0234,231.7248
19:55:42:122,-0.1914,-0.2847,7.5517,47.6497,0.5199,-0.0605,-1.0576,232.8721
19:55:42:138,-0.9141,-0.0766,6.8842,47.3215,0.4662,-0.0874,-1.071,234.0283
19:55:42:159,-1.3567,0.2871,6.5037,47.3424,0.3794,-0.2083,-1.0075,235.1562
19:55:42:181,-1.2491,0.8016,6.597,47.0731,0.2658,-0.3207,-0.8353,236.1274
19:55:42:199,-0.7681,1.2443,6.7956,46.2909,0.1424,-0.3109,-0.619,236.8982
19:55:42:280,-0.2153,1.6654,6.9607,47.1909,0.0349,-0.1827,-0.4541,237.4825
19:55:42:281,0.469,2.1679,7.3412,47.6233,-0.0934,-0.0458,-0.3808,237.9948
19:55:42:281,0.9595,2.4718,7.9442,46.5389,-0.2351,0.0446,-0.3979,238.5136
19:55:42:282,0.8303,2.7087,8.8893,45.8776,-0.3597,0.0434,-0.5225,239.1597
19:55:42:298,0.2728,2.7206,9.8489,45.7423,-0.4037,-0.0776,-0.7009,240.0066
19:55:42:319,-0.1603,2.3019,10.2796,45.9083,-0.2937,-0.2889,-0.834,241.0191
19:55:42:339,-0.5886,2.1176,10.0235,45.8776,-0.0811,-0.4991,-0.8646,242.067
19:55:42:366,-1.2395,2.4359,9.6909,43.6349,0.0801,-0.4612,-0.7998,243.049
19:55:42:382,-1.9765,2.747,9.7101,46.7932,0.096,-0.1533,-0.6703,243.8564
19:55:42:399,-2.4981,3.0987,10.191,46.6612,0.0422,0.1069,-0.4883,244.4033
19:55:42:418,-2.2205,3.0508,10.9017,45.8672,0.0019,0.1069,-0.3111,244.7516
19:55:42:438,-1.5386,2.8259,11.7464,46.1357,-0.014,-0.0421,-0.2244,245.0414
19:55:42:461,-1.5601,2.8666,12.2536,44.6838,0.0361,-0.0703,-0.2293,245.3345
19:55:42:482,-2.0554,2.9623,11.9976,45.0796,0.1436,0.0128,-0.2354,245.607
19:55:42:498,-2.4359,2.7278,11.0692,44.3177,0.2487,0.1716,-0.1609,245.7638
19:55:42:519,-2.6752,2.2493,10.1839,44.1758,0.2035,0.1399,-0.0472,245.79
19:55:42:540,-2.3115,1.3807,11.1434,43.3306,-0.0042,-0.1301,-0.0436,245.8493
19:55:42:564,-2.1846,0.7537,12.3517,44.9669,-0.1386,-0.4588,-0.0411,245.9164
19:55:42:581,-2.3593,0.6843,12.2656,43.5136,0.0166,-0.6029,0.0676,245.9108
19:55:42:599,-2.2756,0.9117,10.9376,44.339,0.4185,-0.3964,0.307,245.6125
19:55:42:618,-1.6558,1.2634,9.4516,43.3306,0.7789,-0.1301,0.5734,244.9865
19:55:42:638,-0.469,1.261,8.1045,43.3545,0.9023,-0.0043,0.7224,244.2156
19:55:42:660,0.4929,1.1079,7.4465,43.3982,0.7362,-0.0104,0.6393,243.5517
19:55:42:679,0.6437,1.072,8.1954,42.5001,0.3257,-0.1106,0.3694,243.1926
19:55:42:698,0.4905,0.8327,9.9111,42.4339,-0.086,-0.2181,0.1006,243.1165
19:55:42:721,0.0838,0.5958,10.5117,43.2428,-0.1447,-0.2046,-0.0375,243.1754
19:55:42:739,-0.39,0.5695,9.5952,41.8548,0.1253,-0.0849,-0.0485,243.205
19:55:42:763,-0.2608,0.6461,7.9657,41.4874,0.4124,0.0458,0.0712,243.0791
19:55:42:782,-0.0742,0.9667,6.6855,42.0961,0.5101,0.1252,0.202,242.7976
19:55:42:797,-0.0239,1.4764,6.1352,41.9839,0.4173,0.1362,0.2643,242.4592
19:55:42:817,-0.134,2.0028,6.1687,41.9714,0.2499,0.0885,0.2741,242.1591
19:55:42:839,-0.0766,2.4814,6.3458,41.5907,0.1009,-0.0189,0.2374,241.9338
19:55:42:864,-0.1053,2.7972,6.6736,39.8554,-0.0201,-0.1313,0.1507,241.8484
19:55:42:880,-0.0287,2.8953,7.133,41.6254,-0.1606,-0.2156,0.0676,241.8552
19:55:42:899,0.1149,2.9599,7.9753,41.6343,-0.3047,-0.2034,0.0212,241.8904
19:55:42:918,-0.1627,3.1585,8.8702,41.9714,-0.3927,-0.1216,-0.0094,241.9791
19:55:42:939,-0.7011,3.4193,9.5545,41.9714,-0.3683,-0.0715,-0.0228,242.0359
19:55:42:958,-0.7035,3.5821,9.923,42.2182,-0.2632,-0.1203,0.0346,242.0112
19:55:42:979,0.3996,3.4983,10.5858,41.7241,-0.0897,-0.2645,0.1055,242.0094
19:55:42:999,0.3159,3.594,11.3659,41.3548,-0.1386,-0.2889,-0.0179,242.1349
19:55:43:020,0.1603,3.4241,12.4092,39.7381,-0.1948,-0.3244,-0.1633,242.3705
19:55:43:038,0.2393,3.2423,12.8734,40.9763,-0.141,-0.4368,-0.25,242.7309
19:55:43:057,0.8064,3.07,13.2275,41.2457,-0.0811,-0.5357,-0.272,243.1272
19:55:43:082,1.7707,2.723,13.8114,38.1167,-0.1545,-0.5064,-0.2879,243.5385
19:55:43:100,2.5412,2.1703,14.6393,39.0947,-0.2607,-0.2718,-0.4101,243.989
19:55:43:120,2.3641,1.6534,14.5268,38.5022,-0.2424,0.0531,-0.6557,244.568
19:55:43:138,1.8616,1.0504,14.1775,40.4807,-0.1422,0.2474,-0.8438,245.2911
19:55:43:157,1.1605,0.8997,13.2467,40.2529,0.0679,0.3647,-0.823,245.9814
19:55:43:178,1.2562,0.7059,11.787,38.4529,0.3916,0.4465,-0.5811,246.3636
19:55:43:199,1.943,0.6532,9.9278,38.5916,0.7496,0.5467,-0.2818,246.4332
19:55:43:217,2.5244,0.7011,7.9848,41.1298,0.9756,0.5736,-0.1279,246.3366
19:55:43:237,2.4215,1.1318,6.8148,40.0194,0.9158,0.4746,-0.1621,246.343
19:55:43:257,2.1224,1.3591,6.3123,40.1541,0.7007,0.328,-0.2989,246.5026
19:55:43:281,1.4883,1.4357,6.0299,39.6917,0.5077,0.1948,-0.4919,246.8756
19:55:43:298,0.7107,1.4309,5.8744,37.7342,0.3819,0.0373,-0.6703,247.4896
19:55:43:318,0.0335,1.5577,5.7236,38.9364,0.2939,-0.135,-0.7717,248.2862
19:55:43:337,-0.4594,1.6965,5.2642,38.9198,0.2157,-0.2413,-0.7729,249.1048
19:55:43:359,-0.8016,2.0554,4.9795,38.8005,0.0276,-0.1875,-0.7375,249.8685
19:55:43:380,-1.0696,2.3713,5.4461,38.7229,-0.3304,0.1167,-0.7241,250.5331
19:55:43:400,-1.2945,2.5149,6.786,38.8366,-0.7323,0.5394,-0.751,251.0986
19:55:43:421,-1.5482,2.5914,8.4419,39.3864,-0.9767,0.7446,-0.7949,251.6604
19:55:43:442,-1.407,2.8881,10.8203,38.0262,-0.6712,0.2938,-0.74,252.9679
19:55:43:465,-1.8401,3.0939,10.8419,39.4092,-0.273,-0.0654,-0.7106,253.6826
19:55:43:499,-2.2397,3.0508,10.4184,38.2858,0.0654,-0.3195,-0.6777,254.4499
19:55:43:500,-2.4981,3.2447,9.8608,36.6442,0.2206,-0.4087,-0.5762,255.1298
19:55:43:519,-2.8786,3.7783,9.8943,39.1034,0.1766,-0.2254,-0.3808,255.5614
19:55:43:539,-2.7135,4.3334,10.6194,36.6748,0.0471,0.1509,-0.0876,255.5968
19:55:43:556,-1.6463,4.3573,11.4066,38.8439,0.0117,0.3989,0.1898,255.25
19:55:43:576,-0.7489,4.2856,11.8421,38.918,0.1094,0.3976,0.2484,254.843
19:55:43:599,-0.7083,3.9793,11.9187,38.3198,0.2646,0.317,0.0822,254.5956
19:55:43:618,-1.5314,3.326,11.4832,37.3963,0.4405,0.2229,-0.1474,254.6209
19:55:43:636,-2.8929,3.0891,10.4566,38.6113,0.5969,0.0727,-0.2867,254.8162
19:55:43:657,-3.8979,3.3523,9.5617,36.549,0.6543,-0.0446,-0.2061,254.9426
19:55:43:678,-3.5294,3.472,8.918,37.5641,0.5553,-0.0263,0.0309,254.8327
19:55:43:696,-2.0602,2.7685,9.7962,37.2149,0.2206,-0.0336,0.1861,254.5506
19:55:43:716,-1.2849,1.8592,11.129,38.6884,-0.1312,-0.267,0.1091,254.3421
19:55:43:736,-1.9262,1.5577,11.5765,36.0587,-0.2021,-0.4832,-0.0729,254.3933
19:55:43:757,-2.8283,1.5051,10.8634,37.5583,0.0239,-0.4136,-0.1193,254.4562
19:55:43:776,-3.1729,1.3376,9.6263,37.0071,0.3709,-0.0519,0.0334,254.2094
19:55:43:797,-2.936,1.517,8.4275,36.2088,0.5517,0.2401,0.2631,253.6764
19:55:43:816,-2.2636,1.8568,8.0614,38.008,0.4466,0.2791,0.461,252.9464
19:55:43:836,-1.5936,1.9621,8.083,38.5407,0.234,0.1863,0.5795,252.136
19:55:43:856,-1.541,2.0602,7.7695,38.0051,0.107,0.1704,0.5722,251.2968
19:55:43:879,-1.8138,2.0674,6.9631,38.0888,0.085,0.3024,0.5025,249.6474
19:55:43:901,-1.8927,1.7061,4.8192,36.6813,-0.0518,0.8876,0.5184,248.7626
19:55:43:917,-1.6439,1.8018,4.4578,35.6614,-0.367,1.1478,0.5551,247.6219
19:55:43:936,-1.5816,2.12,5.7476,36.7157,-0.8716,1.171,0.5709,246.5084
19:55:43:957,-1.2993,2.3785,7.87,36.6547,-1.2797,0.8607,0.5905,245.4747
19:55:43:979,-1.3041,2.6058,9.9374,36.2113,-1.287,0.4001,0.5575,244.6483
19:55:43:996,-1.6367,2.6871,10.6911,37.2439,-0.8521,-0.0079,0.4427,244.0575
19:55:44:016,-2.0459,2.5412,9.9135,36.974,-0.1618,-0.1936,0.2814,243.6796
19:55:44:036,-2.7278,2.5795,8.8965,35.8913,0.4075,-0.2889,0.1262,243.4664
19:55:44:057,-2.9264,2.6058,8.1739,36.2731,0.636,-0.4588,0.0883,243.3667
19:55:44:081,-2.5388,2.601,7.4943,35.6087,0.5883,-0.5516,0.1775,243.2114
19:55:44:100,-2.132,2.7159,7.1737,35.526,0.4075,-0.3378,0.3009,242.8448
19:55:44:121,-1.6032,2.5484,7.5278,35.0808,0.1632,-0.0104,0.3608,242.3504
19:55:44:138,-1.5123,2.5842,8.7123,37.1635,-0.1178,0.102,0.3009,241.8647
19:55:44:160,-1.4237,2.4503,10.2365,35.8972,-0.3683,-0.069,0.18,241.5229
19:55:44:177,-1.6008,2.479,11.4688,37.0575,-0.5173,-0.2706,0.0688,241.344
19:55:44:197,-1.5194,2.3785,12.1268,35.0808,-0.5686,-0.3586,0.0224,241.2693
19:55:44:219,-0.6939,1.9478,12.4092,36.4668,-0.5601,-0.3745,0.0456,241.1695
19:55:44:237,-0.0861,1.6558,12.9212,36.1844,-0.5821,-0.4246,0.0309,241.0846
19:55:44:257,0.3733,1.4859,14.0722,36.9427,-0.6639,-0.5602,-0.0155,241.0704
19:55:44:278,0.8375,1.206,14.7422,36.3076,-0.6676,-0.6921,-0.0497,241.0669
19:55:44:404,1.0911,1.1605,13.9861,37.6805,-0.4428,-0.5565,-0.0558,241.0692
19:55:44:405,0.8901,1.3113,12.1412,35.9118,-0.0555,-0.0922,0.0248,240.8916
19:55:44:405,1.017,1.5362,10.0235,36.7601,0.2731,0.2914,0.1568,240.5167
19:55:44:405,1.4142,1.4692,7.9657,36.1844,0.3293,0.1533,0.0224,240.0889
19:55:44:405,0.8853,1.3854,8.0853,36.1807,0.1449,-0.1044,-0.2513,240.0645
19:55:44:406,0.2201,1.1103,8.2983,35.8776,-0.0054,-0.1961,-0.4602,240.6056
19:55:44:417,-0.3183,1.0504,8.4443,36.8063,-0.0702,-0.1924,-0.5274,241.0361
19:55:44:437,-0.5121,1.2706,8.4706,36.5785,-0.0567,-0.2083,-0.4956,241.4685
19:55:44:461,-0.524,1.4596,8.2792,35.0808,0.0251,-0.2437,-0.4394,241.8254
19:55:44:482,-0.591,1.7659,8.1667,36.9625,0.1424,-0.2902,-0.4064,242.1941
19:55:44:499,-0.2967,2.0602,7.7312,36.6517,0.2792,-0.3219,-0.3637,242.5232
19:55:44:518,-0.2106,2.4646,7.6044,36.5401,0.3428,-0.2914,-0.3686,242.8619
19:55:44:538,-0.2871,2.601,7.8197,34.5161,0.256,-0.2633,-0.4248,243.2728
19:55:44:558,-0.3302,2.6608,8.1619,36.2136,0.1693,-0.2547,-0.437,243.7325
19:55:44:577,-0.4618,2.8331,8.1667,35.3385,0.2035,-0.2376,-0.3991,244.116
19:55:44:598,-0.7059,3.204,8.0231,35.9548,0.3403,-0.1827,-0.3221,244.4086
19:55:44:620,-0.6102,3.4959,7.6523,35.1942,0.482,-0.1313,-0.2195,244.564
19:55:44:638,-0.1555,3.4289,7.188,34.9887,0.5834,-0.0849,-0.1205,244.6064
19:55:44:658,-0.4331,3.6921,7.1665,35.7636,0.5749,-0.0825,-0.0888,244.6652
19:55:44:679,-0.5145,4.1013,7.6523,35.5058,0.3012,-0.1668,-0.1205,244.777
19:55:44:698,-0.7322,4.4124,9.277,36.4909,-0.1728,-0.091,-0.1389,244.8578
19:55:44:718,-0.7681,4.2473,11.4114,35.9982,-0.5381,0.2767,-0.1218,244.7958
19:55:44:739,-0.4403,4.0487,13.0002,37.4915,-0.5918,0.5174,-0.0863,244.6411
19:55:44:759,0.055,3.7998,13.9334,36.3788,-0.4208,0.405,-0.0851,244.5179
19:55:44:783,-0.4929,3.5773,13.5888,36.4205,-0.1093,0.2437,-0.1645,244.5154
19:55:44:799,-2.0794,3.5462,12.67,36.51,0.2316,0.2168,-0.2794,244.5991
19:55:44:820,-3.3045,2.8546,10.2413,37.8306,0.5663,0.2327,-0.1425,244.6637
19:55:44:838,-2.5029,2.1583,10.7797,36.2393,0.3122,-0.0837,-0.0326,244.4766
19:55:44:857,-2.3545,1.3567,11.8732,35.0048,-0.0176,-0.4588,-0.0045,244.3745
19:55:44:881,-2.6919,1.2491,11.8564,35.561,-0.0934,-0.4869,0.0431,244.2365
19:55:44:898,-2.7589,1.5338,9.7962,37.0646,0.1534,-0.0006,0.2521,243.732
19:55:44:916,-2.5196,1.6032,7.7312,37.0079,0.3892,0.6322,0.5514,242.7261
19:55:44:937,-1.4261,1.5362,7.4154,34.449,0.41,1.0281,0.698,241.5013
19:55:44:957,-1.6726,1.5912,7.1976,36.1812,0.2352,0.8534,0.5954,240.424
19:55:44:987,-1.7109,1.5769,7.8748,34.3964,-0.1264,0.0678,0.4329,239.7858
19:55:44:998,-1.0265,1.3304,9.4349,37.3966,-0.3622,-0.438,0.3425,239.4103
19:55:45:017,-1.1103,1.3185,10.1623,36.838,-0.3878,-0.5993,0.2899,239.1412
19:55:45:037,-1.0552,1.3974,9.6694,35.8189,-0.262,-0.372,0.3864,238.6441
19:55:45:057,-1.06,1.7779,8.7888,35.6535,-0.0848,-0.0092,0.5086,237.9729
19:55:45:079,-0.9236,2.2445,7.5159,36.0525,0.1644,0.3696,0.5612,237.1177
19:55:45:099,-0.9571,2.7972,6.2261,34.2129,0.3134,0.6408,0.483,236.3085
19:55:45:117,-0.9667,2.8666,6.2261,33.4686,0.1387,0.543,0.3449,235.6599
19:55:45:137,-1.1605,2.9408,7.2215,35.3111,-0.1459,0.2779,0.2533,235.2018
19:55:45:156,-1.2634,3.0939,7.8652,34.0249,-0.2913,0.1423,0.1836,234.8491
19:55:45:178,-1.3448,3.0293,8.3797,33.8825,-0.3524,0.1545,0.1042,234.6159
19:55:45:197,-2.0722,3.204,9.5043,33.602,-0.4184,0.1374,0.0309,234.4342
19:55:45:217,-2.3785,2.9982,10.4542,33.6699,-0.3817,0.0605,0.0529,234.2325
19:55:45:238,-2.2086,3.015,10.0953,34.935,-0.0262,0.1484,0.1665,233.8691
19:55:45:257,-2.0889,3.3978,9.0305,33.2833,0.3428,0.3634,0.2704,233.3344
19:55:45:277,-1.7898,3.3739,9.3607,33.8825,0.2695,0.284,0.3437,232.7106
19:55:45:299,-1.139,3.2303,9.8848,33.0264,0.1265,0.0251,0.3217,232.2579
19:55:45:317,-0.8519,3.1753,11.0094,33.3575,-0.0299,0.0141,0.2643,231.4427
19:55:45:339,-1.194,3.2016,11.653,32.7824,-0.0897,0.212,0.1946,231.0546
19:55:45:361,-1.3017,3.527,10.8467,32.2883,0.0386,0.2535,0.1592,230.6953
19:55:45:378,-0.7537,3.3571,10.2437,32.1416,0.0569,-0.0238,0.136,230.4887
19:55:45:400,-0.2489,2.3521,10.8251,31.6892,-0.1691,-0.3683,0.0383,230.4567
19:55:45:418,-0.7609,1.2443,13.4907,33.0562,-0.5393,-0.4319,-0.1108,230.5562
19:55:45:437,-1.7444,0.8925,15.7352,31.957,-0.6957,-0.2645,-0.1706,230.6196
19:55:45:457,-1.6654,1.0002,13.8449,33.7284,-0.2852,0.1997,-0.0362,230.4189
19:55:45:481,-0.9739,1.2132,9.9302,31.4826,0.3318,0.9083,0.1543,229.8675
19:55:45:499,-0.7011,1.6391,7.3723,31.3073,0.548,1.1869,0.18,229.2004
19:55:45:517,-0.9834,1.8138,6.2405,31.2768,0.4002,0.8033,0.0725,228.7758
19:55:45:537,-1.3352,1.7276,6.9368,32.0401,0.052,0.0873,-0.0387,228.694
19:55:45:563,-1.2227,1.5314,7.9178,31.8018,-0.2571,-0.3024,-0.0558,228.7297
19:55:45:578,-0.9356,1.5864,8.4634,34.1098,-0.3658,-0.1936,-0.0314,228.7343
19:55:45:596,-0.8375,1.7348,8.7386,30.057,-0.3328,0.0482,-0.0375,228.6829
19:55:45:617,-1.0098,1.943,8.4443,30.5005,-0.2009,0.0922,-0.0912,228.6879
19:55:45:635,-1.3065,2.01,7.7791,30.1178,-0.0604,-0.0898,-0.1645,228.8156
19:55:45:655,-1.7492,2.1799,7.4034,29.3496,-0.0189,-0.2462,-0.2012,228.9904
19:55:45:675,-1.8544,2.4503,7.2718,31.107,-0.0531,-0.2083,-0.1609,229.1334
19:55:45:696,-1.4692,2.7206,7.3149,30.4386,-0.1007,-0.0165,-0.0888,229.1347
19:55:45:718,-1.6152,3.1202,7.8891,29.3953,-0.1374,0.1753,-0.0937,229.0971
19:55:45:737,-1.7755,3.1801,8.016,30.5434,-0.0775,0.0165,-0.0937,229.1689
19:55:45:758,-1.7085,3.192,8.2911,28.3744,-0.0152,-0.1338,-0.0534,229.1954
19:55:45:779,-1.5458,3.1154,8.528,30.8494,0.0019,-0.1668,-0.0033,229.1951
19:55:45:799,-1.7468,3.1059,8.997,28.9102,-0.0225,-0.1167,0.026,229.1423
19:55:45:818,-2.2732,3.1202,9.6072,27.2822,-0.0616,0.0202,0.07,229.0147
19:55:45:836,-2.7087,3.4863,9.6431,28.0227,-0.0775,0.2657,0.1775,228.6783
19:55:45:856,-2.9527,3.8907,10.0977,28.6399,-0.1459,0.6347,0.3144,228.0888
19:55:45:878,-2.8235,4.1779,11.1458,27.5412,-0.1862,0.8754,0.439,227.32
19:55:45:895,-2.4,4.1133,11.3324,27.0392,-0.0384,0.642,0.5013,226.5596
19:55:45:916,-2.0578,3.9147,10.94,27.2825,0.1619,0.295,0.5074,225.8942
19:55:45:935,-2.1152,3.6251,10.4542,27.1722,0.2462,0.3402,0.4537,225.2278
19:55:45:955,-3.5653,3.5653,10.2245,25.1185,0.1778,0.6786,0.3315,224.6105
19:55:45:978,-5.0704,3.7998,10.739,26.5891,0.0838,1.0158,0.318,223.8213
19:55:45:995,-5.6949,3.7424,8.6189,24.8539,0.1864,0.5895,0.4243,223.0382
19:55:46:015,-4.0893,3.1131,9.4325,25.7586,0.1058,-0.0446,0.6027,222.28
19:55:46:037,-3.216,2.0219,10.9017,25.5009,-0.0592,-0.2498,0.6455,221.5659
19:55:46:055,-3.9625,1.5721,11.4138,24.6119,-0.0518,-0.1631,0.5489,220.9034
19:55:46:077,-4.7689,1.8018,9.746,25.4323,0.1534,0.047,0.5465,220.1498
19:55:46:102,-4.5703,1.7683,7.6881,24.2559,0.3098,-0.0788,0.7139,219.2645
19:55:46:116,-3.9123,1.8257,7.2383,23.2267,0.1962,-0.4319,0.8312,218.3741
19:55:46:141,-3.3835,1.9406,7.8891,24.0218,-0.0677,-0.8204,0.8348,217.6465
19:55:46:155,-2.5149,1.8497,8.8199,25.0876,-0.2437,-1.0806,0.7908,217.075
19:55:46:176,-1.2203,1.3495,9.0473,22.5299,-0.1874,-1.2785,0.5673,216.4405
19:55:46:203,-1.0241,1.3352,8.5519,21.377,-0.108,-1.1783,0.5001,216.1868
19:55:46:215,-1.4261,1.3256,7.9226,20.2526,0.0007,-0.9401,0.5685,215.77
19:55:46:236,-0.0909,1.6223,7.4321,20.2526,0.1009,-0.3561,0.7175,215.0489
19:55:46:255,-0.1747,2.2397,7.3938,21.1499,0.0899,0.1557,0.8055,214.0866
19:55:46:277,-0.4164,2.668,7.9346,20.7228,-0.0274,0.4111,0.7823,213.0523
19:55:46:303,-0.67,2.814,8.1141,21.7655,-0.0702,0.4148,0.6907,212.1199
19:55:46:318,-1.139,2.9527,7.8317,19.9889,0.0141,0.3463,0.588,211.3147
19:55:46:335,-1.2849,2.9408,7.5565,19.4721,0.0703,0.3219,0.5526,210.5623
19:55:46:355,-1.4213,2.924,7.5422,18.9162,0.0215,0.3292,0.5734,209.7437
19:55:46:375,-1.5625,3.1107,8.4227,19.1046,-0.0885,0.3072,0.6051,208.9308
19:55:46:403,-1.5482,3.0389,9.2985,17.4985,-0.1765,0.2327,0.6235,208.0755
19:55:46:501,-1.5027,3.149,9.2004,18.1334,-0.1154,0.1313,0.6345,207.2763
19:55:46:501,-1.1701,3.1561,9.521,16.8891,-0.0824,0.0397,0.6381,206.483
19:55:46:502,-0.7083,3.0556,10.2054,17.2574,-0.1691,-0.0128,0.5954,205.7953
19:55:46:502,-0.3948,2.948,11.3874,16.9579,-0.284,0.0031,0.4952,205.1743
19:55:46:502,-0.4953,2.7182,12.2489,15.4724,-0.3463,-0.0202,0.362,204.6711
19:55:46:517,-0.9356,2.7565,12.3111,14.9199,-0.2827,-0.0079,0.2459,204.3192
19:55:46:537,-0.9595,2.7805,12.1292,16.269,-0.1655,0.091,0.2325,204.0307
19:55:46:555,-0.3852,2.333,12.4164,15.7351,-0.1031,0.1313,0.2789,203.5923
19:55:46:576,0.2871,1.6223,12.4475,15.2389,-0.0909,0.0116,0.2496,203.286
19:55:46:607,-0.0168,1.1844,12.4953,17.6944,-0.1264,-0.0165,0.1311,203.074
19:55:46:617,-0.2967,1.2084,11.4353,15.2601,-0.0677,0.3366,0.1494,202.7081
19:55:46:644,0.2513,1.5984,7.4106,15.216,0.2462,1.0721,0.4549,202.0247
19:55:46:657,0.5408,1.9382,6.1926,14.2505,0.0972,0.8741,0.4207,200.5123
19:55:46:676,0.3374,1.785,6.9344,15.3185,-0.2766,0.3744,0.2447,200.1778
19:55:46:706,-0.0215,1.0504,8.4036,16.3127,-0.6016,-0.1741,0.0273,200.1281
19:55:46:718,-0.4068,0.7585,9.7843,15.7104,-0.67,-0.4575,-0.0778,200.2733
19:55:46:735,-0.8949,0.7729,9.4253,14.4094,-0.4697,-0.4136,-0.035,200.3307
19:55:46:756,-1.328,1.2682,8.6788,14.8337,-0.2241,-0.047,0.0358,200.2783
19:55:46:778,-1.2467,1.1486,7.7504,13.3976,-0.0848,0.2804,0.1372,200.0352
19:55:46:808,-1.7444,1.5362,6.3194,14.8221,0.0239,0.3048,0.2117,199.6911
19:55:46:816,-2.5053,1.1964,5.2355,13.8554,-0.0665,0.2999,0.2716,199.2513
19:55:46:837,-2.0674,2.187,5.281,13.776,-0.3939,0.4038,0.4879,198.5813
19:55:46:858,-1.1246,1.8257,5.9605,15.015,-0.7775,0.5809,0.5294,197.8596
19:55:46:878,-0.9571,1.7827,6.7478,15.7459,-1.1062,0.5858,0.4207,197.1705
19:55:46:913,-1.1342,1.9071,8.1021,13.6211,-1.4092,0.3182,0.285,196.6874
19:55:46:918,-1.2514,1.7731,9.6574,15.4446,-1.612,-0.0006,0.2313,196.4414
19:55:46:939,-1.0911,1.529,11.3851,14.2377,-1.6046,-0.1936,0.2056,196.1712
19:55:46:959,-1.5482,1.5003,12.2417,15.2056,-1.3041,-0.102,0.1934,195.9763
19:55:46:989,-2.7398,1.8209,11.6387,14.7826,-0.7678,0.2205,0.2533,195.5126
19:55:47:007,-2.9886,2.2038,10.8658,16.3721,-0.2644,0.3976,0.4879,194.8984
19:55:47:016,-2.8714,1.9023,9.923,14.7826,0.0019,0.2755,0.8642,193.7404
19:55:47:037,-2.0028,2.01,10.7605,15.0583,-0.1142,0.3598,1.1952,192.3796
19:55:47:058,-2.2205,2.5292,12.3015,14.8656,-0.3292,0.2828,1.4225,190.6384
19:55:47:082,-3.5605,2.2277,14.1799,13.997,-0.4416,-0.0641,1.5019,188.9281
19:55:47:100,-3.0987,0.6843,14.5101,16.0392,0.3635,-1.1209,1.7096,187.217
19:55:47:121,-2.68,1.4381,12.1508,14.1702,0.9891,-0.9658,1.8928,185.3672
19:55:47:137,-2.2636,2.0172,10.6792,15.1063,1.0709,-0.6261,1.9674,181.0854
19:55:47:158,-1.3352,1.2849,10.9256,12.4435,0.647,-0.5614,1.9368,178.8787
19:55:47:186,-0.3517,0.5216,11.665,14.7926,0.2902,-0.7214,1.8281,177.0182
19:55:47:197,-0.2919,0.9811,11.2128,16.0365,0.2963,-0.8631,1.6595,175.3636
19:55:47:217,-0.6174,1.3376,9.655,13.6764,0.5211,-0.565,1.541,173.5865
19:55:47:236,-0.7777,1.3352,8.0662,14.5939,0.7081,-0.0507,1.4677,171.979
19:55:47:256,-0.5551,1.3424,6.9823,17.0485,0.6164,0.2217,1.3394,170.4675
19:55:47:280,-0.2177,1.2347,7.0421,15.3842,0.289,0.3219,1.1659,168.9556
19:55:47:301,-0.2752,0.9619,8.2074,16.5779,-0.1056,0.2877,0.9485,167.7105
19:55:47:315,-0.4451,0.7418,9.3081,17.2884,-0.3634,0.0739,0.7151,166.7347
19:55:47:335,-0.7418,0.5025,9.5809,17.6231,-0.3316,-0.0043,0.5392,165.9417
19:55:47:356,-1.1246,0.3159,8.942,17.1554,-0.0628,0.201,0.4414,165.2099
19:55:47:378,-1.1007,0.1986,8.004,16.7551,0.2389,0.4551,0.4487,164.4111
19:55:47:397,-1.1797,0.2297,7.4465,18.2389,0.3574,0.5272,0.4915,163.5674
19:55:47:417,-1.0792,1.0241,7.3866,19.2001,0.2279,0.4441,0.5233,162.6785
19:55:47:437,-0.9236,1.608,7.4034,18.4203,0.0129,0.416,0.5954,161.6578
19:55:47:456,-1.0696,1.986,7.8317,19.4064,-0.1374,0.5601,0.632,160.558
19:55:47:476,-1.3687,2.0794,8.3342,17.7779,-0.2119,0.6469,0.5844,159.5345
19:55:47:496,-1.5577,2.0554,8.8223,17.9264,-0.1911,0.565,0.5282,158.6016
19:55:47:517,-1.4812,2.077,9.533,19.2767,-0.0836,0.3463,0.5282,157.691
19:55:47:537,-1.0241,2.1894,9.7795,19.2767,0.085,0.0299,0.577,156.7599
19:55:47:557,-0.4235,2.3833,9.3248,19.2233,0.3672,-0.19,0.5416,155.8727
19:55:47:587,0.1675,2.4191,9.5522,19.2233,0.2963,-0.1692,0.4952,154.5775
19:55:47:597,0.8662,2.3091,10.4375,19.2233,0.1058,-0.2841,0.3779,154.0128
19:55:47:616,1.4907,2.2373,11.8038,19.2233,-0.036,-0.5125,0.1592,153.7634
19:55:47:636,1.3854,1.3041,11.9569,18.983,-0.0323,-0.7446,-0.0766,153.8279
19:55:47:656,0.6772,0.9476,11.8445,17.5728,0.0043,-0.6469,-0.2183,154.0025
19:55:47:676,0.5384,0.9619,11.6172,19.6919,-0.0482,-0.5479,-0.0766,154.0013
19:55:47:697,1.1174,0.4714,11.7344,18.109,-0.1874,-0.5052,0.1726,153.6927
19:55:47:723,1.5673,0.1149,12.0909,19.4348,-0.3927,-0.4111,0.2362,153.3637
19:55:47:742,1.3663,0.0144,12.0048,20.2985,-0.554,-0.3244,0.1568,153.0484
19:55:47:754,1.0074,-0.1866,11.0668,20.5113,-0.5088,-0.0837,0.1397,152.684
19:55:47:775,1.0624,-0.189,9.9278,20.7292,-0.2901,0.2022,0.2912,152.0738
19:55:47:797,1.127,0.1579,9.1789,19.4852,-0.0885,0.328,0.4915,151.2457
19:55:47:817,1.4501,0.6628,8.7123,19.1948,-0.0213,0.2449,0.588,150.3463
19:55:47:838,1.9358,0.8662,8.1811,20.0654,-0.0567,0.0739,0.5196,149.5301
19:55:47:855,1.7444,0.7537,7.6116,21.5131,-0.1288,0.0482,0.2936,148.9638
19:55:47:875,0.6891,0.9236,7.2766,19.198,-0.2913,0.1399,-0.0118,148.6044
19:55:47:899,-0.0239,0.8542,7.6786,19.5064,-0.5393,0.1631,-0.2378,148.5228
19:55:47:917,0.0168,0.7298,8.2337,22.4659,-0.725,0.0873,-0.2855,148.4998
19:55:47:940,0.0287,0.8064,8.7793,21.9088,-0.7482,0.0543,-0.2256,148.3654
19:55:47:957,0.0407,1.1031,9.0425,20.7191,-0.6151,0.0995,-0.1804,148.1458
19:55:47:978,-0.3374,1.2347,8.7051,20.5366,-0.4525,0.2266,-0.1877,147.9506
19:55:48:000,-0.9308,1.4524,8.4921,20.6045,-0.3206,0.339,-0.2427,147.7608
19:55:48:016,-0.5719,1.5553,9.4564,20.1337,-0.2339,0.1399,-0.1987,147.5959
19:55:48:039,-0.0742,1.6415,10.1312,21.6548,-0.1716,0.0421,-0.1279,147.5532
19:55:48:055,0.0407,1.5793,10.6146,20.9139,-0.0934,0.0311,-0.101,147.2667
19:55:48:075,-0.0814,1.3687,10.9232,21.9739,-0.0115,0.0189,-0.0961,146.9655
19:55:48:097,-0.4857,1.3902,10.9902,22.3633,0.0899,0.058,-0.0717,146.6347
19:55:48:148,-0.8088,1.6439,10.8778,22.5942,0.1839,0.2046,0.0431,146.1081
19:55:48:148,-0.6867,1.8257,11.0764,22.1727,0.2133,0.3463,0.2692,145.326
19:55:48:155,-0.0239,1.7803,11.3348,21.7193,0.2084,0.3476,0.5135,144.2802
19:55:48:176,0.5168,1.8592,11.2463,22.1607,0.2316,0.2657,0.6552,143.1304
19:55:48:198,0.6341,2.0435,11.0812,22.5942,0.2621,0.2364,0.6797,141.9521
19:55:48:217,0.2967,1.8329,10.7127,23.0675,0.2695,0.2779,0.6308,140.7875
19:55:48:235,-0.8016,1.9549,10.0929,23.4154,0.2426,0.2535,0.5489,139.6868
19:55:48:255,-1.6032,2.1081,10.1886,22.798,0.1302,0.2596,0.5477,138.4707
19:55:48:275,-1.4859,2.1823,10.861,23.963,-0.0237,0.2058,0.676,137.189
19:55:48:298,-0.1388,1.5984,11.7894,23.4403,-0.0824,-0.1069,0.7444,135.8683
19:55:48:317,0.6437,0.8782,12.5767,22.1607,-0.0726,-0.7373,0.5477,134.9224
19:55:48:335,0.1531,0.6796,12.816,23.4154,0.0361,-1.2969,0.1775,134.4453
19:55:48:354,-1.1629,0.7202,11.2869,22.7187,0.3733,-1.2113,-0.0558,134.1012
19:55:48:375,-1.6893,0.548,9.6837,23.4403,0.713,-0.6212,0.0517,133.5845
19:55:48:395,-1.8808,0.4594,8.3581,23.0803,0.8339,-0.2034,0.4097,132.6088
19:55:48:417,-1.6104,0.7322,7.7886,23.9564,0.5932,-0.1044,0.72,131.2735
19:55:48:436,-0.6604,1.1007,8.9803,22.7177,0.1058,-0.047,0.9118,129.767
19:55:48:455,0.3111,0.9595,9.4947,22.5356,-0.2082,-0.0996,0.9863,128.2109
19:55:48:477,0.4044,0.725,10.1097,24.8708,-0.047,-0.2352,0.461,126.4376
19:55:48:499,-0.2943,0.3948,8.6812,25.4526,0.2609,-0.1888,0.1641,125.7031
19:55:48:628,-0.9978,0.2608,7.5422,27.7183,0.4735,0.08,0.0358,125.0262
19:55:48:629,-1.3831,0.3781,6.4726,25.9078,0.4662,0.3769,0.1238,124.1295
19:55:48:630,-1.4357,0.8829,6.2166,26.9919,0.3367,0.5968,0.3254,123.0131
19:55:48:631,-1.0648,1.2491,6.1376,27.6619,0.1815,0.5736,0.5734,121.5446
19:55:48:632,-0.5815,1.3807,6.1663,24.5824,0.0813,0.4416,0.7285,119.9197
19:55:48:633,-0.5743,1.9956,6.8076,24.5195,-0.0457,0.3952,0.6308,118.4751
19:55:48:652,-0.347,1.9262,8.2768,24.557,-0.3011,0.3573,0.472,117.2344
19:55:48:655,-0.5025,1.6917,9.32,23.6544,-0.4684,0.328,0.3816,116.0684
19:55:48:674,-1.0193,1.8521,10.55,24.0635,-0.4916,0.2706,0.3302,115.0574
19:55:48:698,-0.9476,2.0626,12.0838,21.4588,-0.3524,0.2327,0.4036,113.901
19:55:48:715,-0.1603,1.797,13.285,23.9432,-0.0335,0.3195,0.4756,112.8179
19:55:48:735,0.7035,1.2347,13.3831,24.9209,0.3159,0.4844,0.4158,111.7199
19:55:48:758,0.3924,1.1127,13.1318,23.3369,0.4515,0.73,0.2533,110.7581
19:55:48:782,-0.1866,1.1892,12.749,24.3424,0.3819,0.9487,0.1604,109.9028
19:55:48:795,-0.3852,1.2299,11.9904,25.668,0.2915,1.0244,0.2227,108.9011
19:55:48:816,-0.1938,1.3137,11.1984,24.4616,0.2255,0.9487,0.3327,107.7578
19:55:48:835,0.0479,1.3113,10.9615,23.583,0.0862,0.6371,0.3229,106.685
19:55:48:855,0.0957,0.7729,11.3922,27.1651,-0.0946,0.2242,0.1812,105.9053
19:55:48:876,-0.3805,0.268,11.543,22.5503,-0.1422,-0.1093,0.0407,105.3552
19:55:48:902,-0.4307,-0.0622,10.3633,24.4436,0.0483,-0.2828,0.1018,104.8965
19:55:48:920,0.0598,0.1579,9.3846,24.4007,0.2536,-0.4673,0.3168,103.2839
19:55:48:937,2.3665,0.6532,8.8128,25.4732,0.2524,-0.697,0.4109,103.1017
19:55:48:955,2.2349,0.7418,8.461,26.279,0.1021,-0.4221,0.1042,102.4807
19:55:48:976,1.0552,0.6174,8.0375,25.3478,-0.0897,-0.0165,-0.2684,102.1301
19:55:49:000,-0.146,0.4905,7.7767,24.7947,-0.2571,0.2608,-0.5188,102.0697
19:55:49:017,-0.9906,0.4307,7.5087,24.7947,-0.3695,0.3647,-0.5738,101.9743
19:55:49:037,-1.2514,0.6102,6.9416,24.1073,-0.4049,0.3524,-0.4761,101.7534
19:55:49:055,-0.993,0.8853,6.6688,25.1102,-0.4318,0.2901,-0.3356,101.4425
19:55:49:075,-0.6796,1.4046,7.3914,22.8993,-0.4855,0.2107,-0.2586,100.9937
19:55:49:101,-0.4881,1.6822,7.7743,24.2004,-0.4709,0.1594,-0.3148,100.6519
19:55:49:117,-0.7657,1.6343,7.5015,22.8365,-0.4086,0.2511,-0.4736,100.4537
19:55:49:137,-1.1127,1.6582,7.9178,21.9547,-0.4709,0.4367,-0.5897,100.3773
19:55:49:155,-1.0409,1.596,9.3344,24.7072,-0.6248,0.5589,-0.6044,100.2987
19:55:49:177,-0.7155,1.407,10.5524,25.0574,-0.6676,0.5528,-0.5689,100.1694
19:55:49:198,-0.5886,1.3376,11.4066,25.0014,-0.5784,0.4539,-0.564,100.0898
19:55:49:216,-1.1318,1.3137,12.2728,23.5777,-0.4281,0.3366,-0.5665,100.0385
19:55:49:237,-1.3424,1.3208,12.5599,24.9971,-0.1557,0.1716,-0.4822,99.9346
19:55:49:255,-0.9069,1.3424,11.1745,25.4837,0.2597,-0.0031,-0.2879,99.6085
19:55:49:275,-0.8853,1.675,9.7484,25.4066,0.5407,0.0837,-0.0937,99.1057
19:55:49:300,-0.6676,2.0219,9.3823,24.189,0.4784,0.3158,0.0712,98.2271
19:55:49:317,-0.5025,2.2086,10.0738,24.8656,0.2756,0.3622,0.1665,97.361
19:55:49:338,-0.6413,2.1392,10.8515,23.5389,0.1473,0.2449,0.1421,96.5428
19:55:49:358,-1.017,1.7922,11.0429,24.829,0.1412,0.1228,0.0676,95.8461
19:55:49:376,-1.663,1.6678,10.9591,25.0475,0.1509,0.0299,0.0309,95.1938
19:55:49:395,-3.0485,2.3019,9.8656,24.8358,0.1473,0.0739,0.2191,94.5112
19:55:49:417,-2.9503,2.4814,9.3224,23.9537,0.0874,0.0482,0.3816,93.0168
19:55:49:433,-1.8042,1.6822,10.0211,25.3679,-0.1337,-0.1998,0.4341,91.9741
19:55:49:454,-1.1892,0.4666,12.0742,22.9727,-0.4721,-0.6933,0.2509,91.4052
19:55:49:473,-1.718,0.0933,13.6415,23.3364,-0.637,-1.0623,-0.0253,91.2319
19:55:49:495,-2.6632,0.0502,12.2417,23.3671,-0.334,-0.785,-0.0986,91.0879
19:55:49:519,-3.2351,-0.0502,9.5689,25.3755,0.2304,-0.1069,0.1555,90.5912
19:55:49:537,-3.1011,0.0048,7.7001,21.9961,0.6018,0.3634,0.6137,89.4168
19:55:49:555,-2.8786,0.9523,7.0875,23.834,0.5932,0.1985,0.9521,87.9207
19:55:49:575,-1.5625,1.2849,7.5422,24.5191,0.3562,-0.3121,1.1048,86.3177
19:55:49:599,-0.3039,1.1151,8.1476,21.8252,0.1534,-0.6102,1.034,84.8493
19:55:49:623,-0.1555,0.8853,8.8271,23.097,-0.014,-0.5479,0.7334,83.7375
19:55:49:635,-0.7394,0.402,9.521,22.5617,-0.1984,-0.3378,0.3852,83.0665
19:55:49:654,-1.675,0.256,9.9446,23.8454,-0.2974,-0.0971,0.1775,82.5537
19:55:49:675,-2.0913,0.2728,9.2291,23.1714,-0.2327,0.0934,0.202,81.9972
19:55:49:699,-1.7779,0.4283,8.4873,23.1714,-0.1068,0.2022,0.4011,81.1956
19:55:49:720,-1.407,0.9093,7.6762,22.779,0.052,0.2938,0.5709,80.1472
19:55:49:737,-1.0576,1.4501,6.9272,21.8502,0.1436,0.2388,0.5917,79.1336
19:55:49:755,-0.7298,1.73,6.8267,22.779,0.0801,0.0727,0.4928,78.1012
19:55:49:774,-0.8686,1.6678,7.3771,21.4133,-0.0836,-0.058,0.3046,77.4241
19:55:49:796,-1.0576,1.5649,8.2959,22.6503,-0.2155,-0.135,0.1531,76.9532
19:55:49:816,-0.9045,1.3208,9.0903,22.779,-0.2314,-0.2425,0.1201,76.6303
19:55:49:847,-0.7155,1.3161,9.7819,22.6877,-0.1251,-0.2572,0.1507,75.7833
19:55:49:858,-0.8495,1.7037,9.6694,22.6762,0.0532,-0.0629,0.1067,75.635
19:55:49:874,-0.5958,1.4381,10.6098,23.2249,-0.0921,0.0336,0.0322,75.3097
19:55:49:896,-0.6269,0.9212,11.7464,21.8252,-0.262,0.1448,-0.0973,75.2844
19:55:49:914,-0.9093,0.2776,12.2489,23.3055,-0.3402,0.2987,-0.2024,75.4095
19:55:49:934,-1.0313,-0.0957,12.5671,23.2502,-0.3854,0.3659,-0.1926,75.4971
19:55:49:954,-0.737,-0.3781,13.1318,21.8115,-0.455,0.3353,-0.0986,75.6268
19:55:49:975,-0.28,-0.5719,13.7085,24.5778,-0.5063,0.2767,0.004,75.6493
19:55:50:002,0.1842,-0.8471,13.9071,23.214,-0.4831,0.1741,0.0725,75.6157
19:55:50:021,0.6796,-1.2012,13.3974,20.7011,-0.3499,0.1105,0.0957,75.5995
19:55:50:035,0.8303,-1.2921,12.2441,20.0157,-0.1483,0.124,0.1103,75.6332
19:55:50:054,0.7059,-1.151,11.1266,19.5019,0.0715,0.2828,0.1568,75.6462
19:55:50:074,0.8423,-0.9978,9.9709,21.9662,0.2695,0.3146,0.2545,75.6206
19:55:50:097,1.2084,-0.469,9.0544,21.3076,0.4332,0.1191,0.3254,75.4092
19:55:50:117,1.2132,0.0287,8.0997,19.9361,0.4881,-0.1729,0.2509,75.2729
19:55:50:135,1.2682,0.4738,7.8102,21.8481,0.3525,-0.328,0.0407,75.3375
19:55:50:155,1.1605,0.4929,7.6068,20.8863,0.1864,-0.4343,-0.2281,75.6085
19:55:50:175,0.1244,0.0431,7.1426,21.5637,0.0447,-0.4612,-0.5433,76.4707
19:55:50:198,-0.8231,0.2465,7.992,21.0985,-0.1826,-0.3012,-0.7412,77.5326
19:55:50:216,-1.1462,0.2513,7.8556,21.921,-0.2265,-0.3879,-0.7388,78.7963
19:55:50:237,-1.4907,0.1962,8.1763,21.1908,-0.1581,-0.3317,-0.6605,79.874
19:55:50:254,-1.2156,0.4642,8.3055,21.952,-0.0995,-0.0385,-0.4822,80.6929
19:55:50:274,-0.4786,0.8351,8.0901,20.7113,0.0141,-0.0434,-0.2916,81.2721
19:55:50:297,0.1268,1.0744,7.9274,20.5754,0.0825,-0.124,-0.2525,81.8087
19:55:50:314,-0.2082,1.3352,8.6477,21.324,-0.1142,0.0641,-0.4284,82.5119
19:55:50:337,-0.4164,1.7372,9.6646,21.717,-0.1862,0.1423,-0.3453,82.901
19:55:50:353,0.5527,1.7061,10.3394,21.3455,-0.1349,0.0153,-0.178,83.9119
19:55:50:374,1.8712,1.5529,10.4518,21.2158,0.0166,-0.0849,-0.0326,84.2768
19:55:50:399,1.8688,1.8114,10.6648,22.8805,0.1021,0.0763,-0.024,84.5667
19:55:50:419,0.7178,2.2301,11.2152,22.4874,0.1094,0.3072,-0.1022,84.9662
19:55:50:437,-0.2776,2.2229,11.3492,24.0453,0.1962,0.3854,-0.1682,85.4871
19:55:50:458,-0.5934,2.0387,11.0022,24.6532,0.377,0.2804,-0.0973,86.093
19:55:50:473,-0.6341,1.9741,10.9807,23.3937,0.4723,0.1081,0.0322,86.577
19:55:50:494,-0.9212,1.8233,11.086,22.8076,0.4711,-0.0275,0.1165,87.0027
19:55:50:514,-1.3017,1.6798,11.074,23.5479,0.4772,-0.1167,0.1568,87.4215
19:55:50:534,-1.7611,1.6798,11.0692,22.8536,0.4649,-0.2205,0.1836,87.9174
19:55:50:555,-1.8592,1.5529,10.9232,23.8759,0.4234,-0.2254,0.2423,88.4189
19:55:50:575,-1.9478,1.596,10.6816,23.8365,0.3428,-0.0727,0.3229,88.8387
19:55:50:600,-1.6391,1.6654,10.9208,23.2209,0.2145,0.0995,0.4048,89.1849
19:55:50:618,-0.9356,1.2227,11.5286,25.9576,0.0984,0.0202,0.4072,89.597
19:55:50:741,-0.8207,0.6221,12.5192,27.9697,0.0043,-0.3586,0.2728,90.3635
19:55:50:741,-1.3185,0.4116,12.7944,27.172,0.0581,-0.5968,0.1482,91.3472
19:55:50:742,-1.998,0.335,10.4949,26.3861,0.4075,-0.3121,0.1922,92.2169
19:55:50:742,-2.1152,0.4929,7.5565,27.0466,0.7581,0.1875,0.373,92.6907
19:55:50:742,-1.7683,0.8399,6.0179,25.919,0.7215,0.4429,0.5379,93.04
19:55:50:743,-1.4046,1.2825,6.3194,25.0783,0.3342,0.35,0.5807,93.3685
19:55:50:755,-0.859,1.3759,7.7575,25.4076,-0.0909,0.0263,0.505,93.8676
19:55:50:773,-0.481,0.8136,9.4684,27.2932,-0.2754,-0.4306,0.1079,94.6087
19:55:50:793,-0.7657,0.524,8.6716,26.2214,-0.1056,-0.2254,-0.0595,95.9276
19:55:50:815,-1.206,0.6006,7.4536,26.5863,0.0544,0.124,-0.1047,97.1487
19:55:50:835,-0.9811,0.5264,6.4032,25.5093,0.1277,0.394,-0.0265,98.3674
19:55:50:854,-0.28,0.1675,5.5322,26.8894,0.0935,0.4844,0.081,99.3163
19:55:50:875,-0.5025,0.548,6.2453,28.1897,-0.2155,0.2877,0.0798,100.3917
19:55:50:899,-0.3326,0.9906,8.6907,27.7041,-0.6554,-0.0483,0.059,101.5598
19:55:50:916,-0.335,1.2682,10.0666,28.295,-0.758,-0.1643,0.0297,102.773
19:55:50:938,-0.8399,1.3831,10.0116,28.3821,-0.5552,-0.0214,-0.0424,104.0266
19:55:50:953,-1.3974,1.4189,9.4828,29.1267,-0.3536,0.1716,-0.0668,105.2462
19:55:50:975,-1.7061,1.5577,9.5091,28.8416,-0.2827,0.2999,0.004,106.3169
19:55:50:999,-1.6463,1.8209,9.7603,29.8779,-0.2546,0.2767,0.1213,107.2833
19:55:51:013,-1.529,2.2158,10.0164,31.2708,-0.1667,0.157,0.2178,108.1323
19:55:51:034,-1.1557,2.1799,9.8225,30.5726,-0.0384,-0.0092,0.2521,109.0775
19:55:51:054,-0.8399,2.0459,9.7388,30.6848,0.0092,-0.1692,0.2044,109.9092
19:55:51:073,-0.3972,1.4859,9.9733,31.9754,-0.0885,-0.2767,0.0835,111.08
19:55:51:094,-0.5001,1.1581,11.1577,31.9858,-0.3243,-0.3586,-0.1059,112.5349
19:55:51:118,-0.5815,0.9212,12.8782,34.2955,-0.554,-0.3916,-0.2635,114.0889
19:55:51:140,-0.2632,0.4714,13.8808,33.7707,-0.5796,-0.3512,-0.3307,115.9875
19:55:51:156,0.0646,-0.0479,13.864,33.7707,-0.4428,-0.2498,-0.3368,117.884
19:55:51:174,0.3661,-0.4211,13.2778,33.1082,-0.317,-0.1399,-0.327,119.7505
19:55:51:195,0.6532,-0.7872,12.9787,34.1986,-0.3402,-0.025,-0.3344,121.3942
19:55:51:215,0.457,-0.993,13.1031,33.9217,-0.4403,0.1448,-0.3857,123.0721
19:55:51:236,-0.548,-0.9667,12.1938,35.5677,-0.2058,0.6774,-0.272,124.7143
19:55:51:258,-0.3661,-0.9452,11.1673,33.7708,0.1473,0.7434,-0.002,125.0963
19:55:51:273,0.414,-0.7968,9.8297,32.673,0.559,0.5406,0.3022,127.1975
19:55:51:293,1.1821,-0.5743,8.4826,35.0568,0.8718,0.1985,0.4756,127.8035
19:55:51:317,1.6893,-0.1795,7.279,35.6467,0.9671,-0.1081,0.4659,128.5078
19:55:51:335,1.8233,0.1268,6.451,36.284,0.8498,-0.3146,0.2948,129.2675
19:55:51:355,1.5194,0.3015,6.0921,36.3975,0.57,-0.3745,-0.0008,130.3557
19:55:51:374,0.67,0.2513,6.3482,34.9089,0.2218,-0.2718,-0.3099,131.8136
19:55:51:394,-0.1723,0.1986,6.8674,34.6336,-0.0702,-0.0935,-0.4993,133.3289
19:55:51:414,-0.5934,0.2752,7.2885,35.8867,-0.2229,0.0397,-0.4981,134.7084
19:55:51:435,-0.2034,0.4594,7.4441,36.1491,-0.2485,0.0885,-0.3576,135.9425
19:55:51:454,0.0574,0.9332,7.6977,35.6454,-0.2327,0.0825,-0.2562,137.0523
19:55:51:474,0.2058,1.1318,8.1954,37.1324,-0.24,0.0043,-0.2635,138.2134
19:55:51:498,0.0383,1.2323,8.6883,37.1163,-0.2412,-0.1387,-0.3185,139.3319
19:55:51:514,0.0479,1.2299,9.3679,37.1501,-0.2363,-0.306,-0.3417,140.4233
19:55:51:532,0.1866,1.3304,9.9326,36.3468,-0.2265,-0.4062,-0.3111,141.605
19:55:51:552,-0.0957,1.5123,11.0285,35.6345,-0.2168,-0.3403,-0.2549,142.6326
19:55:51:572,-0.9165,1.6104,12.4187,37.8225,-0.1325,-0.2645,-0.1706,143.3907
19:55:51:592,-1.0576,1.3495,12.5073,40.012,0.1534,-0.3745,-0.0106,144.0485
19:55:51:618,-0.39,1.2491,11.0022,38.6655,0.5615,-0.3537,0.2399,144.4492
19:55:51:634,0.079,2.4048,9.5641,38.4106,0.4344,0.8546,0.6528,144.1909
19:55:51:654,0.3517,2.7206,11.2367,38.2588,0.0019,1.2089,0.6662,143.8456
19:55:51:674,0.4283,2.7494,12.2656,39.3831,-0.1264,1.1307,0.5624,143.6564
19:55:51:697,0.2441,2.5914,12.0287,39.3746,0.0777,0.7935,0.4207,143.1195
19:55:51:717,-0.2249,2.5436,11.0979,41.2976,0.3049,0.3121,0.2618,143.4384
19:55:51:737,-0.7298,2.4144,10.3418,39.3746,0.3611,-0.0764,0.1116,143.9275
19:55:51:753,-1.3041,2.2301,10.148,39.3585,0.2352,-0.1545,0.0065,144.5038
19:55:51:773,-1.7204,2.0076,10.8538,39.5377,0.0593,-0.0263,-0.0033,144.9546
19:55:51:794,-1.5386,1.5099,11.5789,40.6169,-0.0054,-0.0544,0.0749,145.3347
19:55:51:815,-1.4477,1.1605,11.4736,40.4658,0.1106,-0.2767,0.169,145.5875
19:55:51:834,-1.3783,1.1222,10.6409,40.7711,0.3269,-0.4429,0.2814,145.7621
19:55:51:855,-1.0983,1.2371,9.4277,39.0232,0.5248,-0.4331,0.4145,145.8032
19:55:51:873,-0.8088,1.4716,8.5328,40.7436,0.5724,-0.4331,0.4683,145.7159
19:55:51:893,-0.3972,1.541,8.3031,39.5528,0.4478,-0.5247,0.4011,145.761
19:55:51:917,0.2082,1.1222,8.3629,40.1811,0.2389,-0.6029,0.2337,145.9712
19:55:51:936,0.3709,0.6556,8.9779,39.1228,-0.025,-0.6432,0.0053,146.4885
19:55:51:953,0.0885,0.4857,9.856,38.4486,-0.251,-0.6102,-0.2085,147.1801
19:55:51:973,-0.5695,0.2823,10.0116,39.3259,-0.2559,-0.4673,-0.3576,148.0148
19:55:51:994,-1.2467,0.0455,9.3296,41.7042,-0.0543,-0.256,-0.3942,148.7367
19:55:52:012,-1.742,0.1627,8.2026,39.3895,0.1827,-0.0141,-0.2488,149.2231
19:55:52:033,-1.3639,0.1436,7.1904,40.1724,0.3745,0.2425,0.0566,149.3792
19:55:52:052,-0.9787,1.0241,6.341,38.7976,0.3843,0.2755,0.3119,149.1714
19:55:52:072,-0.2967,1.596,6.4774,39.6446,0.2365,0.2865,0.4487,148.8541
19:55:52:093,0.1196,1.998,6.3721,39.5379,0.1118,0.3121,0.4243,148.5706
19:55:52:114,0.0957,2.3713,6.2907,39.7932,-0.0286,0.295,0.2337,148.4886
19:55:52:135,-0.4475,2.077,8.1595,39.4078,-0.5503,0.168,-0.1719,148.5637
19:55:52:154,-0.6437,1.9454,9.5115,40.6599,-0.7091,0.0837,-0.2415,148.6971
19:55:52:173,-0.7322,2.0602,10.6457,40.5206,-0.7116,-0.0006,-0.2061,149.4738
19:55:52:195,-0.8136,2.1009,11.3348,40.8128,-0.5931,-0.0507,-0.1291,149.7735
19:55:52:216,-0.7849,1.9478,11.9689,38.5609,-0.4465,-0.1472,-0.0778,149.9862
19:55:52:233,-0.3183,1.4453,12.7083,40.1294,-0.3206,-0.3146,-0.0436,150.1981
19:55:52:252,0.2345,0.7657,12.7872,39.3442,-0.1679,-0.4465,-0.0179,150.4766
19:55:52:274,0.4834,0.4546,12.3422,37.8746,-0.0555,-0.504,0.0004,150.701
19:55:52:293,1.048,0.2249,12.4881,40.4128,-0.1007,-0.5113,0.0712,150.9004
19:55:52:316,1.864,0.1627,13.4692,39.5621,-0.229,-0.5052,0.1641,150.9991
19:55:52:333,2.6488,-0.1651,13.529,41.0567,-0.2278,-0.4368,0.1971,151.0817
19:55:52:354,2.8881,-0.4116,13.2108,39.419,-0.1887,-0.4184,0.0993,151.2374
19:55:52:374,2.2134,-0.7083,12.6508,39.0628,-0.1349,-0.2816,-0.0497,151.5155
19:55:52:398,1.3376,-0.7418,11.6626,40.1988,0.0276,-0.135,-0.123,151.8026
19:55:52:415,1.1916,-0.6987,10.3609,40.9859,0.2682,-0.0385,-0.0045,151.9671
19:55:52:434,1.5338,-0.3374,9.0736,38.7713,0.4991,-0.0006,0.213,151.8981
19:55:52:453,1.9765,0.0909,7.6714,38.5043,0.6604,-0.0104,0.3608,151.6282
19:55:52:473,2.3497,0.5264,6.3864,39.6572,0.6665,-0.0605,0.3315,151.4178
19:55:52:493,2.522,0.8925,5.5537,38.9818,0.4454,-0.1118,0.0883,151.4631
19:55:52:514,2.2636,0.926,5.9079,39.7773,0.0129,-0.1167,-0.3221,151.9182
19:55:52:534,1.2706,0.7537,7.3842,39.906,-0.4489,-0.102,-0.7595,152.852
19:55:52:554,0.1005,0.5982,8.5759,40.6501,-0.6737,-0.0996,-1.0466,154.0402
19:55:52:575,-0.5575,0.5527,8.9109,39.3384,-0.6065,-0.1179,-1.104,155.3057
19:55:52:598,-0.1196,0.7872,8.0184,39.1833,-0.2375,0.0849,-0.7388,156.426
19:55:52:614,0.1292,1.2993,8.1978,39.5621,-0.2363,0.2865,-0.6019,157.8823
19:55:52:635,0.1005,1.5338,8.8319,39.1254,-0.3084,0.3989,-0.5958,158.51
19:55:52:654,-0.0694,1.4357,9.3177,39.8761,-0.2974,0.3622,-0.6324,159.1978
19:55:52:674,-0.1268,1.2802,9.3272,38.3234,-0.1948,0.229,-0.6068,159.8488
19:55:52:700,-0.2058,1.3854,9.2674,41.1522,-0.1117,0.1374,-0.4981,160.3535
19:55:52:716,-0.1603,1.5147,9.533,38.8439,-0.1044,0.113,-0.3588,160.7635
19:55:52:735,-0.2369,1.6869,9.9398,41.0693,-0.1203,0.1289,-0.2268,160.9998
19:55:52:881,-0.1771,1.8544,10.2006,39.466,-0.0946,0.1887,-0.0827,161.0053
19:55:52:882,-0.0335,2.0243,9.9589,39.9185,-0.0079,0.3195,0.0773,160.8672
19:55:52:883,0.0646,2.1129,9.9518,39.907,0.0422,0.4221,0.191,160.5739
19:55:52:884,-0.067,2.1583,10.4518,40.5243,0.0007,0.405,0.2178,160.2707
19:55:52:886,-0.4546,2.2134,10.6624,39.1786,-0.0115,0.383,0.2154,159.969
19:55:52:887,-0.603,2.0937,10.806,39.0512,0.0117,0.3647,0.2227,159.7252
19:55:52:887,-0.4762,1.9286,11.1553,38.4518,-0.0018,0.2633,0.2301,159.4543
19:55:52:898,-0.4498,1.6295,11.2774,39.9185,-0.0335,0.1448,0.191,159.2169
19:55:52:915,-0.8423,0.9978,11.8205,37.7016,-0.1789,-0.0165,0.0908,159.0823
19:55:52:933,-1.5123,0.3398,13.608,38.4772,-0.5039,-0.3659,-0.0033,159.0598
19:55:52:953,-1.2443,-0.6628,14.3545,37.1625,-0.6627,-0.7104,0.0456,159.0327
19:55:52:972,-1.1031,-1.084,14.1751,39.4746,-0.4684,-0.7642,0.213,158.7912
19:55:52:994,-1.2873,-0.5767,13.3376,39.3795,-0.0677,-0.4478,0.4573,158.2404
19:55:53:017,-1.4213,-0.3996,10.349,37.7178,0.4906,0.1667,0.7884,157.2833
19:55:53:037,-1.0385,-0.1866,8.3175,38.5747,0.7704,0.5369,1.0682,154.5865
19:55:53:055,0.3852,0.8231,7.4632,38.8977,0.4466,0.1619,1.1158,153.3632
19:55:53:072,1.0337,0.9715,7.9872,40.1424,0.1949,-0.1423,0.8556,152.4152
19:55:53:093,0.725,0.8495,8.418,38.4418,0.0398,-0.3085,0.4597,151.9261
19:55:53:112,-0.0072,0.5288,8.3222,37.1635,-0.0005,-0.3048,0.103,151.8022
19:55:53:132,-0.7418,0.2608,7.9657,40.5956,0.0166,-0.2388,-0.079,151.8647
19:55:53:152,-1.2969,0.2943,7.6283,38.573,0.0373,-0.1448,-0.0778,151.8937
19:55:53:172,-1.3543,0.4283,7.1713,37.5578,0.0605,-0.025,0.0517,151.7592
19:55:53:192,-1.0433,0.7322,6.7047,39.7501,0.063,0.0971,0.191,151.4794
19:55:53:213,-0.6532,1.0074,6.6473,38.3578,-0.0054,0.1826,0.2362,151.1387
19:55:53:233,-0.6891,1.1988,7.0038,39.2587,-0.1251,0.2242,0.1665,150.8516
19:55:53:253,-1.0744,1.2108,7.3364,39.2562,-0.2388,0.2254,0.0395,150.6779
19:55:53:273,-1.3783,1.2227,7.7551,39.5305,-0.3389,0.1973,-0.0326,150.5997
19:55:53:292,-1.2586,1.2419,8.3892,38.1483,-0.4465,0.113,-0.002,150.5091
19:55:53:317,-0.8662,1.1533,9.0664,39.7412,-0.5393,-0.0116,0.0651,150.3492
19:55:53:332,-0.7083,1.2227,9.9326,39.7412,-0.6273,-0.1619,0.0896,150.1539
19:55:53:353,-0.3829,1.0911,11.1936,38.9261,-0.692,-0.2987,0.0651,150.0023
19:55:53:371,0.1172,0.5121,12.4259,37.7326,-0.7042,-0.3904,-0.0167,149.9885
19:55:53:392,0.2345,-0.1436,13.4261,37.3531,-0.659,-0.4575,-0.1511,150.0828
19:55:53:412,0.0048,-0.5432,14.1727,39.5217,-0.5759,-0.5101,-0.25,150.2871
19:55:53:433,0.0479,-0.8686,14.9743,38.965,-0.3634,-0.4355,-0.2085,150.4086
19:55:53:452,0.2369,-0.9117,13.529,37.3531,0.0459,-0.2144,-0.0448,150.3595
19:55:53:472,0.95,-0.7298,12.3135,39.2224,0.2401,-0.0519,0.2142,150.0896
19:55:53:494,2.0028,-0.7537,12.2584,39.1393,0.0911,0.0348,0.3718,149.6537
19:55:53:517,1.5362,-1.0816,12.9141,38.4462,-0.1288,-0.0202,-0.0387,149.3515
19:55:53:533,0.9117,-1.2825,12.0431,38.7052,0.118,0.0373,-0.1389,149.4272
19:55:53:555,0.7322,-1.2491,10.66,38.207,0.4564,0.0104,-0.0411,149.5275
19:55:53:571,1.1605,-1.1797,9.3464,39.6012,0.7374,-0.1289,0.1262,149.3436
19:55:53:592,1.7587,-1.0361,8.2696,37.6917,0.873,-0.2828,0.2105,149.0636
19:55:53:614,2.2493,-0.7585,7.3149,39.6273,0.8339,-0.3549,0.1397,148.9012
19:55:53:632,2.3569,-0.603,6.6664,38.2488,0.6409,-0.2486,-0.09,148.9754
19:55:53:653,1.7683,-0.5145,6.2788,37.8522,0.3367,0.0006,-0.426,149.4162
19:55:53:674,0.6772,-0.3613,6.384,38.5101,0.0068,0.2718,-0.7314,150.0862
19:55:53:692,-0.1986,-0.1436,6.6975,37.7095,-0.2327,0.4734,-0.8585,150.8898
19:55:53:715,-0.6604,0.1507,7.0062,38.9274,-0.3182,0.5357,-0.7925,151.6341
19:55:53:733,-0.1962,0.3876,7.1378,39.1816,-0.3011,0.4306,-0.6386,152.2388
19:55:53:752,0.3517,0.7035,7.0875,38.0682,-0.2754,0.3219,-0.5274,152.7355
19:55:53:772,0.6652,0.993,7.3603,38.5902,-0.3304,0.3341,-0.5274,153.2319
19:55:53:791,0.6724,1.1438,8.0901,40.5305,-0.4709,0.3928,-0.6178,153.8254
19:55:53:812,0.1268,1.1773,9.0425,40.4205,-0.5992,0.4245,-0.7522,154.5539
19:55:53:833,-0.3278,0.9715,10.0044,38.547,-0.6468,0.3659,-0.8328,155.3868
19:55:53:853,-0.5456,0.725,10.7653,39.664,-0.5967,0.2095,-0.8035,156.1704
19:55:53:871,-0.6413,0.6365,11.4233,40.6144,-0.4929,0.069,-0.6874,156.8239
19:55:53:892,-0.6915,0.6126,12.0239,40.4118,-0.3609,0.0214,-0.5237,157.2711
19:55:53:916,-0.8471,0.67,12.1149,41.4429,-0.1508,0.0751,-0.3136,157.5192
19:55:53:935,-0.9093,0.9165,11.5502,39.6683,0.1106,0.2339,-0.0436,157.4453
19:55:53:955,-0.4905,1.151,10.7845,36.784,0.3281,0.4135,0.2459,157.0768
19:55:53:972,-0.1675,1.3878,11.3396,39.152,0.3318,0.3072,0.3901,156.1307
19:55:53:992,-0.4475,1.1725,11.72,37.7032,0.3208,0.1142,0.3058,155.6973
19:55:54:017,-0.5862,0.9069,11.3252,37.8053,0.3672,-0.0703,0.2777,155.2979
19:55:54:033,-0.6843,0.8973,10.8012,39.4625,0.3574,-0.0971,0.3107,154.8598
19:55:54:051,-0.7896,1.0433,10.806,39.1471,0.234,0.0238,0.3547,154.3688
19:55:54:073,-0.8997,0.9834,11.5286,39.7254,0.0862,0.0018,0.3302,153.9102
19:55:54:091,-0.6508,0.1005,12.1866,39.6318,0.0227,-0.2706,0.2459,153.5623
19:55:54:112,-0.8925,-0.189,12.5743,38.3553,0.0288,-0.5602,0.169,153.2928
19:55:54:132,-1.2012,-0.2034,12.122,38.2065,0.1742,-0.4966,0.2044,152.9998
19:55:54:152,-1.2945,-0.347,10.3346,40.8501,0.4955,-0.1154,0.3645,152.4777
19:55:54:171,-1.0385,-0.067,8.7936,40.8501,0.7117,0.0336,0.5111,151.8011
19:55:54:193,-0.4857,0.2608,8.5017,38.4462,0.6335,-0.1044,0.5465,151.1081
19:55:54:216,0.055,0.3589,8.8487,40.8721,0.4234,-0.2352,0.4659,150.5278
19:55:54:236,0.3302,0.3254,9.0162,38.8239,0.2597,-0.2682,0.2753,150.1484
19:55:54:252,0.0479,0.1962,9.0951,38.0738,0.1363,-0.2364,0.0419,150.0365
19:55:54:272,-0.6341,0.0742,9.3392,38.9755,0.0324,-0.1069,-0.1291,150.1065
19:55:54:292,-1.1749,-0.0263,9.5737,40.7598,-0.003,0.0458,-0.1633,150.1812
19:55:54:318,-1.395,-0.1005,9.4445,41.5516,0.0764,0.1557,-0.0741,150.1583
19:55:54:331,-1.2395,0.0191,8.7601,40.8959,0.2352,0.2559,0.1018,149.9111
19:55:54:352,-1.1749,0.414,7.7767,40.5836,0.3647,0.35,0.2838,149.4608
19:55:54:372,-1.0313,0.8638,7.0253,38.8912,0.3819,0.4367,0.3938,148.8579
19:55:54:392,-1.0289,1.2825,6.6185,37.8352,0.3086,0.515,0.4268,148.2316
19:55:54:415,-1.0528,1.5984,6.5994,40.271,0.1901,0.5308,0.4158,146.9633
19:55:54:435,-0.4905,1.7803,7.5661,39.5136,-0.1105,0.2791,0.3852,146.494
19:55:54:454,-0.2656,1.8927,8.5831,38.7182,-0.2033,0.1753,0.3632,145.939
19:55:54:473,-0.402,2.1081,9.1119,40.0248,-0.1789,0.1362,0.2936,145.4829
19:55:54:491,-0.5456,2.0889,9.2195,39.1127,-0.0921,0.0849,0.2068,145.1332
19:55:54:512,-0.1866,1.7109,9.5856,39.3866,-0.0775,-0.0727,0.1287,144.8929
19:55:54:533,0.5743,1.0935,10.3298,40.0248,-0.152,-0.3012,0.0383,144.7891
19:55:54:551,0.9882,0.4953,11.1171,40.3337,-0.2656,-0.4612,-0.1169,144.9148
19:55:54:572,0.7035,0.1986,12.0239,41.4893,-0.4269,-0.4991,-0.3111,145.22
19:55:54:593,0.067,0.0479,13.1462,40.5495,-0.5833,-0.4355,-0.4248,145.6255
19:55:54:615,-0.1962,-0.1172,14.0937,39.2729,-0.6138,-0.3537,-0.3954,145.9904
19:55:54:634,0.0814,-0.2704,14.479,40.8782,-0.4721,-0.267,-0.2403,146.1639
19:55:54:652,0.7777,-0.457,14.01,41.6168,-0.1984,-0.1545,-0.0607,146.1592
19:55:54:673,1.5242,-0.8925,13.0672,40.3743,0.0728,-0.1032,0.0138,146.0786
19:55:54:693,1.5434,-0.9715,11.9474,40.2084,0.2548,-0.1057,-0.0289,146.0436
19:55:54:719,1.2203,-0.8399,11.0788,41.0777,0.3867,-0.0287,-0.0717,146.0432
19:55:54:732,0.9906,-0.7442,9.8895,38.7427,0.5444,0.0263,-0.0375,146.0061
19:55:54:752,1.0361,-0.5097,8.6907,40.6407,0.669,-0.0458,0.0248,145.897
19:55:54:773,1.261,-0.1914,7.9633,41.3685,0.6323,-0.2169,0.0383,145.7932
19:55:54:796,1.4453,0.0646,7.7169,38.6342,0.4552,-0.3366,-0.0362,145.779
19:55:54:816,1.3591,0.122,7.6451,42.0347,0.2511,-0.3378,-0.1939,145.964
19:55:54:833,0.9787,0.1675,7.6211,40.9841,0.0654,-0.2682,-0.3722,146.3348
19:55:54:852,0.3541,0.2776,7.5853,43.372,-0.0763,-0.1582,-0.4907,146.8058
19:55:54:871,-0.1125,0.4642,7.3436,42.9531,-0.1386,-0.0568,-0.5176,147.2421
19:55:54:891,0.0598,1.0002,7.0134,41.3656,-0.1911,-0.0043,-0.3869,147.6006
19:55:55:010,0.5121,1.206,7.3555,41.4777,-0.2461,0.0336,-0.3209,148.2182
19:55:55:022,0.5982,1.5147,7.8556,42.1173,-0.2888,0.0971,-0.338,148.4319
19:55:55:023,0.6221,1.7539,8.4036,41.7533,-0.2998,0.124,-0.3967,148.7156
19:55:55:023,0.6963,1.9143,8.9683,37.9528,-0.2656,0.0348,-0.4443,149.0802
19:55:55:024,0.8758,1.9358,9.5306,38.6582,-0.2106,-0.1704,-0.4761,149.508
19:55:55:025,0.938,1.8616,10.1815,39.4297,-0.1545,-0.3855,-0.5017,150.0049
19:55:55:035,0.9117,1.8042,10.9113,40.5836,-0.0983,-0.4722,-0.5042,150.5121
19:55:55:051,0.5264,1.9119,11.1553,40.2108,-0.0262,-0.35,-0.4651,150.9531
19:55:55:071,-0.1938,2.1416,11.0213,39.3359,0.052,-0.0275,-0.3722,151.2549
19:55:55:092,-0.5336,2.3354,11.0764,38.5177,0.0789,0.2779,-0.2036,151.3195
19:55:55:118,-0.347,2.3067,11.4305,40.7237,0.0679,0.3488,-0.0057,151.1858
19:55:55:135,0.1149,1.9765,11.7488,40.5836,0.0544,0.2376,0.1091,150.9086
19:55:55:159,-0.0981,1.6965,12.134,39.203,0.0117,0.1301,0.0896,150.6881
19:55:55:172,-0.9643,1.3089,12.3589,40.0248,-0.0347,0.069,0.0224,150.5439
19:55:55:191,-1.931,1.0528,12.1842,38.4808,-0.003,0.0653,0.0688,150.3141
19:55:55:212,-2.2229,0.8351,11.7655,40.6515,0.1082,0.0849,0.3046,149.8354
19:55:55:232,-1.6343,0.6939,11.6267,39.3627,0.2316,-0.0238,0.6064,149.0403
19:55:55:251,-0.6915,0.3972,11.7918,39.0501,0.2805,-0.2877,0.7908,148.1258
19:55:55:271,-0.1723,0.2752,11.8229,38.0129,0.3073,-0.3904,0.8507,147.1126
19:55:55:291,-0.1938,0.4786,10.3801,38.7408,0.4442,-0.1289,0.8837,146.0405
19:55:55:312,-0.0933,0.6174,8.6596,38.4669,0.6103,0.2278,0.9057,144.9002
19:55:55:333,0.347,0.6485,7.6714,38.9438,0.5822,0.3024,0.8776,143.8179
19:55:55:355,0.8519,1.2203,8.0399,36.3151,0.1827,-0.0214,0.5734,142.2571
19:55:55:371,0.7777,1.1007,8.3653,37.7977,0.0532,-0.1558,0.3144,141.85
19:55:55:392,0.5456,0.6724,8.3486,36.7631,0.0043,-0.2523,0.0517,141.7441
19:55:55:418,0.4307,0.067,8.1117,37.7353,-0.0506,-0.2511,-0.1303,141.8369
19:55:55:439,-0.0215,-0.1077,8.7027,37.8928,-0.2204,-0.168,-0.2293,142.0245
19:55:55:452,-0.5001,-0.0191,9.722,37.7255,-0.4086,-0.0055,-0.2232,142.1777
19:55:55:471,-0.7537,0.0766,9.7603,38.2071,-0.3548,0.2706,-0.0876,142.1288
19:55:55:491,-0.6054,0.4834,8.7673,38.4952,-0.1374,0.4734,0.1128,141.8461
19:55:55:512,-0.2584,0.9356,7.6666,37.9818,-0.0225,0.6053,0.2631,141.3657
19:55:55:531,-0.4522,1.4165,7.4058,39.9209,-0.1227,0.8008,0.285,140.8546
19:55:55:552,-0.6126,1.7157,8.0016,38.392,-0.2864,0.934,0.2728,140.3305
19:55:55:571,-0.3422,1.7204,8.2361,38.7294,-0.306,0.8118,0.285,139.8213
19:55:55:590,-0.067,1.8999,8.6261,37.5399,-0.2546,0.493,0.2777,139.3566
19:55:55:610,0.0957,2.1272,9.4349,39.113,-0.218,0.19,0.2264,138.9941
19:55:55:632,-0.1914,2.2181,9.7484,37.2052,-0.1276,0.0018,0.1055,138.7745
19:55:55:651,-0.5719,2.0746,9.9063,38.3696,-0.0372,-0.146,-0.0277,138.7154
19:55:55:672,-0.3374,1.6869,10.8754,37.2426,-0.0616,-0.3427,-0.1022,138.757
19:55:55:690,-0.0335,1.1988,11.6913,38.4286,-0.0958,-0.493,-0.1328,138.8544
19:55:55:710,0.2273,0.737,11.7703,37.1918,-0.0775,-0.4685,-0.1609,138.9825
19:55:55:735,0.4905,0.5743,11.464,36.4283,-0.0824,-0.3073,-0.1621,139.1194
19:55:55:751,1.1103,0.5168,11.4497,36.8333,-0.1874,-0.1631,-0.1792,139.2648
19:55:55:770,1.3974,0.1962,12.079,37.2052,-0.3878,-0.1839,-0.3124,139.5635
19:55:55:790,1.5147,-0.3924,13.2634,36.8475,-0.6163,-0.3158,-0.5408,140.1413
19:55:55:812,0.2153,-1.4572,14.5651,38.057,-0.6468,-0.1912,-0.9012,141.9928
19:55:55:832,-0.5695,-1.7133,13.2897,37.1867,-0.2253,0.113,-0.7815,142.7778
19:55:55:853,-0.469,-1.809,11.3396,37.3049,0.2744,0.3146,-0.4101,143.1588
19:55:55:871,0.055,-1.328,9.7843,37.6105,0.6519,0.3268,0.0395,143.0437
19:55:55:891,0.8231,-0.7825,8.4873,36.916,0.8583,0.2022,0.3461,142.6107
19:55:55:913,1.5625,-0.3733,7.2838,36.8481,0.9048,0.0678,0.4292,142.1369
19:55:55:931,1.9741,-0.0239,6.3673,36.8209,0.763,-0.047,0.2912,141.8149
19:55:55:951,1.7898,0.2082,6.1017,37.247,0.438,-0.0996,-0.013,141.8072
19:55:55:971,0.9547,0.2465,6.6305,36.0848,0.0459,-0.08,-0.3527,142.1537
19:55:55:991,0.1579,0.2225,7.4393,35.5099,-0.2437,-0.0141,-0.5579,142.7245
19:55:56:013,-0.2034,0.3661,7.9992,35.0762,-0.3353,0.0446,-0.5482,143.2995
19:55:56:033,0.0909,0.6413,8.1715,35.4787,-0.2803,0.0519,-0.4211,143.7295
19:55:56:051,0.5647,0.8471,7.8891,35.8133,-0.1862,0.0446,-0.316,144.0237
19:55:56:071,0.8734,1.0289,7.8413,36.4962,-0.1496,0.0409,-0.3087,144.3044
19:55:56:090,0.8925,1.2132,8.2002,35.6873,-0.1813,0.0031,-0.3624,144.6449
19:55:56:113,0.7561,1.3328,8.6429,36.4607,-0.2143,-0.0507,-0.4296,145.0834
19:55:56:133,0.5958,1.3998,9.1645,35.9999,-0.2143,-0.102,-0.4663,145.555
19:55:56:150,0.5575,1.4094,9.5474,36.6241,-0.1899,-0.135,-0.4431,145.9997
19:55:56:170,0.5671,1.4333,9.9302,34.9232,-0.1459,-0.1485,-0.3844,146.386
19:55:56:190,0.5719,1.4883,9.9063,36.0428,-0.0751,-0.1472,-0.3087,146.6953
19:55:56:214,0.2991,1.6104,9.0975,35.0822,-0.0176,-0.0153,-0.239,146.9173
19:55:56:231,-0.1412,1.7755,8.8415,36.258,-0.13,0.3732,-0.1731,146.9489
19:55:56:251,-0.3565,1.7396,12.6078,36.5186,-0.5479,0.6799,0.0309,146.8198
19:55:56:269,-0.055,1.6271,13.7563,36.1488,-0.3182,0.2901,0.1165,146.6736
19:55:56:292,0.1914,1.2347,13.0313,36.2793,0.1791,-0.1081,0.1824,146.4348
19:55:56:315,0.0574,1.2778,11.4162,36.9296,0.5663,-0.3757,0.1678,146.2188
19:55:56:334,-0.4905,1.4596,10.191,35.4974,0.5688,-0.4233,0.0761,146.0966
19:55:56:354,-0.9619,1.4931,10.526,37.7675,0.2365,-0.2926,-0.035,146.0923
19:55:56:370,-1.2873,0.8327,12.5551,34.9059,-0.229,-0.3036,-0.1926,146.2737
19:55:56:390,-1.6247,0.0766,15.0006,34.9059,-0.5979,-0.6665,-0.4052,146.6907
19:55:56:410,-2.1703,-0.5934,15.4552,34.9059,-0.5149,-0.7923,-0.5091,147.2158
19:55:56:432,-3.3093,-1.0337,13.2036,34.9058,0.0679,-0.339,-0.3783,147.5568
19:55:56:451,-3.9218,-0.9165,9.9302,36.3759,0.7533,0.2779,0.0798,147.3526
19:55:56:470,-3.0461,-0.5264,7.7815,36.1488,1.0807,0.5198,0.7346,146.4357
19:55:56:490,-1.3902,0.2943,7.1402,34.5973,0.9695,0.3378,1.1964,145.0367
19:55:56:509,0.2393,1.0768,7.7384,36.2793,0.6629,0.0873,1.304,143.5764
19:55:56:530,1.2395,1.1677,8.3103,37.663,0.4038,-0.0641,1.0193,142.4531
19:55:56:551,0.9117,0.7346,8.4443,34.3026,0.245,-0.0984,0.5001,141.9095
19:55:56:570,0.0574,0.3206,8.6118,36.1139,0.1009,0.0031,0.0896,141.7932
19:55:56:590,-0.7657,0.4211,8.607,36.7153,0.0373,0.2327,-0.0191,141.7663
19:55:56:611,-1.0433,0.6867,8.0566,36.6256,0.1302,0.4709,0.0712,141.592
19:55:56:631,-0.5934,0.6939,7.0612,36.7815,0.2768,0.5846,0.1861,141.2862
19:55:56:650,-0.3493,0.9667,6.7358,37.4246,0.2634,0.5443,0.1934,140.9658
19:55:56:670,-0.3924,1.4261,7.4154,36.8963,0.1009,0.4355,0.1238,140.7395
19:55:56:690,-0.6365,1.7755,8.2552,36.134,-0.0164,0.2963,-0.0008,140.6619
19:55:56:710,-0.8207,1.8568,8.5519,37.1905,-0.0176,0.1985,-0.1132,140.725
19:55:56:730,-0.8542,2.065,9.2411,37.6606,-0.0384,0.2694,-0.1389,140.925
19:55:56:752,-0.7609,2.1607,9.8728,36.7508,-0.047,0.2511,-0.1059,140.9843
19:55:56:772,-0.8542,2.3282,10.3322,35.0936,0.0398,0.1509,-0.0815,141.0237
19:55:56:790,-0.8949,2.2947,10.3872,37.4599,0.2023,0.0067,-0.0509,141.0549
19:55:56:812,-0.7729,2.0315,10.3872,36.9658,0.344,-0.2095,-0.0228,141.103
19:55:56:836,-0.4498,1.5984,10.3705,37.2698,0.3953,-0.4575,-0.0033,141.1665
19:55:56:855,-0.189,1.3352,10.4184,37.6474,0.3342,-0.6029,0.0016,141.2871
19:55:56:871,0.0526,1.2395,10.7868,34.5254,0.1681,-0.5675,0.0077,141.4105
19:55:56:890,0.0646,1.3543,11.2774,36.9768,-0.0347,-0.4514,0.0175,141.4839
19:55:56:911,0.3278,1.206,12.067,37.0889,-0.2119,-0.4148,0.0224,141.5616
19:55:56:933,0.7992,1.1151,12.8949,36.5434,-0.3267,-0.4722,0.0358,141.6575
19:55:56:953,1.5003,0.7131,13.2227,36.3514,-0.3402,-0.4148,0.0456,141.7518
19:55:56:972,1.5625,0.3326,13.0816,37.0913,-0.2864,-0.2193,-0.0167,141.8757
19:55:56:992,0.7418,0.3135,12.3757,38.4676,-0.1655,0.0153,-0.0925,142.0226
19:55:57:013,0.1005,0.4905,10.806,38.7546,0.096,0.273,-0.046,142.0355
19:55:57:155,0.0574,0.5838,8.942,40.6396,0.4222,0.4245,0.1018,141.8844
19:55:57:156,0.4331,0.7705,7.5781,40.0718,0.581,0.3427,0.2289,141.5926
19:55:57:156,1.2108,0.8662,7.2191,39.5015,0.4918,0.0922,0.2533,141.326
19:55:57:156,1.7252,0.9763,7.6833,40.5729,0.2304,-0.1985,0.1055,141.2809
19:55:57:157,1.6343,0.7872,8.8798,36.9766,-0.0921,-0.3537,-0.1877,141.6037
19:55:57:157,1.0289,0.5049,9.8656,38.2405,-0.2913,-0.317,-0.4553,142.2246
19:55:57:157,0.213,0.5862,10.2676,38.811,-0.3145,-0.2486,-0.5885,143.6241
19:55:57:172,-0.2871,0.8782,9.7005,38.7519,0.0544,-0.1093,-0.3759,144.0745
19:55:57:191,-0.0431,1.2825,8.461,39.9667,0.3464,-0.0079,-0.1963,144.2873
19:55:57:210,0.1962,1.5314,7.4608,37.1035,0.5126,-0.0079,-0.1047,144.4583
19:55:57:235,0.2919,2.0004,7.2383,37.3943,0.493,-0.0849,-0.0815,144.5759
19:55:57:252,0.4235,2.3617,7.6451,37.518,0.4002,-0.1387,-0.0925,144.7455
19:55:57:275,0.6317,2.4622,7.6163,40.0707,0.3574,-0.1961,-0.1376,144.9985
19:55:57:290,0.6078,2.656,7.5398,37.282,0.3183,-0.2352,-0.2146,145.341
19:55:57:310,0.792,2.7206,7.8437,37.6988,0.1754,-0.2486,-0.283,145.7471
19:55:57:332,0.7107,2.814,8.7218,38.8881,-0.0396,-0.1949,-0.3527,146.2499
19:55:57:351,0.8207,2.4191,9.9637,38.2428,-0.1874,-0.0617,-0.4186,146.792
19:55:57:370,-0.3183,3.4935,10.3179,38.8881,-0.1251,0.0715,-0.5286,147.3908
19:55:57:391,-0.5862,3.5127,10.5093,39.7101,0.0117,0.1887,-0.3869,147.7947
19:55:57:412,-0.3278,3.393,10.952,40.3565,0.1045,0.2669,-0.0888,147.8797
19:55:57:432,-0.0191,3.6897,11.3635,39.5027,0.1791,0.1948,0.1262,147.7417
19:55:57:451,0.134,3.8166,11.3779,40.7714,0.3098,0.124,0.2472,147.5144
19:55:57:472,0.1723,3.752,10.8156,39.4086,0.4625,0.1216,0.285,147.2281
19:55:57:490,-0.0885,3.6754,9.9254,39.9351,0.5566,0.1594,0.2826,146.9178
19:55:57:510,-0.5767,3.7591,9.2052,39.9351,0.526,0.2364,0.2826,146.6035
19:55:57:534,-0.7609,3.7591,9.0305,40.8914,0.3379,0.3121,0.2863,146.2567
19:55:57:551,-0.0957,2.7087,9.9805,40.666,0.0312,0.1997,0.2252,146.0421
19:55:57:572,0.3398,1.5529,11.9378,40.5573,-0.3548,-0.3121,-0.0167,146.2359
19:55:57:590,0.0933,0.9547,13.1629,41.7362,-0.554,-0.8546,-0.3063,146.8891
19:55:57:610,-1.0887,0.9236,12.5815,40.4179,-0.3536,-0.8998,-0.4797,147.6902
19:55:57:632,-2.2732,0.6197,10.6552,39.5027,0.14,-0.3439,-0.3331,148.1917
19:55:57:651,-1.5506,1.0959,7.6762,41.325,0.8266,0.372,0.5367,148.0698
19:55:57:669,-0.5408,1.9167,7.5661,40.9848,0.6861,0.1179,0.7725,146.5987
19:55:57:690,0.5575,2.0483,7.7623,39.795,0.3965,-0.0788,0.7457,145.9298
19:55:57:710,0.926,1.7204,8.1165,41.9135,0.0972,-0.113,0.4487,145.5861
19:55:57:734,0.3135,1.6223,8.4203,41.2331,-0.141,-0.135,0.0529,145.6939
19:55:57:752,-0.1172,1.5194,8.8032,42.2953,-0.2827,-0.157,-0.1889,146.0734
19:55:57:773,-0.2249,1.3376,8.7936,40.3163,-0.3157,-0.1655,-0.2146,146.4639
19:55:57:790,-0.0742,1.4118,8.2672,40.8491,-0.2375,-0.0959,-0.1205,146.7276
19:55:57:810,0.0861,1.797,7.6116,41.1047,-0.1166,0.1081,-0.0155,146.8306
19:55:57:831,-0.1149,2.3952,7.5063,42.1968,-0.0409,0.3769,0.0651,146.7302
19:55:57:854,-0.6293,2.9216,7.8676,41.2382,-0.0543,0.4526,0.1116,146.5734
19:55:57:870,-0.8207,3.0532,8.3366,42.1968,-0.1312,0.2669,0.1018,146.4669
19:55:57:891,-0.7226,2.747,8.8319,42.2318,-0.1826,0.0482,0.0419,146.4961
19:55:57:911,-0.6604,2.5531,9.2794,43.1912,-0.1471,-0.0116,-0.0265,146.6136
19:55:57:934,-0.5934,2.4933,9.588,41.7051,-0.0482,0.0409,-0.0509,146.7513
19:55:57:952,-0.6341,2.5699,9.7436,41.6428,0.0618,0.1313,-0.0204,146.8413
19:55:57:971,-0.4546,2.7182,10.0283,41.564,0.1412,0.218,0.0639,146.8154
19:55:57:991,-0.0718,2.6345,10.3825,41.8981,0.1754,0.2327,0.1629,146.6993
19:55:58:009,0.3302,2.5555,10.7486,42.3651,0.1607,0.1289,0.2032,146.6029
19:55:58:032,0.7011,2.3857,10.8873,41.4321,0.1241,-0.0202,0.1824,146.5941
19:55:58:051,0.7968,2.2923,10.8084,41.3256,0.0874,-0.0886,0.1372,146.6381
19:55:58:070,0.5862,2.4957,10.5906,39.6959,0.0459,-0.0409,0.1042,146.6618
19:55:58:090,1.2299,2.6536,10.5236,42.282,-0.1129,0.0641,0.1763,146.6371
19:55:58:111,2.3593,2.0411,10.873,43.3916,-0.2864,-0.0299,0.1152,146.4633
19:55:58:139,2.7829,1.4094,11.2271,41.4197,-0.5308,-0.1985,-0.123,146.9558
19:55:58:150,2.1823,1.1964,11.4951,41.8894,-0.7519,-0.2364,-0.4052,147.6914
19:55:58:168,1.3807,0.7155,11.3563,42.556,-0.7824,-0.0275,-0.5115,148.4722
19:55:58:190,0.6748,0.4355,10.8467,41.4674,-0.5992,0.2144,-0.4455,149.1076
19:55:58:210,0.4786,0.3015,10.1504,42.3191,-0.3011,0.2669,-0.272,149.5251
19:55:58:231,1.0552,0.2369,9.2674,40.8684,0.0141,0.1472,-0.0424,149.7544
19:55:58:252,1.6678,0.3422,8.3414,40.8843,0.2621,0.0568,0.1128,149.843
19:55:58:271,1.9573,0.5982,7.4608,40.0334,0.3721,0.102,0.1384,149.8891
19:55:58:289,1.8855,0.8016,6.8004,39.8284,0.3122,0.2095,0.0664,149.9587
19:55:58:310,1.5194,0.8925,6.4893,42.2734,0.1131,0.2523,-0.0448,150.1639
19:55:58:331,1.0672,1.0361,6.6473,40.3909,-0.141,0.1875,-0.1328,150.4653
19:55:58:353,0.5456,1.3543,6.7669,40.7783,-0.3731,0.1008,-0.1804,150.7933
19:55:58:377,0.3039,1.5099,7.0804,42.8115,-0.5246,0.0995,-0.1853,151.1528
19:55:58:388,0.2225,1.6702,7.4632,42.3463,-0.6028,0.1044,-0.2036,151.5
19:55:58:409,0.1316,1.9549,8.0423,41.3098,-0.6322,0.0678,-0.2818,151.93
19:55:58:429,0.2249,2.1081,8.5974,42.3248,-0.6322,-0.0397,-0.3905,152.5121
19:55:58:449,0.3183,2.1296,9.1167,41.7938,-0.6126,-0.1717,-0.5042,153.238
19:55:58:470,0.323,2.0698,9.7771,41.8769,-0.6089,-0.256,-0.6031,154.0942
19:55:58:490,0.1962,2.1966,10.6911,41.5294,-0.6114,-0.2841,-0.6605,154.9924
19:55:58:509,0.012,2.3521,11.3587,42.8139,-0.5576,-0.2682,-0.6532,155.8605
19:55:58:534,-0.2656,2.5364,11.6267,41.3279,-0.4281,-0.1655,-0.5579,156.647
19:55:58:553,-0.4546,3.0197,11.2463,42.4588,-0.0323,0.2633,-0.1731,157.2031
19:55:58:573,-0.1675,2.9503,11.1075,41.403,0.1265,0.3757,-0.0094,157.4304
19:55:58:590,0.067,2.7733,11.5047,42.8893,0.2023,0.2095,0.0126,157.5357
19:55:58:613,0.0694,2.6584,11.5717,41.8446,0.2426,-0.0531,-0.0827,157.7767
19:55:58:637,-0.122,2.2253,11.1912,40.8191,0.3244,-0.047,-0.1877,158.1312
19:55:58:651,-0.6365,2.065,10.3681,41.7822,0.388,0.1105,-0.2513,158.5082
19:55:58:673,-1.1174,2.1535,9.8967,41.8325,0.3452,0.2315,-0.2403,158.838
19:55:58:693,-1.4812,2.1248,9.6072,41.2987,0.1913,0.2975,-0.1902,159.1245
19:55:58:708,-1.9789,2.187,9.8417,41.3368,-0.0543,0.3048,-0.1584,159.3599
19:55:58:729,-1.8018,1.6726,10.9065,40.4626,-0.3133,0.1216,-0.0925,159.5719
19:55:58:753,-1.0959,0.7825,12.067,40.8446,-0.4525,-0.3207,-0.0485,159.8189
19:55:58:770,-0.8016,0.2441,12.1723,41.3287,-0.3658,-0.752,-0.0888,160.1593
19:55:58:790,-1.1198,0.0933,11.0836,40.8899,-0.0506,-0.653,-0.068,160.4644
19:55:58:809,-1.6726,0.2345,9.9637,41.3287,0.2878,-0.212,0.1348,160.4493
19:55:58:831,-1.5529,0.3829,9.4325,40.3216,0.4136,-0.0678,0.4402,160.1143
19:55:58:850,-0.6796,0.6269,9.5641,40.8109,0.3281,-0.2694,0.6736,159.5577
19:55:58:870,0.4379,0.4929,10.1456,38.9008,0.1778,-0.5162,0.6821,159.0359
19:55:58:890,0.7944,0.3374,10.4447,38.8596,0.0447,-0.6603,0.4402,158.8151
19:55:58:910,0.2417,0.189,10.2676,38.3834,-0.0457,-0.5394,0.1543,158.879
19:55:58:932,-0.402,-0.0335,9.5593,38.8596,-0.0567,-0.2425,0.026,159.0292
19:55:58:950,-0.8853,-0.1053,8.5472,39.36,0.0117,0.069,0.0773,159.0596
19:55:58:969,-1.1557,0.0694,7.7575,38.8319,0.129,0.3317,0.2496,158.855
19:55:58:989,-1.0409,0.3183,7.1689,38.8803,0.2426,0.4661,0.4524,158.4226
19:55:59:011,-0.146,0.9284,6.5827,38.8802,0.322,0.6053,0.6956,156.9417
19:55:59:031,0.3135,1.3328,6.8746,37.9331,0.2878,0.7287,0.6699,156.2372
19:55:59:053,0.5025,1.9095,7.5709,35.97,0.1925,0.7666,0.494,155.7048
19:55:59:071,0.2489,2.3163,8.0997,37.4748,0.0874,0.6896,0.2032,155.4893
19:55:59:089,-0.524,2.3713,8.5065,36.0034,0.0349,0.5565,-0.1157,155.6188
19:55:59:110,-1.2945,2.4814,9.0616,36.9302,0.0215,0.2523,-0.3624,156.0277
19:55:59:131,-1.2562,2.5029,9.8943,42.3463,-0.0091,-0.1191,-0.4418,156.6041
19:55:59:151,-0.8399,2.2373,10.7677,38.4679,-0.0543,-0.2376,-0.4113,157.1692
19:55:59:324,-0.8303,1.8975,11.3683,36.4568,-0.1386,-0.1423,-0.4113,157.7243
19:55:59:326,-0.7896,1.5793,12.1555,37.8972,-0.2571,-0.0666,-0.3979,158.2867
19:55:59:327,-0.8973,1.4165,12.7131,36.007,-0.3133,-0.0336,-0.283,158.7485
19:55:59:329,-1.0313,1.5123,12.8064,36.962,-0.2265,-0.0299,-0.0949,158.9415
19:55:59:330,-0.6054,1.5529,12.2776,36.6194,-0.0506,-0.0886,0.1189,158.9346
19:55:59:331,-0.1316,1.4453,11.665,34.5727,0.0557,-0.1888,0.2618,158.7741
19:55:59:332,0.1555,1.3639,11.4425,35.0639,0.0544,-0.2572,0.3229,158.6366
19:55:59:333,0.6437,1.0122,11.3276,34.9858,0.0434,-0.3036,0.3425,158.4422
19:55:59:334,1.3472,0.6126,11.019,34.9896,0.0605,-0.3586,0.329,158.3337
19:55:59:352,1.6367,0.536,10.605,34.0209,0.074,-0.3048,0.2679,158.2859
19:55:59:372,1.5553,0.4116,10.0379,35.4929,0.0618,-0.1252,0.1714,158.306
19:55:59:391,1.4572,0.2153,9.7627,35.5262,-0.0018,-0.0153,0.059,158.4234
19:55:59:409,1.4213,0.0766,9.7699,35.6088,-0.1056,-0.0067,-0.0265,158.6224
19:55:59:433,1.2825,0.0646,9.7962,32.6673,-0.1606,0.0055,-0.0692,158.8517
19:55:59:453,1.2706,0.0622,9.746,34.3975,-0.1435,0.0202,-0.0619,159.08
19:55:59:472,1.273,0.3781,8.6955,35.521,0.0056,0.0605,-0.0167,159.2931
19:55:59:490,0.9021,0.6126,7.882,35.2093,0.0838,0.1448,-0.046,159.4667
19:55:59:511,0.4522,0.8183,7.0899,35.2068,0.1302,0.2376,-0.0937,159.6558
19:55:59:533,0.0933,1.0433,6.5898,34.6688,0.1118,0.2681,-0.1364,159.843
19:55:59:552,0.0694,1.2419,6.2836,34.1704,0.0691,0.2621,-0.1462,160.071
19:55:59:569,0.2513,1.4285,6.1735,33.1356,-0.0067,0.2034,-0.1535,160.2972
19:55:59:588,0.5168,1.6941,6.5755,36.0663,-0.1239,0.1105,-0.1975,160.5913
19:55:59:609,0.5216,1.9765,7.1857,33.4146,-0.2485,0.0079,-0.3038,161.037
19:55:59:635,0.3829,2.0985,8.0016,33.8699,-0.3695,-0.1032,-0.4565,161.6519
19:55:59:652,0.122,2.065,9.0736,34.134,-0.4855,-0.1949,-0.5872,162.4373
19:55:59:669,0.0335,1.8544,10.3179,32.7998,-0.5711,-0.2388,-0.6337,163.2483
19:55:59:690,-0.1292,1.797,11.5526,33.8698,-0.5869,-0.306,-0.6007,164.0057
19:55:59:709,-0.1172,1.7922,12.5384,34.5403,-0.5075,-0.3512,-0.5054,164.704
19:55:59:733,-0.536,1.7539,12.725,35.5578,-0.2791,-0.179,-0.3502,165.1844
19:55:59:751,-1.663,2.199,12.5192,35.7358,0.0764,0.1044,-0.0925,165.3372
19:55:59:770,-1.4189,2.1129,12.5504,33.4146,0.4283,0.0763,0.2826,165.0881
19:55:59:789,-0.1029,1.9023,12.067,33.0305,0.752,-0.2462,0.6076,164.5356
19:55:59:809,0.792,1.9286,10.8969,34.3235,1.011,-0.2694,0.7615,163.8241
19:55:59:833,0.5838,2.4622,9.9805,34.9161,1.0611,0.0311,0.7457,163.0995
19:55:59:851,0.2919,2.9432,9.2195,34.2495,0.8156,0.1802,0.6088,162.4944
19:55:59:869,0.1053,2.8905,9.4421,33.8204,0.3525,0.1973,0.4341,162.0656
19:55:59:890,-0.1316,2.5172,10.2796,33.1777,-0.0983,0.2303,0.2276,161.8584
19:55:59:909,-0.6532,2.0818,11.1817,34.9093,-0.3866,0.2058,0.0541,161.8223
19:55:59:940,-1.1988,1.0433,12.7131,34.7207,-0.4635,-0.2706,-0.0179,161.9201
19:55:59:949,-1.529,0.7418,11.8158,37.0149,-0.1899,-0.4111,0.092,161.9476
19:55:59:970,-1.6056,0.2273,10.416,34.5253,0.2487,-0.2254,0.3437,161.6549
19:55:59:989,-1.3376,0.3541,9.2722,34.5655,0.6335,-0.0922,0.6064,161.0629
19:56:00:008,-0.6796,0.8399,8.5759,34.9543,0.7349,-0.2511,0.7224,160.3724
19:56:00:030,0.0957,0.9093,8.5591,35.6726,0.57,-0.4148,0.6943,159.7715
19:56:00:050,0.2489,0.938,9.344,35.8997,0.2792,-0.504,0.4818,159.4482
19:56:00:069,0.0215,0.6843,9.9876,35.8572,0.0813,-0.4807,0.2117,159.3975
19:56:00:087,-0.3829,0.2441,9.6359,35.743,0.107,-0.2889,0.0835,159.4138
19:56:00:108,-0.7609,0.2728,8.8415,37.5131,0.2108,-0.0788,0.1226,159.355
19:56:00:129,-0.9882,0.6676,8.3797,37.8817,0.2511,0.0825,0.2875,159.0613
19:56:00:151,-0.8949,0.9882,8.071,36.3185,0.289,0.1814,0.4781,158.5468
19:56:00:169,-0.6221,1.139,7.6116,35.621,0.355,0.157,0.6051,157.8883
19:56:00:189,-0.8447,1.517,7.1857,34.5844,0.4148,0.1008,0.6723,157.1797
19:56:00:209,-1.8401,2.0076,7.7073,36.6397,0.4197,-0.0067,0.7359,156.3801
19:56:00:230,-1.5769,1.8544,8.3294,35.8468,0.4173,-0.3109,0.8703,155.5269
19:56:00:249,-0.0933,1.4716,8.0375,38.3922,0.526,-0.4905,1.0242,154.5968
19:56:00:269,0.5791,1.9382,7.5494,36.8608,0.6421,-0.1435,1.0804,153.5443
19:56:00:289,1.1581,2.6393,7.1857,37.9234,0.5444,0.3634,1.0767,152.3719
19:56:00:310,1.8401,3.3499,7.7001,37.8282,0.1815,0.6677,1.0254,151.1791
19:56:00:334,2.8881,3.527,8.7266,36.8939,-0.2058,0.7874,0.847,150.2115
19:56:00:354,3.1992,3.5055,9.9613,38.1504,-0.4672,0.7361,0.4524,149.6798
19:56:00:371,2.7972,3.1777,11.397,37.6457,-0.6737,0.3573,-0.1071,150.7159
19:56:00:389,1.3137,1.7492,12.5145,37.5255,-0.78,-0.4783,-0.9196,151.85
19:56:00:409,0.6269,1.2036,12.1723,38.8893,-0.6126,-0.4575,-0.9599,153.0794
19:56:00:428,0.323,1.1174,11.4832,39.2413,-0.3658,-0.234,-0.7314,154.0266
19:56:00:454,0.8207,1.2897,10.9687,39.6749,-0.2229,0.0006,-0.3747,154.527
19:56:00:469,1.7228,1.2706,11.0333,39.7437,-0.2901,0.1277,-0.1242,154.7856
19:56:00:500,2.1966,1.1342,11.5741,39.1633,-0.4892,0.1191,-0.1548,155.0881
19:56:00:508,1.7803,0.8423,12.3206,40.1568,-0.6431,0.0311,-0.36,155.6185
19:56:00:532,1.1821,0.4116,12.2919,42.0354,-0.5821,-0.036,-0.4859,156.3102
19:56:00:548,0.8303,0.0072,11.4018,39.6417,-0.2864,-0.0018,-0.4186,156.8942
19:56:00:569,0.7513,-0.0526,10.0211,41.2681,0.107,0.1289,-0.2073,157.2062
19:56:00:587,1.0528,0.1819,8.7984,41.4409,0.4063,0.2364,0.059,157.232
19:56:00:608,1.596,0.4068,7.7815,41.5028,0.5175,0.2449,0.2643,157.0524
19:56:00:628,1.9669,0.5767,7.0181,42.7253,0.4759,0.2498,0.3266,156.833
19:56:00:652,1.9956,0.7753,6.6185,40.8491,0.3147,0.2511,0.2521,156.6771
19:56:00:670,1.8951,1.1079,6.81,42.3659,0.0373,0.146,0.0737,156.7178
19:56:00:689,1.4788,1.2634,7.5326,42.8703,-0.2473,-0.0079,-0.1425,157.005
19:56:00:708,1.2443,1.1222,8.1523,44.3892,-0.411,-0.1545,-0.3282,157.5217
19:56:00:730,1.1366,1.1725,8.5615,42.3995,-0.4184,-0.1998,-0.4125,158.1348
19:56:00:749,1.1174,1.3711,8.6142,44.1966,-0.3182,-0.0935,-0.3942,158.7203
19:56:00:770,1.1701,1.6798,8.5089,45.8603,-0.2082,0.0507,-0.3392,159.2087
19:56:00:790,1.2825,1.8999,8.5041,43.5291,-0.152,0.1044,-0.3221,159.6839
19:56:00:810,1.328,2.0411,8.7841,43.1454,-0.1447,0.0531,-0.3563,160.2106
19:56:00:836,1.3065,2.0387,9.2052,44.4469,-0.1545,-0.0421,-0.4125,160.8065
19:56:00:852,1.206,1.9597,9.8704,44.1181,-0.1337,-0.1216,-0.4797,162.04
19:56:00:870,0.8782,2.0435,10.0905,44.8076,-0.1142,-0.0825,-0.4834,162.696
19:56:00:889,0.4834,2.1176,9.9709,43.5026,-0.108,0.0482,-0.4455,163.2929
19:56:00:908,0.1675,2.1655,10.0881,45.1771,-0.1129,0.2657,-0.3246,163.7056
19:56:00:931,0.0622,2.2636,10.5954,45.6082,-0.1166,0.35,-0.1474,163.9152
19:56:00:952,-0.3254,2.5484,11.0357,45.4169,-0.0848,0.1936,-0.0033,163.9689
19:56:00:969,-0.7537,2.4837,11.3252,45.1517,0.0349,-0.0287,0.1091,163.8886
19:56:00:988,-0.5695,2.0172,11.0477,45.8535,0.2304,-0.2401,0.2301,163.767
19:56:01:008,-0.2943,1.864,10.7222,47.4271,0.4002,-0.3818,0.3278,163.5656
19:56:01:029,-0.2967,2.0985,10.7103,47.8677,0.3929,-0.3928,0.3803,163.3201
19:56:01:052,-0.1914,2.1344,11.0812,47.0742,0.1729,-0.2841,0.4231,162.9908
19:56:01:069,0.1627,1.5888,12.0479,46.1523,-0.1581,-0.2816,0.4573,162.6521
19:56:01:089,0.9667,1.0146,13.1868,47.293,-0.455,-0.5968,0.4145,162.4294
19:56:01:109,1.5218,0.6748,13.395,47.8033,-0.4819,-0.7886,0.3254,162.311
19:56:01:129,1.1174,0.4594,12.1532,46.7937,-0.1435,-0.3879,0.2618,162.2128
19:56:01:152,0.2249,0.39,10.4782,46.3915,0.344,0.2706,0.2447,161.9998
19:56:01:169,-0.0502,0.5025,8.8056,46.8814,0.6653,0.5259,0.2264,161.7787
19:56:01:189,-0.3278,0.8207,7.7671,47.5943,0.6775,0.4086,0.1788,161.6151
19:56:01:208,-0.4068,1.0959,7.8461,48.0082,0.4332,0.2193,0.147,161.5311
19:56:01:230,0.067,0.9284,8.4969,47.8359,0.0813,-0.0825,0.1165,161.5522
19:56:01:251,0.4092,0.6604,9.21,47.8237,-0.1716,-0.2999,0.037,161.6814
19:56:01:268,0.1101,0.5791,9.5952,50.1033,-0.2253,-0.2498,-0.0704,161.8878
19:56:01:288,-0.4283,0.4762,9.265,49.4047,-0.1264,-0.0531,-0.1096,162.0739
19:56:01:310,-0.8638,0.5982,7.9178,48.5343,0.1803,0.2804,0.1934,161.8169
19:56:01:332,-0.4977,0.8973,7.2168,50.8494,0.3037,0.3476,0.4378,161.3229
19:56:01:501,0.0455,1.2634,6.798,50.5817,0.3452,0.3879,0.6015,160.675
19:56:01:502,0.481,1.7061,6.8243,51.7214,0.2609,0.3732,0.6442,159.9863
19:56:01:503,0.6389,2.0626,7.1641,50.6273,0.0801,0.3146,0.5783,159.4062
19:56:01:504,0.5073,2.211,7.8604,49.5516,-0.1117,0.2205,0.4353,158.9468
19:56:01:505,-0.1029,2.1918,8.808,48.9157,-0.2278,0.0446,0.2814,158.6663
19:56:01:506,-1.1581,2.3043,9.8704,49.3025,-0.2021,-0.2401,0.2215,158.4621
19:56:01:507,-1.4477,2.1966,10.739,49.3648,-0.0189,-0.6897,0.3254,158.2721
19:56:01:508,-0.4857,1.6247,10.8802,48.0758,0.2951,-1.0489,0.516,157.9879
19:56:01:509,0.6628,1.4213,10.2652,48.5623,0.6006,-1.0354,0.6809,157.5582
19:56:01:529,1.4142,1.7324,9.734,50.1753,0.6763,-0.6518,0.775,156.9575
19:56:01:551,1.9238,1.9047,9.4971,47.9961,0.4246,-0.124,0.7811,156.284
19:56:01:570,2.2134,1.9693,9.9948,49.4195,-0.0714,0.2828,0.6674,155.6737
19:56:01:588,2.601,1.7085,11.0453,50.6444,-0.6065,0.4184,0.483,155.2711
19:56:01:608,2.8762,1.4931,12.3183,48.8283,-0.9901,0.35,0.2912,155.0904
19:56:01:629,3.2734,1.1916,13.3232,49.5532,-1.1318,0.1961,0.1238,155.1222
19:56:01:649,3.6634,0.5743,13.8018,51.0519,-1.0414,0.0788,-0.0668,155.4358
19:56:01:671,3.3188,-0.0359,13.0792,51.0167,-0.8166,0.0373,-0.3478,156.0605
19:56:01:690,1.6223,-0.201,12.1962,49.4641,-0.5857,0.1912,-0.6349,156.8818
19:56:01:709,0.3446,-0.4666,11.4377,49.5532,-0.3951,0.3439,-0.6862,157.733
19:56:01:737,0.4307,-0.8662,10.5715,50.1154,-0.1557,0.3647,-0.4089,158.2794
19:56:01:760,1.1916,-0.7513,9.8082,50.0855,0.1754,0.3586,0.0309,158.4099
19:56:01:776,2.7135,0.0502,9.1071,50.3973,0.7044,0.1081,0.4891,158.1821
19:56:01:789,2.8475,0.4379,9.1573,49.4641,0.7313,-0.2963,0.2973,157.661
19:56:01:808,2.6991,0.3613,8.8247,50.466,0.6812,-0.6799,-0.0766,158.0306
19:56:01:829,1.8185,0.3781,8.1212,49.4194,0.6176,-0.6897,-0.4284,158.76
19:56:01:853,0.7035,0.5551,7.535,47.647,0.5236,-0.3525,-0.6044,159.5937
19:56:01:870,0.1579,0.6915,6.9823,49.5599,0.3953,0.0458,-0.5579,160.3093
19:56:01:889,0.4307,0.926,6.6544,49.5751,0.2768,0.4172,-0.3563,160.7519
19:56:01:908,0.9715,1.4524,6.609,49.8852,0.1754,0.6725,-0.1487,160.9326
19:56:01:928,1.3591,2.1392,6.8961,49.9732,0.0703,0.7275,-0.0375,161.006
19:56:01:951,1.5984,2.6512,7.3938,50.6957,-0.0457,0.609,-0.0399,161.0891
19:56:01:969,1.7468,2.8833,8.0136,49.9493,-0.1361,0.3793,-0.1535,161.3705
19:56:01:988,1.6415,2.991,8.6525,49.8476,-0.1752,0.1179,-0.3783,161.8928
19:56:02:008,1.2514,2.9408,9.5139,51.2335,-0.1691,-0.1008,-0.6251,162.7267
19:56:02:032,0.9523,2.8379,10.191,51.2624,-0.1374,-0.2889,-0.7656,163.7271
19:56:02:048,0.5599,2.8355,10.6648,51.0462,-0.0799,-0.3561,-0.7595,164.7083
19:56:02:073,-0.0407,3.0389,10.9998,51.0742,0.0043,-0.2474,-0.6508,165.5474
19:56:02:088,-0.1627,3.07,11.3587,49.9739,0.1021,-0.0727,-0.4639,166.1426
19:56:02:108,0.1603,3.0317,11.7272,50.5691,0.212,0.0275,-0.2317,166.5178
19:56:02:128,0.402,3.2231,11.8086,51.1032,0.3452,0.0373,-0.0094,166.6249
19:56:02:153,0.7418,3.1585,11.5071,50.7586,0.5053,0.0812,0.1824,166.5457
19:56:02:172,1.0887,3.0317,10.7605,49.843,0.6519,0.1521,0.2887,166.3562
19:56:02:188,0.8375,3.1801,9.9828,49.4213,0.7007,0.2168,0.2521,166.1669
19:56:02:208,0.0024,3.3117,9.1047,50.5651,0.6201,0.3537,0.1678,165.9965
19:56:02:228,-1.2395,3.0987,9.0736,50.2781,0.1937,0.6151,0.2301,165.7775
19:56:02:251,-0.8423,2.1512,9.9805,49.6496,-0.0592,0.1765,0.307,165.0258
19:56:02:272,-0.7011,1.943,10.4471,49.5954,-0.1508,-0.4184,0.3486,164.8494
19:56:02:290,-0.2752,1.7803,10.5667,50.3489,0.0056,-0.5602,0.4671,164.5796
19:56:02:308,0.3206,1.7444,10.2078,48.9589,0.2352,-0.5516,0.5514,164.2437
19:56:02:328,0.8207,1.718,9.6144,50.2643,0.3477,-0.6151,0.4646,164.0549
19:56:02:351,0.8853,1.5816,9.2219,48.5274,0.2841,-0.565,0.2826,164.0394
19:56:02:369,0.8853,1.2371,9.1334,51.7441,0.0935,-0.4331,0.1055,164.1827
19:56:02:388,0.9308,0.7131,9.1549,49.8398,-0.0897,-0.3024,-0.0509,164.5134
19:56:02:408,0.7753,0.536,9.0664,48.6018,-0.2119,-0.1875,-0.1926,164.9178
19:56:02:430,0.4379,0.5168,8.8008,50.8828,-0.2913,-0.0275,-0.2684,165.3249
19:56:02:448,-0.0215,0.469,8.5232,50.2428,-0.3292,0.1582,-0.2684,165.6704
19:56:02:467,-0.3757,0.5073,8.4347,51.2118,-0.3121,0.2657,-0.1926,165.93
19:56:02:489,-0.3493,0.7107,8.1859,50.5873,-0.2314,0.2229,-0.0387,166.0018
19:56:02:507,0.0431,1.0337,7.9657,49.6529,-0.1203,0.113,0.158,165.9021
19:56:02:529,0.5049,1.474,7.6666,48.1439,-0.0702,0.0079,0.2985,165.6938
19:56:02:549,0.5551,2.1129,7.7216,47.4968,-0.1679,-0.0202,0.318,165.4576
19:56:02:568,0.39,2.4957,8.3127,50.5452,-0.389,0.0727,0.2337,165.2679
19:56:02:588,0.3206,2.3665,8.9492,49.06,-0.5943,0.1716,0.1201,165.1958
19:56:02:608,0.2106,2.1799,9.3416,50.6167,-0.6468,0.2449,0.0603,165.1674
19:56:02:630,0.1914,2.3833,9.4636,49.7976,-0.5417,0.2963,0.1103,165.0704
19:56:02:654,0.6174,2.4885,9.7364,49.3136,-0.3756,0.2804,0.2313,164.8856
19:56:02:683,1.1677,2.5914,9.9087,49.5934,-0.2351,0.1472,0.285,164.6062
19:56:02:695,1.797,2.3354,10.1264,50.8463,-0.0934,-0.1203,0.081,164.5753
19:56:02:708,2.3952,1.943,10.2221,50.9437,-0.1105,-0.2547,-0.0815,164.9094
19:56:02:726,2.9145,1.718,10.4973,49.7716,-0.2216,-0.4343,-0.2745,165.4694
19:56:02:747,3.7113,1.2849,11.074,50.0137,-0.4232,-0.6775,-0.4956,166.3508
19:56:02:766,4.4937,0.9906,12.1508,49.4678,-0.6932,-1.0061,-0.7876,167.6072
19:56:02:786,4.7976,0.3493,13.06,50.1688,-0.9632,-1.2346,-1.1358,169.2501
19:56:02:808,3.5486,-0.2201,13.9573,49.7765,-1.1331,-1.1906,-1.4424,171.1567
19:56:02:828,2.053,-0.5695,14.211,49.5677,-1.0683,-1.0171,-1.5426,173.0526
19:56:02:849,1.5362,-1.0337,13.6534,50.4698,-0.6529,-0.7507,-1.291,174.63
19:56:02:870,1.7372,-1.0672,12.4187,49.9864,0.0141,-0.4429,-0.7876,175.6426
19:56:02:890,2.2493,-0.6293,10.9854,50.0439,0.6885,-0.1998,-0.2537,176.0659
19:56:02:908,2.8092,-0.1771,9.7268,51.6217,1.1369,-0.0788,0.0993,176.1232
19:56:02:929,3.1131,0.2201,8.4084,51.9832,1.2725,0.0421,0.1849,176.0889
19:56:02:950,2.7876,0.5097,7.2909,51.4698,1.1283,0.273,0.0468,176.2112
19:56:02:969,1.9023,0.7442,6.6257,51.5422,0.7655,0.4978,-0.2024,176.5458
19:56:02:990,0.9811,0.9045,6.4391,49.7299,0.3379,0.6444,-0.3991,177.009
19:56:03:008,0.2943,1.0385,6.5731,49.8352,0.0154,0.7128,-0.4516,177.4614
19:56:03:028,0.0191,1.2203,6.7813,51.5422,-0.1129,0.6872,-0.3795,177.8265
19:56:03:052,0.2704,1.462,6.877,52.0049,-0.0824,0.6017,-0.2708,178.0975
19:56:03:072,0.792,1.8185,7.0971,50.8101,0.0178,0.5369,-0.2036,178.3507
19:56:03:090,0.9858,2.2947,7.3077,49.746,0.085,0.5125,-0.2281,178.6315
19:56:03:108,0.8997,2.5579,7.736,51.144,0.0495,0.4416,-0.3368,179.0316
19:56:03:128,0.8471,2.4646,8.1882,50.1905,-0.0579,0.2596,-0.4602,179.6206
19:56:03:152,0.9667,2.1464,9.3248,49.7116,-0.1593,0.1325,-0.5188,180.8517
19:56:03:170,0.8112,2.2038,9.7053,51.4601,-0.1557,0.2474,-0.4577,181.4045
19:56:03:192,0.4522,2.4311,9.9015,50.7543,-0.1606,0.4429,-0.3783,181.8639
19:56:03:209,-0.0622,2.735,10.1862,52.3291,-0.1655,0.7128,-0.2476,182.0803
19:56:03:226,-0.0359,2.7517,10.5476,51.1135,-0.1459,0.912,-0.0534,182.0785
19:56:03:249,-0.0574,2.7757,10.9304,51.9379,-0.0921,0.9645,0.1287,181.8763
19:56:03:267,-0.1316,2.9408,11.1242,53.0907,-0.0042,0.8631,0.2582,181.558
19:56:03:288,0.0861,2.7374,11.2343,52.7526,0.129,0.6848,0.34,181.1978
19:56:03:308,0.0287,2.7182,11.0453,51.2082,0.2585,0.4502,0.3193,180.8959
19:56:03:328,-0.6485,2.8833,10.5954,52.6591,0.3183,0.2523,0.2325,180.6969
19:56:03:349,-1.2921,2.8857,10.3992,52.2493,0.2462,0.1582,0.1873,180.5364
19:56:03:370,-1.206,2.3545,10.94,51.0259,0.041,0.0348,0.1971,180.4037
19:56:03:387,-0.7418,1.3615,12.2034,52.9333,-0.2363,-0.3573,0.1543,180.3843
19:56:03:408,-0.7489,1.3161,13.0146,53.3548,-0.4257,-0.8876,0.0578,180.5717
19:56:03:427,-1.3711,0.9787,12.213,51.0422,-0.2681,-0.763,0.0969,180.6529
19:56:03:453,-2.1918,0.4044,10.4255,53.0532,0.1986,-0.0079,0.3767,180.278
19:56:03:473,-2.534,0.6796,8.9516,53.9154,0.6006,0.4881,0.7945,179.3159
19:56:03:491,-1.9693,1.4189,8.3151,54.1279,0.6934,0.3757,1.1757,177.9586
19:56:03:617,-0.3805,1.8616,8.6118,54.7041,0.5407,0.0543,1.4127,176.505
19:56:03:618,1.0265,1.9573,9.0808,53.3372,0.3122,-0.1533,1.3479,175.2256
19:56:03:618,1.2778,1.9813,9.2626,53.5565,0.1131,-0.1643,0.9362,174.4169
19:56:03:619,0.3541,1.5769,9.1358,51.2082,-0.0103,-0.0324,0.4084,174.0525
19:56:03:619,-1.2419,0.9093,9.0066,51.6369,0.008,0.1521,0.0334,174.006
19:56:03:620,-1.2873,1.0863,8.9348,52.3521,0.1241,0.0837,0.1971,173.6996
19:56:03:631,-0.8901,1.2969,8.3797,51.5071,0.3171,0.1044,0.4231,173.3053
19:56:03:651,-0.6963,1.5936,7.5781,54.3166,0.5077,0.2706,0.5416,172.7418
19:56:03:669,-0.5719,1.9478,6.9942,51.6171,0.548,0.3928,0.5331,172.1295
19:56:03:688,-0.5934,2.2875,6.8937,52.3551,0.4112,0.4367,0.4793,171.5678
19:56:03:705,-0.4881,2.5412,7.1809,51.4635,0.1876,0.4563,0.4194,171.0625
19:56:03:727,-0.347,2.7541,7.7958,52.8193,-0.0299,0.4306,0.3767,170.6198
19:56:03:753,-0.1675,2.9599,8.4491,52.7505,-0.1691,0.3732,0.3461,170.2347
19:56:03:768,-0.1149,3.0915,8.9324,52.5654,-0.207,0.3353,0.3119,169.9225
19:56:03:789,0,3.0556,9.5306,52.4177,-0.1874,0.2217,0.2582,169.7078
19:56:03:809,0.3709,2.9312,10.325,53.6764,-0.1838,-0.0922,0.147,169.6944
19:56:03:826,0.67,2.6608,11.1649,53.2316,-0.185,-0.4844,-0.0118,169.9586
19:56:03:848,0.6437,2.3497,11.7512,52.8193,-0.1508,-0.8094,-0.1621,170.4554
19:56:03:865,0.4977,2.1535,11.8995,53.5137,-0.0579,-0.9951,-0.233,171.064
19:56:03:885,0.8159,2.0794,11.7153,53.5416,0.0483,-1.022,-0.2012,171.6466
19:56:03:905,1.3711,2.1727,11.519,51.8794,0.0715,-0.9218,-0.134,172.1348
19:56:03:926,1.9214,2.1966,11.5143,51.8965,-0.0409,-0.7569,-0.1169,172.5883
19:56:03:946,2.4742,1.9095,11.6602,54.5153,-0.2155,-0.5675,-0.1584,173.05
19:56:03:967,2.8714,1.3041,11.5262,53.2843,-0.3072,-0.3586,-0.2452,173.5631
19:56:03:987,2.3617,0.9763,10.6457,53.3656,-0.2485,-0.0556,-0.3637,174.1093
19:56:04:007,1.6391,0.7849,9.7364,52.7075,-0.1349,0.3036,-0.4309,174.6449
19:56:04:026,1.0193,0.8495,9.3248,51.3266,-0.1007,0.4502,-0.393,175.0685
19:56:04:048,0.9476,0.8829,9.2865,53.2434,-0.1215,0.0006,-0.1376,175.3956
19:56:04:067,0.9212,0.9739,8.4897,54.6084,0.0141,-0.0409,-0.0497,175.5581
19:56:04:088,0.7537,1.0696,7.3914,54.1014,0.14,0.1423,-0.0277,175.7084
19:56:04:107,0.481,1.2179,6.609,52.8893,0.107,0.2743,-0.046,175.9226
19:56:04:126,0.268,1.4261,6.5468,52.4177,-0.097,0.2657,-0.1059,176.0908
19:56:04:149,0.0311,1.651,7.2957,53.1373,-0.3793,0.1484,-0.1951,176.3413
19:56:04:168,0.012,1.5099,8.3103,52.7026,-0.6016,-0.0153,-0.2855,176.7291
19:56:04:187,-0.1149,1.3208,8.9085,52.183,-0.6163,-0.1191,-0.3502,177.1888
19:56:04:209,-0.4451,1.3185,8.7864,53.9078,-0.4587,-0.0984,-0.3869,177.6767
19:56:04:229,-0.6461,1.3519,8.3653,53.9078,-0.3072,0.0751,-0.3844,178.1127
19:56:04:253,-0.4211,1.4764,8.1691,51.7047,-0.3157,0.3085,-0.3466,178.474
19:56:04:269,-0.0239,1.5314,8.7171,52.1389,-0.4892,0.5064,-0.3063,178.814
19:56:04:288,0.4211,1.5864,9.8919,54.8923,-0.7128,0.5724,-0.2904,179.1543
19:56:04:307,0.5767,1.663,11.0094,53,-0.7934,0.5223,-0.2672,179.4778
19:56:04:326,0.4881,1.7444,11.5334,53.5779,-0.6175,0.4111,-0.2134,179.7564
19:56:04:347,0.3613,1.8329,11.141,56.0226,-0.24,0.2767,-0.1328,179.9742
19:56:04:369,0.2034,2.0961,10.1862,54.5207,0.1595,0.2303,-0.0497,180.1051
19:56:04:389,0.2225,2.3521,9.7292,53.6756,0.3403,0.2132,0.0322,180.1374
19:56:04:413,0.3302,2.4981,10.0307,53.5641,0.2401,0.1167,0.0993,180.1185
19:56:04:428,0.5671,2.5268,10.7749,52.0189,0.0337,-0.0238,0.1409,180.0717
