Time,Acc_X,Acc_Y,Acc_Z,Meg,Gyr_X,Gyr_Y,Gyr_Z,Ore
19:48:52:958,-0.8853,1.7779,9.4875,65.5938,-0.4218,-0.6494,-0.2379,240.1742
19:48:52:975,-0.8853,1.7779,9.4875,66.8287,-0.5965,-0.7069,-0.4297,68.9349
19:48:52:989,-0.8853,1.7779,9.4875,65.8714,-0.5965,-0.7069,-0.4297,69.2705
19:48:53:007,-0.3541,1.8999,9.8154,66.37,-0.5965,-0.7069,-0.4297,69.0875
19:48:53:026,-0.5049,1.8473,10.1121,67.2129,-0.2385,0.053,0.0431,68.7678
19:48:53:045,-0.5432,1.809,10.1264,63.8722,-0.1823,0.0262,0.0406,68.5692
19:48:53:067,-0.4929,1.8784,10.0403,65.5813,-0.0613,0.0811,0.076,68.2502
19:48:53:084,-0.5264,1.9454,9.9541,66.009,0.0266,0.1251,0.1054,67.9178
19:48:53:105,-0.3972,1.7683,9.8273,65.5079,0.0791,0.0787,0.0956,67.7327
19:48:53:124,-0.5551,1.718,9.7005,65.5813,0.1341,0.0591,0.0516,67.6961
19:48:53:142,-0.8327,1.7539,9.4158,66.37,0.1488,0.0677,0.0162,67.698
19:48:53:164,-1.072,1.8161,9.4971,65.8758,0.0889,0.0787,0.0186,67.744
19:48:53:185,-1.1821,1.8329,9.7962,65.4179,-0.0186,0.0848,0.0394,67.7669
19:48:53:203,-1.1198,1.7659,9.9326,65.3,-0.0797,0.0934,0.0736,67.7794
19:48:53:223,-1.2179,1.7659,9.935,65.5306,-0.0638,0.1263,0.0919,67.744
19:48:53:244,-1.3902,1.8736,9.813,65.6534,-0.0064,0.1593,0.1212,67.6271
19:48:53:267,-1.3208,1.9023,9.7053,66.1757,0.04,0.1496,0.164,67.4481
19:48:53:296,-1.2179,1.8664,9.7197,64.175,0.0571,0.0982,0.1811,67.2386
19:48:53:303,-1.2156,1.8425,9.7436,68.0179,0.062,0.053,0.1799,67.0425
19:48:53:326,-1.0792,1.8401,9.5186,65.3784,0.0865,0.0457,0.1909,66.8315
19:48:53:346,-1.0289,1.9549,9.3559,65.5823,0.1011,0.0836,0.1933,66.5753
19:48:53:377,-1.0696,1.9932,9.3177,65.1755,0.0718,0.1324,0.1799,66.2888
19:48:53:387,-1.0696,1.9765,9.3296,65.8439,0.0413,0.1496,0.175,66.0179
19:48:53:415,-0.9787,1.943,9.2554,65.4396,0.051,0.1349,0.1677,65.7523
19:48:53:425,-0.8614,1.9717,9.1621,66.2493,0.0791,0.1007,0.1579,65.5175
19:48:53:445,-0.6724,1.9789,9.0329,65.3338,0.062,0.0481,0.1298,65.2946
19:48:53:465,-0.6724,1.8831,9.1669,66.2494,-0.0064,0.0396,0.0797,65.1573
19:48:53:492,-0.8806,1.8831,9.4469,65.081,-0.0858,0.0323,0.0321,65.0842
19:48:53:504,-1.0552,1.8042,9.7005,65.4487,-0.1176,0.0091,0.0199,65.0725
19:48:53:523,-1.0911,1.7707,9.5665,67.0885,-0.0662,0.0164,0.0479,65.0404
19:48:53:545,-0.9428,1.919,9.2363,64.2079,0.0095,0.0396,0.0919,64.8798
19:48:53:583,-0.7585,1.9908,9.0473,66.0942,0.0095,0.0543,0.1041,64.7281
19:48:53:588,-1.1462,1.9884,9.3703,65.4152,-0.1469,0.0017,0.0333,64.5502
19:48:53:606,-1.1486,1.919,9.4182,66.6648,-0.1383,0.003,0.0394,64.4974
19:48:53:625,-0.9811,1.9597,9.3177,64.343,-0.1004,-0.0007,0.0541,64.3933
19:48:53:650,-0.9739,1.9908,9.399,65.4153,-0.1004,0.003,0.0492,64.3004
19:48:53:664,-1.0074,1.9573,9.6407,64.6152,-0.1224,-0.0105,0.0284,64.2512
19:48:53:682,-1.0361,1.9478,9.6957,65.4396,-0.1053,-0.0276,0.0064,64.1993
19:48:53:704,-1.0217,1.8855,9.4828,65.264,-0.054,-0.0019,-0.0119,64.2273
19:48:53:724,-0.8949,1.931,9.2315,65.3369,-0.0467,0.0164,-0.0315,64.2226
19:48:53:743,-0.9356,1.8544,9.4564,66.3294,-0.1249,0.0176,-0.0657,64.2647
19:48:53:765,-1.017,1.7492,9.7579,65.7523,-0.2214,-0.0019,-0.1096,64.3956
19:48:53:791,-1.0792,1.7013,9.923,67.4433,-0.2287,-0.008,-0.1231,64.5314
19:48:53:809,-1.139,1.8042,9.9159,64.218,-0.1481,0.0188,-0.0938,64.598
19:48:53:823,-1.0983,1.8688,9.7484,66.1774,-0.0443,0.0433,-0.0571,64.6293
19:48:53:844,-0.9093,1.8927,9.3703,65.2664,0.0388,0.0824,-0.04,64.6055
19:48:53:866,-0.9117,1.9214,9.0712,65.8057,0.0474,0.097,-0.0718,64.6025
19:48:53:883,-0.9308,1.9238,8.9874,64.6903,-0.0345,0.064,-0.1194,64.662
19:48:53:905,-1.1174,1.931,9.1478,65.8105,-0.1432,0.0298,-0.1475,64.7851
19:48:53:924,-1.194,1.9908,9.3009,67.3432,-0.1835,0.0396,-0.1377,64.8536
19:48:53:946,-1.2682,2.0746,9.3799,65.264,-0.142,0.0909,-0.1048,64.8877
19:48:53:965,-1.2658,2.0937,9.4229,63.2513,-0.0809,0.0885,-0.0852,64.9205
19:48:53:986,-1.1079,2.0219,9.0664,65.4152,-0.0052,0.0701,-0.073,64.9334
19:48:54:003,-1.4309,2.2421,8.863,65.1703,0.0388,0.0787,-0.0766,64.9495
19:48:54:025,-2.01,2.4766,9.4756,64.7513,-0.0211,0.0042,-0.029,64.9387
19:48:54:051,-2.0339,2.3402,9.6215,67.1886,0.0229,-0.0007,-0.0143,64.8951
19:48:54:067,-1.9358,2.3043,9.3799,67.578,0.128,0.0249,-0.0034,64.8434
19:48:54:084,-1.8879,2.4024,9.2004,66.1774,0.1585,-0.0019,-0.0058,64.8068
19:48:54:103,-1.8927,2.522,9.1837,66.8298,0.0657,-0.0593,-0.0388,64.7931
19:48:54:123,-1.8497,2.6273,9.1861,66.2493,-0.0846,-0.0496,-0.0828,64.8458
19:48:54:148,-1.943,2.7852,9.2961,67.5236,-0.2226,0.0017,-0.1158,64.912
19:48:54:165,-1.7994,2.7589,9.4899,66.7558,-0.3191,0.0213,-0.1402,64.9604
19:48:54:202,-1.785,2.7087,9.6359,66.6695,-0.3314,0.0421,-0.1732,65.0686
19:48:54:216,-2.1799,2.6393,9.6526,69.4963,-0.2764,0.0872,-0.1964,65.2257
19:48:54:222,-2.5268,2.7135,9.3966,66.2494,-0.1774,0.097,-0.1451,65.3052
19:48:54:242,-2.4981,2.8068,8.7769,65.0152,-0.0479,0.1141,-0.0253,65.2398
19:48:54:266,-2.2804,3.0341,8.1954,70.0275,0.0266,0.1373,0.0822,65.0155
19:48:54:282,-2.0889,3.2327,8.126,68.4389,-0.0186,0.1068,0.1249,64.7202
19:48:54:301,-2.0267,3.2638,8.595,70.3661,-0.1078,0.0164,0.1005,64.4775
19:48:54:321,-2.1081,3.082,9.131,70.5863,-0.1432,-0.1192,0.0186,64.377
19:48:54:342,-2.3282,2.9264,9.4971,70.7112,-0.065,-0.2084,-0.0351,64.3685
19:48:54:363,-2.2445,2.7948,9.1956,69.0143,0.0694,-0.2365,-0.0241,64.3662
19:48:54:385,-2.1152,2.7159,9.0233,69.5743,0.1353,-0.2072,-0.0107,64.359
19:48:54:404,-2.2756,2.6728,9.3129,69.9264,0.0669,-0.2512,-0.0486,64.4191
19:48:54:423,-2.2947,2.4957,9.6909,69.6821,-0.0198,-0.278,-0.0815,64.538
19:48:54:446,-2.1942,2.1224,10.1456,70.9562,-0.0662,-0.267,-0.095,64.6936
19:48:54:466,-2.1272,1.8161,10.8299,69.7942,-0.0919,-0.311,-0.0754,64.8752
19:48:54:487,-1.8185,1.7659,12.3302,70.2952,-0.0504,-0.3391,0.0883,65.0073
19:48:54:504,-1.3161,1.9358,12.2321,70.6499,0.0718,-0.2243,0.186,64.8719
19:48:54:523,-0.7202,1.9382,12,69.7304,0.1622,-0.1216,0.2165,64.67
19:48:54:551,-0.0431,1.5529,11.8517,69.825,0.161,-0.1302,0.1335,64.5739
19:48:54:570,0.0574,1.1222,12.2273,69.9254,0.0901,-0.3,-0.0876,64.7722
19:48:54:587,-0.0885,0.615,12.5671,70.3513,0.0266,-0.5578,-0.3222,65.3028
19:48:54:603,-0.0694,0.3063,12.201,69.7061,0.0877,-0.6543,-0.4114,65.98
19:48:54:623,0.2153,0.1962,10.7533,69.7528,0.2392,-0.4809,-0.3662,66.5608
19:48:54:643,0.4068,0.5192,9.0497,70.3946,0.3039,-0.1021,-0.288,66.9533
19:48:54:665,0.3996,0.6245,7.9274,71.5715,0.2001,0.2534,-0.2648,67.2274
19:48:54:684,0.1172,0.7298,7.523,71.2594,0.0315,0.3841,-0.2685,67.4775
19:48:54:703,0.1723,0.6987,7.8915,70.0294,-0.1273,0.218,-0.255,67.7502
19:48:54:723,0.6413,0.7705,8.5831,69.4651,-0.2153,-0.0899,-0.2098,68.0287
19:48:54:744,1.0289,0.9188,8.8367,69.5388,-0.2141,-0.278,-0.1854,68.2866
19:48:54:762,1.3687,0.9787,8.9539,69.6132,-0.1346,-0.2353,-0.2061,68.54
19:48:54:783,1.34,1.0863,8.7912,67.1929,-0.0858,-0.1363,-0.2758,68.8585
19:48:54:803,0.8375,1.2682,8.6501,66.5462,-0.0613,-0.0471,-0.3833,69.2765
19:48:54:823,0.4738,1.3161,8.662,66.5159,-0.0479,-0.0251,-0.4823,69.813
19:48:54:844,0.3087,1.3472,8.4395,70.1691,0.0009,-0.0752,-0.5275,70.4093
19:48:54:865,0.1771,1.5242,7.8748,69.0248,0.0584,-0.1131,-0.5434,71.0056
19:48:54:886,0.1603,1.6247,7.7264,71.4833,0.0266,-0.1192,-0.5592,71.6164
19:48:54:903,-0.0838,1.7324,8.3103,71.3839,-0.0809,-0.1339,-0.5824,72.248
19:48:55:077,-0.1388,1.7611,8.8822,71.2229,-0.1615,-0.2084,-0.6032,72.9315
19:48:55:090,-0.7872,2.1152,9.7268,71.0547,-0.1359,-0.278,-0.5641,73.6177
19:48:55:091,-0.8423,2.2325,9.8848,70.6784,-0.0699,-0.2426,-0.4933,74.2454
19:48:55:092,-0.9308,2.3234,10.2724,67.5867,-0.0149,-0.1937,-0.4236,75.2654
19:48:55:093,-1.2347,2.4933,10.6241,67.013,0.0242,-0.1278,-0.3577,75.6494
19:48:55:094,-1.6176,2.7757,10.9017,69.1561,0.0804,-0.0044,-0.2721,75.9411
19:48:55:095,-1.3639,2.6369,10.9854,67.975,0.1647,0.13,-0.1475,76.0698
19:48:55:096,-1.0648,2.4742,11.019,69.0185,0.2306,0.1764,-0.0498,76.0682
19:48:55:097,-0.9834,2.388,11.2558,67.6779,0.2416,0.1899,-0.018,76.0446
19:48:55:107,-1.0935,2.1846,11.0213,67.4287,0.2685,0.2729,-0.0217,76.0233
19:48:55:130,-1.8281,2.1392,10.337,67.0476,0.3161,0.4122,-0.0449,76.0017
19:48:55:144,-2.2325,1.919,10.0905,67.4892,0.2392,0.4562,-0.04,75.9819
19:48:55:163,-2.0004,1.0983,10.7701,67.0768,0.029,0.2791,-0.018,76.0356
19:48:55:182,-1.7468,0.2632,12.4331,68.3743,-0.2409,-0.0801,-0.029,76.2188
19:48:55:202,-1.8616,-0.213,13.7468,68.4295,-0.39,-0.333,-0.0217,76.4639
19:48:55:223,-2.8163,0.0191,13.1438,68.1674,-0.1872,-0.118,0.0785,76.5651
19:48:55:245,-3.1657,0.3374,10.7414,66.6724,0.2685,0.4244,0.3607,76.2193
19:48:55:263,-2.6656,0.7418,8.0734,67.7878,0.6998,0.7702,0.7333,75.3575
19:48:55:283,-1.8688,1.2873,6.1615,68.7134,0.7865,0.5796,0.9251,74.2691
19:48:55:303,-1.005,1.4548,5.9222,65.7548,0.4872,0.0543,0.8689,73.3293
19:48:55:325,-0.8662,1.2347,7.3316,67.0476,-0.0125,-0.3892,0.5953,72.8252
19:48:55:342,-1.1725,0.5767,9.0568,68.334,-0.3888,-0.515,0.3057,72.7032
19:48:55:364,-1.7228,0.2297,9.9063,66.8509,-0.4877,-0.4576,0.1518,72.7441
19:48:55:385,-2.0913,0.2584,9.9446,65.1956,-0.39,-0.2719,0.1933,72.7153
19:48:55:410,-1.6271,1.0433,8.1165,67.0579,0.0107,0.3242,0.5684,72.3642
19:48:55:430,-1.5553,1.5673,7.2144,67.0898,0.1109,0.4208,0.6319,71.7188
19:48:55:448,-1.4644,1.8927,6.9512,67.2399,0.0877,0.3438,0.6307,70.2183
19:48:55:466,-1.3519,2.1751,7.054,68.3806,0.0217,0.1703,0.5843,69.5484
19:48:55:484,-1.4405,2.3785,7.59,68.0403,-0.043,0.0286,0.4975,68.9966
19:48:55:502,-1.3735,2.266,8.0375,66.2768,-0.0821,-0.0202,0.4242,68.5376
19:48:55:525,-1.2299,2.0937,8.394,67.2241,-0.1004,-0.0178,0.379,68.1665
19:48:55:546,-1.3854,1.9669,9.3535,67.6234,-0.1456,-0.0545,0.3253,67.8684
19:48:55:563,-1.5266,1.8808,10.3274,67.8505,-0.1566,-0.1717,0.2886,67.6376
19:48:55:583,-1.7874,1.9741,10.5356,66.8866,-0.0174,-0.2157,0.3045,67.3979
19:48:55:602,-1.7563,2.0865,10.6146,68.1771,0.1439,-0.2011,0.3534,67.1047
19:48:55:625,-1.2562,1.9717,10.6816,67.4259,0.2306,-0.2377,0.4071,66.7714
19:48:55:643,-0.3565,1.8114,10.6313,67.8659,0.2502,-0.3135,0.4218,66.4289
19:48:55:664,0.5121,1.474,10.9687,67.672,0.15,-0.3623,0.3766,66.157
19:48:55:682,0.7178,1.474,11.6626,67.352,-0.0846,-0.3184,0.2581,65.9937
19:48:55:702,0.3541,1.6008,12.2656,68.2277,-0.2825,-0.1119,0.1286,65.9346
19:48:55:724,0.3613,1.3208,12.3254,68.4409,-0.3362,0.0506,0.0528,65.925
19:48:55:743,0.7801,1.2251,12.1292,68.8187,-0.3277,0.0298,0.0235,65.9519
19:48:55:764,1.2275,1.0026,12.3565,67.0676,-0.335,-0.0093,-0.0095,66.0128
19:48:55:784,1.0744,0.9595,12.7131,67.5384,-0.3008,0.0347,-0.0705,66.1547
19:48:55:807,0.8853,0.9763,11.7894,68.7836,-0.0577,0.1715,-0.0913,66.2802
19:48:55:826,0.9523,0.8853,10.0522,67.2399,0.2771,0.2888,-0.0828,66.5017
19:48:55:846,1.06,0.7968,8.7936,68.9056,0.4041,0.2363,-0.1109,66.7373
19:48:55:868,1.017,0.6054,8.7482,67.4259,0.0681,-0.0349,-0.2782,67.0592
19:48:55:888,0.8064,0.5288,9.1813,67.2139,-0.0931,-0.0386,-0.3491,67.5077
19:48:55:902,0.4092,0.6461,8.8917,67.0318,-0.0943,0.0811,-0.3796,67.9821
19:48:55:922,0.0096,0.8782,8.1906,67.7777,-0.0198,0.2351,-0.3882,68.4176
19:48:55:946,-0.146,0.9906,7.5781,66.6585,0.0254,0.2619,-0.3955,68.8632
19:48:55:968,-0.2273,1.1055,7.1497,67.2152,0.04,0.1667,-0.4065,69.3217
19:48:55:984,-0.3398,1.194,7.0397,67.2314,0.0193,0.0323,-0.4261,69.8216
19:48:56:002,-0.5456,1.3304,7.6618,66.869,-0.0333,-0.0447,-0.4468,70.3535
19:48:56:024,-0.8519,1.3615,8.2768,68.0174,-0.0418,-0.0532,-0.4444,70.9095
19:48:56:043,-0.6078,1.4668,8.138,67.8058,0.04,-0.0435,-0.3845,71.391
19:48:56:063,-0.3805,1.7659,7.9059,67.7878,0.0828,-0.0166,-0.3295,71.7875
19:48:56:083,-0.5575,1.9095,8.6979,68.3471,-0.0076,-0.0056,-0.3418,72.1879
19:48:56:108,-0.9284,1.864,9.9589,67.6814,-0.0919,-0.0422,-0.365,72.6714
19:48:56:122,-1.1438,1.6463,10.4686,67.6072,-0.0076,-0.0581,-0.3173,73.1411
19:48:56:141,-1.1821,1.9454,10.0929,68.9517,0.1573,0.0481,-0.1854,73.4695
19:48:56:162,-1.6008,2.4215,9.9637,67.354,0.2025,0.2827,-0.0559,73.5479
19:48:56:183,-2.1081,2.7494,10.2197,68.9023,0.1427,0.4733,0.0321,73.4483
19:48:56:209,-1.5816,2.7781,10.0881,68.543,0.1231,0.477,0.1457,73.2212
19:48:56:227,-1.0935,2.9671,10.3226,67.72,0.0987,0.4049,0.2239,72.9109
19:48:56:246,-0.6939,2.9169,10.8299,68.2868,0.0364,0.3499,0.2227,72.6241
19:48:56:261,-0.4857,2.747,10.9567,68.7654,0.0181,0.334,0.1591,72.4032
19:48:56:282,-1.0433,2.7422,10.3179,68.4279,0.0303,0.367,0.0712,72.2741
19:48:56:307,-1.7492,2.6704,9.7555,68.4691,-0.0345,0.4782,-0.0058,72.2343
19:48:56:324,-2.0315,0.993,11.6866,68.2389,-0.4694,0.2045,-0.1866,72.2567
19:48:56:341,-3.0197,0.2153,13.5673,69.5435,-0.5879,-0.1962,-0.299,72.9844
19:48:56:361,-3.8405,0.146,13.0935,68.4987,-0.3216,-0.2023,-0.1732,73.3598
19:48:56:382,-3.4193,0.3422,10.2389,68.8268,0.1879,0.2094,0.175,73.2646
19:48:56:401,-2.6632,0.6556,7.9131,67.904,0.4615,0.4098,0.467,72.7993
19:48:56:424,-1.8951,0.7107,6.9105,68.7101,0.3516,0.1557,0.5427,72.2825
19:48:56:441,-1.9813,0.6078,6.9392,68.7659,0.0193,-0.1937,0.4181,71.9647
19:48:56:462,-2.6584,0.1172,7.3268,69.0191,-0.3705,-0.1204,0.2752,71.8199
19:48:56:481,-3.0604,-0.3757,7.4441,68.5817,-0.7186,0.3365,0.2471,71.642
19:48:56:501,-3.0317,-0.7035,7.6594,68.1568,-1.0277,0.8582,0.3118,71.3072
19:48:56:523,-2.9264,-0.5934,8.6405,68.9975,-1.2611,1.0781,0.3802,70.8762
19:48:56:542,-2.7015,-0.2536,9.813,68.7378,-1.2464,0.8618,0.4328,70.4062
19:48:56:562,-2.2804,0.256,10.0451,68.7076,-0.8738,0.4257,0.4743,69.9105
19:48:56:580,-2.3234,0.4187,9.2219,68.0871,-0.2971,0.0433,0.4426,69.4984
19:48:56:601,-2.6608,0.5121,7.6666,70.2175,0.1952,-0.1999,0.3729,69.2042
19:48:56:621,-2.7757,0.67,6.8506,68.1154,0.3601,-0.3929,0.3179,68.9987
19:48:56:641,-2.601,0.6054,7.0445,68.1191,0.2502,-0.4809,0.3021,68.809
19:48:56:660,-2.6776,0.5527,7.9514,68.1271,0.0339,-0.421,0.2935,68.6132
19:48:56:681,-2.522,0.6221,9.009,70.8229,-0.1676,-0.2512,0.3387,68.3548
19:48:56:701,-2.0842,0.5527,9.7149,69.015,-0.2556,-0.0752,0.3986,68.0138
19:48:56:722,-1.7898,0.4116,9.9398,68.8003,-0.2629,0.0164,0.401,67.6592
19:48:56:741,-1.7109,0.3015,9.801,72.3986,-0.2788,0.0506,0.3485,67.3521
19:48:56:761,-1.931,0.1675,10.5787,70.5536,-0.423,0.1092,0.2691,67.1416
19:48:56:782,-1.5362,-0.4259,13.0074,69.3775,-0.5879,0.0506,0.2581,66.9785
19:48:56:805,-1.4955,-0.1675,13.5003,69.3458,-0.4523,-0.2536,0.23,66.5707
19:48:56:825,-0.5551,-0.8853,13.5386,70.2443,-0.2507,-0.5212,0.1494,66.5581
19:48:56:843,-0.4068,-1.8281,13.6654,69.1187,-0.1041,-0.724,-0.0095,66.7666
19:48:56:863,-1.5194,-2.1703,14.0052,67.5484,-0.0626,-0.8132,-0.1854,67.1775
19:48:56:884,-3.0915,-1.663,14.0507,69.7674,-0.0149,-0.6128,-0.1561,67.5538
19:48:56:905,-2.455,-1.3328,12.457,68.4343,0.2062,-0.2353,0.2141,67.4854
19:48:56:923,-0.9021,-0.8758,10.3657,69.0631,0.4518,0.0469,0.6441,66.922
19:48:56:943,0.2991,-0.4546,9.4277,68.7438,0.4799,0.1019,0.8201,66.1202
19:48:56:961,0.5719,-0.213,9.746,70.6375,0.365,-0.0789,0.7187,65.4289
19:48:56:985,0.8758,-0.4905,10.3155,68.1271,0.2954,-0.4149,0.4963,65.0251
19:48:57:005,1.0265,-0.4762,10.7773,71.6347,0.3626,-0.6678,0.2898,64.868
19:48:57:024,0.8231,-0.189,10.5571,71.969,0.5654,-0.6751,0.1273,64.9064
19:48:57:040,0.0479,0.2369,9.4732,70.8262,0.8696,-0.3648,0.0015,65.0672
19:48:57:060,-0.7322,0.5838,7.389,71.2001,1.1457,-0.3061,-0.0718,65.3115
19:48:57:156,-0.1268,0.9045,5.616,71.5067,1.1995,-0.5407,-0.04,65.5398
19:48:57:156,0.4881,1.5242,5.1517,70.4023,0.9148,-0.4515,0.015,65.6787
19:48:57:157,0.3589,1.8808,5.6949,67.6626,0.5031,-0.1937,-0.0889,65.8806
19:48:57:157,-0.1699,2.0195,7.1761,66.856,0.1659,0.1068,-0.2135,66.1661
19:48:57:169,-0.4092,2.3689,7.7934,67.9467,0.0791,0.2082,-0.2941,66.5201
19:48:57:185,-0.536,2.479,7.8915,69.557,0.1866,-0.0972,-0.332,66.9656
19:48:57:203,-0.3493,2.5627,8.2816,67.8942,0.2832,-0.5554,-0.3919,67.6017
19:48:57:225,-0.0168,2.5196,8.4371,68.0716,0.3418,-0.7508,-0.3894,68.2602
19:48:57:248,-0.079,2.5149,8.2193,67.702,0.2025,-0.3306,-0.3063,69.2421
19:48:57:260,-0.9236,2.9551,9.2602,68.862,-0.0052,-0.0117,-0.1939,69.5305
19:48:57:290,-1.328,3.0844,10.3944,68.8291,-0.1017,0.2314,-0.0253,69.6081
19:48:57:307,-1.4142,3.137,10.7749,66.78,0.0339,0.3401,0.1555,69.4612
19:48:57:321,-1.0648,2.9264,10.0834,68.1347,0.2575,0.2913,0.3522,69.1291
19:48:57:340,-0.8064,2.7446,9.7125,67.6501,0.3271,0.2302,0.5146,68.6321
19:48:57:360,-0.3374,2.3163,9.5402,67.4066,0.2343,0.1752,0.5953,68.0619
19:48:57:382,-0.7705,2.6082,9.3799,68.663,-0.0015,0.1544,0.5794,67.5145
19:48:57:400,-0.4427,2.1248,10.55,67.851,-0.357,0.196,0.4792,67.0718
19:48:57:420,-0.5504,0.7801,12.5958,67.4974,-0.7663,-0.0312,0.2337,67.0062
19:48:57:441,-1.5529,-0.1149,14.3091,68.0989,-0.9642,-0.3147,-0.0424,67.3428
19:48:57:460,-3.3404,-0.3183,14.2876,68.4631,-0.7553,-0.3049,-0.0705,67.7292
19:48:57:482,-4.5392,0.0359,11.9378,66.1459,-0.1652,0.1544,0.2728,67.6561
19:48:57:500,-4.0893,0.1316,8.5878,68.5739,0.4456,0.7946,0.8787,66.7811
19:48:57:520,-3.6012,0.7131,6.5061,65.815,0.5739,1.0048,1.3466,65.3421
19:48:57:541,-2.5962,1.0959,6.6832,66.7379,0.2343,0.7177,1.5751,63.6533
19:48:57:561,-1.5912,1.1294,8.0495,64.8918,-0.1676,0.174,1.525,62.1325
19:48:57:582,-1.2108,0.6508,9.5091,63.7885,-0.3851,-0.3171,1.2367,61.0403
19:48:57:601,-1.2873,-0.0933,10.1432,66.8785,-0.4218,-0.5248,0.9325,60.3316
19:48:57:621,-1.7037,-0.3039,10.6648,64.9208,-0.3937,-0.4955,0.7504,59.853
19:48:57:640,-2.144,-0.1938,10.6983,64.4009,-0.3204,-0.3025,0.7138,59.3455
19:48:57:664,-2.1488,-0.0191,9.7292,65.4537,-0.1334,0.0433,0.8176,58.6642
19:48:57:694,-1.7874,0.3541,8.4203,64.4766,0.0327,0.3866,0.974,57.7258
19:48:57:701,-1.048,1.0241,7.1904,65.7095,-0.0088,0.5283,1.0437,56.655
19:48:57:725,-1.1821,1.2203,7.334,66.1453,-0.0565,0.4208,0.9423,54.5192
19:48:57:741,-1.4213,1.1653,7.3268,64.7412,-0.065,0.1935,0.8237,53.7573
19:48:57:761,-1.4907,1.0744,7.6283,65.7095,-0.1004,-0.0215,0.7517,53.127
19:48:57:798,-1.3328,1.0361,7.9705,65.5061,-0.1762,-0.1278,0.748,52.5276
19:48:57:800,-1.0816,0.9165,8.2911,64.8264,-0.2531,-0.1058,0.7529,51.9003
19:48:57:821,-0.8734,0.8495,8.6453,64.1082,-0.3399,-0.0618,0.7382,51.2936
19:48:57:842,-0.8088,0.8303,9.5402,63.1549,-0.4425,-0.0215,0.715,50.7026
19:48:57:878,-0.7083,0.8255,10.2796,63.5398,-0.4596,0.0091,0.7248,50.088
19:48:57:881,-0.3972,0.737,10.2054,63.5398,-0.3228,-0.019,0.7614,49.4207
19:48:57:902,0.0526,0.6867,10.1623,63.1123,-0.2153,-0.1889,0.7822,48.7498
19:48:57:922,0.4235,0.6221,10.5882,63.8791,-0.2361,-0.4039,0.7859,48.1097
19:48:57:940,0.8853,0.4116,11.0237,63.1564,-0.2764,-0.4943,0.7859,47.4749
19:48:57:960,0.7968,0.2177,10.8323,60.4992,-0.2727,-0.3831,0.7675,46.8481
19:48:57:994,0.5695,-0.1723,10.7868,60.5997,-0.3106,-0.041,0.7834,46.1835
19:48:58:002,0.6078,0.0072,10.8467,62.2968,-0.4095,0.3658,0.8897,45.3289
19:48:58:024,1.1653,0.0838,11.5286,61.1774,-0.6001,0.5148,0.9178,44.4409
19:48:58:041,0.8614,-0.3111,13.1868,63.2331,-0.82,0.2497,0.6808,43.856
19:48:58:066,-0.2728,-0.3493,14.1105,60.9695,-0.7797,-0.0618,0.39,43.6278
19:48:58:082,-0.4427,-0.5336,13.0265,62.6103,-0.3839,-0.0606,0.4132,43.3693
19:48:58:101,0.1196,-0.5551,11.9569,62.6103,0.0156,-0.0227,0.6173,42.8864
19:48:58:121,0.6556,-0.2752,12.0598,61.8706,0.1598,-0.2878,0.7492,42.2553
19:48:58:142,1.0241,-0.0479,12.3924,61.0789,0.2282,-0.6592,0.7724,41.6106
19:48:58:162,1.4788,0.1244,10.1504,61.4963,0.5397,-0.4992,0.682,41.0158
19:48:58:183,1.1916,0.268,8.5472,60.7741,0.635,0.0164,0.6221,39.7491
19:48:58:204,0.6341,0.4522,7.334,61.2434,0.6289,0.4086,0.5757,39.251
19:48:58:222,0.1627,0.603,6.6066,60.3543,0.5996,0.5759,0.5525,38.7723
19:48:58:241,-0.1101,0.7681,6.0802,59.9854,0.5825,0.5442,0.5562,38.2924
19:48:58:262,-0.3015,0.9619,6.0395,62.0358,0.5324,0.3524,0.5476,37.838
19:48:58:282,0.0622,1.06,6.3625,59.9854,0.4322,0.0518,0.511,37.4552
19:48:58:301,0.6221,1.1222,6.664,60.8166,0.3174,-0.162,0.4169,37.1854
19:48:58:320,0.7274,1.2419,7.3053,59.4255,0.172,-0.1607,0.2483,37.0871
19:48:58:341,0.3637,1.3735,8.4706,58.6966,0.0009,-0.0447,0.0797,37.1757
19:48:58:362,-0.1268,1.4237,9.9422,59.6196,-0.0968,0.1129,-0.0253,37.3779
19:48:58:381,-0.7202,1.3615,10.928,59.6196,-0.0504,0.1935,-0.0461,37.6005
19:48:58:400,-1.4357,1.4477,11.6196,59.6196,0.0865,0.0433,-0.0217,37.839
19:48:58:421,-1.3495,1.34,12.0574,59.6196,0.1817,-0.3538,0.0296,38.0822
19:48:58:441,-1.0146,1.5458,11.0357,59.6196,0.3113,-0.4918,0.1249,38.2273
19:48:58:461,-1.7276,2.1535,10.7222,59.6196,0.4102,0.1679,0.3192,38.0631
19:48:58:484,-2.0124,2.3928,10.136,57.783,0.3699,0.9742,0.682,37.3673
19:48:58:501,-2.0315,2.7111,10.4279,59.6196,0.1634,1.3786,1.0388,36.22
19:48:58:520,-1.6702,2.6441,11.3874,58.6957,-0.0491,1.2894,1.3051,34.7831
19:48:58:542,-1.5075,2.7111,12.0933,55.5152,-0.0589,0.9547,1.4786,33.2013
19:48:58:559,-1.084,2.4861,12.2225,55.2364,0.139,0.6651,1.5519,31.5831
19:48:58:579,-0.5671,1.8712,11.6315,54.1822,0.3699,0.3768,1.5018,30.0699
19:48:58:599,-0.5121,1.2251,12.1316,57.5275,0.3161,-0.184,1.3075,28.864
19:48:58:620,-1.1318,0.4522,13.0816,56.1392,0.194,-0.9744,0.9997,28.0946
19:48:58:641,-1.3328,0.3541,9.9206,55.4548,0.712,-0.1522,1.1292,27.2749
19:48:58:664,-1.5864,0.8207,6.5946,55.8988,1.0003,0.7311,1.3466,24.9552
19:48:58:680,-2.065,1.7898,5.3408,55.9799,0.7169,1.1196,1.47,23.3552
19:48:58:700,-1.2921,2.1176,5.4843,56.0739,0.172,1.0316,1.4945,21.6968
19:48:58:721,-0.1555,1.2993,6.6736,55.8494,-0.2177,0.6663,1.3246,20.2827
19:48:58:741,-0.3063,1.0265,8.3246,55.5535,-0.3985,0.0017,0.952,19.4516
19:48:58:766,-0.7729,0.7059,10.2245,56.1489,-0.4401,-0.6849,0.5928,19.1972
19:48:58:785,-1.1414,0.3781,11.3563,54.7462,-0.291,-0.8779,0.3583,19.2649
19:48:58:801,-1.596,0.2082,10.4877,55.85,0.0694,-0.5212,0.2593,19.3746
19:48:58:820,-1.529,0.3015,7.9035,55.5603,0.4395,0.2057,0.3351,19.2068
19:48:58:842,-1.6223,0.67,6.2716,55.99,0.4689,0.9803,0.5073,18.6623
19:48:58:862,-1.6869,1.3089,5.6327,56.4809,0.0962,1.5435,0.7431,17.7046
19:48:58:881,-1.0337,1.8951,5.8217,54.579,-0.4328,1.9418,1.0375,16.2921
19:48:58:901,-0.9715,1.8329,6.6425,55.5996,-0.9654,2.1019,1.3051,14.5647
19:48:58:920,-0.3972,2.2827,8.3701,54.7996,-1.4126,2.0102,1.4041,12.7465
19:48:58:942,-0.347,2.1272,10.4949,54.9777,-1.4675,1.6388,1.0925,11.3524
19:48:58:961,-1.1462,1.6965,11.5334,53.2241,-1.0888,1.1379,0.5831,10.6644
19:48:58:981,-2.0363,1.3137,11.8349,53.8121,-0.5183,0.3743,0.1921,10.5563
19:48:59:001,-2.747,0.9763,11.2869,53.9987,0.0596,-0.3965,0.098,10.7253
19:48:59:020,-2.7541,0.603,10.5188,53.9843,0.4652,-0.7643,0.1848,10.8786
19:48:59:042,-2.3952,0.2943,10.3298,54.6285,0.5116,-0.8144,0.252,10.9648
19:48:59:064,-1.9262,0.1651,10.8873,53.1667,0.1976,-0.7618,0.2373,11.0583
19:48:59:084,-1.7731,-0.1077,12.2536,52.5629,-0.6246,-0.1522,0.2068,11.1692
19:48:59:102,-2.187,-0.1268,12.9165,54.233,-0.8457,0.0311,0.3057,10.8754
19:48:59:122,-1.9573,-0.0646,13.3974,53.281,-0.8188,-0.377,0.3802,10.7207
19:48:59:143,-1.4836,-0.3852,12.926,53.4244,-0.4914,-0.8877,0.368,10.6262
19:48:59:160,-1.0433,-0.4116,11.1458,58.2544,-0.0247,-0.9866,0.3925,10.5052
19:48:59:287,-0.5288,-0.1101,9.3009,57.2924,0.2441,-0.6971,0.4866,10.2769
19:48:59:288,0.4475,-0.0431,8.2816,55.1972,0.2038,-0.333,0.5537,9.8732
19:48:59:289,1.1318,0.067,8.3773,56.0266,-0.0125,-0.0386,0.4658,9.5248
19:48:59:289,1.4309,0.0335,9.0066,56.479,-0.2507,0.064,0.2178,9.415
19:48:59:291,1.4046,-0.1866,9.7053,51.9176,-0.4193,0.0042,-0.0705,9.6122
19:48:59:292,0.8016,-0.3135,10.0929,51.7678,-0.4633,-0.0691,-0.2978,10.0805
19:48:59:300,0.1795,-0.1292,9.9087,53.8623,-0.3863,-0.0716,-0.3491,10.6144
19:48:59:322,-0.1364,0.0766,9.4828,53.3384,-0.2092,0.0262,-0.2685,11.085
19:48:59:339,-0.0048,0.4307,8.6764,54.1376,0.0058,0.1691,-0.1463,11.3822
19:48:59:362,0.3948,0.6987,7.8174,52.4805,0.1915,0.3377,-0.0498,11.5484
19:48:59:380,0.7226,0.9978,7.2024,54.6598,0.2966,0.4477,0.0052,11.623
19:48:59:401,0.8901,1.1653,6.6855,51.7321,0.3125,0.4025,-0.0082,11.7216
19:48:59:422,0.8447,1.4165,6.8818,51.3094,0.2001,0.3695,-0.1328,11.9431
19:48:59:444,0.6054,1.6654,7.8054,52.4926,0.0376,0.2106,-0.376,12.4263
19:48:59:463,0.3589,1.3424,8.4993,52.4034,-0.0076,-0.0569,-0.5959,13.2155
19:48:59:481,0,1.2036,9.2219,51.26,0.0474,-0.2683,-0.7498,14.2188
19:48:59:500,-0.4044,0.7992,8.2313,52.3916,0.1158,-0.3831,-0.8256,15.3396
19:48:59:526,-1.2227,1.3735,9.6622,50.9993,-0.1151,-0.0569,-0.8097,16.4221
19:48:59:545,-1.7157,1.1366,10.4949,54.3634,-0.39,0.5026,-0.4786,17.8491
19:48:59:561,-1.5099,1.4716,12.1077,53.4817,-0.5647,0.5723,-0.2477,18.254
19:48:59:580,-1.0241,1.6176,13.5266,52.3983,-0.506,0.4037,-0.0046,18.3799
19:48:59:599,-0.7346,1.7276,13.541,51.3057,-0.1188,0.0982,0.1384,18.3647
19:48:59:621,-0.8279,1.5553,12.0598,53.0314,0.4224,-0.129,0.1432,18.3609
19:48:59:641,-1.3424,1.5673,10.6313,52.1344,0.679,-0.1717,0.0614,18.4784
19:48:59:660,-1.8329,1.6869,10.4303,52.0902,0.4554,-0.0984,0.0418,18.632
19:48:59:680,-2.2588,1.7037,11.4855,52.6537,0.0193,0.0885,0.109,18.7055
19:48:59:703,-2.6082,1.675,12.8064,51.3117,-0.2654,0.1996,0.2202,18.6534
19:48:59:725,-2.0291,0.9236,13.8592,52.6295,-0.2507,0.003,0.3204,18.4972
19:48:59:743,-1.8161,0.3637,13.8616,53.1874,0.0229,-0.4344,0.3399,18.3626
19:48:59:761,-1.9908,0.5599,12.5049,53.1822,0.4053,-0.6348,0.423,18.1693
19:48:59:779,-1.8927,0.6389,10.4375,51.5278,0.767,-0.2951,0.6319,17.7288
19:48:59:799,-1.6152,0.8183,8.7529,52.459,0.9136,0.0872,0.7553,17.0973
19:48:59:820,-1.4357,1.206,8.1428,53.7439,0.7511,0.1019,0.715,16.5
19:48:59:841,-1.0768,1.3615,8.7817,52.9616,0.4456,-0.1119,0.6026,16.0545
19:48:59:861,-0.7801,1.34,9.3177,52.6538,0.2514,-0.366,0.434,15.818
19:48:59:881,-0.7346,1.3232,9.3488,51.832,0.2563,-0.4625,0.2202,15.8395
19:48:59:900,-0.6652,1.1318,8.8056,51.8252,0.3394,-0.3953,-0.0143,16.1078
19:48:59:922,-0.6054,0.6245,8.2959,51.832,0.4163,-0.2182,-0.2782,16.6245
19:48:59:940,-0.5001,0.2297,7.9418,50.1743,0.4432,-0.1595,-0.5556,17.4398
19:48:59:961,-0.5599,0.1962,7.7791,50.7688,0.3992,-0.2121,-0.7828,18.5035
19:48:59:984,-1.8712,0.9787,7.5015,51.6211,0.2587,0.0127,-0.8989,20.733
19:49:00:010,-2.7159,1.5242,7.4154,51.5076,0.2746,0.2326,-0.7193,21.6965
19:49:00:028,-2.455,2.12,7.5924,50.0739,0.2257,0.3438,-0.2856,22.1376
19:49:00:044,-0.9117,2.7039,8.4634,52.3673,0.0266,0.2742,0.2373,21.9593
19:49:00:059,-0.0455,2.9719,9.8943,50.2976,-0.1261,0.0885,0.4279,21.5972
19:49:00:078,0.0431,2.8307,11.4568,52.3989,-0.0516,-0.1168,0.2532,21.4581
19:49:00:098,-0.2058,2.1942,11.7942,51.5122,0.3369,-0.3135,0.0003,21.6615
19:49:00:123,-0.6867,2.132,10.8897,50.8387,0.8501,-0.6617,-0.2196,22.225
19:49:00:140,0.0622,1.9406,9.6455,52.3685,1.2874,-1.0697,-0.2208,22.8966
19:49:00:161,0.3733,1.5936,8.1356,51.7233,1.4817,-1.3287,-0.1915,23.6273
19:49:00:182,0.0072,1.6032,7.3388,51.5294,1.2593,-1.3214,-0.2746,24.4763
19:49:00:204,-0.0287,1.584,7.401,50.9424,0.6423,-1.0551,-0.2477,25.2354
19:49:00:221,0.055,1.3256,8.0566,52.1197,-0.0418,-0.6238,-0.1646,25.783
19:49:00:241,0.2082,1.0217,9.4421,51.7275,-0.5916,-0.2744,-0.1536,26.2173
19:49:00:260,0.6317,0.2345,10.5452,52.6557,-0.9019,-0.14,-0.2318,26.6852
19:49:00:279,1.2371,-0.524,11.866,51.5406,-0.9691,-0.1192,-0.4639,27.3765
19:49:00:304,1.8616,-0.6078,12.8997,50.9897,-0.8775,-0.3587,-0.7327,28.4221
19:49:00:323,1.4285,-0.5958,11.9665,51.0028,-0.6075,-0.625,-0.8158,29.6193
19:49:00:341,0.9428,-0.1292,10.1791,51.0017,-0.2409,-0.0789,-0.6961,30.5432
19:49:00:360,0.8973,0.0526,8.4778,52.4359,-0.054,0.6956,-0.409,30.9642
19:49:00:380,1.0241,0.5408,7.3651,52.4222,-0.1579,1.0573,-0.2074,31.0714
19:49:00:405,1.1797,1.1198,7.4584,50.6539,-0.5,0.9315,-0.1988,31.176
19:49:00:420,1.3495,1.1151,8.1571,51.1801,-0.9569,0.5808,-0.3405,31.5099
19:49:00:440,1.0289,1.0361,9.0927,50.8401,-1.3112,0.4012,-0.5348,32.1196
19:49:00:460,-0.7226,1.3591,10.4255,49.7899,-1.3796,0.3743,-0.569,32.8914
19:49:00:480,-0.9404,1.651,10.5308,50.0909,-1.1621,0.2778,-0.3479,33.9654
19:49:00:502,-0.6078,1.8808,10.3155,52.3199,-0.8335,0.1813,-0.0876,34.1613
19:49:00:524,-0.1962,2.1823,9.8225,49.1186,-0.4669,0.1654,0.1579,34.0829
19:49:00:544,0.1747,2.3091,9.466,50.3852,-0.1383,0.2693,0.3069,33.82
19:49:00:559,0.1675,2.1751,9.1621,49.5038,0.0877,0.3328,0.2715,33.5932
19:49:00:579,0.0957,1.9956,9.0281,49.5098,0.183,0.2705,0.1054,33.5286
19:49:00:599,-0.0646,1.7109,9.1645,50.4081,0.1634,0.1642,-0.0693,33.7003
19:49:00:622,-0.189,1.5362,9.4038,49.9242,0.0938,0.086,-0.1781,33.9857
19:49:00:639,-0.0742,1.4572,9.8034,51.3255,0.0425,0.0628,-0.2159,34.3187
19:49:00:658,-0.3063,1.4189,10.2245,50.3852,0.0364,0.0701,-0.2318,34.6803
19:49:00:678,-0.792,1.4788,10.5763,48.9192,0.0987,0.0897,-0.2318,35.0602
19:49:00:699,-1.328,1.6032,10.6098,49.2862,0.2331,0.1715,-0.1891,35.3882
19:49:00:720,-1.5434,1.3543,10.2652,49.5924,0.409,0.3743,-0.0803,35.5927
19:49:00:739,-1.5697,1.7324,10.5811,49.7961,0.5776,0.7128,0.0479,35.6083
19:49:00:761,-2.0267,2.7087,10.2413,49.1292,0.7682,1.0719,0.197,35.3889
19:49:00:784,-1.5649,2.211,9.0879,49.5168,0.8109,1.1159,0.4413,34.8651
19:49:00:803,-1.7348,2.1152,8.5304,49.3006,0.5336,0.8679,0.4902,34.3203
19:49:00:824,-2.8403,2.4239,8.6572,48.5003,0.0694,0.5625,0.3876,33.9402
19:49:00:840,-2.9001,1.5482,10.4566,49.2189,-0.2898,0.3597,0.3436,33.6575
19:49:00:859,-2.5795,0.2177,13.1294,48.5268,-0.5366,-0.2573,0.2263,33.6261
19:49:00:880,-2.2493,0.0742,14.1368,49.1292,-0.6209,-1.2786,0.0614,33.9337
19:49:00:904,-2.1368,-0.1842,10.8491,47.9311,0.1121,-1.0441,0.252,34.2009
19:49:00:921,-2.2804,0.0455,9.3727,47.845,0.5275,-0.1339,0.5965,33.7585
19:49:00:941,-2.0985,0.0981,8.485,47.6085,0.6656,0.4183,0.9508,32.8605
19:49:00:958,-1.7922,0.8447,8.1691,46.5343,0.4408,0.3157,1.0864,31.7837
19:49:00:983,-0.7585,0.9643,8.0925,47.4716,0.1036,-0.2964,0.9532,30.928
19:49:01:001,-0.536,0.7274,8.327,47.841,-0.0504,-0.6665,0.6441,30.4586
19:49:01:023,-0.8016,0.0814,7.9537,46.1244,-0.054,-0.4992,0.3253,30.3453
19:49:01:040,-1.7396,0.4929,7.3412,45.6496,-0.1835,0.0897,0.1506,30.3287
19:49:01:059,-1.2658,-0.347,5.8768,48.2342,-0.0553,0.4916,0.2911,30.1012
19:49:01:080,-1.5027,-0.3422,5.5777,47.1787,-0.0821,0.9583,0.4902,29.5606
19:49:01:100,-1.8975,0.1627,5.8816,46.5648,-0.2104,1.0329,0.5867,28.9181
19:49:01:121,-2.1081,0.6054,6.4056,46.6161,-0.3631,0.6431,0.6441,28.2533
19:49:01:139,-1.6463,0.725,7.1019,44.9394,-0.3973,0.1557,0.6759,27.6368
19:49:01:159,-1.3376,0.658,7.5613,45.7656,-0.2825,-0.1571,0.616,27.1176
19:49:01:181,-1.5099,0.6915,7.523,42.7023,-0.1285,-0.2377,0.4426,26.8042
19:49:01:199,-1.8353,0.8112,7.8891,46.0291,-0.1053,-0.0716,0.2789,26.6571
19:49:01:220,-2.2158,0.7155,8.6094,45.7435,-0.2605,0.086,0.2141,26.5583
19:49:01:239,-2.4096,0.4044,9.6718,44.3539,-0.5232,0.1251,0.2666,26.4109
19:49:01:258,-2.5747,0.1244,10.8132,46.2916,-0.7565,0.2143,0.456,26.0573
19:49:01:280,-2.4096,0.1005,12.6102,46.8451,-0.9349,0.3389,0.7211,25.3915
19:49:01:363,-1.5577,0.2489,14.5292,46.625,-1.0509,0.3096,0.9313,24.4688
19:49:01:363,-0.5216,0.1005,15.618,47.7638,-0.9495,0.2632,0.919,23.5187
19:49:01:364,-0.0335,-0.0502,14.9863,47.5725,-0.6918,0.3914,0.7504,22.7552
19:49:01:364,0.6413,-0.5982,13.8425,44.5816,-0.4267,0.6138,0.4218,22.1328
19:49:01:381,0.5408,-0.7609,14.1081,42.8034,-0.4669,0.1434,0.1384,21.565
19:49:01:399,-0.0981,-1.084,14.0459,42.1291,-0.4584,-0.4063,-0.1805,21.7167
19:49:01:418,-1.0911,-1.2562,13.4477,43.0095,-0.302,-0.5322,-0.3259,22.1931
19:49:01:439,-1.6845,-1.1414,12.1532,43.0281,-0.0369,-0.2548,-0.1793,22.5247
19:49:01:459,-1.4022,-1.1414,10.7486,40.3249,0.216,0.1349,0.1542,22.4853
19:49:01:481,-0.3206,-1.084,9.8225,42.4145,0.3491,0.3743,0.4853,22.0365
19:49:01:499,0.6174,-0.9691,9.0975,40.3263,0.3882,0.4098,0.6784,21.3204
19:49:01:521,0.9452,-0.7035,8.5496,39.8105,0.409,0.422,0.7003,20.577
19:49:01:538,0.8255,-0.3757,8.2217,40.4388,0.4176,0.4623,0.6002,19.9213
19:49:01:561,0.347,0.1077,8.2433,39.4906,0.4249,0.4965,0.3632,19.5038
19:49:01:581,-0.469,0.323,8.0997,39.4906,0.4725,0.5466,0.0883,19.4229
19:49:01:600,-1.1103,0.4642,7.401,39.297,0.5666,0.5454,-0.117,19.5885
19:49:01:621,-1.34,0.7202,6.719,39.3684,0.6167,0.4501,-0.2428,19.8984
19:49:01:639,-1.2993,0.9571,6.4439,39.3227,0.558,0.2791,-0.3112,20.3009
19:49:01:659,-1.2108,1.1079,6.53,38.962,0.4456,0.0836,-0.3772,20.777
19:49:01:680,-1.9143,0.9045,6.8866,39.3684,0.3015,0.0372,-0.4725,21.3995
19:49:01:700,-1.7827,1.1462,8.2074,37.1591,0.1146,0.2082,-0.4493,21.9521
19:49:01:719,-1.0098,1.4477,8.863,33.282,0.0645,0.1581,-0.3027,22.3008
19:49:01:740,-1.0313,1.5888,8.3198,33.6488,0.194,0.13,-0.409,22.7409
19:49:01:761,-1.2897,1.3543,7.9346,36.6681,0.2123,0.185,-0.6252,23.4501
19:49:01:784,-1.9717,1.1797,8.339,36.5942,0.0242,0.1752,-0.784,24.3646
19:49:01:802,-2.9097,1.127,9.1143,36.2498,-0.1689,0.1471,-0.7987,25.341
19:49:01:821,-3.5486,0.9308,10.5787,34.6192,-0.1933,-0.0948,-0.1243,26.2443
19:49:01:840,-3.3141,1.1366,11.0477,34.3944,-0.1127,-0.311,0.3937,25.9148
19:49:01:861,-2.735,1.4596,11.2104,33.3045,-0.0516,-0.4332,0.748,25.1548
19:49:01:880,-2.0602,1.4381,11.4162,32.5693,-0.0186,-0.3208,0.8787,24.2381
19:49:01:899,-1.4692,1.1533,11.5908,33.6816,-0.0369,-0.1302,0.8555,23.3133
19:49:01:918,-1.7157,1.0983,11.4688,34.7547,-0.0723,0.0591,0.7321,22.5098
19:49:01:939,-2.3258,1.0768,11.2247,33.4552,-0.1139,0.2033,0.5867,21.8831
19:49:01:961,-2.5029,0.4977,11.2654,33.5042,-0.1786,0.1667,0.5049,21.3784
19:49:01:983,-2.9886,0.2943,11.7942,31.7908,-0.2471,-0.063,0.4572,20.9561
19:49:02:001,-3.0724,0.3565,11.7129,32.3033,-0.1395,-0.2878,0.522,20.4704
19:49:02:020,-2.7661,0.4618,9.8632,32.6773,0.1647,-0.3037,0.748,19.7213
19:49:02:039,-2.3426,0.7298,8.2983,31.5989,0.2954,-0.1632,0.8812,18.8227
19:49:02:061,-2.01,0.8279,8.0758,30.4153,0.062,-0.0557,0.7944,18.0022
19:49:02:081,-1.8592,0.7825,9.4014,29.4936,-0.3191,-0.1583,0.5941,17.3965
19:49:02:100,-1.9645,0.4379,11.1697,30.0986,-0.5696,-0.6104,0.3497,17.0896
19:49:02:120,-2.0985,0.1101,12.0694,29.385,-0.5012,-1.1931,0.1579,17.0646
19:49:02:139,-1.9238,-0.2369,11.3396,30.0114,-0.1566,-1.4448,0.1286,17.112
19:49:02:164,-2.0243,-0.134,9.8225,30.5278,0.2477,-1.2065,0.219,17.0254
19:49:02:179,-1.6295,-0.2297,8.5017,28.5475,0.5043,-0.6837,0.3705,16.7239
19:49:02:199,-1.3041,-0.1101,7.1641,30.3812,0.6057,-0.3538,0.4988,16.2476
19:49:02:219,-1.0528,0.0502,6.4917,29.5944,0.5263,-0.2011,0.5366,15.6962
19:49:02:239,-0.9763,0.2273,6.8339,29.3719,0.2978,-0.1388,0.5232,15.1694
19:49:02:261,-1.2323,0.5073,7.7097,27.8473,0.0364,-0.1669,0.4548,14.7008
19:49:02:279,-1.3232,0.7872,7.5805,29.8135,-0.1408,-0.0117,0.4597,14.2559
19:49:02:300,-1.1174,1.1868,7.389,27.0615,-0.2202,0.3743,0.5317,13.1497
19:49:02:318,-1.1366,1.4477,7.5494,27.2519,-0.3289,0.648,0.5354,12.5012
19:49:02:338,-0.8231,1.651,8.1284,26.297,-0.4413,0.6505,0.4902,11.8499
19:49:02:364,-0.7059,1.718,9.131,27.7644,-0.5329,0.4391,0.4035,11.3261
19:49:02:382,-0.926,1.6774,10.4399,25.8117,-0.5928,0.2803,0.2617,10.9545
19:49:02:398,-0.8877,1.2514,11.2152,25.4757,-0.5232,0.1606,0.1457,10.7296
19:49:02:419,-0.7322,0.6054,10.8849,25.348,-0.3423,-0.019,0.0736,10.591
19:49:02:439,-0.7131,0.1986,10.4184,25.1656,-0.2581,-0.1852,0.0418,10.5306
19:49:02:462,-0.3852,-0.3517,11.0764,26.283,-0.4046,-0.3819,0.0394,10.4365
19:49:02:480,0.2704,-0.5456,12.4881,26.5434,-0.6673,-0.6763,0.0589,10.3458
19:49:02:499,0.5719,-0.7131,13.6367,27.0881,-0.8152,-0.8791,0.0309,10.2517
19:49:02:518,0.1842,-0.9165,14.6225,25.6941,-0.7431,-0.691,-0.0962,10.2923
19:49:02:538,-0.3159,-1.2036,13.8568,26.0586,-0.3705,-0.4039,-0.1781,10.4414
19:49:02:562,-0.1771,-1.3041,11.7033,26.5434,0.1097,-0.2035,-0.1048,10.4948
19:49:02:582,0.347,-1.4261,10.0331,24.9907,0.3736,-0.0374,0.0272,10.3947
19:49:02:600,1.2036,-1.3017,8.9276,25.0927,0.3125,-0.0471,0.065,10.203
19:49:02:618,2.1057,-1.261,10.1264,24.8336,-0.0003,0.0433,0.026,10.013
19:49:02:638,1.8497,-0.5384,10.148,25.4661,-0.0785,0.0714,-0.2013,10.0677
19:49:02:659,1.4883,-0.5575,8.5878,24.8352,0.1158,-0.1021,-0.4676,10.455
19:49:02:679,0.4738,-0.4834,8.1428,24.3508,0.1317,0.0872,-0.7474,11.1869
19:49:02:700,-0.201,-0.5216,7.2622,25.8863,0.1524,0.207,-0.9184,12.1014
19:49:02:729,-0.7178,-0.347,6.987,24.9056,0.1353,0.185,-0.9502,13.0629
19:49:02:741,-0.6891,0.0526,7.212,25.8362,0.0852,-0.1388,-0.7767,14.8308
19:49:02:761,-0.2608,0.0598,7.4058,26.4932,0.0987,-0.2866,-0.7181,15.5339
19:49:02:779,0.0957,0.1914,7.7193,27.0147,0.0914,-0.377,-0.7327,16.2271
19:49:02:798,0.0838,0.347,7.9346,25.6007,0.0694,-0.421,-0.8121,16.9911
19:49:02:817,-0.1771,0.3398,8.3605,25.547,0.0217,-0.3855,-0.9013,17.8861
19:49:02:837,-0.1029,0.1388,8.8415,25.2488,-0.0345,-0.3171,-0.9037,18.7837
19:49:02:858,0.0479,0.1819,9.5043,26.4298,-0.076,-0.2328,-0.8427,19.5957
19:49:02:879,0.0933,0.3374,9.9852,25.5069,-0.0931,-0.1424,-0.7755,20.3168
19:49:02:898,-0.3493,0.6174,10.2963,27.0056,-0.076,-0.019,-0.7449,21.0125
19:49:02:918,-1.0337,0.9045,10.2413,26.3164,-0.0235,0.1703,-0.6936,21.6801
19:49:02:940,-1.3783,0.8901,10.0858,27.0953,0.0217,0.3511,-0.5519,22.195
19:49:02:963,-1.5338,1.0337,10.6361,25.3199,-0.0174,0.422,-0.3405,22.4391
19:49:02:978,-1.2467,1.0983,11.3659,27.0953,-0.1017,0.3426,-0.1194,22.4401
19:49:02:998,-0.8112,0.7825,11.8588,27.4699,-0.1395,0.2571,0.0174,22.2715
19:49:03:018,-1.0193,0.658,12.2393,28.6902,-0.1774,0.2619,0.0565,22.0557
19:49:03:046,-1.6008,0.9643,12.6365,29.5977,-0.2287,0.3829,0.1298,21.7632
19:49:03:067,-1.7779,0.9188,13.0959,27.5144,-0.2128,0.4599,0.2886,21.278
19:49:03:084,-1.7085,0.481,13.5793,29.3512,-0.1017,0.2949,0.434,20.6432
19:49:03:098,-1.584,-0.1675,13.5218,30.3656,0.084,-0.1705,0.4988,19.9407
19:49:03:118,-1.5888,-0.4857,12.6652,29.0223,0.2942,-0.6604,0.5379,19.2029
19:49:03:141,-1.3041,-0.8303,11.3683,29.426,0.4933,-0.7337,0.6002,18.407
19:49:03:159,-1.4405,-0.5288,10.4303,30.5098,0.5727,-0.5993,0.5953,17.5989
19:49:03:180,-1.2084,-0.4666,9.8034,29.3718,0.497,-0.5603,0.5501,16.8554
19:49:03:205,-0.7418,-0.6915,10.1169,29.7435,0.15,-0.1949,0.3497,15.866
19:49:03:217,-0.8662,-0.7561,10.6385,31.5047,0.0681,-0.0716,0.2434,15.4524
19:49:03:239,-1.1773,-0.6174,10.5524,30.7045,0.1659,-0.0349,0.219,15.0592
19:49:03:264,-1.2227,-0.5384,9.7412,30.8975,0.3992,0.0481,0.296,14.5771
19:49:03:280,-1.2538,-0.3183,8.5352,31.958,0.6387,0.163,0.4291,13.9328
19:49:03:299,-1.3232,0.1771,7.4824,31.4014,0.767,0.2729,0.5672,13.1112
19:49:03:319,-1.2945,0.6867,6.786,31.8912,0.7951,0.4293,0.7077,12.1165
19:49:03:340,-1.2203,1.2012,6.3218,32.3172,0.7621,0.6016,0.8164,10.9852
19:49:03:364,-1.1653,1.7204,6.2836,31.6542,0.6753,0.6859,0.8689,9.7684
19:49:03:484,-1.3232,2.4,6.6736,33.7861,0.5361,0.5784,0.8628,8.5425
19:49:03:485,-1.1773,2.7111,7.4082,34.1146,0.4078,0.2754,0.8384,7.3977
19:49:03:485,-0.7298,2.7135,8.2816,34.0592,0.3443,-0.1742,0.7785,6.3889
19:49:03:485,-0.1651,2.3067,9.1023,33.7622,0.3418,-0.6091,0.6478,5.6021
19:49:03:486,0.0239,1.9932,9.7364,32.6002,0.3284,-0.851,0.4804,5.0017
19:49:03:486,0.0526,1.596,10.2604,33.5066,0.2978,-0.746,0.3717,4.5195
19:49:03:500,0.3637,0.9906,10.4614,33.8609,0.2868,-0.4381,0.3644,3.9727
19:49:03:517,1.1868,0.5982,10.5524,32.8187,0.2257,-0.2157,0.4193,3.3116
19:49:03:537,2.4072,0.6054,10.8395,33.681,0.0535,-0.1607,0.4487,2.5672
19:49:03:558,2.991,0.7466,11.0596,32.7453,-0.1469,-0.1131,0.3424,1.9126
19:49:03:578,2.6991,0.7346,11.0094,34.797,-0.2788,-0.0141,0.1139,1.4887
19:49:03:599,2.3761,0.3876,11.0142,32.6002,-0.3741,-0.0129,-0.1084,1.315
19:49:03:630,2.2971,0.0598,11.665,32.4289,-0.4975,-0.1901,-0.2392,1.3372
19:49:03:647,2.4359,-0.2034,12.3494,34.3002,-0.5684,-0.4393,-0.3063,1.4629
19:49:03:664,2.2181,-0.5121,11.275,32.5529,-0.153,-0.3293,-0.2953,1.9453
19:49:03:681,2.5125,-0.6939,9.5163,34.7029,0.2013,-0.063,-0.1854,1.8481
19:49:03:699,3.0628,-0.524,8.2959,33.6467,0.2966,-0.0447,-0.1243,1.6533
19:49:03:720,3.6921,-0.3039,8.0231,35.8717,0.1329,-0.2402,-0.1842,1.5471
19:49:03:743,3.8764,-0.2728,7.9729,36.5415,-0.087,-0.4002,-0.4138,1.6919
19:49:03:763,3.2064,-0.3254,7.7145,36.6607,-0.2568,-0.344,-0.7559,2.2408
19:49:03:777,2.0794,-0.2919,7.1474,35.6211,-0.3546,-0.0948,-1.0638,3.1173
19:49:03:799,1.1725,-0.2608,6.4415,36.5045,-0.3937,0.1508,-1.2361,4.1596
19:49:03:823,0.6748,-0.0718,5.683,37.0844,-0.4144,0.2399,-1.2849,5.2728
19:49:03:839,0.5743,0.0574,5.3551,36.8621,-0.478,0.1544,-1.2715,6.3819
19:49:03:860,0.5001,0.4068,5.9486,36.8341,-0.6221,-0.0251,-1.2642,7.4932
19:49:03:879,0.1244,0.7537,7.1402,37.129,-0.7614,-0.1498,-1.2752,8.6461
19:49:03:897,-0.1842,0.737,7.8652,37.0158,-0.7797,-0.1681,-1.2862,9.8359
19:49:03:919,-0.7489,0.8806,8.4084,37.9253,-0.748,-0.1119,-1.2507,11.0168
19:49:03:937,-0.9882,1.0361,9.6,37.206,-0.7785,0.0115,-1.1383,12.065
19:49:03:958,-0.4522,1.1797,10.8251,37.0416,-0.7761,0.1581,-0.9844,12.9128
19:49:03:978,-0.0502,1.2347,11.6459,39.0368,-0.6954,0.4025,-0.9123,13.6744
19:49:03:998,-0.1555,1.2036,12.2943,39.086,-0.6087,0.6077,-0.9612,14.4703
19:49:04:018,-0.3781,1.1749,13.4453,38.7579,-0.5232,0.6627,-1.0101,15.3325
19:49:04:038,-0.3876,1.407,14.5412,38.1306,-0.3436,0.5882,-1.0076,16.186
19:49:04:059,-1.1557,1.8281,15.2255,40.5663,-0.0149,0.6077,-0.9807,17.0226
19:49:04:079,-2.0411,1.6439,14.1488,38.1399,0.5031,0.7152,-0.8463,17.7188
19:49:04:098,-2.5244,1.7204,12.3206,40.2322,0.9478,0.6639,-0.5739,18.1538
19:49:04:125,-1.0504,1.7061,10.8419,39.81,0.8684,0.2681,0.0577,18.0801
19:49:04:138,-1.206,2.1033,10.6098,41.0871,0.591,0.2583,0.175,17.6296
19:49:04:159,-1.6463,2.2923,10.6457,41.2692,0.3601,0.4635,0.2825,17.045
19:49:04:178,-2.1009,2.0148,10.8203,39.569,0.2575,0.466,0.4218,16.3092
19:49:04:200,-2.1942,1.3974,10.8778,40.8027,0.2697,0.0164,0.5745,15.4688
19:49:04:219,-2.0076,1.0648,10.392,43.2749,0.4004,-0.4588,0.7578,14.4826
19:49:04:239,-1.7707,0.9906,9.0832,41.9005,0.6142,-0.5199,0.9288,13.3021
19:49:04:258,-1.6941,1.1462,7.9083,42.0208,0.6961,-0.4161,1.0229,12.0537
19:49:04:278,-1.0959,1.2754,7.9681,42.5662,0.4957,-0.548,1.0583,10.7611
19:49:04:298,-0.2465,0.9906,8.8032,43.4855,0.1879,-0.7789,1.0058,9.5194
19:49:04:321,-0.0933,0.95,9.9087,40.4795,-0.076,-0.9622,0.8213,8.544
19:49:04:339,-0.2584,0.9547,11.0788,40.9223,-0.2116,-1.0001,0.6319,7.7861
19:49:04:359,-0.8399,0.8351,11.5334,40.783,-0.0882,-0.8449,0.5098,7.1524
19:49:04:378,-0.9763,0.2201,10.5691,42.2917,0.2819,-0.5615,0.5012,6.5155
19:49:04:398,-0.6891,-0.0909,8.6381,40.9518,0.6985,-0.2744,0.6136,5.6794
19:49:04:420,-0.2297,0.0742,7.255,41.2754,0.8452,-0.1058,0.7443,4.6857
19:49:04:440,0.0072,0.4738,6.7238,43.5801,0.7242,-0.0422,0.7993,3.5802
19:49:04:457,-0.1412,0.859,6.6425,40.3745,0.5556,0.0311,0.7529,2.5193
19:49:04:477,-0.1316,0.9045,6.4223,42.1495,0.4469,0.0872,0.6564,1.5633
19:49:04:497,-0.1388,0.9236,6.1208,42.8641,0.3528,0.1251,0.533,0.7191
19:49:04:518,-0.3422,1.1222,6.2022,42.2477,0.1842,0.1679,0.4047,0.0138
19:49:04:539,-0.4714,1.2873,7.0612,42.3636,-0.043,0.1923,0.2972,359.4287
19:49:04:558,-0.4283,1.2132,8.2409,42.5091,-0.2385,0.1239,0.1701,359.0024
19:49:04:579,-0.1747,0.8064,9.9589,43.7594,-0.3949,0.0408,-0.0803,358.7656
19:49:04:600,0.0742,0.6676,10.55,41.8668,-0.4254,0.1496,-0.1402,358.7595
19:49:04:620,0.3565,0.122,11.1338,43.4224,-0.4975,0.1544,-0.2171,358.734
19:49:04:637,0.5168,-0.2249,11.8397,42.1095,-0.6539,0.0408,-0.2831,358.7896
19:49:04:658,0.7561,-0.4929,12.3924,43.2673,-0.8017,0.0934,-0.2624,358.8259
19:49:04:677,1.4022,-0.6867,12.2919,41.0632,-0.8555,0.3731,-0.1817,358.7178
19:49:04:699,1.8449,-0.7226,12.4881,41.6675,-0.897,0.5918,-0.1328,358.5091
19:49:04:718,2.0267,-0.8519,12.8255,43.0123,-0.9703,0.488,-0.1866,358.3871
19:49:04:737,1.5601,-0.9356,13.4501,43.1032,-1.0338,0.2937,-0.3002,358.4313
19:49:04:758,0.9069,-1.0241,13.8066,40.8127,-0.9703,0.3426,-0.3161,358.4973
19:49:04:777,0.7131,-1.2036,13.273,42.0639,-0.6844,0.5686,-0.1341,358.3826
19:49:04:799,0.9954,-0.9476,12.2752,42.3981,-0.3387,0.6663,0.1713,357.946
19:49:04:826,1.517,-0.5288,11.6339,42.7118,-0.0736,0.5112,0.4707,357.153
19:49:04:836,2.266,-0.3446,11.1386,41.0922,0.1524,0.1508,0.6771,356.1197
19:49:04:858,3.07,-0.2871,10.1504,42.2193,0.4017,-0.1949,0.737,355.0003
19:49:04:876,3.3523,-0.0646,8.9994,42.3715,0.5837,-0.3342,0.6087,354.0475
19:49:04:898,2.7757,0.2058,7.9537,41.1752,0.6387,-0.2915,0.3412,353.3962
19:49:04:916,1.9549,0.4116,6.944,42.8645,0.6142,-0.2316,0.0431,353.0683
19:49:04:937,1.1151,0.6532,5.793,42.0584,0.5324,-0.2255,-0.2208,353.0589
19:49:04:957,0.4451,0.8207,5.8648,42.0614,0.3467,-0.184,-0.4077,353.3071
19:49:04:978,0.5695,0.95,6.0586,43.391,0.1561,-0.289,-0.4163,353.57
19:49:04:999,0.6556,1.1821,6.2596,42.826,0.0327,-0.4491,-0.4725,353.9067
19:49:05:019,0.2034,0.7178,5.5202,42.5489,-0.0748,-0.4515,-0.5458,354.3485
19:49:05:038,0.6939,1.3089,9.923,41.3723,-0.5024,0.4281,-0.4444,355.2948
19:49:05:057,0.9978,2.0483,11.1099,42.5685,-0.2678,0.4061,-0.3173,355.4179
19:49:05:078,1.3902,2.1512,10.9687,41.0493,0.2086,0.196,-0.4053,355.62
19:49:05:101,1.2156,1.8903,9.8441,41.2265,0.5177,-0.0569,-0.6008,356.0478
19:49:05:123,0.323,1.9143,9.7029,42.3855,0.5556,-0.0728,-0.6912,356.6067
19:49:05:137,-0.615,2.1607,10.1504,42.9864,0.4139,-0.0484,-0.558,357.0305
19:49:05:158,-1.1486,2.4646,10.4088,42.9864,0.2783,-0.0777,-0.3051,357.2206
19:49:05:177,-1.4142,2.8331,10.6624,43.4234,0.1561,0.0433,-0.0657,357.1411
19:49:05:200,-1.1749,2.6369,11.0166,43.4792,0.0376,0.2864,0.142,356.7983
19:49:05:224,-0.7298,2.3378,11.4162,42.5208,0.0107,0.4073,0.3008,356.2389
19:49:05:237,-0.3326,2.2516,11.5526,42.9662,0.0596,0.3585,0.4365,355.5491
19:49:05:258,-0.3111,2.144,11.6028,43.5727,0.1133,0.2546,0.4866,354.7788
19:49:05:282,-0.9476,1.8066,11.2917,42.4136,-0.0479,-0.0435,0.3864,354.1901
19:49:05:308,-1.6415,1.5912,13.5769,43.987,-0.4535,-0.3306,0.2801,353.7828
19:49:05:332,-1.3185,0.7753,14.5627,42.2647,-0.5818,-0.4136,0.3338,353.3094
19:49:05:338,-1.2084,0.335,12.7466,43.7362,-0.186,-0.1192,0.5061,352.6062
19:49:05:359,-1.0385,0.2153,9.9589,43.6759,0.3296,0.3927,0.7908,351.5461
19:49:05:381,-0.7466,0.5527,8.3773,43.1014,0.5287,0.4623,1.0327,350.1877
19:49:05:399,-0.6676,1.1366,7.9609,42.8842,0.4029,-0.096,1.0266,348.8957
19:49:05:417,-0.4905,1.1677,8.418,43.0879,0.1695,-0.7508,0.8396,347.9102
19:49:05:437,-0.4187,0.3805,7.8078,45.0177,-0.0406,-1.0245,0.5818,347.2127
19:49:05:458,-0.2177,-0.1507,7.8796,45.075,-0.2874,-0.4039,0.3961,346.6465
19:49:05:482,0.1196,-0.3924,7.9442,44.2415,-0.5659,0.5295,0.3314,345.4778
19:49:05:498,-0.122,-0.2919,9.1573,43.8516,-0.8152,1.3371,0.0846,345.2635
19:49:05:631,-1.1079,0.0455,9.6909,43.351,-0.6453,1.2821,-0.0253,345.0555
19:49:05:633,-1.529,0.1699,9.8489,42.9556,-0.3069,0.9461,0.0235,344.8312
19:49:05:633,-1.2084,0.0455,8.8989,41.6101,0.1561,0.4648,0.2043,344.4343
19:49:05:634,-0.6317,0.2871,7.5709,42.932,0.5238,0.1019,0.39,343.8468
19:49:05:634,-0.1819,0.8088,6.6353,44.0644,0.6277,-0.0435,0.4829,343.1246
19:49:05:635,-0.0239,1.0576,6.3099,44.5576,0.4566,0.0139,0.4169,342.4509
19:49:05:642,-0.1436,1.0313,7.0947,42.9695,0.0816,0.174,0.1958,342.0177
19:49:05:657,-0.5168,0.7729,8.7601,42.9183,-0.3374,0.3182,-0.0351,341.8251
19:49:05:677,-0.8662,0.6508,10.7366,43.2798,-0.5781,0.4049,-0.1561,341.7676
19:49:05:696,-0.6317,0.2728,11.8134,44.4538,-0.5073,0.3853,-0.1634,341.7185
19:49:05:718,-0.3183,-0.1914,11.6722,42.9183,-0.2531,0.2351,-0.139,341.6324
19:49:05:736,-0.2321,-0.2465,11.7799,43.2847,-0.0675,0.1398,-0.1084,341.5286
19:49:05:756,0.0263,-0.1675,10.8826,43.2847,0.0718,-0.0557,-0.0681,341.3751
19:49:05:778,0.7107,-0.8279,9.7125,43.6752,0.0999,-0.2463,-0.073,341.2229
19:49:05:798,0.7681,-1.4333,10.3537,43.3089,-0.2764,-0.2622,-0.266,341.2994
19:49:05:816,-0.1172,-1.6989,12.5743,42.9365,-0.8139,-0.5407,-0.536,341.7089
19:49:05:836,-1.5099,-1.4955,15.125,43.3548,-1.1707,-0.8376,-0.6594,342.286
19:49:05:858,-1.6223,-1.0074,16.5392,44.1474,-1.0546,-0.7423,-0.5153,342.671
19:49:05:879,-0.9882,-1.5266,14.5771,44.1474,-0.3753,-0.5065,-0.211,342.7022
19:49:05:898,-0.2106,-1.8951,10.7605,43.0221,0.3345,-0.1156,0.0809,342.3969
19:49:05:920,0.2991,-1.127,10.2796,43.6883,0.58,0.3878,0.3668,340.9852
19:49:05:938,1.6582,-0.4331,7.5757,44.4716,0.7682,-0.1644,0.5098,340.3737
19:49:05:958,1.8473,-0.1292,7.4058,44.1082,0.5862,-0.4259,0.2385,339.8854
19:49:05:981,1.3615,0.0909,7.4369,43.3034,0.4176,-0.5896,-0.106,339.8096
19:49:05:999,0.6748,0.2034,7.5637,43.4595,0.2538,-0.5273,-0.4016,340.072
19:49:06:017,0.2297,0.1723,7.9059,43.7881,0.1256,-0.3782,-0.5275,340.5009
19:49:06:037,0.3183,0.2728,8.3988,44.8745,0.0535,-0.228,-0.4872,340.8655
19:49:06:057,0.5695,0.8183,8.595,44.6772,0.0694,-0.1107,-0.4065,341.1076
19:49:06:078,0.6604,1.3256,8.741,44.802,0.128,-0.0386,-0.3992,341.3584
19:49:06:098,0.6269,1.6654,8.9946,43.375,0.1732,-0.0691,-0.431,341.6682
19:49:06:117,0.8853,1.8233,8.9061,45.2123,0.2221,-0.1449,-0.4542,341.9837
19:49:06:137,0.8997,2.0554,8.9061,44.3972,0.2184,-0.1009,-0.5043,342.3708
19:49:06:163,0.5743,2.3617,9.6837,45.1314,0.1048,0.0799,-0.5751,342.8113
19:49:06:181,0.1938,2.6871,10.8132,44.365,0.0107,0.163,-0.6105,343.2977
19:49:06:199,0.1436,2.7111,11.5669,45.3272,0.0486,0.0518,-0.6142,343.8034
19:49:06:217,-0.1077,2.668,12.1125,45.1239,0.1793,-0.0972,-0.624,344.3513
19:49:06:236,-0.4905,2.4933,12.0407,46.1682,0.3797,-0.1046,-0.5873,344.8776
19:49:06:257,-0.8255,2.4885,11.8469,43.0999,0.5813,0.0323,-0.4713,345.252
19:49:06:278,-1.0792,2.3043,11.7583,45.8339,0.7206,0.1214,-0.321,345.4685
19:49:06:298,-0.5767,1.8784,11.196,45.8853,0.8501,0.1263,-0.1048,345.4076
19:49:06:317,0.2417,1.7515,10.7079,43.1917,0.9221,0.1581,0.1103,345.0976
19:49:06:338,0.5815,1.5075,10.4375,45.8339,0.8916,0.1886,0.2007,344.6819
19:49:06:362,0.1675,1.4357,10.0355,45.3188,0.8036,0.1874,0.1689,343.9662
19:49:06:380,-0.323,1.4118,9.7244,46.6876,0.6827,0.1935,0.1273,343.6967
19:49:06:401,-0.7226,0.8279,10.8562,46.1796,0.2148,-0.3135,0.0382,343.731
19:49:06:419,-1.0146,0.6915,10.7007,45.5105,0.194,-0.3868,0.0394,343.6463
19:49:06:439,-1.2586,0.5791,9.2363,47.1658,0.442,-0.0227,0.1677,343.3529
19:49:06:461,-1.2538,0.591,7.3795,45.9395,0.5874,0.3145,0.3448,342.7884
19:49:06:476,-1.4022,1.0337,6.6832,44.2357,0.3491,0.3768,0.4487,342.0905
19:49:06:496,-1.4237,1.2945,7.5278,44.9001,-0.0956,0.3206,0.5232,341.3407
19:49:06:517,-0.6437,1.2036,8.4586,45.2175,-0.3863,0.1581,0.6197,340.5113
19:49:06:537,0.5719,1.0433,8.7817,45.8923,-0.4205,-0.0447,0.6393,339.6769
19:49:06:559,1.2586,0.9667,8.8367,46.7454,-0.335,-0.1656,0.511,339.0055
19:49:06:577,0.9811,1.2251,8.8654,45.444,-0.2226,-0.2023,0.2764,338.6085
19:49:06:599,0.3278,1.4381,8.7482,43.929,-0.0931,-0.2084,0.0602,338.4701
19:49:06:617,-0.1938,1.5458,8.2816,44.5493,0.0278,-0.2182,-0.0608,338.4659
19:49:06:636,-0.4331,1.7228,7.9872,45.3629,0.0694,-0.1583,-0.0876,338.4832
19:49:06:658,-0.4068,1.9334,8.1236,45.4619,0.0181,-0.0093,-0.0388,338.4085
19:49:06:679,-0.2082,2.1272,8.54,45.094,-0.0455,0.1447,0.0382,338.2208
19:49:06:696,0.0168,2.2827,9.0329,44.9233,-0.0479,0.196,0.0895,337.9608
19:49:06:716,0.0981,2.3761,9.2889,45.6263,0.0315,0.1227,0.087,337.7022
19:49:06:737,-0.1531,2.4072,9.0138,45.5416,0.1744,-0.0056,0.0589,337.5414
19:49:06:763,-0.5527,2.2899,8.8152,46.0622,0.2844,-0.1107,0.0443,337.4104
19:49:06:778,-0.3302,2.2564,9.0257,45.8615,0.288,-0.2402,0.0785,337.281
19:49:06:796,-0.012,2.132,9.4301,45.0916,0.2062,-0.3159,0.1212,337.1119
19:49:06:817,0.3493,1.809,10.2054,45.8974,0.0755,-0.3354,0.1225,336.9447
19:49:06:836,0.3087,1.4213,11.586,45.8083,-0.0516,-0.3391,0.1078,336.778
19:49:06:866,0.1388,1.4261,11.3109,46.954,0.1427,0.1935,0.3949,336.0312
19:49:06:880,0.1747,2.1918,10.1671,46.6032,0.2196,0.4452,0.5208,335.271
19:49:06:894,0.7442,2.3785,9.8345,45.2175,0.0645,0.411,0.5085,334.5246
19:49:06:914,1.5721,2.0674,10.416,46.2593,-0.208,0.1422,0.3729,333.9586
19:49:06:934,2.266,1.3926,11.6889,44.0595,-0.4694,-0.2023,0.1591,333.6854
19:49:06:955,2.4239,1.0457,12.8495,44.6189,-0.5818,-0.3098,-0.0583,333.6646
19:49:06:978,2.1775,0.7418,12.481,44.8344,-0.4267,-0.0044,-0.1866,333.7115
19:49:06:995,1.9095,0.7489,11.0237,43.8824,-0.1371,0.4098,-0.2025,333.7123
19:49:07:015,2.2349,0.6604,9.7914,45.9395,0.0364,0.466,-0.1719,333.6621
19:49:07:035,2.3593,0.5982,9.2626,44.9506,0.0193,0.1483,-0.2392,333.7383
19:49:07:055,2.0339,0.8159,9.1071,44.4623,-0.0772,-0.162,-0.409,334.0837
19:49:07:076,1.5888,0.9093,8.7099,45.5105,-0.1188,-0.1913,-0.5715,334.6185
19:49:07:094,0.8159,1.0217,8.1093,46.9708,-0.0894,-0.0508,-0.6765,335.2643
19:49:07:115,0.012,1.3711,7.468,45.5261,-0.0394,0.0384,-0.679,335.9272
19:49:07:135,-0.1101,1.6295,7.0158,46.7239,0.007,0.0127,-0.5605,336.4801
19:49:07:156,0.0502,1.9478,7.0205,44.3675,0.0119,-0.1302,-0.4261,336.9365
19:49:07:178,0.2632,2.1846,7.1904,43.4224,-0.0125,-0.2719,-0.3186,337.2784
19:49:07:194,0.5838,2.3593,7.5517,44.7248,-0.0211,-0.3171,-0.2416,337.5494
19:49:07:215,0.9236,2.467,7.8628,45.7219,-0.0223,-0.2805,-0.2171,337.7975
19:49:07:236,1.1318,2.5149,8.2217,46.6051,-0.0394,-0.2182,-0.2636,338.0772
19:49:07:256,1.0935,2.5316,8.5783,46.2003,-0.0589,-0.1742,-0.3479,338.4248
19:49:07:277,0.9787,2.5436,8.9635,46.5444,-0.0772,-0.184,-0.4151,338.844
19:49:07:298,0.9165,2.4526,9.4134,46.9092,-0.0833,-0.2524,-0.4505,339.3309
19:49:07:317,0.8638,2.8211,9.8489,46.5261,-0.0565,-0.3416,-0.4664,339.852
19:49:07:339,0.4475,3.0939,9.7531,45.7658,-0.0626,-0.2096,-0.4639,340.4231
19:49:07:357,0.6843,3.472,10.0929,46.9076,-0.1041,-0.0447,-0.4542,341.3923
19:49:07:378,0.9834,2.9264,9.7699,45.4281,-0.1432,0.0421,-0.4896,341.8183
19:49:07:396,0.6867,2.6465,10.3418,46.9495,-0.2324,0.3133,-0.6386,342.3838
19:49:07:415,-0.3541,2.2469,11.3611,47.1287,-0.2128,0.6053,-0.7278,343.0363
19:49:07:435,-1.2634,2.1009,11.3133,45.9535,-0.1456,0.5662,-0.6081,343.5797
19:49:07:459,-1.1031,1.4285,11.8828,46.3848,-0.0589,0.5002,-0.2379,343.7483
19:49:07:476,0.1723,0.4834,13.4501,47.9541,-0.1188,-0.0337,-0.007,343.7344
19:49:07:496,0.3661,0.5264,14.6704,47.0315,-0.3399,-0.9378,-0.1793,344.0866
19:49:07:517,-0.4762,0.4738,14.2828,48.2826,-0.2654,-0.8693,-0.4041,344.6569
19:49:07:542,-1.6008,0.7202,12.1268,47.8773,0.1182,-0.0031,-0.365,345.0882
19:49:07:561,-2.1368,0.3446,9.6096,49.5674,0.4628,0.5087,-0.1145,345.1588
19:49:07:574,-1.8592,0.5982,8.1523,49.6182,0.5947,0.4367,0.1774,344.9091
19:49:07:595,-0.9045,0.9332,7.6881,50.5441,0.3931,-0.0471,0.4646,344.4244
19:49:07:615,0.0622,1.1294,7.9633,50.9908,0.084,-0.2341,0.6307,343.8122
19:49:07:637,0.1364,1.2299,8.1787,49.1996,-0.1114,-0.0801,0.4853,343.3314
19:49:07:768,-0.4786,0.7537,7.5254,50.9908,-0.1481,0.174,0.1994,343.11
19:49:07:770,-1.0552,0.5934,7.1545,51.3294,-0.2006,0.4135,0.0333,343.0496
19:49:07:771,-1.6008,0.5264,7.0301,50.9519,-0.2703,0.4586,0.0858,342.9492
19:49:07:773,-1.9478,0.9021,6.9823,49.2349,-0.3179,0.3377,0.2373,342.6877
19:49:07:774,-1.5099,1.0074,6.798,48.9041,-0.3326,0.1899,0.4206,342.2361
19:49:07:775,-1.0744,1.048,7.0421,50.2053,-0.3411,0.2131,0.5379,341.6415
19:49:07:788,-0.5408,1.1701,7.4776,50.419,-0.4499,0.3059,0.5366,340.3849
19:49:07:796,-0.5288,1.1414,8.0614,49.5681,-0.5623,0.389,0.4878,339.8127
19:49:07:814,-0.4498,1.0361,8.7601,49.4889,-0.6698,0.356,0.4963,339.2513
19:49:07:836,-0.3637,0.8088,9.399,47.835,-0.6905,0.3328,0.5489,338.6263
19:49:07:856,-0.3852,0.7657,10.1073,50.7184,-0.627,0.3951,0.5586,337.9776
19:49:07:875,-0.402,0.7825,10.7533,51.4241,-0.5268,0.4831,0.5269,337.3913
19:49:07:896,-0.2489,0.4307,11.4353,50.6238,-0.4144,0.5613,0.4548,336.8622
19:49:07:916,-0.012,-0.0718,12.0814,50.2168,-0.2947,0.5307,0.3106,336.477
19:49:07:938,-0.0574,-0.5575,12.2034,49.7161,-0.1847,0.4049,0.1359,336.2973
19:49:07:959,-0.3685,-0.6867,12.1579,50.9344,-0.142,0.3487,0.0418,336.2285
19:49:07:975,-0.3087,-0.7705,12.2106,49.455,-0.1982,0.3511,0.0565,336.1463
19:49:07:995,0.1986,-0.9523,12.3517,51.0255,-0.3252,0.323,0.0809,336.0283
19:49:08:015,0.3948,-0.9954,12.8925,50.5227,-0.5024,0.1642,-0.0205,336.0317
19:49:08:036,-0.1651,-0.9476,13.6391,50.0585,-0.6771,0.0139,-0.2428,336.3067
19:49:08:057,-0.8853,-0.9763,13.8903,49.9274,-0.6734,0.1569,-0.3967,336.7233
19:49:08:076,-1.2371,-1.1103,13.127,49.5542,-0.4413,0.4501,-0.3295,337.0863
19:49:08:095,-0.9308,-0.95,11.8493,52.202,-0.1579,0.5576,-0.1219,337.2225
19:49:08:115,-0.4307,-0.8542,11.0166,52.2262,-0.0125,0.4293,0.0565,337.2065
19:49:08:138,0.1747,-0.6915,10.9017,51.6522,0.0083,0.1923,0.1567,337.059
19:49:08:158,0.9834,-0.6652,10.4423,52.675,0.0449,0.0311,0.1933,336.692
19:49:08:177,1.261,-0.5216,9.7651,52.804,0.117,0.1324,0.1371,336.7177
19:49:08:197,-0.3637,0.0814,8.6955,53.06,0.1732,0.4012,-0.0046,336.8885
19:49:08:217,-0.9165,0.3637,8.2074,52.5607,0.4017,0.8398,-0.0889,337.022
19:49:08:240,-1.017,0.7944,7.334,52.6948,0.624,0.7164,0.0418,336.9583
19:49:08:256,-0.6245,1.3807,6.4654,52.6948,0.7682,0.3951,0.1212,336.8623
19:49:08:277,-0.3135,1.7635,6.396,53.2663,0.7059,-0.052,0.0724,336.8351
19:49:08:295,-0.3876,2.0195,7.6259,52.2069,0.4579,-0.4173,-0.1145,337.0392
19:49:08:314,-0.5001,2.0483,8.9372,53.4474,0.2526,-0.5957,-0.3247,337.4812
19:49:08:337,-0.8207,1.7252,9.21,53.507,0.227,-0.6336,-0.536,338.1891
19:49:08:355,-1.2634,1.3687,9.7077,52.4676,0.2025,-0.4088,-0.7009,339.0609
19:49:08:376,-1.5793,1.1438,10.5571,54.1871,0.1903,-0.2854,-0.7156,339.9518
19:49:08:395,-1.6056,1.3998,11.275,53.0399,0.2367,-0.2878,-0.4872,340.5946
19:49:08:417,-1.9358,1.7898,11.1601,52.3704,0.4628,-0.4198,-0.2636,341.0099
19:49:08:438,-1.9071,2.1392,9.8967,53.7971,0.6875,-0.5932,-0.1536,341.3291
19:49:08:456,-1.3161,1.9478,10.8562,54.9603,0.6668,-0.4173,-0.0192,341.4734
19:49:08:476,-0.7489,1.6104,10.9591,54.1497,0.657,-0.2402,0.1139,341.4556
19:49:08:496,-0.3924,1.5027,10.6026,55.1833,0.6533,-0.3917,0.1799,341.3738
19:49:08:522,-0.4714,1.2849,11.1673,56.0124,0.4896,-0.3733,0.12,341.3599
19:49:08:537,-0.8758,1.2275,11.1673,55.0848,0.3736,-0.2719,0.0479,341.4283
19:49:08:555,-1.2132,1.3256,10.1647,56.5097,0.3748,0.0042,0.0309,341.479
19:49:08:574,-1.4883,1.0816,9.4875,55.9301,0.2978,0.2326,0.0333,341.4745
19:49:08:594,-1.8066,0.5958,10.861,57.1122,-0.0504,0.1557,-0.029,341.581
19:49:08:617,-2.4574,0.4235,12.3446,56.5928,-0.3106,0.0811,-0.0657,341.7414
19:49:08:635,-3.058,0.3183,11.8708,54.3768,-0.0504,0.3572,0.0516,341.7379
19:49:08:655,-3.2207,0.4451,9.6814,56.5097,0.4542,0.6321,0.3045,341.4043
19:49:08:674,-3.0078,0.7801,8.0136,55.8201,0.7157,0.6126,0.5525,340.8017
19:49:08:694,-1.876,1.2706,7.4489,57.9699,0.4273,-0.0569,0.77,339.2734
19:49:08:715,-1.3065,1.1916,7.9681,55.9502,0.1866,-0.2438,0.7126,338.6502
19:49:08:735,-1.0146,1.0552,8.4036,55.4033,-0.0052,-0.2047,0.5867,338.1561
19:49:08:754,-0.9595,0.6963,8.6859,55.4033,-0.1066,-0.0056,0.4707,337.7372
19:49:08:774,-1.4142,0.9715,8.8846,56.2014,-0.1249,0.207,0.4145,337.3438
19:49:08:793,-1.8018,1.3663,8.5831,55.6009,-0.0467,0.2962,0.4352,336.9047
19:49:08:813,-1.7563,1.5314,7.9346,55.1879,0.1072,0.2595,0.5244,336.4051
19:49:08:834,-1.4979,1.8018,7.4656,55.7682,0.2062,0.1361,0.6283,335.7785
19:49:08:856,-1.151,1.9813,7.2144,56.914,0.2086,0.0433,0.7052,335.1036
19:49:08:875,-0.8207,2.1224,7.1282,55.8463,0.1769,0.0591,0.7455,334.3882
19:49:08:894,-0.5432,2.4694,7.2383,56.5143,0.1194,0.0298,0.7162,333.7068
19:49:08:916,-0.4379,2.7159,7.6642,56.3284,0.0278,-0.0435,0.6246,333.1205
19:49:08:934,-0.3446,2.5675,8.3031,54.2854,-0.0491,-0.0325,0.5171,332.6522
19:49:08:966,-0.4546,2.4311,8.7912,56.3525,-0.0797,-0.0288,0.4303,332.2714
19:49:08:974,-0.5671,2.5747,9.5234,56.5143,-0.1151,-0.074,0.3815,331.9793
19:49:08:995,-0.3805,2.6345,10.4973,56.7414,-0.1212,-0.1119,0.3656,331.6876
19:49:09:014,0.1364,2.3569,11.5262,57.7297,-0.0675,-0.1656,0.3094,331.4665
19:49:09:033,0.6532,2.1535,11.921,57.7573,0.0327,-0.2182,0.2043,331.352
19:49:09:053,0.5216,2.1392,11.543,57.9895,0.15,-0.1339,0.0675,331.3516
19:49:09:073,0.0311,2.2636,10.6672,57.9897,0.2221,0.0274,-0.0302,331.4569
19:49:09:094,-0.1149,2.3426,10.0164,57.3488,0.1659,0.1312,-0.0424,331.539
19:49:09:117,0.2608,2.1918,9.9661,56.0901,-0.0296,0.1178,-0.0034,331.5825
19:49:09:137,1.194,1.6917,10.4614,56.7564,-0.2996,-0.0129,-0.0034,331.6126
19:49:09:158,1.2586,0.9954,13.1725,56.4413,-0.6991,-0.2878,-0.2794,332.1468
19:49:09:174,1.0887,0.5982,12.0024,56.6656,-0.335,0.1227,-0.299,332.4611
19:49:09:199,0.7992,0.4977,10.2915,57.6945,0.0498,0.4122,-0.3234,332.761
19:49:09:216,0.9667,0.4116,9.7484,56.9672,0.0718,0.2791,-0.3259,333.0989
19:49:09:237,1.4022,0.3326,9.7484,56.9672,-0.0247,0.0188,-0.3295,333.491
19:49:09:254,1.7515,0.3063,9.6646,56.3348,-0.0919,-0.2157,-0.4261,334.0284
19:49:09:274,1.718,0.3326,9.2219,55.4161,-0.1481,-0.1937,-0.5824,334.7109
19:49:09:294,1.0816,0.4498,8.5902,56.3348,-0.131,0.1422,-0.7327,335.5185
19:49:09:315,0.2776,0.7513,7.7121,56.1343,-0.0479,0.4305,-0.8353,336.3789
19:49:09:334,-0.1938,0.9787,6.8267,54.5843,0.0376,0.4782,-0.8586,337.2843
19:49:09:355,-0.4427,1.1629,6.1974,55.8702,0.084,0.334,-0.8085,338.1888
19:49:09:375,-0.4642,1.3759,6.0084,54.8479,0.0669,0.086,-0.7254,339.0482
19:49:09:396,-0.2225,1.5314,6.1926,53.4649,-0.0137,-0.1717,-0.6704,339.9032
19:49:09:413,-0.0838,1.6152,6.6233,54.9415,-0.1249,-0.322,-0.679,340.7947
19:49:09:434,-0.189,1.7276,7.1306,55.6307,-0.2361,-0.3685,-0.7462,341.7549
19:49:09:454,-0.5695,1.9095,7.8556,54.5813,-0.3741,-0.399,-0.8549,342.8771
19:49:09:473,-0.859,1.986,9.0999,54.7562,-0.5048,-0.399,-0.916,344.04
19:49:09:495,-1.1773,2.1296,10.2485,55.2406,-0.5574,-0.3672,-0.9233,345.2054
19:49:09:516,-1.663,2.2588,10.8658,55.0112,-0.5207,-0.289,-0.8867,346.3454
19:49:09:536,-2.1631,2.455,11.4353,55.5537,-0.4535,-0.1131,-0.7657,347.3323
19:49:09:553,-2.2684,2.6512,11.8397,54.1317,-0.3643,0.053,-0.5519,348.0606
19:49:09:574,-2.1655,2.656,12.39,54.3309,-0.2629,0.0982,-0.3332,348.5526
19:49:09:597,-2.0124,2.6488,12.9906,54.3435,-0.1566,0.0237,-0.1609,348.8621
19:49:09:617,-1.4213,1.864,12.2321,54.6989,0.1989,-0.0606,0.0492,348.9762
19:49:09:636,-1.7133,1.9908,11.2199,55.2725,0.2526,-0.0691,0.0724,349.0359
19:49:09:656,-2.1152,2.0004,10.8921,52.8088,0.1231,-0.0093,0.0675,349.1119
19:49:09:678,-2.2325,1.3926,11.7344,51.8436,-0.1493,-0.0618,0.0492,349.196
19:49:09:696,-2.2588,0.5886,13.0648,52.4157,-0.3753,-0.3,0.0736,349.2955
19:49:09:715,-2.4742,0.3996,13.3089,53.563,-0.2898,-0.443,0.2239,349.2305
19:49:09:734,-2.0028,0.3637,11.3109,53.9205,0.1805,-0.2292,0.5317,348.8295
19:49:09:754,-1.4859,0.5695,8.8726,56.2333,0.5972,-0.0031,0.781,348.1142
19:49:09:886,-1.048,0.8207,7.7264,54.794,0.5422,-0.1693,0.8103,347.3965
19:49:09:886,-0.658,0.7489,8.2481,54.4626,0.1744,-0.487,0.6918,346.8372
19:49:09:887,-0.4857,0.6341,9.6383,53.6339,-0.1676,-0.6971,0.5012,346.5163
19:49:09:888,-0.3589,0.3111,10.5069,53.0421,-0.2984,-0.7362,0.2947,346.4211
19:49:09:889,-0.6628,0.0335,10.3801,52.5848,-0.2263,-0.5407,0.0895,346.5227
19:49:09:890,-1.3448,-0.0287,9.6407,51.2649,-0.0711,-0.1412,-0.0107,346.6776
19:49:09:905,-1.8425,0.2393,8.473,52.4554,0.1133,0.2387,0.0431,346.7295
19:49:09:914,-2.0291,0.5815,7.3101,51.8546,0.2575,0.4037,0.1579,346.6706
19:49:09:934,-2.0172,0.9236,6.5372,52.2158,0.3076,0.4,0.2837,346.4716
19:49:09:953,-1.6678,1.017,5.9151,51.732,0.3113,0.3572,0.3986,346.1272
19:49:09:974,-1.4931,1.1749,5.4245,52.7898,0.2624,0.2326,0.4365,345.7506
19:49:09:994,-1.4812,1.4429,5.5801,51.5164,0.0852,0.0274,0.4108,345.455
19:49:10:015,-1.1629,1.4094,7.011,51.8795,-0.175,-0.1473,0.3937,345.1725
19:49:10:035,-0.4594,1.4046,8.5998,52.4634,-0.3338,-0.2683,0.379,344.9034
19:49:10:053,0.1244,1.2682,9.7364,50.5703,-0.3265,-0.2903,0.2898,344.7153
19:49:10:074,-0.4451,1.3974,11.1314,51.5456,-0.1957,-0.1436,0.0443,344.6316
19:49:10:104,-0.5192,1.3424,11.8158,49.7672,-0.1004,-0.1351,0.0235,344.7132
19:49:10:113,0.2513,0.871,12.3111,49.156,-0.0271,-0.2292,0.0296,344.7805
19:49:10:139,0.7729,0.5719,12.591,50.7197,-0.0052,-0.278,-0.0082,344.891
19:49:10:152,1.0122,0.4259,12.5025,51.0977,-0.0296,-0.1717,-0.0596,345.0244
19:49:10:174,1.06,0.4379,12.1962,50.3277,-0.0956,0.0335,-0.1048,345.1802
19:49:10:194,1.395,0.2704,11.8684,48.3918,-0.1982,0.2057,-0.1316,345.3368
19:49:10:215,1.7228,0.1436,11.9258,50.3141,-0.3399,0.1813,-0.2098,345.5868
19:49:10:234,1.4118,-0.1268,12.4164,50.6988,-0.4804,0.0115,-0.398,346.0653
19:49:10:254,0.4068,-0.3087,12.7155,51.5239,-0.5415,-0.0887,-0.6032,346.7927
19:49:10:278,-0.6796,-0.4259,12.0215,51.1329,-0.3973,0.0665,-0.646,347.5913
19:49:10:297,-1.1079,-0.6293,10.5906,48.9734,-0.0956,0.3634,-0.4493,348.1863
19:49:10:319,-0.7992,-0.6174,9.2052,49.0485,0.1378,0.5002,-0.1109,348.3784
19:49:10:333,-0.201,-0.1842,8.5376,49.156,0.1891,0.3963,0.2007,348.2057
19:49:10:354,0.5575,0.1651,8.528,51.4474,0.1341,0.1557,0.3741,347.8409
19:49:10:376,1.1725,0.2919,8.4323,49.2635,0.0852,-0.0667,0.3558,347.5072
19:49:10:396,1.2251,0.3111,8.1284,49.9877,0.0559,-0.1351,0.1799,347.3499
19:49:10:416,0.6556,0.2967,7.6187,48.3009,0.0009,-0.008,-0.0376,347.436
19:49:10:433,-0.2465,0.3374,7.2239,51.0766,-0.1188,0.1984,-0.2233,347.7318
19:49:10:453,-0.9284,0.4618,7.4154,50.8786,-0.2947,0.3914,-0.3125,348.1449
19:49:10:480,-1.151,0.6102,8.0064,51.1829,-0.4144,0.488,-0.2905,348.5431
19:49:10:498,-0.9069,0.7537,8.5615,49.6378,-0.3973,0.3927,-0.211,349.0679
19:49:10:516,-0.3517,0.9715,8.7697,49.4805,-0.2605,0.1276,-0.1463,349.3155
19:49:10:533,-0.1436,1.1103,9.0832,50.711,0.0095,-0.2121,-0.2147,349.5505
19:49:10:555,-0.3613,1.3567,9.6168,48.9389,0.0461,-0.1436,-0.2477,349.9173
19:49:10:577,-0.3948,1.5434,9.7101,50.5768,0.0816,-0.1107,-0.255,350.2803
19:49:10:596,-0.0957,1.7659,9.7723,50.9677,0.1011,-0.1791,-0.2502,350.6339
19:49:10:614,0.1364,1.8736,9.8584,49.4841,0.0645,-0.3122,-0.2856,351.0401
19:49:10:633,-0.1101,1.7444,10.2197,49.1949,-0.0149,-0.2426,-0.3222,351.5045
19:49:10:653,-0.5743,2.4574,10.7486,49.0689,-0.0772,0.0506,-0.2624,351.8654
19:49:10:677,-0.2704,3.0604,11.8325,48.6604,-0.0565,0.2729,-0.0534,352.0002
19:49:10:695,-0.1699,2.5125,12.335,48.4961,0.0975,0.141,0.0137,352.0626
19:49:10:713,0.6078,2.3426,12.2178,49.3435,0.3467,-0.1498,0.0199,352.1021
19:49:10:733,0.737,1.6941,11.7129,49.7584,0.519,-0.2548,-0.073,352.2502
19:49:10:754,0.2034,1.0385,10.8323,51.1329,0.6155,-0.1436,-0.2917,352.6496
19:49:10:774,-2.479,-0.5001,9.4445,51.291,0.5678,-0.1351,-0.5959,353.4655
19:49:10:793,-3.7304,0.0239,9.8991,48.2277,0.2783,-0.0141,-0.6973,354.4099
19:49:10:813,-3.4863,-0.2321,11.7751,49.5434,-0.0699,-0.0166,-0.4029,355.0024
19:49:10:834,-3.2112,-1.127,11.5071,50.3359,-0.0601,-0.4136,-0.1133,355.3176
19:49:10:856,-2.3976,-0.4427,10.7605,51.1329,0.0755,-0.5725,0.142,355.354
19:49:10:874,-1.5003,-0.2441,9.3153,49.7479,0.1781,-0.0752,0.4646,354.9595
19:49:10:894,-1.3591,0.1149,7.8317,49.2439,0.2954,0.4293,0.6539,354.2851
19:49:10:914,-1.8353,0.682,7.3747,50.7036,0.2294,0.4025,0.6698,353.6365
19:49:10:933,-1.4764,0.7896,8.4754,50.1466,0.0254,0.0921,0.7248,352.9331
19:49:10:953,-0.7394,0.6652,9.1406,48.5815,-0.0601,-0.3513,0.8079,352.1743
19:49:10:976,0.067,0.5192,8.9348,49.4655,-0.0027,-0.5053,0.7969,350.7281
19:49:10:994,0.536,0.2297,8.7697,49.0485,-0.1322,0.0042,0.511,350.1469
19:49:11:014,-0.122,0.4786,8.8391,50.5994,-0.2422,0.4061,0.2935,349.846
19:49:11:036,-0.7633,0.6174,8.6812,48.232,-0.2666,0.6956,0.186,349.6425
19:49:11:059,-1.3591,0.9787,8.2744,50.6708,-0.2141,0.819,0.1872,349.4597
19:49:11:094,-1.4764,1.5482,8.0901,49.6816,-0.1664,0.6431,0.2886,349.1717
19:49:11:096,-0.8973,1.6774,8.0255,48.2466,-0.0943,0.3267,0.4096,348.7581
19:49:11:115,-0.3829,1.7946,8.1619,50.3085,-0.0406,0.0885,0.4255,348.3433
19:49:11:131,-0.3685,1.9693,8.4754,48.6069,-0.0223,-0.03,0.3485,348.0316
19:49:11:152,-1.6295,2.1559,9.5139,48.7848,-0.0613,-0.1351,0.2227,347.8963
19:49:11:172,-2.0602,1.4548,11.0836,49.6347,-0.1139,-0.3917,0.1542,347.862
19:49:11:194,-1.5003,0.3565,11.8373,49.2639,-0.0259,-0.7704,0.1958,347.8002
19:49:11:213,-0.8949,0.0239,11.8181,48.9813,0.0791,-0.9866,0.3069,347.6244
19:49:11:234,0.0024,0.3637,12.7681,48.8257,0.0168,-0.6274,0.4462,347.2435
19:49:11:255,0.5886,0.3183,13.2156,46.8227,-0.0235,-0.0117,0.4633,346.7299
19:49:11:274,0.725,0.1077,12.2871,48.3193,0.0657,0.2681,0.3497,346.3196
19:49:11:294,0.7107,0.067,11.3731,49.2069,0.1133,0.3682,0.2434,346.0202
19:49:11:313,0.8112,0.2776,10.6361,49.2069,0.0804,0.4489,0.2129,345.7564
19:49:11:333,1.2132,0.1819,10.0355,49.5697,0.0571,0.4244,0.2239,345.4737
19:49:11:355,1.5529,0.1579,9.7723,50.1688,-0.032,0.2974,0.1579,345.2483
19:49:11:376,1.651,-0.122,10.2461,50.3214,-0.2348,0.2986,-0.0486,345.2703
19:49:11:399,0.7489,-0.402,10.9328,48.9256,-0.4376,0.4623,-0.3283,346.1049
19:49:11:417,-0.2728,-0.8303,11.531,49.0201,-0.4951,0.593,-0.4896,346.5196
19:49:11:436,0.2321,-0.7442,10.7916,49.6234,0.0193,0.2167,-0.1243,346.6599
19:49:11:457,1.2036,-0.5168,9.7484,49.9916,0.2538,-0.1241,0.076,346.5223
19:49:11:477,1.9023,-0.1866,9.0927,49.698,0.2929,-0.3025,0.0993,346.3927
19:49:11:495,1.809,0.0096,8.5256,50.2282,0.2172,-0.2292,-0.0999,346.5027
19:49:11:514,0.9858,0.3302,8.0973,50.097,0.1219,-0.0777,-0.3992,346.9482
19:49:11:539,0.6724,0.5695,8.0686,50.0575,0.0742,-0.0068,-0.6313,347.6508
19:49:11:556,0.268,0.5097,7.3675,51.0399,0.1537,-0.0826,-0.784,348.5479
19:49:11:576,-0.9739,0.8303,6.6209,50.9586,0.2025,-0.2084,-0.9343,349.6476
19:49:11:595,-1.4692,0.9141,6.9799,49.8554,0.0828,-0.1937,-0.8989,350.7216
19:49:11:613,-1.1222,0.9858,7.6523,51.7942,-0.0113,-0.2194,-0.5715,351.4309
19:49:11:634,-0.5432,1.3424,8.0782,50.6278,0.0242,-0.2744,-0.255,351.7864
19:49:11:655,0.2704,1.5099,8.1476,50.6896,0.0486,-0.333,-0.0913,351.9545
19:49:11:674,0.5647,1.6104,8.4514,52.6064,-0.0211,-0.267,-0.1597,352.1671
19:49:11:694,0.1005,1.5601,9.5426,52.9992,-0.1493,-0.0581,-0.3662,352.6048
19:49:11:713,-0.0574,1.1318,10.806,50.6735,-0.1945,-0.0459,-0.4505,353.146
19:49:11:736,0.0742,1.2371,11.988,51.4951,-0.0418,-0.3452,-0.3625,353.598
19:49:11:754,0.189,1.4429,12.1579,51.5687,0.2673,-0.6128,-0.1915,353.8964
19:49:11:773,-0.1938,1.9573,11.0836,51.5373,0.6118,-0.6189,-0.0424,354.0548
19:49:11:792,-0.4403,2.5555,10.258,54.5787,0.7694,-0.2072,0.0504,354.0747
19:49:11:814,-0.3183,2.7135,9.9852,52.0998,0.7303,0.3353,0.1273,353.9341
19:49:11:834,-0.2201,2.9982,9.9135,55.1019,0.6497,0.4501,0.1811,353.7191
19:49:11:855,0.1053,2.8427,9.8848,53.1158,0.5226,0.2424,0.1078,353.5851
19:49:11:877,0.2584,2.3569,10.3274,57.6015,0.3088,0.0579,-0.0925,354.1573
19:49:12:007,-1.4668,1.3711,11.5262,57.1737,-0.2727,0.3145,-0.4652,354.6411
19:49:12:008,-1.9525,0.9667,12.9332,54.5265,-0.5036,0.4782,-0.4432,355.1487
19:49:12:027,-2.0243,0.5121,14.0339,57.5362,-0.5183,0.3927,-0.2917,355.5131
19:49:12:027,-2.053,0.3254,13.5027,55.4937,-0.1994,0.2864,-0.0522,355.6156
19:49:12:028,-2.1248,0.4834,11.5143,54.9343,0.3223,0.3621,0.2666,355.3838
19:49:12:028,-1.8784,0.5216,9.5904,54.9759,0.756,0.4257,0.5415,354.8242
19:49:12:029,-1.6223,0.5647,7.8891,54.8292,0.9258,0.2229,0.6527,354.1585
19:49:12:037,-1.395,0.7178,7.2144,55.855,0.7951,-0.1326,0.6393,353.5454
19:49:12:054,-1.0002,0.6676,7.5135,57.9233,0.4701,-0.3782,0.5953,353.0203
19:49:12:074,-0.7322,0.524,7.9633,57.5016,0.1585,-0.4173,0.5281,352.5816
19:49:12:093,-0.591,0.5815,8.2457,57.559,-0.0711,-0.2512,0.4438,352.1968
19:49:12:113,-0.6317,0.658,8.3438,57.5016,-0.2189,0.0359,0.3754,351.8211
19:49:12:134,-0.7992,0.7825,8.3653,55.9218,-0.2923,0.2363,0.3436,351.4545
19:49:12:153,-0.7537,0.9763,8.5543,57.0185,-0.3094,0.2571,0.3937,351.0169
19:49:12:173,-0.1268,1.2802,8.5448,58.7068,-0.2189,0.2033,0.4951,350.476
19:49:12:194,0.5049,1.529,8.1332,58.9024,-0.032,0.1581,0.5489,349.8482
19:49:12:213,0.5815,1.8831,7.3172,58.7996,0.1512,0.1606,0.4792,349.3227
19:49:12:237,0.0933,2.0267,6.6281,58.047,0.2208,0.1398,0.3143,348.9721
19:49:12:260,-0.3661,2.0315,6.5946,59.3603,0.1304,0.0201,0.1884,348.7823
19:49:12:274,-0.2297,2.0052,7.2431,58.9631,-0.0455,-0.107,0.1604,348.6671
19:49:12:292,0.0311,1.8473,8.0447,58.9124,-0.2153,-0.14,0.1494,348.5686
19:49:12:313,-0.1316,1.7396,9.1071,58.8293,-0.3595,-0.0593,0.0993,348.4947
19:49:12:336,-0.335,1.7372,9.9015,58.803,-0.4242,0.053,0.0736,348.4196
19:49:12:354,-0.8279,1.2012,10.2676,59.5855,-0.335,0.1227,0.0736,348.3534
19:49:12:373,-0.335,1.0026,10.9185,62.5481,-0.357,-0.1131,0.1017,348.2579
19:49:12:393,0.335,0.7896,12.0072,60.6262,-0.4205,-0.4442,0.0809,348.1923
19:49:12:413,0.7178,0.4905,12.2417,59.9266,-0.4303,-0.5798,-0.0156,348.2769
19:49:12:437,0.5623,0.2991,11.866,61.6387,-0.434,-0.3526,-0.1597,348.5061
19:49:12:460,0.1627,0.1484,12.0191,59.6406,-0.5928,-0.0728,-0.2953,348.8703
19:49:12:475,-0.2752,-0.256,12.9691,60.6712,-0.8567,-0.0251,-0.3772,349.3273
19:49:12:495,-0.536,-0.3517,14.4479,62.0421,-1.0681,-0.0422,-0.3784,349.7846
19:49:12:521,-0.3661,-0.3398,15.1059,62.4077,-0.9996,0.1129,-0.2611,350.097
19:49:12:544,0.146,-0.4164,14.1153,62.8332,-0.5525,0.4159,-0.0534,350.1618
19:49:12:555,0.8016,-0.1962,11.7129,62.6274,0.0657,0.5478,0.1408,350.0029
19:49:12:575,1.3089,0.1292,10.0834,62.6188,0.4823,0.4403,0.2202,349.7221
19:49:12:594,1.9789,0.3565,8.9635,63.2031,0.6863,0.0347,0.1628,349.5116
19:49:12:618,2.2564,0.2728,7.1091,62.5493,0.7816,-0.702,-0.0363,349.5643
19:49:12:637,1.9501,-0.6245,4.6134,63.2782,0.5959,-1.0367,-0.343,350.0092
19:49:12:657,0.6197,-0.0742,6.7478,62.4868,-0.0308,-0.2939,-0.613,350.7397
19:49:12:672,0.4092,-0.201,6.8124,61.4688,-0.313,0.4012,-0.5727,351.3469
19:49:12:692,-0.1364,0.3876,7.4082,62.4173,-0.5085,0.7347,-0.4407,351.8116
19:49:12:717,0.1268,0.6796,8.1189,64.4211,-0.4963,0.7506,-0.2978,352.1084
19:49:12:734,0.8064,0.8016,8.5639,64.55,-0.3118,0.5161,-0.1915,352.2973
19:49:12:753,0.8207,1.1988,8.4132,64.3654,-0.0406,0.1544,-0.2098,352.5108
19:49:12:773,0.7131,1.4572,8.3103,65.3338,0.1317,-0.2096,-0.3186,352.8865
19:49:12:795,0.4977,1.4142,8.3366,65.6662,0.183,-0.4503,-0.448,353.4218
19:49:12:816,-0.079,1.4955,9.4086,65.6353,0.0437,-0.3917,-0.5421,354.0896
19:49:12:833,-0.6867,1.9765,9.8584,62.8044,-0.0101,-0.2512,-0.4688,354.7032
19:49:12:853,-0.122,2.2086,10.3992,65.2504,-0.032,-0.1326,-0.2905,355.6591
19:49:12:873,0.1675,2.4933,11.0309,66.3294,0.007,-0.0154,-0.1512,355.8649
19:49:12:896,0.6748,2.3043,11.5884,67.1266,0.1036,0.3096,-0.2489,356.1244
19:49:12:916,0.7466,1.9262,12.8471,65.2504,0.2331,0.5564,-0.2929,356.4139
19:49:12:938,0.0502,2.0985,13.8855,65.9996,0.3833,0.4415,-0.3699,356.8153
19:49:12:954,-0.6796,2.0004,13.9669,65.8626,0.5788,0.2106,-0.4505,357.3268
19:49:12:973,-0.9188,1.6558,13.1318,66.7784,0.8036,0.108,-0.398,357.8117
19:49:12:994,-1.0313,1.4142,11.6722,67.7376,1.0137,0.1068,-0.2758,358.1584
19:49:13:013,-1.3735,1.2969,9.8225,67.8608,1.1543,0.1202,-0.1561,358.3867
19:49:13:033,-2.0363,1.5577,8.5161,69.9559,1.0076,-0.0178,-0.0693,358.5488
19:49:13:053,-1.8185,1.1964,10.069,68.2772,0.5018,-0.2976,0.0235,358.6609
19:49:13:073,-0.6652,0.122,12.0383,67.9064,0.0217,-0.6983,0.208,358.6342
19:49:13:094,-0.5958,0.1149,11.677,69.4478,-0.0259,-0.6947,0.3314,358.4605
19:49:13:113,-1.3543,0.5025,9.9302,68.3805,0.1793,-0.1143,0.3802,358.1518
19:49:13:133,-1.6343,0.5623,8.5854,68.0435,0.3113,0.2595,0.4682,357.6749
19:49:13:153,-1.4501,0.5838,7.7288,66.4994,0.2954,0.1569,0.5379,357.1291
19:49:13:174,-1.0648,0.9117,7.535,66.5063,0.1927,-0.1644,0.588,356.5954
19:49:13:203,-0.6867,1.1198,7.4297,67.7852,0.0596,-0.4674,0.5733,355.8568
19:49:13:215,-0.7298,0.8231,6.743,67.9735,-0.0809,-0.6446,0.4303,355.7528
19:49:13:235,-0.5168,0.3637,8.3198,68.3864,-0.5903,-0.1168,0.1591,355.6655
19:49:13:252,-0.4427,0.3972,8.7123,69.0779,-0.6185,0.0799,0.1322,355.5613
19:49:13:272,-1.1198,0.7849,8.2887,67.1917,-0.4853,0.2204,0.0919,355.4572
19:49:13:293,-1.1294,0.8159,7.9466,67.1916,-0.3643,0.4782,0.1494,355.2891
19:49:13:315,-0.6867,1.0337,7.6068,67.9098,-0.2263,0.4452,0.2862,354.9777
19:49:13:340,-0.0885,1.3902,7.2766,68.0367,-0.1212,0.1679,0.3363,354.6313
19:49:13:352,0.2608,1.6367,7.5087,67.16,-0.0919,-0.1253,0.2666,354.4087
19:49:13:373,0.4762,1.6199,8.1141,68.6551,-0.1298,-0.2646,0.1249,354.3221
19:49:13:401,0.2345,1.5338,8.7649,68.7343,-0.1908,-0.1986,-0.0205,354.4024
19:49:13:414,-0.0431,1.3256,9.5952,68.7464,-0.2531,-0.0496,-0.0962,354.5561
19:49:13:434,-0.213,1.3495,10.5284,69.9256,-0.3082,0.0372,-0.0901,354.6883
19:49:13:452,-0.2967,1.4213,11.3707,68.0365,-0.3008,0.0701,-0.0473,354.7777
19:49:13:472,-0.0574,1.1892,11.8205,69.5779,-0.2177,0.0042,-0.0217,354.8445
19:49:13:495,0.2967,0.8112,12.4546,68.9931,-0.1823,-0.1498,-0.0376,354.9352
19:49:13:515,0.6126,0.3948,13.0792,68.9776,-0.1896,-0.256,-0.0632,355.0724
19:49:13:534,0.658,0.2847,13.285,68.0365,-0.1872,-0.2402,-0.0718,355.2
19:49:13:552,0.6867,0.2919,13.2754,67.1917,-0.1786,-0.0997,-0.0351,355.2622
19:49:13:572,0.9858,0.1412,12.9452,68.3032,-0.1774,0.0433,0.0321,355.2261
19:49:13:595,0.9739,-0.0024,12.8207,69.3354,-0.2678,0.1068,0.0479,355.1662
19:49:13:613,0.323,-0.122,13.5362,66.3671,-0.4328,0.1068,0.0113,355.1871
19:49:13:634,-0.1077,-0.0239,13.9334,68.7343,-0.4437,0.1312,0.0443,355.2132
19:49:13:652,0.0072,-0.1842,12.9571,67.3753,-0.109,0.2656,0.2251,355.0043
19:49:13:672,0.5121,-0.2082,11.2223,69.2753,0.3797,0.2742,0.4499,354.5215
19:49:13:695,1.5147,-0.1699,9.7053,67.6675,0.7206,0.003,0.638,353.7991
19:49:13:715,2.4933,-0.1603,8.729,69.8113,0.8671,-0.3831,0.704,353.0222
19:49:13:734,3.3188,-0.1053,7.334,69.4986,0.745,-0.7936,0.3008,352.404
19:49:13:751,2.8211,-0.0502,6.8148,68.2589,0.5385,-0.6727,-0.0449,352.0792
19:49:13:772,1.9167,0.268,6.3817,67.1011,0.3088,-0.3623,-0.3161,352.5436
19:49:13:796,1.3256,0.6772,6.006,68.9756,0.1292,-0.0899,-0.4505,353.0557
19:49:13:814,1.2467,0.9811,6.4319,66.5344,-0.0467,0.0103,-0.4957,353.5769
19:49:13:833,1.6295,1.5793,6.8722,67.7175,-0.1933,-0.1009,-0.5091,354.1374
19:49:13:853,2.4024,1.8449,6.8506,66.2175,-0.186,-0.4906,-0.4981,354.7195
19:49:13:872,2.479,1.8161,6.6832,68.0606,-0.1835,-0.6409,-0.58,355.4313
19:49:13:895,2.1823,1.9813,7.48,67.5046,-0.2764,-0.3465,-0.7449,356.2714
19:49:13:914,1.7013,2.1152,8.5352,66.9763,-0.3802,-0.0276,-0.8488,357.2018
19:49:13:944,1.1486,2.0483,9.0592,68.5105,-0.4034,0.0042,-0.9196,358.2289
19:49:13:959,0.6341,1.8879,9.6263,66.7016,-0.4071,-0.0508,-1.0113,359.3772
19:49:13:976,0.1627,1.6798,10.4901,68.1451,-0.4499,-0.052,-1.054,0.5862
19:49:13:993,-0.3302,1.6199,11.1841,69.9846,-0.4401,0.0628,-0.9905,1.7416
19:49:14:122,-1.0146,1.7731,11.2199,69.3996,-0.3252,0.2974,-0.839,2.7368
19:49:14:124,-1.651,1.8999,11.1194,69.1849,-0.1921,0.5637,-0.6289,3.497
19:49:14:124,-1.9478,1.9717,11.7464,70.0799,-0.1334,0.6615,-0.4065,3.9939
19:49:14:125,-1.517,1.7324,12.2847,69.9419,-0.054,0.5026,-0.1951,4.2828
19:49:14:126,-0.7011,1.4285,12.3159,67.322,0.1537,0.2778,0.0003,4.3246
19:49:14:126,-0.3159,1.2371,11.5836,65.7825,0.3711,0.1007,0.1139,4.2375
19:49:14:135,-0.6174,1.3113,10.5547,65.8394,0.4261,0.0738,0.1249,4.1463
19:49:14:152,-1.2825,1.5147,9.9972,65.1835,0.3088,0.1972,0.1078,4.0854
19:49:14:175,-1.5529,1.4979,10.1767,64.918,0.1231,0.3072,0.1359,3.9767
19:49:14:194,-1.5745,0.7466,11.7153,66.0855,-0.0394,-0.0349,0.2055,3.6753
19:49:14:213,-1.742,0.548,11.0094,64.7939,0.1207,-0.2231,0.296,3.4769
19:49:14:232,-1.5458,0.2345,9.7555,65.2513,0.3076,-0.14,0.4756,3.048
19:49:14:253,-1.0193,0.2058,9.3703,64.6113,0.2954,-0.0532,0.6344,2.4321
19:49:14:277,-0.3278,0.3374,9.4923,64.6112,0.1524,-0.1485,0.7101,1.7293
19:49:14:297,0.1484,0.3805,9.6933,64.358,0.0547,-0.2316,0.6796,1.058
19:49:14:317,0.1316,0.3876,9.6957,62.361,0.0034,-0.2084,0.5586,0.5183
19:49:14:331,0.079,0.2967,9.3488,64.7557,0.0254,-0.0642,0.4682,0.0447
19:49:14:351,0.1914,0.2513,8.54,61.3795,0.1133,0.163,0.456,359.561
19:49:14:372,0.2608,0.3972,7.3364,64.6471,0.1842,0.4,0.4841,358.9717
19:49:14:394,0.548,0.7466,6.932,59.9899,0.1207,0.5393,0.4939,358.364
19:49:14:414,0.5958,1.0768,7.066,62.1737,-0.0247,0.5014,0.4475,357.7795
19:49:14:432,0.3924,1.3543,7.3986,61.0895,-0.1322,0.4025,0.3534,357.325
19:49:14:451,0.0598,1.6104,7.7456,63.3237,-0.1872,0.2815,0.2459,357.0099
19:49:14:475,0.1603,1.4883,8.071,62.5802,-0.1982,0.2668,0.1823,356.7731
19:49:14:494,-0.0191,1.5912,8.3318,61.5268,-0.1823,0.2192,0.175,356.5734
19:49:14:511,-0.2058,1.7348,8.8846,61.1285,-0.2116,0.1166,0.1836,356.3808
19:49:14:531,-0.0526,1.5673,9.6909,61.7645,-0.2458,0.0103,0.1982,356.1823
19:49:14:552,0.1962,1.4046,10.3609,62.4124,-0.2385,-0.1119,0.1726,356.026
19:49:14:576,0.335,1.2443,11.0668,61.6826,-0.2348,-0.1742,0.1261,355.9356
19:49:14:594,0.2752,1.1198,11.3946,61.6453,-0.1933,-0.074,0.0858,355.8452
19:49:14:613,0.1053,0.938,11.1888,62.2979,-0.1188,0.1105,0.0602,355.7791
19:49:14:632,-0.0239,0.8423,10.7821,62.7305,-0.0565,0.2558,0.0846,355.6684
19:49:14:656,0.2345,0.8327,10.2197,61.3988,-0.0711,0.1935,0.2349,355.4519
19:49:14:677,0.804,0.859,10.5093,61.0734,-0.1823,0.0567,0.2385,355.1569
19:49:14:693,1.4237,0.7466,11.2845,62.4516,-0.3387,-0.14,0.1298,354.7036
19:49:14:714,1.7587,0.1053,12.5097,60.4991,-0.4853,-0.3709,-0.1035,354.7985
19:49:14:733,1.517,-0.5815,14.1272,60.0003,-0.605,-0.5309,-0.3919,355.2293
19:49:14:751,0.402,-0.7705,15.4193,61.2685,-0.5757,-0.465,-0.602,355.9355
19:49:14:773,-0.481,-0.5647,14.6752,60.0514,-0.2128,-0.1131,-0.5849,356.6183
19:49:14:792,0.0144,-0.8758,11.6722,60.0003,0.4236,0.2827,-0.2868,356.9051
19:49:14:813,0.7561,-0.7083,9.1645,60.7806,0.8561,0.4367,0.0064,356.8556
19:49:14:831,1.2514,-0.2489,7.5063,59.093,0.8818,0.1728,0.1029,356.6779
19:49:14:854,1.4022,-0.1412,7.4512,60.4043,0.6142,-0.184,-0.0156,356.6821
19:49:14:872,1.3041,0.1603,7.9585,60.0942,0.299,-0.3807,-0.2135,356.9221
19:49:14:894,1.2299,0.2776,7.9226,59.7519,0.1793,-0.5273,-0.3247,357.3175
19:49:14:914,1.0552,0.5623,7.2,60.0192,0.2184,-0.5309,-0.4077,357.8136
19:49:14:930,0.7801,0.548,6.0371,59.4339,0.2221,-0.6213,-0.5226,358.4655
19:49:14:951,0.3039,0.7202,5.9414,61.2509,0.0156,-0.5578,-0.6118,359.2341
19:49:14:974,-0.1053,0.9763,6.7382,58.9986,-0.2385,-0.3037,-0.591,359.961
19:49:14:994,-0.079,1.1701,7.3029,59.2559,-0.3106,-0.1583,-0.4566,0.5253
19:49:15:011,0.3087,1.4022,7.4919,60.0132,-0.2507,-0.2108,-0.3149,0.9018
19:49:15:033,0.6341,1.6965,7.7216,58.1529,-0.2202,-0.3098,-0.2782,1.2556
19:49:15:058,0.7585,1.8903,8.3773,59.8858,-0.2519,-0.3086,-0.3259,1.6613
19:49:15:075,0.8495,1.9645,9.119,61.2267,-0.28,-0.2658,-0.3857,2.1416
19:49:15:093,0.9954,1.8592,9.7005,58.2811,-0.2581,-0.1815,-0.4187,2.6319
19:49:15:112,0.6676,1.8257,10.6672,59.9657,-0.1847,-0.0496,-0.4261,3.135
19:49:15:132,0.2369,1.9789,11.2774,60.9745,-0.1689,0.0335,-0.3589,4.0511
19:49:15:151,-0.0479,2.2062,11.8014,60.2279,-0.1029,0.1886,-0.233,4.3332
19:49:15:174,0.0646,2.1224,12.122,61.064,0.0461,0.2204,-0.0241,4.3932
19:49:15:191,-0.4953,2.1751,12.7944,60.3234,0.2331,0.1056,0.1921,4.2578
19:49:15:212,0.402,1.2658,13.2204,59.3325,0.4408,-0.1302,0.3497,3.91
19:49:15:231,1.2586,0.3111,12.2082,59.776,0.7206,-0.4918,0.4206,3.5247
19:49:15:256,1.3974,0.3948,10.6528,59.581,0.8977,-0.7435,0.4132,3.1741
19:49:15:271,0.7729,0.8183,9.4875,60.1131,0.7926,-0.6104,0.4169,2.8515
19:49:15:295,0.0407,1.2227,9.0664,60.7783,0.4872,-0.008,0.4462,2.4028
19:49:15:311,-0.2297,1.407,9.2554,60.7228,0.1695,0.5979,0.4719,1.8588
19:49:15:335,-0.0383,1.2778,9.8991,60.1873,-0.0858,0.648,0.4682,1.3033
19:49:15:354,0.5934,1.0863,10.2843,60.0436,-0.2263,0.2644,0.4646,0.7938
19:49:15:371,0.9595,1.0361,9.6239,61.6349,-0.1811,0.1251,0.4499,0.3175
19:49:15:390,1.0504,0.9452,8.8869,60.5191,-0.1566,0.2632,0.3864,359.8713
19:49:15:410,0.8806,1.1605,8.8654,61.3471,-0.3057,0.3304,0.2495,359.5699
19:49:15:431,0.6197,1.2371,9.5713,61.1037,-0.5012,0.3096,0.0712,359.4762
19:49:15:454,0.4522,0.8207,10.7725,62.4273,-0.6417,0.1227,-0.1158,359.6241
19:49:15:473,0.3111,0.536,11.543,60.7645,-0.66,-0.1302,-0.2758,0.0053
19:49:15:491,0.1986,0.2225,11.3396,58.9913,-0.4755,-0.1204,-0.332,0.4337
19:49:15:511,-0.0072,0.0287,9.9518,61.3471,-0.1725,0.1776,-0.3149,0.8322
19:49:15:532,-0.2536,-0.0263,8.4467,60.9078,0.0669,0.532,-0.2355,1.093
19:49:15:551,-0.6365,0.1795,7.6546,60.3824,0.1133,0.6578,-0.1353,1.2404
19:49:15:576,-0.9093,1.1151,8.0016,59.4285,0.0523,0.466,0.1054,1.3108
19:49:15:591,-0.4834,1.0217,7.657,60.2192,0.1366,0.5148,0.2019,1.1919
19:49:15:613,-0.0455,0.8375,7.322,60.1656,0.1647,0.6492,0.2092,0.7576
19:49:15:636,-0.0838,0.9906,7.0851,62.4666,0.0718,0.6786,0.1738,0.5553
19:49:15:657,-0.2082,1.1294,7.5517,60.2884,-0.0992,0.6407,0.142,0.3787
19:49:15:674,-0.4307,1.1557,8.4132,61.154,-0.2556,0.4623,0.0699,0.3135
19:49:15:692,-0.8303,1.1701,9.588,62.9285,-0.3582,0.1703,-0.051,0.4218
19:49:15:712,-0.9547,1.017,10.6505,61.8225,-0.3741,-0.0471,-0.0974,0.5992
19:49:15:732,-0.7226,0.6891,11.4927,59.9682,-0.3057,-0.1791,-0.0693,0.76
19:49:15:753,-0.3829,0.2632,11.9306,62.1053,-0.2067,-0.2805,-0.0388,0.893
19:49:15:773,-0.213,-0.0311,12.0766,62.0256,-0.1371,-0.3538,0.0137,0.9586
19:49:15:792,0.0168,0.0191,12.0024,63.3374,-0.1383,-0.399,0.1005,0.9268
19:49:15:811,0.5264,-0.0885,11.7224,61.5474,-0.2006,-0.3489,0.1628,0.8079
19:49:15:831,0.9428,-0.1747,12.0311,63.1291,-0.3778,-0.278,0.1225,0.7087
19:49:15:853,1.0983,-0.4259,13.2897,62.8183,-0.6197,-0.2976,-0.0143,0.7577
19:49:15:871,0.5886,-0.4475,14.589,62.8083,-0.7162,-0.3232,-0.1829,1.0513
19:49:15:892,0.1484,-0.6772,14.5125,62.2214,-0.4828,-0.2438,-0.2538,1.3976
19:49:15:911,0.2728,-1.3113,13.0193,62.8692,-0.0027,0.0005,-0.1585,1.6399
19:49:15:931,0.6078,-1.596,10.9137,63.5029,0.4322,0.3585,0.0712,1.6005
19:49:15:951,1.0289,-1.4644,9.2459,63.2236,0.6387,0.637,0.3619,1.2137
19:49:15:972,1.4931,-0.9595,8.1715,62.1073,0.6375,0.6834,0.5696,0.5537
19:49:15:991,2.0889,-0.4857,7.468,62.2262,0.5556,0.5662,0.6075,359.8339
19:49:16:012,2.455,-0.1579,7.011,62.8845,0.4236,0.3401,0.4328,359.2824
19:49:16:035,0.792,0.2776,7.456,62.4488,0.0009,0.0213,-0.3259,359.489
19:49:16:055,-0.1077,0.2441,7.9442,61.8365,-0.1261,0.0274,-0.5727,0.18
19:49:16:073,-0.5791,0.2919,8.2217,62.5323,-0.1224,-0.0093,-0.5873,0.9129
19:49:16:090,-0.4259,0.4379,8.2816,63.4055,-0.0455,-0.1278,-0.4456,1.497
19:49:16:110,0.079,0.6245,8.1595,66.4631,0.0449,-0.2035,-0.2905,1.8897
19:49:16:136,0.3422,1.048,8.3007,65.099,0.0828,-0.1999,-0.2208,2.221
19:49:16:256,0.5815,1.2682,8.4921,66.9725,0.0889,-0.1815,-0.2281,2.5595
19:49:16:259,0.5791,1.4644,8.4419,66.1084,0.1097,-0.1436,-0.2978,2.962
19:49:16:261,0.2823,1.5123,8.5376,64.4755,0.0816,-0.0997,-0.3882,3.4703
19:49:16:263,-0.0048,1.4333,9.2794,62.7337,-0.0027,-0.1265,-0.4383,4.0524
19:49:16:264,-0.0742,1.3304,9.9087,62.0773,-0.0516,-0.2182,-0.4114,4.5912
19:49:16:265,-0.1651,1.4142,10.4016,62.3143,-0.0369,-0.2829,-0.3247,5.0384
19:49:16:274,-0.603,1.7994,10.6002,63.3404,0.0254,-0.1999,-0.1891,5.3685
19:49:16:290,-0.8566,2.053,10.7701,60.2696,0.1121,0.0152,0.0113,5.4797
19:49:16:313,-0.5408,2.0818,10.9854,62.2446,0.1964,0.1483,0.2239,5.3155
19:49:16:332,-0.2393,2.1344,11.5645,63.4346,0.2502,0.163,0.3668,4.9766
19:49:16:353,0.1436,2.0219,11.7631,62.6629,0.3137,0.1459,0.4157,4.555
19:49:16:370,0.2776,1.8544,11.2008,62.5974,0.4029,0.2131,0.3827,4.1678
19:49:16:391,-0.0048,1.8161,10.5739,60.9342,0.409,0.3621,0.3082,3.8508
19:49:16:411,-0.0742,1.3902,10.2772,60.1098,0.2587,0.3695,0.2031,3.6538
19:49:16:435,-0.2584,0.993,11.3946,62.2378,-0.1004,0.0518,0.0321,3.6932
19:49:16:451,-0.7083,0.859,13.6415,61.7633,-0.5036,-0.4283,-0.1438,4.0289
19:49:16:472,-1.2203,0.5192,14.2876,62.2378,-0.4963,-0.6311,-0.2147,4.4838
19:49:16:492,-2.0028,-0.1675,9.5856,63.8605,0.5006,0.3853,0.1994,4.6652
19:49:16:511,-1.4285,-0.134,7.7025,60.2928,0.6875,0.6175,0.6173,4.0939
19:49:16:535,-0.8183,0.3876,7.4943,62.9376,0.5079,0.3035,0.8799,3.2037
19:49:16:552,0.012,0.8566,8.1906,63.0807,0.2233,-0.2304,0.9239,2.3076
19:49:16:574,0.7896,0.8734,9.0042,61.164,0.0193,-0.6568,0.7223,1.6714
19:49:16:591,0.7753,0.5982,9.1549,63.0807,-0.054,-0.6678,0.3644,1.4092
19:49:16:613,-0.1053,0.3063,8.6237,61.7881,-0.0467,-0.2548,0.0638,1.4713
19:49:16:632,-0.9571,0.3183,7.8389,60.7885,-0.0259,0.196,-0.0376,1.6373
19:49:16:652,-1.3663,0.4475,7.2742,60.8588,-0.0296,0.4012,0.0541,1.6656
19:49:16:671,-1.3759,0.6987,7.078,60.9372,-0.0308,0.3682,0.241,1.507
19:49:16:691,-0.938,0.9858,7.0205,60.5515,-0.0113,0.1764,0.4255,1.1626
19:49:16:713,-0.4618,1.2873,6.8842,61.2937,0.0242,-0.0215,0.5305,0.7037
19:49:16:733,0.0096,1.5912,6.8698,59.7321,0.0254,-0.1241,0.522,0.2291
19:49:16:751,0.3422,1.6319,7.1043,60.5756,-0.0455,-0.1473,0.3986,359.8771
19:49:16:771,0.1627,1.6032,7.681,61.0222,-0.1847,-0.1522,0.2092,359.7487
19:49:16:790,0.0072,1.3854,8.8343,60.2617,-0.357,-0.1705,0.0516,359.824
19:49:16:811,0.0766,1.1294,10.0953,58.6931,-0.4926,-0.239,-0.0547,0.0097
19:49:16:833,-0.1125,1.0433,11.2965,59.9999,-0.5439,-0.267,-0.1524,0.3117
19:49:16:850,-0.2943,0.7274,12.2321,58.8762,-0.5048,-0.1889,-0.2123,0.66
19:49:16:871,-0.1077,0.079,12.7083,59.9191,-0.4095,-0.1265,-0.2269,1.0406
19:49:16:890,0.0311,-0.2513,13.0481,61.0041,-0.3216,-0.1363,-0.2001,1.3746
19:49:16:913,0.3493,-0.2847,12.7992,59.0822,-0.2336,-0.1192,-0.0925,1.5813
19:49:16:932,0.9069,-0.4116,12.0526,59.9191,-0.1713,-0.03,0.0064,1.6522
19:49:16:953,1.5577,-0.7777,12.749,59.7918,-0.4523,-0.0276,-0.1988,1.8642
19:49:16:971,0.9954,-0.8064,13.6199,59.5736,-0.561,-0.1046,-0.3882,2.3505
19:49:16:990,0.2058,-0.6269,13.7276,57.4136,-0.4279,-0.0141,-0.4627,2.9702
19:49:17:013,0.1579,-0.7178,12.7466,60.1352,-0.0638,0.2461,-0.3625,3.4844
19:49:17:035,0.7753,-0.8614,11.0812,58.5408,0.3345,0.4086,-0.1768,3.7296
19:49:17:051,1.4859,-0.7992,9.6455,58.7983,0.5654,0.3682,-0.0266,3.7796
19:49:17:069,2.2205,-0.6963,8.8774,58.7792,0.5837,0.1728,0.0394,3.7105
19:49:17:090,2.5436,-0.4857,8.6166,58.0134,0.4786,-0.0972,-0.0168,3.7193
19:49:17:115,2.4191,-0.2871,7.9777,58.0134,0.3516,-0.2744,-0.2061,3.9536
19:49:17:134,1.608,-0.146,7.4465,57.6674,0.1427,-0.1607,-0.4859,4.5263
19:49:17:150,0.3805,0.0048,7.7623,57.0608,-0.1799,0.2082,-0.7278,5.3827
19:49:17:170,-0.5527,0.1053,8.473,56.56,-0.4156,0.6297,-0.7791,6.3087
19:49:17:190,-0.7346,0.2369,8.7434,55.7021,-0.4071,0.841,-0.6228,7.0844
19:49:17:212,-0.2895,0.3326,8.4108,56.4748,-0.1994,0.7543,-0.3699,7.5561
19:49:17:232,0.067,0.7202,7.9011,54.2847,0.0449,0.4623,-0.1597,7.7944
19:49:17:252,0.4905,0.9452,7.2694,56.8277,0.2099,0.1557,-0.0583,7.8967
19:49:17:271,0.6556,1.1892,7.1474,54.6256,0.2355,-0.0655,-0.0962,8.0464
19:49:17:289,0.4044,1.3519,7.4728,56.7678,0.1182,-0.1559,-0.2318,8.3632
19:49:17:310,-0.0694,1.4453,8.3533,54.9421,-0.0443,-0.0936,-0.3466,8.8439
19:49:17:335,-0.3422,1.4118,9.0209,55.3848,-0.1334,0.0005,-0.3699,9.3391
19:49:17:351,-0.3206,1.2969,9.4947,54.6324,-0.1517,0.0616,-0.3112,9.7704
19:49:17:370,-0.4187,1.194,9.4516,54.574,-0.1774,0.1312,-0.2281,10.0923
19:49:17:390,-0.9117,1.4333,9.4684,55.289,-0.3094,0.3707,-0.1634,10.3469
19:49:17:410,-0.9428,1.2419,11.9713,53.8353,-0.7052,0.973,-0.0046,10.4973
19:49:17:430,-0.6197,1.1031,13.7444,52.6049,-0.6844,0.8081,0.0382,10.462
19:49:17:467,-0.4044,0.9452,14.4766,53.9648,-0.3778,0.422,0.0553,10.4282
19:49:17:485,-0.8877,0.1412,11.2989,53.8728,0.5874,-0.1779,-0.0217,10.5502
19:49:17:510,-1.4261,0.0455,10.2078,53.0737,0.5935,-0.1986,-0.0718,10.7796
19:49:17:526,-1.6845,-0.0742,10.3729,53.8998,0.3198,-0.0948,-0.0608,10.976
19:49:17:544,-1.7946,-0.4618,11.1123,53.0271,0.04,-0.0178,-0.029,11.1654
19:49:17:565,-1.9095,-0.6485,11.4305,52.9348,-0.0723,-0.1302,0.0186,11.2868
19:49:17:582,-1.9573,-0.457,10.7773,51.4285,0.0474,-0.1949,0.1591,11.2621
19:49:17:601,-1.4381,-0.4211,9.1645,50.6134,0.3333,0.003,0.4132,10.9139
19:49:17:621,-1.1294,-0.3589,7.5757,50.7956,0.5165,0.1496,0.6075,10.3671
19:49:17:650,-1.0026,-0.0646,7.1115,52.1216,0.4176,0.0384,0.6331,9.7941
19:49:17:665,-0.7489,0.0407,7.401,50.7956,0.1769,-0.2548,0.5696,9.2905
19:49:17:679,-0.7298,0.1053,7.9633,51.5457,-0.043,-0.5541,0.445,8.9399
19:49:17:697,-1.0887,0.5384,8.5567,50.7916,-0.1982,-0.6446,0.2996,8.7914
19:49:17:717,-1.3113,0.8088,8.5472,50.8862,-0.2153,-0.4418,0.1933,8.748
19:49:17:735,-1.2706,0.3015,7.8485,49.5192,-0.109,-0.0936,0.0919,8.8076
19:49:17:760,-1.4261,-0.2082,7.5637,50.0528,-0.0833,0.0824,-0.0082,8.9658
19:49:17:774,-1.7539,-0.1507,8.418,50.322,-0.2116,-0.0325,0.0052,9.1594
19:49:17:794,-1.5745,0.1388,9.3823,50.322,-0.291,-0.1852,0.2043,9.1249
19:49:17:816,-0.8064,0.4522,9.9159,50.322,-0.1872,-0.2304,0.4328,8.7891
19:49:17:833,-0.0144,0.7705,9.8536,50.322,0.0217,-0.1815,0.5232,8.3012
19:49:17:853,0.4475,0.7274,9.2722,48.1391,0.194,-0.0435,0.4352,7.7661
19:49:17:870,0.1699,0.7346,8.7745,48.1391,0.2416,0.1166,0.2422,7.5431
19:49:17:890,-0.3422,0.7202,8.918,48.1391,0.161,0.1557,0.087,7.5201
19:49:17:912,-0.5599,0.5958,9.7077,47.3,0.0681,0.0311,0.0516,7.5569
19:49:17:928,-0.4211,0.6461,10.2245,48.8269,0.0852,-0.2047,0.1176,7.5071
19:49:17:949,0.3398,0.4666,10.3274,48.1454,0.1915,-0.3403,0.2117,7.3374
19:49:17:971,0.7059,0.3996,10.4566,48.2666,0.2257,-0.3245,0.197,7.1727
19:49:17:996,0.5073,0.4379,10.7175,48.7289,0.1439,-0.2475,0.0797,7.1524
19:49:18:018,0.0814,0.3661,11.0764,47.4832,0.0132,-0.2169,-0.0424,7.2876
19:49:18:043,-0.2201,0.3326,11.4808,46.8779,-0.1176,-0.2353,-0.0913,7.5032
19:49:18:049,-0.1125,0.2201,11.665,46.7978,-0.1957,-0.2206,-0.0229,7.6461
19:49:18:070,0.4187,0.1436,11.9282,46.7736,-0.2605,-0.1999,0.0919,7.6162
19:49:18:096,1.5099,-0.2489,12.6724,45.5068,-0.3546,-0.2328,0.1384,7.4563
19:49:18:111,2.0554,-0.8016,13.7803,45.553,-0.4547,-0.2744,0.0211,7.4178
19:49:18:132,1.2993,-0.7202,14.7326,46.5848,-0.4633,-0.2438,-0.1878,7.6524
19:49:18:150,0.2249,-0.5982,13.9908,43.9804,-0.1701,0.0188,-0.2697,8.0667
19:49:18:170,-0.0072,-0.737,11.5621,43.8578,0.3699,0.3817,-0.1377,8.288
19:49:18:191,0.3829,-0.7489,9.2267,42.3204,0.7657,0.5332,0.1017,8.1764
19:49:18:211,0.8399,-0.6437,7.8748,45.2873,0.8586,0.4342,0.2789,7.8338
19:49:18:230,1.2443,-0.3374,7.1689,46.7622,0.7425,0.1789,0.3155,7.4666
19:49:18:250,1.5697,-0.0455,6.8913,47.0278,0.5507,-0.0642,0.2373,7.2042
19:49:18:277,1.7013,0.0574,6.597,47.6492,0.3479,-0.1607,0.0492,7.1811
19:49:18:406,1.2012,0.2177,6.5444,45.0155,0.1341,-0.1094,-0.2147,7.4597
19:49:18:408,-0.1723,0.6556,7.8772,44.927,-0.2397,-0.0679,-0.4994,8.024
19:49:18:410,-0.067,0.8088,8.2744,46.5691,-0.2189,-0.151,-0.442,9.173
19:49:18:412,0.2967,1.0696,8.3916,45.6988,-0.1017,-0.2035,-0.3466,9.6884
19:49:18:414,0.6485,1.3256,8.2457,42.7357,0.0046,-0.184,-0.3027,10.083
19:49:18:416,0.5671,1.529,8.4156,44.103,0.0486,-0.1522,-0.3491,10.5226
19:49:18:418,0.3374,1.675,8.6213,42.0007,0.0388,-0.1791,-0.4297,11.0496
19:49:18:433,0.189,1.7707,9.0138,41.368,0.0046,-0.1644,-0.4603,11.6184
19:49:18:451,0.5049,1.7468,9.4445,41.2482,-0.0406,-0.0984,-0.431,12.1238
19:49:18:472,0.7131,1.7468,9.8704,41.4072,-0.0797,0.0237,-0.42,12.5972
19:49:18:490,0.4475,1.8425,10.4806,40.7766,-0.1078,0.1667,-0.4383,13.0995
19:49:18:510,-0.201,1.9884,10.8634,39.4652,-0.0797,0.2595,-0.4322,13.6241
19:49:18:529,-0.8423,2.0889,11.1434,40.7873,0.0168,0.2925,-0.3454,14.1082
19:49:18:549,-0.8279,2.0818,11.2415,37.7189,0.1463,0.218,-0.1487,14.3841
19:49:18:572,-0.2369,1.7611,10.8132,39.8487,0.2905,0.119,0.0822,14.3539
19:49:18:589,0.7226,1.0241,10.4686,38.498,0.3785,0.1153,0.23,14.0832
19:49:18:611,1.8353,0.1149,9.9781,39.7524,0.3821,0.0921,0.2043,13.7971
19:49:18:629,1.1055,-0.0287,9.2507,39.4937,0.2416,0.0201,-0.0461,13.8375
19:49:18:650,-0.2656,-0.1172,9.6263,39.3605,-0.164,-0.03,-0.365,14.3961
19:49:18:674,-1.1198,-0.6508,12.2201,38.7861,-0.7394,-0.1607,-0.5861,15.248
19:49:18:689,-1.8042,-0.8088,14.8714,38.0536,-1.0888,-0.454,-0.6618,16.2708
19:49:18:711,-2.6273,-0.6556,14.8211,38.9802,-0.7883,-0.4369,-0.4945,17.1411
19:49:18:730,-2.9145,-0.5599,11.6889,38.5468,-0.0088,0.1459,-0.062,17.5161
19:49:18:750,-2.3378,-0.5097,8.5304,38.6796,0.6387,0.7274,0.4853,17.2336
19:49:18:773,-0.9332,0.8638,6.2524,36.4938,0.4456,0.2412,0.963,15.4353
19:49:18:790,-0.0287,1.1725,7.3651,37.956,-0.0198,-0.2683,0.8604,14.561
19:49:18:814,0.4044,0.8949,8.7721,35.8525,-0.3717,-0.5847,0.544,14.067
19:49:18:830,0.0885,0.4403,9.8584,38.1093,-0.5366,-0.5883,0.1726,14.0098
19:49:18:850,-0.6604,0.0933,10.3657,37.4221,-0.5305,-0.3636,-0.0449,14.2006
19:49:18:873,-1.5912,0.0718,10.2724,34.8484,-0.3814,-0.0801,-0.0522,14.4602
19:49:18:891,-1.8736,0.2369,9.734,35.9939,-0.1298,0.1324,0.1555,14.5247
19:49:18:911,-1.2323,0.256,8.5376,35.8243,0.1598,0.185,0.4682,14.1396
19:49:18:929,-0.524,0.5623,7.4632,35.2652,0.3381,0.1092,0.6857,13.5287
19:49:18:948,0.0144,0.8782,6.9966,37.6205,0.3394,0.0188,0.7517,12.7881
19:49:18:969,0.3709,1.1557,6.9416,35.303,0.2404,-0.0581,0.6747,12.0878
19:49:18:990,0.548,1.328,7.2263,36.75,0.0852,-0.1314,0.5073,11.5744
19:49:19:011,0.4427,1.4237,8.0351,36.2785,-0.0907,-0.1705,0.3167,11.2611
19:49:19:029,0.2967,1.273,8.8176,35.0283,-0.2043,-0.1644,0.1506,11.1857
19:49:19:049,-0.1292,1.1605,9.5593,35.1518,-0.2519,-0.1803,0.0174,11.2726
19:49:19:073,-0.4451,1.0744,10.4734,34.6221,-0.2849,-0.2683,-0.0461,11.4579
19:49:19:090,0.0072,0.7155,11.4281,34.4827,-0.2837,-0.3782,-0.0437,11.6178
19:49:19:110,0.3446,0.3589,12.0503,35.0503,-0.2641,-0.465,-0.0791,11.8062
19:49:19:129,0.2225,0.0622,12.6987,35.5244,-0.2739,-0.4625,-0.1609,12.1017
19:49:19:150,-0.2297,-0.0263,12.8231,34.4924,-0.2617,-0.3293,-0.1951,12.4967
19:49:19:172,-0.469,-0.0359,12.2728,34.1555,-0.1921,-0.0887,-0.139,12.8262
19:49:19:189,-0.1436,-0.3278,11.5238,34.28,-0.1505,0.0909,-0.0302,13.0317
19:49:19:212,0.4786,-0.7801,12.1866,34.832,-0.4718,-0.0227,0.0015,13.0844
19:49:19:230,0.5097,-0.8638,12.9954,35.1362,-0.6258,0.108,-0.0596,13.0987
19:49:19:251,0.4786,-1.2084,13.1988,32.0678,-0.5659,0.4367,-0.0828,13.4892
19:49:19:271,0.2752,-1.4548,12.9547,35.2203,-0.3595,0.6651,-0.0412,13.6669
19:49:19:289,0.3685,-1.5314,12.6628,35.1692,-0.1041,0.6822,0.1286,13.6409
19:49:19:310,1.048,-1.3998,11.8875,33.8056,0.2294,0.5613,0.4023,13.2653
19:49:19:330,2.0889,-1.2299,10.4495,32.7602,0.613,0.3902,0.627,12.5419
19:49:19:358,2.9719,-0.9141,8.9563,34.3945,0.9038,0.3194,0.6564,11.6779
19:49:19:376,3.1561,-0.5097,7.1497,33.5653,0.9881,0.3524,0.4548,11.0447
19:49:19:390,2.4981,-0.0574,5.8648,34.1887,0.8342,0.488,0.0724,10.8395
19:49:19:412,1.4333,0.0861,5.4317,35.0722,0.4982,0.5955,-0.3491,11.1293
19:49:19:429,0.1196,0.122,6.2213,33.7022,0.1133,0.5405,-0.6826,11.9159
19:49:19:450,-0.6796,0.1244,7.5685,32.3013,-0.1542,0.3059,-0.8195,12.9197
19:49:19:471,-0.9476,0.0766,8.3653,32.8732,-0.1774,-0.0019,-0.7315,13.8474
19:49:19:495,-0.8351,0.2082,8.5663,32.2176,-0.0553,-0.1669,-0.5507,14.5598
19:49:19:509,-0.2752,0.3829,8.4562,32.5158,0.0681,-0.1143,-0.3442,14.9923
19:49:19:529,0.189,0.6461,8.1404,34.4307,0.1256,0.0152,-0.2098,15.2562
19:49:19:553,0.3709,0.8542,8.1093,32.5159,0.0779,0.0738,-0.2037,15.4911
19:49:19:573,0.2919,0.8806,8.5783,35.2017,-0.0516,0.053,-0.2611,15.7909
19:49:19:590,0.0957,0.8734,9.4086,33.0404,-0.1872,0.0066,-0.2966,16.1266
19:49:19:617,-0.0598,0.9165,10.215,33.1441,-0.2593,-0.0838,-0.2697,16.4791
19:49:19:634,-0.3685,1.2491,10.9878,33.7691,-0.2605,-0.1717,-0.1964,16.7836
19:49:19:650,-0.4786,1.4955,11.5884,33.2576,-0.1542,-0.1314,-0.0583,16.9341
19:49:19:670,-0.3135,1.6774,11.6866,34.2603,0.0559,-0.0239,0.1164,16.852
19:49:19:690,0.9763,1.9119,11.5478,35.1326,0.4004,-0.184,0.3522,16.5489
19:49:19:709,1.4668,1.931,11.5645,32.8767,0.4615,-0.3135,0.2715,16.0322
19:49:19:730,1.3089,1.7157,11.263,33.904,0.5116,-0.2817,0.0577,15.5772
19:49:19:751,0.3565,1.5673,10.5428,34.3957,0.5092,-0.173,-0.1951,15.8213
19:49:19:769,-0.8159,1.4955,9.9852,30.9054,0.4236,-0.063,-0.3442,16.3266
19:49:19:791,-1.5912,1.4979,9.935,34.1887,0.2685,-0.0031,-0.3283,16.845
19:49:19:810,-1.651,1.2371,10.3633,31.8826,0.1036,-0.03,-0.2025,17.1861
19:49:19:829,-1.1797,0.5958,11.2199,34.9438,-0.0284,-0.1962,-0.0693,17.4069
19:49:19:852,-1.0792,0.4786,11.5669,34.9438,-0.0516,-0.3489,0.0406,17.5747
19:49:19:870,-1.1868,0.5575,10.9854,34.2494,0.1072,-0.1864,0.1884,17.5674
19:49:19:891,-1.1749,0.5049,9.7843,34.8934,0.3333,0.0201,0.3314,17.4034
19:49:19:909,-0.9739,0.5527,9.2746,34.1647,0.387,-0.1302,0.4023,17.1153
19:49:19:932,-0.5145,0.4379,9.3823,32.6026,0.299,-0.4613,0.4303,16.8297
19:49:19:951,-0.3278,0.3709,9.4086,35.2665,0.1989,-0.5993,0.4083,16.6075
19:49:19:969,-0.3374,0.3565,9.1382,35.5589,0.1341,-0.4527,0.3692,16.4216
19:49:19:988,-0.2752,0.323,8.8534,35.8979,0.0901,-0.2047,0.3192,16.2282
19:49:20:008,-0.347,0.1962,8.3605,35.4519,0.0681,0.0079,0.2654,16.0968
19:49:20:030,-0.5384,0.2441,8.0279,35.3552,0.0559,0.1483,0.2337,15.9564
19:49:20:050,-0.7872,0.5216,8.0423,35.7749,0.0364,0.1764,0.2581,15.8164
19:49:20:071,-0.7178,0.8423,7.87,35.5759,0.0791,0.1385,0.3497,15.5259
19:49:20:089,-0.5073,1.1414,7.3579,35.8059,0.183,0.1166,0.4365,15.134
19:49:20:109,-0.1603,1.4022,6.8674,35.3003,0.2477,0.1337,0.4719,14.6957
19:49:20:132,-0.0168,1.6152,6.7884,35.6552,0.2013,0.1385,0.4389,14.2633
19:49:20:153,0.3565,1.7204,8.0088,34.1643,-0.1151,-0.0642,0.2165,13.6773
19:49:20:168,0.1795,1.541,9.076,35.7749,-0.2654,-0.1168,0.0504,13.717
19:49:20:189,-0.1747,1.4165,10.1432,36.009,-0.3619,-0.1522,-0.0876,13.9183
19:49:20:208,-0.2441,1.2634,10.8778,35.7257,-0.3595,-0.1449,-0.1255,14.1873
19:49:20:229,-0.2656,1.0816,11.153,35.7225,-0.2776,-0.0618,-0.0852,14.4071
19:49:20:252,0.0072,0.8853,11.4377,35.7586,-0.2165,-0.0141,-0.0168,14.498
19:49:20:275,0.268,0.7489,11.519,34.8278,-0.1811,-0.03,0.0443,14.5247
19:49:20:288,0.3111,0.6508,11.397,36.3392,-0.1542,-0.0593,0.0724,14.5105
19:49:20:309,0.5408,0.5025,11.2439,36.3277,-0.1664,-0.0581,0.1176,14.4443
19:49:20:330,0.9739,0.4714,11.5023,35.7346,-0.2471,-0.0312,0.1738,14.261
19:49:20:350,1.4812,0.39,12.1532,36.8531,-0.3656,-0.0202,0.1726,14.0484
19:49:20:370,1.9789,-0.0359,12.9404,36.4042,-0.445,0.0249,0.0846,13.8812
19:49:20:389,1.7444,-0.3183,13.4261,40.0521,-0.4328,0.1447,-0.0486,13.8409
19:49:20:533,1.0074,-0.2369,13.2467,40.2107,-0.2641,0.3353,-0.1145,14.0676
19:49:20:536,0.8853,-0.4068,11.5526,38.4644,0.0975,0.5148,-0.0278,14.125
19:49:20:537,1.2969,-0.524,9.6837,39.28,0.4078,0.5613,0.1151,13.9908
19:49:20:539,1.6702,-0.457,8.6309,39.7356,0.4432,0.4257,0.1799,13.7192
19:49:20:540,1.8544,-0.2752,8.3677,37.9213,0.2587,0.1349,0.1151,13.5179
19:49:20:543,1.6439,0.0215,8.5256,35.5747,0.0205,-0.1131,-0.0412,13.5541
19:49:20:544,1.0313,0.1268,8.6812,36.6122,-0.1505,-0.0801,-0.2245,13.7791
19:49:20:562,0.2871,0.2177,8.4993,37.0838,-0.2031,0.1508,-0.3259,14.1482
19:49:20:569,-0.1172,0.4331,8.1571,37.4978,-0.1713,0.2815,-0.299,14.5064
19:49:20:588,-0.1268,0.737,7.8796,36.1591,-0.1066,0.2204,-0.1915,14.6972
19:49:20:609,0.3613,1.2562,7.523,37.8928,0.0193,-0.0129,-0.051,14.8201
19:49:20:632,0.6604,1.4764,7.7767,37.4447,0.0229,-0.0557,-0.0705,14.8991
19:49:20:649,0.8423,1.6726,8.1212,38.2327,0.0144,-0.0655,-0.1353,15.0153
19:49:20:667,0.7633,1.8425,8.3557,38.8274,0.0107,-0.03,-0.2452,15.2539
19:49:20:688,0.6939,1.809,8.7745,38.315,-0.0113,0.0225,-0.3466,15.5796
19:49:20:707,0.682,1.8521,9.2937,38.2595,-0.0589,0.0139,-0.4114,15.9964
19:49:20:727,0.3517,2.1846,10.0235,39.1951,-0.1188,-0.0141,-0.453,16.4498
19:49:20:749,-0.2034,2.546,11.1386,38.7772,-0.186,-0.0215,-0.4835,16.9984
19:49:20:767,-0.7226,2.5795,12.0885,37.9391,-0.1566,0.0274,-0.4835,17.5819
19:49:20:787,-1.0098,2.2971,12.1795,36.7461,0.0119,0.1703,-0.4151,18.0689
19:49:20:808,-0.9691,1.9334,12.122,39.8006,0.2123,0.3536,-0.2599,18.4084
19:49:20:827,-0.5097,1.785,12.0287,38.7463,0.3638,0.4244,-0.0632,18.4475
19:49:20:850,0.3541,1.6774,11.3252,40.2399,0.497,0.3585,0.0699,18.2867
19:49:20:869,0.8255,1.3759,10.617,37.4447,0.53,0.2399,0.0333,18.152
19:49:20:887,0.2513,1.3472,10.5045,41.2412,0.409,0.1105,-0.1194,18.2466
19:49:20:909,-0.3972,1.2179,10.4614,40.684,0.288,0.0616,-0.2074,18.4789
19:49:20:929,-0.7633,0.7537,10.4471,38.8274,0.2086,0.0689,-0.1927,18.7419
19:49:20:950,-0.9691,0.1866,11.1386,38.583,0.0804,-0.063,-0.1267,18.9391
19:49:20:971,-1.4501,0.2704,11.7559,38.374,0.0193,-0.2658,-0.0022,19.0694
19:49:20:989,-1.1773,0.2465,10.6648,39.7356,0.2795,-0.1815,0.241,18.9033
19:49:21:007,-0.8542,0.1627,8.6213,40.2347,0.6326,-0.0019,0.4548,18.4703
19:49:21:028,-0.6293,0.2393,7.4536,41.3574,0.6521,-0.0948,0.5159,17.9401
19:49:21:048,-0.2967,0.2584,7.6857,39.8566,0.3613,-0.3941,0.4743,17.5339
19:49:21:070,0.0263,-0.2489,9.6526,41.254,-0.2898,-0.8132,0.219,17.3006
19:49:21:087,-0.1244,-0.1914,10.3059,38.8121,-0.4621,-0.6934,0.1176,17.2594
19:49:21:109,-0.5838,-0.0502,10.2724,40.1192,-0.4267,-0.2976,0.0577,17.3053
19:49:21:132,-1.0576,0.0526,9.1525,39.9908,-0.2141,0.1667,0.0834,17.2866
19:49:21:148,-0.9667,0.189,7.8126,40.9194,0.0022,0.4281,0.2068,17.074
19:49:21:168,-0.6389,0.3972,7.0445,41.1182,0.0767,0.4428,0.3656,16.6615
19:49:21:188,-0.4116,0.859,6.932,41.5882,0.0315,0.2998,0.4926,16.1061
19:49:21:209,0.0455,1.2467,7.1354,40.9774,-0.0223,0.13,0.5611,15.4744
19:49:21:229,0.4403,1.6367,7.1497,42.0121,-0.0235,0.0091,0.5489,14.8185
19:49:21:248,0.8471,1.7922,7.2263,42.1467,-0.0357,-0.0386,0.445,14.2729
19:49:21:268,1.0098,1.8808,7.7001,43.1846,-0.1285,-0.0874,0.2507,13.9215
19:49:21:288,0.8901,1.7276,8.7218,41.1999,-0.2581,-0.1559,0.0162,13.8573
19:49:21:313,0.3206,1.6582,9.734,42.8641,-0.3448,-0.2622,-0.2025,14.0751
19:49:21:331,-0.2441,1.6271,10.8921,41.1765,-0.3582,-0.3831,-0.3259,14.4726
19:49:21:349,-0.1627,1.3208,11.6602,40.8982,-0.2984,-0.5041,-0.3357,14.9227
19:49:21:368,0.1507,0.8782,12.0503,42.1467,-0.2299,-0.5041,-0.3173,15.3226
19:49:21:387,0.2058,0.5336,12.3063,40.3092,-0.2092,-0.3489,-0.299,15.6626
19:49:21:412,0.1196,0.3876,12.1268,41.6695,-0.1982,-0.1058,-0.2428,15.9554
19:49:21:429,0.122,0.2943,11.5597,41.6015,-0.1957,0.1007,-0.1292,16.0811
19:49:21:448,0.4307,0.1723,11.4497,41.1403,-0.2825,0.119,-0.0266,16.0559
19:49:21:467,0.9667,-0.0981,12.3278,40.0871,-0.4731,-0.0312,0.0284,15.9833
19:49:21:488,1.5625,-0.5121,13.9454,42.8401,-0.6637,-0.2426,0.015,15.9127
19:49:21:516,1.4381,-0.4546,15.2662,43.0349,-0.6783,-0.3098,-0.029,15.9275
19:49:21:531,0.3637,-0.6413,12.6532,42.1033,0.2648,0.4452,0.12,15.9227
19:49:21:549,0.7585,-0.7083,10.1575,42.4134,0.7731,0.6456,0.3888,15.31
19:49:21:567,1.5051,-0.5384,8.8702,43.8886,0.9307,0.5197,0.6307,14.4958
19:49:21:587,2.4407,-0.3805,8.3557,42.7012,0.8427,0.1618,0.7052,13.5768
19:49:21:613,3.0508,-0.1125,8.0471,43.5669,0.646,-0.2243,0.555,12.8004
19:49:21:628,2.8499,0.1125,7.8556,42.1508,0.4004,-0.3758,0.2165,12.4438
19:49:21:648,1.7611,0.1268,8.0375,42.5741,0.1512,-0.2169,-0.1744,12.5504
19:49:21:667,0.4164,0.1842,8.2098,43.2752,-0.0101,0.0567,-0.4383,13.019
19:49:21:689,-0.4403,0.3398,8.1117,43.1186,-0.0296,0.1911,-0.4627,13.4964
19:49:21:719,-0.4451,0.5623,7.791,43.0974,0.0584,0.1984,-0.2721,13.7242
19:49:21:731,0.0455,0.8231,7.2885,43.1705,0.1744,0.1447,-0.0302,13.7163
19:49:21:747,0.5886,1.1677,6.987,42.6163,0.2196,0.064,0.1103,13.5237
19:49:21:767,1.0337,1.4524,7.2048,43.4263,0.172,0.0249,0.1188,13.3036
19:49:21:788,1.3663,1.7396,7.6881,43.8941,0.0987,0.0408,0.0309,13.1732
19:49:21:812,1.5984,1.8975,8.138,42.8641,0.0425,0.086,-0.1206,13.1986
19:49:21:836,1.4907,1.9836,8.5807,44.2909,-0.0088,0.1214,-0.2917,13.4025
19:49:21:855,1.2993,1.9214,8.9803,45.0188,-0.0528,0.185,-0.4236,13.7358
19:49:21:868,0.9404,1.8521,9.4277,42.97,-0.0797,0.2412,-0.4981,14.1812
19:49:21:888,0.2465,1.9071,9.6311,44.7542,-0.0711,0.2253,-0.525,14.6749
19:49:21:909,-0.3446,2.0722,9.8177,45.7385,-0.0418,0.1911,-0.4517,15.1172
19:49:21:929,-0.4092,2.1846,10.081,44.2824,-0.0125,0.2155,-0.288,15.3535
19:49:21:949,-0.0431,2.3234,10.282,41.0565,0.0205,0.207,-0.1096,15.4381
19:49:21:968,0.5384,2.2756,10.6457,42.5525,0.0352,0.1642,-0.0156,15.3235
19:49:21:989,0.1699,1.3448,11.3252,41.7537,0.0449,0.0323,-0.2245,15.2546
19:49:22:009,-0.8542,1.0433,11.8517,44.198,0.007,-0.1461,-0.3577,15.4778
19:49:22:029,-1.7755,1.0241,12.9667,45.3209,-0.0723,-0.3257,-0.3308,16.3096
19:49:22:048,-2.1799,0.9428,13.7659,43.9922,-0.0101,-0.355,-0.1121,16.5725
19:49:22:067,-2.0267,0.8303,13.3328,45.6811,0.2648,-0.2316,0.2239,16.4338
19:49:22:090,-1.6295,0.9954,11.153,44.3689,0.6448,-0.0007,0.5953,15.8521
19:49:22:112,-0.95,1.0959,8.6548,45.2108,0.9294,0.2461,0.8995,14.8481
19:49:22:129,-0.347,1.3926,6.944,46.0436,0.8745,0.2033,0.9984,13.6986
19:49:22:149,0.1747,1.7731,7.0588,45.971,0.4566,-0.096,0.8775,12.6954
19:49:22:167,0.3374,1.7133,8.3892,44.065,-0.0723,-0.4393,0.6014,12.0409
19:49:22:189,0.5623,1.0265,9.5258,45.6495,-0.4034,-0.5248,0.2605,11.8045
19:49:22:211,0.8207,0.1675,9.9374,44.7485,-0.489,-0.3184,-0.0205,11.8313
19:49:22:229,0.469,-0.1077,9.9254,45.2108,-0.511,0.0054,-0.2245,12.0246
19:49:22:247,-0.2106,-0.0646,9.868,43.0435,-0.5219,0.4025,-0.3186,12.3043
19:49:22:267,-1.0337,0.3159,9.8225,45.2123,-0.489,0.7115,-0.2819,12.5292
19:49:22:291,-1.3735,0.7226,9.3224,45.7558,-0.3314,0.841,-0.1182,12.5444
19:49:22:308,-1.2993,1.1055,8.3581,46.2799,-0.0553,0.7983,0.1188,12.2954
19:49:22:328,-0.9069,1.4501,7.3029,45.7873,0.1866,0.6199,0.3363,11.8453
19:49:22:349,-0.3685,1.8161,6.6568,46.5385,0.2551,0.3426,0.4426,11.2777
19:49:22:369,0.1388,2.1057,6.7669,45.5717,0.1402,0.1044,0.4218,10.7289
19:49:22:391,0.3326,2.3593,7.6187,47.8655,-0.0516,-0.0141,0.2898,10.3145
19:49:22:409,0.1149,2.3593,8.7171,46.4817,-0.2043,-0.0642,0.0724,10.183
19:49:22:429,-0.5288,2.2756,9.6239,46.3002,-0.2422,-0.085,-0.1255,10.2769
19:49:22:448,-1.2156,1.9047,10.4542,45.95,-0.0479,-0.1754,-0.1194,10.4948
19:49:22:469,-0.7489,1.6343,10.2197,44.6495,0.1133,-0.1999,0.0089,10.6758
19:49:22:490,-0.2369,1.5577,10.349,47.5722,0.1292,-0.2463,0.0736,10.5887
19:49:22:508,-0.0455,1.4883,10.8945,48.5159,0.0229,-0.2731,0.0333,10.5667
19:49:22:526,-0.3829,1.3328,11.2487,47.3544,-0.0736,-0.2512,-0.1035,10.7045
19:49:22:637,-0.8734,1.0792,11.2869,48.2056,-0.1334,-0.2011,-0.2037,10.9667
19:49:22:639,-0.9165,0.7011,11.3444,46.6798,-0.2141,-0.1681,-0.1707,11.2031
19:49:22:641,-0.5862,0.3829,11.9545,47.3544,-0.3558,-0.1889,-0.0547,11.3032
19:49:22:642,-0.0024,0.0909,13.2132,47.5345,-0.5036,-0.2658,0.0553,11.2518
19:49:22:644,0.2513,0.0598,14.0148,43.472,-0.5073,-0.3269,0.109,11.1309
19:49:22:654,0.3374,-0.1005,13.6534,43.0419,-0.2751,-0.2133,0.1555,10.9296
19:49:22:675,0.3852,-0.1986,12.1819,45.528,0.0938,-0.0019,0.2361,10.5877
19:49:22:690,0.4068,-0.0766,10.5476,45.5234,0.4102,0.1691,0.3363,10.1217
19:49:22:707,0.8231,-0.189,9.2387,44.7663,0.5898,0.3169,0.456,9.4811
19:49:22:727,1.1749,-0.2369,8.4036,44.9835,0.613,0.444,0.5146,8.7494
19:49:22:748,1.4261,-0.1292,8.0327,44.634,0.5336,0.4758,0.4939,8.0272
19:49:22:768,1.4237,0.1412,7.7193,45.935,0.4188,0.4318,0.4132,7.4134
19:49:22:789,1.3041,0.3685,7.5517,44.6639,0.3027,0.3524,0.2764,6.9426
19:49:22:809,1.0074,0.6102,7.815,45.9473,0.1549,0.1667,0.0919,6.7
19:49:22:830,0.6126,0.6891,8.5448,44.6639,0.0046,-0.0948,-0.0803,6.7141
19:49:22:849,0.457,0.7777,9.0592,45.935,-0.0601,-0.267,-0.1573,6.8379
19:49:22:872,0.457,0.9906,9.1406,47.7049,-0.0186,-0.2316,-0.1341,6.9456
19:49:22:889,0.6245,1.2347,8.6955,44.6315,0.0706,-0.063,-0.0889,6.9662
19:49:22:907,0.5862,1.6487,8.3988,47.1247,0.0413,0.0665,-0.1426,6.9726
19:49:22:927,0.524,1.7922,8.6931,45.8835,-0.0113,0.0421,-0.1744,7.1664
19:49:22:952,0.5623,1.9119,8.8391,46.7471,0.0034,0.0396,-0.1842,7.2432
19:49:22:974,0.6317,2.0195,8.9085,45.2357,0.0364,0.0481,-0.1854,7.317
19:49:22:988,0.8351,2.0985,9.198,44.9403,0.0608,0.0885,-0.1781,7.3852
19:49:23:008,0.792,2.2301,9.0951,46.2317,0.0914,0.13,-0.2049,7.4569
19:49:23:035,0.2177,2.5196,9.1406,46.7944,0.1024,0.1935,-0.2575,7.595
19:49:23:047,-0.3111,2.747,9.2435,44.8896,0.1011,0.2534,-0.255,7.683
19:49:23:068,-0.4498,2.8594,9.4493,46.1133,0.1036,0.2485,-0.1842,7.729
19:49:23:090,-0.3972,2.9001,9.9254,47.005,0.0755,0.174,-0.0889,7.665
19:49:23:113,-0.1125,2.8738,10.6672,45.1594,0.0278,0.1214,-0.0205,7.5312
19:49:23:128,0.1507,2.6512,11.2487,44.2426,0.0168,0.1459,-0.0156,7.3994
19:49:23:145,0.0909,2.4215,11.0285,44.8784,0.0608,0.2045,-0.0852,7.3228
19:49:23:168,-0.8423,2.6417,10.2509,44.8825,0.0938,0.2925,-0.1964,7.4271
19:49:23:189,-1.517,2.7541,9.789,46.5188,0.0376,0.3719,-0.2355,7.5365
19:49:23:207,-1.3376,2.4311,10.0403,44.6894,-0.1004,0.3023,-0.2001,7.5894
19:49:23:227,-0.5623,1.1629,10.8993,45.4635,-0.2531,0.0421,-0.2196,7.6769
19:49:23:246,-1.0696,0.7178,12.2273,44.0416,-0.4083,-0.3538,-0.3601,8.0774
19:49:23:269,-2.0937,0.7274,12.4403,44.8896,-0.3753,-0.57,-0.4297,8.6742
19:49:23:286,-2.7015,0.3302,11.1649,45.179,-0.0211,-0.2707,-0.2856,9.0833
19:49:23:308,-2.5842,0.201,9.1454,47.3246,0.343,0.1337,0.015,9.0877
19:49:23:327,-2.0698,0.4642,8.1045,44.6034,0.4017,0.2082,0.3228,8.7213
19:49:23:347,-1.1222,0.591,8.3318,45.2089,0.2013,-0.0093,0.4902,8.1612
19:49:23:374,0.1268,0.213,9.2076,46.7471,-0.0907,-0.3281,0.3387,7.6228
19:49:23:390,0.0239,0.0933,9.052,45.2869,-0.1004,-0.2341,0.1616,7.0905
19:49:23:407,-0.7178,0.2345,9.0568,45.8532,-0.1273,-0.0838,0.0211,7.041
19:49:23:427,-1.3185,0.5504,9.2052,46.3872,-0.1566,-0.0031,0.015,7.0183
19:49:23:448,-1.4261,0.8327,8.7936,45.8835,-0.0736,0.0457,0.1567,6.8442
19:49:23:468,-1.1821,1.1414,7.992,44.9403,0.0755,0.0481,0.3326,6.4513
19:49:23:488,-0.8925,1.517,7.4058,45.5799,0.128,0.0298,0.4658,5.9078
19:49:23:513,-0.5551,1.8305,7.334,44.9794,0.0718,0.0421,0.5354,5.2642
19:49:23:526,-0.3254,2.1631,7.5613,46.1809,-0.0235,0.0555,0.533,4.6148
19:49:23:545,-0.0957,2.3426,7.8365,44.555,-0.1066,0.0372,0.4817,4.0183
19:49:23:568,0.0072,2.3689,8.2648,46.0175,-0.1774,-0.0056,0.3827,3.4989
19:49:23:588,-0.1125,2.3186,9.1382,45.5303,-0.2495,-0.0899,0.2446,3.1606
19:49:23:606,-0.4307,2.2732,10.014,45.0841,-0.2727,-0.2047,0.1139,3.0289
19:49:23:626,-0.4834,2.0746,10.6528,44.9817,-0.2031,-0.2866,0.0455,2.9646
19:49:23:648,-0.2465,1.7731,10.9854,46.6208,-0.12,-0.3562,0.0101,2.9189
19:49:23:670,0.0742,1.2754,11.3372,43.4864,-0.1163,-0.3648,-0.0376,2.9332
19:49:23:687,0.4283,0.6796,11.7392,45.2936,-0.1652,-0.289,-0.0938,2.9849
19:49:23:706,0.4929,0.3972,12.0718,45.5799,-0.2141,-0.2035,-0.1426,3.0811
19:49:23:726,0.5097,0.3948,12,44.0025,-0.2299,-0.1265,-0.1451,3.1756
19:49:23:745,0.8829,0.3278,11.6148,43.4044,-0.2226,-0.0141,-0.1084,3.2082
19:49:23:769,1.3639,0.0598,11.8301,46.0863,-0.2861,0.0066,-0.1353,3.2473
19:49:23:787,1.6152,-0.524,13.0576,45.6288,-0.412,-0.1229,-0.2709,3.4177
19:49:23:808,0.4355,-0.7968,13.395,45.9994,-0.2202,-0.2169,-0.4676,3.791
19:49:23:826,0.5695,-0.9093,11.2989,46.626,0.1952,0.1166,-0.2978,4.3148
19:49:23:848,1.0098,-0.6413,9.4086,46.3172,0.4677,0.4098,-0.0522,4.4446
19:49:23:867,1.3998,-0.28,8.2385,45.7838,0.4982,0.4672,0.098,4.144
19:49:23:889,1.6295,0.0622,7.8341,44.9669,0.3662,0.3255,0.1054,3.8316
19:49:23:906,1.864,0.4451,7.9059,44.6423,0.1805,0.1019,0.0064,3.66
19:49:23:926,1.8784,0.6341,8.1523,46.143,0.0266,-0.0398,-0.1805,3.7194
19:49:23:948,1.0887,0.7705,8.3653,43.9718,-0.0833,-0.052,-0.42,4.0826
19:49:23:967,0.0814,0.9404,8.4634,44.6951,-0.1188,0.0091,-0.5715,4.6558
19:49:23:987,-0.5097,1.1103,8.2648,45.2357,-0.0613,0.0176,-0.5568,5.219
19:49:24:007,-0.5097,1.3041,8.1165,44.3439,0.0107,-0.0581,-0.4358,5.6759
19:49:24:027,-0.2632,1.5266,8.1069,44.9999,0.0474,-0.1424,-0.3125,5.9754
19:49:24:051,-0.079,1.7444,8.1643,44.344,0.0657,-0.1485,-0.2526,6.2156
19:49:24:067,0.1172,1.8855,8.3007,45.179,0.0706,-0.1339,-0.2477,6.4209
19:49:24:088,0.2656,1.943,8.6333,43.6831,0.0486,-0.1119,-0.2721,6.6522
19:49:24:106,0.4786,1.8401,9.1238,44.5532,0.0181,-0.0777,-0.2978,6.9252
19:49:24:126,0.6628,1.6917,9.6,43.3383,0.0046,-0.0422,-0.3198,7.1896
19:49:24:151,0.7777,1.541,9.9206,45.2241,0.0144,-0.0019,-0.3271,7.471
19:49:24:167,0.67,1.6247,10.1575,45.7556,0.0437,0.0494,-0.3125,7.7181
19:49:24:187,0.4307,1.8688,10.0834,46.4161,0.1011,0.1483,-0.2587,7.8528
19:49:24:208,0.414,2.0889,9.7819,42.7439,0.1647,0.2558,-0.1634,7.8804
19:49:24:227,0.6293,2.2445,9.8369,46.1133,0.1598,0.2534,-0.0632,7.8257
19:49:24:252,1.0002,2.3115,10.4399,45.2869,0.0987,0.1923,0.0052,7.6685
19:49:24:271,0.9643,2.1799,11.1577,45.179,0.095,0.1239,-0.0766,7.5115
19:49:24:291,0.3135,2.1607,10.8132,44.5074,0.1427,0.0848,-0.1597,7.5833
19:49:24:305,-0.2967,2.1918,10.2389,44.9403,0.1634,0.0824,-0.1891,7.735
19:49:24:327,-0.3589,1.9669,10.1575,45.4914,0.0669,0.0372,-0.1829,7.8559
19:49:24:350,0.1412,0.9715,11.3659,44.8209,-0.1689,-0.1949,-0.2233,8.0115
19:49:24:371,-0.3326,0.4044,13.2227,43.9718,-0.4657,-0.614,-0.3625,8.4775
19:49:24:393,-1.4094,0.414,13.8544,44.8818,-0.4682,-0.7264,-0.4297,9.037
19:49:24:405,-2.2134,0.2034,11.8301,44.2777,0.0327,-0.2145,-0.277,9.4231
19:49:24:426,-2.1583,0.1914,8.8367,46.3619,0.5959,0.4195,0.076,9.3197
19:49:24:449,-1.584,0.5288,6.932,43.2839,0.7291,0.5698,0.4083,8.8033
19:49:24:468,-0.7131,1.0074,7.188,45.8335,0.42,0.2632,0.5659,8.1159
19:49:24:486,0.0742,1.2275,8.3964,44.8234,0.0547,-0.1265,0.5269,7.4741
19:49:24:505,0.4355,0.8973,8.8558,44.8529,-0.076,-0.3147,0.3106,7.1268
19:49:24:536,0.414,0.6604,8.7817,44.5532,-0.0943,-0.2609,0.0712,7.0131
19:49:24:548,0.0168,0.725,8.7984,43.2746,-0.142,-0.0997,-0.0889,7.0696
19:49:24:567,-0.4666,0.9021,8.7195,43.9216,-0.1566,0.0885,-0.1512,7.1966
19:49:24:585,-0.6461,1.0576,8.2026,43.0645,-0.0821,0.2229,-0.1121,7.2438
19:49:24:606,-0.6126,1.2778,7.4441,45.151,-0.0027,0.2461,-0.0302,7.1854
19:49:24:628,-0.323,1.3687,6.9894,47.6111,0.0181,0.2351,0.0516,7.0399
19:49:24:648,-0.0335,1.4189,6.9176,46.3829,-0.0271,0.1703,0.0883,6.9002
19:49:24:746,0.0694,1.541,7.4297,45.1207,-0.1359,0.0115,0.0663,6.8091
19:49:24:747,0.1053,1.5027,8.2792,47.0628,-0.2434,-0.1241,0.0162,6.7731
19:49:24:748,0.1005,1.474,8.9874,47.2919,-0.28,-0.1852,-0.0315,6.8365
19:49:24:748,0.1507,1.1222,10.3083,43.0336,-0.2531,-0.2133,-0.1292,6.9064
19:49:24:749,0.1436,1.0409,11.1242,43.9516,-0.2397,-0.2573,-0.1536,7.1443
19:49:24:766,0.3709,0.8088,11.8899,44.5074,-0.2031,-0.2805,-0.1536,7.3317
19:49:24:785,0.6317,0.5264,12.5432,43.9516,-0.1664,-0.2805,-0.15,7.4618
19:49:24:805,0.8686,0.414,12.8997,43.5786,-0.1346,-0.2316,-0.1365,7.5475
19:49:24:825,0.8399,0.5408,12.6915,44.5053,-0.0846,-0.1375,-0.1048,7.6006
19:49:24:853,1.139,0.6532,11.9115,43.6037,-0.0174,-0.0093,-0.0376,7.5581
19:49:24:866,2.132,0.2895,10.9735,44.5053,-0.0003,0.1422,0.0186,7.3946
19:49:24:885,2.613,0.1914,11.1386,45.4804,-0.1811,0.1288,-0.0828,7.326
19:49:24:906,2.3497,0.0861,12.5312,43.1056,-0.4462,-0.1119,-0.3344,7.5587
19:49:24:929,1.4859,-0.1771,13.261,43.9375,-0.4755,-0.2585,-0.5886,8.1105
19:49:24:948,0.5934,-0.3183,12.3685,44.2179,-0.1811,-0.1473,-0.6594,8.7841
19:49:24:967,0.7035,-0.524,10.2054,43.008,0.2221,0.1202,-0.5043,9.2651
19:49:24:986,1.1677,-0.4498,8.4802,42.0663,0.4322,0.3316,-0.2819,9.4576
19:49:25:007,1.7324,-0.1819,7.7551,42.1492,0.3528,0.3499,-0.1646,9.4739
19:49:25:028,2.2038,0.0957,7.9561,43.6063,0.1353,0.2302,-0.1915,9.5059
19:49:25:047,2.3091,0.3254,8.2169,42.3768,-0.0369,0.0579,-0.354,9.7301
19:49:25:068,1.7204,0.5336,8.2576,41.7464,-0.1041,-0.0019,-0.6032,10.2873
19:49:25:086,0.7825,0.6245,8.1093,43.0504,-0.0894,0.1129,-0.8011,11.076
19:49:25:105,0.1077,0.7561,7.8006,43.8971,-0.0345,0.2253,-0.8451,11.9406
19:49:25:129,0.0694,0.9691,7.7001,40.1979,0.0083,0.2277,-0.7462,12.6673
19:49:25:149,0.4451,1.3185,8.0088,40.4939,0.0168,0.1557,-0.6093,13.2162
19:49:25:166,0.6485,1.5912,8.4873,41.4869,0.029,0.0677,-0.547,13.698
19:49:25:186,0.926,1.5745,9.265,42.7603,0.0926,-0.0911,-0.6362,14.2342
19:49:25:206,0.737,1.6343,9.6191,42.411,0.0975,-0.0838,-0.6973,14.8825
19:49:25:231,0.4403,1.7372,10.1504,42.5317,0.0669,-0.0227,-0.7364,16.2987
19:49:25:247,0.3063,1.6678,10.8586,42.0926,0.0498,0.0457,-0.7339,17.0263
19:49:25:266,-0.0598,1.7372,11.3563,44.6214,0.0926,0.1105,-0.6961,17.705
19:49:25:286,-0.4283,1.8879,11.4473,41.6234,0.2038,0.196,-0.5947,18.2661
19:49:25:306,-0.4092,2.1129,10.9854,44.6361,0.343,0.2668,-0.4126,18.6165
19:49:25:328,-0.1125,2.3067,10.6265,43.331,0.4017,0.3218,-0.2477,18.7713
19:49:25:346,-0.0933,2.3857,10.7462,41.2596,0.3345,0.3267,-0.2086,18.8583
19:49:25:366,-0.5575,2.5819,10.9089,41.3621,0.238,0.3279,-0.2575,19.0401
19:49:25:386,-0.7011,2.388,10.6026,41.7625,0.2135,0.3255,-0.2978,19.2896
19:49:25:406,-0.1771,1.194,10.8826,41.3018,0.1268,0.0958,-0.3784,19.6126
19:49:25:428,-0.4475,0.5145,12.5623,42.237,-0.1725,-0.4588,-0.5531,20.27
19:49:25:447,-1.3041,0.2871,14.2277,44.2119,-0.4156,-0.9329,-0.6826,21.1575
19:49:25:467,-2.5842,0.1795,14.3402,42.5001,-0.2434,-0.8388,-0.6301,22.0307
19:49:25:487,-3.4098,0.0622,12.0048,39.3631,0.3039,-0.2328,-0.321,22.5361
19:49:25:512,-3.2495,0.4044,9.1071,43.5882,0.8256,0.4147,0.197,22.3679
19:49:25:528,-2.6824,1.1246,7.1187,41.2103,0.9893,0.6272,0.6674,21.5931
19:49:25:547,-1.7276,1.7324,6.5252,42.5599,0.8427,0.4562,0.9373,20.4739
19:49:25:566,-0.7131,2.1296,6.6305,43.3799,0.5959,0.0591,0.9386,19.4052
19:49:25:585,-0.1029,2.0602,6.9033,42.4359,0.3601,-0.377,0.6356,18.7182
19:49:25:605,-0.4355,1.7061,7.6187,42.2689,0.1219,-0.6079,0.1884,18.6196
19:49:25:628,-1.194,1.4094,8.3749,41.3997,-0.0687,-0.5419,-0.1365,18.8857
19:49:25:650,-2.4263,1.4477,8.7195,40.2626,-0.0907,-0.1595,-0.1866,19.6007
19:49:25:667,-2.4574,1.6463,8.8104,41.124,-0.0381,-0.0349,0.0125,19.6562
19:49:25:686,-2.132,1.8066,8.5424,42.3542,0.0718,0.0347,0.2227,19.4704
19:49:25:709,-1.7874,1.9501,8.2217,40.4126,0.1744,0.0347,0.3607,19.0913
19:49:25:727,-1.3328,2.1559,8.1882,41.4999,0.1927,-0.0154,0.4389,18.6002
19:49:25:752,-0.8901,2.2923,8.2983,40.1277,0.1622,-0.0202,0.4633,18.0802
19:49:25:766,-0.591,2.4431,8.7051,42.1074,0.1207,0.0335,0.4181,17.5898
19:49:25:786,-0.4642,2.5125,9.1621,40.8256,0.0865,0.0811,0.3289,17.1685
