Time,Acc_X,Acc_Y,Acc_Z,Meg,Gyr_X,Gyr_Y,Gyr_Z,Ore
16:27:08:427,-0.0335,3.8644,8.9204,42.2209,0.1439,0.3261,0.6561,130.246
16:27:08:448,-0.0335,3.8644,8.9204,43.5028,0.0901,0.3004,0.6207,185.7794
16:27:08:466,0.2967,3.7926,8.8965,42.457,0.0901,0.3004,0.6207,184.5927
16:27:08:485,0.3254,3.8022,8.8558,42.1462,0.0571,-0.1382,-0.0549,184.8772
16:27:08:509,0.2536,3.8381,8.741,44.3434,0.0791,-0.1589,-0.0744,185.1206
16:27:08:524,0.2752,4.0128,8.2385,44.4153,0.1194,-0.1931,-0.0842,185.4096
16:27:08:544,0.1531,4.2209,7.9226,43.7565,0.0865,-0.198,-0.0806,185.6259
16:27:08:563,0.2465,4.1994,8.3007,44.4011,-0.0394,-0.187,-0.0744,185.8856
16:27:08:583,0.39,4.0247,8.7171,44.5612,-0.1762,-0.2799,-0.0867,186.1212
16:27:08:602,0.536,3.8572,8.7553,44.0652,-0.2654,-0.3837,-0.0744,186.4749
16:27:08:632,0.6102,3.9697,8.2217,43.7822,-0.3546,-0.4045,-0.0317,186.8051
16:27:08:643,0.4331,4.2856,8.071,43.0323,-0.4914,-0.2823,0.0135,187.0103
16:27:08:662,0.402,4.2903,8.5208,43.5815,-0.6136,-0.071,0.0453,187.0558
16:27:08:682,0.5384,4.2616,8.4778,44.4793,-0.6405,-0.0209,0.0441,187.088
16:27:08:703,0.7729,4.5248,8.5735,43.6013,-0.6136,-0.0575,0.0172,187.2104
16:27:08:744,0.9787,4.4339,9.0497,42.9339,-0.6185,-0.0759,-0.0891,187.4662
16:27:08:746,0.8662,4.2186,8.7505,42.2928,-0.6172,-0.1614,-0.2467,187.8947
16:27:08:764,0.7968,4.0606,8.4778,42.3464,-0.6001,-0.1394,-0.3127,188.349
16:27:08:784,0.6963,3.9218,8.8247,42.1134,-0.5782,0.144,-0.276,188.6572
16:27:08:803,0.615,3.6275,9.7507,43.5908,-0.5146,0.4177,-0.2443,188.7562
16:27:08:844,0.4331,3.7304,9.4732,45.0927,-0.3766,0.2845,-0.2296,188.9081
16:27:08:845,0.5049,3.7878,8.5161,45.0141,-0.241,0.0854,-0.171,189.1204
16:27:08:862,0.682,3.6993,8.9324,43.7088,-0.241,0.1001,-0.1062,189.2558
16:27:08:882,0.8112,3.5797,9.9972,44.3383,-0.313,-0.0282,-0.1233,189.4544
16:27:08:903,1.1892,3.4816,10.1169,43.2083,-0.2251,-0.3385,-0.2052,189.8674
16:27:08:942,0.5767,3.3811,9.5641,44.4406,-0.0003,-0.5047,-0.3493,190.4536
16:27:08:947,-0.67,3.4576,8.7195,44.6385,0.2294,-0.4509,-0.3994,190.956
16:27:08:963,-1.1198,3.716,8.3031,45.0141,0.3723,-0.3593,-0.16,191.17
16:27:08:984,-0.3278,3.807,8.3773,44.5399,0.4041,-0.3263,0.2701,190.9588
16:27:09:004,0.3374,4.0032,8.406,43.8701,0.3858,-0.2054,0.606,190.4359
16:27:09:032,0.6963,4.0941,8.5663,42.9556,0.3638,0.1404,0.7759,189.6401
16:27:09:051,0.603,4.0439,9.6144,43.5492,0.3418,0.5362,0.8076,187.5436
16:27:09:062,0.6867,4.209,9.9087,44.1193,0.3259,0.1624,0.7062,186.781
16:27:09:086,0.536,4.3837,10.0499,44.7212,0.398,-0.0685,0.606,186.2069
16:27:09:103,0.4762,4.4698,9.7029,44.7992,0.5544,0.0402,0.5327,185.6419
16:27:09:126,0.9858,4.3621,9.1861,43.3796,0.5727,0.1416,0.5169,185.1162
16:27:09:155,1.73,4.3621,10.1767,43.3582,0.2758,0.0317,0.4912,184.6832
16:27:09:162,2.0219,4.13,11.9282,43.9535,-0.2141,-0.2994,0.3531,184.5322
16:27:09:183,2.2325,3.2877,13.5745,43.313,-0.5269,-0.567,0.1332,184.6672
16:27:09:203,1.3854,2.6584,13.6247,44.6542,-0.3778,-0.3129,-0.0928,184.8493
16:27:09:223,-0.3326,2.8331,12.536,45.3012,0.15,0.4287,-0.1893,184.7635
16:27:09:242,-1.3926,3.0748,10.7533,44.6644,0.6289,0.9944,-0.0634,184.2854
16:27:09:264,-1.6845,3.2686,9.8656,45.2843,0.7657,1.1459,0.1809,183.5076
16:27:09:282,-1.2156,3.4529,10.1743,43.9454,0.5446,0.8319,0.3788,182.6801
16:27:09:303,-0.4092,3.058,10.3944,43.9266,0.2086,0.3175,0.4558,182.0484
16:27:09:328,0.2201,2.5723,10.6505,45.2887,0.0046,0.0793,0.4155,181.588
16:27:09:347,0.335,2.2086,10.7127,44.632,-0.0528,0.1391,0.3153,181.1987
16:27:09:366,0.2321,1.8927,10.6026,45.9645,0.0254,0.2711,0.2432,180.8103
16:27:09:383,0.2058,1.8855,9.7292,43.9906,0.2318,0.364,0.2346,180.4076
16:27:09:403,0.4211,2.1751,8.3964,44.6619,0.4982,0.5167,0.2713,179.9276
16:27:09:423,0.5049,2.3976,6.7502,43.9862,0.6888,0.7513,0.2933,179.3125
16:27:09:443,0.3039,2.6273,5.592,44.7881,0.7047,1.0188,0.2847,178.5771
16:27:09:463,0.0598,2.8666,5.2403,44.7996,0.5409,1.1629,0.2957,177.7485
16:27:09:482,0.0096,2.936,4.8574,44.8063,0.3002,1.1104,0.3385,176.8806
16:27:09:503,-0.4044,3.3476,5.4245,44.8063,-0.3277,0.6816,0.3739,175.3397
16:27:09:525,0.2321,3.3571,6.2836,44.8715,-0.5501,0.3591,0.4155,174.7652
16:27:09:545,1.1988,3.2758,6.7454,44.9471,-0.5769,0.0365,0.3654,174.4269
16:27:09:565,1.6223,3.2686,7.7839,43.5887,-0.5195,-0.2408,0.1467,174.4438
16:27:09:585,1.4907,3.1968,8.0542,44.2957,-0.3778,-0.4863,-0.1355,174.8458
16:27:09:603,1.3615,3.4576,7.681,45.5707,-0.2055,-0.6098,-0.3799,175.5312
16:27:09:623,1.1605,3.5222,7.1402,45.7164,-0.208,-0.6,-0.557,176.3857
16:27:09:643,1.1988,3.3858,7.4489,46.1533,-0.3692,-0.3727,-0.6804,177.2491
16:27:09:667,1.2467,3.4481,8.1595,46.1807,-0.5611,-0.0209,-0.8246,178.1398
16:27:09:694,0.3805,4.1204,9.4516,44.7682,-0.7101,0.1697,-1.0921,179.1769
16:27:09:702,-1.0911,4.6014,11.0931,46.9768,-0.7553,0.0011,-1.3438,180.5171
16:27:09:724,-1.6989,3.8907,12.2082,46.1184,-0.715,-0.4595,-1.3255,181.9648
16:27:09:741,-1.3926,3.4002,12.079,44.3509,-0.5965,-0.8517,-1.1263,183.3387
16:27:09:762,-0.2345,2.936,12.5097,46.4346,-0.5611,-0.9763,-0.8258,184.4975
16:27:09:780,1.4955,1.4764,14.5938,47.335,-0.7626,-1.1143,-0.6071,185.5031
16:27:09:802,1.1581,0.7872,17.8457,45.7563,-0.9068,-1.1779,-0.6694,186.5294
16:27:09:822,0.3087,0.5743,17.7906,46.6414,-0.5097,-0.9677,-0.7293,187.5092
16:27:09:845,-0.0455,0.8207,14.3761,48.6478,0.2599,-0.5352,-0.579,188.1912
16:27:09:866,0.2273,1.3089,11.3037,46.528,0.7523,-0.2457,-0.3286,188.5278
16:27:09:883,0.6413,1.6774,9.6431,49.0099,0.8598,-0.2005,-0.1636,188.7045
16:27:09:905,0.4355,1.9358,9.1645,47.5153,0.8537,-0.2884,-0.1221,188.86
16:27:09:926,0.2728,2.1727,8.2887,48.8578,0.9062,-0.5047,-0.0964,189.071
16:27:09:945,0.6963,2.4407,6.9679,46.0564,0.9343,-0.6256,-0.0476,189.2971
16:27:09:965,0.8255,3.3069,5.8385,47.5299,0.5568,-0.1675,-0.2064,189.8068
16:27:09:983,0.4594,3.2901,6.2883,48.1857,0.3564,0.0793,-0.4776,190.2094
16:27:10:003,0.2919,3.0126,6.7238,48.0909,0.2416,0.0781,-0.6951,190.8329
16:27:10:026,0.0694,3.0269,6.8267,49.4231,0.1402,-0.0966,-0.7427,191.55
16:27:10:043,-0.0957,3.1466,6.9153,48.8394,0.0901,-0.0734,-0.6548,192.1679
16:27:10:063,-0.146,3.338,6.7238,49.5347,0.0803,0.0829,-0.5191,192.6017
16:27:10:083,-0.067,3.5127,6.5851,48.7682,0.0364,0.2455,-0.3884,192.8202
16:27:10:102,0.0048,3.6921,6.9272,50.1327,-0.0748,0.3603,-0.2992,192.9059
16:27:10:127,0.0191,3.7089,7.5948,49.7138,-0.1848,0.3786,-0.2675,192.9531
16:27:10:143,-0.1938,3.8261,7.9178,49.6357,-0.1897,0.298,-0.2577,193.0243
16:27:10:162,-0.3015,4.0343,8.1835,50.333,-0.0944,0.232,-0.2125,193.0859
16:27:10:181,-0.2895,4.2951,8.3342,50.9101,0.0058,0.2137,-0.1404,193.0755
16:27:10:201,-0.4164,4.3645,8.351,49.7428,0.0486,0.243,-0.0757,192.9758
16:27:10:221,-0.615,4.41,9.1478,52.8935,0.0718,0.3591,-0.0097,192.7659
16:27:10:242,-0.5958,4.4339,9.7077,50.9445,0.1329,0.3346,0.0807,192.4476
16:27:10:261,-0.0598,4.2353,10.3298,50.8536,0.2062,0.0939,0.1564,192.1715
16:27:10:281,0.3757,4.1061,11.3372,51.5456,0.2416,-0.3068,0.165,192.078
16:27:10:301,0.2345,4.5105,12.0359,51.4579,0.2575,-0.7661,0.1051,192.2214
16:27:10:322,0.3829,4.3908,11.7057,52.0574,0.3393,-0.8565,0.0379,192.4883
16:27:10:342,0.2058,4.0056,11.4377,50.8536,0.3442,-0.6024,-0.0378,192.7076
16:27:10:363,-1.0289,3.7208,11.6985,52.0543,0.172,-0.3801,-0.1441,192.9238
16:27:10:502,-2.4455,3.4792,11.3659,51.4492,0.1072,-0.0771,-0.16,192.9676
16:27:10:502,-2.7398,3.8405,9.6096,51.5456,0.2355,0.5716,0.2603,192.0487
16:27:10:514,-1.6439,3.3308,10.3705,50.0997,-0.0772,0.3236,0.4252,191.3611
16:27:10:515,-1.2275,2.8786,11.4903,51.3828,-0.4022,-0.071,0.3947,190.8986
16:27:10:516,-1.2538,2.6967,11.6315,52.7589,-0.4731,-0.1846,0.3263,190.5497
16:27:10:516,-0.8949,2.3665,10.5835,52.7591,-0.3314,0.0927,0.3983,190.0324
16:27:10:517,-0.6963,2.4957,9.4612,54.0796,-0.164,0.5716,0.512,189.1946
16:27:10:529,-0.4355,2.7517,8.8989,53.4654,-0.1029,0.8184,0.595,188.195
16:27:10:542,0.1077,2.7876,8.6142,54.0533,-0.098,0.6682,0.6525,187.2035
16:27:10:561,0.7131,2.747,8.3605,54.0586,-0.0736,0.3346,0.6732,186.3534
16:27:10:582,1.1414,2.7757,7.9226,55.4373,-0.0015,0.0939,0.6769,185.6008
16:27:10:602,1.5721,2.9169,7.4225,53.4268,0.1243,0.1416,0.6916,184.8462
16:27:10:627,1.986,3.1083,7.0612,54.3367,0.2208,0.3468,0.6684,184.0168
16:27:10:645,2.0674,3.2136,6.9368,55.0717,0.244,0.4763,0.5425,183.2466
16:27:10:666,1.9358,3.0844,6.9679,53.7283,0.2465,0.4653,0.3495,182.6709
16:27:10:683,1.6008,2.9288,6.6425,53.0149,0.2514,0.3652,0.1454,182.3359
16:27:10:703,1.0409,2.802,6.341,54.3834,0.2477,0.3016,-0.0207,182.1919
16:27:10:724,0.3565,2.8905,6.2333,53.5518,0.2208,0.3151,-0.1038,182.1055
16:27:10:743,0.122,2.8666,6.2189,53.8014,0.172,0.3591,-0.1025,182.0103
16:27:10:763,0.0311,2.9288,6.9105,53.8014,0.1072,0.3762,-0.094,181.8738
16:27:10:783,-0.1149,2.8427,8.1165,55.1753,0.0449,0.188,-0.1221,181.8483
16:27:10:803,-0.1053,2.7852,8.9157,54.9356,-0.0003,-0.2774,-0.1648,182.073
16:27:10:827,0.1149,2.8618,9.1765,55.7759,-0.0418,-0.6146,-0.1502,182.4522
16:27:10:844,0.3446,3.1585,9.7005,55.6856,-0.1457,-0.4448,-0.0268,182.6198
16:27:10:870,2.1679,3.259,12.2178,56.3874,-0.5281,0.4715,0.2664,181.9639
16:27:10:889,3.2901,2.4479,14.3641,55.8088,-0.8677,0.1721,0.0966,181.8015
16:27:10:912,2.8786,1.7635,16.0008,54.0411,-1.0852,-0.5523,-0.3884,182.4068
16:27:10:924,2.1152,1.2634,15.283,53.9555,-0.8127,-0.8614,-0.7916,183.5027
16:27:10:945,1.2443,1.6774,12.6891,55.5984,-0.1542,-0.5047,-0.8576,184.5261
16:27:10:962,0.9165,2.5986,10.1384,54.6249,0.3931,0.0145,-0.7183,185.1995
16:27:10:983,1.2945,3.4217,8.0423,56.6481,0.4615,0.0414,-0.5802,185.7321
16:27:11:003,1.6774,3.8357,7.1928,56.4543,0.1072,-0.2945,-0.5827,186.3813
16:27:11:025,1.4405,3.7352,7.7456,57.16,-0.3582,-0.5267,-0.7244,187.2867
16:27:11:045,0.9787,3.2997,8.2169,57.3187,-0.6551,-0.5511,-0.8905,188.3508
16:27:11:063,0.0646,3.0652,8.0399,57.843,-0.715,-0.4448,-0.9895,189.4559
16:27:11:083,-0.7681,2.9623,7.6714,58.5507,-0.5953,-0.2738,-0.9736,190.4721
16:27:11:102,-1.2251,3.0054,7.3196,56.6447,-0.4108,-0.1846,-0.8258,191.3128
16:27:11:123,-1.3519,2.9551,7.1258,59.9776,-0.2483,-0.2444,-0.6181,191.9377
16:27:11:142,-1.3615,3.0532,6.9942,58.6401,-0.1225,-0.3349,-0.4043,192.3624
16:27:11:162,-0.9476,3.3404,7.8197,58.4756,-0.0382,-0.3361,-0.1856,192.5684
16:27:11:182,-0.3517,3.4576,8.2146,59.7483,0.0681,-0.3373,-0.0146,192.6082
16:27:11:203,-0.1819,3.5916,8.339,57.3118,0.2563,-0.2102,0.0318,192.5432
16:27:11:224,-0.3948,3.7232,8.3677,59.675,0.4334,0.0085,0.0001,192.4461
16:27:11:242,-0.5575,3.8237,8.5878,58.4788,0.4982,0.1465,-0.028,192.3279
16:27:11:263,-0.6269,3.8309,8.8965,58.2733,0.4823,0.1184,-0.0488,192.2372
16:27:11:282,-0.8136,3.8285,9.2578,61.1081,0.4408,0.0317,-0.0732,192.2082
16:27:11:305,-0.9523,3.795,9.5952,59.7483,0.4151,0.0048,-0.0708,192.1635
16:27:11:326,-0.2297,3.7759,10.6983,59.6192,0.3711,-0.0184,-0.0476,192.1054
16:27:11:348,-0.1364,3.8189,11.8684,60.3187,0.2306,-0.2994,-0.1147,192.1539
16:27:11:365,-0.0215,3.5079,12.6389,61.0189,0.0278,-0.6183,-0.2101,192.6427
16:27:11:381,0.3805,2.9193,12.7514,59.6846,-0.0528,-0.5389,-0.2223,192.9882
16:27:11:401,0.1268,2.522,12.5432,60.3479,-0.0052,-0.0587,-0.1575,193.065
16:27:11:422,-1.0863,2.5699,11.464,60.3188,0.1536,0.5753,-0.0708,192.8012
16:27:11:445,-2.0267,2.9934,9.6072,60.3039,0.4444,1.2118,0.0697,192.1169
16:27:11:462,-2.345,3.8118,8.1523,60.2003,0.6106,1.5625,0.2664,191.0883
16:27:11:482,-1.6965,4.2114,7.9418,60.9273,0.3882,1.2863,0.4521,189.9711
16:27:11:502,-0.6867,3.7783,9.1621,61.0676,-0.1982,0.3872,0.501,189.1981
16:27:11:523,-0.3446,2.8857,10.3226,62.4431,-0.7309,-0.5572,0.3641,188.9617
16:27:11:543,-0.414,2.132,10.9352,61.771,-0.886,-0.8565,0.2505,188.9404
16:27:11:563,-0.5192,1.7252,10.5882,61.1299,-0.7297,-0.5645,0.3226,188.7194
16:27:11:582,-0.122,1.6534,9.7436,60.01,-0.4694,-0.0172,0.5401,188.0824
16:27:11:603,0.2632,2.0052,8.729,62.7245,-0.2935,0.4763,0.7417,187.0517
16:27:11:625,0.682,2.1392,8.1284,61.5481,-0.274,0.8514,0.8748,185.7701
16:27:11:642,0.9332,2.2373,8.0471,64.1958,-0.3521,1.0383,0.9359,184.3626
16:27:11:663,1.0002,2.4144,8.6596,63.4983,-0.3705,0.9809,0.9017,183.0369
16:27:11:681,0.9165,2.5149,8.4993,63.6251,-0.1958,0.6278,0.8015,181.9376
16:27:11:702,1.0241,2.5962,7.6666,62.7954,0.1145,0.2161,0.6671,181.11
16:27:11:727,0.9284,2.857,7.2311,62.4508,0.3332,-0.1125,0.5059,180.2672
16:27:11:744,0.8016,3.0748,6.7071,62.7211,0.453,-0.6146,0.2102,180.1979
16:27:11:764,0.67,3.137,7.0756,63.3109,0.3943,-0.6806,0.1027,180.2704
16:27:11:783,0.4929,3.216,7.4369,62.8514,0.3503,-0.6879,0.0233,180.5069
16:27:11:808,0.5408,3.4576,7.5278,63.8121,0.3687,-0.6415,-0.0256,180.691
16:27:11:833,0.8447,3.5055,7.547,63.3991,0.3821,-0.622,-0.0903,180.9652
16:27:11:841,0.7107,3.4002,8.6022,62.2213,0.2819,-0.7112,-0.2626,181.435
16:27:11:862,0.2871,3.1442,9.4349,63.2431,0.0596,-1.0777,-0.4862,182.2923
16:27:11:880,-0.256,3.1514,9.9828,62.8535,-0.142,-1.3367,-0.6022,183.3502
16:27:11:903,-0.1484,3.3882,10.0905,63.655,-0.2825,-1.1094,-0.5106,184.2261
16:27:11:923,1.0433,3.283,10.3633,64.3262,-0.3827,-0.4179,-0.2748,184.5899
16:27:11:943,1.8209,2.6728,11.6172,66.0606,-0.6429,0.0659,-0.2308,184.7238
16:27:11:962,1.3543,1.7157,13.8329,64.3056,-1.0241,-0.0355,-0.4593,185.1392
16:27:11:981,0.938,0.6628,15.8285,64.9655,-1.1768,-0.5071,-0.6694,185.9087
16:27:12:001,0.7274,0.2823,15.9577,64.9805,-0.9557,-1.1094,-0.7525,186.9493
16:27:12:023,0.8662,0.4666,13.9549,65.649,-0.4596,-1.3465,-0.6535,187.9471
16:27:12:042,1.2371,1.0576,11.6435,66.2599,-0.0003,-0.9555,-0.3676,188.5282
16:27:12:062,1.5386,1.9741,9.4899,65.4369,0.2233,-0.2408,-0.0243,188.5463
16:27:12:081,1.9741,2.5986,7.9418,65.0421,0.1658,0.4299,0.2078,188.1261
16:27:12:101,2.0985,2.9623,7.6881,65.5617,-0.1261,0.8502,0.2359,187.5371
16:27:12:124,1.7994,2.9719,8.6429,66.4698,-0.4095,0.9333,0.1051,187.0745
16:27:12:145,1.2849,2.7111,8.8511,67.1386,-0.4083,0.6926,-0.0928,186.8975
16:27:12:163,0.6628,2.5364,7.925,67.0462,-0.1041,0.4079,-0.2724,186.9897
16:27:12:182,0.0909,2.6704,6.7525,65.5097,0.2367,0.276,-0.3469,187.1854
16:27:12:202,0.0646,2.8546,5.7858,66.7267,0.4041,0.2564,-0.2626,187.3115
16:27:12:223,0.3135,2.9791,5.458,66.8405,0.3882,0.3261,-0.0964,187.2425
16:27:12:243,1.1916,3.3691,6.6999,67.6578,0.1976,0.3591,0.1161,186.9873
16:27:12:262,1.4118,3.6108,7.346,67.3975,0.1879,0.2479,0.0929,186.5193
16:27:12:282,1.2371,3.9793,7.9083,67.3975,0.2074,0.1062,0.0099,186.4154
16:27:12:301,1.0624,4.1276,8.4251,67.6447,0.2172,0.0329,-0.0561,186.4025
16:27:12:324,0.9404,4.1372,9.7436,65.9867,0.2416,0.0426,-0.0793,186.3924
16:27:12:343,1.127,4.0606,11.0955,68.5355,0.3015,-0.1919,-0.1001,186.493
16:27:12:361,1.675,3.7878,11.3683,67.8814,0.431,-0.6207,-0.1685,186.8206
16:27:12:381,2.5484,3.3452,11.3994,66.5675,0.5592,-0.8162,-0.2724,187.3345
16:27:12:401,2.7159,3.0365,11.8086,65.7074,0.4652,-0.8211,-0.4251,188.0143
16:27:12:424,1.8592,2.8594,12.3781,67.6801,0.2685,-0.5792,-0.5631,188.7444
16:27:12:443,0.6939,2.857,12.28,67.6516,0.31,-0.0001,-0.5582,189.2388
16:27:12:462,0.0981,2.9958,11.0166,67.0167,0.5703,0.5203,-0.3493,189.3109
16:27:12:482,-0.6652,3.2423,9.923,66.4703,0.7731,0.7683,-0.1563,189.0609
16:27:12:502,-1.4596,3.5509,8.5041,67.0901,0.8415,0.7402,-0.1001,188.7347
16:27:12:623,-1.529,3.6873,7.5517,67.0572,0.7071,0.535,-0.0793,188.4725
16:27:12:623,-1.0433,3.0867,7.7623,67.0572,0.1768,0.0622,-0.1086,188.4544
16:27:12:624,-0.2847,1.9023,9.5282,68.3682,-0.6038,-0.5035,-0.1429,188.721
16:27:12:624,-0.0096,1.0911,12.1412,66.2114,-1.1805,-0.6891,-0.1477,189.0602
16:27:12:625,-0.2895,0.9667,13.4501,68.3053,-1.2232,-0.4839,-0.1147,189.2901
16:27:12:625,-0.5695,1.084,12.2608,67.597,-0.7003,-0.0013,0.0502,189.1369
16:27:12:644,-0.5073,1.5888,10.1791,69.6726,-0.0308,0.5252,0.3043,188.5386
16:27:12:664,-0.1579,2.266,8.3557,68.3713,0.3393,0.6156,0.4924,187.7156
16:27:12:684,0.3278,2.7876,7.1019,68.5869,0.3894,0.3481,0.5853,186.9052
16:27:12:705,0.7059,3.1178,6.4319,67.9436,0.244,0.0756,0.5303,186.167
16:27:12:725,0.5168,3.0604,6.2022,67.7143,0.2563,0.1599,0.457,184.9902
16:27:12:743,0.3302,2.9862,5.8217,66.5224,0.3125,0.2479,0.4142,184.4142
16:27:12:761,0.1819,3.0221,5.5944,67.8795,0.31,0.2479,0.3837,183.8579
16:27:12:781,0.1699,3.1537,5.9701,68.1728,0.2196,0.1501,0.3666,183.3635
16:27:12:802,0.28,3.2423,6.4439,68.1054,0.0974,-0.0624,0.3495,182.9579
16:27:12:823,0.457,3.4146,6.9296,68.0075,0.0449,-0.2188,0.3397,182.6362
16:27:12:843,0.6078,3.5318,7.4656,68.1054,0.0925,-0.1711,0.3373,182.3083
16:27:12:862,0.5886,3.4624,8.2026,67.696,0.1915,-0.0795,0.3079,181.9686
16:27:12:882,0.3565,3.4911,8.8128,67.4966,0.2856,-0.104,0.2469,181.6877
16:27:12:903,0.2967,3.7017,8.6644,66.9291,0.3552,-0.2481,0.2102,181.5201
16:27:12:923,0.1747,4.0845,8.7817,66.2548,0.2599,-0.3019,0.2212,181.3615
16:27:12:943,-0.0096,4.1946,10.0977,67.0761,0.0119,-0.22,0.2921,181.0972
16:27:12:963,0.0168,4.4387,11.7703,67.2123,-0.1188,-0.1663,0.4753,180.614
16:27:12:982,0.2297,5.2283,11.7894,66.8054,0.0168,-0.1528,0.7185,179.8792
16:27:13:000,2.4048,5.4054,9.5474,67.0714,0.1622,0.05,0.9298,178.8707
16:27:13:025,5.1422,4.8885,10.0451,65.8576,-0.3069,0.287,0.9506,177.7628
16:27:13:042,5.7523,2.881,14.9647,66.2291,-1.4602,0.0744,0.5181,177.1803
16:27:13:063,4.6852,0.3637,18.128,66.0261,-2.1249,-0.5487,-0.2259,177.5869
16:27:13:082,2.4383,-0.3876,16.7282,66.5821,-1.6093,-0.8297,-0.7879,178.6409
16:27:13:101,0.6221,0.1077,13.2036,63.9324,-0.4071,-0.3373,-0.9015,179.6379
16:27:13:122,-0.2345,0.7968,10.1504,66.4746,0.525,0.4592,-0.6108,180.0665
16:27:13:145,0.682,2.6991,7.9872,65.2218,0.4957,0.6462,0.2493,179.4193
16:27:13:161,1.9047,2.8546,7.7839,64.5737,0.2111,0.3224,0.468,178.7782
16:27:13:181,2.4,2.747,7.7288,66.0261,0.1316,0.2222,0.3886,178.2662
16:27:13:200,1.7324,2.8881,7.4656,66.6953,0.2624,0.3188,0.0844,178.0306
16:27:13:223,0.6532,2.9432,6.865,66.4534,0.4664,0.3884,-0.2076,178.063
16:27:13:241,0.1029,2.8881,5.9964,66.561,0.5641,0.2955,-0.3224,178.2471
16:27:13:263,0.2273,2.9815,5.7763,66.4323,0.464,0.1562,-0.2968,178.4476
16:27:13:281,0.7394,2.9264,6.3482,66.4393,0.2147,0.0768,-0.2259,178.6111
16:27:13:302,1.0385,2.8762,7.1857,64.9953,-0.0235,0.039,-0.1722,178.7343
16:27:13:323,1.2156,2.9743,7.5422,66.2762,-0.1176,0.0976,-0.1477,178.8151
16:27:13:344,1.048,3.0437,7.4608,67.1037,-0.1066,0.2589,-0.1441,178.8333
16:27:13:362,0.7609,3.1657,7.3938,65.7613,-0.1078,0.3786,-0.1355,178.7836
16:27:13:380,0.5671,3.1968,7.6618,64.3882,-0.1579,0.3811,-0.0757,178.6692
16:27:13:402,0.67,3.3069,8.2744,67.279,-0.1848,0.2662,0.0269,178.4998
16:27:13:423,1.1462,3.3212,8.8247,64.3382,-0.1115,0.0903,0.1467,178.2706
16:27:13:442,1.7827,3.326,9.387,64.6675,0.0522,-0.1467,0.2346,178.0557
16:27:13:462,2.4598,3.5103,9.6431,65.0909,0.244,-0.512,0.264,177.9443
16:27:13:482,3.1035,4.0798,9.5952,66.0047,0.4432,-0.848,0.2261,178.0231
16:27:13:501,3.2901,4.7402,9.0999,64.4198,0.6362,-0.9078,0.121,178.2415
16:27:13:525,3.0652,5.1206,9.0114,64.6533,0.7303,-0.6782,-0.0317,178.5394
16:27:13:543,2.5196,5.458,9.1573,63.6523,0.6912,-0.424,-0.1954,178.8923
16:27:13:563,1.1055,5.9605,9.1286,63.2124,0.5739,-0.1565,-0.3432,179.2791
16:27:13:583,-0.1723,6.1089,9.2746,63.5677,0.4395,0.3163,-0.4055,179.4874
16:27:13:603,-1.1055,5.592,11.3683,64.3165,0.0828,0.3383,-0.342,179.4986
16:27:13:624,-1.2299,5.1996,11.5908,64.1489,-0.0821,-0.3507,-0.3933,179.6588
16:27:13:643,-0.9308,4.7617,10.9998,62.6132,-0.1371,-0.6146,-0.4568,180.8216
16:27:13:665,-0.5599,4.0104,10.9759,63.2148,-0.2862,-0.4534,-0.524,181.5012
16:27:13:683,-0.3183,3.1633,11.3181,63.9355,-0.5586,-0.3349,-0.5998,182.2004
16:27:13:707,-0.1101,2.3857,11.9306,64.5198,-0.7651,-0.3055,-0.6474,182.9262
16:27:13:722,-0.0048,2.0578,11.5095,64.3833,-0.7345,-0.3129,-0.6364,183.6476
16:27:13:745,0.0694,1.9669,9.9398,65.1171,-0.4902,-0.1589,-0.5448,184.2168
16:27:13:762,0.1747,2.2421,8.4538,64.3166,-0.2434,0.2173,-0.3615,184.4551
16:27:13:780,0.5408,2.522,7.2431,65.373,-0.1225,0.546,-0.1404,184.3444
16:27:13:802,1.0433,2.8307,6.5013,65.9323,-0.1066,0.6437,0.0147,184.0283
16:27:13:824,1.3543,3.0676,6.3912,63.872,-0.142,0.5069,0.0331,183.7635
16:27:13:839,1.6176,3.0796,6.2237,63.9729,-0.131,0.2638,-0.0378,183.6677
16:27:13:865,1.7468,3.2806,5.7739,65.1606,-0.0443,0.122,-0.177,183.7788
16:27:13:879,1.4524,3.4098,5.5011,63.866,0.0547,0.039,-0.3725,184.1226
16:27:13:899,0.8375,3.5701,5.7284,65.1707,0.0913,-0.1259,-0.5692,184.7229
16:27:13:919,0.4379,3.2877,6.1065,63.0187,0.0278,-0.4656,-0.6975,185.5856
16:27:13:942,0.2321,2.9599,6.6329,66.3829,-0.0675,-0.7808,-0.7708,186.6417
16:27:13:964,-0.1412,2.8307,8.0662,65.0694,-0.1591,-0.9091,-0.7953,187.7685
16:27:13:980,-0.1172,2.589,8.6213,65.0694,-0.1493,-0.9921,-0.7146,188.8399
16:27:14:000,0.0885,2.5244,8.8822,64.4418,-0.0626,-0.9372,-0.5619,189.7291
16:27:14:025,0.4355,2.3354,9.8704,63.1677,-0.0638,-0.727,-0.4153,190.389
16:27:14:042,0.5862,2.2732,11.6387,64.5079,-0.2153,-0.6452,-0.2821,190.8695
16:27:14:064,-0.012,3.5892,12.0311,64.4451,-0.1286,-0.2713,0.0074,191.2636
16:27:14:081,1.5362,3.74,10.0068,63.8398,0.1084,0.2809,0.1943,190.9069
16:27:14:103,3.2255,3.4122,10.5212,65.3309,-0.2287,0.2345,0.1711,190.6216
16:27:14:124,3.4241,2.1942,13.3639,64.0847,-0.886,-0.33,-0.0708,190.7827
16:27:14:142,2.3163,1.1055,14.6776,64.2818,-0.9984,-0.6195,-0.3615,191.3179
16:27:14:162,1.0911,1.0935,13.4477,64.1908,-0.3986,-0.4167,-0.4373,191.8488
16:27:14:181,0.9619,1.73,10.6528,64.9517,0.2453,-0.071,-0.2553,192.088
16:27:14:200,1.3017,2.3785,8.8606,63.9959,0.3296,0.1575,-0.0268,192.0164
16:27:14:221,2.0674,2.3785,8.9922,63.8481,-0.065,0.2723,0.1381,191.739
16:27:14:244,2.321,2.2062,9.8273,64.5221,-0.4535,0.2906,0.1369,191.4567
16:27:14:261,1.6558,2.1966,10.1192,64.6347,-0.5452,0.3407,-0.0158,191.3279
16:27:14:280,0.725,2.2995,9.6263,64.5377,-0.3533,0.4947,-0.1172,191.2453
16:27:14:300,-0.0646,2.2947,8.3438,64.6474,-0.0284,0.7072,-0.1001,191.0876
16:27:14:327,-0.6413,2.5651,7.0181,64.5094,0.2404,0.8563,-0.0207,190.7914
16:27:14:344,-0.8159,2.79,6.0323,64.251,0.3369,0.8026,0.11,190.3608
16:27:14:363,-0.5767,2.8833,5.8122,62.9531,0.244,0.5142,0.2615,189.8713
16:27:14:381,-0.1866,2.8044,6.2309,62.7047,0.0901,0.1489,0.3727,189.3857
16:27:14:399,0.1005,2.7182,6.073,64.5094,0.0767,-0.0869,0.4228,188.9474
16:27:14:423,0.3278,2.8163,5.8433,64.6474,0.1451,-0.1052,0.4387,188.4844
16:27:14:441,0.7202,2.8881,6.0921,62.272,0.1194,-0.0807,0.457,188.0134
16:27:14:460,1.1007,3.0006,6.8626,64.106,-0.0174,-0.1589,0.4582,187.5642
16:27:14:481,1.3807,3.0772,7.9561,63.4737,-0.164,-0.2176,0.4277,187.1737
16:27:14:503,1.4165,3.0748,9.0927,63.0945,-0.2067,-0.1162,0.3764,186.79
16:27:14:524,1.1773,3.3428,10.0786,65.9172,-0.0064,0.133,0.2737,186.0972
16:27:14:544,1.5386,3.2973,10.3753,63.4955,0.0486,0.0646,0.22,185.8223
16:27:14:562,2.1535,2.8929,11.3659,63.3229,-0.0504,-0.1736,0.1125,185.743
16:27:14:581,1.7731,3.2207,12.3135,64.097,-0.2752,-0.4888,-0.0402,185.9274
16:27:14:600,1.7276,2.7278,11.8158,64.2893,-0.335,-0.2774,-0.1099,186.0979
16:27:14:623,1.0193,2.3019,12.012,64.0565,-0.2996,0.2858,-0.0806,186.0541
16:27:14:746,-0.5599,2.2612,12.2847,63.1602,-0.3045,0.4592,-0.0757,185.9392
16:27:14:748,-1.5577,2.3163,11.1721,63.4119,-0.1652,0.4519,-0.0207,185.7626
16:27:14:749,-1.3974,2.6249,10.2676,64.6707,-0.065,0.4837,0.1577,185.3898
16:27:14:750,0.0072,2.3426,10.8323,63.9948,-0.3265,0.2039,0.3275,184.9407
16:27:14:752,1.5099,1.6247,12.2776,63.9509,-0.7394,-0.2518,0.3495,184.6159
16:27:14:753,2.1416,1.0696,13.5386,64.167,-0.9227,-0.3813,0.2346,184.4487
16:27:14:769,1.8592,0.859,13.0481,64.4174,-0.7541,-0.0893,0.1357,184.3103
16:27:14:780,1.3376,1.1342,11.6267,63.3103,-0.3668,0.4996,0.1723,183.9936
16:27:14:800,1.4357,1.462,10.1336,65.4028,-0.0797,0.8685,0.2774,183.4972
16:27:14:821,1.9119,1.8185,8.8606,64.9954,0.0327,0.7525,0.2921,183.0423
16:27:14:843,2.0052,2.144,7.9226,67.5475,0.0241,0.3811,0.1516,182.8276
16:27:14:862,1.6247,2.2421,7.1569,64.8563,-0.0223,0.1184,-0.0231,182.8543
16:27:14:880,1.1749,2.3091,7.2239,63.9507,-0.0479,0.166,-0.0928,182.9147
16:27:14:900,1.0193,2.2588,7.736,64.1799,-0.054,0.2027,-0.0854,182.9654
16:27:14:925,1.194,2.2253,7.8078,64.0581,-0.0406,0.0011,-0.0524,183.0297
16:27:14:942,1.4333,2.1679,7.8891,63.9408,-0.004,-0.1724,-0.0415,183.1184
16:27:14:961,1.1677,2.278,8.0901,63.3056,0.0645,-0.2115,-0.105,183.284
16:27:14:981,0.7753,2.2684,8.473,63.0754,0.2709,-0.297,-0.2211,183.5439
16:27:15:008,0.7035,2.2636,8.0853,63.7978,0.4029,-0.2811,-0.2259,184.1573
16:27:15:023,0.6843,2.0674,8.3294,63.7927,0.6057,0.0512,-0.2748,184.4448
16:27:15:039,-0.268,2.522,7.9705,64.5864,0.7914,0.2906,-0.4226,184.811
16:27:15:058,-0.2393,2.1488,8.3366,63.514,0.6741,-0.0368,-0.4617,185.304
16:27:15:079,-0.3183,2.2301,9.8441,64.373,0.3662,-0.4082,-0.4202,185.8562
16:27:15:099,-0.1053,2.2516,11.4592,64.5761,0.1463,-0.5181,-0.3261,186.3381
16:27:15:120,-0.4259,2.814,11.3013,64.7902,0.2025,-0.3727,-0.2418,186.6771
16:27:15:141,-0.603,3.003,10.3753,63.2369,0.299,-0.1601,-0.171,186.8849
16:27:15:159,0.4283,2.8307,10.0546,63.995,0.1231,-0.2408,-0.0708,187.0448
16:27:15:179,1.8497,1.7348,11.8301,65.1336,-0.4071,-0.5865,-0.0402,187.2725
16:27:15:226,2.4024,0.402,14.2947,62.8597,-0.8787,-0.7942,-0.1783,187.6996
16:27:15:227,1.9908,-0.2608,15.7256,65.4169,-0.7199,-0.5975,-0.4165,188.2987
16:27:15:250,1.4118,0.1412,14.9791,62.009,-0.0272,-0.3288,-0.4715,188.8812
16:27:15:280,1.6774,0.7059,11.7751,63.6332,0.5886,-0.2738,-0.3261,189.3021
16:27:15:280,2.2038,1.3783,9.6239,64.1337,0.7144,-0.06,-0.1429,189.4818
16:27:15:304,2.4742,1.8233,9.1813,64.5078,0.4114,0.1905,-0.0549,189.5036
16:27:15:323,2.5531,1.8592,9.5952,64.4302,0.0632,0.298,-0.0732,189.5114
16:27:15:339,2.2708,1.8808,9.6287,65.1942,-0.0174,0.3456,-0.1832,189.6245
16:27:15:360,1.5051,2.0028,8.7745,64.9369,0.1622,0.3713,-0.3444,189.9044
16:27:15:379,0.5982,2.2134,7.4202,64.4442,0.3919,0.4214,-0.4348,190.25
16:27:15:399,0.1196,2.5723,6.2453,65.2998,0.5275,0.4751,-0.4116,190.553
16:27:15:420,0.1196,2.7757,5.7356,66.6281,0.4872,0.4531,-0.3102,190.7598
16:27:15:439,0.39,2.9934,6.384,64.4318,0.2111,0.2821,-0.1514,190.875
16:27:15:459,0.4427,3.1681,6.8267,65.7548,0.1891,0.254,-0.1221,191.008
16:27:15:479,0.4379,3.3308,6.7717,64.7753,0.2294,0.2625,-0.0989,191.034
16:27:15:498,0.2369,3.5892,6.8339,64.8565,0.2587,0.3346,-0.0793,191.0247
16:27:15:521,0.1316,3.6778,7.1617,64.9668,0.2416,0.4067,-0.0488,190.9449
16:27:15:547,0.0335,3.728,7.547,64.0101,0.2282,0.4238,-0.0097,190.812
16:27:15:559,0.0263,3.6275,8.0375,65.8463,0.2318,0.3982,0.0233,190.6658
16:27:15:579,-0.1364,3.6993,8.6692,65.9583,0.2465,0.2992,0.0416,190.5359
16:27:15:598,-0.1914,3.9865,9.1932,64.4851,0.2893,0.1697,0.0612,190.4307
16:27:15:631,0.1507,3.929,9.2841,64.4808,0.3491,0.0536,0.0746,190.3618
16:27:15:645,0.5456,3.9553,9.0305,64.229,0.3271,-0.0661,0.0269,190.4008
16:27:15:662,0.1771,4.3454,9.277,63.0093,0.0877,-0.1345,-0.0744,190.5663
16:27:15:679,-0.0814,3.5438,10.5212,63.6185,-0.3008,0.0561,-0.1673,190.7469
16:27:15:699,-1.407,2.6728,11.9569,63.3208,-0.6124,0.2577,-0.2235,190.8846
16:27:15:735,-3.3212,2.5388,12.1699,62.812,-0.5476,0.4519,-0.1685,190.8755
16:27:15:741,-4.2377,3.1035,9.8297,63.4486,-0.0785,0.7195,0.11,190.4626
16:27:15:760,-3.8931,3.6921,7.7575,63.7139,0.2526,0.9491,0.4594,189.6201
16:27:15:780,-2.6943,3.5988,8.0064,61.4647,-0.0712,0.6975,0.6476,188.6938
16:27:15:800,-1.2275,2.4861,10.2413,63.0557,-0.781,-0.0331,0.6329,188.0583
16:27:15:830,-0.2608,1.5793,12.2369,62.5956,-1.1841,-0.5022,0.5083,187.7304
16:27:15:846,0.1555,1.3902,12.0742,62.0755,-1.0363,-0.3129,0.4436,187.4102
16:27:15:859,0.4475,1.3495,11.0309,63.8775,-0.6869,0.2479,0.5034,186.8605
16:27:15:881,0.7394,1.4333,10.9591,63.2052,-0.5073,0.5826,0.5682,186.1483
16:27:15:913,1.5888,1.5482,10.5524,64.3759,-0.2092,0.0451,0.391,185.5268
16:27:15:933,1.3974,1.6917,9.7819,63.0012,-0.0125,-0.2371,0.1821,185.1291
16:27:15:941,1.1892,1.8257,8.7649,62.4036,0.1781,-0.231,0.0709,185.1212
16:27:15:963,0.9284,2.0435,7.8078,62.7992,0.3528,-0.0587,0.0306,185.1754
16:27:15:978,0.6987,2.1942,7.2144,61.89,0.4627,0.0463,-0.0011,185.2169
16:27:15:998,0.6078,2.4263,6.7765,62.6429,0.4982,-0.0123,-0.0366,185.3216
16:27:16:019,0.615,2.613,6.5228,63.4231,0.4701,-0.1785,-0.1001,185.5432
16:27:16:039,0.6197,2.7781,6.8052,61.4932,0.4017,-0.352,-0.1832,185.9066
16:27:16:069,0.7968,2.6632,7.279,60.5013,0.3467,-0.5083,-0.2528,186.4049
16:27:16:079,0.6628,2.6991,7.4058,62.8972,0.3638,-0.6134,-0.3224,187.0023
16:27:16:100,0.2752,2.7972,6.9942,60.6105,0.4175,-0.5902,-0.3725,187.6408
16:27:16:133,-0.1196,2.9886,6.6592,60.8634,0.4261,-0.4314,-0.3738,188.2289
16:27:16:139,-0.4953,3.1729,6.999,59.6939,0.2722,-0.2897,-0.3481,188.732
16:27:16:170,-0.4762,3.3547,8.2529,60.9059,-0.0174,-0.2591,-0.2711,189.147
16:27:16:180,0.0814,3.192,9.8321,60.2441,-0.3448,-0.3825,-0.171,189.5122
16:27:16:202,0.524,3.1154,11.275,60.4178,-0.5244,-0.4094,-0.1111,189.8217
16:27:16:223,0.4618,3.3141,11.9761,60.3619,-0.4413,-0.1333,-0.0903,190.0103
16:27:16:240,0.8495,3.0987,11.5502,60.2013,-0.2385,0.2784,-0.1086,190.0952
16:27:16:259,1.4524,2.7182,12.3781,59.4052,-0.2898,0.4336,-0.2235,190.2606
16:27:16:280,1.7611,1.6176,14.0483,58.0349,-0.6136,0.0487,-0.4605,190.7948
16:27:16:299,0.8638,0.4953,14.7111,57.1353,-0.8042,-0.5035,-0.7867,191.8347
16:27:16:326,-0.6556,0.3709,14.3522,59.1283,-0.6172,-0.6085,-0.9321,193.0081
16:27:16:346,-1.0409,0.6221,12.8495,57.8357,-0.1689,-0.2945,-0.6987,193.8399
16:27:16:366,0.6389,1.6367,10.459,58.5743,0.1561,-0.1443,-0.0439,194.3236
16:27:16:378,1.1462,1.8831,10.0881,57.8966,-0.0162,-0.2188,-0.0158,194.4454
16:27:16:400,1.2634,1.9549,9.9159,59.7577,-0.1603,-0.093,-0.1209,194.6574
16:27:16:419,0.9117,2.0028,9.3823,59.1245,-0.1554,0.1941,-0.2455,194.9188
16:27:16:440,0.256,2.0722,8.3486,58.0595,-0.0076,0.5362,-0.3041,195.148
16:27:16:462,-0.28,2.2636,7.3388,56.9698,0.2099,0.9003,-0.2675,195.2377
16:27:16:480,-0.5886,2.6465,6.25,58.8948,0.4334,1.1654,-0.1563,195.1345
16:27:16:499,-0.8112,3.1848,5.5155,57.774,0.5568,1.2204,-0.0378,194.851
16:27:16:521,-0.6963,3.7328,5.2164,57.8468,0.5189,1.0383,0.0685,194.5057
16:27:16:539,-0.3278,4.0941,5.4126,59.2486,0.3626,0.7244,0.1369,194.1915
16:27:16:558,-0.1244,4.2473,6.0227,58.5026,0.1744,0.3762,0.1357,193.984
16:27:16:579,0.0359,4.1779,6.8052,56.7592,0.0412,0.0402,0.0624,193.9623
16:27:16:599,0.2393,4.0989,7.6594,58.5026,0.0107,-0.2017,-0.0561,194.1479
16:27:16:622,0.3996,4.0463,8.4108,57.891,0.062,-0.3336,-0.1844,194.5153
16:27:16:640,0.3948,4.0606,9.0186,56.7038,0.1426,-0.3556,-0.3053,195.0125
16:27:16:661,0.0766,3.941,9.5306,57.8612,0.2001,-0.2811,-0.4153,195.6019
16:27:16:680,-0.4235,3.9242,9.7316,57.0126,0.2367,-0.2225,-0.4764,196.2207
16:27:16:698,-0.6461,4.1228,9.9159,57.2307,0.2856,-0.1174,-0.4471,196.787
16:27:16:723,-0.213,4.1659,10.3609,56.3144,0.3442,-0.0025,-0.3664,197.2147
16:27:16:742,0.6939,3.9769,10.8754,57.8511,0.2954,-0.1418,-0.3493,197.677
16:27:16:869,1.0433,4.1492,11.7392,58.3779,0.128,-0.4424,-0.4446,198.3509
16:27:16:872,1.1174,3.7687,11.8421,56.2307,-0.0113,-0.5035,-0.6132,199.2267
16:27:16:873,-1.2802,3.1466,11.5214,57.4329,-0.0821,0.2418,-0.9003,201.0154
16:27:16:875,-2.3402,3.1777,11.2056,56.2486,-0.0101,0.5216,-0.7989,201.6658
16:27:16:876,-2.546,3.4839,11.4114,56.5808,0.0596,0.4776,-0.5937,202.1204
16:27:16:877,-1.5458,3.192,11.9043,56.1007,0.0156,-0.0074,-0.4263,202.5875
16:27:16:879,-0.1914,2.5196,12.402,56.9553,-0.1383,-0.6549,-0.4666,203.3356
16:27:16:899,0.4522,1.7827,12.9978,55.7661,-0.335,-1.0667,-0.7012,204.4754
16:27:16:920,0.2321,0.9906,13.1198,57.3979,-0.4315,-1.0618,-0.9614,205.8649
16:27:16:940,-0.8375,0.725,12.2058,55.1533,-0.252,-0.6232,-1.0762,207.1921
16:27:16:960,-1.5194,0.9188,10.5141,56.5565,0.1463,0.0378,-0.8796,208.0847
16:27:16:979,-1.3783,1.1533,8.9252,56.8706,0.4896,0.5741,-0.4776,208.3978
16:27:17:000,-1.0672,1.5793,7.8844,57.9734,0.6216,0.7134,-0.1514,208.329
16:27:17:023,-0.4762,1.8544,7.3412,56.5808,0.6179,0.5106,0.0673,208.1055
16:27:17:038,0.0909,2.0985,6.8913,55.5184,0.6203,0.221,0.1858,207.8537
16:27:17:058,0.3805,2.333,6.2381,55.9522,0.6814,0.0659,0.1821,207.6706
16:27:17:079,0.4235,2.4814,5.4796,55.9522,0.7352,0.039,0.099,207.5862
16:27:17:099,0.3829,2.5531,4.855,55.9522,0.6826,0.0085,0.005,207.6134
16:27:17:124,0.2776,2.5771,5.1494,55.9522,0.4811,-0.1027,-0.0915,207.7843
16:27:17:139,0.3206,2.4598,5.7404,55.9522,0.2844,-0.3422,-0.2027,208.1692
16:27:17:162,0.4355,2.4048,6.1567,55.9522,0.2233,-0.6146,-0.3359,208.8062
16:27:17:181,0.5791,2.4526,6.207,55.9522,0.2551,-0.8003,-0.4446,209.6376
16:27:17:202,0.6604,2.6297,5.9892,55.1054,0.3039,-0.8016,-0.5155,210.5475
16:27:17:222,0.3541,3.0844,5.7811,56.4738,0.2941,-0.6537,-0.5912,211.4496
16:27:17:261,0.1029,3.2925,6.0682,56.1899,0.1598,-0.5169,-0.6828,212.3809
16:27:17:265,-0.2967,3.192,9.7651,55.2315,-0.4267,-0.8773,-0.9516,213.4563
16:27:17:278,-0.548,3.6203,10.6265,55.2315,-0.5452,-0.9616,-1.0213,214.7839
16:27:17:298,-0.055,4.3525,11.3587,55.2315,-0.5745,-0.5523,-0.9272,217.3694
16:27:17:323,1.0696,4.5177,12.6868,54.944,-0.8311,-0.0856,-0.7867,218.218
16:27:17:342,1.1318,3.9505,15.8692,55.1011,-1.382,-0.0881,-0.9162,219.1911
16:27:17:360,0.3541,2.6871,18.9607,56.1382,-1.646,-0.4925,-1.284,220.6356
16:27:17:378,-0.5886,1.4189,19.5757,55.8769,-1.2623,-1.0129,-1.5857,222.509
16:27:17:398,-1.5625,0.9452,17.7428,54.2188,-0.4267,-1.2915,-1.6211,224.4843
16:27:17:420,-1.8209,1.1486,14.522,54.979,0.4139,-1.1094,-1.2925,226.054
16:27:17:438,-1.1844,1.8401,10.7509,52.8697,0.8769,-0.6354,-0.7122,226.9088
16:27:17:458,-0.3087,2.5005,8.0566,53.7043,0.8696,0.0573,-0.177,227.0264
16:27:17:479,0.0574,2.8953,7.523,54.2121,0.5336,0.6963,0.1051,226.6646
16:27:17:499,0.2153,2.6943,7.791,53.7747,0.1341,0.8722,0.1381,226.1898
16:27:17:523,-0.0957,2.5029,7.9777,54.8176,-0.0015,0.6877,-0.0219,225.9485
16:27:17:545,-0.7274,2.4503,7.5206,52.284,0.1549,0.3737,-0.2394,226.0068
16:27:17:562,-1.2538,2.4694,6.2836,53.7325,0.4493,0.0964,-0.3383,226.2749
16:27:17:578,-1.4596,2.5795,5.1374,54.8557,0.6924,-0.0099,-0.2553,226.4752
16:27:17:598,-1.3591,2.8546,4.2209,54.944,0.7682,0.0011,-0.0903,226.5235
16:27:17:623,-1.2132,3.1609,3.7256,52.7484,0.679,0.0988,0.0587,226.381
16:27:17:640,-1.1653,3.5797,3.8907,53.2601,0.4786,0.2784,0.1687,226.0486
16:27:17:659,-0.8734,3.9529,4.5535,52.9296,0.2331,0.4409,0.2481,225.5899
16:27:17:679,-0.5575,4.1085,5.5107,54.0017,-0.004,0.5839,0.2518,225.0574
16:27:17:699,-0.7849,4.3502,7.2,52.6568,-0.1994,0.761,0.1613,224.5443
16:27:17:724,-1.6056,4.4028,9.8895,52.1833,-0.1591,0.8514,0.0294,224.0556
16:27:17:741,-1.9286,4.331,10.6792,53.746,0.0437,0.5643,0.0355,223.3372
16:27:17:762,-2.0004,4.3621,10.7845,50.3514,0.3174,0.1489,0.1003,223.0917
16:27:17:777,-1.6941,4.5081,10.3705,51.058,0.5434,-0.1675,0.1992,222.8958
16:27:17:799,-1.194,4.6947,10.3203,52.5027,0.5947,-0.2542,0.2798,222.6646
16:27:17:819,-1.127,5.056,10.4255,53.5811,0.4847,-0.2005,0.2945,222.3779
16:27:17:839,-0.9595,5.0895,10.3657,53.1916,0.3516,0.0927,0.2469,222.02
16:27:17:858,-0.9858,4.7617,10.7438,52.1645,0.1842,0.3591,0.1406,221.6408
16:27:17:878,-2.053,4.4937,10.9567,51.1245,0.0266,0.3701,-0.0353,221.3945
16:27:17:898,-3.5294,4.5129,10.2173,50.6101,0.073,0.4922,-0.1648,221.2044
16:27:17:919,-3.9625,4.7186,8.9922,52.1968,0.1817,0.662,-0.1062,220.8767
16:27:17:941,-3.5486,4.4291,8.8678,51.3572,0.0046,0.6132,0.0013,220.4631
16:27:17:959,-2.9839,3.6108,10.3657,51.5181,-0.4401,0.2858,-0.0341,220.2213
16:27:17:979,-2.7924,2.6249,12.2584,54.5943,-0.8335,-0.1382,-0.2149,220.3743
16:27:18:000,-3.0102,1.876,12.7442,53.8415,-0.8934,-0.3703,-0.3799,220.7562
16:27:18:019,-3.4098,1.5075,11.6435,53.677,-0.6356,-0.1345,-0.32,220.9639
16:27:18:040,-3.4193,1.2371,10.0977,51.234,-0.3448,0.4837,0.0233,220.572
16:27:18:058,-3.2686,1.3543,9.2243,50.0565,-0.2116,1.1019,0.4875,219.4688
16:27:18:092,-2.4287,1.517,8.8534,49.5985,-0.1567,1.3768,0.9555,215.7873
16:27:18:106,-0.1579,2.0626,8.2385,50.123,0.1891,0.9382,1.5004,213.7565
16:27:18:120,0.5647,2.3426,7.133,52.1645,0.5336,0.7256,1.537,211.7896
16:27:18:140,0.9021,2.7613,5.6925,50.7278,0.8146,0.6364,1.4722,209.9336
16:27:18:159,0.8853,3.1896,4.6612,49.0528,0.8965,0.6046,1.3183,208.2528
16:27:18:180,0.8207,3.5007,4.1133,50.4876,0.7779,0.5008,1.1338,206.9175
16:27:18:202,0.8973,3.685,4.1468,50.0249,0.5483,0.2943,0.9249,205.8042
16:27:18:224,0.8877,3.8931,4.6588,50.8604,0.2978,-0.0197,0.6952,205.089
16:27:18:244,0.5767,4.0463,5.4963,50.527,0.1023,-0.352,0.4411,204.7929
16:27:18:261,0.2919,4.2879,5.8911,50.1947,0.0376,-0.6635,0.2114,204.8735
16:27:18:280,0.2297,4.6875,5.9414,48.5454,0.0168,-0.8981,0.0355,205.251
16:27:18:298,0.4666,4.9627,6.2405,49.1232,-0.1163,-0.9958,-0.1319,205.8468
16:27:18:321,0.7944,4.745,7.5302,48.2229,-0.467,-1.03,-0.3774,206.6958
16:27:18:340,0.5288,4.0654,9.6455,49.5372,-0.908,-0.9311,-0.7207,207.808
16:27:18:358,-0.9428,3.9984,11.5621,48.4204,-1.1316,-0.5633,-1.0384,208.9794
16:27:18:379,-2.1942,4.3813,12.8925,50.8441,-1.0424,-0.1308,-1.119,210.0164
16:27:18:398,-1.8592,4.343,13.5362,48.8904,-0.8604,-0.1589,-1.0042,210.9462
16:27:18:419,-1.1127,3.6706,14.8403,48.4962,-0.8152,-0.6366,-0.9858,212.0797
16:27:18:439,-1.1557,2.9456,16.465,48.6054,-0.8188,-1.1681,-1.1215,213.5161
16:27:18:459,-1.7683,2.2421,17.2905,47.8471,-0.6588,-1.4723,-1.2571,215.163
16:27:18:479,-2.5723,2.0339,16.3765,49.4274,-0.2299,-1.3257,-1.1996,216.6557
16:27:18:498,-2.546,2.0985,14.0028,48.9673,0.2905,-0.8101,-0.8185,217.5485
16:27:18:523,-1.6893,2.4359,11.6889,48.6722,0.5592,-0.2909,-0.2834,217.7431
16:27:18:537,-0.6843,2.8594,10.5452,49.1232,0.5128,0.028,0.088,217.476
16:27:18:558,-0.1747,3.0508,9.7627,50.504,0.4273,0.2039,0.2029,217.0342
16:27:18:578,-0.1627,3.0939,8.5256,48.7163,0.4676,0.3188,0.1418,216.6007
16:27:18:599,-0.5575,3.1657,7.0086,49.7971,0.5641,0.3823,0.0269,216.2644
16:27:18:623,-0.9882,3.2088,5.7834,47.4901,0.5922,0.3603,-0.039,215.9822
16:27:18:639,-1.2299,3.3835,4.6349,47.1758,0.5348,0.3102,0.0392,215.7162
16:27:18:660,-1.1533,3.5055,4.1635,48.1477,0.5446,0.3029,0.1357,215.1247
16:27:18:679,-1.072,3.7807,3.7041,49.516,0.5299,0.2613,0.209,214.6593
16:27:18:698,-1.005,4.1635,3.4505,48.9125,0.4493,0.2283,0.2481,214.155
16:27:18:721,-1.0624,4.4985,3.649,47.6911,0.2917,0.2063,0.2383,213.6777
16:27:18:738,-1.0768,4.6564,4.4124,48.0141,0.0706,0.1086,0.1736,213.2972
16:27:18:760,-1.3113,4.6301,5.6518,48.0141,-0.142,-0.0759,0.0795,213.1075
16:27:18:778,-1.7037,4.5799,7.0277,48.471,-0.2666,-0.2444,0.0025,213.0597
16:27:18:798,-1.8808,4.5033,8.0495,48.2403,-0.2495,-0.2933,-0.0024,213.003
16:27:18:818,-1.8808,4.4483,8.4754,47.2809,-0.1408,-0.2652,0.0428,212.8942
16:27:18:842,-2.0459,4.5727,8.9348,48.5778,-0.0882,-0.1577,0.0746,212.7021
16:27:18:858,-1.718,4.6205,9.8895,46.3253,-0.1518,-0.0722,0.099,212.4437
16:27:18:955,-1.0744,4.544,11.5669,48.1919,-0.3472,-0.2151,0.0929,212.2599
16:27:18:956,-1.0433,4.4291,13.5912,48.2438,-0.5623,-0.4912,-0.0329,212.299
16:27:18:956,-1.2108,3.9601,13.9693,47.5981,-0.4939,-0.435,-0.1429,212.4236
16:27:18:957,-1.4022,3.8309,11.9402,48.4571,-0.1004,0.2809,-0.0415,212.1235
16:27:18:957,-2.1535,4.3406,10.3777,47.3149,0.1341,1.2082,0.1613,211.2103
16:27:18:979,-2.9121,4.3621,9.5402,46.4217,0.0473,1.6125,0.3067,209.9921
16:27:18:999,-3.6251,4.7737,8.4132,46.9425,0.0193,1.7347,0.391,208.6072
16:27:19:021,-3.7711,5.1948,7.9801,46.4217,-0.0027,1.6773,0.5352,207.0842
16:27:19:040,-3.0532,4.9507,8.8654,47.3476,-0.2556,1.1068,0.5938,205.781
16:27:19:058,-2.5747,4.0678,11.0548,45.4498,-0.6283,0.1135,0.3971,205.1089
16:27:19:078,-2.6249,2.8259,13.8449,45.1447,-0.8897,-0.8272,0.0978,205.166
16:27:19:098,-2.7924,1.5051,13.2036,45.1108,-0.1909,-0.727,0.1479,205.4796
16:27:19:125,-2.6728,1.9406,10.6217,46.3343,0.2917,0.1868,0.5413,205.5571
16:27:19:141,-1.7659,2.321,9.1932,46.0439,0.3662,0.9626,0.9738,203.097
16:27:19:159,-0.5312,2.3282,8.5902,46.4226,0.2269,1.2253,1.2572,201.128
16:27:19:179,0.055,2.7781,8.3342,47.0215,0.1439,1.1654,1.2926,199.1585
16:27:19:198,0.3278,2.8499,7.7647,45.545,0.2074,1.0115,1.1998,197.35
16:27:19:219,0.335,2.8786,6.81,44.3716,0.3797,0.86,1.0703,195.7432
16:27:19:239,0.2082,3.0102,5.7141,43.7777,0.5409,0.6999,0.9371,194.3373
16:27:19:262,0.1029,3.2375,4.8622,45.2064,0.5935,0.5472,0.8296,193.1067
16:27:19:278,-0.0646,3.5988,4.4195,43.7241,0.5141,0.4043,0.7282,192.0186
16:27:19:298,-0.1914,3.8548,4.5129,43.944,0.3577,0.2845,0.6024,191.1494
16:27:19:319,-0.4666,4.0247,5.2116,43.7883,0.1842,0.1074,0.4533,190.4966
16:27:19:340,-0.6987,4.0247,6.2166,43.7513,0.0498,-0.1821,0.3116,190.1224
16:27:19:358,-1.0409,4.1922,6.9655,42.958,0.0473,-0.4534,0.2053,189.9943
16:27:19:377,-1.4094,4.4507,7.1306,41.2983,0.1744,-0.5572,0.1406,189.9711
16:27:19:398,-1.6558,4.7593,6.7334,41.9305,0.299,-0.5303,0.1039,189.9503
16:27:19:419,-1.5123,5.1446,6.8435,42.5453,0.2257,-0.5083,0.0795,189.9435
16:27:19:438,-1.4788,5.2331,8.394,41.6766,-0.109,-0.501,0.0184,189.9984
16:27:19:459,-2.1679,5.5657,10.1049,41.9705,-0.4315,-0.3629,-0.1038,190.0858
16:27:19:478,-2.1488,5.6566,11.1625,39.6841,-0.5024,0.0011,-0.1429,190.0159
16:27:19:498,-0.9308,5.3623,12.122,40.9545,-0.5635,0.1501,-0.1331,189.9349
16:27:19:519,-0.2823,4.6349,14.1799,40.4937,-0.8555,-0.2884,-0.3432,190.2769
16:27:19:538,-0.8542,2.9671,16.8263,39.975,-1.1499,-0.8675,-0.7207,191.2315
16:27:19:560,-3.2973,1.8808,14.1081,40.7429,-0.1188,-0.2872,-0.7635,193.2188
16:27:19:578,-3.3045,2.7039,10.5978,40.2084,0.5813,0.4996,-0.2052,192.9507
16:27:19:597,-2.053,3.0915,8.473,41.4578,0.6216,0.6401,0.3385,192.1159
16:27:19:619,-0.9428,3.4576,7.9729,40.7187,0.2758,0.4837,0.5572,191.143
16:27:19:641,-0.6341,3.5366,7.7264,37.73,0.0022,0.4153,0.5022,190.2689
16:27:19:658,-1.0002,3.3571,6.92,38.8589,-0.0467,0.5374,0.3446,189.5046
16:27:19:678,-1.5482,3.3332,5.9079,38.3133,0.0131,0.662,0.2261,188.7763
16:27:19:698,-2.0219,3.4193,5.1087,38.9413,0.0351,0.6755,0.209,188.0352
16:27:19:721,-2.2086,3.5198,4.8335,38.7303,-0.0211,0.5729,0.2542,187.2727
16:27:19:739,-2.0818,3.6299,5.2331,39.2662,-0.1139,0.3615,0.3263,186.5469
16:27:19:760,-1.5338,3.5629,5.8385,36.8398,-0.1884,0.0133,0.3935,185.9255
16:27:19:777,-0.9882,3.4122,6.6209,36.5049,-0.219,-0.2823,0.3983,185.4757
16:27:19:798,-0.8662,3.3284,7.3029,38.347,-0.2092,-0.3361,0.3409,185.1112
16:27:19:822,-1.0074,3.3284,7.7527,35.668,-0.1371,-0.1724,0.2872,184.7094
16:27:19:839,-1.072,3.2877,7.8317,36.2204,-0.0235,0.0683,0.2798,184.2082
16:27:19:858,-0.8399,3.4098,7.9753,37.3542,0.0657,0.2674,0.325,183.5862
16:27:19:878,-0.6317,3.5653,8.3414,35.206,0.0755,0.3163,0.3629,182.9064
16:27:19:898,-0.8136,3.8931,8.6333,34.5057,0.0803,0.3737,0.3483,182.2043
16:27:19:922,-0.9667,4.2496,8.6022,35.9867,0.1512,0.5338,0.3385,181.4552
16:27:19:936,-1.1127,4.6971,8.8176,33.2349,0.1915,0.6376,0.3348,180.6292
16:27:19:958,-1.1127,4.9603,9.3799,33.2161,0.1732,0.5313,0.3128,179.8845
16:27:19:978,-0.8566,5.2259,10.4112,35.7492,0.1366,0.1782,0.2578,179.3842
16:27:19:998,-0.7968,5.3432,11.6291,36.4704,0.0351,-0.4497,0.1369,179.2907
16:27:20:023,-0.9404,4.5177,11.9139,32.1486,-0.0626,-0.9054,-0.2675,179.6326
16:27:20:043,-1.5434,3.6467,11.7368,33.8562,-0.1078,-0.5609,-0.3676,180.8171
16:27:20:060,-2.7733,3.5366,11.2343,33.2349,-0.1041,-0.1846,-0.3481,181.021
16:27:20:077,-3.4696,3.9482,9.8704,33.5478,0.1035,0.2674,-0.138,180.7837
16:27:20:098,-2.8163,4.5248,8.5448,32.1486,0.2966,0.4886,0.1662,180.1551
16:27:20:119,-1.5362,4.5966,8.8056,31.3387,0.1524,0.1941,0.2554,179.6175
16:27:20:141,-0.737,3.9553,10.5117,31.5401,-0.2471,-0.4607,0.0379,179.6666
16:27:20:157,-0.8925,3.0604,12.146,32.2732,-0.5012,-0.9103,-0.3383,180.297
16:27:20:191,-1.3113,2.5866,12.1196,31.4056,-0.4218,-0.8859,-0.5424,181.0587
16:27:20:196,-1.3352,1.9932,10.7725,31.086,-0.1628,-0.4399,-0.4727,181.5238
16:27:20:216,-1.5027,2.455,9.4588,31.1884,0.0718,0.2455,-0.2381,181.4476
16:27:20:236,-0.6915,2.5962,8.8056,29.9079,0.1732,0.717,0.0795,180.851
16:27:20:257,0.0311,3.0197,8.6548,30.7661,0.2099,0.7378,0.2737,180.0967
16:27:20:277,0.6867,3.1394,8.2505,29.0078,0.3284,0.4971,0.3275,179.3962
16:27:20:297,1.1007,3.2351,7.2287,28.7417,0.5226,0.2063,0.2737,178.916
16:27:20:319,1.0528,3.3308,6.0778,29.8564,0.6716,0.0207,0.1271,178.657
16:27:20:338,0.682,3.4313,5.2427,28.3303,0.6753,-0.06,-0.0476,178.5864
16:27:20:356,0.335,3.5653,4.7378,28.5216,0.58,-0.093,-0.1685,178.6434
16:27:20:377,0.0742,3.7735,4.5679,29.3479,0.4554,-0.132,-0.243,178.7975
16:27:20:397,0.0502,3.9577,4.8526,29.6789,0.3112,-0.2689,-0.3017,179.062
16:27:20:420,0.2417,3.9984,5.3504,28.3303,0.172,-0.5413,-0.375,179.5478
16:27:20:440,0.1603,4.008,6.0754,26.8949,0.0816,-0.8736,-0.4947,181.3527
16:27:20:459,-0.2847,4.3908,5.7595,28.9821,0.1097,-1.1326,-0.7354,182.6646
16:27:20:478,-0.4355,4.6852,5.7356,28.0964,-0.0272,-1.0606,-0.8368,183.8228
16:27:20:499,-0.4618,4.6349,6.6855,26.9347,-0.3802,-1.019,-0.9724,185.0904
16:27:20:520,-0.8686,4.3789,8.4658,27.8626,-0.7981,-0.9152,-1.1532,186.4891
16:27:20:538,-2.2062,4.4794,10.538,28.7779,-1.0827,-0.7099,-1.3291,187.9024
16:27:20:557,-2.6058,4.1348,12.3589,26.6732,-1.1548,-0.5682,-1.3438,189.2485
16:27:20:577,-1.4955,3.4505,14.7254,26.2309,-1.2257,-0.7258,-1.1801,190.538
16:27:20:596,-0.4164,2.8187,17.5226,27.4174,-1.3649,-1.1424,-1.1202,191.9389
16:27:20:625,-0.5264,1.785,18.5874,26.6946,-1.2086,-1.2499,-1.2546,193.4672
16:27:20:639,-2.0172,1.6822,16.611,26.8383,-0.5708,-0.6916,-1.3157,194.7963
16:27:20:659,-3.1585,2.5699,13.395,25.2532,0.183,0.1538,-1.0775,195.5739
16:27:20:677,-2.6154,2.9145,10.5452,26.7876,0.5202,0.5154,-0.6389,195.8126
16:27:20:698,-1.6606,3.1681,9.6909,24.9044,0.4151,0.3444,-0.3554,195.8517
16:27:20:720,-0.615,3.0724,10.0044,24.8756,0.0938,-0.1589,-0.3029,196.063
16:27:20:739,-0.5743,2.7733,9.9948,25.9624,-0.1115,-0.4949,-0.4299,196.5112
16:27:20:757,-1.2706,2.7015,8.796,24.8984,-0.0418,-0.2469,-0.535,196.9221
16:27:20:777,-1.8927,2.7996,7.1521,24.6977,0.1084,0.265,-0.469,197.0673
16:27:20:796,-1.9836,3.0796,5.9581,24.646,0.1708,0.6083,-0.2907,196.9132
16:27:20:817,-1.7922,3.3093,5.3312,24.6977,0.1255,0.6156,-0.1282,196.5953
16:27:20:840,-1.4692,3.618,5.482,25.2861,0.0144,0.4238,-0.0353,196.2548
16:27:20:860,-1.1318,3.5677,6.1711,25.2773,-0.1066,0.1086,0.0099,195.9888
16:27:20:880,-0.9667,3.606,6.5874,24.336,-0.1261,-0.1467,0.0013,195.8163
16:27:20:897,-0.8064,3.6562,6.5683,24.3946,-0.0528,-0.1553,0.0135,195.6571
16:27:20:919,-0.9954,3.8812,6.5731,23.221,-0.0113,0.1282,0.0257,195.3647
16:27:20:938,-1.4883,3.929,7.3651,24.5756,-0.1188,0.1343,0.0135,195.1021
16:27:21:045,-1.7324,3.9505,8.0064,23.4942,-0.2092,-0.0172,0.0563,194.8239
16:27:21:046,-1.6391,4.0582,8.6812,25.2372,-0.2312,-0.2408,0.1613,194.516
16:27:21:047,-1.3974,4.0295,9.3966,24.064,-0.2752,-0.4888,0.2835,194.1471
16:27:21:048,-1.2323,3.8046,9.6598,24.5087,-0.1738,-0.5413,0.3507,193.746
16:27:21:049,-1.0026,3.9458,10.1839,23.2582,0.0156,-0.3837,0.3287,193.305
16:27:21:066,-0.4235,4.0487,10.6217,21.3708,0.1451,-0.3397,0.2603,192.9527
16:27:21:080,-0.9882,3.685,11.9593,22.3426,0.0022,-0.5377,0.11,192.8197
16:27:21:096,-1.6917,3.649,12.7777,21.8322,-0.2935,-0.7332,0.0196,192.8288
16:27:21:119,-1.273,3.3811,12.7322,21.0605,-0.274,-0.3312,0.1137,192.6076
16:27:21:137,-1.6343,3.0939,12.5432,20.9606,0.0473,0.4079,0.297,191.9312
16:27:21:157,-2.7565,3.3404,12.0694,20.1714,0.4481,1.0139,0.4252,190.875
16:27:21:177,-2.7182,3.6108,9.9685,20.1371,0.8708,1.3731,0.6684,189.4598
16:27:21:197,-2.6895,3.74,8.2505,19.2961,1.0272,1.5722,0.8443,187.7643
16:27:21:220,-2.4909,4.3214,7.9896,19.8999,0.4591,1.1226,0.5999,186.4959
16:27:21:237,-1.7707,3.1178,10.1743,20.5953,-0.2837,0.5704,0.3629,185.7321
16:27:21:256,-2.12,2.2086,11.8229,20.0829,-0.7357,0.0268,0.1943,185.3146
16:27:21:277,-1.0409,1.0552,11.5286,21.2792,-0.6087,0.072,0.1674,184.9809
16:27:21:298,-0.615,1.6463,9.4086,20.9936,-0.2006,0.4348,0.2078,184.451
16:27:21:319,-0.4379,2.1703,8.3151,20.6424,0.0498,1.009,0.1699,183.7612
16:27:21:339,-0.6413,2.2014,7.9466,21.8107,0.0095,1.2424,0.1149,183.0192
16:27:21:358,-0.5862,2.0219,7.5685,19.0802,-0.12,1.0322,0.1064,182.3499
16:27:21:377,-0.4283,2.1344,8.0279,19.9926,-0.2544,0.4727,0.1882,181.8181
16:27:21:397,-0.6604,2.3665,9.0066,20.7132,-0.1713,0.1489,0.2273,181.4866
16:27:21:419,-0.3183,2.5412,8.3222,20.3409,0.0901,-0.2554,0.2835,180.7093
16:27:21:438,0.4977,2.467,6.1161,20.1463,0.42,-0.5279,0.3434,180.4355
16:27:21:456,0.5599,2.6512,5.3288,18.8282,0.4921,-0.3837,0.2102,180.2418
16:27:21:477,-0.2991,3.0054,6.2979,21.4915,0.2746,-0.1773,-0.0243,180.2013
16:27:21:496,-0.6269,2.7541,6.8698,21.7527,0.0596,-0.2359,-0.1343,180.2864
16:27:21:520,-0.5288,2.948,7.1115,20.5582,0.029,-0.3165,-0.1135,180.3742
16:27:21:538,-0.0479,3.2877,7.1282,20.1463,0.0865,-0.352,-0.0524,180.4543
16:27:21:557,0.2584,3.4409,6.9751,19.1202,0.1683,-0.3788,-0.0915,180.5776
16:27:21:578,-0.0957,3.6156,6.6497,20.3738,0.1842,-0.4717,-0.2748,180.9089
16:27:21:596,-0.7226,3.7735,6.8985,19.7113,0.0034,-0.6171,-0.4593,181.4999
16:27:21:619,-1.6845,3.8692,7.5876,21.0563,-0.3228,-0.6525,-0.5778,182.1711
16:27:21:638,-2.5675,4.0869,9.5545,20.4414,-0.5855,-0.4412,-0.5766,182.7349
16:27:21:658,-1.864,3.673,10.7653,18.131,-0.6466,-0.3459,-0.4348,183.1286
16:27:21:676,-0.871,3.1178,11.9833,20.8935,-0.583,-0.5645,-0.4397,183.6569
16:27:21:696,-0.548,2.0219,13.3256,20.6009,-0.6466,-1.2243,-0.7452,184.7217
16:27:21:721,-0.859,1.395,14.7661,21.0668,-0.6673,-1.8596,-1.003,186.2083
16:27:21:738,-1.072,0.4953,14.7876,21.1558,-0.5513,-2.0673,-0.9834,187.6852
16:27:21:756,-1.5242,0.4498,14.1559,20.7327,-0.4511,-1.5138,-0.827,188.7664
16:27:21:778,-1.7061,1.072,13.0002,19.9879,-0.3472,-0.6061,-0.4422,189.1679
16:27:21:797,-0.9021,1.3304,11.7344,18.1948,-0.302,0.0512,0.0514,188.9037
16:27:21:825,-0.3733,1.9262,10.9854,19.2892,-0.3167,0.3248,0.2835,187.872
16:27:21:840,-0.0885,2.7709,10.0522,21.2567,-0.1396,-0.016,0.1064,187.7661
16:27:21:858,-0.2752,2.6393,9.4134,18.553,0.0498,-0.2909,-0.1135,187.8066
16:27:21:876,-0.993,2.5531,8.3127,19.25,0.2331,-0.4693,-0.2772,188.0535
16:27:21:895,-1.5458,2.6465,7.6427,22.5331,0.299,-0.5242,-0.2834,188.3363
16:27:21:919,-1.596,2.6417,7.3962,21.152,0.2783,-0.4473,-0.1282,188.3354
16:27:21:939,-1.2419,2.6991,7.4225,20.5224,0.2697,-0.2664,0.0783,188.1117
16:27:21:957,-0.8303,2.802,7.2718,19.7113,0.3076,-0.0795,0.2371,187.6995
16:27:21:978,-0.4379,2.9982,6.944,20.1643,0.3589,0.0732,0.3177,187.1805
16:27:21:996,-0.1484,3.1083,7.0732,21.6098,0.3589,0.1208,0.3312,186.6658
16:27:22:016,0.0646,3.125,7.3962,19.7638,0.2954,0.0231,0.2945,186.1808
16:27:22:037,0.1723,3.1968,7.7743,19.1008,0.2355,-0.1015,0.2481,185.8102
16:27:22:056,0.3278,3.2973,7.8604,21.1558,0.2208,-0.1724,0.2285,185.4997
16:27:22:077,0.481,3.3069,8.0279,20.2493,0.2294,-0.1479,0.2224,185.1577
16:27:22:097,0.5288,3.1466,8.1619,21.4023,0.2599,-0.06,0.2175,184.8191
16:27:22:118,0.481,3.1585,8.2409,21.5785,0.2978,-0.0331,0.2053,184.4724
16:27:22:138,0.3278,3.2614,8.4156,20.7401,0.2893,-0.0844,0.1955,184.1807
16:27:22:158,0.5384,3.2686,8.3988,19.9934,0.2135,-0.1296,0.2004,183.8619
16:27:22:177,0.5216,3.4839,9.1143,21.4023,0.0278,-0.049,0.2261,183.5223
16:27:22:200,0.9188,3.4026,10.3537,19.9934,-0.3155,0.0414,0.2481,182.9693
16:27:22:221,0.9188,2.3378,11.8564,20.9504,-0.682,0.05,0.1259,182.7056
16:27:22:238,-0.4522,1.675,13.8042,20.2641,-0.9789,-0.1675,-0.0989,182.7079
16:27:22:261,-2.0004,1.6822,14.5651,22.2973,-0.9361,-0.3654,-0.1025,182.2992
16:27:22:280,-2.1966,2.1033,11.1817,20.8275,0.0706,0.1514,0.4362,181.578
16:27:22:295,-1.1055,1.8353,10.0762,21.0572,0.0388,0.0329,0.5718,180.9043
16:27:22:316,-0.4857,1.2658,11.0142,20.7439,-0.4364,-0.1479,0.5975,180.1492
16:27:22:337,-0.6365,0.9763,12.3398,19.9454,-0.7895,-0.1162,0.5608,179.403
16:27:22:355,-0.6652,0.7872,12.2417,21.9114,-0.7297,0.0097,0.5779,178.6158
16:27:22:377,-0.5527,1.0457,11.0046,21.1575,-0.3998,0.1892,0.661,177.7111
16:27:22:397,-0.2441,1.1151,10.1145,20.1836,-0.142,0.2479,0.7466,176.7258
16:27:22:424,0.1268,1.1151,9.6383,22.4285,-0.0137,0.2296,0.8003,175.6904
16:27:22:436,0.414,1.4812,8.7601,20.8333,0.15,0.2833,0.8577,174.5836
16:27:22:456,0.5743,1.8138,7.9609,20.8276,0.31,0.3859,0.8956,173.4457
16:27:22:476,0.7155,2.1105,7.1067,21.6973,0.3858,0.4592,0.9164,172.2705
16:27:22:500,0.9691,2.3163,6.6568,21.2059,0.4151,0.5289,0.9115,171.0931
16:27:22:520,1.0792,2.4957,6.3745,20.8276,0.3907,0.524,0.8577,169.9886
16:27:22:542,1.0146,2.656,6.6066,22.9812,0.2978,0.3786,0.7502,169.0149
16:27:22:556,0.9308,2.4311,7.2072,21.6557,0.1976,0.2051,0.6354,168.2188
16:27:22:575,0.5599,2.5364,7.8461,20.4356,0.1658,0.1074,0.5511,167.5326
16:27:22:596,0.5719,2.5938,8.2744,20.9686,0.2233,0.1086,0.534,166.8649
16:27:22:622,0.8016,2.6824,8.3318,22.3838,0.31,0.1306,0.5242,166.1958
16:27:22:636,1.151,2.5484,8.8463,20.8571,0.2954,0.0646,0.4521,165.6421
16:27:22:657,1.4501,2.1416,9.856,22.1187,0.1097,-0.2005,0.3067,165.3546
16:27:22:676,1.1964,1.8425,11.3683,23.5574,-0.1628,-0.4436,0.1699,165.2638
16:27:22:695,0.402,2.4431,12.4834,21.9811,-0.2483,-0.2677,0.1723,165.0986
16:27:22:717,0.2441,3.0221,11.6626,22.0296,-0.0052,0.3261,0.3299,164.6051
16:27:22:739,1.8018,2.4263,9.4636,21.6259,0.194,0.7231,0.4704,163.8892
16:27:22:757,1.8808,0.4068,12.4355,22.3805,-0.9166,0.05,-0.0671,163.4594
16:27:22:775,0.2919,0.2106,14.1153,23.4909,-1.1035,-0.209,-0.3176,163.5931
16:27:22:796,0.122,0.402,13.6176,23.0611,-0.6942,-0.2958,-0.1868,164.1694
16:27:22:821,0.8255,0.9117,11.1506,20.9802,-0.0931,-0.2982,0.0783,164.0874
16:27:22:841,1.4189,1.0409,9.3727,22.7491,0.1488,-0.2444,0.1626,163.9706
16:27:22:858,1.6654,1.1868,9.6263,22.5068,-0.0455,-0.2139,0.0905,163.9407
16:27:22:875,1.474,1.2012,10.1097,21.4054,-0.2874,-0.3055,-0.0903,164.084
16:27:22:896,0.792,1.3639,10.1145,24.149,-0.3411,-0.2921,-0.276,164.3875
16:27:22:920,0.1747,1.5769,9.4636,22.3724,-0.2678,-0.0258,-0.3322,164.6793
16:27:22:936,-0.201,1.7827,9.0233,23.2427,-0.12,0.364,-0.243,164.8135
16:27:22:955,-0.0957,2.187,8.3773,22.9548,0.1304,0.5545,-0.0842,164.7447
16:27:22:975,0.4283,2.3067,7.3268,22.7439,0.3845,0.4238,0.0001,164.6193
16:27:22:995,0.6604,2.6058,6.4319,20.7347,0.5128,0.1587,-0.0305,164.567
16:27:23:017,0.6006,2.7829,6.2524,23.3779,0.4615,0.0182,-0.0854,164.6092
16:27:23:037,0.5216,2.5268,6.6927,23.1425,0.3015,0.0524,-0.0989,164.6722
16:27:23:178,0.3589,2.589,7.2598,27.1829,0.1817,0.1673,-0.0793,164.6476
16:27:23:179,0.6078,2.613,7.5853,26.7866,0.139,0.2027,-0.0329,164.5624
16:27:23:180,0.7083,2.5914,8.0064,25.0165,0.0962,0.1599,-0.0158,164.4863
16:27:23:182,0.6461,2.3186,8.8941,26.1665,0.0144,0.177,-0.0329,164.4131
16:27:23:183,0.2967,2.1607,9.7938,25.2735,-0.0015,0.2687,-0.0317,164.3492
16:27:23:183,-0.3589,2.3521,10.5667,21.9084,0.0828,0.2613,-0.0109,164.2295
16:27:23:183,-0.7968,2.4383,10.4423,24.3737,0.2624,0.1819,0.0514,164.0863
16:27:23:195,-0.6389,2.5101,9.5545,23.3266,0.4395,0.1428,0.1662,163.8281
16:27:23:218,0.3254,2.1009,10.0044,26.1954,0.0193,0.1001,0.2847,163.5243
16:27:23:237,0.3781,0.9954,11.3994,25.6548,-0.3815,0.1734,0.2298,162.9421
16:27:23:258,-0.5838,0.9117,13.651,23.5468,-0.7089,0.1844,0.1968,162.6655
16:27:23:274,-1.608,1.3495,14.0602,25.1545,-0.5647,0.3798,0.3202,162.1646
16:27:23:296,-1.2849,1.8233,12.3733,26.1646,0.0779,0.6388,0.5499,161.4291
16:27:23:320,-0.4881,2.0243,9.5474,25.4769,0.6118,0.3591,0.6244,160.6721
16:27:23:336,0.3876,1.5051,8.4514,25.8052,0.4542,-0.1443,0.4643,160.2485
16:27:23:357,0.3254,0.8136,9.9637,24.7402,-0.1505,-0.3324,0.2249,160.1333
16:27:23:375,-0.2345,0.4881,11.8995,24.2513,-0.5562,-0.115,0.0905,160.0616
16:27:23:397,-0.8662,0.5168,12.4762,24.5582,-0.489,0.1844,0.1137,159.925
16:27:23:418,-0.6867,0.804,11.6076,24.8348,-0.1115,0.3664,0.2591,159.5909
16:27:23:435,-0.3589,1.1294,9.9278,25.0008,0.277,0.298,0.3434,159.2031
16:27:23:456,-0.0144,1.4453,8.6596,26.0684,0.4481,0.0659,0.3128,158.8474
16:27:23:473,0.0335,1.8664,9.4014,25.7875,0.4322,-0.0893,0.2408,158.6533
16:27:23:494,1.2156,2.5531,7.9585,24.8755,0.5788,-0.4912,0.1711,158.6542
16:27:23:513,1.8042,2.6752,6.0371,24.9068,0.9038,-1.0667,-0.0195,159.066
16:27:23:534,0.7083,2.3904,4.3932,25.9042,1.0431,-1.2292,-0.2589,159.7059
16:27:23:554,-0.7609,2.8522,3.7089,26.8623,0.7999,-0.9054,-0.386,160.3595
16:27:23:574,-1.0433,3.1801,4.1324,26.4106,0.2563,-0.3031,-0.2357,160.6335
16:27:23:594,-0.1244,2.9432,5.6901,25.4574,-0.4034,0.3884,0.0648,160.4837
16:27:23:619,0.725,2.9862,7.8245,26.1891,-0.8763,0.9162,0.231,160.0424
16:27:23:634,0.8806,2.9049,9.8895,26.218,-1.0864,1.108,0.1711,159.6493
16:27:23:660,0.3685,2.9288,11.2343,24.6632,-0.4059,0.2222,-0.1551,159.6457
16:27:23:679,-0.1244,3.1011,9.2746,25.6399,0.2196,-0.2628,-0.2858,160.1
16:27:23:723,-0.402,3.1178,7.8724,25.2725,0.3882,-0.3397,-0.3176,160.4887
16:27:23:724,-0.804,3.1633,8.4897,26.972,0.1268,-0.1443,-0.2699,160.8029
16:27:23:738,-0.725,2.747,10.471,27.7421,-0.2837,-0.0013,-0.177,161.0107
16:27:23:753,-0.6532,2.723,12.3924,27.9709,-0.4596,-0.005,-0.0854,161.1544
16:27:23:774,-0.2847,2.7541,12.9332,28.8341,-0.302,-0.1162,-0.0024,161.2155
16:27:23:793,0.6197,2.3761,11.5956,28.4611,0.0254,-0.2444,0.049,161.3394
16:27:23:813,1.7755,1.9143,10.5524,27.9709,0.1158,-0.3874,0.0208,161.5605
16:27:23:833,2.0363,1.2993,10.9376,27.602,-0.1444,-0.396,-0.116,161.9215
16:27:23:854,0.9834,0.7346,12.146,28.2773,-0.4218,-0.2664,-0.3286,162.4991
16:27:23:873,0.0646,0.402,12.7968,26.6401,-0.4853,-0.2616,-0.3921,163.0966
16:27:23:893,-0.079,0.3398,12.8734,29.881,-0.3436,-0.341,-0.265,163.5795
16:27:23:914,0.3829,0.6556,11.9067,29.618,-0.1029,-0.4008,-0.0793,163.9406
16:27:23:936,1.0026,0.9619,10.7964,29.4701,0.0767,-0.3617,0.0306,164.2574
16:27:23:953,1.3831,1.3567,10.1647,27.533,0.1023,-0.297,0.0318,164.5023
16:27:23:973,1.2179,1.7204,9.7244,29.5261,0.0608,-0.2334,-0.0549,164.7485
16:27:23:993,0.7872,2.0124,8.8941,28.445,0.0742,-0.0759,-0.149,165.0629
16:27:24:014,0.2417,2.2277,8.0614,27.9493,0.1268,0.1135,-0.1905,165.3457
16:27:24:037,-0.1938,2.4814,7.3675,29.8522,0.1915,0.2479,-0.1795,165.5641
16:27:24:053,-0.3733,2.7087,6.7836,28.8881,0.2624,0.2772,-0.1319,165.7488
16:27:24:073,-0.3757,2.747,6.4128,28.6025,0.3002,0.1954,-0.0671,165.8721
16:27:24:094,-0.0383,2.6871,6.3984,28.8934,0.2868,0.0634,-0.0011,165.9323
16:27:24:116,1.1222,2.8403,7.1497,30.8389,0.1842,-0.1003,0.0734,166.0009
16:27:24:146,1.2443,2.8355,7.8006,29.4948,0.1366,-0.0673,0.0159,166.1426
16:27:24:156,0.792,2.8642,8.5926,30.3799,0.1255,0.0426,-0.072,166.3666
16:27:24:188,0.3039,3.0796,8.9324,29.6109,0.2306,0.1355,-0.0928,166.5637
16:27:24:195,0.0191,3.1346,8.6596,30.6522,0.3992,0.1624,-0.0512,166.6822
16:27:24:216,-0.469,3.2973,8.4467,32.9087,0.5128,0.1514,-0.0048,166.8075
16:27:24:235,-1.0552,3.4816,8.5448,32.1872,0.5177,0.0732,0.0575,166.8309
16:27:24:255,-1.0935,3.2877,8.6788,31.0624,0.4297,-0.0319,0.1626,166.7455
16:27:24:274,-0.8351,2.7972,9.7053,31.4324,0.1879,-0.1565,0.2933,166.608
16:27:24:295,-1.5194,2.8642,11.2271,31.4324,-0.1273,-0.3031,0.4032,166.3674
16:27:24:317,-2.2421,2.5508,12.7801,32.238,-0.241,-0.1834,0.6073,165.8477
16:27:24:343,-2.3569,2.3809,13.5888,32.9221,-0.1322,-0.0111,0.9103,164.983
16:27:24:355,-2.2014,2.7613,13.931,33.8612,0.0351,-0.1418,1.1155,163.8995
16:27:24:388,-2.254,3.0245,12.9069,33.8625,0.2941,-0.0368,1.2389,162.6678
16:27:24:400,-2.5771,3.1681,11.3085,34.7109,0.5385,0.4495,1.2963,161.2478
16:27:24:417,-2.1823,2.8499,10.7055,32.814,0.4297,0.6584,1.3281,159.72
16:27:24:435,-1.6128,2.1751,11.5358,35.5039,0.04,0.4568,1.2914,158.3424
16:27:24:454,-1.1653,1.5051,12.536,31.9231,-0.2507,0.1795,1.2255,157.1832
16:27:24:473,-0.9739,1.2778,12.6365,34.5976,-0.2165,0.0891,1.2169,156.038
16:27:24:496,-0.3206,1.4142,11.2606,36.9604,0.0877,0.2797,1.3208,154.8144
16:27:24:519,0.7274,1.8305,9.5378,34.0368,0.4371,0.6059,1.4368,153.4755
16:27:24:535,1.4572,1.9501,7.7719,33.7359,0.6081,0.7683,1.4075,152.1248
16:27:24:557,1.7252,2.0243,6.8219,34.8171,0.5739,0.8062,1.2475,150.8695
16:27:24:577,1.0337,2.053,6.3338,34.3682,0.4029,0.6706,0.9518,149.8
16:27:24:603,1.2514,2.0506,5.8911,35.1042,0.4346,0.5582,0.9591,147.7653
16:27:24:619,1.8377,2.1033,5.214,35.0126,0.4701,0.4055,0.9958,146.932
16:27:24:638,2.3354,2.187,5.0201,36.359,0.4212,0.287,0.942,146.1949
16:27:24:655,2.5412,2.1751,5.5944,35.9636,0.2795,0.1685,0.7991,145.7031
16:27:24:675,2.5149,2.1057,6.3194,37.5407,0.1805,0.0317,0.6109,145.4574
16:27:24:694,2.4431,2.2397,6.6688,36.2741,0.2196,-0.0697,0.4484,145.416
16:27:24:715,2.4694,2.4933,6.9416,37.413,0.3064,-0.1259,0.3214,145.5289
16:27:24:736,2.4526,2.8594,6.9799,37.1539,0.3626,-0.22,0.165,145.8197
16:27:24:756,2.4503,2.9719,6.7023,39.4309,0.3027,-0.4008,-0.0268,146.3926
16:27:24:775,2.4503,2.8642,7.0277,38.4923,0.007,-0.5988,-0.2149,147.2263
16:27:24:795,2.2301,2.7087,8.7338,40.4282,-0.445,-0.578,-0.3347,148.1743
16:27:24:818,2.0865,2.7374,10.4136,40.6314,-0.7895,-0.264,-0.3591,149.0375
16:27:24:836,3.0437,2.4861,11.8588,40.0818,-0.9825,0.1501,-0.3554,149.7567
16:27:24:855,4.1779,1.7468,14.2995,41.1776,-1.3075,0.1685,-0.5045,150.7073
16:27:24:873,3.5749,0.5958,17.5514,42.1972,-1.696,-0.2872,-0.9309,152.2548
16:27:24:895,1.5673,-0.3063,19.3747,43.0056,-1.7046,-0.6586,-1.3487,154.2343
16:27:24:918,-0.3829,-0.2417,18.6281,42.8765,-1.2135,-0.5768,-1.3817,156.1566
16:27:24:935,-1.0074,0.4714,16.0008,43.7162,-0.4682,-0.0856,-1.0115,157.5502
16:27:24:954,-0.4259,1.3878,12.5838,43.5241,0.1695,0.3261,-0.546,158.3511
16:27:24:977,0.3087,2.2804,9.6263,43.914,0.5018,0.4214,-0.2614,158.8048
16:27:24:995,0.9691,3.0485,7.3986,43.6877,0.5275,0.2992,-0.188,159.2247
16:27:25:017,1.2012,3.259,5.9845,43.8419,0.3235,0.0573,-0.3053,159.8282
16:27:25:035,0.4259,2.6656,5.7212,45.7087,-0.3314,-0.308,-0.6706,160.6992
16:27:25:056,0.0048,2.522,6.0993,44.4371,-0.4572,-0.2823,-0.7305,162.5535
16:27:25:075,-0.3493,2.5268,6.073,44.4646,-0.3973,-0.2603,-0.7269,163.6191
16:27:25:094,-0.4164,2.7206,5.5466,46.3925,-0.2324,-0.2567,-0.678,164.6007
16:27:25:119,-0.603,2.9551,5.2905,46.9273,-0.1188,-0.2274,-0.6328,165.5392
16:27:25:144,-1.0648,3.0891,5.257,48.357,-0.109,-0.1968,-0.612,166.4089
16:27:25:157,-1.5888,3.2734,5.9629,47.0414,-0.1884,-0.2115,-0.5485,167.2221
16:27:25:174,-1.6319,3.2901,7.5182,47.5559,-0.2947,-0.2603,-0.4336,167.8888
16:27:25:282,-1.6271,3.283,9.3966,47.9284,-0.302,-0.3715,-0.3053,168.4031
16:27:25:283,-1.4237,3.0126,10.7318,49.516,-0.1835,-0.5206,-0.1966,168.83
16:27:25:283,-1.5075,2.8714,11.9019,49.3208,0.018,-0.5157,-0.0952,169.1411
16:27:25:283,-1.8999,2.8977,12.6437,49.7796,0.2404,-0.3263,0.0257,169.2866
16:27:25:283,-1.6199,2.8977,13.1701,50.2411,0.4359,-0.0697,0.2175,169.2134
16:27:25:295,-0.8423,2.8283,13.6702,52.3205,0.4957,0.0219,0.4081,168.9551
16:27:25:318,-0.4092,2.5795,14.5436,52.4697,0.4187,-0.0307,0.4668,168.636
16:27:25:339,-0.7968,2.7996,14.278,51.8609,0.4969,0.1233,0.4619,168.3104
16:27:25:354,-0.7585,2.9527,12.5791,52.3014,0.7511,0.7024,0.5816,167.681
16:27:25:374,-1.4094,3.2088,11.5956,53.6334,0.8427,1.2583,0.7233,166.7109
16:27:25:396,-2.6154,3.4481,11.33,52.8434,0.7486,1.367,0.8113,165.5972
16:27:25:420,-3.3954,3.74,10.8945,51.3977,0.7242,1.1691,0.964,164.3531
16:27:25:435,-3.0987,4.0439,10.4542,52.9275,0.7242,0.7463,1.1913,163.0023
16:27:25:456,-1.8401,3.7711,10.258,52.1824,0.5605,0.1001,1.3562,161.6929
16:27:25:474,-0.6054,3.0604,11.0285,52.2511,0.1989,-0.457,1.3623,160.6375
16:27:25:494,0.2297,1.2036,13.4716,51.6095,-0.241,-0.3373,1.1485,159.7874
16:27:25:518,0.1795,1.2275,11.4233,52.9865,0.1072,0.4409,1.1778,157.592
16:27:25:538,0.3159,1.328,9.7484,52.4258,0.3882,1.1837,1.2841,156.1558
16:27:25:556,0.4475,1.2945,9.344,52.5075,0.4469,1.4415,1.3256,154.5814
16:27:25:574,0.8064,1.2993,8.7625,51.4431,0.5641,1.2509,1.3415,153.071
16:27:25:595,1.2993,1.4405,7.7288,52.7152,0.8207,0.9064,1.355,151.6626
16:27:25:618,1.7898,1.7133,6.2429,51.0695,1.1041,0.6425,1.3293,150.3458
16:27:25:635,2.1942,1.9765,4.8431,53.2618,1.2727,0.5301,1.2413,149.1435
16:27:25:655,2.2756,2.2158,3.9936,51.1913,1.2556,0.5399,1.0813,148.1135
16:27:25:702,2.0578,2.4694,4.1587,51.2302,1.076,0.5607,0.8687,147.2859
16:27:25:705,1.8185,2.4861,4.8192,52.1273,0.8525,0.3957,0.6561,146.7076
16:27:25:715,1.5649,2.5292,5.4173,51.854,0.7059,0.1001,0.4729,146.4664
16:27:25:734,1.4692,2.6488,5.7954,51.4788,0.6374,-0.1846,0.3226,146.5182
16:27:25:753,1.6056,2.8905,5.9007,52.5247,0.6093,-0.3471,0.2102,146.7523
16:27:25:773,1.5793,3.0485,6.4032,51.2377,0.5275,-0.4216,0.0697,147.1636
16:27:25:793,1.3711,3.0891,7.4871,52.2831,0.3454,-0.5523,-0.0952,147.7894
16:27:25:813,1.1318,2.9336,8.3462,51.0499,0.1158,-0.6354,-0.2223,148.563
16:27:25:836,0.2632,3.4576,8.9803,51.4345,-0.0626,-0.3104,-0.2601,149.1716
16:27:25:856,0.1364,4.063,9.5378,54.2438,-0.2165,0.4006,-0.1147,149.2776
16:27:25:874,1.9549,4.4722,10.3729,51.7633,-0.4633,0.9406,0.0746,148.9643
16:27:25:893,3.1274,4.2856,12.8542,52.8742,-0.952,0.6963,-0.138,149.0057
16:27:25:913,1.9214,2.68,15.5557,53.8264,-1.5335,-0.319,-0.7916,150.224
16:27:25:936,0.0287,1.5386,17.2499,55.4374,-1.7034,-0.9653,-1.2778,152.1989
16:27:25:955,-1.1988,1.7372,13.8353,53.8319,-0.6698,-0.104,-0.7219,154.7827
16:27:25:974,-0.2058,2.9934,10.1551,54.9723,-0.1102,0.3957,-0.1636,154.9799
16:27:25:993,1.0768,3.6873,7.4417,54.3439,-0.0015,0.4568,0.1516,154.8641
16:27:26:014,1.943,4.0941,6.1041,53.9793,-0.2031,0.3835,0.165,154.7485
16:27:26:037,2.1105,3.9817,6.0251,55.0754,-0.489,0.3065,-0.0476,154.8776
16:27:26:053,1.2371,3.685,6.1974,55.3719,-0.6368,0.232,-0.3701,155.3673
16:27:26:074,0.122,3.4529,6.073,55.7929,-0.6001,0.1477,-0.5986,156.0834
16:27:26:093,-0.7585,3.5222,5.5418,55.8695,-0.4596,0.0317,-0.6572,156.9138
16:27:26:120,-1.2586,3.6682,4.8598,56.7265,-0.3289,-0.0905,-0.5949,157.72
16:27:26:134,-1.4429,3.7735,4.6038,54.073,-0.2923,-0.1553,-0.4935,158.4511
16:27:26:154,-1.8018,4.1611,4.9819,55.402,-0.3485,-0.1736,-0.4067,159.015
16:27:26:174,-1.8497,4.1635,6.2333,54.6235,-0.467,-0.2677,-0.3053,159.5018
16:27:26:194,-1.6271,3.7926,8.1308,54.4212,-0.5818,-0.4937,-0.2174,159.9641
16:27:26:218,-1.6056,3.5533,9.99,53.2909,-0.5085,-0.5963,-0.1551,160.3921
16:27:26:238,-1.7324,3.5318,10.4207,55.3404,-0.2043,-0.4973,-0.0842,160.6935
16:27:26:254,-1.9454,3.5749,10.3944,54.01,0.0852,-0.2628,0.0013,160.8372
16:27:26:274,-2.0818,3.5677,11.2487,53.5415,0.172,0.0036,0.1113,160.78
16:27:26:294,-2.0913,3.618,12.4953,56.1371,0.1475,0.1062,0.2298,160.5605
16:27:26:313,-1.6798,3.539,13.4357,54.2051,0.1585,0.006,0.3446,160.2718
16:27:26:334,-0.9523,3.2327,14.3617,54.713,0.2269,-0.1589,0.4362,159.95
16:27:26:355,-0.6054,3.2471,14.5292,54.1476,0.3894,-0.1333,0.4973,159.5443
16:27:26:376,-0.3924,3.728,12.7202,53.8999,0.6985,0.3737,0.5792,158.8893
16:27:26:393,-0.4881,3.9817,11.3396,51.6785,0.8439,0.9773,0.6342,157.9932
16:27:26:415,-2.388,3.8835,10.7438,53.3379,0.5739,0.8868,0.5621,156.1453
16:27:26:437,-2.8451,4.343,9.7077,54.2841,0.6863,0.827,0.6671,155.1915
16:27:26:455,-2.5196,4.7713,9.2602,52.9875,0.6656,0.557,0.8052,154.1879
16:27:26:484,-1.4189,4.3478,10.0475,54.3363,0.3589,-0.0355,0.8479,153.4055
16:27:26:493,-0.536,3.4026,11.7344,51.1524,-0.0919,-0.622,0.7429,152.9835
16:27:26:515,0.2584,2.3737,13.1749,52.4165,-0.3533,-0.727,0.5853,152.7644
16:27:26:532,0.3757,1.7348,12.6293,49.7869,-0.2385,-0.2249,0.4839,152.4709
16:27:26:553,0.134,1.5434,11.0046,51.5879,0.0645,0.623,0.4839,151.8321
16:27:26:574,-0.0622,1.8281,9.4923,52.2681,0.266,1.2521,0.5682,150.8258
16:27:26:594,0.189,1.8497,8.7266,50.3772,0.3259,1.4611,0.6635,149.6675
16:27:26:617,0.5288,1.7946,8.5567,49.5154,0.3491,1.2192,0.6977,148.5668
16:27:26:635,0.7537,1.7444,8.2409,51.0653,0.4872,0.7781,0.6781,147.6467
16:27:26:653,1.0098,1.7994,7.2144,50.4322,0.7486,0.3652,0.639,146.9292
16:27:26:674,1.4477,1.9286,5.6399,51.8573,0.9783,0.1318,0.5889,146.4039
16:27:26:693,1.5625,2.1464,4.745,51.3258,1.0089,0.1611,0.5034,145.9652
16:27:26:715,1.6319,2.2756,4.4961,49.5359,0.8586,0.232,0.3971,145.5842
16:27:26:734,1.5984,2.3354,4.7952,50.5033,0.6704,0.1624,0.2591,145.3211
16:27:26:754,1.5266,2.4072,4.9029,48.7163,0.5495,-0.0294,0.1113,145.299
16:27:26:774,1.5075,2.5316,4.8526,48.7499,0.4945,-0.198,-0.0182,145.4931
16:27:26:792,1.3926,2.6488,4.9747,48.456,0.4297,-0.3239,-0.1502,145.8805
16:27:26:814,0.9906,2.9815,5.2546,47.6216,0.3332,-0.4583,-0.2858,146.4486
16:27:26:833,0.9978,3.1801,5.7691,50.217,0.1768,-0.6843,-0.397,147.2468
16:27:26:857,1.127,3.0676,7.0253,47.6253,-0.1188,-0.9543,-0.4825,149.3741
16:27:26:875,1.2849,3.606,9.009,48.7499,-0.7663,-0.5865,-0.5326,150.222
16:27:26:893,2.1535,3.5246,9.9302,47.2357,-1.0497,-0.0881,-0.5656,150.8758
16:27:26:914,2.6728,2.6465,11.9043,48.3608,-1.4786,0.0145,-0.794,151.7266
16:27:26:943,1.1246,1.8018,14.857,50.7766,-1.9672,-0.352,-1.2436,153.2058
16:27:26:954,-0.95,1.206,17.2858,49.6454,-1.9819,-0.4631,-1.5234,154.9788
16:27:26:975,-2.3809,1.4572,17.1278,51.3353,-1.3955,-0.3617,-1.3658,156.5394
16:27:26:993,-2.4335,2.2229,15.0221,49.4569,-0.5916,-0.3068,-0.9138,157.569
16:27:27:015,-1.127,2.8355,12.3494,48.8362,-0.0296,-0.4057,-0.4471,158.1743
16:27:27:035,0.4498,3.1107,10.5858,48.675,0.0913,-0.5926,-0.1966,158.5879
16:27:27:054,1.0504,3.5701,10.1551,50.5098,-0.0956,-0.7026,-0.2211,159.0478
16:27:27:073,1.2395,3.3787,9.734,49.9109,-0.3094,-0.6721,-0.3689,159.6793
16:27:27:093,0.9619,3.1896,8.7218,50.0871,-0.3741,-0.4277,-0.5301,160.3879
16:27:27:117,0.4044,3.2184,7.7456,49.636,-0.3509,-0.0575,-0.6438,161.0736
16:27:27:133,-0.1699,3.3404,7.0804,50.7183,-0.2959,0.2345,-0.6792,161.7061
16:27:27:156,-0.5671,3.4146,6.5707,50.3198,-0.2202,0.2687,-0.6694,162.3165
16:27:27:174,-0.7753,3.5127,6.0443,51.3753,-0.1249,0.1074,-0.6328,162.9413
16:27:27:193,-0.9021,3.685,5.6303,50.1311,-0.0504,-0.0832,-0.5876,163.5544
16:27:27:215,-0.9763,3.7687,5.5513,50.4173,-0.0504,-0.2054,-0.535,164.1597
16:27:27:236,-0.9165,3.8668,5.9318,50.3192,-0.0931,-0.2432,-0.4727,164.6947
16:27:27:256,-0.8758,3.8596,6.5228,50.1395,-0.1493,-0.2408,-0.4239,165.1783
16:27:27:275,-1.0217,3.795,7.5565,49.5711,-0.1713,-0.2249,-0.4043,165.6379
16:27:27:384,-1.2514,3.6634,8.071,51.2627,-0.131,-0.2176,-0.3762,166.032
16:27:27:384,-1.5362,3.5366,9.1932,51.2258,0.04,-0.0636,-0.1991,166.5434
16:27:27:385,-1.5458,3.606,9.6574,52.1122,0.1512,0.017,-0.0842,166.5626
16:27:27:385,-1.4883,3.8118,10.349,49.4888,0.2318,0.0194,0.0233,166.4624
16:27:27:385,-0.8734,3.7424,11.3659,49.6939,0.2758,-0.071,0.1039,166.3337
16:27:27:392,-0.0311,3.5462,13.2538,50.5145,0.183,-0.3837,0.1247,166.291
16:27:27:414,0.5168,3.0197,15.1274,49.478,0.0473,-0.6586,0.077,166.3881
16:27:27:436,0.4068,2.68,14.0722,49.0142,0.2893,-0.1944,0.0648,166.3646
16:27:27:453,-0.4403,3.2877,11.342,50.3192,0.701,0.9711,0.1687,165.839
16:27:27:473,-1.6989,3.9553,9.4852,51.1556,0.7865,1.874,0.2921,164.8529
16:27:27:494,-2.9767,4.6899,8.4443,49.8765,0.6692,2.1672,0.38,163.6
16:27:27:516,-3.4481,5.2307,8.1882,49.0038,0.5104,1.9009,0.457,162.3467
16:27:27:539,-3.1226,5.5896,9.064,49.2788,0.1671,0.9797,0.4619,161.4146
16:27:27:555,-2.1655,4.1204,11.8493,49.9657,-0.4205,-0.3483,0.3312,161.149
16:27:27:574,-1.5721,2.2804,16.5631,48.6778,-0.974,-1.476,0.1113,161.5325
16:27:27:593,-1.7276,0.7489,19.9011,49.5114,-0.8408,-1.6372,0.0282,162.0457
16:27:27:613,-1.6558,-0.2943,18.2166,50.0989,0.1145,-0.9469,0.3043,162.0161
16:27:27:635,-1.3232,-0.1771,14.2253,50.4563,1.1506,0.0964,0.7245,161.2072
16:27:27:653,-0.9691,0.8614,10.4806,48.9248,1.682,1.0164,1.0825,159.6655
16:27:27:674,-0.1149,1.2299,7.9131,49.1225,1.7187,1.4831,1.3782,157.6366
16:27:27:694,0.6054,1.584,6.4247,48.5183,1.5403,1.5967,1.5113,155.3909
16:27:27:719,0.9571,1.8999,5.5992,49.1724,1.3656,1.4757,1.4845,153.2055
16:27:27:734,1.3807,2.0961,4.8431,47.3396,1.2752,1.1776,1.4014,151.2138
16:27:27:753,1.7204,2.2923,3.9266,47.6447,1.2373,0.8502,1.3012,149.492
16:27:27:776,2.4191,3.0604,2.8211,47.7436,0.9465,0.3811,0.9872,146.9145
16:27:27:796,2.4646,3.1753,2.6848,48.2437,0.6851,0.3041,0.7466,146.0162
16:27:27:816,2.2181,3.1442,2.8211,47.756,0.4114,0.2955,0.4949,145.3856
16:27:27:835,1.4716,3.1824,3.4289,46.9592,0.172,0.2858,0.2701,144.9419
16:27:27:854,0.6317,3.2303,4.1324,47.1988,0.0193,0.166,0.1137,144.7006
16:27:27:876,0.2082,3.4552,4.1468,46.4672,0.0046,-0.0478,0.0746,144.6244
16:27:27:892,0.4834,3.673,3.7089,45.8946,-0.0101,-0.2982,0.1039,144.6877
16:27:27:916,0.8638,4.3119,3.6084,45.6588,-0.1994,-0.5328,0.0905,144.8972
16:27:27:933,1.3735,4.465,4.0463,47.1239,-0.6111,-0.6769,0.0074,145.2725
16:27:27:955,1.127,4.4363,5.7906,46.9821,-1.1927,-0.6134,-0.1722,145.7507
16:27:27:974,0.7059,4.5081,8.1452,46.7615,-1.7547,-0.2554,-0.375,146.2219
16:27:27:994,0.9834,4.4865,11.0979,45.9204,-2.2214,0.0378,-0.5167,146.6884
16:27:28:018,1.3304,4.0295,15.7041,47.5438,-2.7272,-0.4045,-0.7561,147.6288
16:27:28:040,1.2873,2.2038,22.2556,49.3768,-3.079,-1.3733,-1.141,149.3807
16:27:28:054,-0.0215,1.3352,24.4451,47.6185,-2.5769,-1.9512,-1.4159,151.5479
16:27:28:075,-0.6389,1.2179,21.2674,48.2745,-1.3344,-1.7411,-1.2668,153.3856
16:27:28:092,-0.5671,2.1464,16.7115,48.6973,-0.2434,-0.9225,-0.8038,154.4504
16:27:28:114,0.402,2.857,13.3161,48.7873,0.266,0.0842,-0.2614,154.6603
16:27:28:132,1.139,3.4624,10.7773,47.279,0.332,0.6022,0.0648,154.3718
16:27:28:153,1.4907,3.8381,9.0473,47.196,0.3271,0.6877,0.1076,154.0104
16:27:28:174,1.5099,3.9625,7.4776,47.1467,0.3393,0.5264,-0.0341,153.8455
16:27:28:194,1.0026,3.7974,6.3362,47.5684,0.3174,0.2772,-0.2834,154.0239
16:27:28:216,0.067,3.5175,5.6279,46.6593,0.2551,0.0927,-0.5143,154.4915
16:27:28:238,-1.1438,3.3428,4.9388,49.1589,0.1866,-0.0087,-0.5521,155.6234
16:27:28:257,-1.0887,3.3212,4.6086,48.642,0.1915,-0.0783,-0.4361,156.0317
16:27:28:276,-0.9882,3.6156,4.3525,47.3812,0.1768,-0.1601,-0.342,156.3732
16:27:28:293,-0.95,3.6778,4.4889,48.1792,0.1145,-0.1931,-0.2858,156.6636
16:27:28:314,-1.06,3.6323,4.9962,47.2809,0.0144,-0.1858,-0.2711,156.9437
16:27:28:334,-1.3711,3.5677,6.1448,47.1255,-0.076,-0.1589,-0.2724,157.2183
16:27:28:353,-1.5027,3.4481,7.8365,47.9632,-0.1347,-0.2066,-0.2406,157.4636
16:27:28:374,-1.3639,3.2088,9.6646,47.7334,-0.1322,-0.3654,-0.1807,157.691
16:27:28:392,-1.1629,2.8235,12.0526,46.2978,-0.0235,-0.5389,-0.1147,157.9316
16:27:28:412,-0.603,2.3593,13.5817,47.4339,0.2575,-0.6855,-0.0195,158.1201
16:27:28:435,-0.2823,2.388,13.4572,46.7068,0.7193,-0.6378,0.0783,158.203
16:27:28:453,-0.2345,3.1059,11.988,47.9223,1.1836,-0.3214,0.187,158.0645
16:27:28:473,0.2441,4.1204,10.3131,45.5396,1.412,0.0549,0.3128,157.6521
16:27:28:493,0.9619,5.1494,9.5498,46.1802,1.2569,0.2247,0.358,157.1343
16:27:28:518,1.7874,5.5944,9.4182,46.0822,0.8671,0.3285,0.2615,156.6794
16:27:28:538,2.0483,5.1326,9.99,47.0249,0.4041,0.403,-0.0036,156.4653
16:27:28:556,0.859,4.4363,11.4879,46.7068,-0.0443,0.3383,-0.3567,156.6193
16:27:28:573,-1.0289,3.9745,11.2319,45.8643,-0.1493,0.4458,-0.5472,156.8993
16:27:28:603,-2.1416,4.5177,9.4588,43.7489,0.0803,0.8698,-0.4642,156.8838
16:27:28:619,-2.0124,5.147,8.3175,46.6593,0.0571,0.9589,-0.2394,156.5935
16:27:28:631,-1.017,4.6349,9.6885,45.7776,-0.4181,0.5704,-0.1233,156.3839
16:27:28:652,-1.1892,3.539,12.7537,44.5488,-0.9422,0.2039,-0.1819,156.4074
16:27:28:673,-1.9645,2.6919,14.8618,44.2517,-0.9984,0.1562,-0.2271,156.5152
16:27:28:694,-2.9743,2.345,12.0168,44.6366,0.106,0.4629,0.3189,156.4015
16:27:28:718,-1.6822,2.546,9.9781,45.1563,0.4823,0.5093,0.8479,154.757
16:27:28:733,-0.1149,2.6871,8.4897,46.0453,0.6594,0.4507,1.2291,153.2659
16:27:28:752,0.9834,2.8499,6.9942,42.3524,0.7743,0.392,1.366,151.6614
16:27:28:773,1.5506,3.0054,5.7045,44.7575,0.8427,0.3811,1.3256,150.1183
16:27:28:793,1.8233,3.1298,4.5966,43.0418,0.861,0.3725,1.1961,148.7023
16:27:28:820,1.9334,3.283,3.594,44.4077,0.8305,0.3236,1.019,147.4956
16:27:28:837,2.0698,3.4959,2.5795,43.4361,0.7315,0.2076,0.7966,146.5735
16:27:28:855,1.8473,3.6921,2.1272,42.8841,0.5153,0.0475,0.5181,145.9851
16:27:28:872,1.3208,3.6514,2.5077,42.5714,0.2196,-0.1467,0.2359,145.7698
16:27:28:892,0.7178,3.618,3.4289,43.4133,-0.0504,-0.3825,0.0159,145.9177
16:27:28:913,0.213,3.7017,4.6564,44.2523,-0.208,-0.6403,-0.1099,146.3084
16:27:28:932,0.2321,3.7256,5.6279,41.7165,-0.2715,-0.9506,-0.16,146.8975
16:27:28:952,0.9667,3.5414,6.0921,42.4079,-0.2947,-1.1974,-0.177,147.6372
16:27:28:973,1.6415,3.3882,6.9583,43.5144,-0.4865,-1.3244,-0.2553,148.5122
16:27:28:994,1.8161,2.8642,8.4514,42.6046,-0.9178,-1.2744,-0.4092,149.5194
16:27:29:015,1.8401,2.1894,10.4255,40.5432,-1.4053,-0.8504,-0.5204,150.3985
16:27:29:032,1.663,1.8209,12.3159,40.9395,-1.7608,-0.165,-0.5558,151.0085
16:27:29:053,1.4692,1.8449,13.7204,41.912,-1.8988,0.3566,-0.6096,151.4593
16:27:29:074,1.2371,1.6128,15.4672,42.3693,-1.9428,0.3346,-0.7708,152.1108
16:27:29:094,0.2369,0.8303,17.8505,42.099,-1.9563,0.0011,-1.0115,153.1396
16:27:29:118,-1.1127,0.3876,19.0828,42.5893,-1.6716,-0.2677,-1.0836,154.3089
16:27:29:132,-1.0457,0.0622,17.6949,42.7038,-0.9667,-0.3898,-0.816,155.2272
16:27:29:155,0.9021,2.2564,10.4997,41.8933,0.3284,-0.0233,-0.0671,155.7476
16:27:29:173,1.6869,2.9121,8.8965,41.0072,0.2025,0.0707,0.0428,155.6403
16:27:29:192,1.6152,3.204,8.406,40.7812,-0.0345,0.1734,-0.1135,155.6744
16:27:29:214,0.8734,3.1442,7.937,42.1763,-0.1505,0.2455,-0.3762,155.952
16:27:29:236,-0.1747,3.0293,7.3866,42.2492,-0.142,0.2393,-0.601,156.4807
16:27:29:255,-0.8734,2.881,7.0349,42.7436,-0.1139,0.1343,-0.6841,157.1058
16:27:29:273,-1.261,2.8211,6.8004,40.6425,-0.0772,-0.0221,-0.6364,157.7184
16:27:29:292,-1.3185,2.8211,6.664,42.0074,-0.0113,-0.132,-0.5216,158.2323
16:27:29:314,-1.0816,3.003,6.4319,41.8205,0.0987,-0.1479,-0.3676,158.5894
16:27:29:332,-0.8112,3.3069,6.0251,42.251,0.2111,-0.1174,-0.2516,158.8212
16:27:29:354,-0.5264,3.5533,6.0155,43.0284,0.2379,-0.1125,-0.2027,159.0082
16:27:29:373,-0.323,3.5605,6.6855,43.2912,0.1658,-0.1394,-0.2101,159.1992
16:27:29:484,-0.548,3.4337,8.0399,44.3709,0.0645,-0.1846,-0.2467,159.4074
16:27:29:492,-0.7155,3.3739,9.2937,41.2606,0.0559,-0.2408,-0.243,159.6258
16:27:29:492,-0.7226,3.4098,9.9326,41.0004,0.1866,-0.2286,-0.1624,159.7734
16:27:29:492,-0.481,3.4744,10.2437,39.1504,0.3723,-0.1614,-0.0488,159.7891
16:27:29:493,-0.2584,3.6634,10.5571,39.6083,0.5055,-0.1406,0.0502,159.7236
16:27:29:493,0.2297,3.9194,11.4353,41.3977,0.5654,-0.2066,0.1198,159.5977
16:27:29:512,0.8016,3.9721,13.206,41.565,0.5458,-0.4448,0.1247,159.5685
16:27:29:536,1.2395,3.5964,15.1825,40.8611,0.5397,-0.8187,0.0282,159.7651
16:27:29:552,1.1007,3.4648,14.6297,40.9135,0.7682,-0.9274,-0.1013,160.1427
16:27:29:574,0.5527,4.0032,11.3994,41.6299,1.197,-0.1895,-0.083,160.2592
16:27:29:594,0.1771,4.6947,9.3296,40.7462,1.2789,0.9052,0.1088,159.7502
16:27:29:617,-1.8066,4.8766,9.0066,41.6246,0.4578,1.4977,0.2322,158.0017
16:27:29:632,-2.7254,5.123,8.8582,39.9667,0.3919,1.4684,0.198,157.0984
16:27:29:653,-2.9288,5.3719,9.5234,41.5932,0.2697,0.9491,0.1882,156.4083
16:27:29:672,-2.3091,4.2592,12.2632,44.1338,-0.1176,-0.0526,0.187,156.1754
16:27:29:692,-1.1653,2.6465,15.5509,42.692,-0.3986,-1.0312,0.1882,156.3933
16:27:29:714,-0.5886,2.0459,15.326,41.7436,-0.0614,-1.2072,0.2139,156.6512
16:27:29:732,-0.323,1.5434,12.1651,42.2825,0.6155,-0.4509,0.38,156.4509
16:27:29:752,-0.7992,2.2349,9.6598,41.929,0.9685,0.6217,0.6402,155.5173
16:27:29:772,-0.2201,2.2804,8.1117,43.2323,0.9368,1.3218,0.9762,153.9234
16:27:29:792,0.3948,2.3282,7.4178,43.8034,0.7902,1.5686,1.1913,151.9806
16:27:29:812,0.8542,2.3952,6.9081,44.3059,0.7352,1.5722,1.2719,149.9571
16:27:29:833,1.2514,2.5029,6.0658,44.4963,0.817,1.4134,1.2719,148.0548
16:27:29:857,1.4979,2.7924,5.1637,43.8319,0.9343,1.1605,1.1864,146.3453
16:27:29:872,1.5458,3.0389,4.331,43.9451,0.9746,0.8698,1.041,144.9149
16:27:29:892,1.4788,3.2207,3.8572,43.5088,0.9013,0.5912,0.8626,143.7842
16:27:29:916,1.2897,3.3978,3.7807,42.2857,0.7547,0.3261,0.683,142.9464
16:27:29:934,1.2586,3.4217,3.9266,44.5915,0.5837,0.0524,0.5242,142.4354
16:27:29:953,1.3208,3.4433,4.276,43.2323,0.4175,-0.2066,0.3935,142.1848
16:27:29:972,1.3807,3.5246,4.733,42.9816,0.2758,-0.4082,0.2762,142.172
16:27:29:993,1.4644,3.7017,4.9723,43.8034,0.183,-0.5193,0.1613,142.3505
16:27:30:018,1.3352,4.0702,5.4293,44.4103,0.1035,-0.5548,0.0367,142.6625
16:27:30:035,1.151,4.2496,6.2429,44.0284,-0.0235,-0.6513,-0.0989,143.1568
16:27:30:053,0.7753,4.4243,7.1857,42.4087,-0.2116,-0.8284,-0.2296,143.8596
16:27:30:074,-0.1101,4.9364,8.9683,43.5486,-0.5586,-0.7478,-0.2528,145.343
16:27:30:092,0.4929,5.1494,9.7388,44.7129,-0.7321,-0.4424,-0.0928,145.6927
16:27:30:114,1.7252,4.8024,11.4257,44.1769,-1.1402,-0.2249,-0.0341,145.8822
16:27:30:135,2.4191,3.5868,14.9073,43.6911,-1.7803,-0.1895,-0.2809,146.3252
16:27:30:152,1.1294,2.6512,17.7667,44.4578,-2.0894,-0.0539,-0.6633,147.0715
16:27:30:172,-1.0935,2.0363,17.1422,45.7259,-1.6496,0.2234,-0.871,147.8806
16:27:30:193,-2.7709,2.7757,14.8881,45.1892,-0.8824,0.3517,-0.7354,148.4636
16:27:30:213,-2.0842,3.0796,12.5049,43.5043,-0.2959,0.188,-0.1942,148.5695
16:27:30:232,-0.2321,3.618,10.6648,46.4669,0.0193,-0.1113,0.4155,148.2089
16:27:30:251,1.3974,4.0463,9.2483,45.939,0.1463,-0.4277,0.7111,147.688
16:27:30:272,2.4407,4.3095,7.9537,45.6352,0.1426,-0.5755,0.6708,147.2839
16:27:30:292,2.7063,4.3262,6.9607,45.2753,0.0583,-0.4424,0.4289,147.0679
16:27:30:317,2.2038,4.209,6.2453,43.9828,-0.0492,-0.1101,0.1076,147.034
16:27:30:350,1.1964,4.0295,5.8576,46.0928,-0.1432,0.2271,-0.1832,147.1368
16:27:30:352,0.2417,3.9003,5.6662,44.6183,-0.1872,0.3957,-0.3493,147.336
16:27:30:371,-0.2082,3.9027,5.4652,46.0636,-0.1628,0.3578,-0.3725,147.5695
16:27:30:391,-0.2177,4.0295,5.281,46.6026,-0.0968,0.2039,-0.3163,147.8111
16:27:30:418,-0.0359,4.209,5.2379,46.3977,-0.0504,-0.0001,-0.2687,148.0922
16:27:30:432,0.1029,4.3406,5.3767,47.6794,-0.0638,-0.1797,-0.2699,148.4641
16:27:30:450,0.1962,4.4315,5.9653,47.325,-0.1347,-0.2701,-0.2968,148.8931
16:27:30:470,0.2847,4.4124,7.1234,46.0636,-0.219,-0.3068,-0.3298,149.3745
16:27:30:491,0.2895,4.2305,8.4443,48.3242,-0.2605,-0.3874,-0.3689,149.9217
16:27:30:511,-0.1149,3.9218,10.0403,46.9998,-0.0137,-0.5572,-0.419,150.5746
16:27:30:538,-0.4044,4.1803,10.0666,45.5166,0.2123,-0.4619,-0.3505,151.7772
16:27:30:562,-0.3374,4.733,9.9182,48.4074,0.387,-0.2041,-0.2064,152.063
16:27:30:570,0.548,4.9866,10.2173,48.2451,0.4175,0.0317,-0.0378,152.1136
16:27:30:591,1.4907,5.0441,11.4688,47.9039,0.2379,-0.0783,0.0196,152.1661
16:27:30:613,1.6319,5.0345,12.5504,49.9187,0.0547,-0.3312,-0.0793,152.4437
16:27:30:633,0.9858,5.1254,11.519,48.4582,0.1915,0.0023,-0.2235,152.7079
16:27:30:652,-0.0072,5.2929,9.8943,48.5259,0.4236,0.8722,-0.2724,152.6308
16:27:30:673,-1.4046,5.3839,9.2507,49.3216,0.3357,1.4403,-0.254,152.2423
16:27:30:702,-3.0341,5.4197,9.1861,49.8735,0.1353,1.6028,-0.2015,151.6926
16:27:30:718,-4.2377,5.8385,9.3559,51.8238,0.062,1.5698,-0.0488,150.9781
16:27:30:730,-4.2209,5.8528,10.1575,50.0078,-0.0101,1.1459,0.2017,150.223
16:27:30:751,-3.3212,5.0513,12.0526,50.5521,-0.2177,0.1892,0.3996,149.7258
16:27:30:770,-2.3497,3.8189,13.9023,50.6716,-0.4144,-0.9091,0.4546,149.7104
16:27:30:790,-1.2299,2.8116,14.8834,51.6174,-0.3082,-1.344,0.5156,149.8469
16:27:30:812,-0.3685,2.1918,14.2301,50.535,0.1182,-0.9921,0.6537,149.6924
16:27:30:834,-0.347,2.1607,12.9547,52.0671,0.58,-0.2689,0.8345,149.0389
16:27:30:850,0.0574,1.998,11.4592,50.0882,0.9307,0.3542,1.0825,147.8984
16:27:30:873,0.9188,2.1966,9.9159,50.4809,1.1897,0.6254,1.3171,146.3906
16:27:30:891,1.809,2.2995,8.3246,50.7888,1.3827,0.6376,1.4429,144.7654
16:27:30:915,2.5244,2.4861,6.7262,52.6951,1.4963,0.5851,1.4442,143.1638
16:27:30:935,2.8929,2.7685,5.4437,50.6695,1.5256,0.5802,1.3171,141.7083
16:27:30:956,2.9671,2.9958,4.3549,51.6213,1.4817,0.6242,1.1228,140.3782
16:27:30:972,2.7757,3.6012,3.0365,51.6035,1.1872,0.6242,0.7245,139.2425
16:27:30:991,2.8762,3.8405,2.7254,51.0232,0.9661,0.4922,0.5156,138.2269
16:27:31:012,2.7781,3.9817,2.7326,52.5957,0.7095,0.2931,0.2554,137.2046
16:27:31:033,2.3641,4.0798,3.0963,53.3021,0.4212,0.0597,-0.0378,137.2885
16:27:31:052,1.8831,4.2186,3.3236,51.5639,0.194,-0.1284,-0.2797,137.6736
16:27:31:072,1.5936,4.6708,3.2638,52.1965,0.0339,-0.2164,-0.4263,138.2715
16:27:31:097,1.6199,4.9771,3.4744,52.6122,-0.1713,-0.2835,-0.5424,138.995
16:27:31:121,1.5577,5.0632,4.4243,53.9503,-0.4828,-0.4228,-0.7,139.963
16:27:31:133,1.2682,5.0034,5.7452,52.8499,-0.8494,-0.6244,-0.8881,141.2242
16:27:31:151,0.5647,5.1709,7.322,53.3,-1.1902,-0.6708,-1.0457,142.6649
16:27:31:170,0.4546,5.2068,9.1813,53.5233,-1.459,-0.4876,-1.0885,144.0564
16:27:31:193,1.529,4.7856,11.2702,55.0294,-1.6924,-0.4521,-1.0579,145.4384
16:27:31:215,2.5795,3.7208,14.6465,54.0913,-2.021,-0.9543,-1.1886,147.2631
16:27:31:233,2.1464,2.1751,18.1256,53.9925,-2.2214,-1.5798,-1.5588,149.7712
16:27:31:252,0.1101,1.876,18.353,54.9239,-1.8145,-1.5615,-1.8386,152.464
16:27:31:271,-1.474,2.2564,14.7661,55.9372,-0.9337,-0.749,-1.6126,154.4924
16:27:31:291,-1.7515,3.4433,11.3252,55.0809,-0.3289,0.232,-1.0274,155.4774
16:27:31:317,-0.8686,4.1037,9.9374,56.7714,-0.3876,0.5668,-0.4776,155.7684
16:27:31:333,0.4044,4.0702,10.5643,55.583,-0.7174,0.3407,-0.2027,155.9246
16:27:31:353,1.0409,3.8118,10.8443,54.8119,-0.8616,-0.1541,-0.2308,156.3321
16:27:31:372,0.7609,3.594,9.6407,54.887,-0.6991,-0.4521,-0.4287,157.0345
16:27:31:391,0.1268,3.5653,8.0399,55.6751,-0.489,-0.3471,-0.5509,157.8096
16:27:31:415,-0.4475,3.5653,7.0732,55.032,-0.4157,-0.0368,-0.5363,158.4516
16:27:31:436,-1.127,3.5653,6.7167,54.4328,-0.4083,0.2051,-0.375,159.1912
16:27:31:453,-1.0457,3.5677,6.8028,54.6483,-0.324,0.0048,-0.2601,159.5167
16:27:31:472,-0.6963,3.6347,6.8363,56.4952,-0.1884,-0.2713,-0.1636,159.8101
16:27:31:609,-0.4786,3.7328,6.5874,55.8802,-0.0479,-0.4448,-0.0989,160.0751
16:27:31:610,-0.347,3.9051,6.451,57.6788,0.0278,-0.4399,-0.0549,160.3099
16:27:31:612,-0.1101,4.0199,6.8219,57.1617,0.0168,-0.3544,-0.0121,160.4685
16:27:31:614,0.1579,4.0654,7.5781,55.1558,-0.0247,-0.2872,0.0099,160.608
16:27:31:615,0.2082,4.0343,8.6333,55.8365,-0.0321,-0.2897,-0.0121,160.7621
16:27:31:616,0.1699,3.8716,9.4875,55.978,0.029,-0.3642,-0.0524,161.0085
16:27:31:618,0.0407,3.996,9.9709,56.2168,0.1915,-0.4033,-0.0732,161.2909
16:27:31:635,-0.1603,4.2784,9.8584,57.331,0.3882,-0.3764,-0.0647,161.5454
16:27:31:653,-0.1842,4.6373,10.0188,54.9924,0.5055,-0.2933,-0.0231,161.7317
16:27:31:672,0.3781,4.6062,11.208,56.2343,0.4823,-0.3226,0.0465,161.902
16:27:31:692,1.0552,4.4507,13.2443,57.0981,0.3955,-0.7735,0.0673,162.2286
16:27:31:713,1.2969,4.5416,13.5314,55.017,0.4652,-1.3159,0.0111,162.8218
16:27:31:732,1.3256,4.611,11.0213,57.4322,0.8476,-0.9372,-0.0402,163.3282
16:27:31:750,0.5695,5.3432,8.4802,58.1802,1.026,0.144,-0.0353,163.3697
16:27:31:773,-0.8829,5.9151,8.0518,55.9913,0.6533,0.9491,-0.0134,162.9994
16:27:31:791,-1.8808,6.2572,9.2243,56.8299,0.1255,1.1911,-0.0011,162.4712
16:27:31:815,-1.7396,5.8457,10.8299,56.6863,-0.2825,0.7525,0.0269,162.1255
16:27:31:831,-0.8973,4.6756,13.34,55.3451,-0.605,-0.2017,0.0135,162.2611
16:27:31:856,-0.0191,3.1848,15.9984,55.1649,-0.7773,-1.1485,-0.0317,163.5369
16:27:31:883,0.6006,2.0961,16.1013,54.7335,-0.4975,-1.3867,-0.0353,163.821
16:27:31:895,0.5336,2.0842,10.0188,56.154,0.5788,0.4751,0.3825,163.2212
16:27:31:913,0.7657,2.3067,8.1906,55.3475,0.6142,1.4183,0.7135,162.0145
16:27:31:930,0.9595,2.4431,7.3077,54.6442,0.5067,1.8251,0.9066,160.4211
16:27:31:954,1.206,2.4574,6.8866,52.3309,0.4847,1.7225,0.986,158.8027
16:27:31:971,1.5482,2.5914,6.4271,52.651,0.6106,1.2326,0.9872,157.3876
16:27:31:990,2.0602,2.7063,5.604,54.0498,0.8232,0.5326,0.9335,156.3467
16:27:32:013,2.68,2.7876,4.3908,54.3332,1.0027,-0.1162,0.8186,155.7441
16:27:32:033,3.0341,2.9527,3.5462,52.6597,0.9954,-0.4973,0.6305,155.5308
16:27:32:051,2.9647,2.8666,3.5988,52.9811,0.7584,-0.6122,0.3849,155.6226
16:27:32:073,2.455,2.7039,4.3884,52.1198,0.4346,-0.5438,0.1491,155.9014
16:27:32:095,1.9478,2.5723,5.4891,52.121,0.1695,-0.4595,-0.0146,156.2991
16:27:32:114,1.6295,2.5149,5.9198,51.5017,0.0681,-0.4424,-0.0903,156.7665
16:27:32:131,1.328,2.8427,5.7643,53.9999,0.106,-0.3996,-0.1111,157.205
16:27:32:151,0.9212,3.2949,5.482,51.3919,0.1378,-0.3813,-0.1257,157.6334
16:27:32:171,0.67,3.7424,5.6088,52.6004,0.0669,-0.4412,-0.138,158.1127
16:27:32:190,0.7346,4.2042,6.4702,50.1193,-0.1554,-0.5474,-0.1294,158.6202
16:27:32:212,1.1103,4.2425,7.7623,52.5046,-0.4474,-0.5316,-0.1196,159.1171
16:27:32:235,1.2562,4.8287,9.4588,52.2734,-0.6722,-0.3031,-0.1257,159.4901
16:27:32:256,1.3615,5.5944,11.5908,52.2734,-0.8274,-0.0783,-0.1233,159.7513
16:27:32:270,2.735,5.5729,13.7133,50.5506,-0.9215,-0.1027,-0.1062,160.0414
16:27:32:294,6.9535,3.4433,19.7527,50.4102,-1.3845,-1.5309,-0.4055,161.892
16:27:32:317,6.6688,1.6726,21.3871,51.5122,-1.3026,-1.658,-0.871,163.8211
16:27:32:334,4.008,1.9932,17.4652,50.7209,-0.379,-0.4326,-1.2143,165.4139
16:27:32:354,2.3402,2.6943,11.8947,50.7532,0.5874,1.1116,-1.1361,166.1266
16:27:32:372,1.5027,3.4768,8.1739,50.5652,0.8537,1.7408,-0.9125,166.4065
16:27:32:391,0.9834,4.0199,6.5444,51.1064,0.6656,1.4586,-0.8148,166.6693
16:27:32:416,0.5264,4.3908,5.7834,50.7051,0.4139,0.6437,-0.8172,167.271
16:27:32:430,0.3135,4.319,4.9173,51.4376,0.2343,-0.1797,-0.838,168.2699
16:27:32:451,0.0718,4.0511,4.2401,51.6568,0.0315,-0.6122,-0.8612,169.4767
16:27:32:470,-0.3589,3.8477,4.4363,51.2754,-0.2581,-0.5914,-0.8722,170.6758
16:27:32:490,-0.9739,3.7184,4.9364,52.1327,-0.4987,-0.3605,-0.8221,171.6964
16:27:32:510,-1.5386,3.6586,5.0608,50.575,-0.5843,-0.1455,-0.6963,172.4796
16:27:32:536,-1.7874,3.9194,5.1685,51.564,-0.5219,-0.0013,-0.5179,173.0164
16:27:32:553,-1.6534,4.2903,5.4413,50.6102,-0.4034,-0.0233,-0.3298,173.3524
16:27:32:571,-1.3041,4.6086,5.8337,50.6102,-0.2776,-0.2212,-0.1929,173.6627
16:27:32:589,-0.8829,4.7115,6.1926,50.6102,-0.1945,-0.4839,-0.1319,174.0353
16:27:32:610,-0.6006,4.5823,6.743,50.6102,-0.1713,-0.5975,-0.1233,174.4542
16:27:32:632,-0.6054,4.5679,7.5709,50.6102,-0.186,-0.4375,-0.138,174.817
16:27:32:650,-0.6006,4.4315,8.6525,50.6102,-0.1738,-0.1259,-0.1038,175.008
16:27:32:670,-0.5671,4.3549,9.8106,50.6102,-0.0858,0.166,-0.0341,175.0018
16:27:32:690,-0.5384,4.2856,10.7533,50.6102,0.0803,0.2858,0.0331,174.8754
16:27:32:709,-0.5384,4.3693,11.2176,50.6102,0.3222,0.199,0.1027,174.713
16:27:32:730,-0.1819,4.6636,11.2343,50.2874,0.4823,-0.132,0.1785,174.6267
16:27:32:750,0.6748,4.6445,11.5047,48.7649,0.4371,-0.5279,0.2261,174.6934
16:27:32:770,1.1844,4.8622,11.6722,47.8719,0.3002,-0.6158,0.2261,174.8237
16:27:32:791,1.7157,4.8263,11.6866,48.5338,0.2379,-0.1431,0.2346,174.7344
16:27:32:817,0.3206,3.9242,11.9593,47.5812,-0.015,0.7708,0.1125,173.8765
16:27:32:845,-1.206,4.0343,11.2247,47.5812,0.0376,0.9724,0.1064,173.3405
16:27:32:848,-1.7133,4.3621,9.8919,48.5445,0.332,1.2326,0.3165,172.4613
16:27:32:869,-1.1844,4.7306,9.5067,48.8368,0.486,1.1898,0.6024,171.3154
16:27:32:889,-0.067,4.5368,9.7603,49.4271,0.354,0.7354,0.7514,170.2792
16:27:32:912,0.2225,4.0582,10.4423,48.5003,0.0461,0.1648,0.6647,169.6157
16:27:32:933,0.2536,3.4648,10.9998,48.5191,-0.208,-0.0441,0.5645,169.1428
16:27:32:953,0.5216,3.0844,10.6433,49.1392,-0.2495,0.1721,0.6134,168.5386
16:27:32:971,0.9236,3.0054,9.7867,47.3645,-0.1676,0.5924,0.7245,167.6389
16:27:32:990,1.1342,2.8522,8.863,48.0337,-0.0919,0.9015,0.7881,166.5449
16:27:33:009,1.1486,2.723,8.1284,50.6188,-0.0296,0.9956,0.7942,165.413
16:27:33:033,1.151,2.6895,7.3986,49.6791,0.0913,0.9479,0.7954,164.312
16:27:33:050,1.1174,2.7182,6.4032,47.918,0.2795,0.7903,0.7966,163.3031
16:27:33:071,1.1174,2.7374,5.3216,48.8121,0.4664,0.5753,0.782,162.3518
16:27:33:091,1.2323,2.8283,4.3789,48.54,0.5739,0.3346,0.7478,161.5536
16:27:33:114,1.3783,2.9097,3.6395,50.1859,0.5715,0.1062,0.6928,160.9142
16:27:33:132,1.584,2.9599,3.1609,47.2014,0.4591,-0.0636,0.6146,160.465
16:27:33:153,1.797,3.0963,3.3021,47.968,0.2208,-0.1992,0.5181,160.1776
16:27:33:170,2.0794,2.9743,4.7593,47.0317,-0.1188,-0.3446,0.3996,160.0889
16:27:33:189,2.0459,2.7278,7.3196,47.3796,-0.401,-0.5389,0.2346,160.2683
16:27:33:210,1.9621,2.7829,9.4182,47.5832,-0.3607,-0.6843,0.0844,160.6552
16:27:33:231,1.9789,3.3332,9.88,49.3977,0.0364,-0.6549,-0.0085,161.0854
16:27:33:250,1.8712,4.0439,8.5089,49.3977,0.4603,-0.534,-0.1245,161.5793
16:27:33:269,1.4165,4.8215,8.485,49.183,-0.1163,-0.33,-0.4715,162.2396
16:27:33:291,1.1653,5.2188,9.7986,48.3936,-0.6392,0.2039,-0.5069,163.3496
16:27:33:312,1.3591,5.5968,11.5956,49.6727,-1.0803,0.6071,-0.4996,163.6429
16:27:33:332,2.2516,5.3216,13.4118,47.1567,-1.3833,0.6315,-0.5692,164.0329
16:27:33:351,2.4718,4.3956,15.1801,48.3016,-1.569,0.2002,-0.8576,164.959
16:27:33:370,1.3663,3.1154,17.013,50.4834,-1.5934,-0.2921,-1.2339,166.4344
16:27:33:390,-0.3613,2.4598,16.922,48.9411,-1.2293,-0.319,-1.3963,168.0589
16:27:33:412,-1.73,2.6273,14.3665,49.3948,-0.5281,0.1025,-1.1948,169.2612
16:27:33:434,-1.7779,3.125,11.7392,49.8068,0.0193,0.4348,-0.7159,169.8557
16:27:33:450,-0.9212,3.4074,10.6528,50.228,0.1854,0.3151,-0.265,170.0471
16:27:33:470,0.4427,3.472,10.6887,48.8718,0.1646,-0.1455,0.0111,170.1732
16:27:33:489,1.407,3.4146,9.9637,50.7888,0.2318,-0.578,0.0978,170.3617
16:27:33:509,1.8712,3.3787,8.4371,50.3151,0.3797,-0.6403,0.0367,170.6557
16:27:33:529,1.6798,3.3356,6.932,50.4147,0.4322,-0.3593,-0.0928,170.996
16:27:33:550,0.9691,3.2997,5.8528,51.5014,0.3772,0.0768,-0.2345,171.2978
16:27:33:570,0.1651,3.2925,5.2905,52.7483,0.3015,0.3859,-0.3237,171.5364
16:27:33:590,-0.2201,3.4217,5.0177,52.1534,0.2599,0.4238,-0.3127,171.7419
16:27:33:723,-0.2895,3.5749,4.8814,53.2998,0.2624,0.2381,-0.2504,171.9369
16:27:33:723,-0.1747,3.6897,4.8742,53.7525,0.2722,-0.0612,-0.2052,172.1999
16:27:33:724,-0.1388,3.7998,4.8574,53.433,0.2599,-0.2933,-0.1917,172.5359
16:27:33:724,-0.1866,4.0295,4.8479,53.2998,0.1989,-0.3434,-0.1832,172.884
16:27:33:724,-0.402,4.0367,5.5849,52.8577,0.0437,-0.2078,-0.171,173.1635
16:27:33:725,-0.8231,4.1444,7.0947,53.9299,-0.12,0.0048,-0.1526,173.3523
16:27:33:735,-1.072,4.4698,9.9326,53.5235,-0.0846,0.0866,0.0563,173.4146
16:27:33:750,-1.0385,4.6588,10.6648,53.4063,0.1414,-0.0319,0.1345,173.163
16:27:33:769,-1.06,4.7067,10.7055,53.3841,0.4187,-0.1162,0.1528,173.0939
16:27:33:789,-0.8782,4.788,10.5978,54.6171,0.5715,-0.1052,0.1882,172.9766
16:27:33:810,-0.0933,4.8455,11.1314,55.1602,0.5348,-0.0355,0.2395,172.7946
16:27:33:832,0.5862,4.7569,12.792,54.0575,0.2966,-0.1345,0.2212,172.7107
16:27:33:849,0.7131,4.2999,13.8401,55.3255,0.1451,-0.1565,0.1015,172.7711
16:27:33:869,0,4.0463,12.2465,57.2158,0.3564,0.2931,-0.006,172.7066
16:27:33:889,-0.8159,4.3549,9.9685,56.4491,0.5983,0.9247,0.0453,172.2665
16:27:33:910,-1.4955,4.6947,8.4395,56.4797,0.5983,1.2803,0.1833,171.4966
16:27:33:930,-2.187,5.2522,7.0851,59.1063,0.5238,1.422,0.286,170.5262
16:27:33:952,-2.144,5.8887,6.6712,56.9049,0.3247,1.2888,0.3617,169.5058
16:27:33:970,-1.4405,5.5585,7.9872,55.9169,-0.1335,0.7182,0.3421,168.8491
16:27:33:989,-0.9356,4.386,11.5095,57.4008,-0.6954,-0.1186,0.154,168.826
16:27:34:010,-0.9356,2.9767,15.5366,56.8596,-1.0107,-0.9482,-0.0879,169.4539
16:27:34:032,-1.3017,2.0004,16.0391,58.1603,-0.6576,-1.1131,-0.2052,170.254
16:27:34:050,-2.0602,1.7922,13.072,58.5296,0.1561,-0.3263,-0.039,170.473
16:27:34:070,-2.1272,2.4072,9.9972,57.786,0.6765,0.7854,0.4155,169.7303
16:27:34:090,-1.2036,2.9815,8.7147,58.5296,0.6973,1.4623,0.9213,168.1812
16:27:34:113,0.0407,3.2112,7.9777,58.5886,0.5935,1.5637,1.2023,166.3343
16:27:34:133,0.7394,3.4863,7.1497,59.5264,0.5959,1.2595,1.1827,164.6669
16:27:34:151,0.859,3.7878,5.8696,58.006,0.6716,0.8587,1.019,163.3558
16:27:34:171,0.8997,3.6873,4.4028,57.5733,0.5788,0.4543,0.7539,162.3193
16:27:34:189,0.9165,3.6419,4.544,60.5998,0.4322,0.3456,0.6903,161.3824
16:27:34:209,1.1749,3.6634,4.5918,59.7173,0.3442,0.1844,0.6647,160.6519
16:27:34:232,1.596,3.8046,4.5033,58.798,0.3222,-0.0282,0.6329,159.5977
16:27:34:249,1.9908,3.9338,4.3023,57.8901,0.3039,-0.2225,0.5474,159.3547
16:27:34:269,2.0267,4.1109,4.1826,59.7096,0.2697,-0.3177,0.3935,159.317
16:27:34:292,1.6558,4.3454,3.8692,59.4603,0.2233,-0.3385,0.209,159.452
16:27:34:312,1.0576,4.7928,3.8955,59.437,0.1255,-0.3544,0.0331,159.7393
16:27:34:331,0.7849,5.0106,5.0106,62.4689,-0.1029,-0.5108,-0.1209,160.2546
16:27:34:351,0.8758,4.8598,7.2359,60.8939,-0.4768,-0.8064,-0.2577,161.093
16:27:34:368,0.8662,4.8646,9.8919,60.5948,-0.8433,-0.8981,-0.3713,162.1115
16:27:34:388,0.2584,5.2355,12.0144,58.8308,-1.0778,-0.6672,-0.5204,163.1148
16:27:34:412,0.2752,5.5155,12.6126,60.9106,-1.1157,-0.1333,-0.634,163.913
16:27:34:429,0.201,5.7739,13.5482,60.9941,-1.1682,0.3701,-0.7561,164.5884
16:27:34:449,-0.4211,4.9914,15.8381,61.3054,-1.3283,0.3859,-0.9748,165.4685
16:27:34:469,-1.4524,3.8501,17.5657,61.0376,-1.2746,0.0622,-1.1691,166.6947
16:27:34:489,-2.211,3.015,17.4341,63.6087,-0.8506,-0.2347,-1.1508,168.048
16:27:34:509,-2.2158,2.6824,15.5869,61.209,-0.2996,-0.3739,-0.882,169.1618
16:27:34:531,-1.5147,2.7876,13.0026,62.3353,0.1622,-0.3239,-0.474,169.8639
16:27:34:549,-0.4594,3.2399,10.3753,63.8445,0.4383,-0.1992,-0.0989,170.1446
16:27:34:571,0.4929,3.7304,8.1643,62.4451,0.5116,-0.1541,0.1039,170.2224
16:27:34:589,1.2634,3.9482,6.1998,60.8801,0.409,-0.1565,0.1076,170.3055
16:27:34:609,1.3161,4.0104,5.202,62.1818,0.1488,-0.1137,-0.0537,170.5397
16:27:34:631,0.0598,3.5294,5.9605,61.215,-0.3986,-0.0087,-0.4544,170.9807
16:27:34:650,-0.5288,3.4289,6.2692,63.771,-0.3741,-0.0331,-0.4984,172.033
16:27:34:669,-0.8112,3.527,5.6112,62.8216,-0.1615,-0.165,-0.4275,172.5994
16:27:34:688,-0.737,3.7137,4.5942,64.6095,0.0522,-0.3043,-0.2968,173.0804
16:27:34:709,-0.5767,4.0128,4.1898,63.6921,0.0974,-0.3373,-0.1697,173.4575
16:27:34:732,-0.6437,4.252,4.5368,63.433,0.0095,-0.2945,-0.1099,173.7532
16:27:34:749,-0.7394,4.398,5.3862,63.311,-0.0895,-0.2554,-0.0903,174.0087
16:27:34:771,-0.804,4.5344,6.0849,63.761,-0.1212,-0.2799,-0.0781,174.2394
16:27:34:790,-0.8877,4.6708,6.9129,63.6921,-0.12,-0.3361,-0.072,174.5239
16:27:34:808,-1.0337,4.611,8.4132,62.8434,-0.1359,-0.3703,-0.0647,174.7969
16:27:34:830,-1.2802,4.4794,9.8536,64.8071,-0.0712,-0.3397,-0.0378,175.0374
16:27:34:851,-1.6199,4.6086,10.8706,63.9417,0.1182,-0.3312,0.0025,175.1924
16:27:34:869,-1.4836,4.6397,11.4185,63.9166,0.3345,-0.4008,0.0941,175.3063
16:27:34:888,-0.8136,4.8383,12.0335,63.7046,0.4872,-0.4668,0.2261,175.3364
16:27:34:909,0.0694,4.9651,12.9117,64.225,0.5128,-0.4998,0.3214,175.3406
16:27:34:928,0.5575,5.0489,13.0002,64.2074,0.5397,-0.3446,0.3238,175.2802
16:27:34:951,0.5527,5.726,11.0644,64.264,0.668,0.21,0.2737,175.0092
16:27:34:968,0.6437,5.9821,9.5641,64.8511,0.6216,0.9015,0.22,174.4708
16:27:34:988,-0.3254,5.6016,10.0642,64.5902,0.2379,1.0982,0.0709,173.9307
16:27:35:009,-2.0219,5.2475,10.0164,64.9878,0.0425,1.086,-0.094,173.5026
16:27:35:028,-3.2231,5.6064,8.5878,63.2564,0.1805,1.2045,-0.0928,172.9785
16:27:35:050,-3.6826,6.0299,7.6523,66.0436,0.1524,1.1104,0.0441,172.3433
16:27:35:070,-3.1896,5.3839,9.7819,65.2106,-0.3228,0.5203,0.1858,171.9042
16:27:35:090,-0.8447,2.8331,13.9621,66.1368,-0.8775,-0.8162,0.2578,171.8987
16:27:35:114,-0.8662,2.5172,12.1053,64.0143,-0.4548,-0.4399,0.2566,172.0458
16:27:35:130,-1.2275,2.4646,10.0092,63.201,-0.1212,0.3505,0.3861,171.6225
16:27:35:154,-0.938,2.4837,8.8008,63.7756,-0.0186,1.0322,0.6549,170.5879
16:27:35:169,-0.3613,2.4981,8.4562,64.5285,-0.0296,1.2741,0.8748,169.2642
16:27:35:188,0.3685,2.3809,8.4658,63.3372,0.0278,1.0958,0.9811,167.9198
16:27:35:210,0.9141,2.4646,8.0327,63.6199,0.2587,0.7072,0.9933,166.7499
16:27:35:230,1.2419,2.6034,6.8602,65.0534,0.5813,0.3346,0.9322,165.8257
16:27:35:248,1.3663,2.7829,5.3839,63.0663,0.8305,0.0854,0.8357,165.1153
16:27:35:268,1.3878,3.0508,4.1133,64.6198,0.9062,0.0329,0.7404,164.5159
16:27:35:288,1.5386,3.3787,3.5868,63.2118,0.7914,0.1074,0.6451,163.9716
16:27:35:309,1.6199,3.5462,3.8261,63.7183,0.558,0.1147,0.512,163.5543
16:27:35:332,1.5721,3.5342,4.5823,64.4174,0.3284,-0.0502,0.3238,163.4374
16:27:35:352,1.261,3.4481,5.3743,64.9566,0.1989,-0.3532,0.121,163.6578
16:27:35:369,1.1294,3.4839,5.4197,63.9786,0.1927,-0.6635,-0.0353,164.1766
16:27:35:388,0.8853,3.8309,5.1924,65.0905,0.1658,-0.8358,-0.1538,164.9101
16:27:35:409,0.871,3.9625,5.7978,64.6563,-0.0748,-0.8651,-0.2724,165.7634
16:27:35:432,0.8064,3.8859,7.8365,62.2788,-0.5183,-0.7906,-0.3664,166.6694
16:27:35:449,0.4403,3.8309,10.1958,64.228,-0.9007,-0.6158,-0.4348,167.5305
16:27:35:469,0.3183,4.276,11.2678,64.3441,-0.9642,-0.3031,-0.4239,168.2026
16:27:35:488,1.072,4.5392,11.7057,63.5706,-0.9178,-0.115,-0.3835,168.796
16:27:35:509,2.1846,3.8285,13.3759,63.5566,-1.156,-0.4314,-0.5143,169.693
16:27:35:532,2.0459,2.6058,16.7976,64.8575,-1.6178,-1.008,-0.8344,171.1597
16:27:35:549,-0.7322,1.1821,18.1232,64.2008,-0.9948,-0.6574,-1.0701,172.8813
16:27:35:571,-1.2156,2.2899,14.0722,64.8025,-0.0504,-0.0001,-0.6096,174.8511
16:27:35:590,-0.079,3.192,10.4231,63.8989,0.4175,0.2467,-0.0781,174.9004
16:27:35:615,1.407,3.5844,8.3342,62.9993,0.3577,0.1758,0.2078,174.7355
16:27:35:630,2.0459,3.8979,7.2694,63.0054,0.1097,0.1905,0.1613,174.6343
16:27:35:649,1.6845,3.8931,6.5563,65.1409,-0.098,0.32,-0.0806,174.7261
16:27:35:671,0.6915,3.7831,5.9509,64.2355,-0.2031,0.4214,-0.3444,175.0227
16:27:35:688,-0.2034,3.7065,5.4102,63.9337,-0.2299,0.3872,-0.4923,175.4426
16:27:35:708,-0.8016,3.7376,5.0201,65.4202,-0.2239,0.2222,-0.5106,175.9303
16:27:35:848,-1.0289,3.7448,4.7569,64.2045,-0.2177,-0.016,-0.4605,176.4275
16:27:35:849,-1.0959,3.7926,4.7665,63.9362,-0.2324,-0.2469,-0.3994,176.9468
16:27:35:849,-1.2227,3.8309,5.1063,65.7524,-0.2776,-0.4057,-0.3542,177.4768
16:27:35:849,-1.3448,3.807,5.9533,64.9414,-0.3363,-0.4302,-0.3078,177.952
16:27:35:850,-1.4572,3.7998,7.1593,63.7157,-0.3607,-0.3666,-0.2455,178.3467
16:27:35:850,-1.3807,3.7807,8.5232,64.9149,-0.3301,-0.3434,-0.177,178.6747
16:27:35:850,-1.1174,3.7854,9.7484,64.6546,-0.2385,-0.4082,-0.1123,178.9634
16:27:35:868,-0.7729,3.5653,10.9161,64.8788,-0.1163,-0.4986,-0.0769,179.2606
16:27:35:889,-0.5982,3.271,11.7368,65.2173,0.0388,-0.4863,-0.0439,179.5082
16:27:35:908,-0.8542,3.4696,11.5358,64.4062,0.3088,-0.2689,0.0245,179.6088
16:27:35:928,-0.8351,4.0917,10.4925,65.8625,0.5983,0.0597,0.1442,179.4886
16:27:35:950,-0.4594,4.6612,9.7675,64.2798,0.7034,0.2955,0.2627,179.1672
16:27:35:969,0.3972,4.7761,10.0594,65.2869,0.5556,0.3383,0.3006,178.8067
16:27:35:989,0.6461,5.1206,11.2391,65.1104,0.2709,0.2418,0.2383,178.5699
16:27:36:012,-0.0861,4.0869,11.9593,66.1827,0.0034,0.4543,-0.0476,178.3339
16:27:36:030,-1.7396,3.8118,12.1747,67.3667,-0.0602,0.6254,-0.1086,178.2256
16:27:36:048,-2.6536,4.008,10.9256,66.8629,0.0962,0.9137,0.0441,177.8096
16:27:36:068,-2.7805,4.5727,9.1143,67.4506,0.2783,1.1141,0.2701,177.0933
16:27:36:088,-2.2325,4.5272,9.2698,67.1747,0.0583,0.8477,0.4106,176.3474
16:27:36:111,-1.6941,3.3858,12.0096,66.5695,-0.467,0.1941,0.4118,175.8997
16:27:36:129,-1.6056,2.3617,14.7972,66.5081,-0.7138,-0.3617,0.347,175.7464
16:27:36:148,-1.663,1.7037,14.7182,66.7703,-0.346,-0.3935,0.3959,175.5421
16:27:36:168,-1.7324,1.9669,12.055,66.4306,0.31,0.0524,0.6244,174.924
16:27:36:189,-1.017,2.2205,9.7029,67.6908,0.6436,0.4947,0.9518,173.8245
16:27:36:214,0.1077,2.3354,8.7123,66.0404,0.6118,0.6877,1.1778,172.494
16:27:36:232,1.0768,2.3761,8.2409,64.57,0.5128,0.673,1.2328,171.0891
16:27:36:252,1.4309,2.4598,7.6331,66.3144,0.5238,0.6095,1.1399,169.8352
16:27:36:268,1.4524,2.5508,6.6425,64.3096,0.6289,0.5387,0.9909,168.7416
16:27:36:288,1.4907,2.7135,5.671,65.3,0.7279,0.4678,0.8712,167.7961
16:27:36:311,1.7515,2.8546,4.9316,65.4915,0.7596,0.3774,0.7783,167.0045
16:27:36:330,1.8879,3.015,4.398,66.7062,0.7132,0.2357,0.6451,166.3929
16:27:36:351,1.8855,3.0604,4.0463,65.7104,0.591,0.0683,0.4606,166.0281
16:27:36:372,1.7013,3.0724,3.9529,65.5189,0.4249,-0.0624,0.2676,165.9401
16:27:36:388,1.4644,3.0867,4.3262,66.1246,0.2331,-0.1565,0.1003,166.0479
16:27:36:409,1.2251,3.1753,4.9531,68.6964,0.0742,-0.2396,-0.0268,166.3245
16:27:36:429,0.9452,3.2518,6.0371,66.9949,-0.0223,-0.4106,-0.127,166.7771
16:27:36:449,1.0265,3.1705,6.987,65.7104,-0.0956,-0.76,-0.2113,167.4941
16:27:36:467,1.8999,3.0676,8.9109,66.4228,-0.4205,-1.2756,-0.3469,168.469
16:27:36:488,1.9884,2.9647,9.9015,66.1032,-0.671,-0.9384,-0.4373,170.5275
16:27:36:510,1.8497,3.4744,10.1886,66.4905,-0.8225,-0.231,-0.4898,171.272
16:27:36:529,1.7946,3.8788,10.5117,65.2436,-0.9752,0.2589,-0.5472,171.8349
16:27:36:549,2.12,3.3906,12.4881,67.3294,-1.3038,0.1135,-0.7256,172.657
16:27:36:570,1.7204,2.6178,15.338,67.2594,-1.6337,-0.4546,-0.9944,173.9896
16:27:36:588,0.8734,1.7898,17.6231,68.1269,-1.5959,-0.7832,-1.174,175.5955
16:27:36:607,0.1149,1.5601,17.5107,67.8183,-1.101,-0.7307,-1.1141,177.0653
16:27:36:629,0.0981,1.9669,14.7398,69.0895,-0.3961,-0.4277,-0.8014,178.0879
16:27:36:648,1.0074,2.6345,11.799,67.9595,0.0791,-0.176,-0.4226,178.6572
16:27:36:667,1.8473,3.0915,9.6742,67.0108,0.2062,-0.1589,-0.2479,179.1026
16:27:36:687,2.1966,3.3763,8.2026,68.1997,0.1439,-0.2151,-0.3053,179.6308
16:27:36:708,1.9621,3.3811,7.2,68.7591,0.007,-0.2164,-0.5045,180.3597
16:27:36:729,1.3137,3.2136,6.7047,67.8693,-0.1457,-0.1724,-0.7366,181.2788
16:27:36:749,0.5456,3.0102,6.8004,69.4678,-0.2654,-0.1382,-0.8869,182.3186
16:27:36:768,0.0598,2.9001,6.8172,67.8855,-0.2568,-0.1553,-0.9297,183.3958
16:27:36:788,-0.1675,2.9719,6.2788,68.153,-0.1176,-0.2127,-0.8979,184.4709
16:27:36:807,-0.2058,3.1466,5.47,67.3652,0.0351,-0.286,-0.8478,185.5085
16:27:36:830,-0.2441,3.3643,4.9699,68.3487,0.0669,-0.3617,-0.8197,186.5426
16:27:36:848,-0.3039,3.4193,5.4628,68.0942,-0.043,-0.4057,-0.8075,187.573
16:27:36:871,-0.5719,3.4409,6.8961,68.2623,-0.1909,-0.4118,-0.8075,188.5921
16:27:36:891,-0.8231,3.3547,8.6812,68.7601,-0.2581,-0.4766,-0.7916,189.6027
16:27:36:915,-0.7489,3.3212,9.923,69.0864,-0.1933,-0.6073,-0.7281,190.5704
16:27:36:930,-0.481,3.4098,10.861,68.7577,0.1524,-0.4265,-0.5155,192.0688
16:27:36:950,-0.5623,3.4863,10.9185,70.0805,0.3088,-0.1528,-0.408,192.5359
16:27:36:969,-0.8231,3.4983,11.1625,69.8453,0.4175,0.0219,-0.2992,192.8283
16:27:36:988,-0.7489,3.7208,10.9543,68.6192,0.5421,0.0353,-0.1636,192.9568
16:27:37:010,-0.28,4.0271,10.5739,70.5811,0.6509,-0.0209,-0.0268,193.0034
16:27:37:028,-0.0885,4.4722,10.3681,68.718,0.6326,-0.0587,0.0331,192.9998
16:27:37:055,0.0861,4.8909,9.9087,69.6845,0.5202,0.0487,0.0538,192.9661
16:27:37:066,0.4953,4.6086,9.9781,69.3901,0.2783,0.2405,0.0379,192.8886
16:27:37:086,-0.1986,3.9242,11.1984,69.6845,-0.0712,0.2723,-0.0708,192.8554
16:27:37:106,-2.0746,3.594,11.1817,70.1724,-0.1359,0.436,-0.1648,192.8159
16:27:37:127,-3.2207,4.075,9.6072,70.5666,0.1524,0.8172,-0.0561,192.4828
16:27:37:147,-3.3188,4.6134,7.9394,70.1743,0.2819,0.8807,0.1772,191.8918
16:27:37:168,-2.333,4.2496,9.3392,71.0669,-0.1029,0.4348,0.3556,191.3099
16:27:37:188,-1.1294,2.9982,13.0217,68.8843,-0.7089,-0.2945,0.4301,190.9602
16:27:37:213,-0.079,2.01,15.0365,68.3289,-0.8164,-0.5853,0.4289,190.7293
16:27:37:230,0.0191,1.8903,13.0887,69.7529,-0.3289,-0.1223,0.4179,190.332
16:27:37:249,-0.39,2.1296,10.5308,68.8018,0.0828,0.7012,0.4643,189.59
16:27:37:269,-0.5168,2.0578,9.5378,70.2092,0.0889,1.2253,0.5853,188.5642
16:27:37:288,-0.0838,1.9573,9.8177,69.1581,-0.0101,1.2803,0.7245,187.3849
16:27:37:307,0.4929,1.8449,9.9302,68.6279,0.0657,0.9382,0.8137,186.2493
16:27:37:331,0.938,1.9693,8.7841,69.1581,0.3955,0.5179,0.8296,185.2721
16:27:37:348,1.3878,2.1559,6.8052,69.8679,0.7425,0.2699,0.8223,184.4051
16:27:37:369,1.7276,2.3761,5.2379,71.3481,0.872,0.276,0.7979,183.5615
16:27:37:388,2.0315,2.9001,4.276,68.952,0.5947,0.4751,0.6476,182.726
16:27:37:409,2.0028,2.9982,4.5823,71.3659,0.4004,0.3676,0.4924,181.3904
16:27:37:430,1.7324,2.9982,5.1709,68.1372,0.2734,0.0988,0.3104,181.1273
16:27:37:448,1.5721,3.0365,5.5609,68.5614,0.2563,-0.2151,0.1797,181.1391
16:27:37:469,1.4716,3.2399,5.4054,70.5212,0.3247,-0.4192,0.1027,181.3007
16:27:37:493,1.2682,3.4409,5.3695,69.2417,0.3259,-0.6122,0.0221,181.6457
16:27:37:509,1.3998,3.5533,5.9581,69.0448,0.1426,-0.942,-0.061,182.208
16:27:37:529,1.8951,3.4552,7.3005,70.2647,-0.2202,-1.3306,-0.1429,183.0558
16:27:37:548,2.3091,2.948,9.1143,69.4829,-0.6368,-1.4051,-0.2259,184.0075
16:27:37:567,1.9501,3.0652,11.0309,69.4278,-0.8909,-0.9567,-0.2834,184.772
16:27:37:592,1.9478,3.4744,12.2776,68.7921,-0.919,-0.3849,-0.2443,185.2424
16:27:37:612,2.5101,3.5701,13.0481,69.3514,-0.8775,-0.3275,-0.2015,185.6461
16:27:37:631,3.1202,3.5629,13.5242,69.9835,-0.864,-0.7038,-0.2919,186.2888
16:27:37:652,3.137,2.9886,13.7898,69.3369,-0.897,-0.9848,-0.5033,187.2444
16:27:37:673,2.3833,2.5172,14.2134,70.6293,-0.9557,-0.8969,-0.7024,188.3141
16:27:37:687,1.73,2.2038,14.4,69.7832,-0.941,-0.6049,-0.7366,189.2951
16:27:37:709,1.3256,2.12,13.6487,69.1993,-0.759,-0.253,-0.6376,190.0444
16:27:37:730,0.9739,2.4503,12.1986,70.2696,-0.467,0.0133,-0.5069,190.5615
16:27:37:747,0.9404,2.7517,10.617,68.9618,-0.2141,0.0121,-0.4116,190.9961
16:27:37:767,1.1103,2.8929,9.3344,70.1721,-0.0895,-0.1748,-0.375,191.4511
16:27:37:787,1.1797,2.9551,8.4203,69.2809,-0.0821,-0.3092,-0.4031,191.9895
16:27:37:809,1.0409,2.9288,7.8796,68.057,-0.1408,-0.275,-0.469,192.5909
16:27:37:830,0.0598,2.8211,7.4273,70.1818,-0.2226,0.061,-0.5668,193.1908
16:27:37:962,-0.3159,2.8522,6.9679,70.402,-0.1371,0.1844,-0.5204,194.2039
16:27:37:963,-0.3661,3.07,6.384,69.4773,-0.0076,0.2173,-0.4165,194.5443
16:27:37:963,-0.2345,3.2184,6.0179,69.7,0.0742,0.1562,-0.3163,194.8044
16:27:37:964,-0.1388,3.4002,5.9318,70.6145,0.0852,0.061,-0.2553,195.038
16:27:37:965,-0.0598,3.3954,6.2931,68.9075,0.04,-0.0135,-0.2198,195.2471
16:27:37:965,-0.0598,3.4911,6.7238,69.1278,0.007,-0.038,-0.1734,195.4286
16:27:37:966,0.0885,3.5462,7.3723,69.5295,-0.0052,-0.0734,-0.1086,195.5483
16:27:37:987,0.5575,3.5581,8.0973,70.8171,-0.015,-0.1541,-0.0243,195.6187
16:27:38:015,1.0241,3.5797,8.9348,71.3375,0.0009,-0.198,0.0355,195.6484
16:27:38:028,1.3352,3.4529,10.1169,69.7212,0.0351,-0.2518,0.0355,195.6879
16:27:38:050,1.2514,3.271,11.1769,69.3362,0.1255,-0.319,-0.0048,195.7639
16:27:38:067,0.7657,3.1154,12.1244,69.9736,0.2917,-0.3459,-0.039,195.855
16:27:38:087,0.7992,2.9408,12.4092,69.831,0.5018,-0.3177,0.0306,195.8718
16:27:38:106,1.4381,3.2686,11.6722,68.4686,0.7193,-0.2347,0.1931,195.7126
16:27:38:129,1.9549,4.1157,10.215,69.1026,0.8158,-0.0771,0.297,195.445
16:27:38:148,2.1559,4.7617,9.0114,70.3249,0.7047,0.2222,0.2676,195.0989
16:27:38:167,1.7348,5.0082,9.545,69.388,0.3369,0.425,0.1174,194.8322
16:27:38:188,0.6652,4.5511,11.4927,69.4484,-0.1151,0.3188,-0.0952,194.7696
16:27:38:207,-0.4546,3.9577,12.9069,69.831,-0.2886,0.1856,-0.2418,194.8632
16:27:38:232,-1.1486,3.6419,12.9667,69.7159,-0.1713,0.199,-0.2357,194.9336
16:27:38:252,-1.151,3.1394,13.3089,70.1555,-0.0736,0.221,-0.1306,194.8712
16:27:38:267,-0.6437,2.6034,14.2134,69.4093,-0.1078,0.1001,0.0062,194.7302
16:27:38:289,0.1579,2.2804,12.6365,69.1986,0.1732,0.353,0.2847,194.4555
16:27:38:312,0.2225,2.5627,10.2102,68.9108,0.4224,0.86,0.4069,193.2041
16:27:38:332,0.2728,2.7374,8.5041,69.9835,0.4933,1.224,0.5107,192.1993
16:27:38:355,0.6365,2.8092,7.5661,70.3505,0.4469,1.2937,0.5865,191.0887
16:27:38:368,1.0959,2.8259,6.9583,69.7115,0.4041,1.1239,0.606,190.0466
16:27:38:386,1.3591,2.8163,6.3888,68.9217,0.4127,0.8795,0.5462,189.1591
16:27:38:410,1.2323,2.7422,6.1185,69.1187,0.4273,0.6853,0.4314,188.4862
16:27:38:428,0.9284,2.6106,5.8792,69.996,0.4395,0.5032,0.3287,187.9645
16:27:38:448,0.7298,2.5579,5.8074,69.0923,0.4578,0.3212,0.2811,187.5492
16:27:38:467,0.7418,2.4933,5.7811,70.5678,0.4652,0.1233,0.2676,187.2344
16:27:38:486,0.9906,2.4526,5.7476,69.7346,0.4603,-0.0368,0.2713,186.9862
16:27:38:508,1.1773,2.4646,5.8672,70.5463,0.4322,-0.0685,0.2627,186.7814
16:27:38:527,1.1581,2.668,6.0347,69.7708,0.4127,0.0085,0.2371,186.5496
16:27:38:548,1.2275,2.9503,5.994,70.0437,0.4163,0.0317,0.2004,186.3659
16:27:38:566,1.084,3.2112,6.2213,69.7292,0.387,-0.121,0.1381,186.3132
16:27:38:587,1.0624,3.2279,6.9583,70.0806,0.2795,-0.4509,0.0575,186.4772
16:27:38:607,1.2108,3.0939,8.0279,69.3853,0.1109,-0.8492,-0.0085,186.8908
16:27:38:626,1.6893,2.8594,8.6644,69.3853,-0.0809,-1.0508,-0.039,187.4482
16:27:38:647,1.7946,3.1633,8.9635,71.1778,-0.2581,-0.8113,-0.0561,187.9107
16:27:38:668,1.8951,3.5653,9.3894,69.9654,-0.4426,-0.3006,-0.0659,188.1446
16:27:38:687,2.2612,3.7807,10.4399,69.9757,-0.6661,0.0194,-0.0928,188.2501
16:27:38:712,3.0317,3.6706,11.9785,71.4756,-0.8909,-0.1846,-0.1722,189.2558
16:27:38:730,2.9145,2.3282,13.5577,71.1709,-1.0901,-0.9054,-0.6389,190.2765
16:27:38:752,2.0315,1.6534,14.5651,71.7945,-1.1585,-0.8602,-0.7782,191.389
16:27:38:769,1.1342,1.1629,14.5125,70.0126,-1.0473,-0.4937,-0.7146,192.2477
16:27:38:790,0.603,1.4644,13.3089,71.3894,-0.7345,-0.0307,-0.4898,192.6941
16:27:38:813,1.0146,1.8951,11.8588,70.224,-0.4364,0.1294,-0.2064,192.806
16:27:38:828,1.3687,2.3426,10.4758,71.1797,-0.2055,0.0158,-0.0598,192.8392
16:27:38:847,1.3926,2.6656,8.9348,70.224,-0.0211,-0.1443,-0.0561,192.942
16:27:38:868,1.3137,2.9719,7.2694,70.796,0.0779,-0.1638,-0.1099,193.1075
16:27:38:886,1.005,3.2638,6.3051,68.9365,0.0327,-0.0478,-0.188,193.3123
16:27:38:908,0.6796,3.393,5.9246,70.2481,-0.0882,0.1049,-0.2589,193.5414
16:27:38:932,0.3087,3.5988,5.7188,69.2717,-0.1579,0.2259,-0.3041,193.7818
16:27:38:950,0.0742,3.7854,5.4676,69.8929,-0.1652,0.243,-0.3249,194.0373
16:27:38:967,-0.0502,3.9051,5.4485,70.629,-0.1848,0.1453,-0.3396,194.3268
16:27:38:986,-0.146,3.9266,5.6734,72.478,-0.2422,0.0109,-0.3554,194.675
16:27:39:006,-0.3517,3.8692,6.597,69.6722,-0.3082,-0.0526,-0.3664,195.0336
16:27:39:028,-0.5097,3.7232,7.4082,70.2607,-0.3314,-0.0429,-0.3408,195.3492
16:27:39:047,-0.7513,3.7567,8.8128,70.4238,-0.2703,0.0145,-0.2626,195.5627
16:27:39:067,-0.6676,3.6802,9.7244,70.1167,-0.1139,-0.0025,-0.1343,195.6311
16:27:39:088,-0.3517,3.7998,9.5952,69.7,0.1708,-0.0307,0.0111,195.5794
16:27:39:110,0.1101,3.9051,9.6311,71.582,0.3882,-0.0478,0.1271,195.4189
16:27:39:128,0.4379,3.9984,10.0307,70.0194,0.4798,-0.0966,0.1882,195.2183
16:27:39:159,0.3422,4.1492,10.684,69.314,0.5458,-0.1247,0.1919,194.7741
16:27:39:167,1.1773,4.5105,10.4566,71.0391,0.6985,-0.0856,0.2188,194.5483
16:27:39:187,1.5912,4.8215,10.593,70.8087,0.5568,-0.0429,0.1711,194.3785
16:27:39:207,1.6008,5.0106,10.3537,70.8087,0.3882,0.3297,0.0722,194.2086
16:27:39:226,0.5886,5.001,9.9733,70.8087,0.2514,0.8795,-0.094,193.9476
16:27:39:247,-1.2251,4.7139,10.5093,70.8443,0.0718,1.1153,-0.2687,193.7133
16:27:39:267,-3.1537,4.6038,10.8323,71.7469,0.0193,1.0982,-0.3212,193.4851
16:27:39:287,-4.2736,4.8526,10.4901,70.5873,0.1121,0.9858,-0.1978,193.1497
16:27:39:307,-3.8309,4.5631,11.5382,72.3362,0.0058,0.5973,0.0465,192.7193
16:27:39:330,-2.7254,3.606,14.8211,69.9181,-0.3631,-0.1541,0.2261,192.4154
16:27:39:348,-1.4429,2.1081,18.0515,72.8394,-0.572,-0.7906,0.2921,192.3221
16:27:39:370,-0.7226,1.3161,17.0871,71.4969,-0.1676,-0.5706,0.3556,192.0854
16:27:39:387,-0.9739,1.4668,13.9908,69.6247,0.4273,0.3847,0.5107,191.3406
16:27:39:407,-0.8566,1.6295,11.4329,70.1459,0.6936,1.3413,0.8064,189.9478
16:27:39:426,-0.5001,1.8353,9.6622,71.0717,0.7596,1.7958,1.0874,188.0915
16:27:39:448,0.201,1.9214,8.0806,71.5403,0.8268,1.7616,1.256,186.1058
16:27:39:469,0.8088,2.0937,6.6855,70.6577,0.8891,1.4965,1.3,184.1744
16:27:39:487,1.1677,2.2062,5.6112,69.9757,0.8916,1.2411,1.2536,182.41
16:27:39:506,1.3854,2.3713,5.0058,70.587,0.8305,1.0677,1.1741,180.7772
16:27:39:528,1.5625,2.4909,4.6804,68.8392,0.7486,0.9211,1.0874,179.3202
16:27:39:548,1.7037,2.5819,4.4148,69.6675,0.6668,0.7366,0.9836,178.0632
16:27:39:566,1.7515,2.656,4.3238,69.7292,0.5825,0.5362,0.8504,177.0094
16:27:39:586,1.7635,2.7159,4.3741,70.0102,0.4872,0.3517,0.7062,176.2072
16:27:39:606,1.5912,2.7446,4.8192,69.6675,0.4041,0.2186,0.5718,175.6132
16:27:39:628,1.4118,2.8953,4.8885,70.4638,0.376,0.1147,0.4656,175.158
16:27:39:646,1.0504,3.2112,4.8263,71.3464,0.3833,0.0219,0.3654,174.8389
16:27:39:666,1.1318,3.4672,6.4152,68.9728,0.172,-0.6647,0.2139,174.7106
16:27:39:686,1.8377,3.2853,7.9585,68.3303,-0.1188,-1.3635,0.1235,174.9251
16:27:39:707,2.455,2.9097,9.655,68.2917,-0.4499,-1.6959,-0.0036,176.6631
16:27:39:731,2.5747,2.9623,10.349,68.2916,-0.5904,-1.1473,-0.1135,177.472
16:27:39:747,2.5699,3.7687,9.7197,69.184,-0.5696,-0.1956,-0.1624,177.8199
16:27:39:770,3.3499,4.1492,9.9111,70.0147,-0.7761,0.144,-0.254,178.1082
16:27:39:786,3.8142,3.3906,12.2106,68.7789,-1.2904,-0.3141,-0.5961,178.9865
16:27:39:806,2.4694,1.9908,15.2925,69.9707,-1.6948,-0.782,-1.1105,180.5244
16:27:39:827,0.5145,1.3735,17.2905,72.1942,-1.5995,-0.837,-1.367,182.2628
16:27:39:848,-0.3015,1.5673,15.9649,70.3446,-0.9825,-0.6195,-1.1606,183.672
16:27:39:868,0.4594,2.3234,12.6844,68.8326,-0.3253,-0.4045,-0.7183,184.5613
16:27:39:887,1.5601,2.9216,10.3537,71.8591,-0.1188,-0.3862,-0.4385,185.1918
16:27:39:906,2.0339,3.2638,9.0903,69.8686,-0.2336,-0.3837,-0.4336,185.8346
16:27:39:926,1.7659,3.4385,7.9825,70.2222,-0.3937,-0.2518,-0.5937,186.5896
16:27:39:948,1.0696,3.4863,7.2814,72.0704,-0.5305,-0.0722,-0.7867,187.4458
16:27:40:044,0.3709,3.472,7.1067,71.7462,-0.6454,-0.0025,-0.9235,188.3967
16:27:40:045,-0.2847,3.3858,7.2407,71.3522,-0.682,-0.049,-0.9846,189.4186
16:27:40:045,-0.9452,3.4146,7.133,70.6488,-0.5843,-0.1589,-0.9748,190.4416
16:27:40:045,-1.3137,3.5773,6.5133,71.9206,-0.3949,-0.3104,-0.893,191.4121
16:27:40:046,-1.5482,3.8142,5.793,69.7333,-0.2373,-0.4497,-0.7855,192.3063
16:27:40:074,-1.6726,4.008,5.4269,69.772,-0.2092,-0.4961,-0.6804,193.1138
16:27:40:086,-1.7946,4.1348,5.9557,70.5431,-0.2898,-0.4302,-0.568,193.7804
16:27:40:105,-1.9262,4.1372,7.1617,72.4691,-0.3705,-0.3605,-0.4642,194.3034
16:27:40:126,-2.1344,4.1946,9.2554,69.697,-0.1701,-0.4082,-0.2125,194.6993
16:27:40:150,-1.9406,4.2186,9.4804,69.869,0.0498,-0.4082,-0.0708,195.0894
16:27:40:167,-1.9908,4.3095,9.8728,71.7313,0.1805,-0.3385,0.0257,195.0474
16:27:40:187,-2.0889,4.2018,10.8754,70.864,0.2135,-0.2579,0.1125,194.9054
16:27:40:213,-1.8449,4.1563,11.7057,70.9999,0.2734,-0.1675,0.2249,194.6107
16:27:40:229,-1.1079,4.13,12.7633,71.389,0.3174,-0.1626,0.3434,194.2027
16:27:40:248,-0.2823,4.0822,14.0626,71.9995,0.2966,-0.2774,0.3959,193.7996
16:27:40:265,0.1172,4.0008,13.864,71.5411,0.3931,-0.1687,0.3605,193.4272
16:27:40:285,0.2345,4.252,11.9785,71.1798,0.58,0.3664,0.2982,192.9426
16:27:40:306,-0.4594,4.0391,11.4808,71.3622,0.4774,0.9125,0.22,192.334
16:27:40:327,-2.0052,3.685,12.3278,72.478,0.2563,1.2204,0.154,191.638
16:27:40:345,-3.1848,3.6658,11.7105,71.5585,0.3674,1.3462,0.2188,190.7856
16:27:40:365,-3.7041,4.118,10.2341,72.1345,0.5861,1.2045,0.3935,189.8089
16:27:40:385,-3.0796,4.0582,10.7342,70.2042,0.4359,0.7317,0.5902,188.817
16:27:40:405,-1.9884,3.0963,13.3711,72.7076,0.0083,0.1685,0.6903,187.9551
16:27:40:426,-1.4142,2.053,15.618,70.8247,-0.1958,-0.0478,0.6574,187.2158
16:27:40:445,-1.261,1.3567,14.6034,71.7563,0.0816,0.2797,0.6574,186.3812
16:27:40:465,-1.3543,1.5147,12.0048,71.3707,0.4786,1.0078,0.8125,185.1026
16:27:40:484,-0.9858,1.5721,10.0929,71.5677,0.5861,1.6211,1.0764,183.3449
16:27:40:504,-0.3996,1.6654,9.2985,70.8915,0.5238,1.8667,1.289,181.2781
16:27:40:535,0.4762,1.6774,8.7529,71.4751,0.5067,1.7543,1.4393,179.1187
16:27:40:549,1.2227,1.8903,8.138,69.3429,0.5947,1.4525,1.4845,177.0584
16:27:40:566,1.7731,1.9286,7.1402,70.8501,0.7486,1.1397,1.4442,175.1744
16:27:40:586,2.0124,2.1105,5.3958,70.2588,0.9417,0.7867,1.2328,173.4901
16:27:40:611,1.986,2.2349,4.8,69.8519,0.9478,0.6547,1.1216,170.6274
16:27:40:630,1.9621,2.2875,4.2042,69.6001,0.9185,0.4861,1.0092,169.4778
16:27:40:647,2.077,2.4191,3.8118,69.2483,0.8402,0.2699,0.8907,168.5706
16:27:40:666,2.3713,2.5508,3.8142,69.1931,0.6936,0.039,0.7588,167.9286
16:27:40:689,2.467,2.6608,4.3334,69.0542,0.5006,-0.1748,0.5865,167.5827
16:27:40:705,2.2516,2.6967,4.9173,68.889,0.343,-0.3556,0.3727,167.5446
16:27:40:726,1.7755,2.8163,5.324,69.5185,0.2404,-0.5413,0.1687,167.7878
16:27:40:747,1.797,3.0126,5.4006,69.5701,0.1316,-0.7625,0.0441,168.2798
16:27:40:765,2.3737,3.1777,5.0895,67.5413,-0.0712,-0.9567,-0.0231,168.9578
16:27:40:785,2.3976,3.4768,5.257,67.9286,-0.4572,-0.903,-0.1538,169.7298
16:27:40:805,2.065,3.7783,6.6233,69.9112,-0.9984,-0.5206,-0.3249,170.4388
16:27:40:832,2.3067,3.8046,8.8223,69.138,-1.5372,-0.1443,-0.4862,171.0958
16:27:40:856,2.4072,3.0341,11.6602,69.4476,-2.0149,-0.2689,-0.8111,172.1426
16:27:40:866,1.5242,1.7587,15.4481,69.7433,-2.412,-0.8455,-1.2509,173.8787
16:27:40:886,-0.067,0.6245,19.7193,67.2603,-2.5134,-1.3709,-1.5466,176.0446
16:27:40:908,-1.73,0.6389,20.0758,69.5268,-1.933,-1.377,-1.4941,178.0632
16:27:40:929,-1.7946,1.5816,16.3789,69.4665,-0.8934,-0.826,-0.9748,179.3088
16:27:40:948,0.0263,2.723,12.9308,66.7554,-0.2788,-0.3886,-0.3163,179.761
16:27:40:967,1.8616,3.1777,11.1458,69.354,-0.2605,-0.3507,-0.0158,179.9469
16:27:40:986,2.5699,3.4481,9.868,68.0721,-0.4022,-0.3129,-0.1306,180.2544
16:27:41:005,2.2181,3.4648,8.8582,69.5599,-0.5134,-0.1541,-0.4422,180.83
16:27:41:030,0.5886,3.2112,8.0806,69.6542,-0.6099,0.0475,-0.937,182.6585
16:27:41:047,0.1866,3.1298,7.8891,69.0721,-0.5171,-0.005,-0.9871,183.7097
