Time,Acc_X,Acc_Y,Acc_Z,Meg,Gyr_X,Gyr_Y,Gyr_Z,Ore
19:34:23:536,-0.9571,2.7135,6.9679,21.3128,-0.7458,-0.3659,-0.1951,353.2874
19:34:23:562,-0.9452,2.2612,9.6933,24.057,-0.7458,-0.3659,-0.1951,179.2852
19:34:23:575,-1.0863,2.2995,9.4947,22.1583,-0.7458,-0.3659,-0.1951,180.0815
19:34:23:593,-1.2227,2.3545,9.2124,21.3713,0.0715,0.0995,-0.1181,180.4695
19:34:23:612,-1.4213,2.4861,8.9563,22.3203,0.1449,0.124,-0.09,180.6476
19:34:23:632,-1.6917,2.5627,8.8582,23.3175,0.1852,0.1167,-0.0766,180.7739
19:34:23:651,-1.931,2.7326,9.0305,22.4528,0.1742,0.1057,-0.0704,180.8455
19:34:23:670,-1.9143,2.7972,9.1669,23.9187,0.1253,0.0788,-0.057,180.8655
19:34:23:692,-1.8544,2.7206,9.0832,22.4174,0.0972,0.0543,-0.0265,180.8796
19:34:23:708,-1.919,2.6345,9.0353,24.328,0.1009,0.0482,-0.0106,180.8741
19:34:23:728,-2.0985,2.7398,9.0138,23.2666,0.0886,0.0299,-0.0118,180.9424
19:34:23:753,-2.3091,2.9527,8.9013,23.2332,0.0557,0.0153,-0.0057,180.9601
19:34:23:774,-2.2636,3.1729,8.6357,23.7207,0.03,0.0128,0.0187,180.9007
19:34:23:786,-2.0315,3.2758,8.4347,22.994,0.0141,0.0031,0.0773,180.7387
19:34:23:818,-1.8138,3.1896,8.4826,23.217,-0.0311,-0.0055,0.125,180.6036
19:34:23:824,-1.7109,3.0269,8.9204,22.2481,-0.1312,0.0092,0.1177,180.4395
19:34:23:855,-1.8185,2.9839,9.5809,22.1406,-0.2656,-0.0055,0.0761,180.4141
19:34:23:864,-2.0746,2.9982,9.7531,22.1406,-0.3438,-0.0385,0.0309,180.3915
19:34:23:890,-2.1464,3.1083,9.3846,22.1406,-0.2974,-0.0531,0.0028,180.3928
19:34:23:902,-2.0172,3.2255,8.7386,22.4388,-0.0005,-0.0434,0.0847,180.2449
19:34:23:925,-1.7444,3.3117,8.284,22.4388,0.0618,-0.0592,0.1201,180.1887
19:34:23:944,-1.7085,3.5031,8.3294,22.4388,0.0227,-0.113,0.0969,180.1711
19:34:23:971,-1.584,3.472,8.6788,22.0433,-0.0396,-0.1545,0.026,180.2582
19:34:23:982,-1.6774,3.4289,8.7793,22.7304,-0.0506,-0.1607,-0.0399,180.3046
19:34:24:002,-1.7707,3.4433,8.6955,22.9416,-0.0164,-0.1411,-0.0656,180.4064
19:34:24:024,-1.7731,3.4217,8.5591,22.1583,-0.0054,-0.1485,-0.046,180.4963
19:34:24:059,-1.7635,3.3691,8.6237,22.1583,-0.0311,-0.1827,-0.0057,180.5569
19:34:24:063,-1.8449,3.3093,8.6644,21.2385,-0.0641,-0.2388,0.0224,180.6061
19:34:24:089,-1.9286,3.1609,8.5161,21.5323,-0.0921,-0.2731,0.0383,180.6197
19:34:24:101,-2.0124,3.0532,8.6237,22.3132,-0.1447,-0.2792,0.0651,180.6599
19:34:24:129,-1.9813,2.9623,8.9109,22.661,-0.1972,-0.2278,0.1384,180.6129
19:34:24:154,-1.8161,2.881,9.2937,23.0626,-0.2351,-0.179,0.2313,180.3681
19:34:24:169,-1.2825,2.5842,9.947,22.8109,-0.295,-0.212,0.3009,180.1261
19:34:24:187,-0.9093,2.4455,10.8012,24.7248,-0.3389,-0.2853,0.3107,179.9105
19:34:24:201,-0.7178,2.5196,11.4473,22.2605,-0.3353,-0.3195,0.2863,179.7495
19:34:24:221,-0.3733,2.4359,11.8564,21.931,-0.3072,-0.3121,0.2704,179.6006
19:34:24:260,-0.1196,2.2804,12.2704,22.5877,-0.2888,-0.2804,0.2386,179.4534
19:34:24:262,-0.0431,2.0578,12.6126,22.7157,-0.2705,-0.2401,0.1873,179.3672
19:34:24:284,0.1555,1.8353,12.6221,24.0438,-0.2253,-0.201,0.1629,179.3007
19:34:24:301,0.5982,1.5864,12.4475,23.9561,-0.1691,-0.1509,0.1482,179.1976
19:34:24:320,0.9093,1.151,12.4379,21.2576,-0.1447,-0.1203,0.0969,179.1664
19:34:24:344,1.1462,0.6389,12.3996,22.6075,-0.1288,-0.124,0.0199,179.2238
19:34:24:364,0.7849,0.4977,11.1506,21.9658,0.1387,0.0507,-0.0338,179.3898
19:34:24:382,0.8064,0.8136,9.679,21.2615,0.3623,0.2559,0.0761,179.3105
19:34:24:402,1.0457,1.1414,8.0542,22.702,0.5505,0.4673,0.2166,178.9661
19:34:24:421,1.3807,1.4716,7.0636,24.0068,0.559,0.5162,0.2569,178.5497
19:34:24:447,1.5314,1.5601,6.7669,24.0487,0.3855,0.3769,0.1678,178.2987
19:34:24:465,1.3783,1.5386,7.0899,22.5638,0.1387,0.1729,-0.0387,178.2888
19:34:24:482,0.9308,1.3831,7.724,20.5459,-0.0848,0.0006,-0.2843,178.6132
19:34:24:501,0.4235,1.0983,8.26,23.9626,-0.218,-0.1081,-0.459,179.147
19:34:24:521,-0.0646,0.8925,8.595,22.6075,-0.284,-0.168,-0.5543,179.7719
19:34:24:543,-0.6341,0.8566,8.6859,24.6601,-0.3157,-0.1631,-0.575,180.4188
19:34:24:561,-0.9428,1.0217,8.6213,23.2292,-0.3292,-0.0898,-0.5029,180.9743
19:34:24:581,-0.7729,1.1701,8.5208,24.5657,-0.3194,0.0251,-0.3576,181.3417
19:34:24:607,-0.548,1.517,8.4897,23.9611,-0.317,0.0959,-0.233,181.5698
19:34:24:621,-0.201,1.7157,8.5184,23.9513,-0.334,0.1191,-0.1645,181.6761
19:34:24:640,-0.1723,1.8185,8.8439,23.3272,-0.3634,0.1057,-0.1584,181.7927
19:34:24:661,-0.1507,1.651,9.4014,22.8006,-0.3719,-0.0018,-0.1902,181.9679
19:34:24:681,-0.0933,1.5601,9.856,23.3779,-0.2998,-0.1668,-0.2024,182.2163
19:34:24:702,-0.079,1.6439,10.0164,24.038,-0.1606,-0.2731,-0.1731,182.4357
19:34:24:724,-0.1292,1.8808,9.8465,24.8019,-0.0335,-0.2621,-0.1132,182.5549
19:34:24:743,-0.0359,2.1033,9.6096,24.0445,0.0239,-0.1753,-0.0448,182.6233
19:34:24:760,0.0431,2.2947,9.5067,21.981,0.0239,-0.0764,0.0089,182.5626
19:34:24:789,-0.0024,2.546,9.7388,25.5876,-0.0018,-0.0031,0.0309,182.495
19:34:24:800,-0.1842,2.8211,10.0403,25.0923,0.0129,0.0458,0.0407,182.3713
19:34:24:821,-0.1771,2.9264,10.2963,24.6307,0.1705,0.0898,0.037,182.1877
19:34:24:840,-0.2177,2.5508,10.5763,24.6408,0.1888,0.069,-0.0191,182.1278
19:34:24:862,-0.6604,2.3569,11.1673,24.1314,0.1204,0.0397,-0.0925,182.1252
19:34:24:880,-1.5314,2.4479,11.6746,23.6545,0.041,0.0947,-0.1193,182.1301
19:34:24:900,-2.3593,2.869,11.5382,25.4008,0.052,0.3158,-0.0326,181.9989
19:34:24:921,-2.5508,3.0389,10.672,23.8239,0.1192,0.5773,0.147,181.5835
19:34:24:948,-1.9501,2.7685,10.2102,24.6408,0.0801,0.6371,0.2899,181.051
19:34:24:962,-0.5025,1.2347,11.1075,24.7,-0.1422,0.4331,0.2692,180.5917
19:34:24:982,-0.2776,-0.2704,13.0002,25.4413,-0.3878,0.0165,0.015,180.5303
19:34:25:001,-1.7037,-0.0957,13.9334,24.5871,-0.3487,-0.295,-0.2244,180.7598
19:34:25:022,-3.058,0.213,12.6269,25.0447,0.1277,-0.157,-0.1425,180.8361
19:34:25:045,-3.271,0.5886,9.6383,27.2778,0.7948,0.2914,0.2985,180.3605
19:34:25:062,-2.4814,1.1318,7.011,25.8412,1.1821,0.642,0.8153,179.2097
19:34:25:082,-1.1749,1.7515,5.6566,25.9439,1.0709,0.6738,1.1134,177.7589
19:34:25:103,0.0431,2.1129,5.8289,26.1838,0.5883,0.4649,1.0828,176.3705
19:34:25:121,0.6485,1.8018,7.2742,26.4452,0.0043,0.1887,0.7224,175.4749
19:34:25:150,0.2871,0.8159,9.0999,26.3015,-0.3951,-0.0495,0.2215,175.1845
19:34:25:161,-0.6604,0.4307,10.5236,23.5352,-0.4966,-0.2511,-0.1315,175.3353
19:34:25:181,-1.3687,0.3876,10.9256,26.2495,-0.3194,-0.3573,-0.2232,175.5735
19:34:25:201,-1.8497,0.5025,9.8513,25.933,0.0508,-0.234,-0.1047,175.6415
19:34:25:221,-1.9406,1.1198,8.0495,26.5804,0.3709,0.0592,0.1409,175.3774
19:34:25:244,-1.5338,1.651,6.6855,26.089,0.4075,0.3439,0.3864,174.777
19:34:25:261,-1.2012,2.0722,6.1352,27.0578,0.1913,0.504,0.5037,174.0063
19:34:25:282,-1.0122,2.7206,7.6762,26.5945,-0.3536,0.3488,0.395,172.7259
19:34:25:300,-1.0983,2.6321,8.3677,27.6108,-0.3731,0.2205,0.2789,172.2609
19:34:25:321,-1.3998,2.7302,8.6501,25.9381,-0.2302,0.1032,0.1751,171.9386
19:34:25:344,-1.4285,2.6704,8.7841,26.5898,-0.0689,-0.0434,0.125,171.6968
19:34:25:362,-1.5051,2.479,8.9324,28.8651,0.0202,-0.179,0.0871,171.544
19:34:25:384,-1.742,2.4814,9.3535,28.4111,0.0129,-0.2413,0.0505,171.4361
19:34:25:401,-1.7731,2.3282,9.8249,26.7825,-0.0421,-0.2266,0.0639,171.3116
19:34:25:422,-1.6654,2.1942,10.3561,29.4265,-0.1044,-0.1924,0.0945,171.1705
19:34:25:444,-1.3615,1.9741,10.8826,29.0231,-0.1422,-0.1717,0.1189,170.9763
19:34:25:611,-0.9643,1.8233,11.3181,29.4536,-0.1545,-0.1961,0.1226,170.7814
19:34:25:612,-0.7442,1.7946,11.6363,27.3684,-0.1581,-0.267,0.0859,170.636
19:34:25:612,-0.7801,1.9334,11.8158,28.6038,-0.1606,-0.3268,0.0431,170.5807
19:34:25:621,-0.5168,1.6678,11.8469,27.3684,-0.1984,-0.3622,0.0224,170.563
19:34:25:622,0.1675,0.9284,12.2728,30.2544,-0.3182,-0.4453,0.0004,170.5957
19:34:25:622,0.7705,0.1125,13.2754,28.8413,-0.4978,-0.6322,-0.0802,170.7476
19:34:25:622,0.9428,-0.0024,13.9908,28.0715,-0.6138,-0.7789,-0.1621,171.0539
19:34:25:623,1.2036,-0.2393,14.0172,28.0242,-0.5161,-0.6396,-0.1303,171.2922
19:34:25:623,1.2299,-0.2919,13.2251,31.4183,-0.2424,-0.3354,-0.0326,171.3768
19:34:25:640,0.8662,0.1292,11.5214,30.4937,0.1473,0.0006,0.1006,171.2578
19:34:25:661,1.0002,0.4786,9.5043,30.5996,0.5285,0.2791,0.2753,170.9094
19:34:25:680,1.3448,0.8327,7.5733,30.1299,0.7899,0.4734,0.4231,170.3992
19:34:25:701,1.876,1.2275,5.8911,30.1139,0.8767,0.554,0.4646,169.7374
19:34:25:722,2.1176,1.6917,5.0154,28.3405,0.7386,0.4734,0.3156,169.2589
19:34:25:745,1.3256,1.3185,5.9127,30.3251,-0.0079,-0.0116,-0.5042,169.7758
19:34:25:762,0.2919,0.8255,7.1091,29.5419,-0.3316,-0.1985,-0.9012,170.7287
19:34:25:784,-0.5432,0.6245,7.9346,32.1982,-0.4623,-0.245,-1.0295,171.8096
19:34:25:801,-0.9165,0.8183,8.5089,30.7008,-0.4513,-0.1961,-0.9318,172.7735
19:34:25:821,-0.8734,1.1318,8.7099,31.2267,-0.3829,-0.1142,-0.751,173.5233
19:34:25:844,-0.6126,1.3854,8.7338,31.7889,-0.3279,-0.0153,-0.5799,174.0695
19:34:25:865,-0.2728,1.6247,8.9803,30.2861,-0.3377,0.0763,-0.4418,174.4561
19:34:25:885,0.0957,1.8688,9.4325,32.5293,-0.3902,0.1142,-0.3331,174.7412
19:34:25:901,0.2321,2.077,9.9518,32.1361,-0.4086,0.1191,-0.2843,174.9643
19:34:25:920,0.146,2.3043,10.5212,31.6213,-0.3707,0.0605,-0.294,175.2139
19:34:25:942,0.1747,2.2899,10.8108,32.4567,-0.2363,-0.0373,-0.2953,175.5078
19:34:25:960,0.0933,2.3617,10.8945,32.8191,-0.0433,-0.113,-0.2916,175.787
19:34:25:985,-0.1172,2.5627,10.7892,32.8191,0.118,-0.1313,-0.2769,176.0368
19:34:26:002,-0.2345,2.6824,10.7605,32.5903,0.2206,-0.0715,-0.2232,176.2162
19:34:26:022,-0.2823,2.6536,10.8323,31.4847,0.2707,0.0348,-0.1792,176.3488
19:34:26:043,-0.3135,2.4048,11.2008,33.9345,0.2719,0.124,-0.1841,176.4722
19:34:26:076,-0.3063,1.8808,11.6196,33.4955,0.2634,0.124,-0.2122,176.6376
19:34:26:079,-0.603,1.7635,11.7703,32.2888,0.2915,0.0959,-0.2366,176.8093
19:34:26:100,-1.1151,1.7372,11.4736,33.2109,0.3574,0.135,-0.2293,176.9983
19:34:26:120,-1.809,1.8664,10.8203,33.5154,0.4173,0.2547,-0.1902,177.098
19:34:26:141,-2.6082,2.278,9.9757,35.0124,0.4405,0.4001,-0.0912,177.034
19:34:26:165,-2.6536,2.4646,9.4923,34.2224,0.3904,0.4539,0.0541,176.7937
19:34:26:184,-1.5529,1.5625,9.7747,34.7061,0.2377,0.2901,0.1372,176.5374
19:34:26:204,-2.2923,0.8566,10.6768,33.6094,0.1106,-0.1655,-0.013,176.4166
19:34:26:219,-2.8522,1.1198,9.734,35.5157,0.2988,-0.0507,0.1238,176.4739
19:34:26:242,-2.6943,1.2156,8.4634,35.8594,0.4698,0.0934,0.3571,175.7744
19:34:26:267,-2.1033,1.3161,7.724,35.7574,0.4527,0.0995,0.5086,175.1376
19:34:26:285,-0.8949,1.0146,7.8054,33.364,0.2511,-0.0531,0.5526,174.5054
19:34:26:301,-0.1579,0.9212,8.8104,35.5239,-0.0726,-0.295,0.4317,174.0922
19:34:26:319,0.0215,1.0122,10.0499,35.5157,-0.3731,-0.3573,0.2325,173.8828
19:34:26:342,-0.2823,0.8231,10.3992,37.1265,-0.4403,-0.1301,0.1055,173.7704
19:34:26:361,-0.725,0.6437,9.6957,35.583,-0.2693,0.1435,0.0297,173.6425
19:34:26:381,-1.0026,0.7944,8.4203,35.2063,-0.0286,0.2718,0.0431,173.4532
19:34:26:402,-0.8853,1.1031,7.3484,35.8565,0.1045,0.229,0.1348,173.203
19:34:26:420,-0.5097,1.7061,7.066,36.4715,0.0544,0.0922,0.2117,172.8866
19:34:26:441,-0.3565,2.1846,7.4225,38.5952,-0.0946,0.0251,0.2081,172.6111
19:34:26:461,-0.5934,2.333,7.9226,36.3054,-0.2192,0.047,0.1189,172.4283
19:34:26:481,-1.0122,2.2564,8.3438,36.8011,-0.2278,0.047,0.0212,172.3264
19:34:26:502,-1.1462,2.2947,8.5567,36.3054,-0.1447,-0.0397,-0.0155,172.2806
19:34:26:521,-1.0624,2.3043,8.5161,38.168,-0.0372,-0.1228,0.0102,172.2298
19:34:26:539,-0.8949,2.4,8.5591,39.434,0.0043,-0.146,0.0358,172.1489
19:34:26:562,-0.9284,2.4861,8.7697,36.1851,-0.014,-0.113,0.0309,172.056
19:34:26:580,-1.1797,2.4503,8.8941,38.0689,-0.0311,-0.0495,0.0102,171.9878
19:34:26:600,-1.2395,2.211,9.0664,39.057,-0.0384,-0.0336,-0.0069,171.9568
19:34:26:620,-0.8016,1.8712,9.5737,39.0613,-0.0665,-0.102,-0.0289,171.9628
19:34:26:641,-0.2752,1.6941,10.2556,39.434,-0.0958,-0.1631,-0.0717,172.0491
19:34:26:661,-0.8159,1.5434,11.1171,39.1734,-0.1178,-0.1765,-0.1719,172.0696
19:34:26:683,-1.261,1.7611,11.2391,40.0468,-0.1435,-0.2706,-0.1889,172.4096
19:34:26:703,-1.0792,1.5266,11.3874,38.359,-0.2375,-0.3207,-0.1205,172.4582
19:34:26:720,-0.5097,0.8925,11.8684,40.4575,-0.4391,-0.2511,-0.0143,172.3993
19:34:26:740,0.2369,-0.3063,13.005,41.0266,-0.7323,-0.2059,0.0395,172.2933
19:34:26:762,0.3924,-0.9619,14.7135,40.2099,-0.9913,-0.2828,0.0089,172.2747
19:34:26:780,-0.0263,-0.4666,15.4002,40.0432,-0.9058,-0.1985,0.0639,172.2115
19:34:26:800,0.0646,-0.2321,14.2014,40.1678,-0.3597,0.0776,0.2985,171.8246
19:34:26:820,0.4331,-0.0981,11.8899,40.756,0.3428,0.1729,0.5147,171.2065
19:34:26:840,1.0504,0.2345,9.7531,40.1679,0.8253,0.0592,0.6027,170.5188
19:34:26:861,1.9382,0.4283,8.0853,39.4296,0.95,-0.0617,0.5697,169.8978
19:34:26:880,2.4622,0.6341,7.1713,41.2772,0.724,-0.0886,0.3474,169.4906
19:34:26:900,2.1535,0.5288,7.2287,40.7178,0.2915,-0.0348,-0.0411,169.5405
19:34:26:931,1.3185,0.1412,7.9107,40.5695,-0.1117,0.0079,-0.4382,169.988
19:34:26:945,0.3183,0.0455,8.2505,42.2081,-0.284,0.0177,-0.6703,170.6612
19:34:26:964,-0.3805,0.2847,8.0184,42.5397,-0.2302,0.0018,-0.6923,171.3585
19:34:26:980,-0.4187,0.6293,7.2215,43.8773,-0.0689,0.0263,-0.5604,171.919
19:34:27:003,-0.3278,1.0289,6.2453,41.9898,0.0764,0.1032,-0.4064,172.2848
19:34:27:019,-0.4116,1.4716,5.6782,43.9233,0.0728,0.168,-0.327,172.5515
19:34:27:039,-0.4642,1.6917,5.8122,44.003,-0.0995,0.1912,-0.2879,172.7811
19:34:27:059,-0.4905,1.8951,6.9081,43.7585,-0.3438,0.0995,-0.2916,173.0516
19:34:27:080,-0.4857,1.9549,8.3079,43.8546,-0.5271,-0.069,-0.3246,173.3768
19:34:27:102,-0.2201,1.8879,9.5378,45.039,-0.565,-0.1839,-0.3148,173.7015
19:34:27:120,0.1531,1.9741,11.7583,44.6272,-0.3157,-0.1142,-0.2134,173.9634
19:34:27:140,-0.0335,2.0698,12.1412,43.4175,-0.0518,-0.0947,-0.2158,174.2162
19:34:27:163,-0.4857,2.3306,11.9593,44.0893,0.2218,-0.157,-0.2232,174.6356
19:34:27:179,-0.6102,2.79,11.519,45.5967,0.4014,-0.1814,-0.167,174.7932
19:34:27:198,-0.3254,2.7972,11.1793,44.4678,0.4613,-0.0446,-0.0692,174.8298
19:34:27:219,-0.146,2.7876,11.2223,47.2953,0.4197,0.1179,-0.0057,174.7942
19:34:27:238,-0.079,2.7924,11.4903,45.5967,0.3623,0.1887,0.0053,174.6984
19:34:27:261,-0.3637,2.7063,11.464,47.5653,0.3477,0.19,-0.0253,174.6478
19:34:27:281,-0.8901,2.7517,11.275,46.8259,0.3477,0.1484,-0.079,174.6658
19:34:27:302,-1.3974,2.7494,10.9878,46.8199,0.3281,0.1179,-0.0973,174.7173
19:34:27:321,-1.943,2.534,10.7868,47.0845,0.2768,0.1179,-0.0851,174.7485
19:34:27:339,-2.144,2.1464,10.9065,48.7189,0.2108,0.1509,-0.0265,174.7167
19:34:27:362,-1.9549,1.6439,11.2415,47.4955,0.1534,0.1264,0.0749,174.566
19:34:27:385,-1.5816,0.9093,11.5549,48.8731,0.1546,0.0067,0.1604,174.3532
19:34:27:399,-1.7037,0.6221,11.2558,47.3586,0.2682,-0.0947,0.2081,174.0952
19:34:27:420,-2.0028,0.8112,9.9637,49.1318,0.4845,-0.0348,0.3034,173.7296
19:34:27:440,-1.9478,1.084,8.4562,48.5334,0.6567,0.0678,0.4402,173.1957
19:34:27:461,-1.7013,1.2586,7.4202,48.6068,0.6323,0.0311,0.5062,172.617
19:34:27:480,-1.0146,1.139,7.2263,49.3131,0.4112,-0.102,0.505,172.0784
19:34:27:502,-0.1723,0.7944,7.8197,48.268,0.1192,-0.2242,0.4414,171.6518
19:34:27:521,0.28,0.6628,8.7099,50.377,-0.1545,-0.3024,0.2973,171.3872
19:34:27:544,0.0909,0.6317,9.4684,50.6183,-0.3316,-0.2303,0.1116,171.312
19:34:27:559,-0.5432,0.5623,9.4421,48.8786,-0.3328,-0.0214,-0.0375,171.3324
19:34:27:581,-1.2562,0.9165,7.4249,50.151,-0.0213,0.4551,0.0761,171.3116
19:34:27:601,-0.8782,1.2754,6.5157,50.6232,0.0508,0.5491,0.285,170.6012
19:34:27:763,-0.3111,1.9454,6.743,51.3617,-0.0347,0.4367,0.4427,169.9742
19:34:27:763,0.0502,2.5603,7.5039,50.2219,-0.1618,0.2633,0.4769,169.3507
19:34:27:764,-0.1005,2.9767,8.0231,50.4214,-0.1838,0.1582,0.3632,168.8776
19:34:27:764,-0.5336,3.1777,8.3701,50.6232,-0.13,0.0727,0.18,168.6003
19:34:27:765,-0.8136,2.9336,8.7195,51.2147,-0.0824,-0.0141,0.0493,168.5102
19:34:27:765,-1.0289,2.9145,9.4014,50.2798,-0.0726,-0.0935,0.0273,168.4742
19:34:27:766,-1.0863,3.1537,10.1862,49.476,-0.0604,-0.2022,0.0798,168.4293
19:34:27:767,-0.9595,3.1322,10.6194,52.0801,0.0092,-0.2645,0.1274,168.3275
19:34:27:781,-0.725,2.7924,10.794,51.9877,0.0948,-0.3012,0.1201,168.2356
19:34:27:800,-0.4187,2.5675,11.5358,51.9553,0.0984,-0.3586,0.0859,168.222
19:34:27:819,-0.2584,2.333,11.9785,49.8209,0.0862,-0.35,0.0627,168.2261
19:34:27:839,-0.4594,2.2421,11.7607,52.4285,0.1241,-0.2621,0.0566,168.2003
19:34:27:861,-0.4475,2.1464,11.4353,51.161,0.1143,-0.1912,0.1287,168.0955
19:34:27:882,0.0072,2.2995,11.3635,52.0676,0.0569,-0.168,0.2411,167.8695
19:34:27:900,0.8136,1.9884,11.4353,53.087,-0.0494,-0.2059,0.2582,167.6345
19:34:27:927,1.6582,1.0504,12.3972,52.4285,-0.2534,-0.3195,0.0945,167.6159
19:34:27:938,1.4955,0.2177,14.4215,52.2244,-0.4966,-0.4637,-0.1816,167.9461
19:34:27:959,1.0409,-0.2249,15.4433,53.148,-0.4648,-0.4514,-0.3405,168.4341
19:34:27:982,0.9356,-0.6556,14.2564,52.1167,0.0007,-0.1888,-0.2537,168.7745
19:34:28:001,1.3639,-0.402,11.5023,51.1988,0.6189,0.1374,-0.0008,168.7529
19:34:28:019,2.0506,-0.0742,8.5998,52.3062,1.0172,0.3451,0.2203,168.4661
19:34:28:039,1.9501,1.0792,5.4102,52.631,0.7325,0.5088,0.0688,168.1344
19:34:28:062,1.4022,1.3137,5.1422,51.0513,0.3354,0.5186,-0.1975,168.0413
19:34:28:080,0.6269,1.328,5.5059,52.8702,-0.047,0.4392,-0.4736,168.4347
19:34:28:099,-0.1914,1.3232,6.4989,53.1562,-0.3377,0.2388,-0.6679,169.0806
19:34:28:119,-0.6796,1.3089,7.3508,51.2044,-0.4428,0.0128,-0.7265,169.8392
19:34:28:139,-1.0026,1.4333,7.5972,50.8681,-0.3658,-0.146,-0.6874,170.5816
19:34:28:163,-1.0863,1.5769,7.5182,52.5011,-0.2339,-0.168,-0.586,171.2365
19:34:28:181,-0.9715,1.8592,7.3029,51.5676,-0.1471,-0.0715,-0.4529,171.7189
19:34:28:201,-0.871,2.1368,7.1258,49.6397,-0.1251,0.0666,-0.3331,172.0546
19:34:28:219,-0.7274,2.3785,7.3196,53.1566,-0.1716,0.113,-0.2464,172.2883
19:34:28:240,-0.3661,2.5101,7.992,50.6814,-0.2449,0.0641,-0.1548,172.4349
19:34:28:265,0.3063,2.6154,8.8726,50.1095,-0.2827,-0.0275,-0.0717,172.5184
19:34:28:281,0.9165,2.6441,9.5904,52.3475,-0.262,-0.0984,-0.0485,172.6075
19:34:28:299,0.9954,2.7398,10.0618,50.6161,-0.2168,-0.1142,-0.0912,172.7587
19:34:28:319,0.5049,2.9839,10.5476,51.5139,-0.1691,-0.0849,-0.1487,172.9324
19:34:28:340,-0.0838,3.3643,10.806,52.7246,-0.1117,-0.0434,-0.1487,173.1085
19:34:28:363,-0.3422,3.7687,11.0022,50.7636,-0.0445,0.0324,-0.0362,173.1357
19:34:28:380,0.1507,3.7137,11.4209,51.9124,-0.0067,0.0617,0.1152,172.9985
19:34:28:400,0.9021,3.5605,12.0096,52.2392,0.0056,0.0495,0.1665,172.8119
19:34:28:418,0.7657,3.649,12.4092,50.5269,0.0068,0.1167,0.0505,172.7465
19:34:28:439,-0.2728,3.5175,12.5743,50.0907,0.008,0.1875,-0.1743,172.8878
19:34:28:463,-1.6463,3.4624,12.4475,50.4338,0.0263,0.1313,-0.3588,173.2356
19:34:28:480,-0.9404,2.2588,12.5791,49.7218,-0.0164,-0.0886,-0.3038,173.5705
19:34:28:500,-0.0024,0.6317,13.8999,50.6004,-0.2143,-0.4417,-0.4431,173.9155
19:34:28:518,-1.0385,0.2489,14.6106,50.9582,-0.3047,-0.7727,-0.7778,175.465
19:34:28:538,-2.522,0.1531,13.4142,51.0295,-0.0225,-0.6286,-0.9318,176.5511
19:34:28:562,-4.0917,0.6054,11.0907,49.84,0.559,-0.0825,-0.6923,177.2412
19:34:28:580,-3.606,0.4427,8.6788,51.007,1.0538,0.306,-0.0191,177.1359
19:34:28:600,-2.2851,0.8853,7.4106,52.0142,1.1491,0.2278,0.5709,176.4346
19:34:28:619,-0.7513,1.5075,7.2909,49.3321,0.9255,-0.0556,0.7811,175.6176
19:34:28:638,0.5671,1.5745,7.389,48.9137,0.5981,-0.2034,0.654,174.9834
19:34:28:661,0.6867,1.3831,7.4154,47.0454,0.311,-0.1057,0.2838,174.6967
19:34:28:682,-0.0933,1.1605,7.3172,46.8765,0.1033,0.0531,-0.1108,174.772
19:34:28:703,-0.8423,1.0002,7.3819,48.6117,-0.0225,0.1264,-0.3099,175.0335
19:34:28:720,-1.0959,1.0576,7.3747,47.8728,-0.0555,0.1105,-0.2928,175.2927
19:34:28:739,-1.0504,1.3926,7.2526,47.9403,0.0031,0.0947,-0.145,175.4038
19:34:28:761,-0.7968,1.8831,6.9966,47.3214,0.107,0.1057,0.0444,175.305
19:34:28:780,-0.6221,2.2804,6.8195,47.9403,0.1937,0.1264,0.1873,175.0494
19:34:28:802,-0.4905,2.5316,6.6879,47.9728,0.2084,0.0812,0.2044,174.7917
19:34:28:826,-0.6126,2.6895,6.9009,47.6521,0.1522,0.0043,0.114,174.6485
19:34:28:838,-0.8662,2.8499,7.4178,47.2237,0.0605,-0.0776,0.0016,174.6763
19:34:28:859,-1.0098,2.9958,8.2265,48.1925,-0.0189,-0.1827,-0.0497,174.7661
19:34:28:878,-0.8542,3.015,9.1286,46.0413,-0.0421,-0.2841,-0.0362,174.8539
19:34:28:899,-0.8016,3.0365,9.6622,45.6191,-0.0054,-0.3476,-0.0314,174.963
19:34:28:918,-1.3328,3.4098,10.148,46.5934,0.0276,-0.3207,-0.057,175.0685
19:34:28:941,-0.9811,3.4146,10.4327,45.3948,0.0899,-0.1814,0.0651,175.1442
19:34:28:960,-0.5192,3.472,10.4471,44.8417,0.0935,-0.113,0.1458,174.9627
19:34:28:978,-0.4068,3.4624,11.0907,46.2955,-0.0054,-0.1252,0.1531,174.8079
19:34:28:998,-0.457,3.2399,11.8253,45.0731,-0.119,-0.2694,0.1006,174.7423
19:34:29:018,-0.3996,2.9743,12.2728,47.1853,-0.1044,-0.4795,0.0639,174.7852
19:34:29:038,-0.079,2.6584,12.2345,45.6191,0.0703,-0.6286,0.114,174.819
19:34:29:063,0.6341,2.4574,11.5717,44.0755,0.3428,-0.6139,0.2496,174.7233
19:34:29:079,1.5362,2.4263,10.5715,45.061,0.5627,-0.3855,0.3779,174.4514
19:34:29:099,2.1009,1.7228,9.5378,46.2073,0.5883,-0.0287,0.4023,173.9973
19:34:29:119,1.1605,1.3185,8.8869,45.6842,0.4026,0.284,0.1849,173.7016
19:34:29:140,-0.0048,1.5099,8.3294,45.212,0.129,0.4905,-0.0937,173.5697
19:34:29:161,0.1268,1.2395,8.0088,44.0503,-0.0885,0.6469,-0.1034,173.418
19:34:29:182,0.8519,1.5482,7.9059,45.6148,-0.2913,0.6273,0.0224,173.1525
19:34:29:199,1.8808,1.8592,8.2169,44.7979,-0.5271,0.4771,0.0871,172.9048
19:34:29:221,2.723,1.6128,9.1023,44.3424,-0.7727,0.2266,0.0028,172.8216
19:34:29:239,2.5053,1.5386,9.9063,45.4479,-0.9852,-0.0959,-0.2574,173.11
19:34:29:263,1.5506,1.718,10.4901,45.0261,-1.0647,-0.2633,-0.4846,173.6637
19:34:29:280,0.8925,1.797,10.0522,45.0237,-0.9107,-0.212,-0.5066,174.2337
19:34:29:300,0.5886,1.9262,8.8582,45.9289,-0.5808,0.036,-0.3918,174.618
19:34:29:321,0.3781,2.1918,7.8413,44.755,-0.2681,0.3537,-0.2415,174.7555
19:34:29:338,0.4235,2.5699,7.3866,45.8372,-0.0653,0.4795,-0.0827,174.6853
19:34:29:360,1.1749,2.3378,7.1497,44.4908,0.0679,0.3806,-0.0008,174.5522
19:34:29:383,0.8351,3.1514,7.4106,46.3455,0.201,0.2901,-0.0998,174.5536
19:34:29:402,0.7274,3.0987,8.6548,45.4073,0.4698,-0.0568,-0.2684,175.0093
19:34:29:419,0.8112,2.9599,8.9611,46.714,0.5101,-0.5162,-0.3734,175.4925
19:34:29:438,0.7896,2.9216,9.5641,44.2748,0.5138,-0.8619,-0.4883,176.1935
19:34:29:461,0.6796,3.1059,10.9878,45.4471,0.5248,-1.033,-0.5811,177.0701
19:34:29:483,1.0265,3.3069,11.4473,46.5948,0.5505,-1.2541,-0.674,178.1099
19:34:29:499,1.048,3.5079,11.0548,44.8598,0.5566,-1.204,-0.74,179.2058
19:34:29:520,0.4786,4.0774,11.0357,45.5395,0.504,-0.587,-0.6947,180.0835
19:34:29:538,-0.0909,4.2951,10.7151,45.2379,0.388,0.1716,-0.5323,180.5303
19:34:29:560,-0.7489,4.142,10.2126,45.4517,0.2072,0.5992,-0.3563,180.6568
19:34:29:581,-1.8784,4.4937,10.2437,45.4699,-0.0274,0.7214,-0.2647,180.6227
19:34:29:602,-1.919,4.1516,10.6648,46.077,-0.2375,0.6603,-0.1487,180.494
19:34:29:620,-1.0433,3.1466,11.4592,44.8993,-0.3878,0.3647,-0.057,180.3873
19:34:29:638,-0.4905,1.6223,12.0742,46.1371,-0.4367,-0.1387,-0.0876,180.476
19:34:29:660,-1.5099,1.06,12.0144,47.7269,-0.3328,-0.5834,-0.1792,180.7812
19:34:29:682,-2.4383,1.2538,11.263,47.74,-0.0921,-0.6445,-0.1242,181.0371
19:34:29:701,-2.2253,1.0744,10.4136,46.3024,0.1522,-0.339,0.1262,180.924
19:34:29:722,-1.7827,1.3926,10.672,48.8594,0.212,-0.0373,0.3486,180.4933
19:34:29:738,-1.3137,1.8138,10.6528,47.2564,0.0825,-0.0922,0.4439,179.957
19:34:29:757,-0.5504,1.6391,10.1527,46.2551,-0.0616,-0.1753,0.4879,179.4131
19:34:29:778,-0.4522,1.596,9.399,46.8687,-0.108,0.0653,0.4427,178.851
19:34:29:920,-0.7442,1.5051,8.2026,48.0107,-0.1068,0.4807,0.3779,178.2263
19:34:29:921,-1.0504,1.5816,7.1378,47.8379,-0.1288,0.8069,0.3694,177.5157
19:34:29:921,-1.1318,1.7611,6.3051,49.0525,-0.1948,0.9034,0.4207,176.7279
19:34:29:921,-0.7585,2.3426,6.1591,49.695,-0.3487,0.565,0.5856,175.075
19:34:29:921,-0.2823,2.5651,6.0515,47.0733,-0.3426,0.3402,0.6271,174.2324
19:34:29:922,0.0048,2.7541,6.1376,51.472,-0.2876,0.3036,0.5807,173.4916
19:34:29:922,-0.5743,2.7494,6.8626,49.3055,-0.2265,0.3586,0.4781,172.8477
19:34:29:938,-0.7489,2.5531,7.7216,49.5661,-0.1655,0.1484,0.4133,172.3433
19:34:29:960,-0.1292,2.4359,8.0255,48.719,-0.0665,-0.3097,0.3974,171.9409
19:34:29:980,0.4451,2.4694,8.5783,47.9224,0.0679,-0.493,0.3461,171.6472
19:34:29:998,0.0981,2.8953,9.4899,48.6056,0.1852,-0.2877,0.224,171.4358
19:34:30:019,-0.1962,3.0652,9.6742,48.265,0.2548,-0.0153,0.1409,171.2192
19:34:30:039,0.0024,2.8403,9.6622,50.6857,0.2328,0.135,0.114,171.0082
19:34:30:062,0.6293,2.4072,10.6002,50.0543,0.0764,0.0995,0.0688,170.8553
19:34:30:087,0.9906,2.2229,11.8349,50.3567,-0.1483,-0.1765,-0.0546,170.9161
19:34:30:101,0.6724,2.0411,12.4642,50.2482,-0.323,-0.4514,-0.1755,171.1895
19:34:30:118,0.3589,2.2875,12.2728,50.9611,-0.3793,-0.3964,-0.1767,171.4263
19:34:30:138,1.06,1.8927,12.012,50.0787,-0.3585,-0.0324,-0.0827,171.489
19:34:30:158,2.2827,0.8853,12.3302,51.2865,-0.3902,0.1729,-0.0375,171.4639
19:34:30:178,2.2588,-0.0239,12.9906,49.4929,-0.521,-0.1289,-0.134,171.6104
19:34:30:198,1.529,0.1651,12.6174,49.6449,-0.6077,-0.5809,-0.2024,171.9299
19:34:30:219,1.6702,0.2417,11.6985,50.325,-0.477,-0.5712,-0.0888,172.1041
19:34:30:238,1.7683,0.603,10.8634,51.7978,-0.1765,-0.1423,0.0603,172.0345
19:34:30:259,2.1512,1.2275,9.8776,51.347,0.1228,0.2205,0.1152,171.8396
19:34:30:277,2.8307,1.4907,8.7075,52.6558,0.2841,0.3402,0.0676,171.6731
19:34:30:298,2.814,1.6319,8.2074,52.651,0.2279,0.3427,-0.156,171.7534
19:34:30:319,1.2969,0.9811,7.815,53.7388,-0.24,0.1105,-0.6459,172.8458
19:34:30:340,0.4307,0.6532,7.925,52.4625,-0.4538,-0.0189,-0.729,173.5966
19:34:30:363,-0.0885,0.7825,7.8461,53.0816,-0.5479,-0.0825,-0.6899,174.3069
19:34:30:382,-0.1292,1.1055,7.8102,54.3197,-0.5136,-0.0031,-0.5665,174.8754
19:34:30:404,0.0072,1.4237,7.7886,53.3955,-0.4025,0.1716,-0.4467,175.2835
19:34:30:417,0.067,1.6774,7.9514,54.3926,-0.2754,0.3219,-0.3857,175.6097
19:34:30:439,0.2632,1.9334,8.2648,53.8641,-0.1618,0.3598,-0.3722,175.9099
19:34:30:463,0.4211,2.0626,8.473,55.5905,-0.0689,0.2193,-0.3979,176.2714
19:34:30:480,0.6724,2.1057,8.7147,55.7168,0.0166,0.0202,-0.4321,176.7169
19:34:30:501,0.8901,2.1583,9.0329,56.0286,0.0886,-0.0898,-0.4675,177.2295
19:34:30:517,0.7322,2.199,9.4588,54.5908,0.1339,-0.0727,-0.4907,177.7803
19:34:30:538,0.4929,2.1583,10.0235,54.1446,0.1522,-0.0018,-0.4761,178.261
19:34:30:557,0.2441,2.144,10.2533,54.081,0.1778,0.0287,-0.4235,178.6926
19:34:30:577,0.0191,2.2038,10.2867,54.5497,0.2084,0.1093,-0.3515,179.024
19:34:30:599,0.201,2.0865,10.8347,56.8907,0.1925,0.2156,-0.2672,179.2319
19:34:30:620,0.5982,1.9023,11.5406,55.266,0.1167,0.1435,-0.2048,179.3882
19:34:30:637,0.6389,2.144,11.8851,54.4472,0.0239,-0.0165,-0.2036,179.5901
19:34:30:660,-0.1795,2.5077,12.0742,55.2903,-0.0543,0.0641,-0.2305,179.7943
19:34:30:678,-0.9858,2.6465,12.4523,54.2473,-0.1178,0.4392,-0.211,179.8889
19:34:30:696,-0.7872,2.4239,13.9478,56.2883,0.1265,1.0158,-0.1755,179.864
19:34:30:716,-0.2082,1.6367,13.3783,53.3542,0.3794,0.8192,-0.2476,179.9798
19:34:30:736,0.0359,0.0455,12.859,55.4367,0.3159,-0.0727,-0.4284,180.4447
19:34:30:756,-1.9478,0.3446,11.6387,57.8517,0.3073,-0.6286,-0.6031,181.1706
19:34:30:777,-2.1846,0.8399,7.669,57.5378,0.3183,-0.1497,0.0163,181.6662
19:34:30:800,-1.4596,1.2586,7.1713,56.9991,0.278,0.383,0.2166,181.2956
19:34:30:825,-1.0552,1.8831,7.7551,55.6794,0.2499,0.5699,0.1372,180.9695
19:34:30:853,-0.5719,1.8377,8.3605,57.1942,0.1766,0.2706,-0.0558,180.95
19:34:30:867,-0.4187,1.2586,8.4897,56.5854,0.0483,-0.2266,-0.3185,181.3214
19:34:30:877,-0.8949,0.5958,8.2744,57.4951,-0.0885,-0.4832,-0.5372,181.9829
19:34:30:900,-1.6104,0.3493,7.9705,56.3033,-0.1801,-0.3622,-0.5714,182.6383
19:34:30:917,-1.9741,0.6221,7.6283,55.9961,-0.2009,0.0055,-0.3954,183.0264
19:34:30:935,-1.8329,1.1773,7.4656,56.6204,-0.1862,0.3757,-0.134,183.0399
19:34:30:956,-1.4213,1.6702,7.322,56.6427,-0.1716,0.5394,0.0493,182.8435
19:34:30:977,-1.1198,1.9693,7.3579,57.8945,-0.1667,0.5443,0.1152,182.579
19:34:31:002,-1.0983,2.2253,7.6857,57.5571,-0.163,0.4856,0.0896,182.3652
19:34:31:018,-1.1342,2.3545,8.083,55.442,-0.1264,0.3366,0.0199,182.2466
19:34:31:036,-1.3137,2.2947,8.5639,58.6313,-0.0409,0.1496,-0.0643,182.2641
19:34:31:056,-1.3878,2.2373,8.8104,58.6901,0.0752,0.0153,-0.1108,182.3799
19:34:31:077,-1.4237,2.2899,8.7936,57.4999,0.1729,0.0482,-0.0949,182.4757
19:34:31:113,-1.5003,2.5699,8.9731,56.7304,0.2035,0.2229,-0.0265,182.4583
19:34:31:120,-1.2514,2.8475,9.5569,57.2933,0.1559,0.3219,0.0187,182.3425
19:34:31:137,-0.2632,2.5579,10.4279,56.7642,0.0789,0.1496,-0.0179,182.3138
19:34:31:155,0.2393,2.1152,11.5286,57.84,0.0178,-0.2486,-0.1731,182.5633
19:34:31:175,0.3039,1.4907,12.4116,57.0694,0.0239,-0.6286,-0.3967,183.144
19:34:31:196,-0.28,1.4931,12.8327,56.7037,0.0801,-0.7715,-0.5567,183.9042
19:34:31:217,-0.7968,2.0506,12.5719,56.8542,0.1436,-0.6335,-0.5347,184.5931
19:34:31:236,0.6245,2.5077,11.3252,55.4097,0.1106,0.0507,-0.2171,185.0379
19:34:31:255,1.6367,1.7755,11.3515,56.5231,-0.0518,0.1301,-0.2586,185.5619
19:34:31:279,1.8688,0.4187,12.0694,56.4439,-0.2388,-0.1191,-0.4749,186.1334
19:34:31:297,0.7178,0.1484,11.6435,56.4439,-0.3084,-0.5211,-0.7253,187.041
19:34:31:321,0.0431,0.1986,10.5069,56.6014,-0.1312,-0.4881,-0.7827,187.9816
19:34:31:338,-0.0622,0.414,9.4923,56.5525,0.1803,-0.0165,-0.6825,188.7139
19:34:31:356,0.2417,0.7849,8.6931,56.8093,0.4173,0.4551,-0.6007,189.2732
19:34:31:379,0.6604,0.682,8.2122,55.5603,0.4674,0.5748,-0.6056,189.8289
19:34:31:402,0.8183,0.4786,7.9992,55.1178,0.3,0.2804,-0.7485,190.6064
19:34:31:420,0.2656,0.4714,8.0518,56.5112,-0.025,-0.1521,-0.9623,191.7019
19:34:31:435,-0.2871,0.3206,8.0997,55.899,-0.317,-0.3158,-1.0637,192.9287
19:34:31:455,-0.6843,0.39,8.1835,55.1444,-0.4587,-0.1533,-1.0185,194.0726
19:34:31:476,-0.67,0.8758,8.0231,56.4468,-0.4648,0.0434,-0.8743,195.0185
19:34:31:509,-0.4594,1.5123,7.9633,56.0923,-0.378,0.1448,-0.7216,195.7856
19:34:31:526,-0.3206,2.0889,7.9777,55.7978,-0.2449,0.1448,-0.6386,196.474
19:34:31:549,-0.256,2.613,8.0016,54.168,-0.0897,0.0653,-0.6276,197.1874
19:34:31:557,0.0598,2.8881,8.1141,56.4221,0.0654,-0.0165,-0.652,197.9314
19:34:31:577,0.3805,2.9145,8.4419,56.5229,0.1729,-0.0739,-0.7375,198.783
19:34:31:597,0.0646,2.7757,9.2507,56.5429,0.1839,-0.1631,-0.911,199.8512
19:34:31:616,-0.6006,2.4718,9.9302,55.4401,0.1375,-0.328,-1.0601,201.1053
19:34:31:637,-1.0576,2.1057,10.3394,55.8793,0.1436,-0.4013,-1.0918,202.4018
19:34:31:656,-1.3017,1.9406,10.4351,53.9066,0.2145,-0.2706,-1.0332,203.6297
19:34:31:680,-1.4405,1.998,10.4375,54.7542,0.2414,-0.0592,-0.9269,204.6966
19:34:31:702,-1.4501,1.9789,10.8993,53.8942,0.0227,0.1362,-0.608,206.2114
19:34:31:720,-1.2036,2.1176,11.0309,54.001,0.0178,0.2132,-0.4553,206.7043
19:34:31:736,-1.1916,2.4335,10.7868,53.5261,0.1473,0.3414,-0.3893,207.0995
19:34:31:755,-1.608,2.5819,10.5117,53.7146,0.3306,0.4697,-0.4235,207.5218
19:34:31:776,-2.4503,3.0556,10.2317,51.9853,0.4234,0.4331,-0.5115,208.0138
19:34:31:800,-2.735,3.2949,10.5643,52.5515,0.3232,0.1973,-0.5836,208.6299
19:34:31:816,-1.7898,2.3569,11.6961,53.9955,0.0667,-0.1619,-0.5934,209.3505
19:34:31:844,-0.6245,0.6102,13.2826,51.7213,-0.1862,-0.6249,-0.6691,210.2529
19:34:31:856,-1.3807,-0.0766,14.0746,53.9742,-0.2046,-1,-0.8463,211.3962
19:34:31:879,-2.9049,0.0933,13.1222,53.7991,0.1693,-0.8375,-0.8963,212.5289
19:34:31:901,-3.2806,-0.067,10.9424,51.902,0.7496,-0.2095,-0.6386,213.2661
19:34:31:918,-2.9169,-0.0694,9.1071,53.6881,1.0392,0.1203,-0.3111,213.5775
19:34:32:059,-2.3019,0.0598,8.3294,52.4899,0.8877,-0.0568,-0.134,213.7337
19:34:32:059,-1.6199,0.402,8.7051,52.1751,0.5187,-0.3317,-0.0851,213.9111
19:34:32:060,-1.151,0.5049,8.9874,52.5575,0.2072,-0.4258,-0.0717,214.1151
19:34:32:061,-1.1557,0.5288,8.6166,52.5478,0.0972,-0.2376,-0.0668,214.266
19:34:32:062,-1.2347,0.7442,7.7527,53.0219,0.1326,0.0214,-0.035,214.3176
19:34:32:063,-1.2825,1.1462,6.7789,50.6399,0.1949,0.2327,0.0248,214.2579
19:34:32:064,-1.2849,1.5386,6.0443,51.0937,0.1901,0.339,0.0786,214.1369
19:34:32:076,-1.2802,1.8736,5.8816,50.1907,0.1155,0.3146,0.1091,213.9902
19:34:32:099,-1.4405,2.321,6.0658,49.5943,0.0154,0.1704,0.0847,213.9067
19:34:32:117,-1.8018,2.6034,6.3769,48.8825,-0.0335,0.0715,0.0309,213.9054
19:34:32:138,-2.0602,2.869,6.7454,50.5886,-0.0237,0.047,-0.0118,213.9619
19:34:32:158,-2.0411,2.9862,7.803,50.0575,-0.0237,-0.1032,-0.057,214.126
19:34:32:180,-2.0387,2.7829,8.485,50.0074,-0.0567,-0.201,-0.0863,214.312
19:34:32:197,-2.2947,2.7111,9.2602,49.3391,-0.0946,-0.2474,-0.1193,214.5499
19:34:32:218,-2.3474,2.7996,9.746,49.7493,-0.0983,-0.212,-0.0998,214.7644
19:34:32:237,-1.785,2.5819,10.1862,48.7431,-0.0726,-0.1118,-0.0167,214.8614
19:34:32:256,-1.3041,2.4024,10.7677,49.1421,-0.0946,-0.0727,0.0285,214.9059
19:34:32:280,-1.2108,2.3497,11.3515,48.3093,-0.1508,-0.0776,0.0187,214.9624
19:34:32:300,-1.1533,2.2158,11.7703,47.1232,-0.196,-0.0898,-0.0069,215.0527
19:34:32:317,-1.0457,2.1966,11.9952,47.929,-0.2216,-0.0922,-0.0179,215.1538
19:34:32:337,-0.4546,2.1918,12.2273,45.4199,-0.2571,-0.1106,0.0102,215.3069
19:34:32:355,0.9308,1.718,12.8088,46.8272,-0.3316,-0.179,0.0431,215.4609
19:34:32:377,2.0985,0.8375,13.4716,44.8623,-0.4208,-0.2474,-0.0509,215.711
19:34:32:398,1.7874,-0.1795,13.8114,46.3468,-0.4721,-0.2841,-0.2965,216.2595
19:34:32:418,0.4164,-0.3541,13.3783,45.9776,-0.3768,-0.1839,-0.5005,216.9022
19:34:32:437,0.1029,-0.5647,11.8277,46.6253,-0.0628,0.0825,-0.4296,217.4118
19:34:32:458,0.6078,-0.4498,10.2006,45.4843,0.2646,0.2633,-0.2073,217.6623
19:34:32:479,1.0265,0.2417,8.8798,46.3973,0.4002,0.2779,-0.0839,217.7882
19:34:32:497,1.3376,0.7729,7.992,46.8099,0.3306,0.229,-0.1071,217.9637
19:34:32:516,1.4333,1.1725,7.602,46.9075,0.1106,0.1606,-0.25,218.3053
19:34:32:537,1.0265,1.4333,7.669,47.0195,-0.174,0.0934,-0.459,218.917
19:34:32:556,0.2393,1.5506,8.1643,46.8339,-0.4012,0.0165,-0.6679,219.7513
19:34:32:577,-0.4283,1.6319,8.5496,47.9639,-0.4513,-0.0837,-0.8023,220.7576
19:34:32:601,-0.7035,1.7492,8.5232,46.5531,-0.2864,-0.1228,-0.8181,221.7647
19:34:32:618,-0.6556,2.522,7.7982,46.3755,0.1864,-0.0018,-0.7644,223.5942
19:34:32:638,-0.7226,2.6273,7.6283,48.0027,0.2682,0.0739,-0.7766,224.5388
19:34:32:657,-0.7466,2.5938,7.681,46.7213,0.2499,0.1191,-0.7901,225.4859
19:34:32:684,-0.9165,2.5747,8.0853,47.8405,0.1937,0.1411,-0.8133,226.4391
19:34:32:702,-1.0265,2.5771,8.6788,49.3364,0.1509,0.1081,-0.8218,227.4196
19:34:32:717,-1.0672,2.5579,9.2411,46.9518,0.1656,0.0482,-0.7949,228.4076
19:34:32:736,-0.9356,2.3689,9.4828,47.441,0.2279,0.0141,-0.751,229.3323
19:34:32:757,-1.0624,2.388,9.5713,46.6623,0.2744,0.0226,-0.7057,230.1978
19:34:32:780,-1.3759,2.5196,9.7651,46.397,0.2499,0.0666,-0.6593,231.0074
19:34:32:798,-1.8497,2.467,10.3466,46.8753,0.1668,0.0995,-0.6129,231.7691
19:34:32:819,-1.6534,2.1416,10.6313,46.6874,0.096,0.0299,-0.5457,232.4591
19:34:32:844,-1.5051,2.2277,10.9137,46.2971,0.1021,0.0104,-0.4663,233.0645
19:34:32:856,-2.0172,2.8211,11.0213,47.0594,0.0789,0.1167,-0.4272,233.7657
19:34:32:878,-2.4574,3.0317,10.8371,45.1259,-0.0042,0.2657,-0.3722,234.3304
19:34:32:896,-2.735,2.8642,10.7677,47.7096,-0.1056,0.361,-0.338,234.748
19:34:32:916,-2.6393,2.0842,11.0668,46.4618,-0.2131,0.2571,-0.4003,235.2406
19:34:32:936,-2.1727,0.6508,11.921,46.6841,-0.3047,-0.0165,-0.5775,235.9446
19:34:32:955,-2.7182,-0.4044,12.6365,46.3202,-0.3121,-0.372,-0.7766,236.945
19:34:32:978,-3.862,-0.1364,12.0646,47.7721,-0.1239,-0.5113,-0.8011,237.9694
19:34:32:997,-4.0869,0.012,10.3203,46.6674,0.2572,-0.1839,-0.5298,238.6168
19:34:33:018,-3.4481,0.1005,8.5902,47.437,0.5065,0.1289,-0.1731,238.8433
19:34:33:037,-2.7757,0.3087,7.992,46.4996,0.4234,0.0825,0.0163,238.8634
19:34:33:058,-2.132,0.4905,8.2074,46.6674,0.1375,-0.1399,0.0224,238.937
19:34:33:084,-1.7468,0.2656,8.7338,46.4305,-0.2388,-0.168,-0.145,239.3222
19:34:33:098,-1.7635,0.5527,8.2959,48.4924,-0.2021,-0.0055,-0.1364,239.5581
19:34:33:120,-1.5888,0.9691,7.4752,47.4847,-0.0799,0.0995,-0.0802,239.736
19:34:33:136,-1.328,1.4429,6.6784,47.3992,0.0471,0.08,-0.0362,239.8991
19:34:33:156,-1.1294,1.9908,6.2405,46.8971,0.0825,-0.0275,-0.0485,240.0762
19:34:33:176,-1.0744,2.1942,6.4654,47.6502,-0.0311,-0.1277,-0.1291,240.3502
19:34:33:198,-1.3998,2.0674,7.1833,46.6945,-0.2021,-0.2034,-0.2342,240.7664
19:34:33:220,-1.809,1.9286,7.8652,45.0361,-0.284,-0.2425,-0.3038,241.2544
19:34:33:237,-2.053,1.7492,8.1882,46.6102,-0.218,-0.2535,-0.316,241.7729
19:34:33:257,-2.2899,1.7348,8.193,46.985,-0.0873,-0.2413,-0.283,242.2527
19:34:33:277,-2.2588,1.7396,8.0853,46.978,-0.025,-0.1985,-0.1963,242.603
19:34:33:295,-2.1535,1.6989,8.2217,46.1263,-0.0592,-0.1362,-0.0986,242.8604
19:34:33:315,-2.2899,1.6893,8.4323,47.2716,-0.1288,-0.1032,-0.0472,243.0341
19:34:33:335,-1.9621,1.3902,9.2171,46.7609,-0.2021,-0.1827,-0.0326,243.2082
19:34:33:355,-1.7252,0.9834,10.7007,45.637,-0.317,-0.3671,-0.0851,243.4493
19:34:33:375,-1.7515,0.7346,12.0383,47.7708,-0.3841,-0.4771,-0.1706,243.7796
19:34:33:395,-1.663,0.7896,12.6652,44.509,-0.2876,-0.4087,-0.1535,244.0916
19:34:33:416,-1.1773,1.1486,12.3661,45.6924,-0.0628,-0.2731,-0.0143,244.265
19:34:33:437,-0.2321,1.3783,11.6004,47.3404,0.1106,-0.1839,0.1116,244.25
19:34:33:457,0.6174,1.2395,11.3109,46.4756,0.0386,-0.234,0.0945,244.2958
19:34:33:479,1.2132,0.3876,12.189,45.1635,-0.2669,-0.4136,-0.1157,244.6109
19:34:33:498,1.1581,-0.9093,13.8521,46.0207,-0.5821,-0.7092,-0.4296,245.245
19:34:33:526,0.335,-1.2108,14.9527,46.4813,-0.6346,-0.9047,-0.6276,246.754
19:34:33:537,0.7011,-0.682,12.8734,46.2244,0.0874,-0.2584,-0.2696,247.0405
19:34:33:556,1.1677,-0.5743,10.6552,43.6738,0.4038,0.1851,-0.1108,247.2192
19:34:33:582,1.3543,-0.3972,9.1908,46.0956,0.4234,0.3671,-0.1132,247.3736
19:34:33:598,1.2921,-0.3063,8.4538,45.8267,0.2438,0.3561,-0.2305,247.6522
19:34:33:618,0.6676,-0.2441,8.2409,46.2395,0.0288,0.2633,-0.4162,248.1517
19:34:33:635,-0.055,-0.1125,8.1691,46.4317,-0.0787,0.1521,-0.5628,248.8232
19:34:33:655,-0.548,0.0502,7.7599,47.7362,-0.0213,0.0727,-0.5824,249.5402
19:34:33:679,-0.6628,0.414,6.8291,47.3031,0.1424,0.0434,-0.5176,250.1915
19:34:33:699,-0.6126,0.7274,5.8816,46.4749,0.2475,0.0617,-0.4577,250.7866
19:34:33:716,-0.6389,1.0217,5.4604,44.7967,0.1791,0.102,-0.4651,251.3751
19:34:33:737,-0.9619,1.3256,5.927,47.3169,-0.0482,0.08,-0.5347,252.04
19:34:33:755,-1.1414,1.2849,6.8291,46.73,-0.2754,0.0055,-0.6044,252.8026
19:34:33:775,-1.4142,1.2873,7.8652,45.1386,-0.3744,-0.0397,-0.6398,253.6366
19:34:33:795,-1.4524,1.407,8.6333,46.088,-0.3622,-0.0764,-0.6031,254.4011
19:34:33:817,-1.1198,1.4453,9.1023,45.7879,-0.2864,-0.0617,-0.5029,255.0746
19:34:33:837,-1.0672,1.462,9.9685,45.5678,-0.2412,-0.0348,-0.448,255.6811
19:34:33:856,-0.8614,1.3543,11.5262,46.007,-0.2094,-0.2071,-0.437,256.2694
19:34:33:880,-1.2897,1.4931,12.3709,46.4369,-0.0384,-0.5858,-0.4736,256.9211
19:34:33:900,-2.2804,1.7396,12.1795,45.1547,0.2817,-0.7007,-0.4859,257.6
19:34:33:918,-2.6201,1.8544,11.4808,45.8769,0.4833,-0.3855,-0.3233,258.0934
19:34:33:939,-1.9262,1.9382,11.1984,46.0071,0.3965,0.1313,0.0065,258.1559
19:34:33:955,-1.4931,2.0076,11.6674,44.9742,0.1192,0.5736,0.2631,257.9307
19:34:33:975,-1.6965,1.9406,12.3446,44.8248,-0.0946,0.813,0.3132,257.607
19:34:34:000,-3.1346,1.6295,12.0383,43.2204,0.0862,0.6041,0.1885,257.1154
19:34:34:017,-3.4026,1.328,11.5478,45.4278,0.2414,0.4074,0.1568,256.9757
19:34:34:037,-3.0269,0.5695,11.6698,46.2547,0.2292,0.1912,0.1592,256.8059
19:34:34:055,-2.6321,-0.1627,12.1484,45.2581,0.1998,0.0165,0.202,256.5966
19:34:34:181,-2.7924,0.0024,12.0168,46.978,0.2853,-0.0727,0.2912,256.2687
19:34:34:182,-2.3952,0.1436,10.8515,44.8422,0.5065,0.047,0.4585,255.8078
19:34:34:182,-1.8688,0.1723,9.545,44.4958,0.6726,0.2132,0.5722,255.1613
19:34:34:182,-1.4237,0.0814,8.7051,44.3513,0.6201,0.2107,0.5489,254.5414
19:34:34:183,-1.0457,0.0574,8.4419,43.7888,0.3867,0.1777,0.472,254.0184
19:34:34:183,-0.7777,0.2106,8.5926,42.7371,0.096,0.2217,0.4072,253.5664
19:34:34:196,-0.5432,0.2584,8.4802,43.6753,-0.0665,0.3244,0.329,253.1692
19:34:34:217,-0.4546,0.1914,7.8796,43.4929,-0.0592,0.3561,0.2154,252.8931
19:34:34:236,-0.6532,0.4355,7.0612,43.1079,0.0043,0.2462,0.0908,252.7997
19:34:34:255,-0.9595,0.7155,6.3506,45.4014,0.0117,0.1167,-0.0167,252.8281
19:34:34:274,-1.6295,1.194,6.2836,42.375,-0.0787,0.0238,-0.0741,252.9629
19:34:34:297,-2.0315,1.5553,6.4247,41.6887,-0.1765,-0.0226,-0.0546,253.0854
19:34:34:315,-2.4191,2.0052,6.7573,43.0863,-0.1911,0.0177,0.0163,253.1418
19:34:34:335,-2.5531,2.3067,6.9607,42.5841,-0.1606,0.0543,0.0871,253.1092
19:34:34:354,-2.8475,2.4574,7.3579,41.579,-0.1716,0.0251,0.1152,253.0341
19:34:34:375,-3.0915,2.4383,8.5926,42.5945,-0.2607,-0.0874,0.1079,252.9829
19:34:34:398,-3.0628,2.1775,10.5117,40.7872,-0.3145,-0.2474,0.1177,252.9509
19:34:34:421,-2.991,2.0506,11.9521,41.4013,-0.1239,-0.3024,0.1702,252.8553
19:34:34:440,-2.522,1.9262,12.0622,39.6484,0.2951,-0.2413,0.2594,252.3719
19:34:34:456,-1.9765,1.4357,11.0931,41.2127,0.8693,-0.2181,0.1568,252.2173
19:34:34:480,-1.4668,1.1151,10.8251,38.2797,0.818,-0.2083,0.0505,252.1759
19:34:34:496,-1.2347,1.0122,10.9998,39.9523,0.5932,-0.1643,-0.0228,252.1988
19:34:34:514,-1.2562,1.1414,11.3946,39.7935,0.333,-0.0971,-0.0595,252.2456
19:34:34:535,-0.7083,0.9978,11.5454,39.5023,0.1485,-0.047,-0.0424,252.2628
19:34:34:555,0.1005,0.5623,11.921,39.5304,-0.0067,-0.0996,-0.0607,252.301
19:34:34:576,0.5719,-0.2417,12.7801,40.0218,-0.1887,-0.2914,-0.1902,252.4591
19:34:34:596,0.2536,-0.4786,13.6893,38.8275,-0.2791,-0.438,-0.3099,252.7853
19:34:34:615,0.0263,-0.0502,13.2395,39.1149,-0.1093,-0.3586,-0.2598,253.0223
19:34:34:637,0.6197,0.2465,11.2702,38.7486,0.2719,-0.0715,-0.0375,253.006
19:34:34:654,1.1462,0.6317,9.2052,39.2471,0.5615,0.2034,0.1311,252.7722
19:34:34:674,1.5936,0.792,8.1404,39.4831,0.5407,0.2657,0.1128,252.5533
19:34:34:699,1.5194,0.9834,7.7551,37.5989,0.3477,0.1961,-0.0253,252.5043
19:34:34:715,0.7872,1.1198,7.6235,38.4586,0.1998,0.1826,-0.2158,252.6664
19:34:34:735,-0.0215,1.2251,7.3149,37.8446,0.1632,0.2303,-0.3551,252.9682
19:34:34:755,-0.5025,1.4142,6.6879,39.1339,0.1901,0.2083,-0.4101,253.3314
19:34:34:775,-0.6987,1.663,6.3553,39.7792,0.1791,0.0922,-0.426,253.7494
19:34:34:797,-0.9188,1.8664,6.4032,40.6578,0.0777,-0.047,-0.4541,254.2223
19:34:34:816,-1.3424,2.0865,7.0493,40.3955,-0.0714,-0.1277,-0.4749,254.7125
19:34:34:838,-1.4285,2.2564,7.4943,39.6607,-0.1374,-0.1485,-0.4321,255.1856
19:34:34:862,-1.2778,2.479,7.858,39.8057,-0.1251,-0.1313,-0.3808,255.9677
19:34:34:881,-1.1198,2.6824,8.3246,39.1955,-0.0909,-0.0617,-0.3515,256.3359
19:34:34:899,-1.3687,2.6297,9.2722,39.8914,-0.13,0.1081,-0.4052,256.7159
19:34:34:916,-1.5793,2.6178,9.8656,38.3851,-0.047,-0.0458,-0.3954,257.1762
19:34:34:936,-1.7085,2.6058,9.7675,39.5475,0.1583,-0.1851,-0.3478,257.5623
19:34:34:959,-1.8473,2.8546,9.6861,40.2749,0.3,-0.1301,-0.2574,257.8286
19:34:34:983,-1.9143,3.2877,9.6574,39.6506,0.3061,0.0287,-0.1071,257.9159
19:34:35:000,-2.0626,3.8261,9.8321,38.784,0.2548,0.1643,0.0383,257.8167
19:34:35:018,-1.7611,3.7232,10.459,38.1305,0.1668,0.1509,0.1409,257.5735
19:34:35:035,-1.5147,3.5653,11.0309,38.4594,0.1265,0.1216,0.1922,257.2727
19:34:35:054,-1.2658,3.5964,11.3348,38.9678,0.1583,0.2303,0.2068,256.9472
19:34:35:074,-1.6534,3.5916,10.8347,35.854,0.2145,0.4001,0.1287,256.6505
19:34:35:097,-2.9456,3.5701,10.483,37.5301,0.2401,0.4917,-0.0106,256.4642
19:34:35:116,-4.1204,3.4696,10.1456,36.8289,0.2194,0.4514,-0.0656,256.3428
19:34:35:135,-4.745,3.1131,10.1695,39.1638,0.1791,0.4196,-0.0191,256.1288
19:34:35:155,-4.1731,2.1416,10.9854,37.8101,0.0691,0.3109,0.0725,255.8115
19:34:35:174,-3.6323,0.8997,11.2941,37.2719,0.0642,0.0739,0.1262,255.476
19:34:35:198,-3.862,1.0241,10.5236,36.7066,0.1949,-0.0421,0.2227,255.0612
19:34:35:216,-3.2925,1.2921,9.265,37.7885,0.2853,0.102,0.4158,254.4085
19:34:35:235,-2.6488,1.1868,8.7266,36.9208,0.223,0.212,0.5221,253.6026
19:34:35:255,-2.2493,1.1246,8.7171,38.1625,0.1045,0.1826,0.5575,252.7554
19:34:35:274,-1.8018,1.1677,8.7099,36.9243,0.0373,0.0861,0.6161,251.9096
19:34:35:302,-0.9643,1.1127,7.815,38.0201,0.0618,0.0421,0.6626,250.1968
19:34:35:317,-0.7753,1.2491,6.0419,37.2688,-0.1068,0.3231,0.4243,249.5246
19:34:35:336,-1.0911,1.139,5.7547,35.7411,-0.2827,0.3769,0.2459,249.0108
19:34:35:354,-1.3424,1.1964,6.1878,37.6457,-0.4587,0.2217,0.1397,248.7787
19:34:35:382,-1.5721,1.4764,7.2718,38.009,-0.626,-0.0067,0.1067,248.5309
19:34:35:399,-1.7348,1.7587,8.5735,36.2753,-0.7067,-0.1717,0.1079,248.3171
19:34:35:414,-1.6654,2.1009,9.1741,36.5576,-0.6309,-0.2205,0.1323,248.1179
19:34:35:436,-1.6439,2.4311,9.143,36.6279,-0.4538,-0.1777,0.1409,247.9
19:34:35:454,-1.8999,2.6465,9.1047,36.6516,-0.3072,-0.1216,0.0945,247.7188
19:34:35:473,-2.278,2.7039,9.5713,36.6516,-0.2278,-0.1375,0.0358,247.5833
19:34:35:500,-2.4933,2.6536,9.7173,36.6516,-0.1178,-0.168,0.0358,247.4479
19:34:35:528,-2.5699,2.7757,9.8082,36.6516,0.0031,-0.1961,0.0969,247.2544
19:34:35:535,-2.7111,2.8953,9.9063,36.6516,0.1009,-0.2327,0.1702,246.9919
19:34:35:554,-2.6393,2.9121,9.8871,36.6516,0.1998,-0.2169,0.2227,246.6718
19:34:35:575,-2.412,2.8642,9.7197,36.6516,0.2548,-0.1924,0.2459,246.3271
19:34:35:597,-2.3163,2.7685,9.4971,36.8603,0.2182,-0.2034,0.2178,246.0186
19:34:35:615,-1.8209,2.2827,9.4564,36.8603,0.0948,-0.2046,0.191,245.677
19:34:35:635,-1.194,2.1105,9.8608,36.2548,-0.119,-0.2315,0.1971,245.3426
19:34:35:654,-0.4187,1.7444,11.3061,36.2722,-0.4391,-0.3512,0.1519,245.1107
19:34:35:676,-0.4068,1.0026,13.8329,35.2412,-0.7397,-0.5418,0.0077,245.0499
19:34:35:699,-0.1914,0.2201,15.9171,35.9479,-0.791,-0.6102,-0.0778,245.0541
19:34:35:715,-0.3541,0.0239,16.2209,36.8671,-0.5014,-0.4404,-0.0668,244.9847
19:34:35:737,-0.5121,0.335,14.3833,36.7214,-0.0018,-0.1375,0.0224,244.7305
19:34:35:754,-0.5168,0.7729,12.4714,35.4567,0.4881,0.0299,0.1788,244.3727
19:34:35:775,0.5647,0.9284,10.3298,35.1172,0.7997,-0.1118,0.3315,243.8736
19:34:35:801,2.5866,1.6343,8.1141,34.7704,0.559,-0.2193,0.1116,243.4265
19:34:35:817,1.273,1.5697,8.5041,34.7704,0.2047,0.0653,-0.2733,243.5853
19:34:35:835,0.122,1.474,8.2122,34.4885,0.0813,0.2804,-0.5225,243.9026
19:34:35:858,-0.402,1.5984,7.6403,33.7852,0.0948,0.2596,-0.5811,244.3153
19:34:35:874,-0.6724,1.8473,7.2742,35.4567,0.1326,0.1264,-0.5518,244.7256
19:34:35:894,-0.6604,2.0842,6.6664,38.3446,0.1925,0.0495,-0.4944,245.1256
19:34:35:916,-0.8351,2.3426,6.262,37.2249,0.2059,-0.0189,-0.4565,245.4593
19:34:35:935,-0.7537,2.4383,6.0969,35.579,0.1436,-0.1118,-0.4309,245.7982
19:34:35:955,-0.8925,2.6249,6.8315,35.5351,0.0239,-0.1057,-0.4345,246.1665
19:34:35:975,-1.0648,2.5914,7.2861,35.8286,-0.0372,-0.0495,-0.4614,246.5327
19:34:35:994,-1.06,2.546,7.3388,35.8286,-0.0262,-0.0397,-0.4675,246.9138
19:34:36:014,-1.1294,2.7805,8.1739,34.681,-0.086,0.0128,-0.4272,247.2367
19:34:36:034,-1.4333,3.0987,8.9492,35.8221,-0.1031,0.1216,-0.3832,247.4905
19:34:36:054,-1.5338,3.1537,9.1023,34.6913,-0.0103,0.1594,-0.349,247.7101
19:34:36:074,-1.6439,3.2901,8.8056,35.4386,0.0825,0.1729,-0.2867,247.8495
19:34:36:095,-2.0004,3.5318,9.1406,34.2497,0.0251,0.2511,-0.2305,247.916
19:34:36:113,-2.5842,3.7807,10.0953,35.0617,-0.1105,0.3586,-0.1902,247.9369
19:34:36:133,-2.4885,3.7328,10.9161,35.091,-0.1655,0.4429,-0.0949,247.7933
19:34:36:153,-2.2851,3.6778,11.5382,34.6274,-0.1068,0.4563,0.0028,247.5571
19:34:36:179,-2.0889,3.661,11.3683,33.5139,0.0227,0.4514,0.0505,247.2655
19:34:36:195,-2.1823,3.2806,10.6313,33.0944,0.1473,0.5553,0.0309,246.9681
19:34:36:291,-3.2782,2.9647,10.057,33.5119,0.1277,0.6017,-0.0497,246.7198
19:34:36:291,-4.8383,2.6034,10.6337,33.0953,-0.0421,0.5699,-0.0925,246.4962
19:34:36:292,-5.4676,1.919,11.9952,34.2754,-0.2009,0.4172,0.0163,246.1508
19:34:36:292,-4.1252,1.0983,12.4834,34.2967,0.0117,0.0861,0.4952,245.5647
19:34:36:304,-3.9936,1.5458,10.1145,34.1825,0.3538,0.0141,0.6088,244.9041
19:34:36:313,-3.8261,1.3735,7.992,33.6026,0.5224,-0.1631,0.621,243.1598
19:34:36:333,-3.6419,1.0768,8.5448,31.9142,0.3232,-0.3195,0.5868,242.4184
19:34:36:354,-3.8022,0.7202,9.7292,32.0016,0.0605,-0.2071,0.5624,241.6354
19:34:36:373,-3.6586,0.6078,9.3655,33.3591,0.0141,-0.0617,0.5489,240.8066
19:34:36:395,-3.3332,0.134,7.9872,30.9666,0.0324,-0.3989,0.6442,240.0099
19:34:36:420,-2.0865,0.3015,6.8004,30.1415,-0.0921,-1.1258,0.7493,239.3396
19:34:36:447,-0.6078,0.5719,6.7406,32.4116,-0.3634,-1.3702,0.8214,238.7085
19:34:36:476,-0.5168,1.0385,7.602,31.8186,-0.5943,-1.0244,0.7359,238.0551
19:34:36:477,-1.127,1.4716,8.2457,32.6423,-0.5833,-0.4954,0.6113,237.3795
19:34:36:500,-1.4429,1.5984,7.8197,32.6423,-0.334,-0.0849,0.5575,236.6517
19:34:36:521,-1.9119,2.1655,7.0229,31.5143,-0.0689,0.0702,0.6003,235.8528
19:34:36:534,-1.8951,2.4,6.8961,30.0117,0.0007,0.1032,0.6858,234.9557
19:34:36:555,-1.9717,2.735,7.0301,29.4012,-0.0518,0.1093,0.7517,233.9934
19:34:36:574,-1.7324,2.8857,7.9729,28.9019,-0.207,0.0519,0.7566,233.0435
19:34:36:594,-1.596,2.7206,9.9015,26.9936,-0.4049,-0.0592,0.6992,232.1878
19:34:36:614,-2.1129,2.6417,10.9591,27.2801,-0.3402,-0.0898,0.6235,231.4109
19:34:36:634,-2.2301,2.6082,10.6289,26.0856,-0.0457,0.0678,0.643,230.5487
19:34:36:654,-2.2086,2.747,10.0522,25.6149,0.1888,0.0837,0.7249,229.592
19:34:36:674,-1.785,2.9049,9.7484,25.3695,0.2316,0.0018,0.7835,228.6421
19:34:36:704,-1.395,2.8307,10.0642,26.9925,0.1094,0.047,0.7884,227.6556
19:34:36:714,-0.9787,2.5196,10.6959,24.4798,-0.0689,0.0825,0.7285,226.6921
19:34:36:734,-0.8566,2.3306,11.1218,24.5305,-0.1581,-0.1802,0.5709,225.8878
19:34:36:754,-0.4379,2.3306,11.2893,24.6168,-0.207,-0.2902,0.5636,225.3091
19:34:36:773,0.1986,1.9023,11.6746,24.1145,-0.3035,-0.2902,0.5526,224.014
19:34:36:795,0.7059,1.2299,12.6676,24.6817,-0.4306,-0.2657,0.4903,223.4241
19:34:36:822,0.7729,0.6652,13.7587,21.8787,-0.4452,-0.2462,0.4121,222.887
19:34:36:833,0.5049,0.7131,13.0002,21.3417,-0.1655,-0.0898,0.3938,222.3773
19:34:36:853,0.4953,0.8925,10.5547,23.2101,0.2719,0.2559,0.4622,221.7079
19:34:36:873,0.8303,0.9954,8.863,22.2977,0.4515,0.4294,0.5013,220.9489
19:34:36:894,1.2586,1.0074,8.0542,23.2101,0.3257,0.3781,0.4549,220.2674
19:34:36:927,1.3663,0.9212,7.9825,19.8328,0.0703,0.2327,0.329,219.7633
19:34:36:934,1.3185,0.9811,8.8798,21.0745,-0.1789,0.1484,0.1726,219.455
19:34:36:956,0.7274,0.8399,8.4012,21.4006,-0.1972,0.1399,0.0163,219.278
19:34:36:973,0.1292,0.6461,7.3651,18.5977,-0.0677,0.1875,-0.0827,219.1797
19:34:36:993,-0.3493,0.658,6.3218,19.8057,-0.0103,0.1521,-0.0851,219.1197
19:34:37:015,-0.658,0.9308,5.6423,19.6975,-0.0531,0.0592,-0.0289,219.0131
19:34:37:040,-0.7322,1.2538,5.6375,18.2924,-0.1691,-0.0287,0.0493,218.8386
19:34:37:054,-0.7513,1.4644,5.6949,18.6462,-0.2754,-0.0776,0.1238,218.639
19:34:37:075,-0.4068,1.5075,6.0658,21.7885,-0.3902,0.0006,0.1568,218.372
19:34:37:104,-0.7513,1.7061,6.3936,17.6373,-0.5295,0.1252,0.1702,218.0131
19:34:37:116,-1.1581,1.7994,7.2144,18.3355,-0.6517,0.1753,0.2276,217.6167
19:34:37:133,-1.2179,1.9214,8.4395,18.1231,-0.7311,0.1435,0.3584,217.0705
19:34:37:155,-1.2299,2.0483,9.4684,16.8237,-0.7384,0.047,0.5416,216.3541
19:34:37:174,-1.3208,2.2445,10.1336,15.812,-0.6822,0.0592,0.6748,215.5062
19:34:37:207,-1.8401,3.0269,11.6291,14.4558,-0.604,0.4184,0.7701,214.5511
19:34:37:227,-2.3378,3.3619,12.4953,15.5624,-0.5234,0.4722,0.7982,212.7331
19:34:37:233,-2.1966,3.3643,12.9667,16.4977,-0.3194,0.3976,0.8935,211.6039
19:34:37:258,-1.5601,3.082,13.1342,14.0116,-0.0592,0.2388,0.9765,210.372
19:34:37:275,-1.3878,2.8881,12.6987,15.2776,0.1729,0.0959,0.946,209.3409
19:34:37:294,-1.8592,2.7852,12.4451,13.4641,0.2438,0.2107,0.8507,208.2536
19:34:37:332,-2.6441,2.4598,12.6772,14.7101,0.1901,0.4331,0.7908,207.2963
19:34:37:334,-3.1968,2.1607,12.4427,12.0343,0.1925,0.5369,0.8006,206.2874
19:34:37:353,-3.283,1.675,11.9091,12.374,0.2572,0.5296,0.8947,205.165
19:34:37:373,-3.1226,1.1533,12.1532,13.3157,0.2634,0.3989,1.0034,203.9376
19:34:37:394,-3.216,0.6915,12.2201,12.2136,0.2853,0.1472,1.0841,202.6493
19:34:37:414,-3.2901,0.3087,11.3468,9.6173,0.4393,-0.0568,1.1989,201.258
19:34:37:437,-2.9791,0.2943,9.8848,10.3633,0.5896,-0.1594,1.376,199.7027
19:34:37:453,-2.5053,0.3063,8.6142,10.2742,0.5932,-0.2144,1.5166,198.0218
19:34:37:473,-2.0076,0.2393,8.3294,9.9866,0.3941,-0.2767,1.5288,196.3652
19:34:37:494,-1.4165,0.2441,9.1597,9.9524,0.1009,-0.3268,1.4677,194.809
19:34:37:515,-1.1868,0.4427,9.8106,10.225,-0.0665,-0.3451,1.3541,193.3918
19:34:37:538,-0.9834,0.3398,9.4301,11.8011,-0.0067,-0.2804,1.2123,192.1163
19:34:37:553,-0.9763,0.2441,8.4012,11.7437,0.1363,-0.1741,1.0926,190.9452
19:34:37:573,-0.6724,0.3278,7.5972,12.1634,0.2401,-0.1154,1.0657,189.8044
19:34:37:593,-0.0191,0.3565,6.9033,12.4583,0.3244,-0.0446,1.1293,188.6043
19:34:37:613,0.481,0.4857,6.3434,11.6145,0.3867,-0.0043,1.1794,187.3647
19:34:37:633,0.2919,0.926,6.2333,11.7954,0.3525,-0.0214,1.1549,186.149
19:34:37:658,-0.3924,2.0698,6.5491,10.3779,0.2194,0.0934,1.1293,183.7196
19:34:37:673,-0.2608,2.412,6.8124,12.1061,0.1583,0.2523,1.1427,182.4245
19:34:37:697,0.1723,2.6728,7.5924,11.4269,0.0092,0.3512,1.1158,181.1559
19:34:37:715,0.3613,2.9791,8.7649,11.6905,-0.1777,0.306,0.9802,180.052
19:34:37:734,-0.0383,2.9456,10.3657,13.3571,-0.3011,0.157,0.7395,179.2299
19:34:37:757,-0.7537,2.254,11.3492,15.2817,-0.24,-0.1252,0.5062,178.6978
19:34:37:773,-1.1773,1.5721,10.8251,14.1121,0.0092,-0.3329,0.4427,178.0963
19:34:37:798,-0.9236,1.4596,10.1049,12.6008,0.1314,-0.1839,0.5795,177.4882
19:34:37:816,-0.1077,1.4094,10.2126,13.2824,-0.0274,0.1472,0.731,176.67
19:34:37:835,0.4642,1.3543,11.0477,13.6108,-0.3304,0.3976,0.7493,175.7952
19:34:37:854,0.5647,1.5912,12.1699,14.2981,-0.5784,0.3732,0.6736,175.0172
19:34:37:873,1.0816,1.4501,12.5838,15.5562,-0.6224,0.1655,0.6088,174.3782
19:34:37:894,1.5242,1.0433,12.2632,14.5084,-0.5112,-0.0483,0.5098,173.7171
19:34:37:916,1.1725,0.7466,12.1627,13.7327,-0.4574,-0.2095,0.3095,173.4787
19:34:37:933,0.1149,0.7513,12.1364,12.6008,-0.4403,-0.2657,0.1323,173.3946
19:34:37:954,-0.2728,0.4905,11.9426,14.8283,-0.3206,-0.1753,0.1372,173.2701
19:34:37:973,0.0861,0.4355,11.4688,14.8283,-0.1276,-0.1668,0.2741,173.0063
19:34:37:992,0.7849,0.6532,10.8491,13.5581,0.0324,-0.1998,0.3816,172.6566
19:34:38:013,1.2012,0.7968,10.0379,15.4287,0.1192,-0.1741,0.3608,172.3365
19:34:38:033,1.1892,0.9141,9.1717,14.5107,0.1204,-0.0788,0.1995,172.0275
19:34:38:055,0.8471,0.9308,8.3103,15.3888,0.0642,0.1228,-0.0277,172.0635
19:34:38:074,0.2297,0.8662,7.5517,15.337,-0.0372,0.372,-0.2366,172.1056
19:34:38:096,-0.4355,0.8853,7.0804,15.9907,-0.1422,0.4038,-0.3356,172.338
19:34:38:119,-0.7872,1.1988,7.3172,15.1186,-0.2546,0.1924,-0.2965,172.5963
19:34:38:139,-0.5432,1.4094,7.1067,18.1736,-0.1911,0.1228,-0.233,172.6609
19:34:38:153,-0.3063,1.6247,6.9655,16.514,-0.1593,0.1716,-0.1853,172.6334
19:34:38:174,-0.1747,1.8233,7.1976,13.2869,-0.2119,0.2425,-0.1645,172.59
19:34:38:193,-0.0742,1.9789,8.0207,15.1688,-0.3023,0.2645,-0.1657,172.7299
19:34:38:216,0.0718,2.2205,9.1358,15.8285,-0.356,0.212,-0.1853,172.7552
19:34:38:237,0.2871,2.1823,9.734,16.8493,-0.2901,0.1582,-0.2036,172.8044
19:34:38:253,0.1101,2.1655,9.8848,18.3049,-0.1703,0.2034,-0.2207,172.8329
19:34:38:273,-0.1531,2.2014,10.3466,16.9136,-0.1142,0.2877,-0.2012,172.8275
19:34:38:421,-0.536,2.3761,10.7988,19.7353,-0.0579,0.3305,-0.1022,172.5266
19:34:38:422,-0.6772,2.5986,11.0166,21.6616,0.0495,0.3537,0.081,171.9907
19:34:38:422,-0.5025,2.7326,10.6816,21.2031,0.2047,0.3854,0.3132,171.0936
19:34:38:423,-0.1531,2.8235,10.1432,20.8649,0.3428,0.3793,0.5013,170.2182
19:34:38:423,0.0622,2.8283,9.8225,19.6764,0.3428,0.2975,0.5477,169.3705
19:34:38:424,0.055,2.5795,10.2006,17.055,0.1668,0.1973,0.4414,168.6389
19:34:38:425,-0.4594,2.2253,11.1577,18.4422,-0.0983,0.1521,0.2655,168.1509
19:34:38:480,-1.4883,1.9932,11.8971,16.7375,-0.3157,0.1948,0.1274,167.7463
19:34:38:481,-2.3234,1.6008,12.1388,17.6492,-0.389,0.3561,0.1238,167.2925
19:34:38:482,-2.5675,1.0026,12.4283,18.4663,-0.3793,0.4477,0.2521,166.6797
19:34:38:512,-2.3019,0.4259,12.8064,20.3588,-0.3524,0.2963,0.428,165.8985
19:34:38:521,-2.1344,0.2513,12.792,18.1495,-0.2693,0.058,0.5795,163.928
19:34:38:534,-1.9573,0.1675,10.8754,19.8974,0.1607,0.1277,0.9265,162.6691
19:34:38:552,-1.6391,0.2441,9.6359,19.5903,0.399,0.2645,1.0718,161.2181
19:34:38:572,-1.2945,0.5192,8.8869,19.0693,0.4075,0.1619,1.0975,159.985
19:34:38:593,-0.8519,0.7155,8.7721,19.5903,0.2707,-0.0507,1.0144,158.6747
19:34:38:618,-0.6867,0.7202,9.0975,18.8812,0.1033,-0.1729,0.836,157.5569
19:34:38:635,-0.8088,0.8183,9.131,19.5275,0.0386,-0.1485,0.6491,156.6223
19:34:38:652,-0.9332,1.0361,8.7577,20.6502,0.0801,-0.0287,0.5025,155.8066
19:34:38:672,-1.2156,1.0361,8.1523,20.91,0.1559,0.1338,0.3913,155.0419
19:34:38:692,-1.4477,1.1198,7.4991,19.2862,0.2072,0.2706,0.3254,154.3094
19:34:38:715,-1.4859,1.2945,7.2287,19.4959,0.1534,0.3231,0.2936,153.5955
19:34:38:733,-1.4668,1.3161,7.5182,19.5903,0.0141,0.4123,0.2545,152.9265
19:34:38:753,-1.742,1.5027,7.7193,19.895,-0.0628,0.5956,0.2337,152.2104
19:34:38:772,-1.7085,1.6128,7.5757,18.9002,-0.0628,0.8008,0.2802,151.4412
19:34:38:792,-1.7276,1.7755,7.6738,19.895,-0.0665,0.8863,0.3657,150.5829
19:34:38:814,-1.6008,1.8018,8.3773,19.3336,-0.108,0.7238,0.4463,149.6361
19:34:38:833,-1.4285,1.7731,9.3966,18.3053,-0.0799,0.3598,0.4854,148.7395
19:34:38:852,-1.2491,1.7994,9.868,20.4337,0.0679,-0.0849,0.4732,147.9494
19:34:38:872,-0.8662,1.5721,9.4182,20.8282,0.2902,-0.4649,0.4659,147.2126
19:34:38:892,-0.3709,1.2443,9.1071,19.8518,0.3782,-0.6249,0.4475,146.559
19:34:38:914,-0.3422,1.2491,9.5498,21.0338,0.2243,-0.6787,0.3657,146.0387
19:34:38:933,-0.4929,1.2562,10.2724,19.895,-0.0164,-0.6493,0.2496,145.5748
19:34:38:952,-0.6508,1.2323,10.6792,20.8282,-0.1862,-0.5272,0.1555,145.2014
19:34:38:973,-0.658,1.3304,10.3561,19.8634,-0.2766,-0.3952,0.1555,144.7845
19:34:38:995,0.3278,0.926,10.4686,20.3991,-0.4379,-0.3341,0.1629,144.4141
19:34:39:014,1.2586,-0.1531,11.9761,20.9421,-0.7641,-0.449,-0.0204,144.2759
19:34:39:034,-0.0766,-0.725,16.0941,20.4855,-1.0988,-1.0892,-0.6117,145.5682
19:34:39:053,-0.7107,-1.0744,15.5486,20.3991,-0.5943,-1.0354,-0.5946,146.0411
19:34:39:072,-0.67,-1.2921,13.4931,21.34,0.0874,-0.7043,-0.3344,146.2634
19:34:39:092,-0.1914,-1.0911,11.062,20.6378,0.603,-0.4429,0.0798,145.9234
19:34:39:114,0.5025,-0.4235,9.0568,19.6869,0.7985,-0.2816,0.4573,145.1976
19:34:39:135,1.0098,0.1627,7.3723,20.0788,0.7362,-0.0495,0.621,144.274
19:34:39:153,1.261,0.402,6.1735,20.8556,0.5321,0.3353,0.5538,143.3459
19:34:39:172,1.2514,0.6389,5.5155,20.4028,0.2548,0.587,0.3584,142.6269
19:34:39:192,1.0361,0.9141,5.5418,19.0698,-0.0445,0.5968,0.1274,142.0813
19:34:39:214,0.6724,1.1127,6.0945,20.2897,-0.2717,0.4392,-0.0925,141.7803
19:34:39:233,0.323,1.2562,6.9129,18.3319,-0.3829,0.2168,-0.272,141.6926
19:34:39:253,0.1579,1.3543,7.334,19.5967,-0.345,-0.0104,-0.36,141.8349
19:34:39:273,0.1005,1.5936,7.3412,20.5536,-0.2265,-0.1411,-0.3918,141.901
19:34:39:293,0.2441,1.4524,6.4343,19.9798,-0.1765,-0.1729,-0.4162,141.9828
19:34:39:316,-0.0646,2.2229,9.1908,20.1688,-0.4147,0.2022,-0.4663,142.0582
19:34:39:333,0.0431,1.9597,9.7077,19.2022,-0.3829,0.2352,-0.5518,142.2339
19:34:39:359,0.1531,1.8329,10.2221,20.3991,-0.2485,0.1069,-0.5616,142.4877
19:34:39:372,0.2489,1.9095,10.6792,20.7384,-0.0958,0.0141,-0.5482,142.7084
19:34:39:393,0.1029,1.986,11.1697,19.2022,0.0239,-0.0861,-0.5127,142.9188
19:34:39:416,-0.4451,2.2038,11.4688,20.1688,0.1314,-0.1802,-0.4418,143.0165
19:34:39:434,-0.792,2.4598,11.8612,20.1879,0.2438,-0.1154,-0.25,142.8226
19:34:39:455,-0.4546,2.4742,12.3087,20.0327,0.3647,0.0556,0.0517,142.3648
19:34:39:473,0.1292,2.5053,12.3111,19.8168,0.4881,0.1716,0.3132,141.6454
19:34:39:493,-0.3015,2.8451,10.5045,19.0976,0.5859,0.5113,0.4121,140.7663
19:34:39:516,-0.9428,2.8235,10.2006,19.0976,0.4088,0.6102,0.3913,139.2042
19:34:39:533,-1.7563,2.9695,10.4423,21.2992,0.1729,0.6286,0.4072,138.1271
19:34:39:553,-2.3569,2.9527,10.8826,19.6131,0.03,0.5919,0.4427,136.9938
19:34:39:574,-2.546,2.388,11.2726,20.1018,0.0141,0.4404,0.4903,135.9293
19:34:39:592,-2.6034,1.6056,11.6172,19.8636,0.063,0.1338,0.5269,134.824
19:34:39:618,-2.3665,0.9595,11.4018,20.4187,0.1986,-0.2046,0.61,133.8106
19:34:39:636,-2.3402,0.9308,10.2843,19.9239,0.4088,-0.339,0.7469,132.7171
19:34:39:654,-2.0961,1.0074,8.8415,21.1311,0.5724,-0.2144,0.8947,131.3395
19:34:39:673,-1.8425,1.0744,7.8317,20.5583,0.537,-0.0483,0.9655,129.843
19:34:39:691,-1.4429,1.0816,7.6451,19.0488,0.3147,0.0409,0.9448,128.3641
19:34:39:716,-0.9954,1.0002,7.9418,19.9438,0.0532,0.0531,0.869,127.0439
19:34:39:733,-0.5743,0.8638,8.1739,18.7973,-0.1239,0.0336,0.7432,125.8555
19:34:39:754,-0.1795,0.5695,8.0279,18.9383,-0.1887,0.0397,0.5783,124.9267
19:34:39:774,-0.0814,0.1866,7.724,19.7876,-0.2155,0.0653,0.3706,124.3362
19:34:39:796,-0.3374,0.079,7.7073,19.9438,-0.2766,0.0702,0.1641,123.8481
19:34:39:816,-0.9691,0.3757,8.2481,19.8684,-0.3353,0.0751,0.0077,123.5616
19:34:39:834,-1.5003,0.5838,8.5926,19.6741,-0.2913,0.0678,-0.0558,123.2386
19:34:39:853,-1.8927,0.8423,8.1954,22.1679,-0.1031,0.0727,0.0016,122.8344
19:34:39:873,-1.7061,1.1653,7.3149,18.2796,0.1302,0.2254,0.1861,122.1689
19:34:39:892,-1.4333,1.517,6.4678,19.7732,0.2401,0.4514,0.3926,121.2603
19:34:39:916,-1.3352,2.0387,6.3577,17.9125,0.118,0.5284,0.4769,120.1373
19:34:39:935,-1.0409,2.3713,7.4704,19.2072,-0.1655,0.4245,0.4756,119.1238
19:34:39:956,-0.2608,2.4072,10.6624,19.5784,-0.5002,0.1289,0.2814,118.2465
19:34:39:978,-0.1986,2.3737,11.6411,16.9451,-0.4281,0.0556,0.1165,117.9036
19:34:39:993,-0.6293,2.065,12.0862,18.1066,-0.2779,0.036,-0.0448,117.3075
19:34:40:012,-1.0409,1.8425,12.1699,18.9167,-0.1557,-0.0727,-0.1487,117.2178
19:34:40:033,-1.0792,1.6582,12.201,18.427,-0.1019,-0.1643,-0.1535,117.1706
19:34:40:054,-1.0504,1.6869,11.5549,18.7187,-0.0811,-0.0984,-0.0973,117.0606
19:34:40:073,-0.5097,1.5147,10.4518,19.7211,-0.1508,0.1057,-0.0338,116.918
19:34:40:093,0.6365,0.4068,10.9878,18.4115,-0.5014,0.2401,-0.0876,117.0121
19:34:40:114,0.6676,-0.737,13.8257,19.2143,-1.0598,-0.0104,-0.3698,117.6234
19:34:40:133,-0.1268,-1.1055,16.5009,19.6597,-1.331,-0.4649,-0.6813,118.4949
19:34:40:153,-0.8853,-1.5697,16.9795,18.512,-0.9645,-0.653,-0.7656,119.6489
19:34:40:173,-1.3041,-2.144,14.8092,19.1872,-0.1129,-0.4637,-0.5188,120.4834
19:34:40:193,-1.0504,-1.8138,11.9067,19.8632,0.741,-0.1448,-0.0069,120.7056
19:34:40:216,-0.1675,-1.0098,9.5737,17.9487,1.2358,-0.0116,0.5257,120.3458
19:34:40:236,1.1414,-0.3326,7.6618,18.2928,1.3739,0.0251,0.8507,119.622
19:34:40:256,2.0961,0.2752,6.1519,19.2451,1.2505,0.1057,0.858,119.0661
19:34:40:272,2.455,0.6413,5.1087,17.9017,0.9194,0.2327,0.5709,118.683
19:34:40:292,1.9143,0.926,4.8407,17.8378,0.4747,0.3769,0.1042,118.67
19:34:40:314,0.9356,0.9428,5.19,18.9495,0.063,0.4734,-0.3551,119.0282
19:34:40:333,-0.1747,1.0002,5.805,17.5865,-0.1948,0.416,-0.6593,119.7932
19:34:40:353,-0.8734,1.1605,6.1256,18.3909,-0.2742,0.2278,-0.7485,120.6831
19:34:40:372,-1.0074,1.3089,6.1831,17.937,-0.2571,0.0373,-0.674,121.4582
19:34:40:393,-0.7753,1.5458,6.5324,19.2178,-0.2876,-0.1179,-0.564,122.2469
19:34:40:417,-0.4977,2.12,8.4132,20.2245,-0.4635,-0.1863,-0.5078,122.804
19:34:40:436,-0.8686,2.412,8.8343,20.357,-0.4391,-0.1435,-0.5249,123.9208
19:34:40:551,-0.9787,2.3928,9.3846,20.7241,-0.4025,-0.1448,-0.4968,124.5721
19:34:40:552,-0.7442,2.0602,9.9422,20.5694,-0.3707,-0.2718,-0.437,125.3469
19:34:40:552,-0.5647,2.077,10.7294,22.592,-0.3683,-0.471,-0.3515,125.811
19:34:40:559,-0.5001,2.2995,11.7512,20.6679,-0.3927,-0.5528,-0.2378,126.3704
19:34:40:560,-0.5288,2.3833,12.457,20.4917,-0.3121,-0.4355,-0.112,126.6147
19:34:40:560,-0.737,2.4503,12.5336,19.6068,-0.0848,-0.2083,0.0004,127.0168
19:34:40:572,-0.8662,2.4981,12.0407,19.9681,0.1607,-0.0348,0.1274,127.0407
19:34:40:591,-0.6054,2.4526,11.653,21.9063,0.2731,-0.0421,0.2496,127.3419
19:34:40:611,-0.414,2.3426,11.531,22.484,0.2182,-0.179,0.2814,127.5069
19:34:40:632,-0.5527,2.1607,11.7512,20.2798,0.0728,-0.2218,0.2178,127.9355
19:34:40:652,-0.8901,1.7061,11.9091,21.1675,-0.0689,-0.1399,0.1335,128.3641
19:34:40:671,-1.1127,1.1031,12.146,21.454,-0.1728,-0.157,0.0883,129.034
19:34:40:691,-1.3328,0.4953,12.9859,22.2514,-0.2644,-0.4197,0.0603,129.7585
19:34:40:712,-1.541,0.0838,13.1821,21.1717,-0.185,-0.7263,0.092,130.4712
19:34:40:734,-1.7898,-0.0024,11.945,23.2883,0.1827,-0.6872,0.2569,131.1079
19:34:40:751,-1.6965,-0.0024,9.8082,20.6105,0.6274,-0.2926,0.5416,131.4349
19:34:40:772,-1.2945,0.146,8.2217,21.1997,0.7936,0.0238,0.7859,131.4155
19:34:40:792,-0.6054,0.3493,7.6427,21.5272,0.614,0.0922,0.8898,131.4008
19:34:40:815,0.1699,0.548,7.8437,22.9836,0.2878,0.0543,0.8654,131.4261
19:34:40:832,0.8183,0.5743,8.4132,23.8839,0.0092,0.0568,0.7029,131.7996
19:34:40:853,1.0313,0.2632,8.7529,23.1463,-0.1227,0.0885,0.4317,132.557
19:34:40:873,-0.2991,0.2441,8.9898,22.4485,-0.1105,0.047,-0.0167,133.5156
19:34:40:892,-0.7489,0.4259,8.9874,22.4902,-0.0152,0.0116,0.0016,134.5059
19:34:40:915,-0.615,0.6796,8.3773,22.4259,0.1656,0.0275,0.1568,135.3234
19:34:40:935,-0.2441,1.1821,7.4417,22.9845,0.3232,0.1704,0.3376,135.806
19:34:40:955,-0.0885,1.7109,6.7693,22.8512,0.3489,0.4099,0.4292,136.1384
19:34:40:971,-0.256,2.1248,6.6568,23.3847,0.2536,0.598,0.4207,136.5063
19:34:40:991,-0.4834,2.5149,6.9918,22.5776,0.1155,0.5797,0.3681,136.6789
19:34:41:013,-0.5456,2.7039,7.5924,23.7914,0.0007,0.3976,0.2997,137.061
19:34:41:032,-0.5384,2.6584,8.2217,25.1743,-0.0457,0.1948,0.2289,137.6321
19:34:41:052,-0.658,2.8211,8.8199,25.5317,-0.0311,0.0482,0.1678,138.3553
19:34:41:073,-0.8255,2.9671,9.3081,25.5167,0.0129,-0.0397,0.1262,139.0154
19:34:41:092,-0.3829,2.7613,10.0451,26.0779,0.0227,-0.1888,0.0688,139.8253
19:34:41:117,0.4427,2.1488,10.5763,26.6005,-0.0286,-0.361,-0.0546,140.8877
19:34:41:133,1.127,1.3017,11.2104,26.8011,-0.1581,-0.3745,-0.2403,142.1807
19:34:41:153,1.3615,0.4762,12.1627,26.4334,-0.3976,-0.3525,-0.4553,143.8393
19:34:41:171,0.8375,0.2704,13.5817,29.251,-0.6676,-0.3341,-0.6166,145.6833
19:34:41:191,0.6317,0.0287,14.7326,29.1069,-0.8142,-0.2388,-0.608,147.4689
19:34:41:217,1.1725,-0.6078,15.2758,28.3106,-0.78,-0.179,-0.5017,149.1814
19:34:41:236,1.8066,-1.3615,15.3356,29.6922,-0.6431,-0.1827,-0.4394,150.804
19:34:41:253,1.7061,-1.6152,14.9599,28.693,-0.4342,-0.1301,-0.4284,152.4092
19:34:41:271,1.0002,-1.2921,14.0172,30.757,-0.086,0.102,-0.3527,153.7788
19:34:41:291,0.682,-0.9356,12.189,29.3628,0.4088,0.3891,-0.1132,154.7463
19:34:41:313,1.3472,-0.0239,8.1643,30.5576,1.2126,0.5479,0.4145,155.3909
19:34:41:333,1.742,0.5934,6.5348,31.9256,1.2517,0.4025,0.4671,155.3148
19:34:41:352,1.9023,1.0816,5.616,32.1877,1.0159,0.2278,0.2802,155.9196
19:34:41:370,1.7635,1.1653,5.2188,30.0597,0.6409,0.1216,-0.0766,156.9189
19:34:41:391,0.6963,1.3735,5.3527,29.5803,0.2316,0.0702,-0.5103,158.0577
19:34:41:415,-0.1555,1.1151,6.1663,29.7336,-0.1142,0.0556,-0.8304,159.4567
19:34:41:434,-0.725,0.9882,6.9799,30.6835,-0.284,-0.0116,-0.922,160.8264
19:34:41:450,-0.7513,1.1438,7.5398,31.5921,-0.2876,-0.1216,-0.8365,162.2799
19:34:41:472,-0.5815,1.3185,7.7432,31.1884,-0.2058,-0.212,-0.7143,163.6224
19:34:41:491,-0.5719,1.6104,7.8485,31.5622,-0.1227,-0.2413,-0.6581,164.7849
19:34:41:510,-0.5647,1.7157,7.9537,33.3328,-0.0738,-0.1777,-0.6386,165.9249
19:34:41:531,-0.6772,1.8185,7.8724,33.2072,-0.0592,-0.0739,-0.6019,166.9742
19:34:41:551,-0.6939,2.0411,7.9705,32.7993,-0.1068,0.0299,-0.5286,167.9043
19:34:41:571,-0.6939,2.1727,8.6835,32.4453,-0.2241,0.102,-0.4406,168.6609
19:34:41:590,-0.2728,2.0818,9.6861,34.2868,-0.345,0.0727,-0.3624,169.3761
19:34:41:611,-0.2823,2.0818,10.5188,34.9493,-0.3854,0.0434,-0.3197,170.0994
19:34:41:632,-0.8351,2.4,11.0237,35.8364,-0.3292,0.113,-0.2623,170.7224
19:34:41:651,-1.2179,2.5842,11.3444,36.4716,-0.1997,0.2278,-0.1254,171.136
19:34:41:672,-0.9978,2.5388,11.33,34.9022,-0.047,0.3048,0.0749,171.3475
19:34:41:691,-0.5599,2.68,11.1338,34.0147,0.0605,0.3549,0.2582,171.3147
19:34:41:714,-0.213,2.9097,10.9352,33.3988,0.0874,0.4099,0.3388,171.1999
19:34:41:734,-0.2608,2.8163,10.8084,35.7911,0.0398,0.4086,0.2655,171.1555
19:34:41:754,-0.7059,2.5842,10.7557,36.4492,-0.0616,0.339,0.1128,171.2597
19:34:41:777,-1.2371,1.0217,12.3015,33.0678,-0.4574,-0.0324,-0.1535,171.6457
19:34:41:792,-1.3017,0.2082,14.1033,34.866,-0.6761,-0.4563,-0.2598,172.1904
19:34:41:810,-1.6774,-0.2991,14.6178,36.018,-0.5723,-0.7886,-0.2916,172.8037
19:34:41:830,-2.4239,-0.4283,12.7825,36.6517,-0.0299,-0.6628,-0.1218,173.0994
19:34:41:850,-2.4455,-0.3661,10.0977,36.0801,0.5993,-0.2474,0.2679,172.941
19:34:41:870,-1.8281,-0.0048,8.1284,35.4454,0.8583,-0.036,0.6223,172.3818
19:34:41:890,-0.9691,0.2417,7.188,35.8093,0.6995,-0.0165,0.7627,171.6714
19:34:41:913,-0.2417,0.4618,7.3125,34.3349,0.333,-0.0177,0.7066,171.0795
19:34:41:936,0.1771,0.4307,7.7695,36.5052,-0.0091,0.0043,0.516,170.6751
19:34:41:956,0.0766,0.3661,8.1308,34.9314,-0.2143,-0.0031,0.2582,170.5398
19:34:41:971,-0.4451,0.2201,8.2935,35.2949,-0.2974,-0.0263,0.0346,170.6902
19:34:41:990,-1.017,0.2058,8.4514,37.2985,-0.2962,-0.0458,-0.068,170.8259
19:34:42:011,-1.2897,0.39,8.5854,37.6454,-0.2424,-0.08,-0.0375,170.9379
19:34:42:031,-1.2084,0.7107,8.5831,36.8489,-0.1312,-0.0654,0.0749,170.9288
19:34:42:051,-0.8853,1.0504,8.2935,34.8632,0.0105,0.0678,0.1922,170.7142
19:34:42:071,-0.6796,1.5147,7.7839,35.8308,0.1302,0.2681,0.2594,170.4364
19:34:42:092,-0.615,1.8592,7.5613,34.1733,0.1559,0.3891,0.2643,170.1542
19:34:42:116,-0.6245,2.1081,8.0016,35.6281,0.0862,0.3231,0.2313,169.9208
19:34:42:135,-0.2297,2.1129,8.8989,35.561,0.0202,0.0898,0.1739,169.7542
19:34:42:153,-0.1938,2.1488,9.5163,33.9138,0.0337,-0.1301,0.081,169.7449
19:34:42:171,-0.6054,2.2756,9.734,36.1237,0.0972,-0.1961,-0.0253,169.8242
19:34:42:193,-0.7872,2.2804,9.7795,34.7958,0.1595,-0.1802,-0.0778,169.937
19:34:42:217,-0.5192,2.144,9.9206,35.5881,0.1791,-0.223,-0.0986,170.1057
19:34:42:239,0.8877,1.3376,10.6074,35.2493,0.0434,-0.3268,-0.2635,170.7407
19:34:42:252,0.39,1.2132,10.8419,35.4185,-0.086,-0.2169,-0.4382,171.3255
19:34:42:272,0.1866,0.7992,11.0405,36.3803,-0.2302,-0.1448,-0.5298,171.9542
19:34:42:291,0.4666,0.0574,11.8373,36.0312,-0.4477,-0.3134,-0.5494,172.6387
19:34:42:313,1.3759,-0.6939,13.2204,34.7261,-0.7702,-0.6872,-0.5946,173.4446
19:34:42:333,1.7157,-1.2371,14.9934,34.1173,-1.0536,-0.9267,-0.7497,174.4453
19:34:42:353,0.737,-1.4453,15.6706,35.6396,-1.0598,-0.7691,-0.9513,175.5707
19:34:42:372,-0.4594,-1.6774,14.8116,35.573,-0.6847,-0.2621,-0.9159,176.5464
19:34:42:396,-0.7011,-1.6343,12.9595,36.0718,-0.0811,0.1924,-0.531,177.0704
19:34:42:414,0.0168,-1.0792,10.7845,36.6711,0.5004,0.3476,-0.0106,177.0765
19:34:42:433,1.139,-0.5264,9.1047,35.8611,0.8595,0.2633,0.3742,176.7087
19:34:42:452,2.1033,-0.134,7.7839,34.8175,0.9451,0.1545,0.472,176.2449
19:34:42:472,2.5149,0.1292,6.6855,34.806,0.8034,0.1252,0.2814,176.0659
19:34:42:491,2.1176,0.3183,6.1352,35.4034,0.4881,0.2168,-0.0595,176.142
19:34:42:512,1.1103,0.548,6.3314,35.1419,0.118,0.3366,-0.3759,176.5025
19:34:42:533,0.2895,0.7298,6.7095,34.9797,-0.1166,0.405,-0.542,176.9982
19:34:42:551,0.0526,0.9404,6.8219,36.3022,-0.1618,0.3842,-0.5408,177.511
19:34:42:702,0.2632,1.1749,6.7502,36.5102,-0.1068,0.2987,-0.4663,177.9332
19:34:42:703,0.4259,1.4165,6.7717,36.7245,-0.0799,0.1814,-0.4516,178.3345
19:34:42:703,0.3781,1.6152,7.0923,36.3022,-0.1129,0.0971,-0.5029,178.794
19:34:42:703,0.2321,1.7779,7.6259,35.312,-0.1618,0.036,-0.5677,179.3387
19:34:42:704,-0.0622,1.8568,8.0758,35.8007,-0.1826,-0.0397,-0.6178,179.9457
19:34:42:704,-0.2871,1.8927,8.6405,36.0154,-0.2021,-0.1118,-0.6178,180.5791
19:34:42:704,-0.1699,2.01,9.8441,35.4405,-0.2363,-0.124,-0.4492,181.6736
19:34:42:719,-0.2082,2.2301,10.7294,37.2207,-0.2241,-0.1485,-0.36,182.0299
19:34:42:731,-0.5168,2.479,11.2869,34.8171,-0.108,-0.1533,-0.283,182.2994
19:34:42:752,-0.8159,2.321,10.8467,33.6656,0.0605,-0.0226,-0.222,182.4974
19:34:42:770,-1.048,2.2205,11.05,35.412,0.0984,0.201,-0.1792,182.5878
19:34:42:791,-0.5599,1.9645,13.4405,35.7383,-0.0543,0.1655,-0.101,182.6609
19:34:42:812,-0.3685,1.584,14.3306,33.7995,0.0679,-0.212,-0.0338,182.6753
19:34:42:834,-1.2108,1.5458,12.9045,34.2172,0.4674,-0.5027,-0.0692,182.6561
19:34:42:856,-1.9023,1.5194,11.0213,33.6888,0.6824,-0.4734,-0.0216,182.6233
19:34:42:872,-1.9932,1.5482,9.7651,34.7261,0.5932,-0.1961,0.158,182.3197
19:34:42:892,-1.4907,1.4812,9.6574,34.6019,0.3037,0.0849,0.3327,181.7809
19:34:42:917,-0.8303,1.1151,10.8323,35.2576,-0.0579,0.1167,0.395,181.2337
19:34:42:935,-0.6365,0.6915,11.8828,35.0469,-0.2559,-0.0165,0.3742,180.7246
19:34:42:952,-0.9332,0.7753,11.8086,36.1712,-0.1386,-0.047,0.3803,180.1946
19:34:42:972,-0.9619,0.6772,10.1671,34.0036,0.1974,0.0666,0.4427,179.6019
19:34:42:992,-0.7537,0.6365,8.5878,33.814,0.4283,0.1521,0.4879,178.9197
19:34:43:016,-0.5025,0.7537,8.1691,34.2896,0.3489,0.0776,0.4928,178.2881
19:34:43:032,-0.2656,0.8662,8.4586,35.189,0.1326,-0.0458,0.4427,177.7159
19:34:43:053,-0.2201,0.6628,8.9396,35.189,-0.0567,-0.1777,0.3217,177.3038
19:34:43:071,-0.0861,0.3135,9.399,33.9055,-0.1997,-0.2462,0.1898,177.0559
19:34:43:090,-0.39,0.3517,9.5043,35.2996,-0.2607,-0.0996,0.1128,176.8339
19:34:43:113,-0.804,0.5504,9.0042,35.5525,-0.1911,0.1985,0.1067,176.5518
19:34:43:133,-0.8088,0.8088,8.1308,35.1116,-0.0164,0.4282,0.1995,176.1411
19:34:43:152,-0.469,1.4381,5.9031,34.473,0.3318,0.4587,0.3596,175.6219
19:34:43:171,-0.658,1.7611,5.2355,35.0719,0.3354,0.4526,0.318,175.1534
19:34:43:190,-0.8614,1.8903,5.0871,34.6456,0.2133,0.4135,0.224,174.1655
19:34:43:213,-0.9308,1.5888,5.5681,34.2888,-0.0286,0.2681,0.1152,173.8691
19:34:43:236,-0.9787,1.3807,7.1187,34.6712,-0.3731,0.0617,0.037,173.6772
19:34:43:251,-1.127,1.2395,9.3535,32.4606,-0.7079,-0.0678,0.0163,173.5184
19:34:43:270,-1.206,1.1773,11.5286,37.483,-0.8765,-0.0922,0.0285,173.3649
19:34:43:291,-1.2108,1.0361,12.8207,32.5793,-0.7629,-0.0348,0.0859,173.0902
19:34:43:311,-1.194,0.8495,13.1629,35.1518,-0.4794,0.0177,0.1568,172.7758
19:34:43:333,-0.8901,0.6796,13.1438,35.3004,-0.2155,-0.0031,0.2252,172.3755
19:34:43:351,-0.3398,0.3278,12.8758,33.9297,-0.0543,-0.0507,0.2826,171.9429
19:34:43:370,0.0311,0.2321,12.3829,35.1341,0.0141,-0.0764,0.307,171.5109
19:34:43:391,0.3111,0.3278,11.8851,34.2851,-0.0176,-0.0324,0.3046,171.0529
19:34:43:412,0.9021,0.1172,11.6961,34.4793,-0.1435,-0.0006,0.2887,170.6439
19:34:43:433,1.3902,-0.2058,12.4116,35.2094,-0.3585,-0.1044,0.2068,170.3416
19:34:43:450,1.5888,-0.8901,13.4883,35.5386,-0.554,-0.2181,0.0651,170.2314
19:34:43:470,0.7537,-1.0385,14.2588,35.2323,-0.5747,-0.1814,-0.0631,170.2309
19:34:43:490,0.122,-1.1174,13.7898,36.0772,-0.2791,0.0311,-0.0302,170.1498
19:34:43:511,0.3015,-1.1629,11.9761,34.9002,0.2524,0.1973,0.1873,169.8024
19:34:43:534,1.0217,-0.8016,10.0092,35.6372,0.7105,0.1289,0.4231,169.2238
19:34:43:555,1.9286,-0.5408,8.6094,35.3608,0.8999,-0.0825,0.5331,168.5572
19:34:43:570,2.5555,-0.3039,7.4728,37.6571,0.851,-0.2706,0.4329,168.025
19:34:43:591,2.522,-0.0742,6.8172,36.4338,0.6128,-0.3097,0.1458,167.8156
19:34:43:613,0.6987,0.1962,6.5109,37.7967,0.0105,0.102,-0.4467,168.4616
19:34:43:636,0,0.3135,6.5803,36.0312,-0.1569,0.3036,-0.5176,168.8423
19:34:43:654,-0.0622,0.591,6.6808,35.6,-0.2106,0.2975,-0.4418,169.1376
19:34:43:671,0.2776,0.8973,6.7525,35.7213,-0.2119,0.1814,-0.3466,169.3723
19:34:43:694,0.4762,1.2658,6.8435,36.0312,-0.1936,0.0995,-0.3246,169.5974
19:34:43:713,0.4307,1.517,7.2718,37.3431,-0.1984,0.0226,-0.3808,169.8575
19:34:43:732,0.2943,1.6558,7.6929,37.2648,-0.2082,-0.08,-0.4724,170.2225
19:34:43:750,-0.055,1.8401,8.0949,38.6964,-0.2302,-0.1802,-0.5567,170.6708
19:34:43:769,-0.4355,1.9813,8.8893,36.5158,-0.2986,-0.2425,-0.5921,171.1772
19:34:43:789,-0.4355,1.8688,9.8201,38.0474,-0.3658,-0.2731,-0.5482,171.6345
19:34:43:809,-0.3589,1.8688,10.7533,36.0412,-0.3731,-0.3121,-0.4541,171.9788
19:34:43:830,-0.2823,1.9454,11.72,36.7316,-0.3353,-0.3415,-0.3515,172.2467
19:34:43:849,-0.402,2.0602,12.5336,37.3431,-0.229,-0.2987,-0.2281,172.3589
19:34:43:870,-0.4331,2.1799,12.8782,37.0511,-0.0482,-0.1741,-0.0839,172.267
19:34:43:890,-0.1149,2.0483,13.0265,36.9964,0.1693,-0.0128,0.0835,172.0067
19:34:43:917,0.0694,2.1512,12.8566,36.0412,0.3855,0.0922,0.213,171.2012
19:34:43:939,0.0981,2.1607,11.7512,36.6288,0.5883,0.1533,0.2496,170.821
19:34:43:955,-0.1029,1.9741,10.8371,37.3431,0.647,0.1509,0.1898,170.514
19:34:43:973,-0.67,1.4788,11.1721,35.7213,0.3122,0.0495,0.0578,170.2926
19:34:43:995,-1.0313,1.1773,11.9426,37.565,0.2084,0.0067,0.0273,170.0637
19:34:44:013,-1.1103,0.6365,12.1723,37.396,0.2731,-0.1118,0.0664,169.7977
19:34:44:035,-1.1342,0.3781,11.3181,37.9012,0.4527,-0.2877,0.158,169.4595
19:34:44:051,-0.9787,0.3948,9.8369,37.2509,0.5847,-0.3488,0.2569,169.0192
19:34:44:072,-0.8423,0.3183,8.9204,38.9515,0.4979,-0.2999,0.2814,168.7371
19:34:44:090,-0.9739,0.1579,8.9324,37.2509,0.2023,-0.2169,0.2154,168.3509
19:34:44:114,-1.0959,0.0885,9.2076,37.2509,-0.0983,-0.0299,0.1665,167.9784
19:34:44:138,-1.0265,-0.0311,8.9755,38.5488,-0.2351,0.2474,0.1775,167.5597
19:34:44:153,-1.048,-0.079,8.8008,38.143,-0.2803,0.3952,0.2032,167.0726
19:34:44:170,-0.9906,-0.1005,9.0592,38.5359,-0.3304,0.306,0.2484,166.5839
19:34:44:190,-0.8351,0.2704,9.6455,38.4704,-0.3377,0.1557,0.3327,166.0319
19:34:44:210,-0.4259,0.5982,9.7244,37.3997,-0.1862,0.1557,0.4573,165.3298
19:34:44:232,0.0407,0.7944,8.9444,36.3012,0.0935,0.2339,0.5343,164.5663
19:34:44:252,0.2153,0.95,8.2002,37.5834,0.2927,0.2254,0.5257,163.8029
19:34:44:270,-0.0239,1.2084,7.669,38.2669,0.3098,0.157,0.4597,163.119
19:34:44:290,-0.6245,1.4812,7.3412,37.1801,0.1888,0.2193,0.3706,162.4947
19:34:44:310,-1.139,1.6845,7.4321,39.7352,-0.0311,0.5504,0.3327,161.8655
19:34:44:330,-1.3807,1.8927,8.1212,39.8932,-0.2534,1.0098,0.3657,161.1333
19:34:44:351,-1.4213,1.9382,9.0162,38.7734,-0.3475,1.2113,0.4097,160.3167
19:34:44:372,-1.2658,2.0148,9.7484,39.2711,-0.2461,0.9657,0.4341,159.5494
19:34:44:390,-0.95,2.1368,9.8465,39.9956,0.0141,0.4795,0.4255,158.8414
19:34:44:414,-0.792,2.2062,9.5713,40.2457,0.2841,0.036,0.3449,158.2849
19:34:44:433,-0.6843,1.9741,9.2818,39.7187,0.3978,-0.2816,0.191,157.9336
19:34:44:454,-0.5097,1.4883,9.6742,39.2711,0.3037,-0.4465,0.0199,157.8347
19:34:44:474,-0.3541,1.0504,10.471,39.8083,0.0996,-0.4771,-0.1034,157.8876
19:34:44:490,-0.5216,0.9404,11.0477,39.5887,-0.0811,-0.4136,-0.1609,157.9774
19:34:44:515,-0.5934,0.9643,11.2606,39.2413,-0.2168,-0.2902,-0.1352,158.0912
19:34:44:531,0.1412,-0.012,12.1029,37.6631,-0.6651,-0.069,-0.1401,158.2957
19:34:44:550,0.1196,-0.9452,13.218,40.2793,-0.9913,-0.0079,-0.3405,158.6115
19:34:44:570,-0.5815,-1.6606,14.0746,41.22,-1.1526,0.1472,-0.5445,159.0724
19:34:44:589,-1.4261,-1.8879,14.2923,39.1767,-1.0084,0.3732,-0.5176,159.472
19:34:44:614,-1.4788,-1.8329,14.0339,41.0384,-0.5723,0.5015,-0.2048,159.5311
19:34:44:632,-0.5671,-1.5529,12.6508,40.9509,0.0605,0.4795,0.2618,159.1218
19:34:44:650,0.2273,-1.0217,10.3968,41.4446,0.6702,0.4343,0.6088,158.3472
19:34:44:673,0.6269,-0.5264,8.1787,41.2944,1.0098,0.5064,0.7102,157.4471
19:34:44:691,0.8399,-0.0383,6.4152,42.6826,1.0147,0.6823,0.6638,156.5332
19:34:44:823,0.7513,0.414,5.3886,41.6996,0.7826,0.8363,0.5037,155.7706
19:34:44:823,0.4283,0.7537,4.934,41.9653,0.4552,0.8167,0.2545,155.2394
19:34:44:824,-0.0335,0.9834,5.0034,41.2158,0.1326,0.6041,-0.035,155.0206
19:34:44:824,-0.6485,1.1773,5.6638,41.5426,-0.1203,0.3085,-0.2916,155.1539
19:34:44:825,-1.0504,1.2491,6.4032,42.2635,-0.2412,0.0348,-0.4211,155.4381
19:34:44:825,-1.0385,1.4261,6.7406,41.6307,-0.2278,-0.1179,-0.4101,155.7686
19:34:44:840,-0.9667,1.6989,6.9488,39.727,-0.2033,-0.1301,-0.3661,156.0295
19:34:44:851,-0.9978,1.7827,7.5733,40.704,-0.2449,-0.08,-0.3429,156.2872
19:34:44:872,-1.1462,1.7922,8.5065,40.9168,-0.2962,-0.1142,-0.3295,156.5285
19:34:44:890,-1.0217,1.7085,9.1358,42.3281,-0.2779,-0.2682,-0.2879,156.7344
19:34:44:910,-0.9212,1.73,9.6814,41.3149,-0.2143,-0.4111,-0.2171,156.8789
19:34:44:932,-0.9069,1.8664,10.2867,42.3281,-0.1655,-0.4759,-0.1413,156.9224
19:34:44:951,-1.2443,2.1129,11.129,40.3709,-0.1154,-0.4856,-0.0607,156.8928
19:34:44:971,-1.6391,2.3306,12.0957,40.4281,-0.0115,-0.5455,0.0395,156.7489
19:34:44:991,-0.7035,1.6702,12.2776,39.9797,0.4491,-0.8216,0.3034,156.2076
19:34:45:014,-0.3493,1.541,11.4736,40.9073,0.614,-0.6286,0.3791,155.7397
19:34:45:034,-0.8877,1.8616,10.8227,41.1677,0.5615,-0.2132,0.3632,155.2275
19:34:45:052,-1.6104,2.0363,10.6026,40.8424,0.3232,0.1741,0.3302,154.6776
19:34:45:071,-2.0722,2.1368,10.3992,40.4833,0.0862,0.405,0.3522,154.0953
19:34:45:090,-2.0387,2.0028,10.1862,42.3402,-0.0775,0.4758,0.3938,153.4338
19:34:45:109,-1.8784,1.7611,10.5595,42.5126,-0.2461,0.3659,0.3645,152.8309
19:34:45:135,-1.328,0.7968,11.8875,38.414,-0.4245,0.0812,0.2557,152.4396
19:34:45:156,-1.0863,0.1914,12.8542,40.9604,-0.455,-0.2963,0.1409,152.2466
19:34:45:173,-1.6606,0.2776,12.5121,39.1442,-0.2351,-0.4368,0.0761,152.1006
19:34:45:189,-1.9645,0.1795,10.7438,41.9035,0.1497,-0.1435,0.1739,151.8187
19:34:45:213,-1.876,0.1842,9.1214,40.2932,0.3806,0.2205,0.3657,151.2639
19:34:45:231,-1.3256,0.4738,8.4514,40.0663,0.2902,0.3622,0.5331,150.5352
19:34:45:250,-0.5145,0.6556,8.5998,41.1285,0.0581,0.3989,0.6198,149.7194
19:34:45:269,0.1172,0.6891,8.8606,41.5285,-0.119,0.3806,0.5416,149.0325
19:34:45:289,0.1555,0.6485,8.6405,40.7837,-0.1337,0.3414,0.318,148.5765
19:34:45:310,-0.3374,0.5551,7.9226,40.0464,-0.0482,0.317,0.07,148.3962
19:34:45:335,-0.9141,0.3517,7.1043,40.4951,0.0263,0.3072,-0.1034,148.4042
19:34:45:352,-1.5027,0.2752,6.5827,41.5214,0.03,0.2535,-0.1706,148.4965
19:34:45:370,-1.9836,0.4738,6.6281,40.4072,-0.0506,0.1252,-0.1438,148.5068
19:34:45:389,-2.2062,0.9906,7.2479,40.3065,-0.1496,-0.0031,-0.0338,148.4261
19:34:45:409,-1.7898,1.2419,7.4919,39.9668,-0.1435,-0.0373,0.1103,148.2066
19:34:45:430,-1.663,1.5553,7.1857,40.9192,-0.0714,0.0311,0.1726,147.9183
19:34:45:453,-1.6319,1.6487,8.1236,40.0936,-0.2204,0.0006,0.092,147.6351
19:34:45:470,-1.7013,1.6558,9.3416,39.3338,-0.3072,-0.1973,0.037,147.4971
19:34:45:490,-1.8521,1.7157,10.3633,40.4842,-0.2925,-0.416,0.0065,147.3235
19:34:45:510,-1.7444,1.6391,11.0548,39.9246,-0.1936,-0.5907,-0.0191,147.3288
19:34:45:532,-1.5123,1.1701,11.5765,40.8079,-0.0983,-0.7141,-0.0643,147.392
19:34:45:549,-0.9141,0.6221,12.3446,39.8101,-0.1154,-0.8436,-0.1401,147.5877
19:34:45:570,-0.2752,0.3613,13.4213,39.9939,-0.2534,-0.9316,-0.2195,147.9
19:34:45:589,-0.1101,0.1484,14.3115,39.2366,-0.3475,-0.813,-0.2757,148.2144
19:34:45:609,0.0526,0.0694,14.5675,40.0148,-0.2449,-0.5186,-0.2232,148.4834
19:34:45:631,0.871,-0.201,13.9286,39.8101,0.0031,-0.2718,-0.0607,148.5887
19:34:45:649,1.7731,-0.3781,13.1534,40.0148,0.1998,-0.2315,0.0199,148.6415
19:34:45:669,2.0387,-0.737,12.6748,40.1434,0.2524,-0.2633,-0.0729,148.7983
19:34:45:690,1.5673,-0.9332,12.4187,41.9592,0.2585,-0.1668,-0.2183,149.0778
19:34:45:709,1.1988,-0.8471,11.8158,38.903,0.3415,0.0373,-0.2464,149.3832
19:34:45:730,1.2323,-0.7202,10.8084,39.5186,0.5016,0.2462,-0.1621,149.5762
19:34:45:749,1.6893,-0.7513,9.5115,38.6537,0.6482,0.4038,-0.0631,149.6942
19:34:45:769,2.1081,-0.7489,8.327,38.1211,0.6494,0.4599,-0.0485,149.7786
19:34:45:789,2.0315,-0.5216,7.6857,40.1185,0.4698,0.4111,-0.1462,149.9429
19:34:45:809,1.3663,-0.1842,7.5805,38.2318,0.2194,0.3414,-0.3258,150.3251
19:34:45:835,0.4283,-0.0981,7.4369,39.0376,0.0544,0.3573,-0.5066,150.8375
19:34:45:853,-0.3398,-0.0694,6.9607,38.2421,0.0349,0.4404,-0.575,151.4039
19:34:45:871,-0.7466,0.0694,6.2477,38.1679,0.0838,0.5027,-0.5139,151.9056
19:34:45:889,-0.7466,0.335,5.7188,37.6698,0.1009,0.4868,-0.3979,152.2765
19:34:45:911,-0.8423,1.328,5.8217,38.4226,-0.0934,0.3024,-0.3014,152.5499
19:34:45:934,-0.7633,1.6678,6.6209,38.186,-0.2388,0.1765,-0.3197,153.1378
19:34:45:952,-0.6245,1.9358,7.6475,37.1972,-0.3414,0.0202,-0.3344,153.5037
19:34:45:972,-0.1651,2.0818,8.6692,37.0718,-0.3756,-0.1607,-0.3221,153.895
19:34:45:990,0.079,2.2971,9.5713,39.4681,-0.3499,-0.3183,-0.3392,154.335
19:34:46:010,0.189,2.3163,10.3274,39.4064,-0.284,-0.427,-0.4125,154.8355
19:34:46:033,-0.1172,2.3593,10.9089,38.3179,-0.2058,-0.5052,-0.4944,155.4276
19:34:46:053,-0.658,2.5962,11.1051,38.8952,-0.1251,-0.4637,-0.5042,156.0122
19:34:46:069,-0.7609,2.802,11.2702,37.6884,-0.0775,-0.2572,-0.3808,156.4273
19:34:46:088,-0.3733,2.5172,11.6315,38.4369,-0.0799,0.0067,-0.222,156.6776
19:34:46:108,-0.6485,2.254,12.4714,39.6391,-0.1105,0.1729,-0.2036,156.9121
19:34:46:128,-1.5434,1.8449,12.8925,38.8884,-0.0628,0.1814,-0.2989,157.2572
19:34:46:149,-2.4814,1.5075,12.6724,37.0722,0.0862,0.0251,-0.3661,157.7081
19:34:46:169,-3.0078,1.2036,11.9163,38.3479,0.2438,-0.1875,-0.3014,158.0645
19:34:46:188,-2.9862,0.9547,10.9783,37.8508,0.2915,-0.3097,-0.1108,158.1855
19:34:46:209,-2.6273,0.7585,10.8993,37.2568,0.129,-0.2401,0.125,158.0513
19:34:46:231,-1.7683,0.5168,12.0263,36.5235,-0.13,-0.1081,0.3461,157.7054
19:34:46:250,-1.0696,0.3087,13.0146,37.6808,-0.2253,-0.0336,0.4769,157.2156
19:34:46:270,-1.1486,0.4307,12.4307,37.3894,-0.0164,0.1179,0.5123,156.7016
19:34:46:289,-1.4692,0.3829,10.2676,37.4013,0.3635,0.4013,0.5343,156.1086
19:34:46:309,-1.3735,0.2991,8.4921,36.2702,0.5724,0.5088,0.5868,155.4379
19:34:46:331,-1.0337,0.457,7.5589,36.0419,0.4881,0.3732,0.6137,154.7689
19:34:46:354,-0.7155,0.6891,7.7216,36.0419,0.2267,0.1802,0.5624,153.7335
19:34:46:370,-0.6939,0.4211,8.6213,34.5854,-0.0909,-0.1802,0.2618,153.4824
19:34:46:390,-1.1246,0.2752,8.1882,37.2989,-0.0176,-0.2865,0.1751,153.3584
19:34:46:411,-1.2873,0.3565,7.5135,35.1557,0.0764,-0.2572,0.2289,153.1461
19:34:46:437,-0.8758,0.3446,6.932,34.9795,0.1632,-0.1497,0.3535,152.8081
19:34:46:452,-0.0885,-0.0072,6.2572,34.8401,0.2108,-0.0984,0.439,152.414
19:34:46:474,0.0455,0.457,6.5587,37.1106,0.0642,-0.1851,0.4427,152.0445
19:34:46:489,0.0144,1.0911,8.0973,35.5431,-0.229,-0.3134,0.4109,151.6964
19:34:46:509,-0.2321,1.6654,9.4421,34.5583,-0.3683,-0.3745,0.3364,151.3956
19:34:46:533,-0.3876,1.8688,9.746,35.2737,-0.2351,-0.317,0.2447,151.2234
19:34:46:550,-0.5767,1.9143,9.0856,35.0457,0.0007,-0.2022,0.1653,151.0956
19:34:46:570,-0.8136,2.0148,8.7362,35.4032,0.0996,-0.1179,0.1055,151.0371
19:34:46:589,-1.1007,2.2851,9.1741,34.7059,0.0422,-0.1118,0.0847,150.9592
19:34:46:609,-0.9882,2.345,9.947,34.7059,-0.0286,-0.1643,0.0822,150.9118
19:34:46:629,-0.4475,2.0267,10.6959,35.2961,-0.0689,-0.2816,0.0529,150.9342
19:34:46:650,-0.1125,1.6439,11.5167,33.8912,-0.141,-0.3561,-0.0448,151.0858
19:34:46:669,-0.2513,1.2921,12.3661,35.2961,-0.2143,-0.3158,-0.1572,151.3474
19:34:46:689,-0.3661,0.8495,12.7681,32.9248,-0.2046,-0.2486,-0.1902,151.6482
19:34:46:710,-0.0957,0.5886,12.603,35.5155,-0.1044,-0.2205,-0.1083,151.8943
19:34:46:732,0.8088,0.3924,12.4881,33.3922,-0.0531,-0.2474,0.0224,152.0837
19:34:46:749,1.809,0.1388,13.1151,32.2288,-0.1422,-0.2853,0.0468,152.2303
19:34:46:770,2.2397,-0.3087,14.0124,34.7059,-0.2681,-0.2596,-0.0729,152.488
19:34:46:790,1.7683,-0.6772,14.2301,34.8931,-0.2534,-0.1936,-0.2525,152.9293
19:34:46:810,0.3422,-0.7872,11.3898,35.5312,0.4197,0.2462,-0.1963,153.4094
19:34:46:836,0.5671,-0.536,9.4804,34.4186,0.7569,0.449,0.0969,153.524
19:34:46:983,1.3232,-0.3159,8.0447,34.8931,0.8595,0.5027,0.3498,153.1825
19:34:46:984,2.0411,0.0072,7.0301,36.35,0.7545,0.4673,0.4365,152.7567
19:34:46:985,2.2804,0.3805,6.5683,36.7297,0.4845,0.4062,0.3205,152.4644
19:34:46:987,1.9071,0.658,6.4128,35.1652,0.1729,0.3976,0.0651,152.409
19:34:46:988,1.2275,0.8064,6.5133,31.8605,-0.0763,0.3989,-0.2085,152.6664
19:34:46:989,0.4666,0.8566,6.6879,35.1482,-0.2265,0.3048,-0.4113,153.1678
19:34:46:990,-0.1364,0.8925,6.8172,33.6399,-0.2717,0.1374,-0.5103,153.8077
19:34:46:991,-0.4642,1.06,6.676,32.7592,-0.2424,0.0128,-0.4993,154.4404
19:34:47:010,-0.5575,1.4309,6.5276,33.8389,-0.2143,-0.0373,-0.437,154.9819
19:34:47:038,-0.3493,1.6654,6.7119,32.8366,-0.2497,-0.036,-0.3759,155.4449
19:34:47:050,-0.2393,1.8999,7.2,33.6506,-0.3414,-0.0189,-0.3453,155.8744
19:34:47:068,-0.1531,2.0554,8.0184,34.0996,-0.4293,-0.0079,-0.349,156.3341
19:34:47:088,0.0096,2.0865,8.9324,33.1936,-0.4745,-0.0568,-0.3624,156.8388
19:34:47:109,0.1962,1.9765,9.7507,33.684,-0.4599,-0.1008,-0.3649,157.33
19:34:47:130,0.28,1.9214,10.4734,33.2204,-0.4147,-0.1081,-0.3563,157.8305
19:34:47:154,0.3685,1.8521,11.2606,32.1989,-0.3463,-0.0825,-0.327,158.3348
19:34:47:171,0.1579,2.0076,11.5526,33.1204,-0.2119,-0.0299,-0.2818,158.7376
19:34:47:189,-0.2345,2.1894,11.4808,33.5661,-0.0579,0.0446,-0.211,159.0639
19:34:47:210,-0.1675,2.1224,11.6124,33.6506,0.0239,0.0959,-0.1157,159.2981
19:34:47:236,0.0263,2.0698,11.9115,33.6574,0.0618,0.1411,-0.0289,159.3992
19:34:47:250,0.4187,1.7013,11.8205,32.6901,0.1461,0.1839,0.0285,159.4659
19:34:47:269,1.1246,0.8925,9.3727,33.6574,0.3269,0.0275,0.0273,159.5541
19:34:47:290,0.3661,1.1821,8.461,33.1277,0.1253,-0.1301,-0.1157,159.5713
19:34:47:311,-0.4834,1.1151,9.4995,34.028,-0.3304,-0.2731,-0.3295,160.3485
19:34:47:335,-0.9093,0.3733,11.6411,32.6901,-0.7727,-0.4246,-0.4981,161.0473
19:34:47:352,-1.1031,-0.4283,13.5601,32.6118,-0.9351,-0.6738,-0.6019,161.8586
19:34:47:371,-1.7994,-0.5743,14.3258,34.6042,-0.747,-0.9022,-0.6056,162.6486
19:34:47:388,-2.5388,-0.5168,13.0265,31.8273,-0.1887,-0.7544,-0.3588,163.1174
19:34:47:408,-2.3857,-0.1723,10.8203,31.8273,0.4576,-0.4111,0.0725,163.0907
19:34:47:429,-1.6534,0.2632,9.0688,31.8273,0.7557,-0.3378,0.406,162.7211
19:34:47:452,-0.7561,0.5767,8.351,31.8273,0.6421,-0.3476,0.5379,162.2422
19:34:47:469,0.0526,0.7442,8.7123,31.8273,0.3159,-0.2291,0.5013,161.8243
19:34:47:490,0.591,0.5886,9.3153,31.8273,0.0398,-0.0617,0.3254,161.6083
19:34:47:510,0.5791,0.28,9.6335,31.8273,-0.0799,-0.0006,0.0639,161.6775
19:34:47:532,0.1196,-0.1364,9.5785,32.5558,-0.0677,-0.0116,-0.1694,161.9922
19:34:47:552,-0.7801,-0.1101,9.4062,32.1099,0.0068,0.0079,-0.2623,162.3892
19:34:47:571,-1.1797,-0.012,9.0544,32.5558,0.1167,0.058,-0.1792,162.6512
19:34:47:589,-1.1988,0.1866,8.1763,34.4858,0.2511,0.1289,-0.002,162.7337
19:34:47:608,-1.2156,0.5982,7.322,34.5473,0.3049,0.2681,0.1714,162.6039
19:34:47:628,-1.1629,1.048,6.8172,33.9865,0.1962,0.5088,0.3058,162.2897
19:34:47:649,-0.9739,1.3878,6.786,32.0606,-0.0091,0.8265,0.4121,161.8511
19:34:47:669,-0.7968,1.7061,7.4178,33.5661,-0.2363,1.0305,0.4769,161.3213
19:34:47:688,-0.7011,2.1703,8.8128,33.651,-0.4245,0.9804,0.483,160.7915
19:34:47:709,-0.3709,2.3976,10.1862,34.9888,-0.4367,0.6945,0.4597,160.3334
19:34:47:734,0.9811,2.7876,11.2176,31.6776,0.0825,-0.1692,0.3816,159.9364
19:34:47:750,1.8855,2.1703,11.2223,31.6776,0.2744,-0.4465,0.1922,159.5549
19:34:47:770,1.7204,1.3137,11.4185,33.0744,0.2817,-0.4844,-0.112,159.7844
19:34:47:788,0.8949,0.9834,11.9785,33.102,0.1852,-0.4783,-0.3515,160.355
19:34:47:808,0.3805,0.7035,12.1627,33.057,0.1424,-0.5504,-0.4174,160.9791
19:34:47:830,0.4355,0.2847,11.8947,32.0538,0.1717,-0.6286,-0.3673,161.5906
19:34:47:851,0.6915,0.0455,11.811,30.6238,0.1412,-0.6652,-0.3026,162.149
19:34:47:872,1.0744,-0.3948,12.2249,33.5574,0.0288,-0.6396,-0.2867,162.673
19:34:47:895,1.3208,-0.9882,12.7681,32.1099,-0.0738,-0.5932,-0.3515,163.2747
19:34:47:908,0.7705,-1.2969,12.8925,31.1096,-0.0787,-0.5137,-0.448,163.9501
19:34:47:929,0.0096,-1.3591,12.2465,31.6182,0.0667,-0.2853,-0.4382,164.5665
19:34:47:951,-0.1484,-1.4333,10.6887,32.0827,0.3452,0.0189,-0.25,164.9318
19:34:47:969,0.2177,-1.2036,9.1789,31.7939,0.5517,0.168,-0.013,165.0583
19:34:47:988,0.8638,-0.9834,8.1763,31.6949,0.5627,0.1643,0.1458,165.0336
19:34:48:007,1.3663,-0.6437,7.6355,32.3785,0.4136,0.1289,0.191,164.9741
19:34:48:029,1.5601,-0.28,7.2981,33.0667,0.1864,0.1729,0.1287,164.9625
19:34:48:050,1.1988,0.1125,7.1282,29.87,-0.0286,0.3353,-0.0008,165.0477
19:34:48:068,0.6796,0.3015,6.8913,32.6033,-0.174,0.51,-0.1352,165.2241
19:34:48:089,0.1149,0.6245,6.6927,33.5154,-0.2497,0.5406,-0.2293,165.5045
19:34:48:109,-0.2656,0.8399,6.6257,34.1036,-0.2779,0.4453,-0.2696,165.8568
19:34:48:134,-0.2393,0.9021,6.743,31.0915,-0.2937,0.284,-0.2794,166.2
19:34:48:153,-0.2106,1.1462,6.999,33.0407,-0.3133,0.1741,-0.2855,166.5791
19:34:48:185,-0.3589,1.4309,7.5733,31.1015,-0.3414,0.1839,-0.3148,166.989
19:34:48:189,-0.5838,1.5625,9.1358,32.1428,-0.2644,0.2242,-0.4113,167.8602
19:34:48:208,-0.7585,1.4764,9.2195,31.6012,-0.1007,0.1057,-0.4272,168.4178
19:34:48:227,-0.8997,1.4764,9.0568,31.1259,0.0361,-0.0727,-0.4016,168.9198
19:34:48:247,-0.8949,1.6032,9.3105,31.6213,0.0373,-0.1729,-0.327,169.351
19:34:48:268,-0.5791,1.7827,10.002,31.6134,-0.0641,-0.124,-0.1865,169.6229
19:34:48:288,-0.012,2.01,10.8467,30.1901,-0.1569,0.0702,0.0212,169.6885
19:34:48:309,0.6796,2.3115,11.4425,31.6482,-0.1557,0.3549,0.2203,169.5352
19:34:48:329,1.2825,2.4287,11.8086,31.6866,-0.0543,0.5076,0.3241,169.2894
19:34:48:352,1.4261,2.5484,12.39,30.669,0.0728,0.372,0.2802,169.1112
19:34:48:373,1.0217,2.6178,12.7226,30.127,0.2487,0.0861,0.1665,169.0432
19:34:48:390,0.6628,2.4072,12.0598,31.6482,0.482,-0.2034,0.07,169.08
19:34:48:408,0.4355,2.1488,11.0453,30.2779,0.5822,-0.4136,0.015,169.2299
19:34:48:428,0.2847,1.8879,10.4949,30.1548,0.4112,-0.4209,-0.024,169.4335
19:34:48:449,-0.0215,1.4812,11.0357,29.3287,0.03,-0.234,-0.0753,169.6201
19:34:48:468,-0.4092,0.993,12.5958,31.1848,-0.3658,-0.0947,-0.1328,169.8778
19:34:48:488,-0.8566,0.5408,14.2732,30.1316,-0.5308,-0.1912,-0.1548,170.156
19:34:48:507,-1.5194,0.2177,14.3761,31.1256,-0.2656,-0.3073,-0.0827,170.3033
19:34:48:528,-1.9501,-0.0239,12.213,30.1901,0.3965,-0.2059,0.1739,170.1719
19:34:48:549,-1.8521,0.1412,9.5976,29.699,1.0001,-0.1631,0.5233,169.6592
19:34:48:569,-1.2108,0.3159,7.8389,29.7773,1.1515,-0.3842,0.7383,168.9501
19:34:48:590,-0.4762,0.5312,7.4154,27.9967,0.8962,-0.6017,0.7872,168.2499
19:34:48:608,0.1125,0.5456,7.7839,28.7839,0.4808,-0.609,0.7016,167.6663
19:34:48:630,0.1771,0.4092,8.3988,28.3428,0.1277,-0.4368,0.5441,167.206
19:34:48:651,-0.268,0.4642,8.7482,28.9616,-0.1129,0.0275,0.3706,166.4275
19:34:48:672,-0.1842,0.4331,8.2624,26.5397,-0.0201,0.1521,0.3803,166.0163
19:34:48:689,0.012,0.5097,7.5565,28.3815,0.0984,0.2046,0.4145,165.5637
19:34:48:708,0.067,0.9188,7.1761,27.9318,0.1375,0.2242,0.4463,165.09
19:34:48:729,0.1555,1.3472,7.0373,28.9616,0.1045,0.284,0.4646,164.5884
19:34:48:749,0.1819,1.7228,6.8746,28.4545,0.0874,0.3989,0.4646,164.0573
19:34:48:768,0.213,2.1703,6.8506,27.5472,0.0605,0.4587,0.4439,163.5333
19:34:48:787,0.2895,2.5125,7.0229,28.4199,0.0141,0.4135,0.3816,163.0654
19:34:48:808,0.5815,2.6895,7.6762,26.8604,-0.0616,0.2559,0.2655,162.774
19:34:48:828,0.8877,2.7637,9.0233,26.9152,-0.1655,0.0421,0.0761,162.7609
19:34:48:848,1.3232,2.5699,10.6217,26.9758,-0.2497,-0.0751,-0.1597,163.0238
19:34:48:869,1.4883,2.3354,11.5908,27.5782,-0.2449,-0.0336,-0.3991,163.5396
19:34:48:888,0.9021,2.1392,12.3254,27.361,-0.2046,0.0788,-0.6202,164.244
19:34:48:908,0.3446,1.7444,12.6844,28.7839,-0.1447,0.1179,-0.7363,165.0832
19:34:48:930,-0.0096,1.4501,12.5599,25.8485,-0.0531,0.0788,-0.7045,165.8942
19:34:48:950,-0.1531,1.608,12.1699,28.7937,0.0276,0.0715,-0.553,166.5278
19:34:48:968,-0.079,1.7779,11.6459,29.653,0.0581,0.0739,-0.3624,166.9558
19:34:49:103,0.2919,1.7037,11.4832,29.9208,-0.014,-0.0177,-0.2158,167.2001
19:34:49:104,1.2156,0.9978,12.0263,28.1976,-0.185,-0.1558,-0.1584,167.4561
19:34:49:104,1.7444,0.2513,12.8231,29.5793,-0.3793,-0.1594,-0.2158,167.7869
19:34:49:105,0.9954,-0.0933,13.0648,29.9338,-0.4477,0.0983,-0.3417,168.2177
19:34:49:105,-0.2919,-0.2058,12.402,29.1009,-0.2644,0.4991,-0.3649,168.5416
19:34:49:105,-0.8088,-0.1914,10.9185,29.6314,0.1106,0.6958,-0.1597,168.6667
19:34:49:109,0.079,0.1029,8.6022,28.4219,0.5883,0.0177,0.3229,168.1368
19:34:49:132,0.5838,0.2225,7.8676,28.2414,0.5419,-0.3036,0.3718,167.8358
19:34:49:149,0.7777,0.3398,7.334,28.8748,0.3611,-0.3573,0.2838,167.6813
19:34:49:169,0.5025,0.2632,7.0684,28.3484,0.1204,-0.1753,0.147,167.6121
19:34:49:188,-0.0455,0.4044,7.0947,28.2544,-0.097,0.0678,0.0383,167.601
19:34:49:207,-0.6006,0.6748,7.3316,28.9534,-0.229,0.1961,0.0114,167.5917
19:34:49:229,-0.8136,0.8925,7.2383,29.5125,-0.2143,0.2058,0.0664,167.5174
19:34:49:249,-0.8471,1.2323,6.9512,29.5014,-0.1154,0.1655,0.1702,167.3207
19:34:49:269,-0.4857,1.6247,6.731,28.7208,-0.0384,0.1252,0.3009,167.0086
19:34:49:289,0.0239,1.8473,6.7047,29.7992,-0.0225,0.1338,0.3987,166.5897
19:34:49:308,0.5695,2.2301,6.9009,30.4678,-0.0946,0.1863,0.4097,166.2014
19:34:49:328,0.7681,2.6967,7.8437,28.7107,-0.2497,0.273,0.3022,165.8955
19:34:49:354,1.0289,2.8211,9.1621,30.0557,-0.3756,0.3072,0.1397,165.7792
19:34:49:368,1.2227,2.7996,10.4207,28.9534,-0.3609,0.1973,-0.0326,165.8948
19:34:49:389,0.9882,2.8163,11.2654,31.6378,-0.2009,-0.058,-0.178,166.1879
19:34:49:408,0.5145,2.9336,11.6889,30.0761,0.0337,-0.3806,-0.25,166.5516
19:34:49:427,0.1507,3.0293,11.7296,31.7603,0.2572,-0.6164,-0.2354,166.941
19:34:49:449,0.3039,2.9551,11.4808,31.1812,0.4124,-0.6054,-0.1328,167.2233
19:34:49:469,0.8088,2.9121,11.5526,31.3784,0.4234,-0.4087,-0.013,167.3943
19:34:49:488,1.0313,2.9503,12.2249,31.0199,0.3477,-0.1313,0.026,167.4756
19:34:49:509,0.8016,2.7852,12.1603,31.978,0.3684,0.1411,-0.0448,167.5759
19:34:49:527,0.1723,2.5771,11.1912,32.1414,0.4698,0.2694,-0.1548,167.75
19:34:49:548,-0.2034,2.4718,10.3609,33.0833,0.4845,0.2046,-0.2012,167.9647
19:34:49:572,-0.524,2.0004,9.9781,34.6005,0.1583,-0.0703,-0.2745,168.5206
19:34:49:595,-0.5527,1.127,11.1601,31.9788,-0.1483,-0.2169,-0.3563,168.984
19:34:49:607,-0.9428,0.6604,12.2369,31.9757,-0.3353,-0.3916,-0.3942,169.5429
19:34:49:626,-1.785,0.5408,11.5526,32.3391,-0.1422,-0.245,-0.2867,169.9144
19:34:49:648,-2.1631,0.5838,9.3033,33.649,0.3049,0.1057,-0.0118,169.9062
19:34:49:668,-2.0985,0.8949,7.389,34.0697,0.5456,0.1545,0.2802,169.5604
19:34:49:689,-1.5386,1.1581,7.2191,33.649,0.4075,-0.1228,0.4769,169.1067
19:34:49:708,-0.7466,1.3376,7.8461,33.8854,0.1534,-0.4551,0.5587,168.6438
19:34:49:729,0.055,1.1031,8.016,33.1208,-0.0054,-0.5944,0.516,168.313
19:34:49:749,0.4259,0.8159,8.0614,34.7039,-0.1508,-0.4807,0.3913,168.1184
19:34:49:768,0.2058,0.6748,8.4682,33.6603,-0.3279,-0.2181,0.2399,168.0104
19:34:49:787,-0.5456,0.8351,9.0377,33.5126,-0.4562,0.0238,0.1213,167.9161
19:34:49:808,-0.9141,1.0002,9.4062,35.9696,-0.4391,0.1472,0.1274,167.7678
19:34:49:829,-1.005,1.261,9.1478,35.8138,-0.2644,0.1521,0.2276,167.5208
19:34:49:852,-0.7753,1.4907,8.3749,36.1535,-0.0384,0.1032,0.3437,167.1376
19:34:49:869,-0.5288,1.7874,7.6403,36.1212,0.1033,0.0873,0.4109,166.7089
19:34:49:892,-0.4451,2.0818,7.3938,37.6381,0.1033,0.0885,0.4133,166.2452
19:34:49:908,-0.3565,2.2564,7.7169,36.9544,-0.0018,0.058,0.3657,165.9156
19:34:49:928,-0.2991,2.2804,8.4921,36.6147,-0.1203,0.0092,0.2863,165.7254
19:34:49:948,-0.3039,2.3186,9.2435,36.4341,-0.1948,0.0128,0.2081,165.5211
19:34:49:971,-0.3709,2.4239,9.8465,36.4341,-0.2229,0.0715,0.158,165.3491
19:34:49:988,-0.2441,2.4048,10.4854,36.9363,-0.2363,0.0971,0.1201,165.2202
19:34:50:009,-0.0263,2.1631,11.3324,36.9364,-0.2705,0.0079,0.0676,165.1998
19:34:50:032,0.2201,1.3376,11.921,38.4941,-0.2791,-0.2205,-0.0741,165.2853
19:34:50:052,0.1125,1.084,11.9498,37.2041,-0.334,-0.2315,-0.1438,165.6542
19:34:50:067,0.1651,0.7466,12.3039,39.0236,-0.4745,-0.1411,-0.1694,165.9185
19:34:50:088,0.3135,0.5456,13.06,38.8241,-0.6175,-0.0373,-0.1352,166.1687
19:34:50:108,0.6939,0.3709,13.6487,40.6099,-0.6712,0.0776,-0.0448,166.3126
19:34:50:128,0.8758,0.1077,13.7157,39.6352,-0.5833,0.3097,0.0541,166.3237
19:34:50:147,0.9021,-0.1196,13.0433,42.532,-0.3646,0.6078,0.1494,166.2212
19:34:50:171,0.8399,-0.0766,11.9928,40.1952,-0.0677,0.8045,0.2509,165.9744
19:34:50:189,1.2419,-0.1555,10.9567,41.1675,0.2206,0.8179,0.3461,165.6908
19:34:50:208,1.7683,-0.2177,9.8776,40.9315,0.4552,0.6554,0.3926,165.3484
19:34:50:228,2.0483,-0.1579,8.7984,40.6828,0.5663,0.4086,0.3278,165.1041
19:34:50:249,2.0698,-0.0981,8.0566,40.1061,0.5138,0.2376,0.1702,165.0764
19:34:50:268,1.6822,0.0479,7.5374,40.1092,0.3538,0.1826,-0.0265,165.2595
19:34:50:288,1.0409,0.1364,7.1115,41.6509,0.1717,0.2437,-0.1975,165.5768
19:34:50:314,0.4187,0.3422,6.9416,41.4429,0.0043,0.3414,-0.2806,165.9784
19:34:50:326,0.1172,0.4714,6.9727,41.14,-0.1105,0.372,-0.2696,166.3365
19:34:50:349,0.0479,0.7896,7.1067,41.8327,-0.1581,0.2963,-0.2061,166.6603
19:34:50:371,0.0814,1.0696,7.1689,42.9605,-0.1386,0.1961,-0.1303,166.8766
19:34:50:386,0.1029,1.3089,7.3699,41.712,-0.0628,0.0983,-0.0827,167.0472
19:34:50:405,0.1723,1.4955,7.5805,42.8261,0.0129,-0.0544,-0.0766,167.2632
19:34:50:426,0.0359,1.7372,7.7432,42.4694,0.0642,-0.1998,-0.0766,167.4839
19:34:50:448,0.0694,1.9621,8.1547,42.0091,0.0459,-0.3036,-0.0827,167.735
19:34:50:468,0.3302,2.0554,8.4706,43.7545,-0.0079,-0.3244,-0.0863,167.9387
19:34:50:489,0.3015,2.333,10.0379,42.9763,-0.2375,-0.0177,-0.1548,168.4014
19:34:50:510,-0.0861,2.455,11.0716,43.7482,-0.2742,0.1228,-0.1621,168.6608
19:34:50:526,-0.3398,2.5005,11.3731,44.581,-0.1483,0.1216,-0.1083,168.8455
19:34:50:552,-0.2082,2.5172,11.543,43.6267,0.0178,0.0324,-0.0069,168.9595
19:34:50:570,0.2297,2.4646,11.7583,44.897,0.129,-0.0226,0.0883,168.993
19:34:50:589,0.4307,2.4742,11.8947,43.8503,0.1913,0.047,0.103,169.0067
19:34:50:608,-0.0502,2.5986,11.6507,44.0368,0.2524,0.2217,0.037,169.0762
19:34:50:626,-0.6317,2.6225,11.1625,43.2644,0.3098,0.3048,-0.0485,169.1785
19:34:50:647,-0.9787,2.4861,10.4112,45.2892,0.322,0.1802,-0.1157,169.3992
19:34:50:669,-0.8734,2.1918,10.1671,43.5677,0.2035,-0.0348,-0.1645,169.6897
19:34:50:691,-0.4068,1.1868,11.1075,47.391,-0.0946,-0.2755,-0.2598,170.1392
19:34:50:707,-0.4666,0.3852,12.7585,43.4957,-0.4367,-0.5382,-0.4235,170.8089
19:34:50:727,-1.3711,0.0598,13.7898,46.9349,-0.5564,-0.7092,-0.5457,171.5596
19:34:50:749,-2.4885,0.0838,13.1342,45.3367,-0.2546,-0.5602,-0.4321,172.1236
19:34:50:769,-2.6249,-0.0263,10.7797,46.7961,0.3635,-0.1827,-0.0277,172.1943
19:34:50:789,-2.1846,0.2943,8.394,44.7826,0.8192,0.0018,0.4145,171.7636
19:34:50:808,-1.2467,0.6341,7.4297,46.0929,0.8192,-0.0898,0.6662,171.1117
19:34:50:827,-0.2106,0.8949,7.4489,47.0037,0.5321,-0.1998,0.7224,170.4343
19:34:50:849,0.3876,0.9476,7.8317,46.6142,0.2059,-0.19,0.5538,170.0048
19:34:50:868,0.2369,0.6389,8.3031,44.585,-0.0555,-0.1044,0.2557,169.8801
19:34:50:888,-0.5121,0.469,8.5448,47.0152,-0.1826,0.0153,0.0199,169.9546
19:34:50:908,-1.2108,0.6604,8.5519,45.096,-0.1691,0.1411,-0.0399,170.0419
19:34:50:927,-1.4142,0.7059,8.0997,46.0524,-0.0396,0.19,0.0444,170.0453
19:34:50:947,-0.8829,1.3113,6.6209,46.0309,0.1803,0.2022,0.3278,169.4315
19:34:50:969,-0.7442,1.6941,6.3386,47.516,0.1277,0.2706,0.3816,169.0464
19:34:50:989,-0.6221,2.0865,6.6377,47.0229,-0.025,0.3072,0.3669,168.6708
19:34:51:007,-0.7753,2.3857,7.2431,47.4854,-0.1887,0.2596,0.285,168.4076
19:34:51:029,-0.9523,2.3234,8.1212,47.4739,-0.3182,0.1411,0.169,168.2546
19:34:51:052,-1.0217,2.2181,9.1047,47.9697,-0.3768,0.0116,0.1152,168.1977
19:34:51:073,-0.9834,2.3641,10.0786,48.1055,-0.3756,-0.0874,0.1213,168.127
19:34:51:091,-0.7178,2.333,11.1553,48.072,-0.317,-0.1729,0.1384,168.0435
19:34:51:109,-0.1866,1.9908,12.0957,47.1442,-0.2314,-0.3097,0.114,168.025
19:34:51:274,0.3206,1.7276,12.8686,48.1626,-0.13,-0.4013,0.0456,168.1058
19:34:51:276,0.3254,1.4524,12.8327,48.766,-0.0262,-0.3573,-0.0485,168.2671
19:34:51:277,-0.0191,1.3352,12.8758,49.9981,0.0007,-0.245,-0.123,168.4665
19:34:51:279,0.1053,1.2921,13.4572,48.092,-0.0518,-0.2205,-0.079,168.662
19:34:51:280,0.9284,1.1701,14.2684,45.5994,-0.0811,-0.2718,0.037,168.7589
19:34:51:281,1.6104,0.8853,14.3617,47.5399,0.0092,-0.2376,0.0871,168.8758
19:34:51:282,1.6774,0.4834,13.6271,48.0058,0.1791,-0.0825,0.0297,169.0188
19:34:51:283,1.3807,0.0766,12.4164,47.9871,0.3635,0.113,-0.0399,169.2155
19:34:51:293,0.993,0.0407,11.1745,47.5631,0.5309,0.3231,-0.035,169.3551
19:34:51:305,1.0648,0.0191,9.7173,48.7796,0.6922,0.5369,0.0627,169.379
19:34:51:328,1.3376,0.0598,8.2624,47.1936,0.7765,0.6005,0.1519,169.3013
19:34:51:356,1.651,0.2608,7.5422,47.2887,0.6714,0.4612,0.1507,169.2419
19:34:51:372,1.7827,0.4929,7.4393,47.8261,0.4234,0.2559,0.059,169.3306
19:34:51:388,1.5242,0.6939,7.3101,45.3805,0.1949,0.1582,-0.101,169.9688
19:34:51:407,0.9021,0.8255,7.1426,46.348,-0.1129,0.2364,-0.3295,170.3392
19:34:51:426,0.7561,1.0002,7.3531,47.5609,-0.2168,0.2083,-0.371,170.8118
19:34:51:449,0.5623,1.1653,7.535,48.7757,-0.2437,0.1716,-0.4125,171.3748
19:34:51:469,0.3757,1.3113,7.3292,46.1224,-0.1862,0.1692,-0.4431,171.9308
19:34:51:486,0.2321,1.5194,6.944,46.4598,-0.1068,0.1924,-0.4504,172.5215
19:34:51:506,0.2034,1.8784,6.9057,48.1013,-0.0934,0.2266,-0.4418,173.0524
19:34:51:527,0.122,2.211,7.1665,47.8747,-0.1337,0.273,-0.4333,173.6121
19:34:51:551,-0.1029,2.5077,7.5733,47.6219,-0.1789,0.295,-0.4431,174.1597
19:34:51:568,-0.4331,2.6967,8.1763,48.1725,-0.2106,0.2413,-0.459,174.7294
19:34:51:587,-0.7513,2.7063,9.0568,50.2574,-0.2363,0.058,-0.4602,175.338
19:34:51:607,-0.7298,2.6321,10.002,48.6299,-0.2412,-0.1936,-0.4235,175.8979
19:34:51:627,-0.8519,2.7087,10.4854,47.5077,-0.174,-0.3036,-0.3539,176.4272
19:34:51:647,-1.1198,2.8331,10.4949,47.6464,-0.0616,-0.1753,-0.2464,176.7911
19:34:51:670,-0.9571,2.9623,10.5093,48.253,-0.0018,0.0238,-0.0937,176.9843
19:34:51:687,-0.3541,2.7685,10.6552,46.9926,-0.0189,0.1533,0.0212,177.0677
19:34:51:707,-0.1436,2.5579,11.141,46.3717,-0.1044,0.2217,-0.0033,177.1901
19:34:51:725,-0.6221,2.2612,11.3946,47.3113,-0.1765,0.2694,-0.1254,177.4086
19:34:51:746,-1.5625,2.1655,11.6889,47.3998,-0.1948,0.2046,-0.2452,177.7274
19:34:51:767,-2.3115,1.9693,11.519,48.3415,-0.1557,0.0482,-0.2806,178.0948
19:34:51:787,-2.6632,1.5793,11.2152,48.7583,-0.1203,-0.0678,-0.233,178.3968
19:34:51:808,-2.5292,1.06,11.6267,47.0932,-0.2058,-0.1607,-0.1389,178.6129
19:34:51:827,-2.2564,0.323,12.7131,47.2082,-0.356,-0.3109,-0.0448,178.7734
19:34:51:851,-2.1846,0.2489,13.3831,46.7564,-0.3793,-0.3659,0.0835,178.7775
19:34:51:869,-2.1655,0.4714,9.9924,47.635,0.2939,0.3231,0.5196,178.5361
19:34:51:887,-1.7133,0.6197,8.6046,48.0602,0.4417,0.4086,0.6736,177.1489
19:34:51:905,-1.1462,0.8614,8.0997,48.7011,0.3538,0.2388,0.7249,176.4252
19:34:51:928,-0.7896,1.1725,8.1643,45.4774,0.1852,0.0128,0.6491,175.8093
19:34:51:952,-0.5216,1.0074,8.1643,47.6464,0.0495,-0.146,0.4622,175.4429
19:34:51:969,-0.6628,0.5982,8.0351,49.1934,-0.0237,-0.1362,0.2374,175.3157
19:34:51:988,-0.9165,0.2297,7.8532,47.3532,-0.0714,-0.0214,0.0883,175.3378
19:34:52:006,-1.4237,0.2465,7.9657,46.6178,-0.1264,0.0434,0.0212,175.3961
19:34:52:026,-1.8568,0.4857,8.2792,47.3113,-0.1581,0.0519,0.0554,175.366
19:34:52:046,-1.4979,0.6341,8.2552,46.287,-0.0995,0.0678,0.1861,175.2452
19:34:52:068,-1.1318,1.0624,7.7073,46.8144,0.0386,0.135,0.3058,174.9845
19:34:52:085,-0.8327,1.4189,7.2,46.8178,0.1143,0.2083,0.3364,174.6708
19:34:52:106,-0.6748,1.6439,7.2718,47.4352,0.0581,0.2413,0.3046,174.4117
19:34:52:126,-0.737,1.8209,8.0471,47.8407,-0.0665,0.1667,0.2325,174.2543
19:34:52:147,-0.8925,1.876,8.8558,46.6765,-0.1349,0.0311,0.1519,174.2008
19:34:52:167,-1.139,1.9167,9.411,47.0887,-0.1117,-0.0922,0.1079,174.1758
19:34:52:188,-1.4094,2.0028,10.1408,49.104,-0.0579,-0.234,0.1055,174.1643
19:34:52:207,-1.0696,1.864,10.672,46.5602,0.0215,-0.3793,0.1458,174.1466
19:34:52:227,-0.8447,1.998,11.3563,46.6177,0.0996,-0.4905,0.1555,174.1443
19:34:52:252,-0.5384,1.876,12.4187,47.6219,0.1216,-0.5968,0.1018,174.225
19:34:52:270,-0.2321,1.5864,12.9547,45.4587,0.1937,-0.6811,0.0248,174.4279
19:34:52:288,-0.2752,1.5793,12.3853,47.6979,0.3171,-0.6677,-0.035,174.6612
19:34:52:308,-0.469,1.8305,11.6363,45.814,0.3293,-0.5064,-0.0362,174.8862
19:34:52:327,0.6796,0.9667,11.6387,47.3532,-0.1264,-0.19,-0.0326,175.1677
19:34:52:345,0.792,0.5025,12.7346,45.814,-0.4428,-0.0825,-0.1535,175.5331
19:34:52:368,0.1053,0.0909,13.6391,46.1224,-0.5515,0.069,-0.305,175.9833
19:34:52:388,-0.5073,-0.2728,13.328,48.9269,-0.3096,0.2352,-0.305,176.3652
19:34:52:407,-0.2967,-0.5408,11.7105,46.9545,0.1717,0.2865,-0.0961,176.5361
19:34:52:425,0.3948,-0.548,9.734,48.3005,0.5896,0.2046,0.1751,176.4502
19:34:52:447,0.7729,-0.3135,8.473,46.865,0.7423,0.0153,0.3132,176.2537
19:34:52:469,1.2156,-0.2345,7.9274,46.3135,0.6665,-0.2071,0.2973,176.1095
19:34:52:486,1.4022,-0.2704,7.1713,48.3604,0.5578,-0.2755,0.1971,176.0956
19:34:52:505,0.938,-0.0933,6.1543,47.0916,0.4307,-0.1558,0.0541,176.1998
19:34:52:525,0.1268,0.2225,5.6088,47.8537,0.2047,0.0348,-0.0778,176.3884
19:34:52:545,-0.5097,0.5049,5.8026,47.4691,-0.0665,0.1887,-0.1279,176.5739
19:34:52:566,-0.5886,0.8279,6.2022,45.3723,-0.2302,0.2339,-0.0582,176.6702
19:34:52:586,0.0957,1.1844,6.1496,47.8537,-0.2583,0.2034,0.0737,176.6422
19:34:52:606,0.6485,1.7204,6.0227,46.4211,-0.2986,0.212,0.136,176.5739
19:34:52:627,0.6652,2.2445,6.3362,48.3005,-0.4501,0.2828,0.0822,176.5612
19:34:52:650,0.0096,2.6608,7.188,47.2143,-0.6566,0.2791,-0.0558,176.6768
19:34:52:670,0.2847,2.6512,8.4395,48.7611,-0.8105,0.1032,-0.156,176.9418
19:34:52:688,0.7992,2.6632,9.4732,47.2082,-0.8716,-0.0544,-0.2195,177.3267
19:34:52:706,0.7633,2.6704,10.8203,47.5016,-0.8887,-0.036,-0.3563,177.8758
19:34:52:726,0.414,2.4359,12.4164,47.1499,-0.8398,0.0226,-0.4968,178.5788
19:34:52:747,0.0598,2.1512,13.3735,49.9849,-0.6053,-0.0214,-0.5359,179.3023
19:34:52:770,-0.0526,2.0243,13.0313,49.0409,0.1082,-0.2401,-0.2684,179.9178
19:34:52:793,0.1053,2.132,12.7705,49.1977,0.311,-0.1423,-0.0815,180.245
19:34:52:805,0.3111,2.266,12.2321,47.4244,0.4637,0.1313,0.0688,180.5141
19:34:52:824,0.0455,2.4383,11.0931,46.4612,0.5896,0.3256,0.1262,180.4778
19:34:52:844,-0.0096,2.4837,10.1599,46.8787,0.5627,0.3024,0.1067,180.4498
19:34:52:865,-0.2082,2.5388,9.8943,47.2996,0.3318,0.1875,0.0383,180.4882
19:34:52:887,-0.4068,2.2014,10.6457,48.1394,0.0056,0.0776,-0.0925,180.6753
19:34:52:907,-0.5456,1.2323,11.9091,48.8687,-0.2913,-0.0739,-0.2635,181.0924
19:34:52:925,-0.5695,0.2369,13.2969,45.8074,-0.4758,-0.3378,-0.4211,181.697
19:34:52:945,-1.0337,-0.079,13.9597,48.443,-0.4012,-0.5455,-0.4687,182.3728
19:34:52:967,-1.8497,-0.0598,12.5216,48.6797,0.0532,-0.4209,-0.3282,182.8211
19:34:52:987,-1.7803,0.0048,9.9972,48.6797,0.6201,-0.1399,-0.024,182.9254
19:34:53:006,-1.2299,0.1388,8.1236,48.6581,0.8669,-0.0324,0.2032,182.7885
19:34:53:025,-0.7633,0.4666,7.3914,47.8502,0.7203,-0.0226,0.2826,182.5727
19:34:53:046,-0.481,0.7466,7.59,48.3716,0.4063,0.0116,0.2289,182.4332
19:34:53:071,-0.3541,0.7322,7.8174,50.0388,0.1583,0.0861,0.0835,182.4455
19:34:53:091,-0.4929,0.5791,7.7169,50.2802,0.0459,0.1667,-0.0827,182.6263
19:34:53:110,-0.8159,0.591,7.6163,46.9561,0.0092,0.2107,-0.2048,182.9472
19:34:53:125,-1.1198,0.6915,7.6379,47.3542,0.0154,0.1973,-0.2452,183.276
19:34:53:145,-1.2108,0.8351,7.5733,49.195,0.0691,0.1399,-0.2134,183.5908
19:34:53:169,-1.1246,1.1151,7.1521,46.9561,0.1461,0.1264,-0.1425,183.7789
19:34:53:187,-1.2802,1.5362,6.6879,49.0934,0.1559,0.2327,-0.0827,183.9083
19:34:53:207,-1.4955,1.9573,6.5803,46.8036,0.0691,0.3622,-0.0546,183.991
19:34:53:227,-2.1942,2.4503,7.1904,48.0179,-0.1801,0.2584,-0.0595,184.0166
19:34:53:246,-2.065,2.2421,7.9442,49.3696,-0.2791,0.0837,-0.0253,184.0647
19:34:53:269,-2.1009,2.2181,9.1334,49.253,-0.3793,-0.0776,0.0212,184.1036
19:34:53:413,-2.0148,2.0626,10.4279,47.438,-0.4122,-0.2254,0.0773,184.1085
19:34:53:415,-1.5912,1.6247,11.3922,49.3551,-0.356,-0.4038,0.1152,184.0867
19:34:53:415,-0.9691,1.1653,12.1962,50.2318,-0.2693,-0.5162,0.125,184.0863
19:34:53:417,-0.2943,0.7489,12.7442,48.4985,-0.1801,-0.4637,0.125,184.1012
19:34:53:417,-0.0622,0.4953,12.5169,49.2469,-0.0848,-0.2547,0.1079,184.1277
19:34:53:418,-0.3446,0.5384,11.9474,47.5425,-0.0311,-0.0495,0.0773,184.1866
19:34:53:418,-0.2441,0.4211,11.732,48.2502,-0.0873,0.0018,0.0749,184.201
19:34:53:435,0.335,-0.0598,11.8517,48.8097,-0.2155,-0.0727,0.0773,184.2855
19:34:53:444,0.9643,-0.6796,12.7705,48.0496,-0.411,-0.2169,0.0138,184.4453
19:34:53:465,0.9428,-1.0074,14.0602,47.0687,-0.6151,-0.2804,-0.0986,184.7224
19:34:53:485,0.3446,-1.1007,14.7805,47.2191,-0.5821,-0.1142,-0.145,185.013
19:34:53:505,0.1053,-1.1581,13.8305,49.0715,-0.1777,0.1802,0.0089,185.11
19:34:53:525,0.3924,-0.8638,11.4855,48.442,0.4038,0.3915,0.3266,184.849
19:34:53:545,1.048,-0.3709,9.2794,47.52,0.8449,0.4099,0.6064,184.317
19:34:53:566,1.7013,0.0239,7.3364,46.9877,1.0074,0.2853,0.7078,183.693
19:34:53:586,1.9956,0.4259,5.9079,47.2018,0.8901,0.1484,0.5917,183.1973
19:34:53:606,1.7157,0.6963,5.0656,47.4244,0.5676,0.1081,0.3046,183.0004
19:34:53:630,1.0385,0.7992,4.9555,47.7503,0.1412,0.1667,-0.0326,183.14
19:34:53:657,0.1005,0.8614,5.7236,48.9484,-0.262,0.2229,-0.2904,183.537
19:34:53:670,-0.2704,0.9165,6.8387,47.1719,-0.5112,0.1741,-0.3795,184.041
19:34:53:687,-0.012,1.3017,8.0279,48.5213,-0.4306,-0.1264,-0.3001,184.5414
19:34:53:708,0.1005,1.4357,7.8174,45.8716,-0.3011,-0.168,-0.305,185.3771
19:34:53:728,-0.1436,1.6989,7.9585,49.0516,-0.2925,-0.1277,-0.3612,185.9183
19:34:53:744,-0.3972,1.8616,8.8487,47.2294,-0.3817,-0.0886,-0.4138,186.4971
19:34:53:766,-0.6676,1.9262,9.722,48.7488,-0.4159,-0.0922,-0.4235,187.0777
19:34:53:789,-0.7729,1.9095,10.282,48.9628,-0.3463,-0.1118,-0.3783,187.5821
19:34:53:805,-0.8088,1.931,10.4184,48.3132,-0.229,-0.0898,-0.2733,188.004
19:34:53:826,-0.9906,2.1751,10.5858,50.137,-0.1642,0.0116,-0.1352,188.2507
19:34:53:847,-1.1222,2.3809,11.086,46.9269,-0.1642,0.1448,0.0309,188.2948
19:34:53:866,-1.048,2.4885,11.7631,48.9628,-0.1349,0.2352,0.2154,188.1422
19:34:53:885,-0.737,2.3641,12.4044,49.6743,-0.0152,0.1973,0.3864,187.8225
19:34:53:906,-0.5216,2.2827,12.7011,49.5935,0.2023,0.0336,0.5001,187.3841
19:34:53:924,-0.2704,2.1224,11.9665,49.0503,0.5004,-0.1044,0.5856,186.8398
19:34:53:947,0.0455,1.876,10.5284,48.6053,0.7496,-0.102,0.6479,186.2667
19:34:53:968,0.2991,1.864,9.1645,49.1648,0.8131,-0.0324,0.6674,185.6539
19:34:53:985,0.3446,2.1129,8.2337,49.2215,0.6128,0.0067,0.5954,185.1167
19:34:54:006,0.6987,1.4955,8.9013,49.5414,0.129,-0.0458,0.3803,184.85
19:34:54:028,0.1364,0.5192,11.4544,49.0822,-0.5417,-0.3476,0.0089,185.0027
19:34:54:044,-0.8231,-0.2776,14.9934,48.7635,-1.0207,-0.7043,-0.2843,185.4763
19:34:54:064,-1.7803,-0.6006,16.4172,48.489,-0.8533,-0.8387,-0.3233,185.9628
19:34:54:085,-2.4096,-0.9906,14.0531,49.6781,-0.014,-0.4637,-0.0302,186.046
19:34:54:107,-2.1799,-0.6676,10.5571,48.8296,0.8437,0.0165,0.4879,185.5152
19:34:54:125,-1.3376,0.0191,8.205,49.4571,1.1662,0.0482,0.8898,184.5842
19:34:54:149,0.3948,1.1605,6.9894,49.1374,0.6971,-0.1704,0.8947,182.5912
19:34:54:170,0.5719,1.139,6.9583,49.899,0.3587,-0.1069,0.5709,182.1036
19:34:54:193,0.0933,0.7729,7.4178,47.0574,0.0398,-0.0018,0.1971,181.9813
19:34:54:212,-0.6437,0.591,8.1882,48.0275,-0.1936,0.1057,-0.0509,182.0865
19:34:54:226,-1.2036,0.591,8.528,48.4547,-0.2327,0.1851,-0.1071,182.2294
19:34:54:244,-1.127,0.5671,8.2624,47.5986,-0.1105,0.2144,-0.024,182.2692
19:34:54:265,-0.7537,0.8686,7.6068,48.4547,0.0361,0.2327,0.1128,182.1786
19:34:54:288,-0.4044,1.2251,7.1689,49.9849,0.0911,0.2877,0.2142,181.9715
19:34:54:310,-0.0168,1.5123,7.0708,48.5969,0.0642,0.35,0.2411,181.7464
19:34:54:326,0.1484,1.718,7.2885,49.2897,-0.0018,0.3378,0.1849,181.5901
19:34:54:345,0.2728,1.8449,7.7695,50.0792,-0.0604,0.2633,0.0871,181.539
19:34:54:367,0.0407,1.8449,8.2887,49.2418,-0.0909,0.1741,-0.0057,181.6201
19:34:54:388,-0.3302,1.8903,9.1525,49.9447,-0.097,0.0543,-0.0497,181.7639
19:34:54:407,-0.5671,2.1368,9.8321,50.2732,-0.0726,-0.1069,-0.0265,181.8808
19:34:54:427,-0.3159,2.2804,10.5787,50.1419,-0.036,-0.2254,0.0273,181.9483
19:34:54:445,0.1938,2.2421,11.8445,48.7022,-0.0396,-0.2743,0.048,182.0538
19:34:54:467,0.0455,1.8879,13.0768,48.4547,-0.014,-0.2144,0.0138,182.1839
19:34:54:485,-0.4977,1.5218,13.0863,49.657,0.1326,-0.1643,-0.0081,182.2839
19:34:54:505,-0.4546,1.4859,12.4499,51.4748,0.2621,-0.1729,0.0737,182.3234
19:34:54:524,0.0885,1.7276,12.2034,49.6114,0.2096,-0.1191,0.1861,182.2415
19:34:54:546,0.7537,1.7683,12.39,50.1419,0.0495,0.0153,0.2178,182.1191
19:34:54:569,1.3687,1.4333,12.8734,49.9849,-0.097,0.0983,0.1177,182.1315
19:34:54:584,1.3352,0.8207,13.3424,50.0792,-0.1545,0.0788,-0.0802,182.3422
19:34:54:606,0.2082,0.3063,11.7751,48.6944,0.1876,0.2926,-0.305,183.0426
19:34:54:624,0.4786,0.1986,10.2556,49.5252,0.4185,0.405,-0.2281,183.3226
19:34:54:644,0.8734,0.2417,9.1765,50.6791,0.4759,0.3488,-0.1816,183.5567
19:34:54:668,1.1605,0.3326,8.595,50.2599,0.3684,0.2425,-0.2061,183.8649
19:34:54:684,1.2012,0.3996,8.3222,51.5469,0.1791,0.1851,-0.2879,184.3189
19:34:54:704,0.804,0.4068,8.1236,50.1103,0.0043,0.1985,-0.4028,184.8662
19:34:54:724,0.2728,0.4857,7.9131,49.1143,-0.1044,0.2633,-0.4895,185.4747
19:34:54:745,-0.2345,0.6317,7.3938,50.6331,-0.119,0.3305,-0.5054,186.0518
19:34:54:770,-0.5384,0.8447,6.7693,50.0467,-0.0689,0.3671,-0.4492,186.5787
19:34:54:792,-0.5025,1.0983,6.0897,48.9573,-0.0091,0.3537,-0.349,186.96
19:34:54:807,-0.268,1.4764,5.6471,50.3228,0.0092,0.3219,-0.261,187.2739
19:34:54:825,0.0455,1.797,5.6447,49.8266,-0.036,0.2963,-0.2366,187.5968
19:34:54:845,0.0263,2.1799,5.9174,50.7982,-0.119,0.2547,-0.2891,187.9727
19:34:54:866,-0.4116,2.5986,6.6066,50.3617,-0.2106,0.1655,-0.3844,188.4603
19:34:54:887,-0.6317,2.8451,7.5685,50.6637,-0.262,0.0079,-0.4602,189.0512
19:34:54:906,-0.9523,2.9575,8.54,50.2062,-0.2522,-0.1741,-0.4809,189.6889
19:34:54:927,-0.7777,2.8475,9.6024,50.4973,-0.2339,-0.3464,-0.4614,190.35
19:34:54:944,-0.6078,2.6417,10.4303,50.4973,-0.2461,-0.4539,-0.4284,190.9824
19:34:54:966,-0.9141,2.6273,11.5502,51.1166,-0.2986,-0.3928,-0.3979,191.5579
19:34:54:985,-1.2203,2.5603,12.6556,51.0504,-0.3365,-0.19,-0.3087,192.004
19:34:55:005,-1.4357,2.4072,13.6798,52.491,-0.2534,0.0849,-0.1071,192.202
19:34:55:025,-1.2682,2.2732,14.0363,53.7712,-0.003,0.2816,0.1995,192.0216
19:34:55:047,-0.8806,2.5292,13.1342,52.0376,0.3696,0.3329,0.5098,191.5175
19:34:55:069,-0.213,2.546,10.4734,52.4787,0.6873,0.1851,0.6858,190.8479
19:34:55:088,-0.3829,2.6201,10.0259,51.2418,0.4906,0.102,0.6064,190.0973
19:34:55:108,-0.7633,2.3282,10.3896,51.3333,0.1729,0.0605,0.4805,189.0585
19:34:55:125,-1.0528,1.742,11.2654,51.2418,-0.119,-0.0055,0.3901,188.7117
19:34:55:144,-0.9165,1.0576,12.2154,52.1822,-0.2351,-0.1961,0.3669,188.4344
19:34:55:164,-0.7394,0.6963,12.4618,51.2986,-0.1093,-0.3781,0.3901,188.143
19:34:55:185,-0.8734,0.7322,11.1386,49.8833,0.2401,-0.2743,0.461,187.753
19:34:55:205,-1.0433,0.9571,8.8989,51.4317,0.6042,0.0922,0.5563,187.1928
19:34:55:224,-1.0504,1.2012,7.334,50.3723,0.7007,0.2608,0.5868,186.5471
19:34:55:244,-0.6939,1.4477,6.7262,51.4182,0.5114,0.1399,0.5563,185.9933
19:34:55:264,-0.1747,1.6798,7.3866,53.2511,0.1705,-0.0922,0.4292,185.655
19:34:55:288,-0.0742,1.462,8.3007,50.7741,-0.1447,-0.2633,0.1861,185.6222
19:34:55:305,-0.7418,1.3807,8.7171,49.2418,-0.2998,-0.2193,-0.0558,185.8229
19:34:55:324,-1.3974,1.4477,8.7338,50.5348,-0.345,-0.0018,-0.1767,186.0372
19:34:55:344,-1.6989,1.4979,8.5065,50.6302,-0.3096,0.2523,-0.1767,186.2099
19:34:55:364,-1.3639,1.3495,8.2887,51.1932,-0.2314,0.361,-0.1132,186.2767
19:34:55:384,-0.9452,1.3783,8.2361,52.0297,-0.1545,0.3158,-0.0448,186.2996
19:34:55:405,-0.8375,1.6845,8.2529,50.8277,-0.086,0.2242,-0.013,186.2993
19:34:55:548,-0.9523,2.1392,8.1619,51.1932,-0.0164,0.1765,-0.0167,186.3275
19:34:55:549,-1.0193,2.2947,7.5996,51.5347,0.0813,0.2437,-0.0253,186.3374
19:34:55:549,-1.2467,2.3785,6.8698,52.8574,0.1485,0.3402,-0.035,186.3185
19:34:55:550,-1.3065,2.412,7.1258,50.9424,0.0581,0.2999,-0.0338,186.2913
19:34:55:560,-1.4812,2.4574,8.394,51.7949,-0.1264,0.1484,-0.0155,186.3091
19:34:55:561,-1.273,2.3545,9.9254,50.3723,-0.1435,-0.1777,0.0798,186.3046
19:34:55:561,-0.8255,2.1057,10.459,50.8277,-0.1031,-0.3158,0.1103,186.2344
19:34:55:573,-0.5504,1.8233,11.062,53.4159,-0.1593,-0.3793,0.1018,186.2598
19:34:55:599,-0.3422,1.4979,11.5741,52.8635,-0.2424,-0.3635,0.092,186.3113
19:34:55:604,-0.201,1.2945,11.9354,49.8893,-0.3035,-0.3256,0.0945,186.373
19:34:55:623,0.0646,1.1844,12.3278,50.7339,-0.3512,-0.328,0.1116,186.3972
19:34:55:642,0.5551,0.9188,12.8375,51.0631,-0.4159,-0.4074,0.1128,186.44
19:34:55:663,0.9021,0.7011,13.8688,50.7075,-0.4941,-0.526,0.0749,186.54
19:34:55:682,1.1174,0.3661,14.6058,50.8844,-0.4477,-0.5516,0.0175,186.716
19:34:55:703,0.9404,-0.0718,13.9525,51.0129,-0.1545,-0.4013,-0.0534,186.9106
19:34:55:723,0.2776,-0.0766,11.7679,50.1698,0.2866,-0.0935,-0.0717,187.0677
19:34:55:743,0.1627,0.0622,9.411,49.5482,0.6396,0.1606,0.0163,187.0976
19:34:55:763,0.6006,0.201,7.6977,52.0097,0.7044,0.1435,0.0871,187.0563
19:34:55:782,1.1749,0.457,7.2263,51.0792,0.4478,-0.0837,0.0358,187.1313
19:34:55:805,1.4955,0.5025,7.8796,50.2595,0.0215,-0.2755,-0.1706,187.4797
19:34:55:822,0.9954,0.2082,8.6596,49.7663,-0.3133,-0.1888,-0.4724,188.088
19:34:55:843,-0.1053,0.134,8.7218,50.9206,-0.4428,0.0629,-0.6923,188.8929
19:34:55:862,-0.9834,0.3422,8.4658,51.0593,-0.4281,0.2474,-0.7229,189.7037
19:34:55:884,-1.2299,0.6485,8.2169,51.4299,-0.3402,0.3134,-0.5787,190.3474
19:34:55:903,-0.8662,0.9619,7.5948,50.5292,-0.1972,0.2987,-0.3698,190.743
19:34:55:926,-0.3493,1.3065,6.8291,50.4759,-0.0763,0.3134,-0.2244,190.9975
19:34:55:943,-0.0502,1.7324,6.5803,50.8069,-0.0811,0.4282,-0.1816,191.1953
