Time,Acc_X,Acc_Y,Acc_Z,Meg,Gyr_X,Gyr_Y,Gyr_Z,Ore
20:27:05:945,-1.139,2.6465,9.5163,61.0648,-0.1738,0.0323,-0.1158,31.1107
20:27:05:976,-1.139,2.6465,9.5163,59.1988,0.1133,-0.1216,-0.0412,62.443
20:27:05:992,-1.139,2.6465,9.5163,58.5707,0.1133,-0.1216,-0.0412,62.735
20:27:06:014,-1.3807,2.7685,9.052,59.9689,0.1133,-0.1216,-0.0412,62.6038
20:27:06:036,-1.2754,2.6608,9.2028,58.9827,-0.1004,-0.0239,0.065,62.5494
20:27:06:056,-1.3495,2.6297,9.2387,59.872,-0.098,-0.0508,0.0626,62.5834
20:27:06:069,-1.2897,2.6584,9.2818,58.3063,-0.0626,-0.0997,0.0614,62.5639
20:27:06:088,-1.0863,2.6991,9.1095,60.0833,-0.0211,-0.0838,0.0675,62.3683
20:27:06:108,-1.127,2.7685,9.1214,60.137,-0.0381,-0.0129,0.0406,62.1203
20:27:06:131,-1.1653,2.7087,9.4373,58.9372,-0.1078,0.0017,0.0296,62.0487
20:27:06:146,-1.1366,2.6943,9.8824,60.2471,-0.1346,-0.0202,0.0235,62.0157
20:27:06:173,-1.2132,2.5388,9.8201,58.6158,-0.0504,0.0079,0.0211,62.1088
20:27:06:184,-1.194,2.5699,9.4062,59.9056,0.0779,0.0286,0.0333,62.0649
20:27:06:204,-0.9284,2.7182,9.0784,60.5887,0.1243,-0.0166,0.0663,61.8293
20:27:06:224,-0.8375,2.8499,8.9611,59.872,0.0694,-0.0117,0.0785,61.5239
20:27:06:242,-0.8519,2.7661,9.0425,61.1102,-0.0198,0.0127,0.0712,61.2668
20:27:06:266,-0.7849,2.8092,9.2865,58.926,-0.076,0.0017,0.0541,61.0429
20:27:06:283,-0.7274,2.723,9.3464,59.1988,-0.087,0.0225,0.0296,60.9125
20:27:06:302,-0.8877,2.7015,9.2124,60.137,-0.065,0.0579,0.0027,60.8302
20:27:06:323,-1.0193,2.747,9.2746,58.3254,-0.0381,0.0298,0.0052,60.7498
20:27:06:343,-0.8949,2.7135,9.1884,61.1102,0.0009,-0.0202,0.0296,60.6522
20:27:06:375,-0.725,2.7781,9.0736,59.3136,0.0352,-0.0593,0.0284,60.5091
20:27:06:383,-0.6867,2.747,9.0808,59.8277,0.0119,-0.0777,-0.018,60.4418
20:27:06:403,-0.8877,2.6106,9.1765,60.221,-0.0601,-0.0532,-0.0852,60.544
20:27:06:424,-1.0289,2.5196,9.1669,59.872,-0.109,-0.0264,-0.0962,60.6703
20:27:06:443,-0.9523,2.6632,9.1669,58.7606,-0.1102,-0.0007,-0.0693,60.6933
20:27:06:464,-1.0002,2.7087,9.1358,60.0936,-0.1237,0.0433,-0.062,60.6585
20:27:06:483,-0.9906,2.6273,9.1908,59.5858,-0.1554,0.0433,-0.0583,60.6985
20:27:06:502,-1.1007,2.6154,9.3033,60.4586,-0.1762,0.003,-0.051,60.7146
20:27:06:523,-1.1557,2.6536,9.2865,58.8032,-0.175,-0.0264,-0.0278,60.7454
20:27:06:543,-1.0457,2.6345,9.2171,61.3953,-0.1676,-0.0288,-0.0058,60.6762
20:27:06:563,-1.1222,2.5819,9.3583,60.8378,-0.1762,-0.0325,-0.0131,60.683
20:27:06:583,-1.1988,2.7159,9.9422,61.3128,-0.1786,-0.0508,-0.0022,60.663
20:27:06:603,-1.3352,2.8211,9.8943,59.5447,-0.0687,-0.0031,0.0406,60.5402
20:27:06:622,-1.5099,3.0126,9.4708,60.7395,0.0816,0.0127,0.0479,60.4254
20:27:06:644,-1.8831,3.0556,9.0138,60.2809,0.1549,-0.0117,0.0369,60.3718
20:27:06:675,-1.8975,3.125,8.9013,61.4924,0.1598,-0.0215,0.0724,60.2328
20:27:06:683,-1.6439,3.1322,9.8632,59.2774,0.1329,-0.0813,0.164,60.0676
20:27:06:702,-1.5697,3.1466,9.8273,61.3953,0.2453,-0.096,0.164,59.9055
20:27:06:722,-1.8521,3.3452,9.3631,59.2435,0.3833,-0.0874,0.1347,59.5905
20:27:06:742,-1.8855,3.3452,8.6261,61.0077,0.4286,-0.0936,0.12,59.4512
20:27:06:762,-1.9382,3.539,8.2792,60.4768,0.3381,-0.0948,0.1286,59.2877
20:27:06:782,-1.8544,3.716,8.3844,58.9562,0.1439,-0.0752,0.1445,59.0622
20:27:06:802,-1.6654,3.8477,8.8606,60.0833,-0.0406,-0.0361,0.1432,58.81
20:27:06:822,-1.6845,3.8046,9.4493,59.1371,-0.109,-0.0019,0.0919,58.6652
20:27:06:843,-1.9741,3.7184,9.277,59.4675,0.0083,0.0469,0.0357,58.5895
20:27:06:863,-2.2827,3.8333,8.5113,59.5113,0.1866,0.0811,0.0223,58.5037
20:27:06:883,-2.2564,3.9099,7.6427,59.8277,0.2612,0.0787,0.0809,58.2926
20:27:06:904,-2.0315,4.0487,7.0899,59.7417,0.1757,0.108,0.1604,57.9497
20:27:06:922,-1.8257,3.9577,6.8267,57.6141,-0.0271,0.2143,0.1946,57.5353
20:27:06:944,-1.9358,4.0104,7.2239,60.7648,-0.2825,0.3682,0.2019,57.0667
20:27:06:967,-2.1679,4.1133,8.5113,60.221,-0.5085,0.4147,0.2043,56.6068
20:27:06:983,-1.9908,4.0319,9.5139,60.221,-0.4963,0.3817,0.2495,56.1421
20:27:07:002,-1.4955,3.9841,9.3416,60.2809,-0.1933,0.2729,0.2972,55.6379
20:27:07:022,-1.06,3.9912,8.8487,59.8461,0.1036,0.0274,0.2434,55.2286
20:27:07:043,-0.9787,3.9505,8.5256,60.0297,0.1891,-0.228,0.1017,55.0879
20:27:07:062,-1.2108,3.8477,8.9228,59.1988,0.0694,-0.3465,-0.051,55.1693
20:27:07:084,-1.4931,3.685,9.7819,59.5858,-0.1114,-0.3147,-0.1402,55.4342
20:27:07:104,-1.5529,3.4768,11.1482,58.9616,-0.2495,-0.311,-0.1671,55.76
20:27:07:127,-0.7872,2.8522,12.7777,58.2964,-0.0601,-0.5444,-0.1817,56.6503
20:27:07:149,-0.4546,2.8235,12.5958,59.4757,0.0962,-0.6519,-0.1891,57.1586
20:27:07:165,0.0072,2.6154,12.0694,59.4433,0.1366,-0.592,-0.1878,57.6288
20:27:07:182,0.0072,2.3952,11.6578,60.2816,0.0413,-0.4149,-0.233,58.1029
20:27:07:202,-0.1436,2.321,11.4425,60.2816,-0.1127,-0.3086,-0.2819,58.6183
20:27:07:222,-0.2082,2.1176,10.9496,60.2816,-0.1799,-0.239,-0.2685,59.0976
20:27:07:242,-0.2177,2.1942,10.2772,60.2816,-0.1334,-0.1265,-0.1609,59.3947
20:27:07:261,0.0838,2.4933,9.2626,60.9322,-0.0211,0.0115,0.0174,59.3852
20:27:07:283,0.7968,2.4718,8.4538,57.8966,0.0779,0.0799,0.1249,59.1777
20:27:07:302,1.0744,2.4191,8.2911,60.8923,0.1353,0.0738,0.0712,59.0023
20:27:07:322,1.0265,2.2684,8.5041,57.8917,0.2086,-0.0422,-0.0657,59.0546
20:27:07:348,0.725,2.1416,8.7266,62.1607,0.2905,-0.2377,-0.1878,59.3215
20:27:07:365,0.7657,2.1655,8.2959,58.5007,0.4004,-0.3257,-0.2416,59.6811
20:27:07:384,0.9595,2.187,7.6714,59.065,0.4395,-0.2609,-0.2648,60.0055
20:27:07:403,1.0744,2.1918,7.6331,58.7645,0.3064,-0.2169,-0.3259,60.3828
20:27:07:422,1.0672,2.2301,8.1763,59.0913,0.0975,-0.267,-0.4456,60.9323
20:27:07:441,0.2417,2.5125,8.8152,60.3367,-0.0247,-0.289,-0.5995,61.6905
20:27:07:461,-0.0957,2.747,8.8558,59.1286,0.0254,-0.2377,-0.6533,62.4831
20:27:07:482,-0.0766,2.936,8.528,57.3402,0.2062,-0.1498,-0.5837,63.1472
20:27:07:501,0.0814,3.3284,7.9466,56.4411,0.3418,-0.0923,-0.4835,63.6332
20:27:07:522,0.2943,3.5821,7.468,58.6026,0.3491,-0.0899,-0.4004,63.9944
20:27:07:542,0.3517,3.807,7.3795,59.3107,0.2441,-0.0972,-0.3919,64.3304
20:27:07:563,0.2441,3.8381,7.7121,59.8983,0.0559,-0.1412,-0.42,64.7341
20:27:07:586,0.0335,3.8907,8.7817,58.7777,-0.0833,-0.0691,-0.3845,65.1565
20:27:07:603,-0.469,3.9649,8.7625,58.7219,0.0376,0.0421,-0.3857,65.5085
20:27:07:624,-0.9141,3.9553,8.7697,58.9781,0.1231,0.0249,-0.3809,65.8572
20:27:07:641,-1.127,3.9841,8.7673,60.3498,0.1744,-0.0251,-0.3051,66.5133
20:27:07:662,-1.1366,3.941,8.8415,61.2131,0.2086,-0.0337,-0.2184,66.7481
20:27:07:683,-0.9571,3.7017,9.3009,59.5734,0.2001,-0.0471,-0.1561,66.942
20:27:07:703,-0.8925,3.5868,10.282,60.4188,0.1427,-0.1302,-0.1182,67.1834
20:27:07:724,-0.9787,3.6969,11.0046,58.9108,0.0657,-0.2243,-0.0889,67.4378
20:27:07:743,-1.4165,4.1563,10.8419,59.4976,0.0181,-0.1351,-0.0657,67.6068
20:27:07:763,-1.5194,4.4578,9.9733,59.5735,-0.0223,0.185,-0.029,67.5613
20:27:07:786,-0.7011,4.0367,10.0164,60.8347,-0.1359,0.3805,-0.0424,67.4626
20:27:07:807,-0.1962,2.9958,11.5262,59.508,-0.3167,-0.0447,-0.2147,67.8104
20:27:07:822,-0.9691,2.4024,12.4786,58.6191,-0.3766,-0.6947,-0.4896,68.7903
20:27:07:842,-2.4407,2.2947,12.012,58.9875,-0.1517,-0.7032,-0.5934,69.9051
20:27:07:868,-2.9456,2.5819,10.0546,61.3143,0.249,-0.1253,-0.3418,70.4621
20:27:07:885,-2.3569,2.5077,7.87,61.0217,0.5935,0.3511,0.1542,70.2715
20:27:07:902,-1.6343,2.6154,6.7932,59.034,0.5495,0.3951,0.4242,69.7538
20:27:08:053,-1.127,2.7182,7.1952,60.6608,0.1207,0.1068,0.4401,69.3171
20:27:08:062,-0.9978,2.7661,8.2552,60.956,-0.3814,-0.1436,0.3754,69.0683
20:27:08:063,-1.1174,2.6441,9.0305,59.6202,-0.6441,0.0066,0.3131,68.8278
20:27:08:063,-1.3735,2.5723,9.3464,61.033,-0.6087,0.2558,0.2617,68.571
20:27:08:063,-1.4237,2.5795,9.2889,57.9165,-0.3717,0.2497,0.2324,68.3418
20:27:08:064,-1.194,2.6632,8.8678,59.1892,-0.0907,0.0384,0.2251,68.1813
20:27:08:064,-0.7753,2.723,8.1189,57.9186,0.1366,-0.0691,0.2129,67.8994
20:27:08:065,-0.7968,2.6967,7.925,58.7773,0.0706,0.1532,0.2275,67.643
20:27:08:085,-0.9236,2.6776,8.0327,59.8008,-0.043,0.312,0.2373,67.3621
20:27:08:104,-1.151,2.5412,8.2265,59.9952,-0.076,0.284,0.219,67.1365
20:27:08:121,-1.3831,2.5316,8.4443,59.4711,-0.0039,0.1031,0.1958,67.0099
20:27:08:142,-1.2132,2.5747,8.3964,58.3291,0.1048,-0.0484,0.2495,66.8557
20:27:08:161,-0.8853,2.6824,8.3318,60.1712,0.1744,-0.0826,0.3216,66.6169
20:27:08:182,-0.7011,2.7541,8.5735,58.2174,0.1146,-0.1339,0.3363,66.415
20:27:08:204,-0.5838,2.7996,9.3631,59.0703,-0.043,-0.2133,0.3424,66.2415
20:27:08:223,-0.4092,2.8379,10.6146,58.5926,-0.1762,-0.2964,0.3534,66.1018
20:27:08:243,0.1651,2.4311,11.7847,58.6109,-0.1774,-0.421,0.3668,66.0256
20:27:08:263,0.6724,2.3091,12.6126,59.902,-0.054,-0.5395,0.3241,66.0276
20:27:08:283,0.859,2.333,12.5097,58.9829,0.1011,-0.5432,0.2312,66.1279
20:27:08:303,0.591,2.412,11.9402,57.2467,0.2172,-0.3171,0.1347,66.2342
20:27:08:323,0.0838,2.8355,11.3157,58.5829,0.2636,-0.0667,0.0968,66.268
20:27:08:343,0.4642,2.9862,10.7414,57.4019,0.2697,-0.0105,0.1567,66.235
20:27:08:364,1.0624,3.1514,10.0666,57.8097,0.2832,-0.03,0.2165,66.0822
20:27:08:385,2.1464,2.5149,9.7843,58.3646,0.2612,-0.0239,0.1872,65.9846
20:27:08:403,2.3545,1.7779,9.9422,60.3263,0.1573,-0.1094,0.0125,66.129
20:27:08:422,1.517,1.4955,10.1575,58.4417,-0.0357,-0.2463,-0.2416,66.6364
20:27:08:443,0.9739,1.2036,10.5404,57.1098,-0.2361,-0.1949,-0.3051,67.2353
20:27:08:465,1.2802,1.2108,10.8634,55.68,-0.368,-0.0545,-0.1609,67.5818
20:27:08:484,1.9573,1.5529,10.5906,57.5391,-0.3509,0.1007,0.0186,67.6653
20:27:08:504,2.1631,2.1559,8.7577,56.2225,0.062,0.3316,-0.0205,67.5968
20:27:08:523,1.7827,2.534,8.1954,56.1144,0.2648,0.2693,-0.1634,67.4966
20:27:08:544,1.5075,2.8307,7.6163,57.6787,0.4286,0.2399,-0.2868,67.8668
20:27:08:566,1.005,2.991,7.0373,57.0045,0.5397,0.29,-0.398,68.2134
20:27:08:586,0.335,3.1107,6.4247,57.4184,0.5409,0.3255,-0.4969,68.6343
20:27:08:603,-0.3398,3.5773,6.4845,56.8527,0.4408,0.3756,-0.5421,69.0827
20:27:08:622,-0.7801,3.9194,7.0636,58.442,0.3027,0.3658,-0.5165,69.4925
20:27:08:643,-0.7633,3.9697,7.4919,58.4362,0.2099,0.2888,-0.4578,69.8875
20:27:08:668,-0.5097,3.9865,7.6044,59.3328,0.2196,0.2229,-0.398,70.2525
20:27:08:685,-0.3733,4.1492,7.4848,58.7818,0.2538,0.2216,-0.3735,70.5849
20:27:08:703,-0.6293,4.0917,7.6259,57.3596,0.1817,0.3108,-0.3723,70.877
20:27:08:723,-1.151,4.0199,8.2169,59.1734,0.0632,0.4672,-0.2892,71.0289
20:27:08:743,-1.7683,4.063,9.0903,56.9863,-0.0235,0.5784,-0.1304,71.0177
20:27:08:763,-2.4383,4.4794,9.6909,58.2869,0.0266,0.571,0.0944,70.7823
20:27:08:783,-2.0746,4.7019,9.7484,58.7865,0.1854,0.4477,0.3546,70.3117
20:27:08:804,-0.7992,4.532,9.2937,58.5099,0.3565,0.4623,0.533,69.6451
20:27:08:824,-0.8973,4.6229,9.4397,58.1454,0.3931,0.6065,0.4523,68.9809
20:27:08:843,-1.584,4.4889,9.7603,58.1217,0.31,0.7457,0.2483,68.4942
20:27:08:868,-2.3665,4.1635,10.5858,58.4029,0.238,0.8765,0.1249,68.1291
20:27:08:884,-2.8786,4.197,10.0618,58.0527,0.2905,0.9632,0.1457,67.6816
20:27:08:902,-2.8307,4.4554,9.21,58.4784,0.3467,1.0658,0.2288,67.0741
20:27:08:922,-2.5795,4.587,8.9372,58.4413,0.2196,1.0316,0.274,66.42
20:27:08:944,-2.1416,3.9314,9.7197,57.0451,-0.0113,0.7763,0.2361,65.9593
20:27:08:967,-4.1731,3.8285,10.4518,57.2183,-0.0271,0.2619,0.1616,65.675
20:27:08:982,-3.8596,3.5653,8.3988,57.3874,0.3491,0.4868,0.3399,65.2642
20:27:09:001,-3.5557,3.6251,6.786,57.3477,0.4615,0.6285,0.4401,64.6517
20:27:09:020,-3.5007,3.6562,6.8219,58.2016,0.1402,0.604,0.4511,64.0367
20:27:09:040,-3.3499,3.7831,8.351,58.3592,-0.2788,0.6676,0.4511,63.409
20:27:09:061,-3.3141,3.6706,7.8963,58.2506,-0.3961,0.4342,0.4206,62.9111
20:27:09:080,-2.9288,3.6562,8.4538,56.818,-0.4083,0.0579,0.3888,62.657
20:27:09:101,-2.6154,3.5797,8.6572,56.7549,-0.3497,-0.019,0.3888,62.4448
20:27:09:121,-2.9073,3.6826,7.9657,56.4798,-0.1249,0.0653,0.3021,62.2912
20:27:09:140,-3.4983,3.7113,7.2383,55.9927,0.0938,-0.1424,0.1946,62.3387
20:27:09:172,-3.6921,3.4361,6.0538,56.4696,0.2868,-0.702,0.1774,62.6704
20:27:09:222,-3.3117,3.1202,5.4126,57.5707,0.3088,-1.1577,0.2666,63.1557
20:27:09:223,-3.1609,3.0508,6.0778,57.9198,0.1231,-1.2017,0.4255,63.5209
20:27:09:223,-3.3858,3.5127,7.2742,56.7958,-0.0015,-0.9952,0.5452,63.6994
20:27:09:255,-2.9958,3.8405,7.5326,57.8136,0.0804,-0.8975,0.6552,63.6953
20:27:09:272,-2.0219,3.7232,7.5326,57.8549,0.1891,-0.8669,0.7285,63.5882
20:27:09:289,-1.864,3.8333,8.2074,58.4879,0.1243,-0.8119,0.6857,63.5143
20:27:09:302,-2.0483,4.319,9.6455,57.4962,-0.0516,-0.7081,0.6417,63.4505
20:27:09:320,-2.0339,4.3932,11.5023,57.2108,-0.1591,-0.5053,0.6796,63.2652
20:27:09:340,-1.809,4.2425,12.8949,56.8417,-0.0662,-0.3086,0.781,62.9141
20:27:09:363,-0.7944,3.9673,12.5623,59.1368,0.2294,-0.228,0.9068,62.3861
20:27:09:380,0.6437,3.9027,12.0215,57.1904,0.4371,-0.1889,0.9752,61.7439
20:27:09:400,1.5147,4.5464,11.8947,57.3387,0.3333,-0.1925,0.8677,61.1902
20:27:09:421,2.0435,4.4674,9.9039,58.0789,0.0926,0.5148,0.5293,60.6242
20:27:09:440,1.5553,3.9434,9.4875,56.949,-0.0528,0.5759,0.3045,59.8266
20:27:09:462,0.5504,4.0415,9.5043,56.2094,-0.2006,0.2791,0.0748,59.3722
20:27:09:487,0.1053,3.8764,9.2291,57.1033,-0.1896,0.0934,0.015,59.5051
20:27:09:501,0.1842,3.3021,8.7099,57.1033,-0.032,0.2033,0.0822,59.5265
20:27:09:520,0.0311,3.1801,8.0758,57.3629,0.0987,0.3059,0.1188,59.4575
20:27:09:541,-0.2847,3.1035,7.5853,56.4316,0.0914,0.1764,0.1041,59.4531
20:27:09:561,-0.6748,2.9121,7.322,54.7944,-0.0211,-0.052,0.0663,59.6313
20:27:09:582,-1.1151,2.6178,7.1282,54.9335,-0.1762,-0.1571,0.0296,59.9091
20:27:09:601,-1.2491,2.6752,7.0851,56.6259,-0.3448,-0.0545,0.087,60.0736
20:27:09:621,-0.9595,2.8953,7.5853,57.3352,-0.4938,0.1044,0.241,60.038
20:27:09:641,-0.1364,3.1968,7.6738,56.2636,-0.5525,0.163,0.3827,59.7983
20:27:09:672,0.4977,3.5031,7.882,58.2761,-0.4841,0.1801,0.4023,59.479
20:27:09:683,0.3063,3.8166,7.8676,57.454,-0.3118,0.185,0.2801,59.2829
20:27:09:703,0.2776,4.0678,7.6451,57.3386,-0.0687,0.141,0.1664,59.2168
20:27:09:721,0.6676,4.3765,6.8124,56.1103,0.139,0.0274,0.1335,59.2189
20:27:09:741,1.2179,4.6038,6.0706,57.1917,0.2221,-0.0484,0.0956,59.2651
20:27:09:774,1.1677,4.8407,6.2166,57.1917,0.0975,-0.173,-0.029,59.4915
20:27:09:785,0.8949,4.7785,7.2359,57.0847,-0.1408,-0.3379,-0.1536,59.9402
20:27:09:802,0.3063,4.4171,8.272,56.4333,-0.2458,-0.3501,-0.2184,60.4994
20:27:09:821,-0.8949,4.4219,8.7721,55.7839,-0.1823,-0.2548,-0.2392,61.0622
20:27:09:841,-1.7372,4.4961,8.9228,56.0238,-0.054,-0.1229,-0.1304,61.4729
20:27:09:873,-2.1535,4.8383,8.796,56.2288,0.04,0.0579,0.1017,61.5525
20:27:09:891,-1.4836,4.989,9.923,57.2915,-0.1151,0.4269,0.5904,61.2841
20:27:09:901,-0.6532,4.745,11.263,55.7113,-0.1872,0.4171,0.7126,59.8613
20:27:09:928,-0.3422,4.197,12.0144,56.2881,-0.0418,0.3463,0.7113,59.248
20:27:09:952,-1.0816,4.2951,11.1625,55.9544,0.2526,0.3157,0.6026,58.7776
20:27:09:965,-1.9813,4.7785,9.4229,57.1693,0.5373,0.5161,0.5269,58.2573
20:27:09:985,-1.5147,4.9651,8.0997,55.6201,0.5214,0.659,0.5489,57.6248
20:27:10:000,-0.3637,3.8142,10.2485,57.1761,0.0523,0.2143,0.4462,57.3285
20:27:10:021,-0.7849,3.3643,13.3759,57.9198,-0.4254,-0.8351,0.1664,57.8825
20:27:10:041,-1.797,3.3547,13.7946,57.4533,-0.3546,-1.5877,-0.0266,59.0316
20:27:10:080,-2.3139,2.6536,11.8899,57.1672,0.1402,-1.3067,-0.0705,60.0839
20:27:10:084,-3.283,2.7494,9.0808,57.2153,0.5923,-0.3159,0.0247,60.5483
20:27:10:211,-3.2375,3.2255,6.6042,58.2933,0.5483,0.433,0.3522,60.2917
20:27:10:212,-2.0746,3.1729,6.1089,56.0606,0.0547,0.7103,0.7749,59.4438
20:27:10:212,-1.3639,2.9719,6.9057,57.4217,-0.4486,0.7848,1.0009,58.3205
20:27:10:212,-1.2802,2.9671,7.7408,53.8228,-0.66,0.7482,1.0388,57.232
20:27:10:213,-1.261,2.8738,7.8461,54.9256,-0.5452,0.692,1.04,56.1413
20:27:10:213,-1.4429,2.7876,7.7623,54.7327,-0.2886,0.6053,1.0351,55.1239
20:27:10:224,-1.3854,2.6824,7.5422,56.5809,-0.0577,0.4599,1.0925,54.1107
20:27:10:240,-0.95,2.8642,7.6738,54.0839,0.0877,0.2986,1.2184,53.0317
20:27:10:264,-0.5288,3.0748,7.6977,53.5491,0.1903,0.2082,1.3198,51.8835
20:27:10:281,-0.1149,3.4241,7.6546,54.7794,0.2758,0.2167,1.3393,50.6791
20:27:10:301,0.1029,3.6012,7.6403,55.6573,0.2966,0.2326,1.2782,49.5179
20:27:10:322,0.4235,3.7831,8.0351,53.5294,0.2551,0.2351,1.1902,48.4613
20:27:10:344,0.9858,3.9817,8.7051,54.5812,0.0083,0.2595,0.9215,47.5197
20:27:10:369,1.0863,4.2856,9.6048,55.2191,-0.1847,0.2949,0.7846,45.7857
20:27:10:387,1.4572,4.2808,10.5404,55.4362,-0.3277,0.2546,0.6612,45.2377
20:27:10:409,1.7779,4.185,11.4688,55.895,-0.379,0.0897,0.5146,44.9061
20:27:10:422,2.0267,4.3167,12.1555,53.5768,-0.3656,-0.1278,0.3888,44.8035
20:27:10:455,2.4766,4.52,12.0622,54.5052,-0.3191,-0.1876,0.3118,44.7764
20:27:10:467,2.924,4.0822,12.0503,55.4344,-0.302,-0.0361,0.2275,44.7652
20:27:10:481,2.948,3.3188,12.8949,55.0896,-0.3619,0.0054,0.065,44.9436
20:27:10:501,2.4598,3.0652,14.4574,55.5921,-0.3924,-0.1999,-0.0876,45.401
20:27:10:520,2.3186,3.0221,14.4,53.3815,-0.1896,-0.3709,-0.106,45.9423
20:27:10:542,2.6249,2.3809,12.0263,52.4144,0.299,-0.1326,0.0015,46.2556
20:27:10:568,2.8211,2.0483,9.3655,53.7305,0.7719,0.196,0.0724,46.3112
20:27:10:585,2.9934,2.0411,7.0445,53.9391,0.8574,0.1117,0.0235,46.4289
20:27:10:601,2.9839,1.8568,6.0275,53.7081,0.5312,-0.1571,-0.1048,46.7957
20:27:10:622,2.0626,1.7922,6.5109,52.9966,0.0461,-0.2096,-0.3063,47.4213
20:27:10:642,0.7872,1.7683,7.1857,53.0489,-0.3008,-0.1168,-0.4407,48.1964
20:27:10:669,-0.1268,1.931,7.267,53.7795,-0.3643,-0.074,-0.4163,48.9262
20:27:10:682,-0.6365,2.455,7.2981,53.2192,-0.2361,-0.0642,-0.2819,49.5306
20:27:10:701,-0.5575,2.924,6.8602,54.4021,-0.0479,-0.0679,-0.106,49.9348
20:27:10:721,-0.1029,3.3117,6.3864,53.3477,0.106,-0.0129,0.0467,50.144
20:27:10:741,0.347,3.7089,6.073,52.0854,0.1219,0.0176,0.1273,50.2243
20:27:10:765,0.8351,3.941,6.3458,53.2192,-0.0101,0.0457,0.1347,50.2774
20:27:10:781,1.0935,4.0104,7.0349,52.5657,-0.1994,0.119,0.0773,50.341
20:27:10:802,0.7011,3.9194,8.6644,54.4691,-0.3045,0.1337,-0.0925,50.4948
20:27:10:822,0.481,3.9817,8.8439,53.2546,-0.1285,-0.0007,-0.0779,50.8553
20:27:10:841,0.5456,4.2209,8.3844,54.5154,0.073,-0.1216,0.0211,51.1146
20:27:10:865,0.5791,4.4267,8.0447,54.0617,0.1647,-0.1119,0.1469,51.2513
20:27:10:883,0.4283,4.8287,8.7075,52.5353,0.1084,-0.0484,0.263,51.2206
20:27:10:901,0.2106,4.6062,9.6742,52.7506,0.0168,-0.0618,0.3668,51.1017
20:27:10:921,-0.1268,4.0008,10.3466,53.2449,0.062,-0.0471,0.4523,50.9346
20:27:10:942,-0.7777,3.8213,10.4303,50.9128,0.2294,-0.0056,0.5317,50.6984
20:27:10:964,-1.2658,3.8453,9.8848,53.1416,0.4286,0.0836,0.6784,50.2776
20:27:10:985,-1.6941,4.2257,8.9803,53.1436,0.519,0.2522,0.8433,49.609
20:27:11:002,-1.8066,4.4171,8.4682,51.8273,0.3992,0.4819,0.9826,48.6879
20:27:11:021,-1.8521,4.6373,8.7099,52.7839,0.1121,0.6981,1.0779,47.5835
20:27:11:041,-1.1653,4.2209,9.6622,51.7789,-0.1921,0.7751,1.1292,46.3775
20:27:11:063,-0.7657,3.4672,10.7366,52.2071,-0.412,0.5368,1.0791,45.3513
20:27:11:084,-1.2227,3.8213,11.7129,51.2199,-0.4877,0.196,0.9899,44.5865
20:27:11:105,-1.1988,3.7017,11.8134,51.6749,-0.3924,0.0726,0.9826,43.8802
20:27:11:121,-1.4261,3.4313,11.3803,47.9729,-0.2629,0.0848,0.9349,43.2196
20:27:11:141,-1.328,3.3906,11.2176,50.3249,-0.2751,0.1447,0.9166,42.5346
20:27:11:164,-0.6413,3.0963,11.6602,52.5798,-0.3937,0.2607,0.9948,41.718
20:27:11:185,-0.1603,2.8977,11.653,52.0853,-0.4279,0.422,1.0412,40.7798
20:27:11:213,0.0168,2.8905,10.4806,51.0604,-0.2556,0.6993,1.0644,39.6925
20:27:11:220,-0.0144,2.8451,8.7721,51.1617,0.0681,1.0145,1.0803,38.434
20:27:11:242,-0.1603,2.7829,6.9631,52.5392,0.3601,1.1782,1.084,37.1016
20:27:11:268,-0.0694,2.723,5.4054,50.7176,0.3846,0.791,1.0889,34.3612
20:27:11:284,-0.2513,2.8379,5.8576,49.1825,0.2367,0.4574,1.0717,33.3012
20:27:11:302,-0.2273,2.8211,7.0014,52.0383,0.1072,0.1544,1.0693,32.3904
20:27:11:320,-0.3541,2.5364,8.3462,50.3642,0.062,-0.1889,1.0754,31.6493
20:27:11:341,-0.067,2.3952,9.0784,49.6177,0.0755,-0.6519,1.0693,31.0973
20:27:11:364,0.5264,2.7494,10.4327,50.6713,0.0901,-0.9524,1.0999,30.6092
20:27:11:382,1.0816,3.0508,11.0118,51.7063,0.1781,-0.95,1.106,30.1081
20:27:11:400,1.2825,3.2997,10.8993,50.3992,0.4017,-0.4735,1.0314,29.483
20:27:11:421,1.0193,3.539,10.2293,51.5721,0.5397,0.0775,0.9276,28.7447
20:27:11:448,1.3448,3.5653,10.2197,48.8092,0.4591,0.3487,0.9031,27.9083
20:27:11:464,2.4215,3.3021,10.5882,49.7149,0.2648,0.2253,0.886,27.1013
20:27:11:480,2.936,3.3667,10.6457,48.8728,0.1512,0.0298,0.7602,26.499
20:27:11:499,3.1394,3.2303,10.0092,48.9322,0.1329,0.0408,0.5733,26.0656
20:27:11:520,3.3763,2.8283,9.2889,50.6029,0.1072,0.2204,0.3827,25.7342
20:27:11:540,3.3739,2.2181,9.2124,50.0714,-0.0357,0.2986,0.1469,25.604
20:27:11:559,2.5842,1.7515,10.1432,48.0659,-0.313,0.1728,-0.1133,25.8326
20:27:11:581,1.8664,1.9382,11.6554,48.3614,-0.6099,-0.0899,-0.2245,26.3394
20:27:11:601,2.0913,2.1631,12.2871,49.0136,-0.6368,-0.2964,-0.0962,26.782
20:27:11:621,2.8762,2.1272,10.8227,49.0534,-0.2739,-0.1986,0.12,26.9179
20:27:11:640,3.1729,2.4072,8.8965,49.0534,0.1915,0.2265,0.2055,26.7756
20:27:11:664,2.9815,2.7948,7.4345,47.6491,0.3357,0.5784,0.1237,26.5675
20:27:11:682,3.0173,2.6632,7.1043,47.4786,0.0449,0.4733,-0.0266,26.5267
20:27:11:701,2.8475,2.4096,8.0447,46.5258,-0.4352,0.1251,-0.1927,26.8255
20:27:11:726,1.3591,2.278,9.2578,48.1674,-0.66,0.0738,-0.3931,27.3305
20:27:11:739,0.8207,2.2062,8.6931,47.65,-0.3118,0.2668,-0.4041,28.2731
20:27:11:762,0.536,2.1224,7.3101,49.0136,0.1011,0.4025,-0.3699,28.7037
20:27:11:782,0.3063,2.2421,5.9653,48.5535,0.3675,0.5234,-0.3344,29.0711
20:27:11:801,0.1436,2.5938,5.5226,48.9898,0.3137,0.5429,-0.3063,29.3853
20:27:11:821,0.3661,2.9408,5.7404,46.5258,0.0181,0.4171,-0.2514,29.6731
20:27:11:841,0.8136,3.1801,6.4678,47.6076,-0.2764,0.3634,-0.1817,29.8786
20:27:11:863,0.9715,3.393,7.188,46.9855,-0.4413,0.4098,-0.1512,30.0264
20:27:11:882,0.7274,3.3906,8.059,47.8465,-0.4792,0.4696,-0.1756,30.2017
20:27:11:901,0.4427,3.4433,8.9994,47.1867,-0.4694,0.4257,-0.1878,30.424
20:27:11:921,0.2177,3.6706,9.7962,47.3893,-0.4071,0.3658,-0.0938,30.5641
20:27:11:941,-0.0287,4.2138,10.4303,46.8112,-0.2971,0.3548,0.0712,30.5413
20:27:11:961,0.0239,4.5105,10.8515,47.18,-0.1444,0.3426,0.2642,30.3376
20:27:11:981,0.2991,4.6014,11.3683,46.5144,0.0413,0.2509,0.401,29.9862
20:27:12:000,0.5886,4.52,11.9761,45.0174,0.1268,-0.0056,0.3815,29.7436
20:27:12:020,0.5001,4.2042,12.4546,46.9575,0.1268,-0.1559,0.2776,29.6596
20:27:12:041,-0.2201,4.1563,12.3637,46.0769,0.1329,0.0176,0.1897,29.6516
20:27:12:065,-0.7849,4.1348,11.7129,47.2195,0.1781,0.4574,0.2104,29.4733
20:27:12:082,-0.9165,3.9769,11.3851,44.1696,0.1879,0.7873,0.3008,29.076
20:27:12:101,-0.6389,3.1777,12.0574,44.9655,0.0987,0.6407,0.3143,28.7085
20:27:12:120,-0.9117,2.8714,12.7633,45.4827,0.0266,0.1312,0.2446,28.5972
20:27:12:140,-1.5458,3.0173,12.2106,45.5434,0.1866,-0.1815,0.2361,28.6328
20:27:12:165,-1.5242,2.668,10.3729,46.8106,0.5409,-0.0105,0.3338,28.4977
20:27:12:183,-1.3974,2.6034,7.3484,46.3015,0.7034,0.3023,0.3839,27.7158
20:27:12:202,-1.2227,2.5316,7.1569,47.296,0.3699,0.1996,0.3558,27.4543
20:27:12:323,-1.2275,2.2971,7.858,46.1011,0.0046,0.0616,0.3118,27.3123
20:27:12:323,-1.328,2.0985,8.1667,44.6718,-0.1628,0.0042,0.2886,27.2057
20:27:12:324,-1.4548,2.0004,7.8796,42.8187,-0.1041,0.1227,0.3082,27.0227
20:27:12:324,-1.7085,2.2756,7.3795,42.0873,0.0083,0.2644,0.3607,26.7228
20:27:12:324,-1.4979,2.5675,7.1593,44.4784,0.0755,0.2522,0.4694,26.2921
20:27:12:324,-1.1773,2.7852,7.1904,44.5779,0.1243,0.1422,0.5659,25.8183
20:27:12:340,-1.0361,2.9432,7.188,43.5445,0.1927,0.0481,0.577,25.3617
20:27:12:363,-1.2658,2.9599,7.0134,43.4783,0.2893,0.0237,0.5379,24.955
20:27:12:383,-1.3448,3.0532,6.9823,44.3833,0.3394,0.0079,0.5085,24.5812
20:27:12:401,-1.1557,3.216,7.2933,44.3091,0.2844,-0.052,0.5354,24.2166
20:27:12:420,-0.5384,3.1992,7.6714,44.3657,0.1683,-0.0667,0.5684,23.8039
20:27:12:440,-0.2441,3.2088,8.3342,43.9078,0.0461,0.0262,0.5342,23.357
20:27:12:461,-0.3326,3.3284,9.21,43.8836,-0.0931,0.1532,0.4487,22.9644
20:27:12:480,-0.1436,3.2806,10.2533,44.0533,-0.2055,0.1886,0.3937,22.605
20:27:12:501,0.4235,3.07,11.2941,43.4326,-0.2813,0.0249,0.3399,22.362
20:27:12:522,0.8638,2.8163,12.347,44.3091,-0.2837,-0.2573,0.2544,22.3251
20:27:12:544,0.8136,3.216,12.5049,42.6039,-0.1774,-0.4918,0.164,22.486
20:27:12:564,1.1127,2.7206,11.4879,43.8836,0.04,-0.3452,0.1005,22.6058
20:27:12:584,1.5912,1.1964,11.0836,42.5969,-0.076,-0.2084,-0.1475,22.9842
20:27:12:603,1.4788,1.2514,12.4164,42.8201,-0.4596,-0.5603,-0.2233,23.6407
20:27:12:622,1.7444,1.5242,13.2299,42.1288,-0.572,-0.7117,-0.1658,24.1747
20:27:12:642,2.0913,1.5027,11.6507,40.2741,-0.2263,-0.4723,-0.0107,24.3501
20:27:12:665,2.1942,1.6654,9.3751,40.5292,0.3027,0.0433,0.0528,24.3586
20:27:12:680,2.3163,1.5864,6.9894,41.6152,0.5483,0.4586,-0.018,24.2445
20:27:12:700,2.0818,1.4907,5.9509,42.1301,0.299,0.5356,-0.1622,24.2468
20:27:12:719,1.6199,2.0148,6.7286,40.3446,-0.3423,0.345,-0.2819,24.4651
20:27:12:739,1.8161,2.0913,8.4514,41.1302,-0.8933,0.2277,-0.2502,24.698
20:27:12:761,1.4716,2.2947,9.3129,40.8023,-0.9886,0.2339,-0.2452,24.9253
20:27:12:780,0.7896,2.5149,9.4277,38.6044,-0.7101,0.2473,-0.3137,25.2441
20:27:12:801,0.2895,2.7972,8.8056,40.4715,-0.2825,0.2021,-0.3271,25.5897
20:27:12:821,0.28,2.9958,7.8461,38.7185,0.1133,0.141,-0.2794,25.8934
20:27:12:839,0.5575,3.1322,6.8866,38.3817,0.321,0.1312,-0.2343,26.143
20:27:12:860,0.8877,3.216,6.6042,39.735,0.2587,0.1874,-0.2367,26.3647
20:27:12:879,0.7777,3.4026,7.2215,39.2761,-0.0149,0.2253,-0.2831,26.6389
20:27:12:900,0.804,3.3906,8.5974,38.0525,-0.3179,0.1972,-0.332,26.9678
20:27:12:920,0.7825,3.2088,9.6574,38.5888,-0.4071,0.1532,-0.3454,27.3285
20:27:12:942,0.524,3.1418,10.014,38.9357,-0.2495,0.1434,-0.3418,27.6971
20:27:12:959,0.1029,3.2231,10.2006,36.6616,-0.0113,0.119,-0.3027,28.0386
20:27:12:980,-0.1149,3.4959,10.1312,36.5603,0.1781,0.0506,-0.211,28.2791
20:27:13:001,-0.146,3.7974,9.8895,36.7866,0.2966,0.0579,-0.0962,28.4108
20:27:13:021,-0.4498,3.9817,9.8584,38.2568,0.3271,0.2339,-0.0009,28.403
20:27:13:041,-0.4283,4.0271,10.6959,37.4245,0.2331,0.3634,0.0809,28.2337
20:27:13:061,-0.3757,3.9673,11.5023,37.7713,0.1512,0.3536,0.1457,28.006
20:27:13:082,-0.7059,4.1013,12.1268,36.6378,0.2783,0.3682,0.1481,27.5962
20:27:13:101,-2.8451,3.6323,9.7699,36.5413,0.8342,0.6773,0.0357,27.3693
20:27:13:120,-3.6347,3.4552,8.7817,35.9879,0.7206,0.7323,0.0284,27.1696
20:27:13:142,-3.6108,2.5914,9.2483,36.086,0.3601,0.6358,0.1335,26.916
20:27:13:163,-3.4672,2.3713,10.0858,35.1289,0.0168,0.3194,0.3106,26.5981
20:27:13:182,-2.2899,2.7422,10.8299,36.6268,-0.1615,-0.0019,0.5855,26.0724
20:27:13:200,-0.9595,2.5101,10.6026,34.5092,-0.1542,-0.1546,0.7407,25.4063
20:27:13:220,-0.9595,2.4814,9.8919,32.8804,-0.0907,-0.1461,0.6197,24.8598
20:27:13:239,-1.2227,2.4455,9.2171,34.5643,-0.1261,-0.0777,0.4719,24.4451
20:27:13:259,-1.1246,2.2612,8.7434,33.5617,-0.2544,-0.0044,0.423,24.0405
20:27:13:280,-1.0983,2.1416,8.3773,33.3569,-0.39,0.0457,0.3851,23.6558
20:27:13:300,-1.1916,2.0674,8.1236,32.972,-0.4694,0.1764,0.3692,23.2371
20:27:13:320,-1.6176,1.943,7.7073,32.4642,-0.4205,0.51,0.3705,22.6972
20:27:13:342,-2.2301,1.8664,6.9607,32.4615,-0.2996,0.8142,0.3766,22.0625
20:27:13:360,-2.2732,1.7037,6.341,32.8981,-0.1957,0.8313,0.4829,21.2982
20:27:13:378,-1.8329,1.7731,6.0586,33.1214,-0.1505,0.5552,0.6674,20.4288
20:27:13:398,-1.1988,2.2851,6.5922,32.4678,-0.1835,0.152,0.8653,19.4846
20:27:13:418,-0.3374,2.5962,7.7145,30.4572,-0.208,-0.2194,0.9752,18.5048
20:27:13:440,0.1268,2.6106,7.8867,29.8932,-0.0858,-0.3697,0.9264,17.618
20:27:13:461,-0.2656,3.0126,7.4536,31.6208,0.0718,-0.256,0.7565,16.8796
20:27:13:486,-0.591,3.1083,7.4728,30.1165,0.0559,-0.1021,0.6368,16.2405
20:27:13:501,-0.5384,3.2734,8.059,30.1853,-0.1114,-0.0251,0.5892,15.6262
20:27:13:518,-0.4953,3.472,9.0975,29.6397,-0.2556,0.0469,0.5244,15.0245
20:27:13:538,-0.1364,2.5747,9.8656,28.5864,-0.2788,0.053,0.2752,14.5377
20:27:13:558,-0.0287,2.2421,10.94,29.1628,-0.39,-0.0862,0.1591,14.2262
20:27:13:580,-0.0526,2.0794,12.3853,26.824,-0.55,-0.2499,0.0528,14.0333
20:27:13:599,-0.0502,1.8018,13.4142,27.2171,-0.6172,-0.3465,-0.0058,14.1201
20:27:13:621,0.2321,1.4883,13.9262,29.0742,-0.5378,-0.3184,-0.0009,14.1775
20:27:13:639,0.7107,1.3663,14.077,27.2862,-0.3949,-0.2548,0.0492,14.1386
20:27:13:662,1.1629,1.1438,14.0578,28.179,-0.2458,-0.1546,0.1017,14.0126
20:27:13:687,0.9093,1.1318,13.5817,27.1038,-0.0675,-0.0337,0.1017,13.8594
20:27:13:700,0.7968,1.1294,12.5264,26.7804,0.1427,0.0591,0.1066,13.6606
20:27:13:721,1.0026,1.0744,11.4903,24.3013,0.3247,0.064,0.164,13.3907
20:27:13:739,1.6702,1.2132,10.5452,26.7804,0.3858,-0.0667,0.2312,13.0546
20:27:13:759,2.3067,1.4333,9.8704,27.1961,0.3113,-0.1815,0.2288,12.7509
20:27:13:783,2.2349,1.5529,9.5976,27.2169,0.1842,-0.1522,0.0956,12.5624
20:27:13:801,1.4764,1.517,8.9755,26.1353,0.117,-0.0398,-0.095,12.5764
20:27:13:827,0.8136,1.5625,8.2146,24.8705,0.1243,0.0677,-0.2171,12.7159
20:27:13:839,0.2943,1.651,7.5422,27.2442,0.1512,0.1276,-0.2562,12.8621
20:27:13:861,-0.0144,1.9382,7.0181,25.2304,0.1903,0.1715,-0.2367,12.9733
20:27:13:878,-0.122,2.3019,6.5563,25.2648,0.238,0.1948,-0.1817,13.0369
20:27:13:901,-0.0598,2.6249,6.0873,27.3188,0.2722,0.1838,-0.1365,13.0424
20:27:13:920,0.0072,2.8977,5.7284,28.9479,0.2624,0.1483,-0.1414,13.0449
20:27:13:941,0.1268,2.9862,5.8385,27.3844,0.1891,0.0897,-0.2001,13.1039
20:27:13:962,0.1747,2.991,6.4869,26.1323,0.0877,-0.0239,-0.3063,13.3209
20:27:13:981,-0.0526,2.8666,7.3436,25.6478,0.0804,-0.1522,-0.409,13.6956
20:27:14:001,-0.0646,2.8762,7.7623,25.239,0.1805,-0.3599,-0.4151,14.7036
20:27:14:020,-0.2201,3.1729,8.607,27.0357,0.007,-0.2597,-0.3405,15.025
20:27:14:040,-0.3541,3.4744,9.8225,26.8946,-0.1945,-0.0276,-0.2171,15.1483
20:27:14:065,-0.4116,3.7711,10.7605,26.5517,-0.2324,0.1899,-0.0559,15.0053
20:27:14:082,0.0335,3.9362,11.3731,27.3922,-0.1188,0.2045,0.1151,14.6715
20:27:14:104,0.7944,4.0128,11.0572,26.6721,0.0816,0.1117,0.2349,14.2061
20:27:14:121,1.0193,4.1228,10.3155,26.3112,0.2196,0.1263,0.2031,13.7535
20:27:14:139,0.2656,4.1276,9.9972,26.0342,0.1549,0.2339,0.0296,13.481
20:27:14:160,-0.9117,3.8429,10.0834,27.4148,-0.0284,0.3499,-0.1622,13.4107
20:27:14:181,-1.4501,3.2495,10.5882,28.0031,-0.2141,0.3096,-0.255,13.4496
20:27:14:200,-1.3448,2.1679,12.0239,27.2054,-0.4022,-0.0178,-0.2807,13.5982
20:27:14:220,-1.8401,1.9119,13.3663,28.3653,-0.5366,-0.5187,-0.2966,13.9612
20:27:14:239,-2.3665,2.1224,13.3855,28.7556,-0.4022,-0.6091,-0.1939,14.2253
20:27:14:259,-2.4885,1.9549,11.653,28.6836,-0.0235,-0.1388,0.0101,14.1268
20:27:14:287,-2.5819,2.0483,9.4804,29.7334,0.2832,0.3353,0.186,13.7077
20:27:14:300,-2.3306,2.1918,8.1739,29.7334,0.2367,0.4195,0.2874,13.1241
20:27:14:318,-1.8209,2.2373,8.3151,28.2396,-0.0577,0.284,0.3595,12.494
20:27:14:428,-1.5314,2.1512,8.9898,29.3712,-0.3179,0.1557,0.3558,11.9136
20:27:14:429,-1.6295,2.1224,9.2483,28.8989,-0.3509,0.1337,0.3338,11.3591
20:27:14:429,-1.8353,2.211,8.6955,26.9531,-0.1835,0.1581,0.3619,10.7582
20:27:14:429,-1.8521,2.467,8.0303,29.2171,0.0303,0.1422,0.4401,10.097
20:27:14:429,-1.4596,2.7182,7.5302,28.5629,0.1903,-0.0044,0.5513,9.3405
20:27:14:440,-0.658,2.7852,7.133,30.2433,0.3137,-0.228,0.6295,8.5317
20:27:14:462,-0.7346,2.6608,7.3101,28.0911,0.2966,-0.4259,0.4426,7.833
20:27:14:483,-1.1797,2.6106,7.9753,30.3874,0.2062,-0.2353,0.3864,7.5135
20:27:14:502,-1.5099,2.4526,8.1165,29.7197,0.2172,-0.052,0.3815,7.006
20:27:14:519,-1.1868,2.479,8.071,29.0546,0.2587,0.0701,0.4633,5.7325
20:27:14:539,-0.4068,2.6536,8.0542,30.1285,0.2428,0.1202,0.5855,4.845
20:27:14:559,0.2417,2.6848,8.5831,31.1633,0.1549,0.0518,0.5953,3.9668
20:27:14:582,0.6461,2.589,9.6407,30.8655,0.0107,-0.0777,0.4817,3.2131
20:27:14:600,1.2203,2.333,10.9615,29.8442,-0.1237,-0.2084,0.3192,2.6808
20:27:14:621,1.4142,1.7946,12.0096,30.1517,-0.2018,-0.3074,0.1335,2.3662
20:27:14:638,0.8566,1.8521,13.1151,29.4448,-0.2287,-0.344,-0.0315,2.2502
20:27:14:659,0.7442,1.8664,13.1844,31.8235,-0.142,-0.2841,-0.0559,2.1505
20:27:14:681,1.3759,1.4644,11.9569,32.13,0.0523,-0.0276,0.015,1.8435
20:27:14:699,1.8425,1.4094,10.9735,31.1728,0.1024,0.2375,0.0333,1.4118
20:27:14:720,1.7444,1.1892,11.1218,32.3883,-0.1114,0.2815,-0.0473,1.0544
20:27:14:738,0.9452,1.4883,12.079,30.3811,-0.3814,0.2216,-0.1414,0.8276
20:27:14:759,0.8351,1.4118,12.3087,33.1337,-0.3985,0.334,-0.1072,0.5599
20:27:14:781,1.1581,1.3232,11.5597,32.5594,-0.197,0.3805,-0.0229,0.1664
20:27:14:801,1.6343,1.3543,10.483,31.5323,0.0254,0.2485,0.0211,359.7483
20:27:14:820,1.9047,1.3687,9.3488,31.2431,0.1463,0.0396,-0.0229,359.4509
20:27:14:841,1.6822,1.462,8.5448,32.2719,0.0987,-0.0826,-0.1646,359.3379
20:27:14:863,1.2179,1.462,8.5711,31.8235,-0.0736,-0.0288,-0.3002,359.3471
20:27:14:880,0.5982,1.5625,8.8319,31.8583,-0.2055,0.0958,-0.3662,359.4272
20:27:14:900,0.1436,1.797,8.7266,32.8537,-0.175,0.1483,-0.3491,359.4931
20:27:14:920,0.1986,2.5101,7.3914,33.1779,0.2563,0.1166,-0.2013,359.4511
20:27:14:938,0.4211,2.9288,6.7884,33.9707,0.3882,0.0494,-0.1744,359.6213
20:27:14:959,0.6915,3.137,6.6951,34.8576,0.3736,-0.0496,-0.1903,359.4048
20:27:14:980,0.9834,3.3858,7.1737,34.0155,0.3003,-0.1766,-0.2452,359.3962
20:27:15:001,1.1246,3.5127,7.7456,33.1779,0.2599,-0.2756,-0.3271,359.5195
20:27:15:018,1.0576,3.5007,8.1404,36.0319,0.2783,-0.355,-0.4322,359.7896
20:27:15:039,0.8782,3.1801,7.9514,37.4747,0.3552,-0.4051,-0.5079,0.1586
20:27:15:062,0.4522,3.338,8.0423,35.8714,0.3455,-0.3941,-0.5275,0.5383
20:27:15:082,0.1795,3.5222,8.3581,37.2092,0.2184,-0.3098,-0.4578,0.8303
20:27:15:098,-0.3278,3.9745,8.8534,35.8332,0.0632,-0.0703,-0.3528,0.9209
20:27:15:117,-0.4714,4.2305,9.4014,35.407,-0.0785,0.218,-0.2502,0.8315
20:27:15:138,-0.2871,3.9793,10.1408,35.407,-0.1994,0.3524,-0.1512,0.5884
20:27:15:158,-0.067,3.7854,11.4018,35.407,-0.2703,0.2558,-0.1023,0.3253
20:27:15:181,-0.0072,3.527,12.1101,35.407,-0.1811,0.1044,-0.0999,0.1123
20:27:15:200,-0.6532,3.5749,11.9115,35.407,0.0645,0.1044,-0.1341,359.9508
20:27:15:219,-1.517,3.5294,10.8993,38.21,0.3137,0.2449,-0.1683,359.7959
20:27:15:238,-2.2014,3.7256,9.7053,39.0343,0.4481,0.4208,-0.1182,359.5149
20:27:15:259,-1.7037,3.6395,9.3392,40.2031,0.3675,0.4171,0.0052,359.0848
20:27:15:281,-0.7035,2.8881,10.0379,38.9079,0.1109,0.1117,0.0528,358.6877
20:27:15:298,-1.0385,2.8546,10.8873,40.1074,-0.1102,-0.173,-0.0559,358.5097
20:27:15:320,-1.5099,2.3091,10.995,40.1252,-0.1872,-0.1986,-0.1842,358.4846
20:27:15:338,-2.0411,1.8951,10.7557,40.2647,-0.2043,-0.1461,-0.2599,358.54
20:27:15:358,-1.809,1.6295,10.5428,40.4847,-0.2593,-0.118,-0.2025,358.5103
20:27:15:381,-0.0838,1.7109,10.0235,39.183,-0.368,-0.0117,0.1591,358.2454
20:27:15:400,0.0814,2.0172,9.6981,39.183,-0.302,-0.0276,0.2104,358.076
20:27:15:419,-0.2536,2.1679,8.6572,40.9265,-0.0504,-0.0777,0.1872,357.0455
20:27:15:448,-0.8997,2.2756,7.0349,40.1795,0.2966,-0.1412,0.1579,356.6291
20:27:15:460,-1.5123,2.4263,5.6279,39.9253,0.5226,-0.1534,0.1579,356.2179
20:27:15:482,-1.7827,2.6441,5.1422,41.6416,0.4444,-0.1046,0.2153,355.7493
20:27:15:498,-1.7013,2.7709,5.7571,42.0244,0.1414,-0.008,0.3607,355.1266
20:27:15:521,-1.2538,2.9001,6.7454,40.853,-0.1249,0.0555,0.5257,354.2962
20:27:15:539,-0.7466,3.1418,7.6187,41.2487,-0.1811,0.0433,0.6185,353.3768
20:27:15:566,-0.5504,3.1944,7.9059,41.7255,-0.0565,0.0274,0.5977,352.4608
20:27:15:584,-0.7944,3.216,7.8508,44.3354,0.1219,0.0164,0.4829,351.6617
20:27:15:603,-1.0672,3.2016,8.0471,42.7712,0.1952,-0.1168,0.3546,351.0706
20:27:15:619,-0.7657,3.2327,8.3844,43.1808,0.1512,-0.2915,0.3216,350.5908
20:27:15:637,-0.5145,3.405,9.0377,43.2381,0.0364,-0.2866,0.3192,350.094
20:27:15:658,-0.0335,3.1011,9.7484,42.0136,-0.1151,-0.1473,0.2495,349.5933
20:27:15:702,0.5312,2.4933,10.8491,43.6165,-0.2776,-0.0838,0.1273,349.2082
20:27:15:712,0.9188,2.187,12.2465,42.8314,-0.4291,-0.2169,0.0015,348.9688
20:27:15:717,1.1964,1.9549,13.3831,42.4691,-0.4645,-0.377,-0.095,348.8826
20:27:15:737,0.8231,1.8521,13.5793,45.9058,-0.3326,-0.3794,-0.1817,348.8952
20:27:15:757,0.6461,1.5099,13.2323,46.2974,-0.1102,-0.2108,-0.1878,348.8571
20:27:15:778,1.1198,1.3807,12.591,45.1334,0.0865,-0.0557,-0.0473,348.622
20:27:15:798,2.0172,1.3926,11.9857,46.2993,0.194,0.0298,0.1139,348.1638
20:27:15:819,2.6656,1.2778,11.476,47.4955,0.1964,-0.0019,0.1249,347.6985
20:27:15:839,2.3402,1.0911,10.7079,44.7563,0.0474,0.0176,-0.1585,347.508
20:27:15:862,2.0578,1.2371,10.124,44.3525,0.0181,0.1214,-0.1964,347.3607
20:27:15:883,1.8879,1.4883,9.2267,44.7573,0.0523,0.1606,-0.1927,347.2213
20:27:15:902,1.718,1.608,8.1835,46.6885,0.0804,0.1385,-0.2184,347.1345
20:27:15:919,1.5242,1.7037,7.5015,46.3141,0.0107,0.0298,-0.3002,347.1534
20:27:15:942,1.0792,1.8329,7.3986,46.4616,-0.1713,-0.1216,-0.4065,347.3535
20:27:15:966,0.5647,1.9214,7.7934,46.4309,-0.3497,-0.1937,-0.4823,347.6883
20:27:15:983,0.1172,2.1368,7.937,45.6098,-0.4144,-0.1937,-0.4884,348.04
20:27:16:000,0.1795,2.278,7.9274,47.2584,-0.3277,-0.1253,-0.442,348.3161
20:27:16:017,0.3111,2.388,7.4082,46.6256,-0.1701,-0.0545,-0.3992,348.5249
20:27:16:038,0.1795,2.5316,6.932,43.7459,-0.0553,0.0091,-0.3992,348.7359
20:27:16:060,0.2465,2.6776,7.0493,46.2956,-0.0589,-0.0422,-0.3992,348.9608
20:27:16:081,0.536,2.8259,7.2215,46.1881,-0.0882,-0.1632,-0.3784,349.2004
20:27:16:099,0.5743,3.0054,7.4489,46.7424,-0.0748,-0.1827,-0.3894,349.4454
20:27:16:118,0.5264,3.1059,8.1069,46.0639,-0.0662,-0.0972,-0.4358,349.7246
20:27:16:138,0.2345,3.1131,8.5184,47.3756,-0.0479,-0.0312,-0.4737,350.0424
20:27:16:158,-0.1292,3.2782,9.1693,47.7702,-0.0443,-0.063,-0.4969,350.4019
20:27:16:181,-0.5575,3.3667,9.7173,48.0817,-0.0479,-0.0838,-0.4688,350.5466
20:27:16:202,-1.4285,3.5892,10.0259,47.3756,-0.0247,0.0518,-0.365,350.5936
20:27:16:218,-2.3378,4.2496,11.1649,46.3706,-0.0039,0.174,-0.1573,350.3714
20:27:16:237,-2.0243,4.2353,11.9521,46.751,0.0828,0.0885,0.1335,350.0963
20:27:16:260,-0.6054,3.8524,11.4951,48.6601,0.3479,-0.0129,0.4083,349.5113
20:27:16:280,0.1986,3.9027,10.3801,46.623,0.591,0.0982,0.5354,348.7388
20:27:16:300,-0.8542,4.0128,9.9374,48.5038,0.2453,0.3976,0.3998,347.9673
20:27:16:319,-1.5242,3.5509,10.2724,47.6298,0.04,0.4782,0.357,347.4379
20:27:16:338,-1.7515,3.204,10.7318,48.5404,-0.0675,0.4012,0.3986,346.1093
20:27:16:357,-1.3448,2.589,11.3587,48.4261,-0.1163,0.1996,0.5146,345.3698
20:27:16:379,-0.8423,2.4048,11.866,48.6919,-0.1432,-0.0447,0.6478,344.6077
20:27:16:400,-0.012,2.6154,12.0526,50.4738,-0.1114,-0.1742,0.8066,343.7063
20:27:16:419,0.8375,2.5603,11.5932,48.755,0.007,-0.1461,0.9019,342.6536
20:27:16:540,1.0863,2.4957,10.6528,47.5895,0.1512,-0.0606,0.8152,341.6734
20:27:16:541,1.1151,2.3426,9.5761,49.2262,0.1989,-0.0496,0.6466,340.8823
20:27:16:541,1.0265,2.1942,8.7218,48.1273,0.1304,-0.0141,0.4988,340.2392
20:27:16:541,0.6437,2.1703,8.0184,47.7905,0.0022,0.1166,0.346,339.695
20:27:16:542,0.1412,2.0698,7.614,48.5717,-0.1237,0.3389,0.2227,339.2386
20:27:16:542,-0.5216,1.9765,7.4202,45.5554,-0.197,0.5368,0.1664,338.7555
20:27:16:563,-1.0409,1.8401,7.3005,47.4821,-0.1945,0.5918,0.186,338.2704
20:27:16:577,-1.1916,2.0172,7.3699,48.071,-0.1517,0.466,0.3033,337.6937
20:27:16:597,-0.8112,2.3115,7.9274,46.8609,-0.1371,0.2583,0.4756,336.9986
20:27:16:618,-0.0024,2.3857,8.5376,46.2024,-0.1029,0.0897,0.6038,336.2134
20:27:16:638,0.3829,2.4024,8.6046,46.4083,0.0413,0.0262,0.6136,335.4364
20:27:16:658,0.1675,2.5651,8.2911,45.9816,0.2477,-0.0227,0.5085,334.7739
20:27:16:680,0.0598,2.5555,7.7312,48.1783,0.4114,-0.1229,0.401,334.2757
20:27:16:697,0.1603,2.5914,7.5589,47.0102,0.4554,-0.2255,0.3338,333.8823
20:27:16:718,0.6126,2.5316,8.0877,45.9557,0.3772,-0.3,0.2666,333.5839
20:27:16:737,0.9739,2.5077,8.8367,45.9859,0.249,-0.3306,0.1811,333.3817
20:27:16:760,1.2443,2.211,10.0642,45.2601,0.0193,-0.2194,-0.1023,333.2767
20:27:16:780,1.206,1.9262,10.6098,45.2014,-0.1102,-0.2438,-0.2709,333.6642
20:27:16:798,1.1629,1.7539,11.3252,46.765,-0.2531,-0.3465,-0.4041,334.0751
20:27:16:819,0.8638,1.7707,11.7177,45.2529,-0.3546,-0.3648,-0.4762,334.5571
20:27:16:836,0.7394,1.9095,11.653,47.1192,-0.3753,-0.2145,-0.4334,334.9608
20:27:16:859,1.5458,1.8568,11.3133,44.9508,-0.3387,-0.03,-0.2856,335.1265
20:27:16:881,2.3019,1.7085,11.4425,45.6105,-0.3619,-0.0264,-0.2404,335.2506
20:27:16:898,2.3833,1.4764,12.1101,46.1159,-0.478,-0.1436,-0.3601,335.5191
20:27:16:921,1.8305,1.4572,13.0911,45.6002,-0.5623,-0.2072,-0.4994,335.9687
20:27:16:938,1.6774,1.3185,13.1294,46.3219,-0.4547,-0.1632,-0.5165,336.4325
20:27:16:961,2.0459,1.1725,12.0191,46.6232,-0.1579,0.0323,-0.409,336.7354
20:27:16:977,2.3426,1.2945,10.2724,46.8209,0.1561,0.2143,-0.2966,336.8568
20:27:16:998,2.467,1.3974,8.6525,45.4794,0.3137,0.2265,-0.2966,336.9698
20:27:17:018,1.986,1.5266,7.4728,45.8414,0.2636,0.0848,-0.4187,337.2586
20:27:17:038,1.462,1.7635,7.4584,44.564,0.0425,-0.0728,-0.5605,337.705
20:27:17:065,1.194,1.785,8.2002,45.6105,-0.1725,-0.129,-0.6142,338.2502
20:27:17:082,0.8016,1.9956,8.4443,47.7788,-0.2031,-0.0813,-0.5995,338.7682
20:27:17:097,0.6293,2.321,8.3127,46.0112,-0.0748,-0.0593,-0.5568,339.2888
20:27:17:117,0.3206,2.6369,7.858,47.2287,0.1292,-0.096,-0.5153,339.7512
20:27:17:137,-0.1484,3.1514,7.3819,46.2191,0.3345,-0.162,-0.4859,340.2523
20:27:17:158,-0.2369,3.5844,7.0612,47.4206,0.4395,-0.2487,-0.4322,340.711
20:27:17:181,0.2369,3.8046,6.9057,46.0713,0.4127,-0.2768,-0.3711,341.1286
20:27:17:201,0.6197,3.9529,7.255,46.0513,0.2599,-0.1913,-0.3821,341.5164
20:27:17:220,0.2656,3.7591,9.4875,45.5128,-0.1542,-0.0422,-0.5629,342.5888
20:27:17:237,-0.0072,3.7208,10.6217,45.7757,-0.1945,-0.063,-0.5397,343.0979
20:27:17:261,-0.2249,3.7352,11.1218,48.8629,-0.0491,-0.0239,-0.4163,343.4584
20:27:17:279,-0.4786,3.7831,11.0022,45.1512,0.2184,0.1153,-0.2782,343.6543
20:27:17:299,-0.8925,3.8548,10.5691,46.0372,0.4566,0.2399,-0.1561,343.6792
20:27:17:318,-0.8542,3.8644,10.3561,48.3176,0.5813,0.2998,-0.0278,343.5531
20:27:17:337,-0.4331,3.8357,10.2221,47.5634,0.6045,0.3291,0.0748,343.2916
20:27:17:357,-0.3183,3.7974,10.2939,48.3334,0.5776,0.3634,0.1054,342.9897
20:27:17:379,-0.8231,3.9482,10.1958,46.4094,0.5446,0.3976,0.0712,342.7033
20:27:17:399,-1.3089,3.7926,9.7747,46.2044,0.53,0.4831,0.0553,342.4039
20:27:17:418,-1.4907,3.472,9.6096,46.9245,0.4774,0.521,0.0712,342.0716
20:27:17:438,-1.3639,2.546,10.3107,47.2654,0.2942,0.3475,0.0797,341.7956
20:27:17:458,-2.0794,2.3928,11.0572,47.0121,0.0791,0.0787,0.0602,341.6584
20:27:17:478,-3.259,2.5651,10.727,45.7801,0.0767,0.1434,0.1273,341.4565
20:27:17:497,-3.4289,2.4431,9.4852,47.7214,0.2636,0.3695,0.3289,340.9439
20:27:17:518,-3.2327,2.5914,8.3533,46.6013,0.365,0.378,0.4926,340.2707
20:27:17:540,-2.4335,2.668,7.6163,46.5859,0.2587,0.2302,0.627,339.4798
20:27:17:564,-1.2969,2.6824,7.7264,46.0558,-0.0223,0.1117,0.7211,338.6541
20:27:17:579,-0.6269,2.723,8.7123,46.3926,-0.3546,0.1361,0.7358,337.7921
20:27:17:600,-0.7872,2.8427,9.5067,44.4168,-0.5293,0.2815,0.6954,336.8875
20:27:17:618,-1.0672,2.9886,9.4564,47.0339,-0.4303,0.3976,0.6991,335.9526
20:27:17:637,-0.9667,2.991,8.4538,46.3926,-0.1188,0.4489,0.7822,334.9106
20:27:17:657,-0.7322,3.2255,7.3244,45.8912,0.1866,0.4721,0.8763,333.7736
20:27:17:681,0.0694,3.6419,7.0517,46.4332,0.2563,0.2705,0.9129,332.5835
20:27:17:696,0.1101,3.7974,7.468,45.6272,0.2282,0.1557,0.8225,331.5395
20:27:17:717,0.134,3.7065,7.6379,45.6582,0.2709,0.0897,0.715,329.75
20:27:17:737,-0.0885,3.7472,7.9585,46.1999,0.3271,0.0555,0.6124,329.0388
20:27:17:757,0.0502,3.6562,8.351,46.6354,0.3406,-0.0251,0.5525,328.4329
20:27:17:797,0.3398,3.4935,8.5161,46.8038,0.3626,-0.085,0.5146,327.875
20:27:17:798,0.4259,3.5821,8.5735,46.1808,0.3736,-0.1021,0.4536,327.3942
20:27:17:816,0.6796,3.74,8.6668,45.7274,0.3357,-0.0984,0.3839,326.992
20:27:17:836,1.2251,3.5701,9.1382,43.4534,0.2404,-0.1595,0.2874,326.683
20:27:17:858,1.4046,3.7184,9.7197,46.0119,0.1109,-0.2622,0.1567,326.5519
20:27:17:876,1.4548,3.9147,10.0546,44.7253,0.007,-0.2719,0.0309,326.5657
20:27:17:901,1.5266,3.862,9.9709,44.6255,-0.0638,-0.2072,-0.0889,326.6594
20:27:17:917,1.9717,3.2136,9.8273,45.7166,-0.1786,-0.1669,-0.2086,326.8499
20:27:17:935,1.9741,2.5627,10.1623,46.3775,-0.3851,-0.1889,-0.3454,327.2072
20:27:17:955,1.6367,2.2516,11.3204,45.6272,-0.6624,-0.2695,-0.4554,327.6944
20:27:17:976,1.4596,2.5268,12.2034,46.3868,-0.853,-0.2866,-0.4371,328.1682
20:27:17:996,1.7994,2.3617,12.5216,46.9154,-0.7797,0.0005,-0.3088,328.4031
20:27:18:017,1.8066,2.2564,12.1603,44.6287,-0.5342,0.1825,-0.2526,328.5002
20:27:18:037,2.0052,1.9573,11.0883,47.7488,-0.2165,0.053,-0.2905,328.6863
20:27:18:056,1.6582,2.0315,9.4995,46.594,0.062,-0.1436,-0.3601,329.0521
20:27:18:075,1.0887,2.0818,8.0447,47.1545,0.1695,-0.184,-0.4603,329.5294
20:27:18:098,0.4259,2.1583,7.1282,46.5115,0.0938,-0.1009,-0.5323,330.0899
20:27:18:115,-0.0144,2.5029,6.7023,45.3008,-0.054,0.0262,-0.5079,330.5763
20:27:18:136,0.0598,3.1226,6.9512,45.3729,-0.2458,0.1801,-0.332,330.9309
20:27:18:156,0.3135,3.0891,6.8722,47.2023,-0.2153,0.1544,-0.2941,331.4214
20:27:18:179,0.3039,3.2184,6.6329,45.9996,-0.1261,0.0701,-0.3063,331.6953
20:27:18:195,0.3039,3.2806,6.3673,47.5252,-0.0601,-0.0276,-0.3271,332.0253
20:27:18:215,0.3972,3.3188,6.1472,46.5834,-0.0736,-0.0484,-0.3357,332.387
20:27:18:235,0.5647,3.3499,6.4989,46.6791,-0.1823,-0.0129,-0.3479,332.7343
20:27:18:255,0.5647,3.2231,7.2048,46.2044,-0.335,-0.0019,-0.3943,333.1104
20:27:18:276,0.0144,3.4026,8.5161,46.9245,-0.4718,0.0017,-0.4554,333.575
20:27:18:301,-0.6341,3.5868,9.6526,46.2791,-0.5097,-0.0728,-0.4542,334.0764
20:27:18:315,-1.1605,3.8955,10.1982,46.4043,-0.4242,-0.14,-0.3662,334.53
20:27:18:337,-1.1916,4.1994,10.8778,46.7983,-0.3497,-0.1876,-0.2171,334.8354
20:27:18:356,-0.5671,4.0199,11.6076,47.1986,-0.3277,-0.2231,-0.0327,334.9453
20:27:18:379,-0.1053,3.6993,12.4379,47.0551,-0.302,-0.2328,0.0846,334.9234
20:27:18:397,-0.5049,3.6514,13.194,45.9041,-0.2531,-0.2622,0.076,334.9274
20:27:18:417,-1.3687,3.4935,13.1773,47.6943,-0.1224,-0.2059,0.0431,334.9496
20:27:18:439,-2.199,3.4457,12.0048,48.5969,0.0926,0.0934,0.1103,334.8335
20:27:18:459,-1.9023,3.2997,10.9089,47.3006,0.2428,0.4452,0.3106,334.3944
20:27:18:480,-1.1916,3.1298,10.9902,47.0417,0.1512,0.4464,0.4572,333.7841
20:27:18:498,-0.3493,2.601,11.7535,46.5616,0.0022,0.2094,0.4768,333.208
20:27:18:516,-0.7394,2.5627,11.7081,48.3176,0.0217,0.0237,0.3876,332.7927
20:27:18:539,-1.273,2.5579,10.4542,47.1986,0.2099,0.0066,0.296,332.5039
20:27:18:644,-1.0744,2.211,9.1262,46.6627,0.332,-0.008,0.2459,332.2726
20:27:18:645,-0.8255,2.0028,8.2672,47.8438,0.205,-0.0398,0.2043,331.9467
20:27:18:646,-0.548,1.7731,9.0951,48.9807,-0.3888,0.0225,0.1347,331.7969
20:27:18:646,-0.6772,1.718,9.0186,48.764,-0.4437,0.1129,0.1249,331.6596
20:27:18:647,-0.8782,1.7779,8.3988,47.5634,-0.3032,0.1825,0.1689,331.4654
20:27:18:662,-1.0409,1.8975,7.3747,48.7041,-0.0858,0.2057,0.2483,331.1785
20:27:18:681,-1.2467,2.0578,6.2381,49.6832,0.0999,0.2143,0.3277,330.8012
20:27:18:699,-1.2586,2.3306,5.3839,48.8449,0.1549,0.2167,0.4169,330.3387
20:27:18:716,-1.1318,2.6034,5.2642,48.8449,0.0425,0.2302,0.5208,329.7727
20:27:18:737,-0.7585,2.9049,6.1639,47.715,-0.1652,0.2265,0.5855,329.1404
20:27:18:757,-0.335,2.8738,6.8363,49.9046,-0.3069,0.1618,0.5647,328.5331
20:27:18:780,-0.2465,2.7494,7.8461,49.7972,-0.3509,0.0762,0.4426,328.0693
20:27:18:796,-0.1699,2.6967,9.3296,48.7056,-0.346,-0.1143,0.3033,327.7946
20:27:18:815,0.0526,2.4981,10.5356,49.3442,-0.2434,-0.3293,0.2031,327.7172
20:27:18:835,0.2034,2.2923,11.2822,50.3977,-0.0613,-0.4772,0.0932,327.7649
20:27:18:856,0.2728,2.0195,11.5765,49.3601,0.1194,-0.5395,-0.018,327.9664
20:27:18:882,0.39,1.7085,11.5167,50.1741,0.2465,-0.5334,-0.1035,328.2366
20:27:18:899,0.548,1.6487,11.1577,51.3142,0.2551,-0.4308,-0.1781,328.585
20:27:18:918,0.4451,1.6798,11.1218,51.3132,0.1414,-0.1705,-0.2611,328.9431
20:27:18:938,0.1747,1.7372,11.0213,52.2907,-0.0162,0.1239,-0.3344,329.2937
20:27:18:956,0.2106,1.7348,10.5452,50.7946,-0.1066,0.4012,-0.3271,329.5698
20:27:18:977,0.8351,1.6199,10.1958,52.2907,-0.1786,0.5784,-0.2636,329.7004
20:27:18:998,1.3065,1.5721,10.4782,49.175,-0.3521,0.5368,-0.2831,329.8755
20:27:19:018,1.0528,1.3041,11.6076,52.4116,-0.594,0.2925,-0.4566,330.2909
20:27:19:036,0.3613,0.9476,13.2419,52.4663,-0.8042,-0.0154,-0.6008,330.9614
20:27:19:065,0.5982,0.548,13.8999,52.4663,-0.561,-0.1999,-0.2953,331.9444
20:27:19:079,1.127,0.6843,12.457,52.0081,-0.1298,0.0201,-0.029,331.9846
20:27:19:097,1.5075,0.8279,10.5284,52.8705,0.2551,0.2057,0.1604,331.7884
20:27:19:118,1.4548,1.3161,8.9731,52.0832,0.3601,0.1679,0.2043,331.5691
20:27:19:136,1.2419,1.517,8.2768,54.4339,0.2086,-0.0007,0.1481,331.4494
20:27:19:156,0.859,1.6726,8.1978,53.4359,0.0327,-0.0887,0.0455,331.4784
20:27:19:180,0.3063,1.8185,7.9226,54.5662,-0.0076,-0.074,-0.051,331.6185
20:27:19:199,-0.0526,1.8784,7.5565,52.3389,0.0804,-0.0068,-0.106,331.8027
20:27:19:217,-0.0311,2.0435,7.2168,52.9482,0.2233,-0.0068,-0.0986,331.9666
20:27:19:236,0.6102,2.3306,7.0062,53.3208,0.365,-0.0312,-0.0693,332.1107
20:27:19:256,1.1725,2.4598,6.7525,52.7715,0.4249,-0.0337,-0.1109,332.2792
20:27:19:276,1.5051,2.5244,6.5922,53.8802,0.4029,0.0042,-0.244,332.592
20:27:19:297,1.048,2.7206,6.6808,52.8555,0.2954,0.0359,-0.4297,333.0989
20:27:19:316,0.5432,2.802,7.1689,53.7062,0.1524,0.0311,-0.558,333.7644
20:27:19:336,0.2321,2.7852,7.6881,54.0441,0.0547,0.0005,-0.5776,334.4462
20:27:19:356,0.1842,2.7015,8.2146,53.5053,-0.0003,-0.0422,-0.5544,335.1211
20:27:19:377,-0.1603,2.7374,8.8965,53.5015,-0.0479,-0.0936,-0.5263,335.7781
20:27:19:397,-1.0098,3.0532,9.3823,55.0168,-0.076,-0.0997,-0.4566,336.3909
20:27:19:415,-1.5673,3.5366,9.9278,56.0518,-0.0821,-0.0471,-0.2734,336.8014
20:27:19:436,-1.4883,3.5844,10.3657,55.5073,-0.0723,-0.0655,0.0113,336.9192
20:27:19:456,-0.5001,3.5557,10.8132,55.9277,-0.0479,-0.1791,0.2911,336.7493
20:27:19:479,0.9452,3.6969,10.873,55.5277,0.0144,-0.2169,0.4658,336.3873
20:27:19:499,1.151,3.8381,10.4303,55.4114,0.04,-0.0593,0.4193,336.0293
20:27:19:517,-0.3063,2.1488,11.787,55.9277,-0.379,-0.1424,-0.1292,335.9587
20:27:19:535,-0.5815,1.3831,13.2371,55.024,-0.6661,-0.5346,-0.2392,336.6075
20:27:19:555,-0.9595,1.3113,14.4957,54.9191,-0.748,-0.7802,-0.2281,337.1369
20:27:19:577,-1.4381,1.4142,13.9765,54.8658,-0.456,-0.5407,-0.0437,337.4137
20:27:19:597,-1.3711,1.0863,11.811,55.9104,0.183,0.053,0.3082,337.1806
20:27:19:616,-0.9428,1.4046,9.7029,56.0047,0.7731,0.3866,0.5928,336.5595
20:27:19:639,-0.0694,1.9334,7.9035,56.8512,0.9869,0.2473,0.7065,335.8411
20:27:19:661,0.9906,2.2516,7.0038,56.0621,0.778,-0.03,0.6466,335.2209
20:27:19:677,1.4859,2.1272,7.0373,54.8723,0.2978,-0.1742,0.3778,334.9261
20:27:19:698,0.7155,1.9406,7.724,55.6969,-0.1823,-0.0997,-0.0009,335.0201
20:27:19:715,-0.5001,1.9095,8.1906,56.521,-0.4401,0.0811,-0.2452,335.3553
20:27:19:735,-0.9787,1.8473,8.2265,54.7092,-0.4303,0.1935,-0.2318,335.6522
20:27:19:756,-0.9428,1.785,7.9896,56.8021,-0.2422,0.1935,-0.1084,335.8371
20:27:19:776,-0.871,2.0315,7.4584,56.3569,-0.0174,0.1251,-0.0082,335.9478
20:27:19:797,-0.682,2.199,7.0158,56.1371,0.1158,0.0421,0.0589,336.0097
20:27:19:815,-0.658,2.4167,7.0349,55.0736,0.1231,-0.0288,0.0944,336.0392
20:27:19:835,-0.5982,2.4957,7.5589,57.3836,0.0718,-0.0997,0.109,336.0631
20:27:19:855,-0.5312,2.4766,8.016,56.8027,0.0632,-0.0923,0.1212,336.0724
20:27:19:878,-0.5073,2.5436,8.5543,55.3382,0.0681,-0.0569,0.1249,336.0663
20:27:19:911,-0.146,2.5747,9.3751,54.2151,0.0779,-0.118,0.1249,336.0747
20:27:19:916,0.4834,2.2469,9.6957,56.0055,0.1573,-0.2169,0.0724,336.1328
20:27:19:942,0.67,1.8401,9.6574,53.8725,0.2392,-0.2512,-0.0718,336.7221
20:27:19:954,0.7178,1.8042,10.5571,55.3404,0.0119,-0.3452,-0.2672,337.2029
20:27:19:974,0.9476,1.6654,11.5167,55.9378,-0.2263,-0.4515,-0.2794,337.6031
20:27:19:997,1.4094,1.4764,12.4762,54.6218,-0.445,-0.432,-0.2526,338.0857
20:27:20:018,2.0076,1.0409,13.1222,54.6171,-0.5647,-0.2243,-0.1903,338.4012
20:27:20:035,2.412,0.8495,13.6726,55.7391,-0.6026,-0.0105,-0.1793,338.6248
20:27:20:055,2.5938,0.6604,14.2684,56.9102,-0.5903,0.0225,-0.2269,338.9134
20:27:20:080,2.5436,0.5671,14.2947,56.1599,-0.4926,-0.0129,-0.2856,339.2714
20:27:20:097,2.3043,0.5145,13.3208,56.5279,-0.2654,0.0616,-0.2978,339.6367
20:27:20:115,2.266,0.3637,11.6842,55.1949,0.0144,0.1886,-0.2782,339.9481
20:27:20:134,2.1057,0.3661,9.9422,54.7634,0.2038,0.2571,-0.2929,340.2534
20:27:20:155,1.8233,0.414,8.4491,54.9546,0.2526,0.2717,-0.321,340.6014
20:27:20:176,1.4118,0.4475,7.3077,54.1533,0.1964,0.2729,-0.3442,340.9974
20:27:20:197,1.0552,0.6365,6.6353,52.6322,0.0596,0.2106,-0.3638,341.3977
20:27:20:216,0.7274,0.7633,6.5204,52.2263,-0.1151,0.1105,-0.3796,341.8247
20:27:20:235,0.3206,0.9428,6.8219,52.8304,-0.2446,0.0701,-0.3967,342.308
20:27:20:254,-0.1579,1.1629,7.1904,54.6035,-0.2409,0.1263,-0.4029,342.8295
20:27:20:276,-0.3422,1.2538,7.0205,53.5668,-0.0662,0.2167,-0.3699,343.3009
20:27:20:297,-0.4331,1.6415,6.5228,55.5479,0.139,0.2387,-0.3259,343.7192
20:27:20:316,-0.1364,2.0794,6.5133,54.3775,0.1757,0.1361,-0.2892,344.1203
20:27:20:335,0.0838,2.4622,7.1019,56.5017,0.062,0.0689,-0.2953,344.5489
20:27:20:354,0.0838,2.6178,7.9011,54.736,-0.0687,0.0824,-0.3784,345.0639
20:27:20:379,-0.2584,2.7446,8.6907,53.3859,-0.1408,0.075,-0.4847,345.6987
20:27:20:398,-0.4857,2.7278,9.5258,53.8638,-0.153,0.0091,-0.5409,347.1633
20:27:20:416,-1.1151,2.6632,10.1527,53.572,-0.0381,-0.0923,-0.4921,347.8439
20:27:20:435,-1.6415,2.924,10.3801,52.2443,-0.0736,0.0665,-0.3369,348.2312
20:27:20:454,-1.7348,2.9623,11.0716,54.0394,-0.1762,0.2962,-0.0498,348.347
20:27:20:480,-1.4764,3.0293,11.7631,53.612,-0.1799,0.3988,0.2642,348.1185
20:27:20:497,-1.0002,3.1705,11.933,52.7366,-0.043,0.3206,0.5061,347.6443
20:27:20:518,-0.3159,3.0532,11.6076,54.6326,0.1842,0.2326,0.6576,346.9966
20:27:20:535,0.0574,3.1298,10.7845,51.2988,0.3687,0.2778,0.6979,346.3016
20:27:20:555,0.4331,2.8355,10.1575,55.8996,0.409,0.4135,0.6417,345.6165
20:27:20:577,0.4738,2.3809,10.3681,52.3875,0.2282,0.3572,0.4792,345.1198
20:27:20:595,-0.0431,2.0076,11.7751,54.2622,-0.1493,0.0885,0.2544,344.9215
20:27:20:615,-0.7944,2.0028,13.4166,51.7988,-0.4706,-0.2182,0.1078,344.9822
20:27:20:635,-0.8973,1.6941,13.663,51.6595,-0.4193,-0.3416,0.1225,345.0265
20:27:20:744,-0.5384,1.2945,12.2489,52.7366,-0.0027,-0.2353,0.2312,344.9366
20:27:20:745,-0.1364,1.4501,10.2676,52.2504,0.3968,-0.1681,0.2728,344.7939
20:27:20:746,0.2608,1.5075,8.7817,53.676,0.4236,-0.2157,0.2117,344.7073
20:27:20:747,0.3087,1.462,8.0758,51.89,0.1647,-0.162,0.1164,344.7312
20:27:20:748,0.0383,1.4764,7.7767,51.1843,-0.0931,0.0286,0.0309,344.7895
20:27:20:769,-0.1149,1.5338,7.3125,49.6069,-0.1982,0.1874,0.0089,344.8435
20:27:20:774,-0.2823,1.7492,7.1282,49.2008,-0.1676,0.2314,0.0223,344.8336
20:27:20:795,-0.189,1.5099,6.6808,48.2567,-0.0516,0.1031,0.026,344.851
20:27:20:815,-0.5886,1.2778,6.2572,50.3491,0.0474,-0.1241,0.0113,344.9401
20:27:20:835,-1.0696,1.5745,7.0421,52.2473,-0.0235,-0.3917,0.0345,345.1168
20:27:20:855,-1.2251,1.7994,8.1619,52.1251,-0.1176,-0.5419,0.1347,345.2295
20:27:20:878,-1.34,1.8473,7.803,49.7965,0.2233,-0.245,0.3143,344.9571
20:27:20:902,-1.2371,2.1583,7.121,50.7105,0.3369,-0.1534,0.3827,344.7288
20:27:20:915,-0.926,2.1966,7.1354,50.3529,0.2404,-0.0764,0.3913,344.4532
20:27:20:939,-0.7729,2.2469,7.9777,50.942,-0.0052,-0.0447,0.3253,344.2432
20:27:20:953,-0.7944,2.3521,9.2507,50.0115,-0.2092,-0.0312,0.219,344.1459
20:27:20:986,-0.5216,1.8592,10.0475,50.2441,-0.2544,-0.0374,0.1017,344.1439
20:27:20:996,0.0096,0.8231,10.8586,49.5501,-0.2348,-0.2365,-0.0229,344.3107
20:27:21:015,0.6293,0.67,12.3637,49.4037,-0.3155,-0.6824,-0.0974,344.6431
20:27:21:035,2.0219,0.4092,13.8018,51.31,-0.4156,-0.9781,-0.1133,345.002
20:27:21:055,2.3761,0.4451,14.4694,50.6558,-0.412,-0.8315,-0.1964,345.4168
20:27:21:077,2.0674,0.6341,14.668,48.8404,-0.3595,-0.4992,-0.321,345.9356
20:27:21:098,2.1751,0.4977,14.6536,50.111,-0.2751,-0.2744,-0.3515,346.4178
20:27:21:116,1.9932,0.5647,14.2229,50.8051,-0.1102,-0.1473,-0.3687,346.9159
20:27:21:135,1.5984,0.5886,13.34,50.8471,0.1231,-0.0019,-0.4016,347.4138
20:27:21:157,1.6008,0.414,11.945,50.1377,0.3565,0.1752,-0.3601,347.8358
20:27:21:177,1.7109,0.4403,10.4638,49.32,0.5116,0.3463,-0.2502,348.0956
20:27:21:197,1.9549,0.6485,9.2889,50.0942,0.5214,0.4623,-0.1353,348.2012
20:27:21:215,1.6941,1.0385,8.4586,50.4105,0.3748,0.5014,-0.1035,348.2622
20:27:21:235,1.3998,1.2754,8.2481,50.5411,0.1366,0.4745,-0.1328,348.3633
20:27:21:254,1.6247,1.0241,8.4108,51.5088,-0.0723,0.4025,-0.1658,348.5293
20:27:21:275,1.4524,1.0433,8.7003,49.0664,-0.1835,0.3279,-0.2086,348.7469
20:27:21:298,0.8877,1.3185,9.1549,51.1092,-0.2263,0.2864,-0.2392,349.0268
20:27:21:314,0.67,1.6176,9.9781,51.136,-0.1847,0.1923,-0.2147,349.2947
20:27:21:336,0.6006,1.5793,8.7338,50.8808,0.602,0.1496,-0.1597,349.6613
20:27:21:354,0.1699,1.9884,7.0732,52.114,1.0125,0.2265,-0.1756,349.8829
20:27:21:381,0.1819,2.3833,6.0849,51.7895,1.048,0.2326,-0.1377,350.0667
20:27:21:397,0.4427,2.6369,6.0826,51.1535,0.7547,0.2143,-0.0974,350.2016
20:27:21:415,0.7178,2.613,6.9535,50.6502,0.3662,0.2241,-0.1243,350.3452
20:27:21:434,0.3541,2.668,7.8532,51.1346,0.0742,0.3353,-0.211,350.5644
20:27:21:454,-0.5145,2.7278,8.4634,50.2441,-0.1066,0.5271,-0.2685,350.797
20:27:21:476,-1.5099,2.7063,9.1908,49.9104,-0.2397,0.7409,-0.2269,350.9384
20:27:21:498,-2.0554,2.5914,9.3416,49.6634,-0.3045,0.907,-0.0718,350.8799
20:27:21:515,-2.3139,2.5842,9.2985,49.1173,-0.3423,1.1404,0.175,350.5035
20:27:21:535,-1.8018,2.6106,10.0786,49.4211,-0.4877,1.2332,0.4303,349.8133
20:27:21:554,-1.1462,2.6225,11.3228,49.8692,-0.6282,1.0451,0.6209,348.9741
20:27:21:576,-1.1844,2.9982,12.4977,48.8047,-0.605,0.6896,0.638,348.1978
20:27:21:599,-1.5123,2.8068,13.2323,49.9761,-0.4156,0.3291,0.5122,347.6394
20:27:21:617,-2.2277,2.333,12.9332,49.8629,-0.0723,0.1593,0.3216,347.3392
20:27:21:635,-2.8642,1.7994,11.7224,49.2439,0.332,0.229,0.219,347.1421
20:27:21:656,-2.2373,1.5458,10.6744,49.795,0.5886,0.1776,0.346,346.827
20:27:21:678,-0.5743,1.4788,10.2341,49.4138,0.5813,-0.1669,0.5574,346.3132
20:27:21:695,0.189,1.7492,9.8776,52.0103,0.475,-0.4552,0.5647,345.8514
20:27:21:714,-0.0479,1.8688,9.3272,51.506,0.4212,-0.4686,0.3216,345.6747
20:27:21:735,-1.1222,1.462,8.5639,51.3663,0.3638,-0.355,-0.0009,345.8534
20:27:21:754,-2.0578,1.3854,7.9442,50.9354,0.2392,-0.228,-0.1658,346.2089
20:27:21:775,-2.1368,1.4836,7.5374,50.262,0.0608,-0.0703,-0.0803,346.4037
20:27:21:797,-1.529,1.7324,7.4704,50.0987,-0.2654,0.2375,0.1872,346.1216
20:27:21:817,-1.608,1.9167,7.7049,50.1758,-0.291,0.3035,0.2434,345.8722
20:27:21:837,-1.7707,2.2301,7.6259,50.0975,-0.1847,0.2509,0.3094,345.569
20:27:21:853,-1.6415,2.5005,7.3053,49.3061,0.0327,0.163,0.4083,345.1639
20:27:21:875,-1.139,2.7326,6.81,50.9354,0.2428,0.0176,0.5061,344.6866
20:27:21:896,-0.5671,2.9767,6.5276,52.1033,0.343,-0.1461,0.5415,344.221
20:27:21:916,-0.2608,3.2423,6.7573,49.7462,0.3015,-0.2854,0.4633,343.8811
20:27:21:948,-0.3087,3.2136,7.4082,51.1658,0.1744,-0.3599,0.3021,343.7115
20:27:21:954,-0.5982,3.1322,8.2935,51.1439,0.0632,-0.3636,0.1604,343.7219
20:27:21:982,-0.7226,2.991,9.1837,50.4868,0.0181,-0.3623,0.0932,343.7898
20:27:21:995,-0.7537,2.8929,9.7077,50.722,0.0632,-0.3953,0.0748,343.9028
20:27:22:029,-0.4331,2.9025,9.7507,49.2969,0.1537,-0.4124,0.0858,343.9963
20:27:22:044,-0.0957,2.8283,9.6144,50.5799,0.2074,-0.4112,0.0785,344.0825
20:27:22:056,-0.0191,2.6106,9.6885,52.2094,0.1402,-0.4784,-0.018,344.2927
20:27:22:074,-0.3709,2.4144,10.014,51.3413,-0.0259,-0.5896,-0.1182,344.6736
20:27:22:094,-0.7849,2.4215,10.6552,52.5041,-0.2397,-0.636,-0.1573,345.105
20:27:22:114,-0.8901,2.2421,10.9926,51.0436,-0.4254,-0.5297,-0.1048,345.4577
20:27:22:134,-0.2369,1.9478,10.9113,51.3811,-0.5378,-0.3049,0.0492,345.5452
20:27:22:155,1.1725,1.3543,11.3492,52.9413,-0.6588,-0.2536,0.1787,345.4246
20:27:22:178,2.0602,0.3829,12.8471,50.6439,-0.8469,-0.5456,0.1054,345.4614
20:27:22:195,1.4429,0.6006,14.7182,52.5264,-0.9972,-0.9879,-0.0925,345.827
20:27:22:216,1.3352,0.5838,15.1514,53.8964,-0.8408,-1.0673,-0.15,346.2636
20:27:22:235,1.474,0.2297,13.5793,54.0943,-0.3228,-0.5529,-0.0424,346.4517
20:27:22:258,2.3593,0.3565,8.2529,51.704,0.679,0.5686,0.2434,346.2757
20:27:22:277,2.6369,0.6269,6.2883,53.4429,0.5764,0.5258,0.1738,345.8289
20:27:22:294,2.3617,0.926,6.5515,53.7511,0.0657,0.2632,-0.0803,345.5042
20:27:22:315,1.5099,1.048,8.4467,53.487,-0.4523,0.0152,-0.3845,345.9165
20:27:22:334,0.5934,1.3424,9.2937,52.687,-0.5867,-0.0276,-0.5348,346.5385
20:27:22:357,0.2776,1.4405,8.9994,54.8699,-0.3301,0.1214,-0.481,347.0951
20:27:22:378,0.2249,1.6247,7.8269,53.6001,0.0914,0.2558,-0.376,347.4923
20:27:22:396,0.347,2.0411,6.743,53.4268,0.4004,0.2485,-0.3027,347.8222
20:27:22:415,0.8901,2.333,6.2429,54.3501,0.4677,0.1398,-0.2465,348.0775
20:27:22:434,1.4429,2.4526,6.2859,54.3501,0.3479,0.0311,-0.2636,348.381
20:27:22:457,1.4764,2.5412,6.8148,54.3501,0.1475,-0.0484,-0.3931,348.8378
20:27:22:479,0.926,2.5292,7.87,54.3501,-0.054,-0.0887,-0.5556,349.4888
20:27:22:494,0.2393,2.5077,9.1382,54.3501,-0.175,-0.0997,-0.6496,350.2537
20:27:22:517,0.0694,2.2158,9.7843,54.3501,-0.1456,-0.1449,-0.6289,351.0051
20:27:22:533,-0.1149,2.2708,9.813,56.4995,-0.0247,-0.1082,-0.5165,351.6252
20:27:22:554,-0.4259,2.6919,9.9446,54.2578,0.0168,0.0249,-0.343,352.0568
20:27:22:575,-0.4451,3.1202,10.349,56.3426,-0.0467,0.1935,-0.1316,352.2163
20:27:22:594,-0.2106,3.1131,10.8873,57.0194,-0.0931,0.3084,0.0431,352.1487
20:27:22:614,-0.0263,3.3117,11.3444,57.1254,-0.1066,0.3328,0.1371,351.9866
20:27:22:633,0.0359,3.4098,11.7177,55.1571,-0.1249,0.3182,0.1738,351.7955
20:27:22:653,-0.6963,3.393,12.0191,55.0966,-0.1823,0.4367,0.0822,351.6675
20:27:22:675,-1.2323,3.7041,13.4548,55.7797,-0.208,0.6602,0.0015,351.5839
20:27:22:695,-1.2251,2.613,12.8662,56.6888,0.0999,0.5894,0.1151,351.3866
20:27:22:714,-1.6654,1.9262,10.4471,58.0898,0.723,0.1044,0.0968,351.1916
20:27:22:734,-1.3232,1.7922,9.9159,57.5171,0.5348,-0.1742,0.1958,351.0966
20:27:22:759,-1.2538,1.7204,10.0881,58.9246,0.161,-0.3428,0.1946,351.0587
20:27:22:871,-1.206,1.4764,10.4614,59.1636,-0.1566,-0.4283,0.153,351.0804
20:27:22:872,-1.0098,1.4022,10.3322,60.034,-0.2727,-0.4112,0.1225,351.1337
20:27:22:873,-1.0385,1.3232,9.5043,60.6732,-0.2556,-0.2377,0.1115,351.1403
20:27:22:874,-1.0816,1.2682,8.4993,61.4255,-0.2422,-0.0154,0.1127,351.0984
20:27:22:874,-0.938,1.2132,7.8748,58.9738,-0.2923,0.0958,0.1273,351.0292
20:27:22:875,-0.7131,1.1557,7.6355,59.0757,-0.3875,0.0738,0.12,350.934
20:27:22:895,-0.7131,0.9787,7.59,60.0923,-0.4926,-0.0349,0.0577,350.9371
20:27:22:914,-0.5934,0.7155,7.748,59.4217,-0.572,-0.0777,-0.0486,351.0747
20:27:22:934,-1.4453,1.3065,8.1189,59.1675,-0.5329,0.0872,-0.1683,351.3356
20:27:22:956,-2.065,1.6558,8.0184,59.9835,-0.3839,0.2766,-0.0705,351.456
20:27:22:976,-1.8066,1.5625,7.5494,59.5551,-0.2116,0.3499,0.2068,351.2657
20:27:22:994,-1.3161,1.5099,7.3771,61.6688,-0.1017,0.4073,0.478,350.7372
20:27:23:015,-0.9045,1.6941,7.5541,59.7754,-0.0443,0.4501,0.6209,350.0407
20:27:23:034,-0.7609,2.0004,8.5926,61.1069,-0.0284,0.4916,0.638,349.3057
20:27:23:057,-0.4834,2.1057,9.655,61.1346,-0.0223,0.3939,0.5635,348.6772
20:27:23:075,-0.2058,1.8999,10.6816,60.6526,-0.0235,0.1776,0.3998,348.2673
20:27:23:095,-0.3493,1.7061,11.9426,61.3816,-0.0235,-0.0117,0.2141,348.0591
20:27:23:114,-0.3924,1.1844,12.2632,62.8717,0.0168,-0.173,0.0846,348.0334
20:27:23:135,-0.6508,0.871,12.3853,61.9568,0.0791,-0.1412,-0.0131,348.1297
20:27:23:157,-0.804,0.8997,11.8205,63.6529,0.128,0.0701,-0.0522,348.2186
20:27:23:181,-0.3589,1.3185,10.8084,63.4136,0.0681,0.8447,0.0919,347.8994
20:27:23:196,-0.0239,1.2706,11.4784,63.1392,-0.1176,1.0671,0.1103,347.618
20:27:23:214,-0.1675,1.0337,11.8756,63.1392,-0.3436,0.8691,-0.0351,347.5247
20:27:23:237,-0.6508,0.5862,11.8493,63.7458,-0.4987,0.4379,-0.2379,347.7531
20:27:23:256,-0.6078,0.079,11.1458,63.1245,-0.5048,0.1068,-0.2978,348.1051
20:27:23:275,0.1842,-0.5264,10.6457,62.038,-0.4108,-0.0166,-0.1939,348.3291
20:27:23:295,0.7489,-0.792,10.794,62.2511,-0.2874,-0.0508,-0.1634,348.4992
20:27:23:315,0.2823,-0.2417,10.6433,64.7162,-0.1994,-0.0862,-0.3015,348.8564
20:27:23:336,-0.2943,0.0885,10.069,65.034,-0.1432,0.0127,-0.4077,349.3032
20:27:23:358,-0.4546,-0.0072,9.1214,64.7607,-0.1322,0.1764,-0.3919,349.7552
20:27:23:377,-0.7298,0.1699,8.3557,63.0046,-0.164,0.2167,-0.3137,350.1361
20:27:23:397,-0.9308,0.4594,7.5015,64.1659,-0.1444,-0.008,-0.1707,350.3787
20:27:23:414,-0.7537,0.6437,6.6951,63.4513,0.0107,-0.3965,0.0247,350.4446
20:27:23:433,-0.1388,1.0098,6.5994,60.4677,0.2318,-0.5224,0.1567,350.3752
20:27:23:454,0.0933,1.6822,7.2933,66.3117,0.4176,-0.2915,0.131,350.2793
20:27:23:475,-0.1364,2.0459,7.5853,64.9591,0.5544,0.0237,-0.018,350.3335
20:27:23:493,-0.5886,2.3904,7.9035,64.9846,0.6106,0.2204,-0.1805,350.5427
20:27:23:514,-0.5432,2.5962,7.815,64.4902,0.6179,0.2106,-0.2147,350.7992
20:27:23:534,-0.0263,2.1152,7.5876,64.3695,0.5996,0.1948,-0.1817,350.9982
20:27:23:560,0.0024,2.4574,8.0016,63.8464,0.4774,0.2852,-0.1939,351.1812
20:27:23:577,-0.1842,2.4455,8.7577,65.318,0.3051,0.2754,-0.2502,351.438
20:27:23:602,-1.5027,2.6273,9.7484,63.9252,-0.0369,0.0225,-0.3344,352.1849
20:27:23:617,-1.6822,2.2493,9.8082,64.1291,-0.1041,-0.0691,-0.1609,352.4836
20:27:23:637,-2.0746,1.7731,10.1121,63.695,-0.142,0.0164,0.0895,352.3993
20:27:23:659,-2.3641,1.8544,10.5954,64.7873,-0.2446,0.0946,0.4499,351.9744
20:27:23:680,-1.9478,1.8281,11.3946,65.9574,-0.3558,0.0885,0.8188,351.1257
20:27:23:697,-1.6487,1.8497,11.3228,64.0151,-0.4083,0.0934,0.9642,350.1193
20:27:23:717,-1.4285,1.7061,11.1769,65.4512,-0.3851,0.3255,0.8922,349.1326
20:27:23:734,-1.4381,1.4596,11.0453,66.774,-0.3374,0.5295,0.7333,348.3023
20:27:23:755,-1.5266,1.3687,11.4855,65.0112,-0.368,0.3389,0.5537,347.6876
20:27:23:774,-1.7922,1.3185,11.7488,64.7071,-0.4731,-0.173,0.3644,347.3682
20:27:23:796,-1.9573,1.0504,11.5549,65.1572,-0.4767,-0.5187,0.23,347.2483
20:27:23:814,-1.6893,0.4738,11.1912,64.5519,-0.3155,-0.6299,0.1823,347.192
20:27:23:834,-1.7468,0.5192,10.8778,63.7554,-0.1505,-0.6775,0.1139,347.2063
20:27:23:858,-1.8664,0.7346,10.3011,65.5394,-0.0638,-0.6763,0.0479,347.3164
20:27:23:881,-1.6391,0.7657,9.7867,65.5394,-0.0186,-0.5541,0.0626,347.3952
20:27:23:895,-1.0887,0.8255,9.2531,64.7463,0.0278,-0.4027,0.1237,347.3702
20:27:23:913,-0.1292,0.5791,9.0401,65.7781,0.1146,-0.245,0.1628,347.2574
20:27:23:933,0.4164,0.2967,9.0066,62.386,0.2441,-0.1192,0.1054,347.1874
20:27:23:954,-0.2776,0.6341,8.8965,63.3881,0.3455,-0.0202,-0.0766,347.2709
20:27:23:974,-1.4261,1.3328,8.7888,62.2377,0.3931,0.0249,-0.2184,347.5294
20:27:23:995,-1.7492,1.3161,8.2002,63.5315,0.4786,-0.0655,-0.1512,347.749
20:27:24:015,-1.4189,1.3352,7.5326,64.826,0.6692,-0.1607,0.0394,347.8106
20:27:24:040,-0.8806,1.5458,7.1402,65.9148,0.894,-0.1583,0.2043,347.6774
20:27:24:059,-0.7585,2.065,6.9559,63.3426,1.0174,-0.0361,0.2459,347.4656
20:27:24:076,-0.7537,2.546,6.9559,64.488,0.9453,0.0958,0.197,347.2868
20:27:24:099,-0.5623,2.7805,7.7097,63.7718,0.3589,0.1019,-0.0705,347.2304
20:27:24:115,-0.8255,2.589,8.8199,64.6842,-0.0113,-0.063,-0.2966,347.6154
20:27:24:138,-0.7825,2.1296,10.1862,63.6178,-0.302,-0.3318,-0.4847,348.2498
20:27:24:158,-0.5791,1.6367,11.4688,63.2823,-0.4816,-0.581,-0.6154,349.0822
20:27:24:173,-0.7298,1.1294,12.3063,62.4366,-0.5855,-0.6641,-0.7303,350.0631
20:27:24:192,-1.3376,0.7298,12.5982,64.1859,-0.6295,-0.4894,-0.8011,351.0701
20:27:24:213,-2.0578,0.5025,12.5336,62.3331,-0.6197,-0.1925,-0.69,351.9263
20:27:24:233,-2.1416,0.323,12.3709,63.9526,-0.5745,0.0836,-0.3515,352.3781
20:27:24:257,-1.4429,0.0742,12.4044,61.5007,-0.4841,0.29,0.1054,352.2757
20:27:24:275,-0.3733,-0.0168,12.6987,63.5366,-0.3582,0.4025,0.4169,351.7679
20:27:24:294,0.1244,0.1005,12.4977,64.4001,-0.2434,0.3878,0.4047,351.288
20:27:24:314,-0.0814,0.2871,11.7703,63.1214,-0.1615,0.3731,0.2251,350.9944
20:27:24:334,-0.1292,0.2584,10.8945,64.9799,-0.1078,0.4098,0.1066,350.8411
20:27:24:358,0.0072,0.3757,9.9852,62.0172,-0.0662,0.4159,0.0834,350.7112
20:27:24:377,0.1627,0.4092,9.2411,63.6204,-0.0406,0.3194,0.0431,350.6241
20:27:24:394,0.1938,0.5049,8.4897,62.0172,-0.0565,0.108,-0.1048,350.7317
20:27:24:416,-0.2177,0.5025,8.0853,62.4366,-0.1359,-0.0569,-0.3418,351.1403
20:27:24:433,-0.7226,0.7083,8.0303,62.2404,-0.2654,-0.0813,-0.5275,351.7575
20:27:24:458,-1.017,0.7609,7.8485,62.2404,-0.3448,-0.1058,-0.5397,352.9526
20:27:24:477,-1.1055,0.9308,7.1617,61.6187,-0.2226,-0.1119,-0.2758,353.3124
20:27:24:495,-0.938,1.3495,7.2096,63.7766,-0.0601,-0.162,-0.0852,353.4649
20:27:24:516,-0.8064,1.6487,7.2144,61.8333,0.1952,-0.1669,0.076,353.4462
20:27:24:534,-0.7513,2.0267,7.4465,62.0737,0.3907,-0.0007,0.1212,353.3615
20:27:24:556,0.0909,2.4024,7.8317,63.0377,0.4701,-0.0141,0.0785,353.255
20:27:24:575,1.0959,2.455,8.1667,59.3308,0.4835,-0.1669,0.0052,353.2665
20:27:24:598,1.2491,2.3641,8.9731,60.9493,0.464,-0.2059,-0.1561,353.4492
20:27:24:614,0.5695,2.4311,9.7197,61.3213,0.4359,-0.289,-0.4053,353.9369
20:27:24:633,0.0335,2.2229,9.521,59.8493,0.398,-0.4454,-0.624,354.7061
20:27:24:656,-1.2945,2.6201,10.7988,61.2161,0.1072,-0.3,-0.6973,355.5718
20:27:24:674,-1.1342,2.2947,11.1218,60.4461,0.0119,-0.3697,-0.5397,356.2779
20:27:24:694,-0.9428,2.2205,12.0718,60.6743,-0.0271,-0.3477,-0.3418,356.7585
20:27:24:714,-0.9523,2.4957,12.5408,63.0989,0.0058,-0.256,-0.1854,357.0547
20:27:24:733,-1.0074,2.3402,12.4834,61.3198,0.1219,-0.0435,-0.0168,357.1365
20:27:24:753,-1.2179,2.132,11.7799,60.8397,0.2746,0.2827,0.1726,356.9507
20:27:24:773,-1.3663,2.4239,11.0333,61.1429,0.398,0.5771,0.39,356.4825
20:27:24:794,-1.0504,2.5029,10.5739,60.4956,0.4432,0.5637,0.5403,355.8208
20:27:24:814,-1.0528,2.3306,10.4399,59.0552,0.3956,0.2937,0.5024,355.2587
20:27:24:834,-1.2586,2.0842,10.7103,59.662,0.3027,-0.063,0.3558,354.9229
20:27:24:860,-1.3974,1.8568,10.5452,60.4597,0.2636,-0.4002,0.2471,354.7971
20:27:24:987,-1.5003,1.6917,9.9398,60.3655,0.3235,-0.4796,0.2422,354.7154
20:27:24:988,-1.1773,1.6271,9.265,60.9481,0.3894,-0.4332,0.3057,354.5279
20:27:24:988,-0.6365,1.7372,8.8271,59.4999,0.3455,-0.443,0.3155,354.3443
20:27:24:996,-0.4451,1.9573,8.7601,59.234,0.1622,-0.4662,0.197,354.263
20:27:24:997,-0.067,1.6917,9.064,61.7856,-0.0846,-0.4515,-0.0131,354.4187
20:27:24:997,-0.0215,1.3759,8.9348,60.6413,-0.2703,-0.3709,-0.222,354.7722
20:27:24:997,-0.1388,0.8399,8.7936,61.0495,-0.2971,-0.2585,-0.277,355.1607
20:27:25:014,-0.5001,1.4668,9.0927,59.1307,-0.0858,-0.3672,0.0137,355.4588
20:27:25:032,-0.4834,1.785,9.0856,59.5827,0.1182,-0.377,0.2373,355.4072
20:27:25:054,-0.3996,1.9095,8.327,58.4523,0.3785,-0.2548,0.3546,355.132
20:27:25:078,-0.5934,1.9789,7.1569,58.732,0.6142,-0.0398,0.423,354.7393
20:27:25:095,-0.8327,2.2899,6.2812,59.7757,0.7242,0.2155,0.4926,354.2178
20:27:25:113,-0.9452,2.9049,6.2596,58.3783,0.5984,0.466,0.5611,353.5565
20:27:25:133,-0.2991,3.2303,7.0899,58.4688,0.2844,0.5478,0.588,352.8228
20:27:25:158,0.4116,3.125,8.327,58.4688,-0.0308,0.4464,0.4988,352.1609
20:27:25:174,0.6317,2.8833,9.2937,58.0855,-0.2031,0.3169,0.274,351.7694
20:27:25:192,0.536,2.4694,10.3346,59.2518,-0.2324,0.2204,0.0186,351.6917
20:27:25:212,0.5958,2.1894,11.7272,58.1598,-0.2275,0.0152,-0.1866,351.8891
20:27:25:233,0.9165,1.462,12.6221,57.4337,-0.2226,-0.2829,-0.3454,352.3091
20:27:25:253,0.6939,0.8997,12.9165,58.3822,-0.1701,-0.3257,-0.4859,352.9054
20:27:25:275,0.0574,1.1653,12.6963,57.0529,-0.1163,-0.1168,-0.5531,353.5472
20:27:25:294,-0.1077,1.1031,12.0311,58.5506,-0.0882,0.13,-0.4444,354.0048
20:27:25:313,0.146,0.9547,11.6363,58.731,-0.0553,0.3242,-0.2392,354.1976
20:27:25:332,0.5886,1.06,11.0309,59.4018,-0.0149,0.3548,-0.1023,354.2235
20:27:25:352,0.9188,1.0863,10.617,59.8922,0.0229,0.3267,-0.1133,354.2529
20:27:25:372,0.6652,1.084,10.1121,57.3986,0.0119,0.3206,-0.2636,354.4549
20:27:25:392,0.4379,0.7537,9.7292,58.4694,-0.0687,0.3157,-0.398,354.817
20:27:25:412,0.1579,0.6078,9.6191,57.415,-0.2189,0.2436,-0.459,355.2616
20:27:25:433,-0.0215,0.8782,9.3416,59.1772,-0.3753,0.1178,-0.4615,355.7487
20:27:25:456,0.0144,1.0313,8.8606,56.9445,-0.4621,0.0408,-0.4041,356.1802
20:27:25:480,-0.0168,0.8973,8.918,59.1138,-0.4682,-0.0618,-0.4236,357.0352
20:27:25:498,-0.6054,1.2825,8.9133,58.6556,-0.4792,-0.1058,-0.4823,357.6357
20:27:25:513,-0.6724,1.2825,8.3701,59.529,-0.4242,-0.0703,-0.4468,358.1848
20:27:25:534,-0.7705,1.4668,7.6905,57.3379,-0.269,0.0286,-0.343,358.5978
20:27:25:558,-0.6102,1.8736,7.3005,57.1233,-0.0601,0.1019,-0.1939,358.835
20:27:25:577,-0.347,2.2564,7.3196,59.7373,0.1231,0.1141,-0.0999,358.9565
20:27:25:596,-0.213,2.6201,7.6068,59.5394,0.216,0.0506,-0.1377,359.1331
20:27:25:612,-0.1053,2.7829,7.9322,58.2637,0.2148,-0.0264,-0.2562,359.4392
20:27:25:632,0.0909,2.6321,8.394,59.9607,0.1378,0.0188,-0.3735,359.8676
20:27:25:653,-0.1412,2.5795,8.9779,61.0896,-0.0101,0.1752,-0.4432,0.331
20:27:25:672,-0.536,2.4072,9.5378,58.4345,-0.1566,0.2619,-0.4322,0.8059
20:27:25:693,-1.0552,2.5364,10.2221,58.4282,-0.2373,0.2277,-0.3723,1.2035
20:27:25:713,-1.34,2.7661,10.6433,60.6198,-0.2067,0.1496,-0.2892,1.5409
20:27:25:733,-1.2299,2.6871,11.0357,60.1891,-0.0638,0.1141,-0.1695,1.7653
20:27:25:756,-1.1653,2.7302,11.2606,60.8808,0.0901,0.053,-0.0559,1.859
20:27:25:774,-0.8112,2.8044,11.4497,61.0708,0.1989,-0.03,0.065,1.8539
20:27:25:792,-0.6317,2.5627,11.5813,60.6784,0.2673,0.0188,0.1567,1.7265
20:27:25:813,-0.7633,2.5053,11.2056,61.2988,0.3113,0.1764,0.1872,1.5472
20:27:25:833,-1.2108,2.4455,10.5978,59.6278,0.3381,0.3414,0.2324,1.2856
20:27:25:859,-1.3208,2.2493,10.6098,60.5698,0.2978,0.4073,0.2666,0.9965
20:27:25:877,-1.2945,1.8209,11.8301,59.2463,0.1084,0.1178,0.1909,0.8402
20:27:25:898,-1.5338,1.9406,12.6868,60.78,-0.1383,-0.5981,-0.0058,1.4921
20:27:25:916,-1.6367,1.0098,10.7797,60.0811,0.0718,-0.6201,-0.0327,1.7757
20:27:25:934,-1.7635,0.938,9.6957,61.144,0.2502,-0.1583,0.1005,1.7475
20:27:25:954,-1.206,1.3998,8.8726,60.1409,0.3186,-0.1485,0.2703,1.5821
20:27:25:979,-0.4451,1.5362,8.2385,60.3502,0.3345,-0.3672,0.4071,1.2924
20:27:26:000,-0.1531,1.6917,7.8485,59.1295,0.2758,-0.4442,0.3216,1.112
20:27:26:012,-0.5288,1.8233,7.4871,58.7497,0.128,-0.3587,0.0883,1.1677
20:27:26:032,-1.017,1.5386,7.1306,59.7199,-0.0357,-0.1913,-0.062,1.3766
20:27:26:052,-1.5553,1.4285,6.7406,61.3272,-0.1188,-0.0484,-0.0449,1.5515
20:27:26:074,-2.0172,1.6343,6.6114,58.9476,-0.109,0.0481,0.1066,1.5723
20:27:26:093,-1.8257,2.0052,6.8866,60.2938,-0.0577,0.0567,0.3607,1.3037
20:27:26:114,-0.9093,2.3186,7.3149,61.1157,0.0022,0.003,0.5892,0.7697
20:27:26:132,-0.2728,2.5986,7.937,62.8541,0.0266,0.0164,0.5989,0.1978
20:27:26:153,-0.0646,2.723,8.6548,62.781,0.0266,-0.0007,0.5,359.7322
20:27:26:174,0.1077,2.5603,9.0832,62.1275,0.0498,-0.129,0.4438,359.359
20:27:26:193,-0.0502,2.1272,9.6742,60.6426,0.0156,-0.0911,0.2593,359.167
20:27:26:214,-0.4235,1.9047,10.5763,62.4315,-0.0821,0.0188,0.0235,359.2149
20:27:26:237,-0.4522,1.7563,11.3252,60.8147,-0.1517,0.0005,-0.0424,359.3604
20:27:26:253,0.2441,1.1007,12.1196,60.6938,-0.1212,-0.0752,0.0162,359.4326
20:27:26:273,0.4642,0.6508,12.6006,60.8147,-0.0284,-0.0887,0.0199,359.4799
20:27:26:292,0.1316,0.5384,12.725,61.9254,0.0718,0.0127,0.0052,359.5466
20:27:26:312,-0.0263,0.7083,12.3733,61.2453,0.1561,0.1874,0.1054,359.4713
20:27:26:334,0.1268,1.0457,11.6387,61.542,0.1952,0.3548,0.2825,359.1458
20:27:26:355,0.8447,0.9093,10.8515,61.447,0.1793,0.4635,0.4255,358.6081
20:27:26:375,1.4501,0.7872,10.5332,61.4027,0.128,0.4464,0.4328,358.045
20:27:26:399,1.6199,0.8327,10.8754,60.2831,-0.1273,-0.1363,-0.0363,357.7116
20:27:26:413,1.0744,0.4714,10.7653,60.8531,-0.2165,-0.1815,-0.3332,358.1396
20:27:26:433,0.7872,-0.0024,10.4662,61.542,-0.2556,-0.0972,-0.4688,358.7266
20:27:26:456,0.9595,-0.1842,10.2939,61.542,-0.2703,-0.0655,-0.4456,359.2513
20:27:26:475,0.926,0.0742,9.9828,60.8602,-0.2923,-0.14,-0.3919,359.7329
20:27:26:491,0.8566,0.457,9.4564,61.754,-0.3155,-0.118,-0.3552,0.1713
20:27:26:512,0.7394,0.6126,8.8223,60.5701,-0.3301,0.0421,-0.3442,0.583
20:27:26:532,0.3613,0.615,8.1619,59.0742,-0.3252,0.2253,-0.3577,0.9977
20:27:26:554,-0.1555,0.8351,7.7001,59.921,-0.3057,0.284,-0.3687,1.3984
20:27:26:572,-0.2106,1.2012,7.8078,59.45,-0.2617,0.2045,-0.3369,1.7912
20:27:26:593,0.3159,1.5075,8.1523,60.2313,-0.1615,0.1911,-0.3149,2.1411
20:27:26:612,0.792,1.6439,7.9561,58.7668,0.0266,0.4342,-0.376,2.5105
20:27:26:632,0.3829,1.8808,7.3675,59.5563,0.2612,0.8117,-0.4957,2.9445
20:27:26:652,-0.4044,2.4335,6.9823,59.0751,0.3968,0.9718,-0.5776,3.4671
20:27:26:675,-0.603,2.8833,6.8889,59.3769,0.3552,0.7079,-0.5922,4.0395
20:27:26:692,-0.4618,2.8857,7.2048,59.2775,0.2123,0.3634,-0.6069,4.6908
20:27:26:712,-0.6532,2.6465,7.6786,58.5469,0.0205,0.141,-0.6973,5.494
20:27:26:732,-1.1605,2.6201,8.6572,57.5297,-0.2067,0.1141,-0.7999,6.4135
20:27:26:753,-1.8784,2.8475,9.8513,57.7631,-0.4156,0.1715,-0.8195,7.3734
20:27:26:773,-2.5268,2.8666,10.6122,58.7766,-0.5146,0.1948,-0.7119,8.2565
20:27:26:793,-2.8929,2.7924,11.1242,59.41,-0.4633,0.2387,-0.4749,8.8669
20:27:26:815,-2.7541,2.7254,11.6554,58.5469,-0.3082,0.3084,-0.1671,9.1404
20:27:26:833,-2.1368,2.656,12.0909,56.3838,0.0669,0.3328,0.3204,9.067
20:27:26:855,-1.9836,2.5651,11.6483,56.2126,0.2318,0.4037,0.4511,8.6562
20:27:26:874,-1.73,2.4622,10.9639,56.8936,0.3675,0.4611,0.5146,8.1751
20:27:26:897,-1.2251,2.4096,10.3944,56.9748,0.4114,0.4159,0.5085,7.0355
20:27:26:912,-0.5719,1.9884,10.7916,57.661,0.2893,0.1593,0.3668,6.6298
20:27:26:932,-1.3376,1.7133,11.8445,58.1365,-0.0455,-0.3855,-0.0437,6.8245
20:27:26:954,-3.0078,1.5936,12.9428,54.6924,-0.4437,-0.9317,-0.4786,7.6551
20:27:26:974,-3.9242,1.3161,12.7059,55.4208,-0.5977,-1.1479,-0.5299,8.6034
20:27:27:079,-3.8118,0.469,10.873,55.5891,-0.3949,-1.0416,-0.1426,9.1431
20:27:27:079,-2.8259,0.1244,9.521,56.2852,-0.0101,-0.7179,0.3888,9.0093
20:27:27:080,-2.0339,0.7609,8.9994,55.6478,0.3931,-0.4173,0.7407,8.4234
20:27:27:081,-1.3783,1.4572,8.4132,54.6139,0.7242,-0.2658,0.8152,7.7084
20:27:27:081,-0.9332,1.8281,7.4225,54.5814,0.861,-0.2487,0.6661,7.1202
20:27:27:095,-0.9476,1.6726,6.5539,51.6793,0.7499,-0.2854,0.3656,6.8879
20:27:27:112,-1.5194,1.3831,6.2812,52.4276,0.4322,-0.2829,0.1041,6.9127
20:27:27:132,-2.0195,1.5529,6.4965,51.6916,0.0877,-0.2231,0.0638,7.0301
20:27:27:151,-1.7779,1.5147,7.0038,55.4472,-0.0894,-0.1913,0.23,6.9301
20:27:27:172,-1.2371,1.5864,7.4608,55.2641,-0.0601,-0.2145,0.4108,6.6706
20:27:27:193,-1.1294,1.9573,7.9107,51.2336,0.1353,-0.2292,0.4719,6.3178
20:27:27:213,-1.0672,2.2158,8.0949,51.1759,0.3503,-0.3208,0.4389,6.0343
20:27:27:233,-0.7155,2.1679,8.0662,51.1545,0.4762,-0.5199,0.3583,5.8636
20:27:27:260,-0.3278,1.9884,8.284,53.5477,0.4957,-0.625,0.2239,5.845
20:27:27:275,-0.0885,1.6319,8.6453,52.0954,0.3919,-0.5615,0.0907,5.9875
20:27:27:295,0.5001,1.3543,10.4662,51.4582,-0.0577,-0.4979,-0.0962,6.4209
20:27:27:313,1.4596,0.8519,11.2008,49.6339,-0.1982,-0.6482,-0.1536,6.7707
20:27:27:331,1.8161,0.5408,11.2463,52.3946,-0.1811,-0.6397,-0.2269,7.1954
20:27:27:352,1.5506,0.6389,10.9615,50.797,-0.1615,-0.3636,-0.2208,7.5497
20:27:27:376,1.0816,1.1031,10.6241,50.5173,-0.2324,-0.0862,-0.0742,7.7289
20:27:27:390,1.3041,1.2945,10.5476,51.1995,-0.3533,0.0091,0.1005,7.6655
20:27:27:411,1.7587,0.993,10.6505,51.182,-0.4523,0.0103,0.1286,7.5498
20:27:27:432,1.9143,0.5073,11.1984,51.1858,-0.5207,-0.1131,-0.0498,7.6476
20:27:27:452,1.517,0.2991,11.787,51.5842,-0.5928,-0.3807,-0.3381,8.1353
20:27:27:473,0.8853,0.0838,12.2225,50.797,-0.6441,-0.4442,-0.5226,8.8904
20:27:27:494,0.4116,-0.1172,12.2297,50.7731,-0.6258,-0.2414,-0.5055,9.6101
20:27:27:512,0.5192,-0.1866,12.1795,49.1807,-0.5268,-0.0141,-0.3247,10.0841
20:27:27:531,1.0098,-0.0981,11.665,50.0927,-0.357,0.0762,-0.1243,10.273
20:27:27:552,1.2706,0.1244,10.9472,50.0778,-0.2287,0.086,-0.0974,10.4336
20:27:27:575,1.1055,0.39,10.2556,50.7685,-0.2483,0.1862,-0.2171,10.718
20:27:27:591,0.5623,0.5432,9.6335,48.6622,-0.3558,0.3939,-0.3247,11.1128
20:27:27:613,-0.1364,0.8758,8.9348,43.8364,-0.4071,0.5564,-0.3515,11.5392
20:27:27:629,-0.5432,1.2179,8.2265,47.4615,-0.3619,0.637,-0.2746,11.8494
20:27:27:652,-0.3852,1.4644,7.7886,46.0157,-0.2348,0.6651,-0.1365,12.0145
20:27:27:674,0.1149,1.663,7.3866,45.3398,-0.0467,0.5674,0.0015,11.9917
20:27:27:695,0.5312,1.9525,7.3053,46.3205,0.1585,0.3682,0.0712,11.9074
20:27:27:711,0.658,2.3186,7.2861,43.6229,0.3113,0.1825,0.0382,11.8268
20:27:27:732,0.6221,2.5436,7.322,45.1392,0.376,0.1019,-0.0388,11.8488
20:27:27:755,0.2345,2.802,7.7097,46.186,0.2746,0.1862,-0.2135,11.9792
20:27:27:776,0.2369,2.7805,8.1835,46.681,0.1439,0.2412,-0.299,12.4957
20:27:27:793,0.4116,2.7757,8.9611,45.6127,0.0107,0.3035,-0.3955,12.9138
20:27:27:812,0.3302,2.5747,9.5737,45.8087,-0.0956,0.3389,-0.4346,13.3157
20:27:27:830,-0.6341,2.6848,10.1815,45.8857,-0.1542,0.4916,-0.3955,13.7438
20:27:27:852,-1.4429,2.5316,10.94,45.0644,-0.2189,0.7103,-0.3357,14.1318
20:27:27:875,-1.7204,2.0818,11.799,44.8382,-0.2898,0.736,-0.2245,14.3932
20:27:27:903,-2.1942,2.1057,12.5719,44.2056,-0.2788,0.6529,-0.051,14.4689
20:27:27:910,-2.4287,1.943,12.6772,44.1172,-0.1481,0.6016,0.1762,14.3275
20:27:27:931,-2.4766,1.8784,11.9857,44.2373,0.0413,0.6089,0.3998,13.9309
20:27:27:954,-2.2995,1.8209,11.3874,42.8061,0.1585,0.637,0.5965,13.3096
20:27:27:974,-1.8736,1.4501,11.2822,44.0954,0.1378,0.499,0.7492,12.5386
20:27:27:991,-1.9549,1.2586,11.6554,41.3846,0.0217,0.1239,0.77,11.7825
20:27:28:011,-2.2181,0.9619,12.1029,39.9333,-0.0736,-0.2683,0.7113,11.1882
20:27:28:029,-2.4048,0.7059,11.9857,42.1694,-0.0027,-0.4491,0.7492,10.5664
20:27:28:052,-2.0411,0.4211,11.1075,42.9098,0.249,-0.4747,0.9141,9.7888
20:27:28:072,-1.3926,0.5264,10.1097,41.3846,0.5556,-0.4686,1.0986,8.7815
20:27:28:092,-0.9236,0.9954,9.2243,40.0242,0.7303,-0.3904,1.1842,7.6585
20:27:28:112,-0.5671,1.1797,8.3127,39.4963,0.6875,-0.2573,1.1426,6.5406
20:27:28:130,-0.4068,1.2849,7.7336,40.6966,0.4847,-0.107,1.0143,5.5587
20:27:28:152,-0.3254,1.34,7.4178,40.0366,0.2257,-0.0154,0.8714,4.6885
20:27:28:176,-0.6508,1.5864,7.6235,40.6363,0.0229,0.0054,0.7504,3.9672
20:27:28:195,-1.0217,1.7037,7.9155,39.3675,-0.0785,-0.1143,0.6552,3.3685
20:27:28:213,-0.6293,1.4572,7.992,40.0662,0.0535,-0.2169,0.5513,2.3358
20:27:28:232,-0.6987,1.7013,7.9418,38.6106,0.194,-0.1302,0.5146,1.9604
20:27:28:250,-0.9739,2.0219,7.8485,39.3481,0.3064,-0.0471,0.5049,1.4633
20:27:28:276,-0.658,2.0818,7.8102,37.169,0.3846,-0.0325,0.5415,0.9851
20:27:28:292,-0.2513,1.9884,8.0877,35.9103,0.4176,-0.0374,0.5415,0.4516
20:27:28:312,0.079,2.0267,8.4156,37.4059,0.3931,0.0139,0.4621,0.0025
20:27:28:333,0.1077,2.1152,9.2291,37.9769,0.3174,0.0591,0.3583,359.6723
20:27:28:359,0.146,2.0387,10.2437,38.578,0.1989,-0.0276,0.2349,359.4733
20:27:28:372,0.3374,1.6917,11.1697,35.1718,0.0852,-0.2267,0.0724,359.4694
20:27:28:390,0.615,1.2993,11.6913,36.5525,0.0095,-0.4246,-0.0791,359.6734
20:27:28:410,0.7729,0.9882,11.9402,36.6794,-0.0467,-0.4711,-0.1927,0.0041
20:27:28:430,0.6604,1.1198,11.854,35.4279,-0.0992,-0.3745,-0.2404,0.3832
20:27:28:452,0.7035,1.2514,11.464,37.3669,-0.1139,-0.2035,-0.1939,0.687
20:27:28:472,1.0457,1.0457,11.208,36.8186,-0.0992,-0.041,-0.1121,0.8152
20:27:28:493,1.1581,1.0935,11.1673,34.016,-0.0956,0.0164,-0.0864,0.8918
20:27:28:522,1.0696,1.1031,10.7653,35.4574,-0.098,-0.0141,-0.1255,1.0244
20:27:28:531,1.1844,1.0816,10.337,37.2201,-0.1151,0.0298,-0.2025,1.2315
20:27:28:550,1.8568,0.6006,10.1527,36.9564,-0.1371,0.0139,-0.2562,1.4921
20:27:28:573,2.065,0.2513,10.55,35.076,-0.1811,-0.0899,-0.3894,1.8748
20:27:28:597,1.8042,0.3733,10.5667,34.0868,-0.2715,-0.2121,-0.6228,2.5632
20:27:28:615,0.9476,0.6413,10.2173,35.6078,-0.3509,-0.2011,-0.7779,3.5154
20:27:28:630,0.5121,0.6867,9.722,34.4921,-0.3607,-0.0642,-0.7889,4.4006
20:27:28:651,0.5384,0.3302,8.8774,34.4199,-0.2617,0.0054,-0.7009,5.2105
20:27:28:671,-1.1701,1.1127,7.7743,34.5939,-0.2263,0.2461,-0.7266,6.7906
20:27:28:696,-0.603,1.517,7.6259,36.1525,-0.1542,0.086,-0.5544,7.4838
20:27:28:712,0.213,1.5123,7.1569,34.9245,0.117,-0.1889,-0.299,7.9138
20:27:28:731,0.268,1.998,6.4271,36.6208,0.4261,-0.2866,-0.2917,8.3597
20:27:28:752,0.012,2.6345,5.9605,33.3533,0.5287,-0.3074,-0.4713,8.9885
20:27:28:773,-0.201,2.8044,6.4152,34.8137,0.3137,-0.2072,-0.6252,9.7826
20:27:28:790,-0.4666,2.8881,7.7216,35.2724,-0.0418,-0.0374,-0.6716,10.6096
20:27:28:812,-0.5001,2.6776,9.265,36.1148,-0.2947,0.0433,-0.6496,11.3887
20:27:28:830,-0.7849,2.5938,10.0594,34.1636,-0.3546,0.0091,-0.6484,12.2291
20:27:28:853,-1.4883,2.6991,10.7175,35.4577,-0.324,0.0921,-0.6362,13.021
20:27:28:876,-2.4455,2.9169,11.3372,32.135,-0.3069,0.2571,-0.5458,13.761
20:27:28:895,-2.4694,2.8211,12.1603,34.8002,-0.2874,0.3401,-0.3137,14.2198
20:27:28:911,-1.7515,2.723,12.6556,36.4037,-0.1689,0.3304,0.0296,14.2781
20:27:28:935,-1.1677,2.9049,12.5336,35.9708,0.0584,0.3939,0.3558,13.94
20:27:28:957,-0.7657,2.991,11.8229,34.6492,0.3003,0.5454,0.5733,13.3039
20:27:28:974,-0.8806,3.1633,10.9472,36.1034,0.442,0.6786,0.6405,12.5707
20:27:28:990,-0.7633,2.9551,10.6337,33.8983,0.4249,0.6321,0.5977,11.8985
20:27:29:012,-0.7394,2.4622,11.4544,34.8805,0.2453,0.3401,0.4291,11.4404
20:27:29:032,-1.1725,1.8161,12.737,35.3344,0.0156,-0.1339,0.1664,11.4261
20:27:29:049,-2.2899,1.7204,13.0002,35.098,-0.0919,-0.4943,0.0052,11.7438
20:27:29:074,-2.7446,1.4357,11.8588,36.8609,0.0388,-0.3599,0.1701,11.4777
20:27:29:095,-1.5218,1.4189,8.7195,35.7896,0.6802,0.3096,1.0302,10.4732
20:27:29:163,-0.6126,1.9693,7.7312,34.1803,0.7792,0.2229,1.156,9.2889
20:27:29:163,0.1484,2.1679,7.1067,35.4577,0.6314,0.1044,0.9911,8.1644
20:27:29:164,0.1627,2.0578,6.9009,35.526,0.2917,0.0445,0.6331,7.5679
20:27:29:173,-0.5695,1.718,7.0612,35.4953,-0.0601,0.0457,0.3143,7.3517
20:27:29:190,-1.407,1.5745,7.1402,37.0202,-0.2568,0.0323,0.1726,7.3391
20:27:29:210,-1.7563,1.6893,7.0373,36.8753,-0.2678,0.0543,0.2422,7.2705
20:27:29:229,-1.8233,1.7659,7.0612,34.2889,-0.1554,0.1398,0.4193,6.9769
20:27:29:250,-1.4022,1.9549,7.0158,36.4002,0.0009,0.1508,0.588,6.4414
20:27:29:273,-0.8088,2.1918,6.7813,34.3674,0.1488,0.1129,0.6991,5.796
20:27:29:289,-0.481,2.4383,6.6832,35.6901,0.2294,0.0824,0.7248,5.0939
20:27:29:309,-0.347,2.68,7.0325,34.6775,0.1915,-0.0166,0.6588,4.4661
20:27:29:329,-0.4164,2.7637,7.8532,36.4168,0.062,-0.1375,0.5098,4.0512
20:27:29:350,-0.4116,2.5484,8.9324,34.9089,-0.0626,-0.1461,0.3375,3.8254
20:27:29:369,-0.4331,2.4383,9.9015,32.6117,-0.131,-0.107,0.1994,3.7324
20:27:29:391,-0.2991,2.211,10.8275,34.4567,-0.1628,-0.1033,0.1103,3.7383
20:27:29:409,-0.2082,2.077,11.72,37.3149,-0.1847,-0.1314,0.0443,3.827
20:27:29:428,-0.1005,1.7946,12.3278,37.3149,-0.1835,-0.1986,-0.0315,3.9839
20:27:29:450,0.067,1.5147,12.4953,35.5539,-0.175,-0.2585,-0.1353,4.2585
20:27:29:469,0.1172,1.3472,12.5145,34.7015,-0.1689,-0.2084,-0.2049,4.5909
20:27:29:489,0.2058,1.4453,12.1675,35.671,-0.1432,-0.0887,-0.1671,4.8651
20:27:29:509,0.6891,1.3232,11.7416,37.4911,-0.0638,0.0579,-0.0559,4.9234
20:27:29:529,0.9141,1.3974,11.2032,34.7743,0.0425,0.1422,0.0101,4.879
20:27:29:553,0.9284,1.4979,10.4399,35.7924,0.1683,0.1178,0.0027,4.8448
20:27:29:569,0.8782,1.4979,9.5737,36.362,0.2612,0.0433,-0.0766,4.9206
20:27:29:590,1.6343,0.7585,9.7699,35.7539,-0.0088,-0.1119,-0.4138,5.1317
20:27:29:609,1.0098,0.7872,10.459,35.7539,-0.3362,-0.1485,-0.668,5.4979
20:27:29:632,-0.0861,0.6652,10.8562,35.7539,-0.6233,-0.0447,-0.8451,6.2582
20:27:29:651,-0.7466,0.5647,10.6241,35.8482,-0.737,0.0714,-0.8463,8.2355
20:27:29:675,-0.7849,0.5001,10.1695,35.8482,-0.6759,0.1153,-0.7058,9.0806
20:27:29:691,-0.9978,0.8183,9.4756,36.8457,-0.5024,0.1202,-0.5226,9.7365
20:27:29:709,-1.1438,1.1653,8.4299,36.1915,-0.2751,0.1434,-0.332,10.1945
20:27:29:729,-0.9428,1.4213,7.3172,37.333,-0.0418,0.2009,-0.1365,10.4083
20:27:29:748,-0.5145,1.6941,6.5181,36.0336,0.161,0.2473,0.0211,10.4347
20:27:29:769,-0.1316,2.2732,6.0132,37.8514,0.2795,0.2351,0.0638,10.3351
20:27:29:790,0.1627,2.4837,5.9533,36.7985,0.2783,0.1227,-0.0339,10.3907
20:27:29:810,0.0981,2.735,6.53,37.9374,0.161,-0.0031,-0.2416,10.6803
20:27:29:829,-0.1986,2.8666,7.4967,35.7027,-0.0125,-0.0948,-0.4346,11.2313
20:27:29:850,-0.1507,2.7852,8.5519,37.6302,-0.1456,-0.1656,-0.5311,11.883
20:27:29:871,-0.0909,2.6512,9.4971,37.7374,-0.1896,-0.2023,-0.6179,12.6685
20:27:29:891,-0.6293,2.7924,9.9876,37.7708,-0.1591,-0.1107,-0.7046,13.4886
20:27:29:910,-1.7109,3.1585,10.2963,37.0104,-0.1212,0.0885,-0.7009,14.3472
20:27:29:931,-2.4455,3.4505,10.5069,37.0072,-0.1053,0.2571,-0.5104,15.0062
20:27:29:951,-2.3569,3.338,10.9735,36.6676,-0.1041,0.3328,-0.1463,15.199
20:27:29:973,-1.7659,3.2471,11.5813,37.4153,-0.1053,0.3267,0.2617,14.9211
20:27:29:992,-1.1127,2.9049,12.2776,36.9189,-0.109,0.323,0.5098,14.3401
20:27:30:012,-0.8423,2.5172,12.682,38.1255,-0.0772,0.3255,0.5452,13.744
20:27:30:029,-1.3304,2.1775,12.0766,38.6811,0.0498,0.3182,0.4743,13.2473
20:27:30:053,-1.9095,2.2325,10.215,37.9738,0.3577,0.4477,0.5317,12.1859
20:27:30:070,-1.4979,2.5196,9.9135,36.6126,0.3736,0.3866,0.6625,11.4565
20:27:30:095,-0.6508,2.6058,9.99,37.6418,0.3003,0.1459,0.7003,10.7299
20:27:30:109,-0.2201,2.2636,10.4303,38.3491,0.194,-0.2096,0.5134,10.252
20:27:30:130,-0.4738,1.9095,11.05,38.7574,0.0571,-0.5175,0.1261,10.2533
20:27:30:153,-0.8782,1.5984,11.263,37.6483,0.0107,-0.6861,-0.1854,10.6841
20:27:30:171,-1.1366,1.1821,10.3944,36.9447,0.1268,-0.7117,-0.3442,11.3039
20:27:30:194,-1.5912,1.0241,9.4612,40.3709,0.2306,-0.4784,-0.3833,11.937
20:27:30:212,-1.3759,1.2156,8.7817,39.4419,0.2062,-0.2206,-0.2355,12.3506
20:27:30:228,-0.5192,1.2849,8.3749,40.7734,0.2196,-0.2292,0.0406,12.4241
20:27:30:251,-0.2704,1.6128,8.1093,38.5137,0.3076,-0.3403,0.1604,12.3737
20:27:30:270,-0.4116,1.8688,7.8867,39.5858,0.4346,-0.4454,0.1005,12.433
20:27:30:290,-0.6891,2.2564,7.4848,40.2783,0.5238,-0.5187,0.004,12.616
20:27:30:310,-0.7705,2.2277,6.92,40.1616,0.5544,-0.4002,0.0199,12.7657
20:27:30:330,-0.8925,2.2899,6.3123,37.8192,0.5727,-0.1436,0.1628,12.6937
20:27:30:353,-0.7968,2.7398,6.073,39.7505,0.5556,-0.0251,0.3644,12.3761
20:27:30:370,-0.4834,3.125,6.3051,39.1633,0.464,-0.1351,0.4866,11.954
20:27:30:391,-0.469,3.204,6.8195,38.7273,0.2929,-0.2524,0.4071,11.6238
20:27:30:410,-0.6963,2.7015,8.059,39.2286,0.0889,-0.2463,0.2654,11.4911
20:27:30:430,-1.139,2.5484,9.411,39.3622,-0.0907,-0.1375,0.2642,11.3402
20:27:30:471,-1.1294,2.4885,10.3035,38.8229,-0.2116,0.0469,0.4658,10.1003
20:27:30:476,-0.2536,2.1607,11.208,39.2899,-0.2776,0.2717,0.6881,9.2076
20:27:30:490,0.9428,1.8688,12.1484,38.7574,-0.2874,0.3768,0.7089,8.5064
20:27:30:509,0.6341,1.8544,12.1172,39.9693,-0.2214,0.2021,0.3192,8.0797
20:27:30:530,0.335,1.785,11.7105,41.1402,-0.2031,0.053,0.1494,7.9208
20:27:30:551,0.5312,1.5266,11.1051,41.4211,-0.142,0.0909,0.0907,7.7897
20:27:30:570,0.9882,1.5075,10.6122,40.4794,-0.1102,0.1532,0.0773,7.5926
20:27:30:590,1.1438,1.6056,10.7964,40.6066,-0.1957,0.0225,-0.0253,7.5643
20:27:30:613,0.9308,1.6295,11.1266,39.4546,-0.3387,-0.1314,-0.2257,7.8283
20:27:30:629,0.8136,1.1533,11.275,41.8705,-0.4108,-0.1131,-0.3931,8.2538
20:27:30:651,1.0552,0.6078,11.4353,40.3952,-0.3985,-0.0386,-0.4676,8.7405
20:27:30:670,1.4189,0.8519,11.4449,40.3384,-0.4132,-0.0984,-0.5104,9.2532
20:27:30:690,1.3663,1.0193,10.9687,38.8258,-0.4718,-0.1375,-0.5702,9.8246
20:27:30:710,0.7561,0.9882,9.8967,41.1017,-0.5036,-0.0178,-0.6509,10.5136
20:27:30:730,0.3661,0.7274,9.0544,41.8224,-0.4877,0.174,-0.6765,11.1942
20:27:30:751,-0.1914,0.8231,8.3222,42.1409,-0.4535,0.2119,-0.6167,11.8116
20:27:30:772,-0.5815,1.2084,7.9585,40.8008,-0.4315,0.1813,-0.4725,12.3231
20:27:30:790,-0.4714,1.529,7.5446,40.961,-0.3912,0.2509,-0.2477,12.5656
20:27:30:810,0.0502,1.3065,6.9631,41.1017,-0.2641,0.3756,-0.0339,12.4958
20:27:30:829,-0.0263,1.7228,6.6568,40.6288,-0.0907,0.4538,0.0541,12.3402
20:27:30:853,-0.3302,2.3043,6.8172,40.1993,0.0266,0.3646,0.0602,12.2153
20:27:30:873,0.1149,2.8451,7.3747,40.8666,0.0669,0.108,0.0626,12.0633
20:27:30:890,0.9428,2.7422,7.8437,40.6393,0.0791,-0.1681,0.0064,12.0102
20:27:30:909,1.1557,2.6082,8.4395,40.3377,0.0767,-0.1681,-0.1854,12.162
20:27:30:930,0.6652,2.5053,9.1525,43.3241,-0.0271,0.0298,-0.4652,12.6138
20:27:30:955,-0.134,2.2445,10.1456,42.1679,-0.2275,0.1715,-0.6618,13.2625
20:27:30:972,-1.5625,2.3067,11.9761,42.5244,-0.4621,0.2143,-0.5495,14.5599
20:27:30:990,-1.5075,2.2469,12.347,41.0251,-0.3326,0.3634,-0.2281,14.7768
20:27:31:010,-1.261,2.3713,12.4499,42.3098,-0.1139,0.4501,0.1054,14.605
20:27:31:029,-1.1916,2.333,12.0383,41.6245,0.1182,0.4232,0.3253,14.1639
20:27:31:051,-1.4309,2.3521,11.1984,43.814,0.3174,0.4257,0.4181,13.6311
20:27:31:071,-1.9047,2.278,9.9924,43.2546,0.4212,0.5148,0.4646,13.0999
20:27:31:091,-2.3976,2.2875,9.2841,42.941,0.3833,0.6211,0.5415,12.4655
20:27:31:114,-2.8259,2.5651,9.387,44.2858,0.2294,0.5564,0.6478,11.7138
20:27:31:130,-2.6345,2.5866,9.9757,42.9072,0.0547,0.2534,0.7785,10.8695
20:27:31:152,-1.4955,1.7707,10.3035,43.5534,-0.0088,-0.1388,0.8604,9.9786
20:27:31:175,-1.6343,1.517,10.6983,43.1006,0.0694,-0.4124,0.7345,9.3225
20:27:31:322,-2.1033,1.5793,10.6887,43.8631,0.1537,-0.5945,0.5342,8.9317
20:27:31:323,-1.8209,1.4859,10.4471,45.6071,0.1317,-0.6177,0.4768,8.5993
20:27:31:323,-1.4668,1.4548,10.2102,44.8164,0.0144,-0.4515,0.4817,8.2258
20:27:31:323,-1.1629,1.2802,9.7316,45.3266,-0.1066,-0.3074,0.4487,7.8339
20:27:31:324,-0.7633,0.9476,9.198,43.1347,-0.1408,-0.2597,0.3876,7.522
20:27:31:324,-0.5982,0.737,8.8702,42.1587,-0.0907,-0.2414,0.3179,7.2566
20:27:31:324,-0.8207,0.9523,8.6285,44.2212,-0.0162,-0.2047,0.2654,7.0248
20:27:31:334,-0.8088,1.1127,8.0231,44.0279,0.0657,-0.1351,0.2935,6.743
20:27:31:354,-0.256,1.0959,7.5494,44.396,0.1463,-0.0031,0.3692,6.3392
20:27:31:370,-0.4403,1.3208,7.5111,43.4404,0.1793,0.1263,0.3778,5.8752
20:27:31:390,-0.7705,1.797,7.5637,42.8647,0.1817,0.1153,0.3815,5.427
20:27:31:410,-0.4666,1.8233,7.3172,42.4319,0.2123,0.0359,0.4462,4.927
20:27:31:430,-0.5791,1.9406,7.3508,43.7621,0.2966,0.0762,0.4768,4.3302
20:27:31:452,-0.6532,1.9813,7.9059,41.8364,0.2771,0.0274,0.4401,3.3225
20:27:31:472,-0.5432,1.9549,8.5902,41.44,0.1964,-0.1131,0.4071,2.8248
20:27:31:489,-0.1795,1.7755,9.3344,43.379,0.0804,-0.2084,0.3351,2.4771
20:27:31:510,0.2871,1.5816,10.404,43.1528,-0.054,-0.1852,0.219,2.2186
20:27:31:529,0.6915,1.2251,11.3157,43.9631,-0.1676,-0.1693,0.0638,2.1482
20:27:31:556,0.6126,0.9069,11.9737,43.2152,-0.2507,-0.2145,-0.1231,2.2505
20:27:31:581,0.0215,0.8495,12.2465,44.4789,-0.313,-0.1913,-0.2868,2.5574
20:27:31:590,-0.1771,0.9811,11.9785,41.7727,-0.3509,-0.0386,-0.2905,2.8473
20:27:31:609,0.1412,0.5264,11.6196,42.9447,-0.3582,0.2449,-0.1267,2.8834
20:27:31:629,0.6389,0.5719,11.6554,42.5538,-0.3863,0.4367,0.0333,2.6864
20:27:31:651,1.0504,0.804,11.9545,43.5081,-0.3875,0.2436,0.0895,2.4429
20:27:31:671,1.4859,0.5623,12,41.8045,-0.2971,-0.096,-0.0339,2.386
20:27:31:689,1.6774,0.1627,12.0311,42.5538,-0.1432,-0.256,-0.3369,2.6832
20:27:31:709,1.6606,0.0144,11.6387,42.9755,-0.0113,-0.3452,-0.6509,3.3339
20:27:31:729,1.3185,-0.1316,10.9926,41.8045,0.0584,-0.366,-0.8353,4.2026
20:27:31:751,0.6628,0.2489,9.9494,42.7013,0.0168,-0.2353,-0.8891,5.1233
20:27:31:770,0.682,0.4498,8.863,42.3577,0.0132,-0.2121,-0.8378,5.9966
20:27:31:792,0.4618,0.4211,8.0614,43.6402,0.0889,-0.256,-0.8207,6.8523
20:27:31:812,-0.2082,1.0433,7.8126,42.9144,0.0804,-0.3367,-0.8805,7.8447
20:27:31:838,-0.1819,1.474,7.3579,42.1501,-0.0174,-0.4674,-0.8659,8.8345
20:27:31:856,0.0838,1.1868,7.0684,44.6039,-0.076,-0.476,-0.7938,9.7491
20:27:31:872,-0.3398,1.3759,7.0181,42.8652,-0.0687,-0.3831,-0.7779,11.4685
20:27:31:890,-0.9404,2.187,7.7336,44.5532,0.0168,-0.2939,-0.602,12.2075
20:27:31:909,-0.5456,2.4718,7.8365,43.7114,0.0645,-0.311,-0.4823,12.7618
20:27:31:930,0.0144,2.5938,8.083,44.6996,0.0901,-0.1559,-0.398,13.1534
20:27:31:953,0.3637,2.7852,8.5807,44.9665,0.0352,0.0604,-0.3992,13.4924
20:27:31:973,0.0694,2.7182,9.3081,44.2583,-0.1004,0.1972,-0.4823,13.9188
20:27:31:988,-0.4211,2.4622,9.9781,43.9374,-0.2373,0.2326,-0.5421,14.3955
20:27:32:009,-0.8112,2.3019,10.5524,43.1347,-0.2947,0.2717,-0.5091,14.8938
20:27:32:030,-1.3831,2.4837,11.1314,42.6564,-0.2531,0.4098,-0.3564,15.1843
20:27:32:055,-1.3926,2.522,11.7296,42.5254,-0.1444,0.5014,-0.0901,15.1895
20:27:32:072,-0.8614,2.5388,11.9617,44.8088,0.0083,0.4916,0.1909,14.8422
20:27:32:090,-0.6532,2.6417,11.8875,42.7651,0.1891,0.5002,0.3802,14.3164
20:27:32:109,-0.6724,2.6536,11.1817,44.8053,0.3406,0.5845,0.4768,13.6493
20:27:32:134,-1.0959,2.6488,10.2317,43.6553,0.3956,0.7848,0.5281,12.8752
20:27:32:158,-1.3495,2.4574,9.7484,43.1569,0.3223,0.9144,0.5867,12.0349
20:27:32:171,-1.261,2.3115,10.1767,44.6928,0.1427,0.7164,0.6112,11.2038
20:27:32:188,-1.151,1.9741,10.9735,43.2837,-0.0601,0.1911,0.5024,10.5852
20:27:32:210,-1.742,1.9454,11.6052,42.9755,-0.1884,-0.3122,0.3131,10.2898
20:27:32:230,-2.333,1.6223,10.9615,43.2671,-0.1078,-0.4515,0.2837,10.0673
20:27:32:252,-2.2445,1.2443,9.7867,42.9755,0.1414,-0.2585,0.4511,9.6635
20:27:32:274,-1.6726,1.4022,8.9133,43.2152,0.3613,-0.0874,0.6405,8.9656
20:27:32:290,-0.8686,1.5314,8.4873,42.5903,0.4017,-0.063,0.7272,8.1442
20:27:32:309,-0.0957,1.5147,8.4706,44.4789,0.2208,-0.1693,0.6075,7.4621
20:27:32:331,0.0311,1.3185,8.6979,43.5347,-0.12,-0.3037,0.3057,7.1324
20:27:32:355,-1.151,1.0361,9.0568,43.5136,-0.5671,-0.2267,0.0076,7.1861
20:27:32:375,-1.1892,0.7968,8.6142,44.3499,-0.4376,-0.085,0.1506,7.0338
20:27:32:394,-1.1916,1.1725,8.0997,41.0126,-0.1811,0.0799,0.3509,6.6534
20:27:32:413,-0.8375,1.5649,7.6355,42.3679,0.0632,0.207,0.5696,5.9296
20:27:32:429,-0.39,1.7133,7.1833,43.1283,0.2441,0.2754,0.7419,5.005
20:27:32:451,-0.1771,1.9382,7.1617,43.4287,0.3369,0.2253,0.7956,4.0433
20:27:32:470,-0.0359,2.3761,7.5111,43.3639,0.3271,0.0469,0.7407,3.1603
20:27:32:489,0.0502,2.6441,8.1189,42.5422,0.2624,-0.1326,0.6515,2.409
20:27:32:533,0.1244,2.68,8.729,40.7969,0.1989,-0.2316,0.5379,1.3175
20:27:32:539,0.5527,2.3258,10.4207,41.667,0.1304,-0.3318,0.2605,1.0165
20:27:32:558,1.005,1.6989,11.9019,43.1692,0.0535,-0.4344,0.0602,0.9314
20:27:32:578,0.871,1.5721,13.4883,43.0423,-0.0858,-0.6262,-0.255,1.2459
20:27:32:602,0.5216,1.2921,14.1464,43.1692,-0.1982,-0.68,-0.5653,1.9063
20:27:32:621,0.2489,0.7059,14.0842,43.6233,-0.2043,-0.4747,-0.7364,2.7264
20:27:32:638,0.4618,0.5288,13.3591,42.6209,-0.1139,-0.2365,-0.7339,3.5054
20:27:32:659,1.1868,0.2297,12.8231,42.8752,0.0339,-0.0276,-0.6325,4.095
20:27:32:675,1.3232,0.2225,12.6556,42.1885,0.139,0.0616,-0.6057,4.6394
20:27:32:693,0.9643,0.4977,12.1388,42.5575,0.1964,0.1239,-0.6692,5.2632
20:27:32:718,0.8949,0.5791,11.0668,42.4812,0.2404,0.2204,-0.6411,5.835
20:27:32:733,1.3089,0.3135,9.947,42.512,0.31,0.2803,-0.4713,6.1714
20:27:32:751,1.6989,0.414,9.1908,43.185,0.3785,0.1825,-0.3528,6.3801
20:27:32:774,2.1152,0.4092,8.6333,42.1687,0.4212,-0.0312,-0.3674,6.6512
20:27:32:790,1.7563,0.8279,8.5256,45.0161,0.3675,-0.1168,-0.5446,7.118
20:27:32:812,1.1844,1.048,8.2481,41.8643,0.1854,-0.1082,-0.7547,7.9075
20:27:32:829,0.2441,1.2897,7.8652,42.7684,-0.0968,-0.1156,-0.8732,8.8101
20:27:32:850,-0.4714,1.5338,7.4369,43.6998,-0.346,-0.1901,-0.7852,9.6637
20:27:32:868,-1.0098,1.5816,7.7862,43.7621,-0.4975,-0.0618,-0.5751,10.2646
20:27:32:889,-1.3878,2.3115,7.7408,42.4873,-0.6209,0.0237,-0.3943,10.6436
20:27:32:909,-0.6556,2.7087,8.3773,42.6029,-0.5488,-0.3587,-0.1744,10.8709
20:27:32:930,0.1651,2.254,9.0162,42.5616,-0.3204,-0.6091,-0.15,11.1071
20:27:32:951,0.682,2.2062,8.942,43.4632,0.062,-0.5883,-0.3051,11.4643
20:27:32:969,0.7394,2.3186,9.2746,43.7481,0.4163,-0.1534,-0.3955,11.8424
20:27:32:992,0.1531,2.6225,8.2026,43.7481,0.5177,0.3414,-0.3638,12.0939
20:27:33:009,0.6221,2.3067,8.1499,42.7957,0.6448,0.378,-0.2819,12.2273
20:27:33:029,0.4187,2.601,8.0997,44.9555,0.5641,0.2949,-0.3015,12.3957
20:27:33:051,0.3733,2.8714,8.8199,43.4387,0.3711,0.1984,-0.3687,12.6475
20:27:33:070,0.0024,3.0102,9.5402,44.397,0.1634,0.1899,-0.398,12.9466
20:27:33:089,-0.4834,3.0532,10.4231,44.0888,-0.0101,0.1996,-0.3393,13.2044
20:27:33:109,-0.5719,2.9695,11.1194,43.1124,-0.087,0.2057,-0.1658,13.2956
20:27:33:128,-0.6174,2.8786,11.3803,43.1057,-0.0186,0.2216,0.0382,13.1477
20:27:33:150,-0.7298,2.6178,10.9543,42.7684,0.1683,0.3133,0.1884,12.8281
20:27:33:173,-0.9739,2.6895,10.1121,41.5358,0.3809,0.4147,0.2703,12.3816
20:27:33:189,-1.3161,2.8403,9.6981,43.087,0.4884,0.4098,0.296,11.9261
20:27:33:210,-1.2562,3.0078,9.9302,43.3859,0.4041,0.1764,0.2923,11.5464
20:27:33:230,-0.0957,2.7039,10.7414,44.3306,0.1879,-0.2255,0.2801,11.2381
20:27:33:254,0.9476,2.1535,11.5597,42.5227,0.0144,-0.5102,0.2165,11.0731
20:27:33:272,-0.3709,2.2181,11.0381,43.1216,-0.0271,-0.2976,-0.0876,11.3039
20:27:33:290,-0.859,2.0746,10.2173,42.877,0.0058,-0.1913,-0.1781,11.5193
20:27:33:309,-0.9236,1.8903,9.4205,45.7584,-0.0125,-0.2096,-0.2489,11.8368
20:27:33:424,-1.072,1.7396,8.7721,45.7958,-0.0943,-0.1583,-0.2819,12.2065
20:27:33:424,-1.3256,1.7252,8.4275,45.7063,-0.2104,-0.052,-0.2428,12.5046
20:27:33:425,-1.5123,1.9478,8.3318,44.1714,-0.2996,0.0372,-0.1206,12.6464
20:27:33:426,-1.4118,2.0483,8.1571,44.7514,-0.3008,0.0787,0.0553,12.5881
20:27:33:427,-1.0576,1.8808,7.9609,41.8643,-0.1908,0.1129,0.2104,12.3403
20:27:33:429,-0.9858,2.0602,7.6283,43.7262,-0.0162,0.1166,0.3057,11.9402
20:27:33:450,-0.7346,2.187,7.2215,40.9616,0.1671,0.0995,0.4169,11.442
20:27:33:469,-0.3613,2.3689,6.92,41.5883,0.2917,0.0433,0.5403,10.8136
20:27:33:489,0.0814,2.4766,6.7478,42.585,0.3662,-0.0166,0.638,10.0574
20:27:33:508,0.5456,2.5053,6.6305,41.3032,0.4004,-0.0606,0.6588,9.2824
20:27:33:529,0.6556,2.6943,6.9535,42.5773,0.3565,-0.1143,0.5708,8.6266
20:27:33:557,0.5049,2.7661,7.9466,41.3153,0.2196,-0.2121,0.412,8.1804
20:27:33:578,0.5384,2.814,9.2746,42.3327,0.0645,-0.366,0.2471,7.9784
20:27:33:589,0.7729,2.6632,10.459,42.3542,-0.0039,-0.4772,0.1115,7.9494
20:27:33:609,1.0241,2.1894,11.2056,42.3833,0.0217,-0.5639,-0.0376,8.1077
20:27:33:630,1.2658,1.6869,11.4018,42.0719,0.095,-0.6152,-0.1915,8.4453
20:27:33:657,1.0122,1.6415,11.2176,43.228,0.1097,-0.5187,-0.3308,8.8792
20:27:33:671,0.4522,1.9358,10.6863,42.8225,0.0058,-0.2878,-0.398,9.3324
20:27:33:693,0.28,1.9741,10.6863,44.0588,-0.1921,0.0274,-0.3613,9.6812
20:27:33:712,1.5721,1.6391,12.3278,41.952,-0.55,0.0909,-0.3259,10.157
20:27:33:734,1.663,1.2371,13.4644,40.538,-0.605,-0.1962,-0.5458,10.695
20:27:33:750,1.4501,1.1246,13.7635,42.6385,-0.5146,-0.4234,-0.7327,11.5474
20:27:33:772,1.3831,1.139,13.5027,41.6671,-0.2495,-0.4821,-0.7938,12.4482
20:27:33:789,1.4907,0.9356,12.2106,41.3127,0.0816,-0.4674,-0.7217,13.3046
20:27:33:809,1.4788,0.9045,10.4949,41.5171,0.3198,-0.2988,-0.5727,13.9446
20:27:33:829,1.5577,1.2108,9.0425,41.8581,0.3613,-0.0459,-0.4407,14.3441
20:27:33:851,1.5649,1.4165,8.1189,41.7974,0.249,0.0872,-0.3943,14.6544
20:27:33:869,1.1151,1.7276,7.7886,41.2482,0.0388,0.0921,-0.4639,15.0645
20:27:33:890,0.3565,1.9549,7.8006,41.3127,-0.1738,0.0494,-0.536,15.5985
20:27:33:908,-0.1077,2.5149,7.9609,41.6671,-0.2739,0.0249,-0.5055,16.1016
20:27:33:929,0.0431,2.6345,7.9035,41.9615,-0.1884,-0.0508,-0.3711,16.4748
20:27:33:953,0.1962,2.6656,7.401,43.3725,0.0498,-0.1143,-0.277,16.7822
20:27:33:969,0.6891,2.9575,6.719,41.755,0.3174,-0.1363,-0.2831,17.0623
20:27:33:989,0.7083,3.2973,6.3218,40.8276,0.42,-0.1974,-0.3821,17.4526
20:27:34:009,0.6437,3.4361,6.6018,40.9951,0.2966,-0.2475,-0.5055,18.0139
20:27:34:029,0.6221,3.3691,7.4967,41.861,0.0657,-0.2438,-0.5873,18.6657
20:27:34:052,0.7035,3.2518,8.5328,41.8538,-0.1273,-0.2817,-0.6154,19.3534
20:27:34:069,0.9165,3.1848,9.4493,40.2423,-0.2141,-0.3416,-0.6216,20.0403
20:27:34:088,0.5599,3.1083,9.7531,37.987,-0.2043,-0.2512,-0.6154,20.7181
20:27:34:109,-0.6413,3.1992,9.9996,40.2637,-0.1652,0.108,-0.514,21.2227
20:27:34:128,-0.8734,3.6084,10.7175,41.7063,-0.1212,0.5539,-0.2233,21.2795
20:27:34:153,0.2321,3.6395,11.1482,41.7063,-0.0137,0.6724,0.2153,20.8114
20:27:34:171,0.7322,3.1896,10.6911,40.4791,0.4664,0.6529,0.6283,19.9786
20:27:34:192,-0.5815,3.5366,10.0546,40.6134,0.497,0.9302,0.4975,19.0993
20:27:34:208,-1.4429,3.338,9.7244,39.2395,0.3687,1.0842,0.5257,18.3088
20:27:34:228,-1.2036,3.3619,10.124,41.3277,0.2208,0.9816,0.7236,16.3621
20:27:34:254,0.603,2.6082,11.275,39.6121,0.1146,0.6199,0.8763,15.1942
20:27:34:272,1.3807,2.7087,11.8588,40.19,0.0303,0.0909,0.7028,14.3347
20:27:34:292,0.5073,3.1824,11.7847,40.8909,-0.065,-0.2059,0.285,14.0515
20:27:34:308,-0.7537,2.479,10.9328,40.3083,-0.0968,-0.1375,-0.0351,14.1268
20:27:34:329,-1.6989,2.0818,9.746,38.3949,-0.0211,-0.0972,-0.1243,14.345
20:27:34:351,-2.12,2.2516,8.9324,40.1204,0.1207,-0.1546,0.0137,14.4331
20:27:34:368,-1.6822,2.4048,8.3533,39.6587,0.2771,-0.1717,0.2776,14.2416
20:27:34:387,-0.7107,2.2469,7.5326,40.7628,0.3552,-0.0178,0.4365,13.8038
20:27:34:408,-0.536,2.4622,6.9535,40.1763,0.2685,0.2974,0.3986,13.2848
20:27:34:429,-0.9834,2.8451,6.7286,38.8884,0.0205,0.4794,0.3192,12.7635
20:27:34:455,-1.4261,2.8881,7.0827,39.9278,-0.2495,0.378,0.3216,12.3219
20:27:34:473,-1.4812,2.7852,7.5996,39.9278,-0.3643,0.1129,0.3522,11.923
20:27:34:491,-1.1007,2.5627,7.87,40.5497,-0.2751,-0.096,0.3815,11.5536
20:27:34:509,-1.139,2.6704,8.1859,37.9324,-0.076,-0.096,0.3998,11.1589
20:27:34:529,-1.1653,2.881,8.4897,39.0406,0.1329,-0.0484,0.4401,10.725
20:27:34:550,-0.804,2.9288,8.5639,38.3696,0.3088,-0.0239,0.4951,10.2104
20:27:34:568,-0.5671,2.8953,8.4754,38.3946,0.4261,0.0457,0.489,9.6657
20:27:34:587,-0.2177,2.8499,8.4969,38.6201,0.453,0.1825,0.4145,9.1503
20:27:34:609,-0.2106,3.0102,8.8774,39.2154,0.3699,0.2717,0.3473,8.6743
20:27:34:636,-0.3446,3.3452,9.7699,38.1145,0.2184,0.2558,0.3265,8.2256
20:27:34:651,0.67,2.7876,11.0094,38.1252,0.0694,-0.1094,0.274,7.5248
20:27:34:672,0.7298,2.8044,11.3994,36.8888,0.0681,-0.2573,0.1261,7.4278
20:27:34:687,0.8016,2.9025,11.8325,37.9324,0.128,-0.256,0.0027,7.4182
20:27:34:707,0.8877,2.8881,11.7918,37.7171,0.2502,-0.2108,-0.0559,7.5132
20:27:34:726,0.9045,3.0173,11.5358,40.3371,0.376,-0.1388,-0.0803,7.6061
20:27:34:748,1.3759,3.07,11.0572,37.7532,0.4469,-0.0936,-0.0559,7.6319
20:27:34:769,2.0435,3.058,10.2485,38.3477,0.4505,-0.1082,-0.0046,7.5995
20:27:34:789,2.5555,2.6584,9.6144,37.3562,0.4127,-0.0997,-0.0131,7.5344
20:27:34:808,2.3952,2.4239,9.4253,38.3744,0.3064,-0.1119,-0.1707,7.6648
20:27:34:828,2.2349,2.1488,9.6814,39.7267,0.1121,-0.2939,-0.4187,8.1162
20:27:34:853,2.1488,1.919,9.6598,38.0221,-0.1334,-0.5835,-0.6484,8.9305
20:27:34:870,1.7204,1.9932,9.3775,39.4432,-0.3863,-0.6763,-0.8109,9.9933
20:27:34:889,1.4883,1.8879,8.8726,38.1414,-0.5879,-0.5285,-0.8414,11.0186
20:27:34:908,1.3495,1.7539,8.5041,37.0714,-0.6747,-0.333,-0.7633,11.8845
20:27:34:929,0.8973,1.8712,8.3127,39.0042,-0.6539,-0.228,-0.7034,12.6662
20:27:34:952,0.213,2.2086,8.0901,39.6587,-0.5574,-0.2377,-0.6924,13.4646
20:27:34:969,-0.0048,2.4837,7.7169,40.4388,-0.39,-0.2658,-0.6496,14.213
20:27:34:988,0.1555,2.3402,7.0421,39.8208,-0.2031,-0.1204,-0.547,14.794
20:27:35:008,0.1675,2.5172,6.5731,39.2395,-0.0907,0.0628,-0.4456,15.2159
20:27:35:029,0.4498,2.8092,6.2907,40.9186,-0.0345,0.0567,-0.3845,15.5399
20:27:35:054,0.5408,3.137,6.5276,38.6742,-0.1078,0.0042,-0.3906,15.8948
20:27:35:071,0.6939,3.1657,7.0229,37.6462,-0.2544,-0.0826,-0.4615,16.9026
20:27:35:091,0.6054,2.8307,8.0016,39.4555,-0.4804,-0.0154,-0.6802,17.5999
20:27:35:111,0.1723,2.8475,8.6166,38.7194,-0.539,0.0286,-0.7156,18.3222
20:27:35:135,-0.4403,3.2088,9.3966,37.4678,-0.583,-0.0166,-0.6667,19.0164
20:27:35:155,-0.8566,3.5342,10.0977,37.7418,-0.5977,-0.1204,-0.547,19.6286
20:27:35:173,-1.0433,3.8189,10.5356,38.4701,-0.5513,-0.1669,-0.3601,20.0521
20:27:35:190,-0.7274,3.8333,11.0524,38.5422,-0.4499,-0.0361,-0.1402,20.2018
20:27:35:207,-0.39,3.7184,11.5884,37.3688,-0.3582,0.0677,0.0027,20.1647
20:27:35:227,-0.6317,3.6682,11.9617,35.671,-0.3032,0.0237,0.0064,20.1298
20:27:35:250,-1.1198,3.5486,11.9115,35.4053,-0.2593,-0.0532,-0.04,20.1702
20:27:35:268,-1.8329,3.3308,11.6004,38.4258,-0.1982,0.0347,-0.0388,20.2184
20:27:35:288,-2.1416,2.9288,10.9902,39.1502,-0.1053,0.2436,0.0528,20.1481
20:27:35:308,-1.8784,2.5412,10.7821,38.2238,-0.0406,0.3524,0.175,19.9252
20:27:35:330,-1.4333,2.3952,11.0788,39.7467,-0.0565,0.2155,0.2397,19.627
20:27:35:352,-0.9045,1.9813,11.6626,38.9341,-0.1176,-0.0679,0.2642,19.3571
20:27:35:368,-0.7585,1.7061,11.9641,38.3623,-0.153,-0.2744,0.2679,19.1392
20:27:35:388,-0.6485,1.4453,11.9785,39.6387,-0.1517,-0.3416,0.2642,18.9543
20:27:35:408,-0.5982,1.2634,11.4975,41.2617,-0.131,-0.3171,0.2715,18.7492
20:27:35:539,-0.5121,1.1557,10.861,41.5176,-0.1066,-0.1742,0.2984,18.4835
20:27:35:541,-0.5192,1.1821,10.0905,41.5642,-0.0894,-0.0056,0.3302,18.1683
20:27:35:541,-0.5934,1.2108,9.2818,40.6616,-0.0528,0.1471,0.3619,17.7651
20:27:35:542,-0.7801,1.2586,8.4132,36.8183,0.0254,0.2852,0.4291,17.2711
20:27:35:543,-0.8542,1.3448,7.5182,38.0816,0.1182,0.3634,0.5073,16.664
20:27:35:544,-1.0098,1.4644,6.877,38.3491,0.1903,0.3756,0.5611,15.9721
20:27:35:557,-0.8255,1.7587,6.4845,38.8253,0.2135,0.1935,0.7126,15.2262
20:27:35:567,-0.4068,2.0315,6.8243,38.8543,0.1952,0.0457,0.7932,14.4432
20:27:35:586,-0.2273,2.2875,7.1497,37.8922,0.1854,-0.0435,0.8176,13.5246
20:27:35:606,0.0072,2.2469,7.3795,39.1797,0.2208,-0.041,0.803,11.7018
20:27:35:627,-0.0359,2.2732,7.6977,38.5272,0.2758,-0.0496,0.737,10.8978
20:27:35:653,0.0215,2.3713,8.1978,37.2546,0.2966,-0.1388,0.6661,10.1854
20:27:35:670,0.3757,2.5077,8.9348,36.6883,0.2917,-0.2768,0.616,9.5282
20:27:35:687,0.8901,2.3569,9.4708,37.8599,0.2563,-0.388,0.5061,9.0276
20:27:35:707,1.4716,2.0435,10.4088,38.1892,0.172,-0.4222,0.3399,8.6789
20:27:35:728,1.6439,1.7635,11.3683,38.7916,0.04,-0.487,0.1164,8.6084
20:27:35:754,1.3472,1.4692,11.7344,38.2085,-0.0553,-0.4979,-0.1011,8.7817
20:27:35:771,1.0146,1.1844,11.5119,38.9474,-0.0601,-0.3098,-0.2281,9.0597
20:27:35:791,0.5934,1.206,11.3085,38.5694,-0.0528,-0.0813,-0.2404,9.3161
20:27:35:808,0.9284,1.3998,11.2176,39.4786,-0.098,-0.0312,-0.1206,9.4083
20:27:35:828,2.1105,1.2156,11.4544,39.1062,-0.1762,-0.0862,0.0724,9.2656
20:27:35:857,3.0102,1.1725,11.7009,38.5272,-0.2458,-0.1241,0.1469,9.0005
20:27:35:871,3.1561,0.993,11.6028,38.6142,-0.2434,-0.0422,0.0345,8.8406
20:27:35:888,2.7446,0.7466,11.2989,39.83,-0.2006,0.053,-0.1939,8.9382
20:27:35:908,2.4,0.335,11.1936,38.2966,-0.2128,0.0237,-0.3931,9.2556
20:27:35:929,2.3091,0.0981,11.6004,39.2616,-0.3057,-0.1498,-0.4749,9.7099
20:27:35:951,2.4,0.2465,11.5143,39.0977,-0.3753,-0.2719,-0.459,10.1352
20:27:35:970,2.3258,0.2082,10.5308,39.2323,-0.324,-0.151,-0.4358,10.5527
20:27:35:989,1.7085,0.3852,9.5234,40.0366,-0.2312,0.0567,-0.4908,10.9816
20:27:36:008,0.2417,1.0552,8.3151,39.3465,-0.3191,0.0872,-0.5592,11.5251
20:27:36:028,-0.0287,1.3017,7.6905,39.7123,-0.3155,0.1288,-0.4432,12.5338
20:27:36:053,0.0861,1.407,7.0947,38.8142,-0.197,0.2558,-0.2868,12.7347
20:27:36:073,0.3661,1.6319,6.4128,39.2428,-0.0088,0.3585,-0.1646,12.7831
20:27:36:092,0.4403,2.0148,5.9892,38.764,0.1439,0.4061,-0.1072,12.7608
20:27:36:107,0.5982,2.5771,5.7715,40.0366,0.1537,0.2815,-0.1145,12.7443
20:27:36:127,0.792,2.9408,6.207,39.8184,0.0119,0.0872,-0.2049,12.8734
20:27:36:150,0.9547,2.9599,7.2,39.1844,-0.1738,-0.1241,-0.3882,13.2376
20:27:36:168,0.9212,2.9001,8.4778,38.2992,-0.3277,-0.3636,-0.624,13.8976
20:27:36:188,0.6748,2.8307,9.8776,39.9662,-0.4376,-0.5541,-0.8231,14.83
20:27:36:207,-0.1412,2.9001,10.9137,40.3362,-0.4609,-0.636,-0.9392,15.9405
20:27:36:228,-1.0433,2.8738,11.3851,39.1333,-0.3717,-0.5603,-0.872,16.9994
20:27:36:250,-1.4524,2.9384,11.4305,41.2799,-0.1933,-0.3526,-0.5519,17.6728
20:27:36:267,-1.1701,3.1131,11.5502,40.9924,0.0303,-0.0398,-0.0681,17.7517
20:27:36:289,-0.2297,3.1107,11.7583,41.7713,0.2233,0.1886,0.3827,17.2641
20:27:36:308,0.6604,3.2782,12.0215,41.5652,0.3271,0.1996,0.5904,16.5313
20:27:36:328,1.017,3.2399,11.9378,39.7695,0.3858,0.1911,0.5562,15.8197
20:27:36:351,0.2201,3.1011,11.2534,40.6393,0.4603,0.3792,0.4071,15.2561
20:27:36:369,-0.9069,2.9384,10.7605,40.7081,0.5556,0.6211,0.3265,14.7569
20:27:36:389,-1.5147,2.79,10.1958,41.8185,0.6338,0.5771,0.3974,14.1925
20:27:36:407,-2.1344,3.1729,10.0188,42.0476,0.6717,0.3902,0.5476,13.5186
20:27:36:429,-1.5936,2.7565,10.1121,41.396,0.6643,0.1825,0.726,12.6926
20:27:36:457,-0.3565,1.986,10.5763,41.3398,0.5593,-0.2341,0.7932,11.8562
20:27:36:470,1.1486,1.2227,12.4331,40.8355,-0.0711,-0.9671,0.4829,11.3361
20:27:36:491,1.0744,0.8112,12.5671,41.3398,-0.2348,-0.746,0.2789,10.905
20:27:36:507,0.5192,0.5384,12.3805,41.4056,-0.2861,-0.3196,0.1273,10.825
20:27:36:526,-0.1101,0.4857,11.665,41.4056,-0.2238,0.0995,0.1591,10.6311
20:27:36:548,-0.5695,0.6269,10.6792,40.8306,-0.0381,0.3878,0.3692,10.1529
20:27:36:570,-0.3422,0.658,9.3368,42.3434,0.2612,0.5686,0.6576,9.314
20:27:36:589,0.1579,0.6437,7.87,42.5785,0.6167,0.7164,0.9007,8.1076
20:27:36:607,0.2584,0.8901,6.3745,41.2745,0.8989,0.7836,1.0143,6.7588
20:27:36:627,0.3829,1.084,5.08,42.5691,1.015,0.7189,1.0339,5.3805
20:27:36:649,0.457,1.2706,4.2975,44.0828,0.9478,0.5662,1.0021,4.0675
20:27:36:670,0.7083,1.5577,4.0941,42.259,0.7389,0.3597,0.9068,2.9002
20:27:36:687,0.8782,1.8808,4.812,42.2458,0.4151,0.1092,0.7492,1.9772
20:27:36:705,1.0385,1.8712,6.2931,43.1481,0.0461,-0.1119,0.5342,1.3743
20:27:36:726,0.7777,1.9406,8.0877,41.6096,-0.2226,-0.2365,0.3179,1.0449
20:27:36:749,0.5168,2.0674,9.0497,43.1189,-0.3094,-0.2756,0.1542,0.9126
20:27:36:770,0.5671,1.7827,9.2626,42.7999,-0.2092,-0.1388,0.0822,0.8163
20:27:36:785,0.603,2.0028,9.2435,43.3958,-0.0992,0.0726,0.0345,0.7019
20:27:36:806,0.5049,2.2397,9.8441,42.2137,-0.186,0.0909,-0.051,0.6868
20:27:36:826,0.3829,2.2349,10.8203,42.2137,-0.4169,-0.0435,-0.1622,0.8486
20:27:36:846,0.28,2.0387,11.7296,42.2137,-0.6062,-0.1876,-0.2184,1.1175
20:27:36:867,0.0263,2.0435,12.3111,42.2137,-0.6796,-0.2023,-0.1927,1.3696
20:27:36:888,-0.213,2.3785,12.4403,42.2137,-0.6319,-0.0496,-0.04,1.4229
20:27:36:913,0.4068,2.4024,12.122,42.512,-0.4975,0.1557,0.2507,1.0877
20:27:36:926,2.5914,2.3497,11.7583,43.498,-0.2886,0.1214,0.616,0.4093
20:27:36:946,3.5821,1.8784,12.0574,43.498,-0.2507,-0.0239,0.5354,358.9652
20:27:36:965,3.74,1.675,12.9236,42.3359,-0.2531,-0.2512,0.3082,358.5728
20:27:36:986,3.5533,1.3448,13.3543,42.121,-0.1689,-0.2841,0.1066,358.3953
20:27:37:008,3.4672,0.938,12.4523,42.9232,0.073,-0.1363,-0.0034,358.3038
20:27:37:027,3.7902,0.6102,10.928,43.0966,0.3296,0.0726,-0.04,358.1867
20:27:37:047,3.9601,0.323,9.6335,41.3063,0.42,0.2473,-0.106,358.0819
20:27:37:067,3.2614,0.3996,8.9516,42.5691,0.2734,0.2253,-0.3344,358.2502
20:27:37:089,1.9813,0.6413,9.4325,44.8376,0.0034,0.119,-0.6313,358.8176
20:27:37:107,0.8925,0.5456,8.8678,42.9447,-0.0381,0.1801,-0.7413,359.5132
20:27:37:127,0.3422,0.6652,7.6116,43.8692,0.1976,0.3194,-0.6228,0.0608
20:27:37:152,0.5599,0.7107,6.2094,43.1495,0.5385,0.4049,-0.3943,0.3362
20:27:37:173,0.7968,1.0026,4.8598,44.0984,0.8122,0.3597,-0.2318,0.4528
20:27:37:186,0.926,1.6869,4.1946,42.8453,0.828,0.1703,-0.1927,0.5789
20:27:37:207,1.0624,2.3115,4.2664,45.2413,0.5825,-0.0887,-0.2392,0.7868
20:27:37:231,1.2132,2.7159,4.8383,44.3221,0.2538,-0.2658,-0.365,1.1917
20:27:37:248,0.7609,3.0173,6.3099,42.7703,-0.0369,-0.3416,-0.5617,1.8345
20:27:37:267,0.1149,3.2255,8.3605,44.6212,-0.2177,-0.6482,-0.7205,2.7693
20:27:37:286,-0.6772,3.649,9.5785,44.397,-0.1872,-1.3971,-0.7584,3.9959
20:27:37:305,-1.2969,3.9458,10.3681,43.22,0.0339,-2.0361,-0.6851,5.3949
20:27:37:328,-1.3137,4.118,10.2963,44.4927,0.3552,-2.1436,-0.5971,6.7607
20:27:37:352,-0.5623,4.0989,9.7125,44.4047,0.5874,-1.6183,-0.4762,7.8189
20:27:37:372,0.1077,4.4674,9.6383,44.7967,0.497,-0.6311,-0.2868,8.3523
20:27:37:389,0.524,5.537,11.0668,44.5944,-0.4767,0.9986,0.2764,7.6974
20:27:37:408,1.0672,5.2235,11.7775,45.9281,-0.8005,1.381,0.4926,6.7251
20:27:37:427,1.6558,4.5344,12.1508,44.9931,-0.7907,1.5252,0.4682,5.7259
20:27:37:451,1.7731,3.6634,13.3902,45.3642,-0.6307,1.2747,0.2483,5.0574
20:27:37:470,1.0146,3.7807,14.4885,44.1719,-0.5696,0.378,-0.0534,4.9889
20:27:37:492,0.6293,3.1274,14.2277,44.8419,-0.4706,-0.421,-0.1903,5.2963
20:27:37:507,0.0598,2.1033,12.3996,43.087,-0.1066,-0.3794,-0.1646,5.5646
20:27:37:525,-0.3087,1.3567,10.136,46.0588,0.3809,0.2033,0.0089,5.5241
20:27:37:589,-0.7298,1.6534,8.7386,44.8114,0.7034,0.692,0.2324,5.1124
20:27:37:589,-0.7226,2.3091,7.9848,44.0451,0.7083,0.7225,0.3998,4.5033
20:27:37:590,0.2656,2.3833,7.6977,43.411,0.4579,0.4208,0.5,3.8199
20:27:37:604,0.8758,2.2158,7.8317,45.5665,0.1647,0.1434,0.4242,3.287
20:27:37:625,0.3565,2.0937,7.8245,43.6975,0.007,0.0909,0.2129,3.0038
20:27:37:645,-0.4857,2.1176,7.6905,45.3263,-0.0198,0.1385,0.0663,2.8845
20:27:37:666,-1.0002,2.1152,7.5302,43.087,0.0119,0.2155,0.1029,2.7564
20:27:37:685,-1.0696,2.0004,7.2933,44.7115,0.095,0.2766,0.2569,2.4257
20:27:37:704,-1.1988,2.2038,7.3484,45.8512,0.2148,0.2363,0.4193,1.9696
20:27:37:727,-0.7753,2.4742,7.4967,44.9364,0.3259,0.0689,0.5855,1.3439
20:27:37:749,-0.2752,2.68,7.401,46.7798,0.42,-0.0349,0.7382,0.563
20:27:37:765,0.1149,2.814,7.2718,45.2403,0.4933,0.003,0.8103,359.7063
20:27:37:784,0.3063,3.0987,7.4417,45.8663,0.4737,0.0579,0.7614,358.884
20:27:37:806,0.615,3.1274,7.9753,45.047,0.332,-0.0044,0.6051,357.8504
20:27:37:825,1.7659,2.345,10.1049,44.6621,-0.0247,-0.3758,0.1762,357.7573
20:27:37:845,1.9669,2.0842,11.0931,43.4159,-0.1078,-0.4686,0.026,357.8531
20:27:37:865,2.0889,1.8616,11.5836,45.8646,-0.131,-0.5053,-0.0864,358.0746
20:27:37:886,2.534,1.4907,11.6339,44.0617,-0.0894,-0.4295,-0.1536,358.3101
20:27:37:905,2.7422,1.462,11.2917,44.9555,-0.0455,-0.2218,-0.2001,358.5287
20:27:37:930,2.7781,1.4285,10.7103,44.3489,-0.0638,0.0445,-0.2465,358.6888
20:27:37:947,2.8929,1.2012,10.5476,43.1693,-0.1505,0.2656,-0.3137,358.8475
20:27:37:968,3.1944,0.8255,10.5236,43.7891,-0.2923,0.2705,-0.4566,359.1632
20:27:37:986,3.1514,0.7202,11.1242,46.4911,-0.5097,0.0848,-0.679,359.779
20:27:38:006,3.0293,0.9404,11.7224,44.6458,-0.7822,-0.0679,-0.8561,0.6157
20:27:38:025,2.5292,1.3208,11.7081,44.9738,-0.9373,0.1166,-0.8769,1.4424
20:27:38:047,2.2086,1.6774,11.208,45.4153,-0.8396,0.4452,-0.8073,2.1147
20:27:38:067,2.9384,1.6415,10.4088,44.9738,-0.5561,0.5588,-0.6704,2.618
20:27:38:087,3.7232,1.8114,9.9039,43.7716,-0.3448,0.3634,-0.6105,3.0588
20:27:38:105,3.6251,1.6439,9.8752,44.4753,-0.4144,-0.0117,-0.7926,3.7837
20:27:38:124,2.5053,1.4357,10.5835,43.8747,-0.6124,-0.3709,-1.1188,5.0098
20:27:38:144,0.6843,1.3807,10.8227,44.2309,-0.6209,-0.5566,-1.3863,6.6176
20:27:38:164,-0.8829,1.5482,10.4423,45.1716,-0.3436,-0.4576,-1.4328,8.3396
20:27:38:185,-1.6271,1.6367,9.4397,43.3036,0.1744,-0.1192,-1.186,9.7179
20:27:38:207,-1.4094,1.8616,8.0925,46.6764,0.7645,0.2522,-0.7657,10.5407
20:27:38:226,-0.7011,2.2516,7.0397,45.9281,1.2007,0.3878,-0.4053,10.9051
20:27:38:245,-0.1603,2.924,6.3482,44.4047,1.3412,0.2693,-0.2465,11.0933
20:27:38:269,0.2847,3.2806,6.0586,44.727,1.186,0.1105,-0.2587,11.318
20:27:38:288,0.2608,3.3882,6.5396,44.8901,0.7877,-0.0251,-0.4273,12.4712
20:27:38:309,-0.9476,3.6802,8.9898,45.0907,-0.0907,-0.1742,-0.69,13.2825
20:27:38:326,-1.4692,3.74,9.8082,44.7177,-0.2324,-0.0936,-0.6069,13.9769
20:27:38:345,-1.9143,4.0271,10.4949,45.405,-0.1701,0.0824,-0.4102,14.4148
20:27:38:369,-1.5099,4.0032,10.9902,43.5871,-0.0027,0.2057,-0.139,14.5225
20:27:38:387,-0.8183,3.9553,11.0333,44.5794,0.1879,0.2534,0.1103,14.3369
20:27:38:409,-0.4714,3.9529,10.9783,42.6783,0.3369,0.3475,0.2337,13.9483
20:27:38:426,-0.6963,3.7998,10.5811,40.8909,0.3919,0.433,0.2104,13.551
20:27:38:445,-1.3185,3.4576,10.1934,46.5953,0.3711,0.5038,0.1591,13.2108
20:27:38:474,-1.9334,3.1968,9.9685,45.2766,0.3113,0.5038,0.1713,12.9045
20:27:38:486,-2.1296,3.0221,9.8776,45.8487,0.2477,0.3817,0.2837,12.5235
20:27:38:504,-1.6104,2.6584,9.8273,45.2766,0.2099,0.2119,0.4621,12.0008
20:27:38:524,-1.0289,2.5101,9.4277,46.484,0.2123,0.0811,0.5867,11.3916
20:27:38:544,-0.7825,2.4096,9.1095,47.8481,0.2111,0.0604,0.588,10.7773
20:27:38:566,-0.7777,2.1799,8.9898,47.3289,0.1243,-0.0178,0.4926,10.3174
20:27:38:587,-0.8877,2.3163,8.9444,47.0038,-0.043,-0.1082,0.4083,9.9888
20:27:38:606,-0.7178,2.3928,8.9204,48.2186,-0.2177,-0.0679,0.4035,9.637
20:27:38:625,-0.3374,2.4167,8.7075,48.0754,-0.3228,0.0848,0.4352,9.1884
20:27:38:644,-0.1675,2.4526,8.3581,47.1822,-0.3338,0.2509,0.423,8.6695
20:27:38:667,-0.5575,2.5866,7.9896,47.8707,-0.269,0.3304,0.357,8.2094
20:27:38:686,-1.139,2.7087,7.7336,47.5949,-0.1469,0.3072,0.3338,7.7842
20:27:38:706,-1.3089,2.7996,7.3795,46.6942,0.0168,0.1776,0.3986,7.3484
20:27:38:728,-0.9978,2.8929,7.0253,47.0254,0.1842,0.0616,0.5269,6.8152
20:27:38:754,-0.4738,3.1585,6.6951,46.2564,0.3039,0.053,0.6441,6.1427
20:27:38:767,0.1962,3.4911,6.8626,48.5263,0.3064,0.2033,0.6808,5.3537
20:27:38:788,0.414,3.5151,7.3316,48.4762,0.216,0.0188,0.577,3.9483
20:27:38:805,0.4714,3.4481,7.8987,46.738,0.1219,-0.1424,0.4475,3.5101
20:27:38:827,0.39,3.6802,8.7984,46.738,0.0168,-0.2096,0.3338,3.2475
20:27:38:849,0.5862,3.9003,9.6957,46.9649,-0.0833,-0.256,0.2434,3.0904
20:27:38:867,1.3831,3.5701,10.6337,47.2256,-0.1163,-0.2365,0.1567,2.9795
20:27:38:885,1.5577,3.2207,11.4162,46.3074,-0.1078,-0.2231,-0.018,3.037
20:27:38:905,0.9117,3.0867,11.9234,47.5949,-0.1139,-0.3196,-0.2404,3.3732
