Time,Acc_X,Acc_Y,Acc_Z,Meg,Gyr_X,Gyr_Y,Gyr_Z,Ore
16:58:08:286,1.2203,3.0461,9.2124,48.0415,0.1353,0.006,0.2469,340.2874
16:58:08:314,-0.1603,3.2566,8.9348,46.7284,0.4591,0.0036,-0.0011,181.3223
16:58:08:331,-0.1603,3.2566,8.9348,46.692,0.4591,0.0036,-0.0011,181.3082
16:58:08:350,-0.2034,3.2877,9.3607,48.0068,0.4591,0.0036,-0.0011,181.2812
16:58:08:380,-0.1101,3.393,9.1765,46.6433,-0.12,0.0097,0.1039,181.2258
16:58:08:396,0.0383,3.4098,9.0856,46.6886,-0.1212,-0.0111,0.121,181.1986
16:58:08:407,0.0838,3.3141,9.2291,46.019,-0.1762,-0.0551,0.1174,181.1618
16:58:08:426,0.0885,3.2088,9.6359,47.3643,-0.2471,-0.0453,0.1125,181.117
16:58:08:445,0.0694,3.1561,9.8536,47.313,-0.2715,0.0097,0.1235,181.0216
16:58:08:464,0.0048,3.1346,9.7675,47.4035,-0.2092,0.0939,0.1503,180.8491
16:58:08:488,-0.0072,3.1896,9.4516,48.19,-0.0968,0.1575,0.1797,180.6125
16:58:08:503,0.055,3.1824,9.0832,47.3681,-0.0088,0.122,0.1943,180.3909
16:58:08:532,0.0574,3.1944,8.8822,48.0412,0.0278,0.0414,0.1931,180.1985
16:58:08:543,0.0263,3.2064,8.7075,46.7496,0.029,-0.005,0.187,179.9816
16:58:08:562,-0.0646,3.1346,8.808,48.8147,-0.0137,0.0231,0.1821,179.7729
16:58:08:581,-0.1531,3.0844,9.0018,47.5153,-0.0662,0.0817,0.198,179.5172
16:58:08:601,-0.1699,3.0676,9.2554,47.3548,-0.0968,0.1428,0.2322,179.2376
16:58:08:634,0,2.9575,9.3512,48.0606,-0.1041,0.1856,0.2786,178.9532
16:58:08:640,0.2632,2.8235,9.6359,46.0888,-0.1261,0.1624,0.3202,178.7007
16:58:08:672,0.4834,2.7757,9.7675,47.3982,-0.1518,0.1526,0.3519,178.3567
16:58:08:679,0.3829,2.9527,9.7484,45.5326,-0.1237,0.2601,0.3715,177.9456
16:58:08:702,0.2201,3.1226,9.5904,46.0761,-0.0614,0.3982,0.3825,177.4379
16:58:08:735,0.1938,3.2614,9.2411,47.7829,0.0046,0.4348,0.3935,176.9238
16:58:08:741,0.0838,3.2782,8.8534,47.712,0.0449,0.4116,0.3739,176.3949
16:58:08:761,-0.0766,3.3476,8.5352,47.5165,0.0351,0.3847,0.3226,175.9191
16:58:08:782,-0.1268,3.283,8.6237,47.0566,-0.0589,0.3139,0.2774,175.5522
16:58:08:823,-0.079,3.0126,9.3033,47.1115,-0.2348,0.2063,0.2371,175.2563
16:58:08:824,-0.0598,2.7111,9.99,47.5978,-0.3766,0.1416,0.2029,174.999
16:58:08:849,-0.1196,2.5101,10.6624,45.833,-0.3998,0.1391,0.1919,174.7917
16:58:08:861,-0.2608,2.3354,10.6457,46.3138,-0.28,0.1575,0.2078,174.5204
16:58:08:890,-0.3972,2.3665,9.9852,47.785,-0.054,0.2198,0.2444,174.2144
16:58:08:909,-0.469,2.3952,9.2889,46.368,0.1353,0.2821,0.286,173.8127
16:58:08:932,-0.5599,2.4694,8.6668,46.5834,0.2086,0.2687,0.3104,173.4017
16:58:08:942,-0.67,2.613,8.5208,47.785,0.1842,0.2418,0.3116,172.9634
16:58:08:965,-0.7131,2.6249,8.5448,47.3238,0.1255,0.2271,0.2884,172.5701
16:58:08:980,-0.6221,2.5962,8.7577,46.6562,0.0437,0.1599,0.2469,172.2437
16:58:09:003,-0.4905,2.5077,9.1765,46.0029,-0.0724,0.0744,0.1955,172.0145
16:58:09:025,-0.3637,2.1368,10.2341,47.4114,-0.2556,0.0463,0.0648,171.8085
16:58:09:045,-0.4355,2.0602,10.7366,47.4054,-0.2581,0.0439,0.0221,171.7882
16:58:09:063,-0.8016,2.1009,10.7366,46.6719,-0.1603,0.072,0.0037,171.7662
16:58:09:081,-1.1749,2.3043,10.0235,48.1617,0.0266,0.1379,0.0428,171.6487
16:58:09:123,-1.0289,2.5508,9.2387,45.3338,0.1879,0.1465,0.1516,171.4158
16:58:09:124,-0.6485,2.7996,8.6859,46.1607,0.244,0.0866,0.264,171.0957
16:58:09:143,-0.3326,3.0652,8.4084,45.3338,0.2343,0.0341,0.3275,170.7369
16:58:09:160,-0.0814,3.2997,8.3844,47.5887,0.1891,-0.0123,0.3421,170.3918
16:58:09:181,0.1675,3.4098,8.5137,46.8744,0.128,-0.0856,0.3263,170.0939
16:58:09:207,0.4355,3.5246,8.6405,46.2584,0.0767,-0.1504,0.2835,169.8693
16:58:09:238,0.4355,3.6443,8.6764,46.9883,0.029,-0.1834,0.2102,169.7386
16:58:09:243,0.3876,3.649,8.8104,46.281,-0.0382,-0.2041,0.1247,169.6898
16:58:09:260,0.4475,3.5988,9.1238,47.1428,-0.1176,-0.2237,0.0538,169.7324
16:58:09:280,0.3876,3.4959,9.3918,47.5403,-0.1591,-0.2115,-0.0146,169.8325
16:58:09:300,0.2273,3.539,9.399,49.1122,-0.1347,-0.1431,-0.0695,169.9698
16:58:09:324,0.122,3.5964,9.0712,46.4687,-0.0675,-0.093,-0.1001,170.1155
16:58:09:342,0.0814,3.6299,8.6357,47.0292,-0.0113,-0.1076,-0.1319,170.3178
16:58:09:360,-0.0694,3.6108,8.4132,47.8465,-0.0052,-0.132,-0.171,170.5333
16:58:09:382,-0.2823,3.6371,8.4562,48.3597,-0.0406,-0.1455,-0.1966,170.7541
16:58:09:403,-0.2776,3.6778,8.6979,47.7836,-0.0846,-0.1736,-0.1929,170.9954
16:58:09:422,-0.1292,3.661,9.0186,47.6928,-0.1053,-0.2017,-0.1746,171.2304
16:58:09:441,-0.0072,3.7184,9.1119,47.1675,-0.0858,-0.2041,-0.1661,171.4606
16:58:09:461,0.1388,3.7256,9.1167,47.7836,-0.0602,-0.2078,-0.171,171.6735
16:58:09:484,0.2704,3.6921,9.3296,48.681,-0.0772,-0.2567,-0.2259,172.2705
16:58:09:504,0.2106,3.6993,9.5569,46.4794,-0.0834,-0.2371,-0.2455,172.5673
16:58:09:523,0.0742,3.7304,9.6479,47.0292,-0.037,-0.1944,-0.2528,172.856
16:58:09:543,-0.0861,3.7807,9.4062,48.5603,0.0681,-0.1785,-0.2553,173.145
16:58:09:560,-0.3039,3.8788,9.0688,48.471,0.1781,-0.2102,-0.2455,173.4123
16:58:09:588,-0.4355,3.996,8.7625,49.0553,0.2355,-0.2701,-0.2198,173.6656
16:58:09:607,-0.4092,4.142,8.9324,48.7763,0.2001,-0.3507,-0.1807,173.9055
16:58:09:623,0.0455,3.8142,9.3966,49.788,0.0547,-0.4937,-0.1404,174.1783
16:58:09:640,0.5958,3.3404,10.0905,49.4276,-0.164,-0.6403,-0.1111,174.4551
16:58:09:659,0.9643,2.9145,11.3755,48.2285,-0.4303,-0.6354,-0.0744,174.735
16:58:09:680,1.3472,2.4383,12.7178,49.5309,-0.6075,-0.4766,-0.0268,174.9029
16:58:09:700,1.7587,2.1248,13.6223,49.2677,-0.5855,-0.3471,0.0062,174.984
16:58:09:722,2.1057,1.7539,14.199,48.1184,-0.3998,-0.3397,0.0062,175.0635
16:58:09:741,2.388,1.4453,14.0865,49.5309,-0.0675,-0.4277,-0.0305,175.2217
16:58:09:761,2.4526,1.4477,12.8016,49.2677,0.3943,-0.5181,-0.0928,175.4618
16:58:09:789,2.5938,1.6104,10.873,50.4627,0.7889,-0.5621,-0.1783,175.8187
16:58:09:807,2.7398,1.7204,9.2578,48.2467,0.9038,-0.5401,-0.2809,176.2926
16:58:09:825,2.4933,1.8664,8.3821,48.6397,0.7841,-0.3996,-0.4092,176.86
16:58:09:842,1.9358,1.9454,8.1212,49.9175,0.58,-0.2334,-0.5497,177.4984
16:58:09:862,1.1916,1.9765,7.949,51.0529,0.4249,-0.1565,-0.6743,178.2202
16:58:09:884,0.5384,2.0698,7.6403,51.2447,0.3381,-0.1968,-0.7537,179.0238
16:58:09:903,0.1484,2.2253,7.0421,50.3203,0.2685,-0.253,-0.7549,179.8292
16:58:09:923,-0.4164,2.6369,7.2455,49.6121,-0.0589,-0.1907,-0.6303,180.571
16:58:09:942,-0.5599,2.7613,7.6905,51.6749,-0.2104,-0.1675,-0.5326,181.7745
16:58:09:961,-0.201,2.8666,7.8365,50.7796,-0.2752,-0.176,-0.4031,182.1749
16:58:09:984,0.3015,3.0054,8.3557,50.7796,-0.2727,-0.1308,-0.2736,182.4319
16:58:10:002,0.859,3.015,8.4634,51.6223,-0.219,-0.027,-0.1929,182.5797
16:58:10:022,1.0074,3.1872,8.4754,52.9495,-0.1127,0.1306,-0.1905,182.6945
16:58:10:041,0.8734,3.3045,8.1763,50.8319,-0.0345,0.2051,-0.2418,182.8056
16:58:10:060,0.603,3.4098,7.8197,52.8856,0.0058,0.2027,-0.2956,182.9882
16:58:10:084,0.4714,3.5127,7.4871,50.5376,-0.0321,0.1526,-0.32,183.1904
16:58:10:104,0.4738,3.6395,7.4632,50.7563,-0.0968,0.1905,-0.2834,183.3445
16:58:10:122,0.8255,3.7759,7.7049,51.6896,-0.153,0.2735,-0.2149,183.4283
16:58:10:141,1.0098,3.9075,7.8867,51.9809,-0.1664,0.3163,-0.1905,183.4517
16:58:10:161,1.1557,3.996,8.2481,53.1971,-0.1518,0.2931,-0.2174,183.5232
16:58:10:185,1.1222,3.9386,8.6022,53.62,-0.1139,0.2308,-0.2614,183.6594
16:58:10:202,1.0337,3.9027,9.0257,51.6776,-0.0565,0.1098,-0.3127,183.9046
16:58:10:222,1.0409,3.9099,9.387,54.5269,0.0376,-0.0282,-0.3322,184.2068
16:58:10:241,0.9643,3.9577,9.8848,52.6959,0.1549,-0.1076,-0.3493,184.4703
16:58:10:349,0.7083,3.8716,10.861,53.2788,0.2795,-0.1992,-0.3725,184.8223
16:58:10:360,0.4977,3.7352,11.0883,55.1803,0.4078,-0.4033,-0.3786,185.293
16:58:10:360,0.2608,4.0606,10.4901,53.2155,0.4969,-0.5255,-0.3444,185.7705
16:58:10:361,0.28,4.0822,10.3083,55.0563,0.453,-0.2835,-0.254,186.0628
16:58:10:362,0.1747,3.8644,10.9663,54.243,0.2062,-0.0355,-0.1819,186.1839
16:58:10:362,-0.1723,3.6945,11.9689,54.34,-0.1004,-0.1052,-0.1587,186.3062
16:58:10:380,-0.4786,3.2877,11.8636,54.243,-0.1725,-0.1968,-0.149,186.4462
16:58:10:401,-0.7059,3.2806,9.612,54.9623,-0.0113,0.0597,-0.1685,186.5629
16:58:10:420,-0.3422,2.9264,9.8513,54.243,-0.2959,0.1379,-0.1196,186.6538
16:58:10:440,-0.2632,2.3857,10.2317,55.6357,-0.5928,0.1453,-0.0806,186.5964
16:58:10:459,-0.5695,2.0243,10.1695,55.0124,-0.6563,0.2222,-0.0854,186.5105
16:58:10:480,-0.8877,1.9382,9.521,55.1885,-0.5855,0.2992,-0.0695,186.393
16:58:10:504,-0.6245,1.9932,8.9683,55.8402,-0.5073,0.342,0.0208,186.1636
16:58:10:525,0.0144,1.9478,8.2911,54.7324,-0.4816,0.3188,0.1296,185.8433
16:58:10:541,0.4977,1.8497,8.3988,56.7424,-0.5,0.2234,0.1809,185.5177
16:58:10:562,0.6508,1.9262,8.7075,55.0246,-0.5488,-0.0135,0.1674,185.286
16:58:10:581,1.139,2.01,8.6979,57.8322,-0.478,-0.2115,0.1858,185.0917
16:58:10:604,1.4501,2.1224,8.1811,55.6215,-0.2287,-0.0832,0.2114,184.8639
16:58:10:622,1.4477,2.3809,7.59,56.6927,0.0522,0.2198,0.1711,184.5746
16:58:10:640,1.3567,2.5651,6.6353,54.3926,0.2318,0.3969,0.0783,184.3487
16:58:10:661,1.0648,2.6943,6.5491,56.9351,0.2551,0.331,-0.0671,184.2758
16:58:10:681,0.7489,2.7015,6.6712,55.5569,0.1658,-0.0001,-0.2174,184.4458
16:58:10:702,0.6245,2.6728,6.5444,56.2583,0.0962,-0.3165,-0.2956,184.8047
16:58:10:721,0.4905,2.7613,7.0158,58.201,0.04,-0.3752,-0.3029,185.1664
16:58:10:741,0.1603,2.8235,7.9298,55.5267,0.0083,-0.3849,-0.2992,185.5271
16:58:10:765,-0.3757,2.9839,8.0614,57.2481,0.1475,-0.4925,-0.3347,185.9479
16:58:10:783,-0.7705,3.3212,7.2239,57.3735,0.4249,-0.5914,-0.3652,186.4254
16:58:10:803,-0.4475,3.5222,7.1952,58.5958,0.4737,-0.6427,-0.3163,186.879
16:58:10:819,-0.0933,3.2423,8.1284,56.1296,0.062,-0.8431,-0.2271,187.3228
16:58:10:840,0.055,2.7135,10.5428,56.0441,-0.423,-0.8333,-0.0732,187.5868
16:58:10:866,1.4812,2.2732,13.6056,56.9351,-0.4377,-0.2884,0.3312,187.234
16:58:10:882,3.1824,1.6128,14.1081,57.602,-0.4731,-0.4424,0.3922,186.8864
16:58:10:902,4.1755,1.017,15.5725,58.9398,-0.6331,-0.5584,0.2908,186.6807
16:58:10:921,4.118,0.256,17.0417,57.0575,-0.7345,-0.5169,0.0795,186.6646
16:58:10:940,3.7807,0.0455,16.6612,57.013,-0.4902,-0.2664,-0.028,186.6925
16:58:10:963,3.9218,0.323,15.3045,58.0445,0.0608,0.1624,0.0526,186.521
16:58:10:983,4.2305,0.9954,13.1055,57.129,0.5861,0.2723,0.1308,186.2484
16:58:11:000,4.5511,1.7946,10.5428,57.7952,0.9233,0.133,0.0807,186.08
16:58:11:019,4.4602,2.4287,8.54,59.1076,0.9539,0.0219,-0.1196,186.1686
16:58:11:040,3.7352,2.5842,7.334,57.4547,0.712,0.0268,-0.4092,186.5621
16:58:11:062,2.5436,2.4526,6.6855,57.5213,0.4212,0.1868,-0.6755,187.1744
16:58:11:080,1.2969,2.4526,6.0491,59.2664,0.277,0.4153,-0.8221,187.8391
16:58:11:102,0.3948,2.6584,5.1948,57.9814,0.266,0.4959,-0.8356,188.4763
16:58:11:120,-0.2991,2.9599,4.9699,60.5653,0.2502,0.2821,-0.7623,189.0957
16:58:11:141,-0.8853,3.2064,5.3886,59.1468,0.139,-0.4216,-0.6474,189.8131
16:58:11:163,-0.4738,3.2495,5.2762,59.2604,-0.0198,-1.559,-0.4947,190.7919
16:58:11:181,0.3661,3.5438,5.3647,61.1662,-0.1298,-2.2811,-0.3469,191.8933
16:58:11:202,1.5721,3.5677,6.0132,58.5306,-0.2544,-2.1907,-0.2271,192.8598
16:58:11:221,2.1057,3.5342,7.1067,61.2831,-0.3705,-1.4979,-0.2161,193.5625
16:58:11:244,2.0722,3.472,8.6764,61.5529,-0.2935,-0.5316,-0.2772,193.9669
16:58:11:260,1.6439,3.4768,9.1382,62.8735,-0.0015,0.1367,-0.364,194.2262
16:58:11:280,0.9834,3.5581,8.5208,62.8867,0.3442,0.3481,-0.4788,194.534
16:58:11:301,0.5097,3.6036,7.8796,62.3156,0.4969,0.3493,-0.5228,194.8673
16:58:11:324,0.3446,3.8883,8.8774,60.2321,0.0938,0.59,-0.2406,195.0657
16:58:11:346,0.792,3.7759,10.6624,62.3897,-0.2043,0.9003,-0.0793,194.6942
16:58:11:364,1.3376,3.9194,12.0981,61.6425,-0.4132,1.0054,0.0367,194.1633
16:58:11:384,1.8018,3.6203,13.2969,61.8059,-0.5061,0.9821,0.0172,193.6817
16:58:11:399,1.5051,2.8044,14.1703,61.2631,-0.5159,0.8893,-0.1416,193.3954
16:58:11:419,-0.0718,2.479,13.809,63.3543,-0.3827,0.8294,-0.3273,193.3172
16:58:11:440,-1.8568,2.7278,12.1436,62.7947,-0.037,1.185,-0.3444,193.1231
16:58:11:461,-2.6225,3.1705,10.2772,64.4132,0.2392,1.56,-0.1514,192.6095
16:58:11:481,-2.1224,3.137,9.5091,63.9166,0.1585,1.4134,0.0844,191.9034
16:58:11:500,-1.1246,2.4742,9.4756,63.9911,-0.263,0.7708,0.2127,191.2915
16:58:11:519,-0.4475,1.5697,10.605,62.8231,-0.7834,0.3297,0.2652,190.7886
16:58:11:540,-0.0742,0.7777,12.3637,62.9216,-1.0558,0.4018,0.3483,190.1907
16:58:11:561,0.0861,0.5551,12.8638,63.2151,-0.8701,0.6437,0.4546,189.4269
16:58:11:579,0.3924,0.7011,11.5286,63.7678,-0.28,0.8233,0.5511,188.5199
16:58:11:600,0.6532,1.0887,9.0856,64.6486,0.3027,0.7781,0.5853,187.5905
16:58:11:622,0.9906,1.5123,7.2742,63.7971,0.5556,0.5716,0.5853,186.7227
16:58:11:647,1.1677,1.8688,6.9153,65.4805,0.4603,0.3273,0.5547,185.9548
16:58:11:662,1.3017,1.986,7.0851,64.5615,0.2807,0.1025,0.5132,185.2921
16:58:11:681,1.3495,2.0483,7.4178,63.4983,0.2318,-0.0209,0.4546,184.7475
16:58:11:700,1.2993,2.144,7.3699,64.616,0.3161,-0.1113,0.358,184.3479
16:58:11:719,1.2156,2.2277,6.8124,63.7875,0.4566,-0.2469,0.242,184.097
16:58:11:742,0.9715,2.4909,6.2094,64.9763,0.5336,-0.3874,0.1149,184.0235
16:58:11:758,0.7992,2.668,5.9677,64.4816,0.4811,-0.4473,0.0184,184.0782
16:58:11:779,0.347,2.9791,6.7071,63.5749,0.1768,-0.33,-0.0598,184.1742
16:58:11:798,0.4857,2.9839,7.1952,64.4462,0.0925,-0.3177,-0.0744,184.4685
16:58:11:818,0.603,3.1035,7.736,64.4462,0.062,-0.4424,-0.1441,184.6969
16:58:11:838,0.4498,3.1753,8.3773,64.4462,0.007,-0.6061,-0.2638,185.1059
16:58:11:859,-0.1866,3.3165,9.1669,64.4462,-0.0797,-0.6268,-0.364,185.6139
16:58:11:878,-0.9188,3.5103,9.545,64.4462,-0.1603,-0.4179,-0.3786,186.0496
16:58:11:898,-0.9643,3.4552,10.0977,64.4462,-0.3069,-0.0465,-0.2907,186.2568
16:58:11:918,0.0694,2.3904,11.3851,64.4462,-0.6038,0.3175,-0.2039,186.258
16:58:11:938,0.6102,1.1198,14.4574,64.4462,-0.9838,0.3823,-0.2931,186.3395
16:58:11:959,-0.0526,0.4881,17.738,64.4462,-1.1487,0.0536,-0.4446,186.677
16:58:11:978,-0.146,-0.2489,18.0945,65.0683,-0.7064,-0.2664,-0.4141,187.0703
16:58:11:999,-0.5671,0.4786,15.7998,67.7212,0.1512,-0.3129,-0.2858,187.3472
16:58:12:021,0.134,1.0098,11.8253,66.24,0.9343,-0.1479,-0.0292,187.3268
16:58:12:040,0.2177,1.8784,8.2529,68.0624,1.2202,0.1111,0.2456,186.9387
16:58:12:059,1.0624,2.9001,6.9535,66.66,0.8647,0.2723,0.4314,186.3224
16:58:12:081,1.7252,3.0413,7.2,67.299,0.2208,0.3126,0.49,185.6445
16:58:12:100,1.8712,2.8068,8.2337,67.0531,-0.3228,0.0683,0.2811,185.2675
16:58:12:125,1.328,2.6871,8.5376,67.4467,-0.5892,-0.2689,-0.0806,185.3515
16:58:12:144,0.8495,2.3378,8.0231,68.0067,-0.5366,-0.3678,-0.3273,185.7416
16:58:12:163,0.2177,2.3043,7.8963,67.4054,-0.3326,-0.275,-0.463,186.2383
16:58:12:180,-0.146,2.333,7.5278,66.1266,-0.098,-0.2444,-0.4581,186.7024
16:58:12:202,0.0502,2.4335,6.5181,67.4514,0.1378,-0.1638,-0.3347,187.0288
16:58:12:224,0.146,2.6824,5.8911,67.3104,0.2575,0.0194,-0.2357,187.1888
16:58:12:241,0.4498,3.0245,6.6425,68.1251,0.0425,0.2369,-0.1587,187.264
16:58:12:261,0.7107,2.9695,7.2072,68.9227,-0.076,0.1758,-0.1502,187.382
16:58:12:279,0.926,3.1466,8.0016,66.509,-0.1127,0.1416,-0.1795,187.4421
16:58:12:298,1.1151,3.2112,8.7864,67.3509,-0.0858,0.1819,-0.2039,187.5318
16:58:12:319,1.0026,3.3212,9.0592,67.276,0.0193,0.2797,-0.2394,187.6263
16:58:12:338,0.3924,3.4648,8.9994,67.1412,0.1658,0.4751,-0.3004,187.7236
16:58:12:478,-0.2153,3.5581,9.0712,67.5805,0.2856,0.6449,-0.3298,187.78
16:58:12:479,-0.7729,3.4361,9.7077,67.6835,0.3149,0.601,-0.3176,187.8057
16:58:12:480,-1.2658,3.204,10.7557,67.2312,0.3039,0.2919,-0.276,187.8845
16:58:12:482,-1.2849,3.2184,11.2152,68.0544,0.3613,-0.0954,-0.1661,187.9852
16:58:12:483,-1.194,3.6969,11.1841,68.2742,0.4493,-0.2799,-0.0048,187.9874
16:58:12:483,-0.725,3.5749,11.2893,67.5886,0.4737,-0.1345,0.1235,187.8355
16:58:12:483,-0.6556,3.2303,12.1508,68.3205,0.2929,-0.0795,0.1662,187.6138
16:58:12:499,-1.2203,2.8594,12.95,67.631,-0.0174,-0.2677,0.1516,187.4606
16:58:12:525,-1.8377,2.6608,13.1629,67.6291,-0.109,-0.1467,0.2249,187.1862
16:58:12:543,-2.1942,2.6704,12.2967,67.6085,0.1023,0.3346,0.3397,186.6222
16:58:12:561,-2.2397,2.6943,11.1864,67.0435,0.2795,0.546,0.3751,185.9473
16:58:12:579,-1.8329,2.4503,10.3896,66.3635,0.2233,0.3346,0.3556,185.3608
16:58:12:600,-1.785,2.053,10.6696,67.0368,-0.0345,0.0903,0.3275,184.9052
16:58:12:624,-1.5386,1.6654,11.2008,67.715,-0.2544,0.0329,0.3898,184.4074
16:58:12:643,-0.9404,1.8425,10.4901,67.9436,-0.1151,0.2711,0.5364,183.6817
16:58:12:661,-0.3422,2.4359,8.9372,67.3723,0.1989,0.5179,0.5987,182.7952
16:58:12:680,-0.0096,2.7996,7.4752,65.4085,0.2355,0.3078,0.4277,181.9698
16:58:12:704,-0.2058,2.802,7.3172,66.5952,0.1304,0.1196,0.3336,180.9599
16:58:12:725,0.0215,2.8379,7.0732,66.8387,0.062,0.0341,0.3324,180.5527
16:58:12:741,0.3183,2.9288,6.7693,65.3871,0.0229,-0.0111,0.3568,180.1302
16:58:12:762,0.5934,3.082,6.4917,65.4925,-0.0088,-0.0453,0.3409,179.7488
16:58:12:779,0.6054,3.1418,6.2453,64.8425,-0.054,-0.1015,0.2786,179.4519
16:58:12:799,0.5264,3.1154,6.3769,67.0031,-0.1249,-0.1785,0.1943,179.2725
16:58:12:824,0.4522,3.0963,6.9583,66.3732,-0.2031,-0.2408,0.1406,179.1639
16:58:12:842,0.6365,2.9503,7.602,67.428,-0.2336,-0.297,0.1332,179.0865
16:58:12:862,0.8255,2.9312,7.937,66.3732,-0.1664,-0.3691,0.1113,179.0749
16:58:12:878,0.8136,3.2495,7.4202,66.1868,-0.0064,-0.3727,0.0538,179.1099
16:58:12:898,0.7035,3.6132,7.0253,64.8969,0.128,-0.2066,-0.0036,179.1514
16:58:12:917,0.5767,3.9482,7.0421,65.561,0.1512,0.0121,-0.039,179.1422
16:58:12:938,0.4164,4.1444,7.5948,66.255,0.1646,0.1929,-0.094,179.1189
16:58:12:957,0.1507,4.13,8.4706,64.4418,0.2172,0.2638,-0.1832,179.1559
16:58:12:979,-0.1699,4.0223,9.3368,64.3162,0.288,0.0891,-0.265,179.3292
16:58:13:001,-0.39,4.2544,9.9661,65.8682,0.2917,-0.3129,-0.2284,179.6236
16:58:13:020,-0.4905,4.7091,10.2317,67.8152,0.2147,-0.5816,-0.0683,179.8868
16:58:13:037,-0.1723,5.3145,10.7294,65.6814,0.1695,-0.4167,0.0477,179.9739
16:58:13:057,0.7274,5.1852,11.1697,65.7609,0.0803,-0.4253,0.1149,179.976
16:58:13:080,1.2012,4.6923,12.4738,64.2171,-0.2703,-0.8407,0.0599,180.2019
16:58:13:100,1.9478,2.9958,14.9145,65.471,-0.6417,-0.9115,-0.0647,180.5889
16:58:13:119,1.8042,1.3065,16.4076,64.0411,-0.6906,-0.6782,-0.2736,181.0829
16:58:13:145,0.5192,0.1172,16.9364,63.4972,0.1536,-0.1284,-0.2846,181.8441
16:58:13:164,1.2921,0.6006,13.7827,64.2244,0.6521,-0.1357,0.0269,181.8066
16:58:13:195,2.3043,1.8951,10.0355,62.7384,1.0125,0.1086,0.2408,181.4717
16:58:13:216,3.1154,2.8977,6.7597,63.453,0.9502,0.2063,0.22,181.1467
16:58:13:220,2.8666,3.3667,6.2357,64.2401,0.431,0.2149,-0.0158,181.0524
16:58:13:237,2.0267,2.8068,7.8508,63.6447,-0.1933,0.2222,-0.3004,181.2261
16:58:13:257,0.9882,2.2325,8.6405,64.1331,-0.4535,0.2503,-0.5045,181.5782
16:58:13:278,0.1436,2.3139,8.2792,63.969,-0.3033,0.3701,-0.5546,181.9342
16:58:13:298,-0.2632,2.5436,7.2096,63.969,0.0156,0.4556,-0.4776,182.1805
16:58:13:326,-0.3876,2.9695,6.2118,65.4085,0.2526,0.3273,-0.3579,182.352
16:58:13:338,-0.1986,3.2518,5.269,64.7217,0.343,0.0829,-0.2516,182.5086
16:58:13:358,-0.0311,3.4552,4.8215,65.172,0.3112,-0.06,-0.1856,182.6583
16:58:13:379,-0.0407,3.5749,4.934,63.8694,0.1805,-0.0221,-0.1453,182.7627
16:58:13:410,-0.0096,3.5462,5.6279,64.6352,0.0156,0.0756,-0.1001,182.7789
16:58:13:424,0.0215,3.4983,6.2429,63.2875,-0.0772,0.1782,-0.05,182.6965
16:58:13:438,0.0455,3.6802,6.9631,63.8896,-0.0919,0.2063,-0.0195,182.5674
16:58:13:458,0.2632,3.6754,7.3316,64.4982,-0.0834,0.0683,0.0135,182.471
16:58:13:477,0.4953,3.8142,7.8317,64.4454,-0.0492,-0.0563,0.0245,182.424
16:58:13:499,0.6197,3.8429,8.3629,65.2803,0.0156,-0.0429,0.0086,182.3938
16:58:13:517,0.4834,4.0319,8.6596,63.8964,0.1378,0.039,-0.0036,182.3309
16:58:13:538,0.4451,4.4602,8.8606,63.2218,0.288,0.0829,0.0074,182.2384
16:58:13:558,0.8925,4.7186,8.4156,63.0957,0.387,-0.0404,-0.0024,182.2156
16:58:13:577,1.6893,4.7474,8.5424,64.4986,0.2685,-0.297,-0.0793,182.4029
16:58:13:607,1.072,4.3382,11.4281,62.5397,-0.572,-0.5853,-0.3371,183.4695
16:58:13:626,0.0622,3.9984,12.1292,63.1552,-0.594,0.177,-0.3457,183.6819
16:58:13:638,-1.5099,3.9841,12.1508,61.8129,-0.2788,0.9846,-0.2968,183.4954
16:58:13:661,-3.149,4.5368,10.6241,63.7693,0.1231,1.1129,-0.2467,183.1944
16:58:13:693,-3.8022,4.8838,8.6333,62.9874,0.486,1.0359,-0.1514,182.8207
16:58:13:703,-3.9697,4.946,7.4871,62.3307,0.5214,0.8319,-0.0659,182.439
16:58:13:719,-3.6323,4.2736,8.1356,63.8067,0.051,0.2784,-0.0305,182.2603
16:58:13:737,-2.5699,2.7613,10.3992,62.4658,-0.7333,-0.523,0.0208,182.3851
16:58:13:757,-1.6032,1.3448,14.1392,62.2198,-1.4456,-1.1497,0.1284,182.6682
16:58:13:777,-0.2752,0.1819,15.9841,63.4984,-1.5971,-1.2072,0.3153,182.7402
16:58:13:798,0.1651,0.3589,15.1585,62.6279,-0.963,-0.4705,0.4582,182.3782
16:58:13:831,0.3493,1.0026,12.6963,63.698,-0.0345,0.3774,0.5083,181.683
16:58:13:839,0.6604,1.7587,9.1167,61.2831,0.6558,0.5936,0.5156,180.8949
16:58:13:859,0.9619,2.5603,6.329,62.4409,0.9685,0.436,0.4888,180.1898
16:58:13:880,1.3113,3.1178,4.5751,63.7771,0.9355,0.1477,0.4289,179.6566
16:58:13:912,1.2347,3.0532,3.8333,64.1543,0.6875,-0.115,0.3385,179.3229
16:58:13:917,1.9286,3.4792,3.8046,61.6884,0.4102,-0.1382,0.2908,179.0699
16:58:13:946,2.2277,3.2375,3.8668,62.4508,0.205,-0.1113,0.2298,178.8577
16:58:13:958,1.9789,3.3165,4.2999,64.5213,0.0803,-0.0331,-0.0219,178.8735
16:58:13:981,1.5362,3.338,4.6373,63.6604,-0.0064,-0.0392,-0.2968,179.1567
16:58:14:003,1.1629,3.1322,5.1015,63.6229,-0.1041,-0.1748,-0.4898,179.6956
16:58:14:021,0.6317,3.0652,5.9127,62.284,-0.2067,-0.3629,-0.6401,180.463
16:58:14:038,0.1675,3.0915,6.6042,61.5721,-0.3033,-0.5426,-0.7048,181.3604
16:58:14:058,-0.3637,3.6251,6.8746,64.0948,-0.4083,-0.3165,-0.6144,182.2506
16:58:14:080,-0.2249,3.5031,7.7145,62.8989,-0.5159,-0.0441,-0.557,183.54
16:58:14:101,-0.4092,3.0676,10.3872,61.5194,-0.8799,-0.0624,-0.5411,184.0716
16:58:14:118,-0.9787,2.4503,12.5934,63.1395,-1.2049,-0.0881,-0.4397,184.5029
16:58:14:139,-1.4477,2.6704,13.7611,62.6318,-1.145,0.265,-0.232,184.5978
16:58:14:159,-0.6939,2.8786,14.0411,61.6608,-0.919,0.5875,-0.0231,184.3862
16:58:14:183,1.1629,2.0435,15.8572,61.1566,-1.0534,0.1159,-0.017,184.3477
16:58:14:205,1.8329,0.5288,19.3986,62.3019,-1.5348,-0.815,-0.3408,184.9032
16:58:14:224,0.859,-0.9332,21.5952,64.486,-1.5641,-1.0044,-0.6902,185.8336
16:58:14:238,-1.0863,-0.7585,19.87,63.0775,-0.7235,-0.1601,-0.6584,186.5028
16:58:14:257,-1.3017,-0.1125,15.3141,63.0532,0.4371,0.6682,-0.2027,186.5273
16:58:14:278,-0.4475,0.7992,11.0118,62.9277,1.1982,0.7158,0.264,186.0495
16:58:14:298,0.6461,1.8855,8.0207,63.1343,1.4059,0.3407,0.4961,185.4112
16:58:14:318,1.5362,2.5196,6.1352,64.2328,1.2104,-0.005,0.4998,184.8593
16:58:14:339,1.6271,2.7757,5.2594,64.1092,0.8024,-0.0807,0.2798,184.5788
16:58:14:359,1.06,2.7254,4.867,63.8162,0.387,0.0988,-0.0182,184.5435
16:58:14:385,0.2345,2.7087,5.1876,63.8974,0.0632,0.342,-0.2589,184.673
16:58:14:400,-0.3135,2.6895,5.6949,64.0618,-0.1188,0.4018,-0.3896,184.9318
16:58:14:418,-0.4475,2.6512,5.8481,64.7169,-0.1151,0.2601,-0.4287,185.2702
16:58:14:438,-0.4738,2.7661,5.5944,64.0629,0.0193,0.0866,-0.4348,185.6726
16:58:14:458,-0.4618,2.9599,5.2905,63.5176,0.1182,-0.0368,-0.4471,186.1215
16:58:14:479,-0.5551,3.0748,5.1709,65.8334,0.0999,-0.0624,-0.4642,186.5757
16:58:14:581,-0.4857,3.1418,5.5609,62.8485,-0.0186,-0.0612,-0.469,187.0474
16:58:14:582,-0.1842,2.8666,8.0925,62.4071,-0.3619,-0.3043,-0.4874,188.1497
16:58:14:583,-0.1507,2.6752,9.2004,64.76,-0.3741,-0.4216,-0.5253,188.7818
16:58:14:584,-0.067,2.5651,9.7579,64.0642,-0.28,-0.4546,-0.535,189.4254
16:58:14:584,-0.1603,2.6082,9.99,64.105,-0.1139,-0.2958,-0.4947,190.0032
16:58:14:598,-0.2943,2.6536,10.1671,63.328,0.0327,-0.0746,-0.4299,190.449
16:58:14:617,-0.5145,2.8594,10.4471,64.1121,0.1598,0.0561,-0.3542,190.7562
16:58:14:637,-0.4235,3.0413,10.9113,63.3754,0.2819,-0.0074,-0.2785,191.0226
16:58:14:660,-0.1555,3.3476,11.0237,65.4925,0.3797,-0.2457,-0.2223,191.3032
16:58:14:681,0.0287,3.9912,10.8754,64.7255,0.3955,-0.4265,-0.2064,191.622
16:58:14:702,0.9619,3.7878,11.7248,64.1497,0.2086,-0.4253,-0.2381,191.9911
16:58:14:721,1.151,3.2088,13.7731,63.8863,-0.1738,-0.5108,-0.3774,192.5371
16:58:14:739,0.1388,2.4431,14.8522,64.7983,-0.4034,-0.5755,-0.5876,193.3025
16:58:14:757,-1.6104,2.4431,13.9956,63.4047,-0.197,-0.1968,-0.7024,194.0547
16:58:14:779,-2.3689,2.7206,12.3159,63.4061,0.1341,0.3297,-0.5705,194.5101
16:58:14:798,-2.1751,2.5699,11.6315,63.6948,0.1243,0.3994,-0.3676,194.7267
16:58:14:819,-1.8066,2.1152,11.6076,63.7122,-0.1518,0.1489,-0.2895,194.9395
16:58:14:838,-1.8879,1.7827,11.0333,65.1561,-0.3619,0.1905,-0.2589,195.1235
16:58:14:859,-2.2325,1.6199,10.3203,64.1495,-0.4205,0.6413,-0.1587,195.0634
16:58:14:880,-2.4431,1.5003,9.9637,65.2662,-0.3986,1.0493,0.0428,194.701
16:58:14:898,-2.1846,1.529,9.8106,64.7497,-0.291,1.1055,0.3043,194.0488
16:58:14:919,-1.2706,1.4883,9.4899,64.3591,-0.0797,0.783,0.5364,193.2426
16:58:14:938,-0.256,1.5529,8.9109,67.3529,0.2013,0.3652,0.6647,192.4266
16:58:14:962,0.3422,1.5721,8.0255,65.1561,0.4518,0.0524,0.6647,191.0852
16:58:14:979,0.3876,1.7061,6.4606,65.3534,0.7303,-0.0197,0.5205,190.5512
16:58:14:998,0.3398,1.8425,5.5513,63.7885,0.8293,0.1086,0.5083,189.9834
16:58:15:018,0.4522,2.0339,4.8503,64.0404,0.8488,0.2014,0.5279,189.3671
16:58:15:037,0.6485,2.2469,4.6181,65.2567,0.7621,0.1856,0.5315,188.75
16:58:15:059,0.8829,2.3857,4.7856,64.877,0.5959,-0.016,0.4594,188.2957
16:58:15:079,0.9715,2.4239,5.0728,64.5995,0.4322,-0.3202,0.2945,188.1254
16:58:15:097,0.9404,2.5436,5.3384,64.0451,0.3161,-0.5865,0.0746,188.2853
16:58:15:118,0.6843,2.7541,5.805,65.4149,0.2538,-0.7063,-0.1343,188.7076
16:58:15:138,0.39,3.015,7.2215,66.4905,0.2013,-0.7222,-0.3188,189.3364
16:58:15:165,0.0957,3.0724,9.8058,66.6384,0.1194,-0.8639,-0.5253,190.2295
16:58:15:189,-0.079,2.7254,11.3204,64.8541,0.15,-0.9799,-0.7476,191.4024
16:58:15:200,-0.7657,3.3308,10.9543,62.146,0.2783,-0.7515,-0.893,192.6086
16:58:15:217,-1.2849,4.5129,10.8132,63.0543,0.1915,-0.198,-0.8221,193.5208
16:58:15:237,-0.0263,4.6804,11.6602,63.5985,-0.269,0.05,-0.634,194.15
16:58:15:258,1.8568,3.9577,14.6824,63.9335,-1.0204,-0.4485,-0.6853,195.0569
16:58:15:277,2.4479,2.3497,18.9918,62.7659,-1.6814,-1.1351,-1.0335,196.5613
16:58:15:297,1.6391,0.7059,20.7888,62.5906,-1.6728,-1.1913,-1.3695,198.3778
16:58:15:317,-0.5838,0.5695,18.8578,63.1301,-0.8567,-0.4216,-1.3548,199.9063
16:58:15:337,-1.4094,0.7681,14.8858,62.6881,0.1756,0.5142,-0.8258,200.5915
16:58:15:360,-0.3852,1.3711,11.0118,62.5694,0.9062,0.8087,-0.1025,200.4409
16:58:15:379,0.9284,2.2827,8.0662,63.231,1.2056,0.5154,0.3788,199.8899
16:58:15:398,2.1942,2.9408,5.8983,62.9818,1.1249,0.1318,0.534,199.3193
16:58:15:417,2.68,3.2806,4.6014,62.9292,0.7792,-0.0368,0.3458,199.0207
16:58:15:442,0.9428,2.9743,4.3741,63.6773,-0.0956,0.3273,-0.463,199.0908
16:58:15:464,-0.1484,2.7996,4.7593,60.722,-0.3167,0.5069,-0.6902,199.9868
16:58:15:482,-0.8183,2.7565,4.9005,63.2226,-0.3509,0.4519,-0.7232,200.5851
16:58:15:496,-1.0576,2.8522,4.8526,64.6062,-0.2642,0.2112,-0.6511,201.1759
16:58:15:517,-1.0193,3.0963,4.7713,61.0078,-0.1457,-0.0844,-0.5607,201.8011
16:58:15:537,-0.8183,3.3643,4.6995,62.8899,-0.0687,-0.319,-0.4886,202.4399
16:58:15:561,-0.603,3.5821,4.9173,62.8393,-0.0907,-0.4509,-0.4605,203.0972
16:58:15:581,-0.4307,3.728,6.0036,61.4745,-0.2263,-0.5377,-0.4813,203.7935
16:58:15:596,-0.457,3.74,8.0638,61.4745,-0.4169,-0.6599,-0.5411,204.6062
16:58:15:616,-0.2297,3.7878,9.8201,62.4675,-0.489,-0.8064,-0.612,205.5349
16:58:15:637,0.1651,3.6514,10.2628,60.7098,-0.3766,-0.6916,-0.6877,206.4862
16:58:15:660,-0.4068,3.8716,11.0931,60.709,-0.3106,-0.1992,-0.7928,207.3971
16:58:15:678,-1.6534,3.6969,12.5695,61.8882,-0.3167,0.2467,-0.8148,208.1718
16:58:15:696,-2.3641,3.7017,13.7994,61.5859,-0.164,0.2674,-0.6609,208.7635
16:58:15:720,-1.5314,3.6969,13.9908,60.1171,0.2208,-0.1101,-0.3481,209.1528
16:58:15:735,-0.3493,3.9553,13.5386,60.4422,0.5837,-0.6134,-0.0964,209.461
16:58:15:756,0.5216,4.1539,12.5097,60.4069,0.7743,-0.6916,-0.0305,209.7452
16:58:15:779,0.3733,4.5153,11.7751,60.204,0.7877,-0.2408,-0.0659,209.9189
16:58:15:807,-0.2465,4.4961,11.653,60.8611,0.5641,0.0878,-0.1441,210.0547
16:58:15:815,-1.2371,4.398,11.7607,60.3623,0.3186,0.2503,-0.2504,210.2233
16:58:15:836,-1.7659,4.1731,11.8875,59.5945,0.2099,0.3346,-0.3114,210.4214
16:58:15:856,-1.6223,3.5509,12.6485,59.3328,0.1048,0.0732,-0.3518,210.751
16:58:15:876,-1.139,2.6225,13.876,58.7457,-0.0345,-0.468,-0.4483,211.38
16:58:15:897,-1.3854,1.3735,13.2562,59.6072,0.1781,-0.3397,-0.5509,212.8483
16:58:15:917,-1.9932,1.4692,11.3157,58.2066,0.5043,0.5081,-0.3261,212.954
16:58:15:936,-1.8544,1.596,9.265,59.5796,0.7572,1.2863,0.0917,212.334
16:58:15:957,-1.1821,1.9262,7.5422,60.2659,0.8634,1.6187,0.4973,211.176
16:58:15:977,-0.067,2.2612,6.4678,60.3623,0.8232,1.5832,0.8125,209.7151
16:58:15:997,1.0887,2.4694,5.8983,58.7133,0.69,1.3609,0.9652,208.1741
16:58:16:018,1.8329,2.6178,5.7787,60.2989,0.5483,1.097,0.9029,206.8138
16:58:16:038,2.2564,2.7063,5.3456,60.6144,0.4994,0.8404,0.7197,205.7688
16:58:16:058,2.3761,2.7781,4.721,59.6854,0.5348,0.6291,0.4875,205.0576
16:58:16:077,2.2325,2.857,4.0439,61.4723,0.5397,0.4592,0.2395,204.6715
16:58:16:097,1.7539,2.7613,4.0845,58.1829,0.4249,0.2735,0.0025,204.586
16:58:16:116,1.2179,2.6225,4.3214,60.2641,0.2685,0.0158,-0.1673,204.8002
16:58:16:137,0.926,2.6058,4.4124,60.0454,0.1964,-0.2616,-0.2247,205.2098
16:58:16:158,0.9523,2.6656,4.4818,59.962,0.1585,-0.5975,-0.2198,205.7925
16:58:16:177,1.1031,2.68,4.343,60.5726,0.0987,-0.9506,-0.2308,206.5681
16:58:16:197,1.1797,2.7613,4.5081,58.5026,-0.0284,-1.1436,-0.2882,207.4995
16:58:16:216,1.2156,2.9193,5.3958,57.8212,-0.2678,-1.2536,-0.3872,208.577
16:58:16:241,1.2538,2.8235,7.6594,58.3793,-0.6283,-1.4723,-0.5277,209.8978
16:58:16:260,1.1342,2.5053,10.3083,56.9199,-0.9838,-1.829,-0.7293,211.5484
16:58:16:277,0.725,2.4814,12.0742,57.1863,-1.0485,-1.9146,-0.8967,213.3459
16:58:16:297,0.2847,3.1753,12.4451,55.4327,-0.8714,-1.515,-0.9187,214.9455
16:58:16:317,0.6772,3.8213,12.737,56.7648,-0.9117,-1.0728,-0.8185,216.2583
16:58:16:337,1.5027,3.8955,15.0772,55.1508,-1.321,-0.9518,-0.8172,217.4933
16:58:16:358,1.8066,1.8592,20.9444,54.7158,-1.7473,-1.2939,-1.3182,220.729
16:58:16:377,0.2369,1.0289,19.7551,53.4833,-1.1499,-1.0361,-1.5539,222.6199
16:58:16:396,-1.3783,1.194,16.5966,53.0381,-0.2849,-0.3984,-1.4208,224.1777
16:58:16:416,-0.6891,1.7587,13.4907,53.9642,0.3662,0.0646,-0.8417,225.0153
16:58:16:440,1.0528,2.3785,10.8538,54.1479,0.7083,0.1391,-0.2601,225.2443
16:58:16:456,2.2947,2.924,8.3557,54.8574,0.8781,0.1587,-0.0097,225.2456
16:58:16:476,2.7517,3.3906,6.1591,55.9657,0.8842,0.2931,-0.0647,225.2699
16:58:16:497,2.3378,3.5964,4.812,55.43,0.6875,0.458,-0.3469,225.5216
16:58:16:516,1.3232,3.5557,4.2688,54.4496,0.3564,0.5497,-0.7159,226.1088
16:58:16:538,0.1364,3.2853,4.3549,57.9417,0.051,0.546,-1.0103,226.982
16:58:16:556,-0.7968,3.1561,4.5081,55.3828,-0.0968,0.4458,-1.1373,228.0063
16:58:16:577,-1.4405,3.204,4.532,56.7081,-0.0712,0.2723,-1.0995,229.0473
16:58:16:704,-1.8544,3.4122,4.3119,56.4821,0.0376,0.0475,-0.9883,230.0629
16:58:16:705,-2.3354,3.6562,4.118,57.126,0.1011,-0.198,-0.8783,231.0456
16:58:16:705,-2.6991,3.8357,4.0439,57.3782,0.0571,-0.413,-0.7561,231.9893
16:58:16:706,-2.6967,4.0869,4.343,55.7563,-0.0931,-0.5157,-0.5863,232.7956
16:58:16:707,-2.4814,4.2975,5.3982,55.729,-0.3314,-0.5352,-0.4141,233.419
16:58:16:707,-2.4383,4.3645,7.3914,53.2499,-0.5745,-0.5645,-0.3114,233.9467
16:58:16:720,-2.601,4.2377,9.2985,54.5752,-0.6734,-0.6574,-0.2931,234.4797
16:58:16:737,-3.2231,4.0798,10.2126,55.6917,-0.5097,-0.6354,-0.2846,234.9633
16:58:16:758,-3.8979,4.1228,10.282,55.4654,-0.1897,-0.4155,-0.1685,235.2479
16:58:16:776,-4.0223,4.2592,10.2365,54.5884,0.0144,-0.2237,0.0783,235.2062
16:58:16:799,-3.5318,4.2903,10.9448,55.6019,0.0156,-0.0514,0.3678,234.1511
16:58:16:820,-1.7611,4.0175,14.2636,53.5939,-0.2324,-0.0661,0.7026,233.4004
16:58:16:839,-1.407,3.795,14.522,54.2653,-0.1041,0.1428,0.7209,232.5646
16:58:16:856,-1.3615,3.8046,14.0004,53.0475,0.1097,0.5826,0.7245,231.569
16:58:16:877,-1.5075,3.3284,14.0004,53.2116,0.0828,0.7769,0.7221,230.5257
16:58:16:897,-2.534,3.07,13.5577,54.8244,0.0681,1.042,0.7038,229.3653
16:58:16:922,-3.3954,3.1418,12.3757,53.7331,0.266,1.4647,0.8101,227.9587
16:58:16:938,-3.1848,3.0748,11.4425,51.0385,0.3626,1.4342,1.0251,226.3408
16:58:16:959,-1.9597,2.7589,11.5023,55.0585,0.1768,0.91,1.1864,224.743
16:58:16:977,-0.5838,2.053,12.1484,53.1287,-0.1371,0.4275,1.1998,223.306
16:58:16:997,0.1149,1.3759,13.1366,53.6409,-0.3448,0.3676,1.0825,222.0163
16:58:17:018,0.0383,0.7968,12.8734,52.6202,-0.3033,0.6523,0.9726,220.7474
16:58:17:038,-0.3183,0.6054,11.5358,53.4588,-0.076,1.1006,0.9921,219.307
16:58:17:062,-0.2919,0.4786,10.2509,52.9326,0.1011,1.3829,1.1607,217.6126
16:58:17:076,0.2584,0.5432,9.722,54.1668,0.183,1.4501,1.3953,215.6433
16:58:17:098,1.139,0.6532,9.3655,51.5372,0.2746,1.3499,1.5859,213.5192
16:58:17:117,1.7157,0.7896,8.8893,54.2362,0.4676,1.1788,1.658,211.3827
16:58:17:137,1.9836,0.9236,8.0638,54.2368,0.7608,0.9773,1.6421,209.3489
16:58:17:159,2.0554,1.0911,6.7238,53.106,1.1017,0.7793,1.5822,207.4371
16:58:17:180,2.0913,1.3256,5.2044,54.0039,1.3741,0.634,1.5052,204.0725
16:58:17:209,2.2134,1.6606,4.0175,52.7484,1.4572,0.4922,1.4136,202.6956
16:58:17:218,2.4861,2.0267,3.2351,53.0632,1.3204,0.342,1.2792,201.6134
16:58:17:237,2.6584,2.3641,3.0724,52.497,1.0235,0.1929,1.0752,200.883
16:58:17:256,2.3521,2.8546,3.8022,53.2862,0.3968,-0.1431,0.5181,200.5307
16:58:17:282,1.8712,3.1298,4.1324,55.208,0.1952,-0.3849,0.2334,200.582
16:58:17:294,1.3304,3.472,4.9125,51.2316,-0.0174,-0.727,-0.0476,201.0809
16:58:17:316,1.2945,3.5175,5.8385,52.8806,-0.3057,-1.1937,-0.2944,202.0617
16:58:17:341,1.6391,3.3619,6.2764,52.7067,-0.6099,-1.4772,-0.5191,203.4008
16:58:17:355,1.1988,3.4863,7.188,52.3631,-0.9984,-1.2976,-0.7696,204.8447
16:58:17:375,0.3135,3.4816,9.0138,53.6163,-1.4834,-0.7637,-0.9419,206.1461
16:58:17:394,-0.067,3.4409,11.0716,51.704,-1.8781,-0.2811,-0.959,207.2111
16:58:17:415,0.0526,3.3691,13.7635,50.9906,-2.1456,-0.286,-0.9688,208.2875
16:58:17:439,0.2201,2.7829,17.5777,50.8105,-2.3338,-0.903,-1.0775,209.6781
16:58:17:457,-0.0024,1.8281,21.4301,52.3073,-2.1957,-1.6396,-1.196,211.3794
16:58:17:477,-0.7849,1.2467,21.0808,48.4323,-1.2525,-1.6788,-1.1031,212.9118
16:58:17:497,-1.1294,2.0004,17.1637,50.7116,0.0657,-1.085,-0.6621,213.8067
16:58:17:516,0.3493,2.6058,12.5527,50.5822,0.795,-0.6342,-0.0427,213.9684
16:58:17:538,1.7204,3.1777,10.0068,50.0796,0.7034,-0.2884,0.2982,213.7258
16:58:17:559,2.0794,3.3404,9.88,51.3455,0.2477,0.199,0.2908,213.3577
16:58:17:576,1.395,3.137,9.7938,49.582,-0.0504,0.6242,0.0917,213.0394
16:58:17:598,0.2297,3.0844,8.8726,50.9588,-0.0003,0.8282,-0.1367,212.8928
16:58:17:618,-0.6796,3.2471,7.2933,49.4877,0.2025,0.7769,-0.2724,212.8846
16:58:17:636,-1.2251,3.3499,5.9342,52.0541,0.3051,0.5435,-0.3114,212.979
16:58:17:657,-1.5458,3.4409,5.1637,51.5348,0.2392,0.2638,-0.2895,213.138
16:58:17:677,-1.5123,3.4983,5.3264,49.8916,0.0987,0.0524,-0.2149,213.2845
16:58:17:702,-1.3519,3.4696,5.7595,49.7093,0.0119,-0.1064,-0.127,213.3791
16:58:17:721,-1.2036,3.6012,6.2907,47.9063,0.2196,-0.2432,-0.0256,213.4582
16:58:17:741,-1.2945,3.6897,6.1065,48.4451,0.365,-0.3397,0.005,213.6012
16:58:17:760,-1.3615,3.7998,6.0179,49.8676,0.4273,-0.3727,0.0624,213.5999
16:58:17:775,-1.2921,3.9147,6.1519,49.705,0.4273,-0.2677,0.1381,213.4849
16:58:17:797,-1.3041,4.0271,6.3434,49.3903,0.3845,-0.1064,0.1943,213.2376
16:58:17:817,-1.4118,4.008,6.9153,50.2574,0.2758,0.0011,0.2212,212.9332
16:58:17:837,-1.6917,3.9482,8.3294,51.4263,0.1121,0.0121,0.2322,212.5818
16:58:17:857,-1.6965,3.8668,9.6933,50.1012,0.0083,-0.0685,0.2664,212.227
16:58:17:875,-1.1103,3.8596,11.6243,48.8413,-0.0944,-0.308,0.3128,211.9238
16:58:17:896,-0.1196,3.4576,14.68,48.1844,-0.2605,-0.6562,0.3153,211.7318
16:58:17:920,0.4044,3.0437,16.1731,48.3086,-0.1872,-0.6708,0.2591,211.5812
16:58:17:936,0.2153,2.7302,14.5292,47.2823,0.1879,-0.0368,0.2273,211.2058
16:58:17:954,-0.524,2.9527,12.4164,48.753,0.3467,0.7659,0.2994,210.4664
16:58:17:976,-1.1581,3.003,12.1053,48.2477,0.1231,1.3047,0.457,209.3482
16:58:17:998,-1.7803,3.2231,11.2941,47.2823,0.0315,1.6639,0.6109,207.9286
16:58:18:015,-1.9525,3.6203,9.6837,47.6984,0.161,1.7384,0.7502,206.3544
16:58:18:036,-1.4333,3.9458,9.1167,46.7776,0.1255,1.3242,0.8235,204.8791
16:58:18:056,-0.4475,3.5438,10.4566,46.3938,-0.2544,0.4006,0.7392,203.8683
16:58:18:075,0.268,2.5938,13.0935,47.2864,-0.6466,-0.4008,0.5022,203.3898
16:58:18:100,0.4116,1.8736,13.9789,47.2366,-0.6172,-0.468,0.3043,203.131
16:58:18:121,-0.3781,1.8521,12.603,46.8138,-0.2275,0.1355,0.2725,202.689
16:58:18:142,-0.7418,1.8927,10.9854,47.2052,0.0974,0.8624,0.4912,201.7411
16:58:18:157,-0.2297,1.9573,10.0977,45.2797,0.2428,1.2534,0.8382,198.64
16:58:18:180,1.5003,2.1703,8.5567,48.2136,0.6277,1.0176,1.3098,196.959
16:58:18:195,1.7683,2.3186,7.5924,47.2726,0.9013,0.6694,1.3415,195.2801
16:58:18:216,1.5769,2.2995,6.6018,47.8646,1.1787,0.2784,1.2951,193.8005
16:58:18:236,1.2323,2.2588,5.2953,46.0652,1.4523,-0.104,1.2572,192.5241
16:58:18:255,1.1725,2.2732,3.8213,46.2181,1.649,-0.4167,1.2829,191.3921
16:58:18:284,1.8879,2.3521,2.6536,45.9192,1.6539,-0.6342,1.3379,190.3774
16:58:18:297,2.9169,2.6848,1.9454,46.022,1.401,-0.716,1.3305,189.4635
16:58:18:314,3.8979,3.0078,2.4885,46.6102,0.8867,-0.7087,1.1754,188.7624
16:58:18:335,4.4602,3.0652,3.8716,45.7098,0.2954,-0.6818,0.8516,188.3728
16:58:18:355,4.5081,3.0891,5.2858,46.3768,-0.142,-0.6391,0.3947,188.3988
16:58:18:377,4.4818,3.1322,5.884,44.1388,-0.3998,-0.5633,-0.105,188.8403
16:58:18:395,4.2951,3.2542,6.4726,46.5524,-0.6221,-0.4741,-0.6096,189.7051
16:58:18:417,3.6108,2.8905,7.7025,46.1795,-0.9679,-0.5071,-1.1361,191.0564
16:58:18:436,2.4167,2.5508,8.4586,45.3206,-1.2696,-0.5047,-1.5686,192.7802
16:58:18:456,1.3424,2.7685,8.3605,46.1228,-1.4053,-0.2701,-1.769,194.5605
16:58:18:477,1.1677,3.1561,8.9803,45.4485,-1.613,-0.1052,-1.7543,196.2337
16:58:18:497,1.6056,3.0437,13.0887,44.9322,-2.1187,-0.5279,-1.7287,198.0903
16:58:18:516,2.0363,1.9836,19.3149,45.7516,-2.5439,-1.5114,-1.8557,200.4247
16:58:18:536,1.2179,1.1677,22.794,44.9139,-2.2177,-2.198,-2.0549,203.0811
16:58:18:555,-0.2225,1.0672,20.339,43.5656,-1.073,-1.8828,-1.9999,205.4946
16:58:18:579,-1.0026,1.7109,15.7304,45.8752,0.0486,-0.9946,-1.5747,207.1877
16:58:18:600,-0.3541,2.5172,12.536,46.1923,0.4359,-0.4167,-0.9797,208.1272
16:58:18:617,0.7466,2.7135,11.1745,45.2553,0.3357,-0.2762,-0.5973,209.1383
16:58:18:634,0.7466,2.9288,9.0856,45.3206,0.1549,-0.253,-0.6804,209.9287
16:58:18:654,0.1747,2.9169,7.8317,44.5362,0.1512,-0.1467,-0.8319,210.6613
16:58:18:674,-0.1675,2.9264,6.6879,47.0734,0.1194,0.006,-0.8991,211.4236
16:58:18:694,-0.536,2.9767,5.8911,47.4534,0.0205,0.1391,-0.9003,212.123
16:58:18:823,-0.8279,3.0628,5.5633,48.2051,-0.1225,0.2222,-0.8661,212.7491
16:58:18:823,-0.9954,3.1202,5.5801,45.6357,-0.2251,0.265,-0.8075,213.3022
16:58:18:823,-1.0457,3.216,5.5226,48.1815,-0.2471,0.2393,-0.7439,213.7873
16:58:18:824,-0.9906,3.326,6.0251,44.5929,-0.241,0.1245,-0.6841,214.257
16:58:18:824,-0.8327,3.1753,6.5276,44.9528,-0.2202,-0.0441,-0.6193,214.7112
16:58:18:824,-0.8399,3.2303,6.4702,45.1112,-0.1115,-0.0966,-0.5411,215.1136
16:58:18:836,-0.8016,3.539,6.9607,44.2317,-0.0321,-0.093,-0.4409,215.4092
16:58:18:855,-0.3781,3.5366,7.6163,43.7857,-0.0088,-0.1467,-0.3261,215.6032
16:58:18:876,-0.0359,3.7615,7.8796,43.3612,0.0645,-0.165,-0.2418,215.7168
16:58:18:896,0.1675,3.8333,8.6261,44.8723,0.0913,-0.1858,-0.2052,215.8034
16:58:18:915,0.146,3.6993,9.6742,44.1918,0.0999,-0.1883,-0.2125,215.8791
16:58:18:935,-0.1699,3.8668,9.5617,44.1294,0.2489,-0.0246,-0.1991,215.8768
16:58:18:955,-0.6485,4.3956,9.2411,43.8823,0.3809,0.2063,-0.1196,215.715
16:58:18:976,-0.4929,4.6325,10.3322,43.3901,0.3296,0.2161,0.0037,215.4249
16:58:18:996,0.2058,4.6947,11.4521,43.8646,0.2648,-0.0587,0.11,215.1046
16:58:19:016,0.6867,4.9986,11.1386,44.182,0.3369,-0.2799,0.1552,214.8569
16:58:19:035,1.0337,5.0967,11.3013,43.5442,0.3284,-0.3019,0.0844,214.671
16:58:19:055,0.3924,4.8431,12.4642,43.6026,0.1231,-0.2432,-0.1025,214.6473
16:58:19:079,-1.0074,4.398,13.474,44.2983,-0.0443,-0.0526,-0.2662,214.6389
16:58:19:095,-1.9167,4.3047,13.7874,43.3087,0.0412,0.3407,-0.0818,214.4898
16:58:19:116,-0.8327,3.6203,15.1179,45.3916,-0.0846,-0.0099,0.0685,213.9843
16:58:19:135,-0.1412,2.8953,15.9553,43.1342,-0.142,-0.3288,0.0905,213.6854
16:58:19:154,0.0263,2.1368,15.216,44.214,0.0791,-0.1333,0.1076,213.3071
16:58:19:178,-0.4738,2.0148,13.1988,42.8919,0.4505,0.5154,0.2591,212.5161
16:58:19:197,-0.4929,1.9836,11.2678,42.712,0.7364,1.1752,0.5767,211.1743
16:58:19:219,0.0526,1.9813,9.7867,41.8242,0.9221,1.4635,0.9188,209.3763
16:58:19:235,0.8279,1.9717,8.5591,41.7991,1.0846,1.3743,1.1754,207.3839
16:58:19:257,1.5745,2.0028,7.5063,41.5425,1.252,1.0799,1.3012,205.399
16:58:19:275,2.053,2.0076,6.3984,42.0719,1.4365,0.7622,1.3012,203.5828
16:58:19:294,2.1942,2.1799,5.19,40.9091,1.6063,0.5338,1.2255,201.9592
16:58:19:321,2.3354,2.3091,4.063,41.1089,1.6918,0.3969,1.1424,200.5085
16:58:19:334,2.4383,2.5436,3.1035,39.9819,1.6515,0.3102,1.0593,199.2117
16:58:19:362,2.6154,2.7733,2.412,40.7741,1.4658,0.2014,0.9579,198.0945
16:58:19:382,2.814,2.8977,2.0004,40.7919,1.1701,0.0707,0.8089,197.2127
16:58:19:396,2.8881,2.9886,1.9549,38.8964,0.8146,-0.0404,0.595,196.5878
16:58:19:414,2.7781,3.0437,2.132,38.0887,0.4359,-0.1699,0.3446,196.2898
16:58:19:434,2.4837,3.1322,2.4239,39.8244,0.0913,-0.3006,0.1039,196.2852
16:58:19:456,1.9932,3.3787,2.4981,39.9999,-0.1811,-0.3825,-0.0989,196.4748
16:58:19:475,1.6678,3.8931,2.4359,39.9999,-0.4254,-0.4362,-0.2626,196.8508
16:58:19:498,1.9382,4.1324,2.7805,38.3306,-0.8042,-0.5755,-0.4226,197.4663
16:58:19:516,2.1846,3.9099,4.453,37.7029,-1.4175,-0.8749,-0.6572,198.4802
16:58:19:537,1.8281,3.1824,7.7934,39.3831,-2.109,-1.1705,-0.9748,199.9006
16:58:19:558,-0.2919,3.0891,14.8738,36.5135,-2.5928,-0.8627,-1.2265,202.9826
16:58:19:576,0.1986,3.5366,17.5705,37.254,-2.3973,-0.4717,-0.9382,203.825
16:58:19:596,1.6965,3.5701,21.0927,37.0774,-2.2678,-0.5059,-0.6841,204.4288
16:58:19:616,2.2014,2.8355,22.3035,38.489,-1.8964,-0.5755,-0.6719,205.0201
16:58:19:636,0.8423,2.8499,19.5422,38.7599,-1.0485,-0.0539,-0.7525,205.5005
16:58:19:661,0.0024,3.2231,15.3835,37.6899,-0.2458,0.6156,-0.6303,205.658
16:58:19:675,0.1364,3.3787,12.256,38.9728,0.1512,0.9076,-0.3652,205.4808
16:58:19:697,0.3661,3.539,10.2437,37.3167,0.2819,0.8856,-0.188,205.145
16:58:19:716,0.7442,3.606,8.6859,36.5593,0.354,0.7244,-0.0818,204.7783
16:58:19:734,1.1821,3.7759,7.1187,37.0962,0.4175,0.5252,-0.0512,204.4754
16:58:19:757,1.4716,3.8357,5.6471,37.8759,0.3955,0.3444,-0.1111,204.2975
16:58:19:776,1.3735,3.6921,4.8455,36.5055,0.2245,0.2393,-0.2662,204.2961
16:58:19:795,0.8303,3.4983,4.678,37.5536,-0.0174,0.2467,-0.4568,204.4855
16:58:19:815,0.067,3.2207,5.0728,35.6389,-0.2104,0.2845,-0.5998,204.7873
16:58:19:836,-0.6461,2.9575,5.2235,37.0654,-0.2617,0.2601,-0.6511,205.1279
16:58:19:857,-1.2012,2.9815,5.5179,35.8894,-0.2006,0.1575,-0.5973,205.4147
16:58:19:877,-1.3735,2.8905,6.0993,35.5374,-0.1335,-0.0612,-0.469,205.6503
16:58:19:894,-1.3998,2.79,7.1665,35.0971,-0.0614,-0.3678,-0.3298,205.8425
16:58:19:915,-1.1797,2.6082,7.736,37.1536,0.0608,-0.6965,-0.2137,206.0307
16:58:19:936,-0.6532,2.6991,7.4848,34.3562,0.244,-0.8138,-0.0964,206.1361
16:58:19:957,-0.3685,3.1418,7.279,35.5357,0.3149,-0.6599,-0.0146,206.1087
16:58:19:976,-0.2632,3.405,7.7216,34.4761,0.1903,-0.3654,-0.0085,206.0041
16:58:19:994,-0.3613,3.5318,8.8176,34.6657,-0.0015,-0.093,-0.0585,205.8305
16:58:20:023,-1.1844,3.8118,9.4253,34.0251,-0.0394,0.2296,-0.1477,205.6814
16:58:20:038,-1.7515,4.1611,9.6311,33.0047,-0.0272,0.3591,-0.1123,205.3634
16:58:20:056,-1.9095,4.4507,10.0881,35.8878,-0.0345,0.4715,0.0001,204.905
16:58:20:073,-1.6008,4.7545,10.806,33.3858,-0.0443,0.4727,0.1577,204.2752
16:58:20:094,-1.3567,5.2403,11.2439,33.0623,-0.0455,0.4128,0.2823,203.5565
16:58:20:115,-1.2778,5.4317,11.4903,32.9575,-0.0528,0.4543,0.3275,202.771
16:58:20:135,-1.6415,5.4006,12.7011,31.5187,-0.2239,0.3371,0.3092,202.0331
16:58:20:155,-2.1464,4.7162,15.3045,33.9401,-0.4963,0.0219,0.3055,201.3879
16:58:20:177,-2.5819,4.1109,16.4961,32.6849,-0.39,0.0439,0.4081,200.602
16:58:20:195,-2.5986,4.0032,15.5581,32.6771,0.0339,0.3053,0.6195,199.5199
16:58:20:217,-1.8784,3.5222,14.333,30.444,0.2795,0.3737,0.8357,198.1916
16:58:20:239,-1.1605,2.8762,13.1318,29.6948,0.2954,0.436,0.9664,196.7478
16:58:20:257,-0.8638,2.5364,11.5717,30.4047,0.2734,0.7854,1.0349,195.1369
16:58:20:278,-1.127,2.3019,9.9852,29.2256,0.2502,1.2827,1.0776,193.2827
16:58:20:295,-1.5625,2.2469,9.0784,29.0741,0.1817,1.5832,1.1265,191.2574
16:58:20:314,-1.4764,2.0363,8.9085,29.1529,0.1072,1.4818,1.2352,189.1606
16:58:20:334,-0.6915,1.8161,9.0712,28.2082,0.0938,0.9467,1.3647,187.1515
16:58:20:354,0.3685,1.5577,9.143,28.9821,0.1989,0.2357,1.4356,185.3575
16:58:20:375,1.1414,1.3113,8.5902,29.49,0.4346,-0.2726,1.3806,183.8642
16:58:20:397,1.261,1.2825,7.4465,25.5001,0.7376,-0.3495,1.2328,182.5451
16:58:20:415,1.1031,1.4357,6.0706,24.9646,0.9624,-0.1333,1.0911,181.3247
16:58:20:438,0.9428,1.7372,4.9843,26.2422,1.0382,0.1416,0.9958,180.0897
16:58:20:454,1.0193,1.9956,4.4028,27.1481,0.9856,0.2821,0.9225,178.868
16:58:20:477,1.4477,2.4981,3.9745,24.369,0.7291,0.0732,0.6781,177.1169
16:58:20:496,1.3854,2.8068,3.9123,24.6747,0.5715,-0.0881,0.4606,176.5427
16:58:20:517,1.1557,2.9695,4.4219,25.2476,0.3699,-0.2408,0.2298,176.2855
16:58:20:535,0.7035,3.1657,5.1972,24.3098,0.1708,-0.3996,0.0294,176.2773
16:58:20:556,0.4546,3.4361,5.86,25.2423,0.0046,-0.611,-0.1135,176.5164
16:58:20:574,0.5623,3.7424,6.7382,23.8878,-0.1958,-0.8284,-0.2137,176.9666
16:58:20:595,0.6293,3.7854,8.7505,23.0847,-0.5195,-0.9372,-0.3212,177.5772
16:58:20:615,0.1196,3.4887,11.7153,22.7551,-0.8469,-0.8675,-0.4581,178.2647
16:58:20:637,-0.5145,3.8357,13.6941,22.8693,-0.8237,-0.5364,-0.4593,178.7664
16:58:20:654,0.201,4.2592,13.6534,22.4288,-0.5207,-0.2469,-0.2699,178.943
16:58:20:677,2.1392,4.4841,13.4357,23.0409,-0.3912,-0.308,-0.1416,179.0928
16:58:20:695,3.46,3.8716,14.2421,23.3666,-0.6405,-0.633,-0.287,179.5392
16:58:20:714,2.5292,3.1537,15.6419,22.326,-0.8995,-0.6488,-0.6438,180.3241
16:58:20:736,0.5767,2.7852,14.5771,22.6668,-0.7333,-0.2616,-0.8539,181.0971
16:58:20:756,-0.6269,3.2088,11.9785,22.1426,-0.263,0.2577,-0.689,181.4521
16:58:20:775,0.0407,3.5198,9.6287,23.3744,0.0083,0.4324,-0.2895,181.383
16:58:20:795,1.1055,3.6443,8.4275,23.1042,-0.0846,0.1807,-0.0463,181.1738
16:58:20:822,1.3663,3.5892,8.1667,24.364,-0.3643,-0.1369,-0.0695,181.1148
16:58:20:843,1.1127,3.5151,8.7745,23.3247,-0.6331,-0.3324,-0.2211,181.5583
16:58:20:941,0.6652,3.2279,9.0664,22.7293,-0.7199,-0.3349,-0.364,181.8304
16:58:20:943,-0.7872,3.3858,8.3103,24.2753,-0.28,0.2687,-0.3848,181.9009
16:58:20:944,-0.9619,3.5844,8.6453,22.6623,0.0193,0.425,-0.2565,181.7681
16:58:20:945,-0.9739,3.6419,8.3557,20.9719,0.3479,0.2515,-0.1783,181.8305
16:58:20:946,-0.7992,3.9553,6.9751,22.5425,0.7071,-0.0343,-0.116,181.7632
16:58:20:966,-0.4522,4.4291,6.0921,20.4502,0.8561,-0.209,-0.0341,181.6611
16:58:20:975,0.1172,4.6301,6.0778,20.2861,0.7413,-0.275,0.0196,181.5604
16:58:20:995,0.6317,4.721,6.4654,20.9676,0.5629,-0.2493,0.0159,181.4893
16:58:21:015,1.0552,4.7809,6.9799,20.5975,0.4297,-0.1699,-0.0353,181.4857
16:58:21:034,1.2084,4.6875,7.6499,21.8116,0.3552,-0.0954,-0.1306,181.559
16:58:21:054,1.0576,4.4698,8.3342,21.0937,0.3577,-0.0539,-0.2601,181.7121
16:58:21:075,0.7131,4.2449,8.4371,19.7545,0.4065,-0.132,-0.397,181.997
16:58:21:095,0.3015,4.1468,8.1476,21.3767,0.4371,-0.2249,-0.491,182.4152
16:58:21:120,0.2034,4.0798,7.9561,19.7742,0.3736,-0.2029,-0.5069,182.832
16:58:21:139,0.6054,3.9099,8.4873,20.4339,0.2001,-0.115,-0.4642,183.1849
16:58:21:157,0.6532,3.8548,9.076,21.5196,-0.0125,-0.071,-0.4532,183.4956
16:58:21:175,0.1316,3.8859,9.5904,19.1789,-0.2556,-0.0404,-0.513,183.8251
16:58:21:194,-0.3326,3.5031,10.0522,19.4033,-0.4718,0.0805,-0.5363,184.1437
16:58:21:214,-1.1773,3.125,10.9543,19.1746,-0.6392,0.1905,-0.5057,184.3495
16:58:21:235,-2.3761,2.9623,11.4114,18.7799,-0.6295,0.2418,-0.4177,184.4242
16:58:21:255,-3.1346,3.1274,10.6528,19.9029,-0.2947,0.4153,-0.2113,184.2
16:58:21:277,-3.2016,3.6084,9.2339,18.8702,0.0645,0.5203,0.0612,183.6386
16:58:21:294,-2.254,3.5821,8.7434,19.7557,-0.004,0.2393,0.2652,183.0221
16:58:21:314,-0.7011,3.0197,9.9709,18.291,-0.456,-0.2481,0.3312,182.5992
16:58:21:338,0.0814,2.5125,11.4233,19.8652,-0.9166,-0.5939,0.2371,182.4489
16:58:21:359,0.0933,2.2373,11.2726,20.0047,-1.0803,-0.501,0.1015,182.3656
16:58:21:377,-0.5671,2.2493,8.54,19.002,-0.9129,0.7354,0.2627,181.5043
16:58:21:392,-0.0479,2.3282,7.8915,19.0738,-0.9447,1.042,0.4692,180.5048
16:58:21:416,0.4857,2.4742,9.0209,20.5273,-1.0766,0.9345,0.5486,179.5228
16:58:21:435,0.6126,2.3067,10.3609,18.2763,-1.1414,0.4202,0.4008,178.8386
16:58:21:454,0.3589,1.9621,10.7151,17.9454,-0.8543,-0.0282,0.1882,178.5216
16:58:21:474,0.0479,2.1464,9.3224,17.1397,-0.2226,-0.121,0.1381,178.2791
16:58:21:493,-0.0215,2.589,7.8556,19.1357,0.2966,-0.0209,0.2236,177.9156
16:58:21:516,0.0957,2.6943,7.5374,18.6229,0.4187,-0.0416,0.2982,177.4618
16:58:21:536,0.1962,2.7398,7.7839,17.9338,0.3858,-0.1443,0.2847,177.0553
16:58:21:554,0.1244,2.8163,7.6594,18.0681,0.3968,-0.1528,0.2383,176.718
16:58:21:574,-0.3326,2.9145,7.8413,17.2366,0.3711,0.0659,0.2004,176.3378
16:58:21:595,-0.6341,2.8786,8.3294,17.1801,0.2978,0.3554,0.2053,175.8693
16:58:21:615,-0.6197,2.8522,8.9085,15.1725,0.2783,0.4458,0.2505,175.3578
16:58:21:635,-0.5408,2.9001,9.0018,15.6646,0.3015,0.2308,0.2652,174.9082
16:58:21:653,-0.536,2.9503,9.277,17.3677,0.2172,-0.1272,0.2078,174.6226
16:58:21:673,-0.8064,2.936,9.9781,19.3075,-0.0076,-0.2616,0.1467,174.4363
16:58:21:693,-1.3065,3.1131,10.5643,17.8144,-0.1298,0.0304,0.1699,174.1002
16:58:21:717,-0.9834,3.149,10.8419,16.2433,-0.0699,0.3872,0.2884,173.5685
16:58:21:737,-0.0526,2.601,11.4616,16.1696,-0.0296,0.2357,0.3483,173.0564
16:58:21:755,0.3589,1.8879,12.7609,17.7029,-0.12,-0.3055,0.2212,172.8492
16:58:21:773,0.1196,1.1533,13.1557,18.059,-0.1444,-0.6549,0.0648,172.9084
16:58:21:796,-0.1914,1.139,12.615,15.8014,-0.0052,-0.5426,0.0844,172.8975
16:58:21:815,0.0502,1.2514,11.4497,18.1808,0.1683,-0.2726,0.2615,172.6205
16:58:21:835,1.0241,1.9908,9.3105,16.2957,0.1451,0.0378,0.4619,171.7119
16:58:21:855,1.3185,2.4957,9.2722,16.0015,-0.0382,0.1159,0.4216,171.1903
16:58:21:873,1.5434,2.6871,9.4277,16.963,-0.1799,0.1159,0.2945,170.8182
16:58:21:893,1.5147,2.7565,9.0425,17.6137,-0.1823,0.0988,0.1235,170.6342
16:58:21:916,1.206,2.7613,8.3318,17.1938,-0.1041,0.1526,-0.0573,170.6044
16:58:21:936,0.3709,2.9145,8.3868,16.8482,-0.0882,0.2198,-0.2125,170.6938
16:58:21:955,-0.5575,2.7948,8.8917,18.4344,-0.0602,0.1648,-0.3066,170.8442
16:58:21:972,-0.9643,2.6967,8.6859,17.1431,0.15,-0.0624,-0.2858,171.0487
16:58:21:993,-0.792,2.8499,7.4369,18.6047,0.4786,-0.2884,-0.1661,171.2026
16:58:22:015,-0.3876,3.1107,6.2907,18.1233,0.6436,-0.3862,-0.0134,171.2633
16:58:22:034,0.2225,3.2901,6.4439,18.0568,0.5116,-0.3068,0.0917,171.2025
16:58:22:053,0.3781,3.2184,6.9033,16.7008,0.2917,-0.1064,0.1027,171.0524
16:58:22:073,-0.0024,3.338,7.2024,17.64,0.1573,0.1123,0.0502,170.928
16:58:22:096,-0.2297,3.3236,7.6307,16.5907,0.0461,0.1746,0.0331,170.7584
16:58:22:118,-0.2106,3.2399,8.2313,17.9209,-0.0394,0.1355,0.0648,170.5786
16:58:22:142,0.0502,3.2207,8.8295,17.783,-0.0223,0.0964,0.1247,170.3637
16:58:22:152,0.1651,3.405,8.9898,17.9367,0.0828,0.0683,0.1809,170.1161
16:58:22:172,0.268,3.6993,8.796,19.0295,0.2123,0.0903,0.2017,169.8305
16:58:22:192,0.548,3.7041,8.5711,18.4663,0.2477,0.0744,0.1809,169.5678
16:58:22:214,0.6197,3.7735,9.2889,17.1726,0.062,-0.0551,0.0978,169.4476
16:58:22:236,0.3852,3.7567,10.5835,17.5277,-0.2593,-0.0954,-0.0073,169.4692
16:58:22:255,0.5456,2.6034,11.9354,19.0813,-0.5317,0.0194,-0.1025,169.5374
16:58:22:274,-0.4235,2.4479,13.2658,18.1269,-0.704,0.0878,-0.16,169.6437
16:58:22:297,-2.0195,2.4479,12.3589,18.308,-0.1322,0.4495,0.1394,169.2261
16:58:22:314,-1.5099,2.5196,10.5739,19.4041,0.2269,0.2234,0.3299,168.7366
16:58:22:332,-0.4522,2.0435,10.1192,18.718,0.1732,-0.2029,0.3764,168.3948
16:58:22:354,-0.2489,1.6152,10.6672,18.0039,-0.0772,-0.3605,0.2762,168.1914
16:58:22:373,-0.5958,1.651,11.0166,18.6302,-0.1897,-0.1455,0.2175,167.995
16:58:22:394,-0.4762,1.8712,10.4255,19.0432,-0.087,0.1001,0.2627,167.6564
16:58:22:414,0.0718,2.0052,9.1597,18.4442,0.0816,0.1844,0.3092,167.268
16:58:22:434,0.4283,2.0913,8.1739,20.3655,0.1084,0.1538,0.2566,166.9658
16:58:22:454,0.1125,2.077,8.1811,19.7568,-0.043,0.1306,0.1222,166.8069
16:58:22:472,-0.3972,2.0818,8.351,19.7644,-0.1664,0.188,0.0269,166.7155
16:58:22:493,-0.6724,2.254,7.9442,20.4707,-0.1151,0.2968,0.0428,166.5888
16:58:22:514,-0.6126,2.4191,7.2814,19.2921,0.0254,0.3395,0.1259,166.2916
16:58:22:534,-0.2632,2.613,6.7071,19.4926,0.1304,0.2552,0.1882,166.0405
16:58:22:554,0.1675,2.7709,6.5491,19.4041,0.128,0.0854,0.2053,165.7957
16:58:22:573,0.3733,2.9312,6.9129,20.5816,0.0144,-0.0392,0.1626,165.6454
16:58:22:595,0.347,2.948,7.5135,20.8843,-0.1176,-0.0441,0.0844,165.5735
16:58:22:619,-0.0407,3.0197,8.1189,19.3838,-0.1897,0.0891,0.0123,165.5644
16:58:22:632,0.0359,3.3691,9.6215,20.5816,-0.1493,0.1697,-0.006,165.5544
16:58:22:652,0.5336,3.2566,8.5902,18.2922,0.2184,-0.556,-0.1013,165.8416
16:58:22:673,-0.1795,3.2136,6.6975,20.3604,0.5678,-1.2084,-0.298,166.5125
16:58:22:694,-0.8829,3.3882,6.463,19.3494,0.4029,-0.8614,-0.331,167.1271
16:58:22:711,-1.0433,3.5366,7.8796,21.4365,-0.0846,-0.2029,-0.1832,167.3715
16:58:22:732,-0.481,3.4983,10.3059,21.3075,-0.5097,0.1636,-0.0121,167.3607
16:58:22:752,0.0215,4.0008,12.7178,20.9001,-0.3411,0.2149,0.066,167.1382
16:58:22:783,1.7324,2.991,11.1697,20.3443,0.0559,-0.0331,0.0343,167.1955
16:58:22:803,2.6034,2.3545,10.5811,22.8036,0.0388,-0.5047,-0.1661,167.6497
16:58:22:838,1.5362,1.6774,12.2369,21.7401,-0.4499,-0.6061,-0.4581,168.4257
16:58:22:839,-0.1627,1.2347,13.797,19.5239,-0.6844,-0.1992,-0.5961,169.172
16:58:22:852,-0.7131,1.3089,13.9262,20.6564,-0.4572,-0.0148,-0.4214,169.6403
16:58:22:873,0.4427,1.3017,12.6054,21.9931,-0.0553,-0.2139,-0.0928,169.8467
16:58:22:892,1.5123,1.5194,10.6911,23.0039,0.2526,-0.3825,0.0538,169.9926
16:58:22:916,1.8161,1.7348,9.2674,21.4857,0.2831,-0.3275,-0.0024,170.223
16:58:22:932,1.5816,1.9334,8.5161,25.3812,0.0913,-0.1394,-0.1233,170.4642
16:58:23:024,1.0337,2.0746,8.205,22.2247,-0.153,0.0781,-0.2406,170.7213
16:58:23:025,0.2895,2.0937,8.0518,24.3771,-0.3375,0.2552,-0.3286,171.0209
16:58:23:025,-0.5025,2.2804,7.9705,23.1401,-0.3729,0.4104,-0.3396,171.2537
16:58:23:026,-0.8997,2.4598,7.6331,22.8254,-0.2593,0.4458,-0.2601,171.4047
16:58:23:035,-0.8686,2.5388,7.3579,22.5826,-0.076,0.3126,-0.1538,171.5269
16:58:23:051,-0.6293,2.6249,6.8602,22.8598,0.095,0.1184,-0.05,171.6237
16:58:23:073,-0.4762,2.7254,6.4463,22.5826,0.1854,-0.038,0.0172,171.6677
16:58:23:092,-0.2584,2.8092,6.4391,23.2468,0.1756,-0.1418,0.0746,171.7102
16:58:23:113,-0.0287,2.8905,6.7693,24.4739,0.1268,-0.1748,0.1308,171.6738
16:58:23:132,0.1196,2.9288,6.9344,22.8832,0.1133,-0.1724,0.165,171.6472
16:58:23:151,0.2297,2.9527,7.0301,23.8147,0.0938,-0.1992,0.1833,171.6144
16:58:23:173,0.2225,3.0437,7.7982,24.8836,-0.0125,-0.2249,0.1992,171.5454
16:58:23:194,0.3087,2.9815,9.5258,25.4786,-0.1579,-0.2506,0.2065,171.5082
16:58:23:212,-0.3781,2.8642,11.397,24.5362,0.1781,-0.3239,0.2053,171.3452
16:58:23:232,-0.5025,2.8355,10.7797,26.1967,0.5226,-0.396,0.275,171.2778
16:58:23:251,-0.4714,3.0676,10.3226,26.1199,0.6509,-0.3752,0.3849,171.058
16:58:23:275,-0.7872,3.4457,10.8467,24.8046,0.4823,-0.2017,0.4716,170.6905
16:58:23:298,-1.1079,3.4074,11.1745,26.7641,0.2954,0.21,0.5584,170.1226
16:58:23:319,-1.1844,3.1442,11.4879,25.8218,0.1879,0.6034,0.6696,169.322
16:58:23:331,-1.5936,3.2136,11.8947,27.6354,0.1035,0.706,0.7698,168.3864
16:58:23:352,-2.5292,3.4361,11.5454,26.4087,0.2208,0.783,0.8296,167.326
16:58:23:387,-3.1681,3.3811,9.9518,28.612,0.5202,0.8209,0.8931,166.1848
16:58:23:393,-2.991,3.2231,8.6309,26.8831,0.5861,0.5619,0.9677,165.0305
16:58:23:416,-2.0148,2.5244,8.5687,27.2923,0.2037,0.1269,1.0165,164.0461
16:58:23:437,-1.1653,1.7157,10.2652,27.2923,-0.4181,-0.093,1.0019,163.1693
16:58:23:467,-0.9571,0.9667,12.3159,28.2892,-0.8359,0.0866,0.9811,162.2767
16:58:23:473,-1.1174,0.7872,12.6652,27.741,-0.7578,0.502,1.0324,161.231
16:58:23:493,-0.6389,0.9212,10.873,29.5504,-0.3411,0.9296,1.2096,159.8776
16:58:23:512,0.2752,1.1414,9.119,27.8256,-0.0834,1.174,1.3635,158.3275
16:58:23:532,1.1605,1.4213,8.7936,29.3151,-0.1811,1.1776,1.3794,156.8186
16:58:23:553,1.6008,1.5673,9.6072,29.4579,-0.3668,0.9797,1.2365,155.5552
16:58:23:585,1.4237,1.596,9.9876,30.6136,-0.3179,0.6584,0.9921,154.6564
16:58:23:594,1.1294,1.6534,9.4086,30.0396,0.007,0.3615,0.7954,154.0149
16:58:23:624,1.0265,1.8114,7.8987,31.0887,0.4139,0.2345,0.7209,153.5204
16:58:23:648,1.3328,2.077,6.6257,30.1667,0.6656,0.2467,0.7282,153.0219
16:58:23:662,1.8066,2.3234,5.8576,30.5535,0.6998,0.3053,0.7294,152.5186
16:58:23:681,2.0554,2.7063,6.1807,30.5545,0.4591,0.3664,0.4814,152.0703
16:58:23:696,1.9669,2.6584,6.7884,31.2438,0.3662,0.21,0.275,151.5453
16:58:23:714,1.5697,2.6728,7.6283,30.9798,0.3406,-0.0661,0.0514,151.8764
16:58:23:733,1.1844,2.4766,8.4036,32.7728,0.3149,-0.4693,-0.1538,152.5715
16:58:23:754,1.1964,2.4885,8.7051,32.2164,0.2502,-0.7612,-0.3163,153.5443
16:58:23:773,1.3783,2.5747,9.3799,33.6806,-0.0394,-0.5988,-0.4544,154.6106
16:58:23:795,1.0265,2.6967,11.6483,33.5718,-0.5501,0.1611,-0.5705,155.5547
16:58:23:812,0.0646,2.991,12.9332,33.8839,-0.7443,1.1617,-0.645,156.205
16:58:23:833,-0.1149,3.6658,12.7083,34.363,-0.5769,1.6602,-0.6938,156.7925
16:58:23:857,0.067,3.5557,12.9189,36.386,-0.616,1.2082,-0.8954,157.7426
16:58:23:875,-1.3352,2.6632,14.8475,34.9442,-0.9544,0.3224,-1.3572,159.4637
16:58:23:893,-3.1418,1.7348,16.3621,36.7572,-1.0852,-0.1895,-1.6847,161.6315
16:58:23:913,-4.3286,1.3998,16.0869,35.4624,-0.7492,-0.2371,-1.5527,163.6152
16:58:23:932,-4.4076,1.3448,14.9121,36.8971,-0.2458,-0.2274,-1.0445,165.048
16:58:23:957,-3.4768,1.2658,13.2132,35.8519,0.2208,-0.3569,-0.4092,165.8339
16:58:23:973,-2.0626,1.4812,11.0572,36.5574,0.6228,-0.5279,0.1174,166.1349
16:58:23:994,-0.792,1.9047,8.7912,36.4676,0.8891,-0.5865,0.4668,166.0953
16:58:24:013,0.2201,2.2373,6.8794,37.6176,0.9197,-0.5181,0.6122,165.8967
16:58:24:032,0.8734,2.3569,5.7404,36.0054,0.7266,-0.3629,0.5596,165.7265
16:58:24:051,0.9547,2.2971,5.4891,36.1755,0.4444,-0.1773,0.3446,165.782
16:58:24:075,0.3446,2.1655,5.5561,37.0377,0.2159,-0.0465,0.0502,166.082
16:58:24:093,-0.3781,2.0243,5.415,37.4849,0.1329,0.0207,-0.1758,166.5435
16:58:24:113,-0.9332,2.1152,5.1182,38.6356,0.1903,0.0463,-0.243,167.1022
16:58:24:133,-0.8519,2.6369,4.2664,39.027,0.288,-0.0539,-0.1013,167.6732
16:58:24:157,-0.6939,2.9073,4.532,39.1912,0.172,-0.1711,-0.0561,168.0965
16:58:24:173,-0.7202,3.0317,5.0393,40.9769,0.0058,-0.2811,-0.0757,168.5414
16:58:24:194,-0.9165,3.1944,5.2618,42.7216,-0.1139,-0.3116,-0.1184,169.126
16:58:24:212,-0.8853,3.2327,6.2524,41.3535,-0.291,-0.3104,-0.138,169.7666
16:58:24:233,-1.0146,3.1537,8.5926,39.2482,-0.5097,-0.3569,-0.1441,170.3671
16:58:24:257,-1.3615,2.8068,11.3157,41.2313,-0.5733,-0.4839,-0.1587,170.962
16:58:24:283,-1.9047,2.7087,11.9904,41.8897,-0.2715,-0.589,-0.1282,171.5442
16:58:24:291,-2.3641,3.0652,10.9639,42.5247,0.1903,-0.3935,0.0392,171.8334
16:58:24:311,-1.8999,3.3715,10.3777,42.2874,0.3051,-0.0148,0.3263,171.7499
16:58:24:332,-1.1318,3.6897,12.1555,43.7582,0.0022,0.32,0.5584,171.3522
16:58:24:356,-0.7561,3.9099,14.9551,44.9977,-0.3839,0.4336,0.6317,170.8585
16:58:24:372,-0.6724,3.3428,15.8955,45.0841,-0.3937,0.5118,0.5914,170.4049
16:58:24:393,-1.7468,2.9862,15.3524,45.2104,-0.1408,0.5875,0.4888,169.9962
16:58:24:412,-3.2375,2.9719,14.1942,46.6344,0.0865,0.6657,0.4961,169.5185
16:58:24:432,-3.7735,3.3715,12.347,44.4381,0.332,0.9137,0.7502,168.6567
16:58:24:454,-3.1418,3.9242,10.7988,45.3774,0.4896,1.0762,1.0959,167.3712
16:58:24:474,-1.7109,3.9482,10.7007,46.5273,0.3149,0.728,1.2609,166.0826
16:58:24:495,-0.4594,3.2399,11.5454,46.0039,-0.0846,0.0085,1.0911,165.2208
16:58:24:512,-0.3733,2.1631,12.3757,47.4285,-0.3863,-0.4155,0.6769,164.938
16:58:24:532,-1.1581,1.4812,11.9904,47.3533,-0.3668,-0.0991,0.391,164.8695
16:58:24:553,-1.7539,1.3161,10.6552,46.4104,-0.1347,0.6278,0.4277,164.512
16:58:24:575,-1.8353,1.3089,9.5665,48.37,0.0755,1.1825,0.6684,163.7137
16:58:24:599,-0.2321,1.4189,8.1452,47.3591,0.4713,0.9992,1.1497,161.1489
16:58:24:611,0.8136,1.6367,7.2,46.148,0.7107,0.5387,1.2071,160.0535
16:58:24:633,1.4357,1.809,6.2477,46.6853,0.8891,0.1501,1.0984,159.1896
16:58:24:656,1.6367,1.9167,5.4915,46.4442,0.9429,-0.0539,0.8907,158.6365
16:58:24:671,1.529,2.0506,5.0034,47.7575,0.894,-0.0795,0.6598,158.3307
16:58:24:692,1.3783,2.1823,5.013,49.6156,0.7755,-0.0563,0.4656,158.2007
16:58:24:711,1.2921,2.2516,5.391,47.5299,0.6313,-0.1565,0.3092,158.3127
16:58:24:734,1.3711,2.2134,5.7452,48.271,0.5043,-0.4094,0.1552,158.6439
16:58:24:751,1.3854,2.1799,6.4941,48.7493,0.4078,-0.6549,0.0001,159.2455
16:58:24:773,1.1868,2.2014,7.1665,49.5351,0.3699,-0.8028,-0.1502,160.0906
16:58:24:805,0.6796,2.3569,7.7839,50.1476,0.3931,-0.8859,-0.2882,161.0792
16:58:24:811,0.4618,2.5077,7.5206,50.0954,0.4212,-0.9824,-0.386,162.2178
16:58:24:831,0.4403,2.9264,7.8652,49.3448,0.2868,-0.9689,-0.4202,163.36
16:58:24:851,0.4259,2.9934,9.1358,48.6861,-0.0956,-0.8407,-0.4324,164.4716
16:58:24:871,-0.0144,3.2518,10.0403,50.8182,-0.3949,-0.4644,-0.4434,165.351
16:58:24:891,0.0526,3.6682,10.1767,50.0629,-0.5232,0.0133,-0.3933,165.9662
16:58:24:911,0.7298,3.7902,11.8469,50.8219,-0.8518,0.0414,-0.3896,166.5925
16:58:24:930,1.0265,2.8929,15.003,51.0036,-1.321,-0.4045,-0.612,167.6452
16:58:24:951,-0.1819,1.9932,17.403,51.7451,-1.3918,-0.6611,-0.9333,169.1045
16:58:24:972,-1.9669,1.7922,16.8096,52.3406,-0.8469,-0.5206,-1.0152,170.5181
16:58:24:991,-2.5029,2.3115,13.5434,52.8041,0.0107,-0.1382,-0.6242,171.3484
16:58:25:014,-1.151,3.0102,10.1145,51.8016,0.5922,0.1562,0.0257,171.4001
16:58:25:128,0.1819,3.6156,8.0016,51.9807,0.7034,0.2198,0.4387,170.6175
16:58:25:128,1.8544,4.1922,6.4893,52.9739,0.1488,-0.132,0.3214,170.3844
16:58:25:131,1.9143,4.0893,6.2094,51.7867,-0.197,-0.2322,-0.0329,170.6834
16:58:25:132,1.3759,3.8094,6.3506,52.2247,-0.5024,-0.1308,-0.4031,171.3016
16:58:25:133,0.4116,3.4816,6.8387,52.3145,-0.7211,0.0597,-0.7012,172.1385
16:58:25:145,-0.6389,3.2686,7.389,50.976,-0.8115,0.2027,-0.8734,173.1072
16:58:25:153,-1.462,3.1226,7.8126,51.9206,-0.7712,0.2271,-0.882,174.0475
16:58:25:172,-1.8401,3.1035,7.9825,52.571,-0.6087,0.1233,-0.7501,174.8748
16:58:25:190,-1.7874,3.1514,8.0734,51.7485,-0.4022,-0.0526,-0.5485,175.5614
16:58:25:211,-1.4333,3.2758,7.8317,53.156,-0.2055,-0.187,-0.3408,176.0716
16:58:25:234,-1.194,3.4313,7.3531,54.4975,-0.0492,-0.1601,-0.1917,176.415
16:58:25:253,-1.0935,3.6467,7.3029,53.0211,0.0022,-0.0355,-0.1099,176.6114
16:58:25:274,-0.9212,3.6993,8.0997,53.0211,-0.0455,0.0304,-0.0537,176.7515
16:58:25:291,-0.8495,3.6419,9.2554,53.0211,-0.0602,-0.0404,-0.017,176.876
16:58:25:311,-0.9188,3.5342,9.6885,53.0211,0.0742,-0.187,0.0062,177.0178
16:58:25:333,-1.0193,3.5127,9.6311,52.8465,0.2954,-0.2933,0.0514,177.1411
16:58:25:351,-1.139,3.716,9.5569,52.8465,0.4615,-0.3263,0.1271,177.1838
16:58:25:371,-1.0528,3.9218,9.8895,52.8465,0.5128,-0.3104,0.2114,177.1381
16:58:25:392,-0.6413,4.0175,10.5069,52.8465,0.4994,-0.3104,0.2774,177.0388
16:58:25:411,0.0072,4.0941,11.5741,52.8465,0.4285,-0.407,0.297,176.9741
16:58:25:435,0.3661,4.2329,12.3517,54.7819,0.3186,-0.5584,0.242,177.0328
16:58:25:452,0.457,4.2664,12.189,53.4654,0.3064,-0.4118,0.143,177.1089
16:58:25:472,0.1962,4.1348,11.543,53.4676,0.3235,0.0817,0.0648,177.0696
16:58:25:492,-2.5986,4.0152,10.3059,54.1154,0.2551,1.0005,0.0025,176.8898
16:58:25:513,-3.5294,4.3597,8.3988,54.1154,0.4175,1.3059,0.1418,176.439
16:58:25:534,-3.594,4.5751,6.8961,53.4242,0.3674,1.3108,0.3483,174.8937
16:58:25:552,-2.8451,4.1013,7.8461,53.4242,-0.0944,0.8746,0.4839,174.0303
16:58:25:572,-2.1152,2.802,10.416,51.3693,-0.7724,-0.0135,0.4521,173.5925
16:58:25:591,-1.9286,1.6367,12.146,52.0731,-1.0497,-0.5047,0.3776,173.4313
16:58:25:611,-1.9573,1.3711,11.1625,53.5698,-0.7321,-0.0624,0.5083,172.9656
16:58:25:635,-1.3663,1.4572,9.6407,54.2074,-0.3436,0.8026,0.837,171.8464
16:58:25:651,-0.4881,1.4094,9.7723,52.4164,-0.3424,1.2631,1.1021,170.3438
16:58:25:672,0.055,1.4046,11.2941,53.3655,-0.4731,1.0689,1.1693,168.8423
16:58:25:690,0.335,1.2395,12.0072,53.2788,-0.3289,0.4189,1.1033,167.6443
16:58:25:710,0.4307,1.3041,10.7725,51.8907,0.1695,-0.1443,1.0385,166.7004
16:58:25:733,0.8327,1.6869,8.5902,52.3549,0.7083,-0.2774,1.0789,165.7657
16:58:25:752,1.4261,2.0052,6.676,52.3549,0.9808,-0.1296,1.1497,164.7012
16:58:25:771,1.7827,2.2708,5.5155,51.9662,0.9991,0.1111,1.1412,163.5809
16:58:25:793,2.0459,2.5866,4.8431,51.836,0.8952,0.3029,1.0581,162.4587
16:58:25:819,2.1727,2.8355,4.5607,53.0112,0.7144,0.3273,0.8919,161.5143
16:58:25:833,2.1033,3.0293,4.7785,50.3688,0.5092,0.1697,0.6549,160.8599
16:58:25:851,1.9573,3.0772,5.214,51.8489,0.3418,-0.0954,0.3959,160.577
16:58:25:873,1.651,3.0508,5.8098,50.6906,0.2269,-0.3764,0.1479,160.6647
16:58:25:892,1.1557,3.0078,6.4319,53.4623,0.1341,-0.6098,-0.0683,161.0887
16:58:25:918,0.7466,3.0915,7.3292,51.2965,0.0351,-0.7686,-0.2198,161.7282
16:58:25:935,0.7466,2.8307,9.521,50.9635,-0.379,-1.0422,-0.3884,163.3618
16:58:25:959,0.5073,2.9025,10.7845,50.9635,-0.6392,-0.7197,-0.4202,164.1364
16:58:25:971,0.3374,3.4313,11.6602,51.077,-0.7345,0.0194,-0.3774,164.5433
16:58:25:991,0.615,3.7878,12.3039,50.5324,-0.7858,0.5326,-0.3579,164.7283
16:58:26:018,0.9954,3.7448,13.7109,50.5324,-1.0021,0.403,-0.4996,165.1184
16:58:26:035,0.335,3.0604,15.9099,51.7832,-1.3014,-0.1455,-0.7928,166.006
16:58:26:052,-0.7657,2.211,17.7236,51.0166,-1.3002,-0.4338,-1.0139,167.1799
16:58:26:072,-1.718,1.8568,17.147,50.3575,-0.8335,-0.3288,-0.937,168.2523
16:58:26:092,-1.9884,1.9669,14.3067,52.5226,-0.1469,0.0011,-0.557,168.8054
16:58:26:116,-1.0337,2.3186,11.2606,52.9949,0.299,0.21,-0.0598,168.7707
16:58:26:134,0.2704,2.723,9.21,50.7623,0.3943,0.199,0.3006,168.3967
16:58:26:152,1.3591,3.015,7.8317,50.7623,0.2893,0.1172,0.4228,167.9531
16:58:26:171,1.8568,3.1848,7.0205,53.4043,0.0999,0.0952,0.3312,167.6244
16:58:26:191,1.8066,3.0485,6.8794,52.9037,-0.1078,0.1318,0.0905,167.4999
16:58:26:213,1.0193,2.857,7.0636,50.6021,-0.2275,0.2234,-0.1832,167.6516
16:58:26:233,0.1077,2.6728,6.9751,52.2882,-0.1884,0.3139,-0.3603,167.9287
16:58:26:251,-0.5456,2.6848,6.274,51.5157,-0.0211,0.3468,-0.3848,168.1993
16:58:26:272,-0.8207,2.8594,5.2666,52.5726,0.1426,0.3114,-0.3041,168.3818
16:58:26:292,-0.9188,3.0532,5.0225,50.4449,0.1683,0.1941,-0.2088,168.5035
16:58:26:316,-0.8351,3.1442,5.1685,50.8855,0.0913,0.0243,-0.1404,168.6154
16:58:26:337,-0.8877,3.2997,5.6495,51.7773,0.0156,-0.0966,-0.1111,168.7352
16:58:26:351,-0.9236,3.3165,6.1878,51.7773,-0.0516,-0.1406,-0.105,168.8546
16:58:26:374,-0.9954,3.4217,7.1785,52.0579,-0.098,-0.0942,-0.0928,169.0269
16:58:26:395,-1.4142,2.9647,10.4279,52.309,-0.0528,-0.2897,-0.1013,169.1946
16:58:26:414,-1.6223,2.8666,10.5763,52.1381,0.2111,-0.3605,-0.0634,169.3475
16:58:26:432,-1.7803,2.9671,10.5164,50.8625,0.4469,-0.2249,0.0624,169.3047
16:58:26:454,-1.8425,3.0293,10.739,50.9619,0.5128,0.006,0.2371,168.9896
16:58:26:470,-1.5506,3.2853,10.9256,51.3601,0.5421,0.2271,0.4484,168.374
16:58:26:491,-0.7107,3.6634,11.2271,50.7671,0.5092,0.2063,0.6427,167.5945
16:58:26:514,0.3374,3.9362,11.8134,50.5879,0.3613,-0.0844,0.7197,166.8394
16:58:26:535,1.4357,3.6371,12.3326,51.8669,0.1866,-0.3092,0.65,166.2781
16:58:26:554,1.529,3.2447,12.7777,51.8668,0.0449,-0.3055,0.4448,165.9345
16:58:26:572,0.2082,2.8618,12.7322,50.8223,-0.0235,-0.0392,0.2029,165.7242
16:58:26:596,-1.6391,2.9121,11.1482,50.3999,0.1353,0.6071,0.1381,165.2833
16:58:26:611,-2.1918,3.4911,8.8176,50.5054,0.3479,1.2497,0.3617,164.3658
16:58:26:631,-1.4524,3.9841,7.9633,51.5547,0.1842,1.2766,0.628,163.1716
16:58:26:651,-0.1795,3.5605,9.9876,51.6666,-0.4034,0.5912,0.6476,162.2393
16:58:26:670,0.1938,2.3713,13.1629,50.8223,-0.9434,-0.2835,0.3654,161.9529
16:58:26:692,-0.2249,1.6247,14.4144,50.5189,-0.9178,-0.5548,0.0868,162.0496
16:58:26:712,-1.0768,1.4572,12.7442,51.2179,-0.3827,-0.0881,0.0709,161.9746
16:58:26:734,-1.4429,1.6798,10.4758,50.5189,0.0828,0.6156,0.3617,161.3627
16:58:26:752,-0.6508,1.8305,9.4301,50.5189,0.2147,1.0151,0.7869,160.1835
16:58:26:771,0.5862,1.9645,8.8702,51.5454,0.2612,1.0616,1.1069,158.6755
16:58:26:797,1.5912,2.1631,8.0949,49.3839,0.4212,0.9308,1.2462,157.0693
16:58:26:814,2.2325,2.3785,6.92,50.3267,0.6643,0.7525,1.2193,155.5273
16:58:26:833,2.5005,2.5603,5.5226,49.8519,0.8745,0.579,1.0776,154.2206
16:58:26:851,2.4479,2.7541,4.2712,50.943,0.9514,0.425,0.8773,153.17
16:58:26:873,2.3378,2.9886,2.6345,50.0228,0.657,0.0817,0.4436,152.3824
16:58:26:899,2.3139,3.0054,2.5771,50.1369,0.3137,-0.1492,0.2139,151.7693
16:58:26:912,2.2277,2.8905,3.3141,48.8107,-0.1053,-0.4338,-0.0378,151.9839
16:58:26:932,2.0889,2.6536,5.0584,49.4157,-0.4951,-0.7148,-0.2858,152.5869
16:58:26:951,1.8927,2.5029,6.865,50.902,-0.7052,-0.9641,-0.5106,153.5224
16:58:26:970,1.529,2.5914,7.9155,50.2745,-0.6893,-1.1534,-0.7342,154.7443
16:58:26:994,1.2227,2.8092,9.0808,48.6424,-0.6576,-1.2744,-0.948,156.193
16:58:27:011,0.9595,2.546,10.4806,51.1953,-0.8164,-1.3159,-1.1422,157.8335
16:58:27:033,0.1292,2.3665,12.2536,51.6582,-1.0473,-1.041,-1.2815,159.4866
16:58:27:052,-0.7657,2.5101,13.7563,49.6975,-1.1475,-0.4546,-1.218,160.8441
16:58:27:071,-0.2513,2.7661,14.9863,49.6479,-1.1475,0.0268,-0.9675,161.7789
16:58:27:096,0.7202,2.5149,17.5514,49.9255,-1.2819,-0.1724,-0.8759,162.7131
16:58:27:115,0.5432,1.4381,20.4443,50.3432,-1.3601,-0.6672,-1.053,163.9758
16:58:27:133,-0.9739,0.7155,20.7171,52.4761,-0.8726,-0.622,-1.2143,165.3447
16:58:27:259,-2.5986,0.7561,17.6782,50.5232,0.0889,-0.0832,-1.0201,166.3217
16:58:27:260,-2.6154,1.3065,13.4644,51.5187,0.9527,0.3994,-0.4654,166.5942
16:58:27:261,-1.3161,1.809,10.3203,51.4867,1.3289,0.3884,0.1003,166.2764
16:58:27:262,0.28,2.2134,8.8606,52.1726,1.2556,0.0317,0.424,165.7421
16:58:27:263,1.5314,2.4766,7.8772,51.7252,1.0174,-0.286,0.4338,165.3107
16:58:27:264,1.864,2.6919,6.4606,51.1957,0.8268,-0.2469,0.2004,165.152
16:58:27:284,1.3543,2.802,5.0177,51.824,0.6167,0.122,-0.1209,165.1889
16:58:27:296,0.4044,2.7829,4.2568,52.3526,0.3357,0.5814,-0.3896,165.3237
16:58:27:311,-0.4235,2.8211,3.9242,51.3274,0.0608,0.8759,-0.5277,165.4803
16:58:27:333,-1.0887,3.1011,3.9003,49.604,-0.2556,0.7476,-0.5008,165.839
16:58:27:351,-1.1916,3.1777,4.3143,50.6371,-0.3265,0.4605,-0.4471,166.0582
16:58:27:371,-1.3663,3.2734,4.7809,50.3383,-0.3631,0.1306,-0.3848,166.3387
16:58:27:391,-1.3807,3.2758,5.1757,52.4157,-0.3986,-0.1565,-0.3078,166.6272
16:58:27:411,-1.3711,3.3499,5.6447,50.6248,-0.4804,-0.319,-0.2308,166.8629
16:58:27:430,-1.1414,3.2662,6.6401,51.2751,-0.6417,-0.3495,-0.171,167.0562
16:58:27:450,-0.9811,3.1681,8.595,52.6928,-0.8213,-0.286,-0.1233,167.1786
16:58:27:474,-1.0433,2.9599,10.471,52.5102,-0.8579,-0.2274,-0.1111,167.2579
16:58:27:491,-1.5362,2.8044,11.9067,51.0227,-0.6734,-0.1785,-0.0928,167.2968
16:58:27:510,-2.0291,2.8499,12.7633,52.0472,-0.3802,-0.1711,0.0025,167.2333
16:58:27:530,-1.809,2.7589,13.2467,53.2809,-0.1041,-0.2408,0.1943,166.994
16:58:27:550,-0.8136,2.7565,13.7276,52.4957,0.084,-0.3385,0.4179,166.5522
16:58:27:575,0.5216,2.8499,14.5244,51.2568,0.1488,-0.4534,0.5877,165.9731
16:58:27:591,1.474,2.9001,14.1488,49.9187,0.2489,-0.3459,0.6378,165.3385
16:58:27:612,1.3926,3.1442,12.0215,52.327,0.5446,0.2882,0.5718,164.5958
16:58:27:630,0.1675,3.4839,9.8034,52.3662,0.6949,1.0017,0.4436,163.7687
16:58:27:650,-1.4165,3.7759,8.3988,51.8875,0.5715,1.3535,0.3544,162.8867
16:58:27:676,-2.5675,4.2903,7.882,51.3383,0.4041,1.5222,0.3788,161.9014
16:58:27:694,-2.9432,4.5607,7.9083,51.9237,0.2538,1.3499,0.4582,160.8561
16:58:27:714,-2.4909,4.2377,8.9898,51.4718,-0.0162,0.5533,0.4277,160.116
16:58:27:730,-1.9406,3.2782,12.2632,50.4999,-0.4926,-0.7735,0.2395,160.0391
16:58:27:750,-1.4501,1.5649,16.8718,51.0277,-0.9092,-1.9256,0.0025,160.5737
16:58:27:777,-1.8903,0.725,18.2046,50.7721,-0.627,-1.9231,-0.0415,160.8323
16:58:27:794,-1.2203,1.2802,12.4953,50.8833,0.7743,0.7109,0.8687,159.7012
16:58:27:813,-0.2513,1.4357,10.7916,50.9734,0.8512,1.3755,1.1913,157.9822
16:58:27:829,0.3135,1.6008,9.7244,50.2245,0.8891,1.3499,1.2462,156.1993
16:58:27:852,0.5599,1.7037,8.2768,52.3594,1.1041,0.9711,1.1534,154.6318
16:58:27:876,0.9404,1.8233,6.4774,52.0682,1.4181,0.5289,1.041,153.3386
16:58:27:894,1.4501,2.065,4.6708,52.0682,1.6246,0.1648,0.9176,152.2815
16:58:27:912,1.7755,2.2732,3.2686,50.5469,1.5806,-0.0465,0.7404,151.5013
16:58:27:930,1.7444,2.3904,2.5531,49.7143,1.3008,-0.1284,0.5083,151.0224
16:58:27:952,1.5386,2.4694,2.7039,49.4124,0.8879,-0.1284,0.2762,150.7753
16:58:27:972,1.3878,2.4383,3.3499,50.1347,0.4884,-0.0575,0.099,150.6779
16:58:27:991,1.0289,2.4574,4.5727,49.7036,0.1756,0.0023,-0.0439,150.6903
16:58:28:010,0.8064,2.4646,5.6375,50.3374,0.0034,-0.1272,-0.1502,150.866
16:58:28:031,0.9595,2.5579,5.8624,49.0458,-0.0003,-0.3275,-0.2101,151.1936
16:58:28:054,0.6987,3.1322,5.9222,51.2318,0.0095,-0.4228,-0.2821,151.6264
16:58:28:073,0.3781,3.3667,7.1139,51.4672,-0.1725,-0.5548,-0.3945,152.2299
16:58:28:090,0.1819,3.125,9.0784,48.9635,-0.4914,-0.8284,-0.4923,153.099
16:58:28:111,-0.402,3.6634,10.1192,49.7055,-0.6649,-0.8944,-0.4862,153.9503
16:58:28:132,-0.3183,4.6014,10.3442,47.9019,-0.7077,-0.512,-0.3176,154.4523
16:58:28:156,1.3711,4.7976,10.2221,50.6036,-0.9068,-0.0233,-0.1563,154.5953
16:58:28:171,2.7757,3.9458,12.055,52.2234,-1.4321,0.1844,-0.3188,154.8279
16:58:28:190,1.8233,2.3545,16.0319,51.9736,-2.0797,-0.0258,-0.805,155.6481
16:58:28:211,-0.603,1.2347,17.683,49.7347,-2.1652,-0.2115,-1.2778,157.0127
16:58:28:231,-2.8618,0.9452,15.9314,51.6909,-1.4627,0.0414,-1.3023,158.2855
16:58:28:257,-1.9741,2.1392,10.4782,51.3141,-0.0919,0.5142,-0.0439,158.74
16:58:28:274,0.0957,2.6417,9.7173,51.8738,-0.0125,0.1905,0.3605,158.2382
16:58:28:290,1.6056,2.6608,9.5737,51.6489,-0.1237,-0.2835,0.3629,157.9023
16:58:28:310,1.9286,2.4718,9.5402,50.1738,-0.2226,-0.5377,0.0954,157.9252
16:58:28:331,1.0457,2.2229,9.2913,51.5609,-0.2483,-0.3898,-0.2211,158.2216
16:58:28:352,-0.3757,2.1751,8.5352,51.146,-0.1493,0.0341,-0.3958,158.573
16:58:28:370,-1.0528,2.4191,7.5374,49.4548,0.0205,0.3945,-0.3176,158.733
16:58:28:391,-1.0265,2.7541,6.7023,52.2003,0.1598,0.469,-0.1099,158.652
16:58:28:412,-0.7968,3.1202,6.0347,50.7823,0.2306,0.2955,0.0367,158.4514
16:58:28:430,-0.3374,3.192,5.5442,49.9477,0.2428,0.0549,0.1088,158.2518
16:58:28:457,-0.1029,3.3428,5.5418,52.3972,0.161,-0.104,0.1235,158.084
16:58:28:474,0.0455,3.3978,5.9916,49.6309,0.0412,-0.132,0.1003,157.9386
16:58:28:489,-0.2177,3.7232,6.4056,50.2064,-0.0345,-0.0563,0.0526,157.8246
16:58:28:510,-0.1507,3.4265,6.7836,51.5342,-0.0699,0.0317,0.0294,157.7175
16:58:28:529,-0.1842,3.5031,7.2455,51.5471,-0.1225,0.0756,0.0269,157.5865
16:58:28:550,-0.1627,3.3978,8.0327,50.7311,-0.1848,0.1404,0.0269,157.4464
16:58:28:570,-0.3135,3.1322,8.7864,51.0337,-0.2177,0.1685,0.0196,157.3169
16:58:28:590,-0.859,3.0556,9.5186,49.9826,-0.1481,0.2381,0.0318,157.1536
16:58:28:611,-1.3663,3.1011,9.9302,50.9865,0.0119,0.309,0.1174,156.8871
16:58:28:637,-1.2012,3.2758,10.5763,50.1513,0.2001,0.3517,0.2982,156.3925
16:58:28:654,-0.1795,3.5222,11.5956,49.3611,0.2746,0.1844,0.4851,155.7576
16:58:28:673,0.6174,3.6921,13.3065,49.5975,0.117,-0.231,0.4851,155.2703
16:58:28:691,1.1342,2.8881,14.2971,50.1513,-0.0174,-0.3593,0.2835,155.0662
16:58:28:709,-0.95,2.1703,14.4909,49.9047,0.007,0.0707,-0.0891,155.156
16:58:28:729,-2.1655,2.5172,13.2275,50.1663,0.2453,0.458,-0.0073,154.9497
16:58:28:752,-2.5101,2.9791,10.9137,47.9824,0.5519,0.6914,0.1442,154.5122
16:58:28:773,-1.8353,3.0628,10.1025,49.0949,0.4591,0.4861,0.264,154.0162
16:58:28:790,-0.9332,2.3139,11.0836,49.7092,-0.0589,-0.0673,0.2261,153.7639
16:58:28:810,-0.8519,1.3424,12.804,49.3984,-0.5501,-0.4228,0.0282,153.8434
16:58:28:834,-1.541,0.7131,13.3089,48.5503,-0.6111,-0.2359,-0.094,153.9893
16:58:28:850,-2.3139,0.6915,12.3087,49.1905,-0.2348,0.3236,0.0379,153.8096
16:58:28:870,-1.9669,0.9476,10.5619,50.8256,0.2734,0.7158,0.4069,153.1246
16:58:28:890,-0.8829,1.2849,8.6859,49.5499,0.701,0.7134,0.7673,152.0723
16:58:28:910,0.3183,1.6223,6.9655,49.9566,0.9514,0.5093,0.9628,150.8933
16:58:28:930,1.0863,1.9789,5.6853,49.6565,1.0211,0.3273,0.9787,149.7555
16:58:28:951,1.5242,2.3234,4.9364,48.8445,0.9539,0.2076,0.8712,148.778
16:58:28:971,1.7109,2.5675,4.5057,48.5961,0.8158,0.1306,0.7038,148.0003
16:58:28:991,1.742,2.7852,4.3382,48.5961,0.6619,0.0903,0.5156,147.4394
16:58:29:010,1.7085,2.8594,4.1611,47.9876,0.5018,0.0341,0.3348,147.0866
16:58:29:036,1.6295,3.0173,4.2138,48.5009,0.3137,-0.0661,0.1503,146.9665
16:58:29:052,1.5242,2.9815,4.8622,46.8823,0.0852,-0.2151,-0.0353,147.1371
16:58:29:072,1.0744,2.8594,6.1376,48.6272,-0.1444,-0.4167,-0.2247,147.5895
16:58:29:090,0.4451,2.7613,7.0732,49.0572,-0.2495,-0.5926,-0.3701,148.234
16:58:29:111,0.0526,2.8594,7.6187,48.3104,-0.2226,-0.6525,-0.4153,148.9023
16:58:29:136,-0.3135,3.1035,8.2887,48.2085,-0.2226,-0.6599,-0.3933,149.5656
16:58:29:154,0.1125,3.1322,9.7627,47.9646,-0.5,-0.7014,-0.3591,150.851
16:58:29:171,0.0455,3.0987,10.6911,48.239,-0.7199,-0.4631,-0.386,151.421
16:58:29:189,-0.7226,3.3571,12.28,47.1317,-0.8726,-0.0991,-0.4153,151.8661
16:58:29:209,-0.8471,3.4672,13.151,48.3561,-0.864,0.0524,-0.3909,152.2374
16:58:29:231,-0.3135,3.1561,14.1105,47.362,-0.8616,-0.198,-0.4116,152.7296
16:58:29:252,0.1244,2.345,15.8405,50.8129,-0.9825,-0.6757,-0.5363,153.5003
16:58:29:274,-0.2106,1.3615,17.994,49.2637,-1.0681,-1.0154,-0.7134,154.5192
16:58:29:384,-0.9093,0.4738,18.2644,49.331,-0.8005,-0.9628,-0.7843,155.5777
16:58:29:384,-1.5936,0.5408,15.4433,50.639,-0.1188,-0.4876,-0.5778,156.2654
16:58:29:384,-1.017,0.938,12.0718,49.544,0.4786,0.0292,-0.1257,156.3395
16:58:29:384,0.0909,1.5338,9.655,48.5538,0.7071,0.2528,0.2688,155.9625
16:58:29:385,1.1294,2.1105,7.9801,47.0175,0.6998,0.2234,0.4338,155.4442
16:58:29:388,1.7898,2.5244,6.731,47.5822,0.5825,0.1306,0.3922,155.0128
16:58:29:409,2.1224,2.7613,5.8457,48.5961,0.4041,0.0915,0.1821,154.8215
16:58:29:432,1.8425,2.8331,5.2929,48.7198,0.1805,0.166,-0.116,154.8975
16:58:29:449,0.9452,2.8451,5.4724,48.1197,-0.0662,0.3004,-0.3994,155.2361
16:58:29:469,0.0502,2.8044,5.75,49.659,-0.2263,0.3859,-0.557,155.7012
16:58:29:490,-0.5504,2.9145,5.7236,47.2057,-0.2422,0.4006,-0.5582,156.1414
16:58:29:509,-0.8088,3.0724,5.5657,48.8569,-0.1897,0.3188,-0.4678,156.5273
16:58:29:530,-0.8542,3.259,5.5274,46.7698,-0.1579,0.166,-0.3469,156.8221
16:58:29:557,-0.8447,3.3452,5.9581,48.2679,-0.1786,0.0219,-0.2345,157.1851
16:58:29:572,-0.8303,3.3476,7.1904,49.3299,-0.269,-0.1272,-0.0622,157.2689
16:58:29:592,-0.7681,3.1848,8.6357,47.7052,-0.335,-0.2029,0.0208,157.2911
16:58:29:619,-0.6796,2.9503,9.8465,48.9697,-0.3179,-0.2774,0.1125,157.2327
16:58:29:635,-0.5886,2.8427,10.5045,45.5031,-0.1689,-0.2432,0.2151,157.0704
16:58:29:654,-0.6772,2.7613,10.8921,47.3242,0.0254,-0.1504,0.3141,156.7776
16:58:29:671,-0.5695,2.8475,10.8515,48.232,0.2172,-0.082,0.4326,156.3377
16:58:29:689,-0.0885,3.0796,10.5619,47.5217,0.3662,-0.06,0.556,155.7747
16:58:29:710,0.7035,3.1107,10.8682,46.076,0.3699,-0.1369,0.6097,155.201
16:58:29:734,1.1773,3.2925,11.7583,46.7691,0.2416,-0.2713,0.5547,154.7296
16:58:29:750,1.3137,3.1394,12.2776,46.9755,0.1329,-0.2982,0.4228,154.4158
16:58:29:770,1.0552,2.8714,12.414,47.494,0.0791,-0.2054,0.2493,154.2711
16:58:29:790,0.4546,2.5268,13.1055,46.0645,-0.0101,-0.1479,0.1161,154.2283
16:58:29:813,-0.3948,2.2588,13.2371,47.5006,0.0046,-0.0429,0.0819,154.1913
16:58:29:828,-1.1318,2.613,11.3827,45.8525,0.3271,0.3175,0.1821,153.92
16:58:29:849,-0.7083,3.1585,9.0903,46.7902,0.6032,0.557,0.3568,153.3807
16:58:29:871,0.2489,3.3619,8.4945,49.7231,0.4212,0.3468,0.4081,152.8579
16:58:29:889,0.6508,2.9193,9.8297,47.1474,-0.0736,-0.0246,0.2188,152.6953
16:58:29:909,-0.189,2.1775,11.5143,45.3363,-0.4694,-0.1259,-0.0915,152.8741
16:58:29:933,-1.4261,1.5553,12.6939,45.7606,-0.5562,0.0903,-0.2638,153.1584
16:58:29:952,-2.1751,1.1749,12.3996,47.2424,-0.3717,0.3285,-0.1978,153.3032
16:58:29:969,-2.0578,1.0265,11.4449,46.0623,-0.1444,0.3908,0.0428,153.1837
16:58:29:988,-1.0672,0.9236,10.6648,46.6634,-0.0308,0.3749,0.3312,152.766
16:58:30:010,-0.3087,0.9787,9.7244,46.254,0.0816,0.4507,0.5205,152.1452
16:58:30:031,-0.0431,1.0887,8.3797,46.3175,0.2404,0.5961,0.5902,151.4281
16:58:30:049,0.0502,1.2156,7.0469,47.3182,0.3845,0.6755,0.6268,150.6403
16:58:30:070,0.658,1.474,5.3384,45.7606,0.464,0.535,0.6659,149.8224
16:58:30:089,0.7705,1.6534,4.6947,48.2262,0.4518,0.4104,0.6219,148.9708
16:58:30:116,0.8829,1.8999,4.2616,48.1689,0.3931,0.2711,0.5499,147.6851
16:58:30:133,1.2132,2.1057,4.1276,46.4363,0.266,0.1098,0.457,147.2543
16:58:30:148,1.3472,2.3521,4.4052,47.21,0.073,-0.0893,0.3165,147.0217
16:58:30:169,1.3089,2.467,5.1374,47.7449,-0.1615,-0.2958,0.1296,147.0649
16:58:30:189,0.9978,2.479,6.5085,48.2464,-0.3692,-0.4619,-0.0512,147.3456
16:58:30:209,0.7825,2.4885,7.8915,47.5946,-0.4792,-0.6134,-0.1758,147.8138
16:58:30:231,0.8399,2.4383,8.7434,46.1228,-0.5134,-0.7759,-0.2565,148.4136
16:58:30:250,1.3065,2.3067,9.4828,46.9183,-0.638,-0.925,-0.3347,149.1404
16:58:30:269,1.6152,2.0961,10.4542,46.1228,-0.9178,-0.8602,-0.4361,149.9498
16:58:30:290,0.9906,2.2205,11.8469,48.002,-1.2538,-0.4424,-0.5815,150.7774
16:58:30:310,0.3948,2.3163,13.7396,47.5049,-1.5421,0.1098,-0.6755,151.5481
16:58:30:330,0.6843,2.0172,15.5964,46.55,-1.7327,0.4446,-0.7097,152.3086
16:58:30:350,0.7489,1.3854,18.7119,47.8053,-1.8854,0.4617,-0.8197,153.2224
16:58:30:369,-0.1149,0.3446,20.9803,46.7624,-1.7596,0.2198,-0.9748,154.3505
16:58:30:391,-1.5984,0.2776,20.1787,45.6636,-1.0045,0.0854,-0.959,155.4518
16:58:30:412,-1.9765,0.4403,16.3813,48.591,0.1084,0.1538,-0.6096,156.1658
16:58:30:432,-1.072,0.9212,12.6293,47.892,0.9368,0.1966,-0.094,156.3162
16:58:30:449,0.2034,1.3256,10.0403,46.6748,1.2972,0.0866,0.2994,156.0917
16:58:30:469,1.2825,1.8736,8.4778,50.1391,1.3729,-0.1027,0.4704,155.7031
16:58:30:490,1.9406,2.1464,7.3938,47.3692,1.296,-0.3006,0.4106,155.4322
16:58:30:518,2.1368,2.2134,6.4128,47.9042,1.1628,-0.4289,0.1797,155.4552
16:58:30:530,1.3807,2.2493,4.7139,47.1267,0.7767,-0.1956,-0.3848,155.7906
16:58:30:550,0.5886,2.2181,4.3645,48.1815,0.5409,0.0842,-0.601,156.9634
16:58:30:568,-0.0598,2.2564,4.0989,47.3199,0.3589,0.32,-0.7219,157.7213
16:58:30:589,-0.5838,2.3426,3.6251,46.8898,0.2343,0.4531,-0.7598,158.4488
16:58:30:614,-0.9332,2.3952,3.4241,46.9857,0.0632,0.4788,-0.7647,159.1786
16:58:30:630,-1.3663,2.4383,3.9793,49.9995,-0.2104,0.3957,-0.7598,159.9181
16:58:30:653,-1.6989,2.1559,5.0106,49.1971,-0.5293,0.2784,-0.7525,160.6639
16:58:30:667,-2.0722,1.8688,6.53,50.2692,-0.803,0.298,-0.7207,161.3753
16:58:30:688,-2.7302,1.5816,8.1739,49.5791,-0.9557,0.4812,-0.634,161.9866
16:58:30:712,-3.1657,1.4022,9.6287,51.8959,-0.9434,0.6523,-0.4348,162.3452
16:58:30:731,-3.271,1.2993,10.8538,49.7154,-0.7895,0.6486,-0.1367,162.4033
16:58:30:751,-3.1968,1.2562,11.6866,49.7154,-0.5354,0.4702,0.1797,162.161
16:58:30:768,-2.7637,1.3926,11.7607,50.228,-0.1786,0.265,0.4985,161.6213
16:58:30:789,-2.0698,1.6582,11.1912,50.3092,0.1781,0.1575,0.7893,160.8022
16:58:30:810,-1.1198,1.9047,10.9591,48.8408,0.365,0.1111,0.9799,159.803
16:58:30:828,-0.4259,2.1464,11.6196,49.4592,0.3589,0.0866,1.03,158.7883
16:58:30:848,-0.2847,2.5388,12.1292,50.4085,0.3601,0.1514,0.9774,157.8102
16:58:30:869,-0.6221,2.9647,11.5956,50.4834,0.4615,0.3065,0.8638,156.9214
16:58:30:889,-0.5288,3.0676,11.2845,49.3522,0.4236,0.3273,0.7417,156.1353
16:58:30:909,-0.4259,2.8116,12.7896,49.7922,0.0877,0.0732,0.5853,155.6196
16:58:30:929,-1.0026,2.4479,14.4287,49.5791,-0.186,-0.198,0.3959,155.3591
16:58:30:950,-1.584,2.3091,14.5244,49.618,-0.1017,-0.2054,0.2835,155.2216
16:58:30:972,-1.4381,2.1655,13.6941,50.9646,0.106,-0.0734,0.2725,155.0558
16:58:30:992,-0.9858,1.3304,13.5577,49.7194,0.0486,0.072,0.1613,154.7597
16:58:31:009,-1.4094,1.0648,12.658,49.5944,0.0877,0.3676,0.0868,154.7194
16:58:31:029,-1.8161,0.9356,11.2271,48.5031,0.2013,0.7097,0.1015,154.5555
16:58:31:050,-1.8544,0.9212,9.8489,49.3948,0.2917,0.9125,0.2163,154.2072
16:58:31:069,-1.4165,1.0265,9.0018,50.1619,0.3674,0.9382,0.3959,153.6383
16:58:31:090,-0.5168,1.1222,8.1811,50.4366,0.4798,0.8612,0.5926,152.8932
16:58:31:109,0.2943,1.3424,7.1617,48.7858,0.6472,0.7915,0.7245,152.0456
16:58:31:129,0.8901,1.5123,6.0419,48.9325,0.8048,0.7268,0.76,151.1552
16:58:31:148,1.2275,1.7037,5.0871,49.9262,0.8806,0.6413,0.7038,150.3464
16:58:31:170,1.2275,1.8664,4.3382,51.0402,0.8659,0.5301,0.5865,149.6821
16:58:31:195,1.1342,1.9573,3.6826,51.7586,0.7938,0.4091,0.4448,149.212
16:58:31:212,0.938,2.1799,3.1202,49.9262,0.6558,0.254,0.2847,148.9432
16:58:31:231,0.6676,2.3785,2.9145,51.181,0.4359,0.072,0.1198,148.8904
16:58:31:249,0.4379,2.4622,3.7184,51.639,0.1182,-0.2005,-0.0585,149.1483
16:58:31:267,-0.0048,2.3474,5.3168,50.1859,-0.1982,-0.5792,-0.2565,149.7684
16:58:31:288,-0.4522,2.1583,6.4774,51.0574,-0.3876,-0.9567,-0.4287,150.6983
16:58:31:309,-0.7155,2.1918,6.9607,50.1534,-0.4633,-1.1681,-0.5265,151.8055
16:58:31:328,-0.8949,2.3091,8.3175,51.6129,-0.6747,-1.1998,-0.5863,152.9681
16:58:31:348,-1.1844,1.9071,11.7344,51.5786,-1.0534,-1.2096,-0.6731,154.2415
16:58:31:370,-1.6032,1.3256,14.1703,51.958,-1.1609,-1.1473,-0.7513,155.5339
16:58:31:388,-2.3043,1.6989,13.4333,51.7778,-0.8103,-0.8174,-0.689,156.6074
16:58:31:523,-2.0818,2.4048,11.6746,52.6806,-0.5537,-0.3703,-0.4703,157.2687
16:58:31:526,-1.1174,2.6082,11.6985,50.4531,-0.7932,-0.1687,-0.3151,157.733
16:58:31:527,-1.0385,1.273,16.7043,51.0576,-1.6472,-0.352,-0.634,159.1149
16:58:31:528,-2.4096,0.615,17.4891,51.2873,-1.4138,-0.2274,-0.7806,160.0773
16:58:31:529,-3.5486,0.6126,15.3595,48.7702,-0.77,-0.0233,-0.6401,160.8302
16:58:31:531,-3.137,0.9906,13.0193,51.7905,-0.2752,0.0634,-0.1832,161.0818
16:58:31:532,-1.5745,1.0768,12.481,48.6276,-0.1225,0.0561,0.3165,160.8334
16:58:31:549,-0.2632,1.2682,11.7368,50.1225,0.018,0.0231,0.6122,160.2816
16:58:31:571,0.5001,1.6415,10.0738,50.2852,0.3051,0.0414,0.6916,159.6595
16:58:31:588,0.7178,1.9813,8.0471,49.5944,0.5666,0.1049,0.6293,159.0923
16:58:31:608,0.7131,2.2397,6.2883,50.1619,0.6606,0.2088,0.4802,158.6605
16:58:31:629,0.2465,2.4455,5.1805,48.7858,0.5764,0.3297,0.2872,158.3942
16:58:31:648,-0.189,2.5531,4.9077,49.759,0.3833,0.3823,0.1064,158.3038
16:58:31:668,-0.4379,2.6297,5.3647,48.3756,0.1805,0.3016,-0.0085,158.338
16:58:31:688,-0.591,2.613,6.1735,49.1838,0.0657,0.0829,-0.0806,158.5019
16:58:31:708,-0.6987,2.4861,6.7119,48.5642,0.0742,-0.1956,-0.149,158.7797
16:58:31:728,-0.8901,2.3976,6.8889,50.4366,0.1402,-0.4216,-0.2076,159.1723
16:58:31:748,-0.9643,2.2277,7.188,48.78,0.1292,-0.5401,-0.2467,159.6425
16:58:31:768,-0.8399,2.0339,8.1404,47.0833,0.0046,-0.545,-0.2516,160.1098
16:58:31:789,-0.5551,1.742,9.5306,48.1877,-0.1701,-0.4888,-0.2345,160.5543
16:58:31:810,-0.5671,1.5147,10.9567,47.6779,-0.2446,-0.3349,-0.2186,160.9661
16:58:31:829,-0.8088,1.3711,11.5095,47.2489,-0.1261,-0.0453,-0.1685,161.2472
16:58:31:848,-1.1055,1.3926,11.1218,49.1519,0.1182,0.3236,-0.0512,161.3372
16:58:31:873,-1.1892,1.5458,10.6505,48.7319,0.3198,0.59,0.1235,161.1768
16:58:31:889,-0.9715,1.7324,10.3681,48.7391,0.4542,0.6401,0.3104,160.8225
16:58:31:909,-0.2321,2.211,9.588,47.6658,0.6436,0.221,0.5279,160.3427
16:58:31:928,0.1938,2.4837,9.5163,48.6403,0.5874,0.0268,0.5462,159.7374
16:58:31:949,0.3972,2.9647,9.7555,47.0292,0.4444,0.0304,0.5193,158.8303
16:58:31:976,0.7131,3.137,10.2317,46.473,0.2734,0.1624,0.4484,158.4418
16:58:31:989,0.8399,2.8953,11.3779,47.482,0.0205,0.133,0.2884,158.2356
16:58:32:008,-0.0526,2.522,13.6415,46.2282,-0.2287,-0.0001,0.0758,158.2881
16:58:32:028,-1.986,2.3043,13.8281,46.2282,-0.0821,0.0829,-0.05,158.4034
16:58:32:049,-3.0173,2.9097,10.9854,46.8123,0.4969,0.4104,0.0868,158.2419
16:58:32:070,-2.5842,3.5318,8.5543,46.5156,0.7608,0.4348,0.3434,157.7872
16:58:32:089,-1.1318,3.3547,9.2363,43.3095,0.3613,-0.0197,0.4411,157.3918
16:58:32:108,-0.2225,2.5986,12.0359,46.8547,-0.2287,-0.5841,0.2786,157.4046
16:58:32:128,-0.3661,1.6056,14.4311,45.7292,-0.4548,-0.8749,-0.0524,157.8383
16:58:32:150,-1.3424,0.8973,14.0291,45.0015,-0.1762,-0.7001,-0.3298,158.4767
16:58:32:172,-2.5747,0.8159,11.4138,44.0305,0.2844,-0.1223,-0.364,158.9622
16:58:32:189,-2.9503,0.9571,9.3488,44.3454,0.486,0.4837,-0.1099,158.9911
16:58:32:209,-2.2971,1.1486,8.5448,46.0609,0.453,0.8111,0.2725,158.5242
16:58:32:230,-1.0337,1.2969,7.992,45.7409,0.4542,0.8123,0.5987,157.762
16:58:32:256,-0.0239,1.5625,7.0038,44.8622,0.5751,0.6278,0.738,156.9169
16:58:32:271,0.5192,1.8377,5.8098,45.4469,0.6888,0.392,0.6989,156.1835
16:58:32:288,0.9188,2.0985,4.9651,45.5974,0.6643,0.1819,0.5657,155.6216
16:58:32:309,1.1438,2.2899,4.8287,44.7002,0.4957,0.0304,0.3922,155.3165
16:58:32:329,1.3041,2.3234,5.1733,44.2628,0.2722,-0.0917,0.1968,155.2362
16:58:32:349,1.1725,2.3306,5.7452,43.699,0.095,-0.1944,-0.0134,155.4222
16:58:32:371,0.6796,2.2923,6.5874,43.0218,0.0144,-0.4253,-0.3212,155.826
16:58:32:388,0.7681,2.3497,6.6903,44.0837,0.04,-0.5914,-0.3909,157.0651
16:58:32:416,0.9188,2.3617,6.999,43.6182,0.0229,-0.7564,-0.4568,157.9294
16:58:32:427,0.7298,2.5196,7.9202,43.6038,-0.076,-0.9506,-0.5741,158.965
16:58:32:449,0.6317,2.5053,9.5067,43.6182,-0.2153,-1.1925,-0.7171,160.2317
16:58:32:476,0.6604,2.266,10.081,44.3018,-0.3008,-1.3501,-0.8478,161.6812
16:58:32:488,0.2034,2.3019,9.9254,41.6584,-0.3546,-1.1143,-0.9602,163.1643
16:58:32:508,-0.5599,2.802,9.1932,42.5708,-0.5049,-0.5108,-0.9944,164.4265
16:58:32:528,-0.6174,2.8881,9.2674,41.8098,-0.9056,0.0255,-0.981,165.4902
16:58:32:551,-0.0191,1.8473,11.8373,42.3535,-1.6154,0.0536,-1.0824,166.7068
16:58:32:571,-0.2776,0.7992,16.3334,42.162,-2.2421,-0.2188,-1.2852,168.2108
16:58:32:587,-1.864,0.2058,18.1855,40.5154,-2.1078,-0.2677,-1.4086,169.8143
16:58:32:608,-4.1037,0.7753,15.8094,41.8319,-1.1939,0.1013,-1.2387,171.0856
16:58:32:628,-4.3286,1.2419,13.0193,41.8334,-0.3802,0.3798,-0.6425,171.6704
16:58:32:654,-2.9049,1.4524,11.0907,42.9269,0.0522,0.3725,0.0685,171.5295
16:58:32:669,-0.9595,1.7755,9.9541,43.3274,0.2245,0.0878,0.5169,170.9787
16:58:32:690,0.5838,1.9621,9.2267,42.3771,0.1744,-0.3104,0.6561,170.3832
16:58:32:715,1.3304,1.9956,9.2171,40.6506,-0.0101,-0.5303,0.5132,170.0016
16:58:32:727,1.3807,1.7204,9.9278,40.7127,-0.2043,-0.5401,0.209,169.9672
16:58:32:750,0.5838,1.5314,9.9159,41.7193,-0.2324,-0.3263,-0.0952,170.1731
16:58:32:768,-0.4259,1.4907,9.2459,42.126,-0.1066,0.0439,-0.2601,170.4898
16:58:32:787,-1.2203,1.663,8.2457,43.0106,0.0498,0.3615,-0.2443,170.7311
16:58:32:807,-1.5147,1.9167,7.6235,40.6506,0.1622,0.4556,-0.1099,170.784
16:58:32:828,-0.5647,2.132,7.1904,42.0048,0.2966,0.144,0.198,170.6959
16:58:32:851,-0.0239,2.2397,7.0181,41.178,0.3503,0.0329,0.2554,170.1893
16:58:32:869,0.28,2.4215,7.2718,41.6691,0.3442,-0.0123,0.2469,169.9938
16:58:32:888,0.4451,2.3928,8.0016,42.6734,0.2954,-0.0368,0.1907,169.8353
16:58:32:907,0.4498,2.3378,8.6572,40.5733,0.2978,-0.0966,0.1198,169.7841
16:58:32:928,0.5719,2.2899,9.0233,40.7885,0.3528,-0.1821,0.0844,169.7895
16:58:32:953,0.658,2.3665,9.1813,41.6024,0.4224,-0.2151,0.088,169.7979
16:58:32:974,0.9284,2.4215,9.1382,42.2564,0.5177,-0.1174,0.1088,169.7861
16:58:32:999,1.0863,2.6201,8.5591,42.1644,0.6423,0.0768,0.1235,169.7135
16:58:33:020,0.8399,3.0461,8.272,42.2429,0.6912,0.2638,0.0893,169.6133
16:58:33:026,0.4187,3.3787,8.6094,42.6734,0.6167,0.309,0.0111,169.5841
16:58:33:048,0.1699,3.6778,9.076,41.8319,0.4811,0.1734,-0.0732,169.6619
16:58:33:068,0.122,4.0534,9.1573,41.9745,0.3259,0.0207,-0.1331,169.8486
16:58:33:089,1.0146,3.5844,9.6909,42.2429,0.0449,-0.1125,-0.1978,170.1771
16:58:33:108,1.6989,2.7805,12.1484,43.0824,-0.5806,-0.6415,-0.4031,170.8867
16:58:33:129,1.1629,1.6654,14.6776,43.5155,-1.167,-1.1864,-0.7378,172.0764
16:58:33:150,-0.8447,1.3543,14.8044,41.6024,-1.007,-0.9237,-0.9675,173.3664
16:58:33:167,-2.3761,1.4477,13.1821,41.9227,-0.3167,-0.0881,-0.805,174.2268
16:58:33:189,-1.9765,1.5769,11.2702,44.514,0.0669,0.2345,-0.3664,174.5582
16:58:33:207,-0.5408,1.2969,11.6961,44.7935,-0.1579,-0.0282,-0.0329,174.6517
16:58:33:227,0.3709,0.7418,12.6532,44.3523,-0.5329,-0.2897,0.0624,174.6917
16:58:33:251,0.4164,0.603,12.1484,44.3367,-0.5549,-0.0416,0.0722,174.6556
16:58:33:270,-0.0885,0.7011,10.4495,44.3509,-0.3436,0.5313,0.1149,174.4888
16:58:33:287,-0.4044,0.9595,9.6646,46.7212,-0.241,1.0164,0.3593,174.0946
16:58:33:307,-0.2967,0.8829,9.6072,46.722,-0.1786,0.6425,0.3751,173.0456
16:58:33:328,-0.2536,0.9619,8.8056,45.7539,0.0681,0.2442,0.3348,172.6705
16:58:33:354,-0.1555,1.1366,7.6546,46.7196,0.3332,0.0085,0.3336,172.3481
16:58:33:372,-0.1531,1.3615,6.8387,45.2822,0.475,-0.0795,0.3544,172.0178
16:58:33:387,-0.1579,1.6152,6.341,47.7369,0.5079,-0.1186,0.3629,171.6815
16:58:33:408,-0.122,1.8281,6.0802,47.1985,0.4811,-0.1846,0.3458,171.3687
16:58:33:433,0.1101,2.0195,6.0515,47.6843,0.4151,-0.2457,0.3018,171.1466
16:58:33:450,0.2991,2.1033,6.53,45.8123,0.3112,-0.2933,0.2285,171.0335
16:58:33:470,0.3015,2.0985,7.3292,48.7719,0.2086,-0.3605,0.1137,171.0585
16:58:33:487,0.134,2.0459,8.0734,49.1502,0.1683,-0.4607,-0.0109,171.2283
16:58:33:507,-0.1005,2.1416,8.4634,49.1596,0.2086,-0.5499,-0.1099,171.5184
16:58:33:532,-0.2249,2.2947,8.6931,48.3133,0.2844,-0.5535,-0.1563,171.8744
16:58:33:593,-0.1675,2.5005,9.0186,49.1502,0.3039,-0.5462,-0.1795,172.228
16:58:33:594,0.0502,2.6728,9.3512,48.849,0.2599,-0.5401,-0.2125,172.6372
16:58:33:595,0.2919,2.6943,9.4445,47.8123,0.1512,-0.4705,-0.2662,173.0977
16:58:33:607,-0.0861,3.2088,9.5833,47.7369,-0.0272,-0.242,-0.3212,173.5418
16:58:33:626,0.4762,2.9743,9.6622,48.2647,-0.2703,0.133,-0.32,173.8937
16:58:33:648,1.9525,2.1894,10.7557,48.6664,-0.7247,0.3224,-0.3579,174.2753
16:58:33:667,2.2923,1.0265,14.6919,48.6488,-1.4273,0.1587,-0.5753,174.9661
16:58:33:688,0.9571,-0.1699,17.9438,49.6459,-1.7327,0.017,-0.882,175.9775
16:58:33:708,-1.4165,-0.256,17.7428,51.0957,-1.1279,0.1587,-0.9174,176.9593
16:58:33:733,-0.6724,0.4235,11.5286,52.9928,0.6888,0.2345,0.3385,176.8981
16:58:33:749,0.9643,1.0074,9.1645,49.6115,0.9905,-0.0221,0.8638,176.0286
16:58:33:771,2.8881,1.7013,8.5687,51.0821,0.861,-0.319,1.0508,175.0682
16:58:33:789,3.9673,1.742,8.2935,50.6046,0.5226,-0.5658,0.804,174.464
16:58:33:808,3.07,1.675,8.071,51.1979,0.2404,-0.4644,0.2346,174.4393
16:58:33:832,1.2538,1.541,7.5781,52.0928,0.0583,-0.0649,-0.2198,174.7555
16:58:33:847,-0.1244,1.6439,7.2024,51.5522,-0.0223,0.403,-0.3261,175.0663
16:58:33:867,-0.4259,1.9501,7.0086,52.6004,-0.015,0.6511,-0.1856,175.1492
16:58:33:887,-0.079,2.1272,7.0086,54.0158,0.073,0.6217,-0.0085,175.0624
16:58:33:909,0.1938,2.2995,6.4965,53.0136,0.2269,0.4531,0.0709,174.9305
16:58:33:928,0.3159,2.5819,5.9103,52.9911,0.3222,0.243,0.0697,174.8448
16:58:33:950,0.5192,2.7254,5.8935,54.0305,0.2563,0.0475,0.0221,174.8584
16:58:33:966,0.524,2.6919,6.4965,54.072,0.0865,-0.0465,-0.0549,174.9706
16:58:33:987,0.3326,2.6154,7.2742,55.4297,-0.0504,-0.016,-0.116,175.1438
16:58:34:011,0.1196,2.5914,8.327,53.1891,-0.1004,0.0329,-0.1221,175.3195
16:58:34:028,0.1029,2.5268,9.0018,55.0271,-0.0333,0.0341,-0.0842,175.4384
16:58:34:047,0.1651,2.7446,9.1454,54.0871,0.1414,0.0756,-0.0195,175.4862
16:58:34:067,0.2943,2.7446,9.1789,53.807,0.3051,0.1306,0.0245,175.4611
16:58:34:087,0.1603,2.8546,9.6909,54.1463,0.3491,0.0878,0.0233,175.4591
16:58:34:109,0.0096,2.8211,10.9161,54.6623,0.3174,-0.0636,0.0221,175.5067
16:58:34:133,0.0981,2.8833,11.787,56.1531,0.3833,-0.2567,0.0526,175.5608
16:58:34:150,0.4068,3.4529,11.6937,56.6977,0.5592,-0.3911,0.1174,175.5868
16:58:34:168,1.6199,3.5773,11.2439,56.7849,0.5947,-0.4485,0.1589,175.6217
16:58:34:189,1.6223,2.187,14.5651,56.5574,-0.2898,-1.3025,-0.2772,176.66
16:58:34:213,-0.0263,2.2062,13.5003,55.5665,-0.1628,-1.0312,-0.4299,177.4253
16:58:34:230,-1.1677,2.7159,10.5188,57.7727,0.3821,0.0048,-0.2944,177.7319
16:58:34:251,-1.2156,3.0365,8.7147,56.9129,0.4408,0.5655,-0.05,177.621
16:58:34:272,-0.7011,2.7254,9.2578,56.9216,-0.0602,0.436,0.0453,177.4594
16:58:34:288,-0.3541,2.0435,11.4473,57.4567,-0.6185,0.1489,0.0269,177.4036
16:58:34:314,-0.6054,1.3352,13.4548,55.4273,-0.7797,0.0402,-0.0073,177.4139
16:58:34:344,-1.3041,1.1294,13.3615,58.7172,-0.3986,0.133,0.0465,177.3131
16:58:34:348,-1.5338,1.2227,11.1482,58.9624,0.2514,0.276,0.2578,176.9413
16:58:34:367,-0.9284,1.5003,8.7745,58.4577,0.6851,0.3114,0.5486,176.2778
16:58:34:388,-0.067,1.8042,7.4297,58.1711,0.7401,0.3053,0.7636,175.4045
16:58:34:410,0.4977,1.9549,6.8219,57.4732,0.591,0.3481,0.8199,174.495
16:58:34:427,0.6915,2.132,6.4343,59.7161,0.4469,0.4043,0.7612,173.6196
16:58:34:447,0.7466,2.3521,5.9127,59.1428,0.3577,0.3969,0.6561,172.8695
16:58:34:466,0.9021,2.455,5.8289,58.2057,0.2966,0.331,0.545,172.2661
16:58:34:486,0.9141,2.6895,6.0562,59.2732,0.2893,0.2503,0.4191,171.8233
16:58:34:513,0.6963,2.9025,6.5779,62.8351,0.3039,0.0561,0.2591,171.583
16:58:34:535,0.5671,2.7829,6.7478,60.5788,0.3564,-0.2286,0.0954,171.591
16:58:34:547,0.6197,2.8379,6.7238,59.8769,0.4175,-0.3923,0.0062,171.7551
16:58:34:566,0.7083,3.015,6.8794,59.4699,0.3943,-0.3471,-0.0305,171.9376
16:58:34:587,0.5073,3.2112,7.7575,61.2256,0.3027,-0.1614,-0.0867,172.1366
16:58:34:607,0.3565,3.3595,8.5687,61.0893,0.2624,-0.0575,-0.16,172.3391
16:58:34:627,0.4881,3.6012,9.5091,61.2256,0.266,-0.209,-0.232,172.6895
16:58:34:649,0.536,3.7113,10.5858,61.2874,0.0889,-0.6855,-0.4263,173.9734
16:58:34:667,0.2106,4.2329,10.2987,61.4531,-0.0516,-0.3532,-0.4507,174.5803
16:58:34:689,1.0648,4.142,9.8967,60.5735,-0.3118,0.0646,-0.4324,175.024
16:58:34:712,2.534,3.1585,11.1386,61.2935,-0.8897,0.0903,-0.5204,175.6142
16:58:34:734,1.9525,1.9621,14.8451,61.6219,-1.5995,0.0487,-0.7769,176.48
16:58:34:749,-0.4379,1.2514,17.391,61.9196,-1.6056,0.5594,-0.981,177.3329
16:58:34:766,-2.3785,1.7539,16.1205,62.1379,-0.7089,1.0933,-0.7782,177.7961
16:58:34:786,-1.7396,2.1081,12.7155,62.2782,0.3503,0.9198,-0.1795,177.6863
16:58:34:808,-0.1029,2.4909,9.3583,62.558,1.0406,0.2687,0.3507,177.2653
16:58:34:828,1.6128,2.7996,7.3914,61.6294,1.1836,-0.3055,0.5999,176.8049
16:58:34:849,2.6895,3.1633,6.6879,62.2131,0.9099,-0.5841,0.5841,176.5056
16:58:34:867,3.3763,3.1801,7.0684,61.2122,0.4615,-0.5768,0.3458,176.4909
16:58:34:888,2.5196,2.6608,8.1356,61.5587,0.0559,-0.2774,-0.0769,176.7859
16:58:34:908,0.3039,2.3282,8.2552,62.1794,-0.0992,0.254,-0.4752,177.2227
16:58:34:928,-1.3735,2.467,7.9059,64.2629,-0.0455,0.7635,-0.5436,177.4824
16:58:34:949,-1.8616,2.814,7.3412,60.8791,0.0791,0.9284,-0.3261,177.4413
16:58:34:968,-1.2179,3.1537,6.6855,62.7472,0.2074,0.7158,-0.0427,177.2089
16:58:34:991,-0.4259,3.4768,6.4008,60.8791,0.2709,0.3554,0.1528,176.911
16:58:35:008,-0.1819,3.6323,6.3242,62.9826,0.2709,0.0756,0.1797,176.7108
16:58:35:027,-0.4116,3.7807,6.4726,62.6961,0.2282,-0.0526,0.1308,176.6049
16:58:35:049,-0.6604,3.8835,7.145,62.0775,0.1463,-0.0539,0.1406,176.4759
16:58:35:068,-0.5049,3.8764,7.7193,62.9955,0.1048,-0.0478,0.22,176.2786
16:58:35:100,0.0072,3.9793,8.004,63.3182,0.1414,-0.1259,0.3189,176.0225
16:58:35:112,0.2082,4.465,7.8437,61.2,0.1952,-0.3251,0.2847,175.7871
16:58:35:127,0.4666,4.1898,7.8341,61.2039,0.0938,-0.479,0.2224,175.6352
16:58:35:145,0.6102,4.2832,8.9276,61.2514,-0.0504,-0.5181,0.176,175.7101
16:58:35:165,0.9476,4.1755,10.3346,60.9422,-0.1298,-0.5645,0.1174,175.8756
16:58:35:185,0.8255,4.2281,10.7581,63.6851,0.0254,-0.4851,0.0245,176.0916
16:58:35:206,0.9308,4.0989,10.4327,63.1019,0.2062,-0.341,-0.0463,176.3284
16:58:35:225,1.1151,4.2162,10.1336,62.2465,0.2477,-0.1797,-0.0671,176.5198
16:58:35:245,0.8853,4.4387,10.1049,62.527,0.1133,0.0561,-0.0695,176.6153
16:58:35:266,0.5934,4.2999,10.6002,61.591,-0.0186,0.4055,-0.0708,176.5435
16:58:35:287,-0.5073,4.3143,10.8132,61.3593,-0.0968,0.5264,-0.1074,176.4305
16:58:35:305,-1.5147,4.3095,10.8586,61.3323,-0.1151,0.4653,-0.0879,176.2988
16:58:35:326,-2.0483,4.41,10.94,62.7426,-0.0992,0.3725,0.0563,176.0485
16:58:35:345,-1.4548,4.3071,11.2917,60.77,-0.1273,0.0732,0.2652,175.7344
16:58:35:365,0.0144,3.9529,11.7296,61.3109,-0.269,-0.4485,0.4155,175.5024
16:58:35:386,1.1629,3.0963,12.5575,63.9696,-0.5782,-0.9457,0.3727,175.5427
16:58:35:406,1.7563,2.3545,13.7013,63.4338,-0.8286,-1.0141,0.176,175.8224
16:58:35:425,1.5362,1.4405,12.883,62.2911,-0.6808,-0.4057,0.0062,176.0566
16:58:35:446,0.1699,1.7827,10.9017,62.2051,-0.2507,0.5704,-0.0463,175.9178
16:58:35:465,-0.1364,2.0913,8.7529,62.1102,0.106,1.2741,0.099,175.392
16:58:35:485,0.4164,2.5196,7.3627,61.7842,0.2489,1.4049,0.2847,174.6533
16:58:35:505,1.0313,2.6201,6.5659,63.0742,0.2184,0.9797,0.297,174.0806
16:58:35:525,1.0289,2.7805,5.7619,61.5116,0.1634,0.436,0.1638,173.8082
16:58:35:545,1.0122,2.9743,5.2068,62.4549,0.0987,0.1758,0.0551,173.7616
16:58:35:570,1.2275,3.326,4.5631,62.7293,-0.2239,0.1062,-0.1673,173.9747
16:58:35:588,1.0528,3.2542,4.7713,63.0156,-0.5623,-0.0551,-0.3432,174.4291
16:58:35:606,0.8662,2.9264,5.6495,62.0775,-0.9691,-0.209,-0.48,175.0583
16:58:35:744,0.6843,2.5436,8.7266,61.7979,-1.244,-0.1956,-0.5363,175.7488
16:58:35:744,0.6389,2.2205,10.404,63.0348,-1.0998,-0.1809,-0.5204,176.4125
16:58:35:744,0.2991,2.2516,10.6744,62.9932,-0.5024,-0.093,-0.5106,177.0377
16:58:35:745,-0.1436,2.6082,9.1669,64.4988,0.1634,-0.1052,-0.5375,177.6819
16:58:35:745,-0.1914,2.8833,8.6812,63.5812,0.4542,-0.3275,-0.5631,178.3997
16:58:35:745,0.1268,2.9767,9.0281,61.5886,0.3454,-0.6916,-0.6059,179.2752
16:58:35:746,0.6197,2.814,10.3155,62.5194,0.117,-0.7417,-0.6474,180.2535
16:58:35:767,0.5168,2.9121,10.4231,61.1147,0.0596,-0.396,-0.5949,181.0724
16:58:35:786,0.0718,3.2112,10.2652,62.2819,0.2795,0.1868,-0.5277,181.6403
16:58:35:806,-0.0814,3.1322,10.0211,62.4032,0.5397,0.3297,-0.5082,182.1249
16:58:35:825,0.213,2.7278,10.952,62.1803,0.5739,0.0182,-0.513,182.7162
16:58:35:846,0.9476,2.4814,13.0983,62.3361,0.2086,-0.3923,-0.4972,183.4528
16:58:35:866,0.8782,1.3663,15.5414,62.8628,-0.2715,-0.5352,-0.4666,184.1934
16:58:35:886,0.0024,0.9954,16.7306,62.3291,-0.3509,0.0524,-0.452,184.6968
16:58:35:905,-0.4666,1.1964,15.1394,63.1127,0.1585,0.728,-0.2772,184.7997
16:58:35:925,-0.1819,1.919,11.8469,63.4565,0.8085,0.8453,0.005,184.5774
16:58:35:945,0.3087,2.9575,9.1908,62.2445,1.1103,0.4751,0.1638,184.3219
16:58:35:967,0.7059,3.618,7.4058,62.951,0.9783,-0.0197,0.1015,184.3071
16:58:35:985,0.5575,3.6419,6.8626,62.7073,0.5703,-0.2823,-0.1099,184.6113
16:58:36:005,-0.0742,3.3284,6.8554,62.6188,0.1121,-0.2151,-0.3322,185.0995
16:58:36:026,-1.3687,3.149,7.1258,63.9483,-0.2495,0.2308,-0.364,185.558
16:58:36:045,-1.3376,3.2351,6.8387,63.1888,-0.1041,0.2638,-0.1929,185.8132
16:58:36:067,-1.0959,3.3835,6.2524,64.0165,0.1084,0.2149,-0.0134,185.882
16:58:36:085,-0.7872,3.5629,5.7882,62.4706,0.2624,0.2051,0.1284,185.7159
16:58:36:105,-0.5671,3.8046,5.8576,62.5349,0.2795,0.2222,0.2029,185.4554
16:58:36:125,-0.4738,3.9051,6.4558,62.4255,0.2062,0.2919,0.2261,185.1673
16:58:36:145,-0.3972,3.8501,7.0851,63.1861,0.1598,0.3395,0.2249,184.8581
16:58:36:168,-0.4498,3.8333,7.4393,62.8439,0.2013,0.392,0.2151,184.5171
16:58:36:187,-0.7202,3.9362,7.6833,64.7231,0.31,0.5668,0.2322,184.0992
16:58:36:204,-0.9739,4.1874,8.2193,63.0543,0.4346,0.7708,0.286,183.5304
16:58:36:225,-1.1127,4.3765,8.6429,62.2263,0.5813,0.7818,0.3092,182.9288
16:58:36:244,-1.3137,4.7186,8.8056,63.8071,0.7144,0.6462,0.3165,182.3547
16:58:36:266,-1.5984,4.9388,8.9635,63.84,0.7779,0.48,0.3202,181.8662
16:58:36:285,-1.7013,5.0584,10.0355,63.4884,0.6741,0.1941,0.336,181.4751
16:58:36:304,-1.7444,5.7165,10.9878,64.0666,0.4908,-0.0991,0.413,181.156
16:58:36:325,-1.3424,5.6901,11.5502,64.6102,0.3284,-0.2249,0.4765,180.8613
16:58:36:345,-1.3687,5.3288,11.7009,63.4884,0.15,-0.2689,0.3983,180.664
16:58:36:365,-1.6176,5.1015,10.6122,63.9536,0.0095,-0.0612,0.3165,180.4355
16:58:36:385,-2.2708,5.3264,8.8989,63.3945,0.0156,0.673,0.3177,179.8021
16:58:36:404,-3.0293,5.9318,7.8508,63.0232,-0.0321,1.2363,0.2957,178.8871
16:58:36:425,-3.3452,5.805,8.7171,62.849,-0.313,1.0347,0.2261,178.1469
16:58:36:444,-3.0867,4.4674,11.0094,63.3923,-0.7235,0.1819,0.1626,177.9255
16:58:36:466,-2.9599,3.2471,12.749,63.157,-0.952,-0.6232,0.1345,178.1331
16:58:36:486,-2.7805,2.5196,11.2343,63.5277,-0.4792,-0.1492,0.457,177.8304
16:58:36:504,-2.1966,2.5795,9.7197,63.1861,-0.2202,0.3762,0.7392,176.9552
16:58:36:524,-1.0528,2.7876,8.3725,64.0201,-0.0687,0.579,0.9677,175.8002
16:58:36:546,-0.1077,2.9432,7.0708,64.6632,-0.0076,0.5142,1.0336,174.6152
16:58:36:567,0.3613,3.0867,6.2764,63.5759,-0.043,0.3175,0.9469,173.5988
16:58:36:585,0.5121,3.1322,5.9055,64.8419,-0.1396,0.0805,0.793,172.8479
16:58:36:605,0.6245,3.058,5.8887,63.538,-0.2129,-0.0917,0.6512,172.3253
16:58:36:625,0.8231,3.0365,5.9103,64.3923,-0.2239,-0.1614,0.5388,171.9505
16:58:36:645,0.9212,3.1346,5.8816,62.0068,-0.1554,-0.1052,0.4387,171.6625
16:58:36:666,0.8447,3.3404,6.1161,62.8171,-0.0931,-0.0856,0.2945,171.4944
16:58:36:685,0.7442,3.2734,6.5348,63.514,-0.0809,-0.2225,0.1394,171.5818
16:58:36:705,0.6915,3.1466,7.0804,64.3964,-0.0797,-0.4448,-0.0024,171.8813
16:58:36:725,0.5886,3.1561,7.6259,61.8023,-0.0479,-0.6415,-0.1257,172.3937
16:58:36:746,0.6197,3.1729,8.2792,64.1336,0.0144,-0.7673,-0.2211,173.0495
16:58:36:766,0.7346,3.0245,8.6429,64.4212,0.106,-0.8455,-0.3004,173.8151
16:58:36:785,0.8877,3.2638,8.8989,63.9578,0.15,-0.914,-0.3921,174.7216
16:58:36:805,0.9595,3.3571,9.21,63.7926,0.0522,-0.9066,-0.4825,175.7077
16:58:36:825,0.9308,3.4169,9.7101,62.6271,-0.1432,-0.6549,-0.5692,176.6699
16:58:36:846,0.6867,3.7711,9.813,62.4287,-0.3155,-0.1272,-0.6193,177.4639
16:58:36:865,0.8614,3.9817,9.9182,64.1033,-0.4987,0.4128,-0.6364,178.0506
16:58:36:885,1.7324,3.2399,11.0955,62.6188,-0.9007,0.3847,-0.7598,178.824
16:58:36:905,1.3639,2.2229,13.8257,62.2445,-1.4859,-0.1968,-1.0787,180.1544
16:58:36:925,-0.1699,1.0241,17.0082,62.9542,-1.795,-0.6012,-1.3695,181.8778
16:58:36:947,-3.07,0.8136,15.2255,63.3625,-0.456,-0.1064,-0.9419,183.4963
16:58:36:972,-2.2158,1.4237,11.3109,62.5993,0.4212,0.1941,-0.2345,184.6556
16:58:36:984,-0.5097,2.2038,8.2911,62.9405,0.7755,0.1208,0.3605,184.2901
16:58:37:005,0.9739,2.9647,6.5276,63.3077,0.6521,-0.0966,0.6195,183.7642
16:58:37:024,1.8114,3.2447,5.8337,63.0955,0.2648,-0.264,0.5511,183.4009
16:58:37:044,1.6989,3.2184,5.9486,63.1105,-0.1774,-0.3165,0.2273,183.3678
16:58:37:064,0.9141,2.9456,6.7143,62.0587,-0.5329,-0.2701,-0.1502,183.7112
16:58:37:084,0.134,2.7015,7.3149,63.6585,-0.6796,-0.1467,-0.3762,184.2417
16:58:37:104,-0.3781,2.7613,7.4369,63.2537,-0.5745,0.0304,-0.4116,184.7262
16:58:37:124,-0.5001,2.9599,6.7286,63.8539,-0.3472,0.1196,-0.3567,185.1333
16:58:37:145,-0.5336,3.204,6.0538,62.7594,-0.1664,0.1196,-0.2919,185.468
16:58:37:164,-0.5025,3.3906,6.1902,62.165,-0.142,0.0243,-0.2736,185.8158
16:58:37:184,-0.4666,3.4002,6.3601,63.5428,-0.1897,-0.104,-0.2895,186.1971
16:58:37:205,-0.5719,3.5533,6.987,63.4875,-0.2483,-0.1528,-0.3102,186.618
16:58:37:224,-0.6269,3.4361,8.083,62.2099,-0.3472,-0.2225,-0.3249,187.0808
16:58:37:245,-0.7849,3.326,8.8247,63.3,-0.3692,-0.2249,-0.3237,187.5302
16:58:37:265,-1.0289,3.4289,9.7938,62.9965,-0.3375,-0.121,-0.2846,187.9094
16:58:37:288,-1.0122,3.2949,10.7031,63.2256,-0.2788,-0.0001,-0.1917,188.1661
16:58:37:305,-1.2347,3.2518,11.3492,64.1286,-0.1237,0.1453,-0.1123,188.2796
16:58:37:326,-1.3543,3.1705,12.2417,61.7517,0.0669,0.177,-0.0256,188.2996
16:58:37:352,-1.1127,3.0173,12.6102,64.0501,0.3015,0.0927,0.0978,188.2028
16:58:37:369,-0.7968,3.2686,12.7011,64.9638,0.5446,-0.0563,0.2298,188.0204
16:58:37:387,-0.2584,3.728,12.5432,63.4875,0.6692,-0.2188,0.3397,187.7697
16:58:37:405,1.1366,2.7541,14.7876,63.5793,0.2538,-0.6574,0.1907,187.5815
16:58:37:426,0.6939,1.8305,15.7831,62.6808,0.0657,-0.8284,0.0147,187.8647
16:58:37:451,-0.6508,1.7372,13.9861,64.2339,0.4346,-0.209,-0.0024,187.9517
16:58:37:466,-1.3161,2.534,11.0716,63.2417,0.9135,0.6547,0.1577,187.5841
16:58:37:484,-0.5288,2.5675,9.2794,62.9461,0.8696,0.8136,0.3312,187.015
16:58:37:504,0.0072,2.3737,9.679,63.8327,0.387,0.5435,0.3018,186.5744
16:58:37:524,-0.2249,1.7659,10.258,64.2444,-0.0467,0.3969,0.1198,186.3657
16:58:37:549,-1.1533,1.541,9.8249,64.3569,-0.1457,0.6242,-0.0073,186.1951
16:58:37:565,-1.6223,1.4309,8.7673,63.4769,-0.0724,0.9638,0.0685,185.8279
16:58:37:585,-1.5888,1.5099,7.8413,64.4275,0.0107,1.1752,0.2847,185.1655
16:58:37:606,-0.9739,1.5338,7.1928,63.0558,0.0571,1.119,0.501,184.2996
16:58:37:629,-0.4355,1.6271,6.8148,64.5617,0.0938,0.838,0.6085,183.4179
16:58:37:646,-0.2823,1.7372,6.6497,65.0045,0.1549,0.4788,0.6036,182.6865
16:58:37:665,-0.1675,1.8425,6.1735,63.2537,0.2624,0.1526,0.5792,182.1026
16:58:37:684,0.1196,1.9813,5.4269,63.6328,0.3748,-0.0221,0.5975,181.5626
16:58:37:704,0.6078,2.1488,4.9843,63.1105,0.3821,-0.0697,0.6232,181.0139
16:58:37:725,0.8973,2.3091,5.0847,64.7032,0.2685,-0.0917,0.5779,180.5435
16:58:37:746,1.0457,2.3497,5.7045,65.0679,0.128,-0.1846,0.4656,180.2223
16:58:37:847,1.048,2.3785,6.4176,63.4509,0.0376,-0.4314,0.3202,180.133
16:58:37:848,1.127,2.3952,6.9583,64.3145,0.0046,-0.7356,0.1748,180.3035
16:58:37:850,1.2036,2.5388,7.1569,63.1492,-0.0247,-0.9115,0.0428,180.6738
16:58:37:851,1.1342,2.7182,7.5517,63.7456,-0.1127,-0.8113,-0.0854,181.1435
16:58:37:852,1.0098,2.9073,10.0259,63.6987,-0.3998,-0.5364,-0.2748,182.1579
16:58:37:867,1.2514,2.9073,10.3226,64.5928,-0.4132,-0.6794,-0.3554,182.8657
16:58:37:889,0.9978,3.0341,9.7867,63.7667,-0.3778,-0.5926,-0.4666,183.6432
16:58:37:905,0.2297,3.4983,9.3033,64.6668,-0.5049,-0.1541,-0.5876,184.3786
16:58:37:926,-0.0742,3.6562,9.9972,63.2926,-0.8775,0.3358,-0.6511,185.0092
16:58:37:946,0.6867,2.8666,12.7729,62.6446,-1.4321,0.4263,-0.7391,185.7393
16:58:37:964,0.6413,1.7827,16.9699,65.4781,-1.9062,-0.0331,-0.9467,186.8223
16:58:37:984,-0.5791,0.4786,22.0188,65.2178,-2.0173,-0.7368,-1.185,188.2789
16:58:38:005,-2.0315,-0.6796,22.593,64.8257,-1.2721,-0.8394,-1.1361,189.6162
16:58:38:030,-2.7972,0.0861,18.4223,64.5922,0.1475,-0.0551,-0.6034,190.2414
16:58:38:050,-0.8949,0.8207,12.9284,64.506,1.1713,0.5387,0.187,189.9463
16:58:38:068,0.938,1.7204,9.4253,65.2494,1.3986,0.5802,0.6696,189.1724
16:58:38:086,2.0148,2.3545,7.4202,65.4908,1.2373,0.447,0.7527,188.3547
16:58:38:107,2.1607,2.656,5.9318,65.0404,1.0321,0.2943,0.5376,187.8129
16:58:38:126,1.7779,2.747,4.7593,65.518,0.8366,0.1782,0.1931,187.6528
16:58:38:145,1.1605,2.7637,4.1348,66.0464,0.5678,0.0964,-0.1331,187.8412
16:58:38:165,0.4762,2.6321,4.142,64.0103,0.2306,0.0683,-0.3652,188.2693
16:58:38:184,-0.1196,2.668,4.7569,66.5575,-0.0553,0.0988,-0.4727,188.7884
16:58:38:207,-0.2225,2.6848,5.2188,66.2945,-0.1897,0.1025,-0.474,189.307
16:58:38:227,-0.268,2.9001,5.403,66.8037,-0.164,0.0781,-0.4422,189.7969
16:58:38:247,-0.323,3.1083,5.2666,64.1817,-0.0919,0.0207,-0.4373,190.3038
16:58:38:265,-0.4498,3.3476,5.348,62.9019,-0.0821,-0.038,-0.4434,190.834
16:58:38:284,-0.6843,3.4361,6.2142,65.0699,-0.1762,-0.0942,-0.469,191.3942
16:58:38:305,-1.5075,3.192,8.9539,66.0542,-0.3656,-0.1589,-0.4776,192.5297
16:58:38:328,-1.7803,3.0676,10.057,65.6292,-0.335,-0.1088,-0.375,192.972
16:58:38:346,-1.7707,2.8857,10.9424,64.3719,-0.2165,-0.016,-0.2161,193.2016
16:58:38:365,-1.7085,2.8546,11.3683,65.5583,-0.0247,0.1049,-0.0329,193.2004
16:58:38:384,-1.6152,2.9623,11.7918,65.5583,0.1536,0.166,0.132,193.0189
16:58:38:405,-1.3304,2.9647,12.1029,65.5583,0.2697,0.1453,0.2762,192.699
16:58:38:425,-1.0385,3.3643,12.3613,65.5583,0.343,0.1501,0.4032,192.254
16:58:38:445,-0.7131,3.9075,11.9928,65.5583,0.3821,0.2821,0.4961,191.6872
16:58:38:464,-0.3183,3.7902,11.3779,65.5583,0.3332,0.5106,0.4839,191.0766
16:58:38:485,-0.615,3.1322,12.737,65.5583,0.0681,0.4556,0.3458,190.6214
16:58:38:512,-1.584,2.5819,13.9693,65.5583,-0.0699,0.2467,0.253,190.3024
16:58:38:532,-2.6297,2.7398,12.1508,65.5583,0.3393,0.4458,0.3141,189.8303
16:58:38:548,-2.9862,3.5103,8.6859,65.5583,0.883,0.7964,0.49,189.0449
16:58:38:564,-2.4814,3.8524,7.3699,65.5583,0.8097,0.634,0.6207,188.1819
16:58:38:584,-1.2538,3.204,9.6359,68.5662,0.1414,0.0414,0.6109,187.5734
16:58:38:608,-1.0385,2.1751,13.4405,67.193,-0.4511,-0.5132,0.4374,187.3703
16:58:38:625,-1.2275,1.3113,15.3093,66.6785,-0.4401,-0.5951,0.286,187.3284
16:58:38:644,-1.6176,1.1246,13.2538,66.5575,0.1475,-0.071,0.3446,187.0128
16:58:38:664,-1.4883,1.4764,9.9039,66.7593,0.646,0.5558,0.567,186.2485
16:58:38:686,-0.7657,1.6726,8.0375,65.9117,0.6985,0.849,0.7942,185.1575
16:58:38:709,0.1125,1.931,7.2455,66.923,0.5226,0.8221,0.9396,183.9334
16:58:38:724,0.6365,2.1105,6.7741,67.7047,0.387,0.7097,0.9371,182.7589
16:58:38:746,0.9093,2.2373,6.1854,65.841,0.3687,0.6022,0.8589,181.725
16:58:38:768,1.2179,2.5819,4.7067,65.5881,0.409,0.3554,0.683,180.0285
16:58:38:784,1.2132,2.7374,4.1874,65.5881,0.3271,0.1782,0.5682,179.4598
16:58:38:805,1.194,2.8187,4.3765,65.3211,0.1536,-0.0429,0.4301,179.1298
16:58:38:824,1.3424,2.723,5.0895,66.5328,-0.0492,-0.3349,0.2798,179.0848
16:58:38:844,1.462,2.6034,6.1017,67.0133,-0.186,-0.5963,0.1247,179.3212
16:58:38:863,1.3161,2.6058,7.1545,66.4781,-0.208,-0.7527,-0.0329,179.7684
16:58:38:884,1.0146,2.589,7.8126,67.1747,-0.1322,-0.8712,-0.1905,180.4256
16:58:38:904,0.8686,2.7446,7.7001,67.1229,-0.0186,-0.9873,-0.3139,181.2303
16:58:38:926,0.9284,3.0293,7.7169,65.0134,-0.0394,-1.096,-0.4214,182.1802
16:58:38:944,1.0768,2.9527,7.9992,66.2822,-0.252,-1.1106,-0.5558,183.275
16:58:38:965,0.6197,2.9623,8.3079,67.8418,-0.5256,-0.8235,-0.7183,184.3977
16:58:38:986,-0.3422,3.204,8.942,65.9373,-0.8139,-0.3141,-0.8527,185.4268
16:58:39:008,-0.9141,3.4002,9.7555,66.7747,-1.0876,0.1636,-0.8893,186.3117
16:58:39:027,-0.6724,3.2806,10.8347,66.1941,-1.343,0.4202,-0.8954,187.1381
16:58:39:046,0.0287,2.5388,12.4929,66.9416,-1.6386,0.3346,-0.9883,188.1181
16:58:39:063,-0.5719,1.3998,16.0869,66.2848,-2.0674,-0.0331,-1.2155,189.4525
16:58:39:083,-2.5986,0.28,19.7982,67.8231,-2.2214,-0.1785,-1.4195,190.9848
16:58:39:102,-4.4841,0.1005,19.0253,69.0184,-1.5116,0.3969,-1.1984,192.1373
16:58:39:123,-4.6014,1.0313,14.9384,67.7555,-0.4022,1.1104,-0.5472,192.4702
16:58:39:145,-3.1394,1.2921,11.6076,67.4564,0.2502,1.1349,0.0868,192.1586
16:58:39:164,-1.5601,1.7276,10.4638,66.7929,0.3613,0.59,0.4827,191.5424
16:58:39:184,-0.2058,1.9501,9.7795,67.5744,0.3381,-0.0319,0.6354,190.9016
16:58:39:206,0.4642,2.3234,8.6644,66.1294,0.4224,-0.2884,0.5853,190.3852
16:58:39:225,0.6389,2.6728,6.3649,67.3324,0.4065,-0.0001,0.2444,190.0321
16:58:39:245,0.1268,2.7206,6.3721,67.7553,0.1903,0.1159,0.0416,189.779
16:58:39:265,-0.3613,2.6991,6.9344,66.6691,-0.0076,0.1074,-0.105,189.9113
16:58:39:288,-0.6963,2.6417,7.3675,67.2139,-0.0748,0.0695,-0.1697,190.0978
16:58:39:306,-0.8016,2.668,7.3388,66.4114,-0.0137,0.0414,-0.1673,190.2985
16:58:39:324,-0.6413,2.723,7.054,67.7285,0.0657,0.0549,-0.1306,190.4496
16:58:39:344,-0.6867,2.8044,6.8842,65.7949,0.0779,0.1159,-0.1221,190.5898
16:58:39:364,-1.0744,2.9025,7.0971,66.814,0.018,0.1819,-0.1441,190.7183
16:58:39:385,-1.4812,2.9001,7.5876,65.7107,-0.0504,0.2234,-0.1355,190.8262
16:58:39:404,-1.7252,2.9216,8.2457,66.5871,-0.0614,0.2308,-0.0671,190.8529
16:58:39:425,-1.7539,2.9432,8.8056,66.0505,-0.0027,0.1782,0.049,190.7702
16:58:39:445,-1.6128,2.9432,9.0377,66.5871,0.1194,0.0976,0.1748,190.5751
16:58:39:466,-1.7037,2.936,9.3344,67.6698,0.2551,0.0023,0.2627,190.3044
16:58:39:489,-1.9023,2.8762,9.8201,67.3367,0.3699,-0.1382,0.3263,189.9946
16:58:39:508,-1.9071,2.8259,10.2341,67.5896,0.4713,-0.3031,0.3947,189.6588
16:58:39:526,-1.3807,2.723,10.4806,65.5672,0.5605,-0.3996,0.4765,189.2713
16:58:39:544,-0.2513,2.5771,11.1218,68.2326,0.5544,-0.4289,0.5401,188.8698
16:58:39:564,0.2345,2.7302,12.2776,66.2848,0.3858,-0.4412,0.4973,188.5276
16:58:39:589,0.0885,2.5986,12.6532,67.4338,0.277,-0.1809,0.3495,188.2675
16:58:39:607,-0.6772,2.5005,11.2654,66.3152,0.3528,0.3701,0.2163,187.9492
16:58:39:625,-1.7372,2.6943,10.2389,65.1449,0.3491,0.8184,0.209,187.4735
16:58:39:643,-2.68,2.8475,9.4349,66.8755,0.3088,1.0371,0.2921,186.8172
16:58:39:664,-3.3404,3.204,8.0877,66.0589,0.3687,1.0774,0.3849,186.0446
16:58:39:688,-2.8259,2.8163,9.2195,67.4064,-0.2263,0.0524,0.4057,184.8044
16:58:39:704,-2.3976,1.5888,13.3807,66.9416,-0.8628,-0.7747,0.2469,184.7963
16:58:39:725,-2.6034,0.7466,16.6804,67.7459,-1.0974,-1.1363,0.0831,185.0533
16:58:39:749,-2.7613,-0.1053,15.7137,66.2699,-0.6014,-0.6293,0.1748,185.0336
16:58:39:770,-3.1274,0.5336,12.9667,66.0312,0.0803,0.2735,0.545,184.3597
16:58:39:787,-2.065,1.0361,10.8467,66.42,0.453,0.8893,1.0373,183.0123
16:58:39:806,-0.6245,1.3735,9.4923,66.5254,0.5996,0.9858,1.4099,181.2708
16:58:39:824,0.5671,1.9573,8.1117,65.3222,0.734,0.8954,1.5565,179.4165
16:58:39:843,1.3376,2.4885,6.8172,67.1648,0.8342,0.728,1.5016,177.6945
16:58:39:954,1.5218,2.8546,5.8552,66.0011,0.8488,0.546,1.2865,176.2493
16:58:39:955,1.4261,3.0197,5.3192,66.9639,0.7816,0.3627,1.0459,175.0936
16:58:39:955,1.4692,3.0269,5.1374,64.9717,0.6631,0.1611,0.8516,174.2308
16:58:39:955,1.4572,2.9982,5.1876,65.1586,0.5324,-0.0282,0.6684,173.6376
16:58:39:955,1.3208,2.8929,5.4604,65.8625,0.398,-0.1919,0.4753,173.3012
16:58:39:971,1.2108,2.79,6.0897,65.822,0.2917,-0.33,0.3165,173.2231
16:58:39:986,1.1773,2.7063,6.5276,65.5312,0.2636,-0.4497,0.198,173.3173
16:58:40:005,1.1079,2.8068,6.6712,64.2778,0.3284,-0.5255,0.099,173.5476
16:58:40:025,0.9667,3.015,6.8172,63.3047,0.3919,-0.6122,0.0025,173.9055
16:58:40:045,0.4116,3.259,7.9681,64.5458,0.3674,-0.7771,-0.1245,174.4391
16:58:40:068,0.2823,3.2973,8.6907,65.7076,0.3186,-1.0398,-0.2345,175.2068
16:58:40:085,0.6652,3.5151,8.0255,64.5175,0.3064,-1.0838,-0.2968,176.0551
16:58:40:105,0.8207,4.2592,6.8387,64.2356,0.1133,-0.6354,-0.3701,176.7794
16:58:40:124,0.8997,4.5942,7.0014,65.4162,-0.4706,0.0659,-0.5289,177.3433
16:58:40:149,0.4953,2.6297,13.5625,63.3699,-2.12,0.2528,-1.2583,179.2806
16:58:40:169,-1.3065,1.34,18.329,63.3699,-2.4425,-0.187,-1.6224,181.0434
16:58:40:185,-3.5438,0.9356,19.9179,64.1753,-1.9196,-0.4057,-1.6419,182.8368
16:58:40:204,-4.1133,1.1892,16.9651,65.8877,-0.6954,-0.1711,-1.0836,183.972
16:58:40:223,-2.5914,2.0961,12.6772,63.4003,0.3198,0.0732,-0.2247,184.1628
16:58:40:243,-0.2752,2.6154,9.8489,64.0337,0.613,0.0744,0.4155,183.7298
16:58:40:265,1.3854,3.1442,8.4586,64.8895,0.4408,0.0158,0.617,183.1557
16:58:40:285,2.2708,3.3595,7.9155,64.2004,0.1366,0.028,0.4656,182.7725
16:58:40:302,1.9478,3.1872,7.9705,65.3213,-0.1603,0.0976,0.0746,182.7771
16:58:40:324,0.5145,2.9527,8.4084,65.4563,-0.3363,0.2014,-0.3774,183.1777
16:58:40:344,-0.8997,2.747,8.6429,64.3273,-0.3106,0.2638,-0.6279,183.7837
16:58:40:365,-1.5338,2.6991,8.1165,65.1672,-0.1004,0.2198,-0.5839,184.3348
16:58:40:385,-1.4429,2.991,7.2168,63.1869,0.15,0.0732,-0.3896,184.7214
16:58:40:404,-0.8734,3.1322,6.5228,63.7515,0.2941,-0.1101,-0.2101,184.9889
16:58:40:423,-0.4427,3.3452,6.1041,62.6299,0.3186,-0.2212,-0.138,185.2226
16:58:40:444,-0.2967,3.46,5.927,65.6199,0.2697,-0.2029,-0.1673,185.4823
16:58:40:467,-0.5432,3.5868,6.1424,65.5241,0.1561,-0.1272,-0.2406,185.7856
16:58:40:484,-1.0672,3.5844,7.145,64.623,0.0058,-0.0966,-0.3188,186.1481
16:58:40:503,-1.4859,3.4529,8.7482,63.7968,-0.098,-0.1724,-0.3493,186.5643
16:58:40:523,-1.6343,3.3045,9.9206,65.0568,-0.037,-0.2945,-0.3004,186.9669
16:58:40:548,-2.0889,3.2734,9.588,63.759,0.4676,-0.2029,-0.1086,187.4079
16:58:40:566,-2.199,3.3476,9.8106,63.759,0.5617,-0.1504,0.0099,187.3877
16:58:40:589,-1.7061,3.1442,10.8754,64.623,0.5312,-0.242,0.1247,187.3204
16:58:40:607,-0.9141,2.8977,11.9641,66.2723,0.5214,-0.4314,0.2004,187.245
16:58:40:627,-0.737,3.058,12.5073,64.1838,0.5312,-0.5487,0.1955,187.2392
16:58:40:646,-0.6796,3.1322,11.7464,65.8087,0.5813,-0.2493,0.1882,187.1209
16:58:40:666,-0.6628,3.2207,10.483,61.9729,0.5617,0.3542,0.2212,186.7635
16:58:40:685,-1.4788,3.2782,10.3777,63.7589,0.3039,0.6792,0.2041,186.2845
16:58:40:702,-2.4957,3.2327,10.0881,64.3633,0.139,0.838,0.1907,185.6995
16:58:40:723,-3.0317,3.5557,8.6883,63.691,0.2159,0.9296,0.2383,185.0381
16:58:40:745,-2.7876,3.6036,7.4656,64.9614,0.128,0.7292,0.2615,184.4308
16:58:40:766,-2.4311,2.8642,8.8439,63.097,-0.4315,0.2296,0.1564,184.1474
16:58:40:787,-2.5149,1.5888,12.3159,65.0339,-1.1169,-0.1821,-0.0195,184.2071
16:58:40:803,-2.9623,0.8829,14.1464,61.9612,-1.2758,-0.1394,-0.0256,184.2258
16:58:40:824,-3.1322,1.0792,12.8088,62.6794,-0.7797,0.4495,0.286,183.7359
16:58:40:843,-2.2181,1.5434,10.1623,62.2204,-0.2312,1.0261,0.7808,182.5592
16:58:40:864,-0.6652,1.9454,8.5041,62.1538,-0.0357,1.2338,1.1583,180.9641
16:58:40:885,0.5456,2.2564,7.9442,62.5446,-0.0944,1.1568,1.2951,179.2766
16:58:40:905,1.1605,2.534,7.8556,62.3809,-0.1567,0.9687,1.2242,177.7275
