Time,Acc_X,Acc_Y,Acc_Z,Meg,Gyr_X,Gyr_Y,Gyr_Z,Ore
19:30:47:004,-1.1557,3.1466,9.8154,59.7386,0.2744,-0.5577,-0.4846,8.7491
19:30:47:052,-1.3807,3.4385,9.0329,62.257,0.5419,-0.5272,-0.4125,43.8185
19:30:47:071,-1.1294,3.6873,8.9587,61.5525,0.5419,-0.5272,-0.4125,43.7634
19:30:47:089,-1.5338,3.6897,8.7003,61.6897,-0.0409,-0.2425,-0.4822,44.3105
19:30:47:113,-1.8233,3.74,8.4084,59.7012,-0.0983,-0.1692,-0.4296,44.8794
19:30:47:141,-1.8305,3.7998,8.3988,61.5186,-0.1936,-0.036,-0.3453,45.1549
19:30:47:150,-1.8018,3.7759,8.942,62.0702,-0.2925,0.0568,-0.2879,45.3571
19:30:47:167,-2.01,3.7854,9.7747,60.3443,-0.2962,0.0397,-0.2879,45.7725
19:30:47:185,-2.12,3.6132,9.923,57.809,-0.1361,-0.0544,-0.3014,46.3209
19:30:47:204,-2.2493,3.4624,9.4397,60.4586,0.0935,-0.0947,-0.3185,46.9268
19:30:47:223,-2.4048,3.2973,8.796,62.8269,0.1974,-0.1081,-0.3319,47.5763
19:30:47:251,-2.5412,3.2566,8.5352,59.3857,0.1204,-0.1142,-0.3099,48.1852
19:30:47:264,-2.4861,3.4552,8.5017,60.8794,-0.0286,-0.0971,-0.2244,48.5394
19:30:47:282,-2.3761,3.8572,8.5424,59.5093,-0.1215,-0.025,-0.1157,48.5145
19:30:47:300,-2.2756,4.2377,8.7075,60.5625,-0.1166,0.0446,-0.0534,48.3246
19:30:47:319,-2.1368,4.3789,8.5519,59.0768,0.0276,0.047,-0.0302,48.0973
19:30:47:340,-2.187,4.5775,8.083,60.1488,0.2108,-0.0226,-0.0582,47.7961
19:30:47:361,-2.0818,4.5153,7.8748,60.8811,0.2585,-0.1594,-0.1328,47.621
19:30:47:379,-2.2038,4.3214,7.9585,61.9777,0.1864,-0.2999,-0.2598,47.809
19:30:47:401,-2.6871,4.1803,8.2385,60.9462,0.0667,-0.372,-0.3759,48.3246
19:30:47:419,-3.0413,4.142,8.3175,60.35,-0.0445,-0.2804,-0.3857,48.8827
19:30:47:439,-3.2686,4.1994,8.3103,60.6109,-0.1227,-0.0617,-0.305,49.2248
19:30:47:462,-3.2136,4.1994,8.2624,61.1534,-0.1655,0.0947,-0.1926,49.3842
19:30:47:479,-2.9121,4.2616,8.1045,61.1534,-0.1703,0.1069,-0.0802,49.3495
19:30:47:499,-2.5986,4.4052,8.2337,60.8499,-0.1826,0.0397,-0.0155,49.2111
19:30:47:519,-2.4072,4.5081,8.3725,61.0949,-0.1618,-0.0238,0.0175,49.0364
19:30:47:539,-2.3354,4.5248,8.3916,61.7096,-0.0518,-0.0128,0.0468,48.8362
19:30:47:561,-2.0602,4.453,7.937,62.7497,0.0813,-0.0031,0.0847,48.5659
19:30:47:584,-1.8951,4.465,7.5135,61.4425,0.1326,-0.0409,0.0969,48.2646
19:30:47:602,-1.9525,4.5033,7.3101,61.6475,0.0569,-0.1228,0.0749,48.0122
19:30:47:619,-2.0387,4.5129,7.4465,63.1806,-0.0995,-0.1814,0.0541,47.8445
19:30:47:639,-2.132,4.4937,7.87,61.7894,-0.2607,-0.1814,0.0444,47.7293
19:30:47:660,-1.919,4.4387,8.205,62.4479,-0.3475,-0.2205,0.0505,47.6201
19:30:47:679,-1.7372,4.5344,8.4467,63.4018,-0.3365,-0.3146,0.0493,47.5591
19:30:47:700,-1.8927,4.4459,9.2028,63.7642,-0.3426,-0.4478,0.0273,47.6206
19:30:47:719,-1.8233,4.2353,9.7364,62.6944,-0.3292,-0.5137,0.0578,47.7224
19:30:47:739,-1.8927,4.3454,9.6287,60.2911,-0.207,-0.4697,0.0981,47.784
19:30:47:765,-0.8806,4.4913,10.2963,60.3587,-0.3463,-0.5052,0.2435,47.697
19:30:47:780,-0.5599,4.5607,10.6648,60.2101,-0.411,-0.5357,0.2008,47.5553
19:30:47:799,-0.4546,4.386,10.5188,61.5997,-0.3524,-0.5467,0.0859,47.5053
19:30:47:819,-0.4522,3.7424,10.9854,61.3994,-0.3597,-0.6151,-0.0155,47.7426
19:30:47:839,-0.9236,2.9288,12.1842,63.1339,-0.4379,-0.675,-0.09,48.226
19:30:47:859,-0.8542,2.1846,12.7825,61.3631,-0.4073,-0.6481,-0.046,48.72
19:30:47:879,-0.5121,1.931,12.213,62.6837,-0.2229,-0.4612,0.0725,48.99
19:30:47:900,0.0096,2.0148,11.1673,62.2469,-0.0347,-0.2327,0.1861,48.9594
19:30:47:919,0.9188,2.1416,10.191,62.5392,0.0398,-0.0935,0.2716,48.6882
19:30:47:938,1.7563,2.1966,9.679,62.4337,0.0166,-0.0214,0.2606,48.3114
19:30:47:958,1.931,2.0267,9.4253,62.2469,-0.0518,0.0311,0.1213,48.0978
19:30:47:979,1.5984,1.9286,9.1789,63.1522,-0.1007,0.0592,-0.0643,48.0693
19:30:47:999,1.127,1.9071,9.1286,62.1116,-0.1154,0.0495,-0.1951,48.2327
19:30:48:022,0.6437,1.8999,9.009,62.8738,-0.0824,0.0421,-0.2342,48.4603
19:30:48:041,0.7777,2.1607,8.5304,62.9856,-0.0262,0.0104,-0.1939,48.6236
19:30:48:061,0.7489,2.4263,8.1619,63.2743,-0.0372,0.0043,-0.2024,48.7569
19:30:48:079,0.2847,2.6465,8.0231,63.1339,-0.0799,0.0275,-0.2879,48.9738
19:30:48:099,0.0096,2.8163,8.0949,62.5421,-0.0934,0.0666,-0.3185,49.2209
19:30:48:118,-0.1699,2.9695,8.3342,62.8416,-0.0653,0.0788,-0.3099,49.4539
19:30:48:141,-0.2513,3.0772,8.0303,62.0525,0.0569,0.135,-0.2855,49.6303
19:30:48:159,-0.2201,3.125,7.5805,62.5844,0.1522,0.1716,-0.2781,49.7914
19:30:48:178,-0.2967,3.1992,7.6762,61.861,0.1155,0.1301,-0.2855,49.9781
19:30:48:198,-0.3302,3.2518,8.3079,62.5528,0.0105,0.0238,-0.2781,50.1987
19:30:48:219,0.0168,3.393,8.8343,62.6584,0.0129,0.1313,-0.1376,50.3761
19:30:48:239,0.2321,3.4792,9.0114,63.2424,-0.0005,0.2413,-0.1059,50.394
19:30:48:263,0.1555,3.5677,9.588,65.386,-0.0763,0.2486,-0.1609,50.3304
19:30:48:282,-0.4379,3.6419,10.0786,64.3689,-0.1215,0.2535,-0.2549,50.4479
19:30:48:299,-1.5434,3.7974,10.2628,63.8323,-0.0738,0.3622,-0.2977,50.6294
19:30:48:318,-2.065,3.9266,9.9374,63.8739,0.0605,0.5088,-0.211,50.6668
19:30:48:339,-2.0435,3.9984,9.3727,64.4512,0.1925,0.5956,-0.0643,50.5099
19:30:48:358,-1.9645,3.8668,9.6239,63.9263,0.1729,0.4575,0.0065,50.3284
19:30:48:378,-2.5412,3.8094,10.605,63.7689,0.0373,0.1948,-0.0253,50.3138
19:30:48:398,-3.2423,4.1085,10.8802,64.6208,0.0068,0.1472,-0.0216,50.3072
19:30:48:419,-2.5651,3.4816,10.3992,63.5607,0.0752,0.3305,0.048,50.1995
19:30:48:441,-1.2514,1.6104,10.483,62.0621,0.0154,0.2596,0.0065,50.2391
19:30:48:462,-1.206,0.3446,12.3972,64.8224,-0.2852,-0.2193,-0.1657,50.7167
19:30:48:479,-3.1202,0.8088,13.9454,64.2071,-0.5088,-0.6445,-0.2904,51.5422
19:30:48:498,-3.7735,1.2347,12.7992,64.7101,-0.1972,-0.3769,-0.0668,52.0092
19:30:48:518,-2.6967,1.4788,9.3631,63.4659,0.4991,0.317,0.4133,51.6257
19:30:48:538,-1.529,1.8161,6.5635,63.0265,0.8388,0.4893,0.6699,50.8112
19:30:48:562,-0.993,1.9836,6.3936,62.4109,0.5285,0.0385,0.6027,50.1968
19:30:48:580,-1.5793,1.6989,8.7123,62.6889,0.008,-0.4331,0.3755,50.0737
19:30:48:598,-2.2732,1.5147,10.2652,62.7088,-0.1752,-0.5516,0.2435,50.1978
19:30:48:618,-2.1559,1.3472,9.7244,64.3178,0.0679,-0.3109,0.3144,50.1354
19:30:48:639,-1.4955,1.6032,8.4012,64.0883,0.3024,0.0153,0.4683,49.7293
19:30:48:659,-1.0265,1.7444,7.8006,63.3922,0.2511,0.1851,0.5123,49.1873
19:30:48:679,-1.6869,2.0937,8.0806,62.1362,-0.0299,0.1765,0.3474,48.7257
19:30:48:698,-1.7946,2.2277,8.059,61.961,-0.0518,0.0947,0.3547,48.3704
19:30:48:718,-1.6989,2.5579,8.1332,61.1793,-0.0176,0.0519,0.4292,47.6422
19:30:48:739,-1.1797,2.6848,8.1141,61.1792,0.0324,0.0141,0.5013,47.1353
19:30:48:758,-1.2802,2.9719,8.0542,61.1792,0.1106,0.08,0.4891,46.6081
19:30:48:779,-1.0433,3.1777,8.1835,61.1793,0.1253,0.1167,0.4646,46.0785
19:30:48:798,-1.0576,3.3882,8.54,63.0169,0.0996,0.1081,0.4414,45.5759
19:30:48:818,-0.9332,3.4983,8.8247,61.8949,0.0886,0.124,0.4268,45.0616
19:30:48:838,-0.8112,3.7687,8.9133,62.0621,0.1118,0.1875,0.439,44.4957
19:30:48:858,-0.3087,3.8644,8.7601,62.1689,0.1363,0.2278,0.4414,43.9089
19:30:48:878,0.1699,3.9888,8.4706,61.6795,0.1314,0.2767,0.3767,43.3452
19:30:48:898,-0.189,3.8572,9.3727,62.5492,0.0324,0.295,0.1995,42.9796
19:30:48:918,-1.0026,3.7591,9.7436,62.2085,0.0495,0.3891,0.0676,42.7679
19:30:48:939,-1.3974,3.752,8.7242,60.6895,0.2243,0.51,0.1018,42.4817
19:30:48:958,-1.4668,4.1276,7.9896,61.6476,0.2145,0.4111,0.2056,42.0741
19:30:49:052,-0.2465,3.6251,8.7817,63.4436,-0.1227,0.1997,0.2912,41.6547
19:30:49:052,0.725,2.5292,10.7605,61.8469,-0.5918,-0.1008,0.2203,41.4354
19:30:49:059,1.1677,1.7779,13.8951,62.8344,-1.0536,-0.4624,0.0651,41.5706
19:30:49:060,1.0026,1.2251,17.0321,61.7686,-1.3176,-0.5101,-0.0216,41.8381
19:30:49:070,1.2347,1.139,17.8648,62.3989,-1.0598,-0.1704,0.0114,41.7155
19:30:49:081,2.4646,1.608,12.2584,58.4949,0.5028,0.3048,0.0053,41.5209
19:30:49:100,2.1942,1.6654,9.6239,62.0311,0.818,-0.0055,-0.2403,41.724
19:30:49:120,1.3113,1.8042,7.8221,58.0563,0.807,-0.1985,-0.5127,42.2871
19:30:49:140,0.3805,1.943,7.0325,61.6711,0.6396,-0.1692,-0.6825,43.032
19:30:49:164,0.0502,1.9358,6.4893,61.6711,0.4393,-0.0336,-0.7143,43.7687
19:30:49:183,-0.0838,2.2493,6.3386,60.7836,0.2756,0.0507,-0.6715,44.4214
19:30:49:199,-0.0981,2.4837,6.3601,58.8459,0.1583,-0.0421,-0.6386,45.0694
19:30:49:218,-0.5862,2.8642,6.4989,60.2829,0.1277,-0.19,-0.6508,45.8037
19:30:49:239,-1.1031,3.1083,6.8722,61.5562,0.1473,-0.267,-0.6557,46.5703
19:30:49:262,-1.2443,3.1585,7.2742,58.9245,0.2108,-0.2621,-0.6019,47.2981
19:30:49:280,-0.9978,3.46,6.8674,60.9811,0.3415,-0.1924,-0.4895,47.8423
19:30:49:298,-1.0217,3.6347,6.9344,61.6108,0.3318,-0.2022,-0.4492,48.3676
19:30:49:318,-1.3256,3.7137,7.9059,58.9616,0.1998,-0.2535,-0.4553,48.9322
19:30:49:338,-1.1868,3.527,8.5831,59.5894,0.1497,-0.2278,-0.4309,49.4632
19:30:49:358,-1.0193,3.3667,8.5735,59.327,0.2206,-0.113,-0.3734,49.9128
19:30:49:378,-1.1127,3.3045,8.7147,60.8234,0.2499,-0.0666,-0.3392,50.3107
19:30:49:398,-1.663,3.6275,9.2387,59.7894,0.1888,-0.1057,-0.3026,50.7005
19:30:49:418,-1.7683,3.929,9.3942,58.9994,0.1351,-0.0861,-0.2146,51.002
19:30:49:438,-1.9956,4.4626,9.4708,58.3078,0.1277,-0.0092,-0.1034,51.1156
19:30:49:462,-1.5194,4.4507,9.5952,59.1704,0.0984,0.0641,0.0028,51.0873
19:30:49:478,-1.1844,4.5631,9.6311,59.4815,0.0557,0.1179,0.0505,50.9853
19:30:49:498,-1.4572,4.4722,10.2197,58.6248,-0.0702,0.1594,0.0102,50.9209
19:30:49:519,-2.4646,4.4052,10.9998,60.1557,-0.1777,0.2486,-0.0546,50.9319
19:30:49:539,-3.015,4.1563,11.4209,57.9954,-0.1557,0.295,-0.0314,50.9281
19:30:49:559,-2.7063,3.5988,11.1601,59.5209,-0.0189,0.1997,0.0676,50.8781
19:30:49:579,-1.4596,2.412,11.4042,59.7949,0.0031,-0.0825,0.1409,50.8881
19:30:49:599,-2.6488,2.5603,11.5358,57.64,0.0105,-0.0984,0.1568,50.9944
19:30:49:618,-2.8905,2.6824,9.0401,57.8608,0.3623,0.179,0.2594,50.8066
19:30:49:638,-2.5627,2.68,6.8459,58.6528,0.5431,0.1081,0.3486,50.482
19:30:49:657,-1.9382,2.6776,6.6688,57.0158,0.2951,-0.1643,0.3877,50.2337
19:30:49:678,-1.2754,2.5508,8.004,58.8917,-0.1545,-0.2938,0.3694,50.0528
19:30:49:698,-1.0026,2.345,9.466,60.7076,-0.477,-0.1631,0.2973,49.8999
19:30:49:718,-1.1557,2.2445,10.2126,60.4229,-0.5149,0.0715,0.2166,49.743
19:30:49:738,-1.3902,2.2732,9.5043,57.895,-0.2632,0.2608,0.1824,49.5466
19:30:49:758,-1.2275,2.4503,7.9035,59.177,0.0386,0.2865,0.2008,49.3064
19:30:49:780,-1.2562,2.5603,6.6449,58.6311,0.1644,0.2071,0.1958,49.0945
19:30:49:798,-1.462,2.6297,6.5276,57.4982,0.0764,0.1325,0.1665,48.9233
19:30:49:819,-1.517,2.802,7.2168,58.8917,-0.0848,0.1289,0.1922,48.7178
19:30:49:842,-1.5793,3.0054,7.8365,58.6264,-0.1459,0.2315,0.2435,48.4402
19:30:49:858,-1.4477,3.1011,8.1021,59.6409,-0.0921,0.2926,0.2814,48.098
19:30:49:877,-1.4357,3.3308,8.0327,55.9576,0.0141,0.1509,0.2899,47.7805
19:30:49:898,-1.3304,3.4289,7.7575,57.7329,0.0911,0.0018,0.2667,47.5382
19:30:49:917,-1.4692,3.3499,8.327,58.3651,0.0398,-0.0031,0.2252,47.364
19:30:49:938,-1.6917,3.4839,9.21,55.577,-0.0347,0.0311,0.2215,47.1903
19:30:49:958,-1.5386,3.6108,9.2889,57.4818,0.0056,0.0837,0.2667,46.9423
19:30:49:977,-1.4477,3.7256,9.3679,58.6683,0.0532,0.1118,0.2814,46.6555
19:30:49:998,-0.8614,3.6921,9.6431,58.3718,0.0129,0.047,0.2741,46.4337
19:30:50:019,-0.4642,3.7256,10.325,57.6661,-0.1031,-0.1448,0.2081,46.3627
19:30:50:038,-0.7011,3.5509,11.3874,58.0017,-0.2497,-0.2865,0.0871,46.4508
19:30:50:059,-0.3781,3.1107,11.7248,56.7465,-0.2962,-0.1118,0.0664,46.5612
19:30:50:078,0.1077,2.345,12.4259,56.4786,-0.367,-0.19,0.0248,46.6776
19:30:50:097,0.0646,1.7779,13.9645,57.0218,-0.5002,-0.46,-0.0509,47.0152
19:30:50:118,0.6508,1.8736,13.7827,56.6996,-0.3866,-0.526,0.026,47.2769
19:30:50:140,1.3759,1.9573,11.7296,59.1463,-0.0274,-0.2156,0.1299,47.2787
19:30:50:164,1.663,2.1655,9.6407,58.5615,0.2182,0.0568,0.1116,47.1723
19:30:50:177,2.1512,2.1535,8.3246,58.5615,0.1998,0.0458,0.0199,47.1377
19:30:50:197,2.065,2.0076,7.9059,57.895,0.0386,-0.0812,-0.1767,47.3564
19:30:50:219,1.1892,1.8473,8.3892,57.0157,-0.1789,-0.1802,-0.4406,47.9266
19:30:50:244,-0.1149,1.7396,9.0018,59.418,-0.2962,-0.1497,-0.641,48.7332
19:30:50:260,-1.194,1.8042,9.1119,56.6813,-0.2559,-0.0397,-0.6667,49.5576
19:30:50:282,-1.4931,1.9741,9.0401,55.4494,-0.1655,-0.0018,-0.5445,50.2457
19:30:50:297,-1.3495,2.3569,9.1693,56.1151,-0.0775,-0.069,-0.3881,50.7786
19:30:50:319,-1.1486,2.6393,9.0951,56.6918,0.0495,-0.1191,-0.2965,51.2142
19:30:50:342,-0.9093,2.7517,8.6046,55.4602,0.2255,-0.1313,-0.2525,51.5966
19:30:50:359,-0.7489,2.869,8.1428,56.9812,0.3721,-0.1289,-0.2354,51.95
19:30:50:380,-0.8399,3.1226,7.7169,54.2338,0.4552,-0.0751,-0.2305,52.2687
19:30:50:398,-0.8662,3.259,7.2168,55.9334,0.4881,0.0226,-0.2073,52.5193
19:30:50:418,-0.8806,3.5055,7.0229,54.8575,0.4698,0.0666,-0.1621,52.7208
19:30:50:440,-0.6126,3.5366,7.2407,53.8223,0.4038,0.0629,-0.123,52.8792
19:30:50:458,-0.7442,3.5438,7.8317,55.5481,0.322,0.0482,-0.1401,53.0541
19:30:50:477,-1.3543,3.716,8.5328,57.8804,0.2756,0.0287,-0.1499,53.2762
19:30:50:497,-1.8161,4.118,8.5519,56.0615,0.3244,0.0776,-0.0704,53.4006
19:30:50:518,-1.1892,4.6971,8.3294,56.6693,0.245,0.1887,0.213,53.3349
19:30:50:542,-0.9165,4.8168,9.2243,58.2597,0.0544,0.2462,0.2704,52.6889
19:30:50:558,-1.0887,4.8598,10.3777,56.4413,-0.0811,0.2901,0.2301,52.3951
19:30:50:577,-1.3328,4.6277,10.739,57.7605,-0.0555,0.2853,0.1629,52.1947
19:30:50:597,-2.4407,4.654,10.5308,56.2455,0.0495,0.2718,0.0969,52.0839
19:30:50:618,-2.8451,4.3382,10.3059,56.7256,0.0691,0.2339,0.1128,51.9887
19:30:50:638,-2.7159,3.74,10.057,57.2373,-0.0299,0.1557,0.1726,51.8922
19:30:50:659,-2.1583,2.2158,11.2104,56.9561,-0.306,0.0311,0.1726,51.8856
19:30:50:677,-3.1872,1.4477,13.1797,56.2455,-0.5344,-0.0849,0.1726,51.9815
19:30:50:697,-4.4722,2.0865,13.4644,54.171,-0.3793,-0.1032,0.3694,51.8916
19:30:50:722,-3.9793,2.6225,11.0812,54.1188,0.2328,0.0531,0.7847,51.2542
19:30:50:738,-2.5914,3.0772,7.5709,55.1538,0.774,0.1887,1.1085,50.1818
19:30:50:758,-1.4501,2.991,6.1759,55.5399,0.7044,0.1105,1.1403,49.0748
19:30:50:777,-1.4309,3.0508,7.1833,54.6088,0.2438,-0.0092,0.9888,48.1937
19:30:50:798,-1.2945,2.8068,9.0784,54.1188,-0.1117,-0.0177,0.8531,47.4882
19:30:50:817,-0.9165,2.455,9.3583,53.3418,-0.1105,0.1557,0.7713,46.78
19:30:50:840,-0.8758,2.2421,8.6285,53.7171,0.0508,0.3952,0.6809,46.053
19:30:50:857,-1.2467,2.3402,8.2169,55.7257,0.1375,0.5491,0.6125,45.3448
19:30:50:877,-1.4788,2.4933,7.9633,55.0208,0.1925,0.4722,0.5746,44.7146
19:30:50:898,-1.7013,2.6034,7.3675,56.8286,0.2792,0.2046,0.5416,44.2354
19:30:50:918,-1.8568,2.7422,6.9129,51.5903,0.3073,0.0128,0.5416,43.8472
19:30:50:937,-1.7683,2.8331,6.6712,52.702,0.2279,0.0922,0.6113,43.3442
19:30:50:957,-1.4931,3.1154,6.664,52.1373,0.0838,0.3402,0.7004,42.6161
19:30:50:979,-1.7874,3.6299,8.5472,54.0075,-0.1862,0.504,0.6846,41.7928
19:30:50:999,-1.6271,3.8357,8.9061,54.0316,-0.1093,0.3134,0.6809,40.8987
19:30:51:018,-1.5051,4.0487,8.8199,53.8052,0.0239,0.1484,0.6894,39.5959
19:30:51:037,-1.0098,4.252,8.5735,55.5481,0.0593,0.1777,0.6992,38.9529
19:30:51:130,-0.7872,4.3525,8.8176,55.5263,-0.0592,0.2694,0.6357,38.3162
19:30:51:130,-0.9069,4.197,9.9589,55.9097,-0.2925,0.2327,0.5098,37.8268
19:30:51:131,-1.2993,4.0702,11.141,55.6367,-0.4245,0.1814,0.4414,37.4517
19:30:51:131,-1.3065,4.0893,11.4544,52.2196,-0.3744,0.2511,0.4903,37.012
19:30:51:144,-1.34,4.41,10.7175,54.6313,-0.2363,0.3488,0.5673,36.4224
19:30:51:157,-0.134,4.3382,9.7244,51.7359,-0.1239,0.3121,0.577,35.8102
19:30:51:177,-0.4475,2.991,10.0283,54.1051,-0.1997,-0.2743,0.3535,35.7194
19:30:51:201,-0.7346,3.0341,12.8638,53.157,-0.5344,-0.3989,0.2643,35.7984
19:30:51:220,-0.8949,2.9934,13.7563,53.1119,-0.4355,-0.1044,0.3302,35.6993
19:30:51:253,0.134,2.9216,11.9067,53.9545,0.0483,0.1179,0.4402,35.3528
19:30:51:278,0.9715,3.3021,9.0281,51.8573,0.4674,-0.1545,0.3938,35.1162
19:30:51:279,1.0409,3.2303,7.7216,51.9968,0.4857,-0.7117,0.1653,35.3596
19:30:51:303,0.6293,2.7661,7.5063,51.2955,0.2585,-0.923,-0.123,36.0199
19:30:51:340,-0.7681,2.5101,8.0686,51.0149,-0.0189,-0.5699,-0.2733,36.7144
19:30:51:341,-1.2706,2.1799,8.5472,51.0261,-0.2155,-0.0837,-0.1743,37.1472
19:30:51:364,-1.0433,2.3282,8.5256,51.458,-0.2827,0.135,0.0529,37.2127
19:30:51:377,-0.5073,2.3306,8.6357,50.1521,-0.3622,0.1362,0.1995,37.138
19:30:51:406,-0.4235,2.4933,8.8463,51.0223,-0.4623,0.1191,0.2264,37.0262
19:30:51:423,-0.67,2.7302,8.8774,51.458,-0.4843,0.1631,0.1971,36.9307
19:30:51:437,-1.0385,3.2734,8.2265,50.2085,-0.1936,0.3366,0.1812,36.8297
19:30:51:458,-0.9834,3.192,7.5948,50.9829,-0.0751,0.3231,0.1934,36.3813
19:30:51:477,-1.1007,3.2925,7.2885,50.767,-0.047,0.2608,0.1995,36.2395
19:30:51:496,-1.2754,3.3571,7.6355,49.884,-0.0885,0.1924,0.2178,36.1243
19:30:51:518,-1.139,3.3284,7.9848,49.2874,-0.1093,0.1472,0.2655,35.9691
19:30:51:537,-1.1844,3.4313,8.0518,49.4219,-0.0579,0.1619,0.3107,35.7639
19:30:51:557,-1.0289,3.4744,8.4491,51.5773,-0.025,0.1252,0.3412,35.5212
19:30:51:577,-1.0504,3.3906,9.0808,49.2143,-0.0067,0.1032,0.3755,35.2738
19:30:51:597,-1.1127,3.6586,9.1406,50.4316,0.0948,0.1399,0.4304,34.9596
19:30:51:625,-1.3495,3.9745,8.7027,48.8783,0.2108,0.0812,0.4781,34.6204
19:30:51:642,-1.6917,4.3645,7.9322,50.3917,0.2438,0.047,0.516,34.2474
19:30:51:657,-2.199,4.6038,7.7312,49.7571,0.1314,0.1472,0.5465,33.8195
19:30:51:677,-2.3402,4.5535,8.138,50.0245,-0.0934,0.284,0.6076,33.2625
19:30:51:698,-2.522,4.4913,9.4756,50.3074,-0.2925,0.4465,0.7261,32.5402
19:30:51:719,-2.6919,4.2712,10.9759,50.3382,-0.3768,0.5125,0.8409,31.6976
19:30:51:738,-2.534,3.661,11.72,49.0877,-0.2864,0.4771,0.9411,30.789
19:30:51:758,-2.5603,3.5797,11.5621,49.9594,-0.0873,0.4258,1.0584,29.7798
19:30:51:778,-2.2134,3.1609,10.9304,50.001,0.1021,0.4893,1.15,28.6362
19:30:51:801,-2.1296,2.5172,10.5739,49.6546,0.1509,0.4868,1.1268,27.5424
19:30:51:820,-2.3665,1.6702,11.0381,49.3627,0.0129,0.2547,1.0205,26.6621
19:30:51:837,-2.9551,1.3687,11.0213,50.6371,-0.1031,0.0959,0.9814,25.9185
19:30:51:858,-3.4098,1.7276,10.136,49.4828,-0.0873,0.2779,1.0657,25.0284
19:30:51:880,-3.5701,2.0746,9.6861,49.7831,-0.1166,0.5406,1.2062,23.8746
19:30:51:909,-1.9358,2.3091,8.7051,49.3136,-0.3695,0.5382,1.4543,20.8824
19:30:51:927,-1.0385,1.651,9.3105,50.5059,-0.6114,0.3952,1.3809,19.5343
19:30:51:943,-0.8806,1.1342,10.8993,50.5529,-0.8374,0.2571,1.2343,18.3959
19:30:51:957,-1.0409,1.0361,11.8947,47.7868,-0.8374,0.2266,1.1684,17.3292
19:30:51:976,-1.048,1.0361,11.1027,49.5482,-0.521,0.3573,1.205,16.1561
19:30:51:997,-0.6604,1.0241,9.3799,49.9106,-0.0531,0.5296,1.3064,14.821
19:30:52:026,-0.4451,1.2921,7.9298,47.2377,0.3073,0.5943,1.3785,13.3654
19:30:52:049,-0.3278,1.7755,6.6855,45.4968,0.4637,0.5418,1.4078,11.8626
19:30:52:058,-0.4522,2.2325,5.9773,46.6829,0.4869,0.5418,1.4042,10.3656
19:30:52:083,-0.7681,2.4885,5.659,49.0881,0.4161,0.5333,1.326,8.9422
19:30:52:110,-1.1031,2.589,5.8528,50.4985,0.2438,0.5223,1.2368,7.6691
19:30:52:116,-1.4046,2.7254,6.7789,50.6805,-0.0384,0.4917,1.2038,6.4598
19:30:52:136,-1.407,2.8283,8.5519,49.6113,-0.3683,0.4612,1.2246,5.2426
19:30:52:174,-0.926,2.802,10.2293,51.5093,-0.5869,0.4771,1.2514,3.9567
19:30:52:184,-0.3757,2.5699,11.2152,51.5093,-0.6212,0.504,1.238,2.6494
19:30:52:206,0.1005,2.6225,12.3853,50.8962,-0.5308,0.51,1.1964,1.369
19:30:52:217,0.7298,2.8259,12.4929,49.7405,-0.3292,0.4404,1.1171,0.1777
19:30:52:239,0.6006,2.6058,12.4977,50.9804,-0.0787,0.4612,0.9472,359.1596
19:30:52:256,0.3637,2.5579,12.0168,52.2468,0.0324,0.3537,0.7591,358.3867
19:30:52:277,1.4692,1.8616,12.4235,52.3046,-0.0873,0.2083,0.6821,357.716
19:30:52:296,1.7874,1.3495,13.4477,52.7615,-0.3695,0.0776,0.5257,357.2287
19:30:52:318,1.1174,0.8447,14.1392,50.9098,-0.5845,0.1228,0.2618,357.0163
19:30:52:345,0.2895,0.5145,13.4477,50.9098,-0.4978,0.4526,0.1629,356.8375
19:30:52:359,0.6054,0.4618,8.9228,51.5874,-0.0323,1.033,0.439,356.4188
19:30:52:382,0.7513,0.5599,7.882,50.7387,-0.2461,0.9719,0.4036,354.9871
19:30:52:398,0.6174,0.6293,8.1978,52.0183,-0.6187,0.9511,0.2936,354.5389
19:30:52:416,0.4857,0.8136,8.4754,52.3135,-0.802,0.9731,0.2056,354.1858
19:30:52:437,0.4164,1.2275,8.7003,50.5964,-0.7495,0.8289,0.1335,353.9734
19:30:52:456,0.3111,1.4213,8.9228,53.9599,-0.5112,0.4734,0.0566,353.9095
19:30:52:476,-0.2321,1.986,9.1167,52.3695,-0.1642,-0.0287,-0.0411,354.1052
19:30:52:497,-0.2225,2.2588,8.7793,52.6891,0.2316,-0.5015,-0.1096,354.4799
19:30:52:518,-0.3087,2.2612,7.6259,52.1733,0.6152,-0.6958,-0.1487,354.9842
19:30:52:539,-0.5599,2.5603,6.396,51.6964,0.8241,-0.5284,-0.1548,355.4756
19:30:52:557,-0.7561,2.881,5.8098,51.8235,0.752,-0.2132,-0.0949,355.8325
19:30:52:579,-1.048,3.1777,6.2477,50.2568,0.4698,0.0202,-0.0534,356.0703
19:30:52:602,-1.2802,3.2518,7.5494,52.9298,0.1717,0.1154,-0.0399,356.261
19:30:52:620,-1.4213,3.2471,8.8199,51.2616,0.0337,0.0788,-0.0143,356.4525
19:30:52:636,-1.5793,3.2351,9.5569,51.3672,0.0752,-0.0214,0.037,356.6257
19:30:52:657,-1.4907,3.3691,9.6096,50.4102,0.2169,-0.1448,0.1311,356.7338
19:30:52:678,-1.127,3.2853,9.5665,52.8234,0.3452,-0.1851,0.2399,356.7095
19:30:52:697,-1.2036,3.4529,9.8776,52.0349,0.3159,-0.2059,0.2936,356.6419
19:30:52:717,-1.9621,3.6969,10.7557,53.6426,0.201,-0.1936,0.296,356.5993
19:30:52:737,-2.3761,3.7113,11.6267,50.875,0.1791,-0.2132,0.318,356.5775
19:30:52:756,-2.6871,3.7854,11.6626,52.9973,0.2976,-0.2095,0.3987,356.4586
19:30:52:779,-3.1442,4.2736,10.7964,52.5044,0.482,0.0006,0.5502,356.1463
19:30:52:797,-2.3521,4.1228,9.5258,52.6305,0.5004,0.2144,0.7786,355.5068
19:30:52:819,-1.931,1.8568,11.3946,52.3724,-0.2595,-0.3305,0.4879,354.429
19:30:52:838,-3.6251,1.0744,12.3015,50.3849,-0.5161,-0.5773,0.3009,354.5586
19:30:52:857,-5.1135,1.8568,11.9067,53.5757,-0.3695,-0.5467,0.3217,354.7681
19:30:52:876,-4.4841,2.0554,10.3561,51.6306,0.1387,-0.256,0.6577,354.5081
19:30:52:897,-2.7852,2.2445,8.0806,50.6443,0.5932,0.0226,1.0083,353.7294
19:30:52:920,-1.7133,2.6752,6.2883,51.8831,0.482,0.1069,1.0865,352.7992
19:30:52:938,-0.8686,2.4239,7.4058,51.0715,-0.1728,0.1008,0.968,351.9836
19:30:52:958,-1.2156,2.211,9.6287,50.5536,-0.6431,0.2193,0.7359,351.3512
19:30:52:979,-1.8855,2.12,9.6766,52.0723,-0.5992,0.1814,0.5612,350.9278
19:30:52:999,-1.6989,1.8784,9.1884,51.6749,-0.2314,0.1142,0.5477,350.5396
19:30:53:023,-1.5577,2.0004,8.1523,52.3964,0.1546,0.0385,0.5746,350.1639
19:30:53:038,-1.0911,2.1823,7.4871,51.9804,0.2939,-0.0287,0.6259,349.7562
19:30:53:057,-0.6389,2.2732,7.2239,50.4738,0.2292,-0.0153,0.6552,349.2927
19:30:53:078,-0.6174,2.2756,7.0947,51.8941,0.1339,0.091,0.6039,348.8461
19:30:53:101,-0.7681,2.4191,7.3053,51.772,0.0373,0.2046,0.5355,348.4125
19:30:53:120,-0.8207,2.455,7.602,51.9958,-0.0299,0.295,0.505,347.9966
19:30:53:272,-0.9882,2.534,8.1763,52.3762,-0.0347,0.317,0.5037,347.5762
19:30:53:272,-0.682,2.5053,8.5496,51.5155,0.0276,0.201,0.5428,347.153
19:30:53:273,-0.1268,2.388,8.6931,51.8941,0.1314,0.0727,0.5917,346.6859
19:30:53:273,-0.2321,2.8738,9.2148,50.5245,0.118,-0.0483,0.5697,346.2998
19:30:53:273,-0.1555,3.283,10.0714,52.0532,-0.0115,-0.069,0.5245,345.9524
19:30:53:274,-0.0072,3.3571,10.617,52.2125,-0.0848,0.0983,0.4769,345.5906
19:30:53:274,0.2895,3.137,10.9113,50.2415,-0.097,0.3011,0.3938,345.2415
19:30:53:308,-0.0263,2.9073,11.2271,53.2174,-0.1911,0.2535,0.2044,344.9608
19:30:53:309,0.0957,3.1801,11.4903,50.363,-0.2253,0.0715,0.2056,344.558
19:30:53:338,1.0672,2.5029,11.2678,50.5245,-0.2106,-0.0312,0.2337,344.4301
19:30:53:339,1.6917,1.6056,11.1242,51.0706,-0.2058,-0.069,0.1384,344.4098
19:30:53:356,1.1533,1.3974,11.153,51.1002,-0.2962,-0.0971,-0.0375,344.5942
19:30:53:380,0.3206,1.4142,11.3946,51.1002,-0.3854,-0.0043,-0.1535,344.8991
19:30:53:397,0.4307,0.8973,11.4281,51.1741,-0.4171,-0.0238,-0.1767,345.2256
19:30:53:418,0.859,0.7609,11.409,49.3118,-0.4306,-0.1729,-0.1841,345.5916
19:30:53:437,0.993,0.8495,11.3563,49.1215,-0.4611,-0.201,-0.2354,346.0132
19:30:53:456,0.5025,1.0409,10.8897,50.6463,-0.4709,-0.0287,-0.3453,346.5204
19:30:53:476,0.0622,1.1868,9.88,49.9947,-0.3927,0.2266,-0.415,347.0512
19:30:53:509,-0.0981,1.3663,8.6477,49.7818,-0.207,0.4013,-0.4028,347.5231
19:30:53:517,-0.2776,1.6726,7.6953,48.7731,-0.0152,0.35,-0.3686,347.9852
19:30:53:542,-0.134,2.0937,7.188,50.9343,0.0789,0.102,-0.3038,348.4317
19:30:53:556,-0.0933,2.388,7.0708,49.8312,0.1216,-0.1203,-0.2488,348.888
19:30:53:576,-0.2393,2.7278,7.2598,50.2077,0.1681,-0.2633,-0.233,349.3753
19:30:53:600,-0.457,3.1298,7.657,50.6332,0.2352,-0.328,-0.2061,349.8708
19:30:53:619,-0.7801,3.4457,8.059,50.3873,0.3318,-0.2694,-0.1474,350.311
19:30:53:637,-0.8351,3.6993,8.327,48.0022,0.4356,-0.2218,-0.068,350.6379
19:30:53:656,-0.6437,3.6538,8.2744,49.3118,0.4833,-0.2364,-0.0155,350.9031
19:30:53:677,-0.347,3.5103,8.6285,48.7833,0.399,-0.2767,0.0016,351.1378
19:30:53:700,0.0168,3.4863,9.588,49.0536,0.2059,-0.2938,0.0309,351.3603
19:30:53:719,0.3589,3.5318,10.4136,48.2659,0.1033,-0.1961,0.0945,351.4696
19:30:53:739,0.6341,3.283,10.7653,48.5654,0.344,0.0299,0.0749,351.3475
19:30:53:758,0.2895,3.204,10.4207,46.3491,0.482,0.0617,0.0004,351.4654
19:30:53:775,0.1292,3.1561,10.2843,47.6298,0.5028,0.0495,-0.0277,351.6242
19:30:53:799,-0.3135,3.4265,10.3849,47.6299,0.4491,0.0409,-0.046,351.8066
19:30:53:820,-1.2586,3.9793,10.1145,46.5084,0.3867,0.0825,-0.0607,352.0233
19:30:53:843,-1.6726,4.3167,9.3296,47.8353,0.3635,0.2168,-0.0191,352.167
19:30:53:856,-1.2658,3.7472,8.9252,46.5466,0.2438,0.2926,0.0224,352.2298
19:30:53:876,-0.536,2.0411,9.8345,47.3223,-0.1288,0.047,-0.0717,352.4409
19:30:53:901,-1.3639,1.2443,11.5095,46.0256,-0.5686,-0.3293,-0.2354,352.9809
19:30:53:918,-3.5151,2.3258,12.1125,46.0256,-0.7311,-0.4282,-0.2562,353.6655
19:30:53:937,-3.7902,2.5172,11.5502,44.304,-0.4416,-0.1044,0.0798,353.8883
19:30:53:961,-2.8355,2.388,9.7531,45.503,0.1204,0.2266,0.5013,353.5077
19:30:53:976,-1.6415,2.5579,8.0925,42.7703,0.4869,0.2865,0.7212,352.843
19:30:53:996,-0.615,2.6178,7.3723,45.0546,0.3929,0.0885,0.72,352.2095
19:30:54:016,-0.3493,2.4407,7.925,45.467,0.0154,-0.0299,0.5343,351.8004
19:30:54:037,-1.0361,2.0865,8.9468,45.9103,-0.3133,0.0104,0.2802,351.6715
19:30:54:056,-1.5864,1.7946,9.2315,45.5207,-0.3279,0.1142,0.18,351.6133
19:30:54:076,-1.7444,1.9143,8.7721,44.8762,-0.0824,0.1839,0.2777,351.429
19:30:54:098,-1.3232,2.2493,7.8389,44.1312,0.2072,0.2046,0.4512,351.0675
19:30:54:119,-0.7107,2.6752,7.0923,43.4534,0.344,0.2034,0.5722,350.5507
19:30:54:139,-0.3757,3.1585,7.011,43.2038,0.2829,0.2364,0.577,350.0078
19:30:54:158,-0.4379,3.472,7.4991,42.2021,0.1131,0.2657,0.4818,349.5648
19:30:54:179,-0.7394,3.4648,8.1547,42.9329,-0.0005,0.2608,0.3669,349.2453
19:30:54:201,-0.938,3.6586,8.5304,42.4,0.1118,0.2987,0.2887,349.0197
19:30:54:218,-1.0863,3.5031,8.9707,41.5466,0.14,0.2779,0.2789,348.385
19:30:54:238,-1.2036,3.5079,9.7005,41.2648,0.129,0.1093,0.2765,348.2178
19:30:54:259,-0.8088,3.4361,9.9135,41.7824,0.1546,-0.0544,0.3425,348.0383
19:30:54:276,0.0742,3.2734,10.0427,42.6848,0.1827,-0.0935,0.3999,347.7581
19:30:54:298,0.9212,3.1633,10.3633,40.4669,0.1118,-0.0666,0.3828,347.473
19:30:54:321,0.9763,3.1107,10.7318,41.4969,-0.0176,-0.0116,0.285,347.2393
19:30:54:337,0.6126,3.0508,11.074,40.778,-0.1044,-0.0385,0.158,347.1833
19:30:54:357,0.3876,3.0748,11.1218,40.6109,-0.1031,-0.1936,0.0847,347.2609
19:30:54:377,0.7035,3.0724,11.0788,39.9266,-0.0421,-0.3183,0.1103,347.3641
19:30:54:400,1.5601,2.656,10.8897,40.6722,-0.0005,-0.306,0.1653,347.3593
19:30:54:418,2.1009,2.2971,10.9185,40.2495,-0.0653,-0.1375,0.1238,347.335
19:30:54:443,1.9119,1.7874,11.5023,39.3793,-0.2033,0.058,-0.0204,347.3582
19:30:54:455,0.9404,2.2014,11.3492,39.4919,-0.24,0.229,-0.1682,347.5193
19:30:54:476,1.1749,1.8161,10.3753,38.1707,-0.036,0.4086,-0.1975,347.632
19:30:54:496,1.3232,1.718,9.1597,39.5319,0.1937,0.3451,-0.2928,347.8604
19:30:54:515,1.1486,1.6917,8.2911,39.1176,0.1949,0.1533,-0.4614,348.3516
19:30:54:535,0.4929,1.7348,8.0782,37.9356,-0.0189,0.0495,-0.6361,349.074
19:30:54:555,-0.1675,1.6295,8.1906,37.4417,-0.2742,0.0666,-0.7338,349.9003
19:30:54:575,-0.4905,1.5864,8.2313,36.0685,-0.3878,0.168,-0.6862,350.665
19:30:54:600,-0.3924,1.8281,7.9226,36.9836,-0.3243,0.2694,-0.5408,351.2295
19:30:54:619,-0.0933,2.2397,7.4297,37.6351,-0.2009,0.284,-0.4138,351.6434
19:30:54:640,-0.1364,2.613,7.2096,36.4133,-0.1361,0.2058,-0.3832,352.0628
19:30:54:661,-0.3637,3.2231,7.4249,37.3434,-0.1203,0.0641,-0.4235,352.532
19:30:54:675,-1.084,3.8812,7.4704,37.8518,-0.0628,0.1362,-0.4101,352.9464
19:30:54:698,-0.8901,4.2473,7.5015,38.3322,0.0056,0.1985,-0.2879,353.7753
19:30:54:716,0.0574,4.1324,8.1882,37.9683,-0.0274,0.1667,-0.1548,353.9716
19:30:54:739,0.2249,3.9697,9.4158,36.0722,-0.2021,0.0373,-0.2122,354.2375
19:30:54:757,-0.5408,3.5892,10.7629,35.5263,-0.323,-0.0446,-0.3649,354.6931
19:30:54:777,-1.5529,3.405,11.6291,34.587,-0.2106,-0.0898,-0.4113,355.2404
19:30:54:804,-1.785,3.2901,11.61,35.6612,0.107,-0.1387,-0.2891,355.6857
19:30:54:820,-1.1318,2.9216,10.9424,35.6845,0.4649,-0.1411,-0.101,355.9064
19:30:54:837,-0.8471,3.0532,10.1336,33.6022,0.6543,-0.1044,0.0053,356.0037
19:30:54:856,-0.5815,3.204,9.2195,35.6613,0.669,0.0336,0.0468,355.9929
19:30:54:877,-0.9404,3.1657,8.4514,34.4528,0.5969,0.2327,-0.0069,355.9822
19:30:54:896,-2.1344,3.5031,8.0901,34.7262,0.4222,0.3158,-0.1108,356.0822
19:30:54:916,-3.1729,4.3214,7.8508,35.249,0.1791,0.3476,-0.0851,356.182
19:30:54:937,-3.0652,4.4195,8.2887,35.6506,-0.0665,0.3891,0.0493,356.1049
19:30:54:957,-1.7252,2.924,10.3346,33.4248,-0.3854,0.1289,0.0578,356.0719
19:30:54:976,-0.871,0.4211,12.6389,32.3337,-0.7006,-0.664,-0.1975,356.5793
19:30:54:999,-2.5005,0.5288,13.5242,33.4009,-0.7519,-1.3188,-0.5262,357.6745
19:30:55:017,-4.1276,1.2538,13.1414,33.4874,-0.4904,-1.3152,-0.5164,358.8072
19:30:55:038,-4.2927,1.3854,11.5884,33.9086,-0.0421,-0.9523,-0.1157,359.3945
19:30:55:056,-3.0939,1.4979,9.2578,33.8554,0.4234,-0.4954,0.4182,359.2502
19:30:55:077,-1.6845,1.9382,7.4225,32.8274,0.537,-0.124,0.7945,358.5116
19:30:55:097,-0.6508,2.0889,7.212,30.8904,0.1461,0.102,0.9008,357.5733
19:30:55:119,-0.5384,1.8784,8.8487,33.3413,-0.681,0.2278,0.6223,356.6666
19:30:55:137,-0.871,1.6534,8.8128,33.8072,-0.565,0.2303,0.4524,355.4608
19:30:55:156,-0.993,1.651,8.1954,34.7737,-0.2937,0.2437,0.4158,355.0211
19:30:55:176,-0.5623,1.5745,7.4297,33.7881,-0.086,0.2755,0.4854,354.4886
19:30:55:198,-0.3278,1.5601,6.8794,34.4281,-0.0201,0.2999,0.5294,353.8977
19:30:55:219,-0.4618,1.9095,6.8267,33.0246,-0.0934,0.2462,0.516,353.3011
19:30:55:236,-0.3374,2.0865,7.1737,32.1845,-0.2449,0.1704,0.5074,352.7255
19:30:55:256,-0.402,2.2397,7.7647,34.4003,-0.3695,0.1729,0.4866,352.1678
19:30:55:381,-0.469,2.211,8.4993,32.9121,-0.422,0.2132,0.4561,351.6532
19:30:55:381,-0.5121,2.2804,9.2961,36.2533,-0.3964,0.1655,0.4585,351.1668
19:30:55:382,-0.3924,2.6297,9.88,36.8163,-0.3072,0.0617,0.5025,350.6662
19:30:55:382,-0.2297,2.9025,10.069,33.4616,-0.1606,0.0385,0.5441,350.121
19:30:55:382,0.1268,2.8881,9.9709,33.0761,-0.0079,0.1167,0.5392,349.5368
19:30:55:383,0.457,2.7159,9.9589,33.8545,0.0605,0.1655,0.4659,349.0111
19:30:55:395,0.682,2.723,10.3537,33.0974,0.0007,0.135,0.3559,348.5935
19:30:55:415,0.7178,2.6465,11.1147,33.5342,-0.1337,0.0947,0.2227,348.3104
19:30:55:435,0.4044,2.534,11.6578,32.3632,-0.2168,0.0788,0.0773,348.2055
19:30:55:457,0.1579,2.5196,11.586,34.4624,-0.1789,0.08,-0.0057,348.2025
19:30:55:477,0.8303,1.8927,11.074,32.5459,-0.108,0.1289,0.0248,348.1221
19:30:55:499,1.8209,0.8829,11.141,32.5875,-0.218,0.1374,-0.0191,348.0337
19:30:55:516,1.6822,-0.3159,12.1771,32.902,-0.5601,-0.0141,-0.2488,348.2515
19:30:55:538,0.1364,0.0359,13.1366,33.2176,-0.896,-0.1264,-0.4492,348.7644
19:30:55:556,-0.1723,0.0574,13.3615,32.8531,-0.8508,0.1325,-0.3099,349.0807
19:30:55:582,0.7537,0.3613,10.9854,33.8757,0.0239,0.3329,0.0786,348.8311
19:30:55:600,1.5266,0.5264,9.8895,33.9763,0.2035,0.0678,0.0505,348.7005
19:30:55:618,1.6319,0.4092,9.2124,34.4633,0.1473,-0.0984,-0.1633,348.8493
19:30:55:636,0.9165,0.4068,8.8319,34.3514,0.0068,-0.0617,-0.4418,349.3074
19:30:55:657,0.0263,0.5862,8.54,35.5791,-0.0909,0.0543,-0.5946,349.9412
19:30:55:676,-0.5719,0.8734,8.1619,32.7222,-0.0751,0.1216,-0.6129,350.5595
19:30:55:703,-0.8064,1.1725,7.815,34.7937,0.0117,0.1252,-0.5469,351.1295
19:30:55:717,-0.6652,1.3663,7.4465,32.7991,0.1033,0.124,-0.4406,351.5757
19:30:55:737,-0.3733,1.4764,6.9846,33.7258,0.1901,0.1386,-0.338,351.9062
19:30:55:756,-0.2297,1.785,6.8674,33.5512,0.2182,0.1216,-0.2623,352.1534
19:30:55:776,-0.0024,1.9286,7.0445,34.0767,0.1583,0.0226,-0.2342,352.3483
19:30:55:797,0.0144,2.0722,7.669,34.5598,0.0508,-0.0849,-0.2977,352.654
19:30:55:816,-0.4092,2.1033,8.3605,34.0329,-0.003,-0.124,-0.4162,353.0967
19:30:55:836,-1.0241,2.1129,8.6859,36.2751,0.0703,-0.0874,-0.4956,353.6409
19:30:55:856,-1.3831,1.9789,8.9396,35.4819,0.1681,-0.0421,-0.4602,354.1457
19:30:55:879,-1.651,2.2086,9.4756,35.226,0.1888,-0.0703,-0.3209,354.498
19:30:55:898,-1.4979,2.4431,9.7938,35.4819,0.2072,-0.0996,-0.1218,354.6492
19:30:55:916,-1.2634,2.5508,10.0905,36.1006,0.2462,-0.0214,0.0541,354.5698
19:30:55:935,-1.0792,2.6034,10.2628,35.6544,0.2352,0.0556,0.18,354.3385
19:30:55:955,-0.9332,2.6201,10.5811,37.2654,0.1876,0.0776,0.2789,353.9872
19:30:55:976,-0.9021,2.7972,10.6911,36.3475,0.1449,0.0055,0.3278,353.587
19:30:56:001,-1.0744,2.9982,10.6983,36.5842,0.1155,-0.0336,0.3229,353.2075
19:30:56:020,-1.797,3.1777,10.6552,36.3475,0.0618,0.0116,0.2716,352.896
19:30:56:037,-2.6082,3.0173,10.617,37.1156,-0.1068,0.168,0.3156,352.2859
19:30:56:057,-1.9262,2.5508,11.3563,37.9486,-0.2705,0.0825,0.4182,351.8169
19:30:56:076,-1.2347,1.8831,12.4187,35.8381,-0.4367,-0.1362,0.4537,351.3188
19:30:56:100,-1.3759,1.5601,12.7825,34.514,-0.4416,-0.2975,0.3999,350.8993
19:30:56:118,-1.7611,1.4788,12.2943,36.6141,-0.2437,-0.306,0.3596,350.517
19:30:56:136,-1.6798,1.261,11.1625,34.9473,0.0495,-0.2071,0.395,350.094
19:30:56:156,-1.5075,1.2108,9.9852,39.0911,0.2328,-0.1741,0.4255,349.6366
19:30:56:175,-1.1797,1.2084,9.3607,37.9619,0.234,-0.1277,0.4463,349.1526
19:30:56:200,-0.9332,1.1222,9.1382,38.3754,0.1204,-0.0483,0.45,348.6359
19:30:56:215,-0.7442,1.0744,8.9731,39.1621,0.0483,0.0336,0.4268,348.1168
19:30:56:239,-0.4762,0.859,8.3581,38.8216,0.1241,0.1057,0.3852,347.6108
19:30:56:256,-0.4714,0.7346,7.3316,36.6082,0.2951,0.1814,0.3339,347.1465
19:30:56:275,-0.6102,0.8614,6.329,37.694,0.3709,0.2327,0.2936,346.7244
19:30:56:297,-0.6748,1.1031,5.9701,36.7572,0.2646,0.2254,0.2899,346.2922
19:30:56:317,-0.8279,1.5984,6.7454,38.6807,0.0337,0.0983,0.2948,345.8809
19:30:56:336,-0.8112,1.9047,7.9848,40.2383,-0.1447,-0.0959,0.2826,345.5532
19:30:56:355,-0.7849,2.0913,8.7218,38.7744,-0.1215,-0.2095,0.2435,345.2848
19:30:56:375,-0.6197,2.3402,8.4443,38.1536,0.0789,-0.1472,0.2496,344.9974
19:30:56:395,-0.4092,2.656,8.4706,40.6877,0.2401,0.0959,0.2631,344.6261
19:30:56:415,-0.4451,2.7924,8.5496,39.7081,0.2072,0.2449,0.1555,344.3347
19:30:56:436,-0.8949,2.8044,9.0162,40.0019,0.0911,0.3219,-0.0057,344.2127
19:30:56:456,-1.1581,2.8522,9.4205,40.986,0.0178,0.3732,-0.0534,344.11
19:30:56:475,-0.7705,2.8546,10.4901,39.6562,-0.0323,0.3549,0.0236,343.9126
19:30:56:500,0.5384,2.199,11.4975,40.1346,-0.0335,0.0837,-0.0558,343.716
19:30:56:517,-0.3063,2.0985,11.2534,39.9475,-0.0347,0.1105,-0.2586,343.8676
19:30:56:536,-0.926,1.943,11.3994,40.5168,-0.1887,0.069,-0.3441,344.1334
19:30:56:560,-0.3685,1.3974,12.414,40.1346,-0.4,-0.1264,-0.2195,344.3053
19:30:56:575,0.7705,0.8686,13.6702,40.4964,-0.499,-0.46,-0.0424,344.3215
19:30:56:596,1.7755,0.2369,14.1033,42.5751,-0.3817,-0.7226,0.0309,344.3133
19:30:56:620,1.6941,0.335,13.8329,40.1757,-0.1019,-0.6835,-0.0179,344.332
19:30:56:655,1.3208,0.3948,12.3996,41.5064,0.267,-0.3549,-0.0436,344.334
19:30:56:659,1.2706,0.3374,10.5835,40.9386,0.5492,-0.0153,-0.0057,344.2061
19:30:56:674,1.6439,0.3709,8.9348,40.8004,0.57,0.0898,0.0712,343.9573
19:30:56:694,2.2014,0.5719,7.6116,40.5918,0.3709,0.0727,0.1213,343.6501
19:30:56:715,2.3163,0.7178,6.5731,41.5064,0.0679,0.0837,0.0285,343.4673
19:30:56:736,1.8257,0.7609,6.0538,42.9518,-0.3023,0.0873,-0.1987,343.528
19:30:56:756,1.06,0.7944,6.0371,42.253,-0.7384,0.0165,-0.4541,343.8874
19:30:56:775,0.4355,0.8925,6.853,41.6647,-1.1245,-0.0226,-0.6337,344.4835
19:30:56:798,0.012,1.1318,7.5876,42.9247,-1.3188,-0.0055,-0.7119,345.1613
19:30:56:816,-0.3183,1.2706,9.1047,42.7025,-1.1929,0.1521,-0.7155,345.7996
19:30:56:836,-0.4977,1.4548,8.9492,41.5104,-0.7372,0.2437,-0.6691,346.404
19:30:56:856,-0.5791,1.4692,8.2433,42.7025,-0.1093,0.3537,-0.6508,346.9724
19:30:56:874,-0.8853,1.5769,7.346,43.1798,0.2597,0.2413,-0.7106,347.6271
19:30:56:896,-1.0193,1.6989,7.3172,42.031,0.2352,0.0531,-0.7607,348.3537
19:30:56:917,-0.9787,1.7276,7.9466,44.0646,-0.0164,0.047,-0.7363,349.0661
19:30:56:936,-1.1486,1.809,9.4134,42.4378,-0.3145,0.2095,-0.6777,349.7027
19:30:56:956,-1.8903,1.8951,11.6507,44.0646,-0.4635,0.2449,-0.5139,350.2671
19:30:56:974,-1.8736,1.7157,11.8804,43.1215,-0.2595,0.2156,-0.3221,351.0726
19:30:56:998,-1.9071,1.6941,11.7894,43.9263,-0.0604,0.2266,-0.0912,351.058
19:30:57:017,-1.7348,1.8616,11.7488,42.2466,0.0398,0.2315,0.1714,350.7514
19:30:57:035,-1.5553,1.8712,11.8923,44.4451,0.1009,0.2278,0.3767,350.1898
19:30:57:056,-2.0602,1.9693,11.8971,43.6243,0.2194,0.218,0.4219,349.5907
19:30:57:075,-2.522,1.8975,11.0812,42.9263,0.388,0.1777,0.4109,349.0209
19:30:57:098,-2.9575,2.1296,10.9113,43.5514,0.4576,0.0812,0.428,348.4424
19:30:57:115,-1.9956,1.5506,11.1888,44.2183,0.3354,-0.1765,0.5392,347.7618
19:30:57:135,-0.0646,0.2345,12.0311,44.7224,0.1058,-0.4685,0.6088,347.0268
19:30:57:155,0.6748,0.122,12.6772,45.5403,-0.2278,-0.7288,0.494,346.4311
19:30:57:175,0.1938,0.4283,13.0505,45.732,-0.4831,-0.5675,0.3351,345.9909
19:30:57:200,-0.7872,0.3876,12.5934,45.3646,-0.3902,-0.069,0.2252,345.6206
19:30:57:219,-1.2084,0.201,11.1362,43.5701,-0.0164,0.157,0.1788,345.2925
19:30:57:236,-0.8686,0.2704,9.3272,46.1796,0.3244,0.0715,0.2618,344.8701
19:30:57:257,-0.1842,0.5527,8.0638,44.5211,0.3965,-0.0703,0.3498,344.3708
19:30:57:274,0.2656,0.6389,7.4584,44.7687,0.2194,-0.1252,0.3022,343.9301
19:30:57:296,0.1005,0.4307,7.2263,43.706,-0.0164,-0.0153,0.0945,343.7155
19:30:57:319,-0.6867,0.1962,7.7695,45.16,-0.1826,0.168,-0.1401,343.7451
19:30:57:337,-1.6869,0.1627,8.2265,47.5107,-0.1838,0.2217,-0.2256,343.8623
19:30:57:355,-2.0698,0.201,8.1284,44.9674,0.0422,0.1179,-0.1169,343.8917
19:30:57:375,-1.7563,0.3135,7.279,46.1244,0.333,-0.0947,0.092,343.7385
19:30:57:475,-1.4429,0.7849,6.5635,44.1795,0.4625,-0.1875,0.2765,343.392
19:30:57:476,-0.9906,1.5218,6.8411,45.8256,0.2194,-0.0202,0.461,342.3875
19:30:57:477,-0.8327,1.7994,7.4824,44.252,0.0948,0.0202,0.4597,341.7726
19:30:57:477,-0.5504,1.876,8.2289,45.5961,0.0129,-0.0874,0.3987,341.2245
19:30:57:478,-0.4211,1.9669,8.8534,44.2401,-0.0054,-0.1814,0.3022,340.7888
19:30:57:495,-0.5312,2.2493,9.6407,45.7615,-0.0201,-0.2205,0.1861,340.509
19:30:57:523,-0.2871,2.2373,10.1767,45.3591,-0.0091,-0.256,0.1116,340.3102
19:30:57:538,-0.0981,2.0387,11.0213,46.3525,0.0227,-0.2938,0.0199,340.2141
19:30:57:554,0.3254,1.7037,11.5813,46.5753,-0.0115,-0.4209,-0.1071,340.2701
19:30:57:573,0.8447,0.9547,12.134,46.5163,-0.0628,-0.438,-0.2293,340.4369
19:30:57:593,0.6556,0.4714,12.5982,45.0811,-0.1447,-0.3928,-0.3698,340.7502
19:30:57:614,0.5623,-0.122,12.7561,45.3996,-0.1777,-0.3573,-0.4052,341.0831
19:30:57:634,1.2634,-0.658,12.6868,45.3357,-0.1093,-0.3781,-0.2635,341.2494
19:30:57:655,2.0794,-0.804,12.2752,45.201,-0.0311,-0.5602,-0.1144,341.2766
19:30:57:674,2.0219,-0.6317,11.9402,46.3607,-0.0518,-0.6555,-0.1303,341.3275
19:30:57:694,1.2132,-0.4953,11.33,45.6788,-0.0885,-0.493,-0.2012,341.4568
19:30:57:718,0.7561,-0.4618,10.2317,45.3498,-0.0067,-0.223,-0.1706,341.5269
19:30:57:735,0.7202,-0.3565,9.2602,46.2281,0.0263,-0.1594,-0.0778,341.4948
19:30:57:755,1.4453,-0.3398,8.985,44.875,-0.1325,-0.3341,0.0248,341.3331
19:30:57:776,1.8521,-0.2106,9.2841,44.875,-0.4098,-0.4893,0.0224,341.1942
19:30:57:797,1.6558,-0.067,9.655,44.875,-0.6285,-0.3977,-0.0937,341.1712
19:30:57:817,0.9811,0.0191,9.4229,44.875,-0.6822,-0.1985,-0.2268,341.2799
19:30:57:836,0.2895,0.1819,8.9755,44.875,-0.5699,-0.0226,-0.3063,341.4698
19:30:57:856,-0.3183,0.4498,8.2169,46.3614,-0.3658,0.0617,-0.3124,341.6701
19:30:57:874,-0.5958,0.8614,6.5324,46.0354,0.0569,0.1887,-0.2,341.8531
19:30:57:897,-0.682,1.1198,5.9916,47.1562,0.118,0.2743,-0.1706,342.1181
19:30:57:920,-0.7561,1.4931,6.0443,46.3762,0.0056,0.2889,-0.1682,342.1612
19:30:57:933,-0.548,1.8018,6.7382,46.3762,-0.1874,0.2523,-0.1633,342.2161
19:30:57:954,-0.3374,2.0985,7.992,46.5051,-0.3634,0.2266,-0.1902,342.3012
19:30:57:974,0.0311,2.0818,9.399,47.1984,-0.488,0.218,-0.2659,342.4556
19:30:57:995,0.3733,1.8855,10.8347,47.0954,-0.5124,0.2791,-0.3466,342.6977
19:30:58:015,0.0909,1.7635,11.9019,45.5089,-0.4391,0.3427,-0.4418,343.0549
19:30:58:035,-0.3661,1.6152,12.7466,47.4151,-0.3182,0.2889,-0.4993,343.4727
19:30:58:055,-0.5216,1.3639,13.4237,46.781,-0.218,0.0653,-0.4358,343.8347
19:30:58:075,-0.3541,1.2395,13.4955,47.1691,-0.0824,-0.0141,-0.2183,343.9631
19:30:58:097,-0.2201,1.395,13.1366,47.2335,0.1412,0.3011,0.0822,343.7323
19:30:58:117,-0.1268,1.6726,12.1962,46.6331,0.3892,0.6481,0.3498,343.1822
19:30:58:135,-0.0742,1.9143,11.2104,46.6331,0.5114,0.6872,0.461,342.5131
19:30:58:155,-0.2728,1.8592,10.7868,49.1631,0.4466,0.4856,0.4365,341.8852
19:30:58:175,-0.7226,1.5745,11.2199,48.121,0.3024,0.2657,0.3547,341.3637
19:30:58:199,-1.0863,1.1438,12.0072,48.1919,0.2328,0.0336,0.3156,340.9075
19:30:58:218,-1.0863,0.6245,12.8423,47.2601,0.2963,-0.2792,0.318,340.469
19:30:58:235,-0.7011,0.1077,13.2873,49.8466,0.4368,-0.6347,0.3791,339.9854
19:30:58:254,-0.3829,0.347,12.9284,46.6618,0.6079,-0.8021,0.5074,339.3951
19:30:58:274,0.6508,0.3709,11.5836,47.4058,0.8278,-0.5736,0.6797,338.5828
19:30:58:297,0.8806,0.6245,10.0235,48.0344,0.9915,-0.2132,0.6723,337.7383
19:30:58:318,0.1699,0.6748,8.3581,48.1622,0.6494,-0.069,0.2875,336.8122
19:30:58:334,0.2082,0.4211,8.0638,48.1622,0.4417,-0.124,0.1812,336.5345
19:30:58:356,0.335,0.3446,7.5781,47.0782,0.366,-0.146,0.1152,336.3326
19:30:58:373,0.335,0.3493,7.2431,48.2677,0.3257,-0.1191,0.0554,336.1788
19:30:58:400,-0.0431,0.5408,7.1521,47.3557,0.256,-0.0214,-0.0045,336.0545
19:30:58:419,-0.2704,0.6939,6.9703,47.3557,0.2462,0.1802,-0.0118,335.8968
19:30:58:439,-0.2584,0.8758,6.4654,47.8631,0.3244,0.3976,0.0273,335.6524
19:30:58:454,-0.4929,1.3256,6.0132,47.4107,0.3745,0.51,0.0737,335.3816
19:30:58:473,-0.67,1.9884,6.0802,48.1107,0.2976,0.4514,0.1335,335.058
19:30:58:494,-0.4546,2.4167,6.3386,49.0799,0.1778,0.3341,0.18,334.7062
19:30:58:515,-0.256,2.6871,6.743,50.2423,0.0886,0.2914,0.147,334.3999
19:30:58:542,-0.3589,2.8379,7.3723,49.4071,-0.0299,0.2413,-0.0033,334.268
19:30:58:554,-1.0217,2.7254,8.595,50.566,-0.196,0.1521,-0.2195,334.4015
19:30:58:574,-1.4692,2.4574,9.9924,49.7428,-0.2937,0.0275,-0.3576,334.7162
19:30:58:600,-1.1462,1.9382,11.0357,49.2983,-0.2607,-0.1558,-0.3563,335.0593
19:30:58:615,-0.39,1.3926,11.7464,49.9895,-0.1874,-0.328,-0.3331,335.3885
19:30:58:636,0.0526,0.938,12.201,51.7211,-0.1593,-0.3586,-0.3405,335.7455
19:30:58:656,-0.3661,0.859,12.1172,49.8107,-0.141,-0.1631,-0.3624,336.0635
19:30:58:673,-1.0002,1.0217,11.7655,51.2837,-0.1227,0.047,-0.3026,336.3025
19:30:58:695,-0.8064,1.1342,11.5382,49.3206,-0.1398,0.0214,-0.0802,336.3185
19:30:58:717,0.7657,0.9978,11.7129,51.3164,-0.2033,-0.2071,0.2252,336.0084
19:30:58:745,2.6967,0.6197,12.122,51.954,-0.2876,-0.4246,0.3999,335.1674
19:30:58:755,3.0054,-0.1962,12.8853,50.6587,-0.323,-0.5687,-0.046,335.1929
19:30:58:776,2.0722,-0.1436,12.2034,49.9895,-0.1459,-0.6078,-0.2672,335.5453
19:30:58:794,1.7324,-0.2393,11.2008,50.6226,0.1436,-0.6713,-0.3185,335.8802
19:30:58:818,1.6989,-0.134,9.7173,50.8024,0.4063,-0.774,-0.2953,336.2172
19:30:58:836,1.608,0.134,8.2959,51.7891,0.4967,-0.7336,-0.2513,336.5087
19:30:58:853,1.6582,0.4211,7.2622,52.1432,0.3904,-0.4844,-0.1939,336.7069
19:30:58:874,1.6295,0.6078,6.6018,50.9559,0.1595,-0.1179,-0.1523,336.8011
19:30:58:895,1.5194,0.792,6.463,51.8044,-0.1031,0.2535,-0.1523,336.8461
19:30:58:917,1.1079,0.9763,6.6401,51.6158,-0.3047,0.4819,-0.1902,336.8723
19:30:58:938,0.8423,1.1844,6.5707,51.0519,-0.3878,0.5027,-0.2452,336.955
19:30:58:954,0.6389,1.139,6.0945,50.5309,-0.3756,0.4343,-0.3307,337.1728
19:30:58:973,-0.0048,1.1557,5.9629,49.6845,-0.4403,0.3732,-0.4687,337.561
19:30:58:995,-0.8183,1.3304,6.9535,51.6776,-0.6444,0.35,-0.5677,338.0662
19:30:59:016,-1.2419,1.6319,8.4873,52.1818,-0.7812,0.3036,-0.542,338.5667
19:30:59:035,-1.2132,2.0913,9.4493,53.7573,-0.6945,0.1875,-0.4162,338.9447
19:30:59:054,-0.6054,2.3234,9.7962,52.8207,-0.4721,0.1423,-0.2427,339.1378
19:30:59:074,-0.0766,2.5149,10.1623,52.3377,-0.295,0.2071,-0.1047,339.1783
19:30:59:098,0.0455,2.7876,10.8299,54.789,-0.218,0.3268,-0.0204,339.0963
19:30:59:117,0.1986,3.0365,11.2271,53.9228,-0.1166,0.3891,0.0773,338.9116
19:30:59:136,0.7801,3.058,11.0979,52.2897,0.0605,0.3598,0.2032,338.5955
19:30:59:154,1.3591,2.9815,10.4614,51.4926,0.2182,0.2926,0.2447,338.2209
19:30:59:173,1.5625,2.7326,9.99,53.1396,0.234,0.2755,0.1177,337.9805
19:30:59:199,0.938,2.4239,10.2772,52.0247,0.0874,0.2462,-0.167,338.0633
19:30:59:214,-0.2369,2.0315,10.9974,55.3189,-0.1325,0.135,-0.4883,338.5329
19:30:59:235,-2.2947,1.3065,11.8851,53.0935,-0.3915,0.1203,-0.652,339.2184
19:30:59:254,-2.3043,0.7561,12.6293,54.2221,-0.4061,0.1582,-0.4797,339.9466
19:30:59:280,-2.0674,0.1699,13.3783,53.3987,-0.3499,0.0519,-0.2708,340.6913
19:30:59:299,-2.0411,-0.2082,13.6487,55.0693,-0.2033,-0.2034,-0.1071,340.7887
19:30:59:317,-1.931,-0.3876,12.6485,55.5943,0.085,-0.3537,0.0883,340.6812
19:30:59:335,-1.6176,-0.1842,10.9185,55.615,0.4026,-0.2156,0.351,340.2735
19:30:59:352,-0.95,-0.0072,9.387,54.4777,0.5138,-0.0825,0.566,339.6274
19:30:59:373,-0.3876,0.1436,8.6979,53.6458,0.3403,-0.0666,0.6406,338.8826
19:30:59:393,0.3876,0.1699,8.8295,55.3189,0.0154,-0.0886,0.61,338.1795
19:30:59:413,0.8662,0.1914,9.3894,56.7058,-0.2485,-0.0678,0.5172,337.5608
19:30:59:432,0.7394,0.4068,9.7843,56.1636,-0.3304,-0.0177,0.3816,337.0966
19:30:59:452,0.3829,0.6437,9.5019,56.1469,-0.1936,0.0251,0.2728,336.7495
19:30:59:472,0.0885,0.9308,8.6022,55.595,0.0593,0.0812,0.2166,336.4731
19:30:59:539,-0.0646,1.1318,7.7121,55.6091,0.2243,0.1081,0.1653,336.2597
19:30:59:540,-0.3517,1.1701,7.4417,55.8736,0.245,0.1191,0.0786,336.152
19:30:59:540,-0.6532,1.0672,7.4871,56.1622,0.2401,0.1313,-0.0094,336.1451
19:30:59:553,-0.8829,1.0576,7.4034,55.9169,0.3171,0.1509,-0.0509,336.1844
19:30:59:572,-1.1844,1.1653,7.1833,57.2841,0.4002,0.146,-0.0876,336.2527
19:30:59:593,-1.4142,1.2395,7.0205,58.4026,0.3929,0.1191,-0.1047,336.3583
19:30:59:612,-1.4812,1.3424,7.4369,55.8958,0.2499,0.0837,-0.0973,336.4578
19:30:59:632,-1.3376,1.3711,8.3103,57.3065,0.0239,0.0739,-0.0717,336.5377
19:30:59:653,-1.1055,1.2084,9.5186,57.5697,-0.2094,0.08,-0.0717,336.5958
19:30:59:672,-0.871,0.792,10.928,56.9899,-0.3988,0.0751,-0.0937,336.6871
19:30:59:694,-0.5432,0.1962,13.2299,58.3936,-0.3695,-0.0837,-0.035,336.8096
19:30:59:713,-0.4092,0.1603,12.8542,56.9955,-0.108,-0.2425,0.0407,336.7767
19:30:59:733,-0.2656,0.3829,11.9354,58.7287,0.0752,-0.4319,0.0932,336.7078
19:30:59:754,0.3948,-0.1866,11.5645,58.6868,0.0178,-0.5724,0.1152,336.6308
19:30:59:774,0.8112,-0.6867,12.6078,57.5697,-0.3267,-0.6848,0.0639,336.5982
19:30:59:795,0.8351,-1.06,14.4215,58.6868,-0.6908,-0.5834,0.0297,336.5849
19:30:59:814,0.3039,-1.139,15.6467,59.7799,-0.6871,-0.2242,0.0761,336.4863
19:30:59:836,0.1412,-1.0241,14.6943,59.3764,-0.207,0.1643,0.2667,336.1519
19:30:59:854,0.603,-0.7729,12,60.6579,0.5138,0.3353,0.5807,335.4897
19:30:59:873,1.3759,-0.4235,9.0042,60.6579,1.0062,0.2865,0.8507,334.5076
19:30:59:893,1.8855,-0.1005,6.4989,62.9475,1.0501,0.2743,0.9594,333.4119
19:30:59:913,2.0889,0.0622,4.9173,59.9157,0.6922,0.4734,0.8874,332.3695
19:30:59:933,1.8808,0.256,4.8263,61.9118,0.0703,0.8436,0.6931,331.4888
19:30:59:953,1.6247,0.2345,5.8552,60.1372,-0.5234,1.1991,0.4818,330.8102
19:30:59:974,1.4859,0.1747,6.9081,62.6399,-0.8252,1.3518,0.2875,330.3332
19:30:59:995,1.2778,0.3565,7.6307,61.5272,-0.7897,1.2736,0.0835,330.1122
19:31:00:017,0.8351,0.5838,7.7575,61.5272,-0.5515,1.0342,-0.1425,330.1828
19:31:00:033,0.0838,0.6437,7.3172,61.519,-0.2583,0.7251,-0.3734,330.5511
19:31:00:052,-0.7466,0.6987,6.8267,62.6647,-0.0616,0.416,-0.5249,331.1232
19:31:00:072,-1.0026,0.8566,6.8387,63.6765,-0.0347,0.1753,-0.5176,331.7097
19:31:00:092,-1.1222,1.2706,7.3053,61.9997,-0.1447,0.0287,-0.4309,332.2243
19:31:00:112,-0.8686,1.4764,8.7051,64.5206,-0.3279,0.0226,-0.3392,332.6327
19:31:00:133,-0.9356,1.7922,10.2485,64.0342,-0.4709,0.124,-0.2867,332.9657
19:31:00:154,-1.6056,2.3785,12.256,63.7875,-0.3597,0.2755,-0.2659,333.2798
19:31:00:175,-1.5194,2.132,13.2897,63.167,-0.2571,0.0971,-0.2635,333.8678
19:31:00:201,-1.1797,1.5099,14.412,64.0166,-0.119,-0.0727,-0.2818,334.1949
19:31:00:221,-1.2658,1.0624,14.4287,63.7069,0.2059,-0.0336,-0.3001,334.5358
19:31:00:240,-1.986,0.8614,13.0337,65.6493,0.6531,0.2278,-0.2818,334.8726
19:31:00:252,-2.5627,0.8231,11.0429,65.0842,0.9622,0.449,-0.1865,335.0986
19:31:00:273,-2.9025,0.9643,9.6239,65.3616,0.9866,0.4074,-0.0607,335.1828
19:31:00:295,-3.0652,0.9117,9.1621,65.9173,0.741,0.1887,0.0297,335.1826
19:31:00:315,-2.7757,0.1196,10.4112,65.9803,0.3086,-0.113,0.07,335.1493
19:31:00:335,-2.3665,-0.7992,12.7155,66.3473,-0.174,-0.5125,0.0639,335.1644
19:31:00:354,-2.4718,-1.1462,14.4503,66.6055,-0.3438,-0.8069,0.0664,335.204
19:31:00:373,-2.5819,-1.3041,13.1342,68.626,0.0508,-0.598,0.2386,335.0268
19:31:00:398,-2.467,-0.8566,10.3131,66.2998,0.6507,-0.1069,0.5392,334.4988
19:31:00:416,-2.0148,-0.4427,8.1356,66.5956,0.8486,0.0067,0.7285,333.7528
19:31:00:434,-1.3185,-0.2919,7.2048,66.1813,0.6555,-0.1154,0.8092,332.9114
19:31:00:453,-0.524,-0.1268,6.999,67.6822,0.3696,-0.2572,0.8177,332.0764
19:31:00:476,-0.1938,0.2608,7.2048,67.3216,0.1106,-0.3659,0.7236,331.3633
19:31:00:499,-0.2225,0.5671,7.4967,67.1735,-0.0653,-0.3879,0.5587,330.8402
19:31:00:515,-0.7035,0.7155,7.3842,65.3041,-0.0934,-0.2877,0.3913,330.4937
19:31:00:534,-1.34,0.8901,6.8722,68.238,-0.0164,-0.1497,0.296,330.232
19:31:00:557,-1.4883,1.0935,6.3027,67.8106,0.0557,-0.0385,0.3388,329.9169
19:31:00:572,-1.4094,1.529,6.0155,67.7544,0.0593,0.0727,0.4683,329.4328
19:31:00:593,-1.1438,2.0315,6.0849,68.2841,-0.0128,0.1912,0.5978,328.8008
19:31:00:617,-0.4331,2.7709,7.4608,68.4709,-0.1984,0.2669,0.6381,328.0613
19:31:00:641,-0.3733,2.8738,8.205,68.3503,-0.2485,0.1985,0.4268,326.8822
19:31:00:654,-0.7705,2.601,9.0162,67.98,-0.2974,0.091,0.1128,326.7984
19:31:00:677,-1.2347,2.2708,10.1336,69.0277,-0.3597,-0.1081,-0.1511,327.0333
19:31:00:700,-1.5601,2.0554,11.4473,70.1953,-0.3854,-0.3879,-0.2965,327.4596
19:31:00:717,-1.3854,1.5936,12.2321,68.8435,-0.284,-0.565,-0.3441,327.96
19:31:00:735,-1.005,1.0313,12.323,69.7183,-0.1276,-0.5883,-0.3637,328.4777
19:31:00:753,-0.6939,0.469,12.0862,71.3147,-0.0372,-0.4539,-0.36,328.9658
19:31:00:773,-0.3805,0.0981,11.7799,72.096,-0.0714,-0.2889,-0.294,329.3753
19:31:00:797,0.524,-0.0933,11.598,70.4322,-0.1972,-0.1912,-0.1865,329.6291
19:31:00:824,1.9071,-0.6604,12.0933,72.3674,-0.3854,-0.1399,-0.1584,329.8311
19:31:00:843,2.1559,-1.0098,12.8447,72.0819,-0.5796,-0.1509,-0.338,330.2201
19:31:00:852,0.7801,-1.1533,13.6534,71.7417,-0.6688,-0.19,-0.652,330.9679
19:31:00:872,-0.39,-1.3448,13.998,70.2009,-0.5601,-0.2278,-0.7729,331.8669
19:31:00:892,-0.6341,-1.5003,13.3543,69.8327,-0.2644,-0.179,-0.5738,332.5217
19:31:00:913,-0.0431,-1.3113,11.8445,71.4048,0.1045,0.0592,-0.1853,332.7332
19:31:00:933,1.3543,-1.3232,10.3394,70.3738,0.3525,0.306,0.1653,332.5367
19:31:00:953,2.6465,-1.1294,9.1765,70.7341,0.4063,0.4441,0.3107,332.1646
19:31:00:974,3.015,-0.8136,8.1739,70.802,0.3428,0.5345,0.1934,331.9024
19:31:00:999,2.1751,-0.28,7.3914,69.9017,0.2572,0.5773,-0.1034,331.97
19:31:01:017,0.9571,0.067,6.8363,71.2344,0.1974,0.4526,-0.4333,332.4247
19:31:01:034,0.0766,0.256,6.5061,70.7448,0.1705,0.1826,-0.6496,333.1628
19:31:01:052,-0.1699,0.2776,6.1998,69.6457,0.1668,-0.0984,-0.6972,333.9733
19:31:01:075,0.0742,0.8231,6.7023,69.5807,0.019,-0.3439,-0.6508,334.7466
19:31:01:100,-0.3302,1.0552,7.5589,69.1547,-0.1056,-0.3573,-0.7253,335.4844
19:31:01:114,-0.7825,1.2227,8.1332,68.5177,-0.119,-0.35,-0.7839,336.3351
19:31:01:133,-1.0385,1.2706,8.3653,68.5544,-0.0543,-0.3732,-0.7876,338.1898
19:31:01:152,-1.2227,1.4213,8.918,71.1634,-0.0592,-0.4478,-0.7388,339.074
19:31:01:173,-1.1605,1.4453,9.789,69.4366,-0.1251,-0.4697,-0.652,339.8666
19:31:01:193,-1.2802,1.4883,10.8634,69.606,-0.1752,-0.4062,-0.5579,340.5504
19:31:01:214,-1.6032,1.5577,11.811,71.6258,-0.1532,-0.339,-0.4382,341.1054
19:31:01:235,-1.8616,1.7252,12.1747,72.1422,-0.0042,-0.3134,-0.2452,341.4598
19:31:01:252,-1.3591,1.6176,11.8421,71.7938,0.201,-0.2633,0.0224,341.4997
19:31:01:274,-0.6891,1.6702,11.8062,70.7363,0.3024,-0.1448,0.2704,341.2671
19:31:01:300,-0.2393,1.9238,11.9857,68.5126,0.2866,0.0055,0.4023,340.8566
19:31:01:313,-0.3876,1.9789,11.6435,68.9711,0.3269,0.1704,0.3877,340.4574
19:31:01:334,-0.9404,1.9167,10.8993,69.1174,0.3831,0.1741,0.2838,340.1682
19:31:01:353,-1.5218,1.7348,10.4375,69.6032,0.322,0.0458,0.1898,340.0142
19:31:01:375,-1.9095,1.3424,11.0142,69.7449,0.1277,-0.0434,0.1531,339.9135
19:31:01:393,-1.9789,0.5934,12.2249,67.8822,-0.086,-0.1032,0.1739,339.7917
19:31:01:413,-1.986,-0.2177,13.6295,70.5549,-0.1398,-0.2376,0.2435,339.6136
19:31:01:434,-2.1152,-0.4068,13.4213,68.5535,0.0777,-0.3329,0.4084,339.2611
19:31:01:453,-1.6319,-0.3517,11.4353,67.7546,0.5505,-0.1277,0.6809,338.5551
19:31:01:474,-1.1677,0.0574,9.5091,68.7987,0.8168,0.0348,0.8556,337.6488
19:31:01:494,-0.6915,0.2201,8.6525,68.3685,0.6739,0.1105,0.8764,336.713
19:31:01:514,-0.5336,0.3805,8.7362,66.5886,0.3782,0.218,0.8116,335.8357
19:31:01:533,-0.5001,0.6197,8.7888,66.9097,0.1473,0.35,0.6784,335.0234
19:31:01:649,-0.457,0.6006,8.1045,67.3102,0.245,0.4001,0.6503,333.5034
19:31:01:650,-0.4929,0.7513,7.3005,65.7616,0.3464,0.4502,0.6565,332.7269
19:31:01:651,-0.402,0.9715,6.597,66.6278,0.3672,0.4844,0.6858,331.9154
19:31:01:652,-0.4068,1.5099,6.4558,66.3487,0.2805,0.4697,0.7004,331.094
19:31:01:652,-0.201,1.8736,7.0947,67.158,0.1033,0.3818,0.6711,330.3409
19:31:01:668,-0.0933,2.0387,8.2552,66.296,-0.0262,0.2486,0.5819,329.7166
19:31:01:672,-0.1316,2.0076,8.6812,65.7616,0.0019,0.0812,0.4353,329.2743
19:31:01:693,-0.4235,1.931,8.6525,66.8579,0.1253,0.0043,0.2973,329.0023
19:31:01:713,-0.6078,1.9501,8.942,67.4821,0.1571,-0.0373,0.2203,328.8166
19:31:01:733,-0.7035,1.9382,9.5713,66.8579,0.1045,-0.0507,0.2008,328.6552
19:31:01:753,-0.6126,1.9525,10.0283,66.712,0.0972,-0.0116,0.2264,328.4585
19:31:01:776,-0.1244,2.0483,10.0475,66.6278,0.1546,0.0311,0.2912,328.1718
19:31:01:794,0.5934,2.0291,10.4901,66.2434,0.14,-0.0238,0.3058,327.8821
19:31:01:813,1.0887,1.9765,11.1697,65.2555,0.0642,-0.146,0.2227,327.6988
19:31:01:832,1.2012,1.6678,11.1171,66.2583,0.0544,-0.1875,0.0627,327.6925
19:31:01:852,0.7561,1.6343,10.6887,65.2555,0.0495,-0.1741,-0.1022,327.8802
19:31:01:879,0.7585,1.6822,10.4447,64.2958,-0.0323,-0.1472,-0.1633,328.1144
19:31:01:895,1.5386,1.0385,10.5428,65.1062,-0.1789,-0.1936,-0.1865,328.3521
19:31:01:914,1.785,0.4283,11.3252,64.1372,-0.4061,-0.2767,-0.3233,328.7547
19:31:01:941,1.1892,0.0191,12.0144,63.9822,-0.5601,-0.1912,-0.4895,329.3281
19:31:01:951,0.2249,0.0024,11.8971,65.3216,-0.455,0.0922,-0.5408,329.9263
19:31:01:973,0.2991,-0.0766,10.5667,64.106,-0.1361,0.3659,-0.3734,330.2867
19:31:01:994,2.2851,0.1675,9.4493,64.1913,0.0129,0.0812,-0.0668,330.3982
19:31:02:018,2.9671,0.0718,9.7388,64.5187,-0.1593,-0.1252,-0.1902,330.643
19:31:02:032,2.534,0.012,9.5115,64.4935,-0.2168,-0.0446,-0.4773,331.1469
19:31:02:053,1.3711,0.2393,8.9803,65.5201,-0.196,0.102,-0.7522,331.9529
19:31:02:078,0.2369,0.457,8.3438,64.5059,-0.1435,0.1655,-0.8829,332.9213
19:31:02:093,-0.3517,0.6676,7.5996,64.4401,-0.0702,0.1301,-0.8573,333.8728
19:31:02:113,-0.4259,0.8829,6.9918,62.0593,-0.0128,0.0678,-0.7363,334.7149
19:31:02:132,-0.1412,1.1701,6.7717,64.5424,-0.0054,0.0104,-0.608,335.4124
19:31:02:152,0.122,1.3663,6.7717,65.287,-0.0433,-0.0373,-0.5433,336.0424
19:31:02:175,0.1005,1.6439,7.2263,64.6232,-0.1239,-0.0861,-0.5555,336.6963
19:31:02:195,0.0383,1.7515,7.9107,64.683,-0.229,-0.179,-0.6166,337.4161
19:31:02:216,-0.2847,1.7348,8.607,63.7588,-0.3096,-0.2303,-0.6887,338.2332
19:31:02:232,-0.8638,1.7683,9.454,63.1482,-0.345,-0.2535,-0.7168,339.093
19:31:02:251,-1.2179,1.8497,10.2963,63.1482,-0.3524,-0.306,-0.6434,339.8968
19:31:02:273,-1.4213,1.9741,11.0429,63.5243,-0.2876,-0.3219,-0.4871,340.5272
19:31:02:293,-1.4572,2.1775,11.3994,63.2265,-0.1251,-0.256,-0.2806,340.9241
19:31:02:314,-1.1749,2.412,11.3587,63.8337,0.0654,-0.1875,-0.0534,341.0505
19:31:02:340,-0.6126,2.4311,11.5167,62.8814,0.1644,-0.1839,0.1238,340.9877
19:31:02:376,-0.1005,2.5914,12.0263,62.3688,0.1888,-0.1264,0.2093,340.6027
19:31:02:392,-0.3206,2.5484,11.8804,62.8339,0.2328,-0.0568,0.1519,340.4906
19:31:02:412,-0.7059,2.4837,11.4616,63.0377,0.2902,-0.0153,0.1042,340.4363
19:31:02:433,-1.1868,2.3976,10.9854,62.4032,0.3012,-0.0324,0.0945,340.4018
19:31:02:453,-1.5864,1.4764,10.9759,61.2624,0.1791,-0.1765,0.1568,340.3513
19:31:02:476,-1.3639,0.6939,12.1125,61.6716,0.041,-0.4099,0.2068,340.2326
19:31:02:495,-1.5218,0.457,13.0313,62.0181,-0.003,-0.5797,0.2777,339.9759
19:31:02:513,-1.718,0.3183,12.4331,62.6306,0.2365,-0.3916,0.4182,339.6523
19:31:02:532,-1.6152,0.3589,10.4423,61.9283,0.5957,-0.1399,0.5941,339.0851
19:31:02:552,-1.1701,0.4642,8.9755,61.0089,0.7178,-0.0666,0.7444,338.3343
19:31:02:581,-0.603,0.7968,8.4395,60.32,0.5786,-0.0397,0.8312,337.4747
19:31:02:602,-0.1819,0.938,8.4203,61.6836,0.3721,0.0214,0.8116,336.6279
19:31:02:612,-0.0598,0.9954,8.6453,61.6575,0.1962,0.0678,0.7078,335.8962
19:31:02:632,-0.0455,0.8375,8.8893,61.2625,0.1118,0.0825,0.6015,335.2749
19:31:02:651,-0.079,0.6054,9.0712,61.0488,0.1058,0.0275,0.5294,334.7438
19:31:02:674,-0.1531,0.7681,9.0808,60.3112,0.1509,0.0238,0.5306,334.1806
19:31:02:693,0.0191,0.9954,8.8152,59.1912,0.2365,0.1216,0.5941,333.524
19:31:02:713,0.2608,1.2132,8.3294,59.5713,0.3464,0.2547,0.6589,332.777
19:31:02:739,0.5791,1.529,7.815,59.2069,0.4539,0.3928,0.6943,331.9671
19:31:02:758,0.6365,1.8449,7.1904,58.6413,0.5163,0.493,0.6711,331.1647
19:31:02:775,0.591,2.2253,6.7884,59.9253,0.4991,0.5198,0.61,330.4255
19:31:02:794,1.0002,2.3426,6.8578,60.3053,0.366,0.4514,0.5502,329.7605
19:31:02:813,1.3854,2.4479,7.7815,59.944,0.1339,0.3879,0.4659,329.1919
19:31:02:831,1.2538,2.601,9.0257,59.4441,-0.0421,0.3598,0.3266,328.7806
19:31:02:851,1.0528,2.5436,9.7867,60.7045,-0.0518,0.2963,0.1934,328.5209
19:31:02:874,1.0696,2.3857,10.1312,60.1272,0.0337,0.1582,0.114,328.3913
19:31:02:895,1.3519,2.3043,10.6026,59.3919,0.0642,-0.0043,0.0725,328.3482
19:31:02:916,1.7204,2.2684,10.6098,58.623,0.0471,-0.0812,-0.1071,328.3814
19:31:02:933,1.5123,2.3833,10.3418,58.6229,0.019,-0.0348,-0.2403,328.4824
19:31:02:954,1.4596,2.3952,10.1384,57.7296,-0.0641,-0.058,-0.3368,329.1285
19:31:02:972,1.9765,1.9071,10.2269,59.5622,-0.2216,-0.1521,-0.4174,329.6232
19:31:02:990,2.0602,1.3089,10.9161,59.4883,-0.4428,-0.2474,-0.5616,330.2891
19:31:03:011,1.4836,0.8088,11.8564,58.1294,-0.6212,-0.2291,-0.751,331.1603
19:31:03:031,0.3398,0.6197,12.0838,58.8186,-0.5589,-0.0654,-0.8487,332.0944
19:31:03:051,-0.0431,0.5504,10.4279,58.4804,-0.1777,0.1839,-0.7461,332.8979
19:31:03:075,0.1196,0.6532,8.5663,58.1422,0.1106,0.2388,-0.5689,333.5059
19:31:03:095,0.6389,0.6915,7.9633,59.0592,-0.0005,0.0776,-0.459,334.0029
19:31:03:112,1.0457,0.6174,8.5017,60.2576,-0.3108,-0.0678,-0.4651,334.5407
19:31:03:139,1.0241,0.4953,9.1071,57.6405,-0.5417,-0.0348,-0.5652,335.1835
19:31:03:156,0.4738,0.5527,9.5115,58.1552,-0.6175,0.1216,-0.6777,335.9271
19:31:03:173,-0.122,0.7489,9.6168,58.141,-0.5747,0.1887,-0.7119,336.7042
19:31:03:193,-0.2943,1.0026,9.4588,59.2866,-0.4501,0.1338,-0.6569,337.4496
19:31:03:212,-0.1364,1.1438,8.8487,59.3885,-0.2681,0.0531,-0.564,338.1003
19:31:03:232,-0.1412,1.3735,8.0782,60.3351,-0.1044,0.0275,-0.5066,338.6874
19:31:03:253,-0.0359,1.4094,7.5039,59.5937,-0.0421,0.036,-0.4846,339.2479
19:31:03:273,-0.0072,1.6463,7.456,59.9877,-0.0811,0.0299,-0.4822,339.8305
19:31:03:298,-0.055,1.7946,7.9298,59.8502,-0.1813,-0.0092,-0.5164,340.4386
19:31:03:312,-0.2297,1.7874,8.6812,58.1566,-0.2681,-0.0177,-0.5457,341.0838
19:31:03:332,-0.5049,1.7444,9.32,59.0136,-0.2864,0.0104,-0.5469,341.7327
19:31:03:353,-0.8112,1.7874,9.9015,59.9626,-0.2388,0.0373,-0.4883,342.3254
19:31:03:376,-1.1916,2.1823,10.739,59.2527,0.0007,-0.0886,-0.1853,343.0093
19:31:03:393,-1.2538,2.3689,11.0381,58.4205,0.1485,-0.2205,0.0089,343.1021
19:31:03:411,-0.95,2.4646,10.9831,59.3685,0.3428,-0.3635,0.2227,342.9519
19:31:03:431,-0.2752,2.4359,10.5835,58.4079,0.515,-0.5479,0.4145,342.6345
19:31:03:452,0.4594,2.5101,10.1862,57.8126,0.5786,-0.6408,0.5147,342.2179
19:31:03:473,0.6508,2.8833,9.6861,58.3978,0.5163,-0.5345,0.4842,341.8293
19:31:03:494,0.2177,2.9647,9.2291,59.8383,0.3208,-0.3219,0.3425,341.5692
19:31:03:520,-0.3948,2.7446,9.411,60.1223,0.0068,-0.091,0.202,341.4347
19:31:03:531,-0.9404,2.4359,10.3226,59.1161,-0.3377,0.0812,0.1409,341.353
19:31:03:552,-0.9547,1.6941,11.8493,59.2631,-0.5882,0.0458,0.1519,341.2409
19:31:03:572,-0.792,0.9356,13.6343,59.1879,-0.6932,-0.245,0.1726,341.1602
19:31:03:591,-0.9715,0.5551,14.869,60.8954,-0.5906,-0.5736,0.2044,341.0953
19:31:03:611,-1.3711,0.3685,13.931,60.2434,-0.1569,-0.6102,0.3168,340.9094
19:31:03:632,-1.4429,0.3541,11.2271,59.6866,0.4088,-0.3757,0.5196,340.481
19:31:03:656,-0.9715,0.6556,9.1837,61.1116,0.6311,-0.2364,0.7041,339.828
19:31:03:760,-0.3015,0.8088,8.8056,61.658,0.443,-0.1435,0.7835,339.0724
19:31:03:760,-0.0096,0.8519,9.0616,61.0466,0.1754,-0.0067,0.7346,338.3427
19:31:03:761,0.0766,0.7561,9.3894,62.8298,0.0288,0.0837,0.6149,337.7178
19:31:03:761,0.1436,0.6461,9.5713,61.0286,0.0251,0.1008,0.5184,337.2027
19:31:03:762,0.3063,0.5432,9.0808,61.7909,0.1509,0.1325,0.4805,336.7152
19:31:03:777,0.2632,0.7226,8.2983,62.2527,0.2878,0.1924,0.4744,336.2242
19:31:03:791,0.2847,1.0576,7.8628,64.9157,0.3208,0.2779,0.505,335.6919
19:31:03:811,0.5456,1.3926,7.6833,63.0149,0.3037,0.3915,0.5551,335.0855
19:31:03:831,0.8064,1.9765,7.0923,64.0845,0.3379,0.4832,0.4744,334.4553
19:31:03:855,0.7011,2.2851,7.0875,63.2779,0.2646,0.3964,0.3596,333.4554
19:31:03:874,0.9308,2.1679,7.4919,64.5421,0.1265,0.306,0.2618,333.1792
19:31:03:897,0.8423,2.0435,8.3557,64.7109,-0.0067,0.2608,0.147,333.0316
19:31:03:911,0.3685,2.0842,9.2507,63.2779,-0.0726,0.2449,0.0541,332.9899
19:31:03:931,0.1388,2.0937,9.6646,63.4723,-0.0103,0.1851,0.0334,332.9995
19:31:03:957,0.6867,1.8975,9.7843,64.5421,0.0874,0.0324,0.0773,332.9604
19:31:03:980,1.2825,1.7683,10.1719,65.9962,0.0691,-0.1448,0.0737,332.9632
19:31:03:990,1.9119,1.3137,10.7127,65.4846,-0.0201,-0.212,-0.0081,333.0408
19:31:04:010,1.9573,1.139,10.9448,65.0168,-0.1007,-0.1741,-0.1413,333.2639
19:31:04:031,1.7611,1.1964,10.7557,65.1836,-0.1459,-0.0922,-0.2635,333.6035
19:31:04:052,1.9119,1.06,10.3203,66.1303,-0.2314,-0.0849,-0.338,334.0277
19:31:04:071,2.2277,0.6939,10.8012,66.528,-0.4538,-0.1704,-0.4101,334.5348
19:31:04:091,2.3163,0.3852,12.4786,66.7741,-0.7555,-0.2364,-0.5201,335.1811
19:31:04:110,1.5553,0.1077,13.9645,67.994,-0.8582,-0.1252,-0.6618,335.9697
19:31:04:130,0.5982,-0.0287,14.0387,65.9036,-0.5796,0.069,-0.7082,336.7822
19:31:04:150,0.5216,0.0191,12.5886,68.6671,-0.0579,0.1423,-0.5469,337.4254
19:31:04:171,1.1246,0.1172,10.5141,68.4333,0.3599,0.0287,-0.3429,337.8575
19:31:04:191,1.6798,0.1555,9.1621,68.385,0.4515,-0.0959,-0.2745,338.2116
19:31:04:210,2.0506,0.0814,8.5113,67.0082,0.278,-0.1167,-0.3441,338.6332
19:31:04:231,1.9071,0.1172,8.1476,69.0934,0.0459,0.036,-0.4871,339.2046
19:31:04:251,1.0433,0.3996,7.9226,66.9727,-0.1447,0.2193,-0.6605,339.9432
19:31:04:271,0.0479,0.6437,8.0542,68.2586,-0.295,0.2975,-0.7864,340.8285
19:31:04:292,-0.9332,0.9667,7.6068,69.8047,-0.2302,0.2889,-0.6972,341.7482
19:31:04:311,-0.8112,1.1318,6.9392,68.0628,-0.1007,0.2926,-0.5482,343.1356
19:31:04:335,-0.4307,1.3424,6.7214,68.975,-0.0555,0.2425,-0.4345,343.6448
19:31:04:357,-0.1675,1.5769,7.389,70.7372,-0.1129,0.1154,-0.393,344.125
19:31:04:382,-0.1149,1.8042,8.126,68.7279,-0.1667,0.0031,-0.4211,344.653
19:31:04:396,-0.2034,1.919,8.8128,69.5451,-0.1386,0.0177,-0.4712,345.2331
19:31:04:410,-0.4618,1.8544,8.9468,70.111,-0.0567,0.0885,-0.5127,345.86
19:31:04:431,-0.8207,1.7946,8.9204,69.5538,-0.0152,0.1704,-0.5042,346.467
19:31:04:451,-0.8734,1.9262,9.6048,71.618,-0.1031,0.2144,-0.415,346.9765
19:31:04:470,-0.9021,2.0842,10.3561,69.1124,-0.2021,0.1997,-0.2891,347.3424
19:31:04:494,-0.8662,2.1488,10.617,71.0935,-0.1948,0.2327,-0.1633,347.5655
19:31:04:510,-0.9476,2.2732,10.8227,71.5455,-0.1581,0.3244,-0.0485,347.6567
19:31:04:530,-1.017,2.4359,11.2463,70.6862,-0.1569,0.4038,0.0859,347.588
19:31:04:553,-0.9811,2.5651,11.2439,71.187,-0.1129,0.3989,0.2252,347.3636
19:31:04:570,-0.7777,2.5699,10.7725,70.7192,-0.0543,0.295,0.3217,347.0442
19:31:04:591,-0.7274,2.5747,10.6337,71.7691,-0.1093,0.179,0.3437,346.7094
19:31:04:609,-1.1198,2.3426,11.1075,72.409,-0.273,0.1301,0.2753,346.4604
19:31:04:630,-1.6199,1.7803,11.8469,72.7793,-0.4208,0.0543,0.191,346.3188
19:31:04:650,-1.9597,0.9978,12.8231,72.7359,-0.5136,-0.1545,0.1617,346.2383
19:31:04:670,-2.0435,0.2441,13.9191,73.782,-0.4978,-0.4306,0.2325,346.1039
19:31:04:689,-2.1105,0.055,14.12,72.609,-0.2669,-0.609,0.439,345.7504
19:31:04:710,-1.5242,0.1101,12.3709,72.0592,0.2267,-0.5003,0.7603,345.0106
19:31:04:730,-0.9954,0.4498,9.9206,72.9138,0.6531,-0.3439,0.9729,344.027
19:31:04:751,0.213,0.6652,8.8391,73.3969,0.3757,-0.372,0.8373,342.1553
19:31:04:770,0.0718,0.6221,9.3272,73.068,0.1436,-0.3745,0.5978,341.6039
19:31:04:790,-0.3709,0.4546,9.2674,71.8106,0.1241,-0.3573,0.3755,341.3203
19:31:04:811,-0.4881,0.122,8.5663,71.2117,0.2389,-0.317,0.2533,341.1329
19:31:04:831,-0.7944,0.1795,8.1165,72.3336,0.3024,-0.2718,0.1995,340.9927
19:31:04:857,-1.1486,0.457,8.2337,72.5713,0.2719,-0.1998,0.1995,340.8674
19:31:04:870,-1.1366,0.7011,8.0542,73.6297,0.311,-0.0544,0.2472,340.6868
19:31:04:889,-0.9045,0.9595,7.5805,72.0508,0.432,0.1057,0.3083,340.4135
19:31:04:910,-0.6221,1.3639,7.3149,72.379,0.4857,0.1912,0.3461,340.0741
19:31:04:930,-0.3374,1.6343,7.4154,72.1618,0.4601,0.2254,0.3266,339.7547
19:31:04:949,-0.4259,1.8353,7.5063,72.5128,0.4234,0.1973,0.2276,339.5418
19:31:04:969,-0.6652,1.9693,7.7073,73.337,0.3696,0.0959,0.092,339.497
19:31:04:991,-0.9571,2.1176,8.6405,73.9018,0.2438,-0.0238,-0.0057,339.5898
19:31:05:011,-0.5695,2.077,9.7675,71.3053,0.1534,-0.1289,0.0016,339.6889
19:31:05:035,0,1.9382,10.203,71.272,0.1742,-0.1973,0.0163,339.7606
19:31:05:054,0.7155,1.5147,10.3609,71.1947,0.1742,-0.2156,-0.0387,339.8745
19:31:05:069,0.95,1.2754,10.7964,71.9463,0.0434,-0.168,-0.1535,340.1027
19:31:05:090,0.4857,1.1605,11.5836,71.4906,-0.1276,-0.0861,-0.294,340.4837
19:31:05:111,0.2847,0.8471,11.653,72.5459,-0.2046,-0.0214,-0.349,340.9043
19:31:05:136,0.9332,0.2034,11.3444,72.8986,-0.2583,-0.0018,-0.3026,341.249
19:31:05:150,0.8925,0.0885,12.2967,73.1584,-0.5124,-0.1008,-0.3063,341.6225
19:31:05:173,0.6197,0.0263,13.9334,70.5769,-0.7592,-0.1497,-0.3221,342.0242
19:31:05:193,0.5695,-0.2465,14.6178,71.5329,-0.6456,-0.146,-0.2427,342.3421
19:31:05:212,1.9501,-0.3661,11.4712,69.3808,0.322,-0.0079,0.1824,342.2007
19:31:05:234,2.8857,-0.323,9.7268,69.6478,0.559,0.0641,0.307,341.8521
19:31:05:254,3.4433,-0.1603,8.8893,69.9152,0.4601,0.0751,0.2716,341.502
19:31:05:271,3.1107,0.3709,8.3055,69.5517,0.2524,0.1777,0.0883,341.3487
19:31:05:290,2.1512,0.7681,7.7408,70.4864,0.1241,0.3427,-0.1743,341.4792
19:31:05:311,1.1701,1.1414,7.3149,70.4864,0.052,0.3463,-0.4321,341.9096
19:31:05:331,0.3135,1.3232,7.0517,71.3466,0.0043,0.1875,-0.6153,342.5839
19:31:05:351,-0.3063,1.5266,7.0493,69.828,-0.0396,0.0263,-0.696,343.3894
19:31:05:370,-0.7202,1.8305,7.4489,68.9027,-0.0983,-0.0287,-0.6801,344.1933
19:31:05:390,-0.9763,2.0315,7.9466,67.5008,-0.1337,0.0263,-0.6251,344.9143
19:31:05:410,-1.2132,2.1679,8.4897,69.0984,-0.0983,0.1252,-0.5689,345.5456
19:31:05:431,-1.3663,2.4431,8.8774,67.9799,-0.003,0.1289,-0.4932,346.131
19:31:05:451,-1.2323,2.6273,9.3631,68.357,0.1204,0.0409,-0.3576,346.5755
19:31:05:470,-0.6054,2.6871,9.7484,70.4503,0.2646,-0.025,-0.1535,346.7834
19:31:05:490,0.1699,2.7039,9.5761,66.96,0.4698,-0.0128,0.0273,346.7887
19:31:05:510,0.3015,2.8546,9.0186,67.4201,0.636,-0.025,0.0822,346.7361
19:31:05:533,0.3661,2.9025,8.8176,67.6699,0.6299,-0.0837,0.0847,346.6919
19:31:05:553,0.347,2.9599,9.2913,69.0899,0.4894,-0.1191,0.081,346.6607
19:31:05:571,0.4953,2.7446,10.0499,67.8289,0.3501,-0.1375,0.0883,346.6086
19:31:05:591,0.7466,2.5172,10.6289,67.1858,0.2817,-0.1668,0.1116,346.5301
19:31:05:610,0.7322,2.5244,10.952,68.7938,0.2768,-0.1264,0.1152,346.4369
19:31:05:636,0.4044,2.5795,10.6074,67.7128,0.3415,0.058,0.0932,346.3457
19:31:05:654,-0.3685,2.7135,9.7507,65.6696,0.4063,0.1997,0.037,346.2875
19:31:05:671,-0.4977,2.388,8.7577,66.9142,0.1729,0.1961,0.0065,346.2431
19:31:05:689,-0.2823,1.5123,10.0786,64.2701,-0.1483,0.1448,-0.1132,346.1938
19:31:05:710,-0.5767,0.3254,12.0646,65.1848,-0.4635,-0.1044,-0.3197,346.6973
19:31:05:733,-1.797,0.1172,13.1988,64.813,-0.5136,-0.372,-0.448,347.319
19:31:05:750,-2.6991,0.1627,11.9019,68.1861,-0.1044,-0.2266,-0.3014,347.7712
19:31:05:862,-2.4694,0.3063,9.3105,64.6443,0.3916,0.0837,0.048,347.7704
19:31:05:863,-1.5888,0.7657,7.5135,64.6443,0.443,0.2511,0.3694,347.3556
19:31:05:864,-0.5695,0.9834,7.2885,63.1965,0.0777,0.4135,0.5135,346.7268
19:31:05:865,0.0215,1.0887,8.2433,65.7325,-0.389,0.5186,0.4744,346.0967
19:31:05:865,0.0694,1.0983,9.454,64.001,-0.6859,0.4453,0.3278,345.6461
19:31:05:884,-0.2249,1.2514,10.1097,64.9179,-0.7164,0.2914,0.2105,345.3641
19:31:05:889,-0.7083,1.5721,9.9087,63.1852,-0.5063,0.1667,0.18,345.1627
19:31:05:911,-1.0983,1.797,9.0568,63.1852,-0.2302,0.091,0.2068,344.9538
19:31:05:931,-1.2371,2.077,8.3988,63.1852,-0.0677,0.1105,0.285,344.6632
19:31:05:951,-1.0576,2.3569,8.4706,63.1852,-0.0445,0.1814,0.3852,344.2481
19:31:05:970,-0.7705,2.5651,8.9539,62.9696,-0.0677,0.2205,0.4378,343.7658
19:31:05:990,-0.5719,2.5029,9.1861,62.1511,-0.0091,0.2339,0.4145,343.2837
19:31:06:010,-0.6508,2.3282,8.8917,63.4997,0.1387,0.2205,0.329,342.8794
19:31:06:030,-0.8614,2.1248,8.5089,63.8037,0.2585,0.1802,0.2509,342.5901
19:31:06:050,-1.1055,2.3354,8.662,62.3533,0.2279,0.1057,0.2447,342.3333
19:31:06:070,-0.8495,2.5412,9.5378,62.9333,0.107,0.0849,0.2936,342.0267
19:31:06:091,-0.4522,2.5484,10.2102,63.2542,0.0544,0.1252,0.307,341.6904
19:31:06:114,-0.079,2.4167,10.6911,61.2559,0.0654,0.1203,0.2631,341.3934
19:31:06:132,0.2153,1.8233,12.2584,63.2006,0.0031,-0.0776,0.0786,341.1138
19:31:06:154,-0.0096,1.6822,12.3565,61.2559,0.0886,-0.0189,0.026,341.0872
19:31:06:171,-0.1914,1.7803,11.2128,62.4537,0.2878,0.0849,0.037,341.0327
19:31:06:191,0.0694,2.1248,10.3226,60.0931,0.3721,0.0934,0.114,340.8958
19:31:06:217,0.938,2.1248,10.2509,61.7369,0.2634,0.0311,0.18,340.6875
19:31:06:233,1.4381,1.9286,10.8491,61.4528,0.0996,-0.036,0.1103,340.5557
19:31:06:250,1.2156,1.5266,11.6172,59.7455,0.0178,-0.0226,-0.0399,340.581
19:31:06:270,0.4259,1.2467,11.5597,60.7087,0.1277,0.0409,-0.1511,340.7189
19:31:06:290,0.0838,1.3759,10.4782,60.9693,0.3623,0.0885,-0.1303,340.8444
19:31:06:310,0.3685,1.3998,9.2363,61.7972,0.5334,0.102,-0.0253,340.8402
19:31:06:332,0.9882,1.4094,8.4084,59.66,0.4723,-0.0067,0.0297,340.7884
19:31:06:350,1.8544,1.1629,8.394,61.7972,0.2157,-0.1497,0.004,340.7898
19:31:06:369,2.0602,0.9595,9.0616,61.2821,-0.1325,-0.1472,-0.1205,340.9072
19:31:06:390,1.5242,1.1151,10.1815,60.829,-0.4269,0.0446,-0.2684,341.1572
19:31:06:414,0.7035,1.4572,10.4901,59.3882,-0.4135,0.2645,-0.3502,341.4383
19:31:06:430,0.1268,1.8544,9.1023,57.8092,-0.0836,0.3402,-0.3429,341.7187
19:31:06:449,0.0239,2.1057,7.4034,61.3059,0.2267,0.2926,-0.2891,341.9615
19:31:06:469,0.3135,2.2277,6.5013,59.66,0.2792,0.2217,-0.2403,342.1655
19:31:06:490,0.5168,2.4694,6.6449,60.769,0.1387,0.1948,-0.2623,342.3968
19:31:06:511,0.2489,2.7254,7.4441,59.5239,-0.0176,0.1777,-0.3417,342.7178
19:31:06:533,-0.079,2.8211,8.3653,61.2788,-0.0531,0.0922,-0.4125,343.1394
19:31:06:551,-0.2393,2.9336,8.595,59.4167,0.052,-0.0238,-0.4272,343.6067
19:31:06:570,-0.3398,3.0532,8.4706,57.1547,0.2059,-0.0495,-0.4089,344.0239
19:31:06:591,-0.95,3.7208,9.1765,59.1244,0.2792,-0.0312,-0.3392,344.4495
19:31:06:614,-0.9858,4.0726,9.3488,59.2462,0.3269,-0.0544,-0.25,345.1212
19:31:06:635,-0.9236,4.3406,9.1741,60.2511,0.4002,-0.0788,-0.1767,345.3521
19:31:06:650,-0.7418,4.3741,9.3512,58.7364,0.3892,-0.0812,-0.1609,345.5738
19:31:06:670,-0.6126,4.1133,9.8752,59.6304,0.3147,-0.0788,-0.2024,345.8244
19:31:06:691,-1.0265,3.996,10.3872,58.3712,0.2634,-0.0275,-0.2684,346.1414
19:31:06:715,-1.7085,4.1061,10.4184,60.9052,0.278,0.0409,-0.3026,346.4744
19:31:06:733,-2.278,4.2353,9.8991,57.7292,0.3195,0.0653,-0.2684,346.7929
19:31:06:750,-2.7422,4.5511,9.7843,58.1163,0.2572,0.08,-0.1865,347.0261
19:31:06:771,-2.881,4.3095,9.9613,58.6755,0.1241,0.179,-0.0766,347.1299
19:31:06:790,-2.7852,3.4385,10.1145,59.6304,0.0288,0.2621,0.0248,347.0628
19:31:06:812,-1.9095,2.077,10.2461,60.7901,-0.0409,0.0666,0.136,346.9378
19:31:06:832,-1.2706,1.2825,10.8586,61.149,-0.1691,-0.2999,0.2276,346.8179
19:31:06:850,-1.541,1.4907,11.4018,60.5879,-0.2461,-0.3842,0.2948,346.6547
19:31:06:869,-2.0746,1.8018,10.6744,60.8823,-0.0775,-0.0996,0.395,346.3317
19:31:06:889,-2.1057,1.8497,8.9037,61.433,0.1791,0.0605,0.483,345.8525
19:31:06:913,-1.5601,1.8688,8.0518,60.0309,0.1693,-0.0263,0.5502,345.3329
19:31:06:928,-1.0265,2.0195,8.4443,61.5433,-0.0457,-0.0568,0.5697,344.7833
19:31:06:949,-0.7178,1.8353,8.9204,60.8179,-0.1887,-0.0128,0.4915,344.2964
19:31:06:970,-0.7107,1.4812,8.8295,61.3893,-0.1911,-0.0031,0.3632,343.9214
19:31:06:990,-0.6748,1.4094,8.6405,60.4644,-0.163,0.0079,0.3046,343.6142
19:31:07:015,-0.4211,1.7444,8.5352,60.6869,-0.1325,0.0702,0.3486,343.2309
19:31:07:033,-0.0311,2.144,8.1787,61.3111,-0.0482,0.1338,0.4036,342.765
19:31:07:051,0.5456,2.4072,7.1091,61.4181,0.0825,-0.0544,0.2716,342.3344
19:31:07:069,0.0622,2.5962,7.5398,61.4201,-0.047,-0.1545,0.1445,341.9388
19:31:07:089,-0.2513,2.8355,8.059,62.0165,-0.1483,-0.1692,0.0786,341.9334
19:31:07:138,-0.603,2.936,7.7862,61.5423,-0.1142,-0.245,0.0236,342.0059
19:31:07:138,-0.5647,2.6106,7.5589,60.4644,-0.0665,-0.2938,0.0089,342.1142
19:31:07:148,-0.3876,2.5508,8.1117,63.3553,-0.1398,-0.2242,0.0761,342.1205
19:31:07:170,-0.3661,2.9121,9.3512,62.184,-0.3023,-0.1057,0.1714,341.9967
19:31:07:188,-0.1795,3.1729,10.1384,64.4505,-0.3658,0.1472,0.2509,341.7093
19:31:07:209,0.1579,3.4169,10.3537,63.0608,-0.3145,0.4074,0.2631,341.3227
19:31:07:229,0.8495,3.3165,10.7342,63.6002,-0.3206,0.383,0.1604,341.0282
19:31:07:251,1.4381,2.9288,11.5597,65.0594,-0.4355,0.1399,-0.0668,341.0223
19:31:07:270,1.7204,2.1751,12.5312,65.0577,-0.5051,-0.1142,-0.3832,341.4099
19:31:07:290,0.5049,2.9743,12.2824,64.1792,-0.3915,-0.328,-0.6984,342.2246
19:31:07:313,0.3709,2.4694,11.5932,65.4515,-0.1826,-0.4233,-0.7155,343.1011
19:31:07:331,0.8519,1.4931,11.4879,62.1094,-0.036,-0.4111,-0.5775,343.8041
19:31:07:351,1.0504,0.9691,11.8086,64.1792,-0.0824,-0.4111,-0.6141,344.5417
19:31:07:369,0.1914,1.0122,11.8181,65.9672,-0.2742,-0.3586,-0.7363,345.4032
19:31:07:389,-0.2489,1.1557,11.3898,65.5591,-0.3805,-0.1118,-0.696,346.2017
19:31:07:410,0.1723,1.1892,10.8012,65.7378,-0.2864,0.0299,-0.4773,346.7005
19:31:07:432,1.127,1.3735,10.2724,66.8413,-0.1019,-0.0287,-0.2989,347.0105
19:31:07:451,1.8927,1.1916,9.88,64.748,0.0263,-0.1154,-0.3063,347.3184
19:31:07:469,1.809,0.9595,9.7507,65.6309,0.0068,-0.1594,-0.5005,347.8445
19:31:07:491,1.1414,1.0887,9.3918,65.4888,-0.1166,-0.1582,-0.7338,348.6408
19:31:07:512,-0.3278,1.2227,8.3749,65.8992,-0.2216,0.0079,-0.8475,350.4753
19:31:07:529,-0.7322,1.6893,7.925,64.2007,-0.1007,0.1142,-0.7522,351.29
19:31:07:549,-0.7657,2.1631,7.5254,65.1912,0.1021,0.1557,-0.6288,351.9612
19:31:07:569,-0.2584,2.2708,7.3388,65.0892,0.2817,0.1264,-0.4968,352.4856
19:31:07:590,0.1196,2.6034,7.2215,65.0206,0.3623,0.058,-0.4724,352.9728
19:31:07:611,-0.146,3.0197,7.7815,64.305,0.2817,0.0715,-0.5701,353.5725
19:31:07:631,-0.8806,3.1202,8.2529,64.9077,0.0984,0.0678,-0.6605,354.2919
19:31:07:655,-1.4429,3.0532,8.7505,65.6186,-0.0665,0.0202,-0.6422,355.0216
19:31:07:669,-1.5625,3.1131,8.8534,66.1575,-0.1288,0.0226,-0.4968,355.5898
19:31:07:690,-1.4524,3.192,9.2387,65.8265,-0.119,0.1814,-0.3038,355.919
19:31:07:713,-1.4118,3.3858,9.8608,64.3655,-0.1142,0.3708,-0.1706,356.0474
19:31:07:730,-1.407,3.4098,10.3418,66.1002,-0.1227,0.3928,-0.0937,356.0807
19:31:07:749,-1.1797,3.0963,11.2582,66.6079,-0.1056,0.2914,-0.0314,356.0638
19:31:07:770,-0.8542,2.8116,11.5573,64.2267,-0.025,0.0727,0.0468,355.9972
19:31:07:795,-0.6317,2.613,11.4497,65.5416,0.1204,-0.0312,0.1299,355.8563
19:31:07:810,-1.1581,2.7039,10.9017,66.4018,0.3159,0.1118,0.2105,355.6149
19:31:07:831,-2.0746,3.0987,9.9972,66.5552,0.5175,0.4074,0.307,355.231
19:31:07:850,-2.4191,3.2064,9.3512,65.8781,0.6238,0.6371,0.4304,354.6612
19:31:07:869,-2.1105,2.8833,9.4277,66.4773,0.5004,0.5272,0.5001,354.0335
19:31:07:958,-1.2825,1.608,10.2221,66.6393,0.1595,0.0006,0.4121,353.5924
19:31:07:959,-1.8951,1.1821,10.8754,65.0303,-0.2229,-0.6689,0.1885,353.6037
19:31:07:960,-2.8594,1.407,10.794,63.0428,-0.4,-0.923,0.1519,353.7477
19:31:07:960,-2.8187,0.9906,10.3896,63.6388,-0.2314,-0.5638,0.461,352.7477
19:31:07:974,-1.4142,1.3256,9.0329,62.9691,0.2951,-0.1619,0.7713,351.9861
19:31:07:994,-0.7561,1.2634,8.4371,64.3092,0.2414,-0.2364,0.6125,351.3967
19:31:08:011,-0.5527,0.926,7.9609,63.759,0.0202,-0.3268,0.395,351.0615
19:31:08:030,-0.8566,0.7896,7.5757,62.4659,-0.174,-0.2841,0.2276,350.9229
19:31:08:048,-1.1725,0.9284,7.255,64.2121,-0.218,-0.1289,0.2008,350.774
19:31:08:069,-1.3089,0.9882,6.7597,64.5696,-0.1483,0.0055,0.2594,350.5509
19:31:08:094,-1.2921,1.2371,6.3721,63.6306,-0.0848,0.0385,0.3144,350.2521
19:31:08:114,-1.0217,1.6917,6.3051,61.3986,-0.1276,-0.0104,0.3522,349.9181
19:31:08:131,-0.7442,2.1272,6.4774,62.4071,-0.2656,-0.0373,0.3767,349.5396
19:31:08:153,-0.5408,2.278,6.8291,62.2771,-0.4184,0.0263,0.3718,349.1622
19:31:08:169,-0.4666,2.388,7.4943,64.1618,-0.5295,0.0934,0.3205,348.8083
19:31:08:189,-0.2967,2.4598,8.6644,62.6714,-0.6102,0.0421,0.2472,348.5428
19:31:08:209,0.055,2.3761,9.6407,62.8185,-0.6199,-0.0715,0.1763,348.3624
19:31:08:229,-0.0838,2.4048,10.2461,61.2428,-0.5417,-0.0605,0.081,348.2855
19:31:08:250,-0.6126,2.5747,10.7366,63.4146,-0.4342,0.0263,-0.0033,348.3219
19:31:08:270,-0.9212,2.534,11.33,63.5737,-0.3414,0.091,-0.0228,348.3784
19:31:08:291,-0.8829,2.3545,11.7296,63.0028,-0.262,0.0825,0.0004,348.3911
19:31:08:309,-0.6293,2.2205,12.1555,62.6393,-0.2021,0.0324,0.0273,348.3801
19:31:08:330,-0.4355,1.9956,12.2943,62.2998,-0.1789,-0.0153,0.0578,348.3398
19:31:08:349,-0.3541,1.8951,12.4307,62.9032,-0.2009,-0.0483,0.0896,348.2502
19:31:08:373,0.3135,1.4477,12.6796,60.6201,-0.2888,-0.102,0.1323,348.1034
19:31:08:394,1.6941,0.3159,13.4596,62.2292,-0.4428,-0.2266,0.1238,347.9389
19:31:08:411,2.0483,-0.4259,14.2182,62.2292,-0.6627,-0.4172,-0.0729,348.3232
19:31:08:430,-0.4475,-0.524,14.1488,61.0609,-0.5124,-0.0971,-0.2843,348.6411
19:31:08:449,-0.5073,-0.4451,12.4307,60.8927,0.0557,0.2046,-0.0081,348.6378
19:31:08:468,0.39,-0.2656,10.0379,60.1066,0.7508,0.5076,0.3926,348.1135
19:31:08:492,1.73,-0.3517,7.6714,60.6535,1.2493,0.7385,0.7004,347.1875
19:31:08:512,2.5986,-0.0718,5.7595,59.9452,1.2859,0.7569,0.7334,346.1665
19:31:08:531,2.6584,0.4211,4.879,57.2271,0.7374,0.4099,0.4109,345.5377
19:31:08:549,1.7587,0.6006,5.9701,59.1151,-0.0873,0.0605,-0.1401,345.5918
19:31:08:571,0.201,0.3996,7.6786,57.3634,-0.6554,-0.0397,-0.6251,346.2386
19:31:08:591,-0.8973,0.3446,8.0662,58.9459,-0.7372,-0.0764,-0.7778,347.0953
19:31:08:610,-1.06,0.6556,7.9418,58.0518,-0.4855,-0.1154,-0.5872,347.7512
19:31:08:629,-0.3637,1.0193,7.4082,56.6434,-0.13,-0.025,-0.2879,348.0621
19:31:08:649,0.067,1.5649,6.7334,58.3788,0.0544,0.0092,-0.1523,348.2057
19:31:08:669,0.2871,1.785,6.4798,58.2171,0.0141,0.0617,-0.1657,348.349
19:31:08:692,0.1364,1.8616,6.8267,54.7945,-0.174,0.0959,-0.2745,348.6374
19:31:08:711,-0.3829,2.0435,8.1835,57.4652,-0.4159,0.0556,-0.3991,349.0596
19:31:08:729,-0.6628,1.9717,9.6694,57.7559,-0.532,-0.0092,-0.4309,349.5291
19:31:08:749,-0.9212,2.0315,10.4566,58.4202,-0.444,-0.1069,-0.382,349.9679
19:31:08:768,-1.1725,2.1966,10.7821,56.4769,-0.2754,-0.1973,-0.283,350.3286
19:31:08:794,-1.2586,2.3474,11.0261,57.8973,-0.1483,-0.2144,-0.1328,350.5199
19:31:08:809,-0.7178,2.2636,11.3492,56.4769,-0.1019,-0.2291,0.0493,350.4991
19:31:08:829,0.1819,2.1344,11.9593,54.3989,-0.1117,-0.2254,0.2166,350.2505
19:31:08:850,0.6724,2.2421,12.6485,56.4027,-0.1203,-0.1582,0.2741,349.9042
19:31:08:874,0.1531,2.3761,12.6987,54.2395,-0.0225,-0.0128,0.1788,349.6638
19:31:08:892,-2.2062,1.9334,11.0118,52.8291,0.2499,0.0825,-0.0912,349.6624
19:31:08:909,-2.7852,1.7779,10.8132,53.22,0.2108,-0.0006,-0.0106,349.9108
19:31:08:929,-2.388,1.3591,11.9067,54.2395,0.074,-0.1704,0.1836,349.7979
19:31:08:948,-1.3065,0.4881,13.0481,51.5273,-0.014,-0.4453,0.3437,349.4912
19:31:08:969,-1.084,0.0215,13.3017,52.7083,0.0838,-0.6628,0.384,349.1305
19:31:08:994,-1.0983,-0.079,12.4355,50.2969,0.2841,-0.7031,0.3755,348.8292
19:31:09:012,-0.9356,-0.1962,11.2487,50.0924,0.4136,-0.5602,0.3864,348.4631
19:31:09:031,-0.9356,-0.2752,10.4255,50.14,0.3403,-0.3855,0.3596,348.1407
19:31:09:049,-0.926,-0.2441,10.1192,48.9106,0.1485,-0.146,0.3449,347.7973
19:31:09:075,-0.8327,-0.1292,9.9206,48.3611,0.0019,0.0763,0.3718,347.3929
19:31:09:092,-0.8542,0.146,9.3703,47.9797,0.0031,0.2352,0.4109,346.9154
19:31:09:110,-0.8399,0.4451,8.3103,49.4648,0.1375,0.3732,0.4524,346.3813
19:31:09:129,-0.7561,0.7274,7.0301,48.305,0.3049,0.4954,0.4988,345.7762
19:31:09:148,-0.6174,1.0409,6.0873,48.4584,0.4002,0.5687,0.5416,345.1092
19:31:09:169,-0.3183,1.2108,5.4604,48.268,0.3843,0.5455,0.5673,344.3868
19:31:09:192,-0.1244,1.5625,5.4341,48.0696,0.2805,0.449,0.5453,343.7164
19:31:09:214,-0.1268,2.0052,5.9174,47.392,0.1277,0.295,0.4683,343.1651
19:31:09:240,-0.3159,2.2947,6.5851,46.3216,0.0178,0.1631,0.351,342.7741
19:31:09:248,-0.5719,2.455,7.2263,46.2134,0.0092,0.0336,0.2386,342.5179
19:31:09:268,-0.5408,2.3713,7.5805,47.7864,0.0471,-0.1118,0.1665,342.3598
19:31:09:288,-0.2297,2.2253,8.0016,45.4348,0.052,-0.1936,0.1299,342.248
19:31:09:308,-0.3733,2.4742,8.8199,44.6625,-0.0201,-0.2303,0.0676,342.2169
19:31:09:330,-0.0861,2.0674,11.2271,46.8921,-0.1215,-0.2816,-0.0692,342.2722
19:31:09:350,0.4522,1.7061,12.3685,46.337,-0.0897,-0.4233,-0.1438,342.394
19:31:09:376,0.9117,1.3017,13.084,44.9939,-0.0494,-0.4942,-0.2268,342.8353
19:31:09:396,0.5743,1.0935,13.4525,44.9939,-0.0103,-0.4331,-0.3453,343.2215
19:31:09:411,0.012,0.993,13.5362,43.591,-0.0311,-0.3732,-0.4345,343.7145
19:31:09:429,0.0287,0.7944,13.6176,43.4567,-0.0787,-0.256,-0.3759,344.1342
19:31:09:448,0.7107,0.4379,13.7492,43.0308,-0.1154,-0.1338,-0.233,344.3434
19:31:09:474,1.1677,0.0814,13.9262,42.2507,-0.1349,-0.0568,-0.1657,344.444
19:31:09:493,0.7896,-0.0622,13.4094,44.0993,-0.0237,0.1069,-0.1865,344.5549
19:31:09:512,0.4283,-0.0574,11.6196,41.9383,0.2841,0.3341,-0.1719,344.6174
19:31:09:528,0.3661,0.0191,9.7005,42.8794,0.5382,0.3891,-0.101,344.5945
19:31:09:549,0.6724,0.2201,8.7553,40.0499,0.4466,0.1582,-0.0265,344.5241
19:31:09:575,1.3256,0.2034,8.8702,40.8381,0.1351,-0.0617,0.004,344.4209
19:31:09:591,1.4883,0.0407,8.9468,40.2002,-0.1093,-0.0177,-0.0595,344.3627
19:31:09:611,1.2969,-0.0766,8.7171,41.7865,-0.2644,0.1142,-0.1767,344.4331
19:31:09:632,0.9882,-0.055,8.54,40.1899,-0.3841,0.1851,-0.2757,344.6088
19:31:09:648,0.2967,0.2417,8.2672,40.0092,-0.4428,0.2559,-0.3417,344.8917
19:31:09:669,-0.3039,0.6508,7.7456,41.683,-0.3536,0.4086,-0.349,345.1903
19:31:09:689,-0.7035,1.0911,7.0014,39.4629,-0.1508,0.5198,-0.294,345.4165
19:31:09:711,-0.6341,1.3185,6.3506,39.0445,0.0459,0.493,-0.211,345.5714
19:31:09:729,-0.2417,1.5123,6.1639,37.4324,0.1277,0.3414,-0.1291,345.6013
19:31:09:749,0.1747,1.6965,6.3147,40.6675,0.1167,0.201,-0.0851,345.589
19:31:09:773,0.3685,1.8209,6.6832,40.8148,0.0801,0.1179,-0.1254,345.6372
19:31:09:790,-0.0646,1.8138,7.9035,40.4921,-0.0653,0.0763,-0.2757,346.1083
19:31:09:809,-0.3972,2.1176,8.9157,40.259,-0.1508,0.0751,-0.233,346.327
19:31:09:830,-0.3709,2.3665,9.8345,38.6692,-0.1826,0.0605,-0.1218,346.4399
19:31:09:850,-0.1771,2.4742,10.5332,39.6576,-0.1215,0.0531,-0.0045,346.4031
19:31:09:872,-0.0909,2.6991,10.9711,39.3244,-0.0409,0.0055,0.0798,346.2731
19:31:09:889,-0.1651,3.0532,11.6698,37.5598,-0.0018,-0.0165,0.1543,346.0536
19:31:09:909,0.1125,3.0891,12.1436,38.3198,0.0398,0.0251,0.2362,345.7601
19:31:09:928,0.335,2.9839,12.1819,39.0743,0.1351,0.1313,0.2777,345.3895
19:31:09:948,0.0885,3.1178,12.3063,36.8717,0.1937,0.201,0.2386,345.072
19:31:09:969,-0.6078,3.0652,12.2417,37.3392,0.2292,0.2303,0.1445,344.8632
19:31:10:054,-1.7587,3.0054,12.1029,39.8753,0.2548,0.2083,0.037,344.8185
19:31:10:055,-2.5675,2.6058,11.9521,38.1884,0.2817,0.1277,0.0102,344.8499
19:31:10:064,-2.869,2.1966,11.9833,38.4646,0.3195,0.0409,0.0896,344.8348
19:31:10:064,-2.3857,1.5482,11.9737,36.2464,0.3672,-0.0739,0.2582,344.6212
19:31:10:076,-1.7252,1.0792,11.2941,35.4602,0.4735,-0.1423,0.4231,344.1964
19:31:10:089,-1.6223,1.1916,10.203,36.9621,0.6006,-0.0959,0.5111,343.6782
19:31:10:107,-1.4548,0.9308,9.3344,36.2493,0.5908,-0.1057,0.5001,343.1816
19:31:10:128,-1.5649,0.6867,9.3583,36.9597,0.3696,-0.2498,0.4133,342.8077
19:31:10:147,-1.3495,0.5216,10.0905,35.6677,0.0361,-0.383,0.3571,342.5205
19:31:10:170,-1.0863,0.3063,10.7151,36.8699,-0.1679,-0.2926,0.3498,342.2246
19:31:10:189,-0.6078,0.122,9.9518,34.604,-0.0811,0.0067,0.3864,341.8036
19:31:10:210,-0.0263,0.2871,8.4586,35.8819,0.1571,0.3097,0.4414,341.2234
19:31:10:228,0.1795,0.4953,7.1282,36.5483,0.2915,0.449,0.4084,340.6325
19:31:10:250,-0.9476,1.3041,6.3003,37.4851,0.1571,0.2767,0.2093,340.2194
19:31:10:273,-1.1031,1.5745,6.451,36.7106,0.0679,0.2034,0.2117,339.9514
19:31:10:291,-0.9547,1.8664,6.8291,36.4237,0.0337,0.1839,0.2569,339.4331
19:31:10:311,-0.8231,2.2038,7.2909,36.9296,0.0495,0.1484,0.2728,339.1338
19:31:10:329,-0.682,2.254,7.4895,37.3142,0.1058,0.0934,0.2337,338.8754
19:31:10:347,-0.8901,2.3617,7.7073,35.8191,0.118,0.0214,0.1617,338.7361
19:31:10:373,-1.0696,2.4503,8.2169,36.7599,0.0593,-0.0299,0.1213,338.6537
19:31:10:390,-1.1605,2.5149,8.8606,35.9457,0.0056,-0.036,0.1238,338.5716
19:31:10:409,-0.9165,2.6369,9.4373,34.7575,0.0239,0.0336,0.1555,338.437
19:31:10:439,-0.725,2.8259,9.7077,35.7932,0.0813,0.0812,0.1543,338.3001
19:31:10:454,-0.4235,2.7876,9.8632,37.0452,0.0593,0.0128,0.081,338.2386
19:31:10:467,-0.2847,2.4503,10.5787,37.0452,-0.1031,-0.1044,-0.0521,338.3297
19:31:10:493,-0.481,1.9023,11.5119,35.6904,-0.3157,-0.1924,-0.211,338.6085
19:31:10:507,-0.603,1.6558,12.4666,37.2686,-0.4721,-0.1998,-0.2745,338.97
19:31:10:531,0.0239,1.2634,12.8806,35.6904,-0.5308,-0.0812,-0.1963,339.1963
19:31:10:555,0.792,0.5432,12.9882,37.1441,-0.5869,0.1777,-0.1511,339.2619
19:31:10:582,0.7657,-0.3876,13.5171,37.2126,-0.7507,0.449,-0.2525,339.3574
19:31:10:588,-0.4068,-0.6939,14.0626,38.5811,-0.8863,0.6554,-0.3734,339.6195
19:31:10:607,-1.5386,-0.1196,13.8162,37.7653,-0.6908,0.8521,-0.2769,339.7762
19:31:10:626,-1.1653,0.0431,12.0742,39.3443,-0.1349,0.8363,0.0639,339.592
19:31:10:650,-0.1555,0.4068,9.7053,37.3117,0.3953,0.504,0.3584,339.0961
19:31:10:672,0.9667,0.5575,7.8676,39.3302,0.5248,0.0788,0.461,338.5277
19:31:10:693,1.6678,0.5671,7.4249,37.5282,0.2658,-0.135,0.3412,338.1165
19:31:10:710,0.7274,0.469,8.0877,38.0686,-0.3194,0.0458,-0.1657,337.9878
19:31:10:726,-0.1507,0.7011,7.8197,38.7038,-0.3157,0.1765,-0.3099,338.0834
19:31:10:749,-0.7322,0.9978,7.1689,38.5564,-0.1972,0.179,-0.3551,338.7847
19:31:10:770,-0.9165,1.3352,6.329,38.1723,-0.0921,0.1631,-0.3539,339.2255
19:31:10:791,-1.127,1.8329,6.1041,38.4002,-0.1264,0.179,-0.3661,339.6816
19:31:10:807,-0.9356,1.9095,6.6855,38.1497,-0.2998,0.1411,-0.4064,340.1614
19:31:10:826,-0.8662,1.9214,7.9059,37.2329,-0.4758,0.0556,-0.4749,340.6861
19:31:10:848,-0.9332,2.0961,9.2028,38.2647,-0.521,-0.0226,-0.5335,341.2943
19:31:10:866,-1.1868,2.266,10.2126,38.6441,-0.3683,-0.0153,-0.5591,341.9273
19:31:10:887,-1.5601,2.2899,10.6887,39.25,-0.0702,-0.0507,-0.5482,342.615
19:31:10:906,-1.7994,2.2923,10.1695,39.5526,0.3073,-0.1472,-0.4504,343.2148
19:31:10:927,-1.9095,2.8116,9.5689,39.4719,0.5456,-0.2193,-0.2757,343.6494
19:31:10:947,-1.584,3.1944,9.7603,40.7609,0.5395,-0.2535,-0.0668,343.8479
19:31:10:966,-0.8279,3.1585,10.1145,39.2556,0.443,-0.3121,0.0993,343.8292
19:31:10:987,-0.28,2.9839,10.3585,38.7355,0.3831,-0.3622,0.1739,343.7603
19:31:11:007,-0.201,2.9456,10.3753,38.8427,0.3073,-0.3464,0.1702,343.678
19:31:11:026,-0.6485,2.9982,10.3896,39.093,0.2316,-0.1875,0.1531,343.5998
19:31:11:047,-1.1844,3.1442,10.4064,38.9267,0.1497,-0.08,0.1543,343.5428
19:31:11:068,-1.5888,2.8594,10.2437,39.4358,0.063,-0.1216,0.1421,343.5178
19:31:11:088,-1.7324,2.1392,10.6528,39.871,-0.1215,-0.2242,0.0896,343.5615
19:31:11:108,-0.737,0.8136,11.8995,38.7355,-0.4318,-0.4136,0.026,343.6475
19:31:11:129,-0.3183,-0.0957,14.1607,39.0929,-0.7604,-0.6054,-0.0937,343.8644
19:31:11:150,-0.8662,-0.414,15.3667,39.4644,-0.8105,-0.6982,-0.2342,344.2643
19:31:11:171,-2.0483,-0.067,11.7727,40.0061,0.4833,-0.1643,0.0957,344.6618
19:31:11:191,-1.5051,0.5264,8.93,39.5858,1.1259,0.0605,0.3632,344.3173
19:31:11:209,-0.8997,1.1342,7.0995,40.3399,1.132,-0.0605,0.3889,343.9931
19:31:11:229,-0.3039,1.2467,7.3029,39.6725,0.5444,-0.2572,0.2728,343.8354
19:31:11:254,-0.2393,1.2299,8.7075,39.2978,-0.1056,-0.1631,0.1226,343.7891
19:31:11:270,-0.5384,1.3113,9.6096,40.2925,-0.356,0.069,-0.0008,343.8695
19:31:11:292,-0.6006,1.2969,9.4445,38.9254,-0.2021,0.179,-0.0631,344.0009
19:31:11:308,-0.4905,1.2275,8.9898,41.9571,0.1058,0.1448,-0.079,344.1447
19:31:11:328,-0.524,1.3807,8.5017,39.1536,0.3134,-0.0397,-0.0863,344.3261
19:31:11:356,-0.4618,1.4716,8.1332,40.3399,0.3953,-0.1985,-0.0741,344.5067
19:31:11:367,-0.4666,1.6558,7.9561,40.7972,0.421,-0.2218,-0.057,344.7054
19:31:11:388,-0.7274,1.8664,8.2122,37.8843,0.4332,-0.1863,-0.0228,344.8727
19:31:11:407,-1.0409,2.0076,8.5113,38.2279,0.4772,-0.168,0.0309,344.9396
19:31:11:427,-0.7944,2.1129,8.6285,38.5168,0.5444,-0.2169,0.092,344.9549
19:31:11:450,-0.2321,2.1392,8.7817,41.5872,0.5993,-0.2401,0.1494,344.8988
19:31:11:469,-0.1268,2.3521,8.997,41.0023,0.625,-0.1839,0.1543,344.8581
19:31:11:488,-0.1986,2.589,9.2794,41.3443,0.6299,-0.1252,0.1335,344.8243
19:31:11:509,-0.0694,2.5388,9.4421,40.4117,0.6372,-0.1545,0.0945,344.8692
19:31:11:530,0.1507,2.4287,9.6144,38.9552,0.6274,-0.2218,0.0444,344.9683
19:31:11:548,0.4283,2.5364,9.6766,41.5349,0.5541,-0.2963,-0.0033,345.1218
19:31:11:570,0.469,2.4694,9.7484,40.8864,0.4161,-0.3134,-0.0741,345.3598
19:31:11:587,0.1914,2.6034,9.8824,39.4459,0.2426,-0.267,-0.1633,345.7699
19:31:11:607,-0.0814,2.6848,10.1049,40.9178,0.0508,-0.2046,-0.1963,346.2061
19:31:11:627,1.0552,1.4572,11.7368,40.7873,-0.4428,-0.1704,-0.1511,346.5164
19:31:11:649,1.3807,0.7274,12.5838,40.6258,-0.6138,-0.1032,-0.1719,346.9706
19:31:11:668,0.8016,0.8207,12.4235,42.7078,-0.5381,0.0409,-0.1841,347.2077
19:31:11:690,0.7322,1.0744,11.3731,40.4117,-0.1948,0.2462,-0.0729,347.2755
19:31:11:707,1.1868,1.2467,9.9278,41.6521,0.1986,0.2486,0.0566,347.1617
19:31:11:727,1.7779,1.4094,8.5208,42.3415,0.3452,0.0336,0.0505,347.1363
19:31:11:753,2.2469,1.4237,7.8126,42.1449,0.1583,-0.0617,-0.0656,347.2133
19:31:11:769,2.0842,1.4955,7.7719,43.0397,-0.2119,0.0861,-0.2244,347.4319
19:31:11:787,1.3831,1.6463,8.0016,41.126,-0.5136,0.2877,-0.3844,347.8005
19:31:11:811,0.5408,1.7659,8.1404,42.6019,-0.5869,0.3317,-0.5078,348.3078
19:31:11:834,-0.2153,2.01,7.925,42.5231,-0.4623,0.2486,-0.5787,348.9459
19:31:11:848,-0.7466,2.1966,7.3795,43.4866,-0.2546,0.19,-0.5677,349.6224
19:31:11:868,-0.7466,2.3713,6.9176,41.0732,-0.0885,0.1777,-0.4834,350.2198
19:31:11:886,-0.603,2.6488,6.6951,41.6282,-0.0555,0.135,-0.382,350.6908
19:31:11:906,-0.5647,2.8881,6.9823,42.523,-0.1227,0.1167,-0.3148,351.0736
19:31:11:927,-0.5791,3.0437,7.681,42.9964,-0.2033,0.1093,-0.2904,351.4551
19:31:11:948,-0.7298,3.1274,8.7386,42.9964,-0.2607,0.0763,-0.2855,351.8408
19:31:11:968,-0.7705,3.015,9.667,41.5309,-0.2497,0.0348,-0.2574,352.2021
19:31:11:989,-0.7178,2.7637,10.1743,42.9913,-0.1276,0.0336,-0.1926,352.4933
19:31:12:007,-0.9308,2.9216,10.4303,42.0679,0.0227,0.0788,-0.1083,352.6821
19:31:12:030,-1.0289,3.1729,10.6816,43.0057,0.1082,0.1179,0.0163,352.7115
19:31:12:048,-0.6054,3.1298,10.8419,43.4931,0.1302,0.124,0.1568,352.5905
19:31:12:154,-0.055,3.0269,11.2415,44.445,0.1253,0.1386,0.2606,352.3349
19:31:12:155,0.268,3.1178,11.4568,44.9354,0.1118,0.3072,0.2533,352.0171
19:31:12:155,-0.8925,3.2495,10.9448,43.0397,0.1509,0.4917,0.1421,351.4099
19:31:12:155,-2.2493,3.3978,10.4662,44.5783,0.1571,0.5394,0.0541,351.3478
19:31:12:159,-3.149,3.4002,10.282,40.3298,0.1167,0.4624,0.07,351.2953
19:31:12:176,-2.7852,2.6273,10.7892,42.6251,0.0386,0.2926,0.169,351.1395
19:31:12:186,-2.1081,1.6295,11.4903,43.6534,-0.0616,-0.0031,0.2447,350.9738
19:31:12:205,-2.065,1.5314,11.6459,43.5941,-0.0409,-0.1912,0.3119,350.7781
19:31:12:230,-1.7922,1.7157,10.5835,43.1939,0.1937,-0.0861,0.4561,350.4055
19:31:12:250,-1.5936,1.6774,8.9922,44.5621,0.4772,0.0629,0.5294,349.9085
19:31:12:267,-1.5362,1.876,7.7575,42.6399,0.4943,-0.0189,0.4646,349.5228
19:31:12:287,-1.1127,1.809,7.5278,45.6574,0.1974,-0.168,0.3999,349.2344
19:31:12:307,-0.4068,1.4022,8.1978,43.5665,-0.229,-0.2437,0.3315,349.0076
19:31:12:330,-0.2919,1.2251,8.985,43.5941,-0.5503,-0.2046,0.2264,348.8927
19:31:12:348,-0.4235,1.2849,9.0401,44.1308,-0.5979,-0.0727,0.147,348.8223
19:31:12:367,-0.5216,1.474,8.1236,44.5667,-0.3573,0.0592,0.1262,348.7401
19:31:12:386,-0.8351,1.5673,6.7071,45.099,-0.0152,0.1777,0.1152,348.6642
19:31:12:421,-0.95,1.919,5.4748,44.0415,0.0569,0.0067,0.1726,348.5837
19:31:12:447,-0.5001,2.2373,6.3506,45.1142,-0.2595,-0.1875,0.2313,348.3864
19:31:12:453,-0.4331,2.3354,7.6427,44.1922,-0.5723,-0.2181,0.213,348.2132
19:31:12:469,-0.8901,2.3115,9.2028,44.2484,-0.6651,-0.1326,0.1262,348.2511
19:31:12:489,-1.3137,2.2995,9.9972,43.899,-0.4794,-0.1326,0.0859,348.2602
19:31:12:512,-1.3448,2.3761,10.069,42.25,-0.1471,-0.1668,0.1299,348.201
19:31:12:528,-1.0409,2.5531,9.9876,42.5299,0.0972,-0.2205,0.2105,348.0754
19:31:12:547,-0.3757,2.5292,9.9398,44.7794,0.1522,-0.2914,0.2435,347.877
19:31:12:567,0.1531,2.3234,10.1791,44.7794,0.0691,-0.3036,0.1824,347.8054
19:31:12:589,0.2321,2.1009,10.9376,46.6386,-0.0824,-0.2388,0.0529,347.8365
19:31:12:612,0.1531,1.8042,11.7105,44.62,-0.1826,-0.1362,-0.0485,347.9645
19:31:12:630,-0.0933,1.5745,12.0239,45.0462,-0.1703,-0.0483,-0.0961,348.1319
19:31:12:646,-0.2489,1.5506,12.1125,45.1142,-0.1312,-0.0531,-0.0863,348.3008
19:31:12:665,0.3757,1.2706,12.1914,45.061,-0.1606,-0.1485,-0.0081,348.3768
19:31:12:686,1.3352,0.658,12.6676,46.0621,-0.2571,-0.1998,0.0407,348.3839
19:31:12:705,1.6917,-0.012,13.1605,46.6874,-0.3377,-0.1093,-0.0362,348.443
19:31:12:727,1.0863,-0.0502,13.194,44.5968,-0.3279,0.0715,-0.1719,348.6267
19:31:12:746,0.725,0.1866,12.7131,46.0291,-0.1716,0.2511,-0.1841,348.8134
19:31:12:767,1.0385,0.2536,11.8205,46.0816,0.0886,0.2474,-0.1169,348.913
19:31:12:788,1.395,0.5862,10.5595,45.2827,0.2768,0.0947,-0.0937,348.999
19:31:12:808,1.742,0.7585,9.6168,44.8282,0.2817,0.0238,-0.1242,349.1064
19:31:12:831,1.8305,1.0361,8.918,45.0179,0.1302,0.0763,-0.2146,349.2994
19:31:12:849,1.7827,0.9978,8.5041,43.6477,-0.0372,0.1973,-0.3356,349.631
19:31:12:869,1.1725,1.072,8.2576,45.061,-0.1276,0.2401,-0.5054,350.1369
19:31:12:888,0.1603,1.2323,8.0423,44.1318,-0.1374,0.1863,-0.6569,350.8558
19:31:12:906,-0.6461,1.5697,7.7432,44.5152,-0.0738,0.1252,-0.6789,351.6309
19:31:12:927,-0.7226,1.7563,7.3866,45.0036,0.041,0.1191,-0.5701,352.3016
19:31:12:950,-0.3972,1.9525,6.9966,46.1258,0.1705,0.1472,-0.4358,352.8011
19:31:12:968,-0.3159,2.1823,6.719,44.5667,0.2377,0.157,-0.3551,353.1837
19:31:12:988,-0.2752,2.3426,6.8315,44.0503,0.2059,0.0861,-0.3344,353.5649
19:31:13:011,-0.2584,2.455,8.3462,45.9526,-0.0091,-0.0727,-0.3185,353.9796
19:31:13:030,-0.4283,2.6848,9.0186,46.4576,-0.0164,-0.0043,-0.2794,354.6742
19:31:13:046,-0.4475,2.6752,9.6479,44.0774,0.008,0.0153,-0.239,354.9634
19:31:13:067,-0.4475,2.5699,10.1815,44.0158,0.063,-0.0348,-0.2061,355.2128
19:31:13:086,-0.4331,2.5819,10.459,45.5353,0.1412,-0.1167,-0.1767,355.4595
19:31:13:108,-0.4403,2.6249,10.6074,44.0774,0.201,-0.1631,-0.1389,355.6591
19:31:13:129,-0.6987,2.9288,10.6768,45.0036,0.2047,-0.058,-0.0937,355.7932
19:31:13:151,-0.7872,2.9982,10.6887,45.5048,0.1864,0.1765,-0.0289,355.8169
19:31:13:167,-1.0457,3.0939,10.6026,44.0335,0.1656,0.317,0.0163,355.7684
19:31:13:187,-1.4477,3.1992,10.6265,44.5727,0.1265,0.273,0.0322,355.7292
19:31:13:207,-1.8449,3.6993,10.6217,45.488,0.0703,0.1716,0.0468,355.7008
19:31:13:227,-1.6056,3.3021,10.8084,45.2323,0.0105,0.0983,0.0468,355.6815
19:31:13:248,-0.5408,1.4022,11.9689,45.5823,-0.0995,-0.1326,-0.0619,355.7703
19:31:13:266,-0.28,-0.2321,13.5817,43.5331,-0.2302,-0.719,-0.2781,356.2265
19:31:13:287,-1.4429,0.3159,14.2182,44.0079,-0.2168,-1.248,-0.4089,356.9841
19:31:13:306,-2.1368,0.7178,13.2419,44.5362,0.1497,-1.0354,-0.2635,357.5516
19:31:13:327,-1.9549,0.7155,10.8036,43.5315,0.7581,-0.526,0.0444,357.6684
19:31:13:347,-1.5793,1.273,8.3988,45.6208,1.1369,-0.3415,0.2912,357.4993
19:31:13:368,-0.5575,1.7061,6.8794,41.3081,1.0025,-0.3341,0.4854,357.0961
19:31:13:386,0.2823,1.7635,6.3912,43.606,0.5321,-0.1704,0.5624,356.5569
19:31:13:411,0.4355,1.7611,6.4582,44.5401,0.0605,0.157,0.494,355.9947
19:31:13:425,0.1149,1.8066,6.7789,45.0264,-0.2204,0.4001,0.3718,355.4999
19:31:13:445,0.1436,1.7779,6.92,46.6576,-0.2852,0.3561,0.2985,355.1083
19:31:13:465,-0.3087,2.2277,6.7549,45.7156,-0.1142,0.0189,0.1885,354.8114
19:31:13:485,-0.3206,2.2971,6.7525,44.3841,-0.097,-0.0165,0.1653,354.4642
19:31:13:506,-0.1986,2.1942,6.8626,45.7658,-0.1422,-0.0018,0.147,354.3332
19:31:13:527,-0.3565,2.2732,7.4943,45.7658,-0.2327,0.0018,0.1323,354.2089
19:31:13:548,-0.4451,2.2804,8.2672,45.7658,-0.3145,-0.0409,0.1152,354.1162
19:31:13:566,-0.4164,2.0961,9.0066,45.7658,-0.3182,-0.047,0.0896,354.0508
19:31:13:587,-0.4475,1.9382,9.6383,45.7658,-0.2803,-0.0434,0.0688,354.0069
19:31:13:608,-0.4762,2.1488,10.3657,44.7945,-0.2461,-0.0605,0.0847,353.9506
19:31:13:631,-0.2967,2.3593,10.7821,43.2666,-0.141,-0.0666,0.136,353.8216
19:31:13:649,0.134,2.2301,10.6959,43.7234,0.0495,-0.0886,0.1433,353.6535
19:31:13:667,0.4953,2.0794,10.55,45.1034,0.1559,-0.1717,0.0737,353.6022
19:31:13:685,0.3852,2.0937,10.672,45.1905,0.0874,-0.2059,-0.0387,353.6925
19:31:13:706,0.524,1.8879,11.1147,44.1563,-0.0653,-0.1668,-0.0949,353.8343
19:31:13:726,0.5049,1.9836,11.8277,45.6933,-0.196,-0.1375,-0.0925,353.9655
19:31:13:748,0.5719,2.1033,12.4427,44.6711,-0.2485,-0.1753,-0.0778,354.0736
19:31:13:765,1.2443,1.7204,12.7585,45.0372,-0.2229,-0.2413,-0.0497,354.178
19:31:13:786,2.1152,0.9978,12.8853,44.1371,-0.1984,-0.2828,-0.0509,354.2541
19:31:13:811,2.3186,0.5384,12.9404,45.5421,-0.251,-0.1167,-0.0973,354.3208
19:31:13:829,1.6056,0.7849,12.7059,45.19,-0.262,0.2217,-0.1034,354.3576
19:31:13:846,1.596,0.7681,12.1986,43.8283,-0.0763,0.3818,-0.0265,354.2576
19:31:13:868,1.9095,0.9308,11.3468,45.5465,0.1656,0.1985,0.0102,354.1396
19:31:13:886,2.4191,1.0863,10.4351,46.2012,0.2853,-0.0312,-0.0191,354.1118
19:31:13:912,2.9743,1.1031,9.6096,44.2215,0.2524,-0.0592,-0.0863,354.1325
19:31:13:927,2.6369,1.1127,8.4395,45.124,-0.0616,0.2229,-0.3551,354.5115
19:31:13:950,1.8066,1.2132,8.0327,45.1305,-0.1337,0.2621,-0.5274,354.9599
19:31:13:966,0.9715,1.3137,7.3077,44.6909,-0.0457,0.2767,-0.6532,355.5777
19:31:13:985,0.2776,1.4453,6.4798,46.1431,0.1412,0.2914,-0.6752,356.2228
19:31:14:004,0.067,1.8736,5.7906,46.268,0.2646,0.2254,-0.6092,356.8206
19:31:14:024,0.2513,2.0937,5.3719,44.63,0.2462,0.1264,-0.5054,357.3036
19:31:14:045,0.1268,2.5938,5.5131,45.6345,0.1045,0.0702,-0.4602,357.7781
19:31:14:065,-0.0072,2.9001,6.0778,44.6662,-0.086,0.0519,-0.4773,358.2612
19:31:14:087,-0.2297,2.9743,6.9535,45.0788,-0.2449,0.036,-0.5066,358.7806
19:31:14:107,-0.457,2.991,8.1835,46.0459,-0.356,-0.0202,-0.531,359.3488
19:31:14:128,-0.6389,2.7637,9.2148,44.1147,-0.3609,-0.0764,-0.5188,359.9166
19:31:14:145,-0.9643,2.7805,10.0642,47.0975,-0.2693,-0.1179,-0.4577,0.438
19:31:14:267,-0.8399,2.8953,10.7366,46.9884,-0.1435,-0.1765,-0.3209,0.8483
19:31:14:268,-0.2249,2.9312,11.2822,46.9884,0.0007,-0.2425,-0.1535,1.0455
19:31:14:270,0.0359,3.0724,11.2845,46.4384,0.1485,-0.3683,-0.0827,1.1852
19:31:14:270,-0.2153,3.2925,11.1314,45.9815,0.2536,-0.3219,-0.0766,1.3302
19:31:14:271,-0.4857,3.1322,11.3181,42.6019,0.2511,-0.1167,-0.0204,1.379
19:31:14:271,-0.6126,2.9312,11.3133,45.5421,0.1925,0.0202,0.1042,1.2539
19:31:14:287,-1.1677,3.2399,11.263,43.6301,0.1412,0.0983,0.2447,0.9677
19:31:14:308,-1.4165,3.2734,11.2606,45.6443,0.0777,0.1667,0.3669,0.551
19:31:14:326,-0.5192,2.0291,11.9258,46.1584,-0.0262,0.0898,0.4133,0.0823
19:31:14:345,0.0024,0.8303,12.9571,46.0925,-0.2155,-0.2706,0.2533,359.8409
19:31:14:365,-0.4355,0.4307,13.596,44.965,-0.3585,-0.5504,0.0444,359.8956
19:31:14:387,-2.2325,0.591,11.6889,45.0828,0.2145,0.1118,0.2215,359.9747
19:31:14:409,-1.6032,0.8088,10.0499,45.2788,0.5529,0.1301,0.4866,359.2587
19:31:14:424,-0.6197,1.1127,8.8343,47.5029,0.625,0.069,0.6723,358.5115
19:31:14:444,0.0574,1.2945,8.0447,46.2441,0.5211,0.1704,0.709,357.7037
19:31:14:464,0.4283,1.3424,7.3508,47.2586,0.3855,0.3414,0.6137,356.9386
19:31:14:485,0.414,1.3974,6.6377,45.329,0.2841,0.4465,0.4573,356.3116
19:31:14:506,0.079,1.4692,6.3386,46.266,0.1827,0.4514,0.2997,355.8646
19:31:14:527,-0.5001,1.5242,6.4893,46.4163,0.0373,0.3085,0.1702,355.6035
19:31:14:548,-0.6676,1.5434,6.8937,46.4163,-0.1117,0.1057,0.1152,355.4536
19:31:14:566,-0.6078,1.5123,7.2885,46.8538,-0.1789,0.0971,0.169,355.2485
19:31:14:585,-0.5599,1.7779,7.5733,46.268,-0.1545,0.218,0.2386,354.9393
19:31:14:607,-0.5958,2.0483,7.9848,47.1043,-0.1129,0.2437,0.2777,354.5863
19:31:14:627,-0.5575,2.4096,8.4754,46.882,-0.0689,0.1386,0.2899,354.2338
19:31:14:648,-0.2847,2.4766,8.6644,45.9673,0.0141,0.0006,0.2899,353.9327
19:31:14:666,-0.2752,2.5436,8.8678,45.1831,0.1033,-0.0458,0.2594,353.6633
19:31:14:685,-0.4666,2.7805,9.0664,46.7689,0.1302,-0.0654,0.2301,353.422
19:31:14:707,-0.5408,2.9551,9.4158,47.1043,0.1241,-0.0959,0.2423,353.1811
19:31:14:725,-0.2201,2.7733,9.8752,47.3148,0.1228,-0.146,0.2533,352.9418
19:31:14:745,-0.0096,2.6824,10.5308,45.1852,0.0948,-0.2388,0.2105,352.7906
19:31:14:766,0.4475,2.3378,10.9567,47.5564,0.0349,-0.2914,0.1445,352.6877
19:31:14:785,0.8303,2.0746,11.2558,46.8004,-0.014,-0.2718,0.1018,352.6244
19:31:14:806,1.084,2.077,11.3252,46.8905,-0.0433,-0.2889,0.07,352.5842
19:31:14:827,1.2706,2.2301,11.4281,44.5992,-0.0311,-0.4246,0.0395,352.6006
19:31:14:847,2.5723,1.4668,11.878,47.6836,0.0068,-0.7312,-0.0338,352.699
19:31:14:866,2.8499,0.9667,12.1101,48.3266,-0.0616,-0.6066,-0.1169,353.0829
19:31:14:892,1.9932,1.1151,12.055,45.8122,-0.1508,-0.2486,-0.1902,353.3061
19:31:14:911,1.3783,1.3519,11.6746,47.4381,-0.13,0.1081,-0.1462,353.4121
19:31:14:928,1.4931,1.2873,11.1314,45.4932,0.008,0.2511,-0.0094,353.331
19:31:14:948,2.1583,1.1868,10.5069,45.6363,0.1033,0.0983,0.0761,353.1656
19:31:14:965,2.9408,0.7992,10.1527,47.4174,0.0838,-0.1582,0.0297,353.0798
19:31:14:985,3.0724,0.4881,10.1551,45.9189,-0.1007,-0.2718,-0.1621,353.2385
19:31:15:006,2.2995,0.4594,10.1982,47.7651,-0.356,-0.1252,-0.3368,353.5654
19:31:15:029,0.9954,0.725,9.7651,46.2441,-0.4525,0.1362,-0.4272,353.9933
19:31:15:046,0.134,0.9117,8.8271,47.4859,-0.273,0.2828,-0.4138,354.3744
19:31:15:066,-0.1149,1.194,7.468,46.3988,0.041,0.2694,-0.3209,354.6554
19:31:15:090,-0.2393,1.6965,6.2381,47.3134,0.2719,0.1973,-0.2036,354.8301
19:31:15:108,-0.1101,2.1248,5.3695,46.7874,0.3159,0.1826,-0.09,354.8899
19:31:15:125,0.2034,2.4646,5.0321,45.6857,0.1998,0.2975,-0.0094,354.8252
19:31:15:145,0.4498,2.7517,5.1661,44.7264,-0.0225,0.4954,0.0236,354.6519
19:31:15:166,0.3948,3.1322,5.8768,45.9189,-0.2803,0.6677,0.0016,354.4661
19:31:15:188,0.1101,3.3715,6.9392,45.8306,-0.477,0.7471,-0.0863,354.3789
19:31:15:206,-0.2345,3.3093,7.7743,46.6782,-0.5491,0.7874,-0.1865,354.3988
19:31:15:225,-0.8351,3.3428,8.2863,47.0225,-0.5405,0.8973,-0.1963,354.4169
19:31:15:245,-1.06,3.3643,8.4395,45.708,-0.5258,1.1172,-0.0753,354.2822
19:31:15:266,-0.8303,3.259,9.2315,46.0401,-0.6004,1.3347,0.0859,353.9211
19:31:15:286,-0.4786,2.79,11.0596,46.3554,-0.7433,1.2529,0.1739,353.4636
19:31:15:308,-0.7059,2.3904,14.2612,45.9852,-0.5869,0.1924,0.048,353.0401
19:31:15:325,-1.7348,2.4814,13.8209,47.1156,-0.0579,-0.0226,0.0138,353.0156
19:31:15:346,-2.3976,2.546,12.1579,46.6179,0.6164,0.1411,0.1116,352.8752
19:31:15:364,-2.5412,2.6824,10.1623,47.6871,1.0086,0.3586,0.2557,352.5457
19:31:15:386,-2.3976,2.6488,9.6837,44.5123,0.8412,0.4099,0.3058,352.1478
19:31:15:405,-1.9501,1.8927,10.8467,45.7596,0.2169,0.1863,0.2178,351.8713
19:31:15:427,-1.584,0.5049,13.0983,45.216,-0.4525,-0.1448,0.0346,351.8383
19:31:15:446,-2.4574,-0.0072,14.6967,45.0797,-0.7543,-0.3928,-0.1462,352.085
19:31:15:470,-3.2279,-0.0861,13.9047,47.1749,-0.4892,-0.306,-0.0582,352.2202
19:31:15:490,-2.8666,-0.146,11.7392,47.0389,0.2536,0.2242,0.3718,351.7997
19:31:15:512,-1.9573,0.2249,9.2459,45.7404,0.8877,0.5162,0.7615,350.8913
19:31:15:525,-0.9619,0.6772,7.5685,47.2056,0.9634,0.3573,0.8544,349.8933
19:31:15:543,-0.2034,0.9571,7.0732,45.1917,0.5505,0.069,0.7066,349.0947
19:31:15:566,-0.0168,0.804,7.5829,46.7002,-0.0005,-0.1118,0.4182,348.6448
19:31:15:586,-0.5121,0.603,8.1356,46.5488,-0.3622,-0.157,0.1067,348.5517
19:31:15:604,-0.9332,0.3302,8.2935,46.3398,-0.4635,-0.1093,-0.0558,348.6394
19:31:15:624,-1.3687,0.3613,8.1428,45.7233,-0.4122,-0.0861,-0.0534,348.7138
19:31:15:644,-1.7061,1.0265,7.8628,46.5256,-0.3328,-0.1326,0.0676,348.694
19:31:15:665,-1.5123,1.584,7.3436,46.3689,-0.2241,-0.1509,0.2912,348.4327
19:31:15:685,-1.0624,2.0578,6.6999,46.7002,-0.0457,-0.0531,0.5001,347.9107
19:31:15:705,-0.8471,2.5268,6.128,47.2794,0.0728,0.1191,0.6076,347.2323
19:31:15:726,-0.6724,2.936,5.9438,45.1917,0.0239,0.2498,0.6271,346.5044
19:31:15:745,-0.4092,3.1657,6.1998,44.3185,-0.1031,0.2804,0.5819,345.8251
19:31:15:768,-0.926,3.2064,8.0542,44.539,-0.3768,-0.0006,0.1311,345.3458
19:31:15:787,-1.4381,2.991,9.0927,44.2949,-0.4306,-0.1973,-0.1157,345.3553
19:31:15:804,-1.5816,2.6441,10.416,45.503,-0.3719,-0.3317,-0.2366,345.6947
19:31:15:826,-1.3208,2.1535,11.397,45.5783,-0.24,-0.4917,-0.2953,346.1219
19:31:15:844,-0.8327,1.596,11.6674,44.9319,-0.0775,-0.5406,-0.3673,346.6101
19:31:15:866,-0.1795,1.1892,12.1675,44.9166,-0.0628,-0.482,-0.4577,347.1743
19:31:15:886,0.3278,0.9954,13.4381,44.4769,-0.1972,-0.3683,-0.5518,347.7956
19:31:15:906,-0.1603,1.2443,14.455,44.7909,-0.2424,-0.3525,-0.6715,348.5467
19:31:15:924,-0.4642,1.0385,14.7542,43.7045,-0.0702,-0.5968,-0.7656,349.4528
19:31:15:944,0.0646,0.28,13.9861,44.7486,0.2365,-0.9499,-0.7595,350.4148
19:31:15:964,0.3852,-0.4235,12.9547,41.2609,0.3965,-0.9841,-0.7338,351.341
19:31:15:984,-0.2417,-0.6604,12.3159,42.3068,0.2658,-0.5614,-0.718,352.2061
19:31:16:005,-1.3926,-0.457,12.0885,43.6086,0.0569,0.0629,-0.5457,352.7953
19:31:16:025,-1.4836,-0.2297,11.6291,43.6086,0.0728,0.5015,-0.0607,352.8029
19:31:16:044,-0.8782,0.1938,10.873,41.7767,0.3623,0.5369,0.4475,352.2387
19:31:16:065,0.2608,0.3254,9.3655,41.7863,0.7154,0.2816,0.731,351.3741
19:31:16:086,1.6463,0.4116,7.882,44.0036,0.8522,0.0153,0.7847,350.4661
19:31:16:107,2.3521,0.658,7.1952,43.8978,0.6433,0.0031,0.6149,349.7317
19:31:16:128,1.7635,1.0768,7.1354,43.7033,0.2682,0.229,0.2875,349.3286
19:31:16:145,0.469,1.4572,7.3603,43.3871,0.0031,0.3952,-0.0815,349.3073
19:31:16:164,-0.5671,1.5769,7.3771,43.8425,-0.0335,0.3195,-0.3233,349.612
19:31:16:185,-0.8829,1.5506,6.7262,43.483,0.1167,0.1289,-0.3588,349.9832
19:31:16:204,-0.6604,1.8042,6.1472,42.1215,0.2621,-0.0055,-0.2598,350.2862
19:31:16:225,-0.0502,2.6249,6.3194,43.4463,0.0972,0.0311,-0.1902,350.5029
19:31:16:247,0.0072,2.747,6.8243,41.9792,-0.0763,0.1081,-0.3087,350.9938
19:31:16:270,-0.536,2.7996,7.858,43.6239,-0.2607,0.1167,-0.5091,351.5287
19:31:16:389,-1.151,2.735,9.2961,42.3434,-0.356,0.0702,-0.6373,352.2184
19:31:16:390,-1.2108,2.4981,10.1934,41.3513,-0.2901,-0.0324,-0.5909,352.8904
19:31:16:391,-1.1438,2.4909,10.6433,43.1311,-0.1044,-0.0287,-0.4162,353.3568
19:31:16:391,-1.3161,2.9193,10.6337,40.6287,0.0911,0.102,-0.1792,353.5442
19:31:16:391,-0.9715,3.2806,10.1384,41.5756,0.2572,0.2168,0.0993,353.37
19:31:16:392,-0.2608,3.5079,9.7962,42.0981,0.3257,0.135,0.318,352.98
19:31:16:411,0.4857,3.5653,10.0355,41.4515,0.245,0.0067,0.4097,352.4951
19:31:16:424,0.4977,3.6514,10.5763,41.265,0.1265,0.0202,0.3449,352.0859
19:31:16:444,-0.2273,3.7711,10.8036,41.4515,0.0618,0.0788,0.1775,351.8478
19:31:16:465,-1.0576,3.7232,10.5787,40.7708,0.0495,0.0922,0.0456,351.786
19:31:16:484,-1.5864,3.594,10.3609,42.408,0.0068,0.0482,-0.0045,351.8012
19:31:16:505,-1.7922,3.216,10.8682,42.2304,-0.1215,-0.0275,-0.0179,351.8559
19:31:16:525,-1.6391,2.5962,11.8277,41.0328,-0.2644,-0.1497,-0.0387,351.9479
19:31:16:545,-1.3065,1.651,12.8782,41.935,-0.3206,-0.3183,-0.0937,352.1238
19:31:16:564,-1.4548,1.206,13.6487,39.2366,-0.262,-0.5418,-0.1755,352.4596
19:31:16:588,-1.9047,0.9428,13.0409,42.0356,-0.0018,-0.6066,-0.1987,352.8392
19:31:16:604,-2.2205,0.7442,11.1673,42.8906,0.399,-0.4417,-0.1242,353.1225
19:31:16:625,-2.0052,0.8829,9.4493,40.7582,0.5908,-0.3048,0.026,353.2049
19:31:16:645,-1.5745,1.127,8.6285,40.6867,0.4478,-0.201,0.1592,353.1173
19:31:16:669,-0.9715,1.0528,8.4467,40.9327,0.2096,-0.0629,0.2081,352.9373
19:31:16:686,-0.2058,0.926,7.5422,40.1868,0.0031,0.1154,0.0798,352.7305
19:31:16:712,-0.5408,0.993,7.2191,40.9871,-0.086,0.1374,-0.0472,352.6329
19:31:16:724,-1.0792,1.0433,7.1569,42.8463,-0.1887,0.1338,-0.1413,352.7863
19:31:16:744,-1.4668,1.1533,7.1306,42.3096,-0.2265,0.1435,-0.1157,352.9012
19:31:16:765,-1.4237,1.4309,7.0014,41.8003,-0.2046,0.157,0.0065,352.8813
19:31:16:786,-1.2562,1.8712,6.9368,41.4624,-0.1581,0.1924,0.1348,352.7195
19:31:16:805,-1.3208,2.2636,6.7908,41.3866,-0.1007,0.2327,0.1861,352.4742
19:31:16:825,-1.5912,2.5986,6.743,40.6099,-0.0616,0.2071,0.1824,352.27
19:31:16:845,-1.8688,2.6967,7.3531,40.727,-0.0958,0.0861,0.1568,352.1063
19:31:16:866,-1.7013,2.479,8.4634,39.9762,-0.196,-0.0727,0.1678,351.9835
19:31:16:886,-1.3017,2.3282,9.5258,42.9434,-0.2669,-0.1619,0.2227,351.8012
19:31:16:904,-1.0457,2.3713,10.5093,41.3505,-0.2754,-0.1154,0.2631,351.5542
19:31:16:924,-0.8638,2.3402,11.1888,39.4362,-0.1716,-0.0165,0.2765,351.2639
19:31:16:944,-0.5408,2.1799,11.1649,39.3313,-0.0018,-0.0617,0.2496,351.0028
19:31:16:967,0.201,1.7611,11.1577,40.9202,0.0532,-0.2388,0.1958,350.8271
19:31:16:987,0.8782,1.3256,11.4855,40.1966,-0.0714,-0.3952,0.1042,350.7616
19:31:17:004,0.5886,1.2849,12.335,41.2495,-0.2742,-0.3781,-0.0472,350.8741
19:31:17:024,0.1771,1.3065,13.1198,40.1966,-0.411,-0.3048,-0.145,351.0771
19:31:17:044,0.7896,0.8399,13.3783,42.4069,-0.378,-0.2682,-0.0986,351.208
19:31:17:068,1.584,0.347,13.3807,41.5266,-0.2791,-0.2779,-0.0375,351.2619
19:31:17:088,1.4501,0.0838,13.2347,41.0193,-0.1948,-0.2046,-0.0815,351.3422
19:31:17:104,0.6054,0.2513,12.4379,39.5145,-0.0176,0.0214,-0.1438,351.4711
19:31:17:124,0.3613,0.347,10.9902,40.7259,0.2829,0.2156,-0.068,351.4946
19:31:17:143,1.3759,0.5599,8.6166,40.6335,0.4161,-0.0263,0.0871,351.364
19:31:17:164,1.919,0.3446,8.6213,41.2495,0.0899,-0.1643,-0.0167,351.2437
19:31:17:186,1.864,0.1675,9.4205,41.0743,-0.2888,-0.1277,-0.2,351.425
19:31:17:205,1.3567,0.2513,9.8536,41.1584,-0.4745,0.0373,-0.3515,351.7638
19:31:17:224,0.5001,0.5192,9.4828,40.1151,-0.3658,0.1472,-0.4406,352.1948
19:31:17:244,-0.1316,0.7657,8.3533,40.9339,-0.0836,0.1289,-0.4614,352.6672
19:31:17:267,-0.3733,0.8853,6.8674,42.2304,0.1852,0.0922,-0.4101,353.1037
19:31:17:288,-0.4546,1.1198,5.4963,40.2087,0.3073,0.0983,-0.3331,353.4361
19:31:17:305,-0.3135,1.2634,4.8431,40.1111,0.1888,0.0959,-0.2891,353.7209
19:31:17:324,-0.414,1.5051,5.3264,40.0288,-0.1606,0.1057,-0.3087,354.041
19:31:17:344,-0.9308,1.5529,6.4415,41.7896,-0.5735,0.3048,-0.3795,354.4141
19:31:17:364,-1.797,1.7396,7.7862,40.4047,-0.8704,0.6786,-0.4333,354.8199
19:31:17:385,-1.7683,1.6319,9.6503,41.0767,-0.9877,0.9144,-0.3673,355.1204
19:31:17:403,-1.1055,1.8353,11.5597,42.0382,-0.8875,0.7275,-0.2024,355.2445
19:31:17:424,-0.5767,2.1105,12.5097,40.4901,-0.4929,0.2669,-0.1144,355.3179
19:31:17:445,-0.8877,2.2899,11.6866,41.4505,0.0544,-0.0666,-0.1633,355.4952
19:31:17:468,-1.5362,2.5699,10.3107,40.5861,0.4295,-0.102,-0.1792,355.6833
19:31:17:489,-1.4931,2.8786,9.6048,40.5861,0.4723,0.0018,-0.024,355.7108
19:31:17:505,-0.8327,2.9695,9.9996,39.7313,0.2499,0.1252,0.1873,355.4731
19:31:17:523,-0.0431,2.8499,11.3396,41.4042,-0.0164,0.2046,0.2802,355.0926
19:31:17:545,0,2.8499,12.5456,41.2816,-0.0934,0.2144,0.2105,354.7735
19:31:17:567,-0.8231,2.8116,12.3039,39.8494,0.0752,0.1533,0.0456,354.6732
19:31:17:593,-1.9334,2.546,11.196,40.4489,0.3208,0.0592,-0.09,354.9045
19:31:17:604,-2.5795,1.6367,10.9591,40.8296,0.2634,-0.1057,-0.0191,354.9759
19:31:17:628,-2.613,1.2514,11.6291,40.97,0.1681,-0.1411,0.0932,354.9131
19:31:17:649,-2.8187,0.8853,11.6483,40.6561,0.1888,-0.2474,0.1739,354.8072
19:31:17:665,-3.2255,0.9404,10.5787,40.7149,0.3049,-0.2315,0.2912,354.5783
19:31:17:684,-3.0437,1.1342,9.0784,41.1672,0.3953,0.0543,0.5013,354.065
19:31:17:704,-2.6584,1.3065,8.1069,40.9296,0.2744,0.3414,0.6381,353.3468
19:31:17:723,-2.2923,1.4453,8.284,40.9525,-0.086,0.4746,0.6418,352.5799
19:31:17:743,-1.8616,1.6032,9.1262,40.5948,-0.4159,0.576,0.6174,351.8139
19:31:17:763,-1.0193,1.3974,9.4756,40.416,-0.4684,0.653,0.5893,351.0449
19:31:17:783,-0.5695,1.2108,9.1119,42.6288,-0.317,0.5357,0.4915,350.3843
19:31:17:803,-0.201,0.9093,8.5256,42.64,-0.163,0.2853,0.3461,349.9363
19:31:17:823,-0.134,0.457,8.2887,41.5226,-0.0995,0.0825,0.2044,349.6799
19:31:17:845,-0.5216,0.4044,8.8439,42.4902,-0.1606,-0.08,0.0798,349.5776
19:31:17:863,-1.0959,0.658,9.4684,42.6746,-0.2143,-0.1668,0.0334,349.5537
19:31:17:888,-1.4548,0.8471,9.3775,42.7785,-0.0665,-0.0092,0.0969,349.4599
19:31:17:904,-1.3663,1.3113,8.54,42.3311,0.2352,0.2633,0.2606,349.1393
19:31:17:925,-0.8159,1.7348,7.5398,42.6578,0.5065,0.3341,0.3974,348.6458
19:31:17:948,-0.3757,1.876,7.1091,44.2216,0.581,0.1521,0.3437,348.2202
19:31:17:969,-0.8327,1.6391,7.4417,42.9953,0.4588,-0.0874,0.103,348.1119
19:31:17:984,-1.5553,1.4788,8.3629,42.4663,0.2792,-0.2156,-0.1303,348.2876
19:31:18:004,-1.998,1.6223,9.2698,43.1008,0.1888,-0.2254,-0.1914,348.5593
19:31:18:022,-1.5577,1.4022,9.6574,42.1792,0.2145,-0.1375,-0.1389,348.737
19:31:18:044,-1.2227,1.0959,10.1216,43.9226,0.1949,-0.1558,-0.1572,348.9474
19:31:18:062,-1.4333,0.4834,11.153,43.1074,-0.0494,-0.2804,-0.36,349.735
19:31:18:088,-1.9454,0.414,11.5119,43.5888,-0.1532,-0.2315,-0.404,350.2375
19:31:18:103,-2.0172,0.39,11.744,42.8411,-0.1862,-0.1485,-0.3001,350.6085
19:31:18:122,-1.2084,0.323,12.1196,43.7396,-0.2058,-0.1277,-0.0912,350.7368
19:31:18:142,-0.1101,0.2321,12.5623,43.9241,-0.2106,-0.0849,0.1079,350.5903
19:31:18:162,0.4642,0.1484,12.3302,44.3982,-0.1093,0.124,0.213,350.2941
19:31:18:183,0.4403,0.5647,11.0668,43.4115,0.1058,0.3818,0.2521,349.9152
19:31:18:203,0.7705,0.8016,9.7819,44.7528,0.278,0.493,0.2802,349.4575
19:31:18:223,1.0983,1.1486,9.0879,44.2683,0.2084,0.2645,0.1983,349.1621
19:31:18:244,1.4477,0.859,9.3942,42.0161,-0.1276,-0.1264,-0.0411,349.1721
19:31:18:265,1.2969,0.414,10.5212,44.4078,-0.5564,-0.2779,-0.316,349.5179
19:31:18:287,0.6461,0.4905,11.9761,43.623,-0.8496,-0.19,-0.5017,350.0633
19:31:18:306,-0.1029,0.5025,12.2417,46.394,-0.758,-0.0739,-0.5714,350.6681
19:31:18:324,-1.2203,0.9141,11.0477,44.9392,-0.3096,-0.025,-0.5482,351.2506
19:31:18:345,-1.6798,1.1701,8.7266,44.8748,0.2304,0.0067,-0.4064,351.7138
19:31:18:364,-1.8688,1.5553,6.8052,45.7291,0.5529,-0.0006,-0.2366,352.0044
19:31:18:384,-1.3854,1.7444,6.2692,45.6549,0.4943,-0.1423,-0.0692,352.1234
19:31:18:491,-0.6389,1.9214,6.853,45.2042,0.256,-0.2352,0.0627,352.1001
19:31:18:492,-0.256,2.2469,7.7288,46.0841,0.1045,-0.1704,0.0749,352.0407
19:31:18:493,-0.0431,2.3737,8.083,44.776,0.1449,-0.0739,-0.0033,352.0475
19:31:18:493,-0.2273,2.3737,8.0518,44.3793,0.3,-0.1044,-0.1157,352.1774
19:31:18:493,-0.4331,2.4981,7.8939,43.5726,0.4246,-0.2828,-0.1914,352.3961
19:31:18:509,-0.5527,2.7302,7.8844,45.4939,0.4527,-0.46,-0.2097,352.6626
19:31:18:523,-0.2871,2.747,8.1715,45.2323,0.2817,-0.4685,-0.1902,353.2815
19:31:18:542,-0.0335,2.7637,9.0425,44.0491,0.1033,-0.3293,-0.1682,353.5443
19:31:18:563,-0.0766,2.9264,9.7531,45.8762,-0.036,-0.1851,-0.1487,353.7228
19:31:18:584,-0.5623,3.2638,10.3059,46.3013,-0.0494,-0.0385,-0.1462,353.8862
19:31:18:602,-1.0265,3.3691,10.8682,47.0431,0.0105,-0.0018,-0.145,354.0574
19:31:18:624,-1.0768,3.2471,10.9543,45.3123,0.1192,-0.0165,-0.1328,354.1967
19:31:18:647,-1.2562,3.2925,11.0405,45.7976,0.1852,-0.0006,-0.0925,354.312
19:31:18:667,-1.5075,3.4529,11.0285,46.2777,0.1949,0.0837,-0.0118,354.3268
19:31:18:684,-1.541,3.0437,11.1171,48.2021,0.1583,0.1557,0.0603,354.2488
19:31:18:703,-1.8018,2.7302,11.4903,48.2742,0.1021,0.1484,0.0993,354.1378
19:31:18:724,-1.3328,1.7252,11.9378,46.8404,0.0984,0.0434,0.136,354.0019
19:31:18:746,-0.7609,0.5145,12.0048,45.6646,0.1742,-0.1851,0.1397,353.8933
19:31:18:766,-1.1318,0.3565,11.5334,48.3134,0.2609,-0.4001,0.1042,353.869
19:31:18:784,-1.6104,0.658,10.6792,47.2333,0.333,-0.3549,0.147,353.8193
19:31:18:802,-1.5769,0.8136,9.6024,46.5223,0.4112,-0.146,0.2704,353.6017
19:31:18:823,-1.4046,1.0074,8.7123,49.1644,0.3929,-0.0458,0.3193,353.2842
19:31:18:848,-0.8686,1.1414,8.6261,49.3189,0.1839,-0.0592,0.3156,352.9897
19:31:18:867,-0.3278,1.0026,9.4062,48.4168,-0.1203,-0.0507,0.2521,352.735
19:31:18:883,-0.2608,0.7035,9.6335,48.9356,-0.2497,0.0873,0.1372,352.5653
19:31:18:904,-0.6413,0.7872,9.009,48.8652,-0.1716,0.2779,0.0737,352.4275
19:31:18:923,-1.0768,1.1222,8.0016,49.3792,-0.0225,0.4196,0.0896,352.2521
19:31:18:949,-1.4429,1.4596,7.1115,48.9539,0.0557,0.4184,0.1421,352.0336
19:31:18:967,-1.1677,2.2253,7.4584,49.4072,-0.1276,0.1277,0.3278,351.4088
19:31:18:986,-0.6963,2.467,7.9059,49.9626,-0.1752,0.1081,0.3999,350.9872
19:31:19:003,-0.6078,2.7422,7.949,50.1845,-0.1031,0.1533,0.4048,350.5323
19:31:19:023,-0.5551,2.9647,7.9178,50.3459,-0.0164,0.0873,0.3608,350.1369
19:31:19:042,-0.3661,2.8929,8.1069,49.9857,-0.0225,-0.0959,0.2838,349.8546
19:31:19:064,-0.3015,2.6225,8.7841,49.1569,-0.108,-0.1949,0.18,349.7339
19:31:19:083,-0.5599,2.4096,9.6598,50.3433,-0.2094,-0.1839,0.0896,349.6958
19:31:19:103,-1.0241,2.6154,10.325,49.9303,-0.24,-0.1106,0.0798,349.6827
19:31:19:121,-1.1198,2.802,11.0931,50.7997,-0.1337,0.0128,0.1812,349.5179
19:31:19:144,-0.7777,2.8905,11.0142,49.3381,0.1058,0.0299,0.2875,349.2218
19:31:19:165,-0.4618,2.8738,10.6672,51.1348,0.2951,-0.0666,0.3009,348.9207
19:31:19:185,-0.2752,2.8714,10.7509,48.3572,0.278,-0.1472,0.2582,348.6892
19:31:19:203,-0.1771,2.8044,11.1218,50.6277,0.1546,-0.1631,0.2068,348.5159
19:31:19:222,-0.1603,2.7063,11.3252,51.7562,0.1106,-0.1643,0.18,348.3779
19:31:19:242,0.3924,2.3928,11.0812,50.6043,0.1461,-0.2584,0.1885,348.2446
19:31:19:264,1.2921,1.5434,10.9208,51.034,0.1082,-0.3732,0.1714,348.1495
19:31:19:283,2.0363,0.4403,11.1841,49.5599,-0.0567,-0.3073,0.0615,348.1345
19:31:19:303,1.6654,-0.1675,11.6866,52.0872,-0.3206,-0.1179,-0.1279,348.2804
19:31:19:325,-0.0718,0.5025,12.0383,52.4302,-0.4892,0.157,-0.2696,348.5412
19:31:19:343,-0.0072,0.6078,11.6028,51.2286,-0.2998,0.4319,-0.0937,348.5562
19:31:19:364,0.9906,0.7896,10.6959,50.6035,0.074,0.4477,0.1726,348.2462
19:31:19:383,2.0363,1.1318,9.7388,50.2759,0.2866,0.2462,0.2264,347.9341
19:31:19:404,2.68,1.0504,9.0281,49.2256,0.2572,0.0763,0.0639,348.039
19:31:19:430,1.2156,1.0911,8.485,50.6277,0.052,0.0311,-0.2659,348.6035
19:31:19:450,0.3278,1.151,8.3294,53.246,-0.3047,0.1912,-0.6789,349.269
19:31:19:468,-0.2225,1.3974,8.1189,50.0818,-0.3011,0.1826,-0.6398,349.9289
19:31:19:481,-0.3709,1.797,8.0064,50.2718,-0.2253,0.146,-0.4981,350.4496
19:31:19:501,0.0096,2.0602,7.7982,50.4225,-0.0714,0.1228,-0.3441,350.7913
19:31:19:522,0.4546,2.2923,7.3723,49.8283,0.118,0.0971,-0.2537,351.0516
19:31:19:542,0.6748,2.6393,7.0756,50.6348,0.2243,0.0812,-0.2403,351.2938
19:31:19:562,0.4403,2.948,7.2981,51.0427,0.2352,0.0287,-0.3014,351.6166
19:31:19:584,0.1603,2.9097,7.5972,51.1384,0.2377,-0.1081,-0.4248,352.0949
19:31:19:603,-0.1364,2.7374,7.9514,51.4489,0.2511,-0.2388,-0.5567,352.7541
19:31:19:622,-0.5791,2.8068,9.0066,50.2103,0.2084,-0.2889,-0.6239,353.5229
19:31:19:644,-1.3687,3.2303,10.2724,50.3085,0.1302,-0.3879,-0.6508,354.359
