Time,Acc_X,Acc_Y,Acc_Z,Meg,Gyr_X,Gyr_Y,Gyr_Z,Ore
16:10:45:533,-1.2658,4.2281,8.2552,18.1836,-0.142,0.0988,0.2566,350.8727
16:10:45:560,-1.2658,4.2281,8.2552,21.1344,0.2428,-0.2958,0.0465,183.7773
16:10:45:578,-1.2658,4.2281,8.2552,19.0708,0.2428,-0.2958,0.0465,183.909
16:10:45:596,-0.8255,3.8812,9.0616,20.1118,0.2428,-0.2958,0.0465,184.3816
16:10:45:615,-0.8973,3.8931,8.863,19.7146,-0.2239,-0.1834,-0.105,184.7021
16:10:45:634,-0.8351,3.9362,8.8295,19.5478,-0.2336,-0.0856,-0.0842,184.9083
16:10:45:653,-0.8016,3.8788,9.2004,18.8984,-0.263,0.0378,-0.0341,185.0164
16:10:45:676,-0.804,3.8596,9.2602,18.8358,-0.2348,0.0573,-0.0219,185.1157
16:10:45:693,-0.9165,3.9123,9.3918,19.4495,-0.1835,-0.0099,-0.0341,185.2672
16:10:45:711,-0.8231,3.7543,9.3344,19.0708,-0.1664,-0.1431,-0.039,185.4218
16:10:45:730,-0.7753,3.6754,9.2315,18.6489,-0.1212,-0.1528,-0.0402,185.5125
16:10:45:751,-0.8375,3.716,8.9516,20.927,-0.0882,-0.0734,-0.0463,185.6332
16:10:45:767,-0.8542,3.6538,8.8367,19.9368,-0.1163,0.0023,-0.0366,185.7075
16:10:45:787,-0.8375,3.6299,9.0281,20.5344,-0.1628,0.028,-0.0097,185.7806
16:10:45:809,-0.7633,3.5988,9.009,16.8841,-0.1664,0.0329,0.0172,185.7631
16:10:45:826,-0.804,3.6993,8.9539,20.0645,-0.1432,0.0121,0.0221,185.7467
16:10:45:845,-0.8853,3.649,8.9204,20.6201,-0.1261,-0.0661,0.0074,185.8036
16:10:45:866,-0.9069,3.5725,8.5639,19.0708,-0.1115,-0.1455,-0.0048,185.8789
16:10:45:884,-0.7825,3.6562,8.4538,20.927,-0.1603,-0.1369,0.0196,185.9399
16:10:45:903,-0.7513,3.6108,9.0592,19.4861,-0.2348,-0.0587,0.0624,185.901
16:10:45:928,-0.7322,3.6634,9.2818,20.5564,-0.2116,-0.0661,0.0709,185.8964
16:10:45:954,-0.7131,3.728,9.1956,18.6298,-0.0919,-0.1235,0.0477,185.8752
16:10:45:964,-0.6197,3.7711,8.8606,19.406,0.0302,-0.1834,0.0074,185.957
16:10:45:986,-0.6891,3.9147,8.3581,18.4464,0.1145,-0.1858,-0.0243,186.0603
16:10:46:005,-0.6437,4.142,7.9585,18.6177,0.106,-0.1333,-0.0317,186.2045
16:10:46:039,-0.5001,4.2879,7.7025,18.1857,0.0131,-0.0844,-0.0182,186.2865
16:10:46:045,-0.3087,4.4794,7.9178,19.4511,-0.1127,-0.0759,-0.0378,186.397
16:10:46:070,-0.0455,4.3717,8.2457,19.1943,-0.2226,-0.1308,-0.083,186.5095
16:10:46:092,0.0431,4.0319,8.4347,20.3538,-0.2226,-0.1272,-0.1404,186.7307
16:10:46:104,-0.1149,4.1779,7.9872,18.6298,-0.197,-0.1565,-0.2186,187.1005
16:10:46:126,-0.2465,4.1324,7.9466,20.4034,-0.2849,-0.1418,-0.2699,187.4423
16:10:46:158,-0.4546,3.996,8.0877,20.6672,-0.4047,0.0085,-0.2748,187.6832
16:10:46:164,-0.5336,4.0511,8.2169,19.0203,-0.4486,0.1477,-0.2491,187.8378
16:10:46:189,-0.3781,4.0893,8.6429,19.8487,-0.4804,0.0817,-0.2174,188.0013
16:10:46:204,-0.0957,3.9912,9.119,19.4861,-0.4804,-0.1174,-0.2137,188.3595
16:10:46:222,-0.0311,3.9721,9.2913,20.6236,-0.4108,-0.2713,-0.2479,188.743
16:10:46:252,-0.0024,3.9793,9.198,20.9478,-0.2972,-0.3397,-0.2858,189.2448
16:10:46:270,-0.0239,4.0487,8.8582,20.7048,-0.2226,-0.3715,-0.3286,189.8358
16:10:46:284,-0.2632,4.0295,8.6668,21.1301,-0.2275,-0.3446,-0.3713,190.4439
16:10:46:307,-0.5719,4.075,8.8032,20.1463,-0.2776,-0.2823,-0.3823,190.9555
16:10:46:331,-0.591,4.1396,8.9946,21.0201,-0.3179,-0.275,-0.3383,191.9103
16:10:46:350,-0.5647,4.1252,9.0903,21.1691,-0.2593,-0.3483,-0.298,192.3799
16:10:46:364,-0.8327,4.1994,9.1741,20.6169,-0.2202,-0.3691,-0.2895,192.7966
16:10:46:383,-0.8423,4.2616,9.4038,21.3361,-0.1664,-0.3715,-0.243,193.2245
16:10:46:403,-0.5862,4.4052,8.9444,21.1356,-0.0919,-0.3911,-0.1978,193.6089
16:10:46:425,-0.5145,4.4243,8.6525,20.5317,-0.1004,-0.3764,-0.1905,194.0016
16:10:46:447,-0.6676,4.4171,9.1286,22.528,-0.1835,-0.2848,-0.2088,194.3422
16:10:46:464,-0.7418,4.2568,9.7125,22.7921,-0.2275,-0.2334,-0.2235,194.6779
16:10:46:484,-0.95,4.0558,10.1097,24.2379,-0.1799,-0.3177,-0.2455,195.103
16:10:46:503,-1.2969,4.0391,10.5858,21.0199,-0.098,-0.5035,-0.254,195.642
16:10:46:522,-0.9763,3.8333,11.0357,21.3725,-0.0027,-0.7014,-0.1954,196.0691
16:10:46:543,0.1077,3.0269,11.1123,21.3321,0.0302,-0.9054,-0.1099,196.539
16:10:46:565,0.8829,2.6656,11.5932,22.3121,-0.0834,-1.0349,-0.0317,196.9638
16:10:46:584,1.2778,2.5244,12.4929,22.6088,-0.2287,-0.8578,0.066,197.1681
16:10:46:603,1.6941,2.2373,12.9763,22.528,-0.208,-0.468,0.1308,197.1783
16:10:46:624,1.8903,1.9741,12.6365,22.1931,-0.0748,-0.2738,0.0844,197.1738
16:10:46:644,1.8999,1.6702,12.4283,22.9232,-0.0235,-0.231,-0.0036,197.1894
16:10:46:665,2.1152,1.1366,12.6508,22.4686,-0.0333,-0.2151,-0.0366,197.2652
16:10:46:684,2.5077,0.7753,12.8901,22.7087,0.0461,-0.2823,-0.0378,197.379
16:10:46:703,2.9336,0.5886,12.1412,23.0746,0.2673,-0.4546,-0.0806,197.5422
16:10:46:727,2.8594,0.5743,10.8036,22.3121,0.4982,-0.567,-0.1942,197.9146
16:10:46:744,2.4957,0.8686,9.6526,22.4531,0.6008,-0.5157,-0.3139,198.3852
16:10:46:766,1.9621,1.3161,8.6261,24.6156,0.5971,-0.3202,-0.3896,198.8687
16:10:46:786,1.3878,1.8497,7.6738,23.1122,0.5507,-0.1076,-0.4593,199.3734
16:10:46:813,0.268,2.8116,6.1017,26.3107,0.3992,0.188,-0.5607,199.8743
16:10:46:825,-0.2465,3.0413,6.1591,25.1971,0.1817,0.1611,-0.5888,200.9323
16:10:46:844,-0.6221,3.1059,6.8076,24.3453,-0.054,0.0549,-0.5717,201.4634
16:10:46:863,-0.9571,3.0772,7.6427,24.2539,-0.1615,-0.0478,-0.5008,201.979
16:10:46:883,-0.9021,3.1298,8.6237,24.7764,-0.0907,-0.1345,-0.375,202.3931
16:10:46:904,-0.481,3.149,8.8511,25.6964,0.1463,-0.1724,-0.1991,202.6613
16:10:46:926,0.0287,3.1633,8.2265,24.2379,0.4432,-0.1125,-0.0427,202.758
16:10:46:945,0.3374,3.3595,7.48,24.2379,0.6338,0.0231,0.0514,202.7129
16:10:46:968,0.6485,3.6227,6.9009,25.5289,0.6546,0.1355,0.0868,202.5972
16:10:46:982,0.8829,3.8453,6.5659,25.5289,0.5189,0.1844,0.0709,202.4322
16:10:47:004,1.0337,3.9003,6.8195,25.5289,0.2929,0.2271,0.0184,202.3055
16:10:47:025,1.194,3.8477,7.3627,25.5289,0.1035,0.2613,-0.0378,202.2191
16:10:47:044,1.2969,3.9051,7.7934,25.5289,0.029,0.2699,-0.0964,202.1883
16:10:47:064,1.3376,4.1444,7.6786,25.5289,0.0669,0.2662,-0.16,202.2268
16:10:47:085,1.1605,4.4602,7.7049,25.5289,0.1268,0.3139,-0.2333,202.3174
16:10:47:103,0.8279,4.7162,7.4584,25.5289,0.1915,0.3969,-0.2907,202.4247
16:10:47:123,0.3111,5.0034,7.547,27.0293,0.2269,0.4849,-0.3359,202.5284
16:10:47:144,-0.0239,5.1446,8.6237,26.3108,0.1854,0.4617,-0.3591,202.6463
16:10:47:163,-0.2513,4.9268,10.483,26.3986,0.0865,0.2833,-0.3884,202.868
16:10:47:183,-0.3613,4.5679,11.8517,28.2018,0.1023,0.0378,-0.3689,203.1686
16:10:47:207,-1.2921,5.1494,11.6889,28.1839,0.3112,-0.1003,-0.2675,203.4572
16:10:47:227,-1.5434,5.6088,10.4542,28.4598,0.6326,0.1917,-0.0329,203.3931
16:10:47:247,-1.4357,5.7165,9.935,27.7271,0.7156,0.5008,0.1858,202.4965
16:10:47:266,-1.072,4.8622,11.3276,26.5888,-0.0712,-0.1724,0.3202,202.2502
16:10:47:282,-0.6006,3.8142,12.3206,26.5888,-0.3827,-0.3629,0.3641,202.0347
16:10:47:303,-0.2847,2.7948,12.7346,27.2356,-0.5061,-0.3642,0.358,201.8185
16:10:47:328,0.0981,2.2851,13.1581,28.9622,-0.4987,-0.2652,0.3568,201.5695
16:10:47:344,0.3996,1.9741,11.531,27.6246,-0.3289,-0.0025,0.391,201.1601
16:10:47:364,-0.0024,2.144,9.0281,29.8572,-0.0724,0.6645,0.4069,200.4526
16:10:47:383,-0.7322,2.5005,7.9705,26.4736,-0.0406,1.2277,0.4142,199.4169
16:10:47:407,-0.8327,2.3282,8.5065,28.7006,-0.2788,1.0799,0.4839,198.396
16:10:47:426,0.1795,1.8568,9.0042,28.5565,-0.4523,0.364,0.5804,197.6262
16:10:47:443,1.1079,1.9693,8.8511,28.413,-0.3839,-0.2677,0.5938,197.1167
16:10:47:462,1.8377,2.0674,8.1428,28.8091,-0.2019,-0.4497,0.5217,196.7711
16:10:47:482,1.8903,2.345,7.1641,28.9647,-0.0394,-0.2261,0.4106,196.426
16:10:47:507,1.6439,2.6417,6.4391,28.9647,0.0498,0.1013,0.3055,196.0502
16:10:47:577,1.1892,2.9671,6.0634,30.1249,0.0767,0.3065,0.2249,195.6714
16:10:47:577,0.9428,3.283,6.3458,26.5462,0.0608,0.2968,0.1528,195.3558
16:10:47:578,0.9332,3.338,6.5228,28.4442,0.0669,0.1013,0.0807,195.195
16:10:47:588,1.0409,3.6012,6.262,28.6356,0.1524,-0.0783,-0.0073,195.2478
16:10:47:607,1.1055,3.9218,6.1831,29.3763,0.194,-0.0905,-0.0867,195.3436
16:10:47:622,1.0098,4.1061,6.6425,29.7953,0.1451,0.0023,-0.1575,195.4809
16:10:47:642,0.7633,4.0774,7.7336,27.9715,0.0901,-0.0013,-0.2614,195.7441
16:10:47:662,0.2273,4.0367,8.3055,29.7022,0.1414,-0.1736,-0.3958,196.1749
16:10:47:685,-0.1675,4.118,8.6261,30.1745,0.2269,-0.4277,-0.4984,196.8208
16:10:47:705,-0.2776,4.2066,9.009,30.2393,0.1121,-0.6672,-0.5167,197.5884
16:10:47:731,-0.0359,4.1539,11.8421,30.5802,-0.324,-0.3617,-0.298,198.2558
16:10:47:742,0.5504,4.0343,12.2154,31.469,-0.2373,-0.1345,-0.1734,198.7043
16:10:47:761,1.7157,3.527,11.9569,31.0161,-0.1762,-0.2139,-0.1551,199.093
16:10:47:785,2.8929,2.8068,12.4355,28.9376,-0.4132,-0.5193,-0.2271,199.5132
16:10:47:803,3.5007,1.8999,13.9573,31.0161,-0.8506,-0.7332,-0.3347,200.1156
16:10:47:823,3.3691,1.0289,14.6154,31.817,-1.0583,-0.6244,-0.4251,200.7419
16:10:47:843,2.4837,1.017,13.2873,31.0629,-0.7516,-0.0697,-0.4287,201.1612
16:10:47:862,1.5434,1.5242,11.6937,33.2588,-0.2788,0.5228,-0.3298,201.2543
16:10:47:886,1.151,1.919,10.94,32.6832,-0.0088,0.5387,-0.2149,201.2326
16:10:47:903,1.3998,2.2516,10.1886,30.8508,0.1646,0.0402,-0.1832,201.369
16:10:47:923,1.6702,2.6201,8.7721,33.4323,0.3613,-0.4925,-0.265,201.8058
16:10:47:944,1.5769,3.0006,6.9799,33.4323,0.5092,-0.5316,-0.3848,202.3715
16:10:47:962,1.0696,3.2231,6.0443,34.8484,0.4566,-0.209,-0.4923,202.9291
16:10:47:985,0.469,3.1753,5.8959,33.4022,0.2538,0.0597,-0.5656,203.4495
16:10:48:003,-0.0024,3.1059,6.0132,33.8854,0.0816,0.1343,-0.5778,203.9399
16:10:48:026,-0.2393,3.1298,6.1448,32.9892,0.0168,0.0903,-0.535,204.4208
16:10:48:044,-0.1005,3.2423,6.4247,34.2309,0.0522,-0.0025,-0.452,204.8414
16:10:48:064,0.2991,3.2423,6.3625,35.2067,0.1536,-0.1015,-0.3701,205.206
16:10:48:084,0.6389,3.3404,5.8194,34.2309,0.2477,-0.0942,-0.3335,205.5462
16:10:48:104,0.7131,3.3452,6.1807,35.0367,0.2099,0.0317,-0.3567,205.8418
16:10:48:123,0.5767,3.1633,6.8722,36.1826,0.0901,0.0659,-0.3933,206.1577
16:10:48:147,0.402,3.1561,7.4608,36.647,0.0254,-0.0038,-0.4116,206.5364
16:10:48:162,0.3183,3.1418,8.2098,36.0845,0.0131,-0.0685,-0.386,206.8937
16:10:48:184,0.2943,3.1274,9.7244,36.0635,0.1353,-0.0294,-0.2565,207.2385
16:10:48:205,0.2728,3.4289,9.9613,36.1826,0.3015,0.0426,-0.1648,207.5889
16:10:48:226,0.1723,3.7687,9.7723,36.7069,0.4481,0.0915,-0.0976,207.5307
16:10:48:242,-0.4187,4.4674,9.6359,37.5437,0.4542,0.1049,-0.0537,207.5035
16:10:48:261,-1.127,5.2068,10.3203,39.0893,0.3027,0.2027,0.0135,207.3655
16:10:48:285,-0.3111,4.1468,11.653,37.2723,0.0351,0.1599,0.0734,207.1537
16:10:48:304,-0.4116,3.8835,13.5314,36.1685,-0.324,-0.3495,-0.0097,207.2288
16:10:48:324,-1.1749,3.5821,14.3809,38.5539,-0.4401,-0.5926,-0.1147,207.516
16:10:48:342,-2.2038,3.4792,13.4955,37.4539,-0.1212,-0.1614,-0.1514,207.6193
16:10:48:363,-2.7924,3.2734,11.6554,38.0278,0.1805,0.1978,-0.1257,207.5603
16:10:48:382,-2.5268,2.936,10.7916,39.4786,0.0547,0.1538,-0.006,207.3947
16:10:48:404,-1.6798,2.4263,11.1841,37.389,-0.346,0.1147,0.1992,207.0438
16:10:48:423,-1.1797,2.132,11.7607,37.8135,-0.5537,0.2894,0.3813,206.4459
16:10:48:444,-0.9045,1.8808,11.0405,38.4915,-0.3863,0.4886,0.5047,205.6374
16:10:48:468,-0.7466,1.8951,9.5426,40.1765,-0.0577,0.5582,0.6146,204.6924
16:10:48:484,-0.3781,2.0148,8.5113,38.1407,0.1646,0.4898,0.7478,203.6684
16:10:48:502,0.1627,2.2684,7.8987,37.8953,0.2465,0.3432,0.8773,202.5484
16:10:48:522,0.9332,2.5747,7.0445,40.6477,0.3137,0.2405,0.9604,201.4243
16:10:48:541,1.5697,2.9336,6.2812,38.7941,0.3577,0.2809,0.9604,200.267
16:10:48:562,1.9621,3.1848,6.0849,41.9249,0.3076,0.3395,0.8675,199.2133
16:10:48:583,2.0985,3.2495,6.2022,39.0386,0.2099,0.2515,0.6708,198.373
16:10:48:605,1.7922,3.3906,6.1902,39.4998,0.1671,0.0695,0.4216,197.8619
16:10:48:626,1.3543,3.6275,6.0634,38.2318,0.172,-0.0783,0.22,197.5981
16:10:48:643,1.663,3.7783,6.2907,38.3758,0.0058,-0.2958,-0.0292,197.6891
16:10:48:665,1.8114,3.6562,7.7719,39.5647,-0.1738,-0.4375,-0.1832,198.0139
16:10:48:685,1.6271,3.5557,8.5639,40.4454,-0.1664,-0.5597,-0.3469,198.5401
16:10:48:703,1.2897,3.5318,8.729,40.2996,0.0119,-0.6281,-0.5045,199.2654
16:10:48:722,1.1222,3.4074,8.674,40.9552,0.1451,-0.6989,-0.6303,200.1154
16:10:48:742,1.1007,3.3763,9.052,39.6995,0.0632,-0.8138,-0.678,201.0648
16:10:48:766,1.0887,3.2016,10.0475,41.6189,-0.1799,-0.7588,-0.6157,201.9225
16:10:48:784,0.7226,3.4768,11.3324,43.2374,-0.2984,-0.4253,-0.4935,202.4879
16:10:48:805,0.871,3.9482,11.1601,41.9249,-0.1237,-0.0856,-0.353,202.7794
16:10:48:821,1.5051,4.1348,9.655,42.1311,0.1194,-0.0172,-0.3066,203.0175
16:10:48:841,2.2181,3.8405,9.0784,42.122,-0.0321,-0.3226,-0.4348,203.5379
16:10:48:865,2.8331,3.2207,10.7007,42.7609,-0.6221,-0.7722,-0.579,204.392
16:10:48:882,3.4863,2.3139,14.0746,43.6079,-1.2159,-1.1351,-0.6768,205.4496
16:10:48:903,3.728,1.5051,16.0032,42.8165,-1.3833,-1.4686,-0.8001,206.7278
16:10:48:923,3.2375,1.3376,15.0963,43.5363,-0.9312,-1.4039,-0.8942,208.054
16:10:48:942,2.5436,1.6798,12.7681,45.4882,-0.2336,-1.1119,-0.9357,209.315
16:10:48:967,1.9334,2.1368,10.349,44.4271,0.1475,-1.1815,-0.9785,210.6739
16:10:48:983,1.2491,2.6178,8.5472,45.6581,0.2221,-1.2634,-0.97,212.0514
16:10:49:002,0.9356,2.8953,7.334,43.9451,0.1194,-1.085,-0.8844,213.3116
16:10:49:022,0.6245,2.948,6.6688,45.4831,-0.0858,-0.8614,-0.8038,214.3913
16:10:49:043,0.5408,2.9767,6.4176,46.7317,-0.3179,-0.6916,-0.7476,215.375
16:10:49:070,0.5384,3.1801,7.5494,46.8097,-0.5,-0.738,-0.7232,216.3249
16:10:49:082,0.8997,2.9934,8.3246,46.3608,-0.467,-0.8822,-0.711,217.3108
16:10:49:102,1.0768,2.8187,7.7527,48.7972,0.0535,-0.6818,-0.7281,218.343
16:10:49:123,1.0576,2.8738,7.0804,48.7617,0.2269,-0.2921,-0.6364,219.3742
16:10:49:144,1.1366,2.9815,7.0612,46.857,0.2367,0.0573,-0.48,220.4585
16:10:49:170,1.5793,2.9647,7.3508,48.7104,0.1329,0.1978,-0.3114,220.609
16:10:49:185,1.9286,3.0676,7.9131,48.192,0.0376,0.2063,-0.1905,220.636
16:10:49:203,1.9693,3.0915,8.5041,50.4651,-0.0027,0.3212,-0.1001,220.5246
16:10:49:222,1.785,3.1537,8.9252,50.5085,0.0706,0.5619,0.0233,220.1811
16:10:49:242,2.0435,3.2136,9.1214,48.3557,0.2367,0.728,0.1687,219.6234
16:10:49:266,2.7422,3.3571,8.985,48.901,0.4187,0.5887,0.2408,219.0394
16:10:49:285,3.2423,3.673,8.461,50.2781,0.5483,0.1892,0.1638,218.7304
16:10:49:303,3.8094,3.4169,8.2385,50.7166,0.5385,-0.1907,0.0159,218.7134
16:10:49:322,3.6251,3.6132,8.9492,50.5025,0.3137,-0.3544,-0.0573,218.833
16:10:49:342,2.8642,4.0774,9.9733,48.4102,0.0339,-0.1431,0.0221,218.7666
16:10:49:363,2.3234,3.6156,10.3992,50.9376,-0.0198,0.4397,0.1516,218.33
16:10:49:383,2.0913,3.0437,10.6146,49.6511,-0.004,0.5912,0.2004,217.7592
16:10:49:404,1.6176,3.1777,11.0692,50.7166,-0.0821,0.2687,0.2615,217.2506
16:10:49:422,0.7513,3.405,11.05,51.636,0.0144,0.3505,0.3385,216.6379
16:10:49:442,-0.1268,3.5175,9.947,50.41,0.3198,0.6315,0.3776,215.8768
16:10:49:462,-0.3709,3.4193,8.2002,49.2649,0.5238,0.6071,0.3922,215.1309
16:10:49:482,0.3517,2.9815,7.3603,52.3775,0.266,0.1318,0.4436,214.5145
16:10:49:502,1.517,2.4,8.7266,52.0375,-0.401,-0.3312,0.5816,213.9366
16:10:49:523,2.6034,1.9047,11.1673,50.2201,-0.9728,-0.2872,0.7783,213.1398
16:10:49:545,3.4074,1.919,12.3494,50.3577,-1.0204,0.0903,0.8944,212.0815
16:10:49:565,3.7017,2.4335,9.3607,49.4652,-0.0003,0.3994,0.5511,210.2545
16:10:49:663,2.9527,2.6848,7.7599,51.3742,0.2734,0.0439,0.1992,209.9666
16:10:49:663,1.9573,2.857,6.5539,51.151,0.3845,-0.1186,-0.0317,209.9747
16:10:49:663,1.273,3.1633,5.6183,51.3812,0.4004,-0.0111,-0.0708,209.9792
16:10:49:664,1.0313,3.326,4.9196,54.079,0.2758,0.0976,-0.0097,209.8904
16:10:49:664,1.1055,3.3404,5.2594,53.8008,0.0205,0.2002,0.0819,209.6555
16:10:49:681,1.3519,3.1681,6.1543,52.5326,-0.2495,0.2063,0.1577,209.3546
16:10:49:701,1.8999,2.8929,7.4848,51.6397,-0.4548,0.0829,0.1748,209.0891
16:10:49:721,2.4263,2.7254,8.9444,50.3507,-0.5207,-0.0978,0.1406,208.8908
16:10:49:743,2.6201,2.6417,9.8848,52.1836,-0.4095,-0.1992,0.0551,208.8225
16:10:49:765,2.455,2.6608,9.7531,51.5588,-0.1188,-0.1369,-0.0549,208.8636
16:10:49:786,2.254,2.7805,9.198,51.7159,0.1695,0.0011,-0.1331,208.9131
16:10:49:801,2.5053,2.7087,8.7362,50.9957,0.2587,-0.0343,-0.1648,209.0187
16:10:49:821,2.546,2.869,8.729,52.5966,0.1378,-0.2286,-0.2039,209.2402
16:10:49:843,2.3426,3.0389,9.4086,51.151,-0.098,-0.2188,-0.1758,209.4311
16:10:49:862,1.8808,3.5821,10.5524,52.9807,-0.2434,0.0891,-0.0757,209.3975
16:10:49:882,1.876,3.4648,10.3298,51.898,-0.131,0.3859,-0.0011,209.1895
16:10:49:905,2.187,3.0748,9.2028,53.4619,0.0571,0.4568,-0.0134,208.9645
16:10:49:931,3.2016,2.2708,8.8295,52.0648,-0.0699,0.2589,-0.0683,208.879
16:10:49:944,3.4289,1.3926,10.0092,52.4772,-0.6014,-0.1394,-0.1551,209.0175
16:10:49:962,3.3332,0.6867,13.0744,53.3277,-1.1206,-0.2616,-0.1257,209.1557
16:10:49:982,3.4026,0.4283,14.6297,50.9927,-1.1548,-0.1968,0.0074,209.1179
16:10:50:002,3.5175,0.6963,13.1222,52.0736,-0.6796,-0.0636,0.099,208.9404
16:10:50:024,2.9193,1.5338,9.0281,52.8837,-0.1359,0.2894,0.121,208.6971
16:10:50:044,2.5531,1.8185,9.0162,51.8978,-0.3216,0.2601,0.066,208.2988
16:10:50:060,2.3378,1.8401,8.7888,51.7968,-0.4499,0.0793,-0.0427,208.2668
16:10:50:086,1.9358,1.864,8.5807,53.0024,-0.4926,-0.0221,-0.1636,208.3879
16:10:50:101,1.3137,1.7492,8.7027,51.3118,-0.5232,0.0915,-0.232,208.5369
16:10:50:120,0.6987,1.7228,8.9827,53.0712,-0.4951,0.3468,-0.2235,208.6535
16:10:50:144,0.5384,1.7539,8.5137,50.8893,-0.3656,0.4996,-0.1551,208.6502
16:10:50:162,0.5504,1.8616,7.858,51.6302,-0.2568,0.5619,-0.083,208.5755
16:10:50:182,0.5575,1.8449,7.8987,52.3166,-0.2471,0.6327,-0.0048,208.3883
16:10:50:201,0.8159,1.8497,8.4132,51.634,-0.2544,0.695,0.0844,208.1097
16:10:50:220,1.0289,1.8329,8.6716,52.1812,-0.1823,0.7305,0.1491,207.7668
16:10:50:242,0.9404,1.8161,8.6907,51.3773,-0.0712,0.7427,0.154,207.411
16:10:50:262,0.6341,1.8999,8.5376,52.5566,0.0498,0.7451,0.1711,207.0154
16:10:50:283,0.5192,1.943,8.4562,51.0975,0.117,0.6999,0.2408,206.5708
16:10:50:300,0.5073,2.0794,8.9827,51.4025,0.0791,0.6046,0.3544,206.0276
16:10:50:321,0.9236,2.1583,9.8106,50.9281,0.0095,0.5057,0.4839,205.3791
16:10:50:342,1.3256,2.1583,10.4949,51.1632,0.0437,0.4678,0.5657,204.6383
16:10:50:363,1.6415,2.0076,10.5069,51.6288,0.2294,0.4825,0.5584,203.9
16:10:50:381,1.7731,1.8161,9.9565,51.8812,0.4236,0.4483,0.4582,203.2716
16:10:50:401,1.6176,1.7779,9.5593,52.1046,0.4273,0.3957,0.3409,202.7958
16:10:50:421,0.6891,2.2516,10.081,51.7042,0.2037,0.4299,0.2737,202.3587
16:10:50:441,-0.6054,2.4933,10.8395,50.9927,0.0327,0.6682,0.3092,201.8156
16:10:50:465,-0.6676,2.1105,10.3753,49.5536,0.095,0.8477,0.4338,200.3875
16:10:50:482,0.2728,1.1892,11.61,50.0579,-0.2813,0.0683,0.4668,199.8688
16:10:50:500,-0.7849,1.2467,12.4116,50.9882,-0.3228,0.0121,0.3873,199.3899
16:10:50:525,-1.2658,1.3161,11.744,50.0255,0.0339,0.188,0.3971,198.8692
16:10:50:549,-0.871,1.1844,10.1192,49.5043,0.4065,0.155,0.4387,198.3028
16:10:50:560,-0.0646,0.9547,9.32,47.7845,0.4004,-0.0697,0.3935,197.854
16:10:50:581,0.2943,0.5623,9.7843,47.7477,0.0302,-0.2115,0.3018,197.5327
16:10:50:601,0.0335,0.2776,11.062,47.8383,-0.3265,-0.0917,0.2065,197.2803
16:10:50:623,-0.213,0.3135,11.3922,48.4921,-0.3533,0.0952,0.2139,196.9918
16:10:50:643,-0.2273,0.6628,10.2772,48.8259,-0.065,0.2577,0.2945,196.5741
16:10:50:664,-0.2082,1.1868,8.7051,48.0276,0.2587,0.3481,0.3593,196.0864
16:10:50:680,-0.3493,1.7157,7.4584,49.348,0.4017,0.3603,0.3983,195.5231
16:10:50:702,-0.5432,2.1799,6.853,48.2169,0.3674,0.3737,0.4374,194.9115
16:10:50:724,-0.4977,2.4622,6.8219,46.6222,0.2392,0.3493,0.4692,194.2933
16:10:50:742,-0.213,2.4742,7.1474,47.8018,0.0889,0.2479,0.4582,193.6998
16:10:50:762,-0.0814,2.4263,7.6618,46.628,-0.0333,0.0927,0.3861,193.2147
16:10:50:782,-0.0024,2.2995,8.0207,46.4879,-0.1102,-0.0673,0.2982,192.8698
16:10:50:801,0.0287,2.278,8.2648,45.0144,-0.1481,-0.1968,0.2298,192.6374
16:10:50:824,0.1795,2.2875,8.272,47.2228,-0.1811,-0.2579,0.1968,192.4407
16:10:50:842,0.347,2.2516,8.5184,45.7021,-0.2605,-0.2432,0.1845,192.2585
16:10:50:861,0.5264,2.1703,8.8176,46.5019,-0.368,-0.1846,0.1711,192.0694
16:10:50:881,0.5025,2.2349,9.4923,46.5019,-0.4303,-0.1113,0.1516,191.8911
16:10:50:900,0.5719,2.2229,9.746,46.1513,-0.3546,-0.06,0.1467,191.6961
16:10:50:924,0.4379,2.3354,9.6646,45.9323,-0.1444,0.017,0.1198,191.3912
16:10:50:943,0.2225,2.6824,9.1789,45.0361,0.3112,0.0487,0.0599,191.3203
16:10:50:961,0.1101,2.8762,8.8798,45.3235,0.4383,-0.0099,0.0233,191.2593
16:10:50:980,-0.0526,3.0844,8.8152,45.7427,0.4273,-0.0465,-0.0451,191.2808
16:10:51:001,0.0455,2.8187,9.7555,45.7541,0.2367,-0.1088,-0.1429,191.4116
16:10:51:025,-0.347,2.5412,11.0285,46.4512,0.0229,-0.2286,-0.2577,191.7015
16:10:51:042,-0.5073,2.3976,11.787,45.9323,0.0388,-0.2371,-0.2553,191.9786
16:10:51:062,-0.012,2.1272,11.2439,47.7108,0.2343,-0.1247,-0.1648,192.144
16:10:51:080,0.9834,1.4237,10.8634,46.3684,0.2538,-0.0734,-0.1343,192.2469
16:10:51:101,2.0052,0.2489,11.4832,45.7861,-0.1151,-0.2738,-0.2211,192.512
16:10:51:121,1.809,-0.3924,13.9717,46.5947,-0.6624,-0.4961,-0.3505,192.958
16:10:51:144,1.2945,-0.5384,15.5821,45.6231,-0.7712,-0.5145,-0.3676,193.4146
16:10:51:161,1.2419,-0.0096,14.7876,46.0368,-0.2312,-0.3593,-0.2406,193.7118
16:10:51:185,2.4957,0.3063,12.1125,45.2792,0.4187,-0.2774,-0.0708,193.807
16:10:51:204,3.2112,0.9739,9.935,46.2425,0.6546,-0.2396,-0.1099,193.939
16:10:51:223,3.0867,1.584,9.2411,45.6802,0.3784,-0.1198,-0.3114,194.2957
16:10:51:241,2.5723,1.7037,9.3105,45.4925,-0.0345,0.1367,-0.5094,194.7925
16:10:51:261,1.4548,1.8114,9.6215,45.6231,-0.2348,0.5154,-0.6768,195.3636
16:10:51:281,0.4283,1.7468,9.3607,44.9305,-0.1298,0.8722,-0.7623,195.9499
16:10:51:301,-0.3709,2.0554,9.1741,47.7295,0.2147,1.1092,-0.7635,196.4788
16:10:51:322,-0.9691,2.345,8.3797,47.8298,0.6484,1.1556,-0.6963,196.9145
16:10:51:342,-1.8449,2.8163,6.8818,47.096,1.1249,1.246,-0.5094,197.0913
16:10:51:362,-2.0961,2.9384,5.5322,45.6426,1.5269,1.5173,-0.171,196.7951
16:10:51:385,-2.0148,3.4552,4.9268,46.7398,1.6038,1.5478,0.1088,196.1503
16:10:51:402,-2.1033,4.2879,4.1085,47.0376,1.0479,0.6975,0.3507,194.7692
16:10:51:424,-1.9238,4.2162,4.0511,48.1631,0.7376,0.3908,0.4631,194.0915
16:10:51:442,-2.0865,4.0774,4.8192,47.3864,0.453,0.3701,0.4558,193.4215
16:10:51:462,-2.5053,3.8118,6.2094,46.0711,0.2123,0.4519,0.336,192.837
16:10:51:481,-2.7829,3.4193,7.4225,46.5143,0.1072,0.2894,0.3116,192.3534
16:10:51:504,-2.8068,3.4696,9.6024,45.1035,0.1268,0.1453,0.347,191.8871
16:10:51:522,-2.8522,3.4433,11.086,44.8946,0.2819,-0.231,0.358,191.5751
16:10:51:542,-2.723,3.9649,12.1795,44.5295,0.4346,-0.6941,0.2762,191.5833
16:10:51:561,-2.2708,4.7139,13.0552,46.4194,0.4481,-0.9555,0.1674,191.8108
16:10:51:580,-1.3783,4.7641,12.5551,45.7864,0.4847,-0.5878,0.1271,191.9161
16:10:51:604,-2.0339,4.7067,12.2465,45.0339,0.4444,0.0365,-0.0231,191.8872
16:10:51:622,-3.8309,4.6181,11.4329,44.3694,0.3137,0.4812,-0.1795,191.7855
16:10:51:641,-4.6875,4.6421,10.0881,46.5216,0.3393,0.8734,-0.0964,191.403
16:10:51:663,-4.5344,4.9603,10.1073,45.7296,0.3442,0.9284,0.0416,190.8535
16:10:51:761,-4.2233,5.1805,11.5478,48.36,0.2343,0.4849,-0.0097,190.5689
16:10:51:762,-4.1946,4.7952,13.6367,46.648,0.172,-0.0685,-0.1135,190.6593
16:10:51:762,-4.386,4.4626,14.1703,45.7554,0.277,-0.319,-0.0195,190.8034
16:10:51:763,-2.802,3.9865,13.3878,45.027,0.5507,-0.06,0.3324,190.4724
16:10:51:764,-1.2299,3.6969,11.4377,48.0386,0.8891,0.265,0.6122,189.7055
16:10:51:783,-0.5527,3.6395,9.2219,50.4566,1.1921,0.4519,0.6561,188.8233
16:10:51:806,-0.3422,3.649,7.1019,50.5543,1.3399,0.3737,0.6183,188.0243
16:10:51:820,-0.3876,3.6921,5.3815,46.6937,1.3375,0.2149,0.6207,187.3127
16:10:51:841,0.6485,3.6132,3.2925,47.2634,0.9978,0.1343,0.826,185.7142
16:10:51:861,1.072,3.3428,2.4096,46.113,0.734,0.1123,0.8504,184.8566
16:10:51:882,1.1198,3.4624,1.998,46.222,0.4041,0.017,0.8052,184.1066
16:10:51:903,1.1797,3.3595,2.2612,46.3743,0.0718,-0.0319,0.771,183.4201
16:10:51:922,1.1821,3.1944,2.5436,46.7546,-0.0797,0.0634,0.7245,182.727
16:10:51:941,1.2203,3.283,2.5747,45.4242,-0.0125,0.2027,0.6439,182.0061
16:10:51:963,1.2849,3.5294,1.986,46.8966,0.1219,0.1685,0.5071,181.441
16:10:51:984,1.1342,3.8596,1.7515,44.9529,0.0498,-0.1541,0.2933,181.2697
16:10:52:003,0.7777,4.3167,3.393,46.1174,-0.2544,-0.5462,0.0453,181.5692
16:10:52:022,0.6676,3.9338,7.011,47.0822,-0.6454,-0.936,-0.1734,182.3227
16:10:52:041,0.1819,3.4241,9.6574,45.6639,-0.875,-1.1278,-0.342,183.3498
16:10:52:060,-0.2225,4.5129,9.722,46.1666,-0.8482,-0.7502,-0.3896,184.143
16:10:52:080,-0.6221,6.1783,9.4445,47.408,-0.9789,-0.3385,-0.4361,184.7218
16:10:52:101,-0.3206,6.5779,11.0979,44.7168,-1.5604,-0.5035,-0.5912,185.5433
16:10:52:121,0.9858,4.6229,16.1205,45.4064,-2.4596,-1.1363,-0.7879,186.9197
16:10:52:143,1.6534,1.9693,22.8323,46.3684,-2.9911,-1.4564,-0.9907,188.6164
16:10:52:160,-0.4786,1.6295,22.7916,47.2563,-2.3619,-0.859,-1.1263,190.0989
16:10:52:187,-2.6225,2.6369,17.2499,46.0609,-1.1292,0.0622,-0.8954,190.9353
16:10:52:203,-2.2875,3.4887,12.335,47.0114,-0.3497,0.4812,-0.353,191.0736
16:10:52:221,-0.7274,3.9362,9.3799,48.4351,-0.12,0.3481,0.099,190.8196
16:10:52:247,0.792,4.1563,7.1785,46.9357,-0.1628,-0.0575,0.2664,190.5515
16:10:52:258,1.7133,4.0032,6.1448,46.5552,-0.3778,-0.4338,0.1589,190.5564
16:10:52:281,1.9358,3.5653,6.8363,48.3943,-0.6661,-0.5706,-0.094,190.8618
16:10:52:302,0.2153,2.8857,7.2933,49.6956,-0.6527,-0.0355,-0.5069,191.3566
16:10:52:319,-0.4762,2.9503,6.4774,48.0626,-0.4523,0.1025,-0.5326,191.9022
16:10:52:340,-1.1246,3.0389,5.7523,47.4235,-0.3387,0.006,-0.48,192.8221
16:10:52:360,-1.474,3.3715,5.7547,48.1006,-0.3118,-0.1895,-0.3591,193.2378
16:10:52:384,-1.127,3.6347,6.6473,46.9994,-0.3167,-0.4998,-0.1856,193.5775
16:10:52:400,-0.0263,3.527,7.8317,48.3044,-0.2581,-0.826,-0.0256,193.8599
16:10:52:422,0.8782,3.3212,8.674,47.3754,-0.0931,-1.0105,0.0062,194.1646
16:10:52:442,0.5408,3.3117,9.1406,48.4304,0.0999,-1.0435,-0.1001,194.5961
16:10:52:463,0.1627,3.2925,9.8297,48.2052,0.1744,-1.019,-0.1587,195.0639
16:10:52:481,0.2249,3.405,10.4423,47.0688,0.1976,-0.9579,-0.1025,195.4622
16:10:52:507,0.9212,3.393,10.7342,48.1135,0.2428,-0.815,0.0001,195.7112
16:10:52:519,1.0337,3.4624,10.9831,48.5373,0.2746,-0.5914,0.0208,195.8731
16:10:52:540,0.4259,3.716,11.9091,48.3407,0.3051,-0.2664,0.0111,195.9314
16:10:52:558,-0.3039,4.0893,11.878,46.7893,0.4591,0.0597,0.11,195.7818
16:10:52:580,-1.0648,4.9507,11.3085,48.6278,0.613,0.2906,0.3128,195.3235
16:10:52:599,0.1603,4.5464,11.1745,47.2514,0.5947,0.4067,0.5865,194.5633
16:10:52:618,0.6939,4.5679,11.9737,47.246,0.3845,0.3236,0.7197,193.6982
16:10:52:640,1.4022,3.8333,12.6796,47.1705,0.2013,0.0707,0.727,192.9177
16:10:52:658,1.2921,3.5127,12.9691,47.6918,0.2233,-0.1601,0.6476,192.3003
16:10:52:681,0.3517,4.3214,12.0407,47.2286,0.5018,-0.0319,0.5266,191.7492
16:10:52:701,0.4283,4.5583,10.5428,48.2042,0.7645,0.199,0.4839,191.167
16:10:52:720,1.072,4.0702,9.5115,47.4171,0.6985,0.2027,0.4423,190.6526
16:10:52:740,1.4668,3.8094,9.6191,48.2257,0.3821,0.0439,0.336,190.308
16:10:52:764,1.0959,2.9862,9.076,47.9614,-0.3045,0.2369,0.2493,189.7059
16:10:52:785,1.2778,2.1129,9.0832,49.5215,-0.5647,0.6523,0.2469,189.1939
16:10:52:803,1.2802,1.73,9.6455,49.4655,-0.7565,0.7268,0.2554,188.6391
16:10:52:821,1.8018,1.3137,9.6479,48.6867,-0.7516,0.5484,0.2163,188.2433
16:10:52:839,2.1942,1.0265,9.4014,48.6775,-0.5195,0.3798,0.0941,188.0389
16:10:52:859,2.3569,1.6726,8.8415,49.3897,-0.2129,0.1929,-0.1001,188.102
16:10:52:885,2.3091,1.8855,7.2239,47.845,0.062,0.1013,-0.3078,188.4276
16:10:52:900,1.9143,1.3783,6.7956,48.4779,0.1524,0.2662,-0.5118,188.8949
16:10:52:920,0.9308,1.2467,6.81,48.6412,0.0632,0.2662,-0.6548,189.5153
16:10:52:940,-0.1962,1.5625,6.475,49.579,0.0083,0.1746,-0.6279,190.1169
16:10:52:962,-0.615,2.0339,6.1065,49.506,0.0461,0.3505,-0.4129,190.4288
16:10:52:984,0.0455,2.278,5.9892,49.2273,0.0217,0.5839,-0.0903,190.3394
16:10:53:001,0.6317,2.4,6.451,49.5837,-0.1237,0.6388,0.1308,190.015
16:10:53:020,0.5767,2.6632,7.5805,50.2533,-0.2006,0.5607,0.1406,189.7146
16:10:53:041,0.3852,2.601,7.9537,49.7391,-0.0724,0.3468,0.0172,189.6024
16:10:53:066,0.5647,2.4383,7.8413,48.0067,0.1805,0.1013,-0.1074,189.7137
16:10:53:083,0.4259,2.5077,8.6525,48.1099,0.2331,-0.1944,-0.232,190.0758
16:10:53:102,0.1268,2.5531,10.3226,47.1429,0.0718,-0.4741,-0.3261,190.6142
16:10:53:119,-0.8925,3.0078,10.4303,48.7748,0.0168,-0.5291,-0.3579,191.2045
16:10:53:139,-1.0504,3.472,9.6311,47.6211,0.2135,-0.0294,-0.2125,191.481
16:10:53:160,0.5695,2.8522,8.2193,49.1453,0.3088,0.4079,0.0172,191.3571
16:10:53:181,1.6534,2.3809,9.3942,49.5621,-0.1664,0.2845,0.0758,191.2346
16:10:53:201,0.8088,1.7204,13.4333,50.5694,-0.9092,-0.0368,-0.0854,191.3885
16:10:53:222,0.1675,0.9858,14.3952,49.7509,-0.379,-0.0954,-0.1184,191.792
16:10:53:239,1.06,0.9547,12.2489,47.4038,0.3393,-0.2029,0.0269,191.8835
16:10:53:260,1.6534,1.6726,10.148,48.5428,0.6228,-0.5059,0.0172,192.1005
16:10:53:281,1.7013,2.1703,9.0999,48.3807,0.4163,-0.6855,-0.0854,192.4766
16:10:53:301,1.3448,2.345,8.2337,47.5639,0.0461,-0.5206,-0.1942,192.918
16:10:53:318,1.4931,1.8975,8.2792,48.4439,-0.2067,-0.0001,-0.2797,193.2648
16:10:53:337,0.2656,2.9456,8.808,48.5468,-0.1371,0.5142,-0.4642,193.6442
16:10:53:359,0.7633,2.3713,7.9083,47.5554,-0.0931,0.061,-0.4764,194.1789
16:10:53:378,0.5192,2.7135,7.7791,48.1465,-0.1457,-0.3898,-0.4446,194.8182
16:10:53:398,0.3661,2.7661,7.9609,49.2888,-0.3253,-0.5377,-0.3738,195.449
16:10:53:418,0.4953,2.6058,7.9633,47.5581,-0.5134,-0.3593,-0.1917,195.8568
16:10:53:455,1.3065,2.3617,7.7695,47.9749,-0.6014,-0.0917,-0.0463,196.0368
16:10:53:457,1.395,3.2231,9.1741,48.1733,-0.4816,0.3224,-0.0879,196.1302
16:10:53:480,1.6582,3.3188,9.4038,48.3904,-0.175,0.5387,-0.1746,196.2514
16:10:53:510,1.3017,3.283,8.2768,48.3577,0.1622,0.5716,-0.3444,196.531
16:10:53:530,0.3183,3.4026,7.4512,47.6119,0.2929,0.634,-0.5167,196.9772
16:10:53:537,-0.4164,3.283,7.5159,47.0376,0.139,0.6315,-0.4959,197.404
16:10:53:562,-0.3996,3.3308,8.5974,48.8568,-0.0907,0.623,-0.3114,197.6224
16:10:53:578,0.0838,3.0772,9.7053,49.1432,-0.1396,0.5973,-0.1245,197.6621
16:10:53:601,0.2082,3.1657,9.8584,48.0971,0.0779,0.4385,-0.0806,197.697
16:10:53:618,0.1795,3.1131,9.2818,47.7203,0.3943,0.2234,-0.1538,197.8853
16:10:53:638,-0.012,2.8714,8.9874,48.5889,0.5458,-0.0319,-0.2785,198.2912
16:10:53:658,-0.1795,2.6154,9.399,46.7399,0.4493,-0.3605,-0.3848,198.8914
16:10:53:684,-1.0672,3.4983,9.4995,47.7658,0.1903,-0.1394,-0.1929,199.7485
16:10:53:704,-1.1725,3.4385,9.3727,46.6538,0.1316,0.414,-0.0463,199.7376
16:10:53:718,-1.6319,3.216,9.8489,46.7648,-0.0516,0.4959,-0.0158,199.6712
16:10:53:737,-2.534,3.3715,10.2365,47.6856,-0.1823,0.2784,-0.0366,199.6798
16:10:53:758,-2.9145,3.4624,9.9661,47.8843,-0.1701,0.1196,-0.0268,199.7375
16:10:53:786,-2.5412,3.393,9.8728,47.8091,-0.1848,0.0329,0.0428,199.7465
16:10:53:841,-1.6941,2.9001,10.3609,45.7169,-0.3228,-0.093,0.0954,199.7543
16:10:53:842,-0.8303,1.8066,11.1482,46.8386,-0.5073,-0.253,0.0819,199.8383
16:10:53:842,-0.1699,1.0074,12.2178,47.6866,-0.6197,-0.3739,0.0551,199.9963
16:10:53:858,0.2249,0.8519,12.6365,45.4674,-0.5464,-0.402,0.0685,200.1687
16:10:53:885,0.6341,1.0074,11.3324,46.4095,-0.269,-0.1956,0.1149,200.2117
16:10:53:901,0.6676,1.3495,9.4875,44.8462,0.0547,0.2858,0.1479,200.0969
16:10:53:917,0.5312,1.9334,8.0542,45.9851,0.2367,0.7476,0.1613,199.8319
16:10:53:940,0.6987,2.3354,7.0827,47.1718,0.2734,0.9259,0.1687,199.5184
16:10:53:973,0.792,2.5101,7.2909,46.2345,0.2159,0.8136,0.1284,199.3026
16:10:53:988,0.6293,2.5914,7.7312,46.3303,0.1793,0.491,0.0392,199.2411
16:10:53:998,0.4834,2.6201,7.6642,45.642,0.2893,0.1929,-0.0598,199.3805
16:10:54:018,0.2273,2.7565,7.2814,45.9179,0.4933,0.0878,-0.1196,199.6243
16:10:54:040,-0.0455,2.9097,6.9368,45.4186,0.6826,0.1245,-0.1074,199.8412
16:10:54:059,-0.1579,3.1154,6.8746,45.2931,0.795,0.2357,-0.0219,199.9029
16:10:54:078,-0.3422,3.271,7.6379,44.6825,0.7804,0.1856,0.0795,199.8796
16:10:54:098,-0.1172,3.125,7.6905,43.6462,0.7449,-0.1699,0.121,199.9644
16:10:54:119,-0.0287,3.271,7.2646,43.618,0.7449,-0.5548,0.066,200.2509
16:10:54:145,-0.1771,4.0965,6.5635,45.4203,0.6106,-0.4497,-0.083,200.9307
16:10:54:171,-0.2943,4.3406,7.1976,44.4252,0.3357,-0.2774,-0.1319,201.3178
16:10:54:178,-0.1292,4.063,8.6716,44.2883,-0.0699,-0.2994,-0.2161,201.7895
16:10:54:198,-0.3948,3.7352,10.4207,43.0658,-0.4658,-0.5059,-0.4006,202.5326
16:10:54:218,-1.4213,3.8309,11.7512,41.7729,-0.6185,-0.5572,-0.5986,203.4618
16:10:54:240,-1.5769,3.8309,11.9737,41.8213,-0.456,-0.1809,-0.5595,204.2105
16:10:54:274,-0.402,3.5964,12.6987,42.1113,-0.3656,0.1575,-0.419,204.7316
16:10:54:278,0.4164,2.7757,15.393,41.035,-0.7028,-0.2616,-0.5008,205.487
16:10:54:298,-0.3254,1.6893,18.3936,43.3954,-1.1426,-1.1632,-0.8796,206.9076
16:10:54:319,-0.9284,0.7537,19.1474,43.8121,-0.9153,-1.3843,-1.0726,208.5726
16:10:54:343,-1.2491,0.9141,17.75,43.5887,-0.0492,-0.8504,-0.8429,209.8053
16:10:54:360,-0.3087,1.4429,12.7705,43.6074,0.916,-0.2579,-0.3664,210.383
16:10:54:380,0.5408,2.7278,8.9037,42.3991,1.4548,0.3334,-0.0769,210.4859
16:10:54:398,0.926,3.941,7.3364,41.9091,1.4035,0.9162,-0.0732,210.3843
16:10:54:418,0.9093,4.2592,6.9703,44.0024,0.9808,1.0237,-0.2039,210.3543
16:10:54:440,0.5384,3.8453,7.1282,43.8587,0.5421,0.761,-0.4092,210.6263
16:10:54:461,-0.2704,3.5725,7.2407,44.0766,0.3919,0.4153,-0.7048,211.3235
16:10:54:479,-1.2179,3.3476,6.6736,44.0001,0.4982,0.0353,-0.9626,212.4228
16:10:54:499,-1.7874,3.3117,5.7428,43.7367,0.6289,-0.2774,-1.0323,213.7149
16:10:54:518,-1.8736,3.4217,4.5942,43.6332,0.6118,-0.3874,-0.926,214.9486
16:10:54:542,-1.5769,3.7304,4.1659,44.676,0.387,-0.2664,-0.7537,215.9638
16:10:54:559,-1.4644,4.1085,4.6947,45.4899,0.0229,-0.0734,-0.6071,216.7549
16:10:54:579,-1.0337,4.41,6.408,44.5913,-0.3143,0.0023,-0.4813,217.3955
16:10:54:601,-0.0909,4.4028,7.9585,45.8431,-0.2141,-0.1956,-0.5399,218.684
16:10:54:624,-0.6365,4.398,7.8389,45.1678,-0.0101,-0.3739,-0.7244,219.7468
16:10:54:641,-0.8973,4.2449,7.858,44.4948,-0.0101,-0.5829,-0.7953,220.9733
16:10:54:661,-1.1222,4.0223,7.0947,45.1702,-0.0589,-0.589,-0.6804,222.0699
16:10:54:678,-1.1533,3.8931,7.4728,44.4025,-0.2226,-0.4619,-0.4544,222.8976
16:10:54:698,-0.7681,3.8835,8.5448,43.3161,-0.3167,-0.3153,-0.2858,223.4823
16:10:54:718,-0.5695,3.7807,9.789,42.8725,-0.1994,-0.2225,-0.3212,224.0672
16:10:54:740,-0.4738,3.4241,10.3394,43.0449,-0.0027,-0.402,-0.5082,224.8943
16:10:54:759,-0.7681,3.5964,10.7366,43.3969,0.1097,-0.727,-0.6364,225.9901
16:10:54:781,-1.1198,3.3356,10.5117,44.1356,0.1744,-0.6647,-0.5778,226.9822
16:10:54:798,-1.6152,3.3739,9.8225,44.7482,0.2599,-0.0893,-0.3982,227.5414
16:10:54:818,-2.479,3.7137,9.2841,43.3615,0.2599,0.447,-0.2772,227.739
16:10:54:839,-3.3188,3.8835,8.985,44.9487,0.1744,0.5411,-0.2443,227.857
16:10:54:858,-4.2018,4.0391,9.0353,44.253,0.0693,0.2503,-0.2418,228.0745
16:10:54:878,-4.5511,4.1874,8.93,44.455,-0.1664,-0.2652,-0.1722,228.4571
16:10:54:898,-4.0941,3.9218,10.739,43.1571,-0.627,-0.5694,0.0013,228.7829
16:10:54:918,-1.8736,2.1344,13.6343,43.6908,-1.0681,-0.7564,0.2591,228.9072
16:10:54:940,-0.0168,1.4596,14.589,43.083,-1.0546,-0.9543,0.4191,228.9413
16:10:54:961,0.3015,1.8568,12.9978,41.8048,-0.5745,-0.8016,0.369,228.9563
16:10:54:977,0.0981,2.3163,10.1695,43.4385,-0.065,-0.3006,0.3275,228.8422
16:10:54:997,0.3063,3.003,7.9178,43.246,0.1524,0.1404,0.402,228.5293
16:10:55:023,1.2658,3.3141,7.121,44.2159,0.0669,0.2345,0.5474,228.0633
16:10:55:041,2.3521,3.2112,7.7432,43.8098,-0.1115,0.144,0.5926,227.594
16:10:55:057,2.5364,3.0269,7.2646,41.5685,0.1793,-0.2005,0.2151,227.2999
16:10:55:077,1.8377,3.082,6.0754,42.0642,0.4163,-0.3886,-0.0073,227.5219
16:10:55:097,1.5051,3.1059,5.0943,43.6683,0.4737,-0.4937,-0.1001,227.9958
16:10:55:117,1.407,3.1346,4.6852,43.5782,0.365,-0.5316,-0.1147,228.4904
16:10:55:137,1.2706,3.0867,4.8981,42.2594,0.1378,-0.5145,-0.1184,228.9827
16:10:55:158,1.474,3.0461,5.5083,42.3839,-0.0406,-0.4693,-0.1209,229.4647
16:10:55:178,1.541,3.0556,6.2836,41.9035,-0.1078,-0.479,-0.1636,229.993
16:10:55:199,1.1653,3.1585,6.8195,42.3305,-0.0675,-0.5303,-0.2809,230.641
16:10:55:224,0.3565,3.2758,6.9559,42.4048,0.0144,-0.567,-0.4202,231.4555
16:10:55:241,-0.0766,3.5294,7.4058,41.5552,-0.0211,-0.6024,-0.5045,232.3209
16:10:55:261,0.3852,3.5773,8.8152,41.7499,-0.3155,-0.7955,-0.5179,233.2739
16:10:55:278,1.1198,3.4935,11.543,40.5211,-0.759,-1.0581,-0.5424,234.338
16:10:55:298,1.6247,3.4026,13.5936,40.9111,-1.0192,-1.0752,-0.6254,235.4578
16:10:55:319,2.187,3.2686,14.2134,41.3625,-0.9508,-0.6733,-0.7354,236.5677
16:10:55:340,2.7254,2.6369,15.003,41.6484,-1.0277,-0.402,-0.9223,237.7573
16:10:55:359,2.4,1.7611,18.0371,40.5465,-1.3857,-0.5242,-1.1654,239.2001
16:10:55:378,1.0911,0.4642,20.1715,41.6484,-1.4175,-0.479,-1.301,240.6828
16:10:55:397,-0.4618,0.4475,19.4895,39.7362,-0.682,-0.0685,-1.1471,241.8816
16:10:55:417,-1.261,0.6915,16.611,41.1935,0.3601,0.2332,-0.7354,242.5596
16:10:55:437,-0.6078,1.2754,13.0409,41.0108,1.1677,0.0695,-0.232,242.7676
16:10:55:475,0.7609,2.0148,10.1934,40.6998,1.6197,-0.1443,0.1955,242.6504
16:10:55:482,1.5769,2.7254,7.4082,41.5946,1.825,-0.1992,0.3519,242.4472
16:10:55:498,1.7994,3.326,5.1948,42.3578,1.7663,-0.1773,0.2823,242.3317
16:10:55:520,0.8949,3.5151,5.2044,41.1851,0.9563,-0.2677,-0.1086,242.7055
16:10:55:537,0.4881,3.4529,5.2307,40.2988,0.646,-0.3397,-0.2516,243.1944
16:10:55:557,0.1675,3.6658,4.4411,39.9631,0.4896,-0.2762,-0.3102,243.737
16:10:55:578,0.213,3.9075,3.7089,40.221,0.3112,-0.22,-0.3041,244.2941
16:10:55:597,0.347,4.1587,4.6349,38.9964,0.0437,-0.2151,-0.309,244.8459
16:10:55:622,0.481,4.1563,5.4676,38.6697,-0.0748,-0.1614,-0.3224,245.3679
16:10:55:641,0.536,4.2257,6.0084,39.4364,-0.0247,-0.0978,-0.3396,245.8589
16:10:55:658,0.3135,4.2018,6.4582,39.4147,0.0742,0.0255,-0.3432,246.2569
16:10:55:677,0.0646,4.2353,6.9081,38.3889,0.1231,0.1562,-0.3041,246.5778
16:10:55:698,0.1436,4.3908,6.7023,39.853,0.1585,0.2919,-0.188,246.7242
16:10:55:722,0.1579,4.5559,6.7549,38.8139,0.1158,0.4715,-0.0524,246.6335
16:10:55:741,0.2919,4.5942,7.7551,37.7682,0.0107,0.6376,0.077,246.3372
16:10:55:757,0.3302,4.4722,8.942,37.9624,-0.0137,0.7109,0.1613,245.8821
16:10:55:777,-0.0215,4.7785,9.4014,37.2406,0.1573,0.7207,0.1882,245.3765
16:10:55:798,-0.1866,5.0321,9.0616,38.4492,0.3858,0.6474,0.2029,244.8915
16:10:55:822,0.2465,5.2259,9.4182,37.5103,0.4224,0.3481,0.2261,244.5383
16:10:55:838,0.9236,5.3839,10.9615,34.8273,0.1683,-0.2188,0.2481,244.4194
16:10:55:973,2.0267,4.6732,13.0552,35.9543,-0.0992,-0.6501,0.2078,244.5164
16:10:55:973,2.3545,3.874,14.5795,36.1685,-0.1652,-1.0007,0.0441,244.9117
16:10:55:974,1.3352,3.9362,14.2756,35.7651,0.0302,-1.3074,-0.1758,245.6551
16:10:55:974,0.3135,4.2544,11.5095,35.5833,0.4518,-1.0141,-0.2296,246.3264
16:10:55:974,-0.4905,4.7713,8.9874,33.2199,0.6448,-0.0771,-0.0757,245.8682
16:10:55:974,0.2058,4.1372,9.0281,34.4895,-0.2483,0.8331,0.2615,245.1449
16:10:55:976,0.7609,3.0508,10.9448,35.4027,-0.7516,0.5619,0.2786,244.5063
16:10:56:003,0.8447,2.6225,11.4401,33.4579,-0.8066,0.4874,0.2615,243.9123
16:10:56:022,0.4953,2.8833,9.8225,33.4943,-0.4902,0.7781,0.3202,243.1406
16:10:56:037,0.3398,3.1633,7.9561,33.3283,-0.2312,1.185,0.4509,242.1223
16:10:56:057,0.4403,3.4074,7.2957,34.9475,-0.2263,1.4562,0.6109,240.8416
16:10:56:076,0.9715,3.393,7.2861,32.8196,-0.3155,1.4403,0.7185,239.4818
16:10:56:097,1.2993,3.3978,7.5565,32.8088,-0.3204,1.1947,0.7075,238.2421
16:10:56:117,1.1821,3.6251,7.3412,33.5205,-0.1725,0.9137,0.5975,237.2662
16:10:56:138,1.0911,3.6538,6.25,33.7073,0.0632,0.7146,0.4778,236.5021
16:10:56:157,0.8495,3.7137,5.1709,31.8739,0.1683,0.6559,0.3421,235.9027
16:10:56:177,0.3829,3.6347,4.8861,34.2907,0.0425,0.6584,0.2029,235.4607
16:10:56:199,-0.0909,3.539,5.6255,33.3426,-0.2214,0.6694,0.0831,235.0988
16:10:56:221,-0.5168,3.6227,7.4536,34.4281,-0.4413,0.5484,0.0123,234.8315
16:10:56:237,-0.2847,3.5246,8.9587,32.2903,-0.4157,0.221,0.0123,234.7164
16:10:56:257,0.0526,3.5892,9.064,32.8196,-0.0662,-0.1272,0.0294,234.7317
16:10:56:277,0.256,3.7256,8.2935,33.0794,0.3186,-0.424,-0.0134,234.9147
16:10:56:301,0.2153,3.9793,7.3651,32.2004,0.4872,-0.6488,-0.1209,235.279
16:10:56:320,-0.1029,4.1898,7.7001,31.3655,0.3442,-0.7222,-0.2406,235.8277
16:10:56:338,-0.4642,4.075,9.0975,31.3655,-0.0113,-0.6806,-0.3163,236.3969
16:10:56:358,-0.8064,4.008,10.727,30.6738,-0.2483,-0.4595,-0.287,236.8078
16:10:56:377,-1.0193,4.4961,11.665,29.9684,-0.2129,-0.2811,-0.1783,237.0045
16:10:56:401,-0.2441,4.654,11.3468,30.8387,-0.0443,-0.3678,-0.0622,237.4748
16:10:56:419,2.1272,3.0508,12.4116,29.7878,-0.3937,-1.0801,-0.1147,238.0281
16:10:56:440,1.9956,2.1535,14.3474,30.6611,-0.6942,-1.0166,-0.1404,238.4619
16:10:56:457,1.3615,1.8879,15.2207,32.5199,-0.5195,-0.5572,-0.0402,238.5375
16:10:56:477,1.0074,2.1631,14.278,30.5994,0.0522,-0.2616,0.1528,238.3156
16:10:56:499,1.4165,2.4167,11.9163,30.7386,0.6668,-0.4705,0.325,238.0264
16:10:56:519,1.8568,2.8738,9.8608,30.4966,0.9746,-0.9274,0.3764,237.941
16:10:56:537,2.2134,3.4074,8.1021,29.9582,0.9673,-1.1241,0.3568,237.998
16:10:56:557,2.3019,3.6658,7.0851,28.0243,0.7205,-0.9347,0.2823,238.0846
16:10:56:577,1.9525,3.6873,6.7454,27.6492,0.3845,-0.4937,0.1748,238.0514
16:10:56:600,1.3974,3.6682,7.1234,27.461,0.1439,-0.0539,0.088,237.8884
16:10:56:618,0.7777,3.7424,7.1617,28.9502,0.1414,0.1929,0.0306,237.6692
16:10:56:637,0.3948,3.8716,6.0897,28.9199,0.3369,0.2137,0.0062,237.4918
16:10:56:656,0.347,4.2353,4.6947,28.1131,0.4969,0.1196,0.0282,237.3367
16:10:56:679,0.5527,4.5153,3.9434,27.7063,0.4371,0.0756,0.0685,237.1734
16:10:56:701,0.8877,4.6373,4.2808,28.1412,0.2074,0.166,0.0905,236.9486
16:10:56:717,1.0768,4.867,5.3743,27.1281,-0.0088,0.3078,0.0783,236.6659
16:10:56:737,1.2754,4.922,6.5587,26.6141,-0.1066,0.3493,0.0111,236.4341
16:10:56:757,1.3615,4.9484,6.9703,27.3236,-0.087,0.1795,-0.1135,236.4146
16:10:56:781,1.7109,4.8838,6.9846,25.9673,-0.0748,-0.0392,-0.2198,236.575
16:10:56:799,1.6582,4.9005,7.4536,26.9016,-0.1212,-0.0148,-0.2699,236.7533
16:10:56:817,1.0026,4.8287,7.3149,26.2388,-0.1738,0.155,-0.2992,236.8524
16:10:56:839,0.3302,4.8814,6.9846,27.1896,-0.1872,0.4592,-0.2565,236.7836
16:10:56:857,0.0024,5.0919,7.5302,27.7268,-0.2471,0.7036,-0.1196,236.4464
16:10:56:877,1.2036,4.9627,9.6933,27.815,-0.4047,0.1966,0.132,235.9859
16:10:56:900,2.3163,4.8168,10.9711,27.6121,-0.5183,-0.3605,0.1198,235.7092
16:10:56:920,2.4431,4.9029,11.6291,26.5218,-0.6136,-0.5462,0.0208,235.8223
16:10:56:938,1.6247,4.8287,11.9354,26.2116,-0.583,0.0952,-0.0781,235.674
16:10:56:956,0.7346,4.4243,12.335,26.756,-0.5024,0.8453,-0.0891,235.1913
16:10:56:978,-0.5001,4.1085,12.8686,26.6257,-0.4034,1.031,-0.0769,234.5868
16:10:56:997,-1.8855,4.3717,12.0359,25.6185,-0.0443,1.0115,-0.0463,233.962
16:10:57:016,-2.5436,4.7593,10.0618,25.7476,0.4334,1.0286,0.0502,233.2797
16:10:57:038,-2.4407,4.9196,8.9803,27.413,0.5336,0.8258,0.143,232.5978
16:10:57:057,-1.7204,4.3119,9.8369,25.4754,0.1402,0.3774,0.1809,232.0427
16:10:57:079,-0.7131,2.9049,12.5527,25.2883,-0.4205,-0.0636,0.2029,231.6196
16:10:57:098,-0.3781,2.0052,14.1344,27.5907,-0.5892,-0.1443,0.2236,231.1805
16:10:57:119,-0.3685,1.8377,13.3878,24.7546,-0.2129,0.2002,0.3116,230.4972
16:10:57:137,-0.3254,2.1823,10.9759,25.0156,0.3345,0.6352,0.4692,229.5319
16:10:57:157,0.055,2.5651,8.5639,23.9049,0.6912,0.904,0.5987,228.3256
16:10:57:185,0.3254,3.0293,6.5731,26.3527,0.7718,0.9626,0.6745,227.0639
16:10:57:198,0.7585,3.3882,5.2451,25.1479,0.6448,0.838,0.7087,225.8295
16:10:57:216,1.2969,3.5366,4.6421,24.2092,0.3992,0.6364,0.6977,224.7642
16:10:57:236,1.4524,3.8357,5.5274,24.328,0.073,0.3811,0.6012,223.9098
16:10:57:256,1.5242,3.5653,6.7645,23.8785,-0.1371,0.0988,0.4484,223.3151
16:10:57:280,1.1773,3.6227,6.7597,24.8327,-0.0504,-0.082,0.3043,222.931
16:10:57:300,0.8614,3.941,6.0419,25.3434,0.1353,-0.2041,0.2065,222.7038
16:10:57:316,0.682,4.0534,6.0658,23.3353,0.1598,-0.3947,0.1442,222.5811
16:10:57:337,0.548,3.7304,8.9994,20.9286,-0.0748,-1.2133,0.0575,223.1955
16:10:57:360,1.1916,3.9218,9.9039,23.4274,0.0755,-1.7093,0.0514,223.7865
16:10:57:377,1.5745,4.2233,9.2195,22.8842,0.5128,-1.7924,-0.0085,224.4922
16:10:57:396,1.2634,4.7569,7.7886,21.8093,0.85,-1.4246,-0.138,225.1678
16:10:57:416,0.6461,5.4221,6.9679,19.8316,0.8097,-0.903,-0.2174,225.6799
16:10:57:436,0.615,5.7236,7.3723,21.114,0.4518,-0.5035,-0.1819,225.9726
16:10:57:457,0.7513,5.8983,9.2363,21.6156,-0.0064,-0.3092,-0.1062,226.0216
16:10:57:478,1.0217,5.8552,10.5643,22.386,-0.2336,-0.253,-0.0781,226.0087
16:10:57:497,1.5769,5.4676,10.3083,22.9863,-0.1725,-0.2579,-0.0928,226.0037
16:10:57:517,2.4144,4.989,9.8393,20.4189,-0.1799,-0.3202,-0.1429,226.0912
16:10:57:536,3.1657,4.1563,10.7414,20.2307,-0.4438,-0.3153,-0.2052,226.2223
16:10:57:556,2.9934,3.2638,12.7514,20.0553,-0.7077,-0.1577,-0.3078,226.3295
16:10:57:580,2.5316,2.7063,13.6726,20.6409,-0.6649,-0.0612,-0.3689,226.3929
16:10:57:597,2.4814,2.6249,12.8423,20.6299,-0.3363,-0.0991,-0.3053,226.4062
16:10:57:618,2.5771,2.6704,11.1075,19.224,0.0156,-0.1492,-0.2149,226.3734
16:10:57:637,2.5029,2.869,10.1121,18.7846,0.1781,-0.1357,-0.1661,226.3464
16:10:57:659,2.2445,3.2471,9.2243,20.0553,0.2673,-0.0575,-0.1636,226.3298
16:10:57:681,1.8473,3.6658,7.5541,17.7823,0.4139,0.0952,-0.1856,226.2491
16:10:57:697,1.4189,4.0223,5.7452,18.6308,0.4921,0.265,-0.2247,226.137
16:10:57:720,0.8782,4.4219,4.721,18.7759,0.354,0.3737,-0.2736,226.0103
16:10:57:738,0.5575,4.5224,4.611,18.2266,0.0755,0.4324,-0.3017,225.9085
16:10:57:758,0.1842,4.6708,5.0297,18.7759,-0.2006,0.4153,-0.3261,225.8483
16:10:57:780,0.0981,4.6062,5.7715,19.6211,-0.3631,0.331,-0.3298,225.7959
16:10:57:797,0.1866,4.5894,6.3506,17.1204,-0.324,0.0426,-0.2699,225.7881
16:10:57:816,0.4546,4.6397,6.2716,18.3659,-0.2605,0.0072,-0.2223,226.0719
16:10:57:836,0.5791,4.6373,6.6377,17.2069,-0.2776,0.0597,-0.1966,226.0135
16:10:57:858,0.7896,4.5583,7.4154,17.7459,-0.3204,0.1123,-0.1832,225.9546
16:10:57:878,0.9954,4.3837,8.193,17.6432,-0.3094,0.0903,-0.1746,225.8528
16:10:57:896,1.127,4.264,8.7362,16.3241,-0.2239,0.0341,-0.171,225.7661
16:10:57:917,1.1797,4.1563,9.0927,16.1613,-0.0772,-0.0013,-0.1697,225.7103
16:10:57:939,1.1222,4.2042,9.0975,16.62,0.1072,-0.0307,-0.1661,225.6468
16:10:57:960,1.1964,4.4722,8.6668,17.0388,0.2807,-0.0856,-0.1734,225.6618
16:10:58:050,1.2275,4.5559,8.193,16.4787,0.3125,-0.1467,-0.2198,225.7062
16:10:58:051,1.2993,4.3908,8.5998,16.0933,0.1194,-0.2298,-0.2895,225.8692
16:10:58:051,1.06,4.4411,9.6981,16.1573,-0.2055,-0.3336,-0.3359,226.0834
16:10:58:052,0.414,5.0895,10.5811,15.2014,-0.3949,-0.2408,-0.3347,226.2356
16:10:58:058,-0.2273,5.3168,10.325,15.7353,-0.324,0.2002,-0.265,226.1481
16:10:58:077,-1.1246,5.2235,9.8919,14.7443,-0.2458,0.5863,-0.2064,225.7765
16:10:58:097,-1.9789,4.7928,11.0046,15.9623,-0.3521,0.5203,-0.1355,225.5782
16:10:58:116,-2.8499,4.8718,11.787,14.5419,-0.2947,0.3872,0.0367,224.9922
16:10:58:137,-3.1896,5.1757,10.4877,13.9484,0.1097,0.4214,0.2615,224.4364
16:10:58:158,-2.7757,5.2164,8.6692,12.6877,0.3894,0.4116,0.4729,223.7108
16:10:58:181,-1.8927,4.8239,8.1093,13.9447,0.2025,0.3236,0.5841,222.9367
16:10:58:199,-1.0385,3.9888,9.4923,13.0463,-0.2825,0.2124,0.5706,222.2151
16:10:58:216,-0.6915,3.1705,11.7727,12.9608,-0.7015,0.0829,0.4814,221.6054
16:10:58:238,-0.3302,2.6848,12.9476,12.8732,-0.7626,-0.016,0.4326,221.0764
16:10:58:263,0.1603,2.7589,9.8967,12.7975,-0.1457,0.3285,0.4692,219.8629
16:10:58:276,0.3781,2.7781,8.7817,13.7916,-0.0699,0.5374,0.4827,219.1295
16:10:58:296,0.6796,2.8331,8.7195,13.4375,-0.1139,0.5887,0.5071,218.3647
16:10:58:316,0.6078,2.802,8.0949,12.334,-0.0345,0.5374,0.5095,217.6269
16:10:58:336,0.4235,3.1322,6.987,12.5175,0.1658,0.5753,0.5144,216.8813
16:10:58:358,0.5958,3.2782,6.0299,10.787,0.2917,0.6095,0.5486,216.1053
16:10:58:377,0.7609,3.2997,5.5753,10.6818,0.266,0.4715,0.5327,215.4116
16:10:58:396,0.8997,3.2016,5.9797,12.1053,0.1475,0.2137,0.4692,214.8917
16:10:58:416,1.0026,3.082,6.5539,10.6691,0.0742,-0.0807,0.3861,214.5771
16:10:58:437,1.2323,3.0604,6.6879,12.5546,0.1353,-0.3397,0.3189,214.4479
16:10:58:459,1.5816,3.0054,6.4463,11.5451,0.2392,-0.5108,0.2701,214.4545
16:10:58:477,1.8018,3.1202,6.274,11.17,0.3137,-0.5535,0.2114,214.5507
16:10:58:498,1.6176,3.3332,5.9414,11.6315,0.3687,-0.5132,0.1198,214.7231
16:10:58:518,0.9811,3.5246,5.6638,11.2915,0.3638,-0.4631,0.0172,214.9614
16:10:58:538,0.5647,3.7711,5.8863,10.6578,0.2343,-0.4729,-0.0353,215.2458
16:10:58:558,0.7298,3.8596,6.0849,10.1722,0.0131,-0.5743,-0.0219,215.5688
16:10:58:578,0.8351,3.9051,6.3649,11.4605,-0.3094,-0.644,0.0013,215.9005
16:10:58:597,0.5791,4.1587,7.4848,12.9202,-0.7516,-0.5193,0.0221,216.1304
16:10:58:617,0.8638,3.6969,9.1765,10.0071,-1.2037,-0.2774,0.1174,216.1258
16:10:58:642,1.8592,2.9216,11.8229,11.3922,-1.663,-0.198,0.1931,215.9875
16:10:58:659,2.8499,2.0076,14.7542,9.9299,-2.0308,-0.2799,0.1564,215.8914
16:10:58:677,2.8475,1.2921,18.2596,9.9671,-2.1847,-0.2677,-0.0256,215.9232
16:10:58:697,1.5721,0.5336,21.0257,9.3779,-1.9221,-0.1931,-0.254,216.09
16:10:58:717,1.4644,0.9356,15.9793,9.6763,-0.0308,-0.0539,0.0294,216.2189
16:10:58:742,2.8427,1.6941,12.1795,10.4588,0.5861,0.0231,0.2518,215.8478
16:10:58:760,3.3021,2.5723,9.8249,9.2908,0.7474,0.1538,0.2322,215.6291
16:10:58:776,3.1466,3.1514,7.8724,10.1398,0.7401,0.1795,0.0343,215.6413
16:10:58:796,2.3306,3.472,6.5109,10.547,0.6533,0.155,-0.2101,215.9124
16:10:58:816,1.4668,3.7137,6.0012,9.8887,0.4798,0.1086,-0.4116,216.3915
16:10:58:840,1.0624,3.7663,5.9797,8.6753,0.2758,0.0011,-0.5277,217.0122
16:10:58:858,0.9667,3.5916,6.4989,10.4588,0.0865,-0.1492,-0.6108,217.7552
16:10:58:877,0.4068,3.4457,7.2718,8.6563,-0.004,-0.2677,-0.7024,218.6009
16:10:58:896,-0.0646,3.3811,7.8748,9.8045,0.0889,-0.4118,-0.7488,219.5195
16:10:58:917,-0.2608,3.5509,7.9178,8.5289,0.3393,-0.5853,-0.6951,220.4359
16:10:58:942,0.1292,4.0702,8.0136,9.1311,0.6032,-0.5902,-0.5802,221.258
16:10:58:958,1.1677,4.0319,8.138,8.6563,0.8109,-0.4815,-0.4959,221.9845
16:10:58:981,0.8231,4.1922,8.0566,7.2129,0.9453,-0.341,-0.5424,222.6999
16:10:58:995,0.2441,4.6253,7.5422,8.6645,1.004,-0.1858,-0.579,223.392
16:10:59:017,-0.7178,4.8838,7.5589,8.7453,0.9087,-0.0869,-0.4788,223.9118
16:10:59:041,-1.0002,5.1254,8.1643,8.7765,0.7584,0.006,-0.2284,224.1193
16:10:59:059,-0.1675,5.1661,8.6285,8.6923,0.6888,0.0097,0.0856,224.021
16:10:59:078,0.4546,5.3719,9.0449,7.964,0.7071,-0.0795,0.2493,223.8126
16:10:59:096,0.5862,5.3647,9.5402,8.1402,0.7462,-0.2322,0.2261,223.6923
16:10:59:116,0.2776,5.5155,10.5667,10.0323,0.7572,-0.4912,0.1589,223.7397
16:10:59:138,1.3735,5.0369,11.7009,8.1775,0.7511,-0.7319,0.198,223.8673
16:10:59:157,2.1488,5.1661,12.8088,7.8447,0.7498,-0.7747,0.2627,223.9575
16:10:59:176,1.7109,5.4509,10.1815,9.1453,1.0357,0.2455,0.2371,223.8575
16:10:59:196,0.4283,5.9653,9.0233,9.1453,1.0394,0.7476,0.1809,223.4599
16:10:59:215,-0.6676,6.4654,8.0112,9.4944,0.9844,0.9382,0.1222,222.1127
16:10:59:240,-1.3113,6.6209,7.133,7.6271,0.8011,0.6963,0.1003,221.562
16:10:59:259,-0.8973,6.1328,7.5972,6.6216,0.3503,0.2662,0.1381,221.2255
16:10:59:281,-0.0981,4.8838,10.6911,6.9611,-0.2642,0.017,0.2139,220.9038
16:10:59:295,0.7083,3.9936,13.4022,8.1467,-0.5965,0.0732,0.2933,220.4261
16:10:59:316,1.8521,3.6921,12.0742,7.903,-0.3558,0.3248,0.3666,219.7906
16:10:59:335,2.2516,3.6826,8.6644,7.4955,0.007,0.3542,0.3116,219.274
16:10:59:364,2.6465,3.7113,6.5922,6.8963,0.0449,0.1562,0.1858,219.0478
16:10:59:375,3.204,3.6323,5.8265,7.6722,-0.0956,0.1196,0.0697,218.9843
16:10:59:395,3.3212,3.6156,5.2786,6.7236,-0.1762,0.3346,-0.0634,218.9356
16:10:59:415,3.0556,3.7065,4.9316,7.2401,-0.2031,0.7048,-0.1819,218.7879
16:10:59:436,2.4024,3.7184,4.3597,6.14,-0.2361,1.0029,-0.2736,218.5519
16:10:59:455,1.7276,3.7567,5.0225,7.4752,-0.3411,1.1801,-0.3383,218.2544
16:10:59:475,1.3831,3.4792,6.6808,6.9448,-0.4267,1.0555,-0.3811,218.0398
16:10:59:495,1.0528,3.4122,7.8652,5.1232,-0.2434,0.6254,-0.3786,218.0452
16:10:59:515,1.0911,3.3356,7.0397,4.8072,0.1952,0.1819,-0.2834,218.2201
16:10:59:537,1.1318,3.4289,5.7428,6.0187,0.5324,-0.0905,-0.2064,218.4936
16:10:59:555,1.0409,3.5964,5.7715,4.3755,0.5605,-0.1418,-0.1612,218.752
16:10:59:576,1.0026,3.5509,6.7573,5.6051,0.4139,-0.1846,-0.1135,218.9707
16:10:59:596,0.8231,3.5294,7.3172,4.8072,0.4273,-0.1626,-0.1013,219.1485
16:10:59:623,0.469,3.8572,6.2477,5.284,0.5996,-0.1406,-0.0867,219.4462
16:10:59:638,0.5336,5.3168,5.6279,5.4677,0.3833,0.1208,0.0367,219.378
16:10:59:655,1.017,5.4078,6.5491,4.8756,0.128,0.7134,0.0648,218.9191
16:10:59:675,0.8447,5.4365,7.3268,5.2676,-0.0467,1.2693,-0.0121,218.1731
16:10:59:695,0.7131,5.6255,8.1954,4.5686,-0.208,1.516,-0.149,217.3957
16:10:59:718,1.986,5.6016,8.8152,5.3881,-0.3778,1.4085,-0.254,216.8336
16:10:59:741,2.4215,5.3145,11.1218,5.6153,-0.8445,0.827,-0.568,216.9183
16:10:59:755,0.603,4.2712,13.3017,3.8534,-1.4089,0.061,-1.13,217.903
16:10:59:777,-2.4622,3.6682,14.4407,5.8641,-1.4981,0.0439,-1.4806,219.149
16:10:59:796,-5.0321,3.9123,14.2062,5.4277,-1.2037,0.2247,-1.3157,220.11
16:10:59:818,-4.9436,4.2616,13.5841,7.0442,-0.8433,0.0121,-0.645,220.5706
16:10:59:836,-3.1609,4.3071,12.871,4.1494,-0.638,-0.5939,0.0648,220.6942
16:10:59:857,-1.4261,4.3669,11.6387,4.998,-0.5061,-0.9274,0.3593,220.7382
16:10:59:877,-0.7705,4.922,9.8106,4.704,-0.4022,-0.611,0.3092,220.7214
16:10:59:899,-1.0552,5.6471,8.6979,6.1361,-0.4377,0.1917,0.1406,220.519
16:10:59:915,-1.6104,5.6255,9.3033,5.4277,-0.6331,0.7329,-0.0305,220.228
16:10:59:936,-1.9621,4.8072,9.667,7.5937,-0.6967,0.6401,-0.1807,220.1131
16:10:59:956,-2.2134,4.2329,9.5402,6.6896,-0.4071,0.2699,-0.2919,220.2616
16:10:59:976,-2.3402,3.9649,8.5328,6.7376,0.1219,-0.1125,-0.3554,220.6352
16:10:59:995,-2.3689,3.7208,7.066,7.4622,0.613,-0.2884,-0.3114,221.0414
16:11:00:018,-2.266,3.8189,5.9103,6.8339,0.9185,-0.1956,-0.1404,221.2456
16:11:00:039,-1.8305,4.1324,5.0895,8.1025,1.0113,0.0121,0.0941,221.1452
16:11:00:133,-1.2921,4.5177,3.996,10.1108,0.8671,0.1587,0.2884,220.8143
16:11:00:134,-1.0026,4.8933,4.6947,9.8682,0.4921,0.3493,0.4118,220.276
16:11:00:135,-0.8877,4.8431,8.1021,9.5575,0.0657,-0.1504,0.4875,219.2456
16:11:00:135,-0.9165,4.4195,7.9537,9.5575,0.2306,-0.7124,0.3617,219.2578
16:11:00:136,-0.9356,4.2305,7.6499,9.5575,0.5092,-0.705,0.2127,219.4085
16:11:00:156,-0.7777,4.6158,9.0473,9.5575,0.6264,-0.3446,0.1919,219.3903
16:11:00:177,-0.2776,4.8646,11.1386,9.5575,0.475,-0.4106,0.2994,219.3033
16:11:00:201,0.7561,4.4028,12.3015,9.5575,0.2599,-0.8797,0.4264,219.3553
16:11:00:219,1.2491,4.2903,10.5547,9.5575,0.3882,-0.8297,0.4448,219.3915
16:11:00:238,0.6628,4.6588,8.4132,6.2244,0.6594,-0.2005,0.2432,219.2868
16:11:00:255,-0.4355,5.1541,8.3892,5.7242,0.5507,0.2906,-0.0134,219.1214
16:11:00:274,-1.6463,5.1661,7.9346,6.4293,0.2001,0.2247,-0.1416,219.0799
16:11:00:296,-2.3019,5.2331,6.7836,7.3681,-0.0137,0.1636,-0.0683,219.0013
16:11:00:316,-1.8042,5.3216,6.5587,7.1022,-0.2849,0.2296,0.1174,218.7342
16:11:00:336,-0.5527,4.587,7.858,7.0539,-0.7419,0.1721,0.2957,218.3452
16:11:00:356,-0.3829,3.7089,10.0307,6.3032,-1.1536,0.1758,0.3385,217.8787
16:11:00:375,-1.5075,3.3499,11.3444,9.1023,-1.3051,0.1648,0.275,217.4269
16:11:00:405,-2.211,3.1872,11.2128,6.6711,-1.0974,0.0097,0.3141,216.9952
16:11:00:417,-1.8042,3.3165,10.2126,7.9618,-0.6624,-0.2371,0.4631,216.5626
16:11:00:437,-0.9906,3.3571,8.7529,9.9669,-0.2678,-0.4387,0.661,216.0664
16:11:00:454,-0.7418,3.3499,7.6977,8.4022,-0.2141,-0.5181,0.8663,215.4178
16:11:00:475,-0.5886,3.527,8.0351,8.839,-0.3876,-0.3349,1.0312,214.516
16:11:00:500,0.2249,3.5318,9.2124,9.5635,-0.4658,0.0402,1.1705,211.9458
16:11:00:523,0.4116,3.6275,8.1404,8.65,0.1732,0.3664,0.9335,210.8465
16:11:00:534,0.0311,3.4959,7.4369,10.5797,0.3809,0.0182,0.7331,210.0956
16:11:00:555,0.213,3.4983,7.4393,9.5035,0.4249,-0.3055,0.7062,209.5241
16:11:00:578,0.9978,3.5868,7.791,8.7518,0.3858,-0.3874,0.8345,208.8897
16:11:00:596,2.2995,3.5701,8.3246,9.8113,0.365,-0.1663,0.9713,208.0538
16:11:00:622,3.2901,3.6347,8.6835,9.7055,0.4346,0.1391,0.9359,207.1407
16:11:00:636,3.2016,3.7615,8.2313,11.1683,0.5605,0.2797,0.7221,206.3726
16:11:00:654,2.4191,4.0391,7.5446,10.89,0.5666,0.2112,0.4692,205.8711
16:11:00:674,1.3735,4.1803,7.0947,7.1465,0.3736,0.1159,0.3397,205.5112
16:11:00:699,0.1364,4.3023,7.3986,9.4533,0.0559,0.1856,0.4387,204.971
16:11:00:717,0.0263,4.9795,8.9348,9.629,-0.252,0.3688,0.7502,204.0201
16:11:00:734,2.2205,4.9675,10.6696,10.7224,-0.4144,0.309,0.9958,202.9231
16:11:00:753,4.4243,4.3406,11.1745,11.6982,-0.3533,0.0365,0.9408,202.0781
16:11:00:773,5.1039,3.7543,10.3657,13.3515,-0.302,-0.2933,0.5071,201.8425
16:11:00:794,3.3523,3.0556,11.6148,11.9595,-0.5647,-0.4314,-0.0793,202.157
16:11:00:817,0.8375,2.2875,13.139,10.7481,-0.7883,-0.2677,-0.4348,202.6218
16:11:00:836,-0.3948,2.2995,12.9332,10.8906,-0.5574,-0.0025,-0.3554,202.8476
16:11:00:853,0.4475,2.5675,10.1767,10.647,-0.0809,0.1575,0.0563,202.6581
16:11:00:873,1.7946,3.2901,8.4538,11.2103,0.1109,0.2198,0.3641,202.212
16:11:00:897,2.5412,3.7208,7.9681,10.7085,-0.0492,0.1734,0.3446,201.847
16:11:00:917,2.2923,3.9745,8.7912,12.2563,-0.2874,0.0439,0.1589,201.7133
16:11:00:937,2.0243,3.8955,8.9228,11.5987,-0.3668,-0.132,0.005,201.799
16:11:00:959,1.9932,3.8835,8.0136,11.6953,-0.2715,-0.1589,-0.0781,201.9891
16:11:00:981,1.6893,3.7759,7.5182,11.0029,-0.2275,0.0194,-0.1319,202.1526
16:11:01:002,0.5958,3.3691,7.7743,11.6567,-0.2177,0.3016,-0.2235,202.3508
16:11:01:019,0.1699,3.2638,7.0732,13.3211,-0.1225,0.2149,-0.2345,202.4864
16:11:01:033,0.2608,3.3595,6.6927,12.1413,-0.098,0.1367,-0.1648,202.5933
16:11:01:054,0.3852,3.3499,6.9033,11.79,-0.1554,0.2393,-0.0182,202.5125
16:11:01:074,0.7585,3.46,7.4225,11.0107,-0.2336,0.4666,0.1503,202.1819
16:11:01:100,1.2132,3.6873,8.0327,13.7752,-0.2324,0.6792,0.2481,201.6888
16:11:01:117,1.1174,3.7448,7.858,11.2354,-0.12,0.7146,0.2188,201.2166
16:11:01:136,0.7178,3.8931,7.6738,13.0562,-0.0394,0.6169,0.121,200.8764
16:11:01:154,0.3063,3.8764,8.394,11.7258,-0.0638,0.4886,0.077,200.6121
16:11:01:175,0.2919,4.0654,9.2459,14.2911,-0.1004,0.3432,0.1491,200.329
16:11:01:196,0.3422,4.0941,9.4923,15.2081,-0.0321,0.3945,0.2603,199.9143
16:11:01:216,0.2967,4.2257,9.2243,13.0194,0.084,0.5814,0.3348,199.5709
16:11:01:237,0.6197,4.1228,9.2913,14.1854,0.0364,0.6254,0.3703,198.973
16:11:01:255,0.4594,4.1587,10.471,15.9229,-0.1774,0.4812,0.3299,198.4622
16:11:01:275,0.5097,3.5677,11.1123,13.6642,-0.2703,0.3224,0.2469,198.3461
16:11:01:294,0.079,3.1346,11.7703,13.5903,-0.3301,0.1367,0.1564,198.1172
16:11:01:317,-1.0337,2.7852,12.2082,14.7593,-0.3912,0.0707,0.1394,197.8824
16:11:01:336,-2.5723,3.0508,11.8923,15.3784,-0.2202,0.4091,0.2835,197.3245
16:11:01:354,-2.6441,3.1226,10.3155,14.4201,0.1549,0.8172,0.6073,196.5023
16:11:01:378,-1.6774,3.2136,9.4516,14.9515,0.3149,0.7476,0.8809,195.2559
16:11:01:401,-0.2177,2.79,9.9015,14.5604,0.1475,0.232,0.8944,194.2378
16:11:01:414,0.3278,2.479,10.7031,15.1142,-0.0834,-0.33,0.672,193.668
16:11:01:434,0.7872,1.8831,10.8371,14.7585,-0.2019,-0.5462,0.4436,193.628
16:11:01:459,0.4451,1.6487,10.6528,14.4117,-0.2312,-0.176,0.2469,193.2755
16:11:01:481,-0.1172,1.7539,9.6909,16.8791,-0.0882,0.2063,0.2493,192.9175
16:11:01:501,-0.2058,2.1081,8.4132,14.6269,0.0498,0.4495,0.3128,192.6981
16:11:01:524,0.2895,2.5723,7.5948,16.0466,0.0742,0.4666,0.402,192.127
16:11:01:535,0.8279,2.8499,7.2191,15.4245,0.0302,0.4568,0.4546,191.7586
16:11:01:554,0.8088,3.0652,7.0517,18.2192,-0.0296,0.4861,0.4093,191.4365
16:11:01:576,0.6413,3.0508,7.1976,16.7716,-0.0834,0.5154,0.3177,191.2402
16:11:01:596,0.2489,3.2207,8.3964,15.6497,-0.109,0.4971,0.2298,191.112
16:11:01:614,0.3326,3.0796,8.0853,14.7053,-0.015,0.1599,0.1919,191.0956
16:11:01:634,-0.2106,3.3523,8.3916,14.8565,0.244,-0.4766,0.1601,191.0938
16:11:01:654,0.323,3.618,5.793,15.1987,0.5861,-1.1864,0.1785,191.3556
16:11:01:675,0.6915,3.728,6.1208,16.1611,0.3674,-1.1901,0.11,191.9591
16:11:01:694,0.5336,3.3308,7.7264,14.9411,-0.0137,-0.9091,0.0807,192.4807
16:11:01:714,0.5695,3.606,9.3918,15.255,-0.1298,-0.7295,0.0514,192.6975
16:11:01:734,1.4142,4.2951,8.3557,14.9982,0.0718,-0.5474,0.0428,193.1491
16:11:01:753,1.6032,4.3238,7.2455,15.8385,0.1475,-0.3104,-0.0585,193.3845
16:11:01:774,0.9834,3.9769,8.0997,15.6422,-0.1383,0.05,-0.2161,193.8785
16:11:01:794,0.1579,3.4983,9.6431,17.3991,-0.5,0.1404,-0.3237,194.4192
16:11:01:814,-0.7083,3.5892,11.2869,16.5103,-0.6857,0.3811,-0.2271,194.7336
16:11:01:847,0.7896,3.7496,10.9185,17.2094,-0.6283,0.8184,0.0673,194.6519
16:11:01:857,2.321,3.3045,11.019,18.4197,-0.5256,0.9467,0.1247,194.5405
16:11:01:917,2.814,2.1631,11.9521,18.3067,-0.5745,0.1367,-0.2174,195.1053
16:11:01:917,1.541,1.4955,13.3998,19.1201,-0.792,-0.892,-0.6401,196.322
16:11:01:917,-0.347,0.8806,13.6702,20.0622,-0.3986,-0.7392,-0.5851,197.7359
16:11:01:933,0.6485,1.1174,12.122,17.692,-0.0247,-0.2334,-0.0903,198.4698
16:11:01:957,1.4931,1.4644,11.1649,19.7947,0.1488,0.0341,0.1711,198.9335
16:11:01:983,1.5864,2.0148,10.1982,18.9277,0.2318,0.0707,0.1589,199.0559
16:11:01:994,1.4309,2.3497,9.119,19.323,0.2624,-0.0539,0.0294,199.3392
16:11:02:013,1.0792,2.6106,8.1811,18.1404,0.2233,-0.1247,-0.1074,199.7999
16:11:02:033,0.5958,2.5484,7.669,18.1541,0.1255,0.0072,-0.1697,200.238
16:11:02:054,0.1149,2.5603,7.5278,19.6712,0.0412,0.2405,-0.1648,200.5968
16:11:02:074,-0.0168,2.6034,7.4225,20.2807,0.0205,0.364,-0.1099,200.872
16:11:02:094,0.2465,2.6393,7.2215,20.2962,0.0583,0.3566,-0.0305,201.0559
16:11:02:114,0.4714,2.7829,7.066,19.5733,0.1084,0.2797,0.0074,201.2244
16:11:02:215,0.5695,2.8116,7.0923,20.6802,0.1158,0.1721,-0.0036,201.4427
16:11:02:216,0.5671,2.8211,7.2574,19.963,0.0718,0.1233,-0.0195,201.6855
16:11:02:216,0.5982,2.8642,7.602,20.0661,0.007,0.2076,0.0013,201.8714
16:11:02:216,0.67,2.8738,8.0806,19.545,-0.0406,0.3261,0.0318,201.9983
16:11:02:217,0.6365,2.9049,8.6955,21.5602,-0.0272,0.3468,0.0514,202.0824
16:11:02:234,0.4044,2.9958,9.198,22.5744,0.062,0.2931,0.0575,202.1926
16:11:02:266,0.2513,3.0939,9.4373,23.0852,0.205,0.2234,0.0807,202.3208
16:11:02:274,0.2225,3.2518,9.5617,20.159,0.3516,0.1318,0.1222,202.4069
16:11:02:294,0.2345,3.5127,9.5186,23.0852,0.4444,0.0463,0.1552,202.7034
16:11:02:314,0.4427,3.5007,9.8297,22.8251,0.42,-0.0319,0.1528,202.8166
16:11:02:333,0.2489,3.6443,10.3274,20.4611,0.321,-0.1101,0.1076,202.9696
16:11:02:354,-0.1388,3.8118,10.9256,22.4465,0.2612,-0.0343,0.1137,203.0611
16:11:02:379,-0.8734,3.5629,11.2989,22.5056,0.2856,0.2271,0.2334,203.0435
16:11:02:394,-2.2684,4.0654,10.6409,23.6864,0.4102,0.4531,0.3409,202.2783
16:11:02:414,-3.2662,4.398,9.1047,23.3667,0.6631,0.8209,0.5242,201.5271
16:11:02:434,-3.3332,4.3573,7.8508,22.6055,0.723,0.9174,0.7245,200.5261
16:11:02:465,-2.4191,3.6969,7.9514,23.7156,0.3931,0.5997,0.8479,199.5436
16:11:02:484,-1.2538,2.7015,9.5928,23.1191,-0.1835,0.0964,0.8296,198.7881
16:11:02:493,-1.1007,1.9047,11.6172,24.4485,-0.638,-0.1797,0.672,198.3094
16:11:02:513,-0.9619,1.2802,12.3254,24.9607,-0.6881,-0.1101,0.65,197.7786
16:11:02:534,-0.6485,1.4812,11.2511,24.5781,-0.3741,0.3334,0.8003,196.9951
16:11:02:575,0.1484,1.7563,9.2937,25.1574,-0.0284,0.7854,0.986,195.8326
16:11:02:576,0.7585,2.1057,7.9681,24.1211,0.0693,0.9589,1.0446,194.6354
16:11:02:597,0.7753,2.4191,7.2215,24.7315,0.0144,0.9382,0.9494,193.496
16:11:02:616,0.7896,2.6871,6.743,26.0727,-0.0443,0.7598,0.8223,192.5399
16:11:02:637,1.1127,2.9169,6.8363,25.2324,-0.065,0.4825,0.7233,191.825
16:11:02:674,1.5864,3.0413,6.9679,24.2657,-0.0113,0.199,0.6048,191.3204
16:11:02:675,1.5745,3.1753,6.5133,25.7777,0.1158,0.0072,0.4314,191.0579
16:11:02:694,1.3711,3.3619,6.5563,24.6714,0.1598,-0.1467,0.253,191.0249
16:11:02:714,1.1701,3.4959,6.5635,25.7347,0.1353,-0.2652,0.121,191.1531
16:11:02:737,0.8566,3.7256,6.8674,27.3513,0.0962,-0.2469,0.0502,191.3141
16:11:02:755,0.6748,3.8453,7.8078,26.239,0.0473,-0.2249,0.0355,191.4969
16:11:02:775,0.7657,3.9051,8.7314,27.6718,0.0657,-0.3153,0.0367,191.7202
16:11:02:796,0.7561,4.0175,8.4538,27.1647,0.2221,-0.468,-0.0073,192.0529
16:11:02:815,0.5336,4.4243,8.004,26.9672,0.3149,-0.6464,-0.0781,192.5127
16:11:02:837,1.1318,4.0439,11.1362,27.7981,-0.1371,-0.8639,-0.1893,193.0601
16:11:02:857,0.2417,3.9051,12.3565,28.4152,-0.1762,-0.6501,-0.298,194.2243
16:11:02:876,-0.1651,4.1037,12.0048,28.5017,-0.0553,-0.3226,-0.2687,194.6677
16:11:02:896,1.0193,3.7998,11.8564,28.9829,-0.0809,-0.0905,-0.0769,194.8627
16:11:02:915,2.814,2.8092,13.34,29.8364,-0.4523,-0.1455,-0.0024,195.0357
16:11:02:942,2.1416,2.0459,16.6301,30.0121,-0.8653,-0.3727,-0.1905,195.3673
16:11:02:959,1.4572,0.8973,18.1472,30.6128,-0.759,-0.5914,-0.3505,195.9105
16:11:02:975,1.2323,0.8495,16.1922,30.5011,-0.0675,-0.6757,-0.2406,196.388
16:11:02:994,1.8927,1.3448,12.1053,29.601,0.6985,-0.4912,0.0159,196.5798
16:11:03:014,2.412,1.7372,8.7649,29.3647,1.004,-0.231,0.1528,196.5735
16:11:03:035,2.2564,2.4622,6.8363,31.8959,0.8965,0.1001,0.0819,196.5232
16:11:03:059,2.3833,2.869,5.9079,30.6919,0.5715,0.2833,-0.0305,196.515
16:11:03:075,2.2971,2.9456,5.5561,31.3404,0.1989,0.221,-0.2113,196.7354
16:11:03:093,1.6941,2.8187,5.5274,30.1587,-0.1004,0.1111,-0.4532,197.2209
16:11:03:113,0.7513,2.7063,5.458,30.8508,-0.2727,0.0732,-0.6511,197.9043
16:11:03:133,0.055,2.7876,5.2331,31.8959,-0.313,0.1685,-0.7171,198.5945
16:11:03:153,-0.2704,3.0054,4.5057,32.4762,-0.2837,0.3444,-0.6706,199.1247
16:11:03:175,-0.3852,3.1777,3.7783,32.4452,-0.313,0.4605,-0.5961,199.5836
16:11:03:193,-0.5791,3.283,4.1157,34.3626,-0.478,0.4763,-0.5289,199.9544
16:11:03:217,-0.6174,3.2638,5.5011,32.2702,-0.6576,0.3542,-0.4642,200.3304
16:11:03:237,-0.6796,3.3835,6.9559,34.163,-0.6808,0.1025,-0.4092,200.6832
16:11:03:255,-0.6604,3.4433,8.016,33.8491,-0.5427,-0.2029,-0.3628,201.1197
16:11:03:276,-0.6628,3.5414,8.7769,33.6887,-0.346,-0.4362,-0.3078,201.5794
16:11:03:303,0.3446,3.3906,10.1719,33.4713,-0.1713,-0.6953,-0.1538,202.348
16:11:03:323,1.0983,3.1561,11.5717,33.442,-0.2532,-0.9005,-0.1135,202.7472
16:11:03:342,1.7515,2.9886,12.7418,33.5891,-0.2862,-1.1229,-0.1355,203.2389
16:11:03:362,2.68,2.7182,13.8999,32.9632,-0.2043,-1.1827,-0.1673,203.791
16:11:03:376,3.4146,2.6297,13.7563,34.3301,0.0486,-0.9897,-0.232,204.314
16:11:03:393,3.4624,3.1848,12.3159,34.611,0.3125,-0.4912,-0.3224,204.794
16:11:03:413,2.4718,3.5964,10.2293,33.4577,0.4175,0.4214,-0.4409,205.1163
16:11:03:448,0.4379,3.9721,9.2267,35.0792,0.3051,1.3816,-0.5888,205.2478
16:11:03:454,-1.7157,4.41,8.9874,36.1826,0.0767,1.8679,-0.6499,205.1901
16:11:03:484,-3.6514,4.9747,8.4443,36.3802,0.0046,2.0365,-0.6279,205.0343
16:11:03:492,-4.8814,5.147,8.4156,35.0367,-0.0662,1.8068,-0.5546,204.8602
16:11:03:513,-5.4054,4.5129,9.4804,36.1708,-0.3008,1.0567,-0.4727,204.792
16:11:03:536,-5.1972,3.0963,11.8014,36.2122,-0.6515,-0.0636,-0.3725,205.0493
16:11:03:561,-5.1039,2.1224,15.1418,35.8734,-0.9019,-1.0764,-0.1819,205.4003
16:11:03:574,-4.2808,0.6102,18.3817,35.5501,-0.7602,-1.4918,0.1931,205.4213
16:11:03:594,-3.5031,0.5264,17.3288,36.4849,0.0156,-1.0398,0.6684,204.7913
16:11:03:613,-2.4311,0.6317,13.7755,37.011,0.8622,-0.1931,1.1375,203.4418
16:11:03:640,-1.2227,0.7968,11.3109,36.554,1.1726,0.4641,1.5199,201.5503
16:11:03:655,-0.2513,1.0002,9.9518,35.4574,1.1897,0.9699,1.7447,199.2794
16:11:03:673,0.201,1.2108,8.7601,34.7771,1.2398,1.1996,1.8388,196.8244
16:11:03:693,1.0313,1.4644,7.1809,34.5878,1.3766,1.1495,1.8889,194.3864
16:11:03:714,1.7037,1.8497,5.9103,34.0293,1.5098,0.9797,1.8742,192.0275
16:11:03:736,2.0148,2.3761,4.7354,32.0035,1.5953,0.7329,1.7447,189.917
16:11:03:755,2.7637,3.5055,1.5649,32.741,1.3619,0.2234,1.3122,186.8364
16:11:03:775,3.4193,3.9123,1.6439,34.5354,0.8464,0.3456,1.0691,185.6201
16:11:03:795,3.5127,4.1779,3.2949,33.092,0.2526,0.4922,0.7294,184.6183
16:11:03:820,2.6967,4.2257,5.4245,32.6971,-0.1335,0.2894,0.286,184.174
16:11:03:840,2.0004,3.9003,7.1665,33.0416,-0.2348,-0.2506,-0.0915,184.3365
16:11:03:857,1.5769,3.6586,8.7721,30.8458,-0.1127,-0.9384,-0.2834,185.0378
16:11:03:902,1.5769,3.5653,8.9803,31.7616,0.117,-1.5798,-0.3457,186.1269
16:11:03:902,1.4836,4.1444,7.6977,32.105,0.2819,-1.7191,-0.3041,187.2583
16:11:03:914,1.9167,4.9986,6.5252,33.7564,0.0999,-1.2157,-0.16,187.987
16:11:03:935,3.1418,4.8431,7.1091,32.3746,-0.4951,-0.3642,-0.0671,188.2059
16:11:03:954,4.0247,3.5844,10.9783,32.9785,-1.3723,0.1685,-0.2858,188.3465
16:11:03:974,2.7494,2.7422,15.9673,33.6015,-2.0173,0.072,-0.772,188.9751
16:11:03:993,1.0648,1.4764,18.542,31.9214,-1.8402,-0.2054,-1.1838,190.0712
16:11:04:014,-0.7035,1.3759,17.5729,33.2192,-1.0632,-0.4912,-1.2962,191.3894
16:11:04:035,-0.5192,1.7946,14.4024,31.8297,-0.2593,-0.5413,-0.926,192.3649
16:11:04:055,0.6508,2.2899,11.4903,33.18,0.1207,-0.2347,-0.353,192.6794
16:11:04:075,1.5338,2.7135,9.88,33.207,0.051,0.1929,0.0025,192.4827
16:11:04:093,1.8664,3.1274,8.7984,33.1678,-0.0907,0.5631,0.0905,192.0577
16:11:04:121,1.9478,3.2782,7.8174,34.4929,-0.1664,0.6999,0.0172,191.6778
16:11:04:137,1.73,3.3715,6.8626,33.8018,-0.1444,0.634,-0.1502,191.5073
16:11:04:153,1.3878,3.5031,5.8816,33.207,-0.0602,0.4556,-0.3188,191.5912
16:11:04:173,1.1964,3.5653,5.2618,33.1384,-0.015,0.2002,-0.4373,191.8609
16:11:04:195,1.0576,3.5653,5.147,32.4684,-0.0406,-0.0807,-0.5167,192.3491
16:11:04:219,0.926,3.6227,5.5418,33.1678,-0.0712,-0.435,-0.5827,193.7446
16:11:04:320,0.8806,3.6826,5.7284,33.3533,-0.0492,-0.6073,-0.6181,194.4998
16:11:04:321,0.7585,3.874,6.5276,33.2567,-0.0321,-0.8431,-0.6902,195.3978
16:11:04:322,0.7561,4.0367,7.4154,33.8912,0.0168,-1.1876,-0.7427,196.4854
16:11:04:323,0.8614,4.2401,7.9202,33.126,0.1536,-1.4246,-0.7476,197.7154
16:11:04:323,0.7681,4.3884,7.9442,33.1876,0.3247,-1.344,-0.7439,198.8927
16:11:04:335,0.2656,4.5583,7.9418,33.9436,0.4236,-0.9812,-0.7232,199.9326
16:11:04:352,-0.2106,4.678,8.6812,31.9787,0.3797,-0.6268,-0.6352,200.7205
16:11:04:373,-0.5958,4.855,10.4471,34.8958,0.3027,-0.4888,-0.502,201.2966
16:11:04:392,-0.5168,4.9053,11.7942,35.5746,0.4041,-0.5572,-0.3811,201.771
16:11:04:416,0.0909,5.147,12.0862,34.9079,0.7083,-0.6537,-0.2834,202.1847
16:11:04:436,0.5001,5.9318,12.0646,35.8401,0.9026,-0.6293,-0.188,202.4924
16:11:04:455,0.4786,6.3099,11.8373,34.3435,0.8634,-0.3275,-0.0989,202.5734
16:11:04:473,-0.1149,6.0849,11.598,34.6564,0.6888,0.2247,-0.0207,202.3127
16:11:04:492,-1.785,6.0945,11.4712,34.6564,0.4615,0.6608,0.0245,201.7306
16:11:04:513,-3.07,6.3434,10.5691,33.1565,0.3393,0.976,0.1516,200.8478
16:11:04:533,-3.2853,6.3888,10.27,34.4429,0.194,1.1788,0.3703,199.6532
16:11:04:553,-2.0172,5.6662,12.1699,33.6335,-0.1493,0.8771,0.5193,198.4775
16:11:04:573,-0.3302,4.721,14.589,32.6595,-0.4706,0.122,0.4741,197.7626
16:11:04:593,0.6532,3.7328,14.3857,34.8679,-0.4804,-0.3544,0.3226,197.4556
16:11:04:616,0.3852,2.6417,12.8016,33.4217,-0.3106,0.0231,0.2371,197.0068
16:11:04:642,-0.8088,2.3139,11.6315,35.5737,-0.1823,1.0371,0.3629,194.0813
16:11:04:654,-0.0838,2.0626,8.7338,34.9609,0.1402,2.4006,1.2316,191.5671
16:11:04:674,1.0241,2.2875,7.5876,33.5251,0.3051,2.3273,1.5089,188.9683
16:11:04:700,1.9214,2.5508,6.4128,31.3397,0.5055,2.045,1.5847,186.324
16:11:04:721,2.4526,2.7709,5.4006,32.3823,0.6961,1.7176,1.4808,183.9658
16:11:04:736,2.8379,3.003,4.4483,31.063,0.8011,1.3511,1.2707,181.9806
16:11:04:752,2.9049,3.1657,3.9577,31.7025,0.7779,0.9663,0.9982,180.4548
16:11:04:772,2.7278,3.1442,3.8644,32.3201,0.635,0.5228,0.6818,179.4329
16:11:04:794,2.2493,3.0987,4.2018,32.4145,0.4505,0.0365,0.3556,179.0002
16:11:04:816,1.6606,3.2447,4.2233,32.3165,0.3271,-0.3544,0.1051,179.0068
16:11:04:835,1.0887,3.7376,4.4267,31.7025,0.2819,-0.413,0.0123,179.1248
16:11:04:852,1.0313,4.2496,5.537,31.9448,0.161,-0.3911,0.0404,179.2057
16:11:04:873,1.2849,4.343,6.4128,30.7083,0.0828,-0.4827,0.0343,179.3223
16:11:04:896,0.926,4.7258,7.1474,31.2836,0.073,-0.76,-0.0903,179.7284
16:11:04:915,0.8686,5.068,7.7527,34.2288,-0.043,-1.2707,-0.2211,180.5489
16:11:04:933,1.0983,5.2355,8.5639,32.0964,-0.2495,-1.5065,-0.2553,181.5198
16:11:04:953,1.2491,5.4748,9.7507,32.3201,-0.4755,-1.2426,-0.2271,182.3132
16:11:04:973,1.1868,5.8672,10.7677,30.9313,-0.6209,-0.8517,-0.1966,182.8602
16:11:04:996,1.4405,6.1807,11.5286,31.2652,-0.6673,-0.5914,-0.2088,183.2673
16:11:05:014,1.8712,5.9845,12.3757,30.8726,-0.715,-0.5487,-0.3359,183.758
16:11:05:036,2.0746,5.4724,13.5936,30.2153,-0.7968,-0.7991,-0.4959,184.5365
16:11:05:053,1.5099,4.8957,14.5173,32.1237,-0.8115,-1.1681,-0.5998,185.5759
16:11:05:073,1.4285,4.4267,14.4383,33.2438,-0.6563,-1.2157,-0.546,186.5646
16:11:05:098,2.0028,4.0558,14.5125,32.8534,-0.4218,-1.0777,-0.3835,187.2896
16:11:05:114,2.6225,3.7663,10.136,33.4743,0.3259,-1.0435,-0.2504,187.9079
16:11:05:141,2.2421,4.0391,7.4656,30.7744,0.4505,-0.7771,-0.2381,189.172
16:11:05:153,1.9095,4.0965,6.2572,32.9146,0.3002,-0.2762,-0.1868,189.3725
16:11:05:173,1.7468,3.8333,6.8411,32.0294,0.0681,0.1514,-0.1441,189.2924
16:11:05:199,1.0696,3.7041,6.9583,32.3579,0.0156,0.2589,-0.177,189.1893
16:11:05:219,0.5168,3.7017,5.9103,32.3823,0.1683,0.2198,-0.1942,189.105
16:11:05:240,-0.134,3.9075,4.9412,33.65,0.2783,0.2149,-0.1587,189.0195
16:11:05:253,-0.3805,4.0487,4.5918,32.7778,0.2709,0.2528,-0.0598,188.7836
16:11:05:276,0.1603,4.2329,4.733,32.2554,0.194,0.2467,0.0966,188.4147
16:11:05:296,0.8519,4.3358,5.5992,33.3559,0.1158,0.1404,0.1894,188.0137
16:11:05:314,1.3041,4.532,6.2142,32.6723,0.1414,-0.1015,0.1662,187.7855
16:11:05:334,1.4189,4.7234,6.1615,32.9145,0.2416,-0.2664,0.0893,187.6949
16:11:05:364,1.9478,5.0297,6.0012,31.3706,0.3015,-0.2567,0.0269,187.6964
16:11:05:372,2.8546,5.2427,5.872,31.8558,0.2538,-0.2616,-0.0659,187.7913
16:11:05:394,2.7805,5.1685,6.6233,32.473,0.0987,-0.4412,-0.3176,188.2327
16:11:05:412,1.3185,5.1613,6.5587,30.8926,0.0229,-0.4912,-0.5595,188.9153
16:11:05:432,0.5551,5.0608,6.317,32.1165,0.0144,-0.2261,-0.5448,189.4357
16:11:05:453,0.9308,4.9819,6.7047,32.8787,-0.1053,0.2369,-0.3762,189.5244
16:11:05:473,1.7731,4.5368,8.2193,33.491,-0.3106,0.6156,-0.2308,189.2594
16:11:05:496,2.0889,4.343,9.9852,32.8534,-0.4816,0.7207,-0.1942,188.8972
16:11:05:513,0.9332,4.4746,10.9376,31.2369,-0.5501,0.6804,-0.2247,188.5689
16:11:05:535,0.5049,4.0056,11.1434,32.8534,-0.5012,0.8172,-0.1404,188.1091
16:11:05:551,0.1029,3.9888,12.0096,34.2685,-0.4816,0.7805,0.0172,187.4971
16:11:05:574,-0.7801,4.9914,9.8177,33.4368,-0.0333,0.3517,0.2065,186.8578
16:11:05:594,-0.2943,4.9077,9.8106,32.1118,-0.065,-0.2322,0.2102,186.4448
16:11:05:613,0.7609,4.0391,12.3135,33.8051,-0.3167,-1.107,0.1858,186.3987
16:11:05:638,1.8401,3.8261,13.663,31.5551,-0.2752,-1.9353,0.1772,187.011
16:11:05:653,3.3523,4.1013,11.7344,32.4659,0.139,-2.5621,0.1699,187.9614
16:11:05:674,4.8215,4.7522,8.2385,33.5281,0.4774,-2.7319,0.1076,189.1609
16:11:05:692,4.9938,4.7115,7.0325,32.571,0.3357,-2.187,-0.0659,190.2846
16:11:05:712,4.1898,4.544,7.9848,33.2438,-0.026,-1.0361,-0.16,190.8872
16:11:05:732,2.6034,4.1013,8.083,32.846,-0.1774,0.0854,-0.0854,190.7663
16:11:05:753,2.1751,3.9912,7.5015,31.6639,-0.0687,0.7867,0.1894,189.9774
16:11:05:775,2.278,4.0487,6.7549,33.1829,0.0657,0.9907,0.446,188.8652
16:11:05:797,2.6249,4.1276,5.5801,33.3965,0.1488,0.7622,0.5413,187.7648
16:11:05:812,2.9839,4.2042,4.6732,32.3293,0.0852,0.414,0.4912,186.9439
16:11:05:833,2.7254,3.862,5.3025,31.8886,-0.1701,0.3224,0.3776,186.2687
16:11:05:852,2.2205,3.527,6.4845,32.2314,-0.3802,0.4959,0.2627,185.5715
16:11:05:876,1.9047,3.3476,6.2716,31.1303,-0.357,0.7341,0.2224,184.8362
16:11:05:893,1.8305,3.3093,6.5874,32.427,-0.2972,0.9504,0.2456,183.9689
16:11:05:913,2.2181,3.3763,7.2072,31.9059,-0.2776,1.1178,0.2652,183.0261
16:11:05:933,2.412,3.3787,7.6283,32.634,-0.2129,1.0408,0.1699,182.2033
16:11:05:956,2.0483,3.3236,8.1093,32.091,-0.1457,0.6694,-0.0231,181.7702
16:11:05:977,1.5338,3.2351,8.9085,32.9658,-0.1383,0.2442,-0.1929,181.7045
16:11:05:995,0.6341,3.8477,8.8989,32.9774,-0.1139,0.1978,-0.1636,181.768
16:11:06:014,0.122,4.4363,9.4062,32.0434,-0.1884,0.8062,-0.0195,181.8219
16:11:06:034,0.7489,4.4794,10.1408,33.2719,-0.3448,1.3364,0.176,180.3358
16:11:06:055,2.3497,3.7926,10.2365,33.0332,-0.5501,1.3316,0.2591,179.3434
16:11:06:078,3.015,2.5268,12.0742,33.0332,-0.9606,0.7513,0.0868,178.8073
16:11:06:097,2.4694,1.5338,15.082,32.551,-1.3417,0.2112,-0.1905,178.7721
16:11:06:117,1.4644,1.1557,15.3715,34.4061,-1.1438,0.3701,-0.2479,178.7294
16:11:06:132,0.9404,1.4668,12.7657,32.6977,-0.638,0.8893,-0.0928,178.3525
16:11:06:153,1.6798,1.9214,9.9589,33.4374,-0.4254,1.1459,0.1039,177.7064
16:11:06:173,2.2588,1.9119,9.5474,32.7951,-0.6539,0.6315,0.099,177.2684
16:11:06:195,1.7444,1.8879,9.8034,31.9825,-0.9703,-0.2994,-0.116,177.3547
16:11:06:219,1.2108,2.1105,8.4084,33.2965,-1.0314,-0.7356,-0.2406,177.6972
16:11:06:233,0.9619,2.3115,8.2863,32.713,-1.0167,-0.3666,-0.1661,177.835
16:11:06:253,0.9021,2.4191,8.5878,31.8939,-0.9557,0.3346,-0.0634,177.6818
16:11:06:277,0.7155,2.3809,8.1452,29.6974,-0.8286,0.6547,-0.0879,177.4937
16:11:06:293,0.6245,2.3043,7.5996,34.1159,-0.7309,0.4592,-0.177,177.4698
16:11:06:312,-0.1196,2.1966,6.987,35.1004,-0.7357,0.0597,-0.2748,177.5966
16:11:06:433,-0.3829,2.1655,6.2596,34.5718,-0.8139,-0.1003,-0.2076,177.658
16:11:06:433,-0.3757,2.1057,6.8004,36.1091,-0.9862,0.1172,-0.0439,177.5039
16:11:06:433,-0.4427,1.8425,8.4658,35.25,-1.0815,0.6535,0.088,177.1408
16:11:06:434,-0.4905,1.3615,9.3464,33.4732,-0.8408,0.9809,0.2114,176.6128
16:11:06:434,-0.6221,1.2945,9.1573,32.7637,-0.4291,0.8258,0.2762,176.0604
16:11:06:434,-0.5312,1.4596,8.8558,33.3624,-0.1188,0.364,0.3067,175.5491
16:11:06:452,-0.3757,1.7085,8.7817,32.1826,0.073,-0.1443,0.3189,175.0735
16:11:06:473,-0.146,1.6678,8.7912,34.6892,0.2172,-0.3532,0.2921,174.6782
16:11:06:493,0.5168,1.3161,9.6742,33.0371,0.2856,-0.633,0.2298,174.2828
16:11:06:513,1.1868,1.1533,10.3944,32.0776,0.2783,-0.9152,0.1809,174.1183
16:11:06:534,1.8473,1.005,10.0929,32.9143,0.332,-0.9543,0.1736,173.7666
16:11:06:560,1.5147,1.2706,9.722,33.4405,0.161,-0.5157,0.2139,173.491
16:11:06:574,0.0455,1.5434,9.6981,34.2226,-0.2483,0.3261,0.336,172.9415
16:11:06:595,-0.3589,0.9691,10.3083,30.4928,-0.7247,1.1862,0.5999,171.9652
16:11:06:612,-0.5216,0.457,12.5073,33.381,-1.112,1.5356,0.7942,170.8064
16:11:06:632,-1.7731,0.8901,13.2921,33.1026,-1.0314,1.389,0.7881,169.6638
16:11:06:656,-3.1226,1.4931,11.5262,33.3634,-0.4963,1.097,0.7576,168.5752
16:11:06:675,-3.1872,1.5912,10.1958,33.1485,-0.1286,0.706,0.8101,167.4464
16:11:06:693,-1.8353,0.8231,10.3561,34.3956,-0.252,0.2723,0.8565,166.3201
16:11:06:713,0.0455,-0.9691,13.4907,35.2131,-0.6954,-0.1589,0.7612,165.3632
16:11:06:731,0.0981,-2.0698,17.4221,33.7137,-1.0082,-0.5829,0.4326,164.768
16:11:06:753,-1.0002,-2.1846,17.2642,33.475,-0.5879,-0.5975,0.2053,164.4169
16:11:06:774,-1.4955,-1.9167,14.0291,35.0192,0.2331,-0.1699,0.3593,163.858
16:11:06:793,-1.0026,-1.3113,11.2726,34.8169,0.7425,0.2564,0.6916,162.9452
16:11:06:812,0.0096,-0.67,9.6957,32.6984,0.8879,0.4275,0.9359,161.7654
16:11:06:833,0.6054,0.0359,8.595,32.6181,0.9185,0.3542,0.9848,160.5769
16:11:06:857,0.9045,0.5025,7.1521,33.2705,0.9893,0.221,0.9041,159.4728
16:11:06:872,1.0624,0.8112,6.0347,33.0153,1.0247,0.1196,0.7966,158.4714
16:11:06:892,1.3185,0.9284,5.9773,33.2737,0.9673,0.0365,0.683,157.5908
16:11:06:913,1.4501,0.8495,6.2022,32.5519,0.9038,-0.1088,0.5327,156.9144
16:11:06:934,1.206,0.9045,5.9988,31.4353,0.9527,-0.2396,0.3629,156.4512
16:11:06:958,1.3185,1.529,4.867,31.4861,0.9576,-0.3776,0.1723,156.1112
16:11:06:976,1.3926,1.8257,4.9962,31.4844,0.8647,-0.1883,0.0893,155.8401
16:11:07:000,1.0863,1.9813,6.0849,33.0826,0.679,-0.1785,-0.0195,155.7747
16:11:07:011,0.402,1.8568,7.7743,29.0339,0.5666,-0.3532,-0.1135,155.8453
16:11:07:032,-0.0311,2.0411,7.669,29.7349,0.6888,-0.7173,-0.1893,156.134
16:11:07:055,-0.2297,2.7254,6.6951,30.1556,0.7792,-0.9103,-0.2504,156.5292
16:11:07:075,-0.3254,3.1633,6.0347,30.9907,0.5629,-0.7099,-0.2259,156.8428
16:11:07:096,-0.8686,3.4911,6.8866,32.2705,-0.0345,-0.3177,-0.1245,156.9254
16:11:07:115,-0.9284,3.3787,10.124,33.4529,-0.8787,-0.0429,0.0172,156.777
16:11:07:141,0.8638,2.2253,14.4239,31.1434,-1.5507,-0.1931,0.0819,156.5985
16:11:07:160,3.1298,0.8112,18.3434,32.6103,-1.8781,-1.0325,-0.0989,156.8743
16:11:07:174,4.7641,-1.1868,21.6862,30.6087,-1.8072,-1.7826,-0.4556,157.6407
16:11:07:193,2.3569,-1.1462,20.7314,31.3855,-1.1206,-1.7655,-0.8001,158.6827
16:11:07:212,-0.3087,-0.7322,15.9194,30.9804,-0.1004,-0.633,-0.656,159.3289
16:11:07:233,0.0455,0.792,13.4453,32.6583,0.5116,0.8062,0.1748,158.8516
16:11:07:254,2.2923,1.5099,10.9352,32.3449,0.8684,1.2693,0.9127,157.5525
16:11:07:273,4.1516,2.2397,9.4612,32.2988,0.9307,0.8551,1.0141,156.2482
16:11:07:293,4.6038,2.5388,8.6859,30.3409,0.85,0.1624,0.5841,155.5394
16:11:07:312,3.9242,2.4455,7.925,29.1382,0.7437,-0.3849,-0.0256,155.6061
16:11:07:333,2.4407,2.3904,6.6377,30.5223,0.6863,-0.4986,-0.5118,156.199
16:11:07:356,0.9906,2.4,5.3695,30.9009,0.5922,-0.2078,-0.7439,156.9672
16:11:07:374,0.0574,2.3497,5.0895,31.4346,0.343,0.1086,-0.7549,157.644
16:11:07:393,-0.2823,2.0459,5.8265,29.7688,0.0547,0.2455,-0.6633,158.186
16:11:07:412,-0.1747,2.2086,7.6068,31.6021,0.0425,0.0036,-0.5778,159.2955
16:11:07:438,0.0526,2.2277,6.9153,30.1797,0.299,-0.2713,-0.5497,159.8569
16:11:07:455,0.0407,2.3569,6.9416,29.9846,0.4285,-0.4143,-0.5631,160.4783
16:11:07:476,-0.0814,2.4431,7.0684,30.1797,0.4261,-0.402,-0.5558,161.1051
16:11:07:493,0.012,2.5842,7.1641,30.9239,0.3809,-0.2567,-0.4654,161.573
16:11:07:511,0.3063,2.7422,7.4369,28.2188,0.3027,-0.0331,-0.3286,161.8315
16:11:07:534,0.6604,2.7924,8.1308,29.7638,0.1927,0.144,-0.2247,161.9702
16:11:07:552,0.4762,3.0365,8.3868,28.2354,0.1573,0.265,-0.1966,162.0148
16:11:07:573,0.1555,3.3069,8.3151,29.3006,0.2025,0.4128,-0.177,162.016
16:11:07:592,-0.1101,3.6538,8.6477,30.1262,0.2147,0.5179,-0.1319,161.9368
16:11:07:613,-0.2632,3.9051,9.0999,31.0163,0.1989,0.5081,-0.094,161.7868
16:11:07:636,-0.2249,4.0343,10.1886,29.3006,0.1231,0.3395,-0.0207,161.6401
16:11:07:667,0.2656,4.252,11.921,29.8027,0.0168,0.0207,0.0868,161.4948
16:11:07:672,0.6843,4.4124,12.8662,29.9042,0.0046,-0.2774,0.1748,161.3513
16:11:07:691,0.9141,4.2114,13.0624,28.766,0.0645,-0.3666,0.2102,161.2114
16:11:07:710,0.4355,3.807,13.864,28.0939,0.0608,-0.3422,0.2285,161.0399
16:11:07:730,-1.084,3.7639,14.4861,28.392,0.1646,-0.1455,0.3165,160.6726
16:11:07:751,-2.2181,4.2999,13.943,29.1204,0.5458,0.177,0.5865,159.9039
16:11:07:775,-1.5266,4.6971,12.9859,28.9969,0.8732,0.0805,0.9408,158.7917
16:11:07:792,0.4331,4.3741,13.4166,27.295,0.8867,-0.5071,1.1338,157.765
16:11:07:814,1.596,3.8692,13.5027,27.7557,0.839,-1.0386,1.0495,157.0971
16:11:07:835,1.8497,3.4409,12.5216,26.2582,0.9355,-0.9897,0.8553,156.0599
16:11:07:856,1.2586,3.2853,11.3013,28.0403,1.065,-0.341,0.7062,155.1005
16:11:07:874,0.8303,3.2184,8.0806,28.5614,1.1066,0.9174,0.8162,153.8461
16:11:07:894,1.3304,3.1466,7.1163,28.5252,0.9612,1.0982,0.8871,152.4116
16:11:07:918,2.254,3.1083,6.0706,27.8943,0.8073,1.0444,0.8663,151.0176
16:11:07:935,2.7709,3.1346,5.4652,28.5252,0.6203,0.9601,0.7001,149.8673
16:11:07:952,2.7039,2.924,5.1541,27.3916,0.4334,0.8942,0.4387,148.9772
16:11:07:971,2.1679,2.6297,5.147,30.2242,0.3088,0.8184,0.1601,148.3941
16:11:07:991,1.6415,2.589,5.2355,28.8148,0.2575,0.7561,-0.0476,148.0414
16:11:08:013,1.6941,2.5627,5.3982,25.7633,0.2709,0.6743,-0.1392,147.8318
16:11:08:033,1.4836,2.5723,5.2475,28.4701,0.3247,0.6107,-0.2125,147.7316
16:11:08:054,1.0911,2.601,4.9412,28.4102,0.3833,0.5558,-0.298,147.7179
16:11:08:073,0.6197,2.9791,4.3645,28.1873,0.4236,0.4458,-0.3481,147.8028
16:11:08:092,0.5288,3.4576,3.9314,28.8936,0.4261,0.3053,-0.3408,147.9653
16:11:08:113,0.7466,4.008,3.7089,28.3208,0.3369,0.0939,-0.3408,148.2454
16:11:08:132,1.1486,4.0678,4.0128,27.0939,0.0901,-0.2005,-0.4275,148.8009
16:11:08:153,1.2682,3.8644,5.3671,28.7155,-0.313,-0.4595,-0.6291,149.6731
16:11:08:172,0.725,3.4169,6.5515,29.4652,-0.6881,-0.4583,-0.8344,150.7503
16:11:08:193,-0.5216,3.7017,8.5496,28.4005,-0.9923,-0.0722,-0.8918,151.6634
16:11:08:214,-0.9188,3.2877,11.3659,28.8251,-1.2941,0.5057,-0.6987,152.1182
16:11:08:232,0.3637,2.2493,16.8622,29.2264,-1.6875,1.0371,-0.3444,152.0585
16:11:08:251,1.5075,1.0863,23.6124,29.0855,-2.0161,1.0115,-0.2223,152.0272
16:11:08:271,0.2752,0.4977,24.1603,30.0455,-1.3552,0.8673,-0.3958,152.2644
16:11:08:295,-1.4477,1.4118,17.1422,29.5243,0.007,1.0603,-0.4397,152.4094
16:11:08:314,-1.6032,2.8044,10.7007,30.044,0.8549,1.5124,-0.1123,152.0044
16:11:08:334,-0.5623,4.8431,6.853,29.8747,0.5764,1.2118,0.2505,151.1186
16:11:08:353,-0.1747,4.855,6.6855,29.4822,0.2722,0.2308,0.1394,150.0892
16:11:08:370,0.0622,4.8622,5.8528,29.9405,0.1268,-0.6891,-0.0891,150.5092
16:11:08:390,-0.2823,4.9938,4.3908,30.0527,0.0034,-1.1815,-0.3872,151.4547
16:11:08:413,-0.5121,4.8263,3.7328,31.1371,-0.28,-1.1876,-0.6267,152.6342
16:11:08:434,-1.1055,4.2688,4.922,32.3164,-0.6979,-0.8871,-0.7977,153.8012
16:11:08:560,-2.0387,3.6084,6.8866,31.8432,-1.0119,-0.6085,-0.9333,154.9941
16:11:08:561,-2.7996,3.3739,8.3844,32.7684,-1.029,-0.501,-0.959,156.1561
16:11:08:562,-3.0341,3.4146,9.0281,32.8381,-0.7736,-0.5022,-0.8515,157.2185
16:11:08:590,-2.8546,3.6012,9.5139,31.3003,-0.4291,-0.5255,-0.6816,158.0862
16:11:08:591,-2.3306,3.8309,9.1143,30.3886,-0.0406,-0.4558,-0.502,158.7765
16:11:08:591,-2.1631,4.0774,8.4921,31.3939,0.2795,-0.2481,-0.3774,159.2994
16:11:08:591,-2.2469,4.3525,7.8867,30.0193,0.4261,0.0426,-0.2956,159.6348
16:11:08:592,-2.1703,4.5081,8.1452,31.4383,0.4334,0.3297,-0.1477,159.718
16:11:08:614,-1.7659,4.6181,8.8654,31.0482,0.3968,0.4238,0.005,159.6143
16:11:08:632,-1.3495,4.5224,8.9946,32.0923,0.4359,0.2577,0.0905,159.5084
16:11:08:651,-1.1581,4.5057,8.9611,31.1299,0.5079,-0.0025,0.1308,159.4587
16:11:08:672,-1.2036,4.5535,8.942,31.9991,0.5409,-0.1883,0.1882,159.4406
16:11:08:691,-0.9571,4.6756,9.2507,31.5148,0.5214,-0.2628,0.3177,159.3278
16:11:08:715,-0.3446,4.8024,10.0475,33.5546,0.4554,-0.3349,0.4912,159.0621
16:11:08:731,0.5192,4.9149,11.0596,32.2039,0.4065,-0.4986,0.6207,158.7933
16:11:08:752,0.7729,5.2953,11.1721,30.6944,0.4933,-0.5804,0.6342,158.5638
16:11:08:773,0.4164,5.8457,10.0786,31.4256,0.6521,-0.4558,0.5364,158.3514
16:11:08:791,-1.5027,5.4891,11.464,31.9852,0.4432,-0.1052,0.2884,158.1603
16:11:08:813,-2.8786,5.8337,12.1771,29.5421,0.5006,-0.06,0.2652,157.9036
16:11:08:831,-3.1107,6.2788,11.933,31.2665,0.7755,-0.1858,0.391,157.4833
16:11:08:852,-2.0794,6.2094,11.5693,29.7534,0.9465,-0.4998,0.5327,157.2975
16:11:08:871,-1.0528,5.8026,11.9474,31.8627,0.9038,-0.7759,0.5254,157.3101
16:11:08:894,-0.1149,5.0345,12.883,30.8819,0.7889,-0.9066,0.4081,157.5567
16:11:08:914,0.6078,3.9912,13.1103,32.5309,0.7828,-0.8895,0.2481,158.0042
16:11:08:932,0.6915,3.4959,11.6148,30.3085,0.9527,-0.567,0.0978,158.4502
16:11:08:951,0.5551,3.3428,9.3129,29.7563,1.1249,0.039,0.0599,158.5263
16:11:08:971,0.6461,3.2758,7.2981,29.2142,1.1384,0.7402,0.1467,158.0871
16:11:08:990,0.6437,3.2566,5.3647,30.4056,1.0308,1.3108,0.2591,157.1376
16:11:09:013,0.5264,3.2997,3.8596,29.8487,0.8378,1.7384,0.3519,155.8268
16:11:09:031,0.7849,3.259,3.3643,29.7563,0.5409,2.0231,0.4656,154.1851
16:11:09:052,1.1677,3.1202,3.5701,29.329,0.2037,2.0377,0.4888,152.5368
16:11:09:071,1.0648,3.07,3.752,29.5599,0.0278,1.808,0.3776,151.12
16:11:09:093,0.9811,3.2495,3.6251,29.3681,0.0193,1.4489,0.2554,150.0425
16:11:09:113,0.9763,3.4648,3.003,29.0753,0.0596,1.0115,0.165,149.3186
16:11:09:130,0.9906,3.4481,2.4909,29.3077,0.0339,0.634,0.0831,148.9505
16:11:09:151,0.8901,3.5509,2.6919,31.2061,-0.1102,0.3432,-0.0182,148.8813
16:11:09:173,0.6772,3.7448,3.0987,31.1939,-0.2642,0.1001,-0.1062,149.0002
16:11:09:199,0.3948,4.1587,3.1418,29.7776,-0.3607,-0.132,-0.1758,149.3364
16:11:09:216,0.1436,4.8431,2.9097,31.3118,-0.4523,-0.3617,-0.2406,149.8657
16:11:09:234,0.402,5.2235,3.46,31.2078,-0.693,-0.6659,-0.3078,150.6572
16:11:09:253,1.7922,3.9242,9.5067,30.5984,-1.7083,-1.6482,-0.5228,151.8914
16:11:09:272,1.139,3.4911,13.2467,30.2952,-1.9306,-1.8168,-0.6645,155.4084
16:11:09:298,0.8447,3.8166,13.7133,30.0495,-1.7131,-1.5639,-0.6755,157.1239
16:11:09:312,1.9023,3.1824,14.0387,30.7752,-1.5959,-1.3159,-0.5937,158.6277
16:11:09:331,2.5771,2.2397,16.7498,31.5024,-1.8072,-1.1241,-0.6291,160.0773
16:11:09:351,1.3424,1.5003,18.3625,31.3301,-1.7645,-0.7368,-0.7537,161.4178
16:11:09:370,-0.9763,2.0626,16.6349,31.6847,-1.1988,-0.1528,-0.7024,162.3631
16:11:09:393,-1.3831,2.6728,13.8425,31.7269,-0.5488,0.2577,-0.3481,162.7476
16:11:09:412,-0.6652,3.4792,11.6746,32.3896,-0.1432,0.2564,0.0233,162.7698
16:11:09:431,0.4905,4.0941,9.9039,32.5094,0.0266,-0.1821,0.2017,162.8228
16:11:09:451,1.3424,4.264,8.7099,32.2313,0.0022,-0.7454,0.1198,163.1536
16:11:09:471,1.5051,4.1826,7.7815,31.9546,-0.1567,-1.074,-0.1245,163.8726
16:11:09:493,1.0193,3.9218,7.1785,33.5802,-0.3411,-1.0264,-0.4043,164.8268
16:11:09:514,0.4546,3.7878,6.3147,32.7827,-0.4718,-0.7649,-0.612,165.902
16:11:09:532,0.2225,3.6156,5.6925,32.5505,-0.6136,-0.4473,-0.7183,166.9606
16:11:09:552,-0.2345,3.4098,6.0155,34.0404,-0.792,-0.0783,-0.7806,167.9438
16:11:09:572,-0.7992,3.2112,7.1115,34.5009,-0.8897,0.1037,-0.8233,168.9161
16:11:09:598,-1.2227,3.2303,8.0495,32.2395,-0.7736,0.0341,-0.8087,169.8712
16:11:09:616,-1.5314,3.4337,7.523,33.614,-0.4584,-0.1638,-0.7232,170.8088
16:11:09:634,-1.4764,3.673,6.7478,32.3322,-0.2275,-0.3544,-0.5998,171.6525
16:11:09:653,-1.2108,3.874,7.2335,33.2851,-0.2251,-0.4094,-0.469,172.3888
16:11:09:672,-0.9141,3.728,8.2122,32.9367,-0.2764,-0.2689,-0.3823,173.0192
16:11:09:695,-1.017,3.6945,9.6526,34.1998,-0.2312,-0.0099,-0.2882,173.7869
16:11:09:711,-0.7872,3.46,11.1314,33.9869,-0.2165,-0.0368,-0.2113,174.1531
16:11:09:732,-0.6796,3.1944,12.1699,34.5238,-0.1053,-0.1357,-0.1477,174.4921
16:11:09:761,-0.8447,3.1274,12.5791,33.1666,0.1219,-0.1883,-0.0647,174.7737
16:11:09:777,-0.9212,3.4193,12.414,34.1998,0.4041,-0.0893,0.0929,174.8433
16:11:09:796,-0.3637,3.6419,12.5815,33.4591,0.5739,-0.0319,0.2884,174.6834
16:11:09:811,0.3493,4.0032,13.1629,34.1148,0.6045,-0.1088,0.4484,174.4141
16:11:09:831,1.2873,4.1516,13.1629,33.5885,0.6203,-0.1357,0.5291,174.0786
16:11:09:849,2.053,3.9123,12.6724,32.3322,0.6252,0.0646,0.5156,173.7495
16:11:09:869,2.0387,3.6012,12.4666,32.4679,0.5629,0.4421,0.4106,173.379
16:11:09:894,0.6341,3.6945,10.9663,31.4524,0.5983,0.9443,0.2786,172.928
16:11:09:912,-0.7322,4.0199,9.0473,32.4526,0.6875,1.4036,0.2603,172.2605
16:11:09:931,-1.7731,4.6875,8.004,31.7565,0.6387,1.5539,0.3336,171.4451
16:11:09:952,-1.4931,4.5559,8.6979,32.3508,0.398,1.1862,0.4521,170.5951
16:11:09:977,-0.6891,3.8788,10.8179,32.6591,0.106,0.3847,0.4668,170.1116
16:11:09:994,-0.4522,3.2136,12.4355,32.8032,0.0339,-0.3251,0.3605,170.0483
16:11:10:012,-0.3493,2.6297,12.1125,33.2129,0.2221,-0.6012,0.3079,170.1819
16:11:10:030,-0.4905,2.5364,10.6289,30.3299,0.4187,-0.3764,0.3531,170.1927
16:11:10:051,-0.6843,2.6178,9.1765,31.3519,0.4285,0.21,0.5083,169.7165
16:11:10:076,-0.3852,2.6417,8.3055,29.5075,0.2587,0.7818,0.7087,168.7918
16:11:10:092,-0.0191,2.5484,7.5924,28.8799,0.095,1.0628,0.8431,167.6229
16:11:10:114,0.2919,2.4861,6.865,30.9692,0.018,1.064,0.8577,166.4378
16:11:10:132,0.5336,2.3904,6.3936,28.2472,-0.0015,0.8844,0.7881,165.4125
16:11:10:150,0.8662,2.187,6.2285,28.5136,0.0974,0.32,0.5914,164.5797
16:11:10:170,0.9141,2.2827,5.8887,28.703,0.2404,0.0793,0.501,163.8855
16:11:10:192,1.0457,2.3186,5.2331,29.7636,0.3564,-0.1235,0.4314,163.3004
16:11:10:211,1.1198,2.4144,5.1039,29.4211,0.3772,-0.2493,0.3568,163.1731
16:11:10:233,1.206,2.6225,4.946,28.2414,0.3626,-0.3459,0.2786,163.1749
16:11:10:256,1.2873,2.8666,4.7402,29.3664,0.31,-0.4754,0.1968,163.3279
16:11:10:274,1.4405,2.9647,5.1326,27.6963,0.1683,-0.5988,0.0819,163.6755
16:11:10:290,1.4548,3.0796,6.5372,27.5748,-0.0516,-0.7637,-0.0757,164.2216
16:11:10:310,1.6319,3.0341,7.6163,27.3451,-0.2324,-0.9555,-0.243,165.0481
16:11:10:331,1.9406,3.015,8.4036,28.2358,-0.4438,-1.0887,-0.3701,166.0498
16:11:10:352,1.7468,3.1035,9.3248,26.6483,-0.7015,-0.892,-0.463,167.0328
16:11:10:372,1.5099,3.6754,9.7747,26.1548,-0.952,-0.3923,-0.4715,167.8201
16:11:10:391,2.2062,3.338,10.7892,27.0984,-1.2916,-0.0526,-0.4947,168.5044
16:11:10:411,3.5414,2.1703,14.5125,25.9578,-1.8145,-0.2396,-0.6963,169.5048
16:11:10:431,2.9982,0.6891,19.2766,27.0895,-2.1847,-0.7417,-1.1056,171.0758
16:11:10:450,1.0624,-0.4929,20.729,27.2274,-1.8402,-0.9017,-1.3914,172.9246
16:11:10:474,-0.8829,0.1268,18.9153,27.2809,-0.9569,-0.4998,-1.2021,174.3873
16:11:10:490,-0.3493,0.8375,15.0341,26.6234,-0.054,0.0573,-0.5692,175.0632
16:11:10:511,1.273,1.6223,11.7248,26.6141,0.4933,0.364,0.0221,175.0828
16:11:10:530,2.4837,2.6082,9.3153,26.037,0.6875,0.364,0.2371,174.8997
16:11:10:551,2.9456,3.2542,7.3508,26.4969,0.6582,0.1514,0.1369,174.8831
16:11:10:575,2.4814,3.4959,5.4413,28.4101,0.5043,-0.0099,-0.1319,175.148
16:11:10:666,1.6917,3.4744,4.2281,28.4194,0.2367,0.006,-0.3958,175.6915
16:11:10:666,0.4929,3.1777,4.0511,28.4694,-0.445,0.0939,-0.7305,177.114
16:11:10:667,-0.0239,3.1059,4.8,28.9951,-0.6649,-0.0099,-0.8417,178.0925
16:11:10:667,-0.4283,3.0078,5.6566,26.7809,-0.7125,-0.1773,-0.8954,179.1577
16:11:10:674,-0.7872,2.9743,6.1137,27.6376,-0.6099,-0.3361,-0.8967,180.2834
16:11:10:692,-0.8758,3.0485,6.4869,27.6456,-0.4743,-0.4509,-0.8417,181.4142
16:11:10:708,-0.792,2.9671,7.736,26.8716,-0.3863,-0.4815,-0.772,182.407
16:11:10:728,-0.9811,2.8714,9.0114,27.1452,-0.2825,-0.4998,-0.7329,183.3842
16:11:10:748,-1.1486,2.9264,9.5067,28.7875,-0.0931,-0.4876,-0.6572,184.2921
16:11:10:768,-1.2778,3.0245,9.6287,26.9879,0.0877,-0.3422,-0.5179,184.9832
16:11:10:792,-1.273,3.07,9.9637,26.5303,0.1622,-0.1418,-0.3579,185.4605
16:11:10:811,-1.2156,3.1107,11.0955,27.9288,0.1512,-0.0074,-0.2027,185.7757
16:11:10:830,-0.8638,3.1633,12.4666,27.8578,0.1671,-0.0282,-0.0622,185.9089
16:11:10:849,-0.1484,3.0796,13.6678,26.255,0.2306,-0.2396,0.0575,186.0212
16:11:10:872,0.8231,2.9336,14.7254,26.3721,0.2746,-0.5279,0.1394,186.0817
16:11:10:892,1.462,2.8355,14.5197,26.5704,0.4334,-0.4204,0.1736,186.1593
16:11:10:913,1.0672,3.3476,11.9928,24.5217,0.6802,0.287,0.1894,186.0107
16:11:10:930,0.8782,3.137,11.0788,28.219,0.558,0.9565,0.231,185.6414
16:11:10:949,-0.5001,3.1083,11.0022,29.1516,0.3296,1.4452,0.2212,185.0831
16:11:10:969,-2.5484,3.6993,9.5378,26.4276,0.4273,1.8483,0.2285,184.3185
16:11:10:990,-3.7208,4.4124,8.3701,27.2641,0.5202,1.8569,0.3434,183.373
16:11:11:012,-2.9408,4.0965,9.3703,27.6376,0.2551,1.1507,0.4949,182.5058
16:11:11:031,-1.273,2.8283,13.4357,27.5087,-0.2116,-0.0441,0.4802,182.0941
16:11:11:052,-0.5862,1.4237,17.2858,27.2065,-0.3717,-1.1644,0.2823,182.2558
16:11:11:071,-1.1797,0.7202,12.9284,26.4508,0.7376,-0.4839,0.4093,182.5236
16:11:11:092,-0.9739,0.9236,10.7581,27.8996,0.872,0.8624,0.8467,182.19
16:11:11:112,0.1986,1.0098,10.2628,28.3147,0.7107,1.7567,1.2487,179.283
16:11:11:130,0.8566,1.3424,9.454,28.6667,0.6998,1.9497,1.3867,177.2689
16:11:11:153,1.0768,1.6487,7.614,27.7997,0.8818,1.6626,1.3256,175.3988
16:11:11:173,1.529,2.0243,5.7332,29.5418,1.0199,1.2143,1.2487,173.783
16:11:11:191,2.1679,2.3689,4.386,27.7276,0.9991,0.8575,1.1583,172.4011
16:11:11:209,2.6058,2.6488,3.5868,28.5219,0.8512,0.6926,1.0117,171.2599
16:11:11:230,2.7087,2.924,3.2806,29.5418,0.6362,0.6315,0.7917,170.3357
16:11:11:256,2.6345,2.9862,3.2782,28.5973,0.4139,0.5167,0.5327,169.7294
16:11:11:276,2.4263,2.9336,3.9649,27.0903,0.2147,0.3151,0.2676,169.4835
16:11:11:294,2.1416,2.9169,4.4602,27.6354,0.1207,0.0378,0.0269,169.5891
16:11:11:312,1.8161,3.0006,4.3071,28.1928,0.1329,-0.2274,-0.1551,170.0021
16:11:11:329,1.4955,3.1896,4.0822,28.4227,0.1219,-0.4521,-0.2907,170.6601
16:11:11:353,1.3352,3.4839,3.8381,30.4364,0.0009,-0.6513,-0.4177,171.5654
16:11:11:370,1.7707,3.3667,4.5535,30.1826,-0.3228,-0.903,-0.5497,172.6826
16:11:11:392,2.1129,2.7733,7.2814,30.1911,-0.8616,-1.1497,-0.7366,174.1666
16:11:11:410,1.1486,2.2588,10.4686,31.0224,-1.2916,-1.2157,-0.9504,175.8423
16:11:11:431,-0.3135,2.4048,11.6866,31.0307,-1.3381,-1.0483,-0.9907,177.3768
16:11:11:453,0.4379,2.6082,11.2558,30.5382,-1.2257,-0.837,-0.7684,178.5897
16:11:11:471,2.8451,1.919,12.524,30.6408,-1.4505,-0.9457,-0.6047,179.7932
16:11:11:490,3.6706,1.0433,16.6397,31.7921,-1.9221,-1.1998,-0.7904,181.2823
16:11:11:509,2.7254,-0.335,19.4943,32.5535,-1.9428,-1.1925,-1.108,182.9715
16:11:11:536,-1.4716,0.67,14.3952,32.3069,-0.3363,-0.1247,-0.8967,185.4362
16:11:11:553,-0.4044,1.3352,11.6866,32.0401,0.1366,0.0927,-0.3493,185.8537
16:11:11:571,1.1701,1.9119,10.1743,32.9684,0.2575,-0.0441,-0.0366,186.0512
16:11:11:592,2.0985,2.3761,9.0664,32.8123,0.2062,-0.4216,-0.0695,186.4193
16:11:11:610,1.9023,2.5699,8.0518,33.1211,0.0425,-0.7246,-0.3335,187.1192
16:11:11:630,1.06,2.6082,7.3125,34.3868,-0.197,-0.7368,-0.6059,188.1058
16:11:11:652,0.3805,2.4694,7.2,34.6353,-0.4596,-0.49,-0.7427,189.1682
16:11:11:672,-0.1077,2.3641,7.6929,35.0199,-0.6624,-0.1638,-0.7684,190.1367
16:11:11:690,-0.5934,2.2923,8.7242,34.1602,-0.7394,0.0133,-0.7635,191.0638
16:11:11:713,-0.938,2.3809,8.7529,34.6696,-0.6014,-0.0062,-0.7281,191.9391
16:11:11:734,-0.9906,2.5555,8.1643,36.0068,-0.3595,-0.1052,-0.6462,192.7303
16:11:11:753,-0.8806,2.7589,7.535,35.1461,-0.2031,-0.1736,-0.5533,193.4975
16:11:11:771,-0.7322,2.8881,7.4584,34.5634,-0.1579,-0.1113,-0.4654,194.1534
16:11:11:791,-0.6437,2.9815,7.6762,34.5634,-0.1469,0.0292,-0.3933,194.6899
16:11:11:809,-0.6556,3.1418,8.0877,34.5634,-0.0956,0.1355,-0.3322,195.1352
16:11:11:831,-0.5958,3.2734,8.2792,34.5634,0.0107,0.1514,-0.2785,195.5193
16:11:11:850,-0.6508,3.3691,8.2863,34.5634,0.1145,0.0988,-0.2357,195.8624
16:11:11:870,-0.5671,3.3811,8.6022,34.5634,0.15,0.0622,-0.188,196.1611
16:11:11:895,-0.4403,3.1824,9.3942,34.5634,0.1243,0.0207,-0.1453,196.4187
16:11:11:909,-0.8159,2.9503,10.8443,36.9091,0.1109,-0.0697,-0.1392,196.6611
16:11:11:928,-1.3711,2.8857,11.6243,38.2233,0.2221,-0.1553,-0.0928,196.8603
16:11:11:948,-0.9787,2.8762,11.7559,38.4693,0.3992,-0.2078,0.0709,196.951
16:11:11:969,0.1675,2.9001,13.3065,39.2764,0.387,-0.3214,0.253,196.8602
16:11:11:988,0.9404,2.4431,15.0197,38.9293,0.3809,-0.1553,0.2444,196.7733
16:11:12:008,0.3183,2.1631,14.2516,38.9293,0.4884,0.3566,0.22,196.3128
16:11:12:031,-0.5719,1.9956,13.8616,40.3259,0.4921,0.8698,0.2957,195.8577
16:11:12:051,-1.9238,2.2588,11.5214,39.1241,0.6839,1.3963,0.4411,195.0682
16:11:12:072,-2.8235,2.7494,8.5735,39.7887,0.9075,1.8203,0.6415,193.8674
16:11:12:091,-3.1202,3.4887,7.5087,41.2685,0.8036,1.8483,0.8333,192.4359
16:11:12:110,-2.3378,3.1514,8.5208,39.2661,0.3833,1.2986,0.9225,191.1017
16:11:12:132,-1.7946,2.2995,10.9687,39.7381,-0.0345,0.4434,0.8174,190.156
16:11:12:150,-1.9047,1.4022,13.0433,41.013,-0.1567,-0.2371,0.6537,189.5969
16:11:12:171,-2.0148,0.95,12.3685,38.8615,0.0877,-0.352,0.6867,189.0554
16:11:12:189,-1.6965,0.9643,10.4351,40.3943,0.3308,0.1159,0.9384,188.1012
16:11:12:209,-0.9547,1.0385,10.2748,40.7813,0.2856,0.7341,1.2145,186.6695
16:11:12:232,-0.1268,1.1127,10.3729,39.5509,0.2196,1.1055,1.3904,184.9789
16:11:12:250,0.4211,1.3017,9.5713,39.7267,0.3626,1.1556,1.4442,183.2088
16:11:12:270,0.9045,1.5769,8.2122,39.8684,0.5874,0.9589,1.4161,181.5677
16:11:12:289,1.5242,1.8329,6.9153,38.9047,0.7498,0.7354,1.3611,180.056
16:11:12:309,1.9478,2.1703,5.7356,39.8546,0.8256,0.6523,1.2707,178.6921
16:11:12:331,2.1152,2.5196,4.8431,39.2287,0.817,0.662,1.1387,177.4628
16:11:12:351,2.2516,2.8331,4.2664,39.2372,0.7352,0.6767,0.9811,176.3648
16:11:12:371,2.3857,3.0532,3.9601,39.1866,0.6032,0.5912,0.7905,175.4878
16:11:12:391,2.3952,3.1896,4.0223,39.251,0.4627,0.4067,0.5633,174.9088
16:11:12:416,2.2205,3.2495,4.13,41.336,0.3259,0.1611,0.3165,174.7093
16:11:12:430,1.6917,3.2566,4.4507,39.6985,0.1891,-0.071,0.0844,174.8449
16:11:12:453,1.9717,3.082,5.8481,42.0729,-0.109,-0.5939,-0.2443,175.8324
16:11:12:471,2.4431,2.6106,7.267,40.4231,-0.3961,-1.0899,-0.4752,177.0497
16:11:12:491,1.584,2.0459,9.5474,41.1658,-0.7345,-1.3672,-0.7513,178.5741
16:11:12:513,-0.0981,2.1296,10.4184,42.3199,-0.8995,-1.0459,-0.8172,179.9227
16:11:12:530,-0.0431,2.3689,11.1386,39.6985,-0.9752,-0.4485,-0.5778,180.7667
16:11:12:549,1.4357,2.2229,13.0481,42.1004,-1.2098,-0.2787,-0.3725,181.3967
16:11:12:568,2.7063,1.395,15.807,42.1004,-1.4896,-0.6195,-0.4764,182.3102
16:11:12:588,1.6606,0.5743,18.1137,42.0362,-1.5323,-0.9506,-0.805,183.5917
16:11:12:611,-0.3876,0.4451,17.4509,41.1623,-1.1059,-0.6916,-0.9309,184.8035
16:11:12:631,-1.0552,0.9882,14.5125,42.6473,-0.4511,-0.1003,-0.6328,185.5198
16:11:12:651,0.0287,1.6678,11.7392,41.5668,-0.0284,0.2308,-0.1905,185.7408
16:11:12:774,1.0983,2.2804,9.99,43.9347,0.0925,0.199,0.0147,185.7746
16:11:12:774,1.651,2.7206,8.6477,43.5749,0.0388,-0.0539,-0.0427,185.9485
16:11:12:774,1.5912,2.991,7.925,42.9373,-0.1176,-0.2738,-0.2369,186.406
16:11:12:775,1.3352,3.07,7.4345,45.3608,-0.3008,-0.2982,-0.4336,187.0367
16:11:12:775,1.0361,3.1131,6.8889,42.0937,-0.4303,-0.1577,-0.5753,187.7636
16:11:12:775,0.7346,3.0939,6.4917,44.3123,-0.5391,-0.0246,-0.711,188.6283
16:11:12:789,0.3565,2.8714,7.2168,44.8937,-0.6551,-0.0062,-0.8576,189.6716
16:11:12:814,-0.3039,2.6584,8.2816,46.152,-0.6759,-0.0942,-0.9883,190.8459
16:11:12:828,-0.8638,2.5675,8.729,44.5525,-0.5061,-0.2078,-1.0262,192.0142
16:11:12:849,-1.1486,2.5962,8.5759,43.3655,-0.2434,-0.2518,-0.9736,193.1538
16:11:12:871,-1.0816,2.6201,8.6309,45.2234,-0.0284,-0.2066,-0.8771,194.2063
16:11:12:889,-1.1797,2.6919,8.7673,45.9041,0.1023,-0.1333,-0.8136,195.1521
16:11:12:916,-1.34,2.8546,8.6142,46.2971,0.2587,0.1501,-0.6755,196.6602
16:11:12:932,-1.34,2.8786,9.1286,46.1072,0.2587,0.2772,-0.5937,197.3068
16:11:12:952,-1.5362,2.8738,9.2435,45.35,0.3454,0.3859,-0.5118,197.7944
16:11:12:968,-2.065,2.9025,8.9085,45.2449,0.4786,0.4556,-0.4129,198.1369
16:11:12:988,-2.4,3.1681,8.8606,46.4264,0.5715,0.4947,-0.2516,198.3157
16:11:13:008,-2.5914,3.6443,8.8199,45.606,0.6179,0.5093,-0.0476,198.2303
16:11:13:031,-2.5484,4.0774,8.942,48.2997,0.5935,0.4874,0.1491,197.9839
16:11:13:049,-1.9884,4.2186,9.9541,48.1502,0.4444,0.3737,0.297,197.6403
16:11:13:069,-1.608,4.3167,11.6148,46.6309,0.2233,0.1135,0.3519,197.313
16:11:13:089,-1.9023,4.13,12.3924,47.6194,0.0925,0.0182,0.3287,196.9931
16:11:13:115,-2.4144,3.5031,12.4834,46.4529,0.0351,0.2076,0.3519,196.5801
16:11:13:134,-3.5557,3.149,12.8638,46.1256,-0.0394,0.4837,0.4521,195.8999
16:11:13:151,-4.5799,3.326,11.8014,45.729,0.0693,0.7854,0.6806,194.8667
16:11:13:169,-4.8838,3.6826,10.2796,48.0131,0.244,0.9504,0.9848,193.4494
16:11:13:189,-4.0367,3.5294,10.6074,47.6734,0.1768,0.6853,1.2206,191.9442
16:11:13:214,-2.9025,2.6991,13.0648,49.4472,-0.0516,0.006,1.2658,190.6546
16:11:13:230,-2.4909,1.8377,15.3045,47.1737,-0.0944,-0.6806,1.168,189.6975
16:11:13:249,-2.4814,1.2395,15.1011,45.5173,0.2294,-0.7979,1.1632,188.7104
16:11:13:268,-2.2636,1.0887,12.8231,44.6952,0.6374,-0.2591,1.3708,187.3265
16:11:13:288,-1.5577,1.261,11.2199,45.9841,0.7621,0.5435,1.6616,185.4187
16:11:13:314,-0.4762,1.4668,10.148,43.698,0.6863,1.0689,1.8632,183.1528
16:11:13:330,0.4786,1.6487,8.9516,43.3445,0.6277,1.1678,1.8876,180.8519
16:11:13:348,1.3902,1.73,7.8915,43.9651,0.5666,0.9956,1.7752,178.781
16:11:13:368,2.3928,1.6917,7.4465,43.0678,0.4921,0.6804,1.3721,176.9606
16:11:13:388,2.144,1.6917,7.0756,42.4051,0.6374,0.6449,1.1522,174.1494
16:11:13:412,1.8473,1.7874,5.8648,43.9268,0.872,0.5619,1.0019,173.0466
16:11:13:432,1.9095,2.0961,4.4937,42.3963,1.037,0.3798,0.9005,172.0788
16:11:13:451,2.3282,2.3857,3.5844,42.5094,1.026,0.1245,0.7856,171.3782
16:11:13:469,2.9336,2.5531,3.3523,42.4801,0.8574,-0.1113,0.5938,171.0049
16:11:13:488,3.3212,2.5747,3.807,42.3847,0.5935,-0.3251,0.3177,171.024
16:11:13:509,2.9264,2.5077,4.3597,42.45,0.3638,-0.4289,-0.0121,171.3915
16:11:13:529,2.1823,2.5627,4.3741,41.5706,0.2404,-0.4375,-0.2907,171.9889
16:11:13:548,2.2397,2.5292,4.3908,42.4264,0.1011,-0.5523,-0.4593,172.8088
16:11:13:568,2.6201,2.4215,4.6205,42.6636,-0.1786,-0.7612,-0.6169,173.9456
16:11:13:589,1.6654,2.3474,5.4437,42.3907,-0.5708,-0.7845,-0.849,175.2672
16:11:13:611,0.7011,2.0626,7.5805,41.7071,-1.0314,-0.7063,-1.0213,176.6741
16:11:13:630,0.9571,1.8449,11.0381,42.8323,-1.4798,-0.9225,-1.0103,178.2194
16:11:13:648,2.4,1.5482,14.1392,43.3111,-1.6911,-1.3941,-0.9003,179.8651
16:11:13:668,3.6395,1.1868,15.1705,40.8931,-1.6362,-1.658,-0.8588,181.606
16:11:13:689,3.3787,1.084,15.2542,42.0856,-1.5103,-1.41,-0.9467,183.2649
16:11:13:709,1.9023,1.2108,15.4816,44.5557,-1.415,-0.7784,-1.0176,184.6517
16:11:13:728,1.0074,1.5816,14.3976,42.6598,-1.1805,-0.1797,-0.9077,185.6836
16:11:13:748,1.0552,2.0865,12.4977,45.2796,-0.8665,0.0207,-0.7293,186.5116
16:11:13:768,1.742,2.4024,10.9854,44.7867,-0.7028,-0.2359,-0.6438,187.334
16:11:13:790,2.2971,2.5196,10.8969,44.0585,-0.7553,-0.6941,-0.7281,188.4111
16:11:13:808,2.077,2.4431,10.7797,43.3143,-0.8359,-0.9738,-0.9345,189.7697
16:11:13:831,0.7657,2.5149,9.4182,46.4011,-0.8139,-0.4937,-1.1716,192.6138
16:11:13:851,0.3924,2.6249,8.9563,45.1756,-0.8078,-0.2396,-1.2009,194.0184
16:11:13:868,-0.0287,2.6465,8.997,45.1133,-0.7724,-0.1589,-1.2461,195.4162
16:11:13:890,-0.5527,2.6106,9.1573,45.8122,-0.6747,-0.176,-1.2913,196.8651
16:11:13:910,-0.9117,2.6417,8.9157,45.2081,-0.4865,-0.2212,-1.2778,198.3129
16:11:13:929,-1.1294,2.747,8.3605,47.3511,-0.2532,-0.2139,-1.2131,199.7011
16:11:13:948,-1.3472,2.9767,7.5757,46.431,-0.0846,-0.1382,-1.1215,200.978
16:11:13:969,-1.3735,3.1896,7.4034,46.0326,-0.0174,-0.0025,-1.0054,202.0956
16:11:13:993,-1.4357,3.3547,7.925,46.8299,-0.0162,0.0976,-0.9064,203.1092
16:11:14:011,-1.7133,3.4361,8.5256,46.8679,0.0205,0.1074,-0.8307,204.0361
16:11:14:027,-1.9047,3.5342,8.7386,48.0794,0.1366,0.0659,-0.7354,204.8314
16:11:14:047,-1.9549,3.6203,8.8176,46.2964,0.2379,0.0036,-0.5973,205.522
16:11:14:066,-1.8544,3.5605,9.0592,46.2958,0.2856,0.006,-0.4361,206.0196
16:11:14:088,-1.7563,3.4169,9.6526,46.8384,0.2966,0.039,-0.2846,206.357
16:11:14:108,-2.0554,3.283,10.2437,47.2454,0.3406,0.0939,-0.1514,206.5051
16:11:14:130,-2.2373,3.2949,10.4231,47.5476,0.4408,0.1734,0.0172,206.4449
16:11:14:149,-2.0004,3.2016,11.0166,47.5429,0.5312,0.2919,0.2212,206.194
16:11:14:168,-1.8784,3.5533,11.8875,48.9645,0.569,0.3212,0.391,205.7074
16:11:14:191,-1.4548,3.9745,12.1484,48.2127,0.5825,0.243,0.5425,205.1376
16:11:14:208,-0.7753,3.7041,12.6437,47.2563,0.4933,0.1184,0.6012,204.5326
16:11:14:230,-0.8231,3.2614,12.6652,46.3809,0.365,0.039,0.5437,203.9906
16:11:14:250,-1.6367,3.0844,11.8875,47.3867,0.2941,0.2381,0.5083,203.4123
16:11:14:269,-2.6608,3.0461,11.4497,46.3809,0.1695,0.6596,0.5425,202.638
16:11:14:293,-2.4048,2.0195,12.67,45.8675,-0.2788,0.7268,0.6952,200.6534
16:11:14:313,-1.6654,1.328,13.3448,48.2207,-0.4413,0.342,0.7319,199.774
16:11:14:334,-1.0935,0.5695,13.017,45.414,-0.4254,0.1562,0.7771,198.926
16:11:14:347,-0.7322,0.079,13.1103,48.3578,-0.3448,0.2821,0.8822,197.9676
16:11:14:368,-0.6963,-0.1627,12.8758,46.0452,-0.1225,0.6181,1.03,196.7571
16:11:14:388,-0.7059,-0.0598,11.4449,45.4778,0.2599,0.882,1.2377,195.2624
16:11:14:408,-0.1172,0.1699,9.6718,46.1953,0.6191,0.9223,1.4832,193.5234
16:11:14:428,0.6915,0.5384,7.9226,45.7191,0.8402,0.7989,1.664,191.6524
16:11:14:448,1.5075,0.9763,6.25,45.6359,0.9221,0.6694,1.7227,189.7601
16:11:14:470,2.077,1.4046,5.2427,46.5076,0.8598,0.5912,1.6543,187.9755
16:11:14:491,2.4311,1.6774,4.989,45.5382,0.7034,0.5154,1.4796,186.4152
16:11:14:512,2.5412,1.7515,5.2546,44.7237,0.5764,0.4043,1.2389,185.159
16:11:14:528,2.4742,1.8544,5.336,45.9898,0.5385,0.2149,0.9628,184.2425
16:11:14:548,2.2923,1.8568,4.8503,45.4005,0.5678,-0.005,0.7038,183.6523
16:11:14:570,2.1344,2.0076,4.4841,45.0183,0.547,-0.1235,0.501,183.3228
16:11:14:591,2.0124,2.1894,4.2832,44.7216,0.4701,-0.1369,0.3446,183.1522
16:11:14:607,2.0028,2.3976,4.4961,45.907,0.343,-0.1565,0.2004,183.1419
16:11:14:628,1.8497,2.4526,5.3073,44.5467,0.1536,-0.3092,0.0062,183.388
16:11:14:648,2.12,2.4311,6.1137,44.9548,-0.0956,-0.6305,-0.2125,184.0192
16:11:14:673,2.5292,1.9836,7.1737,45.873,-0.4315,-0.8871,-0.4177,184.9376
16:11:14:688,1.6008,1.8544,8.997,45.9898,-0.8274,-0.7698,-0.612,185.9566
16:11:14:709,0.8638,1.9789,10.5739,45.473,-1.1072,-0.3837,-0.6486,186.8411
16:11:14:732,4.4746,0.3326,15.9697,46.9907,-1.6985,-0.705,-0.6254,188.603
16:11:14:747,4.5655,-0.8614,20.3079,45.7985,-1.9404,-1.3831,-1.0078,190.2033
16:11:14:770,2.4359,-1.6774,20.3486,46.7502,-1.5054,-1.3917,-1.3304,191.9969
16:11:14:792,-0.2728,-0.737,16.4052,47.3462,-0.5904,-0.5157,-1.1984,193.3447
16:11:14:910,-0.0766,0.1531,12.2536,46.9081,0.0364,0.3859,-0.568,193.8803
16:11:14:911,1.0792,0.9476,9.9254,47.1148,0.2135,0.8221,-0.0524,193.8197
16:11:14:911,1.8329,1.9597,8.4873,45.3645,0.2025,0.7048,0.0685,193.7111
16:11:14:911,2.065,2.5149,7.1641,46.2607,0.0938,0.1917,-0.1038,193.8885
16:11:14:912,1.8975,2.6943,6.2572,47.1527,-0.1335,-0.3129,-0.3958,194.4975
16:11:14:912,1.3519,2.6082,6.1472,49.5207,-0.4401,-0.4851,-0.6548,195.4411
16:11:14:927,0.6461,2.4766,6.4343,47.7739,-0.6979,-0.3055,-0.8185,196.4824
16:11:14:948,-0.0861,2.4239,6.9464,48.1237,-0.8396,-0.0575,-0.8905,197.5449
16:11:14:969,-0.5695,2.345,7.8508,49.7177,-0.8494,0.0487,-0.8991,198.5786
16:11:14:991,-1.06,2.4646,8.0064,49.8371,-0.7015,-0.0123,-0.8698,199.5628
16:11:15:009,-1.328,2.6178,7.3675,48.795,-0.478,-0.1101,-0.7965,200.4831
16:11:15:028,-1.3711,2.7494,6.944,51.0763,-0.3631,-0.1345,-0.6902,201.3084
16:11:15:048,-1.2849,2.8403,7.4632,50.0736,-0.3937,-0.0746,-0.5888,202.0062
16:11:15:071,-1.2873,2.7159,8.5831,51.4386,-0.4315,-0.0074,-0.5167,202.6283
16:11:15:090,-1.4501,2.5842,9.6048,50.4782,-0.3582,0.0207,-0.4605,203.1674
16:11:15:111,-1.5458,2.522,9.856,50.7314,-0.1725,0.0414,-0.3603,203.6025
16:11:15:129,-1.462,2.4167,10.7773,50.3071,-0.0088,0.0353,-0.2247,203.9033
16:11:15:153,-1.4189,2.3234,11.5932,49.3824,0.2001,0.0781,-0.0891,204.0482
16:11:15:171,-1.5075,2.4024,11.4473,46.9133,0.4994,0.0976,0.0563,203.8261
16:11:15:189,-0.6724,2.8187,11.5549,48.471,0.8634,-0.082,0.3507,203.4331
16:11:15:208,0.134,3.058,12.3733,49.4586,0.8989,-0.2286,0.4203,203.111
16:11:15:228,0.7537,3.4074,12.9165,49.2034,0.8696,-0.3349,0.413,202.8473
16:11:15:247,1.4261,3.1633,12.8447,49.4313,0.7718,-0.2432,0.358,202.6328
16:11:15:267,1.4477,2.6393,13.5864,48.5017,0.5348,0.0145,0.2432,202.4479
16:11:15:288,-0.1412,2.8044,12.7178,49.2488,0.4236,0.4299,0.121,202.2732
16:11:15:311,-1.5434,3.1346,10.9998,49.4095,0.4627,0.9467,0.1308,201.9358
16:11:15:330,-1.9669,2.9695,10.7773,48.6378,0.2905,1.0579,0.1931,201.4887
16:11:15:351,-1.6343,2.1224,12.6221,49.4095,-0.0467,0.6853,0.1955,201.1252
16:11:15:370,-1.5721,1.1916,14.4,48.5017,-0.2397,0.1562,0.1394,200.944
16:11:15:391,-2.1535,0.5216,13.2802,48.5017,-0.0907,0.0085,0.1699,200.7293
16:11:15:410,-2.4191,0.2608,11.1984,48.8283,0.1145,0.3713,0.4436,200.1294
16:11:15:426,-1.9286,0.0455,10.2724,50.3004,0.1158,0.8404,0.8345,199.0255
16:11:15:447,-1.1174,0.0215,9.7651,48.3059,0.1207,1.1031,1.146,197.5651
16:11:15:468,-0.402,0,8.9204,49.7721,0.2758,0.9883,1.2988,195.9843
16:11:15:487,0.055,0.0766,7.6187,48.1733,0.5299,0.6242,1.3085,194.4858
16:11:15:512,0.3996,0.213,6.0227,47.9931,0.7608,0.265,1.2646,193.153
16:11:15:528,0.8399,0.4642,4.9053,49.3699,0.8451,0.0744,1.234,191.9105
16:11:15:551,1.4237,0.8782,4.6349,47.5897,0.7767,0.0536,1.2084,190.7132
16:11:15:568,1.9262,1.2467,4.6205,48.6917,0.6558,0.0915,1.1619,189.5859
16:11:15:588,2.0339,1.6008,4.5344,48.2692,0.5629,0.1147,1.0508,188.5847
16:11:15:609,2.2301,2.0315,4.4602,46.0739,0.4676,0.028,0.8931,187.7644
16:11:15:631,2.4167,2.211,4.9244,47.9108,0.3174,-0.1125,0.694,187.2209
16:11:15:649,2.412,2.2373,7.0253,45.9841,-0.0308,-0.4057,0.1674,187.0688
16:11:15:672,1.4261,2.3809,7.523,47.1646,-0.0675,-0.3788,-0.0928,187.4041
16:11:15:689,1.0863,2.4766,7.145,47.1284,-0.0699,-0.308,-0.2125,187.7936
16:11:15:710,1.3735,2.3593,8.1739,46.3028,-0.2544,-0.2872,-0.254,188.2526
16:11:15:726,1.5123,2.0794,10.0499,47.1818,-0.5659,-0.3031,-0.3163,188.786
16:11:15:748,0.8423,2.2397,10.8084,46.7459,-0.6991,-0.1418,-0.3542,189.2569
16:11:15:771,0.658,2.546,11.2199,45.716,-0.693,0.0793,-0.298,189.636
16:11:15:788,1.9597,2.1655,12.4283,46.5329,-0.8091,-0.0404,-0.2247,189.9731
16:11:15:808,3.8381,1.0576,14.7637,47.9398,-1.073,-0.5816,-0.3396,190.6567
16:11:15:827,3.9601,-0.0646,17.8887,46.6731,-1.3136,-1.1681,-0.6596,191.8118
16:11:15:848,2.5412,-1.1198,19.2383,46.6731,-1.1279,-1.1522,-0.9015,193.1048
16:11:15:870,0.4307,-0.3996,16.5081,48.6721,-0.3729,-0.4961,-0.7843,194.0504
16:11:15:887,1.0217,0.3254,12.4546,47.6095,0.3332,0.0585,-0.2992,194.4095
16:11:15:906,2.3952,1.2802,9.7149,47.8276,0.6106,0.1562,0.0624,194.4007
16:11:15:926,3.1633,2.0076,8.059,48.6579,0.5592,-0.0734,0.0673,194.4977
16:11:15:947,3.1322,2.4814,7.0804,47.723,0.3284,-0.4192,-0.1624,194.9144
16:11:15:967,2.7924,2.6369,6.3051,48.0301,0.0254,-0.589,-0.4483,195.6772
16:11:15:988,2.4167,2.6106,6.3003,48.7596,-0.3191,-0.4619,-0.6877,196.6578
16:11:16:008,1.8831,2.5196,6.2213,49.0452,-0.6001,-0.1479,-0.8796,197.7439
16:11:16:028,1.0146,2.3952,6.4271,48.4165,-0.7797,0.1501,-1.0372,198.9165
16:11:16:046,0.1292,2.4359,6.8698,49.7348,-0.8555,0.3114,-1.1324,200.1312
16:11:16:070,-0.4834,2.589,7.0947,49.8366,-0.7688,0.2955,-1.1312,201.3282
16:11:16:088,-0.5934,2.7852,6.865,50.1217,-0.5977,0.1037,-1.064,202.5021
16:11:16:115,-0.67,2.8857,7.4273,49.0509,-0.4706,-0.2322,-0.9712,204.7354
16:11:16:127,-1.3328,2.7685,8.9827,50.7989,-0.467,-0.2041,-0.9565,205.8012
16:11:16:148,-1.6415,2.8235,9.7436,51.1914,-0.3191,-0.1883,-0.8673,206.765
16:11:16:167,-1.3615,2.8953,9.6168,51.0688,-0.0797,-0.1944,-0.6951,207.568
16:11:16:186,-1.1318,2.7661,9.5833,51.62,0.029,-0.1919,-0.5485,208.2243
16:11:16:207,-1.1797,2.5723,10.2748,51.7473,0.0083,-0.1003,-0.4385,208.7175
16:11:16:226,-1.4357,2.4167,11.4114,50.7017,0.0302,0.0158,-0.3212,209.0427
16:11:16:249,-1.3807,2.0889,12.2393,51.3693,0.1622,-0.0392,-0.1477,209.1779
16:11:16:267,-0.8853,1.9214,13.1892,51.9798,0.3442,-0.2811,0.0734,209.1281
16:11:16:290,0.1866,1.8688,13.6223,51.7473,0.5556,-0.5755,0.297,208.9228
16:11:16:307,1.06,2.1368,13.7013,51.7241,0.7156,-0.7845,0.4558,208.6107
16:11:16:328,1.9525,2.3809,13.0241,50.5865,0.8183,-0.7466,0.5144,208.2585
16:11:16:350,2.3713,2.2493,12.8877,50.9102,0.7462,-0.5487,0.4594,207.9328
16:11:16:367,1.3926,2.053,12.9356,52.2189,0.624,-0.2396,0.3373,207.6403
16:11:16:387,-0.3972,2.4933,10.7797,50.4583,0.7621,0.3188,0.3116,207.232
16:11:16:408,-1.4836,3.1418,8.4347,50.3547,0.9319,0.8893,0.4631,206.4772
16:11:16:430,-1.4309,3.8333,8.3533,50.8478,0.7914,0.9516,0.6183,205.5302
16:11:16:448,-0.2201,3.3715,10.6122,50.1587,0.4139,0.3175,0.6195,204.7757
16:11:16:467,-0.055,2.6752,12.6915,51.4166,0.1817,-0.5169,0.3996,204.4649
16:11:16:487,-0.524,1.9525,14.3186,50.0123,0.1976,-0.9103,0.176,204.4812
16:11:16:508,-0.8973,1.2275,14.5962,50.1075,0.3955,-0.7197,0.1687,204.3945
16:11:16:529,-1.0265,1.1222,13.5745,50.2142,0.6863,-0.0746,0.3776,203.8899
16:11:16:547,-0.3517,1.2156,12.3589,49.4787,0.8818,0.5851,0.6928,202.8878
16:11:16:566,0.9882,1.4979,9.1669,49.3377,1.1836,0.9785,1.0153,201.536
16:11:16:587,1.4548,1.6128,7.322,49.5371,1.3118,0.8917,1.019,198.6945
16:11:16:608,2.0794,1.718,5.9677,48.9233,1.3363,0.8013,0.9836,197.4082
16:11:16:633,2.4048,1.8281,5.0417,49.7783,1.263,0.7671,0.9041,196.2611
16:11:16:651,2.3809,1.8664,4.3621,49.0004,1.142,0.8013,0.7624,195.2224
16:11:16:670,2.1081,1.9789,3.9123,46.5803,1.0064,0.7879,0.6024,194.3199
16:11:16:686,1.943,2.077,3.5749,48.7403,0.861,0.6559,0.4729,193.6125
16:11:16:707,1.919,2.1392,3.3978,47.7238,0.6936,0.3994,0.3849,193.1176
16:11:16:730,2.1392,2.2421,3.3858,47.9247,0.5275,0.1135,0.3104,192.8357
16:11:16:747,2.2205,2.3617,3.6371,47.6308,0.3442,-0.1223,0.2212,192.794
16:11:16:767,2.0291,2.5962,3.74,47.3913,0.1598,-0.2823,0.1137,192.896
16:11:16:787,2.3091,2.7589,4.0965,49.6097,-0.065,-0.4583,0.0318,193.1878
16:11:16:807,2.9575,2.6632,5.5681,47.6308,-0.412,-0.7356,-0.072,193.7479
16:11:16:829,3.2016,2.4407,7.602,49.728,-0.7578,-1.0483,-0.2418,194.5941
16:11:16:850,2.9743,2.5412,8.8152,49.2722,-0.9838,-1.1901,-0.3909,195.6222
16:11:16:868,2.9456,2.9073,9.2219,49.2561,-1.1438,-0.9555,-0.408,196.5592
16:11:16:887,3.283,3.2782,9.1813,51.2343,-1.3882,-0.4509,-0.3628,197.2121
16:11:16:906,4.0582,3.1298,10.7509,50.1238,-1.8646,-0.0734,-0.4556,197.788
16:11:16:933,3.9769,2.4598,14.5843,51.7545,-2.412,-0.1528,-0.7867,198.6841
16:11:17:034,2.9288,1.1007,17.7021,51.1723,-2.5403,-0.4521,-1.2106,200.0695
16:11:17:034,0.9643,0.9978,18.0969,51.1143,-2.0186,-0.5584,-1.4135,201.6396
16:11:17:035,-0.0168,1.675,15.5557,52.485,-1.1634,-0.3862,-1.163,202.8719
16:11:17:036,0.9906,2.2397,12.9763,53.0304,-0.5281,-0.1357,-0.6352,203.589
16:11:17:036,2.8642,3.1178,10.2915,52.0912,-0.1591,-0.0746,-0.2882,204.3389
16:11:17:048,2.7613,3.2351,8.9372,52.7531,-0.1444,-0.2054,-0.4764,204.9879
16:11:17:067,2.2014,3.0987,7.9346,51.3428,-0.2422,-0.2115,-0.7012,205.8936
16:11:17:086,1.4381,2.8116,8.0327,50.882,-0.4169,-0.0441,-0.8796,206.9221
16:11:17:105,0.5791,2.5819,8.3175,52.0587,-0.5329,0.1673,-0.9858,207.9837
16:11:17:128,-0.2153,2.5268,7.925,51.7343,-0.4755,0.353,-0.9932,208.9942
16:11:17:146,-0.7992,2.6369,7.0421,52.1667,-0.3387,0.4299,-0.9199,209.904
16:11:17:166,-0.8734,2.7948,6.6233,53.0941,-0.2764,0.4091,-0.7989,210.7023
16:11:17:187,-0.8901,2.8546,6.5803,52.3251,-0.2886,0.3139,-0.6987,211.4023
16:11:17:207,-1.0696,2.8953,6.7454,53.106,-0.3094,0.243,-0.645,212.055
16:11:17:226,-1.2706,2.8666,7.2598,52.6642,-0.3228,0.2149,-0.5876,212.6458
16:11:17:249,-1.4381,2.7302,7.9514,52.5994,-0.335,0.166,-0.5106,213.1494
16:11:17:266,-1.3615,2.6178,8.808,52.1289,-0.2923,0.0964,-0.3823,213.5353
16:11:17:287,-1.0983,2.4622,9.6359,55.0241,-0.2006,-0.027,-0.2259,213.7803
16:11:17:313,-0.9547,2.4,9.8489,53.8391,-0.0528,-0.0966,-0.0806,213.8938
16:11:17:330,-0.8614,2.4335,9.801,54.5619,0.1219,-0.0282,0.077,213.8221
16:11:17:348,-0.5743,2.4718,9.8393,52.6202,0.2489,0.0451,0.2359,213.5635
16:11:17:366,-0.2417,2.4742,10.5978,55.1533,0.3088,0.0182,0.347,213.2158
16:11:17:389,0.3278,2.4287,11.5526,54.2362,0.3613,-0.121,0.4106,212.791
16:11:17:410,1.127,2.3115,12.6844,51.5145,0.4273,-0.3776,0.424,212.4567
16:11:17:429,1.2467,2.6441,12.8949,53.4589,0.5397,-0.5157,0.369,212.1917
16:11:17:447,0.8231,3.1848,10.9185,53.914,0.712,-0.1638,0.3385,211.8986
16:11:17:467,0.9978,3.3284,9.4899,54.2964,0.6252,0.4984,0.3898,211.4304
16:11:17:487,-0.0239,2.9791,11.8038,52.8442,-0.1396,1.0616,0.2346,210.8514
16:11:17:505,-1.3783,2.9575,11.3228,51.9021,-0.0699,1.1911,0.1882,209.8161
16:11:17:526,-0.8662,2.7589,12.1675,53.4147,-0.0443,0.9931,0.2921,209.2585
16:11:17:549,0.2201,1.9143,14.2947,51.2735,-0.1359,0.3615,0.2908,208.8683
16:11:17:568,0.7131,1.1079,15.7448,51.9309,-0.1017,-0.3556,0.1235,208.815
16:11:17:586,0.3493,0.6508,15.1179,52.3702,0.1378,-0.6342,-0.0231,208.973
16:11:17:608,-0.213,0.5671,12.7729,52.8032,0.4395,-0.2054,0.0502,208.9412
16:11:17:629,-0.4857,0.6939,10.8802,53.0826,0.5641,0.6022,0.3287,208.4114
16:11:17:646,-0.2536,0.7992,9.8536,52.3477,0.5324,1.1801,0.6232,207.4194
16:11:17:666,0.3709,0.9476,8.7649,52.0903,0.5373,1.2546,0.8052,206.2509
16:11:17:687,0.7561,1.1414,7.3125,52.1833,0.5837,1.0139,0.8443,205.1272
16:11:17:713,0.8016,1.3089,6.3147,53.4258,0.5764,0.7891,0.793,204.1084
16:11:17:728,0.7155,1.5601,5.8792,51.9668,0.5141,0.6853,0.7466,203.1602
16:11:17:746,0.6365,1.7731,5.6399,51.7001,0.4835,0.6914,0.7429,202.2278
16:11:17:766,0.591,1.9932,4.9986,49.8201,0.4811,0.6559,0.738,201.3036
16:11:17:785,0.4905,2.2086,5.1182,51.234,0.409,0.5191,0.6891,200.4715
16:11:17:808,0.5073,2.2851,5.5226,52.4833,0.3076,0.2784,0.6085,199.8022
16:11:17:830,0.5551,2.4048,5.8289,50.0337,0.2746,0.0329,0.5193,199.3059
16:11:17:848,0.469,2.5388,6.353,51.0159,0.2807,-0.1626,0.4264,198.9907
16:11:17:867,0.3685,2.6919,6.944,51.3975,0.3149,-0.2591,0.3483,198.7769
16:11:17:886,0.1651,2.9384,7.1139,49.6363,0.3833,-0.3006,0.2957,198.6241
16:11:17:906,0.1101,3.1346,7.4728,50.3036,0.409,-0.3739,0.2542,198.5252
16:11:17:927,0.4498,3.204,8.1715,50.5037,0.3064,-0.5755,0.1992,198.5705
16:11:17:946,0.9332,3.3499,9.4516,51.265,-0.0394,-0.7588,0.0477,198.7994
16:11:17:968,0.1196,3.7854,9.7675,50.4333,-0.153,-0.4485,0.0135,199.2434
16:11:17:989,-0.0215,3.8213,9.8417,50.1824,-0.2226,-0.0917,0.0758,199.2281
16:11:18:011,2.1416,2.8307,10.5069,50.0403,-0.5024,-0.1992,0.121,199.2496
16:11:18:028,3.9888,1.3208,15.5462,50.1708,-1.1328,-0.8529,-0.0854,199.7349
16:11:18:047,3.4792,-0.4522,19.0588,51.0567,-1.4859,-1.4735,-0.5521,200.8392
16:11:18:066,1.0744,-0.6197,17.4317,51.653,-0.9606,-1.2915,-0.7305,201.9339
16:11:18:087,-0.0694,0.4283,14.2349,50.8207,-0.1322,-0.3312,-0.32,202.3144
16:11:18:107,1.1581,1.1581,10.7533,51.9769,0.4273,0.48,0.3666,201.7822
16:11:18:127,2.5244,2.144,8.6142,50.6613,0.5592,0.6755,0.6891,200.9534
16:11:18:148,3.4648,3.1154,7.1785,48.762,0.4322,0.4483,0.5889,200.3358
16:11:18:167,3.5486,3.3212,6.2357,48.9722,0.172,0.1184,0.1919,200.2456
16:11:18:192,2.7063,3.1226,5.5131,48.851,-0.1383,0.0207,-0.2736,200.6385
16:11:18:207,1.7157,2.8283,5.4556,50.7826,-0.467,0.2601,-0.5888,201.2896
