Time,Acc_X,Acc_Y,Acc_Z,Meg,Gyr_X,Gyr_Y,Gyr_Z,Ore
20:06:06:020,-1.0122,3.3595,9.1813,24.4066,-0.477,-0.2169,-0.305,178.6791
20:06:06:042,-1.0122,3.3595,9.1813,24.9118,-0.477,-0.2169,-0.305,179.0366
20:06:06:058,-1.1821,3.5055,9.4325,24.1005,-0.477,-0.2169,-0.305,179.3413
20:06:06:077,-1.273,3.4122,9.5163,23.3102,-0.1361,0.0214,0.0688,179.2048
20:06:06:101,-1.4022,3.3835,9.5545,24.9006,-0.0751,0.0409,0.0725,179.0447
20:06:06:117,-1.2275,3.2782,9.4899,26.0208,-0.0042,0.069,0.1042,178.9299
20:06:06:135,-1.0935,3.3117,9.3918,28.2137,0.0288,0.0947,0.1409,178.7272
20:06:06:156,-0.9787,3.2806,9.2219,26.6511,0.0117,0.1105,0.1726,178.5535
20:06:06:176,-0.8423,3.3763,9.0688,26.2441,-0.0409,0.1325,0.2117,178.3557
20:06:06:195,-0.6843,3.4122,8.9755,24.1393,-0.1007,0.1643,0.2423,178.1592
20:06:06:215,-0.6102,3.4983,9.1861,25.1626,-0.1459,0.1729,0.2423,177.8698
20:06:06:237,-0.4331,3.4265,9.2076,23.4459,-0.141,0.146,0.2056,177.6146
20:06:06:258,-0.6317,3.3452,8.8869,24.8024,-0.1044,0.1448,0.1335,177.4668
20:06:06:277,-0.7968,3.3595,8.9276,24.6557,-0.1117,0.1325,0.1018,177.3172
20:06:06:302,-0.6341,3.3619,9.198,23.9598,-0.1545,0.0507,0.1238,177.2149
20:06:06:328,-0.6006,3.326,9.0903,23.2036,-0.1312,0.0043,0.125,177.0803
20:06:06:334,-0.8495,3.3787,8.7745,24.8464,-0.0555,0.0153,0.103,176.9348
20:06:06:358,-0.8303,3.4481,8.6189,24.9067,-0.0274,-0.036,0.1165,176.7998
20:06:06:383,-0.5599,3.6012,8.7218,24.6093,-0.0689,-0.1118,0.1458,176.6592
20:06:06:394,-0.4355,3.6562,8.9037,24.5848,-0.13,-0.1216,0.1372,176.5342
20:06:06:414,-0.3852,3.7041,8.9635,23.0934,-0.1361,-0.0556,0.1177,176.3839
20:06:06:435,-0.3924,3.7376,9.0473,25.1778,-0.1129,-0.0299,0.0835,176.3247
20:06:06:457,-0.5408,3.7352,9.1813,23.0718,-0.0934,-0.091,0.0248,176.3436
20:06:06:485,-0.7705,3.6371,9.2076,25.2825,-0.0653,-0.1509,-0.0314,176.403
20:06:06:505,-1.0217,3.5988,9.3416,24.4633,-0.025,-0.1521,-0.0399,176.4457
20:06:06:514,-1.0265,3.7065,9.3775,24.0216,0.0068,-0.1362,0.0053,176.5123
20:06:06:535,-0.8758,3.7041,9.2937,23.9561,0.0495,-0.1093,0.0505,176.4534
20:06:06:557,-1.0146,3.807,9.1406,23.891,0.1228,-0.0739,0.0468,176.3492
20:06:06:576,-1.0696,3.7902,9.5522,23.9394,0.0777,-0.124,0.0395,176.3041
20:06:06:597,-1.1103,3.7041,10.0068,23.9598,0.0569,-0.1619,0.0419,176.2321
20:06:06:629,-1.0816,3.716,10.1815,25.2825,0.1155,-0.1765,0.0529,176.1904
20:06:06:635,-1.0385,3.8979,9.9661,23.2829,0.2047,-0.1827,0.0737,176.1385
20:06:06:656,-0.8662,4.118,9.5282,24.1237,0.2524,-0.168,0.0945,176.041
20:06:06:681,-0.3805,3.996,9.588,24.6263,0.2389,-0.0984,0.0908,175.97
20:06:06:696,-0.2967,3.74,9.7173,24.0183,0.2084,-0.0519,0.0322,175.924
20:06:06:716,-0.5408,3.7496,9.5785,25.0996,0.2377,-0.0092,-0.0314,175.9169
20:06:06:739,-0.4786,3.6227,9.387,24.1065,0.3049,0.0543,-0.0302,176.0229
20:06:06:785,0.0311,3.4624,9.21,27.2404,0.3244,0.0983,-0.0265,176.1111
20:06:06:785,0.9308,3.0126,9.2004,22.3978,0.2133,0.0751,-0.0472,176.2238
20:06:06:794,1.3448,2.5077,10.1839,25.2592,-0.0983,-0.1582,-0.1413,176.4993
20:06:06:814,1.2371,2.0961,11.5693,23.0934,-0.5637,-0.6775,-0.3429,177.1462
20:06:06:834,1.3208,1.5266,12.1747,22.3978,-0.9229,-1.0818,-0.5237,178.1665
20:06:06:855,1.06,1.5075,11.7655,25.0528,-0.9449,-0.9206,-0.5689,179.1031
20:06:06:874,0.8829,1.8138,10.8658,23.9847,-0.6493,-0.3818,-0.382,179.6444
20:06:06:895,1.4644,1.8114,9.9111,23.0934,-0.218,0.1374,-0.0094,179.5701
20:06:06:914,1.9501,2.2421,9.1597,24.4823,0.1656,0.3317,0.1885,179.3026
20:06:06:935,2.1392,2.4718,8.2935,25.0691,0.4417,0.2547,0.1128,179.1151
20:06:06:963,1.9334,2.4598,7.7599,24.3492,0.5737,0.1093,-0.1657,179.2918
20:06:06:978,1.2754,2.4359,7.7647,26.4473,0.5297,-0.0324,-0.4712,179.8286
20:06:06:997,0.67,2.2756,7.6451,24.4002,0.3709,-0.1912,-0.6618,180.5672
20:06:07:019,0.2393,2.3569,7.8317,24.3752,-0.0152,-0.3464,-0.6288,181.3791
20:06:07:036,0.2297,2.6488,7.8078,23.6633,-0.1826,-0.3121,-0.5139,182.7713
20:06:07:068,0.4235,2.9336,7.8508,24.3752,-0.2925,-0.1814,-0.3857,183.2321
20:06:07:078,0.4929,3.1298,7.7001,24.3752,-0.334,-0.0544,-0.3172,183.5467
20:06:07:094,0.5719,3.2518,7.858,25.7431,-0.3377,-0.0006,-0.3258,183.8509
20:06:07:114,0.5958,3.271,8.2098,24.3752,-0.3279,-0.0861,-0.371,184.2285
20:06:07:134,0.6628,3.204,8.5663,24.3863,-0.2852,-0.2327,-0.4076,184.6928
20:06:07:157,0.7801,3.216,8.5065,24.5299,-0.1777,-0.3097,-0.4064,185.2103
20:06:07:181,0.8207,3.2949,8.351,25.6856,-0.0201,-0.212,-0.3722,185.6446
20:06:07:204,0.8255,3.4839,8.2576,25.0653,0.1253,-0.0336,-0.3356,185.986
20:06:07:215,0.7418,3.7831,8.1499,24.4271,0.1693,0.0446,-0.3344,186.3134
20:06:07:236,0.481,3.9266,8.2863,25.0404,0.1155,0.0727,-0.3405,186.5891
20:06:07:257,0.1029,4.0199,8.741,25.0617,0.0141,0.1093,-0.3356,186.8465
20:06:07:277,-0.268,4.0702,9.3894,27.0965,-0.0921,0.1044,-0.3172,187.0885
20:06:07:294,-0.4427,3.9553,10.0929,25.8585,-0.174,0.0165,-0.2806,187.2981
20:06:07:314,-0.4522,3.7807,10.7486,27.216,-0.2046,-0.0935,-0.2342,187.5115
20:06:07:334,-0.5073,3.7232,11.4975,26.3612,-0.1703,-0.0874,-0.1841,187.6891
20:06:07:357,-0.5791,3.7974,11.9952,24.0948,-0.0848,-0.0104,-0.1291,187.7541
20:06:07:375,-0.7083,3.6826,12.1268,26.5429,0.0557,0.1057,-0.0546,187.6597
20:06:07:395,-1.0648,3.7854,11.9952,27.2014,0.2096,0.2266,0.026,187.4634
20:06:07:414,-1.2227,3.9171,11.4066,26.5541,0.3306,0.3207,0.1299,187.1504
20:06:07:434,-1.072,3.8381,10.7605,25.0743,0.4002,0.4209,0.2447,186.6249
20:06:07:453,-1.151,3.7328,10.2245,26.6155,0.3782,0.504,0.307,186.0471
20:06:07:475,-0.871,2.9312,10.0522,26.4473,0.1094,0.4331,0.3645,185.4031
20:06:07:495,-0.7274,2.3258,10.2006,26.6747,-0.0018,0.2767,0.3596,184.302
20:06:07:517,-0.938,1.919,10.3059,27.9978,-0.014,0.1606,0.3449,183.7948
20:06:07:536,-1.4094,2.0363,9.722,26.5715,0.0935,0.1545,0.3596,183.2913
20:06:07:555,-1.3878,2.0435,8.5543,27.9013,0.2951,0.3378,0.4329,182.6497
20:06:07:575,-1.3519,2.1918,7.5853,27.9502,0.4649,0.609,0.472,181.8435
20:06:07:597,-1.3472,2.3402,7.3053,27.3652,0.4674,0.7238,0.4097,181.0584
20:06:07:615,-1.1821,2.2708,7.8054,27.8711,0.2853,0.5589,0.2936,180.4469
20:06:07:638,-1.0457,1.9621,8.6716,28.5303,-0.0115,0.1643,0.1507,180.169
20:06:07:658,-0.9236,1.4309,9.332,27.8711,-0.2876,-0.256,0.0383,180.1812
20:06:07:678,-0.7633,0.8997,9.7364,27.4387,-0.4135,-0.3904,-0.0008,180.2878
20:06:07:695,-0.8207,0.5456,9.9996,29.6105,-0.3744,-0.2425,0.0199,180.2902
20:06:07:713,-1.2467,0.8207,9.9087,28.7008,-0.2412,-0.0043,0.1006,180.0989
20:06:07:734,-1.4548,1.4285,8.9946,28.9219,-0.086,0.2633,0.2814,179.6322
20:06:07:754,-1.3232,2.0124,7.9011,28.2759,0.0483,0.5943,0.5294,178.7896
20:06:07:776,-1.0768,2.7159,7.1115,31.304,0.085,0.8118,0.7029,177.6812
20:06:07:797,-0.9356,3.4098,7.1689,31.1716,0.0129,0.835,0.7725,176.4647
20:06:07:816,-0.8399,3.7496,7.3962,29.1796,-0.1129,0.6078,0.7371,175.384
20:06:07:836,-0.6054,3.6658,7.657,30.3007,-0.1862,0.2718,0.6088,174.5737
20:06:07:862,-0.7633,3.5821,7.9585,30.5831,-0.1435,0.0947,0.4451,173.9797
20:06:07:874,-0.9691,3.6299,8.4491,30.6362,-0.0262,0.0226,0.3095,173.5796
20:06:07:894,-0.9739,3.7232,8.9779,29.0632,0.0777,-0.0556,0.2227,173.2612
20:06:07:914,-1.2658,3.728,8.9994,31.1132,0.1485,-0.0483,0.1629,173.0121
20:06:07:935,-2.0148,4.0199,8.9372,32.4088,0.2145,0.5027,0.1763,172.2981
20:06:07:957,-1.7803,4.0032,9.4325,30.9546,0.1192,0.6457,0.2203,171.6952
20:06:07:977,-0.8973,3.3835,10.2197,31.5906,-0.0567,0.4587,0.2215,171.2291
20:06:08:069,-0.5838,3.2255,11.263,32.5273,-0.2559,0.0446,0.1555,170.9509
20:06:08:080,-0.6891,3.4816,11.7344,31.6978,-0.3658,-0.2706,0.0871,170.8594
20:06:08:081,-0.1364,3.2471,11.5358,33.7582,-0.3218,-0.2376,0.1018,170.7576
20:06:08:081,0.4379,2.747,11.5071,32.2177,-0.2351,-0.0446,0.0603,170.6431
20:06:08:081,0.5551,2.4024,11.6626,32.8552,-0.2497,-0.0592,-0.1364,170.7618
20:06:08:095,0.6102,1.7085,11.8277,31.4664,-0.3744,-0.3073,-0.3808,171.2042
20:06:08:114,0.5264,1.1198,12.1436,34.2243,-0.5246,-0.5809,-0.5237,171.9294
20:06:08:134,0.4714,0.6915,11.8445,32.931,-0.5784,-0.7507,-0.5005,172.6317
20:06:08:155,0.5838,0.3446,11.0596,33.2488,-0.4489,-0.6457,-0.3588,173.1607
20:06:08:174,0.67,0.3852,10.0546,33.4068,-0.1642,-0.2486,-0.178,173.3586
20:06:08:194,0.4522,0.9236,9.1908,33.2384,0.129,0.157,-0.046,173.3192
20:06:08:215,0.3757,1.4644,8.193,35.0226,0.3208,0.3806,0.0395,173.1049
20:06:08:234,0.4498,1.7683,7.188,35.3216,0.3916,0.4453,0.0798,172.7963
20:06:08:254,0.3183,1.998,6.6018,34.9993,0.344,0.4819,0.0468,172.5161
20:06:08:276,0.0455,2.0865,6.2764,34.3539,0.1962,0.4722,-0.0607,172.3638
20:06:08:297,-0.2656,2.0722,6.1041,33.7965,-0.0079,0.3891,-0.2158,172.3947
20:06:08:316,-0.7083,2.0506,6.3218,34.9383,-0.2412,0.2352,-0.382,172.6735
20:06:08:334,-1.1581,2.01,6.8889,35.5778,-0.4599,0.0287,-0.5213,173.1558
20:06:08:354,-1.3352,2.0195,7.5135,33.3343,-0.6016,-0.1631,-0.5824,173.7345
20:06:08:378,-1.3974,2.053,8.0495,35.8864,-0.6187,-0.1985,-0.5543,174.3001
20:06:08:396,-1.1773,2.4024,9.4253,36.3975,-0.3756,0.0287,-0.4064,175.1769
20:06:08:414,-1.1653,2.5077,9.7819,36.2928,-0.2192,0.0885,-0.3759,175.4799
20:06:08:434,-1.4333,2.7494,10.1551,36.5255,-0.0885,0.1411,-0.3515,175.7295
20:06:08:455,-1.6534,2.9743,10.5332,35.5421,0.0129,0.1753,-0.2794,175.9037
20:06:08:478,-1.8688,3.1824,11.0046,35.888,0.1033,0.1716,-0.1657,175.9444
20:06:08:495,-2.723,3.4911,11.7631,35.888,0.1998,0.0763,-0.0509,175.9008
20:06:08:514,-3.2064,3.4289,11.878,34.7998,0.3672,-0.2083,0.0945,175.7676
20:06:08:534,-2.7709,3.2949,11.2008,35.6601,0.6103,-0.5712,0.2948,175.5065
20:06:08:556,-2.0028,3.5868,10.3849,35.0593,0.8204,-0.7789,0.5037,175.1057
20:06:08:578,-1.2802,4.0893,9.8177,36.1555,0.8229,-0.7874,0.6613,174.5509
20:06:08:595,-0.6843,4.4913,9.8704,36.3086,0.5578,-0.6689,0.709,173.9186
20:06:08:614,-0.6676,4.8383,10.6002,36.3478,0.1253,-0.5553,0.6455,173.3452
20:06:08:634,-0.6939,4.7952,10.8491,36.287,-0.2021,-0.405,0.5978,172.788
20:06:08:654,-0.5671,4.4889,10.9304,37.842,-0.2339,0.0214,0.6076,172.0531
20:06:08:677,-0.0909,4.0152,11.1218,38.4643,-0.1618,0.2999,0.5587,171.2742
20:06:08:696,0.5145,2.991,11.3659,38.7135,-0.1923,0.0067,0.3388,170.824
20:06:08:714,0.1723,1.9214,11.2391,38.4526,-0.2803,-0.482,-0.0179,170.9233
20:06:08:734,-0.8255,1.3376,10.2245,39.5265,-0.2424,-0.6775,-0.2953,171.3463
20:06:08:756,-1.8449,1.1366,9.0281,39.4647,-0.0213,-0.3024,-0.2891,171.6417
20:06:08:775,-2.3976,1.0361,8.3342,39.7179,0.212,0.3366,0.004,171.4047
20:06:08:796,-2.3378,1.0863,8.1045,40.5463,0.2609,0.6237,0.3828,170.7012
20:06:08:814,-1.7587,1.2419,8.1476,40.7232,0.14,0.4441,0.6577,169.7734
20:06:08:834,-0.8806,1.4596,8.3749,40.0873,0.0202,0.1594,0.8141,168.7806
20:06:08:853,0.2871,1.9382,8.1308,39.6812,0.0386,0.0678,0.7469,167.0069
20:06:08:877,0.2871,1.9454,7.3866,40.6922,0.0581,0.2694,0.5208,166.2926
20:06:08:895,-0.0239,1.8114,6.7693,42.7817,-0.0128,0.4954,0.285,165.7616
20:06:08:914,-0.548,1.675,6.7525,41.3083,-0.1826,0.6652,0.1372,165.3476
20:06:08:934,-1.3041,1.6534,7.2526,42.1273,-0.3951,0.6469,0.0749,164.9855
20:06:08:954,-1.596,1.7803,7.7169,41.7351,-0.5295,0.4599,0.1116,164.6442
20:06:08:975,-1.5051,2.1081,8.0016,43.0048,-0.5026,0.339,0.2545,164.21
20:06:08:995,-1.3089,2.4909,8.1117,42.0526,-0.3756,0.3317,0.3803,163.6203
20:06:09:014,-1.1964,2.7159,8.3198,42.579,-0.251,0.3793,0.4255,162.9683
20:06:09:033,-1.0935,2.7278,8.7912,42.4997,-0.1936,0.3195,0.395,162.3721
20:06:09:055,-0.9643,2.6752,9.6694,43.7261,-0.1899,0.1032,0.3168,161.9481
20:06:09:074,-0.7801,2.3809,10.2126,42.2105,-0.141,-0.1497,0.2399,161.6625
20:06:09:095,-0.9188,2.4909,10.6505,43.9367,-0.0176,-0.2755,0.1788,161.467
20:06:09:114,-0.9236,2.5819,10.9017,42.9046,0.1045,-0.2853,0.1653,161.2941
20:06:09:138,-0.268,2.2947,11.1721,44.309,0.1717,-0.2841,0.1824,161.131
20:06:09:165,0.4331,1.9836,11.7775,45.7663,0.1363,-0.3598,0.1421,161.0459
20:06:09:173,0.7155,1.9095,12.6365,44.156,-0.0018,-0.5418,0.0089,161.1639
20:06:09:192,0.6843,1.9167,13.0002,43.6545,-0.108,-0.6518,-0.1266,161.4323
20:06:09:213,0.8064,2.0076,12.8758,45.1807,-0.0824,-0.4795,-0.1413,161.6781
20:06:09:234,1.6606,1.7013,12.4594,46.8149,0.0129,-0.1753,-0.0497,161.7694
20:06:09:255,2.5962,1.3185,12.1077,46.6706,0.019,-0.0141,-0.0643,161.8409
20:06:09:274,2.7709,0.8853,11.7153,45.8682,-0.1251,-0.0312,-0.2659,162.1512
20:06:09:297,2.0722,0.5623,11.6842,47.2923,-0.3047,-0.0764,-0.5225,163.4817
20:06:09:314,1.3519,-0.1196,11.464,47.4167,-0.284,-0.3818,-0.7057,164.3625
20:06:09:333,1.6702,-0.2321,10.7342,46.4778,-0.0213,-0.4087,-0.6251,165.1259
20:06:09:353,1.675,0.0526,9.5928,46.0267,0.2707,-0.3048,-0.553,165.7758
20:06:09:384,1.529,0.524,8.4395,47.5077,0.4368,-0.1533,-0.542,166.3768
20:06:09:394,1.261,0.8112,7.4656,47.3549,0.438,0.0092,-0.5701,166.9805
20:06:09:414,0.8088,0.9643,6.6209,47.0046,0.3318,0.1509,-0.6288,167.5801
20:06:09:433,0.1579,1.127,6.0108,48.959,0.1913,0.2804,-0.685,168.2582
20:06:09:454,-0.4594,1.3854,5.75,49.7864,0.0618,0.3524,-0.6984,168.8702
20:06:09:478,-0.9236,1.6558,5.8146,48.1732,-0.0299,0.339,-0.6593,169.4933
20:06:09:497,-1.2108,2.0698,6.3266,49.4383,-0.0689,0.2401,-0.5995,170.0253
20:06:09:514,-1.1964,2.3139,6.6568,49.1886,-0.0323,0.1057,-0.5543,170.5551
20:06:09:534,-1.084,2.5484,7.1306,47.5761,0.0459,-0.0116,-0.5567,171.1149
20:06:09:553,-0.9739,2.8905,7.6857,49.0668,0.0728,-0.1655,-0.6056,171.7926
20:06:09:576,-0.6987,3.0293,8.1212,49.3373,0.0483,-0.2926,-0.6361,172.5314
20:06:09:593,-0.5049,3.2112,8.8199,50.1642,0.0043,-0.3207,-0.6447,173.2636
20:06:09:614,-0.3996,3.3188,9.6407,50.7384,-0.0604,-0.35,-0.6337,174.0068
20:06:09:634,-0.335,3.2662,10.2341,50.3296,-0.1142,-0.3586,-0.6031,174.7565
20:06:09:653,-0.5192,3.3523,10.9783,50.6549,-0.1508,-0.3207,-0.5506,175.3768
20:06:09:675,-0.9858,3.685,11.5669,51.2132,-0.163,-0.2596,-0.4431,175.8896
20:06:09:694,-0.9882,3.7926,12.0909,51.7107,-0.0921,-0.1692,-0.2513,176.1558
20:06:09:715,-0.2608,3.728,12.5886,52.9788,0.0642,-0.1607,-0.0411,176.2211
20:06:09:733,0.3135,3.7854,12.2919,51.9128,0.256,-0.3183,0.0407,176.23
20:06:09:758,-0.2201,4.1492,11.0285,52.0609,0.5541,-0.405,-0.0986,176.5272
20:06:09:777,-0.5456,4.2257,10.9089,50.3055,0.5273,-0.4319,-0.1572,176.77
20:06:09:795,-0.7418,3.8835,10.9974,52.1541,0.4491,-0.372,-0.2012,177.0753
20:06:09:818,-0.6796,3.082,11.2487,51.471,0.3757,-0.3134,-0.2549,177.4052
20:06:09:838,-0.6676,2.2134,11.2965,53.6054,0.2963,-0.4099,-0.3344,177.8494
20:06:09:857,-1.1414,1.5338,11.1864,52.0008,0.2462,-0.5712,-0.4272,178.4337
20:06:09:876,-1.864,1.3854,10.4997,54.2337,0.289,-0.5895,-0.4504,179.0519
20:06:09:896,-2.2229,1.2371,9.6072,51.9676,0.4393,-0.2865,-0.294,179.3929
20:06:09:915,-2.053,1.2491,8.7625,53.5496,0.5627,0.0922,-0.0081,179.3344
20:06:09:935,-1.4477,1.4979,8.3055,52.4738,0.5126,0.1961,0.2545,178.9819
20:06:09:954,-0.6532,1.73,8.3366,53.4901,0.3195,0.0739,0.3803,178.5397
20:06:09:978,0.0742,1.7707,8.5041,53.2705,0.1302,-0.0397,0.3669,178.1897
20:06:09:995,0.4762,1.6391,8.5974,54.2052,0.0288,-0.0776,0.2692,177.9491
20:06:10:014,0.5623,1.5266,8.6405,54.431,0.0178,-0.1301,0.147,177.8579
20:06:10:034,0.524,1.6247,8.5711,55.1626,0.0642,-0.1839,0.0541,177.8987
20:06:10:054,0.39,1.8592,8.2385,54.4065,0.1375,-0.1827,0.0395,177.9689
20:06:10:073,0.5432,2.2253,7.6929,54.7991,0.2145,-0.0751,0.0932,177.9009
20:06:10:164,0.7753,2.4814,7.0493,53.4057,0.2609,0.08,0.1555,177.7252
20:06:10:165,0.7298,3.0461,6.9105,53.1786,0.2462,0.1863,0.1824,177.4747
20:06:10:166,0.6245,3.6897,6.8052,54.2729,0.1595,0.1167,0.1519,177.2901
20:06:10:167,0.4786,3.9577,6.7143,55.1151,0.0386,0.0385,0.0603,177.2598
20:06:10:182,0.1077,4.1348,7.1378,53.5769,-0.0885,0.0397,-0.0534,177.3106
20:06:10:201,-0.0885,4.1252,8.0231,53.747,-0.1923,0.0031,-0.1083,177.4423
20:06:10:214,0.1675,4.1492,9.4134,52.269,-0.1398,-0.2059,-0.1083,177.6007
20:06:10:233,0.737,4.0917,10.191,52.44,-0.0262,-0.2291,-0.0778,177.786
20:06:10:253,1.474,3.7831,10.8969,53.7709,0.074,-0.2816,-0.0778,178.2044
20:06:10:277,1.9789,3.405,11.2798,53.5408,0.1693,-0.3806,-0.1657,178.5422
20:06:10:295,1.9501,3.3332,11.2965,54.1644,0.2548,-0.4099,-0.3185,179.0763
20:06:10:316,1.5458,3.4457,11.5238,54.1595,0.2707,-0.3525,-0.4089,179.6713
20:06:10:333,1.3448,3.6036,10.9854,54.1565,0.2059,-0.1973,-0.371,180.1465
20:06:10:353,2.0842,3.0748,10.8658,54.7895,0.0777,0.1105,-0.2464,180.4093
20:06:10:375,2.8618,1.9645,11.5502,54.1645,-0.1838,0.2547,-0.2598,180.6357
20:06:10:396,2.1655,0.9571,12.2225,52.7358,-0.5271,-0.0238,-0.4443,181.1524
20:06:10:413,1.1581,0.8183,11.5573,53.4077,-0.7018,-0.3512,-0.5249,181.8472
20:06:10:433,1.3998,0.5384,10.8179,53.5582,-0.5417,-0.1888,-0.3392,182.2776
20:06:10:452,1.8305,0.737,9.7699,52.1866,-0.218,0.1948,-0.112,182.366
20:06:10:474,2.2445,1.2467,8.9707,52.7376,0.0337,0.4502,-0.0472,182.2859
20:06:10:493,2.5077,1.4285,8.3342,53.5212,0.0948,0.4086,-0.1487,182.3498
20:06:10:514,1.8951,1.5888,7.882,51.6936,-0.0518,0.168,-0.3844,182.7478
20:06:10:533,0.6126,1.7587,7.7097,52.8579,-0.295,0.0458,-0.5909,183.3977
20:06:10:553,-0.4594,1.6798,7.5398,51.4751,-0.477,0.1228,-0.6178,184.0226
20:06:10:575,-1.0576,1.742,7.5015,54.3796,-0.5393,0.2364,-0.4834,184.4449
20:06:10:596,-1.0696,2.1559,7.3747,52.4282,-0.5222,0.2229,-0.2794,184.669
20:06:10:615,-0.4762,2.5603,7.6714,55.0958,-0.4745,0.113,-0.0937,184.7608
20:06:10:633,-0.0622,2.8163,8.0088,51.2167,-0.3964,-0.0263,-0.0081,184.8051
20:06:10:655,0.0526,3.0245,8.3916,51.2391,-0.2925,-0.1167,-0.0521,184.9207
20:06:10:678,0.0646,2.9767,8.9755,51.0299,-0.0714,-0.1057,-0.1767,185.1122
20:06:10:694,0.39,3.0245,9.1932,51.6045,0.03,-0.1106,-0.1523,185.3291
20:06:10:713,0.8471,3.0221,9.6526,51.6458,0.1094,-0.157,-0.1303,185.738
20:06:10:734,1.0672,3.2088,9.9302,52.9787,0.1522,-0.2718,-0.1315,185.9709
20:06:10:756,1.1773,3.5677,10.3107,52.9443,0.1827,-0.2718,-0.1376,186.216
20:06:10:779,1.1318,3.7735,10.5141,52.9443,0.1962,-0.0764,-0.1328,186.3842
20:06:10:798,0.8231,3.6969,10.8036,51.6459,0.1253,0.1338,-0.1425,186.4957
20:06:10:817,0.213,3.7328,11.1841,51.6414,-0.0262,0.2266,-0.1376,186.5736
20:06:10:833,-0.524,3.6634,11.3324,50.8457,-0.1813,0.2889,-0.0656,186.5531
20:06:10:853,-1.4931,3.4146,11.4233,50.2548,-0.2595,0.4038,0.0468,186.3487
20:06:10:876,-2.4024,3.1107,11.2152,50.8364,-0.2339,0.5882,0.158,185.9806
20:06:10:893,-2.5436,2.7446,10.9998,51.4927,-0.1337,0.7813,0.3364,185.3636
20:06:10:914,-2.0506,2.254,10.7246,48.2353,-0.025,0.7556,0.5648,184.5103
20:06:10:932,-1.584,2.0674,10.4207,50.313,0.0948,0.5064,0.7383,183.5506
20:06:10:954,-1.2395,2.4598,10.1839,50.0772,0.2988,0.2596,0.836,182.5454
20:06:10:978,-0.9356,2.7589,9.3105,48.6783,0.6018,0.1643,0.8568,181.5601
20:06:10:996,-0.6628,2.7709,8.0231,48.7927,0.8595,0.2938,0.7505,180.6522
20:06:11:023,-0.792,2.9551,7.1402,48.0042,0.9109,0.5846,0.5379,179.8558
20:06:11:033,-1.2419,3.1896,7.5757,47.363,0.713,0.7617,0.3022,179.2502
20:06:11:063,-1.5769,2.857,7.6642,48.6783,0.3318,0.5516,0.0505,178.9683
20:06:11:074,-1.2179,1.8855,8.272,47.363,-0.1312,0.1509,-0.1438,179.0521
20:06:11:093,-0.6341,0.8734,9.5689,48.7048,-0.5589,-0.3537,-0.2525,179.4249
20:06:11:113,-0.4738,0.5599,10.3944,48.7914,-0.8484,-0.8179,-0.3038,180.0144
20:06:11:133,-0.9021,1.048,9.8848,48.3241,-0.6187,-0.201,0.004,180.5007
20:06:11:153,-0.8303,1.5625,8.8989,47.491,-0.2033,0.5895,0.3388,180.5519
20:06:11:179,-0.2847,1.9597,8.1715,48.3702,0.1277,0.9829,0.5941,179.0521
20:06:11:196,0.1244,2.4239,7.5948,47.5751,0.2878,0.7886,0.6797,178.0752
20:06:11:212,0.3183,3.0197,7.3484,46.4068,0.3562,0.2938,0.6027,177.3345
20:06:11:234,0.3206,3.5366,7.4393,47.7661,0.4173,-0.0898,0.4353,176.8787
20:06:11:255,0.1866,3.673,7.7312,49.7008,0.4857,-0.234,0.2582,176.6547
20:06:11:272,0.0479,3.5175,7.9418,46.2603,0.5321,-0.2926,0.1189,176.6021
20:06:11:293,-0.2297,3.2925,8.0351,46.605,0.5407,-0.3183,0.0199,176.6693
20:06:11:313,-0.8303,3.3547,8.351,45.7826,0.4991,-0.2718,-0.0289,176.7402
20:06:11:333,-1.1725,3.6754,8.5376,47.1486,0.4234,-0.1765,0.0322,176.7231
20:06:11:353,-0.6772,3.6586,8.9731,45.9057,0.3477,-0.0373,0.1714,176.5137
20:06:11:374,-0.2441,3.5653,9.6431,45.889,0.2572,-0.0189,0.2276,176.2412
20:06:11:396,0.0024,3.5605,10.1647,45.8059,0.1595,-0.146,0.1934,176.0586
20:06:11:412,0.0096,3.4529,11.0381,47.3524,0.107,-0.2645,0.1287,175.9982
20:06:11:432,-0.189,3.2614,11.4568,47.7494,0.1509,-0.3451,0.0639,176.0219
20:06:11:453,0.1507,2.9121,11.1984,47.5662,0.3147,-0.3305,0.0822,176.007
20:06:11:473,1.1079,2.8522,10.471,46.6674,0.5321,-0.2291,0.1507,175.9041
20:06:11:493,2.1176,2.7374,9.9852,47.0484,0.6213,-0.102,0.1335,175.7961
20:06:11:513,2.2493,2.3521,10.5811,47.2257,0.4417,-0.1191,-0.046,175.8635
20:06:11:535,1.0768,2.5795,10.5428,48.0013,0.052,-0.4026,-0.305,176.3228
20:06:11:553,0.9069,2.2827,10.4662,45.1169,-0.3243,-0.4759,-0.3661,176.8623
20:06:11:574,1.2203,1.876,10.8251,47.2743,-0.5723,-0.2413,-0.2769,177.2233
20:06:11:595,1.4453,2.053,11.0357,47.3599,-0.7959,-0.1741,-0.3258,177.9388
20:06:11:614,1.3089,2.1296,10.3585,46.5933,-0.7959,-0.2144,-0.4296,178.4289
20:06:11:634,0.6604,2.2493,9.5282,46.422,-0.7445,-0.0299,-0.4981,178.9207
20:06:11:658,-0.0096,2.3474,8.8343,47.6514,-0.648,0.3219,-0.4846,179.2838
20:06:11:685,-0.3302,2.3976,7.6833,48.66,-0.5258,0.5699,-0.4382,179.498
20:06:11:692,-0.4546,2.479,7.0349,47.671,-0.4196,0.686,-0.415,179.6597
20:06:11:712,-0.5647,2.668,6.9918,47.1927,-0.3658,0.6066,-0.4028,179.8405
20:06:11:732,-0.5216,2.8905,7.4752,46.8,-0.3487,0.3036,-0.3881,180.0791
20:06:11:752,-0.3661,2.9839,7.8556,46.4408,-0.2937,-0.0324,-0.3759,180.4247
20:06:11:777,-0.2441,2.9169,8.1045,48.0156,-0.1398,-0.2022,-0.3588,180.8115
20:06:11:792,-0.28,3.0461,8.1691,48.1011,0.0703,-0.1936,-0.3295,181.1688
20:06:11:813,-0.122,3.4552,7.7767,47.4003,0.2731,-0.0165,-0.2476,181.4062
20:06:11:832,0.2656,3.7232,7.4608,46.7447,0.3647,0.3109,-0.1438,181.4265
20:06:11:852,0.6532,3.7304,7.9298,49.6286,0.2475,0.515,-0.09,181.318
20:06:11:876,0.4379,3.6251,9.1454,47.1937,-0.0604,0.3537,-0.1181,181.2831
20:06:11:894,0.0694,3.5462,10.2341,49.862,-0.3622,-0.1338,-0.1584,181.4509
20:06:11:913,-0.4929,3.4409,10.7701,49.0246,-0.4416,-0.4306,-0.1364,181.6765
20:06:11:932,-0.6461,3.4385,10.739,48.3013,-0.2595,-0.306,-0.0277,181.7342
20:06:11:952,-0.4379,3.3715,10.3657,48.2632,0.0141,-0.0446,0.1018,181.5765
20:06:11:973,-0.6054,3.7687,10.0905,49.9522,0.1473,0.124,0.1702,181.316
20:06:11:991,-0.8159,3.8835,10.215,48.9317,0.1082,0.179,0.191,180.9893
20:06:12:011,-1.4548,4.2473,10.4231,51.487,0.1693,0.3781,0.1409,180.6511
20:06:12:032,-1.9789,4.5823,10.1192,48.7116,0.1595,0.3573,0.092,180.3555
20:06:12:055,-0.8375,2.8905,10.6576,50.9761,-0.5393,-0.5296,0.0737,180.1422
20:06:12:074,-1.048,1.2012,12.402,50.8282,-0.8741,-1.16,-0.0925,180.5665
20:06:12:107,-1.517,0.3709,12.5288,50.8282,-0.7824,-1.6402,-0.3209,181.2541
20:06:12:116,-1.9454,0.0742,12.4834,50.8282,-0.1398,-1.1148,-0.3624,181.8275
20:06:12:131,-2.1703,0.4283,11.6626,50.8282,0.7435,-0.1435,-0.2036,181.9842
20:06:12:151,-1.7348,0.8231,9.789,50.8282,1.3483,0.4135,0.0077,181.7724
20:06:12:228,-1.3376,1.3543,8.7505,51.633,1.4154,0.6872,0.1226,181.3538
20:06:12:228,-1.273,1.6798,8.0662,50.4833,1.0098,0.6176,0.1323,180.9342
20:06:12:228,-0.9356,1.4548,7.4967,52.6912,0.3831,0.3219,0.1739,180.5769
20:06:12:234,-0.5767,1.1007,7.1713,54.4061,-0.2119,0.135,0.2704,180.2002
20:06:12:251,-0.3254,0.9643,7.4824,53.5104,-0.626,0.0739,0.3522,179.7842
20:06:12:272,-0.3374,1.1749,7.791,52.8734,-0.8166,0.0031,0.4036,179.3262
20:06:12:292,-0.4403,1.7133,8.272,53.4296,-0.7885,-0.0312,0.45,178.811
20:06:12:311,-0.3805,2.2086,8.2361,52.0613,-0.5796,-0.0043,0.4805,178.2403
20:06:12:331,-0.1627,2.6393,8.1835,52.4629,-0.2717,0.0971,0.4659,177.6566
20:06:12:352,-0.2034,2.9145,8.1356,54.1769,0.008,0.2071,0.3767,177.1487
20:06:12:374,-0.4905,2.9169,8.3175,52.8732,0.1962,0.1753,0.2227,176.8058
20:06:12:392,-1.0624,2.9886,8.5424,51.795,0.2951,-0.0287,0.0578,176.6899
20:06:12:412,-1.0768,3.0173,8.5424,53.4348,0.3599,-0.2621,0.0016,176.6894
20:06:12:432,-0.7825,3.082,8.7075,52.2719,0.4234,-0.2902,0.0541,176.6492
20:06:12:452,-0.6532,3.2782,8.8295,52.9316,0.4539,-0.1924,0.1213,176.5057
20:06:12:473,-0.6174,3.5509,9.3535,53.181,0.4148,-0.124,0.1507,176.3212
20:06:12:499,-0.1938,3.5151,9.9135,53.3224,0.3012,-0.1655,0.1507,176.1468
20:06:12:512,1.1414,2.7709,11.7057,53.8163,-0.025,-0.4453,0.0603,176.0815
20:06:12:532,1.1749,2.6704,12.9882,56.6996,-0.1496,-0.4306,-0.0179,176.1796
20:06:12:551,0.8734,2.6752,13.1414,54.106,-0.152,-0.2963,-0.0338,176.3524
20:06:12:583,1.1533,2.5986,12.3757,53.053,0.0251,0.0568,0.0993,176.1695
20:06:12:604,1.8736,2.8307,11.6626,55.324,0.2377,0.3647,0.2618,175.7466
20:06:12:612,3.0341,2.7948,11.3994,54.1222,0.3049,0.2999,0.2973,175.3251
20:06:12:631,3.8859,2.2373,11.5884,54.7471,0.2169,-0.1704,0.1421,175.2049
20:06:12:651,2.8403,2.1081,11.0142,56.0941,0.1045,-0.6652,-0.1829,175.5844
20:06:12:674,2.1631,1.8664,10.0068,54.9065,0.1522,-0.5602,-0.3466,176.1094
20:06:12:695,1.8497,1.5697,9.3081,57.0876,0.3477,-0.058,-0.3185,176.4165
20:06:12:711,1.6128,1.6008,8.4395,56.3596,0.4845,0.2425,-0.2928,176.6
20:06:12:731,1.9525,1.3304,8.0184,56.1591,0.4845,0.2315,-0.2745,176.7556
20:06:12:751,2.2708,1.1988,7.8724,56.4531,0.3391,-0.0104,-0.3661,177.1065
20:06:12:771,2.0411,1.06,7.4249,56.2929,0.0801,-0.3109,-0.5958,177.8112
20:06:12:802,1.3567,0.9356,7.1809,57.234,-0.1948,-0.3464,-0.7949,178.7095
20:06:12:812,0.4211,1.0433,6.8411,57.7258,-0.3988,-0.0922,-0.8267,179.5398
20:06:12:833,-0.2058,1.4764,6.4415,56.8299,-0.4953,0.2364,-0.7131,180.1416
20:06:12:854,-0.4977,2.0674,6.1352,56.2461,-0.5112,0.5296,-0.5286,180.4623
20:06:12:890,-0.5456,2.7326,6.1256,56.4965,-0.499,0.7385,-0.3576,180.5422
20:06:12:893,-0.4259,3.3332,6.3482,57.6679,-0.4892,0.802,-0.2403,180.4902
20:06:12:922,-0.2201,3.7783,6.9703,57.488,-0.4843,0.6835,-0.1975,180.4377
20:06:12:931,-0.1507,4.0822,7.468,58.6471,-0.4611,0.3781,-0.233,180.5217
20:06:12:953,-0.0957,4.185,7.9561,57.9577,-0.3939,0.0788,-0.3172,181.2273
20:06:12:975,-0.1866,3.8883,9.5115,58.1251,-0.1826,-0.1607,-0.5176,181.8242
20:06:12:994,-0.3446,3.9075,10.2939,57.9516,-0.0995,-0.2865,-0.5506,182.4494
20:06:13:012,-0.3398,3.8118,10.928,57.9219,-0.0531,-0.4661,-0.5213,183.0844
20:06:13:032,-0.1771,3.7807,11.33,57.052,-0.003,-0.5467,-0.4321,183.6517
20:06:13:052,0.0359,3.7256,11.7607,58.0968,0.085,-0.4404,-0.3075,184.0632
20:06:13:073,0.2823,3.6108,12.1388,58.5257,0.1901,-0.2853,-0.2183,184.3366
20:06:13:096,0.5886,3.1059,12.3326,56.3871,0.2731,-0.2413,-0.2171,184.5999
20:06:13:111,0.1436,2.8786,12.7801,57.4183,0.311,-0.3659,-0.3233,185.0066
20:06:13:131,-1.206,3.2806,12.2225,57.2043,0.3159,-0.5125,-0.4895,185.6248
20:06:13:151,-2.2445,3.539,10.8538,58.0571,0.3745,-0.2181,-0.5066,186.1593
20:06:13:176,-2.5747,3.4672,10.0858,58.4994,0.4222,0.5528,-0.3319,186.2688
20:06:13:192,-2.2086,3.2973,10.605,58.0571,0.256,1.0073,-0.1535,186.0404
20:06:13:211,-1.5649,2.5005,11.2295,57.6639,-0.13,0.5491,-0.1279,185.9419
20:06:13:231,-1.7946,1.9956,11.2774,58.3015,-0.4709,-0.2474,-0.2,186.1859
20:06:13:252,-2.4526,1.6558,10.4399,57.8639,-0.5198,-0.4966,-0.1804,186.4714
20:06:13:274,-2.8786,1.3902,9.4086,58.3478,-0.2864,-0.0727,0.0224,186.3993
20:06:13:291,-2.8618,1.4309,8.6548,58.3135,-0.0042,0.5382,0.285,185.875
20:06:13:314,-2.5053,1.8903,8.071,58.3286,0.096,0.8558,0.5147,185.0054
20:06:13:334,-1.1629,1.9765,7.8126,59.8912,-0.0225,0.8033,0.7261,183.9693
20:06:13:354,0.0742,2.1488,8.2265,59.7949,-0.3023,0.5663,0.7896,182.9698
20:06:13:374,0.4451,2.0411,9.3129,57.8103,-0.5894,0.2694,0.6406,182.215
20:06:13:391,0.1388,1.5745,9.5498,57.4704,-0.6884,-0.0727,0.351,181.849
20:06:13:411,-0.3159,1.0193,9.131,56.2035,-0.5234,-0.168,0.1384,181.719
20:06:13:431,-0.792,1.5649,7.6499,57.832,0.1681,0.4697,0.3254,181.4993
20:06:13:451,-0.4092,2.1751,6.877,59.8419,0.399,0.6615,0.5221,180.262
20:06:13:474,0.0168,2.668,6.5348,57.853,0.4613,0.6725,0.6088,179.4043
20:06:13:491,0.2728,2.9862,6.6664,57.7841,0.3867,0.5577,0.5331,178.6537
20:06:13:511,0.2249,3.0508,7.0445,56.3205,0.2377,0.3024,0.3193,178.2031
20:06:13:530,0.0479,2.8522,7.6523,57.1974,0.0862,-0.0312,0.0431,178.1547
20:06:13:551,-0.0957,2.5675,8.418,59.0169,-0.0164,-0.3415,-0.1939,178.4568
20:06:13:575,-0.5216,2.5627,9.0784,57.7784,-0.0396,-0.493,-0.3099,178.9067
20:06:13:593,-0.8686,2.668,9.5186,55.9165,0.0154,-0.4539,-0.3136,179.3368
20:06:13:611,-0.6748,2.7111,9.8441,56.5887,0.107,-0.361,-0.261,179.697
20:06:13:631,-0.3565,2.5771,10.2221,55.9221,0.1644,-0.3427,-0.239,180.0341
20:06:13:652,-0.0359,2.6345,10.9017,56.5694,0.1302,-0.4355,-0.2904,180.4585
20:06:13:674,0.1531,2.7182,11.6363,54.6913,0.019,-0.6029,-0.3844,181.0264
20:06:13:694,0.3374,2.6345,12.067,56.1984,-0.086,-0.6787,-0.47,181.7215
20:06:13:723,0.5767,2.4814,12.2393,55.5933,-0.1496,-0.6249,-0.5042,182.4459
20:06:13:730,1.2036,2.2947,12.4259,55.3001,-0.174,-0.4759,-0.4724,183.0967
20:06:13:751,1.7731,1.9382,12.7131,53.5168,-0.2094,-0.4465,-0.4565,183.7152
20:06:13:771,2.0052,1.5888,12.7777,55.6785,-0.2742,-0.5638,-0.5457,184.4769
20:06:13:791,1.8185,1.2993,12.8279,55.0163,-0.3047,-0.6066,-0.6825,185.3792
20:06:13:812,1.5123,1.1916,12.8542,52.8259,-0.2644,-0.5272,-0.7742,186.337
20:06:13:832,1.6391,0.9978,12.2321,54.6882,-0.1276,-0.4099,-0.7595,187.2718
20:06:13:852,2.345,0.8829,11.0213,53.0192,0.0984,-0.2071,-0.6544,188.0453
20:06:13:879,2.8116,0.9811,9.8201,53.4375,0.3208,0.0837,-0.5738,188.6704
20:06:13:893,1.9669,1.3472,7.5781,52.1815,0.4332,0.5003,-0.751,189.9597
20:06:13:912,1.1892,1.2323,6.6209,53.8191,0.3354,0.532,-0.9159,190.7837
20:06:13:930,0.2823,1.1677,6.0467,53.8782,0.2157,0.5027,-1.0564,191.7699
20:06:13:950,-0.5767,1.4788,5.7117,53.0245,0.107,0.4306,-1.104,192.8074
20:06:13:971,-0.8566,1.7061,5.5657,50.919,0.0263,0.3488,-1.0295,193.7687
20:06:13:993,-0.8806,1.9573,6.128,52.5691,-0.025,0.2486,-0.911,194.6375
20:06:14:011,-0.8614,2.3139,6.8315,52.44,-0.0347,0.0837,-0.8426,195.5047
20:06:14:031,-0.7753,2.5819,7.4178,51.9987,0.0312,-0.058,-0.8206,196.3822
20:06:14:052,-0.7944,2.7517,7.657,52.113,0.1339,-0.1081,-0.8255,197.2894
20:06:14:077,-1.0887,2.881,8.0375,51.926,0.1778,-0.0678,-0.8475,198.1863
20:06:14:096,-1.4429,2.9145,8.5089,51.0839,0.1339,-0.0568,-0.8438,199.0894
20:06:14:127,-1.8018,3.015,9.1956,50.8875,0.0227,-0.0935,-0.7962,199.9322
20:06:14:135,-2.1296,3.2112,9.9039,51.7276,-0.1093,-0.157,-0.6837,200.6881
20:06:14:150,-2.2564,3.6275,10.6002,50.5418,-0.2314,-0.1704,-0.4871,201.2451
20:06:14:172,-1.9645,3.9434,11.2845,50.9259,-0.2888,-0.1106,-0.2268,201.5191
20:06:14:191,-1.3735,4.1348,11.9258,51.0151,-0.229,0.0238,0.0114,201.5098
20:06:14:210,-1.0959,4.3884,12.0503,49.1373,-0.0726,0.1399,0.1238,201.3621
20:06:14:325,-1.1844,4.4076,11.677,50.317,0.1118,0.1912,0.103,201.2065
20:06:14:326,-1.5529,4.2329,11.2152,50.2321,0.245,0.2046,0.0334,201.1252
20:06:14:326,-1.785,3.8812,11.1386,47.8485,0.2853,0.1435,-0.0326,201.1278
20:06:14:327,-1.718,3.3428,11.7344,49.7213,0.2133,-0.1057,-0.0925,201.254
20:06:14:327,-1.7468,2.6824,12.7537,47.7468,0.0495,-0.515,-0.1645,201.5788
20:06:14:357,-1.5218,1.9382,13.151,47.7865,-0.0445,-0.8497,-0.1939,202.0405
20:06:14:358,-2.0291,1.3352,10.1862,47.9159,0.4173,-0.0996,0.0603,202.3233
20:06:14:375,-2.077,1.6606,8.4826,48.604,0.6836,0.5418,0.318,201.7921
20:06:14:393,-1.864,2.0746,7.6762,46.8165,0.669,0.73,0.4756,201.0518
20:06:14:412,-1.2778,2.4072,7.9777,47.295,0.4173,0.4661,0.5221,200.3601
20:06:14:430,-0.6293,2.3043,8.5926,47.0678,0.1522,-0.0177,0.4255,199.9424
20:06:14:452,-0.4714,1.9956,9.0951,46.5829,0.0557,-0.383,0.191,199.8971
20:06:14:474,-0.8638,1.6582,8.7601,46.2325,0.1363,-0.4465,-0.0582,200.1331
20:06:14:492,-1.3711,1.4644,8.1117,46.9964,0.2695,-0.2523,-0.1694,200.3981
20:06:14:511,-1.7611,1.6702,7.4871,46.0753,0.2963,-0.0104,-0.1157,200.5096
20:06:14:530,-1.7013,1.9717,7.011,46.0753,0.212,0.1557,0.0346,200.4124
20:06:14:550,-1.4812,2.211,6.6449,45.9456,0.1167,0.2645,0.1641,200.146
20:06:14:570,-1.5123,2.5866,6.4199,45.6226,0.0434,0.3341,0.2264,199.8012
20:06:14:591,-1.6295,2.9073,6.3434,46.6943,-0.0286,0.3329,0.2484,199.4243
20:06:14:611,-1.7563,3.1298,6.664,45.9446,-0.0824,0.2828,0.2496,199.0632
20:06:14:630,-1.8329,3.3212,7.0181,45.7875,-0.0909,0.1729,0.2325,198.7529
20:06:14:651,-1.8808,3.4265,7.3172,43.8703,-0.0555,0.0397,0.2105,198.5249
20:06:14:673,-1.6726,3.5198,7.7121,46.1389,-0.0347,-0.0776,0.2032,198.3558
20:06:14:692,-1.4213,3.8548,8.3151,44.0477,-0.0665,-0.1814,0.2105,198.2163
20:06:14:711,-1.1079,4.1611,9.0162,44.9657,-0.1227,-0.245,0.2056,198.1096
20:06:14:732,-0.9691,4.2114,10.1192,42.3748,-0.1716,-0.2584,0.1433,198.0917
20:06:14:752,-0.8686,4.0511,11.0788,42.5091,-0.185,-0.3354,0.0407,198.1835
20:06:14:774,-0.3852,3.7424,11.9091,41.3314,-0.1422,-0.4612,-0.0375,198.4138
20:06:14:793,0.067,3.6323,12.3637,41.7116,-0.0799,-0.5614,-0.0692,198.7229
20:06:14:814,0.7489,3.7328,12.7442,41.9754,-0.0311,-0.3464,-0.0863,199.0337
20:06:14:831,1.4859,3.3858,13.0313,43.4308,-0.0799,-0.2511,-0.0925,199.5093
20:06:14:851,2.0842,2.7757,13.5601,44.0076,-0.1777,-0.3696,-0.1987,199.9261
20:06:14:876,1.9765,2.2277,13.754,41.5882,-0.2632,-0.5357,-0.4101,200.5907
20:06:14:895,1.2778,1.7611,13.474,41.8146,-0.2033,-0.482,-0.5811,201.4072
20:06:14:912,0.8542,1.3448,12.3637,44.3434,0.0667,-0.1924,-0.5482,202.0873
20:06:14:931,1.0768,1.3424,10.6648,43.5166,0.4283,0.0995,-0.3295,202.4275
20:06:14:952,1.8568,1.5793,9.2698,43.1928,0.6787,0.2339,-0.1022,202.5322
20:06:14:977,2.7613,1.785,8.2624,44.9415,0.724,0.1484,-0.0167,202.5809
20:06:14:991,3.137,1.8664,7.4943,42.5089,0.6128,-0.0421,-0.1511,202.8345
20:06:15:011,2.6895,1.8161,7.0971,44.3321,0.4271,-0.1863,-0.4785,203.4875
20:06:15:031,1.5075,1.517,6.6233,43.8866,0.2646,-0.2108,-0.8426,204.5192
20:06:15:050,0.3589,1.3519,6.2836,44.2232,0.1742,-0.102,-1.0625,205.6946
20:06:15:075,-0.3541,1.4692,5.7404,44.9861,0.1351,0.0202,-1.0601,206.8014
20:06:15:091,-0.603,1.8879,5.4796,44.2388,0.1094,0.1313,-0.9208,207.7364
20:06:15:111,-0.548,2.4024,5.4078,44.5111,0.0422,0.1399,-0.7729,208.5204
20:06:15:131,-0.347,2.7948,5.6279,44.8123,-0.0604,0.0568,-0.6837,209.2611
20:06:15:150,-0.2297,3.1154,6.061,46.0238,-0.1752,-0.0776,-0.6825,210.0528
20:06:15:174,-0.1244,3.3141,6.6927,44.2635,-0.2888,-0.2315,-0.7595,210.9762
20:06:15:193,-0.28,3.4768,7.5805,43.2431,-0.3964,-0.3573,-0.8573,212.0667
20:06:15:210,-0.5336,3.6419,8.6261,43.8563,-0.4892,-0.4453,-0.8927,213.2126
20:06:15:231,-0.6269,3.6873,9.478,45.9936,-0.5136,-0.5052,-0.8682,214.3496
20:06:15:251,-0.8734,3.7232,9.7986,42.887,-0.433,-0.4527,-0.8267,215.4288
20:06:15:273,-1.4836,4.1204,9.1406,43.2492,-0.2962,0.1533,-0.718,216.3806
20:06:15:297,-1.797,4.1396,9.5761,44.6027,-0.5124,0.4991,-0.6508,217.6437
20:06:15:313,-1.8664,4.1013,11.0285,44.7151,-0.8288,0.5736,-0.5604,218.0929
20:06:15:329,-2.0028,4.075,12.481,44.2352,-0.9645,0.4099,-0.4467,218.4917
20:06:15:350,-2.0483,3.8237,12.8614,43.3306,-0.7311,0.2535,-0.3344,218.8181
20:06:15:371,-2.1846,3.6586,12.4403,44.3142,-0.2583,0.1435,-0.2684,219.1109
20:06:15:409,-2.4311,3.5294,11.5884,44.7764,0.1461,0.0202,-0.2672,219.4498
20:06:15:416,-2.4598,3.1633,11.4927,42.2152,0.2621,-0.1497,-0.2806,219.8249
20:06:15:430,-2.2612,2.4909,12.2632,46.0832,0.1216,-0.4441,-0.2904,220.291
20:06:15:449,-2.0483,1.9167,12.9332,44.0273,-0.0335,-0.7605,-0.3087,220.8372
20:06:15:470,-2.2421,1.5721,12.3948,46.955,0.0386,-0.7385,-0.261,221.3187
20:06:15:491,-2.3378,1.3783,10.6863,45.0126,0.3819,-0.1827,-0.0399,221.41
20:06:15:510,-2.1296,1.5123,8.9324,45.0326,0.7166,0.4258,0.2411,221.0332
20:06:15:531,-1.5434,1.6845,8.0853,45.3982,0.7313,0.5834,0.3767,220.4794
20:06:15:552,-0.9069,1.7779,8.3175,45.0126,0.4051,0.273,0.3266,220.0743
20:06:15:572,-0.4594,1.5051,9.2291,45.3511,-0.0152,-0.1472,0.1262,220.0265
20:06:15:595,-0.4522,1.1605,9.9494,44.5159,-0.2437,-0.2841,-0.0668,220.2189
20:06:15:612,-0.8255,1.0624,9.8321,46.6338,-0.1765,-0.1411,-0.1548,220.4547
20:06:15:632,-1.0433,1.1294,8.8271,46.4618,0.0691,0.1325,-0.1487,220.5972
20:06:15:650,-0.8734,1.2586,7.4752,47.081,0.2853,0.3989,-0.0704,220.5903
20:06:15:673,-0.9452,1.7707,6.53,47.0054,0.3428,0.5748,0.0383,220.421
20:06:15:691,-1.0313,2.3258,6.0969,47.134,0.2646,0.5931,0.1445,220.1189
20:06:15:713,-0.5599,3.1274,5.659,45.9435,0.1778,0.5455,0.2667,219.3183
20:06:15:731,-0.1005,3.661,5.8409,46.4945,0.1693,0.5797,0.2008,219.0147
20:06:15:754,-0.189,3.9386,6.2644,47.4937,0.0862,0.5638,-0.024,218.948
20:06:15:775,-0.9093,3.8429,7.3938,45.9435,-0.0848,0.372,-0.3881,219.3107
20:06:15:790,-1.4788,3.5366,9.1382,47.5662,-0.2632,-0.0629,-0.7497,220.1868
20:06:15:810,-1.6056,3.2136,10.4734,48.9824,-0.273,-0.4246,-0.9513,221.3844
20:06:15:830,-1.6367,3.082,10.8371,46.5554,-0.1007,-0.482,-0.9843,222.6499
20:06:15:851,-1.5553,3.1274,11.2199,46.4944,0.0728,-0.3109,-0.9196,223.7943
20:06:15:875,-1.2443,3.0844,11.7607,46.2937,0.1094,-0.2218,-0.8181,224.7759
20:06:15:892,-1.005,2.9575,12.3709,46.7409,0.0569,-0.3415,-0.7717,225.7534
20:06:15:909,-0.6174,2.8929,12.7202,46.5609,0.0251,-0.5321,-0.7607,226.7867
20:06:15:930,-0.268,3.0676,12.7801,45.5858,0.0801,-0.5675,-0.6923,227.7742
20:06:15:950,0.2201,3.2064,12.6245,46.2996,0.1791,-0.5052,-0.5775,228.631
20:06:15:971,1.0385,2.9073,12.2393,48.3086,0.2475,-0.5186,-0.5201,229.4196
20:06:15:993,1.9501,2.0243,12.4451,44.8774,0.1644,-0.7495,-0.6178,230.3676
20:06:16:015,2.0698,1.5601,13.1222,45.8493,-0.0983,-1.1661,-0.8499,231.6795
20:06:16:031,1.6008,1.273,13.1725,47.0851,-0.3011,-1.3494,-1.104,233.2826
20:06:16:050,0.8758,0.7274,11.8493,47.1323,-0.2046,-0.9731,-1.1553,234.7626
20:06:16:074,0.3135,0.6867,10.2437,46.8866,0.0459,-0.4294,-0.9599,235.8936
20:06:16:095,0.4355,0.7992,9.0688,45.8009,0.2243,-0.201,-0.6471,236.6364
20:06:16:113,1.005,1.0146,8.2146,45.5717,0.2365,-0.361,-0.4614,237.2391
20:06:16:130,1.3089,1.0265,7.4919,47.2956,0.118,-0.6139,-0.5005,237.9962
20:06:16:150,0.7394,1.1174,6.6927,45.0556,-0.025,-0.6591,-0.6667,238.9087
20:06:16:176,-1.2179,1.7707,6.7741,43.6701,-0.2656,-0.3683,-0.834,240.9155
20:06:16:192,-1.3639,1.986,6.9631,46.0236,-0.2094,-0.267,-0.6532,241.6832
20:06:16:211,-0.9595,2.3785,7.0397,45.8618,-0.0751,-0.2694,-0.4418,242.2426
20:06:16:231,-0.2823,2.5627,7.0205,45.4641,0.0337,-0.3366,-0.3258,242.7394
20:06:16:251,0.1077,2.7589,7.0923,45.3666,0.0434,-0.3378,-0.3502,243.2748
20:06:16:276,0.2082,2.8283,7.5063,45.3666,-0.0824,-0.2889,-0.4626,243.9147
20:06:16:293,0.0646,2.7398,8.7577,44.9866,-0.2717,-0.2352,-0.5958,244.665
20:06:16:315,-0.1603,2.6871,9.9733,45.6412,-0.3426,-0.2254,-0.6923,245.4922
20:06:16:419,0.012,2.5101,10.4231,44.527,-0.1496,-0.223,-0.6947,246.3108
20:06:16:420,0.2201,2.6058,9.9541,45.0949,0.1864,-0.2071,-0.6471,247.068
20:06:16:421,0.0239,3.0389,9.3464,45.5214,0.4002,-0.1545,-0.6092,247.8009
20:06:16:422,-0.2584,3.4935,9.1454,43.2492,0.366,-0.091,-0.5738,248.4931
20:06:16:423,-0.2513,3.7448,9.0975,42.9101,0.1913,-0.0116,-0.5628,249.129
20:06:16:437,-0.2441,3.7472,9.545,43.0941,-0.0372,0.0678,-0.5897,249.7745
20:06:16:459,-0.7537,3.6802,10.7366,43.8599,-0.2534,0.0861,-0.5909,250.4166
20:06:16:476,-1.1916,3.6395,11.799,43.9757,-0.2852,0.1435,-0.4919,250.9406
20:06:16:492,-1.5362,2.9671,11.5143,44.6689,0.019,0.3182,-0.3624,251.2651
20:06:16:510,-2.8833,3.3787,10.2604,44.293,0.3916,0.4038,-0.3405,251.5206
20:06:16:530,-3.3978,3.7615,9.3272,43.2057,0.4906,0.3537,-0.2696,251.7007
20:06:16:549,-2.4407,3.2734,9.6718,44.1804,0.2438,0.2511,-0.123,251.7769
20:06:16:576,-0.7394,2.0626,10.8156,42.7688,-0.163,0.0519,-0.0753,251.8301
20:06:16:592,-0.67,1.2275,11.9904,43.1917,-0.4232,-0.0519,-0.1939,251.9881
20:06:16:610,-1.9501,1.2897,12.3206,41.3072,-0.4012,0.0507,-0.3148,252.2534
20:06:16:630,-2.2684,1.0624,9.9039,40.6619,0.1607,0.4209,-0.0778,252.2413
20:06:16:650,-1.6845,1.2778,8.8439,41.8598,0.2438,0.2535,0.0798,252.0457
20:06:16:674,-1.5553,1.5864,7.8365,41.2401,0.096,0.0409,0.1971,251.8002
20:06:16:690,-0.4738,1.2275,8.4203,41.8583,-0.1691,0.091,0.3327,251.3983
20:06:16:710,-0.2058,1.0026,7.5565,40.8723,-0.3866,0.2486,0.4231,250.8449
20:06:16:730,-0.8279,1.1007,6.7047,41.6601,-0.5271,0.5553,0.3559,250.2688
20:06:16:751,0.2656,0.6221,6.4845,40.6385,-0.7409,0.7361,0.34,249.7089
20:06:16:770,-0.6006,1.2443,7.9059,42.4852,-0.9693,0.6835,0.1226,249.4089
20:06:16:791,-1.4333,1.2873,7.9418,42.5361,-0.9742,0.3573,-0.2183,249.536
20:06:16:809,-2.0339,1.3424,8.016,42.2458,-0.6712,0.2645,-0.4418,249.9457
20:06:16:829,-2.4574,1.3998,7.8389,39.8341,-0.3353,0.0641,-0.3405,250.2863
20:06:16:849,-2.7254,1.4524,7.7958,41.3887,-0.0665,-0.1277,-0.1621,250.4203
20:06:16:871,-2.5436,1.6822,7.4704,40.8569,0.1449,-0.2596,-0.0155,250.464
20:06:16:890,-2.0459,1.9167,7.2359,40.7168,0.2487,-0.234,0.1079,250.3654
20:06:16:910,-1.5864,2.0842,7.5805,41.6943,0.2646,-0.1741,0.2105,250.1652
20:06:16:930,-1.3783,2.1894,7.9968,40.0613,0.289,-0.1717,0.2594,249.92
20:06:16:949,-1.8497,2.3761,8.3701,39.7699,0.3391,-0.1643,0.2081,249.7346
20:06:16:970,-2.3019,2.4383,9.0664,39.2058,0.3293,-0.1485,0.1445,249.6079
20:06:16:991,-2.0889,2.4598,9.9278,40.8527,0.2963,-0.2083,0.1592,249.4296
20:06:17:008,-1.1916,2.2636,11.0261,40.2617,0.2915,-0.2755,0.2032,249.2184
20:06:17:030,-0.3278,2.1057,11.4401,40.3673,0.2548,-0.2816,0.1665,249.0685
20:06:17:051,-0.39,1.998,12.256,39.3297,0.1155,-0.3109,0.0749,248.9971
20:06:17:073,-0.95,2.0028,12.9787,38.5244,-0.0506,-0.3158,0.0236,248.959
20:06:17:093,-0.0622,1.9382,12.7992,35.9088,-0.1361,-0.1558,0.1287,248.7415
20:06:17:110,0.7346,1.5075,13.6439,39.205,-0.3011,-0.1692,0.1458,248.5541
20:06:17:128,1.1318,1.0768,14.5555,38.7041,-0.4025,-0.2804,0.0798,248.44
20:06:17:148,1.06,1.3735,14.0961,38.3914,-0.2717,-0.2865,-0.0008,248.3929
20:06:17:168,1.4931,1.4572,12.3637,38.7432,0.074,0.0079,-0.0008,248.3302
20:06:17:192,1.5123,1.5697,11.0213,37.7982,0.3806,0.2242,-0.0546,248.2898
20:06:17:211,1.3783,1.4883,9.9278,37.4846,0.5676,0.0849,-0.1975,248.4103
20:06:17:230,1.1174,1.3495,8.7505,37.76,0.6702,-0.1154,-0.3734,248.7655
20:06:17:249,0.9141,1.0217,8.1308,38.5791,0.5737,-0.1631,-0.5335,249.3065
20:06:17:273,0.335,0.8016,7.8796,37.1795,0.3477,-0.0568,-0.6092,249.8675
20:06:17:291,-0.1172,0.7561,7.6259,38.8501,0.1791,0.0287,-0.5946,250.4048
20:06:17:309,-0.347,0.926,7.279,38.5791,0.1326,-0.0202,-0.5384,250.8921
20:06:17:330,-0.5384,1.2132,6.463,38.3338,0.1986,-0.1106,-0.4993,251.3596
20:06:17:350,-0.9547,1.5386,5.9749,38.2934,0.2658,-0.1619,-0.4846,251.8224
20:06:17:373,-1.3759,1.8209,6.0227,36.1521,0.212,-0.2889,-0.4516,252.3032
20:06:17:390,-1.2299,2.0626,6.1304,36.4547,0.0691,-0.4331,-0.371,252.7342
20:06:17:409,-1.1629,2.5436,6.6616,36.9343,-0.1264,-0.449,-0.2537,253.0675
20:06:17:428,-0.6796,3.0628,8.0447,37.2396,-0.356,-0.4343,-0.1328,253.2905
20:06:17:450,0.3111,3.2973,9.3057,37.796,-0.5026,-0.4282,-0.0497,253.4293
20:06:17:470,0.9332,3.4792,9.9805,36.6358,-0.4733,-0.3317,-0.0582,253.5397
20:06:17:493,1.2658,3.5916,10.4495,36.923,-0.3622,-0.2547,-0.1328,253.7466
20:06:17:510,1.3232,3.6754,10.8682,36.9402,-0.2522,-0.179,-0.2024,253.9954
20:06:17:528,0.457,3.8548,11.0477,37.9291,-0.152,-0.08,-0.2623,254.3075
20:06:17:548,-0.8088,3.8022,11.6507,38.3133,0.1778,-0.0519,-0.2769,254.9089
20:06:17:570,-0.5408,3.7376,10.9567,36.4509,0.5321,0.0092,-0.2268,255.1002
20:06:17:590,-0.7537,3.8812,10.1025,38.1728,0.7227,0.0763,-0.2171,255.2782
20:06:17:611,-1.3113,3.6778,9.3679,37.5129,0.7178,0.1643,-0.2659,255.4585
20:06:17:628,-2.2205,3.5031,9.3966,36.386,0.5663,0.1362,-0.371,255.7071
20:06:17:649,-2.7924,3.2686,9.9302,37.5129,0.2976,0.0128,-0.4003,256.0075
20:06:17:672,-3.1681,2.9384,10.6481,37.8531,0.0227,0.0605,-0.2977,256.1494
20:06:17:689,-2.9193,2.4383,11.4927,36.7237,-0.1838,0.2486,-0.1266,256.0161
20:06:17:711,-2.0172,1.4907,12.9284,37.6586,-0.2717,0.2681,0.0175,255.7028
20:06:17:730,-1.596,0.7825,14.1296,37.6855,-0.207,-0.1057,0.0505,255.4297
20:06:17:754,-1.584,0.6628,13.6702,37.8796,0.1021,-0.416,0.0761,255.228
20:06:17:773,-2.0052,0.8351,11.1625,36.898,0.6396,-0.1326,0.1726,254.8161
20:06:17:790,-2.1344,0.9212,8.2098,35.8439,1.1222,0.3146,0.34,254.1372
20:06:17:810,-1.6415,1.2969,6.1854,36.913,1.1674,0.2938,0.4928,253.3482
20:06:17:830,-0.9332,1.809,6.2812,37.3092,0.7545,-0.0861,0.5624,252.6376
20:06:17:850,-0.1771,1.8927,7.7982,37.8919,0.2157,-0.361,0.5233,252.0911
20:06:17:877,0.1196,1.8209,8.2481,37.768,0.0239,-0.1949,0.45,251.5071
20:06:17:892,0.1914,1.8712,7.5135,37.3582,0.1607,0.1423,0.3803,250.8928
20:06:17:912,0.213,1.943,6.3745,37.6731,0.2744,0.2058,0.3058,250.3384
20:06:17:929,-0.2465,2.1966,6.4917,36.2731,0.1876,0.0202,0.1861,249.987
20:06:17:948,-0.6006,2.2923,7.0804,35.805,-0.0323,-0.1594,0.0969,249.831
20:06:17:971,-0.6843,2.5196,8.272,37.195,-0.141,0.0067,0.1335,249.5353
20:06:17:992,0.0479,2.8594,8.26,36.9404,0.2365,0.587,0.3144,248.4646
20:06:18:012,-0.3422,3.4576,7.8006,35.8082,0.4711,0.6457,0.2203,247.8947
20:06:18:029,-0.5001,3.7807,8.1667,36.4729,0.4869,0.4709,0.0664,247.57
20:06:18:048,-0.8638,3.5797,8.1404,35.7987,0.4564,0.1814,-0.046,247.4387
20:06:18:068,-1.3232,3.5749,8.1141,36.8955,0.4894,0.1057,-0.0778,247.3385
20:06:18:091,-1.3472,3.8979,8.1141,36.3573,0.4148,0.1655,-0.0314,247.191
20:06:18:110,-1.1868,4.118,8.6142,37.3688,0.223,0.1496,0.0493,246.9358
20:06:18:134,-1.1438,4.1826,8.9492,38.15,0.1192,0.0617,0.0786,246.7015
20:06:18:148,-1.608,4.276,10.258,36.5785,0.0996,-0.1533,0.0566,246.5517
20:06:18:171,-1.8377,4.2401,12.1914,37.6327,0.1118,-0.7288,0.0346,246.6473
20:06:18:192,-0.6006,3.5964,12.6437,37.3637,0.3806,-1.3641,0.1018,246.8984
20:06:18:210,0.7657,3.5629,10.5452,36.6615,0.9426,-1.292,0.2093,247.1052
20:06:18:229,1.0337,4.5894,8.2361,36.6639,1.2371,-0.6274,0.2301,247.0525
20:06:18:248,0.7801,5.1135,7.3723,36.6639,0.7838,-0.372,0.1116,247.0483
20:06:18:274,1.1749,4.4794,9.277,36.8736,-0.1545,-0.5015,-0.0668,247.2389
20:06:18:291,1.7061,3.539,12.1316,36.9363,-0.9364,-0.3842,-0.1572,247.402
20:06:18:310,1.4764,3.2518,13.5242,36.4108,-1.2418,-0.047,-0.1438,247.3549
20:06:18:330,1.1462,3.4241,12.5695,36.372,-0.984,0.4917,-0.0094,246.9703
20:06:18:349,1.0768,3.5725,10.7438,35.7514,-0.3744,0.9157,0.114,246.3257
20:06:18:370,1.2395,3.8429,9.2818,35.9558,0.1241,0.62,0.0712,245.8786
20:06:18:389,1.2658,3.728,8.5591,36.0304,0.2304,-0.0678,-0.0802,245.8997
20:06:18:411,1.4524,3.2064,9.0377,35.9171,-0.0103,-0.3671,-0.2305,246.3655
20:06:18:513,0.6724,2.7135,9.7412,36.3398,-0.2986,-0.1179,-0.2916,246.373
20:06:18:515,0.4427,2.79,8.8654,37.1525,-0.3182,0.2449,-0.3026,246.4046
20:06:18:515,-0.0359,2.7972,7.4489,36.3573,0.2572,0.2535,-0.4248,246.7263
20:06:18:517,-0.7896,2.7637,6.2764,38.4933,0.4539,0.1044,-0.531,247.0779
20:06:18:551,-1.0265,2.9121,5.6495,37.2127,0.4723,0.0177,-0.5262,247.4479
20:06:18:551,-0.993,3.2782,5.6136,37.5714,0.3757,-0.0275,-0.4321,247.7694
20:06:18:552,-0.8351,3.5725,5.7595,36.9204,0.2438,-0.0971,-0.3551,248.0589
20:06:18:571,-0.6461,3.8835,6.0706,37.7383,0.107,-0.1827,-0.3405,248.3862
20:06:18:590,-0.6532,4.1946,6.6281,36.4752,-0.0323,-0.2254,-0.3429,248.7635
20:06:18:608,-0.4881,4.5081,7.5135,36.1736,-0.1386,-0.1448,-0.2904,249.0332
20:06:18:632,-0.2273,4.8598,8.0901,37.359,-0.1532,0.0397,-0.2,249.1177
20:06:18:647,-0.1244,4.9938,8.4156,36.3085,-0.1349,0.2352,-0.1474,249.097
20:06:18:667,-0.3661,5.0704,8.7673,34.5393,-0.1422,0.3598,-0.1352,248.9908
20:06:18:695,-1.0193,5.3264,9.5258,37.4916,-0.1801,0.5186,-0.0998,248.7771
20:06:18:709,-1.7779,5.5394,9.9781,36.9904,-0.1618,0.6945,-0.0179,248.3865
20:06:18:727,-2.0267,5.5035,10.3825,37.5151,-0.0372,0.7764,0.1165,247.8555
20:06:18:747,-1.8664,5.6303,10.4399,37.5151,0.1534,0.7006,0.2863,247.1796
20:06:18:767,-1.4405,5.7882,10.0355,36.0529,0.3232,0.5834,0.3816,246.4783
20:06:18:790,-1.797,5.592,10.2102,37.5252,0.3489,0.4771,0.2985,245.8717
20:06:18:810,-4.1037,5.1517,11.0237,37.5341,0.2768,0.2865,0.1384,245.4334
20:06:18:828,-5.6303,4.9292,11.9521,39.2732,0.2536,0.0128,0.2667,244.9422
20:06:18:847,-4.4148,4.5105,12.5264,36.0864,0.3147,-0.2767,0.6674,244.1768
20:06:18:867,-3.2327,3.9769,12.4187,34.7669,0.41,-0.3354,0.9191,243.2156
20:06:18:887,-3.2279,3.2853,11.7392,36.6071,0.4906,-0.2303,0.9289,242.188
20:06:18:907,-3.7759,3.0915,10.3849,34.235,0.5761,-0.0373,0.9142,241.0757
20:06:18:928,-3.661,2.9982,6.8483,34.7699,0.6629,0.5418,1.1207,239.6798
20:06:18:947,-3.0413,3.137,6.3817,33.7395,0.438,0.3439,1.1989,236.6866
20:06:18:968,-2.0985,3.1083,6.9344,32.468,0.1192,0.0715,1.2209,235.3264
20:06:18:991,-1.1916,2.9049,7.3125,33.382,-0.1374,0.0495,1.1708,234.0203
20:06:19:010,-0.8303,2.8187,7.7886,31.8878,-0.3304,0.3121,1.0682,232.6825
20:06:19:030,-1.1174,2.8618,8.4682,31.6432,-0.4465,0.4746,0.946,231.3368
20:06:19:050,-1.2251,2.7685,8.7721,32.6208,-0.3951,0.3964,0.8507,230.1396
20:06:19:071,-0.9332,2.6704,7.7815,33.1793,-0.1765,0.2718,0.8104,229.0536
20:06:19:090,-1.0002,2.7087,6.9488,32.4469,-0.0042,0.2144,0.7737,228.0405
20:06:19:108,-1.3137,2.6488,6.4367,32.2531,0.0276,0.2547,0.7493,227.0402
20:06:19:129,-1.6343,2.8881,6.1807,30.7058,-0.0323,0.493,0.7908,225.9001
20:06:19:149,-1.3711,3.204,6.5396,31.7909,-0.1789,0.8424,0.8764,224.4546
20:06:19:177,-0.926,3.3835,7.0493,31.145,-0.3096,1.0415,0.9044,222.9335
20:06:19:188,-0.7178,4.0152,7.7456,31.3026,-0.3218,1.0012,0.8812,221.4918
20:06:19:208,-0.9523,3.8405,7.5159,31.4149,-0.2009,0.361,0.7701,220.4321
20:06:19:228,-0.6748,4.1061,8.7601,27.9309,-0.2168,0.0409,0.7847,219.517
20:06:19:248,-0.2943,4.4148,8.8152,27.9309,-0.1581,0.0202,0.8128,218.6422
20:06:19:268,-0.5192,4.6158,9.2794,30.5239,-0.1447,0.1264,0.7859,217.7383
20:06:19:289,-0.2536,4.8287,9.3942,28.0149,-0.1911,-0.1961,0.7493,216.9934
20:06:19:330,0.323,4.3669,9.7005,27.1848,-0.2888,-0.9548,0.6956,216.6695
20:06:19:331,1.2179,4.2138,11.5071,26.7123,-0.4782,-1.2798,0.6748,216.5028
20:06:19:351,2.1679,4.4171,12.7944,27.7507,-0.5405,-1.0122,0.665,216.2402
20:06:19:375,3.1681,4.5894,11.8158,28.0332,-0.3499,-0.4246,0.5941,215.8113
20:06:19:388,2.7015,4.0893,11.9857,29.2609,-0.2986,0.2523,0.0761,215.211
20:06:19:408,1.5506,3.3021,12.3254,28.772,-0.2669,-0.0739,-0.2672,215.4238
20:06:19:428,0.7155,3.0054,10.9185,25.3433,-0.0616,-0.361,-0.3979,215.8574
20:06:19:451,0.5838,2.6608,8.985,25.6385,0.1143,-0.2572,-0.3282,216.1831
20:06:19:480,0.2871,2.7589,8.071,25.1568,0.0801,-0.1142,-0.2171,216.3342
20:06:19:489,0.5743,3.0269,8.4921,26.2912,-0.1264,-0.2828,-0.0717,216.4202
20:06:19:508,1.4285,2.9934,9.2363,25.0815,-0.2827,-0.6811,0.0627,216.5358
20:06:19:527,2.2301,2.8068,9.5306,22.8783,-0.3035,-1.0745,0.0725,216.8621
20:06:19:548,2.3857,2.5077,8.9994,24.7948,-0.2302,-1.2223,-0.0436,217.3711
20:06:19:570,1.7396,2.1272,8.193,23.6804,-0.141,-0.8998,-0.1572,217.8115
20:06:19:588,1.2873,2.6704,7.255,23.7109,-0.0653,-0.0495,-0.101,217.856
20:06:19:611,0.6963,3.0891,6.2237,23.2166,-0.0445,0.4306,-0.0387,217.6563
20:06:19:628,0.3876,3.6706,5.5633,25.5468,-0.086,0.4917,0.0016,217.3841
20:06:19:648,0.6078,4.0439,5.592,24.8093,-0.1532,0.3305,0.0077,217.1913
20:06:19:678,1.1222,4.3789,5.8959,24.2907,-0.2058,0.0739,0.0126,217.1265
20:06:19:687,1.6726,4.3406,6.2596,22.008,-0.2595,-0.1191,-0.0387,217.1971
20:06:19:707,1.2443,4.3645,7.4273,23.2166,-0.3829,0.0226,-0.2,217.3841
20:06:19:727,0.4403,4.2162,8.4993,22.5037,-0.5344,0.2559,-0.3124,217.5188
20:06:19:748,-0.0168,3.8644,9.4182,21.3643,-0.51,0.3561,-0.2818,217.589
20:06:19:781,-0.1866,3.7783,10.069,21.5078,-0.4171,0.3451,-0.2354,217.5905
20:06:19:793,0.0191,3.7113,10.215,21.7479,-0.3463,0.2706,-0.1425,217.5395
20:06:19:812,-0.2513,3.8764,10.0762,21.0539,-0.3377,0.1753,0.0016,217.3761
20:06:19:828,-0.6796,4.2329,10.3729,19.0805,-0.3744,0.2107,0.1849,217.002
20:06:19:848,-0.548,4.1707,10.5787,20.2657,-0.273,0.653,0.7542,216.3026
20:06:19:883,0.0191,4.2736,10.392,17.6185,-0.2449,0.8265,0.8458,214.0487
20:06:19:890,-0.1723,4.2377,10.7079,18.5272,-0.2155,0.9242,0.676,212.985
20:06:19:911,-0.8351,3.8955,10.9543,17.9486,-0.0946,0.7666,0.505,212.1554
20:06:19:928,-1.9741,3.8812,10.5643,17.6656,0.1118,0.4685,0.384,211.4845
20:06:19:948,-2.9288,3.9171,9.7292,18.7003,0.3159,0.2877,0.3999,210.8203
20:06:19:988,-3.2542,3.6132,9.0329,19.6984,0.4088,0.273,0.5526,210.0034
20:06:19:990,-2.9743,3.0269,9.4995,18.0802,0.3244,0.2462,0.7163,209.0072
20:06:20:011,-2.6824,2.0506,9.6885,16.8523,0.1607,0.1606,0.8275,207.922
20:06:20:027,-3.0652,1.5434,9.7747,14.7479,-0.0091,0.3317,0.9436,206.5919
20:06:20:047,-3.3212,1.2921,9.5402,15.6742,-0.1997,0.6066,1.1732,205.0146
20:06:20:067,-3.1537,1.0768,9.9182,15.6985,-0.3499,0.7593,1.4787,202.9956
20:06:20:100,-2.4861,0.9212,10.5882,15.0462,-0.5112,0.7153,1.6778,200.7997
20:06:20:109,-1.5673,0.8782,11.0022,15.936,-0.5784,0.5443,1.756,198.6054
20:06:20:140,-0.7537,0.8829,11.1266,14.1018,-0.5002,0.3915,1.7413,196.5215
20:06:20:149,-0.402,0.8662,10.6768,13.8941,-0.3243,0.3915,1.6595,194.6219
20:06:20:168,-0.536,0.8949,9.7029,13.549,-0.0995,0.5064,1.552,192.8047
20:06:20:189,-0.4953,1.0409,8.5161,11.6427,0.0935,0.5956,1.4555,191.0649
20:06:20:209,0.0311,1.2395,7.6857,14.0719,0.2059,0.5418,1.3785,189.4509
20:06:20:229,0.414,1.6463,6.9416,15.414,0.2841,0.3121,1.2575,188.0482
20:06:20:249,0.2441,2.1224,6.5037,15.3966,0.3513,0.0568,1.0987,186.7628
20:06:20:274,-0.1436,2.3474,6.0491,12.025,0.377,-0.1069,0.9655,185.6512
20:06:20:289,-0.0526,2.7685,6.2572,12.3741,0.3367,-0.157,0.8544,184.808
20:06:20:311,-0.6078,2.2875,7.1569,11.1755,-0.0909,0.1386,0.5465,183.4403
20:06:20:329,-1.1605,2.0172,7.8915,12.8662,-0.295,0.3976,0.461,182.782
20:06:20:348,-1.797,2.0315,8.5519,10.1305,-0.4733,0.6066,0.5098,181.9852
20:06:20:368,-1.8879,2.1464,9.5282,12.5676,-0.5258,0.6945,0.6858,180.9829
20:06:20:390,-1.718,2.2373,9.9805,12.4886,-0.4037,0.62,0.8629,179.8293
20:06:20:412,-1.4692,2.2708,9.8943,11.9397,-0.2204,0.3964,0.9765,178.6362
20:06:20:430,-0.7489,2.0602,10.4854,11.9104,-0.2131,0.146,1.0682,177.4458
20:06:20:449,0.3135,1.9765,11.9187,12.4621,-0.4782,-0.1008,1.1464,176.2836
20:06:20:474,1.2754,2.065,14.3593,12.8108,-0.8142,-0.1741,1.1806,175.1309
20:06:20:490,1.7324,2.0937,15.9099,12.4285,-0.8618,-0.0385,1.1586,173.9761
20:06:20:510,1.7803,2.0267,14.9839,13.6122,-0.51,0.1057,1.1366,172.8068
20:06:20:630,2.4431,1.5721,13.3232,10.434,-0.0579,0.1448,1.1537,171.6314
20:06:20:631,2.9862,1.1151,12.3948,14.1642,0.1583,-0.0568,1.0755,170.6074
20:06:20:632,2.8905,1.206,12.0072,13.7487,0.1571,-0.2156,0.8935,169.806
20:06:20:632,2.5579,1.3807,11.1864,15.789,0.2475,-0.1338,0.7408,169.1347
20:06:20:633,2.3928,1.5003,9.9254,15.4043,0.3806,-0.0043,0.588,168.3966
20:06:20:633,2.3426,1.3902,8.9133,13.8229,0.4161,-0.0092,0.4048,167.8658
20:06:20:648,1.8855,1.194,8.2911,14.228,0.2951,-0.1545,0.2068,167.7482
20:06:20:675,1.5314,1.3998,8.1978,13.8607,0.0996,-0.2291,0.0505,167.8014
20:06:20:694,1.2347,1.4142,7.9466,15.6912,0.0263,-0.3036,-0.0607,167.9799
20:06:20:706,0.3159,1.4165,6.9607,14.5193,0.0715,-0.3647,-0.2158,168.1057
20:06:20:726,0.0383,1.2969,6.6903,14.458,0.0361,-0.2621,-0.2989,168.4818
20:06:20:747,0.1029,1.2132,6.7836,14.6581,-0.0555,-0.1533,-0.1633,168.6878
20:06:20:768,-0.0335,1.7803,6.6879,14.458,-0.1288,-0.0605,-0.0704,168.7758
20:06:20:791,0.146,1.7946,6.9368,14.8136,-0.1984,0.0434,-0.09,168.922
20:06:20:811,0.1795,1.8161,7.3866,16.9205,-0.2522,0.1667,-0.1303,169.0096
20:06:20:828,0.1531,1.8664,7.8054,16.0339,-0.2559,0.1557,-0.1719,168.96
20:06:20:851,0.1938,2.0028,8.4036,16.6919,-0.2314,0.0177,-0.1975,168.9673
20:06:20:870,0.4546,2.132,9.1693,14.612,-0.2143,-0.1032,-0.1951,168.9714
20:06:20:888,0.5145,2.3545,9.9446,16.5922,-0.163,-0.0715,-0.1755,169.1741
20:06:20:907,0.2249,2.6848,10.5835,16.2563,-0.0628,0.0605,-0.1401,169.0815
20:06:20:926,-0.2273,2.8881,9.5689,17.2681,0.1277,0.2193,-0.0497,168.8558
20:06:20:946,-0.5432,3.2614,8.5184,15.1553,0.1962,0.4135,0.1055,168.3935
20:06:20:967,-0.4307,3.7137,8.7195,18.6409,-0.0115,0.5369,0.3193,167.6923
20:06:20:987,-0.4259,4.1372,10.1264,16.9205,-0.3121,0.609,0.4659,166.7939
20:06:21:010,-0.6102,4.2544,12.2201,16.78,-0.4538,0.5528,0.5123,165.8597
20:06:21:026,-0.7322,4.0822,13.0696,16.9205,-0.2632,0.2718,0.5612,164.9258
20:06:21:046,-0.5958,3.7711,12.3853,17.0215,0.1363,-0.0434,0.665,163.9582
20:06:21:067,-0.725,3.7783,11.05,18.0473,0.3892,-0.0861,0.7823,162.8514
20:06:21:086,-1.139,3.9147,10.416,16.4501,0.3134,0.1301,0.8984,161.519
20:06:21:106,-1.1462,3.5246,11.6435,15.4429,-0.014,0.2767,1.0132,160.077
20:06:21:126,-0.7992,2.8857,14.5197,15.3319,-0.3194,-0.058,1.1171,158.6724
20:06:21:147,-0.1005,1.876,16.7498,15.0442,-0.2473,-0.7251,1.2123,157.3399
20:06:21:167,0.1125,0.8662,14.8068,18.7012,0.4124,-1.0061,1.2991,155.9713
20:06:21:192,-0.2417,0.7489,10.5619,17.2364,1.1149,-0.6652,1.4384,154.2979
20:06:21:209,-0.3996,1.1246,7.9944,17.5479,1.1943,-0.0764,1.6192,152.3145
20:06:21:229,1.0098,1.4381,8.7505,19.1948,0.3415,0.6163,1.8281,147.9691
20:06:21:248,1.5194,1.6176,8.7625,20.4002,0.1461,0.6713,1.6913,145.7379
20:06:21:269,2.1057,1.7922,8.2289,19.2921,0.0532,0.7068,1.4188,143.7721
20:06:21:292,2.0195,1.7659,7.7504,18.9131,-0.0445,0.6848,1.0059,142.2623
20:06:21:329,1.2706,1.4213,7.614,19.0931,-0.1691,0.7238,0.5575,141.2338
20:06:21:330,0.3613,1.1079,7.4369,19.0931,-0.3145,0.8485,0.2117,140.5089
20:06:21:346,-0.5767,0.938,7.6833,19.1025,-0.5149,1.1515,-0.0081,139.9179
20:06:21:371,-1.4022,0.8279,7.9346,20.1773,-0.6774,1.7293,-0.1022,139.2862
20:06:21:390,-2.2899,0.8638,8.4419,20.8311,-0.6786,2.185,-0.0509,138.4535
20:06:21:407,-2.4861,0.9954,8.8152,22.09,-0.4855,2.047,0.1445,137.4794
20:06:21:427,-2.0411,1.2084,8.3868,21.6114,-0.1142,1.4068,0.4194,136.339
20:06:21:445,-1.3783,1.6822,7.3364,21.6114,0.2597,0.7324,0.6283,135.0807
20:06:21:467,-0.6628,2.0052,6.2189,20.8688,0.4332,0.3989,0.6931,133.813
20:06:21:487,-0.3183,2.1655,5.9868,21.3028,0.3367,0.4013,0.6161,132.6927
20:06:21:508,-0.5934,2.4407,6.5659,20.9307,0.0984,0.5174,0.4549,131.6712
20:06:21:527,-0.8901,2.6058,7.1067,21.5381,-0.0763,0.554,0.3266,130.7859
20:06:21:547,-0.9787,2.8594,8.0542,21.3975,-0.1618,0.4172,0.2521,129.9905
20:06:21:567,-1.1222,2.7924,8.4826,22.5419,-0.1667,0.0776,0.1958,129.3594
20:06:21:589,-0.5575,2.5364,9.2554,20.9307,-0.1923,-0.2547,0.0969,128.8985
20:06:21:607,-0.079,2.3641,10.5667,20.3687,-0.3915,-0.8179,-0.0631,128.8184
20:06:21:627,0.4642,1.8329,12.7992,21.2238,-0.7604,-1.2382,-0.3099,129.1369
20:06:21:645,0.201,1.4022,16.0558,21.2238,-1.0268,-1.2504,-0.5921,129.7609
20:06:21:671,0.2369,0.0766,18.4152,20.8501,-1.0952,-1.2333,-0.7607,130.5898
20:06:21:691,-0.6867,-2.0028,18.7023,19.5236,-0.5613,-1.0085,-0.8291,132.6671
20:06:21:714,-2.0315,-1.6798,17.6399,16.51,-0.2437,-0.1118,-0.5591,133.0427
20:06:21:727,-1.8808,-1.0863,15.3691,18.6676,0.3159,0.8643,0.0065,132.7575
20:06:21:745,-0.6915,-0.8662,11.7464,21.3028,1.0074,1.3885,0.5746,131.6984
20:06:21:766,0.8877,-0.2393,8.2074,20.2204,1.4386,1.3982,0.9142,130.2042
20:06:21:789,2.4598,0.201,6.2046,21.6704,1.4057,1.2101,0.9961,128.6591
20:06:21:805,2.6273,1.5075,6.4654,22.2726,1.0917,1.0158,0.7444,127.3372
20:06:21:825,2.0913,1.6295,4.812,21.6043,1.0269,0.3537,0.1873,126.694
20:06:21:858,1.2538,1.4381,4.5129,21.6043,0.8302,-0.1692,-0.3344,126.7424
20:06:21:871,0.2249,1.3352,4.8192,21.6077,0.5431,-0.2767,-0.7155,127.1985
20:06:21:886,-0.4642,1.4955,5.1948,21.3205,0.3525,-0.2938,-0.8853,127.7755
20:06:21:905,-0.7202,1.6271,5.281,22.8402,0.2646,-0.2022,-0.9269,128.3993
20:06:21:925,-0.7849,1.9813,5.2618,22.6091,0.2035,-0.1081,-0.9196,128.9048
20:06:21:947,-0.6963,2.2469,5.5346,21.4271,0.0508,-0.0678,-0.9354,129.4454
20:06:21:968,-0.5743,2.4933,6.0419,20.9559,-0.1703,-0.0617,-0.9941,130.0446
20:06:21:987,-0.6987,2.8546,7.1115,20.9559,-0.4293,-0.0703,-1.0808,130.755
20:06:22:007,-0.7992,2.9551,9.2913,20.9559,-0.659,-0.1497,-1.1737,131.6194
20:06:22:025,-0.8877,2.9599,10.2461,20.9559,-0.6651,-0.2877,-1.2433,132.5892
20:06:22:045,-1.2251,3.137,10.0427,20.9559,-0.5149,-0.2132,-1.2726,133.5546
20:06:22:066,-1.931,3.2901,10.1192,21.3453,-0.5479,0.08,-1.2287,134.3755
20:06:22:090,-2.5172,3.5653,11.7966,22.6091,-0.7445,0.339,-1.0723,134.9735
20:06:22:108,-2.5508,3.4457,13.0385,21.223,-0.7751,0.4477,-0.812,135.2699
20:06:22:129,-2.7087,3.1131,12.5121,23.8308,-0.0018,0.4416,-0.3136,135.5
20:06:22:146,-2.7565,3.2686,11.4832,23.8308,0.4258,0.2425,-0.101,135.0398
20:06:22:168,-2.6393,3.3452,10.6074,22.6091,0.6751,-0.0312,-0.0216,134.5208
20:06:22:193,-2.8355,3.3691,10.0355,21.9416,0.6726,-0.2889,-0.1108,134.1227
20:06:22:210,-3.5749,3.4337,9.7555,20.5499,0.5248,-0.3097,-0.2281,133.837
20:06:22:226,-3.8596,3.1274,10.1145,21.3943,0.3122,-0.2352,-0.2488,133.603
20:06:22:245,-2.4072,1.1797,11.33,21.1469,0.1339,-0.4429,-0.2281,133.5539
20:06:22:270,-1.5003,0.1053,12.7872,21.5461,0.0263,-1.1783,-0.3869,133.9598
20:06:22:289,-1.5601,0.0335,12.8303,22.4204,0.1387,-1.6829,-0.608,134.7306
20:06:22:308,-2.4167,0.0144,11.0644,19.147,0.5395,-1.2846,-0.6361,135.3582
20:06:22:329,-2.8857,-0.4235,9.0329,22.0886,0.9646,-0.4807,-0.3563,135.5783
20:06:22:348,-2.9527,-0.0838,7.2694,22.2331,1.0306,-0.1277,0.0554,135.0584
20:06:22:368,-2.266,0.5934,6.8506,20.6828,0.7032,-0.1741,0.4427,134.1708
20:06:22:387,-0.8949,0.9093,7.1976,21.6219,0.2707,-0.2218,0.7004,133.1003
20:06:22:410,-0.0239,1.1174,7.5087,21.4208,-0.036,-0.0641,0.6907,132.0146
20:06:22:427,-0.1866,1.2825,7.4776,22.0105,-0.1984,0.2193,0.4549,131.0948
20:06:22:445,-0.8853,1.3495,7.4058,19.3263,-0.2901,0.4135,0.2044,130.3308
20:06:22:468,-1.5051,1.4764,7.5206,20.3542,-0.3512,0.3903,0.0761,129.7168
20:06:22:492,-1.7755,1.7611,7.7982,20.5231,-0.3634,0.201,0.0859,129.1564
20:06:22:510,-1.7109,2.2086,8.0614,22.3337,-0.3084,0.0311,0.1763,128.5023
20:06:22:529,-1.7539,2.4455,8.0184,22.0612,-0.1606,0.0373,0.2545,127.6458
20:06:22:548,-2.1152,2.6106,8.0064,21.9758,0.0105,0.1081,0.2679,126.7661
20:06:22:573,-2.2134,2.6656,7.8844,22.5299,0.1387,0.0873,0.2887,125.8713
20:06:22:591,-2.0435,2.7637,8.2217,21.7017,0.1876,0.0495,0.3571,124.9384
20:06:22:609,-1.3831,2.7063,9.9446,20.4064,0.2511,-0.0079,0.5514,123.3528
20:06:22:629,-1.474,2.68,9.9039,21.0273,0.4772,0.0214,0.632,122.2166
20:06:22:756,-1.7085,3.0293,9.387,24.5882,0.6836,0.0617,0.7151,120.9471
20:06:22:758,-1.1773,3.1035,9.1525,23.2443,0.6726,-0.0238,0.8251,119.5071
20:06:22:759,-0.1842,3.0772,9.533,24.0583,0.4478,-0.1399,0.8593,118.1261
20:06:22:761,0.5862,3.0293,11.007,24.2884,0.1216,-0.1863,0.7542,116.8897
20:06:22:762,0.6102,2.9025,12.122,22.8901,-0.0775,-0.1753,0.5392,115.9801
20:06:22:763,0.2082,2.9121,11.9067,20.6131,-0.0653,-0.1167,0.3376,115.2693
20:06:22:785,0.4379,2.6417,11.519,18.4057,-0.0579,-0.1668,0.2399,114.7807
20:06:22:790,1.3663,2.1296,11.9785,20.7207,-0.2265,-0.4013,0.1678,114.5903
20:06:22:812,2.4957,1.1222,13.1868,20.5368,-0.4574,-0.6909,0.0224,114.6427
20:06:22:825,2.5053,0.6508,13.5075,18.4732,-0.5051,-0.8705,-0.2293,115.1144
20:06:22:844,1.2849,0.5504,11.8851,20.5334,-0.2339,-0.6567,-0.4162,115.6792
20:06:22:866,0.4427,0.5216,10.1025,17.7378,0.1632,-0.2132,-0.3136,115.9147
20:06:22:885,0.457,0.7968,8.6812,20.6298,0.3941,-0.0446,-0.0338,115.81
20:06:22:907,0.9811,1.4477,7.8317,17.0305,0.3696,-0.1851,0.1653,115.3998
20:06:22:927,1.9717,1.6678,7.5087,19.8594,0.1852,-0.3476,0.1983,115.1375
20:06:22:946,2.2612,1.6295,7.5326,19.1203,-0.0445,-0.3219,0.0322,115.0221
20:06:22:966,1.7611,1.5553,7.6762,19.7986,-0.2669,-0.2022,-0.2513,115.2076
20:06:22:988,0.9619,1.5793,8.1117,19.1829,-0.422,-0.124,-0.4736,115.5443
20:06:23:010,0.1914,1.8616,8.284,18.486,-0.3988,-0.1093,-0.5237,115.8507
20:06:23:027,-0.0311,2.1775,7.748,18.4321,-0.1789,-0.0544,-0.4186,116.0311
20:06:23:046,0.0407,2.534,7.0038,19.1095,0.0728,0.0373,-0.261,116.0269
20:06:23:069,0.3876,3.1944,6.3458,20.4991,0.0581,0.0251,-0.1499,115.8355
20:06:23:086,0.6796,3.3093,6.8602,20.5933,-0.1508,-0.0018,-0.1877,115.7474
20:06:23:108,0.6269,3.4576,7.9896,19.0853,-0.3854,-0.0287,-0.272,115.7205
20:06:23:128,0.3613,3.1824,8.8152,18.484,-0.5198,-0.0421,-0.3392,115.8677
20:06:23:149,0.0598,2.735,9.5928,19.7433,-0.543,0.0275,-0.2708,115.9721
20:06:23:171,0.2536,2.479,10.4231,20.0123,-0.5393,0.102,-0.0277,115.7754
20:06:23:188,0.1914,2.7613,10.9974,18.484,-0.422,0.1692,0.1531,115.4869
20:06:23:208,-0.2058,3.2638,10.9735,17.8593,-0.1826,0.2474,0.2105,115.0028
20:06:23:227,-0.4092,3.6921,10.8012,18.9697,0.085,0.3109,0.2936,114.429
20:06:23:249,0.0072,3.8357,10.7821,19.1424,0.2853,0.2535,0.4182,113.8175
20:06:23:271,0.5647,3.9601,10.8419,18.6797,0.4148,0.1093,0.4879,113.0625
20:06:23:287,0.7442,4.2808,10.7988,17.9727,0.4955,-0.0153,0.4268,112.4309
20:06:23:306,0.7083,4.1204,10.9496,18.8635,0.4808,-0.0996,0.2313,112.0675
20:06:23:327,-0.1077,4.0822,11.0429,18.6538,0.399,-0.146,-0.035,111.9749
20:06:23:345,-1.0768,3.9865,10.9902,18.695,0.3024,-0.0751,-0.2195,112.1835
20:06:23:367,-1.5697,3.6586,11.3779,18.1403,0.1986,0.0825,-0.2574,112.3771
20:06:23:387,-1.4859,2.9575,12.0814,20.112,0.1033,0.1118,-0.2171,112.7817
20:06:23:408,-1.2251,2.2397,12.5169,17.5352,0.0618,-0.179,-0.1609,113.4155
20:06:23:426,-1.2682,2.0243,11.9928,19.6924,0.2108,-0.4087,-0.0949,114.0226
20:06:23:445,-1.6941,2.1535,10.2533,17.2844,0.5236,-0.2694,0.0419,114.2662
20:06:23:470,-1.4931,1.9789,8.3175,18.1558,0.7032,0.0434,0.2472,114.1664
20:06:23:489,-1.1127,1.9813,7.255,18.7942,0.5505,0.2315,0.3779,113.5168
20:06:23:507,-0.256,1.9262,8.0566,18.376,-0.1618,0.2474,0.4243,113.0396
20:06:23:525,0.2177,1.5147,8.3988,18.5581,-0.334,0.1154,0.3241,113.1016
20:06:23:546,0.0622,1.3161,8.351,17.4173,-0.3683,0.0238,0.1458,113.3309
20:06:23:569,-0.5025,1.3352,8.1356,16.4807,-0.3622,0.0251,-0.0008,113.7106
20:06:23:590,-1.2084,1.6534,8.0184,17.8225,-0.3279,0.1484,-0.0216,113.9791
20:06:23:606,-1.3902,2.0004,8.1141,17.7014,-0.2583,0.2596,0.0945,114.1509
20:06:23:627,-0.9787,2.1918,7.8532,19.8881,-0.1215,0.2865,0.2582,114.1706
20:06:23:645,-0.4953,2.266,7.5541,17.7198,0.0422,0.2926,0.3412,114.0811
20:06:23:666,-0.4044,2.546,7.4871,19.556,0.0923,0.212,0.3022,114.0486
20:06:23:688,-0.5815,2.7015,7.6618,19.0941,0.0215,0.1496,0.2142,114.2872
20:06:23:708,-0.7896,2.7326,7.9083,20.5317,-0.0531,0.2022,0.1812,114.4715
20:06:23:728,-0.9452,2.8475,7.9418,20.0494,-0.086,0.2474,0.2117,114.6383
20:06:23:746,-0.7896,2.9264,8.351,20.6609,-0.119,0.2315,0.296,114.7903
20:06:23:768,-0.6245,3.1178,8.8343,22.1232,-0.174,0.1277,0.3694,114.9816
20:06:23:789,-0.4522,3.1992,9.1095,21.5149,-0.2094,0.0739,0.3987,115.2098
20:06:23:808,-0.1651,3.0724,9.5569,20.5521,-0.2424,0.0531,0.4084,115.3986
20:06:23:827,-0.2153,2.948,10.1049,21.0667,-0.3047,-0.0226,0.373,115.6429
20:06:23:845,-0.2082,2.6178,10.6433,22.1305,-0.3817,-0.1362,0.3254,116.0438
20:06:23:866,-0.1029,2.3258,11.3492,24.2246,-0.4355,-0.2364,0.34,116.586
20:06:23:887,0.3829,2.2684,12.1508,23.403,-0.4184,-0.3036,0.4011,117.1457
20:06:23:907,1.3089,1.9501,12.457,21.6574,-0.306,-0.328,0.4439,117.7667
20:06:23:926,2.2325,1.5362,12.871,23.8277,-0.2559,-0.4429,0.3522,118.4193
20:06:23:947,2.7494,1.0265,13.6176,25.0903,-0.3548,-0.6383,0.1213,119.5743
20:06:23:969,1.4046,0.1962,13.3376,24.7765,-0.3365,-0.5907,-0.4577,122.174
20:06:23:989,0.2417,0.1914,11.6315,26.3174,-0.0005,-0.0605,-0.4406,123.8859
20:06:24:004,0.3852,0.2369,10.0307,25.1534,0.2853,0.2987,-0.1132,125.2143
20:06:24:024,1.072,0.7489,9.3224,24.4965,0.3354,0.2779,0.1397,126.0656
20:06:24:044,1.9717,0.9117,9.1884,26.3352,0.1986,0.1118,0.1494,126.9484
20:06:24:068,2.1894,0.8997,9.1023,25.3289,0.0276,0.0934,-0.0436,128.0866
20:06:24:091,1.4859,0.9643,8.8056,27.4825,-0.0946,0.2559,-0.2928,129.4513
20:06:24:109,0.7035,1.072,8.3892,27.2078,-0.1545,0.416,-0.4248,130.8573
20:06:24:127,0.2034,1.261,8.0399,26.8445,-0.1483,0.4624,-0.426,132.2252
20:06:24:147,0.0479,1.584,7.748,28.1638,-0.0873,0.4282,-0.3539,133.45
20:06:24:171,0.2273,1.9262,7.4345,27.4857,0.0043,0.3891,-0.2672,134.6932
20:06:24:187,0.4235,2.2445,7.2455,27.5326,0.1082,0.4099,-0.2036,135.6829
20:06:24:208,0.5121,2.4718,6.999,29.3008,0.1803,0.4282,-0.222,136.7419
20:06:24:227,0.335,2.7733,6.8794,30.0785,0.1974,0.3781,-0.2989,137.8975
20:06:24:244,0.1938,2.9671,7.0708,28.0172,0.1559,0.2193,-0.3686,139.1255
20:06:24:267,0.2752,2.9575,7.468,28.1636,0.1118,0.0153,-0.4089,140.4931
20:06:24:287,0.2871,3.0317,7.937,29.9195,0.0886,-0.1558,-0.4565,141.9097
20:06:24:305,0.0861,3.1107,8.2576,29.6755,0.0593,-0.1985,-0.5164,143.4395
20:06:24:325,-0.3829,3.0748,8.5759,30.1395,-0.0164,-0.1106,-0.5665,144.9219
20:06:24:345,-1.0983,2.9839,9.0209,30.7116,-0.152,0.0141,-0.5726,146.3232
20:06:24:366,-1.7372,2.9815,9.6191,32.2304,-0.2925,0.0922,-0.4846,147.5039
20:06:24:386,-1.9214,3.0365,10.258,31.0017,-0.3854,0.1203,-0.2965,148.4954
20:06:24:405,-1.6654,2.9886,10.8706,32.341,-0.367,0.1594,-0.0338,149.2211
20:06:24:426,-0.5599,2.9623,11.2176,32.0933,-0.0641,0.1765,0.3584,149.743
20:06:24:445,-0.5097,3.1442,10.8658,32.2593,0.096,0.1582,0.3522,149.2985
20:06:24:468,-1.2227,3.5294,10.4949,32.8659,0.1534,0.2303,0.2472,150.0522
20:06:24:491,-1.8185,3.4863,10.0546,33.7705,0.0899,0.3573,0.1714,150.4035
20:06:24:508,-1.6534,2.5555,10.2748,35.063,-0.1093,0.394,0.114,150.9042
20:06:24:527,-1.2108,1.0624,12.0024,33.3237,-0.4672,0.0531,-0.0094,151.7141
20:06:24:546,-1.2467,0.6317,13.2586,34.3865,-0.7421,-0.5589,-0.1951,152.7881
20:06:24:567,-1.9765,0.5312,12.7968,34.8603,-0.5662,-0.6506,-0.2684,153.8716
20:06:24:587,-2.9503,0.5384,10.794,34.4367,-0.0482,-0.2156,-0.0827,154.5822
20:06:24:606,-2.522,0.4211,8.7553,35.8522,0.3929,0.1386,0.3339,154.7805
20:06:24:626,-1.5386,0.682,7.8508,35.3551,0.4393,0.0666,0.676,154.6148
20:06:24:648,-0.3757,0.8734,8.3629,37.3117,0.1485,-0.179,0.7786,154.4791
20:06:24:672,0.2991,0.6963,9.3488,35.3854,-0.1948,-0.2816,0.654,154.549
20:06:24:689,0.146,0.3685,9.8154,36.5119,-0.334,-0.1704,0.4121,154.7192
20:06:24:707,-0.3685,0.1747,9.7603,36.1709,-0.2815,-0.0348,0.2081,155.1665
20:06:24:725,-1.0289,0.2345,9.4253,37.4852,-0.1703,0.047,0.1262,155.5433
20:06:24:745,-1.3232,0.4594,8.7888,36.0518,-0.0457,0.1313,0.1763,155.8308
20:06:24:891,-1.3639,0.8901,8.0279,37.6782,0.063,0.2339,0.2912,155.8195
20:06:24:891,-1.3639,1.3041,7.3005,37.7645,0.1216,0.3573,0.406,155.6785
20:06:24:891,-1.4812,1.6917,6.8339,37.4202,0.1082,0.4734,0.4866,155.4236
20:06:24:892,-1.4931,1.9214,6.7549,39.2029,0.0349,0.5308,0.516,155.0624
20:06:24:892,-1.6439,2.187,7.1043,38.8685,-0.0751,0.438,0.4964,154.7593
20:06:24:892,-1.5769,2.2588,7.7384,37.4027,-0.1838,0.2254,0.4414,154.6265
20:06:24:893,-1.2371,2.2636,8.8917,38.5898,-0.1838,-0.0153,0.4585,153.9926
20:06:24:906,-0.9858,2.4144,9.2889,38.5898,-0.1325,-0.0556,0.5001,153.8947
20:06:24:924,-0.8159,2.4024,9.7244,38.9182,-0.119,-0.1081,0.4781,153.8361
20:06:24:944,-0.4546,1.9573,10.3226,39.7061,-0.152,-0.2278,0.3755,153.9093
20:06:24:964,0.0168,1.3639,11.3515,38.42,-0.2351,-0.4221,0.2264,154.1785
20:06:24:987,0.4475,0.9571,12.2895,39.2205,-0.2974,-0.5626,0.1006,154.571
20:06:25:008,0.5216,0.7729,12.6365,40.2369,-0.2901,-0.5357,0.0138,155.0493
20:06:25:024,0.1723,0.8207,12.3446,39.0585,-0.207,-0.3048,0.0089,155.4324
20:06:25:045,0.5312,0.8614,11.799,39.6785,-0.1044,-0.102,0.1311,155.6168
20:06:25:065,1.6989,0.7083,11.7368,39.5857,-0.1007,-0.1607,0.2337,155.6996
20:06:25:086,2.8235,0.1484,12.1077,40.8578,-0.2082,-0.3647,0.1274,156.04
20:06:25:107,2.8307,-0.5384,12.5384,39.752,-0.3646,-0.5198,-0.1755,156.726
20:06:25:126,1.6893,-0.6269,12.4403,38.6686,-0.4306,-0.394,-0.4553,157.631
20:06:25:145,0.5097,-0.5575,11.2917,41.2928,-0.2754,0.0263,-0.47,158.4437
20:06:25:164,0.2369,-0.5647,9.7771,39.7201,-0.003,0.438,-0.2146,158.869
20:06:25:186,0.5743,-0.323,8.8702,39.9294,0.1571,0.5601,0.1018,158.9858
20:06:25:205,1.3902,-0.0814,8.485,39.4751,0.1424,0.394,0.2753,158.9163
20:06:25:225,2.1512,-0.0718,8.4156,39.8715,0.0386,0.1814,0.2264,158.9683
20:06:25:245,2.1488,-0.0574,8.2265,38.5667,-0.0592,0.0825,0.0114,159.2262
20:06:25:265,1.3974,0.0502,8.0279,38.9345,-0.1361,0.0763,-0.2146,159.7402
20:06:25:285,0.6796,0.1029,7.8389,39.4751,-0.1887,0.0885,-0.3478,160.3315
20:06:25:306,0.1914,0.2393,7.6762,39.0585,-0.1936,0.1008,-0.3747,160.936
20:06:25:325,-0.0335,0.4714,7.5637,39.5857,-0.1642,0.0971,-0.3282,161.4288
20:06:25:350,-0.0383,0.8758,7.468,39.3747,-0.0677,0.0922,-0.211,162.0835
20:06:25:370,-0.0431,1.0696,7.4393,38.5311,-0.0335,0.1191,-0.1889,162.4454
20:06:25:397,-0.012,1.2993,7.6116,40.653,-0.0689,0.0861,-0.2134,162.801
20:06:25:409,0.0479,1.3663,8.1404,40.575,-0.1911,0.0006,-0.3014,163.2686
20:06:25:428,0.0479,1.3256,9.2387,39.2866,-0.3426,-0.0764,-0.4125,163.8445
20:06:25:447,-0.0526,1.1988,10.1886,40.21,-0.4208,-0.0971,-0.4785,164.4739
20:06:25:473,-0.4187,1.2012,10.8012,40.8505,-0.3768,-0.0495,-0.4907,165.1094
20:06:25:492,-0.9141,1.3831,10.9783,41.6458,-0.2669,0.0141,-0.4443,165.6648
20:06:25:510,-1.2993,1.6534,10.9328,40.3183,-0.1545,0.1228,-0.3185,166.0119
20:06:25:525,-1.4381,1.8138,11.3037,41.0929,-0.1203,0.2645,-0.1279,166.3683
20:06:25:545,-1.084,1.7372,12.4618,38.8806,-0.1667,0.2987,0.0578,166.3594
20:06:25:565,-0.6245,1.7204,13.7563,39.4725,-0.1239,0.1704,0.1836,166.2416
20:06:25:585,-0.5551,1.8712,13.8186,39.9101,0.1497,0.0727,0.2618,166.0212
20:06:25:606,-0.7202,2.0698,12.6102,39.3684,0.5248,0.1179,0.3315,165.7186
20:06:25:627,-0.3302,2.0291,11.5406,40.6926,0.6983,0.1228,0.3803,165.358
20:06:25:647,0.3565,1.6893,11.6411,39.5135,0.4881,-0.0141,0.3351,165.0649
20:06:25:668,0.2106,1.1007,13.0241,39.9311,-0.0067,-0.1949,0.1384,164.9832
20:06:25:686,-0.3733,0.5288,14.3737,41.1301,-0.345,-0.2865,-0.0729,165.1353
20:06:25:707,-1.474,0.2297,13.6415,38.8976,-0.141,-0.1643,-0.1022,165.262
20:06:25:727,-2.2086,0.4235,11.3061,39.2339,0.5053,0.2254,0.1775,165.0331
20:06:25:746,-2.0004,0.7992,8.6477,40.1265,1.0807,0.5553,0.6393,164.2468
20:06:25:770,-1.3615,1.3639,7.0349,38.8501,1.2029,0.6163,0.9582,163.1084
20:06:25:789,-0.6676,1.9741,6.5539,39.361,0.8974,0.5125,1.0095,161.9211
20:06:25:808,0.3326,1.663,6.8818,38.5697,0.2621,0.7336,0.6601,160.0228
20:06:25:826,0.3709,1.005,7.2431,39.5528,0.1118,0.719,0.3364,159.563
20:06:25:844,0.0383,0.5001,8.4395,39.5287,-0.1031,0.3072,-0.0509,159.5986
20:06:25:866,-0.323,0.1651,9.8034,38.8959,-0.2803,-0.2156,-0.3466,160.0624
20:06:25:885,-0.9595,0.2704,10.66,40.976,-0.2717,-0.5137,-0.5152,160.7452
20:06:25:904,-1.6367,0.347,10.2724,40.3469,0.008,-0.3476,-0.4981,161.3604
20:06:25:924,-2.0435,0.5623,8.796,38.7271,0.432,0.1301,-0.2745,161.6201
20:06:25:945,-1.943,1.0768,7.2479,38.7271,0.7105,0.5235,0.0578,161.4172
20:06:25:967,-1.5123,1.5218,6.6616,37.9072,0.6897,0.598,0.2985,160.9344
20:06:25:992,-0.8303,2.0339,7.1785,36.818,0.4283,0.3341,0.3608,160.4578
20:06:26:019,-0.3302,2.1775,8.2935,38.5697,0.118,0.0177,0.2459,160.1981
20:06:26:027,-0.4187,2.0291,9.4732,37.6651,-0.0689,-0.1533,0.0346,160.2045
20:06:26:044,-0.7537,1.986,10.459,39.0062,-0.13,-0.2596,-0.1352,160.3931
20:06:26:064,-0.7872,1.7468,11.2176,37.8746,-0.097,-0.328,-0.1719,160.6851
20:06:26:098,-0.5982,1.6319,11.5526,39.1867,0.0288,-0.3476,-0.101,160.8501
20:06:26:105,0.0287,1.4548,11.6004,38.4486,0.1937,-0.3268,0.0175,160.976
20:06:26:127,0.4068,1.4644,11.3874,38.5395,0.3061,-0.3048,0.081,161.0247
20:06:26:145,0.3206,1.6295,11.0333,37.2501,0.3171,-0.2853,0.0419,161.1139
20:06:26:164,0.0838,1.8664,10.5212,38.2742,0.2988,-0.2254,0.0016,161.1465
20:06:26:187,0.0981,2.2062,10.1886,38.4096,0.2438,-0.256,0.0016,161.1844
20:06:26:207,0.9595,2.1655,10.605,40.0336,0.1094,-0.3928,0.0004,161.2764
20:06:26:227,1.7803,1.5482,11.3252,37.1569,-0.0641,-0.5382,-0.1157,161.5195
20:06:26:246,1.8975,0.3757,12.1651,39.6692,-0.1813,-0.598,-0.3795,162.0959
20:06:26:270,-0.9188,0.4331,11.8756,38.6187,-0.0531,-0.6054,-0.7815,163.9633
20:06:26:288,-1.0576,0.4953,10.0355,39.0386,0.3941,-0.2205,-0.4516,164.4556
20:06:26:306,-0.1005,0.8351,8.1476,37.8661,0.7972,0.0849,0.0529,164.3241
20:06:26:325,1.0863,1.2778,7.1306,38.0403,0.8571,0.1655,0.3058,163.9722
20:06:26:344,2.0363,1.6176,6.9942,38.1724,0.5724,0.0922,0.213,163.7117
20:06:26:365,2.0387,1.529,7.2838,38.9055,0.1485,0.0177,-0.1951,163.8987
20:06:26:385,0.9667,1.2849,7.6905,39.5379,-0.1936,0.0666,-0.6557,164.5488
20:06:26:405,-0.3422,1.4381,7.9059,38.9288,-0.3609,0.146,-0.8817,165.4171
20:06:26:425,-0.9643,1.7898,8.0399,37.3327,-0.4086,0.168,-0.8621,166.2322
20:06:26:445,-1.139,2.1775,8.0327,39.098,-0.3634,0.201,-0.7143,166.8806
20:06:26:467,-1.0337,2.467,7.9466,38.0947,-0.2534,0.2425,-0.5652,167.3752
20:06:26:487,-0.9165,2.8092,7.858,37.8933,-0.141,0.2425,-0.4749,167.7338
20:06:26:506,-0.6915,2.9982,8.0638,39.6634,-0.0824,0.2095,-0.4223,168.0837
20:06:26:525,-0.6963,3.125,8.4227,40.3034,-0.0763,0.1521,-0.4199,168.4221
20:06:26:545,-0.8925,3.0891,8.8463,38.5395,-0.0689,0.0849,-0.4602,168.8148
20:06:26:567,-1.2108,3.0891,9.1406,38.2829,-0.0311,0.0006,-0.4895,169.2692
20:06:26:585,-1.3041,2.9456,9.4158,38.7043,0.03,-0.0519,-0.4504,169.6912
20:06:26:607,-1.3137,2.9432,9.5713,40.2133,0.0984,-0.0788,-0.36,170.0054
20:06:26:627,-1.5864,3.1298,9.6479,37.7356,0.1619,-0.0886,-0.2562,170.1829
20:06:26:645,-1.9765,3.3571,9.6574,39.1867,0.212,-0.058,-0.1364,170.2505
20:06:26:671,-2.1105,3.3858,10.0307,39.5918,0.2047,-0.0214,0.0065,169.9625
20:06:26:688,-1.5482,3.3452,11.5549,41.0708,0.1449,-0.1741,0.2716,169.6664
20:06:26:707,-1.7228,3.4983,11.4233,40.6057,0.3086,-0.0544,0.3559,169.2443
20:06:26:723,-2.4263,3.7878,10.4136,39.7625,0.4991,0.1631,0.4036,168.7296
20:06:26:743,-2.7613,3.6778,9.7244,38.7446,0.5199,0.2779,0.4378,168.0416
20:06:26:764,-2.2014,3.2351,9.8513,37.4581,0.3073,0.1863,0.4842,167.3712
20:06:26:785,-0.5551,1.8473,11.2869,38.6187,-0.047,0.0018,0.4891,166.8016
20:06:26:806,0.0766,0.926,13.0481,39.0617,-0.4037,-0.3366,0.3229,166.5146
20:06:26:824,-1.1079,1.1797,13.6654,38.2742,-0.4721,-0.5162,0.0603,166.5435
20:06:26:844,-2.723,1.1797,12.1651,38.5688,-0.0628,-0.2193,0.0212,166.4601
20:06:26:865,-3.1585,1.2945,9.5617,39.0028,0.5199,0.2046,0.3388,165.9226
20:06:26:887,-2.2158,1.4692,7.4034,37.9952,0.8131,0.3854,0.7493,164.9246
20:06:26:955,-1.0122,1.7683,6.5922,38.509,0.6494,0.295,0.9619,163.7084
20:06:26:955,-0.1196,2.0028,6.9846,38.2709,0.1864,0.1289,0.88,162.6651
20:06:26:956,-0.1507,1.8042,7.8891,39.0124,-0.2375,0.1228,0.5868,161.9554
20:06:26:972,-1.0241,1.6176,8.2935,39.373,-0.3866,0.1912,0.2899,161.5024
20:06:26:984,-1.7109,1.6176,8.3342,37.4006,-0.3304,0.1875,0.2008,161.1321
20:06:27:004,-1.8521,1.9167,8.3414,37.7543,-0.2363,0.1228,0.3132,160.6553
20:06:27:023,-1.407,2.2708,8.3581,38.9987,-0.1471,0.1191,0.4854,160.0437
20:06:27:043,-0.8686,2.5101,8.2122,38.6854,-0.0555,0.2022,0.5929,159.2502
20:06:27:064,-0.7298,2.7278,7.8796,39.4221,0.0239,0.3011,0.5966,158.4126
20:06:27:086,-0.9404,2.9886,7.8485,38.8624,0.03,0.3048,0.5282,157.6504
20:06:27:104,-1.1438,3.0485,8.0518,39.4632,-0.0079,0.2254,0.4475,157.0013
20:06:27:124,-1.2849,3.0102,8.2911,37.9714,-0.0189,0.1325,0.3803,156.4376
20:06:27:145,-1.2945,2.8187,8.4658,37.8815,0.0031,0.0763,0.362,155.9152
20:06:27:166,-1.3089,2.936,8.741,38.9041,-0.0079,0.0116,0.3828,155.3798
20:06:27:184,-1.0122,3.2758,9.2124,39.3523,-0.014,-0.0092,0.4952,154.2429
20:06:27:209,-0.6508,3.2566,9.3009,39.8708,0.0092,0.0043,0.5086,153.6039
20:06:27:227,-0.1436,3.1107,9.7914,38.9529,-0.0079,-0.0605,0.4756,153.0222
20:06:27:244,0.402,2.9025,10.5643,39.0748,-0.0811,-0.2132,0.3767,152.5339
20:06:27:264,0.5719,2.7422,11.1266,37.6235,-0.1312,-0.2853,0.2337,152.2957
20:06:27:285,0.1244,2.7517,11.2367,40.5748,-0.1386,-0.2327,0.1006,152.1571
20:06:27:305,0.0215,2.7374,10.8299,38.2184,-0.0934,-0.1252,0.0725,152.0301
20:06:27:325,0.8183,2.455,10.5236,38.5368,-0.0628,-0.1154,0.1299,151.8157
20:06:27:344,1.6487,2.132,10.6098,37.6196,-0.1227,-0.2144,0.1042,151.6976
20:06:27:364,2.1488,1.4237,11.2534,38.8927,-0.2669,-0.3036,-0.0631,151.8234
20:06:27:385,1.5673,1.1055,11.665,39.4288,-0.3841,-0.2779,-0.2843,152.1405
20:06:27:406,0.457,1.3065,11.1577,39.6669,-0.3328,0.0043,-0.3771,152.4598
20:06:27:424,0.4953,0.9978,9.9518,39.6086,-0.1166,0.3634,-0.2232,152.5037
20:06:27:444,0.8255,1.1174,9.0401,37.975,0.041,0.4013,-0.0668,152.4015
20:06:27:467,1.2778,1.2514,8.6501,39.4501,0.03,0.1741,-0.0692,152.3683
20:06:27:487,1.3926,1.2227,8.7123,38.5722,-0.1264,-0.08,-0.2464,152.5983
20:06:27:504,0.9188,0.8519,9.0951,39.1071,-0.3292,-0.1643,-0.5054,153.1115
20:06:27:524,0.3302,0.8375,9.4182,40.2202,-0.4574,-0.1057,-0.6214,153.7382
20:06:27:543,0.1053,1.1438,9.4588,39.1116,-0.4306,-0.0177,-0.5543,154.2702
20:06:27:564,0.1819,1.4716,8.8606,38.9299,-0.2412,0.0348,-0.4248,154.6219
20:06:27:584,0.0933,1.8305,8.0973,38.9788,-0.0054,0.0275,-0.3502,154.8746
20:06:27:605,-0.0096,2.053,7.3364,39.9982,0.1656,-0.0031,-0.3356,155.1438
20:06:27:624,-0.1842,2.3474,6.7741,39.681,0.2304,-0.0104,-0.349,155.7188
20:06:27:653,-0.5982,2.9264,7.1593,38.4418,0.0251,-0.0507,-0.3979,156.1416
20:06:27:671,-0.6724,3.1107,7.8102,40.5304,-0.0885,-0.1069,-0.4113,156.4946
20:06:27:684,-0.4331,3.1777,8.3581,39.2121,-0.1325,-0.1338,-0.3771,156.8135
20:06:27:707,-0.2034,3.2423,9.3248,39.5716,-0.1593,-0.1423,-0.3588,157.1266
20:06:27:723,-0.2513,3.149,10.3322,38.5556,-0.1813,-0.1704,-0.393,157.4877
20:06:27:744,-0.5551,2.9336,10.8323,38.8723,-0.1251,-0.1802,-0.4406,157.8954
20:06:27:767,-1.0935,3.0197,10.9783,38.8977,-0.0274,-0.1533,-0.4174,158.2517
20:06:27:784,-1.407,3.2423,11.05,38.5901,0.0471,-0.0531,-0.2891,158.4504
20:06:27:805,-1.1773,3.0891,11.5023,39.4292,0.0789,0.0556,-0.112,158.3544
20:06:27:824,-0.8638,3.1202,11.866,38.6521,0.1265,0.0653,0.0322,158.1837
20:06:27:844,-0.5886,3.0867,11.6387,40.0793,0.2524,0.0751,0.1226,157.9175
20:06:27:865,-0.6461,3.0532,10.873,38.8089,0.3916,0.1655,0.1568,157.5778
20:06:27:885,-1.2538,3.3452,10.0283,38.4418,0.4026,0.2535,0.1201,157.2623
20:06:27:904,-2.0459,3.4457,9.7507,39.1043,0.2316,0.3182,0.07,156.9641
20:06:27:924,-2.6082,3.4122,10.1839,38.6521,-0.0433,0.3598,0.0639,156.6503
20:06:27:944,-1.9765,2.3402,11.2606,37.8823,-0.2876,0.2987,0.092,156.3516
20:06:27:965,-1.0959,0.8662,12.5025,39.1973,-0.4184,-0.0031,0.0615,156.1953
20:06:27:990,-1.6654,1.0313,12.9906,39.681,-0.3939,-0.405,-0.057,156.2454
20:06:28:008,-2.8331,1.3232,11.7344,38.4267,-0.0738,-0.3085,-0.0179,156.2271
20:06:28:023,-2.9312,1.2156,9.3535,40.7652,0.4283,0.2107,0.3254,155.6874
20:06:28:043,-2.455,1.395,7.3149,37.7345,0.6739,0.5235,0.6711,154.7098
20:06:28:063,-1.596,1.7468,6.597,37.8726,0.4918,0.4551,0.8495,153.5328
20:06:28:085,-0.4211,1.8592,7.3268,37.2124,0.0434,0.2071,0.8458,151.6856
20:06:28:105,-0.4355,1.2897,9.1549,39.2224,-0.466,-0.0495,0.2777,151.4149
20:06:28:124,-1.4189,1.0241,8.9707,37.3531,-0.3658,0.0018,0.0529,151.2403
20:06:28:145,-2.1129,1.0313,8.5424,39.1118,-0.1997,0.0922,0.0835,151.014
20:06:28:168,-2.1512,1.1174,7.882,38.5346,-0.0347,0.1924,0.3022,150.5133
20:06:28:186,-1.8521,1.5721,7.0947,38.7652,0.1009,0.3158,0.5722,149.6936
20:06:28:204,-1.517,1.9214,6.353,37.4666,0.1693,0.4697,0.7627,148.6159
20:06:28:224,-1.4213,2.2708,5.9031,38.2879,0.1424,0.5809,0.8251,147.4642
20:06:28:244,-1.4213,2.534,5.884,39.9504,0.019,0.543,0.7737,146.3364
20:06:28:265,-1.5434,2.6919,6.6161,40.0425,-0.1765,0.3317,0.6235,145.4278
20:06:28:285,-1.7133,2.5125,8.1859,38.1101,-0.3695,0.0226,0.4365,144.8232
20:06:28:305,-1.8903,2.345,9.3153,37.8005,-0.4184,-0.1998,0.3205,144.393
20:06:28:325,-1.9693,2.5484,10.1312,37.1668,-0.3524,-0.2498,0.3193,143.9971
20:06:28:344,-1.4094,2.4526,10.7605,39.8779,-0.251,-0.1631,0.417,143.4498
20:06:28:364,-0.5192,2.3904,11.4257,38.2037,-0.1862,-0.0947,0.4659,142.8688
20:06:28:385,0.2082,2.0889,12.0957,39.0483,-0.196,-0.0776,0.3706,142.3831
20:06:28:404,0.1292,1.7922,12.8016,38.4544,-0.2595,-0.0373,0.1824,142.086
20:06:28:430,-0.4379,1.5984,13.4261,39.6911,-0.306,-0.0336,0.0285,141.9702
20:06:28:443,-0.7418,1.5793,13.462,40.0286,-0.2253,-0.0483,0.0346,141.8276
20:06:28:462,0.1771,1.3687,13.0241,37.6603,-0.0311,-0.0067,0.2399,141.481
20:06:28:485,1.407,1.1557,12.603,38.1254,0.1094,-0.0153,0.4219,140.9843
20:06:28:504,2.2062,0.6389,12.6485,39.2729,0.1534,-0.1375,0.3645,140.5612
20:06:28:523,1.7946,0.3852,12.4164,36.8759,0.1986,-0.2841,0.147,140.4138
20:06:28:545,1.1773,0.4475,11.3013,38.9438,0.3843,-0.2535,0.0248,140.3797
20:06:28:568,1.651,0.4235,8.4538,38.7944,0.5957,-0.1814,0.1042,140.2971
20:06:28:584,2.3019,0.5049,8.071,37.2976,0.3,-0.1497,0.0676,140.1829
20:06:28:604,2.6848,0.4666,8.5998,38.7944,-0.1276,-0.0299,-0.0692,140.2064
20:06:28:623,2.2445,0.457,9.4205,39.2841,-0.4709,0.0873,-0.2977,140.4513
20:06:28:645,1.0863,0.6269,9.6479,38.0376,-0.5686,0.2144,-0.5188,140.9006
20:06:28:667,0.012,1.0002,8.985,38.352,-0.4159,0.3182,-0.5982,141.389
20:06:28:687,-0.4427,1.3232,7.6451,38.43,-0.13,0.4062,-0.5298,141.774
20:06:28:704,-0.6724,1.5482,6.1878,38.8012,0.1461,0.4771,-0.4223,142.0374
20:06:28:723,-0.7011,1.8831,5.3049,38.141,0.1986,0.3806,-0.3417,142.2192
20:06:28:743,-0.3948,2.1966,5.4796,37.4196,0.0166,0.2376,-0.2928,142.3958
20:06:28:772,-0.1244,2.3737,6.5109,35.6607,-0.2314,0.1228,-0.3246,142.6388
20:06:28:788,-0.2369,2.3426,7.6427,36.0892,-0.3902,0.0018,-0.4418,143.0206
20:06:28:807,-0.5312,2.2588,8.4299,36.8764,-0.3854,-0.0947,-0.5225,143.5101
20:06:28:831,-0.5097,2.2038,8.808,36.4654,-0.2998,-0.2474,-0.4968,144.045
20:06:28:842,0.1627,2.0722,9.3344,35.8522,-0.2546,-0.4637,-0.4199,144.5453
20:06:28:864,1.0792,1.9645,9.9111,38.0403,-0.2791,-0.5968,-0.3918,145.0662
20:06:28:883,1.2514,1.9717,10.7581,40.8457,-0.3646,-0.5675,-0.4809,145.5839
20:06:28:903,0.4355,2.199,11.9904,39.2368,-0.466,-0.4697,-0.6398,146.2449
20:06:28:924,-0.2752,2.2564,13.0241,37.6339,-0.4293,-0.4099,-0.7045,146.9548
20:06:28:943,-0.3422,2.3043,13.2323,39.8292,-0.1997,-0.4221,-0.5872,147.538
20:06:28:967,-0.2704,2.6656,12.3876,38.8088,0.118,-0.3561,-0.3661,147.8763
20:06:29:084,-0.2776,3.003,11.1817,37.282,0.3342,-0.1594,-0.2,147.9823
20:06:29:097,-1.5745,2.9839,10.7318,37.7717,0.14,-0.0092,-0.2672,148.34
20:06:29:098,-2.467,2.9575,11.3755,38.5904,-0.0079,0.0177,-0.2488,148.4548
20:06:29:098,-2.9527,2.6536,11.9976,36.0479,-0.0225,-0.0214,-0.1328,148.4605
20:06:29:099,-2.2349,1.9358,12.6006,35.4959,0.085,-0.2291,0.0541,148.3448
20:06:29:099,-0.9763,1.0241,13.0959,36.2735,0.201,-0.587,0.2008,148.1458
20:06:29:110,-0.993,0.9284,12.8997,36.2735,0.322,-0.763,0.1824,148.0047
20:06:29:123,-1.9047,0.8782,11.3731,37.1221,0.526,-0.438,0.1507,147.8311
20:06:29:144,-2.2756,0.8423,9.5474,36.0053,0.7386,0.0421,0.2814,147.4274
20:06:29:168,-2.1105,1.06,8.2648,35.7716,0.774,0.2388,0.4659,146.7928
20:06:29:187,-1.4405,1.3089,7.7336,34.7743,0.6384,0.1692,0.5868,146.0276
20:06:29:206,-0.6532,1.3783,7.7336,34.6566,0.4038,0.0116,0.566,145.3564
20:06:29:222,-0.3517,1.1844,7.803,34.6002,0.1681,-0.0409,0.384,144.8917
20:06:29:243,-0.7849,0.8471,7.9657,35.8367,-0.0237,0.0629,0.1433,144.6539
20:06:29:263,-1.3543,0.6891,8.0566,35.1914,-0.1374,0.2584,0.0224,144.4962
20:06:29:284,-1.7539,0.7729,7.9418,35.7356,-0.1386,0.4367,0.0639,144.2606
20:06:29:303,-1.7372,0.926,7.5948,35.7499,-0.0396,0.521,0.2093,143.8528
20:06:29:324,-1.4046,1.0983,7.0014,36.8531,0.1058,0.5443,0.3999,143.2315
20:06:29:345,-0.9069,1.4285,6.4271,35.1748,0.212,0.5455,0.5587,142.417
20:06:29:372,-0.5695,1.742,6.0012,35.3316,0.2243,0.5553,0.6308,141.5604
20:06:29:390,-0.335,2.0842,6.0849,35.9123,0.1167,0.521,0.6015,140.7224
20:06:29:408,-0.1316,2.2756,7.0349,35.7884,-0.0897,0.3744,0.4976,140.0482
20:06:29:423,0.0048,2.2373,8.3892,36.5471,-0.2632,0.1948,0.3547,139.5713
20:06:29:444,-0.1914,2.2612,9.5593,37.1249,-0.3035,0.0763,0.2289,139.2538
20:06:29:468,0.3805,2.2947,10.7557,36.3299,-0.1606,-0.1093,0.1629,138.9075
20:06:29:489,1.1414,2.1272,11.4975,35.499,-0.1642,-0.1912,0.0993,138.8262
20:06:29:506,1.395,1.8473,12.2369,36.6501,-0.2632,-0.2498,-0.0802,138.9818
20:06:29:523,1.0433,1.5314,13.0026,37.663,-0.411,-0.2254,-0.2953,139.3611
20:06:29:543,0.2393,1.517,13.6104,35.2294,-0.4904,-0.1191,-0.4162,139.8137
20:06:29:564,0.414,1.3328,13.3711,36.3941,-0.3927,-0.0006,-0.349,140.1861
20:06:29:587,1.4237,1.1127,12.7944,39.1801,-0.2388,0.0043,-0.2061,140.4489
20:06:29:603,2.0411,0.658,12.9739,36.1355,-0.2339,-0.1154,-0.2635,140.8061
20:06:29:626,1.3974,0.2632,13.0433,36.3748,-0.2388,-0.0898,-0.4516,141.3578
20:06:29:645,0.5838,0.1101,11.9569,36.8074,-0.0299,0.0971,-0.5323,141.9354
20:06:29:667,0.5456,0.1125,10.069,35.3997,0.2939,0.2413,-0.3967,142.35
20:06:29:682,1.0696,0.39,8.5424,36.6742,0.4747,0.2107,-0.2085,142.5393
20:06:29:705,1.9454,0.5432,7.5278,36.4565,0.4356,0.0531,-0.1242,142.6999
20:06:29:723,2.6584,0.5647,7.2263,35.658,0.2084,-0.0837,-0.2134,143.0185
20:06:29:743,2.5292,0.5073,7.2598,38.2223,-0.0921,-0.0996,-0.4687,143.5898
20:06:29:767,1.462,0.3517,7.8532,36.9199,-0.3768,0.0043,-0.7681,144.4599
20:06:29:786,0.3039,0.4762,8.5256,36.2706,-0.5417,0.0995,-0.8976,145.4236
20:06:29:806,-0.2704,0.6748,8.7195,36.1888,-0.4929,0.113,-0.8255,146.3198
20:06:29:824,-0.2991,1.0648,8.2624,36.3048,-0.251,0.0934,-0.6251,146.9748
20:06:29:844,0.1029,1.5051,7.212,36.7223,0.019,0.0373,-0.4248,147.4555
20:06:29:869,0.6269,1.785,6.5946,36.841,0.1436,-0.0092,-0.3258,147.8456
20:06:29:884,0.7872,2.1703,6.597,37.6432,0.0728,-0.0336,-0.3539,148.2566
20:06:29:904,0.591,2.3857,7.2335,35.7574,-0.1031,-0.08,-0.4907,148.8275
20:06:29:923,-0.0526,2.4335,9.32,39.1603,-0.3695,-0.3121,-0.7168,149.5694
20:06:29:942,-0.0981,2.5364,10.5428,37.927,-0.378,-0.4136,-0.7094,150.3913
20:06:29:963,-0.0742,2.4407,11.6028,36.3384,-0.3072,-0.5162,-0.7045,152.0743
20:06:29:986,-0.5791,2.4287,12.1842,38.4005,-0.1765,-0.5443,-0.7131,152.9193
20:06:30:008,-1.1892,2.5292,12.402,36.7223,-0.0201,-0.4368,-0.641,153.6567
20:06:30:022,-1.194,2.546,12.5791,39.7169,0.1118,-0.2816,-0.4418,154.1599
20:06:30:043,-0.8016,2.5675,13.1653,36.2331,0.1998,-0.2046,-0.2024,154.4057
20:06:30:068,-0.4164,2.6465,13.3352,37.2769,0.3244,-0.1753,-0.0265,154.4342
20:06:30:085,-0.4762,2.6584,12.5719,38.6966,0.5211,-0.1032,0.0615,154.38
20:06:30:104,-0.8925,2.5603,11.6866,38.7603,0.6384,-0.0531,0.0847,154.3214
20:06:30:123,-1.3113,2.345,10.8634,37.589,0.6531,-0.0055,0.125,154.1906
20:06:30:145,-1.4859,2.1727,10.4997,36.5714,0.5847,0.0336,0.2056,153.9245
20:06:30:168,-1.0265,1.6941,10.7318,39.8036,0.4674,-0.0275,0.2973,153.6058
20:06:30:184,-0.7633,1.0528,11.1625,39.5304,0.3721,-0.2095,0.3315,153.3301
20:06:30:206,-0.8973,0.8471,10.9448,38.3477,0.3941,-0.3659,0.3168,153.0784
20:06:30:223,-1.1964,0.8566,9.6957,38.8881,0.5382,-0.3121,0.3302,152.8102
20:06:30:244,-1.2467,0.9069,8.0351,38.6015,0.6396,-0.1399,0.373,152.4509
20:06:30:271,-1.0241,1.0385,7.2598,39.178,0.5028,-0.047,0.3901,152.0428
20:06:30:293,-0.6532,1.2706,7.6738,39.1781,0.1644,-0.047,0.3657,151.6981
20:06:30:302,-0.3302,1.1725,8.5065,38.9957,-0.1655,-0.1032,0.2692,151.4815
20:06:30:325,-0.1507,0.8877,9.0425,38.6015,-0.3414,-0.1509,0.1397,151.4034
20:06:30:343,-0.4762,0.8829,8.7099,41.0186,-0.3512,0.0299,0.0199,151.4059
20:06:30:365,-1.0002,1.0026,8.4108,40.3565,-0.2559,0.1912,0.0444,151.3465
20:06:30:383,-0.9356,1.0074,8.2481,39.4086,-0.1105,0.2144,0.1531,151.1195
20:06:30:405,-0.658,1.3759,7.7551,41.5568,0.0642,0.1374,0.2973,150.7997
20:06:30:423,-0.4642,1.8377,7.2215,39.196,0.1803,0.1362,0.3889,150.3727
20:06:30:443,-0.4666,2.2804,6.999,40.1312,0.1815,0.2107,0.417,149.9174
20:06:30:465,-0.5025,2.6321,7.2239,39.8932,0.1058,0.2303,0.3938,149.4776
20:06:30:484,-0.5695,2.814,7.803,40.4759,0.0092,0.1667,0.3315,149.1096
20:06:30:503,-0.5719,2.8092,8.5232,39.993,-0.0689,0.0959,0.2655,148.8168
20:06:30:522,-0.5025,2.7015,9.4516,44.0447,-0.1203,0.0568,0.2325,148.5803
20:06:30:543,-0.4714,2.7039,10.4782,42.1489,-0.1166,-0.0434,0.2252,148.38
20:06:30:566,-0.1842,2.7757,11.2343,42.5021,-0.0445,-0.1863,0.2386,148.2236
20:06:30:584,0.1723,2.7063,11.2965,40.2204,0.0935,-0.2498,0.2594,148.0485
20:06:30:607,0.591,2.5101,11.1123,42.5021,0.1717,-0.2474,0.2521,147.8821
20:06:30:623,1.2395,2.278,11.263,41.8177,0.1192,-0.2303,0.2362,147.7645
20:06:30:642,1.6869,2.0865,11.5502,43.489,0.0068,-0.1814,0.1922,147.6779
20:06:30:665,1.4094,2.2875,11.4832,43.3345,-0.0897,-0.1093,0.103,147.6897
20:06:30:686,1.6917,2.1224,11.0333,41.4404,-0.1642,-0.0287,0.037,147.7698
20:06:30:702,2.3282,1.3424,11.1386,43.3164,-0.3389,-0.0385,-0.068,147.9831
20:06:30:725,2.2971,0.402,12.4499,43.0486,-0.67,-0.1399,-0.3136,148.5026
20:06:30:747,1.3472,0.012,13.6654,43.9936,-0.8851,-0.1399,-0.5567,149.2556
20:06:30:768,-0.0526,-0.2034,13.4883,43.2126,-0.6639,0.1008,-0.6092,149.9953
20:06:30:787,-0.469,-0.3278,11.7847,41.8848,-0.1056,0.3744,-0.338,150.3752
20:06:30:807,1.2371,0.256,7.7025,43.3878,0.7887,0.3072,0.4353,150.2675
20:06:30:824,1.9454,0.6508,6.4199,43.5456,0.7557,0.1154,0.4341,149.785
20:06:30:843,2.1966,0.8159,5.8122,43.5236,0.4662,0.0251,0.1836,149.5131
20:06:30:866,1.5793,0.7442,5.6136,44.4998,0.0886,0.0922,-0.167,149.6562
20:06:30:885,0.4953,0.67,6.1519,43.3396,-0.2607,0.2303,-0.4358,150.1845
20:06:30:905,-0.3398,0.8112,6.7549,44.7678,-0.4794,0.2706,-0.5103,150.7726
20:06:30:922,-0.6102,1.0983,7.2144,42.7196,-0.5246,0.1839,-0.4296,151.302
20:06:30:943,-0.4427,1.3926,7.2909,46.7344,-0.4525,0.0922,-0.2769,151.6821
20:06:30:962,-0.3206,1.663,7.1545,42.1806,-0.3585,0.058,-0.1731,151.9548
20:06:30:984,-0.347,1.9023,7.5063,44.5259,-0.3695,0.0128,-0.1474,152.2042
20:06:31:009,-0.3565,2.0004,8.3821,45.5902,-0.4355,-0.0544,-0.1291,152.4351
20:06:31:022,-0.4714,2.1846,9.3512,45.0459,-0.4697,-0.1497,-0.1034,152.6222
20:06:31:042,-0.4259,2.2804,10.0953,44.4188,-0.4355,-0.2327,-0.0448,152.7926
20:06:31:062,-0.2536,2.4048,10.3801,45.2791,-0.3304,-0.2425,0.0664,152.8351
20:06:31:082,-0.1484,2.7565,10.739,45.1808,-0.2302,-0.2242,0.1898,152.7161
20:06:31:218,0.0431,2.9551,11.4425,45.1808,-0.1948,-0.2034,0.2875,152.4747
20:06:31:218,0.2967,3.0437,12.3206,45.1808,-0.1569,-0.1655,0.3571,152.1615
20:06:31:219,0.8662,2.948,13.1892,45.1808,-0.0347,-0.1399,0.417,151.8022
20:06:31:219,1.5697,2.8187,13.5147,45.1808,0.1876,-0.1216,0.4451,151.4354
20:06:31:220,1.5529,2.948,12.9428,45.1808,0.4637,-0.0409,0.3767,151.1347
20:06:31:220,0.9093,2.8666,11.7344,45.1808,0.6653,0.113,0.2337,150.9532
20:06:31:233,0.3589,2.6178,11.0644,45.8691,0.6519,0.1704,0.1006,150.8921
20:06:31:241,-0.1172,2.4574,10.9687,44.1557,0.4906,0.1961,0.0285,150.9213
20:06:31:264,-0.3757,2.1272,11.5214,46.0738,0.2878,0.2474,-0.0045,150.9947
20:06:31:282,-0.5168,1.4524,12.4355,45.1553,0.1375,0.2425,-0.0314,151.1116
20:06:31:308,-1.1533,0.682,11.5813,44.38,0.3929,-0.0324,0.026,151.2343
20:06:31:325,-1.3256,0.8542,9.6431,44.38,0.6787,0.0153,0.1653,151.0854
20:06:31:342,-1.1653,1.0241,7.858,45.1553,0.7948,0.1985,0.2912,150.7916
20:06:31:364,-1.0289,1.1198,6.9296,45.0229,0.6299,0.2987,0.3144,150.4645
20:06:31:385,-0.8255,1.2347,7.4584,44.4257,0.2328,0.1887,0.2643,150.2302
20:06:31:407,-0.3183,1.0337,8.8822,42.9058,-0.1642,0.0031,0.169,150.1773
20:06:31:425,0.1149,0.7011,9.7292,43.5632,-0.3609,-0.102,0.0419,150.3164
20:06:31:442,0.1747,0.5671,10.1312,43.5632,-0.4196,-0.1338,-0.1291,150.6256
20:06:31:463,-0.2489,0.4762,10.3179,44.6526,-0.4281,-0.0421,-0.294,151.0815
20:06:31:485,-0.9093,0.2967,9.7507,44.6088,-0.3328,0.146,-0.3722,151.5525
20:06:31:505,-1.0911,0.5049,8.7721,42.6502,-0.1679,0.3011,-0.272,151.8768
20:06:31:523,-0.792,0.7729,7.7623,42.5036,0.0581,0.5064,-0.0045,151.8666
20:06:31:542,-0.414,1.4213,6.5946,43.4177,0.2499,0.6127,0.1934,151.6319
20:06:31:564,-0.2823,1.9095,5.9103,43.8614,0.3073,0.631,0.2264,151.3526
20:06:31:584,-0.3781,2.3258,5.8935,41.9075,0.201,0.5259,0.1311,151.1887
20:06:31:605,-0.5838,2.4646,6.1878,41.995,0.0373,0.3451,-0.013,151.2112
20:06:31:625,-0.9212,2.4933,6.7334,41.3143,-0.1288,0.19,-0.1279,151.3604
20:06:31:641,-1.084,2.6369,7.4752,42.2778,-0.3157,0.0849,-0.1609,151.5976
20:06:31:662,-0.9978,2.534,8.8463,42.8992,-0.4868,0.0055,-0.1364,151.8387
20:06:31:682,-0.8279,2.3976,10.2102,43.3881,-0.521,-0.102,-0.0925,152.041
20:06:31:702,-0.5216,2.211,11.0405,40.3488,-0.3475,-0.2193,-0.0595,152.2559
20:06:31:724,-0.0838,1.8353,11.4592,43.239,-0.1374,-0.3757,-0.057,152.5268
20:06:31:743,0.3087,1.4788,11.9641,41.8859,-0.0409,-0.5626,-0.101,152.9101
20:06:31:768,0.134,1.3783,11.9545,42.0655,-0.0311,-0.4661,-0.178,153.6446
20:06:31:789,0.3565,1.5218,11.921,41.9351,-0.0897,-0.3256,-0.101,153.9294
20:06:31:807,1.2036,1.4213,12.0814,42.5152,-0.1471,-0.2914,-0.0069,154.1514
20:06:31:824,1.8305,0.9858,12.2249,40.5188,-0.1752,-0.2938,-0.0436,154.4326
20:06:31:843,1.7228,0.1053,12.3398,41.9963,-0.1984,-0.2743,-0.2464,154.9369
20:06:31:867,0.5264,-0.0957,12.2489,41.4321,-0.2094,-0.212,-0.4663,155.6343
20:06:31:885,-0.1555,-0.2321,11.653,40.9431,-0.0909,-0.0678,-0.4773,156.3014
20:06:31:901,0.134,-0.3757,10.7031,40.9959,0.1326,-0.0238,-0.2769,156.7604
20:06:31:922,0.7992,-0.0502,9.9422,39.8864,0.2878,-0.1851,-0.0998,157.0443
20:06:31:942,1.5769,0.1005,9.2913,40.021,0.3379,-0.3012,-0.0399,157.3326
20:06:31:962,1.8257,0.1053,8.3533,39.1091,0.3134,-0.2388,-0.1193,157.6805
20:06:31:983,1.5051,0.2656,7.5422,39.8461,0.1888,-0.0861,-0.2733,158.1419
20:06:32:002,0.8064,0.4642,7.2144,38.8436,-0.0384,0.0434,-0.4138,158.7457
20:06:32:023,0.122,0.7801,7.1474,40.8177,-0.2424,0.1448,-0.4773,159.3806
20:06:32:042,-0.0622,1.017,7.0612,41.2627,-0.3072,0.2254,-0.4492,159.9774
20:06:32:061,-0.1819,1.3543,6.8913,40.3768,-0.251,0.2816,-0.3942,160.5248
20:06:32:084,-0.2417,1.6558,6.9559,40.5395,-0.1911,0.2523,-0.3747,160.994
20:06:32:102,-0.3183,2.0483,7.4273,40.0058,-0.1972,0.1374,-0.3783,161.4764
20:06:32:122,-0.2225,2.3186,8.0327,40.4405,-0.2192,0.0311,-0.3783,161.9744
20:06:32:143,-0.1555,2.6512,8.6453,40.0161,-0.2363,-0.0141,-0.3857,162.4874
20:06:32:162,-0.0526,2.8881,9.8943,39.1696,-0.2607,-0.0238,-0.4138,163.0496
20:06:32:184,-0.0622,2.8738,10.7988,38.9559,-0.218,-0.025,-0.4516,163.6474
20:06:32:204,-0.4403,2.8522,11.3707,38.6306,-0.1288,-0.0092,-0.4944,164.2725
20:06:32:223,-0.9834,2.8857,12.2034,38.6525,0.0056,0.0348,-0.349,164.8548
20:06:32:244,-0.9954,3.0413,12.5886,39.5793,0.0899,0.091,-0.1926,165.5736
20:06:32:262,-0.4331,2.8546,12.9643,39.4536,0.1925,0.1252,-0.0387,165.674
20:06:32:284,0.2919,2.6201,13.2036,38.758,0.3318,0.1423,0.0493,165.6849
20:06:32:303,0.4738,2.3306,12.8566,39.54,0.5163,0.1863,0.0431,165.7278
20:06:32:324,-0.079,2.254,12.1149,38.4546,0.6763,0.2278,-0.0436,165.8634
20:06:32:348,-0.7992,2.2732,11.3659,38.1518,0.7178,0.2168,-0.1315,166.0632
20:06:32:360,-1.328,2.2301,10.7031,40.0363,0.6702,0.2388,-0.1364,166.2339
20:06:32:384,-1.4381,1.8521,10.4351,37.2412,0.5541,0.2608,-0.0546,166.2971
20:06:32:418,-0.4977,0.9069,10.6337,38.6266,0.377,0.058,-0.0008,166.4015
20:06:32:437,0.1172,-0.1172,10.6289,39.0784,0.2389,-0.3048,-0.0925,166.7163
20:06:32:441,-0.9643,0.055,10.0451,39.2232,0.1913,-0.4844,-0.2843,167.2109
20:06:32:465,-2.2564,0.5432,9.0401,37.5541,0.2475,-0.2792,-0.2549,167.58
20:06:32:482,-2.3258,0.5504,7.7049,40.0192,0.3965,0.1496,0.0639,167.4739
20:06:32:502,-1.7898,0.7609,6.8172,38.4485,0.4857,0.328,0.3437,167.085
20:06:32:521,-0.9236,1.0385,6.8698,38.5177,0.3574,0.0837,0.4072,166.6837
20:06:32:540,-0.1484,0.95,7.5278,40.2837,0.096,-0.2181,0.3193,166.4724
20:06:32:560,-0.1531,0.8351,8.0184,40.0058,-0.086,-0.234,0.158,166.456
20:06:32:582,-0.6006,0.7107,8.1906,39.0186,-0.1777,-0.0971,-0.0057,166.5527
20:06:32:602,-1.072,0.7442,8.3797,39.6161,-0.2534,-0.0177,-0.1108,166.7584
20:06:32:620,-1.1821,0.9093,8.5543,38.6796,-0.3096,-0.0055,-0.1218,167.0002
20:06:32:640,-1.2562,1.1557,8.5208,38.7456,-0.2998,0.069,-0.0619,167.14
20:06:32:660,-1.3567,1.4046,8.3988,40.2837,-0.2241,0.1924,0.0383,167.0796
20:06:32:682,-1.6152,2.0243,7.8867,39.4906,-0.0445,0.273,0.1983,166.9072
20:06:32:700,-1.6869,2.1344,7.7767,39.6755,0.008,0.2083,0.2178,166.5829
20:06:32:722,-1.6989,2.3785,7.9537,41.2382,-0.0054,0.0898,0.2362,166.0591
20:06:32:740,-1.6104,2.6225,8.4921,39.2966,-0.086,-0.0177,0.2753,165.7917
20:06:32:763,-1.5027,2.6058,9.1693,40.5986,-0.1447,-0.0544,0.3034,165.486
20:06:32:789,-1.596,2.723,9.6981,40.4198,-0.1325,-0.0947,0.3217,165.1732
20:06:32:801,-1.2873,2.8211,9.9972,40.4411,-0.0689,-0.1399,0.384,164.8209
20:06:32:824,-0.4403,2.656,10.2748,39.4536,-0.0054,-0.1888,0.4463,164.4597
20:06:32:840,0.3852,2.479,10.7629,40.0185,-0.0128,-0.2596,0.4036,164.1655
20:06:32:861,0.7059,2.2062,11.342,41.1643,-0.0775,-0.2731,0.2582,164.0598
20:06:32:885,0.4522,1.9884,11.8301,40.2259,-0.1129,-0.1924,0.0908,164.0903
20:06:32:903,0.0407,2.0554,11.7559,40.5845,-0.0848,-0.1081,-0.0008,164.2157
20:06:32:922,0.4762,1.5482,11.5143,41.3715,-0.0421,-0.0947,0.0212,164.318
20:06:32:941,1.0122,0.9476,11.5167,41.7463,-0.0958,-0.1912,0.037,164.4559
20:06:32:961,1.4812,0.5073,12.0455,41.6242,-0.2705,-0.2828,-0.002,164.6909
20:06:32:985,1.3974,0.2871,12.3685,42.5635,-0.4147,-0.1949,-0.0387,164.897
20:06:33:005,0.926,0.7202,11.8947,42.3131,-0.3316,0.1093,-0.0106,164.9952
20:06:33:021,1.1031,0.6939,10.873,41.6242,-0.0396,0.3512,0.1311,164.9378
20:06:33:041,1.6487,0.8016,9.88,42.3115,0.2401,0.3036,0.1922,164.8052
20:06:33:061,2.0076,0.9021,9.1573,41.7344,0.3525,0.1081,0.0712,164.8745
20:06:33:082,2.0004,0.6628,8.5998,42.3115,0.2951,0.0067,-0.1584,165.2224
20:06:33:103,1.2658,0.725,8.2505,42.9067,0.1375,0.0397,-0.3734,165.7516
20:06:33:122,0.5982,0.7872,8.0662,43.449,-0.0323,0.1362,-0.4639,166.3484
20:06:33:144,0.0431,1.4572,7.7097,42.6927,-0.1606,0.1912,-0.3649,167.2648
20:06:33:170,-0.0191,1.8257,7.3819,43.2586,-0.1312,0.1741,-0.2989,167.6338
20:06:33:184,-0.0383,2.065,7.0947,42.9789,-0.0799,0.1545,-0.2843,167.9718
20:06:33:202,-0.1101,2.187,6.9823,44.5927,-0.0494,0.1105,-0.3038,168.4189
20:06:33:362,-0.1412,2.3234,7.2622,44.6689,-0.0946,-0.0153,-0.3392,168.8154
20:06:33:363,-0.1412,2.3474,7.9609,44.9281,-0.2094,-0.1301,-0.3783,169.2698
20:06:33:364,-0.2441,2.2445,8.8582,46.817,-0.3157,-0.1558,-0.3954,169.7421
20:06:33:366,-0.1196,2.1846,9.5952,47.3859,-0.3524,-0.1875,-0.3869,170.2627
20:06:33:367,0.1699,2.1583,9.9685,43.1672,-0.2986,-0.201,-0.3539,170.7277
20:06:33:368,0.0933,2.1942,10.3801,44.4721,-0.2046,-0.157,-0.3221,171.2005
20:06:33:368,-0.457,2.5053,10.7725,44.8073,-0.1166,-0.1069,-0.2965,171.6265
20:06:33:369,-0.8566,2.79,11.0548,45.0686,-0.0225,-0.0556,-0.2244,171.9468
20:06:33:381,-0.8662,2.9671,11.3324,45.5831,0.0813,-0.0214,-0.0998,172.1227
20:06:33:404,-0.3972,2.7254,11.6794,46.6295,0.1754,-0.0287,0.0163,172.1723
20:06:33:421,-0.1053,2.5819,11.9306,46.7078,0.2621,-0.0715,0.0529,172.219
20:06:33:441,-0.1531,2.3785,11.8899,46.6295,0.3599,-0.0238,0.0285,172.3156
20:06:33:463,-0.725,2.144,11.4592,46.9816,0.4649,0.08,-0.0069,172.3763
20:06:33:480,-1.7515,2.4072,10.7366,46.4431,0.515,0.1472,-0.035,172.4053
20:06:33:500,-2.5508,2.5771,9.8656,47.5078,0.4833,0.273,0.0334,172.3051
20:06:33:520,-2.7015,2.613,9.5186,46.7615,0.3159,0.4282,0.1665,172.0082
20:06:33:540,-1.8042,1.5506,10.0451,47.1734,0.0068,0.3867,0.2447,171.6797
20:06:33:563,-1.2921,0.2369,11.1099,46.6041,-0.2717,0.146,0.1958,171.5034
20:06:33:584,-2.2851,0.5097,11.4162,49.0225,-0.3108,-0.0409,0.1433,171.3781
20:06:33:601,-2.8068,1.017,9.2387,49.632,0.3,0.3561,0.5795,171.0185
20:06:33:622,-2.132,1.2634,8.1284,48.6485,0.5382,0.3634,0.7933,170.2266
20:06:33:641,-1.0624,1.5266,7.7169,46.8833,0.4808,0.0849,0.8642,168.4059
20:06:33:661,-0.0431,1.4979,7.9107,46.1824,0.2426,-0.1717,0.7664,167.7024
20:06:33:690,0.0502,1.1055,8.4012,47.8574,-0.0286,-0.1839,0.5135,167.3066
20:06:33:712,-0.6269,0.8423,8.8726,47.7044,-0.2278,-0.0263,0.2826,167.0983
20:06:33:724,-1.1916,0.7777,9.1143,49.0444,-0.2864,0.1057,0.224,166.9072
20:06:33:741,-1.3759,1.0409,8.7793,47.9315,-0.1911,0.168,0.3046,166.606
20:06:33:761,-1.0241,1.4165,7.9944,48.9449,-0.0054,0.2046,0.4512,166.1646
20:06:33:784,-0.6867,1.7874,7.2981,48.8889,0.1228,0.2339,0.5404,165.569
20:06:33:804,-0.7633,2.0243,7.0325,50.7073,0.1106,0.2193,0.5196,165.0305
20:06:33:822,-1.1055,2.2014,7.2503,48.6427,-0.0054,0.1154,0.4317,164.5967
20:06:33:842,-1.3854,2.2445,7.9872,49.8937,-0.1459,0.0055,0.3559,164.2639
20:06:33:860,-1.3232,2.2349,8.5902,48.7692,-0.2229,-0.0189,0.3645,163.8943
20:06:33:881,-1.1773,2.266,8.9922,50.5284,-0.2204,0.0446,0.4231,163.4733
20:06:33:902,-1.0624,2.333,9.2124,49.0032,-0.1874,0.0934,0.472,163.0175
20:06:33:921,-1.0983,2.5268,9.5426,50.5157,-0.1593,0.0715,0.4793,162.5347
20:06:33:942,-0.8519,2.5603,9.923,50.6677,-0.1386,-0.0116,0.472,162.1062
20:06:33:965,-0.4092,2.3521,10.3083,50.2805,-0.119,-0.0922,0.4451,161.7357
20:06:33:987,0.0885,2.0554,10.8658,50.1235,-0.1374,-0.1533,0.3706,161.4781
20:06:34:000,0.347,1.7444,11.4305,49.5545,-0.1972,-0.1924,0.2655,161.3574
20:06:34:021,0.1507,1.5864,11.866,51.3922,-0.2534,-0.1973,0.1592,161.3733
20:06:34:041,-0.2249,1.797,11.9402,51.232,-0.2559,-0.1741,0.1165,161.3758
20:06:34:061,0.8853,1.3328,11.6411,51.4819,-0.2058,-0.1777,0.202,161.2435
20:06:34:082,1.5888,0.8016,11.866,52.0231,-0.2827,-0.2278,0.1568,161.3293
20:06:34:104,1.8185,0.146,12.2321,51.6803,-0.3964,-0.2291,0.0493,161.5627
20:06:34:122,1.3017,0.3996,12.5551,50.5157,-0.4465,-0.124,-0.0216,161.7911
20:06:34:142,1.194,0.481,11.8205,51.1238,-0.273,0.1105,0.048,161.9573
20:06:34:161,1.4261,0.4738,10.4638,50.7261,0.1045,0.3024,0.1604,161.9246
20:06:34:184,1.6176,0.6676,9.2148,52.7437,0.4332,0.2681,0.202,161.8484
20:06:34:203,1.8616,0.8327,8.1811,51.2277,0.5676,0.0995,0.1421,161.8934
20:06:34:220,1.7683,0.9141,7.5589,50.1531,0.5089,-0.0299,-0.0375,162.1542
20:06:34:241,1.3089,0.8614,7.3292,51.0452,0.3,-0.1044,-0.2757,162.6746
20:06:34:260,0.7226,0.8399,7.5326,50.6033,0.0495,-0.1106,-0.4406,163.34
20:06:34:282,0.2513,1.005,7.8461,51.3341,-0.1361,-0.0421,-0.4651,163.9864
20:06:34:304,-0.0694,1.273,7.949,51.7525,-0.2106,0.0531,-0.4138,164.5399
20:06:34:323,-0.1771,1.4931,7.9896,51.7647,-0.185,0.1167,-0.3563,165.0106
20:06:34:342,-0.1842,1.8185,7.8389,52.4389,-0.1227,0.1032,-0.3063,165.4097
20:06:34:360,-0.1507,2.1368,7.7145,52.5994,-0.0726,0.0763,-0.261,165.7532
20:06:34:380,-0.2177,2.4239,7.8461,52.5994,-0.0763,0.0495,-0.2562,166.1181
20:06:34:403,-0.28,2.522,8.2935,52.5994,-0.141,-0.0031,-0.2855,166.5181
20:06:34:423,-0.3924,2.4646,8.8702,54.2181,-0.1948,-0.0483,-0.3099,166.9457
20:06:34:442,-0.3159,2.3378,9.3775,53.1441,-0.2058,-0.0764,-0.2916,167.3818
20:06:34:460,-0.1005,2.1751,9.8704,52.711,-0.1948,-0.113,-0.2476,167.7879
20:06:34:480,-0.1603,2.2636,10.4399,52.1029,-0.1899,-0.1411,-0.2158,168.1458
20:06:34:502,-0.5504,2.5866,10.9424,53.063,-0.1765,-0.0922,-0.1865,168.4675
20:06:34:522,-0.4546,2.6034,11.5597,51.5791,0.0166,0.1325,-0.0045,168.8019
20:06:34:544,-0.1603,2.4287,11.7607,53.697,0.1595,0.1338,0.0578,168.773
20:06:34:571,-0.1292,2.2062,11.7224,53.7234,0.2988,0.1228,0.0419,168.9935
20:06:34:581,-0.6413,2.0291,11.3276,53.0356,0.4368,0.146,-0.002,169.081
20:06:34:601,-1.4094,2.1512,10.8299,54.0478,0.537,0.1338,-0.0228,169.1196
20:06:34:621,-1.7061,2.1248,10.2915,53.9734,0.5529,0.1069,0.026,169.1248
20:06:34:639,-1.2538,1.6319,10.1886,54.3894,0.4271,0.0605,0.092,169.1324
20:06:34:660,-0.3374,0.3876,11.0788,53.392,0.085,-0.1118,0.0651,169.2131
20:06:34:681,-0.4355,-0.1436,12.1268,53.8581,-0.3243,-0.3427,-0.0595,169.5013
20:06:34:703,-1.8688,0.3876,12.2776,53.3146,-0.4098,-0.2315,-0.1034,169.7262
20:06:34:722,-2.7398,0.8519,10.8347,53.8178,-0.0579,0.1777,0.1617,169.532
20:06:34:742,-2.3115,1.1462,8.9228,54.3354,0.4515,0.449,0.5917,168.8198
20:06:34:761,-1.2275,1.4764,7.7073,52.8292,0.6934,0.3024,0.8104,167.9516
20:06:34:787,0.0622,1.8951,7.5972,53.789,0.5419,-0.1069,0.7664,167.2816
20:06:34:802,0.6748,1.7611,8.1499,53.789,0.1583,-0.3012,0.4781,166.9932
20:06:34:819,0.0263,1.1773,9.0497,53.77,-0.218,-0.1472,0.1018,167.0595
20:06:34:840,-0.9691,0.9141,9.6024,53.789,-0.4122,0.0373,-0.1144,167.2695
20:06:34:860,-1.4931,0.9787,9.7316,53.2904,-0.378,0.0922,-0.1071,167.4418
20:06:34:881,-1.6104,1.2825,9.3392,54.7348,-0.1801,0.0947,0.0334,167.4301
20:06:34:903,-1.2586,1.7037,8.3892,52.3467,0.063,0.1472,0.2142,167.235
20:06:34:921,-0.9954,1.9741,7.5924,53.2887,0.2169,0.1973,0.3119,166.9227
20:06:34:941,-0.9404,2.2708,7.1497,53.2904,0.2316,0.1802,0.2948,166.6271
20:06:34:962,-1.3185,2.4814,7.6044,54.2882,0.0373,-0.0116,0.1714,166.4076
20:06:34:988,-1.328,2.4311,8.1117,53.3057,-0.0494,-0.0568,0.1641,166.0868
20:06:35:012,-1.3041,2.3761,8.607,54.274,-0.0995,-0.0678,0.1763,165.9656
20:06:35:023,-1.1318,2.2947,9.052,54.2536,-0.1203,-0.0874,0.1934,165.8649
20:06:35:040,-1.0457,2.3665,9.6239,53.7765,-0.1276,-0.146,0.2044,165.7461
20:06:35:060,-0.9069,2.2732,10.014,54.2672,-0.1154,-0.1704,0.2008,165.6591
20:06:35:081,-0.8207,2.0411,10.3011,53.8217,-0.086,-0.1485,0.1812,165.6003
20:06:35:101,-0.6843,1.8568,10.5787,53.7767,-0.0763,-0.1631,0.1592,165.5354
20:06:35:124,-0.3159,1.7396,10.9615,53.8909,-0.0983,-0.2132,0.1617,165.5289
20:06:35:140,-0.0072,1.5529,11.1362,53.844,-0.1288,-0.2046,0.1775,165.497
20:06:35:161,-0.067,1.5482,11.0309,53.8524,-0.1862,-0.1277,0.1812,165.4738
20:06:35:180,0.079,1.3041,11.0907,52.8267,-0.3108,-0.0287,0.1812,165.5579
20:06:35:200,0.6365,0.9404,11.5382,54.278,-0.5185,0.0018,0.1812,165.6241
20:06:35:221,1.4644,0.2106,12.2967,54.2982,-0.736,-0.0434,0.1372,165.7952
20:06:35:240,1.7013,-0.0455,12.9619,53.3466,-0.8728,-0.113,0.037,165.9813
20:06:35:260,1.2419,0.3326,13.0481,53.8154,-0.7934,0.0238,-0.0118,166.1946
20:06:35:281,1.2227,0.3613,12.2034,53.4196,-0.4171,0.3134,0.1311,166.209
20:06:35:299,1.6104,0.3829,11.0668,52.8375,0.0813,0.3207,0.2447,166.075
20:06:35:323,2.0818,0.4594,9.8154,55.381,0.4881,0.0397,0.1714,166.1008
20:06:35:340,2.1152,0.4164,8.6979,56.8508,0.702,-0.1753,-0.0204,166.3319
20:06:35:360,1.3783,0.4857,7.6499,53.4969,0.6641,-0.1631,-0.2598,166.7798
20:06:35:493,0.5958,0.6532,7.1234,54.8432,0.4271,-0.0177,-0.3954,167.3029
20:06:35:494,0.1914,0.7705,7.0445,55.3474,0.129,0.1081,-0.3857,167.7937
20:06:35:494,0.1866,1.5099,7.7647,54.383,-0.2339,0.1093,-0.2366,168.1727
20:06:35:494,0.1723,1.7755,7.9059,54.2956,-0.1972,0.0751,-0.233,168.4244
20:06:35:495,0.012,2.0195,7.724,54.7348,-0.0628,0.0275,-0.2733,168.7239
20:06:35:495,-0.1172,2.1655,7.5159,53.2904,0.0483,-0.025,-0.3063,169.5266
20:06:35:504,-0.1149,2.278,7.4393,50.8777,0.0569,-0.0531,-0.3087,169.9501
20:06:35:520,0.0646,2.2732,7.7169,53.2904,-0.0262,-0.069,-0.2928,170.363
20:06:35:540,0.2967,2.2014,8.4443,54.2751,-0.1557,-0.1313,-0.2977,170.8013
20:06:35:559,0.5408,2.0794,9.2171,52.3336,-0.2473,-0.2034,-0.3038,171.3
20:06:35:580,0.7418,1.9645,9.7723,53.7699,-0.2546,-0.2376,-0.305,171.7994
20:06:35:601,0.8542,1.9238,10.2221,52.8052,-0.207,-0.2218,-0.2977,172.272
20:06:35:620,0.6891,2.1129,10.7079,53.8287,-0.152,-0.168,-0.2891,172.7252
20:06:35:640,0.2895,2.4742,10.9926,54.8201,-0.0873,-0.0776,-0.2623,173.1428
20:06:35:660,0.055,2.7685,11.1218,53.392,0.0019,0.0214,-0.2122,173.6063
20:06:35:680,0.2465,2.6919,11.1888,54.7671,0.0886,0.0849,-0.1755,174.0182
20:06:35:702,0.3924,2.3737,11.3994,55.3291,0.1277,0.0873,-0.2048,174.4246
20:06:35:721,-0.0311,2.1631,11.6052,54.8454,0.096,0.0592,-0.3026,174.8605
20:06:35:741,-1.0241,2.065,11.7416,53.6378,0.0483,0.0873,-0.3759,175.324
20:06:35:759,-2.3115,2.7446,11.6243,55.3292,0.0386,0.1741,-0.3453,175.7136
20:06:35:779,-1.5123,1.7898,11.4018,55.368,0.0801,0.2596,-0.1914,175.9208
20:06:35:803,-0.3924,0.1364,11.598,54.9996,0.074,0.0263,-0.1816,176.2147
20:06:35:820,-0.2584,-0.6556,12.0957,55.4765,-0.0347,-0.4551,-0.338,176.7711
20:06:35:840,-1.395,-0.3685,12.2082,56.1908,-0.13,-0.642,-0.4358,177.4003
20:06:35:861,-2.7422,-0.1077,11.4903,55.7685,-0.0518,-0.2902,-0.2916,177.7855
20:06:35:883,-1.5314,0.0048,9.8321,52.8539,0.355,0.0995,0.4133,177.1184
20:06:35:905,-0.3589,0.2369,9.7986,55.3727,0.3452,-0.135,0.5037,176.6486
20:06:35:922,0.0766,0.3852,9.7723,54.8486,0.2536,-0.1631,0.4683,176.2767
20:06:35:940,-0.012,0.5671,9.4134,56.2964,0.2194,0.0617,0.4182,175.9143
20:06:35:960,-0.1723,0.7059,8.8606,54.3403,0.2365,0.2633,0.3901,175.5457
20:06:35:979,-0.414,0.7992,8.3725,56.2964,0.2524,0.3549,0.3645,175.1698
20:06:36:001,-0.6843,1.0217,8.0566,54.7606,0.2487,0.3964,0.3474,174.8013
20:06:36:020,-0.8638,1.2969,7.8102,54.7833,0.2499,0.4086,0.3767,174.3601
20:06:36:040,-0.8662,1.6247,7.5039,55.3792,0.2841,0.4184,0.4414,173.8524
20:06:36:059,-0.6604,1.8353,7.0851,55.4142,0.3257,0.4209,0.5025,173.2979
20:06:36:080,-0.5862,2.0794,6.8842,56.2888,0.3086,0.3573,0.494,172.7742
20:06:36:103,-0.7322,2.2804,7.0851,56.7061,0.1925,0.2095,0.4023,172.3461
20:06:36:123,-0.8207,2.3234,7.7647,53.4113,0.0166,0.0653,0.2985,172.0643
20:06:36:140,-0.9093,2.2493,8.5759,55.9123,-0.1129,0.0446,0.2643,171.8198
20:06:36:158,-0.9117,2.1512,9.4205,54.8683,-0.1422,0.1044,0.2985,171.5346
20:06:36:178,-0.7872,2.0913,10.0618,54.3069,-0.0702,0.0849,0.34,171.2076
20:06:36:199,-0.5073,2.1799,10.3131,55.3116,0.0935,-0.0104,0.3681,170.8819
20:06:36:218,-0.1866,2.1846,10.4734,55.7656,0.2487,-0.0971,0.3767,170.5759
20:06:36:240,0.2225,2.0148,10.7916,53.7845,0.3147,-0.1264,0.351,170.3279
20:06:36:259,0.6461,1.785,11.3539,55.3788,0.2951,-0.1411,0.2912,170.1493
20:06:36:279,0.8662,1.6391,11.811,55.4718,0.2719,-0.1619,0.213,170.0919
20:06:36:302,0.5192,1.8425,11.4377,54.513,0.3134,-0.113,0.1445,170.0732
20:06:36:320,0.2417,2.1488,10.6337,55.3224,0.3672,0.0079,0.1433,170.0112
20:06:36:342,1.7707,1.2275,9.947,56.0707,0.1436,-0.0079,0.1678,169.809
20:06:36:360,2.12,0.5456,10.7868,55.9886,-0.2155,-0.2694,-0.0485,170.0899
20:06:36:382,1.4859,0.7059,11.5717,57.3081,-0.5356,-0.3403,-0.2354,170.5922
20:06:36:403,1.5386,0.5097,11.9067,55.675,-0.5784,-0.1154,-0.1511,170.9388
20:06:36:420,1.8473,0.6748,11.3587,57.4735,-0.3658,0.0043,0.0248,171.0991
20:06:36:439,2.254,1.0265,10.4136,56.2361,-0.0457,-0.0031,0.0993,171.2014
20:06:36:460,2.5675,1.2323,9.3535,54.4691,0.1888,-0.0666,0.048,171.3478
20:06:36:479,2.589,1.261,8.4514,54.4461,0.245,-0.102,-0.1108,171.6555
20:06:36:503,2.1751,1.194,7.937,54.9484,0.1461,-0.0605,-0.305,172.1512
20:06:36:527,1.3065,1.2706,7.7934,57.4054,-0.0335,0.0067,-0.459,172.7664
20:06:36:542,0.4738,1.5314,7.8365,54.4205,-0.1703,0.0641,-0.5029,173.3666
20:06:36:560,0.0622,1.7635,7.8293,54.8626,-0.1887,0.0922,-0.4565,173.9025
20:06:36:578,0.0502,1.9717,7.6738,56.2272,-0.1044,0.1069,-0.3661,174.3397
20:06:36:599,0.0574,2.2421,7.3747,57.3112,0.0141,0.1277,-0.2928,174.6788
20:06:36:620,-0.0096,2.4383,7.1976,55.9001,0.0667,0.124,-0.2684,175.0132
20:06:36:641,0.0455,2.5244,7.4297,56.3407,0.0105,0.069,-0.2977,175.3802
20:06:36:661,0.1268,2.3976,8.071,55.784,-0.1166,-0.0006,-0.3576,175.8281
20:06:36:681,0.1747,2.2373,8.875,54.3695,-0.2375,-0.0385,-0.4076,176.3452
20:06:36:707,0.2058,2.0459,9.6,55.3022,-0.2864,-0.0421,-0.4186,176.875
20:06:36:722,0.3398,1.8712,10.1192,56.8251,-0.2632,-0.0666,-0.3954,177.395
20:06:36:738,0.4187,1.8568,10.6289,56.2309,-0.207,-0.0996,-0.3515,177.892
20:06:36:758,0.2082,2.0985,10.9376,55.8052,-0.1349,-0.047,-0.2879,178.2913
20:06:36:778,0.0502,2.3426,10.9759,56.2342,-0.0225,0.0825,-0.2,178.5941
20:06:36:800,0.2177,2.9791,10.3777,55.2886,0.2572,0.1606,-0.0045,178.7489
20:06:36:821,0.615,2.9839,10.4303,56.7897,0.2695,0.0861,0.004,178.8039
20:06:36:839,0.3757,3.07,10.6361,56.9136,0.2059,0.0653,-0.0839,178.9612
20:06:36:860,-0.7274,2.9264,10.66,58.2155,0.1583,0.1692,-0.2036,179.1956
20:06:36:878,-2.0483,3.0604,10.3872,57.7256,0.1473,0.2559,-0.2733,179.4075
20:06:36:904,-2.2588,2.8642,10.3442,56.3676,0.1228,0.2193,-0.2195,179.5402
20:06:36:923,-1.005,1.2371,10.8036,57.3563,0.0129,0.0287,-0.1425,179.712
20:06:36:940,-0.6485,0.0574,11.8636,57.2435,-0.2119,-0.3048,-0.239,180.0573
20:06:36:961,-1.919,0.5384,12.4187,57.2846,-0.4,-0.5052,-0.3832,180.5486
20:06:36:979,-3.5964,1.1533,11.4927,57.325,-0.2155,-0.1264,-0.239,180.732
20:06:37:001,-3.5175,1.3304,9.6574,56.3676,0.3024,0.4245,0.2484,180.2869
20:06:37:020,-2.6345,1.5625,8.1308,56.9483,0.7215,0.5858,0.6931,179.3611
20:06:37:039,-1.0313,1.9549,7.4991,55.9933,0.7423,0.2694,0.8886,178.3492
20:06:37:058,0.5647,2.1129,8.0638,56.9577,0.4185,-0.1338,0.7676,177.6393
20:06:37:078,0.7872,1.5386,9.0784,55.4768,-0.014,-0.2755,0.3376,177.4213
20:06:37:098,-0.414,1.0122,9.6503,55.4974,-0.2901,-0.1252,-0.0986,177.5895
20:06:37:120,-1.2825,0.9117,9.6766,55.3788,-0.3389,0.0311,-0.2097,177.8109
20:06:37:139,-1.4094,1.0504,9.21,57.6564,-0.2021,0.124,-0.0448,177.7914
20:06:37:160,-0.9787,1.4213,8.3127,54.4875,0.0068,0.1729,0.1934,177.5342
20:06:37:178,-0.6365,1.7563,7.5159,56.3094,0.14,0.1912,0.3302,177.1659
20:06:37:200,-0.6102,2.0746,7.0014,55.7711,0.1216,0.1814,0.3437,176.7761
20:06:37:221,-1.084,2.3737,6.9823,55.4428,-0.0091,0.1472,0.2643,176.4427
20:06:37:242,-1.6726,2.5101,7.3388,56.2764,-0.1667,0.0837,0.1629,176.2382
20:06:37:263,-1.6845,2.5723,8.3749,55.2672,-0.2766,-0.0043,0.235,175.7171
20:06:37:279,-1.474,2.6201,9.0281,55.3116,-0.2913,-0.0226,0.3168,175.3615
20:06:37:299,-1.2849,2.6154,9.7579,56.2735,-0.3011,-0.0348,0.3412,174.9869
20:06:37:324,-1.2658,2.6752,10.2963,55.7659,-0.2424,-0.0226,0.3376,174.6109
20:06:37:344,-1.2371,2.5651,10.337,54.8091,-0.0946,0.0092,0.3498,174.2509
20:06:37:361,-0.9643,2.3928,10.2796,55.7051,0.0324,-0.0336,0.3608,173.8885
20:06:37:378,-0.4187,2.2086,10.4495,54.3135,0.0386,-0.1313,0.3584,173.5561
20:06:37:399,-0.0335,2.0339,10.7868,56.2745,-0.0347,-0.1619,0.3339,173.2534
20:06:37:421,-0.0694,1.8951,11.1171,55.2562,-0.119,-0.1435,0.2716,173.0169
20:06:37:440,-0.2273,1.9071,11.3779,56.2269,-0.1557,-0.1558,0.2301,172.8326
20:06:37:460,0.0598,2.0722,11.6483,54.3664,-0.1349,-0.2462,0.2569,172.6549
20:06:37:478,0.859,2.0937,11.8181,55.374,-0.0873,-0.3488,0.3119,172.4393
20:06:37:642,1.797,1.7683,11.8971,57.7885,-0.0604,-0.383,0.3278,172.2469
20:06:37:644,2.5771,0.9787,11.9498,55.4255,-0.0848,-0.3696,0.2484,172.179
20:06:37:645,2.3019,0.3757,12.4762,55.75,-0.163,-0.3598,0.0725,172.2795
20:06:37:647,1.4118,0.8351,12.9189,55.6702,-0.1997,-0.3207,-0.0546,172.4338
20:06:37:648,1.5386,0.6341,11.9498,52.5343,0.0312,-0.047,0.0114,172.4803
20:06:37:648,1.8066,0.7705,10.1695,52.5354,0.4222,0.2046,0.1299,172.3112
20:06:37:648,2.1176,1.0983,8.8487,53.4198,0.6201,0.2058,0.1213,172.4578
20:06:37:649,1.6391,1.1533,8.0351,51.5391,0.3257,-0.0715,-0.3295,172.9107
20:06:37:664,0.9045,1.084,8.1691,51.9244,0.0948,-0.0287,-0.5408,173.5636
20:06:37:681,0.4164,1.1629,8.1954,51.451,-0.0311,0.0727,-0.5714,174.1998
20:06:37:703,0.0431,1.3759,8.0662,52.593,-0.0494,0.1313,-0.5469,174.7631
20:06:37:721,-0.2656,1.608,7.8867,52.3874,-0.0152,0.1179,-0.5323,175.2991
20:06:37:740,-0.4905,1.8592,7.5589,53.8011,0.041,0.1032,-0.5054,175.8145
20:06:37:758,-0.615,2.1583,7.2048,53.7767,0.1009,0.1118,-0.4492,176.2809
20:06:37:782,-0.4977,2.388,6.9607,51.8497,0.118,0.1032,-0.3869,176.6815
20:06:37:802,-0.4427,2.5962,7.0804,52.4007,0.0691,0.0592,-0.3453,177.0447
20:06:37:822,-0.3805,2.7111,7.5613,52.8211,-0.0457,-0.0006,-0.338,177.4398
20:06:37:844,-0.3254,2.6034,8.4658,53.3663,-0.1642,-0.0764,-0.3515,177.8578
20:06:37:859,-0.0574,2.4191,9.3416,52.8292,-0.2314,-0.1485,-0.3502,178.3259
20:06:37:877,0.1986,2.3402,10.1384,53.7837,-0.2473,-0.1777,-0.3172,178.7559
20:06:37:900,0.0766,2.4885,10.7509,53.4085,-0.2094,-0.1277,-0.2769,179.1165
20:06:37:920,-0.5504,2.9145,10.8778,50.976,-0.0848,0.0299,-0.2048,179.3715
20:06:37:940,-0.8351,3.4193,10.6744,52.8984,0.0935,0.1826,-0.068,179.4249
20:06:37:960,-0.4738,3.5821,10.6098,51.4894,0.234,0.2083,0.059,179.3484
20:06:37:978,0.0455,3.539,10.727,52.8669,0.3,0.1545,0.081,179.2899
20:06:38:002,0.2776,3.3691,10.6217,53.5032,0.3269,0.1313,0.0309,179.2816
20:06:38:020,-0.1651,2.9886,10.3226,53.4545,0.3281,0.1912,-0.0802,179.3925
20:06:38:040,-1.5912,3.1394,9.99,52.4923,0.2768,0.2645,-0.1877,179.5292
20:06:38:059,-2.6297,3.6108,9.5689,53.4374,0.2023,0.3463,-0.1401,179.5466
20:06:38:078,-2.7039,3.8261,8.8152,53.1842,0.1485,0.4404,0.0431,179.3776
20:06:38:100,-1.584,3.0126,8.662,54.3295,0.0154,0.3964,0.1482,179.1782
20:06:38:120,-0.6843,1.1055,9.4445,52.0135,-0.2595,0.1032,0.0322,179.1951
20:06:38:140,-1.651,0.4786,10.739,50.7888,-0.5613,-0.2327,-0.2305,179.4979
20:06:38:160,-3.6802,0.8112,11.5238,52.2157,-0.6908,-0.2914,-0.316,179.8444
20:06:38:179,-3.8166,0.8734,9.8632,51.3316,0.03,0.3647,0.5722,178.9313
20:06:38:204,-2.4981,1.1151,8.7673,51.7306,0.4026,0.3867,1.0218,177.7374
20:06:38:223,-1.072,1.4859,8.1643,53.0299,0.4539,0.1472,1.1904,176.4703
20:06:38:243,-0.1531,1.4596,7.949,51.7015,0.3037,-0.0079,1.0547,175.4185
20:06:38:259,-0.335,1.0696,7.9202,52.2708,0.0544,-0.0141,0.687,174.7752
20:06:38:278,-0.9212,0.5767,8.5113,51.1125,-0.2363,-0.0006,0.3755,174.4578
20:06:38:299,-1.1318,0.548,9.2076,53.9963,-0.4513,-0.0226,0.3229,174.1771
20:06:38:319,-1.0026,0.7418,9.5713,51.6556,-0.5039,0.0409,0.395,173.8079
20:06:38:339,-0.8112,1.0672,9.1837,53.2332,-0.3964,0.2205,0.4781,173.3315
20:06:38:359,-0.7825,1.3711,8.5208,53.0532,-0.2302,0.3696,0.5074,172.8101
20:06:38:379,-0.8159,1.6391,7.925,53.0299,-0.1288,0.3842,0.4707,172.3002
20:06:38:401,-1.1055,1.797,7.7336,54.2483,-0.1337,0.2963,0.3755,171.8979
20:06:38:420,-1.4429,1.9717,7.9561,53.8047,-0.2106,0.1936,0.2728,171.6438
20:06:38:438,-1.3711,2.0363,8.5376,53.6323,-0.3047,0.1826,0.2496,171.4288
20:06:38:459,-1.0289,2.0961,9.1837,53.0863,-0.3512,0.2071,0.2899,171.1664
20:06:38:478,-0.7394,2.144,9.8584,53.7149,-0.3389,0.1631,0.2899,170.9196
20:06:38:497,-0.5862,2.0626,10.4686,55.0675,-0.2827,0.091,0.2399,170.7676
20:06:38:519,-0.682,2.0411,10.9496,55.0124,-0.2131,0.0165,0.1568,170.7137
