Time,Acc_X,Acc_Y,Acc_Z,Meg,Gyr_X,Gyr_Y,Gyr_Z,Ore
19:52:49:891,-0.859,1.4501,10.0594,32.2565,-0.8078,-0.0581,-0.3295,174.6076
19:52:49:900,-0.859,1.4501,10.0594,32.4533,-0.8078,-0.0581,-0.3295,174.907
19:52:49:922,-0.7801,1.5075,9.588,33.3804,-0.8078,-0.0581,-0.3295,175.2196
19:52:49:939,-0.8901,1.7898,9.32,33.2755,0.1109,0.0286,-0.2257,175.2676
19:52:49:959,-0.9547,1.8114,9.0736,32.7263,0.0474,-0.0422,-0.2257,175.3436
19:52:49:981,-0.9739,1.8042,9.2028,32.5619,-0.0369,-0.0691,-0.211,175.4525
19:52:49:998,-1.0193,1.8808,9.2961,33.3804,-0.0418,-0.0093,-0.1854,175.5274
19:52:50:016,-1.0528,1.8066,9.2722,32.7263,-0.0039,0.053,-0.139,175.56
19:52:50:035,-0.9787,1.6845,9.2818,34.349,0.0034,0.0811,-0.0974,175.618
19:52:50:063,-0.8662,1.6487,9.2602,34.2064,-0.0027,0.0799,-0.0742,175.676
19:52:50:074,-0.8327,1.6008,9.344,34.1317,-0.0198,0.075,-0.0547,175.7707
19:52:50:094,-0.9093,1.5721,9.3823,31.3262,-0.0406,0.0518,-0.0473,175.8301
19:52:50:113,-1.0648,1.5721,9.6,31.8612,-0.0687,0.0249,-0.0547,175.8996
19:52:50:132,-1.2562,1.5386,9.7436,33.4815,-0.0772,0.0066,-0.0461,175.8905
19:52:50:166,-1.4094,1.5003,9.7555,31.3451,-0.0528,-0.0093,-0.0241,175.8536
19:52:50:174,-1.4692,1.5434,9.6096,31.7056,-0.0211,-0.0312,-0.0022,175.7874
19:52:50:196,-1.4788,1.5769,9.411,32.9058,-0.0247,-0.063,0.0113,175.6975
19:52:50:215,-1.5147,1.7109,9.2674,32.0292,-0.0589,-0.0777,0.0162,175.5701
19:52:50:236,-1.5816,1.7994,9.3105,31.9808,-0.0943,-0.0716,0.0309,175.4409
19:52:50:271,-1.651,1.8736,9.4493,33.4363,-0.1188,-0.0459,0.0492,175.2767
19:52:50:274,-1.6582,1.9047,9.4205,33.9482,-0.1273,-0.019,0.065,175.0706
19:52:50:296,-1.6367,1.9597,9.3751,32.7263,-0.1322,0.0323,0.076,174.8636
19:52:50:313,-1.7492,2.01,9.5067,32.962,-0.1554,0.1007,0.0822,174.6415
19:52:50:333,-1.8521,2.0052,9.8273,31.9808,-0.1982,0.1618,0.0944,174.3812
19:52:50:354,-1.7731,1.943,10.4088,33.1546,-0.2141,0.2253,0.1249,174.1412
19:52:50:382,-1.5912,1.9789,10.4686,31.2237,-0.1444,0.2326,0.1371,173.889
19:52:50:395,-1.5123,2.1105,9.8273,32.1811,-0.0284,0.1764,0.1127,173.6663
19:52:50:414,-1.4644,2.3497,9.3344,33.8683,0.0278,0.1031,0.0932,173.5228
19:52:50:435,-1.3854,2.4766,9.2794,34.6454,-0.0174,0.0445,0.0956,173.3254
19:52:50:454,-1.3902,2.5125,9.277,30.9168,-0.0687,-0.0154,0.1041,173.1459
19:52:50:474,-1.3783,2.5866,9.2985,33.5093,-0.0528,-0.0276,0.1298,172.976
19:52:50:495,-1.3472,2.5651,9.0162,33.3055,0.0229,-0.0068,0.1713,172.6905
19:52:50:513,-1.3232,2.5244,8.9372,34.2063,0.0828,0.0481,0.2007,172.4207
19:52:50:536,-1.4165,2.668,8.9204,33.8009,0.0926,0.0604,0.2104,172.1383
19:52:50:565,-1.3041,2.7111,9.1765,33.8683,-0.0162,-0.0606,0.2495,171.5476
19:52:50:576,-1.0816,2.7063,9.3918,31.866,-0.0357,-0.0826,0.2703,171.2425
19:52:50:597,-0.9619,2.7182,9.3679,32.6605,-0.0186,-0.1094,0.2642,170.9738
19:52:50:614,-0.8734,2.7589,9.399,32.3823,-0.0211,-0.1669,0.2373,170.7246
19:52:50:636,-0.7442,2.7948,9.5163,33.185,-0.0235,-0.2047,0.2178,170.5379
19:52:50:667,-0.67,2.7494,9.5019,30.8361,0.0009,-0.2304,0.2055,170.3366
19:52:50:675,-0.4857,2.7182,9.5904,33.1851,0.0107,-0.2487,0.1933,170.1697
19:52:50:693,-0.1412,2.6465,9.8321,32.8701,-0.0076,-0.2512,0.1726,170.059
19:52:50:713,-0.1531,2.522,10.0116,32.8701,-0.0394,-0.2793,0.1115,170.0433
19:52:50:736,-0.1292,2.065,10.1073,31.378,-0.0601,-0.3147,0.0443,170.1177
19:52:50:754,0.7849,0.859,11.129,31.0583,-0.065,-0.3465,-0.0498,170.3923
19:52:50:774,1.7683,0.3183,11.7607,30.962,-0.0736,-0.5444,-0.3601,171.0878
19:52:50:793,1.9549,0.6508,12.5791,32.3263,-0.0565,-0.746,-0.872,172.3763
19:52:50:814,1.4812,0.9811,12.4666,34.5909,-0.0137,-1.0441,-1.2568,174.0565
19:52:50:836,2.3378,1.6487,11.2487,32.8714,0.0364,-1.1516,-1.3729,175.9078
19:52:50:853,0.0718,1.7563,12.4475,31.9808,0.2245,-0.4454,-1.5134,177.6148
19:52:50:874,-1.5625,1.9214,13.34,33.9485,0.6362,0.4978,-1.291,178.8204
19:52:50:893,-1.6845,1.6869,12.8279,32.8623,1.186,1.0744,-0.7706,179.2717
19:52:50:914,-0.7131,1.9214,11.5143,32.8624,1.6771,1.2699,-0.3051,179.2574
19:52:50:937,-0.0383,2.2875,9.6766,33.0702,2.0107,1.2222,-0.0596,178.9815
19:52:50:955,0.1938,2.6082,7.5637,30.9471,2.1646,1.1379,-0.0095,178.6178
19:52:50:976,-0.1579,3.1609,6.1328,32.6186,2.1292,1.2674,-0.0278,178.1417
19:52:50:993,-1.1797,3.7926,5.8863,31.1933,1.9642,1.6828,-0.0461,177.3517
19:52:51:014,-2.4861,3.2662,6.9368,30.5127,1.5037,2.3975,0.2385,176.1989
19:52:51:040,-2.0985,2.3043,7.3292,31.9279,1.1933,2.2644,0.4157,173.0507
19:52:51:060,-2.5771,2.0459,8.2911,31.8148,0.883,1.8624,0.3351,171.6562
19:52:51:076,-5.8098,4.8048,9.3224,31.9104,0.7254,1.2222,0.1579,170.558
19:52:51:091,-4.532,5.6279,7.5661,30.8368,0.486,0.3084,0.197,169.9453
19:52:51:112,-3.3715,6.5444,5.3456,31.6938,0.2856,-0.0007,0.3778,169.3354
19:52:51:132,-1.742,4.4267,5.4748,31.7896,-0.1933,-0.4955,0.5342,169.0033
19:52:51:154,-0.3541,3.6371,4.8239,32.2792,-0.5415,-0.7936,0.682,168.7665
19:52:51:173,-0.055,4.6158,4.6923,32.1529,-0.7015,-0.5065,0.5305,168.4943
19:52:51:194,0.0646,3.3739,6.6042,33.0656,-1.2525,-0.5138,0.1115,168.6763
19:52:51:213,1.5553,2.5531,7.121,32.8743,-1.9526,-1.5193,-0.1683,169.744
19:52:51:237,0.0885,3.4193,8.3773,32.4363,-2.2262,-1.9115,-0.3332,171.0059
19:52:51:254,-0.9404,3.74,12.2991,34.5179,-2.1261,-1.4717,-0.5189,172.1942
19:52:51:273,-1.5027,4.0415,11.5143,34.0833,-1.4443,-1.1736,-0.4786,173.0743
19:52:51:293,-1.9143,4.4411,10.7486,33.5323,-0.5916,-0.8803,-0.3711,173.6628
19:52:51:312,-2.1535,4.9316,9.8082,35.4943,0.3357,-0.0764,-0.2538,173.8041
19:52:51:333,-2.077,5.2068,8.7242,34.0062,1.0247,0.7201,-0.073,173.4191
19:52:51:354,-1.4572,4.587,8.1571,33.3594,1.2141,1.2027,0.2007,172.5583
19:52:51:376,1.7492,2.1248,9.8417,34.0062,0.8513,1.1575,0.3522,171.7589
19:52:51:393,-1.5434,2.5914,9.4277,33.6923,0.0901,0.4122,-0.0437,171.5276
19:52:51:415,-3.3284,4.5129,11.9952,34.8257,-0.6856,-0.14,-0.4126,171.8806
19:52:51:438,-3.74,6.317,12.0622,34.7166,-0.8286,-0.6751,0.1604,171.2886
19:52:51:453,-2.7852,4.4985,13.1438,35.3668,-0.3069,-0.9035,0.7468,170.9412
19:52:51:472,-3.1107,2.1751,10.7486,37.0067,0.6851,-1.0013,0.5721,170.7488
19:52:51:491,-0.8447,2.1559,8.3797,36.2232,0.6411,-0.4173,0.7419,170.0709
19:52:51:512,-1.0528,2.6871,7.7886,33.2095,0.2746,0.3279,0.5501,169.2363
19:52:51:535,-2.2493,2.6584,7.5996,35.6211,-0.0601,0.9412,0.3143,168.3677
19:52:51:557,-2.6417,3.2949,8.0686,37.2704,-0.1774,0.8447,0.2373,167.5507
19:52:51:579,-1.8568,2.3306,6.3123,36.6167,-0.1554,0.2705,0.1567,167.1334
19:52:51:591,-2.6967,2.5555,6.9416,37.2704,-0.2678,0.1288,-0.0913,166.9874
19:52:51:614,-2.0818,2.6608,7.7695,36.3794,-0.4828,0.2302,-0.1561,166.9209
19:52:51:636,-0.8207,2.5627,8.6309,37.065,-0.6514,0.0567,0.098,166.7185
19:52:51:655,-0.414,2.5005,9.0305,37.2297,-0.7895,-0.0862,0.252,166.4235
19:52:51:672,-1.0911,2.7757,9.4564,37.2236,-0.8225,0.141,0.0321,166.23
19:52:51:691,-1.8784,2.9001,9.6168,38.0249,-0.6918,0.3487,-0.2159,166.2101
19:52:51:712,-1.8233,2.9193,8.9874,39.7156,-0.3277,0.2619,-0.1915,166.2108
19:52:51:735,-1.4477,3.2973,8.2026,38.0249,0.1121,-0.1241,-0.0486,166.1769
19:52:51:752,-1.2323,3.5629,7.7671,39.0944,0.3455,-0.4405,0.0113,166.2186
19:52:51:771,-1.1605,3.5797,7.5924,38.8761,0.332,-0.4674,-0.1121,166.3669
19:52:51:791,-0.938,3.3356,7.7982,39.2589,0.1866,-0.3855,-0.3125,166.7238
19:52:51:814,-0.95,3.3093,7.8867,39.9194,0.0523,-0.3379,-0.4334,167.1941
19:52:51:831,-1.4118,3.2925,7.8054,40.4849,-0.0589,-0.4027,-0.4908,167.7042
19:52:51:955,-2.881,3.082,9.9087,40.0939,-0.3314,-0.3929,-0.5666,168.2837
19:52:51:969,-3.1585,2.6297,10.7509,39.9599,-0.511,-0.3245,-0.3955,168.6746
19:52:51:969,-2.5866,2.4191,11.2798,38.7319,-0.2996,-0.0655,0.1188,168.4321
19:52:51:970,-1.809,2.5651,10.6074,39.505,-0.0308,0.2876,0.5305,167.6465
19:52:51:970,0.0144,2.7087,11.1912,40.0826,-0.1481,-0.1131,0.445,166.4371
19:52:51:971,-0.39,2.1224,11.8588,37.8349,-0.2422,-0.3709,0.1103,166.3965
19:52:51:971,-0.9188,2.3139,11.2869,40.7886,-0.1322,-0.3135,-0.0498,166.5112
19:52:51:994,-0.6987,2.467,10.4877,40.7657,0.0022,-0.1656,-0.0486,166.588
19:52:52:014,-0.0287,2.1751,9.7819,40.9456,-0.0418,-0.0801,-0.0657,166.6577
19:52:52:032,-0.0646,1.6032,10.4542,42.7682,-0.3142,-0.052,-0.2294,166.8974
19:52:52:052,-0.9117,1.3543,11.8325,39.505,-0.6612,-0.0862,-0.4212,167.3268
19:52:52:072,-1.2849,1.3185,12.3733,42.9584,-0.7223,0.0091,-0.4297,167.7332
19:52:52:092,-0.8614,1.3017,11.5502,40.2548,-0.4205,0.1642,-0.2575,167.9709
19:52:52:113,-0.3972,1.8066,9.8106,42.5702,-0.0003,0.229,-0.1316,168.028
19:52:52:133,-0.3972,2.2445,8.4491,42.3877,0.2233,0.1068,-0.1781,168.1168
19:52:52:152,-0.4714,2.1368,7.882,41.6043,0.1708,-0.1681,-0.3125,168.4285
19:52:52:172,-0.1125,1.785,7.547,42.6871,0.0168,-0.3025,-0.4248,168.935
19:52:52:191,-0.3685,1.5912,7.523,41.527,-0.1554,-0.1876,-0.5201,169.4954
19:52:52:212,-1.2825,1.407,8.0279,42.2492,-0.3399,0.0872,-0.4835,169.9286
19:52:52:233,-1.6056,1.6391,9.4421,43.9233,-0.456,0.2326,-0.2343,170.0381
19:52:52:254,-1.474,1.8592,10.4279,45.2966,-0.3142,-0.0618,-0.0107,169.9899
19:52:52:271,-0.9476,2.1775,9.4804,41.4282,0.2013,-0.4039,0.0638,169.9423
19:52:52:292,-0.4259,2.5508,7.7312,43.7732,0.7413,-0.3623,0.0333,169.9312
19:52:52:312,-0.2847,2.8211,6.5683,44.6901,0.9075,-0.0887,-0.0315,169.9272
19:52:52:333,-0.1675,2.948,6.2788,45.1808,0.7547,0.1044,-0.1035,169.955
19:52:52:353,-0.0742,2.9527,6.8339,42.8448,0.4408,0.0457,-0.1707,170.0576
19:52:52:374,-0.2895,3.0293,8.1428,43.713,0.1146,-0.1925,-0.2599,170.348
19:52:52:397,-0.1125,2.6919,10.4471,45.6667,-0.0308,-0.5199,-0.354,171.363
19:52:52:418,-0.5097,2.9647,10.6552,44.781,0.1903,-0.2829,-0.3173,171.7279
19:52:52:431,-0.95,3.1729,10.4447,43.5622,0.3406,-0.0948,-0.2514,171.9426
19:52:52:452,-1.4333,3.2231,10.3561,44.3455,0.4102,-0.0447,-0.1939,172.0718
19:52:52:471,-1.7109,3.204,10.1719,44.4936,0.4249,-0.1388,-0.1133,172.1323
19:52:52:494,-1.5984,3.2518,10.2939,45.5726,0.3943,-0.2866,0.0528,172.0901
19:52:52:512,-1.3017,3.2662,10.3226,44.579,0.3223,-0.4356,0.2397,171.8911
19:52:52:532,-1.2299,3.405,9.7843,45.0884,0.3284,-0.4674,0.3241,171.6216
19:52:52:552,-2.3115,3.5749,9.0664,45.0631,0.288,-0.245,0.2275,171.3653
19:52:52:571,-2.8929,3.4768,9.3942,46.3492,0.0425,0.1019,0.1994,170.9969
19:52:52:593,-1.8377,1.919,10.9902,45.9105,-0.3289,0.1312,0.274,170.5845
19:52:52:613,-1.7109,1.4022,12.4235,45.8599,-0.5549,-0.2035,0.2556,170.3273
19:52:52:632,-2.0315,2.0028,11.6866,46.5397,-0.4376,-0.228,0.2507,170.0567
19:52:52:651,-2.0794,2.2995,10.1862,46.0629,-0.0968,0.1581,0.3448,169.536
19:52:52:671,-1.8425,2.1129,8.7888,47.1911,0.1402,0.2668,0.3619,168.9561
19:52:52:694,-1.6295,2.1176,8.071,47.3483,0.1757,0.0359,0.2886,168.5576
19:52:52:711,-1.1629,2.1105,8.3557,46.4637,-0.0149,-0.3037,0.1921,168.3757
19:52:52:731,-0.6604,1.7372,8.5472,48.2181,-0.2544,-0.4259,0.1103,168.3237
19:52:52:751,-0.7657,1.7252,8.9204,47.9086,-0.3998,-0.2096,0.0431,168.2933
19:52:52:772,-0.8064,1.7994,8.7577,46.9244,-0.4181,0.1447,0.0565,168.1099
19:52:52:799,-1.4165,2.4311,8.985,47.2844,-0.3558,0.3927,0.0748,167.8306
19:52:52:815,-0.9236,2.5077,8.9683,49.1801,-0.1994,0.2216,0.1628,167.5099
19:52:52:832,-0.3135,2.4383,8.7505,48.9418,0.0437,-0.0813,0.1604,167.3103
19:52:52:854,-0.3852,2.8666,7.9753,48.7298,0.3882,-0.245,-0.0143,167.3561
19:52:52:872,-0.5695,2.9623,8.0806,48.7333,0.4053,-0.2072,0.0003,167.3406
19:52:52:893,-0.5264,2.8307,7.9968,48.9798,0.4298,-0.1901,0.0186,167.3149
19:52:52:912,-0.3039,2.8738,7.9346,52.0965,0.4566,-0.1156,0.0235,167.2709
19:52:52:931,-0.0909,3.0891,8.0949,48.9219,0.4029,-0.0508,0.0443,167.1953
19:52:52:951,0.0215,3.0939,8.6572,49.9619,0.3186,-0.0422,0.0724,167.0715
19:52:52:972,-0.2536,3.0915,9.3679,51.2643,0.1915,0.003,0.0626,166.9388
19:52:52:994,-0.2441,2.936,10.2891,49.1608,0.0559,-0.0129,0.0773,166.8212
19:52:53:013,0.055,2.8116,11.4305,49.973,-0.0039,-0.2194,0.1103,166.7446
19:52:53:034,0.4235,2.5962,12.7872,49.9365,0.0718,-0.7203,0.0944,166.8715
19:52:53:051,0.3565,2.4861,12.9739,50.436,0.3137,-1.38,-0.0192,167.3381
19:52:53:071,0.146,2.4646,11.61,50.7154,0.6558,-1.6097,-0.1829,168.0753
19:52:53:092,0.2249,2.2588,9.722,50.2457,0.883,-1.1516,-0.1573,168.6366
19:52:53:111,1.127,2.0004,8.8798,52.3325,0.7694,-0.4002,0.0846,168.6788
19:52:53:134,1.9358,2.7302,9.6503,51.6596,0.3626,0.2595,0.2202,168.3247
19:52:53:160,2.077,3.7639,9.9781,53.0895,-0.0968,0.4269,0.1701,167.743
19:52:53:180,2.4503,3.6538,9.5976,52.7752,-0.478,0.2241,0.1408,167.5983
19:52:53:194,2.3713,3.2758,8.997,52.4231,-0.6673,0.2412,0.065,167.4991
19:52:53:213,1.474,2.5699,8.7362,53.8703,-0.6832,0.5332,-0.2367,167.5115
19:52:53:232,1.3783,2.1583,8.9037,54.7001,-0.6331,0.4855,-0.3784,167.7094
19:52:53:251,1.3878,1.785,8.8534,53.8639,-0.6087,0.378,-0.5079,168.0765
19:52:53:272,0.6772,1.8066,8.8343,53.3526,-0.6783,0.4122,-0.5995,168.5469
19:52:53:293,0.1268,1.8281,8.4227,54.2325,-0.7919,0.455,-0.5592,168.9515
19:52:53:315,-0.122,1.9047,8.3414,53.9267,-0.8701,0.4318,-0.4603,169.3079
19:52:53:332,-0.1077,1.9573,8.0351,53.3397,-0.842,0.2791,-0.4004,169.6149
19:52:53:356,-0.0766,2.0937,7.748,54.2763,-0.6918,0.174,-0.3992,169.9399
19:52:53:375,-0.2273,2.3665,7.8126,52.4314,-0.4816,0.2265,-0.4456,170.3152
19:52:53:394,-0.0168,2.6512,7.925,53.8922,-0.2666,0.2705,-0.4749,170.7087
19:52:53:413,0.3206,2.7206,8.2768,54.8897,-0.0846,0.2522,-0.5177,171.1685
19:52:53:431,0.4092,2.68,8.7171,56.3843,0.0413,0.0689,-0.6216,171.7868
19:52:53:451,0.2441,2.4072,8.6237,54.3089,0.1549,-0.2438,-0.6582,172.5145
19:52:53:476,0.0263,2.1296,8.741,55.0273,0.2819,-0.2854,-0.6105,173.2047
19:52:53:493,-0.0838,1.986,9.5522,55.8779,0.3809,-0.1962,-0.5605,173.815
19:52:53:511,-0.4546,2.3282,9.4062,55.9351,0.3968,-0.2622,-0.4933,174.3452
19:52:53:532,-0.7609,2.7996,9.4182,54.3415,0.3577,-0.1949,-0.3479,174.7145
19:52:53:553,-0.8901,3.5916,9.801,55.9351,0.3174,-0.019,-0.1597,174.8353
19:52:53:574,-0.2943,3.4026,10.4184,57.2038,0.3589,-0.0471,-0.0022,174.8012
19:52:53:594,0.1842,3.4481,11.007,57.4324,0.3821,-0.2047,0.0418,174.793
19:52:53:614,0.4211,3.6969,11.3061,55.5918,0.4163,-0.548,0.0052,174.9347
19:52:53:632,0.28,3.6395,11.6243,56.015,0.4566,-0.6262,-0.0608,175.1617
19:52:53:653,-0.5815,3.5151,11.4784,58.1205,0.4701,-0.4393,-0.1084,175.3704
19:52:53:672,-1.6391,3.2399,11.0094,58.1633,0.4615,-0.0178,-0.0815,175.3845
19:52:53:692,-2.412,2.9743,10.55,57.5189,0.4041,0.4025,0.0394,175.1329
19:52:53:711,-2.0746,2.6178,10.2461,57.3367,0.3198,0.4599,0.2031,174.6956
19:52:53:731,-1.3065,2.2205,10.1982,58.832,0.2318,0.1581,0.346,174.2161
19:52:53:758,-1.0672,2.8499,8.6668,59.4572,0.1903,0.2009,0.5073,173.1415
19:52:53:773,-1.017,2.7398,8.1547,59.4442,0.1683,0.5283,0.5085,172.3773
19:52:53:792,-0.7992,2.6776,8.2911,59.4986,0.0315,0.5051,0.4083,171.7382
19:52:53:812,-0.012,2.1535,9.0712,58.8971,-0.1554,0.0946,0.2789,171.3861
19:52:53:831,0.3781,2.0267,9.8465,58.5319,-0.3961,-0.4283,0.1017,171.4236
19:52:53:851,0.5647,1.8999,10.2269,59.8609,-0.6551,-0.6348,-0.0632,171.7148
19:52:53:873,0.4187,1.5984,10.4782,59.6173,-0.8066,-0.3306,-0.1377,171.9528
19:52:53:891,-0.3326,1.8544,9.9685,60.6217,-0.7687,0.2009,-0.1316,171.9938
19:52:53:911,-0.8327,2.0076,9.2124,59.5038,-0.55,0.615,-0.0205,171.7875
19:52:53:931,-0.6221,2.2588,8.0686,60.0672,-0.2312,0.7665,0.1384,171.3873
19:52:53:952,-0.5192,2.6728,7.4082,60.1601,0.0669,0.7812,0.2324,170.8629
19:52:53:973,-0.5623,3.2758,7.4943,60.1479,0.2465,0.6456,0.2446,170.3677
19:52:54:104,-0.5504,3.7232,7.9753,60.7619,0.3235,0.3194,0.2385,169.9509
19:52:54:105,-0.4427,3.8453,8.1045,61.154,0.3589,-0.0777,0.1958,169.7087
19:52:54:105,-0.5838,3.5964,8.2744,61.6011,0.3711,-0.3147,0.0822,169.6594
19:52:54:106,-0.7489,3.2686,8.5639,60.4385,0.3479,-0.3293,-0.0547,169.7661
19:52:54:107,-1.2275,2.9862,9.3559,60.6096,0.2282,-0.239,-0.1585,169.9703
19:52:54:107,-1.7659,2.9958,10.2102,63.047,0.0596,-0.2011,-0.1426,170.1621
19:52:54:119,-1.4883,2.7517,10.8323,59.8164,-0.032,-0.2206,-0.0009,170.1993
19:52:54:131,-0.8638,2.3809,11.4879,59.6631,-0.0198,-0.2194,0.1017,170.1435
19:52:54:151,-0.3589,2.3402,11.8804,60.035,0.0376,-0.1913,0.1115,170.0794
19:52:54:174,0.079,2.2253,12.122,62.1384,0.0901,-0.1094,0.0809,170.032
19:52:54:193,-0.0909,2.2804,12.1675,61.599,0.1292,-0.0031,0.0369,169.9741
19:52:54:214,0.0168,2.4885,10.9735,59.9062,0.2734,0.4477,0.0699,169.6751
19:52:54:237,0.5192,2.333,10.5308,61.4736,0.3051,0.5784,0.0932,169.3895
19:52:54:254,1.0122,1.8114,10.9878,60.4428,0.2318,0.4073,0.0589,169.1933
19:52:54:275,1.0122,1.8808,11.1147,60.9115,0.0865,-0.0557,0.0101,169.2286
19:52:54:294,1.1916,1.9932,10.5164,59.3711,-0.0491,-0.3709,0.0321,169.3486
19:52:54:312,1.6295,1.7874,10.0834,60.2983,-0.0894,-0.2365,0.1176,169.3271
19:52:54:331,1.718,1.9741,9.5498,60.7371,-0.0345,-0.0361,0.1151,169.2271
19:52:54:356,1.6917,2.1918,9.1813,59.9032,0.0694,0.0421,-0.007,169.2291
19:52:54:375,1.4548,1.9741,9.0305,60.5033,0.1537,0.0139,-0.2196,169.4755
19:52:54:390,0.8638,1.9047,8.8295,60.4686,0.1573,-0.074,-0.4224,169.9408
19:52:54:411,0.1364,2.1559,8.2169,59.4675,0.1243,-0.1681,-0.5214,170.5295
19:52:54:431,-0.3111,2.2636,7.5541,61.4601,0.1194,-0.1449,-0.4981,171.0835
19:52:54:453,-0.3996,2.3569,7.0205,59.2229,0.1561,-0.0056,-0.4114,171.4805
19:52:54:473,-0.4451,2.7972,6.6544,61.94,0.1817,0.1227,-0.3381,171.759
19:52:54:491,-0.4546,3.2518,6.81,59.5425,0.1744,0.1679,-0.299,171.9717
19:52:54:512,-0.4116,3.5701,7.0086,58.3344,0.1427,0.0701,-0.2856,172.1934
19:52:54:534,-0.5168,3.8764,7.7264,59.6434,0.0828,-0.1363,-0.299,172.5254
19:52:54:554,-0.5121,3.9769,7.9992,59.044,0.0229,-0.3685,-0.2953,172.944
19:52:54:576,-0.1268,3.8692,8.3318,60.0934,0.0046,-0.4503,-0.244,173.3326
19:52:54:591,0.079,3.7783,8.9516,60.0934,0.0425,-0.3819,-0.2049,173.6668
19:52:54:612,0.1316,3.6634,9.1813,60.0934,0.1329,-0.2915,-0.2037,173.9653
19:52:54:636,-0.0909,3.8812,9.3392,60.0934,0.2282,-0.1742,-0.2159,174.2263
19:52:54:655,-0.3493,4.1204,9.6359,60.0934,0.2502,-0.0288,-0.2086,174.4186
19:52:54:672,-0.4642,4.0439,10.3394,58.6859,0.0706,-0.0813,-0.073,174.5294
19:52:54:690,-0.5145,3.874,10.6887,58.6859,-0.0076,-0.1436,-0.0156,174.6342
19:52:54:712,-0.9643,3.8979,10.9639,58.6859,-0.0235,-0.0936,0.0125,174.655
19:52:54:730,-1.9238,4.6684,10.4614,58.6859,0.0083,0.097,0.076,174.481
19:52:54:753,-2.053,5.0273,10.0068,58.6859,0.0681,0.4904,0.2068,174.0175
19:52:54:770,-0.6891,3.8764,10.0331,58.9298,0.0804,0.6077,0.3302,173.4092
19:52:54:791,-0.5049,2.5699,10.7701,58.278,-0.032,0.1153,0.1884,173.1362
19:52:54:811,-1.8855,2.0195,11.4808,57.6087,-0.197,-0.5871,-0.0828,173.3957
19:52:54:831,-2.8977,1.9717,11.1888,58.3808,-0.2397,-0.8584,-0.0583,173.7098
19:52:54:855,-1.9095,1.7707,9.5904,59.0672,-0.0394,-0.4686,0.3509,173.4628
19:52:54:876,-0.5719,1.9119,8.4993,57.5002,0.2551,0.2351,0.7077,172.6021
19:52:54:890,0,2.857,8.2624,57.5002,0.3846,0.5625,0.6906,171.6261
19:52:54:910,0.2058,3.3547,8.1332,57.6055,0.3088,0.3316,0.4523,170.994
19:52:54:930,0.3829,2.7494,8.1332,58.4139,0.1024,-0.0911,0.1738,170.8185
19:52:54:951,-0.0526,1.9549,8.1667,58.5772,-0.1591,-0.3416,-0.0754,170.9899
19:52:54:971,-0.8734,1.5099,8.1667,56.4861,-0.3937,-0.3196,-0.2013,171.2603
19:52:54:992,-1.2156,1.4453,8.1882,57.1464,-0.5464,-0.0997,-0.1011,171.337
19:52:55:011,-0.792,1.7563,8.0566,57.807,-0.605,0.163,0.153,171.0599
19:52:55:038,-0.1388,2.321,7.6881,55.9696,-0.5635,0.3365,0.3656,170.5128
19:52:55:054,-0.0311,2.7063,7.3699,57.3911,-0.4437,0.389,0.4291,169.8619
19:52:55:073,-0.0191,3.0867,7.4991,56.9061,-0.2837,0.3365,0.4096,169.2742
19:52:55:095,0.2489,3.3787,7.8724,56.9586,-0.0882,0.2045,0.3314,168.8159
19:52:55:110,0.1579,3.5677,7.815,56.1308,0.1024,-0.0178,0.1604,168.6121
19:52:55:135,-0.5121,3.685,7.6618,55.2368,0.1537,-0.1424,-0.0437,168.6375
19:52:55:153,-0.548,3.8022,8.0327,55.2368,0.0718,-0.0422,-0.029,168.7231
19:52:55:170,-0.682,3.9936,8.4299,56.3665,-0.0296,-0.0325,-0.0571,168.7029
19:52:55:191,-0.8207,3.8189,8.9085,56.674,-0.1591,-0.0923,-0.0852,168.7705
19:52:55:209,-0.548,3.4505,9.5713,58.3631,-0.2654,-0.1901,-0.062,168.8385
19:52:55:231,-0.5192,3.3667,10.7773,56.9289,-0.3167,-0.2829,-0.0705,168.9384
19:52:55:254,-0.5719,3.1442,11.4568,55.7351,-0.3045,-0.4332,-0.0925,169.1119
19:52:55:271,-0.3135,2.8331,11.6913,57.0685,-0.1835,-0.4918,-0.0376,169.2604
19:52:55:291,-0.0048,2.6919,11.4808,56.2806,0.0535,-0.311,0.0418,169.2534
19:52:55:325,-0.012,2.9073,10.806,54.8243,0.3051,-0.0789,0.0858,169.1292
19:52:55:331,0.3924,3.1824,10.124,56.1549,0.4163,0.1092,0.1212,168.9109
19:52:55:350,1.4907,2.7254,10.2293,54.383,0.3051,0.2314,0.1017,168.6971
19:52:55:369,1.5864,1.5362,11.2104,55.4718,-0.0479,0.0506,-0.0938,168.7426
19:52:55:390,0.8279,1.1055,12.1866,55.4072,-0.489,-0.4588,-0.3063,169.1779
19:52:55:410,0.8088,0.9356,12.1101,56.219,-0.7272,-0.6775,-0.1939,169.5448
19:52:55:435,1.6582,1.1222,11.2032,54.6997,-0.6099,-0.2817,0.1738,169.415
19:52:55:454,2.388,1.651,10.0546,55.8373,-0.2703,0.3401,0.4083,168.8455
19:52:55:471,2.7111,2.2373,9.4756,57.8719,0.0779,0.7433,0.357,168.2281
19:52:55:490,2.5531,2.4574,9.1071,55.9243,0.2844,0.6786,0.0748,167.9173
19:52:55:510,1.9573,2.1535,8.4682,55.9867,0.3051,0.2571,-0.266,168.0764
19:52:55:537,1.1557,1.8784,7.8772,56.3367,0.194,-0.1168,-0.47,168.568
19:52:55:563,0.469,1.943,7.4465,56.9252,0.0608,-0.1962,-0.4884,169.0793
19:52:55:573,0.3278,2.2516,7.0349,55.8373,-0.0149,-0.0325,-0.3442,169.3857
19:52:55:591,0.7394,2.9862,6.719,56.3786,-0.0223,0.3548,-0.0913,169.4202
19:52:55:614,0.8136,3.3308,6.8626,55.4334,-0.0076,0.3621,-0.15,169.3982
19:52:55:631,0.5288,3.5797,7.5853,57.4818,-0.0296,0.2339,-0.2868,169.5604
19:52:55:651,0.0502,3.5773,8.6166,57.2751,-0.0772,0.0042,-0.4554,169.9625
19:52:55:672,-0.1627,3.3763,9.2315,57.998,-0.1139,-0.2719,-0.5336,170.5335
19:52:55:691,-0.0024,3.1944,9.131,55.8622,-0.1334,-0.4124,-0.5067,171.1226
19:52:55:709,-0.0048,3.4098,9.4947,57.0752,-0.1823,-0.2365,-0.4456,171.6046
19:52:55:734,-0.7825,4.008,10.66,55.6143,-0.291,-0.0105,-0.376,171.9128
19:52:55:752,-1.0935,4.3358,11.5669,58.4956,-0.3497,-0.0374,-0.2343,172.087
19:52:55:772,-0.067,3.8022,11.8899,56.0867,-0.2165,-0.2487,-0.0473,172.136
19:52:55:790,0.9643,3.4768,12.2106,56.3039,0.0975,-0.3745,0.0638,172.1289
19:52:55:811,1.462,3.6012,12.079,57.2074,0.475,-0.3098,0.0406,172.1144
19:52:55:833,0.8925,3.807,11.5502,57.6227,0.7829,-0.0398,-0.0681,172.1268
19:52:55:852,-0.3829,3.7759,10.5595,56.1315,0.9466,0.3291,-0.1805,172.1324
19:52:55:877,-1.8927,3.874,9.655,58.293,0.9172,0.6224,-0.2489,172.0771
19:52:55:893,-2.668,3.9051,9.5474,57.6143,0.7181,0.7152,-0.2049,171.9107
19:52:55:920,-2.3521,3.0987,10.1815,56.9678,0.4176,0.466,-0.0828,171.714
19:52:55:939,-1.7659,2.2349,10.2915,58.5717,0.0999,-0.162,0.015,171.6615
19:52:55:955,-1.5577,2.1105,9.88,59.4705,-0.1334,-0.5566,0.0883,171.6919
19:52:55:970,-1.3591,2.0028,9.7723,58.5428,-0.1835,-0.2695,0.1713,171.5304
19:52:55:992,-1.3376,1.9621,9.6885,58.82,-0.0931,0.1911,0.1848,171.175
19:52:56:013,-1.2873,2.077,9.2219,59.1007,0.0132,0.3792,0.1457,170.8058
19:52:56:033,-1.1174,2.2062,8.7553,57.9937,0.0486,0.3731,0.1078,170.476
19:52:56:053,-0.2895,1.9334,7.8437,58.7384,-0.1053,0.2583,0.0907,170.0221
19:52:56:071,-0.2393,1.8233,7.8269,59.8362,-0.2312,0.2546,0.0431,169.8104
19:52:56:090,-0.5934,1.8521,8.0973,59.7227,-0.3448,0.2876,-0.0009,169.6379
19:52:56:113,-0.8231,1.9382,8.5448,57.8449,-0.3912,0.2949,0.0321,169.4086
19:52:56:229,-0.67,2.2756,8.796,59.3759,-0.3533,0.1667,0.1273,169.1426
19:52:56:230,-0.0263,2.6536,8.6189,61.5341,-0.2006,0.0421,0.241,168.7933
19:52:56:230,0.1771,2.9336,8.1523,62.4387,0.029,0.119,0.2532,168.3856
19:52:56:231,-0.414,3.2997,7.9202,62.6236,0.2282,0.3035,0.1396,168.0304
19:52:56:231,-1.1055,3.4026,7.9657,60.797,0.3565,0.4012,0.0309,167.757
19:52:56:232,-1.2802,3.2447,8.339,61.6296,0.398,0.3242,-0.0143,167.5861
19:52:56:250,-1.4716,3.3093,8.9228,62.0249,0.3467,0.0946,-0.0266,167.4897
19:52:56:272,-1.3831,3.1944,9.2626,62.6039,0.2771,-0.1375,0.0137,167.4417
19:52:56:289,-1.1868,3.2471,9.6933,63.6096,0.2428,-0.1864,0.0724,167.348
19:52:56:310,-0.8016,3.1777,9.9565,62.705,0.2465,-0.1791,0.1115,167.2198
19:52:56:334,-0.2297,3.0748,10.4303,62.2724,0.2661,-0.1949,0.1127,167.121
19:52:56:352,-0.189,3.338,10.9017,63.6461,0.2453,-0.2487,0.0626,167.1042
19:52:56:381,-0.3996,3.7424,10.5547,64.0041,0.2013,-0.2414,0.0284,166.9884
19:52:56:398,0.2201,3.3141,9.7101,62.9844,0.1659,0.0653,0.0663,166.6478
19:52:56:414,0.0742,2.5699,10.4495,64.2479,0.0767,0.4623,0.0956,166.4207
19:52:56:433,-0.5838,2.3115,11.9928,62.7598,-0.1371,0.4855,-0.0192,166.5393
19:52:56:451,-0.3709,2.0698,12.8327,64.7144,-0.5598,-0.6091,-0.1402,166.8568
19:52:56:469,0.7442,1.6654,12.3805,65.2752,-0.4951,-0.983,0.1017,167.0545
19:52:56:489,1.9262,1.5864,10.8515,64.8492,-0.1884,-0.7789,0.3216,166.9668
19:52:56:509,2.4407,1.8521,9.4899,64.4715,0.1781,-0.1168,0.3583,166.6801
19:52:56:533,2.3378,2.345,8.6644,65.6481,0.4151,0.4978,0.241,166.2029
19:52:56:551,1.9741,2.735,7.8724,65.4332,0.464,0.6065,0.0357,165.9029
19:52:56:568,1.4381,2.735,7.2144,65.1473,0.3491,0.3695,-0.2001,165.9282
19:52:56:589,0.8279,2.6417,7.0277,65.0208,0.1182,0.1117,-0.3833,166.2383
19:52:56:611,0.0957,2.6225,7.4106,66.4632,-0.1481,-0.0484,-0.4566,166.6727
19:52:56:629,-0.2919,2.6967,7.8365,65.0835,-0.3521,-0.151,-0.4102,167.0793
19:52:56:649,0.0766,2.7996,7.8269,65.3971,-0.4095,-0.1656,-0.2746,167.3672
19:52:56:669,0.3948,3.0102,7.815,66.4991,-0.3167,-0.0056,-0.1805,167.5084
19:52:56:690,0.2058,3.2542,7.8676,65.9708,-0.1285,0.1667,-0.2098,167.6092
19:52:56:713,0.0574,3.3284,7.9753,67.2364,0.0779,0.2131,-0.2831,167.769
19:52:56:730,0.0885,3.4433,7.9992,68.342,0.2196,0.119,-0.3332,168.0266
19:52:56:748,0.1651,3.5653,8.1284,68.0036,0.2563,-0.0227,-0.3552,168.3492
19:52:56:768,0.1603,3.6084,8.6309,67.7443,0.1842,-0.1192,-0.3699,168.731
19:52:56:789,-0.2393,3.6897,9.1525,68.0212,0.0584,-0.1522,-0.3589,169.102
19:52:56:810,-0.7394,3.8381,9.7436,67.1997,-0.0308,-0.1449,-0.277,169.3751
19:52:56:829,-0.993,4.2209,10.0355,67.9968,-0.0088,-0.0899,-0.128,169.4752
19:52:56:849,-0.7155,4.5703,10.3322,68.0036,0.1133,0.0787,0.0431,169.3387
19:52:56:867,-0.0838,4.5894,10.7175,68.0212,0.2563,0.1569,0.1494,169.0698
19:52:56:887,0.1866,4.5488,10.7533,66.079,0.3357,0.0225,0.1115,168.8927
19:52:56:908,-0.4259,4.2712,11.0213,68.8134,0.3186,-0.0447,-0.0315,168.8851
19:52:56:928,-1.7587,4.0008,11.0477,69.6325,0.2477,0.0408,-0.1414,168.9363
19:52:56:948,-2.7135,4.1204,10.7175,68.6661,0.1927,0.2021,-0.0986,168.8754
19:52:56:968,-0.8829,3.4433,10.2915,68.2259,0.1598,0.4305,0.2459,168.0945
19:52:56:989,-0.8519,2.5196,10.4255,68.7414,0.0779,0.1129,0.186,167.8107
19:52:57:008,-1.9693,2.534,9.9852,68.3402,0.0181,-0.2328,0.0724,167.7533
19:52:57:029,-2.388,2.68,8.9061,68.6918,0.0926,-0.1326,0.1542,167.5802
19:52:57:049,-1.9741,2.723,8.1236,67.577,0.2587,0.2986,0.3375,167.0552
19:52:57:069,-1.3807,3.192,7.6116,69.9335,0.3381,0.4904,0.4059,166.3759
19:52:57:095,-0.5958,3.4911,7.5182,70.4403,0.2612,0.3426,0.3375,165.8282
19:52:57:115,-0.2273,3.3978,7.8867,70.4624,0.029,0.0298,0.1469,165.6156
19:52:57:130,-0.6197,2.9719,8.0255,69.7995,-0.2837,-0.2658,-0.0583,165.7491
19:52:57:149,-0.8877,2.412,8.2624,68.9842,-0.5232,-0.2903,-0.139,165.9592
19:52:57:168,-0.9811,2.1966,8.3318,70.0986,-0.6038,-0.1241,-0.0986,166.0609
19:52:57:189,-0.7035,2.4,8.4419,69.7646,-0.5403,0.0762,-0.0009,165.9841
19:52:57:209,-0.5025,2.7852,8.205,70.8051,-0.3937,0.174,0.076,165.7979
19:52:57:229,-0.3374,3.1083,8.0734,70.6559,-0.2018,0.1776,0.0907,165.585
19:52:57:250,-0.3063,3.3165,7.8389,70.4948,-0.0198,0.1324,0.0382,165.4525
19:52:57:270,-0.5121,3.5509,7.5446,69.4833,0.1194,0.1019,-0.04,165.4125
19:52:57:292,-0.8782,3.6371,7.3699,69.369,0.1805,0.0995,-0.1023,165.4316
19:52:57:311,-1.0217,3.6802,7.2598,69.9059,0.1488,0.0445,-0.1231,165.4777
19:52:57:330,-0.9834,3.8716,7.4776,70.3384,0.0315,-0.03,-0.1084,165.5502
19:52:57:349,-0.9691,4.0558,8.1356,70.2686,-0.1346,-0.0764,-0.0913,165.6255
19:52:57:369,-0.9715,3.9817,8.4132,69.8331,-0.2849,-0.1436,-0.095,165.7238
19:52:57:390,-0.9643,3.7137,8.6859,70.1828,-0.3949,-0.2377,-0.1243,165.8873
19:52:57:408,-0.8853,3.4026,10.3705,70.6414,-0.412,-0.228,-0.1695,166.0922
19:52:57:429,-0.5527,3.6873,11.2319,70.3927,-0.3277,-0.6959,-0.1512,166.7879
19:52:57:458,0.3781,2.9862,11.8923,72.2759,-0.4059,-0.8596,-0.0547,167.1273
19:52:57:470,0.3374,2.9408,12.4235,69.2292,-0.3094,-0.68,-0.0766,167.4248
19:52:57:489,0.5551,3.1585,12.3087,69.7981,-0.0406,-0.399,-0.1096,167.6493
19:52:57:508,1.3376,3.1394,11.6243,70.856,0.2502,-0.2353,-0.1121,167.8153
19:52:57:527,2.3019,2.7996,11.2654,69.2545,0.4017,-0.2292,-0.1573,168.0497
19:52:57:548,2.7159,2.1583,11.4736,69.4813,0.3736,-0.399,-0.3137,168.511
19:52:57:567,2.2421,1.9645,10.9352,69.2196,0.2331,-0.6104,-0.5055,169.2567
19:52:57:588,2.0818,1.6941,10.0355,69.6391,0.1072,-0.4259,-0.5653,169.98
19:52:57:615,2.065,1.6152,9.5976,68.5151,-0.0076,-0.0276,-0.5336,170.5343
19:52:57:631,1.9501,1.8927,9.2554,70.3733,-0.1224,0.1496,-0.5348,171.0224
19:52:57:648,2.345,1.7228,8.9396,70.0457,-0.2006,0.0421,-0.591,171.6078
19:52:57:668,2.4024,1.529,8.6333,70.2015,-0.2629,-0.1754,-0.7352,172.4356
19:52:57:696,1.8568,1.6223,8.4251,71.0385,-0.3204,-0.2512,-0.8842,173.4176
19:52:57:708,1.3448,1.7827,8.0877,69.0539,-0.3314,-0.1363,-0.9428,174.4266
19:52:57:728,0.926,2.0195,7.87,69.2615,-0.2935,0.0079,-0.9331,175.3563
19:52:57:747,0.5623,2.3545,7.4058,68.1223,-0.2263,0.0518,-0.9111,176.2616
19:52:57:768,0.4953,2.534,7.2766,69.5981,-0.1346,0.0714,-0.8818,177.1302
19:52:57:788,0.2345,2.8451,7.2981,69.6473,-0.0565,0.0714,-0.894,178.0077
19:52:57:807,0.1029,2.8929,7.1163,68.574,0.0022,-0.019,-0.9355,178.9619
19:52:57:827,0.1699,2.6991,7.3364,67.6261,0.0413,-0.0887,-0.971,179.9825
19:52:57:848,-0.1196,2.7517,7.9753,67.9578,0.0132,-0.1498,-1.0345,181.0793
19:52:57:868,-0.3613,2.7781,8.6453,67.7938,-0.0711,-0.2414,-1.0638,182.2222
19:52:57:897,-0.146,2.3282,9.387,67.1551,-0.1774,-0.2499,-0.8732,184.3253
19:52:57:912,-0.3183,2.3928,9.9661,66.1895,-0.1566,-0.1534,-0.7779,185.1421
19:52:57:928,-0.2297,2.5244,10.081,67.132,-0.076,-0.1156,-0.6704,185.8494
19:52:57:947,-0.2153,2.7326,10.4231,66.5111,0.0437,0.0042,-0.5715,186.3985
19:52:57:969,-0.2297,2.9839,11.1051,64.678,0.1414,0.0396,-0.5226,186.9072
19:52:58:007,-0.1125,3.3667,11.7607,65.6107,0.2038,-0.162,-0.4933,187.4395
19:52:58:009,0.0263,3.7448,11.7607,65.5855,0.2392,-0.3941,-0.4676,188.0218
19:52:58:032,-0.2967,4.2186,11.0596,64.0847,0.2551,-0.278,-0.4627,188.5412
19:52:58:048,-0.7466,3.9721,10.2461,62.6118,0.2465,0.2106,-0.4823,188.9332
19:52:58:069,-0.804,3.0508,10.3155,64.1833,0.1585,0.5527,-0.5617,189.3072
19:52:58:107,-0.8853,1.7228,11.263,63.729,-0.0565,0.2094,-0.7669,190.0074
19:52:58:110,-1.8473,0.9045,11.9115,64.1074,-0.3448,-0.6128,-1.0027,191.2009
19:52:58:132,-2.8642,0.8495,11.519,62.0252,-0.5048,-1.0269,-0.9758,192.4595
19:52:58:148,-3.1968,0.8279,10.3777,62.5509,-0.3778,-0.4979,-0.5751,193.1249
19:52:58:183,-2.7781,1.0528,9.6455,62.7713,-0.0491,0.3805,-0.0596,192.9948
19:52:58:188,-2.3234,1.7157,8.8726,62.6519,0.2514,0.8056,0.2129,192.4744
19:52:58:219,-1.5003,2.1631,8.3653,62.6519,0.42,0.7091,0.2434,191.9493
19:52:58:229,-0.3709,2.1009,8.2193,63.8041,0.4408,0.3059,0.0919,191.7175
19:52:58:249,-0.0072,2.0339,8.3414,62.5006,0.2905,-0.1436,-0.2098,191.9304
19:52:58:359,-0.7083,1.9358,8.4347,62.1449,0.0266,-0.3354,-0.4981,192.5004
19:52:58:360,-1.5769,1.6678,8.8319,61.3761,-0.2409,-0.2072,-0.602,193.1286
19:52:58:360,-2.266,1.5864,8.9468,61.3625,-0.4315,-0.0667,-0.5397,193.6336
19:52:58:361,-2.0076,1.7539,8.5663,62.393,-0.4792,0.0286,-0.3186,193.8934
19:52:58:362,-1.1294,2.6297,8.4778,61.032,-0.2067,0.3511,0.1078,193.6026
19:52:58:370,-1.0648,3.149,8.7841,60.1096,-0.0369,0.2974,0.1298,193.3446
19:52:58:389,-0.9404,3.3021,8.4826,58.8525,0.1219,0.0762,0.0626,193.21
19:52:58:409,-1.2658,3.3858,8.1356,60.8843,0.2612,0.0201,-0.051,193.2101
19:52:58:429,-1.6654,3.4193,7.9848,59.0071,0.3528,0.1459,-0.1597,193.2899
19:52:58:449,-2.0674,3.4361,8.3821,58.311,0.3797,0.2583,-0.2061,193.3705
19:52:58:470,-2.2875,3.4959,8.7864,57.7686,0.3369,0.1984,-0.1939,193.4513
19:52:58:491,-2.1176,3.4313,9.1238,58.0297,0.249,0.0079,-0.1353,193.5327
19:52:58:510,-1.6606,3.2016,9.6191,57.9918,0.1549,-0.162,-0.084,193.6312
19:52:58:528,-1.261,2.9288,10.2748,58.642,0.0706,-0.2866,-0.0938,193.7761
19:52:58:549,-1.0074,2.7733,11.1051,56.8736,0.0058,-0.3575,-0.1573,194.0058
19:52:58:573,-1.1031,2.7565,11.5765,56.8736,-0.0235,-0.4002,-0.2196,194.332
19:52:58:588,-1.34,2.8762,11.5358,56.6738,-0.0003,-0.3342,-0.2355,194.6492
19:52:58:608,-1.2945,3.0413,11.2271,56.705,0.0742,-0.118,-0.1805,194.8383
19:52:58:629,-0.6796,3.0293,10.9783,56.8738,0.1317,0.0946,-0.0828,194.8633
19:52:58:653,0.4977,2.5029,10.7605,55.2332,0.1048,0.2082,-0.0412,194.8212
19:52:58:669,1.151,1.5697,11.1649,55.1203,-0.0381,0.1606,-0.1768,194.9601
19:52:58:692,0.2776,1.273,11.4951,55.4701,-0.2507,-0.1046,-0.4713,195.4821
19:52:58:711,-0.3015,1.0959,10.7845,55.445,-0.3729,-0.3245,-0.6044,196.1909
19:52:58:728,-0.0191,0.6939,9.7268,55.8556,-0.2971,-0.2304,-0.4407,196.7038
19:52:58:752,0.4594,0.9356,8.9228,55.49,-0.087,0.0811,-0.2208,196.8935
19:52:58:769,0.8136,1.3639,8.5472,54.9322,0.161,0.301,-0.1512,196.9589
19:52:58:789,0.938,1.7492,8.284,54.8404,0.343,0.3023,-0.288,197.1754
19:52:58:808,0.0287,1.9119,7.2191,55.5946,0.3284,0.1007,-0.7437,197.69
19:52:58:827,-0.6939,1.9047,7.1593,54.1811,0.1659,0.1288,-0.8366,199.2867
19:52:58:849,-1.2108,2.0506,7.4489,54.5478,-0.0369,0.1056,-0.8549,200.1201
19:52:58:877,-1.584,2.345,7.7934,54.8805,-0.2312,-0.0105,-0.8231,200.941
19:52:58:892,-1.6726,2.5268,8.1667,54.0029,-0.3753,-0.0801,-0.7413,201.7082
19:52:58:913,-1.5482,2.6201,8.5328,55.0656,-0.4181,-0.0398,-0.6338,202.355
19:52:58:928,-1.5027,2.6728,8.5998,51.0998,-0.3607,0.0518,-0.547,202.8862
19:52:58:950,-1.462,2.723,8.7936,51.8182,-0.2312,0.1825,-0.4969,203.3484
19:52:58:968,-1.5434,2.814,9.0664,52.7401,-0.0772,0.2754,-0.4774,203.7546
19:52:58:990,-1.6822,2.8953,9.454,53.0436,0.0474,0.2473,-0.4774,204.175
19:52:59:008,-1.7683,2.9886,9.722,51.3393,0.1158,0.1178,-0.4749,204.6189
19:52:59:029,-2.0435,3.0844,10.1958,52.4299,0.1231,0.0152,-0.4395,205.0547
19:52:59:051,-2.3545,3.1322,10.4877,51.043,0.0938,-0.03,-0.3503,205.4014
19:52:59:070,-2.4431,3.1657,10.5978,50.6271,0.0901,-0.0202,-0.1976,205.5797
19:52:59:090,-2.2253,3.3284,10.7533,49.0435,0.1488,0.0298,-0.0095,205.5335
19:52:59:108,-1.8473,3.5103,10.995,50.5224,0.2502,0.0335,0.142,205.3444
19:52:59:128,-1.3854,3.6419,11.2152,52.4785,0.3443,-0.0459,0.2007,205.1243
19:52:59:152,-1.4046,3.7998,11.1745,50.1031,0.3992,-0.1058,0.1689,204.9515
19:52:59:169,-1.9669,3.9912,10.6911,52.4785,0.4078,-0.0752,0.0944,204.8458
19:52:59:189,-2.5723,3.8979,9.8728,50.2029,0.4017,0.0787,0.0211,204.7562
19:52:59:208,-2.7829,3.4122,9.5761,51.6853,0.3894,0.2314,-0.0437,204.6747
19:52:59:230,-2.4287,2.7805,9.9039,49.2844,0.3027,0.0995,-0.1255,204.72
19:52:59:253,-2.2229,1.9669,10.4686,50.3743,0.0999,-0.3452,-0.2269,205.0224
19:52:59:268,-3.3571,1.2467,10.0116,50.1902,-0.1493,-0.5883,-0.1866,205.4892
19:52:59:288,-3.0078,1.0911,9.2746,51.6752,-0.0039,-0.2231,0.0944,205.7261
19:52:59:309,-2.2875,1.2754,8.808,51.3179,0.2208,0.1007,0.3192,205.2813
19:52:59:335,-1.3998,1.6152,8.4251,50.9247,0.4053,0.1764,0.3509,204.8186
19:52:59:352,-0.7346,1.9262,8.138,50.7658,0.4884,0.0995,0.2117,204.5397
19:52:59:370,-0.6796,2.0722,7.7001,49.6458,0.4236,0.0188,-0.0034,204.5058
19:52:59:388,-1.0026,1.9023,7.3723,51.4383,0.2294,-0.0019,-0.1939,204.6729
19:52:59:410,-1.3041,1.7396,7.1857,52.0051,0.0058,0.0262,-0.2941,204.9327
19:52:59:432,-1.6822,1.8185,7.3005,51.3029,-0.1713,0.1056,-0.3039,205.1682
19:52:59:450,-1.931,2.1152,7.5733,50.5003,-0.2678,0.1557,-0.2514,205.3325
19:52:59:502,-1.7779,2.2827,7.8293,51.0776,-0.2898,0.1056,-0.1512,205.4192
19:52:59:503,-1.4477,2.5579,7.8844,51.6908,-0.2385,0.0396,-0.0522,205.4303
19:52:59:509,-1.2323,2.8522,7.8987,52.5026,-0.1395,0.0555,-0.0119,205.3912
19:52:59:531,-1.3137,3.0341,7.9944,49.9762,-0.0333,0.1166,-0.0437,205.3762
19:52:59:550,-1.663,3.192,8.2911,50.6432,0.0205,0.0958,-0.1255,205.4494
19:52:59:570,-2.0219,3.2207,8.6022,52.0921,0.0119,-0.0105,-0.1915,205.611
19:52:59:588,-2.1966,3.0915,9.1693,49.3859,-0.0125,-0.1021,-0.1878,205.7783
19:52:59:609,-2.2134,3.082,9.3679,49.9446,-0.0088,-0.1656,-0.1438,205.9418
19:52:59:628,-2.0578,3.0987,9.7388,50.4456,0.051,-0.1326,-0.0864,206.0238
19:52:59:647,-1.8664,3.1178,10.1839,50.9496,0.1084,-0.1241,-0.0718,206.1073
19:52:59:667,-1.7731,3.0939,10.9567,51.3758,0.0987,-0.2658,-0.1096,206.2746
19:52:59:687,-1.5314,3.1705,11.5454,51.0662,0.0352,-0.5175,-0.1573,206.5898
19:52:59:709,-0.3876,3.594,11.3085,52.9762,-0.0003,-0.4369,-0.0901,207.1931
19:52:59:737,0.1866,3.5509,10.9376,52.2502,0.0584,-0.096,-0.051,207.2828
19:52:59:755,0.7202,3.283,10.8251,52.6936,0.0767,0.0042,-0.1463,207.4551
19:52:59:770,0.8638,2.321,11.4185,52.6936,-0.0479,-0.2609,-0.4468,208.0335
19:52:59:787,0.122,1.651,12.0646,51.574,-0.3277,-0.702,-0.8451,209.143
19:52:59:807,-0.5312,1.1892,12.2752,53.9951,-0.5733,-0.9109,-1.0333,210.4733
19:52:59:833,-0.7178,0.7418,12.0144,51.1657,-0.605,-0.7252,-0.8964,211.5742
19:52:59:855,-0.481,0.9117,11.1721,52.5897,-0.412,-0.3929,-0.5715,212.2282
19:52:59:872,0.2895,1.1079,10.1121,52.1886,-0.087,-0.1094,-0.2807,212.5236
19:52:59:887,1.1103,1.1749,9.387,50.8411,0.2551,0.0469,-0.2355,212.7451
19:52:59:907,1.3854,1.1964,8.6142,51.5878,0.5128,0.0225,-0.4016,213.1543
19:52:59:929,0.7849,1.4548,7.9968,53.5636,0.5959,-0.0435,-0.6435,213.836
19:52:59:950,-0.1172,1.8185,7.3531,53.5297,0.4994,-0.0838,-0.8097,214.6683
19:52:59:969,-0.6748,2.1152,6.8698,52.5308,0.3284,-0.0618,-0.8243,215.5308
19:52:59:988,-0.8327,2.2804,6.8195,53.9134,0.1793,0.0103,-0.7486,216.2865
19:53:00:011,-0.6748,2.388,6.7597,52.5256,0.073,0.0421,-0.6777,216.9706
19:53:00:033,-0.6197,2.5077,7.0636,50.3833,0.0168,0.0396,-0.6496,218.3124
19:53:00:052,-1.0313,2.9958,8.0734,51.6308,-0.0467,-0.0435,-0.7425,219.0745
19:53:00:070,-1.1677,3.1609,8.3653,52.0062,-0.0565,-0.0887,-0.7523,219.8693
19:53:00:095,-1.2395,3.0891,8.607,52.58,-0.0345,-0.0312,-0.7205,220.6029
19:53:00:112,-1.34,3.1059,8.9874,53.4967,-0.0064,0.0445,-0.6851,221.2702
19:53:00:132,-1.4812,3.07,9.4373,52.1564,-0.0162,0.0127,-0.6753,221.949
19:53:00:154,-1.9286,3.1298,9.8441,52.58,-0.0638,-0.0703,-0.6704,222.6208
19:53:00:174,-2.3306,3.3308,10.3131,51.0001,-0.1151,-0.0899,-0.6069,223.2895
19:53:00:188,-2.1775,3.2327,10.6002,52.0782,-0.12,-0.0557,-0.4493,223.7119
19:53:00:210,-1.6869,2.9408,10.9232,52.2424,-0.0723,0.0225,-0.2648,223.8656
19:53:00:235,-1.6128,2.7996,11.1888,51.3618,-0.0064,0.0811,-0.1707,223.9179
19:53:00:257,-2.0004,2.6919,11.1075,52.5438,0.0742,0.075,-0.1988,224.0501
19:53:00:267,-2.7589,2.4503,10.5787,52.7125,0.1634,0.086,-0.2831,224.2418
19:53:00:288,-3.606,2.3737,9.9637,50.6422,0.2294,0.108,-0.3369,224.4512
19:53:00:308,-3.7567,2.187,9.7675,53.5717,0.2526,0.0494,-0.3039,224.6416
19:53:00:331,-2.8762,1.2084,10.002,52.1564,0.1817,-0.2377,-0.2562,224.842
19:53:00:351,-2.6871,1.1127,10.1169,51.7557,-0.0003,-0.724,-0.2746,225.2185
19:53:00:371,-3.0532,1.7994,10.1719,52.6414,-0.109,-0.862,-0.2061,225.5585
19:53:00:456,-2.7972,2.2516,9.4852,54.3935,-0.0027,-0.5212,0.0907,225.4954
19:53:00:457,-2.3689,2.3545,8.6046,54.6423,0.2502,-0.085,0.3851,224.9978
19:53:00:458,-1.8114,2.7135,8.1643,54.1969,0.4689,0.1007,0.4487,224.3983
19:53:00:460,-1.0911,2.6943,7.8365,52.1796,0.5263,-0.0141,0.3363,223.958
19:53:00:471,-0.3637,2.2086,7.7862,53.0238,0.3516,-0.2622,0.1469,223.8282
19:53:00:486,-0.4044,2.0626,8.1667,52.5595,-0.0064,-0.4234,-0.0351,223.9302
19:53:00:509,-1.0313,2.1583,8.7793,53.5951,-0.3753,-0.3599,-0.1377,224.0807
19:53:00:527,-1.5888,2.1224,8.9946,54.3091,-0.5696,-0.2108,-0.1267,224.1734
19:53:00:550,-1.8018,2.053,8.8223,52.783,-0.5256,-0.1058,-0.0192,224.1236
19:53:00:567,-1.8042,2.3067,8.6046,51.1152,-0.3191,-0.03,0.1432,223.8853
19:53:00:588,-1.5147,2.589,8.327,50.6588,-0.065,-0.0276,0.3094,223.4676
19:53:00:614,-1.3113,2.8044,8.1284,52.7511,0.1549,-0.0679,0.3913,223.0016
19:53:00:635,-1.1868,3.0796,7.9657,51.0662,0.3772,-0.1669,0.3509,222.2186
19:53:00:649,-0.9882,3.2231,7.9777,52.6422,0.4029,-0.1876,0.3338,221.8745
19:53:00:671,-0.8901,3.259,8.1308,51.3257,0.3968,-0.1229,0.3277,221.5108
19:53:00:686,-0.9739,3.3691,8.3797,51.9233,0.3528,-0.0679,0.2898,221.159
19:53:00:710,-1.3208,3.4983,8.7697,50.7142,0.2661,-0.041,0.2202,220.8403
19:53:00:729,-1.5434,3.4002,9.3679,51.2788,0.1427,-0.019,0.1591,220.5852
19:53:00:748,-1.4644,3.1537,10.2867,52.2456,-0.0027,-0.0422,0.1139,220.3465
19:53:00:768,-0.8614,2.7781,11.0596,48.2535,-0.1249,-0.1241,0.0834,220.1813
19:53:00:787,-0.39,2.5962,11.5741,48.8896,-0.1774,-0.1375,0.0589,220.0647
19:53:00:809,-0.3159,2.7876,12.1508,50.9543,-0.1896,-0.1131,0.0431,219.9683
19:53:00:828,0.0263,2.6752,12.3039,49.761,-0.1847,-0.1449,0.0541,219.8412
19:53:00:848,0.6987,2.2971,12.5504,50.3897,-0.1786,-0.2377,0.0369,219.7885
19:53:00:866,1.1892,1.8281,12.871,50.6452,-0.2495,-0.3978,-0.0815,219.9182
19:53:00:887,1.1892,1.5386,13.0672,50.6752,-0.368,-0.5175,-0.2502,220.2434
19:53:00:915,0.8901,1.541,12.615,50.0557,-0.3937,-0.3477,-0.3015,220.5487
19:53:00:929,1.0217,1.596,11.6219,47.8849,-0.2153,0.0787,-0.1377,220.6012
19:53:00:948,1.2084,1.73,10.6648,49.4212,0.0914,0.3743,0.0663,220.343
19:53:00:967,1.4668,1.9262,9.7867,49.1825,0.3968,0.2925,0.1432,220.0594
19:53:00:988,1.8784,1.9573,8.9276,50.475,0.5935,-0.0728,0.0406,220.0011
19:53:01:007,2.0172,1.9813,8.138,49.475,0.6448,-0.333,-0.1817,220.2661
19:53:01:029,1.7085,1.9836,7.5805,48.0385,0.5874,-0.2609,-0.3613,220.6811
19:53:01:047,1.2156,2.1488,7.1497,47.3477,0.4689,-0.0887,-0.4737,221.1336
19:53:01:067,0.7896,2.4933,6.9272,49.9416,0.3552,-0.0276,-0.5238,221.6346
19:53:01:087,0.2728,3.0317,6.7334,49.9287,0.2636,-0.1473,-0.5482,222.1413
19:53:01:110,0.122,3.3165,6.81,47.8912,0.2612,-0.1913,-0.5507,223.3663
19:53:01:126,0.0838,3.5892,6.9416,49.7477,0.2783,-0.1864,-0.525,223.9303
19:53:01:147,0.3446,3.7735,7.1497,48.1925,0.3003,-0.1705,-0.5189,224.4765
19:53:01:167,0.3852,3.9338,7.3172,47.284,0.2599,-0.2182,-0.5861,225.1046
19:53:01:187,0.2752,3.9194,7.456,47.8603,0.1524,-0.2793,-0.679,225.8632
19:53:01:210,-0.079,3.8692,7.9298,47.3153,-0.0113,-0.2426,-0.7559,226.6731
19:53:01:226,-0.4546,3.8812,8.8319,49.3724,-0.2067,-0.1717,-0.7828,227.4669
19:53:01:246,-0.8949,3.941,9.8967,47.5698,-0.3045,-0.0593,-0.7254,228.1013
19:53:01:266,-1.2514,4.075,10.3011,47.1591,-0.2165,0.0885,-0.5983,228.587
19:53:01:288,-1.7468,4.4841,10.1073,48.2594,-0.0235,0.2632,-0.448,228.8307
19:53:01:308,-2.0746,4.7761,10.136,45.7585,0.0804,0.3621,-0.3076,228.8874
19:53:01:329,-1.8903,4.7378,10.5787,47.5425,0.0706,0.3206,-0.1842,228.8462
19:53:01:346,-1.3232,4.4171,11.0213,45.5855,0.0706,0.2326,-0.0791,228.7156
19:53:01:366,-1.0672,4.1803,11.1721,45.032,0.1231,0.1752,-0.0315,228.5582
19:53:01:387,-1.5338,4.1539,11.1649,46.5972,0.1708,0.1129,-0.0644,228.4387
19:53:01:410,-2.3904,3.8812,10.7222,46.2066,0.2612,0.1031,-0.1316,228.3613
19:53:01:427,-3.1107,3.5342,10.0977,45.3203,0.3516,0.0897,-0.1903,228.3298
19:53:01:447,-3.1011,2.8307,10.2006,46.605,0.3113,-0.0899,-0.1793,228.3396
19:53:01:466,-2.8762,2.278,10.5141,45.4157,0.1561,-0.3721,-0.0766,228.3225
19:53:01:487,-2.8044,2.5866,10.4542,44.4699,0.0779,-0.3257,0.1054,228.0991
19:53:01:508,-2.1344,2.5101,9.5258,44.2091,0.2367,0.1056,0.3485,227.4916
19:53:01:527,-1.9813,2.4335,8.2122,43.9464,0.4847,0.312,0.4279,226.7121
19:53:01:547,-0.7992,2.4096,6.7143,43.7131,0.3174,-0.1937,0.379,225.7792
19:53:01:566,-0.3948,2.266,7.1402,44.7098,-0.0662,-0.228,0.3228,225.4018
19:53:01:590,-0.4522,2.3426,7.8245,43.1866,-0.401,-0.0618,0.2434,225.0229
19:53:01:608,-0.7968,2.4742,8.4203,43.2159,-0.5867,0.1349,0.1616,224.6271
19:53:01:627,-0.9308,2.5149,8.3892,43.3547,-0.5574,0.2326,0.109,224.2555
19:53:01:646,-0.926,2.5962,7.7671,43.2748,-0.3631,0.2265,0.1005,223.9194
19:53:01:666,-0.9332,2.8522,7.1163,43.2159,-0.1786,0.1483,0.1066,223.6013
19:53:01:690,-0.9308,3.1011,7.0517,43.1352,-0.1249,0.0445,0.1273,223.3116
19:53:01:708,-0.6891,3.149,7.1426,43.5948,-0.153,-0.0056,0.1787,222.9904
19:53:01:725,-0.6365,3.3141,7.3866,42.5715,-0.1628,0.0176,0.2349,222.6006
19:53:01:746,-0.5695,3.3141,7.6475,43.2658,-0.1371,0.0298,0.2789,222.1596
19:53:01:766,-0.737,3.5127,7.6211,43.5791,-0.065,-0.0068,0.3021,221.7354
19:53:01:788,-1.0265,3.4887,7.5039,42.5527,0.0034,-0.0569,0.3033,221.2753
19:53:01:806,-0.9547,3.3308,7.5757,45.1183,-0.0186,-0.1791,0.3412,220.8277
19:53:01:829,-1.0648,3.6921,8.6692,43.1063,-0.1664,-0.256,0.3241,220.4427
19:53:01:849,-0.9069,3.4217,9.4469,42.9252,-0.3057,-0.2365,0.2324,220.1306
19:53:01:872,-0.9882,3.2136,10.526,43.399,-0.4254,-0.14,0.164,219.8105
19:53:01:885,-1.0146,2.9097,11.7416,42.5237,-0.5586,-0.1253,0.1249,219.4976
19:53:01:906,-0.6102,2.6178,12.4523,42.4443,-0.594,-0.1314,0.1494,219.1577
19:53:01:925,-0.3852,2.5938,12.5551,42.4916,-0.5439,-0.0532,0.1836,218.7652
19:53:01:947,0.1531,2.5436,12.2824,41.9505,-0.4755,0.0665,0.2312,218.3263
19:53:01:975,1.0696,2.3378,11.945,42.9182,-0.3937,-0.0178,0.2679,217.9094
19:53:01:997,1.6965,2.1057,12.0766,42.9182,-0.3973,-0.2646,0.1958,217.647
19:53:02:010,1.7803,1.5864,12.9141,40.9269,-0.5598,-0.3965,-0.0718,217.8246
19:53:02:027,1.6774,1.4405,12.1364,41.965,-0.4095,-0.0129,-0.0705,217.7512
19:53:02:047,1.4261,1.6223,11.1888,42.4389,-0.109,0.2693,-0.0644,217.6119
19:53:02:066,1.8592,1.5362,9.9757,42.8769,0.1622,0.1899,-0.0803,217.5257
19:53:02:086,2.3617,1.4118,8.8774,41.6294,0.3296,-0.1033,-0.1487,217.5962
19:53:02:107,2.3282,1.5314,8.2217,42.4916,0.2758,-0.344,-0.2941,217.914
19:53:02:127,2.0315,1.5912,8.0973,41.9765,0.0828,-0.2707,-0.4273,218.3481
19:53:02:146,1.127,1.8592,8.0231,41.1359,-0.065,-0.0154,-0.5556,218.8008
19:53:02:167,0.3637,2.1081,7.8413,42.0129,-0.0736,0.1349,-0.6216,219.2818
19:53:02:190,-0.0526,2.3904,7.7049,42.1606,0.0364,0.0909,-0.6044,219.7398
19:53:02:207,-0.0263,2.3952,7.2,40.7484,0.2257,-0.0813,-0.5519,220.1976
19:53:02:227,-0.0431,2.5627,6.5228,39.8861,0.387,-0.2658,-0.5116,220.6732
19:53:02:246,-0.2752,2.8905,6.2213,42.256,0.3833,-0.3745,-0.4908,221.1764
19:53:02:268,-0.3876,3.1681,6.6497,40.8843,0.1952,-0.3807,-0.481,221.637
19:53:02:289,-0.28,3.2351,7.6666,42.0912,-0.0638,-0.2695,-0.4749,222.0784
19:53:02:306,-0.2895,3.3452,8.7745,40.7276,-0.2678,-0.0899,-0.4627,222.4454
19:53:02:326,-0.4953,3.5629,9.7747,40.5396,-0.3643,0.1044,-0.4456,222.7118
19:53:02:347,-0.9069,3.6156,10.9711,40.6969,-0.3668,0.2033,-0.4371,222.9393
19:53:02:374,-1.3854,3.6347,11.6387,42.7105,-0.2312,0.1923,-0.4041,223.136
19:53:02:391,-1.9214,3.9003,11.6961,40.1094,-0.0162,0.1483,-0.299,223.189
19:53:02:407,-1.7013,4.0989,11.3515,40.881,0.1757,0.1728,-0.1035,223.0458
19:53:02:426,-1.1462,4.1946,11.1458,40.7328,0.31,0.2485,0.0736,222.7429
19:53:02:446,-0.7322,4.142,11.2415,39.792,0.3736,0.2632,0.1286,222.3472
19:53:02:575,-1.7683,3.6514,10.483,40.9577,0.4884,0.0958,-0.0388,222.0208
19:53:02:578,-2.8307,3.4529,10.0427,41.2472,0.4896,0.0579,-0.0742,221.8067
19:53:02:579,-3.2495,3.2853,9.4014,41.3219,0.4493,0.0775,0.0345,221.462
19:53:02:581,-2.2971,2.7446,9.478,41.3909,0.2942,0.0408,0.1958,220.9506
19:53:02:583,-1.1605,1.9645,10.4925,39.7139,-0.0162,-0.1498,0.3167,220.418
19:53:02:585,-1.1438,2.077,11.8062,39.3626,-0.2898,-0.2365,0.379,219.8264
19:53:02:587,-1.0911,2.1464,12.067,39.8188,-0.2214,0.0017,0.4511,219.079
19:53:02:608,-0.8853,1.7946,10.6361,37.983,0.2514,0.2656,0.4829,218.2422
19:53:02:625,-0.8686,1.8353,8.7051,38.4558,0.7328,0.1385,0.4365,217.5258
19:53:02:645,-0.469,1.9741,7.2311,39.2523,0.8354,-0.2011,0.4267,216.935
19:53:02:666,-0.146,2.0865,6.7071,39.9449,0.5825,-0.3709,0.3705,216.5093
19:53:02:687,-0.2082,1.9501,6.92,39.462,0.2148,-0.2609,0.2495,216.1432
19:53:02:707,-0.6078,1.9597,7.2455,39.203,-0.0846,-0.0019,0.1286,215.8091
19:53:02:724,-0.8351,1.9669,7.736,38.9325,-0.269,0.1935,0.0883,215.4053
19:53:02:746,-0.8112,2.2062,8.3366,38.5692,-0.3484,0.1703,0.1335,215.0011
19:53:02:768,-0.1699,2.5172,8.8893,37.7834,-0.3387,0.0543,0.2288,214.5378
19:53:02:789,0.1747,2.7685,9.0018,38.5546,-0.2336,0.064,0.2544,214.092
19:53:02:807,-0.0239,3.015,8.9252,37.5402,-0.0736,0.1117,0.1604,213.7063
19:53:02:825,-0.4905,2.9886,8.607,38.8922,0.0987,0.1141,0.0467,213.442
19:53:02:846,-0.9356,2.948,8.2863,38.3419,0.2184,0.0543,-0.0302,213.2442
19:53:02:871,-1.048,2.9575,8.418,38.0522,0.1989,0.0017,-0.0229,213.0577
19:53:02:890,-0.8255,3.0126,8.6118,38.2672,0.1414,0.0848,0.0406,212.7945
19:53:02:906,-0.6652,3.0269,8.6022,38.4293,0.1317,0.2033,0.0834,212.4363
19:53:02:926,-0.7178,3.204,8.9946,38.6598,0.0804,0.2363,0.0797,212.0903
19:53:02:946,-0.1651,3.0126,10.8467,38.0507,-0.0919,0.1385,0.0638,211.7479
19:53:02:970,0.213,2.7876,11.7153,37.9754,-0.1017,0.0005,0.026,211.4284
19:53:02:986,0.3422,2.7924,12.268,37.1639,-0.0687,-0.1302,-0.0095,211.3092
19:53:03:005,0.146,2.8068,12.2321,36.8123,0.0352,-0.1424,-0.0461,211.2205
19:53:03:025,-0.0479,3.0963,11.1673,36.4809,0.2196,-0.0459,-0.0571,211.1218
19:53:03:046,0.2704,2.8953,9.8465,37.7832,0.321,-0.0349,-0.0339,211.0204
19:53:03:067,0.67,2.5627,9.454,35.8002,0.1854,-0.1546,-0.0327,210.954
19:53:03:085,0.7178,2.2493,10.4614,36.2949,-0.1566,-0.245,-0.0632,210.9407
19:53:03:105,0.6126,2.1942,11.4377,36.6848,-0.4205,-0.1168,-0.0498,210.8659
19:53:03:124,0.859,2.2995,10.995,35.5416,-0.335,0.2277,0.0333,210.5857
19:53:03:146,1.1749,2.4239,9.813,36.8467,-0.0357,0.3377,0.0907,210.2362
19:53:03:166,1.4381,2.4837,8.5041,35.8002,0.1854,0.0799,0.0467,210.0418
19:53:03:186,1.5242,2.388,8.0184,35.2942,0.1683,-0.2206,-0.0669,210.0802
19:53:03:206,1.395,2.3713,8.2744,36.3357,-0.0296,-0.3013,-0.1915,210.2669
19:53:03:228,0.8279,2.4646,8.3868,36.4672,-0.1921,-0.1094,-0.2917,210.4466
19:53:03:248,0.2943,2.5364,8.2385,36.915,-0.2361,0.108,-0.343,210.6381
19:53:03:267,-0.0048,2.6656,7.9011,34.0468,-0.1945,0.1263,-0.3308,210.779
19:53:03:285,-0.2632,2.9288,7.6953,36.7434,-0.1298,0.0139,-0.3137,210.9398
19:53:03:305,-0.4977,3.1226,7.681,36.2249,-0.0846,-0.0862,-0.2966,211.1071
19:53:03:324,-0.3087,3.259,7.9825,34.8076,-0.0577,-0.1192,-0.2624,211.2536
19:53:03:346,-0.0287,3.3667,7.9585,36.0528,0.007,-0.0532,-0.2306,211.3766
19:53:03:367,-0.0861,3.6419,8.0973,34.972,0.0535,0.0359,-0.244,211.4739
19:53:03:388,-0.2441,3.7639,8.8869,33.5981,0.0755,0.0543,-0.3015,211.9192
19:53:03:410,-0.402,3.929,9.1502,35.4728,0.1634,0.086,-0.299,212.0284
19:53:03:424,-0.3206,3.9171,9.0257,33.8026,0.2722,0.1202,-0.2575,212.0743
19:53:03:447,-0.8997,4.2281,9.1454,33.9366,0.3345,0.1874,-0.2404,212.106
19:53:03:471,-1.2897,4.3908,9.2411,33.5716,0.3247,0.2216,-0.1988,212.0252
19:53:03:487,-1.5529,4.7378,9.1454,33.5158,0.3125,0.3194,-0.1084,211.8273
19:53:03:506,-1.4692,4.8622,9.0903,34.2945,0.2905,0.4171,0.0089,211.519
19:53:03:526,-1.2251,4.8909,9.6359,33.0124,0.2111,0.3646,0.0797,211.1311
19:53:03:548,-0.7322,4.7091,10.2126,33.9281,0.1304,0.2094,0.1005,210.8066
19:53:03:566,-1.0026,4.398,10.4423,34.6491,0.128,0.1862,0.0369,210.5286
19:53:03:585,-1.9884,4.2616,10.2509,32.9567,0.1451,0.3072,-0.0424,210.2503
19:53:03:607,-2.6704,4.2616,9.6024,32.3806,0.1402,0.455,-0.018,209.8848
19:53:03:625,-2.8259,4.2281,9.4899,31.4696,0.051,0.4403,0.0602,209.4192
19:53:03:649,-1.9454,3.0078,10.7892,31.3074,-0.1334,0.1508,0.1188,209.032
19:53:03:666,-2.1607,2.3665,11.7081,31.1033,-0.2189,-0.256,0.1212,208.782
19:53:03:686,-2.5699,2.5842,11.531,31.8126,-0.0797,-0.256,0.1884,208.4504
19:53:03:706,-2.4072,2.2708,9.7053,31.2542,0.2343,0.1031,0.3094,207.8386
19:53:03:726,-2.8211,2.1966,7.9131,30.5039,0.4542,0.2693,0.3387,207.1184
19:53:03:747,-2.4024,2.1631,7.3077,30.7767,0.3552,0.0872,0.4059,206.4389
19:53:03:767,-1.7563,2.3019,7.6499,32.2069,0.0791,-0.129,0.4792,205.7783
19:53:03:792,-1.4788,2.2086,7.8724,32.9256,-0.1224,-0.0997,0.4462,204.5889
19:53:03:817,-1.3831,2.1464,7.4656,29.6747,-0.2361,0.2705,0.3497,204.0852
19:53:03:829,-1.529,2.2205,7.6427,30.67,-0.2629,0.2986,0.357,203.2086
19:53:03:847,-1.5314,2.4191,8.0471,29.841,-0.2593,0.1496,0.3913,202.7105
19:53:03:866,-1.1342,2.4957,8.1787,30.0205,-0.2018,-0.0178,0.423,202.0959
19:53:03:885,-0.7274,2.9049,7.9226,28.5411,-0.1139,0.0152,0.4377,201.4786
19:53:03:907,-0.9476,3.2207,8.004,28.591,-0.0723,0.1654,0.3937,200.8471
19:53:03:928,-1.4405,3.2207,8.1045,28.3637,-0.0467,0.2155,0.3082,200.2484
19:53:03:948,-1.584,3.1442,7.9561,27.8919,0.007,0.1019,0.2691,199.76
19:53:03:968,-1.2634,3.3404,8.1954,27.9414,-0.0076,-0.0532,0.3204,199.2902
19:53:03:986,-1.0744,3.472,9.2674,28.463,-0.0821,-0.0838,0.3717,198.7709
19:53:04:007,-1.0744,3.5318,10.0618,26.2865,-0.087,-0.008,0.3497,198.2327
19:53:04:030,-1.1605,3.6897,10.1862,28.1642,0.0034,0.0701,0.3008,197.5898
19:53:04:048,-1.3448,3.7041,10.3346,25.852,0.0779,0.0567,0.2642,196.9476
19:53:04:065,-1.017,3.5533,10.4686,26.9823,0.0999,-0.0545,0.2617,196.399
19:53:04:085,-0.725,3.5486,10.3561,26.6439,0.095,-0.1498,0.2728,195.8384
19:53:04:105,-0.6772,3.7065,10.3322,25.0109,0.0254,-0.129,0.2605,195.3
19:53:04:127,-0.7968,3.941,10.3466,27.13,-0.0846,-0.0398,0.2556,194.7477
19:53:04:148,-0.268,3.9338,10.2006,25.863,-0.1628,-0.0068,0.2801,194.1646
19:53:04:171,0.2417,3.4648,10.7007,25.6832,-0.2483,-0.1119,0.2532,193.6213
19:53:04:188,0.3446,2.4814,11.5669,24.9983,-0.3582,-0.2756,0.1371,193.2669
19:53:04:211,-0.3757,2.0698,12.5145,24.7539,-0.4328,-0.2059,0.065,193.1261
19:53:04:228,-0.7322,2.3833,12.816,24.5686,-0.3607,0.0934,0.1628,192.7364
19:53:04:249,0.0957,2.4144,11.1841,25.1109,-0.0015,0.3914,0.3595,192.0888
19:53:04:267,1.0122,2.613,9.0186,25.1677,0.3858,0.3976,0.4719,191.3625
19:53:04:286,1.8305,2.6895,7.535,25.0924,0.4481,0.1447,0.3864,190.8182
19:53:04:309,-0.28,2.1081,8.662,24.2655,-0.1762,-0.0374,-0.2184,190.8909
19:53:04:330,-0.6652,2.0052,9.1262,24.2893,-0.324,0.1886,-0.2281,190.866
19:53:04:346,-0.3159,2.2493,8.6764,25.1321,-0.2495,0.3242,-0.0876,190.6739
19:53:04:365,-0.481,2.6728,8.059,24.5323,-0.1505,0.2778,-0.0217,190.4256
19:53:04:386,-0.8064,2.857,7.736,24.1244,-0.0809,0.1911,-0.0388,190.2166
19:53:04:409,-1.2945,3.0532,7.4608,23.7309,-0.0088,0.1056,-0.0632,190.0593
19:53:04:430,-1.1964,3.2686,7.2957,25.4581,0.0474,0.075,-0.0168,189.8716
19:53:04:449,-0.8638,3.4457,7.2072,24.2696,0.0706,0.1007,0.0626,189.5809
19:53:04:467,-0.6939,3.5892,7.1976,23.0254,0.0779,0.1373,0.0956,189.2328
19:53:04:485,-0.3805,3.9362,7.3531,23.4735,0.0535,0.1007,0.0968,188.935
19:53:04:505,-0.2321,4.0941,7.6523,23.8941,0.0107,0.0726,0.0785,188.6734
19:53:04:528,-0.6987,4.2401,8.2959,22.4071,-0.0198,0.1385,0.0284,188.4032
19:53:04:548,-0.8375,4.0726,8.9348,22.6737,-0.032,0.1972,-0.007,188.1696
19:53:04:566,-1.1342,4.2616,9.3535,24.4089,0.0022,0.3023,0.0003,187.862
19:53:04:692,-1.4405,4.6852,9.5186,22.9535,0.0681,0.4257,0.0479,187.2249
19:53:04:694,-1.7133,4.9795,9.2028,23.5131,0.183,0.4684,0.1176,186.437
19:53:04:695,-1.8233,4.9651,9.3679,23.2742,0.2294,0.4171,0.186,185.607
19:53:04:696,-1.529,4.8981,9.99,23.7384,0.1732,0.2705,0.285,184.9646
19:53:04:697,-1.2538,4.7689,10.5069,22.6628,0.1378,0.2449,0.3522,184.2838
19:53:04:698,-1.5721,4.4004,10.3609,22.5338,0.1634,0.3304,0.3118,183.6245
19:53:04:713,-2.5675,4.2544,10.0379,22.3518,0.1585,0.4257,0.2581,182.9772
19:53:04:727,-3.539,4.1635,9.8776,21.8002,0.0901,0.5759,0.3057,182.132
19:53:04:749,-3.9218,3.9577,9.7197,22.7091,0.0144,0.7079,0.4413,179.9677
19:53:04:766,-3.5127,2.4287,11.9091,23.4119,-0.1884,0.2241,0.5892,179.2206
19:53:04:784,-4.185,2.5579,11.9761,21.9538,-0.0247,-0.3648,0.5843,178.4779
19:53:04:805,-3.3236,2.8427,10.2939,22.0821,0.3174,-0.3245,0.7724,177.5427
19:53:04:825,-2.8738,2.4981,7.3364,23.4083,0.6521,-0.2011,0.7944,176.5173
19:53:04:844,-2.4167,2.5053,6.3625,23.1072,0.4896,-0.1815,0.7407,175.5571
19:53:04:864,-2.6154,2.522,7.7384,21.8161,-0.0418,-0.1607,0.6197,174.697
19:53:04:896,-2.9527,2.1823,9.0879,22.2973,-0.434,-0.1766,0.4389,174.0734
19:53:04:905,-3.2566,1.6606,10.014,22.4356,-0.5696,-0.1534,0.3827,173.4584
19:53:04:949,-3.2064,1.6989,10.1551,22.6461,-0.4596,0.1349,0.5134,172.6061
19:53:04:950,-2.8068,1.9717,9.2722,22.5393,-0.2031,0.5283,0.7297,171.3627
19:53:04:967,-2.3617,2.1583,7.6259,21.016,0.062,0.6407,0.8641,169.9359
19:53:04:984,-1.9597,2.6082,6.2692,22.1982,0.1708,0.4696,0.9337,168.5352
19:53:05:007,-1.6391,2.9886,5.8911,23.2736,0.0901,0.2644,0.9435,167.1979
19:53:05:032,-1.7468,3.3476,6.4439,22.1288,-0.0772,0.1092,0.8897,165.9542
19:53:05:044,-1.8497,3.1514,7.3699,22.4938,-0.1945,0.0286,0.8237,164.8408
19:53:05:064,-1.8209,3.1274,7.8532,22.8998,-0.1725,-0.0202,0.8311,163.7167
19:53:05:084,-1.7324,3.3476,8.3031,22.5863,-0.1346,-0.0129,0.9056,162.5255
19:53:05:106,-1.4405,3.5103,8.7386,23.2211,-0.1285,0.0591,0.9826,161.2266
19:53:05:132,-1.1964,3.6969,9.1956,19.028,-0.1041,0.1544,1.0143,159.837
19:53:05:146,-1.3065,4.0175,9.9972,22.2579,-0.0748,0.1227,0.9777,158.5764
19:53:05:164,-0.6413,3.9888,10.6194,24.1601,-0.0088,-0.0447,0.9508,157.3984
19:53:05:185,0.1125,3.8716,10.7845,23.3362,0.1036,-0.107,0.8909,156.3223
19:53:05:206,0.6724,3.6778,10.6696,22.6908,0.1573,-0.0398,0.7419,155.4116
19:53:05:232,-0.4738,3.9697,11.4018,23.0035,0.0425,0.13,0.4059,154.1863
19:53:05:246,-0.414,3.6993,10.7318,24.8109,0.106,0.2326,0.3692,153.463
19:53:05:264,-0.1507,2.9432,10.0714,22.5074,0.0816,0.2106,0.3216,152.8238
19:53:05:283,-0.3733,2.7087,11.3874,22.9399,-0.2214,-0.0056,0.252,152.3653
19:53:05:307,-0.3135,2.4383,12.658,22.5074,-0.4804,-0.0911,0.2972,151.9097
19:53:05:332,0.0598,2.2827,12.2536,22.5025,-0.2996,0.2143,0.4389,151.201
19:53:05:347,0.4044,2.3306,10.2078,24.0769,0.1598,0.5063,0.5831,150.2476
19:53:05:364,0.7107,2.5244,8.1787,23.9078,0.4713,0.4147,0.6368,149.2617
19:53:05:384,1.0911,2.5484,7.0636,22.4563,0.4383,0.0836,0.5782,148.4524
19:53:05:407,1.048,2.3833,6.731,24.2436,0.183,-0.1204,0.4145,147.8921
19:53:05:432,0.4235,2.3378,6.6879,23.3093,-0.1004,-0.0227,0.2337,147.4255
19:53:05:447,-0.0718,2.3545,6.5635,23.0182,-0.3045,0.2204,0.1604,146.9668
19:53:05:465,-0.335,2.5508,6.7119,23.6547,-0.4303,0.3059,0.1701,146.4543
19:53:05:483,-0.5049,2.6632,6.5515,23.8411,-0.445,0.2204,0.2153,145.8966
19:53:05:511,-0.6245,2.7829,5.9725,23.5863,-0.3692,0.0885,0.2593,145.3361
19:53:05:524,-0.615,2.9169,5.7165,23.7303,-0.346,-0.0569,0.3008,144.7803
19:53:05:544,-0.5121,2.9551,6.0802,24.0592,-0.4279,-0.1693,0.3363,144.2031
19:53:05:564,-0.2393,2.9049,6.5181,24.8097,-0.4938,-0.1583,0.3595,143.6425
19:53:05:585,-0.134,2.9958,6.8985,22.8142,-0.5366,-0.118,0.3644,143.0516
19:53:05:606,-0.4594,3.1274,7.5853,22.0397,-0.6026,-0.1119,0.3632,142.4472
19:53:05:626,-0.5312,3.3667,8.8654,24.0933,-0.6551,-0.1937,0.3949,141.8781
19:53:05:644,-0.1196,3.4959,10.1264,22.7394,-0.6099,-0.3098,0.4756,141.2109
19:53:05:665,0.1244,3.6371,10.9831,22.8142,-0.4547,-0.3306,0.533,140.5211
19:53:05:684,-0.8997,4.8766,11.0261,21.6957,-0.1493,-0.0007,0.6466,139.7544
19:53:05:703,-0.5121,5.0656,10.9783,24.5684,-0.1029,0.2314,0.8506,137.7656
19:53:05:724,0.2608,4.9507,11.4999,23.8543,-0.131,0.3267,1.0082,136.2874
19:53:05:743,0.8734,4.7115,12.1962,25.1389,-0.1701,0.3145,1.0412,134.8379
19:53:05:763,1.0313,4.1492,12.5073,23.9566,-0.109,0.284,0.9789,133.5004
19:53:05:783,0.3254,3.862,11.9187,22.2819,0.0327,0.2021,0.8335,132.3073
19:53:05:805,-0.4379,3.5701,11.1841,24.8943,0.1475,0.2033,0.7113,131.2713
19:53:05:824,-0.804,3.0102,11.0046,22.9306,0.084,0.1606,0.6637,130.2668
19:53:05:844,-0.8566,2.199,12.0862,24.275,-0.1664,-0.0899,0.6356,129.4141
19:53:05:865,-0.725,1.6223,13.3304,23.3255,-0.3509,-0.4161,0.6221,128.668
19:53:05:891,-0.8088,1.4955,13.3161,23.9637,-0.1957,-0.3941,0.6649,127.8961
19:53:05:906,-1.0289,1.3807,11.3587,23.2437,0.2819,0.0628,0.7846,126.8615
19:53:05:924,-1.2275,1.5625,9.009,22.9217,0.7303,0.4574,0.8922,125.5542
19:53:05:943,-1.0816,1.7611,7.413,23.8844,0.7621,0.444,0.9471,124.1708
19:53:05:963,-0.7442,1.8951,7.188,24.4632,0.4554,0.2045,0.9447,122.9211
19:53:05:984,-0.4666,1.8018,7.7839,24.7979,0.0962,-0.0496,0.8201,121.8473
19:53:06:005,-0.4307,1.6176,8.1045,24.7426,-0.0956,-0.0923,0.6661,120.974
19:53:06:025,-0.7155,1.7635,8.0734,23.8973,-0.1359,0.1117,0.5708,120.1263
19:53:06:052,-0.9691,1.7037,7.7145,23.0238,-0.1176,0.323,0.511,119.2589
19:53:06:065,-1.5266,1.7779,7.547,24.3503,-0.1066,0.4281,0.4804,118.4003
19:53:06:085,-1.6199,1.8879,7.6594,24.8323,-0.1163,0.411,0.5733,117.4337
19:53:06:111,-0.9619,2.1966,7.6546,25.5428,-0.0894,0.3597,0.7712,116.2662
19:53:06:138,-0.2776,2.534,7.7791,24.164,-0.0247,0.3682,0.9093,114.9652
19:53:06:144,0.4164,2.8068,7.7551,23.9877,0.1585,0.3707,0.9007,113.6425
19:53:06:169,0.4427,2.8522,7.6092,25.2329,0.1647,0.2693,0.8115,112.5688
19:53:06:189,0.3637,2.7733,8.2409,24.9438,0.0217,0.1618,0.7223,110.3972
19:53:06:206,0.4427,2.7661,9.3272,24.3763,-0.1676,0.0738,0.6759,109.4753
19:53:06:225,0.7059,2.8355,10.6433,24.313,-0.2385,0.0262,0.6515,108.6325
19:53:06:245,1.3448,2.7972,11.2965,23.3714,-0.1249,0.0237,0.6258,107.7656
19:53:06:265,1.5577,2.6848,11.129,23.3865,0.0498,0.0775,0.5415,107.0127
19:53:06:287,1.3687,2.6225,10.861,24.9003,0.0999,0.0872,0.4193,106.3603
19:53:06:305,1.2251,2.7135,10.6696,24.7053,-0.0101,0.0775,0.3314,105.8257
19:53:06:329,1.6965,2.2325,10.6528,23.1285,-0.1811,0.1532,0.2691,105.3868
19:53:06:345,2.0937,1.5266,10.7557,23.717,-0.3839,0.2204,0.1286,105.1055
19:53:06:364,1.3567,1.2419,11.933,23.701,-0.7138,0.1312,-0.1512,105.1427
19:53:06:389,0.4355,0.6628,14.1918,23.7522,-1.0558,-0.0655,-0.3882,105.505
19:53:06:406,-0.1962,0.2608,15.5366,23.6578,-1.0546,-0.2609,-0.4187,105.9947
19:53:06:425,-0.2249,0.012,14.1679,23.6578,-0.5427,-0.1876,-0.2184,106.2146
19:53:06:446,0.067,0.1795,11.0836,23.6578,0.1439,0.2326,0.1054,105.9671
19:53:06:464,0.591,0.6269,8.138,23.6578,0.4786,0.6175,0.3888,105.2917
19:53:06:490,1.3304,1.048,6.7525,23.6578,0.321,0.8044,0.5452,104.3766
19:53:06:506,1.9262,1.2945,6.4176,23.6578,-0.0589,0.8679,0.4817,103.5046
19:53:06:526,1.5793,1.517,6.7262,23.8636,-0.4132,0.9009,0.1689,102.9527
19:53:06:543,0.2632,1.5649,7.3101,24.05,-0.6307,0.8997,-0.2171,102.7919
19:53:06:566,-0.8853,1.541,8.0686,24.2696,-0.6466,0.7873,-0.4383,102.9367
19:53:06:587,-1.139,1.7922,8.059,23.8596,-0.2165,0.1447,-0.1866,103.2837
19:53:06:604,-0.3278,2.1296,7.4752,24.0582,0.007,0.0188,0.0834,103.0173
19:53:06:623,0.4355,2.5914,7.1019,24.0623,0.0999,0.1044,0.2275,102.5442
19:53:06:643,0.3541,2.8881,7.5254,22.738,0.0315,0.2106,0.1567,102.1457
19:53:06:664,-0.1651,2.8546,8.7649,23.833,-0.0711,0.1886,0.026,101.8916
19:53:06:685,-0.2153,2.9623,9.5282,28.6087,-0.0271,0.0213,0.0174,101.6736
19:53:06:704,0.2465,2.857,9.8848,26.0314,0.1048,-0.1583,0.0773,101.43
19:53:06:828,0.5886,2.6154,9.9302,25.7873,0.1781,-0.1595,0.1066,101.1727
19:53:06:830,0.7681,2.9336,10.6624,27.0877,0.1414,0.0421,0.1225,100.8639
19:53:06:831,-0.2465,2.9982,10.8347,26.8812,0.1451,0.1031,0.0687,100.5522
19:53:06:833,-0.9667,3.1896,10.9902,26.4698,0.2184,0.1385,0.0638,100.2439
19:53:06:835,-0.5384,3.0915,11.1984,25.7756,0.2734,0.108,0.2544,99.7802
19:53:06:837,-0.3111,3.1801,11.1553,25.7306,0.3406,0.1202,0.4255,99.1522
19:53:06:852,-0.0718,3.1801,11.2463,24.8796,0.376,0.1911,0.4829,98.4336
19:53:06:867,-0.5551,2.601,10.727,23.6122,0.3699,0.1825,0.4536,97.8044
19:53:06:885,-1.8568,2.589,10.2867,25.7316,0.3088,0.3487,0.4279,97.1385
19:53:06:929,-0.9021,2.4814,10.9137,23.1906,0.1036,0.6114,0.6112,96.2611
19:53:06:929,-0.5743,1.7635,11.8062,24.9615,-0.0772,0.2399,0.6441,95.5237
19:53:06:944,-0.8231,1.2179,12.7896,22.6304,-0.1481,-0.5273,0.3925,95.2489
19:53:06:968,-1.1605,0.938,12.122,21.4459,-0.0467,-0.9317,0.186,95.3366
19:53:06:991,-1.7587,0.737,10.2341,22.4876,0.2257,-0.4063,0.1921,95.0027
19:53:07:007,-2.1942,1.005,8.3127,25.6042,0.4114,0.2558,0.274,94.4769
19:53:07:026,-1.8233,1.6319,7.3914,23.9927,0.3064,0.4269,0.368,93.9689
19:53:07:045,-1.0887,1.541,8.0184,24.6562,-0.313,0.0005,0.3241,93.6459
19:53:07:070,-0.8686,1.4165,8.5591,23.7213,-0.4938,0.0384,0.153,93.4581
19:53:07:095,-1.1486,1.3687,8.6764,25.1786,-0.4975,0.2277,0.015,93.3806
19:53:07:103,-1.4261,1.3926,8.4299,23.2014,-0.4218,0.3475,-0.0339,93.3173
19:53:07:123,-1.4812,1.4022,8.2529,24.1559,-0.3387,0.3585,0.0052,93.2419
19:53:07:144,-1.6726,1.7492,8.2935,24.5694,-0.2703,0.2729,0.1054,93.024
19:53:07:166,-1.584,2.1057,8.3366,21.9357,-0.2128,0.1581,0.2275,92.7386
19:53:07:185,-1.407,2.1512,8.3725,24.2015,-0.1395,0.2229,0.3167,92.3594
19:53:07:204,-1.3663,2.2971,8.2792,22.9872,-0.0027,0.3585,0.4023,91.8565
19:53:07:224,-1.2897,2.4167,7.9992,22.5914,0.1378,0.4367,0.4646,91.2873
19:53:07:243,-1.2395,2.5412,8.2122,24.7598,0.1414,0.4025,0.4694,90.6975
19:53:07:266,-1.0385,2.4239,8.7003,23.7534,0.0437,0.2803,0.4438,90.1807
19:53:07:284,-1.0361,2.2421,9.4469,24.3987,-0.0516,0.141,0.3741,89.8147
19:53:07:303,-1.3041,2.1535,10.27,26.1475,-0.1176,0.0237,0.3021,89.5649
19:53:07:323,-1.4357,1.8975,11.2487,24.7265,-0.1212,-0.0007,0.2862,89.391
19:53:07:346,-1.3567,1.6247,11.5884,26.9867,-0.0504,0.0054,0.3192,89.1896
19:53:07:365,-1.1653,1.4764,11.6052,24.4284,0.0315,0.0298,0.3314,88.9862
19:53:07:384,-0.9069,1.5075,11.4616,24.6112,0.0352,0.0628,0.3192,88.8174
19:53:07:404,-0.7896,1.5194,11.0237,25.7051,-0.0113,0.1044,0.274,88.6846
19:53:07:430,-0.5695,1.2634,11.0596,26.2191,-0.1114,0.2057,0.1823,88.6701
19:53:07:444,-0.3493,0.7298,11.8708,24.8066,-0.302,0.1923,0.0602,88.8483
19:53:07:466,-0.3757,0.0766,13.7061,25.5057,-0.5183,-0.0459,-0.1072,89.3198
19:53:07:483,-0.9117,-0.1819,14.7733,25.833,-0.4926,-0.476,-0.2355,90.0393
19:53:07:504,-0.5264,-0.3876,10.9759,25.6201,0.5251,-0.4918,0.0932,90.8665
19:53:07:522,-0.055,0.1842,8.9037,26.1073,0.8024,-0.2585,0.2886,90.9088
19:53:07:542,1.1773,0.6437,7.8844,26.7665,0.69,-0.1265,0.4169,90.7455
19:53:07:563,1.8401,1.151,7.5087,24.4857,0.4737,-0.1644,0.3167,90.7289
19:53:07:582,1.7683,1.2778,7.1809,26.9522,0.3015,-0.2304,-0.0241,91.0124
19:53:07:603,1.0457,1.1366,6.8889,24.9265,0.1463,-0.1485,-0.3857,91.8013
19:53:07:622,0.3326,1.2371,6.7645,25.9439,0.0205,0.0396,-0.5812,92.7122
19:53:07:643,-0.3541,1.7563,6.9368,25.7362,-0.0418,0.1948,-0.668,93.6198
19:53:07:662,-0.5001,1.8209,7.3579,25.8687,-0.0308,0.218,-0.6448,94.5401
19:53:07:682,-0.134,2.2564,7.0995,26.4402,0.0706,0.0249,-0.4896,95.3167
19:53:07:702,0.3063,2.601,6.9009,26.1624,0.1585,-0.0911,-0.409,95.9876
19:53:07:722,0.5958,2.7182,7.0325,27.2372,0.1329,-0.0508,-0.4542,96.7187
19:53:07:743,0.1723,2.9743,7.9442,27.4089,0.0242,0.0311,-0.5641,97.6212
19:53:07:766,-0.1771,2.9623,8.7458,26.0317,-0.0345,0.0384,-0.657,98.6035
19:53:07:782,-0.3254,2.9934,9.1382,28.0738,0.0339,0.0054,-0.6374,99.5402
19:53:07:802,-0.5719,2.8092,9.119,27.6091,0.0914,-0.0899,-0.5421,100.5063
19:53:07:822,-0.6508,2.7063,9.5952,24.7158,0.0486,-0.1009,-0.4322,101.3467
19:53:07:844,-0.7944,2.8881,10.1049,27.4047,-0.0601,-0.1302,-0.3076,102.0598
19:53:07:863,-0.938,3.1585,10.5284,28.9691,-0.1102,-0.0667,-0.1805,102.62
19:53:07:884,-1.2634,3.5677,10.7462,28.5555,-0.0772,0.0885,-0.0437,102.9989
19:53:07:904,-1.4788,3.7352,11.05,30.0651,-0.0369,0.1691,0.0516,103.2624
19:53:07:925,-1.4668,3.5294,11.1936,30.2395,0.0095,0.2363,0.1359,103.4889
19:53:07:948,-1.4644,3.5198,11.0788,28.4465,0.084,0.2339,0.2459,103.5882
19:53:07:965,-2.1176,3.0844,10.4064,29.7276,0.0315,0.1618,0.2617,103.2931
19:53:07:987,-2.2636,2.4024,10.9208,31.4986,-0.1945,0.3658,0.2642,103.421
19:53:08:007,-2.7565,1.5697,12.6508,31.9067,-0.4218,0.0604,0.23,103.7159
19:53:08:024,-2.9288,0.7466,14.0028,30.89,-0.5219,-0.5285,0.2165,104.2455
19:53:08:059,-2.6369,0.6365,12.6604,31.0895,-0.208,-0.5175,0.4157,104.5632
19:53:08:063,-2.4742,1.1174,9.4205,31.9278,0.3589,0.0311,0.7138,104.3616
19:53:08:082,-1.8831,1.5864,6.7358,32.855,0.5972,0.356,0.8812,103.8697
19:53:08:102,-1.1055,1.3926,5.8457,32.4849,0.3369,0.2497,0.8298,103.4459
19:53:08:123,-1.2825,1.4788,6.7478,31.3169,-0.1774,0.0555,0.6307,103.3442
19:53:08:145,-1.3974,1.261,8.5831,32.9324,-0.6124,-0.0288,0.4548,103.5042
19:53:08:164,-1.5099,1.1055,9.7484,32.7721,-0.6881,-0.0154,0.3656,103.8053
19:53:08:183,-1.2754,1.0624,9.2387,34.3806,-0.4499,0.0164,0.3448,104.0891
19:53:08:202,-0.938,1.1821,8.394,34.4474,-0.208,0.064,0.3289,104.3712
19:53:08:223,-1.139,1.5482,8.4802,35.5075,-0.186,0.0811,0.2556,104.7336
19:53:08:247,-0.8997,1.7276,8.8343,35.9368,-0.2165,0.064,0.2507,105.1088
19:53:08:264,-0.536,1.9932,8.662,35.5677,-0.0772,-0.0288,0.2972,105.4641
19:53:08:283,-0.3398,2.1894,7.9394,38.3791,0.1121,-0.1302,0.2935,105.8265
19:53:08:303,-0.2058,2.388,7.803,37.0512,0.194,-0.1131,0.2385,106.2411
19:53:08:324,-0.3015,2.6632,8.2313,37.9451,0.2038,-0.1388,0.1261,106.7904
19:53:08:347,-0.2536,2.7374,8.3414,37.9145,0.2441,-0.3941,-0.0278,107.5919
19:53:08:365,-0.4068,2.3163,7.7432,37.2207,0.3076,-0.6971,-0.2416,108.7047
19:53:08:385,-1.4333,1.4644,7.7695,36.8965,0.1561,-0.6201,-0.4285,110.0212
19:53:08:404,-1.6391,2.0267,10.7581,37.669,-0.1628,-0.3489,-0.233,111.0253
19:53:08:431,-0.8088,1.5003,10.6361,38.9728,0.2514,-0.366,0.0797,111.9192
19:53:08:447,0.0407,1.1701,10.2102,40.1211,0.3235,-0.3379,0.1115,112.6459
19:53:08:463,0.1723,1.2897,10.3274,39.0446,0.1598,-0.2267,0.0809,113.4329
19:53:08:482,0.2225,1.4189,10.7701,40.8077,-0.0662,-0.0887,-0.0156,114.235
19:53:08:503,0.6604,1.2084,11.0812,40.976,-0.2666,0.0518,-0.1048,115.155
19:53:08:525,0.8686,0.9476,11.6674,41.2049,-0.4902,0.13,-0.2502,116.2129
19:53:08:547,0.5791,0.4307,13.4213,41.8947,-0.8335,0.0457,-0.5079,117.6101
19:53:08:565,0.0024,0.0981,15.6227,42.2441,-1.0681,-0.1791,-0.6753,119.2465
19:53:08:583,-0.1579,-0.1436,15.3906,42.3672,-0.7675,-0.2108,-0.5702,120.705
19:53:08:605,-0.1627,-0.0359,12.8303,41.5058,-0.0491,0.0372,-0.2953,121.8214
19:53:08:625,0.2895,0.2417,9.6479,42.7473,0.4774,0.185,0.0492,122.4887
19:53:08:644,1.1103,0.8279,7.9083,44.3455,0.5483,0.1153,0.3375,122.8546
19:53:08:664,1.9119,1.3974,7.5829,44.056,0.3137,-0.0532,0.434,123.1707
19:53:08:683,2.7876,1.4692,7.9585,43.026,0.0657,-0.1669,0.3082,123.6768
19:53:08:705,2.8522,1.4405,8.1787,43.9595,-0.0736,-0.1644,0.0052,124.4962
19:53:08:728,1.9573,1.4788,8.0877,42.7273,-0.1078,-0.0532,-0.376,125.6635
19:53:08:742,0.9739,1.4836,7.9801,45.8755,-0.0907,0.0042,-0.635,127.0312
19:53:08:762,0.3757,1.4118,7.9848,44.3616,-0.0479,-0.0435,-0.6802,128.4825
19:53:08:782,-0.0335,1.6774,7.7384,44.9499,0.0242,-0.1339,-0.6655,129.8853
19:53:08:805,-0.0335,1.8736,7.48,44.8824,0.0816,-0.0911,-0.6435,131.2302
19:53:08:823,0.2177,2.0076,7.7097,45.1323,0.0804,0.0469,-0.5922,132.4918
19:53:08:918,0.1531,2.1248,7.59,44.056,0.0816,0.1263,-0.5568,133.6031
19:53:08:923,-0.1962,2.2875,7.6714,45.6667,0.051,0.1996,-0.5861,134.715
19:53:08:924,-1.1677,2.5268,8.8846,44.9811,-0.2251,0.4916,-0.5629,136.2529
19:53:08:924,-1.3783,2.4766,9.8225,45.9185,-0.3252,0.5356,-0.5177,137.1729
19:53:08:924,-1.6965,2.3689,10.4925,44.7783,-0.2947,0.4806,-0.4542,138.0537
19:53:08:941,-2.2636,2.3952,10.5404,47.4119,-0.1432,0.4403,-0.3442,138.8458
19:53:08:961,-2.857,2.5268,10.4064,46.7577,0.0022,0.4428,-0.1585,139.4183
19:53:08:981,-2.8833,2.6082,10.6098,45.4002,0.0718,0.3707,0.0956,139.7011
19:53:09:002,-2.0506,2.6608,10.8179,47.9796,0.1329,0.1251,0.3436,139.745
19:53:09:026,-1.4548,2.266,11.0381,46.5195,0.1598,-0.1131,0.4536,139.7966
19:53:09:047,-1.1773,1.9573,11.6937,47.3211,0.0962,-0.1925,0.4389,139.879
19:53:09:064,-1.4812,1.9765,12.2871,47.7716,0.0095,-0.0899,0.3998,139.9811
19:53:09:083,-2.4048,2.0291,12.4977,48.3337,0.0767,0.1935,0.3705,140.0256
19:53:09:102,-2.8307,1.8257,11.945,48.5524,0.2514,0.1825,0.4523,139.9883
19:53:09:124,-2.6608,1.5506,11.6818,48.6519,0.3699,-0.2059,0.5941,139.8648
19:53:09:146,-1.8473,1.6008,11.4903,48.3503,0.42,-0.5945,0.7199,139.6857
19:53:09:164,-0.8829,1.6367,9.722,48.6059,0.6264,-0.7179,0.8201,139.4568
19:53:09:183,-0.8447,1.4261,7.0947,50.2088,0.7315,-0.6922,0.7248,139.3025
19:53:09:202,-0.8351,1.5577,8.5831,50.5196,0.2575,-0.2939,0.6026,139.1938
19:53:09:226,-0.8423,1.4022,9.2483,49.5539,-0.175,-0.0422,0.4756,139.1429
19:53:09:245,-1.017,0.9236,9.0138,48.9078,-0.2275,-0.0325,0.4083,139.1697
19:53:09:264,-1.1079,0.4475,9.1932,50.213,-0.2788,0.0359,0.3387,139.2065
19:53:09:282,-1.0959,0.3805,9.344,49.5539,-0.3167,0.0103,0.3583,139.2861
19:53:09:303,-1.3232,0.615,9.6407,50.4417,-0.3509,0.1569,0.4059,139.2587
19:53:09:323,-1.3137,0.95,9.612,49.1869,-0.2336,0.4147,0.5146,139.0452
19:53:09:343,-0.804,1.5362,6.9344,50.671,0.376,0.5967,0.7895,138.5847
19:53:09:363,-0.0215,2.1033,6.1639,52.1584,0.4395,0.4623,0.8848,136.9177
19:53:09:381,0.4403,2.5938,6.0921,49.5065,0.321,0.3218,0.8286,136.345
19:53:09:404,0.6628,2.6345,6.4845,50.4112,0.1512,0.2277,0.6283,135.9546
19:53:09:425,0.2895,2.4503,7.4919,49.2004,-0.0296,0.1141,0.3729,135.9005
19:53:09:445,0.0168,2.2014,8.6094,49.2031,-0.1591,0.0079,0.1946,136.0182
19:53:09:464,-0.2297,2.0937,9.5928,48.8731,-0.2055,-0.1156,0.1078,136.2576
19:53:09:483,-0.3493,2.0746,9.9541,50.8629,-0.1676,-0.1949,0.0809,136.55
19:53:09:506,-0.2823,2.065,9.8249,49.8332,-0.0882,-0.1314,0.0993,136.8228
19:53:09:527,-0.0383,2.0506,9.7819,49.8332,-0.0748,-0.0752,0.1103,137.0443
19:53:09:544,0.2489,1.9214,9.9589,50.8599,-0.1566,-0.1216,0.0895,137.3026
19:53:09:563,0.3924,1.9454,10.4447,50.9055,-0.2641,-0.1339,0.0589,137.5893
19:53:09:582,0.8231,1.7755,10.684,51.2357,-0.3399,-0.0606,0.0211,137.9053
19:53:09:603,1.541,0.8925,10.8395,50.9316,-0.3875,-0.0044,-0.0962,138.3804
19:53:09:623,1.4716,0.3183,12.1603,49.605,-0.6087,-0.2524,-0.3687,139.2171
19:53:09:645,0.6939,-0.2536,14.0626,51.1482,-0.9349,-0.6397,-0.6594,140.3696
19:53:09:666,-0.2489,-0.3781,15.6897,50.9041,-0.9691,-0.581,-0.7254,141.5504
19:53:09:682,-0.6532,-0.2273,14.6417,50.5723,-0.4376,-0.1571,-0.5067,142.3967
19:53:09:703,-0.0335,0.0168,11.6387,50.4166,0.3247,0.1496,-0.1548,142.7842
19:53:09:722,0.8925,0.3876,8.9061,51.1109,0.7193,0.0042,0.0956,142.9266
19:53:09:744,2.3689,0.457,7.6618,49.605,0.5947,-0.2341,0.1579,143.0647
19:53:09:765,2.7805,0.4068,8.1356,49.5056,0.2465,-0.14,0.0137,143.346
19:53:09:795,2.534,0.6939,8.0471,49.3002,0.0437,-0.0129,-0.1707,143.7649
19:53:09:812,0.7466,1.1031,7.4919,51.2456,0.0461,0.0995,-0.6704,144.4453
19:53:09:824,0.0718,0.95,6.9966,49.0644,0.0645,0.1276,-0.8243,146.2389
19:53:09:843,-0.536,1.0002,6.8052,49.4926,0.0315,0.1263,-0.8647,147.312
19:53:09:862,-0.7825,1.2275,7.2526,50.2325,-0.087,0.0946,-0.7877,148.3212
19:53:09:883,-0.3996,1.4261,8.2361,49.6819,-0.1884,0.0628,-0.6411,149.1488
19:53:09:905,-0.0215,1.7898,8.9731,48.9806,-0.1921,0.0958,-0.5263,149.8647
19:53:09:925,-0.1412,2.1607,8.8199,49.2866,-0.1273,0.2314,-0.5067,150.5101
19:53:09:944,-0.5623,2.3569,8.6883,51.4269,-0.1163,0.3572,-0.5629,151.2022
19:53:09:963,-0.7872,2.3091,9.131,48.45,-0.1957,0.3841,-0.5715,151.8887
19:53:09:983,-0.9069,2.3497,10.148,50.8686,-0.2825,0.3621,-0.5067,152.505
19:53:10:005,-0.9332,2.3785,11.1314,49.7891,-0.2776,0.2644,-0.4371,153.0474
19:53:10:023,-1.206,2.4455,11.2845,49.3945,-0.1713,0.2057,-0.3735,153.5043
19:53:10:042,-1.7204,2.6919,10.8969,50.4282,-0.0369,0.3597,-0.2917,153.8475
19:53:10:063,-2.0363,2.7254,10.8323,49.4804,0.0217,0.5417,-0.1438,153.978
19:53:10:083,-2.0148,2.881,11.2343,50.3225,0.0107,0.422,0.0797,153.8851
19:53:10:106,-1.7324,2.7637,11.9067,49.9314,-0.0113,0.1459,0.2165,153.6888
19:53:10:125,-1.3424,2.2732,12.3422,50.2082,0.0632,-0.0019,0.285,153.4755
19:53:10:154,-1.4429,2.0387,11.3515,48.694,0.2233,-0.0093,0.3485,152.8518
19:53:10:175,-1.9765,2.0387,10.2006,49.7891,0.2832,0.2571,0.379,152.4314
19:53:10:186,-3.2231,0.8901,12.4594,50.0714,-0.2825,0.1544,0.3754,152.0252
19:53:10:204,-3.3308,0.414,12.9571,49.5963,-0.3619,-0.57,0.4951,151.6273
19:53:10:225,-2.4909,0.3183,11.6172,48.4044,-0.1346,-0.7508,0.7944,150.9117
19:53:10:245,-1.6152,0.2441,9.8489,50.0492,0.2673,-0.3293,1.1047,149.8092
19:53:10:263,-1.1821,0.993,7.6762,48.9201,0.5532,-0.0813,1.1793,148.5308
19:53:10:292,-0.7968,1.273,6.8315,47.6558,0.4127,-0.1974,1.0253,147.5123
19:53:10:310,-0.7298,1.072,7.3675,48.4429,0.062,-0.3587,0.7993,146.7755
19:53:10:324,-0.8614,0.5838,8.1667,48.1347,-0.1689,-0.4931,0.5855,146.2896
19:53:10:342,-1.0959,0.122,8.7864,49.6373,-0.2641,-0.5309,0.4413,145.9829
19:53:10:362,-1.1916,0.0957,9.3153,47.7255,-0.3008,-0.388,0.412,145.6866
19:53:10:384,-1.2802,0.4953,9.5498,46.8152,-0.2776,-0.1534,0.4792,145.2392
19:53:10:405,-1.2945,0.7489,8.6644,50.0496,-0.0956,0.1263,0.5611,144.6601
19:53:10:423,-1.005,0.9595,7.4106,49.1246,0.1366,0.3145,0.6405,143.9695
19:53:10:443,-0.6389,1.4381,6.4319,48.1434,0.2294,0.3255,0.7077,143.176
19:53:10:462,-0.3254,1.6965,6.2022,49.4646,0.1622,0.3475,0.6979,142.4192
19:53:10:488,-0.0694,2.0602,6.8052,47.9048,0.0327,0.3414,0.6356,141.7098
19:53:10:505,0.0072,2.3306,7.8676,49.5938,-0.0479,0.1508,0.5012,141.168
19:53:10:523,0.0359,2.2181,8.8678,48.2063,-0.0394,-0.0532,0.2996,140.8948
19:53:10:542,0.0479,2.3378,10.081,49.6207,-0.0125,-0.2206,0.0773,140.8782
19:53:10:563,0.2153,1.8257,10.7773,48.8284,0.0938,-0.5065,-0.1438,141.1654
19:53:10:583,0.067,1.3208,10.6696,50.6238,0.2148,-0.6421,-0.2746,141.6204
19:53:10:603,0.2584,0.6724,11.4568,48.9,0.1451,-0.4161,-0.2233,141.9725
19:53:10:622,0.3876,0.7442,12.5575,47.4621,-0.0601,-0.2841,-0.1133,142.2089
19:53:10:642,0.7202,0.6078,13.4189,48.4717,-0.1872,-0.2964,-0.1609,142.4811
19:53:10:662,1.0648,0.3493,13.5912,47.4621,-0.1676,-0.2573,-0.2269,142.8068
19:53:10:688,1.4261,0.2297,13.2514,47.587,-0.0308,0.0091,-0.233,143.1104
19:53:10:705,1.5242,0.1962,12.4283,47.6537,0.1414,0.2082,-0.211,143.3533
19:53:10:723,1.2514,0.2297,10.9998,48.6426,0.2306,-0.1033,-0.3161,143.6534
19:53:10:746,1.2084,0.3039,10.4064,47.5479,0.1915,-0.0899,-0.3466,144.0526
19:53:10:761,1.1151,0.3757,9.734,47.4621,0.183,0.1214,-0.3564,144.8427
19:53:10:784,1.0935,0.3517,8.997,49.1706,0.1793,0.2045,-0.3772,145.2288
19:53:10:803,0.9715,0.2369,8.4802,48.4679,0.0926,0.0824,-0.3796,145.6526
19:53:10:822,1.1964,0.4116,8.7218,48.8877,-0.1004,-0.1339,-0.3125,146.0378
19:53:10:841,1.5529,0.5599,8.9611,48.9696,-0.2923,-0.2878,-0.2196,146.3685
19:53:10:861,1.2491,0.8088,8.8223,49.1185,-0.3497,-0.1864,-0.2489,146.6755
19:53:10:884,0.6532,0.993,8.4562,48.2579,-0.2703,0.0628,-0.376,147.0861
19:53:10:903,0.2465,0.9021,7.614,48.8221,-0.1188,0.1801,-0.4297,147.5157
19:53:11:018,0.1412,1.1151,6.9248,49.6941,0.0535,0.1031,-0.365,147.8826
19:53:11:019,0.3709,1.407,6.3003,49.2675,0.1475,-0.1131,-0.2819,148.1942
19:53:11:020,0.8877,1.6152,6.2022,48.9215,0.128,-0.3,-0.2648,148.4927
19:53:11:020,1.1916,1.8138,6.4941,50.1742,-0.0027,-0.3941,-0.3357,148.8993
19:53:11:020,1.328,1.9478,7.1928,48.0642,-0.1664,-0.2927,-0.4493,149.3893
19:53:11:021,1.3328,2.0267,8.3246,49.2927,-0.3069,-0.0838,-0.5873,150.0243
19:53:11:041,1.1366,1.8736,9.4516,49.7322,-0.368,0.0604,-0.7291,150.8046
19:53:11:061,0.737,1.7803,10.282,49.442,-0.3595,0.108,-0.861,151.7134
19:53:11:081,0.524,1.4692,10.7103,47.9048,-0.3106,0.1239,-0.8671,152.6154
19:53:11:102,-0.1675,1.8688,10.9591,49.2187,-0.2471,0.2094,-0.7755,153.4005
19:53:11:121,-0.6939,2.211,11.0548,48.7746,-0.1762,0.3695,-0.6142,153.9908
19:53:11:142,-1.0816,2.2229,10.6074,48.0501,-0.1163,0.5515,-0.4212,154.3309
19:53:11:164,-1.3998,2.5699,11.5071,48.6993,-0.1884,0.83,-0.2514,154.4454
19:53:11:182,-0.6652,2.5292,12.146,48.5516,-0.1237,0.5124,0.1567,154.301
19:53:11:203,-0.4666,2.3186,12.0479,47.3418,0.029,0.1691,0.1848,153.778
19:53:11:223,-0.8519,2.2612,11.6363,49.8239,0.0914,-0.0569,0.1164,153.6237
19:53:11:242,-1.4429,1.6152,11.921,48.822,-0.0015,-0.1021,0.004,153.5831
19:53:11:264,-2.1344,0.8853,13.2658,48.5182,-0.2226,-0.0581,-0.0363,153.5775
19:53:11:284,-2.6321,0.4905,14.077,48.4562,-0.2959,-0.0691,0.0846,153.4453
19:53:11:302,-2.3139,0.5647,11.921,48.0673,-0.0369,-0.0606,0.3778,152.9606
19:53:11:321,-1.4668,0.3852,9.801,46.9101,0.3907,0.1483,0.737,152.097
19:53:11:342,-0.9811,0.95,7.4249,46.9888,0.7315,0.1593,0.9203,151.0287
19:53:11:363,-0.4259,1.4213,6.5827,47.9985,0.6436,-0.2854,0.8311,150.118
19:53:11:391,0.1268,1.3017,7.2503,47.8886,0.249,-0.6971,0.6148,149.5333
19:53:11:403,0.268,1.0576,8.0734,47.9089,-0.0565,-0.7313,0.3485,149.251
19:53:11:423,0.3517,0.5623,7.9705,47.1388,-0.1334,-0.4796,0.1335,149.149
19:53:11:441,-0.1699,0.4379,8.1045,47.1388,-0.2251,-0.1999,-0.0486,149.1971
19:53:11:462,-0.725,0.7131,9.2483,48.2263,-0.4413,-0.0557,-0.1402,149.314
19:53:11:484,-0.7131,1.0768,10.4136,48.368,-0.5146,-0.0215,-0.0718,149.3613
19:53:11:502,-0.0191,1.0863,9.9518,49.4474,-0.2153,0.0176,0.0822,149.2285
19:53:11:522,0.4116,1.517,8.7625,46.4343,0.2208,0.1385,0.1604,148.9945
19:53:11:542,0.3637,1.9717,7.3077,49.6752,0.5336,0.1105,0.1066,148.8214
19:53:11:566,0.0598,1.9884,6.0036,47.3528,0.6448,-0.1339,-0.0046,148.801
19:53:11:585,-0.3183,2.1081,5.2786,47.1388,0.5226,-0.3416,-0.1267,148.9373
19:53:11:605,-0.3589,1.7013,6.4415,47.552,0.1317,-0.2744,-0.1634,149.1131
19:53:11:624,-0.7609,1.3304,9.4899,47.7208,-0.3069,-0.0129,-0.1622,149.2766
19:53:11:648,-1.0528,1.541,10.9328,49.4837,-0.3069,0.1471,-0.0693,149.4336
19:53:11:665,-0.3661,1.1222,11.3109,49.8321,-0.1823,0.1422,0.0186,149.3401
19:53:11:683,-0.0335,0.7107,11.2941,48.3888,-0.0381,-0.0838,0.0247,149.2918
19:53:11:705,0.1675,0.4403,11.5023,46.5586,-0.0381,-0.2365,0.0137,149.2563
19:53:11:722,0.0981,0.5288,11.5502,46.7742,-0.109,-0.2829,0.0162,149.2382
19:53:11:742,0.122,0.5886,11.3133,47.9283,-0.1994,-0.2206,0.026,149.1937
19:53:11:766,1.0098,0.0646,11.5286,48.7289,-0.346,-0.096,0.0589,149.0931
19:53:11:782,1.5147,-0.6604,12.7322,46.3995,-0.5671,-0.129,-0.029,149.1334
19:53:11:804,1.3711,-1.0361,14.4431,47.6937,-0.8139,-0.3196,-0.2355,149.414
19:53:11:822,0.5384,-1.0863,15.6347,48.4773,-0.7834,-0.2964,-0.3589,149.7895
19:53:11:843,0.1149,-1.0002,14.5412,47.2748,-0.2825,0.0481,-0.2746,150.0221
19:53:11:865,0.4307,-0.9476,11.5143,46.0159,0.398,0.3035,-0.0498,150.0142
19:53:11:881,1.2395,-0.6843,9.0568,46.2336,0.7279,0.2363,0.1713,149.7777
19:53:11:900,2.2947,-0.1627,7.9681,48.0824,0.5764,-0.0251,0.2642,149.4685
19:53:11:923,2.7733,0.2249,7.6475,47.0323,0.2392,-0.173,0.1005,149.3453
19:53:11:941,2.132,0.4211,7.2981,45.8818,-0.0174,-0.0178,-0.2343,149.5544
19:53:11:962,0.7131,0.5551,7.0014,46.5614,-0.164,0.2986,-0.5544,150.0941
19:53:11:983,-0.4834,0.5097,6.7382,48.0109,-0.2275,0.4941,-0.69,150.7272
19:53:12:004,-0.9619,0.6939,6.8889,46.908,-0.2409,0.4525,-0.5971,151.2526
19:53:12:024,-0.536,1.0816,7.2263,46.3613,-0.2189,0.1557,-0.3906,151.6011
19:53:12:048,0.079,1.3687,7.2718,48.5398,-0.1346,-0.1143,-0.2171,151.7843
19:53:12:063,0.6796,1.6798,7.2957,47.269,-0.0259,-0.239,-0.1622,151.9269
19:53:12:083,0.95,2.1105,7.614,46.7303,0.0242,-0.2927,-0.3247,152.1239
19:53:12:104,0.4786,2.3306,8.2146,44.908,-0.0247,-0.2463,-0.4175,152.9277
19:53:12:121,0.3948,2.3115,8.942,45.1029,-0.065,-0.256,-0.4322,153.3491
19:53:12:142,0.6269,2.1535,9.5426,44.034,-0.0858,-0.2939,-0.4065,153.7422
19:53:12:166,0.7609,2.12,10.1623,44.2053,-0.1359,-0.2365,-0.3857,154.1296
19:53:12:181,0.5216,2.1535,10.8156,44.2053,-0.2214,-0.0361,-0.3882,154.4846
19:53:12:201,0.0335,2.0889,11.519,44.3721,-0.2825,0.2461,-0.3821,154.7999
19:53:12:222,-0.4498,2.1152,12.5791,45.1295,-0.2898,0.4073,-0.3027,155.0087
19:53:12:247,-0.6437,2.199,13.407,42.5891,-0.1725,0.2399,-0.1365,155.0573
19:53:12:261,-0.2632,1.9932,13.7037,44.908,0.0742,-0.1156,0.0638,154.9196
19:53:12:281,0.3015,1.6893,13.0816,43.8247,0.3406,-0.3831,0.2019,154.6445
19:53:12:300,-0.1268,1.4883,11.9569,41.4903,0.4909,-0.4027,0.1872,154.3912
19:53:12:320,-1.0002,1.1174,11.4592,43.1149,0.4444,-0.239,0.1347,154.1741
19:53:12:340,-1.407,0.7489,12.1149,42.3732,0.2636,-0.1473,0.1604,153.9104
19:53:12:363,-1.3113,0.2513,13.0528,41.6567,0.1317,-0.2695,0.2605,153.5693
19:53:12:382,-0.9404,-0.0072,12.6198,41.2967,0.2538,-0.3477,0.4059,153.0854
19:53:12:401,-0.5121,-0.0933,10.5691,41.6733,0.5825,-0.2341,0.5281,152.4626
19:53:12:421,-0.1364,-0.012,8.7195,40.8321,0.7291,-0.239,0.4951,151.8839
19:53:12:443,0.055,-0.0502,8.0925,41.56,0.4884,-0.2915,0.3644,151.452
19:53:12:465,-0.3326,0.0215,8.7218,41.4858,0.0657,-0.1986,0.2055,151.1856
19:53:12:484,-0.8231,0.0861,9.4277,40.298,-0.2031,0.0091,0.1249,150.9826
19:53:12:501,-0.938,0.2225,9.2052,40.5821,-0.1994,0.1606,0.153,150.7107
19:53:12:522,-0.7753,0.2943,8.1859,39.6052,-0.0443,0.2546,0.2422,150.3515
19:53:12:542,-0.2991,0.7035,6.9392,41.0934,0.073,0.3976,0.4108,149.8614
19:53:12:565,-0.3063,1.048,6.9392,38.6817,0.0425,0.3365,0.4303,148.7562
19:53:12:584,-0.2728,1.328,7.2646,39.399,0.0364,0.2644,0.445,148.1661
19:53:12:601,-0.0526,1.5745,7.0804,39.8802,0.1475,0.229,0.4951,147.5149
19:53:12:621,0.0526,1.9693,6.463,38.3281,0.2954,0.1838,0.5305,146.8275
19:53:12:643,0.4307,2.1583,6.1831,38.4872,0.2868,0.1214,0.5342,146.165
19:53:12:662,0.4594,2.2875,6.9607,40.3455,0.106,0.0445,0.4658,145.5815
19:53:12:682,0.3924,2.144,8.4897,39.3739,-0.1322,-0.0752,0.3485,145.1564
19:53:12:701,0.402,1.9071,10.3681,38.7408,-0.2715,-0.2096,0.2483,144.8582
19:53:12:721,0.5527,1.5506,11.3372,40.2882,-0.2165,-0.2988,0.1689,144.6671
19:53:12:743,0.7178,1.0026,11.531,39.8217,-0.065,-0.3391,0.1066,144.5488
19:53:12:761,0.8686,0.5551,11.5693,38.5359,-0.0113,-0.4332,0.0589,144.4975
19:53:12:782,1.0337,0.2297,11.8564,36.8891,-0.0882,-0.4992,0.0479,144.4784
19:53:12:801,1.2012,0.1316,12.0909,38.9099,-0.1884,-0.3819,0.0797,144.3969
19:53:12:825,1.5362,0.2201,11.8469,38.5917,-0.2141,-0.14,0.1249,144.2332
19:53:12:843,2.1512,-0.1316,11.7799,37.4537,-0.2202,-0.0105,0.1261,144.0514
19:53:12:864,2.5412,-0.481,12.3183,38.0616,-0.2935,-0.1607,0.0345,144.0067
19:53:12:881,2.4526,-0.9308,13.1677,38.0616,-0.3937,-0.4002,-0.1206,144.1598
19:53:12:902,2.1033,-1.0552,13.4166,38.4713,-0.3924,-0.3074,-0.2135,144.3966
19:53:12:923,1.7922,-1.1486,12.7944,38.4739,-0.2238,0.0762,-0.2013,144.562
19:53:12:942,1.8688,-1.1964,11.8038,37.2037,-0.0186,0.3511,-0.1121,144.6143
19:53:12:965,2.4383,-1.0624,10.6385,38.9099,0.1353,0.3389,0.0003,144.5477
19:53:12:983,3.0269,-0.9595,9.3655,37.1879,0.2123,0.1899,0.0247,144.4817
19:53:13:001,2.0124,-0.1292,7.6187,38.2274,0.0486,0.1447,-0.2502,144.5642
19:53:13:025,0.9404,0.2177,6.8028,40.89,0.0193,0.2681,-0.3723,144.8456
19:53:13:147,0.323,0.5288,5.994,42.8204,0.0523,0.3096,-0.4041,145.4946
19:53:13:149,0.3278,0.7561,5.4796,42.0353,0.051,0.1996,-0.3479,145.7713
19:53:13:151,0.7513,1.1127,5.7667,40.0894,-0.0284,-0.019,-0.2672,145.9908
19:53:13:154,1.1581,1.5314,6.6018,38.5579,-0.1163,-0.2267,-0.2306,146.2003
19:53:13:156,1.2084,1.9047,7.3555,39.3386,-0.1102,-0.3293,-0.2819,146.4862
19:53:13:158,1.1174,2.1727,7.7671,38.9979,-0.0113,-0.3733,-0.376,146.8591
19:53:13:171,1.048,2.5555,7.9178,38.6012,0.0535,-0.399,-0.442,147.3319
19:53:13:181,0.9643,2.6871,8.5304,37.8036,0.0095,-0.3184,-0.4957,147.8457
19:53:13:200,0.6197,2.7039,9.5354,38.5579,-0.1176,-0.1815,-0.5507,148.3989
19:53:13:221,0.0766,2.7206,10.6528,39.7126,-0.2483,-0.0435,-0.5617,148.9338
19:53:13:241,-0.335,2.6584,11.6196,39.7475,-0.313,0.1447,-0.4615,149.3243
19:53:13:263,-0.402,2.5579,12.1244,39.4492,-0.2617,0.3487,-0.2782,149.498
19:53:13:282,-0.335,2.6034,12.6461,36.5569,-0.1713,0.4452,-0.0803,149.4607
19:53:13:300,0.0885,2.5484,13.5003,38.0611,-0.0736,0.3951,0.1139,149.2397
19:53:13:324,0.4546,2.3282,14.0626,37.8773,0.1329,0.2461,0.2483,148.8952
19:53:13:343,0.3661,2.0937,13.1151,39.4559,0.475,0.0628,0.2789,148.5517
19:53:13:361,-0.0838,1.7898,11.4544,38.8964,0.7315,-0.0337,0.2397,148.2178
19:53:13:381,-0.603,1.5553,10.4088,39.7306,0.6741,-0.0056,0.2165,147.9195
19:53:13:401,-0.8159,1.2706,10.6696,40.0468,0.3956,0.1557,0.241,147.5789
19:53:13:423,-0.7346,0.9117,11.8277,38.9985,0.1084,0.2412,0.2691,147.1942
19:53:13:441,-0.6221,0.3541,12.6939,41.2166,-0.0211,0.1385,0.2972,146.8085
19:53:13:461,-0.6485,0.2513,10.1216,39.2603,0.4408,0.2571,0.4939,146.3363
19:53:13:481,-0.3326,0.5025,8.1882,39.2563,0.6191,0.2253,0.5427,145.7567
19:53:13:504,0.0479,0.792,7.657,41.2773,0.4273,0.0762,0.5293,144.4546
19:53:13:525,0.0287,1.005,8.3103,40.5653,0.1097,-0.0007,0.4389,143.9294
19:53:13:543,0.0359,0.7537,8.6357,41.8098,-0.0381,-0.0093,0.3131,143.5493
19:53:13:560,-0.012,0.6748,8.1308,41.7191,0.0132,0.0384,0.2483,143.2256
19:53:13:580,0.0502,0.7968,7.4728,43.4453,0.073,0.1044,0.2666,142.8676
19:53:13:601,0.1412,0.9858,7.3747,40.7213,0.0254,0.13,0.2984,142.4727
19:53:13:626,0.335,1.2658,7.6499,41.9736,-0.0613,0.1923,0.3192,142.0587
19:53:13:646,0.3087,1.6343,7.8341,43.7322,-0.0308,0.3242,0.3338,141.6017
19:53:13:664,0.2297,1.9238,7.547,43.3162,0.106,0.3902,0.3289,141.1261
19:53:13:682,0.1842,2.077,7.0134,42.9607,0.249,0.3646,0.3204,140.6709
19:53:13:701,-0.0742,2.4646,7.0086,43.8965,0.3027,0.2974,0.3045,140.2521
19:53:13:723,0.0311,2.5029,7.4106,46.2413,0.2624,0.1471,0.2862,139.8748
19:53:13:741,0.1244,2.333,8.0877,45.0845,0.1964,-0.0239,0.2275,139.5793
19:53:13:761,0.201,2.1655,9.1884,45.8788,0.0804,-0.1241,0.1469,139.3992
19:53:13:781,0.3254,1.9262,10.2317,44.227,-0.0162,-0.1229,0.0846,139.287
19:53:13:805,0.3996,1.6845,10.9208,45.8969,-0.0357,-0.1033,0.0296,139.2687
19:53:13:822,0.3733,1.4381,11.4903,44.8792,-0.0406,-0.1595,-0.0168,139.3033
19:53:13:843,0.5695,1.0624,11.6578,44.4836,-0.0223,-0.2328,-0.0229,139.3417
19:53:13:866,0.6604,1.0193,11.3946,47.0437,0.0303,-0.2182,-0.0058,139.3923
19:53:13:879,0.6485,1.1677,10.7438,46.774,0.0645,-0.14,0.0137,139.3958
19:53:13:902,1.1462,0.8925,10.3466,48.0686,0.0034,-0.0984,0.0406,139.3772
19:53:13:925,2.4574,-0.39,11.8708,47.8273,-0.5097,-0.3379,-0.0938,139.6003
19:53:13:943,2.0961,-0.8303,14.2636,48.1928,-0.8933,-0.4393,-0.31,140.044
19:53:13:963,1.2634,-0.9069,15.6562,47.5524,-0.9141,-0.1779,-0.4053,140.5394
19:53:13:979,0.8112,-1.048,14.6513,48.5695,-0.4095,0.2363,-0.3137,140.8592
19:53:14:000,1.0672,-0.8973,12.3326,48.4356,0.1793,0.2644,-0.1341,140.9703
19:53:14:020,2.0267,-0.7489,10.2772,48.0686,0.4579,0.0152,0.0406,140.9747
19:53:14:041,2.5747,-0.3996,9.0497,47.5481,0.3992,-0.1302,0.0626,140.9628
19:53:14:060,2.2516,0.067,8.1452,50.5189,0.2148,0.0017,-0.0815,141.0887
19:53:14:080,1.273,0.4857,7.3531,48.6878,0.0828,0.2717,-0.2807,141.3602
19:53:14:105,0.4259,0.7849,6.7143,51.1137,0.0327,0.4195,-0.4114,141.737
19:53:14:123,0.1819,0.9523,6.0754,49.7505,0.0205,0.4,-0.4273,142.1415
19:53:14:142,0.2297,1.4548,6.006,50.6523,-0.0394,0.2962,-0.3845,142.5122
19:53:14:160,0.3757,2.0889,6.6879,49.9809,-0.1334,0.2033,-0.3466,142.853
19:53:14:180,0.5767,2.4191,7.3508,50.8115,-0.1554,0.1263,-0.3503,143.1973
19:53:14:201,0.8806,2.5531,7.6235,49.5263,-0.0711,0.0677,-0.4004,143.6277
19:53:14:222,0.7609,2.6369,7.5733,50.2187,0.0205,0.0665,-0.5067,144.159
19:53:14:242,0.122,2.8522,8.0279,49.4819,0.0132,0.1202,-0.6203,144.7998
19:53:14:260,-0.2249,2.8594,8.9157,50.7333,-0.0553,0.1288,-0.6582,145.4777
19:53:14:280,-0.2943,2.8259,9.5904,51.0913,-0.0723,0.0591,-0.6203,146.1286
19:53:14:304,-0.3733,2.6895,9.8297,51.5097,-0.0504,0.0201,-0.5653,146.7131
19:53:14:321,-0.6365,2.546,10.3992,52.1264,-0.0723,0.1153,-0.5067,147.2315
19:53:14:343,-0.9739,2.5292,11.0166,51.7221,-0.1017,0.2876,-0.3894,147.6035
19:53:14:360,-1.2467,2.4885,11.7823,52.9627,-0.0516,0.4257,-0.2135,147.7533
19:53:14:381,-0.95,2.3665,12.4187,53.1774,0.2208,0.1948,0.1542,147.4899
19:53:14:401,-0.4451,2.2804,11.9545,53.3728,0.3675,0.1764,0.2691,147.1663
19:53:14:419,-0.7059,2.2516,11.2798,53.8164,0.4762,0.2717,0.2495,146.8528
19:53:14:439,-1.0935,2.1416,10.3633,52.2583,0.4884,0.3267,0.1787,146.5969
19:53:14:460,-1.5649,2.0865,10.1767,52.4763,0.3467,0.3267,0.1176,146.4157
19:53:14:480,-2.1248,1.5266,11.0716,53.3879,0.0498,0.1911,0.026,146.3275
19:53:14:502,-2.3545,0.8159,12.2895,54.3414,-0.2031,-0.0264,0.0174,146.3235
19:53:14:521,-2.2516,0.5073,12.6508,53.0463,-0.1933,-0.1473,0.153,146.184
19:53:14:541,-1.7396,0.4187,11.7129,53.7594,0.0523,-0.1546,0.3314,145.8589
19:53:14:561,-1.2802,0.6006,10.3849,53.2416,0.2477,-0.2084,0.4145,145.487
19:53:14:581,-0.8853,0.6987,9.5402,54.4933,0.2526,-0.2035,0.4169,145.0968
19:53:14:601,-0.7896,0.7753,8.9444,53.8907,0.1903,-0.0642,0.379,144.7421
19:53:14:621,-0.8734,0.938,8.2122,54.4828,0.1976,0.0982,0.3375,144.3975
19:53:14:640,-0.9069,1.151,7.0899,55.0255,0.2856,0.1715,0.3436,144.001
19:53:14:660,-0.6174,1.2802,5.9725,56.0985,0.3613,0.2045,0.3827,143.5592
19:53:14:682,-0.1699,1.3591,5.1015,55.5992,0.3198,0.2167,0.4023,143.1096
19:53:14:701,-0.122,1.5242,5.1685,53.9964,0.1036,0.1667,0.3692,142.7065
19:53:14:720,-0.1101,1.9334,6.451,53.6718,-0.2238,0.0481,0.3351,142.3707
19:53:14:740,0.1149,1.9645,7.6499,54.8406,-0.39,0.0005,0.3314,142.073
19:53:14:761,-0.213,2.2588,8.2313,54.2271,-0.302,0.0091,0.274,141.8051
19:53:14:786,-0.4259,2.2014,7.9537,55.1625,-0.0809,0.0286,0.2141,141.5985
19:53:14:801,-0.6604,2.1416,7.5709,53.8906,0.084,0.0396,0.1762,141.4303
19:53:14:819,-0.7849,2.2038,8.2457,52.2343,0.029,-0.0545,0.1628,141.3045
19:53:14:840,-0.5767,1.9214,10.136,53.3364,-0.1395,-0.0972,0.1457,141.2061
19:53:14:860,-0.4211,1.6989,10.8108,52.7919,-0.1237,-0.0789,0.0993,141.068
19:53:14:884,0.0526,1.3161,11.7464,51.6972,-0.1127,-0.1766,0.0589,141.115
19:53:14:902,0.213,1.0193,12.2656,53.0162,-0.0699,-0.3379,0.0174,141.2665
19:53:14:919,0.2656,1.0193,11.8062,55.1037,0.0193,-0.4271,0.0064,141.4452
19:53:14:939,0.5791,1.127,11.4305,56.0622,0.0083,-0.3721,0.0443,141.5709
19:53:14:960,1.5123,1.06,11.6698,53.7515,-0.1346,-0.2622,0.1029,141.6245
19:53:14:982,2.7374,0.7059,12.2058,52.8469,-0.2422,-0.2023,0.0907,141.7433
19:53:15:001,3.1322,0.4666,12.4211,53.8248,-0.2519,-0.3171,-0.1035,142.0897
19:53:15:024,1.943,-0.1436,12.3039,55.214,-0.2495,-0.3953,-0.4749,142.8223
19:53:15:045,0.3661,-0.5671,12.0407,54.4088,-0.2971,-0.1082,-0.7058,143.7314
19:53:15:059,0.0072,-0.7801,11.7966,52.952,-0.291,0.3548,-0.6032,144.4518
19:53:15:081,0.5049,-0.6437,10.9376,53.0779,-0.1957,0.4843,-0.3784,144.8987
19:53:15:100,1.127,-0.6652,10.258,52.5772,-0.1444,0.2974,-0.2709,145.2849
19:53:15:122,1.1844,-0.6126,9.6407,53.0312,-0.1847,0.1117,-0.2794,145.7056
19:53:15:141,0.5934,-0.1484,9.0832,55.0023,-0.2275,0.0787,-0.3247,146.1359
19:53:15:286,0.2441,0.3087,8.5543,53.1285,-0.2153,0.075,-0.2966,146.5211
19:53:15:286,0.4355,0.6269,7.7934,54.3972,-0.12,0.0335,-0.1976,146.7932
19:53:15:287,0.5432,1.0983,6.8052,54.3972,0.0119,-0.0105,-0.128,147.0001
19:53:15:288,0.7633,1.5529,6.2333,52.3592,0.0694,-0.041,-0.1182,147.1959
19:53:15:289,1.0696,1.8664,5.9366,50.998,0.0742,-0.0679,-0.139,147.4182
19:53:15:289,1.34,2.1081,6.0802,52.1612,0.0278,-0.1156,-0.2257,147.7949
19:53:15:290,1.1988,2.3091,6.6951,49.689,-0.0589,-0.1473,-0.3796,148.3206
19:53:15:304,0.0024,2.5531,8.5735,51.4749,-0.1176,-0.2084,-0.646,149.7233
19:53:15:322,-0.4355,2.534,9.3583,49.5091,-0.0699,-0.3941,-0.6472,150.5372
19:53:15:346,-0.4307,2.5196,10.0092,50.5215,-0.0381,-0.6079,-0.547,151.2673
19:53:15:365,-0.4427,2.8259,10.7725,51.0079,-0.0736,-0.6947,-0.387,151.8279
19:53:15:384,-0.3517,2.9982,11.3324,49.3116,-0.0956,-0.421,-0.1927,152.145
19:53:15:402,-0.1651,2.9073,11.8158,50.767,-0.0528,0.0934,0.0247,152.1428
19:53:15:420,0.5001,2.5699,12.0407,50.0815,0.0449,0.4477,0.2837,151.8359
19:53:15:440,0.8686,2.7326,12.3829,49.1818,0.1683,0.4489,0.4584,151.3536
19:53:15:460,1.4118,2.4622,12.524,51.7167,0.2978,0.2241,0.4878,150.883
19:53:15:480,0.9763,2.2564,12.2369,49.1331,0.4163,-0.0068,0.3632,150.573
19:53:15:499,-0.0909,1.9334,11.7918,48.4999,0.4395,-0.184,0.1494,150.5077
19:53:15:520,-1.1151,1.5601,11.6842,49.4706,0.376,-0.2145,0.0211,150.5732
19:53:15:539,-1.9214,1.2873,11.7009,48.68,0.3003,-0.0984,0.0443,150.584
19:53:15:560,-2.2229,1.2227,11.5047,48.1068,0.3015,0.0091,0.1921,150.3949
19:53:15:584,-2.0411,1.4453,10.6792,48.6219,0.4078,0.0213,0.3937,149.9891
19:53:15:600,-1.2969,1.3376,9.2961,47.7871,0.5788,0.0335,0.5342,149.4556
19:53:15:620,-0.5073,1.2084,7.5685,48.0285,0.6155,-0.074,0.5061,148.9764
19:53:15:639,-0.1842,1.1055,7.4321,45.8281,0.2538,-0.355,0.2752,148.8382
19:53:15:661,-0.1412,0.6724,9.3057,45.5776,-0.3949,-0.4601,-0.007,149.0145
19:53:15:686,-0.5719,0.4451,11.2199,48.3626,-0.8176,-0.1962,-0.1951,149.3438
19:53:15:702,-1.1222,0.2776,11.7583,46.0262,-0.7443,0.1483,-0.2648,149.6599
19:53:15:720,-1.1438,0.2201,10.8682,46.7109,-0.3265,0.3426,-0.1585,149.8177
19:53:15:740,-0.6652,0.3924,9.0066,48.7372,0.1243,0.4122,0.0822,149.7267
19:53:15:762,0.0766,1.328,7.0923,44.6243,0.321,0.422,0.3436,149.4313
19:53:15:785,0.0598,1.7515,7.2455,47.7408,0.2318,0.3463,0.346,148.6096
19:53:15:804,0.189,2.0315,7.1019,46.2728,0.2477,0.2668,0.3436,148.2456
19:53:15:820,0.2106,2.4191,6.4774,45.7208,0.3613,0.2277,0.3338,147.8884
19:53:15:838,0.2345,2.6752,5.8433,48.4999,0.4041,0.185,0.2886,147.5845
19:53:15:859,0.2584,2.7781,6.1256,48.2983,0.2441,0.1373,0.2043,147.3939
19:53:15:880,0.1962,2.5819,7.5159,47.1959,-0.0308,0.0946,0.1078,147.3046
19:53:15:900,-0.055,2.4885,9.2363,47.519,-0.2397,-0.0093,-0.0009,147.3606
19:53:15:920,-0.1531,2.2134,10.7222,46.3564,-0.3106,-0.162,-0.0913,147.5652
19:53:15:939,-0.1364,1.7013,11.7727,47.7375,-0.2739,-0.2316,-0.1219,147.8073
19:53:15:961,0.0885,1.1462,12.5336,47.9581,-0.2092,-0.2463,-0.1011,148.0547
19:53:15:980,0.3087,0.8519,12.6987,48.0955,-0.1322,-0.2524,-0.0241,148.2162
19:53:16:000,0.7035,1.1127,12.2106,46.4343,-0.054,-0.2426,0.076,148.267
19:53:16:020,1.5075,1.0504,11.7607,46.3802,-0.0565,-0.1962,0.1139,148.3011
19:53:16:041,2.2038,0.2584,11.5238,46.6055,-0.2092,-0.1656,0.0076,148.4723
19:53:16:059,1.9454,-0.3374,13.0265,46.8113,-0.5977,-0.3257,-0.2404,148.9286
19:53:16:081,1.2802,-0.5838,15.2997,47.0007,-1.0204,-0.4833,-0.4261,149.59
19:53:16:100,0.5671,-0.9739,16.343,47.5714,-0.9385,-0.2047,-0.4102,150.1692
19:53:16:119,0.6461,-1.2538,14.4766,46.8113,-0.2556,0.2913,-0.1634,150.4229
19:53:16:141,1.2371,-0.9763,11.3779,48.8793,0.4774,0.444,0.1567,150.3232
19:53:16:164,1.9669,-0.3781,9.5569,47.7401,0.7499,0.1447,0.3741,150.0328
19:53:16:181,2.7876,0.0526,9.0544,49.1091,0.6314,-0.333,0.3937,149.7799
19:53:16:201,2.991,0.3111,8.1476,49.1091,0.53,-0.5798,0.197,149.7964
19:53:16:220,0.6006,0.9188,5.3934,47.5852,0.3956,-0.14,-0.4273,150.1391
19:53:16:239,-0.4307,1.2969,5.0058,47.5852,0.1769,0.1984,-0.5116,151.1983
19:53:16:261,-0.6604,1.6917,5.2546,47.5852,-0.043,0.3707,-0.4187,151.6097
19:53:16:282,-0.3589,2.1009,5.9964,47.5852,-0.2067,0.3426,-0.2611,151.8548
19:53:16:300,0.2919,2.3115,6.9535,50.5321,-0.2434,0.2143,-0.15,152.0189
19:53:16:319,0.7202,2.5962,7.7216,50.0968,-0.1346,0.0628,-0.1377,152.2084
19:53:16:340,0.8375,2.8163,7.9585,49.9194,0.0718,-0.0545,-0.2135,152.5075
19:53:16:359,0.5432,2.9001,7.7216,48.8845,0.2367,-0.1571,-0.3137,152.9371
19:53:16:380,0.1531,3.0078,7.5015,50.137,0.2538,-0.2047,-0.3625,153.4089
19:53:16:402,0.1747,2.9432,7.7049,50.3886,0.1231,-0.1302,-0.3332,153.8156
19:53:16:419,0.1627,2.8857,8.6429,49.9194,-0.0894,0.0469,-0.277,154.1487
19:53:16:439,-0.0455,2.9073,9.6239,51.4313,-0.2898,0.2558,-0.2171,154.374
19:53:16:465,-0.3876,2.9719,10.6002,50.8359,-0.412,0.4586,-0.1304,154.4608
19:53:16:488,-0.5312,2.8379,11.9091,49.2162,-0.4401,0.5906,-0.018,154.4432
19:53:16:497,-0.5862,2.5699,13.3472,51.1298,-0.3277,0.5686,0.1164,154.3134
19:53:16:518,-0.5025,2.3426,13.8975,49.8517,-0.0198,0.3866,0.241,154.0936
19:53:16:539,-0.7107,2.3378,13.1868,50.2793,0.3919,0.174,0.3253,153.7696
19:53:16:558,-1.0504,2.1918,11.6913,51.2537,0.712,-0.0325,0.3546,153.434
19:53:16:579,-1.1653,2.1152,10.5308,52.1774,0.7535,-0.2047,0.3754,153.0913
19:53:16:599,-0.9069,1.8568,11.0524,52.5631,0.4432,-0.3135,0.4096,152.771
19:53:16:620,-0.5791,1.395,12.7274,51.4226,-0.0149,-0.3013,0.4279,152.4581
19:53:16:645,-0.938,1.1797,13.6439,52.2862,-0.1713,-0.0789,0.4609,152.0509
19:53:16:661,-1.0887,1.2084,12.0574,52.8441,0.1732,0.1752,0.5721,151.4463
19:53:16:682,0.0885,1.3998,7.5733,52.9262,0.7132,-0.074,0.7016,150.7205
19:53:16:700,0.2847,1.5099,7.7527,54.529,0.3271,-0.289,0.555,149.5697
19:53:16:720,0.0933,1.2132,9.009,53.1719,-0.1652,-0.2585,0.3253,149.3763
19:53:16:741,-0.4379,1.0696,9.5809,54.2727,-0.3875,-0.0166,0.1726,149.2711
19:53:16:764,-0.8853,1.0887,9.2507,53.9887,-0.3265,0.2094,0.142,149.1321
19:53:16:782,-0.7298,1.084,8.394,54.5829,-0.1444,0.334,0.2165,148.9007
19:53:16:799,-0.4738,1.2706,7.389,55.4169,0.0205,0.3487,0.3033,148.5752
19:53:16:819,-0.3613,1.6271,6.7573,53.2689,0.0901,0.2937,0.3522,148.1813
19:53:16:840,-0.2201,1.9047,6.5324,55.5336,0.1024,0.2595,0.3961,147.7523
19:53:16:860,-0.1101,2.2062,6.5515,54.4408,0.1256,0.2412,0.4181,147.3209
19:53:16:879,0.0239,2.3976,6.329,57.3863,0.1879,0.2033,0.4169,146.9014
19:53:16:898,-0.2249,2.6967,6.1208,55.3582,0.2196,0.1227,0.3766,146.5331
19:53:16:920,-0.2584,2.6082,6.5731,57.0371,0.1402,-0.0215,0.3253,146.2571
19:53:16:940,-0.213,2.6536,7.2335,54.5011,-0.0039,-0.0911,0.2923,146.0248
19:53:16:959,-0.1244,2.6441,8.3844,55.4529,-0.1542,-0.0105,0.2617,145.8183
19:53:16:980,-0.079,2.5053,9.8369,56.1176,-0.2849,0.0249,0.1848,145.7013
19:53:16:998,-0.0861,2.2636,11.2511,57.818,-0.3301,-0.0031,0.1017,145.6852
19:53:17:018,0.0096,2.0195,12.4475,58.0722,-0.2703,-0.1363,0.0638,145.7424
19:53:17:039,0.3326,1.584,13.0002,57.3863,-0.1212,-0.3745,0.0418,145.9171
19:53:17:060,0.7849,1.0361,12.9093,56.9299,0.0437,-0.5835,0.0247,146.1875
19:53:17:081,1.0816,0.7609,12.4499,59.3696,0.106,-0.5651,0.0247,146.4603
19:53:17:099,1.0146,1.0863,12.0191,57.4594,0.029,-0.2365,0.0528,146.6271
19:53:17:119,1.1653,1.1916,11.8397,57.8935,-0.1017,0.1606,0.0895,146.6631
19:53:17:145,1.919,0.7729,12.146,59.3696,-0.3448,0.0909,-0.0596,146.844
19:53:17:164,1.5338,0.536,12.4953,58.412,-0.4132,0.0286,-0.2123,147.2656
19:53:17:181,1.1438,0.4618,11.72,58.311,-0.2556,0.2094,-0.2502,147.6775
19:53:17:198,0.9236,0.4522,10.404,58.8359,-0.0296,0.2693,-0.2245,148.0447
19:53:17:221,1.1414,0.5815,9.6503,59.6304,0.0095,0.1276,-0.1512,148.3568
19:53:17:241,1.5649,0.5025,9.7005,60.2248,-0.1334,-0.0813,-0.0986,148.6834
19:53:17:259,2.3067,0.2919,9.9446,60.8761,-0.2678,-0.118,-0.0852,149.0187
19:53:17:280,2.3617,0.469,9.6335,61.7194,-0.2471,0.0518,-0.1475,149.3837
19:53:17:420,1.5697,0.8614,8.9133,60.884,-0.1151,0.2363,-0.3015,149.8259
19:53:17:423,0.6939,1.1246,7.992,61.385,0.051,0.2778,-0.4126,150.3317
19:53:17:424,0.1172,1.5147,7.1019,61.1787,0.1976,0.1972,-0.4224,150.8566
19:53:17:424,0.122,1.8233,6.4056,59.2133,0.3015,0.0738,-0.3601,151.3338
19:53:17:425,0.5145,2.0698,6.0179,58.2228,0.3565,-0.0557,-0.3015,151.7755
19:53:17:425,0.8662,2.3019,5.7595,59.0834,0.3491,-0.1473,-0.3112,152.2435
19:53:17:426,0.9332,2.656,6.0538,59.9959,0.2514,-0.1363,-0.3906,152.8441
19:53:17:440,0.7609,2.9312,6.8961,59.4976,0.0975,-0.0422,-0.4859,153.5206
19:53:17:460,0.2273,2.9575,7.7384,58.5726,-0.0125,0.0799,-0.5702,154.2436
19:53:17:479,-0.28,3.0844,8.7123,58.8901,-0.0833,0.1007,-0.5886,154.9495
19:53:17:499,-0.3493,2.9623,9.7675,58.0074,-0.131,0.0091,-0.5153,155.6237
19:53:17:518,-0.2943,2.8546,10.5212,59.8074,-0.1127,-0.0471,-0.4151,156.1836
19:53:17:540,-0.6867,2.9719,11.0381,59.8074,-0.0711,0.0262,-0.2966,156.609
19:53:17:560,-1.1342,3.2207,11.464,60.2419,-0.0369,0.2033,-0.1121,156.778
19:53:17:580,-0.0909,3.2614,12.8973,59.3076,0.0901,0.3218,0.3754,156.1857
19:53:17:600,0.7681,3.1202,13.0361,58.7821,0.2868,0.1948,0.4633,155.8139
19:53:17:626,0.7585,2.8522,12.134,61.1831,0.5446,0.0848,0.3839,155.5592
19:53:17:645,-0.0239,2.814,11.05,59.3891,0.6839,0.0408,0.2312,155.4592
19:53:17:660,-0.6724,2.6082,10.4806,60.196,0.624,-0.0508,0.1286,155.433
19:53:17:678,-0.6317,2.1105,10.7055,61.1564,0.3968,-0.1742,0.0895,155.5493
19:53:17:698,-0.7035,1.5338,11.4449,61.2699,0.0865,-0.2133,0.0785,155.686
19:53:17:721,-1.4405,1.6056,11.878,60.239,-0.1066,-0.1253,0.1103,155.7321
19:53:17:738,-1.6439,1.608,10.5428,60.3079,0.0767,0.1508,0.2507,155.5466
19:53:17:758,-1.4907,1.6869,8.4275,60.8069,0.4298,0.2497,0.3827,155.1747
19:53:17:778,-0.9858,2.0315,6.9176,60.8455,0.4921,0.0298,0.434,154.8158
19:53:17:799,-0.2082,2.0794,6.865,60.4467,0.1915,-0.1937,0.3937,154.6138
19:53:17:819,-0.1125,1.9525,7.7982,58.0827,-0.1994,-0.2169,0.1994,154.6102
19:53:17:844,-0.6078,1.6128,8.5615,59.9903,-0.4437,-0.0764,-0.0437,154.8141
19:53:17:866,-1.1725,1.5793,9.1478,60.4011,-0.4706,0.1068,-0.1609,155.0694
19:53:17:879,-1.1892,1.3902,8.7769,58.9958,-0.3082,0.2192,-0.1353,155.2886
19:53:17:898,-1.1151,1.474,7.8939,60.3056,-0.0748,0.3096,-0.0363,155.3746
19:53:17:920,-0.8782,1.7563,7.4632,60.0883,0.0107,0.3023,0.0895,155.3519
19:53:17:939,-0.2513,2.2349,7.7623,59.4844,-0.0308,0.2057,0.197,155.2469
19:53:17:959,-0.134,2.7589,8.1595,59.4731,-0.0516,0.1276,0.1872,155.1888
19:53:17:979,-0.5862,3.0173,8.1667,61.0134,0.0119,0.097,0.0626,155.2229
19:53:18:000,-1.0289,3.1442,8.2146,60.9528,0.062,0.0567,-0.0681,155.366
19:53:18:020,-1.1629,3.2279,8.6572,61.9708,0.0229,-0.0899,-0.1609,155.6661
19:53:18:040,-0.6939,2.7948,10.3729,60.8199,-0.0699,-0.3354,-0.2428,156.0953
19:53:18:061,-0.8016,2.7613,12.0431,61.3608,-0.0589,-0.4063,-0.2575,156.9414
19:53:18:078,-0.3757,2.1894,13.2251,60.5182,0.0779,-0.5248,-0.2611,157.518
19:53:18:098,0.1292,1.6965,13.8544,61.0453,0.2612,-0.6213,-0.2526,158.1295
19:53:18:121,0.536,1.5529,14.1129,60.4604,0.3406,-0.5578,-0.2281,158.7166
19:53:18:139,0.6317,1.4022,13.462,62.1952,0.4603,-0.1583,-0.1316,159.1128
19:53:18:162,0.8949,1.6176,11.8684,61.1529,0.6815,0.2534,0.0333,159.2274
19:53:18:182,1.4668,1.8066,9.9972,60.9519,0.828,0.3572,0.1677,159.1627
19:53:18:197,2.0674,1.8497,8.9204,60.8749,0.7266,0.2534,0.1701,159.1266
19:53:18:219,1.8736,1.5936,9.3296,59.1153,0.3333,0.0689,-0.0241,159.3536
19:53:18:240,0.7609,1.3591,10.5978,59.5525,-0.0809,0.1044,-0.2599,159.7869
19:53:18:259,-0.5767,1.0313,10.148,60.5557,-0.1456,0.4464,-0.2905,160.0872
19:53:18:278,-0.0718,1.2921,10.1743,61.0916,-0.0235,0.8288,-0.0302,160.0376
19:53:18:298,1.3807,1.4812,9.6503,61.1122,0.1268,0.5136,0.3509,159.7402
19:53:18:320,1.651,1.864,8.6548,58.6217,0.2025,-0.0337,0.3131,159.6428
19:53:18:340,1.3137,1.6391,8.4132,60.166,0.0461,-0.2243,-0.0156,159.9588
19:53:18:357,0.8806,1.3519,8.3318,58.7972,-0.1933,-0.1461,-0.2709,160.4852
19:53:18:377,0.658,1.3902,8.193,61.6488,-0.2703,0.0787,-0.3857,161.0795
19:53:18:399,0.1388,1.8879,7.5182,62.0136,-0.1835,0.3707,-0.4053,161.5552
19:53:18:420,-0.2273,2.4359,7.267,60.6836,-0.1139,0.499,-0.3112,161.8881
19:53:18:440,-0.6245,2.6441,7.121,61.3291,-0.0687,0.2986,-0.2379,162.1722
19:53:18:458,-0.6867,2.9288,7.0612,60.3685,0.0327,-0.0679,-0.255,162.5903
19:53:18:478,-0.3541,2.9719,6.8387,61.4675,0.1317,-0.421,-0.2379,163.0942
19:53:18:502,-0.1747,3.5079,7.413,59.9621,0.073,-0.107,-0.1438,163.5269
19:53:18:523,0.0359,3.4768,8.059,61.632,-0.0748,0.0359,-0.1194,163.9478
19:53:18:545,-0.2058,3.4457,8.7649,60.3818,-0.1212,0.1056,-0.1365,164.1965
19:53:18:558,-0.3015,3.4481,9.1047,62.6069,-0.0577,0.0384,-0.1891,164.518
19:53:18:580,-0.2943,3.2495,9.2171,62.4068,0.0315,-0.0569,-0.1829,164.8773
19:53:18:605,-0.6867,3.5366,9.2602,60.9288,0.0681,0.0225,-0.1304,165.11
19:53:18:631,-1.1844,4.0056,9.5522,61.8254,-0.0039,0.2229,-0.0217,165.1546
19:53:18:643,-0.8423,3.9242,10.3059,61.499,-0.142,0.3646,0.0895,165.0632
19:53:18:657,-0.0263,3.661,11.1506,61.8955,-0.2018,0.2681,0.1616,164.9655
19:53:18:677,0.4403,3.5031,11.6459,62.02,-0.1371,0.1117,0.1787,164.9184
19:53:18:698,0.2943,3.2901,11.3922,62.5889,-0.0015,0.1691,0.1689,164.8481
19:53:18:718,-0.7274,3.5533,10.6098,62.6069,0.1133,0.4342,0.1469,164.6859
19:53:18:748,-1.9597,3.6203,9.7938,61.9538,0.084,0.67,0.1164,164.4377
19:53:18:758,-2.6154,3.1609,9.6718,62.0765,-0.076,0.615,0.0357,164.2798
19:53:18:778,-2.4144,1.6845,10.5332,61.5577,-0.3204,0.1984,-0.1206,164.439
19:53:18:800,-2.6536,1.0193,11.2128,62.1468,-0.5293,-0.3636,-0.2734,164.9304
19:53:18:820,-3.4887,1.5386,11.4042,61.1957,-0.5293,-0.5358,-0.2001,165.3175
19:53:18:838,-3.0963,1.4788,10.9998,62.4537,-0.3374,-0.2768,0.2043,165.2111
19:53:18:860,-2.321,1.5793,10.2509,62.5811,-0.0931,-0.107,0.5989,164.6606
19:53:18:878,-1.3256,1.8903,9.6455,61.2155,0.0706,-0.1681,0.7077,164.0546
19:53:18:904,-0.4714,1.8616,8.863,63.8186,0.0999,-0.1889,0.6075,163.5987
19:53:18:919,-0.2632,1.7444,7.9394,62.6684,0.051,-0.0178,0.4426,163.2486
19:53:18:937,-0.2608,1.7348,7.2694,63.498,-0.0211,0.1874,0.3326,162.9753
19:53:18:958,-0.8519,1.7372,6.9464,63.4972,-0.1591,0.1239,0.2068,162.7228
19:53:18:978,-1.3113,2.0004,7.2287,64.4561,-0.2165,-0.1094,0.0858,162.4562
19:53:19:001,-1.2467,1.9525,7.468,62.4418,-0.2507,-0.1913,0.0944,162.4833
19:53:19:019,-1.2514,2.0219,7.9346,64.5724,-0.2385,-0.0691,0.2349,162.3796
19:53:19:038,-1.1797,2.4646,8.2816,64.4727,-0.1847,0.0665,0.4303,162.0048
19:53:19:057,-0.7992,2.5125,8.4873,64.4927,-0.0968,0.0726,0.5611,161.482
19:53:19:077,-0.6269,2.5531,8.5663,64.8741,0.0156,-0.0117,0.5183,161.0285
19:53:19:102,-0.4905,2.5914,8.6309,62.9281,0.0975,-0.1473,0.401,160.7254
19:53:19:118,-0.4427,2.6273,9.3512,63.149,0.0681,-0.2414,0.3143,160.5515
19:53:19:138,-0.4283,2.6656,10.0881,65.0101,-0.0064,-0.2438,0.2556,160.4545
19:53:19:157,-0.1627,2.857,10.8993,64.3864,0.0168,-0.1949,0.1909,160.444
19:53:19:179,0.5049,2.5627,11.0692,62.6817,0.1463,-0.3293,0.0418,160.6449
19:53:19:201,1.1486,2.3665,10.9998,63.8563,0.2832,-0.6079,-0.1842,161.1634
19:53:19:220,1.1629,1.998,10.861,64.4487,0.3039,-0.8425,-0.4517,162.006
19:53:19:238,0.4642,1.9908,10.6289,64.3769,0.2025,-0.7667,-0.679,163.0766
19:53:19:257,-0.079,1.9789,10.9472,64.5507,0.0009,-0.4039,-0.6399,163.9976
19:53:19:281,0.1747,1.5697,11.3731,63.7207,-0.2275,-0.0752,-0.3357,164.5001
19:53:19:300,0.3446,1.2323,11.8636,64.0181,-0.4059,0.0249,-0.0571,164.6871
19:53:19:318,0.7753,1.0217,12.804,64.6746,-0.5757,0.0213,0.0064,164.8224
19:53:19:338,1.5266,0.9069,13.4405,65.438,-0.7101,-0.0911,-0.0022,165.0254
19:53:19:357,2.1823,0.8351,13.1127,64.7574,-0.6331,-0.0948,0.0589,165.1744
19:53:19:383,2.3785,0.6461,11.9498,66.2676,-0.3082,0.1789,0.1188,165.2199
19:53:19:399,2.0435,0.7035,10.8227,65.2514,0.0804,0.444,0.153,165.1572
19:53:19:528,1.5362,1.0217,8.3175,66.8326,0.3296,0.2106,-0.0034,165.1313
19:53:19:529,1.151,1.3185,7.6451,66.3241,0.1769,0.2766,-0.1194,165.3013
19:53:19:530,0.7849,1.5912,7.1809,65.8311,0.0144,0.3695,-0.1316,165.4598
19:53:19:531,0.3996,1.9334,7.0756,64.9217,-0.043,0.3621,-0.0962,165.568
19:53:19:532,0.5097,2.0578,6.9081,65.184,-0.0162,0.1715,-0.0828,165.6951
19:53:19:533,0.7155,2.1823,6.9751,65.0567,0.0523,0.0298,-0.1182,165.9342
19:53:19:549,0.5575,2.4598,7.346,64.1016,0.0828,0.0359,-0.1707,166.2162
19:53:19:556,0.5647,2.4909,7.6427,64.4727,0.0767,0.1263,-0.1719,166.4764
19:53:19:577,0.5575,2.6106,7.7815,63.8391,0.0926,0.2449,-0.1671,166.7138
19:53:19:597,0.2058,2.8714,7.815,63.6288,0.1256,0.3096,-0.1988,166.9474
19:53:19:621,-0.1292,3.0676,7.882,63.9277,0.1414,0.3377,-0.233,167.2042
19:53:19:638,-0.1866,3.1154,8.2122,65.8083,0.1451,0.2949,-0.2502,167.4803
19:53:19:658,0,3.0365,8.5639,65.6061,0.1317,0.2229,-0.2599,167.8182
19:53:19:681,-0.2393,3.0724,9.0209,65.9931,0.0877,0.2143,-0.2831,168.3031
19:53:19:701,-0.8997,3.4481,9.3559,65.5288,0.0229,0.2619,-0.2672,168.717
19:53:19:719,-1.1964,3.8213,9.5402,65.2692,-0.0064,0.4293,-0.1438,168.8908
19:53:19:737,-1.017,3.8309,9.7986,65.1181,-0.0186,0.6224,0.0089,168.8712
19:53:19:756,-0.5599,3.7974,10.5524,65.1457,-0.098,0.6773,0.0773,168.6929
19:53:19:778,-0.3087,3.6873,11.4521,64.1796,-0.1676,0.626,0.0748,168.5601
19:53:19:800,-0.5504,3.2782,11.519,65.8183,-0.0882,0.4635,-0.007,168.5443
19:53:19:818,-1.5553,3.3212,11.3348,65.6885,0.0718,0.3328,-0.1438,168.6708
19:53:19:838,-2.1512,3.2877,11.0357,65.3095,0.1952,0.1972,-0.2013,168.87
19:53:19:858,-2.2445,1.8425,11.3061,64.6312,0.2038,0.0311,-0.233,169.1625
19:53:19:881,-2.9767,1.1342,13.7946,66.285,-0.3668,-0.5468,-0.3234,169.6561
19:53:19:899,-3.0532,1.395,13.2921,65.9954,-0.2299,-0.1314,0.0003,170.1752
19:53:19:916,-2.8451,1.1797,11.1625,63.3029,0.3589,0.3059,0.3619,169.7302
19:53:19:936,-2.8211,1.8473,9.5091,65.6291,0.8122,0.3682,0.4597,169.1577
19:53:19:957,-2.0052,2.1918,8.4395,63.924,0.872,-0.063,0.3888,168.7935
19:53:19:978,-1.072,1.7827,7.937,64.2654,0.7291,-0.4576,0.2312,168.7318
19:53:19:998,-0.9667,1.3352,7.3771,67.4646,0.5532,-0.5468,-0.0644,168.9994
19:53:20:017,-1.7037,1.2467,7.1593,64.8175,0.3785,-0.3,-0.3479,169.4803
19:53:20:037,-2.2588,0.9906,6.8219,65.7872,0.2001,-0.0593,-0.3015,169.8152
19:53:20:057,-2.3976,1.2347,6.5515,65.5804,0.0608,-0.0422,-0.0082,169.8425
19:53:20:079,-1.4979,1.7085,6.8339,65.3879,-0.0723,-0.0862,0.2617,169.6123
19:53:20:098,-0.6293,1.9286,7.2072,65.2063,-0.1811,-0.1326,0.4193,169.2544
19:53:20:118,-0.5886,2.3043,7.6068,65.7579,-0.2055,-0.0801,0.3815,168.9153
19:53:20:136,-0.859,2.5412,7.6881,65.6237,-0.1371,-0.0276,0.2679,168.6879
19:53:20:156,-1.1438,2.814,7.7312,65.8671,-0.0052,-0.0361,0.2092,168.4853
19:53:20:177,-0.9356,2.6824,7.5853,63.7325,0.1622,-0.1852,0.2288,168.3066
19:53:20:197,-0.9547,2.6488,7.3914,64.7043,0.2795,-0.3318,0.2239,168.2108
19:53:20:218,-1.2012,2.7159,7.3172,64.3467,0.2404,-0.4222,0.164,168.1874
19:53:20:237,-1.4189,2.7589,7.8245,63.7965,0.0926,-0.3831,0.1799,168.1334
19:53:20:257,-1.4764,3.0269,8.418,64.5557,-0.0369,-0.3208,0.2776,167.9493
19:53:20:278,-0.9165,2.8546,9.2219,64.4082,-0.0992,-0.3782,0.3729,167.703
19:53:20:297,-0.0909,2.3809,10.1073,64.8059,-0.1542,-0.5016,0.3534,167.5587
19:53:20:319,0.3493,1.9956,10.9854,64.7656,-0.2299,-0.5774,0.2605,167.5505
19:53:20:337,0.0407,1.8616,12.1675,64.6245,-0.445,-0.3342,0.2251,167.6022
19:53:20:359,0.6341,1.3448,12.4857,64.8788,-0.4511,-0.1436,0.3497,167.2328
19:53:20:382,1.4429,1.0241,12.9452,64.8163,-0.4474,-0.2304,0.3851,167.0136
19:53:20:403,1.742,0.7178,13.7635,64.2742,-0.5427,-0.5822,0.2337,167.0281
19:53:20:419,1.2108,0.8471,14.2876,65.2207,-0.649,-0.6519,0.0614,167.2282
19:53:20:437,0.7585,0.7777,13.876,65.1606,-0.5733,-0.1876,0.0993,167.2542
19:53:20:457,0.457,0.9236,12.5049,63.673,-0.2703,0.4037,0.3595,166.8317
19:53:20:476,1.3232,1.1701,10.6265,62.4074,0.0779,0.6529,0.7272,165.9893
19:53:20:497,2.668,1.3783,8.9348,65.2435,0.3064,0.5808,0.9508,164.961
19:53:20:517,3.6156,1.6893,7.4297,65.0401,0.2966,0.3939,0.7773,164.1974
19:53:20:537,3.2423,1.8138,6.877,65.084,0.0352,0.3206,0.2789,163.9624
19:53:20:561,1.9167,1.7133,7.2933,65.2182,-0.291,0.356,-0.2306,164.2313
19:53:20:579,0.5934,1.8377,8.0471,64.0031,-0.4279,0.3585,-0.503,164.7418
19:53:20:599,0.1986,1.931,8.0782,65.4415,-0.2764,0.2057,-0.5201,165.3062
19:53:20:620,0.3302,2.2301,7.6235,63.3929,0.0119,0.0005,-0.4102,165.7788
19:53:20:636,0.5958,2.7805,7.3986,64.5955,0.2355,-0.1827,-0.3051,166.1981
19:53:20:657,0.9667,3.2686,7.3412,64.2111,0.365,-0.3623,-0.2734,166.6356
19:53:20:678,1.5051,3.6754,7.6953,64.0324,0.453,-0.5725,-0.2978,167.1527
19:53:20:698,1.8927,4.1061,8.4419,64.2742,0.5275,-0.9488,-0.3369,167.8302
19:53:20:729,1.9908,4.4124,8.2193,64.4057,0.6729,-1.3727,-0.3491,168.6574
19:53:20:746,1.5314,4.3597,7.7695,64.2063,0.7193,-1.3666,-0.4847,169.5923
19:53:20:757,1.1414,4.2353,7.669,65.9764,0.5605,-0.9292,-0.6044,170.5471
19:53:20:777,0.9811,4.1516,7.8293,64.9455,0.2392,-0.3501,-0.5837,171.2999
19:53:20:795,0.4259,3.9601,10.4495,65.7031,-0.561,0.5723,-0.42,172.0571
19:53:20:815,-0.9308,3.3619,11.2606,64.4218,-0.6844,0.8435,-0.3809,172.1711
19:53:20:835,-1.4142,3.807,12.9332,63.9161,-0.715,0.9974,-0.2819,172.1407
19:53:20:857,-0.5001,3.3906,13.7779,65.0352,-0.3509,0.6505,0.087,171.871
19:53:20:875,-0.1531,3.4816,12.9739,63.8057,0.332,0.2375,0.2984,171.4684
19:53:20:895,-0.1005,3.5653,10.9831,64.193,0.9453,0.1092,0.2862,171.1555
19:53:20:915,-0.1244,3.3715,9.2483,66.09,1.0577,0.1838,0.2055,170.8794
19:53:20:936,-0.3757,2.9815,9.7699,65.6145,0.5886,0.2021,0.0467,170.7405
19:53:20:955,-0.6006,2.4311,12.0862,64.7641,-0.1994,-0.0178,-0.1561,170.8875
19:53:20:977,-0.8231,1.7563,14.2421,65.2911,-0.7516,-0.1546,-0.1951,171.139
19:53:20:995,-1.3328,1.6128,14.5244,64.525,-0.7174,0.0714,-0.0461,171.1346
19:53:21:016,-1.7133,1.541,12.8112,64.1221,-0.1493,0.4916,0.2092,170.7353
19:53:21:035,-1.407,1.742,10.3825,65.7003,0.558,0.692,0.4438,170.0402
19:53:21:056,-0.6867,2.1894,7.7839,64.6956,0.9588,0.5381,0.5537,169.2649
19:53:21:076,-0.1747,2.7757,6.4798,63.6195,0.8488,0.284,0.5024,168.6692
19:53:21:097,0.2058,3.0293,7.3914,64.6245,0.365,0.0848,0.3057,168.3505
19:53:21:116,0.414,2.4024,8.3844,65.3362,-0.0027,0.0201,0.0284,168.3547
19:53:21:138,0.0526,2.0004,8.3342,63.6852,-0.0259,0.0665,-0.2294,168.5917
19:53:21:160,-0.4977,1.9023,7.5637,64.1866,0.0767,0.0457,-0.3564,168.9556
19:53:21:177,-0.9763,1.8329,7.0732,63.3215,0.1011,0.0616,-0.3564,169.3011
19:53:21:197,-1.3137,1.931,7.0421,63.6195,-0.0174,0.0225,-0.2672,169.5593
19:53:21:219,-1.1988,2.0506,7.4297,65.2911,-0.1884,-0.063,-0.1096,169.6714
19:53:21:238,-0.5767,2.2636,8.1667,64.3769,-0.2617,-0.0862,0.0834,169.5958
19:53:21:257,-0.3972,2.5316,8.1284,63.264,0.1817,0.207,0.2715,169.3488
19:53:21:279,-0.9787,2.7948,7.3196,64.061,0.4945,0.2742,0.2104,168.6635
19:53:21:297,-0.8136,2.6895,6.7262,64.3312,0.5837,0.1471,0.1762,168.4117
19:53:21:316,-0.3183,2.7422,7.0373,65.9629,0.4163,0.0139,0.1946,168.2226
19:53:21:341,0.1029,2.9647,7.59,63.8851,0.0987,-0.0166,0.2141,168.0289
19:53:21:360,0.1819,2.9025,8.8223,64.5653,-0.2495,0.1532,0.1848,167.8124
19:53:21:381,0.0526,2.8762,10.5069,64.1866,-0.5012,0.2558,0.1273,167.631
19:53:21:400,0.3781,2.4646,11.6985,65.3856,-0.5659,0.0995,0.0919,167.562
19:53:21:416,0.6652,2.3952,12.2297,64.3182,-0.4181,-0.0593,0.0932,167.5491
19:53:21:437,0.6556,2.6178,11.9019,64.4419,-0.1786,-0.1229,0.1322,167.5241
19:53:21:456,0.6987,2.7111,11.33,65.8792,0.0266,-0.0764,0.2055,167.3937
19:53:21:478,1.1533,2.8905,10.739,63.6489,0.1121,-0.1253,0.2569,167.2466
19:53:21:496,2.2349,2.6728,10.4064,64.8287,0.0584,-0.2426,0.2569,167.1563
19:53:21:516,2.8379,2.3258,10.8515,65.8443,-0.0699,-0.3196,0.1396,167.2524
19:53:21:537,2.5699,2.2493,10.9017,65.1233,-0.1774,-0.4063,-0.1011,167.5984
19:53:21:660,1.9717,2.0674,10.4495,65.6593,-0.1554,-0.3208,-0.2917,168.0839
19:53:21:663,1.6152,1.6941,9.7699,65.8828,-0.0467,-0.2023,-0.3687,168.6004
19:53:21:665,1.6439,1.273,9.4588,64.8432,-0.0247,-0.2414,-0.4334,169.1911
19:53:21:666,1.7994,1.3615,9.7771,67.7326,-0.2202,-0.4027,-0.5336,169.9436
19:53:21:667,1.7922,1.4357,10.1527,64.605,-0.5586,-0.4295,-0.6313,170.8272
19:53:21:667,1.2706,1.2873,9.9039,63.8057,-0.7553,-0.1705,-0.6863,171.6691
19:53:21:686,0.3422,1.6391,9.1765,63.5973,-0.6551,0.1166,-0.6985,172.4208
19:53:21:698,0.067,1.8808,7.9035,64.6746,-0.3753,0.2363,-0.6289,173.0654
19:53:21:719,-0.2871,2.6752,6.2668,62.6424,0.0608,0.064,-0.4554,174.0507
19:53:21:740,-0.4594,2.8977,6.25,64.1016,0.1133,-0.1046,-0.4493,174.5531
19:53:21:757,-0.615,3.1178,6.609,64.1862,0.0816,-0.2707,-0.4652,175.1118
19:53:21:777,-0.6604,3.2136,7.2383,66.548,0.0119,-0.2854,-0.4688,175.6885
19:53:21:796,-0.7011,3.1848,8.0686,63.7207,-0.054,-0.1937,-0.4737,176.2291
19:53:21:818,-0.8231,3.3069,8.7888,63.2204,-0.0943,-0.1302,-0.4774,176.7433
19:53:21:836,-0.6604,3.2566,9.3105,64.0334,-0.0858,-0.0618,-0.431,177.2184
19:53:21:857,-0.3398,3.1202,9.8728,64.2734,-0.0406,0.0335,-0.3638,177.6132
19:53:21:876,-0.1077,3.0891,10.6552,64.354,0.0315,0.0543,-0.2953,177.9221
19:53:21:896,-0.4044,3.4863,10.9759,62.8703,0.0999,0.0836,-0.2392,178.1561
19:53:21:918,-0.792,3.929,11.2893,62.9702,0.1341,0.2339,-0.1744,178.2657
19:53:21:937,-0.7513,3.8405,11.5238,64.8728,0.1451,0.3646,-0.0766,178.256
19:53:21:956,-0.6556,3.9099,11.543,64.3456,0.183,0.5185,0.0174,178.0993
19:53:21:976,-0.6102,4.1516,11.2965,62.076,0.2392,0.6676,0.1005,177.8057
19:53:21:996,-0.7801,3.7065,10.8347,65.0206,0.2697,0.6651,0.1139,177.5214
19:53:22:021,-1.7468,3.2877,10.5332,65.0206,0.2441,0.6065,-0.0143,177.3448
19:53:22:038,-2.948,3.0724,10.7175,63.6547,0.1524,0.5283,-0.1353,177.2735
19:53:22:057,-3.6299,3.0245,11.342,65.0206,0.0205,0.4208,-0.062,177.1331
19:53:22:076,-2.9025,2.2325,12.3374,63.2168,-0.0821,0.2681,0.1726,176.8203
19:53:22:096,-2.2708,2.1392,12.39,63.3919,-0.0357,0.1117,0.3961,176.33
19:53:22:121,-1.6822,2.1631,11.1817,63.5492,0.205,0.1996,0.6148,175.6158
19:53:22:135,-0.9547,1.8736,9.8584,62.9785,0.4835,0.2717,0.7578,174.7545
19:53:22:157,-0.6174,2.2158,8.6883,63.7591,0.5568,-0.0129,0.6649,174.0848
19:53:22:178,-0.213,1.8688,7.3268,64.0748,0.1879,-0.2194,0.357,173.6606
19:53:22:195,0.2393,1.4357,7.1282,63.3568,-0.0174,-0.1168,0.2789,173.1718
19:53:22:220,0.335,1.2538,6.8387,63.7015,-0.1408,-0.0655,0.2324,173.0088
19:53:22:236,-0.2058,1.7276,6.7717,64.173,-0.2446,-0.0447,0.1909,172.8511
19:53:22:257,-0.2871,1.9454,6.7836,62.0146,-0.3497,-0.0484,0.2043,172.6736
19:53:22:276,-0.1651,2.0889,6.9464,64.7081,-0.379,-0.0361,0.2446,172.4643
19:53:22:296,-0.1962,2.5268,6.8339,62.2826,-0.3252,-0.1143,0.2984,172.2174
19:53:22:316,-0.2153,2.747,6.6999,63.181,-0.2104,-0.1889,0.3766,171.8967
19:53:22:336,0.012,3.0796,6.5994,62.8291,-0.0821,-0.2402,0.4145,171.5399
19:53:22:356,0.1771,3.3165,6.7071,64.3047,-0.0113,-0.2573,0.3839,171.2513
19:53:22:376,0.146,3.1992,7.1139,63.149,0.0022,-0.1656,0.2728,171.0315
19:53:22:395,0.0885,2.8738,7.6523,63.861,-0.0638,-0.0728,0.0809,171.0021
