Time,Acc_X,Acc_Y,Acc_Z,Meg,Gyr_X,Gyr_Y,Gyr_Z,Ore
16:53:54:465,-2.2923,2.7374,9.0903,67.1285,-0.6967,0.265,0.0416,183.6588
16:53:54:492,-2.2923,2.7374,9.0903,65.7773,-0.5965,0.0866,0.11,89.2977
16:53:54:509,-2.2923,2.7374,9.0903,65.1611,-0.5965,0.0866,0.11,88.6696
16:53:54:528,-1.6367,2.5292,10.861,66.2607,-0.5965,0.0866,0.11,90.1672
16:53:54:547,-1.7468,2.5149,10.4351,64.1753,0.0364,-0.286,0.0831,90.8102
16:53:54:578,-1.9238,2.5962,9.8082,64.4497,0.1561,-0.2444,0.0978,90.7215
16:53:54:595,-2.1416,2.735,9.5163,65.8376,0.1488,-0.1284,0.1394,90.3715
16:53:54:605,-2.2588,2.8451,9.3296,66.2558,0.0803,-0.0123,0.2029,89.7974
16:53:54:624,-2.2564,2.9719,9.3344,65.3626,0.0009,0.0231,0.2835,89.0773
16:53:54:647,-2.0913,2.9503,9.6622,65.5925,-0.0577,-0.0123,0.3739,88.4914
16:53:54:662,-1.8903,2.869,9.8848,64.8572,-0.0418,-0.0697,0.4558,87.9942
16:53:54:685,-1.5218,2.8618,9.6909,63.3205,0.0559,-0.1137,0.5193,87.455
16:53:54:701,-1.3974,2.9599,9.3129,64.1753,0.1549,-0.0661,0.556,86.7452
16:53:54:722,-1.3161,3.0197,9.0114,64.1563,0.183,0.0023,0.5718,85.91
16:53:54:741,-1.2993,3.0867,8.8271,62.6679,0.1683,0.0622,0.5706,85.0323
16:53:54:760,-1.1892,3.0891,8.8415,65.8073,0.1292,0.1184,0.5584,84.2093
16:53:54:779,-1.3328,3.1346,8.5352,64.1753,0.1182,0.1587,0.5388,83.3872
16:53:54:800,-1.4237,3.1609,8.2792,65.6498,0.0901,0.1379,0.5327,82.5861
16:53:54:829,-1.2634,3.137,8.2169,63.0871,0.0107,0.0622,0.567,81.7962
16:53:54:849,-1.139,3.1466,8.4084,64.3736,-0.065,0.0451,0.595,81.0194
16:53:54:861,-1.0241,3.0915,8.7338,64.2258,-0.0968,0.0194,0.6146,80.2742
16:53:54:880,-1.005,3.0724,8.7936,62.4948,-0.037,-0.0869,0.6232,79.5808
16:53:54:920,-1.0576,3.1322,8.5615,64.62,0.062,-0.3092,0.617,78.9536
16:53:54:928,-0.8614,3.2375,8.0303,63.9078,0.1378,-0.5645,0.6415,78.313
16:53:54:965,-0.3876,3.4337,7.7097,64.1038,0.1512,-0.6268,0.6806,77.5519
16:53:54:968,0.1101,3.539,7.6235,63.6041,0.0669,-0.4302,0.6879,76.6375
16:53:54:980,0.2153,3.6275,7.6929,62.8215,-0.043,-0.0013,0.6622,75.5734
16:53:55:002,0.1292,3.7232,8.083,63.9621,-0.131,0.4055,0.6342,74.3871
16:53:55:030,0.0646,3.7376,8.5208,63.1972,-0.1676,0.5509,0.6097,73.2688
16:53:55:041,0.1962,3.7854,8.5998,62.5694,-0.1188,0.4226,0.5779,72.194
16:53:55:064,0.39,3.8812,8.2576,61.3791,-0.0272,0.2455,0.556,71.1523
16:53:55:094,0.6269,4.0175,7.9274,63.7037,0.0058,0.1685,0.5437,70.0287
16:53:55:110,0.9691,4.1516,8.1165,62.7164,-0.0455,0.1941,0.5388,68.8895
16:53:55:122,1.3663,4.2999,8.5376,62.5824,-0.1029,0.2601,0.5083,67.7137
16:53:55:143,1.5242,4.5272,8.8702,61.3791,-0.1017,0.2674,0.4155,66.6192
16:53:55:160,1.3591,4.6708,9.1549,62.1996,-0.0577,0.177,0.2615,65.7241
16:53:55:184,0.3996,4.7809,10.1886,62.7169,0.0583,-0.1687,-0.0146,64.9774
16:53:55:225,-0.2106,4.7378,10.6146,62.9603,0.1549,-0.2848,-0.0695,65.0408
16:53:55:226,-0.2728,4.4243,10.8826,63.1012,0.2587,-0.2334,-0.0109,65.1389
16:53:55:242,-0.3087,4.276,11.263,64.0887,0.2734,-0.1174,0.0685,65.2145
16:53:55:260,-0.6508,4.1826,11.9713,61.7114,0.2074,-0.0978,0.0331,65.4254
16:53:55:279,-0.6867,3.8524,12.2536,60.6977,0.2013,-0.2127,-0.0476,65.8943
16:53:55:300,-0.5719,3.4983,11.5047,62.4652,0.288,-0.3263,-0.0879,66.4257
16:53:55:320,-0.8758,3.2423,10.6624,63.0867,0.3711,-0.187,-0.149,67.0107
16:53:55:341,-1.8831,3.1346,9.7531,63.2301,0.4236,0.1831,-0.2772,67.5834
16:53:55:360,-2.7278,2.6991,8.6979,59.8484,0.3943,0.4458,-0.3383,68.1632
16:53:55:380,-3.5988,2.467,8.4347,63.9981,0.2379,0.5008,-0.3029,68.7418
16:53:55:403,-4.0247,2.3043,8.7888,64.3189,-0.0003,0.3481,-0.1648,69.3445
16:53:55:430,-3.8644,2.2636,9.0018,61.1849,-0.1652,0.1611,0.0722,69.7672
16:53:55:443,-3.3356,2.3761,9.1143,63.1295,-0.219,0.0988,0.3703,69.8383
16:53:55:464,-2.4263,2.5436,9.2411,61.0963,-0.219,0.1233,0.6708,69.4744
16:53:55:480,-1.2849,2.735,9.2363,60.8564,-0.1786,0.1465,0.8919,68.7381
16:53:55:501,0.0287,2.9886,8.9539,61.4843,-0.0944,0.1587,0.9787,67.751
16:53:55:523,0.9763,3.2471,8.8487,61.7218,-0.0027,0.2137,0.9054,66.6997
16:53:55:542,1.2706,3.216,8.2193,62.1996,0.0889,0.2968,0.6647,65.8163
16:53:55:560,0.7155,3.2542,7.1067,61.8488,0.1854,0.4018,0.3324,65.1701
16:53:55:580,0.3493,3.2447,6.3051,61.584,0.1426,0.392,0.0526,64.7969
16:53:55:601,0.0981,3.0748,6.7645,61.0963,-0.0724,0.1978,-0.1453,64.8001
16:53:55:622,-0.2465,2.735,7.8102,61.8867,-0.2898,-0.2005,-0.3408,65.3241
16:53:55:644,-0.4834,2.6201,7.4848,62.1973,-0.2031,-1.1412,-0.4141,67.1383
16:53:55:668,-0.2297,2.9216,7.0229,60.7389,-0.1603,-1.2646,-0.2931,67.947
16:53:55:688,0.0598,3.3165,7.1043,60.8801,-0.2031,-1.0532,-0.1416,68.4582
16:53:55:705,0.2153,3.6084,7.4728,62.0454,-0.2947,-0.6941,0.0025,68.6483
16:53:55:721,0.1651,3.8381,8.1189,61.7275,-0.3509,-0.4045,0.0563,68.657
16:53:55:740,-0.2201,4.1324,8.6907,61.5718,-0.3424,-0.297,0.0147,68.6837
16:53:55:760,-0.8566,4.4411,8.7912,62.178,-0.2483,-0.2897,-0.0219,68.7505
16:53:55:782,-1.1988,4.989,9.0975,62.1487,-0.1774,-0.297,0.049,68.7072
16:53:55:801,-0.7011,5.3432,9.1549,61.2589,-0.1921,-0.2603,0.1968,68.4567
16:53:55:830,-0.591,5.7117,10.0714,60.5714,-0.3008,-0.1113,0.22,68.1046
16:53:55:839,-0.6724,5.4532,12.268,61.7275,-0.5415,-0.0307,0.1418,67.9176
16:53:55:862,-0.4475,4.4578,14.9791,61.5936,-0.6624,-0.1956,0.0453,68.1146
16:53:55:882,-0.1364,3.3141,16.5823,61.0357,-0.5036,-0.5768,-0.0671,68.7361
16:53:55:900,1.596,1.8592,16.3286,60.6525,-0.1139,-0.9555,-0.05,69.5499
16:53:55:920,3.3571,1.2658,15.0891,60.7446,0.3064,-1.0593,0.0966,70.1824
16:53:55:940,4.1826,1.3089,13.2395,62.5314,0.6484,-0.6012,0.1809,70.4762
16:53:55:961,4.3573,1.2371,11.1912,62.2061,0.8525,0.1575,0.1149,70.5118
16:53:55:981,3.8285,1.2227,9.9733,60.4356,0.85,0.6718,-0.0989,70.5519
16:53:56:001,2.2038,1.34,9.5163,62.2371,0.7254,0.8477,-0.397,70.8919
16:53:56:021,-0.5336,1.8808,9.0377,61.1585,0.7279,0.8539,-0.6743,71.5535
16:53:56:040,-3.0844,2.8116,7.6499,62.1096,0.8916,0.7219,-0.7647,72.2713
16:53:56:062,-3.9577,3.5103,5.4748,62.1096,1.0479,0.5887,-0.5363,72.6547
16:53:56:083,-3.7256,4.0319,3.8644,63.0679,0.9856,0.5814,-0.149,72.4849
16:53:56:100,-2.6871,4.2066,4.7713,61.9752,0.1011,0.4153,0.3324,71.9784
16:53:56:120,-2.2325,3.7711,6.3075,60.5438,-0.3069,0.199,0.3739,70.9526
16:53:56:141,-1.7827,3.204,7.4943,62.8854,-0.4364,0.0671,0.3715,70.6915
16:53:56:167,-1.6845,2.8546,7.6977,62.6228,-0.2642,0.1599,0.3727,70.423
16:53:56:184,-1.4429,2.8116,6.9488,61.4218,0.0254,0.3261,0.4252,70.0169
16:53:56:203,-1.0289,2.881,6.0227,62.7427,0.2086,0.4446,0.5144,69.3864
16:53:56:220,-0.8183,3.0365,5.5561,61.9435,0.1866,0.5081,0.567,68.6296
16:53:56:240,-0.5599,3.1131,5.6303,61.9435,0.0046,0.513,0.6073,67.8121
16:53:56:263,-0.189,3.2997,6.1926,61.5511,-0.2092,0.5387,0.6586,66.9243
16:53:56:282,-0.1053,3.5677,7.054,60.3847,-0.3619,0.6059,0.6903,65.9623
16:53:56:303,0.2943,3.8572,7.9011,62.3943,-0.3925,0.601,0.7062,64.9626
16:53:56:321,1.072,4.0223,7.9561,59.4473,-0.3045,0.5167,0.7038,63.9557
16:53:56:342,1.7037,4.2951,7.7049,60.4936,-0.2043,0.4959,0.6195,62.9885
16:53:56:365,1.7396,4.3478,8.0064,60.1565,-0.2299,0.48,0.424,62.2175
16:53:56:381,1.0816,4.0008,9.0162,59.5373,-0.3656,0.3444,0.143,61.8788
16:53:56:400,-0.0502,3.6945,10.8179,59.9123,-0.5635,-0.0246,-0.0952,62.0906
16:53:56:502,-0.9858,3.6634,12.6245,61.4868,-0.7187,-0.4473,-0.1233,62.6025
16:53:56:503,-1.6032,4.2186,13.4381,61.8253,-0.5953,-0.4705,0.0868,62.8952
16:53:56:513,-1.1031,4.9484,13.3496,60.9397,-0.2129,-0.0392,0.4704,62.5101
16:53:56:513,0.055,5.214,13.2084,61.4867,0.0791,0.2735,0.7282,61.6892
16:53:56:514,-0.5815,5.3886,13.5147,60.5347,0.1353,0.188,0.5303,61.1258
16:53:56:524,-1.9238,5.068,13.3376,60.8239,0.1732,-0.0441,0.1198,61.1688
16:53:56:540,-4.386,3.2255,11.275,59.8401,0.3552,-0.1455,-0.3102,61.6815
16:53:56:566,-4.7234,2.1894,11.1769,61.7829,0.1793,-0.2603,-0.2271,62.3357
16:53:56:584,-3.9458,1.5386,11.6267,61.359,-0.0296,-0.3923,0.1113,63.1092
16:53:56:599,-2.2181,1.3185,11.8875,61.3492,-0.0931,-0.4045,0.6293,63.5977
16:53:56:619,0,1.3591,11.2893,62.2535,0.0547,-0.2151,1.085,62.8878
16:53:56:640,1.6439,1.7228,9.3153,60.3095,0.3723,0.1807,1.2707,61.6554
16:53:56:664,2.4814,2.3139,7.2407,60.3095,0.5788,0.5607,1.2023,60.2115
16:53:56:696,3.1514,2.589,6.1687,61.7828,0.5079,0.7219,1.0324,58.7851
16:53:56:701,3.4839,2.6345,5.9701,60.3215,0.321,0.6889,0.7441,57.6485
16:53:56:719,3.192,2.656,5.6997,59.7879,0.2221,0.5826,0.3507,56.9373
16:53:56:739,2.4622,2.5986,4.9651,62.8341,0.2111,0.4996,-0.0476,56.6816
16:53:56:759,1.4405,2.7254,4.6899,61.9032,0.1439,0.4763,-0.3701,56.7982
16:53:56:782,0.4522,2.8235,4.9747,58.5389,-0.0162,0.3945,-0.5778,57.2091
16:53:56:799,-0.548,3.0676,5.4987,60.6163,-0.1701,0.2259,-0.6865,57.8417
16:53:56:819,-1.2921,3.3212,5.8313,60.8098,-0.2593,0.0378,-0.6938,58.6078
16:53:56:840,-1.8233,3.5964,5.9174,60.9974,-0.2935,-0.0661,-0.5778,59.3131
16:53:56:863,-1.8903,4.0008,6.6138,60.4292,-0.3631,-0.1333,-0.3774,59.8191
16:53:56:880,-1.2945,4.1516,7.7025,61.7024,-0.4486,-0.286,-0.1734,60.1736
16:53:56:900,-1.0624,4.331,9.3799,60.4422,-0.467,-0.4961,-0.0793,60.5752
16:53:56:920,-0.7178,3.9912,10.605,59.4831,-0.3888,-0.8113,-0.1221,61.1733
16:53:56:939,-0.5527,3.7448,11.6411,63.4037,-0.2678,-1.1326,-0.2113,62.0331
16:53:56:961,-0.4211,3.606,13.9789,60.7554,-0.263,-1.2878,-0.2565,63.0607
16:53:56:982,-1.3424,4.0439,15.0509,62.1205,-0.0504,-0.9543,-0.243,63.9783
16:53:57:003,-1.1797,4.7186,10.3537,59.9885,0.8537,0.2919,0.1454,64.1298
16:53:57:019,0.3398,3.7735,10.4638,60.5351,0.442,-0.0612,0.209,64.1022
16:53:57:042,1.5266,2.5866,14.1296,59.8,-0.5183,-1.0166,0.0941,64.7372
16:53:57:063,2.5723,1.4907,16.4219,60.5048,-0.7993,-1.1766,0.005,65.5837
16:53:57:080,2.7278,1.4524,13.797,60.5637,-0.0821,-0.5059,-0.0952,66.198
16:53:57:100,2.3785,1.7515,10.2939,59.2763,0.5703,0.177,-0.171,66.5105
16:53:57:119,0.9571,1.8401,9.2794,60.6037,0.5458,0.3102,-0.3994,67.0349
16:53:57:140,-1.7324,1.9382,8.9659,59.1095,0.2795,0.0683,-0.7378,68.077
16:53:57:160,-4.0271,2.4431,8.3414,60.5318,0.2477,-0.0844,-0.7757,69.2434
16:53:57:179,-4.5248,3.0772,7.3005,58.8594,0.3491,-0.2212,-0.4202,70.0666
16:53:57:202,-2.8642,3.4959,6.7956,60.4858,0.3296,-0.4143,0.1113,70.3065
16:53:57:220,-0.1579,3.6012,7.0469,62.4725,0.1952,-0.457,0.606,70.0184
16:53:57:241,2.0722,3.7256,6.8052,61.8293,0.0877,-0.3288,0.8284,69.3974
16:53:57:264,2.3139,4.0056,6.6018,60.8519,0.0706,0.0133,0.6806,68.7226
16:53:57:280,1.7683,3.8501,7.0612,63.4055,0.0559,0.3566,0.3947,68.2285
16:53:57:299,1.2897,3.5773,6.8172,60.4133,0.0449,0.3395,0.2029,67.9654
16:53:57:318,0.5719,3.5581,6.7382,58.9593,0.0388,0.2479,0.1222,67.8412
16:53:57:343,0.0766,3.3284,7.2359,57.6885,-0.0553,0.3322,0.1809,67.6514
16:53:57:361,0.4738,2.9647,7.4656,58.3094,-0.1652,0.3493,0.3018,67.3647
16:53:57:379,1.6463,2.8331,7.6762,56.7268,-0.1725,0.3151,0.4155,66.9403
16:53:57:400,1.7492,3.4481,8.0231,58.3094,-0.1066,0.3591,0.4546,66.4221
16:53:57:419,0.9571,3.874,8.6955,58.6712,-0.0882,0.4043,0.3568,66.0103
16:53:57:443,0.4116,3.0054,9.2315,58.8594,-0.1273,0.1575,0.1418,66.0247
16:53:57:465,1.3352,3.271,7.858,58.796,0.161,0.199,0.3617,66.0831
16:53:57:481,0.9978,3.9936,7.7312,57.7465,0.1646,0.1905,0.435,65.6037
16:53:57:498,1.0457,4.2281,7.9274,57.1942,0.0681,0.061,0.3629,64.8693
16:53:57:519,1.1486,4.4243,7.7216,57.992,-0.0027,0.1135,0.3202,64.5617
16:53:57:543,0.7226,4.5631,7.9777,60.1733,-0.0418,0.2271,0.2273,64.316
16:53:57:560,0.4977,4.6445,8.2122,58.8204,-0.0834,0.2014,0.1919,64.1458
16:53:57:580,0.4259,4.8622,7.0277,58.3344,-0.0687,0.1477,0.2053,63.9471
16:53:57:600,-0.1053,4.8,7.791,57.9199,-0.2434,0.1611,0.2175,63.7873
16:53:57:619,-1.0887,4.587,10.4997,59.0512,-0.583,-0.0575,0.1491,63.8426
16:53:57:640,-0.95,3.2327,11.2104,60.0808,-0.6344,-0.4473,0.0269,64.2891
16:53:57:663,-1.3902,2.1727,11.0716,59.0512,-0.4682,-0.6611,-0.1123,65.0361
16:53:57:681,-2.2995,1.5314,11.7248,59.2533,-0.4523,-0.6562,-0.1404,65.8595
16:53:57:700,-2.6417,1.2682,12.1819,58.8517,-0.4939,-0.4912,0.0343,66.4343
16:53:57:719,-1.8975,1.151,11.8612,58.121,-0.4474,-0.2664,0.3031,66.644
16:53:57:742,-0.8423,1.261,11.1841,57.8485,-0.4413,-0.071,0.4924,66.5099
16:53:57:761,-0.2584,1.3974,10.6983,58.4494,-0.5293,0.1758,0.5242,66.2299
16:53:57:782,-0.4379,1.4309,10.2915,60.4323,-0.6405,0.4507,0.4472,65.9142
16:53:57:799,-0.9739,1.3256,9.9159,59.8892,-0.7223,0.6278,0.3666,65.6427
16:53:57:821,-1.3831,1.4142,9.9063,57.1887,-0.7688,0.601,0.3739,65.3899
16:53:57:838,-0.8638,1.5003,10.4375,57.6495,-0.7773,0.3701,0.4937,65.0331
16:53:57:859,0.1555,1.6152,10.0259,56.3567,-0.6502,0.2345,0.6427,64.4972
16:53:57:880,0.6413,1.8855,8.8271,56.0069,-0.445,0.4153,0.7282,63.7843
16:53:57:900,0.7872,2.0602,8.2481,57.4974,-0.3876,0.6535,0.7404,62.9931
16:53:57:923,0.7705,2.0004,8.473,55.8689,-0.511,0.4507,0.6048,62.2504
16:53:57:948,0.8159,1.8688,8.7505,57.2791,-0.5476,0.2503,0.5144,61.0296
16:53:57:964,0.8566,1.8784,9.2363,55.2603,-0.572,0.1758,0.4814,60.6438
16:53:57:980,0.7992,1.9286,9.5952,55.1647,-0.5354,0.2405,0.4606,60.2654
16:53:58:000,0.6843,1.8784,9.5641,57.6014,-0.4315,0.3273,0.4191,59.8969
16:53:58:021,0.658,1.7157,9.2124,54.3615,-0.313,0.3151,0.3605,59.6524
16:53:58:042,0.5312,1.6439,9.1765,55.0642,-0.2507,0.1868,0.2774,59.4903
16:53:58:058,0.2991,1.6822,9.6885,56.2511,-0.2373,0.0072,0.1955,59.4464
16:53:58:078,0.3183,1.7204,10.2197,56.482,-0.1689,-0.1174,0.1528,59.4695
16:53:58:098,0.3039,1.6965,10.0499,57.261,-0.0027,-0.1431,0.1247,59.5264
16:53:58:119,0.3039,1.6965,9.7149,55.6,0.1402,-0.1369,0.0697,59.6553
16:53:58:140,0.335,1.4548,9.6407,55.6311,0.1329,-0.2383,-0.0146,59.9145
16:53:58:159,0.1484,1.2873,10.2843,55.7165,-0.015,-0.3629,-0.1086,60.2938
16:53:58:179,-0.414,1.3041,11.1194,55.583,-0.1298,-0.2982,-0.1392,60.7402
16:53:58:200,-1.1127,1.6032,11.2463,56.0606,-0.0443,0.0121,-0.0659,61.0536
16:53:58:223,-1.0241,1.8808,10.4566,57.813,0.1634,0.2296,0.0758,61.1457
16:53:58:240,-0.0838,1.9669,9.8728,57.7661,0.205,0.1025,0.1674,61.1201
16:53:58:258,1.34,1.1055,9.99,57.4218,-0.0223,-0.1174,0.1137,61.214
16:53:58:279,1.2682,0.5288,11.2678,58.482,-0.3595,-0.1455,-0.072,61.5475
16:53:58:300,0.1866,0.5551,12.5719,57.3235,-0.4828,0.0451,-0.177,61.9871
16:53:58:321,-0.3996,0.682,12.1149,56.8495,-0.1848,0.2259,-0.1025,62.3281
16:53:58:339,-0.1292,0.9212,10.2939,55.583,0.2306,0.1856,0.0441,62.4967
16:53:58:360,0.4546,0.8471,9.0903,56.9804,0.3564,0.0158,0.1076,62.5947
16:53:58:382,0.6867,0.4977,10.0929,58.2495,-0.0809,-0.0783,-0.0146,62.8122
16:53:58:398,0.2895,0.5527,10.7868,55.1184,-0.1396,0.0109,-0.0476,63.1042
16:53:58:421,-0.0048,0.6197,10.1862,56.9569,0.0254,0.1049,-0.0341,63.3762
16:53:58:446,-0.1771,0.7633,9.1741,57.4248,0.2025,0.1526,-0.0024,63.6019
16:53:58:465,-0.402,0.9021,8.528,55.8796,0.2196,0.177,0.0233,63.7999
16:53:58:478,-0.5145,1.0074,8.4491,55.8092,0.1182,0.1929,0.0563,63.9447
16:53:58:499,-0.3924,1.0146,8.918,57.0789,-0.0137,0.188,0.1137,64.0237
16:53:58:520,-0.1484,1.0193,9.3392,56.9839,-0.0662,0.199,0.1821,64.0083
16:53:58:635,0.1077,1.1151,9.2052,53.8903,-0.0064,0.2124,0.231,63.9604
16:53:58:636,0.3446,1.2634,8.6907,56.1604,0.0755,0.1819,0.2456,63.8338
16:53:58:637,0.323,1.3615,8.3438,54.2443,0.0803,0.1306,0.2224,63.7502
16:53:58:638,0.0622,1.3448,8.3677,50.8607,-0.0003,0.0952,0.1797,63.7555
16:53:58:639,-0.3589,1.3208,8.5089,52.8655,-0.0931,0.1111,0.1638,63.7833
16:53:58:640,-0.6532,1.4213,8.7553,51.2242,-0.1518,0.1709,0.2188,63.9031
16:53:58:659,-0.792,1.5123,9.2889,53.979,-0.1848,0.2014,0.3104,63.9038
16:53:58:678,-0.5575,1.6845,9.7029,52.9413,-0.1298,0.1025,0.3861,63.8898
16:53:58:697,0.0215,1.7898,9.0257,53.5136,0.0461,-0.2371,0.4155,63.8558
16:53:58:718,0.4881,1.998,8.083,51.6994,0.1817,-0.5022,0.3996,63.6489
16:53:58:737,0.6796,2.1894,7.6762,52.2701,0.1573,-0.5181,0.3446,63.5063
16:53:58:757,0.2656,2.1488,7.4991,49.1692,0.0266,-0.3837,0.264,63.4175
16:53:58:777,-0.4116,2.1009,7.8748,52.2931,-0.1591,-0.121,0.2151,63.3686
16:53:58:809,-0.7561,2.0746,8.6596,51.2975,-0.3424,0.2723,0.286,63.2052
16:53:58:818,-0.7083,2.0387,9.588,53.2252,-0.4645,0.6523,0.4155,62.7972
16:53:58:859,-0.6269,2.2636,10.9974,51.7285,-0.3228,0.6217,0.5547,62.2851
16:53:58:859,-0.6317,2.4024,10.148,51.7285,0.0022,0.2296,0.523,61.1131
16:53:58:880,-0.725,2.6512,9.3679,51.8194,0.2514,0.0378,0.5205,60.6891
16:53:58:912,-0.9093,2.814,8.9994,51.535,0.321,0.0842,0.5499,60.2323
16:53:58:926,-1.328,3.0508,9.2722,51.9566,0.2575,0.221,0.5889,59.6907
16:53:58:953,-1.4381,3.0987,9.8249,51.4629,0.1683,0.353,0.6512,59.0779
16:53:58:957,-1.2945,2.7087,10.9639,52.1207,0.1109,0.3261,0.6745,58.4485
16:53:58:976,-1.0792,1.9573,11.7894,51.9869,0.1048,0.1086,0.6158,57.9626
16:53:58:997,-1.2012,1.2873,12.0766,51.8039,0.15,-0.0697,0.5059,57.6522
16:53:59:019,-1.7539,0.8782,12.4187,49.2907,0.1549,-0.0905,0.4362,57.4736
16:53:59:038,-2.0889,0.4953,12.7825,53.1225,0.1366,0.0158,0.4753,57.2486
16:53:59:059,-2.0985,0.1795,12.7585,51.1055,0.1268,0.1233,0.5694,56.9487
16:53:59:078,-2.0124,-0.079,12.3206,52.3241,0.1207,0.2234,0.6671,56.5058
16:53:59:097,-2.0674,-0.1531,11.744,50.9149,0.1145,0.3236,0.7685,55.9431
16:53:59:117,-1.9621,-0.122,11.0261,50.7144,0.1304,0.4055,0.9005,55.181
16:53:59:138,-1.4213,-0.0072,10.1192,50.5403,0.1671,0.436,1.0556,54.2392
16:53:59:157,-0.8327,0.189,9.2363,51.483,0.1781,0.4165,1.1741,53.1088
16:53:59:178,-0.4211,0.5504,8.7505,49.936,0.1048,0.3811,1.2206,51.9174
16:53:59:199,0.0574,0.8806,8.9898,50.516,-0.0247,0.298,1.2047,50.7269
16:53:59:217,0.268,1.1007,9.064,49.6006,-0.0821,0.2051,1.1143,49.6174
16:53:59:237,0.2776,1.273,8.7577,50.22,-0.0455,0.1648,1.0007,48.6404
16:53:59:258,0.1555,1.4285,8.4562,49.3093,-0.004,0.1526,0.8883,47.7727
16:53:59:277,0.0479,1.4548,8.3486,51.2624,0.0131,0.1355,0.7832,47.0258
16:53:59:299,-0.2201,1.5793,7.8867,50.8576,0.0779,0.0145,0.6109,45.6828
16:53:59:318,-0.1101,1.651,7.9633,49.9409,0.0559,-0.0587,0.5584,45.224
16:53:59:339,0.0048,1.742,8.2457,51.1521,0.0193,-0.0759,0.5156,44.8061
16:53:59:358,0.0144,1.8784,8.5998,51.4674,0.0217,-0.0233,0.4668,44.4326
16:53:59:377,-0.1149,2.0698,8.6166,50.5846,0.0779,0.0243,0.4191,44.0475
16:53:59:399,-0.134,2.2684,8.3222,48.8148,0.1573,-0.0025,0.369,43.7567
16:53:59:429,0.1436,2.211,8.1189,49.0256,0.1658,-0.1406,0.3153,43.5295
16:53:59:439,0.2536,2.278,8.7314,50.5718,0.0583,-0.2945,0.2261,43.4636
16:53:59:472,0.134,2.0435,9.6455,49.7177,-0.065,-0.3715,0.1076,43.559
16:53:59:488,-0.2728,1.8855,10.1288,48.7001,-0.0944,-0.3935,0.005,43.7666
16:53:59:500,-0.9763,2.321,10.1025,49.3663,-0.0614,-0.3397,-0.0048,44.0103
16:53:59:518,-1.3543,2.9025,9.6335,49.9396,-0.0394,-0.1455,0.0868,44.1009
16:53:59:543,-0.3254,2.1775,9.0879,48.3119,-0.1579,0.0036,0.1907,44.0349
16:53:59:557,0.4905,1.4165,10.4949,51.3155,-0.6062,-0.0478,0.1882,43.9619
16:53:59:587,0.4857,0.6987,13.0696,49.5717,-1.0009,0.0365,0.1418,43.9545
16:53:59:603,-0.2752,0.8255,14.2325,49.5313,-0.7724,0.3346,0.1699,43.8916
16:53:59:621,-0.5025,0.95,12.414,47.2318,0.0009,0.4348,0.2994,43.6361
16:53:59:638,-0.0096,0.8638,10.1384,48.9744,0.5507,-0.0246,0.3727,43.3799
16:53:59:659,0.6508,0.5623,9.6622,47.9944,0.4725,-0.6049,0.3421,43.2655
16:53:59:696,0.6939,0.3493,10.727,48.699,0.0559,-0.7527,0.2591,43.2817
16:53:59:697,0.3805,0.5312,11.7727,50.7342,-0.1762,-0.413,0.2505,43.2594
16:53:59:720,0.3589,0.8614,11.0357,48.367,-0.0528,0.0402,0.3299,43.0622
16:53:59:740,0.2441,1.4692,9.4253,50.3261,0.161,0.3688,0.3849,42.694
16:53:59:759,-0.4618,1.9908,7.9346,49.726,0.0938,0.5643,0.2994,42.3099
16:53:59:780,-0.9787,2.0076,7.87,49.9643,-0.004,0.4874,0.2481,41.6385
16:53:59:798,-1.2538,2.0985,7.7862,48.8227,-0.015,0.3701,0.2762,41.403
16:53:59:818,-0.9643,2.0602,7.5781,48.3192,0.0486,0.2723,0.3788,41.0769
16:53:59:837,-0.7035,2.1129,7.4465,48.2611,0.1145,0.1844,0.4631,40.6453
16:53:59:860,-0.548,2.1176,7.5924,48.4415,0.1366,0.1159,0.4985,40.1784
16:53:59:880,-0.524,2.144,7.6307,49.8611,0.15,0.1062,0.5022,39.7144
16:53:59:899,-0.6197,2.132,7.59,49.4284,0.1512,0.133,0.4949,39.2551
16:53:59:920,-0.5456,2.0578,7.7934,48.2506,0.0913,0.133,0.5083,38.7632
16:53:59:939,-0.3972,2.0148,8.3988,48.7898,0.0095,0.1453,0.5413,38.2456
16:53:59:958,-0.4259,1.9214,9.4158,48.4639,-0.0101,0.1807,0.5731,37.6686
16:53:59:984,-0.4307,1.9358,9.6503,48.166,0.117,0.199,0.617,37.0727
16:54:00:000,-0.3613,2.0459,9.4277,49.6646,0.3296,0.2014,0.6647,36.3867
16:54:00:017,-0.4427,2.1416,9.6718,50.4153,0.4591,0.1807,0.6903,35.7002
16:54:00:046,-0.4546,2.3163,9.9972,50.571,0.5202,0.1208,0.7038,35.007
16:54:00:057,-0.1196,2.1942,10.8826,48.6274,0.5421,-0.0209,0.6916,34.3555
16:54:00:077,-0.1795,2.2014,12.3422,49.7375,0.4908,-0.2762,0.6134,33.8961
16:54:00:096,-0.4642,2.4981,13.1629,49.6507,0.4297,-0.3825,0.5193,33.5675
16:54:00:116,-0.39,1.9956,12.871,47.9393,0.3931,-0.1382,0.4692,33.244
16:54:00:136,-1.1557,1.9167,13.3352,49.3071,0.2208,0.2503,0.4252,32.8909
16:54:00:156,-2.4407,2.333,13.3472,49.1894,0.1671,0.6865,0.4875,32.3828
16:54:00:177,-3.5318,2.9001,11.4544,48.8268,0.4713,1.064,0.628,31.6257
16:54:00:196,-3.7256,3.2638,8.8846,46.2391,0.7327,1.0982,0.7759,30.653
16:54:00:219,-2.077,1.9573,9.2459,46.9255,-0.1567,0.1734,0.8027,29.6458
16:54:00:236,-1.8903,1.139,11.8564,46.5272,-0.7553,-0.1944,0.7099,28.2896
16:54:00:256,-1.7444,0.5934,13.2419,48.6,-0.8139,-0.2274,0.738,27.7632
16:54:00:276,-1.3902,0.6126,11.9761,47.87,-0.3387,0.0292,0.9347,26.9349
16:54:00:297,-0.6102,1.0098,9.8776,48.0208,0.1378,0.4104,1.1876,25.647
16:54:00:316,0.1795,1.2251,8.9587,48.3599,0.2685,0.6242,1.3256,24.1097
16:54:00:336,0.5934,1.4931,9.0042,50.0353,0.2575,0.6853,1.3012,22.5459
16:54:00:357,0.6102,1.8114,8.54,50.3707,0.3845,0.6242,1.2071,21.097
16:54:00:376,0.6461,2.2205,7.2479,48.5126,0.6558,0.5118,1.1167,19.7436
16:54:00:397,0.7992,2.6488,5.7763,48.8805,0.8549,0.4385,1.0336,18.4747
16:54:00:418,0.859,2.9934,4.8407,48.0897,0.8427,0.425,0.9115,17.3151
16:54:00:440,0.6676,3.3428,4.4554,46.1628,0.6619,0.4275,0.7368,16.347
16:54:00:464,0.3374,3.6514,4.4148,48.1272,0.4102,0.3664,0.5352,15.6004
16:54:00:479,0.1914,3.6706,4.8311,48.6868,0.1341,0.1856,0.3434,15.1452
16:54:00:498,0.2273,3.5653,5.5825,47.9385,-0.1029,-0.0575,0.1931,14.9463
16:54:00:518,0.3183,3.4552,6.6018,49.4251,-0.2312,-0.2701,0.0697,14.9483
16:54:00:536,0.3493,3.3978,7.4202,49.5583,-0.2153,-0.4167,-0.0524,15.1089
16:54:00:557,0.1579,3.4313,7.9394,47.3935,-0.0662,-0.4693,-0.1905,15.4769
16:54:00:575,-0.2393,3.338,7.9561,48.1754,0.0645,-0.5511,-0.3396,16.0633
16:54:00:596,-0.7202,3.326,8.3916,47.6152,0.0388,-0.6891,-0.4483,16.8545
16:54:00:616,-1.151,3.4552,9.4804,46.4975,-0.1591,-0.8028,-0.4678,17.7358
16:54:00:709,-1.206,3.5246,10.6241,47.934,-0.4083,-0.7564,-0.375,18.5054
16:54:00:710,1.6319,1.9836,14.8331,45.8112,-1.0607,-0.4803,-0.177,18.9592
16:54:00:710,1.5123,0.792,17.951,45.9584,-1.3759,-0.5548,-0.4019,19.8896
16:54:00:711,-0.1842,0.3063,20.0614,46.4245,-1.233,-0.5242,-0.6279,20.8581
16:54:00:717,-1.3017,0.347,18.9296,45.7545,-0.4877,-0.3202,-0.4874,21.6755
16:54:00:738,-0.536,1.0289,14.9982,46.6006,0.4578,0.0072,0.0025,21.7896
16:54:00:767,0.9069,1.8281,11.153,41.5676,0.9588,0.2564,0.4264,21.2774
16:54:00:783,1.6917,2.6106,9.0138,42.6971,0.8855,0.414,0.512,20.5382
16:54:00:798,1.8736,3.058,7.9202,42.704,0.5214,0.491,0.347,19.9037
16:54:00:817,1.4094,3.1705,7.3962,45.9653,0.1366,0.4886,0.049,19.5992
16:54:00:836,0.4953,2.9695,7.145,44.7316,-0.1322,0.5142,-0.2296,19.6812
16:54:00:858,-0.5886,2.8307,6.8794,43.2825,-0.2092,0.5765,-0.3701,19.9338
16:54:00:910,-1.4381,2.8259,6.3482,44.9121,-0.0956,0.5765,-0.3457,20.1552
16:54:00:911,-1.7348,2.8786,5.5442,43.7332,0.0938,0.3884,-0.1954,20.3156
16:54:00:918,-1.4788,2.9527,4.7043,43.2517,0.2502,0.0817,0.0123,20.3239
16:54:00:936,-0.8806,3.0604,4.1252,44.9121,0.2978,-0.2017,0.1907,20.2063
16:54:00:956,-0.3398,3.1585,4.2616,44.5035,0.2245,-0.3678,0.2798,20.0365
16:54:00:976,0.1316,3.2112,4.7689,44.4775,0.1182,-0.4143,0.2908,19.8428
16:54:00:996,0.2871,3.3595,5.5226,44.7489,0.0412,-0.4155,0.2359,19.725
16:54:01:016,0.2656,3.4481,6.8746,42.7647,-0.0101,-0.4497,0.1381,19.7436
16:54:01:037,0.0168,3.4505,7.9896,44.1229,0.0376,-0.5413,0.0441,19.9113
16:54:01:061,-0.0742,3.4026,9.0018,43.0567,0.172,-0.6574,-0.0024,20.1891
16:54:01:082,-0.0096,3.4241,9.88,41.9862,0.3137,-0.8101,-0.0109,20.5202
16:54:01:098,-0.0526,3.673,10.5882,41.1095,0.4151,-0.8797,-0.028,20.9103
16:54:01:117,0.2704,3.7735,11.4855,41.8664,0.4261,-0.7649,-0.0366,21.2867
16:54:01:137,-0.0168,3.996,13.9693,40.2806,0.2404,-0.1406,-0.138,21.5823
16:54:01:163,-0.6197,4.0487,13.3472,39.7904,0.3809,0.4825,-0.1196,21.871
16:54:01:183,-1.7037,4.6397,11.6507,39.7669,0.5825,1.0371,-0.0366,21.6178
16:54:01:198,-2.6632,5.1996,10.5356,40.3834,0.5592,1.2143,0.0245,21.2281
16:54:01:216,-3.0269,5.2905,10.4566,40.5767,0.2954,1.0066,0.0331,20.923
16:54:01:236,-2.7948,4.5942,11.196,40.2075,-0.1286,0.5289,-0.0268,20.8853
16:54:01:259,-2.4287,3.5557,12.6508,38.3135,-0.5574,0.1049,-0.1074,21.1047
16:54:01:277,-2.5914,2.4933,13.8449,39.9049,-0.792,-0.0368,-0.1404,21.4601
16:54:01:297,-2.7302,1.9334,12.9547,38.9134,-0.6832,0.2014,0.0013,21.5886
16:54:01:320,-2.1057,2.0794,10.593,38.9134,-0.3912,0.783,0.3922,21.0261
16:54:01:342,-0.7777,2.2253,8.54,37.9421,-0.2483,1.3694,0.8101,19.751
16:54:01:359,0.4834,2.2923,7.4034,37.6323,-0.3082,1.6517,1.0007,18.0792
16:54:01:378,1.1749,2.2875,7.267,37.6754,-0.4291,1.5466,0.9542,16.4412
16:54:01:397,1.3089,2.2014,7.8054,37.1195,-0.4462,1.0823,0.7844,15.1185
16:54:01:417,1.1294,2.1679,7.8796,36.9004,-0.2275,0.4666,0.6207,14.2153
16:54:01:436,1.0528,2.1512,6.5539,36.9964,0.1927,-0.0025,0.5279,13.5797
16:54:01:456,1.0887,2.3617,4.8598,36.9959,0.5336,-0.1724,0.4802,13.0521
16:54:01:477,1.0074,2.6058,4.1492,37.5235,0.5922,-0.1027,0.4155,12.5525
16:54:01:504,0.6317,2.7374,4.5105,37.5235,0.4383,-0.0722,0.2994,12.0942
16:54:01:523,0.0024,2.4885,6.4199,35.4622,0.2648,-0.5413,0.0807,12.2039
16:54:01:540,0.1172,2.2851,7.3484,36.8664,0.3393,-0.9714,0.0306,12.5451
16:54:01:561,0.3111,2.3282,7.5733,36.9525,0.442,-1.3098,-0.028,13.1062
16:54:01:579,0.3111,2.4598,7.8006,37.0983,0.4371,-1.41,-0.127,13.7867
16:54:01:596,0.4977,2.4479,9.0257,35.6027,0.1781,-1.3526,-0.2357,14.5729
16:54:01:615,0.5288,2.1679,10.4542,36.5893,-0.164,-1.0948,-0.3347,15.3776
16:54:01:638,-0.2249,2.6417,11.0812,35.1334,-0.3619,-0.6158,-0.4043,16.095
16:54:01:657,-0.4762,3.283,10.8275,33.8791,-0.4987,-0.0551,-0.3591,16.5299
16:54:01:676,0.28,3.3499,11.0213,31.741,-0.8958,0.4421,-0.3053,16.6874
16:54:01:697,1.6463,1.6176,14.2206,31.9617,-1.6618,0.8416,-0.397,16.7672
16:54:01:720,0.9141,-0.122,19.8245,31.5196,-2.4291,0.6865,-0.7269,17.3366
16:54:01:741,-0.7202,-0.9117,20.4108,34.7433,-2.2409,0.2968,-0.9125,18.3484
16:54:01:759,-2.0387,-0.2991,17.7141,31.7754,-1.1682,0.3664,-0.6254,19.0969
16:54:01:777,-1.3208,0.0646,14.1488,32.2416,-0.1933,0.3933,-0.0488,19.1861
16:54:01:797,0.323,0.4307,11.5741,35.3085,0.3503,0.199,0.3873,18.7365
16:54:01:817,1.3735,0.9045,9.3918,34.3138,0.6081,-0.0722,0.5205,18.1425
16:54:01:837,1.5482,1.4453,7.3316,34.7448,0.7327,-0.1443,0.424,17.683
16:54:01:858,1.3232,1.9023,5.7021,33.5768,0.7181,-0.0514,0.2701,17.3531
16:54:01:877,0.9978,2.3139,4.7856,32.9877,0.6045,0.1172,0.1491,17.1002
16:54:01:896,0.725,2.479,4.2257,33.3979,0.4664,0.2821,0.0636,16.8894
16:54:01:916,0.5145,2.6225,4.063,33.4337,0.3552,0.3542,-0.006,16.7684
16:54:01:937,0.2704,2.7852,4.0965,32.0135,0.2746,0.2968,-0.0732,16.7067
16:54:01:957,-0.0383,2.9288,4.2616,30.1554,0.2208,0.1489,-0.1441,16.7904
16:54:01:977,-0.5336,3.0389,5.1709,31.3414,0.1585,-0.082,-0.2064,17.0246
16:54:01:997,-0.6532,3.0556,6.1519,31.4919,0.1353,-0.3947,-0.2223,17.3872
16:54:02:018,-0.39,3.1418,6.4152,29.42,0.2062,-0.6427,-0.1893,17.7728
16:54:02:041,0.1962,3.5366,8.3844,29.819,0.0217,-0.6317,-0.1587,18.4358
16:54:02:057,-0.2991,3.5509,10.0451,29.1354,-0.0992,-0.4326,-0.2259,18.8161
16:54:02:077,-1.1007,3.8979,10.6385,29.0561,0.0254,-0.1773,-0.2381,19.1779
16:54:02:096,-1.1916,4.3334,10.3825,29.3335,0.2208,0.0829,-0.1172,19.3006
16:54:02:117,-0.4834,4.2832,11.1194,26.6271,0.205,0.2039,0.0184,19.2011
16:54:02:144,0.2106,3.9817,13.0385,27.0382,-0.0137,0.0439,0.0184,19.1438
16:54:02:161,0.2513,4.252,13.9167,27.9173,-0.1151,-0.1944,-0.0818,19.2655
16:54:02:178,0.39,4.1946,13.8233,22.5135,0.0376,-0.0697,-0.1612,19.4571
16:54:02:197,-0.0742,3.8142,13.0983,27.1359,0.2331,0.2039,-0.243,19.6199
16:54:02:218,-1.8999,3.996,12.2536,26.9123,0.3112,0.3872,-0.3738,19.9653
16:54:02:238,-3.1585,4.0271,11.4951,24.8107,0.3345,0.5692,-0.3945,20.3147
16:54:02:258,-3.1896,3.8022,10.6265,28.029,0.2831,0.6315,-0.276,20.4809
16:54:02:276,-2.5986,2.8881,10.7294,27.5863,-0.0052,0.4531,-0.1844,20.5878
16:54:02:297,-2.1775,2.1057,12.1101,27.5076,-0.3912,0.1966,-0.1221,20.7583
16:54:02:316,-1.7348,1.4046,12.6413,25.0996,-0.5708,0.1074,-0.0378,20.8476
16:54:02:340,-1.6845,1.4501,10.952,25.574,-0.3668,0.4617,0.1296,20.603
16:54:02:362,-1.5697,1.5434,8.8152,25.9618,-0.1408,1.0555,0.3849,19.8844
16:54:02:376,-0.9165,1.6463,7.992,24.6406,-0.186,1.4366,0.6439,18.6956
16:54:02:400,-0.1412,1.663,8.3414,25.2996,-0.346,1.4097,0.771,17.3452
16:54:02:420,0.3111,1.6295,8.8343,26.9215,-0.3595,1.0408,0.7197,16.1452
16:54:02:439,0.4379,1.6439,8.7099,26.4161,-0.153,0.502,0.5877,15.2296
16:54:02:457,0.2776,1.6845,7.6929,24.6853,0.1671,0.0133,0.4729,14.6408
16:54:02:476,0.012,1.9047,6.4008,26.3389,0.4261,-0.2151,0.4203,14.1702
16:54:02:497,0.1986,2.2923,5.3815,26.6921,0.4933,-0.082,0.4827,13.6466
16:54:02:522,0.5001,2.4048,5.3264,27.2082,0.4334,-0.093,0.4656,12.4988
16:54:02:542,0.5168,2.5196,5.6255,26.0042,0.3528,-0.2811,0.3556,12.0821
16:54:02:556,0.469,2.3976,6.4558,26.792,0.2648,-0.5682,0.1907,11.9778
16:54:02:575,0.5121,2.187,7.5829,25.3717,0.2159,-0.8749,0.0343,12.1127
16:54:02:595,0.3613,2.01,8.9324,25.6864,0.2306,-1.1693,-0.116,12.5375
16:54:02:619,0.2106,1.9358,9.667,27.1781,0.3357,-1.4063,-0.2516,13.2101
16:54:02:638,0.2465,2.065,9.0568,25.2996,0.4664,-1.4979,-0.3322,13.9817
16:54:02:658,0.4762,2.1751,7.9872,25.9618,0.4029,-1.2267,-0.342,14.7064
16:54:02:677,0.1436,2.8475,7.8867,26.1667,0.04,-0.4509,-0.3176,15.1101
16:54:02:698,0.39,3.1896,9.052,24.4898,-0.5122,0.4763,-0.3017,15.116
16:54:02:718,0.6867,2.8738,11.2678,25.9136,-1.0705,0.9541,-0.48,15.1169
16:54:02:783,0.4116,1.6463,14.1894,25.155,-1.5213,0.6303,-0.9015,15.7064
16:54:02:784,-0.7202,0.1914,17.4604,24.2931,-1.7376,-0.2225,-1.3328,17.1247
16:54:02:784,-1.9549,-0.8901,19.8915,22.9151,-1.5299,-1.074,-1.4318,19.006
16:54:02:796,-2.1703,-0.8159,19.3795,23.3643,-0.8066,-1.4454,-1.0701,20.5642
16:54:02:819,-0.6485,-0.0144,14.924,24.0112,0.1708,-1.0508,-0.3652,21.1831
16:54:02:838,1.3185,1.2036,10.605,22.9971,0.6704,-0.2835,0.2346,20.8324
16:54:02:856,2.6393,2.0985,8.7482,24.4422,0.5043,0.3982,0.4301,19.9839
16:54:02:876,2.7422,2.68,8.5137,24.7727,0.117,0.8148,0.2542,19.2008
16:54:02:897,1.6989,2.802,8.3988,24.2527,-0.098,0.8942,-0.1355,18.8589
16:54:02:920,0.2871,2.7374,7.6163,24.6116,-0.0565,0.7598,-0.4715,18.9871
16:54:02:939,-0.658,2.8092,6.5874,23.1992,0.0987,0.5655,-0.5815,19.2741
16:54:02:957,-0.9715,3.0054,5.2522,26.2595,0.3015,0.2137,-0.408,19.5795
16:54:02:976,-1.0863,3.1537,4.8311,26.1512,0.3479,0.1001,-0.3347,20.111
16:54:02:996,-1.3495,3.2973,4.6636,24.6235,0.3454,0.0207,-0.2968,20.2703
16:54:03:018,-1.4979,3.4863,4.8455,25.1609,0.2917,-0.0759,-0.2504,20.4146
16:54:03:039,-1.474,3.6706,5.3982,26.0692,0.2111,-0.1883,-0.1832,20.4982
16:54:03:057,-1.194,3.716,6.3194,25.7865,0.1243,-0.2994,-0.127,20.5374
16:54:03:077,-1.1127,3.7376,7.5159,24.5553,0.0547,-0.3947,-0.1001,20.5721
16:54:03:097,-1.0648,3.6467,8.6046,26.7078,0.0571,-0.3898,-0.0928,20.6106
16:54:03:117,-1.2299,3.5916,9.6933,24.5553,0.15,-0.3043,-0.0915,20.6208
16:54:03:137,-1.6199,3.472,10.5667,27.0468,0.2856,-0.2774,-0.0867,20.6588
16:54:03:156,-1.6917,3.2734,11.0644,27.2666,0.442,-0.3288,-0.0488,20.666
16:54:03:176,-0.9236,3.0006,11.9067,25.5497,0.4676,-0.4839,0.0184,20.6165
16:54:03:199,-0.5336,2.8642,13.809,25.0423,0.266,-0.7038,0.0013,20.7045
16:54:03:218,-0.6174,2.8522,14.5149,27.7181,0.2099,-0.5352,-0.0329,20.7366
16:54:03:236,-0.8279,2.9695,12.9093,28.3061,0.4713,0.2515,0.0599,20.4117
16:54:03:256,-1.6678,3.6969,10.5404,28.3317,0.7193,1.1837,0.22,19.638
16:54:03:277,-2.7948,4.4794,8.7697,29.4694,0.6851,1.7005,0.3006,18.5406
16:54:03:302,-3.283,4.812,8.1954,29.7613,0.3784,1.6174,0.2982,17.4409
16:54:03:316,-3.0748,4.2233,9.1573,28.198,-0.1628,0.9711,0.1833,16.7111
16:54:03:335,-2.9456,2.6704,11.5262,29.6771,-0.7467,0.0805,-0.0537,16.6234
16:54:03:355,-3.7639,1.1749,13.3472,27.7259,-1.0754,-0.6158,-0.2699,17.0446
16:54:03:375,-4.5607,0.4187,13.2873,31.0903,-0.9948,-0.782,-0.1673,17.5058
16:54:03:395,-4.1755,0.6843,11.6028,29.4156,-0.6466,-0.3837,0.3996,17.1256
16:54:03:415,-0.1244,1.0409,9.7603,29.2567,-0.2544,0.6792,1.5529,15.7192
16:54:03:437,0.8638,1.1868,9.198,30.622,-0.142,1.1397,1.6384,13.8539
16:54:03:455,1.0648,1.3854,8.6572,30.3359,-0.0321,1.2693,1.5321,9.0867
16:54:03:477,1.0911,1.6343,8.3246,29.7873,0.0938,1.0322,1.377,6.9485
16:54:03:497,1.2347,1.7252,7.8604,31.8857,0.2746,0.5887,1.256,5.0578
16:54:03:520,1.5099,1.8712,6.8674,30.2335,0.5079,0.1709,1.1705,3.3441
16:54:03:536,1.7468,2.0937,5.5825,32.1231,0.6912,-0.0612,1.0691,1.8347
16:54:03:556,1.8473,2.2899,4.7904,33.233,0.7059,-0.1418,0.9347,0.5051
16:54:03:576,1.8808,2.455,4.4865,32.2545,0.5629,-0.1773,0.7795,359.3198
16:54:03:597,1.8784,2.6393,4.6947,32.072,0.3613,-0.231,0.6207,358.345
16:54:03:617,2.1464,2.7254,5.3432,31.5489,0.1817,-0.3434,0.4741,357.5568
16:54:03:637,2.3737,2.6345,6.3314,33.9089,0.0816,-0.5474,0.2933,357.038
16:54:03:656,1.9645,2.5842,7.7384,33.707,0.0669,-0.8223,0.0465,356.8645
16:54:03:676,1.2108,2.613,8.7745,33.7049,0.1646,-1.1559,-0.1991,357.1111
16:54:03:699,0.9021,2.6417,8.5137,32.1231,0.3222,-1.4368,-0.3359,357.6439
16:54:03:719,0.3493,2.7541,8.0925,32.3685,0.3222,-1.344,-0.3652,358.2348
16:54:03:736,-0.6437,2.8666,9.2243,32.8313,0.0095,-0.7502,-0.3102,358.5916
16:54:03:756,-0.603,2.6608,11.9426,33.0775,-0.5171,0.0268,-0.1147,358.4393
16:54:03:777,0.2536,2.3426,14.8379,32.9967,-0.996,0.5008,0.0086,357.8953
16:54:03:800,0.4475,1.7874,17.5298,32.2347,-1.2403,0.5472,-0.171,357.5059
16:54:03:815,-0.5121,1.2203,19.3914,32.3467,-1.1389,0.3029,-0.4923,357.6078
16:54:03:836,-1.7348,1.0122,17.9414,34.4285,-0.5769,0.0854,-0.6376,357.9863
16:54:03:856,-1.6223,1.675,14.0052,33.7501,0.1549,0.1159,-0.4324,358.1376
16:54:03:876,1.6941,3.07,9.2961,33.7664,0.453,0.2931,0.1772,357.7184
16:54:03:896,2.7063,3.3141,8.674,35.1946,0.1866,0.0927,0.0612,357.3419
16:54:03:917,2.9145,3.2758,8.2289,34.3058,-0.0492,-0.1003,-0.2614,356.5815
16:54:03:936,2.3928,3.0293,7.9801,33.8858,-0.175,-0.0746,-0.6364,356.8097
16:54:03:955,1.6534,2.7039,7.322,34.4753,-0.2006,0.1269,-0.9394,357.3119
16:54:03:977,0.6939,2.6154,6.4534,34.5874,-0.1909,0.3957,-1.1276,357.9338
16:54:04:000,-0.2177,2.5986,5.9127,32.9457,-0.2043,0.6413,-1.196,358.6349
16:54:04:015,-0.9141,2.7063,5.5011,34.1913,-0.1945,0.7989,-1.1557,359.3297
16:54:04:037,-1.4046,2.9791,5.0297,32.7492,-0.1371,0.7879,-1.0237,359.8963
16:54:04:055,-1.3543,3.2112,4.9029,33.9644,-0.0907,0.6242,-0.816,0.3006
16:54:04:077,-1.084,3.4911,5.0082,33.81,-0.0712,0.4006,-0.6193,0.529
16:54:04:098,-0.8853,3.7041,5.4867,34.7488,-0.076,0.2198,-0.513,0.674
16:54:04:116,-1.0265,3.7783,6.5372,34.3571,-0.0931,0.1489,-0.4923,0.8346
16:54:04:137,-1.6032,3.8501,7.7934,35.5048,-0.0846,0.1489,-0.5155,1.0244
16:54:04:156,-2.2756,3.8046,8.9994,34.9468,-0.015,0.122,-0.5216,1.2422
16:54:04:179,-2.8283,3.5988,10.1886,34.0777,0.0987,0.0378,-0.48,1.4642
16:54:04:197,-3.4911,3.5055,11.0955,35.0225,0.2612,-0.0771,-0.3896,1.66
16:54:04:216,-4.3813,3.6658,11.5047,34.4868,0.4774,-0.0893,-0.243,1.7563
16:54:04:235,-4.5392,3.8094,11.5573,37.2053,0.668,-0.0416,0.0025,1.5839
16:54:04:257,-3.9194,3.9194,12.079,34.949,0.6741,-0.0966,0.2774,1.0619
16:54:04:277,-3.3643,3.9218,13.2634,36.5301,0.5043,-0.2799,0.4374,0.4339
16:54:04:295,-2.5675,3.5246,13.7013,36.7213,0.4444,-0.3104,0.4998,359.73
16:54:04:315,-2.0435,3.2518,12.8614,35.6236,0.5764,-0.1174,0.5205,358.8975
16:54:04:337,-4.4028,4.7856,6.9966,35.6286,1.0308,1.4843,0.6305,356.7477
16:54:04:359,-5.5035,6.0538,5.9868,36.4406,0.7987,2.188,0.7966,354.8312
16:54:04:381,-5.6375,6.1185,8.1739,37.2468,0.0901,1.9803,0.8785,352.8504
16:54:04:401,-5.2858,4.6708,11.3013,37.1477,-0.594,0.871,0.7661,351.4446
16:54:04:416,-5.135,2.9408,14.7542,37.1723,-0.9618,-0.589,0.5437,350.8609
16:54:04:436,-5.0249,1.1701,17.1063,36.7547,-0.8885,-1.5835,0.4289,350.7797
16:54:04:454,-4.5416,0.603,15.819,37.9562,-0.2715,-1.5065,0.5853,350.4789
16:54:04:477,-2.802,0.4498,11.921,37.4696,0.4444,-0.4656,1.0886,349.2206
16:54:04:496,-0.7872,1.1318,9.0425,37.6337,0.7352,0.9162,1.6262,346.7798
16:54:04:516,1.0289,1.7444,7.7791,37.7681,0.6973,1.8899,1.8864,343.5222
16:54:04:534,2.3497,2.2564,7.3077,37.9198,0.6716,2.1525,1.818,340.1175
16:54:04:556,2.5436,2.4503,6.1902,39.547,0.8305,1.9192,1.471,337.1662
16:54:04:579,2.0195,2.5125,4.8287,38.7368,1.0431,1.5136,1.0471,334.868
16:54:04:597,1.4429,2.601,3.5701,41.3134,1.1286,1.1422,0.7576,333.0436
16:54:04:616,1.0146,2.7948,2.7159,39.3717,1.0553,0.8844,0.6232,331.5278
16:54:04:635,0.9428,3.1059,2.2851,37.3603,0.8537,0.6401,0.5633,330.2336
16:54:04:656,1.2993,3.2375,2.2971,40.6824,0.5666,0.3175,0.4985,329.1512
16:54:04:677,1.6367,3.3715,2.948,41.3204,0.2245,-0.071,0.3446,328.4372
16:54:04:696,1.7683,3.2399,4.276,40.5002,-0.0944,-0.4754,0.0905,328.2225
16:54:04:718,1.2036,3.0532,5.9055,40.2383,-0.3045,-0.8235,-0.2149,328.4847
16:54:04:737,0.4666,3.0126,6.719,39.9286,-0.3277,-1.1033,-0.4568,329.1727
16:54:04:757,0.1005,3.3236,6.719,41.6058,-0.2385,-1.3098,-0.5656,330.0923
16:54:04:777,0.536,3.4265,7.1354,38.7986,-0.759,-1.3135,-0.7427,331.1349
16:54:04:859,-0.1507,3.4217,8.4634,39.4078,-1.2831,-0.7136,-0.9553,332.5037
16:54:04:860,-0.67,3.3882,9.466,38.6296,-1.6936,-0.049,-1.1385,333.4327
16:54:04:862,-0.67,2.5938,11.8229,38.0118,-2.1786,0.0878,-1.3939,335.1302
16:54:04:862,-1.34,1.1174,17.3551,37.8451,-2.7418,-0.3617,-1.802,336.6931
16:54:04:884,-3.2686,-0.3159,22.2126,37.3046,-2.8273,-1.1827,-2.1905,339.0076
16:54:04:899,-4.9747,-1.0193,20.8893,37.6716,-1.9636,-1.6531,-2.1184,341.4508
16:54:04:917,-5.0584,0.0144,16.0989,38.215,-0.7932,-1.1876,-1.3646,342.9899
16:54:04:935,-2.6465,1.1868,12.402,37.0534,-0.2642,-0.3642,-0.3481,343.1674
16:54:04:957,-0.0383,1.9454,10.9735,38.0459,-0.3082,0.3383,0.2725,342.4063
16:54:04:978,1.0122,2.5723,10.0738,37.4948,-0.3888,0.6816,0.2994,341.4999
16:54:04:997,0.4953,2.9001,9.2004,35.9778,-0.3094,0.634,-0.0549,341.0138
16:54:05:019,-0.5192,2.9073,8.0255,37.3098,-0.1151,0.2638,-0.4678,341.1614
16:54:05:034,-1.0624,2.7541,6.676,38.7624,0.0816,-0.1577,-0.6902,341.6824
16:54:05:056,-1.2203,2.7924,5.6638,37.82,0.2037,-0.3691,-0.7281,342.2787
16:54:05:076,-1.2371,2.8475,5.0943,36.9857,0.2221,-0.3764,-0.7171,342.8721
16:54:05:097,-1.4189,2.9193,4.9914,36.431,0.1989,-0.2799,-0.7219,343.4635
16:54:05:130,-1.6199,2.9958,5.2475,36.431,0.1805,-0.2029,-0.7281,344.7027
16:54:05:144,-2.2756,3.1035,6.5133,36.3128,0.2135,-0.3226,-0.761,345.3928
16:54:05:162,-2.5508,3.058,7.6786,36.6566,0.2221,-0.4888,-0.7769,346.1786
16:54:05:176,-2.7565,2.9815,9.1238,37.8309,0.2575,-0.6647,-0.7794,346.9922
16:54:05:198,-2.5484,2.7613,10.0211,35.9373,0.3271,-0.7735,-0.7684,347.7589
16:54:05:215,-2.4359,2.6919,11.2319,34.7008,0.3882,-0.6904,-0.7696,348.4576
16:54:05:243,-2.7661,2.4814,12.3159,36.7013,0.4224,-0.534,-0.7928,349.4954
16:54:05:257,-3.4959,2.5555,12.6365,37.7094,0.5446,-0.3055,-0.7659,350.227
16:54:05:274,-3.5486,2.7398,12.4857,38.0483,0.6912,-0.0429,-0.579,350.7155
16:54:05:303,-2.79,2.869,13.139,35.8579,0.6912,0.0634,-0.3335,350.8625
16:54:05:314,-2.2205,2.9169,13.4118,39.8036,0.6594,0.1343,-0.1844,350.78
16:54:05:334,-2.2995,2.9312,12.4786,36.8485,0.734,0.3688,-0.116,350.5881
16:54:05:353,-3.3356,3.2877,11.3468,37.0776,0.7657,0.6254,-0.0549,350.2674
16:54:05:373,-4.1444,3.5509,10.6265,40.0018,0.6619,0.7097,0.077,349.8328
16:54:05:393,-3.9745,3.6156,10.1862,38.7448,0.4798,0.557,0.2713,349.1982
16:54:05:414,-2.9312,3.3093,10.2102,38.1344,0.1903,0.2149,0.4008,348.502
16:54:05:435,-2.3713,2.5723,11.3731,39.1091,-0.2019,-0.115,0.3617,347.978
16:54:05:460,-2.4622,1.8831,12.8638,38.503,-0.4816,-0.2041,0.2713,347.5423
16:54:05:474,-2.8403,1.4788,12.7849,39.7545,-0.4083,-0.0429,0.3031,347.0697
16:54:05:495,-3.1657,1.4357,11.7488,40.1067,-0.0736,0.2833,0.5523,346.2266
16:54:05:515,-2.8355,1.474,10.4877,40.829,0.2917,0.5216,0.997,344.8251
16:54:05:536,-1.8257,1.5386,9.143,41.1528,0.657,0.535,1.4759,342.8716
16:54:05:555,-0.3398,1.6917,7.4225,41.9123,1.0125,0.4605,1.8632,340.5086
16:54:05:576,1.0122,2.0124,5.9845,40.6121,1.2446,0.3737,2.0562,337.9361
16:54:05:596,2.0243,2.3163,5.269,42.1315,1.2666,0.177,2.0049,335.4833
16:54:05:616,2.5149,2.4024,5.1661,41.659,1.1555,-0.1186,1.7471,333.4479
16:54:05:640,2.4096,2.4383,4.9866,42.1204,1.0467,-0.4033,1.3941,330.9184
16:54:05:657,2.1272,2.3521,4.7689,43.0156,0.9576,-0.6195,1.0642,330.2103
16:54:05:678,1.943,2.3282,4.5559,44.4326,0.8439,-0.7124,0.8174,329.6921
16:54:05:696,1.7946,2.345,4.9747,43.973,0.5202,-0.6916,0.4692,329.5433
16:54:05:716,1.7468,2.5651,5.0297,43.2803,0.3833,-0.7222,0.3018,329.4119
16:54:05:739,1.6415,3.0532,5.1541,44.8222,0.2123,-0.7637,0.1125,329.4909
16:54:05:759,1.7396,3.4768,5.5226,44.6535,-0.0284,-0.7454,-0.1013,329.7732
16:54:05:774,1.998,3.4959,6.8172,43.972,-0.3778,-0.705,-0.331,330.2213
16:54:05:794,1.5673,3.8118,7.657,42.42,-0.7052,-0.6061,-0.59,330.8602
16:54:05:814,0.6724,4.7641,7.3244,43.6425,-0.9459,-0.2298,-0.8075,331.5951
16:54:05:838,0.7131,5.135,8.0495,42.758,-1.3234,0.3517,-0.9345,332.1663
16:54:05:858,1.2395,4.8311,11.8469,43.2636,-1.9575,0.4947,-1.1544,332.8449
16:54:05:877,0.8471,3.7041,16.9388,41.5279,-2.4621,-0.2127,-1.5454,334.2656
16:54:05:896,-0.1507,2.5938,20.6022,41.7453,-2.3741,-1.228,-1.8911,336.5074
16:54:05:914,-1.3567,1.8018,19.7097,41.4154,-1.6423,-1.7692,-1.9327,338.9907
16:54:05:938,-1.5769,1.9143,15.9745,42.8468,-0.7443,-1.2682,-1.5185,340.8898
16:54:05:955,-0.1603,2.2062,12.3302,41.3647,-0.3008,-0.1088,-0.8649,341.7007
16:54:05:975,1.2323,2.4383,10.6552,40.333,-0.4083,0.9394,-0.4385,341.6956
16:54:05:995,1.6104,2.4383,10.794,41.5698,-0.6869,1.3975,-0.452,341.5723
16:54:06:017,0.6102,2.1679,10.9137,42.5287,-0.7297,1.2607,-0.7244,341.8382
16:54:06:037,-0.7872,1.9334,10.002,41.5698,-0.4242,0.8661,-0.9174,342.4465
16:54:06:054,-1.4644,1.9669,7.5829,40.7979,0.0718,0.5814,-0.8454,343.1134
16:54:06:074,-1.529,2.3186,5.1278,40.367,0.4273,0.5533,-0.6022,343.4977
16:54:06:095,-1.5099,2.6297,4.1228,39.1236,0.4505,0.6181,-0.3786,343.5949
16:54:06:118,-1.6965,2.7852,4.3047,40.9062,0.2844,0.5276,-0.2467,343.5849
16:54:06:140,-1.9956,3.1322,5.202,43.195,0.2135,-0.1064,-0.0476,343.6208
16:54:06:155,-1.943,3.4433,5.281,43.6141,0.3161,-0.4362,0.066,343.755
16:54:06:174,-1.6702,3.7591,5.6949,43.5431,0.3699,-0.6366,0.1711,343.7846
16:54:06:194,-1.5482,4.118,6.8004,43.6141,0.3259,-0.6794,0.22,343.6691
16:54:06:215,-1.4788,4.1492,8.0997,43.4935,0.2575,-0.6171,0.2017,343.5886
16:54:06:237,-1.517,3.9458,9.8489,43.5431,0.2184,-0.5279,0.1454,343.5237
16:54:06:256,-1.8568,3.8357,11.2917,44.8764,0.2453,-0.4949,0.1039,343.5123
16:54:06:275,-2.1846,3.8405,12.2178,43.2169,0.3736,-0.4094,0.1284,343.4827
16:54:06:294,-2.2636,3.9434,12.2656,43.7992,0.5446,-0.2005,0.2188,343.2516
16:54:06:315,-2.1009,4.5511,12.1819,43.9811,0.6264,0.1159,0.3715,342.7865
16:54:06:338,-1.3472,4.6612,11.9833,45.3286,0.5776,0.4825,0.5132,341.9944
16:54:06:356,-1.6367,4.5368,11.6507,44.7724,0.4383,0.7683,0.4741,341.1714
16:54:06:376,-3.4624,4.4698,11.5693,45.0107,0.2404,0.8746,0.3043,340.5195
16:54:06:402,-4.8072,4.4435,11.2534,44.8537,0.117,0.9247,0.2908,339.8888
16:54:06:415,-4.8,4.4937,10.8084,46.5533,0.0083,0.8661,0.4851,339.069
16:54:06:434,-3.6562,3.8429,11.4329,46.3164,-0.2495,0.6266,0.6708,338.1036
16:54:06:453,-2.6465,2.8929,12.5623,47.1128,-0.5843,0.2747,0.6879,337.2498
16:54:06:473,-1.943,1.9908,12.7609,47.3551,-0.7529,0.1954,0.6329,336.4377
16:54:06:494,-1.8233,1.5362,12.4881,46.449,-0.6857,0.5985,0.6439,335.4698
16:54:06:517,-2.0315,1.194,11.5741,47.1314,-0.4865,1.1104,0.7417,334.2147
16:54:06:535,-1.9047,1.1773,10.1862,48.8496,-0.1872,1.4354,0.9542,332.6272
16:54:06:553,-0.9476,1.2467,9.0879,48.5677,0.0767,1.4012,1.2181,330.697
16:54:06:576,0.0622,1.3328,8.3629,48.0349,0.2355,1.0909,1.366,328.7486
16:54:06:594,0.5025,1.5194,7.9322,47.2449,0.3589,0.7341,1.3403,326.9187
16:54:06:614,0.6437,1.6798,6.7406,49.4298,0.6656,0.2173,1.1534,325.313
16:54:06:634,0.9547,1.9095,5.9366,50.3143,0.7865,0.0109,1.1131,322.7138
16:54:06:655,1.3735,2.0602,5.7882,50.7911,0.7364,-0.2127,1.0373,321.6305
16:54:06:676,1.6582,1.998,6.3912,51.4106,0.5739,-0.4473,0.8809,320.8113
16:54:06:694,1.7444,1.8879,7.0158,52.0678,0.4884,-0.6574,0.6561,320.326
16:54:06:718,1.4429,1.9119,6.719,52.6101,0.5739,-0.7612,0.4252,320.146
16:54:06:736,1.0265,2.12,5.7069,52.86,0.6729,-0.7918,0.2408,320.2101
16:54:06:754,0.7896,2.522,4.9771,53.8265,0.5983,-0.76,0.1125,320.4022
16:54:06:775,0.7346,2.8355,5.2355,53.1226,0.2941,-0.6708,-0.0097,320.6913
16:54:06:793,0.5838,2.7278,7.1067,51.4219,-0.1554,-0.6488,-0.1392,321.1358
16:54:06:815,-0.1077,2.8163,8.3342,52.0861,-0.4022,-0.6831,-0.2724,321.6993
16:54:06:838,-0.7513,3.5007,7.9992,52.9872,-0.3619,-0.611,-0.3176,322.3078
16:54:06:854,-0.2369,3.6634,8.0877,53.9065,-0.4902,-0.5523,-0.3017,322.854
16:54:06:946,0.9978,3.0317,10.1575,53.5901,-1.0229,-0.5988,-0.4104,323.4739
16:54:06:947,1.1821,1.9167,14.0818,53.4837,-1.6826,-0.6464,-0.7122,324.3702
16:54:06:948,-0.3254,1.0863,17.537,52.2901,-1.9172,-0.5768,-1.0518,325.6035
16:54:06:948,-2.2732,1.1055,17.7906,53.4802,-1.4639,-0.4228,-1.1092,326.8798
16:54:06:962,-2.7182,1.7157,14.8379,53.9506,-0.6502,-0.2041,-0.7342,327.7316
16:54:06:974,-1.0193,2.5268,11.5932,53.1066,-0.1505,-0.0587,-0.1856,327.9265
16:54:06:994,0.7657,2.8881,9.9685,53.2966,-0.2019,0.0817,0.0844,327.7791
16:54:07:014,1.4596,3.0604,9.7771,52.8484,-0.5012,0.2711,0.0099,327.6223
16:54:07:034,1.0528,3.0485,9.9182,53.3079,-0.6796,0.4543,-0.2443,327.7026
16:54:07:053,0.1962,3.0197,9.2171,52.3621,-0.5928,0.5374,-0.452,328.0373
16:54:07:073,-0.5049,3.594,6.1496,53.2593,-0.1298,0.5057,-0.4043,328.3929
16:54:07:093,-0.5575,3.8189,5.3695,53.0164,-0.087,0.4226,-0.3481,328.9899
16:54:07:115,-0.67,3.9147,5.2188,53.6572,-0.1383,0.2931,-0.3432,329.3059
16:54:07:139,-1.0552,3.9482,5.5872,54.7519,-0.1933,0.1269,-0.3774,329.7076
16:54:07:155,-1.3639,3.8429,6.14,54.0262,-0.2165,-0.104,-0.3982,330.1933
16:54:07:173,-1.5625,3.8094,6.81,53.739,-0.1762,-0.2994,-0.3615,330.6534
16:54:07:194,-1.6223,3.7615,7.6044,54.8199,-0.0968,-0.4167,-0.2882,331.0762
16:54:07:218,-1.6104,3.6802,8.2648,55.0405,-0.0003,-0.479,-0.2174,331.4298
16:54:07:237,-1.4501,3.5079,8.6261,54.903,0.0681,-0.4693,-0.1673,331.7769
16:54:07:258,-1.4189,3.4122,9.1478,55.893,0.029,-0.319,-0.1404,332.0659
16:54:07:274,-1.73,3.1442,10.9208,55.5624,-0.1579,-0.0551,-0.1416,332.2831
16:54:07:294,-2.0674,2.9025,12.7202,56.0515,-0.2361,0.1526,-0.1209,332.4146
16:54:07:315,-1.7444,2.6728,13.8473,55.7982,-0.109,0.1233,-0.0537,332.4828
16:54:07:335,-0.9404,2.2205,15.1298,56.5541,-0.0064,-0.1699,-0.0439,332.5784
16:54:07:355,-1.0457,1.9549,15.606,56.6783,0.1402,-0.3068,-0.1282,332.8054
16:54:07:374,-1.5625,1.9047,14.0937,58.2072,0.5165,0.1111,-0.1209,332.9286
16:54:07:395,-1.8138,2.3474,11.3731,58.714,0.9038,0.8013,0.1137,332.6311
16:54:07:416,-2.4359,2.7805,9.734,56.6054,0.9808,1.279,0.3409,331.9391
16:54:07:436,-3.2662,3.326,9.0186,59.4218,0.905,1.4012,0.4827,331.0378
16:54:07:460,-3.5988,3.8189,8.6525,58.4918,0.8488,1.1361,0.6158,330.0832
16:54:07:473,-3.192,4.0271,8.3868,59.7854,0.7547,0.4996,0.6696,329.2627
16:54:07:493,-2.0267,3.7711,8.3677,62.5777,0.5287,-0.2811,0.6048,328.7912
16:54:07:518,-1.0887,3.2614,9.1406,59.2329,0.0706,-0.8834,0.4264,328.7033
16:54:07:536,-1.9023,1.1151,12.4283,58.3242,-0.8201,-0.6672,-0.0622,329.2317
16:54:07:555,-3.0365,1.2012,10.5715,59.762,-0.6148,0.5631,0.121,328.9589
16:54:07:574,-2.3115,1.5458,8.7099,61.2908,-0.5183,1.9449,0.6769,327.6535
16:54:07:597,-0.871,1.7755,8.8008,61.5719,-0.7052,2.7769,1.0789,325.5981
16:54:07:615,0.079,1.8497,10.349,60.5823,-0.8518,2.6767,1.0727,323.562
16:54:07:634,0.2082,1.5769,11.4497,60.942,-0.5977,1.7286,0.7673,322.1608
16:54:07:655,-0.4187,1.2634,9.9661,61.8455,0.0987,0.4849,0.4277,321.478
16:54:07:680,-0.8806,1.2419,7.1187,61.2554,0.8183,-0.3739,0.2835,321.2829
16:54:07:699,-0.6652,1.3783,5.0034,63.0378,1.1176,-0.5975,0.3458,321.11
16:54:07:716,-0.0981,1.6008,4.5272,64.1902,1.0272,-0.3739,0.4582,320.7646
16:54:07:735,0.2536,1.742,4.7354,62.0904,0.8097,-0.1113,0.4814,320.3127
16:54:07:753,0.3398,1.8808,4.922,62.9707,0.6656,-0.0832,0.3959,319.8785
16:54:07:774,0.5168,1.9621,5.1972,64.2882,0.5764,-0.3849,0.253,319.704
16:54:07:801,0.6772,1.8257,5.7045,62.7768,0.4432,-0.8736,0.0697,319.9264
16:54:07:817,0.5073,1.7228,6.8315,63.9081,0.2489,-1.3196,-0.1538,320.6109
16:54:07:835,0.3183,1.395,8.1787,62.5472,0.0657,-1.6311,-0.3518,321.6298
16:54:07:854,-0.0455,1.4285,8.9204,64.1687,-0.0418,-1.7411,-0.48,322.842
16:54:07:874,-0.0502,1.6989,8.6907,64.1304,-0.0699,-1.465,-0.4813,323.9195
16:54:07:897,-0.0814,2.5579,7.8724,62.4218,-0.0882,-0.7845,-0.4019,324.6465
16:54:07:915,-0.2441,3.1872,7.7336,62.6829,-0.3411,-0.0917,-0.3982,325.0868
16:54:07:938,0.0215,3.0628,9.1549,63.6441,-0.8738,0.2662,-0.5155,326.2572
16:54:07:954,-0.6317,1.6965,15.8333,64.766,-1.872,-0.4803,-1.1483,327.6123
16:54:07:980,-1.9095,1.1222,17.8935,64.003,-1.7535,-0.9616,-1.3597,329.3661
16:54:07:999,-2.6058,1.1677,17.8959,61.2773,-1.2195,-1.1204,-1.2216,330.959
16:54:08:014,-2.0602,1.3161,15.8046,62.1532,-0.5586,-0.8284,-0.8014,332.0305
16:54:08:033,-0.7705,1.8808,13.2945,62.6865,-0.0944,-0.2115,-0.3163,332.4105
16:54:08:053,0.4714,2.3665,12.1484,62.8995,0.0034,0.2332,-0.028,332.3833
16:54:08:074,1.0026,2.4861,11.5334,63.2631,-0.0296,0.2894,-0.0524,332.355
16:54:08:096,0.3948,2.5292,9.9206,61.9233,0.0608,0.1795,-0.2748,332.5894
16:54:08:117,-0.5408,2.4861,8.2074,64.3152,0.1695,0.1819,-0.4581,333.0544
16:54:08:133,-1.2371,2.534,6.8483,62.9471,0.2013,0.3468,-0.4862,333.5459
16:54:08:152,-1.6367,2.6848,5.9127,62.1936,0.1952,0.5448,-0.3958,333.9096
16:54:08:173,-1.7157,2.8833,5.5418,60.7425,0.1793,0.5985,-0.2443,334.0815
16:54:08:194,-1.584,3.0676,5.3384,62.338,0.1891,0.4275,-0.1099,334.1434
16:54:08:213,-1.3352,3.149,5.2235,62.1901,0.2196,0.1135,-0.0427,334.2261
16:54:08:236,-1.4022,3.2351,5.2475,63.2194,0.2233,-0.1895,-0.0512,334.3779
16:54:08:255,-1.6199,3.2614,5.5418,63.0139,0.1658,-0.3434,-0.0793,334.622
16:54:08:280,-1.6869,3.2662,6.1591,62.3434,0.0596,-0.308,-0.0781,334.859
16:54:08:299,-1.6702,3.283,6.92,62.9363,-0.0589,-0.1088,-0.0561,335.0035
16:54:08:315,-1.8808,3.1705,8.1739,61.6074,-0.1982,0.1282,-0.0634,335.093
16:54:08:332,-2.2469,2.9264,9.9135,60.0525,-0.3008,0.2784,-0.0647,335.1286
16:54:08:353,-2.668,2.6728,11.2176,60.0733,-0.2202,0.276,-0.0146,335.0823
16:54:08:374,-3.0604,2.7685,11.4855,62.8691,0.0852,0.2088,0.1235,334.9237
16:54:08:396,-2.8594,2.8977,11.2008,62.8167,0.3968,0.1282,0.3312,334.5926
16:54:08:413,-1.9789,2.9862,11.0405,61.9013,0.5617,0.0964,0.5266,334.0342
16:54:08:434,-0.7609,2.8738,12.6891,63.2206,0.3149,-0.0991,0.5156,333.3847
16:54:08:453,-0.7944,2.5747,12.7083,62.0159,0.2636,0.1025,0.4045,332.3631
16:54:08:478,-1.4716,2.5866,11.4879,63.0351,0.3638,0.6205,0.3434,331.815
16:54:08:494,-2.5627,2.9312,10.1504,63.7127,0.4041,1.1629,0.3703,331.0888
16:54:08:515,-3.5725,3.5103,8.8511,63.8522,0.3845,1.5173,0.4827,330.166
16:54:08:534,-3.6993,4.1611,8.0112,64.3623,0.2807,1.5344,0.6427,329.0645
16:54:08:554,-2.7852,4.0104,8.3175,63.3974,-0.0443,1.0823,0.7185,327.9711
16:54:08:579,-1.8161,3.1226,10.94,61.9337,-0.5623,0.2283,0.5633,327.2758
16:54:08:595,-1.8473,1.6319,14.1535,62.8626,-0.9569,-0.7124,0.2224,327.2258
16:54:08:614,-2.2325,0.8614,14.9527,62.7104,-0.8201,-1.03,0.0343,327.4983
16:54:08:633,-2.2947,0.7083,12.4546,62.2405,-0.2495,-0.4631,0.2175,327.4066
16:54:08:654,-2.0291,1.0648,9.7292,61.8685,0.1488,0.6181,0.6537,326.5229
16:54:08:678,-1.1557,1.3424,8.2887,63.6385,0.1646,1.4684,1.0544,324.9198
16:54:08:693,-0.0981,1.584,7.803,62.3905,0.0412,1.6785,1.2658,323.0005
16:54:08:713,0.7035,1.7539,7.8317,61.0589,-0.0479,1.3487,1.2352,321.1794
16:54:08:734,0.9811,1.8329,7.791,61.9641,-0.0003,0.7378,1.0398,319.7439
16:54:08:752,1.0672,1.797,7.4824,62.5076,0.1585,0.0988,0.8064,318.7782
16:54:08:774,1.072,1.6822,6.7693,62.1734,0.3418,-0.3373,0.6073,318.174
16:54:08:793,1.0457,1.7468,5.8361,62.3367,0.4615,-0.4521,0.4729,317.7634
16:54:08:814,1.0552,1.876,5.458,61.3384,0.431,-0.3788,0.3605,317.4636
16:54:08:833,0.8399,1.9741,5.7069,61.0592,0.3039,-0.2909,0.2359,317.279
16:54:08:855,0.6963,2.077,6.4558,63.4049,0.2172,-0.3397,0.1149,317.2318
16:54:08:874,0.4475,2.2301,7.4034,62.656,0.2428,-0.6134,-0.0085,317.4432
16:54:08:894,0.1292,2.3043,8.5854,61.1088,0.3479,-1.1033,-0.1575,317.9808
16:54:08:914,-0.6221,3.192,8.7912,60.7541,0.6692,-1.9622,-0.4483,318.9207
16:54:08:933,-0.2345,3.2423,10.2173,62.4181,0.453,-2.2212,-0.5741,321.5593
16:54:09:001,-0.0598,3.5318,11.1218,61.0292,0.1598,-2.132,-0.7085,323.1043
16:54:09:002,0.457,3.9003,11.4712,61.4366,-0.1127,-1.5053,-0.7207,324.4218
16:54:09:003,1.2658,3.7831,12.7418,59.8375,-0.5256,-0.8016,-0.7048,325.4091
16:54:09:015,1.4261,3.1131,15.9123,60.1939,-1.0277,-0.5291,-0.882,326.4405
16:54:09:034,0.5073,2.1655,18.2453,60.7287,-1.1402,-0.6122,-1.1606,327.7989
16:54:09:056,-0.9308,1.4357,17.0393,59.7235,-0.5501,-0.5291,-1.2583,329.2744
16:54:09:075,-1.6606,1.8042,13.34,60.0173,0.3284,-0.1748,-0.9639,330.373
16:54:09:094,-0.682,2.467,9.4014,60.2106,0.8451,0.221,-0.397,330.7205
16:54:09:113,0.7155,3.0772,6.7741,60.264,0.7682,0.5399,0.0624,330.4486
16:54:09:132,1.9597,3.4193,5.8887,58.858,0.2819,0.7964,0.2578,329.8208
16:54:09:153,2.7111,3.4457,6.786,59.511,-0.2947,0.8905,0.1247,329.2752
16:54:09:173,2.3426,3.0604,8.3103,58.5075,-0.6502,0.7085,-0.3114,329.2845
16:54:09:195,0.9093,2.4646,8.284,59.9311,-0.5953,0.3823,-0.8062,329.9655
16:54:09:213,-0.5456,2.3928,6.9224,59.7825,-0.2837,0.188,-1.0311,330.9971
16:54:09:234,-1.4094,2.5555,6.0634,57.6361,-0.0736,0.1355,-0.9382,331.9769
16:54:09:268,-1.8209,2.5508,7.0756,59.0792,-0.0504,-0.0001,-0.7293,332.7946
16:54:09:273,-1.8688,2.4239,7.8341,58.7261,0.0461,-0.3923,-0.5338,333.5454
16:54:09:292,-1.7683,2.6536,6.8866,59.2014,0.3736,-0.7686,-0.3359,334.2249
16:54:09:312,-1.3448,3.1753,5.6638,59.0411,0.6594,-0.8321,-0.0818,334.677
16:54:09:332,-0.7537,3.5629,5.5059,59.0397,0.6191,-0.7234,0.143,334.8484
16:54:09:354,-0.4522,4.2329,6.353,58.8938,0.2318,-0.1809,0.2224,334.8488
16:54:09:376,-0.1244,4.5129,7.2335,58.5992,0.04,-0.0246,0.2114,334.5447
16:54:09:395,0.1555,4.7019,8.138,58.6235,-0.1261,0.0255,0.1247,334.4431
16:54:09:412,0.0287,4.7522,9.1047,58.4614,-0.2642,0.2027,-0.0305,334.4166
16:54:09:435,-0.6174,4.745,10.1121,58.2373,-0.3204,0.491,-0.1563,334.4429
16:54:09:453,-1.2634,4.8239,10.9424,59.5291,-0.2422,0.6547,-0.2039,334.4656
16:54:09:475,-1.1055,4.7378,11.3707,59.5291,-0.076,0.5521,-0.1661,334.4668
16:54:09:493,-0.6317,4.7522,12.1101,57.2359,0.0315,0.2308,-0.1282,334.5301
16:54:09:512,-0.1866,4.8383,12.8566,58.7425,0.0327,-0.0893,-0.1465,334.7314
16:54:09:534,0.0407,4.4363,13.0959,58.1222,0.0657,-0.0539,-0.2149,334.9817
16:54:09:555,-0.615,3.9362,13.6702,58.4116,0.1158,0.1844,-0.3335,335.2388
16:54:09:573,-1.9047,3.5653,13.9693,57.441,0.2355,0.3859,-0.3933,335.5173
16:54:09:594,-2.9647,3.6419,12.5145,57.6009,0.5678,0.612,-0.287,335.6557
16:54:09:613,-2.9671,4.1468,10.6768,57.34,0.8378,0.7903,-0.0219,335.4522
16:54:09:633,-1.9238,4.1755,9.6837,57.6323,0.7327,0.7134,0.2224,334.9927
16:54:09:655,-1.0002,3.7113,9.4445,58.1236,0.3406,0.4727,0.2285,334.5755
16:54:09:673,-0.7896,2.9934,9.2076,56.8268,-0.0675,0.458,0.0697,334.3091
16:54:09:693,-1.2227,2.5005,9.5258,58.2661,-0.324,0.7671,-0.0512,334.0436
16:54:09:715,-1.8281,1.9908,10.1049,57.2085,-0.4132,0.9724,-0.0976,333.7555
16:54:09:740,-2.4431,1.7444,9.6072,57.1366,-0.175,0.9736,-0.0182,333.4052
16:54:09:759,-2.3234,1.9143,8.0782,57.181,0.2343,0.8441,0.2383,332.8317
16:54:09:777,-1.5218,2.1799,6.1496,57.7864,0.5079,0.5961,0.5425,332.0551
16:54:09:795,-0.4331,2.5196,4.7785,55.5091,0.5165,0.4091,0.771,331.0776
16:54:09:814,1.084,2.8714,4.398,57.7864,-0.0235,0.364,0.7869,329.0027
16:54:09:835,1.3065,2.8331,5.4867,58.0266,-0.2862,0.2418,0.5743,328.2735
16:54:09:857,1.1079,2.6369,6.1161,57.6412,-0.3411,-0.0502,0.3092,327.9421
16:54:09:874,0.7202,2.5172,5.7691,56.6275,-0.1848,-0.3422,0.0941,327.9753
16:54:09:894,0.524,2.5244,5.3575,56.2551,-0.0321,-0.5816,-0.0292,328.2574
16:54:09:912,0.4953,2.4455,5.1254,56.3042,-0.0272,-0.8016,-0.1135,328.7194
16:54:09:933,0.5336,2.4957,5.4365,55.9587,-0.1249,-0.9274,-0.1893,329.324
16:54:09:954,0.4977,2.5125,6.3027,54.5082,-0.3191,-1.0764,-0.2956,330.0818
16:54:09:973,0.39,2.3785,7.9848,56.193,-0.5733,-1.3037,-0.4544,331.0786
16:54:09:991,0.5025,1.9645,10.1216,54.9817,-0.803,-1.5322,-0.6181,332.3029
16:54:10:011,0.4546,1.5434,11.3492,53.6685,-0.919,-1.5786,-0.7501,333.6557
16:54:10:034,-0.0024,1.4501,11.6913,52.4368,-0.9654,-1.2072,-0.805,334.9149
16:54:10:053,-0.4762,1.7085,12.5121,53.9079,-1.134,-0.6513,-0.7843,335.9667
16:54:10:073,-0.7513,1.8831,13.6199,51.8262,-1.3723,-0.2884,-0.7476,336.8672
16:54:10:093,-1.072,1.9549,15.0724,51.6863,-1.5665,-0.275,-0.7794,337.8161
16:54:10:112,-1.6893,1.6702,16.3454,52.6223,-1.6117,-0.4216,-0.8441,338.8781
16:54:10:137,-2.1296,1.1055,17.2977,51.4922,-1.459,-0.5658,-0.8197,339.9779
16:54:10:153,-2.1703,0.8614,16.9292,51.9135,-1.0815,-0.7099,-0.6181,340.8593
16:54:10:175,-1.4907,1.0146,14.9767,52.1318,-0.5623,-0.6415,-0.2381,341.3026
16:54:10:192,-0.2608,1.5362,13.0528,52.7472,-0.12,-0.3373,0.2004,341.186
16:54:10:212,0.9619,1.9741,11.7512,50.0714,0.1378,-0.1174,0.4484,340.7319
16:54:10:236,1.6869,2.2469,10.3059,50.6848,0.3002,-0.1027,0.4069,340.2958
16:54:10:252,1.541,2.4766,8.6405,51.6884,0.387,-0.0905,0.1809,340.1153
16:54:10:274,-0.0191,2.3665,6.743,50.7592,0.1903,0.254,-0.2895,340.2501
16:54:10:292,-0.6341,2.4167,6.4965,53.1302,0.0938,0.4629,-0.331,340.9048
16:54:10:315,-0.6221,2.5005,6.7621,52.3048,0.0962,0.5167,-0.2528,341.1403
16:54:10:338,-0.5049,2.6704,6.6257,50.4657,0.2551,0.4238,-0.1722,341.3117
16:54:10:356,-0.4714,2.8977,5.8672,52.4049,0.4933,0.2809,-0.138,341.5028
16:54:10:373,-0.6508,3.2566,5.0297,51.6208,0.6326,0.1795,-0.1367,341.6876
16:54:10:391,-0.8136,3.5557,4.8838,51.7557,0.5703,0.1465,-0.1331,341.8916
16:54:10:412,-0.7466,3.673,5.482,50.9173,0.3564,0.1147,-0.1099,342.0894
16:54:10:435,-0.6867,3.6108,6.9823,51.9151,0.1109,0.0439,-0.1001,342.2765
16:54:10:454,-0.8997,3.3069,9.1023,51.5183,-0.0247,-0.0991,-0.127,342.5206
16:54:10:471,-1.194,2.9599,10.4016,51.7557,0.0803,-0.3031,-0.1563,342.8555
16:54:10:491,-1.663,3.003,10.136,51.3122,0.398,-0.4167,-0.1209,343.2021
16:54:10:511,-1.8305,3.0485,10.0379,52.5858,0.6057,-0.3972,0.0147,343.4212
16:54:10:531,-1.1677,2.8833,10.8634,51.0695,0.5666,-0.3459,0.2004,343.4052
16:54:10:554,-0.2393,2.7541,12.524,53.5253,0.4371,-0.3788,0.3312,343.2223
16:54:10:571,0.4235,2.7852,13.5721,52.9983,0.4114,-0.4399,0.3556,343.0176
16:54:10:602,0.4714,2.9934,12.3589,54.2483,0.6057,-0.1663,0.2994,342.7905
16:54:10:616,0.1938,3.4193,10.5452,55.7463,0.7596,0.4177,0.242,342.4564
16:54:10:631,-0.5527,3.5342,10.2317,53.8464,0.5238,0.7757,0.1577,342.1314
16:54:10:651,-1.6702,3.4361,10.861,55.0388,0.1927,0.8991,0.0282,341.9292
16:54:10:672,-2.3617,3.2136,10.9831,56.0085,0.0046,0.7085,-0.0439,341.8938
16:54:10:691,-2.412,2.7135,11.3133,53.591,-0.175,0.287,-0.0476,342.0004
16:54:10:712,-2.0148,1.9501,12.6963,54.587,-0.4315,-0.1003,-0.0024,342.1555
16:54:10:734,-1.6917,1.0433,11.9617,56.1426,-0.3485,0.1477,0.231,342.2358
16:54:10:752,-1.3495,1.1581,9.6072,56.0805,-0.1591,0.7989,0.5132,341.9664
16:54:10:776,-0.8997,1.2012,8.5831,56.0908,-0.2605,1.3548,0.7795,340.1279
16:54:10:790,-0.4714,1.2227,8.7099,56.7016,-0.4523,1.6125,0.931,338.7175
16:54:10:812,-0.2536,1.2586,9.0903,56.4839,-0.4596,1.5014,0.9738,337.3002
16:54:10:834,-0.2106,1.2275,8.8534,56.7075,-0.2031,1.0713,0.9616,336.0074
16:54:10:854,-0.1316,1.2825,7.8963,57.5257,0.2172,0.5203,0.9774,334.8497
16:54:10:872,0.3183,1.3663,6.3888,58.9211,0.6118,0.0329,1.0459,333.748
16:54:10:893,0.8829,1.6271,4.9579,57.9963,0.8268,-0.2164,1.0862,332.7071
16:54:10:913,1.3089,1.919,4.1683,59.1069,0.7938,-0.2408,1.0459,331.7044
16:54:10:934,1.4213,2.0506,4.1946,59.3767,0.5764,-0.1724,0.9078,330.8344
16:54:10:953,1.3735,2.1033,4.9364,60.1485,0.2954,-0.1944,0.7087,330.1773
16:54:10:972,1.1844,2.1152,5.8026,60.3999,0.1011,-0.3862,0.4998,329.8009
16:54:10:991,0.8351,2.1009,6.7167,60.894,0.0046,-0.7014,0.3031,329.752
16:54:11:059,0.7035,2.254,7.0373,61.339,-0.0492,-0.9958,0.165,330.0013
16:54:11:060,0.9093,2.5053,7.9442,59.7984,-0.1579,-1.1241,0.1015,330.3582
16:54:11:060,1.3878,2.3737,9.5306,61.0628,-0.3863,-1.1949,0.0306,330.7845
16:54:11:071,1.3232,2.345,10.3944,61.6301,-0.5525,-1.0948,-0.0903,331.2945
16:54:11:092,1.005,2.5986,11.0716,58.5902,-0.6844,-0.6818,-0.1807,331.7422
16:54:11:115,1.1892,2.4837,12.1723,60.6869,-0.9361,-0.104,-0.2125,332.0406
16:54:11:131,1.5745,2.2899,14.1392,61.8744,-1.2758,0.4617,-0.2956,332.2312
16:54:11:151,1.1892,1.7157,16.7067,59.5014,-1.5421,0.6889,-0.59,332.6935
16:54:11:172,-0.615,1.0983,18.3817,59.4941,-1.4627,0.5497,-1.0042,333.7016
16:54:11:194,-2.5531,1.3543,14.0913,61.543,-0.2581,0.3725,-0.8111,335.822
16:54:11:216,-1.0433,1.8018,11.464,61.3041,0.1512,0.4006,-0.3114,336.1836
16:54:11:237,0.5671,2.2014,9.9302,63.2353,0.2221,0.2882,-0.0231,336.2026
16:54:11:253,1.3615,2.4048,9.7938,62.4855,0.0767,0.0561,-0.0598,336.2974
16:54:11:272,1.2921,2.1535,9.9039,62.0536,-0.0748,-0.1895,-0.309,336.7136
16:54:11:292,0.6389,1.9478,9.1047,62.6256,-0.0626,-0.242,-0.5692,337.4415
16:54:11:314,-0.1005,1.8688,7.7767,63.0883,0.0217,-0.0746,-0.7048,338.3017
16:54:11:339,-0.7322,1.864,6.853,62.8392,0.0645,0.1856,-0.6926,339.1215
16:54:11:353,-1.1174,1.9095,6.4128,62.167,0.1158,0.4177,-0.5741,339.7657
16:54:11:373,-1.2443,1.9884,5.9127,64.1333,0.2233,0.4678,-0.419,340.2524
16:54:11:393,-1.3137,2.1512,5.4604,63.7942,0.3284,0.2784,-0.2895,340.6296
16:54:11:412,-1.2395,2.2851,5.4987,63.4612,0.3638,-0.0221,-0.1856,340.9526
16:54:11:433,-1.1007,2.479,5.4054,64.6203,0.3772,-0.2506,-0.1001,341.2276
16:54:11:454,-0.8949,2.723,5.6542,63.9609,0.3406,-0.3569,-0.0439,341.4715
16:54:11:472,-0.6102,2.7111,6.6114,63.4418,0.2013,-0.4192,-0.0378,341.7243
16:54:11:495,-0.5934,2.6584,8.4778,64.2132,0.0535,-0.4973,-0.0879,342.0323
16:54:11:516,-0.5695,2.4024,10.2102,62.6855,0.0168,-0.6073,-0.1465,342.4028
16:54:11:531,-0.938,2.3163,10.6935,64.6601,0.1989,-0.589,-0.1746,342.8005
16:54:11:552,-1.4429,2.4048,10.7031,66.6401,0.4163,-0.3752,-0.1416,343.1699
16:54:11:572,-1.5338,2.6824,10.7342,66.0959,0.5202,-0.0416,-0.0073,343.3031
16:54:11:592,-1.1964,2.8881,11.4712,67.0352,0.4896,0.2357,0.1345,343.1915
16:54:11:614,-0.7011,2.9121,12.4187,67.0352,0.4151,0.309,0.1968,342.9745
16:54:11:632,-0.5336,3.1322,12.9212,67.166,0.4163,0.2858,0.1809,342.7756
16:54:11:653,-1.4668,3.5222,10.7055,66.185,0.6167,0.7696,0.1174,342.2275
16:54:11:670,-2.7541,4.1109,9.4708,65.5878,0.5813,1.1202,0.1259,341.8881
16:54:11:694,-3.7208,4.6301,9.0975,66.3192,0.3845,1.2204,0.1748,341.47
16:54:11:716,-3.7065,4.5894,9.4445,66.8579,0.0706,0.9614,0.2444,341.0456
16:54:11:731,-3.1346,3.8213,10.6505,67.2519,-0.3008,0.3945,0.2359,340.7743
16:54:11:751,-2.7829,2.6991,13.273,67.0785,-0.6906,-0.3251,0.1198,340.8339
16:54:11:771,-2.7182,1.3926,15.3643,67.4523,-0.8543,-0.8358,0.0135,341.1639
16:54:11:791,-2.8044,0.8088,14.0865,67.3223,-0.5159,-0.6158,0.0978,341.32
16:54:11:818,-2.5651,0.926,10.9543,69.3782,-0.0638,0.2833,0.4619,340.8318
16:54:11:832,-1.7539,1.1725,9.119,68.2841,0.0327,1.2424,0.9017,339.5649
16:54:11:852,-0.7729,1.3041,8.4778,67.2947,-0.0772,1.7641,1.1741,337.8022
16:54:11:871,-0.079,1.3783,8.5854,68.3903,-0.1261,1.725,1.2401,335.9323
16:54:11:895,0.2441,1.4644,8.4084,67.9339,0.04,1.2644,1.1741,334.2576
16:54:11:913,0.5408,1.5123,7.4178,69.4474,0.3955,0.6413,1.0959,332.8637
16:54:11:934,0.9117,1.6199,5.8983,69.064,0.7352,0.1025,1.0288,331.7127
16:54:11:952,1.2825,1.7492,4.6397,67.845,0.8793,-0.1992,0.9371,330.7604
16:54:11:970,1.5147,1.8521,4.0606,69.7378,0.7804,-0.2713,0.7954,329.997
16:54:11:990,1.3687,1.8808,4.1133,68.2102,0.5592,-0.2261,0.6097,329.4251
16:54:12:011,1.127,1.9501,4.5009,67.8185,0.3626,-0.2188,0.4264,329.046
16:54:12:031,0.8901,2.053,5.1637,68.7034,0.2404,-0.3788,0.275,328.8969
16:54:12:052,0.6987,2.1655,5.5035,68.047,0.1927,-0.6904,0.1284,329.0352
16:54:12:073,0.1723,2.4239,6.1735,68.0144,0.1475,-1.0141,-0.0256,329.4884
16:54:12:093,0.0526,2.4598,7.279,68.0144,-0.0027,-1.3831,-0.1734,330.2318
16:54:12:113,0.6006,2.12,9.0186,68.1259,-0.5427,-1.6336,-0.4299,332.2217
16:54:12:132,0.3805,2.2277,10.0044,68.937,-0.9068,-1.0471,-0.5289,333.1576
16:54:12:154,0.3996,2.4407,11.4879,68.3603,-1.2904,-0.2616,-0.5925,333.8459
16:54:12:170,1.0026,2.0435,13.9286,68.3603,-1.6753,0.1343,-0.7501,334.561
16:54:12:192,0.5264,1.0816,17.3264,68.3603,-2.0125,-0.082,-1.1496,335.7599
16:54:12:217,-1.5123,0.1388,19.9561,68.3603,-1.9306,-0.3068,-1.5723,337.5124
16:54:12:235,-4.2018,0.0694,19.1306,68.3603,-1.2122,-0.187,-1.6065,339.362
16:54:12:252,-4.5488,0.6485,15.74,68.3603,-0.2752,0.1123,-1.0188,340.5346
16:54:12:271,-2.1607,1.462,12.7968,68.3603,0.31,0.2747,-0.149,340.666
16:54:12:294,0.2273,2.0554,11.0429,68.3603,0.4359,0.1868,0.3593,340.1948
16:54:12:313,1.5721,2.4646,9.8584,68.3603,0.3454,0.0292,0.3861,339.6919
16:54:12:330,1.7611,2.6465,8.9204,68.3603,0.1952,-0.0148,0.1247,339.4829
16:54:12:350,1.0528,2.4503,8.2193,68.3603,0.0327,0.1391,-0.2101,339.6276
16:54:12:370,-0.1579,2.254,7.7001,68.3603,-0.054,0.4202,-0.4422,340.0035
16:54:12:393,-0.8829,2.1583,7.1952,68.3603,-0.0333,0.6169,-0.4678,340.3931
16:54:12:412,-1.1916,2.2923,6.3625,65.6555,0.0925,0.6205,-0.3567,340.6787
16:54:12:433,-1.1198,2.4526,5.3671,64.4671,0.2404,0.4556,-0.2223,340.8755
16:54:12:462,-0.9787,2.656,4.8885,64.5888,0.2929,0.2222,-0.1245,341.0233
16:54:12:470,-0.8758,2.7517,4.879,67.5103,0.2538,0.0292,-0.0769,341.1489
16:54:12:495,-0.9858,2.7948,5.3264,65.8162,0.1695,-0.0917,-0.0793,341.3073
16:54:12:512,-1.2586,2.8929,6.0802,65.8835,0.0925,-0.1406,-0.0879,341.4863
16:54:12:531,-1.3687,2.9815,6.9105,66.0722,0.0217,-0.2127,-0.0732,341.6432
16:54:12:552,-0.8877,2.9408,9.4445,65.0406,-0.0675,-0.4399,-0.0219,341.8116
16:54:12:577,-0.9978,2.7781,10.6146,65.0406,-0.0137,-0.4827,-0.0585,341.9542
16:54:12:592,-1.328,2.7254,11.0477,65.5149,0.1536,-0.4118,-0.0769,342.1599
16:54:12:613,-1.4883,2.7326,10.9639,65.5034,0.3198,-0.3019,-0.0268,342.514
16:54:12:630,-1.0624,2.747,11.2343,64.2315,0.3577,-0.2115,0.0783,342.5188
16:54:12:652,-0.2321,2.6512,12.4307,64.9042,0.277,-0.2054,0.1528,342.4141
16:54:12:674,0.0455,2.5651,13.5817,64.2828,0.2404,-0.264,0.1088,342.3608
16:54:12:690,-0.2273,2.5866,12.9189,61.8152,0.431,-0.1467,0.0428,342.3434
16:54:12:713,-0.3661,2.8953,10.995,64.7445,0.6839,0.2345,0.0734,342.201
16:54:12:731,-0.8112,3.2399,10.1432,65.5418,0.6656,0.6046,0.1284,341.9051
16:54:12:750,-1.8975,3.5127,10.1073,65.238,0.4994,0.8111,0.1174,341.5819
16:54:12:771,-2.7709,3.8213,9.6742,63.5314,0.398,0.7671,0.1088,341.3134
16:54:12:792,-2.7206,3.6945,9.8273,63.7784,0.2074,0.4617,0.1247,341.1234
16:54:12:812,-1.8257,2.8881,11.6554,64.6215,-0.1615,-0.0246,0.0966,341.0712
16:54:12:831,-1.4979,1.8808,14.7111,64.5707,-0.5537,-0.5132,-0.0488,341.2696
16:54:12:850,-1.9143,0.9356,16.1468,63.2983,-0.605,-0.6525,-0.2174,341.705
16:54:12:873,-2.7876,0.7202,13.9023,62.7282,-0.1579,-0.1052,-0.1648,341.9586
16:54:12:895,-3.0724,1.0792,10.5524,63.7785,0.2722,0.7683,0.2175,341.5784
16:54:12:914,-2.3091,1.517,8.6716,62.8689,0.3357,1.367,0.7209,340.4598
16:54:12:931,-0.9356,1.6702,7.9083,62.6907,0.2453,1.4806,1.0727,338.8706
16:54:12:950,0.1077,1.8425,7.4154,62.691,0.2355,1.2534,1.1925,337.1736
16:54:12:975,0.5958,1.9836,6.8172,64.0095,0.3393,0.8734,1.1228,335.6503
16:54:12:993,0.7849,2.0842,5.7308,62.0904,0.4896,0.4849,0.9933,334.3766
16:54:13:017,1.1246,2.2205,4.4865,63.7509,0.5177,-0.0465,0.7527,332.5089
16:54:13:031,1.2395,2.1607,4.4985,63.7509,0.3882,-0.2041,0.6122,331.8846
16:54:13:051,1.1892,2.077,5.056,62.9527,0.2318,-0.3422,0.457,331.4747
16:54:13:079,1.072,2.0578,5.793,61.6498,0.1231,-0.5132,0.3263,331.2728
16:54:13:143,1.4118,1.9741,6.5563,62.7363,0.084,-0.7332,0.2359,331.2245
16:54:13:144,1.7133,2.0004,7.2024,61.3831,0.0767,-0.9983,0.1308,331.3728
16:54:13:144,1.8353,1.8927,8.0973,62.7309,0.0486,-1.2646,-0.0451,331.7855
16:54:13:154,1.8377,1.7683,8.9539,61.3924,0.0193,-1.4418,-0.2467,332.474
16:54:13:173,2.0722,1.7204,9.4684,60.9026,-0.0076,-1.5041,-0.4177,333.362
16:54:13:194,2.1559,1.7133,9.3655,61.5427,-0.0834,-1.4149,-0.5778,334.3706
16:54:13:212,1.6223,2.1679,8.8199,61.4731,-0.2458,-0.9641,-0.7305,335.4033
16:54:13:230,1.2873,2.6393,9.052,60.4139,-0.5708,-0.253,-0.816,336.2716
16:54:13:250,1.3854,2.4646,10.9783,59.8739,-1.0449,0.21,-0.9357,337.1079
16:54:13:272,1.4907,1.8329,13.6726,60.8473,-1.4529,0.0829,-1.2155,338.2767
16:54:13:290,0.4642,1.1007,16.386,59.5071,-1.6191,-0.3251,-1.5698,339.9761
16:54:13:311,-1.0193,0.5958,17.738,57.6051,-1.3637,-0.4534,-1.7177,341.9189
16:54:13:330,-2.0004,0.8279,16.3526,59.1017,-0.7052,-0.2701,-1.4831,343.6299
16:54:13:351,-1.4165,1.4548,13.2754,59.6262,-0.0296,0.0475,-0.9516,344.6993
16:54:13:375,-0.0359,2.1105,10.952,59.5523,0.2636,0.2149,-0.491,345.1761
16:54:13:391,1.1055,2.613,9.8106,59.0205,0.1976,0.1709,-0.3114,345.4245
16:54:13:418,1.6223,2.8762,9.0329,58.4974,0.0156,0.1269,-0.3725,345.7338
16:54:13:436,1.2227,2.8642,8.4323,61.2089,-0.1518,0.2369,-0.5912,347.0234
16:54:13:455,-0.6413,2.7494,7.9825,57.9025,-0.2507,0.6388,-0.8771,347.833
16:54:13:470,-1.06,2.8522,7.2503,59.1955,-0.1017,0.6486,-0.8026,348.5824
16:54:13:489,-1.1031,3.0054,6.1041,59.7115,0.1023,0.5081,-0.6658,349.25
16:54:13:510,-1.2203,3.2112,5.0847,57.2344,0.2233,0.2894,-0.5546,349.8569
16:54:13:530,-1.3687,3.3236,4.7976,60.1864,0.1927,0.0671,-0.4886,350.4286
16:54:13:551,-1.6391,3.3236,5.1135,60.6433,0.0889,-0.1076,-0.4397,351.0296
16:54:13:571,-1.8999,3.338,5.6447,59.5708,0.0168,-0.2102,-0.3799,351.6009
16:54:13:591,-2.1248,3.4935,6.2261,59.2579,0.0278,-0.242,-0.2919,352.101
16:54:13:610,-2.3091,3.6754,6.5252,59.3261,0.0901,-0.2579,-0.1795,352.4604
16:54:13:630,-2.4837,3.8955,7.0493,60.1862,0.128,-0.2726,-0.0659,352.7262
16:54:13:652,-2.4933,3.7591,8.3821,59.6913,0.0974,-0.3324,0.0196,352.9343
16:54:13:672,-2.5412,3.5151,9.7149,60.1862,0.0742,-0.4863,0.0709,353.1172
16:54:13:691,-2.668,3.3547,10.995,60.1657,0.0816,-0.6403,0.1161,353.3009
16:54:13:710,-2.3689,3.0221,12.4618,61.366,0.0693,-0.7112,0.1858,353.4189
16:54:13:729,-1.4692,2.6154,13.9597,61.228,0.0376,-0.633,0.2701,353.3905
16:54:13:751,-1.0911,2.4718,14.4861,60.1476,0.0693,-0.3153,0.3104,353.2294
16:54:13:770,-0.8614,2.321,13.2275,62.3222,0.1964,0.3481,0.3434,352.8439
16:54:13:790,-1.1533,2.4885,11.8325,63.5305,0.1989,1.053,0.3886,352.2353
16:54:13:810,-2.321,2.8068,10.9185,61.9665,0.1097,1.6187,0.4008,351.5031
16:54:13:830,-3.1585,3.2279,9.8536,62.2643,0.128,1.9253,0.4264,350.6702
16:54:13:853,-3.0126,3.3428,9.1621,63.1998,0.0608,1.6749,0.4546,349.8489
16:54:13:871,-2.3665,2.4861,10.7342,64.1862,-0.3509,0.8978,0.325,349.3477
16:54:13:891,-2.3713,0.8734,14.4933,63.9414,-0.9105,0.0317,0.0318,349.3591
16:54:13:911,-3.0748,-0.2249,16.5511,63.6591,-1.0436,-0.3129,-0.1441,349.6849
16:54:13:933,-3.3739,0.0742,12.9284,64.7211,-0.0956,0.9491,0.6012,348.8877
16:54:13:956,-1.7611,0.5527,11.1266,61.9764,0.1927,1.3792,1.1778,347.3505
16:54:13:974,-0.0838,0.8806,9.7268,66.3138,0.3589,1.2949,1.4991,345.3846
16:54:13:992,1.005,1.1749,8.4873,66.3541,0.4835,0.9589,1.5529,343.3937
16:54:14:010,1.3591,1.4261,7.5159,65.1097,0.5544,0.5863,1.4344,341.6106
16:54:14:029,1.5673,1.4812,6.8913,65.2613,0.5849,0.3407,1.2914,340.0667
16:54:14:050,1.797,1.596,6.3314,66.4358,0.6362,0.2515,1.1974,338.6168
16:54:14:076,2.0363,1.7157,5.659,66.9845,0.7156,0.2027,1.1131,337.2645
16:54:14:090,2.1775,1.8138,5.0536,66.889,0.7535,0.0927,0.9848,336.0924
16:54:14:115,2.132,1.9454,4.7115,67.139,0.7279,-0.0771,0.8101,335.1947
16:54:14:136,1.9382,2.0698,4.6445,68.1379,0.6497,-0.2677,0.6146,334.5673
16:54:14:154,1.6917,2.1392,4.6086,67.2292,0.5531,-0.4595,0.4314,334.2322
16:54:14:170,1.4118,2.2564,5.0106,67.7974,0.4383,-0.6476,0.2725,334.1674
16:54:14:190,0.9834,2.3186,6.2285,67.722,0.2807,-0.9066,0.1051,334.3663
16:54:14:209,0.5671,2.2971,7.4417,68.4782,0.1231,-1.2939,-0.0842,334.9318
16:54:14:230,0.4953,2.2349,7.8676,69.0587,-0.0211,-1.6079,-0.2381,335.7877
16:54:14:250,0.457,2.1631,8.6333,68.7614,-0.3082,-1.5346,-0.3542,336.7316
16:54:14:270,0.1005,2.3115,10.3179,68.0962,-0.7357,-1.0679,-0.4177,337.5626
16:54:14:289,0.1747,2.4742,11.8014,68.4816,-1.0815,-0.5083,-0.4092,338.1632
16:54:14:309,0.5432,2.7685,12.7801,68.2858,-1.2281,-0.2127,-0.4495,338.6795
16:54:14:329,0.4738,2.6943,13.9956,70.099,-1.3576,-0.4106,-0.6877,339.531
16:54:14:353,-0.5791,1.943,15.8955,70.1246,-1.4847,-0.6599,-1.0103,340.8224
16:54:14:369,-1.3113,1.0648,18.1041,68.1216,-1.4065,-0.6684,-1.1056,342.219
16:54:14:390,-1.1581,1.1916,14.6249,69.6493,-0.1958,-0.253,-0.4886,343.3936
16:54:14:409,0.5192,1.7324,12.1005,69.6332,0.1915,-0.0954,-0.0964,344.0024
16:54:14:429,1.6152,2.1392,10.7294,68.8543,0.2392,-0.0416,0.0099,344.1117
16:54:14:454,1.7946,2.3354,9.4732,69.9753,0.2257,0.0475,-0.1282,344.1411
16:54:14:472,1.1892,2.4598,8.1021,69.2586,0.2465,0.2063,-0.3481,344.4568
16:54:14:491,0.615,2.479,7.279,67.8636,0.2514,0.3261,-0.5082,344.9489
16:54:14:510,0.2153,2.4694,6.676,69.6175,0.2624,0.3139,-0.5839,345.5264
16:54:14:531,-0.0622,2.5436,5.8935,70.5988,0.3186,0.221,-0.6218,346.185
16:54:14:554,-0.3206,2.6417,5.1852,68.3768,0.3626,0.1037,-0.634,346.8826
16:54:14:572,-0.5599,2.7254,4.8407,69.5812,0.3332,-0.0282,-0.6364,347.6229
16:54:14:589,-0.7561,2.881,4.8838,70.7934,0.2514,-0.1369,-0.6254,348.4023
16:54:14:609,-0.7849,3.015,5.1302,69.9726,0.1451,-0.2005,-0.5998,349.177
16:54:14:631,-0.9117,3.1609,5.8911,70.7621,0.0278,-0.2176,-0.5717,349.9313
16:54:14:649,-1.1246,3.2734,6.7621,70.6222,-0.0846,-0.2359,-0.5436,350.6666
16:54:14:673,-1.3017,3.3452,7.6211,69.8815,-0.1542,-0.264,-0.4996,351.3625
16:54:14:690,-1.3376,3.3045,8.7027,68.5845,-0.186,-0.2603,-0.4324,351.9675
16:54:14:709,-1.4189,3.2064,9.6479,67.8452,-0.1469,-0.2127,-0.3567,352.4784
16:54:14:733,-1.9214,3.1514,10.6409,69.8776,-0.0662,-0.1907,-0.3041,352.9349
16:54:14:752,-2.2636,2.9839,11.7416,70.6004,0.0364,-0.2286,-0.1893,353.3342
16:54:14:770,-1.8544,2.8786,12.3183,71.1966,0.1866,-0.319,0.005,353.5372
16:54:14:790,-1.1294,2.8953,13.2419,72.5483,0.2355,-0.4412,0.1858,353.5434
16:54:14:814,-0.4786,3.0652,13.7468,70.4848,0.2343,-0.4045,0.2872,353.4075
16:54:14:831,-0.0694,3.2925,12.1771,69.0896,0.3821,0.0512,0.3434,353.0765
16:54:14:850,-1.2203,3.5318,10.7222,72.5593,0.2819,0.9577,0.2371,352.5846
16:54:14:871,-2.6417,3.6897,9.8369,72.5736,0.2856,1.0872,0.165,351.759
16:54:14:890,-3.3523,4.0511,8.0758,71.2463,0.4065,1.086,0.2383,351.373
16:54:14:912,-2.9169,4.1109,7.7743,71.3607,0.2147,0.7439,0.3556,350.9404
16:54:14:932,-1.8066,3.3093,10.526,70.205,-0.3631,0.0011,0.3568,350.6645
16:54:14:950,-1.517,1.9238,14.7829,70.6386,-0.864,-0.749,0.187,350.7285
16:54:14:969,-1.9143,0.9595,15.9697,72.6566,-0.7199,-0.9311,0.0587,351.0181
16:54:14:988,-2.4646,0.8973,13.0265,70.5184,-0.0638,-0.2835,0.2151,350.976
16:54:15:010,-2.0674,1.1342,10.1791,69.2,0.3296,0.6914,0.6305,350.2143
16:54:15:032,-0.7585,1.2897,8.8152,69.2602,0.3088,1.2876,1.0251,348.7957
16:54:15:050,0.5623,1.4692,8.4347,70.9828,0.1927,1.3511,1.1986,347.1013
16:54:15:070,1.1773,1.6606,8.0638,69.1166,0.1842,1.075,1.1228,345.5107
16:54:15:090,1.1725,1.742,7.2359,70.5734,0.3161,0.6853,0.9176,344.2376
16:54:15:110,1.1007,1.8401,6.1352,68.2338,0.4774,0.3859,0.7551,343.2528
16:54:15:132,1.2467,2.0004,5.0632,70.2442,0.5629,0.2601,0.6708,342.3712
16:54:15:216,1.5003,2.1512,4.5296,68.6519,0.5116,0.2405,0.6048,341.5717
16:54:15:217,1.7539,2.2445,4.879,66.9519,0.3418,0.1831,0.5047,340.8648
16:54:15:218,1.8473,2.2708,5.458,68.6519,0.2037,0.006,0.3666,340.3337
16:54:15:219,1.9573,2.3282,5.6471,66.8372,0.1805,-0.253,0.2127,340.076
16:54:15:231,1.9813,2.4311,5.7547,68.7465,0.1817,-0.5096,0.0636,340.0615
16:54:15:251,2.1081,2.4742,5.9964,66.8104,0.106,-0.7246,-0.1025,340.2954
16:54:15:269,2.1129,2.2756,6.9368,65.185,-0.0724,-0.9091,-0.32,340.814
16:54:15:289,1.8951,1.8233,8.3773,68.2661,-0.3326,-1.1046,-0.5827,341.6736
16:54:15:313,0.7585,1.5553,9.9374,68.2563,-0.7138,-0.7539,-0.9455,342.7693
16:54:15:332,0.5073,1.474,10.392,67.4286,-0.941,-0.1748,-0.9736,344.9489
16:54:15:352,0.9643,1.3089,11.5286,68.0613,-1.2953,0.133,-0.9907,345.8604
16:54:15:369,0.6437,0.9787,15.4529,65.5032,-1.8329,-0.3092,-1.1911,347.102
16:54:15:389,-0.6485,-0.1938,20.0614,66.7025,-2.0955,-0.9836,-1.4538,348.8528
16:54:15:413,-2.1488,-0.9691,22.2078,63.7066,-1.5739,-1.2719,-1.4379,350.7137
16:54:15:434,-2.1894,-1.2036,19.2718,64.2884,-0.4499,-1.1925,-0.9846,352.0897
16:54:15:460,-0.1029,-0.39,14.1488,65.7425,0.5299,-0.8199,-0.2553,352.4893
16:54:15:469,2.5795,0.5815,10.3585,65.3742,0.7792,-0.4595,0.2884,352.1066
16:54:15:489,3.9171,1.4524,8.7553,63.1279,0.4811,-0.1492,0.3104,351.5804
16:54:15:512,3.5988,1.8975,7.9394,61.8261,0.0693,0.155,-0.0549,351.3872
16:54:15:530,2.2588,1.9621,7.4728,63.2658,-0.2165,0.4397,-0.535,351.7481
16:54:15:549,0.9069,1.9501,6.9631,63.8411,-0.324,0.5973,-0.8771,352.5243
16:54:15:568,0.1172,1.9382,6.6401,63.1267,-0.3118,0.5594,-0.9944,353.5137
16:54:15:588,-0.079,1.9525,6.3242,62.578,-0.2226,0.3151,-0.959,354.4901
16:54:15:608,0.1531,2.065,5.6734,62.5131,-0.0699,0.0317,-0.86,355.4178
16:54:15:631,0.3565,2.2469,4.733,61.2153,0.0657,-0.1333,-0.7965,356.3026
16:54:15:648,0.2489,2.4861,4.0367,61.1299,0.0828,-0.1296,-0.7989,357.1958
16:54:15:669,0.1914,2.6656,4.398,61.1567,-0.0455,-0.0636,-0.8124,358.0826
16:54:15:688,0.0957,2.8163,5.2594,60.4388,-0.208,-0.0966,-0.8295,359.019
16:54:15:713,-0.0718,2.8857,6.786,60.5173,-0.3179,-0.2347,-0.8356,359.9653
16:54:15:729,0.0383,2.9432,8.2433,59.7658,-0.3216,-0.4362,-0.7794,0.8691
16:54:15:749,0.1196,3.2327,8.9468,59.8617,-0.2031,-0.5829,-0.6975,1.7256
16:54:15:770,-0.3589,3.149,11.787,59.0956,-0.0736,-0.5804,-0.6315,3.3458
16:54:15:793,-1.3854,2.7326,13.6798,58.6989,0.0302,-0.6916,-0.6267,4.2629
16:54:15:809,-1.5793,2.5316,13.7898,58.0915,0.3552,-0.8321,-0.4544,5.0482
16:54:15:828,-0.457,2.5819,13.1007,58.8704,0.6875,-0.7918,-0.1184,5.4327
16:54:15:849,0.8136,2.857,12.9739,59.214,0.7621,-0.5975,0.1662,5.3942
16:54:15:869,1.1342,3.2016,12.8016,56.4359,0.7071,-0.2506,0.2554,5.189
16:54:15:892,0.9356,3.7567,11.7535,57.9135,0.7425,0.2076,0.253,4.8818
16:54:15:911,0.3852,4.075,10.9807,56.9838,0.7132,0.4641,0.1955,4.5998
16:54:15:930,-0.6867,4.0869,10.9208,57.6889,0.5739,0.4739,0.0575,4.5363
16:54:15:949,-1.5027,3.7496,10.952,56.3852,0.4139,0.2845,-0.0879,4.7123
16:54:15:969,-1.5888,3.0532,11.2822,55.9735,0.1952,0.0255,-0.1636,5.0221
16:54:15:990,-1.5864,2.1799,13.3639,55.0487,-0.1212,-0.104,-0.1807,5.4247
16:54:16:010,-2.0483,1.328,15.1514,54.4192,-0.302,-0.1052,-0.1648,5.8362
16:54:16:031,-2.0794,1.0696,14.2732,54.2932,-0.1017,0.2149,-0.0011,5.9973
16:54:16:049,-1.4477,1.395,12.2058,54.5985,0.1622,0.7354,0.2908,5.6606
16:54:16:069,-0.7681,1.6343,10.94,54.6522,0.2184,1.1703,0.5327,4.8834
16:54:16:094,-0.3613,1.9717,9.7029,53.973,0.2453,1.4024,0.6488,3.8391
16:54:16:111,0.0287,2.333,8.2792,54.0183,0.3357,1.3792,0.6745,2.7303
16:54:16:132,0.2728,2.5172,7.0756,53.4655,0.3772,1.1471,0.6293,1.6748
16:54:16:150,0.4522,2.5292,6.6042,51.6255,0.31,0.8636,0.5474,0.8083
16:54:16:172,0.4738,2.3521,6.7932,51.0184,0.2062,0.6291,0.4704,0.0253
16:54:16:194,0.39,2.2684,7.0158,49.9197,0.2013,0.4519,0.4374,358.6664
16:54:16:211,0.9739,2.1918,6.6233,51.8012,0.5128,0.1856,0.5083,357.9621
16:54:16:232,1.3567,2.0865,6.3817,52.4638,0.6924,0.0793,0.5217,357.2345
16:54:16:249,1.4046,2.0028,6.1352,50.159,0.8366,-0.027,0.4802,356.5853
16:54:16:268,1.4692,1.9956,5.7523,51.3259,0.9343,-0.1614,0.4179,356.0559
16:54:16:296,1.7085,2.0913,5.3312,49.0644,0.982,-0.2774,0.3617,355.6068
16:54:16:312,2.1559,2.1033,5.1159,49.2869,0.9062,-0.4033,0.2786,355.2708
16:54:16:329,2.4263,1.9741,5.5849,50.2069,0.6753,-0.534,0.1064,355.143
16:54:16:349,1.8592,1.7133,7.3842,49.5557,0.3479,-0.6403,-0.1416,355.3365
16:54:16:369,0.3685,1.6774,8.2911,47.1051,0.1732,-0.6366,-0.3322,355.8677
16:54:16:393,-1.0576,2.4598,7.5374,48.1585,0.2294,-0.4204,-0.3004,356.4031
16:54:16:412,-1.0768,3.0939,7.4225,47.3474,0.0791,-0.209,-0.0488,356.5859
16:54:16:430,0.4881,2.6393,9.4875,48.6226,-0.4658,-0.2787,0.1907,356.4591
16:54:16:449,2.0674,2.1488,13.017,45.5517,-1.1206,-0.5902,0.1907,356.3359
16:54:16:468,2.0746,1.1844,16.0869,46.5616,-1.5042,-0.8749,-0.1062,356.5988
16:54:16:497,-0.2345,0.3924,17.458,45.031,-1.4786,-0.7771,-0.4825,357.3775
16:54:16:516,-1.9406,0.0981,17.1254,45.5103,-1.1829,-0.4008,-0.48,358.1845
16:54:16:531,-1.0457,-0.0263,16.1683,45.3425,-0.897,-0.0624,-0.0158,358.3389
16:54:16:548,0.7609,0.7418,13.8425,43.2475,-0.5879,0.2173,0.4863,357.7285
16:54:16:569,2.2923,1.9047,10.9735,44.7683,-0.357,0.414,0.6965,356.7303
16:54:16:592,3.0173,2.7494,9.1549,43.6223,-0.3741,0.5167,0.5694,355.712
16:54:16:612,2.7015,3.0628,8.1763,43.794,-0.5061,0.6401,0.2053,355.1086
16:54:16:629,1.7563,3.1633,7.1091,44.1118,-0.5525,0.8331,-0.1917,354.9327
16:54:16:649,0.9811,3.2327,6.3745,43.4424,-0.5317,0.9675,-0.4764,355.0941
16:54:16:672,-0.2704,3.1681,5.5944,42.8864,-0.4059,0.623,-0.7757,355.5326
16:54:16:690,-1.0552,3.1011,5.5705,41.1815,-0.3314,0.3322,-0.8356,357.1423
16:54:16:711,-1.797,3.0413,5.8863,41.8818,-0.2715,0.1208,-0.7989,358.0551
16:54:16:731,-2.2708,3.0532,6.274,41.9774,-0.1872,-0.0001,-0.6682,358.9234
16:54:16:749,-2.4096,3.1466,6.8866,40.0838,-0.0907,-0.0661,-0.4678,359.6253
16:54:16:774,-2.2612,3.2566,8.1476,41.2962,0.0193,-0.1614,-0.2565,0.0832
16:54:16:793,-1.9262,3.3715,9.2626,41.5302,0.194,-0.3642,-0.0708,0.3636
16:54:16:811,-1.6678,3.5462,9.2411,42.3164,0.4456,-0.5609,0.0453,0.5433
16:54:16:829,-1.6367,3.6682,9.5665,39.7517,0.5727,-0.6207,0.0954,0.7013
16:54:16:849,-1.7683,3.7352,10.2676,40.4217,0.5483,-0.5694,0.1198,0.853
16:54:16:873,-1.7803,3.8405,11.2774,38.1067,0.4835,-0.4595,0.1503,0.9668
16:54:16:890,-1.4572,3.8429,12.1172,38.256,0.4285,-0.4192,0.1882,0.991
16:54:16:912,-0.8901,3.6108,13.6032,41.1024,0.3332,-0.545,0.1785,1.0466
16:54:16:930,-0.6843,2.9719,15.5892,38.1086,0.2575,-0.8382,0.0966,1.2689
16:54:16:949,-1.0217,2.3282,15.8142,40.3566,0.4151,-1.0154,0.0147,1.6789
16:54:16:973,-1.4118,1.8497,14.4024,38.0047,0.7193,-0.8529,0.0844,2.0552
16:54:16:991,-1.9286,2.12,12.1029,38.0541,0.9869,-0.2713,0.3421,2.0336
16:54:17:011,-1.9789,2.7757,9.3392,39.6353,1.1518,0.5961,0.705,1.3509
16:54:17:030,-1.9262,3.5797,7.8939,39.0043,1.0137,1.213,0.9677,0.1177
16:54:17:048,-1.3591,3.7017,8.5017,37.433,0.525,1.1422,1.0471,358.7816
16:54:17:075,-0.9882,3.1107,10.5619,38.1026,0.0095,0.5753,0.92,357.6938
16:54:17:088,-1.3065,2.2181,11.6722,36.9561,-0.2006,0.0561,0.6867,357.0966
16:54:17:109,-2.1679,1.5697,12.1125,37.4337,-0.1493,0.0451,0.5804,356.7246
16:54:17:129,-2.3426,1.2395,10.2915,35.4981,0.139,0.8759,1.0618,356.114
16:54:17:149,-0.9236,1.4859,9.1669,38.7779,0.1805,1.2534,1.4527,354.9174
16:54:17:172,0.4498,1.7085,8.6094,39.0959,0.0974,1.4061,1.6457,350.819
16:54:17:194,1.2203,1.9119,8.5615,37.0874,0.0241,1.3071,1.5883,348.5347
16:54:17:209,1.5099,1.9023,8.3629,35.8566,0.0547,0.9711,1.3806,346.5619
16:54:17:273,1.517,1.8951,7.8556,36.1379,0.205,0.5851,1.157,344.9613
16:54:17:273,1.5529,1.8879,7.066,36.6249,0.4004,0.2968,0.9921,343.6001
16:54:17:274,1.6869,2.0076,6.061,36.6249,0.5617,0.1819,0.8724,342.4335
16:54:17:289,1.7755,2.2325,5.4293,36.7995,0.6008,0.1954,0.7636,341.3863
16:54:17:309,1.8616,2.3689,5.3504,37.8647,0.5348,0.2271,0.65,340.4646
16:54:17:329,1.943,2.4981,5.5298,34.3487,0.4456,0.1831,0.5156,339.6593
16:54:17:347,1.986,2.5555,5.7643,35.6494,0.3711,0.0048,0.3715,339.038
16:54:17:372,2.2349,2.5651,6.1831,36.2956,0.2966,-0.2958,0.2249,338.715
16:54:17:390,2.3545,2.4215,6.9918,35.4547,0.1976,-0.7075,0.0282,338.697
16:54:17:409,2.1918,2.053,7.8628,36.2162,0.0828,-1.1546,-0.2357,339.202
16:54:17:428,1.8664,1.7563,8.863,34.4532,-0.0809,-1.4979,-0.4776,340.0817
16:54:17:447,1.5888,1.5529,8.7912,34.3741,-0.2019,-1.4136,-0.6181,341.1806
16:54:17:469,0.8782,1.9478,7.8796,34.469,-0.263,-0.7087,-0.6658,342.1366
16:54:17:494,0.4834,2.7254,7.6355,34.498,-0.4486,0.2173,-0.6181,342.686
16:54:17:522,1.1222,2.8762,9.2698,34.719,-0.9019,0.5997,-0.6181,343.0245
16:54:17:526,1.0528,2.345,13.0361,34.7622,-1.5018,0.2467,-0.8832,343.7321
16:54:17:551,-0.4714,1.462,17.3001,31.8293,-1.8439,-0.5267,-1.2791,345.3127
16:54:17:567,-2.3402,0.9547,18.9823,32.6288,-1.4749,-1.0728,-1.389,347.3947
16:54:17:589,-1.1414,1.8831,12.6796,32.9331,0.3235,-0.7564,-0.3713,349.1451
16:54:17:608,0.6365,2.3689,10.7103,33.9024,0.4896,-0.2933,0.0392,349.9315
16:54:17:629,1.8329,2.7757,10.2173,33.4072,0.2331,-0.0636,0.1039,349.9276
16:54:17:648,2.053,2.9886,9.7843,34.0824,-0.0614,-0.0759,-0.0903,349.9753
16:54:17:673,1.2945,2.9216,9.3081,34.0308,-0.2642,-0.0453,-0.4129,350.4544
16:54:17:688,0.3996,2.8738,8.7195,32.6707,-0.3717,0.1782,-0.634,351.1444
16:54:17:707,-0.457,3.0508,8.3151,34.2608,-0.3888,0.5032,-0.6755,351.8936
16:54:17:727,-1.0385,3.1442,8.0901,30.55,-0.3399,0.6645,-0.6083,352.64
16:54:17:748,-1.328,3.2136,7.5087,33.3677,-0.2092,0.5631,-0.4715,353.2534
16:54:17:769,-1.2251,3.3835,6.5707,32.9331,-0.0418,0.3139,-0.2956,353.7635
16:54:17:787,-0.8662,3.5701,5.7045,34.7407,0.0559,0.0829,-0.116,354.145
16:54:17:808,-0.3757,3.6203,5.3264,34.2343,0.0351,-0.0319,0.0001,354.3539
16:54:17:828,-0.2823,3.5366,5.4389,34.9175,-0.0602,-0.0331,0.0245,354.5616
16:54:17:852,-0.2776,3.393,5.872,32.6349,-0.1347,-0.0209,0.0196,354.7665
16:54:17:877,-0.1651,3.3476,6.451,30.502,-0.1371,-0.0587,0.0453,354.8825
16:54:17:889,0.1507,3.3021,6.7406,30.55,-0.0638,-0.1369,0.0929,354.8791
16:54:17:909,0.4834,3.3643,6.7932,34.1416,0.0339,-0.2041,0.1345,354.8746
16:54:17:929,0.8638,3.3882,6.932,32.6801,0.073,-0.2481,0.1479,354.8683
16:54:17:948,1.1414,3.3763,7.3723,33.6555,0.0376,-0.2774,0.1198,354.8524
16:54:17:972,1.194,3.3021,8.3055,33.0709,-0.0589,-0.3422,0.0453,354.9836
16:54:17:987,1.0409,2.9097,9.8991,34.3566,-0.175,-0.4644,-0.0598,355.2833
16:54:18:008,1.1605,2.2469,12.2776,32.9948,-0.2532,-0.6672,-0.1453,355.7185
16:54:18:029,1.4692,1.651,14.8642,33.6733,-0.263,-1.0007,-0.1868,356.2754
16:54:18:050,0.9332,2.1105,13.139,33.3774,0.4151,-0.4509,-0.0867,357.2401
16:54:18:073,0.6652,3.3811,10.0738,32.7496,0.7315,0.6559,0.1161,357.0985
16:54:18:088,0.0909,4.1874,9.9182,34.0935,0.4615,1.2595,0.1882,356.767
16:54:18:109,-0.8997,4.2999,11.3276,34.5022,0.0205,1.0958,0.0697,356.7115
16:54:18:127,-1.5482,3.8931,12.1603,32.5147,-0.2385,0.3823,-0.1319,357.1198
16:54:18:152,-1.2203,3.1537,13.3998,33.6179,-0.4584,-0.4082,-0.2553,357.8705
16:54:18:168,-0.9667,1.9262,15.6945,33.6733,-0.7467,-0.8028,-0.3469,358.8692
16:54:18:187,-1.7994,0.8566,17.2044,32.8503,-0.7858,-0.4973,-0.4141,359.9387
16:54:18:207,-3.082,0.7489,15.2638,32.3887,-0.3509,0.4519,-0.2284,0.6495
16:54:18:227,-3.1059,1.2562,12.3613,32.4988,0.1512,1.4525,0.2664,0.6244
16:54:18:250,-2.1846,1.6534,10.4854,32.9488,0.3772,1.8593,0.7881,359.7624
16:54:18:274,-1.0959,2.0339,9.0903,32.7853,0.5153,1.6492,1.129,358.4157
16:54:18:287,-0.0646,2.345,7.4824,32.8837,0.6558,1.0713,1.2646,356.9034
16:54:18:307,0.5743,2.4646,6.1328,32.9467,0.7193,0.4763,1.1925,355.5563
16:54:18:328,0.6245,2.4144,5.671,35.4626,0.6374,0.133,1.0141,354.4909
16:54:18:352,0.28,2.2325,5.9174,33.7143,0.4786,0.0463,0.8296,353.7108
16:54:18:367,0,2.0698,6.3864,33.2505,0.387,0.0585,0.7233,353.0336
16:54:18:387,-0.0598,1.9286,6.6185,35.0327,0.409,0.0133,0.683,352.4311
16:54:18:407,-0.0024,1.9214,6.4487,34.7765,0.5189,-0.0905,0.6537,351.9275
16:54:18:429,-0.0168,1.919,6.384,35.6166,0.6179,-0.2176,0.5938,351.5334
16:54:18:450,-0.0598,1.9406,6.3864,35.4929,0.6802,-0.3569,0.5181,351.2877
16:54:18:469,0.2513,2.0554,6.1567,37.521,0.6924,-0.5511,0.4692,351.1251
16:54:18:489,0.8183,2.2062,6.5013,36.1088,0.5666,-0.7637,0.4008,351.1046
16:54:18:514,1.7396,2.065,7.8652,36.4088,0.1255,-0.8932,0.0831,351.32
16:54:18:530,2.0483,1.8377,8.6788,35.7271,-0.0626,-0.7588,-0.1086,351.8797
16:54:18:549,2.0315,1.596,9.1813,34.1635,-0.2031,-0.5169,-0.2944,352.2252
16:54:18:570,1.5793,1.7228,8.4586,36.813,-0.2177,-0.0453,-0.4299,352.6422
16:54:18:588,1.2562,2.2588,7.4321,35.7663,-0.2055,0.5411,-0.4605,353.0158
16:54:18:607,1.2132,2.9695,7.8054,35.9943,-0.3888,0.7989,-0.4458,353.1821
16:54:18:627,1.6678,3.1346,10.0642,36.4886,-0.6637,0.5949,-0.4715,353.4215
16:54:18:648,1.8855,2.9384,11.4903,35.4189,-0.7504,0.0878,-0.601,354.0019
16:54:18:669,1.742,3.0102,10.873,36.2592,-0.6197,-0.3104,-0.7708,354.9415
16:54:18:687,1.4453,3.0963,11.0166,34.9657,-0.6722,-0.4509,-0.9247,356.1012
16:54:18:708,0.7346,2.6178,13.5529,34.9657,-1.018,-0.5768,-1.0787,357.5623
16:54:18:730,0.323,1.9501,15.5366,36.258,-1.1768,-0.7942,-1.1398,359.195
16:54:18:751,-0.3374,1.3113,16.0271,34.5301,-0.9972,-0.9482,-1.0689,0.9367
16:54:18:769,-1.0863,0.9045,15.7615,35.5629,-0.6734,-0.8101,-0.8062,2.3727
16:54:18:787,-0.8949,1.1127,14.5579,34.5884,-0.2959,-0.5096,-0.2797,3.1867
16:54:18:807,0.6221,1.7707,12.4116,32.5414,0.0925,-0.2603,0.3299,3.1126
16:54:18:832,1.8879,2.4885,9.8489,37.3464,0.3638,-0.1296,0.6708,2.4418
16:54:18:850,2.4957,3.0437,7.7575,37.0133,0.4114,0.0048,0.6732,1.7056
16:54:18:871,2.5627,3.3571,6.5994,38.3076,0.2636,0.2247,0.4937,1.1122
16:54:18:887,2.1009,3.3954,6.0754,37.3634,0.0693,0.4849,0.2322,0.7681
16:54:18:908,1.3137,3.3739,5.6327,39.1223,-0.0504,0.6694,-0.0146,0.6783
16:54:18:930,0.6102,3.3165,5.4485,39.1178,-0.098,0.673,-0.1783,0.8655
16:54:18:952,0.1651,3.2566,5.2977,39.6253,-0.1041,0.4849,-0.2491,1.242
16:54:18:969,0.0168,3.2279,6.0586,38.6538,-0.1359,-0.0893,-0.2797,2.0424
16:54:18:987,0.0144,3.1394,7.1187,38.5051,-0.1444,-0.3068,-0.2919,2.6746
16:54:19:007,0.0048,3.0532,7.9585,37.5013,-0.0662,-0.4057,-0.2968,3.3172
16:54:19:030,0.1101,3.0532,8.6022,39.2804,0.062,-0.4179,-0.2687,3.9431
16:54:19:049,0.5862,3.0867,9.3033,39.9841,0.1463,-0.4057,-0.2198,4.4801
16:54:19:067,0.792,3.1274,9.6957,40.1269,0.1964,-0.3275,-0.2211,4.9357
16:54:19:088,0.6724,3.125,9.7867,38.6947,0.2379,-0.1174,-0.2638,5.4
16:54:19:107,0.1364,3.149,10.3155,41.5467,0.2697,0.1917,-0.2882,5.8318
16:54:19:130,-0.2417,3.2184,10.5739,40.7712,0.3345,0.4263,-0.2455,6.222
16:54:19:150,-0.0359,3.2686,10.7175,39.7659,0.4065,0.4385,-0.1465,6.442
16:54:19:169,0.4355,3.2901,11.275,40.5915,0.4139,0.2674,-0.061,6.6062
16:54:19:188,0.6174,3.5509,10.94,41.2401,0.4652,0.1746,-0.0146,6.7041
16:54:19:206,0.2656,4.0175,8.8965,41.2401,0.6387,0.4886,0.0294,6.6602
16:54:19:228,-0.6174,4.5583,6.8818,40.8007,0.7047,1.1068,0.0526,6.4317
16:54:19:249,-1.9836,4.9723,7.0134,41.3381,0.4285,1.4158,0.0257,6.1934
16:54:19:267,-3.393,5.1015,8.26,41.3381,0.0706,1.1691,-0.0231,6.192
16:54:19:377,-4.2281,4.879,9.2985,42.9245,-0.1396,0.546,-0.0305,6.4981
16:54:19:379,-3.4217,3.9769,10.5164,39.9193,-0.3619,-0.1101,0.1088,6.8278
16:54:19:380,-1.5816,3.1274,14.4048,41.5073,-0.8249,-0.6012,0.3104,6.8957
16:54:19:382,-0.5767,1.3615,18.9607,40.1656,-1.2257,-0.8235,0.3067,7.0574
16:54:19:383,-1.3567,0.7705,18.5109,39.8567,-0.8139,-0.2017,0.2261,7.125
16:54:19:396,-2.0722,1.0959,14.7015,39.7317,-0.0174,0.9919,0.4069,6.6178
16:54:19:415,-1.9214,1.5816,11.4305,40.1739,0.4408,1.9388,0.7966,3.5988
16:54:19:432,-0.1436,2.199,8.0064,41.4275,0.6093,1.9216,1.3073,1.5253
16:54:19:450,0.5336,2.3306,6.9081,38.9889,0.6203,1.29,1.2939,359.7085
16:54:19:467,0.9021,2.3426,6.1615,41.3178,0.5849,0.662,1.1839,358.1147
16:54:19:487,1.1605,2.2253,5.7858,42.4749,0.5031,0.221,1.063,356.8354
16:54:19:508,1.4046,2.0842,5.8217,41.5915,0.4175,-0.0087,0.9555,355.712
16:54:19:531,1.4955,1.919,5.9821,41.5915,0.376,-0.1052,0.8504,354.7349
16:54:19:547,1.2945,1.8329,5.6853,41.2931,0.4029,-0.1663,0.7307,353.9355
16:54:19:571,1.2012,1.8377,5.0608,42.6149,0.4285,-0.2383,0.6342,353.2883
16:54:19:587,1.1438,1.9789,5.068,40.5997,0.365,-0.341,0.556,352.7812
16:54:19:609,1.2012,1.9621,5.324,41.9429,0.2367,-0.4815,0.4716,352.4111
16:54:19:628,1.395,2.0148,5.2116,42.1692,0.1341,-0.6207,0.3739,352.192
16:54:19:647,1.4955,2.1488,5.4556,41.4218,-0.0211,-0.7686,0.2359,352.1508
16:54:19:667,1.4931,2.0148,6.4534,42.2282,-0.2923,-0.9799,0.0416,352.4444
16:54:19:689,1.1821,1.6391,8.2959,40.7145,-0.5977,-1.173,-0.171,353.0482
16:54:19:711,0.6724,1.5266,8.8295,41.4218,-0.7724,-1.1656,-0.3249,353.8159
16:54:19:727,0.3852,2.2421,8.3653,41.8932,-0.8384,-0.7124,-0.3664,354.436
16:54:19:747,0.95,2.7924,9.466,40.8294,-1.1634,-0.1724,-0.3652,354.8438
16:54:19:767,1.4692,2.5029,13.2251,40.8263,-1.7156,-0.1931,-0.5839,355.4039
16:54:19:787,1.3831,1.5266,16.4578,39.8159,-1.977,-0.76,-0.9944,356.6072
16:54:19:814,0.2967,0.5288,18.9009,39.2869,-1.8329,-1.2108,-1.3438,358.4326
16:54:19:828,-1.0337,0.0359,18.8794,38.2034,-1.3564,-1.0642,-1.3646,0.3038
16:54:19:849,-1.4764,0.5862,16.3645,39.1781,-0.6344,-0.2078,-0.9187,1.5369
16:54:19:867,-0.2201,1.2538,13.8616,41.3851,-0.1139,0.5802,-0.276,1.8055
16:54:19:891,2.3115,2.0722,11.5047,38.5457,0.1402,0.447,0.0709,1.1933
16:54:19:911,1.9358,2.1846,9.6646,40.5183,0.2269,0.1734,-0.2052,1.2621
16:54:19:929,1.0026,2.2516,8.1428,41.9648,0.2111,0.2014,-0.4727,1.7102
16:54:19:947,0.0359,2.3139,7.4752,42.7368,0.0632,0.4483,-0.6144,2.3207
16:54:19:967,-0.7585,2.3833,7.0827,39.5282,-0.0589,0.6914,-0.6254,2.9623
16:54:19:986,-1.2873,2.4837,6.8195,41.6865,-0.076,0.7745,-0.5472,3.4637
16:54:20:010,-1.5625,2.6824,6.3099,42.2822,0.0083,0.6657,-0.4141,3.9224
16:54:20:028,-1.7204,2.7852,5.9916,41.0652,0.0889,0.3872,-0.2785,4.2881
16:54:20:046,-1.6869,2.9193,6.1854,43.3319,0.1097,0.0292,-0.1367,4.5297
16:54:20:066,-1.3256,2.9623,6.6879,41.3793,0.1182,-0.275,0.0099,4.7101
16:54:20:087,-0.9069,2.9958,7.0564,41.7327,0.1671,-0.3886,0.1247,4.7421
16:54:20:109,-0.4331,3.0341,7.7432,43.1837,0.2257,-0.3556,0.2102,4.6269
16:54:20:127,-0.0526,3.1154,8.595,41.9248,0.2795,-0.2884,0.2542,4.4817
16:54:20:148,0.0526,3.015,9.4588,42.8936,0.3491,-0.2481,0.2212,4.317
16:54:20:167,-0.1364,2.8379,10.0188,41.8981,0.4493,-0.2127,0.1674,4.1975
16:54:20:187,-0.4977,2.8905,10.4495,42.5316,0.5776,-0.165,0.1516,4.1176
16:54:20:207,-0.5336,3.0269,10.1312,42.3096,0.7132,-0.1638,0.1931,3.9838
16:54:20:227,0.0598,3.3332,9.3894,43.4555,0.7645,-0.1284,0.2578,3.7332
16:54:20:251,1.2347,3.3069,9.5689,44.7595,0.5727,-0.1162,0.2578,3.4275
16:54:20:266,1.675,2.9839,11.3515,41.0579,0.1573,-0.1992,0.1003,3.2797
16:54:20:288,1.2323,2.4957,12.8303,43.6409,-0.0662,-0.1589,-0.116,3.3857
16:54:20:308,0.3015,2.8068,11.6961,42.7758,0.2477,0.2711,-0.177,3.4753
16:54:20:331,-0.323,3.3906,9.0688,42.5551,0.7205,0.8698,-0.0573,3.2799
16:54:20:347,-2.1535,4.3406,8.272,45.0493,0.5996,0.9467,0.0563,2.5979
16:54:20:367,-2.8235,4.1946,9.0664,42.0545,0.3821,0.403,0.0355,2.5541
16:54:20:391,-2.5723,3.752,9.7005,43.4329,0.1989,-0.3031,0.0551,2.7237
16:54:20:409,-1.4094,3.0724,11.4281,44.1852,-0.1872,-0.9751,0.0893,3.019
16:54:20:426,-1.0816,1.809,15.5199,44.3816,-0.7235,-1.3159,-0.0036,3.5629
16:54:20:446,-1.7372,0.5527,17.458,41.2217,-0.7529,-1.0056,-0.0903,4.0878
16:54:20:465,-2.8163,0.6604,15.2255,43.2094,-0.0699,0.0952,0.1003,4.1345
16:54:20:487,-2.4957,1.2969,11.8947,43.6902,0.5788,1.2179,0.5779,3.2661
16:54:20:507,-1.0792,1.7444,9.6072,42.1929,0.7743,1.6663,1.0251,1.6764
16:54:20:528,0.1986,2.2038,8.3868,42.9249,0.7144,1.5307,1.2377,359.7272
16:54:20:550,1.1007,2.5268,7.681,45.2469,0.6436,1.1385,1.2047,357.886
16:54:20:566,1.5649,2.68,6.9153,46.4479,0.657,0.7805,1.041,356.3302
16:54:20:588,1.7348,2.8116,5.9701,45.6366,0.7303,0.5997,0.8553,355.0115
16:54:20:611,1.7683,2.881,4.9843,45.6589,0.7596,0.5044,0.6891,353.9164
16:54:20:629,1.5242,2.9456,4.5248,46.0544,0.6765,0.4189,0.5169,353.0765
16:54:20:646,1.4022,2.9264,4.477,45.6293,0.5226,0.3261,0.3556,352.4152
16:54:20:666,1.407,2.8833,4.599,46.403,0.3882,0.1831,0.2163,351.936
16:54:20:690,1.2802,2.8786,4.6445,46.9457,0.2893,-0.005,0.0599,351.7175
16:54:20:706,1.0002,2.9791,4.4554,47.3024,0.2245,-0.1785,-0.0952,351.774
16:54:20:726,0.9069,3.2447,4.4602,45.9221,0.1524,-0.2921,-0.2149,351.9985
16:54:20:746,0.658,3.405,5.1709,44.2919,0.0009,-0.4729,-0.3493,352.4556
16:54:20:768,0.3398,3.3452,7.1809,44.2135,-0.2275,-0.8761,-0.513,353.2524
16:54:20:794,0.7298,3.3691,9.2507,45.9633,-0.6087,-1.5211,-0.7354,355.8338
16:54:20:807,0.8423,3.9601,10.5978,45.0562,-0.8408,-0.8504,-0.8747,356.9437
16:54:20:828,0.5216,3.8812,12.9021,45.1989,-1.2916,-0.0942,-1.0714,357.9653
16:54:20:846,-0.0574,3.4409,16.3454,45.6021,-1.7559,0.2797,-1.2595,359.0883
16:54:20:866,-1.0361,2.9503,19.1785,43.7781,-1.7632,0.3884,-1.3768,0.3393
16:54:20:888,-2.5819,2.321,19.3436,43.033,-1.2305,0.3224,-1.3914,1.7805
16:54:20:908,-4.3406,2.1559,16.9292,43.4991,-0.3631,0.3163,-1.2094,3.1316
16:54:20:926,-4.7282,2.3833,13.0768,41.5915,0.486,0.414,-0.6902,3.9537
16:54:20:947,-3.7017,2.9647,9.9374,44.2703,0.9514,0.458,-0.0097,3.9366
16:54:20:968,-2.345,3.5366,8.4443,43.8963,0.9209,0.2014,0.4692,3.4555
16:54:20:988,-1.2203,3.7113,7.9322,45.2689,0.6472,-0.3092,0.606,2.899
16:54:21:006,-0.7178,3.6634,7.6857,46.4341,0.4029,-0.7539,0.4888,2.6136
16:54:21:028,-0.6628,3.527,7.4369,43.977,0.2245,-0.9372,0.2957,2.6022
16:54:21:045,-0.8949,3.2806,7.4441,42.951,0.0865,-0.8187,0.1369,2.7001
16:54:21:066,-1.3041,3.0652,7.4489,45.1989,0.0339,-0.4827,0.0746,2.7614
16:54:21:087,-1.4716,3.0676,7.2503,43.7781,0.0938,-0.1308,0.1479,2.6719
16:54:21:105,-1.1868,3.1514,6.7621,43.9927,0.2257,0.0878,0.3031,2.3298
16:54:21:126,-0.7633,3.3619,6.0969,44.481,0.3528,0.1978,0.4399,1.7716
16:54:21:146,-0.4116,3.6227,5.6518,43.771,0.4175,0.2687,0.4949,1.1266
16:54:21:165,-0.3183,3.8309,5.4341,45.7441,0.4151,0.3297,0.4839,0.4818
16:54:21:190,-0.3805,4.1133,5.3192,44.9864,0.3931,0.3859,0.4497,359.8553
16:54:21:206,-0.2082,4.3908,5.3168,45.3242,0.3674,0.4067,0.4289,359.1624
16:54:21:226,-0.0024,4.6373,5.4078,46.8037,0.3198,0.4055,0.3996,358.4928
16:54:21:247,-0.1675,4.8287,6.5037,46.4468,0.0925,0.3737,0.1736,357.9181
16:54:21:272,-0.4187,4.812,7.401,45.72,-0.0223,0.2638,0.0221,357.5617
16:54:21:286,-0.8471,4.6684,8.339,45.0715,-0.0577,0.1172,-0.0867,357.3276
16:54:21:305,-0.804,4.3884,9.6096,44.5937,-0.0931,-0.2005,-0.1416,357.5009
16:54:21:325,-0.055,3.8548,12.0598,44.5262,-0.2703,-0.9152,-0.2052,357.9987
16:54:21:345,0.5791,2.9145,14.2876,43.8264,-0.3949,-1.6519,-0.3139,358.9032
16:54:21:366,0.3924,2.4,12.5575,44.3783,-0.0931,-1.581,-0.3457,359.8283
16:54:21:437,-0.6437,3.137,9.0162,44.5021,0.3968,-0.2151,-0.1477,0.021
16:54:21:438,-1.6582,4.0869,8.1763,46,0.4542,1.6003,0.2151,359.1158
16:54:21:439,-2.4909,4.5918,8.461,44.4985,-0.0895,2.1709,0.435,357.7624
16:54:21:448,-2.991,4.6086,9.9661,45.6034,-0.5476,1.9204,0.4362,356.554
16:54:21:466,-2.8163,4.4674,10.5571,44.1239,-0.6954,1.1642,0.3556,355.7166
16:54:21:486,-2.3474,3.807,11.8349,44.516,-0.8482,0.1758,0.2737,355.3323
16:54:21:506,-2.211,2.7159,14.5771,43.9835,-1.062,-0.5426,0.1564,355.35
16:54:21:528,-2.5603,2.0411,15.3093,44.5699,-0.9044,-0.6036,0.1528,355.4108
16:54:21:545,-2.9527,2.0028,13.5218,43.4712,-0.3839,0.0439,0.3837,354.9934
16:54:21:571,-2.4574,2.2205,11.7081,44.0726,-0.0223,0.7879,0.7942,353.8876
16:54:21:587,-1.2897,2.3091,11.086,44.2763,0.0535,1.0603,1.135,352.2163
16:54:21:607,-0.4092,2.3043,10.4973,43.3032,0.1121,0.8868,1.2694,350.445
16:54:21:626,0.0072,2.2947,9.3535,43.678,0.2941,0.5936,1.2462,348.7706
16:54:21:646,0.2441,2.2995,7.7288,43.4866,0.5031,0.403,1.1851,347.2226
16:54:21:670,0.4044,2.3402,6.4199,44.94,0.6313,0.3872,1.1558,345.7385
16:54:21:687,0.7083,2.4455,5.6423,45.8057,0.657,0.4617,1.1485,344.1938
16:54:21:729,1.2179,2.7924,4.8359,44.4794,0.5605,0.3872,1.0019,340.2863
16:54:21:744,1.2467,2.991,4.9914,44.1608,0.42,0.1416,0.8321,339.5181
16:54:21:762,1.3304,2.8618,5.8648,43.9117,0.2612,-0.2261,0.6476,339.103
16:54:21:783,1.3256,2.6249,6.4558,45.2454,0.2526,-0.8565,0.3373,338.9371
16:54:21:802,1.7228,2.7254,5.9964,45.1752,0.2551,-1.0202,0.2139,338.9943
16:54:21:820,2.2875,2.5436,5.9486,46.3521,0.0046,-1.0655,0.0147,339.2164
16:54:21:840,2.3665,2.0722,7.48,46.2522,-0.5171,-0.8492,-0.254,339.5996
16:54:21:859,0.9954,1.6199,9.7723,45.876,-0.9618,-0.2591,-0.5509,340.0428
16:54:21:878,-1.2012,2.0243,10.861,44.5163,-1.0021,0.4238,-0.7378,340.5328
16:54:21:899,-1.4142,2.6297,10.9041,44.2659,-0.875,0.7146,-0.6425,340.8116
16:54:21:919,0.2967,2.8953,12.2584,45.4509,-1.0192,0.3737,-0.4678,340.9632
16:54:21:936,1.2132,2.4766,15.1729,44.5966,-1.3662,-0.3764,-0.5802,341.4526
16:54:21:954,0.5767,1.742,17.7906,44.1182,-1.4211,-0.9042,-0.8771,342.487
16:54:21:974,-0.5623,1.5912,16.5871,45.3997,-0.864,-0.8846,-0.9504,343.6418
16:54:22:006,-0.8423,2.3067,12.4068,43.9422,-0.0919,-0.3678,-0.6938,344.4256
16:54:22:015,0.0742,3.0341,9.746,42.0239,0.1536,0.1514,-0.3224,344.6195
16:54:22:032,1.1294,3.3428,9.679,44.8824,-0.1408,0.2833,-0.1758,344.5651
16:54:22:051,1.206,3.2327,10.0594,46.0411,-0.4609,0.177,-0.3127,344.6785
16:54:22:070,0.3972,3.0389,9.7699,45.2562,-0.5354,0.0988,-0.5472,345.1352
16:54:22:089,-0.3757,2.9336,8.8989,44.7739,-0.445,0.1514,-0.6584,345.7264
16:54:22:110,-0.7872,3.0173,8.1499,44.6117,-0.3301,0.2882,-0.6218,346.2806
16:54:22:130,-1.0624,3.1418,7.4512,44.7738,-0.2153,0.3725,-0.5363,346.7287
16:54:22:151,-1.3137,3.2877,6.6592,45.1045,-0.1041,0.3358,-0.4605,347.151
16:54:22:169,-1.4309,3.4696,6.0323,43.7489,-0.0296,0.2222,-0.3896,347.5834
16:54:22:187,-1.4165,3.5581,5.9342,43.8785,-0.0418,0.0707,-0.3188,347.9191
16:54:22:206,-1.3591,3.4935,6.7262,44.0155,-0.1004,-0.0722,-0.2736,348.2071
16:54:22:227,-1.4883,3.4217,7.4752,42.3783,-0.0846,-0.1675,-0.2369,348.5156
16:54:22:254,-1.6534,3.4146,7.7145,43.5347,0.0302,-0.1944,-0.1795,348.7807
16:54:22:272,-1.5888,3.3906,7.8987,42.2632,0.1378,-0.1834,-0.094,348.924
16:54:22:288,-1.3185,3.2782,8.7529,43.1176,0.183,-0.1614,0.0001,348.9364
16:54:22:305,-1.0768,3.2351,9.131,43.0225,0.266,-0.1369,0.0514,348.8578
16:54:22:325,-1.3591,3.3356,9.2554,41.8338,0.3833,-0.0783,0.0318,348.8394
16:54:22:346,-1.6223,3.2112,10.0953,41.811,0.4029,-0.0587,0.0086,348.8076
16:54:22:366,-1.4189,2.9767,11.4138,43.101,0.3589,-0.1614,0.0282,348.8
16:54:22:386,-1.0122,2.5579,13.5051,42.7729,0.2599,-0.4179,0.0331,348.8183
16:54:22:405,-0.7011,2.0937,14.7542,43.1507,0.2428,-0.5963,-0.0146,348.9053
16:54:22:424,-0.3852,1.8855,13.3424,45.1872,0.4688,-0.2835,-0.0243,348.9332
16:54:22:446,-0.4475,2.3833,10.66,43.7551,0.6448,0.4849,0.0123,348.7098
16:54:22:465,-1.6463,2.8092,9.7651,43.101,0.4652,1.2289,-0.0134,348.302
16:54:22:485,-2.991,3.0413,9.7388,43.1046,0.2196,1.5796,-0.0329,347.8647
16:54:22:505,-3.5438,3.3021,9.3607,42.5984,0.1475,1.4721,0.0722,347.3106
16:54:22:525,-2.8833,3.3141,9.2411,43.4499,0.0437,0.8807,0.2261,346.766
16:54:22:549,-1.8329,2.881,10.8036,42.6539,-0.2593,0.0732,0.2774,346.3719
16:54:22:567,-1.5218,2.0554,13.5099,41.6362,-0.5818,-0.5413,0.1833,346.2872
16:54:22:585,-1.6008,1.3591,14.6824,43.334,-0.5537,-0.6635,0.132,346.2407
16:54:22:604,-1.6965,1.3448,13.0385,44.2758,-0.1322,-0.1821,0.2652,345.9304
16:54:22:630,-0.5432,1.7874,9.2339,44.0726,0.3662,0.871,0.749,344.0241
16:54:22:650,0.1819,1.943,8.4132,43.7649,0.3638,0.8245,0.854,342.7187
16:54:22:667,0.5815,2.1033,7.657,44.1717,0.3736,0.5252,0.8321,341.4842
16:54:22:685,0.8064,2.1823,6.9176,42.9757,0.4114,0.1611,0.7331,340.5046
16:54:22:705,1.06,2.2086,6.5181,44.4765,0.4297,-0.1259,0.6268,339.7389
16:54:22:725,1.1581,2.266,6.1161,44.0094,0.4383,-0.297,0.5083,339.1827
16:54:22:747,0.95,2.4981,5.5274,41.2884,0.4518,-0.352,0.3764,338.7581
16:54:22:766,0.7872,2.68,5.0201,45.3447,0.4297,-0.341,0.2554,338.5154
16:54:22:785,0.5264,2.8666,4.733,43.8889,0.3711,-0.3251,0.1357,338.402
16:54:22:805,0.201,3.082,4.532,44.3077,0.2856,-0.3642,0.0196,338.47
16:54:22:825,0.0263,3.2686,4.6588,44.2659,0.1658,-0.4778,-0.0903,338.6854
16:54:22:846,-0.1579,3.216,5.5394,42.7268,0.0046,-0.6183,-0.2125,339.0973
16:54:22:864,-0.8542,3.1083,6.9392,41.8237,-0.1347,-0.7784,-0.3615,339.7267
16:54:22:886,-1.3448,3.1801,7.3675,44.9872,-0.1713,-0.9286,-0.4532,340.5796
16:54:22:904,-1.1007,3.4313,7.3172,41.9055,-0.2116,-0.881,-0.4458,341.3796
16:54:22:925,-0.8016,3.3858,8.2026,43.9818,-0.467,-0.6281,-0.4605,342.0676
16:54:22:945,-1.273,3.1872,10.2891,44.1069,-0.8176,-0.2457,-0.5558,342.713
16:54:22:970,-2.2851,3.082,12.67,41.0747,-1.0119,-0.0074,-0.6315,343.4122
16:54:22:992,-2.3067,2.7182,14.5029,40.6944,-0.9618,-0.1052,-0.5656,344.063
16:54:23:004,-1.2179,2.4598,15.7735,41.4901,-0.7797,-0.5181,-0.3921,344.5862
16:54:23:025,0.414,1.9478,16.1109,39.4844,-0.5452,-0.8871,-0.2479,344.9763
16:54:23:047,1.1222,1.6128,15.9027,39.7338,-0.3228,-0.8578,-0.2626,345.3784
16:54:23:066,0.6748,1.2323,14.9863,41.8682,-0.1286,-0.3996,-0.3554,345.735
16:54:23:085,-0.0359,1.4285,11.3468,42.8008,0.2111,0.6315,-0.1783,345.9372
16:54:23:105,0.4594,1.5888,10.3849,41.5881,0.1646,0.5118,-0.0219,345.9164
16:54:23:126,0.8399,1.8449,9.6287,41.7228,0.0925,0.2515,0.0367,345.4476
16:54:23:148,1.0265,2.2086,8.5878,41.2006,0.0889,0.1611,0.0379,345.2457
16:54:23:167,1.1438,2.5747,7.3196,43.3175,0.117,0.2393,0.0086,345.0307
16:54:23:185,1.0146,2.8283,6.2357,40.0018,0.0767,0.3554,-0.0806,344.8998
16:54:23:204,0.6676,2.857,6.0802,41.2006,-0.0895,0.3835,-0.2198,344.9533
16:54:23:225,0.0526,2.7111,6.4893,41.2006,-0.2654,0.3029,-0.3603,345.1814
16:54:23:245,-0.615,2.613,6.999,41.7386,-0.3033,0.2076,-0.4239,345.5382
16:54:23:265,-0.9356,2.6608,6.6903,40.5309,-0.1676,0.1318,-0.375,345.8849
16:54:23:285,-0.95,2.9551,5.7404,40.0386,0.0119,0.0793,-0.276,346.1634
16:54:23:307,-0.658,3.1681,5.4939,40.3376,0.018,-0.0087,-0.1929,346.339
16:54:23:329,-0.3709,3.2255,6.274,39.384,-0.1347,-0.1223,-0.1734,346.5243
16:54:23:346,-0.2536,3.1753,7.188,39.5275,-0.2605,-0.2029,-0.2149,346.7422
16:54:23:364,-0.2728,3.1059,8.0686,38.596,-0.302,-0.2274,-0.2711,347.0207
16:54:23:384,-0.3446,3.0293,9.0736,38.3906,-0.2947,-0.2225,-0.3114,347.3289
16:54:23:404,-0.4786,2.9886,9.5258,41.408,-0.2202,-0.1638,-0.3335,347.6642
16:54:23:426,-0.6078,2.9169,9.8465,39.0389,-0.1432,-0.0832,-0.3444,348.036
16:54:23:448,-0.9021,2.7374,10.6576,38.9202,-0.1212,-0.0453,-0.3481,348.3663
16:54:23:523,-1.084,2.546,11.4209,39.6054,-0.0626,-0.0307,-0.3017,348.6706
16:54:23:524,-0.9428,2.5914,11.7607,38.2688,0.095,-0.0135,-0.188,348.8459
16:54:23:524,-0.3733,2.7733,11.5836,38.5725,0.2514,-0.016,-0.0683,348.8481
16:54:23:524,0.079,3.2447,11.3468,37.9016,0.3088,0.0243,-0.0085,348.7598
16:54:23:546,-0.2584,3.0126,11.9569,38.5581,0.0767,0.1111,-0.2259,348.673
16:54:23:566,-1.6247,2.3976,13.718,38.6676,-0.12,-0.0661,-0.3921,348.8518
16:54:23:584,-3.0508,2.0794,13.7587,36.4534,-0.0198,-0.1736,-0.3713,349.7614
16:54:23:606,-3.4576,2.5077,11.2487,38.1567,0.376,0.05,-0.0964,349.8975
16:54:23:628,-2.5962,3.1226,9.3512,39.0712,0.4896,0.232,0.2481,349.6454
16:54:23:645,-1.4501,3.0197,9.7914,40.1279,0.1072,0.0683,0.3654,349.218
16:54:23:665,-1.1916,2.3713,11.6124,38.0016,-0.3656,-0.1846,0.2493,348.9761
16:54:23:687,-1.8497,1.6152,12.7514,37.6205,-0.5256,-0.2054,0.0917,348.937
16:54:23:706,-2.546,1.2897,11.8684,36.5951,-0.3216,0.0524,0.1039,348.8531
16:54:23:726,-2.613,1.3448,9.947,37.2992,-0.0272,0.4079,0.3165,348.4328
16:54:23:745,-1.8568,1.4979,8.6812,38.9036,0.0938,0.5777,0.6048,347.66
16:54:23:764,-0.9882,1.5266,8.1787,39.5355,0.0925,0.4861,0.7893,346.6128
16:54:23:784,-0.4427,1.6056,7.6355,39.0336,0.1341,0.2772,0.8467,345.5896
16:54:23:804,-0.0311,1.7444,6.9607,38.7694,0.2416,0.0634,0.8431,344.5922
16:54:23:824,0.4666,1.931,6.2859,38.9036,0.3442,-0.104,0.8296,343.6269
16:54:23:844,0.9667,2.2014,5.5585,39.0914,0.4065,-0.2054,0.7893,342.7269
16:54:23:864,1.3161,2.3617,5.1278,39.2519,0.365,-0.2249,0.6696,341.9456
16:54:23:886,1.1677,2.4526,5.4461,38.3612,0.2282,-0.2066,0.4692,341.4041
16:54:23:909,0.6389,2.3952,6.384,39.9086,0.095,-0.2506,0.2578,341.1146
16:54:23:930,0.2082,2.2588,7.1545,38.4726,0.0645,-0.3752,0.1137,341.0433
16:54:23:947,0.2249,2.4359,7.1761,38.1772,0.1708,-0.4546,0.0905,341.0158
16:54:23:964,0.481,2.747,6.9535,38.2688,0.2746,-0.4546,0.1039,340.9433
16:54:23:984,0.3183,3.1442,7.3077,39.8489,0.2758,-0.4179,0.0526,340.9933
16:54:24:008,0.3685,3.6993,7.5924,39.7892,0.0999,-0.4717,-0.1404,341.1187
16:54:24:025,1.0002,3.6945,8.6907,37.1851,-0.1591,-0.4106,-0.2577,341.7223
16:54:24:045,0.6269,3.4863,10.3729,37.4323,-0.4413,-0.115,-0.4813,342.1653
16:54:24:065,-0.7657,3.7639,11.3874,36.4413,-0.5329,0.4507,-0.6926,342.7067
16:54:24:084,-1.4788,3.7304,11.8493,36.7768,-0.5586,0.9247,-0.7269,343.1929
16:54:24:109,-1.6152,3.5031,13.0911,37.5771,-0.7101,0.9821,-0.6877,343.6025
16:54:24:131,-1.9023,3.0532,15.1896,37.7452,-0.8873,0.6352,-0.6682,344.1091
16:54:24:148,-2.7326,2.2588,16.1157,36.633,-0.8249,0.1465,-0.6438,344.7797
16:54:24:164,-3.405,1.4668,15.6012,36.6472,-0.5244,-0.1541,-0.4617,345.3498
16:54:24:183,-3.2207,0.8566,14.2947,36.4108,-0.1958,-0.2286,-0.0573,345.5412
16:54:24:207,-2.0674,0.8231,12.8614,36.0019,-0.0064,-0.2212,0.4606,345.0305
16:54:24:225,-0.2871,1.1964,11.4664,35.3938,0.0547,-0.176,0.9041,343.9785
16:54:24:245,0.7466,1.6989,10.5045,34.992,0.0706,-0.0661,1.0691,342.6691
16:54:24:265,0.6867,2.0148,9.4301,37.0084,0.1023,0.0646,0.9677,341.4986
16:54:24:284,-0.012,2.4167,8.1021,38.4798,0.1695,0.1929,0.7856,340.5342
16:54:24:307,-0.4738,2.5149,7.5924,35.937,0.1426,0.2283,0.6659,339.7008
16:54:24:324,-0.8901,2.4526,7.8245,37.4084,0.0913,0.1734,0.6036,338.952
16:54:24:344,-0.9834,2.4191,7.4943,36.5105,0.1695,0.0585,0.6048,338.2664
16:54:24:364,-0.7872,2.5819,6.9081,37.7946,0.3027,-0.0441,0.6525,337.5526
16:54:24:387,-0.469,2.7637,6.719,35.5263,0.354,-0.0905,0.6781,336.8239
16:54:24:405,-0.1819,2.8307,6.7693,36.3671,0.3442,-0.0453,0.6512,336.1051
16:54:24:426,-0.1938,2.7494,6.9775,38.3535,0.3271,0.039,0.5804,335.4328
16:54:24:447,-0.1866,2.1751,8.2863,38.4996,0.2978,0.0109,0.4716,334.8224
16:54:24:466,-0.0407,1.9693,8.272,38.2833,0.3858,0.0439,0.479,333.7216
16:54:24:488,0.1866,1.931,7.9083,36.7715,0.4774,0.188,0.512,333.0212
16:54:24:508,0.548,2.0243,7.6475,38.5071,0.4908,0.3322,0.5486,332.2144
16:54:24:524,0.6293,2.2158,7.4776,37.5292,0.4359,0.3933,0.523,331.4021
16:54:24:545,0.603,2.2301,8.1595,39.5585,0.2856,0.3151,0.4509,330.6949
16:54:24:563,0.6939,2.0339,10.0164,38.813,0.0877,0.1111,0.3813,330.1459
16:54:24:585,0.1579,1.9669,11.9569,38.507,0.0266,-0.1223,0.3226,329.6771
16:54:24:604,0.012,2.1823,11.1936,37.3945,0.2477,-0.165,0.3421,329.2581
16:54:24:624,0.402,2.8451,8.863,37.4361,0.4652,0.1111,0.457,328.6233
16:54:24:644,0.5623,3.2806,8.5663,38.3863,0.1903,0.3468,0.4656,327.9254
16:54:24:664,-0.3996,3.1633,10.6217,39.8225,-0.3717,0.3383,0.2835,327.4277
16:54:24:685,-1.6654,2.9623,11.7583,36.7049,-0.5855,0.2491,0.088,327.2188
16:54:24:705,-2.1033,2.6536,11.7799,37.6591,-0.5134,0.0695,0.0343,327.1122
16:54:24:725,-1.6032,2.1392,12.5838,37.2694,-0.5195,-0.1431,0.066,327.0162
16:54:24:744,-1.1438,1.5051,14.3115,36.881,-0.6075,-0.2713,0.0831,326.8996
16:54:24:764,-1.017,1.0552,14.3713,37.7505,-0.4743,-0.1223,0.088,326.7143
16:54:24:790,-0.9619,1.2491,11.7224,38.0143,-0.0736,0.3688,0.1589,326.3451
16:54:24:809,-0.615,1.5816,9.7292,38.5816,0.1585,0.8746,0.2762,325.7033
16:54:24:825,-0.3063,1.651,9.8058,39.4589,0.1109,0.9675,0.3043,324.9349
16:54:24:844,-0.3661,1.5793,10.2676,38.5583,0.1084,0.5985,0.2285,324.3915
16:54:24:865,-0.4451,1.4237,9.2626,39.3866,0.3027,0.0732,0.1406,324.1002
16:54:24:889,-0.1531,1.6008,8.0064,38.5489,0.4786,-0.1382,0.1308,323.9258
16:54:24:905,0.1388,2.0483,7.1952,38.5662,0.3882,0.1294,0.0746,323.6931
16:54:24:928,-0.122,2.1823,7.5278,38.8019,0.2954,0.1782,-0.017,323.4308
16:54:24:948,-0.2919,2.2277,8.0184,39.2137,0.2636,0.0475,-0.0842,323.4042
16:54:24:963,-0.2082,2.1488,8.5208,40.8331,0.3039,-0.1516,-0.1196,323.4701
16:54:24:986,-0.268,2.2205,8.2337,39.6245,0.4444,-0.2359,-0.1453,323.6278
16:54:25:011,-0.7346,2.5101,7.5206,38.5043,0.5727,-0.1931,-0.1893,323.8453
16:54:25:028,-0.7657,2.9456,7.6379,41.2322,0.5483,-0.1809,-0.2088,324.0835
16:54:25:044,-0.0287,2.7589,8.7505,39.0773,0.3882,-0.4143,-0.232,324.3889
16:54:25:065,0.0574,2.3904,10.6696,40.7023,0.1952,-0.8517,-0.3725,324.9902
16:54:25:084,0.3374,1.8544,11.9282,39.7001,0.1366,-1.1632,-0.5008,325.8194
16:54:25:105,0.5815,1.8616,11.4042,38.4763,0.3112,-1.0276,-0.5191,326.5876
16:54:25:124,0.9284,2.5172,9.8919,38.074,0.5067,-0.5083,-0.4397,327.0902
16:54:25:144,1.3639,3.3787,9.3296,38.813,0.5116,-0.0722,-0.3872,327.3956
16:54:25:164,1.5769,3.7543,9.8393,38.8669,0.3503,-0.1101,-0.4972,327.791
16:54:25:184,1.4213,3.2064,10.282,39.1392,0.1793,-0.501,-0.7659,328.6287
16:54:25:205,1.2443,2.4335,10.1862,38.4089,0.0339,-0.8052,-1.0506,329.8853
16:54:25:224,0.8758,1.998,11.1553,39.6604,-0.2165,-0.7368,-1.1899,331.248
16:54:25:244,-0.2345,1.9813,11.8971,38.5346,-0.3619,-0.3251,-1.1886,332.4972
16:54:25:264,-1.0361,2.5484,10.0594,38.923,-0.1261,0.2161,-0.9736,333.4006
16:54:25:286,-0.7322,3.5629,7.5494,38.0677,0.161,0.4287,-0.6499,333.8669
16:54:25:307,0.3805,4.1396,6.7645,37.8232,0.0693,0.0939,-0.4446,334.2358
16:54:25:326,1.2395,3.8548,7.9801,39.0914,-0.324,-0.4778,-0.5069,334.8408
16:54:25:345,1.005,3.3117,9.8249,38.8287,-0.6331,-0.8468,-0.7244,335.8312
16:54:25:371,-1.0528,3.3523,9.1669,37.8148,-0.2947,-0.3202,-0.8356,337.9753
16:54:25:386,-1.4213,3.8429,7.4225,38.2688,-0.043,0.1269,-0.6743,338.6631
16:54:25:407,-1.3831,4.13,6.7167,38.9701,-0.0345,0.2613,-0.5228,339.1927
16:54:25:424,-1.3615,4.2927,6.8028,37.8148,-0.1335,0.1294,-0.4703,339.6874
16:54:25:446,-1.4955,4.1826,7.0851,37.7531,-0.2043,-0.1247,-0.4837,340.2767
16:54:25:467,-1.5075,4.0128,7.2407,38.0619,-0.2006,-0.2982,-0.4862,340.9547
16:54:25:484,-1.5314,3.9075,7.1521,37.7531,-0.175,-0.275,-0.452,341.5911
16:54:25:506,-1.4788,3.8596,7.4058,38.0593,-0.2031,-0.1431,-0.3958,342.1028
16:54:25:524,-1.3543,3.7878,7.8939,36.1716,-0.2593,-0.0514,-0.3298,342.4916
16:54:25:570,-1.2227,3.7878,8.4275,37.7399,-0.28,-0.027,-0.2699,342.8398
16:54:25:571,-1.1031,3.8189,8.4443,38.0619,-0.2263,0.0023,-0.1954,343.0395
16:54:25:584,-0.8542,3.9817,8.2744,36.1486,-0.1432,0.0817,-0.1062,343.1324
16:54:25:604,-0.457,4.1324,8.193,36.6472,-0.1225,0.1294,-0.0292,343.1101
16:54:25:624,-0.079,4.1396,8.4658,37.7808,-0.1897,0.1123,-0.0048,343.073
16:54:25:644,-0.0718,3.9434,9.0233,39.0631,-0.2874,0.061,-0.0378,343.0826
16:54:25:665,-0.3493,3.7352,9.7579,38.7672,-0.3363,0.0414,-0.0708,343.1254
16:54:25:684,-0.5504,3.5007,10.1073,37.1263,-0.2715,0.0365,-0.0549,343.148
16:54:25:705,-0.67,3.5031,9.7771,37.2625,-0.1078,0.039,0.0111,343.1131
16:54:25:724,-0.871,3.8237,9.1645,38.6103,0.0278,0.0952,0.1015,342.9889
16:54:25:743,-1.0887,4.2305,8.7099,36.8546,0.0669,0.2442,0.1943,342.738
16:54:25:766,-1.2108,4.733,8.4395,39.3498,0.0669,0.414,0.2872,342.3328
16:54:25:785,-1.4046,5.2211,8.5663,38.3852,0.0437,0.4153,0.3397,341.8907
16:54:25:805,-1.4836,5.4461,8.9635,38.1756,0.0083,0.2528,0.3495,341.4827
16:54:25:828,-1.5745,5.0082,11.3181,38.3943,-0.1261,-0.0062,0.2921,340.9405
16:54:25:848,-2.1272,4.2736,12.7155,37.8708,-0.1029,-0.0539,0.2554,340.768
16:54:25:869,-2.7757,3.9147,12.3183,39.1352,0.1524,0.0378,0.3226,340.4955
16:54:25:900,-2.522,3.8764,10.9974,39.927,0.4652,0.2687,0.5523,339.9049
16:54:25:912,-1.6271,3.8548,9.9182,39.4972,0.5666,0.3554,0.7649,338.9947
16:54:25:925,-0.414,3.6371,9.8058,39.1129,0.3955,0.1746,0.8003,338.0482
16:54:25:950,0.3015,2.9934,10.861,40.1598,0.0241,-0.132,0.6488,337.3387
16:54:25:963,0.4283,2.2684,12.0431,39.1129,-0.2642,-0.1968,0.4167,336.852
16:54:25:983,0.5168,1.9286,11.3755,38.0472,-0.2532,0.122,0.2835,336.4049
16:54:26:004,0.4044,2.0961,9.7627,39.7535,-0.1335,0.6779,0.2383,335.8105
16:54:26:023,0.1412,2.1105,8.662,40.7914,-0.1505,1.1593,0.2065,335.0948
16:54:26:044,-0.1412,2.187,8.4084,40.841,-0.2544,1.3951,0.1699,334.3562
16:54:26:064,-0.6269,2.211,8.2529,39.6316,-0.2874,1.2693,0.1247,333.7302
16:54:26:085,-0.926,2.2181,7.4345,39.8355,-0.1958,0.8502,0.1076,333.2943
16:54:26:105,-0.938,2.2636,6.7693,39.6927,-0.1286,0.3346,0.1332,333.0262
16:54:26:123,-0.8183,2.211,6.6999,36.3548,-0.1689,-0.1223,0.1491,332.8786
16:54:26:143,-0.6054,2.1033,6.987,38.506,-0.2397,-0.3923,0.1491,332.7766
16:54:26:163,-0.6293,2.0387,7.468,40.2352,-0.2605,-0.4277,0.1406,332.7065
16:54:26:186,-0.9188,2.0865,7.6235,40.6956,-0.1762,-0.3629,0.1394,332.649
16:54:26:204,-0.9691,2.2158,7.2024,40.1674,-0.0211,-0.3385,0.1894,332.5315
16:54:26:223,-0.524,2.4598,6.6855,41.1727,0.1097,-0.3654,0.2713,332.3082
16:54:26:243,-0.2632,2.6967,6.3099,39.3352,0.1463,-0.4228,0.2774,332.1088
16:54:26:265,-0.4546,2.9695,6.5731,38.7299,0.0865,-0.5108,0.1858,332.08
16:54:26:285,-0.2967,2.7733,8.7386,42.8866,-0.1945,-0.9592,-0.0561,332.5987
16:54:26:303,0.1412,2.3761,10.8036,41.1504,-0.3766,-1.1815,-0.1795,333.1045
16:54:26:324,0.0622,2.1152,12.3948,41.1793,-0.4975,-1.1669,-0.3359,333.7624
16:54:26:349,-0.0574,2.333,11.8564,41.3672,-0.4658,-0.705,-0.419,334.3963
16:54:26:367,1.6869,1.7994,11.1218,41.0245,-0.5745,-0.027,-0.408,334.7193
16:54:26:388,2.589,1.1486,13.5864,39.7006,-1.1438,0.2467,-0.5973,335.1249
16:54:26:405,-0.0096,0.6963,16.6158,39.221,-1.4883,0.4947,-1.0054,335.9616
16:54:26:423,-2.0985,0.3948,17.2762,39.1155,-1.0803,0.601,-1.1312,337.0408
16:54:26:445,-1.8257,0.2823,15.6251,38.9267,-0.3387,0.2784,-0.761,337.8006
16:54:26:465,0.0431,0.3852,12.7537,39.034,0.288,-0.1003,-0.2919,338.0645
16:54:26:483,1.3854,0.5982,11.0357,40.1029,0.4383,-0.275,-0.0695,338.0884
16:54:26:503,1.7348,0.938,10.5236,39.311,0.2502,-0.2139,-0.0708,338.0899
16:54:26:524,1.2323,1.1725,9.7843,40.5069,0.1072,0.0145,-0.1587,338.1958
16:54:26:545,0.3302,1.3926,8.5017,39.9201,0.1048,0.2943,-0.2223,338.3683
16:54:26:564,-0.323,1.6487,7.2311,39.435,0.1683,0.5044,-0.1844,338.4842
16:54:26:583,-0.5025,1.9597,6.2357,41.8915,0.2306,0.4788,-0.0903,338.4879
16:54:26:603,-0.5121,2.2804,5.2905,40.413,0.2624,0.243,-0.028,338.5026
16:54:26:623,-0.4546,2.4933,4.6684,39.3155,0.1891,-0.049,-0.0439,338.5919
16:54:26:644,-0.3111,2.589,4.7115,38.7471,-0.0272,-0.2664,-0.0976,338.755
16:54:26:666,-0.256,2.601,5.4772,39.7622,-0.324,-0.3349,-0.1648,339.0287
16:54:26:683,-0.1484,2.4167,7.0684,39.4693,-0.5977,-0.3556,-0.2406,339.3866
16:54:26:703,-0.0933,2.0842,8.8917,41.2821,-0.7333,-0.4314,-0.3114,339.8088
16:54:26:724,-0.2847,1.8544,10.2509,40.0636,-0.6637,-0.5584,-0.3481,340.3015
16:54:26:749,-0.2082,2.3928,9.3009,39.5368,0.0058,-0.2652,-0.1086,340.8889
16:54:26:766,0.3374,2.948,8.0542,41.2712,0.2722,0.1734,0.0819,340.7991
16:54:26:783,0.7011,3.4887,7.6068,41.4429,0.321,0.4678,0.1564,340.545
16:54:26:802,0.8112,3.7376,7.8987,39.6935,0.2587,0.4934,0.11,340.3052
16:54:26:821,0.5958,3.7328,8.5184,40.8238,0.2257,0.331,-0.0182,340.2407
16:54:26:843,-0.0335,3.5414,8.8295,41.1288,0.2722,0.1159,-0.1526,340.384
16:54:26:866,-0.6197,3.3452,9.5617,39.6046,0.321,-0.0441,-0.2015,340.6596
16:54:26:883,-0.8662,3.1585,10.928,39.7755,0.3699,-0.1638,-0.1416,340.8856
16:54:26:906,-1.2538,3.1872,11.9833,41.5636,0.5141,-0.2652,-0.0598,341.0668
16:54:26:921,-1.6606,3.6036,11.6913,40.9684,0.7584,-0.2628,0.0379,341.1586
16:54:26:943,-1.3639,3.5222,11.3731,40.8163,0.8342,-0.1895,0.1174,341.1549
16:54:26:964,-1.7372,3.0748,13.3472,42.3249,0.4187,-0.5083,0.0428,341.3116
16:54:26:983,-2.2325,2.4287,15.7065,41.5136,-0.0174,-0.7906,-0.0573,341.6661
16:54:27:008,-1.9693,2.2062,15.3954,42.0668,0.0107,-0.5572,0.0013,341.9208
16:54:27:028,-1.4788,2.1559,14.2277,42.8942,0.1133,-0.0123,0.0941,341.9093
16:54:27:044,-1.5984,1.8975,14.1488,41.6014,-0.0418,0.5093,0.0966,341.735
16:54:27:065,-2.0243,1.5936,14.0674,38.1448,-0.1786,0.9076,0.1051,341.4325
16:54:27:084,-2.4574,1.6056,12.4499,40.7001,-0.0443,1.2192,0.2212,340.9036
16:54:27:107,-2.2277,1.742,10.057,42.584,0.2099,1.3829,0.4631,340.08
16:54:27:131,-1.4524,1.9143,8.1906,43.5787,0.3393,1.2778,0.7319,337.7314
16:54:27:144,-0.4642,1.9932,7.3125,43.0475,0.3198,0.9675,0.9286,336.4272
16:54:27:165,0.95,2.0554,6.6161,44.231,0.3027,0.2894,0.9897,335.2177
16:54:27:181,1.2993,2.1607,6.1017,43.6501,0.3955,0.1098,0.9249,334.1628
16:54:27:200,1.2993,2.2875,5.6973,43.8718,0.486,0.0439,0.8174,333.2206
16:54:27:222,1.2969,2.4646,5.3456,44.6653,0.5483,0.0194,0.7026,332.4357
16:54:27:240,1.1342,2.5412,5.0632,44.7568,0.5715,-0.0404,0.5755,331.8221
16:54:27:261,0.8806,2.5842,4.8335,43.2463,0.5568,-0.1394,0.4374,331.4425
