Time,Acc_X,Acc_Y,Acc_Z,Meg,Gyr_X,Gyr_Y,Gyr_Z,Ore
16:33:45:434,-0.8829,2.2277,9.655,59.0562,0.0156,-0.0587,0.049,81.7943
16:33:45:439,-0.8829,2.2277,9.655,61.1943,0.0156,-0.0587,0.049,81.7478
16:33:45:461,-0.2584,2.333,9.8297,61.7434,0.0156,-0.0587,0.049,81.1596
16:33:45:476,-0.2919,2.3258,9.7292,60.6605,-0.098,-0.082,0.088,80.6077
16:33:45:491,-0.4451,2.3354,9.466,60.86,-0.0357,-0.1162,0.0379,80.2762
16:33:45:507,-0.3996,2.3402,9.2171,60.8524,-0.0272,-0.0966,0.0306,79.8511
16:33:45:525,-0.3948,2.3545,9.2913,61.5603,-0.0712,-0.0074,0.0428,79.4933
16:33:45:556,-0.4498,2.2756,9.3057,61.4069,-0.1176,0.0732,0.0465,79.2347
16:33:45:567,-0.4498,2.2349,9.2411,61.9069,-0.1469,0.1049,0.0502,79.0629
16:33:45:590,-0.3996,2.1655,9.6215,60.8415,-0.1811,0.0817,0.0404,79.062
16:33:45:606,-0.3111,2.053,9.8321,61.1517,-0.1762,0.0133,0.0208,79.2029
16:33:45:626,-0.457,2.0483,9.6861,60.2682,-0.1053,-0.0233,-0.0048,79.2729
16:33:45:644,-0.4881,2.0674,9.454,62.999,-0.0553,-0.0233,-0.0097,79.2718
16:33:45:665,-0.3374,2.0913,9.4038,61.6569,-0.0602,-0.0111,0.0037,79.2117
16:33:45:691,-0.3302,2.0483,9.5139,61.1517,-0.0919,0.0219,0.005,79.2096
16:33:45:710,-0.4092,2.0674,9.5713,61.0393,-0.1053,0.0585,0.0001,79.153
16:33:45:726,-0.402,2.0148,9.5186,62.2956,-0.1139,0.0414,0.0001,79.1316
16:33:45:745,-0.3422,1.9908,9.7125,61.0393,-0.1225,0.0219,0.0025,79.1253
16:33:45:783,-0.3302,1.998,9.8728,62.673,-0.1163,0.0011,0.0013,79.136
16:33:45:789,-0.4116,2.0052,9.7675,60.6,-0.0748,-0.0221,-0.0134,79.1374
16:33:45:810,-0.4714,2.0506,9.5689,61.9741,-0.0345,-0.0197,-0.0134,79.0489
16:33:45:828,-0.4881,2.0818,9.5186,62.0394,-0.0357,-0.0001,-0.0036,78.9597
16:33:45:850,-0.4953,2.0626,9.545,60.2015,-0.0528,0.0011,0.0001,78.9009
16:33:45:878,-0.469,2.0842,9.5402,62.1125,-0.0662,-0.0099,0.0013,78.8105
16:33:45:894,-0.4714,2.0842,9.533,62.2956,-0.076,-0.0038,0.0013,78.7573
16:33:45:908,-0.4953,2.0961,9.6861,61.2823,-0.0797,0.0109,-0.0011,78.6991
16:33:45:926,-0.5121,2.1009,9.5976,61.2823,-0.0602,0.0085,-0.0011,78.5979
16:33:45:946,-0.4762,2.1176,9.3703,61.7396,-0.043,0.0023,-0.006,78.479
16:33:45:979,-0.5025,2.0913,9.32,59.7615,-0.065,0.0219,-0.0158,78.4372
16:33:45:987,-0.4953,2.0483,9.5426,60.8962,-0.1053,0.05,-0.017,78.3658
16:33:46:016,-0.4594,1.9908,9.7316,60.7272,-0.1139,0.0487,-0.0207,78.2656
16:33:46:027,-0.5767,1.9741,9.6837,61.3409,-0.0626,0.0036,-0.05,78.2341
16:33:46:053,-0.6269,2.0267,9.5354,60.711,-0.0504,0.0194,-0.0537,78.2619
16:33:46:077,-0.6676,2.0363,9.6646,59.5073,-0.0638,0.0463,-0.0427,78.2535
16:33:46:093,-0.5504,1.9525,9.9972,60.5558,-0.0662,0.0524,-0.0256,78.248
16:33:46:108,-0.4929,1.9549,10.0738,62.3011,0.0046,0.0634,-0.0268,78.2114
16:33:46:124,-0.5599,1.9645,9.8106,61.541,0.1084,0.1062,-0.0415,78.1968
16:33:46:145,-0.6867,2.1248,9.4756,62.3583,0.1671,0.122,-0.05,78.1509
16:33:46:168,-0.6508,2.132,9.2195,62.0572,0.15,0.0793,-0.0524,78.1072
16:33:46:203,-0.6867,2.1679,9.0927,63.0584,0.0901,0.0451,-0.0622,78.0472
16:33:46:206,-0.7777,2.1775,9.2339,59.002,0.007,0.0207,-0.0683,78.0471
16:33:46:226,-0.7729,2.132,9.5163,60.0236,-0.0699,-0.0135,-0.0622,78.0907
16:33:46:245,-0.7178,2.1009,9.7484,61.6636,-0.0821,-0.0319,-0.0561,78.136
16:33:46:272,-0.8255,2.1105,9.7029,61.7396,-0.0382,-0.0319,-0.0622,78.154
16:33:46:289,-0.804,2.0291,9.6048,61.7867,-0.0052,-0.06,-0.0671,78.2659
16:33:46:312,-0.8423,1.9932,9.5091,59.002,-0.0003,-0.0942,-0.0659,78.3596
16:33:46:326,-0.8136,1.9669,9.6239,60.9763,-0.0235,-0.104,-0.0622,78.4698
16:33:46:345,-0.7346,1.9071,9.746,61.5997,-0.043,-0.1027,-0.0512,78.5881
16:33:46:365,-0.7011,1.9406,9.813,60.2015,-0.0357,-0.0697,-0.0415,78.6553
16:33:46:388,-0.8016,1.9358,9.8034,59.0774,-0.0162,-0.0429,-0.039,78.71
16:33:46:415,-0.7633,1.9813,9.6766,62.7106,0.018,-0.0429,-0.028,78.7107
16:33:46:429,-0.6126,2.0483,9.5402,62.4934,0.0315,-0.0612,-0.0109,78.7465
16:33:46:445,-0.6365,2.0435,9.7507,61.7396,0.0131,-0.0539,-0.0097,78.7891
16:33:46:468,-0.6437,2.1392,9.4636,62.4934,0.0559,-0.0563,-0.0231,78.7452
16:33:46:489,-0.5719,2.2229,9.1382,61.541,0.0828,-0.0368,-0.0109,78.7001
16:33:46:505,-0.5456,2.2947,9.198,61.2823,0.0547,-0.0258,-0.0109,78.6113
16:33:46:530,-0.5312,2.2493,9.4612,62.5588,0.0229,-0.0514,-0.028,78.563
16:33:46:544,-0.5815,2.2899,9.4038,61.1139,0.0364,-0.082,-0.0415,78.5709
16:33:46:567,-0.6006,2.4239,9.2315,60.711,0.0632,-0.0893,-0.0439,78.5764
16:33:46:584,-0.3733,2.5244,9.2961,62.0783,0.0583,-0.0783,-0.0317,78.5045
16:33:46:603,-0.134,2.5795,9.3009,61.1139,0.062,-0.0563,-0.039,78.4106
16:33:46:624,-0.201,2.5508,9.3392,62.2033,0.0657,-0.0587,-0.0818,78.425
16:33:46:644,-0.2919,2.5747,9.5043,61.7396,0.0706,-0.1113,-0.116,78.4824
16:33:46:665,-0.3541,2.6034,9.4397,60.7603,0.1011,-0.1638,-0.1257,78.57
16:33:46:688,-0.3852,2.735,9.1143,62.2772,0.1524,-0.176,-0.1086,78.6242
16:33:46:705,-0.0144,2.8618,8.7745,63.3379,0.1695,-0.1663,-0.0683,78.5865
16:33:46:726,0.6126,2.5388,8.729,62.5515,0.1048,-0.1944,-0.0512,78.604
16:33:46:744,0.9356,2.2636,9.3631,62.5515,-0.0516,-0.3019,-0.0915,78.7141
16:33:46:767,0.457,2.2014,10.258,61.4622,-0.197,-0.3642,-0.1441,78.947
16:33:46:791,-0.122,2.3785,10.191,63.5685,-0.1505,-0.2677,-0.127,79.0983
16:33:46:809,-0.0215,2.7972,9.6526,63.7362,0.0083,-0.1162,-0.0134,79.0114
16:33:46:825,0.0215,3.2614,8.9085,65.454,0.1145,-0.0087,0.088,78.7239
16:33:46:844,0.0311,3.649,8.3486,63.7879,0.1194,0.0207,0.1186,78.3203
16:33:46:865,0.0861,3.9841,8.4634,64.5658,0.0364,0.0097,0.1186,77.911
16:33:46:891,0.3039,3.9912,9.0233,62.9703,-0.0504,-0.0429,0.0831,77.5422
16:33:46:907,0.189,3.8788,9.332,63.2706,-0.0394,-0.0917,-0.0085,77.3614
16:33:46:925,-0.055,3.6156,8.997,63.1825,0.1035,-0.121,-0.1221,77.3224
16:33:46:945,-0.0048,3.5725,8.8367,64.1024,0.1243,-0.093,-0.1086,77.2679
16:33:46:965,0.0239,3.6156,8.5711,65.9105,0.1158,-0.0331,-0.094,77.1863
16:33:46:990,0.012,3.5988,8.5017,62.9703,0.0742,0.0402,-0.0769,77.0771
16:33:47:007,-0.0335,3.661,8.5663,64.7159,0.018,0.0891,-0.0537,76.9358
16:33:47:034,-0.1125,3.7352,8.8152,65.4823,-0.0186,0.0927,-0.0268,76.7432
16:33:47:044,-0.1531,3.8285,8.918,64.1889,-0.0052,0.0744,0.0099,76.5583
16:33:47:067,-0.0431,3.9314,8.7864,61.6863,0.0473,0.0707,0.0587,76.287
16:33:47:086,0.0981,3.9458,8.7649,60.556,0.0742,0.0536,0.088,75.9772
16:33:47:113,0.3565,3.7591,9.0449,60.761,0.0425,-0.005,0.0783,75.7499
16:33:47:124,0.3493,3.5294,9.588,61.0779,-0.0113,-0.0673,0.0172,75.688
16:33:47:146,0.1005,3.3547,10.1839,61.0779,-0.043,-0.0991,-0.0476,75.7427
16:33:47:188,-0.2417,3.3811,10.4016,61.3682,0.0241,-0.0441,-0.0622,75.8123
16:33:47:191,-0.6341,3.4313,9.7867,62.7509,0.1585,0.1037,-0.0256,75.7928
16:33:47:206,-0.7585,3.4672,9.3846,63.7086,0.2099,0.2259,0.0441,75.6439
16:33:47:225,-0.4379,3.204,9.6311,62.0216,0.1194,0.1905,0.1174,75.4859
16:33:47:244,0,2.7876,10.1432,60.5816,-0.0223,0.0085,0.1332,75.4464
16:33:47:264,0.2656,2.278,10.8826,65.3224,-0.1505,-0.165,0.1027,75.5219
16:33:47:296,0.2201,1.8903,11.531,61.919,-0.2348,-0.2493,0.0551,75.6888
16:33:47:303,0.0024,1.6989,11.6746,60.5436,-0.2495,-0.1614,0.0404,75.8861
16:33:47:324,-0.2776,1.7444,11.6937,59.3543,-0.2287,0.0768,0.0893,75.9858
16:33:47:485,-0.5575,2.0052,11.2152,61.9765,-0.1335,0.3774,0.1772,75.8225
16:33:47:486,-0.725,2.1631,10.2963,60.8747,0.0156,0.557,0.2273,75.5276
16:33:47:487,-1.2802,1.9669,9.679,62.0021,0.0693,0.4189,0.1332,75.2457
16:33:47:506,-1.7898,1.6606,10.325,60.9084,-0.0113,0.2234,0.0783,75.0892
16:33:47:506,-1.9717,1.3567,10.7222,61.9794,-0.0137,0.0756,0.0941,75.2012
16:33:47:507,-1.6319,1.0911,10.5332,62.0454,0.04,0.0292,0.187,75.24
16:33:47:507,-0.9404,0.9021,10.727,60.4104,0.0315,0.017,0.2786,75.2022
16:33:47:508,-0.5001,0.8495,11.3707,59.5169,-0.0272,-0.0087,0.3141,75.1037
16:33:47:508,-0.5743,1.0026,11.2271,60.9084,0.0425,0.0023,0.2982,75.0012
16:33:47:525,-0.8566,1.4668,9.9518,61.4096,0.2453,0.0964,0.297,74.8296
16:33:47:546,-0.7489,1.931,8.3868,61.7114,0.4053,0.2173,0.3483,74.4791
16:33:47:569,-0.2967,2.2469,7.1976,60.4497,0.4163,0.2882,0.3873,74.007
16:33:47:586,-0.0383,2.4311,6.9918,60.1957,0.2734,0.2784,0.3531,73.5341
16:33:47:604,-0.1196,2.3928,7.8485,61.2199,0.0718,0.1514,0.2383,73.2451
16:33:47:623,-0.4594,2.3258,8.3414,60.1359,-0.0003,-0.0282,0.1113,73.1979
16:33:47:644,-0.6724,2.4048,8.2552,61.7114,0.0425,-0.1064,0.0648,73.2205
16:33:47:665,-0.7561,2.5364,8.1308,60.516,0.0645,-0.0832,0.0795,73.1984
16:33:47:685,-0.8231,2.668,8.5256,59.525,0.0205,-0.0368,0.1064,73.1247
16:33:47:705,-0.8949,2.8355,8.985,60.6042,-0.0125,-0.0404,0.1357,73.0409
16:33:47:726,-0.8997,2.9025,9.2865,60.6042,0.0278,-0.0856,0.1613,72.9479
16:33:47:747,-0.7801,2.8905,9.6479,61.2301,0.1243,-0.1479,0.1931,72.8505
16:33:47:771,-0.6078,2.9958,9.2004,61.0118,0.2868,-0.1821,0.2322,72.7149
16:33:47:792,-0.469,3.149,8.3725,59.6559,0.4249,-0.1858,0.2456,72.5354
16:33:47:805,-0.3111,3.2231,8.0088,60.1256,0.4236,-0.1663,0.2408,72.3362
16:33:47:824,-0.1149,3.1657,8.4443,59.4856,0.3198,-0.1699,0.2029,72.1944
16:33:47:844,0.1507,3.0508,10.0403,60.4189,0.2037,-0.3263,0.066,72.2041
16:33:47:870,-0.0622,3.4816,10.1073,59.937,0.2819,-0.3422,0.0135,72.267
16:33:47:890,0.4116,3.9529,9.0736,57.4576,0.3784,-0.2811,0.0221,72.4228
16:33:47:906,1.3926,3.4122,7.6666,59.9731,0.2819,-0.1919,-0.0341,72.5594
16:33:47:924,1.7707,2.2636,9.1502,59.3664,-0.2495,-0.2139,-0.2113,72.9612
16:33:47:944,0.7561,1.5266,13.0768,61.4091,-0.8946,-0.2298,-0.3567,73.6605
16:33:47:971,-0.402,1.3591,14.656,60.8021,-0.7626,-0.0233,-0.3127,74.3204
16:33:47:985,-0.2273,1.6534,12.1292,59.9176,0.0046,0.0194,-0.0952,74.6366
16:33:48:008,0.8495,1.9023,9.3177,58.148,0.4664,-0.1944,0.1174,74.7046
16:33:48:026,1.6319,1.8808,8.6046,60.8815,0.3112,-0.2774,0.1601,74.7376
16:33:48:045,1.6056,1.8616,9.7962,59.685,-0.0772,-0.1284,0.0917,74.8384
16:33:48:067,1.261,2.0818,10.6265,58.55,-0.241,0.0207,0.0062,74.9836
16:33:48:085,0.7561,2.4814,9.8345,62.6327,-0.0992,0.0939,-0.0659,75.1418
16:33:48:104,0.1292,2.9097,8.3294,60.707,0.1048,0.2088,-0.1025,75.2435
16:33:48:125,-0.1842,3.0532,7.4584,59.9731,0.15,0.3444,-0.1074,75.2794
16:33:48:145,-0.3541,3.0628,7.3077,59.035,0.0583,0.3847,-0.1209,75.3139
16:33:48:169,-0.4642,2.9791,7.681,58.5914,-0.0638,0.2784,-0.1404,75.4056
16:33:48:187,-0.4498,2.8283,8.4371,60.0573,-0.1273,0.1111,-0.1441,75.6165
16:33:48:205,-0.2273,2.723,8.5639,58.8837,-0.0809,-0.0087,-0.1147,75.8399
16:33:48:223,0.0383,2.68,8.3821,61.1585,-0.015,0.0036,-0.0757,76.0171
16:33:48:244,0.1364,2.6536,8.4754,61.9273,-0.0174,0.1049,-0.0476,76.1137
16:33:48:274,-0.1747,2.7039,8.5878,59.8659,-0.0357,0.1978,-0.0402,76.1743
16:33:48:290,-0.4427,2.814,8.4538,62.4016,-0.0284,0.2112,-0.0146,76.2036
16:33:48:311,-0.2776,3.1657,8.2935,60.6461,-0.0235,0.1929,0.154,76.1493
16:33:48:324,-0.3159,3.3308,8.5184,60.4585,-0.0052,0.2308,0.2261,75.8862
16:33:48:346,-0.2106,3.4289,8.607,59.8934,0.073,0.2625,0.2908,75.4075
16:33:48:371,-0.0694,3.4768,8.5543,60.3623,0.1671,0.2124,0.3226,75.0335
16:33:48:389,-0.1819,3.4935,8.741,59.969,0.194,0.1196,0.3055,74.7268
16:33:48:411,-0.3493,3.3069,9.3535,60.876,0.1463,0.0659,0.2676,74.5202
16:33:48:423,-0.6245,3.003,10.2413,59.8932,0.073,0.0207,0.2444,74.3904
16:33:48:443,-1.206,3.2949,11.1099,60.0573,0.0486,-0.0551,0.2566,74.2991
16:33:48:463,-1.0863,3.7304,9.9709,58.8206,0.1927,0.028,0.3544,74.0133
16:33:48:483,-0.7346,3.283,9.0305,60.9113,0.2331,0.2662,0.3886,73.6154
16:33:48:504,-1.2706,2.7159,10.8778,60.4924,-0.1579,0.1477,0.286,73.4723
16:33:48:523,-2.5101,2.6919,13.0768,61.0433,-0.4169,0.0011,0.2518,73.4388
16:33:48:546,-3.125,2.9288,11.8205,61.7455,-0.037,-0.0331,0.2933,73.3825
16:33:48:567,-2.7374,3.1322,8.8056,61.5375,0.4811,-0.0209,0.3739,73.1468
16:33:48:586,-1.6104,2.7709,7.9609,58.7009,0.3699,0.0365,0.4448,72.8285
16:33:48:604,-1.139,1.8831,10.7988,61.2528,-0.2165,0.1807,0.4301,72.535
16:33:48:627,-1.3735,1.2491,13.0648,60.281,-0.5342,0.1404,0.3202,72.4883
16:33:48:648,-1.7061,1.127,12.3924,60.3623,-0.2874,0.0048,0.2444,72.5472
16:33:48:664,-1.5984,1.3854,10.4207,60.6461,0.0583,0.1257,0.3519,72.3961
16:33:48:682,-0.993,1.5314,8.7338,60.054,0.1817,0.4324,0.5499,71.8859
16:33:48:703,-0.6532,1.9095,8.3916,60.9566,0.084,0.6975,0.661,71.1635
16:33:48:724,-0.5288,2.0578,7.9944,58.619,0.0107,0.5607,0.6574,70.4416
16:33:48:745,-0.5647,2.2229,6.5085,58.619,0.0193,0.1098,0.5889,69.9172
16:33:48:771,-1.2634,2.4837,5.9653,58.9459,-0.263,-0.2677,0.5584,69.528
16:33:48:785,-1.4142,2.455,6.7286,58.8379,-0.4303,-0.2054,0.5963,69.0252
16:33:48:806,-1.1462,2.1918,7.6427,58.4488,-0.5134,-0.198,0.6293,68.1624
16:33:48:825,-0.9523,2.0411,8.4754,58.5767,-0.5,-0.2933,0.5987,67.7899
16:33:48:849,-0.8782,1.9549,9.0473,59.3365,-0.4193,-0.3825,0.5266,67.528
16:33:48:866,-0.9356,1.9023,9.3368,59.9325,-0.3118,-0.3629,0.4741,67.3284
16:33:48:888,-1.0385,1.9262,9.143,58.4272,-0.2067,-0.2261,0.468,67.0906
16:33:48:906,-0.7849,1.9956,9.2602,60.6949,-0.2006,-0.0649,0.5095,66.7304
16:33:48:924,-0.1053,2.0004,9.7005,57.529,-0.2666,0.017,0.5462,66.3339
16:33:48:944,0.4762,1.9214,10.4255,58.148,-0.3265,-0.0148,0.4973,65.9748
16:33:48:964,0.4953,1.876,11.1123,57.5679,-0.3179,-0.1113,0.3739,65.8049
16:33:48:985,0.1723,1.998,11.1386,57.0806,-0.1897,-0.1064,0.2652,65.7078
16:33:49:004,-0.1579,2.3139,10.9902,60.3581,-0.0198,0.0133,0.2566,65.6028
16:33:49:024,-0.0383,2.7063,11.4185,58.2804,0.0913,0.0207,0.3446,65.4024
16:33:49:050,0.1627,3.3523,11.8756,58.2807,0.1891,-0.0917,0.4509,65.0913
16:33:49:069,0.6652,2.8905,10.3633,58.8008,0.3235,-0.1272,0.4924,64.728
16:33:49:084,1.5529,1.3543,9.0664,58.2807,0.1341,-0.1003,0.4045,64.5099
16:33:49:103,1.005,0.2273,11.988,58.1886,-0.6295,-0.0465,0.2823,64.4868
16:33:49:124,0.2273,-0.2034,16.0367,59.6483,-1.2,0.2638,0.3629,64.3585
16:33:49:151,0.3183,-0.0861,15.5199,58.1838,-0.7724,0.6059,0.628,63.8309
16:33:49:167,0.95,0.4881,12.1364,57.5758,0.0681,0.5619,0.8443,63.0265
16:33:49:187,1.3304,0.8279,9.4349,56.3779,0.4554,0.1196,0.8418,62.2767
16:33:49:204,1.5529,0.9834,8.7529,55.9489,0.3332,-0.2102,0.7233,61.7218
16:33:49:223,1.7635,0.9452,9.667,53.9341,-0.1261,-0.176,0.5181,61.2709
16:33:49:252,1.2299,0.8255,10.148,56.2511,-0.1298,0.0023,0.3641,60.559
16:33:49:268,0.4929,0.926,9.7268,54.6066,0.0693,0.2051,0.2346,60.4549
16:33:49:289,-0.28,1.2012,8.3533,56.4342,0.3833,0.3224,0.1699,60.4244
16:33:49:304,-0.6843,1.3783,7.188,56.2554,0.5373,0.2638,0.1577,60.381
16:33:49:323,-0.402,1.3615,7.2479,56.5702,0.4273,0.0805,0.2004,60.3403
16:33:49:345,-0.0885,1.4524,8.1165,54.9993,0.244,-0.0563,0.2481,60.282
16:33:49:368,0.1866,1.5266,8.8008,54.4255,0.1622,-0.0966,0.2762,60.2003
16:33:49:385,0.2417,1.596,8.6477,53.7714,0.1964,-0.0392,0.2652,60.1232
16:33:49:403,0.0981,1.608,8.2768,54.9311,0.2184,0.0671,0.2456,60.0434
16:33:49:422,-0.0502,1.6247,8.1452,55.9774,0.1512,0.0683,0.2383,59.9685
16:33:49:448,0.0168,1.7252,8.3294,55.5152,0.0168,0.0158,0.2676,59.8584
16:33:49:467,0.0574,1.9597,8.7912,55.4737,-0.1041,0.0561,0.3092,59.6952
16:33:49:486,0.0622,2.0889,9.3512,54.48,-0.1689,0.1465,0.336,59.4737
16:33:49:611,0.146,2.211,9.387,54.6383,-0.1347,0.2027,0.347,59.2196
16:33:49:612,0.3517,2.345,9.0664,55.4356,-0.0772,0.1929,0.3458,58.9403
16:33:49:613,0.4116,2.4933,9.009,53.136,-0.0712,0.1954,0.3397,58.655
16:33:49:613,0.3493,2.6991,9.1382,55.167,-0.0956,0.2613,0.3458,58.3462
16:33:49:614,0.1077,2.8642,9.0353,53.8498,-0.0772,0.3627,0.3641,58.004
16:33:49:615,0.2489,2.9575,8.6429,55.3476,-0.0223,0.4153,0.4008,57.5947
16:33:49:637,0.6628,3.0915,8.3629,54.7417,0.0119,0.3578,0.4264,57.143
16:33:49:642,0.8064,3.0676,9.0233,53.7307,-0.015,0.2784,0.3959,56.7508
16:33:49:662,1.1246,3.3404,8.0495,54.2512,0.0803,-0.0539,0.3092,56.5074
16:33:49:684,-0.481,3.46,7.5829,53.5518,0.1378,-0.2823,0.1442,56.5311
16:33:49:702,-0.3254,3.3356,7.8604,53.7307,0.0486,0.0011,0.2188,56.4038
16:33:49:723,-0.3493,3.3428,8.1595,54.4255,-0.0125,0.243,0.3409,56.0961
16:33:49:747,-0.3063,3.3523,9.2291,53.5147,-0.0895,0.4702,0.4497,55.6545
16:33:49:773,-0.5097,3.4696,10.4112,54.0232,-0.1286,0.6853,0.5327,55.0281
16:33:49:796,-1.1007,3.9529,10.55,53.9134,-0.0015,0.783,0.5926,54.3398
16:33:49:802,-0.7202,4.0606,10.2413,52.3045,0.1536,0.6926,0.6366,53.6031
16:33:49:823,0.201,3.1083,10.5236,53.72,0.1072,0.3652,0.5608,53.0435
16:33:49:847,0.4475,2.1535,12.1005,54.3252,-0.1004,-0.038,0.3666,52.8454
16:33:49:868,-0.1819,1.5912,13.5386,54.8524,-0.2593,-0.2726,0.1785,52.9702
16:33:49:881,-1.2586,1.4931,13.2323,53.0297,-0.1628,-0.1626,0.0868,53.1916
16:33:49:901,-1.6487,1.4883,11.5454,54.2408,0.0339,0.1526,0.1601,53.2552
16:33:49:921,-1.876,1.1988,10.4327,53.2211,0.0119,0.3774,0.2518,53.1676
16:33:49:942,-2.5412,1.2419,10.3849,53.9465,-0.1567,0.5118,0.325,52.9953
16:33:49:961,-3.0126,1.3448,10.483,53.6345,-0.2544,0.5154,0.4631,52.6777
16:33:49:981,-2.8116,1.6367,10.2748,51.3037,-0.1835,0.3835,0.6757,52.1571
16:33:50:004,-1.8999,1.9478,9.6072,53.4304,-0.0565,0.1489,0.8919,51.4155
16:33:50:022,-0.7944,1.9908,8.863,52.6511,-0.004,-0.0025,0.9982,50.5331
16:33:50:048,0.0479,1.7635,9.0425,52.2178,-0.1139,-0.0343,0.9652,49.6878
16:33:50:068,0.1962,1.4429,9.9637,52.5014,-0.2666,-0.0062,0.8321,48.991
16:33:50:084,-0.0096,1.2156,10.1336,51.9132,-0.2348,0.0341,0.6891,48.4302
16:33:50:102,-0.1412,1.2658,9.2028,50.7511,-0.0357,0.0524,0.617,47.9662
16:33:50:126,0.0431,1.6606,7.5015,51.4827,0.1573,0.0988,0.5902,46.8013
16:33:50:151,0.1675,1.8521,7.3531,50.5241,0.106,0.1123,0.5486,46.3259
16:33:50:168,0.1675,2.0483,7.5972,52.4258,0.0681,0.0964,0.49,45.9084
16:33:50:184,0.0191,2.2947,7.7767,50.8447,0.0865,0.0549,0.413,45.5795
16:33:50:201,-0.0861,2.4263,7.9322,52.8032,0.1598,-0.0087,0.3409,45.3484
16:33:50:221,-0.256,2.4574,7.8102,50.9064,0.2331,-0.1357,0.2603,45.2379
16:33:50:242,-0.2656,2.4933,7.9681,53.3368,0.2428,-0.297,0.187,45.267
16:33:50:265,-0.2297,2.3378,8.9228,52.1656,0.1402,-0.407,0.1381,45.399
16:33:50:283,-0.2967,2.0554,10.3226,52.7958,0.0119,-0.4412,0.1174,45.5979
16:33:50:301,-0.5456,2.388,10.9926,50.2789,0.0022,-0.3593,0.1687,45.7357
16:33:50:327,-1.1892,3.9266,10.6768,51.2545,0.0987,-0.0636,0.3055,45.5896
16:33:50:346,0.3565,3.0748,9.8513,53.3512,0.0925,0.2234,0.4472,45.1843
16:33:50:367,2.278,1.3208,11.4305,51.7706,-0.3216,0.0487,0.3813,44.9095
16:33:50:385,1.462,0.1795,15.3858,51.4781,-0.8921,-0.3373,0.0966,45.1309
16:33:50:402,-0.4331,0.0263,16.2951,51.8336,-0.6563,-0.1944,-0.0036,45.512
16:33:50:422,-0.6748,0.7202,13.1581,50.9149,0.2697,0.0744,0.2835,45.4955
16:33:50:445,0.6867,1.206,9.935,50.6834,0.7767,-0.1345,0.6183,45.065
16:33:50:468,1.8592,1.3065,8.5448,51.8234,0.6509,-0.2225,0.7319,44.4892
16:33:50:484,2.0076,1.2658,9.0018,49.9526,0.2001,-0.0759,0.6512,43.9521
16:33:50:503,1.5482,1.4333,10.3992,47.2195,-0.1921,0.0268,0.5132,43.5393
16:33:50:525,0.6748,1.7587,10.6792,46.0102,-0.2055,0.0793,0.4008,43.2521
16:33:50:546,-0.3829,2.0028,9.3272,47.482,0.1084,0.2002,0.3568,43.0117
16:33:50:571,-1.0265,2.1152,7.6929,49.6363,0.4151,0.3517,0.4301,42.6523
16:33:50:583,-0.7107,2.3809,6.4199,48.6882,0.5067,0.4519,0.7013,42.103
16:33:50:603,-0.3063,2.534,6.4845,49.9096,0.431,0.2833,0.7368,41.2465
16:33:50:642,0.0096,2.7182,6.8698,49.6006,0.3516,0.0732,0.705,39.8655
16:33:50:644,0.1388,2.9671,7.2239,50.5403,0.3222,-0.0123,0.6549,39.2957
16:33:50:664,0.3541,3.192,7.2215,49.9174,0.3186,0.0781,0.6146,38.7441
16:33:50:685,0.2991,3.5103,7.4034,49.6006,0.2612,0.2968,0.5572,38.1603
16:33:50:703,-0.0239,3.4624,8.2146,50.2091,0.1378,0.4849,0.4594,37.6512
16:33:50:724,-0.3159,3.4624,8.8176,49.6506,0.051,0.4727,0.391,37.2372
16:33:50:744,-0.4738,3.4648,9.3009,48.4276,0.0241,0.3432,0.3703,36.8693
16:33:50:771,-0.5264,3.2614,10.0427,49.344,0.0156,0.254,0.391,36.5309
16:33:50:781,-0.4283,2.9599,11.1171,50.2693,0.084,0.21,0.4594,36.1475
16:33:50:803,-0.268,2.8451,11.275,49.0648,0.3149,0.2014,0.523,35.702
16:33:50:821,-0.4738,3.0078,10.4064,50.965,0.602,0.3114,0.5792,35.1542
16:33:50:841,-0.7178,3.4911,9.8034,50.9445,0.6606,0.4592,0.6561,34.455
16:33:50:861,-0.0909,3.8189,9.8752,49.086,0.4408,0.5814,0.7294,33.6046
16:33:50:883,0.8231,2.8092,11.6483,49.7807,-0.0211,0.4934,0.639,32.8828
16:33:50:907,-0.268,1.8209,14.4598,50.3372,-0.4743,0.1697,0.3373,32.6926
16:33:50:930,-2.4646,1.7635,14.9839,51.2018,-0.4242,0.0182,0.1821,32.8343
16:33:50:949,-3.9721,2.2875,12.3541,50.4492,0.1475,0.4324,0.3898,32.6168
16:33:50:969,-3.4481,3.0102,9.6168,49.7576,0.58,0.9553,0.8565,30.3068
16:33:50:985,-1.3687,3.1154,10.5117,50.4423,0.0266,0.7231,1.1338,29.0357
16:33:51:005,-1.3831,2.5938,11.4233,49.9603,-0.1811,0.3004,0.9225,28.1584
16:33:51:022,-1.2251,2.2708,10.5308,48.3591,-0.109,0.0597,0.7881,27.4606
16:33:51:044,-0.8638,2.0363,9.4732,49.9255,-0.0675,0.1037,0.7759,26.6682
16:33:51:065,-0.4642,1.8688,9.3583,49.3301,-0.1469,0.3468,0.8101,25.817
16:33:51:083,-0.0718,1.9095,9.3464,49.4833,-0.1505,0.5594,0.8406,24.8394
16:33:51:105,0.1244,2.1703,8.2098,47.9049,0.0034,0.6437,0.8174,23.8335
16:33:51:124,-0.1316,2.3976,6.4654,47.4923,0.1378,0.783,0.7514,22.8478
16:33:51:144,-0.5432,2.6488,6.3338,49.3316,0.0327,1.1116,0.7392,21.7463
16:33:51:164,-0.6891,2.5699,7.6187,48.0881,-0.1298,1.3291,0.7698,20.5575
16:33:51:182,-0.5623,2.5436,8.6142,49.7247,-0.0223,1.0738,0.7795,19.4096
16:33:51:202,-0.146,2.5866,7.7695,49.6218,0.3894,0.4336,0.7478,18.5019
16:33:51:231,0.3565,2.936,5.6973,49.2632,0.7657,-0.2054,0.6476,17.9173
16:33:51:251,0.3709,3.1107,4.7234,51.7754,0.8158,-0.49,0.4521,17.6505
16:33:51:266,0.0383,3.2997,5.4437,50.3459,0.5067,-0.6794,0.2713,17.6884
16:33:51:284,-0.134,3.1442,6.9368,48.9206,0.139,-0.8333,0.1528,17.933
16:33:51:303,-0.1077,3.0628,8.1715,48.8193,-0.0614,-0.9763,0.0819,18.3143
16:33:51:328,0.2847,3.015,9.2483,47.9286,-0.1396,-1.0948,0.0709,18.7723
16:33:51:345,0.5647,3.2734,9.8465,48.8223,-0.1004,-0.8089,0.077,19.0758
16:33:51:364,-0.3183,4.0702,10.483,49.3316,0.0608,-0.1614,0.0196,19.1904
16:33:51:382,-1.261,4.8503,9.9709,49.5798,0.2404,0.342,-0.0036,19.1551
16:33:51:404,-0.6102,4.1898,9.344,49.3316,0.2856,0.4592,0.0917,18.9354
16:33:51:422,1.3185,2.199,9.7101,49.4833,-0.0516,-0.0013,0.0709,18.8801
16:33:51:443,1.5362,0.9882,13.7157,49.1026,-0.781,-0.8016,-0.1929,19.4922
16:33:51:463,0.1507,0.6748,16.9962,49.5733,-1.0546,-1.0801,-0.4055,20.5229
16:33:51:484,-1.4046,1.2491,15.0867,47.8004,-0.3375,-0.6146,-0.2687,21.2661
16:33:51:512,0.9188,2.802,8.5352,49.5733,0.6716,0.2161,0.4765,21.2426
16:33:51:528,1.6176,3.2997,7.6953,48.9179,0.3503,0.2393,0.3849,20.6347
16:33:51:545,0.9069,3.3643,8.8487,49.306,-0.1518,0.0072,0.0245,20.129
16:33:51:563,0.1101,2.9623,9.8895,48.918,-0.456,-0.2848,-0.2882,20.6161
16:33:51:581,-0.591,2.9839,9.9518,48.9305,-0.3888,-0.2762,-0.375,21.2276
16:33:51:601,-1.2514,3.2112,8.3821,47.9028,-0.0712,0.0659,-0.2724,21.6335
16:33:51:626,-1.3519,3.618,6.5013,48.0126,0.2294,0.5154,-0.094,21.6563
16:33:51:744,-1.1246,3.6802,5.9079,48.6471,0.2856,0.7121,0.0245,21.4333
16:33:51:745,-0.871,3.2949,7.2646,47.4923,0.1732,0.4874,0.0037,21.3372
16:33:51:747,-0.9691,2.6106,9.076,47.0702,0.1378,-0.1064,-0.1404,21.6304
16:33:51:748,-1.4836,2.2014,8.4682,47.1043,0.4163,-0.5902,-0.2821,22.3172
16:33:51:750,-1.8257,2.4981,6.2477,47.4837,0.7877,-0.501,-0.1795,22.8746
16:33:51:750,-1.1198,2.7565,4.946,48.0868,0.8219,0.0133,0.1772,22.8165
16:33:51:768,0.122,3.1609,6.3721,48.8603,0.5043,0.6596,0.4827,22.0652
16:33:51:782,1.3519,3.3452,7.6833,47.7214,0.2367,0.9406,0.639,20.9876
16:33:51:842,1.6726,3.5821,8.1165,48.3926,0.2135,0.8526,0.5621,19.9864
16:33:51:846,1.5218,4.13,8.3773,47.0509,0.2831,0.6902,0.4203,19.2048
16:33:51:848,1.4501,4.8814,8.126,47.7927,0.3687,0.6254,0.3226,18.5425
16:33:51:864,1.6726,5.5298,7.9011,47.9086,0.3858,0.7085,0.2298,17.8773
16:33:51:881,1.7396,5.5442,8.3438,49.7749,0.2465,0.7439,0.0587,17.37
16:33:51:902,0.5982,5.202,9.4421,47.8326,0.0327,0.5179,-0.2235,17.3618
16:33:51:921,-1.4405,5.4461,9.9972,49.1258,-0.0882,0.2467,-0.4568,17.7708
16:33:51:946,-2.7876,5.391,9.5115,47.2706,-0.0699,0.3041,-0.4874,18.5717
16:33:51:964,-3.7878,5.3982,11.1649,46.8682,-0.3191,0.535,-0.1832,18.6168
16:33:51:982,-3.6754,5.5729,10.9256,47.4593,-0.2141,0.4043,-0.0317,18.6263
16:33:52:004,-3.3954,5.3192,10.727,48.2648,-0.0895,0.2625,0.0135,18.64
16:33:52:024,-3.3835,4.788,10.6816,46.6882,-0.1066,0.2161,-0.0085,18.7135
16:33:52:042,-3.2327,4.1492,11.2582,46.6893,-0.2226,0.3065,0.0062,18.7065
16:33:52:062,-3.0461,3.6419,12.4834,48.9305,-0.3741,0.4043,0.0966,18.5837
16:33:52:082,-2.7709,3.2877,13.3161,45.3691,-0.357,0.3896,0.2163,18.3292
16:33:52:103,-2.2445,3.2136,12.2225,44.5564,-0.0882,0.1807,0.3507,17.9936
16:33:52:125,-1.0744,3.2303,10.002,46.6304,0.1781,-0.0221,0.4729,17.5616
16:33:52:144,-0.6724,3.0245,8.985,45.7794,0.1366,0.05,0.4399,17.1038
16:33:52:162,-0.6437,2.7781,8.5376,45.7794,0.0339,0.2112,0.4069,16.6201
16:33:52:182,-0.3159,2.6584,8.1715,44.5564,0.0767,0.2943,0.4338,16.0594
16:33:52:207,-0.0861,2.8235,7.2479,46.5123,0.2722,0.2137,0.4472,15.5102
16:33:52:226,0.0598,3.0461,6.1687,45.0199,0.5067,0.0695,0.4326,15.0313
16:33:52:243,0.1507,3.2279,5.269,45.6562,0.6179,-0.0307,0.4008,14.5888
16:33:52:262,0.0694,3.4385,4.9005,46.3933,0.5874,-0.0465,0.3421,14.2102
16:33:52:281,0.1101,3.4505,4.9747,44.2328,0.4615,-0.0587,0.2652,13.9695
16:33:52:302,0.122,3.405,5.5633,44.3653,0.332,-0.1369,0.1687,13.835
16:33:52:322,-0.0263,3.4146,6.1615,45.1084,0.2599,-0.3349,0.0367,13.9672
16:33:52:342,-0.2297,3.4074,6.5204,45.1978,0.266,-0.5597,-0.1025,14.373
16:33:52:363,-0.5671,3.6275,6.3912,44.4379,0.3002,-0.6953,-0.2235,15.0071
16:33:52:382,-0.5838,3.8022,6.6736,43.8273,0.2282,-0.7784,-0.3029,15.7467
16:33:52:409,-0.3422,3.7998,7.8987,43.8417,0.0131,-0.8187,-0.353,16.5506
16:33:52:423,-1.4213,5.3815,7.9083,43.3566,-0.1713,-0.7197,-0.4116,17.3597
16:33:52:440,0.0311,5.7882,7.2,42.8648,-0.6111,0.2418,-0.3286,18.0401
16:33:52:461,2.3761,4.2592,11.1434,42.6739,-1.4529,0.8526,-0.3786,18.0101
16:33:52:482,2.4742,1.4692,20.2911,41.2092,-2.4107,0.623,-0.8698,18.5476
16:33:52:505,-0.9547,-0.2584,24.0048,42.8102,-2.1847,-0.1663,-1.5466,20.3464
16:33:52:525,-4.0798,-0.256,18.676,40.8743,-0.627,-0.4228,-1.6505,22.5554
16:33:52:545,-3.8955,1.596,11.7177,40.626,0.7303,0.0023,-0.9968,23.844
16:33:52:564,-1.4979,2.7876,8.5232,42.6738,0.9783,0.5179,-0.2455,23.9898
16:33:52:590,0.2153,3.5557,7.8317,41.9306,0.5727,0.5533,0.0123,23.7346
16:33:52:605,-0.0191,3.5509,7.5111,40.7329,0.1634,0.1367,-0.2479,23.912
16:33:52:621,-1.6199,3.0604,7.1976,40.5275,-0.0602,-0.3507,-0.645,24.8124
16:33:52:640,-2.8786,2.6991,6.6664,39.5888,-0.1628,-0.5939,-0.7818,25.9999
16:33:52:662,-3.1394,2.6488,5.9079,40.9903,-0.197,-0.5255,-0.6083,26.9789
16:33:52:683,-2.7685,2.8522,5.5992,40.0265,-0.2287,-0.3214,-0.3371,27.5771
16:33:52:706,-2.3402,3.0724,5.8504,37.375,-0.2397,-0.1748,-0.1392,27.894
16:33:52:724,-2.3904,3.2925,6.2046,38.3625,-0.142,-0.2261,-0.0622,28.1373
16:33:52:742,-2.5268,3.4816,5.884,38.0521,0.0498,-0.4583,-0.0219,28.4372
16:33:52:763,-2.7087,3.6371,5.5059,38.2764,0.1658,-0.622,0.0416,28.7231
16:33:52:782,-2.3809,3.7256,5.8074,38.8838,0.1341,-0.5816,0.1626,28.8734
16:33:52:802,-1.919,3.9051,6.4415,37.8369,0.0425,-0.4192,0.2701,28.8352
16:33:52:823,-1.663,4.1276,7.0038,37.5027,-0.0382,-0.2334,0.3067,28.6605
16:33:52:842,-1.3185,4.3143,7.7886,38.1776,-0.098,-0.0759,0.3018,28.4001
16:33:52:862,-1.1151,4.197,8.6429,38.2764,-0.1371,0.0475,0.2627,28.1312
16:33:52:884,-1.8736,3.8046,10.5188,37.3268,-0.0931,0.1379,0.1198,27.9508
16:33:52:905,-2.2923,4.0463,11.2247,36.205,0.0156,0.1074,0.1601,27.7296
16:33:52:926,-1.9525,4.3334,11.7727,35.533,0.128,-0.0025,0.2847,27.5127
16:33:52:941,-1.0146,4.1539,12.7753,34.8072,0.1536,-0.3055,0.3788,27.2883
16:33:52:959,-0.6126,3.9697,13.5769,37.0793,0.128,-0.7637,0.3434,27.2834
16:33:52:980,-0.6365,4.3789,13.6032,34.956,0.2318,-0.9555,0.2554,27.4633
16:33:53:001,-0.3613,4.9843,11.3898,34.1354,0.5519,-0.5047,0.2444,27.4283
16:33:53:021,-0.8159,5.6207,8.1523,34.2183,0.7999,0.5777,0.2383,26.9313
16:33:53:043,-2.2971,6.2046,7.1545,34.4567,0.6106,1.6834,0.209,26.0448
16:33:53:066,-3.1394,6.1735,8.1093,33.6453,0.161,2.0988,0.198,24.9896
16:33:53:088,-3.5773,5.2451,10.1001,35.5254,-0.2226,1.6272,0.1137,24.2454
16:33:53:106,-3.5246,3.5605,12.2824,34.8753,-0.4584,0.5276,-0.006,24.1486
16:33:53:123,-3.4696,1.9525,14.2206,32.9175,-0.5635,-0.5829,-0.039,24.6354
16:33:53:142,-3.1154,1.0744,14.6704,32.1866,-0.4193,-1.0251,0.1296,25.1477
16:33:53:160,-2.2445,0.7609,12.6341,32.1097,-0.0076,-0.5621,0.5511,24.9745
16:33:53:183,-1.2825,0.9476,10.282,33.4936,0.3002,0.3969,1.0312,23.8164
16:33:53:202,-0.5264,1.1294,8.8152,33.4936,0.3345,1.1593,1.3757,21.9114
16:33:53:222,0.0287,1.5386,7.8197,32.8041,0.2966,1.4403,1.5455,19.6728
16:33:53:244,0.5456,2.0195,7.2096,31.9265,0.3064,1.2558,1.5724,17.406
16:33:53:260,1.1701,2.3497,6.9153,31.9733,0.3296,0.7085,1.5089,15.4355
16:33:53:281,2.0674,2.6991,6.3075,33.23,0.376,0.1257,1.377,13.8003
16:33:53:302,2.6321,3.2399,5.1709,33.3877,0.4273,-0.1736,1.1485,12.5173
16:33:53:322,2.6154,3.7017,4.6229,33.2384,0.3393,-0.2396,0.8272,11.5724
16:33:53:341,2.0076,3.5318,5.7332,32.0559,-0.1261,-0.2738,0.1772,11.0374
16:33:53:361,2.0339,3.3021,7.011,31.1675,-0.1958,-0.3471,-0.05,10.8766
16:33:53:383,2.0483,3.0724,7.4776,31.1166,-0.0577,-0.4314,-0.2601,11.1928
16:33:53:402,1.7061,2.9575,7.2742,31.2038,0.1414,-0.5181,-0.4935,11.7925
16:33:53:421,1.1725,3.0269,6.7238,28.3553,0.2612,-0.5926,-0.6841,12.6077
16:33:53:440,0.5791,2.8522,7.0517,29.796,0.1744,-0.6293,-0.8099,13.6311
16:33:53:460,-0.2393,2.7996,8.7697,29.3264,-0.0211,-0.6549,-0.8417,14.7673
16:33:53:481,-0.8399,3.192,9.8871,29.8663,-0.0638,-0.7087,-0.7549,15.8726
16:33:53:503,-0.603,3.9553,8.6907,27.8032,0.0913,-0.727,-0.5692,16.7553
16:33:53:523,0.1029,4.3406,7.9107,26.2374,-0.0516,-0.705,-0.4397,17.4315
16:33:53:541,1.6199,2.4885,9.9182,30.6952,-0.7247,-0.7392,-0.4984,18.1606
16:33:53:561,1.0887,0.3446,15.7161,28.5169,-1.6191,-1.0703,-0.7513,19.3905
16:33:53:582,-0.524,-0.5288,21.6239,25.8012,-1.9294,-1.5419,-0.9162,21.119
16:33:53:604,-0.5695,-0.9595,18.9033,25.6985,-1.0253,-1.7643,-0.6609,22.6496
16:33:53:622,0.457,1.5362,12.3302,27.9405,0.3051,-1.1363,-0.1929,23.2865
16:33:53:642,3.4529,3.2399,7.9537,27.7093,0.7523,-0.2408,0.2053,22.9588
16:33:53:662,5.3504,4.532,7.614,27.1359,0.3894,0.155,0.1748,22.3835
16:33:53:684,4.3932,4.8598,8.406,27.5043,-0.0137,-0.0025,-0.4287,22.5545
16:33:53:705,1.608,4.2903,7.4991,25.478,-0.1444,-0.5621,-1.1593,23.8181
16:33:53:721,-0.2513,3.7831,7.4776,27.6677,-0.2532,-0.8761,-1.4525,25.6125
16:33:53:741,-0.9332,3.5414,7.9442,30.2159,-0.3741,-0.7784,-1.3499,27.3487
16:33:53:855,-1.0074,3.5533,8.2098,30.0908,-0.3607,-0.5902,-1.13,28.7651
16:33:53:857,-0.8255,3.6945,7.7934,29.7396,-0.2397,-0.4839,-0.9345,29.9168
16:33:53:858,-0.9643,3.7017,7.5159,26.8288,-0.015,-0.3373,-0.7427,30.9028
16:33:53:859,-0.7729,3.807,7.3436,24.3908,0.0755,-0.3019,-0.645,32.606
16:33:53:860,-0.3852,3.9936,7.0301,24.6666,0.1585,-0.2115,-0.535,33.1953
16:33:53:862,-0.2847,4.1731,6.7693,23.2767,0.205,0.0109,-0.4703,33.5767
16:33:53:882,-0.7537,4.4219,6.3936,24.8843,0.2147,0.2784,-0.4458,33.8609
16:33:53:901,-1.273,4.6756,6.3888,25.5689,0.1658,0.4788,-0.3909,34.0162
16:33:53:920,-1.5434,4.7761,6.7071,25.4522,0.0803,0.557,-0.2638,34.0002
16:33:53:940,-1.6271,4.7593,7.1857,24.5473,0.0193,0.5216,-0.1074,33.8373
16:33:53:961,-1.8903,4.6875,7.8102,25.0886,0.0046,0.4018,0.0245,33.6023
16:33:53:985,-2.5986,4.8646,8.3749,24.4429,0.0205,0.3322,0.1406,33.2993
16:33:54:005,-2.9264,4.9627,8.1284,23.7081,0.0522,0.4177,0.3055,32.8057
16:33:54:025,-2.3426,4.5033,8.5065,26.0776,-0.0772,0.6144,0.5095,32.0092
16:33:54:040,-2.4694,4.5631,10.6768,24.7131,-0.4095,0.7891,0.617,31.0389
16:33:54:061,-3.2136,4.8861,12.0574,22.231,-0.5892,1.0347,0.6549,29.9612
16:33:54:083,-3.4576,4.4243,11.7751,24.9231,-0.5085,1.4268,0.7197,28.6678
16:33:54:103,-3.7496,4.0845,13.0648,23.6775,-0.5501,1.5771,0.8162,27.2427
16:33:54:121,-4.0798,3.941,14.4239,23.1387,-0.5782,1.4293,0.8895,25.8183
16:33:54:141,-3.9338,3.8477,14.1631,23.5169,-0.3082,1.2033,0.9884,24.355
16:33:54:160,-2.8881,3.5581,13.7061,24.5294,-0.0272,0.8954,1.1326,22.7936
16:33:54:184,-1.7492,2.9503,13.9525,23.513,0.084,0.5326,1.2401,21.2109
16:33:54:204,-0.6939,2.5196,14.12,23.513,0.1866,0.2821,1.2719,19.6351
16:33:54:224,0.1603,2.4766,12.9069,23.513,0.4163,0.3139,1.2523,18.0291
16:33:54:243,0.4522,2.4239,10.4973,23.513,0.6668,0.546,1.1485,16.4356
16:33:54:267,0.2058,1.797,8.016,23.513,0.525,0.6169,0.7942,15.0073
16:33:54:285,0.7298,2.2588,8.1141,23.513,0.2746,0.3004,0.7099,12.8537
16:33:54:304,1.0528,1.8018,8.6596,23.513,0.1329,-0.1516,0.5987,12.1149
16:33:54:319,1.0385,1.3472,9.0066,23.513,0.1598,-0.3422,0.4753,11.5964
16:33:54:339,0.6987,1.5051,8.284,27.7426,0.4053,-0.2762,0.4314,11.1133
16:33:54:359,0.8519,1.8066,6.8483,26.4161,0.6142,-0.2444,0.435,10.5259
16:33:54:379,1.1294,2.1918,6.1496,29.3828,0.6338,-0.1431,0.4045,9.9187
16:33:54:403,1.1366,2.656,6.4247,28.1494,0.536,0.006,0.325,9.2882
16:33:54:420,1.0385,3.0628,6.2548,27.3553,0.5275,0.1929,0.2224,8.7089
16:33:54:440,0.9739,3.5749,5.9916,28.5108,0.6093,0.3102,0.1284,8.121
16:33:54:463,0.8495,3.9386,6.1161,28.7144,0.6387,0.122,0.0159,7.7586
16:33:54:485,0.7226,4.1803,6.1831,29.531,0.6509,-0.2225,-0.1233,7.7326
16:33:54:505,0.9093,4.0463,6.1041,28.3352,0.6106,-0.5572,-0.276,8.0048
16:33:54:526,0.9476,3.5175,6.7334,29.362,0.4065,-0.826,-0.4568,8.592
16:33:54:542,0.2656,3.3428,8.5735,29.3144,0.0913,-0.9518,-0.6108,9.4334
16:33:54:568,-0.7633,3.6754,9.9541,30.1464,-0.0614,-0.8773,-0.6486,10.338
16:33:54:582,-0.6006,4.2377,9.7173,29.9344,0.0022,-0.6904,-0.5436,11.0079
16:33:54:602,0.9643,4.0798,9.0138,29.528,-0.0712,-0.7539,-0.4104,11.5124
16:33:54:621,2.9743,2.7565,9.8249,29.1997,-0.4792,-0.9384,-0.4239,12.0546
16:33:54:640,2.6225,1.4836,12.8973,30.8103,-0.9899,-0.8651,-0.5937,12.7735
16:33:54:664,0.1172,0.8662,15.3811,28.8389,-1.1279,-0.4925,-0.7476,13.5755
16:33:54:686,-1.3304,1.0122,13.9789,28.2548,-0.6734,-0.1235,-0.5998,14.1178
16:33:54:702,-0.457,1.998,10.0475,30.4409,-0.109,0.0487,-0.1966,14.1302
16:33:54:723,1.0528,3.2782,7.5757,30.1699,-0.3912,0.1355,0.005,13.6168
16:33:54:740,0.8973,3.6371,8.6548,30.0543,-0.7125,-0.1443,-0.1795,13.5615
16:33:54:760,1.0337,4.0558,8.4251,28.6899,-0.7223,-0.4546,-0.3078,13.7441
16:33:54:781,1.151,4.1779,7.5278,31.1534,-0.5928,-0.5083,-0.4067,14.0485
16:33:54:801,0.7322,4.1468,7.1043,28.1832,-0.5427,-0.3654,-0.5375,14.4153
16:33:54:820,0.1938,3.9529,7.4249,29.0199,-0.5513,-0.2212,-0.6682,14.8765
16:33:54:842,-0.3757,3.8716,7.5254,29.1249,-0.4828,-0.1944,-0.7586,15.446
16:33:54:867,-0.7418,3.8046,7.0062,29.7368,-0.3301,-0.242,-0.8038,16.1144
16:33:54:884,-0.8877,3.7567,6.4032,30.0749,-0.2141,-0.2176,-0.7965,16.7803
16:33:54:902,-0.6939,3.685,6.4223,29.6909,-0.2006,-0.1052,-0.7488,17.337
16:33:54:919,-0.5815,3.6706,6.5468,29.5686,-0.2031,-0.0172,-0.7232,17.8366
16:33:54:940,-1.0361,3.6299,6.2596,30.0748,-0.1212,0.05,-0.7256,18.3368
16:33:54:962,-1.2849,3.8429,5.7643,30.5989,-0.0467,0.1111,-0.6499,18.7697
16:33:54:984,-1.2084,4.0845,6.2333,31.3567,-0.1066,0.2747,-0.4959,18.913
16:33:55:001,-1.4285,4.3358,7.9322,29.7393,-0.2336,0.4849,-0.3554,18.8981
16:33:55:023,-1.5242,4.6421,9.8058,31.0373,-0.2177,0.5057,-0.2589,18.759
16:33:55:058,-1.6176,4.8215,11.2319,30.6202,0.0339,0.3664,-0.2186,18.6367
16:33:55:063,-2.1392,4.8909,11.4281,28.9939,0.4127,0.2797,-0.2137,18.5525
16:33:55:079,-2.7063,4.7162,12.2919,31.1559,0.5935,0.0878,-0.1734,18.5137
16:33:55:099,-3.5988,4.3023,14.7709,32.8041,0.475,-0.4424,-0.1086,18.667
16:33:55:120,-3.6371,4.3358,14.2397,32.3405,0.5421,-1.0703,0.1271,18.8174
16:33:55:141,-2.5077,4.9244,11.1649,32.9995,0.8561,-0.7649,0.5608,18.381
16:33:55:165,-1.7898,5.5274,9.3942,34.0932,0.8965,0.1501,0.8699,17.1864
16:33:55:184,-2.7613,5.3264,10.7438,33.3245,0.2538,0.5643,0.8089,14.7858
16:33:55:200,-3.1107,5.1661,9.7986,33.1265,0.1634,0.3041,0.7734,13.7144
16:33:55:219,-2.5508,4.7067,9.344,34.4388,-0.026,0.2601,0.8382,12.5648
16:33:55:239,-1.7228,3.7878,11.1051,33.4838,-0.4181,0.392,0.8931,11.2563
16:33:55:263,-1.6104,2.7685,13.596,33.7897,-0.7077,0.4006,0.8431,10.0071
16:33:55:282,-1.6869,2.0674,14.1488,36.0204,-0.5574,0.2906,0.8015,8.8454
16:33:55:302,-1.4142,1.986,12.2895,34.6642,-0.1298,0.3175,0.898,7.5525
16:33:55:322,-0.6197,2.1631,10.4423,35.365,0.1854,0.5497,1.0776,5.9801
16:33:55:341,0.201,2.4096,9.0712,35.6473,0.2978,0.8123,1.2108,4.0798
16:33:55:364,0.8255,2.6154,8.0136,34.8058,0.3088,0.9259,1.2328,2.0654
16:33:55:380,0.9547,2.7805,7.5063,35.9611,0.2819,0.8722,1.1509,0.1661
16:33:55:404,0.8519,2.9264,7.6187,36.4896,0.2819,0.7256,1.0422,358.4319
16:33:55:419,0.6652,3.1274,7.2909,36.7674,0.3858,0.5411,0.9604,356.8381
16:33:55:437,0.871,3.4217,6.2859,37.4153,0.5617,0.4214,0.9347,355.3308
16:33:55:459,1.2203,3.7137,5.738,38.0757,0.6106,0.4006,0.9029,353.856
16:33:55:479,1.1653,3.8907,6.1496,36.6579,0.4774,0.3823,0.7942,352.5123
16:33:55:499,0.8566,3.8333,6.9344,38.2415,0.3454,0.3407,0.6451,351.33
16:33:55:522,0.4164,3.8333,7.3053,36.9584,0.343,0.298,0.5327,350.3103
16:33:55:540,0.1603,4.063,7.0684,37.3694,0.431,0.2418,0.4875,349.3932
16:33:55:561,0.3446,4.5224,6.7071,37.9998,0.4896,0.1721,0.4692,348.5098
16:33:55:580,0.725,4.6564,6.6066,38.4503,0.4017,0.072,0.4008,347.7142
16:33:55:600,0.6915,4.5583,7.6283,39.5927,0.1463,-0.0661,0.264,347.1566
16:33:55:620,0.2345,4.9125,9.9518,37.9998,-0.219,-0.2066,0.1113,346.7533
16:33:55:638,1.4309,4.3167,10.5571,40.6622,-0.3314,-0.3422,0.121,346.7224
16:33:55:660,2.199,2.9815,12.7418,39.063,-0.6356,-0.5193,0.005,346.0623
16:33:55:680,1.0026,2.1583,15.2495,40.9107,-0.8384,-0.5865,-0.2088,346.267
16:33:55:700,-0.1795,1.2347,15.4002,38.6732,-0.5672,-0.4644,-0.2027,346.2811
16:33:55:724,-0.213,2.0195,13.3017,40.4362,0.0339,-0.2603,0.11,345.9318
16:33:55:739,1.6606,2.7781,11.0405,41.0663,0.4798,-0.2774,0.4851,345.1687
16:33:55:761,2.6584,3.4696,9.2746,39.8969,0.5983,-0.4399,0.5401,344.4006
16:33:55:786,2.735,4.0941,7.9466,40.0177,0.536,-0.4754,0.3373,343.887
16:33:55:804,2.4311,4.3358,7.2838,41.3725,0.3552,-0.407,0.0599,343.6301
16:33:55:821,2.0435,4.3837,7.3244,40.9035,0.1439,-0.2677,-0.1893,343.5588
16:33:55:837,1.5912,4.3837,7.3244,40.3763,0.0302,-0.1113,-0.3848,343.6186
16:33:55:958,1.2084,4.4387,6.8052,42.5817,0.0437,0.0365,-0.5167,343.8193
16:33:55:959,0.8853,4.5894,5.9868,41.7777,0.1097,0.1562,-0.6096,344.0178
16:33:55:960,0.4786,4.5799,5.5226,41.3228,0.1231,0.2173,-0.7,344.2807
16:33:55:960,-0.268,4.5081,5.2403,42.8535,0.1035,0.2393,-0.7745,344.6348
16:33:55:963,-1.084,4.4698,4.9507,42.9655,0.0828,0.2613,-0.783,345.0029
16:33:55:964,-1.3256,4.5368,4.9603,40.6941,0.062,0.2919,-0.6719,345.2383
16:33:55:980,-0.9069,4.5966,5.415,38.9223,0.0229,0.2369,-0.5082,345.3467
16:33:56:000,-0.5384,4.6181,6.0227,41.8042,-0.0101,0.1074,-0.4202,345.4503
16:33:56:019,-0.7059,4.6852,6.5372,40.6688,-0.0064,0.0597,-0.3896,345.5302
16:33:56:038,-1.4022,4.8,6.9894,41.2481,0.0107,0.1746,-0.3444,345.5534
16:33:56:061,-1.8544,4.8861,7.4297,40.7188,0.0632,0.4018,-0.2027,345.3116
16:33:56:080,-1.6367,5.604,8.3031,42.2997,0.2257,0.3786,0.1589,344.8044
16:33:56:102,-1.048,6.0275,8.6692,41.9672,0.2599,0.1624,0.2493,343.9221
16:33:56:121,-0.5216,6.4726,9.3535,42.6199,0.1658,-0.0038,0.2224,343.4237
16:33:56:145,-0.5575,6.8913,9.856,42.3712,-0.0602,0.0121,0.099,343.0174
16:33:56:163,-0.6532,5.8935,11.4616,41.5928,-0.3815,0.3236,-0.0402,342.5845
16:33:56:185,-2.0961,5.3408,13.8999,41.4534,-0.6087,0.5607,-0.1856,342.195
16:33:56:205,-3.7017,5.5681,12.2632,41.3099,-0.2837,0.7378,-0.2088,341.7917
16:33:56:220,-4.1516,5.75,9.3224,43.053,0.0925,0.7683,-0.0989,341.3258
16:33:56:239,-3.9194,5.1159,9.1119,41.4103,-0.0919,0.634,-0.017,340.8162
16:33:56:264,-3.7089,4.2138,10.7318,41.2701,-0.4926,0.5374,0.0221,340.289
16:33:56:279,-4.1324,3.5557,11.4257,42.2754,-0.605,0.5411,0.0636,339.7491
16:33:56:299,-4.2568,3.3404,11.0477,43.2655,-0.4572,0.5142,0.2371,339.0747
16:33:56:319,-3.1202,3.2877,9.8536,42.3506,-0.2336,0.3786,0.5413,338.1074
16:33:56:340,-1.5362,3.2518,8.6142,42.3377,-0.0712,0.1795,0.7771,336.9947
16:33:56:360,-0.7178,3.0796,7.4249,44.1406,0.0119,-0.027,0.8101,335.9264
16:33:56:380,-0.3278,3.0269,6.262,42.6045,0.0669,-0.2237,0.7478,334.9992
16:33:56:399,0.0383,3.0939,5.1685,43.4201,0.0547,-0.3617,0.6891,334.2076
16:33:56:419,0.268,3.0413,4.9699,42.9249,-0.098,-0.2689,0.6476,333.3999
16:33:56:439,0.39,3.0724,6.4319,44.2495,-0.3265,0.0317,0.6134,332.4815
16:33:56:458,0.3972,3.1777,7.791,43.7125,-0.3986,0.1782,0.5682,331.4988
16:33:56:479,0.3876,3.2877,8.3844,43.8701,-0.2361,0.0243,0.4973,330.6714
16:33:56:500,0.5192,3.472,8.1189,43.6748,-0.0003,-0.2677,0.424,330.0616
16:33:56:520,0.6939,3.728,8.3222,42.6499,0.1329,-0.4436,0.3629,329.5917
16:33:56:547,0.6628,4.008,9.6407,43.5764,0.3186,-0.4863,0.2273,329.1296
16:33:56:564,0.6796,4.3884,8.8606,42.2057,0.4982,-0.5914,0.1638,328.9325
16:33:56:583,0.9523,4.7689,8.9516,43.0067,0.5031,-0.7038,0.1003,328.8865
16:33:56:599,0.8327,5.2044,9.9876,43.6908,0.376,-0.6977,0.0233,328.9123
16:33:56:618,0.414,6.1113,9.7484,43.6863,0.4175,-0.5108,-0.0231,328.9445
16:33:56:637,0.7418,6.5157,8.2552,45.2127,0.4737,-0.2933,-0.0378,328.882
16:33:56:664,2.4287,5.5513,7.7097,44.6194,0.1329,-0.2567,-0.1612,328.8648
16:33:56:682,2.9695,3.4887,11.0094,44.1198,-0.7113,-0.5523,-0.5497,329.2936
16:33:56:701,1.1557,1.8592,15.4648,42.9084,-1.3222,-0.8028,-1.0262,330.2951
16:33:56:719,-1.0217,1.3878,15.5318,44.7591,-0.9471,-0.7148,-1.075,331.3781
16:33:56:739,-1.4812,2.1488,12.3805,42.3806,-0.1188,-0.4668,-0.6303,331.9598
16:33:56:760,0.6485,2.7852,10.0164,43.1036,0.2746,-0.3715,-0.0476,331.8841
16:33:56:780,2.8666,3.1585,8.8678,42.6199,0.2538,-0.3764,0.231,331.4573
16:33:56:800,4.0032,3.5366,8.0495,44.1308,0.1011,-0.3788,0.1174,331.1644
16:33:56:819,3.4289,3.6347,7.1545,44.6744,-0.0662,-0.3361,-0.2528,331.2107
16:33:56:842,1.9741,3.539,6.3673,42.4961,-0.2019,-0.1088,-0.6193,331.5652
16:33:56:862,0.6676,3.5294,5.9294,43.6807,-0.2776,0.2173,-0.8001,332.0064
16:33:56:881,-0.0909,3.4911,5.537,41.5802,-0.2617,0.4446,-0.816,332.3888
16:33:56:899,-0.6341,3.5438,5.2259,42.2754,-0.2043,0.4275,-0.7745,332.753
16:33:56:919,-0.8997,3.5366,5.3456,42.1288,-0.1591,0.1697,-0.7195,333.1916
16:33:56:941,-0.9643,3.4959,5.336,43.4235,-0.1041,-0.1895,-0.6438,333.7204
16:33:56:960,-0.9045,3.5773,5.6686,43.5763,-0.043,-0.4558,-0.5497,334.2924
16:33:56:980,-0.7705,3.8835,5.7763,43.8433,0.0217,-0.5841,-0.4446,334.8299
16:33:57:003,-0.2106,4.5105,6.2142,44.0501,-0.0003,-0.4717,-0.2504,335.7833
16:33:57:025,0.1914,4.7928,6.9009,43.6725,-0.0992,-0.3288,-0.2064,335.9335
16:33:57:046,0.0168,5.0082,7.7695,43.911,-0.1799,-0.2041,-0.2553,336.0927
16:33:57:063,-0.6102,5.2834,8.6453,43.1422,-0.2116,-0.1162,-0.3212,336.2672
16:33:57:081,-0.9619,5.537,9.6335,44.0501,-0.175,-0.1052,-0.3347,336.4764
16:33:57:099,-1.1581,5.6183,10.5835,41.8948,-0.1176,-0.1944,-0.3114,336.6971
16:33:57:119,-1.1821,5.6853,11.3827,43.5197,-0.0846,-0.3006,-0.2638,336.9315
16:33:57:142,-1.4285,6.2931,11.5454,44.2504,-0.0712,-0.2579,-0.2076,337.1252
16:33:57:165,-1.0959,5.7811,11.5286,44.2325,-0.1249,0.0842,-0.1306,337.0476
16:33:57:178,-1.9813,5.1517,12.7466,41.9288,-0.3253,0.4788,-0.1221,336.7801
16:33:57:199,-3.8812,5.2283,13.2275,43.1319,-0.3607,0.8148,-0.1282,336.4611
16:33:57:218,-4.8981,5.6471,12.0239,42.4782,-0.1261,1.1104,0.0392,335.88
16:33:57:237,-4.0582,5.6016,11.665,42.4676,-0.1053,1.064,0.3043,335.0225
16:33:57:258,-2.1224,4.4195,13.7803,43.5731,-0.4034,0.5777,0.4203,334.1479
16:33:57:280,-1.2467,2.9862,15.539,42.6265,-0.5867,-0.1027,0.2762,333.6658
16:33:57:300,-1.4596,2.0602,14.3426,42.3886,-0.3802,-0.4008,0.1174,333.5214
16:33:57:320,-1.7779,1.8353,11.3803,41.2385,-0.0382,0.0768,0.22,333.0602
16:33:57:343,-1.1773,1.864,9.5689,44.3617,0.0498,1.0738,0.5633,331.844
16:33:57:361,-0.2919,1.7109,9.0257,42.1204,-0.0772,1.8251,0.854,329.9625
16:33:57:378,0.5288,1.5051,9.6909,43.3979,-0.1897,1.9278,0.9481,327.9482
16:33:57:398,0.7753,1.3663,10.5428,44.0807,-0.0846,1.3267,0.8651,326.2512
16:33:57:418,0.4738,1.474,9.0879,44.1402,0.3552,0.4018,0.7307,325.0873
16:33:57:441,0.6174,1.8975,6.3482,44.5283,0.8427,-0.1638,0.7294,324.186
16:33:57:461,1.6463,2.8044,4.0965,45.151,0.7682,0.0207,0.7685,322.4206
16:33:57:478,1.7874,2.9025,5.2858,44.4015,0.4359,0.2198,0.6109,321.4716
16:33:57:498,1.2586,2.7589,6.8937,46.4377,0.2575,0.1111,0.347,320.8723
16:33:57:519,0.7226,2.7996,7.3986,46.4065,0.376,-0.2762,0.1027,320.7039
16:33:57:540,0.5527,3.1035,6.1878,45.2871,0.6802,-0.6904,-0.0207,320.9121
16:33:57:559,0.5934,3.6921,4.6612,44.6281,0.8439,-0.7979,-0.0549,321.2147
16:33:57:580,0.7418,4.3095,4.3597,47.002,0.6509,-0.6171,-0.0989,321.5015
16:33:57:601,0.9212,4.4602,5.4652,44.9609,0.1683,-0.4717,-0.2052,321.804
16:33:57:627,0.5001,4.4913,7.334,46.386,-0.3204,-0.4448,-0.3579,322.2493
16:33:57:644,-0.5336,4.8957,9.1214,46.2706,-0.5525,-0.407,-0.491,322.8127
16:33:57:663,-1.0074,5.2953,8.9803,45.9813,-0.5598,-0.4399,-0.5069,323.4388
16:33:57:679,-0.2656,5.2259,8.0016,46.1321,-0.6967,-0.4057,-0.4532,324.0043
16:33:57:698,1.7635,3.5246,10.0618,45.6973,-1.371,-0.1773,-0.4373,324.3339
16:33:57:720,2.0243,1.5027,16.1324,44.5341,-2.3044,-0.0172,-0.6425,324.7051
16:33:57:741,-0.4379,0.9404,17.6088,43.5339,-2.3778,0.0866,-0.915,325.4175
16:33:57:763,-2.7541,1.8401,16.5272,44.6418,-1.4883,0.5509,-0.7745,325.905
16:33:57:779,-2.7589,2.5172,12.7681,43.3476,-0.5219,0.7879,-0.3139,325.8657
16:33:57:799,-1.1366,2.924,9.7771,44.9022,-0.0479,0.7012,0.121,325.3977
16:33:57:820,0.2489,2.8187,9.4828,44.7544,-0.1554,0.4043,0.1955,324.9005
16:33:57:839,-0.0885,2.4335,10.3753,44.9291,-0.4059,-0.0685,-0.1086,324.894
16:33:57:862,-0.9834,2.2827,9.9685,44.3326,-0.3497,-0.4362,-0.4153,325.3686
16:33:57:879,-1.5936,2.4766,8.1428,41.9801,-0.0687,-0.4986,-0.4874,325.9503
16:33:57:898,-1.8209,2.5914,6.6736,44.947,0.0803,-0.2872,-0.3933,326.3817
16:33:57:923,-1.5051,2.9527,6.3338,44.2198,0.018,0.342,-0.0757,326.5309
16:33:57:942,-1.3376,3.1226,6.329,44.1085,0.0168,0.3334,-0.0048,326.3425
16:33:58:085,-1.1007,2.9839,6.2955,44.0165,0.0058,0.0756,0.0123,326.2426
16:33:58:086,-0.8375,2.9312,6.6927,44.2121,-0.0174,-0.1797,0.0331,326.194
16:33:58:086,-0.5982,2.9551,6.5803,45.781,-0.043,-0.2799,0.077,326.062
16:33:58:086,-0.4714,3.1346,6.2572,44.7776,-0.1127,-0.0258,0.1491,325.818
16:33:58:086,-0.5815,3.3212,6.4534,43.6689,-0.313,0.5826,0.242,325.3253
16:33:58:087,-0.9739,3.2566,7.9155,45.046,-0.6172,1.2705,0.3031,324.5572
16:33:58:087,-1.2706,2.924,10.1982,44.3214,-0.8543,1.6345,0.3079,323.6645
16:33:58:100,-1.6199,2.6417,12.2656,44.1511,-0.7981,1.4721,0.2444,322.9073
16:33:58:121,-2.0698,2.5795,13.1342,44.7632,-0.4059,0.9211,0.1369,322.4054
16:33:58:139,-2.7159,2.6943,12.1316,45.6628,0.15,0.3468,0.0685,322.1749
16:33:58:159,-2.6656,2.6728,10.7318,45.3186,0.5336,0.1501,0.1552,321.8977
16:33:58:178,-2.3904,3.2016,10.2772,44.8735,0.6057,0.2723,0.336,321.3947
16:33:58:199,-1.6917,3.2279,9.9781,44.878,0.5031,0.4568,0.4594,320.6993
16:33:58:222,-1.2371,2.5651,9.9685,45.1622,0.3015,0.4373,0.391,320.0597
16:33:58:245,-2.479,2.211,11.3683,45.2356,0.0095,0.2002,0.1564,319.7429
16:33:58:265,-4.0917,2.601,11.7727,45.0066,0.0107,0.0634,0.0159,319.6579
16:33:58:278,-4.8192,2.9312,9.4852,45.8458,0.354,0.1269,0.099,319.5222
16:33:58:300,-4.7952,3.0676,7.535,44.7724,0.453,0.2503,0.2835,319.1528
16:33:58:322,-3.8357,2.5101,7.4297,44.7539,0.062,0.2076,0.4436,318.5992
16:33:58:339,-2.6752,1.6391,8.8702,45.6308,-0.5684,-0.1443,0.4668,318.0708
16:33:58:359,-2.1368,0.7561,11.5669,46.1615,-1.0925,-0.5487,0.3593,317.7611
16:33:58:379,-2.3904,0.2177,11.6028,47.3108,-0.7357,-0.8284,0.2493,317.6534
16:33:58:400,-2.1368,0.4307,9.7268,46.3079,-0.3643,-0.5218,0.4314,317.1764
16:33:58:422,-1.5793,0.524,9.6,46.6814,-0.324,-0.1394,0.6745,316.3946
16:33:58:439,-0.9332,0.6556,10.3298,46.0013,-0.2959,0.1147,0.8785,315.3224
16:33:58:458,-0.2536,0.8064,10.0164,47.3648,-0.0211,0.0768,0.9884,314.1297
16:33:58:478,0.3206,1.0026,8.5448,46.7024,0.3784,-0.1699,1.0178,312.9678
16:33:58:497,0.7466,1.3615,7.3292,46.8501,0.5959,-0.3666,0.9982,311.8677
16:33:58:518,0.8207,1.7946,6.7669,48.1892,0.5996,-0.3459,0.9494,310.8623
16:33:58:538,0.6365,2.2564,6.8411,48.9496,0.5458,-0.1626,0.9115,309.8692
16:33:58:559,0.5671,2.668,6.7884,49.6713,0.5666,-0.0038,0.8956,308.8592
16:33:58:579,0.7226,2.9791,6.2883,47.2898,0.6546,-0.0074,0.8516,307.9186
16:33:58:599,0.9787,3.2997,5.884,50.6635,0.6643,-0.176,0.738,307.182
16:33:58:619,1.1198,3.5749,6.0299,50.4809,0.5189,-0.4631,0.5266,306.7468
16:33:58:640,0.871,3.9027,6.5563,49.7812,0.3027,-0.7441,0.2444,306.7389
16:33:58:659,0.4403,4.0606,7.2479,50.0122,0.0816,-0.9005,-0.0341,307.0843
16:33:58:679,0.0814,4.2018,7.9561,48.5465,-0.1335,-0.8956,-0.2284,307.6148
16:33:58:698,-0.1938,4.264,8.4491,50.1139,-0.3619,-0.6941,-0.3298,308.2139
16:33:58:724,-0.4164,4.3502,9.2124,49.8852,-0.6454,-0.3617,-0.3835,308.7527
16:33:58:742,0.0311,3.6586,10.5739,49.6639,-1.0107,-0.0636,-0.4263,309.1949
16:33:58:764,0.6867,2.1009,13.127,48.6567,-1.4163,-0.1357,-0.5888,309.7827
16:33:58:779,0.4211,0.8207,17.013,47.6374,-1.6887,-0.6696,-0.882,310.8177
16:33:58:801,-0.1627,-0.2752,20.327,49.0694,-1.4981,-1.4051,-1.1166,312.2322
16:33:58:823,-0.9619,-0.859,20.0782,48.8823,-0.7064,-1.8755,-1.0897,313.7028
16:33:58:843,0.3565,-0.3422,14.1966,49.9646,0.85,-0.6904,-0.1331,314.9537
16:33:58:862,1.2275,0.2704,12.7035,50.4912,0.9624,0.4226,0.3018,314.443
16:33:58:877,1.8808,0.9476,10.9831,50.1464,1.0223,1.2143,0.4606,313.5806
16:33:58:898,1.5601,1.7492,8.6046,49.9534,1.1604,1.5918,0.3544,312.7397
16:33:58:920,0.6461,2.2995,6.1902,50.925,1.2239,1.5857,0.1247,312.1454
16:33:58:942,-0.0191,2.6058,4.7067,50.3768,1.1127,1.3487,-0.0231,311.7708
16:33:58:958,-0.2321,2.9862,4.4171,51.254,0.8525,0.998,-0.072,311.5488
16:33:58:978,-0.1125,2.9384,4.276,51.1533,0.5861,0.6095,-0.0891,311.468
16:33:58:999,-0.1436,3.082,4.4052,52.1904,0.3821,0.3114,-0.1233,311.5141
16:33:59:022,0.079,3.0772,4.5177,51.8766,0.2245,0.1098,-0.1404,311.6349
16:33:59:038,0.1723,3.0532,5.0225,52.8699,0.0657,-0.0307,-0.1722,311.8465
16:33:59:060,0.2536,2.9527,5.9629,51.923,-0.065,-0.0759,-0.2113,312.1271
16:33:59:079,0.3493,2.9384,6.4989,51.813,-0.0809,-0.0673,-0.2369,312.4172
16:33:59:103,0.3159,3.0461,6.743,52.6101,-0.0455,-0.0636,-0.2662,312.7175
16:33:59:122,0.2991,3.1944,6.8578,53.5998,-0.0406,-0.0416,-0.276,313.0338
16:33:59:140,0.3206,3.4122,7.0253,53.2224,-0.0809,0.0597,-0.2614,313.3284
16:33:59:158,0.2153,3.4576,7.7599,52.7432,-0.1725,0.1599,-0.2504,313.5572
16:33:59:178,-0.1627,3.3906,9.4684,51.9943,-0.2642,0.2027,-0.2614,313.7724
16:33:59:198,-0.7059,3.393,10.7797,54.3134,-0.1909,0.0597,-0.2772,314.0476
16:33:59:220,-0.9787,3.5677,10.7605,52.2469,0.0315,-0.2945,-0.2516,314.4337
16:33:59:242,-0.6676,3.7376,10.5858,54.2201,0.1536,-0.6293,-0.1502,314.8459
16:33:59:260,-0.5192,4.3119,11.1841,54.6519,0.0498,-0.7564,-0.0451,315.2038
16:33:59:279,-0.1603,4.185,11.0572,54.0253,-0.1921,0.0976,0.0941,315.3498
16:33:59:303,-1.2754,3.7974,11.7751,53.5572,-0.357,0.5081,0.0269,315.0676
16:33:59:323,-2.601,3.8524,11.9641,54.7592,-0.3399,0.6669,-0.0256,314.9436
16:33:59:349,-3.5366,4.0295,10.7127,54.1653,-0.0638,0.7219,0.0233,314.7712
16:33:59:357,-3.9649,4.1468,9.7795,56.7036,0.095,0.59,0.1161,314.5341
16:33:59:376,-3.6873,3.8213,9.9494,55.4296,-0.0565,0.2063,0.2236,314.3465
16:33:59:396,-2.8786,3.1777,11.3683,54.8365,-0.357,-0.2884,0.3055,314.1861
16:33:59:417,-1.9549,2.5914,12.2847,56.1052,-0.5256,-0.6061,0.347,314.0629
16:33:59:439,-1.2299,2.0124,11.9617,57.1439,-0.4951,-0.5694,0.3397,313.8997
16:33:59:459,-0.6796,1.5649,11.5382,56.2244,-0.4364,-0.2469,0.3226,313.6465
16:33:59:478,-0.1819,1.1605,11.5669,55.8039,-0.3961,0.1013,0.3189,313.2886
16:33:59:504,0.2034,0.8973,11.6674,56.4688,-0.2593,0.2992,0.3067,312.8616
16:33:59:522,0.402,0.7513,11.0716,56.3678,0.0339,0.309,0.2762,312.466
16:33:59:541,0.4738,0.8997,9.8177,55.789,0.4041,0.2051,0.2591,312.1219
16:33:59:562,0.859,1.1797,8.6477,56.6002,0.7022,0.1086,0.2872,311.7737
16:33:59:577,1.2084,1.5482,7.4536,57.8518,0.9062,0.1025,0.3153,311.4138
16:33:59:599,1.3448,1.9693,6.2429,57.0879,1.0321,0.1929,0.2994,311.0586
16:33:59:617,1.5529,2.2229,5.3623,57.0275,1.0431,0.2943,0.2285,310.7432
16:33:59:638,1.5601,2.4144,4.9651,57.7094,0.9417,0.2833,0.0941,310.556
16:33:59:657,1.4189,2.4814,5.1398,59.3406,0.7682,0.0952,-0.0928,310.632
16:33:59:677,1.0863,2.5244,5.817,59.3478,0.6057,-0.2249,-0.2858,311.0468
16:33:59:696,0.8423,2.613,5.86,58.8199,0.5434,-0.5108,-0.4336,311.7475
16:33:59:718,0.5599,2.7661,5.5035,58.546,0.5104,-0.6721,-0.5399,312.6548
16:33:59:739,0.2489,2.6178,7.4441,57.5447,0.0364,-1.0398,-0.7207,314.8617
16:33:59:758,0.0526,2.6441,7.6307,58.918,-0.1335,-1.0923,-0.7623,316.1364
16:33:59:778,-0.8016,3.1346,7.1857,59.3443,-0.2532,-0.7502,-0.7586,317.3037
16:33:59:800,-1.4333,3.7543,7.8556,60.2839,-0.5036,-0.1443,-0.6694,318.1438
16:33:59:820,-1.5769,3.9912,9.0329,58.3863,-0.8359,0.3811,-0.5582,318.6338
16:33:59:840,-0.4475,2.9623,10.6672,61.1666,-1.2648,0.535,-0.5326,319.0089
16:33:59:860,0.012,1.139,15.6921,60.5312,-1.8732,0.1233,-0.7525,319.7256
16:33:59:879,-1.1198,-0.0048,20.2361,58.8496,-2.0247,-0.6012,-1.1105,321.0616
16:33:59:904,-3.0987,0.6461,19.0158,59.7297,-1.1157,-0.9812,-1.1691,322.6252
16:33:59:922,-2.4981,1.7515,13.9071,58.539,0.106,-0.7405,-0.6902,323.6234
16:33:59:937,-0.9643,2.7494,9.923,58.7685,0.6289,-0.2677,-0.094,323.8844
16:33:59:957,0.6652,2.9671,9.2195,60.1084,0.4078,0.1501,0.2114,323.6685
16:33:59:977,1.7587,3.1274,10.0762,59.7235,-0.0235,0.2589,0.231,323.3737
16:34:00:002,1.986,3.1035,10.3968,61.1649,-0.1701,0.0976,-0.017,323.3665
16:34:00:019,1.0433,3.0604,9.0903,59.124,-0.0308,-0.0722,-0.375,323.821
16:34:00:045,-0.1125,3.125,7.2072,59.2412,0.1219,-0.0636,-0.6059,324.5669
16:34:00:056,-0.8112,3.2734,6.3577,61.1676,0.0583,0.0854,-0.6181,325.2792
16:34:00:076,-0.8949,3.2782,6.6832,59.2903,-0.1286,0.2076,-0.4984,325.8508
16:34:00:143,-0.6867,3.2471,7.2574,58.9226,-0.2226,0.1575,-0.3689,326.3017
16:34:00:143,-0.2847,3.1777,7.6546,60.0785,-0.1823,-0.0966,-0.2858,326.7163
16:34:00:144,0.1196,3.1561,7.7551,59.7094,-0.0797,-0.4033,-0.2504,327.6612
16:34:00:158,0.1603,3.1274,7.8245,60.3639,0.0669,-0.4057,-0.2467,328.1204
16:34:00:181,0.1675,3.2518,8.0877,58.7962,0.1194,-0.176,-0.2064,328.4704
16:34:00:197,0.3206,3.2853,8.6381,60.4133,0.1683,-0.0343,-0.1685,328.6588
16:34:00:216,0.3135,3.3212,8.7888,60.1085,0.2599,-0.0441,-0.177,328.9401
16:34:00:236,0.0933,3.3045,8.6716,59.8455,0.3858,-0.0954,-0.2101,329.2763
16:34:00:256,-0.2177,3.4863,8.3318,60.3541,0.4762,-0.1492,-0.2381,329.6585
16:34:00:276,-0.5934,3.7472,8.1332,60.9663,0.4908,-0.1785,-0.2479,330.0625
16:34:00:296,-0.7322,3.9434,8.0758,58.7095,0.3992,-0.1773,-0.2443,330.4684
16:34:00:317,-0.3517,3.6467,8.7721,59.7977,0.1781,-0.1626,-0.2418,330.8589
16:34:00:337,-0.2632,3.326,10.2054,60.4216,-0.1212,-0.2261,-0.2821,331.3084
16:34:00:355,-0.7896,3.3021,11.5813,60.2773,-0.3472,-0.2567,-0.3371,331.8286
16:34:00:375,-1.2203,3.0724,11.5119,61.7742,-0.3411,-0.0343,-0.309,332.2552
16:34:00:396,-1.7085,2.7278,11.1553,61.1479,-0.3082,0.4165,-0.2113,332.4611
16:34:00:417,-2.6752,2.7781,11.6028,58.8716,-0.3766,0.9406,-0.0879,332.3967
16:34:00:438,-3.5175,3.2662,11.5286,60.7307,-0.3033,1.4684,0.0599,332.0082
16:34:00:458,-3.7783,3.4529,10.5571,60.1959,-0.1396,1.6577,0.1943,331.4458
16:34:00:478,-3.7831,3.1657,10.4016,58.727,-0.2006,1.3047,0.2481,330.9156
16:34:00:501,-3.4839,2.3258,11.6172,59.5101,-0.4816,0.5924,0.2383,330.5736
16:34:00:517,-3.149,1.5027,12.7633,59.2415,-0.6698,-0.0783,0.2285,330.4521
16:34:00:538,-2.9384,1.0265,12.7155,58.6914,-0.5659,-0.3141,0.3079,330.2956
16:34:00:557,-2.6082,0.9667,11.4473,58.984,-0.2654,-0.0917,0.5034,329.882
16:34:00:577,-1.9765,1.2203,9.7197,59.7285,0.0046,0.3126,0.7478,329.056
16:34:00:600,-1.0768,1.4883,8.5113,59.4237,0.1023,0.5973,0.9457,327.9412
16:34:00:620,-0.0838,1.6941,8.2169,58.0693,0.0669,0.6303,1.0263,326.7037
16:34:00:639,0.3757,1.9262,8.2935,60.2294,0.0266,0.3982,0.9494,325.5886
16:34:00:659,0.4451,2.2732,7.523,59.6354,0.2526,-0.0331,0.661,323.9846
16:34:00:680,0.3829,2.4766,6.7023,60.2658,0.3662,-0.1015,0.5621,323.4509
16:34:00:699,0.4116,2.4861,6.4678,58.7411,0.3406,-0.0893,0.4863,323.0153
16:34:00:718,0.4044,2.3713,7.2479,59.7477,0.2147,-0.082,0.3935,322.6433
16:34:00:737,0.2919,2.2875,7.7097,57.9332,0.1768,-0.1601,0.2896,322.4102
16:34:00:757,0.0838,2.3067,7.6762,58.9448,0.2746,-0.2677,0.2029,322.3041
16:34:00:777,0.0646,2.455,7.2742,57.6493,0.4065,-0.3813,0.1552,322.2915
16:34:00:801,0.2321,2.869,6.7214,59.0662,0.4835,-0.4754,0.1259,322.3539
16:34:00:817,0.4498,2.9886,6.8626,59.6598,0.4163,-0.5731,0.0514,322.5352
16:34:00:838,0.4786,2.8187,8.2624,59.0919,0.2111,-0.771,-0.0879,322.9305
16:34:00:858,0.2895,2.5699,9.8417,58.2446,0.0193,-1.0911,-0.2394,323.5809
16:34:00:879,-0.067,2.7757,10.1073,56.539,-0.0137,-1.267,-0.309,324.3672
16:34:00:897,-0.1507,3.3141,10.2652,58.2131,-0.0516,-1.019,-0.2455,325.0377
16:34:00:917,0.2082,3.2925,10.6409,57.5657,-0.2361,-0.5071,-0.149,325.4082
16:34:00:938,1.017,2.9743,11.3037,58.8946,-0.5439,-0.0869,-0.1538,325.6089
16:34:00:958,1.5769,1.4979,13.2634,58.7795,-0.9923,-0.038,-0.331,325.9649
16:34:00:987,0.4403,-0.0144,17.0345,57.1202,-1.4016,-0.3165,-0.6584,326.7372
16:34:01:004,-1.139,-0.4211,18.7717,57.2756,-1.1719,-0.5426,-0.7586,328.3461
16:34:01:021,-0.8806,1.0385,11.3276,57.3271,0.7047,-0.2139,0.1015,328.3438
16:34:01:039,0.6652,1.9741,9.0066,54.4113,0.9123,-0.06,0.5217,327.8405
16:34:01:059,1.9813,2.7039,8.2529,56.7796,0.6961,-0.093,0.6158,327.2352
16:34:01:081,2.3497,2.9336,8.004,57.4003,0.4053,-0.2347,0.3837,326.9191
16:34:01:101,1.7587,2.9551,7.4178,58.6115,0.2221,-0.253,0.0159,327.0047
16:34:01:122,0.8542,2.8475,6.7119,54.8199,0.1353,-0.071,-0.2699,327.3125
16:34:01:143,-0.0144,2.9001,6.0873,55.4757,0.0779,0.2014,-0.408,327.7077
16:34:01:156,-0.5168,3.0078,5.8744,55.7735,0.0327,0.4177,-0.4067,328.0725
16:34:01:180,-0.6772,3.2184,5.8241,55.8704,0.0107,0.4531,-0.3224,328.3293
16:34:01:199,-0.347,3.3811,5.7882,55.2154,0.0034,0.3371,-0.2235,328.5506
16:34:01:217,-0.0622,3.4768,6.0658,56.6909,-0.0345,0.1868,-0.1905,328.7614
16:34:01:237,-0.0096,3.4624,6.7286,56.3912,-0.0931,0.1098,-0.2211,329.0407
16:34:01:257,-0.1149,3.3858,7.4848,54.7695,-0.1286,0.0695,-0.2528,329.3698
16:34:01:278,-0.2919,3.3332,8.1404,55.0889,-0.1017,0.0732,-0.2638,329.7026
16:34:01:298,-0.3517,3.2782,8.5687,55.0396,-0.0211,0.1037,-0.2394,330.0014
16:34:01:318,-0.4834,3.2566,8.7769,54.7759,0.0791,0.0988,-0.2052,330.2814
16:34:01:338,-0.7633,3.283,9.064,54.7759,0.1842,0.0659,-0.1648,330.5216
16:34:01:358,-1.0026,3.3428,9.2985,55.5544,0.2917,-0.0294,-0.1074,330.7366
16:34:01:383,-1.0576,3.4911,9.588,55.2525,0.3943,-0.2054,-0.0329,330.9274
16:34:01:401,-0.7513,3.6682,9.3775,55.4668,0.4786,-0.4167,0.0685,331.0816
16:34:01:417,-0.2584,3.8142,8.9707,56.0809,0.4652,-0.4876,0.1601,331.1595
16:34:01:450,0.0335,4.2736,9.5833,54.3865,0.2147,-0.3483,0.2236,330.9572
16:34:01:464,0.2513,4.3932,10.9256,52.7581,-0.1322,-0.0343,0.2334,330.7128
16:34:01:483,-0.7178,3.4337,13.3256,53.8936,-0.4279,0.3053,0.0062,330.6583
16:34:01:498,-2.0506,3.5103,12.8638,54.1044,-0.2532,0.221,-0.0964,330.7798
16:34:01:518,-2.7278,3.7352,11.3396,54.6576,-0.0088,0.177,-0.0488,330.9135
16:34:01:538,-2.2325,3.2375,10.8371,53.8883,-0.0846,0.0878,0.0893,330.9193
16:34:01:560,-1.1318,2.187,12.0598,54.7218,-0.4511,-0.0197,0.1907,330.7852
16:34:01:582,-0.7561,1.2682,13.1294,54.1222,-0.6967,0.0194,0.1919,330.5601
16:34:01:601,-1.0122,0.8231,12.7801,54.1222,-0.5879,0.2845,0.2188,330.2874
16:34:01:620,-1.2443,0.8901,11.4712,52.9472,-0.2715,0.6755,0.38,329.7458
16:34:01:637,-1.0241,0.8829,10.3035,53.8359,-0.0198,0.86,0.5987,328.9159
16:34:01:658,-0.1795,0.859,10.55,55.6374,0.1109,0.6596,0.7942,327.915
16:34:01:684,0.7178,0.8423,10.5811,53.71,0.2599,0.0988,0.8663,326.9558
16:34:01:702,1.2251,1.0265,9.5306,52.9003,0.5641,-0.341,0.8357,326.1532
16:34:01:723,1.2036,1.4429,8.0184,54.3416,0.8525,-0.446,0.7771,325.4761
16:34:01:738,1.2419,1.7946,6.8148,54.3162,1.004,-0.264,0.7551,324.7657
16:34:01:758,1.2682,2.1607,5.9557,55.1351,1.0687,0.0463,0.7661,323.9688
16:34:01:778,1.3615,2.5914,5.3551,56.1952,1.0638,0.2674,0.7612,323.1117
16:34:01:796,1.4931,3.082,4.8622,54.4598,0.9966,0.3163,0.7038,322.3004
16:34:01:816,1.6869,3.4648,4.7593,53.3157,0.861,0.199,0.6012,321.6178
16:34:01:838,1.9023,3.6969,4.8479,54.8147,0.6704,0.0023,0.4521,321.1818
16:34:01:861,1.9047,3.8524,5.1326,54.7233,0.4774,-0.1944,0.2566,321.0348
16:34:01:883,1.6654,4.0534,5.5968,55.2956,0.3174,-0.3471,0.0587,321.1602
16:34:01:901,1.5984,4.1779,5.5537,55.4188,0.1854,-0.49,-0.1111,321.5229
16:34:01:916,1.7492,4.1109,6.0706,55.0259,-0.0504,-0.6268,-0.2662,322.1106
16:34:01:938,1.596,4.0199,7.5111,55.3633,-0.3998,-0.6989,-0.4104,322.8713
16:34:01:963,1.2634,3.9936,8.9946,54.6542,-0.671,-0.5719,-0.5057,323.6713
16:34:01:982,0.5815,4.3454,10.0786,53.4453,-0.7907,-0.2567,-0.5387,324.3834
16:34:01:997,0.469,4.1468,10.3633,54.1996,-0.8836,0.1391,-0.5338,324.9209
16:34:02:016,1.6056,2.9001,10.8491,53.3412,-1.1292,0.425,-0.5399,325.2803
16:34:02:036,0.6843,-0.2991,20.016,52.6303,-2.0173,-0.3849,-1.0811,325.9015
16:34:02:056,-1.5697,-0.2584,19.7456,51.0663,-1.3478,-0.8724,-1.1447,327.0475
16:34:02:077,-1.6056,0.012,15.2207,52.2378,-0.175,-0.644,-0.6535,329.442
16:34:02:097,-0.1412,1.328,11.6435,50.9388,0.4456,-0.1125,0.0025,329.4989
16:34:02:117,2.01,1.8999,10.4112,51.325,0.4236,0.2528,0.4142,328.9695
16:34:02:137,2.9791,2.4335,9.9302,51.325,0.2685,0.3358,0.3678,328.4396
16:34:02:160,2.5771,2.5268,8.8822,52.3904,0.2111,0.232,0.0123,328.3367
16:34:02:253,1.0792,2.5149,7.6044,51.8486,0.2331,0.1807,-0.3725,328.7166
16:34:02:254,-0.0814,2.6034,6.4487,51.5999,0.2758,0.2809,-0.5387,329.2654
16:34:02:254,-0.5982,2.747,5.8504,51.6248,0.2831,0.3811,-0.4947,329.741
16:34:02:254,-0.6341,2.9384,5.482,52.551,0.2709,0.353,-0.3689,330.1012
16:34:02:269,-0.3398,3.1801,5.1709,50.4993,0.2599,0.1795,-0.2418,330.36
16:34:02:276,-0.0479,3.3523,4.8574,50.9499,0.2159,-0.0502,-0.1722,330.6275
16:34:02:296,0.1555,3.5127,5.0297,50.2371,0.1023,-0.1699,-0.1587,330.9132
16:34:02:316,0.28,3.6084,5.659,50.1588,-0.0492,-0.1553,-0.1807,331.2321
16:34:02:335,0.079,3.5701,6.4941,52.7788,-0.164,-0.082,-0.2271,331.5577
16:34:02:357,-0.1795,3.5797,7.3172,52.9472,-0.2129,-0.0307,-0.2467,331.9123
16:34:02:377,-0.2847,3.6371,8.0758,51.5891,-0.2239,-0.0319,-0.2174,332.219
16:34:02:396,-0.3254,3.7113,8.6716,50.807,-0.197,-0.0062,-0.1563,332.4653
16:34:02:415,-0.3829,3.7089,9.32,51.4934,-0.1542,0.0549,-0.1013,332.6111
16:34:02:437,-0.5599,3.6945,9.8919,51.0266,-0.1066,0.0976,-0.0683,332.7302
16:34:02:458,-0.5767,3.5342,10.9065,49.9923,-0.0797,0.0341,-0.0366,332.9593
16:34:02:478,0.4211,2.7182,13.4525,50.5861,-0.1139,-0.6562,-0.0402,333.2178
16:34:02:503,0.3852,2.9001,13.6678,49.6221,-0.0614,-0.7796,-0.0671,333.5107
16:34:02:515,0.5336,2.7135,12.5121,49.4401,0.0987,-0.209,-0.0158,333.6182
16:34:02:535,-0.0048,2.857,12.3446,49.9245,0.1243,0.5607,0.0428,333.4488
16:34:02:555,-1.2514,3.1154,12.0574,48.4526,0.1231,0.9345,0.0343,333.2051
16:34:02:575,-1.9693,3.6873,10.5236,50.9543,0.2636,0.9675,0.0355,332.9802
16:34:02:594,-2.2014,3.8405,9.1621,51.9501,0.2575,0.7928,0.0392,332.8239
16:34:02:615,-1.7252,2.9169,9.8608,50.8249,-0.1567,0.309,-0.0158,332.8502
16:34:02:635,-1.0026,1.596,12.6532,50.8323,-0.7309,-0.3141,-0.1099,333.1149
16:34:02:657,-0.8782,0.7226,14.534,50.5637,-0.8934,-0.6378,-0.1819,333.4951
16:34:02:680,-1.2778,0.4307,14.0219,49.3185,-0.4987,-0.5096,-0.1343,333.8244
16:34:02:702,-1.6845,0.5838,12.1532,48.6995,0.0767,-0.0025,0.11,333.7669
16:34:02:718,-0.9284,0.8351,10.2461,51.5882,0.4969,0.4874,0.4924,333.1526
16:34:02:736,0.3517,1.1438,8.9037,50.656,0.6778,0.706,0.8137,332.1089
16:34:02:757,1.3998,1.7037,7.8676,50.8323,0.7315,0.7146,0.9261,330.911
16:34:02:776,1.651,2.211,6.8985,49.915,0.7462,0.5655,0.8308,329.85
16:34:02:797,1.4405,2.4622,6.0826,51.7649,0.7584,0.3395,0.6464,329.0595
16:34:02:816,1.2323,2.6919,5.2522,51.1241,0.7718,0.1318,0.4937,328.5175
16:34:02:837,1.0385,3.0126,4.2999,52.3582,0.7388,0.0085,0.3751,328.1646
16:34:02:857,0.7825,3.2949,3.6826,53.1858,0.58,-0.0135,0.2676,327.9469
16:34:02:877,0.7729,3.4696,4.0008,52.975,0.277,-0.0258,0.1674,327.8275
16:34:02:896,0.5815,3.3667,5.135,51.1479,-0.0479,-0.1479,0.0331,327.9075
16:34:02:916,0.2752,3.2925,6.4917,53.4469,-0.2483,-0.3507,-0.116,328.2216
16:34:02:939,0.0431,3.393,7.1641,53.0487,-0.2483,-0.5413,-0.2015,328.7082
16:34:02:961,-0.0335,3.8596,7.0804,52.5371,-0.1591,-0.6134,-0.2479,329.7686
16:34:02:978,0.1627,3.7376,8.0518,51.6244,-0.3729,-0.5829,-0.2834,330.3531
16:34:02:998,0.1819,3.4241,9.6024,52.3521,-0.6563,-0.5352,-0.3383,330.9649
16:34:03:015,-0.1244,3.326,11.1697,51.8862,-0.8262,-0.3996,-0.3689,331.5604
16:34:03:041,-0.3517,3.5773,11.8134,54.0692,-0.8433,-0.2041,-0.3322,332.0442
16:34:03:059,0.8542,3.0365,11.8684,53.4561,-0.8775,-0.0221,-0.2528,332.3572
16:34:03:076,2.7685,1.1533,14.589,53.6802,-1.2574,-0.1956,-0.3114,332.6925
16:34:03:096,2.7446,-0.4642,18.1974,53.6317,-1.6582,-0.727,-0.6205,333.4759
16:34:03:116,1.1246,-1.0098,18.7597,51.6548,-1.3295,-0.8736,-0.86,334.6068
16:34:03:139,-0.5527,-0.2034,15.3835,51.1179,-0.3692,-0.3129,-0.6926,335.4576
16:34:03:159,-0.6245,0.7107,11.72,50.7203,0.3687,0.3322,-0.2211,335.7101
16:34:03:176,0.7298,1.34,10.0929,54.0957,0.5153,0.5362,0.2188,335.3841
16:34:03:196,2.1416,1.7898,9.746,53.6317,0.3687,0.3004,0.3886,334.8921
16:34:03:215,2.3761,1.9621,9.4732,55.2581,0.2172,-0.0881,0.2127,334.6843
16:34:03:241,1.7252,1.8808,8.8511,54.2214,0.194,-0.2811,-0.0781,334.8659
16:34:03:259,0.5862,1.9047,7.4273,55.2989,0.3027,-0.1711,-0.2638,335.2464
16:34:03:277,-0.0144,2.0865,6.1854,54.0513,0.3931,0.1172,-0.2614,335.5811
16:34:03:296,-0.1364,2.266,5.5202,53.8451,0.4004,0.392,-0.1404,335.7139
16:34:03:315,-0.0479,2.6273,5.5298,55.8572,0.3638,0.4678,-0.0292,335.6992
16:34:03:337,0.2656,2.735,5.5466,54.6541,0.3259,0.2589,0.0159,335.6912
16:34:03:357,0.4953,2.8618,5.537,55.6684,0.2929,-0.082,-0.0219,335.8186
16:34:03:376,0.6317,2.9384,5.9151,56.8245,0.1915,-0.3739,-0.1184,336.12
16:34:03:395,0.7729,2.8546,7.1115,55.7029,-0.0638,-0.3666,-0.265,336.5506
16:34:03:418,0.8231,2.5675,8.26,57.6555,-0.2202,-0.2396,-0.3114,337.4037
16:34:03:439,0.5168,2.5125,9.3942,56.3688,-0.2935,-0.1174,-0.3481,337.8754
16:34:03:457,0.0861,2.8379,9.9302,57.1477,-0.2593,-0.0319,-0.3432,338.3353
16:34:03:476,-0.268,3.2662,9.6168,57.4847,-0.1188,0.1562,-0.2882,338.7027
16:34:03:495,-0.1962,3.3858,9.9302,57.4776,-0.0834,0.2968,-0.2149,338.9758
16:34:03:517,0.0335,3.4361,11.0907,56.805,-0.1371,0.2186,-0.1832,339.2023
16:34:03:550,0.2967,3.1633,12.1603,58.0759,-0.1298,-0.0172,-0.2161,339.5016
16:34:03:556,0.3398,2.8187,13.0959,55.6281,-0.0699,-0.308,-0.2748,339.9568
16:34:03:574,-0.201,3.2734,13.072,55.7178,0.106,-0.3263,-0.2895,340.4262
16:34:03:594,-0.5097,3.3835,10.9854,57.9301,0.4114,0.2222,-0.1978,340.6791
16:34:03:614,-1.2251,3.752,10.0834,58.933,0.4774,0.8636,-0.0647,340.6341
16:34:03:635,-2.0243,4.1611,10.6265,57.9075,0.3076,1.1141,0.0086,340.4554
16:34:03:657,-2.5436,4.1683,10.9113,59.3352,0.1805,0.9272,0.0318,340.2919
16:34:03:678,-2.2014,3.405,11.6985,59.5529,-0.0003,0.3676,0.0392,340.2627
16:34:03:696,-1.1797,1.8736,14.0339,58.9513,-0.3289,-0.4167,0.0294,340.4379
16:34:03:718,-0.5551,0.5838,15.7615,59.8175,-0.5097,-1.0459,0.0001,340.7854
16:34:03:736,-0.2967,-0.0359,14.8834,61.1106,-0.2581,-0.9518,0.1003,341.0006
16:34:03:756,-0.6245,0.3733,12.536,59.5794,0.2074,-0.1125,0.3654,340.7059
16:34:03:775,-0.615,0.8566,10.3466,63.8162,0.5092,0.8624,0.6965,339.789
16:34:03:796,-0.2321,1.3735,8.5807,61.022,0.6399,1.4415,0.9713,338.4014
16:34:03:819,0.5456,1.6463,7.4512,62.3976,0.646,1.5038,1.1082,336.7953
16:34:03:837,0.9667,2.0698,6.5683,62.8513,0.5922,1.1397,1.0654,335.3121
16:34:03:856,1.4405,2.5747,5.4317,63.4263,0.4847,0.2076,0.7294,334.1606
16:34:03:878,1.3448,2.5531,5.1398,63.0093,0.4444,-0.0184,0.534,333.2841
16:34:03:896,1.0576,2.6512,4.8431,63.5526,0.4187,-0.082,0.3751,332.4497
16:34:03:919,0.8255,2.9145,4.7043,63.2319,0.3845,-0.0612,0.2737,332.2416
16:34:03:940,0.8806,3.0006,4.8239,64.9255,0.3076,-0.0869,0.1955,332.1383
16:34:03:956,0.8279,3.0987,5.1637,63.9633,0.2086,-0.187,0.0929,332.1589
16:34:03:974,0.6652,3.2207,5.7715,63.5511,0.1243,-0.3104,-0.0317,332.3688
16:34:03:994,0.3565,3.4385,6.0754,65.608,0.0865,-0.4265,-0.1538,332.7593
16:34:04:016,0.3757,3.6395,6.6568,65.0958,0.0217,-0.5719,-0.2589,333.3308
16:34:04:034,0.6126,3.5342,7.3842,65.1829,-0.1261,-0.7588,-0.3774,334.038
16:34:04:055,1.0648,3.0748,8.8558,65.7236,-0.4034,-0.9066,-0.5118,334.953
16:34:04:074,0.5073,2.601,10.8156,65.236,-0.7125,-0.8431,-0.6499,335.9868
16:34:04:094,-0.7513,2.8833,12.3829,65.047,-0.8543,-0.4705,-0.6975,336.9731
16:34:04:116,-0.3254,2.8762,12.1675,65.2101,-0.8127,0.0414,-0.5301,337.5961
16:34:04:136,1.1773,1.8544,12.6724,64.1955,-0.9667,0.254,-0.4031,337.9388
16:34:04:156,1.4381,0.8255,15.9386,64.7323,-1.382,0.0194,-0.4959,338.4533
16:34:04:176,0.5623,0.2465,18.2261,65.9116,-1.3857,-0.3275,-0.6584,339.2563
16:34:04:195,-0.6987,0.2776,17.0536,65.4272,-0.7883,-0.5597,-0.6413,340.1399
16:34:04:216,-0.7705,0.6389,13.8162,66.6742,-0.0687,-0.5157,-0.3286,340.6883
16:34:04:238,0.5982,0.9643,11.7368,65.2985,0.2269,-0.3898,0.1015,340.705
16:34:04:358,1.9478,1.4429,11.2199,67.0166,0.1952,-0.2322,0.3654,340.3795
16:34:04:359,2.4,1.8616,10.6241,67.0404,0.2159,-0.1296,0.3495,340.0225
16:34:04:359,1.8568,2.12,8.9994,67.3864,0.3687,-0.0771,0.1552,339.8876
16:34:04:359,0.5982,2.4861,6.195,62.5969,0.4175,0.1294,-0.1209,339.9353
16:34:04:360,0.1436,2.6273,5.9127,64.8098,0.2929,0.2906,-0.1514,340.1364
16:34:04:360,-0.2201,2.8211,5.8983,64.8821,0.2221,0.3468,-0.149,340.2759
16:34:04:374,-0.3709,2.9695,5.5729,65.3259,0.2331,0.2589,-0.1294,340.4206
16:34:04:396,-0.5025,3.2016,5.1852,67.2639,0.2526,0.1245,-0.105,340.6059
16:34:04:416,-0.5312,3.3811,5.1541,66.9255,0.194,0.0145,-0.0854,340.8073
16:34:04:438,-0.4666,3.5055,5.5035,67.0316,0.0767,-0.0429,-0.0598,340.9797
16:34:04:459,-0.3589,3.4002,6.5468,66.3445,-0.0772,-0.0746,-0.0524,341.1608
16:34:04:475,-0.3924,3.2423,7.4632,66.5315,-0.1701,-0.1076,-0.0659,341.3396
16:34:04:495,-0.5623,3.1226,8.3103,66.1602,-0.186,-0.1088,-0.0647,341.5414
16:34:04:517,-0.524,3.0413,8.7984,66.9734,-0.153,-0.0514,-0.0268,341.6701
16:34:04:537,-0.524,2.8594,9.655,67.455,-0.1371,0.0329,0.0172,341.7311
16:34:04:558,-0.7107,2.7781,10.6457,67.6805,-0.1102,0.0463,0.0465,341.7575
16:34:04:578,-0.5695,2.7302,11.1553,66.6414,-0.0345,-0.0478,0.0941,341.7508
16:34:04:601,0.1125,2.467,12.1316,67.9961,-0.0528,-0.2542,0.1467,341.7156
16:34:04:618,0.5743,2.2038,14.0483,67.6303,-0.2006,-0.5267,0.1296,341.7492
16:34:04:636,0.6413,2.0961,14.5867,66.3171,-0.1457,-0.5035,0.1113,341.8096
16:34:04:655,0.7705,1.9789,13.2084,67.4766,0.1378,-0.0404,0.1748,341.6573
16:34:04:675,0.3805,2.1535,11.945,67.9961,0.2978,0.5276,0.2554,341.2655
16:34:04:697,-0.5025,2.7517,10.9807,67.9865,0.3687,0.9895,0.3116,340.7125
16:34:04:716,-1.1151,3.472,8.9061,67.8227,0.5605,1.3303,0.369,339.9937
16:34:04:738,-1.3232,3.9936,7.1378,66.603,0.6008,1.4342,0.3873,339.2227
16:34:04:755,-1.4094,3.862,7.1617,66.1729,0.2306,1.1434,0.3055,338.6264
16:34:04:780,-1.261,1.4189,12.3996,68.803,-0.9324,-0.2127,0.0184,338.384
16:34:04:798,-1.5386,0.591,14.948,67.5451,-0.9752,-0.6476,0.0159,338.6277
16:34:04:815,-1.4213,0.4594,14.2158,67.0712,-0.4486,-0.6818,0.2236,338.6165
16:34:04:835,-0.3972,0.9308,11.5358,66.603,0.172,-0.2701,0.5902,338.0635
16:34:04:855,0.6461,1.3304,9.6383,67.0068,0.4236,0.3322,0.8895,337.0118
16:34:04:874,1.5194,1.7037,8.6979,67.5671,0.4078,0.8331,1.0043,335.6735
16:34:04:894,1.9669,1.8879,8.2122,66.5117,0.3369,0.9687,0.9164,334.3732
16:34:04:916,1.6917,2.1344,7.9226,66.5074,0.3088,0.7781,0.6952,333.3595
16:34:04:935,1.1079,2.3091,7.4776,67.1612,0.3748,0.4483,0.4692,332.7056
16:34:04:954,0.7489,2.5771,6.4678,67.5055,0.5177,0.1856,0.347,332.2872
16:34:04:975,0.8231,2.8953,5.4509,67.5772,0.6008,0.072,0.3079,331.9243
16:34:04:998,1.1342,3.0413,5.3647,66.0202,0.4969,0.0133,0.2652,331.6349
16:34:05:018,1.1916,3.0197,6.0802,65.9763,0.2905,-0.1113,0.1516,331.4958
16:34:05:035,0.9763,2.9408,7.0349,67.6297,0.1683,-0.2799,0.0013,331.5823
16:34:05:054,0.6939,2.9551,7.456,66.3335,0.2099,-0.4436,-0.1135,331.8463
16:34:05:074,0.6317,3.0987,7.011,66.4222,0.3369,-0.5511,-0.1819,332.236
16:34:05:095,0.5695,3.46,6.4295,67.1859,0.3797,-0.5609,-0.243,332.7064
16:34:05:115,0.5025,3.6873,6.4463,65.2653,0.2086,-0.5523,-0.3359,333.2767
16:34:05:134,0.347,3.6156,7.5661,65.0084,-0.131,-0.5474,-0.4483,333.9659
16:34:05:155,-0.0574,3.4098,9.1741,66.4549,-0.4645,-0.5255,-0.5533,334.7703
16:34:05:177,-0.6126,3.5773,10.1049,66.5554,-0.6539,-0.4827,-0.5949,335.6156
16:34:05:198,-0.4762,3.5031,10.325,65.1776,-0.7858,-0.3251,-0.5497,336.3438
16:34:05:216,1.084,2.1846,11.4784,64.9129,-1.1059,-0.1931,-0.4935,336.9175
16:34:05:237,0.9428,-0.6915,18.9536,65.0663,-1.795,-0.7759,-0.8612,337.5816
16:34:05:257,-0.5695,-0.6724,17.8217,62.7455,-1.0937,-0.848,-0.8942,339.7607
16:34:05:273,-1.1366,0.0598,13.9717,64.4934,-0.1383,-0.5255,-0.5717,340.5132
16:34:05:294,-0.1412,0.5838,11.0692,65.0997,0.3369,-0.1308,-0.1013,340.6552
16:34:05:317,1.4333,1.1007,9.9254,63.9555,0.3479,0.0891,0.2322,340.3481
16:34:05:336,2.2445,1.4118,9.7627,64.9366,0.1866,0.0671,0.2688,339.9778
16:34:05:354,2.1105,1.8233,9.4445,64.3285,0.0974,-0.0294,0.0978,339.8315
16:34:05:379,1.4955,2.2732,8.0662,64.5477,0.1475,0.0317,-0.0842,339.8907
16:34:05:400,0.7346,2.6895,6.6353,64.0866,0.1744,0.2699,-0.2039,340.0503
16:34:05:415,-0.0072,2.9145,6.0084,60.9027,0.0596,0.5374,-0.2687,340.2425
16:34:05:435,-0.5791,2.9073,6.2429,63.4935,-0.1347,0.6779,-0.2834,340.4258
16:34:05:453,-0.9212,2.8666,7.1258,64.0866,-0.28,0.5802,-0.2577,340.6277
16:34:05:475,-0.95,2.814,7.7815,63.269,-0.2678,0.2613,-0.2113,340.8642
16:34:05:495,-0.5456,2.8187,7.9131,64.7592,-0.1127,-0.115,-0.1538,341.1073
16:34:05:516,-0.2417,2.7709,7.3986,61.9402,0.0486,-0.2982,-0.1086,341.3341
16:34:05:534,-0.2465,2.8451,7.3005,61.9459,0.084,-0.176,-0.0781,341.5109
16:34:05:554,-0.2895,2.7829,7.7073,63.6033,0.029,0.0463,-0.05,341.5743
16:34:05:574,-0.1125,2.6608,8.2935,62.7582,-0.0113,0.1489,-0.0195,341.5908
16:34:05:594,0.0861,2.5149,8.5352,62.7455,-0.0015,0.0915,-0.0024,341.5767
16:34:05:632,0.3278,2.2277,8.9994,61.2548,0.0131,-0.0246,-0.006,341.5958
16:34:05:636,0.5934,1.9549,9.7125,61.4063,0.0254,-0.1931,-0.0207,341.6516
16:34:05:657,0.7059,1.8664,10.2796,62.1887,0.0987,-0.3251,-0.0476,341.7619
16:34:05:674,0.4044,2.1727,10.2437,62.0622,0.2526,-0.3116,-0.0561,341.9003
16:34:05:694,1.1151,2.5149,10.1599,61.1487,0.321,0.0732,0.0624,341.92
16:34:05:713,1.0504,2.546,10.9878,60.3593,0.1121,0.1929,0.0099,341.805
16:34:05:735,0.1914,2.3928,11.2965,61.0074,-0.0027,0.3701,-0.1001,341.7502
16:34:05:756,-1.2251,2.5723,11.4808,63.0291,0.007,0.5655,-0.16,341.8149
16:34:05:781,-2.5005,3.149,10.4423,60.3328,0.1463,0.7354,-0.1123,341.846
16:34:05:798,-2.9815,3.5749,9.2961,62.4179,0.1976,0.8221,0.0123,341.746
16:34:05:816,-2.4335,2.9097,9.5354,61.1769,-0.1383,0.6511,0.0929,341.5662
16:34:05:835,-1.6654,1.608,11.8349,59.9453,-0.7431,0.2063,0.0648,341.46
16:34:05:854,-1.2443,0.3087,15.3021,59.8288,-1.2342,-0.3776,-0.0366,341.5719
16:34:05:876,-1.5075,-0.1795,16.6014,59.1025,-1.1585,-0.8113,-0.0695,341.8352
16:34:05:901,-1.2778,-0.1268,14.7326,59.2433,-0.4816,-0.5914,0.1528,341.7824
16:34:05:915,-0.6006,0.5073,11.3851,58.9439,0.1952,0.0512,0.5254,341.2146
16:34:05:933,0.2345,0.9476,8.985,59.6104,0.4261,0.6132,0.7881,340.2065
16:34:05:954,0.9332,1.474,8.1308,60.11,0.3418,0.8893,0.8736,339.0413
16:34:05:981,1.3663,1.7133,8.0566,59.4026,0.2404,0.783,0.7881,337.9628
16:34:05:997,1.4381,1.9334,7.3531,57.9449,0.3259,0.4165,0.595,337.1512
16:34:06:014,1.1246,2.1942,6.0395,58.7425,0.5079,0.0463,0.3837,336.6691
16:34:06:035,0.8495,2.3019,5.2834,59.4261,0.5678,-0.1455,0.209,336.4432
16:34:06:054,0.6006,2.3019,5.5059,61.5276,0.5031,-0.2139,0.0917,336.3693
16:34:06:076,0.4235,2.2708,5.7834,59.6109,0.4273,-0.2713,0.0025,336.438
16:34:06:094,0.2584,2.3091,5.9605,59.0436,0.3845,-0.3153,-0.0647,336.5909
16:34:06:116,0.0838,2.3426,6.6114,59.4985,0.3357,-0.3434,-0.1147,336.8113
16:34:06:134,0.0407,2.3737,7.4728,60.7456,0.3174,-0.3984,-0.1416,337.079
16:34:06:155,0.1627,2.412,8.1619,59.1373,0.431,-0.7942,-0.1905,337.4182
16:34:06:175,0.6389,2.3904,8.8247,59.5485,0.321,-1.0593,-0.2088,338.3916
16:34:06:196,0.7968,2.4239,9.8034,58.7149,0.095,-1.1155,-0.2381,338.9771
16:34:06:217,0.5288,2.8092,10.2461,59.4252,-0.0638,-0.738,-0.232,339.4543
16:34:06:234,0.1938,3.5868,10.3849,61.4279,-0.1689,-0.1553,-0.1685,339.7162
16:34:06:255,0.9117,3.5222,9.9015,59.6797,-0.3998,0.1636,-0.1099,339.7966
16:34:06:277,2.9049,1.8425,10.9807,61.4488,-0.9483,0.1282,-0.1563,339.8188
16:34:06:293,3.6275,-0.079,16.0295,58.1885,-1.7083,-0.2933,-0.3945,340.1458
16:34:06:314,2.5531,-0.8901,18.6281,58.8942,-1.8353,-0.7356,-0.667,340.9374
16:34:06:334,1.0193,-0.3493,16.3741,59.6646,-0.9838,-0.424,-0.6511,341.7037
16:34:06:356,0.4475,0.5599,12.6221,60.4962,-0.0882,0.2051,-0.3518,342.0624
16:34:06:377,0.6772,1.0074,10.1982,60.6888,0.2551,0.5093,-0.0818,342.0685
16:34:06:397,1.5003,1.1294,10.2269,60.3639,0.1463,0.3114,0.0697,341.9107
16:34:06:459,2.1009,1.084,11.007,59.9709,-0.0357,-0.1834,0.0233,341.8676
16:34:06:459,1.9693,1.2012,10.4997,59.8036,0.0486,-0.4326,-0.1331,342.0659
16:34:06:460,1.1821,1.3328,9.0473,58.2834,0.2575,-0.3092,-0.287,342.4381
16:34:06:472,0.067,1.5745,7.6307,60.8627,0.3821,0.0317,-0.3493,342.8646
16:34:06:492,-0.3398,1.8281,6.7071,60.6887,0.4139,0.3774,-0.2724,343.1396
16:34:06:513,-0.3876,2.144,6.0419,60.2447,0.4053,0.5435,-0.1648,343.2813
16:34:06:532,-0.28,2.3234,5.5226,59.2532,0.3723,0.5093,-0.1001,343.3318
16:34:06:552,-0.1747,2.4909,5.458,61.9665,0.321,0.3615,-0.0695,343.3844
16:34:06:574,0.067,2.5268,5.616,60.5131,0.277,0.1416,-0.0549,343.4644
16:34:06:595,0.3326,2.534,5.8313,60.5131,0.2428,-0.0685,-0.0598,343.5792
16:34:06:613,0.5432,2.5914,6.2189,59.0768,0.1316,-0.1601,-0.0867,343.7363
16:34:06:633,0.7537,2.5675,6.9153,59.562,0.0046,-0.0966,-0.0744,343.8714
16:34:06:656,0.8327,2.4096,7.9083,59.9052,-0.109,-0.0343,-0.0769,344.1064
16:34:06:676,0.7729,2.3833,9.2219,59.5077,-0.1554,0.0011,-0.0842,344.216
16:34:06:694,0.4905,2.5292,10.1623,61.1176,-0.0724,-0.0319,-0.0879,344.3591
16:34:06:715,0.6772,2.7446,9.88,61.1065,0.1133,-0.1101,-0.0561,344.4787
16:34:06:735,1.4429,2.6871,9.935,61.5573,0.1219,-0.2298,-0.0353,344.5788
16:34:06:756,1.5864,2.735,11.7607,61.4525,-0.1689,-0.3849,-0.0891,344.7645
16:34:06:777,1.2371,2.8355,12.8327,59.1953,-0.3582,-0.2713,-0.16,345.0239
16:34:06:795,0.9117,2.4861,12.5192,62.508,-0.313,0.1599,-0.1954,345.2146
16:34:06:814,-0.1842,2.479,12.7968,61.1117,-0.3289,0.3994,-0.2345,345.475
16:34:06:833,-0.8471,2.5723,12.6532,62.4728,-0.2923,0.4458,-0.243,345.7519
16:34:06:856,-1.2084,2.3833,11.7512,63.1485,-0.1897,0.3945,-0.2406,346.0552
16:34:06:875,-1.4548,1.9478,11.7272,61.9068,-0.2862,0.2137,-0.2589,346.404
16:34:06:896,-1.261,1.2634,12.9835,62.1771,-0.5281,0.0304,-0.2223,346.7463
16:34:06:914,-1.3065,0.6772,14.4168,61.9072,-0.6197,0.017,-0.138,346.9979
16:34:06:936,-1.596,0.5049,14.266,61.361,-0.3717,0.1819,0.0013,347.0826
16:34:06:957,-1.6367,0.7178,12.2154,62.4633,0.0693,0.3041,0.2065,346.9231
16:34:06:974,-1.2706,0.9284,10.1934,63.7436,0.3503,0.2735,0.424,346.5197
16:34:06:994,-0.5551,1.1342,9.0544,63.6051,0.3931,0.221,0.6048,345.8809
16:34:07:013,0.0694,1.2706,8.4156,64.3195,0.3284,0.2124,0.7062,345.1322
16:34:07:034,0.5264,1.4572,7.9298,62.9748,0.2807,0.2369,0.727,344.3209
16:34:07:056,0.9428,1.6056,7.7432,62.402,0.2893,0.2173,0.6928,343.528
16:34:07:074,1.3759,1.8784,6.3912,63.6235,0.4664,-0.038,0.4631,342.8583
16:34:07:094,1.1342,2.0124,5.9103,65.2049,0.4774,-0.1125,0.3055,342.0073
16:34:07:115,0.7801,2.0961,5.9318,63.1234,0.4334,-0.1296,0.1687,341.8867
16:34:07:136,0.6628,2.2277,5.7619,64.5162,0.4212,-0.1223,0.0905,341.8633
16:34:07:155,0.8853,2.4191,5.4867,61.6489,0.4175,-0.1272,0.0514,341.8711
16:34:07:174,1.1988,2.6584,5.7834,63.7894,0.3345,-0.1797,0.0074,341.9221
16:34:07:195,1.2514,2.8211,6.5587,62.9281,0.2037,-0.2396,-0.0952,342.0931
16:34:07:214,1.0265,2.9886,7.1067,63.5697,0.1463,-0.3055,-0.2345,342.4568
16:34:07:239,1.072,2.9575,7.815,65.0381,0.1048,-0.4314,-0.364,342.9822
16:34:07:254,1.2132,2.7589,8.8534,64.3678,-0.0333,-0.6586,-0.491,343.7173
16:34:07:277,0.9547,2.6201,10.069,64.4369,-0.2153,-0.7454,-0.5888,344.6031
16:34:07:296,0.0598,2.8187,11.5334,63.1315,-0.3485,-0.5499,-0.634,345.5384
16:34:07:312,-0.0766,3.0006,12.4594,63.7427,-0.4144,-0.3165,-0.5558,346.3263
16:34:07:334,2.0506,1.73,13.2419,64.5087,-0.5452,-0.2933,-0.4202,346.8269
16:34:07:353,3.9434,0.0431,15.8022,64.1727,-0.8787,-0.5988,-0.469,347.3483
16:34:07:373,3.2566,-0.8159,18.8315,62.0462,-0.9911,-0.804,-0.7171,348.2558
16:34:07:393,1.4859,-0.7131,17.9246,62.9722,-0.3815,-0.6232,-0.8405,349.3282
16:34:07:413,0.6748,0.0598,13.7731,63.3944,0.4896,-0.3019,-0.6682,350.1985
16:34:07:434,0.8877,0.5862,10.4279,65.3778,0.8671,-0.0319,-0.3872,350.6649
16:34:07:459,1.5601,0.9452,9.5569,61.0264,0.6826,0.1954,-0.1722,350.8488
16:34:07:476,1.6726,1.7707,8.8343,61.0561,0.073,0.0805,-0.188,350.9833
16:34:07:494,0.9978,1.9549,7.8126,62.4406,-0.0492,0.1367,-0.2895,351.2558
16:34:07:515,0.28,2.0626,7.1115,64.3356,-0.1567,0.3542,-0.3371,351.633
16:34:07:539,-0.3422,2.1512,6.8937,64.4843,-0.2446,0.5851,-0.32,351.8794
16:34:07:556,-0.9739,2.2684,6.7071,62.4037,-0.2348,0.7158,-0.2687,352.1102
16:34:07:577,-1.3998,2.3378,6.5013,62.4037,-0.1396,0.6352,-0.2027,352.3261
16:34:07:596,-1.742,2.3952,6.2022,61.1014,-0.0357,0.309,-0.1257,352.566
16:34:07:613,-1.6152,2.4096,5.9127,63.6986,0.0046,-0.0966,-0.0195,352.7961
16:34:07:635,-0.9308,2.3976,6.0897,63.0448,-0.0528,-0.3556,0.1259,352.871
16:34:07:654,-0.5001,2.4048,6.53,61.9749,-0.1432,-0.3642,0.2298,352.8196
16:34:07:677,-0.189,2.4359,6.9081,62.477,-0.186,-0.2041,0.2896,352.6757
16:34:07:694,-0.2728,2.5077,7.3172,63.1251,-0.153,-0.005,0.3165,352.4461
16:34:07:713,-0.5384,2.7589,7.3125,63.7957,-0.0333,0.1453,0.3397,352.1615
16:34:07:734,-0.7801,3.2877,6.7286,62.6341,0.1439,0.287,0.4057,351.7928
16:34:07:768,-1.0433,3.8381,5.9868,61.0312,0.2636,0.4324,0.4802,351.3586
16:34:07:775,-1.2323,4.2879,6.3362,60.1874,0.1903,0.4788,0.5364,350.8345
16:34:07:794,-1.2586,4.4124,8.0064,63.0457,-0.037,0.353,0.5657,350.2839
16:34:07:812,-1.048,4.13,10.0929,63.0103,-0.2397,0.0573,0.5608,349.8074
16:34:07:833,-0.5791,3.539,12.0383,63.1304,-0.3619,-0.3361,0.5523,349.4186
16:34:07:856,-0.469,3.0006,14.455,62.4352,-0.4768,-0.5841,0.5608,349.0809
16:34:07:875,-0.1531,2.2253,16.2353,60.4313,-0.4584,-0.4521,0.6085,348.6403
16:34:07:894,0.1531,1.2921,17.1422,61.7776,-0.2642,-0.0661,0.7013,347.9729
16:34:07:920,0.3183,0.5121,17.0848,61.7526,-0.0076,0.2014,0.7527,347.185
16:34:07:937,-0.3039,0.4762,15.7304,62.4911,0.2551,0.2589,0.7355,345.6061
16:34:07:956,-1.0289,1.1318,12.28,61.662,0.4469,0.6743,0.815,344.6512
16:34:07:975,-0.7777,1.017,11.787,62.2893,0.2624,0.7683,0.8602,343.6064
16:34:07:992,-0.4427,0.8136,11.7224,60.903,0.0449,0.684,0.8589,342.5378
16:34:08:013,-0.1795,0.5886,11.4018,60.9984,-0.0662,0.5594,0.8394,341.5022
16:34:08:035,-0.0048,0.4834,11.05,60.9984,-0.0662,0.5276,0.8406,340.4699
16:34:08:057,0.1747,0.3876,10.3849,61.8287,0.0412,0.5668,0.8748,339.3825
16:34:08:073,0.3565,0.5623,9.1358,62.4278,0.2465,0.6376,0.9286,338.1751
16:34:08:093,0.4786,0.9021,7.6044,59.8719,0.4297,0.6889,0.9787,336.9241
16:34:08:115,0.6891,1.1892,6.4774,60.6736,0.4908,0.6828,0.9958,335.6337
16:34:08:135,0.737,1.3974,6.0275,59.2289,0.4578,0.6083,0.9677,334.3881
16:34:08:153,0.6437,1.5362,5.7404,60.1598,0.3833,0.4079,0.8968,333.2903
16:34:08:173,0.8542,1.5434,6.2118,61.1461,0.2893,0.1343,0.8089,332.3186
16:34:08:193,0.9332,1.5506,6.7717,57.451,0.2318,-0.176,0.6952,331.5416
16:34:08:213,1.0552,1.675,6.8315,59.683,0.2416,-0.4228,0.5706,330.969
16:34:08:233,1.2754,1.8473,6.6209,59.1183,0.2245,-0.5426,0.4765,330.5207
16:34:08:256,1.7755,1.8999,6.8291,58.5224,0.1023,-0.5169,0.3861,330.1373
16:34:08:274,2.3115,1.9119,7.4632,59.6701,-0.0748,-0.4546,0.2408,329.8537
16:34:08:292,2.3569,1.864,8.2409,57.6537,-0.2226,-0.4302,0.0099,329.8261
16:34:08:312,1.7515,1.7252,8.674,57.6319,-0.2703,-0.4118,-0.2626,330.0909
16:34:08:334,1.0385,1.6774,8.7099,58.423,-0.2397,-0.4094,-0.4678,330.6147
16:34:08:356,0.6054,1.8257,8.138,57.424,-0.1786,-0.3874,-0.5643,331.2685
16:34:08:373,0.2345,2.1392,7.8485,57.9562,-0.2299,-0.3116,-0.6034,331.9712
16:34:08:391,0.0502,2.3857,7.7695,57.2701,-0.3729,-0.1369,-0.6242,332.6979
16:34:08:414,-0.2895,2.2851,8.9659,55.9315,-0.6001,-0.0526,-0.6841,333.4877
16:34:08:434,-0.6245,1.6439,12.7825,55.2331,-0.9471,-0.5364,-0.8087,334.3941
16:34:08:455,-0.4259,1.2371,13.6367,55.8195,-0.9031,-0.5633,-0.7549,336.3616
16:34:08:543,0.0048,0.9332,13.73,54.8682,-0.7785,-0.1589,-0.6596,337.0983
16:34:08:543,-0.3039,0.8112,13.7468,55.4418,-0.6783,0.3505,-0.6132,337.7014
16:34:08:544,-1.2467,0.8566,13.9765,54.2572,-0.5953,0.5545,-0.6193,338.3735
16:34:08:544,-1.7611,0.9643,13.5673,53.4966,-0.4095,0.5142,-0.5387,338.9755
16:34:08:556,-1.742,0.9404,12.8758,52.7723,-0.2202,0.3554,-0.386,339.4317
16:34:08:572,-1.2227,0.8447,12.6245,54.1293,-0.1432,0.2051,-0.2064,339.6629
16:34:08:595,-0.5862,0.7681,12.079,54.2901,-0.1335,0.1355,-0.0378,339.6884
16:34:08:615,-0.0359,0.8614,11.6028,51.4262,-0.1481,0.1526,0.0978,339.5117
16:34:08:633,0.4307,0.8877,11.4688,52.6868,-0.1261,0.2161,0.2017,339.178
16:34:08:654,0.414,1.1821,10.27,51.9987,0.0473,0.3334,0.2505,338.7953
16:34:08:674,0.1077,1.6606,8.528,51.6118,0.3027,0.4922,0.2811,338.3968
16:34:08:699,-0.1316,2.0387,6.7717,52.4466,0.4872,0.5997,0.3067,337.9598
16:34:08:716,-0.3374,2.2971,5.47,52.4733,0.5421,0.6474,0.3397,337.4774
16:34:08:734,-0.4403,2.4694,5.1063,53.9568,0.4627,0.5472,0.3666,337.0044
16:34:08:752,-0.39,2.3665,5.4054,52.1869,0.3064,0.2662,0.3764,336.5467
16:34:08:772,-0.3183,2.3785,6.0491,51.3318,0.2123,-0.0404,0.3764,336.1138
16:34:08:792,-0.0407,2.3545,6.9942,51.2357,0.2111,-0.3153,0.3947,335.7017
16:34:08:814,0.079,2.3474,7.791,51.6721,0.2966,-0.4876,0.3898,335.319
16:34:08:833,0.2943,2.2588,8.6931,50.8257,0.4505,-0.5255,0.3764,334.9174
16:34:08:854,0.7155,2.132,8.9109,49.3474,0.646,-0.5022,0.3531,334.5363
16:34:08:873,0.9332,2.0913,8.9037,50.3897,0.7926,-0.4473,0.2896,334.2028
16:34:08:898,0.7944,2.4167,9.5641,48.5293,0.7169,-0.1663,0.1369,333.8157
16:34:08:916,1.0983,2.3809,10.2437,50.2981,0.6167,0.0231,0.1076,333.517
16:34:08:938,1.6606,2.211,10.9304,49.6909,0.5092,0.1123,0.0624,333.186
16:34:08:951,1.9884,2.1942,11.732,49.4091,0.4151,0.155,-0.0109,332.8755
16:34:08:973,1.3639,2.7159,10.9424,49.2794,0.464,0.4043,-0.1074,332.6853
16:34:08:995,0.1149,3.2973,9.1023,47.8536,0.6081,0.9724,-0.1624,332.4507
16:34:09:014,-1.2706,4.0941,8.2433,50.1199,0.5177,1.3939,-0.177,332.2137
16:34:09:034,-2.077,4.386,8.5089,50.2257,0.2135,1.4024,-0.1819,331.9983
16:34:09:053,-2.1751,3.7328,9.6909,47.5919,-0.2605,0.8746,-0.2333,331.9607
16:34:09:072,-1.4309,2.5723,12.524,48.5561,-0.7944,0.0182,-0.3029,332.1756
16:34:09:094,-0.7107,0.8853,15.9482,46.4252,-1.1805,-0.8016,-0.4019,332.6165
16:34:09:114,-0.8806,-0.0574,17.1637,45.9492,-1.1145,-1.1375,-0.4642,333.1692
16:34:09:132,-1.1486,-0.0287,14.9216,45.9493,-0.5549,-0.5487,-0.2687,333.422
16:34:09:153,-0.8662,0.6245,11.7512,46.3956,-0.0174,0.4886,0.1247,333.0156
16:34:09:173,-0.5432,1.328,9.545,46.3956,0.2123,1.2448,0.4509,332.0423
16:34:09:198,-0.0574,1.7611,8.0303,46.3956,0.2844,1.4464,0.6085,330.8449
16:34:09:214,0.2465,2.1631,6.7621,46.3956,0.3235,1.1495,0.6207,329.7257
16:34:09:232,0.5767,2.3809,6.1878,46.3956,0.3222,0.623,0.5572,328.8124
16:34:09:252,0.8112,2.4957,5.8528,46.3956,0.3161,0.1391,0.457,328.1404
16:34:09:272,0.9954,2.5484,5.4867,46.3956,0.3406,-0.1443,0.3373,327.6766
16:34:09:300,0.9547,2.5819,5.4365,46.3956,0.321,-0.308,0.2175,327.3978
16:34:09:315,0.8495,2.5579,6.0491,46.3956,0.2404,-0.4179,0.0831,327.2921
16:34:09:335,0.615,2.5412,6.2907,41.3411,0.2074,-0.4937,-0.0463,327.3587
16:34:09:355,0.4498,2.6728,6.676,41.6065,0.2111,-0.5951,-0.2198,327.8817
16:34:09:381,0.402,2.9527,6.5252,41.6065,0.2135,-0.6391,-0.3041,328.2972
16:34:09:409,0.1842,3.259,6.6257,43.4903,0.1426,-0.6317,-0.4324,328.8693
16:34:09:418,-0.0096,3.3284,7.3627,42.5043,-0.0382,-0.6012,-0.5815,329.5916
16:34:09:432,-0.201,2.9097,8.8223,41.7888,-0.3301,-0.6427,-0.7305,330.4348
16:34:09:452,-0.28,2.2804,11.1649,40.0116,-0.671,-0.7295,-0.8172,331.3571
16:34:09:473,-1.0457,2.3737,13.7898,41.6065,-0.864,-0.644,-0.8356,332.321
16:34:09:495,-0.9069,2.3474,14.2516,40.8652,-0.7052,-0.2835,-0.7525,333.055
16:34:09:512,0.6221,1.8161,13.0002,38.6087,-0.5097,-0.0624,-0.6682,333.5447
16:34:09:533,2.0985,-0.0407,14.5914,38.0726,-0.781,-0.3116,-0.7818,334.022
16:34:09:553,1.2658,-1.0289,18.81,39.1614,-1.1976,-0.7087,-1.0408,334.8669
16:34:09:573,0.4116,-1.5888,19.5996,36.4611,-0.8946,-0.8394,-1.0909,335.858
16:34:09:594,0.1077,-1.0217,16.1228,37.9062,0.018,-0.5438,-0.8331,336.638
16:34:09:613,0.9356,-0.3757,11.9928,38.8493,0.6362,-0.2225,-0.4507,336.8963
16:34:09:632,1.8688,0.2752,10.3274,36.4737,0.6411,0.0329,-0.1832,336.7381
16:34:09:653,2.1775,0.9691,9.6287,37.1422,0.4554,0.1673,-0.0952,336.4864
16:34:09:677,1.9262,1.5769,8.2935,38.0813,0.4029,0.2332,-0.138,336.3265
16:34:09:693,1.4261,2.0889,6.8459,36.8272,0.4518,0.3053,-0.2149,336.2697
16:34:09:719,0.6365,2.3833,5.5753,35.8709,0.4847,0.3615,-0.2931,336.3623
16:34:09:732,0.0191,2.5627,4.6875,37.5015,0.4701,0.3603,-0.3249,336.5888
16:34:09:752,-0.4068,2.7302,4.118,36.8272,0.4053,0.2186,-0.2992,336.8436
16:34:09:777,-0.3374,2.8451,3.9075,35.3853,0.2819,-0.0612,-0.2516,337.1227
16:34:09:792,0.0287,2.9384,4.13,36.9323,0.1255,-0.3459,-0.2284,337.4363
16:34:09:817,0.2991,2.8283,5.5777,36.4737,-0.1444,-0.5572,-0.3249,338.2973
16:34:09:850,0.0909,2.8044,6.2859,35.7062,-0.2129,-0.4803,-0.3725,338.7813
16:34:09:853,-0.0215,2.9432,6.7334,34.4758,-0.2324,-0.3104,-0.3664,339.2415
16:34:09:872,-0.2417,3.1202,7.1234,34.814,-0.2446,-0.1003,-0.3322,339.5943
16:34:09:892,-0.5049,3.1322,8.0686,34.8287,-0.2972,0.0414,-0.309,339.9567
16:34:09:913,-1.0289,3.1346,9.7125,33.6,-0.335,0.017,-0.287,340.3313
16:34:09:933,-1.5529,3.4457,10.4662,34.814,-0.2165,-0.1333,-0.2284,340.7068
16:34:09:953,-1.4955,3.8453,9.7531,34.1449,0.0193,-0.1846,-0.1001,341.0051
16:34:09:975,-0.5527,3.7208,9.4875,34.814,0.0254,-0.1027,0.0208,341.0525
16:34:09:992,0.2584,3.2471,11.2965,32.6606,-0.3179,-0.0478,0.0269,340.9932
16:34:10:013,-0.3015,2.869,13.8999,33.3919,-0.6172,-0.0038,-0.0976,341.0915
16:34:10:031,-1.6774,2.8881,14.4407,34.1479,-0.4426,0.287,-0.1477,341.2863
16:34:10:051,-2.1918,3.1872,12.4642,35.5166,0.0669,0.7598,0.0147,341.2508
16:34:10:071,-2.5747,3.6897,10.9926,34.7502,0.365,0.9919,0.1907,341.0216
16:34:10:096,-2.9025,4.1659,10.5069,34.0633,0.3772,0.9174,0.2456,340.802
16:34:10:115,-1.9621,3.3667,10.3011,34.6009,0.1341,0.4702,0.2102,340.6135
16:34:10:131,-0.3829,1.7755,13.3089,33.6868,-0.511,-0.3373,0.0746,340.4876
16:34:10:151,0.7178,-0.4475,17.6806,32.6313,-1.1133,-0.953,-0.1661,340.6029
16:34:10:177,0.7226,-1.5147,17.6495,31.6227,-0.9324,-0.8358,-0.3237,340.9094
16:34:10:195,0.1962,-1.3041,14.68,34.2677,-0.3851,-0.0441,-0.2577,341.0332
16:34:10:212,-0.2153,-1.0457,13.395,32.4921,-0.1762,0.7354,-0.0744,340.8808
16:34:10:233,-0.5982,-0.8399,13.3519,32.7518,-0.0553,1.1483,0.1003,340.4694
16:34:10:253,-0.6126,-0.4666,11.7679,32.4994,0.387,1.1349,0.2994,339.878
16:34:10:273,0.2489,0.7131,6.3745,32.5281,1.3057,0.3762,0.6012,338.3078
16:34:10:292,0.67,1.3161,4.7234,31.4046,1.3118,0.1526,0.6586,337.4512
16:34:10:313,0.9858,1.7252,4.0774,33.2592,1.0687,0.1355,0.6439,336.6312
16:34:10:331,1.072,1.8568,4.3286,33.9718,0.7449,0.2039,0.5767,335.8635
16:34:10:353,0.7777,1.8377,5.2762,33.6868,0.4713,0.2088,0.4606,335.2081
16:34:10:374,0.3613,1.8999,6.0515,34.6095,0.3748,0.0182,0.3421,334.793
16:34:10:398,0.3493,1.9501,5.9629,33.8792,0.4359,-0.3006,0.2713,334.571
16:34:10:415,0.4355,2.2158,5.4461,33.297,0.4994,-0.4925,0.2395,334.4512
16:34:10:431,0.6341,2.5268,5.3767,33.2508,0.4566,-0.4375,0.2175,334.3102
16:34:10:452,0.6437,2.8666,5.6518,34.327,0.3626,-0.3153,0.1503,334.1952
16:34:10:475,0.4379,3.07,5.7811,35.4746,0.2465,-0.3397,0.0099,334.3349
16:34:10:493,0.5312,2.9432,6.8842,34.789,0.0315,-0.5768,-0.1538,334.7293
16:34:10:513,0.6437,2.7948,8.1428,32.6971,-0.2544,-0.8907,-0.2895,335.3389
16:34:10:532,0.5838,2.723,9.7364,34.2821,-0.5061,-0.9225,-0.3921,336.0527
16:34:10:553,-0.1555,3.0628,10.8395,35.3835,-0.6099,-0.5609,-0.4642,336.7563
16:34:10:660,-0.268,3.0915,11.3109,35.4085,-0.6576,-0.209,-0.463,337.407
16:34:10:663,0.7968,2.5508,12.5408,34.8366,-0.8347,-0.1223,-0.4263,337.8867
16:34:10:663,2.2588,1.3448,14.3426,33.4893,-1.0791,-0.3177,-0.4642,338.2671
16:34:10:663,2.1631,0.3541,16.5153,31.514,-1.2208,-0.5291,-0.6242,338.8757
16:34:10:664,0.5886,0.1172,17.3264,34.4251,-0.9031,-0.3251,-0.7195,339.626
16:34:10:682,-0.7681,0.7107,14.601,30.1782,-0.1078,0.1746,-0.5533,340.2603
16:34:10:691,-0.5671,1.3567,10.9304,32.2321,0.5141,0.4018,-0.2076,340.408
16:34:10:711,0.2465,1.6534,9.3918,32.7783,0.5446,0.2955,0.0502,340.3248
16:34:10:731,0.9308,1.7946,9.6766,31.4701,-0.0357,-0.2371,0.0758,340.1535
16:34:10:755,0.8112,2.0052,9.3296,32.2642,-0.0919,-0.1968,0.0441,340.042
16:34:10:773,0.5073,2.2134,8.4275,32.388,-0.0272,-0.0038,0.0294,340.0328
16:34:10:791,-0.0239,2.3928,7.4249,33.1688,0.0437,0.1624,0.005,340.0891
16:34:10:811,-0.5336,2.4885,6.9057,33.1688,0.0461,0.2173,-0.0024,340.211
16:34:10:831,-0.7968,2.6106,6.8028,34.0665,0.0131,0.1501,0.0269,340.3463
16:34:10:852,-0.6197,2.6154,6.9033,34.6973,-0.0186,-0.016,0.0783,340.4264
16:34:10:875,-0.4164,2.6632,6.9176,32.9132,-0.0223,-0.1431,0.1174,340.4973
16:34:10:894,-0.2536,2.6776,7.2287,33.8469,-0.0308,-0.1504,0.1418,340.5236
16:34:10:912,-0.28,2.7422,7.4178,32.4319,-0.0174,-0.0649,0.1626,340.5208
16:34:10:931,-0.2919,2.9001,7.535,33.2969,0.018,0.0145,0.1955,340.4268
16:34:10:956,-0.189,3.0389,7.5565,34.1488,0.0412,0.0353,0.2346,340.3424
16:34:10:978,0.0766,3.0987,7.882,32.4929,0.0315,0.0072,0.264,340.301
16:34:11:000,0.3374,3.0126,8.6022,32.4007,-0.0088,-0.0246,0.2676,340.206
16:34:11:010,0.402,2.814,9.3966,33.8156,-0.0113,-0.0502,0.2469,340.0909
16:34:11:031,0.2177,2.7781,10.4255,32.9548,0.0559,-0.0991,0.2261,340.1322
16:34:11:055,0.2847,2.8427,10.6481,32.8863,0.2196,-0.1516,0.242,340.1817
16:34:11:073,0.6939,2.9647,10.1527,33.7148,0.3919,-0.1626,0.2664,340.0373
16:34:11:094,1.651,2.7111,10.2963,32.5124,0.3345,-0.242,0.2481,339.8826
16:34:11:111,1.8425,2.5436,11.7679,33.63,0.0571,-0.3092,0.1332,339.7974
16:34:11:131,1.1725,2.7685,12.9571,30.71,-0.0907,-0.121,-0.0011,339.8746
16:34:11:154,0.5192,2.9456,11.8445,33.2969,0.0791,0.3676,-0.0329,339.8457
16:34:11:173,-0.1771,2.7733,11.3922,32.4907,0.1817,0.7598,-0.0195,339.7914
16:34:11:193,-2.4048,3.2016,10.5858,32.173,0.3736,0.783,0.0245,339.8022
16:34:11:212,-2.6034,3.6347,8.7505,33.0641,0.5373,0.6523,0.1345,339.8122
16:34:11:235,-1.7444,3.2255,8.3964,32.9433,0.2746,0.425,0.2346,339.6936
16:34:11:252,-0.5815,2.1033,10.6935,33.1089,-0.3143,0.0976,0.2212,339.5234
16:34:11:271,-0.5216,0.9763,14.0052,34.6346,-0.7529,-0.242,0.0795,339.5437
16:34:11:291,-0.9739,0.4451,14.6106,33.2546,-0.6234,-0.3727,0.005,339.7114
16:34:11:312,-0.9906,0.5695,12.6437,33.9155,-0.1017,-0.0954,0.1516,339.674
16:34:11:331,-0.3661,0.8829,10.7414,33.8705,0.2538,0.3493,0.424,339.1973
16:34:11:354,0.4977,1.261,9.5617,33.3123,0.3662,0.6987,0.6415,338.3579
16:34:11:372,1.0648,1.675,8.5974,33.6659,0.3907,0.7977,0.7087,337.3636
16:34:11:392,1.3663,2.0626,7.8437,33.8544,0.3809,0.6584,0.6415,336.4195
16:34:11:410,1.5769,2.4263,7.2359,33.3677,0.3809,0.4458,0.5401,335.7003
16:34:11:431,1.7157,2.5292,6.7454,34.4334,0.4029,0.2723,0.4142,335.1373
16:34:11:453,1.584,2.6321,6.317,32.9056,0.4395,0.1624,0.264,334.7714
16:34:11:473,1.3328,2.5603,5.7978,34.3187,0.4591,0.0426,0.1186,334.6491
16:34:11:493,1.1151,2.5508,5.4485,34.2666,0.4187,-0.1259,-0.0036,334.7261
16:34:11:511,0.9763,2.3857,5.7404,33.8544,0.2917,-0.3165,-0.1038,334.9888
16:34:11:534,0.9308,2.3354,6.1352,34.6346,0.1927,-0.4693,-0.1746,335.3985
16:34:11:553,0.9787,2.4,6.5611,32.6375,0.1634,-0.5829,-0.2174,335.9074
16:34:11:573,1.0146,2.5196,6.999,34.2666,0.1475,-0.6867,-0.2601,336.407
16:34:11:592,1.0816,2.6465,7.7097,34.8202,0.1231,-0.7991,-0.331,337.039
16:34:11:613,1.0074,2.747,8.3677,35.63,0.0596,-0.986,-0.4483,337.9442
16:34:11:635,1.0457,2.857,9.2578,35.813,-0.0834,-1.1754,-0.5705,339.0683
16:34:11:652,0.9739,3.259,11.3372,36.3436,-0.4926,-0.7222,-0.7085,340.2235
16:34:11:674,0.993,3.5653,12.0359,35.9911,-0.6172,-0.1259,-0.7452,341.1776
16:34:11:690,1.6176,3.1992,12.3063,33.1607,-0.7785,0.2735,-0.8368,342.9586
16:34:11:717,2.1488,1.7659,14.2301,33.5606,-1.112,0.199,-1.0836,344.0072
16:34:11:734,1.0983,0.1268,17.6973,32.7338,-1.4248,-0.2188,-1.4477,345.6033
16:34:11:751,-1.4572,-0.3685,18.4367,34.2556,-1.1267,-0.4045,-1.6346,347.6529
16:34:11:770,-3.1442,0.2895,14.9216,32.2184,-0.1481,-0.0184,-1.3389,349.4518
16:34:11:790,-2.3163,1.3735,10.1216,33.2617,0.6998,0.4214,-0.667,350.4017
16:34:11:810,-0.6365,2.1583,7.2526,33.0989,0.9294,0.6303,-0.1319,350.5899
16:34:11:837,0.7442,2.6848,6.1352,33.1885,0.6436,0.5228,0.0551,350.5147
16:34:11:851,1.1892,2.735,6.3003,32.4489,0.1194,0.1391,-0.0915,350.6157
16:34:11:872,0.5264,2.4503,7.9226,34.7925,-0.3485,-0.1773,-0.3652,351.1928
16:34:11:892,-0.6174,2.1823,8.6979,33.909,-0.4621,-0.2041,-0.5375,352.0233
16:34:11:911,-1.8042,2.345,7.8987,33.6136,-0.2471,-0.0331,-0.4984,352.8582
16:34:11:934,-2.0195,2.7637,6.8291,32.8405,-0.0406,0.0988,-0.2785,353.4684
16:34:11:953,-1.2634,3.0532,6.5133,34.4014,-0.0113,0.0866,-0.0182,353.7616
16:34:11:971,-0.6269,3.1681,6.8554,33.6349,-0.087,-0.0465,0.1186,353.8599
16:34:11:993,-0.2153,3.1896,7.7097,32.8281,-0.1603,-0.176,0.1357,353.9565
16:34:12:037,-0.335,3.1585,8.6644,33.483,-0.1591,-0.2506,0.1003,354.1608
16:34:12:038,-0.5719,3.1872,8.8391,31.0136,-0.0186,-0.2481,0.0856,354.3647
16:34:12:052,-0.7059,3.46,8.2385,33.2617,0.1793,-0.132,0.1357,354.4625
16:34:12:076,-0.4427,3.6897,8.2672,34.1263,0.2135,0.0732,0.2554,354.185
16:34:12:091,-0.3661,3.6778,8.5711,33.6349,0.1817,0.1111,0.2688,354.2406
16:34:12:113,-0.5623,3.5629,8.7242,34.558,0.1952,0.1477,0.2578,353.9786
16:34:12:132,-0.8758,3.3021,9.3607,32.5402,0.2074,0.1673,0.2566,353.8604
16:34:12:149,-0.8758,3.2207,10.1073,34.3412,0.2526,0.0927,0.3055,353.726
16:34:12:169,-0.2608,3.0748,10.2724,33.2617,0.3919,-0.0111,0.3898,353.4583
16:34:12:189,0.2967,3.2949,10.0307,34.6459,0.5153,-0.0563,0.4301,353.1385
16:34:12:209,0.6413,3.8022,9.8704,33.4756,0.4505,-0.0172,0.3873,352.8412
16:34:12:229,1.2586,3.4505,10.0235,33.97,0.1768,0.166,0.264,352.5585
16:34:12:251,0.548,2.4024,11.744,32.1112,-0.2581,0.32,0.0208,352.5393
16:34:12:272,-1.194,1.9454,13.7276,34.005,-0.5256,0.3872,-0.2003,352.8132
16:34:12:291,-3.0006,1.9741,13.1629,32.9165,-0.2715,0.5179,-0.2052,353.1391
16:34:12:312,-3.2088,2.388,10.538,35.4939,0.1658,0.7219,0.0379,353.138
16:34:12:330,-2.6656,2.3019,9.4828,33.8596,0.1304,0.7513,0.2786,352.9525
16:34:12:349,-1.6295,1.6152,11.3348,35.8439,-0.3179,0.568,0.3898,352.5827
16:34:12:370,-1.4524,1.084,12.8183,33.5463,-0.5672,0.3627,0.3825,352.2565
16:34:12:391,-1.8233,0.9571,12.1747,33.5463,-0.3876,0.3554,0.391,351.9044
16:34:12:412,-1.9573,1.0193,10.5906,33.8966,-0.1041,0.4653,0.5217,351.4048
16:34:12:430,-1.4381,1.1342,9.9254,34.2729,0.0107,0.535,0.7404,350.6414
16:34:12:449,-0.5575,1.2036,9.8919,34.035,0.0425,0.4837,0.931,349.616
16:34:12:470,-0.0072,1.3663,9.6718,34.4772,0.1536,0.3493,1.0141,348.4969
16:34:12:489,0.4331,1.6152,8.7817,35.4982,0.3589,0.2002,1.0349,347.3933
16:34:12:510,0.9404,1.8401,7.8652,35.1598,0.5336,0.0634,1.0324,346.2304
16:34:12:529,1.3448,2.1009,7.0684,34.4691,0.6155,-0.027,0.9946,345.1423
16:34:12:549,1.5338,2.3713,6.5396,34.3276,0.6203,-0.0429,0.9151,344.2104
16:34:12:574,1.9143,2.6106,6.1185,34.314,0.5153,-0.1137,0.6647,342.5663
16:34:12:588,1.8664,2.7302,6.2596,35.728,0.4371,-0.2884,0.4875,342.0826
16:34:12:610,1.7085,2.881,6.2094,34.0316,0.3845,-0.49,0.3067,341.9072
16:34:12:629,1.7539,3.0461,6.0299,35.0894,0.3467,-0.6391,0.1516,341.9752
16:34:12:648,1.8401,3.1322,6.0299,36.0544,0.2367,-0.7564,-0.0109,342.2786
16:34:12:696,1.7157,3.0748,6.7573,34.4546,0.0034,-0.8431,-0.2076,342.7841
16:34:12:696,1.3448,2.8403,8.0423,34.1143,-0.269,-0.8651,-0.4043,343.5117
16:34:12:713,0.8853,2.5555,9.1478,35.8542,-0.4548,-0.7796,-0.5338,344.3716
16:34:12:729,0.1125,2.8499,9.8513,34.704,-0.5073,-0.6036,-0.579,345.2632
16:34:12:749,0.0048,3.2877,9.6,33.8187,-0.4963,-0.4265,-0.5191,346.0641
16:34:12:769,0.792,3.2016,8.9563,36.0024,-0.627,-0.2921,-0.4409,346.6699
16:34:12:792,1.6247,2.1823,10.9687,34.546,-1.1169,-0.2371,-0.5008,347.2446
16:34:12:809,1.1916,1.2179,15.4935,34.5024,-1.6667,-0.3666,-0.6828,348.0791
16:34:12:829,0.4881,0.6102,18.8746,32.808,-1.6044,-0.5413,-0.7782,349.0843
16:34:12:849,-0.4068,0.658,18.1687,31.1705,-0.8139,-0.5181,-0.6755,349.9961
16:34:12:872,-0.457,1.017,14.7518,31.4589,0.0828,-0.3043,-0.3982,350.5545
16:34:12:896,0.3996,1.3256,12.2584,34.184,0.4786,-0.0832,-0.0818,350.6623
16:34:12:912,1.0935,1.5649,11.5454,34.1757,0.4456,0.0927,0.1027,350.5588
16:34:12:929,0.9021,2.0028,10.2197,33.2621,0.4383,0.2381,0.121,350.3838
16:34:12:949,0.3493,2.4622,8.2385,34.1757,0.5446,0.4238,0.0795,350.2547
16:34:12:968,-0.0909,2.869,6.5252,33.5595,0.5788,0.5851,0.0538,350.125
16:34:12:991,-0.5623,3.058,5.5968,34.806,0.4505,0.5753,0.0367,350.0322
16:34:13:012,-0.9691,3.2423,5.884,33.7544,-0.0186,0.199,0.0587,350.0278
16:34:13:033,-0.8949,3.3045,6.53,33.1469,-0.1444,0.0524,0.1051,349.9649
16:34:13:049,-0.9404,3.3763,6.7669,34.3079,-0.1615,-0.0074,0.1491,349.9464
16:34:13:070,-0.8566,3.4576,6.9129,34.9493,-0.142,-0.0233,0.2004,349.8638
16:34:13:090,-0.7489,3.5342,7.1737,35.4747,-0.1591,-0.0331,0.2591,349.716
16:34:13:109,-0.5862,3.5294,7.7049,34.8186,-0.2031,-0.0148,0.3153,349.4988
16:34:13:129,-0.3446,3.4959,8.5184,34.8186,-0.2226,-0.0025,0.369,349.2193
16:34:13:148,-0.1196,3.4122,9.2554,35.5941,-0.175,-0.0221,0.4069,348.8918
16:34:13:169,0.0814,3.2279,9.7603,33.9353,-0.0516,-0.06,0.4277,348.5212
16:34:13:188,0.2177,3.0915,10.1121,35.2126,0.1243,-0.0795,0.4338,348.1429
16:34:13:212,0.1771,2.9551,10.2413,34.2845,0.3015,-0.0954,0.4326,347.7523
16:34:13:230,0.2704,2.9216,10.2987,33.8142,0.4285,-0.0991,0.4533,347.3734
16:34:13:250,0.5264,2.8833,10.2341,34.3846,0.4969,-0.0343,0.4924,346.8652
16:34:13:269,0.8901,3.0126,9.9015,32.4325,0.4982,0.0634,0.5132,346.2831
16:34:13:290,0.7992,3.6251,9.923,35.1871,0.3723,0.1905,0.4937,345.6996
16:34:13:314,0.8686,3.5151,10.0929,34.1136,0.15,0.3676,0.4338,345.0942
16:34:13:330,0.7801,2.6249,11.1912,34.2137,-0.1701,0.3578,0.3092,344.6178
16:34:13:350,0.0909,1.6032,13.4381,35.8307,-0.4658,0.1184,0.1662,344.3681
16:34:13:369,-1.4142,1.3854,13.9573,34.2072,-0.3069,-0.0368,0.1296,344.2915
16:34:13:408,-2.3019,1.785,11.1912,35.4926,0.3259,0.1856,0.3263,343.2557
16:34:13:417,-0.5695,2.6943,7.6738,34.1768,0.4823,0.5044,0.8577,342.1494
16:34:13:430,0.7346,2.3569,9.2698,33.2745,-0.0724,0.331,0.8638,341.0045
16:34:13:451,0.804,1.8185,10.7462,34.1739,-0.4486,0.1844,0.6696,340.132
16:34:13:471,0.323,1.4764,11.5908,35.6754,-0.5085,0.155,0.4814,339.5363
16:34:13:488,0.0072,1.3974,11.2678,35.5432,-0.3656,0.2137,0.424,339.0067
16:34:13:516,0.134,1.3783,10.459,34.9389,-0.1994,0.3139,0.4875,338.3486
16:34:13:530,0.7513,1.2706,10.4279,36.346,-0.153,0.3908,0.5767,337.5543
16:34:13:549,1.1079,1.2275,10.5739,33.9908,-0.1017,0.4397,0.6085,336.6884
16:34:13:569,1.1653,1.4261,9.9039,34.1554,0.095,0.4287,0.5853,335.8457
16:34:13:593,1.2371,1.7085,8.6453,35.4172,0.343,0.3383,0.5462,335.075
16:34:13:613,1.3448,1.9621,7.4058,34.7852,0.5067,0.2381,0.5022,334.3972
16:34:13:636,1.517,2.1799,6.6233,37.2123,0.536,0.1734,0.4423,333.8095
16:34:13:649,1.6534,2.3497,6.3051,36.818,0.4835,0.1257,0.3568,333.2997
16:34:13:669,1.7731,2.4957,6.2357,38.0923,0.3992,0.0475,0.242,332.9282
16:34:13:696,1.7779,2.5627,6.262,37.2724,0.3137,-0.082,0.088,332.7716
16:34:13:712,1.7324,2.5484,6.475,38.1048,0.2245,-0.2616,-0.0744,332.8594
16:34:13:729,1.663,2.5938,6.6305,36.3148,0.1329,-0.4167,-0.2198,333.0885
16:34:13:752,1.6487,2.6488,6.8937,37.7399,0.0449,-0.479,-0.3518,333.5091
16:34:13:775,1.6917,2.4861,7.6666,37.9523,-0.109,-0.5499,-0.4972,334.1194
16:34:13:794,1.7037,2.0842,9.3894,37.93,-0.3387,-0.7319,-0.6609,334.9914
16:34:13:811,1.4572,1.5721,11.1218,37.77,-0.5354,-0.9188,-0.8014,336.0234
16:34:13:829,0.6676,2.0865,11.543,37.3549,-0.5745,-0.804,-0.8295,337.0953
16:34:13:849,1.2873,2.1535,10.6026,36.8358,-0.5623,-0.2909,-0.6951,337.8585
16:34:13:870,2.7422,1.4524,10.6624,35.4926,-0.8506,0.144,-0.6157,338.2907
16:34:13:894,2.802,0.9428,14.1248,36.5813,-1.3698,0.1807,-0.7549,338.878
16:34:13:912,1.6176,1.0002,16.2784,37.1876,-1.3649,0.0549,-0.959,339.785
16:34:13:930,0.3254,1.9765,11.6889,35.7316,0.0669,-0.3678,-0.8832,341.8667
16:34:13:950,1.3113,1.9884,9.9733,36.374,0.244,-0.6659,-0.7427,342.8078
16:34:13:969,2.2612,1.6654,10.2963,35.8007,0.0058,-0.7429,-0.6902,343.6497
16:34:13:992,2.0674,1.2873,11.6411,35.9698,-0.2544,-0.6757,-0.7733,344.5493
16:34:14:009,1.0624,1.3783,11.0764,33.986,-0.2104,-0.4815,-0.8502,345.5089
16:34:14:030,0.3302,1.9262,9.1214,35.9283,0.04,-0.115,-0.7769,346.3007
16:34:14:050,0.0957,2.3952,7.2455,39.6975,0.1622,0.1892,-0.6328,346.9744
16:34:14:071,-0.0933,2.7087,6.5181,37.3488,0.0852,0.4153,-0.5314,347.5301
16:34:14:090,-0.3781,2.8905,6.5157,39.3113,-0.037,0.4556,-0.491,348.0797
16:34:14:111,-0.5623,3.0532,6.4391,38.4203,-0.0834,0.2747,-0.4776,348.6255
16:34:14:130,-0.5216,3.1059,6.14,38.6338,-0.0785,0.0219,-0.4654,349.2114
16:34:14:153,-0.2991,3.1202,6.0491,38.0028,-0.1115,-0.1711,-0.4446,349.832
16:34:14:173,-0.2082,3.1035,6.7836,39.2792,-0.2104,-0.2359,-0.4373,350.4366
16:34:14:191,-0.3493,3.0532,7.523,39.0364,-0.2666,-0.2054,-0.4299,351.0393
16:34:14:208,-0.39,3.1202,7.8054,39.696,-0.2153,-0.1308,-0.3835,351.5836
16:34:14:228,-0.1747,3.1848,8.26,39.0467,-0.142,-0.06,-0.3078,352.0266
16:34:14:247,0.0909,3.2471,8.4586,39.0364,-0.0589,-0.0172,-0.2455,352.3766
16:34:14:268,0.1292,3.3595,8.5161,38.6416,0.029,0.0304,-0.2211,352.6711
16:34:14:288,0.1938,3.2351,8.8128,36.9775,0.0632,0.072,-0.2186,352.9621
16:34:14:309,0.2082,3.0748,9.6263,38.0201,0.0632,0.0903,-0.2161,353.2315
16:34:14:327,0.2776,2.8881,10.2796,39.9228,0.0938,0.0561,-0.2137,353.5237
16:34:14:347,0.7011,2.6871,10.3179,38.6317,0.172,-0.0111,-0.2076,353.7705
16:34:14:367,0.9906,2.6393,10.9783,38.6503,0.128,-0.0759,-0.2137,354.0235
16:34:14:389,1.2897,2.4167,11.4903,40.5923,-0.0956,0.0695,-0.2491,354.5503
16:34:14:409,0.8758,1.6702,12.5958,38.8167,-0.3411,0.1636,-0.3139,354.8703
16:34:14:429,-0.1986,1.1438,14.7422,40.1788,-0.5549,0.1624,-0.3872,355.3158
16:34:14:449,-1.8568,1.1342,14.7948,40.8409,-0.3008,0.2039,-0.3396,355.7905
16:34:14:471,-2.0243,1.5099,12.4929,40.1788,0.2331,0.3016,-0.0695,355.972
16:34:14:510,-0.8638,1.675,10.7007,39.2772,0.42,0.2332,0.2395,355.3478
16:34:14:524,0.3087,1.084,12.9763,39.0364,0.1194,0.1355,0.3703,354.9786
16:34:14:540,0.1077,1.1581,12.5432,40.3468,-0.153,0.1489,0.3324,354.641
16:34:14:560,0.2847,1.3878,11.0309,37.7404,0.1744,0.276,0.3996,354.179
16:34:14:579,0.8064,1.5912,9.7053,41.0197,0.3418,0.3334,0.5132,353.5207
16:34:14:598,1.3065,1.7779,8.808,40.1833,0.4065,0.3395,0.5657,352.7988
16:34:14:626,1.6008,1.8975,8.0542,39.459,0.4505,0.2772,0.5327,352.1419
16:34:14:644,1.6989,2.0195,7.279,39.069,0.5153,0.1807,0.4484,351.5618
16:34:14:658,1.6439,2.0794,6.4271,41.9322,0.5947,0.0903,0.347,351.1139
16:34:14:676,1.5099,2.0937,5.5705,40.1748,0.6289,-0.0013,0.2371,350.8161
16:34:14:695,1.4118,2.0387,4.9843,40.6186,0.5605,-0.1137,0.1284,350.6738
16:34:14:902,1.2802,1.943,5.3862,40.1309,0.4017,-0.2322,0.0294,350.6472
16:34:14:903,1.2873,1.9358,5.7356,43.111,0.2673,-0.3446,-0.0488,350.7551
16:34:14:903,1.584,2.0148,5.9462,41.5152,0.2221,-0.4192,-0.1099,350.97
16:34:14:904,1.8425,2.0363,6.0945,40.3871,0.1768,-0.5096,-0.1978,351.2776
16:34:14:905,1.6965,2.1344,6.4774,41.0332,0.0828,-0.5389,-0.3212,351.7426
16:34:14:905,1.4357,2.2062,7.4034,39.7253,-0.0272,-0.5047,-0.4348,352.312
16:34:14:905,1.2347,2.278,8.1093,41.0249,-0.1053,-0.5768,-0.5448,353.0509
16:34:14:906,1.2658,2.278,9.0162,38.1781,-0.208,-0.7893,-0.6438,353.9407
16:34:14:907,1.5338,2.1392,9.9374,38.5961,-0.4047,-0.9445,-0.711,354.9524
16:34:14:907,1.4859,2.4167,10.7749,37.8263,-0.6014,-0.7258,-0.7342,355.8899
16:34:14:907,1.7827,2.4909,11.0788,38.8542,-0.7578,-0.2237,-0.7183,356.6711
16:34:14:929,2.5914,2.211,11.61,39.3061,-0.9935,0.1123,-0.7452,357.3393
16:34:14:950,2.8451,1.1079,14.2923,39.6858,-1.3698,0.0805,-0.9345,358.2372
16:34:14:974,2.077,0.0311,17.5896,38.5457,-1.5604,-0.2359,-1.1923,359.4997
16:34:14:995,1.0146,-0.8159,19.4895,38.7257,-1.2232,-0.6049,-1.2815,1.0229
16:34:15:008,-0.0526,-0.8542,18.2142,38.7088,-0.3692,-0.6599,-1.0701,2.4172
16:34:15:029,0.5384,-0.2345,14.3689,38.7838,0.5666,-0.4143,-0.5802,3.214
16:34:15:048,2.0985,0.6245,10.6696,38.6934,1.0895,-0.1235,-0.1111,3.2885
16:34:15:068,3.1896,1.5601,8.5902,39.0964,1.0968,0.1391,0.0697,3.0305
16:34:15:091,3.271,2.0913,7.7312,40.3266,0.7999,0.2687,-0.0647,2.9026
16:34:15:109,2.2229,2.3569,7.255,36.6409,0.4774,0.2919,-0.3408,3.1139
16:34:15:129,0.8973,2.5125,6.9583,40.5456,0.2709,0.32,-0.5399,3.6054
16:34:15:150,0.0383,2.6632,6.4989,38.6785,0.205,0.342,-0.5643,4.1443
16:34:15:176,-0.1053,2.9432,5.6758,39.828,0.2404,0.3383,-0.452,4.5828
16:34:15:191,0.0622,3.2447,4.8909,37.6391,0.2722,0.3078,-0.32,4.8817
16:34:15:207,0.146,3.4672,4.6014,39.1978,0.2135,0.2442,-0.2577,5.1182
16:34:15:228,0.0502,3.5844,4.8335,39.9906,0.0925,0.1465,-0.2724,5.371
16:34:15:248,-0.2632,3.5988,5.7954,39.144,-0.0186,-0.0001,-0.3212,5.7614
16:34:15:268,-0.658,3.527,6.6329,40.5783,-0.043,-0.1895,-0.353,6.2633
16:34:15:290,-0.871,3.6084,6.8937,39.4271,0.029,-0.3214,-0.3188,6.7591
16:34:15:310,-0.7753,4.0175,7.3579,42.7957,0.1133,-0.1431,-0.0976,7.2069
16:34:15:330,-0.548,4.0511,7.9346,40.1656,0.0925,0.0487,-0.0158,7.4841
16:34:15:349,-0.6508,3.8453,9.0664,40.1656,0.0437,0.1098,-0.0134,7.5515
16:34:15:368,-1.1629,3.6826,10.794,39.4271,0.0083,-0.0074,-0.0378,7.7146
16:34:15:394,-1.3974,3.6036,11.8923,39.9068,0.0852,-0.2005,-0.006,7.9358
16:34:15:415,-1.1174,4.0008,11.7799,42.2333,0.2184,-0.2493,0.1149,8.028
16:34:15:427,-0.3924,4.2018,11.811,40.6388,0.1622,0.0194,0.242,7.855
16:34:15:447,0.2871,3.5916,13.0457,40.7297,-0.0968,0.4287,0.2652,7.4927
16:34:15:467,-0.5599,2.9791,14.5484,41.2992,-0.291,0.6169,0.1479,7.2357
16:34:15:487,-2.3091,3.1059,13.6893,42.0489,-0.0797,0.7354,0.0587,7.1382
16:34:15:509,-2.8187,3.3284,11.1912,41.5526,0.2795,0.8294,0.165,6.9034
16:34:15:527,-2.8403,3.1657,10.3107,42.1598,0.2282,0.7842,0.3018,6.5163
16:34:15:547,-2.2277,2.1966,12.0503,41.9022,-0.2006,0.5997,0.4032,6.0491
16:34:15:570,-1.9573,1.2251,14.0243,41.5259,-0.5134,0.4153,0.4606,5.5878
16:34:15:593,-1.8544,0.6724,14.3378,41.6123,-0.3937,0.3554,0.5902,4.9843
16:34:15:608,-1.2538,0.5791,13.1198,40.4958,-0.0088,0.4653,0.8431,4.0586
16:34:15:627,-0.2417,0.6221,11.4305,39.5245,0.343,0.6266,1.1143,2.693
16:34:15:647,0.859,0.8255,9.868,40.6857,0.5605,0.7561,1.3024,1.0257
16:34:15:667,1.6893,1.1366,8.8176,40.8936,0.6423,0.7268,1.3476,359.2687
16:34:15:687,2.0889,1.3639,8.1787,41.1932,0.635,0.5851,1.2633,357.6147
16:34:15:707,2.1081,1.6176,7.6068,42.0546,0.6521,0.4617,1.1399,356.1708
16:34:15:727,1.9286,1.8831,6.8339,43.0893,0.7511,0.4104,1.0361,354.8539
16:34:15:746,1.9501,2.1966,5.8337,42.2827,0.8842,0.3664,0.9664,353.6003
16:34:15:766,1.9119,2.814,4.0415,45.0894,0.8793,0.1282,0.7588,351.5529
16:34:15:792,1.8784,2.9791,3.8453,44.4121,0.6961,-0.0331,0.6024,350.8451
16:34:15:812,1.7779,3.0556,4.2473,44.6087,0.4713,-0.2102,0.4301,350.3982
16:34:15:829,1.5984,3.0413,5.0034,43.5251,0.2746,-0.407,0.2505,350.2629
16:34:15:847,1.2514,3.1059,5.5825,42.6855,0.1708,-0.5939,0.0831,350.3977
16:34:15:867,1.0552,3.2399,6.2764,44.6419,0.1255,-0.8016,-0.0573,350.7815
16:34:15:886,0.8423,3.4265,6.6161,43.8335,0.0706,-1.0984,-0.2039,351.4539
16:34:15:907,0.8279,3.7735,6.5396,43.1607,-0.0772,-1.3147,-0.3371,352.3602
16:34:15:927,1.1533,3.5916,7.0612,42.475,-0.4389,-1.1742,-0.4141,353.2971
16:34:15:947,0.6461,3.7065,9.466,43.9373,-0.9178,-0.5719,-0.4874,354.0475
16:34:15:966,0.055,3.7902,11.2199,42.9283,-1.1915,0.1074,-0.5143,354.5562
16:34:15:987,0.8279,3.6778,11.4568,44.2708,-1.255,0.5008,-0.4959,354.8801
16:34:16:008,1.9406,2.5292,13.4022,42.6742,-1.5397,0.3212,-0.6193,355.3272
16:34:16:026,1.4931,0.9404,18.6066,42.3878,-2.0064,-0.3043,-0.9529,356.3743
16:34:16:046,-0.0168,-0.1962,21.9613,42.4162,-1.8206,-0.8797,-1.1886,357.9626
16:34:16:067,-1.8544,0.0718,19.145,40.6214,-0.7321,-0.8663,-1.0249,359.4531
16:34:16:087,-1.6271,0.8495,14.1392,41.5526,0.321,-0.3141,-0.4385,0.1384
16:34:16:106,0.1627,1.5601,11.6626,40.3314,0.6448,0.2381,0.1845,359.9436
16:34:16:126,1.7874,2.0913,10.7964,41.5711,0.5531,0.458,0.4839,359.272
16:34:16:147,2.1942,2.4981,9.5282,41.7624,0.4945,0.3859,0.4093,358.6541
16:34:16:167,1.7013,2.7613,7.7001,41.7315,0.5031,0.3053,0.1785,358.3298
16:34:16:187,0.8973,2.8857,6.4869,41.9887,0.453,0.3737,-0.006,358.2069
16:34:16:207,0.28,3.0221,5.9246,40.5151,0.3564,0.4898,-0.0695,358.1068
16:34:16:227,-0.1005,3.2949,5.3121,43.6599,0.2135,0.3615,-0.0207,358.0053
16:34:16:247,0.0359,3.393,5.3025,41.6951,0.1451,0.1782,0.0025,357.922
16:34:16:268,0.1053,3.4217,5.6734,42.1459,0.0657,0.0133,-0.0024,357.9393
16:34:16:287,0.0622,3.4529,6.3075,42.9283,-0.0015,-0.0697,-0.0231,358.0333
16:34:16:307,0.0766,3.4409,7.0469,41.3825,-0.026,-0.0978,-0.0243,358.1241
16:34:16:328,0.134,3.3499,7.7336,41.2436,-0.0101,-0.1333,-0.0109,358.2336
16:34:16:350,0.2704,3.3691,8.2696,42.0635,0.0473,-0.1553,0.0221,358.2956
16:34:16:366,0.3589,3.4433,8.7793,40.7623,0.1341,-0.1541,0.0538,358.3317
16:34:16:388,0.3493,3.5151,8.8367,42.597,0.2575,-0.132,0.0734,358.3159
16:34:16:407,0.0861,3.8166,8.7936,40.6247,0.3748,-0.1015,0.0831,358.3302
16:34:16:427,0.0694,3.9936,9.4038,41.9018,0.3968,-0.1076,0.1088,358.2616
16:34:16:447,0.335,3.9482,10.0618,42.1459,0.3943,-0.1944,0.1308,358.2151
16:34:16:468,0.8207,3.716,10.5164,41.1435,0.3809,-0.4045,0.1161,358.2531
16:34:16:488,0.9954,4.0558,11.1266,42.52,0.321,-0.5426,0.0929,358.3878
16:34:16:509,0.7155,4.6636,10.5188,42.597,0.3198,-0.2334,0.0917,358.3932
16:34:16:529,0.2752,4.9412,9.3057,43.1233,0.3418,0.5069,0.1051,358.1343
16:34:16:548,-0.8542,4.934,9.6933,41.7489,0.1316,0.9821,0.0514,357.7711
16:34:16:571,-2.0985,4.9077,10.6863,42.3232,-0.1053,0.9553,-0.0463,357.5891
16:34:16:590,-2.881,4.6708,10.8132,41.7922,-0.1689,0.6633,-0.0757,357.5749
16:34:16:610,-2.6967,3.9505,11.0429,43.8905,-0.2373,0.265,-0.0366,357.6744
16:34:16:631,-1.7587,2.8403,12.816,40.6685,-0.4706,-0.1516,0.0416,357.8341
16:34:16:649,-1.3065,1.73,15.1442,41.2183,-0.6637,-0.4485,0.0893,358.0289
16:34:16:670,-0.6963,1.5386,12.5216,39.773,0.0828,0.1685,0.4765,358.0364
16:34:16:690,-0.0622,1.7922,9.9015,41.8868,0.4053,0.7964,0.7453,357.5216
16:34:16:712,0.6796,2.0674,8.4227,41.8048,0.4151,1.1691,0.9078,355.1322
16:34:16:728,1.3256,2.254,7.9466,42.4299,0.3051,1.1581,0.9298,353.6775
16:34:16:749,1.7013,2.3354,7.5685,40.2014,0.2575,0.8331,0.8394,352.4169
16:34:16:770,1.8903,2.4885,6.932,41.7253,0.332,0.4592,0.7099,351.405
16:34:16:792,1.8712,2.6919,5.927,41.9669,0.4578,0.2234,0.5889,350.5844
16:34:16:810,1.5864,2.9025,5.0417,41.6344,0.5141,0.1538,0.468,349.9019
16:34:16:829,1.3065,3.1107,4.6421,43.0117,0.4383,0.1049,0.3556,349.4705
16:34:16:849,1.2108,3.1777,4.6516,43.6457,0.2844,0.006,0.2664,349.1837
16:34:16:870,1.2323,3.0891,5.068,44.4187,0.1219,-0.132,0.1748,349.0318
16:34:16:891,1.4381,3.0054,5.9773,44.3082,0.0095,-0.3177,0.0807,349.0707
16:34:16:908,1.4333,3.058,6.6736,45.0485,0.0009,-0.5279,-0.0305,349.3034
16:34:17:036,1.1749,3.2231,6.4415,45.0361,0.0889,-0.6806,-0.1563,349.742
16:34:17:036,0.9571,3.5055,6.0658,45.6252,0.106,-0.7747,-0.2772,350.4142
16:34:17:037,1.0289,3.5151,6.5468,44.3571,-0.0919,-0.8944,-0.3848,351.217
16:34:17:038,1.0026,3.3284,8.1763,40.8304,-0.4755,-0.986,-0.4886,352.1874
16:34:17:038,0.6389,3.0987,9.6574,41.7067,-0.7761,-0.7759,-0.5497,353.0897
16:34:17:039,0.0694,3.649,10.0259,38.4672,-0.8433,-0.2677,-0.524,353.7833
16:34:17:052,0.1412,4.0941,9.868,40.9627,-0.8384,0.2173,-0.4275,354.1841
16:34:17:068,1.1821,3.7017,10.1312,38.3815,-1.0229,0.2931,-0.4031,354.4849
16:34:17:087,1.8664,2.4359,12.8279,38.6521,-1.4883,-0.1272,-0.5876,355.0936
16:34:17:108,1.5266,0.6843,18.1113,38.1531,-1.955,-0.848,-0.8832,356.3083
16:34:17:130,0.4857,-0.3709,21.8273,37.4939,-1.7241,-1.4246,-1.0127,357.8526
16:34:17:149,0.4116,0.5264,13.742,38.5797,0.4518,-0.8407,-0.2626,359.7732
16:34:17:167,2.0076,1.1007,11.6746,37.4558,0.6619,-0.1455,0.2017,359.5901
16:34:17:192,2.9934,1.6343,11.0429,38.997,0.5287,0.3273,0.3507,359.0962
16:34:17:209,2.79,2.0626,9.4899,35.7335,0.5116,0.3762,0.1833,358.7451
16:34:17:232,2.12,2.3163,7.2885,38.5797,0.5385,0.2845,-0.0818,358.7122
16:34:17:247,1.34,2.4861,5.9533,37.2339,0.4127,0.3188,-0.2687,358.9237
16:34:17:267,0.603,2.5795,5.7476,40.147,0.1805,0.4702,-0.353,359.1655
16:34:17:292,0.2201,2.668,5.9174,38.0863,0.0254,0.5643,-0.3554,359.4492
16:34:17:308,0.1125,2.7517,5.7571,39.628,0.0083,0.5069,-0.32,359.6855
16:34:17:328,0.1771,2.9791,5.4796,38.594,0.0412,0.2931,-0.2944,359.9691
16:34:17:347,0.2201,3.1346,5.2379,39.3994,0.0327,0.0512,-0.2882,0.294
16:34:17:368,0.0526,3.283,5.2044,37.7804,-0.026,-0.0404,-0.2919,0.6832
16:34:17:391,-0.1531,3.4624,5.4867,37.9728,-0.1335,0.0304,-0.276,1.0331
16:34:17:408,-0.1962,3.5533,6.1137,35.9943,-0.2446,0.1526,-0.2259,1.2936
16:34:17:427,-0.2465,3.5557,7.0493,37.8649,-0.324,0.2076,-0.1758,1.4778
16:34:17:447,-0.5168,3.4433,8.3127,37.5379,-0.3424,0.155,-0.1404,1.6445
16:34:17:466,-0.8734,3.3332,9.3846,36.6141,-0.2532,-0.0111,-0.0928,1.8963
16:34:17:488,-1.0361,3.3547,9.7603,36.7317,-0.0589,-0.2041,-0.0024,2.0796
16:34:17:508,-0.9715,3.4385,9.9589,38.594,0.1292,-0.2726,0.121,2.1476
16:34:17:526,-0.3829,3.4337,9.9948,37.8716,0.2269,-0.2457,0.2518,2.0239
16:34:17:548,0.5791,3.3308,10.7892,36.3061,0.161,-0.1944,0.3312,1.7666
16:34:17:566,0.9978,3.216,12.7705,36.4349,-0.0809,-0.2334,0.275,1.6041
16:34:17:594,0.8064,2.8427,13.6893,36.7519,-0.037,0.2797,0.0941,1.3683
16:34:17:609,-0.0191,2.6895,13.4285,35.9943,0.095,0.6792,0.0599,1.1508
16:34:17:626,-1.5458,3.0413,12.6054,37.1474,0.2636,0.9467,0.0428,0.9642
16:34:17:646,-2.1918,3.7687,9.9924,37.1195,0.5788,1.1788,0.1332,0.6122
16:34:17:666,-2.4144,4.4195,7.8174,36.4365,0.6301,1.2973,0.2188,0.1203
16:34:17:686,-1.9358,3.6706,8.2313,39.8503,0.0938,1.0066,0.1919,359.7233
16:34:17:706,-1.9023,2.0219,12.2776,35.1785,-0.7467,0.3188,0.0318,359.7209
16:34:17:726,-1.9693,0.4953,16.0415,38.0447,-1.1194,-0.3544,-0.072,0.0091
16:34:17:746,-2.2899,0.1412,15.6084,35.3364,-0.66,-0.5267,0.0587,0.2485
16:34:17:766,-1.785,0.3589,12.6413,36.0122,0.0596,-0.1223,0.4118,359.9695
16:34:17:785,-0.8638,0.5743,10.5571,36.5421,0.4065,0.4653,0.804,359.0626
16:34:17:806,0.2465,0.9069,9.5115,36.6694,0.4798,0.9027,1.0837,357.6398
16:34:17:826,0.9547,1.206,8.7099,37.8976,0.5226,0.9223,1.1632,356.1038
16:34:17:847,1.2873,1.5458,7.7456,35.3048,0.6264,0.6535,1.1069,354.7032
16:34:17:867,1.5027,1.864,6.5085,36.4854,0.7706,0.3676,1.0336,353.3578
16:34:17:890,1.7587,2.3043,5.5442,37.3879,0.8757,0.2027,0.9677,352.1186
16:34:17:909,2.0483,2.5364,4.7378,38.2966,0.8965,0.1074,0.8748,350.9796
16:34:17:929,2.2397,2.7948,4.2329,36.9955,0.8097,-0.0172,0.7331,350.1162
16:34:17:947,2.3306,2.9575,4.1994,38.1339,0.6374,-0.198,0.5376,349.5147
16:34:17:967,2.3306,2.8929,4.5296,37.6623,0.4346,-0.446,0.3031,349.2816
16:34:17:987,2.0913,2.7565,5.3982,38.2646,0.2514,-0.6855,0.0648,349.4186
16:34:18:009,1.6606,2.6417,6.0802,37.6949,0.161,-0.8749,-0.1392,349.8586
16:34:18:029,1.1821,2.7565,6.2764,36.8299,0.1744,-1.0178,-0.2858,350.5567
16:34:18:049,0.9212,3.1154,6.9153,38.1184,-0.0553,-1.1449,-0.4361,351.3914
16:34:18:067,1.1533,3.0628,7.5039,35.3105,-0.3595,-0.9848,-0.4752,352.286
16:34:18:099,1.0792,3.1418,8.5256,37.6038,-0.6893,-0.5022,-0.5033,353.8673
16:34:18:110,0.4451,3.5749,10.0522,34.1585,-0.9874,0.0683,-0.557,354.4481
16:34:18:126,0.1962,3.8333,10.9878,36.4194,-1.1609,0.4299,-0.5925,354.9341
16:34:18:146,0.6532,3.3739,12.2201,36.5364,-1.3539,0.3664,-0.6584,355.4975
16:34:18:168,1.0983,2.12,15.7711,35.3643,-1.7266,-0.2481,-0.8111,356.3958
16:34:18:188,0.8423,0.4953,20.6668,34.7431,-1.9526,-1.1375,-0.9724,357.7796
16:34:18:209,-0.1555,-0.1244,22.3083,33.4977,-1.4224,-1.57,-0.9492,359.302
