Time,Acc_X,Acc_Y,Acc_Z,Meg,Gyr_X,Gyr_Y,Gyr_Z,Ore
19:38:50:436,-1.5601,1.7922,9.0401,61.9467,-0.2351,0.0299,0.0077,51.0873
19:38:50:455,-1.5051,2.7278,9.2387,61.6677,-0.2351,0.0299,0.0077,49.0562
19:38:50:474,-1.7061,2.6776,9.3488,61.6487,0.0544,-0.047,-0.0766,48.0209
19:38:50:494,-1.742,2.5938,9.3248,61.846,0.0202,-0.0092,-0.0534,47.9751
19:38:50:519,-1.6415,2.5053,9.387,61.5783,-0.0103,-0.0409,-0.035,47.9825
19:38:50:539,-1.7539,2.3928,9.533,62.2046,-0.0433,-0.0507,-0.0326,48.2371
19:38:50:553,-1.8712,2.2325,9.6024,61.3034,-0.0677,-0.0507,-0.0191,48.5751
19:38:50:575,-1.8521,2.1224,9.2794,62.8171,-0.086,-0.0764,0.015,48.8327
19:38:50:595,-1.8425,2.0818,9.6574,61.7473,-0.1581,-0.069,0.0505,49.0571
19:38:50:617,-1.9334,2.0578,10.5164,62.0121,-0.2058,-0.0153,0.0945,49.247
19:38:50:634,-1.6487,2.1105,10.6552,63.6507,-0.0543,0.0153,0.1555,49.209
19:38:50:654,-1.5099,2.2038,9.7843,60.1003,0.1925,-0.0202,0.1592,49.0717
19:38:50:674,-1.7133,2.2397,9.0018,62.0135,0.3073,-0.047,0.114,49.0104
19:38:50:708,-1.7468,2.3186,8.741,60.0122,0.2352,-0.0434,0.1152,48.9436
19:38:50:717,-1.6271,2.4263,9.0449,60.5379,0.0948,-0.0312,0.136,48.7809
19:38:50:739,-1.5075,2.455,9.3296,60.2326,0.0019,-0.0031,0.1433,48.6019
19:38:50:754,-1.4812,2.4048,9.545,62.9675,-0.0201,0.0385,0.1348,48.4659
19:38:50:775,-1.3902,2.3115,9.4708,60.3153,0.0031,0.0348,0.1311,48.3205
19:38:50:806,-1.3304,2.3497,9.3799,60.88,0.0178,0.0079,0.1299,48.1711
19:38:50:814,-1.3089,2.3952,9.3296,61.3336,0.0056,0.0104,0.1287,47.9998
19:38:50:848,-1.3161,2.4574,9.5186,60.8717,-0.014,0.0397,0.1226,47.8331
19:38:50:854,-1.2682,2.4215,9.6191,61.9467,0.0019,0.0373,0.1226,47.6587
19:38:50:874,-1.1174,2.4144,9.4923,60.3752,0.0557,0.0043,0.1201,47.4946
19:38:50:895,-1.0863,2.5196,9.3153,61.8173,0.0935,-0.0385,0.1116,47.2885
19:38:50:918,-1.2682,2.7398,9.3751,61.3336,0.0544,-0.0128,0.0688,47.1073
19:38:50:939,-1.2012,2.6991,9.277,60.2998,0.0581,-0.0275,0.0712,46.8438
19:38:50:955,-1.139,2.7948,8.8343,60.6542,0.0911,-0.0421,0.0688,46.7376
19:38:50:994,-1.3113,2.8092,8.6333,62.5614,0.0532,-0.0006,0.0554,46.6469
19:38:50:998,-1.6798,2.9073,8.8343,61.141,-0.0213,0.0214,0.07,46.5798
19:38:51:016,-1.8066,3.0987,9.0425,61.4108,-0.0213,0.0092,0.1372,46.4077
19:38:51:037,-1.7396,3.4098,8.662,62.62,0.0801,0.0018,0.224,46.1046
19:38:51:056,-1.5649,3.6993,7.9777,62.0747,0.1766,0.0043,0.2692,45.6848
19:38:51:090,-1.5458,3.7854,7.8389,62.2587,0.1253,-0.0238,0.2545,45.2643
19:38:51:097,-1.6487,3.8333,8.327,59.4534,-0.025,-0.0421,0.2166,44.9205
19:38:51:128,-1.5506,3.7567,8.8606,62.9423,-0.1483,-0.0434,0.1812,44.6754
19:38:51:135,-1.34,3.4505,9.1095,62.5115,-0.207,-0.0275,0.1458,44.4596
19:38:51:155,-1.0361,3.1633,9.3559,63.4757,-0.2595,0.0165,0.1238,44.2584
19:38:51:188,-0.9978,3.1178,9.7029,62.4436,-0.3035,0.0605,0.103,44.0575
19:38:51:195,-1.1677,3.2303,9.7484,62.9423,-0.295,0.0812,0.0786,43.9257
19:38:51:222,-1.5147,3.4074,9.5641,61.0424,-0.2155,0.0983,0.0639,43.793
19:38:51:235,-1.5194,3.5222,9.265,61.389,-0.1312,0.0837,0.0945,43.6135
19:38:51:253,-1.2179,3.5988,8.8415,61.9226,-0.0567,0.0653,0.1445,43.3342
19:38:51:279,-1.139,3.7304,8.6381,62.2484,-0.0445,0.0543,0.1519,43.0199
19:38:51:295,-1.0289,3.7854,8.7195,63.3867,-0.0775,0.0287,0.1348,42.7448
19:38:51:315,-0.9332,3.7807,9.0568,63.9815,-0.0909,-0.0348,0.103,42.5192
19:38:51:335,-0.8351,3.7807,9.0329,62.2828,-0.0482,-0.1228,0.0578,42.4025
19:38:51:354,-0.993,3.7591,8.9683,63.1133,-0.0054,-0.1558,0.004,42.3547
19:38:51:378,-1.1605,3.7352,8.9707,63.2919,-0.0482,-0.1888,-0.0424,42.3816
19:38:51:396,-1.0792,3.7424,9.143,63.3799,-0.097,-0.2108,-0.0546,42.39
19:38:51:418,-1.1486,3.728,9.5426,63.0532,-0.1337,-0.2376,-0.0717,42.5707
19:38:51:438,-1.2347,3.7376,9.9805,61.0487,-0.1117,-0.2572,-0.0668,42.7122
19:38:51:454,-1.206,3.7184,9.7938,62.7416,0.0092,-0.2474,-0.0265,42.7856
19:38:51:484,-1.2467,3.8333,9.478,66.4879,0.1204,-0.256,-0.0008,42.8593
19:38:51:501,-1.2586,3.8118,9.4493,64.2081,0.1302,-0.2841,0.0175,42.9115
19:38:51:527,-1.0911,3.8046,9.7484,63.6166,0.0825,-0.3012,0.0444,42.9593
19:38:51:533,-0.9452,4.008,10.0044,63.4953,0.0569,-0.3622,0.0664,42.9887
19:38:51:554,-0.5121,3.9553,9.9565,62.7037,0.0679,-0.4368,0.0664,43.0239
19:38:51:575,-0.055,3.4863,10.203,64.4928,0.0618,-0.5296,0.015,43.1873
19:38:51:594,-0.0981,3.0197,10.7653,64.1988,0.0215,-0.6457,-0.0937,43.5179
19:38:51:613,-0.603,2.8499,11.4066,62.4576,-0.025,-0.6897,-0.1963,44.0291
19:38:51:634,-0.5168,2.6393,11.9569,64.9475,-0.0433,-0.6493,-0.1939,44.5313
19:38:51:654,-0.0742,2.2397,12.3853,63.8316,-0.0311,-0.5895,-0.1731,45.0085
19:38:51:677,0.2465,1.8066,12.5336,64.5444,0.0068,-0.5174,-0.1682,45.4605
19:38:51:698,0.5001,1.4836,12.0263,64.7723,0.0996,-0.2792,-0.1266,45.7913
19:38:51:717,0.658,1.5936,10.8036,61.9266,0.2487,0.0971,-0.0399,45.8793
19:38:51:734,1.0026,1.8544,9.3057,63.7172,0.4038,0.4111,0.0566,45.6982
19:38:51:754,1.3448,2.1057,7.9202,65.2191,0.4894,0.515,0.1055,45.3814
19:38:51:774,1.6008,2.3163,7.1737,64.7904,0.438,0.3414,0.0603,45.1053
19:38:51:817,1.6319,2.333,7.0804,63.4629,0.2792,0.0251,-0.0485,45.0622
19:38:51:818,1.5123,2.3809,7.5996,66.7547,0.0813,-0.1961,-0.1645,45.2429
19:38:51:836,1.3807,2.3282,8.5232,66.5061,-0.152,-0.1655,-0.3026,45.8612
19:38:51:853,1.2873,2.4455,8.4132,63.9595,-0.1545,-0.0788,-0.349,46.2224
19:38:51:873,1.0768,2.6656,8.1787,66.368,-0.1288,-0.0177,-0.3991,46.5901
19:38:51:894,0.7226,2.8068,7.7982,64.2386,-0.0836,0.0104,-0.4443,47.0175
19:38:51:915,0.4905,3.0341,7.4058,66.2701,-0.0347,0.0238,-0.4443,47.4192
19:38:51:935,0.5288,3.2518,7.1521,66.6891,-0.0164,0.0434,-0.4028,47.7629
19:38:51:956,0.4546,3.4337,7.5302,65.2005,-0.0433,0.0482,-0.3673,48.0727
19:38:51:983,0.5982,3.4002,8.0136,67.8485,-0.0506,-0.0079,-0.3453,48.3969
19:38:51:997,0.7131,3.527,7.815,65.0768,0.0312,-0.0886,-0.3197,48.7046
19:38:52:015,0.859,3.6706,7.9825,65.3059,0.0618,-0.1827,-0.3136,49.0282
19:38:52:034,0.9476,3.673,8.8487,65.0768,-0.0201,-0.2462,-0.3344,49.3989
19:38:52:054,0.7513,3.6682,9.8513,66.3373,-0.0921,-0.2254,-0.3795,49.858
19:38:52:076,0.2776,3.7974,10.4375,64.8583,-0.0604,-0.1472,-0.415,50.3567
19:38:52:096,-0.0239,4.0223,10.6505,67.1911,0.0215,-0.0825,-0.4113,50.8259
19:38:52:115,-0.1627,3.8453,10.9615,65.3524,0.0825,-0.0214,-0.393,51.2933
19:38:52:134,-0.4044,3.7591,11.141,66.935,0.1253,0.0702,-0.3551,51.6876
19:38:52:153,-0.7226,3.7998,11.3922,65.1219,0.129,0.1753,-0.2953,51.9846
19:38:52:174,-1.3232,3.9625,11.7823,66.087,0.1192,0.317,-0.2305,52.2148
19:38:52:195,-1.8401,4.3095,11.0118,63.697,0.212,0.5504,-0.1401,52.209
19:38:52:217,-2.0363,4.2329,9.8321,65.589,0.2988,0.719,-0.0595,52.0574
19:38:52:234,-1.7946,3.7089,10.3825,65.801,0.1363,0.5418,-0.0155,51.9316
19:38:52:254,-1.8879,2.6441,12.4618,65.505,-0.1398,0.0739,-0.0277,52.0837
19:38:52:277,-2.4287,1.9645,13.5314,65.7543,-0.1545,-0.3219,0.0163,52.4523
19:38:52:297,-1.8377,2.3426,9.6431,64.1011,0.6567,-0.0153,0.5783,52.0438
19:38:52:316,-1.4859,2.7446,7.1617,66.1933,0.9133,0.2743,0.7652,51.2793
19:38:52:340,-1.8233,2.802,6.1759,65.2771,0.8217,0.3647,0.7591,50.4123
19:38:52:353,-0.4905,2.8618,6.7454,65.801,0.5334,0.1667,0.7383,49.6105
19:38:52:478,-0.5671,2.7398,7.401,64.7122,0.2597,-0.2987,0.5599,49.2114
19:38:52:478,-1.0193,2.0195,8.4347,64.5081,0.0471,-0.5296,0.2496,49.3018
19:38:52:478,-0.9858,1.6439,9.3153,65.0573,-0.0824,-0.3256,0.1348,49.4341
19:38:52:487,-0.9236,1.5099,9.0592,61.2208,-0.014,0.0141,0.1165,49.4545
19:38:52:488,-1.0146,1.6463,7.9777,61.5536,0.1228,0.1961,0.1042,49.3799
19:38:52:488,-1.3208,1.9813,7.5182,61.2553,0.1326,0.1985,0.1055,49.2966
19:38:52:499,-1.596,2.3833,7.3005,62.7284,0.0801,0.1851,0.1287,49.1951
19:38:52:514,-1.7587,2.7996,7.0301,61.4331,0.0398,0.1936,0.1641,49.026
19:38:52:534,-1.6822,3.1035,6.9823,61.1665,-0.0176,0.157,0.2227,48.7969
19:38:52:553,-1.5482,3.3476,7.1857,62.6757,-0.108,0.0959,0.2777,48.5321
19:38:52:573,-1.2993,3.6467,7.8341,60.3669,-0.2046,0.0873,0.3009,48.2384
19:38:52:596,-1.4429,3.7472,8.3557,61.6198,-0.2388,0.0995,0.2692,47.9696
19:38:52:615,-1.8592,3.9434,8.6548,62.1399,-0.2058,0.0629,0.2411,47.7498
19:38:52:635,-1.8808,4.1204,9.0162,62.9302,-0.1765,-0.0495,0.2753,47.5569
19:38:52:654,-1.584,4.1228,9.1717,61.9412,-0.1459,-0.1448,0.3302,47.3261
19:38:52:675,-1.2586,4.1874,9.4852,61.2825,-0.1276,-0.212,0.3596,47.087
19:38:52:701,-0.8997,4.0367,9.8249,60.1824,-0.13,-0.234,0.3412,46.8796
19:38:52:718,-0.4235,3.7113,9.8465,63.1967,-0.1044,-0.1936,0.285,46.7094
19:38:52:734,-0.2536,3.2949,10.4184,61.7017,-0.1422,-0.1411,0.2142,46.5948
19:38:52:753,0.2943,3.082,11.4521,64.1011,-0.2522,-0.1973,0.235,46.5044
19:38:52:773,1.2299,3.082,11.7129,62.9411,-0.2962,-0.1839,0.329,46.2031
19:38:52:797,2.5172,2.8475,11.5645,61.0188,-0.3377,-0.0861,0.3828,45.855
19:38:52:817,2.991,2.4742,11.8086,61.4497,-0.4281,0.0446,0.2582,45.5858
19:38:52:834,2.5077,2.0506,12.4499,62.5765,-0.5014,0.1154,0.0163,45.5811
19:38:52:853,1.462,2.0028,12.2871,62.4919,-0.4012,0.1399,-0.1719,45.7583
19:38:52:873,1.0026,2.1416,11.0548,59.8864,-0.1068,0.2645,-0.1926,45.9022
19:38:52:895,1.2993,2.1727,9.3823,60.3909,0.1668,0.3451,-0.1266,45.9314
19:38:52:913,1.3448,2.2923,8.3414,60.9625,0.2352,0.2462,-0.1254,45.9872
19:38:52:933,1.4453,2.2588,8.2409,59.9955,0.0984,0.0299,-0.1829,46.1641
19:38:52:954,1.2084,2.12,8.5352,61.4497,-0.0921,-0.0751,-0.272,46.4779
19:38:52:976,0.9763,2.1272,8.5591,60.6936,-0.2106,0.0177,-0.3185,46.8276
19:38:52:996,0.658,2.1392,8.6261,61.3804,-0.2669,0.08,-0.349,47.1938
19:38:53:016,0.1029,2.2684,9.0281,58.6903,-0.2754,0.0311,-0.3832,47.6212
19:38:53:039,-0.323,2.4861,8.8965,61.1046,-0.1691,-0.0507,-0.3722,48.0764
19:38:53:054,-0.4834,2.7326,8.2911,61.8701,0.0019,-0.1106,-0.3148,48.4838
19:38:53:078,-0.524,2.9456,8.1141,61.1894,0.1118,-0.0922,-0.2305,48.7781
19:38:53:101,-0.3565,2.9982,7.8772,59.9292,0.1778,-0.0373,-0.1535,48.9691
19:38:53:117,-0.2465,3.1681,7.4297,61.6953,0.2401,0.0031,-0.1059,49.0899
19:38:53:134,0.0239,3.2973,7.3842,61.1046,0.212,0.0116,-0.1022,49.1871
19:38:53:155,0.1388,3.326,7.8987,61.6843,0.1167,0.0202,-0.1205,49.301
19:38:53:174,0.268,3.2614,8.3581,60.6953,0.0557,0.0592,-0.1413,49.4371
19:38:53:197,0.3852,3.2255,8.741,61.4332,0.0373,0.0873,-0.1425,49.5674
19:38:53:214,0.4977,3.2399,9.1478,61.6146,0.0532,0.1142,-0.1645,49.7983
19:38:53:235,-0.2895,3.5605,9.5761,62.0283,0.0483,0.1753,-0.1816,49.9395
19:38:53:254,-1.0193,3.9218,9.7436,61.3991,0.0838,0.2022,-0.123,50.0325
19:38:53:274,-0.859,4.1587,9.8584,63.1792,0.1449,0.1435,0.0273,50.0049
19:38:53:307,-0.2321,4.2879,10.057,60.8401,0.1742,0.0653,0.1873,49.8386
19:38:53:312,0.1771,4.3502,10.3992,61.0284,0.1473,0.091,0.2423,49.5994
19:38:53:335,-0.146,4.1563,10.9089,61.7116,0.1045,0.2095,0.1995,49.3551
19:38:53:354,-1.0624,4.2042,10.9496,59.8333,0.1167,0.3146,0.1397,49.1353
19:38:53:371,-1.5314,4.2856,9.9709,60.094,0.1839,0.3476,0.1592,48.8971
19:38:53:392,-1.5003,4.075,9.5067,60.4693,0.1082,0.2987,0.1824,48.6407
19:38:53:414,-0.7466,2.656,10.5524,61.6998,-0.1752,0.1655,0.1384,48.52
19:38:53:432,-0.8949,1.3328,13.1773,60.7979,-0.4904,-0.1106,0.0236,48.6694
19:38:53:453,-2.1775,1.194,14.6967,61.4875,-0.4868,-0.245,-0.0326,48.9768
19:38:53:473,-3.015,1.4501,12.4666,60.7979,-0.0201,0.0202,0.1311,49.0179
19:38:53:493,-2.3569,1.8903,9.0712,63.2158,0.5553,0.5137,0.4378,48.5097
19:38:53:516,-1.7061,2.5101,6.0658,60.7091,0.763,0.6738,0.5905,47.7176
19:38:53:533,-1.1916,2.8379,5.6997,60.5465,0.4466,0.3989,0.5514,47.0549
19:38:53:553,-1.3831,2.5842,7.011,61.0463,-0.0237,0.0006,0.3425,46.7659
19:38:53:573,-1.3759,1.9478,8.3964,62.3109,-0.2998,-0.1509,0.1726,46.747
19:38:53:593,-1.3232,1.6032,8.7745,60.7435,-0.3218,-0.0568,0.1226,46.7577
19:38:53:627,-1.2179,1.5003,8.4108,59.8858,-0.2119,0.0568,0.1299,46.7098
19:38:53:638,-0.9356,1.5242,7.8317,61.6998,-0.1105,0.0348,0.1726,46.5135
19:38:53:653,-0.8471,2.2995,8.1476,59.1954,-0.1251,-0.1435,0.2411,46.4021
19:38:53:672,-0.9811,2.5292,7.9705,60.9166,-0.0702,-0.058,0.2447,46.1822
19:38:53:692,-1.3472,2.6848,8.0638,60.6828,-0.0372,0.0751,0.235,45.9812
19:38:53:713,-1.4405,2.9408,8.1882,60.8535,-0.0018,0.0825,0.2704,45.7351
19:38:53:735,-1.3304,3.2662,8.0303,61.6115,0.052,0.0202,0.3217,45.4598
19:38:53:753,-0.7681,3.5175,7.8389,60.4467,0.0557,0.0251,0.34,45.1497
19:38:53:774,-0.323,3.5701,8.1547,60.8485,-0.0274,0.212,0.2802,44.8146
19:38:53:797,-0.9763,3.6514,8.8941,61.778,-0.152,0.3305,0.136,44.6616
19:38:53:816,-1.8688,3.9027,9.7579,61.4005,-0.1789,0.2266,0.0517,44.5925
19:38:53:833,-1.7994,3.7304,9.868,61.4005,-0.0518,-0.0006,0.0932,44.5757
19:38:53:852,-1.4907,3.6658,9.7507,61.1636,0.118,-0.1485,0.18,44.5153
19:38:53:874,-1.1151,3.6251,9.6096,61.0945,0.1668,-0.1179,0.2447,44.3605
19:38:53:896,-0.8495,3.6802,9.746,63.5842,0.074,-0.0214,0.2655,44.1565
19:38:53:913,-0.682,3.4744,10.471,63.5194,-0.0946,-0.0287,0.2289,43.9848
19:38:53:933,-0.8925,3.3691,11.1171,63.2779,-0.2058,-0.1289,0.1788,43.9334
19:38:53:953,-0.7968,3.2518,11.9354,61.5195,-0.2461,-0.2706,0.2032,43.9129
19:38:53:973,-0.1531,2.9456,12.213,61.5195,-0.218,-0.3476,0.2997,43.7913
19:38:53:993,0.7035,2.333,12.2728,63.1232,-0.2131,-0.2816,0.4072,43.5268
19:38:54:013,1.3878,1.4022,12.603,62.7387,-0.2742,-0.1081,0.45,43.1818
19:38:54:034,1.1246,1.1988,13.2897,61.974,-0.3438,0.0825,0.3926,42.8473
19:38:54:053,0.4259,1.6199,12.536,63.6327,-0.2155,0.328,0.3217,42.5008
19:38:54:073,1.1055,1.7994,9.8536,61.7661,0.1998,0.5858,0.3461,42.0184
19:38:54:096,1.7444,1.9023,7.7527,62.7231,0.4405,0.4343,0.2777,41.6359
19:38:54:114,1.6271,2.0195,7.48,61.5195,0.3086,-0.0128,0.0541,41.6251
19:38:54:137,0.2441,1.6845,9.0138,60.9123,-0.1984,-0.2132,-0.36,42.4705
19:38:54:155,0.012,1.6582,9.0449,63.7886,-0.2485,0.0543,-0.404,42.9601
19:38:54:175,-0.3254,1.8951,8.6644,61.1072,-0.1936,0.1362,-0.4186,43.4292
19:38:54:199,-0.7872,2.1679,8.1882,61.3991,-0.1056,0.0336,-0.4443,43.972
19:38:54:214,-1.2132,2.4239,7.5661,63.2158,-0.0164,-0.069,-0.4418,44.5576
19:38:54:233,-1.2395,2.6369,7.255,61.0054,0.0092,-0.1154,-0.3795,45.0791
19:38:54:255,-1.1653,2.7757,7.4297,60.7499,-0.0299,-0.1008,-0.2953,45.5083
19:38:54:273,-0.9763,2.9025,7.6451,60.6426,-0.0702,-0.0495,-0.2281,45.8421
19:38:54:296,-0.8686,3.0437,8.0016,61.9142,-0.086,-0.0067,-0.1939,46.1251
19:38:54:313,-0.6628,3.015,8.1571,61.9142,-0.0665,-0.0397,-0.1829,46.402
19:38:54:334,-0.5192,2.9791,8.6501,61.2536,-0.0335,-0.1057,-0.1523,46.665
19:38:54:354,-0.2273,2.8355,9.0114,60.0151,0.0239,-0.157,-0.1071,46.9052
19:38:54:374,0.146,2.6417,8.9922,62.4471,0.0923,-0.146,-0.0619,47.0872
19:38:54:395,0.3948,2.4167,9.2004,61.5506,0.0886,-0.0263,-0.035,47.2079
19:38:54:414,0.055,2.5914,9.5091,60.6238,0.0508,0.1044,-0.0191,47.2806
19:38:54:432,-0.5958,2.9671,9.5474,59.9986,0.0434,0.1851,0.0187,47.2804
19:38:54:452,-0.859,3.3906,9.21,61.221,0.0459,0.2571,0.1103,47.1646
19:38:54:472,-0.7777,3.752,9.3153,59.7107,-0.0237,0.328,0.1898,46.9252
19:38:54:558,-1.0265,3.7256,10.1839,61.5413,-0.1703,0.3292,0.202,46.6975
19:38:54:559,-1.5434,3.606,11.0166,60.9241,-0.2534,0.4282,0.2154,46.4284
19:38:54:559,-2.2445,4.0965,11.6602,58.5049,-0.1765,0.6408,0.2618,46.0641
19:38:54:560,-3.2423,4.063,9.6814,59.7252,0.0557,0.295,0.2093,45.8806
19:38:54:571,-2.9193,3.594,9.8656,60.6307,-0.0311,-0.0666,0.2117,45.8036
19:38:54:592,-3.003,0.6197,14.8307,61.2871,-0.6639,-0.1839,0.1971,45.7988
19:38:54:628,-4.4889,1.3232,15.7831,59.4647,-0.5198,0.0079,0.3009,45.6283
19:38:54:633,-3.673,1.9549,11.2008,61.8756,0.2682,0.1069,0.621,45.1204
19:38:54:671,-1.8951,2.3857,6.5922,60.6238,0.8229,-0.1753,0.8373,44.4103
19:38:54:671,-1.2323,2.4239,5.726,60.9207,0.6445,-0.5699,0.7212,43.9377
19:38:54:696,-1.742,2.4598,7.724,59.1353,0.1118,-0.8387,0.4646,43.8517
19:38:54:712,-1.864,1.9669,9.5115,58.8362,-0.1972,-0.8326,0.307,43.9503
19:38:54:731,-1.6056,1.2419,10.014,58.5607,-0.1911,-0.6066,0.2875,44.0149
19:38:54:751,-1.3376,0.8877,9.7531,57.9378,-0.0616,-0.3121,0.3584,43.92
19:38:54:771,-1.1964,1.0768,9.3057,59.4957,0.0434,-0.1093,0.4744,43.6115
19:38:54:794,-1.1294,1.5099,8.5256,60.0747,0.1204,0.0092,0.5734,43.1648
19:38:54:813,-1.1462,1.8688,7.6953,59.719,0.1619,0.1289,0.6296,42.6136
19:38:54:832,-1.0098,2.3833,7.2479,58.5166,0.1265,0.2156,0.6736,41.9565
19:38:54:852,-1.084,2.5484,8.0997,59.1166,0.0324,0.3121,0.6821,41.2678
19:38:54:871,-0.9571,2.2851,8.5591,56.9964,0.0532,0.2706,0.6503,40.6352
19:38:54:893,-1.5601,2.7087,7.9729,58.7896,0.2182,0.0568,0.621,40.0928
19:38:54:911,-1.0289,2.3569,7.5422,58.8362,0.2707,-0.1289,0.6296,39.6107
19:38:54:933,-1.0887,2.7087,7.7958,57.9061,0.1839,-0.1375,0.6772,39.0891
19:38:54:951,-0.859,3.0508,8.3892,56.7482,0.0557,-0.0128,0.7432,38.4509
19:38:54:971,-0.6437,3.0461,9.2315,57.9378,-0.0433,0.1851,0.7835,37.7002
19:38:54:992,-0.7274,3.0939,9.6191,56.3678,-0.0677,0.2779,0.7444,36.9645
19:38:55:012,-0.6772,3.1274,9.6694,54.8716,-0.0677,0.2987,0.7102,36.2672
19:38:55:031,-0.323,2.9934,10.0881,54.8752,-0.1239,0.2303,0.7066,35.5729
19:38:55:051,0.5599,2.5962,11.7775,57.1778,-0.2888,0.0629,0.6516,34.2126
19:38:55:071,0.3039,2.7135,12.3853,59.287,-0.3512,0.0715,0.5954,33.6953
19:38:55:092,0.6891,2.2732,12.2178,56.8105,-0.3402,0.0898,0.5734,33.1983
19:38:55:127,0.938,1.7061,12.9787,57.8807,-0.4012,-0.0092,0.5416,32.7802
19:38:55:131,0.9236,1.2682,13.9597,57.6247,-0.4465,-0.1008,0.4976,32.4428
19:38:55:155,0.9619,1.0002,13.5577,59.1277,-0.2534,-0.0141,0.5135,32.0561
19:38:55:172,0.9906,1.1749,12.0431,58.9666,0.0874,0.1936,0.599,31.516
19:38:55:203,1.1366,1.34,10.1695,56.8497,0.3867,0.3854,0.6992,30.7879
19:38:55:224,1.2682,1.4357,8.8176,55.9515,0.5126,0.4099,0.7383,30.0172
19:38:55:231,1.3998,1.5888,8.2552,57.8336,0.4613,0.2975,0.7114,29.2869
19:38:55:254,1.529,1.5697,8.0255,57.9005,0.311,0.1448,0.61,28.7142
19:38:55:272,1.4788,1.4572,8.1835,56.0829,0.1216,0.0861,0.461,28.3182
19:38:55:293,1.3711,1.3663,8.6788,53.841,-0.0726,0.1338,0.3315,28.0432
19:38:55:322,0.658,1.5099,8.9779,53.8403,-0.1606,0.1887,0.2093,27.9071
19:38:55:339,0.0526,1.6534,8.6788,56.9233,-0.0983,0.1973,0.1262,27.8547
19:38:55:351,-0.2465,1.8784,8.0016,56.393,0.0312,0.1667,0.1323,27.8321
19:38:55:371,-0.1914,2.1535,7.5422,56.393,0.1131,0.1631,0.1849,27.7454
19:38:55:391,-0.0239,2.4909,7.0086,57.6671,0.14,0.1948,0.2411,27.5779
19:38:55:426,-0.0144,2.8259,6.8291,56.393,0.096,0.1997,0.2521,27.3863
19:38:55:445,-0.1771,2.881,7.3053,54.2947,-0.0005,0.1264,0.2203,27.2637
19:38:55:451,-0.3613,2.881,7.8341,55.1745,-0.0579,0.0275,0.1812,27.2186
19:38:55:472,-0.3829,2.9264,8.1619,54.657,-0.0653,-0.0092,0.1849,27.1754
19:38:55:493,-0.1842,2.9575,8.9037,53.978,-0.0946,0.0287,0.2337,27.0638
19:38:55:516,0.122,2.9958,10.002,55.2552,-0.0457,0.1252,0.3205,26.8686
19:38:55:531,-0.2297,3.2351,10.4638,54.1412,0.0398,0.1167,0.3302,26.4883
19:38:55:552,-0.7466,3.5175,10.6911,55.0191,0.1473,0.0971,0.3584,26.2726
19:38:55:571,-1.1007,3.8812,10.1504,54.615,0.2878,0.1509,0.4439,26.1271
19:38:55:591,-1.084,4.3454,9.655,52.2468,0.3733,0.2498,0.5697,25.7933
19:38:55:613,-0.725,4.3669,9.5952,53.0653,0.3403,0.3256,0.6638,25.1371
19:38:55:631,-0.7705,4.2209,9.6526,53.1506,0.2548,0.4209,0.6784,24.4343
19:38:55:651,-1.3878,4.1348,9.7819,53.8302,0.1632,0.5479,0.6601,23.7433
19:38:55:672,-2.01,3.8166,10.1288,54.2685,0.0825,0.6335,0.6797,23.0311
19:38:55:694,-2.4718,3.4863,10.7892,53.6728,0.0593,0.6176,0.775,22.2526
19:38:55:719,-2.4431,3.3165,10.7988,55.5079,0.1693,0.5834,0.9485,21.297
19:38:55:733,-2.0794,3.4696,10.0858,54.2818,0.3122,0.5675,1.1183,20.1589
19:38:55:751,-0.804,2.1799,10.0451,53.3809,0.2951,0.5626,1.1696,18.9465
19:38:55:775,-0.5025,0.9093,11.0405,52.735,0.0923,0.3195,1.0462,17.9444
19:38:55:790,-1.8927,1.2945,12.0646,52.3909,-0.0592,-0.0336,0.869,17.2943
19:38:55:811,-2.321,1.73,10.6313,53.4569,0.1546,0.1423,0.9594,16.5026
19:38:55:830,-2.0506,2.0148,7.8556,54.0776,0.4833,0.6286,1.1806,15.2815
19:38:55:851,-1.6199,2.3737,6.4343,52.0728,0.4344,0.7984,1.271,13.8834
19:38:55:871,-0.859,2.6393,7.0445,53.4293,0.0239,0.5162,1.2233,12.6046
19:38:55:893,-0.3254,2.1152,9.1621,52.2075,-0.4147,0.0739,0.9985,11.7292
19:38:55:913,-0.7083,1.3185,10.7438,53.7921,-0.5857,-0.2425,0.6736,11.1753
19:38:55:933,-1.3711,0.8806,11.4066,53.2221,-0.4929,-0.339,0.4891,10.9257
19:38:55:952,-1.7252,1.1174,9.2411,52.7221,0.0874,0.1997,0.7884,10.2859
19:38:55:972,-1.2227,1.8185,7.7216,53.7082,0.2438,0.5027,1.0315,9.0789
19:38:55:991,-1.0146,2.3952,6.8698,53.4009,0.2023,0.6579,1.1036,7.912
19:38:56:012,-0.9308,2.6632,6.7047,51.919,0.0691,0.6958,1.0792,6.7422
19:38:56:032,-1.017,2.814,7.0134,52.8127,-0.0677,0.5773,1.0034,5.6868
19:38:56:052,-1.0337,2.7446,7.6235,51.9203,-0.1728,0.4135,0.9106,4.8051
19:38:56:071,-1.0528,2.5196,8.3773,55.8214,-0.2473,0.3182,0.8507,3.9962
19:38:56:093,-1.084,2.5077,9.1765,52.0836,-0.2815,0.2645,0.8458,3.2476
19:38:56:114,-0.8973,2.6895,9.7484,53.3682,-0.2327,0.2559,0.8837,2.4263
19:38:56:132,-0.8829,2.8427,9.801,51.3315,-0.1337,0.2767,0.902,1.5815
19:38:56:152,-0.9404,2.9001,9.7484,52.9749,-0.0641,0.3182,0.8861,0.7247
19:38:56:171,-0.9093,2.9456,9.7125,53.5886,-0.0641,0.3146,0.869,359.9049
19:38:56:191,-0.5145,2.869,10.1384,52.4199,-0.1361,0.1973,0.8531,359.1435
19:38:56:215,0.1412,2.4024,11.0524,52.5985,-0.251,0.0299,0.8092,358.4702
19:38:56:233,0.3781,2.2827,12.3278,53.0297,-0.3817,-0.1375,0.742,357.8959
19:38:56:252,0.7753,2.333,13.5697,52.6774,-0.4562,-0.256,0.7273,357.3669
19:38:56:271,1.5075,1.9143,13.6989,51.0306,-0.3744,-0.2181,0.7517,356.7529
19:38:56:291,2.0626,1.3687,13.0457,51.3649,-0.2082,-0.0788,0.7261,356.0944
19:38:56:313,1.9669,0.8327,12.3494,52.1382,-0.0738,0.0311,0.6308,355.5087
19:38:56:333,1.3591,0.9691,11.2343,50.9427,0.0691,0.146,0.5551,355
19:38:56:352,1.0648,1.2156,9.5139,51.9407,0.267,0.405,0.5831,354.3842
19:38:56:371,1.2275,1.4165,7.858,52.9008,0.377,0.6066,0.6406,353.626
19:38:56:393,1.5051,1.7204,6.9009,52.5499,0.289,0.5626,0.6259,352.3692
19:38:56:413,1.8305,2.0315,6.8937,51.4649,0.0447,0.3158,0.5208,352.0722
19:38:56:431,1.9143,1.9501,8.004,51.3262,-0.3927,0.102,0.1323,351.8238
19:38:56:451,1.2825,2.053,8.193,50.5717,-0.4318,0.1594,-0.0497,351.9621
19:38:56:470,0.7035,2.1248,8.2768,52.213,-0.3866,0.1374,-0.1755,352.257
19:38:56:495,0.3159,2.199,7.9801,52.221,-0.2901,0.08,-0.2305,352.6479
19:38:56:513,-0.0072,2.4766,7.6307,51.8937,-0.1997,0.091,-0.2513,353.0575
19:38:56:532,-0.0814,2.5364,7.4417,52.2609,-0.1655,0.1521,-0.2427,353.455
19:38:56:551,-0.2058,2.6895,7.4441,52.3362,-0.1838,0.2364,-0.2281,353.8051
19:38:56:680,-0.2584,2.8379,8.193,53.3927,-0.2449,0.2963,-0.2036,354.1322
19:38:56:681,-0.28,2.7494,8.7817,53.9969,-0.2595,0.306,-0.167,354.4111
19:38:56:681,-0.5121,2.7709,9.1861,52.9341,-0.1899,0.2657,-0.1315,354.6711
19:38:56:681,-0.2058,2.613,9.6957,52.3901,-0.1166,0.1545,-0.0607,354.8772
19:38:56:683,0.0431,2.601,10.1432,52.3573,-0.0518,0.0739,0.0126,355.0114
19:38:56:683,-0.2656,2.8116,10.4949,54.288,-0.0054,0.0812,0.0383,355.1158
19:38:56:697,-0.7633,2.9264,11.2678,52.0489,-0.0042,0.0885,0.07,355.2087
19:38:56:711,-0.7944,2.948,12,51.9396,0.0019,0.0067,0.1592,355.2174
19:38:56:731,-0.7178,2.924,12.2967,51.6239,0.0801,-0.0312,0.2789,355.0984
19:38:56:750,-0.7274,3.4122,12.4642,53.0072,0.1644,0.0324,0.3718,354.8641
19:38:56:771,-1.0576,3.807,11.8229,53.0072,0.2902,0.2694,0.4207,354.5237
19:38:56:792,-1.8497,4.3813,10.2796,51.1903,0.4038,0.5113,0.4011,354.1711
19:38:56:813,-1.2419,3.661,9.6168,54.1124,0.2902,0.5015,0.362,353.8377
19:38:56:830,-0.0526,1.4907,10.6935,50.4145,-0.1031,0.1472,0.2117,353.7176
19:38:56:851,-0.323,0.1388,13.3065,52.8509,-0.5332,-0.3476,-0.0509,354.0277
19:38:56:871,-1.7587,0.1819,14.7852,51.2208,-0.5772,-0.6371,-0.1926,354.6126
19:38:56:892,-3.4959,0.9571,9.1621,51.3805,0.8767,0.284,0.4304,354.5232
19:38:56:918,-3.2088,1.8784,5.7858,52.4913,1.314,0.6933,0.8544,353.6825
19:38:56:942,-2.7517,2.9815,4.2903,53.1056,1.0404,0.6701,1.0511,352.6215
19:38:56:951,-1.6534,3.3404,5.1446,53.9001,0.3684,0.5088,1.0499,351.5768
19:38:56:971,-1.1198,2.9073,7.1833,50.763,-0.2437,0.3244,0.7872,350.8455
19:38:56:990,-1.7874,2.0626,8.863,51.2053,-0.5075,0.19,0.3962,350.5769
19:38:57:015,-2.412,1.4524,9.6287,51.2843,-0.4489,0.0702,0.1885,350.5739
19:38:57:035,-2.7135,1.3495,9.5761,52.2358,-0.2241,-0.0776,0.2032,350.6195
19:38:57:052,-2.3928,1.4572,9.0042,53.6637,-0.0115,-0.1277,0.3645,350.5035
19:38:57:071,-1.6893,1.7204,8.3653,51.8967,0.0679,0.0531,0.5489,350.1088
19:38:57:092,-1.7037,2.1392,7.9825,53.1223,0.0105,0.3292,0.6149,349.5621
19:38:57:116,-2.0148,2.2995,8.0327,52.2011,-0.0824,0.4771,0.5758,349.0342
19:38:57:135,-2.1464,2.4144,8.2122,52.91,-0.1203,0.3806,0.5563,348.5284
19:38:57:151,-1.9549,2.5029,8.4634,52.1325,-0.1068,0.1912,0.5819,348.0616
19:38:57:170,-1.5003,2.5579,8.7769,53.8427,-0.0689,0.0678,0.6271,347.5469
19:38:57:191,-1.1749,2.6082,9.0903,52.96,-0.0311,0.0251,0.6455,347.0495
19:38:57:213,-0.9739,2.7781,9.3296,50.2931,-0.0018,0.0214,0.6332,346.559
19:38:57:231,-0.9667,2.8953,9.399,53.3445,0.03,0.0373,0.6039,346.0292
19:38:57:252,-0.9858,2.991,9.545,53.405,0.0398,0.0519,0.5624,345.5789
19:38:57:270,-0.5288,3.082,9.7436,54.3656,0.0263,0.0067,0.5453,345.1572
19:38:57:292,0.0742,3.1753,10.191,52.1657,-0.0274,-0.036,0.5184,344.7667
19:38:57:312,0.6724,3.0891,10.9017,54.7379,-0.1178,-0.0446,0.4439,344.4109
19:38:57:333,1.1773,3.0197,11.9617,53.0551,-0.1471,-0.1545,0.2093,343.9358
19:38:57:351,0.9404,3.0413,11.6937,52.1091,-0.0604,-0.2327,0.0639,344.0293
19:38:57:370,1.0744,2.187,11.5047,51.8659,-0.0213,-0.2743,-0.0643,344.2646
19:38:57:390,1.1725,1.2179,12.1172,52.4326,-0.108,-0.3659,-0.1902,344.6558
19:38:57:416,0.6556,0.6676,12.8686,54.0721,-0.1887,-0.4734,-0.2867,345.1772
19:38:57:433,-0.0191,0.7681,12.28,52.5704,-0.0433,-0.3659,-0.2513,345.6802
19:38:57:450,0.1962,0.9858,10.6409,52.58,0.2829,-0.0861,-0.0509,345.8757
19:38:57:471,0.8877,1.2658,9.0473,52.4167,0.4918,-0.0324,0.0786,345.9115
19:38:57:491,1.4524,1.3328,8.0088,53.3445,0.4539,-0.1802,0.0224,346.0082
19:38:57:516,1.1677,1.3352,7.7312,52.1728,0.245,-0.2841,-0.167,346.3506
19:38:57:533,0.6604,1.2945,7.9011,50.6747,0.0239,-0.2291,-0.3441,346.8876
19:38:57:554,0.2369,1.4453,7.8604,54.1157,-0.0958,-0.1387,-0.4162,347.4884
19:38:57:571,-0.1172,1.7492,7.6068,52.553,-0.108,-0.0959,-0.4272,348.1111
19:38:57:591,-0.2153,2.1512,7.1545,52.2567,-0.0702,-0.0922,-0.3869,348.6895
19:38:57:613,0.0359,2.534,6.7071,53.2174,-0.0335,-0.0849,-0.3258,349.1924
19:38:57:633,0.1819,2.8522,6.4702,51.6512,-0.0543,-0.0654,-0.3075,349.6698
19:38:57:653,0.067,2.991,6.92,53.237,-0.1581,-0.0446,-0.3539,350.183
19:38:57:671,-0.1268,2.9432,7.5924,53.6217,-0.2791,-0.0397,-0.4235,350.778
19:38:57:690,-0.5838,2.9025,8.4514,52.0531,-0.3426,-0.0336,-0.4809,351.4507
19:38:57:713,-0.6508,2.6584,9.2195,52.3695,-0.3487,-0.0886,-0.4846,352.1355
19:38:57:731,-0.5384,2.4694,9.6885,51.3962,-0.2876,-0.1228,-0.4235,352.7573
19:38:57:751,-0.3685,2.455,9.9972,53.0198,-0.2278,-0.1057,-0.3344,353.2888
19:38:57:771,-0.2106,2.455,10.5236,52.6913,-0.1936,-0.0177,-0.2256,353.6509
19:38:57:793,-0.6532,3.216,10.6433,50.6619,-0.036,0.1729,0.0236,353.9345
19:38:57:821,-0.1101,3.5175,10.3825,52.9026,0.0789,0.2229,0.1922,353.7756
19:38:57:839,0.5001,3.6467,10.3059,52.0907,0.1339,0.2132,0.2924,353.5131
19:38:57:862,0.8925,3.6156,10.6528,51.6512,0.1265,0.1863,0.2765,353.2463
19:38:57:871,0.4427,3.4433,10.9424,50.8961,0.1277,0.2156,0.1555,353.1016
19:38:57:890,-0.7489,3.3428,10.5595,52.0294,0.2035,0.328,0.015,353.1287
19:38:57:910,-1.9238,3.4193,10.0068,52.2109,0.245,0.3806,-0.046,353.1973
19:38:57:931,-2.6656,3.46,9.7914,52.58,0.1717,0.3818,-0.0069,353.2772
19:38:57:950,-2.534,3.0485,10.0211,52.7842,-0.0225,0.3244,0.0835,353.2788
19:38:57:972,-1.1844,1.0217,11.2989,52.8654,-0.2497,0.1509,0.1152,353.2329
19:38:57:991,-1.3161,0.4666,12.347,53.1421,-0.3866,-0.2022,0.0089,353.4119
19:38:58:016,-2.8499,1.541,11.9545,52.9181,-0.2766,-0.2413,-0.0143,353.6802
19:38:58:034,-3.2327,1.8712,10.0953,51.2939,0.118,0.1985,0.2557,353.5674
19:38:58:052,-2.4407,1.8568,8.1523,52.1439,0.4625,0.5162,0.6027,352.9506
19:38:58:071,-1.1629,2.1057,7.212,52.7186,0.4552,0.3586,0.7579,352.17
19:38:58:090,-0.0814,2.1823,7.5517,50.8941,0.1485,-0.0153,0.6846,351.5337
19:38:58:111,0.0383,1.6487,8.6381,50.8992,-0.2131,-0.1985,0.4036,351.2436
19:38:58:132,-0.4881,1.1653,9.3846,53.1383,-0.3597,-0.1545,0.1226,351.2649
19:38:58:155,-0.8399,0.8662,9.3727,51.5142,-0.2595,-0.0984,0.0224,351.3905
19:38:58:172,-1.0863,0.9093,8.9109,51.2424,-0.0494,-0.1216,0.0773,351.4628
19:38:58:191,-0.9332,1.4836,8.2911,49.7059,0.1192,-0.1753,0.2301,351.3859
19:38:58:214,-0.5121,2.1296,7.4297,50.2466,0.2023,-0.1032,0.4072,351.0883
19:38:58:231,-0.4427,2.5077,6.9775,52.4016,0.1962,0.0666,0.461,350.6794
19:38:58:251,-0.481,2.8092,7.4225,52.4469,-0.0311,0.0873,0.3547,350.3125
19:38:58:272,-0.5671,2.7709,7.9753,54.2945,-0.1166,-0.0104,0.2948,349.728
19:38:58:291,-0.7466,2.7972,8.6548,51.8258,-0.1752,-0.0959,0.2411,349.6367
19:38:58:314,-0.8997,2.7541,9.2937,51.1748,-0.1911,-0.1228,0.2313,349.5354
19:38:58:330,-1.0911,2.8211,9.9302,50.2911,-0.1581,-0.1375,0.2423,349.4453
19:38:58:351,-0.9882,2.8427,10.3513,51.6328,-0.0836,-0.1924,0.2814,349.3242
19:38:58:370,-0.737,2.7829,10.4088,50.5658,0.0129,-0.2278,0.3217,349.1849
19:38:58:391,-0.5025,2.747,10.5978,49.9747,0.0386,-0.2144,0.3254,349.0063
19:38:58:417,-0.1149,2.5986,11.086,53.3666,-0.0396,-0.168,0.3046,348.8291
19:38:58:432,0.0168,2.4191,11.6842,52.201,-0.1312,-0.0727,0.2667,348.6688
19:38:58:450,-0.189,2.5029,11.8588,52.469,-0.1374,-0.0116,0.2264,348.5528
19:38:58:472,0.067,2.6752,11.6339,53.33,-0.0702,-0.0409,0.2337,348.4196
19:38:58:491,1.0409,2.5412,11.5119,52.7332,-0.0409,-0.124,0.2814,348.3131
19:38:58:517,2.0961,2.1846,11.6889,53.3837,-0.1203,-0.1631,0.2509,348.2229
19:38:58:534,2.6752,1.0433,12.5073,53.405,-0.284,-0.1509,0.0969,348.2674
19:38:58:552,2.0889,0.6054,13.3998,53.395,-0.4,-0.1485,-0.1047,348.5511
19:38:58:571,1.2754,0.7346,12.7633,50.9091,-0.2253,0.0397,-0.1645,348.7707
19:38:58:590,1.3017,0.7609,10.7964,50.3296,0.2316,0.3524,-0.0375,348.7599
19:38:58:617,1.7157,0.8112,8.9252,51.4676,0.57,0.3549,0.0395,348.6602
19:38:58:634,2.1655,0.9547,7.858,52.201,0.57,0.1105,-0.0106,348.6443
19:38:58:654,2.3354,0.9117,7.6259,54.0451,0.3269,-0.1228,-0.1682,348.8904
19:38:58:669,1.9454,0.8662,7.9059,52.4167,0.03,-0.1411,-0.3588,349.3577
19:38:58:794,1.2323,0.9452,8.138,52.3082,-0.1752,-0.0043,-0.4749,349.9088
19:38:58:795,0.6245,1.4333,8.138,51.9324,-0.1667,0.0299,-0.4614,350.9585
19:38:58:795,0.5073,1.9143,7.6977,52.2477,-0.0323,-0.0177,-0.4174,351.49
19:38:58:795,0.457,2.2062,7.2168,48.4362,0.0715,-0.0153,-0.3918,352.0052
19:38:58:796,0.3876,2.5723,7.0205,48.4612,0.0923,-0.0275,-0.3893,352.4923
19:38:58:796,0.347,2.8331,7.2838,49.4333,0.0312,-0.0641,-0.4064,353.0126
19:38:58:811,0.5838,2.948,7.8389,48.9126,-0.0653,-0.1044,-0.4125,353.553
19:38:58:834,0.5838,3.0413,8.6166,48.9126,-0.141,-0.1216,-0.4284,354.1173
19:38:58:850,0.6724,2.9599,9.2841,48.9126,-0.1642,-0.1509,-0.4345,354.6888
19:38:58:869,0.8255,2.869,9.6694,48.9126,-0.1166,-0.1545,-0.4199,355.2356
19:38:58:890,0.8279,2.8762,9.9326,48.9126,-0.0604,-0.1081,-0.3967,355.7404
19:38:58:916,0.5695,3.1561,10.1575,48.9126,-0.0091,-0.0544,-0.3502,356.2721
19:38:58:935,0.323,3.5509,10.0259,48.9126,0.0703,0.0043,-0.2818,356.7164
19:38:58:952,0.256,3.7807,9.7603,47.0874,0.1644,0.069,-0.2036,357.0576
19:38:58:969,0.3015,3.8596,9.9613,45.1015,0.1901,0.0934,-0.1487,357.3398
19:38:58:990,0.3565,3.6778,10.3274,47.2356,0.1571,0.0983,-0.1328,357.6252
19:38:59:010,0.0431,3.4911,10.6528,47.0239,0.1485,0.1386,-0.1731,357.8557
19:38:59:032,-0.7489,3.1729,10.7342,46.3598,0.1644,0.1692,-0.2427,358.1835
19:38:59:052,-1.8473,3.3021,10.5547,45.9461,0.1656,0.1399,-0.261,358.5673
19:38:59:070,-2.5244,3.6108,10.2915,45.6311,0.1204,0.1729,-0.1597,358.8468
19:38:59:091,-2.1272,3.3212,10.2006,44.3375,-0.0128,0.2388,0.0016,358.9205
19:38:59:112,-0.6867,1.2706,11.4138,44.2809,-0.2595,0.1484,0.037,358.9266
19:38:59:132,-0.7394,0.0646,13.2395,43.9854,-0.5161,-0.2657,-0.0912,359.2097
19:38:59:154,-1.8951,0.6461,13.8855,43.9821,-0.4892,-0.598,-0.1328,359.6606
19:38:59:171,-2.5866,1.2443,9.1717,41.7074,0.6909,0.2718,0.4879,359.8283
19:38:59:189,-1.7898,1.5338,7.1833,41.7074,0.9243,0.3842,0.7505,358.5418
19:38:59:211,-0.4331,1.8688,6.932,44.5762,0.6201,0.1118,0.8421,357.6835
19:38:59:232,0.4403,1.9693,7.8461,42.6924,0.1094,-0.0849,0.7322,356.9934
19:38:59:251,0.1268,1.5745,8.9252,42.886,-0.2461,-0.0104,0.4182,356.6432
19:38:59:270,-0.6485,1.1964,9.4397,43.0619,-0.334,0.069,0.1421,356.5805
19:38:59:290,-0.95,1.1868,9.3679,43.9056,-0.2278,-0.0128,0.092,356.5917
19:38:59:315,-0.6724,1.3878,8.7458,42.6899,-0.0311,-0.0617,0.1922,356.4957
19:38:59:331,-0.4714,1.7492,7.7982,40.676,0.1509,0.0226,0.2997,356.2843
19:38:59:349,-0.3565,2.0698,6.9105,42.7421,0.2194,0.1521,0.3412,355.974
19:38:59:369,-0.3637,2.2756,6.4798,41.3806,0.1619,0.2193,0.3461,355.636
19:38:59:390,-0.3589,2.546,6.7478,41.0975,-0.0067,0.1521,0.3266,355.3177
19:38:59:410,-0.2656,2.6249,7.657,38.5579,-0.1874,0.0324,0.3034,355.0648
19:38:59:434,-0.079,2.6058,8.4706,39.459,-0.2705,-0.0177,0.2924,354.8154
19:38:59:449,0.0168,2.7326,9.1765,41.8674,-0.2449,-0.0055,0.2912,354.5541
19:38:59:470,0.1125,2.869,9.6024,41.9276,-0.1447,-0.0275,0.2875,354.368
19:38:59:490,0.134,3.0317,9.4636,40.8182,0.0227,-0.0568,0.2789,354.1789
19:38:59:509,-0.0311,3.2518,8.9827,40.0748,0.1534,-0.0703,0.2496,354.0105
19:38:59:533,-0.0718,3.1801,8.8941,40.6109,0.1387,-0.1044,0.2117,353.9161
19:38:59:551,-0.067,3.1298,9.5569,39.3446,-0.0103,-0.1594,0.1702,353.8687
19:38:59:570,0.2441,2.948,10.5093,40.1564,-0.1936,-0.1875,0.1384,353.8652
19:38:59:589,0.8877,2.5842,11.0381,39.8922,-0.2815,-0.1252,0.1165,353.829
19:38:59:611,1.1486,2.5795,11.3587,39.3031,-0.2974,-0.0483,0.0786,353.8218
19:38:59:634,2.0172,1.9023,12.3733,37.5016,-0.4391,-0.2193,-0.0692,353.8693
19:38:59:652,2.3258,0.8088,13.6654,39.5018,-0.5808,-0.4197,-0.2525,354.3438
19:38:59:670,2.1344,-0.3111,14.8618,40.7368,-0.6627,-0.5357,-0.415,354.9508
19:38:59:690,1.2084,-0.1962,14.4503,38.8553,-0.4782,-0.35,-0.4174,355.5306
19:38:59:710,0.6915,0.3661,12.3781,38.8553,0.0056,0.2303,-0.2012,355.7608
19:38:59:731,1.2682,0.603,9.8369,38.2019,0.4686,0.6603,0.103,355.5447
19:38:59:751,1.809,1.2203,7.9346,37.2594,0.6641,0.6909,0.2203,355.1676
19:38:59:770,2.2038,1.6487,6.7884,38.3322,0.5871,0.4477,0.1165,354.9441
19:38:59:790,1.9908,1.7492,6.4534,38.3749,0.3061,0.1374,-0.2085,355.1465
19:38:59:810,1.0935,1.4572,7.011,35.4731,-0.0335,-0.047,-0.5934,355.8503
19:38:59:833,0.0957,1.4094,7.815,36.3736,-0.2815,-0.1179,-0.8023,356.8247
19:38:59:850,-0.5192,1.5577,8.3749,37.3921,-0.3463,-0.1631,-0.8218,357.8545
19:38:59:870,-0.7896,1.7204,8.4419,37.6544,-0.2143,-0.1252,-0.7082,358.7371
19:38:59:891,-0.7657,2.0339,7.8963,33.5029,-0.0054,-0.0703,-0.5591,359.4632
19:38:59:917,-0.5025,2.3833,7.2622,38.4154,0.1253,-0.0495,-0.4529,0.0432
19:38:59:932,-0.3135,2.613,7.1378,35.7507,0.0972,-0.0495,-0.4089,0.5645
19:38:59:951,-0.1866,2.6776,7.6857,35.7681,-0.0433,-0.0446,-0.404,1.073
19:38:59:970,-0.201,2.6465,8.6548,34.7996,-0.1862,-0.0568,-0.4162,1.6089
19:38:59:990,-0.2417,2.6201,9.454,34.5674,-0.2204,-0.0605,-0.4016,2.0925
19:39:00:023,-0.3039,2.6201,9.8225,34.2774,-0.1459,-0.047,-0.3527,2.5644
19:39:00:029,-0.3757,2.5938,9.9924,32.8602,-0.0347,-0.0519,-0.2757,2.9473
19:39:00:063,-0.3493,2.5005,9.813,34.397,0.0789,-0.0617,-0.1657,3.196
19:39:00:069,-0.7226,2.6776,9.4612,33.0807,0.1546,0.0141,-0.0497,3.3366
19:39:00:090,-1.4477,2.8953,9.6742,33.9292,-0.0506,0.515,0.296,3.2773
19:39:00:111,-0.1292,2.6345,10.5045,32.6797,-0.2033,0.5907,0.5245,2.2083
19:39:00:128,0.8207,2.9264,11.2965,33.7294,-0.2632,0.5687,0.6051,1.4526
19:39:00:149,0.6365,3.2112,11.9689,31.799,-0.2559,0.5296,0.4707,0.8381
19:39:00:169,-0.5504,3.1705,12.1579,31.2937,-0.1361,0.4074,0.2264,0.5432
19:39:00:189,-1.6271,3.2064,11.6028,32.2778,0.0862,0.1777,0.0493,0.5435
19:39:00:210,-1.3854,2.936,11.2606,32.459,0.2206,-0.113,0.0224,0.6271
19:39:00:232,-0.1412,1.6965,11.9474,33.4009,0.1253,-0.3855,0.0175,0.7187
19:39:00:250,-0.5288,0.9978,13.1151,32.8848,-0.0677,-0.6359,-0.1266,1.0315
19:39:00:269,-2.1631,1.2897,13.139,31.8961,-0.0396,-0.6518,-0.2317,1.5113
19:39:00:290,-2.7565,1.3137,11.3635,32.4338,0.3354,-0.2755,-0.0546,1.739
19:39:00:314,-2.2373,1.3208,9.1119,31.534,0.7227,0.0531,0.2521,1.5359
19:39:00:347,-1.3974,1.5745,7.8508,31.8961,0.741,0.0177,0.4072,1.1674
19:39:00:351,-0.5982,1.7755,8.1499,31.534,0.4063,-0.1607,0.3999,0.8221
19:39:00:368,-0.268,1.5793,9.1645,31.534,0.0312,-0.1912,0.2777,0.6169
19:39:00:388,-0.4427,1.3831,9.4852,32.8801,-0.0726,-0.0556,0.147,0.5194
19:39:00:408,-0.6796,1.4022,8.8654,32.4842,0.096,0.0202,0.0859,0.473
19:39:00:429,-0.6437,1.4524,7.7312,31.0189,0.3379,-0.0031,0.1103,0.4151
19:39:00:448,-0.4187,1.6247,6.7621,34.6686,0.4625,-0.0495,0.1702,0.3011
19:39:00:469,-0.3135,1.931,6.4343,33.8735,0.3904,-0.0947,0.213,0.1542
19:39:00:490,-0.1723,2.2349,6.6664,33.5961,0.2169,-0.1008,0.2362,359.965
19:39:00:512,-0.2943,2.6178,7.4512,32.8848,0.0031,-0.0128,0.1898,359.6024
19:39:00:532,-0.3446,2.7422,7.8269,31.0953,-0.0213,-0.0226,0.1788,359.4893
19:39:00:549,-0.2656,2.8068,8.1428,33.4009,-0.0311,-0.0483,0.18,359.321
19:39:00:568,-0.2704,2.7924,8.3677,34.39,-0.0286,-0.0605,0.1665,359.1943
19:39:00:588,-0.2943,2.9982,8.7888,34.8196,-0.0616,-0.0959,0.1592,359.0955
19:39:00:611,-0.1436,3.2231,9.3105,35.2717,-0.1227,-0.1081,0.1788,358.9677
19:39:00:632,-0.0383,3.1633,9.8704,34.8414,-0.1655,-0.0654,0.18,358.8073
19:39:00:649,-0.1125,2.9073,10.3513,33.8005,-0.1618,-0.0519,0.1372,358.7144
19:39:00:669,-0.0598,2.7685,10.605,32.4024,-0.1312,-0.1154,0.0945,358.6609
19:39:00:690,-0.0431,2.601,10.7677,34.9766,-0.1239,-0.1704,0.0505,358.701
19:39:00:713,-0.3278,2.3426,10.9448,33.7881,-0.1813,-0.1631,-0.0033,358.7954
19:39:00:729,-0.5791,2.4048,11.5358,32.3316,-0.284,-0.1851,-0.0216,358.9374
19:39:00:750,0.0574,2.1176,12.3972,33.3274,-0.3902,-0.2718,0.0505,358.9886
19:39:00:769,1.395,1.7228,13.3663,32.3595,-0.4843,-0.3879,0.1543,358.9002
19:39:00:789,2.9599,1.0672,14.3952,35.8385,-0.5442,-0.3781,0.213,358.6925
19:39:00:899,3.5797,0.7849,14.7733,36.2101,-0.4562,-0.1338,0.1714,358.4771
19:39:00:900,3.015,1.1366,13.5553,36.2288,-0.1031,0.2681,0.0883,358.2561
19:39:00:901,2.8211,1.2179,11.4664,35.7435,0.4234,0.5357,0.0554,358.0186
19:39:00:901,3.07,1.1988,9.2291,35.2717,0.8437,0.4429,0.004,357.8373
19:39:00:902,3.1609,1.3376,7.3962,31.9948,0.9915,0.1619,-0.1462,357.8665
19:39:00:915,2.7541,1.3161,6.2453,34.0492,0.818,-0.0886,-0.4003,358.2149
19:39:00:931,1.8425,1.1127,6.1519,33.0108,0.4014,-0.1362,-0.6691,358.8704
19:39:00:952,0.9571,0.9571,6.8483,32.4644,-0.0641,0.0519,-0.7778,359.614
19:39:00:969,0.2776,1.2156,7.6427,34.0659,-0.367,0.1997,-0.7326,0.2915
19:39:00:989,0.2369,1.6487,7.882,32.0394,-0.4037,0.2376,-0.6166,0.8179
19:39:01:010,0.1053,2.1846,7.0301,34.4634,-0.1227,0.2168,-0.575,1.2941
19:39:01:035,-0.2608,2.3737,6.786,31.977,-0.0616,0.1472,-0.619,1.8383
19:39:01:055,-0.6652,2.534,6.8315,33.2191,-0.0824,0.0409,-0.641,3.0516
19:39:01:072,-0.6006,2.6417,7.2957,34.5367,-0.1557,-0.0226,-0.6031,3.6468
19:39:01:089,-0.2943,2.6871,8.0566,33.4616,-0.2644,-0.0055,-0.5286,4.1458
19:39:01:110,-0.3829,2.8977,8.9204,34.0328,-0.3548,0.0885,-0.4724,4.5742
19:39:01:131,-0.5743,3.2471,9.6263,34.9342,-0.3622,0.1448,-0.4138,4.9197
19:39:01:149,-0.5504,3.6395,10.1432,34.0377,-0.2742,0.0751,-0.3246,5.1905
19:39:01:169,-0.1842,3.7854,10.6361,35.6597,-0.1569,-0.0654,-0.2281,5.3806
19:39:01:189,-0.0479,3.9051,11.007,34.1979,-0.0396,-0.1643,-0.1792,5.5194
19:39:01:211,-0.1077,3.8142,11.1553,35.221,0.074,-0.1326,-0.1694,5.6511
19:39:01:228,-0.2728,3.4265,11.2798,35.764,0.1693,-0.0067,-0.1523,5.7224
19:39:01:249,-0.4881,3.1274,11.3276,35.3946,0.2316,0.1203,-0.101,5.7188
19:39:01:269,-0.5623,3.1202,11.0046,32.9813,0.2951,0.2425,-0.002,5.6046
19:39:01:289,-0.8159,2.9839,10.1839,34.5652,0.3428,0.3427,0.0725,5.3529
19:39:01:310,-1.4668,3.003,9.6239,35.5803,0.2902,0.4086,0.0651,5.1239
19:39:01:331,-2.2349,3.1777,9.2985,36.4311,0.096,0.4587,0.0945,4.8677
19:39:01:349,-2.2134,2.7757,9.7938,34.7054,-0.1997,0.4954,0.1995,4.4593
19:39:01:369,-1.4453,1.6008,11.1841,35.1158,-0.5112,0.4539,0.2741,3.994
19:39:01:389,-0.9117,0.5647,12.4307,37.4255,-0.6688,0.2743,0.2863,3.5316
19:39:01:417,-1.2897,0.8423,12.7681,36.8552,-0.5576,0.1008,0.2899,2.63
19:39:01:436,-1.8616,1.2156,9.5665,36.6446,0.3367,0.2107,0.4475,2.0188
19:39:01:453,-1.6487,1.1557,7.9705,37.3327,0.5517,0.0666,0.4487,1.4329
19:39:01:470,-1.1844,1.1988,7.5517,37.5825,0.3831,-0.179,0.4341,1.0441
19:39:01:489,-0.4977,0.993,8.4371,36.6958,-0.0128,-0.2682,0.4048,0.5777
19:39:01:510,-0.4187,0.7777,9.4804,37.3504,-0.3304,-0.1252,0.329,0.1709
19:39:01:529,-0.8064,0.7657,9.7819,36.0628,-0.3841,0.0605,0.2667,359.7636
19:39:01:548,-1.1294,0.9811,9.277,35.7753,-0.2106,0.1545,0.285,359.3009
19:39:01:569,-0.9332,1.3711,8.1667,35.687,0.0532,0.1716,0.3901,358.7173
19:39:01:588,-0.4522,1.809,6.865,37.1886,0.267,0.1863,0.5037,358.0015
19:39:01:609,-0.1053,2.2684,5.9892,38.4378,0.322,0.2242,0.5416,357.2466
19:39:01:633,0.0407,2.6536,5.7787,36.9808,0.1766,0.2217,0.483,356.5426
19:39:01:651,0.0048,2.8833,6.5276,39.1468,-0.0751,0.1509,0.3522,356.0002
19:39:01:671,-0.146,2.8427,7.7264,38.8777,-0.2998,0.0202,0.202,355.6522
19:39:01:689,-0.5264,2.7374,8.6955,38.6978,-0.3719,-0.0421,0.0786,355.4551
19:39:01:709,-0.737,2.6488,9.1669,40.4815,-0.317,-0.0764,0.0089,355.3387
19:39:01:734,-0.725,2.5029,9.6933,39.0604,-0.2412,-0.135,-0.013,355.269
19:39:01:750,-0.7585,2.5531,10.2102,39.1468,-0.2082,-0.2181,-0.0228,355.2287
19:39:01:769,-0.8662,2.5196,10.526,38.6978,-0.1703,-0.1985,-0.0228,355.1948
19:39:01:789,-0.9117,2.2086,10.7294,39.5378,-0.1312,-0.1326,-0.0216,355.1284
19:39:01:809,-0.8327,1.9669,11.2343,38.9576,-0.1276,-0.168,-0.0191,355.0895
19:39:01:830,-0.7178,1.73,11.653,40.0975,-0.1203,-0.2755,-0.0057,355.0407
19:39:01:849,-0.7322,1.7898,11.7727,40.2574,-0.0897,-0.35,0.0089,354.9865
19:39:01:869,-0.6413,1.8521,11.4449,39.6931,-0.0592,-0.3341,0.0529,354.8722
19:39:01:889,0.1436,1.584,11.1888,39.9327,-0.0909,-0.3317,0.1079,354.6857
19:39:01:911,1.1294,0.926,11.6387,39.5736,-0.2449,-0.372,0.0993,354.4829
19:39:01:936,1.3974,-0.0622,13.8903,41.1785,-0.6187,-0.4233,-0.0643,354.3704
19:39:01:954,1.0098,0.201,13.529,39.4228,-0.3878,-0.0409,-0.013,354.2454
19:39:01:969,1.2897,0.2297,11.988,39.4064,0.0935,0.2376,0.1433,353.8773
19:39:01:988,1.8138,0.4666,10.4112,41.0988,0.4698,0.1093,0.169,353.4783
19:39:02:009,2.3665,0.6461,9.3177,39.6683,0.5529,-0.1154,0.0676,353.2076
19:39:02:031,2.3306,0.7107,8.5543,41.3294,0.4038,-0.0678,-0.156,353.18
19:39:02:050,1.6128,0.67,8.1859,40.582,0.1351,0.1826,-0.4223,353.4068
19:39:02:070,0.536,0.8159,8.0471,40.1523,-0.0799,0.3964,-0.586,353.8005
19:39:02:090,-0.1819,1.2203,7.7408,41.4813,-0.1288,0.4514,-0.597,354.244
19:39:02:108,-0.3805,1.73,7.1521,40.7455,-0.025,0.3952,-0.5078,354.5761
19:39:02:131,-0.2991,2.2564,6.5707,40.9373,0.1106,0.2669,-0.4223,354.8471
19:39:02:150,-0.1723,2.6369,6.2692,41.8455,0.1681,0.124,-0.3808,355.081
19:39:02:179,-0.3183,3.0532,6.3003,39.6069,0.1118,0.0263,-0.4064,355.3823
19:39:02:188,-0.6389,3.2279,6.9392,40.7092,-0.0201,-0.0617,-0.4871,355.7834
19:39:02:208,-0.725,2.9934,7.7862,41.0778,-0.1337,-0.1704,-0.5408,356.2809
19:39:02:227,-0.8638,2.8881,8.4706,41.1884,-0.1606,-0.2462,-0.531,356.7672
19:39:02:249,-0.9212,2.7733,9.2124,41.4579,-0.1569,-0.2596,-0.4749,357.191
19:39:02:268,-0.4403,2.345,9.801,42.0853,-0.1349,-0.267,-0.3661,357.4918
19:39:02:290,-0.146,2.2756,10.2772,39.9327,-0.0604,-0.2327,-0.2537,357.6464
19:39:02:320,-0.469,2.6584,10.538,42.4195,0.0618,-0.1264,-0.1511,357.6828
19:39:02:337,-0.4929,2.9288,10.684,41.458,0.2157,-0.0556,-0.0302,357.5841
19:39:02:352,-0.1388,2.9049,10.6217,41.2257,0.3709,-0.1203,0.0517,357.395
19:39:02:369,0.079,2.9767,10.617,40.9438,0.4478,-0.2376,0.048,357.2411
19:39:02:388,-0.6174,3.0173,11.007,41.9772,0.3037,-0.3073,-0.1169,357.1827
19:39:02:408,-1.6606,3.3021,10.8969,41.8918,0.2108,-0.1289,-0.145,357.4498
19:39:02:432,-1.6678,3.2734,10.6098,42.8388,0.118,0.0788,-0.0216,357.3267
19:39:02:450,-0.1819,1.7228,11.1314,41.8275,-0.086,0.0531,0.0639,357.0754
19:39:02:470,0.4546,0.0239,12.7657,42.1295,-0.4489,-0.3427,-0.1022,357.0827
19:39:02:489,-0.7729,0.3039,14.1416,41.1884,-0.7238,-0.6591,-0.3185,357.4422
19:39:02:508,-2.5005,0.6556,13.5936,43.7473,-0.5051,-0.2046,-0.2403,357.636
19:39:02:530,-2.723,0.5432,11.4808,42.7336,0.1228,0.4514,0.1836,357.2551
19:39:02:551,-2.0315,0.8423,9.399,42.6101,0.6201,0.4282,0.5416,356.4622
19:39:02:568,-0.8973,1.3304,8.2576,43.6312,0.7032,0.0275,0.6516,355.6114
19:39:02:589,0.1555,1.3591,8.0184,42.7237,0.4393,-0.2034,0.588,354.8535
19:39:02:607,-0.0957,1.0337,8.1643,43.8127,0.0838,-0.0385,0.3718,354.3131
19:39:02:631,-1.0457,1.0457,8.1978,41.4141,-0.1178,0.2669,0.1995,353.8862
19:39:02:650,-1.2921,1.0433,7.6546,41.1469,-0.1031,0.4441,0.2374,353.3592
19:39:02:672,-0.9476,1.1629,7.0181,42.3892,0.0227,0.449,0.373,352.6757
19:39:02:689,-0.4881,1.4309,6.6832,43.196,0.0862,0.2914,0.4475,351.9306
19:39:02:708,-0.2153,1.8257,6.7765,43.3998,0.0471,0.1826,0.4439,351.2501
19:39:02:731,-0.4092,2.2277,6.8148,43.3169,-0.0189,0.2486,0.3803,350.6401
19:39:02:751,-0.6796,2.479,6.8195,43.3955,-0.0555,0.3744,0.296,350.0771
19:39:02:771,-1.0911,2.6178,6.9368,44.7687,-0.1117,0.3622,0.2154,349.6266
19:39:02:789,-1.2323,2.6178,7.5733,44.5888,-0.2168,0.2584,0.1629,349.259
19:39:02:808,-1.0504,2.668,8.3773,44.9049,-0.3353,0.1961,0.1836,348.8747
19:39:02:831,-1.2825,2.8786,9.7388,43.3484,-0.3731,0.2413,0.2301,348.1723
19:39:02:851,-1.3424,2.7254,10.0738,44.1734,-0.262,0.1839,0.2301,347.7367
19:39:02:874,-0.6963,2.2445,10.6911,41.707,-0.1459,0.0336,0.2264,347.3267
19:39:02:888,-0.1292,1.6534,11.4808,44.8368,-0.097,-0.1179,0.1714,347.0057
19:39:02:989,-0.0981,1.3998,12.2704,44.0665,-0.1056,-0.2682,0.0566,346.8407
19:39:02:990,-0.4642,1.4477,13.0241,43.6197,-0.141,-0.4172,-0.0362,346.8437
19:39:02:991,-0.4379,1.8281,13.2993,45.3285,-0.1264,-0.4673,0.0016,346.8308
19:39:02:991,0.5168,1.5793,13.0146,43.5732,-0.0518,-0.3989,0.1519,346.6081
19:39:02:992,1.742,0.95,12.7657,44.5211,-0.0457,-0.3451,0.2105,346.2744
19:39:03:010,2.3521,-0.1316,13.0624,44.2116,-0.174,-0.361,0.0847,346.0503
19:39:03:033,1.6439,-0.2991,13.2682,43.5506,-0.2937,-0.2486,-0.0753,345.9993
19:39:03:051,0.859,0.0383,12.5599,42.5403,-0.1618,0.0446,-0.0643,345.8924
19:39:03:070,0.7442,0.1412,10.9926,45.0289,0.1852,0.2511,0.0664,345.606
19:39:03:088,0.9667,0.4235,9.332,43.869,0.4967,0.2303,0.1763,345.2122
19:39:03:109,1.7109,0.4977,8.016,43.8439,0.6054,0.113,0.2276,344.7696
19:39:03:131,2.1296,0.7466,7.1689,43.8439,0.4784,0.0531,0.136,344.427
19:39:03:150,1.8712,0.8159,7.0469,44.8335,0.1583,0.0873,-0.1096,344.3501
19:39:03:168,0.9978,0.6748,7.6403,44.3374,-0.1923,0.1655,-0.3661,344.5468
19:39:03:189,0.0431,0.8255,8.1165,45.1738,-0.367,0.1912,-0.4981,344.9067
19:39:03:208,-0.4331,1.1222,7.9753,44.8335,-0.2913,0.1802,-0.4785,345.261
19:39:03:231,-0.2776,1.4644,7.3077,43.7134,-0.0873,0.1472,-0.3771,345.5017
19:39:03:253,0,1.9621,6.6377,44.0048,0.0654,0.1203,-0.2989,345.6382
19:39:03:270,0.1412,2.2899,6.3936,45.3386,0.063,0.1325,-0.2879,345.7839
19:39:03:290,0.2297,2.278,7.657,45.7346,-0.2693,0.0104,-0.4248,345.9919
19:39:03:309,0.1531,2.0195,8.6357,45.7346,-0.4098,-0.0874,-0.4749,346.4405
19:39:03:341,0.1914,1.6606,9.344,45.8723,-0.4745,-0.1936,-0.4797,347.2467
19:39:03:350,0.079,1.3831,9.8728,44.7525,-0.5234,-0.2303,-0.448,347.6273
19:39:03:368,-0.256,1.2802,10.66,45.8931,-0.6419,-0.1203,-0.3893,347.9413
19:39:03:387,-0.8829,1.6032,11.5621,46.9667,-0.7641,0.08,-0.2647,348.0887
19:39:03:407,-1.1701,2.2158,12.0072,45.6545,-0.6798,0.2901,-0.013,347.9526
19:39:03:428,-0.9667,2.7781,11.3109,45.8931,-0.3255,0.383,0.2838,347.4647
19:39:03:448,-0.7872,2.8618,10.4136,47.2818,0.0386,0.3561,0.4402,346.8199
19:39:03:470,-0.6054,2.8235,10.2197,47.8059,0.1497,0.2718,0.4952,346.121
19:39:03:489,-0.6604,2.8451,10.6122,47.4294,0.0569,0.2034,0.5172,345.4205
19:39:03:509,-0.9021,2.7565,11.3013,46.8021,-0.0237,0.1924,0.4622,344.7601
19:39:03:535,-1.2586,2.9743,12.1292,47.0603,-0.0213,0.1582,0.3718,344.2271
19:39:03:551,-1.3998,2.7709,12.7131,47.1307,0.0715,0.0018,0.2582,343.8454
19:39:03:569,-1.0193,1.8855,12.8877,47.0118,0.2695,-0.2388,0.1067,343.6465
19:39:03:588,0.0526,0.1316,13.0074,48.6921,0.4515,-0.5944,-0.0888,343.672
19:39:03:608,-0.0909,-0.1986,13.2634,47.8506,0.4918,-0.9487,-0.3417,344.0606
19:39:03:634,-1.6008,0.7657,12.8112,47.318,0.5553,-0.8069,-0.448,344.5837
19:39:03:655,-2.2086,0.8997,11.3994,47.8554,0.8376,-0.1985,-0.25,344.8128
19:39:03:668,-2.0674,0.591,9.332,46.7851,1.1833,0.2132,-0.0179,344.7364
19:39:03:687,-1.8209,0.7442,7.4202,48.3504,1.3458,0.3219,0.1226,344.4532
19:39:03:709,-0.9404,0.8925,6.1065,49.9849,1.198,0.2901,0.2704,343.9896
19:39:03:735,-0.1579,0.9308,5.6279,47.8414,0.7948,0.2889,0.3315,343.4685
19:39:03:751,-0.2656,0.4642,6.1807,48.1766,-0.0824,0.3244,0.0517,342.8637
19:39:03:770,-0.4164,0.146,6.9464,47.5229,-0.3475,0.1203,-0.0314,342.7616
19:39:03:789,-0.4283,0.5862,8.1236,47.2839,-0.5258,-0.1741,0.0212,342.6653
19:39:03:807,-0.2082,1.2251,9.0138,49.3849,-0.6248,-0.3268,0.1226,342.531
19:39:03:828,-0.256,1.7707,9.466,48.6617,-0.5552,-0.1558,0.1519,342.3094
19:39:03:849,-0.5121,2.0818,9.1884,48.3813,-0.3487,0.1105,0.1177,342.0604
19:39:03:868,-0.6843,2.467,8.7745,49.378,-0.141,0.1826,0.0993,341.8365
19:39:03:887,-0.5958,2.7494,8.7625,48.024,-0.0628,0.058,0.0822,341.6428
19:39:03:908,-0.5695,2.7924,9.5689,50.4345,-0.0934,-0.0556,0.0383,341.5314
19:39:03:932,-0.792,2.6632,10.3585,49.6844,-0.0811,-0.0764,-0.0057,341.484
19:39:03:949,-1.2347,2.8522,10.617,49.5913,0.0483,-0.0336,-0.0118,341.4246
19:39:03:969,-1.3185,2.8762,10.2748,49.4879,0.2206,0.0214,0.0493,341.3049
19:39:03:988,-0.8758,2.6967,9.9039,50.7347,0.3122,0.0165,0.1213,341.0858
19:39:04:011,-0.2991,2.3186,10.4782,49.8176,0.2206,-0.1044,0.1116,340.9079
19:39:04:032,0.0215,1.9119,11.5645,49.1963,0.0349,-0.2731,0.0383,340.8465
19:39:04:048,0.0048,1.6965,12.3422,49.9364,-0.047,-0.3977,-0.024,340.8765
19:39:04:070,-0.469,1.9765,12.5575,50.9643,-0.0067,-0.4575,-0.0631,340.9817
19:39:04:088,-0.1627,1.797,11.9665,49.6501,0.0911,-0.4038,-0.0167,341.0158
19:39:04:108,0.5886,1.2012,11.4927,49.6501,0.0996,-0.328,0.0431,340.9625
19:39:04:135,1.1031,0.3565,11.7847,49.8561,-0.0751,-0.3305,0.0138,340.942
19:39:04:151,0.8399,-0.0191,12.615,50.8485,-0.2632,-0.328,-0.0509,340.9789
19:39:04:170,0.3637,0.28,12.5408,50.9559,-0.2229,-0.2169,-0.0253,340.6792
19:39:04:188,1.1605,1.2347,9.2913,49.1255,0.5627,0.383,0.3669,340.1078
19:39:04:210,2.0842,1.3543,7.8867,49.8384,0.7288,0.3659,0.373,339.5832
19:39:04:234,2.4718,1.5266,7.2526,50.7344,0.5749,0.1533,0.1372,339.2846
19:39:04:250,1.9573,1.4955,7.1928,53.1978,0.2585,0.0715,-0.2146,339.3981
19:39:04:279,0.8829,1.4931,7.4512,51.3931,-0.0164,0.2474,-0.4651,339.7425
19:39:04:289,-0.0407,1.6271,7.5924,52.1957,-0.1435,0.3671,-0.553,340.1844
19:39:04:307,-0.548,1.8927,7.4895,51.0812,-0.1105,0.3268,-0.5201,340.5861
19:39:04:327,-0.4498,2.2397,7.2239,50.9919,-0.0091,0.2083,-0.4248,340.9243
19:39:04:347,-0.2584,2.5268,7.0349,50.2694,0.0569,0.1008,-0.349,341.2137
19:39:04:369,-0.3685,2.8211,7.0517,53.2055,0.0459,0.036,-0.3588,341.5264
19:39:04:388,-0.4834,2.9312,7.413,51.1125,-0.0042,0.0116,-0.3869,341.8842
19:39:04:407,-0.6604,3.0269,7.9394,52.3178,-0.0616,-0.0031,-0.3991,342.2797
19:39:04:430,-0.524,3.0796,8.4491,51.3682,-0.0873,0.0092,-0.3673,342.622
19:39:04:449,-0.2776,3.0317,8.7577,51.011,-0.0689,0.0421,-0.3136,342.8949
19:39:04:467,-0.0766,2.8092,9.0473,51.8062,-0.0225,0.0507,-0.2794,343.121
19:39:04:488,-0.2345,2.7135,9.3248,53.553,0.0117,0.0128,-0.2537,343.3388
19:39:04:508,-0.7011,3.0173,9.6503,52.7795,0.0043,-0.0043,-0.1939,343.4944
19:39:04:533,-1.1222,3.4193,10.0044,52.7389,-0.0152,0.0556,-0.0729,343.5164
19:39:04:550,-1.1151,3.6395,10.3226,52.4498,-0.0054,0.1154,0.081,343.3652
19:39:04:571,-0.725,3.6347,10.5691,52.9821,0.0312,0.146,0.2178,343.06
19:39:04:589,-0.2321,3.4744,10.6792,52.0943,0.0654,0.1704,0.2948,342.6627
19:39:04:610,-0.1962,3.5031,10.6122,53.2993,0.0777,0.2034,0.2753,342.2772
19:39:04:630,-0.7825,3.4768,10.4016,53.3197,0.0593,0.2779,0.1812,341.9746
19:39:04:650,-1.785,3.4887,10.0499,54.5115,-0.0018,0.3305,0.0883,341.6052
19:39:04:669,-1.675,2.0698,10.4471,55.8463,-0.3279,0.2071,0.0554,341.5023
19:39:04:687,-1.2562,0.1316,11.8923,56.0421,-0.5943,-0.0299,-0.0509,341.5211
19:39:04:706,-2.5436,0.4905,12.8183,53.3757,-0.7189,-0.2963,-0.145,341.7244
19:39:04:727,-3.8118,1.1438,12.1484,54.9567,-0.4452,-0.1081,0.0431,341.7037
19:39:04:749,-3.5605,1.273,10.0905,54.2776,0.1155,0.2718,0.4487,341.1729
19:39:04:768,-2.7972,1.4524,8.5615,54.5386,0.5211,0.3011,0.7224,340.3187
19:39:04:789,-1.5553,1.7468,7.7049,55.7703,0.5236,0.0031,0.8287,339.4266
19:39:04:807,-0.5312,1.8329,7.7815,54.7745,0.2377,-0.2132,0.7566,338.6401
19:39:04:834,-0.2249,1.5793,8.3629,55.6018,-0.0763,-0.1387,0.5379,338.0723
19:39:04:850,-0.4857,1.2706,8.5232,54.8221,-0.1948,0.0336,0.3376,337.6658
19:39:04:869,-0.8303,1.1031,8.3294,55.149,-0.1227,0.0434,0.2301,337.3359
19:39:04:887,-0.9523,1.1725,8.0925,55.6641,-0.0201,-0.1362,0.213,337.1172
19:39:04:908,-0.8303,1.5123,7.9514,57.7592,0.0483,-0.3012,0.2692,336.8878
19:39:04:931,-0.5743,1.7324,7.6523,56.2613,0.0838,-0.2963,0.3132,336.6312
19:39:04:949,-0.7872,1.8879,7.3579,56.7162,0.074,-0.1399,0.3009,336.3433
19:39:04:967,-1.0265,2.0578,7.2383,58.4913,0.0007,0.0116,0.2875,336.0463
19:39:04:988,-0.9787,2.1655,7.5254,58.7601,-0.1264,0.0837,0.3083,335.7045
19:39:05:161,-0.6365,2.2445,8.3007,58.6172,-0.262,0.091,0.34,335.3503
19:39:05:166,-0.3876,2.3402,8.9707,57.3505,-0.3182,0.0825,0.3474,334.9834
19:39:05:168,-0.4307,2.4359,9.4493,57.7242,-0.2571,0.0653,0.3083,334.661
19:39:05:169,-0.548,2.5723,9.5689,58.6435,-0.1227,-0.0067,0.2569,334.4166
19:39:05:170,-0.5647,2.6512,9.6718,59.8993,-0.0274,-0.1191,0.2142,334.245
19:39:05:171,-0.2656,2.3139,9.99,58.1283,-0.0934,-0.2511,0.1763,334.1064
19:39:05:172,0.2369,1.2945,12.7896,56.6511,-0.5576,-0.3464,-0.0118,334.0759
19:39:05:172,0.3565,1.2179,14.2158,58.9933,-0.6749,-0.2327,-0.0375,334.1485
19:39:05:173,0.134,1.4979,14.6536,57.8508,-0.5308,0.0006,0.0114,334.2219
19:39:05:198,0.7035,1.6869,13.8377,59.4384,-0.2046,0.0702,0.136,334.0186
19:39:05:208,1.9358,1.3807,13.005,60.5734,0.096,-0.0312,0.2264,333.753
19:39:05:228,2.5196,0.8614,12.6891,61.9838,0.1583,-0.2718,0.0761,333.685
19:39:05:250,1.7252,0.5432,12.7992,61.1059,0.0642,-0.2902,-0.2085,333.9306
19:39:05:268,1.2108,0.4666,12.3805,59.5123,0.0373,0.0092,-0.2781,334.2103
19:39:05:288,1.2299,0.3661,11.5382,59.5972,0.1668,0.2413,-0.2024,334.3672
19:39:05:309,1.5673,0.414,10.5428,63.5308,0.3574,0.2266,-0.1682,334.4907
19:39:05:334,2.0363,0.3996,9.3679,60.9889,0.493,0.0617,-0.1865,334.6549
19:39:05:349,1.8831,0.5145,8.1499,60.0502,0.5199,-0.0165,-0.3001,334.957
19:39:05:367,1.5027,0.6389,7.1928,59.8158,0.4283,0.0653,-0.4211,335.3628
19:39:05:387,1.0146,0.7633,6.6042,59.9396,0.2719,0.1839,-0.4944,335.8568
19:39:05:408,0.4475,1.084,6.353,61.2769,0.1155,0.1912,-0.542,336.3804
19:39:05:432,0.0694,1.3663,6.4822,61.6853,-0.0018,0.0751,-0.5701,336.9777
19:39:05:449,-0.1531,1.5936,6.7334,59.8158,-0.0616,-0.0495,-0.5701,337.6114
19:39:05:472,-0.3278,1.8903,6.9512,63.8033,-0.0531,-0.0922,-0.5543,338.2354
19:39:05:490,-0.3039,2.2373,6.9966,61.9,-0.0164,-0.0751,-0.5286,338.8408
19:39:05:507,-0.201,2.4311,7.011,61.3724,-0.0079,-0.0067,-0.5066,339.4022
19:39:05:529,-0.1507,2.5531,7.4776,64.0378,-0.0787,0.0385,-0.5127,339.9474
19:39:05:549,-0.2441,2.5484,8.3103,63.1245,-0.1874,0.0177,-0.5372,340.5374
19:39:05:570,-0.3613,2.479,9.0688,62.8733,-0.2375,-0.0312,-0.5433,341.1386
19:39:05:593,-0.8255,2.5125,10.1169,62.1876,-0.1288,-0.0507,-0.437,342.2092
19:39:05:607,-1.0193,2.6656,10.1695,63.2311,-0.0201,0.0006,-0.3087,342.5504
19:39:05:633,-1.273,2.9982,10.0116,64.3645,0.0703,0.0715,-0.1657,342.7477
19:39:05:657,-1.4022,3.3452,9.9733,65.0425,0.0728,0.113,-0.0179,342.7773
19:39:05:672,-1.0528,3.4648,10.1623,63.6495,0.0019,0.1912,0.1274,342.6283
19:39:05:685,-0.4929,3.3236,10.5811,64.7487,-0.0946,0.3048,0.2142,342.3491
19:39:05:705,-0.122,3.2423,10.9089,65.2801,-0.1813,0.4282,0.2068,342.0354
19:39:05:725,-0.5719,3.0341,11.1075,65.2801,-0.2253,0.5272,0.1091,341.8174
19:39:05:747,-1.7492,3.0054,10.9759,66.7906,-0.2106,0.4881,-0.0179,341.7651
19:39:05:766,-2.1512,2.4072,10.9783,66.068,-0.1936,0.2376,-0.0766,341.8431
19:39:05:786,-2.0076,1.1821,11.8038,66.5964,-0.3011,-0.1961,-0.1425,342.0549
19:39:05:805,-1.8999,0.1149,12.6987,66.7161,-0.4538,-0.5186,-0.2134,342.3965
19:39:05:827,-2.4814,-0.3685,12.4044,67.461,-0.3646,-0.3964,-0.1364,342.6608
19:39:05:849,-3.3188,0.3733,11.1769,65.8142,-0.0836,-0.0128,0.1445,342.5532
19:39:05:869,-2.6776,0.6508,9.7843,66.8561,0.1729,0.2083,0.5428,341.9589
19:39:05:893,-1.5912,0.7059,9.0281,66.2415,0.3122,0.1557,0.7615,341.1302
19:39:05:905,-0.6939,1.0289,8.6381,67.2712,0.2902,-0.0678,0.7762,340.2971
19:39:05:927,-0.2106,1.1868,8.5304,69.1867,0.1852,-0.1387,0.6699,339.5986
19:39:05:947,-0.2034,1.0528,8.394,67.5572,0.0972,-0.025,0.4903,339.0899
19:39:05:969,-0.4834,0.8064,7.9825,67.7728,0.0679,0.0837,0.3217,338.7398
19:39:05:987,-0.6556,0.804,7.7073,67.7577,0.0337,0.0971,0.2557,338.4597
19:39:06:006,-0.6437,1.0648,7.7288,65.7293,-0.0311,0.0776,0.2728,338.1786
19:39:06:027,-0.4355,1.3256,7.6881,69.8044,-0.0531,0.1118,0.3107,337.8397
19:39:06:051,-0.1412,1.584,7.3196,69.1848,0.0263,0.1374,0.2826,337.1646
19:39:06:072,-0.0885,1.7539,7.4584,67.49,-0.0018,0.0238,0.2178,336.9357
19:39:06:089,-0.1531,1.8305,7.7575,67.1686,-0.0518,-0.0666,0.1421,336.8167
19:39:06:108,-0.4522,1.8736,7.9202,67.7857,-0.0909,-0.0922,0.0688,336.8009
19:39:06:126,-0.7226,1.9047,8.0207,68.6623,-0.1276,-0.0959,0.037,336.7969
19:39:06:148,-1.0935,1.9932,8.2241,67.7427,-0.152,-0.102,0.0395,336.8092
19:39:06:168,-1.4716,2.2158,8.3749,70.3674,-0.141,-0.1399,0.0688,336.8094
19:39:06:187,-1.3615,2.2971,8.6572,69.0925,-0.1178,-0.2059,0.1226,336.7758
19:39:06:207,-1.0816,1.9334,8.7649,69.2427,-0.1166,-0.2547,0.1507,336.6932
19:39:06:226,-0.6628,1.3854,9.4182,70.467,-0.306,-0.3232,0.1238,336.6658
19:39:06:247,-0.3805,0.7346,11.4162,70.5698,-0.7922,-0.2779,0.0444,336.6935
19:39:06:266,-0.6532,0.4164,14.3785,71.437,-1.3212,0.0641,-0.0302,336.7467
19:39:06:288,-0.7968,0.0861,16.6373,71.3531,-1.4922,0.4978,-0.013,336.7299
19:39:06:307,-0.4044,-0.0885,16.8335,70.2658,-1.1599,0.7348,0.0749,336.5993
19:39:06:326,0.603,-0.2321,15.7017,72.9978,-0.6175,0.6505,0.1543,336.3801
19:39:06:347,1.4548,-0.6724,14.8642,71.0095,-0.2363,0.3256,0.103,336.2209
19:39:06:369,0.8471,-0.8375,14.3976,69.4665,-0.0299,-0.0299,-0.1157,336.3436
19:39:06:400,0.0311,-0.8471,13.797,70.3738,0.2157,-0.1777,-0.2562,336.6332
19:39:06:419,-0.2225,-0.7705,12.3589,68.8576,0.6006,-0.1851,-0.1719,336.8363
19:39:06:442,0.0383,-0.6341,10.1551,69.1848,0.9964,-0.1655,-0.0033,336.847
19:39:06:447,0.6987,-0.5288,7.9968,68.1177,1.2102,-0.091,0.1592,336.6688
19:39:06:465,1.4572,-0.3015,6.384,69.084,1.1393,-0.0336,0.2496,336.3641
19:39:06:485,1.9908,-0.0742,5.6375,69.2249,0.8156,-0.0495,0.2081,336.0988
19:39:06:507,1.5769,0.2082,6.7669,69.0618,-0.025,-0.0263,-0.2134,336.0631
19:39:06:530,0.8877,0.3493,7.0612,69.6805,-0.2046,0.1325,-0.3783,336.6625
19:39:06:551,0.469,0.6748,6.7956,70.6732,-0.207,0.2621,-0.4504,337.1158
19:39:06:565,0.6317,0.871,6.396,69.2433,-0.1752,0.3024,-0.4553,337.5816
19:39:06:587,0.8758,1.048,6.6473,70.1558,-0.1948,0.2559,-0.4846,338.075
19:39:06:606,1.0792,1.1414,7.7312,71.1454,-0.2473,0.0727,-0.5787,338.6928
19:39:06:625,0.6389,1.4357,8.8654,68.9451,-0.2473,-0.3012,-0.7326,339.5422
19:39:06:651,-0.1388,1.7204,9.2315,69.2057,-0.1691,-0.6469,-0.8853,340.6145
19:39:06:667,-0.8207,1.9095,8.8893,69.3045,-0.1471,-0.5699,-0.9538,341.7518
19:39:06:688,-1.2491,1.8999,9.6024,71.3577,-0.3182,-0.0409,-0.889,342.7602
19:39:06:707,-1.0935,1.9836,11.2726,71.38,-0.5063,0.3928,-0.7155,343.5188
19:39:06:728,-0.9284,2.3067,12.658,70.3809,-0.4452,0.3524,-0.553,344.1064
19:39:06:751,-1.3041,2.8355,12.7083,69.62,-0.108,0.0751,-0.437,344.6026
19:39:06:769,-1.2467,3.216,12.5169,68.9797,0.2621,-0.1057,-0.305,344.9621
19:39:06:787,-0.67,3.1178,11.988,69.6103,0.5309,-0.1558,-0.1511,345.1664
19:39:06:807,-0.1244,2.8594,11.1027,67.4028,0.6995,-0.1545,-0.0595,345.2592
19:39:06:825,0.189,2.6752,10.6792,67.2415,0.6958,-0.135,-0.0472,345.3387
19:39:06:847,-0.067,2.6632,10.7509,68.7535,0.5663,-0.1008,-0.0888,345.4511
19:39:06:867,-1.1174,2.7087,10.739,68.6259,0.4698,-0.069,-0.1548,345.6642
19:39:06:891,-2.0698,2.5747,10.4207,67.7427,0.4442,-0.0263,-0.1584,345.9651
19:39:06:915,-1.3902,1.2562,9.9972,67.6764,0.3843,-0.1692,0.1006,345.9079
19:39:06:930,-0.95,0.7155,10.3729,66.001,0.2939,-0.3757,0.1885,345.7953
19:39:06:950,-1.194,0.8519,10.3537,65.7413,0.2621,-0.4697,0.2374,345.652
19:39:06:969,-1.3065,0.95,9.7484,66.0771,0.355,-0.3476,0.2948,345.4131
19:39:06:988,-1.34,1.017,8.7003,66.5951,0.4503,-0.267,0.3193,345.1499
19:39:07:005,-1.3185,0.7681,8.138,65.9101,0.3819,-0.3451,0.2667,344.9666
19:39:07:025,-0.9284,0.4403,8.5854,66.5209,0.1082,-0.5198,0.2056,344.891
19:39:07:048,-0.67,0.2943,9.6239,65.8957,-0.2216,-0.7336,0.125,344.9254
19:39:07:068,-0.4427,-0.1053,10.5739,65.4807,-0.3817,-0.7654,0.0102,345.0956
19:39:07:090,-0.6915,-0.3661,10.3992,66.4272,-0.2937,-0.6164,-0.1096,345.3755
19:39:07:108,-0.8112,-0.6676,9.6048,65.977,-0.0775,-0.3268,-0.0961,345.573
19:39:07:127,-1.1151,-0.4857,8.5759,65.9302,0.0605,-0.0703,0.0383,345.5883
19:39:07:151,-1.3495,0.2513,7.9394,66.0177,-0.003,0.1044,0.2227,345.3738
19:39:07:166,-1.0744,0.8064,7.9418,66.6516,-0.1618,0.3732,0.4158,344.8928
19:39:07:264,-1.2251,1.4644,8.1978,65.7955,-0.2571,0.6603,0.5098,344.2626
19:39:07:265,-1.151,1.8999,8.2887,64.942,-0.2253,0.8253,0.5807,343.5275
19:39:07:265,-0.9906,2.3019,8.1236,65.7413,-0.0934,0.7813,0.6528,342.7198
19:39:07:266,-0.5862,2.6824,7.9322,64.9806,0.0288,0.5504,0.6503,341.9499
19:39:07:267,-0.2919,2.8379,7.9561,65.1889,0.0581,0.3097,0.5526,341.321
19:39:07:288,-0.5575,2.8833,8.4467,65.7522,-0.036,0.1741,0.3938,340.8971
19:39:07:308,-0.8136,2.9336,9.265,64.6597,-0.1593,0.1619,0.2997,340.5801
19:39:07:324,-0.6963,2.7278,9.8393,65.0438,-0.2192,0.1875,0.2704,340.2925
19:39:07:345,-0.4834,2.4024,10.2628,64.8643,-0.2449,0.1912,0.2325,340.0471
19:39:07:369,-0.3565,2.1176,10.7629,64.2851,-0.3194,0.2107,0.1849,339.8354
19:39:07:388,-0.2417,1.73,11.3252,64.3476,-0.4367,0.2523,0.1445,339.6616
19:39:07:408,-0.0144,1.3495,11.8517,64.8975,-0.5332,0.273,0.1238,339.5013
19:39:07:426,1.3161,0.7657,13.0959,64.8643,-0.6566,0.2633,0.1849,339.0487
19:39:07:448,1.6869,0.0981,13.5721,66.0323,-0.6346,0.2511,0.0871,338.9075
19:39:07:466,1.2514,-0.5767,13.651,64.2783,-0.4807,0.1631,-0.1303,339.0314
19:39:07:485,0.323,-0.8447,13.1605,65.5059,-0.2192,0.0006,-0.2977,339.3762
19:39:07:505,-0.268,-0.7394,11.6602,63.1985,0.1534,-0.0104,-0.2513,339.6758
19:39:07:525,-0.2441,-0.4164,9.8034,64.3172,0.515,0.1105,-0.0302,339.7144
19:39:07:547,0.347,-0.067,8.327,63.3397,0.6751,0.168,0.1983,339.504
19:39:07:569,1.1342,0.0311,7.3172,64.5335,0.6042,0.1289,0.307,339.1375
19:39:07:586,1.6558,0.1842,6.8698,62.4673,0.3501,0.0287,0.2459,338.8433
19:39:07:607,1.5099,0.347,7.2287,63.323,-0.0091,-0.0531,0.0163,338.8302
19:39:07:627,0.7394,0.2393,8.2529,64.3476,-0.317,-0.069,-0.2586,339.133
19:39:07:648,-0.0359,0.1795,8.8822,61.4739,-0.4171,-0.0605,-0.4211,339.6228
19:39:07:668,-0.4498,0.3805,8.7793,63.2919,-0.2827,-0.0715,-0.4382,340.1451
19:39:07:687,-0.3924,0.6485,7.9322,62.5735,-0.0555,-0.0666,-0.3918,340.6198
19:39:07:708,-0.3517,0.926,7.3149,65.8359,0.063,-0.0531,-0.3918,341.0823
19:39:07:725,-0.4475,1.2443,7.2096,62.1331,0.0166,-0.0458,-0.4186,341.5806
19:39:07:746,-0.6174,1.5123,7.5254,62.9587,-0.0873,0.0043,-0.4431,342.1055
19:39:07:765,-0.7992,1.6822,7.8676,63.7718,-0.1606,0.0458,-0.47,342.6641
19:39:07:787,-0.9284,1.7492,8.4395,63.3966,-0.2094,0.0385,-0.4761,343.2341
19:39:07:806,-0.8088,1.7228,9.4086,62.3688,-0.2669,-0.0214,-0.4296,343.7457
19:39:07:828,-0.6508,1.7228,10.2748,61.8618,-0.2803,-0.0874,-0.3515,344.1732
19:39:07:851,-0.5982,1.663,10.9783,64.5527,-0.2265,-0.1252,-0.2598,344.4971
19:39:07:869,-0.3924,1.8449,11.33,64.1553,-0.1312,-0.135,-0.1205,344.6772
19:39:07:889,0.4235,2.6345,10.9831,62.1235,0.1253,0.1435,0.2411,344.3314
19:39:07:911,0.8829,2.8499,11.2295,62.3111,0.2108,0.2327,0.3217,343.9692
19:39:07:926,1.2682,2.8116,11.543,63.0234,0.3134,0.1655,0.2997,343.6236
19:39:07:947,0.9787,2.857,11.1362,62.2853,0.4735,0.0238,0.1568,343.4688
19:39:07:970,0.1675,2.4933,10.1958,60.3335,0.5834,-0.0629,-0.0656,343.5793
19:39:07:988,-0.7083,1.9621,9.734,61.1075,0.504,-0.1509,-0.2574,343.9195
19:39:08:005,-1.5218,1.4644,9.8489,61.1088,0.2426,-0.2523,-0.3771,344.4078
19:39:08:025,-2.613,0.6963,10.8682,61.0086,-0.1031,-0.2926,-0.4846,345.0553
19:39:08:045,-4.0941,-0.1819,12.7107,61.1088,-0.4,-0.438,-0.5848,345.8535
19:39:08:065,-4.6732,-0.9787,14.4335,61.0256,-0.4611,-0.8399,-0.5359,346.6439
19:39:08:085,-4.5464,-1.2754,14.5077,59.4677,-0.1459,-1.1136,-0.2342,347.1416
19:39:08:104,-4.2592,-0.7035,12.7633,60.3021,0.4417,-0.7972,0.285,347.0353
19:39:08:124,-3.0676,-0.1555,9.9398,61.1133,0.9268,-0.1717,0.847,346.2219
19:39:08:145,-2.0602,0.3254,8.1523,61.3699,1.0269,0.2681,1.1415,344.9938
19:39:08:164,-1.0576,0.804,7.2335,60.3671,0.7545,0.3696,1.2172,343.6541
19:39:08:185,0.0574,1.2945,7.3986,60.3671,0.3293,0.3134,1.1781,342.3473
19:39:08:204,1.3735,1.4764,7.9753,60.0645,-0.0323,0.2804,1.0144,341.2102
19:39:08:225,2.1607,1.3161,8.5065,61.5532,-0.2192,0.3353,0.7029,340.3838
19:39:08:245,1.7827,0.871,8.997,59.109,-0.2241,0.3952,0.3095,339.9862
19:39:08:273,0.8375,0.871,9.3559,58.7254,-0.1459,0.2278,-0.0118,340.1305
19:39:08:287,0.1316,1.5912,8.9061,59.9728,0.2389,-0.025,-0.1193,340.3044
19:39:08:305,-0.1675,1.6439,7.7527,59.7348,0.4955,0.0348,-0.1487,340.515
19:39:08:325,-0.6843,1.876,6.8483,60.7357,0.5712,0.08,-0.1865,340.7611
19:39:08:345,-0.9188,2.1535,6.8124,60.07,0.4088,0.0849,-0.1609,340.9295
19:39:08:365,-1.084,2.4263,7.6307,59.4977,0.1461,0.047,-0.1303,341.1255
19:39:08:387,-1.0265,2.4144,8.7984,59.2316,-0.0738,0.0287,-0.1071,341.2837
19:39:08:406,-1.1151,2.3785,9.7747,60.6242,-0.1728,0.0543,-0.0802,341.4163
19:39:08:425,-1.2395,2.4239,10.7103,59.4121,-0.1838,0.0226,-0.0265,341.4978
19:39:08:449,-1.1151,2.534,11.4736,58.4261,-0.0934,-0.0385,0.0835,341.481
19:39:08:472,-0.6078,2.5292,11.5119,59.6499,0.1241,-0.0421,0.2166,341.3023
19:39:08:486,-0.1771,2.4861,10.7557,58.7677,0.3684,-0.0446,0.2753,341.0542
19:39:08:507,0.1699,2.4646,10.1336,58.6977,0.4503,-0.0825,0.2496,340.8532
19:39:08:529,0.4857,2.4048,9.9924,57.9241,0.344,-0.1142,0.1995,340.6925
19:39:08:553,0.5504,2.278,10.6122,57.1169,0.1497,-0.201,0.103,340.665
19:39:08:565,0.6054,1.9478,11.2845,60.1904,0.0043,-0.3549,-0.0118,340.7822
19:39:08:584,0.725,1.5793,11.5669,58.4689,-0.0323,-0.4759,-0.0692,340.9903
19:39:08:604,0.8519,1.3208,11.4951,58.466,-0.0176,-0.5186,-0.0815,341.2149
19:39:08:625,1.0002,1.0385,11.3563,58.258,-0.0103,-0.4673,-0.0766,341.4357
19:39:08:648,0.9547,0.9141,11.2152,58.0397,-0.025,-0.3403,-0.0607,341.5935
19:39:08:669,1.0361,0.9236,11.0477,58.9221,-0.0445,-0.1607,-0.0167,341.6689
19:39:08:684,1.34,1.017,10.5858,59.1387,-0.0079,0.0238,0.037,341.6421
19:39:08:705,1.6343,1.0265,9.9111,58.1444,0.0752,0.102,0.0285,341.592
19:39:08:725,1.8951,0.9069,9.3081,57.5195,0.1424,0.0495,-0.0619,341.6477
19:39:08:750,1.6176,0.8136,8.5328,58.7344,0.1656,-0.0605,-0.2244,341.9131
19:39:08:769,1.0959,0.8375,7.9346,58.3808,0.118,-0.0703,-0.3673,342.3558
19:39:08:785,0.8877,0.8327,7.5757,59.7728,0.0178,0.0128,-0.4138,342.8248
19:39:08:804,0.8399,1.151,7.4919,58.8248,-0.1813,0.0849,-0.437,343.2913
19:39:08:825,0.5216,1.4501,7.7647,59.4677,-0.2278,0.0837,-0.4675,344.2397
19:39:08:847,0.2249,1.7037,7.4082,59.6894,-0.1618,0.091,-0.4919,344.8056
19:39:08:868,-0.0861,1.9597,7.0373,58.9662,-0.0873,0.1081,-0.4919,345.3625
19:39:08:891,-0.1292,2.187,7.0827,58.5101,-0.1166,0.1118,-0.4675,345.897
19:39:08:906,-0.2034,2.4526,7.4895,59.2932,-0.1923,0.1081,-0.4406,346.4025
19:39:08:925,-0.4116,2.802,8.1859,60.791,-0.2412,0.0849,-0.4345,346.9211
19:39:08:948,-0.5145,3.0269,8.9324,58.4398,-0.24,0.0409,-0.4125,347.4219
19:39:08:967,-0.4762,3.0006,9.4516,59.6278,-0.1569,0.0116,-0.3686,347.8716
19:39:08:984,-0.5121,2.7972,9.5354,59.2029,-0.003,-0.0153,-0.3185,348.3477
19:39:09:004,-0.4403,2.6273,9.478,60.154,0.1167,-0.0617,-0.2488,348.7374
19:39:09:024,-0.457,2.6943,9.7125,59.187,0.1326,-0.0519,-0.156,349.0316
19:39:09:045,-0.67,3.0341,10.0116,61.0476,0.0777,0.0825,-0.046,349.1778
19:39:09:065,-0.5719,3.149,10.5739,59.2933,0.0251,0.2462,0.07,349.1191
19:39:09:086,-0.1316,2.8833,11.1171,60.6439,0.0398,0.2681,0.1482,348.9433
19:39:09:104,0.2656,2.7733,11.3061,59.5833,0.1216,0.1875,0.1629,348.7705
19:39:09:125,0.2201,2.5484,10.9376,61.1231,0.1962,0.179,0.0993,348.6766
19:39:09:145,-0.6508,2.2612,10.8802,59.7581,0.1595,0.2229,-0.0277,348.7224
19:39:09:168,-1.8521,2.2995,11.5406,61.1142,-0.0262,0.1704,-0.1205,348.891
19:39:09:190,-2.546,2.2134,12.5312,62.5242,-0.2143,0.0409,-0.112,349.1052
19:39:09:206,-2.4263,1.3065,13.8473,60.5871,-0.3377,-0.1423,-0.0656,349.3026
19:39:09:225,-2.3665,0.1316,14.4909,61.5168,-0.3218,-0.306,-0.0253,349.4814
19:39:09:246,-3.1298,0.4235,13.4189,61.0723,-0.0494,-0.212,0.1421,349.4809
19:39:09:267,-2.4,1.2778,9.4828,63.0596,0.614,0.3879,0.8397,349.011
19:39:09:365,-1.6415,1.6822,8.2744,63.261,0.592,0.3329,0.9497,347.0575
19:39:09:366,-0.6532,1.8138,7.9155,63.7572,0.366,0.2266,0.9472,346.0521
19:39:09:367,-0.0526,1.6199,7.9298,61.9001,0.107,0.2511,0.8202,345.1737
19:39:09:367,-0.1723,1.2849,8.0184,63.9494,-0.0518,0.3048,0.599,344.5167
19:39:09:377,-0.4211,1.017,7.9657,63.4878,-0.0873,0.2633,0.4402,344.048
19:39:09:387,-0.4379,1.0792,7.7815,63.899,-0.0421,0.1765,0.3962,343.6473
19:39:09:404,-0.3661,1.2586,7.3986,64.2924,0.0557,0.1448,0.3889,343.2464
19:39:09:424,-0.2225,1.3304,6.8411,65.1252,0.1949,0.1985,0.3767,342.8509
19:39:09:444,-0.3493,1.3208,6.0897,65.3633,0.3098,0.2193,0.3254,342.5199
19:39:09:464,-0.8614,1.4955,5.4461,64.7262,0.2963,0.1765,0.2362,342.2985
19:39:09:485,-1.3113,1.9717,5.5896,65.4782,0.1021,0.1325,0.1885,342.1386
19:39:09:505,-1.2754,2.1966,6.3673,65.3633,-0.1789,0.1619,0.2105,341.9559
19:39:09:529,-0.9858,2.3426,7.389,65.3633,-0.4147,0.2791,0.2521,341.6982
19:39:09:555,-0.6365,2.522,8.3749,64.9721,-0.5466,0.4148,0.2899,341.3624
19:39:09:572,-0.7226,2.8594,9.052,66.5365,-0.5637,0.4319,0.2667,341.0496
19:39:09:586,-1.0887,2.9408,9.5378,67.2649,-0.5039,0.328,0.1849,340.8598
19:39:09:604,-1.2586,2.7111,10.1839,67.8776,-0.4574,0.1252,0.1189,340.7823
19:39:09:625,-0.8327,2.2684,11.263,67.4025,-0.4538,-0.1008,0.0957,340.7635
19:39:09:645,-0.6006,1.9573,12.1077,64.0745,-0.4477,-0.245,0.092,340.7676
19:39:09:669,-0.5815,1.864,13.0672,69.0609,-0.4843,-0.3207,0.0883,340.762
19:39:09:685,-0.6317,1.9238,14.0961,68.0497,-0.5112,-0.3635,0.1201,340.7633
19:39:09:706,0.8829,1.5769,13.8042,67.8598,-0.218,-0.3879,0.3278,340.6399
19:39:09:725,1.931,0.7801,13.2682,69.4272,-0.1105,-0.3745,0.3217,340.069
19:39:09:751,2.3067,0.1938,13.0863,67.8598,-0.1129,-0.2804,0.2264,339.8794
19:39:09:767,1.9741,0.3733,12.6628,67.1504,-0.0873,-0.08,0.1165,339.7863
19:39:09:793,1.919,0.4068,11.6626,69.6492,0.0667,0.1032,0.0529,339.7249
19:39:09:804,2.1846,0.4498,10.5811,68.2137,0.2267,0.1582,0.0114,339.6958
19:39:09:825,2.5555,0.2991,9.7292,71.5758,0.2951,0.1118,-0.0925,339.7966
19:39:09:846,2.6321,-0.1914,8.7482,70.7249,0.3012,0.0666,-0.2843,340.1158
19:39:09:866,1.9501,-0.3685,7.8317,68.3512,0.2365,0.0788,-0.4932,340.6642
19:39:09:884,1.0624,-0.1531,7.5398,70.3648,0.074,0.0995,-0.6324,341.3672
19:39:09:904,0.28,0.0933,7.6714,69.3105,-0.0702,0.1154,-0.7009,342.1552
19:39:09:925,-0.4522,0.402,7.7982,69.7642,-0.0958,0.1008,-0.7045,342.9614
19:39:09:944,-0.6532,0.6437,7.5709,70.2512,-0.0042,0.047,-0.619,343.6877
19:39:09:967,-0.5623,1.0624,6.9272,69.3746,0.1424,0.0031,-0.4932,344.3051
19:39:09:988,-0.4403,1.6271,6.4774,69.8686,0.201,-0.025,-0.3893,344.8032
19:39:10:004,-0.146,2.1464,6.7143,69.6795,0.1277,-0.058,-0.3124,345.2165
19:39:10:024,0.2847,2.4,7.3579,70.8307,0.0056,-0.135,-0.3014,345.6291
19:39:10:044,0.5336,2.4359,7.9777,71.1649,-0.0775,-0.2034,-0.3515,346.0907
19:39:10:064,0.4427,2.479,8.8989,69.2074,-0.1496,-0.2181,-0.4406,346.6569
19:39:10:088,0.2608,2.199,9.8273,69.6615,-0.2106,-0.2059,-0.5323,347.3157
19:39:10:105,-0.2201,2.0267,10.5882,70.8747,-0.1838,-0.1497,-0.5775,348.019
19:39:10:128,-0.7729,2.1009,10.8275,69.3867,-0.0751,-0.0825,-0.5347,348.6882
19:39:10:156,-1.2347,2.4048,10.8562,72.4382,0.0581,-0.0018,-0.4028,349.2169
19:39:10:172,-0.9978,2.948,10.672,69.979,0.2536,0.1851,-0.046,349.5207
19:39:10:187,-0.5767,2.7972,10.7629,71.061,0.3195,0.1875,0.0639,349.5169
19:39:10:203,-0.3446,2.9169,10.672,71.1219,0.3599,0.1814,0.1152,349.4095
19:39:10:223,-0.6389,3.0078,10.4423,71.5767,0.366,0.2229,0.0871,349.3261
19:39:10:245,-1.1318,3.1131,10.3274,70.2464,0.3037,0.2388,0.015,349.3321
19:39:10:267,-1.6128,3.2016,10.2987,69.4404,0.1815,0.2327,-0.0277,349.3921
19:39:10:284,-1.8664,2.8977,10.6863,71.2724,-0.0128,0.2229,-0.0558,349.4816
19:39:10:304,-1.3711,1.7587,11.9115,70.8351,-0.2669,0.1863,-0.0815,349.5964
19:39:10:324,-0.9954,0.4857,13.6702,71.9386,-0.4745,0.091,-0.1266,349.7682
19:39:10:345,-1.5434,0.457,14.7206,70.2465,-0.4513,0.0031,-0.123,349.9523
19:39:10:364,-2.144,0.9236,14.0195,71.5048,-0.0543,0.0812,0.0212,349.9915
19:39:10:388,-2.1224,1.017,11.7081,70.6364,0.603,0.2058,0.2093,349.7931
19:39:10:407,-1.7635,0.9595,9.4277,70.6528,1.0636,0.0715,0.2863,349.5439
19:39:10:425,-1.2969,1.0265,8.0518,71.8815,1.066,-0.201,0.2875,349.3396
19:39:10:443,-1.0576,0.9691,7.7719,70.4324,0.7447,-0.3085,0.2203,349.2411
19:39:10:465,-1.0887,0.5695,8.3892,69.9142,0.3709,-0.201,0.1311,349.2065
19:39:10:485,-1.2873,0.4762,8.6429,69.304,0.1962,-0.0324,0.1116,349.1617
19:39:10:506,-1.3735,0.8471,8.2959,70.7757,0.234,0.0446,0.191,349.0054
19:39:10:529,-1.0624,1.2012,7.4082,70.7436,0.3684,0.0397,0.3266,348.6939
19:39:10:551,-0.9141,1.7013,6.3793,71.6129,0.4918,0.0324,0.428,348.2834
19:39:10:567,-0.8877,2.2181,5.3264,70.482,0.4906,0.0104,0.4818,347.834
19:39:10:588,-0.6748,2.7015,4.8287,69.4535,0.2682,0.0189,0.5123,347.3549
19:39:10:604,-0.1005,2.924,5.5059,68.357,-0.1618,0.2095,0.5147,346.7915
19:39:10:628,-0.5216,2.8953,8.8439,69.3658,-0.8044,0.6469,0.1824,345.8828
19:39:10:643,-1.1557,2.8546,9.9781,69.4408,-0.7054,0.4783,-0.0179,345.8166
19:39:10:662,-1.608,2.7159,10.4351,69.4705,-0.3487,0.1374,-0.1193,345.9775
19:39:10:683,-2.1296,2.9169,9.7244,69.8052,0.14,-0.1326,-0.1181,346.2083
19:39:10:704,-2.0674,3.1537,8.5735,69.1071,0.4906,-0.2388,-0.035,346.3832
19:39:10:723,-1.6678,2.9839,7.949,69.0867,0.5077,-0.2767,0.0493,346.4672
19:39:10:747,-1.2993,2.7876,8.4826,69.0868,0.2646,-0.3268,0.0505,346.5504
19:39:10:770,-1.0648,2.6225,9.4612,69.2645,-0.0274,-0.3268,0.0358,346.6413
19:39:10:786,-0.8638,2.4191,10.5643,68.9381,-0.24,-0.2938,0.0456,346.7226
19:39:10:803,-0.7537,2.3497,11.61,68.9027,-0.3536,-0.3341,0.059,346.7857
19:39:10:824,-0.4642,1.9932,12.3685,68.0834,-0.389,-0.4404,0.0773,346.8477
19:39:10:844,0.0383,1.541,12.95,67.5684,-0.3988,-0.6139,0.0969,346.9313
19:39:10:868,1.0409,0.682,13.4477,68.649,-0.3756,-0.708,0.1116,346.9843
19:39:10:885,1.2514,0.1268,13.2299,67.7718,-0.2974,-0.6567,0.081,347.0588
19:39:10:904,0.8423,0.3996,12.3398,69.5941,-0.1508,-0.3427,0.125,347.0104
19:39:10:924,0.993,0.9834,10.9089,68.7515,0.0654,0.0482,0.3351,346.6517
19:39:10:944,1.809,1.1629,9.5785,67.0704,0.2585,0.1936,0.494,346.0577
19:39:10:966,2.5771,1.1916,8.4227,68.3504,0.3379,0.1179,0.4487,345.5198
19:39:10:983,2.9312,1.1773,7.8461,68.4701,0.1937,-0.0678,0.2301,345.2542
19:39:11:004,2.5005,0.9643,8.205,68.9516,-0.1056,-0.1142,-0.0912,345.3675
19:39:11:024,1.4788,0.8303,8.607,66.398,-0.3402,0.0592,-0.3551,345.739
19:39:11:045,0.5025,1.0313,8.6142,67.4034,-0.3939,0.179,-0.4761,346.2291
19:39:11:069,0.1436,1.2443,8.2265,66.7496,-0.3072,0.1594,-0.4541,346.7051
19:39:11:087,0.3087,1.8233,6.9775,66.5987,-0.0946,0.0653,-0.316,347.4181
19:39:11:108,0.3278,2.1775,6.7789,67.2971,-0.1361,0.0458,-0.3209,347.78
19:39:11:125,0.1866,2.3785,7.0851,65.4767,-0.2522,0.0214,-0.3563,348.1977
19:39:11:148,0.201,2.3306,7.7934,65.7642,-0.3829,-0.0226,-0.3905,348.6501
19:39:11:165,0.1292,2.2445,8.7649,65.8238,-0.4831,-0.0214,-0.4089,349.1262
19:39:11:185,0.0957,2.2349,9.6455,66.2408,-0.5185,0.0092,-0.3905,349.5685
19:39:11:204,0.2632,2.144,10.3896,66.1751,-0.4794,0.0251,-0.3405,349.9434
19:39:11:224,0.3661,2.2253,11.0357,64.7856,-0.3854,0.0153,-0.2684,350.242
19:39:11:244,0.6461,2.5053,11.263,65.3743,-0.2131,-0.0092,-0.1706,350.4309
19:39:11:265,0.95,2.9288,10.6816,62.9847,0.0386,0.0324,-0.0766,350.5023
19:39:11:287,0.7418,3.3906,9.6885,65.4767,0.2695,0.1448,-0.0619,350.5299
19:39:11:305,0.5145,3.3978,9.1908,65.3614,0.3391,0.212,-0.1083,350.6174
19:39:11:324,0.3757,3.1944,9.2865,64.1988,0.2756,0.1533,-0.1719,350.7949
19:39:11:344,0.0096,2.8499,9.6885,65.5308,0.1693,0.0458,-0.2635,351.0858
19:39:11:364,-0.6102,2.3689,10.1121,65.0751,0.0398,0.0165,-0.3551,351.5128
19:39:11:449,-1.7994,1.9119,10.3872,66.8506,-0.1264,0.0592,-0.4235,352.0157
19:39:11:449,-2.8666,1.596,10.8108,65.2848,-0.3316,0.2156,-0.404,352.5023
19:39:11:457,-3.1178,1.1342,11.7751,64.2002,-0.5784,0.383,-0.2403,352.7812
19:39:11:457,-2.4431,0.1795,13.4692,63.0518,-0.7775,0.3683,-0.0179,352.7866
19:39:11:470,-1.7133,-0.7537,15.3667,64.7858,-0.769,0.0751,0.1372,352.6638
19:39:11:485,-2.1009,-0.4427,15.3524,63.4924,-0.3414,-0.1655,0.2362,352.461
19:39:11:503,-2.723,0.2393,12.4881,62.4708,0.4991,0.0336,0.4243,352.0466
19:39:11:524,-2.5675,0.4451,8.9396,63.9328,1.22,0.2901,0.6345,351.3669
19:39:11:544,-0.7178,1.0457,6.1591,63.4848,0.6311,-0.0263,0.7493,350.5721
19:39:11:566,0.0096,0.8925,8.0877,63.4849,-0.1545,0.0251,0.5783,349.1981
19:39:11:584,-0.7729,0.3087,9.7507,63.4848,-0.6554,0.2474,0.2631,348.8913
19:39:11:605,-1.9884,0.0646,10.739,63.4848,-0.7763,0.4038,0.0541,348.8151
19:39:11:625,-2.4144,0.0479,10.5045,63.4848,-0.5405,0.3891,0.1372,348.6686
19:39:11:645,-1.6104,0.9117,9.0951,63.4848,-0.0457,0.1264,0.4427,348.2189
19:39:11:666,-0.5647,1.6869,6.9679,63.4849,0.482,-0.0751,0.6442,347.5671
19:39:11:684,-0.2919,2.3713,4.9747,63.4848,0.6971,-0.19,0.5453,347.048
19:39:11:707,-0.5145,2.5723,4.8024,63.4848,0.4491,-0.2303,0.3388,346.7742
19:39:11:724,-0.5049,2.1224,6.195,62.4708,0.0141,-0.1668,0.2191,346.6155
19:39:11:743,-0.7011,2.1057,7.9202,62.4009,-0.3011,-0.0825,0.1678,346.478
19:39:11:768,-0.7609,2.0435,9.2913,62.9119,-0.4049,0.0446,0.1543,346.3202
19:39:11:785,-0.603,1.8951,10.124,60.4942,-0.334,0.1399,0.1726,346.141
19:39:11:803,-0.6461,2.065,10.4423,61.4194,-0.1545,0.0959,0.1812,345.9442
19:39:11:823,-0.8207,2.4431,9.923,61.5428,0.0801,-0.08,0.1714,345.7983
19:39:11:843,-0.6269,2.6488,9.076,59.9638,0.2524,-0.2547,0.1335,345.7349
19:39:11:864,-0.0096,2.1966,9.3392,61.6567,0.1681,-0.3488,0.0541,345.7387
19:39:11:884,0.536,1.6654,10.6241,61.4817,-0.0567,-0.3256,-0.0191,345.7981
19:39:11:904,0.6963,1.194,11.0357,59.1948,-0.0921,-0.2523,-0.0472,345.8692
19:39:11:923,0.0311,1.7348,10.7031,60.3675,0.0825,-0.2242,-0.0534,345.9691
19:39:11:944,0.1819,2.0243,10.0786,59.5837,0.2267,-0.3207,-0.0045,346.0474
19:39:11:964,0.6078,1.9071,9.9206,59.8365,0.1656,-0.4685,0.0138,346.1189
19:39:11:986,0.9284,1.8209,10.6002,58.9979,-0.1129,-0.5003,-0.0485,346.2489
19:39:12:005,0.9045,0.5025,13.1294,59.9202,-0.5246,-0.1485,-0.2183,346.6664
19:39:12:024,0.5623,0.3159,13.1031,60.2848,-0.3512,-0.0483,-0.2488,346.9185
19:39:12:045,0.323,0.3709,12,60.8736,-0.0323,0.0861,-0.2085,347.1267
19:39:12:069,0.4642,0.4379,10.6648,60.0168,0.212,0.2364,-0.1523,347.2463
19:39:12:083,0.8303,0.3924,9.9206,60.7928,0.2365,0.2681,-0.1645,347.3853
19:39:12:104,0.7107,0.2201,9.856,59.9302,0.0899,0.1765,-0.2989,347.6786
19:39:12:122,0.1675,-0.0694,10.1336,60.2638,-0.1031,0.0702,-0.4626,348.1609
19:39:12:143,-0.1579,-0.1507,10.3705,61.2938,-0.2388,0.0629,-0.5017,348.7059
19:39:12:163,-0.1507,-0.0239,10.1073,60.2072,-0.2424,0.135,-0.426,349.1468
19:39:12:184,-0.1555,0.3996,9.1238,60.342,-0.0934,0.2339,-0.3429,349.4931
19:39:12:203,-0.3829,0.8638,7.6642,61.3769,0.1314,0.2743,-0.3099,349.8031
19:39:12:224,-0.5815,1.2203,6.1304,59.6813,0.3477,0.2058,-0.2965,350.1186
19:39:12:243,-0.5838,1.5434,4.9005,59.8196,0.4808,0.1008,-0.2891,350.424
19:39:12:267,-0.7705,1.8281,4.1396,59.666,0.4552,0.0336,-0.3014,350.7849
19:39:12:285,-0.8303,2.0148,4.185,60.5798,0.2133,-0.0055,-0.3136,351.1619
19:39:12:303,-0.7825,2.0459,5.6112,59.0429,-0.185,-0.0226,-0.3185,351.5354
19:39:12:323,-0.7657,1.8521,7.5733,60.437,-0.5576,-0.0336,-0.3233,351.9091
19:39:12:343,-0.7442,1.7109,9.5115,62.2657,-0.7629,-0.0104,-0.3026,352.2542
19:39:12:363,-0.4068,1.3065,10.9591,59.4183,-0.7934,-0.0336,-0.2317,352.5286
19:39:12:382,-0.2584,1.1294,12.347,61.1295,-0.6566,-0.0764,-0.1315,352.6781
19:39:12:402,-0.2177,1.34,12.9021,60.8768,-0.3756,-0.0935,-0.0081,352.6978
19:39:12:426,-0.2847,1.9621,12.5121,59.9915,-0.0213,-0.0153,0.125,352.5775
19:39:12:443,-0.335,2.3641,11.3492,60.3583,0.2744,0.1057,0.2484,352.306
19:39:12:467,0.6269,2.723,10.94,62.4781,0.2841,0.1606,0.439,351.369
19:39:12:484,1.0457,2.6082,11.8564,62.6017,0.0813,0.1912,0.4084,350.8848
19:39:12:502,0.6006,2.3689,12.615,61.6184,-0.0518,0.2083,0.2435,350.5872
19:39:12:523,-0.5456,2.2469,12.4929,62.1407,-0.0054,0.1765,0.0517,350.5186
19:39:12:552,-1.3448,2.0315,11.6387,61.1104,0.1363,0.0739,-0.0424,350.5898
19:39:12:567,-1.0337,1.6008,11.5167,62.6357,0.1522,-0.1277,-0.035,350.6681
19:39:12:585,-0.4475,0.7633,12.8112,63.405,-0.0592,-0.3928,-0.0472,350.7801
19:39:12:603,-1.0433,0.3613,14.3234,63.2021,-0.2351,-0.5504,-0.1205,351.0101
19:39:12:621,-1.8951,0.3039,13.8879,62.0045,-0.0396,-0.482,-0.0949,351.2372
19:39:12:641,-2.2181,0.4187,11.0357,62.4855,0.5187,-0.2486,0.1128,351.2158
19:39:12:661,-1.931,0.7466,8.0758,63.8198,0.9793,-0.2266,0.3694,350.9178
19:39:12:682,-1.3591,1.2203,6.3194,61.9061,0.9646,-0.4881,0.5135,350.4955
19:39:12:702,-0.6174,1.529,6.7047,63.398,0.5285,-0.7117,0.5331,350.0901
19:39:12:722,-0.1962,1.1653,8.2002,64.0207,0.0263,-0.6872,0.439,349.776
19:39:12:741,-0.2058,0.7705,9.1932,62.1425,-0.2278,-0.4795,0.2997,349.566
19:39:12:763,-0.3781,0.5216,9.4229,61.9144,-0.2485,-0.2218,0.2178,349.3978
19:39:12:783,-0.5527,0.5456,9.2794,63.6514,-0.1581,-0.0238,0.213,349.191
19:39:12:805,-0.4714,0.7298,8.6907,63.8476,0.0141,0.0458,0.2679,348.9246
19:39:12:824,-0.2895,1.0624,7.5805,62.8147,0.2499,0.0141,0.3364,348.5736
19:39:12:843,0.0455,1.4213,6.3027,63.7492,0.4711,-0.0519,0.3864,348.1839
19:39:12:868,0.2417,1.6965,5.1637,65.651,0.5859,-0.1191,0.3791,347.8198
19:39:12:887,0.201,1.8903,4.5751,64.7499,0.5065,-0.1863,0.2899,347.5734
19:39:12:903,0.055,1.931,5.0201,64.8975,0.2059,-0.2181,0.1763,347.4626
19:39:12:925,0.3039,1.7396,8.418,63.6379,-0.4978,0.0128,0.0981,347.4044
19:39:12:947,0.4498,1.608,9.8369,63.8117,-0.6065,0.1216,0.0676,347.2141
19:39:12:968,0.5934,1.6415,10.9304,65.3842,-0.5796,0.1643,0.0346,347.1604
19:39:12:988,0.5168,1.6774,11.7775,65.3208,-0.4916,0.1252,-0.013,347.1572
19:39:13:012,0.4451,1.5793,12.4259,67.2329,-0.3768,-0.0324,-0.0729,347.2511
19:39:13:022,0.4786,1.4596,12.7896,66.1946,-0.2669,-0.2547,-0.1181,347.432
19:39:13:043,0.6245,1.2658,12.6389,67.3898,-0.1789,-0.3476,-0.1413,347.6515
19:39:13:063,0.6485,1.1844,12.4523,66.5985,-0.1655,-0.2498,-0.1535,347.8744
19:39:13:084,1.0433,1.048,12.6556,67.6657,-0.2424,-0.1704,-0.1279,348.0251
19:39:13:105,1.5984,1.0217,12.8136,66.4048,-0.317,-0.1338,-0.0766,348.1143
19:39:13:123,2.1655,0.7992,12.7202,67.6983,-0.3426,-0.0531,-0.0631,348.1578
19:39:13:143,2.2875,0.3159,12.6796,67.0353,-0.3609,0.0543,-0.1401,348.2562
19:39:13:163,1.9693,0.0191,12.5886,66.518,-0.3658,0.1753,-0.2342,348.4547
19:39:13:182,1.4453,0.189,12.0215,67.7355,-0.2669,0.3451,-0.2586,348.6681
19:39:13:203,1.3065,0.3781,11.2941,68.0161,-0.086,0.4441,-0.211,348.8208
19:39:13:223,1.6893,0.3637,10.404,67.7895,0.1131,0.3842,-0.1413,348.8941
19:39:13:243,2.1799,0.4092,9.3224,66.5721,0.3,0.2437,-0.1157,348.9432
19:39:13:266,2.4239,0.1531,8.0566,67.4007,0.421,0.0885,-0.1804,349.0579
19:39:13:284,2.0291,0.0598,7.2526,68.0421,0.3611,-0.069,-0.3246,349.356
19:39:13:305,1.6367,0.0742,7.5781,67.4246,0.1045,-0.102,-0.4309,349.7856
19:39:13:325,1.1031,0.0718,8.1691,67.0194,-0.1312,0.0922,-0.4749,350.2641
19:39:13:342,0.6269,0.2847,8.3964,67.4601,-0.196,0.3146,-0.459,350.697
19:39:13:363,0.5575,0.5312,7.9992,69.1954,-0.1007,0.3867,-0.3649,351.0306
19:39:13:386,0.6676,1.1222,6.4534,67.4548,0.1803,0.2804,-0.25,351.4844
19:39:13:403,0.5384,1.474,6.0945,67.149,0.1644,0.1961,-0.2635,351.7229
19:39:13:422,0.4953,1.6726,6.1256,67.0188,0.0312,0.1203,-0.2867,352.0042
19:39:13:442,0.3183,1.8114,6.8818,67.5016,-0.185,0.1203,-0.3221,352.3166
19:39:13:530,0.2608,1.864,8.1236,68.0768,-0.422,0.168,-0.3233,352.6428
19:39:13:530,0.2871,1.8664,9.5545,67.1374,-0.5784,0.2095,-0.2879,352.9062
19:39:13:531,0.4164,1.6941,10.4471,67.2629,-0.6199,0.2339,-0.2488,353.1267
19:39:13:531,0.4116,1.6798,11.0357,68.1208,-0.5747,0.3024,-0.2061,353.2911
19:39:13:542,0.2417,2.0148,11.5119,67.1803,-0.4916,0.4258,-0.1425,353.3667
19:39:13:562,0,2.345,12.067,68.7358,-0.367,0.4746,-0.068,353.3629
19:39:13:584,0.0191,2.3474,12.0096,67.5642,-0.1374,0.4258,-0.0204,353.332
19:39:13:603,0.0191,2.211,11.6267,69.1872,0.1118,0.3378,-0.0265,353.2966
19:39:13:624,-0.3206,2.1296,11.397,68.8649,0.2243,0.2254,-0.0851,353.3588
19:39:13:643,-1.0217,1.9645,11.3133,67.5851,0.2536,0.1277,-0.1719,353.5514
19:39:13:662,-1.9501,1.8257,11.2702,66.9397,0.2621,0.0531,-0.2281,353.8153
19:39:13:687,-2.7517,1.7898,11.1171,67.1863,0.2536,0.0189,-0.1914,354.0675
19:39:13:705,-2.8714,1.5649,11.3324,66.1184,0.2059,0.0104,-0.0619,354.1925
19:39:13:723,-2.0004,0.548,11.9498,67.3798,0.1509,-0.0837,0.0871,354.1331
19:39:13:743,-1.1701,-0.524,12.3972,65.0892,0.1228,-0.3146,0.1788,353.9578
19:39:13:764,-1.2754,-0.3709,12.3039,66.4726,0.1387,-0.4209,0.2411,353.7533
19:39:13:783,-1.3208,0.079,10.928,68.4456,0.3147,-0.1326,0.4023,353.3382
19:39:13:802,-1.1916,0.4475,9.1262,65.6116,0.5419,0.1069,0.5404,352.7293
19:39:13:822,-0.7035,0.5145,8.0399,65.2983,0.5541,-0.0861,0.5379,352.1451
19:39:13:843,-0.1125,0.1555,8.6189,64.638,-0.0506,-0.4917,0.3535,351.6605
19:39:13:862,-0.3278,-0.1771,9.1238,64.7322,-0.3218,-0.4013,0.2215,351.1219
19:39:13:887,-0.4475,-0.402,9.4995,66.1343,-0.4428,-0.2572,0.136,351.0001
19:39:13:902,-0.5815,-0.5934,9.4588,63.8343,-0.3841,-0.0519,0.1226,350.8702
19:39:13:922,-0.9834,-0.213,8.9898,65.7843,-0.2021,0.1619,0.1812,350.6583
19:39:13:942,-0.9452,0.2728,8.1404,61.8108,0.0276,0.2743,0.3083,350.2731
19:39:13:963,-0.9236,0.7131,7.1713,65.3058,0.2304,0.2755,0.3999,349.7885
19:39:13:988,-0.938,1.2706,6.5133,64.4615,0.3159,0.2107,0.4329,349.3008
19:39:14:006,-0.926,1.7563,6.384,62.6135,0.2792,0.1142,0.4329,348.8304
19:39:14:023,-0.9595,2.0076,6.6305,63.9475,0.1534,0.0128,0.3755,348.4366
19:39:14:042,-1.127,2.1392,7.5517,64.1963,-0.025,-0.0104,0.2936,348.1438
19:39:14:062,-0.9978,2.1583,8.8678,63.2022,-0.1899,0.0251,0.2545,347.8778
19:39:14:087,-0.9069,2.2325,9.9924,63.8735,-0.2546,0.0482,0.2313,347.6403
19:39:14:102,-1.0098,2.3091,10.7438,62.632,-0.1936,0.0409,0.1861,347.4447
19:39:14:123,-1.1438,2.2588,11.1123,61.8108,-0.0628,-0.036,0.1421,347.3044
19:39:14:142,-0.9858,2.0339,11.2295,63.0538,0.0532,-0.1533,0.136,347.1776
19:39:14:162,-0.6532,1.8473,11.2845,62.4523,0.1106,-0.2303,0.1604,347.0283
19:39:14:184,-0.0048,1.6798,11.3061,63.2022,0.107,-0.2132,0.1995,346.8177
19:39:14:203,0.5671,1.7946,11.2582,62.188,0.0569,-0.1191,0.2337,346.5455
19:39:14:223,0.9428,1.8831,11.3204,62.9691,-0.0201,-0.0434,0.224,346.2377
19:39:14:242,1.0648,1.7731,11.6291,60.1395,-0.1178,-0.0861,0.1458,346.0315
19:39:14:262,0.9643,1.4764,12.481,59.2399,-0.2216,-0.2303,0.0236,345.9751
19:39:14:286,1.1294,0.5958,13.1007,60.2112,-0.2473,-0.3341,-0.0766,346.0084
19:39:14:303,0.6437,-0.7657,14.5244,59.274,-0.1703,-0.515,-0.261,346.1776
19:39:14:323,0.1244,-0.9404,14.3354,60.5846,0.0752,-0.3757,-0.1963,346.6591
19:39:14:342,0.4403,-1.0241,12.8662,58.5679,0.5077,-0.1313,0.0554,346.5443
19:39:14:361,1.206,-0.6748,10.9017,57.2279,0.9096,-0.0043,0.3327,346.0997
19:39:14:384,2.0459,-0.4857,9.1286,58.8952,1.1051,0.0189,0.4524,345.4803
19:39:14:403,2.4742,-0.3254,7.602,56.6212,1.0831,0.0165,0.3987,344.9133
19:39:14:422,2.4,-0.1077,6.4439,57.6554,0.9072,0.0507,0.2215,344.5361
19:39:14:443,1.8185,0.0766,5.7236,55.7892,0.6384,0.1044,-0.0057,344.4064
19:39:14:462,1.0911,0.2153,5.4437,56.2966,0.3415,0.1179,-0.1939,344.4933
19:39:14:485,0.536,0.39,5.5992,54.933,0.0777,0.0666,-0.2818,344.7137
19:39:14:507,0.4427,0.524,5.805,55.7892,-0.1056,0.0128,-0.2659,344.9338
19:39:14:523,0.3996,0.8375,5.9797,56.3142,-0.2094,0.0177,-0.2232,345.1067
19:39:14:541,0.469,1.1773,6.1639,55.5293,-0.3023,0.0397,-0.1926,345.239
19:39:14:562,0.5958,1.3998,6.4869,54.3419,-0.3988,0.058,-0.1706,345.3554
19:39:14:585,0.7274,1.7324,7.0062,54.432,-0.4929,0.0263,-0.1682,345.4761
19:39:14:602,0.9595,1.9621,7.8891,55.4055,-0.5918,-0.0678,-0.1877,345.6134
19:39:14:624,1.3232,2.0076,9.052,55.2087,-0.6688,-0.1558,-0.2256,345.7872
19:39:14:642,1.4859,1.9765,9.7531,55.7822,-0.6493,-0.1423,-0.2806,346.0214
19:39:14:662,1.1892,2.1488,10.5045,53.0058,-0.5869,-0.0373,-0.3319,346.3063
19:39:14:685,0.7489,2.4479,11.3348,55.0834,-0.5014,0.0189,-0.3356,346.6111
19:39:14:707,0.5767,2.6465,11.7296,54.4719,-0.3414,-0.0165,-0.2635,346.8349
19:39:14:726,0.8495,3.2614,11.1218,53.3212,0.1192,0.0177,-0.0314,346.9572
19:39:14:741,0.9045,3.3212,10.6792,53.3657,0.2426,0.1374,-0.013,346.9878
19:39:14:761,0.7083,3.0389,10.9065,51.6158,0.2414,0.1839,-0.0827,346.8831
19:39:14:786,0.347,2.8762,11.1506,53.7949,0.2524,0.1191,-0.167,346.9468
19:39:14:830,-0.2345,2.814,10.9113,51.7645,0.3281,-0.0067,-0.2476,347.7077
19:39:14:837,-1.5697,2.7374,10.3633,49.1242,0.2902,-0.0177,-0.2965,348.0487
19:39:14:857,-2.0124,2.4933,10.8036,48.5682,0.1314,0.135,-0.2268,348.295
19:39:14:875,-2.1176,2.0459,11.3707,50.0841,0.0178,0.2633,-0.1059,348.4046
19:39:14:895,-1.8161,1.273,11.6674,51.3945,0.0178,0.2474,0.0212,348.3602
19:39:14:915,-1.2969,0.4044,11.8923,49.5919,0.0825,0.0837,0.1189,348.205
19:39:14:933,-1.3854,0.2967,11.9833,49.4998,0.1705,-0.08,0.1922,348.0004
19:39:14:954,-1.4596,0.3493,11.2654,48.3472,0.3428,-0.0434,0.285,347.6878
19:39:14:971,-1.4572,0.4187,10.1623,47.8727,0.5163,0.0153,0.3718,347.299
19:39:14:990,-1.2467,0.3565,9.7507,47.5777,0.5163,-0.1008,0.4109,346.856
19:39:15:009,-0.6221,0.3063,9.801,47.9541,0.3831,-0.2254,0.4597,346.3419
19:39:15:028,0.1292,0.2321,9.8776,46.5203,0.234,-0.201,0.4683,345.7701
19:39:15:048,0.5025,0.1316,9.4732,44.9186,0.1583,0.0177,0.4011,345.2116
19:39:15:067,0.4259,0.0766,8.5041,46.1148,0.1461,0.2975,0.285,344.7584
19:39:15:085,0.0574,0.0957,7.6499,46.0471,0.1449,0.4917,0.202,344.3443
19:39:15:105,-0.1986,0.2895,7.2646,46.8128,0.1228,0.4954,0.1983,343.9665
19:39:15:124,-0.1795,0.4331,7.1785,44.3771,0.0948,0.328,0.2472,343.561
19:39:15:143,0.213,0.8279,7.0253,44.0236,0.0813,0.1912,0.3351,343.0822
19:39:15:163,0.5767,1.3615,6.6616,43.7068,0.0862,0.2547,0.4121,342.4985
19:39:15:182,0.6939,1.7898,6.1878,44.1022,0.0777,0.4025,0.3926,341.8949
19:39:15:205,0.5743,2.0961,5.8672,44.17,0.019,0.4392,0.2924,341.3934
19:39:15:224,0.5145,2.3354,6.0873,43.1862,-0.1215,0.2938,0.1678,341.1307
19:39:15:242,0.6365,2.3904,7.0923,44.3701,-0.3206,0.0605,0.0358,341.0066
19:39:15:261,0.5527,2.2804,8.2552,42.3991,-0.4721,-0.1008,-0.1096,341.0638
19:39:15:283,0.1675,2.3234,9.2507,42.5209,-0.5246,-0.1802,-0.2403,341.2882
19:39:15:303,0.0838,2.2756,9.8393,41.4579,-0.5149,-0.2767,-0.3136,341.6189
19:39:15:325,0.3039,2.0052,10.5188,42.8453,-0.5185,-0.3891,-0.3539,341.9903
19:39:15:342,0.6915,1.5266,11.5669,42.3073,-0.6028,-0.5247,-0.4138,342.4334
19:39:15:362,1.0193,1.1031,12.926,42.3154,-0.714,-0.6151,-0.4675,342.9309
19:39:15:385,0.9021,0.9212,14.1918,41.5056,-0.7152,-0.5809,-0.4834,343.4438
19:39:15:403,0.8806,0.9021,14.1296,40.8613,-0.488,-0.4697,-0.426,343.8595
19:39:15:424,1.4596,0.9452,12.8925,40.3477,-0.1545,-0.416,-0.3014,344.1238
19:39:15:441,2.4837,0.737,12.0096,41.5191,-0.014,-0.5394,-0.2427,344.2838
19:39:15:461,3.0867,0.335,12.1149,40.0862,-0.1056,-0.6713,-0.3392,344.5422
19:39:15:484,2.723,-0.2536,13.0241,41.4618,-0.2803,-0.6603,-0.553,345.0735
19:39:15:504,1.8353,-0.402,13.3519,40.3803,-0.2974,-0.4539,-0.674,345.729
19:39:15:523,1.4357,-0.3446,12.2058,40.8467,-0.0067,-0.1692,-0.619,346.3188
19:39:15:608,1.7539,-0.335,10.5188,40.4778,0.3415,-0.1118,-0.4846,346.7305
19:39:15:609,2.3857,-0.28,9.478,40.2766,0.4881,-0.2608,-0.4235,347.076
19:39:15:609,2.7087,-0.1651,8.7769,39.9055,0.4515,-0.4136,-0.4761,347.4829
19:39:15:609,2.6369,-0.1819,8.0782,35.9543,0.3379,-0.4441,-0.6276,348.0597
19:39:15:623,2.0818,-0.2752,7.3627,36.2892,0.1791,-0.339,-0.8059,348.794
19:39:15:642,1.2203,-0.1723,7.0205,38.1047,-0.0286,-0.1741,-0.9269,349.6871
19:39:15:666,0.0335,0.457,7.1976,39.2969,-0.3121,0.0104,-0.8487,351.6007
19:39:15:684,0.1507,0.7107,6.9966,38.6534,-0.2888,-0.0373,-0.7229,352.3423
19:39:15:705,0.3829,0.9763,6.7573,38.5976,-0.2571,-0.1289,-0.6361,353.0139
19:39:15:721,0.5647,1.127,6.7573,39.538,-0.2986,-0.1863,-0.6129,353.6666
19:39:15:741,0.5264,1.3256,7.2766,37.3652,-0.4184,-0.2095,-0.6471,354.3524
19:39:15:761,0.4379,1.3065,8.3892,37.2426,-0.5552,-0.2572,-0.6947,355.1033
19:39:15:784,0.3039,1.2012,9.198,34.6232,-0.6199,-0.3024,-0.7094,355.8802
19:39:15:807,0.1795,1.1725,9.8584,36.9179,-0.6126,-0.2926,-0.6691,356.6104
19:39:15:823,0.3541,1.1294,10.8538,36.5011,-0.5918,-0.2767,-0.575,357.2404
19:39:15:842,0.4786,1.1988,11.7775,38.2954,-0.5075,-0.2327,-0.4516,357.7348
19:39:15:861,0.5168,1.4524,12.0909,36.8088,-0.3267,-0.1399,-0.3221,358.0782
19:39:15:886,0.5886,1.7874,11.8899,36.4629,-0.1007,-0.0421,-0.1889,358.2565
19:39:15:903,0.7178,2.1152,11.1697,36.1557,0.1033,-0.0067,-0.0668,358.3033
19:39:15:922,0.8686,2.3713,10.5906,35.7085,0.2414,0.0251,0.0236,358.2319
19:39:15:941,0.8519,2.4909,10.1671,35.5846,0.3024,0.0849,0.0688,358.0881
19:39:15:961,0.4881,2.5986,9.9637,35.1463,0.333,0.124,0.0786,357.9558
19:39:15:984,0.256,2.5914,9.7723,36.1167,0.344,0.0727,0.0737,357.8687
19:39:16:002,0.0742,2.4263,9.8536,35.6473,0.3,-0.0177,0.0615,357.8012
19:39:16:022,-0.1771,2.1105,10.5069,35.1463,0.1681,-0.0715,0.0322,357.7681
19:39:16:041,-0.1436,1.2371,11.8134,34.8417,0.0129,-0.1093,0.015,357.7858
19:39:16:061,-0.1053,0.1507,13.1174,36.1432,-0.1117,-0.306,0.0053,357.8346
19:39:16:087,-0.268,-0.4116,14.522,35.4453,-0.2522,-0.4844,0.0163,357.8844
19:39:16:104,-0.7107,-0.6485,14.9934,35.1629,-0.163,-0.1448,0.1372,357.3599
19:39:16:126,-1.3232,-0.201,9.8058,34.6147,0.9378,1.0452,0.8715,356.4135
19:39:16:141,-0.548,0.3039,7.5541,36.4113,1.2016,0.8998,1.2319,355.0015
19:39:16:161,0.5958,1.0792,6.9033,33.3003,1.033,0.449,1.3626,353.4157
19:39:16:180,1.6367,1.3663,7.3651,33.3979,0.6384,0.0605,1.1964,351.9767
19:39:16:209,1.6869,0.8231,8.0758,32.9695,0.2597,-0.0678,0.7921,350.9933
19:39:16:233,0.8159,0.4068,8.9372,34.7791,-0.0323,0.0507,0.4036,350.4621
19:39:16:239,-0.2752,0.3517,9.4708,34.7791,-0.1752,0.2132,0.2594,350.1523
19:39:16:259,-0.7801,0.3924,9.2507,35.8585,-0.0836,0.3696,0.3657,349.7261
19:39:16:289,-0.4379,0.7322,8.2169,35.4512,0.1424,0.4991,0.6149,349.011
19:39:16:310,-0.1196,1.2251,7.0827,36.0507,0.3318,0.5809,0.8202,348.0278
19:39:16:320,0.3757,1.6032,6.3769,35.1205,0.3782,0.5907,0.9142,346.9243
19:39:16:340,0.792,1.8903,5.9964,34.6116,0.2939,0.5174,0.9069,345.83
19:39:16:361,1.0193,2.2756,6.262,36.5711,0.1106,0.3903,0.8238,344.8433
19:39:16:382,1.2586,2.4383,7.0397,36.0892,-0.097,0.2828,0.6943,344.0081
19:39:16:402,1.2491,2.3569,7.937,36.7979,-0.2424,0.1839,0.5135,343.3857
19:39:16:418,1.0409,2.1559,8.7984,35.0914,-0.3121,0.0507,0.3388,342.9773
19:39:16:439,0.7872,2.2971,9.8513,35.6504,-0.3292,-0.0629,0.2509,342.6997
19:39:16:462,0.8375,2.3952,10.6505,35.5644,-0.24,-0.08,0.2252,342.4796
19:39:16:480,1.1174,2.1918,10.7797,34.4976,-0.0995,-0.0397,0.1751,342.3095
19:39:16:500,1.4094,1.6343,10.9089,36.961,-0.0677,0.0141,0.0896,342.188
19:39:16:519,1.7061,1.1246,11.854,36.3908,-0.2009,-0.0141,0.0212,342.1314
19:39:16:539,2.0387,0.8471,13.2156,37.2609,-0.3573,-0.1582,-0.0118,342.1158
19:39:16:559,2.1703,0.8136,13.8425,36.5983,-0.3475,-0.295,-0.0509,342.1534
19:39:16:582,2.8211,0.4164,12.7609,37.5637,-0.0299,-0.2682,-0.0692,342.1989
19:39:16:601,3.1466,0.0646,11.8493,36.8485,0.0532,-0.212,-0.1169,342.2088
19:39:16:618,2.8881,-0.3757,11.6578,35.7593,0.0007,-0.1949,-0.2647,342.2845
19:39:16:639,1.8353,-0.3039,11.7679,37.8814,-0.0555,-0.1326,-0.4174,342.5207
19:39:16:659,1.0792,-0.3422,10.6194,37.415,0.1265,0.0763,-0.4431,343.4222
19:39:16:679,1.1414,-0.5886,8.8846,36.1843,0.3867,0.1667,-0.3466,343.739
19:39:16:701,1.6295,-0.3278,7.8389,36.7979,0.3978,0.0153,-0.2354,343.9575
19:39:16:724,2.3426,-0.1316,7.8891,37.1953,0.1522,-0.1717,-0.2,344.1289
19:39:16:741,2.4885,-0.0144,8.5184,34.0191,-0.1471,-0.2608,-0.3282,344.4656
19:39:16:760,1.8808,-0.1005,8.6237,36.8485,-0.3316,-0.1692,-0.5408,345.0133
19:39:16:780,0.9188,-0.0096,8.1763,35.1314,-0.4049,0.0446,-0.6789,345.7389
19:39:16:803,0.2201,0.1412,8.0614,36.4129,-0.4697,0.1606,-0.6972,346.5028
19:39:16:820,-0.0838,0.3254,8.418,36.596,-0.5222,0.1203,-0.6337,347.2508
19:39:16:840,0.0383,0.5312,8.6022,37.3827,-0.4868,0.0373,-0.5225,347.8603
19:39:16:861,0.1795,0.8399,8.1141,37.8569,-0.3634,0.0238,-0.4162,348.3546
19:39:16:881,0.3374,1.0624,7.4225,37.3424,-0.2546,0.0788,-0.3515,348.7711
19:39:16:901,0.5121,1.2849,7.3412,37.2497,-0.2754,0.102,-0.3233,349.1716
19:39:16:922,0.524,1.5218,8.1499,38.2462,-0.3866,0.0568,-0.3392,349.5811
19:39:16:942,0.4666,1.5506,9.0832,38.7014,-0.4379,-0.0141,-0.3686,350.0394
19:39:16:961,0.5049,1.5649,9.667,37.7848,-0.3707,-0.0617,-0.3576,350.4854
19:39:16:982,0.7896,1.6247,9.9446,38.6709,-0.2546,-0.0947,-0.2977,350.8599
19:39:17:001,1.1151,1.6271,10.2293,37.6913,-0.1361,-0.0984,-0.2415,351.1458
19:39:17:022,1.2754,1.5601,10.2533,36.694,-0.0176,-0.1154,-0.2232,351.4089
19:39:17:042,0.8088,1.9071,10.4136,38.6733,0.0813,-0.0483,-0.2171,351.9595
19:39:17:063,0.3326,2.0746,10.3466,37.7399,0.1473,0.0629,-0.1767,352.2229
19:39:17:085,-0.1675,2.0794,10.9208,37.6791,0.2145,0.0617,-0.1096,352.4405
19:39:17:101,-0.3876,1.6271,11.6004,38.6631,0.3171,-0.1655,-0.0656,352.6261
19:39:17:123,-0.6508,1.2419,11.8971,39.3362,0.4881,-0.5247,-0.0448,352.8392
19:39:17:142,-0.9595,1.2251,11.3396,38.6909,0.6311,-0.8033,-0.0143,353.0974
19:39:17:160,-1.4333,1.3161,10.4925,37.2875,0.6176,-0.7178,0.0566,353.2701
19:39:17:181,-2.1105,1.474,9.9541,37.3579,0.4173,-0.2278,0.2044,353.2422
19:39:17:202,-2.3785,1.5577,9.8465,38.2275,0.1559,0.4148,0.4537,352.8871
19:39:17:223,-1.7683,1.5051,10.0714,39.1987,-0.0824,0.7971,0.7469,352.1327
19:39:17:243,-0.67,0.9739,11.3827,39.1357,-0.2876,0.7031,0.9362,351.1562
19:39:17:259,0.4618,0.4738,12.457,35.2819,-0.306,0.4587,1.0022,350.0838
19:39:17:280,0.7226,0.6269,11.7942,36.9334,-0.0384,0.4196,0.9668,349.0063
19:39:17:303,-0.0407,0.8183,10.3657,36.8905,0.256,0.5064,0.8348,348.0772
19:39:17:323,-0.5264,0.7298,9.7603,39.1194,0.2829,0.3952,0.7224,347.3021
19:39:17:340,-0.3589,0.4331,9.9924,38.6451,0.1094,0.1729,0.6943,346.6249
19:39:17:361,0.2776,0.1005,10.9807,38.1881,-0.1056,0.0495,0.72,345.9103
19:39:17:380,0.8112,0.1579,11.8158,40.1289,-0.196,0.1252,0.7273,345.1485
19:39:17:405,0.8471,0.1747,11.3587,38.6851,-0.0604,0.3268,0.6589,344.4459
19:39:17:420,0.2847,0.2393,10.1886,39.1953,0.1778,0.5504,0.5636,343.8435
19:39:17:439,-0.2919,0.3852,9.588,39.8941,0.3403,0.6799,0.5502,343.2613
19:39:17:461,-0.2201,0.5575,8.9611,38.9284,0.4808,0.6273,0.6357,342.5623
19:39:17:480,0.0502,0.8782,8.0016,41.5266,0.6531,0.4819,0.7285,341.7735
19:39:17:501,0.3589,1.3161,6.6114,38.5498,0.6665,0.3427,0.6589,340.9814
19:39:17:524,0.3039,1.3831,6.7334,39.6968,0.493,0.2914,0.5257,340.2
19:39:17:541,0.2823,1.3328,7.0564,40.4918,0.3171,0.2559,0.3987,339.2388
19:39:17:561,0.0838,1.3831,7.456,38.5002,0.1729,0.2706,0.296,338.9603
19:39:17:579,-0.2082,1.5553,8.2289,40.115,0.0251,0.2963,0.2203,338.7689
19:39:17:602,-0.4929,1.7611,9.1956,40.1499,-0.0714,0.3048,0.1934,338.6075
19:39:17:627,-0.3637,1.9214,9.7579,39.9687,-0.0409,0.2767,0.2203,338.4162
19:39:17:681,-0.0909,1.9932,9.7627,39.6249,0.0593,0.1729,0.2484,338.2221
19:39:17:681,0.2513,1.9023,9.8848,39.152,0.0777,0.0104,0.2289,338.0531
19:39:17:681,0.4786,1.6247,10.4207,39.7313,-0.0103,-0.1338,0.1555,337.9756
19:39:17:699,0.3063,1.3256,11.0979,39.6245,-0.1312,-0.1985,0.0639,338.0081
19:39:17:718,0.0838,1.194,11.7847,39.0494,-0.2265,-0.2584,0.0322,338.0981
19:39:17:740,0.0526,1.2778,12.4331,42.3708,-0.2766,-0.3525,0.0932,338.113
19:39:17:761,0.6724,1.3089,12.9117,40.115,-0.2852,-0.4319,0.2325,337.975
19:39:17:779,1.5912,1.3495,13.1414,40.97,-0.2607,-0.4502,0.3559,337.6906
19:39:17:801,2.2971,1.2586,12.883,40.0174,-0.196,-0.361,0.3669,337.3688
19:39:17:822,2.3976,0.8495,12.1053,42.0352,-0.097,-0.2291,0.2594,337.1359
19:39:17:841,1.7635,0.7442,11.263,40.8834,-0.0018,-0.135,0.1274,337.0545
19:39:17:860,1.1103,0.9045,10.1719,41.7761,0.1607,-0.0104,0.0896,337.03
19:39:17:879,1.0983,0.95,8.7362,42.1373,0.3867,0.0226,0.136,336.9644
19:39:17:900,1.5601,0.9547,7.5039,41.1072,0.515,-0.1081,0.1629,336.8504
19:39:17:923,1.9549,0.8949,6.7478,39.4401,0.4515,-0.2388,0.0969,336.8283
19:39:17:942,1.9549,0.9308,6.8866,42.353,0.1852,-0.3097,-0.0876,337.0244
19:39:17:961,1.2395,0.1364,8.8439,42.1971,-0.3939,-0.1203,-0.5103,338.0244
19:39:17:981,0.7202,0.1268,9.478,41.3128,-0.4794,-0.0165,-0.5811,338.7317
19:39:18:002,0.3183,0.1125,9.7675,41.2347,-0.4403,0.0141,-0.5885,339.4585
19:39:18:022,0.1603,0.189,9.6311,42.2546,-0.3011,0.0421,-0.5396,340.1494
19:39:18:040,0.3183,0.39,8.6979,42.7651,-0.0995,0.113,-0.4382,340.7059
19:39:18:061,0.4953,0.7705,7.6451,41.2292,0.0459,0.2083,-0.36,341.1612
19:39:18:080,0.6939,1.06,7.0804,43.1651,0.0544,0.2987,-0.3319,341.5544
19:39:18:101,0.926,1.3543,7.0493,40.2685,-0.036,0.328,-0.3453,341.9691
19:39:18:121,1.1103,1.5697,7.5326,41.7089,-0.1691,0.3048,-0.3918,342.4221
19:39:18:140,0.9882,1.7444,8.2289,41.1107,-0.2827,0.295,-0.4687,342.9942
19:39:18:161,0.6245,1.8377,8.7314,40.956,-0.3255,0.2877,-0.531,343.6311
19:39:18:180,0.4187,1.8927,9.143,40.222,-0.323,0.2388,-0.5359,344.2724
19:39:18:200,0.2919,2.0483,9.6383,42.2612,-0.306,0.1924,-0.4919,344.8758
19:39:18:221,0.0838,2.2134,9.9398,42.0805,-0.2644,0.1887,-0.4321,345.4165
19:39:18:241,-0.3039,2.2732,10.0475,43.0851,-0.1874,0.1997,-0.3686,345.9095
19:39:18:261,-0.7801,2.2708,9.9876,40.3385,-0.1105,0.1423,-0.3099,346.361
19:39:18:280,-1.3926,2.2229,10.0116,42.2155,-0.0616,-0.0177,-0.2623,346.792
19:39:18:304,-1.8951,2.2062,10.4542,42.6285,-0.0543,-0.2633,-0.1853,347.1748
19:39:18:321,-1.9047,2.1296,11.062,42.2628,-0.0128,-0.4404,-0.046,347.4312
19:39:18:342,-1.8855,2.2229,11.1434,42.7473,0.1228,-0.4551,0.1018,347.5275
19:39:18:359,-1.9119,2.1942,10.5452,42.4457,0.2426,-0.2865,0.2093,347.5063
19:39:18:380,-2.0243,2.0626,10.0068,43.1972,0.2328,-0.0385,0.3083,347.3505
19:39:18:401,-1.6845,1.7683,10.081,41.6832,0.074,0.0543,0.4097,347.052
19:39:18:419,0.9882,-0.0622,14.2062,43.28,-0.6541,-0.4637,0.4549,346.1833
19:39:18:440,1.2108,-0.4738,16.8909,42.5772,-0.8398,-0.4343,0.3535,345.9156
19:39:18:461,-0.4355,-0.6269,16.2832,43.8373,-0.3805,0.0128,0.2606,345.7132
19:39:18:479,-1.1916,-0.5288,13.0863,41.0302,0.4796,0.3561,0.4353,345.3394
19:39:18:501,-0.4427,-0.122,9.9446,43.1796,1.0807,0.2449,0.7982,344.5349
19:39:18:521,0.6987,0.5599,8.0901,42.4516,1.165,-0.0531,1.0046,343.5194
19:39:18:540,1.6343,1.1342,7.59,43.2247,0.8535,-0.1912,0.9545,342.5594
19:39:18:560,1.8784,1.261,7.7288,43.7528,0.4283,-0.1008,0.6711,341.8983
19:39:18:581,1.1079,0.8782,8.1141,42.9024,0.0703,0.0885,0.2802,341.6757
19:39:18:603,0.3781,0.5815,8.7745,43.2802,-0.1508,0.2511,0.0431,341.6585
19:39:18:619,-0.4068,0.8447,9.3296,43.7443,-0.1923,0.2804,0.004,341.7249
19:39:18:639,-0.5288,0.8973,9.2387,41.8666,-0.0421,0.2022,0.0749,341.7414
19:39:18:660,-0.3733,1.0504,8.2289,43.3067,0.2267,0.1313,0.1824,341.626
19:39:18:681,-0.2656,1.3591,7.0588,43.2247,0.4124,0.0995,0.2447,341.4727
19:39:18:705,-0.2584,1.7731,6.5803,44.8282,0.41,0.1032,0.2521,341.3146
19:39:18:723,-0.2991,2.1775,6.6544,42.9321,0.2829,0.113,0.2313,341.1634
19:39:18:741,-0.3254,2.412,7.1043,42.0276,0.1326,0.1032,0.2044,341.0606
19:39:18:760,-0.1196,2.3689,7.681,42.3175,0.0117,0.102,0.1812,340.9455
19:39:18:779,0.0598,2.412,8.473,43.44,-0.0653,0.1093,0.1531,340.8793
19:39:18:805,-0.0933,2.5436,9.1334,44.6307,-0.0775,0.1105,0.0945,340.8599
19:39:18:822,-0.3805,2.5029,9.7077,42.6349,-0.0286,0.0251,0.0212,340.9423
19:39:18:842,-0.3254,2.2899,9.9996,42.7211,0.0532,-0.1631,-0.0191,341.0903
19:39:18:861,0.0096,2.0243,10.3537,42.5418,0.0886,-0.383,-0.0448,341.5713
19:39:18:885,0.3757,1.2203,10.873,42.8235,-0.025,-0.4954,-0.1303,341.7957
19:39:18:903,0.2656,1.1127,11.2439,42.8288,-0.13,-0.3904,-0.1291,342.063
19:39:18:934,0.2895,1.2108,11.543,42.2957,-0.2058,-0.3537,-0.0668,342.2651
19:39:18:938,0.9428,1.1414,11.7416,43.5,-0.2497,-0.4074,0.015,342.3635
19:39:18:958,1.7922,0.8064,11.9139,43.3626,-0.3035,-0.449,0.037,342.4322
19:39:18:979,2.3378,0.3733,12.5264,43.1117,-0.4049,-0.416,-0.0448,342.5759
19:39:19:000,2.053,0.1077,13.2036,44.2742,-0.4782,-0.2877,-0.1914,342.8553
19:39:19:018,1.0337,0.0502,12.8375,42.8757,-0.3377,0.0043,-0.3014,343.2328
19:39:19:039,0.5097,0.0574,11.3181,43.2802,0.0056,0.2352,-0.2549,343.5518
19:39:19:060,0.9021,0.1077,9.6574,43.4649,0.3244,0.2352,-0.09,343.6656
19:39:19:078,1.7348,0.3302,8.3414,42.9969,0.4491,0.1411,0.0468,343.6252
19:39:19:100,2.2181,0.5145,7.7384,44.6624,0.3525,0.047,0.0273,343.599
19:39:19:119,2.4526,0.4546,7.7815,42.2612,0.118,-0.0067,-0.1315,343.7722
19:39:19:140,2.0674,0.2991,8.0231,43.8902,-0.1264,0.0079,-0.3502,344.1746
19:39:19:160,1.3137,0.3398,8.3629,44.222,-0.3108,0.0971,-0.5091,344.7544
19:39:19:180,0.6987,0.5049,8.8415,43.3628,-0.4147,0.1655,-0.5482,345.3962
19:39:19:205,0.3589,0.6604,9.0449,44.222,-0.3915,0.1606,-0.5091,346.0053
19:39:19:219,0.3613,0.9452,8.6285,43.4087,-0.2424,0.1118,-0.4248,346.527
19:39:19:239,0.4522,1.2586,7.8245,44.1411,-0.0726,0.0653,-0.338,346.9501
19:39:19:259,0.5623,1.5386,7.2407,45.03,0.0129,0.0409,-0.294,347.3531
19:39:19:280,0.7561,1.7874,7.0564,45.7559,0.0056,-0.0018,-0.2818,347.7418
19:39:19:302,0.8829,2.0459,7.066,45.0208,-0.0592,-0.0788,-0.3063,348.1601
19:39:19:320,0.7585,2.3186,7.6187,44.6876,-0.1716,-0.1142,-0.3759,348.6706
19:39:19:340,0.6078,2.1344,9.265,44.1411,-0.3157,-0.0287,-0.4516,349.7477
19:39:19:359,0.8136,2.1296,9.8297,45.6213,-0.2779,0.0214,-0.4076,350.2583
19:39:19:378,0.7466,2.254,10.1216,43.8084,-0.1899,0.0825,-0.3783,350.7315
19:39:19:404,0.256,2.4742,10.2437,44.2306,-0.0885,0.1374,-0.3624,351.1994
19:39:19:419,-0.2991,2.7589,10.1001,43.7076,0.0043,0.1533,-0.3038,351.6137
19:39:19:440,-0.3876,2.9527,10.0858,45.0207,0.0605,0.1032,-0.1963,351.9221
19:39:19:460,0.0598,2.7182,10.3681,44.1411,0.0728,0.0531,-0.09,352.164
19:39:19:479,0.1986,2.5268,10.5547,44.1316,0.0679,0.0605,-0.0472,352.2682
19:39:19:503,-0.079,2.6249,10.9615,44.1411,0.0337,0.1203,-0.0472,352.3795
19:39:19:523,-0.469,2.7829,11.3372,44.9672,-0.0042,0.1509,-0.0314,352.4721
19:39:19:539,-0.7513,2.8403,11.5382,45.6213,-0.0164,0.1289,-0.0069,352.5541
19:39:19:559,-0.5743,2.4,11.8445,44.6595,-0.0457,0.058,0.0077,352.6244
19:39:19:579,-0.1555,1.3448,12.8877,46.6844,-0.1789,-0.1509,-0.0302,352.7532
19:39:19:603,-0.2536,0.4498,14.9551,46.0669,-0.3988,-0.4282,-0.1157,353.0095
19:39:19:623,-0.3589,-0.4522,16.331,46.0139,-0.356,-0.5003,-0.1181,353.2777
19:39:19:639,-1.2993,-0.8207,14.522,47.4564,0.1827,-0.2511,0.0419,353.3687
19:39:19:658,-1.5434,-0.5073,11.3683,45.4316,0.8705,0.1093,0.3974,353.0433
19:39:19:679,-0.9188,-0.0718,8.8846,44.9331,1.2102,0.1484,0.7579,352.2794
19:39:19:815,-0.0096,0.2871,7.6833,46.8588,1.1515,-0.0507,0.9008,351.3678
19:39:19:817,0.7298,0.5456,7.6403,45.4089,0.8461,-0.2523,0.8324,349.995
19:39:19:819,0.1938,0.2991,8.4802,46.8694,0.2902,-0.2132,0.3779,349.7131
19:39:19:820,-0.4498,0.146,8.5232,44.0526,0.1656,-0.0409,0.2728,349.4911
19:39:19:821,-0.7633,0.1986,8.3438,45.2289,0.1314,0.1228,0.3254,349.1494
19:39:19:822,-0.6532,0.4379,7.6044,44.62,0.1974,0.2278,0.4537,348.6331
19:39:19:823,-0.4834,0.7561,6.6425,44.0774,0.2976,0.2511,0.5587,348.031
19:39:19:841,-0.0096,1.0217,5.817,45.2289,0.3195,0.2364,0.6161,347.3689
19:39:19:860,0.1914,1.4142,5.5035,44.1371,0.2157,0.2205,0.6015,346.7097
19:39:19:878,0.1866,1.7898,5.9103,43.6623,0.0031,0.2058,0.5147,346.1659
19:39:19:898,0.0072,1.9525,6.8818,44.6757,-0.2131,0.168,0.4084,345.7543
19:39:19:920,0.0335,1.8497,7.6786,44.363,-0.3475,0.1191,0.329,345.4364
19:39:19:941,0.0383,1.8999,8.4036,44.9495,-0.4208,0.1167,0.2997,345.1407
19:39:19:959,0.2847,1.931,9.332,45.3987,-0.4697,0.1252,0.296,344.8387
19:39:19:979,0.4546,2.0818,10.5045,43.6306,-0.4819,0.0983,0.2924,344.5411
19:39:20:001,0.6987,2.1344,11.5071,44.8263,-0.4257,0.0702,0.285,344.248
19:39:20:022,1.3759,1.9573,11.9976,44.6377,-0.2888,0.0055,0.2875,343.9587
19:39:20:040,2.0913,1.7037,11.8804,46.1115,-0.1447,-0.1582,0.2386,343.7105
19:39:20:060,2.3497,1.541,11.9258,43.9588,-0.1361,-0.3244,0.1128,343.6263
19:39:20:079,1.919,1.5338,11.7894,44.0388,-0.1948,-0.3219,-0.0411,343.7277
19:39:20:102,1.474,1.5027,11.5717,42.5093,-0.2302,-0.212,-0.1315,343.9234
19:39:20:120,2.1176,1.1653,11.7248,43.3821,-0.2864,-0.2144,-0.1071,344.063
19:39:20:139,3.2016,0.6843,12.1723,44.4517,-0.3731,-0.2572,-0.0949,344.1707
19:39:20:159,3.5151,-0.0287,12.6198,43.8159,-0.4416,-0.1607,-0.2207,344.3831
19:39:20:179,2.5747,-0.4618,12.682,45.4518,-0.4428,0.0055,-0.4333,344.8376
19:39:20:204,1.0983,-0.4618,12.0814,45.6483,-0.2876,0.1839,-0.542,345.4134
19:39:20:222,0.6532,-0.4211,10.5571,44.8239,0.0361,0.295,-0.3991,345.8442
19:39:20:241,0.993,-0.1771,9.0042,45.7174,0.3281,0.1985,-0.1597,346.0182
19:39:20:260,2.9169,-0.0096,8.0973,42.8515,0.1717,-0.2596,-0.0424,346.0239
19:39:20:288,2.5986,-0.0718,8.6525,45.1751,-0.1264,-0.2413,-0.2635,346.3238
19:39:20:302,1.4046,-0.1364,9.2531,45.2124,-0.3426,-0.0275,-0.4956,346.8745
19:39:20:319,0.3589,0.0622,9.3368,44.7794,-0.3658,0.168,-0.5445,347.4824
19:39:20:339,0.2513,0.347,8.7147,43.793,-0.2241,0.2217,-0.4162,347.9352
19:39:20:359,0.4475,0.6748,7.8676,46.2105,-0.0335,0.1814,-0.2549,348.2186
19:39:20:380,0.8351,0.9858,7.2574,44.6812,0.074,0.1216,-0.1645,348.3926
19:39:20:406,1.0744,1.2634,6.9272,44.5934,0.0838,0.0934,-0.1425,348.5446
19:39:20:425,1.1198,1.6223,7.1043,45.7892,0.0276,0.0617,-0.1706,348.7474
19:39:20:439,1.0863,1.9669,7.4512,43.2915,-0.0518,0.0177,-0.2085,348.9796
19:39:20:457,0.9188,2.2516,7.992,42.988,-0.1239,-0.0067,-0.2525,349.2357
19:39:20:479,0.6939,2.3402,8.7027,41.2692,-0.1679,-0.0226,-0.2769,349.5344
19:39:20:500,0.536,2.4383,9.2578,43.2834,-0.174,-0.0617,-0.272,349.8308
19:39:20:521,0.5192,2.455,9.7747,43.7443,-0.1691,-0.0837,-0.2586,350.1436
19:39:20:539,0.4666,2.3354,10.3418,44.6951,-0.1728,-0.0592,-0.2513,350.463
19:39:20:558,0.347,2.1416,10.9232,44.7614,-0.185,-0.0031,-0.2452,350.7588
19:39:20:578,0.0909,1.9693,11.5669,44.1479,-0.1789,0.0543,-0.2244,351.0327
19:39:20:599,-0.0407,1.7348,12.2752,43.73,-0.1349,0.0995,-0.1792,351.257
19:39:20:622,-0.28,1.6678,12.3853,45.5612,0.0105,0.1704,-0.0973,351.3911
19:39:20:638,-0.5862,1.7276,11.5502,45.151,0.2194,0.2633,0.0053,351.4406
19:39:20:659,-0.6126,1.6917,10.6002,43.7441,0.3354,0.3158,0.1165,351.3208
19:39:20:680,-0.4594,1.395,10.3011,44.5934,0.2841,0.3085,0.1971,351.0978
19:39:20:699,-0.5719,1.1964,10.9831,45.3094,0.1351,0.2901,0.2325,350.8568
19:39:20:721,-0.7992,0.5504,12.8758,45.8237,0.0691,0.0983,0.3083,350.5623
19:39:20:739,-0.6293,0.201,12.9332,44.7571,0.2438,-0.0812,0.4084,349.8219
19:39:20:758,-0.201,0.1053,11.3228,45.326,0.515,-0.2376,0.5428,349.2886
19:39:20:779,0.1364,0.1603,9.7771,44.9205,0.658,-0.3109,0.5929,348.695
19:39:20:800,0.3159,0.0718,9.0114,45.2289,0.5553,-0.2975,0.5489,348.141
19:39:20:822,0.0694,0.1029,8.9635,43.4724,0.3354,-0.1851,0.4732,347.6788
19:39:20:839,-0.1077,0.1938,9.1071,44.5554,0.1839,-0.0128,0.4463,347.2069
19:39:20:858,-0.1196,0.2656,8.8223,44.5301,0.1888,0.1142,0.4659,346.6902
19:39:20:878,0.0168,0.2847,7.9992,44.3161,0.2878,0.1509,0.5013,346.1315
19:39:20:900,0.0407,0.5551,7.188,44.6411,0.3293,0.1118,0.5245,345.5416
19:39:20:923,-0.0096,1.0385,6.9512,46.8526,0.2548,0.0776,0.5367,344.9635
19:39:20:941,0.0598,1.2897,6.944,44.44,0.1668,0.0995,0.5355,344.3747
19:39:20:959,0.1603,1.4668,6.8578,45.3645,0.0923,0.0849,0.5001,343.8248
19:39:20:979,0.323,1.6128,7.0899,45.2739,-0.0311,0.0263,0.4463,343.3506
19:39:21:000,0.457,1.7013,7.8532,45.3956,-0.2046,-0.0397,0.3913,342.9545
19:39:21:021,0.6126,1.6822,8.8032,44.2843,-0.3719,-0.0886,0.3217,342.6333
19:39:21:040,0.548,1.7085,9.8082,44.6759,-0.488,-0.0739,0.2618,342.3843
19:39:21:056,0.3852,1.8497,10.8945,46.5868,-0.51,-0.0104,0.2509,342.1237
19:39:21:076,0.2991,1.9932,10.9974,45.9628,-0.3475,0.0617,0.2863,341.8201
19:39:21:097,0.3709,2.1679,10.2867,44.7155,-0.1031,0.0592,0.3351,341.4751
19:39:21:117,0.6508,2.1823,9.6885,46.2498,0.0373,-0.0739,0.3632,341.0985
19:39:21:138,0.8997,2.0291,9.6191,46.576,0.0227,-0.2205,0.3425,340.7625
19:39:21:157,1.1605,1.6558,10.1791,46.3176,-0.0983,-0.3024,0.2899,340.497
19:39:21:177,1.986,1.06,12.0311,45.484,-0.2827,-0.3219,0.2484,340.2795
19:39:21:197,2.3904,0.8279,12.0622,47.6716,-0.2143,-0.2841,0.235,339.7835
19:39:21:220,2.8068,0.548,11.7248,45.9628,-0.1325,-0.2767,0.1873,339.5727
19:39:21:240,3.07,0.0622,11.665,45.2302,-0.1325,-0.3134,0.0676,339.4977
19:39:21:263,2.802,-0.4905,12.0838,46.788,-0.2131,-0.3121,-0.101,339.6173
19:39:21:278,2.0052,-0.6245,12.4857,45.154,-0.24,-0.201,-0.2378,339.8872
19:39:21:299,1.2682,-0.7801,11.8899,46.8069,-0.0689,0.0202,-0.2586,340.1808
19:39:21:320,1.3878,-0.7777,10.2413,46.308,0.256,0.2083,-0.123,340.2849
19:39:21:339,1.9525,-0.4475,8.5543,45.7118,0.526,0.2376,0.0395,340.1886
19:39:21:359,2.589,-0.2201,7.2622,48.1165,0.5932,0.135,0.0725,340.0593
19:39:21:377,3.0508,-0.012,6.853,46.692,0.4356,-0.0165,-0.0424,340.0727
19:39:21:399,3.2877,0.0239,6.7813,45.1163,0.1619,-0.0812,-0.2513,340.3151
19:39:21:418,2.6656,0.055,6.9057,46.8108,-0.1325,-0.0067,-0.5237,340.8658
19:39:21:438,1.9478,-0.1005,7.5589,46.6682,-0.4196,0.146,-0.7436,341.632
19:39:21:461,1.4716,-0.0359,8.5376,46.5598,-0.6297,0.2303,-0.8108,342.4838
19:39:21:477,1.0337,0.2369,9.3177,45.9843,-0.6822,0.2156,-0.7974,343.3369
19:39:21:499,1.0241,0.4116,9.6096,46.4563,-0.5869,0.1741,-0.7253,344.1209
19:39:21:519,1.2012,0.8255,9.2171,45.7904,-0.3951,0.1545,-0.6166,344.7839
19:39:21:539,1.3687,1.3041,8.5448,46.3589,-0.2449,0.1533,-0.5445,345.3793
19:39:21:561,1.517,1.584,8.4658,46.6867,-0.2131,0.1594,-0.5237,345.9395
19:39:21:580,1.474,1.8879,8.8271,47.2525,-0.229,0.1619,-0.531,346.4901
19:39:21:600,1.3232,2.1823,9.4564,47.1739,-0.2168,0.1105,-0.5494,347.0965
19:39:21:620,1.1462,2.3306,9.9182,47.7505,-0.141,0.0287,-0.5604,347.7285
19:39:21:639,1.0504,2.479,10.3561,48.1251,0.0373,-0.0092,-0.5372,348.3521
19:39:21:659,0.9667,2.5531,10.8395,47.2103,0.0581,0.0409,-0.5274,349.5309
19:39:21:678,0.6843,2.6465,11.0836,47.1606,0.1253,0.1228,-0.5323,350.1193
19:39:21:699,0.5001,2.5531,10.9735,47.1606,0.2389,0.1289,-0.5445,350.7163
19:39:21:719,0.5001,2.2971,11.1793,47.1606,0.3232,-0.0446,-0.5665,351.348
19:39:21:741,0.0622,1.931,11.7559,47.1605,0.3208,-0.2657,-0.6202,352.0659
19:39:21:759,-0.6939,1.7013,12.3637,47.1606,0.2756,-0.2987,-0.6141,352.7958
19:39:21:777,-1.4907,1.4429,12.4044,46.9411,0.3086,-0.1362,-0.4907,353.3833
19:39:21:801,-1.7252,1.4022,11.5286,50.027,0.4539,0.1044,-0.2158,353.6731
19:39:21:817,-1.5003,1.6223,10.3705,51.2759,0.5834,0.2217,0.0932,353.5854
19:39:21:960,-1.2156,1.7228,9.9518,50.4582,0.5615,0.1619,0.2985,353.3127
19:39:21:961,-1.0672,1.4046,10.8849,48.9449,0.3904,-0.0287,0.3913,352.9522
19:39:21:963,-1.048,0.938,11.6291,48.4471,0.3195,-0.1533,0.4561,352.5565
19:39:21:964,-1.2179,0.8686,10.6863,48.5449,0.4991,-0.1118,0.5636,352.0296
19:39:21:965,-1.1222,0.9476,9.1765,47.3795,0.7093,-0.0947,0.6797,351.3695
19:39:21:967,-0.737,0.9404,8.2026,47.2324,0.7337,-0.1851,0.7517,350.6101
19:39:21:968,-0.4594,0.9739,7.8126,47.4549,0.5859,-0.2853,0.753,349.8826
19:39:21:986,-0.0814,0.8638,8.0853,47.0124,0.3318,-0.3415,0.6894,349.2178
19:39:22:005,-0.0574,0.7418,9.277,47.2096,0.0386,-0.245,0.5966,348.6296
19:39:22:026,-0.3972,0.7011,10.0546,45.329,-0.0958,0.0006,0.5453,348.085
19:39:22:041,-0.4092,0.7202,9.6574,47.4174,0.041,0.1826,0.5722,347.466
19:39:22:062,-0.0359,0.7633,8.3964,46.0995,0.2902,0.2144,0.665,346.7272
19:39:22:079,0.6365,1.2969,7.1976,47.0597,0.3354,0.1631,0.7811,345.015
19:39:22:104,0.7011,1.5458,7.0684,46.5961,0.2255,0.2413,0.7664,344.1587
19:39:22:120,0.5408,1.8209,6.8195,45.811,0.1436,0.3463,0.7273,343.3269
19:39:22:137,0.4092,2.1416,6.6281,47.8254,0.0581,0.361,0.6919,342.5215
19:39:22:159,0.7466,2.321,6.8315,47.8473,-0.0726,0.2657,0.665,341.772
19:39:22:177,1.1366,2.4335,7.7264,45.4969,-0.2607,0.1154,0.6051,341.1241
19:39:22:198,1.2156,2.3115,8.9659,48.5792,-0.4379,0.0324,0.4952,340.6046
19:39:22:221,1.1079,2.1392,10.0475,46.6752,-0.5332,0.0336,0.3864,340.1982
19:39:22:239,1.0026,2.0794,11.0381,47.5174,-0.543,0.0214,0.3351,339.8488
19:39:22:259,1.2084,1.8784,11.9521,46.6752,-0.4892,-0.0275,0.34,339.5038
19:39:22:277,1.675,1.6893,12.8734,46.4502,-0.3976,-0.1106,0.3816,339.1124
19:39:22:298,2.1655,1.7157,13.3424,48.0455,-0.2265,-0.113,0.4255,338.6773
19:39:22:320,2.4,1.943,12.8351,48.0508,0.0312,-0.0067,0.4402,338.1977
19:39:22:337,2.6178,2.0985,11.9976,47.2176,0.2597,0.0873,0.4243,337.7257
19:39:22:357,3.0508,1.9908,11.0668,48.594,0.366,0.1252,0.3694,337.2826
19:39:22:377,3.4217,1.7061,10.3226,48.0257,0.3428,0.1081,0.235,336.9924
19:39:22:397,3.7807,1.2897,10.136,47.7556,0.1852,0.0776,0.0285,336.9035
19:39:22:420,3.7089,0.5934,10.3777,48.851,-0.0152,0.0837,-0.2427,337.111
19:39:22:437,2.9001,0.1388,10.7103,46.8002,-0.1716,0.1362,-0.5286,337.6289
19:39:22:459,1.6606,0.0072,10.5882,49.9166,-0.185,0.2437,-0.7106,338.3423
19:39:22:482,1.1773,-0.3087,9.8465,48.2035,-0.0323,0.3305,-0.7192,339.0533
19:39:22:503,1.3472,-0.2608,8.9133,47.9457,0.1143,0.2901,-0.6068,339.6428
19:39:22:518,1.7563,-0.1029,8.2935,46.1464,0.1241,0.1594,-0.5249,340.1771
19:39:22:540,2.2038,0.0502,8.4036,47.5358,-0.2009,0.0543,-0.6337,341.3566
19:39:22:562,1.6702,0.3206,8.5496,46.841,-0.3658,0.2083,-0.751,342.1078
19:39:22:577,1.0504,0.5886,8.6692,46.8695,-0.4599,0.3305,-0.8169,342.9291
19:39:22:597,0.7825,0.8447,8.7769,46.9903,-0.4721,0.3207,-0.8096,343.7633
19:39:22:618,0.8519,1.005,8.6979,46.9771,-0.4147,0.2694,-0.7766,344.5676
19:39:22:637,0.6939,1.2395,8.4108,47.5363,-0.3316,0.2095,-0.7705,345.3713
19:39:22:658,0.323,1.4213,8.2337,47.1034,-0.2779,0.1619,-0.7888,346.2348
19:39:22:677,0.0909,1.5338,8.3438,46.4163,-0.2546,0.1167,-0.7876,347.0955
19:39:22:700,0.0383,1.6558,8.7434,46.9301,-0.2278,0.0568,-0.7595,347.9509
19:39:22:720,0.0718,1.8712,9.0664,44.4897,-0.1716,-0.0006,-0.7119,348.7503
19:39:22:737,0.0024,2.0602,9.1741,44.403,-0.0921,-0.0202,-0.6715,349.5129
19:39:22:758,0,2.0722,9.4086,46.9469,-0.036,-0.0409,-0.641,350.2342
19:39:22:777,0.0742,2.077,9.8513,46.2936,-0.0128,-0.0861,-0.6007,350.9145
19:39:22:797,0.0311,2.2181,10.3705,44.8981,0.0068,-0.0861,-0.5579,351.5596
19:39:22:817,-0.2225,2.3713,10.5667,46.882,0.0691,0.0299,-0.5066,352.1329
19:39:22:840,-0.4259,2.5651,10.4016,45.6383,0.1668,0.1826,-0.4321,352.6017
19:39:22:859,-0.5001,2.7613,10.2317,45.2788,0.2572,0.2767,-0.3344,352.9627
19:39:22:878,-0.3159,2.7541,10.4518,46.3506,0.3086,0.2327,-0.2672,353.2473
19:39:22:898,-0.4762,2.6967,10.5117,44.8981,0.3464,0.1496,-0.261,353.5252
19:39:22:920,-1.0146,2.6632,10.2102,44.6027,0.3806,0.1594,-0.2904,353.8481
19:39:22:937,-1.6391,2.7206,9.7986,45.1545,0.3782,0.2156,-0.2879,354.1699
19:39:22:960,-1.7731,2.8499,9.8345,43.7019,0.3147,0.3011,-0.2134,354.3957
19:39:22:979,-1.7659,2.8522,9.7914,45.7659,0.2218,0.427,-0.1291,354.4956
19:39:23:000,-1.6726,1.3926,12.0455,43.5934,-0.2534,0.3696,-0.1108,354.6071
19:39:23:019,-2.1033,0.6867,13.8544,45.2996,-0.4465,0.3573,-0.0802,354.677
19:39:23:039,-2.5771,0.2871,13.809,45.0228,-0.218,0.4355,0.0932,354.5543
19:39:23:061,-2.7398,0.4666,11.8971,44.4897,0.2756,0.3854,0.351,354.161
19:39:23:077,-2.1727,0.5097,9.9637,45.2766,0.6323,0.1826,0.6064,353.5172
19:39:23:099,-1.407,0.6221,9.3248,44.0922,0.6372,-0.1191,0.731,352.7831
19:39:23:119,-0.9188,0.7681,9.5545,44.9525,0.4466,-0.256,0.7151,352.0884
