Time,Acc_X,Acc_Y,Acc_Z,Meg,Gyr_X,Gyr_Y,Gyr_Z,Ore
16:15:22:545,-1.5266,3.2136,8.6931,57.4157,0.1097,-0.5083,-0.2944,50.1512
16:15:22:562,-1.5266,3.2136,8.6931,56.2696,0.1097,-0.5083,-0.2944,50.7616
16:15:22:581,-1.6726,3.2901,9.131,56.0093,0.1097,-0.5083,-0.2944,51.546
16:15:22:601,-1.7468,3.3619,9.1382,57.1295,-0.1127,-0.0074,0.0734,51.5178
16:15:22:634,-1.7133,3.3858,8.918,58.1453,-0.087,0.0036,0.0783,51.3438
16:15:22:650,-1.7396,3.4935,8.6477,59.2663,-0.0736,0.0133,0.0844,51.013
16:15:22:659,-1.6965,3.5127,8.8295,59.142,-0.1115,0.0109,0.0795,50.7424
16:15:22:677,-1.6989,3.5294,9.0329,58.2637,-0.1298,-0.0062,0.0709,50.5311
16:15:22:697,-1.7946,3.5103,9.0018,57.7075,-0.1115,-0.0233,0.0551,50.415
16:15:22:715,-1.8114,3.5246,8.7817,57.7972,-0.0834,-0.0209,0.0441,50.297
16:15:22:735,-1.8616,3.5007,9.0736,57.649,-0.0944,-0.0331,0.0379,50.2373
16:15:22:756,-1.864,3.3619,9.3081,60.0734,-0.0895,-0.0917,0.0294,50.2798
16:15:22:775,-2.0985,3.2782,9.4588,55.9135,-0.0406,-0.1369,0.0147,50.4841
16:15:22:801,-2.0698,3.1298,9.1262,57.7768,0.0156,-0.2041,0.0282,50.6691
16:15:22:817,-1.9286,3.1872,8.808,57.5672,0.0278,-0.2322,0.0636,50.7366
16:15:22:831,-1.8329,3.1537,8.8582,57.7075,-0.0321,-0.2078,0.0868,50.8071
16:15:22:852,-1.8114,3.07,8.8654,58.0428,-0.1066,-0.1907,0.0978,50.8418
16:15:22:886,-1.73,3.082,9.1861,57.2385,-0.1603,-0.2017,0.1308,50.8283
16:15:22:891,-1.7563,2.9671,9.7651,56.2355,-0.1774,-0.2897,0.1711,50.8721
16:15:22:922,-1.5936,2.9623,9.4349,56.0384,-0.0907,-0.4485,0.2261,50.9185
16:15:22:933,-1.3113,3.0915,9.0736,57.6835,-0.0211,-0.4815,0.2896,50.7718
16:15:22:956,-1.0624,3.1561,8.8343,57.5074,-0.0516,-0.3849,0.3348,50.5261
16:15:22:987,-0.8877,3.2782,8.8008,59.1345,-0.1078,-0.1992,0.358,50.1001
16:15:22:991,-0.9404,3.472,8.9827,57.3576,-0.1408,-0.0197,0.3519,49.625
16:15:23:020,-0.8638,3.5318,9.0999,57.5074,-0.109,0.0048,0.3336,49.1479
16:15:23:031,-0.7849,3.685,8.5687,58.3926,-0.0027,-0.093,0.2908,48.7
16:15:23:055,-0.8327,3.8429,7.8126,59.4319,0.0718,-0.165,0.2139,48.334
16:15:23:093,-1.0074,3.9817,7.5853,58.2602,-0.0052,-0.1638,0.1284,48.0626
16:15:23:094,-0.8662,3.9123,7.9322,59.6126,-0.1774,-0.1113,0.0893,47.8362
16:15:23:111,-0.7968,3.8955,8.8319,58.4095,-0.3424,-0.0685,0.0612,47.6629
16:15:23:131,-1.06,3.4839,9.2961,59.4736,-0.4047,-0.1162,0.0025,47.6871
16:15:23:151,-1.517,3.4122,9.7507,57.3547,-0.3656,-0.1944,-0.028,47.8169
16:15:23:175,-1.4548,3.3188,10.7055,58.1948,-0.302,-0.3446,0.0392,47.9627
16:15:23:192,-0.7825,2.8331,10.9687,59.2055,-0.1884,-0.5145,0.1772,48.0101
16:15:23:211,-0.3613,2.6704,10.8849,58.7256,-0.0272,-0.5157,0.2371,48.0078
16:15:23:233,-0.3135,2.7637,10.8706,58.6996,0.0803,-0.3739,0.2188,47.9461
16:15:23:251,-0.1412,2.7685,10.6026,59.204,0.1488,-0.1797,0.231,47.8002
16:15:23:274,-0.1412,3.015,9.9446,58.6307,0.2379,-0.0062,0.2346,47.5319
16:15:23:301,0.0861,3.1848,9.2507,60.0075,0.2575,-0.038,0.1711,47.2372
16:15:23:310,0.3063,3.125,9.5306,58.3189,0.1842,-0.2151,0.1137,47.0241
16:15:23:334,0.3972,2.9839,10.069,58.8622,0.1353,-0.3617,0.0416,46.9708
16:15:23:351,0.4164,2.7063,10.3466,59.204,0.1341,-0.4045,-0.0158,47.1634
16:15:23:376,0.5073,2.6488,10.5236,57.8122,0.1585,-0.3434,-0.039,47.3302
16:15:23:395,0.7274,2.4167,10.8084,59.7679,0.1463,-0.2909,-0.0451,47.5075
16:15:23:412,0.9356,2.211,11.196,57.2432,0.1194,-0.3031,-0.0585,47.7153
16:15:23:431,1.0887,1.9717,11.1984,57.65,0.1414,-0.2897,-0.0793,47.9676
16:15:23:451,0.9858,2.0459,10.459,57.9874,0.2599,-0.1516,-0.0964,48.1724
16:15:23:471,0.9547,2.2851,9.2435,58.3696,0.4041,0.0512,-0.0806,48.2429
16:15:23:492,1.0361,2.6608,8.2074,59.359,0.4603,0.1758,-0.0488,48.1561
16:15:23:514,1.1438,2.9623,7.3292,57.1433,0.4212,0.199,-0.0341,47.9935
16:15:23:534,1.0504,3.2949,6.8889,59.5287,0.3015,0.1526,-0.0524,47.8523
16:15:23:554,0.9356,3.4146,6.9224,58.3755,0.0999,0.0573,-0.0683,47.7712
16:15:23:572,0.9619,3.4433,7.0445,60.117,-0.1029,-0.0368,-0.0463,47.711
16:15:23:593,0.9787,3.5486,7.2383,61.139,-0.2617,-0.0966,-0.0073,47.6207
16:15:23:612,0.8064,3.5677,7.5422,60.3557,-0.3863,-0.1541,0.0245,47.5413
16:15:23:631,0.6365,3.5079,8.1308,61.3803,-0.4694,-0.2518,0.0831,47.477
16:15:23:652,0.658,3.4337,8.5854,61.4996,-0.467,-0.4057,0.1748,47.3699
16:15:23:682,0.8303,3.2734,8.8869,59.7934,-0.3778,-0.6024,0.2725,47.2555
16:15:23:699,1.1007,3.1705,8.6166,59.1272,-0.2385,-0.7796,0.3446,47.1243
16:15:23:713,1.2514,3.0532,7.9825,59.1321,-0.0736,-0.7967,0.391,46.926
16:15:23:733,1.2969,3.1609,7.0517,60.5706,0.0583,-0.6244,0.413,46.2349
16:15:23:750,1.5864,3.4768,6.6281,59.1241,-0.0882,-0.2542,0.4106,45.7917
16:15:23:770,1.6199,3.4146,7.2933,59.8813,-0.252,-0.2347,0.3556,45.3959
16:15:23:790,1.651,3.3858,7.5135,60.0658,-0.3094,-0.2493,0.2884,45.0982
16:15:23:811,1.6176,3.4816,7.4249,61.2831,-0.2996,-0.1687,0.2334,44.8034
16:15:23:831,1.4979,3.7137,7.2718,60.5922,-0.2727,-0.005,0.1845,44.5055
16:15:23:854,1.3854,3.9505,7.322,59.8491,-0.2874,0.1562,0.1198,44.2312
16:15:23:872,1.2825,4.0056,7.8174,60.4253,-0.368,0.2149,0.0343,44.0491
16:15:23:891,1.0959,3.9075,8.9516,60.9947,-0.4951,0.1648,-0.0561,44.0032
16:15:23:911,0.9691,3.7089,10.7581,63.9182,-0.6014,0.0292,-0.1147,44.1144
16:15:23:932,0.6915,3.8644,12.0622,62.9723,-0.5708,-0.0759,-0.1184,44.2823
16:15:23:953,0.5647,3.9984,12.603,64.0251,-0.3876,0.1147,-0.0695,44.3586
16:15:23:973,0.6604,3.9865,13.2395,64.3421,-0.2605,0.2906,-0.0292,44.3178
16:15:23:991,1.1916,3.4505,14.4024,65.6815,-0.3326,0.0976,-0.0195,44.3566
16:15:24:011,1.1797,2.9719,15.472,64.9626,-0.3643,-0.0844,-0.0512,44.5103
16:15:24:031,0.5025,2.7446,15.6227,63.303,-0.1738,0.028,-0.0891,44.7031
16:15:24:052,-0.1101,2.7948,14.5795,64.2612,0.1768,0.3493,-0.0427,44.7671
16:15:24:071,-0.4187,2.7996,13.1844,64.1708,0.453,0.6401,0.0758,44.6009
16:15:24:091,-0.5671,2.7661,12.4857,64.4476,0.5263,0.7696,0.198,44.27
16:15:24:110,-0.7083,2.6273,12.1005,64.4748,0.5214,0.7745,0.2921,43.8178
16:15:24:131,-0.8183,2.4503,11.6985,62.8419,0.5531,0.695,0.358,43.3229
16:15:24:155,-0.9188,2.1248,11.1458,63.5889,0.5874,0.5777,0.4228,42.808
16:15:24:173,-0.9404,1.8831,10.8227,65.0492,0.6032,0.5276,0.5059,42.2325
16:15:24:195,-0.8638,1.7037,10.2748,65.0878,0.646,0.5533,0.6146,40.66
16:15:24:211,-0.0814,1.7037,7.8844,64.2084,0.8451,0.557,0.7722,39.7052
16:15:24:230,0.0957,1.8449,6.5013,65.4649,0.8342,0.6523,0.8027,38.6533
16:15:24:253,0.2513,1.9549,6.2548,63.972,0.6558,0.7598,0.7942,37.5371
16:15:24:273,0.2895,1.8305,7.0517,61.2132,0.4273,0.7268,0.7319,36.5143
16:15:24:292,0.0885,1.5266,7.5709,60.6032,0.3601,0.5863,0.6451,35.6588
16:15:24:311,0.0335,1.4716,7.5757,62.768,0.4945,0.4067,0.6085,34.9281
16:15:24:330,0.3159,1.5123,6.9153,62.8074,0.6985,0.1636,0.6122,34.2654
16:15:24:352,0.737,1.6415,6.2237,61.8877,0.8244,-0.027,0.595,33.6773
16:15:24:378,1.0887,1.8233,5.6112,60.7834,0.8244,-0.0881,0.5364,33.1587
16:15:24:392,1.4142,2.266,5.1709,62.2653,0.7535,-0.0441,0.4411,32.6771
16:15:24:410,1.4429,2.6632,5.1302,60.3721,0.6008,-0.0197,0.2884,32.3276
16:15:24:431,1.407,2.9001,5.6853,60.2598,0.376,-0.0832,0.0844,32.2228
16:15:24:452,1.3328,3.0987,6.5803,62.1085,0.172,-0.2188,-0.1245,32.4008
16:15:24:473,1.1653,3.2662,7.669,61.8736,0.0156,-0.4399,-0.3176,32.9037
16:15:24:584,1.1127,3.3308,8.7912,58.7986,-0.1335,-0.7197,-0.4862,33.7404
16:15:24:585,1.2156,3.5533,9.6598,60.0837,-0.2959,-0.8871,-0.5876,34.7615
16:15:24:596,1.6439,3.8668,10.3657,62.7515,-0.4511,-0.6268,-0.5961,35.643
16:15:24:597,2.3474,4.2233,11.1793,58.7986,-0.6148,-0.1247,-0.6205,36.2778
16:15:24:597,3.0054,3.7663,12.993,58.1308,-0.9056,0.0231,-0.8075,37.0231
16:15:24:598,2.7326,2.8546,15.6658,57.8418,-1.2061,-0.2176,-1.1056,38.2318
16:15:24:611,1.3113,2.2301,17.0967,60.4165,-1.1304,-0.2506,-1.3279,39.79
16:15:24:634,-0.0861,2.1583,16.3502,59.1849,-0.5696,0.0744,-1.2754,41.2123
16:15:24:655,-0.201,2.6249,13.7946,58.8503,0.1732,0.3652,-0.9431,42.1461
16:15:24:672,0.7585,3.5988,8.7051,56.909,0.8659,0.0414,-0.4226,43.0775
16:15:24:693,1.2323,3.8955,7.468,57.6392,0.7486,-0.1736,-0.3505,43.4502
16:15:24:712,1.2275,3.8524,6.6305,55.9808,0.5287,-0.2591,-0.3994,43.8981
16:15:24:737,0.6604,3.7256,6.1017,57.5605,0.3186,-0.187,-0.5253,44.4624
16:15:24:753,-0.0694,3.5438,5.6853,57.5605,0.161,-0.0343,-0.6169,45.0674
16:15:24:771,-0.7442,3.5533,5.3336,56.7148,0.0583,0.0622,-0.6401,45.6662
16:15:24:791,-1.2682,3.5222,5.2235,58.4776,-0.0052,0.0243,-0.5973,46.2703
16:15:24:812,-1.5218,3.6347,5.1111,56.6443,-0.0333,-0.1296,-0.5143,46.8639
16:15:24:832,-1.6199,3.7328,4.9196,56.069,-0.0492,-0.3153,-0.4153,47.4403
16:15:24:850,-1.6271,3.8333,5.1039,55.8089,-0.0944,-0.424,-0.3273,47.9716
16:15:24:871,-1.7635,3.9051,5.525,56.6919,-0.1591,-0.3996,-0.2577,48.4176
16:15:24:891,-2.053,4.13,6.5348,57.2915,-0.1921,-0.2701,-0.1795,48.756
16:15:24:911,-2.3976,4.1372,7.6307,55.4327,-0.1652,-0.2359,-0.1025,49.0236
16:15:24:934,-2.6297,4.3047,8.2696,55.6999,-0.0162,-0.2811,0.0062,49.2122
16:15:24:953,-2.4957,4.4219,8.5926,56.6923,0.1671,-0.3239,0.1833,49.2568
16:15:24:971,-2.0411,4.5535,9.3703,55.8408,0.2856,-0.3092,0.3776,49.0994
16:15:24:992,-2.0219,4.6947,10.5835,57.5547,0.3528,-0.2664,0.5217,48.8094
16:15:25:017,-1.8521,5.0584,11.7009,54.902,0.4603,-0.1736,0.6598,48.3253
16:15:25:032,-0.8447,5.1446,12.5838,58.0119,0.5544,-0.1504,0.8199,47.658
16:15:25:051,0.2776,5.1948,14.0291,55.2695,0.5703,-0.1944,0.9115,46.9086
16:15:25:071,0.6915,5.793,13.194,56.6243,0.7853,0.0475,0.9164,46.0172
16:15:25:094,0.737,6.1567,10.7198,56.9126,1.0846,0.7292,0.8675,44.7933
16:15:25:114,-0.4116,6.2046,10.7773,56.3563,0.5299,1.0994,0.6696,42.2197
16:15:25:135,-1.1653,6.128,10.6552,55.7122,0.365,1.0041,0.5816,41.1575
16:15:25:155,-1.5697,6.2548,9.7484,57.261,0.3894,1.0041,0.5107,40.1674
16:15:25:173,-1.3783,6.0706,10.5835,55.8881,0.1488,0.6987,0.4692,39.3956
16:15:25:191,-0.6796,4.4746,12.5623,58.1889,-0.2507,0.1037,0.3947,39.0529
16:15:25:210,-0.4259,3.3165,13.8209,55.4383,-0.3472,-0.2115,0.3226,39.0077
16:15:25:235,-0.256,2.5603,13.4166,55.8761,-0.054,-0.0685,0.336,38.8741
16:15:25:253,-0.1364,2.2181,11.7344,53.093,0.4127,0.3248,0.4619,38.3784
16:15:25:271,0.1938,2.1607,9.6287,53.4795,0.8219,0.7195,0.6415,37.4645
16:15:25:291,1.0217,2.333,7.7312,54.9862,1.0492,0.9345,0.826,36.1947
16:15:25:311,1.8736,2.4479,6.0897,54.7462,1.109,0.9748,0.9286,34.744
16:15:25:331,2.2373,2.5771,5.1637,55.6231,1.0748,0.9711,0.8785,33.3021
16:15:25:351,2.1655,2.8044,4.465,55.3286,1.0296,0.8893,0.7294,32.0423
16:15:25:370,1.9645,3.0556,3.5749,55.1585,0.9917,0.6669,0.5535,31.0573
16:15:25:390,2.0435,3.4122,2.9408,54.0562,0.8879,0.3334,0.4057,30.4066
16:15:25:410,2.3952,3.6275,2.3497,55.2395,0.6814,-0.0392,0.2603,30.1167
16:15:25:430,2.656,3.8333,2.1703,52.3991,0.3968,-0.2689,0.0795,30.1398
16:15:25:452,2.3785,3.8883,2.6417,53.5281,0.0583,-0.3544,-0.1587,30.4395
16:15:25:471,1.7779,4.0032,3.1059,55.286,-0.2214,-0.3849,-0.4019,30.9863
16:15:25:491,1.0863,4.0965,3.5318,53.3721,-0.423,-0.4473,-0.5961,31.773
16:15:25:513,0.5168,4.3406,4.41,52.3082,-0.6563,-0.6708,-0.7293,32.8532
16:15:25:537,0.5504,4.386,5.9031,52.8032,-0.93,-1.0007,-0.7855,34.2205
16:15:25:551,0.8853,4.0798,7.5637,53.9841,-1.1915,-1.2634,-0.816,35.7917
16:15:25:572,-0.189,4.4315,10.9328,52.6866,-1.3283,-0.9787,-0.882,37.3875
16:15:25:589,-0.5049,4.7928,11.9474,55.4113,-1.2525,-0.8663,-0.8111,38.8478
16:15:25:611,0.3685,4.6445,13.6056,54.5108,-1.277,-0.9897,-0.6828,41.5109
16:15:25:632,1.5123,3.8931,16.0463,54.5108,-1.4382,-1.289,-0.6193,42.9104
16:15:25:650,1.73,3.2638,17.6782,54.5108,-1.3955,-1.4002,-0.6242,44.3633
16:15:25:670,1.4189,2.7159,16.2401,54.5108,-0.9496,-1.0337,-0.5558,45.5469
16:15:25:690,0.3948,3.4481,13.3208,54.5108,-0.3045,-0.1479,-0.4544,46.1784
16:15:25:713,0.1986,4.0917,10.3585,54.5108,0.0718,0.5411,-0.2919,46.2825
16:15:25:731,0.6532,4.2305,8.9539,54.2454,0.0095,0.5936,-0.1257,46.163
16:15:25:753,0.7131,4.2305,8.9037,54.2404,-0.1958,0.3297,-0.1111,46.156
16:15:25:781,0.4522,4.0798,8.5041,55.2129,-0.2593,-0.06,-0.1942,46.404
16:15:25:795,0.1101,4.0319,7.346,54.871,-0.208,-0.3654,-0.2748,46.8909
16:15:25:811,-0.0311,3.9553,6.664,53.6507,-0.2532,-0.4619,-0.2919,47.3958
16:15:25:828,0.0144,3.8142,7.011,53.073,-0.401,-0.3739,-0.2601,47.845
16:15:25:848,-0.1029,3.6443,7.9131,53.073,-0.4694,-0.2884,-0.2479,48.2751
16:15:25:869,-0.3278,3.6419,7.7001,51.8234,-0.2972,-0.3434,-0.2711,48.7538
16:15:25:890,-0.5001,3.8142,6.6473,54.8358,-0.0003,-0.4118,-0.2516,49.2236
16:15:25:914,-0.2991,3.862,6.0778,55.4035,0.183,-0.4387,-0.1795,49.6399
16:15:25:932,-0.4786,4.2042,5.4173,53.3237,0.2025,-0.4387,-0.1441,50.0058
16:15:25:953,-0.7633,4.3932,5.5992,54.2688,0.051,-0.2726,-0.1319,50.2775
16:15:25:973,-0.9308,4.4171,6.4008,52.037,-0.1188,-0.0453,-0.0561,50.399
16:15:25:989,-0.9619,4.4602,7.3149,54.8842,-0.2043,0.0854,0.0318,50.3764
16:15:26:010,-0.8925,4.4435,8.071,54.1025,-0.1823,0.0891,0.1174,50.2883
16:15:26:032,-0.8973,4.5105,8.5448,52.9688,0.0229,-0.0697,0.2017,50.1623
16:15:26:050,-0.9428,4.7258,9.1693,52.9688,0.0608,-0.0917,0.2554,50.0074
16:15:26:070,-0.4834,4.812,10.66,52.9572,0.0315,-0.1809,0.3605,49.6418
16:15:26:089,0.8997,4.477,12.816,53.3219,-0.0516,-0.567,0.4851,49.4647
16:15:26:113,2.0267,4.386,13.9406,53.1348,-0.0602,-0.9213,0.5376,49.3795
16:15:26:132,2.4072,4.331,12.3589,53.8995,0.1304,-0.644,0.5608,49.132
16:15:26:152,2.2421,4.2856,10.8132,53.3461,0.2978,0.2931,0.5718,48.4622
16:15:26:168,1.0959,4.4243,11.2247,54.4834,0.1879,1.0872,0.4863,47.5624
16:15:26:189,-0.2417,4.3837,11.0453,54.4596,0.0693,1.246,0.4216,46.7022
16:15:26:212,-1.7731,4.8263,10.148,53.9938,0.2037,1.3377,0.4216,45.8031
16:15:26:230,-2.1607,4.9938,10.2556,54.2354,0.2062,1.13,0.5352,44.8746
16:15:26:251,-0.658,4.0654,12.6748,54.2556,-0.1127,0.4079,0.7221,44.0842
16:15:26:270,0.8734,2.9551,15.1609,57.3852,-0.3533,-0.3862,0.8064,43.5439
16:15:26:293,1.3831,2.1583,14.802,52.8375,-0.1383,-0.5865,0.7759,43.1233
16:15:26:311,1.3041,1.7779,12.1244,53.6898,0.299,-0.0197,0.8162,42.405
16:15:26:330,0.6006,2.1009,10.4207,54.2405,0.5531,1.0237,0.8871,41.1578
16:15:26:351,0.4714,2.0961,9.3775,55.4412,0.5348,1.6602,1.0239,39.4973
16:15:26:371,0.8279,2.0483,8.8439,54.8591,0.4701,1.7641,1.1729,37.6281
16:15:26:395,1.2275,2.0698,8.5448,53.874,0.4786,1.5197,1.223,35.7773
16:15:26:411,1.4812,1.9334,8.2505,54.0401,0.5837,1.1116,1.1632,34.1919
16:15:26:432,1.5338,2.01,7.1545,54.2519,0.7902,0.7097,1.0556,32.8442
16:15:26:451,1.5338,2.2373,5.5681,55.2542,0.9991,0.4788,0.9579,31.7082
16:15:26:470,1.529,2.5962,4.264,51.479,1.0382,0.4336,0.8345,30.6883
16:15:26:492,0.9571,3.0676,3.8955,53.982,0.5678,0.5191,0.4692,29.8024
16:15:26:512,0.6915,3.015,4.6995,56.5094,0.2709,0.364,0.2908,28.6163
16:15:26:532,0.6389,2.9121,5.4676,51.9382,0.1207,0.1098,0.1479,28.4732
16:15:26:549,0.3589,3.0915,5.7356,53.2293,0.1402,-0.1064,0.0441,28.5453
16:15:26:568,0.2417,3.5438,5.5992,55.2617,0.1732,-0.2603,0.0318,28.7144
16:15:26:686,0.5384,3.7591,6.2381,53.9839,0.007,-0.3752,0.0648,28.9214
16:15:26:687,1.0552,3.6371,7.6642,54.5725,-0.3082,-0.5768,0.0294,29.2612
16:15:26:688,0.6604,4.0965,8.6644,53.2527,-0.5623,-0.7405,-0.0818,29.8256
16:15:26:689,0.5767,4.331,8.4969,51.7809,-0.6869,-0.6317,-0.1624,30.4055
16:15:26:690,1.4668,4.0917,10.0068,52.6716,-1.0485,-0.413,-0.1978,30.8763
16:15:26:691,3.0508,2.522,14.6752,52.9564,-1.8035,-0.6843,-0.2638,31.5466
16:15:26:709,2.3593,1.3854,20.2337,52.6433,-2.2812,-1.1265,-0.4898,32.7037
16:15:26:729,1.0241,-0.0933,18.9512,53.666,-1.6997,-1.2096,-0.4959,33.9142
16:15:26:749,-0.67,0.7825,14.4909,54.942,-0.4218,-0.4057,-0.2418,34.5519
16:15:26:770,-1.1318,2.7733,10.2485,51.7603,0.5739,0.6474,0.1271,34.3363
16:15:26:790,0.5671,3.9266,6.8339,53.7349,0.7828,0.8319,0.6146,33.4288
16:15:26:811,2.0794,5.1517,5.6758,53.0012,0.4505,0.5839,0.7893,32.3649
16:15:26:829,3.1585,5.2594,6.2524,51.8225,-0.1029,0.1147,0.5804,31.6933
16:15:26:850,2.9503,4.4195,7.3316,52.1926,-0.6001,-0.264,0.1528,31.6284
16:15:26:870,1.0959,3.9075,8.0518,53.6032,-0.8176,-0.1479,-0.276,32.0395
16:15:26:891,-0.6389,3.7304,8.0518,53.3883,-0.7932,0.2833,-0.4214,32.5027
16:15:26:909,-1.4764,3.8692,7.9825,54.3725,-0.6722,0.6278,-0.2846,32.7095
16:15:26:931,-1.2275,4.1611,8.2505,51.9219,-0.5317,0.6657,-0.028,32.6095
16:15:26:949,-0.2991,4.3669,8.4084,53.1364,-0.1945,-0.0612,0.198,32.4109
16:15:26:968,0.0598,4.1683,8.2696,52.8272,-0.0675,-0.3495,0.1919,32.2044
16:15:26:992,0.1795,3.9051,8.1117,53.9898,-0.0235,-0.3239,0.1894,32.1985
16:15:27:009,-0.0431,3.7376,8.3103,51.9219,-0.0296,-0.0697,0.1845,32.1357
16:15:27:033,-0.3589,3.7065,8.3151,50.9157,-0.0125,0.2137,0.2114,31.9426
16:15:27:049,-0.5551,3.7424,8.0734,53.4949,0.0229,0.3591,0.2664,31.6642
16:15:27:070,-0.1292,3.6323,8.4156,51.2818,-0.0003,0.3212,0.3397,31.2988
16:15:27:089,0.1723,3.3715,9.3416,53.203,-0.037,0.1562,0.3629,30.96
16:15:27:108,-0.1723,3.1514,9.9326,50.6792,0.0217,-0.0368,0.3214,30.7515
16:15:27:128,-0.3996,3.1346,9.8106,52.1394,0.1903,-0.0734,0.3434,30.5662
16:15:27:149,-0.1172,3.216,9.7149,53.346,0.3271,0.0524,0.4606,30.1874
16:15:27:170,0.2225,3.4074,9.9182,53.3052,0.376,0.2234,0.5853,29.6314
16:15:27:190,0.1364,4.2544,9.7149,51.8225,0.4224,0.3542,0.6451,28.9513
16:15:27:212,0.3254,4.8,9.2076,50.1762,0.3797,0.4409,0.6073,28.2573
16:15:27:232,0.7585,3.4241,10.8227,51.1795,-0.0614,0.1758,0.4668,27.8057
16:15:27:249,0.1819,1.9525,14.3976,51.9219,-0.7028,-0.4656,0.2578,27.8857
16:15:27:269,-0.7705,1.0313,16.0965,51.6805,-0.7761,-0.6696,0.2236,28.1039
16:15:27:291,-1.3615,1.2179,15.137,51.5966,-0.1591,-0.1027,0.4338,27.9192
16:15:27:311,-0.993,2.0985,12.5743,49.5068,0.4762,0.4324,0.7148,27.2471
16:15:27:330,0.1866,2.3737,10.3681,50.1421,0.6252,0.4934,0.9054,26.2819
16:15:27:351,0.9476,2.2277,9.0209,51.6804,0.3626,0.4311,0.8895,25.3406
16:15:27:369,1.0648,1.8425,8.6189,51.7515,-0.0589,0.4153,0.7453,24.5417
16:15:27:391,1.0265,1.3041,10.1097,47.9944,-0.4621,0.4104,0.5926,23.9236
16:15:27:408,-0.3709,0.6389,11.5908,49.3525,-0.1335,0.4751,0.4167,23.5266
16:15:27:427,-0.9715,1.1438,8.8606,50.4254,0.6179,0.6352,0.5523,22.4134
16:15:27:449,-0.9308,1.8808,6.5396,47.8437,1.015,0.6999,0.771,21.5476
16:15:27:469,-0.3183,2.5149,5.2188,50.8622,0.9844,0.7219,0.9567,20.4391
16:15:27:493,0.2058,3.2758,4.9938,50.3849,0.7156,0.59,0.9872,19.3297
16:15:27:510,0.6532,3.4193,5.0967,50.8622,0.3589,0.2882,0.8809,18.4179
16:15:27:529,0.9523,3.0173,5.4915,48.8293,-0.0174,0.0133,0.7099,17.8029
16:15:27:549,1.3185,2.6991,6.6209,48.6666,-0.3888,-0.1235,0.5156,17.4296
16:15:27:571,1.4812,2.3115,8.1835,50.2422,-0.6478,-0.2212,0.3055,17.3169
16:15:27:592,1.4716,2.0028,10.1264,48.2229,-0.7211,-0.3898,0.0599,17.5166
16:15:27:609,1.7085,1.8999,9.8489,48.9245,-0.4584,-0.6244,-0.1575,18.0177
16:15:27:628,2.2134,2.1559,8.5232,48.2633,0.0583,-0.4338,-0.2638,18.5309
16:15:27:648,2.2445,2.2158,7.3723,49.729,0.3907,0.0732,-0.3481,18.9666
16:15:27:673,1.4548,2.4263,8.6955,48.7377,0.3528,0.3126,-0.5094,19.5171
16:15:27:692,0.7466,2.4981,9.9613,47.2752,0.2111,-0.0221,-0.6511,20.36
16:15:27:709,0.7226,2.5484,10.3681,49.2266,0.3479,-0.4045,-0.7,21.4022
16:15:27:728,0.2823,2.9264,10.8251,47.2156,0.6924,-0.3288,-0.7036,22.4406
16:15:27:749,0.0526,3.5988,8.997,46.0967,1.0883,0.0023,-0.623,23.2626
16:15:27:774,-0.1651,4.0654,6.4774,46.8712,1.2837,0.6853,-0.48,23.6364
16:15:27:792,-0.5408,3.4481,7.1115,47.8015,0.8354,1.2228,-0.4043,23.682
16:15:27:810,-0.8207,1.9406,11.3085,45.0488,-0.1664,0.9003,-0.2992,23.809
16:15:27:829,-1.4453,1.919,15.35,48.0966,-1.007,0.2564,-0.138,24.0874
16:15:27:847,-1.0983,1.5003,16.0487,47.7792,-0.9825,0.3407,0.0758,24.1237
16:15:27:870,-0.2704,2.2205,11.4879,47.1908,0.3345,0.6608,-0.039,23.6039
16:15:27:888,-0.993,2.6369,9.7986,46.0193,0.5715,0.0133,-0.3872,24.2016
16:15:27:931,-0.9691,2.5579,9.0425,47.4813,0.4896,-0.4888,-0.3921,24.9899
16:15:27:932,-1.261,2.5627,8.9563,46.5699,0.1842,-0.3776,-0.3579,25.7245
16:15:27:947,-1.4836,2.5101,9.5426,46.2544,-0.1188,0.298,-0.2333,26.0545
16:15:27:967,-1.7061,3.2734,9.8393,46.3069,-0.0931,0.7207,0.0123,25.963
16:15:27:987,-1.3448,3.3404,8.284,46.3331,0.2074,0.4483,0.1406,25.8459
16:15:28:007,-1.3089,3.5701,6.4606,45.9792,0.464,0.1208,0.1858,25.793
16:15:28:027,-1.3902,3.7089,5.0919,46.006,0.4322,0.1746,0.2456,25.6519
16:15:28:048,-1.7755,3.5797,5.8504,45.0719,0.1207,0.5362,0.2872,25.3042
16:15:28:069,-0.8877,3.5222,6.7238,44.7827,-0.1615,0.4825,0.4057,24.8552
16:15:28:088,0.3135,3.618,6.3003,43.8554,-0.2776,0.1917,0.5291,24.3608
16:15:28:108,0.2082,3.5557,6.0371,43.8204,-0.3998,0.039,0.4998,23.9564
16:15:28:139,-0.8829,3.6467,8.3916,44.5065,-0.6136,-0.2396,0.4448,23.844
16:15:28:154,-0.8159,3.3188,9.4086,44.7653,-0.5647,-0.782,0.435,24.0355
16:15:28:173,-0.4379,2.9121,8.406,46.9343,-0.1994,-1.1485,0.4582,24.1881
16:15:28:193,-0.4235,2.8786,7.7312,45.6056,-0.0589,-1.1229,0.4753,24.1578
16:15:28:211,-1.0002,2.4191,8.2481,46.4935,-0.2483,-0.727,0.5437,23.775
16:15:28:237,-0.3278,1.8521,10.4112,43.7575,-0.6967,0.3004,0.942,22.9093
16:15:28:254,-0.2441,2.1033,11.5836,44.2968,-0.7443,0.6217,1.074,21.7962
16:15:28:271,-1.5745,2.7374,11.8205,44.2755,-0.5269,0.827,1.0324,20.6801
16:15:28:291,-2.3569,2.9575,9.9733,46.5486,-0.1518,0.8966,1.0214,19.5788
16:15:28:310,-2.3904,2.5244,8.9635,46.7744,-0.0797,0.75,1.0801,18.4719
16:15:28:327,-1.9908,1.8257,10.7103,46.2153,-0.4804,0.4104,1.1974,17.1682
16:15:28:350,-1.718,2.0028,12.4092,45.9853,-0.7504,0.144,1.3464,15.9708
16:15:28:372,-1.0433,2.0602,12.6915,46.1415,-0.6368,0.1159,1.4576,14.6413
16:15:28:389,0.0502,2.0148,11.945,45.9401,-0.2972,0.276,1.504,13.1566
16:15:28:412,0.8519,2.0913,10.8897,48.0486,-0.0675,0.4055,1.4209,11.6792
16:15:28:427,1.0552,1.809,10.6696,47.8556,-0.1335,0.4067,1.2035,10.4414
16:15:28:452,0.6867,1.6056,10.6863,48.3143,-0.2556,0.3749,0.986,9.4691
16:15:28:471,0.3589,1.6295,10.2556,47.3475,-0.2752,0.353,0.8907,8.6016
16:15:28:489,0.3206,1.8018,9.5402,48.4167,-0.2348,0.3774,0.8956,7.7283
16:15:28:508,0.3063,1.9238,9.0497,47.0707,-0.2116,0.3933,0.9151,6.8401
16:15:28:531,0.2776,1.8784,8.9779,48.9131,-0.2263,0.2845,0.898,5.9763
16:15:28:551,0.2728,1.8185,9.0353,48.0679,-0.197,0.0793,0.8614,5.2134
16:15:28:569,0.3398,2.0459,8.8271,48.5221,-0.0712,-0.0575,0.8272,4.5262
16:15:28:588,0.4905,2.1775,8.1189,46.4461,0.0925,-0.082,0.7991,3.8555
16:15:28:608,0.548,2.278,7.401,49.2658,0.1524,-0.06,0.738,3.2481
16:15:28:627,0.7346,2.3091,7.4871,48.8842,0.051,-0.0661,0.6647,2.7226
16:15:28:651,0.7537,2.3737,8.0112,47.5856,-0.1139,-0.0673,0.5841,2.303
16:15:28:670,0.5551,2.4335,8.5878,50.3992,-0.2141,-0.0246,0.4851,1.9623
16:15:28:782,0.2704,2.3761,8.7745,52.6383,-0.2385,0.0133,0.3898,1.7328
16:15:28:783,0.0455,2.4024,8.9994,50.329,-0.2141,0.017,0.3202,1.594
16:15:28:784,-0.189,2.5603,9.1119,50.2706,-0.1371,-0.0624,0.2908,1.5163
16:15:28:784,-0.1699,2.723,8.8822,50.4949,-0.0455,-0.1553,0.2762,1.4851
16:15:28:784,0.0838,2.8044,8.5854,49.9277,0.0144,-0.1919,0.253,1.448
16:15:28:792,0.1603,2.5172,10.0259,48.2366,-0.0736,-0.0869,0.209,1.2517
16:15:28:811,0.1077,2.5771,10.7533,49.0181,-0.0333,-0.0087,0.2017,1.2401
16:15:28:826,-0.3087,2.7422,11.2845,49.5783,0.0522,0.0744,0.2065,1.2186
16:15:28:847,-0.469,3.2495,13.2562,49.7237,0.1842,0.3102,0.2762,1.0719
16:15:28:867,1.7922,3.3595,11.409,50.622,0.5825,-0.082,0.3177,0.9087
16:15:28:887,1.6271,2.9599,7.6618,47.8215,1.1163,-1.2731,-0.0134,1.4227
16:15:28:907,0.3996,2.7326,6.5922,49.357,0.9392,-1.4002,-0.3823,2.4333
16:15:28:926,0.067,1.9669,8.1667,49.3222,0.0657,-0.5169,-0.2956,3.124
16:15:28:948,-0.2417,1.8305,10.8897,47.9337,-0.6612,0.3603,0.0123,3.2431
16:15:28:968,-0.1292,1.6869,11.9091,48.5518,-0.7272,0.6657,0.198,3.0821
16:15:28:987,0.3781,1.5506,11.7535,47.534,-0.4804,0.5374,0.2469,2.8764
16:15:29:029,0.5838,1.127,11.7655,45.067,-0.3191,0.3041,0.2127,2.745
16:15:29:030,0.3876,1.1031,12.0024,44.7669,-0.2336,0.0463,0.1406,2.7621
16:15:29:053,0.3422,1.1366,11.5095,48.6893,-0.0626,-0.1064,0.1259,2.8033
16:15:29:091,0.3087,1.4405,10.5715,49.4745,0.1268,0.0048,0.1943,2.7855
16:15:29:093,0.2536,1.8831,9.3512,46.7272,0.2758,0.2992,0.2798,2.6077
16:15:29:115,0.1101,2.2277,8.2146,51.0145,0.3076,0.5081,0.3055,2.3471
16:15:29:131,0.0191,2.4311,7.5805,50.3619,0.2282,0.5594,0.2884,2.0812
16:15:29:147,-0.0861,2.522,7.3244,50.0374,0.0791,0.4934,0.2505,1.8636
16:15:29:167,-0.2776,2.5029,7.2933,48.8414,-0.0479,0.4091,0.209,1.7216
16:15:29:187,-0.3637,2.4718,7.6738,47.7415,-0.1444,0.2735,0.2053,1.6278
16:15:29:207,-0.4403,2.1703,8.0662,49.6808,-0.208,0.1404,0.2249,1.5443
16:15:29:229,-0.2584,2.2134,8.2241,50.6918,-0.142,0.1159,0.4069,1.4188
16:15:29:256,0.2297,2.2732,8.3868,48.9127,-0.1273,0.1465,0.5059,0.9679
16:15:29:271,0.3159,2.3785,8.3964,51.5846,-0.0919,0.2503,0.5364,0.116
16:15:29:287,0.3135,2.4359,8.5304,50.6554,-0.0724,0.287,0.5254,359.6666
16:15:29:307,0.3661,2.6082,8.662,50.6607,-0.0479,0.232,0.5181,359.2243
16:15:29:328,0.603,2.7876,8.7434,51.0029,0.0046,0.1746,0.5242,358.77
16:15:29:348,0.7466,2.9193,8.6429,50.3469,0.0632,0.1599,0.5071,358.3504
16:15:29:367,0.8495,2.9551,8.8511,52.0951,0.084,0.1782,0.4656,357.9398
16:15:29:387,0.9093,2.9169,9.4684,50.533,0.0742,0.1391,0.402,357.63
16:15:29:407,0.926,2.8331,10.0618,52.5124,0.1011,0.0487,0.3165,357.428
16:15:29:427,0.792,2.7517,10.8227,49.8477,0.1854,-0.0148,0.2273,357.5422
16:15:29:447,0.5025,2.7039,11.2223,51.417,0.3051,-0.0685,0.1454,357.5462
16:15:29:467,-0.469,3.2997,11.1362,49.9661,0.4811,0.028,0.121,357.6025
16:15:29:487,-1.1079,3.3356,10.1336,51.1935,0.6558,0.3285,0.1833,357.5361
16:15:29:509,-1.6008,3.3523,9.7364,51.3051,0.6497,0.5655,0.2908,357.2928
16:15:29:532,-1.6606,3.1944,10.3968,52.184,0.4359,0.568,0.4399,356.8814
16:15:29:549,-1.9167,3.0508,11.464,50.7605,0.2709,0.3884,0.5279,356.4439
16:15:29:573,-2.1081,2.7733,11.4688,53.3901,0.2697,0.0891,0.5181,356.1056
16:15:29:595,-1.7109,2.2732,10.8802,50.6318,0.2722,-0.1614,0.5217,355.8517
16:15:29:607,-1.2538,1.7755,10.7749,51.9328,0.0449,-0.2188,0.5841,355.5118
16:15:29:630,-0.8686,1.3376,11.988,51.3465,-0.4132,-0.06,0.6818,355.0409
16:15:29:658,-0.7944,1.1055,13.3567,52.0029,-0.693,0.3065,0.7612,353.4564
16:15:29:668,-0.8782,1.4836,11.0142,51.4591,-0.1053,0.827,0.8858,352.446
16:15:29:688,-0.3374,1.6845,9.0879,51.7494,0.1964,0.6645,0.9457,351.2504
16:15:29:710,0.1627,1.9693,7.803,52.7533,0.2453,0.3994,0.9445,350.2939
16:15:29:741,0.6174,2.1559,7.2479,52.5104,0.139,0.2149,0.8907,349.407
16:15:29:748,0.926,2.2493,7.0564,51.9281,0.0412,0.1892,0.8174,348.6163
16:15:29:771,1.0911,2.321,6.9344,52.3068,0.0461,0.2528,0.7417,347.8876
16:15:29:793,1.1414,2.3713,6.6353,52.2563,0.1475,0.2662,0.6561,347.2295
16:15:29:813,1.1127,2.3569,6.1352,52.2796,0.2563,0.1526,0.5499,346.7028
16:15:29:844,1.072,2.4239,6.317,51.4059,0.2893,-0.0478,0.4338,346.3742
16:15:29:848,1.0768,2.2181,6.3051,50.5336,0.2709,-0.2701,0.3226,346.2491
16:15:29:867,0.9547,2.2181,5.9988,51.9939,0.2551,-0.3532,0.2249,346.246
16:15:29:888,0.725,2.3761,6.4774,52.6707,0.1561,-0.3397,0.1613,346.3286
16:15:29:906,0.6891,2.3689,7.1474,52.8682,0.0217,-0.319,0.1235,346.4382
16:15:29:928,0.6939,2.656,7.6163,52.6311,-0.004,-0.3055,0.0831,346.5761
16:15:29:949,1.1007,2.5244,8.7027,52.3945,-0.0565,-0.4949,0.0037,346.862
16:15:29:978,1.2993,2.3306,9.5426,51.5078,-0.1762,-0.7637,-0.1416,347.3769
16:15:29:986,0.9547,2.1631,9.923,52.5182,-0.3179,-0.7515,-0.2785,348.039
16:15:30:006,-0.0646,2.5842,10.8443,52.0742,-0.4633,-0.4008,-0.3066,348.6766
16:15:30:026,0.4714,2.4837,10.8132,52.7398,-0.4975,0.1489,-0.1563,348.9465
16:15:30:046,2.3019,1.7755,11.4185,51.3714,-0.7138,0.3578,-0.1038,349.0363
16:15:30:067,3.003,0.7202,14.9456,51.0115,-1.3442,-0.1198,-0.3909,349.5287
16:15:30:088,2.2708,-0.5647,19.0971,51.2246,-1.707,-0.6818,-0.783,350.6113
16:15:30:107,0.5862,-1.0576,19.6594,52.2998,-1.1805,-0.8064,-0.9406,351.9378
16:15:30:128,-0.0502,-0.6915,16.8479,50.3783,-0.076,-0.4949,-0.6975,352.9443
16:15:30:152,2.1368,1.0528,9.4804,50.1626,1.1225,0.2271,0.1003,353.1152
16:15:30:168,2.8379,1.8592,7.6881,50.3367,0.9135,0.4043,0.1467,352.9042
16:15:30:186,2.6034,2.1942,7.3268,49.7768,0.4847,0.4299,-0.083,352.938
16:15:30:207,1.6104,2.1416,7.3938,51.4332,0.1292,0.414,-0.3945,353.34
16:15:30:227,0.5384,2.1129,6.9655,52,0.0156,0.4556,-0.5961,354.0035
16:15:30:247,-0.1651,2.2325,6.0132,50.3833,0.0767,0.5276,-0.6376,354.6908
16:15:30:272,-0.5838,2.4646,5.1254,50.1474,0.1316,0.5484,-0.5802,355.3327
16:15:30:285,-0.8207,2.7159,4.587,49.5642,0.0889,0.4678,-0.491,355.8975
16:15:30:306,-1.0313,2.9025,4.6875,50.7416,-0.0382,0.2906,-0.4104,356.4311
16:15:30:327,-1.1103,3.0006,4.9507,49.9634,-0.1628,0.0659,-0.3457,356.9502
16:15:30:347,-1.2084,3.0987,5.1852,49.9138,-0.2202,-0.1137,-0.2821,357.4509
16:15:30:366,-1.2323,3.259,5.604,49.8077,-0.269,-0.2713,-0.2211,357.932
16:15:30:388,-0.9356,3.2806,6.9799,50.2701,-0.3558,-0.435,-0.1685,358.377
16:15:30:408,-0.6389,3.0461,8.3462,49.5054,-0.3925,-0.6391,-0.1551,358.8496
16:15:30:426,-0.5527,2.8786,8.8989,50.1524,-0.3118,-0.7869,-0.1807,359.3758
16:15:30:446,-0.4307,2.613,9.3607,49.0489,-0.2617,-0.7991,-0.188,359.9366
16:15:30:465,-0.536,2.4383,10.3322,49.9416,-0.3179,-0.6867,-0.1538,0.4305
16:15:30:485,-0.5862,2.3833,11.988,48.3545,-0.3827,-0.5157,-0.0561,0.7817
16:15:30:505,-0.134,2.12,13.6176,48.348,-0.3326,-0.3911,0.1149,0.8876
16:15:30:526,0.5121,2.1368,14.5771,47.541,-0.175,-0.3849,0.2823,0.7969
16:15:30:547,0.95,2.601,14.2852,48.0646,0.0608,-0.2726,0.4081,0.5464
16:15:30:567,1.3663,2.6393,13.0313,49.0489,0.31,0.2479,0.4765,0.069
16:15:30:588,0.5121,2.881,12.2154,46.1166,0.3186,0.7292,0.4081,359.5914
16:15:30:612,-2.7494,3.3428,11.3587,46.5986,0.266,1.2155,0.3397,359.2161
16:15:30:632,-3.0915,3.4217,10.6313,47.7962,0.3882,1.185,0.4741,358.1069
16:15:30:650,-2.2086,2.9719,11.2199,46.1992,0.2453,0.5997,0.556,357.541
16:15:30:672,-1.0816,1.8401,13.6367,46.5966,-0.1408,-0.4399,0.4704,357.2849
16:15:30:689,-0.4164,0.7011,16.4985,44.1423,-0.3497,-1.2964,0.2957,357.39
16:15:30:706,-0.2369,-0.0861,16.8263,45.5806,0.0168,-1.3978,0.2078,357.6153
16:15:30:726,-0.4594,-0.0694,14.412,44.5286,0.7755,-0.6867,0.3055,357.5919
16:15:30:746,-0.1053,0.2201,11.0166,43.377,1.3155,0.2405,0.6012,356.9953
16:15:30:767,0.4977,0.5838,9.2363,44.9377,1.3766,0.904,0.8956,355.8616
16:15:30:853,1.0959,0.9021,8.2361,45.214,1.2446,1.2277,1.085,354.4126
16:15:30:854,1.4548,1.2921,7.5996,44.6425,1.1836,1.2937,1.1326,352.8539
16:15:30:855,1.6439,1.5553,6.5946,45.1682,1.2459,1.1752,1.0593,351.3768
16:15:30:856,1.7348,1.8018,5.3097,44.651,1.3167,0.9528,0.9249,350.1178
16:15:30:870,1.8425,2.1751,4.1252,43.754,1.2617,0.7256,0.771,349.0662
16:15:30:893,1.7157,2.522,3.4146,42.7767,1.0321,0.5631,0.6024,348.2409
16:15:30:908,1.5099,2.814,3.216,42.4689,0.6802,0.4617,0.4277,347.6509
16:15:30:926,1.4716,2.9695,3.3141,41.5894,0.3051,0.3627,0.275,347.2626
16:15:30:947,1.3735,3.0173,3.8189,41.8966,-0.0394,0.199,0.1149,347.0892
16:15:30:967,1.4381,2.8833,5.0776,43.4218,-0.3204,-0.0722,-0.0585,347.2186
16:15:30:989,1.3519,2.6848,6.1065,41.5519,-0.4071,-0.3605,-0.2381,347.666
16:15:31:011,0.9117,2.6728,6.8866,40.6759,-0.3082,-0.5768,-0.4275,348.4083
16:15:31:031,0.5121,2.6201,7.4848,40.9626,-0.2055,-0.848,-0.5546,349.3958
16:15:31:062,0.4307,2.6082,7.7288,40.7467,-0.1933,-1.1253,-0.5521,350.5153
16:15:31:068,1.1964,3.46,8.1404,38.9859,-0.5061,-0.9592,-0.3017,351.5571
16:15:31:091,2.5364,2.7206,10.1695,40.4242,-1.0265,-0.7955,-0.2589,352.2422
16:15:31:110,3.5701,1.3041,14.0507,38.6251,-1.6679,-0.8553,-0.4153,353.5842
16:15:31:127,3.2112,0.201,17.9916,38.7015,-1.9978,-0.9958,-0.7048,354.6636
16:15:31:147,1.6989,-0.3709,19.0086,38.0364,-1.6765,-0.8736,-0.9101,355.9651
16:15:31:169,0.0526,0.1866,16.3406,38.5814,-0.7932,-0.3422,-0.794,357.0405
16:15:31:187,-0.134,1.5051,12.5001,37.1138,-0.0333,0.1844,-0.4104,357.5564
16:15:31:207,1.0792,2.3043,9.8584,37.6739,0.128,0.4043,-0.0305,357.5479
16:15:31:226,2.1703,2.7637,9.5545,37.4215,-0.1713,0.4825,0.0856,357.3506
16:15:31:245,2.3282,2.8331,9.9518,36.591,-0.4963,0.4959,-0.072,357.3195
16:15:31:266,1.2921,2.7398,9.7005,38.6193,-0.5574,0.5069,-0.3958,357.6691
16:15:31:291,-0.067,2.6345,8.6644,38.2736,-0.4108,0.5411,-0.6633,358.3265
16:15:31:308,-1.1055,2.6225,7.3388,37.2344,-0.2177,0.6059,-0.7342,359.0836
16:15:31:327,-1.6534,2.6536,6.2979,38.0467,-0.0797,0.6034,-0.6572,359.7642
16:15:31:346,-1.8425,2.7565,5.6758,34.8026,-0.0223,0.4299,-0.5106,0.3168
16:15:31:367,-1.7109,2.8331,5.281,36.8196,-0.0308,0.1428,-0.3518,0.7761
16:15:31:387,-1.3926,2.8642,5.6112,35.672,-0.1102,-0.0917,-0.2064,1.1378
16:15:31:408,-0.8279,2.6919,6.3194,35.8711,-0.2214,-0.1773,-0.0818,1.3435
16:15:31:427,-0.6102,2.5986,7.279,34.1276,-0.263,-0.176,-0.0219,1.4529
16:15:31:447,-0.4857,2.4861,8.2505,35.1687,-0.2251,-0.2408,0.005,1.5668
16:15:31:466,-0.3063,2.3665,9.521,34.3612,-0.1432,-0.3825,0.0331,1.6837
16:15:31:490,0.0287,2.1703,10.1169,34.7635,0.0046,-0.5071,0.0624,1.8018
16:15:31:507,0.2393,2.1607,9.99,34.1276,0.2221,-0.4338,0.1039,1.8456
16:15:31:527,0.3565,2.5579,10.4112,33.2599,0.3833,0.0353,0.2102,1.7602
16:15:31:546,0.7705,2.6273,10.9352,32.8331,0.3784,0.1233,0.242,1.2749
16:15:31:566,1.6176,2.522,11.8517,31.6873,0.3296,-0.0087,0.2261,1.0559
16:15:31:592,1.8616,2.5603,13.0385,32.4835,0.2379,-0.2334,0.1161,0.9873
16:15:31:612,1.1892,2.8666,12.7466,31.7122,0.288,-0.1345,-0.0219,1.093
16:15:31:626,0.4451,2.8163,10.9831,32.642,0.431,0.3798,-0.0744,1.1115
16:15:31:646,-0.8016,3.1083,10.4734,31.5392,0.3198,0.8746,-0.0744,1.0234
16:15:31:667,-2.0674,3.2662,10.8299,32.5005,0.1048,1.086,-0.0121,0.8274
16:15:31:690,-2.9432,3.5438,10.605,31.5415,0.1011,1.0958,0.0807,0.5515
16:15:31:707,-2.8857,3.405,10.2987,33.3775,0.1255,0.7525,0.1821,0.2622
16:15:31:727,-2.01,2.5484,10.9831,32.0821,-0.0638,0.0756,0.2408,0.0668
16:15:31:747,-1.3304,1.5027,13.4931,32.8831,-0.4071,-0.6378,0.2383,0.0741
16:15:31:774,-1.0002,0.6245,16.4411,30.0159,-0.5672,-1.096,0.253,0.1555
16:15:31:797,-0.8016,-0.0048,16.063,31.6387,-0.153,-1.0056,0.4045,0.0455
16:15:31:812,-0.4403,0.0598,12.9882,29.466,0.5764,-0.3055,0.7026,359.4364
16:15:31:827,-0.0861,0.9069,10.3322,32.3732,1.004,0.5374,0.9848,358.2483
16:15:31:847,0.8782,1.2586,9.0114,34.3755,1.0235,0.9369,1.2303,356.6621
16:15:31:869,1.6965,1.6152,8.3773,32.4412,0.949,0.9601,1.311,354.9336
16:15:31:889,2.2062,1.919,7.5685,31.9552,0.9661,0.7781,1.234,353.3271
16:15:31:907,2.4335,2.211,6.2716,33.0985,1.0467,0.568,1.0715,351.9597
16:15:31:928,2.3593,2.5651,4.9196,32.6616,1.0822,0.48,0.8761,350.8181
16:15:31:945,2.1966,2.8403,4.0032,33.9977,0.9783,0.5093,0.6806,349.8753
16:15:31:966,1.9119,3.1226,3.7065,34.0985,0.7535,0.5399,0.4839,349.1426
16:15:31:985,1.2825,3.1681,4.5033,34.0985,0.2917,0.2747,0.1125,348.6357
16:15:32:004,1.0672,3.1514,4.8,32.3202,0.2074,-0.0184,-0.0476,348.431
16:15:32:026,0.859,3.1657,4.7737,32.9622,0.1842,-0.3043,-0.1807,348.7455
16:15:32:046,0.6006,3.3906,4.7402,32.5604,0.139,-0.5108,-0.298,349.2671
16:15:32:068,0.2991,3.5175,5.001,32.3437,0.0168,-0.6501,-0.4214,350.0135
16:15:32:089,0.1579,3.4361,5.8528,31.701,-0.219,-0.7955,-0.5253,350.9052
16:15:32:105,0.2823,3.1896,7.255,32.657,-0.5647,-0.9042,-0.5753,351.8934
16:15:32:125,-0.0096,3.3906,9.0377,31.7704,-0.9178,-0.7845,-0.612,352.8719
16:15:32:145,0.055,3.6275,10.3466,32.9128,-1.2098,-0.3642,-0.6193,353.6573
16:15:32:165,0.6724,3.0461,13.2036,30.4755,-1.5861,0.1746,-0.645,354.2271
16:15:32:185,0.7513,2.1918,19.1689,30.3511,-2.0894,0.3053,-0.8001,354.9109
16:15:32:206,0.3805,0.8399,23.9043,32.2039,-2.0528,-0.115,-1.0078,355.9461
16:15:32:226,-0.1938,-0.3254,22.6481,31.4,-1.0241,-0.5682,-1.0701,357.2194
16:15:32:247,-0.9141,-0.0215,17.8744,31.3216,0.3626,-0.5181,-0.9284,358.344
16:15:32:271,-0.8447,1.0002,13.3735,31.337,1.1432,-0.0661,-0.579,358.9757
16:15:32:290,0.1029,1.7085,10.5021,32.1792,1.2178,0.4592,-0.1245,358.9695
16:15:32:307,0.9739,2.266,8.8223,33.1016,1.0455,0.8698,0.1613,358.4876
16:15:32:325,1.1581,2.8187,7.2981,33.9637,0.9001,1.0127,0.1674,357.9015
16:15:32:346,0.7801,3.0293,5.9653,33.3702,0.7682,0.9052,-0.0024,357.5133
16:15:32:370,0.0455,3.0126,4.8718,31.0988,0.6142,0.6779,-0.2052,357.4131
16:15:32:387,-0.7825,2.9767,4.0247,32.8323,0.4273,0.491,-0.3127,357.5088
16:15:32:407,-0.9954,2.8379,3.3667,33.5041,0.194,0.403,-0.2821,357.6102
16:15:32:428,-0.8447,3.1777,2.9599,34.2097,-0.3558,0.4837,-0.1099,357.5462
16:15:32:449,-0.7298,3.2925,3.3428,34.0524,-0.6234,0.5753,-0.0744,357.354
16:15:32:471,-0.6437,3.3308,4.3525,32.7216,-0.8384,0.579,-0.1184,357.205
16:15:32:493,-0.938,3.1298,5.2164,34.3961,-0.9728,0.3737,-0.2455,357.2831
16:15:32:511,-1.6606,2.9121,6.353,32.4469,-1.0339,0.1135,-0.3909,357.6252
16:15:32:529,-2.211,2.7805,8.2983,34.3535,-1.0534,-0.0978,-0.4471,358.1013
16:15:32:549,-2.6895,2.5172,11.3755,35.4037,-0.9703,-0.4277,-0.4409,358.6661
16:15:32:568,-2.6919,2.1703,13.5171,36.0609,-0.478,-0.8419,-0.3762,359.2766
16:15:32:586,-2.7446,1.541,12.6389,34.2637,0.4982,-1.1925,-0.2052,359.8032
16:15:32:606,-3.3093,2.1057,11.3396,34.7125,1.2104,-1.2304,-0.0561,0.2122
16:15:32:628,-3.0796,2.8499,10.8419,34.6451,1.2691,-0.9225,0.154,0.3333
16:15:32:651,-1.9645,3.216,11.4066,33.8345,1.0333,-0.4375,0.5755,359.8681
16:15:32:669,-0.7489,3.649,12.591,36.6036,0.6521,-0.0319,0.9396,358.8291
16:15:32:690,-0.0239,3.7998,12.749,35.698,0.4065,0.5081,1.1155,357.3975
16:15:32:707,-0.2106,4.0343,12.1196,36.2155,0.3687,1.1923,1.1118,355.7404
16:15:32:726,-1.0935,4.1133,12.2847,34.4849,0.2306,1.4403,1.0092,354.1101
16:15:32:747,-2.2325,4.209,11.6985,35.2266,0.0925,1.2583,0.9432,352.6236
16:15:32:766,-2.6943,4.3956,10.5739,36.894,0.1316,1.1752,0.9811,351.1356
16:15:32:786,-2.6417,4.5966,9.9709,35.7807,0.1646,1.1116,0.9946,349.6499
16:15:32:805,-2.2421,4.1803,9.947,36.9124,-0.0492,0.6303,0.8528,348.4664
16:15:32:829,-1.7061,3.2088,11.9713,37.6484,-0.4706,-0.1308,0.6696,347.7571
16:15:32:851,-1.2467,2.1679,14.5388,37.7665,-0.7431,-0.7502,0.5645,347.3763
16:15:32:942,-0.8638,1.0552,13.7587,37.8661,-0.4816,-0.9641,0.6402,346.2327
16:15:32:944,0.2297,1.5147,10.0211,37.3907,0.4676,0.1562,1.0434,345.0144
16:15:32:945,1.2849,1.6128,8.9707,38.1583,0.6045,0.5875,1.2145,343.4867
16:15:32:946,1.9454,1.7755,8.1523,38.0629,0.712,0.8026,1.2646,341.756
16:15:32:946,2.1894,2.0291,6.8985,36.4487,0.8928,0.8245,1.1839,340.075
16:15:32:968,2.2493,2.278,5.5059,39.351,1.0296,0.6902,1.0398,338.6164
16:15:32:986,2.4503,2.4766,4.6277,38.5244,1.0431,0.5167,0.8785,337.3766
16:15:33:006,2.4311,2.6584,4.0295,38.4856,0.9636,0.3334,0.6684,336.4642
16:15:33:028,2.3067,2.7805,3.6682,39.9004,0.8415,0.0976,0.4118,335.8808
16:15:33:049,2.0865,2.7494,3.661,40.0153,0.6729,-0.1907,0.154,335.7127
16:15:33:067,1.7061,2.7876,3.7113,38.7716,0.4969,-0.4656,-0.0622,335.9095
16:15:33:088,1.529,2.8977,4.2018,38.8372,0.299,-0.7075,-0.2161,336.3875
16:15:33:106,1.5601,2.9862,5.4963,40.1265,0.1133,-0.9335,-0.331,337.0779
16:15:33:126,1.4955,3.0173,7.0229,38.4481,0.0009,-1.267,-0.474,338.0887
16:15:33:147,1.5194,3.058,8.4706,38.5244,-0.0443,-1.7166,-0.6132,339.4606
16:15:33:168,1.6989,2.9743,10.191,39.7833,-0.109,-2.0489,-0.6877,341.0907
16:15:33:187,1.7635,3.2638,12.4211,38.9665,-0.1225,-1.8376,-0.6474,342.5547
16:15:33:207,1.9836,4.2496,12.9954,39.0219,0.0583,-1.0655,-0.4923,343.4666
16:15:33:232,2.4814,5.6877,12.0072,38.7498,0.0706,-0.3629,-0.4409,343.9629
16:15:33:247,3.1466,6.1831,13.8281,38.7384,-0.445,-0.0795,-0.6047,344.4378
16:15:33:266,3.8524,4.7019,17.8002,39.578,-1.1524,-0.4656,-0.9272,345.4128
16:15:33:286,2.4837,3.07,19.2742,39.578,-1.2025,-0.9274,-1.3976,347.1099
16:15:33:305,-0.1914,2.6608,15.8692,38.6307,-0.5012,-0.7185,-1.7018,349.0558
16:15:33:326,-1.4381,3.1346,11.5836,40.233,0.321,0.1868,-1.5173,350.4265
16:15:33:348,-1.5984,4.7426,7.2933,40.667,0.7327,0.8978,-0.8258,351.052
16:15:33:366,-1.072,4.9962,7.0971,41.0602,0.5617,0.2699,-0.6267,351.8555
16:15:33:386,-0.3206,4.8622,6.7621,41.4731,0.442,-0.5474,-0.5533,352.5687
16:15:33:406,0.0024,4.5823,5.6662,40.9877,0.3992,-1.0044,-0.6267,353.5665
16:15:33:429,-0.1555,4.2832,4.8479,40.4158,0.2795,-0.9445,-0.7427,354.6427
16:15:33:451,-0.6126,4.0128,4.8407,41.081,0.0657,-0.5413,-0.8246,355.6049
16:15:33:468,-1.1749,3.9051,4.7258,38.763,-0.0895,0.0011,-0.8344,356.2969
16:15:33:486,-1.8377,4.0965,4.6205,41.5164,-0.1432,0.4825,-0.7965,356.7052
16:15:33:508,-2.0889,4.2353,4.5057,40.4785,-0.1505,0.6926,-0.6951,356.9239
16:15:33:532,-2.1727,4.587,4.6325,41.4916,-0.1066,0.6816,-0.5692,357.0349
16:15:33:546,-2.1559,4.8885,4.7856,42.9072,-0.0272,0.5802,-0.4666,357.0765
16:15:33:566,-2.3593,5.0513,4.8168,40.4293,0.029,0.4348,-0.3933,357.1264
16:15:33:586,-2.6441,5.1302,4.879,43.3563,0.0009,0.3456,-0.3078,357.1213
16:15:33:606,-2.8594,5.2259,5.2881,40.6051,-0.1335,0.3847,-0.1905,357.0258
16:15:33:630,-2.9934,5.3288,6.3888,43.2432,-0.3253,0.4959,-0.0256,356.6975
16:15:33:652,-2.9886,5.2858,7.9035,44.6054,-0.4658,0.5387,0.1711,356.1227
16:15:33:671,-2.9623,5.3001,9.1861,44.6054,-0.4169,0.5826,0.3226,355.3842
16:15:33:685,-3.2375,5.5729,9.521,44.3474,-0.1994,0.6401,0.4277,354.5241
16:15:33:705,-3.5462,5.7452,10.1815,42.5122,-0.065,0.6388,0.534,353.5797
16:15:33:725,-3.6371,5.6782,11.9234,44.5484,-0.0553,0.6449,0.6256,352.5201
16:15:33:746,-3.4337,5.5131,13.8114,43.6571,-0.0003,0.6022,0.6366,351.4672
16:15:33:765,-3.6084,5.1398,13.285,43.8231,0.2489,0.6865,0.606,350.3996
16:15:33:788,-4.3095,5.3456,10.5763,44.9554,0.5092,1.053,0.6488,349.1142
16:15:33:808,-4.599,4.9723,10.2485,46.3019,-0.1799,1.5771,1.0373,347.433
16:15:33:834,-5.3551,4.788,10.3801,46.5371,-0.4328,1.7665,1.146,343.4442
16:15:33:848,-6.1256,4.9747,10.0355,46.1147,-0.4364,1.9168,1.2658,341.0608
16:15:33:865,-6.1615,5.123,10.5164,45.7013,-0.4755,1.7237,1.4197,338.6161
16:15:33:886,-5.4365,4.4602,11.9665,46.0337,-0.5953,1.0555,1.5407,336.4214
16:15:33:905,-4.52,3.1801,13.8329,44.8944,-0.638,0.298,1.636,334.5133
16:15:33:930,-3.9482,2.2397,13.8927,45.2451,-0.3815,-0.016,1.7569,332.6922
16:15:33:948,-3.2279,1.8831,11.9737,43.1509,0.051,0.2149,1.9915,330.4821
16:15:33:966,-2.1607,1.8831,9.8345,44.8422,0.3271,0.7451,2.2761,327.7404
16:15:33:985,-0.7107,1.7563,9.1597,45.5261,0.3235,1.1605,2.4753,324.5638
16:15:34:005,0.6293,1.7515,9.0473,45.5244,0.2929,1.3963,2.5303,321.1653
16:15:34:027,1.6941,1.9645,8.6501,45.2569,0.387,1.4122,2.4337,317.869
16:15:34:047,2.6345,2.1583,7.7575,45.5757,0.536,1.235,2.2444,314.847
16:15:34:068,3.2207,2.4837,6.9966,44.1607,0.6448,1.0897,2.011,312.1724
16:15:34:085,3.7974,2.668,6.3769,44.9381,0.6949,0.9821,1.7484,309.7997
16:15:34:105,4.1204,2.7972,5.8768,44.5118,0.7242,0.882,1.4368,307.8043
16:15:34:127,4.0271,2.9432,4.8335,42.2218,0.7608,0.7989,1.0886,306.1687
16:15:34:152,3.6132,3.1992,3.5964,44.8592,0.7608,0.7793,0.7551,304.8705
16:15:34:165,3.527,3.5509,2.6991,45.052,0.6472,0.7928,0.4863,303.8008
16:15:34:198,3.5079,3.9649,2.2684,45.3699,0.4139,0.6926,0.2346,303.0214
16:15:34:213,3.4313,4.2927,2.3904,44.7099,0.117,0.4324,-0.0598,302.6763
16:15:34:228,3.1944,4.4124,2.6991,46.321,-0.1567,0.133,-0.3774,302.8071
16:15:34:246,3.149,4.2042,3.1848,45.9458,-0.3631,-0.1541,-0.6694,303.4129
16:15:34:264,2.5579,3.9601,6.4367,45.7086,-0.8726,-0.7197,-1.2791,304.462
16:15:34:283,2.2397,4.1707,7.5996,46.072,-1.0901,-0.9873,-1.6456,306.0359
16:15:34:306,1.9765,4.1587,9.612,47.0481,-1.4639,-1.388,-2.0952,308.0428
16:15:34:325,0.5025,2.8762,14.802,45.6857,-2.1175,-2.0013,-2.6266,314.2515
16:15:34:350,-1.0289,1.4022,20.0423,46.9103,-2.4816,-2.5303,-2.9504,318.3415
16:15:34:368,-2.3019,1.5147,22.4471,46.9905,-2.1297,-2.5877,-2.8465,322.2824
16:15:34:385,-1.9143,1.8831,20.2313,47.2697,-1.277,-2.1919,-2.375,325.5147
16:15:34:405,-1.8616,2.9336,15.9577,47.1123,-0.467,-1.625,-1.9938,328.1087
16:15:34:427,-2.1823,3.6921,13.0744,47.1123,-0.1335,-1.1876,-1.841,330.3805
16:15:34:446,-2.4,4.1659,11.586,47.4521,-0.1249,-1.0581,-1.8068,332.5505
16:15:34:465,-1.9813,4.2257,10.4997,47.2876,-0.1591,-1.1986,-1.7726,334.7292
16:15:34:484,-1.7085,4.2042,9.8728,47.4521,-0.1261,-1.4246,-1.791,336.9968
16:15:34:504,-1.5721,3.6323,9.3296,47.829,-0.054,-1.5993,-1.8618,339.3976
16:15:34:525,-2.0985,3.0604,8.5567,49.1123,0.0645,-1.592,-1.9498,341.881
16:15:34:545,-2.8116,2.7302,7.8174,47.2278,0.1927,-1.4527,-1.9657,344.3376
16:15:34:565,-3.4265,2.5508,6.9033,46.5684,0.277,-1.3403,-1.8618,346.6588
16:15:34:585,-3.6299,2.4598,5.8911,47.5436,0.2722,-1.2756,-1.6529,348.7459
16:15:34:612,-3.1657,2.6058,5.6423,48.7074,0.15,-1.2059,-1.3878,350.5355
16:15:34:626,-2.5292,2.5029,6.2836,49.0246,-0.0137,-1.1106,-1.1544,352.0498
16:15:34:646,-2.4072,2.5005,7.0229,46.2369,-0.0638,-0.9958,-1.0201,353.3694
16:15:34:665,-2.6728,2.5723,6.8985,48.5085,0.029,-0.8223,-0.9003,354.503
16:15:34:685,-3.0317,3.0006,6.3888,49.1052,0.1243,-0.5658,-0.711,355.3471
16:15:34:710,-2.5172,3.1442,6.609,47.5496,0.018,-0.4314,-0.4275,355.8398
16:15:34:728,-0.7968,3.0915,8.7505,46.4608,-0.2984,-0.2823,-0.0073,356.1455
16:15:34:747,-0.7107,3.0939,9.7244,46.7919,-0.2361,-0.1198,0.0379,356.0165
16:15:34:767,-1.261,3.2734,10.1862,46.1788,-0.0602,0.0145,0.0538,355.8253
16:15:34:785,-0.859,3.1657,10.4184,46.2845,0.0339,-0.0404,0.1711,355.5065
16:15:34:809,0.2082,3.2758,12.2417,46.2845,-0.1322,-0.352,0.3446,355.1086
16:15:34:829,1.1486,2.9193,14.0124,48.771,-0.2972,-0.5731,0.435,354.6812
16:15:34:847,1.3472,2.5005,13.7779,47.6137,-0.1579,-0.3605,0.4411,354.1463
16:15:34:866,0.792,2.6704,13.0959,46.9424,0.0217,0.0353,0.4399,353.4904
16:15:34:886,-0.0096,2.9336,12.0455,47.7146,0.1378,0.4079,0.4558,352.6915
16:15:34:906,-0.7107,3.4289,10.6265,46.6167,0.2294,0.7012,0.4839,351.7931
16:15:34:926,-0.7633,3.7472,9.5976,48.9679,0.1475,0.7476,0.5095,350.8311
16:15:35:016,-0.0479,3.4385,9.947,47.6279,-0.2067,0.4984,0.4814,349.9925
16:15:35:017,-0.0072,2.6895,11.464,50.6226,-0.6392,0.1489,0.3373,349.4294
16:15:35:018,-0.5073,2.0698,12.9643,49.8607,-0.8213,0.017,0.2139,349.0679
16:15:35:018,-0.9117,1.7539,12.9452,51.1051,-0.6197,0.1184,0.2591,348.6395
16:15:35:037,-0.8973,1.7898,11.6698,49.4366,-0.2019,0.3248,0.446,347.8886
16:15:35:045,0.0239,1.8712,10.392,48.1721,0.1231,0.4751,0.7013,346.8433
16:15:35:066,1.0409,1.8951,9.6718,48.3582,0.2954,0.557,0.8724,345.5588
16:15:35:086,1.5027,2.0172,8.9204,48.3247,0.4359,0.6205,0.8968,344.2616
16:15:35:110,1.8377,2.1105,8.3318,48.3987,0.5641,0.6034,0.8638,342.9828
16:15:35:128,2.0746,2.1368,7.6163,50.6441,0.6985,0.5216,0.8137,341.7845
16:15:35:148,2.1512,2.2325,6.8554,48.2126,0.8451,0.3994,0.738,340.7044
16:15:35:169,2.199,2.2947,6.0395,48.9612,0.9636,0.2271,0.6451,339.7835
16:15:35:190,2.3282,2.5029,4.8287,48.8723,0.9185,-0.2237,0.3922,338.7226
16:15:35:209,2.3234,2.5771,4.7569,49.6298,0.7645,-0.4228,0.2408,338.5001
16:15:35:226,2.2732,2.6919,4.6349,49.9698,0.6045,-0.5597,0.0966,338.4952
16:15:35:245,2.2086,2.7446,4.812,48.4255,0.4163,-0.6721,-0.0415,338.6789
16:15:35:264,2.2062,2.7278,5.5657,47.9925,0.1634,-0.8309,-0.1795,339.0842
16:15:35:285,2.321,2.4766,7.5063,47.8705,-0.1347,-1.0826,-0.3286,339.7345
16:15:35:306,2.4144,2.1775,9.1358,49.3419,-0.3424,-1.377,-0.474,340.6895
16:15:35:329,1.9669,2.5436,8.9157,47.3304,-0.3106,-1.4222,-0.5619,341.7348
16:15:35:345,1.5458,3.0508,7.5709,48.5303,-0.2825,-1.0764,-0.5595,342.6244
16:15:35:364,1.8521,3.1154,7.2622,49.3027,-0.6405,-0.5743,-0.4923,343.2171
16:15:35:385,3.2471,2.2564,10.2197,48.4057,-1.5164,-0.3629,-0.4825,343.6675
16:15:35:404,3.9218,0.993,17.2259,49.8331,-2.4523,-0.5878,-0.6291,344.3729
16:15:35:426,2.8594,0.146,21.5187,49.3084,-2.313,-0.5878,-0.8356,345.2923
16:15:35:445,-0.256,0.9571,18.7525,50.3713,-0.9459,-0.0917,-0.838,346.0961
16:15:35:469,-1.5314,2.12,13.7587,50.9691,0.3174,0.2919,-0.4361,346.3836
16:15:35:488,0.1627,2.6919,11.0142,50.7262,0.6839,0.2894,0.1894,345.9637
16:15:35:506,2.3234,3.3165,10.0977,49.3791,0.5373,0.1697,0.5718,345.1519
16:15:35:526,3.2614,3.7567,9.4732,51.5145,0.3516,0.006,0.5217,344.4428
16:15:35:544,2.7374,3.9242,8.1189,51.0273,0.2648,-0.0759,0.1968,344.1403
16:15:35:564,1.5506,4.0032,6.7765,51.5055,0.1744,0.0414,-0.1123,344.126
16:15:35:584,0.7202,4.0104,5.9916,50.9136,0.0144,0.2821,-0.243,344.2057
16:15:35:608,0.3661,3.9984,6.0155,52.075,-0.1713,0.48,-0.2406,344.1929
16:15:35:627,0.2153,3.9099,6.1926,50.8059,-0.2776,0.5252,-0.2052,344.1261
16:15:35:649,-0.4283,3.8716,6.4176,50.3613,-0.1835,0.232,-0.1282,344.1751
16:15:35:665,-0.8734,3.8118,6.4439,53.7191,-0.0846,0.0475,-0.0439,344.1227
16:15:35:686,-1.0576,3.7902,6.5515,50.3697,0.007,0.0023,0.1003,343.9201
16:15:35:710,-0.993,3.8381,6.7621,52.0155,0.0755,0.0805,0.2737,343.5091
16:15:35:728,-1.1079,3.8764,6.9918,52.1222,0.1145,0.2063,0.4252,342.9167
16:15:35:745,-1.084,3.8429,7.8221,52.1891,0.0889,0.2894,0.5413,342.1732
16:15:35:764,-0.9093,3.5773,9.2124,51.4452,0.0327,0.2564,0.6158,341.3611
16:15:35:787,-0.938,3.3906,10.2533,51.5915,0.095,0.1746,0.6537,340.5132
16:15:35:805,-0.8447,3.3715,10.471,52.8113,0.2807,0.0952,0.6818,339.674
16:15:35:825,-0.5097,3.3452,10.3203,52.1352,0.4261,0.0133,0.705,338.8493
16:15:35:845,0.1627,3.07,11.208,51.7934,0.3687,-0.0563,0.7221,338.0342
16:15:35:864,0.7657,2.5484,12.3422,52.2254,0.2404,-0.1431,0.7075,337.2362
16:15:35:890,0.926,2.4048,12.6317,52.0424,0.2489,-0.1198,0.6867,336.4679
16:15:35:910,1.0863,2.5005,11.3348,53.0758,0.4273,0.2589,0.7282,335.5147
16:15:35:923,0.5815,2.8881,8.9252,52.6216,0.5605,0.9553,0.7795,334.2636
16:15:35:943,-0.4427,3.1083,8.1499,53.3906,0.3332,1.5258,0.7942,332.8023
16:15:35:963,-1.4142,3.0413,9.3655,53.7731,-0.0895,1.6797,0.8199,331.2675
16:15:35:985,-1.943,2.8857,10.8323,53.9624,-0.3167,1.4061,0.8871,329.7791
16:15:36:006,-1.7492,2.7374,11.3157,52.9946,-0.2825,0.7573,0.9872,328.4446
16:15:36:024,-0.4714,2.2875,12.2489,54.5171,-0.2862,-0.082,1.0727,327.2878
16:15:36:043,0.7466,1.6247,14.0435,53.2873,-0.39,-0.7796,1.0593,326.344
16:15:36:064,1.4261,0.9739,15.3021,55.3522,-0.3668,-1.008,0.9823,325.5493
16:15:36:088,1.2706,0.6676,15.0269,53.6636,-0.0882,-0.6061,0.9738,324.6184
16:15:36:108,1.7539,0.6676,13.529,54.0015,0.5202,0.6767,1.2401,323.3321
16:15:36:126,2.3115,0.7346,12.7777,53.2613,0.7437,0.9259,1.3598,321.7675
16:15:36:144,2.6967,0.9643,11.1482,52.3018,1.0993,1.0518,1.4185,318.0087
16:15:36:163,3.1346,1.3902,9.0975,52.9696,1.511,1.1312,1.4417,316.0175
16:15:36:187,3.7735,1.9143,6.9727,53.6988,1.7895,1.1324,1.4148,314.0438
16:15:36:205,4.5488,2.4933,5.5825,53.1617,1.8372,1.0115,1.2902,312.2456
16:15:36:225,5.0106,3.015,4.6421,51.081,1.7272,0.7842,1.0263,310.8083
16:15:36:245,4.9771,3.4122,3.9218,53.4022,1.544,0.4898,0.6451,309.8898
16:15:36:266,4.2257,3.5462,3.4074,52.7008,1.2947,0.1782,0.2249,309.557
16:15:36:284,3.4672,3.4744,3.3212,53.386,0.9893,-0.0429,-0.061,309.6218
16:15:36:307,3.1705,3.4241,3.4648,52.9908,0.7047,-0.0954,-0.1575,309.7975
16:15:36:323,3.4193,3.6132,3.7304,53.4689,0.4652,-0.0991,-0.1844,310.0168
16:15:36:344,3.4241,3.7543,3.8596,53.5541,0.2673,-0.2603,-0.2882,310.4215
16:15:36:363,3.2088,3.752,3.9386,52.226,0.0681,-0.6122,-0.4556,311.1813
16:15:36:385,3.3882,3.5222,4.2832,54.6353,-0.2067,-1.1119,-0.5998,312.3599
16:15:36:403,3.6945,3.2351,5.1541,52.9937,-0.5855,-1.5761,-0.7281,313.9081
16:15:36:424,3.7615,3.1322,6.2166,54.8232,-1.0082,-1.7777,-0.8649,315.6938
16:15:36:445,3.8501,2.8977,6.6832,55.1448,-1.4566,-1.6274,-0.992,317.5087
16:15:36:470,4.6277,1.9286,8.997,55.0301,-2.1444,-1.3745,-1.1019,319.2397
16:15:36:488,5.0106,0.2704,16.1659,55.1171,-3.046,-1.4808,-1.3377,321.1808
16:15:36:507,3.6371,-0.7346,22.8467,54.4743,-3.2574,-1.8449,-1.6431,323.5535
16:15:36:527,1.9525,-1.1246,21.7651,53.8935,-2.1346,-1.8693,-1.6358,325.8886
16:15:36:544,0.67,0.3709,16.7282,54.7192,-0.5782,-1.3794,-1.3426,327.7592
16:15:36:571,3.1083,2.8307,8.4873,56.6881,0.5727,-0.3886,-0.4923,329.5199
16:15:36:587,3.8644,3.4672,6.7789,54.1821,0.3051,-0.4008,-0.5179,330.1754
16:15:36:604,3.4481,3.6299,5.9988,54.742,-0.142,-0.567,-0.8185,331.2419
16:15:36:623,2.333,3.283,5.7906,54.7669,-0.605,-0.5914,-1.1422,332.6672
16:15:36:644,0.9834,3.0628,6.0826,54.0671,-0.9496,-0.2921,-1.3072,334.176
16:15:36:669,0.0718,3.0556,6.5468,55.6394,-1.1133,0.0781,-1.2876,335.5259
16:15:36:689,-0.4594,3.1992,6.8698,54.7767,-1.1145,0.1978,-1.1618,336.6972
16:15:36:706,-0.5456,3.3523,7.3005,55.669,-1.0082,0.0109,-0.9932,337.7697
16:15:36:724,-0.4116,3.4816,7.4871,55.6886,-0.8494,-0.3935,-0.8295,338.7871
16:15:36:747,0.1436,3.6227,7.2909,54.9236,-0.6588,-0.7478,-0.6596,339.7219
16:15:36:768,0.6389,3.8094,7.0301,55.7361,-0.5146,-0.8492,-0.524,340.5302
16:15:36:785,0.9476,3.8644,7.3388,54.7789,-0.4645,-0.7063,-0.4581,341.2236
16:15:36:807,0.8495,3.8979,8.1141,54.6694,-0.4242,-0.4937,-0.4446,341.8414
16:15:36:824,0.4594,3.9697,8.6572,55.7314,-0.3216,-0.4033,-0.4361,342.4406
16:15:36:843,0.39,4.0152,9.0832,57.3822,-0.1921,-0.4656,-0.3713,342.9961
16:15:36:865,0.6197,4.1276,9.4469,56.1193,-0.0614,-0.5352,-0.2491,343.4292
16:15:36:889,0.9858,4.1946,9.7484,55.5468,0.0645,-0.4949,-0.1282,343.7123
16:15:36:904,1.2706,4.3071,9.7555,55.7313,0.1598,-0.3825,-0.0549,343.8884
16:15:36:925,1.7539,4.2138,10.3801,57.1952,0.1329,-0.2958,-0.0231,343.993
16:15:36:943,2.2493,3.9242,12.1795,57.5593,0.0034,-0.3092,-0.0219,344.0951
16:15:36:963,2.4048,4.1587,14.0124,57.9305,-0.0186,-0.3324,-0.0353,344.2186
16:15:36:986,3.1226,3.8979,13.6989,57.9567,0.1658,-0.2066,-0.0292,344.2933
16:15:37:006,3.8213,3.3021,13.4764,56.0239,0.194,-0.0869,-0.0512,344.3421
16:15:37:120,2.5962,2.4718,15.1131,58.8612,-0.0345,0.2515,-0.2259,344.6513
16:15:37:121,0.9667,2.7182,13.3448,60.9526,0.2941,0.6706,-0.2467,344.7282
16:15:37:122,0.5456,2.7996,11.7177,59.0783,0.4591,0.8123,-0.0915,344.586
16:15:37:124,1.3687,2.5531,11.3396,55.7771,0.3161,0.7305,0.1577,344.1895
16:15:37:125,1.943,2.2732,10.8706,56.9353,0.15,0.7146,0.3287,343.584
16:15:37:126,2.0315,1.9573,9.9805,57.7644,0.095,0.8722,0.4228,342.8344
16:15:37:148,1.9597,1.7563,9.4014,58.2988,0.0779,1.0689,0.5169,341.9072
16:15:37:167,2.0219,1.596,9.0209,59.305,0.0877,1.1288,0.6207,340.87
16:15:37:183,2.2373,1.4429,8.6237,58.606,0.1708,1.02,0.7148,339.7553
16:15:37:202,2.546,1.3376,8.1835,60.9026,0.3418,0.8294,0.7808,338.6215
16:15:37:226,2.6058,1.3041,7.4584,59.8193,0.5764,0.6608,0.8052,337.5383
16:15:37:247,2.601,1.3831,6.4606,60.3365,0.8097,0.5545,0.8162,336.4608
16:15:37:264,2.6512,1.5218,5.7093,60.4718,0.9576,0.4861,0.8186,335.4165
16:15:37:283,2.9503,1.6391,5.1326,60.165,1.0247,0.4128,0.8003,334.4054
16:15:37:303,3.2184,1.7827,4.867,62.1461,1.0345,0.353,0.738,333.4917
16:15:37:324,3.2231,1.876,4.6588,60.7668,1.0174,0.3175,0.617,332.7146
16:15:37:348,3.0461,1.9406,4.6708,61.8465,0.9832,0.2418,0.4582,332.1357
16:15:37:365,2.8953,2.0363,4.5607,61.3923,0.9343,0.0732,0.2982,331.8051
16:15:37:383,2.522,2.2038,4.5392,60.4825,0.8525,-0.1003,0.1308,331.7316
16:15:37:403,2.0889,2.3952,4.6493,60.9353,0.6998,-0.2102,-0.0353,331.8814
16:15:37:423,1.6822,2.6249,4.8694,59.3508,0.4334,-0.3043,-0.1624,332.2143
16:15:37:446,1.8592,2.6752,5.5729,61.8806,-0.0247,-0.3569,-0.2137,332.6167
16:15:37:465,2.1392,2.6178,7.2168,62.5379,-0.6124,-0.2188,-0.2247,332.9557
16:15:37:484,3.3284,2.0483,14.0674,64.1613,-1.4407,0.061,-0.2516,333.3976
16:15:37:505,4.9436,1.6391,15.3858,61.8923,-1.4602,-0.3422,-0.3163,333.8347
16:15:37:523,5.5825,0.9093,17.0848,63.0824,-1.5421,-0.7661,-0.5289,334.6253
16:15:37:545,4.6038,0.4857,18.2381,62.1552,-1.4456,-0.4644,-0.7501,335.5599
16:15:37:564,2.668,0.725,17.08,64.9331,-0.9716,0.3065,-0.805,336.3155
16:15:37:583,1.6702,1.3519,14.6297,65.4216,-0.3986,0.8038,-0.6169,336.7498
16:15:37:604,1.7755,1.9621,12.1053,64.7088,0.0156,0.7683,-0.3347,336.9071
16:15:37:629,2.3043,2.6991,10.0618,64.6039,0.2306,0.4079,-0.1282,336.9285
16:15:37:646,2.8211,3.1178,8.205,63.9074,0.2978,0.0329,-0.061,336.9978
16:15:37:666,3.0652,3.2423,6.6305,63.732,0.2636,-0.0978,-0.1319,337.1852
16:15:37:683,2.2708,3.7998,5.5466,63.4663,0.1366,0.0023,-0.2834,337.5356
16:15:37:702,1.4955,3.7113,5.1039,66.2181,-0.0357,0.2124,-0.3921,337.9239
16:15:37:723,0.6843,3.6969,5.0871,65.177,-0.2336,0.3053,-0.4544,338.3574
16:15:37:747,0.1292,3.4744,4.989,66.1179,-0.3827,0.3615,-0.463,338.7887
16:15:37:766,-0.6628,3.5127,5.1637,65.4555,-0.5207,0.4055,-0.4483,339.1999
16:15:37:786,-1.2323,3.6586,6.2429,66.288,-0.6539,0.4104,-0.3835,339.55
16:15:37:804,-1.2586,3.5246,7.602,66.4666,-0.6454,0.3432,-0.2577,339.7872
16:15:37:829,-1.3352,3.4839,8.5256,65.87,-0.4291,0.1587,-0.1465,339.9751
16:15:37:845,-1.2993,3.5318,8.9348,66.5574,-0.087,-0.0282,-0.0427,340.083
16:15:37:864,-1.2634,3.8046,8.3868,66.5281,0.2392,-0.1259,0.0551,340.1105
16:15:37:883,-1.1366,4.0391,7.8748,65.961,0.3662,-0.0881,0.1454,340.0241
16:15:37:903,-1.0433,4.0319,8.2983,68.0032,0.2734,0.0964,0.2175,339.8215
16:15:37:923,-1.2634,3.9099,9.3081,67.3891,0.1011,0.2882,0.2518,339.5292
16:15:37:946,-0.7729,3.4265,12.39,67.3453,0.0131,0.3652,0.3947,338.627
16:15:37:967,0.5719,2.8857,14.2708,68.4983,0.0388,0.0695,0.468,338.1551
16:15:37:983,0.9691,2.3521,15.7017,67.3256,0.0608,-0.1968,0.4203,337.7903
16:15:38:003,0.3326,2.5053,14.199,70.4705,0.3699,0.177,0.3873,337.362
16:15:38:024,-0.2106,3.0197,11.6459,68.7093,0.6497,0.8832,0.4863,336.6078
16:15:38:044,-0.8136,2.9767,11.1099,69.0537,0.4957,1.1605,0.5682,335.6954
16:15:38:065,-1.6845,2.9025,11.2678,68.5003,0.2941,1.0933,0.6024,334.7697
16:15:38:083,-2.0339,2.9958,10.5428,69.421,0.3467,0.9088,0.6842,333.8026
16:15:38:103,-1.5266,3.0724,9.9852,69.2073,0.3955,0.5069,0.7856,332.8684
16:15:38:124,-0.3063,2.6106,10.2652,70.8168,0.2099,-0.0893,0.8052,332.1107
16:15:38:143,0.737,1.9478,11.6578,71.329,-0.1188,-0.4937,0.7245,331.5643
16:15:38:164,1.3639,1.3089,12.6461,70.6814,-0.3155,-0.4558,0.6134,331.1068
16:15:38:183,1.3208,1.0528,12.2058,69.7152,-0.2324,0.0561,0.5413,330.5576
16:15:38:203,0.9619,1.2036,11.0548,70.9685,-0.0162,0.717,0.5462,329.7769
16:15:38:226,1.017,1.3448,9.6407,69.1624,0.1732,1.0567,0.606,328.823
16:15:38:245,1.5793,1.4812,8.5543,68.6305,0.2673,1.0127,0.661,327.823
16:15:38:262,1.8927,1.5194,7.8796,68.7755,0.2636,0.7415,0.6354,326.9272
16:15:38:283,2.2612,1.5912,8.0949,70.1983,0.2428,0.4653,0.5596,326.2107
16:15:38:303,2.5531,1.5194,8.0949,70.221,0.3809,0.3505,0.4716,325.6232
16:15:38:325,2.4622,1.675,7.0253,68.9801,0.6802,0.3248,0.3507,325.1588
16:15:38:344,2.266,1.8903,5.4724,68.6997,0.9123,0.2345,0.22,324.8649
16:15:38:365,2.0626,2.0889,4.5847,69.5443,0.9038,0.1049,0.0978,324.7563
16:15:38:395,1.9143,2.1368,4.7426,68.6253,0.475,-0.1259,-0.116,324.9507
16:15:38:411,1.864,2.0028,5.3982,68.2739,0.2941,-0.2811,-0.2186,325.3023
16:15:38:425,1.7635,1.931,5.8241,67.1243,0.1989,-0.556,-0.3188,325.8661
16:15:38:445,1.6869,1.8903,6.3434,67.3738,0.1304,-0.8932,-0.3909,326.6576
16:15:38:461,1.7827,1.8449,6.9416,69.5829,0.062,-1.173,-0.4299,327.6108
16:15:38:482,1.9071,1.9047,7.2933,70.2352,-0.0027,-1.4088,-0.4568,328.6953
16:15:38:503,2.1296,1.9095,7.7671,66.6862,-0.1066,-1.5224,-0.4703,329.832
16:15:38:524,2.1775,2.0674,7.7145,67.6844,-0.2373,-1.3587,-0.4617,330.8679
16:15:38:545,1.9023,2.6776,7.7575,66.8588,-0.4682,-0.953,-0.4642,331.7528
16:15:38:563,2.2325,2.479,8.9061,67.3465,-0.9728,-0.7405,-0.5338,332.6348
16:15:38:583,3.0628,1.7922,11.3563,68.5274,-1.696,-0.942,-0.6865,333.7345
16:15:38:603,3.6108,0.7059,15.058,68.8392,-2.4718,-1.3135,-0.9113,335.1547
16:15:38:625,2.7422,-0.2106,19.2766,67.817,-2.7577,-0.9677,-1.13,336.6689
16:15:38:645,0.1316,0.2728,20.0518,69.3277,-2.1346,0.0255,-1.1862,338.0078
16:15:38:663,-0.9332,1.206,17.7308,68.9243,-1.029,0.6633,-0.9333,338.9455
16:15:38:682,0.1149,2.0028,14.1033,67.532,-0.1151,0.4947,-0.535,339.4742
16:15:38:702,1.3926,2.668,11.4066,67.3499,0.2648,-0.0429,-0.3298,339.8715
16:15:38:724,1.9789,3.0532,9.588,68.9243,0.2636,-0.3373,-0.3591,340.3646
16:15:38:743,1.8831,3.1824,8.2265,67.1024,0.0938,-0.2066,-0.502,340.9801
16:15:38:763,1.2825,3.0556,7.9131,67.0264,-0.1493,0.1611,-0.6401,341.6815
16:15:38:785,0.4953,2.8355,8.3127,68.1098,-0.3204,0.4751,-0.7195,342.4077
16:15:38:807,-0.1149,2.7135,8.2457,67.5661,-0.2703,0.546,-0.7219,343.1204
16:15:38:824,-0.4714,2.6895,7.3771,68.5938,-0.043,0.4067,-0.6645,343.8114
16:15:38:843,-0.8901,2.9264,5.4532,67.473,0.2709,0.028,-0.4666,344.4463
16:15:38:865,-0.737,3.0341,4.8933,68.9365,0.2587,-0.0343,-0.3261,345.3869
16:15:38:882,-0.6485,3.1777,4.8024,67.6383,0.1854,-0.0184,-0.2113,345.6813
16:15:38:904,-0.536,3.0963,5.4843,66.7566,0.0669,-0.0087,-0.1429,345.8816
16:15:38:925,-0.4403,2.9862,6.932,66.1072,-0.0406,-0.121,-0.1099,346.0645
16:15:38:946,-0.3924,2.8786,8.0566,65.7142,-0.0662,-0.3434,-0.1038,346.3037
16:15:38:963,-0.6389,3.003,8.5256,65.5713,-0.0137,-0.4314,-0.0879,346.5396
16:15:38:983,-0.682,3.0796,9.2387,65.4542,0.0083,-0.3104,-0.0158,346.6768
16:15:39:005,-0.6389,2.9647,10.7414,66.3703,-0.015,-0.1418,0.0734,346.6839
16:15:39:022,-0.5432,2.79,12.3589,65.397,0.0193,-0.1431,0.1381,346.6246
16:15:39:044,-0.0598,2.6369,13.4118,64.6042,0.1671,-0.2909,0.2188,346.4888
16:15:39:063,0.6365,2.5268,13.9214,64.3202,0.3589,-0.3849,0.3165,346.2741
16:15:39:082,1.3424,3.0197,13.7516,64.3754,0.5703,-0.1663,0.4191,345.8878
16:15:39:102,2.1631,3.0724,12.6054,63.8072,0.7205,0.2955,0.4741,345.3092
16:15:39:205,1.8544,2.8211,12.4164,62.777,0.5764,0.5154,0.3715,344.7865
16:15:39:206,0.67,2.4383,13.1174,65.8774,0.332,0.5264,0.2078,344.4418
16:15:39:208,-0.2417,2.3952,12.6245,63.6597,0.3247,0.5607,0.1711,344.1364
16:15:39:210,-0.469,2.4598,11.6866,63.6597,0.4102,0.5619,0.2236,343.7714
16:15:39:211,-0.1172,2.1679,11.0285,63.6597,0.3308,0.3982,0.2591,343.4145
16:15:39:223,0.3087,1.7611,10.5667,63.6597,0.0889,0.2271,0.253,343.1127
16:15:39:243,0.5168,1.4572,10.5524,63.6597,-0.2055,0.3212,0.2481,342.7853
16:15:39:264,0.5575,1.0313,11.4999,63.6597,-0.4596,0.5643,0.2676,342.367
16:15:39:283,0.5408,0.6915,12.4116,63.6597,-0.4828,0.7818,0.3275,341.8294
16:15:39:307,1.3089,0.859,10.3059,62.7022,0.3259,0.7842,0.5914,341.1453
16:15:39:326,1.8425,1.1198,8.4514,62.7022,0.7107,0.6278,0.6891,339.3688
16:15:39:345,2.321,1.4883,6.7023,63.0995,0.949,0.5594,0.7343,338.4312
16:15:39:365,2.5484,1.8281,5.269,63.3596,1.026,0.5692,0.7172,337.5143
16:15:39:390,2.6297,2.1655,4.3956,63.4471,0.9771,0.5924,0.6378,336.6363
16:15:39:406,2.455,2.3474,4.0152,62.1257,0.8439,0.513,0.5083,335.9348
16:15:39:424,2.2804,2.4909,3.8477,63.0944,0.6961,0.2711,0.358,335.4655
16:15:39:444,2.1751,2.522,3.8979,61.3108,0.5226,-0.1174,0.22,335.2997
16:15:39:462,1.986,2.4598,4.1922,60.7339,0.3198,-0.523,0.0917,335.415
16:15:39:482,1.9358,2.3402,4.7952,60.4107,0.1475,-0.7955,0.0001,335.7314
16:15:39:504,1.7755,2.3545,5.4413,60.0194,0.0596,-0.936,-0.0634,336.1772
16:15:39:524,1.1198,2.5914,6.8172,59.9963,0.0205,-1.107,-0.1624,336.8061
16:15:39:543,0.536,3.1107,6.9057,61.6419,0.0339,-1.3672,-0.2662,337.6714
16:15:39:562,0.7513,3.6443,6.5539,61.8402,-0.015,-1.4418,-0.2711,338.5768
16:15:39:581,1.4979,3.6275,8.2935,61.9135,-0.4975,-1.4368,-0.2443,339.4351
16:15:39:605,1.6439,2.9934,11.9498,59.8554,-1.1365,-1.333,-0.2772,340.2728
16:15:39:623,1.4955,3.0102,14.6584,60.3029,-1.3417,-1.0276,-0.2797,340.9641
16:15:39:643,1.9238,2.9862,14.6393,58.7231,-1.134,-0.782,-0.2455,341.5167
16:15:39:663,2.991,2.4383,14.6656,61.8597,-1.0632,-0.7344,-0.2614,342.0461
16:15:39:682,3.3188,1.2275,16.8479,59.542,-1.3124,-0.6733,-0.3359,342.6171
16:15:39:707,1.9454,0.4738,18.8578,60.4746,-1.3454,-0.209,-0.3848,343.1043
16:15:39:726,0.9141,0.9236,17.3456,60.5061,-0.7394,0.6144,-0.2076,342.8569
16:15:39:744,1.0026,1.6917,13.7946,59.8048,0.0535,1.1434,0.099,342.2639
16:15:39:765,2.5364,2.9934,8.4347,59.8048,0.6729,0.6315,0.3031,341.764
16:15:39:787,2.936,3.283,7.4154,59.3165,0.5006,0.0292,0.1357,341.6247
16:15:39:805,2.9169,3.1872,6.7789,59.4854,0.2123,-0.3349,-0.1196,341.8584
16:15:39:824,2.3282,3.0173,6.6353,61.4986,-0.1017,-0.2371,-0.3591,342.3259
16:15:39:843,1.2538,2.7254,6.9559,60.3664,-0.3815,0.1074,-0.5167,342.8793
16:15:39:862,0.1914,2.5508,7.456,58.5219,-0.5219,0.3994,-0.5521,343.4045
16:15:39:882,-0.4187,2.5555,7.5805,60.6026,-0.4352,0.524,-0.4458,343.7973
16:15:39:901,-0.6485,2.668,7.0086,59.8574,-0.186,0.4592,-0.2675,344.0197
16:15:39:923,-0.4283,2.948,6.3888,59.2434,0.0645,0.3016,-0.0891,344.0948
16:15:39:942,0.0168,3.0341,6.0538,59.6521,0.1964,0.1172,0.0453,344.06
16:15:39:962,0.2465,3.1944,6.073,59.8048,0.2147,-0.0209,0.1064,343.9886
16:15:39:985,0.536,3.1801,6.4056,58.9211,0.1475,-0.1272,0.1332,343.9196
16:15:40:005,0.7202,3.1418,6.9751,59.5792,0.0522,-0.1821,0.1491,343.8405
16:15:40:026,1.1151,3.1298,7.949,58.6872,-0.015,-0.1956,0.1772,343.7411
16:15:40:044,1.6487,3.0461,8.6668,59.0261,0.0168,-0.1797,0.1955,343.6021
16:15:40:062,1.864,3.0676,9.5545,58.6217,0.1219,-0.1369,0.1613,343.4926
16:15:40:085,2.0746,2.8738,10.483,57.8289,0.2599,-0.1968,0.0954,343.4643
16:15:40:103,2.345,2.6106,11.0716,58.4583,0.4469,-0.341,0.049,343.5188
16:15:40:122,2.8714,2.7398,10.9161,59.0997,0.6668,-0.4094,0.0331,343.6021
16:15:40:141,3.4169,3.003,10.3322,58.0937,0.7755,-0.3581,-0.0073,343.7062
16:15:40:162,3.1514,3.5438,9.9828,56.8841,0.6839,-0.132,-0.1196,343.8841
16:15:40:183,2.5364,3.9194,9.3799,56.2458,0.5031,0.3334,-0.2381,344.0284
16:15:40:201,1.7779,3.8285,9.1693,57.7597,0.2392,0.7732,-0.331,344.1284
16:15:40:223,-1.1701,3.7184,10.5236,56.8841,-0.3094,0.9504,-0.502,344.5295
16:15:40:242,-2.3019,3.752,10.7198,57.4705,-0.3253,0.9687,-0.469,344.773
16:15:40:268,-2.5579,3.2853,11.3779,55.795,-0.423,0.6779,-0.3371,344.9715
16:15:40:284,-1.6008,2.1344,13.8664,56.233,-0.715,0.0439,-0.1514,345.1723
16:15:40:302,-0.5527,0.9906,16.2401,57.1588,-0.9068,-0.6122,0.0331,345.343
16:15:40:321,-0.122,0.5168,16.331,57.3333,-0.6014,-0.6586,0.2224,345.3097
16:15:40:341,0.0526,0.8351,14.065,57.194,0.0669,-0.0575,0.5047,344.8018
16:15:40:363,0.1316,1.3185,11.0118,57.1828,0.624,0.5594,0.782,343.832
16:15:40:385,0.4522,1.7659,8.796,57.458,0.839,0.8294,0.9677,342.5776
16:15:40:404,1.0098,2.1512,7.413,58.3823,0.8073,0.8038,1.0703,341.2168
16:15:40:426,1.5601,2.4024,6.731,57.2868,0.6863,0.6083,1.063,339.8986
16:15:40:442,2.0267,2.6345,6.3434,57.0931,0.5874,0.3676,0.9689,338.7618
16:15:40:465,2.144,2.857,6.0945,57.058,0.5458,0.1611,0.8052,337.8747
16:15:40:485,1.9454,2.9384,5.8409,56.0384,0.5226,0.0036,0.6012,337.2606
16:15:40:501,1.6558,3.0173,5.9103,56.2757,0.4798,-0.1125,0.4106,336.8882
16:15:40:520,1.3591,2.9384,6.0538,55.5593,0.4371,-0.2005,0.2615,336.713
16:15:40:541,0.9476,2.9671,6.1352,57.4224,0.4127,-0.2713,0.1418,336.7026
16:15:40:560,0.658,2.9216,6.3338,57.0579,0.3809,-0.3177,0.0807,336.7844
16:15:40:583,0.7681,2.9647,7.0373,56.5844,0.3467,-0.3642,0.0831,336.8794
16:15:40:603,1.2514,2.9216,7.5182,55.1992,0.3711,-0.4265,0.0831,336.9874
16:15:40:623,1.2778,3.1274,7.1378,55.0266,0.4688,-0.4607,0.0001,337.2003
16:15:40:642,1.0768,3.4265,6.9488,54.487,0.4823,-0.4448,-0.1331,337.5631
16:15:40:666,0.9595,3.6132,7.334,57.1272,0.3186,-0.4619,-0.2516,338.0497
16:15:40:686,0.5815,3.6514,8.9659,54.5904,-0.1811,-0.1601,-0.3396,338.5909
16:15:40:703,0.5336,4.1228,9.588,54.3249,-0.3509,0.1257,-0.2785,339.0125
16:15:40:724,1.4955,4.0319,10.6194,56.5528,-0.5378,0.3078,-0.1954,339.3662
16:15:40:748,2.857,3.4457,11.7751,56.5434,-0.7504,0.1978,-0.2174,339.5033
16:15:40:763,3.4361,2.4598,13.4189,54.3465,-1.0229,-0.2444,-0.4129,340.0061
16:15:40:782,2.8642,1.328,15.9529,56.7581,-1.2269,-0.556,-0.6511,340.8534
16:15:40:803,1.596,0.6293,16.6517,54.7092,-1.0021,-0.3898,-0.7085,341.7162
16:15:40:823,0.4283,0.9906,14.8403,56.1938,-0.3656,0.1379,-0.4862,342.2011
16:15:40:844,0.615,1.5936,12.0933,58.2885,0.1976,0.4177,-0.0903,342.1754
16:15:40:867,1.3735,2.1583,10.282,56.8385,0.3907,0.2772,0.2175,341.8746
16:15:40:887,2.01,2.7302,9.1837,55.577,0.3723,0.0512,0.347,341.5046
16:15:40:902,2.1392,3.1394,7.7743,58.0055,0.3345,-0.0111,0.3177,341.1839
16:15:40:922,2.0722,3.4648,6.6425,55.3456,0.244,0.1001,0.2029,340.9527
16:15:40:943,1.8497,3.5151,6.3386,55.81,0.0547,0.243,0.0612,340.8289
16:15:40:965,1.1868,3.4122,6.6688,58.2447,-0.1237,0.3346,-0.1013,340.8366
16:15:40:982,0.5216,3.3308,6.9224,56.7285,-0.1628,0.3358,-0.2088,340.9676
16:15:41:003,0.1938,3.3021,6.5755,55.9847,-0.0602,0.2515,-0.2223,341.1631
16:15:41:021,0.2249,3.4457,5.9964,57.7111,0.0779,0.1501,-0.1819,341.3452
16:15:41:043,0.4857,3.5964,5.6183,58.3489,0.1231,0.0573,-0.1429,341.5086
16:15:41:065,0.6652,3.6921,5.5466,56.9596,0.0608,0.05,-0.1331,341.6705
16:15:41:082,0.6891,3.685,5.9701,56.5306,-0.0699,0.1257,-0.1453,341.8119
16:15:41:103,0.7059,3.5366,6.53,57.1652,-0.2043,0.1856,-0.1673,341.9503
16:15:41:122,0.7657,3.4193,7.4417,58.4717,-0.313,0.1831,-0.171,342.1028
16:15:41:145,0.6485,3.1514,9.1861,58.2259,-0.2532,0.2039,-0.1343,342.2988
16:15:41:166,0.213,3.2997,9.3823,60.7027,-0.043,0.2577,-0.0891,342.3251
16:15:41:182,-0.0168,3.5797,9.21,58.2224,0.1658,0.2332,-0.0011,342.2924
16:15:41:203,0.5886,3.7926,9.2889,59.1887,0.2489,0.0683,0.1271,342.1723
16:15:41:296,1.7707,3.7759,9.5498,62.062,0.1989,-0.1919,0.1943,342.0597
16:15:41:296,2.5627,3.862,10.5811,60.8303,0.0095,-0.4424,0.1516,342.0743
16:15:41:297,2.6345,3.8524,11.8636,59.9136,-0.1713,-0.4399,0.0123,342.238
16:15:41:297,2.0148,3.5677,11.4879,59.9688,-0.1628,-0.1272,-0.1746,342.4861
16:15:41:301,0.6843,3.2877,11.1864,60.1753,-0.1982,0.2247,-0.3066,342.766
16:15:41:321,-0.95,3.3691,11.1482,61.1483,-0.2788,0.5509,-0.3163,342.9823
16:15:41:341,-2.0076,3.8142,10.1264,60.7595,-0.1762,0.9162,-0.2271,342.9847
16:15:41:364,-2.2995,4.0271,9.2698,61.55,-0.1347,0.9711,-0.127,342.8693
16:15:41:381,-1.9956,3.4505,9.8177,62.3646,-0.4462,0.4751,-0.0915,342.8861
16:15:41:401,-1.4524,2.1464,12.7059,62.1065,-0.9862,-0.308,-0.1135,343.17
16:15:41:423,-1.2012,0.9069,15.9386,62.7482,-1.2696,-0.8492,-0.1062,343.5735
16:15:41:442,-1.206,0.3996,16.7067,63.3484,-0.886,-0.7246,0.0306,343.7903
16:15:41:462,-1.2036,0.7489,14.3426,63.3484,-0.1053,-0.2078,0.3043,343.57
16:15:41:483,-0.6652,1.1581,11.5549,62.3619,0.4664,0.1844,0.6048,342.9236
16:15:41:502,0.2082,1.5745,9.679,64.3952,0.6936,0.3004,0.8357,341.9915
16:15:41:520,0.9595,1.9071,8.2169,64.1666,0.767,0.2528,0.9408,340.956
16:15:41:540,1.4094,2.187,6.9392,64.3289,0.8219,0.1697,0.92,339.9593
16:15:41:561,1.6654,2.3713,5.8098,62.8159,0.8427,0.0304,0.826,339.1094
16:15:41:582,1.9645,2.5484,4.2425,63.563,0.712,-0.1992,0.545,338.4323
16:15:41:601,1.718,2.5436,3.8501,65.1594,0.5654,-0.2151,0.3727,337.9143
16:15:41:620,1.3567,2.5675,3.716,63.8068,0.3858,-0.2188,0.2236,337.5403
16:15:41:641,1.0863,2.5292,3.996,65.0949,0.194,-0.2652,0.121,337.5631
16:15:41:665,1.1174,2.522,4.4554,64.0086,0.0107,-0.4057,0.066,337.7005
16:15:41:681,1.2802,2.5819,5.2044,64.798,-0.1664,-0.6061,0.0074,337.9708
16:15:41:702,1.5051,2.5531,6.0227,64.1465,-0.3069,-0.7539,-0.0708,338.3574
16:15:41:721,1.6008,2.7829,6.743,63.4939,-0.3986,-0.8602,-0.171,338.8684
16:15:41:741,1.9334,2.7829,7.6714,66.7608,-0.5501,-0.9909,-0.2882,339.5526
16:15:41:762,2.1727,2.5723,9.0999,66.873,-0.8152,-1.1082,-0.4299,340.4342
16:15:41:783,2.2134,2.1799,10.4471,67.2316,-1.1035,-0.997,-0.5582,341.4062
16:15:41:801,1.4788,2.5747,11.2319,67.1332,-1.2648,-0.4167,-0.6181,342.2552
16:15:41:821,0.95,3.2112,11.4951,69.3747,-1.3539,0.3285,-0.6279,342.9086
16:15:41:845,1.5482,2.8833,13.0193,67.6712,-1.6301,0.6046,-0.6645,343.5443
16:15:41:860,1.9382,1.541,17.6375,67.5613,-2.1126,0.2455,-0.8454,344.4507
16:15:41:880,1.4501,-0.3183,23.141,68.6889,-2.2739,-0.3361,-1.075,345.7429
16:15:41:901,0.0359,-1.0648,24.2489,70.0202,-1.4822,-0.4289,-1.0518,347.0344
16:15:41:923,-0.5695,-0.8925,20.7386,70.0501,-0.109,-0.0001,-0.6315,347.8266
16:15:41:944,0.4498,-0.0957,16.3454,69.5202,1.004,0.403,0.0074,347.8265
16:15:41:961,2.7805,1.1127,12.3446,69.3433,1.6564,0.5753,0.5047,347.2097
16:15:41:982,4.4148,2.1727,8.3031,71.3624,1.9361,0.5631,0.5682,346.4731
16:15:42:001,3.7376,2.6225,5.0943,70.0617,1.7785,0.5338,0.132,346.2053
16:15:42:025,1.5194,2.2732,4.1803,69.4815,1.2153,0.6352,-0.4287,346.5197
16:15:42:044,-0.3159,1.8114,4.8335,68.5606,0.5996,0.8563,-0.6682,347.0481
16:15:42:063,-1.4381,1.8855,5.7858,68.6765,0.3174,0.9577,-0.3053,347.4137
16:15:42:084,-1.2706,1.9908,5.0345,67.9324,0.4725,0.662,-0.0476,347.4016
16:15:42:101,-0.9165,2.1846,4.4267,70.595,0.5336,0.331,0.1711,347.1821
16:15:42:123,-0.5384,2.4622,4.4148,69.599,0.453,0.1098,0.3397,346.8371
16:15:42:142,0.0574,2.723,4.9268,69.3019,0.3174,-0.0343,0.4656,346.4135
16:15:42:163,1.1438,2.8355,5.6758,69.8621,0.1817,-0.2457,0.5401,345.9683
16:15:42:181,2.3761,2.7829,6.5013,69.8491,0.0522,-0.5108,0.5132,345.6146
16:15:42:200,2.9958,2.601,7.2048,70.7472,-0.0504,-0.6366,0.3544,345.467
16:15:42:222,2.7278,2.4933,7.7121,69.5925,-0.1078,-0.4803,0.1345,345.4945
16:15:42:243,2.1033,2.613,8.0016,70.3344,-0.109,-0.1027,-0.0109,345.5665
16:15:42:263,1.6965,2.8092,8.4443,72.8701,-0.0968,0.2955,-0.0366,345.5319
16:15:42:281,1.7515,2.948,9.2985,72.4599,-0.0968,0.4763,-0.017,345.4151
16:15:42:300,1.8831,2.924,10.2437,71.2214,-0.0699,0.3151,-0.0195,345.3447
16:15:42:323,1.8712,3.0197,10.6361,71.0947,0.0596,-0.0087,-0.0598,345.4347
16:15:42:342,1.8855,3.2782,10.3274,70.3937,0.2318,-0.2677,-0.0793,345.6215
16:15:42:361,1.3448,3.8357,9.3583,73.4304,0.299,-0.2701,-0.105,345.8495
16:15:42:381,0.5575,4.465,8.6501,71.1095,0.1781,0.0817,-0.1343,346.006
16:15:42:402,0.2513,4.1372,10.5021,71.8476,-0.3008,0.2491,-0.1563,346.1324
16:15:42:424,-0.079,3.2614,14.4837,71.9788,-0.8653,-0.1174,-0.2027,346.4381
16:15:42:441,-0.5934,2.5627,16.252,70.876,-0.8616,-0.5389,-0.2662,346.9354
16:15:42:462,-1.0026,2.4622,15.2184,71.217,-0.3876,-0.6659,-0.2467,347.4477
16:15:42:481,-0.8255,2.3857,14.2469,73.3301,-0.0895,-0.5658,-0.1184,347.8137
16:15:42:505,-0.2441,1.9214,14.0746,72.8073,-0.0577,0.0707,0.1235,347.7936
16:15:42:527,-0.4498,1.9478,12.6891,73.6133,0.139,0.392,0.198,347.5176
16:15:42:541,-0.3972,2.0459,10.6265,71.8503,0.3797,0.5057,0.3018,347.1027
16:15:42:562,0.122,2.1966,8.8965,71.9471,0.5189,0.4299,0.4326,346.5633
16:15:42:581,0.7131,2.2732,7.4704,72.5073,0.5654,0.3016,0.5242,345.9535
16:15:42:601,1.151,2.3019,6.3027,71.5273,0.5751,0.2308,0.5523,345.3328
16:15:42:622,1.3926,2.4622,5.3743,71.5004,0.5544,0.1917,0.5327,344.7334
16:15:42:639,1.5027,2.5196,4.7976,71.7133,0.4896,0.1477,0.4814,344.1946
16:15:42:660,1.6822,2.5412,4.4889,70.3837,0.3992,0.0891,0.4155,343.7464
16:15:42:680,1.6558,2.6273,4.4339,70.4727,0.2941,0.0097,0.3202,343.422
16:15:42:700,1.3687,2.7398,4.5081,70.8937,0.1903,-0.0759,0.1955,343.2618
16:15:42:723,1.1892,2.68,4.8766,71.8499,0.0828,-0.1858,0.088,343.2664
16:15:42:744,1.2682,2.5101,5.7093,73.019,-0.0357,-0.3874,0.0074,343.4148
16:15:42:764,1.541,2.3426,6.9966,71.0858,-0.1335,-0.6415,-0.0561,343.7251
16:15:42:781,1.8544,2.2564,8.0447,72.2079,-0.1298,-0.8333,-0.127,344.1761
16:15:42:804,1.5123,2.4885,7.9322,69.1572,-0.0186,-0.8419,-0.2443,344.7507
16:15:42:825,0.7298,2.9958,7.4273,69.5131,0.051,-0.6525,-0.3701,345.4264
16:15:42:845,0.457,3.1777,7.9872,70.1306,-0.1176,-0.5132,-0.4324,346.1056
16:15:42:861,0.6365,2.948,9.8154,71.8762,-0.4596,-0.4839,-0.4263,346.7636
16:15:42:880,0.5192,3.3284,10.9543,70.9386,-0.6808,-0.3752,-0.3982,347.3733
16:15:42:900,0.859,3.728,10.8802,69.7551,-0.7797,-0.0771,-0.3579,347.8271
16:15:42:926,1.7037,3.5533,11.8158,71.3799,-1.112,0.0854,-0.3848,348.2318
16:15:42:942,2.1081,2.1129,16.3765,70.3365,-1.7388,-0.1846,-0.5692,348.9089
16:15:42:964,0.3876,-0.0263,22.1599,70.5248,-1.2037,-0.6403,-0.6987,350.845
16:15:42:980,-0.2058,0.6174,17.6901,70.5374,0.1671,-0.0172,-0.2968,351.221
16:15:43:000,0.6078,1.3591,12.9332,71.6702,1.1127,0.5081,0.231,350.8869
16:15:43:022,1.8879,2.1703,10.2173,71.3684,1.3705,0.634,0.6109,350.0666
16:15:43:043,2.814,2.7494,8.5926,70.4511,1.3021,0.4483,0.7075,349.1817
16:15:43:060,3.015,2.8259,7.279,69.4342,1.1054,0.1074,0.5425,348.557
16:15:43:080,2.6488,2.6393,6.5157,68.4213,0.8476,-0.0783,0.3018,348.2497
16:15:43:103,2.0913,2.5555,5.8792,68.4213,0.6387,0.0707,0.1235,348.0962
16:15:43:122,1.34,2.5364,5.1709,67.4946,0.5128,0.4067,0.0172,347.9528
16:15:43:142,0.6317,2.6608,4.7186,68.5226,0.4175,0.6657,-0.0231,347.766
16:15:43:161,0.3637,2.7039,4.398,66.8346,0.3161,0.6608,-0.0048,347.552
16:15:43:180,0.3541,2.7254,4.4578,68.1931,0.1866,0.4483,0.0355,347.3607
16:15:43:200,0.4953,2.6895,4.9579,67.9818,0.0461,0.1734,0.0709,347.2525
16:15:43:220,0.7489,2.6369,5.4532,66.2749,-0.0614,-0.0539,0.0954,347.189
16:15:43:241,1.1462,2.7206,5.7906,66.7802,-0.1188,-0.1467,0.1149,347.1188
16:15:43:262,1.596,2.7709,6.195,68.6133,-0.1921,-0.1382,0.1161,347.0439
16:15:43:280,2.0291,2.7422,7.3436,67.0669,-0.3204,-0.1125,0.0783,346.9909
16:15:43:373,2.2205,2.5866,9.1238,68.6133,-0.3925,-0.0783,0.005,346.9966
16:15:43:374,1.9908,2.5268,10.1551,68.5663,-0.2703,-0.0429,-0.0842,347.0837
16:15:43:375,1.5601,2.8044,9.8919,67.6487,0.0278,0.0158,-0.1319,347.2166
16:15:43:375,1.5147,3.0221,9.8656,65.5302,0.2331,0.05,-0.1135,347.3165
16:15:43:380,1.7731,2.9408,11.2702,67.2332,0.2587,-0.0148,-0.0671,347.381
16:15:43:402,2.199,2.9671,12.5145,65.881,0.3393,-0.2322,-0.0268,347.4597
16:15:43:425,2.3306,4.4195,9.6718,65.3008,0.8439,-0.264,0.0331,347.6445
16:15:43:446,2.2277,4.8359,8.741,66.5641,0.7364,0.1758,0.0196,347.5475
16:15:43:461,1.8568,4.678,10.459,66.5641,0.2331,0.2528,-0.0671,347.5006
16:15:43:479,0.9523,4.3549,12.2489,64.9105,-0.1017,0.0536,-0.2064,347.6936
16:15:43:502,-0.3781,4.6469,11.0883,65.9811,0.0718,0.1233,-0.3176,348.0126
16:15:43:524,-1.1486,5.1541,8.9922,64.799,0.3149,0.4959,-0.2956,348.1675
16:15:43:541,-1.2156,5.1661,8.339,64.2035,0.0999,0.6853,-0.2186,348.1542
16:15:43:561,-0.8806,4.5248,9.6215,66.6533,-0.434,0.5423,-0.1868,348.1555
16:15:43:580,-0.682,3.5151,12.1077,64.9927,-0.8946,0.1795,-0.2174,348.3141
16:15:43:600,-0.8064,2.6082,13.6534,63.3418,-0.9337,-0.0905,-0.2479,348.6246
16:15:43:621,-1.2849,2.333,12.3924,64.2909,-0.5049,-0.0148,-0.1734,348.845
16:15:43:640,-1.0768,2.3665,10.325,64.4926,-0.0699,0.2662,0.066,348.7076
16:15:43:660,-0.4738,2.2851,9.466,66.0819,0.0779,0.4788,0.3202,348.2252
16:15:43:679,0.1579,2.1966,9.1047,62.9316,0.1426,0.5558,0.4924,347.5223
16:15:43:700,0.4977,2.1703,8.3103,63.7688,0.3149,0.4825,0.5706,346.7441
16:15:43:720,0.5312,2.1918,7.133,64.2555,0.5446,0.3212,0.5926,346
16:15:43:741,0.6006,2.2445,6.1256,63.1322,0.7095,0.155,0.6207,345.2895
16:15:43:759,0.8519,2.3593,5.2498,62.9399,0.7706,-0.0123,0.6696,344.6035
16:15:43:783,1.2179,2.3904,4.5296,62.7897,0.7449,-0.104,0.6977,343.9122
16:15:43:800,1.5003,2.5771,4.1659,61.968,0.6301,-0.1027,0.6806,343.2445
16:15:43:820,1.4788,2.8331,4.13,61.6135,0.4627,-0.0734,0.6012,342.6341
16:15:43:841,1.2682,3.2016,4.1492,63.2252,0.2831,-0.0636,0.4814,342.1737
16:15:43:860,1.1222,3.6132,4.3023,62.4017,0.0865,-0.1162,0.3544,341.8711
16:15:43:885,1.4644,4.0487,5.4915,62.4621,-0.5537,-0.512,0.0941,341.9091
16:15:43:904,2.1727,3.4481,7.6738,62.7314,-1.0595,-0.7747,-0.0573,342.2848
16:15:43:921,2.1392,2.7733,10.9974,62.0732,-1.5054,-0.8553,-0.243,342.8539
16:15:43:939,1.2586,2.7494,13.1246,62.1164,-1.5739,-0.6293,-0.3725,343.4702
16:15:43:960,1.2227,2.8618,13.931,61.6308,-1.3136,-0.2457,-0.3212,343.8977
16:15:43:983,2.2325,2.9575,15.0245,63.3756,-1.1108,-0.1883,-0.1991,344.1604
16:15:44:002,3.8644,2.4191,16.5799,62.9428,-1.018,-0.5413,-0.1795,344.4704
16:15:44:022,4.6421,1.7276,17.7739,61.3856,-0.8604,-0.9042,-0.3212,345.0144
16:15:44:046,4.2449,1.2323,17.1948,61.018,-0.4706,-0.8052,-0.5057,345.7272
16:15:44:059,3.5749,1.3232,14.7709,59.7809,0.0816,-0.3263,-0.5668,346.383
16:15:44:079,3.338,1.529,12.0431,61.6632,0.464,0.0781,-0.5204,346.8822
16:15:44:101,3.3691,1.7444,10.1384,62.2411,0.5348,0.2247,-0.4874,347.2946
16:15:44:120,3.2997,1.9358,9.0449,56.7443,0.3968,0.2088,-0.5167,347.747
16:15:44:138,2.936,2.1559,8.2409,60.7455,0.2172,0.2014,-0.5949,348.2788
16:15:44:159,2.3737,2.2971,7.6259,60.7185,0.0791,0.2564,-0.6902,348.9062
16:15:44:180,1.5912,2.3282,7.1258,60.1651,0.0022,0.3273,-0.772,349.6151
16:15:44:203,0.7346,2.4646,6.5874,60.4063,-0.0101,0.3554,-0.8001,350.3546
16:15:44:224,0.1412,2.5938,5.9964,61.6382,0.0364,0.3236,-0.7598,351.0799
16:15:44:240,-0.2201,2.7685,5.3288,58.5818,0.0999,0.2124,-0.6877,351.7657
16:15:44:258,-0.4857,2.9312,4.8646,59.7613,0.1133,0.0317,-0.6181,352.4329
16:15:44:281,-0.6413,2.9599,4.7593,59.7814,0.0522,-0.1736,-0.5472,353.1012
16:15:44:300,-0.6054,2.9025,5.2116,60.0581,-0.0724,-0.3361,-0.4605,353.7258
16:15:44:320,-0.4235,2.8881,6.1496,59.1442,-0.1786,-0.3837,-0.353,354.2546
16:15:44:339,-0.0024,3.0628,6.7478,60.689,-0.175,-0.352,-0.2467,354.6444
16:15:44:361,0.5862,3.4505,7.5613,58.818,-0.1347,-0.2469,-0.177,355.2445
16:15:44:384,0.5288,3.4337,8.3031,58.1996,-0.1664,-0.1589,-0.2101,355.5279
16:15:44:401,0.0431,3.6873,8.6261,60.0536,-0.1115,-0.0087,-0.2516,355.8145
16:15:44:421,-0.5504,3.9027,8.5831,59.1388,-0.0321,0.1318,-0.243,356.0648
16:15:44:439,-0.6628,4.0774,8.8678,58.8694,-0.0174,0.2259,-0.1661,356.2051
16:15:44:459,-0.0766,3.8285,9.9565,60.4284,-0.0944,0.1599,-0.0634,356.2536
16:15:44:482,0.5671,3.4529,11.7966,60.4284,-0.2239,-0.1394,-0.0073,356.3335
16:15:44:501,0.4714,3.3978,13.5912,61.3191,-0.2275,-0.2383,0.0282,356.4095
16:15:44:522,-0.1101,3.5294,12.6054,60.401,0.1097,0.2625,0.0929,356.2643
16:15:44:540,-1.2491,4.1492,10.8826,61.3049,0.3748,0.8319,0.1577,355.9039
16:15:44:559,-2.3833,4.7832,10.5787,63.1512,0.277,1.075,0.2175,355.4135
16:15:44:580,-2.3043,4.654,11.3851,61.5996,-0.1029,0.7573,0.3165,354.928
16:15:44:600,-0.8183,3.271,14.8068,63.4447,-0.682,0.0121,0.3983,354.5494
16:15:44:637,0.4164,1.1151,18.3841,60.6989,-1.0241,-0.5975,0.369,354.3468
16:15:44:639,0.5121,0.2225,18.3984,60.0862,-0.7162,-0.5157,0.3385,354.1459
16:15:44:658,0.4618,0.146,16.2473,61.6492,-0.2067,0.1111,0.4863,353.6094
16:15:44:679,0.5336,0.5121,14.254,63.54,0.128,0.8844,0.7233,352.6044
16:15:44:699,0.8016,1.1773,11.7153,61.9691,0.398,1.3426,0.9188,351.2715
16:15:44:720,1.0409,1.7994,9.4062,62.1394,0.6289,1.356,0.9897,349.8497
16:15:44:739,1.1725,2.1823,7.6379,63.0266,0.7584,1.0774,0.9933,348.4828
16:15:44:760,1.3208,2.2349,6.6664,62.6917,0.7865,0.7683,0.9933,347.1825
16:15:44:782,1.7539,2.2469,6.25,64.0503,0.7743,0.5716,1.041,345.8905
16:15:44:802,2.5795,2.3474,5.7978,62.4965,0.8745,0.2625,1.0556,344.5661
16:15:44:821,2.5364,2.4,5.3432,63.9367,0.9478,-0.0453,0.9164,343.3193
16:15:44:839,2.412,2.4503,4.8311,63.5782,0.9869,-0.3507,0.749,341.7105
16:15:44:858,2.522,2.601,4.4746,60.8819,0.9404,-0.5218,0.6085,341.2652
16:15:44:884,2.6871,2.735,4.5224,60.0046,0.8011,-0.5389,0.4692,340.9628
16:15:44:901,2.7446,2.8259,4.8766,61.4182,0.6191,-0.5364,0.2945,340.8542
16:15:44:919,2.7781,3.0006,4.9053,62.1309,0.4383,-0.6586,0.0795,341.0578
16:15:44:938,3.1083,3.1226,5.1661,62.7828,0.1463,-0.9433,-0.1563,341.617
16:15:44:959,3.6132,2.8666,6.2333,63.2575,-0.3472,-1.245,-0.4165,342.575
16:15:44:983,3.6586,2.2253,8.351,62.6288,-0.9227,-1.2793,-0.678,343.7815
16:15:44:999,2.2732,1.9908,10.5021,62.1982,-1.2049,-0.7417,-0.8563,344.9857
16:15:45:019,1.2754,2.4479,10.8395,62.8706,-1.0412,-0.0331,-0.8319,345.8755
16:15:45:039,2.3426,2.2181,10.0451,61.7604,-0.8445,0.0048,-0.7,346.6102
16:15:45:059,3.6658,1.541,11.0716,63.6606,-0.9996,-0.5132,-0.7317,347.5175
16:15:45:080,3.3452,0.9141,12.749,62.25,-1.2208,-0.7673,-0.9504,348.7595
16:15:45:099,1.943,0.6508,13.7898,64.31,-1.2098,-0.5853,-1.1251,350.1613
16:15:45:120,0.993,0.6485,14.5531,63.4807,-1.0094,-0.297,-1.0567,351.4184
16:15:45:142,1.4261,0.6748,14.2349,64.8616,-0.6844,-0.2322,-0.7928,352.3718
16:15:45:163,2.4694,0.9571,13.1821,65.4285,-0.379,-0.3898,-0.5521,353.0664
16:15:45:178,2.8762,1.5123,11.7464,62.0831,-0.1872,-0.4033,-0.4556,353.6652
16:15:45:206,2.7398,2.077,10.2485,63.7034,-0.1188,-0.2274,-0.48,354.2598
16:15:45:219,2.0985,2.5699,8.9827,60.4619,-0.1359,0.0402,-0.5558,354.8642
16:15:45:241,1.3759,2.8163,8.1499,62.1592,-0.2092,0.2699,-0.6193,355.4652
16:15:45:268,0.0263,2.9527,7.0732,62.3525,-0.219,0.4837,-0.6572,356.0948
16:15:45:292,-0.3159,3.0867,6.3864,62.6107,-0.1225,0.4202,-0.6303,357.3271
16:15:45:304,-0.5145,3.1633,5.6112,63.0484,-0.0345,0.2662,-0.6059,357.9615
16:15:45:328,-0.8782,3.2016,5.2116,62.8763,-0.0113,0.1269,-0.5986,358.6356
16:15:45:338,-1.1749,3.1896,5.4389,63.9841,-0.0699,0.0011,-0.5692,359.3109
16:15:45:365,-1.4572,3.0939,6.4869,62.6983,-0.1689,-0.1333,-0.5069,359.9753
16:15:45:429,-1.4788,3.0078,7.6642,63.4184,-0.1958,-0.2322,-0.3958,0.5461
16:15:45:429,-1.2849,3.0245,8.0997,62.3018,-0.1066,-0.2603,-0.232,0.9466
16:15:45:430,-0.6293,2.9815,8.8176,63.6568,-0.0284,-0.2383,-0.0573,1.1316
16:15:45:437,-0.0479,2.79,10.1456,60.8637,-0.0101,-0.2359,0.0538,1.1867
16:15:45:458,-0.1938,2.7326,11.33,62.3752,0.095,-0.2493,0.0746,1.2205
16:15:45:478,-0.6987,3.0891,10.9759,61.4145,0.3503,-0.1724,0.1015,1.2437
16:15:45:500,-0.3948,3.4433,9.9278,62.6143,0.5189,-0.0441,0.2139,1.0992
16:15:45:526,0.6724,3.6634,10.6505,61.1868,0.3125,0.0011,0.3324,0.7844
16:15:45:538,1.2371,3.5844,12.6508,63.3599,-0.098,0.0939,0.3336,0.4237
16:15:45:559,0.993,2.7924,13.8616,61.8759,-0.3057,0.4018,0.2236,0.115
16:15:45:580,-0.7155,2.2373,14.6919,62.1608,-0.3082,0.6217,0.1259,359.8911
16:15:45:600,-2.6871,2.2947,14.1248,63.0853,-0.0321,0.7915,0.1919,359.5963
16:15:45:620,-3.1777,2.7972,11.7607,62.6609,0.4249,0.8258,0.4631,359.0162
16:15:45:641,-2.4383,2.9121,9.8967,63.2373,0.5385,0.4324,0.7441,358.2032
16:15:45:661,-1.2012,2.053,10.191,62.4869,0.1451,-0.0612,0.8931,357.3429
16:15:45:679,-0.591,1.0241,12.3398,63.8956,-0.3607,-0.121,0.942,356.4403
16:15:45:702,-1.0385,0.4307,12.189,61.0325,-0.1469,0.6779,1.1241,355.3704
16:15:45:720,-0.4666,0.6102,9.7603,64.4776,0.2538,0.8319,1.3171,352.4543
16:15:45:741,0.7226,0.8542,8.2146,63.5498,0.3797,0.6425,1.4515,350.7634
16:15:45:762,1.5194,0.9212,7.8221,63.3402,0.2538,0.3285,1.4063,349.1743
16:15:45:781,1.6008,0.9978,8.0351,62.2208,0.1011,0.2027,1.2511,347.7778
16:15:45:800,1.4142,1.1031,8.1356,61.8225,0.0938,0.3004,1.1216,346.4949
16:15:45:819,1.4596,1.3208,7.8197,64.0145,0.2318,0.4214,1.063,345.2584
16:15:45:840,1.7874,1.6056,7.1737,61.8678,0.42,0.4128,1.0239,344.0547
16:15:45:859,2.1631,1.8879,6.609,62.1513,0.5605,0.2687,0.9286,342.9811
16:15:45:883,2.1559,2.077,6.5324,63.6786,0.5922,0.0756,0.7539,342.1576
16:15:45:898,1.6439,2.0937,7.0373,63.7657,0.5788,-0.0575,0.5584,341.6017
16:15:45:919,1.1892,2.0219,8.1332,61.8411,0.6167,-0.1101,0.435,341.185
16:15:45:937,0.8829,1.9645,8.9874,61.2324,0.7914,-0.1956,0.3739,340.8695
16:15:45:958,0.5504,2.1607,9.0999,62.7288,1.0553,-0.4216,0.3324,340.7101
16:15:45:979,0.2656,2.6967,8.4227,60.4276,1.2642,-0.6977,0.2994,340.7065
16:15:45:998,0.6174,3.2901,7.4967,58.5758,1.2373,-0.8663,0.3165,340.7745
16:15:46:018,1.2897,3.8477,7.5087,58.8809,0.9026,-0.782,0.3544,340.7963
16:15:46:038,1.2443,4.5583,8.2505,59.0095,0.3968,-0.3947,0.3214,340.6849
16:15:46:058,1.7946,4.5679,9.1334,60.2051,-0.0614,0.0952,0.2676,340.4173
16:15:46:080,2.9384,3.8429,10.4255,56.9101,-0.5708,0.0597,0.1467,340.2213
16:15:46:100,3.0461,2.6225,13.1581,59.1364,-1.1072,-0.3177,-0.1038,340.4352
16:15:46:118,2.2373,1.7204,14.9312,57.8908,-1.2171,-0.3312,-0.3102,340.8799
16:15:46:137,0.7968,1.6176,14.6417,57.2561,-0.8518,-0.0221,-0.3151,341.2463
16:15:46:163,0.3852,1.8975,11.5286,59.3508,-0.0712,0.502,0.2701,341.2532
16:15:46:179,1.3567,2.3163,9.9111,59.8972,0.0388,0.4483,0.5621,340.0865
16:15:46:198,2.1392,2.6752,9.1047,59.8972,-0.0406,0.2955,0.6842,339.2635
16:15:46:217,2.1248,2.8427,8.1021,58.6172,-0.1273,0.2735,0.6195,338.523
16:15:46:238,1.34,3.0413,7.0588,57.3796,-0.1628,0.4617,0.4912,337.8736
16:15:46:258,0.5073,3.1059,6.2285,58.7281,-0.1933,0.7244,0.4216,337.242
16:15:46:279,-0.0909,3.1657,5.6088,57.2055,-0.2165,0.8636,0.4216,336.5954
16:15:46:301,-0.4546,3.2495,5.269,59.4252,-0.2373,0.794,0.4594,335.9368
16:15:46:317,-0.5767,3.2973,5.2618,57.4774,-0.2654,0.5118,0.5156,335.3017
16:15:46:340,-0.4116,3.137,5.5107,58.5168,-0.3057,0.1049,0.5657,334.7494
16:15:46:360,-0.1196,3.0197,5.9892,58.3892,-0.3289,-0.1992,0.6024,334.2489
16:15:46:379,0.067,2.9193,7.0612,57.5161,-0.3228,-0.2909,0.6354,333.7275
16:15:46:399,0.2201,2.8953,8.1308,55.5062,-0.269,-0.2432,0.6635,333.1591
16:15:46:419,0.3541,2.9671,9.6048,57.5161,-0.153,-0.0856,0.7087,332.4862
16:15:46:443,0.3805,2.9671,10.5045,56.228,0.0058,0.039,0.7661,331.7198
16:15:46:458,0.6293,3.058,11.007,56.228,0.2294,0.1343,0.8479,330.8257
16:15:46:481,0.9021,3.082,11.3109,56.0068,0.4652,0.1917,0.9029,329.8501
16:15:46:498,0.7825,3.3308,10.6983,54.9747,0.7193,0.1917,0.9054,328.8808
16:15:46:517,0.9404,3.6514,10.0283,55.5349,0.8574,0.0988,0.8931,327.9475
16:15:46:542,1.8161,3.6826,10.4375,54.7523,0.7352,-0.165,0.8553,327.1182
16:15:46:560,2.589,3.4529,11.4305,54.0454,0.4725,-0.4925,0.7392,326.5138
16:15:46:579,3.0197,3.2495,11.8493,55.4042,0.2917,-0.5083,0.5682,326.0881
16:15:46:599,2.8451,3.0796,11.2702,53.3779,0.2404,-0.0587,0.38,325.687
16:15:46:624,-0.2608,2.8235,10.4136,52.7306,-0.065,0.9333,0.0367,325.0163
16:15:46:642,-2.1799,3.3165,8.5591,54.9135,-0.0382,1.5392,0.0477,324.5679
16:15:46:659,-3.2255,3.6873,7.4465,55.2272,-0.1469,2.0047,0.2151,323.8204
16:15:46:681,-3.338,3.3404,8.3127,54.711,-0.5745,1.929,0.391,322.9118
16:15:46:698,-3.259,2.0506,10.9831,55.7705,-1.1047,1.2912,0.4668,322.1055
16:15:46:718,-3.283,0.9619,13.5386,52.8786,-1.3271,0.5643,0.5376,321.4516
16:15:46:754,-3.0987,0.4905,13.5123,53.0705,-1.0204,0.155,0.7368,320.6745
16:15:46:757,-2.4718,0.4618,10.9831,52.8277,-0.5049,0.1624,1.0385,319.5764
16:15:46:777,-1.2849,0.6652,8.8271,53.8655,-0.269,0.4324,1.3476,318.0656
16:15:46:797,-0.1268,0.7992,7.9753,53.7847,-0.3607,0.7182,1.526,316.2811
16:15:46:817,0.7155,0.8734,8.8774,53.0507,-0.5378,0.7854,1.5065,314.4794
16:15:46:837,0.8901,0.8782,9.8632,53.2796,-0.5146,0.5435,1.3366,312.9059
16:15:46:857,0.6269,1.0576,9.2315,50.4123,-0.1676,0.1905,1.1522,311.6317
16:15:46:878,0.5623,1.3472,7.3603,51.8185,0.2514,-0.049,1.0556,310.5056
16:15:46:898,0.95,1.6152,6.2309,51.4526,0.4187,-0.0783,1.0104,309.4544
16:15:46:918,1.3113,1.6726,7.1545,51.3731,0.3418,-0.0111,0.9213,308.4708
16:15:46:939,1.1916,1.5577,8.5041,50.6443,0.3015,-0.0526,0.7466,307.6796
16:15:46:961,0.9212,1.6271,8.6883,49.9203,0.4994,-0.2225,0.5804,307.1104
16:15:46:978,0.9643,1.876,8.0758,47.5299,0.7694,-0.402,0.4704,306.7141
16:15:46:998,1.5003,2.1392,7.3747,48.5044,0.8671,-0.4631,0.3886,306.3983
16:15:47:020,1.6367,2.5938,7.7264,49.0895,0.7413,-0.4094,0.2249,306.2816
16:15:47:049,1.3735,2.6249,8.6596,48.7293,0.4566,-0.4045,-0.0219,306.4394
16:15:47:058,1.1342,2.6369,9.7197,48.2909,0.1536,-0.4167,-0.2223,306.799
16:15:47:080,1.3902,3.1466,13.005,47.1063,-0.379,0.0353,-0.3078,307.2273
16:15:47:104,2.0985,3.2662,14.3713,46.7789,-0.4267,0.364,-0.2931,307.6913
16:15:47:121,2.5053,3.2064,14.9815,47.8917,-0.3399,0.458,-0.3689,307.9034
16:15:47:140,2.0339,3.0221,14.8905,47.2704,-0.2397,0.32,-0.568,308.3777
16:15:47:158,1.6128,2.4957,13.8377,45.9746,-0.1432,0.1807,-0.7549,309.0904
16:15:47:179,1.742,1.6032,13.6247,46.8354,-0.2458,0.0341,-0.8295,309.9012
16:15:47:199,1.7492,0.7585,14.1966,47.2347,-0.4438,-0.1015,-0.8209,310.7037
16:15:47:222,1.5338,0.4259,13.4046,46.3291,-0.4389,-0.1907,-0.7561,311.4608
16:15:47:238,1.5649,0.8112,11.5382,44.9555,-0.1603,0.0158,-0.5827,312.0051
16:15:47:258,1.6152,1.4692,9.9709,43.8887,0.1708,0.3126,-0.4165,312.314
16:15:47:278,1.6822,1.9549,8.3988,43.1015,0.4187,0.4043,-0.3615,312.5503
16:15:47:297,1.8138,2.4909,6.4965,44.5307,0.5935,0.3884,-0.3835,312.84
16:15:47:322,1.541,2.6584,5.2068,45.0785,0.5458,0.3285,-0.5057,313.2831
16:15:47:341,0.5599,2.6895,5.1781,44.3978,0.3064,0.3016,-0.6853,313.9433
16:15:47:358,-0.2441,2.6632,5.5992,43.3556,0.1292,0.3676,-0.7696,314.6997
16:15:47:377,-0.5264,2.7996,5.4485,43.0298,0.1463,0.4434,-0.7378,315.3833
16:15:47:397,-0.3087,3.0867,4.7139,43.1769,0.2257,0.3994,-0.6902,316.019
16:15:47:422,-0.4164,3.3141,4.8335,42.7416,0.1671,0.2039,-0.7085,316.7501
16:15:47:495,-0.5743,3.2495,5.7188,43.2822,0.0241,-0.0184,-0.7464,317.5703
16:15:47:496,-0.9978,3.3332,6.5204,43.452,-0.0076,-0.0869,-0.7561,318.4391
16:15:47:497,-1.0648,3.5127,6.6927,40.5163,0.1035,0.0036,-0.7024,319.2157
16:15:47:497,-0.5599,3.527,6.5372,41.5198,0.2233,0.0805,-0.5998,319.8585
16:15:47:520,0.0479,3.2877,7.212,41.2468,0.1915,-0.005,-0.5448,320.4135
16:15:47:537,0.1986,2.7924,8.796,40.091,0.0461,-0.2518,-0.6034,321.0873
16:15:47:561,-0.8423,2.3282,10.6959,40.1367,0.062,-0.5328,-0.7281,321.9218
16:15:47:577,-1.1198,2.3833,10.9376,40.0507,0.1573,-0.3972,-0.6218,323.5525
16:15:47:597,-0.9882,2.5842,11.2008,38.7278,0.1243,-0.264,-0.4434,324.0542
16:15:47:623,-0.2441,1.9717,12,37.6601,-0.0638,-0.2102,-0.3163,324.3703
16:15:47:643,-0.0407,1.0528,14.5101,38.1044,-0.4132,-0.5279,-0.3151,324.7101
16:15:47:658,-0.9571,0.603,16.7856,37.6599,-0.5317,-0.9164,-0.3481,325.2409
16:15:47:679,-1.9501,0.8877,15.7807,36.7746,-0.0137,-0.8052,-0.2504,325.6711
16:15:47:702,-2.0172,1.4285,12.8112,36.7893,0.5861,-0.578,-0.0585,325.8669
16:15:47:720,-1.0337,1.6223,11.2008,36.0532,0.5837,-0.578,0.1125,325.8698
16:15:47:742,-0.0144,1.4453,11.8445,36.9463,0.1255,-0.5193,0.176,325.7634
16:15:47:763,-0.0885,1.34,13.0122,37.2619,-0.219,-0.3214,0.1161,325.6515
16:15:47:777,-0.3757,1.4405,12.6126,35.459,-0.1298,-0.0905,0.0734,325.535
16:15:47:797,-0.3159,1.8161,10.55,36.384,0.2135,-0.0025,0.0954,325.3551
16:15:47:822,0.0287,2.1655,8.4802,36.9911,0.4493,-0.1064,0.1222,325.2322
16:15:47:844,0.4259,2.3258,6.9559,34.5851,0.4627,-0.2396,0.1357,325.1285
16:15:47:872,0.8207,2.3857,6.1902,34.99,0.3503,-0.2359,0.143,325.0306
16:15:47:876,1.1581,2.4383,5.7739,36.1719,0.2379,-0.0978,0.1454,324.8665
16:15:47:900,1.4644,2.4837,5.8528,36.6052,0.1817,0.0646,0.1174,324.6738
16:15:47:918,1.5936,2.4096,5.8959,35.7904,0.2367,0.1599,0.0392,324.5346
16:15:47:940,1.3687,2.5651,5.0943,34.5991,0.4505,0.21,-0.0683,324.4868
16:15:47:957,0.993,2.747,3.6921,34.1978,0.6338,0.2234,-0.1697,324.5482
16:15:47:979,0.7609,2.9288,3.1872,37.1657,0.5739,0.1929,-0.2308,324.7112
16:15:48:000,1.1653,2.8451,4.3358,34.5913,0.0718,-0.0954,-0.3102,324.9369
16:15:48:020,1.194,2.7709,5.0632,33.4505,-0.1567,-0.2823,-0.4129,325.7762
16:15:48:040,0.7681,2.7278,6.3194,33.9725,-0.3851,-0.3886,-0.5411,326.4291
16:15:48:058,0.2153,2.7565,7.5446,34.1056,-0.5537,-0.3837,-0.6254,327.1637
16:15:48:078,-0.0072,2.6488,8.3557,34.5327,-0.6881,-0.4216,-0.6352,327.9095
16:15:48:104,0.615,2.077,9.4182,35.0947,-0.9324,-0.6305,-0.5533,328.641
16:15:48:124,1.3041,1.3735,11.8756,35.0906,-1.2513,-0.8956,-0.4263,329.2823
16:15:48:138,2.266,1.0672,14.4742,35.4038,-1.2562,-1.019,-0.276,329.7278
16:15:48:157,3.3858,1.6845,14.8881,32.96,-0.7321,-1.0532,-0.149,330.0315
16:15:48:177,5.7284,1.7515,12.9906,33.4432,-0.2776,-1.5199,-0.1538,330.3907
16:15:48:201,8.3246,0.6604,12.2704,33.802,-0.5549,-2.0941,-0.3163,330.9896
16:15:48:222,8.6979,-1.8161,15.5533,33.9272,-1.4957,-1.9084,-0.634,331.8089
16:15:48:238,6.1256,-2.5627,19.3938,34.6697,-2.0308,-0.7197,-0.8808,332.7141
16:15:48:262,3.1107,-1.6702,19.5159,34.0946,-1.5555,0.5423,-0.9028,333.5448
16:15:48:277,1.5721,-1.017,16.4722,36.4448,-0.583,0.7867,-0.7586,334.2227
16:15:48:298,1.6223,0.0718,12.2273,35.736,0.3577,0.2467,-0.5363,334.7347
16:15:48:321,2.0291,1.3615,7.9657,35.6492,0.96,-0.4289,-0.408,335.2072
16:15:48:341,2.3426,2.1655,4.8598,34.4297,1.0284,-0.7661,-0.4434,335.7874
16:15:48:360,2.3928,2.5053,3.6538,35.1975,0.6497,-0.6806,-0.5766,336.5193
16:15:48:377,2.1703,2.5101,4.0989,35.6803,0.1158,-0.3471,-0.7623,337.4091
16:15:48:397,1.6104,2.2756,5.1063,36.5082,-0.2471,-0.0184,-0.9675,338.4681
16:15:48:417,0.7035,2.1368,5.7691,35.4146,-0.3143,0.1465,-1.163,339.7319
16:15:48:439,-0.3446,2.2851,5.9318,34.2347,-0.1603,0.1123,-1.2901,341.1762
16:15:48:465,-0.4379,2.6034,5.4843,34.6741,0.1683,-0.3898,-1.1752,344.1207
16:15:48:479,0.1555,2.7326,6.0299,33.8881,0.1341,-0.6134,-1.0872,345.4762
16:15:48:497,0.4666,2.6871,6.6042,35.0453,0.0119,-0.6464,-1.0836,346.844
16:15:48:517,0.548,2.6106,7.4776,34.6869,-0.1505,-0.4289,-1.1105,348.1709
16:15:48:536,0.3829,2.5747,8.4419,35.5219,-0.3045,-0.0697,-1.1202,349.4431
16:15:48:556,-0.0072,2.4909,9.679,35.2347,-0.4193,0.1868,-1.1166,350.6735
16:15:48:577,-0.2991,2.3737,10.7103,35.1221,-0.4743,0.1819,-1.0762,351.8419
16:15:48:600,-0.0455,2.2469,11.5262,35.113,-0.5,0.0182,-0.9541,352.9118
16:15:48:617,0.5456,2.1942,12.6269,36.9318,-0.5476,-0.0832,-0.772,353.7838
16:15:48:638,1.0289,2.3234,13.6798,37.5187,-0.5769,0.0268,-0.5973,354.4348
16:15:48:657,1.0122,2.4479,14.0411,36.078,-0.4939,0.4006,-0.4703,354.8579
16:15:48:678,0.615,2.3258,13.8162,35.4431,-0.3375,0.8441,-0.3896,355.1128
16:15:48:701,-0.7489,2.4096,13.7372,36.8361,-0.2019,0.9369,-0.3591,355.3764
16:15:48:718,-2.0818,2.7613,13.084,37.1293,0.0119,0.8795,-0.2589,355.5892
16:15:48:737,-2.3569,3.1442,11.8445,36.9318,0.2612,0.7781,-0.0585,355.5729
16:15:48:756,-1.4333,2.9073,12.0646,36.1399,0.2282,0.4177,0.1284,355.4081
16:15:48:785,0.1244,1.931,14.7876,36.4826,-0.0785,-0.0869,0.2175,355.1826
16:15:48:802,0.8159,0.5647,18.0562,37.1448,-0.3094,-0.4619,0.1748,355.0605
16:15:48:818,0.2465,-0.0407,17.9031,37.9249,0.0339,-0.1711,0.1552,354.9041
16:15:48:837,-0.3206,0.2536,14.9193,37.0362,0.7181,0.6144,0.336,354.4265
16:15:48:857,-0.0455,0.5432,12.2824,38.5019,1.1384,1.086,0.6329,353.4998
16:15:48:876,1.0504,0.7178,10.5524,36.7996,1.285,1.1165,0.9029,352.2217
16:15:48:898,1.7731,0.9787,8.93,36.4618,1.3546,0.9406,1.008,350.8247
16:15:48:919,2.5627,1.5338,5.8409,37.1839,1.4303,0.7622,0.931,348.1721
16:15:48:938,3.0652,1.7133,4.8263,37.6747,1.3851,0.7451,0.854,346.9014
16:15:48:957,3.1585,1.864,4.1874,37.1599,1.285,0.6877,0.7026,345.8029
16:15:48:981,2.869,2.0124,3.7232,38.7013,1.1836,0.59,0.5156,344.9543
16:15:49:000,2.5244,2.132,3.3428,37.3082,1.0871,0.4556,0.3507,344.3323
16:15:49:019,2.2469,2.2349,2.8857,37.1065,0.9808,0.2723,0.2127,343.9407
16:15:49:037,1.9765,2.2875,2.6919,37.467,0.8219,0.0646,0.1076,343.7428
16:15:49:057,1.7515,2.4311,2.5101,38.1949,0.6472,-0.1015,0.0184,343.7296
16:15:49:079,1.4165,2.6776,2.3258,37.8648,0.464,-0.1956,-0.083,343.8825
16:15:49:099,0.658,3.1705,2.5005,37.0621,0.2208,-0.2774,-0.2247,344.2498
16:15:49:118,0.0335,3.3978,3.3428,38.1256,-0.1163,-0.4448,-0.3615,344.8282
16:15:49:137,-0.0096,3.1346,4.7067,38.5479,-0.5977,-0.7392,-0.4141,345.6151
16:15:49:158,0.4283,2.6034,6.8818,37.0669,-1.2428,-0.9201,-0.3713,346.4153
16:15:49:178,0.6317,2.1775,10.3657,37.9329,-1.8573,-0.7539,-0.3188,347.0563
16:15:49:197,0.8782,2.1751,14.2421,37.3899,-2.109,-0.4228,-0.3176,347.5285
16:15:49:219,2.187,1.7803,17.336,37.6223,-2.0271,-0.6158,-0.3567,348.055
16:15:49:237,3.5175,0.7753,20.4802,38.4066,-1.9404,-1.4637,-0.5033,348.9464
16:15:49:256,4.0941,-0.2991,21.8297,38.828,-1.6252,-1.8107,-0.623,350.0216
16:15:49:282,3.4313,0.0502,19.8533,39.7571,-0.8763,-1.1106,-0.5546,350.8332
16:15:49:298,2.7613,0.8901,16.3071,38.7846,-0.0882,-0.1284,-0.3359,351.1906
16:15:49:320,2.4503,1.4548,12.682,37.0362,0.453,0.4568,-0.1245,351.1893
16:15:49:338,2.4909,2.1176,9.734,38.828,0.7621,0.5655,-0.0097,350.995
16:15:49:358,2.6704,2.7661,7.3508,38.828,0.8696,0.2833,-0.0231,350.8969
16:15:49:380,2.7541,3.1537,4.6732,38.8124,0.4297,-0.4118,-0.397,351.0735
16:15:49:398,2.0985,2.9623,4.7593,39.7502,0.0217,-0.3569,-0.6548,351.566
16:15:49:419,1.084,2.7422,5.4676,36.7665,-0.3057,-0.1015,-0.8612,353.2847
16:15:49:439,0.0861,2.6273,6.061,35.7643,-0.4548,0.1098,-0.9688,354.3133
16:15:49:459,-0.5599,2.6512,6.3314,36.7991,-0.4279,0.1685,-0.9639,355.3498
16:15:49:478,-0.7992,2.7661,6.3434,38.6612,-0.3057,0.0659,-0.8893,356.3163
16:15:49:555,-0.8997,2.936,6.0754,37.692,-0.1958,-0.1113,-0.7989,357.2653
16:15:49:570,-0.9045,3.1968,6.1328,38.7297,-0.1774,-0.242,-0.7036,358.1431
16:15:49:570,-0.7609,3.3021,6.5587,37.708,-0.2507,-0.2713,-0.6144,358.9486
16:15:49:571,-0.5647,3.3691,7.4369,38.7593,-0.3472,-0.2164,-0.5411,359.6194
16:15:49:578,-0.548,3.3499,8.4993,38.2394,-0.4059,-0.1186,-0.491,0.2429
16:15:49:600,-0.6508,3.1729,9.8154,38.3323,-0.4193,-0.0465,-0.4642,0.8109
16:15:49:616,-0.9523,2.9145,11.1841,38.7698,-0.3301,-0.0294,-0.4165,1.3462
16:15:49:637,-1.3663,2.7494,12.2082,37.425,-0.131,-0.0465,-0.3249,1.7892
16:15:49:659,-1.5697,2.8594,12.2752,39.1754,0.1842,-0.038,-0.1612,2.0529
16:15:49:680,-1.1103,3.082,11.4281,37.7526,0.486,0.017,0.0673,2.0294
16:15:49:696,-0.3206,3.6514,10.9328,38.6883,0.5592,0.0891,0.2664,1.7596
16:15:49:717,0.3039,3.874,11.0094,39.7009,0.3931,0.2051,0.3336,1.3613
16:15:49:738,0.2249,3.5462,11.5956,36.2718,0.0852,0.3065,0.2395,1.0374
16:15:49:761,-0.9236,2.7972,13.0217,37.2681,-0.252,0.3395,0.0954,0.881
16:15:49:778,-2.6393,2.3306,13.8951,37.7655,-0.3326,0.4959,0.0685,0.7741
16:15:49:798,-3.6658,2.4239,13.3161,38.7366,-0.0858,0.7513,0.2456,0.4462
16:15:49:816,-3.4385,2.4742,12.5264,37.7449,0.1304,0.6865,0.5217,359.8269
16:15:49:840,-0.9882,1.048,14.2828,39.1825,-0.142,-0.2701,0.8223,358.3135
16:15:49:860,-0.524,0.6006,13.8401,39.1735,-0.0895,-0.2176,0.8773,357.4829
16:15:49:877,-0.2728,0.6652,12.4762,38.751,0.128,0.3065,1.0043,356.3783
16:15:49:900,-0.0263,0.6796,11.2965,38.7114,0.3064,0.8148,1.1558,354.9398
16:15:49:916,0.457,0.7561,10.2269,38.7445,0.4432,0.9797,1.2768,353.3172
16:15:49:937,1.072,0.9021,9.0903,41.6921,0.5935,0.8881,1.3427,351.632
16:15:49:963,1.6702,1.0816,7.8939,40.7631,0.734,0.7231,1.3354,349.9922
16:15:49:983,2.1081,1.2754,6.8219,40.032,0.8402,0.6303,1.2792,348.4255
16:15:49:998,2.5029,1.4883,6.0467,40.5292,0.8977,0.5936,1.179,346.9545
16:15:50:016,2.6058,1.6989,5.269,39.5333,0.9197,0.5533,1.0373,345.6521
16:15:50:038,2.5412,1.9573,4.6205,41.566,0.9062,0.4922,0.8699,344.5547
16:15:50:061,2.4526,2.1894,3.9147,41.6661,0.8317,0.3982,0.7123,343.6611
16:15:50:078,2.4191,2.4598,3.5821,41.2847,0.6692,0.2894,0.5608,342.9708
16:15:50:097,2.3402,2.6058,3.5844,42.1188,0.4469,0.1575,0.3983,342.4994
16:15:50:116,2.2516,2.6776,4.142,38.8264,0.2184,-0.0135,0.2224,342.268
16:15:50:137,2.1464,2.6465,4.5823,40.1527,0.0437,-0.2225,0.049,342.3162
16:15:50:158,1.8903,2.6608,5.1541,40.7068,-0.0882,-0.413,-0.1172,342.5986
16:15:50:176,1.4836,2.601,6.396,41.941,-0.2666,-0.6061,-0.2907,343.1667
16:15:50:196,1.1677,2.5579,7.5757,40.6976,-0.5134,-0.8028,-0.408,343.9511
16:15:50:217,0.9811,2.3019,9.0568,40.4203,-0.8139,-0.804,-0.4422,344.7418
16:15:50:240,1.017,2.3139,14.0243,38.8917,-1.1719,-0.4033,-0.3774,345.9446
16:15:50:265,2.2014,2.1823,15.7113,38.5195,-1.1084,-0.611,-0.3335,346.5302
16:15:50:278,3.9099,1.4261,17.3886,39.5125,-1.1084,-1.1168,-0.3554,347.1532
16:15:50:296,4.5727,0.5384,19.0875,39.4077,-1.0571,-1.2609,-0.4862,347.9749
16:15:50:317,3.3452,0.323,18.6592,40.51,-0.6539,-0.7185,-0.6413,348.8505
16:15:50:338,1.651,1.0648,15.5581,40.3324,0.062,0.1062,-0.612,349.5119
16:15:50:358,1.5793,1.7922,12.0694,40.7765,0.6497,0.4825,-0.3799,349.808
16:15:50:378,2.1512,2.4742,9.4325,39.7505,0.9087,0.331,-0.2003,349.9319
16:15:50:397,2.6488,2.9599,7.6523,39.4077,0.8586,-0.0759,-0.2284,350.1884
16:15:50:416,2.6824,3.1585,6.408,40.6481,0.5837,-0.4693,-0.4153,350.785
16:15:50:439,2.4144,3.1466,5.7212,39.1825,0.1854,-0.5548,-0.6389,351.6382
16:15:50:456,1.8497,2.9886,5.6255,39.19,-0.2263,-0.308,-0.8124,352.6311
16:15:50:477,1.1103,2.8594,5.805,39.7445,-0.5366,0.0671,-0.9284,353.6115
16:15:50:497,0.347,2.7087,6.2548,40.7016,-0.6796,0.3346,-0.9932,354.6157
16:15:50:521,-0.5049,2.6154,6.8339,40.2102,-0.6441,0.3664,-1.0054,355.6338
16:15:50:542,-1.1821,2.6465,6.9799,39.7375,-0.456,0.1673,-0.948,356.6792
16:15:50:560,-1.3328,2.8738,6.3099,40.3038,-0.1982,-0.1455,-0.8075,357.6472
16:15:50:576,-1.1151,3.1585,5.5944,38.8552,-0.0504,-0.407,-0.6438,358.5273
16:15:50:595,-0.8662,3.2758,5.726,39.0416,-0.098,-0.4827,-0.5106,359.2882
16:15:50:616,-0.7872,3.2758,6.6114,39.8404,-0.2483,-0.4192,-0.4348,359.96
16:15:50:638,-0.8925,3.2782,8.0638,40.3868,-0.3436,-0.3275,-0.3738,0.5029
16:15:50:656,-1.0816,3.2112,9.332,39.5568,-0.3118,-0.3055,-0.3078,0.9917
16:15:50:677,-1.1462,3.2279,9.7029,40.4425,-0.1298,-0.2872,-0.2161,1.3903
16:15:50:697,-1.0648,3.3428,9.8321,39.4307,0.0791,-0.1834,-0.1062,1.6307
16:15:50:717,-1.3256,3.5055,9.9948,40.3403,0.1927,-0.0404,-0.0353,1.7549
16:15:50:742,-0.6772,3.4863,11.8851,40.3217,0.1402,0.0707,0.1088,1.7653
16:15:50:763,-0.0814,3.2471,13.5721,39.9291,-0.0223,-0.1748,0.1357,1.6296
16:15:50:777,0.1292,2.9982,14.8977,39.5568,-0.0992,-0.2334,0.1198,1.6223
16:15:50:796,0.1938,2.8163,14.4024,40.7444,0.0718,0.1648,0.1357,1.4886
16:15:50:816,-0.2967,2.6967,13.3352,40.6324,0.244,0.6669,0.154,1.183
16:15:50:863,-1.6798,2.7709,12.3278,40.1906,0.3345,1.0555,0.1516,0.7745
16:15:50:865,-2.8666,3.216,10.4973,41.1989,0.5104,1.367,0.2151,0.2364
16:15:50:882,-3.271,3.6395,8.8893,39.221,0.5703,1.4501,0.3373,359.5413
16:15:50:895,-2.9862,3.5103,9.1167,40.1953,0.2367,1.0555,0.4252,358.8443
16:15:50:915,-2.0554,2.0387,12.2273,41.5782,-0.4034,0.2442,0.4387,358.3764
16:15:50:936,-1.4237,0.5504,16.2162,42.1371,-0.8066,-0.4008,0.4277,358.098
16:15:50:956,-1.2562,-0.0766,16.5847,41.6108,-0.4303,-0.3495,0.5022,357.7017
16:15:50:977,-0.9763,0.1316,13.4094,40.6256,0.3381,0.2418,0.738,356.8945
16:15:50:996,-0.5001,0.6772,10.6744,39.6444,0.7816,0.8954,1.0263,355.5714
16:15:51:018,0.0287,1.0576,9.2004,41.1975,0.8354,1.2253,1.2267,353.9283
16:15:51:041,0.6987,1.3807,8.3533,42.3644,0.7779,1.2216,1.3366,352.1295
16:15:51:062,1.206,1.7444,7.4871,41.0129,0.7792,1.042,1.3623,350.3321
16:15:51:076,1.7898,2.065,6.6233,39.8441,0.8293,0.8087,1.3452,348.6216
16:15:51:095,2.455,2.3234,5.8672,41.609,0.8806,0.5997,1.3061,346.9973
16:15:51:117,2.7948,2.5819,5.1422,42.195,0.9185,0.4543,1.1986,345.5367
16:15:51:141,2.8642,2.8211,4.4052,39.7458,0.9258,0.3456,1.0275,344.3011
16:15:51:157,2.7924,3.082,3.6826,41.5313,0.8806,0.2173,0.8333,343.3584
16:15:51:176,2.7087,3.2255,3.3117,41.5313,0.7462,0.0585,0.6451,342.6554
16:15:51:196,2.5986,3.2447,3.7256,42.8449,0.3638,-0.3715,0.2957,342.2393
16:15:51:214,2.668,3.149,3.9075,42.8449,0.2282,-0.6586,0.1222,342.07
16:15:51:241,2.5316,3.1322,4.2808,42.8449,0.0571,-0.9702,-0.083,342.7738
16:15:51:258,2.2421,2.9862,5.6351,42.8449,-0.2556,-1.2793,-0.2992,343.6599
16:15:51:276,2.333,2.5675,7.0684,42.8449,-0.6722,-1.4735,-0.4446,344.7594
16:15:51:295,2.4311,2.3976,8.7482,40.8137,-1.062,-1.2939,-0.4984,345.7942
16:15:51:315,2.5747,2.2827,10.057,41.3233,-1.3845,-0.8309,-0.5253,346.6678
16:15:51:342,2.948,1.9669,11.3061,40.8971,-1.6753,-0.4497,-0.5998,347.4206
16:15:51:356,2.9671,1.2395,13.5147,40.8971,-2.0723,-0.5047,-0.8368,348.4438
16:15:51:376,2.1464,0.1627,17.6806,40.8394,-2.4718,-0.7368,-1.1288,349.8459
16:15:51:396,0.3493,-0.7083,21.7412,41.6839,-2.3643,-0.6513,-1.2901,351.4218
16:15:51:415,-1.4357,-0.4498,21.5067,41.7409,-1.4419,-0.2616,-1.1056,352.748
16:15:51:439,-0.8949,0.39,17.2523,42.3509,-0.1958,0.0072,-0.5631,353.4077
16:15:51:457,0.8925,1.3783,12.9476,43.1927,0.5739,-0.0978,-0.05,353.4928
16:15:51:477,2.1823,2.1846,10.3513,42.618,0.7217,-0.2518,0.1381,353.3912
16:15:51:495,2.4837,2.7733,8.7577,39.7132,0.5727,-0.242,0.0465,353.3832
16:15:51:518,2.0698,2.9671,7.5422,43.1031,0.3613,-0.0575,-0.1661,353.5578
16:15:51:537,1.3639,2.9839,6.7214,43.552,0.1585,0.2063,-0.353,353.8936
16:15:51:556,0.6006,3.0437,6.2524,42.5351,0.007,0.3933,-0.4752,354.3133
16:15:51:649,0.1196,3.0796,5.7619,43.0237,-0.0638,0.4018,-0.5204,354.8061
16:15:51:650,-0.1986,3.1824,5.1589,42.0565,-0.0602,0.2943,-0.5191,355.3226
16:15:51:652,-0.3517,3.2758,4.4076,43.0268,-0.0467,0.1233,-0.502,355.8669
16:15:51:653,-0.5336,3.2925,4.1204,41.5947,-0.1273,-0.0661,-0.4874,356.4598
16:15:51:672,-1.3974,2.9288,6.6281,41.1256,-0.4865,-0.1858,-0.408,357.5845
16:15:51:677,-1.328,2.7446,8.3031,41.6108,-0.4658,-0.2334,-0.2748,357.9796
16:15:51:694,-0.9236,2.7996,9.3033,41.5782,-0.2312,-0.3434,-0.1233,358.2415
16:15:51:715,-0.3972,2.8642,9.868,41.6284,0.0437,-0.4839,-0.017,358.4105
16:15:51:735,-0.146,2.9839,10.4184,42.0746,0.244,-0.567,0.0379,358.5241
16:15:51:755,-0.0718,3.082,10.6552,40.6448,0.3711,-0.4619,0.0783,358.5833
16:15:51:775,0.0957,3.2112,10.9328,43.5158,0.442,-0.1687,0.1467,358.4932
16:15:51:795,0.1675,3.3619,11.6148,42.06,0.4554,0.1233,0.2041,358.2539
16:15:51:823,0.2441,3.4505,12.0263,42.0526,0.4921,0.3151,0.2408,357.935
16:15:51:838,0.2847,3.5725,12.2465,41.1543,0.5654,0.3591,0.2652,357.5692
16:15:51:858,0.4379,4.0558,12.2297,40.6559,0.6167,0.32,0.3043,357.164
16:15:51:875,0.9858,4.13,11.5645,40.13,0.6167,0.4165,0.3434,356.6676
16:15:51:897,1.0624,3.9194,11.866,40.2466,0.4383,0.5533,0.286,356.1869
16:15:51:916,-0.0191,3.5509,12.8255,42.2352,0.2428,0.7305,0.1687,355.7755
16:15:51:935,-1.6869,3.7615,12.0862,42.2262,0.3626,1.0322,0.121,355.3346
16:15:51:956,-2.5986,4.1563,10.4806,43.2168,0.5544,1.1593,0.2139,354.7734
16:15:51:976,-2.1799,4.063,10.4279,41.9514,0.4175,0.9211,0.38,354.116
16:15:51:996,-0.682,3.1011,12.67,41.1532,-0.0088,0.3102,0.4778,353.5157
16:15:52:019,0.213,1.9717,14.4861,40.9139,-0.3008,-0.1992,0.446,353.0961
16:15:52:038,0.3493,1.5314,13.3519,41.9545,-0.1628,0.0011,0.4387,352.6324
16:15:52:056,0.146,1.6726,11.1362,42.5695,0.0925,0.7085,0.5437,351.8174
16:15:52:075,0.0646,1.6989,9.6239,43.5171,0.1561,1.3169,0.7001,350.6256
16:15:52:095,0.4427,1.8018,9.0233,42.5643,0.1145,1.5661,0.8577,349.1493
16:15:52:124,1.6965,1.7659,8.674,45.2451,0.2697,1.0774,0.9628,346.1783
16:15:52:135,2.2756,1.7707,8.2481,42.2533,0.5373,0.6572,0.9237,344.9363
16:15:52:155,2.6465,1.8568,7.3077,44.5981,0.872,0.287,0.8382,343.9209
16:15:52:174,2.8857,1.9549,6.0682,43.7314,1.1506,0.0182,0.7172,343.1308
16:15:52:195,2.857,2.0626,4.8885,41.9008,1.2727,-0.1699,0.5547,342.5978
16:15:52:218,2.6441,2.2038,4.0271,42.0343,1.2422,-0.2713,0.3739,342.2918
16:15:52:237,2.4957,2.3545,3.472,43.3453,1.1005,-0.3275,0.2065,342.1948
16:15:52:256,2.4885,2.5196,3.216,44.042,0.8928,-0.4143,0.0428,342.3347
16:15:52:274,2.4574,2.6512,3.4026,42.3655,0.6326,-0.6036,-0.1453,342.7383
16:15:52:294,2.1081,2.6488,4.3286,42.3842,0.3442,-0.8859,-0.3725,343.5104
16:15:52:316,1.6295,2.6656,5.0034,42.7442,0.0938,-1.234,-0.5949,344.6887
16:15:52:335,1.5506,2.7278,5.9701,41.9934,-0.1579,-1.5871,-0.7464,346.1885
16:15:52:355,1.9932,2.3713,7.0923,41.5563,-0.5281,-1.8388,-0.8344,347.9064
16:15:52:375,2.1416,2.1272,8.3103,42.0588,-0.941,-1.7105,-0.8869,349.601
16:15:52:394,2.0961,2.2588,10.0786,41.9759,-1.3038,-1.2316,-0.8991,351.0257
16:15:52:415,2.1727,2.3282,11.4521,41.8259,-1.536,-0.8272,-0.9297,352.2978
16:15:52:436,2.3019,2.0842,12.5169,41.8564,-1.7046,-0.7344,-1.0579,353.6393
16:15:52:455,2.1105,1.5721,14.0722,42.6689,-1.9343,-0.837,-1.2473,355.2419
16:15:52:475,0.9093,0.9834,15.5916,41.6692,-2.0515,-0.6977,-1.4159,356.9709
16:15:52:494,-0.9978,1.0457,15.8931,42.0788,-1.8121,-0.2017,-1.4318,358.5984
16:15:52:516,-2.2947,1.7994,14.5603,41.2208,-1.2941,0.2076,-1.1825,359.8608
16:15:52:535,-2.1272,2.3186,12.402,43.0441,-0.8237,0.2259,-0.7892,0.697
16:15:52:556,-0.993,2.8187,10.8993,44.0355,-0.6099,-0.0111,-0.4251,1.1936
16:15:52:578,0.5456,3.0915,9.7507,41.0871,-0.6344,-0.2994,-0.2333,1.8381
16:15:52:598,0.1555,3.0867,9.3153,42.5509,-0.6563,-0.1223,-0.3261,2.2024
16:15:52:616,-0.469,3.0245,9.0832,43.085,-0.6686,0.1196,-0.364,2.5803
16:15:52:635,-0.8925,2.9527,9.1884,43.5552,-0.6344,0.2735,-0.3151,2.8956
16:15:52:655,-1.0863,2.9001,9.3512,42.0947,-0.5012,0.2747,-0.2113,3.1024
16:15:52:674,-1.017,2.8857,9.1095,43.2329,-0.2495,0.166,-0.0952,3.1959
16:15:52:695,-0.9571,2.9839,8.1739,43.9896,0.0547,0.0414,0.0123,3.177
16:15:52:715,-0.9188,3.0532,7.2861,43.0843,0.2453,-0.0294,0.099,3.0733
16:15:52:736,-0.8303,3.1131,6.9248,42.0536,0.2795,-0.005,0.1736,2.8844
16:15:52:754,-0.8542,3.1442,7.0349,45.9458,0.2269,0.0768,0.2334,2.6184
16:15:52:775,-0.7322,3.1346,7.3651,44.9826,0.1732,0.1611,0.286,2.2882
16:15:52:800,-0.6843,3.1609,7.6738,42.7497,0.1561,0.1929,0.3299,1.9009
16:15:52:814,-0.7035,3.1466,8.0997,41.1702,0.1451,0.2027,0.3641,1.4385
16:15:52:835,-0.9428,3.0652,8.4802,40.3324,0.1488,0.2149,0.3837,0.9826
16:15:52:855,-1.2395,2.8977,9.2865,44.7096,0.1219,0.2076,0.4191,0.4872
16:15:52:874,-1.6199,2.7494,10.4925,43.5539,0.1097,0.1782,0.4949,359.9247
16:15:52:896,-1.9238,2.6752,11.4401,43.5158,0.1903,0.1538,0.628,359.2417
16:15:52:920,-1.273,2.4957,12.3517,44.5006,0.2941,0.1294,0.8406,358.3387
16:15:52:938,0.0263,2.4024,13.5984,45.9987,0.2978,0.0341,1.0495,355.9728
16:15:52:957,0.5934,2.4144,13.7276,45.0294,0.3564,0.4189,1.0959,354.6957
16:15:52:975,-0.0239,2.1344,13.2251,44.2775,0.3491,0.7769,1.0581,353.3618
16:15:52:996,-1.2275,1.9071,12.792,44.8351,0.3222,0.9992,1.063,351.9943
16:15:53:018,-2.4503,2.1129,11.3157,44.8351,0.4835,1.1984,1.1546,350.5074
16:15:53:034,-2.9097,2.5555,9.8154,45.6133,0.6387,1.2106,1.3391,348.8242
16:15:53:054,-2.2205,2.5508,9.5833,46.3376,0.5214,0.7879,1.5285,347.0342
16:15:53:074,-0.8662,1.943,11.0357,45.1392,0.1708,0.0487,1.5932,345.354
16:15:53:097,0.1196,1.017,13.1103,45.3014,-0.1176,-0.49,1.5065,343.8639
16:15:53:118,0.548,0.5168,13.0672,46.0065,-0.0712,-0.407,1.3892,342.4853
16:15:53:134,0.2441,0.4738,12.1005,45.5443,0.1158,0.1575,1.3244,341.0436
16:15:53:154,-0.079,0.2345,12.0144,48.0345,0.1817,0.7146,1.333,339.4303
16:15:53:175,0.0646,0.1842,11.6196,47.4318,0.3345,1.042,1.4417,337.6162
16:15:53:199,0.7633,0.3948,10.1719,48.0007,0.6472,1.0408,1.5688,335.6525
16:15:53:215,1.4548,0.6843,8.6285,47.839,0.9233,0.794,1.6005,333.7116
16:15:53:235,2.1152,1.0385,7.4824,47.4461,1.065,0.5093,1.5187,331.9443
16:15:53:254,2.4861,1.3328,6.6449,47.2452,1.1115,0.3163,1.3403,330.421
16:15:53:273,2.4933,1.6319,5.8504,48.6277,1.1298,0.287,1.1155,329.1436
16:15:53:296,2.4431,1.8712,5.2451,46.6271,1.0907,0.3188,0.9017,328.0892
16:15:53:316,2.4479,2.0626,4.8981,47.0991,0.9832,0.2797,0.6977,327.2764
16:15:53:336,2.6871,2.144,4.9077,48.2305,0.817,0.1306,0.4973,326.7166
16:15:53:354,3.0197,2.077,5.2403,47.8911,0.6191,-0.0526,0.2872,326.4335
16:15:53:376,3.0796,1.9908,5.9031,48.4314,0.4432,-0.1675,0.0612,326.4373
16:15:53:393,2.9001,1.8879,6.5252,48.5747,0.3564,-0.2151,-0.1453,326.6711
16:15:53:414,2.4431,1.9119,6.8387,47.0162,0.3723,-0.2713,-0.309,327.0748
16:15:53:438,2.1081,2.0913,6.5204,47.557,0.4285,-0.4362,-0.4202,327.691
16:15:53:455,1.986,2.3067,6.2836,46.4843,0.3809,-0.7197,-0.4849,328.5097
16:15:53:474,1.9836,2.2301,6.9105,45.3652,0.1378,-1.0288,-0.5338,329.5341
16:15:53:496,1.7683,2.8283,8.2768,46.1653,-0.4364,-1.0422,-0.5289,331.6324
16:15:53:513,2.4503,2.9312,8.406,44.9093,-0.7614,-0.815,-0.491,332.4946
16:15:53:533,3.8142,2.2756,10.5404,47.0797,-1.4065,-0.8089,-0.5582,333.3525
16:15:53:553,4.4698,0.9308,15.2088,46.6124,-2.1469,-0.9873,-0.827,334.5315
16:15:53:574,2.7996,-0.1005,18.0443,45.8116,-2.2727,-0.9469,-1.2106,336.0924
16:15:53:594,-0.3972,0.5599,16.9268,45.4172,-1.6032,-0.5108,-1.3951,337.7607
16:15:53:614,-1.8688,1.7013,14.0626,47.9806,-0.7504,-0.0135,-1.1117,339.0141
16:15:53:633,-1.1725,2.5172,11.397,48.1003,-0.2544,0.0988,-0.5961,339.6732
16:15:53:725,0.2895,3.1083,10.1384,47.3484,-0.1958,-0.1883,-0.2186,339.9911
16:15:53:726,1.6343,3.3571,9.6814,49.4082,-0.3521,-0.5352,-0.1013,340.2817
16:15:53:728,2.0028,3.5103,9.0018,47.4056,-0.4987,-0.6061,-0.2039,340.7073
16:15:53:728,1.5912,3.6036,8.4227,44.6285,-0.5855,-0.3361,-0.3799,341.2358
16:15:53:744,0.9715,3.6897,7.7312,46.0605,-0.6038,0.028,-0.4996,341.7923
16:15:53:753,0.3278,3.8094,7.1234,47.4055,-0.5757,0.2797,-0.5595,342.357
16:15:53:774,-0.1172,3.8668,6.8219,45.8164,-0.5562,0.3297,-0.5851,342.9537
16:15:53:795,-0.5145,3.8501,6.9703,47.3399,-0.5501,0.1819,-0.6034,343.6147
16:15:53:813,-0.7729,3.7017,7.3651,46.6693,-0.5219,-0.0661,-0.6034,344.3324
16:15:53:833,-0.9619,3.5988,7.8054,48.0323,-0.4413,-0.2616,-0.5631,345.0587
16:15:53:853,-1.0217,3.5773,7.9944,47.3055,-0.3094,-0.3239,-0.4862,345.718
16:15:53:877,-0.9452,3.618,7.9968,45.6523,-0.1676,-0.2506,-0.3872,346.2588
16:15:53:896,-0.8806,3.661,8.1882,46.8819,-0.0895,-0.1284,-0.298,346.6519
16:15:53:921,-0.7011,3.5103,9.1095,45.4021,-0.0907,-0.0746,-0.2418,346.9816
16:15:53:933,-0.6508,3.2542,10.3298,47.7393,-0.0504,-0.0917,-0.2186,347.2861
16:15:53:955,-0.7729,2.7159,11.6483,47.0746,0.3528,-0.264,-0.171,347.8898
16:15:53:976,-0.524,2.79,11.6794,45.8121,0.5959,-0.3043,-0.0732,348.1014
16:15:53:994,0.4092,2.8092,11.8493,45.0035,0.7144,-0.3019,0.0526,348.1441
16:15:54:014,1.6152,2.747,12.67,45.8811,0.6753,-0.2958,0.1174,348.0829
16:15:54:033,2.254,2.9527,13.2347,46.6817,0.5971,-0.1809,0.077,348.0394
16:15:54:055,2.4096,2.9025,12.3589,44.637,0.6338,0.2968,-0.0207,347.9811
16:15:54:079,1.7133,2.7015,11.5478,43.0146,0.5678,0.8184,-0.1392,347.8814
16:15:54:098,0.1938,2.7613,11.6052,45.2497,0.4114,1.1666,-0.232,347.7972
16:15:54:115,-1.2084,3.2375,10.2389,44.9477,0.5018,1.433,-0.2027,347.6132
16:15:54:134,-2.0698,3.8644,8.3342,46.4007,0.6118,1.4659,-0.0891,347.2883
16:15:54:155,-1.919,3.9338,8.1189,46.6907,0.3125,1.1153,0.0404,346.9203
16:15:54:175,-0.8734,2.869,10.6265,45.8721,-0.3436,0.4763,0.1161,346.6557
16:15:54:194,-0.3805,1.4501,14.7302,44.8633,-0.8701,-0.0759,0.0917,346.5746
16:15:54:214,-0.6174,0.5073,16.6038,45.2936,-0.759,-0.1785,0.0954,346.5204
16:15:54:243,-1.4213,0.4379,14.9121,43.3751,-0.0406,0.2247,0.2798,346.179
16:15:54:256,-1.3854,0.8207,11.9713,46.8876,0.6729,0.673,0.6684,345.2881
16:15:54:274,-0.3015,1.1294,9.7053,45.0659,1.0418,0.8026,1.0825,343.9058
16:15:54:294,0.9978,1.4237,8.0542,46.9064,1.1946,0.7182,1.3476,342.2378
16:15:54:314,1.8999,1.7444,6.6138,46.8025,1.2764,0.5716,1.4002,340.5617
16:15:54:334,2.3091,2.0339,5.3791,45.2021,1.3094,0.4324,1.2988,339.0303
16:15:54:358,2.3976,2.3809,4.3502,46.094,1.2996,0.3248,1.1375,337.6983
16:15:54:376,2.3952,2.6871,3.2136,43.9085,1.2312,0.2063,0.9457,336.6534
16:15:54:398,2.0291,3.1848,1.7827,41.9916,0.767,-0.0001,0.5034,335.3245
16:15:54:415,1.797,3.1896,2.0578,43.3226,0.3809,-0.1223,0.2933,335.0826
16:15:54:434,1.5769,3.0269,3.0508,45.0593,0.0119,-0.2994,0.11,335.0979
16:15:54:458,1.4165,2.924,4.3693,44.2872,-0.2226,-0.5206,-0.0415,335.4133
16:15:54:474,1.3663,2.9025,5.0728,45.1767,-0.3155,-0.8211,-0.1685,335.9976
16:15:54:493,1.2347,3.1154,5.525,45.3492,-0.401,-1.1229,-0.2968,336.8641
16:15:54:514,1.5769,2.9743,6.5444,44.2883,-0.6478,-1.3745,-0.408,337.9335
16:15:54:533,2.2469,2.1655,9.0592,43.1392,-1.0717,-1.5419,-0.4935,339.1147
16:15:54:556,2.1416,1.3831,11.9378,44.2118,-1.4077,-1.421,-0.59,340.3286
16:15:54:575,0.9691,1.9693,13.151,41.652,-1.3075,-0.8602,-0.6022,341.3177
16:15:54:594,1.4094,2.7661,12.536,45.1298,-1.018,-0.4607,-0.4434,341.9682
16:15:54:617,3.5438,2.5723,13.1055,43.5031,-1.0913,-0.7417,-0.3335,342.5882
16:15:54:633,5.5226,1.4883,15.5055,43.1014,-1.4993,-1.2365,-0.4348,343.4107
16:15:54:655,5.5011,0.4403,17.8792,42.9599,-1.6777,-1.2218,-0.7574,344.5315
16:15:54:675,3.326,0.4498,16.7426,42.8139,-1.2684,-0.5975,-1.0567,345.8441
16:15:54:695,1.3711,1.0026,13.6032,41.3212,-0.6673,0.1782,-1.0738,346.9793
16:15:54:715,1.017,1.6391,11.2415,41.4228,-0.3656,0.5802,-0.8429,347.78
16:15:54:738,1.651,1.9406,10.1791,43.2749,-0.3668,0.5118,-0.6059,348.3388
16:15:54:758,2.2469,2.333,9.2794,43.3614,-0.4364,0.2308,-0.5118,348.8432
16:15:54:774,2.4718,2.534,8.1069,42.8118,-0.4633,0.0878,-0.5436,349.4154
16:15:54:794,2.1416,2.601,7.267,43.1676,-0.5183,0.1954,-0.6523,350.0923
16:15:54:813,1.1868,2.5795,7.0588,43.1042,-0.6014,0.4189,-0.7696,350.8582
16:15:54:833,0.2608,2.613,7.1737,42.5957,-0.6124,0.5936,-0.8026,351.644
16:15:54:856,-0.8016,2.7781,6.743,43.0604,-0.313,0.4202,-0.6352,353.0263
16:15:54:874,-1.2491,3.0221,6.1783,43.1559,-0.1481,0.1795,-0.5082,353.604
16:15:54:896,-1.596,3.1059,6.8626,42.2871,-0.1444,-0.093,-0.3591,354.0825
16:15:54:913,-1.6343,3.0078,8.4371,44.2207,-0.1921,-0.3898,-0.2003,354.4368
16:15:54:934,-1.5601,2.9815,8.9683,41.1543,-0.0785,-0.6183,-0.0353,354.6517
16:15:54:956,-1.3615,3.1083,9.1573,40.445,0.117,-0.6501,0.1332,354.6942
16:15:54:973,-1.0241,3.1083,9.9805,40.3552,0.2428,-0.5572,0.2945,354.5103
16:15:54:995,-0.8542,2.9671,10.7988,38.2662,0.398,-0.4546,0.3971,354.1965
16:15:55:024,-0.7585,2.8977,10.7916,40.2633,0.6399,-0.4155,0.4716,353.808
16:15:55:033,-0.6556,3.1154,10.4973,40.253,0.8586,-0.3727,0.5584,353.3527
16:15:55:053,-0.2321,3.4265,10.2365,38.9613,0.9465,-0.3104,0.6525,352.7786
16:15:55:072,0.9141,3.5438,10.6241,41.2324,0.8329,-0.3019,0.7331,352.088
16:15:55:093,2.3091,3.1561,12.414,40.6995,0.5006,-0.4399,0.7392,351.4149
16:15:55:113,3.1633,2.7517,13.8066,40.8381,0.2734,-0.4448,0.6342,350.8579
16:15:55:134,3.1896,2.5531,13.1198,40.0431,0.3882,0.0243,0.4863,350.344
16:15:55:153,2.5484,2.589,11.6483,38.9652,0.5336,0.7378,0.3971,349.6976
16:15:55:173,1.2443,2.6465,11.1099,40.4596,0.4847,1.3035,0.3397,348.9843
16:15:55:194,-0.122,3.0772,10.0594,41.1021,0.5165,1.7018,0.347,348.155
16:15:55:216,-0.8734,3.7735,8.9563,41.805,0.5874,1.7873,0.4314,347.1986
16:15:55:238,-0.4546,3.8357,9.3846,42.2538,0.3821,1.3267,0.5181,346.2864
16:15:55:255,0.7035,2.9121,11.8517,41.9759,-0.0687,0.4397,0.4985,345.6551
16:15:55:273,1.6367,1.9262,14.6106,41.6944,-0.3937,-0.4167,0.3544,345.4139
16:15:55:293,2.0315,1.0433,15.1968,41.2074,-0.3228,-0.6941,0.2065,345.4008
16:15:55:315,1.2132,0.9356,12.8375,41.2089,0.2514,0.8026,0.3067,345.2445
16:15:55:336,0.5456,0.7992,12.4642,41.8411,0.3271,1.4794,0.4448,344.6518
16:15:55:356,0.402,0.9188,11.1625,41.1293,0.5874,1.786,0.6329,342.5216
