Time,Acc_X,Acc_Y,Acc_Z,Meg,Gyr_X,Gyr_Y,Gyr_Z,Ore
20:30:42:824,-1.2012,2.5053,9.4158,32.6168,-0.6844,-1.1369,-0.3967,174.9902
20:30:42:840,-1.2012,2.5053,9.4158,31.2899,-0.6844,-1.1369,-0.3967,175.3845
20:30:42:858,-1.797,2.656,8.8678,30.8713,-0.6844,-1.1369,-0.3967,175.0674
20:30:42:878,-1.8138,2.9671,9.0664,32.1713,-0.0247,-0.14,-0.073,174.593
20:30:42:897,-1.7827,3.0221,9.4253,32.8883,-0.0662,-0.1595,-0.0424,174.2863
20:30:42:927,-1.5075,3.0389,9.5115,32.3416,-0.0797,-0.1901,0.0003,174.1635
20:30:42:937,-1.4548,3.0365,9.5952,31.8154,-0.0284,-0.1498,0.0003,174.0746
20:30:42:955,-1.4548,3.0987,9.466,29.8433,0.0425,-0.1449,-0.029,174.0038
20:30:42:974,-1.6893,3.3021,9.3105,32.5533,0.0779,-0.1265,-0.062,173.8882
20:30:42:997,-1.5936,3.2303,8.9013,32.936,0.0816,-0.0777,-0.0583,173.7971
20:30:43:012,-1.8185,3.3954,8.6548,32.2724,0.0498,-0.0068,-0.0766,173.6327
20:30:43:035,-1.9597,3.4217,8.4203,31.0178,-0.0003,0.0311,-0.0889,173.4232
20:30:43:052,-2.1057,3.5198,8.2911,32.5576,-0.0479,0.0274,-0.0754,173.1569
20:30:43:072,-2.0315,3.5701,8.2648,32.865,-0.0882,0.0237,-0.0437,172.8896
20:30:43:099,-1.8664,3.6275,8.3964,30.6557,-0.1212,0.0079,-0.0143,172.6793
20:30:43:109,-1.864,3.5844,8.7338,31.8154,-0.1456,-0.03,-0.0119,172.525
20:30:43:133,-1.9095,3.3523,8.8774,32.622,-0.1505,-0.1168,-0.0241,172.4354
20:30:43:148,-1.9884,3.1824,8.918,31.0861,-0.1151,-0.1461,-0.0266,172.3849
20:30:43:175,-2.0052,3.1274,8.7553,32.4247,-0.0809,-0.1033,0.0076,172.2507
20:30:43:195,-1.8185,3.0867,8.8223,30.0904,-0.0943,-0.0642,0.0797,172.0574
20:30:43:210,-1.7444,3.1059,9.1071,31.66,-0.1444,-0.0838,0.1542,171.8997
20:30:43:226,-1.7683,3.1657,9.4971,32.2505,-0.175,-0.0997,0.2104,171.629
20:30:43:244,-1.6893,3.204,9.7388,30.6627,-0.1554,-0.0801,0.2569,171.2792
20:30:43:264,-1.2849,3.0676,9.7579,32.3071,-0.1127,-0.0569,0.2911,170.9387
20:30:43:284,-1.1701,3.0676,9.9828,33.3078,-0.1004,-0.0435,0.2593,170.6744
20:30:43:315,-1.2179,3.1418,10.5021,32.781,-0.1176,-0.0923,0.2202,170.4232
20:30:43:325,-1.2443,3.1202,11.3276,31.8386,-0.1114,-0.2035,0.219,170.2533
20:30:43:349,-1.2227,3.0269,11.9474,31.9459,-0.0357,-0.3501,0.2141,170.1676
20:30:43:364,-1.0409,2.9695,12.0239,35.1069,0.1109,-0.4246,0.1958,170.1183
20:30:43:386,-0.8303,2.9264,11.7559,31.755,0.2661,-0.3526,0.1872,170.0623
20:30:43:405,-0.548,2.9862,11.4808,32.3903,0.3565,-0.2915,0.1762,169.9767
20:30:43:432,0.0479,2.7829,11.1194,33.0272,0.3455,-0.3074,0.1469,169.9785
20:30:43:444,0.481,2.3545,11.0477,31.9005,0.2538,-0.3135,0.0638,170.1111
20:30:43:468,0.3805,2.132,10.9687,34.644,0.1256,-0.3245,-0.0596,170.3381
20:30:43:489,0.2871,1.9454,10.684,31.5015,0.0242,-0.2463,-0.1292,170.6317
20:30:43:503,0.201,1.8329,10.1432,31.8855,-0.0162,-0.0936,-0.1182,170.8448
20:30:43:524,0.4618,1.7874,9.3416,31.3751,-0.0052,0.0457,-0.0559,170.9435
20:30:43:544,0.8806,1.8401,8.7051,32.8542,0.0352,0.1557,0.0333,170.9176
20:30:43:564,1.2084,1.8879,8.327,32.9585,0.0694,0.2057,0.0724,170.8075
20:30:43:588,1.5027,1.8855,8.2457,31.8855,0.084,0.1251,0.0418,170.7944
20:30:43:604,1.7874,1.8544,8.2552,33.0272,0.0767,-0.0911,-0.0608,171.0162
20:30:43:624,1.9932,1.8257,8.2026,32.9798,0.0486,-0.2731,-0.1891,171.4214
20:30:43:644,2.0148,1.8161,8.406,34.0742,0.007,-0.3037,-0.2782,171.9103
20:30:43:665,1.6415,2.0913,8.8798,34.5354,-0.1176,-0.3745,-0.453,172.4684
20:30:43:685,1.3208,2.2827,8.3964,32.3694,-0.1823,-0.3452,-0.525,173.9407
20:30:43:708,1.0935,2.3737,7.7456,32.5968,-0.2092,-0.0801,-0.5372,174.5469
20:30:43:725,0.9093,2.5627,7.2838,33.5383,-0.208,0.1948,-0.5201,175.0173
20:30:43:744,0.8327,2.8642,7.0708,33.352,-0.2043,0.2803,-0.514,175.4603
20:30:43:765,0.6508,3.2351,7.1857,34.0025,-0.2324,0.1801,-0.5458,175.9512
20:30:43:787,0.6006,3.3787,7.8317,33.5383,-0.2825,-0.0031,-0.5934,176.5126
20:30:43:811,0.4881,3.2423,8.3342,34.0662,-0.2996,-0.1889,-0.6533,177.2095
20:30:43:826,0.414,2.9336,8.662,33.2272,-0.2507,-0.2585,-0.6961,177.9745
20:30:43:845,-0.0024,2.9408,9.1214,33.7376,-0.1628,-0.1901,-0.7132,178.7336
20:30:43:863,-0.1771,2.9193,9.3918,35.3564,-0.0821,-0.0911,-0.6692,179.3641
20:30:43:884,-0.28,3.0796,9.5522,34.8027,-0.0528,-0.0312,-0.5886,179.9187
20:30:43:904,-0.5025,3.2734,9.9063,34.3393,-0.0907,0.0384,-0.4921,180.323
20:30:43:924,-0.6532,3.2734,10.404,34.5902,-0.1249,0.0958,-0.3687,180.5835
20:30:43:944,-0.8758,3.3165,11.0572,35.324,-0.0968,0.1874,-0.266,180.6865
20:30:43:966,-0.8447,3.2351,11.653,36.0661,0.0046,0.2497,-0.1842,180.6785
20:30:43:998,-0.7944,3.0317,11.9569,36.3846,0.1182,0.185,-0.1561,180.653
20:30:44:004,-0.9667,2.8546,12.1101,36.7017,0.1793,0.0298,-0.1842,180.7057
20:30:44:022,-1.8114,2.8427,11.6052,36.2973,0.2013,-0.0618,-0.2025,180.7473
20:30:44:043,-2.5005,2.9001,11.1099,35.9744,0.2062,0.1312,-0.1353,180.6304
20:30:44:063,-2.5938,2.5196,10.8826,36.3348,0.194,0.3951,0.0137,180.27
20:30:44:084,-2.6512,2.2875,11.2176,36.939,0.1317,0.3902,0.1261,179.7792
20:30:44:108,-2.3952,1.9956,11.5047,36.0607,0.073,0.0934,0.2239,179.3278
20:30:44:127,-2.1846,1.5745,10.2652,38.1239,0.2648,-0.1949,0.4071,178.8583
20:30:44:146,-1.9143,1.4022,9.3727,38.4701,0.4835,0.0372,0.4658,178.4288
20:30:44:163,-1.7492,1.4285,8.875,38.4316,0.6167,0.1886,0.456,177.0797
20:30:44:185,-1.608,1.5242,8.6261,38.2714,0.5776,0.0567,0.434,176.4482
20:30:44:205,-1.2156,1.5482,8.4514,39.0763,0.4053,-0.1986,0.4279,175.9084
20:30:44:224,-0.9763,1.4501,8.2648,39.4292,0.1927,-0.3513,0.4108,175.478
20:30:44:244,-1.0146,1.541,7.9059,40.1949,0.0352,-0.2903,0.3705,175.0632
20:30:44:264,-1.0289,1.7109,7.3914,38.9169,-0.032,-0.0838,0.3558,174.5636
20:30:44:285,-1.0409,1.7994,6.6975,38.9169,-0.0345,0.1557,0.3497,174.0319
20:30:44:309,-1.1605,1.864,6.4582,38.6334,-0.0577,0.3511,0.3277,173.4585
20:30:44:324,-1.2897,1.9645,6.5994,39.8962,-0.1383,0.3585,0.3045,172.8694
20:30:44:343,-1.1629,1.9669,6.8315,39.5397,-0.2361,0.1899,0.3143,172.3274
20:30:44:363,-0.926,2.0626,7.3364,40.4312,-0.3069,0.0359,0.3412,171.8436
20:30:44:384,-0.7609,2.2349,7.8867,41.0571,-0.3387,-0.0471,0.3497,171.3587
20:30:44:404,-0.737,2.3306,8.2122,41.501,-0.3362,-0.0948,0.3473,170.899
20:30:44:423,-0.7298,2.2971,8.4826,41.2272,-0.3106,-0.1046,0.346,170.4597
20:30:44:443,-0.7777,2.4167,8.9037,43.2865,-0.2776,-0.0716,0.3705,169.9641
20:30:44:464,-0.7777,2.6345,9.4158,41.4398,-0.2251,-0.0435,0.423,169.3949
20:30:44:489,-0.6652,2.9384,9.6263,41.6863,-0.1371,-0.0569,0.4743,168.8093
20:30:44:506,-0.3398,3.1202,10.1169,43.314,-0.0345,-0.0447,0.4878,168.2264
20:30:44:526,0.3183,3.07,10.8826,41.8396,0.0168,-0.1033,0.4511,167.6848
20:30:44:544,0.7298,3.0604,11.7153,41.872,-0.0296,-0.2524,0.3448,167.3475
20:30:44:565,0.8471,2.8905,12.3637,44.1542,-0.131,-0.3758,0.1958,167.192
20:30:44:587,0.5743,2.0842,12.9667,43.3754,-0.2299,-0.2524,0.004,167.264
20:30:44:604,1.194,1.5649,13.2514,43.154,-0.1994,-0.2622,0.0235,167.2579
20:30:44:626,1.7228,1.273,13.5506,44.8115,-0.1799,-0.4295,0.0162,167.3204
20:30:44:644,2.321,0.8471,13.8999,44.8067,-0.1603,-0.548,-0.0131,167.4547
20:30:44:664,2.1416,0.7657,13.4261,44.6404,-0.0858,-0.5016,-0.0791,167.6378
20:30:44:686,2.1512,0.5647,12.2871,44.5692,0.0852,-0.1498,-0.1133,167.7555
20:30:44:704,2.0961,0.4164,11.1721,45.5717,0.2978,0.2913,-0.1182,167.7835
20:30:44:725,2.2062,0.6365,10.3203,46.303,0.442,0.3988,-0.1292,167.798
20:30:44:743,2.6728,0.8495,9.0568,47.2036,0.5031,0.1703,-0.1536,167.9548
20:30:44:868,2.9193,0.9691,7.7575,45.7598,0.497,0.0433,-0.2697,168.2634
20:30:44:868,2.68,1.0983,6.9033,47.2896,0.4224,0.1618,-0.4872,168.728
20:30:44:880,2.1535,1.0672,6.3482,47.7818,0.2673,0.2509,-0.7095,169.3567
20:30:44:880,1.206,1.2036,6.3721,47.2036,0.0461,0.152,-0.8757,170.1401
20:30:44:881,0.4187,1.4213,6.4343,48.7219,-0.1738,-0.0691,-0.938,171.0889
20:30:44:881,0.0622,1.4836,6.4128,47.7337,-0.2874,-0.1999,-0.8818,172.0032
20:30:44:891,0.0766,1.7228,6.4199,48.2276,-0.2641,-0.1534,-0.784,172.8057
20:30:44:906,0.1125,2.077,6.3817,46.295,-0.1481,-0.0312,-0.7009,173.4967
20:30:44:923,0.4044,2.3115,6.5181,47.1466,-0.0125,0.0714,-0.6606,174.1075
20:30:44:942,0.5001,2.4909,6.8363,48.0798,0.0694,0.053,-0.6839,174.7538
20:30:44:964,0.2895,2.5484,7.5661,46.2133,0.0535,-0.0777,-0.7718,175.5263
20:30:44:987,-0.1029,2.5723,8.0518,47.9959,-0.0516,-0.2695,-0.861,176.4538
20:30:45:010,-0.7155,2.5436,8.5304,47.5684,-0.2067,-0.3281,-0.8867,177.3928
20:30:45:024,-1.4716,2.4191,9.4062,47.8727,-0.3582,-0.1681,-0.8219,178.2052
20:30:45:044,-2.6297,2.9121,10.8849,48.5971,-0.4963,0.0127,-0.4261,178.7914
20:30:45:063,-2.1033,2.9025,11.811,49.2409,-0.4486,0.0848,-0.1096,179.1358
20:30:45:088,-1.4309,2.9001,12.9141,49.8164,-0.3533,0.097,0.1371,178.8488
20:30:45:105,-0.9547,3.125,13.5529,49.8719,-0.2251,-0.0361,0.2569,178.502
20:30:45:126,-0.658,3.0748,13.4453,48.6096,-0.0308,-0.0728,0.2862,178.1206
20:30:45:143,-1.0385,2.9623,12.6556,49.7685,0.2172,0.1703,0.2239,177.7439
20:30:45:164,-1.5721,2.9599,11.8493,49.6516,0.4102,0.6187,0.1237,177.3655
20:30:45:185,-1.8592,2.7494,11.7775,48.197,0.4469,0.83,0.0712,176.9766
20:30:45:205,-1.8497,2.3785,12.0311,49.5478,0.3186,0.4892,0.0284,176.7353
20:30:45:222,-1.9095,1.8951,11.854,49.2409,0.1475,-0.074,0.015,176.644
20:30:45:244,-2.0459,1.785,11.2487,49.5478,0.1011,-0.2915,0.0589,176.5502
20:30:45:263,-1.7827,1.7779,10.4758,49.8664,0.2001,-0.0667,0.1396,176.3268
20:30:45:285,-1.5673,1.6606,9.7292,49.6805,0.2966,0.2143,0.1664,176.0247
20:30:45:306,-1.6056,1.7396,9.1932,50.4184,0.2538,0.2742,0.1506,175.7137
20:30:45:323,-1.3615,1.5434,8.5065,53.1343,0.1146,0.1044,0.1689,175.4293
20:30:45:344,-1.1557,1.3232,7.9155,50.6037,-0.0198,-0.0764,0.2007,175.1898
20:30:45:368,-1.1797,1.3567,7.6499,54.0047,-0.1102,-0.1094,0.2288,174.9177
20:30:45:383,-1.4213,1.5338,7.803,52.7441,-0.1542,-0.063,0.2764,174.5533
20:30:45:403,-1.5266,1.7324,8.1691,53.4833,-0.1579,-0.0862,0.3351,174.15
20:30:45:423,-1.2012,1.6415,8.3653,52.3128,-0.1053,-0.2084,0.3974,173.7176
20:30:45:443,-0.9141,1.5099,8.5759,53.6876,0.0009,-0.3391,0.4548,173.277
20:30:45:464,-0.7753,1.5362,8.6118,53.8238,0.1549,-0.4246,0.5073,172.8054
20:30:45:487,-0.6772,1.5936,8.3725,54.1498,0.3467,-0.3965,0.5379,172.2825
20:30:45:507,-0.7131,1.9406,7.736,54.2711,0.6888,-0.0777,0.5562,171.1565
20:30:45:524,-0.5527,1.9358,7.3914,54.0862,0.7829,0.0079,0.5745,170.5109
20:30:45:545,-0.5288,2.0124,7.3723,55.6599,0.7804,0.0689,0.5489,169.8809
20:30:45:565,-0.8088,2.3234,7.8221,55.2521,0.6595,0.119,0.5073,169.2766
20:30:45:586,-0.7011,2.5795,8.3031,55.6501,0.4689,0.1288,0.5122,168.6793
20:30:45:604,0.1196,2.4981,9.0856,55.9321,0.2477,0.0738,0.5232,168.0932
20:30:45:623,0.6485,2.4239,10.1001,57.1262,0.0095,-0.0789,0.4352,167.6659
20:30:45:643,0.6532,2.5268,11.1027,54.4962,-0.2092,-0.2585,0.2886,167.4553
20:30:45:665,0.5719,2.3761,11.6698,56.875,-0.3423,-0.3269,0.1799,167.382
20:30:45:682,0.7011,2.2014,11.6746,56.0768,-0.3619,-0.2341,0.1103,167.3537
20:30:45:704,0.9332,1.986,11.6889,58.1686,-0.3142,-0.0936,0.0712,167.3228
20:30:45:723,1.596,1.718,11.8875,56.7244,-0.2727,-0.0471,0.0492,167.3112
20:30:45:743,2.2134,1.2227,12.402,57.1839,-0.2837,-0.1717,0.0235,167.3835
20:30:45:766,2.2205,1.2347,12.5456,57.5215,-0.3179,-0.3978,-0.0082,167.549
20:30:45:788,2.2229,1.2203,11.8564,57.9835,-0.2849,-0.4185,0.0089,167.7061
20:30:45:815,2.467,0.9906,10.7414,58.6944,-0.1456,-0.0618,0.0748,167.6758
20:30:45:823,2.6249,1.1031,9.8752,58.5407,0.0083,0.356,0.0699,167.5608
20:30:45:843,2.7087,1.4596,9.4852,58.5407,0.0755,0.4904,0.0015,167.4802
20:30:45:867,2.6728,1.6654,9.1262,57.7426,0.0278,0.2986,-0.1597,167.6246
20:30:45:882,2.144,1.5816,8.8056,58.9201,-0.1127,0.0079,-0.3809,168.0748
20:30:45:902,1.6008,1.4381,8.2481,58.0072,-0.2605,-0.1424,-0.5116,168.7037
20:30:45:923,1.2897,1.474,7.7623,55.9078,-0.3314,-0.0728,-0.5201,169.3134
20:30:45:943,1.0457,1.6654,7.2981,58.3116,-0.3008,0.0836,-0.4921,169.8369
20:30:45:969,0.8351,2.345,6.7358,57.9707,-0.1066,0.1703,-0.4872,170.816
20:30:45:984,0.8782,2.5699,6.4702,59.4332,-0.0076,0.0836,-0.5287,171.3812
20:30:46:003,0.7011,2.8116,6.463,58.3678,0.0535,0.0396,-0.6081,172.0334
20:30:46:023,0.6485,2.8283,6.7071,58.3678,0.0657,0.003,-0.6912,172.7963
20:30:46:044,0.4307,2.7948,6.7789,58.8885,0.0327,-0.0655,-0.762,173.64
20:30:46:073,0.1484,2.7805,7.4178,59.5884,-0.0528,-0.0337,-0.8036,174.5211
20:30:46:084,-0.1771,2.9288,8.4467,58.5879,-0.175,0.0005,-0.8024,175.3911
20:30:46:105,-0.4905,3.0485,9.6287,59.1569,-0.2996,-0.0972,-0.7535,176.2271
20:30:46:121,-1.0098,3.1154,10.8179,57.9649,-0.3924,-0.2023,-0.6961,177.0344
20:30:46:141,-1.7228,3.1083,12.2417,57.9511,-0.3998,-0.2206,-0.5995,177.7278
20:30:46:161,-1.8449,3.0724,13.2969,59.7895,-0.2886,-0.2206,-0.3894,178.2027
20:30:46:181,-1.1629,2.8211,13.7013,59.7895,-0.076,-0.2243,-0.0876,178.3552
20:30:46:202,-0.402,3.0413,13.7803,57.6951,0.1598,-0.1485,0.1787,178.2164
20:30:46:222,0.1603,3.4505,13.1127,60.3457,0.3772,0.0848,0.3302,177.8574
20:30:46:242,-0.1531,3.6251,11.9809,59.557,0.5483,0.5417,0.3534,177.3534
20:30:46:263,-1.0744,3.5701,11.0524,57.8566,0.6387,0.995,0.252,176.8174
20:30:46:283,-1.596,3.125,10.8371,59.8746,0.6314,1.0695,0.1384,176.3848
20:30:46:305,-1.6702,2.345,10.9759,58.9625,0.5336,0.5637,0.0516,176.172
20:30:46:324,-2.0842,1.864,10.5619,61.5496,0.4139,-0.1949,0.0052,176.2242
20:30:46:342,-2.4311,1.718,9.88,58.8909,0.3699,-0.4271,0.0577,176.3016
20:30:46:362,-2.1751,1.6893,9.3727,57.4526,0.4066,-0.0862,0.1958,176.1177
20:30:46:383,-1.3902,1.4716,8.7745,56.7505,0.4261,0.2583,0.2862,175.7543
20:30:46:403,-0.9643,1.7324,8.7864,59.4911,0.3027,0.3242,0.2764,175.3756
20:30:46:425,-0.8399,1.9382,8.1882,57.4243,-0.2935,0.0213,0.2178,174.8524
20:30:46:443,-1.0026,1.8544,7.5374,59.6173,-0.4938,0.1276,0.2251,174.598
20:30:46:464,-1.1294,1.943,7.0373,58.1783,-0.5342,0.3756,0.2593,174.2163
20:30:46:485,-0.9619,1.8975,6.5563,60.2133,-0.4743,0.5613,0.3326,173.7148
20:30:46:502,-0.8806,1.9669,6.5181,58.9102,-0.3924,0.5454,0.3827,173.1619
20:30:46:524,-0.8566,2.1296,7.011,58.2923,-0.3301,0.2546,0.3815,172.6973
20:30:46:542,-0.8207,2.1535,7.4178,57.5663,-0.2739,-0.228,0.3729,172.3852
20:30:46:564,-0.7849,2.1679,7.6953,56.3965,-0.2006,-0.5285,0.4267,172.0997
20:30:46:582,-0.7681,2.2756,8.1069,57.0024,-0.0894,-0.4527,0.5085,171.6942
20:30:46:604,-0.6652,2.3282,8.205,55.1284,0.0535,-0.2121,0.5733,171.1652
20:30:46:625,-0.6796,2.3521,8.2552,58.2587,0.1793,-0.019,0.5965,170.5496
20:30:46:644,-0.6724,2.5172,8.4802,57.893,0.2416,0.0384,0.6014,169.9308
20:30:46:665,-0.4451,2.9025,8.9898,57.3157,0.2331,-0.0068,0.6075,169.3083
20:30:46:683,0.4498,2.9599,9.9039,56.6918,0.161,-0.1107,0.5635,168.7758
20:30:46:702,1.1533,2.8211,11.4305,55.8776,0.007,-0.2768,0.379,168.5007
20:30:46:723,0.9667,2.5555,13.0337,56.005,-0.1945,-0.537,0.0712,168.6388
20:30:46:743,0.9834,1.7324,14.0052,57.8628,-0.3252,-0.8009,-0.1524,169.0779
20:30:46:768,0.9093,1.0361,14.0363,55.3766,-0.291,-0.9023,-0.2367,169.6367
20:30:46:783,0.4044,1.4668,12.5647,56.3245,-0.1004,-0.6213,-0.1817,170.025
20:30:46:803,1.8544,1.2873,11.1601,54.5599,0.1353,0.1899,0.0589,169.9746
20:30:46:822,2.8355,0.6413,11.2606,54.5599,0.2123,0.802,0.1469,169.6536
20:30:46:842,2.3689,0.6174,12.7178,54.2714,0.0877,0.4183,-0.0754,169.6732
20:30:46:862,2.2253,0.4666,12.7537,52.5665,-0.0296,-0.6079,-0.3002,170.1984
20:30:47:022,2.4646,-0.6221,10.4566,53.1997,-0.0137,-0.7508,-0.4248,171.0081
20:30:47:023,2.5579,-0.3852,9.1071,52.6225,0.0584,-0.1522,-0.3271,172.1374
20:30:47:024,2.3976,-0.1053,8.0231,50.5516,0.0718,0.3145,-0.31,172.4102
20:30:47:026,1.6965,0.8016,7.6092,52.5888,-0.065,0.5417,-0.4041,172.7062
20:30:47:027,1.608,1.5769,7.2574,53.0268,-0.3155,0.5197,-0.4151,173.0195
20:30:47:027,1.9884,1.8497,6.8746,52.2064,-0.539,0.3951,-0.4016,173.3713
20:30:47:028,1.8233,2.1057,6.932,52.9591,-0.6832,0.3169,-0.5275,173.888
20:30:47:028,1.0552,2.3306,7.2383,51.6731,-0.7419,0.2412,-0.7547,174.6544
20:30:47:041,0.5168,2.2684,7.3795,52.1968,-0.6966,0.0872,-0.9123,175.6129
20:30:47:062,0.5623,2.0985,7.7145,52.0377,-0.5708,-0.0642,-0.9392,176.6426
20:30:47:082,0.737,2.0889,8.1117,51.6421,-0.3998,-0.1827,-0.9172,177.6909
20:30:47:103,0.9739,2.1559,8.6501,51.5952,-0.2422,-0.2218,-0.9086,178.7186
20:30:47:126,1.0768,2.1512,9.3368,50.7783,-0.1359,-0.2133,-0.9111,179.7482
20:30:47:143,0.9284,2.0243,10.0331,50.829,-0.0736,-0.2316,-0.9294,180.8011
20:30:47:166,0.591,1.8664,10.4016,50.805,-0.0247,-0.3049,-0.9502,181.8848
20:30:47:185,0.0431,1.9023,10.8227,50.4175,0.0168,-0.3477,-0.9368,182.9562
20:30:47:203,-0.524,2.144,10.9448,50.8891,0.084,-0.3,-0.8329,183.8933
20:30:47:221,-0.8949,2.5005,10.806,49.562,0.1842,-0.1082,-0.6203,184.5581
20:30:47:242,-1.0457,3.0461,10.8108,50.0711,0.299,0.185,-0.3577,184.8815
20:30:47:263,-1.2754,3.5079,11.0118,50.1369,0.4139,0.4061,-0.128,184.9046
20:30:47:287,-1.2036,3.6036,11.3085,48.7947,0.5373,0.4379,0.015,184.5885
20:30:47:305,-0.7513,3.3117,11.2726,48.7196,0.6863,0.2705,0.0675,184.4964
20:30:47:327,-1.6965,2.6321,10.9735,49.2202,1.0638,0.0164,-0.0486,184.5252
20:30:47:345,-2.5101,2.7063,10.5117,49.8653,1.2544,0.1691,-0.0608,184.4894
20:30:47:368,-2.7924,2.6943,10.0546,49.8379,1.4145,0.3878,0.0663,184.2304
20:30:47:387,-2.9599,2.9121,10.2939,48.487,1.5134,0.2729,0.2117,183.8493
20:30:47:408,-2.6441,2.8475,10.1384,47.8323,1.5782,-0.3745,0.3033,183.6139
20:30:47:422,-2.2158,2.9743,8.8199,48.5619,1.6258,-1.1149,0.3167,183.6874
20:30:47:442,-1.8712,3.3787,7.7432,48.0094,1.5489,-1.1308,0.2434,183.8701
20:30:47:461,-1.8664,3.4457,7.1139,47.9584,1.219,-0.5346,0.175,183.8775
20:30:47:483,-1.5912,3.4696,6.6353,48.7705,0.6081,0.0237,0.1897,183.6187
20:30:47:503,-1.2395,3.2806,6.9057,49.4997,-0.1982,0.323,0.2617,183.138
20:30:47:523,-0.9954,2.9527,7.9848,47.388,-0.9996,0.3646,0.3436,182.5582
20:30:47:542,-0.7992,2.8499,8.9922,48.6735,-1.5176,0.1508,0.4328,181.9978
20:30:47:566,-0.6054,2.8594,9.2746,49.5923,-1.5824,-0.1241,0.5574,181.4293
20:30:47:583,-0.2321,2.7302,8.8654,47.6038,-1.2415,-0.1962,0.6674,180.7594
20:30:47:603,0.0766,2.5795,8.1476,49.3882,-0.6869,0.0225,0.715,179.959
20:30:47:623,0.0191,2.7494,7.87,49.3237,-0.1432,0.3145,0.7028,179.0486
20:30:47:643,0,3.1705,7.882,48.7684,0.2685,0.3866,0.7003,178.1192
20:30:47:662,0.2345,3.5581,7.4489,48.5969,0.5153,0.2277,0.7627,177.1942
20:30:47:684,0.7944,3.673,6.9009,47.8387,0.5996,0.1361,0.8298,176.2244
20:30:47:703,0.9643,3.8022,6.8602,48.5309,0.5263,0.2461,0.7846,175.2683
20:30:47:724,0.6221,3.9266,7.4728,48.7156,0.3113,0.3853,0.6393,174.4092
20:30:47:741,0.0526,4.0008,8.5352,48.3622,0.0119,0.3572,0.5317,173.6632
20:30:47:761,0.2393,4.0008,10.1504,49.0864,-0.2519,0.13,0.5208,173.0142
20:30:47:784,1.06,4.0582,11.3827,49.371,-0.3289,-0.2255,0.5257,172.515
20:30:47:806,1.8712,3.3595,12.5504,48.9951,0.0242,-0.2512,0.1567,172.1449
20:30:47:821,1.0959,3.2231,12.9547,49.0864,0.2111,-0.245,-0.1109,172.2935
20:30:47:842,0.804,3.07,13.0768,48.3258,0.3528,-0.3648,-0.1903,172.585
20:30:47:861,1.1079,3.2447,13.1629,48.3964,0.4701,-0.3122,-0.1084,172.7626
20:30:47:885,1.9884,3.4241,12.4953,50.9766,0.6277,-0.0435,0.0944,172.6299
20:30:47:902,2.9934,3.3188,11.3013,50.9766,0.8097,0.3316,0.2544,172.2118
20:30:47:924,3.2758,3.0652,10.349,49.8361,0.9282,0.6932,0.2117,171.6829
20:30:47:942,2.948,2.7422,9.3105,48.4662,0.9343,0.819,-0.0266,171.3175
20:30:47:965,1.7922,2.7805,8.3892,48.2577,0.7804,0.7323,-0.3137,171.2336
20:30:47:983,1.1079,2.8738,7.6379,51.0526,0.5092,0.582,-0.4566,171.3318
20:30:48:002,1.2921,2.5053,6.8387,50.188,0.1817,0.4843,-0.4676,171.4813
20:30:48:021,1.7827,2.0889,6.2572,50.2963,-0.1566,0.4782,-0.5201,171.6942
20:30:48:041,2.0052,1.596,6.1974,50.539,-0.4951,0.5393,-0.6777,172.0559
20:30:48:061,1.1127,1.4477,8.0112,52.2976,-0.8689,0.4183,-0.8818,172.6884
20:30:48:083,0.1627,1.7563,9.5737,52.7757,-1.2061,-0.2878,-1.0003,173.7466
20:30:48:102,0.1053,1.6534,9.9757,51.9526,-1.3063,-1.1577,-0.9123,175.084
20:30:48:121,0.0479,1.6439,9.7364,54.0861,-1.0607,-1.391,-0.762,176.3382
20:30:48:142,-0.5408,2.1009,8.5017,53.6865,-0.5403,-0.895,-0.6411,177.2448
20:30:48:163,-0.6796,2.4191,7.4512,53.3444,0.0706,0.0176,-0.4945,177.6382
20:30:48:183,-0.5958,3.015,6.7741,54.0861,0.5385,0.7103,-0.3711,177.6486
20:30:48:210,-0.3517,3.5318,6.542,52.9519,0.7584,0.8667,-0.2966,177.5099
20:30:48:221,-0.1579,4.1109,6.5324,53.6339,0.6924,0.571,-0.2685,177.4609
20:30:48:242,-0.1077,4.4459,6.9057,53.6897,0.3931,0.1337,-0.332,177.6559
20:30:48:264,-0.5695,3.9505,7.9609,53.8405,-0.313,-0.2817,-0.4542,178.0692
20:30:48:283,-1.2299,4.0798,8.662,54.4376,-0.5,-0.1375,-0.4041,178.9962
20:30:48:305,-1.7635,4.5033,9.6335,55.5747,-0.5671,0.1056,-0.2831,179.1224
20:30:48:322,-1.7085,4.6181,10.727,53.9513,-0.5232,0.2387,-0.1121,179.0342
20:30:48:342,-1.1677,4.6875,11.8564,53.2891,-0.3924,0.1385,0.0602,178.812
20:30:48:363,-0.402,4.6277,12.0431,54.0945,-0.1921,-0.0618,0.1884,178.5561
20:30:48:381,-0.0646,4.3071,11.6674,56.4746,0.0535,-0.0141,0.2165,178.2433
20:30:48:403,-0.9093,4.2975,11.1242,56.7331,0.2661,0.2974,0.1054,177.9064
20:30:48:423,-2.1392,4.3693,10.4997,56.3223,0.3491,0.6077,-0.029,177.57
20:30:48:442,-2.4144,3.996,10.4447,55.67,0.2551,0.692,-0.0718,177.2455
20:30:48:466,-1.7659,2.8427,10.7581,58.6611,0.0058,0.3805,-0.0791,177.0627
20:30:48:484,-1.6726,1.8305,11.0309,59.0802,-0.2629,-0.1864,-0.0974,177.1389
20:30:48:502,-2.6871,2.0554,10.9185,59.0802,-0.3937,-0.5138,-0.0913,177.3244
20:30:48:522,-3.0317,2.1392,9.9278,58.4017,-0.2886,-0.3013,0.0602,177.2626
20:30:48:542,-2.656,2.0818,9.0162,58.0293,-0.0455,0.229,0.2911,176.7501
20:30:48:561,-2.278,2.6034,8.2241,58.487,0.1194,0.6053,0.4023,175.9814
20:30:48:583,-2.1344,3.4026,7.4776,58.3242,0.0987,0.6382,0.4193,175.1696
20:30:48:601,-1.8592,3.6108,7.1067,59.2753,-0.087,0.4733,0.4181,174.432
20:30:48:621,-1.5434,3.283,6.7525,58.9545,-0.3374,0.2436,0.3729,173.8412
20:30:48:642,-1.4333,2.8451,6.7382,59.6453,-0.5415,0.1263,0.3045,173.3563
20:30:48:661,-1.5482,2.4622,7.0014,60.912,-0.6417,0.1251,0.2752,172.9045
20:30:48:684,-1.7922,2.3282,7.5446,60.0965,-0.6563,0.0689,0.2996,172.4498
20:30:48:703,-2.0052,2.5364,8.1571,60.9956,-0.6062,-0.085,0.3754,171.9697
20:30:48:720,-1.0863,2.814,8.1763,58.4972,-0.2336,-0.2304,0.6014,170.8241
20:30:48:741,-0.9906,2.8379,7.8317,62.194,-0.0039,-0.0129,0.6209,170.0604
20:30:48:760,-1.3041,3.0173,7.7695,61.1537,0.1304,0.1691,0.5953,169.2651
20:30:48:782,-1.5099,3.1226,7.8197,59.7204,0.1341,0.1202,0.5843,168.4943
20:30:48:802,-1.1797,3.0461,8.5328,62.3898,0.0535,-0.0618,0.6234,167.7529
20:30:48:821,-0.7992,3.1753,9.6168,62.7277,-0.0528,-0.2377,0.6295,167.0679
20:30:48:841,-0.5767,3.3978,10.9041,61.686,-0.1395,-0.2695,0.5696,166.4399
20:30:48:861,-0.2728,3.058,12.1986,62.8867,-0.1799,-0.1742,0.4719,165.9036
20:30:48:883,0.0718,2.5196,13.1629,62.3937,-0.1591,-0.1424,0.3289,165.519
20:30:48:902,-0.0048,2.2301,13.5195,62.1039,-0.0919,-0.2059,0.1848,165.2969
20:30:48:922,-0.146,2.0435,13.0217,62.989,0.0327,-0.1546,0.1371,165.0977
20:30:48:941,0.2489,2.0219,12.1101,62.6153,0.2001,0.0995,0.1701,164.8021
20:30:48:961,0.7585,2.0148,11.3635,62.5727,0.3027,0.3866,0.1787,164.4116
20:30:48:981,1.3615,1.8831,10.9591,64.3556,0.2563,0.444,0.1261,164.0691
20:30:49:000,1.675,1.4836,11.129,63.8503,0.0865,0.1923,-0.0119,163.9345
20:30:49:021,1.2203,1.2706,11.4377,64.6981,-0.1066,-0.1974,-0.1976,164.1249
20:30:49:099,0.8327,1.2514,10.9735,66.5774,-0.1908,-0.3465,-0.2611,164.4183
20:30:49:100,0.8973,1.2036,9.9685,65.9996,-0.1224,-0.0569,-0.1829,164.5343
20:30:49:100,1.1749,1.2514,8.9994,63.9168,0.0022,0.3304,-0.1133,164.4545
20:30:49:100,1.7994,1.4189,8.4012,63.4352,0.0498,0.4831,-0.0901,164.3251
20:30:49:122,2.1488,1.6128,8.5089,64.6081,-0.0418,0.284,-0.2257,164.4114
20:30:49:140,1.8664,1.7228,8.9492,63.663,-0.2519,-0.1559,-0.5507,164.9849
20:30:49:160,1.1988,1.5577,9.332,63.5876,-0.4828,-0.5016,-0.8488,165.9603
20:30:49:183,-0.079,1.3615,8.8606,64.3206,-0.511,-0.3709,-0.8989,168.14
20:30:49:200,-0.1172,1.6917,8.0566,65.5021,-0.2581,-0.0447,-0.7095,168.807
20:30:49:222,-0.0239,2.3785,7.3962,64.8782,0.0327,0.2314,-0.5495,169.226
20:30:49:240,0.0479,2.857,7.1617,65.4764,0.2538,0.2949,-0.4823,169.5654
20:30:49:263,0.2321,3.149,7.0517,63.1031,0.3491,0.141,-0.4786,169.9375
20:30:49:280,0.323,3.2686,6.8961,64.4888,0.3418,-0.0752,-0.5238,170.4276
20:30:49:300,-0.0838,3.2423,7.0181,66.5466,0.2673,-0.1131,-0.6008,170.9956
20:30:49:321,-0.7178,3.2231,7.681,65.9399,0.1329,-0.0984,-0.6643,171.6299
20:30:49:340,-0.9021,3.2495,8.7099,67.1573,-0.043,-0.2487,-0.6496,172.2837
20:30:49:363,-0.9069,3.1585,9.8919,65.2599,-0.1799,-0.5248,-0.5812,172.944
20:30:49:381,-1.1629,3.0221,10.9615,63.9225,-0.1615,-0.7179,-0.5385,173.6147
20:30:49:401,-1.2969,2.8522,11.464,66.5298,0.0437,-0.6665,-0.4371,174.1726
20:30:49:422,-0.8255,2.7517,11.8038,65.7091,0.3406,-0.3611,-0.2404,174.431
20:30:49:441,-0.5767,3.0485,12.2608,64.5787,0.5703,-0.0349,-0.0596,174.4091
20:30:49:463,-0.3709,3.4289,12.0096,66.1256,0.6497,0.1752,0.0846,174.1739
20:30:49:479,-0.4187,3.5581,11.7535,66.4735,0.6057,0.3792,0.1713,173.7712
20:30:49:500,-0.603,3.2925,10.8754,66.378,0.5275,0.5601,0.164,173.3151
20:30:49:520,-1.1222,3.015,10.1862,65.1018,0.4481,0.7079,0.1225,172.8362
20:30:49:541,-1.6774,3.0365,9.935,64.5787,0.3577,0.6492,0.087,172.4067
20:30:49:564,-1.7468,2.9408,9.9159,65.3173,0.2832,0.3194,0.065,172.1176
20:30:49:587,-1.7707,2.8331,9.4301,63.9668,0.2453,-0.0838,0.0113,172.0301
20:30:49:601,-1.7109,2.8187,8.9659,64.3882,0.2428,-0.1986,-0.0522,172.0914
20:30:49:622,-1.4237,2.6704,8.6046,64.5787,0.2184,-0.0874,-0.117,172.2549
20:30:49:645,-1.5816,2.5723,8.4778,64.6829,-0.1517,-0.1461,-0.3577,172.6699
20:30:49:665,-1.462,2.2397,8.7362,65.6783,-0.4291,-0.2059,-0.4053,173.0633
20:30:49:684,-1.4812,2.1152,8.6907,65.2305,-0.627,-0.2182,-0.4102,173.4662
20:30:49:702,-1.584,2.0985,8.5831,63.3981,-0.6624,-0.1229,-0.3552,173.7889
20:30:49:720,-1.7348,2.1966,8.3773,64.4357,-0.5305,0.0115,-0.2367,173.9274
20:30:49:740,-1.6534,2.2756,8.016,62.825,-0.2971,0.1068,-0.1035,173.8875
20:30:49:760,-1.3161,2.5053,7.6929,64.0168,-0.0736,0.1447,0.0137,173.7327
20:30:49:782,-1.0887,3.0293,7.4465,63.8452,0.062,0.1324,0.1054,173.4736
20:30:49:800,-0.8519,3.1777,7.3029,63.5661,0.0962,0.0909,0.1726,173.1554
20:30:49:820,-1.0074,3.1178,7.2766,63.4643,0.0779,0.003,0.1872,172.8597
20:30:49:839,-0.7777,2.7135,8.004,63.6453,0.1121,0.0433,0.1982,172.531
20:30:49:859,-1.0313,2.8355,8.1763,65.2088,0.7291,0.6382,0.1713,172.038
20:30:49:880,-1.4883,3.3954,6.798,63.2967,1.109,0.2351,0.1567,171.6723
20:30:49:899,-0.6628,3.4935,6.2979,61.9223,0.7108,-0.6555,0.2153,171.5767
20:30:49:921,-0.0455,2.9599,6.4822,62.8793,-0.0394,-1.0783,0.1494,171.735
20:30:49:947,-0.414,2.7517,8.6118,62.0583,-0.7553,-0.8009,0.0589,171.8683
20:30:49:970,0.2536,2.4718,11.2415,60.3577,-1.1365,-0.4393,0.004,171.9359
20:30:49:999,0.5791,2.7254,12.6293,61.9705,-1.1658,-0.377,-0.0803,172.0681
20:30:49:999,1.3161,2.2469,13.8066,61.4041,-0.8994,-0.1473,-0.1267,172.1885
20:30:50:018,1.1725,2.0028,13.7276,59.6161,-0.4169,0.0274,-0.2672,172.3989
20:30:50:038,1.0026,1.7396,12.8423,60.5187,0.0889,0.0995,-0.4102,172.7526
20:30:50:058,1.3926,1.4213,12.2321,60.577,0.4163,0.0408,-0.4358,173.1481
20:30:50:079,1.7563,1.0911,12.3541,57.1275,0.106,-0.4344,-0.5861,174.4652
20:30:50:103,1.2754,1.06,12.1795,59.5082,-0.2886,-0.5749,-0.6203,175.2426
20:30:50:120,1.273,0.7633,11.5023,59.6784,-0.4987,-0.289,-0.4725,175.7696
20:30:50:139,1.4764,0.8088,10.4901,59.4973,-0.445,0.1263,-0.2941,175.9926
20:30:50:159,1.9358,1.0337,9.4899,60.2847,-0.2422,0.2595,-0.255,176.1385
20:30:50:181,2.5244,1.2203,8.5591,57.3209,-0.0406,0.1581,-0.3638,176.4452
20:30:50:206,2.6393,1.4142,8.1141,58.6865,0.0474,0.0017,-0.6582,177.1168
20:30:50:219,2.3617,1.3878,7.9202,57.917,-0.0296,-0.1498,-1.0125,178.1893
20:30:50:239,1.3639,1.1222,7.9992,58.6338,-0.2287,-0.2622,-1.291,179.5969
20:30:50:259,0.3829,1.0648,8.2481,57.6675,-0.4144,-0.3269,-1.4144,181.1199
20:30:50:290,0.0072,1.1174,8.0925,58.183,-0.4523,-0.3354,-1.3741,182.6082
20:30:50:299,0.2177,1.2658,7.6618,58.0598,-0.3277,-0.1827,-1.2226,183.8919
20:30:50:319,0.4235,1.5864,7.4273,56.9523,-0.131,0.0506,-1.1115,185.0047
20:30:50:342,0.6413,2.0554,7.3149,56.922,0.0437,0.1447,-1.0858,186.082
20:30:50:358,0.6891,2.4167,7.547,56.922,0.1427,0.1044,-1.1237,187.2009
20:30:50:379,0.4379,2.6584,7.7001,56.922,0.1634,0.0139,-1.2263,188.4394
20:30:50:398,-0.0048,2.5555,7.7886,56.922,0.1219,-0.0459,-1.3411,189.7978
20:30:50:419,-0.4379,2.2995,8.406,56.922,0.0376,-0.0459,-1.3753,191.1808
20:30:50:439,-0.6772,2.1296,9.4947,56.922,-0.0443,-0.1119,-1.3448,192.5329
20:30:50:461,-1.2443,2.2469,10.3872,53.7388,-0.0601,-0.1937,-1.2862,193.8263
20:30:50:492,-1.7731,2.3426,11.2822,54.6876,0.0779,-0.0764,-1.1273,194.9601
20:30:50:501,-1.9597,2.2684,11.1936,53.2884,0.3394,0.1874,-0.9013,195.7849
20:30:50:531,-1.7922,2.1775,10.7079,54.2097,0.5568,0.4709,-0.6961,196.3388
20:30:50:553,-2.5866,2.7661,9.6239,51.874,0.4163,0.8032,-0.4138,196.8773
20:30:50:569,-3.0054,3.1466,9.6957,51.874,0.1964,0.9266,-0.2575,196.8013
20:30:50:581,-2.881,2.8953,10.404,51.46,0.0095,1.0329,-0.1524,196.5824
20:30:50:600,-2.5053,2.0459,11.1697,51.4837,-0.1469,0.8508,-0.266,196.5509
20:30:50:619,-2.723,1.3424,12.1005,50.8238,-0.3216,0.3548,-0.5971,197.0101
20:30:50:646,-3.2686,0.9332,12.4044,52.3966,-0.4499,-0.0874,-0.8879,197.913
20:30:50:670,-3.8548,0.8471,12.3517,50.5867,-0.4437,-0.0838,-0.9086,198.8214
20:30:50:685,-3.7232,0.7322,11.5573,51.8049,-0.3045,0.2167,-0.6631,199.4047
20:30:50:701,-3.0604,0.7059,10.5906,50.1686,-0.1151,0.4244,-0.354,199.5952
20:30:50:720,-2.4239,1.1127,9.9541,50.9937,0.0144,0.4098,-0.1829,199.6229
20:30:50:739,-1.8999,1.3591,9.4373,51.5248,0.0339,0.1789,-0.1878,199.7245
20:30:50:760,-1.4285,1.2778,8.985,49.2897,-0.0027,-0.0593,-0.3039,200.0076
20:30:50:794,-1.6845,1.1749,8.5041,49.1858,-0.0296,-0.1852,-0.4578,200.4844
20:30:50:810,-2.1368,1.1916,7.9514,49.2897,0.0058,-0.1974,-0.5263,201.0202
20:30:50:824,-2.4885,1.2467,7.4202,50.3843,0.0999,-0.1815,-0.4627,201.4776
20:30:50:840,-2.7039,1.3137,6.999,49.3553,0.2086,-0.2023,-0.3271,201.7698
20:30:50:861,-2.9073,1.5697,6.7071,49.1983,0.2966,-0.2573,-0.1829,201.9163
20:30:50:881,-2.7876,1.7803,6.408,49.1983,0.3613,-0.2817,-0.0253,201.91
20:30:50:901,-2.5029,1.9358,6.195,50.8903,0.3956,-0.2475,0.1322,201.7313
20:30:50:921,-2.2229,2.1631,6.3386,49.084,0.3723,-0.1949,0.2324,201.4396
20:30:50:941,-1.8664,2.3809,6.719,48.5542,0.2807,-0.228,0.263,201.1242
20:30:50:964,-1.6774,2.4622,7.2383,49.7939,0.1647,-0.3049,0.2434,200.8504
20:30:50:981,-1.7874,2.5077,8.0136,48.3448,0.0706,-0.3831,0.153,200.7032
20:30:51:001,-1.8951,1.5482,9.3607,48.7106,0.0559,-0.6482,-0.1084,200.7354
20:30:51:020,-1.7444,0.8255,9.9972,48.894,0.1146,-0.6934,-0.15,201.0046
20:30:51:041,-1.6128,0.3278,10.8156,49.9416,0.1072,-0.7215,-0.1145,201.4834
20:30:51:066,-1.943,0.6365,11.7224,47.4494,-0.0211,-0.7386,-0.0791,201.6497
20:30:51:083,-1.651,0.8207,12.0215,48.0511,-0.197,-0.6446,-0.0131,201.7286
20:30:51:227,-0.7968,0.5192,11.9617,47.6999,-0.3326,-0.355,0.0724,201.6615
20:30:51:229,0.1436,0.4475,11.8756,48.9952,-0.4254,-0.063,0.153,201.4621
20:30:51:229,1.2419,0.3135,12.1723,51.6512,-0.5244,-0.0557,0.1799,201.2305
20:30:51:230,1.3663,0.4618,12.7059,50.3788,-0.6991,-0.3758,-0.0351,201.307
20:30:51:231,0.4594,0.6269,13.1557,50.1335,-0.8946,-0.5822,-0.4395,201.8278
20:30:51:232,-0.2465,0.3398,12.9595,49.4687,-0.9202,-0.3501,-0.646,202.5115
20:30:51:232,-0.6652,0.3135,12.2297,47.9234,-0.7492,0.0591,-0.5348,203.012
20:30:51:248,-0.3326,0.591,11.4281,48.3585,-0.5024,0.323,-0.2404,203.1641
20:30:51:265,0.8758,0.7155,10.8347,48.564,-0.2776,0.2913,0.0309,203.0698
20:30:51:285,1.8855,0.8925,10.0666,49.0174,-0.1102,0.1239,0.0883,202.9506
20:30:51:300,2.0698,1.0217,9.2004,48.161,0.0095,0.0946,-0.095,203.0417
20:30:51:319,1.4142,0.9021,8.2576,47.9867,0.0828,0.1984,-0.398,203.4398
20:30:51:340,0.4786,0.7753,7.602,47.8296,0.1121,0.2277,-0.6863,204.1352
20:30:51:360,-0.3087,0.8925,7.1737,48.8363,0.1121,0.1153,-0.8634,205.0253
20:30:51:382,-0.5623,0.9236,6.9392,48.8214,0.1146,-0.0019,-0.8903,205.9391
20:30:51:401,-0.3541,0.9811,6.932,49.3031,0.1317,-0.063,-0.8427,206.8236
20:30:51:419,-0.0909,1.0648,6.9846,48.6723,0.1488,-0.0728,-0.8207,207.6737
20:30:51:439,-0.2273,1.328,7.0636,50.465,0.1414,-0.0484,-0.8634,208.5803
20:30:51:462,-0.5886,1.3161,7.4273,49.516,0.0315,-0.1522,-0.971,210.6305
20:30:51:480,-0.9141,1.3854,7.791,49.6473,-0.0675,-0.2157,-1.0039,211.7027
20:30:51:500,-1.0217,1.3472,8.3175,48.8214,-0.1872,-0.2353,-0.9697,212.7278
20:30:51:521,-1.2036,1.3304,9.265,49.8317,-0.3301,-0.2341,-0.9099,213.6859
20:30:51:541,-1.5912,1.5984,10.6002,48.5343,-0.4816,-0.2841,-0.839,214.5593
20:30:51:562,-1.9119,1.8042,12.0933,48.5127,-0.5476,-0.3159,-0.7144,215.3039
20:30:51:584,-2.01,1.8377,13.6463,48.878,-0.4499,-0.2964,-0.5421,215.8345
20:30:51:608,-1.4716,1.6343,14.5843,50.0931,-0.2104,-0.388,-0.354,216.2074
20:30:51:620,-1.0911,1.2897,14.4287,47.4632,0.1414,-0.3868,-0.1903,216.3873
20:30:51:641,-1.529,1.1797,13.0552,48.7344,0.497,-0.0997,-0.1023,216.4318
20:30:51:660,-2.0339,0.9643,11.2463,50.0229,0.7059,0.2852,-0.0351,216.3737
20:30:51:681,-2.2253,0.8973,10.0762,48.5343,0.6741,0.4599,0.0162,216.2158
20:30:51:703,-2.1703,0.9595,9.9948,51.2229,0.4053,0.2864,0.0125,216.0824
20:30:51:719,-2.2277,0.95,10.8012,51.6726,0.0095,-0.0215,-0.0315,216.0167
20:30:51:739,-2.5149,0.7777,11.6746,50.6911,-0.2947,-0.1571,-0.0779,216.0231
20:30:51:760,-2.4598,0.2082,12.0048,52.927,-0.3497,-0.129,-0.0889,216.0305
20:30:51:783,-1.9023,-0.3685,11.8828,51.5694,-0.2128,-0.1314,-0.0828,216.0298
20:30:51:804,-1.7037,-0.0718,11.7655,50.6114,-0.0907,-0.2524,-0.1365,216.0935
20:30:51:819,-1.5601,0.0909,11.5071,50.7882,-0.0711,-0.3135,-0.1903,216.2536
20:30:51:839,-1.7635,0.1938,11.0907,50.7802,-0.098,-0.1607,-0.2061,216.3918
20:30:51:859,-1.7348,0.2106,10.2867,52.1942,-0.0443,0.0995,-0.1536,216.4637
20:30:51:881,-1.2371,0.079,9.1143,53.1411,0.139,0.3414,-0.0241,216.3562
20:30:51:901,-1.017,0.1938,8.0016,52.5796,0.3601,0.4721,0.098,216.1091
20:30:51:920,-1.1294,0.8279,7.1043,53.5212,0.497,0.1776,0.1958,215.7919
20:30:51:939,-1.1653,0.3087,7.1497,51.9011,0.4505,-0.0447,0.2019,215.5496
20:30:51:994,-1.8736,0.7513,7.48,51.3556,0.3638,-0.2182,0.2019,214.917
20:30:51:995,-1.9549,1.2036,7.7767,53.2694,0.3186,-0.278,0.3363,214.4771
20:30:52:001,-1.5123,1.4477,7.5541,53.0033,0.4151,-0.1571,0.5537,213.7959
20:30:52:018,-1.2227,1.5027,6.9583,52.3199,0.6314,0.0799,0.6869,212.9309
20:30:52:039,-1.2634,1.8521,6.5061,53.4793,0.8012,0.2155,0.7065,212.0353
20:30:52:065,-1.2993,2.2397,6.5874,53.6533,0.8,0.1227,0.6918,211.1659
20:30:52:080,-1.1438,2.7805,7.4728,52.7319,0.6301,-0.1534,0.6441,210.4232
20:30:52:101,-0.1603,2.5172,8.7553,53.5349,0.3858,-0.4845,0.5623,209.8524
20:30:52:118,0.9906,1.7468,9.8369,55.2611,0.1805,-0.7631,0.3717,209.5812
20:30:52:139,1.2921,1.1821,10.6002,53.0849,0.0632,-0.7997,0.0956,209.6058
20:30:52:160,1.2706,0.8925,10.9424,54.9996,-0.0064,-0.5859,-0.0828,209.7749
20:30:52:181,0.7633,1.0361,11.3013,51.7573,-0.1298,-0.2964,-0.1646,209.917
20:30:52:202,0.4427,1.0361,11.4401,54.1309,-0.3094,-0.0948,-0.1817,210.0583
20:30:52:220,0.682,0.7968,11.6076,53.4238,-0.4474,0.0213,-0.1438,210.1299
20:30:52:239,0.9978,0.6054,11.7823,53.8387,-0.506,0.0946,-0.106,210.1331
20:30:52:262,1.3567,0.4881,11.9521,53.5142,-0.5,0.141,-0.0889,210.131
20:30:52:282,1.7803,0.4211,11.9689,52.1035,-0.4853,0.1972,-0.1487,210.1939
20:30:52:299,2.2636,0.0359,11.7248,54.6378,-0.4938,0.2925,-0.2758,210.4081
20:30:52:319,2.1392,-0.1938,11.6028,52.0275,-0.5635,0.3756,-0.4762,210.8067
20:30:52:339,1.4812,0.0096,11.8181,53.2004,-0.6893,0.3377,-0.6973,211.4652
20:30:52:359,1.0241,0.055,11.665,50.5967,-0.7247,0.2339,-0.8182,212.2612
20:30:52:383,0.7442,-0.0957,9.387,52.9328,-0.2031,0.1239,-0.8476,213.0645
20:30:52:404,0.3517,0.0694,8.1356,52.1833,0.1683,0.0469,-0.8964,214.8764
20:30:52:425,-0.1986,0.3254,7.1713,53.3636,0.4053,-0.1485,-0.9795,215.8642
20:30:52:438,-0.6245,0.5791,6.5803,51.86,0.4591,-0.3575,-1.0211,216.8782
20:30:52:458,-0.8997,0.6891,6.3051,52.0006,0.3821,-0.4295,-1.0174,217.9036
20:30:52:478,-1.0002,0.737,6.2548,52.1761,0.2538,-0.3538,-0.9893,218.8889
20:30:52:500,-1.1892,0.9739,6.3386,53.0502,0.1304,-0.2341,-0.9453,219.8089
20:30:52:520,-1.2371,1.1749,6.5348,50.9076,0.0266,-0.1192,-0.8683,220.621
20:30:52:539,-1.2658,1.3567,6.9009,51.9157,-0.0675,-0.0716,-0.7791,221.3291
20:30:52:561,-1.3448,1.462,7.5422,50.1804,-0.1579,-0.0679,-0.7168,221.9622
20:30:52:584,-1.6726,1.6678,8.5807,52.0903,-0.2483,-0.1082,-0.6814,222.5718
20:30:52:601,-1.8066,1.6271,9.9518,51.2933,-0.3204,-0.2182,-0.6338,223.1127
20:30:52:620,-1.9143,1.3495,11.0668,51.5708,-0.3191,-0.3745,-0.558,223.5609
20:30:52:639,-2.4766,1.6056,11.9785,50.7268,-0.2226,-0.4124,-0.4175,223.858
20:30:52:660,-2.5603,1.797,12.4499,51.2641,-0.0919,-0.3245,-0.1622,223.8733
20:30:52:680,-2.2086,1.7994,12.7083,50.1617,-0.0064,-0.1216,0.1396,223.5499
20:30:52:699,-1.7372,1.6558,12.6915,50.6794,0.0303,0.2057,0.4047,222.9304
20:30:52:718,-1.6008,1.7731,12.3996,50.8719,0.0645,0.5735,0.616,222.0096
20:30:52:738,-1.6319,1.8951,11.866,50.0901,0.1084,0.7299,0.7431,220.9619
20:30:52:759,-1.194,1.6582,11.3539,49.2837,0.1524,0.604,0.737,219.9376
20:30:52:782,-0.682,0.9954,11.519,49.8929,0.1219,0.2754,0.5831,219.0961
20:30:52:806,-0.6293,0.6532,12.3398,48.0586,-0.0601,-0.1485,0.3204,218.5958
20:30:52:820,-1.0935,0.5336,13.0146,48.5784,-0.2739,-0.2096,0.1445,218.2418
20:30:52:837,-1.2993,0.012,11.0644,49.4679,-0.0381,0.6309,0.3473,217.8244
20:30:52:858,-1.0528,0.2776,9.9518,48.1632,0.216,0.6395,0.4511,216.5759
20:30:52:883,-0.6915,0.8351,9.4612,47.9586,0.2832,0.3194,0.4181,215.9015
20:30:52:899,-0.1507,0.9093,9.2531,47.4778,0.1573,0.0152,0.2605,215.4505
20:30:52:926,-0.2704,0.8159,9.1167,49.6888,-0.0333,0.0079,0.0284,215.2711
20:30:52:937,-0.7944,0.737,8.7984,46.4135,-0.1505,0.2192,-0.1219,215.1868
20:30:52:959,-1.1246,0.4738,8.4419,47.4915,-0.1298,0.3414,-0.1292,215.0941
20:30:52:982,-1.4836,0.5695,8.2289,45.9494,-0.0369,0.2534,-0.0583,214.9141
20:30:53:001,-1.5793,0.9595,8.0447,47.3007,0.0657,0.097,0.0785,214.6184
20:30:53:020,-1.3783,1.127,7.7623,47.5657,0.183,0.0249,0.2312,214.1515
20:30:53:038,-1.084,1.2443,7.5589,45.5247,0.3003,-0.0166,0.3057,213.6067
20:30:53:058,-0.7753,1.3041,7.5422,46.9107,0.3821,-0.0752,0.3277,213.0999
20:30:53:080,-0.7968,1.7898,7.7456,45.3773,0.4004,-0.0911,0.3387,212.5697
20:30:53:099,-0.658,1.8329,7.8652,44.9246,0.4286,-0.0312,0.3424,212.0452
20:30:53:120,-0.7107,1.5218,7.5876,44.31,0.5079,0.0188,0.252,211.5954
20:30:53:139,-1.2036,1.4142,7.5781,43.3782,0.5373,-0.0251,0.1017,211.2855
20:30:53:158,-1.5864,1.5601,8.3725,44.3016,0.398,-0.1925,0.0345,211.0607
20:30:53:179,-1.2227,1.6032,9.7507,44.0345,0.1659,-0.4295,0.0577,210.867
20:30:53:198,-0.4355,1.3735,10.8802,43.1022,0.0156,-0.559,0.0553,210.7186
20:30:53:219,0.1172,1.194,11.5717,45.1509,0.0132,-0.4894,-0.0107,210.6541
20:30:53:364,0.4786,1.2347,11.8445,45.189,0.0865,-0.3843,-0.0974,210.6356
20:30:53:365,0.5767,1.3304,12.0622,47.9213,0.1011,-0.3929,-0.2392,210.766
20:30:53:367,0.5934,1.0528,12.658,45.5379,-0.0137,-0.476,-0.4358,211.6862
20:30:53:368,0.926,-0.3876,14.0124,46.1175,-0.2324,-0.5358,-0.7926,212.632
20:30:53:368,0.0239,-0.3852,13.9669,44.4867,-0.1652,-0.3257,-0.8732,213.3456
20:30:53:368,-0.5934,-0.1268,12.9571,42.9582,0.0571,0.0628,-0.7804,213.9021
20:30:53:368,-0.2177,0.0502,11.4927,42.2161,0.3943,0.4611,-0.4676,214.083
20:30:53:378,0.7777,0.0742,9.9374,43.8743,0.7022,0.5771,-0.1817,214.0071
20:30:53:397,1.6654,0.2441,8.8798,41.7621,0.8061,0.3133,-0.1206,213.9223
20:30:53:418,2.2229,0.4762,8.4419,41.5652,0.6314,-0.1107,-0.3039,214.1424
20:30:53:438,2.0076,0.5791,8.4921,43.4964,0.2978,-0.2096,-0.6069,214.7087
20:30:53:458,1.206,0.4762,8.4945,42.1643,-0.0137,0.0384,-0.8683,215.4451
20:30:53:482,0.3948,0.524,8.4538,41.6016,-0.2226,0.2717,-0.9929,216.2393
20:30:53:497,-0.201,0.7274,8.5113,40.4294,-0.3472,0.3035,-1.0003,217.0333
20:30:53:518,-0.8949,1.1892,8.7625,41.0223,-0.4083,0.2632,-0.9428,217.795
20:30:53:539,-1.2538,1.395,8.796,41.3524,-0.3912,0.2155,-0.8634,218.4802
20:30:53:557,-1.2897,1.3615,8.5926,41.6283,-0.2593,0.2155,-0.784,219.0379
20:30:53:579,-1.3663,1.584,8.3844,41.8014,-0.0711,0.2509,-0.7352,219.5826
20:30:53:599,-1.2491,1.9406,8.1523,41.8395,0.1243,0.2558,-0.6264,219.9946
20:30:53:620,-0.9117,2.3258,7.8341,41.4936,0.3198,0.2253,-0.4554,220.2551
20:30:53:637,-0.7466,2.5819,7.3866,40.2412,0.4909,0.1532,-0.3442,220.4348
20:30:53:659,-0.9069,2.8187,7.2694,39.783,0.5727,0.0433,-0.3723,220.6546
20:30:53:682,-1.1964,2.8618,7.3603,39.9798,0.5348,-0.1156,-0.4762,221.0076
20:30:53:698,-1.9095,3.0293,7.6307,41.5633,0.4163,-0.2084,-0.5739,221.4356
20:30:53:720,-2.7709,3.1226,8.205,39.7239,0.2661,-0.1351,-0.5812,221.8248
20:30:53:740,-3.1872,3.3619,9.119,40.0277,0.1182,-0.0838,-0.4383,222.0694
20:30:53:766,-3.1226,3.2399,12.1436,38.7741,0.0303,-0.4295,-0.0938,222.2185
20:30:53:783,-2.4455,2.4766,13.6822,38.6136,0.1854,-0.6947,-0.1011,222.2231
20:30:53:797,-2.0506,1.4859,13.1486,40.0824,0.5837,-0.5603,-0.1182,222.1796
20:30:53:818,-2.6656,1.6917,11.0046,38.9808,1.0712,-0.0056,-0.0363,221.8996
20:30:53:838,-3.1107,2.5125,9.3703,38.4547,1.2227,0.3621,0.1432,221.3161
20:30:53:859,-2.4598,2.4837,9.0257,38.5121,0.8891,0.1251,0.3351,220.6335
20:30:53:883,-1.8831,2.3689,9.9015,39.0041,0.3174,-0.2267,0.3509,220.0523
20:30:53:899,-2.3521,2.4909,10.5667,39.5004,-0.1066,-0.1705,0.2679,219.5195
20:30:53:919,-2.2205,2.077,9.8728,36.862,-0.2593,0.1239,0.2691,218.8878
20:30:53:937,-1.9095,1.6415,9.1095,38.4895,-0.2923,0.2216,0.3106,218.2172
20:30:53:958,-1.8544,1.6941,8.5543,38.6763,-0.3118,0.1361,0.296,217.5689
20:30:53:980,-1.8305,1.7492,8.9228,39.4568,-0.3411,0.0274,0.2752,216.9864
20:30:53:999,-1.2586,1.6367,8.9468,37.5345,-0.3484,-0.1717,0.2581,216.4668
20:30:54:018,-1.1821,1.5577,8.4419,37.5473,-0.2593,-0.1559,0.2251,216.0143
20:30:54:038,-1.3926,1.4405,7.4034,38.403,-0.1444,0.1117,0.2007,215.4898
20:30:54:058,-1.4716,1.5697,6.53,37.6334,-0.1224,0.3304,0.2288,214.8739
20:30:54:081,-1.5147,1.8473,6.1687,38.1619,-0.2336,0.301,0.241,214.2625
20:30:54:099,-1.194,1.9406,6.1567,37.9986,-0.4364,0.0921,0.2141,213.7484
20:30:54:119,-0.9571,2.0578,6.597,36.5219,-0.638,0.0103,0.1677,213.3088
20:30:54:137,-1.4859,2.3521,8.2576,37.5078,-0.7687,0.1019,0.1225,212.8943
20:30:54:157,-1.9454,2.3474,9.7364,37.0256,-0.6527,0.0836,0.1371,212.45
20:30:54:178,-1.7755,2.2014,9.8704,36.069,-0.2006,-0.074,0.2019,211.952
20:30:54:199,-1.3376,2.1559,9.2531,36.1943,0.3015,-0.1546,0.2324,211.4646
20:30:54:219,-1.139,2.2038,9.3894,37.1283,0.4127,-0.2646,0.1225,210.9788
20:30:54:238,-1.0074,2.2612,10.3179,37.5456,0.1598,-0.1351,0.087,210.6374
20:30:54:262,-0.39,1.785,11.1649,36.3253,-0.0785,0.0701,0.0907,210.2747
20:30:54:282,-0.1388,1.407,11.8062,36.1704,-0.1823,0.207,0.0968,209.8993
20:30:54:300,0.1388,1.4453,11.6363,35.5396,-0.1579,0.1911,0.1139,209.5143
20:30:54:318,0.3206,1.5386,11.342,35.1431,-0.1102,0.1056,0.12,209.1707
20:30:54:338,1.1653,0.9284,11.6004,36.2772,-0.1579,-0.1009,0.0504,208.9662
20:30:54:360,1.9119,0.2034,11.9067,34.7693,-0.2605,-0.2536,-0.1035,208.9566
20:30:54:378,2.4957,-0.5623,12.213,35.7105,-0.3766,-0.1999,-0.2611,209.1256
20:30:54:401,2.0315,-0.9141,12.8638,35.9263,-0.4804,-0.0545,-0.4029,209.3912
20:30:54:417,0.3996,0.1771,12.4116,34.5809,-0.4328,0.2277,-0.4981,209.6344
20:30:54:439,-0.0024,0.7609,11.1482,35.3785,-0.1786,0.6847,-0.387,209.7111
20:30:54:457,0.3326,1.0098,9.8752,34.0846,0.0571,0.6932,-0.2135,209.6305
20:30:54:483,0.8566,1.1533,8.7769,34.5809,0.2441,0.4098,-0.1231,209.5207
20:30:54:505,0.8231,1.3591,8.4036,34.4159,0.227,0.1214,-0.1781,209.5212
20:30:54:528,0.2321,1.2443,9.533,35.1431,-0.098,-0.1681,-0.3833,209.7652
20:30:54:537,-0.5192,1.0624,11.2941,33.8414,-0.4059,-0.3013,-0.5959,210.228
20:30:54:561,-1.0457,0.9476,12.1125,33.4787,-0.4046,-0.2646,-0.679,210.7507
20:30:54:579,-1.2921,1.3472,11.263,33.8414,-0.098,-0.0593,-0.6118,211.1505
20:30:54:597,-1.0576,1.6367,9.4182,33.4855,0.3027,0.1117,-0.5079,211.4301
20:30:54:616,-1.2275,1.8377,7.9514,32.5768,0.646,0.0701,-0.5104,211.7096
20:30:54:637,-1.5147,2.278,6.3864,32.6098,0.8635,-0.1864,-0.5434,212.0829
20:30:54:658,-1.663,2.9623,5.1805,32.8275,0.8476,-0.2951,-0.4896,212.4384
20:30:54:683,-1.8185,3.4887,5.9916,32.2374,0.0632,0.1251,-0.4114,213.1175
20:30:54:700,-1.742,3.1729,8.1835,30.8326,-0.3472,0.1092,-0.3784,213.2562
20:30:54:722,-1.6319,3.1035,10.1264,31.4016,-0.4596,-0.0655,-0.277,213.3635
20:30:54:738,-1.5218,3.0054,11.3396,32.5374,-0.2251,-0.1082,-0.1426,213.3247
20:30:54:757,-1.4907,2.9073,10.794,31.2874,0.2355,-0.0178,-0.0437,213.1322
20:30:54:784,-1.8257,2.924,9.7675,32.3309,0.6509,0.0689,-0.0022,212.8576
20:30:54:805,-2.0339,3.1466,9.0186,31.4175,0.8048,0.0188,0.0773,212.5269
20:30:54:818,-1.9358,3.1633,9.198,34.0963,0.7511,-0.0936,0.1555,212.1344
20:30:54:839,-1.9573,2.8929,10.0929,30.7408,0.6106,-0.2475,0.1371,211.7995
20:30:54:859,-1.7994,2.4622,10.9185,28.7396,0.519,-0.2304,0.1164,211.4881
20:30:54:883,-2.0889,2.6632,10.8897,31.4573,0.4701,0.0433,0.1335,211.0772
20:30:54:902,-2.0124,2.7063,10.5858,31.0491,0.3381,0.3548,0.1408,210.5377
20:30:54:918,-2.187,2.6441,9.7675,31.2769,0.2502,0.6138,0.1164,209.9514
20:30:54:937,-3.1322,2.5053,9.5522,30.3762,0.2208,0.6065,0.0223,209.4084
20:30:54:957,-4.2018,2.388,10.4399,29.1512,0.1781,0.2949,-0.007,208.9617
20:30:54:979,-4.3645,1.8568,10.7533,31.0491,0.3039,-0.0764,0.0907,208.518
20:30:54:999,-4.0271,1.4165,9.5474,28.9621,0.5886,-0.1986,0.2092,207.9935
20:30:55:019,-3.8213,1.0146,8.2576,29.3311,0.6729,-0.2133,0.263,207.4151
20:30:55:037,-4.6253,1.1198,8.7817,29.6197,0.288,-0.3159,0.2605,206.86
20:30:55:057,-4.1204,0.9691,10.2437,30.4314,-0.2996,-0.3196,0.3949,206.1708
20:30:55:080,-3.2518,1.2299,11.531,28.7045,-0.5952,-0.0911,0.6808,205.1223
20:30:55:098,-2.1583,1.3232,11.0477,29.3974,-0.4706,0.0653,0.9545,203.7855
20:30:55:119,-0.8088,1.9214,9.5067,27.8188,-0.12,0.0677,1.106,202.3502
20:30:55:138,-1.9382,1.8185,6.6521,29.7565,0.4139,-0.019,0.7175,201.129
20:30:55:159,-2.187,1.3495,5.8146,30.0296,0.4872,0.0237,0.6784,199.2588
20:30:55:181,-2.589,1.6056,5.8792,28.6892,0.3723,0.2192,0.8127,197.9832
20:30:55:198,-2.0315,1.986,6.1902,28.4369,0.1549,0.455,1.0754,196.3841
20:30:55:218,-1.6128,2.3234,6.8913,28.5124,-0.0455,0.4599,1.1952,194.6945
20:30:55:237,-1.6678,2.3665,7.3316,28.3941,-0.1212,0.2925,1.1622,193.0663
20:30:55:257,-2.3593,2.4096,7.1019,27.9388,-0.0699,0.3609,1.1463,191.4096
20:30:55:278,-2.9264,2.5986,8.0423,29.3407,-0.1456,0.5808,1.1976,189.603
20:30:55:299,-2.9456,2.5938,10.2628,26.0207,-0.3338,0.5173,1.3344,187.6887
20:30:55:318,-2.4837,2.5436,12.2225,27.4014,-0.4132,0.3829,1.4676,185.7402
20:30:55:343,-1.2969,2.924,13.0409,27.8126,-0.3863,0.5478,1.5482,183.7091
20:30:55:356,-0.7083,3.3021,14.0363,27.7313,-0.2287,0.7005,1.4456,181.7144
20:30:55:435,-1.1773,2.8522,11.7344,29.6862,0.2746,0.1654,1.0559,180.2796
20:30:55:436,-0.9428,3.0102,10.3609,27.6487,0.4566,-0.0496,0.8604,179.0963
20:30:55:437,-1.2491,3.2255,10.4447,28.7157,0.1976,0.0372,0.7822,177.9711
20:30:55:437,-0.8638,3.2566,11.3587,26.8068,-0.0748,0.4061,0.748,176.7626
20:30:55:456,-0.079,3.0245,11.5549,26.3522,-0.1676,0.5808,0.7101,175.653
20:30:55:477,0.1938,2.5962,10.5858,26.4102,-0.0736,0.0384,0.6051,174.8188
20:30:55:499,1.2419,2.4909,10.4303,26.3977,-0.0613,-0.4381,0.4475,174.3861
20:30:55:526,0.9212,2.3115,10.4255,26.6482,-0.1823,-0.0557,0.2789,173.9464
20:30:55:538,0.2823,2.2732,9.478,28.1711,-0.2165,0.7311,0.2593,173.2069
20:30:55:556,0.9236,1.9693,8.6189,27.6409,-0.2177,1.05,0.4352,172.1851
20:30:55:579,1.0026,1.9741,9.009,27.6409,-0.3656,0.6285,0.4707,170.8201
20:30:55:603,0.7442,1.6104,9.7723,26.8039,-0.6796,-0.3929,0.1273,170.9048
20:30:55:618,0.469,1.4572,8.8367,25.7394,-0.5842,-0.4588,0.0406,170.8058
20:30:55:636,0.4786,1.3519,8.1643,26.3221,-0.445,-0.2793,-0.0644,170.759
20:30:55:656,0.1938,1.5194,7.7121,26.2105,-0.3045,-0.2047,-0.1988,170.8007
20:30:55:678,-1.3543,2.9073,7.5709,24.1486,-0.2422,-0.3367,-0.2502,170.8802
20:30:55:704,-1.2754,3.1154,7.1091,25.2307,-0.1493,-0.4686,-0.2086,170.9496
20:30:55:723,-1.4237,2.747,6.7789,24.5726,0.0181,-0.3013,-0.1793,170.9225
20:30:55:736,-1.8688,2.5675,6.2596,25.3013,0.1866,-0.1314,-0.1756,170.8239
20:30:55:756,-2.412,2.7254,6.3625,25.0026,0.2123,-0.1754,-0.1878,170.7009
20:30:55:777,-2.668,2.6991,6.932,24.1486,0.0767,-0.3807,-0.2013,170.6917
20:30:55:803,-2.1679,2.4287,7.7504,25.3013,-0.0027,-0.5077,-0.1414,170.6738
20:30:55:816,-1.5075,2.3497,8.0997,22.6527,0.0168,-0.4992,-0.062,170.5586
20:30:55:836,-0.8207,2.2971,8.3964,23.7749,0.0804,-0.1656,0.0125,170.3169
20:30:55:856,-1.2538,2.4215,8.9587,24.0785,0.0584,0.2106,0.0589,169.8813
20:30:55:878,-2.3139,2.6656,9.32,24.1459,-0.0479,0.3401,0.1762,169.2683
20:30:55:897,-2.6895,2.9815,9.7197,24.0416,-0.1652,0.2668,0.4768,168.3401
20:30:55:916,-1.8544,3.2207,10.2173,23.3241,-0.2556,0.1349,0.8958,167.0245
20:30:55:936,-0.6532,3.405,11.7655,23.0089,-0.3155,0.0372,1.2306,165.4357
20:30:55:956,0.1077,3.606,13.1151,22.6077,-0.302,-0.0349,1.3491,163.7544
20:30:55:980,-0.256,3.6251,13.017,23.3089,-0.1456,0.0311,1.299,162.1299
20:30:56:007,-1.1653,3.6682,12.146,23.517,0.0523,0.2607,1.2294,160.4414
20:30:56:017,-1.4859,3.2375,11.0907,22.5168,0.1683,0.4916,1.2233,158.6936
20:30:56:041,-1.8544,3.2184,10.0642,21.435,0.1256,0.5454,1.3027,156.9203
20:30:56:059,-1.5338,3.1681,9.935,23.6344,0.0962,0.5173,1.3552,155.3277
20:30:56:081,-1.6989,3.2088,10.3083,21.0843,0.0791,0.4171,1.3246,151.6478
20:30:56:098,-2.0172,2.735,10.6792,22.3996,0.084,0.0982,1.2061,150.0614
20:30:56:119,-2.2708,2.0961,10.8156,21.0233,0.1194,-0.3733,1.0155,148.8217
20:30:56:138,-2.3545,1.6702,10.5141,22.4212,0.1781,-0.6348,0.8616,147.8376
20:30:56:157,-1.9501,1.2371,9.789,21.64,0.2086,-0.5028,0.8897,146.7665
20:30:56:177,-1.4309,1.1629,8.7553,23.5226,0.1866,-0.1119,1.0437,145.4457
20:30:56:207,-0.9021,1.0696,7.5924,20.021,0.1097,0.2998,1.2147,143.7995
20:30:56:216,-0.5695,0.8614,6.4152,21.0397,0.0168,0.6505,1.3307,141.9792
20:30:56:238,-0.7872,1.0289,6.1496,20.4983,-0.1359,0.819,1.3552,140.0749
20:30:56:257,-0.9667,1.3185,6.463,20.2499,-0.335,0.6932,1.3747,138.1963
20:30:56:291,-0.7561,1.5577,6.9009,19.8621,-0.4804,0.4415,1.4554,136.2895
20:30:56:299,-0.3805,1.5697,7.2694,19.5418,-0.5427,0.2681,1.5446,134.3745
20:30:56:333,0.055,1.4309,7.8413,21.536,-0.5574,0.2803,1.5934,132.4156
20:30:56:339,-0.0263,1.541,8.1499,19.312,-0.5219,0.4,1.558,130.436
20:30:56:357,-0.2106,1.7731,8.7625,18.9237,-0.4364,0.5014,1.5055,128.4985
20:30:56:377,0.1172,1.9717,9.7699,19.6811,-0.3472,0.3768,1.4688,126.6399
20:30:56:398,0.7083,1.9908,10.7845,20.3997,-0.2165,0.0995,1.3576,124.9829
20:30:56:418,0.8327,2.0411,10.9185,19.3061,0.0168,-0.0276,1.1499,123.5784
20:30:56:439,0.7346,2.1344,10.6887,20.8081,0.2208,-0.0349,0.9239,122.4289
20:30:56:458,0.8351,2.0937,10.8754,18.9242,0.1964,-0.1192,0.6991,121.5473
20:30:56:481,1.1222,1.6845,11.0357,18.362,0.0022,-0.2524,0.4548,120.9558
20:30:56:501,-0.323,1.151,10.8299,19.1536,-0.4156,0.2717,0.1982,120.3485
20:30:56:519,-0.213,0.8782,10.952,18.5977,-0.5855,0.659,0.412,119.6142
20:30:56:537,0.7226,0.4857,11.6578,19.2676,-0.7932,0.6676,0.6026,118.6988
20:30:56:557,1.742,-0.055,13.0074,20.4451,-0.9691,0.312,0.544,117.9619
20:30:56:582,1.529,-0.2752,14.3354,19.6583,-0.9727,-0.1742,0.252,117.6343
20:30:56:597,0.938,-0.2967,14.4527,17.1604,-0.6942,-0.432,0.0309,117.5644
20:30:56:617,0.9428,-0.5121,13.0624,18.2062,-0.1713,-0.3086,0.0638,117.4709
20:30:56:636,1.2084,-0.4259,10.9831,19.124,0.3418,-0.0679,0.1909,117.1981
20:30:56:656,1.6893,-0.0957,9.2889,19.6583,0.5544,-0.0215,0.2776,116.8099
20:30:56:681,2.053,0.3398,8.6405,17.238,0.4224,-0.0874,0.2666,116.4062
20:30:56:698,2.0602,0.6389,8.5352,19.8768,0.1634,-0.0679,0.1188,116.1536
20:30:56:715,1.6343,0.6293,8.0471,19.9396,0.0168,0.0714,-0.1084,116.1306
20:30:56:736,1.0409,0.6867,7.5135,20.5666,-0.0271,0.1838,-0.3222,116.2985
20:30:56:756,0.5838,0.8519,7.0732,20.3629,-0.0308,0.2326,-0.4371,116.5696
20:30:56:779,0.3326,1.017,6.6449,19.0163,0.0058,0.2522,-0.4627,116.8659
20:30:56:802,0.1795,1.1605,6.4534,19.8918,0.0718,0.2229,-0.4407,117.1355
20:30:56:817,0.1053,1.4572,6.451,18.5098,0.1353,0.1056,-0.4102,117.3766
20:30:56:836,0.3254,1.7013,6.4702,18.4836,0.1879,-0.0593,-0.3992,117.6271
20:30:56:857,0.2249,2.1129,6.5922,19.8768,0.2148,-0.1522,-0.4334,117.9357
20:30:56:880,0.1555,2.4167,6.6138,20.0598,0.1805,-0.2047,-0.4957,118.2829
20:30:56:897,0.2823,2.5938,6.7286,19.9564,0.0547,-0.2524,-0.5788,118.7764
20:30:56:920,0.2177,2.7254,7.2383,19.4975,-0.2214,-0.267,-0.7266,119.411
20:30:56:937,-0.7035,3.125,8.8678,18.0322,-0.6221,-0.151,-0.916,120.2069
20:30:56:957,-2.7685,3.3763,13.4931,20.4365,-1.0497,0.1874,-0.9746,121.9953
20:30:56:980,-2.2636,3.3404,15.472,20.0665,-0.8652,0.1105,-0.6448,122.4269
20:30:56:997,-0.9476,2.656,16.1372,18.4718,-0.4034,-0.0899,-0.1487,122.4022
20:30:57:020,-0.7609,2.6488,15.9984,19.0522,0.1854,-0.2414,0.2593,121.9199
20:30:57:036,-1.1294,2.9312,15.082,21.4997,0.7352,-0.4014,0.4878,121.2194
20:30:57:055,-1.2778,2.7948,13.6128,18.1871,1.1408,-0.5334,0.6112,120.4291
20:30:57:078,-1.3041,2.6848,11.8851,19.0522,1.3681,-0.4979,0.6759,119.6089
20:30:57:096,-1.127,2.3976,10.2724,19.6029,1.4096,-0.245,0.748,118.646
20:30:57:117,-0.7777,2.0698,9.533,19.7936,1.2214,-0.0019,0.7944,117.6152
20:30:57:136,-0.4642,1.785,9.4253,19.2008,0.8378,0.0164,0.77,116.6395
20:30:57:156,-1.1198,2.077,9.5282,20.6841,0.4652,-0.0264,0.715,115.709
20:30:57:178,-1.2658,1.8497,9.3918,19.0758,0.2624,0.0225,0.6942,114.7848
20:30:57:198,-1.1629,1.3328,8.9228,20.5616,0.2025,0.1031,0.6552,113.9066
20:30:57:217,-1.3472,1.1222,8.284,20.4881,0.1292,0.1447,0.5452,113.1495
20:30:57:236,-1.6271,1.0816,7.858,18.982,-0.0626,0.196,0.4646,112.4322
20:30:57:257,-2.0961,1.0528,8.1643,19.1789,-0.3374,0.3157,0.4914,111.6656
20:30:57:278,-2.144,0.8614,8.4514,21.4615,-0.5342,0.3805,0.6197,110.7375
20:30:57:297,-1.8114,0.5958,8.1882,20.9751,-0.517,0.4232,0.8201,109.5982
20:30:57:319,-1.4931,0.6197,7.5924,19.3483,-0.3252,0.5185,1.0388,108.2589
20:30:57:337,-1.1844,0.8782,6.9176,18.3023,-0.1127,0.582,1.2343,106.6489
20:30:57:357,-0.7083,1.1868,6.3506,18.0559,0.0034,0.5258,1.3943,104.8935
20:30:57:382,-0.2704,1.4907,6.0849,21.0508,0.0132,0.4244,1.4957,103.0467
20:30:57:396,-0.1316,1.9143,6.262,20.2052,-0.0528,0.3438,1.5213,101.1571
20:30:57:420,0.1938,2.3713,6.8746,19.5559,-0.1811,0.2082,1.3906,97.8088
20:30:57:436,0.3541,2.5196,7.6594,21.6373,-0.2678,0.1263,1.2343,96.3033
20:30:57:529,0.6963,2.4503,9.0856,21.0977,-0.4095,-0.0557,1.0522,95.0413
20:30:57:530,1.4285,2.0961,10.6935,21.4038,-0.506,-0.3122,0.8567,94.0419
20:30:57:530,2.1152,1.5601,11.8804,20.4775,-0.4267,-0.5089,0.6319,93.3499
20:30:57:531,2.4885,1.0528,12.5145,19.2593,-0.2324,-0.614,0.3363,93.0349
20:30:57:545,2.3976,0.725,12.8064,18.6965,-0.1041,-0.7117,-0.018,93.1976
20:30:57:557,2.0554,0.4834,12.8638,18.5873,-0.1163,-0.7447,-0.3454,93.6674
20:30:57:575,1.5242,0.2584,12.4642,18.4638,-0.1896,-0.5651,-0.5605,94.3706
20:30:57:598,1.1366,-0.055,11.7751,19.3012,-0.2739,-0.1962,-0.6203,95.1036
20:30:57:616,1.2347,-0.3087,11.3994,18.3045,-0.3937,0.1618,-0.5104,95.6139
20:30:57:635,1.7635,-0.3422,11.6578,18.4237,-0.5671,0.2619,-0.3222,95.9099
20:30:57:655,2.2947,-0.3924,12.3565,18.0815,-0.6991,0.1606,-0.2037,96.1302
20:30:57:677,2.3474,-0.414,12.6461,18.6709,-0.6563,0.0995,-0.2269,96.4047
20:30:57:697,1.9071,-0.3924,12.3685,18.9775,-0.4218,0.1667,-0.2917,96.7234
20:30:57:716,1.6295,-0.5216,11.854,17.1473,-0.1188,0.2045,-0.2709,97.0344
20:30:57:737,2.0004,-0.7131,11.1458,20.3652,0.1341,0.0127,-0.1683,97.2518
20:30:57:757,2.7852,-0.5767,10.4184,19.0683,0.3174,-0.2353,-0.0644,97.3735
20:30:57:775,3.1848,-0.2584,9.4301,17.9014,0.4139,-0.2585,-0.0681,97.4936
20:30:57:801,2.5436,0.1507,8.2887,20.2339,0.3907,-0.0459,-0.2184,97.7678
20:30:57:817,1.5027,0.3733,7.3866,20.5395,0.2355,0.1838,-0.448,98.2147
20:30:57:835,0.4618,0.4786,6.7597,20.3652,0.0681,0.3255,-0.6142,98.8394
20:30:57:855,-0.0742,0.5456,6.4223,19.6668,-0.0211,0.3524,-0.6313,99.4216
20:30:57:880,-0.122,0.9834,6.2572,20.1297,0.0425,0.152,-0.4493,100.3982
20:30:57:900,0.1531,1.4357,6.5539,20.0255,0.0657,-0.0178,-0.4102,100.8366
20:30:57:917,0.7322,1.7324,6.9296,19.6829,0.0364,-0.1571,-0.4334,101.2762
20:30:57:937,1.1749,1.998,7.7025,20.0017,-0.0528,-0.1974,-0.5263,101.8257
20:30:57:955,1.608,2.0842,8.6477,19.8716,-0.1469,-0.1766,-0.657,102.5323
20:30:57:976,2.2804,2.0961,9.2554,19.3473,-0.1908,-0.1265,-0.8109,103.4455
20:30:57:999,2.5531,2.1679,9.5569,21.2851,-0.1994,-0.0129,-1.0076,104.6176
20:30:58:017,1.9669,2.321,10.0211,20.2792,-0.2361,0.1349,-1.2397,105.9095
20:30:58:038,0.9595,2.3689,10.3944,20.0601,-0.2849,0.2852,-1.4315,107.4105
20:30:58:060,-0.4092,2.2827,10.9567,19.923,-0.2837,0.4684,-1.5,108.9959
20:30:58:077,-1.6271,2.199,11.9952,20.3445,-0.2825,0.4978,-1.4169,110.4115
20:30:58:095,-2.3785,2.1152,13.5099,19.4087,-0.2739,0.2167,-1.1738,111.6201
20:30:58:115,-2.1344,1.9956,14.735,20.3557,-0.0821,-0.2512,-0.7523,112.4456
20:30:58:136,-1.3376,1.5218,14.278,21.1334,0.4371,-0.5285,-0.2281,112.8218
20:30:58:156,-1.2156,1.6965,12.4331,20.5097,1.0858,-0.3575,0.1823,112.7206
20:30:58:181,-0.9165,1.9932,10.27,22.1277,1.4108,-0.0374,0.4365,112.2902
20:30:58:198,-0.6221,2.1727,9.3009,20.4612,1.2056,0.1178,0.5586,111.6941
20:30:58:216,-0.5001,2.0172,9.6503,23.3007,0.6167,0.0201,0.5366,111.2062
20:30:58:236,-0.9093,1.6989,10.7773,21.6453,0.0107,-0.1583,0.4584,110.8223
20:30:58:257,-1.5888,1.5147,11.208,21.3667,-0.2654,-0.173,0.4169,110.4813
20:30:58:280,-2.0195,0.9667,10.3442,20.1384,-0.1298,0.0421,0.4756,110.0544
20:30:58:296,-2.0435,0.5743,9.2195,21.6804,0.1133,0.1752,0.5647,109.5226
20:30:58:317,-1.8927,0.67,8.3605,22.5912,0.1622,0.086,0.6099,109.0002
20:30:58:338,-1.0792,0.7896,8.2385,21.6351,-0.3521,0.0433,0.6588,107.8184
20:30:58:358,-1.2969,0.7513,8.6237,21.4471,-0.638,0.1276,0.6234,107.2568
20:30:58:380,-1.6247,0.548,8.6835,24.0115,-0.7211,0.2119,0.6221,106.7376
20:30:58:401,-1.7683,0.323,8.1906,20.2229,-0.5806,0.29,0.726,106.1148
20:30:58:416,-1.7109,0.134,7.6044,21.9604,-0.3399,0.3389,0.9056,105.2516
20:30:58:434,-1.6223,0.4331,7.1665,23.0839,-0.1505,0.29,1.0913,104.2008
20:30:58:455,-1.127,0.7059,7.2838,24.252,-0.0662,0.1886,1.2807,102.9834
20:30:58:475,-0.5767,0.8112,7.4178,25.2918,-0.0247,0.1068,1.4175,101.684
20:30:58:496,-0.1603,0.9691,7.5541,22.5912,0.0523,0.0811,1.4529,100.3242
20:30:58:516,0.134,1.3089,7.6977,23.6911,0.1292,0.0701,1.4358,99.0168
20:30:58:540,0.6987,1.6343,8.1021,23.1287,0.1549,0.0262,1.4053,97.7378
20:30:58:555,1.3831,1.9143,8.9635,25.1527,0.1133,-0.063,1.3185,96.5899
20:30:58:576,2.321,1.6822,9.9757,25.3288,0.051,-0.2047,1.1047,95.7464
20:30:58:600,2.9695,1.2108,11.0764,25.6573,0.0339,-0.3489,0.7492,95.3472
20:30:58:627,3.1824,0.8829,12.1938,25.2178,0.0205,-0.548,0.3204,95.5049
20:30:58:635,2.9384,0.5097,13.0385,27.0983,-0.0027,-0.7398,-0.0596,96.1082
20:30:58:655,2.668,0.0622,13.0744,26.9549,0.0168,-0.7484,-0.3186,97.0471
20:30:58:675,2.3163,-0.2393,12.457,27.511,0.0816,-0.5224,-0.4713,98.1298
20:30:58:696,2.3282,-0.3685,11.5358,29.438,0.0962,-0.1192,-0.4933,99.214
20:30:58:716,2.6848,-0.414,11.2511,27.1261,-0.0589,0.2656,-0.4322,100.2503
20:30:58:735,3.0389,-0.2991,11.7655,29.0774,-0.368,0.4391,-0.4517,101.2151
20:30:58:757,2.5555,-0.2058,12.5743,28.1943,-0.6417,0.499,-0.613,102.3743
20:30:58:779,1.3472,-0.1723,13.2467,29.0704,-0.7052,0.5307,-0.7767,103.7101
20:30:58:794,0.8662,-0.6269,11.7607,28.9423,-0.0406,0.3792,-0.503,105.0781
20:30:58:814,1.2634,-0.2489,10.5308,28.8606,0.365,0.2204,-0.2171,106.4593
20:30:58:834,1.7659,0.3039,9.3583,30.6025,0.5568,0.0396,-0.0412,107.0575
20:30:58:854,2.0506,0.6413,8.3486,30.1231,0.519,0.0115,-0.0461,107.7128
20:30:58:876,1.6223,0.7633,7.6642,30.0836,0.3455,0.1715,-0.2074,108.537
20:30:58:897,0.9212,0.7657,7.2335,30.0836,0.1488,0.3157,-0.3882,109.4926
20:30:58:915,0.4164,0.7777,6.865,31.2199,0.0205,0.3438,-0.4652,110.5121
20:30:58:935,0.1675,0.8136,6.4965,30.1231,0.0058,0.3353,-0.442,111.558
20:30:58:955,0.1819,0.9284,6.25,29.9601,0.0632,0.3072,-0.3967,112.5096
20:30:58:979,0.2058,1.1892,6.1352,30.3343,0.1048,0.2412,-0.4138,113.4933
20:30:59:002,0.1484,1.4501,6.2596,30.458,0.0779,0.13,-0.5018,114.6056
20:30:59:019,0.0838,1.6056,6.6138,32.1484,-0.0149,0.0152,-0.6277,115.8428
20:30:59:034,0.0814,1.474,7.054,32.5985,-0.153,-0.0606,-0.7596,117.2976
20:30:59:055,0.1029,1.2849,7.5613,33.8563,-0.3228,-0.0593,-0.8512,118.887
20:30:59:077,-0.0694,1.1773,8.3844,33.269,-0.539,0.0628,-0.9319,120.5637
20:30:59:096,-0.3613,1.0696,9.009,34.0343,-0.7712,0.2607,-0.982,122.2719
20:30:59:115,-1.1581,1.0409,9.7843,34.2002,-1.0253,0.4721,-0.9868,123.9109
20:30:59:135,-2.1631,0.9739,10.8538,34.7091,-1.2562,0.5808,-0.8732,125.4321
20:30:59:155,-2.5962,1.1557,12.3565,34.0407,-1.2965,0.5332,-0.514,126.534
20:30:59:175,-1.5649,1.4261,13.5649,34.0721,-1.0351,0.3084,0.0602,127.0573
20:30:59:197,0.2106,1.4142,14.0674,34.9659,-0.478,0.0848,0.6173,127.0383
20:30:59:218,0.8519,1.7037,13.8233,35.1426,0.1964,0.0445,0.8054,126.817
20:30:59:236,0.4259,1.9645,12.7537,35.3485,0.7157,0.0445,0.6136,126.7836
20:30:59:258,0.0766,1.2969,11.7751,36.0783,0.7254,-0.2231,0.0455,127.1226
20:30:59:278,-0.3278,0.8782,12.804,36.3008,0.376,-0.4809,-0.2257,128.0425
20:30:59:295,-1.0146,0.5743,13.8425,36.8525,0.0767,-0.7557,-0.448,129.2406
20:30:59:317,-1.797,0.2225,13.5147,37.952,0.0791,-0.746,-0.4908,130.4961
20:30:59:335,-2.3043,-0.2201,11.5119,37.3451,0.4236,-0.3122,-0.2624,131.5229
20:30:59:354,-2.2373,-0.2871,9.6742,40.0456,0.8268,0.2815,0.1066,132.0576
20:30:59:375,-2.0028,0.0981,8.3462,38.2465,0.9747,0.5686,0.3705,132.3047
20:30:59:395,-1.5721,0.6556,7.7025,37.6142,0.7755,0.455,0.4584,132.4277
20:30:59:415,-1.3543,0.9141,7.8891,38.6032,0.3333,0.2509,0.3692,132.6834
20:30:59:436,-1.7396,0.9188,8.1595,39.8393,-0.1322,0.1838,0.2251,133.087
20:30:59:456,-2.1583,1.1581,8.7745,40.8479,-0.423,0.2363,0.2361,133.4474
20:30:59:480,-1.7324,1.6487,9.1669,40.4952,-0.4816,0.185,0.4572,133.5935
20:30:59:497,-0.6628,1.9956,9.3535,40.9495,-0.3338,0.1153,0.7504,133.4076
20:30:59:515,0.3111,2.0794,9.4469,40.9495,-0.0687,0.185,0.9325,133.0324
20:30:59:657,0.3733,2.2827,9.4923,41.3934,0.1964,0.2998,0.8995,132.6789
20:30:59:668,0.0359,2.1176,9.265,41.3934,0.4163,0.2485,0.726,132.4182
20:30:59:669,-0.481,1.6247,8.863,41.3934,0.635,0.0213,0.5183,132.4127
20:30:59:669,-0.9811,1.2849,8.284,41.3934,0.8916,-0.2634,0.3705,132.6005
20:30:59:670,-1.3041,1.1988,7.858,41.3934,1.1371,-0.4393,0.3436,132.8383
20:30:59:671,-1.1725,1.0217,7.7264,41.3934,1.285,-0.5517,0.3888,133.0604
20:30:59:671,-0.9332,0.8806,7.8437,43.5024,1.2984,-0.6482,0.3961,133.7941
20:30:59:685,-0.7681,0.7585,8.3964,42.288,1.004,-0.5969,0.2715,134.2713
20:30:59:698,-0.122,0.5168,8.8176,42.8095,0.7486,-0.5847,0.2397,134.8637
20:30:59:716,0.5097,0.4068,9.4899,43.233,0.4505,-0.6568,0.1652,134.9639
20:30:59:736,0.6987,0.5791,10.148,43.233,0.128,-0.6824,0.0272,135.7943
20:30:59:754,0.4857,0.5073,10.3537,42.8679,-0.1554,-0.526,-0.1121,136.7014
20:30:59:777,0.2225,0.3541,10.459,45.7599,-0.3717,-0.1791,-0.1878,137.5672
20:30:59:799,0.3876,0.2058,10.7988,45.0768,-0.5561,0.0824,-0.1842,138.3905
20:30:59:815,1.1007,0.0838,11.4903,44.029,-0.748,0.1007,-0.1671,139.18
20:30:59:835,1.4261,0.2536,12.2919,45.5979,-0.9251,0.0787,-0.2269,140.007
20:30:59:855,0.5862,0.725,13.1414,46.2941,-1.0094,0.218,-0.2917,140.8296
20:30:59:881,0.2249,0.6006,13.2754,44.1428,-0.8836,0.4098,-0.1915,141.5038
20:30:59:899,0.6867,0.1364,12.3805,44.7969,-0.5146,0.4831,0.0712,141.8569
20:30:59:917,1.4285,0.2441,11.2511,46.7414,-0.0613,0.4183,0.3473,141.9438
20:30:59:934,2.1416,0.8423,10.4447,44.4153,0.2587,0.2803,0.5281,141.8735
20:30:59:954,2.6417,1.2467,9.6215,44.2333,0.3748,0.1789,0.5391,141.7761
20:30:59:975,2.6058,1.3089,8.8152,46.2509,0.3357,0.1948,0.3839,141.8093
20:30:59:997,1.8425,1.407,8.1476,44.7049,0.1854,0.2302,0.1151,142.1552
20:31:00:014,0.9595,1.4213,7.7264,46.6473,0.0022,0.2363,-0.1011,142.6447
20:31:00:034,0.6078,1.3567,7.3603,46.6473,-0.098,0.2705,-0.1463,143.181
20:31:00:054,0.524,1.4142,6.92,45.8449,-0.0821,0.3475,-0.0766,143.6095
20:31:00:074,0.4642,1.6534,6.5731,45.1029,-0.0052,0.411,-0.0009,143.9186
20:31:00:094,0.7274,1.8377,6.2859,46.3687,0.0535,0.3951,0.0443,144.1883
20:31:00:116,0.8806,2.1392,6.4128,47.4305,0.0327,0.3133,0.0162,144.503
20:31:00:137,1.0433,2.4287,7.0325,46.3013,-0.0699,0.1544,-0.1267,144.9822
20:31:00:154,1.0792,2.4742,7.6881,47.0877,-0.1921,-0.0422,-0.365,145.7356
20:31:00:176,0.0479,2.1775,9.3296,45.5709,-0.357,-0.2194,-0.8781,147.7953
20:31:00:198,-1.2012,2.2947,10.404,46.5211,-0.3399,-0.2463,-0.9697,149.1763
20:31:00:215,-2.8857,2.8594,12.4403,49.2807,-0.2617,-0.4527,-0.8769,150.4222
20:31:00:235,-3.2638,2.7517,14.3713,46.0709,-0.0394,-1.0648,-0.5898,151.4666
20:31:00:254,-1.4477,1.943,15.0485,46.141,0.4872,-1.6842,-0.1829,152.2336
20:31:00:275,-0.3422,2.1703,14.3713,47.7591,1.2373,-1.6647,0.2165,152.6074
20:31:00:297,0.1005,2.9097,12.5575,46.6245,1.8799,-1.154,0.6466,152.4604
20:31:00:314,1.1557,3.1992,10.2604,44.3763,2.1585,-0.5248,1.0815,151.7296
20:31:00:336,2.6225,3.8931,8.3007,46.7247,1.952,0.1385,1.255,150.6506
20:31:00:354,2.8235,4.8622,7.1497,47.692,1.3766,0.9644,1.1279,149.4267
20:31:00:378,2.1775,5.3288,6.9942,47.1238,0.5813,1.5655,0.8836,148.1971
20:31:00:396,1.5673,5.0082,7.3508,48.0661,-0.2361,1.5839,0.6197,147.2172
20:31:00:415,0.2058,4.465,8.8271,46.9596,-0.8652,1.2027,0.3387,146.6527
20:31:00:436,-0.9165,3.9218,10.002,45.3465,-1.1609,0.5185,0.1029,146.5525
20:31:00:455,-0.9643,3.2327,10.6887,46.8216,-1.0155,-0.0129,0.0321,146.7215
20:31:00:476,-0.4786,2.6512,10.7605,46.0183,-0.5537,-0.1424,0.0785,146.9087
20:31:00:497,-0.3206,2.6345,10.6146,47.5042,-0.0675,-0.1143,0.1115,147.0185
20:31:00:518,-0.0598,2.6656,10.0642,48.0557,0.183,-0.184,0.0895,147.1769
20:31:00:534,0.1962,2.4861,9.4636,46.9757,0.117,-0.2463,0.0186,147.4471
20:31:00:554,0.1053,2.0578,9.0616,46.6602,-0.1456,-0.0777,-0.0669,147.7326
20:31:00:575,-0.2321,1.5601,8.6166,46.1211,-0.4095,0.2754,-0.1158,147.9705
20:31:00:599,-0.8112,1.1318,8.2002,46.4613,-0.5293,0.6333,-0.0754,147.9089
20:31:00:617,-1.1438,0.7513,8.1835,47.5786,-0.335,0.5136,0.2898,147.6172
20:31:00:639,-0.8399,1.005,7.8389,46.9215,-0.0723,0.1825,0.5049,147.027
20:31:00:654,-0.3805,1.407,7.0947,47.2524,0.2392,0.053,0.6881,146.4137
20:31:00:676,-0.201,1.7946,6.3075,47.4777,0.4884,0.1935,0.8018,145.6539
20:31:00:701,-0.3589,2.3019,5.7643,46.6143,0.5593,0.3536,0.8286,144.8025
20:31:00:715,-0.1388,2.5699,5.8552,46.8905,0.4102,0.3267,0.7883,143.9847
20:31:00:736,0.2632,2.5364,6.396,47.2789,0.1109,0.0982,0.671,143.374
20:31:00:754,0.4211,2.5842,7.7599,47.6368,-0.2324,-0.2121,0.4597,143.0754
20:31:00:776,0.737,2.4981,8.9683,46.7542,-0.4975,-0.5028,0.2202,143.1388
20:31:00:794,1.1007,1.9908,10.0905,45.4444,-0.5916,-0.548,0.0247,143.437
20:31:00:816,1.1916,1.4979,11.062,47.6867,-0.5928,-0.4698,-0.1793,143.8791
20:31:00:834,0.8782,1.2658,11.7272,47.6867,-0.6062,-0.4809,-0.3857,144.5456
20:31:00:861,0.5168,1.0361,11.9713,47.5757,-0.6404,-0.4979,-0.5079,145.3295
20:31:00:880,0.5719,0.6843,11.9426,48.2259,-0.6588,-0.3807,-0.5006,146.0762
20:31:00:893,1.0433,0.4881,11.9545,47.4823,-0.6796,-0.1754,-0.3723,146.6317
20:31:00:915,1.8353,0.5504,12.2273,46.3905,-0.748,-0.0459,-0.1939,146.9944
20:31:00:933,2.8211,0.4953,12.8399,46.1861,-0.8506,-0.0557,-0.0803,147.2324
20:31:00:953,3.1178,0.39,13.6582,47.9315,-0.897,-0.1424,-0.1267,147.5311
20:31:00:974,2.4766,0.3637,14.3498,47.5525,-0.8103,-0.245,-0.3076,148.0118
20:31:00:994,1.8353,0.055,14.0148,47.0816,-0.5134,-0.2829,-0.431,148.6089
20:31:01:013,1.8544,-0.2871,12.8901,48.1878,-0.0162,-0.1449,-0.3515,149.13
20:31:01:033,2.4814,-0.4522,11.4257,46.7705,0.519,-0.0019,-0.1438,149.4172
20:31:01:053,2.7948,-0.1005,10.069,46.8885,0.8977,0.0054,-0.0022,149.5345
20:31:01:074,2.747,0.2489,8.8319,47.2596,1.0455,-0.0972,-0.0339,149.7094
20:31:01:094,1.9884,0.5288,6.8028,47.5608,0.767,-0.1583,-0.4493,150.612
20:31:01:113,1.3926,0.6413,6.2859,48.1735,0.4579,-0.0459,-0.6851,151.4111
20:31:01:133,0.7466,0.7872,6.0586,46.5137,0.1427,0.119,-0.8305,152.3308
20:31:01:153,0.3948,0.9308,6.073,48.397,-0.0992,0.2827,-0.8451,153.2403
20:31:01:173,0.2441,1.2251,6.3577,46.7696,-0.2495,0.3572,-0.7877,154.0814
20:31:01:193,0.3517,1.5123,6.7717,49.021,-0.2947,0.3634,-0.7168,154.8012
20:31:01:213,0.6676,1.6822,7.0732,48.7238,-0.2422,0.3389,-0.69,155.498
20:31:01:233,0.871,1.8784,7.1593,46.5982,-0.1456,0.2962,-0.7437,156.269
20:31:01:253,0.5862,2.2038,7.1761,47.9087,-0.0931,0.2742,-0.8537,157.1683
20:31:01:273,0.2106,2.3282,7.5541,48.2178,-0.175,0.2509,-0.9868,158.1702
20:31:01:293,-0.1172,2.3282,8.394,46.7923,-0.3692,0.1899,-1.1115,159.3363
20:31:01:313,-0.8112,2.2684,9.3224,47.8041,-0.5647,0.1752,-1.1811,160.5488
20:31:01:333,-1.8473,2.4742,10.349,46.5791,-0.6966,0.2864,-1.1334,161.6779
20:31:01:354,-3.0126,2.857,11.2582,48.0666,-0.7345,0.4293,-0.8964,162.5015
20:31:01:374,-3.1896,3.2375,12.4259,48.2,-0.7076,0.4379,-0.4395,162.8347
20:31:01:393,-1.5314,3.0078,13.4931,47.8858,-0.5549,0.2558,0.1677,162.5872
20:31:01:413,-0.0981,2.7852,13.8186,49.7882,-0.1823,0.1984,0.6441,161.836
20:31:01:433,-0.0933,3.0867,13.1414,47.2884,0.288,0.2216,0.7712,160.9443
20:31:01:453,-0.2728,2.8211,11.933,48.426,0.6375,0.1593,0.6661,160.1436
20:31:01:474,-0.122,2.1583,11.2965,47.6568,0.7157,-0.0496,0.4914,159.5989
20:31:01:492,-0.4594,1.9669,11.5765,46.992,0.4737,-0.4112,0.2764,159.3333
20:31:01:513,-0.8758,1.7874,12.4499,49.4811,0.062,-0.8083,0.1298,159.3101
20:31:01:533,-0.8973,1.2993,12.7418,49.1099,-0.1615,-0.9549,0.1836,159.2394
20:31:01:553,-0.4092,0.6652,10.4064,47.698,0.4505,-0.1009,0.6954,158.853
20:31:01:575,-0.4403,1.1414,9.521,48.0047,0.7108,0.0665,0.8091,158.1141
20:31:01:597,0.1149,1.5218,9.3512,50.1222,0.6167,-0.2597,0.7309,156.4394
20:31:01:612,0.7035,1.3424,9.5067,47.5705,0.3357,-0.5688,0.4866,156.0187
20:31:01:632,0.3541,0.9141,9.5186,47.6406,0.0718,-0.4723,0.1762,155.9203
20:31:01:652,-0.3589,0.6102,9.2267,48.1577,-0.076,-0.0936,-0.007,155.9054
20:31:01:723,-0.9739,0.6461,8.6261,48.5137,-0.0956,0.2607,0.0101,155.7593
20:31:01:724,-1.1964,0.9308,8.1547,49.2446,-0.0369,0.4794,0.1664,155.4193
20:31:01:724,-1.1653,1.206,7.8293,50.0838,0.0584,0.5429,0.3558,154.8347
20:31:01:735,-0.9739,1.4955,7.4321,48.63,0.1683,0.5197,0.5085,154.1116
20:31:01:753,-0.8901,1.7133,6.9176,48.7299,0.2807,0.5882,0.6014,153.3019
20:31:01:774,-1.0122,1.8664,6.2979,46.0926,0.3284,0.9131,0.6063,152.3831
20:31:01:792,-1.5506,2.1775,5.9725,46.6977,0.1915,1.3847,0.5391,151.4378
20:31:01:813,-1.8497,2.3545,6.3242,47.1913,-0.1298,1.7195,0.5232,150.4134
20:31:01:834,-1.3328,2.1966,7.5063,48.0516,-0.4718,1.6889,0.6148,149.3274
20:31:01:855,-0.6269,2.053,9.2148,46.586,-0.6429,1.2919,0.6857,148.305
20:31:01:880,-0.5025,2.211,10.5978,49.0455,-0.5317,0.6737,0.6234,147.4693
20:31:01:897,-0.3589,2.1655,11.1817,49.3559,-0.1676,0.0286,0.456,146.9611
20:31:01:914,0.0311,1.3854,10.7055,49.6764,0.3149,-0.4552,0.2092,146.8199
20:31:01:933,-0.1627,0.9811,9.9541,48.1828,0.6399,-0.6983,-0.1316,147.0978
20:31:01:953,-0.5073,0.9906,9.3224,49.1127,0.6558,-0.68,-0.3809,147.6661
20:31:01:974,-0.469,0.8064,9.2339,48.0161,0.4273,-0.3904,-0.4163,148.1866
20:31:01:998,-0.3135,0.6963,9.722,49.8452,0.0095,-0.1253,-0.3833,148.6034
20:31:02:015,-0.0287,0.0383,13.1366,50.2205,-0.8885,-0.2878,-0.4957,149.0538
20:31:02:034,0.0311,-0.3278,14.7446,48.2447,-1.0546,-0.6897,-0.5873,149.6998
20:31:02:053,-0.0191,-0.5216,15.192,48.4871,-0.8689,-0.8657,-0.5812,151.2457
20:31:02:076,-0.0909,-0.8207,14.0889,48.7464,-0.3741,-0.5822,-0.3894,151.7578
20:31:02:096,0.1029,-0.7513,12.0981,47.7261,0.1927,-0.1021,-0.0547,151.8103
20:31:02:114,0.6054,-0.3422,10.4136,48.1806,0.5153,0.1593,0.2373,151.4997
20:31:02:136,1.0457,0.1053,9.4995,47.322,0.5104,0.1508,0.3644,151.0768
20:31:02:153,1.0887,0.4403,8.8511,47.0848,0.321,0.1141,0.3338,150.6766
20:31:02:176,0.7681,0.469,8.2744,48.7974,0.1353,0.1886,0.2251,150.3832
20:31:02:196,0.1747,0.5862,7.6618,47.5443,0.0486,0.2986,0.1408,150.1562
20:31:02:214,-0.0766,0.6413,7.0469,49.9267,0.0645,0.3511,0.1249,149.92
20:31:02:233,-0.2991,1.0122,6.6449,48.4709,0.1121,0.3194,0.131,149.6709
20:31:02:253,-0.3805,1.4453,6.4295,49.3859,0.1182,0.1935,0.1261,149.4479
20:31:02:273,-0.2058,1.8066,6.3912,49.9053,0.0681,0.0445,0.109,149.2624
20:31:02:294,0.1484,2.0052,6.8291,49.6648,-0.043,-0.0936,0.0492,149.1896
20:31:02:313,0.39,2.2014,7.5135,47.7262,-0.1884,-0.2023,-0.0791,149.2817
20:31:02:334,0.5671,2.4646,8.4203,49.0422,-0.3008,-0.2328,-0.2404,149.5388
20:31:02:354,0.3829,2.522,9.0664,49.3526,-0.3399,-0.1559,-0.4077,149.978
20:31:02:379,-0.323,2.589,9.6,48.265,-0.3338,-0.0435,-0.5763,150.5726
20:31:02:397,-0.8734,2.5603,10.0188,49.8453,-0.3179,-0.0068,-0.6655,151.2254
20:31:02:414,-1.2634,2.5699,10.5476,49.5035,-0.2849,0.0139,-0.6044,151.8162
20:31:02:434,-1.7515,2.7541,11.1793,48.4709,-0.2385,0.0701,-0.4077,152.1828
20:31:02:454,-2.1248,2.6106,11.6243,48.7335,0.1451,0.4953,0.2923,152.1473
20:31:02:475,-1.998,2.7446,11.3611,49.6078,0.4139,0.6834,0.6393,151.7246
20:31:02:494,-1.2969,2.9886,11.2128,48.8092,0.5727,0.6004,0.9203,149.6682
20:31:02:513,-0.4977,3.1178,11.062,45.7408,0.6595,0.4195,1.0742,148.368
20:31:02:533,-0.055,3.3476,10.7414,48.2144,0.7022,0.3353,1.0278,147.1406
20:31:02:555,0.1436,3.1824,10.4806,48.6015,0.6509,0.312,0.803,146.1638
20:31:02:579,-0.5025,3.0963,11.0022,48.9073,0.4066,0.1398,0.4328,145.605
20:31:02:600,-1.5816,2.7589,11.9761,48.8884,0.0559,-0.2255,0.0822,145.511
20:31:02:613,-2.1751,2.01,12.3805,48.3738,-0.0626,-0.548,-0.0376,145.6422
20:31:02:633,-2.4024,1.5075,11.5765,49.4378,0.2111,-0.5969,0.0418,145.675
20:31:02:653,-2.2995,1.7563,10.2269,48.2062,0.6326,-0.3636,0.2104,145.4588
20:31:02:674,-1.5912,2.1488,9.0497,46.7917,0.8342,-0.2023,0.3289,145.085
20:31:02:699,-0.7753,2.3641,8.4634,49.0978,0.6815,-0.2157,0.2715,144.789
20:31:02:714,-0.4642,2.2469,8.4203,48.356,0.3015,-0.2231,0.0247,144.7681
20:31:02:733,-0.6987,1.9358,8.6572,48.8428,-0.0809,-0.0948,-0.2526,145.0035
20:31:02:753,-0.9667,1.4979,8.7099,49.0978,-0.2788,0.1239,-0.3967,145.3469
20:31:02:773,-1.3328,1.2562,8.7386,48.4349,-0.2971,0.2167,-0.4224,145.6758
20:31:02:794,-1.6989,1.5123,8.6955,47.8427,-0.2287,0.1263,-0.3809,145.9741
20:31:02:814,-1.6319,1.5003,8.4395,48.2501,-0.0956,0.0726,-0.2599,146.1644
20:31:02:834,-1.675,1.4022,7.925,47.3321,0.0694,0.1618,-0.1524,146.2219
20:31:02:854,-1.9334,1.3137,7.3292,48.1553,0.2038,0.2974,-0.0803,146.1741
20:31:02:877,-2.132,1.4261,6.9272,47.905,0.2648,0.3401,0.0284,145.9742
20:31:02:898,-1.998,1.663,6.865,48.7602,0.2661,0.2497,0.1933,145.6291
20:31:02:917,-1.1151,2.0148,7.7504,46.2,0.2661,-0.151,0.3974,145.196
20:31:02:934,-0.9356,2.2349,8.3366,47.4089,0.2978,-0.3391,0.3778,144.451
20:31:02:953,-0.9212,2.4024,8.8319,45.8035,0.343,-0.4356,0.3253,144.1852
20:31:02:977,-0.8303,2.4981,9.3583,46.3479,0.3406,-0.5236,0.2495,144.0485
20:31:02:995,-0.6054,2.4694,9.9637,48.2131,0.2502,-0.6177,0.1347,144.0518
20:31:03:012,-0.5838,2.3713,10.5619,47.8334,0.1097,-0.6262,0.004,144.1864
20:31:03:033,-0.6078,2.2062,10.7916,46.1808,-0.0052,-0.5224,-0.0828,144.3867
20:31:03:054,-0.7298,2.2971,10.995,48.3256,-0.0479,-0.3452,-0.1035,144.5466
20:31:03:073,-0.6197,2.345,11.0979,48.0028,-0.043,-0.1522,-0.062,144.6072
20:31:03:095,-0.2153,2.4981,11.0836,46.5656,-0.032,0.0054,0.0186,144.5323
20:31:03:114,0.2345,2.6704,11.0477,48.0028,-0.0369,0.1263,0.0724,144.3805
20:31:03:134,0.4857,2.68,10.94,45.3513,-0.0907,0.2009,0.0199,144.2542
20:31:03:153,0.3589,2.5388,11.0333,45.8243,-0.1908,0.185,-0.1341,144.2873
20:31:03:173,0.2297,2.1416,11.2702,48.7321,-0.3094,0.0689,-0.3063,144.5591
20:31:03:195,0.2417,1.6223,11.7009,48.0028,-0.4071,-0.1461,-0.4102,145.0036
20:31:03:214,0.1842,1.407,11.8086,46.1458,-0.456,-0.3904,-0.4664,145.5703
20:31:03:233,0.0455,1.2538,11.4233,46.3097,-0.401,-0.487,-0.4884,146.1899
20:31:03:253,0.0024,1.1222,10.1408,46.9551,-0.2226,-0.3831,-0.4261,146.7158
20:31:03:273,-0.3374,1.2227,8.5448,45.3124,-0.0039,-0.1693,-0.288,147.0228
20:31:03:297,-0.7178,1.6726,7.1258,45.5199,0.1329,-0.0202,-0.0986,147.0728
20:31:03:313,-0.5838,1.8497,5.9749,45.9058,0.1561,0.0164,0.1286,146.8603
20:31:03:333,-0.0287,1.7085,5.348,45.7571,0.1133,0.0359,0.3253,146.4424
20:31:03:355,0.8207,1.5649,5.7284,46.8377,0.0437,0.0139,0.3851,145.9754
20:31:03:381,1.2371,2.6441,8.2241,47.6824,-0.2275,-0.4564,-0.0534,145.753
20:31:03:392,1.0648,2.8881,9.4708,45.998,-0.313,-0.6482,-0.3295,145.9454
20:31:03:414,1.0648,2.5388,9.8225,45.7827,-0.2483,-0.5945,-0.5397,146.4246
20:31:03:434,0.8949,2.3043,9.6909,45.6287,-0.0626,-0.3354,-0.6961,147.8929
20:31:03:453,0.4331,2.4646,9.4947,46.3972,0.0865,-0.0862,-0.7682,148.6768
20:31:03:474,0.0502,2.6249,9.5282,45.3859,0.1097,-0.0312,-0.7083,149.3908
20:31:03:496,-0.0144,2.7613,9.4038,47.4333,0.0547,-0.063,-0.5605,149.926
20:31:03:513,-0.3398,3.0652,9.2148,45.5488,0.0315,0.075,-0.4004,150.2507
20:31:03:533,-0.6556,3.4624,9.3177,43.6868,0.0596,0.3707,-0.2562,150.3243
20:31:03:552,-0.8279,3.7663,9.8943,44.167,0.0449,0.4428,-0.1463,150.2764
20:31:03:574,-0.6293,3.9721,10.8945,45.3396,-0.0247,0.1789,-0.0376,150.1873
20:31:03:593,0.0263,3.8046,11.2008,44.6866,-0.0198,-0.0752,0.0822,150.047
20:31:03:614,0.1842,3.46,11.019,45.0815,0.1353,0.0188,0.1396,149.834
20:31:03:633,-0.3996,3.3141,9.9518,45.8761,0.3186,0.2693,0.109,149.5658
20:31:03:653,-0.9452,3.1514,9.3942,44.878,0.3565,0.4415,0.0675,149.288
20:31:03:673,-1.2012,2.9982,10.069,44.8309,0.1647,0.3524,0.0418,149.0835
20:31:03:693,-1.206,2.6393,11.7727,44.4582,-0.1603,-0.0532,-0.0107,149.0628
20:31:03:716,-1.7372,2.3809,12.9165,43.3627,-0.3827,-0.5248,-0.0876,149.2258
20:31:03:833,-2.1727,1.7731,12.8638,45.3983,-0.2959,-0.6421,-0.0693,149.3937
20:31:03:834,-2.4455,1.2897,11.7703,44.9227,0.0388,-0.4014,0.0919,149.3148
20:31:03:835,-2.1775,1.3089,10.2269,46.2435,0.3675,-0.1082,0.3619,148.8499
20:31:03:852,-1.3615,1.4596,8.9683,44.9242,0.4774,0.1031,0.6258,148.0621
20:31:03:852,-0.335,1.6798,7.9537,45.0195,0.3161,0.1948,0.748,147.148
20:31:03:853,-0.1316,1.931,7.2215,42.9074,-0.3533,0.4183,0.5977,145.5183
20:31:03:860,-0.6485,1.718,7.1067,44.1303,-0.5745,0.5417,0.5049,144.7858
20:31:03:878,-1.2084,1.5099,6.9464,43.5638,-0.6588,0.5674,0.4621,144.1075
20:31:03:895,-1.474,1.3352,6.6544,45.4118,-0.6258,0.5466,0.5073,143.3736
20:31:03:913,-1.5123,1.3519,6.4893,44.0844,-0.5207,0.5307,0.638,142.5114
20:31:03:933,-1.3663,1.4261,6.262,43.5178,-0.3998,0.4806,0.7981,141.487
20:31:03:957,-1.1749,1.5816,6.4654,43.6533,-0.3082,0.4049,0.9203,140.3541
20:31:03:979,-0.6724,1.7204,6.9105,44.5465,-0.2531,0.2656,0.9642,139.2274
20:31:03:995,-0.3852,1.8664,7.4919,43.8913,-0.2238,0.1092,0.9093,138.1833
20:31:04:015,-0.0694,1.8616,8.1811,44.8276,-0.2153,-0.0374,0.7932,137.3203
20:31:04:033,0.079,1.9741,9.4086,44.309,-0.2593,-0.2414,0.6429,136.6475
20:31:04:052,0.5791,1.919,10.8179,44.4061,-0.3216,-0.4613,0.478,136.1943
20:31:04:074,0.9667,1.6965,12.2704,44.4091,-0.302,-0.6091,0.2886,136.0381
20:31:04:094,1.1629,1.529,13.5841,44.8453,-0.1933,-0.7411,0.0553,136.131
20:31:04:114,1.4429,1.3089,14.5197,45.5603,-0.0662,-0.9805,-0.1939,136.5474
20:31:04:132,1.2682,1.0265,14.522,42.784,0.0584,-1.1222,-0.4346,137.2354
20:31:04:152,0.8806,0.5384,13.1844,43.6558,0.2172,-0.8816,-0.547,137.9995
20:31:04:173,0.548,0.4881,11.464,45.2018,0.3638,-0.267,-0.4285,138.5198
20:31:04:197,0.8542,0.6915,10.3537,45.0602,0.3345,0.3267,-0.1475,138.6153
20:31:04:213,1.5816,1.0122,10.3059,43.6739,0.0718,0.5429,0.0834,138.4458
20:31:04:234,2.2134,1.2012,11.1194,44.5073,-0.3265,0.356,0.1286,138.2542
20:31:04:252,2.4144,0.737,12.4714,44.6123,-0.6588,-0.0264,-0.0034,138.296
20:31:04:273,2.1224,0.3159,13.3376,44.2615,-0.7174,-0.388,-0.1817,138.6056
20:31:04:299,2.0865,-0.1962,11.9498,45.4328,0.106,-0.3978,-0.0302,138.9463
20:31:04:315,2.5819,0.1531,10.55,43.3895,0.5544,-0.2072,0.1897,139.0829
20:31:04:332,3.4672,0.3685,9.2195,43.4416,0.7499,-0.0667,0.3265,138.7293
20:31:04:352,3.661,0.5504,8.1619,44.9151,0.6851,0.1092,0.2569,138.4938
20:31:04:375,3.0915,0.8064,7.4824,43.8866,0.4371,0.2693,0.0113,138.4679
20:31:04:393,2.1129,0.8519,7.2096,44.1162,0.1402,0.3255,-0.277,138.7398
20:31:04:413,1.1773,0.926,7.1426,44.206,-0.0797,0.2571,-0.4847,139.2474
20:31:04:433,0.6556,0.95,7.0349,44.174,-0.1444,0.1471,-0.5446,139.8293
20:31:04:452,0.7011,0.9452,6.7932,43.7813,-0.0528,0.0726,-0.4896,140.3714
20:31:04:475,0.8183,1.0887,6.5085,44.98,0.1231,0.0677,-0.4334,140.8499
20:31:04:494,0.9093,1.5601,6.1232,43.3864,0.2563,0.0665,-0.4407,141.3275
20:31:04:514,0.8925,2.1081,5.9964,42.5503,0.227,0.0213,-0.4981,141.881
20:31:04:532,1.0265,2.266,6.3769,44.1218,0.0535,-0.0093,-0.5971,142.5463
20:31:04:552,0.8375,2.2229,6.8626,44.1218,-0.1359,-0.0447,-0.7523,143.3985
20:31:04:572,0.4211,2.0506,7.3555,42.5018,-0.2813,-0.0789,-0.9111,144.4187
20:31:04:594,0.012,1.8066,8.0207,44.887,-0.3729,-0.0667,-0.9661,145.4659
20:31:04:613,-0.2656,1.6869,8.6835,44.887,-0.4059,-0.063,-0.9062,146.4707
20:31:04:632,-0.6054,1.8449,9.0497,45.6189,-0.3607,-0.052,-0.751,147.2954
20:31:04:653,-0.9595,2.3186,9.3655,43.485,-0.3032,0.0323,-0.5226,147.8553
20:31:04:673,-1.017,2.9432,10.5571,43.2562,-0.3827,0.0543,-0.2734,148.1237
20:31:04:695,-0.3206,3.4457,13.1007,42.3382,-0.6124,-0.1388,-0.0889,148.2356
20:31:04:717,0.8997,3.2136,15.2375,44.4346,-0.737,-0.355,-0.0156,148.3229
20:31:04:733,0.6652,2.8666,15.7998,41.8831,-0.5439,-0.2463,-0.0547,148.426
20:31:04:754,-1.2706,2.6369,13.1844,43.5327,0.2844,0.3377,0.0944,148.4788
20:31:04:772,-1.1677,2.7398,12.1005,44.391,0.497,0.312,0.3497,148.2889
20:31:04:793,-0.8758,2.7565,11.586,44.073,0.5031,0.1324,0.533,147.2409
20:31:04:814,-0.6652,2.4,11.2415,43.2684,0.4481,-0.0117,0.6197,146.5901
20:31:04:832,-0.2177,2.132,10.5906,44.4341,0.4701,-0.0325,0.6759,145.874
20:31:04:852,0.6963,1.864,9.7843,44.6391,0.5629,0.0408,0.7211,145.1314
20:31:04:875,1.3998,1.9693,9.1549,43.485,0.5703,0.0481,0.6686,144.4584
20:31:04:896,1.7539,2.0913,8.8247,44.1881,0.3491,-0.1021,0.4352,144.0664
20:31:04:912,1.206,2.1607,9.5139,45.3186,-0.0247,-0.2487,0.0455,144.118
20:31:04:933,0.3757,1.6199,10.3681,45.0976,-0.3399,-0.2719,-0.3552,144.6066
20:31:04:952,-0.6461,0.9308,10.4327,44.5197,-0.4071,-0.1534,-0.5739,145.2933
20:31:04:972,-1.3711,0.5384,9.8249,43.7778,-0.2397,0.0738,-0.5067,145.8738
20:31:04:994,-1.5673,0.5312,8.8798,44.2373,0.0486,0.2974,-0.2001,146.0621
20:31:05:015,-1.1964,0.8279,7.7097,43.5866,0.31,0.4415,0.1897,145.7944
20:31:05:043,-0.6293,1.072,6.719,45.642,0.4689,0.5026,0.4853,145.2097
20:31:05:051,-0.4618,1.3113,6.1089,44.982,0.5006,0.5222,0.6258,144.4533
20:31:05:072,-0.4235,1.4907,5.8409,46.3875,0.4359,0.4501,0.6539,143.6856
20:31:05:091,-0.4355,1.6893,6.0634,44.8005,0.3381,0.2937,0.6258,142.9955
20:31:05:113,-0.4666,1.8521,6.4582,45.9698,0.2648,0.0909,0.5977,142.4022
20:31:05:131,-0.414,1.9406,7.011,44.7074,0.2331,-0.1033,0.5806,141.8669
20:31:05:152,-0.1364,1.9621,7.5613,46.4853,0.205,-0.2756,0.5647,141.3818
20:31:05:171,0.2728,1.9406,8.3821,44.8715,0.1329,-0.388,0.5183,140.9812
20:31:05:192,0.6365,1.864,9.5067,47.2336,0.0168,-0.4527,0.4047,140.7252
20:31:05:212,1.864,1.1964,11.8229,44.2359,-0.2373,-0.6702,0.0479,140.7086
20:31:05:233,1.6845,1.1174,12.3924,46.2889,-0.3362,-0.7215,-0.1609,140.8679
20:31:05:252,1.1701,0.8806,12.2297,45.4453,-0.3411,-0.5651,-0.2807,141.8624
20:31:05:273,0.9715,0.5145,11.5549,46.5037,-0.3032,-0.2817,-0.2624,142.3221
20:31:05:298,1.3783,0.402,11.1218,46.7574,-0.3204,-0.0312,-0.1316,142.5836
20:31:05:311,2.2397,0.591,11.476,44.2359,-0.4633,0.0469,-0.0107,142.7163
20:31:05:332,3.3595,0.4211,12.3948,47.2181,-0.6649,-0.0276,-0.0192,142.8894
20:31:05:352,3.405,0.3039,13.0696,46.8526,-0.7932,-0.0703,-0.2123,143.2846
20:31:05:374,2.4837,0.2465,12.9236,46.7498,-0.7529,0.1092,-0.4371,143.8889
20:31:05:394,1.7157,0.0742,12.055,44.6344,-0.5366,0.4195,-0.4688,144.4578
20:31:05:413,1.663,-0.0024,11.1553,46.3936,-0.2617,0.5442,-0.2831,144.8272
20:31:05:431,2.2756,0.268,10.392,46.5471,-0.0345,0.3902,-0.0351,144.9431
20:31:05:451,2.7374,0.5982,9.4612,47.1635,0.1146,0.1862,0.0822,144.9751
20:31:05:471,2.4957,0.7896,8.3486,48.9671,0.1475,0.1447,-0.0168,145.1108
20:31:05:502,1.4237,0.9404,7.5302,45.9033,0.0523,0.2119,-0.2428,145.9501
20:31:05:519,-0.0766,0.9643,7.0086,45.4215,-0.1628,0.1935,-0.409,146.4524
20:31:05:545,0.0407,1.1031,7.1569,46.083,-0.153,0.1007,-0.3015,146.865
20:31:05:560,0.3135,1.2802,7.322,47.1952,-0.065,-0.0031,-0.1988,147.1743
20:31:05:575,0.5504,1.5338,7.3723,46.0591,0.0425,-0.1131,-0.1829,147.4662
20:31:05:595,0.7872,1.73,7.4584,45.6032,0.0791,-0.2609,-0.2489,147.8755
20:31:05:615,1.2156,1.6845,8.1739,47.9866,0.0144,-0.388,-0.3784,148.4618
20:31:05:633,1.5099,1.7109,8.863,46.093,-0.0772,-0.432,-0.5629,149.2595
20:31:05:654,1.3424,1.7276,9.6646,47.1698,-0.1628,-0.3526,-0.7559,150.2399
20:31:05:672,0.9356,1.6056,10.416,46.7798,-0.2348,-0.2597,-0.9135,151.2747
20:31:05:693,0.2106,1.5984,11.1506,45.476,-0.2385,-0.1779,-0.9966,152.4837
20:31:05:713,-0.5671,1.6965,11.5119,47.067,-0.1346,-0.052,-0.9673,153.6087
20:31:05:733,-1.2467,1.8831,11.263,47.1513,0.0364,0.1056,-0.795,154.52
20:31:05:750,-1.7061,2.3163,11.4233,49.08,0.1879,0.2766,-0.4444,155.0042
20:31:05:772,-1.0528,2.7996,11.7751,49.0625,0.3137,0.3511,0.0541,154.9401
20:31:05:792,0.2034,2.9815,11.6698,47.5669,0.5141,0.3609,0.511,154.4028
20:31:05:812,0.9523,3.2877,11.1003,48.3464,0.7535,0.356,0.6954,153.6899
20:31:05:831,1.0289,3.4863,10.2389,50.0218,0.8769,0.312,0.627,153.0225
20:31:05:962,0.7705,3.606,9.7531,49.3066,0.8,0.2155,0.4511,152.5557
20:31:05:963,0.7657,3.3332,10.069,49.893,0.5177,-0.0105,0.2569,152.3613
20:31:05:963,0.8423,2.79,11.4568,48.0754,0.1121,-0.3135,0.0357,152.4742
20:31:05:964,0.2967,2.4861,13.1797,48.3382,-0.2409,-0.5737,-0.2001,152.8915
20:31:05:964,-0.7226,1.9047,13.6798,47.3598,-0.2703,-0.5432,-0.3161,153.423
20:31:05:965,-1.6606,0.8519,12.5862,46.3044,0.0877,-0.2218,-0.1891,153.7424
20:31:05:979,-2.2684,0.5312,11.0716,46.4092,0.58,0.075,0.1469,153.6281
20:31:05:995,-2.2253,1.2275,9.8321,46.8786,0.883,0.1105,0.5574,153.0516
20:31:06:011,-1.2634,1.7468,9.1621,47.6922,0.9038,0.0555,0.9056,152.1174
20:31:06:032,-0.1531,1.6822,8.8008,47.8214,0.7352,0.1092,1.0559,151.0533
20:31:06:055,-0.0191,1.7228,8.4156,46.8909,0.5104,0.2644,0.9447,150.0585
20:31:06:071,-0.4211,1.651,8.1189,46.2056,0.332,0.4574,0.7846,149.1709
20:31:06:091,-0.8949,1.5386,7.9131,45.7456,0.2404,0.5662,0.726,148.3123
20:31:06:111,-1.1797,1.6199,7.724,47.5937,0.2294,0.5637,0.7553,147.4171
20:31:06:132,-1.2036,1.5793,7.0301,45.8109,0.4212,0.5136,0.9826,145.2186
20:31:06:151,-1.1151,1.8712,6.7095,46.9896,0.5471,0.4794,1.1023,143.9903
20:31:06:173,-0.9165,2.1655,6.5085,46.6453,0.6204,0.4403,1.2049,142.6599
20:31:06:194,-0.6963,2.4933,6.408,46.4238,0.6179,0.4073,1.2733,141.2743
20:31:06:212,-0.4068,2.723,6.5611,44.1132,0.5507,0.3487,1.2904,139.875
20:31:06:231,0.0574,2.8379,6.9392,46.5426,0.4286,0.2033,1.2526,138.5852
20:31:06:251,0.7633,2.6752,7.6331,46.6506,0.2538,-0.0813,1.1487,137.5261
20:31:06:273,1.4788,2.5149,9.0688,45.5451,0.0303,-0.4576,0.9874,136.8031
20:31:06:294,2.3258,2.3641,10.3585,46.8852,-0.1273,-0.7386,0.8274,136.3785
20:31:06:312,3.0532,2.1918,11.2463,43.8857,-0.1628,-0.8193,0.671,136.1562
20:31:06:331,3.4576,2.0913,11.1841,45.7759,-0.076,-0.6384,0.4939,136.0536
20:31:06:351,2.9647,2.2038,10.0977,45.6545,0.0828,-0.2988,0.3289,136.0004
20:31:06:371,2.5484,2.3163,9.0233,46.1929,0.1622,-0.0557,0.2117,135.9521
20:31:06:395,2.6632,2.3833,8.7386,44.2514,0.0425,-0.0691,0.131,135.983
20:31:06:412,3.2447,2.2971,9.3416,45.1553,-0.2581,-0.2634,0.0602,136.1713
20:31:06:432,3.8166,1.9836,10.4327,43.7276,-0.5952,-0.4344,-0.0498,136.541
20:31:06:451,3.74,1.5816,11.0788,45.7006,-0.7748,-0.4515,-0.244,137.1393
20:31:06:473,3.1346,1.3591,11.1745,43.5003,-0.7944,-0.3807,-0.4676,137.9507
20:31:06:493,2.6848,1.0361,10.9352,43.7587,-0.7028,-0.2377,-0.5898,138.8177
20:31:06:512,2.7805,0.7418,10.5571,42.166,-0.5842,-0.1595,-0.5837,139.6479
20:31:06:531,3.2255,0.7849,10.5356,42.2306,-0.5305,-0.1864,-0.525,140.4284
20:31:06:552,3.4816,0.9284,10.3729,42.4422,-0.5366,-0.2096,-0.5189,141.196
20:31:06:571,3.2207,0.859,9.734,44.031,-0.5158,-0.0874,-0.6044,142.0256
20:31:06:594,1.7779,1.0576,7.8078,43.3842,-0.4095,0.2363,-0.7926,142.9442
20:31:06:613,1.2586,1.2538,6.9176,43.1943,-0.357,0.367,-0.7547,144.707
20:31:06:631,1.0457,1.3543,6.1591,43.5699,-0.2788,0.4916,-0.6423,145.2917
20:31:06:651,1.072,1.4979,5.5777,43.0438,-0.1847,0.5576,-0.5323,145.8444
20:31:06:671,1.0409,1.8066,5.0536,43.3326,-0.1432,0.5148,-0.4798,146.3362
20:31:06:694,1.0576,2.2493,4.9029,41.5087,-0.2361,0.3707,-0.4921,146.8854
20:31:06:714,1.072,2.7422,5.3886,40.8196,-0.4547,0.1972,-0.5653,147.5487
20:31:06:731,1.1581,2.9982,6.3194,44.0689,-0.7076,0.0139,-0.7083,148.3925
20:31:06:751,1.0146,3.0078,7.8987,41.6252,-0.952,-0.2499,-0.9258,149.5197
20:31:06:771,1.2347,2.7494,10.0929,42.5538,-1.1633,-0.6262,-1.1591,150.9507
20:31:06:793,0.9906,2.4981,11.9234,39.6728,-1.2318,-0.8645,-1.3631,152.6493
20:31:06:809,-0.4475,2.7326,13.1844,41.55,-1.1096,-0.8486,-1.5024,154.4204
20:31:06:831,-1.3304,2.7805,14.01,41.3572,-0.9043,-0.7777,-1.4658,156.1114
20:31:06:851,-1.1725,2.5986,14.2588,40.9573,-0.6404,-0.669,-1.1383,157.4252
20:31:06:872,-0.213,2.2253,14.132,41.0806,-0.2654,-0.3477,-0.5385,158.0662
20:31:06:895,0.4307,2.3569,13.4716,40.3937,0.1659,0.0396,0.0736,158.024
20:31:06:911,0.4834,2.6201,12.725,39.1441,0.5617,0.3499,0.5134,157.4478
20:31:06:931,0.9882,2.5436,12.0191,40.4561,0.8598,0.3169,0.7297,156.6393
20:31:06:952,1.6223,2.4598,11.275,40.2824,1.0272,0.0396,0.7578,155.8736
20:31:06:970,1.9884,2.4503,10.861,40.2512,1.0235,-0.1656,0.6942,155.205
20:31:06:991,2.333,2.5699,11.1864,39.3473,0.7743,-0.3794,0.5489,154.7604
20:31:07:012,2.4766,2.3521,12.1579,38.1301,0.3846,-0.603,0.3118,154.5964
20:31:07:033,1.8855,1.8521,12.5001,39.5847,0.1219,-0.5957,0.0467,154.6985
20:31:07:051,0.1962,0.7178,10.1408,38.5224,0.4249,0.2387,0.0443,154.8477
20:31:07:073,0.4881,0.7777,9.2483,40.2034,0.5593,0.3218,0.2178,154.4548
20:31:07:094,0.7992,1.1318,9.1071,39.9698,0.4677,0.2045,0.2825,154.1475
20:31:07:112,0.792,1.3783,9.4923,39.6271,0.1781,0.0934,0.1823,153.9635
20:31:07:131,0.5384,0.938,9.7771,37.6667,-0.1163,0.1532,0.0321,153.9519
20:31:07:150,0.0502,0.2752,9.4134,38.7513,-0.1921,0.3853,-0.0082,153.9062
20:31:07:176,-0.524,0.1747,8.4012,39.0171,-0.0223,0.6786,0.1188,153.6439
20:31:07:190,-0.9069,0.5049,7.4848,39.4283,0.2257,0.9034,0.3802,153.0459
20:31:07:209,-0.9236,0.9906,6.6951,38.4135,0.3833,0.9644,0.6796,152.0841
20:31:07:230,-0.615,1.1988,6.1496,37.9285,0.42,0.9595,0.941,150.8757
20:31:07:251,-0.4044,1.3831,5.7834,39.3025,0.3882,0.9767,1.1145,149.4641
20:31:07:275,-0.4116,1.6582,5.7715,40.3299,0.3125,0.9644,1.1902,147.9805
20:31:07:293,-0.536,1.9789,6.0275,39.206,0.1866,0.8203,1.2,146.5021
20:31:07:310,-0.402,2.1918,6.5539,40.1357,0.0474,0.5405,1.189,145.1041
20:31:07:330,0.2058,2.1751,7.2957,39.6798,-0.0601,0.1984,1.1646,143.8407
20:31:07:351,1.0911,2.01,8.2529,40.3883,-0.1285,-0.1473,1.0815,142.7753
20:31:07:370,2.1846,1.9478,9.6526,41.4804,-0.2055,-0.4918,0.8909,141.9976
20:31:07:391,2.8044,1.7731,10.727,39.7812,-0.2629,-0.7252,0.5977,141.631
20:31:07:412,2.8307,1.3041,11.263,41.4199,-0.28,-0.7777,0.2459,141.6229
20:31:07:434,2.455,1.0098,11.6602,40.5531,-0.3252,-0.774,-0.0901,141.9673
20:31:07:450,2.0746,0.6987,11.732,41.4055,-0.4071,-0.7447,-0.3002,142.5422
20:31:07:473,1.9717,0.335,11.7033,38.8182,-0.5036,-0.5395,-0.3271,143.0961
20:31:07:493,2.4742,-0.0526,11.8181,39.8485,-0.6429,-0.2316,-0.2001,143.503
20:31:07:511,3.9721,-0.3661,13.6941,43.0346,-1.0876,-0.1143,-0.1206,143.9452
20:31:07:532,3.2064,-0.0191,14.6848,41.8228,-1.2171,-0.1925,-0.3283,144.4159
20:31:07:553,2.2421,-0.3757,14.5268,41.2926,-1.0118,0.0054,-0.431,144.9609
20:31:07:577,2.12,-1.0504,12.7968,41.2154,-0.4535,0.3096,-0.2721,145.3158
20:31:07:596,2.5986,-1.2395,10.9376,42.6707,0.216,0.4819,0.0736,145.2994
20:31:07:620,3.5414,-0.9811,9.5474,42.8182,0.7596,0.4342,0.4157,144.9483
20:31:07:630,4.3238,-0.469,8.3773,42.8535,1.0553,0.2302,0.5476,144.4952
20:31:07:651,4.666,-0.0144,7.0517,43.2612,1.0712,0.0359,0.3497,144.2823
20:31:07:671,4.008,0.4403,6.0275,43.9358,0.7951,0.0005,-0.1438,144.5797
20:31:07:695,2.7422,0.4738,5.5729,44.3613,0.299,0.0653,-0.7168,145.4728
20:31:07:711,1.4979,0.2201,6.0012,43.2457,-0.2092,0.1703,-1.12,146.7573
20:31:07:731,0.5551,0.1675,6.4822,45.0896,-0.55,0.2192,-1.2385,148.1324
20:31:07:752,0.2321,0.3613,7.0708,44.5663,-0.6612,0.2192,-1.098,149.3491
20:31:07:771,0.5982,0.6365,7.4441,44.6572,-0.5623,0.2033,-0.8561,150.3312
20:31:07:793,1.1821,1.0289,7.5063,45.6031,-0.3387,0.1606,-0.6887,151.1193
20:31:07:811,1.6199,1.3376,7.4752,46.0543,-0.1395,0.1276,-0.6692,151.9403
20:31:07:830,1.675,1.7611,7.6116,44.66,-0.1004,0.0799,-0.7852,152.8721
20:31:07:851,1.4022,1.9621,8.0471,47.0448,-0.2226,0.0286,-0.9648,154.0026
20:31:07:870,0.9093,1.9549,8.9731,44.5688,-0.401,-0.0154,-1.1347,155.2992
20:31:07:894,0.3278,1.9382,9.9398,46.9208,-0.5244,-0.0899,-1.2458,156.7084
20:31:07:910,-0.5527,2.1296,11.0261,47.2713,-0.5427,-0.1131,-1.2678,158.1101
20:31:07:931,-1.4596,2.3043,11.9115,48.4013,-0.4828,-0.1265,-1.1725,159.392
20:31:07:953,-2.8857,2.4311,13.4022,49.3834,-0.0931,-0.4735,-0.602,160.3634
20:31:07:976,-1.7204,2.0865,13.7204,48.5275,0.2428,-0.785,-0.1597,160.9354
20:31:08:087,-1.2227,2.2445,12.8758,49.8105,0.6668,-0.7032,0.2459,160.8254
20:31:08:088,-1.3735,2.6106,11.2558,49.73,0.9893,-0.2524,0.5659,160.1807
20:31:08:088,-0.5767,2.3258,10.4566,49.8454,0.9979,0.0689,0.7859,159.2723
20:31:08:089,0.6174,1.9956,11.4712,49.6769,0.6546,-0.1204,0.759,158.4605
20:31:08:089,1.0457,2.3737,13.4644,50.1773,0.1353,-0.5932,0.5574,157.9875
20:31:08:099,1.5816,1.9501,14.8116,50.4489,-0.2128,-0.7753,0.4365,157.6814
20:31:08:115,1.6247,0.9452,14.6584,49.4028,-0.1322,-0.4637,0.4279,157.3604
20:31:08:131,1.3974,0.2728,12.9906,52.0222,0.2893,0.0396,0.4511,156.9191
20:31:08:152,1.1342,0.189,11.0261,48.8768,0.7633,0.4611,0.5195,156.3251
20:31:08:171,0.7035,0.6891,9.5139,50.735,0.9844,0.6517,0.6307,155.5757
20:31:08:192,0.67,0.9547,8.4969,49.5644,0.9038,0.6663,0.7553,154.6842
20:31:08:211,0.8519,0.8758,7.6666,49.5644,0.6998,0.659,0.8311,153.7217
20:31:08:230,0.6293,0.8207,7.0158,50.9305,0.5507,0.78,0.8555,152.6989
20:31:08:250,0.1795,0.9787,6.4343,49.7772,0.4664,0.918,0.8799,151.6165
20:31:08:270,-0.0909,1.1438,5.9438,51.8732,0.4114,0.9534,0.9508,150.4376
20:31:08:292,-0.2393,1.2586,5.6997,51.2387,0.3516,0.8777,1.0253,149.1929
20:31:08:310,-0.2584,1.4812,5.7069,51.5489,0.2697,0.6773,1.0595,147.9404
20:31:08:330,-0.0742,1.5888,5.8433,52.0289,0.1842,0.4391,1.0681,146.751
20:31:08:350,0.1244,1.6893,6.0275,53.1641,0.1304,0.2595,1.0571,145.6287
20:31:08:370,0.2847,1.8305,6.1496,51.0887,0.1072,0.1679,1.0351,144.5508
20:31:08:393,0.4642,2.0052,6.3864,52.904,0.0657,0.1324,0.9948,143.5403
20:31:08:412,0.6891,2.1655,6.92,52.904,-0.0443,0.0457,0.9129,142.6242
20:31:08:431,1.8233,2.0746,9.4277,52.2202,-0.3998,-0.5493,0.5989,141.9264
20:31:08:449,2.5531,1.6008,10.8491,51.2666,-0.4682,-0.9439,0.3497,141.4215
20:31:08:470,3.4816,0.9787,12.0215,53.9662,-0.4169,-1.2383,0.0369,141.8341
20:31:08:493,3.618,0.4977,12.5886,54.201,-0.3436,-1.3214,-0.3332,142.6613
20:31:08:513,2.8163,0.256,12.4235,54.201,-0.3216,-1.0514,-0.6558,143.7635
20:31:08:530,2.2181,-0.0526,11.8899,54.201,-0.4193,-0.5407,-0.7682,144.8681
20:31:08:550,1.9358,-0.2369,11.7727,53.5206,-0.6404,-0.0312,-0.6496,145.7288
20:31:08:570,2.0387,-0.1101,12.2824,55.6421,-0.9007,0.2094,-0.4468,146.3256
20:31:08:595,2.2684,0.0168,12.9715,54.201,-1.0326,0.1618,-0.3088,146.7939
20:31:08:613,2.3139,-0.055,13.1414,54.5271,-0.9349,0.0787,-0.2794,147.2238
20:31:08:629,2.2636,-0.335,12.4881,54.8104,-0.6356,0.1117,-0.2929,147.6688
20:31:08:650,2.5412,-0.7394,11.3109,55.6421,-0.2837,0.2277,-0.2587,148.088
20:31:08:670,2.7852,-0.8686,10.3753,52.9472,-0.0369,0.2546,-0.1891,148.451
20:31:08:691,2.9599,-0.5815,9.7507,55.07,0.0449,0.1166,-0.1524,148.7854
20:31:08:710,2.8666,-0.1651,9.119,54.1358,0.0254,0.0311,-0.1805,149.1726
20:31:08:733,2.5005,-0.0072,8.339,55.6421,-0.0003,0.1385,-0.2624,149.6196
20:31:08:749,1.8353,0.0622,7.535,53.9561,0.0046,0.3255,-0.3466,150.1015
20:31:08:772,1.4357,0.1866,6.8483,54.516,0.0193,0.4428,-0.3796,150.6127
20:31:08:791,1.1605,0.3685,6.3386,54.8702,0.0413,0.4586,-0.3577,151.06
20:31:08:811,1.1916,0.6341,6.0969,56.1494,0.0669,0.3963,-0.3137,151.4858
20:31:08:829,1.517,0.9188,6.1065,54.8595,0.0742,0.2729,-0.3088,151.9271
20:31:08:850,1.8736,1.2778,6.2213,54.37,0.029,0.1166,-0.3955,152.4956
20:31:08:871,2.1655,1.7276,7.9537,53.9001,-0.2971,-0.1754,-0.8182,153.2749
20:31:08:893,1.876,1.7372,9.1119,55.8032,-0.412,-0.2182,-1.0895,155.5614
20:31:08:912,1.2706,1.6463,10.0331,53.6545,-0.4303,-0.2108,-1.335,157.1459
20:31:08:934,0.4403,1.6893,11.0429,52.8608,-0.3802,-0.2377,-1.4926,158.8666
20:31:08:949,-0.2728,1.6678,11.6124,58.153,-0.2654,-0.2695,-1.522,160.608
20:31:08:970,-0.9571,1.5458,11.8995,56.0779,-0.0894,-0.2059,-1.4389,162.2307
20:31:08:991,-1.6008,1.2275,11.5621,56.2812,0.1304,-0.0655,-1.2373,163.5915
20:31:09:010,-2.2708,1.151,11.1218,56.6365,0.3235,0.1214,-0.9404,164.5963
20:31:09:030,-2.7039,1.4812,11.019,56.0735,0.3772,0.2155,-0.5617,165.1584
20:31:09:049,-2.254,1.9214,11.342,55.1825,0.3345,0.3096,-0.0498,165.157
20:31:09:070,-1.139,2.2899,11.3946,54.5585,0.3223,0.5381,0.555,164.4984
20:31:09:093,0.0622,2.668,10.9807,56.7106,0.3785,0.9046,1.0522,163.2889
20:31:09:110,0.9332,3.3021,10.6887,56.054,0.398,1.2149,1.3259,161.7708
20:31:09:131,1.6989,3.6299,10.8873,56.0675,0.2734,1.2161,1.3821,160.225
20:31:09:150,1.5147,3.4146,11.5095,56.5719,0.0449,0.8386,1.1646,158.962
20:31:09:179,0.402,2.7135,12.3829,56.7392,-0.12,0.1105,0.7199,158.0383
20:31:09:196,-0.3422,0.7131,11.9521,54.798,0.2954,-1.0123,0.3179,157.9547
20:31:09:225,-0.3254,0.5886,10.6863,56.8742,0.6326,-0.9426,0.412,157.7733
20:31:09:234,0.1771,0.9188,9.2746,55.5878,0.7352,-0.6006,0.5892,157.3497
20:31:09:260,1.0887,0.8638,8.1117,56.0106,0.5238,-0.0728,0.7358,156.7034
20:31:09:273,0.8853,0.9882,7.5398,55.6009,0.1036,0.5185,0.6649,156.0086
20:31:09:291,-0.213,1.2227,7.6714,57.0897,-0.3484,0.9681,0.4804,155.3943
20:31:09:310,-0.9715,1.127,8.5256,55.3775,-0.6844,1.0292,0.3888,154.8662
20:31:09:330,-1.0146,0.658,9.1741,55.8072,-0.748,0.7983,0.4646,154.1987
20:31:09:348,-0.8949,0.4929,9.1095,55.1085,-0.4767,0.5588,0.6686,153.4813
20:31:09:368,-0.7226,0.7083,8.5543,55.413,-0.0186,0.3756,0.9288,152.5005
20:31:09:388,-0.3757,0.9643,7.7575,54.661,0.4383,0.1886,1.1768,151.2946
20:31:09:416,-0.1077,1.3376,6.999,53.5071,0.7376,0.0005,1.3307,149.9402
20:31:09:429,0.2536,1.5912,6.5348,56.4273,0.8036,-0.1253,1.354,148.593
20:31:09:450,0.7274,1.7109,6.6353,55.8881,0.6631,-0.1571,1.2562,147.392
20:31:09:468,0.8471,1.8975,7.3077,56.2332,0.3687,-0.1595,1.062,146.3885
20:31:09:492,0.8159,1.7228,8.6237,55.4132,0.0461,-0.1791,0.8677,145.6225
20:31:09:512,0.6604,1.596,10.0283,53.9671,-0.1346,-0.2707,0.7358,145.0139
20:31:09:530,1.1701,1.2179,11.1506,57.8321,-0.1151,-0.5212,0.66,144.5535
20:31:09:551,2.3354,0.7322,12.146,56.9958,0.0242,-0.8437,0.6099,144.2542
20:31:09:570,3.2255,0.5815,12.7681,55.8521,0.1732,-1.1064,0.4621,144.1799
20:31:09:592,3.3547,0.4929,12.5025,54.8828,0.2905,-1.0856,0.2165,144.379
20:31:09:610,2.8379,0.1962,11.5526,55.3655,0.3333,-0.7484,0.0137,144.7035
20:31:09:630,2.4335,0.122,10.4806,56.7553,0.2563,-0.2414,-0.0241,144.9427
20:31:09:649,2.8355,-0.0407,10.0618,54.5147,0.0547,0.207,0.0626,145.0447
20:31:09:669,3.4146,-0.0048,10.3705,56.1087,-0.2165,0.3951,0.0602,145.0967
20:31:09:690,3.5916,0.2441,11.1553,55.0244,-0.4596,0.3267,-0.1231,145.3781
20:31:09:709,3.3165,-0.0239,11.5478,56.2276,-0.5794,0.1972,-0.3967,145.9718
20:31:09:729,3.1824,-0.5815,11.2319,56.8272,-0.4938,0.1434,-0.6008,146.8158
20:31:09:750,3.3093,-0.9356,10.5428,54.2329,-0.3008,0.0811,-0.6912,147.7679
20:31:09:774,3.4265,-0.8303,9.7268,55.8734,-0.175,-0.0117,-0.7633,148.8138
20:31:09:797,2.3976,-0.2608,8.485,55.3433,-0.4279,0.1471,-1.0907,151.2165
20:31:09:814,1.2897,-0.1292,8.4347,55.5391,-0.6624,0.3536,-1.2837,152.6901
20:31:09:830,0.201,0.0646,8.3103,57.3379,-0.7895,0.4892,-1.357,154.2131
20:31:09:849,-0.1579,0.2608,8.0112,54.6549,-0.7516,0.5564,-1.2458,155.6119
20:31:09:869,0.012,0.3565,7.6857,56.3609,-0.5696,0.5662,-1.0345,156.7711
20:31:09:892,0.3398,0.6221,7.4154,54.6373,-0.3204,0.5124,-0.8708,157.7775
20:31:09:913,0.4714,1.084,7.1976,57.0819,-0.0919,0.4147,-0.8011,158.7281
20:31:09:933,0.7083,1.4907,7.0899,55.5144,0.0352,0.2546,-0.795,159.6768
20:31:09:950,0.8112,1.8281,7.4776,55.8357,0.0547,0.0958,-0.8524,160.6965
20:31:09:971,0.8375,1.9813,8.1452,57.0812,0.0242,-0.052,-0.96,161.8661
20:31:09:991,1.0552,1.8808,8.7649,56.5062,-0.0076,-0.2145,-1.0809,163.1885
20:31:10:009,1.1462,1.8473,9.4971,57.026,-0.0394,-0.333,-1.2055,164.6696
20:31:10:029,0.5791,2.0219,10.258,56.0102,-0.0931,-0.3526,-1.3363,166.246
20:31:10:053,-0.3159,2.0698,10.9615,55.3099,-0.1664,-0.289,-1.4291,167.9019
20:31:10:069,-1.6176,2.2684,11.4951,55.7656,-0.2397,-0.184,-1.3998,169.4748
20:31:10:219,-2.2038,2.5866,12.5097,55.2213,-0.2641,-0.0679,-1.0992,170.676
20:31:10:220,-1.2778,2.2684,13.3687,56.7014,-0.1383,-0.0484,-0.4969,171.2344
20:31:10:221,-0.3709,2.3593,13.5242,56.6922,0.2257,-0.0459,0.1249,171.1322
20:31:10:222,-0.0885,2.7733,12.6628,58.1553,0.7328,-0.0569,0.4988,170.6406
20:31:10:223,-0.0574,2.9216,11.086,56.8439,1.1616,-0.1388,0.6026,170.0447
20:31:10:223,0.2153,2.8666,9.7484,57.1887,1.3118,-0.2096,0.5855,169.4901
20:31:10:224,0.9571,2.7015,9.3009,57.1574,1.1078,-0.2414,0.5061,169.0821
20:31:10:241,1.206,2.4885,9.9182,57.7698,0.5825,-0.3538,0.2874,168.9343
20:31:10:251,-0.0694,1.7946,13.1151,57.6448,-0.5513,-0.5615,-0.1805,169.4117
20:31:10:274,-0.536,0.6556,12.9332,56.115,-0.4682,-0.2414,-0.1561,169.6727
20:31:10:298,-1.048,0.3589,11.3994,57.6044,-0.0247,0.1935,-0.018,169.6971
20:31:10:311,-1.1749,0.7011,9.5474,57.5356,0.3675,0.5051,0.1884,169.4423
20:31:10:329,-1.0433,1.1462,8.1859,56.5063,0.4371,0.6798,0.3937,168.9261
20:31:10:348,-0.7753,1.2299,7.8652,58.0262,0.2196,0.7787,0.5159,168.2771
20:31:10:370,-0.5025,1.0792,8.1787,57.11,-0.0919,0.7201,0.5183,167.645
20:31:10:395,-0.7131,1.0433,8.6381,56.7383,-0.2984,0.5906,0.4682,167.0803
20:31:10:413,-1.0648,1.0504,8.674,58.1134,-0.2959,0.5234,0.4939,166.4888
20:31:10:433,-1.1892,0.9715,8.1212,57.2293,-0.1053,0.5368,0.6356,165.7438
20:31:10:450,-1.0959,0.8829,7.2838,57.291,0.1671,0.5503,0.8384,164.7919
20:31:10:471,-0.993,0.9787,6.5539,57.277,0.3919,0.4635,1.0278,163.6746
20:31:10:494,-0.9308,1.4118,6.3577,56.7384,0.4725,0.2314,1.156,162.4373
20:31:10:510,-0.5097,1.6654,6.4726,58.3443,0.4346,-0.0557,1.2294,161.2001
20:31:10:530,0.1507,1.5721,6.6927,58.2225,0.3809,-0.2402,1.2367,160.0164
20:31:10:549,0.5815,1.6726,6.9488,57.8277,0.3186,-0.3281,1.1609,158.9515
20:31:10:569,1.0624,1.7659,7.4345,57.9424,0.2208,-0.3599,1.0485,158.0408
20:31:10:591,1.7587,1.6152,8.3486,57.8829,0.0608,-0.465,0.8934,157.3323
20:31:10:610,2.3306,1.4261,9.7627,59.4638,-0.1444,-0.7166,0.6612,156.9146
20:31:10:629,3.1131,1.2275,11.3611,57.4604,-0.3228,-0.9903,0.4071,156.8648
20:31:10:649,3.8261,0.8638,12.5695,59.4829,-0.4095,-1.088,0.1408,157.1415
20:31:10:669,3.5103,0.4857,12.792,57.4877,-0.3802,-0.9268,-0.1781,157.7501
20:31:10:692,2.4335,0.2106,12.4403,59.507,-0.3314,-0.5847,-0.4578,158.5309
20:31:10:713,1.6606,-0.1316,11.6124,58.3901,-0.3753,0.1825,-0.3784,159.6537
20:31:10:729,2.0674,0.0981,11.8158,58.6866,-0.4865,0.3731,-0.1658,159.9017
20:31:10:750,2.7613,0.1651,12.4211,59.6293,-0.5952,0.2913,-0.0815,160.0894
20:31:10:769,3.1274,-0.0311,12.8112,59.1555,-0.5952,0.1007,-0.1854,160.4351
20:31:10:793,2.9647,-0.3374,12.6078,57.9119,-0.4547,-0.0398,-0.3931,161.012
20:31:10:814,2.6752,-0.524,11.933,60.2779,-0.2605,-0.0642,-0.5372,161.7584
20:31:10:828,2.3067,-0.347,11.0596,58.6573,-0.1249,0.0127,-0.5653,162.5088
20:31:10:849,2.0267,-0.1436,10.1695,58.1139,-0.0711,0.1361,-0.5434,163.2153
20:31:10:869,1.7324,0.0335,9.1741,56.6304,-0.0406,0.2937,-0.5299,163.8812
20:31:10:894,1.2179,0.2536,8.2624,60.7899,-0.0235,0.4367,-0.5446,164.5269
20:31:10:913,0.615,0.5671,7.5924,59.2188,-0.0381,0.466,-0.5605,165.1594
20:31:10:934,0.2656,0.7872,7.2311,57.749,-0.0553,0.4135,-0.5348,165.7714
20:31:10:952,0.2058,0.7992,6.8842,60.0289,-0.0101,0.3487,-0.4713,166.308
20:31:10:968,0.3805,0.8471,6.5085,60.0961,0.1097,0.2998,-0.4053,166.7894
20:31:10:990,0.5671,1.06,6.0347,59.2188,0.2441,0.2558,-0.3687,167.235
20:31:11:010,0.7155,1.462,5.5705,60.3443,0.2844,0.2082,-0.3748,167.6809
20:31:11:031,0.8829,1.8401,5.7787,58.9694,0.161,0.1471,-0.42,168.202
20:31:11:049,1.2323,2.0339,6.5635,58.5003,-0.065,0.0091,-0.5165,168.8673
20:31:11:069,1.5458,2.0267,7.7264,59.8325,-0.3032,-0.1559,-0.6716,169.7203
20:31:11:094,1.6798,1.8879,9.052,58.7229,-0.4657,-0.2206,-0.8561,170.7814
20:31:11:114,1.4357,1.6774,10.0044,60.109,-0.5464,-0.2121,-1.0467,172.0452
20:31:11:130,0.4355,1.6702,11.196,59.5402,-0.5537,-0.1388,-1.2019,173.4329
20:31:11:150,-0.6102,1.7492,12.1938,60.0291,-0.5,-0.1571,-1.2214,174.8123
20:31:11:172,-1.072,1.6582,13.3855,60.5217,-0.0968,-0.1962,-0.6069,176.5671
20:31:11:194,-0.2489,1.8353,13.6343,60.0292,0.2025,-0.1705,-0.0742,176.6764
20:31:11:211,0.7418,2.1727,13.4142,60.0537,0.5165,-0.0251,0.3729,176.3145
20:31:11:229,1.2634,2.3904,12.3135,61.4843,0.8036,0.2351,0.5818,175.71
20:31:11:249,1.2275,2.5149,10.9711,59.1886,0.9698,0.4794,0.5733,175.0941
20:31:11:269,0.9452,2.7972,10.0451,60.5775,0.9148,0.5906,0.4829,174.5295
20:31:11:296,0.5838,2.9025,9.7125,59.2878,0.6778,0.5185,0.3925,174.0657
20:31:11:310,-0.0502,2.6728,9.7771,61.239,0.4102,0.3169,0.2886,173.7259
20:31:11:329,-0.6245,2.2014,10.1695,59.2432,0.2477,-0.0215,0.1689,173.5555
20:31:11:348,-0.7777,1.742,10.4518,60.3175,0.2294,-0.4088,0.0846,173.5679
20:31:11:368,-0.3039,1.4883,10.4542,58.9811,0.2526,-0.6519,0.0687,173.6367
20:31:11:391,0.4857,1.3137,10.0618,58.981,0.2099,-0.5615,0.0846,173.7079
20:31:11:424,0.4211,1.3998,9.612,59.8405,0.0571,-0.1827,-0.0046,173.7991
20:31:11:429,-0.5432,1.3639,9.5569,61.09,-0.1896,0.2326,-0.211,173.9973
20:31:11:453,-1.3735,0.9188,9.6144,59.9583,-0.3998,0.4684,-0.3442,174.2537
20:31:11:467,-1.7994,0.524,9.4588,61.3244,-0.4425,0.5625,-0.2538,174.3657
20:31:11:487,-1.8257,0.4857,9.0927,60.8402,-0.2996,0.6004,0.0125,174.2143
20:31:11:508,-1.6917,0.7394,8.6477,59.1886,-0.0577,0.5442,0.3179,173.7402
20:31:11:530,-1.3089,1.1151,8.0542,60.367,0.1854,0.433,0.5745,173.024
20:31:11:549,-0.8303,1.3256,7.389,60.8858,0.3882,0.3621,0.7614,172.139
20:31:11:568,-0.6987,1.5553,6.8794,61.0322,0.5202,0.3291,0.8213,171.186
20:31:11:589,-0.725,1.8018,6.4702,59.8461,0.5483,0.2729,0.781,170.2832
20:31:11:612,-0.7466,1.8903,6.2644,60.2039,0.4957,0.2119,0.737,168.6691
20:31:11:631,-0.469,2.2851,7.6881,59.855,0.1793,-0.1326,0.6417,167.9917
20:31:11:649,-0.1172,2.1583,9.0042,60.8062,0.0327,-0.3672,0.5305,167.5251
20:31:11:669,0.1316,1.8808,10.1264,61.8199,-0.0064,-0.5236,0.39,167.2633
20:31:11:694,0.4546,1.3878,10.4973,62.1105,0.0535,-0.5529,0.2581,167.1531
20:31:11:713,0.7585,1.1079,10.9998,62.1105,0.0914,-0.5114,0.1567,167.145
20:31:11:728,1.1103,1.0146,11.4209,60.7468,0.0083,-0.5138,0.0785,167.2345
20:31:11:749,1.2993,1.0146,11.7607,59.792,-0.1444,-0.3587,0.0345,167.339
20:31:11:769,1.4859,1.0361,11.6794,59.736,-0.2947,-0.0239,0.0272,167.3702
20:31:11:791,1.9813,0.8471,11.8038,60.999,-0.4413,0.2742,0.0199,167.3495
20:31:11:811,2.5316,0.6556,12.1914,58.8695,-0.5928,0.3621,-0.0742,167.4446
20:31:11:829,2.6824,0.4331,12.9428,61.2407,-0.7382,0.2852,-0.277,167.8022
20:31:11:849,1.9741,0.2752,13.6463,61.8227,-0.7785,0.2436,-0.5263,168.4117
20:31:11:868,0.9284,0.0694,13.4764,60.6445,-0.6148,0.2962,-0.6374,169.1048
20:31:11:892,0.4834,-0.1819,12.9595,60.108,-0.2971,0.3145,-0.5079,169.6417
20:31:11:911,0.9523,-0.3517,11.8421,62.4755,0.1146,0.2106,-0.1976,169.8761
20:31:11:928,1.8329,-0.2393,10.3657,61.496,0.5287,0.0995,0.1249,169.8026
20:31:11:948,2.7733,0.1771,8.7458,60.6913,0.7755,0.0274,0.2617,169.6268
20:31:11:968,2.9958,0.6389,7.3172,61.5093,0.7315,0.0897,0.1371,169.5731
20:31:11:994,2.3306,1.0528,6.5779,61.648,0.4383,0.2119,-0.1781,169.7844
20:31:12:011,1.4189,1.1653,6.7119,58.6278,0.084,0.2925,-0.5201,170.3435
20:31:12:031,0.8351,1.0193,6.6975,62.391,-0.1102,0.2375,-0.74,171.1364
20:31:12:051,0.6341,1.0504,6.5874,63.8681,-0.1469,0.1202,-0.7901,172.0044
20:31:12:068,0.7035,1.1677,6.3027,60.8045,-0.0772,0.0665,-0.7388,172.8232
20:31:12:090,0.8183,1.7228,6.2261,62.2811,0.0278,-0.228,-0.7523,174.5251
20:31:12:113,1.017,1.718,6.7454,61.7975,-0.0613,-0.3807,-0.8451,175.5455
20:31:12:132,0.9188,1.6223,7.0875,61.7975,-0.1554,-0.399,-0.9868,176.7219
20:31:12:149,0.3302,1.663,7.5159,60.7591,-0.2654,-0.3379,-1.1469,178.0303
20:31:12:169,-0.4092,1.6893,8.3653,61.5866,-0.4364,-0.2964,-1.2483,179.4083
20:31:12:193,-1.1821,1.718,9.5474,61.6174,-0.6148,-0.322,-1.2691,180.7877
20:31:12:211,-1.7539,1.6941,10.7821,63.5298,-0.7076,-0.3232,-1.1786,182.0354
20:31:12:333,-2.3115,1.797,11.6937,63.8764,-0.6221,-0.2585,-0.9697,183.0004
20:31:12:334,-2.5244,1.9669,12.1699,64.3407,-0.4046,-0.1815,-0.6618,183.6452
20:31:12:334,-2.1416,2.1918,12.7394,64.3284,-0.1823,-0.1559,-0.2941,183.8998
20:31:12:334,-0.9523,2.3952,13.3783,62.9657,-0.0015,-0.2023,0.0528,183.8271
20:31:12:335,0.3206,2.4598,13.5266,62.4299,0.1781,-0.1815,0.2837,183.511
20:31:12:337,0.6197,2.6106,13.0217,62.4155,0.3259,-0.0312,0.296,183.1882
20:31:12:351,0.0742,2.5723,11.9474,62.4183,0.3956,0.1764,0.1762,182.9542
20:31:12:366,-0.4714,2.2229,11.007,62.5403,0.365,0.3328,0.076,182.7938
20:31:12:387,-0.7705,1.9765,10.9424,62.4726,0.2392,0.3524,0.0467,182.6159
20:31:12:411,-1.1222,1.8209,11.4784,61.9618,0.117,0.3072,0.087,182.4016
20:31:12:429,-1.5218,1.6391,11.4257,62.9423,0.1524,0.1996,0.175,182.1093
20:31:12:449,-1.3831,1.3424,10.6337,63.9989,0.3369,0.075,0.3375,181.6588
20:31:12:468,-0.8183,1.1964,9.6191,63.0336,0.5165,-0.0349,0.5,181.0532
20:31:12:492,-0.268,1.3711,9.2291,63.0148,0.4713,-0.1949,0.5659,180.4496
20:31:12:510,0.1364,1.3591,9.4182,62.6663,0.2111,-0.2475,0.5134,179.9408
20:31:12:529,-0.2776,1.3041,9.8297,63.6405,-0.065,-0.1412,0.3399,179.5502
20:31:12:549,-1.6487,0.9906,9.6742,63.0347,-0.2043,0.1935,0.1836,179.278
20:31:12:567,-1.73,0.8519,8.9755,61.7586,-0.0894,0.3084,0.3387,178.4838
20:31:12:592,-1.5601,0.9858,8.2361,61.15,0.0632,0.3866,0.5745,177.73
20:31:12:609,-1.1007,1.1198,7.5589,63.0371,0.2074,0.3914,0.7883,176.7542
20:31:12:628,-0.7011,1.2419,7.0875,62.9666,0.3088,0.312,0.9178,175.679
20:31:12:647,-0.4355,1.4453,6.8794,62.897,0.3467,0.174,0.9496,174.5691
20:31:12:669,-0.2847,1.6295,6.9512,63.4821,0.3186,0.0408,0.9227,173.5361
20:31:12:691,-0.1675,1.7539,7.5613,64.5158,0.2551,-0.0484,0.8653,172.5889
20:31:12:710,0.1005,1.7133,8.0782,63.1265,0.2257,-0.1131,0.803,171.7351
20:31:12:728,0.1651,1.7587,8.4873,63.0626,0.2453,-0.1705,0.7443,170.9612
20:31:12:748,0.6485,1.7276,9.2411,63.755,0.2257,-0.2524,0.6967,170.2622
20:31:12:771,1.0935,1.7061,9.9087,62.8006,0.2038,-0.3159,0.6307,169.6779
20:31:12:797,1.3256,1.7109,10.1647,62.8619,0.2074,-0.3245,0.5171,169.2297
20:31:12:809,1.7444,1.4979,10.349,64.3925,0.1622,-0.3318,0.3888,168.9261
20:31:12:829,2.0961,1.4118,10.8179,64.7055,0.04,-0.3465,0.2446,168.7826
20:31:12:848,2.2995,1.4189,10.9137,64.2675,-0.0675,-0.267,0.0883,168.8033
20:31:12:868,2.266,1.5673,10.672,63.3201,-0.1322,-0.0826,-0.0547,168.9332
20:31:12:889,2.2708,1.6391,10.4901,64.1475,-0.2263,0.0347,-0.1793,169.168
20:31:12:907,2.5388,1.5027,10.8323,64.0773,-0.3619,0.0311,-0.2819,169.5293
20:31:12:929,2.6106,1.3831,11.4568,64.5862,-0.4499,-0.0312,-0.3992,170.0301
20:31:12:947,2.4455,1.1007,11.464,63.4137,-0.4083,-0.0899,-0.5372,170.6847
20:31:12:968,2.1464,0.8782,11.0883,64.2568,-0.3106,-0.1131,-0.6545,171.4701
20:31:12:989,1.9645,0.6963,10.7868,61.6585,-0.2666,-0.0838,-0.7181,172.3061
20:31:13:010,1.6941,0.3637,10.5571,63.66,-0.3167,-0.1168,-0.7889,173.1867
20:31:13:028,1.3328,0.457,10.2987,64.6899,-0.3374,-0.0899,-0.8073,175.0099
20:31:13:048,1.0337,0.4475,9.6909,64.5218,-0.2996,0.0176,-0.8048,175.869
20:31:13:069,0.6772,0.6102,8.8989,62.2631,-0.2495,0.097,-0.7926,176.698
20:31:13:090,0.2417,0.8734,8.2696,62.8053,-0.2177,0.163,-0.7535,177.4791
20:31:13:108,-0.0096,1.0959,7.6857,63.1859,-0.1628,0.2326,-0.6851,178.1537
20:31:13:128,-0.0646,1.1964,7.0421,62.2533,-0.0723,0.2607,-0.6105,178.7504
20:31:13:148,-0.201,1.5003,6.6664,63.4652,-0.0235,0.2119,-0.5788,179.3022
20:31:13:170,-0.3733,1.7133,6.6927,63.9737,-0.0528,0.097,-0.5922,179.9089
20:31:13:191,-0.6963,1.8616,7.2144,64.0188,-0.1127,-0.0606,-0.624,180.5509
20:31:13:208,-0.8399,1.8903,7.87,64.3606,-0.1469,-0.2035,-0.6325,181.2075
20:31:13:228,-0.8064,2.0602,8.5663,63.9015,-0.1444,-0.2768,-0.5873,181.8486
20:31:13:247,-0.4857,2.1607,9.2124,64.4144,-0.1237,-0.2707,-0.503,182.3963
20:31:13:268,-0.4522,2.2588,9.7173,63.931,-0.0797,-0.2096,-0.4444,182.8628
20:31:13:290,-0.5264,2.2708,10.404,63.9678,-0.0553,-0.1962,-0.4212,183.2955
20:31:13:309,-0.6389,2.1631,10.8467,63.45,-0.0186,-0.2072,-0.3833,183.6752
20:31:13:329,-0.8662,2.2923,10.9161,63.9069,0.0767,-0.1143,-0.2978,183.9456
20:31:13:350,-0.725,2.4215,10.6935,64.8728,0.1805,0.0567,-0.1475,184.0462
20:31:13:372,-0.6245,2.8355,10.6768,62.937,0.227,0.1813,0.0027,183.96
20:31:13:391,-0.457,3.0389,10.7749,62.9666,0.2318,0.2387,0.1273,183.7339
20:31:13:408,-0.0144,2.8403,10.605,63.4216,0.2587,0.2619,0.2385,183.3909
20:31:13:428,0.6891,2.5579,10.0522,62.9202,0.2807,0.2509,0.3167,182.9958
20:31:13:447,0.8447,2.5005,9.5043,63.8842,0.2135,0.2852,0.3008,182.6243
20:31:13:471,-0.6604,2.4024,10.7127,63.9086,-0.0052,0.356,0.1738,182.2339
20:31:13:492,-1.6726,1.8209,12.7107,63.3628,-0.572,0.1312,-0.0437,182.2003
20:31:13:509,-2.0626,1.1988,13.7157,62.4191,-0.5073,-0.151,0.0736,182.0654
20:31:13:545,-1.6534,0.3781,13.2491,64.3993,-0.12,-0.3416,0.3583,181.6559
20:31:13:549,-1.1007,0.4331,11.8469,62.1902,0.3174,-0.4222,0.6564,180.9382
20:31:13:568,-0.146,0.5671,10.3992,63.9384,0.5336,-0.4503,0.8738,179.9995
20:31:13:588,0.4714,0.6772,9.3583,63.5317,0.4896,-0.3269,0.8983,179.0781
20:31:13:607,0.536,0.6556,8.9396,64.5992,0.2832,-0.1339,0.7419,178.293
20:31:13:628,0.1484,0.4977,8.9539,64.116,0.0461,0.0066,0.5635,177.659
20:31:13:648,-0.4211,0.4929,8.9874,64.617,-0.0931,0.0469,0.4694,177.1033
20:31:13:668,-0.8662,0.6867,8.9803,65.6874,-0.1029,0.0653,0.5085,176.4926
20:31:13:689,-0.9117,0.8423,8.4993,62.8795,0.0107,0.1263,0.6331,175.7261
20:31:13:708,-0.6628,0.9045,7.7551,63.2932,0.1964,0.2412,0.7663,174.8031
20:31:13:728,-0.4642,1.1031,6.8866,62.4807,0.376,0.3487,0.8567,173.7814
20:31:13:749,-0.1172,1.4213,6.4702,64.1208,0.4493,0.3475,0.9007,172.7135
20:31:13:771,0.0718,1.8042,6.6042,63.3009,0.4163,0.2473,0.8604,171.7083
20:31:13:789,0.012,2.1009,7.1833,64.222,0.3455,0.1019,0.7126,170.8856
20:31:13:810,0.0574,1.9836,8.205,63.9082,0.2966,-0.0838,0.5342,170.3022
20:31:13:829,0.548,1.6128,8.7601,63.6051,0.3174,-0.2683,0.3827,169.9396
20:31:13:847,0.792,1.6104,9.2483,61.4437,0.3223,-0.3477,0.2544,169.7659
20:31:13:867,1.3089,1.3448,9.8273,65.2585,0.2575,-0.3391,0.1078,169.7557
20:31:13:891,1.608,0.8638,10.3083,62.9041,0.106,-0.3257,-0.1158,170.0021
20:31:13:911,1.328,0.8159,11.5956,63.2486,-0.2116,-0.3061,-0.3687,170.4999
20:31:13:930,0.3541,0.335,13.3855,63.6999,-0.5781,0.0139,-0.5641,171.741
20:31:13:949,0.2967,0.2489,12.3948,63.8586,-0.3656,0.3255,-0.431,172.1366
20:31:13:969,1.0744,0.0766,10.9496,64.4962,-0.1799,0.4953,-0.2196,172.3181
20:31:13:995,1.6176,0.1747,10.3035,64.4101,-0.2568,0.4305,-0.1512,172.4438
20:31:14:011,1.2873,0.524,10.9663,61.8276,-0.5488,0.3389,-0.2856,172.7263
20:31:14:027,0.5695,0.3302,11.9234,64.2543,-0.7492,0.4721,-0.4371,173.1483
20:31:14:048,0.134,0.0311,11.9258,64.5069,-0.6661,0.6272,-0.431,173.5275
20:31:14:068,0.5025,-0.012,11.5478,62.0831,-0.4645,0.5662,-0.2416,173.7496
20:31:14:094,1.4572,-0.0431,11.3874,62.5669,-0.3118,0.3279,-0.018,173.7924
20:31:14:111,2.1224,0.2321,11.1027,64.2262,-0.2214,0.1007,0.0846,173.7723
20:31:14:128,2.3306,0.5192,10.6505,62.1096,-0.1676,0.0885,0.0333,173.8011
20:31:14:147,1.8329,0.7825,9.935,63.1589,-0.1237,0.2216,-0.139,173.9984
20:31:14:167,0.8327,0.9811,9.332,62.0091,-0.0711,0.3805,-0.3173,174.3253
20:31:14:191,0.1914,1.06,8.674,63.5715,0.0107,0.477,-0.3796,174.7091
20:31:14:209,0.0215,1.1151,8.2672,61.9725,0.1243,0.4611,-0.3308,175.016
20:31:14:229,-0.0909,1.2012,7.9155,63.8556,0.2624,0.3878,-0.2538,175.257
20:31:14:248,-0.1149,1.4142,7.6163,62.4571,0.398,0.2632,-0.2074,175.4719
20:31:14:268,-0.012,1.5697,7.3005,61.9196,0.4884,0.108,-0.1964,175.6732
20:31:14:293,0.0311,1.7492,7.1019,62.4477,0.4994,-0.0141,-0.2233,175.9371
20:31:14:309,0.0359,1.8425,7.2072,62.9745,0.4127,-0.074,-0.2697,176.2606
20:31:14:328,0.1172,1.9095,7.5996,64.4934,0.2795,-0.0581,-0.3137,176.6036
20:31:14:461,-0.0383,2.0578,8.0901,62.432,0.1708,-0.0154,-0.3748,176.9908
20:31:14:462,-0.5384,2.1081,8.6429,65.321,0.0816,-0.0166,-0.4456,177.4571
20:31:14:463,-1.9406,2.3354,9.4828,64.8339,0.0119,0.0066,-0.3613,177.9209
20:31:14:464,-2.1344,2.4407,9.4899,62.9423,0.0571,0.1092,-0.1316,178.3275
20:31:14:465,-1.7109,2.6058,9.6455,62.6149,0.0767,0.1385,0.1396,178.0826
20:31:14:468,-1.1055,2.7254,10.0259,61.9449,-0.0003,0.0921,0.3094,177.7372
20:31:14:469,-0.3398,2.6441,10.9424,61.9821,-0.1591,0.0934,0.3473,177.3481
20:31:14:489,0.0646,2.3521,11.543,62.4968,-0.2874,0.2277,0.2666,177.0443
20:31:14:508,-0.5384,2.0961,11.3492,60.49,-0.3277,0.4452,0.1103,176.8723
20:31:14:528,-1.5577,1.9932,11.2822,61.4905,-0.3802,0.5185,-0.0217,176.7937
20:31:14:547,-2.2732,1.7204,11.7392,62.4422,-0.4731,0.3695,-0.0486,176.7541
20:31:14:566,-2.936,1.5601,12.457,60.9866,-0.4816,0.1324,0.0418,176.6173
20:31:14:588,-2.9408,1.3089,12.6126,59.9985,-0.3155,-0.1204,0.2654,176.2898
20:31:14:610,-2.2301,1.005,12.2704,60.964,0.0022,-0.2646,0.5586,175.6732
20:31:14:629,-1.5314,0.8183,10.7151,61.0176,0.3467,-0.2915,0.7175,174.9005
20:31:14:648,-1.0457,0.8638,9.5545,61.9876,0.442,-0.2096,0.7089,174.1284
20:31:14:668,-0.8925,0.8853,8.875,60.6081,0.2465,-0.0251,0.6417,173.4358
20:31:14:693,-1.1079,0.8734,8.7649,61.5413,-0.0223,0.2082,0.5562,172.7745
20:31:14:713,-1.4285,0.7992,8.3725,61.0559,-0.1566,0.4073,0.4914,172.1521
20:31:14:732,-1.4788,0.6843,7.8987,60.6148,-0.1811,0.4843,0.5049,171.5132
20:31:14:747,-1.4453,0.7849,7.7504,61.1298,-0.197,0.4477,0.5708,170.7888
20:31:14:767,-1.6032,0.9691,7.8724,59.1471,-0.2067,0.3463,0.6454,169.9893
20:31:14:790,-1.5984,0.9882,8.071,60.1666,-0.1676,0.207,0.7138,169.1417
20:31:14:809,-1.4764,0.9476,7.9322,59.2298,-0.0516,0.064,0.7773,167.2974
20:31:14:829,-0.9643,1.1605,7.1187,59.3785,0.2062,-0.0459,0.9276,166.2815
20:31:14:848,-0.7083,1.3376,7.0038,58.9329,0.1879,-0.019,0.9545,165.2289
20:31:14:866,-0.5958,1.474,7.2191,59.8415,0.0632,0.1092,0.941,164.1941
20:31:14:891,-0.28,1.5434,7.8102,58.5988,-0.0956,0.2387,0.8738,163.2314
20:31:14:908,-0.0024,1.7085,8.8726,58.6859,-0.2568,0.2204,0.7187,162.4374
20:31:14:929,0.2608,1.3854,9.9518,60.0572,-0.3717,0.1007,0.467,161.9553
20:31:14:946,0.3063,0.9428,11.3109,58.4925,-0.412,-0.0948,0.1823,161.8384
20:31:14:966,0.2417,0.5791,12.3733,58.0028,-0.3607,-0.3697,-0.0559,161.9978
20:31:14:991,0.2919,0.1866,12.4929,57.792,-0.2348,-0.6702,-0.2379,162.3923
20:31:15:013,0.2225,0.0048,12.3326,58.362,-0.1334,-0.7838,-0.3662,162.9473
20:31:15:031,0.2752,-0.0933,12.1484,57.4294,-0.1066,-0.6421,-0.4273,163.5398
20:31:15:046,0.4355,-0.3015,11.8301,56.8196,-0.1517,-0.3929,-0.4236,164.1023
20:31:15:068,0.4546,-0.3829,11.8732,57.7047,-0.3118,-0.1852,-0.4138,164.6293
20:31:15:091,0.5886,-0.6174,12.8279,58.9424,-0.5195,-0.1559,-0.4322,165.1796
20:31:15:109,0.3781,-0.6796,13.4477,57.0329,-0.5794,-0.2365,-0.4835,165.7669
20:31:15:128,0.1101,-0.9021,13.407,57.6576,-0.4352,-0.2206,-0.4847,166.337
20:31:15:148,0.0407,-1.0265,12.6269,57.3766,-0.1493,-0.0435,-0.3589,166.7418
20:31:15:166,0.5121,-1.0696,11.3898,58.888,0.1622,0.1337,-0.1365,166.9213
20:31:15:187,1.2347,-0.9571,10.148,56.3496,0.3956,0.1899,0.0589,166.8981
20:31:15:208,1.7348,-0.6556,9.1693,57.3062,0.4689,0.1324,0.1225,166.8265
20:31:15:228,1.6822,-0.2297,8.5137,54.9053,0.3907,0.1031,0.0321,166.8492
20:31:15:246,1.2084,0.0502,8.0949,56.8392,0.2844,0.1654,-0.1451,167.0399
20:31:15:265,0.6843,0.0933,7.5326,56.2732,0.2526,0.2106,-0.3186,167.3929
20:31:15:287,0.1747,0.2919,7.0349,57.3343,0.2771,0.1776,-0.4102,167.8367
20:31:15:306,0.2847,0.5862,6.0826,58.1734,0.4017,0.0762,-0.3357,168.2462
20:31:15:328,0.5719,0.8997,5.805,56.7252,0.3943,-0.0642,-0.3125,168.9789
20:31:15:347,0.9452,1.2251,6.0802,55.7687,0.2685,-0.2096,-0.3613,169.4161
