Time,Acc_X,Acc_Y,Acc_Z,Meg,Gyr_X,Gyr_Y,Gyr_Z,Ore
19:41:19:052,-0.7418,3.1561,9.4852,61.0378,-0.1579,0.2619,0.1237,71.8067
19:41:19:063,-0.7418,3.1561,9.4852,60.0423,-0.5952,-0.0948,0.3045,55.2443
19:41:19:077,-0.7418,3.1561,9.4852,60.9226,-0.5952,-0.0948,0.3045,54.7213
19:41:19:096,-0.5575,3.0197,9.3296,61.9253,-0.5952,-0.0948,0.3045,54.097
19:41:19:115,-0.5815,3.0102,9.5809,60.7858,-0.0613,-0.041,-0.0632,54.1778
19:41:19:134,-0.615,2.9432,9.6263,62.8136,-0.0516,-0.0374,-0.0705,54.4421
19:41:19:154,-0.6102,2.948,9.3488,60.9191,-0.0162,-0.0484,-0.073,54.5911
19:41:19:175,-0.5862,2.9527,9.2171,62.4471,-0.0186,-0.0398,-0.0718,54.5973
19:41:19:194,-0.5623,2.9408,9.3009,61.0373,-0.0491,-0.0215,-0.0803,54.7007
19:41:19:212,-0.7513,2.9551,9.265,61.549,-0.0577,0.0091,-0.0925,54.8911
19:41:19:231,-0.8159,2.9193,9.2674,61.9282,-0.0638,0.0066,-0.0901,55.1231
19:41:19:252,-0.7035,2.9384,9.4469,61.2931,-0.0662,-0.0312,-0.0657,55.2582
19:41:19:271,-0.7155,2.9886,9.2985,61.9379,-0.0308,-0.0422,-0.0498,55.3594
19:41:19:297,-0.6437,2.9743,9.0209,62.1817,-0.0076,-0.041,-0.0473,55.3531
19:41:19:311,-0.6604,3.003,9.0186,63.0853,-0.0394,-0.0398,-0.0473,55.3843
19:41:19:331,-0.5575,2.9408,9.3416,63.7164,-0.1053,-0.0276,-0.051,55.4307
19:41:19:354,-0.6461,2.9456,9.4732,62.4449,-0.1298,0.0262,-0.0559,55.494
19:41:19:373,-0.7346,2.9503,9.7149,60.9191,-0.1176,0.0616,-0.0571,55.622
19:41:19:394,-0.6724,2.9719,9.6455,62.4449,-0.0662,0.0579,-0.0376,55.6859
19:41:19:412,-0.5216,3.0126,9.3368,61.8149,0.0058,0.0347,-0.0315,55.6696
19:41:19:431,-0.5719,3.0054,9.2339,61.9253,0.0095,0.0042,-0.0437,55.6929
19:41:19:453,-0.6269,2.9527,9.2818,60.6603,-0.0308,-0.0093,-0.0486,55.7435
19:41:19:472,-0.6054,2.9503,9.478,62.1936,-0.0613,0.003,-0.0339,55.7798
19:41:19:493,-0.5695,2.924,9.4516,62.4449,-0.0565,0.0298,-0.0205,55.7795
19:41:19:512,-0.5145,2.9432,9.3823,62.4471,-0.0406,0.0262,-0.0131,55.7845
19:41:19:531,-0.4666,2.9408,9.4229,62.5627,-0.0259,0.0115,-0.0058,55.771
19:41:19:552,-0.4666,2.9815,9.344,61.9282,-0.0101,-0.0019,-0.018,55.7413
19:41:19:571,-0.5432,2.9456,9.2411,60.9191,0.0083,-0.0202,-0.0363,55.7622
19:41:19:591,-0.792,2.9288,8.9874,61.7056,0.0278,-0.0386,-0.051,55.8664
19:41:19:611,-0.9595,3.015,8.8271,62.461,0.029,-0.0447,-0.0412,55.9729
19:41:19:634,-1.0744,3.1585,8.8726,60.9216,-0.0149,-0.0105,-0.0095,56.0318
19:41:19:654,-1.1821,3.3332,9.1262,63.3407,-0.032,-0.0044,-0.007,56.0401
19:41:19:679,-1.0863,3.5366,9.2722,60.7894,-0.0137,-0.0105,0.0199,55.9928
19:41:19:693,-0.6843,3.661,9.1525,64.2381,0.0132,-0.0361,0.0748,55.7674
19:41:19:711,-0.3278,3.7113,9.332,62.7141,-0.0003,-0.0532,0.0956,55.5281
19:41:19:731,-0.402,3.6921,9.6718,63.3512,-0.0333,-0.0716,0.0528,55.395
19:41:19:753,-0.7155,3.7783,9.813,63.0853,-0.0125,-0.1094,-0.0082,55.3536
19:41:19:771,-0.9739,3.9218,9.5976,62.8161,0.073,-0.1278,-0.0339,55.3423
19:41:19:796,-1.0911,3.9936,8.8678,64.5115,0.1512,-0.1253,-0.0437,55.3191
19:41:19:812,-1.2802,4.0199,8.5567,63.8386,0.1366,-0.1473,-0.0864,55.3879
19:41:19:831,-1.5553,3.8501,8.7841,62.362,0.0352,-0.1766,-0.15,55.6428
19:41:19:855,-1.7779,3.618,9.2076,64.1691,-0.0699,-0.1791,-0.1976,56.0045
19:41:19:875,-2.0578,3.4863,9.3296,65.6965,-0.1114,-0.129,-0.2098,56.4149
19:41:19:892,-2.3426,3.4433,9.1143,66.9529,-0.076,-0.0093,-0.1744,56.772
19:41:19:911,-2.4096,3.5294,8.6166,66.9353,-0.0027,0.1056,-0.0742,56.9494
19:41:19:932,-2.2445,3.7256,8.0686,66.2752,0.0632,0.1557,0.0418,56.8907
19:41:19:952,-2.1703,3.9099,7.815,65.6965,0.0865,0.1569,0.1054,56.7198
19:41:19:971,-2.1751,4.1444,7.7934,66.3165,0.0742,0.1447,0.1469,56.4867
19:41:19:991,-1.9549,4.4483,7.9896,66.0345,0.0547,0.1141,0.2202,56.1371
19:41:20:014,-1.3376,4.6277,8.3151,65.9782,0.0352,0.0347,0.3118,55.653
19:41:20:032,-0.8566,4.8885,8.7218,64.7944,0.0339,-0.0422,0.3485,55.1202
19:41:20:051,-0.6987,4.9364,9.2195,66.3117,0.0425,-0.096,0.2947,54.6888
19:41:20:072,-0.8829,4.7474,9.4301,66.0345,0.0901,-0.1559,0.1884,54.4454
19:41:20:101,-1.0074,4.1731,9.7771,64.455,0.1146,-0.278,0.0675,54.3974
19:41:20:111,-0.8519,3.752,10.4542,65.3663,0.0523,-0.256,0.0541,54.5065
19:41:20:131,-0.6915,3.3643,11.1912,65.3614,-0.0015,-0.2817,0.0345,54.7207
19:41:20:155,-0.5216,3.1322,12.1532,65.3481,-0.0369,-0.3428,0.0321,54.9893
19:41:20:176,-0.1316,2.9336,12.7178,65.3663,0.0083,-0.366,0.0516,55.2602
19:41:20:191,0.1316,2.9862,12.0191,65.6548,0.1854,-0.3049,0.0663,55.452
19:41:20:211,0.3278,2.936,10.7318,64.7512,0.3406,-0.2597,0.0394,55.6002
19:41:20:231,0.4451,2.814,10.0881,65.9666,0.3051,-0.344,-0.0327,55.8443
19:41:20:251,0.3278,2.7015,10.0499,63.2347,0.1341,-0.4674,-0.1292,56.2743
19:41:20:276,0.5168,2.5364,10.4447,66.0219,-0.043,-0.4491,-0.1793,56.7588
19:41:20:293,1.0241,2.3761,10.727,64.7634,-0.1456,-0.3232,-0.1829,57.2004
19:41:20:313,1.2203,2.1464,10.873,65.7572,-0.1469,-0.1864,-0.2184,57.617
19:41:20:331,0.9691,2.1057,10.3992,65.4106,-0.0406,-0.0728,-0.2746,58.0679
19:41:20:353,0.5838,2.2086,9.2722,66.0219,0.1366,0.0262,-0.3002,58.4685
19:41:20:373,0.3852,2.2445,7.9992,65.1226,0.2673,0.0787,-0.2868,58.8023
19:41:20:394,0.4092,2.2851,7.212,66.0219,0.2575,0.0689,-0.2514,59.0739
19:41:20:411,0.6508,2.3809,7.1521,64.8179,0.1219,-0.0068,-0.211,59.2996
19:41:20:432,0.9691,2.5172,7.7312,65.4034,-0.0626,-0.0801,-0.1951,59.5215
19:41:20:453,1.0074,2.5723,8.3988,64.5569,-0.1872,-0.0557,-0.2257,59.7668
19:41:20:471,0.7418,2.613,8.8941,64.4893,-0.1982,-0.0312,-0.2843,60.1143
19:41:20:492,0.524,2.601,8.808,65.8903,-0.0919,-0.0752,-0.3125,60.4947
19:41:20:513,0.5958,2.7948,8.0734,63.9348,0.0779,-0.0887,-0.2856,60.8484
19:41:20:533,0.8447,2.9695,7.1234,65.0136,0.1793,-0.0471,-0.2465,61.0618
19:41:20:552,1.4022,3.3476,6.92,66.5656,0.0107,-0.052,-0.2562,61.2427
19:41:20:571,1.3926,3.5533,7.5757,65.2826,-0.1176,-0.0838,-0.2978,61.659
19:41:20:591,1.2323,3.6562,8.2122,64.1315,-0.1689,-0.1216,-0.3381,61.9867
19:41:20:611,1.0433,3.8381,8.4132,64.098,-0.1188,-0.1827,-0.3613,62.3514
19:41:20:632,0.9715,3.9003,8.2744,65.353,-0.0699,-0.2683,-0.3772,62.7748
19:41:20:652,0.6748,3.9242,8.528,65.7499,-0.1017,-0.2915,-0.4029,63.2573
19:41:20:675,0.1101,3.9817,9.2746,64.0085,-0.1701,-0.239,-0.4273,63.7994
19:41:20:693,-0.8088,4.1276,10.3059,66.1555,-0.1505,-0.1925,-0.4322,64.3939
19:41:20:714,-1.6582,4.3669,11.1912,64.7251,0.0132,-0.2829,-0.4053,65.0351
19:41:20:733,-2.0004,4.3765,11.0668,65.0004,0.3027,-0.4747,-0.332,65.6932
19:41:20:757,-1.4907,4.1037,9.7747,63.7233,0.5715,-0.5859,-0.2233,66.2147
19:41:20:776,-0.9404,3.9099,9.0138,64.7285,0.5519,-0.4625,-0.1243,66.5778
19:41:20:793,-1.1701,4.008,9.7555,65.4799,0.205,-0.085,-0.0828,66.7909
19:41:20:813,-1.9717,4.0558,10.9256,64.8918,-0.1469,0.3853,-0.0559,66.8256
19:41:20:833,-2.6943,4.3023,11.3946,65.1531,-0.2348,0.7702,0.0467,66.5959
19:41:20:858,-1.8401,4.2712,10.2197,64.9864,-0.0956,0.9376,0.2752,66.0031
19:41:20:874,-0.5073,3.9888,9.533,64.8918,-0.0723,0.8093,0.4193,65.2842
19:41:20:892,0.8997,2.7637,10.8754,65.1686,-0.3362,0.3817,0.3387,64.8884
19:41:20:913,0.2632,2.4311,12.1986,66.0008,-0.5733,0.0127,0.0687,64.9647
19:41:20:934,-1.541,2.5627,11.8421,64.5529,-0.4523,0.1068,-0.1768,65.3163
19:41:20:967,-2.0315,2.2588,10.5141,65.8132,-0.0785,0.3695,-0.1438,65.5229
19:41:20:985,-2.0698,2.1823,8.3222,63.7041,0.2966,0.3927,0.0235,65.5067
19:41:20:994,-2.1655,1.9143,7.9944,64.0737,0.3552,0.0726,0.0467,65.6008
19:41:21:224,-0.4283,1.6702,7.8341,62.9577,-0.1444,-0.8584,-0.0022,65.8914
19:41:21:235,-0.6054,1.9478,7.9872,65.4272,-0.39,-0.7203,-0.051,66.3013
19:41:21:236,-0.6556,1.8449,8.4012,65.5067,-0.6136,-0.2292,0.0296,66.9116
19:41:21:236,-0.7705,1.876,8.4873,63.4997,-0.6343,0.1654,0.2165,66.7588
19:41:21:237,-0.7657,2.1942,8.1165,63.3165,-0.4609,0.3169,0.3583,66.3669
19:41:21:238,-0.9906,2.6106,7.7169,62.6225,-0.2483,0.2571,0.3864,65.9276
19:41:21:238,-0.4834,2.2253,7.0827,61.7223,-0.1102,0.0567,0.3399,65.5948
19:41:21:239,0.2034,1.9836,7.992,60.5901,-0.065,0.097,0.0968,65.5464
19:41:21:240,-2.6154,4.3956,9.198,59.6119,0.1451,0.4782,-0.2123,65.6308
19:41:21:240,-0.8566,2.6178,8.7338,61.7067,0.1927,0.4721,0.1359,65.425
19:41:21:241,-0.7561,2.7948,9.0592,60.6146,-0.0345,0.0591,0.2239,65.25
19:41:21:241,-0.469,2.4742,9.7938,61.0303,-0.1188,-0.2084,0.1664,65.2372
19:41:21:253,0.2225,2.0985,9.2339,61.2979,-0.0296,-0.3232,0.1506,65.281
19:41:21:272,0.2201,2.1224,8.3246,60.3047,-0.0076,-0.1192,0.131,65.2571
19:41:21:290,-0.8231,3.149,9.3918,61.8776,-0.2739,0.1789,0.1774,65.0629
19:41:21:311,-0.3111,3.2686,10.7629,59.9621,-0.5439,0.3853,0.3595,64.6167
19:41:21:331,0.0407,2.4837,11.744,60.4879,-0.5537,0.4428,0.3741,64.1838
19:41:21:351,-1.7013,0.9739,12.5169,60.0137,-0.3533,0.0738,0.3143,64.0698
19:41:21:370,-0.7489,1.7276,12.6652,60.2427,-0.1212,-0.4149,0.6722,63.6627
19:41:21:392,0.8375,1.9454,12.2584,59.608,0.0987,-0.41,0.9251,62.9189
19:41:21:412,1.663,2.3497,11.4616,59.6828,0.2673,0.1789,0.9019,61.9727
19:41:21:432,1.9143,2.1942,10.069,59.957,0.2575,0.5344,0.8848,60.8971
19:41:21:455,1.8664,1.8161,9.6622,59.3691,0.0119,0.5038,0.7175,60.0205
19:41:21:475,-0.134,1.328,11.2128,59.0343,-0.7492,0.8618,0.2837,59.4645
19:41:21:494,0.3446,0.938,13.0481,59.2863,-0.9984,1.21,0.3522,58.4546
19:41:21:512,1.127,0.8686,12.67,56.2932,-0.5232,0.791,0.4756,57.8591
19:41:21:531,1.4357,1.1151,11.2941,58.0417,0.0755,0.4684,0.3057,57.5077
19:41:21:551,1.7659,1.1055,9.2411,59.2586,0.5067,0.1618,0.065,57.4464
19:41:21:576,1.1749,1.3448,8.1763,57.1511,0.5324,-0.008,-0.2184,57.7347
19:41:21:591,0.4116,1.4333,8.4012,59.9754,0.3418,0.0298,-0.3967,58.2259
19:41:21:610,-0.1292,1.6295,8.4108,56.9822,0.2966,0.1496,-0.409,58.7277
19:41:21:630,-0.122,2.0626,7.4273,58.0829,0.4298,0.2009,-0.3332,59.0992
19:41:21:651,0.0598,2.4861,7.0851,59.1288,0.475,0.1117,-0.299,59.4356
19:41:21:670,0.1842,2.6225,6.9607,57.8509,0.4163,-0.0117,-0.3442,59.8178
19:41:21:690,0.0909,2.7661,6.9033,57.8509,0.3198,0.0323,-0.398,60.2672
19:41:21:711,-0.3015,2.9527,7.066,58.457,0.1598,0.2742,-0.4542,60.6996
19:41:21:731,-1.1007,2.9025,8.3294,58.5633,-0.0247,0.5417,-0.4823,61.1156
19:41:21:751,-0.9595,3.015,9.4469,58.5632,-0.0553,0.6028,-0.3882,61.4126
19:41:21:775,-0.2871,3.0676,9.4277,59.9447,0.1048,0.3389,-0.3076,61.6837
19:41:21:795,-0.7561,3.0269,8.9994,58.6911,0.3076,0.0494,-0.3491,62.1184
19:41:21:811,-1.3783,3.1322,9.0042,57.3375,0.3503,-0.0007,-0.3405,62.5718
19:41:21:830,-2.065,3.4576,9.1932,56.9783,0.3027,0.1459,-0.2587,62.8947
19:41:21:850,-1.6726,3.7496,9.2865,59.2791,0.2526,0.4232,-0.1402,62.9864
19:41:21:872,-1.7755,3.9649,9.4277,59.6465,0.2062,0.571,-0.04,62.8987
19:41:21:893,-2.3809,4.0439,9.1693,59.3658,0.1964,0.5649,0.0186,62.7414
19:41:21:910,-2.4526,3.7472,9.4229,60.1196,0.1366,0.6382,0.1237,62.4732
19:41:21:932,-2.3569,3.6538,10.1767,58.7691,0.029,0.5576,0.219,61.5857
19:41:21:950,-3.125,3.5294,9.7077,60.7814,0.0779,0.2204,0.1164,61.5197
19:41:21:971,-3.4672,2.9432,10.0546,58.8285,-0.0711,0.1715,0.0956,61.5392
19:41:21:992,-3.3093,2.2995,11.3252,57.6134,-0.2874,0.0347,0.1322,61.6207
19:41:22:011,-3.2758,1.3711,12.5527,60.4956,-0.3668,-0.4418,0.1225,61.9171
19:41:22:030,-3.5773,1.7659,11.7488,56.2362,-0.1163,-0.6971,0.1836,62.2127
19:41:22:053,-3.3476,2.3497,9.3942,58.8285,0.2807,-0.4992,0.3387,62.2042
19:41:22:071,-3.5222,2.6584,6.8148,58.3799,0.5165,-0.2976,0.4279,62.0201
19:41:22:090,-2.9073,2.4359,6.061,58.1128,0.3736,-0.3013,0.4487,61.8223
19:41:22:110,-3.1466,2.4048,8.0925,57.5345,-0.0748,-0.4857,0.3632,61.8087
19:41:22:131,-3.2447,1.7252,9.6359,59.9797,-0.3399,-0.5297,0.2569,61.9574
19:41:22:152,-2.9073,1.5314,8.8822,58.0238,-0.2471,-0.4246,0.2837,62.0436
19:41:22:173,-2.3809,1.7515,8.0184,57.8595,-0.1176,-0.3575,0.3632,62.0028
19:41:22:193,-1.6941,1.7779,7.4202,57.1171,-0.1176,-0.3086,0.3815,61.8939
19:41:22:213,-1.8544,1.8855,7.0995,58.6205,-0.1957,-0.1815,0.3045,61.8012
19:41:22:231,-2.8044,1.9525,7.7025,58.0009,-0.3436,-0.0459,0.2165,61.8074
19:41:22:254,-3.2184,1.9406,8.8295,57.5551,-0.4205,0.0811,0.2617,61.7292
19:41:22:276,-2.7541,2.2349,9.119,57.6002,-0.3082,0.1496,0.4218,61.4308
19:41:22:293,-2.0435,2.4048,8.6764,59.4894,-0.1237,0.1569,0.5403,60.9768
19:41:22:311,-1.8209,2.5005,8.1212,59.6469,-0.0333,0.119,0.5305,60.5446
19:41:22:331,-1.9238,2.455,8.7434,59.2086,-0.1151,0.0701,0.4633,60.2101
19:41:22:350,-2.2612,2.4861,10.2197,59.2086,-0.2116,0.108,0.4426,59.8978
19:41:22:374,-2.3402,2.3809,10.1719,58.9029,-0.1127,0.2852,0.5208,59.4565
19:41:22:393,-1.5506,2.9767,9.0018,59.3469,0.1634,0.064,0.6209,58.0958
19:41:22:410,-1.4046,2.6584,10.5524,57.7134,0.0193,-0.4503,0.4438,57.9672
19:41:22:430,-1.4572,2.5029,11.732,59.0479,-0.1395,-0.4344,0.3632,57.9213
19:41:22:450,-1.4357,2.2923,12.0239,58.7483,-0.1591,-0.1864,0.3167,57.876
19:41:22:478,-1.5721,2.0794,12.1053,57.7134,-0.1835,0.1349,0.3057,57.7397
19:41:22:497,-0.9882,2.9551,12.134,56.8157,-0.1896,0.0872,0.3314,57.533
19:41:22:514,-0.5145,2.991,11.5358,59.149,-0.1176,-0.3953,0.3008,57.4883
19:41:22:541,-0.0191,2.8762,10.6768,58.5116,-0.0088,-0.7789,0.2202,57.6482
19:41:22:576,-0.2058,2.0339,10.2197,58.458,0.0083,-0.7545,0.1127,57.9572
19:41:22:576,-1.4572,1.1581,10.7653,57.4675,-0.0992,-0.6922,0.0186,58.4147
19:41:22:596,-1.9741,1.3615,11.665,58.0137,-0.1884,-0.4723,0.1542,58.6571
19:41:22:610,-0.9858,1.4596,11.1482,57.1788,-0.0638,-0.0667,0.4316,58.4728
19:41:22:630,-0.055,1.2132,10.0355,56.2651,0.1463,0.1373,0.5904,58.0264
19:41:22:650,0.6269,1.1031,8.93,57.7498,0.2257,-0.1326,0.5379,57.6935
19:41:22:673,0.5623,1.1414,8.5711,58.2271,0.0901,-0.5212,0.3619,57.6626
19:41:22:696,0.2177,1.127,9.0568,57.4548,-0.2214,-0.6531,0.1799,57.8828
19:41:22:711,0.1053,1.1366,10.3418,59.2388,-0.4645,-0.443,0.1261,58.1118
19:41:22:730,0.3805,1.4189,10.1862,58.5498,-0.3875,-0.1363,0.1628,58.2081
19:41:22:756,0.3948,1.7827,9.3177,58.003,-0.0809,0.1728,0.186,58.1685
19:41:22:782,-0.1579,2.0435,8.0136,56.7786,0.1952,0.2974,0.1359,58.1433
19:41:22:796,-1.1127,2.2062,7.4034,56.0698,0.2807,0.2192,0.0406,58.2476
19:41:22:812,-1.5912,2.3067,7.6379,56.5376,0.2367,0.1398,0.0479,58.3546
19:41:22:831,-1.4285,2.4431,7.7982,55.7658,0.2172,0.1874,0.1689,58.3176
19:41:22:854,-0.7035,2.8475,7.5781,57.5543,0.2636,0.345,0.3961,57.5675
19:41:22:878,-0.7466,2.9145,8.0136,54.5082,0.2062,0.2766,0.4071,57.2401
19:41:22:899,-0.9547,2.8116,8.6716,57.0983,0.1744,0.1923,0.3925,56.9552
19:41:22:909,-0.9236,1.9789,9.2052,57.5981,0.2099,0.1361,0.4499,56.6594
19:41:22:930,-1.8018,3.1657,9.4253,57.0079,0.2893,0.0005,0.6234,56.2194
19:41:22:950,-0.7872,3.2806,9.2219,55.0078,0.3613,-0.1473,0.7627,55.6714
19:41:22:970,-0.4355,3.2399,8.942,54.4749,0.3894,0.0249,0.8518,54.9664
19:41:23:005,-1.1246,3.6754,9.0305,55.7287,0.3076,0.2949,0.7956,54.2272
19:41:23:013,-1.6176,3.5988,9.399,54.2637,0.1647,0.4721,0.8103,53.4332
19:41:23:031,-1.9621,3.5749,10.0953,55.5495,0.0523,0.4367,0.8677,52.6259
19:41:23:049,-1.8831,3.46,10.2867,57.6015,0.0486,0.3157,0.9936,51.7328
19:41:23:070,-1.7898,3.4385,10.2748,55.1005,0.1084,0.2607,1.1157,50.7411
19:41:23:090,-2.3067,3.3763,10.0881,53.37,0.1475,0.2436,1.2,49.6698
19:41:23:110,-2.5268,3.4241,9.7412,55.416,0.1671,0.3939,1.2807,48.4676
19:41:23:130,-2.1033,3.3667,8.9396,54.0043,0.1427,0.6114,1.4089,47.037
19:41:23:150,-0.8471,1.7396,9.265,58.229,-0.0259,0.5662,1.4102,45.6335
19:41:23:171,-1.2323,0.5216,10.6576,58.6124,-0.2813,0.1508,1.2233,44.6444
19:41:23:191,-2.1344,0.7202,11.8014,58.9905,-0.3814,-0.107,1.1084,43.8921
19:41:23:212,-2.8307,1.2825,10.5524,59.4523,-0.1517,0.1056,1.2098,42.9595
19:41:23:346,-2.7876,1.6558,8.4634,57.5058,0.1158,0.4208,1.343,41.7674
19:41:23:347,-2.0698,1.7587,7.4943,57.9945,0.0339,0.5527,1.4163,40.3914
19:41:23:347,-1.3663,1.73,8.2313,58.0448,-0.3252,0.5539,1.3943,39.0206
19:41:23:348,-1.4094,1.4644,10.1073,56.4395,-0.6685,0.4928,1.2147,37.8939
19:41:23:348,-2.0937,0.5097,11.0237,54.7055,-0.4755,0.2925,0.963,36.0794
19:41:23:349,-1.8568,0.6556,9.7986,55.7784,-0.1481,0.2253,1.0559,35.2193
19:41:23:350,-1.2419,1.048,9.1238,54.3388,-0.0015,0.2253,1.2098,34.1631
19:41:23:370,-0.4451,1.4429,9.3248,54.5725,-0.0101,0.2509,1.3418,32.9228
19:41:23:390,0.1627,1.8233,9.7053,52.1367,0.04,0.1948,1.398,31.6054
19:41:23:409,0.4211,2.2588,9.3942,53.3004,0.2025,0.0726,1.3515,30.3501
19:41:23:429,-0.0526,2.5292,8.7936,54.164,0.3662,0.097,1.1768,29.2859
19:41:23:449,-0.7107,2.4072,8.3151,53.5455,0.4261,0.2607,0.9814,28.3953
19:41:23:470,-1.0935,2.1248,8.0279,52.3664,0.3797,0.3988,0.8848,27.59
19:41:23:492,-1.1797,2.0698,8.327,55.1106,0.2416,0.4415,0.9031,26.7645
19:41:23:514,-0.8327,2.3306,9.5737,53.6852,0.0596,0.3682,0.9874,25.8581
19:41:23:530,-0.457,2.5388,10.5691,54.4979,-0.0113,0.2485,1.0498,24.9308
19:41:23:550,-0.067,2.4718,10.4471,52.8716,0.0474,0.1385,1.0229,24.0297
19:41:23:569,0.0861,2.3354,10.6361,53.065,0.0425,0.064,0.9423,23.235
19:41:23:588,0.3757,2.2636,11.7129,54.1887,-0.0956,-0.0154,0.8995,22.4928
19:41:23:610,0.7585,2.3067,12.7466,55.2479,-0.2006,-0.0422,0.9117,21.7661
19:41:23:630,1.34,2.211,12.8997,54.1822,-0.1908,0.0298,0.9068,20.9742
19:41:23:654,1.6702,1.7348,12.9643,51.4738,-0.1725,0.1105,0.8079,20.2501
19:41:23:676,1.06,1.6008,13.2251,53.3914,-0.1774,0.1642,0.6527,19.6837
19:41:23:697,0.6628,1.6869,12.5336,51.1834,-0.0198,0.345,0.6417,19.0816
19:41:23:714,0.5192,1.9741,10.5524,51.6858,0.2905,0.5625,0.7358,18.3105
19:41:23:731,0.5671,2.1033,8.5472,53.4566,0.5153,0.6126,0.8005,17.4165
19:41:23:753,0.5815,2.2971,7.279,53.191,0.5006,0.5087,0.8127,16.55
19:41:23:778,0.6006,1.8903,7.7599,52.6699,-0.0711,0.152,0.5195,15.2126
19:41:23:792,0.2393,1.3902,8.6166,52.8906,-0.3167,0.1019,0.3253,15.1848
19:41:23:810,-0.0144,1.3065,8.8989,49.9218,-0.3985,0.1703,0.2642,14.8694
19:41:23:830,-0.2345,1.529,8.8654,54.3932,-0.368,0.2656,0.2813,14.6768
19:41:23:849,-0.213,1.6869,8.6644,51.788,-0.2886,0.2595,0.3192,14.468
19:41:23:870,-0.2991,1.9143,8.2696,52.6359,-0.1493,0.1557,0.3351,14.2668
19:41:23:890,-0.4068,2.1464,7.5853,53.2565,0.0168,0.0701,0.3351,14.0941
19:41:23:909,-0.3422,2.1655,7.1234,54.1358,0.1341,0.0384,0.3473,13.9129
19:41:23:929,-0.213,2.2708,6.8985,52.7621,0.1671,0.0042,0.3778,13.6996
19:41:23:949,0.0048,2.4933,7.1163,53.2685,0.1329,-0.0545,0.4169,13.458
19:41:23:972,0.2536,2.7278,7.535,52.8906,0.0755,-0.1265,0.4572,13.1761
19:41:23:993,0.5001,3.0317,8.1763,52.1748,0.0364,-0.1632,0.4853,12.8733
19:41:24:011,0.8064,3.216,8.6812,53.6559,0.0266,-0.1473,0.4939,12.5373
19:41:24:036,1.1318,3.2614,9.0712,53.0427,0.029,-0.0887,0.4768,12.196
19:41:24:050,1.1079,3.5055,9.7699,53.8921,-0.0406,0.0103,0.4267,11.8613
19:41:24:069,0.7968,3.7663,11.1099,51.0837,-0.1542,0.1263,0.3802,11.5645
19:41:24:091,0.5025,3.6658,12.1795,54.6814,-0.1566,0.1703,0.3717,11.2538
19:41:24:111,0.7633,3.3452,12.2178,54.7766,-0.0052,0.1129,0.4157,10.92
19:41:24:130,0.5599,3.3906,12.1962,55.0969,0.1622,0.2583,0.4401,10.7044
19:41:24:150,0.2584,3.2016,11.3396,54.1914,0.3003,0.3927,0.5183,10.3437
19:41:24:177,-0.5527,3.4026,10.1575,54.7533,0.3846,0.3695,0.5159,9.8775
19:41:24:196,-1.4309,3.7472,9.3655,52.5626,0.3235,0.4513,0.5391,9.3804
19:41:24:211,-1.2251,3.4648,10.0307,54.539,0.0755,0.5307,0.6283,8.7439
19:41:24:231,-0.2728,2.0243,13.4213,51.2016,-0.2641,0.0017,0.6246,8.1228
19:41:24:252,-0.737,2.266,12.3206,53.3458,0.0498,-0.0764,0.6197,7.0541
19:41:24:275,-1.1725,2.3785,9.4923,52.6118,0.486,0.119,0.6576,6.5444
19:41:24:292,-1.194,2.5484,7.5398,54.2241,0.58,0.1911,0.6784,5.9582
19:41:24:310,-0.7777,2.6154,7.2718,53.6081,0.3051,0.0921,0.6894,5.4154
19:41:24:329,-0.335,2.6106,8.0399,53.4636,-0.0626,0.0335,0.6539,4.8958
19:41:24:350,-0.2513,2.5077,8.461,53.1456,-0.2764,0.1373,0.5562,4.4417
19:41:24:370,-0.5647,2.6178,8.0686,54.061,-0.2935,0.2986,0.4267,4.0737
19:41:24:389,-0.8901,2.467,7.9609,53.1195,-0.2678,0.356,0.2728,3.8545
19:41:24:411,-1.2395,1.8305,8.2193,52.9372,-0.2727,0.2791,0.0846,3.8952
19:41:24:431,-1.5123,1.3663,8.93,52.768,-0.2703,0.1349,-0.0143,4.0734
19:41:24:449,-1.6152,1.5003,9.5689,53.5834,-0.2409,0.0359,0.0809,4.196
19:41:24:472,-1.3567,1.8831,9.7101,53.4138,-0.1322,0.1703,0.3021,4.0465
19:41:24:491,-1.0624,2.2445,9.5833,53.4582,0.0681,0.466,0.5208,3.5438
19:41:24:511,-0.7035,2.6225,8.9228,52.4966,0.2734,0.6333,0.671,2.7906
19:41:24:571,-0.2943,2.7302,8.3868,53.0198,0.4029,0.5405,0.7175,2.0053
19:41:24:572,-0.0526,2.8259,8.4323,53.4162,0.398,0.3426,0.6503,1.3429
19:41:24:572,0.4427,2.9503,9.1262,52.4233,0.3161,0.1581,0.5415,0.8298
19:41:24:589,0.7011,3.003,9.5809,53.5569,0.2905,-0.0117,0.401,0.5052
19:41:24:610,-0.8471,2.3857,9.3416,53.0523,0.3076,-0.0288,0.2996,0.3733
19:41:24:631,0.1364,2.8475,10.2628,53.9507,0.1549,0.1899,0.445,359.9521
19:41:24:649,1.9454,2.388,11.0548,54.1021,0.0632,0.152,0.5513,359.3708
19:41:24:673,0.7801,2.5555,9.8967,52.6306,0.0181,0.0237,0.0052,358.9874
19:41:24:689,-0.3661,2.5938,10.1384,53.185,-0.1872,0.1288,-0.1964,359.2898
19:41:24:709,-0.7418,2.7781,9.8154,54.3422,-0.2348,0.0298,-0.1487,359.5877
19:41:24:728,-0.0431,2.5747,9.4373,52.8781,-0.1994,-0.2695,0.0089,359.8216
19:41:24:749,0.7513,2.2421,9.6335,51.8872,-0.2629,-0.5114,0.0748,0.0334
19:41:24:769,1.0026,2.1703,10.2317,53.4582,-0.3949,-0.5493,0.0211,0.2883
19:41:24:788,0.804,2.1894,10.6959,52.5435,-0.4474,-0.4112,-0.0791,0.6193
19:41:24:809,0.4331,1.8927,10.2915,51.991,-0.3839,-0.1693,-0.1365,0.9255
19:41:24:830,0.725,1.328,10.0307,52.8364,-0.324,0.097,-0.0852,1.0932
19:41:24:850,1.4333,0.8303,9.7436,51.7727,-0.2617,-0.0435,-0.0131,1.1886
19:41:24:875,1.8521,0.5121,10.0116,52.4966,-0.3607,-0.2573,-0.0766,1.3886
19:41:24:891,1.8568,0.2919,10.7031,51.3177,-0.5635,-0.1974,-0.1793,1.6941
19:41:24:911,1.4501,0.7657,11.3013,53.3269,-0.6856,0.0408,-0.2294,2.016
19:41:24:929,1.2921,1.3711,11.0788,49.9734,-0.5867,0.3035,-0.2037,2.2289
19:41:24:950,1.2706,1.7827,9.6622,53.073,-0.2641,0.4293,-0.1988,2.3837
19:41:24:977,0.8542,2.2612,8.193,51.2518,0.0645,0.3316,-0.2917,2.7039
19:41:24:991,0.3541,2.4909,7.4489,50.807,0.2245,0.0494,-0.409,3.2356
19:41:25:009,0.2991,2.6178,7.6355,50.945,0.2074,-0.1864,-0.4762,3.899
19:41:25:029,0.4522,2.8211,7.9777,51.2416,0.1647,-0.2231,-0.4725,4.5645
19:41:25:050,0.4235,3.0772,8.0734,50.9936,0.1781,-0.1278,-0.4847,5.2283
19:41:25:076,0.1364,3.1681,7.9442,50.1803,0.2208,-0.0007,-0.5079,5.886
19:41:25:091,-0.347,3.1274,8.0231,51.1471,0.2318,0.0677,-0.4957,6.5296
19:41:25:109,-0.4977,2.9384,8.6118,49.3794,0.205,0.1056,-0.4175,7.091
19:41:25:129,-0.335,2.8475,9.4158,51.3177,0.2318,-0.0911,-0.1854,7.5121
19:41:25:151,-0.4522,3.1896,9.5545,49.3729,0.2563,-0.1351,-0.0986,8.0245
19:41:25:174,-0.3374,3.4098,10.2772,50.0305,0.1952,-0.0068,-0.0302,8.1854
19:41:25:195,0.0526,3.3332,10.8227,49.5514,0.194,0.1349,0.0675,8.1721
19:41:25:210,0.3206,3.5103,10.6576,48.0807,0.3345,0.0824,0.1591,8.0933
19:41:25:229,0.7346,3.4193,9.8249,50.1107,0.4664,-0.0325,0.1664,8.0173
19:41:25:251,0.3398,2.9934,9.0616,49.7287,0.4615,-0.085,0.015,8.1565
19:41:25:272,-0.7274,2.9216,9.2674,47.677,0.2172,0.0335,-0.1842,8.5089
19:41:25:293,-1.7922,3.0197,9.8895,50.2002,-0.1053,0.1141,-0.2343,8.9209
19:41:25:311,-2.6632,3.0389,11.0931,51.8735,-0.3497,0.1569,-0.1768,9.3004
19:41:25:333,-2.1033,2.1679,12.3853,53.0639,-0.4584,0.0836,-0.0168,9.5487
19:41:25:357,-1.2036,1.3137,13.34,52.3664,-0.4071,-0.0826,0.1494,9.6544
19:41:25:504,-1.2825,1.474,12.6868,53.706,-0.1505,-0.0349,0.296,9.5819
19:41:25:505,-1.4572,2.12,10.4949,50.8083,0.2942,0.2778,0.4866,9.2213
19:41:25:506,-1.2969,2.3186,7.9083,50.8869,0.6252,0.2656,0.5806,8.7514
19:41:25:507,-1.663,2.2086,6.1854,46.3726,0.6008,0.0653,0.4597,8.5011
19:41:25:508,-1.809,1.943,6.2524,48.4574,0.1757,-0.1278,0.3033,8.4433
19:41:25:508,-1.4453,1.3783,7.6833,47.948,-0.4132,-0.1693,0.2483,8.4427
19:41:25:509,-1.2395,1.0002,9.4301,47.1071,-0.8701,0.0677,0.2141,8.4052
19:41:25:510,-1.3759,0.859,10.5045,47.2876,-1.0094,0.4611,0.1884,8.2511
19:41:25:530,-1.4812,0.9141,10.5236,45.4993,-0.7919,0.7641,0.2642,7.9662
19:41:25:550,-1.3663,1.1198,9.4588,46.4895,-0.357,0.7457,0.4401,7.4966
19:41:25:572,-1.1007,1.6247,8.0255,47.1398,0.0559,0.455,0.6197,6.8708
19:41:25:592,-0.6724,2.1823,7.267,45.1928,0.2404,0.2082,0.7382,5.4371
19:41:25:611,-0.0024,2.6584,7.3412,45.8403,0.1854,0.1996,0.6906,4.6208
19:41:25:629,-0.1125,2.8475,7.7097,45.5293,0.0914,0.2485,0.5647,4.0717
19:41:25:649,-0.3565,2.9695,8.3246,44.577,-0.0052,0.2424,0.445,3.6556
19:41:25:671,-0.0048,2.8499,9.6239,46.8801,-0.0687,0.185,0.3998,3.2787
19:41:25:691,0.8159,2.7565,10.6528,45.2791,-0.0162,0.1349,0.3961,2.8882
19:41:25:709,1.3113,2.8475,10.8491,44.9557,0.1622,0.1398,0.3131,2.5518
19:41:25:729,0.938,3.0604,11.0836,46.398,0.2697,0.1862,0.1347,2.4087
19:41:25:750,0.4666,2.9599,11.4879,45.0777,0.2758,0.1227,-0.0693,2.5319
19:41:25:775,-0.0048,2.8211,11.4616,45.8641,0.31,0.0347,-0.2001,2.841
19:41:25:791,-0.4283,3.0102,11.2295,44.9319,0.3723,0.0152,-0.2061,3.1987
19:41:25:810,-0.6078,3.4433,10.7509,44.6695,0.4017,0.0274,-0.0901,3.4176
19:41:25:829,0.2345,3.3595,10.3681,45.6088,0.3479,0.0689,0.0553,3.4327
19:41:25:849,1.1988,2.8762,10.3561,45.4598,0.1842,0.0433,0.0589,3.4284
19:41:25:870,1.2969,2.4024,10.684,41.8826,-0.0589,-0.0813,-0.1133,3.6266
19:41:25:890,0.5575,2.0387,11.5717,44.4193,-0.3094,-0.2658,-0.3112,4.1186
19:41:25:910,0.0766,1.8138,12.1771,43.3927,-0.3839,-0.2622,-0.3454,4.6714
19:41:25:931,-0.1172,1.7563,11.7703,43.3997,-0.1933,-0.118,-0.2562,5.1177
19:41:25:954,0.1196,1.6032,10.1408,42.1884,0.0657,-0.2084,-0.1646,5.4827
19:41:25:974,0.134,1.4213,9.1119,42.7695,0.1317,-0.3978,-0.1414,5.8826
19:41:25:991,0.2608,1.2658,8.6381,41.3356,0.0229,-0.5028,-0.1634,6.3475
19:41:26:013,0.5838,1.048,8.4395,42.8239,-0.1285,-0.5407,-0.1561,7.1954
19:41:26:034,0.481,1.5984,8.461,40.3668,-0.3204,-0.0899,-0.1109,7.4612
19:41:26:056,0.1795,1.9286,8.4419,40.647,-0.2544,0.086,-0.128,7.5546
19:41:26:072,-0.1053,2.0578,7.8939,39.044,-0.0711,-0.0178,-0.1793,7.8761
19:41:26:089,-0.146,2.3234,7.1857,41.3469,0.1329,-0.2267,-0.233,8.3223
19:41:26:109,-0.0718,2.5938,6.8339,38.8903,0.2135,-0.3831,-0.2734,8.8679
19:41:26:130,-0.1723,2.7924,6.9799,39.6589,0.1952,-0.3868,-0.3234,9.4518
19:41:26:149,-0.0479,2.6512,7.2407,39.3616,0.1427,-0.289,-0.3577,10.0566
19:41:26:172,-0.0096,2.7757,7.8556,39.9971,0.073,-0.1326,-0.376,10.6345
19:41:26:190,-0.0287,2.9121,8.7912,40.6543,-0.0113,0.0359,-0.3625,11.1448
19:41:26:211,0.0096,2.9288,9.4086,39.7562,-0.0149,0.0836,-0.3332,11.6311
19:41:26:230,0.0861,2.6584,9.6503,38.8284,0.0645,0.0054,-0.332,12.1176
19:41:26:250,-0.1795,2.7302,9.7244,40.2179,0.117,-0.0581,-0.3186,12.627
19:41:26:272,-0.5336,3.1681,10.1599,39.9348,0.0865,-0.0141,-0.2575,13.0651
19:41:26:290,-0.6748,3.4744,10.6816,36.0805,0.0425,0.0445,-0.1597,13.4044
19:41:26:308,-0.3948,3.5127,11.2606,36.0877,0.0669,0.0421,-0.0424,13.5834
19:41:26:330,0.0191,3.4361,11.0907,37.7435,0.1427,0.0249,0.0919,13.6213
19:41:26:349,0.2632,3.3954,10.873,36.554,0.1842,0.1593,0.1567,13.5131
19:41:26:371,0.134,3.4361,10.6074,34.6394,0.1121,0.3304,0.1371,13.3728
19:41:26:391,-0.6461,3.3811,10.4207,36.8429,0.0205,0.4073,0.0602,13.3112
19:41:26:409,-1.3448,2.8594,10.8634,35.6027,-0.0516,0.2326,-0.0229,13.4541
19:41:26:429,-1.2993,1.8688,11.586,36.2369,-0.1053,-0.1388,-0.0168,13.7219
19:41:26:450,-1.34,1.3065,11.8086,37.5733,-0.0846,-0.3538,0.0736,13.9727
19:41:26:471,-1.608,1.7731,10.9352,35.3283,0.0498,-0.0923,0.2862,13.9326
19:41:26:489,-1.4716,1.9214,8.9683,35.0881,0.2832,0.3328,0.5684,13.4432
19:41:26:510,-1.0074,2.2851,6.798,36.7067,0.1647,0.0433,0.5733,12.8327
19:41:26:530,-0.4164,2.0387,8.2313,34.6214,-0.2788,-0.2035,0.4487,12.0184
19:41:26:549,-0.347,1.6199,9.7675,34.7378,-0.6124,-0.0764,0.2825,11.8858
19:41:26:575,-0.603,1.3878,10.4638,34.5078,-0.7064,0.2632,0.1652,11.8072
19:41:26:590,-1.0361,1.5266,10.191,34.414,-0.5989,0.5381,0.1249,11.7007
19:41:26:614,-1.4859,1.7013,9.3392,33.9786,-0.4413,0.6859,0.1212,11.5566
19:41:26:631,-1.9908,1.7779,8.4921,31.9532,-0.3472,0.8313,0.131,11.3878
19:41:26:649,-2.2612,1.9023,8.1811,33.6776,-0.3766,1.0194,0.2153,11.0684
19:41:26:672,-2.1679,2.187,8.4203,31.6775,-0.4364,1.1807,0.3925,10.5196
19:41:26:690,-1.7252,2.4598,8.7051,32.0453,-0.3814,1.1172,0.5574,9.757
19:41:26:709,-0.8638,2.6297,8.7841,33.5413,-0.1762,0.7677,0.6625,8.9441
19:41:26:728,-0.414,2.9001,8.6261,32.7548,0.0901,0.2778,0.6405,8.2668
19:41:26:751,-0.3613,2.7374,8.5472,32.7548,0.2709,-0.1742,0.4939,7.8604
19:41:26:773,-0.5623,2.4909,8.8678,31.2083,0.3113,-0.3196,0.3436,7.6716
19:41:26:789,-0.6126,2.2708,9.2267,31.7848,0.2612,-0.1595,0.2617,7.5127
19:41:26:823,-0.4953,2.2062,9.2865,30.1921,0.2184,0.0555,0.2129,7.3545
19:41:26:827,-0.3135,1.7827,9.0688,29.7,0.0999,0.1471,0.1396,7.2505
19:41:26:850,-0.5575,1.4596,9.4947,28.8165,-0.2018,0.3817,0.0431,7.1581
19:41:26:869,-1.0289,1.2538,10.5882,30.5098,-0.583,0.78,-0.0241,7.0185
19:41:26:888,-1.8329,1.1581,11.7751,30.8967,-0.8347,1.0035,-0.0901,6.9659
19:41:26:907,-1.8808,1.1749,12.615,31.7743,-0.8042,0.8997,-0.0852,6.9485
19:41:26:927,-1.1294,1.0648,12.2106,29.7801,-0.506,0.4733,0.0223,6.8936
19:41:26:948,-0.4235,0.871,11.5167,29.8807,-0.2251,-0.1229,0.015,6.9467
19:41:26:969,-0.8136,-0.0168,11.8588,29.2029,-0.2177,-0.5639,-0.3674,7.2749
19:41:26:990,-1.1821,0.1172,11.6004,30.6735,-0.1774,-0.1559,-0.3723,7.7671
19:41:27:009,-0.5073,0.6293,10.7509,29.6917,0.062,0.0311,-0.1707,8.5286
19:41:27:031,0.0909,0.5384,8.7529,28.8086,0.3662,-0.2536,-0.0986,8.7156
19:41:27:055,0.2417,0.3278,7.949,29.6917,0.4163,-0.487,-0.2061,9.0755
19:41:27:071,0.804,0.5145,7.9107,28.7501,0.227,-0.6861,-0.2856,9.5312
19:41:27:090,1.2323,1.0983,7.5302,30.1601,0.0938,-0.8351,-0.4212,10.1619
19:41:27:108,0.1771,0.7418,7.0134,29.7716,-0.0149,-0.5969,-0.7119,11.0965
19:41:27:128,-1.1773,1.0337,6.7047,29.748,-0.1408,-0.3135,-0.7926,12.1326
19:41:27:148,-2.2277,1.0193,6.6042,27.9488,-0.2581,-0.2731,-0.7193,13.1189
19:41:27:169,-2.6178,1.1366,7.0636,30.0594,-0.3436,-0.3465,-0.5153,13.91
19:41:27:190,-2.5819,1.6941,7.4704,30.2333,-0.3533,-0.3452,-0.2477,14.3864
19:41:27:214,-0.9739,1.8377,8.2313,29.0231,-0.3863,-0.2744,0.1188,14.4074
19:41:27:229,0.7107,1.8999,8.9061,29.1528,-0.3985,-0.0862,0.3118,14.0582
19:41:27:248,0.7107,2.1823,9.5043,29.1528,-0.3509,0.1117,0.1848,13.8191
19:41:27:271,-0.2153,2.3641,10.6505,28.1143,-0.2959,0.1153,-0.0339,13.8569
19:41:27:288,-0.5886,1.9358,11.1458,28.1725,-0.1383,-0.1791,-0.1866,14.0913
19:41:27:308,-0.7178,1.4022,10.7294,27.709,0.1427,-0.3623,-0.2367,14.4498
19:41:27:329,-1.2849,1.797,9.9446,29.0231,0.31,-0.2841,-0.1695,14.7769
19:41:27:352,-0.8399,2.0411,9.3296,29.0943,0.2477,-0.0068,0.0956,14.718
19:41:27:377,-0.0502,2.5723,9.1908,27.9482,0.051,0.2827,0.3424,14.2916
19:41:27:389,0.4379,2.7805,10.8084,25.5569,-0.2299,0.4696,0.3277,13.8206
19:41:27:409,0.8542,2.1272,12.8279,25.4958,-0.3387,0.4464,0.1286,13.5049
19:41:27:429,-0.6293,1.8401,13.6343,27.0504,0.4493,0.1239,-0.2086,13.5133
19:41:27:449,-0.5838,0.9906,11.3755,31.2444,0.8488,0.0311,-0.1182,13.7862
19:41:27:474,-1.3615,1.6534,9.9972,30.5296,0.8659,0.2705,-0.1402,13.937
19:41:27:490,-2.266,2.3282,9.923,30.5296,0.4677,0.4489,-0.1622,14.1198
19:41:27:613,-2.1081,1.9932,11.0907,30.5296,-0.1139,0.2583,-0.0009,14.159
19:41:27:615,-1.3376,1.1916,12.7298,30.5296,-0.5488,-0.1925,0.2092,14.0389
19:41:27:616,-1.34,0.8758,12.4929,30.5296,-0.517,-0.4466,0.3192,13.8535
19:41:27:617,-1.328,0.5886,10.7725,30.5296,-0.0369,-0.1876,0.3913,13.5488
19:41:27:618,-1.1581,1.0648,9.1286,28.5658,0.4945,0.1471,0.4108,13.1502
19:41:27:619,-1.3328,1.8425,8.2648,28.5658,0.6961,-0.0154,0.285,12.8377
19:41:27:635,-1.2802,1.797,8.1356,28.3659,0.497,-0.4931,0.0956,12.8374
19:41:27:647,-0.8088,1.1366,8.5496,28.2139,0.1256,-0.7777,0.0015,13.0005
19:41:27:668,-0.7753,0.7418,9.5952,28.8307,-0.1322,-0.7887,-0.0596,13.229
19:41:27:688,-0.9787,0.7872,9.7579,29.5109,-0.1029,-0.7484,-0.1377,13.5484
19:41:27:708,-1.3687,0.9906,9.1238,30.1453,0.1781,-0.6507,-0.1891,13.8887
19:41:27:728,-0.725,1.2514,7.8915,29.0168,0.4579,-0.6678,-0.1744,14.2166
19:41:27:748,-0.8351,0.9811,6.9033,31.332,0.6533,-0.7435,-0.2392,14.6548
19:41:27:769,-1.34,1.3519,5.7045,28.2322,0.5739,-0.6421,-0.3809,15.2265
19:41:27:789,-1.5482,1.5027,5.0513,30.351,0.2245,-0.3794,-0.3967,15.7512
19:41:27:808,-2.7063,2.4167,6.2333,30.351,-0.2544,0.2375,-0.3137,16.0504
19:41:27:827,-2.345,2.5316,8.1093,30.7365,-0.7015,0.7641,0.0479,15.8185
19:41:27:848,-1.5194,2.3474,9.7914,29.7002,-0.9385,0.9046,0.434,15.1353
19:41:27:872,-0.8112,2.3809,10.9998,28.9635,-0.8799,0.7946,0.5708,14.3007
19:41:27:890,0.1053,2.2564,12.3876,30.2682,-0.2629,0.2864,0.3668,13.517
19:41:27:912,-0.2776,2.4407,12.2991,30.2682,0.0865,0.2852,0.1555,13.0237
19:41:27:927,-0.39,2.1488,12.2513,30.5875,0.2636,0.2119,0.0003,12.5842
19:41:27:950,-0.3446,1.8568,12.4379,30.0094,0.3296,-0.0691,-0.0889,12.5875
19:41:27:974,-0.1986,1.6367,12.134,28.5517,0.42,-0.3452,-0.1182,12.6786
19:41:27:992,0.1172,1.6247,11.5526,28.4918,0.5006,-0.3929,-0.0986,12.7412
19:41:28:011,0.5958,1.6463,10.8897,27.5358,0.4481,-0.2353,-0.0693,12.715
19:41:28:031,1.1677,1.1964,10.6505,27.9047,0.2367,-0.0703,-0.1096,12.6542
19:41:28:049,1.3113,0.2369,10.8491,29.0043,-0.1114,-0.0667,-0.2758,12.7966
19:41:28:070,0.5456,-0.0431,11.5214,30.5875,-0.5415,-0.0972,-0.4737,13.2192
19:41:28:089,-0.5551,0.0574,11.9115,29.435,-0.8542,0.1838,-0.4969,13.6364
19:41:28:108,-1.0313,-0.0861,11.2917,30.3876,-0.9007,0.6786,-0.3357,13.8091
19:41:28:127,-1.0409,0.0646,10.5164,29.8153,-0.7663,1.0695,-0.095,13.6603
19:41:28:147,-0.5838,0.5145,10.3179,31.2362,-0.5916,1.0573,0.1664,13.1922
19:41:28:170,0.213,0.6556,10.3872,29.2243,-0.4364,0.6517,0.2862,12.5993
19:41:28:192,0.7059,0.3254,10.1815,28.9335,-0.2263,0.2094,0.2165,12.1501
19:41:28:209,0.6556,0.1149,9.4158,30.5823,0.0865,0.0506,0.0712,11.8715
19:41:28:229,0.0431,0.4905,8.1811,30.6848,0.4286,0.1471,-0.0901,11.7578
19:41:28:247,-0.6078,1.1844,7.1474,30.9612,0.6509,0.301,-0.2013,11.7963
19:41:28:271,-0.9165,1.2921,6.4128,29.4811,0.7181,0.3047,-0.1854,11.8055
19:41:28:288,-0.792,1.596,6.3577,30.6036,0.6582,0.1813,-0.0974,11.7276
19:41:28:310,-0.5719,1.8855,6.6114,29.8165,0.5128,0.053,-0.0192,11.5894
19:41:28:329,-0.4929,2.199,7.1043,30.188,0.3772,0.0335,-0.0046,11.4204
19:41:28:355,-0.8519,2.2588,7.4871,30.728,0.2025,0.1496,-0.1536,11.4073
19:41:28:377,-0.9739,1.9884,8.0758,30.5201,0.0584,0.2339,-0.2001,11.4096
19:41:28:405,-0.8901,2.266,8.863,29.9784,-0.0931,0.2461,-0.15,11.3358
19:41:28:408,-0.7394,2.3761,9.6837,30.5358,-0.1689,0.1239,-0.084,11.2201
19:41:28:427,-1.127,2.5172,10.483,29.8165,-0.1395,-0.0227,-0.1158,11.1512
19:41:28:447,-1.7683,2.9121,11.1171,31.1191,-0.0223,-0.1803,-0.1866,11.255
19:41:28:469,-1.8281,3.1394,11.3372,32.3934,0.227,-0.2316,-0.117,11.2749
19:41:28:489,-1.3495,2.8355,11.0716,30.191,0.5837,-0.1351,0.0528,11.0834
19:41:28:512,-1.151,2.5866,10.3155,30.1513,0.8085,-0.0154,0.098,10.8218
19:41:28:528,-0.9882,2.6082,9.8776,32.2329,0.7474,0.064,0.0773,10.5443
19:41:28:549,-0.9523,2.2875,9.8848,31.8167,0.4847,0.0445,0.0748,10.2312
19:41:28:572,-2.2516,2.3569,9.8656,30.7423,0.2697,-0.0166,0.0101,10.0807
19:41:28:589,-3.5581,3.1537,10.1001,30.9667,0.1891,-0.0777,-0.0205,10.0321
19:41:28:608,-3.0891,2.9169,9.9494,31.4484,0.2746,-0.3477,0.1921,9.7935
19:41:28:629,-1.9334,2.3282,10.2269,31.5097,0.2844,-0.5358,0.3118,9.4655
19:41:28:648,-1.5625,2.3737,10.3537,31.5097,0.0681,-0.5798,0.2703,9.1785
19:41:28:670,-1.3591,2.3976,10.1336,32.8414,-0.1102,-0.1607,0.3106,8.7177
19:41:28:690,-1.3783,2.2445,10.014,31.397,-0.1738,0.0897,0.3253,8.1499
19:41:28:708,-1.6223,2.0363,10.0355,30.7451,-0.1713,-0.0691,0.197,7.7937
19:41:28:728,-1.6439,1.5601,9.8441,33.5176,-0.1371,-0.3623,0.0309,7.7114
19:41:28:747,-1.5314,1.2132,9.8201,30.6172,-0.1823,-0.5273,-0.0852,7.7878
19:41:28:769,-1.2754,0.9619,9.923,31.3285,-0.3326,-0.4601,-0.1267,7.8778
19:41:28:788,-1.4429,0.7896,9.9565,31.6994,-0.4584,-0.1779,-0.1316,7.8978
19:41:28:809,-1.998,1.2347,9.3775,34.0215,-0.4547,0.1312,-0.1158,7.833
19:41:28:828,-1.9693,1.584,8.7266,32.4194,-0.0723,0.3634,0.197,7.3647
19:41:28:848,-1.6558,2.0722,8.3198,33.7392,0.1976,0.2204,0.4047,6.6765
19:41:28:869,-1.3256,2.5172,7.791,31.1728,0.4677,-0.0264,0.555,5.8963
19:41:28:888,-0.8949,2.7278,7.1569,33.3148,0.6717,-0.1607,0.6319,5.072
19:41:28:911,-0.7849,2.7613,7.0947,32.1578,0.723,-0.1424,0.6283,4.2257
19:41:28:928,-0.7155,2.9527,6.987,33.4127,0.6765,-0.096,0.5806,3.4114
19:41:28:964,-0.524,2.924,7.0995,33.2423,0.5715,-0.0361,0.522,2.6637
19:41:28:966,-0.4977,2.7876,7.5924,32.2326,0.3699,-0.0312,0.4132,2.0141
19:41:28:991,-0.591,2.8355,8.3486,31.8317,0.1341,-0.1326,0.2703,1.5638
19:41:29:006,-0.3948,2.5962,9.143,33.1942,-0.065,-0.1949,0.1933,1.2001
19:41:29:026,-0.2752,2.1751,9.9063,33.2949,-0.2238,-0.0764,0.1555,0.825
19:41:29:047,-0.3924,2.1081,10.8299,32.9881,-0.3802,0.0298,0.1164,0.459
19:41:29:068,-0.3422,1.943,11.6507,33.2949,-0.4804,-0.0496,0.0809,0.1772
19:41:29:089,0.0096,1.8568,12.3637,32.3417,-0.4816,-0.2377,0.0565,359.9398
19:41:29:109,0.6963,1.6822,12.7346,33.6347,-0.368,-0.4149,0.0577,359.7251
19:41:29:129,1.3256,1.3472,12.3685,32.2325,-0.153,-0.5578,0.0565,359.5252
19:41:29:148,1.8042,0.8806,11.6435,32.2326,0.1048,-0.5896,0.0296,359.3675
19:41:29:173,1.9167,0.4522,10.8682,31.6421,0.2282,-0.5395,-0.062,359.2915
19:41:29:189,0.9811,0.8973,10.1264,32.5239,0.1243,-0.3917,-0.222,359.3938
19:41:29:207,0.4307,1.1103,9.5378,31.9817,-0.0772,0.0921,-0.211,359.3683
19:41:29:228,0.6174,1.2897,9.3272,34.7008,-0.2923,0.5344,0.0235,358.9622
19:41:29:247,1.3926,1.5266,9.5163,33.1975,-0.4951,0.571,0.2007,358.2993
19:41:29:272,1.9454,1.4285,10.2533,31.6235,-0.7198,0.196,-0.1695,357.757
19:41:29:290,1.084,1.2419,10.5882,33.323,-0.7541,0.1691,-0.5263,358.0548
19:41:29:309,0.0598,1.3113,10.6552,33.4472,-0.6404,0.1948,-0.7095,358.54
19:41:29:327,-0.5192,1.5649,10.0044,33.2269,-0.3057,0.1789,-0.6729,359.0491
19:41:29:347,-0.4594,1.9621,8.9659,32.1805,0.1671,0.1593,-0.5018,359.3145
19:41:29:374,0.0981,2.1942,7.59,31.9605,0.5544,0.1813,-0.3466,359.4305
19:41:29:388,0.4905,2.2421,6.195,34.4876,0.679,0.2595,-0.3344,359.4872
19:41:29:407,0.1196,2.4024,5.6088,31.9586,0.4395,0.4513,-0.4969,359.6772
19:41:29:427,-0.8399,2.4311,6.2836,32.2709,-0.0846,0.6443,-0.69,0.1179
19:41:29:448,-1.474,2.2062,8.4203,31.8974,-0.5085,0.6553,-0.646,0.5042
19:41:29:469,-1.5745,2.3497,9.7531,32.3201,-0.5403,0.3939,-0.3772,0.6402
19:41:29:490,-0.8877,2.1368,9.9876,33.4834,-0.1505,0.1459,-0.0583,0.4587
19:41:29:508,-0.4355,2.3258,9.399,31.5339,0.3235,0.086,0.0199,0.1806
19:41:29:527,-0.4738,2.802,8.5161,33.0593,0.4542,-0.1253,-0.1365,0.1647
19:41:29:548,-0.5958,2.6488,8.918,33.2128,0.2025,-0.151,-0.2831,0.2773
19:41:29:572,-1.4213,2.7111,9.5498,31.417,-0.0553,-0.0471,-0.3088,0.4335
19:41:29:587,-1.8927,3.0796,10.1623,34.3619,-0.1542,0.0139,-0.2074,0.4744
19:41:29:609,-1.5888,2.9264,11.062,34.7753,-0.1762,0.0714,-0.0205,0.2753
19:41:29:751,-1.1629,2.7996,11.4951,34.0767,-0.1041,0.0738,0.1347,359.9423
19:41:29:752,-1.2084,2.7494,11.0333,32.9205,0.0364,0.0115,0.1836,359.5865
19:41:29:753,-1.8497,2.6465,10.5452,35.4414,0.0461,0.0726,0.12,359.3235
19:41:29:754,-2.5914,2.3641,10.3203,35.6952,-0.0333,0.1911,0.0797,359.1003
19:41:29:755,-3.0221,2.1224,10.3226,32.6812,-0.1212,0.2021,0.1188,358.844
19:41:29:756,-2.5053,0.9571,11.6602,32.8255,-0.2751,-0.2194,0.3179,358.5034
19:41:29:757,-2.8738,1.3543,12.2943,33.3066,-0.1774,-0.2035,0.4939,358.2446
19:41:29:770,-2.3833,1.194,10.3418,34.3619,0.4677,-0.4136,0.6844,356.8334
19:41:29:788,-2.2804,1.5242,8.6548,35.3558,0.8439,-0.5444,0.7126,356.0565
19:41:29:806,-1.3663,1.6152,7.7982,34.7743,0.7266,-0.7667,0.6527,355.3691
19:41:29:826,-0.2058,1.2419,7.9848,34.1911,0.2453,-0.8302,0.5146,354.8044
19:41:29:846,-0.0311,0.8973,9.7053,34.5384,-0.3741,-0.6629,0.2605,354.4834
19:41:29:870,-0.6078,0.7801,11.5645,34.1911,-0.7529,-0.2231,0.0944,354.2669
19:41:29:887,-1.2849,1.0385,12.0215,35.215,-0.6514,0.2229,0.0895,353.9527
19:41:29:910,-1.6869,1.4405,10.7414,36.0892,-0.2043,0.4171,0.2007,353.4778
19:41:29:929,-1.4979,1.5314,9.8632,33.7447,0.2942,0.4684,0.3888,352.7884
19:41:29:946,-0.8136,1.3113,8.2074,35.2196,0.7315,0.345,0.5745,351.9269
19:41:29:968,-0.8279,1.6056,7.1976,34.7014,1.0199,0.1263,0.6454,351.0312
19:41:29:986,-0.8997,2.2277,6.9248,36.7305,0.9991,-0.096,0.6747,350.166
19:41:30:007,-0.5168,2.534,7.4273,36.0949,0.8378,-0.1156,0.7529,349.2158
19:41:30:027,-0.1316,2.8714,7.0253,35.5537,0.734,0.0091,0.781,348.2223
19:41:30:047,0.0048,3.0078,6.6449,36.4082,0.5813,0.2387,0.6747,347.2511
19:41:30:071,-0.0885,2.7661,7.1067,35.4089,0.2563,0.4672,0.5537,346.3419
19:41:30:089,-0.5192,2.7805,8.5735,34.7823,-0.0821,0.5759,0.4988,345.4558
19:41:30:109,-0.323,2.6465,9.4349,36.8053,-0.1921,0.5601,0.5427,344.5195
19:41:30:126,-0.0502,2.6225,9.1478,36.4591,-0.0626,0.4415,0.577,343.5641
19:41:30:147,0.4834,2.5699,8.6477,36.7135,0.0608,0.2497,0.5379,342.7165
19:41:30:173,1.0313,2.5747,8.6189,36.0154,0.0181,0.0799,0.4169,341.5558
19:41:30:189,0.5671,2.3952,9.411,37.0867,-0.2629,-0.0484,-0.0315,341.5563
19:41:30:208,-0.012,2.0363,10.148,37.5915,-0.4596,-0.256,-0.1927,341.6497
19:41:30:228,0.0168,1.6223,10.9543,37.6343,-0.6295,-0.4332,-0.2159,341.8003
19:41:30:248,0.3278,1.1749,11.5573,38.4253,-0.7687,-0.4747,-0.2074,341.9576
19:41:30:270,0.8399,0.469,12.1866,36.8005,-0.8836,-0.4088,-0.2049,342.0525
19:41:30:291,0.7202,0.4929,12.9835,36.3177,-0.9495,-0.2548,-0.2379,342.1581
19:41:30:307,0.7585,0.6293,12.859,37.9896,-0.8237,-0.0007,-0.2135,342.1594
19:41:30:328,1.0816,0.7202,11.9163,38.1623,-0.5464,0.0909,-0.1829,342.1125
19:41:30:348,1.2802,0.926,11.3133,37.6392,-0.3643,-0.0911,-0.2379,342.1846
19:41:30:371,1.0935,0.9978,11.129,36.6767,-0.3155,-0.3135,-0.3821,342.4439
19:41:30:388,0.6126,0.6843,10.727,36.2525,-0.3082,-0.3623,-0.5678,342.9609
19:41:30:407,-0.067,0.6843,10.325,38.8143,-0.3191,-0.2096,-0.6753,343.5746
19:41:30:426,-0.3637,1.0193,9.7723,38.1354,-0.2959,0.0298,-0.6545,344.1417
19:41:30:447,-0.6126,1.3711,9.0353,38.0467,-0.1762,0.2216,-0.58,344.5758
19:41:30:471,-0.7633,1.6152,7.9155,37.6644,0.0205,0.2436,-0.5189,344.98
19:41:30:488,-0.8901,1.8879,7.0014,37.3481,0.1817,0.1202,-0.4713,345.3473
19:41:30:507,-0.7155,2.0913,6.5611,39.0769,0.2282,-0.0838,-0.4224,345.7109
19:41:30:525,-0.4666,2.3378,6.542,38.9855,0.1671,-0.2243,-0.4065,346.0707
19:41:30:546,-0.6748,2.7374,6.786,38.4159,0.0266,-0.1949,-0.4615,346.4878
19:41:30:566,-0.9404,2.9049,7.468,38.5942,-0.1762,-0.0532,-0.5531,347.0021
19:41:30:587,-1.0911,2.7829,8.7458,39.3905,-0.3753,0.0921,-0.6325,347.5516
19:41:30:608,-1.139,2.4287,10.2843,38.493,-0.4645,0.1312,-0.668,348.1842
19:41:30:627,-0.9571,2.0411,11.2893,39.6361,-0.3998,0.1044,-0.6203,348.7303
19:41:30:647,-1.017,1.943,11.8445,39.6361,-0.0149,0.3463,-0.3723,349.1594
19:41:30:669,-1.1174,2.1727,10.928,38.231,0.2282,0.4586,-0.2123,349.5778
19:41:30:689,-0.8183,2.2516,10.3657,38.8684,0.3345,0.4428,-0.0718,349.468
19:41:30:710,-0.6269,2.1272,10.5117,39.6361,0.2771,0.3524,0.004,349.2943
19:41:30:726,-0.5551,1.9525,10.9735,40.7732,0.1744,0.2766,0.0309,349.0916
19:41:30:746,-0.5647,1.7324,11.1027,39.8899,0.1133,0.229,0.0431,348.8777
19:41:30:769,-1.0337,1.8018,11.1482,40.1242,0.0889,0.2326,0.0333,348.6863
19:41:30:787,-1.474,1.8855,10.7892,39.7438,0.0828,0.2265,0.0516,348.493
19:41:30:806,-1.5218,1.7109,10.9807,39.122,0.0095,0.1031,0.0956,348.2747
19:41:30:827,-1.1653,1.0265,11.787,40.3227,-0.1224,-0.14,0.1494,348.0352
19:41:30:847,-1.2993,0.7442,12.0191,42.6026,-0.1224,-0.3074,0.1726,347.7895
19:41:30:869,-1.5577,0.8279,10.8419,41.298,0.0975,-0.2267,0.2312,347.4879
19:41:30:886,-1.5625,1.1342,9.1143,40.1535,0.3369,-0.1156,0.3228,347.0629
19:41:30:907,-1.4572,1.3137,8.0806,40.7861,0.3516,-0.2243,0.3363,346.6568
19:41:30:928,-1.2275,1.2873,8.3031,41.1568,0.1524,-0.4308,0.2886,346.3325
19:41:30:973,-0.9763,0.9882,8.7577,40.7705,-0.0638,-0.537,0.1946,346.1265
19:41:30:974,-1.1701,0.8351,9.387,41.0137,-0.2067,-0.476,0.0614,346.0647
19:41:30:986,-1.2491,0.5958,9.8154,43.6235,-0.2837,-0.3208,-0.018,346.0696
19:41:31:006,-1.3065,0.469,9.9781,42.8073,-0.2434,-0.1058,-0.0315,346.0074
19:41:31:025,-1.3089,0.5432,9.5856,43.6545,-0.0772,0.0787,0.0027,345.9251
19:41:31:045,-1.2586,0.7513,8.9324,44.4557,0.1451,0.1422,0.065,345.7885
19:41:31:068,-1.2754,1.2084,8.6189,43.2971,0.3271,0.0457,0.1506,345.5544
19:41:31:086,-1.0959,1.6128,8.1835,44.8489,0.4689,-0.085,0.2349,345.2681
19:41:31:112,-1.0672,1.9765,7.1928,43.6922,0.6204,-0.2622,0.1933,344.8156
19:41:31:127,-1.3256,2.1105,6.8506,43.8685,0.5849,-0.3318,0.1347,344.6808
19:41:31:149,-1.151,1.9501,6.8243,44.0132,0.4652,-0.366,0.1237,344.5642
19:41:31:172,-0.926,1.8808,7.1713,44.6217,0.2587,-0.421,0.1298,344.4328
19:41:31:188,-0.7466,2.0674,8.3414,45.8484,-0.0357,-0.4332,0.1212,344.3009
19:41:31:206,-0.4331,1.9741,9.8393,44.8646,-0.3155,-0.3086,0.1041,344.169
19:41:31:228,-0.5073,1.8927,11.007,46.4915,-0.4132,-0.0606,0.0663,344.0327
19:41:31:246,-0.4116,1.8066,12.1077,45.8231,-0.3863,0.0421,0.0467,343.9063
19:41:31:267,-0.1603,1.7109,12.2321,44.9975,-0.2568,-0.0007,0.0589,343.7584
19:41:31:287,-0.2273,1.9286,12.0215,46.0699,-0.1383,-0.0923,0.0406,343.6537
19:41:31:307,0.1842,1.7827,11.5047,46.0086,-0.0821,-0.1876,0.0431,343.5695
19:41:31:326,0.6604,1.4285,10.8251,46.2469,-0.1041,-0.2194,0.0199,343.5023
19:41:31:347,0.8351,0.7442,10.9424,46.4953,-0.3069,-0.2328,-0.0791,343.5265
19:41:31:367,0.6532,0.2584,12.4786,47.9734,-0.6783,-0.2463,-0.1842,343.6696
19:41:31:389,0.2441,-0.1316,14.132,46.8913,-0.8982,-0.0447,-0.1903,343.7977
19:41:31:406,-0.2177,-0.3183,14.1727,46.2936,-0.6734,0.3646,-0.051,343.7058
19:41:31:426,-0.1244,0.0431,12.5527,47.905,-0.1102,0.6553,0.2397,343.2798
19:41:31:447,0.6413,0.4642,10.3633,48.5367,0.4737,0.5967,0.5745,342.4731
19:41:31:471,1.8688,0.3996,8.2193,47.9065,0.8855,0.3182,0.7859,341.4494
19:41:31:488,3.1322,0.1316,6.3912,48.6334,1.004,-0.0826,0.7333,340.5045
19:41:31:508,3.8859,0.1627,5.6423,49.8763,0.6961,-0.5554,0.4132,339.9987
19:41:31:527,3.5725,0.5121,6.5683,49.0509,0.0486,-0.6763,-0.0437,340.0496
19:41:31:546,1.9813,0.8471,8.3605,47.295,-0.5733,-0.2597,-0.5116,340.5321
19:41:31:567,-1.2395,1.1438,9.454,49.6105,-0.5195,0.5894,-0.7425,341.2875
19:41:31:586,-0.9021,1.4142,8.3222,48.807,-0.0748,0.4391,-0.4224,342.0143
19:41:31:606,0.012,1.8855,7.4441,49.3859,0.1805,0.1031,-0.0925,342.4151
19:41:31:627,0.7298,2.345,7.3579,50.4376,0.1976,-0.0948,0.0565,342.3199
19:41:31:645,1.0528,2.6321,7.8054,51.658,0.1182,-0.1388,0.0076,342.2739
19:41:31:667,1.0528,2.7517,8.4443,51.2883,0.0669,-0.1962,-0.1255,342.3801
19:41:31:686,1.2179,2.6082,8.6453,48.9806,0.0975,-0.3342,-0.2343,342.6282
19:41:31:706,1.3711,2.3258,8.7745,52.0556,0.1024,-0.4723,-0.332,343.0045
19:41:31:726,1.2132,2.3163,9.5474,53.4971,-0.0491,-0.4564,-0.4187,343.479
19:41:31:747,0.4403,2.5077,10.7653,52.5894,-0.2299,-0.1937,-0.459,343.9943
19:41:31:770,-0.3541,2.6441,11.2534,53.8111,-0.2006,0.1532,-0.4065,344.4265
19:41:31:888,-0.5862,2.8642,10.6074,54.4435,0.0608,0.3597,-0.2477,344.6374
19:41:31:889,-0.2201,2.991,9.5522,54.3481,0.3064,0.3621,-0.0657,344.6591
19:41:31:890,0.402,2.9958,9.5234,53.7461,0.2661,0.2326,0.026,344.5757
19:41:31:890,0.5097,2.8211,10.7103,54.9587,0.0229,0.0811,-0.0168,344.5713
19:41:31:891,0.1627,2.5053,12.1938,53.3965,-0.1811,-0.0374,-0.1524,344.7266
19:41:31:892,-0.6508,2.2158,12.7011,54.9392,-0.2067,-0.052,-0.2526,344.9983
19:41:31:906,-1.6917,2.132,12.2034,54.5279,-0.1444,0.0481,-0.2452,345.2592
19:41:31:925,-1.8233,1.6845,12.1819,54.6911,-0.2251,0.1789,-0.0791,345.3024
19:41:31:945,-1.0959,0.9236,13.3304,52.347,-0.4755,0.2778,0.1664,345.0602
19:41:31:967,-0.481,0.4283,14.3306,56.2503,-0.5623,0.3805,0.3827,344.5315
19:41:31:987,-0.3733,0.5743,13.3328,55.3238,-0.2031,0.5515,0.5293,343.8269
19:41:32:006,-0.7322,0.9308,10.5906,54.9289,0.4066,0.6224,0.5965,343.0575
19:41:32:027,-0.2847,1.5027,6.9392,55.4217,0.7328,-0.0728,0.5269,342.3156
19:41:32:045,0.0144,1.3783,7.2718,56.0165,0.3748,-0.3953,0.3375,341.4245
19:41:32:070,-0.0502,1.0337,8.1499,56.278,-0.0027,-0.4198,0.0944,341.3509
19:41:32:086,-0.5168,0.6365,8.4108,56.7062,-0.1872,-0.1766,-0.1316,341.499
19:41:32:105,-1.2945,0.3326,8.1595,58.0962,-0.2287,0.1239,-0.2807,341.7679
19:41:32:128,-1.7898,0.0909,8.1859,57.3806,-0.2409,0.3242,-0.2807,342.0126
19:41:32:147,-2.0698,0.2034,8.1619,57.1742,-0.1762,0.3829,-0.1451,342.0956
19:41:32:171,-1.9095,0.4881,7.858,57.6337,-0.0174,0.312,0.0541,341.9848
19:41:32:187,-1.6654,0.8279,7.1689,56.923,0.172,0.1752,0.2349,341.6895
19:41:32:206,-1.2514,1.1462,6.3769,57.6297,0.3015,0.0909,0.3583,341.2774
19:41:32:225,-0.7777,1.5864,6.0682,58.0817,0.2636,0.053,0.4108,340.7933
19:41:32:244,-0.4403,1.7659,6.408,58.5547,0.0681,0.0762,0.3705,340.3601
19:41:32:267,-0.3039,1.8209,7.1593,59.4405,-0.1395,0.1056,0.2569,340.0445
19:41:32:284,-0.8375,1.8951,8.3629,59.2222,-0.2886,0.0225,0.0993,339.9351
19:41:32:304,-1.0648,1.7204,9.6622,59.4733,-0.3423,-0.1766,-0.0046,339.952
19:41:32:324,-1.2108,1.5314,10.3059,61.0435,-0.2422,-0.3281,-0.0229,340.0383
19:41:32:344,-1.4165,1.4333,10.9615,60.841,-0.0785,-0.3269,0.0199,340.0774
19:41:32:366,-0.9667,0.8829,11.3085,61.067,0.0266,-0.3342,0.0883,340.0334
19:41:32:385,-0.0861,0.39,11.409,61.7968,0.0181,-0.4075,0.1616,339.8767
19:41:32:404,0.5815,0.682,12.1986,60.8745,-0.153,-0.4369,0.2068,339.6865
19:41:32:424,0.8064,1.2945,13.0816,59.9205,-0.3521,-0.3538,0.186,339.4973
19:41:32:445,1.0911,1.2849,13.3902,61.3128,-0.4059,-0.1461,0.0956,339.3618
19:41:32:468,1.206,0.3733,12.4235,60.1837,-0.3656,0.0762,-0.1609,339.2997
19:41:32:487,0.5958,0.122,12.7849,61.1088,-0.4938,0.0946,-0.3015,339.4245
19:41:32:506,-0.1747,-0.0646,12.859,61.7529,-0.4914,0.2119,-0.3369,340.0021
19:41:32:525,-0.5767,-0.1196,12.1651,60.1712,-0.2409,0.3621,-0.2147,340.1495
19:41:32:546,-0.0766,-0.2489,10.8275,61.9804,0.1072,0.4049,0.0406,340.0048
19:41:32:569,0.6604,-0.1484,9.6072,62.4252,0.3357,0.2595,0.2654,339.6281
19:41:32:587,1.4931,0.012,8.9683,61.3577,0.3565,0.0445,0.3558,339.1534
19:41:32:606,1.9956,0.0838,8.6716,61.1374,0.2795,-0.0691,0.2776,338.7902
19:41:32:626,1.8257,0.256,8.0806,60.4437,0.2074,-0.0496,0.0638,338.6572
19:41:32:647,1.1031,0.3422,7.4178,61.6953,0.1243,0.0567,-0.1719,338.7747
19:41:32:670,0.4379,0.5216,7.1091,60.7755,0.0107,0.1691,-0.3112,339.0527
19:41:32:686,0.0933,0.6748,7.1067,61.4812,-0.0907,0.229,-0.3381,339.3716
19:41:32:705,0.0024,0.9523,7.1593,61.6953,-0.1395,0.2106,-0.3088,339.6578
19:41:32:725,0.0718,1.1462,7.1354,60.0636,-0.1383,0.1471,-0.2599,339.8916
19:41:32:745,0.3278,1.4213,7.3149,61.4109,-0.1371,0.0421,-0.233,340.107
19:41:32:769,0.4953,1.6487,7.6857,61.4109,-0.1738,-0.0593,-0.2587,340.3646
19:41:32:787,0.524,1.6869,8.1117,61.0737,-0.2287,-0.1156,-0.3271,340.6992
19:41:32:805,0.3733,1.7563,8.6022,61.4379,-0.3106,-0.1278,-0.4016,341.1275
19:41:32:825,0.0622,1.9071,9.9828,61.2425,-0.4046,-0.1168,-0.4444,341.6054
19:41:32:846,-0.1149,1.809,11.3085,62.4852,-0.39,-0.1461,-0.4383,342.081
19:41:32:869,-0.2847,1.5697,11.6435,61.2425,-0.1811,-0.1607,-0.3931,342.5151
19:41:32:886,-0.7609,1.8664,11.3851,62.4645,0.0926,-0.1143,-0.2953,342.8352
19:41:32:906,-0.9547,2.278,10.9878,61.1971,0.2954,-0.0056,-0.117,342.9671
19:41:32:926,-0.6987,2.0315,10.8515,62.8107,0.3931,0.0115,0.0467,342.9008
19:41:32:945,-0.6365,1.1653,11.2391,63.3401,0.4261,-0.3611,0.0357,342.8307
19:41:32:970,-1.0744,1.2203,11.3587,62.8803,0.431,-0.4894,-0.0034,342.8882
19:41:32:986,-1.7779,1.3472,10.8012,60.816,0.4823,-0.4014,0.0003,342.9723
19:41:33:006,-2.2684,1.6056,9.9015,61.9418,0.4737,-0.1986,0.0907,342.9243
19:41:33:025,-2.2971,1.9023,9.2889,62.7856,0.3296,0.0335,0.2801,342.6541
19:41:33:044,-1.6223,1.8808,9.3416,61.468,0.0486,0.1972,0.489,342.1151
19:41:33:066,-0.6963,1.4572,10.3394,61.9418,-0.2861,0.2449,0.6197,341.3988
19:41:33:092,-0.0694,0.8614,11.6889,63.4704,-0.517,0.1752,0.6429,340.667
19:41:33:114,-0.2393,0.938,12.4235,63.3487,-0.4816,0.13,0.6246,339.9442
19:41:33:124,-0.6939,1.3352,11.677,63.3126,-0.1505,0.1667,0.6356,339.2395
19:41:33:146,-0.6317,1.3472,9.8632,63.4836,0.2526,0.1019,0.6735,338.4946
19:41:33:167,-0.2943,1.474,8.8558,61.4782,0.3809,-0.1143,0.7101,337.7176
19:41:33:184,0.2034,1.462,8.997,61.9053,0.2172,-0.2915,0.6979,336.9728
19:41:33:203,0.7394,1.2395,9.6359,62.3874,-0.0039,-0.3098,0.5953,336.3224
19:41:33:225,0.9715,1.0409,10.0594,60.4242,-0.1285,-0.1656,0.4303,335.8389
19:41:33:245,1.0409,0.7394,9.7197,62.5755,-0.0833,0.0653,0.2593,335.4962
19:41:33:271,0.7059,0.5719,8.8128,59.8622,0.0364,0.2229,0.0956,335.3217
19:41:33:294,0.1531,0.6724,8.339,59.4001,0.0681,0.2693,-0.0034,335.2573
19:41:33:310,-0.2967,1.2658,8.5567,60.9697,0.0168,0.2399,-0.0022,335.194
19:41:33:328,-0.4762,1.7587,8.6859,60.5039,0.0339,0.2106,0.0541,335.1005
19:41:33:345,-0.3446,1.9789,8.3079,60.8453,0.1561,0.1886,0.0993,334.9472
19:41:33:365,-0.2417,2.0889,7.8724,60.7448,0.2661,0.1813,0.1017,334.7959
19:41:33:388,-0.3781,2.2564,7.6355,62.4192,0.3051,0.1728,0.076,334.605
19:41:33:407,-0.6102,2.4,8.1069,62.5718,0.2123,0.0555,0.0443,334.5646
19:41:33:426,-0.1268,2.3378,9.0951,61.0709,0.0975,-0.0471,0.1017,334.4672
19:41:33:445,0.5575,2.2301,9.9111,61.7865,0.04,-0.085,0.1604,334.288
19:41:33:467,1.0265,2.0435,10.7103,61.6368,0.0425,-0.0948,0.1188,334.1327
19:41:33:484,1.0385,1.8233,11.6913,60.425,0.0559,-0.1791,-0.0034,334.1327
19:41:33:503,0.8016,1.5362,12.1172,59.64,0.128,-0.3489,-0.1341,334.3013
19:41:33:524,0.6006,1.3831,11.854,61.2648,0.2331,-0.5089,-0.2355,334.6177
19:41:33:544,0.6628,1.3256,11.7105,61.3587,0.227,-0.5468,-0.277,334.9767
19:41:33:565,0.9858,1.127,11.7823,59.9793,0.0987,-0.4381,-0.2868,335.3396
19:41:33:585,1.3854,0.6508,11.8325,59.4616,-0.0907,-0.3477,-0.3405,335.7192
19:41:33:605,1.6941,0.1866,12.2249,60.2106,-0.3619,-0.2841,-0.453,336.2074
19:41:33:624,1.3854,-0.1962,13.1629,61.1137,-0.6563,-0.118,-0.5922,336.8411
19:41:33:643,0.6006,-0.2871,13.9023,60.6338,-0.7419,0.2509,-0.6533,337.4627
19:41:33:664,0.0838,-0.1962,13.1821,60.3995,-0.4132,0.703,-0.5372,337.9093
19:41:33:684,0.3326,0.0526,11.2032,59.7471,0.1842,0.8655,-0.2917,338.0669
19:41:33:704,1.0576,0.3613,9.2195,60.1907,0.6827,0.5784,-0.1023,338.0295
19:41:33:725,1.7779,0.6126,7.8461,59.2012,0.8549,0.0921,-0.0693,338.0168
19:41:33:746,2.0411,0.8566,7.5733,59.6204,0.7474,-0.2634,-0.233,338.2529
19:41:33:769,1.8281,0.6054,7.7049,59.5942,0.5067,-0.4039,-0.5116,338.8291
19:41:33:787,0.8136,0.7418,8.1165,59.3004,0.2709,-0.322,-0.7498,339.6918
19:41:33:807,-0.1651,1.1151,8.3366,58.2525,0.1708,-0.1962,-0.8305,340.635
19:41:33:825,0.2082,1.2849,7.4824,59.2943,0.2758,-0.1632,-0.7034,341.4229
19:41:33:847,0.9045,2.1942,5.8146,58.8619,0.5385,-0.1693,-0.5055,342.6609
19:41:33:868,0.6389,2.7613,6.0754,60.6964,0.3858,-0.2377,-0.5177,343.2598
19:41:33:886,0.4522,3.0796,7.3244,59.7846,0.117,-0.2915,-0.602,343.9993
19:41:34:037,0.6461,2.9886,8.662,60.1979,-0.0296,-0.4295,-0.6802,344.843
19:41:34:040,0.9093,2.9623,9.3799,60.9707,0.0217,-0.526,-0.7547,345.7912
19:41:34:042,1.005,3.015,9.6694,59.9887,0.1219,-0.5041,-0.828,346.8144
19:41:34:044,0.6197,2.8738,9.7675,61.47,0.1708,-0.3367,-0.8524,347.8278
19:41:34:045,0.1986,2.7996,9.9111,59.7703,0.1964,-0.1449,-0.7926,348.7395
19:41:34:045,-0.0096,2.9839,9.6718,59.7183,0.2257,-0.0606,-0.6558,349.4629
19:41:34:054,-0.1436,3.5055,9.3894,59.3621,0.2099,0.1141,-0.514,349.9986
19:41:34:054,-0.5408,3.7687,9.6646,58.5212,0.0779,0.4025,-0.431,350.3696
19:41:34:068,-0.7753,3.4768,10.5739,57.885,-0.054,0.466,-0.4358,350.722
19:41:34:087,-0.6772,3.1537,11.062,58.3929,-0.0357,0.2607,-0.4432,351.1406
19:41:34:104,-0.6245,2.6967,11.2319,59.9859,0.0926,0.1654,-0.4138,351.5628
19:41:34:124,-1.0911,2.4048,10.7605,57.6111,0.2245,0.2803,-0.354,351.8889
19:41:34:144,-2.0913,2.6488,10.1169,57.1572,0.3039,0.444,-0.2636,352.0935
19:41:34:167,-3.0173,2.9121,9.88,58.4498,0.2978,0.3743,-0.1255,352.1878
19:41:34:186,-3.1011,3.1681,10.459,58.052,0.249,0.0775,0.0394,352.2139
19:41:34:210,-1.9669,2.3689,11.0764,57.546,0.2868,-0.2609,0.2055,352.1218
19:41:34:224,-1.6199,2.0052,10.6887,58.9446,0.4518,-0.4515,0.2556,352.0279
19:41:34:245,-1.608,1.8592,9.5426,57.4106,0.668,-0.3636,0.3338,351.844
19:41:34:270,-1.785,1.8329,8.2217,56.9325,0.6057,-0.1913,0.4023,351.5408
19:41:34:288,-0.5958,2.0578,8.5352,55.8792,0.2502,-0.2365,0.522,351.0969
19:41:34:308,0.2656,1.3854,10.0762,58.2335,-0.4682,-0.5725,0.3412,350.6732
19:41:34:325,-0.3446,1.5266,10.081,54.4378,-0.5561,-0.3208,0.0455,350.5616
19:41:34:347,-0.5767,1.4788,9.2459,57.0202,-0.5427,0.0311,-0.0437,350.5927
19:41:34:367,-0.8973,1.3854,8.2313,56.5869,-0.4694,0.3255,0.0357,350.4815
19:41:34:387,-1.194,1.4333,7.6044,56.5624,-0.3912,0.4477,0.1604,350.2239
19:41:34:405,-1.2491,1.8568,7.389,56.855,-0.3411,0.3597,0.3057,349.8422
19:41:34:424,-0.9858,2.2564,7.3866,57.0519,-0.2874,0.2473,0.456,349.3384
19:41:34:444,-0.5192,2.5627,7.3364,57.0687,-0.2116,0.2387,0.5586,348.7015
19:41:34:465,-0.3996,2.7111,7.3101,56.2324,-0.175,0.2949,0.5598,348.0468
19:41:34:488,-0.658,2.9743,7.5948,57.2263,-0.1799,0.2949,0.5195,347.4437
19:41:34:505,-0.4786,3.1154,8.1236,56.163,-0.186,0.174,0.5146,346.8711
19:41:34:525,-0.2465,2.8331,8.5137,55.9175,-0.1505,0.0653,0.4975,346.33
19:41:34:544,-0.3063,2.601,8.9468,55.3229,-0.0833,0.0274,0.4218,345.8782
19:41:34:568,-0.5025,2.6728,9.478,55.1961,-0.0662,0.0127,0.3326,345.5305
19:41:34:586,-0.8159,2.2995,10.0546,54.3023,-0.1273,0.0579,0.2935,345.2282
19:41:34:604,-0.8159,1.7228,10.8873,54.0953,-0.2214,0.0995,0.3021,344.8984
19:41:34:625,-0.5767,1.06,11.4521,54.3958,-0.2507,0.1166,0.3705,344.4751
19:41:34:645,-0.2321,0.8112,11.7009,57.2537,-0.2409,0.1324,0.4584,343.946
19:41:34:664,0.0479,0.8662,11.5645,54.2168,-0.2568,0.1251,0.4866,343.3906
19:41:34:688,-0.0598,0.9739,11.3827,54.0997,-0.3301,0.2094,0.4487,342.8539
19:41:34:706,-0.1244,1.3065,11.5573,54.2114,-0.4437,0.2998,0.456,342.3196
19:41:34:724,0.6915,1.4094,11.8899,53.7664,-0.5561,0.2888,0.5073,341.6842
19:41:34:744,1.7372,1.1198,12.2465,54.6821,-0.6258,0.2595,0.5012,341.0254
19:41:34:765,2.5986,1.1222,12.4762,52.6365,-0.5769,0.4061,0.2715,340.0262
19:41:34:788,2.5316,0.8375,11.5669,54.6529,-0.3436,0.5723,0.1652,339.6884
19:41:34:805,2.1535,0.6508,10.8706,54.4006,-0.0785,0.5222,0.0223,339.5132
19:41:34:825,1.7946,0.7585,10.526,53.0198,0.106,0.1679,-0.1194,339.5797
19:41:34:844,1.797,0.5408,10.2724,54.5461,0.2172,-0.239,-0.2636,339.8432
19:41:34:865,1.7037,0.2058,9.7914,54.0035,0.2905,-0.3648,-0.442,340.3385
19:41:34:888,0.9332,0.1771,8.8941,53.2606,0.2868,-0.1827,-0.6093,340.9943
19:41:34:905,0.0024,0.5456,8.1763,55.1211,0.161,0.1263,-0.6435,341.6749
19:41:34:926,-0.3278,0.9978,7.736,54.9772,0.0009,0.2925,-0.5055,342.1816
19:41:34:945,-0.134,1.34,7.5302,54.4876,-0.0198,0.2619,-0.3515,342.5297
19:41:34:969,0.0479,1.6319,7.4489,54.7302,0.1084,0.1263,-0.3149,342.8708
19:41:34:985,-0.0287,2.0052,7.4154,54.4876,0.3198,-0.063,-0.3564,343.3025
19:41:35:003,-0.1196,2.2181,6.9775,54.4181,0.5116,-0.2377,-0.4077,343.816
19:41:35:024,-0.2465,2.2923,7.1091,54.3581,0.5385,-0.1876,-0.4774,344.4106
19:41:35:043,-0.2034,2.5005,7.3795,52.9617,0.3528,-0.1534,-0.5715,345.0993
19:41:35:064,-0.146,2.479,8.2361,54.4314,0.1732,-0.2463,-0.6338,345.8472
19:41:35:085,-0.5719,2.5077,8.9348,54.3991,0.0816,-0.3037,-0.6826,346.7057
19:41:35:104,-0.9523,2.6776,9.6215,54.8633,0.0547,-0.3379,-0.7266,347.6128
19:41:35:125,-1.2849,2.6967,10.349,54.1368,0.0315,-0.3122,-0.7107,348.522
19:41:35:145,-1.8377,3.0532,11.0405,54.0405,0.0217,-0.2218,-0.6362,349.3335
19:41:35:170,-1.7468,3.4385,11.1601,56.6888,0.1097,-0.0887,-0.4933,349.9708
19:41:35:187,-1.6415,3.4863,11.1338,55.9606,0.2306,0.1105,-0.3919,350.4461
19:41:35:204,-1.3352,3.4744,11.3922,54.0629,0.3113,0.1752,-0.2098,350.6898
19:41:35:226,-0.5886,2.7661,11.1434,56.1063,0.464,0.2693,0.1151,350.4447
19:41:35:244,-1.6965,2.936,10.5476,56.4742,0.4823,0.3731,0.0321,350.3908
19:41:35:267,-2.9025,3.0437,9.9039,55.1037,0.4408,0.4513,0.004,350.3804
19:41:35:289,-3.4648,3.0126,9.6574,56.0328,0.3699,0.4391,0.1115,350.2769
19:41:35:307,-2.8092,2.6106,10.0881,55.897,0.2612,0.2314,0.285,350.0072
19:41:35:324,-1.6247,1.8138,10.5212,56.1112,0.1549,-0.0496,0.3864,349.6897
19:41:35:345,-1.5434,1.6941,10.3968,55.7642,0.1304,-0.0593,0.368,349.3802
19:41:35:366,-1.7252,1.5386,9.6981,56.0425,0.1561,0.1007,0.401,348.9969
19:41:35:390,-1.5506,1.3878,9.3775,56.2725,0.1414,0.0469,0.5159,348.495
19:41:35:402,-1.0648,1.2682,9.6048,54.8632,0.095,-0.2377,0.5843,347.9938
19:41:35:422,-0.5312,1.1486,9.7316,56.8629,0.0474,-0.4246,0.5159,347.6267
19:41:35:442,-0.0526,1.1749,9.7699,57.3716,-0.0174,-0.4161,0.3644,347.3876
19:41:35:464,0.268,1.0696,9.5234,56.1694,-0.0797,-0.2927,0.241,347.2402
19:41:35:483,0.4187,1.0911,8.8223,58.3825,-0.0968,-0.085,0.1774,347.1079
19:41:35:504,0.1484,1.4189,8.1117,57.6568,-0.1017,0.1324,0.1432,346.9374
19:41:35:524,-0.2752,1.7372,7.413,57.0529,-0.1322,0.323,0.153,346.7161
19:41:35:543,-0.5743,2.0459,7.0851,58.0677,-0.1884,0.4244,0.2214,346.4247
19:41:35:566,-0.7849,2.5531,7.0875,58.1129,-0.2336,0.3853,0.3289,346.0387
19:41:35:584,-0.7609,3.0508,7.1904,58.7535,-0.2299,0.2791,0.4572,345.5335
19:41:35:604,-0.3422,3.3882,7.5805,59.0538,-0.1579,0.1691,0.5317,344.983
19:41:35:623,-0.1555,3.6203,7.5326,59.421,-0.0247,0.0481,0.4866,344.5071
19:41:35:644,-0.134,3.5342,7.5829,60.27,0.1133,-0.1192,0.3057,344.2747
19:41:35:671,-0.1555,3.4505,8.1499,59.0538,0.161,-0.4796,0.0309,344.9902
19:41:35:692,-0.5121,3.1442,9.923,59.9501,0.15,-1.1027,-0.332,345.6676
19:41:35:708,-0.4834,2.668,10.2891,61.1836,0.2233,-0.9512,-0.3234,346.3504
19:41:35:724,-0.7059,2.3354,10.2796,60.6954,0.238,-0.636,-0.2294,346.8501
19:41:35:742,-0.5121,2.4646,10.1743,62.0641,0.1036,-0.2499,-0.0339,347.0304
19:41:35:763,0.1196,2.479,10.5332,62.0056,-0.0284,-0.0789,0.2397,346.8469
19:41:35:787,0.7155,2.479,10.8562,61.3398,-0.1359,-0.0202,0.3717,346.497
19:41:35:805,1.1031,2.5651,10.9256,62.1731,-0.208,0.0274,0.3424,346.1459
19:41:35:825,1.7324,2.1416,10.9208,61.0575,-0.2373,0.0799,0.241,345.8829
19:41:35:844,2.0267,1.3902,11.2869,62.2388,-0.3509,-0.0117,0.015,345.8661
19:41:35:865,1.0911,0.7992,12.3422,61.9535,-0.6111,-0.1192,-0.3088,346.2422
19:41:35:887,0.2871,0.7107,13.2706,61.9949,-0.8933,-0.0703,-0.47,346.8047
19:41:35:904,0.3781,0.536,13.3376,61.894,-0.93,0.0958,-0.3381,347.177
19:41:35:924,0.8255,0.6532,12.8925,61.5705,-0.6649,0.1679,-0.0925,347.2699
19:41:35:944,1.2802,0.8806,11.8995,61.6194,-0.2251,-0.0202,0.0724,347.2171
19:41:35:964,2.2756,1.0241,10.8921,63.6423,0.2416,-0.3416,0.0956,347.174
19:41:35:987,2.7159,0.4331,9.131,64.2995,0.5874,-0.5774,-0.0681,347.3525
19:41:36:005,2.0554,0.6628,7.882,64.2378,0.6081,-0.4601,-0.3418,347.8339
19:41:36:025,0.8423,1.139,7.1187,67.3157,0.2599,-0.1705,-0.4456,348.4125
19:41:36:151,0.3972,1.4237,7.0732,65.8038,-0.1823,0.1935,-0.2978,348.7681
19:41:36:152,0.6485,1.6487,7.322,65.4127,-0.4218,0.3548,-0.1255,348.875
19:41:36:153,0.8351,1.8855,7.6881,66.7536,-0.4254,0.301,-0.117,348.9807
19:41:36:153,1.0074,2.1296,7.8054,63.568,-0.2996,0.1569,-0.2233,349.2314
19:41:36:154,1.1533,2.3809,8.0877,62.608,-0.1664,0.0982,-0.3503,349.6208
19:41:36:154,1.0289,2.5436,8.0064,63.7336,-0.0101,0.1153,-0.5165,350.1148
19:41:36:168,0.8327,2.8594,8.2169,63.5045,-0.0565,0.2143,-0.5067,351.159
19:41:36:185,0.8447,3.0891,8.8128,65.393,-0.0943,0.2229,-0.448,351.6424
19:41:36:203,0.9021,2.8786,9.0784,64.6282,-0.0565,0.1618,-0.4236,352.1006
19:41:36:223,0.6365,2.6297,9.8656,64.798,0.0364,0.1153,-0.4664,352.6237
19:41:36:244,0.4283,2.6728,9.7531,65.5736,0.1879,-0.1168,-0.4933,353.2328
19:41:36:265,-0.2082,2.5053,9.5474,64.0603,0.3662,-0.0508,-0.3992,353.7456
19:41:36:287,-0.8399,3.4313,9.8871,64.8356,0.343,0.2803,-0.1829,353.9463
19:41:36:308,0.146,3.7017,10.4686,65.5926,0.2636,0.1044,0.1188,353.8528
19:41:36:325,1.0313,3.0987,11.2199,65.4127,0.2575,-0.0801,0.1958,353.6765
19:41:36:344,1.0193,3.1202,11.1888,65.2216,0.3125,-0.1803,0.004,353.7264
19:41:36:366,0.2895,2.7613,10.9472,66.0091,0.3882,-0.1156,-0.1512,353.9512
19:41:36:387,-0.4618,2.8762,10.4877,67.2114,0.3785,0.0225,-0.1316,354.1519
19:41:36:406,-0.8806,2.8522,10.1815,66.2471,0.3088,0.1337,0.0699,354.1068
19:41:36:424,-0.95,2.7494,10.1623,67.3685,0.1683,0.1691,0.2361,353.8943
19:41:36:444,-0.4427,2.1535,10.5404,66.6383,-0.0516,0.0469,0.2715,353.6642
19:41:36:463,-0.2345,1.4524,10.5811,66.5063,-0.2678,-0.0801,0.208,353.5059
19:41:36:487,-0.9069,1.3472,10.2006,66.8788,-0.3888,0.0567,0.1555,353.398
19:41:36:505,-1.6893,1.529,9.5091,66.9351,-0.3741,0.4354,0.2617,353.0922
19:41:36:524,-1.6223,1.3161,8.8487,66.2844,-0.2898,0.637,0.4853,352.4893
19:41:36:544,-1.2514,1.4596,8.4132,66.7761,-0.2495,0.521,0.6441,351.7574
19:41:36:566,-0.8758,1.5577,8.5304,66.6228,-0.2788,0.2888,0.6564,351.0409
19:41:36:586,-0.3948,1.3902,9.2818,67.6758,-0.4059,-0.0056,0.5183,350.5467
19:41:36:607,-0.5408,0.5815,9.8106,65.8047,-0.6502,-0.2157,0.0309,350.3961
19:41:36:625,-1.0935,0.6269,9.2267,65.2555,-0.5684,0.0445,0.0186,350.4277
19:41:36:643,-1.5769,1.0744,8.2935,66.0133,-0.3729,0.2962,0.1921,350.2671
19:41:36:669,-1.6056,1.6176,7.7025,68.1268,-0.1689,0.4244,0.4267,349.8115
19:41:36:686,-1.4883,2.4694,7.8652,67.0082,-0.0638,0.3475,0.577,349.2131
19:41:36:704,-0.8877,2.6824,7.9968,67.1458,-0.054,0.1789,0.6002,348.5882
19:41:36:723,-0.7681,2.6034,8.3294,67.516,-0.0711,0.1715,0.5049,348.0703
19:41:36:743,-1.1868,2.7446,8.8989,65.4179,-0.0943,0.2668,0.3558,347.7141
19:41:36:763,-1.3232,2.5484,9.3296,68.0222,-0.0577,0.3291,0.2544,347.4599
19:41:36:785,-1.0337,2.0913,9.4349,67.1119,0.04,0.3866,0.2031,347.2386
19:41:36:804,-1.0026,1.8544,9.6742,65.7197,0.1317,0.4415,0.1273,347.0702
19:41:36:825,-1.2921,1.785,9.9278,67.6589,0.1488,0.4953,0.0418,346.9957
19:41:36:845,-1.3519,1.3065,10.3466,65.56,0.1231,0.5491,0.0345,346.8864
19:41:36:866,-1.3807,0.8542,10.6146,66.3595,0.1366,0.532,0.0748,346.755
19:41:36:887,-1.1653,0.7968,10.7007,67.5352,0.1219,0.4171,0.1359,346.5636
19:41:36:905,-0.8159,0.8088,10.8682,66.7078,0.0156,0.3304,0.23,346.2797
19:41:36:924,-0.5982,0.9021,11.0405,65.3288,-0.164,0.3646,0.2947,345.9146
19:41:36:944,-0.2584,0.7418,11.3827,65.6692,-0.3705,0.3597,0.2752,345.5491
19:41:36:963,0.4498,0.0957,11.9569,67.0731,-0.561,0.1691,0.219,345.2613
19:41:36:986,1.0887,-0.6652,12.6317,65.7901,-0.6844,-0.1009,0.1335,345.0901
19:41:37:003,1.3208,-0.9452,12.8447,66.5724,-0.7247,-0.3269,0.0602,345.0262
19:41:37:022,0.8782,-0.8686,12.1364,65.9451,-0.6258,-0.2524,0.0235,345.0119
19:41:37:045,0.3805,-0.6915,10.7127,65.4364,-0.4095,0.163,0.0357,344.9408
19:41:37:065,0.1819,-0.0622,8.5065,65.2764,-0.0833,0.5857,0.285,344.2996
19:41:37:085,0.6006,0.3996,8.406,66.5571,-0.0296,0.2876,0.3558,343.8645
19:41:37:104,1.127,0.7896,8.6094,64.772,0.0107,-0.0948,0.2495,343.5744
19:41:37:124,1.2945,0.6867,8.3988,64.772,0.0486,-0.3135,-0.0693,343.6646
19:41:37:143,0.6269,0.5599,7.8532,64.8567,0.0229,-0.2988,-0.5556,344.3068
19:41:37:168,-0.603,0.6413,7.5805,64.5737,-0.0699,-0.2377,-0.9331,345.3918
19:41:37:188,-1.4788,0.7992,7.6929,63.4476,-0.2018,-0.2414,-0.9771,346.539
19:41:37:204,-1.474,0.6939,8.2457,64.1929,-0.3314,-0.2927,-0.7804,347.468
19:41:37:224,-1.0648,0.7442,9.0018,64.272,-0.3875,-0.344,-0.5556,348.141
19:41:37:244,-0.5934,0.859,9.6096,65.0499,-0.3472,-0.2964,-0.4297,348.6547
19:41:37:264,-0.3374,1.1438,10.0714,63.4022,-0.2495,-0.1962,-0.3821,349.1165
19:41:37:286,-0.0526,1.2754,10.5571,63.3988,-0.1334,-0.162,-0.3772,349.5378
19:41:37:305,0.067,1.34,10.5452,62.5821,0.0339,-0.1791,-0.4065,349.9955
19:41:37:324,-0.0742,1.5314,10.1504,62.9477,0.2013,-0.1571,-0.4554,350.5125
19:41:37:351,-0.4929,1.9023,9.7029,63.9607,0.299,-0.0887,-0.4786,351.0745
19:41:37:367,-0.8183,2.2325,9.6359,61.6422,0.3186,-0.0349,-0.4358,351.6063
19:41:37:386,-0.8614,2.412,9.7603,63.3204,0.3149,-0.0239,-0.3589,352.0391
19:41:37:403,-0.8997,2.0506,9.5761,64.6942,0.3723,0.0824,-0.3125,352.3999
19:41:37:422,-1.6128,2.2469,9.2148,62.8996,0.4395,0.2143,-0.288,352.7365
19:41:37:442,-2.3163,2.8546,9.8943,63.9969,0.354,0.2229,-0.211,353.0131
19:41:37:462,-1.7994,2.3402,11.0955,63.3669,0.1805,0.0298,-0.051,353.1045
19:41:37:481,-1.5769,1.6367,11.7847,61.3201,0.1121,-0.0679,-0.029,353.1909
19:41:37:504,-1.7827,1.3615,11.9043,62.1579,0.2074,0.0848,-0.1048,353.3133
19:41:37:523,-1.3304,1.0887,12.6652,62.0402,0.0901,-0.1216,-0.0339,353.4928
19:41:37:541,-1.2921,0.4977,13.4357,62.0551,-0.2751,-0.3868,-0.1732,353.7504
19:41:37:561,-1.9406,-0.213,13.8521,62.8996,-0.5806,-0.1815,-0.4273,354.2927
19:41:37:582,-2.9886,-0.5934,12.8303,63.0287,-0.528,0.3743,-0.3479,354.7072
19:41:37:602,-3.5318,-0.4666,10.9735,61.9627,-0.0943,0.9327,0.175,354.5287
19:41:37:622,-2.7685,-0.1029,9.7029,63.3463,0.4176,1.1379,0.858,353.5452
19:41:37:642,-1.6917,0.5886,8.7123,61.9242,0.7743,0.8924,1.3198,352.0127
19:41:37:662,-0.615,1.06,7.8293,62.6949,0.9282,0.6065,1.3833,350.4212
19:41:37:686,-0.3206,1.4501,6.877,61.3201,0.8879,0.4147,1.0461,349.2029
19:41:37:705,-0.5121,1.4548,6.1304,60.838,0.6888,0.2229,0.555,348.55
19:41:37:724,-1.0217,0.9117,5.8744,61.1217,0.3846,0.0762,0.1408,348.4043
19:41:37:743,-1.8544,0.6413,6.2309,60.2235,0.0498,0.0359,-0.1231,348.5816
19:41:37:762,-2.7374,0.6724,6.9966,58.4349,-0.2006,0.075,-0.1756,348.829
19:41:37:786,-3.2542,0.6054,7.054,61.1291,-0.3106,0.0518,-0.029,348.9312
19:41:37:804,-3.137,1.06,7.6618,60.198,-0.4034,-0.0386,0.2373,348.7452
19:41:37:826,-2.2493,1.2156,8.3462,59.5942,-0.3314,0.1434,0.5403,348.1725
19:41:37:844,-1.663,1.4213,8.6166,59.5076,-0.1041,0.2852,0.6894,347.394
19:41:37:864,-1.5745,1.9549,8.0566,58.623,0.1146,0.3475,0.6881,346.5873
19:41:37:885,-1.3543,2.4455,8.3055,59.201,0.1207,0.3524,0.6221,345.8433
19:41:37:904,-1.1749,2.3833,9.1717,60.1204,-0.0284,0.3768,0.4731,345.2491
19:41:37:922,-1.4189,2.3617,10.0786,58.922,-0.1554,0.4135,0.2361,344.9127
19:41:37:941,-1.7683,2.3497,10.7462,60.5565,-0.164,0.4892,0.0309,344.7745
19:41:37:962,-2.12,2.0913,10.5978,59.7957,-0.0662,0.582,-0.073,344.7786
19:41:37:985,-2.2684,1.6128,10.6481,60.5518,-0.0711,0.4684,-0.1267,344.8391
19:41:38:006,-2.5101,1.5099,11.8804,57.7663,-0.2202,0.3255,-0.2123,345.023
19:41:38:027,-2.9216,1.0624,12.6748,58.5781,-0.2605,0.1398,-0.3271,345.3538
19:41:38:042,-3.1681,0.5121,12.3302,59.0067,-0.1383,-0.0215,-0.3369,345.758
19:41:38:063,-3.3811,0.4116,11.8804,57.5223,-0.0198,-0.0813,-0.2269,346.0444
19:41:38:088,-2.7374,0.4092,11.4951,58.1905,0.0388,-0.1742,-0.0034,346.0921
19:41:38:108,-1.8975,0.3972,11.3611,58.9136,0.051,-0.4002,0.153,345.9867
19:41:38:122,-1.3663,0.2201,11.3181,59.4729,-0.0052,-0.6104,0.1371,345.9261
19:41:38:143,-1.1103,0.2082,11.3228,60.0454,-0.0662,-0.603,0.0541,345.9734
19:41:38:244,-0.9117,0.402,10.4925,60.9797,-0.0479,-0.4344,-0.018,346.0715
19:41:38:244,-0.6341,0.28,9.2746,61.7197,-0.0381,-0.3758,-0.0852,346.2326
19:41:38:245,-0.6221,0.0933,8.9252,61.8903,-0.2568,-0.377,-0.2281,346.5599
19:41:38:245,-0.1196,-0.1172,10.9208,59.8992,-0.5,-0.2304,-0.3259,346.944
19:41:38:245,0.0598,0.0861,10.605,58.8783,-0.4706,-0.4063,-0.3931,347.4048
19:41:38:263,0.0407,-0.0215,10.2413,58.4256,-0.3582,-0.388,-0.4468,347.9204
19:41:38:289,-0.1914,0.0598,9.119,59.8201,-0.1285,-0.3147,-0.3992,348.3868
19:41:38:304,-0.4307,0.3613,7.9801,60.1318,0.1207,-0.2915,-0.2941,348.728
19:41:38:322,-0.615,0.6915,7.1641,58.4679,0.3125,-0.3208,-0.2001,349.0033
19:41:38:342,-0.7777,0.8758,6.6114,56.719,0.4456,-0.3782,-0.1781,349.2701
19:41:38:361,-0.8136,0.9763,6.0706,58.7784,0.5409,-0.4576,-0.1756,349.5582
19:41:38:382,-1.0887,1.2203,5.7332,59.2746,0.5617,-0.4173,-0.1609,349.8465
19:41:38:402,-1.1151,1.6176,5.683,59.4309,0.4884,-0.3061,-0.1194,350.0631
19:41:38:422,-1.2299,1.8521,6.0993,58.7784,0.3491,-0.1999,-0.0669,350.2008
19:41:38:442,-0.1484,2.4335,7.8963,60.8464,0.0181,0.1789,0.026,350.2341
19:41:38:463,0.2704,2.522,9.0856,59.7703,-0.1139,0.5185,-0.1121,350.1606
19:41:38:486,-0.9045,2.7541,10.1192,60.7336,-0.2263,0.8215,-0.4371,350.5206
19:41:38:504,-3.0221,2.8881,10.9687,61.3516,-0.2641,0.8716,-0.7168,351.2332
19:41:38:523,-3.9697,2.534,11.3133,61.0256,-0.1554,0.5674,-0.6618,351.9682
19:41:38:542,-3.3954,2.0578,11.9354,61.4463,-0.0259,0.2082,-0.2367,352.2668
19:41:38:561,-2.2636,2.0794,11.9163,60.8579,0.0914,-0.0337,0.2434,352.0276
19:41:38:583,-1.2203,2.077,12.1819,60.295,0.2172,-0.0007,0.5098,351.4522
19:41:38:602,-1.261,2.1679,11.61,61.1932,0.2929,0.1691,0.4682,350.9013
19:41:38:622,-1.9382,1.9597,10.9161,61.7358,0.2331,0.2583,0.2972,350.5559
19:41:38:643,-2.7733,1.7372,11.1123,61.3201,0.0584,0.2119,0.2227,350.3172
19:41:38:664,-2.869,1.3902,11.7607,61.4747,-0.1273,-0.0202,0.2837,350.0471
19:41:38:685,-2.3497,0.9978,12.6868,60.2235,-0.2458,-0.2964,0.4279,349.6654
19:41:38:705,-1.931,0.7537,13.1007,61.7358,-0.186,-0.4039,0.555,349.1309
19:41:38:723,-1.6893,0.9619,11.3133,64.0919,0.2135,-0.2731,0.7016,348.4195
19:41:38:744,-1.584,1.2323,8.6357,63.0432,0.6582,-0.1534,0.8066,347.5768
19:41:38:763,-1.2969,1.5697,6.9248,63.3027,0.6888,-0.2915,0.7956,346.8042
19:41:38:783,-0.9236,1.6391,6.9559,63.1545,0.2819,-0.4686,0.682,346.1879
19:41:38:804,-0.8399,1.4477,8.1691,63.0523,-0.2348,-0.5432,0.4975,345.7838
19:41:38:823,-0.8255,1.0863,9.5617,62.1505,-0.5696,-0.6555,0.2862,345.6292
19:41:38:842,-0.6269,0.7346,10.5691,64.1883,-0.6343,-0.8168,0.1273,345.6611
19:41:38:864,-0.9188,0.4403,10.8706,63.8408,-0.4328,-0.8975,0.0272,345.8161
19:41:38:886,-1.785,0.4786,8.942,63.9931,-0.1237,-0.8975,0.0003,346.0347
19:41:38:904,-2.2469,0.9452,8.485,63.5018,0.2661,-0.2414,0.3668,346.0909
19:41:38:923,-1.7061,1.7204,7.6499,65.5713,0.4408,-0.1131,0.6258,345.7928
19:41:38:943,-0.335,2.3139,7.5159,63.927,0.4212,-0.052,0.8653,344.2908
19:41:38:961,0.9978,2.6441,7.3268,65.7219,0.2758,0.0811,0.8983,343.27
19:41:38:983,1.4812,2.8163,7.1928,63.3595,0.0742,0.3389,0.5941,342.5356
19:41:39:005,1.084,2.8283,7.992,65.392,-0.2324,0.6285,0.1322,342.2253
19:41:39:026,0.3757,2.7159,10.0929,66.832,-0.517,0.626,-0.2636,342.3774
19:41:39:043,-0.3733,2.3952,11.7655,67.0719,-0.4279,0.1691,-0.5446,342.9463
19:41:39:062,-0.4068,1.4261,11.9139,65.114,0.0009,-0.5065,-0.7364,343.8412
19:41:39:088,-0.3589,0.481,11.7344,65.6816,0.3711,-0.9769,-0.8842,345.0039
19:41:39:102,-0.4762,0.189,11.9498,68.593,0.4615,-1.1271,-0.9795,346.3038
19:41:39:125,-0.6437,0.0048,12.0383,66.8127,0.3992,-0.9891,-0.9734,347.5822
19:41:39:144,-0.7394,0.0191,11.4999,67.9913,0.3736,-0.6763,-0.8598,348.6773
19:41:39:163,-0.792,0.2895,10.4255,67.7355,0.4212,-0.41,-0.6411,349.4998
19:41:39:184,-0.3398,0.2847,9.2315,68.2827,0.3943,-0.1498,-0.2905,349.8826
19:41:39:204,-0.0048,0.6604,9.4756,67.0712,0.1243,0.0164,0.0357,349.8516
19:41:39:223,0.3278,1.0002,10.3298,67.1366,-0.2165,-0.1412,0.2153,349.6662
19:41:39:242,0.8519,1.2682,11.275,68.1517,-0.4046,-0.2438,0.3302,349.3468
19:41:39:263,1.6702,1.1294,11.4688,68.3227,-0.3301,-0.0496,0.4047,348.8815
19:41:39:287,2.1009,1.2634,11.0644,68.1327,-0.1469,0.1031,0.3876,348.3711
19:41:39:306,2.2421,1.4979,10.6983,67.9029,-0.0186,-0.0056,0.3179,347.9476
19:41:39:323,2.5436,1.4357,10.3179,68.7374,0.0632,-0.3587,0.1652,347.7899
19:41:39:343,2.9647,0.9739,9.6503,68.069,0.1292,-0.6665,-0.1243,347.9702
19:41:39:362,1.6989,0.6126,8.7218,68.8463,-0.1884,-0.3831,-0.7987,348.5732
19:41:39:382,0.6365,0.7418,8.6788,68.3505,-0.3607,0.1153,-0.8512,350.3526
19:41:39:405,-0.1579,1.1055,8.3414,68.1788,-0.2715,0.4855,-0.6997,351.0513
19:41:39:422,-0.4283,1.5266,7.5422,69.1609,0.0388,0.5955,-0.4395,351.4533
19:41:39:443,-0.122,1.8329,6.6353,70.2266,0.3711,0.5051,-0.1903,351.6056
19:41:39:462,0.1986,2.2205,5.9916,69.0041,0.5324,0.2949,-0.0571,351.6242
19:41:39:483,0.5504,2.7302,6.128,69.5713,0.4847,0.1361,-0.0339,351.6547
19:41:39:501,0.9667,3.0389,6.7358,68.876,0.3284,0.0762,-0.0901,351.7229
19:41:39:521,0.9021,3.2758,7.6355,71.3429,0.1744,0.1312,-0.2477,351.9561
19:41:39:541,0.3852,3.3476,8.4754,70.0812,0.0315,0.2253,-0.4432,352.3813
19:41:39:562,0.0239,3.0772,9.4277,69.8099,-0.0919,0.2681,-0.5568,352.9428
19:41:39:586,-0.3613,2.9408,10.2724,69.9425,-0.1811,0.1972,-0.5898,353.5677
19:41:39:605,-0.9117,3.125,11.0046,68.7486,-0.2165,0.1385,-0.5311,354.1644
19:41:39:623,-1.0074,3.2638,11.543,69.7031,-0.1676,0.2485,-0.3454,354.5311
19:41:39:642,-0.7777,3.3954,12.0072,69.1753,-0.0333,0.4525,-0.1158,354.5942
19:41:39:663,-0.2608,3.3858,11.8947,70.0582,0.1659,0.5564,0.0455,354.4336
19:41:39:686,-0.1842,3.1872,10.9759,70.5676,0.3723,0.5075,0.0504,354.2638
19:41:39:703,-0.4427,2.8546,10.0259,69.3503,0.4286,0.3646,-0.062,354.2476
19:41:39:725,-0.8734,2.5508,9.8034,69.3918,0.2771,0.2082,-0.1585,354.4019
19:41:39:743,-1.206,2.3258,10.3681,70.0335,-0.0039,0.0298,-0.1939,354.6441
19:41:39:762,-0.9667,1.8879,11.4832,69.1645,-0.2715,-0.2096,-0.1695,354.9134
19:41:39:785,-0.9021,1.797,12.0287,70.0107,-0.3827,-0.5529,-0.139,355.2458
19:41:39:805,-1.3472,1.8712,11.6172,67.7934,-0.175,-0.5627,-0.0461,355.5076
19:41:39:824,-1.3113,1.9932,8.3725,66.2476,0.486,-0.1449,0.3033,355.2166
19:41:39:843,-0.8925,2.1631,8.1308,68.964,0.3357,-0.3978,0.3216,355.0199
19:41:39:863,-0.0239,1.6104,8.8654,68.8215,0.0181,-0.6617,0.208,354.9897
19:41:39:886,0.1651,0.9571,9.6048,68.9584,-0.2495,-0.6861,-0.0143,355.1853
19:41:39:906,-0.5695,0.6461,9.6694,68.2699,-0.3204,-0.4527,-0.2294,355.5817
19:41:39:923,-1.4477,0.6676,9.0425,68.2867,-0.2055,-0.1278,-0.2709,355.9751
19:41:39:942,-1.9525,0.8255,8.0064,68.8893,0.0095,0.0958,-0.1035,356.1785
19:41:39:963,-1.9501,1.0816,6.865,66.7561,0.2233,0.185,0.1726,356.06
19:41:39:988,-1.6534,1.4309,5.8887,68.6102,0.3491,0.163,0.445,355.645
19:41:40:003,-1.2586,1.8425,5.2834,69.3413,0.3345,0.1288,0.6258,355.0179
19:41:40:026,-0.9547,2.5675,5.6279,66.542,0.1561,0.1324,0.6894,354.3165
19:41:40:041,-0.5743,2.79,6.7645,67.9339,-0.0968,0.1178,0.6503,353.6375
19:41:40:061,-0.4642,2.7374,7.6283,67.8695,-0.2104,0.108,0.5317,353.0786
19:41:40:081,-0.2943,2.8642,8.3701,67.8695,-0.2531,0.0848,0.3998,352.6584
19:41:40:101,0.0646,2.5651,9.3177,67.8695,-0.3045,0.0836,0.2789,352.3506
19:41:40:122,-0.0838,2.5819,10.3322,67.8695,-0.3411,0.0946,0.1273,352.2089
19:41:40:142,-0.457,2.4048,10.8515,67.8695,-0.3106,0.0738,-0.0315,352.2579
19:41:40:163,-0.7992,1.8233,11.0453,67.8695,-0.2287,0.0481,-0.1451,352.4471
19:41:40:189,-1.0361,1.1127,11.2391,67.8586,-0.1835,0.0152,-0.1719,352.6797
19:41:40:208,-1.1222,0.8949,11.5262,66.5967,-0.186,-0.041,-0.0718,352.8267
19:41:40:223,-0.5527,0.6628,12.0766,66.506,-0.291,-0.1644,0.0553,352.8298
19:41:40:242,0.5264,0.2106,12.8542,66.5819,-0.5378,-0.2512,0.1066,352.7463
19:41:40:351,1.0457,0.0335,14.5125,68.6726,-0.9385,-0.1864,0.0235,352.7249
19:41:40:352,0.2441,0.1029,16.9484,66.694,-1.1267,0.7616,-0.0278,352.6362
19:41:40:352,0.2201,0.2656,15.4959,68.3849,-0.5232,1.1856,0.1726,352.3364
19:41:40:353,0.9858,0.3924,13.2562,66.9021,0.2099,1.1575,0.4621,351.6994
19:41:40:354,2.132,0.4594,11.4353,64.0398,0.6753,0.7567,0.6466,350.8199
19:41:40:369,2.9551,0.6054,10.1145,62.7173,0.8183,0.312,0.5794,349.9792
19:41:40:384,3.0628,0.7131,9.1502,64.7962,0.7413,0.1092,0.2532,349.5251
19:41:40:401,1.9693,0.5982,8.3533,63.4709,0.5409,0.1911,-0.1988,349.5876
19:41:40:421,0.6126,0.6676,8.1212,62.6145,0.3125,0.4086,-0.5372,350.0438
19:41:40:441,-0.4857,0.5958,8.0184,63.3928,0.2013,0.5869,-0.6252,350.6097
19:41:40:461,-0.8949,0.8159,7.7336,61.9464,0.249,0.6456,-0.5263,351.0761
19:41:40:485,-0.9284,1.3591,7.468,62.0729,0.3919,0.4232,-0.3173,351.3694
19:41:40:515,-0.4953,1.8903,7.1617,62.0661,0.5727,0.0714,-0.1194,351.4844
19:41:40:526,0.055,2.0411,6.664,60.6093,0.7474,-0.3,-0.0082,351.5323
19:41:40:544,0.2058,2.0794,6.1472,59.905,0.8183,-0.5077,-0.0107,351.6364
19:41:40:561,0.2465,2.3928,6.1376,59.905,0.7218,-0.5432,-0.0632,351.8129
19:41:40:580,0.5384,2.68,7.0205,59.8214,0.5544,-0.6042,-0.0815,352.0102
19:41:40:600,0.7537,2.9886,7.0373,59.821,0.4774,-0.7777,-0.1292,352.3122
19:41:40:620,0.4451,3.1729,7.121,59.1582,0.4236,-0.8412,-0.2831,352.8276
19:41:40:640,0.1149,3.4098,8.1499,59.349,0.2538,-0.7582,-0.4151,353.4787
19:41:40:661,-0.2991,3.5318,8.8223,58.6893,0.1231,-0.6934,-0.4737,354.1641
19:41:40:681,-1.0409,3.8548,8.5137,56.9601,0.1158,-0.5358,-0.5299,354.907
19:41:40:701,-1.5003,3.7926,9.4875,57.032,-0.0577,-0.0948,-0.4762,355.5283
19:41:40:725,-1.5793,3.9458,10.6528,56.4144,-0.2507,0.2509,-0.3234,355.8786
19:41:40:743,-0.469,3.7041,11.2654,56.3797,-0.0589,-0.0056,-0.0522,356.0458
19:41:40:762,-0.2441,3.5079,11.007,55.9314,-0.0223,-0.0459,-0.062,356.1787
19:41:40:786,-0.8207,3.472,11.0429,57.2151,-0.098,-0.0031,-0.1524,356.363
19:41:40:811,-1.3089,3.1992,11.5741,55.2263,-0.2935,0.0665,-0.2428,356.6487
19:41:40:827,-1.4644,2.4455,12.5815,56.3578,-0.5232,0.0286,-0.2953,356.9879
19:41:40:840,-1.9406,1.6965,13.5099,53.5254,-0.6392,-0.0166,-0.2978,357.3928
19:41:40:861,-2.5149,1.1844,13.0265,54.3918,-0.3985,0.1385,-0.1219,357.609
19:41:40:881,-2.6273,1.1007,11.0572,52.8538,0.1647,0.2827,0.2324,357.4061
19:41:40:901,-2.1416,1.3807,9.1262,51.7127,0.5751,0.0396,0.5708,356.8908
19:41:40:923,-0.9571,1.6271,8.406,53.081,0.5703,-0.3782,0.7602,356.2256
19:41:40:943,0.0981,1.407,8.5113,50.9395,0.3076,-0.5419,0.7688,355.5417
19:41:40:961,0.3087,1.0528,8.6381,51.0999,0.0425,-0.3892,0.6087,354.9712
19:41:40:981,0.2225,0.8542,8.5735,51.7933,-0.1078,-0.1351,0.4401,354.5253
19:41:41:005,-0.0383,0.9069,8.0255,50.8343,-0.1176,0.0372,0.3412,354.1681
19:41:41:025,-0.3446,1.1174,7.3316,49.5064,-0.065,0.0995,0.2984,353.844
19:41:41:040,-0.6341,1.5123,6.7836,49.4684,-0.0638,0.0628,0.2825,353.6016
19:41:41:061,-0.6939,1.6869,6.6951,50.0747,-0.1273,0.053,0.2715,353.3616
19:41:41:083,-0.8423,2.0722,6.8339,50.8343,-0.2018,0.0714,0.2507,353.1419
19:41:41:103,-1.0193,2.3569,7.1785,48.786,-0.2593,0.1166,0.2055,352.9612
19:41:41:122,-1.0552,2.4814,7.5996,47.4021,-0.2678,0.1373,0.1591,352.8177
19:41:41:142,-1.1677,2.5651,7.8485,48.7299,-0.2275,0.1178,0.1164,352.7404
19:41:41:161,-1.0983,2.6345,8.5783,46.7166,-0.197,0.1056,0.1249,352.6364
19:41:41:183,-0.6604,2.6919,9.4708,47.4021,-0.1554,0.075,0.1946,352.4539
19:41:41:205,0.2369,2.5508,9.4708,47.4982,0.0193,0.1764,0.1958,352.1806
19:41:41:221,0.3757,2.522,9.5809,45.9167,-0.0284,0.1764,0.1359,351.9029
19:41:41:242,0.39,2.4909,10.2843,47.5155,-0.1786,0.1068,0.0541,351.5762
19:41:41:260,-0.0502,2.2421,11.019,44.5194,-0.3118,0.0421,-0.0498,351.6036
19:41:41:282,-0.414,1.9669,11.4975,45.1676,-0.3692,-0.019,-0.1072,351.7469
19:41:41:305,-0.3063,1.6534,11.7272,43.8961,-0.4046,-0.0374,-0.0669,351.8249
19:41:41:321,0.2249,1.34,11.878,42.3958,-0.4792,0.0481,0.0467,351.7584
19:41:41:341,1.1916,0.8806,12.2847,43.7412,-0.5989,0.1447,0.1396,351.4601
19:41:41:360,2.1679,0.3111,12.9595,40.8902,-0.7516,0.1459,0.0993,351.1501
19:41:41:381,2.2923,-0.2919,13.6654,40.9764,-0.8933,0.174,-0.0876,351.0261
19:41:41:402,1.3519,-0.5838,13.9501,40.175,-0.8335,0.3646,-0.277,351.1243
19:41:41:423,0.7394,-0.6796,13.151,41.5614,-0.4621,0.4635,-0.2648,351.2621
19:41:41:443,0.9978,-0.5623,11.9043,40.9648,0.0205,0.2754,-0.0632,351.2065
19:41:41:461,2.1105,-0.5025,10.3513,38.8971,0.4066,-0.0764,0.1457,350.8674
19:41:41:481,2.9001,-0.3206,9.1119,38.8188,0.5666,-0.3501,0.1579,350.507
19:41:41:502,2.9982,-0.122,8.0662,38.1879,0.4823,-0.4393,-0.0559,350.4123
19:41:41:521,2.0746,0.0383,7.2359,39.475,0.2758,-0.3416,-0.3723,350.698
19:41:41:544,0.7537,0.1172,6.664,39.5937,0.0742,-0.1901,-0.6509,351.3771
19:41:41:562,-0.2943,0.3757,6.3075,39.475,-0.0491,-0.0984,-0.7339,352.1667
19:41:41:580,-0.4834,0.7442,6.0945,37.3825,-0.0968,-0.1058,-0.613,352.8779
19:41:41:599,-0.2297,1.1222,5.8959,38.7646,-0.1041,-0.1717,-0.4273,353.3898
19:41:41:620,-0.0048,1.4453,5.9964,38.092,-0.1176,-0.1889,-0.3088,353.7624
19:41:41:641,-0.0215,1.9836,6.8961,37.3825,-0.1847,-0.2243,-0.2734,354.0805
19:41:41:663,0.3135,1.7827,7.2335,37.4987,-0.2128,-0.3745,-0.3186,354.7933
19:41:41:691,0.201,1.7898,8.1165,37.4063,-0.3228,-0.487,-0.4248,355.3242
19:41:41:710,0.0431,1.7085,9.8417,36.7735,-0.4987,-0.4356,-0.5189,355.9764
19:41:41:729,-0.2369,1.6199,11.2391,37.4987,-0.5879,-0.3354,-0.5653,356.6821
19:41:41:741,-1.0433,1.9908,12.2991,36.1933,-0.517,-0.1889,-0.569,357.4052
19:41:41:760,-1.8425,2.4215,12.7059,34.7416,-0.335,-0.0129,-0.4639,358.0714
19:41:41:795,-1.9071,2.6967,12.5504,35.5299,-0.0882,0.1214,-0.2367,358.4656
19:41:41:801,-1.261,2.7565,12.0862,35.5299,0.1243,0.1654,0.0333,358.5362
19:41:41:823,-0.481,2.814,12.0048,33.6047,0.2111,0.1886,0.2312,358.3319
19:41:41:841,0.0957,2.7254,12.1508,33.0305,0.2135,0.2449,0.2972,357.9895
19:41:41:859,0.1388,2.5723,12.1196,34.8181,0.2013,0.2913,0.2349,357.7029
19:41:41:880,-0.3733,2.3976,11.5956,34.3956,0.2038,0.3035,0.12,357.5844
19:41:41:899,-1.3304,2.2086,11.196,34.1979,0.1475,0.2693,0.0186,357.6328
19:41:41:920,-2.1416,1.8544,11.2774,32.7521,0.0461,0.2876,0.0235,357.7255
19:41:41:941,-2.6441,1.3543,11.6578,32.3494,0.0181,0.3438,0.1726,357.6549
19:41:41:961,-2.7422,0.9882,11.4879,32.2488,0.1598,0.323,0.4462,357.3172
19:41:41:981,-2.1607,0.8806,10.2772,33.0309,0.4689,0.2534,0.8042,356.5714
19:41:42:007,-1.3304,0.8207,8.607,32.5184,0.7694,0.0958,1.0815,355.4739
19:41:42:033,-0.4235,0.7825,7.6427,33.6161,0.7633,-0.1962,1.1585,354.2664
19:41:42:042,0.2823,0.7202,8.2696,32.1395,0.3785,-0.5114,1.0498,353.2016
19:41:42:062,0.6461,0.2513,9.5833,31.1217,-0.0968,-0.5713,0.8164,352.3967
19:41:42:081,0.0838,0.0718,10.7605,30.5917,-0.4169,-0.3074,0.544,351.8634
19:41:42:105,-0.6556,-0.2823,11.0309,33.4408,-0.3888,0.2595,0.3595,351.1017
19:41:42:125,-0.548,-0.2034,10.0905,30.9477,-0.1334,0.4159,0.4413,350.6198
19:41:42:143,-0.4642,-0.0431,9.0209,31.2651,0.1182,0.4147,0.5244,350.0214
19:41:42:161,-0.1771,0.1603,8.0327,32.8133,0.2917,0.2827,0.5647,349.4063
19:41:42:179,-0.0838,0.3087,7.1593,31.6456,0.3638,0.1471,0.5501,348.7962
19:41:42:200,-0.1938,0.548,6.9176,31.9558,0.3223,0.0872,0.4878,348.2769
19:41:42:223,-0.3278,0.8399,6.8076,31.6876,0.2612,0.108,0.4462,347.823
19:41:42:242,-0.3063,1.0385,6.8866,32.9801,0.2294,0.1654,0.4316,347.3583
19:41:42:265,-0.1795,1.206,6.5037,32.142,0.2233,0.163,0.4047,346.9332
19:41:42:280,-0.189,1.529,6.1256,32.1826,0.1537,0.1532,0.3326,346.5944
19:41:42:300,-0.2823,1.8353,6.6233,30.1764,-0.0785,0.1483,0.2349,346.3607
19:41:42:323,-0.256,1.7898,7.7336,31.545,-0.3509,0.1715,0.1261,346.2322
19:41:42:341,-0.3278,1.5075,8.7434,32.4419,-0.5207,0.2314,0.0003,346.2125
19:41:42:472,-0.2489,1.0648,9.9326,33.507,-0.6453,0.2509,-0.1304,346.3709
19:41:42:473,0.2082,0.5336,11.4903,33.3039,-0.8274,0.1129,-0.2611,346.6725
19:41:42:473,0.1771,0.2943,13.4453,34.1967,-1.0827,-0.0593,-0.4334,347.183
19:41:42:474,-0.4211,-0.0574,15.3882,32.2871,-1.2452,-0.03,-0.5922,347.9078
19:41:42:474,-0.7442,-0.5862,15.8979,30.9646,-1.112,0.1483,-0.5763,348.6251
19:41:42:475,-0.591,-0.859,15.1226,31.6284,-0.7333,0.3182,-0.3295,349.0019
19:41:42:480,0.2417,-0.6867,13.8784,30.6685,-0.3619,0.345,0.0089,348.9483
19:41:42:500,0.7968,-0.3206,12.9523,30.1911,-0.1481,0.2265,0.1664,348.7032
19:41:42:522,0.682,-0.1938,12.7514,31.6693,-0.0772,0.0897,0.1103,348.4984
19:41:42:542,0.4618,-0.4403,12.1938,31.7573,0.0877,0.1239,0.0516,348.4211
19:41:42:564,1.2275,-0.6341,9.4014,30.6585,0.6985,0.0469,0.1872,347.8995
19:41:42:580,1.9286,-0.5025,8.6812,30.8075,0.6985,-0.2964,0.197,347.5989
19:41:42:601,2.4167,-0.4044,8.942,32.3498,0.4701,-0.6336,0.0773,347.3921
19:41:42:620,2.4287,-0.5551,9.3894,31.3081,0.2099,-0.7631,-0.1548,347.4742
19:41:42:641,1.8903,-0.5886,9.4852,31.9239,0.0584,-0.658,-0.4004,347.8579
19:41:42:661,1.0959,-0.5025,9.0018,32.9462,0.0254,-0.4161,-0.5641,348.456
19:41:42:680,0.4116,-0.2991,8.1882,31.6079,0.051,-0.1571,-0.5947,349.1063
19:41:42:704,0.1986,0.0502,7.4656,32.2022,0.0694,0.0347,-0.5067,349.7399
19:41:42:720,0.2776,0.347,6.9918,32.7836,0.084,0.0848,-0.3931,350.1816
19:41:42:740,0.3302,0.7298,7.1043,33.7263,0.0914,0.0237,-0.3076,350.5587
19:41:42:760,0.7513,0.8829,7.2861,32.23,0.1427,-0.1107,-0.2404,350.8562
19:41:42:780,0.8542,1.1892,7.7097,31.8666,0.2844,-0.2512,-0.2355,351.1595
19:41:42:805,0.8327,1.3759,6.9176,33.1804,0.4603,-0.4002,-0.2672,351.4869
19:41:42:826,0.6197,1.7515,6.1256,33.7202,0.5312,-0.4295,-0.3112,351.9522
19:41:42:843,0.5551,1.986,5.994,32.8288,0.3394,-0.4332,-0.3662,352.4219
19:41:42:862,0.5264,2.0674,6.743,31.9327,-0.0467,-0.4027,-0.4212,352.9976
19:41:42:881,0.2489,2.1846,8.1428,33.4816,-0.4401,-0.2231,-0.4627,353.612
19:41:42:901,-0.1292,2.2756,9.9733,35.0667,-0.7125,0.0115,-0.4774,354.2487
19:41:42:923,-0.3254,2.132,11.3707,34.4863,-0.7919,0.174,-0.4444,354.8541
19:41:42:941,-0.4427,1.9597,12.0287,34.9529,-0.6808,0.3304,-0.3638,355.3644
19:41:42:960,-0.6389,1.9669,12.2489,34.068,-0.5097,0.4269,-0.2502,355.7556
19:41:42:979,-0.5695,1.919,12.5647,34.5092,-0.3766,0.4733,-0.1231,356.0089
19:41:43:001,-0.3063,1.6774,12.3972,32.2035,-0.2666,0.4477,-0.0253,356.0982
19:41:43:024,-0.8303,1.4165,12.2249,34.2352,-0.2984,0.2314,-0.073,356.186
19:41:43:041,-1.3519,1.1605,13.06,33.2995,-0.4437,0.119,-0.1341,356.6084
19:41:43:061,-1.9645,0.6939,14.0578,34.4873,-0.5097,-0.0129,-0.1658,357.0086
19:41:43:081,-2.5531,0.1986,14.6991,34.1906,-0.4095,-0.1827,-0.0876,357.3108
19:41:43:103,-2.5244,-0.4044,13.7037,34.1906,-0.0137,-0.2035,0.2092,357.3207
19:41:43:123,-1.9717,-0.4762,11.1506,34.1906,0.5739,-0.1216,0.6234,356.8421
19:41:43:140,-1.1486,-0.0574,8.8678,34.7105,0.9209,-0.2206,0.9093,356.0121
19:41:43:160,-0.1436,0.2728,7.9274,33.3476,0.8183,-0.4185,0.9691,355.0632
19:41:43:179,0.4451,0.3183,8.4754,34.5404,0.4432,-0.4515,0.8091,354.2545
19:41:43:201,0.2225,0.0646,9.1621,32.1198,0.1414,-0.278,0.511,353.7939
19:41:43:222,-0.4259,-0.1268,9.32,35.3248,0.0828,-0.0557,0.2642,353.6365
19:41:43:241,-0.536,-0.3254,8.93,34.5424,0.1976,0.0567,0.1897,353.5623
19:41:43:262,-0.4857,-0.4235,8.1284,35.8538,0.3455,0.0726,0.1994,353.4572
19:41:43:280,-0.7107,-0.0598,7.7743,35.612,0.3613,0.064,0.2153,353.356
19:41:43:304,-0.615,0.1986,8.0686,36.0042,0.2807,0.1532,0.2642,353.1637
19:41:43:324,-0.3541,0.2153,7.6116,34.5092,0.332,0.3108,0.3008,352.9016
19:41:43:341,-0.3446,0.402,6.5851,35.455,0.475,0.3743,0.2752,352.6692
19:41:43:360,-0.3422,0.6652,5.8672,34.5092,0.4835,0.3353,0.2239,352.5022
19:41:43:381,-0.4857,1.0026,5.7117,34.907,0.3125,0.2962,0.1445,352.4362
19:41:43:403,-0.6389,1.1677,6.2907,35.532,0.0425,0.2766,0.0296,352.5215
19:41:43:420,-0.5623,0.8255,7.0397,35.2267,-0.2287,0.2021,-0.0803,352.7409
19:41:43:440,-0.7346,0.6174,8.0495,36.2014,-0.4755,0.1251,-0.1915,353.0617
19:41:43:460,-1.2036,0.524,9.2531,35.2982,-0.6796,0.075,-0.2843,353.5284
19:41:43:485,-1.5936,-0.2201,11.0333,34.1121,-0.7773,0.0054,-0.31,354.4368
19:41:43:506,-1.4668,-0.6413,11.7392,34.4394,-0.7809,-0.0984,-0.2587,354.8839
19:41:43:524,-0.9978,-1.0074,12.725,34.9129,-0.8225,-0.1913,-0.1536,355.2101
19:41:43:544,-0.1412,-1.5123,13.218,34.7538,-0.8005,-0.2011,-0.0156,355.3381
19:41:43:560,0.6915,-1.8305,12.9093,34.6361,-0.6881,-0.1156,0.098,355.2726
19:41:43:580,1.206,-1.8138,12.4905,34.6074,-0.6343,0.0127,0.1481,355.1086
19:41:43:604,1.3113,-1.7922,12.6772,34.6074,-0.7553,0.0677,0.0883,354.9939
19:41:43:624,0.7442,-1.8114,13.6104,34.5181,-0.9508,0.1312,-0.0437,355.0619
19:41:43:643,0.0526,-1.7492,14.4407,34.6289,-0.9508,0.301,-0.0766,355.206
19:41:43:670,0.1579,-1.8592,14.1344,34.0966,-0.6075,0.4244,0.0687,355.2327
19:41:43:679,0.9834,-1.8616,12.9787,34.5361,-0.1029,0.3487,0.3155,354.9253
19:41:43:703,1.9693,-1.608,11.6866,34.0801,0.2978,0.0958,0.5061,354.3229
19:41:43:720,2.6895,-1.2395,10.6792,35.0004,0.4884,-0.1595,0.5146,353.6719
19:41:43:739,2.8522,-1.0122,9.7986,34.0344,0.5361,-0.2548,0.3558,353.1664
19:41:43:759,2.1296,-0.7825,8.808,34.5181,0.5605,-0.184,0.1139,352.968
19:41:43:781,1.1414,-0.5145,7.7671,35.5257,0.613,-0.0764,-0.0852,353.0712
19:41:43:805,0.5527,-0.347,6.6473,33.591,0.6998,-0.0459,-0.1512,353.2988
19:41:43:827,0.414,-0.1962,5.5394,32.2419,0.7645,-0.1363,-0.139,353.5185
19:41:43:842,0.5575,0.1699,4.9029,34.0771,0.69,-0.3049,-0.1304,353.659
19:41:43:860,0.95,0.5504,4.9723,34.6361,0.4493,-0.4149,-0.1756,353.8853
19:41:43:880,1.1198,0.8207,5.6782,35.0843,0.1427,-0.3636,-0.3173,354.2816
19:41:43:900,0.8495,0.9691,6.6521,34.7986,-0.1285,-0.2353,-0.547,354.9537
19:41:43:922,0.2106,0.6891,8.9228,35.096,-0.4022,-0.0215,-0.8854,356.8572
19:41:43:942,-0.0766,0.6676,9.6694,34.7986,-0.4169,0.0103,-0.9294,357.9684
19:41:43:963,-0.4379,0.6724,10.1408,34.2516,-0.39,0.0445,-0.9135,359.0988
19:41:43:979,-0.6676,0.5264,10.3968,34.3285,-0.3558,0.119,-0.8659,0.179
19:41:44:004,-1.1055,0.5025,10.6983,34.2516,-0.3546,0.2082,-0.7962,1.2135
19:41:44:025,-1.6343,0.5504,11.6602,34.7505,-0.4059,0.2852,-0.6826,2.1328
19:41:44:038,-1.7755,0.4307,13.1797,35.6781,-0.4071,0.2998,-0.4823,2.8898
19:41:44:060,-1.2108,0.055,14.0411,35.562,-0.2581,0.1752,-0.2538,3.3382
19:41:44:081,-1.017,-0.0407,13.9095,35.3745,0.0596,0.108,-0.04,3.5383
19:41:44:101,-1.127,-0.0239,12.7537,35.5091,0.4493,0.1044,0.2055,3.4481
19:41:44:120,-1.1151,0.1699,11.1984,35.697,0.767,0.0139,0.4926,3.0586
19:41:44:140,-0.9858,0.7657,9.9828,36.3266,0.8928,-0.1461,0.7761,2.374
19:41:44:160,-0.5168,1.2395,9.7364,35.4755,0.7877,-0.2255,0.9984,1.3935
19:41:44:179,-0.0526,1.1773,10.27,35.011,0.5678,-0.1986,1.0999,0.2921
19:41:44:200,-0.5288,1.0744,10.7557,36.5557,0.4469,-0.1986,1.0473,359.2951
19:41:44:221,-1.2012,0.9093,10.5188,37.6767,0.558,-0.3049,0.9997,358.3457
19:41:44:240,-0.8064,0.5504,9.7795,35.7573,0.7743,-0.5725,1.1109,357.3076
19:41:44:258,0.2536,0.2584,9.3703,35.6416,0.8501,-0.9158,1.2208,356.1399
19:41:44:280,0.3829,0.3589,9.7029,37.7519,0.6362,-1.1662,1.0693,355.1597
19:41:44:300,-0.3805,0.2153,10.8754,36.6554,0.2135,-1.1564,0.7077,354.6565
19:41:44:321,-1.1797,-0.4498,11.8875,36.2089,-0.12,-0.8315,0.4267,354.4604
19:41:44:339,-1.6391,-1.1557,11.8732,35.4755,-0.1664,-0.3587,0.3729,354.3015
19:41:44:359,-1.6343,-1.5721,10.9663,36.6056,-0.0125,0.0677,0.5257,353.9456
19:41:44:380,-1.5242,-1.3161,10.1288,35.7166,0.1329,0.3792,0.8103,353.208
19:41:44:402,-0.7489,-0.5264,8.7027,35.6285,0.4236,0.6321,1.3002,350.679
19:41:44:425,-0.481,-0.3709,7.0827,35.2398,0.7279,0.6969,1.4077,349.1653
19:41:44:439,-0.3541,-0.1819,5.1661,37.6579,0.9771,0.7201,1.4529,347.625
19:41:44:459,-0.4044,0.0574,3.9027,39.2885,0.9905,0.6248,1.4187,346.1248
19:41:44:587,-0.7442,0.3781,3.6203,39.2253,0.734,0.3279,1.2611,344.8773
19:41:44:587,-1.1868,0.5264,4.3789,38.0856,0.321,-0.1021,1.0021,343.9972
19:41:44:588,-1.8305,0.6197,5.1494,40.0719,-0.0907,-0.3599,0.7248,343.4911
19:41:44:588,-2.0172,0.4522,6.6544,35.5661,-0.528,-0.2157,0.5831,343.0943
19:41:44:589,-1.4094,0.5336,9.3559,34.6021,-1.0094,0.1874,0.6942,342.4617
19:41:44:589,-0.055,0.7011,12.4881,37.1447,-1.2574,0.6859,0.9752,341.3809
19:41:44:607,2.1368,0.6987,14.5197,35.5453,-1.1035,0.973,1.1976,339.9354
19:41:44:621,4.0487,0.5001,14.5292,33.9507,-0.6392,0.918,1.156,338.4206
19:41:44:640,4.209,0.9117,13.3519,32.8663,-0.2483,0.6419,0.8005,337.3442
19:41:44:658,3.7376,1.1174,12.6628,34.9191,-0.2324,0.4758,0.3473,336.7817
19:41:44:680,3.3332,0.7609,12.9811,34.0991,-0.4694,0.5588,-0.0034,336.618
19:41:44:701,2.9001,0.3733,13.5314,34.7145,-0.6734,0.6944,-0.2465,336.7551
19:41:44:729,2.5412,0.0191,13.7037,35.241,-0.7003,0.769,-0.4041,337.075
19:41:44:740,2.1105,-0.4594,13.4883,34.5885,-0.6075,0.7653,-0.5091,337.5023
19:41:44:758,1.4668,-0.6867,13.0217,32.8346,-0.4303,0.7347,-0.536,338.0001
19:41:44:778,1.3256,-0.8183,12.1029,32.3512,-0.1163,0.7042,-0.4212,338.395
19:41:44:799,1.5864,-1.0624,10.7677,33.9495,0.2612,0.422,-0.2794,338.6153
19:41:44:820,1.8712,-1.1294,9.5091,33.2891,0.4921,-0.0801,-0.2721,338.8167
19:41:44:838,1.7994,-1.06,8.7864,34.4038,0.4652,-0.4686,-0.3931,339.1679
19:41:44:866,0.8423,-0.8566,8.9563,35.1778,0.0315,-0.1827,-0.6435,339.6936
19:41:44:878,0.1914,-0.7178,8.3677,32.2063,0.0474,0.1703,-0.6863,341.0633
19:41:44:901,-0.2249,-0.4834,7.346,35.2293,0.2282,0.2949,-0.6594,341.7847
19:41:44:918,-0.4331,-0.1938,6.3577,35.3638,0.3907,0.1642,-0.5971,342.4962
19:41:44:941,-0.2943,0.0814,5.8935,35.1116,0.4236,-0.118,-0.5226,343.1114
19:41:44:963,-0.0048,0.3948,6.1065,36.0698,0.3369,-0.3758,-0.4957,343.7157
19:41:44:980,0.2249,0.414,6.6688,33.6632,0.2282,-0.4857,-0.558,344.3805
19:41:44:999,0.1125,0.402,7.066,35.8667,0.1463,-0.4295,-0.6814,345.172
19:41:45:020,0.0215,0.3972,7.3771,35.1116,0.0914,-0.2328,-0.784,346.088
19:41:45:039,-0.2345,0.591,7.5733,35.7822,0.0278,-0.052,-0.8402,347.0371
19:41:45:059,-0.1914,0.6963,8.1906,33.8365,-0.0821,0.0359,-0.85,348.0181
19:41:45:080,0.2297,0.5767,8.9587,36.2089,-0.2067,0.0176,-0.8317,348.9438
19:41:45:103,0.39,0.6197,9.9159,35.7077,-0.3314,0.0127,-0.8366,349.8761
19:41:45:123,-0.0646,0.6604,10.9567,37.0849,-0.4046,0.0689,-0.8708,350.8531
19:41:45:140,-1.1533,0.9093,11.4736,36.6571,-0.3607,0.0689,-0.8989,351.9205
19:41:45:160,-2.0674,0.9763,11.7631,35.1285,-0.2422,-0.0691,-0.8231,352.9284
19:41:45:179,-2.6441,0.9069,12.3254,36.4762,-0.1493,-0.3049,-0.6154,353.7456
19:41:45:199,-2.8881,0.9404,12.7705,36.0645,-0.0369,-0.4967,-0.3149,354.2764
19:41:45:222,-2.3617,0.6556,12.8519,36.5209,0.1182,-0.5664,0.0724,354.3207
19:41:45:240,-1.3735,0.5527,12.4905,36.9938,0.2355,-0.5248,0.4768,353.8895
19:41:45:259,-0.6174,1.0265,12.067,35.5937,0.2465,-0.3513,0.7822,353.0965
19:41:45:280,-0.4977,1.34,12.1101,36.1979,0.1683,-0.1485,0.8885,352.1711
19:41:45:301,-0.7131,1.1844,12.5216,37.5731,0.0901,-0.1473,0.8384,351.3253
19:41:45:323,-0.6485,0.3852,13.0959,37.511,0.2343,-0.4161,0.7761,349.7702
19:41:45:342,-0.2776,0.2656,11.9091,34.8538,0.5141,-0.3831,0.7969,348.9767
19:41:45:363,0.1675,0.1699,10.8132,35.9135,0.6863,-0.4075,0.682,348.2662
19:41:45:378,0.5264,-0.1292,10.6289,37.7505,0.5776,-0.3904,0.4499,347.8018
19:41:45:398,0.3302,-0.3446,10.8873,36.1801,0.3797,-0.1669,0.1738,347.6412
19:41:45:421,-0.0263,-0.4857,10.6744,37.0301,0.321,0.1361,-0.0547,347.7086
19:41:45:438,-0.1531,-0.7992,9.9159,37.2073,0.4102,0.3426,-0.1732,347.872
19:41:45:459,0.0455,-1.1605,8.7314,37.2484,0.5593,0.4281,-0.1988,348.0454
19:41:45:480,-0.2177,-1.1174,7.3986,34.3409,0.6191,0.4562,-0.1915,348.2352
19:41:45:499,-0.6508,-0.5623,6.944,37.0693,0.4872,0.5466,-0.1316,348.3422
19:41:45:523,-0.7585,-0.1316,6.7525,36.4905,0.354,0.7629,0.0137,348.2607
19:41:45:541,-0.7418,0.0838,5.7547,35.7473,0.387,0.9876,0.1591,348.0221
19:41:45:561,-0.8088,0.3039,4.0702,34.6466,0.4078,1.1672,0.2397,347.6221
19:41:45:580,-1.1127,0.8471,3.326,38.002,0.0791,1.4091,0.2495,347.1908
19:41:45:598,-1.4477,1.3639,4.5272,38.2427,-0.5781,1.8087,0.2385,346.7191
19:41:45:619,-1.5936,1.4979,6.8698,36.8289,-1.145,2.1287,0.2214,346.256
19:41:45:639,-1.9836,1.5027,9.0209,37.2194,-1.2953,1.9736,0.1518,345.9005
19:41:45:660,-2.1248,1.3472,10.7079,37.8339,-1.0717,1.2687,0.0846,345.7474
19:41:45:681,-2.0985,1.261,11.4784,34.5085,-0.6319,0.4147,0.0773,345.6364
19:41:45:705,-2.1703,1.3137,11.275,35.4349,-0.1493,-0.1779,0.0834,345.5596
19:41:45:723,-2.0483,1.194,10.5954,35.7558,0.1744,-0.4784,0.0883,345.5051
19:41:45:743,-1.517,0.8375,10.0475,37.2318,0.2257,-0.592,0.0736,345.4385
19:41:45:760,-0.9858,0.5073,10.2197,35.7785,0.0352,-0.515,0.0309,345.4334
19:41:45:780,-0.4618,0.1914,11.7177,35.249,-0.5158,-0.1632,-0.139,345.5516
19:41:45:806,-0.1101,-0.2752,12.4427,36.296,-0.6233,-0.1424,-0.2587,345.7703
19:41:45:819,0.3996,-1.0217,13.1557,35.8605,-0.6698,-0.3135,-0.4273,346.1544
19:41:45:837,0.4522,-1.5482,14.0746,36.2913,-0.7345,-0.5004,-0.6399,346.7704
19:41:45:858,-0.4164,-1.7683,14.8379,36.1482,-0.7003,-0.4405,-0.8329,347.6672
19:41:45:880,-1.0816,-2.01,14.1942,35.9975,-0.3705,-0.1339,-0.8292,348.5471
19:41:45:898,-0.6508,-2.2684,12.4403,35.5072,0.1451,0.1031,-0.5995,349.1743
19:41:45:925,0.146,-2.2038,10.5787,36.2913,0.519,0.0494,-0.354,349.4997
19:41:45:941,0.67,-1.651,9.5545,36.6817,0.5874,-0.1644,-0.2917,349.7629
19:41:45:959,0.6532,-1.2443,9.0903,36.1984,0.4371,-0.267,-0.4114,350.1648
19:41:45:979,0.0263,-1.0624,8.7529,37.0681,0.299,-0.1595,-0.6154,350.782
19:41:45:999,-0.8231,-0.9476,7.8532,37.8667,0.3198,0.0201,-0.7559,351.6397
19:41:46:018,-1.3017,-0.7226,6.7382,38.1921,0.4383,0.1239,-0.7523,352.5034
19:41:46:039,-1.2586,-0.4427,5.6925,37.247,0.5104,0.0787,-0.6545,353.2834
19:41:46:060,-1.0265,0.0215,5.2188,38.7218,0.4249,-0.063,-0.5653,353.9292
19:41:46:080,-0.8207,0.4259,5.3097,38.4015,0.2123,-0.151,-0.5653,354.5688
19:41:46:098,-0.8064,0.6772,5.8696,38.4229,-0.0308,-0.1314,-0.6826,355.3279
19:41:46:119,-1.1031,0.615,6.6305,36.7846,-0.2361,-0.0484,-0.8622,356.3154
19:41:46:144,-1.4429,0.3924,7.3842,37.8413,-0.4108,0.053,-0.9991,357.4746
19:41:46:157,-1.3998,0.2249,8.6788,37.3569,-0.5952,0.2253,-1.0149,358.6374
19:41:46:178,-0.9021,0.012,9.88,39.6154,-0.7419,0.4745,-0.9722,359.7351
19:41:46:199,-0.6556,-0.4594,11.2774,38.0336,-0.7834,0.8056,-1.0052,0.8531
19:41:46:220,-1.6941,-0.268,14.254,38.0336,-0.6954,0.7335,-1.1102,2.1291
19:41:46:244,-3.6443,0.0502,14.0195,39.0191,0.6448,-1.3299,-0.9661,4.3984
19:41:46:261,-4.13,0.2513,10.727,38.0078,1.3509,-1.479,-0.74,5.2779
19:41:46:279,-4.063,0.6652,8.7075,38.7828,1.3937,-0.8791,-0.3515,5.7908
19:41:46:298,-3.2518,1.1964,8.9444,37.6569,0.9001,-0.0606,0.1371,5.7822
19:41:46:324,-2.0506,1.4165,10.2006,39.0453,0.3613,0.488,0.5366,5.2164
19:41:46:340,-1.0122,1.5075,11.2582,39.1549,0.1158,0.5723,0.7187,4.4297
19:41:46:361,-0.5432,1.6176,11.586,38.6628,0.1194,0.3096,0.6979,3.6394
19:41:46:378,-1.0552,1.8568,11.4138,37.8993,0.2428,0.0213,0.5391,3.0303
19:41:46:397,-1.5864,1.5769,10.7533,39.3015,0.3736,-0.1388,0.3778,2.6192
19:41:46:420,-1.9119,0.7896,10.2054,39.6096,0.4212,-0.2475,0.2837,2.3783
19:41:46:441,-2.144,0.2513,10.1743,37.6114,0.3357,-0.333,0.2752,2.1833
19:41:46:462,-1.9334,0.0574,10.1408,37.0693,0.2294,-0.2402,0.3815,1.7898
19:41:46:485,-1.4453,0.0502,9.7531,38.1414,0.2123,-0.0655,0.5,1.2301
19:41:46:499,-1.0792,0.0383,9.0377,38.3645,0.1891,-0.0972,0.4548,0.7271
19:41:46:520,-1.2562,-0.0407,8.7984,37.4376,0.0168,-0.1705,0.2581,0.4978
19:41:46:542,-1.6965,-0.2417,9.4469,39.2645,-0.28,-0.096,0.0528,0.4929
19:41:46:559,-2.077,-0.4164,9.8871,40.8394,-0.445,0.0591,-0.0449,0.6125
19:41:46:587,-2.412,-0.4092,9.5474,43.3154,-0.3619,0.1691,-0.0534,0.7474
19:41:46:704,-2.5053,-0.3685,8.5304,42.1752,-0.1664,0.2717,0.0235,0.8026
19:41:46:705,-2.4215,-0.3183,7.7432,42.0918,-0.0284,0.389,0.1664,0.7137
19:41:46:705,-2.2971,-0.055,7.3149,42.7322,0.0107,0.4477,0.3302,0.4424
19:41:46:706,-1.9167,0.201,7.3316,40.5681,-0.0137,0.4244,0.4975,359.9445
19:41:46:707,-1.584,0.5886,7.389,41.1903,-0.0039,0.4037,0.6295,359.2626
19:41:46:707,-0.682,1.3998,7.3101,39.0866,0.1378,0.3353,0.7602,358.4853
19:41:46:724,0.1866,1.6247,7.4704,41.4378,0.1427,0.2387,0.77,356.6552
19:41:46:741,1.3543,1.718,8.1141,39.6917,0.04,0.1447,0.693,355.7794
19:41:46:758,2.0052,1.7037,9.0401,40.4401,-0.1273,0.0591,0.4328,355.1781
19:41:46:777,1.4788,1.529,10.1097,41.5391,-0.2531,-0.0312,-0.0278,355.0752
19:41:46:799,0.2584,1.017,10.9807,41.1001,-0.2764,-0.1974,-0.5434,355.6255
19:41:46:821,-0.4283,0.0311,11.6459,41.662,-0.2544,-0.4601,-0.9147,356.6126
19:41:46:839,-0.8829,-0.8638,12.3996,40.239,-0.2739,-0.7411,-1.1188,357.8881
19:41:46:858,-1.3543,-1.4477,13.3998,39.8244,-0.3179,-0.8791,-1.1909,359.2359
19:41:46:878,-1.6247,-1.9813,13.6343,40.7868,-0.2764,-0.7728,-1.0846,0.4932
19:41:46:898,-1.6558,-2.2301,12.8949,40.9895,-0.1151,-0.4979,-0.8341,1.4578
19:41:46:918,-1.1486,-1.9884,11.8014,41.2261,0.0327,-0.2487,-0.4872,2.0456
19:41:46:939,-0.0861,-1.7611,11.019,41.6457,0.0571,-0.1265,-0.1878,2.2475
19:41:46:958,0.8423,-1.6128,10.9232,41.5204,-0.043,-0.14,-0.1109,2.3243
19:41:46:980,0.9093,-1.6798,11.3563,40.1242,-0.2141,-0.1571,-0.2624,2.5715
19:41:46:998,0.1795,-1.9573,11.4999,41.6246,-0.2959,-0.0019,-0.4505,3.0522
19:41:47:020,-0.1388,-2.0435,10.9089,41.0909,-0.1945,0.2241,-0.4737,3.5806
19:41:47:038,0.1053,-2.0004,9.9757,41.9539,-0.0223,0.2803,-0.3589,3.9624
19:41:47:058,0.725,-1.8664,9.2459,41.9501,0.0718,0.1557,-0.2562,4.19
19:41:47:078,1.2251,-1.7252,8.8463,41.2116,0.0205,-0.0325,-0.2599,4.4262
19:41:47:098,1.0265,-1.474,8.7218,41.2504,-0.1371,-0.0691,-0.3735,4.786
19:41:47:124,0.2752,-1.0361,8.4514,42.4792,-0.2458,0.1361,-0.4969,5.287
19:41:47:143,-0.5886,-0.7011,7.6475,41.0052,-0.208,0.3719,-0.5409,5.9032
19:41:47:161,-0.9763,-0.0957,5.805,41.2058,-0.0956,0.4318,-0.4847,6.9005
19:41:47:177,-0.7489,0.2513,5.2379,40.5951,-0.0162,0.2106,-0.2917,7.2318
19:41:47:198,-0.4642,0.6221,5.324,43.013,-0.1432,0.0653,-0.2966,7.5314
19:41:47:221,-0.0861,0.7155,5.7069,42.066,-0.3106,-0.0019,-0.3857,7.9398
19:41:47:241,-0.2489,0.9045,6.3553,42.9197,-0.4645,-0.0178,-0.5641,8.5631
19:41:47:258,-0.3541,0.7753,7.3484,42.4605,-0.6099,-0.0606,-0.7669,9.3896
19:41:47:278,-0.7418,0.5288,8.4969,41.1603,-0.7198,-0.0899,-0.9306,10.4268
19:41:47:298,-1.3376,0.2919,9.6957,42.434,-0.7724,-0.118,-1.0516,11.6135
19:41:47:321,-1.6439,-0.012,10.8299,43.1439,-0.7626,-0.1864,-1.1078,12.8476
19:41:47:341,-1.9262,-0.3302,11.5765,42.4981,-0.6869,-0.2243,-1.1163,14.1226
19:41:47:361,-2.6249,-0.4475,11.9641,42.7305,-0.5952,-0.1449,-1.087,15.3643
19:41:47:380,-3.3858,-0.4762,12.4451,42.7994,-0.5549,0.0237,-0.9526,16.5248
19:41:47:399,-3.6156,-0.6269,13.1821,43.1756,-0.5244,0.2057,-0.6802,17.4185
19:41:47:421,-3.6514,-0.469,13.8592,42.3349,-0.3924,0.3646,-0.3173,17.9172
19:41:47:439,-3.1753,-0.2823,13.4931,43.9755,-0.1139,0.4868,0.0822,17.9977
19:41:47:457,-2.4048,-0.2513,12.5336,42.6449,0.1769,0.5075,0.3974,17.6758
19:41:47:477,-1.541,-0.524,11.799,43.9103,0.2819,0.4269,0.5489,17.1701
19:41:47:498,-1.194,-0.658,11.5478,42.941,0.1866,0.3279,0.5525,16.6061
19:41:47:522,-1.4333,-0.8638,12.2584,43.0668,-0.0223,0.1801,0.4499,16.1438
19:41:47:541,-2.0674,-2.0889,14.6871,41.4238,-0.2092,-0.0312,0.3436,15.793
19:41:47:561,-2.522,-2.0985,14.5316,40.3624,-0.2324,-0.2353,0.3008,14.9579
19:41:47:577,-1.9238,-2.1846,12.3374,44.083,0.5886,-0.0325,0.7737,14.1811
19:41:47:597,-1.0959,-1.9501,10.014,45.3727,1.0663,-0.0141,1.073,13.0399
19:41:47:618,-0.3876,-1.4812,8.5496,44.9774,1.1701,-0.2194,1.1585,11.7186
19:41:47:645,0.134,-1.1246,8.3318,44.4286,0.9478,-0.3465,1.0632,10.5088
19:41:47:662,0.2967,-1.0433,8.607,43.3442,0.6753,-0.311,0.8347,9.5692
19:41:47:676,-0.0909,-1.0074,8.5759,44.7081,0.5336,-0.2402,0.5379,8.9879
19:41:47:696,-0.7968,-0.9954,8.3462,44.8838,0.5031,-0.2218,0.2972,8.703
19:41:47:716,-1.2969,-0.9523,8.0877,45.0246,0.5336,-0.2145,0.1909,8.5408
19:41:47:739,-1.529,-0.9476,7.5757,43.847,0.6118,-0.1852,0.1994,8.407
19:41:47:760,-1.5075,-0.9069,6.7286,45.2123,0.6961,-0.1375,0.2581,8.1897
19:41:47:776,-1.4716,-0.7537,5.8504,45.1405,0.6949,-0.0642,0.3155,7.9366
19:41:47:796,-1.4764,-0.6126,5.1948,44.6807,0.53,0.086,0.3399,7.6136
19:41:47:817,-1.5218,-0.6365,5.1039,45.3522,0.1989,0.3365,0.3143,7.3633
19:41:47:841,-1.9095,-0.5767,6.0419,44.4043,-0.2348,0.637,0.2483,7.1513
19:41:47:859,-2.5388,-0.2895,7.8413,43.4504,-0.5867,0.7787,0.2165,6.9946
19:41:47:876,-2.3857,-0.2991,9.6072,44.959,-0.6514,0.5185,0.2886,6.763
19:41:47:903,-1.7755,-0.2704,10.5308,46.8748,-0.3851,-0.1449,0.3961,6.3903
19:41:47:917,-1.1007,-0.3111,10.2389,45.7558,0.0681,-0.8755,0.4328,5.9427
19:41:47:936,-0.8638,-0.2273,9.2889,46.3343,0.4139,-1.2921,0.3607,5.6255
19:41:47:959,-0.5958,-0.3493,8.5974,45.633,0.4224,-1.3275,0.263,5.4201
19:41:47:976,-0.0335,-0.6174,8.8199,45.5114,0.1158,-1.1161,0.2007,5.2752
19:41:47:995,0.6341,-0.8183,9.6622,46.2512,-0.3228,-0.7618,0.1604,5.1444
19:41:48:018,1.2897,-0.9523,10.7055,46.2512,-0.7345,-0.3501,0.1115,5.0201
19:41:48:040,1.9908,-1.2754,11.8253,46.3568,-1.0216,-0.0398,0.0186,4.9629
19:41:48:056,2.4742,-1.7324,12.9236,43.9418,-1.1817,-0.0398,-0.1781,5.107
19:41:48:077,0.9691,-2.0267,14.7398,45.2652,-1.1914,-0.2866,-0.7596,5.5577
19:41:48:096,-0.2919,-2.2229,14.278,45.1189,-0.853,-0.0496,-0.8622,7.3064
19:41:48:118,-0.6197,-2.467,12.8901,45.8211,-0.3692,0.2253,-0.6545,8.1158
19:41:48:136,0.1675,-2.3928,11.4855,45.8735,0.0388,0.3169,-0.222,8.4425
19:41:48:157,1.4788,-2.1679,10.4925,44.0923,0.2868,0.2485,0.1836,8.2566
19:41:48:176,2.4503,-1.7037,9.6646,45.7479,0.4041,0.141,0.3363,7.8384
19:41:48:196,2.656,-1.2538,8.6285,44.7968,0.4322,0.1263,0.2275,7.5408
19:41:48:217,1.9621,-0.8016,7.6642,43.9151,0.3943,0.196,-0.0229,7.5343
19:41:48:240,0.9069,-0.4044,6.7813,43.8409,0.3357,0.2216,-0.2917,7.8948
19:41:48:257,0.0694,-0.1723,6.0371,45.7533,0.2575,0.1557,-0.4847,8.4635
19:41:48:276,-0.2417,-0.1316,5.7787,45.5788,0.1292,0.0213,-0.5702,9.1204
19:41:48:296,-0.28,-0.1819,6.1424,45.0368,-0.0491,-0.1314,-0.5934,9.8378
19:41:48:318,-0.201,-0.2513,6.8602,44.8751,-0.2116,-0.2133,-0.6044,10.5652
19:41:48:336,-0.2608,-0.1986,7.5781,44.6769,-0.3069,-0.2059,-0.6313,11.3137
19:41:48:358,-0.323,-0.1699,8.1332,44.4839,-0.3448,-0.1571,-0.6655,12.0757
19:41:48:379,-0.3948,-0.1484,8.6812,45.7827,-0.3509,-0.1009,-0.6936,12.8917
19:41:48:397,-0.323,-0.3446,9.4612,45.1074,-0.3753,-0.1046,-0.7144,13.762
19:41:48:419,-0.2297,-0.5982,10.1647,44.6975,-0.4034,-0.1632,-0.7278,14.6042
19:41:48:439,-0.3948,-0.6556,10.8682,44.7546,-0.4071,-0.1779,-0.7291,15.4556
19:41:48:458,-0.6843,-0.6461,11.3851,45.3468,-0.3802,-0.1339,-0.69,16.3024
19:41:48:479,-0.9978,-0.5527,11.4951,44.7546,-0.3057,0.0079,-0.5776,17.0632
19:41:48:497,-1.1773,-0.4044,11.275,44.6105,-0.1921,0.2204,-0.3735,17.6183
19:41:48:523,-1.0193,-0.0742,11.3946,44.8531,-0.0772,0.3682,-0.1121,17.8929
19:41:48:544,-0.2153,0.2345,11.7416,44.5656,0.1671,0.1361,0.2617,17.5894
19:41:48:560,0.2632,0.2034,11.9569,43.8342,0.2538,-0.1632,0.3363,17.2724
19:41:48:577,0.5719,0.2393,11.7751,43.5189,0.3137,-0.41,0.3277,16.9094
19:41:48:596,0.2058,0.256,11.1242,45.6583,0.3137,-0.4564,0.2263,16.6512
19:41:48:617,-0.5647,0.0239,11.0812,43.171,0.1549,-0.366,0.0797,16.6232
19:41:48:636,-1.3831,-0.3805,12.2321,42.2264,-0.1481,-0.3098,-0.0082,16.7043
19:41:48:662,-2.0722,-0.8662,13.9741,41.6917,-0.3814,-0.3135,0.0467,16.723
19:41:48:676,-2.2181,-1.3759,14.6536,47.1121,-0.2678,-0.1901,0.2801,16.5439
19:41:48:700,-1.9454,-1.8568,13.541,47.2601,0.2099,0.0335,0.6173,16.0945
19:41:48:721,-1.5123,-1.8185,11.9091,46.5373,0.7169,0.086,0.9435,15.2532
19:41:48:851,-0.9619,-1.7085,10.5978,47.2016,1.0419,-0.0777,1.1536,14.1605
19:41:48:852,-0.3996,-1.6845,9.5904,46.4365,1.2202,-0.2719,1.2281,12.8994
19:41:48:852,-0.1125,-1.5816,8.5878,46.8565,1.2923,-0.3941,1.178,11.7331
19:41:48:853,0.055,-1.4859,7.8748,42.4888,1.2422,-0.4637,1.0546,10.6722
19:41:48:854,-0.0742,-1.3352,7.4106,44.6096,1.0785,-0.4809,0.9044,9.7937
19:41:48:854,-0.3254,-1.2778,7.389,44.4191,0.8501,-0.3745,0.7749,9.0484
19:41:48:865,-0.5695,-1.2514,7.4058,44.7063,0.6472,-0.1669,0.7162,8.3723
19:41:48:876,-0.7489,-1.0768,7.2814,43.7774,0.5238,0.0457,0.726,7.6875
19:41:48:897,-0.7178,-0.7585,7.0014,43.682,0.4444,0.207,0.7871,6.951
19:41:48:917,-0.6867,-0.2249,6.7358,43.7816,0.3711,0.3267,0.8628,6.0947
19:41:48:936,-0.536,0.2369,6.5181,43.6056,0.2661,0.3963,0.8983,5.175
19:41:48:957,-0.4235,0.5551,6.9416,43.0852,0.0681,0.3817,0.8433,4.2943
19:41:48:979,-0.4498,0.2441,9.5785,41.6904,-0.4218,0.2974,0.6221,3.573
19:41:48:997,-0.4092,0.1412,11.0716,42.8069,-0.4865,0.345,0.6026,2.3011
19:41:49:019,0.1795,-0.1914,12.3206,43.3242,-0.3582,0.3829,0.6539,1.6092
19:41:49:041,0.8925,-0.6293,12.2536,43.1451,-0.032,0.3548,0.7101,0.8626
19:41:49:056,1.5816,-0.7585,11.799,43.1324,0.2709,0.1923,0.7101,0.1078
19:41:49:077,2.455,-0.8925,11.3635,44.3849,0.4212,-0.0166,0.6759,359.3278
19:41:49:098,2.9958,-0.8758,10.8132,43.9771,0.4982,-0.0703,0.5574,358.6722
19:41:49:117,2.9312,-0.5838,9.9206,43.6664,0.5397,0.0066,0.3497,358.2259
19:41:49:138,2.8618,-0.6556,8.9635,44.0343,0.4909,0.0347,0.1176,358.0367
19:41:49:158,2.9121,-0.9476,8.473,42.2689,0.2404,-0.0984,-0.1158,358.1222
19:41:49:179,2.8929,-1.3232,9.3129,43.2419,-0.2348,-0.2597,-0.3381,358.4733
19:41:49:196,2.1966,-1.1725,10.9591,44.0769,-0.7211,-0.2365,-0.536,359.075
19:41:49:217,1.6654,-1.3711,11.9234,42.9269,-0.8506,0.1044,-0.6118,359.7458
19:41:49:239,1.8138,-1.7707,10.9807,42.545,-0.5317,0.433,-0.4945,0.2793
19:41:49:258,2.2158,-1.4931,9.8297,41.2596,-0.1359,0.4293,-0.299,0.5725
19:41:49:277,3.0939,-1.2084,9.2195,43.3333,0.0742,0.1422,-0.1414,0.6537
19:41:49:297,3.6275,-0.8112,8.6644,42.6857,0.1647,-0.2157,-0.1671,0.768
19:41:49:316,3.5007,-0.6221,7.9394,40.4744,0.1964,-0.4711,-0.3857,1.1462
19:41:49:338,2.7805,-0.5049,7.0564,41.9501,0.1744,-0.5688,-0.679,1.8669
19:41:49:357,1.8927,-0.4642,6.25,41.7629,0.0926,-0.6055,-0.916,2.9107
19:41:49:378,1.2467,-0.335,5.7834,40.7922,-0.0553,-0.6555,-1.0357,4.1178
19:41:49:396,0.9476,-0.1914,5.6925,41.5462,-0.2361,-0.7044,-1.054,5.369
19:41:49:416,0.8686,-0.0646,5.8098,42.2473,-0.4034,-0.735,-1.0271,6.5907
19:41:49:441,0.9739,0.0622,6.0371,41.7029,-0.5623,-0.7289,-1.0211,7.8224
19:41:49:458,1.151,-0.0048,6.8124,42.4264,-0.8921,-0.559,-1.1102,10.2537
19:41:49:478,0.9691,-0.0239,7.6642,40.8403,-1.1047,-0.4344,-1.1933,11.6382
19:41:49:497,0.8399,0.0096,9.2339,40.71,-1.3307,-0.3208,-1.2458,13.0992
19:41:49:517,0.9882,-0.2297,10.8515,40.5056,-1.4688,-0.2878,-1.2703,14.6023
19:41:49:539,0.8901,-0.4714,12.134,40.7209,-1.4602,-0.2756,-1.2996,16.1328
19:41:49:557,0.2345,-0.414,12.859,39.781,-1.3466,-0.1669,-1.2935,17.7126
19:41:49:578,-0.7585,-0.1938,13.206,41.5422,-1.1719,0.0518,-1.197,19.2284
19:41:49:596,-1.6893,-0.1747,13.5793,40.8208,-0.9984,0.2387,-0.9697,20.5917
19:41:49:617,-2.4694,-0.2345,14.3761,39.4879,-0.853,0.4171,-0.613,21.5985
19:41:49:639,-2.4574,-0.0383,15.1466,39.1214,-0.6624,0.6615,-0.0986,22.0893
19:41:49:658,-1.6271,0.1842,15.4576,38.447,-0.3875,0.7983,0.3998,22.0338
19:41:49:677,-0.2752,-0.0263,15.3356,40.1761,-0.0821,0.8007,0.7175,21.561
19:41:49:697,0.1005,0.1603,14.3857,37.9058,0.2221,0.6773,0.7981,20.9504
19:41:49:717,-0.4834,0.1699,13.5051,37.5823,0.3907,0.5271,0.638,20.476
19:41:49:738,-1.2084,-0.2776,14.0195,35.3477,0.3491,0.3401,0.4523,20.1846
19:41:49:757,-1.5864,-0.5527,14.8235,35.0204,0.3772,-0.0826,0.4511,19.8248
19:41:49:777,-1.4285,-1.151,13.797,39.4198,0.778,-0.4381,0.5721,19.2667
19:41:49:797,-1.084,-1.6869,11.476,39.1322,1.3302,-0.5847,0.7333,18.5594
19:41:49:817,-0.2369,-1.5816,10.2197,36.5339,1.5085,-0.6604,0.8347,17.6956
19:41:49:841,0.95,-1.6391,10.1958,38.4582,1.3277,-0.7301,0.8641,16.7835
19:41:49:856,1.3543,-1.4692,10.3537,37.4635,1.1286,-0.6861,0.7101,16.0401
19:41:49:877,1.1198,-1.7898,9.947,38.7612,1.0455,-0.4393,0.4267,15.6163
19:41:49:898,0.2871,-2.1918,9.1095,39.3052,0.8684,-0.0019,0.1273,15.4752
19:41:49:916,0.0311,-2.0459,9.0114,38.7612,0.756,0.1996,0.1897,15.2928
19:41:49:938,-0.0502,-1.7898,8.8367,38.7776,0.7462,0.4061,0.3436,15.015
19:41:49:958,0.1292,-1.5745,8.1906,40.4069,0.8928,0.5271,0.5208,14.5519
19:41:49:978,0.1842,-1.3615,6.8219,39.3798,1.1127,0.5429,0.6356,13.9259
19:41:50:010,0.1436,-0.9236,5.7093,38.7017,1.1946,0.5478,0.6967,13.2059
19:41:50:027,0.1507,-0.4618,5.0584,38.869,1.0968,0.6004,0.7333,12.4182
19:41:50:046,0.39,-0.0526,4.7904,38.4102,0.8952,0.6419,0.7309,11.62
19:41:50:055,0.6221,0.1771,4.8646,39.8933,0.624,0.6236,0.6539,10.8852
19:41:50:075,0.7825,0.3948,5.3671,38.2558,0.3015,0.5417,0.478,10.3245
19:41:50:095,0.871,0.6006,6.9248,38.861,-0.0516,0.4318,0.2178,10.058
19:41:50:115,1.0026,0.5001,8.7553,39.4654,-0.3228,0.3304,-0.0766,10.1284
19:41:50:136,0.7681,0.3493,10.2413,39.1592,-0.3753,0.29,-0.3479,10.5117
19:41:50:154,0.3493,0.0096,10.7031,39.4654,-0.2593,0.119,-0.569,11.1832
19:41:50:175,-0.3159,-0.3159,10.6911,39.1497,-0.1566,-0.162,-0.6973,12.0567
19:41:50:194,-0.7155,-0.6006,10.8012,37.0577,-0.2104,-0.4198,-0.6716,12.9679
19:41:50:214,-0.6102,-0.7872,11.1194,38.1066,-0.3949,-0.4711,-0.4749,13.6459
19:41:50:235,-0.0526,-0.9476,11.5717,39.4906,-0.6172,-0.2719,-0.1573,13.9828
19:41:50:255,1.1222,-1.0122,12.2345,38.7972,-0.8188,-0.0105,0.1921,13.8157
19:41:50:276,2.3904,-1.0552,12.737,39.28,-0.9153,0.1618,0.4145,13.3456
19:41:50:295,2.7781,-0.8853,12.9954,39.4117,-0.8897,0.218,0.3961,12.8462
19:41:50:317,2.1248,-0.5025,12.883,40.2172,-0.7406,0.2656,0.2495,12.5474
19:41:50:339,1.7898,-0.6341,11.6363,38.8692,-0.4034,0.3524,0.1774,12.3606
19:41:50:361,2.601,-0.7059,9.3057,39.2206,0.1537,0.0042,0.2569,11.7147
19:41:50:378,3.1681,-0.3733,9.1119,39.2206,0.0865,-0.3245,0.1994,11.4356
19:41:50:400,3.2853,-0.3541,9.2913,40.3095,-0.0968,-0.5077,-0.0107,11.385
19:41:50:415,2.7111,-0.5145,9.3799,39.3616,-0.2556,-0.4564,-0.3039,11.6782
19:41:50:438,1.7252,-0.4786,8.985,40.0229,-0.2923,-0.1999,-0.5018,12.236
19:41:50:458,0.9595,-0.3733,8.0495,39.5369,-0.1896,0.0347,-0.547,12.8512
19:41:50:476,0.5192,-0.1364,7.0756,38.8551,-0.0467,0.0799,-0.4957,13.4572
19:41:50:497,0.4211,0.0598,6.5037,39.7571,0.0498,-0.0447,-0.4065,13.9518
19:41:50:515,0.7849,0.1819,6.0395,40.4622,0.0914,-0.2121,-0.3332,14.3324
19:41:50:537,1.0863,0.3972,5.6495,38.602,0.0461,-0.3049,-0.3466,14.7269
19:41:50:555,1.2156,0.5623,5.6471,39.7741,-0.1298,-0.311,-0.4578,15.2116
19:41:50:576,1.1557,0.6437,6.2979,40.4782,-0.412,-0.2475,-0.6203,15.9136
19:41:50:595,0.938,0.5504,7.5015,39.8725,-0.7089,-0.1449,-0.7816,16.8322
19:41:50:615,0.8016,0.3302,8.8822,41.3929,-0.9263,-0.0777,-0.8915,17.8466
19:41:50:639,0.7011,0.1819,10.3825,38.4771,-1.0546,-0.1412,-0.9453,18.9434
19:41:50:660,0.4403,0.1675,12,41.3295,-1.0827,-0.2255,-0.9514,20.0435
19:41:50:677,0.1005,0.1149,13.2371,40.243,-0.9654,-0.2304,-0.916,21.1423
19:41:50:697,-0.3135,0.0407,13.6367,40.5371,-0.6942,-0.1583,-0.7975,22.1202
19:41:50:715,-0.7178,0.1938,13.5793,40.8221,-0.3705,-0.0997,-0.5702,22.8823
19:41:50:738,-0.469,0.4403,13.1868,40.4341,-0.0919,-0.0581,-0.2159,23.1916
19:41:50:756,0.4905,0.6604,12.2895,39.7378,0.1133,0.141,0.1555,23.1014
19:41:50:777,1.1988,0.8471,11.6243,40.6152,0.1207,0.4171,0.3179,22.8232
19:41:50:796,0.7083,1.139,11.6267,38.8094,-0.0589,0.615,0.2043,22.6733
19:41:50:817,-2.4598,1.0863,13.0409,44.8826,-0.2605,0.6187,-0.1365,22.8568
19:41:50:838,-2.9958,0.3709,12.7609,43.9791,0.0742,0.5002,-0.0022,23.1546
19:41:50:967,-2.6297,-0.3278,12.2369,44.4112,0.486,0.1752,0.2996,23.2762
19:41:50:968,-1.2586,-0.8112,11.9857,44.4225,0.7303,-0.2121,0.6319,22.6959
19:41:50:969,-0.1507,-1.2036,11.5573,45.0754,0.8525,-0.4552,0.781,21.8855
19:41:50:970,0.1819,-1.3352,11.4018,45.0589,0.8403,-0.6018,0.6674,21.1986
19:41:50:971,0.0383,-1.6343,11.6339,40.6656,0.6961,-0.669,0.434,20.8115
19:41:50:972,-0.3422,-2.1105,11.8469,43.0951,0.569,-0.5358,0.2495,20.5884
19:41:50:976,-0.5336,-2.4933,11.6889,42.0894,0.5409,-0.3342,0.208,20.4607
19:41:50:995,-0.524,-2.5771,11.3898,43.3702,0.5751,-0.1974,0.2972,20.243
19:41:51:017,-0.3637,-2.3785,10.8467,42.4176,0.6558,-0.074,0.4719,19.8134
19:41:51:037,-0.2632,-1.8927,9.9876,43.7321,0.8097,0.1251,0.6515,19.1757
19:41:51:055,-0.2776,-1.5529,8.7697,45.5345,1.0614,0.3365,0.7993,18.3594
19:41:51:077,-0.2225,-1.3998,7.1904,45.9122,1.3681,0.4342,0.9264,17.3741
19:41:51:096,-0.134,-1.1701,5.4963,44.469,1.6173,0.3695,1.0473,16.2399
19:41:51:116,0.0742,-0.7131,4.0223,45.6523,1.7138,0.2314,1.167,14.9608
19:41:51:136,0.4427,0.0096,3.07,45.6811,1.5953,0.0958,1.2489,13.5834
19:41:51:157,1.1103,0.5216,2.7637,47.167,1.2789,-0.0276,1.2428,12.1818
19:41:51:176,2.0602,0.8782,2.814,45.6398,0.8427,-0.1449,1.0827,10.9698
19:41:51:196,2.6393,1.2156,3.4744,45.4069,0.2978,-0.1913,0.7309,10.126
19:41:51:215,2.7206,1.1246,4.654,46.7121,-0.2984,-0.107,0.2214,9.8322
19:41:51:241,2.2086,0.5862,6.4008,46.7196,-0.8726,0.0042,-0.3442,10.1855
19:41:51:261,1.7372,-0.189,8.3821,46.7573,-1.3466,0.0042,-0.8207,11.0414
19:41:51:276,0.6245,-1.5577,13.2754,48.176,-1.8793,-0.2768,-1.3399,12.3333
19:41:51:295,-0.0048,-2.077,15.0102,47.7528,-1.7962,-0.2292,-1.3082,13.8595
19:41:51:314,-0.7418,-2.1775,15.2231,48.9654,-1.4126,-0.0093,-1.0589,16.6743
19:41:51:337,-0.8064,-2.1009,14.278,48.8689,-0.8872,0.1434,-0.6081,17.4294
19:41:51:358,0.2177,-1.876,12.9835,49.7899,-0.456,0.0885,-0.0632,17.5876
19:41:51:377,1.2371,-1.4285,12.0072,48.5334,-0.2617,-0.0936,0.3082,17.2554
19:41:51:398,1.7635,-0.9093,11.7631,46.5489,-0.3179,-0.2255,0.4083,16.7696
19:41:51:415,2.0435,-1.0361,11.9857,47.9636,-0.4853,-0.1779,0.3619,16.3319
19:41:51:436,1.6822,-1.0816,12.6532,49.9905,-0.6575,-0.0129,0.2862,15.9922
19:41:51:460,1.6845,-0.8614,13.5147,49.0187,-0.7516,0.2729,0.3546,15.6041
19:41:51:476,2.2923,-0.7609,13.4979,48.475,-0.6148,0.5906,0.5537,15.0056
19:41:51:496,3.0987,-0.6987,12.4355,49.5407,-0.2483,0.747,0.7028,14.1996
19:41:51:515,3.685,-0.5599,10.806,48.1842,0.1683,0.6834,0.6954,13.3871
19:41:51:537,3.6969,-0.3613,9.0736,48.6857,0.4689,0.4586,0.5171,12.7179
19:41:51:555,3.125,-0.079,7.7097,50.0492,0.5751,0.2241,0.2129,12.3905
19:41:51:577,2.4311,0.0598,6.8602,49.1466,0.5324,0.0653,-0.1304,12.4345
19:41:51:597,1.876,-0.122,6.4271,50.5327,0.4236,-0.0508,-0.4285,12.8672
19:41:51:617,1.3735,-0.2297,6.3194,47.9006,0.288,-0.074,-0.6362,13.5446
19:41:51:637,1.1557,-0.3493,6.4941,49.6811,0.1598,-0.0166,-0.7388,14.3253
19:41:51:655,1.139,-0.3111,6.7502,48.342,0.0669,0.0286,-0.7828,15.1691
19:41:51:676,1.1749,-0.2082,7.0301,51.1666,-0.0027,0.0359,-0.828,16.0663
19:41:51:697,1.194,-0.189,7.3771,49.0411,-0.0797,0.0445,-0.8867,17.0085
19:41:51:715,1.1222,-0.2034,7.7982,50.6344,-0.1542,0.0714,-0.9526,18.0466
19:41:51:741,0.5264,-0.2153,8.7601,50.3546,-0.3228,0.0811,-1.0504,19.1555
