Time,Acc_X,Acc_Y,Acc_Z,Meg,Gyr_X,Gyr_Y,Gyr_Z,Ore
19:45:03:027,-0.5791,2.6632,9.7938,31.1482,-0.4731,0.0017,-0.1219,353.7791
19:45:03:037,-0.5791,2.6632,9.7938,31.2514,-0.456,0.2778,-0.0424,176.4484
19:45:03:055,-0.5791,2.6632,9.7938,31.4295,-0.456,0.2778,-0.0424,176.4028
19:45:03:073,-0.8782,2.7494,9.1047,31.1158,-0.456,0.2778,-0.0424,176.1176
19:45:03:093,-0.9356,2.7111,9.3655,29.8406,-0.153,0.086,0.0565,175.8337
19:45:03:112,-0.8949,2.6656,9.4229,30.5276,-0.1603,0.0982,0.0675,175.6949
19:45:03:132,-0.8231,2.7278,9.3153,30.5599,-0.131,0.0811,0.0724,175.5714
19:45:03:151,-0.6748,2.7757,9.2937,30.2127,-0.1151,0.064,0.0883,175.4421
19:45:03:170,-0.6126,2.8116,9.5282,30.5599,-0.1334,0.0408,0.0846,175.3959
19:45:03:189,-0.5958,2.68,9.6981,29.1335,-0.1371,0.0139,0.0479,175.4
19:45:03:209,-0.7131,2.5747,9.667,30.3559,-0.0992,0.0005,0.0052,175.423
19:45:03:229,-0.7489,2.5627,9.466,29.9952,-0.054,-0.008,-0.0058,175.4472
19:45:03:259,-0.658,2.5603,9.4564,31.5408,-0.0504,-0.0215,0.0101,175.4259
19:45:03:269,-0.5097,2.4574,9.4899,30.6052,-0.0711,-0.0154,0.0247,175.4158
19:45:03:289,-0.5456,2.5077,9.6072,29.3247,-0.0772,-0.0068,0.0247,175.4147
19:45:03:310,-0.7609,2.7015,9.734,31.2563,-0.0662,-0.0361,0.026,175.3909
19:45:03:330,-0.6485,2.601,9.5689,29.7811,-0.0137,-0.0703,0.0565,175.3109
19:45:03:361,-0.6724,2.6584,9.2674,30.5599,0.0498,-0.0471,0.0712,175.2351
19:45:03:371,-0.8136,2.7996,8.8726,30.7042,0.0755,0.0054,0.0809,175.1214
19:45:03:394,-0.9069,2.9503,8.8487,30.0372,0.0437,0.0457,0.1041,174.9383
19:45:03:412,-0.9811,2.9958,8.8726,30.8181,-0.0174,0.0225,0.1115,174.7488
19:45:03:429,-0.9165,2.9647,9.0497,29.7811,-0.0638,-0.0325,0.0883,174.616
19:45:03:451,-0.9834,2.9958,9.2028,30.7627,-0.0821,-0.096,0.0602,174.5351
19:45:03:480,-1.1701,3.0437,9.4349,29.2398,-0.0846,-0.0862,0.0211,174.4543
19:45:03:490,-1.3328,3.0006,9.5258,29.9952,-0.0821,-0.0679,-0.0009,174.3827
19:45:03:511,-1.3424,2.9121,9.3177,30.8344,-0.054,-0.0752,0.0162,174.2972
19:45:03:530,-1.1988,2.9193,9.0281,31.2584,-0.0296,-0.0374,0.0626,174.1486
19:45:03:550,-1.0696,3.1035,8.8487,30.7409,-0.0516,-0.0227,0.0822,173.9471
19:45:03:580,-0.8758,3.1561,8.9516,30.6052,-0.1249,-0.0679,0.0626,173.9068
19:45:03:589,-0.9715,3.1418,9.2507,30.7042,-0.2116,-0.1058,0.015,173.8936
19:45:03:611,-1.0217,3.1896,9.7268,31.8074,-0.2605,-0.1412,-0.0119,173.9175
19:45:03:631,-0.8662,3.1202,9.3894,30.5218,-0.1603,-0.14,0.0125,173.9218
19:45:03:668,-0.9476,3.2136,9.1837,30.2404,-0.098,0.0042,-0.0192,173.9139
19:45:03:675,-1.2012,3.2758,8.9731,29.6229,-0.0894,0.1117,-0.0534,173.9012
19:45:03:691,-1.4022,3.3284,8.9013,28.8884,-0.1212,0.1263,-0.0388,173.8026
19:45:03:709,-1.6271,3.4074,9.0018,31.6668,-0.1481,0.1044,0.0309,173.638
19:45:03:729,-1.675,3.539,9.1334,30.0722,-0.1249,0.0799,0.1151,173.3931
19:45:03:753,-1.2802,3.4098,8.942,31.2584,-0.0553,0.0311,0.1799,173.1028
19:45:03:770,-1.1246,3.3452,8.8271,30.8765,0.0205,0.0457,0.1823,172.7943
19:45:03:789,-1.2012,3.3715,8.8702,31.378,0.0669,0.1324,0.1445,172.5552
19:45:03:813,-1.3519,3.3858,9.1478,29.9942,0.062,0.1606,0.1164,172.3108
19:45:03:845,-1.2825,3.3308,9.3153,32.0245,0.0144,0.0481,0.1054,172.1117
19:45:03:849,-1.1246,3.2184,9.4684,30.649,-0.0491,-0.0887,0.098,171.9564
19:45:03:871,-1.0457,3.1035,9.8704,29.9998,-0.098,-0.1449,0.0822,171.8654
19:45:03:891,-1.005,2.9456,10.3729,30.2507,-0.109,-0.1913,0.0736,171.8392
19:45:03:911,-0.6508,2.7494,10.672,31.2584,-0.0613,-0.2609,0.0822,171.8318
19:45:03:929,-0.3876,2.5723,11.0764,29.5102,0.0229,-0.2951,0.0699,171.8431
19:45:03:950,-0.524,2.6034,11.4185,29.7918,0.117,-0.3122,0.0345,171.9025
19:45:03:974,-0.603,2.6728,11.1721,29.8343,0.2135,-0.3171,0.0321,171.9407
19:45:03:990,-0.3852,2.5579,10.3585,28.9064,0.3174,-0.2255,0.0809,171.9516
19:45:04:017,-0.1986,2.6393,9.7603,30.563,0.3882,-0.0154,0.109,171.819
19:45:04:029,-0.0263,2.7661,9.3966,29.4425,0.376,0.1349,0.0907,171.7097
19:45:04:054,0.1675,2.534,9.3248,31.5003,0.2526,0.1214,0.026,171.6569
19:45:04:073,0.4475,1.9238,10.0834,31.5101,0.0083,0.0079,-0.0901,171.824
19:45:04:091,0.6676,0.9141,12.0215,30.5309,-0.6246,-0.6617,-0.3369,172.8383
19:45:04:122,0.5719,0.9643,11.6507,29.907,-0.7809,-0.9304,-0.3137,173.4734
19:45:04:137,0.2441,1.3017,10.1862,31.4737,-0.7064,-0.6665,-0.1182,173.7958
19:45:04:155,0.3135,1.7755,8.5998,29.2492,-0.4755,0.0714,0.2043,173.549
19:45:04:174,0.5791,2.0985,7.4824,30.7392,-0.2446,0.7983,0.4694,172.8624
19:45:04:191,0.5671,2.5866,7.7671,31.6669,-0.0882,1.2613,0.5146,171.9991
19:45:04:208,0.725,2.9073,8.4634,30.5309,0.0119,1.2515,0.3705,171.3085
19:45:04:230,0.7944,2.6824,9.2004,30.7393,0.084,0.7958,0.0822,171.0709
19:45:04:253,0.2417,2.3306,9.1741,32.051,0.1084,0.1092,-0.2746,171.3417
19:45:04:271,-0.2393,1.9454,8.7601,30.8625,0.0962,-0.3892,-0.4896,171.9196
19:45:04:289,-0.5958,1.8449,8.5352,31.6508,0.0804,-0.3807,-0.4762,172.4739
19:45:04:309,-0.7849,2.0148,8.3749,31.5129,0.0681,-0.0618,-0.3137,172.7662
19:45:04:329,-0.4738,2.2899,8.2481,30.8068,0.0486,0.2534,-0.0901,172.7852
19:45:04:351,-0.0622,2.656,8.4036,29.945,0.007,0.4049,0.0614,172.6277
19:45:04:371,0.3637,2.8786,8.6835,31.4029,-0.0504,0.3182,0.1066,172.4621
19:45:04:392,0.5982,2.9216,8.7673,31.2893,-0.0858,0.0616,0.0736,172.3613
19:45:04:410,0.6269,2.8235,8.7099,32.553,-0.0723,-0.1424,-0.0107,172.3956
19:45:04:429,0.7346,2.6584,8.8199,30.9461,-0.0113,-0.1754,-0.0681,172.5289
19:45:04:453,0.7896,2.6297,9.4899,31.1907,0.073,-0.1192,-0.084,172.6592
19:45:04:473,0.7896,2.7422,10.2293,30.9982,0.1671,-0.1766,-0.0889,172.8135
19:45:04:490,1.005,2.924,10.66,31.9138,0.2758,-0.3904,-0.1194,173.0403
19:45:04:509,1.2132,3.1083,10.2389,31.1987,0.4029,-0.6238,-0.1609,173.4119
19:45:04:529,1.2036,3.2973,9.8225,32.6807,0.5312,-0.5444,-0.2184,173.8281
19:45:04:551,0.2847,3.8812,9.4804,31.2893,0.5483,-0.096,-0.4322,174.7184
19:45:04:571,0.3087,3.862,9.4349,31.4472,0.3821,-0.0887,-0.4468,175.1709
19:45:04:589,0.1388,3.8166,9.6096,32.1409,0.1976,-0.041,-0.431,175.5751
19:45:04:610,-0.1938,3.7017,9.9422,31.2705,0.0706,0.0689,-0.4175,175.9261
19:45:04:630,-0.7753,3.7352,10.1504,32.6017,0.0144,0.1129,-0.3955,176.2364
19:45:04:657,-1.6295,3.8381,10.3992,32.7824,0.0523,0.1385,-0.3625,176.4532
19:45:04:670,-2.4718,4.0606,10.2485,34.0393,0.1439,0.1801,-0.3222,176.5811
19:45:04:690,-2.546,4.0798,9.9135,33.6153,0.2111,0.1813,-0.1854,176.5814
19:45:04:708,-1.8329,3.3093,10.0188,32.7824,0.2856,0.1105,-0.0119,176.4335
19:45:04:729,-1.3304,2.2134,10.8132,32.8632,0.3186,-0.1498,-0.0461,176.4388
19:45:04:750,-1.5003,1.7061,11.342,33.2481,0.2966,-0.6287,-0.2404,176.8321
19:45:04:771,-1.9143,1.73,10.7222,34.6003,0.3711,-0.8706,-0.3577,177.3942
19:45:04:790,-2.5316,1.9669,9.3751,34.1469,0.6032,-0.5089,-0.2025,177.6512
19:45:04:809,-2.5555,2.1966,8.3414,36.007,0.789,0.2119,0.1933,177.283
19:45:04:829,-1.9071,2.6393,7.7815,32.8644,0.7352,0.5356,0.5941,176.3386
19:45:04:852,-0.7944,2.9264,7.6666,33.0599,0.475,0.3499,0.7651,175.3056
19:45:04:869,0.0933,2.8929,8.0088,35.6023,0.1598,0.1691,0.6722,174.4584
19:45:04:890,0.1436,2.6991,8.004,35.1101,-0.12,0.1166,0.3717,173.9594
19:45:04:910,-0.3302,2.4,7.803,34.6422,-0.3277,0.2558,0.0199,173.7522
19:45:04:933,-0.9212,2.1272,7.5637,34.6427,-0.4828,0.4648,-0.1927,173.666
19:45:04:953,-1.5434,1.998,7.4632,35.4943,-0.5903,0.6248,-0.1988,173.5052
19:45:04:975,-2.0698,2.4622,7.3795,37.7053,-0.6466,0.8081,-0.0534,173.1329
19:45:05:079,-2.2301,2.9599,7.3747,37.0631,-0.6759,1.0561,0.1946,172.359
19:45:05:098,-1.273,2.7039,7.9801,36.3778,-0.7309,0.9644,0.4572,171.3606
19:45:05:099,-1.2156,2.5842,8.5854,35.852,-0.7553,0.6138,0.3338,169.871
19:45:05:100,-1.5242,2.6369,9.2889,38.4945,-0.7529,0.3279,0.1811,169.4595
19:45:05:101,-1.6989,2.3617,9.3057,36.215,-0.6771,0.1679,0.109,169.1929
19:45:05:103,-1.8018,2.0818,8.9731,37.5693,-0.5146,0.1703,0.1078,168.9164
19:45:05:112,-1.8473,2.0291,8.7482,36.5259,-0.3216,0.2399,0.1445,168.5979
19:45:05:129,-1.9501,2.1176,8.5567,35.2499,-0.1603,0.2619,0.2055,168.1947
19:45:05:148,-1.8161,2.0124,8.5663,36.7074,-0.0846,0.218,0.3069,167.6939
19:45:05:176,-1.6056,1.8233,8.9276,37.2495,-0.1261,0.163,0.4145,167.127
19:45:05:192,-1.2514,1.9334,9.6933,38.7162,-0.28,0.0543,0.4866,166.5059
19:45:05:209,-0.6748,1.7635,10.4231,38.7147,-0.4841,-0.1058,0.4536,165.9892
19:45:05:229,-0.1986,1.6176,10.7821,39.6764,-0.7003,-0.2597,0.2984,165.6702
19:45:05:253,0.3302,1.6917,11.5286,39.0967,-0.9227,-0.2927,0.1457,165.5443
19:45:05:275,1.2012,1.34,12.4977,39.0263,-1.1206,-0.2597,0.0846,165.5021
19:45:05:294,1.5553,0.9404,14.0172,38.6902,-1.2281,-0.1901,-0.0363,165.5576
19:45:05:309,1.2921,0.0263,15.3021,39.693,-1.1291,-0.2731,-0.3405,165.9769
19:45:05:329,0.3781,-0.9069,15.271,39.6436,-0.7663,-0.5041,-0.795,166.9
19:45:05:351,-0.8829,-1.3591,13.5195,38.5952,-0.1945,-0.6617,-1.1664,168.217
19:45:05:370,-1.742,-1.2562,11.4018,38.944,0.3919,-0.4564,-1.1371,169.4247
19:45:05:392,-1.7204,-0.7202,9.8584,41.5736,0.7657,-0.0447,-0.6887,170.1027
19:45:05:408,-0.9763,0.0766,9.2865,41.5833,0.8586,0.1092,-0.1915,170.2075
19:45:05:430,-0.1579,0.481,8.8534,39.7751,0.7682,-0.0325,0.0003,170.1097
19:45:05:455,0.2967,0.4905,8.5639,39.8862,0.58,-0.1583,-0.1548,170.2419
19:45:05:474,-1.0098,0.3661,7.5494,41.5363,0.0828,-0.1705,-0.5873,171.3522
19:45:05:491,-1.2323,0.6341,7.6738,41.2571,-0.0638,-0.1278,-0.5055,171.809
19:45:05:510,-1.2586,0.6987,7.7312,41.6645,-0.12,-0.0936,-0.3662,172.1027
19:45:05:528,-1.151,1.0337,8.004,42.3325,-0.1017,-0.0276,-0.2941,172.3145
19:45:05:550,-0.9141,1.206,7.6331,42.9103,-0.0076,0.0066,-0.244,172.4506
19:45:05:571,-0.5527,1.4094,7.6307,41.6645,0.117,0.1117,-0.1829,172.5093
19:45:05:590,-0.4355,1.7396,7.468,43.1467,0.1537,0.1801,-0.1646,172.553
19:45:05:609,-0.4092,2.0195,7.8078,43.7773,0.0645,0.2119,-0.1842,172.6266
19:45:05:628,-0.3374,1.9741,8.2409,44.205,-0.0968,0.2229,-0.2171,172.719
19:45:05:650,-0.3159,1.7324,8.7673,42.9103,-0.2385,0.1935,-0.2721,172.8738
19:45:05:670,-0.5695,1.663,9.5019,43.297,-0.3314,0.1312,-0.3234,173.083
19:45:05:689,-0.95,1.7085,10.337,44.3562,-0.3643,0.0677,-0.3088,173.3047
19:45:05:710,-1.3304,1.9119,10.9878,43.8819,-0.3118,-0.0031,-0.2025,173.4025
19:45:05:729,-1.4716,2.3115,11.2917,43.8972,-0.1603,0.0127,-0.0229,173.3057
19:45:05:756,-0.9619,2.6178,11.2487,43.2028,0.0181,0.0982,0.1872,172.9618
19:45:05:771,-0.201,2.613,11.4879,45.8671,0.1268,0.1544,0.3448,172.4615
19:45:05:790,-0.0048,2.5914,11.6124,43.297,0.1463,0.1239,0.3204,171.9739
19:45:05:808,-0.5121,2.5484,11.5334,45.2118,0.1414,0.1654,0.164,171.6813
19:45:05:829,-1.6176,2.2277,11.1912,45.0183,0.15,0.2937,-0.0034,171.5245
19:45:05:851,-2.68,2.0459,10.7246,45.5056,0.1512,0.3401,-0.1048,171.4265
19:45:05:873,-3.1968,2.0124,10.6265,45.9987,0.1475,0.3304,-0.084,171.3338
19:45:05:890,-3.2758,1.8592,10.6744,46.4205,0.1219,0.2534,0.0174,171.1135
19:45:05:908,-2.8259,1.3543,10.9424,46.3234,0.0926,0.1178,0.1249,170.8236
19:45:05:929,-2.1894,0.4044,11.208,47.1045,0.0865,-0.4051,0.1591,170.5497
19:45:05:954,-2.3019,0.5743,10.7414,48.7129,0.2025,-0.2964,0.2507,170.083
19:45:05:968,-2.1248,0.6963,9.99,48.0839,0.365,-0.0251,0.4401,169.4772
19:45:05:989,-1.6295,0.7849,9.3559,46.0301,0.4725,0.0775,0.5647,168.7318
19:45:06:008,-1.1414,0.9141,8.9348,46.6897,0.475,0.0091,0.5904,167.985
19:45:06:028,-0.7609,0.9165,8.4993,48.452,0.4066,-0.0728,0.5354,167.3145
19:45:06:050,-0.6867,0.9093,8.0758,47.7652,0.31,-0.0508,0.4108,166.7822
19:45:06:068,-0.9404,0.8973,7.6163,47.3764,0.2135,0.0555,0.2703,166.3682
19:45:06:089,-1.2706,0.9069,7.2479,47.8597,0.1219,0.1496,0.1762,166.0452
19:45:06:108,-1.4189,1.0026,7.2215,49.0321,0.0205,0.1813,0.1567,165.7301
19:45:06:128,-1.4668,1.2945,7.4967,50.4141,-0.0919,0.1178,0.2055,165.3749
19:45:06:150,-1.2562,1.4189,7.7934,49.1305,-0.1652,0.0469,0.285,164.9487
19:45:06:170,-0.9834,1.7085,8.1236,49.5891,-0.175,0.0225,0.3485,164.4619
19:45:06:188,-0.9978,2.0865,8.4538,50.1067,-0.1322,0.0188,0.3595,163.967
19:45:06:208,-0.9954,2.1559,8.4299,48.7355,-0.0479,0.0274,0.3302,163.5127
19:45:06:227,-0.9691,2.0459,8.2026,49.1544,0.0755,0.0372,0.2654,163.1409
19:45:06:248,-1.0863,2.1727,8.138,49.5785,0.1402,-0.0264,0.1799,162.8552
19:45:06:288,-1.0983,2.2493,8.3844,49.7615,0.0975,-0.1876,0.1261,162.6527
19:45:06:289,-0.9811,2.144,8.8152,49.6454,0.0156,-0.3232,0.0944,162.5246
19:45:06:307,-0.8662,2.0674,9.4636,52.8774,-0.0479,-0.3892,0.0369,162.4756
19:45:06:327,-0.7346,1.9813,10.1815,52.0895,-0.109,-0.4271,-0.0486,162.5192
19:45:06:349,-0.6676,1.8927,11.1123,52.338,-0.1774,-0.4857,-0.1438,162.6895
19:45:06:368,-0.4331,1.4668,11.7607,53.2243,-0.2238,-0.5517,-0.2452,162.994
19:45:06:389,-0.3613,1.1031,11.7966,52.8505,-0.1982,-0.5432,-0.4151,163.4727
19:45:06:408,-0.0766,0.8542,11.4975,51.8326,-0.186,-0.333,-0.3466,164.0512
19:45:06:428,0.3159,0.5623,11.9282,51.3068,-0.3032,-0.2903,-0.2905,164.823
19:45:06:450,0.8136,0.2536,13.1342,53.5987,-0.5354,-0.5908,-0.3577,165.2604
19:45:06:471,0.9619,-0.1005,14.4359,54.2352,-0.693,-0.9891,-0.5177,165.9629
19:45:06:489,0.8495,-0.4618,14.7326,52.8423,-0.5561,-1.0856,-0.6154,166.7772
19:45:06:509,0.3446,-0.6939,13.3089,55.2977,-0.065,-0.8058,-0.5067,167.3922
19:45:06:529,0.1149,-0.5551,11.2223,53.7508,0.5825,-0.2585,-0.1866,167.548
19:45:06:554,0.6413,-0.2393,9.0879,55.4462,1.0431,0.174,0.1738,167.2529
19:45:06:576,1.3472,0.2034,7.3866,54.8763,1.1115,0.3548,0.3778,166.728
19:45:06:593,1.8281,0.5767,6.4893,55.7735,0.8146,0.389,0.379,166.2097
19:45:06:608,1.7635,0.8973,6.4199,56.1593,0.3186,0.3572,0.219,165.8444
19:45:06:628,1.2993,1.072,6.9105,55.9446,-0.1371,0.3096,0.0015,165.7229
19:45:06:648,0.7059,1.2132,7.5039,54.7788,-0.3607,0.2681,-0.1719,165.7985
19:45:06:671,0.2895,1.3974,7.5709,53.7036,-0.3179,0.2339,-0.255,165.96
19:45:06:689,0.1029,1.5314,7.3029,56.4423,-0.1029,0.2424,-0.2465,166.1121
19:45:06:709,0.134,1.8161,6.944,57.1584,0.1048,0.2057,-0.1927,166.2225
19:45:06:728,0.3733,2.1176,6.7956,55.5618,0.1781,0.1141,-0.1475,166.3146
19:45:06:750,0.6078,2.4742,7.0851,55.8364,0.0938,0.0103,-0.1548,166.4248
19:45:06:772,0.7298,2.656,7.7815,56.0914,-0.0846,-0.0422,-0.2245,166.6409
19:45:06:790,0.7418,2.79,8.7769,56.0676,-0.2641,-0.0484,-0.3381,166.9771
19:45:06:809,0.6389,2.6201,9.6479,58.2981,-0.3631,-0.0264,-0.4578,167.4489
19:45:06:828,0.2441,2.5986,10.4614,58.03,-0.3827,-0.008,-0.5397,167.9939
19:45:06:849,-0.5767,2.9551,11.61,58.03,-0.3423,-0.0557,-0.5421,168.5495
19:45:06:876,-0.5647,3.0628,11.7153,57.4048,-0.0015,0.0506,-0.2526,169.2407
19:45:06:892,-0.0742,3.0604,11.7559,57.8576,0.1891,0.1288,-0.0583,169.2318
19:45:06:907,0.1101,3.3811,12.2441,58.7618,0.3015,0.0188,0.0272,169.1609
19:45:06:928,0.3757,3.2925,12.4929,58.896,0.3907,-0.2499,-0.0376,169.2026
19:45:06:947,0.4762,2.7948,12.1244,59.4957,0.5483,-0.4454,-0.211,169.4891
19:45:06:970,-0.4546,2.7063,11.1482,57.0354,0.7547,-0.4552,-0.4187,169.9883
19:45:06:989,-1.73,2.8211,10.4351,57.6201,0.8439,-0.3513,-0.4933,170.5291
19:45:07:011,-1.8736,2.6154,10.3442,59.2414,0.6985,-0.3794,-0.3919,170.9757
19:45:07:028,-1.084,1.8616,10.8538,60.6148,0.4286,-0.5786,-0.2184,171.2998
19:45:07:052,-0.4116,1.3089,11.4808,60.7284,0.2086,-0.8718,-0.1109,171.6191
19:45:07:071,-0.5575,1.4788,11.129,61.6385,0.1891,-0.906,-0.0632,171.8802
19:45:07:093,-0.9212,1.4022,9.7555,59.9007,0.4066,-0.3721,0.0785,171.7997
19:45:07:208,-0.8782,1.2491,8.0853,59.667,0.6216,0.2302,0.274,171.3748
19:45:07:209,-0.8853,1.5577,7.334,60.6185,0.5434,0.3805,0.3644,170.8103
19:45:07:210,-0.3972,1.5912,7.7073,61.844,0.1585,0.1153,0.3387,170.3728
19:45:07:211,0.2082,1.2108,8.6501,60.4788,-0.2678,-0.239,0.2349,170.1405
19:45:07:212,0.2704,0.7705,9.2339,61.6011,-0.4804,-0.3379,0.0565,170.1505
19:45:07:213,-0.1938,0.5025,8.9707,61.2616,-0.4511,-0.14,-0.1072,170.2774
19:45:07:234,-0.9452,0.5862,8.5161,61.9729,-0.3277,0.1642,-0.1573,170.3658
19:45:07:257,-1.139,0.5934,7.8939,61.0986,-0.2189,0.3585,-0.051,170.2933
19:45:07:275,-0.9476,0.8471,7.2742,60.7451,-0.1285,0.4269,0.175,169.9781
19:45:07:289,-0.3254,1.3376,6.877,61.1812,-0.0626,0.4709,0.4303,169.3794
19:45:07:308,0.0933,2.5723,6.6879,60.4788,-0.1261,0.4794,0.6503,168.5833
19:45:07:329,0.2153,2.9647,6.9894,62.4441,-0.2324,0.4208,0.5733,167.0247
19:45:07:351,0.4235,3.1466,7.5254,61.4657,-0.3582,0.2925,0.3668,166.5607
19:45:07:371,0.1531,3.1657,8.2385,62.5213,-0.4718,0.1007,0.0589,166.4794
19:45:07:389,-0.347,3.192,9.1023,63.2137,-0.5317,-0.0899,-0.2208,166.7184
19:45:07:409,-0.8662,3.1561,9.9039,63.6044,-0.5232,-0.2536,-0.3552,167.1346
19:45:07:428,-1.2084,3.1011,10.7318,61.9934,-0.4523,-0.3965,-0.3625,167.5917
19:45:07:447,-0.9906,2.7876,11.5813,63.6044,-0.3277,-0.5138,-0.3076,168.0168
19:45:07:470,-0.6915,2.4909,12.055,62.7492,-0.1603,-0.5664,-0.2538,168.3923
19:45:07:488,-0.0838,1.998,12.3446,63.5785,0.0083,-0.5615,-0.2171,168.7347
19:45:07:508,0.658,1.3137,12.6844,61.8516,0.1133,-0.6091,-0.211,169.0977
19:45:07:528,1.0433,1.0959,12.8016,62.5025,0.1585,-0.6873,-0.2245,169.5031
19:45:07:548,1.4309,1.0792,12.4857,64.778,0.1573,-0.6397,-0.1732,169.8513
19:45:07:573,2.2851,0.8183,11.9928,62.738,0.0901,-0.4418,-0.04,170.0136
19:45:07:589,3.1514,0.2273,11.4688,62.738,-0.0528,-0.1852,0.0321,170.0765
19:45:07:607,2.5986,-0.1412,11.9378,62.738,-0.2519,-0.0447,-0.0632,170.2029
19:45:07:628,1.5242,0.0814,12.3996,62.738,-0.3814,-0.1632,-0.2147,170.4947
19:45:07:648,1.8425,-0.2441,11.4281,62.7351,-0.197,-0.1033,-0.1304,170.6873
19:45:07:676,2.1535,-0.2847,9.9135,63.0492,0.1989,0.2693,0.1115,170.5402
19:45:07:690,2.6417,0.0909,8.4371,63.7131,0.4701,0.5222,0.3057,170.1499
19:45:07:707,3.1753,0.3206,7.2455,62.8582,0.4359,0.4745,0.3534,169.7095
19:45:07:729,3.0054,0.5934,6.932,63.3169,0.1011,0.2778,0.1787,169.5142
19:45:07:753,2.1105,0.8112,7.4034,62.8582,-0.3656,0.0689,-0.1426,169.6956
19:45:07:774,0.7298,0.7083,8.0542,63.7884,-0.7223,0.0323,-0.4664,170.6676
19:45:07:791,0.4475,1.0385,7.6235,63.7885,-0.5134,0.2082,-0.3564,171.0222
19:45:07:807,0.4714,1.3735,6.932,62.6238,-0.2666,0.3414,-0.2025,171.187
19:45:07:828,0.682,1.7492,6.5707,65.0255,-0.1408,0.3756,-0.0913,171.2382
19:45:07:850,1.0122,2.1176,6.5587,63.1279,-0.1799,0.2803,-0.0718,171.2903
19:45:07:874,1.4788,2.1894,7.054,63.0836,-0.3179,0.1434,-0.1634,171.4604
19:45:07:888,1.7085,2.1057,8.1356,64.2941,-0.4841,0.0201,-0.3699,171.8827
19:45:07:908,1.4381,1.9167,9.4588,62.805,-0.6136,-0.1082,-0.6252,172.5917
19:45:07:930,1.0863,1.5793,10.7988,64.0875,-0.6368,-0.2035,-0.7999,173.5013
19:45:07:946,0.9045,1.3113,11.7129,64.6721,-0.528,-0.3013,-0.839,174.4517
19:45:07:969,0.6102,1.3352,12.1508,62.6089,-0.3155,-0.3306,-0.7804,175.342
19:45:07:990,0.1196,1.6582,12.0455,65.0039,-0.0858,-0.2206,-0.6386,176.0493
19:45:08:011,0.0168,1.9358,11.6889,63.621,0.0962,0.0298,-0.3809,176.4376
19:45:08:029,0.3254,1.9789,11.5406,64.0976,0.2001,0.2803,-0.062,176.4784
19:45:08:047,0.4953,2.1535,11.5119,63.297,0.2453,0.3658,0.142,176.2823
19:45:08:067,0.1555,2.0961,11.1912,65.5542,0.3088,0.334,0.1677,176.055
19:45:08:089,-0.3781,1.8736,10.8036,62.3558,0.3858,0.2656,0.1054,175.8953
19:45:08:108,-1.1414,1.8185,10.6935,62.3558,0.3846,0.1532,0.0284,175.8126
19:45:08:127,-2.0842,1.8808,10.806,64.5963,0.2832,0.1129,-0.007,175.7576
19:45:08:149,-2.4742,1.6176,11.476,60.8095,0.0975,0.1886,0.0516,175.6293
19:45:08:173,-1.2467,0.3254,13.0624,62.9264,-0.1579,0.0066,0.1677,175.4198
19:45:08:187,-0.3757,-0.2776,14.3785,62.187,-0.3362,-0.5444,0.2227,175.215
19:45:08:207,-0.5647,-0.067,14.278,62.3161,-0.1884,-0.7435,0.2825,174.9802
19:45:08:228,-0.9452,-0.0215,10.0427,60.1537,0.8207,0.1838,0.7285,174.4291
19:45:08:246,-0.4164,0.256,8.2217,62.9329,1.015,0.2057,0.8518,173.5905
19:45:08:271,0.2704,0.5312,7.3053,62.5138,0.8598,0.0872,0.8946,171.6238
19:45:08:287,0.8901,0.7657,7.1833,61.2143,0.4957,0.0042,0.8408,170.7094
19:45:08:306,1.139,0.7825,7.6331,60.6846,0.1158,-0.0202,0.6564,169.9941
19:45:08:328,0.9547,0.6341,8.1093,62.7915,-0.1212,-0.0288,0.3692,169.6111
19:45:08:346,0.3565,0.5192,8.461,61.7793,-0.1738,-0.0593,0.076,169.5248
19:45:08:373,-0.1053,0.5216,8.5232,61.2448,-0.0919,-0.1094,-0.0864,169.6094
19:45:08:390,-0.201,0.5743,8.1356,60.0394,0.0755,-0.1204,-0.0693,169.6807
19:45:08:411,-0.2489,1.084,7.7049,60.3502,0.2453,-0.0545,0.0235,169.6418
19:45:08:426,-0.0766,1.608,7.2239,60.7371,0.3137,0.0091,0.0919,169.5084
19:45:08:445,0.1101,1.9741,7.1593,59.9103,0.238,0.1056,0.0748,169.3967
19:45:08:467,0.268,1.9214,7.6283,60.1008,0.0278,0.1434,-0.0534,169.3883
19:45:08:490,-0.0814,1.7874,8.5831,59.9874,-0.2116,0.119,-0.2294,169.5814
19:45:08:506,-0.6317,1.6917,9.7268,60.7518,-0.3705,0.0775,-0.3625,169.9172
19:45:08:525,-0.7346,1.4022,10.1934,60.7134,-0.3656,0.0921,-0.3809,170.2674
19:45:08:546,-0.9906,1.3185,10.3298,60.5725,-0.2361,0.1654,-0.31,170.5281
19:45:08:568,-0.9547,1.3232,10.1695,60.5725,-0.0553,0.1935,-0.1512,170.6339
19:45:08:587,-0.8519,1.5051,10.2652,58.924,0.0877,0.1447,0.0321,170.5497
19:45:08:606,-0.2536,1.4812,10.4351,58.0336,0.15,-0.0105,0.1604,170.332
19:45:08:626,0.2489,1.3065,10.8227,59.3352,0.1659,-0.1827,0.1774,170.136
19:45:08:647,0.4498,1.261,11.0022,57.7126,0.1634,-0.2377,0.1384,169.9993
19:45:08:670,0.725,1.4955,10.3777,60.0474,0.227,0.0311,0.2862,169.824
19:45:08:690,1.0241,1.5362,9.8584,58.8518,0.2844,0.1569,0.4206,169.5145
19:45:08:709,0.9093,1.7444,9.7507,57.521,0.3051,0.1935,0.4658,169.0091
19:45:08:727,1.1868,1.584,9.8249,58.1067,0.2428,0.0811,0.4218,167.9553
19:45:08:747,1.7228,0.9978,10.5284,57.4447,0.1146,-0.1498,0.2923,167.6549
19:45:08:770,1.7946,0.6796,11.2774,58.5428,-0.0149,-0.3868,0.087,167.6449
19:45:08:790,1.718,0.7059,11.5214,58.5616,-0.054,-0.3782,-0.0217,167.7332
19:45:08:807,1.8855,0.7011,11.4855,56.3298,-0.0418,-0.1375,0.0272,167.7257
19:45:08:827,2.211,0.8255,11.2726,59.04,-0.0797,-0.0031,0.0724,167.6483
19:45:08:846,2.5053,0.8471,10.995,55.8464,-0.1799,0.0372,-0.0022,167.6302
19:45:08:873,2.4191,0.6628,10.5643,58.9451,-0.2996,0.1361,-0.1573,167.7544
19:45:08:889,1.7707,0.6461,10.0259,57.5841,-0.3753,0.3047,-0.2978,168.0021
19:45:08:907,0.993,0.8447,9.4636,57.6641,-0.346,0.4684,-0.3259,168.2435
19:45:08:927,0.5288,1.1007,8.5424,56.6916,-0.2043,0.5527,-0.2562,168.3831
19:45:08:947,0.2608,1.2778,7.7169,56.1879,-0.0015,0.604,-0.1377,168.3962
19:45:08:970,0.2895,1.4883,6.9727,56.8281,0.1879,0.5894,-0.0278,168.2892
19:45:08:988,0.4475,1.7348,6.2836,58.4341,0.3125,0.5429,0.0431,168.1125
19:45:09:009,0.4116,2.2732,6.2668,58.4916,0.3284,0.5246,0.0699,167.9012
19:45:09:028,0.6102,2.6608,6.6353,57.8449,0.2526,0.4428,0.0528,167.7101
19:45:09:050,0.7489,2.9695,7.2766,58.6227,0.15,0.2815,-0.0315,167.6483
19:45:09:075,0.8662,3.0389,7.9035,57.1594,0.0779,0.1007,-0.1964,168.1863
19:45:09:091,0.1268,3.0173,9.1693,57.5983,0.0461,-0.0471,-0.5544,168.7697
19:45:09:110,-0.3517,3.0269,9.7579,58.0895,0.0095,-0.0593,-0.6399,169.4196
19:45:09:129,-1.084,3.0963,10.4638,58.0751,-0.0528,0.0298,-0.6533,170.1034
19:45:09:146,-1.7157,3.1824,11.1864,57.7633,-0.1029,0.1654,-0.5886,170.6309
19:45:09:166,-1.8664,3.1633,12.2895,58.8922,-0.1102,0.218,-0.4261,170.9732
19:45:09:188,-1.5242,3.0365,12.9954,55.9905,-0.0235,0.1459,-0.2294,171.1117
19:45:09:206,-1.0002,2.9145,12.9069,57.8149,0.2123,0.141,-0.0412,171.0768
19:45:09:336,-0.6604,3.0102,12.3326,57.4555,0.4823,0.2033,0.1017,170.851
19:45:09:338,-0.9476,3.3547,11.5597,59.4423,0.6216,0.1911,0.1445,170.5753
19:45:09:341,-1.1031,3.2686,11.0237,58.9046,0.6057,0.1862,0.1408,170.2962
19:45:09:343,-1.0361,2.7326,11.0668,57.9192,0.4872,0.108,0.1066,170.0776
19:45:09:344,-0.9715,1.8736,11.5502,58.7177,0.3528,-0.1742,0.0125,170.0522
19:45:09:345,-1.5529,1.5123,11.6196,57.1197,0.3039,-0.4857,-0.1145,170.2368
19:45:09:345,-2.1751,1.1629,10.6385,58.5772,0.4334,-0.4442,-0.139,170.4324
19:45:09:366,-2.6752,0.9811,9.3679,60.514,0.6472,-0.1168,0.0027,170.3773
19:45:09:387,-2.6034,1.3089,8.3031,59.2878,0.7034,0.0665,0.2031,170.0591
19:45:09:407,-1.9884,1.6152,8.1954,61.2037,0.4982,-0.03,0.3412,169.6196
19:45:09:427,-1.3495,1.7157,8.7314,57.9761,0.1647,-0.1901,0.3424,169.2525
19:45:09:447,-1.0146,1.675,9.2531,61.3298,-0.0369,-0.1803,0.2617,168.9727
19:45:09:467,-0.9571,1.742,9.076,60.1517,-0.0137,-0.0068,0.1604,168.7521
19:45:09:486,-0.993,1.8521,8.5496,59.1211,0.1304,0.2143,0.0907,168.5137
19:45:09:507,-1.0816,2.0243,7.9418,61.0437,0.2563,0.3609,0.0577,168.2711
19:45:09:526,-1.1629,2.1488,7.4249,59.7884,0.3333,0.3365,0.0418,168.0523
19:45:09:547,-1.1294,2.2851,7.1857,61.106,0.3956,0.2021,0.0528,167.8749
19:45:09:566,-0.9452,2.5962,7.2742,62.1628,0.4383,0.0213,0.0846,167.7103
19:45:09:588,-0.28,2.7494,7.0158,60.1523,0.5605,-0.1571,0.0321,167.6236
19:45:09:607,-0.7011,2.8283,6.9655,62.1607,0.5972,-0.1571,-0.1194,167.7443
19:45:09:627,-0.9236,2.9599,7.2933,61.1328,0.5251,-0.2622,-0.2318,168.013
19:45:09:647,-1.0433,3.0054,7.8437,60.8695,0.3711,-0.3697,-0.2648,168.3646
19:45:09:673,-1.1342,3.0485,8.6285,61.9673,0.1976,-0.3526,-0.2562,168.7097
19:45:09:693,-1.1127,3.137,9.265,62.4019,0.0535,-0.2304,-0.1903,168.9242
19:45:09:711,-0.7777,3.1657,9.8967,61.1491,-0.0504,-0.0655,-0.0901,168.9991
19:45:09:726,-0.4451,3.1729,10.5452,63.0799,-0.1676,-0.0068,-0.0107,168.959
19:45:09:746,0.1842,2.9886,11.3109,62.9013,-0.2947,-0.0642,0.0541,168.8842
19:45:09:767,0.3613,2.9193,11.9139,63.2025,-0.3985,-0.1314,0.0675,168.813
19:45:09:787,0.3374,2.857,12.0383,62.9022,-0.4389,-0.0923,0.0504,168.7598
19:45:09:807,0.6389,2.534,11.8899,62.6719,-0.4095,0.0103,0.0907,168.6342
19:45:09:827,1.2443,2.1081,12.1555,62.85,-0.3937,0.0311,0.142,168.4562
19:45:09:846,1.8185,1.7755,12.5647,64.5693,-0.4633,-0.1754,0.1151,168.3823
19:45:09:867,1.9813,1.7133,12.2273,65.3455,-0.5158,-0.3037,0.0504,168.4148
19:45:09:888,2.0387,1.4812,11.4209,63.2416,-0.4181,-0.0716,0.0589,168.3622
19:45:09:915,1.8473,1.6008,10.9017,65.8109,-0.2568,0.2241,0.1335,168.1379
19:45:09:926,2.2995,1.8018,10.4088,64.8457,-0.1432,0.2326,0.1848,167.8687
19:45:09:947,2.881,1.7085,9.8608,66.6442,-0.109,0.0042,0.109,167.7518
19:45:09:975,2.6943,1.6176,9.1478,65.67,-0.1591,-0.1021,-0.1096,167.8873
19:45:09:991,1.8353,1.718,9.1167,64.6658,-0.2373,0.003,-0.3247,168.2103
19:45:10:011,0.8806,1.8018,8.3629,65.9468,-0.197,0.0934,-0.3955,168.574
19:45:10:025,0.5815,1.8257,7.2933,65.5985,0.0449,0.1862,-0.31,168.8077
19:45:10:046,0.536,2.6034,5.9629,66.4553,0.5018,0.2644,-0.1915,169.0395
19:45:10:067,0.5073,2.9695,5.9916,65.7547,0.4395,0.1544,-0.2428,169.1898
19:45:10:092,0.4475,3.1537,6.2812,65.4379,0.1976,-0.0141,-0.3149,169.4899
19:45:10:108,0.3517,3.0676,7.054,66.9048,-0.1127,-0.1143,-0.3857,169.8826
19:45:10:125,0.2106,3.1059,8.1978,67.6926,-0.3863,-0.1033,-0.4444,170.3391
19:45:10:145,-0.0742,3.2399,9.2052,67.6461,-0.5488,-0.0569,-0.47,170.8105
19:45:10:169,-0.0239,3.0054,9.856,67.8065,-0.5464,0.0225,-0.4212,171.2289
19:45:10:188,0.0598,2.9432,10.3179,66.4233,-0.4046,0.0872,-0.3589,171.5782
19:45:10:205,-0.2321,3.1777,10.4734,67.2602,-0.197,0.1385,-0.3186,171.83
19:45:10:226,-0.8973,3.6036,10.4231,67.1487,0.0046,0.2167,-0.2819,171.9976
19:45:10:246,-1.2849,3.9242,10.3992,67.6641,0.1659,0.345,-0.1829,172.0358
19:45:10:265,-1.0313,3.9434,10.6241,66.2557,0.2612,0.4257,-0.029,171.8939
19:45:10:287,-0.5958,3.9266,10.7318,67.8815,0.2758,0.3157,0.076,171.6802
19:45:10:307,-0.5168,3.8548,10.9974,67.4416,0.2697,0.1703,0.098,171.4697
19:45:10:325,-0.8877,3.4409,10.8921,68.1339,0.3088,0.097,0.0467,171.3425
19:45:10:345,-1.8114,3.2614,10.6026,69.7222,0.3711,0.1312,-0.051,171.2997
19:45:10:364,-2.7924,3.326,10.1097,68.3098,0.3858,0.2314,-0.0596,171.2128
19:45:10:386,-2.9839,3.3117,10.0235,70.3064,0.3345,0.3805,0.1103,170.8976
19:45:10:405,-2.1535,3.0341,10.1647,68.6109,0.2221,0.356,0.3412,170.3658
19:45:10:426,-0.9476,2.3904,10.1192,69.4262,0.1231,0.0103,0.489,169.8151
19:45:10:445,-0.7585,2.5531,9.7292,68.9035,0.0938,-0.3184,0.4694,169.4015
19:45:10:465,-0.8136,2.5268,9.0401,68.5012,0.1256,-0.2426,0.3876,169.0449
19:45:10:487,-0.9404,2.1368,8.8008,68.5261,0.1427,0.0653,0.2886,168.4258
19:45:10:507,-1.3065,1.5745,8.5376,69.1724,-0.0479,0.0421,0.0541,168.3527
19:45:10:527,-1.0528,1.3519,8.3701,69.6638,-0.2031,-0.0227,0.0162,168.298
19:45:10:555,-0.8782,1.1773,8.0064,70.4485,-0.3411,0.0555,-0.0022,168.2445
19:45:10:565,-1.005,0.9284,7.6546,70.1466,-0.4254,0.2668,-0.0351,168.1517
19:45:10:584,-1.5625,1.1103,7.8413,67.7105,-0.4853,0.3939,-0.0596,168.0329
19:45:10:605,-1.8114,1.4572,7.8078,68.6286,-0.511,0.2766,0.0345,167.8546
19:45:10:625,-1.3735,1.7396,7.7719,68.7013,-0.4511,0.119,0.23,167.5287
19:45:10:645,-0.9404,2.1727,8.0877,71.6466,-0.3484,0.0543,0.3619,167.0804
19:45:10:666,-0.658,2.7613,8.3701,68.3641,-0.2581,-0.0129,0.3851,166.6339
19:45:10:688,-0.5671,3.1633,8.3797,70.7657,-0.1884,-0.0813,0.3534,166.2371
19:45:10:707,-0.3829,3.1322,8.6381,70.1523,-0.1273,-0.0691,0.2886,165.9125
19:45:10:726,-0.5384,3.0389,9.1238,70.0732,-0.0785,-0.0948,0.1774,165.7084
19:45:10:746,-0.737,3.0867,9.6168,70.9211,-0.0211,-0.184,0.0883,165.6205
19:45:10:767,-0.993,3.003,9.5952,69.8399,0.0816,-0.2402,0.0589,165.5854
19:45:10:788,-1.3735,2.9695,9.3464,70.9278,0.227,-0.173,0.0492,165.531
19:45:10:805,-1.6726,3.2447,8.8271,70.0079,0.3528,-0.019,0.087,165.3859
19:45:10:825,-1.1533,3.1466,8.7051,70.4017,0.3662,0.1459,0.1848,165.0933
19:45:10:846,-0.2369,2.8714,9.1573,70.653,0.1866,0.174,0.2459,164.7458
19:45:10:868,0.1196,2.8905,9.8345,69.7981,-0.1896,0.0323,0.2043,164.4868
19:45:10:887,0.1244,2.4622,10.8897,70.0441,-0.561,-0.0862,0.1481,164.3291
19:45:10:907,0.1747,2.1464,11.6387,67.9432,-0.7125,-0.1705,0.098,164.2415
19:45:10:926,0.0479,1.9525,11.7392,69.3571,-0.6307,-0.1632,0.0773,164.1823
19:45:10:947,0.6293,1.8185,11.531,69.7704,-0.4254,-0.052,0.1286,163.8817
19:45:10:971,2.7039,1.0816,11.8469,69.9556,-0.2214,-0.2976,0.0137,164.0001
19:45:10:991,1.9501,1.2969,11.7392,67.846,-0.3228,-0.6665,-0.2599,164.4402
19:45:11:007,1.5649,1.0816,10.9448,70.8783,-0.3521,-0.6299,-0.3601,164.963
19:45:11:025,1.6391,0.8662,10.2341,68.9311,-0.1982,-0.1265,-0.266,165.274
19:45:11:046,1.6654,1.2634,9.5091,69.5353,0.0119,0.3609,-0.2318,165.4384
19:45:11:065,1.8616,1.4213,8.7984,69.0529,0.1598,0.5295,-0.3137,165.6507
19:45:11:088,1.7803,1.3424,8.7434,68.2639,0.1512,0.4037,-0.5287,166.1248
19:45:11:105,1.2203,1.1844,8.9324,68.4444,-0.0345,0.0262,-0.8085,166.9851
19:45:11:126,0.5432,0.792,8.8343,69.4761,-0.3008,-0.344,-0.9795,168.0881
19:45:11:145,0.055,0.6174,8.9372,69.3101,-0.4914,-0.2951,-0.9758,169.1787
19:45:11:165,-0.1101,0.7681,8.6501,68.438,-0.5219,0.1178,-0.8268,170.0089
19:45:11:187,-0.2489,1.1414,8.7338,68.5512,-0.4328,0.582,-0.635,170.5494
19:45:11:206,-0.2895,1.5793,8.8199,67.5145,-0.2898,0.6944,-0.5055,170.9324
19:45:11:225,-0.1268,1.8305,8.193,67.7549,-0.1212,0.4696,-0.4566,171.3059
19:45:11:245,0.0383,2.0674,7.7982,66.9313,0.0315,0.3279,-0.4627,171.7249
19:45:11:265,-0.0191,2.2493,7.9202,66.9922,0.1133,0.3328,-0.4981,172.1719
19:45:11:290,-0.2752,2.3234,8.3438,66.2242,0.1072,0.284,-0.5397,172.6782
19:45:11:309,-0.4475,2.388,8.7673,68.5846,0.0254,0.1166,-0.5629,173.2391
19:45:11:325,-0.5097,2.266,8.8534,67.9443,-0.0809,-0.052,-0.5323,173.7814
19:45:11:407,-0.457,1.9956,9.052,67.1246,-0.1738,-0.0398,-0.4603,174.2379
19:45:11:407,-0.9045,2.3617,11.0907,66.5554,-0.0577,0.356,-0.431,174.584
19:45:11:408,-1.4644,2.8451,11.1793,67.1124,0.1708,0.4916,-0.4151,174.8851
19:45:11:408,-0.67,2.3617,11.4664,66.6294,0.1427,0.0396,-0.3247,175.1771
19:45:11:432,-0.4929,2.0722,12.4283,63.0884,-0.1517,-0.3636,-0.4212,176.1116
19:45:11:445,-1.2873,2.0124,13.2227,65.6835,-0.065,0.0616,-0.5116,176.631
19:45:11:465,-1.6798,2.1105,12.5384,64.1192,0.139,0.2986,-0.5323,177.1238
19:45:11:484,-1.2945,1.6439,12.457,63.359,0.3271,0.3487,-0.4762,177.5612
19:45:11:503,-1.0624,0.615,13.1821,62.5953,0.3711,-0.0031,-0.5568,178.1537
19:45:11:524,-2.266,0.1388,13.0289,64.1192,0.2832,-0.785,-0.8182,179.1525
19:45:11:544,-3.2973,0.3972,11.3922,62.985,0.2673,-1.1674,-0.8683,180.2375
19:45:11:564,-3.3571,0.3709,9.0688,61.2871,0.4847,-0.57,-0.4627,180.769
19:45:11:586,-2.735,0.7155,7.8102,63.3239,0.745,0.4354,0.0467,180.556
19:45:11:604,-2.1966,1.5099,7.9944,62.012,0.8146,0.8679,0.2752,180.0107
19:45:11:624,-1.6582,2.1272,8.4658,61.6256,0.668,0.4648,0.208,179.6278
19:45:11:644,-1.151,1.6965,8.5448,62.7936,0.4004,-0.3807,-0.0876,179.7837
19:45:11:664,-1.1797,1.005,8.284,61.4436,0.139,-0.9622,-0.4762,180.4842
19:45:11:684,-2.0291,0.7825,8.071,61.632,-0.0149,-0.8645,-0.7132,181.4071
19:45:11:704,-2.6297,0.8279,7.7791,58.7972,-0.0235,-0.3501,-0.6606,182.1473
19:45:11:734,-2.6297,0.9978,7.3555,61.4675,0.0571,0.108,-0.4248,182.5153
19:45:11:744,-2.1559,1.4357,7.0445,60.369,0.1366,0.312,-0.1842,182.5808
19:45:11:764,-1.876,2.0363,6.8961,59.7458,0.1573,0.3242,-0.0473,182.4825
19:45:11:786,-1.8018,2.2947,6.9248,60.3609,0.1329,0.2546,-0.0217,182.3878
19:45:11:804,-1.8305,2.4909,7.1019,59.9621,0.0901,0.1068,-0.0693,182.3735
19:45:11:824,-1.864,2.601,7.4441,60.6439,0.0486,-0.0801,-0.1096,182.4447
19:45:11:844,-1.6582,2.5268,7.8174,58.7295,0.0242,-0.1962,-0.0889,182.536
19:45:11:864,-1.2419,2.5747,8.1978,57.788,0.0327,-0.2292,-0.0168,182.5638
19:45:11:897,-1.048,2.8355,8.8439,58.7286,0.1158,-0.0557,0.0712,182.521
19:45:11:905,-1.1701,2.8881,9.4182,57.6543,0.1683,0.0335,0.0699,182.3269
19:45:11:924,-0.9834,2.6656,10.069,57.1249,0.2013,0.0384,0.0418,182.2318
19:45:11:945,-0.6221,2.2516,11.0668,56.7073,0.1634,-0.0923,-0.018,182.2516
19:45:11:964,-0.2943,2.065,11.8493,56.701,0.0425,-0.3293,-0.1011,182.4236
19:45:11:996,0.0622,1.9454,12.1268,56.6554,-0.0711,-0.4075,-0.1255,182.6539
19:45:12:024,0.0574,2.053,11.9976,54.1582,-0.1395,-0.1876,-0.1353,182.8145
19:45:12:025,0.1651,2.0483,11.4903,55.5789,-0.1664,0.0897,-0.1145,182.898
19:45:12:045,0.8853,1.9549,11.0453,55.882,-0.1579,0.2082,-0.0766,182.9115
19:45:12:065,1.7659,1.7492,10.8706,54.3831,-0.1896,0.1239,-0.1158,183.0096
19:45:12:099,2.1248,1.2251,11.3061,52.9865,-0.3008,-0.1278,-0.3271,183.4114
19:45:12:106,1.4309,0.8447,11.6004,53.8941,-0.4425,-0.4747,-0.6826,184.2757
19:45:12:132,0.7418,0.5575,11.7009,53.4175,-0.4621,-0.5774,-0.8977,185.3619
19:45:12:145,0.4618,0.3135,11.5813,55.3711,-0.2959,-0.4198,-0.8414,186.3417
19:45:12:166,0.938,0.347,10.9472,56.3062,-0.0467,-0.3025,-0.6741,187.1176
19:45:12:208,1.5793,0.5599,10.0834,53.4424,0.1634,-0.3025,-0.5678,187.787
19:45:12:213,1.73,1.0098,9.1693,54.4531,0.2294,-0.3269,-0.602,188.4988
19:45:12:229,1.4261,1.3089,8.3677,53.5966,0.1598,-0.2182,-0.7095,189.3041
19:45:12:249,0.7466,1.4046,7.8772,54.4681,0.051,-0.008,-0.8305,190.2018
19:45:12:265,0.0407,1.4859,7.6953,53.0766,-0.0271,0.1166,-0.9037,191.1173
19:45:12:287,-0.1603,1.5338,7.5565,52.7802,-0.0381,0.0604,-0.8928,192.0342
19:45:12:306,0.0479,1.7779,7.4776,54.9983,-0.0003,-0.0618,-0.8549,192.9472
19:45:12:325,0.0885,2.0865,7.3938,52.8792,0.0584,-0.0838,-0.8378,193.8301
19:45:12:350,0.0407,2.1535,7.4608,53.7954,0.1072,0.0103,-0.8732,194.7151
19:45:12:365,-0.1244,2.1727,7.5182,53.3515,0.0828,0.0017,-0.9209,195.6725
19:45:12:386,-0.3924,2.2708,7.9753,52.6312,0.0095,-0.0215,-0.9453,197.6067
19:45:12:408,-0.4355,2.3019,8.5448,51.7455,-0.1029,-0.0728,-0.9258,198.5828
19:45:12:425,-0.469,2.1272,9.3488,51.3985,-0.1994,-0.0936,-0.8781,199.5214
19:45:12:446,-0.792,2.1823,10.2437,51.7355,-0.2397,-0.0911,-0.8414,200.4136
19:45:12:468,-1.4309,2.455,10.9759,49.1116,-0.2177,-0.0764,-0.7975,201.1747
19:45:12:486,-1.9645,2.8068,11.4832,50.056,-0.1237,-0.0068,-0.6875,201.8176
19:45:12:506,-1.7133,2.7422,11.6818,50.6099,0.0205,0.1263,-0.4945,202.22
19:45:12:526,-0.8351,2.6441,12.1914,50.3008,0.117,0.2314,-0.2929,202.4513
19:45:12:546,-0.0096,2.7757,13.1964,49.372,0.0987,0.2485,-0.1854,202.5871
19:45:12:564,0.1579,2.5364,13.9238,50.2066,0.0706,0.2339,-0.2135,202.775
19:45:12:588,-0.926,2.3904,13.4716,49.3495,0.183,0.2106,-0.3723,203.1085
19:45:12:607,-2.5005,2.4383,12.4857,49.7341,0.4359,0.2277,-0.5311,203.5925
19:45:12:625,-2.9767,2.2277,11.3492,49.4753,0.6741,0.1642,-0.536,204.066
19:45:12:645,-2.4957,1.7157,10.6289,49.5907,0.7462,-0.0936,-0.448,204.5094
19:45:12:666,-2.211,1.3807,10.4064,51.5439,0.6533,-0.4723,-0.4041,204.9928
19:45:12:685,-2.6488,1.5027,9.9302,51.5439,0.5287,-0.603,-0.3894,205.4875
19:45:12:705,-2.613,1.4883,8.8487,51.9298,0.5141,-0.2719,-0.2587,205.7613
19:45:12:724,-2.3904,1.4046,7.5039,51.2416,0.5324,0.2363,-0.0705,205.695
19:45:12:744,-2.5005,1.596,6.5587,49.4621,0.4395,0.5906,0.0504,205.4027
19:45:12:764,-2.4622,1.6319,6.262,49.2451,0.2001,0.6908,0.1335,205.006
19:45:12:788,-2.0674,1.5338,6.3601,51.5913,-0.087,0.5747,0.1604,204.6079
19:45:12:811,-1.3065,1.2538,7.1163,52.0088,-0.4841,0.0787,-0.0559,204.3883
19:45:12:830,-1.4979,1.2897,7.6953,51.829,-0.5757,-0.1326,-0.2477,204.6242
19:45:12:851,-1.9765,1.2371,8.327,51.1639,-0.5928,-0.2023,-0.3931,205.026
19:45:12:865,-1.9932,1.1821,8.6022,51.0518,-0.4853,-0.1339,-0.4248,205.4656
19:45:12:887,-1.9549,1.0911,8.3342,49.9445,-0.2751,-0.0093,-0.3589,205.8029
19:45:12:909,-2.1296,1.3113,7.9944,50.0471,-0.0919,0.0653,-0.2562,205.9938
19:45:12:926,-2.1799,1.6319,8.1954,50.6582,-0.0613,0.0066,-0.1524,206.0953
19:45:12:945,-1.7468,1.608,8.7936,50.5377,-0.12,-0.1461,-0.0705,206.1497
19:45:12:966,-1.5123,1.5816,9.4349,49.642,-0.1408,-0.2634,-0.0547,206.2125
19:45:12:989,-1.5051,1.5649,9.7029,48.6686,-0.1102,-0.2365,-0.0876,206.309
19:45:13:007,-1.6199,1.4644,9.6191,49.2971,-0.0394,-0.0435,-0.095,206.3677
19:45:13:025,-2.1081,1.7037,9.0664,50.9857,0.0413,0.152,-0.0632,206.3403
19:45:13:045,-2.0985,1.9549,8.5591,49.4716,0.1048,0.2326,0.0125,206.2202
19:45:13:065,-1.6726,2.0195,8.3294,50.1891,0.073,0.1447,0.0528,206.0865
19:45:13:089,-1.261,2.1942,8.8869,52.8021,-0.1017,-0.0435,0.0003,206.0475
19:45:13:106,-0.804,2.1248,9.8632,49.8386,-0.3448,-0.2255,-0.1048,206.1916
19:45:13:125,-0.8566,2.0818,10.7677,50.1818,-0.5134,-0.2927,-0.2343,206.4823
19:45:13:144,-1.1821,2.0028,11.4114,49.9014,-0.5684,-0.2731,-0.3442,206.8766
19:45:13:165,-0.993,1.8114,12.0909,50.8938,-0.5757,-0.3403,-0.3857,207.3252
19:45:13:189,-0.0526,1.4477,12.7992,50.0921,-0.5965,-0.5248,-0.3796,207.801
19:45:13:208,1.0193,0.792,13.6487,51.7312,-0.6417,-0.7142,-0.4236,208.3737
19:45:13:226,1.0816,0.3278,14.5675,50.2903,-0.693,-0.8816,-0.5861,209.109
19:45:13:245,0.3254,0.122,14.6393,51.2988,-0.6026,-0.8742,-0.7596,210.0133
19:45:13:268,-0.3972,-0.1316,11.866,52.5568,0.1585,-0.0679,-0.4945,210.8334
19:45:13:287,0.7107,-0.1579,10.3801,51.4559,0.4176,0.1544,-0.1781,211.5245
19:45:13:305,1.7492,0.0144,9.478,48.5859,0.4359,0.2143,-0.007,211.5135
19:45:13:324,1.9693,0.1938,8.8917,52.3819,0.3003,0.2461,-0.0681,211.5765
19:45:13:344,1.127,0.5312,8.6501,50.3487,0.1463,0.2717,-0.2953,211.8711
19:45:13:365,0.39,0.6221,8.3581,53.4651,0.0767,0.2265,-0.5323,212.4078
19:45:13:392,0.0957,0.4594,7.8485,52.0707,0.1549,0.1361,-0.6618,213.082
19:45:13:410,-0.1149,0.5623,7.1497,52.7601,0.2917,0.0481,-0.7022,213.8054
19:45:13:521,-0.2034,0.7657,6.5491,55.9036,0.3675,-0.0239,-0.6912,214.5185
19:45:13:522,-0.1436,0.9547,6.3147,54.0729,0.3308,-0.0838,-0.6814,215.2153
19:45:13:523,-0.1388,1.1964,6.5779,54.9416,0.2062,-0.1265,-0.7229,215.981
19:45:13:524,-0.2608,1.4477,6.9153,51.838,0.0559,-0.151,-0.8243,216.8394
19:45:13:524,-0.548,1.6247,7.2981,51.4999,-0.054,-0.0874,-0.9368,217.8391
19:45:13:525,-1.1844,1.9358,7.8915,52.1679,-0.1273,-0.0166,-1.0039,218.8992
19:45:13:546,-1.5697,2.1368,8.6548,51.1751,-0.1774,-0.03,-1.0052,219.9578
19:45:13:563,-1.797,2.1823,9.612,51.2988,-0.1896,-0.0997,-0.9551,220.9533
19:45:13:587,-1.6702,2.053,10.3777,51.7175,-0.164,-0.2292,-0.9111,221.9264
19:45:13:606,-1.9645,2.0602,10.9448,52.4593,-0.0956,-0.2817,-0.8683,222.8504
19:45:13:626,-2.6249,2.4455,11.4138,51.5857,-0.0333,-0.1974,-0.762,223.6229
19:45:13:644,-2.7302,2.6441,11.9641,52.7381,0.0095,-0.0655,-0.5434,224.1403
19:45:13:665,-2.2756,2.5436,12.2608,51.053,0.0987,0.0433,-0.2905,224.4031
19:45:13:689,-1.7444,2.5196,12.0909,52.4409,0.2453,0.1569,-0.1023,224.4457
19:45:13:705,-1.3974,2.3928,11.6626,53.1258,0.3516,0.2546,-0.0119,224.3864
19:45:13:726,-1.8975,2.2397,11.3181,51.6648,0.2563,0.1667,-0.1133,224.4235
19:45:13:744,-2.0387,1.7468,11.9833,51.8902,0.117,-0.0312,-0.2245,224.5951
19:45:13:764,-1.9789,0.8279,13.1486,52.4409,-0.0174,-0.3098,-0.3418,224.9158
19:45:13:786,-2.3521,0.3829,13.6439,53.022,0.0095,-0.5651,-0.4236,225.3527
19:45:13:807,-2.79,0.1842,12.6963,51.2298,0.332,-0.4857,-0.3308,225.6205
19:45:13:824,-2.9169,0.0814,10.4231,51.2637,0.8232,-0.0484,-0.007,225.455
19:45:13:844,-2.5938,0.457,8.3581,53.045,1.1139,0.2644,0.3522,224.8703
19:45:13:864,-1.9956,1.0696,7.3101,51.3424,0.9832,0.2461,0.5354,224.1152
19:45:13:885,-0.9691,1.2778,7.2359,51.3424,0.5593,0.1056,0.5708,223.3768
19:45:13:906,-0.1866,1.2036,7.6403,52.3249,0.0718,0.0408,0.4401,222.8193
19:45:13:926,-0.4092,1.0887,7.8915,52.4775,-0.2861,0.097,0.153,222.5482
19:45:13:944,-1.2682,0.9667,8.0877,51.3056,-0.456,0.1923,-0.128,222.5289
19:45:13:964,-2.1512,0.9165,8.461,51.1553,-0.4792,0.1862,-0.2599,222.6564
19:45:13:984,-2.4191,0.8064,8.6166,53.1485,-0.3607,0.0738,-0.1939,222.7148
19:45:14:007,-2.3426,1.0433,8.4132,51.575,-0.1298,0.0091,0.0492,222.5309
19:45:14:023,-1.9765,1.6678,8.0207,52.9168,0.1219,0.0201,0.3387,222.0504
19:45:14:043,-1.5482,2.0722,7.5733,51.8574,0.3345,0.1044,0.5244,221.3565
19:45:14:064,-1.3711,2.412,7.1139,51.6371,0.4566,0.2351,0.5733,220.6139
19:45:14:085,-1.2467,2.6512,7.0397,51.8402,0.4286,0.2791,0.5134,219.9194
19:45:14:107,-1.0528,2.6249,7.4082,52.4775,0.2844,0.1948,0.3925,219.3671
19:45:14:127,-1.1222,2.4048,8.4132,51.1152,0.1243,0.0274,0.2288,219.0228
19:45:14:145,-1.2395,2.2564,9.7795,51.7409,0.0425,-0.2267,0.0638,218.8974
19:45:14:165,-1.1605,1.9143,10.7222,51.1638,0.1194,-0.4344,-0.0278,218.9132
19:45:14:187,-1.3161,1.1462,10.2317,51.9489,0.4982,-0.4662,-0.1023,219.1676
19:45:14:209,-1.0792,1.0457,10.7055,48.9176,0.3785,-0.5908,-0.0864,219.2603
19:45:14:226,-0.5647,0.8806,11.4664,51.2612,0.1304,-0.6849,-0.0657,219.3846
19:45:14:245,-0.5767,1.2036,11.8277,50.3706,-0.0381,-0.5419,-0.0681,219.4408
19:45:14:263,-0.0383,1.3232,11.5526,51.2756,-0.0797,-0.2731,0.0027,219.3856
19:45:14:286,1.2084,1.1677,11.3803,49.1049,-0.1298,-0.1119,0.0809,219.2393
19:45:14:307,2.266,0.682,11.6794,50.3793,-0.2874,-0.129,0.0003,219.1946
19:45:14:325,1.6223,0.7274,12.8495,50.6562,-0.5244,-0.2768,-0.2746,219.4758
19:45:14:345,0.871,0.8423,13.6487,51.2789,-0.5745,-0.3184,-0.4676,219.9253
19:45:14:364,0.7442,0.5934,12.5575,48.4998,-0.1945,-0.0667,-0.3845,220.2198
19:45:14:384,0.8112,0.8782,10.5715,49.4396,0.3675,0.2766,-0.1328,220.1931
19:45:14:406,1.5218,1.1916,8.6764,50.4201,0.7169,0.4122,0.1103,219.9033
19:45:14:424,2.3019,1.4309,7.4584,50.6129,0.6863,0.2497,0.1506,219.6503
19:45:14:445,2.2158,1.6822,7.2526,48.5417,0.3626,-0.0312,-0.1267,219.777
19:45:14:466,1.1246,1.5194,7.7432,49.1702,-0.0345,-0.1999,-0.5605,220.3665
19:45:14:484,-0.3996,1.4524,8.1452,49.8849,-0.2641,-0.1803,-0.8463,221.2177
19:45:14:504,-1.2754,1.5123,8.2122,47.0421,-0.2593,-0.107,-0.8317,222.0117
19:45:14:523,-1.2778,1.6941,8.1308,47.9663,-0.1359,-0.096,-0.6008,222.5463
19:45:14:546,-0.9165,2.0818,8.1691,47.3157,-0.0076,-0.1498,-0.3491,222.8357
19:45:14:565,-0.402,2.3904,8.2074,48.5417,0.073,-0.2169,-0.2135,223.0255
19:45:14:584,-0.0694,2.5771,8.2911,46.478,0.1268,-0.2243,-0.2098,223.2166
19:45:14:605,0.0383,2.7206,8.1811,47.3595,0.1634,-0.1669,-0.2782,223.4935
19:45:14:626,-0.2632,2.9001,8.418,46.7564,0.1414,-0.0801,-0.3601,223.8201
19:45:14:646,-0.4403,2.79,9.0497,48.8329,0.0767,-0.0484,-0.4371,224.6952
19:45:14:666,-0.5982,2.869,9.0927,45.655,0.1231,-0.0386,-0.4468,225.0685
19:45:14:682,-1.2108,3.1202,9.1932,46.7417,0.1402,-0.0129,-0.442,225.444
19:45:14:704,-1.7515,3.4839,9.3416,46.9216,0.1329,0.0579,-0.3711,225.7026
19:45:14:744,-1.8951,3.7543,9.5569,45.9501,0.1268,0.1422,-0.2208,225.7819
19:45:14:746,-1.517,3.74,9.9302,46.8702,0.1024,0.1654,-0.0644,225.6845
19:45:14:766,-0.8423,3.6514,10.7438,47.8912,0.0413,0.1105,0.015,225.5354
19:45:14:782,-0.5719,3.539,11.0883,46.6417,0.0352,0.152,0.0125,225.3531
19:45:14:802,-0.8877,3.46,10.8275,44.8749,0.1048,0.3353,-0.0131,225.1867
19:45:14:821,-1.7922,3.5462,10.1719,44.945,0.1879,0.422,-0.0498,225.0061
19:45:14:843,-2.7182,3.6251,9.7579,45.08,0.2294,0.3426,-0.0693,224.8451
19:45:14:863,-3.5366,3.661,9.4756,46.9557,0.1976,0.207,-0.0424,224.6494
19:45:14:884,-3.5677,3.3595,9.6766,45.4492,0.0791,0.1373,0.0333,224.3679
19:45:14:903,-2.6034,1.8568,10.5069,44.7538,-0.1383,-0.0887,0.087,224.0806
19:45:14:926,-2.2325,1.3831,11.5836,44.491,-0.3265,-0.4112,0.0345,223.9159
19:45:14:944,-2.5149,1.4668,11.653,45.8255,-0.2788,-0.2915,0.0834,223.6831
19:45:14:965,-2.6943,1.3735,10.5524,44.2358,-0.0174,0.2033,0.3155,223.0456
19:45:14:984,-2.3833,1.5601,9.2507,45.1602,0.1976,0.4269,0.533,222.1426
19:45:15:005,-1.7731,1.6367,8.3677,43.8462,0.2221,0.334,0.6136,221.2233
19:45:15:025,-0.737,1.1103,8.1236,43.294,0.0999,0.163,0.5647,220.4209
19:45:15:044,-0.5982,0.7513,8.2361,45.032,-0.0613,0.0421,0.4132,219.8096
19:45:15:064,-1.2993,1.0122,8.6548,44.1548,-0.2251,-0.0044,0.2532,219.3383
19:45:15:084,-1.7731,1.0887,8.8056,43.2835,-0.2898,0.0567,0.219,218.2932
19:45:15:107,-1.8927,1.3926,7.3125,44.5524,0.0217,0.3218,0.3974,217.7258
19:45:15:125,-1.7611,1.7468,6.5851,43.1452,0.1366,0.3084,0.5366,216.8836
19:45:15:144,-1.6056,2.2134,6.4917,45.1876,0.0889,0.2204,0.649,215.9794
19:45:15:163,-1.2275,2.479,7.0684,44.1414,-0.0613,0.0885,0.704,215.0336
19:45:15:183,-0.7609,2.6536,7.7264,43.6484,-0.1957,-0.085,0.6759,214.1914
19:45:15:209,-0.6963,2.6776,8.5735,44.0817,-0.2727,-0.1229,0.5721,213.4725
19:45:15:227,-0.7801,2.6154,9.4756,42.6395,-0.3082,-0.0972,0.4682,212.8481
19:45:15:245,-0.7609,2.4718,10.1145,42.6395,-0.2336,-0.1559,0.4255,212.2841
19:45:15:264,-0.871,2.4909,10.2939,43.9887,-0.0638,-0.2524,0.39,211.7789
19:45:15:283,-1.0074,2.6752,10.1527,43.9186,0.0877,-0.2964,0.3436,211.316
19:45:15:305,-0.8519,2.5484,9.9182,43.4388,0.1427,-0.1779,0.3351,210.8129
19:45:15:323,-0.6197,2.4957,10.0858,42.4389,0.0828,-0.0093,0.3509,210.2785
19:45:15:344,-0.2991,2.4263,10.5739,42.3564,-0.0443,0.0286,0.3399,209.7642
19:45:15:363,-0.0407,2.4239,10.7916,43.3386,-0.1017,-0.0276,0.2886,209.3131
19:45:15:383,0.1005,2.3857,10.6241,41.9166,-0.0723,-0.0532,0.1982,208.9561
19:45:15:402,0.1484,2.1775,10.4399,43.7998,-0.0589,-0.0532,0.1017,208.7333
19:45:15:423,0.3948,1.9071,10.2173,42.3234,-0.12,-0.0899,0.0235,208.5734
19:45:15:443,1.1079,1.0361,10.6074,42.8216,-0.2837,-0.1742,-0.0547,208.5282
19:45:15:463,1.4931,0.3924,11.8564,42.84,-0.5635,-0.4088,-0.1988,208.7041
19:45:15:485,0.6867,0.6628,12.9763,42.394,-0.7614,-0.5065,-0.3198,208.9961
19:45:15:507,0.1555,0.6174,13.0648,43.4692,-0.6233,-0.2377,-0.2734,209.1624
19:45:15:527,0.4881,0.4522,11.7057,44.8397,-0.1799,0.0787,-0.062,208.616
19:45:15:639,2.0722,1.1031,8.863,43.4143,0.3809,-0.0447,0.153,208.5511
19:45:15:641,2.4574,1.0696,8.9707,42.8367,0.1634,-0.2927,-0.0522,208.5806
19:45:15:644,2.2038,0.9571,9.3775,42.8156,-0.1273,-0.2878,-0.3247,208.9001
19:45:15:644,1.1557,1.06,9.4852,40.9152,-0.2703,-0.0899,-0.536,209.3455
19:45:15:645,0.3398,1.2945,9.0712,42.8216,-0.2006,0.0701,-0.5934,209.8118
19:45:15:645,0.1747,1.5984,8.2768,41.8911,-0.0076,0.0738,-0.5275,210.2031
19:45:15:662,0.4283,1.8808,7.3412,41.3773,0.2013,-0.019,-0.4432,210.5556
19:45:15:683,0.5815,2.2516,6.6999,42.3466,0.3064,-0.1485,-0.4212,210.92
19:45:15:707,0.6341,2.4407,6.5276,42.3629,0.2477,-0.2548,-0.4786,211.3636
19:45:15:725,0.3924,2.4981,6.8866,41.4137,0.0694,-0.2829,-0.5788,211.8958
19:45:15:744,-0.0144,2.5101,7.7097,41.4381,-0.1359,-0.2133,-0.6435,212.4743
19:45:15:762,-0.146,2.5938,8.4562,41.3594,-0.2617,-0.0764,-0.6044,212.9796
19:45:15:782,0.1244,2.7422,9.1214,42.8621,-0.2886,-0.0154,-0.5177,213.3772
19:45:15:804,0.5049,2.7852,9.5163,40.0146,-0.2189,-0.0703,-0.4896,213.7753
19:45:15:824,0.402,2.9839,9.9302,42.0294,-0.1444,-0.162,-0.5519,214.2805
19:45:15:844,-0.8901,3.5198,11.074,41.4893,-0.1554,-0.1901,-0.6325,214.8374
19:45:15:863,-1.5697,3.5677,11.988,40.158,-0.1628,-0.1082,-0.591,215.267
19:45:15:882,-1.4118,3.3476,12.256,39.2047,-0.0113,0.0995,-0.3894,215.4734
19:45:15:907,-0.7825,3.1154,12.1484,40.7393,0.183,0.2962,-0.1524,215.4074
19:45:15:927,0.0742,3.0461,11.8277,39.6857,0.3149,0.4269,0.004,215.1595
19:45:15:945,0.2369,2.7015,11.2319,39.9539,0.3956,0.5234,-0.0327,214.9677
19:45:15:964,-0.6604,2.4239,10.94,40.2346,0.4004,0.4941,-0.2343,214.9211
19:45:15:982,-1.8712,2.1631,10.5236,38.7415,0.3675,0.378,-0.3809,215.0093
19:45:16:005,-2.9121,1.5386,9.5785,39.1379,0.1683,0.3035,-0.2953,215.202
19:45:16:022,-2.2349,0.5982,10.5284,38.7659,-0.1432,0.1715,-0.1842,215.0563
19:45:16:048,-2.7805,0.6269,11.2176,39.8188,-0.3277,0.0665,-0.1072,214.8564
19:45:16:067,-3.3404,0.8997,10.7031,41.7692,-0.1713,0.2167,0.0626,214.4244
19:45:16:081,-2.7661,0.7442,9.3177,41.7692,0.1952,0.356,0.3351,213.6923
19:45:16:105,-2.1679,1.0074,8.0231,41.7692,0.4456,0.1654,0.4829,212.879
19:45:16:123,-1.6271,1.1414,7.6163,41.7692,0.3931,-0.1656,0.4682,212.1912
19:45:16:146,-1.2562,0.9523,8.0614,41.7692,0.1488,-0.3758,0.3644,211.6858
19:45:16:164,-1.0887,0.6843,8.7195,41.7692,-0.1029,-0.3721,0.2569,211.2999
19:45:16:188,-1.1007,0.6796,8.9755,39.6579,-0.2336,-0.1815,0.1994,210.9322
19:45:16:204,-1.2538,0.8447,8.7888,40.0929,-0.2544,0.0421,0.1774,210.4907
19:45:16:223,-1.3639,1.1629,8.3749,38.0383,-0.2153,0.1752,0.1811,210.0309
19:45:16:242,-1.5888,1.5338,7.6905,39.0268,-0.1444,0.2339,0.2141,209.5208
19:45:16:262,-1.8855,1.8329,7.2383,40.8905,-0.1102,0.2497,0.2703,208.9357
19:45:16:283,-1.7396,2.0219,7.3531,39.2886,-0.1664,0.218,0.3424,208.2838
19:45:16:305,-1.5888,2.3019,8.0255,37.6023,-0.2568,0.1789,0.4083,207.6106
19:45:16:324,-1.2754,2.333,8.5783,38.7828,-0.2666,0.1764,0.4303,206.9354
19:45:16:347,-1.0289,2.4239,8.7553,37.6831,-0.1847,0.1667,0.4255,206.2661
19:45:16:367,-1.0385,2.589,9.2794,37.6831,-0.1139,0.119,0.3937,205.6454
19:45:16:383,-1.0289,2.4885,9.6814,38.1774,-0.0223,0.0714,0.3522,205.083
19:45:16:404,-1.2706,2.4766,9.9326,38.531,0.095,0.0091,0.2837,204.5764
19:45:16:426,-0.9906,2.4431,9.9805,38.4543,0.1805,-0.0887,0.2605,204.1307
19:45:16:444,-0.189,2.278,9.8321,37.808,0.1817,-0.1852,0.2263,203.7836
19:45:16:465,-0.7155,1.8329,11.208,38.4203,-0.175,-0.0936,-0.0828,203.5893
19:45:16:482,-0.9117,1.6965,11.519,38.4203,-0.2385,-0.0471,-0.1475,203.6846
19:45:16:503,-0.9571,1.6463,12.1316,36.6287,-0.2043,-0.1314,-0.1597,203.6938
19:45:16:524,-0.7083,1.462,11.854,36.8857,-0.1102,-0.2316,-0.1231,203.6856
19:45:16:542,-0.079,1.005,11.72,37.3565,-0.0809,-0.2573,-0.1011,203.6814
19:45:16:563,0.2345,0.5886,12.146,37.5003,-0.1945,-0.2793,-0.128,203.7396
19:45:16:583,-0.0455,0.4259,12.8064,38.9985,-0.2996,-0.2011,-0.1402,203.798
19:45:16:605,-0.5575,0.5838,12.8136,35.7561,-0.2165,-0.0068,-0.0754,203.6752
19:45:16:624,-0.1172,0.5958,11.3181,35.0231,0.1475,0.1422,0.0834,203.419
19:45:16:643,0.6293,0.6126,9.1765,35.9283,0.5715,0.0689,0.2263,203.025
19:45:16:663,1.0241,0.737,7.6259,35.9106,0.7059,-0.2072,0.2251,202.7052
19:45:16:681,0.6748,0.8758,7.0899,34.4505,0.5165,-0.4295,0.1103,202.5328
19:45:16:703,0.469,0.8638,7.0875,36.865,0.172,-0.4014,0.0333,202.4558
19:45:16:726,0.6963,1.0002,7.2526,34.7177,-0.1957,-0.173,0.0577,202.2645
19:45:16:743,1.0241,1.3376,8.083,33.5448,-0.5085,0.1288,0.0919,202.0116
19:45:16:764,1.1103,1.6798,8.7123,35.3258,-0.6001,0.3182,0.0431,201.7887
19:45:16:784,0.8016,1.8568,8.6333,35.0567,-0.4425,0.2668,-0.1121,201.7403
19:45:16:804,0.0168,1.9095,8.3605,34.7587,-0.2202,0.0518,-0.2782,201.8735
19:45:16:824,-0.3039,2.0842,7.9394,33.9097,-0.0687,-0.0911,-0.343,202.0815
19:45:16:843,0.1531,2.2373,7.5948,33.8679,-0.0174,-0.0484,-0.3369,202.3088
19:45:16:864,0.7777,2.522,7.6068,34.1032,-0.0613,0.0433,-0.3748,202.5738
19:45:16:883,0.591,2.7182,8.205,34.105,-0.1517,0.1129,-0.547,203.0456
19:45:16:904,-0.5551,2.6752,8.8343,33.5607,-0.1615,0.1178,-0.7657,203.6858
19:45:16:924,-1.6199,2.4526,9.0186,33.8348,0.0828,-0.3037,-0.7339,204.4277
19:45:16:944,-1.8664,2.4814,9.3105,33.0264,0.0852,-0.3465,-0.5702,205.7211
19:45:16:963,-2.3689,2.6058,9.6383,33.2214,0.0095,-0.1717,-0.4151,205.9511
19:45:16:986,-2.6608,2.814,10.0235,33.9033,-0.0748,0.0335,-0.2355,205.9643
19:45:17:004,-2.4096,2.8044,10.7294,31.5475,-0.1408,0.1178,-0.0253,205.716
19:45:17:023,-1.6869,2.5364,11.7272,32.886,-0.1591,0.0506,0.1494,205.3473
19:45:17:041,-0.8614,2.2851,12.6198,32.3962,-0.1273,-0.0422,0.2385,204.9361
19:45:17:061,-0.3087,1.9956,13.017,33.594,-0.0394,0.0139,0.2434,204.4977
19:45:17:084,-0.5408,1.6534,12.7178,31.768,0.0852,0.1923,0.164,204.0723
19:45:17:109,-1.6343,1.9214,11.9857,31.9308,0.1915,0.4379,0.1066,203.6699
19:45:17:124,-2.3426,1.8808,11.3109,30.675,0.249,0.6053,0.1298,203.1738
19:45:17:142,-2.7206,1.5673,11.2319,30.4309,0.2392,0.4415,0.1542,202.6685
19:45:17:163,-2.4263,0.6652,12.0239,32.358,0.1793,0.0445,0.1811,202.215
19:45:17:181,-2.7446,0.3446,12.7585,30.4309,0.1622,-0.2402,0.2397,201.7443
19:45:17:203,-2.6393,0.5527,11.3587,30.4491,0.3846,0.0005,0.423,201.0324
19:45:17:222,-1.8425,0.8351,8.7314,30.0714,0.7132,0.367,0.6564,200.0183
19:45:17:243,-1.2299,1.0696,7.3029,29.2896,0.7352,0.229,0.704,199.0064
19:45:17:266,-1.2825,1.2108,7.3819,29.8905,0.453,-0.2609,0.5818,198.2372
19:45:17:284,-1.1773,1.1174,8.4227,28.2398,0.1024,-0.5554,0.4389,197.6746
19:45:17:302,-0.9691,0.8997,8.863,28.6969,-0.1066,-0.4222,0.3558,197.2046
19:45:17:325,-1.1988,0.926,8.6357,29.2625,-0.164,-0.0691,0.3228,196.6742
19:45:17:341,-1.1773,1.1653,8.2529,29.4666,-0.1579,0.2253,0.3546,196.0095
19:45:17:361,-1.206,1.3639,7.5853,28.3172,-0.1139,0.3291,0.3876,195.309
19:45:17:381,-0.9571,1.9023,7.6259,27.4393,-0.1371,0.2216,0.4206,194.6119
19:45:17:401,-0.7729,2.1775,8.2816,28.4237,-0.142,0.1471,0.4365,193.4011
19:45:17:424,-0.8231,2.2684,8.2505,26.8025,-0.0113,0.1092,0.4023,192.7322
19:45:17:445,-0.7944,2.1823,7.8341,27.104,0.1292,0.0506,0.346,192.1561
19:45:17:462,-0.4259,2.278,7.6881,28.6952,0.1268,-0.0129,0.2984,191.6714
19:45:17:482,0.0574,2.3665,7.7456,28.2329,-0.0052,-0.0386,0.197,191.2983
19:45:17:504,-0.5695,2.2827,8.8869,28.0715,-0.1908,-0.0752,-0.0095,191.1376
19:45:17:523,-1.3065,2.0243,10.2413,26.7252,-0.2531,-0.2047,-0.1463,191.1175
19:45:17:542,-1.4333,1.9382,10.8443,27.1373,-0.0931,-0.3452,-0.0925,191.0609
19:45:17:564,-0.7011,1.785,10.8945,25.7091,0.1524,-0.2951,0.076,190.8271
19:45:17:581,-0.1507,1.7731,10.5524,24.9058,0.3064,-0.2267,0.1713,190.5197
19:45:17:602,0.0814,1.584,10.5117,26.5384,0.2551,-0.1766,0.1396,190.2462
19:45:17:623,-0.1819,1.5075,10.9017,26.3799,0.0449,-0.0911,0.0443,190.0317
19:45:17:767,-0.3135,1.541,11.2893,26.3447,-0.1713,-0.0288,-0.0095,189.8407
19:45:17:768,-0.0048,1.4309,11.799,26.9335,-0.3094,0.0079,0.0089,189.606
19:45:17:770,0.3015,1.3495,12.0096,26.3686,-0.3509,-0.0459,0.0076,189.3767
19:45:17:771,0.481,1.005,12.4594,24.8362,-0.3863,-0.1546,-0.0608,189.2516
19:45:17:772,0.4666,0.9165,13.0672,23.4539,-0.4095,-0.1522,-0.095,189.1947
19:45:17:774,0.3446,1.1653,12.792,25.143,-0.2629,0.1239,-0.0388,189.058
19:45:17:775,0.67,1.2036,11.1769,21.8043,0.0767,0.444,0.0626,188.7383
19:45:17:788,1.1653,1.3376,9.3846,24.207,0.3797,0.4318,0.109,188.4267
19:45:17:816,1.4165,1.3759,8.1356,22.5542,0.4554,0.1044,0.0406,188.2177
19:45:17:828,0.993,1.2562,7.8006,21.8043,0.2954,-0.2084,-0.1121,188.238
19:45:17:844,0.0814,1.1031,8.9516,24.3732,-0.2581,0.0921,-0.2477,188.6478
19:45:17:861,-0.1436,1.3137,9.0497,22.672,-0.3008,0.2424,-0.2086,188.631
19:45:17:881,-0.2943,1.5769,8.8941,23.5356,-0.1908,0.2241,-0.1732,188.5731
19:45:17:905,-0.4092,1.7587,8.394,22.953,-0.0223,0.0457,-0.1573,188.5183
19:45:17:926,-0.5599,1.8999,7.8293,24.486,0.1036,-0.1143,-0.1475,188.4802
19:45:17:943,-0.5815,2.1272,7.4824,21.7367,0.128,-0.1241,-0.1292,188.4184
19:45:17:963,-0.5838,2.345,7.5063,23.8385,0.0791,-0.0435,-0.095,188.3036
19:45:17:982,-0.4738,2.5125,7.5757,25.1964,0.0132,0.0921,-0.062,188.1228
19:45:18:005,-0.3589,2.6393,7.724,22.4996,-0.0369,0.1825,-0.0596,187.9216
19:45:18:022,-0.3541,2.5579,7.9322,24.0767,-0.1017,0.1251,-0.1023,187.7877
19:45:18:042,-0.8471,2.4503,8.5352,23.7305,-0.2055,0.1007,-0.1548,187.6859
19:45:18:062,-0.8997,2.4311,8.8487,21.5391,-0.2971,0.2057,-0.1267,187.5527
19:45:18:082,-1.1486,2.8786,9.1932,24.0303,-0.3717,0.3951,-0.0424,187.3029
19:45:18:101,-1.5458,3.2136,10.2054,22.7475,-0.4071,0.4745,0.0541,186.9009
19:45:18:122,-2.0913,3.5916,9.7507,22.6495,-0.1713,0.1532,0.175,186.4029
19:45:18:140,-1.5386,3.2112,9.7364,21.2545,0.0694,-0.3013,0.2544,185.9396
19:45:18:161,-1.1868,3.0485,10.6768,21.6305,0.0584,-0.4735,0.2984,185.4708
19:45:18:192,-1.4716,2.4287,11.8134,21.0604,0.0303,-0.3758,0.2422,185.0346
19:45:18:210,-1.7779,1.8712,11.6674,22.0827,0.1011,-0.3,0.1506,184.6543
19:45:18:236,-1.8161,1.5314,10.7198,21.7258,0.1341,-0.184,0.1567,184.2496
19:45:18:248,-2.6225,1.7539,10.5595,22.8341,-0.0101,0.0359,0.1994,183.7102
19:45:18:265,-3.4816,1.7587,11.5693,23.3804,-0.2287,0.2057,0.2825,183.03
19:45:18:281,-2.8833,1.1294,12.3996,21.3422,-0.2531,0.0787,0.434,182.2149
19:45:18:303,-2.4191,0.5599,12.0215,23.8194,0.0852,-0.4161,0.6515,181.3853
19:45:18:326,-2.266,0.4977,9.5713,22.9782,0.4212,-0.0398,0.8176,179.4767
19:45:18:340,-1.4405,0.6532,8.0399,23.1115,0.431,0.1434,0.9862,178.1166
19:45:18:364,-0.8806,0.9882,8.5065,22.78,0.0828,0.152,1.0473,176.6942
19:45:18:381,-0.9165,0.9093,9.9637,20.5407,-0.2581,0.1764,0.9325,175.3871
19:45:18:401,-1.1055,0.5025,10.66,22.1181,-0.3191,0.0921,0.7431,174.3339
19:45:18:422,-1.0289,0.2153,10.002,20.5438,-0.1151,-0.0398,0.6417,173.3975
19:45:18:446,-0.9045,0.3661,8.7458,24.8519,0.128,-0.0532,0.6478,172.4955
19:45:18:461,-0.8471,0.6413,7.7551,21.8944,0.1952,0.0677,0.6661,171.4963
19:45:18:481,-0.8327,0.8734,7.279,21.0981,0.1475,0.2265,0.6735,170.457
19:45:18:500,-1.1797,1.1438,7.389,23.3482,0.0596,0.2387,0.6356,169.4562
19:45:18:522,-1.7515,1.3639,7.6068,21.5351,-0.0015,0.0995,0.6185,168.4777
19:45:18:541,-2.0052,1.6774,7.7886,21.4243,-0.0113,-0.0288,0.6552,167.479
19:45:18:561,-2.4766,1.5721,8.0973,21.351,0.0083,-0.1216,0.7859,166.3581
19:45:18:581,-1.5816,1.9334,8.0375,20.9463,0.0449,-0.1864,0.9984,165.0643
19:45:18:604,-0.2034,1.4094,8.3557,20.6963,0.1072,-0.1375,1.0779,163.7018
19:45:18:630,-0.4498,2.0435,9.3248,21.1377,0.0999,-0.1082,0.9325,162.4982
19:45:18:640,-0.3541,1.6893,9.8321,22.4356,0.1256,-0.1388,0.77,161.4576
19:45:18:661,-0.8303,2.1272,9.9159,19.805,0.2404,-0.3513,0.616,160.6094
19:45:18:681,-1.3663,1.8831,10.5739,20.8932,0.343,-0.6042,0.5317,159.9218
19:45:18:703,0.6556,1.6678,10.8562,21.1031,0.4371,-0.5273,0.5965,159.1954
19:45:18:729,0.8231,1.6702,11.2439,21.3666,0.5238,-0.1461,0.6356,158.3653
19:45:18:741,0.8183,1.8066,11.3492,21.2156,0.5202,0.2449,0.6588,157.4213
19:45:18:761,0.8183,1.6582,11.0572,21.1031,-0.0418,0.2045,0.5831,156.4713
19:45:18:782,0.8806,1.3495,11.3037,20.2789,-0.2703,0.2387,0.5745,154.9897
19:45:18:801,1.2778,0.8782,11.6961,23.364,-0.456,0.2021,0.5476,154.1792
19:45:18:821,1.1988,0.7107,11.7966,21.3148,-0.583,0.13,0.4572,153.4606
19:45:18:841,0.682,0.7274,11.1601,20.4113,-0.5684,0.1703,0.4389,152.775
19:45:18:861,0.5767,0.6652,10.2317,22.2276,-0.3949,0.4599,0.6051,151.8701
19:45:18:883,0.3948,0.4283,9.7867,21.9419,-0.1957,0.6908,0.8103,150.6887
19:45:18:900,0.7872,0.4068,9.7843,20.43,-0.0467,0.4758,0.9557,149.3762
19:45:18:921,1.4955,0.5097,9.7268,22.7642,0.0779,0.0762,1.0424,148.0998
19:45:18:964,1.8449,0.5862,9.387,21.0178,0.1854,-0.1241,0.9948,146.9199
19:45:18:965,1.3615,0.7537,8.6644,20.7035,0.1757,-0.0887,0.8127,145.9036
19:45:18:984,1.1246,1.2395,8.4993,21.348,-0.0064,0.1508,0.6539,145.0018
19:45:19:003,0.5384,1.3519,8.2816,21.5032,-0.1408,0.3743,0.5024,144.2069
19:45:19:019,0.0048,1.5529,7.7527,21.9419,-0.1053,0.3621,0.3692,143.5233
19:45:19:040,0.0096,1.742,7.3292,21.1735,-0.0504,0.2302,0.3619,142.8604
19:45:19:060,0.2465,1.9023,7.3962,22.0002,-0.0443,0.1398,0.4169,142.1796
19:45:19:086,0.347,2.254,7.7384,22.5063,-0.0467,0.0982,0.4181,141.5256
19:45:19:107,0.3637,2.3976,7.9107,23.5732,-0.0308,0.0567,0.3888,140.8767
19:45:19:125,0.2847,2.3833,7.8078,22.9258,-0.0088,0.0665,0.3741,140.2368
19:45:19:140,-0.012,2.6106,8.3007,23.2084,-0.043,0.1557,0.4193,139.5149
19:45:19:160,0.0622,2.7494,9.1525,20.9815,-0.1114,0.1838,0.5489,138.6323
19:45:19:181,0.4187,2.9432,9.7244,22.7733,-0.1102,0.1447,0.6661,137.6709
19:45:19:203,0.0335,3.4289,10.2197,20.9332,-0.0821,0.1105,0.6588,135.7993
19:45:19:224,-0.5815,3.7208,11.1721,19.5427,0.0547,0.3621,0.6869,134.9333
19:45:19:241,-0.7849,3.7543,11.2463,23.0239,0.227,0.5014,0.7993,133.7302
19:45:19:264,-1.2634,4.1037,12.0168,23.4165,0.3479,0.4538,0.8702,132.4202
19:45:19:280,-1.2969,3.8381,13.6487,21.9995,0.4236,0.1776,0.8628,131.2195
19:45:19:308,-0.28,2.9264,13.9621,21.0364,0.6729,-0.1669,0.8286,130.1816
19:45:19:324,-0.1747,2.5651,12.3135,22.1779,0.9808,-0.2011,0.7749,129.196
19:45:19:341,-0.95,2.9719,11.2223,23.897,1.0064,0.2082,0.7627,128.1215
19:45:19:361,-1.4788,3.137,11.3109,22.2819,0.7499,0.6065,0.8225,126.8473
19:45:19:381,-1.4812,2.5962,11.3659,23.3176,0.4799,0.6859,0.8799,125.5236
19:45:19:404,-1.3711,1.9765,11.3563,23.6607,0.3467,0.5674,0.9349,124.1841
19:45:19:426,-1.2371,1.797,10.1432,23.3176,0.4481,0.5784,1.0632,122.718
19:45:19:444,-1.7204,1.017,7.9298,22.2528,0.6875,0.7506,1.2929,120.9383
19:45:19:462,-1.3974,2.9145,6.0299,22.6928,0.6937,0.7885,1.5201,118.8795
19:45:19:482,-0.0311,2.2899,6.8602,23.26,0.3491,0.7592,1.4688,116.9435
19:45:19:505,0.3135,2.388,7.5302,23.4708,-0.0894,0.2778,1.255,115.3737
19:45:19:522,0.5264,2.2325,9.1454,22.3649,-0.4609,-0.289,0.8555,114.434
19:45:19:540,0.5695,1.395,9.9972,22.568,-0.6026,-0.4405,0.5293,113.9467
19:45:19:561,-0.2991,1.1557,9.4397,22.8212,-0.4633,-0.2756,0.2373,113.6713
19:45:19:580,-1.0816,0.9188,8.2624,23.7127,-0.2861,0.0091,0.0907,113.4232
19:45:19:606,-1.7348,1.0576,7.2191,20.767,-0.2263,0.2766,0.1347,113.017
19:45:19:624,-1.8808,1.5194,7.1857,22.2298,-0.2495,0.5148,0.3021,112.3898
19:45:19:644,-1.5147,2.0219,6.8315,22.4146,-0.1762,0.4904,0.5159,110.4577
19:45:19:661,-0.8064,2.2445,6.0849,23.2389,-0.0846,0.5161,0.682,109.2274
19:45:19:680,-0.9811,2.9958,6.2189,23.2412,-0.4877,1.4666,0.5867,108.1098
19:45:19:706,-1.6822,3.1346,8.2792,22.9107,-0.8457,1.816,0.4059,106.9465
19:45:19:724,-2.0243,2.6082,10.6624,24.3628,-0.9043,1.5643,0.2178,106.1497
19:45:19:742,-2.0889,2.053,11.8828,26.2496,-0.6258,0.8777,0.0956,105.68
19:45:19:761,-2.1846,2.053,11.4951,24.5322,-0.1591,0.2106,0.0626,105.3982
19:45:19:889,-2.2277,1.8927,9.8345,27.3068,0.205,-0.1412,0.0321,105.2242
19:45:19:891,-2.5651,1.608,9.0832,27.3068,0.1976,-0.1058,-0.0571,105.1394
19:45:19:893,-2.4814,1.2969,9.454,25.3796,-0.1102,0.0811,-0.1121,105.0803
19:45:19:895,-2.2875,1.1557,10.2126,23.695,-0.4401,0.196,-0.0938,105.005
19:45:19:896,-2.1152,1.2371,10.7414,21.1357,-0.6136,0.1263,-0.0424,104.9109
19:45:19:898,-1.6774,1.0122,11.0046,24.1414,-0.6856,-0.1595,0.0418,104.8458
19:45:19:908,-0.8901,0.0048,12.7418,21.3106,-0.8432,-0.4369,0.153,104.7709
19:45:19:921,-0.8279,0.0957,15.0054,22.8646,-0.9825,-0.7325,0.2373,104.6807
19:45:19:940,-0.8016,0.2704,15.6562,22.613,-0.7553,-1.0526,0.3094,104.5515
19:45:19:960,-0.6317,0.0311,14.2206,22.3906,-0.1957,-0.8938,0.4597,104.2007
19:45:19:980,-0.2895,0.134,11.7583,22.4467,0.3601,-0.3379,0.6515,103.475
19:45:20:003,0.6389,0.3374,9.2961,22.2237,0.6827,0.0274,0.8408,102.5449
19:45:20:021,1.5601,0.4714,7.9681,23.3385,0.6399,0.097,0.8592,101.5621
19:45:20:040,1.9262,0.8231,8.0184,22.1221,0.3687,-0.0361,0.6588,100.8248
19:45:20:061,1.9238,1.06,8.2169,23.0137,0.1243,-0.2377,0.3534,100.4554
19:45:20:081,1.3208,1.0959,7.9561,23.0595,0.0388,-0.3391,-0.0473,100.5419
19:45:20:105,0.3876,0.8638,7.4489,23.774,0.0278,-0.2683,-0.3906,101.5076
19:45:20:124,-0.4044,0.7849,7.0086,21.7796,0.0266,-0.096,-0.558,102.0382
19:45:20:144,-1.206,1.3567,6.8052,23.6122,-0.0174,0.1373,-0.3943,102.4283
19:45:20:159,-0.6437,1.6391,7.0851,23.6122,-0.0687,0.0762,-0.2294,102.5562
19:45:20:180,0.0048,1.8449,7.7169,22.8646,-0.142,0.0274,-0.1622,102.6237
19:45:20:203,0.3111,2.1152,8.5998,24.1646,-0.2128,0.1337,-0.2074,102.739
19:45:20:236,-0.1149,2.5077,9.0497,23.3782,-0.2312,0.3389,-0.3027,102.9132
19:45:20:241,-0.5599,2.4694,9.4612,24.3937,-0.2153,0.4379,-0.376,103.1576
19:45:20:259,-0.8686,2.4072,9.8991,23.5097,-0.1896,0.2937,-0.3674,103.4298
19:45:20:280,-1.0361,2.4814,10.5691,22.7312,-0.153,0.0946,-0.2892,103.6832
19:45:20:301,-1.0409,2.5938,11.1075,24.4856,-0.0858,0.0249,-0.1402,103.7361
19:45:20:322,-1.1198,3.0102,10.9352,22.6304,0.0352,0.0787,0.0577,103.5446
19:45:20:340,-1.1127,3.4122,10.9089,23.0837,0.128,0.2399,0.252,103.1361
19:45:20:362,-0.9595,3.4576,11.3492,22.1678,0.1842,0.3524,0.412,102.56
19:45:20:379,-0.9523,3.2351,11.8756,24.4128,0.2795,0.2399,0.4829,101.9344
19:45:20:399,-0.6126,2.8451,11.7799,22.8388,0.453,0.0005,0.5073,101.3534
19:45:20:421,-0.347,2.5053,10.7486,22.9014,0.6142,-0.1424,0.5122,100.8027
19:45:20:440,-0.7178,2.5388,9.8177,23.3323,0.5849,-0.0459,0.4193,100.3388
19:45:20:460,-1.1318,2.5531,9.6263,24.2526,0.3699,0.196,0.3131,99.9537
19:45:20:481,-1.1988,2.4574,10.1551,24.3987,0.062,0.2399,0.2227,99.6958
19:45:20:499,-0.8829,1.6008,11.4903,24.3319,-0.2373,-0.0606,0.1139,99.6774
19:45:20:519,-1.3208,0.9978,12.7346,24.9336,-0.4254,-0.5273,-0.0705,99.9627
19:45:20:538,-2.1583,0.725,12.4834,24.4742,-0.3204,-0.6348,-0.0962,100.3159
19:45:20:558,-3.6538,0.3422,9.612,24.087,0.0327,-0.162,0.1115,100.2866
19:45:20:579,-2.6512,1.5075,8.1978,24.7951,0.205,0.874,0.9081,99.6337
19:45:20:600,-1.5697,1.8879,8.1739,24.6287,0.1268,0.2925,1.0412,97.3752
19:45:20:620,-0.256,1.4836,8.1978,25.6047,0.0596,-0.3269,0.9337,96.5363
19:45:20:641,0.1866,1.2108,8.1571,25.6864,-0.0064,-0.5627,0.6331,96.1085
19:45:20:665,-0.4475,0.9954,7.8628,25.1929,-0.054,-0.399,0.2544,96.0729
19:45:20:685,-1.4501,0.7729,7.3196,24.2813,-0.0699,-0.074,-0.051,96.3271
19:45:20:706,-2.3186,0.682,6.7908,24.6448,-0.1151,0.0714,-0.1695,96.6545
19:45:20:722,-2.656,0.9882,7.0827,23.6115,-0.2739,0.13,-0.0718,96.85
19:45:20:740,-2.0363,1.4812,7.8844,25.0561,-0.3912,0.2717,0.1738,96.705
19:45:20:760,-1.2538,1.9693,7.7599,25.5852,-0.2837,0.3291,0.3595,96.3415
19:45:20:781,-1.1174,2.2851,7.0014,24.8925,-0.0785,0.3206,0.3717,96.024
19:45:20:799,-1.4524,2.5699,6.4774,27.3509,-0.0259,0.2888,0.2666,95.7734
19:45:20:819,-1.608,2.6034,7.054,25.3391,-0.1469,0.1874,0.1909,95.6698
19:45:20:842,-1.4309,2.3689,8.2529,26.2506,-0.2959,-0.0532,0.1384,95.7155
19:45:20:861,-1.3759,1.9693,8.8152,26.0762,-0.3595,-0.4075,0.065,95.914
19:45:20:881,-1.048,1.7587,11.1601,26.2298,-0.4682,-0.3904,0.0223,96.207
19:45:20:900,-1.34,1.5601,11.3181,28.2778,-0.4156,-0.1375,-0.0486,96.5587
19:45:20:920,-1.2706,1.3998,11.2271,25.9269,-0.2361,-0.1803,-0.0608,96.9237
19:45:20:943,-1.3472,1.0863,11.5214,26.3147,-0.2874,-0.1058,-0.0938,97.3251
19:45:20:963,-1.4213,0.9236,12.1842,27.4834,-0.3949,-0.1058,-0.0718,97.7923
19:45:20:982,-1.194,0.8303,12.7633,28.3689,-0.4706,-0.0972,0.0235,98.1548
19:45:21:000,-0.5264,0.6604,12.7322,27.2176,-0.4486,-0.0459,0.1713,98.3782
19:45:21:019,0.1938,0.548,12.3613,26.862,-0.3888,0.0543,0.2581,98.5102
19:45:21:042,0.6461,0.3685,12.4427,28.4918,-0.4071,0.0701,0.1909,98.7077
19:45:21:064,0.0263,0.0191,13.3998,27.8909,-0.4095,-0.1583,-0.1622,99.1241
19:45:21:101,-0.2608,-0.2177,12.816,27.6666,-0.1176,-0.1559,-0.1817,100.0579
19:45:21:104,-0.0383,-0.5288,11.196,29.9481,0.3284,-0.1107,-0.0315,100.6192
19:45:21:121,0.5121,-0.4164,9.7914,28.503,0.6179,-0.2267,0.1457,100.996
19:45:21:138,1.517,-0.3015,9.3009,30.1844,0.6008,-0.5126,0.2397,101.3482
19:45:21:158,2.345,-0.201,9.3583,27.5401,0.3992,-0.7301,0.1555,101.8138
19:45:21:180,2.266,-0.0838,9.5402,28.114,0.2013,-0.6861,-0.117,102.5668
19:45:21:199,1.5816,-0.0861,8.7673,29.115,0.15,-0.3965,-0.3625,103.5282
19:45:21:220,0.2943,0.0048,7.9442,31.1407,0.1622,0.097,-0.5861,104.667
19:45:21:240,-0.3517,0.1531,7.2407,31.1161,0.1585,0.4574,-0.5763,105.7869
19:45:21:261,-0.7226,0.8925,6.9942,30.1458,0.1817,0.3682,-0.3699,106.6223
19:45:21:281,-0.591,1.407,6.9775,31.4071,0.2661,0.0054,-0.2049,107.3377
19:45:21:300,0.0526,1.5194,6.999,30.6808,0.3699,-0.322,-0.0889,108.0033
19:45:21:322,0.5862,1.7468,6.9942,31.2768,0.42,-0.3831,-0.0681,108.6769
19:45:21:340,0.9284,2.0818,6.6927,31.8031,0.3809,-0.151,-0.1414,109.3593
19:45:21:363,0.67,2.5029,6.9559,31.9428,0.2294,0.1557,-0.2538,110.0974
19:45:21:380,0.6437,2.5268,7.7145,33.0919,0.0229,0.2558,-0.3247,110.9131
19:45:21:399,0.2513,2.8163,8.7697,32.9334,-0.1652,0.1031,-0.4029,111.8214
19:45:21:420,-0.0526,2.6034,9.7005,33.6848,-0.2703,-0.0154,-0.5409,112.9574
19:45:21:442,-0.6078,2.2181,10.2843,33.0045,-0.2886,0.0311,-0.624,114.2159
19:45:21:466,-1.5051,2.2445,10.617,36.0988,-0.2703,0.1422,-0.5983,115.3658
19:45:21:487,-2.2875,2.5388,11.3587,33.6175,-0.2617,0.3218,-0.4004,116.8137
19:45:21:515,-2.3163,2.8786,11.7535,35.7427,-0.0125,0.4904,0.2776,116.3475
19:45:21:521,-1.5864,2.8259,11.4927,34.7303,0.1158,0.4379,0.5464,116.2574
19:45:21:543,-0.9284,2.6752,11.4927,34.9203,0.1634,0.4232,0.6979,116.0271
19:45:21:567,-0.9452,2.7422,11.0716,34.6789,0.1647,0.4037,0.6771,115.8359
19:45:21:586,-1.4692,2.6776,11.074,36.6112,0.0865,0.3976,0.5427,115.7605
19:45:21:603,-1.7611,1.8712,11.7057,35.4748,-0.0601,0.2876,0.4181,115.8948
19:45:21:621,-2.3928,0.7178,12.8495,36.7477,-0.2031,-0.0325,0.3399,116.1855
19:45:21:640,-2.7709,0.1388,14.0578,37.9368,-0.2666,-0.3037,0.4193,116.5411
19:45:21:660,-2.68,0.1938,12.5456,38.414,0.0975,-0.2011,0.7407,116.5272
19:45:21:680,-2.2373,0.5743,9.2459,38.7888,0.6216,0.2534,1.0717,116.0331
19:45:21:700,-1.4429,1.0289,6.8387,38.3947,0.7719,0.4574,1.2623,115.2755
19:45:21:719,-0.6341,1.4692,6.1543,40.7,0.5116,0.2204,1.2269,114.5986
19:45:21:739,-0.0981,1.5864,6.8722,38.8274,0.0962,-0.1278,1.007,114.2818
19:45:21:759,0.1196,1.3017,7.6044,38.7497,-0.1884,-0.3379,0.7028,114.3043
19:45:21:781,-0.1771,0.7585,7.5781,38.8274,-0.2751,-0.3636,0.3741,114.7361
19:45:21:800,-0.9667,0.3661,7.5565,39.7554,-0.335,-0.1999,0.0968,115.3933
19:45:21:821,-1.6774,0.213,8.0973,39.5617,-0.4694,0.0591,-0.0424,116.1718
19:45:21:847,-2.4263,0.524,8.9276,42.0831,-0.5671,0.323,-0.0253,116.8205
19:45:21:865,-2.6058,0.7035,9.0592,40.7572,-0.4462,0.4806,0.1384,117.2797
19:45:21:884,-2.3115,1.0457,8.1882,42.0217,-0.1249,0.4391,0.3937,117.3884
19:45:22:009,-1.6199,1.4788,6.8315,43.3116,0.1647,0.2913,0.6258,117.2313
19:45:22:010,-0.9571,1.9501,5.9797,43.4295,0.2306,0.119,0.7187,117.0221
19:45:22:011,-0.5647,2.3641,6.2237,43.4896,0.0474,-0.0044,0.6246,117.1281
19:45:22:012,-0.8495,2.0578,8.9611,43.3947,-0.5195,-0.0239,0.1212,116.9752
19:45:22:013,-1.2586,1.8544,10.3825,42.0945,-0.5671,-0.1375,-0.0864,117.7242
19:45:22:027,-1.4644,1.6941,11.2606,43.7364,-0.4401,-0.4564,-0.1683,118.6237
19:45:22:027,-1.0528,1.328,11.7344,45.2745,-0.2605,-0.8278,-0.1951,119.6384
19:45:22:039,-0.2058,0.6628,11.4233,44.668,-0.1652,-1.1442,-0.2636,120.8431
19:45:22:060,0.3374,0.0574,12.8949,45.9649,-0.3436,-0.9842,-0.3613,122.1348
19:45:22:080,0.1268,-0.0718,13.2802,46.0471,-0.5024,-0.625,-0.4444,123.4526
19:45:22:099,-0.0981,-0.1699,13.1366,44.3357,-0.4951,-0.4222,-0.3992,124.6701
19:45:22:119,0.0933,-0.4403,13.2897,45.5516,-0.4596,-0.129,-0.2685,125.6683
19:45:22:140,0.6317,-0.6078,13.541,44.9378,-0.412,0.0543,-0.084,126.4429
19:45:22:163,1.0098,-0.6485,13.6152,46.8239,-0.3142,0.0347,0.0137,127.1282
19:45:22:181,1.0122,-0.5934,13.5458,47.3652,-0.1664,-0.0508,0.015,127.8245
19:45:22:200,0.804,-0.5216,12.7896,45.3164,0.0645,-0.008,0.015,128.5235
19:45:22:221,0.8207,-0.5982,11.1123,47.4385,0.3907,0.1948,0.0919,129.0771
19:45:22:246,1.06,-0.5432,9.3272,47.7433,0.6436,0.3304,0.208,129.4548
19:45:22:262,1.3567,-0.3159,8.059,46.0471,0.6802,0.2729,0.2947,129.7613
19:45:22:279,1.584,0.0502,7.5135,46.1055,0.5483,0.0946,0.2923,130.0474
19:45:22:300,1.6774,0.4068,7.2526,47.9689,0.3833,-0.0606,0.1946,130.4465
19:45:22:320,1.395,0.5743,6.9153,46.2375,0.2551,-0.1339,0.0162,131.0598
19:45:22:340,1.017,0.5384,6.4319,46.1911,0.1451,-0.1436,-0.1817,131.8057
19:45:22:359,0.3422,0.6508,6.1854,49.4354,-0.0039,-0.1168,-0.3625,132.7734
19:45:22:379,-0.4283,0.9284,6.6975,49.6906,-0.1957,-0.0764,-0.4774,133.8847
19:45:22:399,-0.6293,1.1031,7.9107,49.2581,-0.3142,-0.1412,-0.4444,134.9816
19:45:22:422,0.5767,0.9356,8.2648,47.8245,-0.0247,-0.5224,-0.2049,136.2326
19:45:22:442,1.0146,1.2969,8.0542,48.322,0.0498,-0.4747,-0.1695,136.9791
19:45:22:459,1.139,1.6319,8.2217,45.9654,-0.0662,-0.1656,-0.2355,137.6975
19:45:22:480,0.9428,1.9406,9.2554,47.1793,-0.2593,0.1862,-0.3699,138.5193
19:45:22:500,0.6341,1.9765,10.3346,50.5235,-0.3949,0.2729,-0.4688,139.4153
19:45:22:519,-0.0096,1.8664,11.0357,49.4325,-0.4034,0.2461,-0.5397,140.4098
19:45:22:539,-0.6724,1.651,11.6435,48.8753,-0.3423,0.2913,-0.525,141.3266
19:45:22:559,-1.0672,2.0602,12.5886,48.1414,-0.2128,0.5063,-0.3259,141.9735
19:45:22:580,-1.0528,2.2995,12.2393,47.8035,0.0608,0.6419,0.0162,142.1908
19:45:22:600,-1.0002,2.3617,11.5932,49.2177,0.3113,0.7616,0.2703,142.1307
19:45:22:619,-0.7633,2.4383,11.677,49.9821,0.3503,0.8716,0.4487,141.8669
19:45:22:640,-0.4259,2.2516,11.7464,48.1894,0.3284,0.9315,0.5672,141.4646
19:45:22:660,-0.2513,2.0937,11.4281,50.0102,0.3894,0.863,0.588,141.0403
19:45:22:683,-0.3876,2.0028,10.9807,47.7265,0.4286,0.6871,0.544,140.6939
19:45:22:699,-0.9308,2.0889,10.3777,48.3438,0.4053,0.5258,0.4548,140.4232
19:45:22:723,-1.675,2.0506,10.148,48.3013,0.321,0.4379,0.3558,140.25
19:45:22:741,-2.1248,1.6487,10.3609,49.5243,0.1989,0.3743,0.3131,140.1069
19:45:22:760,-2.1799,0.9595,10.9902,49.5243,0.1133,0.2094,0.346,139.9585
19:45:22:780,-2.3952,0.5504,10.9854,49.7334,0.1304,0.0176,0.4279,139.756
19:45:22:800,-2.3115,0.5168,9.7364,48.9107,0.2954,0.0921,0.6124,139.3267
19:45:22:826,-1.9454,0.7633,8.3486,49.8343,0.4481,0.2864,0.8042,138.6498
19:45:22:841,-1.6199,0.9093,7.736,46.8858,0.3748,0.2717,0.8665,137.8715
19:45:22:863,-1.2945,1.0361,8.1093,48.1445,0.1439,0.053,0.8152,136.8218
19:45:22:880,-0.3924,0.5456,9.6359,48.6839,-0.1957,-0.6959,0.5159,136.4478
19:45:22:898,-0.615,0.4475,9.4947,49.4818,-0.175,-0.6555,0.3057,136.5093
19:45:22:922,-1.0911,0.4355,9.1143,48.6648,-0.1212,-0.2866,0.1432,136.6656
19:45:22:944,-1.2467,0.5312,8.4347,49.1205,-0.0381,0.0139,0.0797,136.8356
19:45:22:959,-1.2514,0.6987,7.5182,49.2992,0.0596,0.0604,0.0932,136.9281
19:45:22:979,-1.4142,1.0911,7.0827,48.8833,0.0938,0.0237,0.1298,136.9673
19:45:23:004,-1.3878,1.5553,6.9559,48.895,0.084,0.0689,0.1799,136.9505
19:45:23:019,-0.7442,1.7324,6.5468,48.844,0.1561,-0.0068,0.2752,136.8215
19:45:23:040,-0.5815,2.0028,5.884,48.595,0.2038,-0.162,0.252,136.7632
19:45:23:060,-0.5791,2.2277,5.4126,48.7193,0.0632,-0.3037,0.1237,136.8295
19:45:23:081,-0.3613,2.2875,7.6929,47.9247,-0.3155,-0.1461,-0.029,137.0463
19:45:23:098,-0.4546,2.0219,8.7505,47.6425,-0.5,-0.0618,-0.2452,137.4804
19:45:23:121,-0.6461,1.6463,9.5689,48.4048,-0.5085,-0.2499,-0.4016,138.1292
19:45:23:140,-1.2778,1.529,10.7773,47.5825,-0.5671,-0.1302,-0.5116,138.8557
19:45:23:160,-1.6845,1.5075,11.7153,47.8019,-0.5488,-0.0312,-0.4981,139.5492
19:45:23:180,-1.3328,0.859,12.2608,49.7964,-0.5024,-0.0911,-0.4652,140.1807
19:45:23:200,-0.8519,0.3517,12.8447,49.7033,-0.4816,-0.2622,-0.4334,140.85
19:45:23:239,-0.6054,0.2728,13.7444,47.2106,-0.5195,-0.3147,-0.3821,141.4789
19:45:23:245,-0.3087,0.0981,14.0172,48.4935,-0.4572,-0.1534,-0.2746,141.9393
19:45:23:257,-0.1005,0.0239,13.4501,49.6816,-0.3069,0.0298,-0.1817,142.263
19:45:23:277,0.4092,-0.1723,13.3687,51.5702,-0.2654,0.1019,-0.1182,142.5418
19:45:23:297,0.8064,-0.4498,13.6367,47.6917,-0.2751,0.0433,-0.1304,142.8206
19:45:23:319,0.615,-0.4905,13.6391,48.7607,-0.1799,0.0347,-0.1988,143.1854
19:45:23:339,0.0479,-0.4475,10.8179,47.9812,0.5128,0.356,-0.1182,143.6808
19:45:23:360,0.2776,-0.5025,9.4732,47.5008,0.734,0.3524,0.0369,143.7192
19:45:23:380,0.9978,-0.3398,8.9252,48.5088,0.6851,0.1679,0.1884,143.6402
19:45:23:404,1.9286,-0.1172,9.3081,47.1332,0.475,-0.0532,0.2165,143.5598
19:45:23:422,2.2851,0.055,9.454,48.3046,0.3003,-0.1168,0.0443,143.6917
19:45:23:444,1.4309,0.1819,9.1047,49.1267,0.2416,0.0665,-0.2697,144.1014
19:45:23:458,0.213,0.2943,8.5615,49.3305,0.2526,0.2668,-0.5189,144.7461
19:45:23:478,-0.5934,0.2871,7.7719,48.0167,0.3308,0.3316,-0.5776,145.3977
19:45:23:500,-0.8207,0.5049,7.1067,47.6949,0.4078,0.2974,-0.4615,145.9053
19:45:23:523,-0.5168,0.9691,6.731,48.0383,0.4286,0.1752,-0.2685,146.2285
19:45:23:540,0.0311,1.4022,6.5444,48.3594,0.4176,0.097,-0.128,146.4095
19:45:23:560,0.4642,1.663,6.3482,46.4402,0.3772,0.086,-0.1133,146.5887
19:45:23:580,0.5743,2.0076,6.25,49.1814,0.2734,0.0811,-0.2159,146.8794
19:45:23:604,0.3063,2.3234,6.7358,48.1042,0.0816,0.0714,-0.3638,147.3159
19:45:23:621,-0.0502,2.3809,7.7193,47.5111,-0.1249,0.0347,-0.5116,147.916
19:45:23:642,-0.5025,2.2875,8.5854,50.1237,-0.2348,-0.0276,-0.6081,148.624
19:45:23:660,-0.8542,2.2588,9.4158,48.93,-0.2727,-0.1363,-0.6338,149.3735
19:45:23:680,-1.139,2.2995,10.069,47.5164,-0.2935,-0.2059,-0.5971,150.0808
19:45:23:704,-1.742,2.4837,10.7366,48.93,-0.2751,-0.0972,-0.5238,150.6614
19:45:23:720,-2.3234,2.5508,11.4353,48.7278,-0.1896,0.0518,-0.3748,151.048
19:45:23:742,-2.4,2.5125,12.1962,49.3712,-0.0357,0.0555,-0.117,151.1715
19:45:23:759,-1.6869,2.3976,12.6269,48.93,0.1964,-0.0593,0.2141,150.9309
19:45:23:778,-1.005,2.5101,11.9067,48.8594,0.5006,-0.074,0.4841,150.429
19:45:23:800,-0.7992,2.7159,9.119,48.1704,0.6937,0.053,0.5611,149.768
19:45:23:820,-0.8542,2.5555,8.8223,50.9045,0.3271,-0.1033,0.4169,148.7123
19:45:23:840,-1.2873,2.2038,10.5308,48.3097,-0.2886,-0.2108,0.2251,148.519
19:45:23:860,-1.8975,1.5697,13.0887,48.0383,-0.7687,-0.311,0.0932,148.4852
19:45:23:880,-2.4646,1.1318,14.5149,48.7938,-0.715,-0.4234,0.1237,148.4422
19:45:23:902,-2.5268,0.7131,13.0768,49.3565,-0.0797,-0.3269,0.3864,148.0638
19:45:23:921,-2.3593,0.7729,9.8321,49.8078,0.7071,-0.0166,0.7737,147.2151
19:45:23:939,-1.7204,1.2754,7.4895,49.401,1.0199,0.0396,1.0498,146.0594
19:45:23:958,-0.5623,1.5099,6.9918,48.5139,0.7792,-0.1021,1.1206,144.8867
19:45:23:978,0.2656,1.5147,7.6786,49.8937,0.3406,-0.2218,0.9496,143.9209
19:45:24:000,0.481,1.2443,8.5878,49.3608,0.0217,-0.2426,0.6124,143.3249
19:45:24:145,0.1819,0.7346,8.7673,51.538,-0.0675,-0.1937,0.2679,143.0916
19:45:24:147,-0.3493,0.4451,8.485,49.9979,-0.032,-0.1388,0.0333,143.069
19:45:24:148,-1.0217,0.4211,8.4467,51.1825,-0.0418,-0.1571,-0.0669,143.1313
19:45:24:148,-1.4477,0.5767,8.918,50.2962,-0.109,-0.184,-0.0461,143.191
19:45:24:149,-1.6199,0.8136,9.0473,48.6469,-0.0797,-0.1131,0.0712,143.1255
19:45:24:150,-1.5051,1.2347,7.9992,48.0821,0.1158,0.0885,0.2471,142.817
19:45:24:150,-1.1749,1.6104,6.4487,47.744,0.3088,0.2974,0.4035,142.2971
19:45:24:162,-0.95,2.1009,5.4724,50.0556,0.2771,0.4098,0.4804,141.6694
19:45:24:178,-0.6772,2.5914,5.5705,49.2868,0.0022,0.4183,0.4731,141.016
19:45:24:200,-0.4379,2.8235,6.4869,48.7663,-0.3582,0.356,0.3705,140.493
19:45:24:219,-0.5025,2.924,8.0303,48.7589,-0.6637,0.1996,0.1677,140.2303
19:45:24:239,-0.7825,2.7852,9.7364,47.7464,-0.8127,-0.0093,-0.0376,140.2357
19:45:24:261,-1.4429,2.3426,11.7823,48.2505,-0.5537,-0.4967,-0.1976,140.7136
19:45:24:277,-1.3089,1.9358,11.9761,49.3772,-0.3558,-0.6849,-0.1328,140.9489
19:45:24:298,-1.0146,1.7492,12.3613,48.1178,-0.28,-0.6971,-0.0156,141.0678
19:45:24:319,-0.4905,1.5075,12.859,50.777,-0.2861,-0.548,0.1322,140.9934
19:45:24:339,0.0407,1.3711,13.2204,51.1576,-0.2776,-0.2976,0.2923,140.7043
19:45:24:359,0.6293,1.4883,13.0122,49.8025,-0.1872,-0.0471,0.4413,140.2179
19:45:24:380,1.2084,1.6104,12.737,48.4941,-0.0699,0.0433,0.4988,139.6641
19:45:24:401,1.8927,1.3161,12.5743,49.2405,0.0193,-0.0838,0.423,139.2099
19:45:24:420,2.0172,0.7226,12.5934,50.6787,0.0498,-0.2988,0.1982,139.0521
19:45:24:440,1.3759,0.3613,12.8303,48.8748,0.0327,-0.3501,-0.0461,139.1972
19:45:24:458,0.8088,0.0455,12.1771,49.9961,0.1488,-0.0948,-0.1182,139.3662
19:45:24:480,0.7753,-0.201,10.5595,49.323,0.3956,0.2607,-0.0022,139.3331
19:45:24:500,1.1988,-0.1412,9.1741,49.8025,0.5373,0.4135,0.1628,139.1035
19:45:24:520,1.7157,0.0311,8.3175,49.3169,0.4872,0.323,0.2569,138.7949
19:45:24:539,1.9597,0.2034,7.9657,50.9813,0.3113,0.1483,0.2068,138.5576
19:45:24:558,1.7037,0.3517,7.7384,49.0466,0.1366,0.0885,0.0541,138.4876
19:45:24:578,1.0026,0.4307,7.3555,49.6539,0.0352,0.1544,-0.1133,138.5862
19:45:24:599,0.2871,0.6102,6.7597,49.5289,0.0205,0.2412,-0.2135,138.7605
19:45:24:619,-0.1627,0.7849,5.9845,48.8466,0.0449,0.2742,-0.2306,138.9382
19:45:24:639,-0.3278,0.8973,5.4293,49.323,0.0242,0.229,-0.1988,139.0698
19:45:24:658,-0.1866,1.2371,5.4748,49.4298,-0.098,0.1105,-0.1622,139.1854
19:45:24:679,0.0622,1.5936,6.274,50.5668,-0.2813,0.003,-0.1561,139.3073
19:45:24:698,0.2752,1.7683,7.1976,49.9952,-0.4108,-0.0117,-0.1976,139.4964
19:45:24:719,0.3829,2.0937,8.2193,50.2949,-0.4315,0.0249,-0.3283,140.1106
19:45:24:737,0.4211,2.2277,8.8199,49.8206,-0.4633,0.0335,-0.3674,140.472
19:45:24:759,0.0191,2.4431,9.8106,50.5126,-0.5219,-0.0031,-0.4261,140.8884
19:45:24:784,-0.3709,2.4407,10.8515,49.941,-0.5647,-0.1241,-0.4542,141.3217
19:45:24:802,-0.8112,2.467,11.7655,51.6083,-0.5195,-0.2243,-0.4102,141.7299
19:45:24:825,-1.0911,2.522,12.3517,50.4482,-0.3717,-0.2255,-0.2562,141.9607
19:45:24:838,-0.7753,2.546,12.7418,50.9772,-0.164,-0.162,0.0052,141.9045
19:45:24:858,0.0526,2.6488,13.1797,50.952,0.0352,-0.0838,0.2752,141.5593
19:45:24:880,1.0098,2.4885,13.3807,50.8191,0.2013,-0.0068,0.4316,141.0341
19:45:24:899,0.9858,2.2732,13.1127,51.132,0.3259,0.0201,0.3668,140.5855
19:45:24:919,0.2297,2.0435,12.5169,50.7441,0.3711,0.0262,0.2031,140.3077
19:45:24:938,-0.5336,1.8042,12.0957,50.744,0.3662,0.0824,0.1176,140.1143
19:45:24:957,-1.1151,1.6534,11.7009,50.744,0.3907,0.1263,0.1506,139.8717
19:45:24:980,-1.0289,1.3161,11.4855,50.7441,0.4505,0.0543,0.2593,139.5285
19:45:25:003,-0.9834,1.2562,11.1984,50.7441,0.5079,-0.1229,0.3644,139.1023
19:45:25:018,-0.8471,1.2371,10.2748,51.0795,0.6081,-0.1546,0.4389,138.6064
19:45:25:037,-0.5767,1.0504,8.9827,52.523,0.6937,-0.0557,0.4523,138.0721
19:45:25:057,-0.3422,1.005,8.4682,51.0393,0.5813,-0.0899,0.3839,137.6378
19:45:25:079,-0.2273,0.9141,9.1358,50.8191,0.2722,-0.2573,0.252,137.3674
19:45:25:098,-0.2441,0.5958,10.1623,51.313,0.0058,-0.3526,0.0919,137.3204
19:45:25:119,-0.3398,0.3398,10.3944,51.886,-0.0247,-0.2988,-0.0168,137.3725
19:45:25:139,-0.4164,0.2393,9.4804,53.5855,0.1463,-0.0997,-0.0449,137.4001
19:45:25:162,-0.524,0.3972,8.1978,50.3667,0.3223,0.1434,0.0015,137.1328
19:45:25:180,-0.4738,0.7585,6.4295,51.5775,0.3369,0.4415,0.12,136.9058
19:45:25:197,-0.6843,1.2658,6.1208,51.6708,0.216,0.4819,0.1591,136.5571
19:45:25:217,-0.6915,1.6439,6.0993,53.1769,0.1219,0.5051,0.2227,136.1494
19:45:25:238,-0.6413,1.9621,5.8768,51.0795,0.1158,0.4684,0.2752,135.6736
19:45:25:259,-0.4331,2.1344,5.5561,52.1781,0.1182,0.3353,0.2837,135.2254
19:45:25:280,-0.1388,2.2588,5.6566,51.1686,0.0009,0.1276,0.2165,134.8824
19:45:25:301,-0.1531,2.2373,6.731,51.3604,-0.2849,-0.0655,0.0699,134.7674
19:45:25:321,-0.481,2.1535,8.5591,51.7979,-0.5867,-0.1656,-0.0876,134.8406
19:45:25:347,-0.871,2.0794,10.325,50.3571,-0.7247,-0.2646,-0.2037,135.0656
19:45:25:363,-1.0624,1.8233,11.3994,52.0661,-0.6331,-0.3965,-0.244,135.3324
19:45:25:379,-0.9021,1.5338,11.6052,51.5887,-0.4291,-0.4784,-0.1927,135.5941
19:45:25:396,-0.5791,1.3735,11.5597,52.7983,-0.2971,-0.4454,-0.0815,135.7068
19:45:25:416,0.0311,1.1629,11.9402,52.6933,-0.3142,-0.3342,0.0272,135.7118
19:45:25:436,0.4738,1.1151,12.4116,52.7686,-0.3875,-0.1791,0.0956,135.5963
19:45:25:456,1.0863,1.1557,12.3829,52.3428,-0.401,0.0213,0.1457,135.4195
19:45:25:477,1.7611,0.8471,12.1699,51.4656,-0.3985,0.1385,0.1237,135.2491
19:45:25:498,2.266,0.2991,12.871,51.9366,-0.5317,-0.0288,-0.0315,135.3086
19:45:25:517,2.3521,-0.1436,14.4909,53.0145,-0.7492,-0.4149,-0.2624,135.6533
19:45:25:537,1.7013,-0.4379,15.4624,52.6481,-0.7565,-0.5883,-0.4639,136.2322
19:45:25:558,0.6748,-0.737,14.6584,52.2275,-0.3668,-0.311,-0.514,136.8174
19:45:25:580,0.1986,-0.9165,12.5264,50.8936,0.1927,0.1153,-0.288,137.1168
19:45:25:600,0.7274,-0.7107,10.6074,53.4249,0.5776,0.3548,0.1164,136.4384
19:45:25:619,1.9358,-0.3757,9.5689,52.3428,0.6839,0.3316,0.4523,135.8291
19:45:25:637,2.8905,0.4331,8.0997,52.6991,0.5092,0.3304,0.3302,135.4731
19:45:25:658,1.8568,0.7753,7.413,52.2698,0.376,0.4073,-0.0143,135.42
19:45:25:680,0.725,0.8877,6.9464,52.2146,0.2771,0.4,-0.3027,135.6671
19:45:25:700,-0.0191,1.005,6.4845,52.6602,0.2477,0.2925,-0.4163,136.0193
19:45:25:718,-0.0814,1.1844,6.0778,53.9662,0.2392,0.152,-0.3601,136.3333
19:45:25:741,0.1555,1.6128,5.9916,52.2698,0.1989,0.075,-0.2404,136.5341
19:45:25:759,0.5743,1.9286,6.0467,51.8826,0.1268,0.1007,-0.1658,136.6422
19:45:25:779,0.7968,2.1894,6.1926,53.1576,0.0327,0.1471,-0.1915,136.7731
19:45:25:798,0.7466,2.4215,6.7406,54.273,-0.0956,0.1349,-0.2941,137.0312
19:45:25:817,0.6532,2.3976,7.6762,51.9444,-0.2324,0.0518,-0.4029,137.4147
19:45:25:838,0.4044,2.3521,8.6142,53.2332,-0.3069,-0.0606,-0.4639,137.887
19:45:25:863,0.3493,2.3282,9.5306,51.16,-0.302,-0.1937,-0.4615,138.3824
19:45:25:883,0.3924,2.2923,10.282,51.9948,-0.2531,-0.3135,-0.4261,138.8527
19:45:25:900,0.0383,2.4167,10.6863,51.7276,-0.1921,-0.3037,-0.3955,139.2837
19:45:25:916,-0.6628,2.7182,11.4209,55.1349,-0.1725,-0.1339,-0.3357,139.6227
19:45:25:937,-0.8471,2.7876,12.3374,51.9788,-0.1346,0.0518,-0.1756,139.7375
19:45:25:958,-0.5121,2.7757,12.9117,53.7738,0.0254,0.1398,0.0394,139.615
19:45:25:977,0.2369,2.7494,13.2897,52.4558,0.2465,0.0946,0.219,139.3377
19:45:25:998,0.603,2.5842,12.6437,51.3826,0.4872,0.0653,0.2801,138.9973
19:45:26:016,0.055,2.3378,11.3324,53.552,0.6582,0.0701,0.1909,138.7577
19:45:26:038,-0.6676,2.2181,10.5691,52.2589,0.6191,0.0372,0.0883,138.5997
19:45:26:059,-0.9595,2.1176,10.94,51.7196,0.376,-0.0312,0.087,138.3495
19:45:26:078,-0.9739,1.5434,11.9928,50.9773,0.0987,-0.2084,0.1322,138.2272
19:45:26:098,-0.591,0.4738,12.2154,50.9069,0.1182,-0.4992,0.3045,138.0132
19:45:26:116,-0.67,0.5456,9.8848,53.5293,0.4909,-0.0948,0.4633,137.5184
19:45:26:136,-0.7083,0.8782,7.87,53.4716,0.6705,0.1948,0.5562,136.8408
19:45:26:160,-0.3661,1.1198,7.2335,54.273,0.4847,0.1361,0.5684,136.1548
19:45:26:270,0,1.2227,8.0518,54.6061,0.1341,-0.0361,0.4768,135.6198
19:45:26:271,0.1747,0.9763,9.1669,53.8046,-0.1029,-0.1925,0.3008,135.3132
19:45:26:271,-0.0311,0.7202,9.1573,53.8182,-0.087,-0.2267,0.1335,135.1907
19:45:26:271,-0.5456,0.7394,8.2792,53.5751,0.0388,-0.1375,0.026,135.1609
19:45:26:272,-0.8519,0.6054,7.59,50.6208,0.0632,-0.0141,-0.0022,135.1349
19:45:26:279,-1.1031,0.8159,7.59,51.2652,-0.0455,0.0995,0.0479,135.0568
19:45:26:297,-0.9619,1.3352,8.0447,51.7888,-0.1579,0.2326,0.175,134.7892
19:45:26:317,-0.6174,1.6822,7.9872,51.3523,-0.1151,0.389,0.3057,134.3681
19:45:26:338,-0.469,1.9478,7.3436,51.4589,0.0339,0.4978,0.3534,133.869
19:45:26:358,-0.3206,2.1535,6.8435,51.7855,0.1024,0.4745,0.3326,133.4059
19:45:26:377,-0.2441,2.3617,6.9846,52.1094,0.0278,0.3756,0.2617,133.0306
19:45:26:397,-0.2273,2.4479,7.8915,50.212,-0.1237,0.2754,0.1579,132.7903
19:45:26:417,-0.2034,2.2971,8.808,51.3826,-0.2251,0.1984,0.0577,132.6896
19:45:26:437,-0.4211,2.1703,9.4229,50.8877,-0.208,0.1496,-0.0266,132.6922
19:45:26:457,-0.6078,2.1727,10.0331,52.4975,-0.1359,0.0311,-0.084,132.7707
19:45:26:477,-0.6221,2.1488,11.062,49.714,-0.0345,-0.0997,-0.0974,132.9
19:45:26:499,-0.2728,1.8808,11.9617,52.2589,0.1243,-0.2182,-0.073,133.0369
19:45:26:520,0.268,1.6367,11.7799,51.3754,0.3125,-0.3184,-0.0339,133.1824
19:45:26:541,0.8088,1.5218,11.531,52.3333,0.3369,-0.3342,-0.0009,133.3263
19:45:26:557,1.718,1.395,12.0072,49.866,-0.076,-0.0826,-0.0217,133.5215
19:45:26:577,1.8568,1.2156,12.3063,51.3826,-0.2385,-0.0435,-0.1365,133.7701
19:45:26:597,1.8568,0.6748,12.7202,50.7292,-0.3863,-0.2011,-0.288,134.189
19:45:26:618,1.4405,0.3517,13.2371,49.7614,-0.4645,-0.3293,-0.4151,134.777
19:45:26:641,0.7035,0.2249,13.1438,51.0136,-0.357,-0.2793,-0.4542,135.4003
19:45:26:661,0.2345,0.0646,11.787,49.2609,-0.0528,-0.0386,-0.3308,135.8574
19:45:26:679,0.3589,0.1795,10.1169,49.9873,0.2563,0.218,-0.062,135.9787
19:45:26:697,1.2036,0.3996,9.0999,50.9144,0.3894,0.2803,0.2361,135.7855
19:45:26:717,2.5029,0.4738,8.5089,49.445,0.3565,0.1776,0.4157,135.3824
19:45:26:739,3.1992,0.9643,8.1763,51.0278,0.2343,0.0848,0.3473,135.0838
19:45:26:758,2.7326,1.3089,7.7527,49.1332,0.0889,0.0995,0.0504,135.0899
19:45:26:777,1.5027,1.4237,7.4417,50.9884,-0.0284,0.1606,-0.3283,135.473
19:45:26:798,0.5551,1.2251,7.0445,49.1263,-0.087,0.1679,-0.5886,136.1114
19:45:26:816,0.0909,1.261,6.743,49.0112,-0.0968,0.1483,-0.6558,136.8411
19:45:26:837,0.1244,1.5027,6.6664,48.1505,-0.1249,0.0824,-0.6142,137.526
19:45:26:858,0.3709,1.9143,7.0277,48.917,-0.1835,0.0115,-0.5763,138.173
19:45:26:876,0.5168,2.1416,7.4991,48.722,-0.2483,-0.0019,-0.6044,138.8506
19:45:26:897,0.4714,2.1846,7.9992,48.5542,-0.2813,0.0188,-0.6777,139.6096
19:45:26:917,0.335,2.1799,8.3581,48.5542,-0.2923,0.0286,-0.7449,140.4448
19:45:26:939,-0.0383,2.3067,8.6931,50.3235,-0.2898,0.0799,-0.7694,141.2842
19:45:26:958,-0.3063,2.388,9.2148,49.5759,-0.2959,0.1324,-0.7291,142.0701
19:45:26:978,-0.4953,2.467,9.8058,50.1751,-0.291,0.1263,-0.6386,142.7523
19:45:26:997,-0.6748,2.6201,10.4207,46.9074,-0.2458,0.1056,-0.5177,143.3249
19:45:27:015,-1.2251,3.0556,10.8203,48.4708,-0.0516,0.1667,-0.2306,143.9182
19:45:27:036,-0.9619,3.0078,11.2845,47.7485,-0.0113,0.1569,-0.0547,143.9722
19:45:27:058,-0.4929,2.814,12.189,49.0182,-0.0491,-0.0227,0.0602,143.9449
19:45:27:078,-0.4044,3.0317,13.6343,48.1942,-0.1799,-0.1986,0.0834,143.9098
19:45:27:097,-0.615,2.9862,14.7039,48.7116,-0.1908,-0.0948,0.1066,143.8353
19:45:27:120,-1.2706,2.7948,13.8401,47.8829,0.0975,0.1752,0.1347,143.6979
19:45:27:141,-1.8449,2.6536,11.988,48.3658,0.4762,0.4,0.1823,143.4406
19:45:27:157,-1.8879,2.4861,10.538,46.4695,0.6436,0.3731,0.2813,143.0929
19:45:27:179,-1.4429,1.9884,10.5954,47.9742,0.5776,0.1227,0.3632,142.7202
19:45:27:196,-1.0313,1.1414,11.1434,49.2361,0.4725,-0.2145,0.3717,142.4255
19:45:27:216,-1.4381,1.0265,11.0788,47.6765,0.4945,-0.3526,0.3522,142.1816
19:45:27:239,-1.8353,1.0193,9.8369,46.3905,0.6802,-0.1216,0.4365,141.7793
19:45:27:256,-1.9549,1.3065,8.2385,47.0679,0.8427,0.1263,0.5684,141.1671
19:45:27:276,-1.5649,1.3137,7.0421,46.7064,0.8109,0.2045,0.6454,140.4675
19:45:27:296,-1.0385,1.2012,6.6903,47.1436,0.5788,0.152,0.6478,139.7905
19:45:27:316,-0.7298,1.2084,7.2814,46.0095,0.2453,0.0017,0.5525,139.2558
19:45:27:338,-0.4331,0.9284,7.9848,46.8328,-0.0113,-0.063,0.4242,138.9053
19:45:27:357,-0.414,0.5264,8.0949,47.4359,-0.0894,-0.0166,0.2996,138.6733
19:45:27:378,-0.5551,0.3709,8.2217,46.1288,-0.1664,-0.0312,0.2055,138.5526
19:45:27:397,-0.8877,0.5049,8.9444,46.495,-0.3399,-0.0655,0.1872,138.4407
19:45:27:422,-1.0552,0.9141,9.6933,46.3978,-0.4572,0.0213,0.274,138.207
19:45:27:440,-0.8279,1.2036,9.5952,45.8738,-0.3472,0.2815,0.4352,137.0282
19:45:27:458,-0.95,1.8281,8.5089,46.2326,-0.0736,0.5759,0.5659,136.1729
19:45:27:480,-0.7155,2.4072,6.1639,44.6087,0.2807,0.8374,0.7187,135.168
19:45:27:494,-0.4881,2.8163,5.9294,45.7239,0.194,0.7115,0.7395,134.2054
19:45:27:516,0.0096,3.0724,6.3338,46.9112,-0.0076,0.4965,0.693,133.3667
19:45:27:534,0.5168,3.0532,7.2263,44.9774,-0.2202,0.2962,0.5684,132.7596
19:45:27:555,0.5408,3.1418,8.351,45.1059,-0.357,0.1483,0.3448,132.4261
19:45:27:576,0.2249,3.0676,9.5378,45.7647,-0.4144,0.0188,0.0968,132.3731
19:45:27:597,-0.256,2.9288,10.4734,44.2031,-0.4132,-0.1791,-0.0901,132.565
19:45:27:620,-0.4331,2.68,11.7153,44.5951,-0.3973,-0.4491,-0.1829,132.9451
19:45:27:636,0.0383,2.1057,12.2225,44.8541,-0.3228,-0.6702,-0.1988,133.4076
19:45:27:655,0.3159,1.7061,11.9426,43.5699,-0.2238,-0.6348,-0.1854,133.8616
19:45:27:676,0.7777,1.584,11.5143,44.8469,-0.2312,-0.3648,-0.1035,134.1686
19:45:27:697,1.4907,1.3974,11.3683,44.4571,-0.3631,-0.0716,-0.0339,134.3371
19:45:27:720,1.9717,1.0074,11.7512,44.0738,-0.5598,-0.0154,-0.128,134.6115
19:45:27:738,1.8736,0.3015,12.7442,44.4571,-0.7968,-0.2243,-0.3735,135.2044
19:45:27:758,1.3663,0.0239,14.278,43.6059,-0.9899,-0.3904,-0.6057,136.0691
19:45:27:775,0.7872,-0.3805,14.6417,43.8887,-0.8836,-0.3025,-0.7095,137.0128
19:45:27:796,0.0072,-0.4834,13.4955,44.7528,-0.4938,-0.0093,-0.646,137.8531
19:45:27:818,0.0646,-0.4307,12.0933,42.9545,-0.1188,0.2522,-0.4077,138.3691
19:45:27:837,0.6843,-0.2752,10.9472,43.3005,0.095,0.3291,-0.1255,138.5787
19:45:27:856,1.1246,-0.0215,9.7914,44.7061,0.2392,0.2974,0.0101,138.6512
19:45:27:878,0.993,0.1364,8.4132,44.5951,0.3785,0.3218,-0.0278,138.759
19:45:27:897,0.5073,0.3996,7.0134,43.7944,0.4737,0.4086,-0.1438,138.9464
19:45:27:921,-0.2369,0.792,5.0704,44.178,0.3943,0.2974,-0.3271,139.5463
19:45:27:939,-0.5073,1.1844,4.8742,42.9755,0.205,0.1288,-0.3943,140.0154
19:45:27:958,-0.5982,1.5123,5.3336,43.1631,-0.0162,0.0042,-0.4444,140.5632
19:45:27:975,-0.4762,1.6439,5.8816,42.4641,-0.1786,-0.0325,-0.4749,141.1264
19:45:27:996,-0.3541,1.7372,6.2189,43.5746,-0.2641,0.0103,-0.5153,141.7372
19:45:28:017,-0.335,2.0195,7.011,44.4978,-0.3497,0.0946,-0.58,142.4157
19:45:28:039,-0.6365,2.2851,8.2672,42.4673,-0.4254,0.1776,-0.6423,143.1473
19:45:28:056,-0.9547,2.2205,9.2818,42.2879,-0.3875,0.1667,-0.6814,143.9198
19:45:28:076,-1.1916,1.9932,9.9637,44.0447,-0.2446,0.0066,-0.6655,144.6989
19:45:28:098,-1.0098,1.7396,10.4686,42.9463,-0.0956,-0.2157,-0.5873,145.4264
19:45:28:118,-0.8231,1.6367,10.7701,43.3713,-0.0235,-0.3489,-0.4969,146.0742
19:45:28:138,-1.2514,1.9478,11.5358,41.7679,-0.0613,-0.2829,-0.4187,146.616
19:45:28:158,-1.5027,2.1392,12.6365,43.5735,-0.1285,-0.074,-0.2831,146.9722
19:45:28:176,-1.3783,2.01,13.7683,43.5798,-0.087,0.1312,-0.0925,147.1161
19:45:28:196,-1.2251,1.9143,14.0961,43.2152,0.1194,0.196,0.0944,147.059
19:45:28:218,-1.2897,1.9549,12.8207,42.4995,0.4444,0.2119,0.2556,146.8027
19:45:28:242,-1.6869,2.1392,10.9328,42.8906,0.6656,0.2204,0.3534,146.4382
19:45:28:257,-1.864,2.2277,9.7197,42.5318,0.635,0.1422,0.4157,145.9984
19:45:28:405,-1.9525,2.2684,9.3535,44.5763,0.3723,-0.0447,0.445,145.5265
19:45:28:406,-2.1224,1.876,10.3418,43.7856,-0.0015,-0.278,0.4291,145.1194
19:45:28:407,-1.5912,0.8806,11.6148,44.6497,-0.2141,-0.4784,0.4597,144.7255
19:45:28:407,-1.4118,0.4164,11.4018,44.5867,-0.0748,-0.5346,0.5317,144.2724
19:45:28:408,-1.3472,0.6365,10.3513,41.6741,0.161,-0.3782,0.6356,143.6959
19:45:28:409,-1.3424,0.859,9.6,41.1455,0.1634,-0.1889,0.6625,142.3341
19:45:28:409,-1.2802,0.6556,9.7747,41.4185,0.0535,-0.2805,0.5672,141.8411
19:45:28:423,-0.9739,0.2153,9.4493,40.777,0.0229,-0.2683,0.5,141.4186
19:45:28:435,-0.9978,0.3589,8.7505,42.5044,-0.0015,-0.0703,0.456,141.0146
19:45:28:455,-1.017,0.4881,8.3653,42.4905,-0.0931,0.2155,0.4071,140.6074
19:45:28:476,-1.206,0.5862,8.1284,43.0565,-0.1713,0.444,0.357,140.2106
19:45:28:500,-1.5266,0.8997,8.0255,43.331,-0.186,0.5307,0.3485,139.8057
19:45:28:519,-1.3519,1.3472,8.1141,42.0359,-0.1481,0.4684,0.4242,139.3121
19:45:28:536,-0.8064,1.6845,8.0734,40.9927,-0.0638,0.3609,0.5073,138.7585
19:45:28:556,-0.6078,2.065,7.9394,41.3434,0.0449,0.3487,0.4866,138.2368
19:45:28:576,-0.6293,2.1846,7.6546,42.0359,0.1304,0.4049,0.3949,137.785
19:45:28:600,-0.6796,2.3067,7.3771,40.7881,0.1781,0.4232,0.3069,137.4307
19:45:28:618,-0.6413,2.4503,7.4202,42.5044,0.1463,0.3597,0.2385,137.1472
19:45:28:637,-0.3087,2.4766,8.1404,42.716,0.0413,0.2729,0.2043,136.9456
19:45:28:657,0.0981,2.3474,8.9779,40.8463,-0.0467,0.2277,0.175,136.7897
19:45:28:676,0.1747,2.5172,9.6479,42.0772,-0.0601,0.1691,0.098,136.7324
19:45:28:698,0.4642,2.4933,10.0307,42.0578,-0.0308,0.0579,0.0235,136.7707
19:45:28:717,0.8279,2.3665,10.684,41.3013,-0.0443,-0.074,-0.04,136.9164
19:45:28:745,1.2012,2.0076,11.5573,42.314,-0.0992,-0.1925,-0.1365,137.682
19:45:28:764,0.8351,1.3185,12.615,41.1679,-0.1408,-0.3147,-0.2929,138.3562
19:45:28:780,0.9954,0.6628,12.7777,42.458,-0.2043,-0.4552,-0.5629,139.1674
19:45:28:802,1.3113,0.0263,13.1653,43.1914,-0.2886,-0.5566,-0.6753,140.1219
19:45:28:818,1.4931,-0.6389,14.3474,41.4183,-0.4682,-0.7472,-0.8305,141.2722
19:45:28:838,1.1486,-1.06,15.5366,42.0645,-0.5684,-0.8449,-0.9722,142.5242
19:45:28:855,0.2441,-1.3567,15.3524,41.447,-0.3387,-0.6189,-0.982,143.811
19:45:28:875,-0.3757,-1.5721,13.596,41.0312,0.205,-0.1962,-0.7596,144.7642
19:45:28:897,-0.2201,-1.5075,11.0118,42.1496,0.7767,0.0934,-0.3381,145.2251
19:45:28:915,0.1962,-1.0744,8.8199,41.7451,1.1017,0.1239,0.0443,145.2551
19:45:28:936,0.5886,-0.3805,7.3125,41.2335,1.1335,0.0579,0.2459,145.0677
19:45:28:955,0.8853,0.055,6.3075,40.5808,0.9808,0.053,0.2691,144.8577
19:45:28:980,0.8686,0.4211,5.4078,42.3874,0.7621,0.1019,0.1151,144.7968
19:45:29:000,0.4977,0.7777,4.8311,41.8035,0.4921,0.1679,-0.128,144.9506
19:45:29:016,-0.0742,1.1916,5.0154,42.5662,0.1585,0.1728,-0.3491,145.327
19:45:29:036,-0.3972,1.4261,5.8313,41.7968,-0.1689,0.0762,-0.4859,145.8716
19:45:29:055,-0.4044,1.7635,6.8794,41.8384,-0.3766,-0.0471,-0.5446,146.5161
19:45:29:076,-0.5049,2.3067,8.1691,41.3513,-0.4621,-0.1119,-0.6008,147.2353
19:45:29:099,-0.6915,2.7446,9.4469,41.8483,-0.4376,-0.0838,-0.6606,147.9846
19:45:29:119,-0.6652,2.8307,10.0714,41.6883,-0.2874,-0.019,-0.6912,148.7554
19:45:29:138,-0.6245,2.8163,10.1671,41.4591,-0.0785,0.0201,-0.6875,149.5198
19:45:29:155,-0.6174,3.0317,10.3585,40.5492,0.0571,0.0506,-0.668,150.2672
19:45:29:178,-0.6867,3.1872,10.7773,40.8663,0.1084,0.1324,-0.6228,150.9424
19:45:29:198,-0.8973,3.3284,10.9878,41.6676,0.1805,0.2009,-0.5702,151.5418
19:45:29:217,-0.7489,3.2686,11.0716,39.0283,0.288,0.1728,-0.5043,152.0767
19:45:29:236,-0.8877,3.4409,10.9065,41.3294,0.4017,0.1141,-0.4456,152.5546
19:45:29:257,-1.1653,3.618,10.6098,38.7802,0.4909,0.1593,-0.3931,152.9481
19:45:29:280,-1.1701,3.4863,10.5404,42.1735,0.5177,0.2265,-0.3234,153.2479
19:45:29:300,-0.8351,3.1514,11.0764,40.3244,0.4249,0.0982,-0.3295,153.8916
19:45:29:317,-0.7849,2.5125,11.0261,39.8037,0.4725,0.003,-0.3381,154.321
19:45:29:337,-1.084,2.2134,10.6648,39.5226,0.5263,-0.1607,-0.3405,154.8029
19:45:29:355,-1.3567,2.0842,10.6528,40.3324,0.4408,-0.3636,-0.3662,155.3602
19:45:29:379,-1.2179,1.4189,11.6459,39.3051,0.1891,-0.537,-0.4505,156.0156
19:45:29:397,-1.3232,0.6413,12.6365,39.7074,-0.0296,-0.7105,-0.5544,156.8503
19:45:29:417,-2.3258,0.6724,12.3063,40.0189,0.0278,-0.7252,-0.558,157.6573
19:45:29:436,-3.1585,1.127,10.4877,41.3989,0.431,-0.4075,-0.2697,158.0253
19:45:29:456,-2.6895,1.4022,7.9274,38.6644,0.9576,-0.0325,0.2373,157.7426
19:45:29:479,-2.2875,1.876,5.5849,39.105,1.2043,0.0787,0.5843,157.0703
19:45:29:495,-1.7922,2.5196,4.4315,39.3102,0.9014,-0.0642,0.6625,156.3781
19:45:29:516,-1.0816,2.6608,5.3575,38.6644,0.2172,-0.1485,0.5855,155.7999
19:45:29:536,-0.9619,2.5986,7.2096,40.0668,-0.4523,-0.0435,0.3925,155.41
19:45:29:554,-0.7585,2.3258,8.8176,37.9603,-0.8005,0.1862,0.2202,155.1216
19:45:29:576,-0.6341,2.1296,9.387,38.7167,-0.8152,0.4379,0.1567,154.8369
19:45:29:599,-0.9763,2.1272,9.3727,39.8558,-0.6331,0.6553,0.1261,154.517
19:45:29:614,-1.1055,2.2469,8.997,39.0146,-0.3423,0.6896,0.1713,154.1639
19:45:29:634,-1.194,2.5292,8.3031,39.6816,-0.0003,0.5588,0.2776,153.7175
19:45:29:654,-1.1892,2.7446,7.3172,40.2014,0.299,0.4025,0.3607,153.2062
19:45:29:674,-1.2275,3.0389,6.5659,38.7388,0.4188,0.3072,0.3717,152.6949
19:45:29:695,-1.4309,3.3165,6.5444,39.3499,0.3271,0.2937,0.3534,152.1932
19:45:29:720,-1.2969,3.4098,7.255,39.6436,0.128,0.2778,0.3644,151.7049
19:45:29:734,-0.9212,3.3476,8.3103,39.2118,-0.0369,0.2265,0.3876,151.2127
19:45:29:755,-0.8351,3.1992,9.9278,37.8183,-0.0296,0.1105,0.3216,150.7668
19:45:29:778,-1.261,3.2327,10.2126,37.1778,0.0938,-0.03,0.2385,150.3945
19:45:29:797,-1.2586,3.0413,10.3107,38.7388,0.2086,-0.1546,0.2068,150.0016
19:45:29:816,-0.8542,2.7135,10.6911,38.7317,0.2514,-0.2903,0.2324,149.8734
19:45:29:834,-0.2967,2.7039,11.2558,38.5848,0.2428,-0.5713,0.2666,149.8082
19:45:29:854,0.0909,2.7494,11.5669,38.1822,0.227,-0.8522,0.2556,149.8559
19:45:29:875,0.2058,2.8881,11.4688,37.2828,0.2086,-0.8156,0.2263,149.9376
19:45:29:897,0.5527,2.8116,11.2199,38.6085,0.1427,-0.5016,0.2532,149.8805
19:45:29:916,1.1916,2.5914,11.0022,38.3789,0.0144,-0.2182,0.3021,149.6812
19:45:29:935,1.742,2.345,11.4497,40.2654,-0.1517,-0.0667,0.2813,149.4598
19:45:29:956,1.8999,2.12,12.1172,39.5732,-0.2727,-0.0349,0.197,149.3338
19:45:29:976,1.6845,2.2062,11.7488,39.7282,-0.1676,0.0958,0.1396,149.2217
19:45:29:995,1.4955,2.2086,10.2078,40.3829,0.1427,0.301,0.1359,149.0306
19:45:30:015,1.6822,2.1272,8.9157,38.9708,0.3149,0.2668,0.1103,148.8969
19:45:30:036,2.0267,1.9334,7.9537,40.9463,0.2441,0.0775,0.0089,148.9197
19:45:30:058,1.7324,1.8353,7.6642,38.1864,-0.0064,-0.0386,-0.222,149.2252
19:45:30:078,1.0385,1.6463,8.071,38.7567,-0.3411,-0.0227,-0.481,149.7878
19:45:30:096,0.1388,1.5984,8.4658,40.3848,-0.5549,0.1385,-0.6191,150.4171
19:45:30:116,-0.5456,1.7779,8.4443,40.2281,-0.5452,0.3084,-0.6105,151.0003
19:45:30:137,-1.0983,2.2373,8.0638,40.4353,-0.3949,0.3267,-0.4994,151.4164
19:45:30:160,-1.0074,2.5508,7.5853,41.4352,-0.2092,0.2155,-0.3405,151.6984
19:45:30:179,-0.7753,2.8857,7.267,38.8092,-0.0821,0.0714,-0.1915,151.8545
19:45:30:194,-0.4187,3.1466,7.4297,41.4914,-0.0479,-0.0276,-0.0999,151.9578
19:45:30:216,0.0646,3.3499,7.7312,40.3235,-0.0271,-0.063,-0.0986,152.0488
19:45:30:235,0.2489,3.3476,8.1571,41.3181,-0.0504,-0.074,-0.1561,152.1689
19:45:30:258,0.1747,3.2518,8.6189,39.6338,-0.0565,-0.0484,-0.2184,152.6162
19:45:30:281,-0.0072,3.1131,8.8606,41.4339,-0.0125,-0.0227,-0.2562,152.8941
19:45:30:305,-0.256,3.1035,9.0377,40.7418,0.0242,-0.0337,-0.2575,153.1859
19:45:30:316,-0.5719,3.2853,9.1406,40.499,0.0364,-0.0105,-0.2147,153.3949
19:45:30:335,-0.7968,3.5222,9.3344,40.8679,0.0205,0.075,-0.1426,153.5129
19:45:30:362,-0.4762,3.5557,10.0307,41.6719,-0.0455,0.1239,-0.0547,153.5418
19:45:30:377,0.146,3.5246,10.928,42.0369,-0.0882,0.1166,0.0309,153.4747
19:45:30:397,0.5791,3.4696,11.3157,43.3713,-0.0443,0.1227,0.0516,153.3702
19:45:30:526,0.2704,3.3763,10.8873,43.1003,0.0315,0.1398,-0.0376,153.381
19:45:30:526,-0.8495,3.3499,10.1575,44.6527,0.0461,0.196,-0.1842,153.4946
19:45:30:527,-1.6032,3.137,9.7364,44.2255,-0.0381,0.196,-0.2538,153.647
19:45:30:527,-1.6869,2.7661,10.3896,43.3095,-0.2299,0.0042,-0.2624,153.8229
19:45:30:528,-1.1988,1.5673,11.878,43.8741,-0.4474,-0.3587,-0.2843,154.2474
19:45:30:528,-2.0243,1.5362,12.6556,42.7986,-0.5097,-0.6421,-0.3259,154.7767
19:45:30:542,-2.9719,1.6152,11.9928,45.5339,-0.2568,-0.4356,-0.2147,155.1049
19:45:30:558,-3.015,1.261,10.0259,42.2873,0.1683,-0.0154,0.0614,155.0048
19:45:30:575,-2.6417,1.3687,8.4945,43.4422,0.3467,0.0567,0.3179,154.6289
19:45:30:595,-1.4189,1.3161,8.2169,45.3927,0.183,-0.162,0.5208,154.1262
19:45:30:615,-0.5145,1.4213,8.4562,43.4422,-0.1139,-0.2878,0.5684,153.6227
19:45:30:636,-0.3637,1.4309,8.6644,42.8066,-0.3619,-0.14,0.4157,153.2574
19:45:30:659,-0.6197,1.3256,8.4562,42.8876,-0.506,0.1569,0.2165,152.9919
19:45:30:678,-1.6295,1.3711,8.1021,46.3935,-0.5464,0.5588,0.0907,152.5682
19:45:30:695,-1.4405,1.4501,8.0614,45.7223,-0.4389,0.4415,0.1884,152.2634
19:45:30:717,-0.871,1.6343,7.6235,43.7637,-0.269,0.2668,0.2996,151.9356
19:45:30:741,-0.7442,1.8592,6.9894,45.9929,-0.12,0.2534,0.3289,151.5431
19:45:30:760,-0.9093,2.0459,6.5348,45.9091,-0.0931,0.3291,0.2593,151.2071
19:45:30:776,-1.194,2.1296,6.6855,45.7702,-0.2067,0.3194,0.1494,150.962
19:45:30:795,-1.5242,2.2421,7.7647,44.3462,-0.3924,0.1776,0.0443,150.8643
19:45:30:815,-1.5051,2.1033,9.2004,46.7206,-0.5146,0.0384,0.0003,150.8526
19:45:30:836,-1.474,1.9525,10.3179,47.6697,-0.4951,-0.0349,-0.0034,150.8765
19:45:30:856,-1.2562,1.8377,11.0836,46.592,-0.3802,-0.0716,0.0247,150.8849
19:45:30:876,-0.9452,1.9119,11.5932,45.5178,-0.2373,-0.0667,0.0553,150.873
19:45:30:897,-0.548,1.6678,11.9258,47.8342,-0.1237,-0.0581,0.0431,150.8928
19:45:30:915,-0.0048,1.2754,12.4881,46.9566,-0.098,-0.1803,-0.0302,151.0391
19:45:30:936,0.3087,1.0935,13.3855,47.8246,-0.1481,-0.3636,-0.1206,151.3219
19:45:30:957,0.2776,1.1581,13.7563,48.0285,-0.1652,-0.3917,-0.1842,151.654
19:45:30:977,0.2345,1.194,13.3256,48.4264,-0.0809,-0.1485,-0.1732,151.9484
19:45:30:995,0.6508,1.1701,12.4834,45.5178,0.0449,0.1092,-0.084,152.0927
19:45:31:016,1.1246,1.1486,12.0215,48.8665,0.0901,0.086,-0.0608,152.2474
19:45:31:038,1.3735,0.8734,12.1244,49.5722,0.029,-0.151,-0.1561,152.5579
19:45:31:056,1.0528,0.6341,12.5982,48.6219,-0.0381,-0.2683,-0.2978,153.0264
19:45:31:078,0.7489,0.4283,12.5647,48.756,0.0144,-0.1094,-0.3357,153.5009
19:45:31:095,0.8495,0.3517,11.5286,47.4255,0.227,0.1019,-0.2452,153.8717
19:45:31:116,1.3017,0.2967,10.1097,48.756,0.4542,0.1923,-0.1243,154.083
19:45:31:140,1.8592,0.4714,8.1165,48.1354,0.5031,0.0042,-0.0815,154.2491
19:45:31:157,1.6104,0.6413,7.6068,50.8866,0.3675,-0.0508,-0.1878,154.7529
19:45:31:177,0.9739,0.6987,7.1952,51.193,0.2392,-0.0141,-0.3259,155.1879
19:45:31:197,0.3015,0.8183,6.7119,49.2824,0.183,0.0323,-0.4273,155.7198
19:45:31:214,-0.0215,0.7298,6.1137,48.3636,0.1976,0.0311,-0.4444,156.2531
19:45:31:235,-0.3924,0.9619,5.4604,51.6494,0.2148,-0.0422,-0.42,156.7789
19:45:31:257,-0.4977,1.3304,5.1733,51.7542,0.1427,-0.1485,-0.3821,157.2776
19:45:31:275,-0.2752,1.5386,5.3336,52.8808,-0.0308,-0.2121,-0.3638,157.736
19:45:31:296,-0.1579,1.6654,5.9031,51.6947,-0.2556,-0.2157,-0.4261,158.2888
19:45:31:317,-0.2513,1.6702,6.7908,50.0213,-0.4804,-0.1852,-0.5458,158.9478
19:45:31:339,-0.7394,1.7707,8.0112,51.0602,-0.6527,-0.1375,-0.6399,159.7089
19:45:31:356,-0.9978,1.7133,9.2841,50.9057,-0.7247,-0.1693,-0.6643,160.4883
19:45:31:376,-1.2227,1.7228,10.2245,52.3116,-0.6954,-0.2683,-0.6216,161.241
19:45:31:395,-1.3926,1.9382,11.1625,52.7441,-0.6356,-0.355,-0.5275,161.9044
19:45:31:414,-1.6606,2.345,11.8181,52.2133,-0.5317,-0.333,-0.3699,162.3611
19:45:31:438,-1.7204,2.7135,12.0407,52.2541,-0.3509,-0.1143,-0.1304,162.5306
19:45:31:455,-1.273,2.9934,11.9857,51.3583,-0.1579,0.1141,0.164,162.3511
19:45:31:474,-0.4092,3.0413,12.2345,52.8953,-0.0467,0.1361,0.3766,161.9656
19:45:31:495,0.1842,2.924,12.6245,53.8531,0.0217,0.0237,0.4218,161.5613
19:45:31:517,0.0191,2.8235,12.6915,51.3886,0.0962,-0.0508,0.3314,161.2518
19:45:31:538,-0.7561,2.6728,12.2058,54.0014,0.172,-0.0068,0.2068,161.0598
19:45:31:557,-1.4381,2.4263,11.4903,54.8421,0.2111,0.0836,0.1555,160.9119
19:45:31:577,-1.5482,2.0722,11.3755,52.9245,0.15,0.0433,0.1909,160.7157
19:45:31:595,-0.8614,1.0457,13.4836,54.6047,-0.0613,-0.4821,0.2422,160.5237
19:45:31:614,-1.1055,0.7872,13.0433,53.9309,0.1757,-0.3819,0.2789,160.3206
19:45:31:636,-1.3735,0.6437,10.8802,53.8465,0.6155,-0.041,0.401,159.7309
19:45:31:654,-1.1773,0.7896,8.9013,54.5763,0.8793,0.0604,0.5403,159.1881
19:45:31:674,-0.5862,0.7968,7.9561,51.4942,0.8134,-0.0642,0.6087,158.5972
19:45:31:695,0.0598,0.7513,7.7958,54.5408,0.5727,-0.1302,0.5794,158.0718
19:45:31:724,0.3709,0.67,7.6355,53.5802,0.3589,-0.0227,0.4487,157.674
19:45:31:738,0.201,0.5097,7.1474,54.5408,0.2221,0.1801,0.263,157.4214
19:45:31:753,-0.2393,0.3541,6.5922,55.6892,0.0901,0.3316,0.1005,157.3151
19:45:31:773,-0.9284,0.4092,6.5922,53.5386,-0.0931,0.3756,0.0113,157.272
19:45:31:793,-1.3017,0.2847,7.1474,55.0574,-0.2776,0.3255,0.0284,157.2335
19:45:31:813,-1.0672,0.1914,7.7288,55.599,-0.3436,0.2461,0.1628,157.0522
19:45:31:835,-0.8183,0.6102,7.7551,54.0344,-0.2776,0.2143,0.3399,156.6933
19:45:31:855,-0.5288,1.0624,7.3842,54.4059,-0.1676,0.2485,0.4756,156.1976
19:45:31:876,-0.2895,1.3878,6.9751,54.7851,-0.1053,0.29,0.5244,155.6265
19:45:31:897,-0.2249,1.5745,6.8722,55.2362,-0.1237,0.3096,0.4975,155.0712
19:45:31:920,-0.2632,1.73,7.2335,55.3227,-0.2275,0.2143,0.4145,154.6255
19:45:31:935,-0.2489,1.6606,7.9418,53.3402,-0.3656,0.0628,0.3118,154.3281
19:45:31:955,-0.524,1.7444,9.2219,55.8637,-0.4987,-0.0606,0.2165,154.1334
19:45:31:975,-0.4546,1.7061,10.6863,52.2547,-0.5647,-0.184,0.1591,154.0406
19:45:31:998,-0.0742,1.5314,11.6004,54.3241,-0.4767,-0.2719,0.1335,153.9954
19:45:32:018,0.2967,1.4836,11.988,52.2547,-0.3411,-0.3,0.0919,153.9971
19:45:32:035,0.8495,1.206,12.4044,54.3114,-0.2898,-0.2719,0.0321,154.0911
19:45:32:054,1.4788,0.9117,13.2108,54.8016,-0.3326,-0.0496,-0.0754,154.2468
19:45:32:075,1.9023,0.3422,13.0744,53.3402,-0.3045,0.1385,-0.117,154.6393
19:45:32:095,1.8544,0.0096,13.4333,52.4279,-0.3595,0.1935,-0.2208,154.9931
19:45:32:118,1.3783,-0.1819,14.5173,54.7487,-0.4853,0.0958,-0.343,155.4866
19:45:32:137,0.9595,-0.2871,14.8905,53.5802,-0.4144,0.0714,-0.3833,155.999
19:45:32:155,0.6915,-0.0646,13.6032,52.5685,-0.054,0.2595,-0.3015,156.4297
19:45:32:176,0.8471,0.3781,11.2128,52.6867,0.3455,0.5625,-0.1414,156.6571
19:45:32:194,1.5434,0.5743,9.2746,52.8102,0.4835,0.8716,-0.0302,156.7336
19:45:32:220,2.2373,0.4283,8.4945,53.8881,0.3027,1.0793,-0.1011,156.9153
19:45:32:238,2.4431,0.1507,8.8391,51.9129,-0.0357,0.9962,-0.3919,157.4322
19:45:32:255,1.4644,-0.1484,9.6168,53.6721,-0.3045,0.7018,-0.7975,158.4061
19:45:32:273,-0.0502,-0.3063,10.1336,53.1306,-0.3204,0.4342,-1.098,159.7114
19:45:32:296,-1.139,-0.2919,9.6287,52.5389,-0.0687,0.2167,-1.1334,161.0336
19:45:32:316,-1.4572,-0.2895,8.3222,51.95,0.321,0.1508,-0.9319,162.1401
19:45:32:335,-1.2108,0.0024,6.7334,54.1232,0.6142,0.1984,-0.6118,162.8871
19:45:32:354,-0.6676,0.402,5.671,52.6382,0.6656,0.2778,-0.3283,163.3362
19:45:32:374,-0.2465,0.7777,5.4556,53.1583,0.5104,0.323,-0.1891,163.5989
19:45:32:393,-0.0502,1.151,5.9749,53.7284,0.2563,0.3133,-0.1707,163.8625
19:45:32:419,0.1053,1.3974,7.1689,52.797,0.0486,0.2497,-0.2025,164.1652
19:45:32:433,-0.0072,1.5816,8.2337,53.3996,-0.0406,0.1105,-0.277,164.5787
19:45:32:455,-0.0479,1.5649,8.8822,55.8935,-0.0162,-0.0325,-0.3344,165.0862
19:45:32:473,-0.4714,1.7444,9.4325,55.0995,0.0242,-0.14,-0.365,165.6413
19:45:32:493,-0.6461,1.8018,9.8201,55.6296,0.0449,-0.1913,-0.3528,166.2014
19:45:32:515,-1.1174,2.4766,11.0166,54.8523,0.0046,-0.0471,-0.2269,166.913
19:45:32:595,-1.4548,2.9575,11.4138,53.1647,0.0327,0.1654,-0.1414,167.0953
19:45:32:595,-1.9645,3.5366,11.6291,55.7972,0.1402,0.3169,-0.0974,167.1945
19:45:32:595,-2.1344,3.6921,11.6196,54.8922,0.2624,0.3084,-0.1182,167.3054
19:45:32:596,-2.0363,3.1442,11.2223,53.6536,0.3601,0.2766,-0.1903,167.5308
19:45:32:613,-2.0219,2.0698,10.9256,54.2348,0.365,0.2009,-0.3149,167.9246
19:45:32:633,-2.7948,1.4764,11.3803,55.1922,0.1781,-0.0826,-0.4725,168.5164
19:45:32:653,-3.5103,1.1103,12.737,54.8889,-0.1298,-0.3794,-0.5336,169.2075
19:45:32:674,-3.7735,0.3374,14.2445,54.851,-0.2629,-0.5578,-0.4297,169.8152
19:45:32:693,-3.661,-0.2393,14.2564,54.8197,-0.0333,-0.6531,-0.1695,170.1386
19:45:32:717,-3.1872,-0.2106,12.2728,55.7354,0.5006,-0.4564,0.252,169.9676
19:45:32:738,-2.6512,0.2153,9.4421,56.2256,1.0174,-0.0312,0.6869,169.2808
19:45:32:754,-2.1727,0.6054,7.1928,55.9005,1.1775,0.1862,0.9068,168.2975
19:45:32:773,-1.6774,1.0552,6.1926,54.9978,0.927,0.1312,0.93,167.2999
19:45:32:795,-1.0409,1.2036,6.4391,55.3627,0.442,-0.1046,0.8188,166.5117
19:45:32:814,-0.6437,1.0528,7.2933,54.7017,-0.0345,-0.3807,0.6099,166.0033
19:45:32:834,-0.5408,0.9165,8.004,57.7551,-0.3265,-0.5383,0.3851,165.804
19:45:32:853,-0.5073,0.8758,8.1547,56.5476,-0.4059,-0.4931,0.2153,165.762
19:45:32:877,-0.6724,0.8542,7.6857,57.4601,-0.3387,-0.2964,0.0638,165.8318
19:45:32:897,-1.0768,0.7849,7.0588,57.1457,-0.2556,-0.0435,-0.0583,165.9723
19:45:32:916,-1.6965,0.95,7.1617,56.6142,-0.2568,0.0995,-0.0974,166.1212
19:45:32:936,-1.6678,1.4094,7.1976,54.4437,-0.1847,0.0408,0.1811,165.9094
19:45:32:956,-1.4453,1.8185,6.8435,57.4601,-0.0748,0.0347,0.3289,165.6713
19:45:32:976,-1.2467,2.2062,6.7573,55.1541,-0.0381,0.0201,0.39,165.2188
19:45:33:001,-1.0744,2.4072,6.9942,56.98,-0.1004,-0.03,0.3741,164.8651
19:45:33:013,-0.9763,2.4311,7.8772,57.8711,-0.2422,-0.1241,0.2935,164.6155
19:45:33:035,-1.0074,2.4072,9.3703,58.4948,-0.3582,-0.2646,0.1823,164.525
19:45:33:054,-0.9165,2.2421,10.3825,54.5422,-0.3204,-0.421,0.0724,164.5824
19:45:33:074,-0.603,1.7539,10.5452,58.3932,-0.142,-0.5199,-0.0424,164.787
19:45:33:097,-0.39,1.3472,10.4303,57.3381,-0.0284,-0.5639,-0.1842,165.1427
19:45:33:116,-0.1699,0.8088,10.6959,55.2606,-0.098,-0.5346,-0.3332,165.6733
19:45:33:136,-0.3685,0.3565,11.141,58.5278,-0.2886,-0.4344,-0.4493,166.307
19:45:33:154,-0.8112,0.1699,11.6507,56.4347,-0.5,-0.289,-0.4615,166.9407
19:45:33:173,-0.5791,-0.067,12.0742,56.4975,-0.66,-0.1876,-0.3161,167.3988
19:45:33:196,0.213,-0.3302,12.347,56.4629,-0.7809,-0.1607,-0.1158,167.6385
19:45:33:215,1.194,-0.7968,13.1988,55.6438,-0.9263,-0.2108,-0.0082,167.7958
19:45:33:234,1.7252,-0.9763,14.6752,57.2202,-1.0644,-0.333,-0.0327,168.0007
19:45:33:255,1.4094,-0.8279,15.5342,57.4671,-0.9654,-0.3257,-0.1219,168.2705
19:45:33:273,0.7274,-0.7585,14.6417,57.0636,-0.5024,-0.0813,-0.1817,168.572
19:45:33:294,0.4857,-0.8758,12.2584,56.799,0.0877,0.1703,-0.1243,168.7965
19:45:33:315,0.9236,-0.8471,10.1599,56.1187,0.4652,0.2705,0.0284,168.8655
19:45:33:334,1.5051,-0.5623,9.1717,55.9817,0.5214,0.2131,0.1494,168.7995
19:45:33:354,2.2229,-0.3996,8.8199,56.3704,0.4261,0.1398,0.1359,168.7988
19:45:33:374,2.254,-0.2584,8.2959,58.0719,0.3455,0.1129,-0.0583,169.0034
19:45:33:396,1.4644,-0.1268,7.6235,57.4895,0.3198,0.1544,-0.3564,169.5113
19:45:33:414,-0.012,-0.0838,6.2309,57.1133,0.3345,0.0274,-0.6924,170.2451
19:45:33:433,-0.3422,0.1436,5.8887,57.4816,0.2893,-0.1779,-0.7132,171.0113
19:45:33:453,-0.323,0.4834,6.1328,56.5673,0.1671,-0.3232,-0.7071,172.7449
19:45:33:475,-0.1986,0.8614,6.7693,55.8401,0.0144,-0.3587,-0.7181,173.6371
19:45:33:495,-0.2465,1.2825,7.4943,56.3766,-0.109,-0.3208,-0.7645,174.5704
19:45:33:515,-0.4379,1.6463,8.394,56.2531,-0.1884,-0.2512,-0.8243,175.5496
19:45:33:536,-0.2584,1.6798,9.2315,56.2227,-0.2263,-0.2023,-0.8573,176.5712
19:45:33:553,-0.0718,1.6463,9.6885,55.7556,-0.2067,-0.1632,-0.8744,177.6005
19:45:33:572,-0.2919,1.5673,9.813,56.3128,-0.1872,-0.1278,-0.905,178.6848
19:45:33:597,-0.6891,1.4836,10.4997,55.2665,-0.2483,-0.1326,-0.9086,179.7565
19:45:33:616,-1.0672,1.5147,11.5741,56.8396,-0.3289,-0.1717,-0.8146,180.7277
19:45:33:635,-1.1342,1.584,12.4259,56.8396,-0.2764,-0.1583,-0.6081,181.4575
19:45:33:655,-1.1342,1.7539,12.7681,56.8396,-0.076,-0.0703,-0.3454,181.8873
19:45:33:678,-0.9547,2.0219,12.4953,56.8396,0.1744,0.0164,-0.1109,182.0576
19:45:33:693,-0.95,2.1416,11.9019,56.8396,0.3711,0.0421,0.0162,182.0856
19:45:33:712,-1.0983,1.998,11.3779,54.8376,0.442,0.0445,0.0528,182.0685
19:45:33:733,-1.1318,1.5673,11.086,56.8577,0.3821,0.0481,0.0516,182.0656
19:45:33:754,-1.3615,1.3831,11.6028,56.6025,0.1976,0.0372,0.0382,182.0836
19:45:33:775,-1.3663,0.9954,13.0624,55.4471,-0.043,-0.0093,0.0406,182.0836
19:45:33:795,-1.2275,0.4235,14.6106,55.9225,-0.1432,-0.0923,0.0712,182.0608
19:45:33:818,-1.1198,-0.0598,14.8044,54.6473,0.0657,-0.1607,0.1359,181.981
19:45:33:833,-1.4405,-0.2417,12.5432,55.5436,0.5641,-0.0679,0.2691,181.7288
19:45:33:852,-1.5147,-0.0646,9.6144,56.0185,1.0321,0.1373,0.4829,181.235
19:45:33:873,-1.5601,0.2177,7.4106,56.6133,1.1469,0.1752,0.6649,180.5192
19:45:33:892,-0.8542,0.9619,7.2431,55.189,0.5079,-0.0166,0.8433,179.7092
19:45:33:913,-0.4642,1.0983,7.9346,55.7695,0.2343,-0.0508,0.7993,178.7772
19:45:33:933,-0.3374,0.9882,7.9394,56.2502,0.1414,-0.0532,0.6735,177.3607
19:45:33:953,-0.7178,0.8901,7.5398,54.1196,0.1317,-0.0374,0.5232,176.8635
19:45:33:977,-1.1629,0.9188,7.5159,55.9306,0.0608,-0.0129,0.4316,176.4464
19:45:33:997,-1.5888,0.9954,7.8485,56.5051,-0.0333,0.0579,0.4169,176.0197
19:45:34:011,-1.9071,1.0433,7.9657,53.6863,-0.0418,0.1752,0.4572,175.5231
19:45:34:032,-1.8736,0.9834,7.6307,54.211,0.0461,0.2681,0.5489,174.908
19:45:34:052,-1.6941,1.0959,7.1474,55.1922,0.1353,0.2607,0.6539,174.1765
19:45:34:073,-1.3831,1.3352,7.0684,55.6208,0.1353,0.2106,0.737,173.3872
19:45:34:094,-0.8423,1.3567,7.2622,54.7965,0.0632,0.1825,0.7798,172.5894
19:45:34:114,-0.5073,1.4716,7.8604,54.1347,-0.0565,0.1532,0.748,171.8192
19:45:34:132,-0.3685,1.4788,8.8511,55.8628,-0.1933,0.1434,0.6808,171.1356
19:45:34:152,-0.2153,1.3304,9.7627,55.3599,-0.2605,0.141,0.6173,170.5355
19:45:34:177,-0.1029,1.3304,10.3394,56.2932,-0.2251,0.097,0.5672,169.9894
19:45:34:194,0.3709,1.3424,10.4495,54.5292,-0.1383,0.0384,0.5476,169.4964
19:45:34:215,1.0935,1.3017,10.6026,55.4607,-0.1114,-0.0288,0.5049,169.0665
19:45:34:232,2.0722,1.2156,10.806,54.191,-0.1689,-0.0593,0.3974,168.7887
19:45:34:253,2.3474,1.1629,10.7797,53.8731,-0.2593,0.0091,0.1982,168.7179
19:45:34:275,1.7204,1.1677,10.8227,54.097,-0.3595,0.0738,-0.0388,168.905
19:45:34:295,1.3878,0.871,11.2511,56.0428,-0.4572,-0.0202,-0.1732,169.2288
19:45:34:314,1.3232,0.6987,11.6578,55.0351,-0.5024,-0.2182,-0.1939,169.6024
19:45:34:335,1.7611,0.1842,12.4092,54.6672,-0.4413,-0.3465,-0.1585,170.2188
19:45:34:358,1.8401,0.0622,12.2656,54.4735,-0.3204,-0.2059,-0.1292,170.5139
19:45:34:375,1.8281,0.0502,10.8993,55.2297,-0.0613,0.0811,-0.0498,170.684
19:45:34:394,2.1631,0.0838,9.3631,55.2316,0.1439,0.2229,0.0284,170.7676
19:45:34:414,2.9743,-0.0407,8.5926,54.8476,0.0901,0.1056,0.0382,170.8773
19:45:34:432,3.4505,0.0861,8.5591,55.6185,-0.1823,-0.0923,-0.0913,171.1582
19:45:34:454,2.9886,0.1627,9.0305,55.2584,-0.5134,-0.1375,-0.3699,171.7278
19:45:34:474,1.5123,0.0742,9.2507,55.1927,-0.704,0.053,-0.6729,172.5918
19:45:34:493,0.2034,0.0718,8.9779,55.5529,-0.6637,0.2607,-0.8097,173.573
19:45:34:513,-0.3661,0.0838,8.3031,55.8337,-0.4633,0.2644,-0.7327,174.4435
19:45:34:533,-0.2943,0.2536,7.3149,55.6183,-0.2275,0.0909,-0.5605,175.1298
19:45:34:556,-0.0168,0.4786,6.4582,54.6131,-0.0699,-0.0752,-0.4212,175.6968
19:45:34:575,0.1364,0.7226,6.2309,56.032,-0.0675,-0.1314,-0.3857,176.2194
19:45:34:594,0.3446,0.8399,6.7382,55.2607,-0.1738,-0.1412,-0.4432,176.8142
19:45:34:747,0.1795,1.0696,7.669,54.5875,-0.2861,-0.173,-0.5519,177.5129
19:45:34:747,0.146,1.2969,9.119,54.4811,-0.3582,-0.2463,-0.6411,178.2934
19:45:34:748,0.3206,1.3185,10.5547,54.9699,-0.3289,-0.3086,-0.6777,179.1062
19:45:34:748,0.2823,1.2778,11.6507,57.4431,-0.1738,-0.3538,-0.7083,179.9473
19:45:34:749,0.6508,1.0146,11.8253,55.059,0.0596,-0.377,-0.7034,180.7991
19:45:34:749,0.792,0.926,11.3133,56.5278,0.2477,-0.2646,-0.7083,181.656
19:45:34:750,0.4666,1.0074,10.9783,54.962,0.2441,0.0714,-0.7474,182.5725
19:45:34:758,-0.4905,1.3783,11.6913,54.884,0.0706,0.5002,-0.751,183.4675
19:45:34:774,-1.3161,1.8544,13.2108,54.4665,-0.0565,0.6932,-0.6545,184.2111
19:45:34:794,-1.3304,1.943,14.1751,54.685,0.0657,0.5148,-0.4517,184.7439
19:45:34:812,-0.7801,1.5864,12.0838,53.1346,0.7975,0.13,-0.0461,185.0526
19:45:34:833,-0.5815,1.5984,10.9472,55.6331,0.861,0.0872,0.0736,185.0778
19:45:34:858,-0.8447,1.6869,10.5236,54.1066,0.6546,0.1581,0.1017,185.0337
19:45:34:875,-1.3472,1.4453,10.94,55.1299,0.3467,0.2387,0.0785,185.007
19:45:34:893,-1.8401,0.9595,12.0862,54.8068,0.1036,0.1862,0.0797,184.9567
19:45:34:912,-2.2229,0.3302,12.6796,57.0269,0.0779,-0.0569,0.1628,184.8298
19:45:34:932,-2.5005,0.0383,11.6004,56.1403,0.3577,-0.1583,0.3583,184.4843
19:45:34:955,-2.3234,0.0168,9.2483,53.9857,0.778,-0.0007,0.6295,183.8411
19:45:34:973,-1.9478,0.1507,7.1928,57.0134,0.9539,0.097,0.8225,182.9702
19:45:34:992,-1.6893,0.347,6.5133,56.8894,0.7499,0.0445,0.8897,182.0529
19:45:35:012,-1.1486,0.5647,7.0851,56.0255,0.3345,-0.0691,0.8909,181.1797
19:45:35:032,-0.6676,0.6269,8.0901,56.1348,-0.0284,-0.1302,0.8091,180.4021
19:45:35:054,-0.5815,0.548,8.6596,57.4961,-0.2104,-0.1241,0.6576,179.7934
19:45:35:075,-0.6389,0.5743,8.8295,56.3777,-0.2617,-0.074,0.5293,179.3126
19:45:35:093,-0.737,0.682,8.7314,55.6866,-0.2446,0.0335,0.4597,178.8794
19:45:35:113,-0.9858,0.7226,8.2887,56.2214,-0.1542,0.1544,0.4193,178.4548
19:45:35:132,-0.8853,0.6341,7.4895,56.8319,-0.0174,0.2119,0.4193,178.0275
19:45:35:155,-0.7872,0.8136,6.8554,57.7252,0.0461,0.1703,0.4499,177.5804
19:45:35:179,-0.2225,1.005,6.7478,55.8985,-0.0211,0.1239,0.4939,177.1212
19:45:35:197,0.0718,1.3902,7.1115,55.6701,-0.1603,0.1532,0.4951,176.6446
19:45:35:218,0.2393,1.5936,7.4967,57.9236,-0.2959,0.2607,0.4316,176.2538
19:45:35:238,0.0742,1.5506,7.6283,56.5926,-0.3595,0.3695,0.3131,175.951
19:45:35:257,-0.3972,1.1438,9.2291,57.1985,-0.506,0.1728,0.1041,175.6742
19:45:35:273,-0.6796,1.2514,10.4255,55.4078,-0.5403,-0.0862,0.0968,175.6708
19:45:35:293,-0.7226,1.3017,11.4162,57.5732,-0.4352,-0.311,0.1127,175.6779
19:45:35:312,-0.1651,0.8231,11.3013,57.7354,-0.1896,-0.4295,0.1261,175.677
19:45:35:334,0.4498,0.4092,10.8562,55.8368,-0.0259,-0.4674,0.0919,175.7316
19:45:35:356,0.7609,0.0239,11.0548,56.4995,-0.1395,-0.4588,0.0272,175.8588
19:45:35:373,0.8136,-0.1531,11.8684,55.6464,-0.412,-0.4234,-0.0376,176.0712
19:45:35:393,1.5888,-0.7346,12.7059,57.1641,-0.6417,-0.3733,-0.0644,176.2921
19:45:35:413,2.1751,-1.084,13.4381,56.1349,-0.8078,-0.3562,-0.1206,176.5943
19:45:35:437,2.0626,-1.1486,14.199,57.028,-0.9129,-0.2719,-0.244,177.0156
19:45:35:453,1.5147,-1.3041,14.3474,56.1239,-0.8432,-0.0716,-0.3625,177.5364
19:45:35:473,0.9404,-1.3878,13.6199,54.7,-0.5842,0.1471,-0.3882,178.0718
19:45:35:492,0.7202,-1.4046,12.5456,56.0578,-0.2568,0.3194,-0.2734,178.4757
