Time,Acc_X,Acc_Y,Acc_Z,Meg,Gyr_X,Gyr_Y,Gyr_Z,Ore
16:06:17:463,-0.926,5.2738,8.3557,63.0487,-0.2397,0.298,0.3202,251.7933
16:06:17:476,-0.926,5.2738,8.3557,53.0409,-0.0125,0.2809,0.187,67.1927
16:06:17:494,-0.926,5.2738,8.3557,53.7289,-0.0125,0.2809,0.187,66.7722
16:06:17:513,-1.1773,5.0824,9.0903,52.9967,-0.0125,0.2809,0.187,68.2705
16:06:17:535,-1.017,5.0656,9.2171,51.52,-0.3851,-0.0062,0.4521,68.6441
16:06:17:553,-0.6102,5.0369,9.1932,52.3189,-0.2813,0.0414,0.5266,68.2003
16:06:17:571,-0.4905,4.9795,9.399,53.0684,-0.186,0.1306,0.5462,67.8595
16:06:17:592,-0.615,4.8048,9.1262,53.8039,-0.0992,0.166,0.5315,67.4414
16:06:17:610,-1.0289,4.9819,8.6189,52.7855,-0.0308,0.1306,0.5279,66.8271
16:06:17:630,-0.9619,4.9412,8.5113,52.5039,-0.0443,0.1086,0.5841,66.0708
16:06:17:659,-0.7777,4.8335,9.2076,53.9506,-0.1041,0.1282,0.6684,65.5481
16:06:17:675,-0.6461,4.6038,9.7364,52.9462,-0.1029,0.1111,0.7185,65.3539
16:06:17:690,-0.4953,4.2138,9.7197,51.8151,0.0278,0.0866,0.7466,65.2114
16:06:17:710,-0.5504,4.2425,9.1478,53.2423,0.161,0.0756,0.7343,64.8153
16:06:17:730,-0.6676,4.4841,8.7218,52.21,0.1915,0.0891,0.7148,64.242
16:06:17:750,-0.5695,4.386,8.4395,52.0501,0.0987,0.0988,0.7123,63.5546
16:06:17:775,-0.4834,4.2209,8.4203,51.8151,-0.0357,0.1391,0.6745,62.9918
16:06:17:795,-0.7346,4.0032,8.8917,54.428,-0.219,0.1624,0.6036,62.6979
16:06:17:810,-0.993,3.6323,9.5593,50.3075,-0.3766,0.2076,0.5584,62.7444
16:06:17:831,-1.0887,3.3595,9.7819,52.7562,-0.4022,0.298,0.5816,62.7577
16:06:17:868,-1.0313,3.3763,9.5258,52.5521,-0.2678,0.4641,0.6244,62.4671
16:06:17:873,-1.2538,3.7424,8.8846,54.075,-0.0748,0.6462,0.6317,61.7815
16:06:17:892,-1.4285,4.1204,8.2863,53.3369,0.0302,0.6755,0.6146,60.8857
16:06:17:911,-1.3854,4.2927,8.1499,52.8947,0.0095,0.557,0.5975,60.0578
16:06:17:933,-1.4189,4.532,8.3988,53.1708,-0.0797,0.3786,0.5682,59.2344
16:06:17:962,-1.5769,4.5799,9.0186,53.7931,-0.219,0.1465,0.5499,58.6606
16:06:17:971,-1.2945,4.1779,9.4875,53.6467,-0.3472,-0.1296,0.5828,58.2472
16:06:17:999,-0.3613,3.5342,9.5091,56.3383,-0.423,-0.396,0.6378,57.9071
16:06:18:011,0.3326,3.0844,8.93,56.3074,-0.4486,-0.49,0.595,57.5676
16:06:18:033,-0.1484,3.5821,8.2289,53.8636,-0.4157,0.2393,0.3922,57.2353
16:06:18:059,-0.2225,4.118,8.1595,53.6269,-0.3155,0.6474,0.336,55.8345
16:06:18:072,-0.5551,4.063,7.6546,54.8779,-0.2006,0.9284,0.2456,54.9407
16:06:18:090,-0.9739,4.1539,7.8461,54.356,-0.1725,1.108,0.1687,54.1043
16:06:18:110,-1.4046,3.7807,7.59,54.3818,-0.2141,0.965,0.1503,53.4921
16:06:18:149,-1.5649,3.5486,7.7599,53.6228,-0.2177,0.6352,0.1662,53.0439
16:06:18:151,-1.4524,3.6323,8.4108,54.9306,-0.263,0.3078,0.1442,52.753
16:06:18:180,-1.2682,3.5988,8.6525,55.6792,-0.2703,-0.1162,0.1369,52.6272
16:06:18:190,-1.2419,3.6443,9.4469,54.6817,-0.2214,-0.5829,0.1491,52.7457
16:06:18:211,-0.95,3.5079,8.9372,55.5157,-0.1078,-1.1155,0.2359,52.9501
16:06:18:233,-0.2177,3.1944,8.0495,54.6148,-0.0382,-1.1534,0.3715,53.0024
16:06:18:251,-0.0838,3.5701,8.7649,55.9548,-0.1261,-0.5132,0.3654,52.7402
16:06:18:271,0.1603,3.3978,9.3153,55.556,-0.274,-0.1504,0.3116,52.3813
16:06:18:291,0.0814,3.338,9.7173,54.6577,-0.3228,-0.0697,0.2847,52.085
16:06:18:311,-0.1268,3.4911,9.8465,55.2369,-0.2654,-0.0624,0.2346,51.8417
16:06:18:335,-0.2082,3.5605,10.0403,55.3315,-0.1811,-0.1076,0.1919,51.6799
16:06:18:353,-0.134,3.6514,10.0451,54.1714,-0.0919,-0.231,0.1772,51.5416
16:06:18:371,-0.2895,4.252,10.136,55.5116,0.0058,-0.2664,0.1943,51.3519
16:06:18:391,0.0742,4.532,10.1001,52.0167,0.0669,-0.2102,0.22,51.0765
16:06:18:410,0.5336,3.8979,10.1073,54.2474,0.0278,-0.1162,0.1699,50.8194
16:06:18:431,0.5168,3.1848,10.4638,55.6856,-0.1444,-0.0685,0.0514,50.7761
16:06:18:452,0.347,2.3521,10.8467,55.2723,-0.3191,-0.0563,-0.0219,50.9496
16:06:18:482,-0.0455,1.9573,11.5214,54.7017,-0.3692,-0.005,-0.0134,51.3944
16:06:18:491,0.213,1.9334,10.9711,55.4713,0.0852,-0.1052,0.198,51.4224
16:06:18:512,0.6987,2.053,10.2293,54.1715,0.2905,-0.3837,0.2456,51.3772
16:06:18:533,1.1964,2.053,9.7531,56.3005,0.2954,-0.5926,0.2578,51.3505
16:06:18:549,1.6558,2.2875,9.5378,54.8426,0.2074,-0.5352,0.2786,51.2419
16:06:18:570,2.2349,2.4407,9.6694,56.829,0.0913,-0.3446,0.2945,50.9516
16:06:18:590,2.3689,2.7398,9.813,55.4588,0.0596,-0.0905,0.2383,50.6559
16:06:18:611,2.0435,2.9193,9.3057,56.3718,0.1671,0.1245,0.1149,50.3571
16:06:18:633,1.273,3.3212,8.2026,55.6762,0.3271,0.1954,-0.039,50.1898
16:06:18:652,0.8016,3.4241,7.3005,54.4087,0.3552,0.1062,-0.1514,50.1674
16:06:18:673,0.548,3.8955,7.0923,57.432,0.2037,-0.0465,-0.2161,50.2563
16:06:18:690,0.8997,3.9625,7.3914,55.495,-0.0015,-0.1101,-0.2039,50.3317
16:06:18:710,1.4477,3.6658,7.6953,53.6602,-0.1811,-0.0771,-0.1734,50.3917
16:06:18:731,1.3974,3.6586,8.2361,56.8829,-0.2678,0.0292,-0.2015,50.4579
16:06:18:754,1.0792,3.6323,8.5256,58.1927,-0.2397,0.0781,-0.243,50.582
16:06:18:771,0.5862,3.6706,8.2816,57.0478,-0.0992,0.0085,-0.276,50.7994
16:06:18:790,0.2895,3.4768,7.4536,55.9072,0.0229,-0.1162,-0.2736,51.1137
16:06:18:811,0.0574,3.6227,7.2933,57.306,0.0156,-0.1541,-0.1978,51.3251
16:06:18:831,0.1651,3.7328,7.7719,56.5562,-0.0589,-0.0697,-0.0243,51.3484
16:06:18:851,0.4235,3.8046,8.2505,57.644,-0.0821,0.0145,0.1284,51.1363
16:06:18:871,0.6867,3.7543,8.5854,56.526,-0.0308,0.0463,0.1894,50.8582
16:06:18:891,0.5958,3.673,8.808,57.9493,0.0681,0.0304,0.1931,50.6339
16:06:18:914,0.6796,3.393,8.985,56.829,0.161,-0.0221,0.2017,50.4731
16:06:18:933,0.591,3.2806,8.8295,56.8285,0.2282,-0.06,0.1736,50.3287
16:06:18:958,0.1675,3.0293,9.411,57.4503,0.1329,0.0659,0.1406,50.1871
16:06:18:971,-0.1005,3.3499,10.2437,54.6186,0.0119,0.1587,0.2249,50.0192
16:06:18:990,-0.4259,3.8692,10.6624,56.1517,0.007,0.3517,0.3226,49.6436
16:06:19:013,-1.3232,4.1157,9.9565,57.2915,0.1158,0.6278,0.3421,49.1868
16:06:19:033,-1.4429,3.4409,9.8177,56.7789,0.0376,0.6156,0.3336,48.7723
16:06:19:054,-1.3567,2.8786,11.4497,55.5837,-0.274,0.3542,0.3715,48.4915
16:06:19:072,-1.7683,2.9671,12.6652,57.198,-0.3509,0.3163,0.4374,48.2138
16:06:19:090,-1.986,2.7829,11.8205,55.0729,-0.0614,0.4715,0.5071,47.7646
16:06:19:113,-1.6128,2.4837,10.3513,55.2012,0.1353,0.4947,0.6024,47.1828
16:06:19:131,-0.8973,1.809,10.5404,53.0527,-0.0528,0.3884,0.6769,46.5775
16:06:19:153,-0.1196,1.4357,11.7488,54.6433,-0.3497,0.2968,0.7099,45.914
16:06:19:175,0.4427,1.2873,12.469,55.841,-0.4205,0.2369,0.694,45.267
16:06:19:190,0.6891,1.4859,11.8445,54.0455,-0.1811,0.2296,0.65,44.647
16:06:19:209,0.6796,1.7731,10.2317,55.616,0.1378,0.265,0.5938,44.0161
16:06:19:230,0.3541,2.0243,9.0377,54.4664,0.2831,0.3334,0.5511,43.3789
16:06:19:250,0.1723,2.3186,8.3964,52.784,0.2905,0.3444,0.5694,42.6925
16:06:19:272,0.8088,2.5531,7.7934,53.4007,0.3039,0.2137,0.6464,41.9275
16:06:19:295,1.407,3.3811,7.0014,55.554,0.343,0.1184,0.6109,41.1342
16:06:19:313,1.5027,3.3858,5.8409,57.6758,0.3662,0.1318,0.4301,40.5089
16:06:19:337,1.2275,3.5031,6.0778,55.1905,0.2538,0.2711,0.2078,40.0818
16:06:19:351,0.5671,3.649,6.8435,57.3115,0.1121,0.2308,0.0269,39.91
16:06:19:370,-0.0239,3.5366,7.2287,53.2195,-0.0015,-0.049,-0.0708,39.9809
16:06:19:392,-0.0909,3.5892,8.2265,53.5822,-0.0675,-0.2383,-0.0378,40.1158
16:06:19:414,0.3924,3.4983,8.2193,55.1905,0.139,0.0646,0.165,40.0785
16:06:19:541,0.0909,3.4074,7.9872,54.5598,0.2269,0.2186,0.1284,39.6423
16:06:19:555,-0.2489,3.5749,8.7099,54.0225,0.2147,0.155,0.099,39.4987
16:06:19:556,0.256,3.5509,8.7912,53.0894,0.1793,-0.0856,0.1919,39.3491
16:06:19:556,0.6891,3.2997,8.9659,51.3587,-0.0052,-0.0893,0.3202,39.05
16:06:19:557,0.8279,3.6084,10.5332,53.0894,-0.2959,0.4531,0.3202,38.5291
16:06:19:557,0.2441,4.0487,10.4997,50.7355,-0.219,0.6401,0.2127,38.0662
16:06:19:558,-0.3254,4.0032,9.5234,53.0833,-0.0565,0.4861,0.0123,37.8915
16:06:19:571,0.323,3.8166,9.5354,52.0741,-0.1738,0.0768,-0.0585,37.9007
16:06:19:593,1.3424,2.2229,10.7079,52.8672,-0.5183,-0.319,-0.1038,38.1497
16:06:19:612,0.7322,1.8377,12.7274,54.0528,-0.7712,-0.3581,-0.1978,38.5993
16:06:19:631,0.2225,1.6128,13.0074,52.9027,-0.5635,-0.1968,-0.1758,38.985
16:06:19:651,0.0479,2.2588,11.9593,52.9558,-0.054,-0.1064,-0.0659,39.1858
16:06:19:672,0.5312,2.5125,9.5713,52.4314,0.3577,-0.319,-0.0182,39.3554
16:06:19:697,1.0768,2.5053,8.2337,50.9442,0.3638,-0.5364,-0.0683,39.6017
16:06:19:712,0.9117,2.3497,8.5902,52.0272,0.0461,-0.5096,-0.1514,39.9756
16:06:19:730,0.3709,2.2708,9.545,51.9302,-0.274,-0.3006,-0.1832,40.3461
16:06:19:749,-0.0407,2.2134,10.0499,51.9302,-0.3375,-0.0539,-0.1343,40.6119
16:06:19:771,-0.3374,2.3474,9.7005,51.555,-0.1591,0.0988,-0.0305,40.7196
16:06:19:797,-0.3972,2.5747,8.8247,51.6909,0.084,0.1526,0.0746,40.6782
16:06:19:815,0.055,2.7924,7.5039,51.08,0.2062,0.1074,0.1406,40.5006
16:06:19:832,0.3398,2.9264,7.5278,51.2765,0.117,0.1477,0.1626,40.3135
16:06:19:852,0.4116,2.8331,7.7767,51.2765,-0.0027,0.1819,0.121,40.1363
16:06:19:872,0.737,2.9527,7.9178,52.4514,-0.0162,0.1257,0.1076,39.7726
16:06:19:893,0.9141,3.0556,7.7958,49.4324,-0.004,0.0964,0.0905,39.6362
16:06:19:911,0.9069,3.1178,8.1212,48.9361,-0.0589,0.0952,0.0612,39.51
16:06:19:931,1.048,3.1537,8.5017,48.1735,-0.1212,0.1111,0.0514,39.4043
16:06:19:950,0.9452,3.259,9.1645,51.2765,-0.1273,0.2051,0.0465,39.277
16:06:19:969,0.6365,3.4529,9.32,51.4502,-0.0308,0.1941,0.005,39.2088
16:06:19:994,0.4187,3.5294,9.4253,50.9198,0.1109,0.1111,-0.0036,39.2011
16:06:20:010,0.2943,3.5629,9.2889,50.5114,0.2624,0.0317,0.0172,39.243
16:06:20:032,0.1651,3.5725,9.1693,50.6678,0.3626,-0.0844,0.0563,39.2987
16:06:20:050,-0.213,3.3739,9.1238,49.8892,0.3491,-0.0978,0.0783,39.3377
16:06:20:071,-0.055,2.9551,9.4086,51.2021,0.2526,-0.0123,0.1528,39.2644
16:06:20:091,0.0574,3.1083,10.0642,50.9536,0.1243,-0.0001,0.2688,39.0461
16:06:20:111,-0.0981,3.7807,11.1793,53.2521,0.0779,-0.0148,0.3544,38.776
16:06:20:130,-0.1795,3.8644,10.1121,52.2975,0.2477,0.0207,0.3849,38.4359
16:06:20:150,-0.201,3.7687,9.0903,51.0002,0.3613,0.1159,0.3898,38.0483
16:06:20:172,-0.3422,3.4863,9.7077,50.4403,0.172,0.1208,0.3996,37.6862
16:06:20:192,-0.8255,3.1944,10.8203,51.5741,-0.0492,0.0659,0.3886,37.4032
16:06:20:212,-0.9356,2.7685,10.9831,50.4531,-0.087,0.0194,0.3886,37.1673
16:06:20:230,-0.1316,2.3282,10.8467,50.1762,-0.0834,-0.0587,0.4314,36.8759
16:06:20:250,0.8495,1.8114,10.9831,50.3828,-0.1652,-0.1504,0.4497,36.5851
16:06:20:270,0.8949,1.7037,11.5956,50.1113,-0.252,-0.1773,0.3666,36.4
16:06:20:292,0.5527,1.8521,11.2415,51.5741,-0.1347,-0.1479,0.2688,36.3151
16:06:20:311,0.0861,2.1488,9.7819,51.0166,0.1268,-0.0331,0.2273,36.2233
16:06:20:329,0.4786,2.6297,7.7623,48.5399,0.2233,0.0964,0.325,36.0424
16:06:20:350,0.9308,2.6871,8.2935,48.9232,0.0522,0.0793,0.3434,35.3472
16:06:20:371,1.0409,2.8594,8.808,51.0166,-0.0137,0.0878,0.2786,35.0728
16:06:20:390,0.8829,3.0078,8.2672,50.0068,0.0999,0.0402,0.1785,34.9357
16:06:20:411,0.6987,3.1154,7.5135,50.3501,0.2037,-0.0062,0.1003,34.8992
16:06:20:433,0.792,3.1633,7.3651,48.8356,0.1744,0.0036,0.0734,34.8813
16:06:20:454,0.8159,3.1657,7.8006,48.2487,0.0608,-0.0111,0.0465,34.898
16:06:20:472,0.7131,3.1298,8.5304,49.7654,-0.0162,-0.0807,0.0037,34.9867
16:06:20:492,0.5073,3.0963,8.674,49.4497,0.0351,-0.1626,-0.0378,35.1651
16:06:20:511,0.4211,3.2016,8.2193,48.7875,0.139,-0.1931,-0.0537,35.3919
16:06:20:529,0.6915,3.4169,8.016,48.7191,0.15,-0.2054,-0.0415,35.58
16:06:20:549,1.2156,3.4935,8.339,49.6593,0.0889,-0.275,-0.0512,35.8147
16:06:20:569,1.1174,3.4839,8.6764,46.6938,0.0473,-0.4143,-0.1367,36.1795
16:06:20:592,0.9452,3.4744,8.54,49.1345,0.051,-0.5523,-0.2284,36.7061
16:06:20:609,1.0313,3.5773,8.8343,49.3866,0.0315,-0.5988,-0.2565,37.3075
16:06:20:628,0.8255,3.6443,8.607,49.7214,0.0205,-0.5535,-0.2809,37.9078
16:06:20:647,-0.0598,3.7711,8.8654,48.5525,-0.0125,-0.3739,-0.331,38.5269
16:06:20:668,-1.0265,3.9793,9.6479,49.4511,-0.0724,-0.2616,-0.2956,39.1101
16:06:20:688,-0.067,4.4818,9.3918,48.8744,-0.0553,-0.3006,-0.1184,39.4809
16:06:20:709,1.5027,4.587,9.0592,47.3762,-0.0504,-0.2848,0.0331,39.6242
16:06:20:730,2.0459,4.3741,9.5091,47.5981,-0.1701,-0.1577,-0.0011,39.7287
16:06:20:748,1.1581,3.5103,10.6361,48.297,-0.3301,-0.0453,-0.1086,39.9663
16:06:20:772,1.1701,2.7852,12.2656,46.8053,-0.4389,-0.0135,-0.1196,40.2555
16:06:20:790,1.718,2.8546,11.4066,46.4367,0.0608,-0.0453,-0.0903,40.6204
16:06:20:813,1.8664,2.7446,9.7795,47.9765,0.2758,-0.1492,-0.138,40.9133
16:06:20:844,2.132,2.6082,9.5402,48.0459,0.1268,-0.2237,-0.1294,41.2324
16:06:20:853,1.6678,2.4526,10.2269,49.4555,-0.1444,-0.0869,-0.1074,41.5147
16:06:20:874,0.8088,2.4574,10.3872,49.2604,-0.2312,0.1428,-0.0879,41.7408
16:06:20:914,0.8207,2.7996,9.4804,48.6698,-0.1163,0.276,0.0159,41.7654
16:06:20:914,0.5025,3.0652,8.2169,47.521,0.0083,0.3029,0.0758,41.7041
16:06:20:935,0.0502,3.0676,7.7073,49.8042,-0.0137,0.3774,0.1015,41.5923
16:06:20:947,-0.201,3.0413,7.9274,48.9039,-0.1347,0.5338,0.1919,41.3379
16:06:20:968,0.1675,3.1346,8.2505,50.7358,-0.197,0.6266,0.3104,40.9255
16:06:20:988,0.9332,3.2016,8.485,50.5561,-0.1579,0.5668,0.4106,40.4081
16:06:21:008,1.4165,3.2112,8.3198,47.8553,-0.0345,0.3481,0.4057,39.9349
16:06:21:028,1.4261,3.1896,7.8269,49.463,0.0559,0.1257,0.2957,39.6583
16:06:21:048,1.0552,3.0652,8.0853,47.5987,0.0241,0.0475,0.187,39.5629
16:06:21:069,0.6006,2.9001,8.3797,47.3795,-0.0223,0.0561,0.1284,39.5357
16:06:21:088,0.3781,2.9791,8.406,49.6272,-0.0076,0.0805,0.1332,39.5162
16:06:21:111,0.3015,3.2566,8.2457,49.3686,0.0327,0.0744,0.1858,39.4019
16:06:21:130,0.4498,3.3906,8.1811,48.797,0.0718,0.1049,0.2554,39.1996
16:06:21:148,0.7083,3.4361,8.6405,46.6989,0.0803,0.1062,0.3092,38.961
16:06:21:170,0.67,3.3595,8.9635,47.2852,0.1231,0.0549,0.3104,38.7496
16:06:21:189,0.5575,3.3404,8.9563,45.6874,0.2037,0.1001,0.3312,38.5031
16:06:21:208,0.5384,3.3667,9.2004,46.9803,0.2465,0.1795,0.3813,38.2028
16:06:21:228,0.3972,3.4313,10.0092,47.5719,0.2538,0.2283,0.4252,37.8277
16:06:21:250,-0.5599,4.3023,9.8082,47.0188,0.453,0.2858,0.4912,37.4249
16:06:21:278,-0.7489,4.3454,9.1525,46.594,0.4652,0.342,0.5474,36.3178
16:06:21:295,-0.5862,3.4744,9.2124,47.6099,0.2404,0.3224,0.5865,35.7472
16:06:21:308,-0.7489,2.8187,11.1864,45.773,-0.1481,0.342,0.6659,35.1595
16:06:21:329,-1.9071,3.2375,12.6844,48.11,-0.1615,0.6095,0.8052,34.3735
16:06:21:351,-2.4598,3.807,11.0094,46.8968,0.3907,0.8746,0.9799,33.2812
16:06:21:389,-2.3426,4.1731,8.4897,46.8724,0.8867,0.7317,1.0874,32.1047
16:06:21:390,-1.4237,4.2496,7.0564,47.1906,0.795,0.331,1.1167,31.0109
16:06:21:410,-0.4331,3.4648,8.4251,48.7125,0.1366,-0.0062,1.0349,30.1481
16:06:21:429,0.0072,2.4239,11.342,49.9788,-0.5965,-0.104,0.9188,29.4745
16:06:21:463,0.3805,1.7228,12.938,48.7191,-0.7675,0.0597,0.8809,28.7858
16:06:21:469,0.6724,1.5649,11.8828,49.414,-0.3521,0.4971,0.9347,27.8398
16:06:21:490,0.0455,2.4335,9.7603,49.414,0.1756,0.9394,0.9811,26.6745
16:06:21:508,-0.469,3.1801,7.7264,49.403,0.4969,1.0835,0.9884,25.4425
16:06:21:530,-0.5312,3.6514,6.1543,50.9147,0.6118,1.0408,1.0007,24.1808
16:06:21:565,-0.5001,4.1516,5.3504,51.6265,0.5348,0.8502,0.9738,23.0027
16:06:21:669,-0.055,4.1133,5.9246,48.5993,0.2819,0.5203,0.9298,21.9969
16:06:21:670,0.4307,3.5127,7.1976,50.7246,0.0022,0.1526,0.8357,21.2379
16:06:21:670,0.5456,3.3571,7.9346,50.3334,-0.0638,-0.0319,0.7148,20.2115
16:06:21:671,0.457,3.4935,7.3699,46.9736,0.1035,0.0939,0.5596,19.7863
16:06:21:671,0.5264,3.5198,7.4991,45.8322,0.0791,0.1416,0.5107,19.3525
16:06:21:671,0.524,3.6634,7.8006,46.8642,0.062,0.1404,0.4558,18.9792
16:06:21:689,0.481,3.8477,7.6738,46.2535,0.1194,0.1208,0.3947,18.6778
16:06:21:709,0.4834,4.0271,7.4273,45.572,0.1927,0.0952,0.3495,18.2644
16:06:21:734,0.6221,4.1826,7.3149,44.2917,0.2196,0.0536,0.325,18.0606
16:06:21:754,0.6867,4.4889,7.4106,48.433,0.1891,-0.0062,0.286,17.9241
16:06:21:771,0.3948,4.9986,8.0542,47.6961,0.0987,-0.038,0.2346,17.8752
16:06:21:791,-0.0981,5.592,8.7888,47.2969,0.0131,0.0158,0.1968,17.8467
16:06:21:809,-0.3302,5.5849,8.7577,44.1015,-0.0162,0.1306,0.1968,17.7726
16:06:21:828,0.5743,4.209,7.8676,46.1188,-0.1786,0.2894,0.2408,17.528
16:06:21:853,0.8519,2.8642,9.5186,45.0119,-0.6808,0.4299,0.2432,17.2579
16:06:21:872,0.5862,2.0913,14.2277,47.2318,-1.382,0.4128,0.2493,17.0075
16:06:21:892,0.2273,1.7803,17.9629,46.8171,-1.3564,0.3896,0.3043,16.808
16:06:21:909,-0.0981,1.7611,16.9603,46.356,-0.4389,0.0463,0.3287,16.7112
16:06:21:929,0.0861,2.0148,12.8112,45.5327,0.5348,-0.5352,0.4045,16.7112
16:06:21:950,0.4403,2.589,9.4971,47.1149,0.9233,-0.7295,0.5193,16.6471
16:06:21:968,1.2156,3.204,8.1117,46.9517,0.723,-0.407,0.6525,16.3012
16:06:21:989,2.144,3.3643,8.4227,46.0303,0.2318,0.0121,0.6867,15.7362
16:06:22:009,2.1416,3.3284,8.9755,45.9635,-0.1811,0.2137,0.5144,15.2445
16:06:22:028,1.2108,3.2853,9.3057,45.6147,-0.3265,0.2833,0.2346,15.0762
16:06:22:055,0.0024,3.3212,8.5352,44.8589,-0.186,0.3701,0.0257,15.1083
16:06:22:071,-1.127,3.3643,7.0708,46.1538,0.0547,0.4812,-0.0476,15.1837
16:06:22:090,-1.6008,3.4098,6.0993,45.8708,0.1451,0.5008,0.0159,15.2138
16:06:22:109,-1.462,3.2327,6.2644,47.4665,0.018,0.3566,0.1528,15.1509
16:06:22:131,-1.0983,3.0389,7.1497,46.1538,-0.1505,0.1098,0.2835,15.0693
16:06:22:148,-0.4929,2.8618,7.8915,45.726,-0.1738,-0.093,0.3935,14.9215
16:06:22:168,-0.3087,2.8307,7.4345,46.1213,0.1549,-0.1711,0.4484,14.7719
16:06:22:190,-0.5599,3.0628,6.7262,45.5606,0.277,0.0292,0.4924,14.1168
16:06:22:209,-0.6102,3.3236,6.5013,44.9461,0.2526,0.3407,0.595,13.6071
16:06:22:234,-0.4259,3.527,7.1713,46.1538,0.1072,0.6535,0.7111,12.817
16:06:22:253,-0.122,3.6371,8.2935,48.9814,-0.0406,0.8306,0.7844,11.8882
16:06:22:274,0.0359,3.7807,9.1238,47.2136,-0.076,0.8282,0.7844,10.9522
16:06:22:290,-0.0766,3.9553,9.8704,48.3112,-0.0223,0.7329,0.7343,10.1191
16:06:22:308,-0.201,3.9984,10.0977,46.8833,0.0718,0.5961,0.6745,9.4016
16:06:22:330,-0.1986,3.9314,10.148,47.5882,0.1341,0.4861,0.6415,8.75
16:06:22:350,0.3637,3.7998,10.7677,47.9575,0.0144,0.3884,0.6561,8.1144
16:06:22:369,0.0215,4.2975,12.2632,48.2694,-0.2703,0.392,0.639,7.5047
16:06:22:388,-0.8231,4.0606,13.0241,48.4968,-0.4047,0.7586,0.5633,6.8466
16:06:22:409,-1.5721,3.2542,13.7492,48.3677,-0.4157,1.0677,0.5144,6.1686
16:06:22:431,-2.2851,2.8116,14.6249,47.9428,-0.39,0.7854,0.5474,5.5817
16:06:22:451,-2.6225,2.9216,14.0985,49.7983,-0.1163,0.2393,0.7038,5.0626
16:06:22:468,-1.5769,3.527,11.6746,48.3878,0.398,0.0927,1.019,4.2504
16:06:22:488,-0.2895,3.8189,9.3368,47.3528,0.712,0.2784,1.234,3.0664
16:06:22:507,0.6437,3.8883,8.4419,47.9802,0.5299,0.3823,1.1876,1.8525
16:06:22:528,0.3781,3.4529,9.3153,48.1629,0.0217,0.3285,0.9335,0.9502
16:06:22:549,-0.548,2.9097,10.3298,48.8129,-0.3375,0.3236,0.6879,0.3445
16:06:22:569,-0.7489,2.5699,10.4351,47.4552,-0.3472,0.3664,0.6537,359.7593
16:06:22:592,-0.402,2.2899,9.8106,47.9077,-0.2031,0.3383,0.7209,359.1058
16:06:22:618,0.1699,2.0722,9.332,49.1281,0.04,0.2515,0.7942,357.4418
16:06:22:635,0.28,2.0124,9.0784,48.6162,0.2269,0.1624,0.7783,356.7536
16:06:22:654,0.2823,2.1057,8.1787,48.4681,0.5006,0.0952,0.7588,356.1182
16:06:22:671,0.4498,2.4144,7.2191,47.2282,0.7242,0.0744,0.7539,355.4919
16:06:22:691,0.682,2.79,6.6401,48.7704,0.8146,0.0475,0.7417,354.8871
16:06:22:709,0.8399,3.1777,6.274,48.223,0.7914,-0.0209,0.6757,354.4022
16:06:22:729,0.8806,3.4361,6.0586,48.5807,0.7083,-0.0697,0.5621,354.0415
16:06:22:753,0.9667,3.5414,6.006,47.6702,0.5654,-0.115,0.4252,353.8246
16:06:22:785,0.9643,3.6275,6.2022,47.8447,0.3845,-0.1724,0.2811,353.8142
16:06:22:787,0.9212,3.74,6.7095,47.4402,0.2221,-0.2408,0.1479,353.9453
16:06:22:806,0.7466,3.8405,7.3053,50.4008,0.1268,-0.3312,0.0086,354.2885
16:06:22:826,0.3733,3.8644,7.6307,46.3227,0.0974,-0.4192,-0.127,354.8238
16:06:22:876,0.1795,3.9529,7.9107,47.4402,0.0596,-0.5267,-0.2101,355.5114
16:06:22:877,0.1866,3.8046,8.7769,48.0161,-0.0626,-0.6733,-0.2259,356.2657
16:06:22:887,0.0431,4.0008,9.7292,47.8185,-0.1725,-0.782,-0.2161,357.0719
16:06:22:908,-0.414,4.7186,10.1145,48.0143,-0.1811,-0.6867,-0.16,357.8099
16:06:22:928,0.0048,5.135,9.3631,47.5478,-0.1383,-0.3739,-0.0317,358.2342
16:06:22:949,1.3376,4.5464,9.143,47.75,-0.3582,-0.104,0.0306,358.4192
16:06:22:969,1.9262,3.2136,11.7153,48.1393,-0.9544,-0.1834,-0.1013,358.7528
16:06:22:988,1.3735,2.388,15.9577,48.1054,-1.4089,-0.5829,-0.331,359.5575
16:06:23:008,0.3661,1.7827,16.6134,46.9873,-1.0522,-1.0154,-0.4312,0.6721
16:06:23:031,-0.5599,2.3474,12.9715,48.3075,-0.0602,-0.942,-0.2589,1.5936
16:06:23:049,-0.0981,3.2495,9.3488,46.84,0.6106,-0.2897,0.1674,1.7903
16:06:23:071,2.0339,3.7902,8.5926,45.1067,0.0962,0.6547,0.6647,1.2567
16:06:23:088,1.8999,3.5749,9.7651,47.1975,-0.2544,0.5167,0.4839,0.2563
16:06:23:108,0.9667,3.3715,9.5928,50.154,-0.2239,0.2393,0.2224,359.5289
16:06:23:132,0.1436,3.3452,8.1739,50.1817,0.0571,0.1758,0.1259,359.563
16:06:23:151,-0.3709,3.4193,6.8219,48.8351,0.2697,0.2931,0.176,359.5055
16:06:23:168,-0.3924,3.4911,6.2333,50.4041,0.3161,0.4519,0.3067,359.2305
16:06:23:191,-0.2034,3.4911,5.9127,50.0709,0.288,0.5044,0.4289,358.8274
16:06:23:213,-0.1196,3.5821,5.7188,48.8172,0.2575,0.4434,0.4753,358.3849
16:06:23:227,0.0144,3.6012,5.4963,50.1584,0.2184,0.3273,0.4765,357.9738
16:06:23:246,0.2489,3.594,5.7356,50.2289,0.1598,0.2345,0.4643,357.611
16:06:23:267,0.536,3.6132,6.463,49.758,0.0779,0.1697,0.4411,357.2856
16:06:23:287,0.4546,3.6682,6.6688,50.9557,0.0461,0.1673,0.3935,357.0314
16:06:23:306,0.28,3.6467,6.5803,51.5544,0.0022,0.3212,0.3519,356.7571
16:06:23:326,0.0814,3.7854,7.3986,50.7749,-0.1786,0.5338,0.3751,356.3697
16:06:23:347,0.6197,3.4481,9.521,50.3173,-0.4426,0.579,0.4827,355.8285
16:06:23:367,1.3137,3.3141,11.0907,49.2085,-0.4939,0.4263,0.5828,355.2246
16:06:23:386,1.7659,3.2614,11.6913,49.3523,-0.2495,0.2613,0.6158,354.604
16:06:23:405,2.0842,3.3667,11.2822,51.1424,0.1145,0.1709,0.5865,354.051
16:06:23:428,2.2851,3.3523,10.7462,49.5055,0.3516,0.0817,0.4998,353.6216
16:06:23:445,2.0052,3.4481,10.7079,52.2115,0.3467,-0.0282,0.3666,353.3819
16:06:23:466,1.4309,3.8166,10.5332,49.6792,0.2599,0.0512,0.2664,353.2362
16:06:23:486,0.8207,3.7352,9.7531,50.9985,0.2147,0.5057,0.2578,352.9138
16:06:23:508,0.2393,3.7304,9.6455,50.6614,0.1011,1.053,0.3299,352.2824
16:06:23:531,-0.8782,4.7043,8.7649,48.8392,0.0718,1.3426,0.4546,350.4862
16:06:23:549,-1.4548,5.3623,7.3747,53.0577,0.1842,1.4012,0.4668,349.6394
16:06:23:568,-1.3448,5.4556,6.7789,49.1113,0.018,1.2827,0.457,348.8446
16:06:23:589,-0.7633,4.5751,7.8628,50.372,-0.4926,0.8013,0.369,348.3018
16:06:23:612,-0.3709,3.3571,10.4327,49.6592,-1.1145,0.1037,0.1723,348.2536
16:06:23:630,-0.1986,2.2995,13.7898,50.541,-1.5006,-0.5816,-0.0268,348.6471
16:06:23:651,-0.2776,1.273,14.9169,51.893,-1.3649,-1.0056,-0.1306,349.2698
16:06:23:665,-0.8519,1.1007,13.8473,54.1615,-0.7565,-0.8614,-0.0476,349.8203
16:06:23:728,-0.9882,1.2969,11.4138,51.1576,-0.1041,-0.2371,0.2591,349.8081
16:06:23:729,-0.2106,1.7013,10.2341,50.7497,0.2159,0.4299,0.6561,349.1308
16:06:23:730,0.7753,1.9047,9.7412,51.1014,0.3222,0.7402,0.9481,348.0097
16:06:23:748,1.4142,2.2804,9.0018,50.8967,0.4591,0.7012,1.0056,346.8233
16:06:23:767,1.6893,2.6895,8.0231,53.0857,0.646,0.5276,0.9029,345.7827
16:06:23:787,1.6152,2.9719,7.0134,49.5832,0.7816,0.2674,0.7062,345.0591
16:06:23:808,1.1414,3.137,5.9366,50.4885,0.8244,0.0304,0.4924,344.6478
16:06:23:830,0.7944,3.3763,5.3312,50.8151,0.7523,-0.1064,0.3373,344.4676
16:06:23:848,0.7777,3.5175,5.4245,50.2192,0.5605,-0.2554,0.253,344.4594
16:06:23:867,1.1103,3.5318,5.7476,49.2933,0.3516,-0.4302,0.1736,344.6034
16:06:23:887,1.3783,3.4552,6.4534,51.1189,0.2159,-0.5303,0.0416,344.9059
16:06:23:908,1.1079,3.3739,6.9392,48.5585,0.1732,-0.6232,-0.1465,345.4414
16:06:23:928,0.6221,3.5151,6.9512,48.8398,0.2147,-0.6965,-0.3261,346.2431
16:06:23:948,0.1436,3.8022,6.7334,48.8362,0.2563,-0.6977,-0.4361,347.1703
16:06:23:967,-0.1866,4.1683,7.1857,49.745,0.1658,-0.6464,-0.4862,348.1286
16:06:23:987,-0.2177,4.1444,8.0806,47.297,-0.0614,-0.5401,-0.4727,349.0496
16:06:24:009,-0.3852,4.0798,11.6387,48.4306,-0.638,-0.1137,-0.3359,350.2574
16:06:24:028,0.6054,2.9743,13.4405,48.0502,-0.8506,-0.1333,-0.2479,350.6943
16:06:24:048,1.6798,1.6008,15.1825,48.6225,-1.018,-0.5841,-0.2626,351.2743
16:06:24:069,1.8999,0.7202,16.5847,48.087,-0.9862,-0.9824,-0.3151,352.0653
16:06:24:093,1.1055,0.6317,16.5871,47.2665,-0.5745,-0.9042,-0.3053,352.8307
16:06:24:109,0.2967,1.1103,14.12,45.9995,0.1524,-0.3788,-0.116,353.2317
16:06:24:130,0.7035,1.7372,10.8299,46.2959,0.7584,0.1624,0.231,353.0692
16:06:24:147,1.7085,2.467,8.7864,47.1625,0.8708,0.3078,0.4961,352.5248
16:06:24:167,2.8044,3.0796,8.0638,47.0125,0.6093,0.1294,0.5425,351.9703
16:06:24:191,3.0676,3.2136,7.7886,45.9094,0.2526,-0.1467,0.3458,351.7393
16:06:24:208,2.4837,3.058,7.6929,46.8969,-0.015,-0.2383,0.0306,351.8765
16:06:24:226,1.6152,3.1274,7.4034,46.0172,-0.1225,-0.0539,-0.1966,352.2057
16:06:24:246,0.7107,3.2279,6.6401,46.4129,-0.1188,0.2418,-0.3004,352.5511
16:06:24:269,0.2369,3.4768,6.2285,47.2971,-0.1286,0.4214,-0.298,352.8438
16:06:24:290,0.4379,3.539,6.3888,46.0172,-0.208,0.3725,-0.2247,353.0497
16:06:24:308,0.6628,3.6156,6.8602,46.2372,-0.2715,0.2345,-0.1783,353.2748
16:06:24:327,0.9476,3.594,7.255,45.5872,-0.263,0.1062,-0.1673,353.5223
16:06:24:347,1.4022,3.6012,7.4106,45.8087,-0.1994,0.0439,-0.1563,353.7633
16:06:24:374,1.5649,3.5844,7.7815,45.1203,-0.1493,0.0695,-0.1746,353.9989
16:06:24:393,1.4644,3.5605,8.0136,43.0093,-0.0956,0.144,-0.2161,354.2417
16:06:24:414,1.1892,3.6778,8.1667,45.4547,-0.0247,0.21,-0.2308,354.4829
16:06:24:429,0.8686,3.8835,8.1404,43.6004,0.0498,0.2405,-0.2113,354.703
16:06:24:448,0.9739,3.8907,8.1356,44.8664,0.1268,0.199,-0.0879,354.8522
16:06:24:466,1.2275,3.728,8.875,45.5872,0.0938,0.0891,-0.0585,354.9576
16:06:24:487,0.9978,3.8237,9.466,44.3876,0.1255,-0.0331,-0.0769,355.1526
16:06:24:507,0.5743,4.0726,9.6431,42.7757,0.2404,-0.121,-0.0928,355.3894
16:06:24:526,0.682,4.2736,9.1286,44.4721,0.343,-0.1736,-0.0524,355.619
16:06:24:547,1.2897,4.8957,9.1047,43.3699,0.2355,-0.1785,0.0062,355.7634
16:06:24:567,2.1966,4.3047,10.3849,42.4524,-0.1628,-0.1675,-0.0305,355.9145
16:06:24:589,2.4598,2.8786,13.1605,43.1269,-0.616,-0.2799,-0.2186,356.2871
16:06:24:609,1.3113,2.211,14.9336,39.2831,-0.6869,-0.5218,-0.4483,357.0517
16:06:24:629,-0.6508,2.5938,12.8136,41.5864,-0.1115,-0.3141,-0.513,357.8482
16:06:24:648,-1.7946,3.5605,9.0425,40.6722,0.5874,0.447,-0.3347,358.2042
16:06:24:669,-2.2205,4.2616,6.6664,40.8341,0.6399,1.02,-0.094,358.0712
16:06:24:687,-1.6606,3.8046,7.6187,40.8143,-0.004,0.9711,0.0697,357.7573
16:06:24:707,-1.0289,2.6345,10.806,39.8841,-0.8054,0.3065,0.0966,357.6604
16:06:24:726,-0.4068,1.8401,13.5434,39.8743,-1.0986,-0.4473,0.0624,357.8713
16:06:24:746,-0.2632,1.5123,13.1031,41.0349,-0.7174,-0.8272,0.0697,358.2321
16:06:24:768,-0.6748,1.9047,10.2987,40.3185,-0.0931,-0.6403,0.1711,358.3991
16:06:24:792,-0.7394,2.4024,8.3103,39.312,0.2172,-0.093,0.3825,358.169
16:06:24:833,-0.28,2.7398,7.5924,38.5186,0.1989,0.2992,0.6036,356.0667
16:06:24:849,0.4283,3.4193,7.7049,38.2105,0.1439,-0.1516,0.4912,355.696
16:06:24:867,0.0407,3.3045,7.602,39.3362,0.2159,-0.3092,0.3605,355.5504
16:06:24:886,-0.1292,3.1585,7.6211,38.9106,0.2502,-0.33,0.3104,355.4498
16:06:24:905,0,3.0891,7.9346,38.9106,0.277,-0.2774,0.3226,355.2434
16:06:24:925,0.4475,3.0437,8.3557,37.186,0.3271,-0.2652,0.3348,355.0798
16:06:24:945,0.7633,3.07,8.4969,38.0656,0.4297,-0.3055,0.2994,354.9602
16:06:24:967,0.8686,3.1059,8.1499,37.4679,0.5434,-0.3678,0.2163,354.9445
16:06:24:987,0.9643,3.2949,8.0877,37.2667,0.5788,-0.3996,0.1394,355.0382
16:06:25:011,1.4357,3.3619,8.1978,35.6752,0.5079,-0.4253,0.0844,355.19
16:06:25:027,2.0865,3.2088,8.7218,36.845,0.3552,-0.4424,0.0001,355.409
16:06:25:049,2.2181,2.8977,9.4325,37.3581,0.1561,-0.3874,-0.1062,355.7419
16:06:25:071,1.5936,2.6824,10.0116,37.3581,0.0522,-0.115,-0.1819,356.0326
16:06:25:088,0.9523,3.2877,9.9541,38.1346,0.1658,0.2173,-0.1404,356.1583
16:06:25:108,1.2179,4.008,8.985,37.4583,0.3638,0.3383,0.0013,356.0941
16:06:25:128,2.1583,4.2186,8.3414,36.7285,0.3772,0.1611,0.099,355.9716
16:06:25:146,3.6658,3.6993,8.6907,37.0886,0.0706,-0.2347,0.0856,355.9903
16:06:25:167,4.2449,2.9384,10.3035,34.3587,-0.4193,-0.6391,-0.0744,356.3338
16:06:25:187,3.7687,2.0243,13.1438,33.4593,-0.8127,-0.782,-0.2589,356.9316
16:06:25:208,2.6824,1.6104,14.3067,33.3151,-0.7309,-0.5169,-0.3102,357.4791
16:06:25:227,1.9286,1.9956,12.8088,34.487,-0.2116,0.0023,-0.1954,357.7141
16:06:25:247,1.742,2.5125,11.0309,35.3281,0.117,0.1844,-0.0353,357.7326
16:06:25:275,1.8161,2.8092,10.4877,34.0053,0.0755,0.0304,0.0795,357.6767
16:06:25:287,1.7061,3.216,10.0188,33.6805,0.029,-0.0649,0.1296,357.6053
16:06:25:307,1.5075,3.6371,8.7625,33.1498,0.1536,0.0439,0.1442,357.4854
16:06:25:327,1.5027,3.9984,7.2024,33.4245,0.3161,0.2528,0.1638,357.2604
16:06:25:347,1.5242,4.2712,6.0275,33.7606,0.3797,0.4226,0.1516,356.9764
16:06:25:368,0.792,4.2975,5.4102,34.7176,0.2147,0.3786,-0.039,356.7659
16:06:25:390,0.4092,4.2186,5.3264,33.569,0.1292,0.2833,-0.1013,356.7139
16:06:25:408,0.2153,4.0798,5.5705,34.5972,0.0535,0.1868,-0.1038,356.799
16:06:25:426,0.2249,3.7878,6.5348,32.1365,-0.0443,0.0842,-0.05,356.8639
16:06:25:447,0.6293,3.5031,7.4225,32.896,-0.0785,-0.0111,0.0453,356.8795
16:06:25:467,1.2251,3.4768,7.6355,34.0349,-0.0027,-0.0685,0.1491,356.7662
16:06:25:488,1.5147,3.6012,7.5685,34.1219,0.0987,-0.016,0.2163,356.559
16:06:25:507,1.5386,3.8716,7.4321,32.896,0.172,0.1685,0.2456,356.2752
16:06:25:526,1.6558,4.1779,7.4919,32.8926,0.1805,0.364,0.2664,355.8445
16:06:25:546,1.7707,4.4124,8.1189,32.0815,0.1109,0.4641,0.2725,355.3561
16:06:25:570,1.8449,4.5248,8.7697,32.3902,0.0229,0.4055,0.2298,354.9685
16:06:25:589,1.7563,4.7043,9.2746,32.4361,-0.0467,0.2699,0.1589,354.6989
16:06:25:608,1.809,5.0106,9.4875,31.8914,-0.1554,0.1526,0.1088,354.5263
16:06:25:626,2.6034,4.252,10.3131,32.8585,-0.423,0.0451,0.0587,354.4348
16:06:25:646,2.857,2.881,13.2275,32.4048,-0.8555,-0.1113,-0.0451,354.5037
16:06:25:668,2.0387,2.1416,15.4122,30.9105,-0.9373,-0.0966,-0.1294,354.6695
16:06:25:687,0.3374,2.8068,13.6128,31.8788,-0.324,0.2919,-0.1221,354.7217
16:06:25:706,-0.5719,3.5988,10.0834,31.0338,0.4102,0.7121,-0.0036,354.5117
16:06:25:727,-0.9021,3.9673,8.5424,32.4321,0.4921,0.6059,0.1332,354.1758
16:06:25:836,-0.1579,3.2782,9.9685,30.9493,0.0535,0.1697,0.2408,353.892
16:06:25:837,0.5791,2.589,11.7177,31.9875,-0.2935,-0.2444,0.2615,353.7391
16:06:25:838,0.6604,2.1679,12.3302,33.4087,-0.2642,-0.3678,0.2188,353.6785
16:06:25:838,0.4738,2.1823,11.2415,31.1452,-0.0101,-0.2567,0.2041,353.5836
16:06:25:839,0.9165,2.412,8.7458,32.1375,0.1891,0.0426,0.3165,353.3542
16:06:25:857,1.2156,2.5316,8.1739,32.5411,0.1207,0.0378,0.3226,353.0054
16:06:25:873,1.1725,2.7326,7.3029,33.5556,0.1304,-0.0001,0.2762,352.3426
16:06:25:890,1.2514,3.0221,6.2907,32.2117,0.1817,-0.0343,0.2395,352.1108
16:06:25:906,1.5697,3.2351,5.4317,33.5881,0.1927,-0.0832,0.2188,351.8969
16:06:25:926,1.5984,3.2877,5.2786,32.5944,0.1341,-0.1003,0.1589,351.7522
16:06:25:947,1.4405,3.2734,5.6136,32.0219,0.0388,-0.1296,0.0673,351.7383
16:06:25:969,1.5027,3.1968,6.2788,32.657,-0.0662,-0.2164,-0.0073,351.8322
16:06:25:988,1.5769,3.0604,7.3053,31.8713,-0.1591,-0.3055,-0.0708,352.0199
16:06:26:007,1.541,2.9408,8.4084,32.484,-0.1689,-0.3654,-0.1319,352.2881
16:06:26:027,1.4501,2.9958,8.8917,33.0487,-0.0662,-0.396,-0.1819,352.6054
16:06:26:049,1.2969,3.3045,8.5137,32.9498,0.0901,-0.4008,-0.2198,352.9904
16:06:26:070,1.3831,3.3571,8.2959,31.1969,0.106,-0.4424,-0.2467,353.4156
16:06:26:091,1.6654,3.3858,9.0257,31.2525,-0.0675,-0.4558,-0.254,353.8601
16:06:26:108,1.651,3.2758,10.2509,32.7607,-0.2458,-0.2787,-0.2443,354.2011
16:06:26:132,0.7825,4.1324,10.337,32.8117,-0.2153,0.0463,-0.2357,354.4562
16:06:26:148,0.5958,4.5775,8.4897,33.2877,-0.0602,0.2784,-0.177,354.5514
16:06:26:167,2.2349,3.7543,7.6929,33.0148,-0.2788,0.0903,-0.105,354.5868
16:06:26:187,3.716,2.3833,10.7845,33.1894,-0.9557,-0.4998,-0.1209,354.8004
16:06:26:208,4.1085,1.1127,15.4146,30.9158,-1.4077,-0.8834,-0.232,355.2686
16:06:26:227,2.9671,1.1964,15.5246,32.1289,-0.9752,-0.7173,-0.3261,355.7724
16:06:26:249,2.5364,1.5625,12.4044,31.486,-0.1652,-0.3275,-0.2443,356.0236
16:06:26:266,2.8546,2.1918,10.1623,33.2477,0.1097,-0.2518,-0.0928,356.1101
16:06:26:287,4.1994,2.1129,10.8682,34.7313,-0.2972,-0.2799,-0.0671,356.2091
16:06:26:308,3.2303,2.2181,10.2724,32.7665,-0.2654,-0.1736,-0.2528,356.4585
16:06:26:328,1.931,2.3761,9.2483,34.7313,-0.1151,0.0707,-0.3848,356.786
16:06:26:347,1.1629,2.8762,8.2026,33.4663,0.0193,0.3248,-0.3786,357.0547
16:06:26:368,0.5719,3.2495,7.3101,34.1512,0.1182,0.4996,-0.32,357.2022
16:06:26:387,0.1101,3.5773,6.7334,34.0156,0.1756,0.5216,-0.2601,357.2968
16:06:26:405,-0.1842,3.6299,6.5707,33.8058,0.1622,0.3688,-0.1991,357.3655
16:06:26:426,-0.1866,3.5031,6.8985,35.1979,0.1011,0.1673,-0.1172,357.4282
16:06:26:450,-0.0239,3.3978,7.5781,34.7207,0.0828,0.1123,-0.006,357.3595
16:06:26:470,0.146,3.3763,7.8891,33.7821,0.1549,0.1795,0.1003,357.1558
16:06:26:486,0.5145,3.4672,7.9657,34.5136,0.266,0.2491,0.1907,356.8297
16:06:26:507,0.8662,3.4648,8.193,34.5136,0.3369,0.2747,0.253,356.42
16:06:26:528,1.1486,3.4217,8.5878,35.1057,0.3821,0.2919,0.2921,355.9575
16:06:26:547,1.2514,3.4289,9.0401,36.0294,0.4444,0.3591,0.3263,355.4131
16:06:26:568,1.273,3.4409,9.2052,35.528,0.5556,0.4104,0.3544,354.8207
16:06:26:587,1.3495,3.6299,9.1597,37.4503,0.6912,0.4055,0.38,354.2092
16:06:26:607,1.4788,3.8142,8.7147,36.6928,0.7889,0.331,0.3886,353.5943
16:06:26:632,1.8473,3.7591,8.8032,37.0759,0.7462,0.2124,0.3641,353.0386
16:06:26:647,2.1129,3.7352,9.6718,36.3193,0.5483,0.0927,0.3214,352.5751
16:06:26:666,1.9597,4.0893,10.5356,35.0536,0.3381,0.1391,0.275,352.1493
16:06:26:686,1.7922,3.8835,10.6098,36.1902,0.244,0.4556,0.2493,351.6229
16:06:26:705,1.5434,3.4887,11.5358,38.0638,0.0999,0.6694,0.2566,350.983
16:06:26:727,0.4881,3.6275,11.7655,37.3067,0.1048,0.7745,0.2762,350.2788
16:06:26:747,-1.0911,4.3334,8.5065,38.6689,0.5189,0.7268,0.3898,349.5284
16:06:26:767,-0.1412,3.74,8.7266,38.1444,0.2172,0.3468,0.5095,348.1251
16:06:26:787,1.0935,2.8068,10.9041,38.1563,-0.2788,-0.0184,0.5828,347.4565
16:06:26:808,1.5123,1.9813,13.7803,37.964,-0.5281,-0.1577,0.5401,346.8663
16:06:26:832,1.4189,1.7898,13.6726,37.7647,-0.2654,-0.1406,0.4765,346.2901
16:06:26:850,1.2179,2.3497,10.4973,38.5418,0.2783,0.1086,0.501,345.6138
16:06:26:866,1.5482,2.9312,7.8269,38.4033,0.5043,0.3749,0.5706,344.7573
16:06:26:886,2.0506,3.1729,6.987,38.919,0.332,0.491,0.5767,343.8643
16:06:26:912,2.0722,3.2375,7.1354,37.858,0.084,0.491,0.4875,343.0408
16:06:26:927,1.8185,3.3595,7.2885,40.5835,0.0107,0.4079,0.3654,342.3849
16:06:26:944,1.6774,3.4529,7.0205,39.9213,0.1048,0.2931,0.2847,341.88
16:06:26:965,1.5673,3.5007,6.262,41.0085,0.2502,0.1673,0.2346,341.4984
16:06:26:986,1.608,3.6586,5.8385,40.0136,0.3051,0.0817,0.2078,341.1615
16:06:27:005,1.7994,3.6993,6.2118,40.2612,0.2367,0.0329,0.1736,340.8692
16:06:27:027,1.9382,3.594,6.6401,39.7169,0.1598,-0.0111,0.1064,340.6747
16:06:27:046,2.0865,3.5797,7.1474,39.2614,0.1439,-0.0197,0.0269,340.5565
16:06:27:071,2.0124,3.6132,7.6235,39.312,0.194,-0.027,-0.0695,340.5044
16:06:27:086,1.5745,3.7831,7.8413,41.5604,0.2722,-0.027,-0.1758,340.6029
16:06:27:106,0.8782,4.2209,7.3675,39.8167,0.3711,-0.0099,-0.2565,340.7787
16:06:27:127,0.7107,4.4435,6.7836,40.0136,0.3589,0.0109,-0.2931,341.0038
16:06:27:147,0.7226,4.3621,7.6666,40.2732,0.1097,-0.0331,-0.3139,341.2513
16:06:27:165,0.7155,3.8644,10.1025,40.8822,-0.2031,-0.1601,-0.3457,341.5724
16:06:27:186,0.0526,4.0367,11.1769,40.6935,-0.2336,-0.2982,-0.3701,342.007
16:06:27:207,1.048,4.41,7.9178,42.3548,0.0217,-0.2225,-0.276,342.3053
16:06:27:230,2.613,3.4433,9.5522,41.8923,-0.4389,0.342,0.0208,342.3184
16:06:27:247,2.9264,2.6369,12.8447,42.8084,-0.9581,0.579,-0.0695,341.7191
16:06:27:266,1.9669,2.3713,14.0913,40.9476,-0.9324,0.4507,-0.298,341.6726
16:06:27:286,0.9954,2.5771,12.7131,44.0454,-0.4401,0.2137,-0.4141,341.8895
16:06:27:305,1.084,2.9408,9.8967,42.8806,0.0193,-0.0001,-0.3542,342.1314
16:06:27:327,1.6965,3.1035,8.6596,43.6572,0.0302,-0.1736,-0.2846,342.3714
16:06:27:348,2.2158,2.9145,9.1262,42.7425,-0.2654,-0.3104,-0.3139,342.6841
16:06:27:365,2.1679,2.8044,9.5522,41.8146,-0.4633,-0.3752,-0.4239,343.1157
16:06:27:387,1.7228,2.8211,8.6788,43.9072,-0.4181,-0.2628,-0.535,343.645
16:06:27:412,1.1246,2.948,7.5733,43.9757,-0.3314,-0.0526,-0.601,344.1385
16:06:27:428,0.4355,3.0413,7.0181,42.8815,-0.3265,0.1477,-0.6267,344.6041
16:06:27:447,-0.0215,3.0772,6.7765,44.2518,-0.357,0.2345,-0.6157,345.0547
16:06:27:469,-0.3565,3.1322,6.7382,43.6595,-0.3827,0.1746,-0.5753,345.4976
16:06:27:486,-0.5001,3.2088,7.0301,45.0284,-0.3851,0.028,-0.5167,345.9267
16:06:27:505,-0.6389,3.2638,7.2096,45.6852,-0.3314,-0.0978,-0.4507,346.3398
16:06:27:527,-0.8016,3.5198,7.188,44.7409,-0.2361,-0.1467,-0.3725,346.685
16:06:27:546,-0.7322,3.7591,7.1354,43.6077,-0.153,-0.165,-0.2809,346.9279
16:06:27:567,-0.5647,4.0199,7.4608,45.4516,-0.1225,-0.1589,-0.1954,347.1116
16:06:27:588,-0.4259,4.0845,8.3151,45.9595,-0.1359,-0.1699,-0.1416,347.2135
16:06:27:613,-0.4427,4.0654,9.5474,45.4516,-0.1163,-0.2017,-0.1074,347.2913
16:06:27:630,-0.5145,3.9553,10.4518,46.4688,0.0315,-0.2322,-0.0647,347.3333
16:06:27:645,-0.7155,4.0319,10.6792,45.1932,0.3051,-0.2713,-0.0085,347.3293
16:06:27:666,-0.4283,4.8,9.5019,45.6823,0.7303,-0.2176,0.1919,347.2622
16:06:27:687,0.3972,5.1494,9.5019,45.6823,0.6533,-0.0526,0.3018,346.7495
16:06:27:710,1.2682,5.6447,10.6122,44.553,0.3552,0.0255,0.3214,346.2695
16:06:27:728,1.8831,5.1159,11.9187,45.911,0.0131,-0.0135,0.1821,345.9361
16:06:27:745,1.7707,3.929,13.0241,45.7139,-0.2397,-0.115,-0.0585,345.8794
16:06:27:766,0.5216,3.0652,13.8951,46.472,-0.2849,-0.1369,-0.2577,346.0656
16:06:27:785,-1.462,3.271,12.6437,46.7171,0.051,0.1636,-0.2748,346.177
16:06:27:806,-2.1009,4.0247,9.9996,46.7171,0.5678,0.739,-0.0134,345.7928
16:06:27:826,-1.9765,4.8407,8.2289,45.5776,0.7266,1.0127,0.264,345.0118
16:06:27:847,-1.2347,4.8838,8.0686,46.2619,0.4114,0.7586,0.3886,344.1775
16:06:27:919,-0.5097,3.9625,9.6359,47.3222,-0.1261,0.155,0.3287,343.6398
16:06:27:920,-0.1053,3.1107,11.4425,46.4458,-0.4828,-0.33,0.2017,343.4435
16:06:27:921,0.0072,2.4981,11.7727,46.4458,-0.4841,-0.4497,0.1296,343.3656
16:06:27:935,-0.2513,2.3474,10.5835,46.4458,-0.2788,-0.1504,0.1577,343.1381
16:06:27:945,-0.0766,2.388,9.8034,46.4458,-0.1444,0.392,0.3055,342.5388
16:06:27:967,0.402,2.1224,10.081,46.4458,-0.1444,0.7012,0.4436,341.6718
16:06:27:985,0.7489,1.8401,10.5141,46.4458,-0.0577,0.634,0.5034,340.7701
16:06:28:009,0.9476,2.0818,9.4373,46.4458,0.2795,0.3517,0.5205,339.9722
16:06:28:027,1.2012,2.4479,7.681,47.7061,0.6716,0.1465,0.5364,339.2478
16:06:28:046,1.474,2.7757,6.2572,46.8764,0.8818,0.1086,0.5169,338.5319
16:06:28:066,1.4812,3.0485,5.4915,45.7763,0.8977,0.1233,0.4374,337.8976
16:06:28:087,1.2849,3.2949,5.3839,46.8051,0.7853,0.0622,0.3018,337.4473
16:06:28:110,1.1605,3.2471,5.4939,46.5158,0.6374,-0.1064,0.1552,337.1648
16:06:28:127,1.139,3.3165,6.5085,47.1924,0.4297,-0.3972,-0.0585,337.4019
16:06:28:148,1.0576,3.4552,6.8506,46.9638,0.4114,-0.5047,-0.1502,337.6529
16:06:28:167,0.9332,3.8357,6.6185,45.7886,0.431,-0.5523,-0.2418,338.0437
16:06:28:184,0.7657,4.197,6.4487,47.838,0.354,-0.5597,-0.3224,338.5265
16:06:28:206,0.6604,4.2209,7.4202,46.2202,0.0657,-0.567,-0.4006,339.0769
16:06:28:229,0.189,4.2496,8.6405,46.5301,-0.2483,-0.5755,-0.4532,339.6837
16:06:28:245,-0.1675,4.7186,9.6287,47.0884,-0.4291,-0.5145,-0.4104,340.2224
16:06:28:265,0.4379,4.8383,10.4303,46.7061,-0.5317,-0.4057,-0.2736,340.5719
16:06:28:286,1.328,4.4339,11.3013,47.1026,-0.6344,-0.2872,-0.2064,340.7715
16:06:28:305,2.1176,3.7759,11.8229,46.6076,-0.748,-0.2359,-0.2577,340.9877
16:06:28:325,1.8616,2.936,13.4046,47.0829,-0.9227,-0.2506,-0.408,341.3335
16:06:28:347,1.0241,2.4191,15.2566,46.6595,-0.9581,-0.3581,-0.5094,341.8523
16:06:28:365,0.7585,2.2181,15.2518,47.5097,-0.6368,-0.5352,-0.4226,342.3565
16:06:28:394,1.4046,2.6321,12.469,47.9261,-0.0577,-0.5157,-0.188,342.6084
16:06:28:407,2.3785,3.3954,9.7436,47.6014,0.2648,-0.3031,0.0306,342.5395
16:06:28:426,3.0556,3.7998,8.5328,47.1732,0.1793,-0.038,0.0709,342.3199
16:06:28:446,3.0054,3.795,8.7673,47.6239,-0.0675,0.1269,-0.083,342.1884
16:06:28:469,2.0961,3.6203,8.4012,46.1099,-0.1518,0.1111,-0.3286,342.3259
16:06:28:483,1.1103,3.5916,7.389,48.1393,-0.0345,0.0927,-0.4898,342.6653
16:06:28:505,0.6317,3.716,6.0993,47.9479,0.1048,0.1074,-0.5228,343.036
16:06:28:525,0.402,3.9266,5.2451,47.8337,0.1622,0.1514,-0.4886,343.3369
16:06:28:546,0.1125,4.2927,4.8526,48.7759,0.1072,0.1892,-0.452,343.7894
16:06:28:564,-0.4331,4.867,6.8483,48.4566,-0.153,0.2931,-0.3945,343.9511
16:06:28:584,-0.402,4.7569,8.1523,49.0072,-0.1457,0.1477,-0.3738,344.2839
16:06:28:606,-0.4594,4.6086,9.1071,47.7216,0.0022,-0.1308,-0.3713,344.6076
16:06:28:624,-0.6748,4.5392,9.0042,48.0367,0.2722,-0.319,-0.3432,344.9808
16:06:28:643,-0.8375,4.6493,8.461,48.8803,0.5629,-0.2469,-0.232,345.2065
16:06:28:663,-0.5073,4.7282,7.9561,49.0034,0.7474,-0.0722,-0.0561,345.1759
16:06:28:684,-0.0622,4.812,7.8365,48.9249,0.8085,0.0133,0.0758,344.9775
16:06:28:706,0.067,4.9603,8.1739,48.7975,0.7657,-0.0209,0.1149,344.7479
16:06:28:723,0.3733,4.9244,8.5615,47.9888,0.701,-0.1174,0.1051,344.5679
16:06:28:743,0.7107,4.7378,9.3344,46.4931,0.5947,-0.2848,0.0685,344.5034
16:06:28:764,0.2728,5.5059,10.3466,48.2772,0.4139,-0.5035,0.0184,344.6256
16:06:28:784,0.5312,5.5801,10.0259,46.3264,0.3088,-0.3898,0.0416,344.6498
16:06:28:806,1.1677,4.7426,10.4782,46.9979,0.1072,0.0133,0.0697,344.4364
16:06:28:825,1.1079,3.8046,12.5001,47.6637,-0.3363,0.039,0.0099,344.2393
16:06:28:846,-0.3805,3.6443,13.194,47.6655,-0.4975,-0.0319,-0.1038,344.2138
16:06:28:865,-1.7444,3.6203,11.3707,49.2408,-0.1396,0.3615,-0.0757,343.9896
16:06:28:888,-2.2349,3.9123,8.9659,48.2772,0.1695,0.7671,0.1394,343.3598
16:06:28:905,-1.5458,3.5749,8.3797,48.2772,-0.0406,0.7012,0.3813,342.5161
16:06:28:924,-0.3015,2.9551,9.0688,48.6529,-0.4987,0.3774,0.5889,341.6228
16:06:28:944,0.6078,2.7182,9.2698,48.8792,-0.7187,0.2968,0.7233,340.6245
16:06:28:964,1.1892,2.6656,8.9683,48.1279,-0.6539,0.4592,0.782,339.4774
16:06:28:989,1.7468,2.68,8.5328,50.7506,-0.4792,0.5741,0.7722,338.2951
16:06:29:016,2.2923,2.7087,7.6355,49.5596,-0.2299,0.5802,0.6965,337.1628
16:06:29:025,2.7422,2.735,6.7334,48.7617,-0.0235,0.425,0.5596,335.6786
16:06:29:044,2.2971,3.2447,6.4845,49.1403,-0.0357,-0.1296,0.1577,335.556
16:06:29:064,1.5482,3.3476,7.0373,49.1881,-0.0956,-0.1565,-0.0231,335.5151
16:06:29:083,0.9882,3.5318,7.2287,49.1872,-0.054,-0.0893,-0.127,335.5729
16:06:29:103,0.9069,3.4959,7.4656,51.169,0.0058,-0.1259,-0.1575,335.6758
16:06:29:124,0.8758,3.6323,7.9346,48.4143,0.0522,-0.2603,-0.1624,335.8362
16:06:29:144,0.7346,3.7304,8.1523,49.9585,0.1182,-0.3911,-0.1893,336.098
16:06:29:165,0.5599,3.8596,8.3653,49.1563,0.1817,-0.4497,-0.2161,336.4077
16:06:29:190,0.3876,3.9194,8.7195,47.7606,0.2221,-0.446,-0.2284,336.725
16:06:29:206,0.3613,4.0582,9.2076,48.0597,0.2465,-0.4888,-0.232,337.0967
16:06:29:224,0.5168,4.0917,9.5856,49.3504,0.2489,-0.6317,-0.232,337.5202
16:06:29:244,0.658,4.2138,9.8632,49.2851,0.2135,-0.7722,-0.2333,338.0236
16:06:29:264,0.6987,4.4315,10.0858,50.3817,0.1683,-0.7564,-0.2076,338.4877
16:06:29:285,0.2776,5.1159,10.4016,49.1608,0.1536,-0.5584,-0.1526,338.833
16:06:29:306,0.3493,5.3336,9.8369,49.481,0.2001,-0.3019,-0.0463,338.9402
16:06:29:324,1.6917,4.8287,9.064,50.198,0.1402,-0.2225,0.0502,338.9167
16:06:29:346,3.8166,3.46,9.8704,49.1321,-0.2776,-0.4705,0.0392,338.9853
16:06:29:369,3.6467,2.4503,12.3517,51.0419,-0.8201,-0.7234,-0.105,339.3026
16:06:29:386,1.9908,2.2708,14.2421,50.9556,-0.8237,-0.4986,-0.2504,339.6682
16:06:29:407,0.4881,2.735,12.682,49.0072,-0.1811,-0.0331,-0.1624,339.7361
16:06:29:424,1.139,3.6275,9.0784,50.9247,0.4835,0.2797,0.1772,339.3331
16:06:29:444,2.3617,4.4004,6.5874,50.3181,0.5397,0.3224,0.4032,338.6735
16:06:29:472,3.807,4.3406,7.1641,49.7536,0.0034,0.2418,0.391,338.0638
16:06:29:487,2.3497,3.4265,10.7509,49.5331,-0.7529,0.1257,-0.2357,337.947
16:06:29:506,0.9212,3.3165,10.014,49.3116,-0.4584,0.2625,-0.3774,338.1137
16:06:29:524,0.2513,3.6969,8.4706,50.0587,-0.0748,0.3884,-0.287,338.1634
16:06:29:547,0.5623,3.9434,7.0732,50.2882,0.1488,0.436,-0.0928,337.9916
16:06:29:568,1.0768,4.0439,6.3003,50.1934,0.1817,0.3982,0.0343,337.6927
16:06:29:586,1.328,4.008,6.1352,50.798,0.1182,0.3322,0.0453,337.4024
16:06:29:605,1.2754,3.9362,6.5204,50.1875,0.0461,0.2405,0.005,337.2104
16:06:29:625,1.0816,3.8835,6.7238,50.6953,0.0315,0.1575,-0.0268,337.104
16:06:29:644,0.8088,3.9793,6.7286,51.5501,0.0779,0.1587,-0.017,336.9706
16:06:29:665,0.7705,4.1276,6.5851,51.5501,0.1158,0.1819,0.0355,336.7818
16:06:29:683,1.2132,4.1492,6.9512,52.1977,0.0803,0.1526,0.0929,336.5442
16:06:29:706,1.6391,4.0487,7.5398,50.9592,0.0095,0.0829,0.1113,336.3022
16:06:29:725,1.8521,4.0463,8.3198,51.3661,-0.015,0.0512,0.0941,336.0878
16:06:29:746,1.8808,4.1635,8.5089,50.7257,0.0547,0.0903,0.0685,335.8842
16:06:29:767,1.8042,4.2736,8.3605,50.0587,0.1475,0.1648,0.0367,335.6948
16:06:29:784,1.7444,4.4219,8.4586,50.4832,0.1634,0.1966,0.0037,335.5359
16:06:29:803,1.7492,4.4411,8.7027,51.3661,0.1316,0.1721,-0.0451,335.3835
16:06:29:824,1.7372,4.3047,8.8989,53.1469,0.0877,0.0939,-0.1099,335.2885
16:06:29:845,1.5458,4.3693,9.3416,52.6214,0.0095,0.0231,-0.1661,335.3086
16:06:29:869,0.871,4.9364,9.8369,52.8245,-0.0186,0.0805,-0.1832,335.3124
16:06:29:886,0.0215,5.525,8.875,52.3098,0.1231,0.3554,-0.16,335.2119
16:06:29:904,-0.6508,5.4867,8.1763,52.2298,0.1316,0.5851,-0.1319,334.9713
16:06:30:001,-0.9141,4.587,9.9733,52.75,-0.186,0.4947,-0.094,334.7848
16:06:30:002,-1.9334,4.0965,12.7178,53.4066,-0.1897,-0.0514,0.0282,334.695
16:06:30:003,-1.7779,4.0726,10.8371,52.4058,0.2331,-0.0954,0.1589,334.5504
16:06:30:004,-0.6724,3.7591,9.277,52.6703,0.3198,-0.0221,0.3275,334.1581
16:06:30:005,0.993,3.3811,9.9613,52.2873,-0.0479,-0.0233,0.4387,333.6097
16:06:30:027,1.797,2.735,11.8923,53.3099,-0.5244,-0.1076,0.3837,333.1522
16:06:30:052,1.9956,2.2038,12.2345,52.1691,-0.6283,-0.104,0.2346,332.8704
16:06:30:067,1.529,2.4718,10.3609,52.169,-0.3729,0.1709,0.1394,332.5792
16:06:30:090,0.9739,2.6201,8.6501,54.5683,-0.1505,0.5435,0.1064,332.1752
16:06:30:103,0.7705,2.8235,8.5041,52.4333,-0.1505,0.6511,0.1296,331.711
16:06:30:124,1.0911,2.8044,9.0281,52.5132,-0.1676,0.3994,0.1552,331.3159
16:06:30:147,1.3735,3.07,8.5615,51.6893,-0.0125,0.0329,0.1381,331.1035
16:06:30:166,1.4453,3.4839,7.389,53.5794,0.2221,-0.1431,0.088,331.0179
16:06:30:184,1.1868,3.6802,6.5922,54.4744,0.3088,-0.1638,0.0184,331.0076
16:06:30:204,0.9811,3.8166,6.8315,52.8367,0.2538,-0.1663,-0.0427,331.0756
16:06:30:224,0.9691,3.8261,7.0995,54.4862,0.194,-0.2774,-0.0891,331.2312
16:06:30:243,1.005,3.8931,7.0684,53.3445,0.2135,-0.3825,-0.1404,331.497
16:06:30:265,1.151,3.9027,7.0804,52.4784,0.2282,-0.468,-0.1978,331.8594
16:06:30:285,1.3735,3.8764,7.4178,52.971,0.2037,-0.5364,-0.2626,332.3046
16:06:30:305,1.3352,3.8955,7.9131,54.1277,0.1989,-0.5584,-0.3493,332.8577
16:06:30:328,0.7705,3.9266,7.9609,52.3438,0.2673,-0.5267,-0.4593,333.5053
16:06:30:351,0.1101,4.2449,7.803,54.6416,0.3699,-0.4778,-0.5326,334.2263
16:06:30:364,-0.2584,4.4674,7.724,52.7829,0.3736,-0.4912,-0.5338,334.9486
16:06:30:384,-0.0718,4.5535,7.8556,53.9545,0.2502,-0.5377,-0.48,335.6686
16:06:30:404,0.2441,4.922,10.4112,52.7829,-0.2666,-0.4754,-0.3664,336.3167
16:06:30:423,0.012,5.1135,9.9254,53.3791,-0.2434,-0.0966,-0.331,336.9194
16:06:30:445,0.7609,4.3238,8.5567,53.3727,-0.2593,0.1709,-0.2882,337.4062
16:06:30:469,1.7994,3.1226,10.0403,54.4114,-0.7089,0.039,-0.2772,337.6018
16:06:30:485,2.0889,2.1129,13.6846,52.5354,-1.2147,-0.2591,-0.2944,337.9274
16:06:30:504,1.5529,1.7013,15.7161,53.8745,-1.0925,-0.407,-0.331,338.3556
16:06:30:523,0.548,2.2229,13.8042,54.8835,-0.3411,-0.3214,-0.2589,338.6882
16:06:30:545,0.6365,2.8235,10.0522,53.3822,0.3674,-0.071,-0.0292,338.6936
16:06:30:567,1.7635,3.1418,8.2241,54.4298,0.398,-0.0331,0.1894,338.4606
16:06:30:586,2.8068,3.0437,9.1071,54.7596,-0.076,-0.0966,0.2774,338.1631
16:06:30:605,2.3713,2.9671,10.5476,55.3755,-0.4279,-0.0636,0.1503,337.9666
16:06:30:624,1.4524,2.9432,10.6624,53.7042,-0.324,0.0842,-0.0024,337.8834
16:06:30:649,0.4953,3.0748,8.9013,55.3886,0.0755,0.2552,-0.0549,337.812
16:06:30:666,0.1938,3.5246,6.7502,53.6543,0.3821,0.2882,0.0037,337.6777
16:06:30:693,0.3972,3.7807,5.6351,54.8835,0.3882,0.2687,0.088,337.4489
16:06:30:704,0.6126,3.9027,5.4604,53.8745,0.2099,0.2687,0.1284,337.1782
16:06:30:723,0.8207,3.8094,6.2309,55.497,-0.0137,0.2442,0.1198,336.9188
16:06:30:744,1.1103,3.6251,7.1904,54.6108,-0.1567,0.2076,0.0978,336.708
16:06:30:767,1.2323,3.594,7.7001,55.0905,-0.1457,0.2149,0.0685,336.5215
16:06:30:785,1.139,3.6921,7.8604,54.9754,-0.0736,0.2577,0.0355,336.3416
16:06:30:805,1.1103,3.7352,7.657,56.1129,-0.0064,0.3041,0.0269,336.179
16:06:30:823,1.1414,3.7567,7.6666,54.7505,0.0022,0.3371,0.0416,335.9722
16:06:30:845,1.1892,3.7974,7.937,55.497,-0.0443,0.3725,0.0795,335.7228
16:06:30:865,1.0146,4.1468,8.394,55.5643,0.029,0.5216,0.154,335.0336
16:06:30:887,1.0744,4.3095,8.2241,54.5041,0.1634,0.5154,0.1736,334.625
16:06:30:905,1.2012,4.3478,8.2361,53.9311,0.2196,0.3542,0.1577,334.2909
16:06:30:924,1.2084,4.2688,8.875,57.0863,0.1817,0.1416,0.1076,334.1081
16:06:30:947,1.5194,4.0247,10.2365,56.6208,0.1048,-0.0966,0.0636,334.0613
16:06:30:967,1.1844,4.5416,10.7175,56.6652,0.1268,-0.2493,0.0318,334.1185
16:06:30:985,1.1629,4.5799,9.7771,55.919,0.2514,-0.0246,0.0331,334.081
16:06:31:003,1.2993,3.7663,9.2076,57.5469,0.1512,0.2137,0.0025,333.9686
16:06:31:023,0.5647,3.3141,11.4401,57.3643,-0.3106,0.1477,-0.0573,333.9479
16:06:31:044,-1.0552,3.5653,12.7585,57.7728,-0.4523,0.2247,-0.0818,333.9279
16:06:31:077,-1.6989,4.0295,11.1051,56.901,-0.0333,0.4263,-0.0036,333.7548
16:06:31:092,-1.462,4.3597,8.595,56.179,0.3015,0.4238,0.1174,333.461
16:06:31:108,-0.6843,3.9266,7.4632,56.5406,0.0816,0.2601,0.1687,333.1645
16:06:31:122,-0.0407,3.1131,9.1908,58.2812,-0.5537,0.1196,0.1626,332.9427
16:06:31:143,0.2465,2.3641,11.7655,59.9097,-1.0925,0.0585,0.1222,332.7639
16:06:31:162,0.4714,1.9908,12.1938,58.5395,-1.1108,0.0683,0.0978,332.6356
16:06:31:183,0.6389,2.0818,10.7533,60.0859,-0.7504,0.243,0.1174,332.4206
16:06:31:204,0.4762,2.1057,9.1406,59.3582,-0.4609,0.4202,0.1332,332.1339
16:06:31:226,0.4714,2.2971,8.3007,58.7375,-0.3656,0.5961,0.1736,331.747
16:06:31:243,0.5934,2.4239,8.059,59.6516,-0.3253,0.6779,0.2017,331.3062
16:06:31:264,0.4044,2.5101,7.657,58.7945,-0.2886,0.5509,0.1638,330.9568
16:06:31:285,0.1029,2.5914,7.7025,59.7481,-0.2605,0.3908,0.1039,330.7279
16:06:31:305,-0.0598,2.6106,7.8772,60.2534,-0.2104,0.21,0.0685,330.5981
16:06:31:324,-0.2632,2.546,8.5232,60.8097,-0.0321,-0.2066,-0.0085,330.5831
16:06:31:346,-0.2225,2.6584,8.5208,60.44,0.0913,-0.3569,-0.0109,330.7941
16:06:31:365,-0.201,2.7302,8.5854,60.5135,0.1524,-0.4179,-0.0134,330.9693
16:06:31:385,-0.1316,2.8977,8.7362,61.2449,0.1842,-0.3666,-0.0097,331.1118
16:06:31:402,-0.0263,3.216,8.5448,60.0154,0.2306,-0.2481,0.0001,331.2119
16:06:31:423,0.0933,3.3356,8.3438,61.2449,0.2514,-0.1174,-0.0268,331.2888
16:06:31:445,0.1125,3.4337,8.6572,62.1877,0.1866,-0.0759,-0.1086,331.4451
16:06:31:468,0.1579,3.2399,9.4636,61.0655,0.0535,-0.1748,-0.2235,331.7643
16:06:31:483,0.0909,2.9527,10.4949,60.6036,-0.0882,-0.3459,-0.3249,332.235
16:06:31:503,-0.7466,3.4361,11.5549,62.8264,-0.1457,-0.3935,-0.364,332.7685
16:06:31:524,-1.2012,3.9649,11.0429,60.9065,0.0034,-0.1565,-0.2895,333.1516
16:06:31:544,-0.134,3.2614,9.3296,60.522,0.1329,0.0842,-0.1575,333.3019
16:06:31:564,1.3232,1.9406,9.8082,61.3955,-0.2031,0.0952,-0.1331,333.4051
16:06:31:584,0.8614,1.0265,13.127,62.6596,-0.7651,-0.0697,-0.2687,333.7158
16:06:31:604,-0.0885,0.7322,15.2447,61.516,-0.7553,-0.1797,-0.3432,334.141
16:06:31:631,-0.5073,1.048,13.7061,61.9012,-0.0895,-0.1797,-0.2101,334.4284
16:06:31:644,-0.0622,1.6941,10.2102,62.0475,0.6057,-0.0514,0.0269,334.428
16:06:31:664,0.658,1.8808,7.9633,60.799,0.6863,0.0561,0.1601,334.2573
16:06:31:684,1.0672,2.0028,8.3821,61.1217,0.2245,0.0976,0.1491,334.0831
16:06:31:704,0.7131,1.9573,10.3203,63.2195,-0.2703,0.0866,0.0441,334.0246
16:06:31:727,-0.0024,2.0913,10.9807,61.5433,-0.3033,0.1111,-0.0451,334.0699
16:06:31:745,-0.5982,2.4191,9.7053,62.3172,0.0425,0.2076,-0.0195,334.0544
16:06:31:763,-0.6006,2.7709,8.0542,62.4359,0.3393,0.2638,0.077,333.9318
16:06:31:786,0.1244,3.259,7.279,62.2657,0.2477,0.2735,0.2078,333.3849
16:06:31:807,0.1196,3.271,7.6211,63.2679,0.1207,0.221,0.1626,333.1765
16:06:31:825,0.055,3.1872,7.5637,62.0226,0.0755,0.1477,0.1113,333.0306
16:06:31:845,0.0598,3.0724,7.5829,63.5322,0.0473,0.1611,0.1027,332.9011
16:06:31:863,0.067,2.9527,8.0495,64.2309,-0.0088,0.2173,0.1076,332.7317
16:06:31:884,-0.0096,2.9001,8.205,63.9063,-0.0113,0.243,0.1161,332.5665
16:06:31:903,-0.067,2.9097,8.2026,64.393,0.018,0.2528,0.143,332.3643
16:06:31:925,0.0024,2.9169,8.1523,61.7099,0.029,0.2601,0.187,332.1168
16:06:31:945,0.2345,2.948,8.0686,63.7367,0.018,0.2723,0.2334,331.8072
16:06:31:966,0.2082,3.1777,7.9561,63.7535,-0.0321,0.3383,0.264,331.4372
16:06:31:984,0.1771,3.1681,8.4682,63.6016,-0.1347,0.5069,0.297,331.0294
16:06:32:088,0.146,3.07,9.3033,65.7145,-0.2092,0.623,0.3214,330.504
16:06:32:089,0.2201,2.9288,9.6407,64.2352,-0.1848,0.5887,0.3079,330.0118
16:06:32:090,0.4283,2.7924,9.6335,65.5777,-0.1237,0.4507,0.2652,329.6061
16:06:32:091,0.3398,2.9073,9.9015,63.8501,-0.1212,0.3652,0.1955,329.3244
16:06:32:091,-0.0574,3.1585,10.0786,63.411,-0.1505,0.3859,0.1137,329.107
16:06:32:105,-0.2058,2.8259,9.4995,65.6992,-0.1774,0.392,0.0392,328.9717
16:06:32:125,-0.4905,2.2086,10.0594,67.9156,-0.3851,0.254,-0.0366,328.959
16:06:32:143,-1.2036,1.9334,11.9521,67.4394,-0.6307,0.1941,-0.0744,329.0206
16:06:32:165,-2.254,2.4837,12.335,67.0445,-0.4645,0.2906,-0.0036,328.988
16:06:32:183,-2.2827,3.1107,10.4184,65.8838,0.0865,0.4421,0.1797,328.7208
16:06:32:206,-1.8161,3.2782,7.7551,66.6777,0.4847,0.4629,0.3055,328.3137
16:06:32:228,-1.5673,3.0102,7.0923,67.7295,0.2954,0.3554,0.2456,328.0053
16:06:32:245,-1.663,1.5912,10.8036,66.9482,-0.7529,-0.2506,-0.0671,327.9711
16:06:32:264,-1.4788,1.2467,11.9426,67.0025,-0.8665,-0.5181,-0.1147,328.4085
16:06:32:283,-1.1366,0.926,12.1412,67.2375,-0.7174,-0.5279,-0.1062,328.7177
16:06:32:304,-0.9643,1.0002,11.409,67.8282,-0.4303,-0.3226,-0.061,328.9066
16:06:32:327,-0.9858,1.2251,10.5236,67.0563,-0.1799,-0.0881,-0.0195,328.9948
16:06:32:343,-1.0074,1.5386,9.6479,66.0803,-0.0174,0.0463,0.0208,329.0097
16:06:32:364,-0.9332,1.9167,8.5184,67.8282,0.1121,0.0756,0.0599,328.9722
16:06:32:382,-0.8159,2.2277,7.5948,66.7568,0.1585,0.0365,0.0831,328.9238
16:06:32:403,-0.6724,2.3785,7.3077,67.8883,0.0925,-0.0441,0.077,328.8957
16:06:32:430,-0.5168,2.3139,7.9394,69.2107,-0.0235,-0.1382,0.0465,328.9355
16:06:32:443,-0.591,2.3378,8.6429,67.8883,-0.0614,-0.2322,0.0013,329.0386
16:06:32:461,-0.6508,2.4359,8.4802,69.045,0.029,-0.3446,-0.0415,329.2224
16:06:32:482,-0.6102,2.4191,8.1595,67.1448,0.0938,-0.4106,-0.0659,329.446
16:06:32:502,-0.5384,2.2851,8.5113,68.2574,0.0535,-0.3813,-0.0732,329.6693
16:06:32:522,-0.3565,2.2851,9.1334,68.1742,0.0022,-0.3605,-0.0806,329.8998
16:06:32:544,-0.3111,2.3737,9.7699,68.3677,0.0315,-0.3422,-0.1062,330.1589
16:06:32:563,-0.4451,2.5651,9.4899,68.0028,0.1805,-0.3226,-0.1441,330.449
16:06:32:585,-0.414,2.7876,8.9061,69.2308,0.3174,-0.3312,-0.1685,330.7651
16:06:32:607,-0.1196,2.7446,8.8223,68.082,0.2954,-0.3874,-0.2015,331.1296
16:06:32:625,0.0335,2.7206,9.2219,67.8469,0.1585,-0.4314,-0.2662,331.5726
16:06:32:643,-0.4427,3.0102,10.5428,67.8132,-0.015,-0.4082,-0.3371,332.1094
16:06:32:663,-1.0313,3.2351,11.3109,68.2531,-0.054,-0.2958,-0.3689,332.6466
16:06:32:682,-0.682,2.8235,9.856,67.3949,0.0803,-0.1235,-0.3151,333.0647
16:06:32:708,0.4403,1.0816,11.1506,68.0667,-0.4718,-0.0025,-0.2675,333.6781
16:06:32:725,0.0479,0.7872,13.7157,69.0225,-0.726,-0.0881,-0.2882,334.043
16:06:32:742,-0.1771,0.5982,14.12,68.559,-0.412,-0.2261,-0.2455,334.3885
16:06:32:763,0.1125,0.7777,11.8421,68.7892,0.2111,-0.2994,-0.1086,334.6067
16:06:32:783,0.8112,0.9428,9.0066,69.7346,0.5898,-0.3019,0.0172,334.6902
16:06:32:807,1.5912,1.2275,7.9872,67.9353,0.3797,-0.2579,0.0526,334.7252
16:06:32:824,1.4812,1.2323,9.478,67.1934,-0.1591,-0.2066,-0.0476,334.8548
16:06:32:842,0.7729,1.5529,10.8012,69.331,-0.4511,-0.0832,-0.1697,335.0842
16:06:32:862,0.1555,1.6558,10.7605,68.9701,-0.3448,0.0695,-0.2076,335.3312
16:06:32:882,-0.1555,2.0004,9.3894,69.1502,-0.0455,0.1966,-0.1648,335.5177
16:06:32:903,-0.0263,2.3139,8.0088,68.3233,0.1402,0.1954,-0.094,335.6242
16:06:32:926,0.0598,2.5029,7.4536,68.6784,0.0901,0.1477,-0.0585,335.7105
16:06:32:944,-0.0263,2.4837,7.7862,66.8087,-0.0553,0.1135,-0.0659,335.8045
16:06:32:962,-0.1196,2.4383,8.083,69.2504,-0.1371,0.1025,-0.0622,335.8927
16:06:32:981,-0.0359,2.4167,8.0997,69.616,-0.1225,0.1025,-0.0329,335.9399
16:06:33:004,0.012,2.4359,8.0255,69.0537,-0.0931,0.1257,-0.0011,335.9626
16:06:33:022,0.0407,2.4646,8.0662,67.6588,-0.0919,0.1611,0.0208,335.9424
16:06:33:043,-0.0383,2.534,7.9801,68.7892,-0.1066,0.1648,0.0318,335.9072
16:06:33:062,-0.0215,2.5316,7.9657,69.7276,-0.1408,0.166,0.0563,335.8455
16:06:33:083,0.0814,2.5508,8.2672,67.0028,-0.186,0.1758,0.0966,335.7379
16:06:33:103,0.1795,2.5675,8.6716,69.331,-0.2055,0.1819,0.1369,335.5885
16:06:33:123,0.1675,2.6441,9.1549,69.6586,-0.1689,0.1892,0.1662,335.4627
16:06:33:145,0.2201,2.5842,9.3081,67.5683,-0.0589,0.1599,0.1821,335.2922
16:06:33:197,0.536,2.3521,9.6694,66.4239,0.084,-0.1247,0.1662,334.8942
16:06:33:199,0.993,2.1105,10.727,67.1725,0.0156,-0.3813,0.1271,334.8559
16:06:33:222,1.0792,2.747,11.0979,66.9411,0.0266,-0.2444,0.1626,334.7557
16:06:33:238,0.9404,2.8642,10.1886,66.0157,0.1109,0.1416,0.1394,334.5951
16:06:33:257,0.1771,2.3378,9.9733,67.9533,0.0266,0.3872,0.0111,334.5386
16:06:33:277,-0.9117,1.9478,11.2917,69.1538,-0.2226,0.2906,-0.1025,334.6325
16:06:33:303,-1.8377,2.1176,12.2847,68.8608,-0.2752,0.0817,-0.1147,334.7925
16:06:33:319,-1.6558,2.278,11.2008,67.9315,-0.0137,0.0048,0.0086,334.8327
16:06:33:334,-1.0552,2.0267,9.8848,67.4762,0.1634,0.0023,0.1088,334.7699
16:06:33:356,-0.591,1.3783,9.868,68.1759,-0.0137,0.0085,0.1015,334.7011
16:06:33:373,-0.5504,0.6461,11.8899,67.6929,-0.3949,-0.0368,0.0221,334.7216
16:06:33:393,-0.5623,0.1531,13.4285,67.1698,-0.594,-0.1736,-0.0537,334.8576
16:06:33:412,-0.6867,0.0981,13.5482,67.9843,-0.4291,-0.22,-0.0537,334.9929
16:06:33:435,-0.5838,0.4666,12.0407,68.1759,-0.0321,-0.0087,0.0587,334.9618
16:06:33:452,-0.2847,0.9428,9.9948,69.1005,0.2917,0.232,0.1821,334.7673
16:06:33:468,0.2225,1.4046,8.6716,67.3529,0.3858,0.364,0.2664,334.4466
16:06:33:489,0.6174,1.8066,7.8844,67.2463,0.3345,0.3371,0.2603,334.129
16:06:33:507,0.7753,2.1057,7.657,68.3739,0.2233,0.2014,0.1674,333.9387
16:06:33:526,0.6508,2.211,7.6331,66.8298,0.15,0.0536,0.0392,333.9096
16:06:33:545,0.3757,2.2397,7.5757,65.3544,0.1366,-0.0771,-0.0793,334.0381
16:06:33:565,0.1484,2.2851,7.6092,67.8267,0.1439,-0.1797,-0.1526,334.2735
16:06:33:589,0.0909,2.278,7.6953,66.827,0.1488,-0.2554,-0.188,334.5743
16:06:33:606,0.1795,2.254,7.8293,65.1803,0.1585,-0.2897,-0.2015,334.8941
16:06:33:623,0.3613,2.1679,8.1571,63.968,0.161,-0.3043,-0.2223,335.1967
16:06:33:643,0.3493,2.065,8.8558,64.486,0.161,-0.33,-0.2638,335.5892
16:06:33:666,0.1795,2.2229,9.0784,63.6188,0.244,-0.3605,-0.3066,336.0337
16:06:33:685,0.0957,2.4048,8.7673,66.1872,0.3882,-0.3703,-0.3347,336.5215
16:06:33:704,0.0048,2.5125,8.3605,64.0936,0.4725,-0.3886,-0.3701,337.0539
16:06:33:722,0.0909,2.4885,8.473,64.0668,0.42,-0.435,-0.4104,337.641
16:06:33:742,0.2632,2.3186,9.2937,62.8292,0.2196,-0.5719,-0.4666,338.3228
16:06:33:761,0.4498,2.0961,10.8467,63.6336,-0.0088,-0.6794,-0.5118,339.0776
16:06:33:786,-0.122,2.668,12.268,62.8531,-0.0675,-0.644,-0.5399,339.8634
16:06:33:803,-0.256,2.9408,11.9354,60.8407,0.1366,-0.4155,-0.4984,340.5524
16:06:33:824,0.3852,2.601,10.3585,63.5806,0.3222,-0.2982,-0.4385,341.1337
16:06:33:843,2.0578,1.1868,9.3512,62.8373,0.1329,-0.3153,-0.419,341.6753
16:06:33:868,1.8497,0.4834,11.7799,62.0438,-0.4914,-0.4314,-0.5375,342.3774
16:06:33:884,0.95,0.1627,14.9432,63.1172,-0.8591,-0.4302,-0.6218,343.17
16:06:33:903,0.1436,0.3517,14.5316,61.5285,-0.3949,-0.3226,-0.513,343.823
16:06:33:922,0.4475,1.0122,10.4877,60.752,0.4469,-0.1479,-0.243,344.1418
16:06:33:943,1.1007,1.4788,7.5111,61.4925,0.7657,-0.049,-0.0305,344.2021
16:06:33:963,1.7204,1.8712,7.2885,60.9083,0.3931,-0.0025,0.0343,344.1827
16:06:33:990,1.5864,2.0363,9.1669,62.1978,-0.1359,0.0036,-0.0439,344.2443
16:06:34:004,1.0241,2.1727,9.99,61.1592,-0.2666,0.0512,-0.1722,344.4323
16:06:34:023,0.201,2.4335,9.0616,60.788,-0.0357,0.1233,-0.2479,344.6973
16:06:34:041,-0.2632,2.6632,7.4776,59.6477,0.1891,0.1587,-0.2479,344.9512
16:06:34:063,-0.3111,2.8116,7.2742,59.7375,0.1695,0.2076,-0.1905,345.1298
16:06:34:086,-0.5743,2.924,8.205,62.8684,-0.0015,0.1856,-0.1099,345.3416
16:06:34:164,-0.6796,3.003,7.9944,61.8378,0.0779,0.1868,-0.0524,345.4013
16:06:34:165,-0.7394,3.1848,7.6714,61.5694,0.1732,0.2198,0.0282,345.3709
16:06:34:165,-0.7107,3.3739,7.4082,59.1777,0.2135,0.2455,0.1113,345.2358
16:06:34:166,-0.5599,3.4385,7.0995,59.48,0.1879,0.2674,0.1919,345.0006
16:06:34:181,-0.5001,3.5103,7.5111,59.1794,0.0974,0.3236,0.2615,344.674
16:06:34:202,-0.4834,3.5198,8.0327,60.3777,0.0205,0.353,0.325,344.2669
16:06:34:222,-0.3398,3.5677,8.1308,59.8388,0.0254,0.3481,0.391,343.7961
16:06:34:242,0.0048,3.4959,8.1428,61.2398,0.0351,0.3627,0.4656,343.2331
16:06:34:267,0.2369,3.3547,8.5041,62.5062,-0.0003,0.3811,0.5217,342.5986
16:06:34:281,0.402,3.2806,8.6525,61.1777,-0.0223,0.3688,0.545,341.9458
16:06:34:302,0.6628,3.1011,8.8558,61.2399,-0.0284,0.3261,0.545,341.3014
16:06:34:322,1.2945,2.7278,9.3655,59.4597,-0.0626,0.1929,0.523,340.7057
16:06:34:342,1.6941,2.6728,10.2413,59.741,-0.1017,-0.038,0.4411,340.2635
16:06:34:365,1.7228,2.6656,11.0118,60.1337,-0.0858,-0.2274,0.2798,340.0431
16:06:34:382,1.2538,2.1583,10.9783,59.1896,-0.037,-0.33,0.066,340.0844
16:06:34:403,0.3829,1.8975,11.4473,59.4969,-0.0895,-0.319,-0.0744,340.2785
16:06:34:423,-0.4738,2.0243,12.0933,59.7427,-0.1628,-0.1137,-0.0634,340.4207
16:06:34:441,-1.4357,2.4072,11.7129,58.8439,-0.0797,0.32,0.0269,340.3615
16:06:34:465,-1.7659,2.6465,10.8538,60.5555,0.0205,0.7121,0.1564,340.0521
16:06:34:481,-1.6439,2.4048,10.5667,60.3925,-0.0772,0.8038,0.2542,339.597
16:06:34:506,-1.5601,2.1823,11.0357,61.0946,-0.3326,0.6718,0.2945,339.1603
16:06:34:522,-1.4453,1.8521,11.8373,58.124,-0.5549,0.4947,0.3153,338.7347
16:06:34:542,-0.9954,1.5338,11.9545,60.5854,-0.5378,0.3786,0.4399,338.2968
16:06:34:564,-0.5312,1.3807,11.5597,59.9882,-0.4132,0.3701,0.5266,337.1168
16:06:34:583,-0.0646,1.3639,11.007,61.1593,-0.2715,0.2821,0.5804,336.449
16:06:34:602,0.2177,1.529,10.2437,60.0277,-0.0931,0.177,0.5902,335.8172
16:06:34:622,0.2967,1.8209,9.1334,59.0257,0.1133,0.1184,0.5779,335.2069
16:06:34:641,0.3757,2.1416,7.9825,60.8797,0.2783,0.1074,0.5645,334.6059
16:06:34:663,0.4044,2.4503,7.1665,58.1901,0.3809,0.122,0.545,334.0259
16:06:34:683,0.3685,2.7111,6.5827,59.3143,0.4322,0.1184,0.4924,333.4974
16:06:34:711,0.2058,2.814,6.3649,59.7005,0.4297,0.0353,0.3983,333.1098
16:06:34:721,0.1627,2.7182,6.3577,59.5564,0.3882,-0.176,0.2872,332.8965
16:06:34:741,0.2489,2.522,6.7334,59.3143,0.3186,-0.4302,0.1845,332.864
16:06:34:766,0.4403,2.2899,7.3579,60.1684,0.2502,-0.5768,0.0954,332.9669
16:06:34:783,0.6078,2.2062,7.803,60.116,0.2563,-0.5743,0.0196,333.1526
16:06:34:803,0.5982,2.2062,8.1715,58.4033,0.2978,-0.5279,-0.0671,333.4193
16:06:34:822,0.457,2.3043,8.126,57.515,0.365,-0.4668,-0.1661,333.7695
16:06:34:844,0.0909,2.5795,7.5972,59.5354,0.4285,-0.3874,-0.2577,334.2083
16:06:34:862,-0.0814,2.7517,7.4225,57.1275,0.3393,-0.341,-0.3176,334.704
16:06:34:880,0.0263,2.8881,8.4227,57.5875,0.0816,-0.2958,-0.3078,335.1671
16:06:34:902,-0.1316,3.1633,9.8225,58.3761,-0.2006,-0.2041,-0.3102,335.6129
16:06:34:921,-0.2632,3.015,10.7677,58.6537,-0.3521,-0.0258,-0.3176,336.0131
16:06:34:943,0.1842,2.2469,11.4233,57.3329,-0.4902,0.1098,-0.3114,336.3532
16:06:34:965,1.0768,0.8901,12.481,58.7902,-0.7675,0.0426,-0.3261,336.6977
16:06:34:986,0.1962,-0.6245,18.4056,57.5198,-1.2,-0.4925,-0.5033,337.8652
16:06:35:003,-0.3422,-0.6604,17.281,58.7898,-0.5733,-0.5108,-0.3811,338.4192
16:06:35:021,-0.1029,0.0144,13.4764,57.0575,0.2428,-0.2017,-0.0524,338.5576
16:06:35:044,0.4881,0.95,10.7294,57.426,0.5678,0.1587,0.2811,338.2491
16:06:35:064,1.0385,1.785,9.2171,58.4311,0.486,0.4373,0.4631,337.6646
16:06:35:082,0.9595,2.3665,8.0638,57.2302,0.3039,0.6144,0.4521,337.0473
16:06:35:101,0.4307,2.6991,7.334,57.9088,0.1366,0.7305,0.3312,336.5479
16:06:35:121,-0.2393,2.8283,6.8291,57.8243,0.0229,0.7354,0.2224,336.1749
16:06:35:141,-0.9069,2.9312,6.7214,57.5571,-0.0418,0.6022,0.1589,335.9061
16:06:35:162,-1.2347,2.9934,6.3936,58.2458,-0.0406,0.3591,0.1564,335.7166
16:06:35:182,-1.3783,2.9958,5.9916,57.8243,-0.0198,0.0964,0.1931,335.5554
16:06:35:202,-1.1605,2.9432,6.1161,58.4233,-0.0785,-0.1382,0.2469,335.3889
16:06:35:222,-0.871,2.7637,6.9607,57.9089,-0.1872,-0.2689,0.2994,335.1919
16:06:35:245,-0.5767,2.5244,7.9561,56.3873,-0.2287,-0.3068,0.3324,334.9591
16:06:35:269,-0.3996,2.2947,8.6285,57.0328,-0.1652,-0.3165,0.3483,334.7047
16:06:35:280,-0.3805,2.2205,9.1645,57.4012,-0.0357,-0.3055,0.3593,334.4436
16:06:35:301,-0.2656,2.3689,9.0975,57.7298,0.1488,-0.2371,0.3983,334.1283
16:06:35:321,0.0526,2.5436,8.7936,56.8204,0.3186,-0.1015,0.4509,333.7164
16:06:35:342,0.2943,2.5364,8.875,58.5166,0.343,-0.0123,0.457,333.2711
16:06:35:362,0.3039,2.5603,9.7101,56.9769,0.2844,0.0219,0.4216,332.855
16:06:35:383,0.0957,2.5484,10.8227,56.2812,0.266,0.0011,0.3751,332.497
16:06:35:401,0.2823,2.4335,11.3061,58.3876,0.3589,-0.0771,0.3531,332.1858
16:06:35:422,1.0193,2.199,11.4329,56.8516,0.4713,-0.176,0.3544,331.8788
16:06:35:452,1.7946,2.8546,10.8586,57.0778,0.4481,0.0817,0.2786,331.2442
16:06:35:471,0.8829,2.589,10.6983,57.3625,0.3235,0.5521,0.1503,330.9549
16:06:35:486,-0.7274,2.8522,11.4305,57.9864,0.2025,0.8368,0.0599,330.6915
16:06:35:500,-1.1964,3.74,10.483,57.0674,0.3858,0.8514,0.1406,330.34
16:06:35:520,-1.1749,4.4124,8.3414,58.3027,0.6582,0.7805,0.2212,329.9296
16:06:35:544,-0.8303,4.3406,7.3125,57.1129,0.4872,0.5716,0.1699,329.6319
16:06:35:562,-0.4594,3.2447,8.6812,56.9497,-0.1725,0.2088,0.0196,329.592
16:06:35:583,-0.1986,1.8736,12.2058,57.2094,-0.9263,-0.2249,-0.1636,329.8594
16:06:35:601,-0.2656,0.6341,15.5964,57.1336,-1.2513,-0.6061,-0.3017,330.3837
16:06:35:623,-0.6078,0.1747,15.606,57.5326,-0.8201,-0.5694,-0.2821,330.8753
16:06:35:643,-0.8997,0.6963,12.6437,59.1197,0.007,-0.0368,-0.0476,330.9682
16:06:35:663,-0.4977,1.1677,9.801,59.4656,0.5592,0.5729,0.2933,330.5323
16:06:35:682,0.4044,1.6176,8.0997,59.3815,0.7193,0.9186,0.5706,329.6939
16:06:35:702,1.3089,2.0124,7.3508,58.9984,0.6851,0.9186,0.6769,328.7249
16:06:35:722,1.8353,2.3282,6.743,59.5171,0.6619,0.6743,0.5841,327.9117
16:06:35:743,1.8736,2.4981,5.927,60.1169,0.6961,0.3395,0.3641,327.428
16:06:35:761,1.5123,2.6488,5.1254,59.5171,0.7242,0.0964,0.1186,327.2949
16:06:35:783,0.8782,2.7852,4.721,59.4691,0.6497,-0.0685,-0.0964,327.4577
16:06:35:801,0.5312,2.7661,4.7976,61.14,0.464,-0.2237,-0.2345,327.8281
16:06:35:825,0.4068,2.6512,5.6901,58.0685,0.2269,-0.3911,-0.3188,328.3555
16:06:35:843,0.2704,2.6345,6.7382,58.9984,0.0596,-0.5499,-0.3933,329.0106
16:06:35:862,0.1412,2.8044,7.133,58.5291,0.0425,-0.6586,-0.4507,329.7757
16:06:35:883,0.1986,3.0724,7.0445,60.3519,0.073,-0.7392,-0.4874,330.6123
16:06:35:904,0.402,3.4169,7.669,59.622,-0.2263,-0.9408,-0.6291,332.5511
16:06:35:922,0.2082,3.4481,8.6429,58.7089,-0.489,-0.9225,-0.711,333.6837
16:06:35:944,0.0191,3.3308,10.2317,60.5686,-0.7125,-0.815,-0.7354,334.7891
16:06:35:963,-0.469,3.8189,11.519,59.351,-0.7785,-0.7136,-0.7219,335.8446
16:06:35:982,-0.055,3.7065,11.7224,57.9634,-0.7077,-0.5328,-0.6572,336.7657
16:06:36:001,1.3519,2.5244,11.6124,61.23,-0.7516,-0.4338,-0.6462,337.6086
16:06:36:022,2.534,0.9619,14.2588,60.8093,-1.145,-0.7148,-0.7794,338.6451
16:06:36:042,2.2851,-0.39,17.5944,59.5158,-1.4859,-1.2206,-1.0445,340.0924
16:06:36:063,1.395,-0.859,18.6808,60.8139,-1.1621,-1.3281,-1.163,341.6863
16:06:36:081,0.3613,-0.3374,15.8381,60.6276,-0.2458,-0.8651,-0.9956,342.9979
16:06:36:102,0.4905,0.1125,11.9378,61.0963,0.4957,-0.1821,-0.6376,343.7576
16:06:36:126,1.2084,0.8973,9.8632,60.6078,0.6155,0.3114,-0.2968,344.015
16:06:36:141,1.8209,1.3663,9.5258,60.918,0.3589,0.491,-0.127,344.0318
16:06:36:163,1.4812,1.8449,9.1454,60.9388,0.1585,0.5032,-0.1783,344.1173
16:06:36:260,0.7059,2.254,8.1691,62.5288,0.1891,0.5044,-0.2809,344.3239
16:06:36:261,0.0598,2.6441,6.81,62.6337,0.3186,0.5167,-0.2931,344.5453
16:06:36:262,-0.213,3.0532,5.6734,60.8,0.3992,0.4996,-0.2235,344.6947
16:06:36:262,-0.0718,3.3356,5.0369,61.8997,0.3479,0.3835,-0.1196,344.7563
16:06:36:263,0.1747,3.5486,5.0249,62.2447,0.205,0.2039,-0.0561,344.7935
16:06:36:280,0.5097,3.5605,5.6638,63.6925,0.0535,-0.0209,-0.0549,344.8971
16:06:36:300,0.6485,3.5294,6.2118,62.2936,-0.026,-0.2054,-0.0989,345.1004
16:06:36:324,0.5168,3.6514,6.6736,60.1945,-0.026,-0.2408,-0.1587,345.3751
16:06:36:344,0.1364,3.7472,6.8818,62.7212,-0.0015,-0.1785,-0.1942,345.6565
16:06:36:362,0.0191,4.0175,7.949,63.503,-0.0394,-0.0233,-0.1184,345.9063
16:06:36:381,0.0526,3.9673,8.7841,62.8499,-0.0577,-0.0514,-0.083,346.053
16:06:36:404,0.1723,3.807,9.655,62.9266,-0.0088,-0.1443,-0.061,346.3633
16:06:36:423,0.2201,3.5797,10.55,64.7065,0.1023,-0.3019,-0.0598,346.5626
16:06:36:442,0.335,3.4648,10.995,63.7446,0.2819,-0.479,-0.0476,346.8129
16:06:36:470,0.9165,3.405,10.8227,64.3317,0.464,-0.5316,0.0001,347.0188
16:06:36:480,1.1533,4.2496,11.1482,63.295,0.4798,-0.4693,0.049,347.152
16:06:36:501,2.0794,4.1994,11.4688,64.2374,0.3271,-0.2542,0.0587,347.1931
16:06:36:523,2.5866,3.0173,12.0311,63.4991,0.0327,-0.1711,-0.0842,347.3446
16:06:36:543,2.0961,2.12,13.5793,63.2698,-0.3448,-0.341,-0.3163,347.8179
16:06:36:561,0.6293,2.0172,14.3928,65.0938,-0.3925,-0.2567,-0.474,348.4259
16:06:36:582,-1.0002,2.3115,12.7849,65.203,0.0254,0.1966,-0.4703,348.9178
16:06:36:607,-1.4453,2.6943,10.1695,63.721,0.42,0.5912,-0.2846,349.0798
16:06:36:623,-1.4165,2.613,9.2052,65.1061,0.3137,0.6718,-0.1111,349.0305
16:06:36:641,-0.9595,2.1918,10.4423,65.3237,-0.12,0.5411,0.0282,348.873
16:06:36:661,-0.7178,1.7324,11.4832,66.804,-0.3705,0.3713,0.1027,348.6814
16:06:36:682,-0.6748,1.4357,11.1745,66.887,-0.2666,0.2711,0.165,348.4611
16:06:36:706,-0.7131,1.3424,9.9661,68.2697,-0.0467,0.2002,0.2688,348.1497
16:06:36:723,-0.4881,1.5386,8.8726,67.6564,0.117,0.2112,0.4387,347.6595
16:06:36:741,0.2082,1.7037,7.8724,66.6602,0.2025,0.3041,0.6402,346.9058
16:06:36:760,1.005,1.864,7.2981,67.1143,0.2184,0.3713,0.7881,345.9738
16:06:36:781,1.6415,2.0315,7.0851,67.9665,0.2111,0.3468,0.8296,345.0024
16:06:36:802,2.0124,2.2373,6.7789,66.5252,0.2551,0.2173,0.7795,344.1105
16:06:36:824,2.4359,2.6943,5.6327,65.6818,0.4114,-0.1907,0.5376,342.8615
16:06:36:843,2.6201,2.7876,5.4221,68.6202,0.3711,-0.3752,0.3593,342.611
16:06:36:863,2.4694,2.8499,5.5059,67.9971,0.2844,-0.4595,0.132,342.6535
16:06:36:880,2.0889,3.0126,5.9055,67.041,0.2025,-0.4815,-0.0928,342.9338
16:06:36:900,1.3113,3.4337,6.1783,67.5312,0.1695,-0.5218,-0.3029,343.4785
16:06:36:921,0.4427,4.1037,5.7691,66.4236,0.1976,-0.5096,-0.4727,344.2201
16:06:36:940,0.1005,4.4937,5.5155,67.526,0.1378,-0.4583,-0.5973,345.0818
16:06:36:961,0.0359,4.2544,5.5561,67.705,-0.1335,-0.4583,-0.7219,346.0686
16:06:36:980,-0.6508,4.0295,6.6736,69.3726,-0.6099,-0.3837,-0.8429,347.1687
16:06:37:004,-1.3639,3.8166,9.198,70.2943,-1.1072,-0.1186,-0.86,348.1944
16:06:37:028,-2.0506,3.8835,11.5741,69.1847,-1.3637,0.1367,-0.7501,349.0278
16:06:37:051,-1.4501,2.8211,13.072,68.9104,-1.3698,0.1892,-0.5521,349.6281
16:06:37:060,0.8829,0.8519,15.7663,72.0978,-1.5128,-0.3471,-0.3579,350.1392
16:06:37:080,2.2349,-1.2395,20.3869,69.2185,-1.7974,-1.3452,-0.3286,350.851
16:06:37:101,2.4096,-1.9454,23.3228,69.1764,-1.382,-1.8315,-0.2528,351.548
16:06:37:125,2.3115,-1.5051,21.0999,70.7022,-0.054,-1.5065,-0.0048,351.8691
16:06:37:141,1.8808,-0.5288,15.2518,70.5187,1.3534,-0.7942,0.2957,351.7291
16:06:37:161,2.3545,0.3517,10.0977,67.9524,1.9752,-0.1308,0.639,351.0638
16:06:37:180,3.1035,1.4309,7.9657,70.0133,1.748,0.3591,0.9005,349.9668
16:06:37:202,3.3404,2.2181,7.5494,69.466,1.2288,0.6999,0.9164,348.757
16:06:37:222,3.4169,2.8163,6.9966,69.2962,0.8781,0.8221,0.7759,347.6613
16:06:37:240,2.8499,2.9767,5.8265,68.3732,0.756,0.7268,0.5083,346.876
16:06:37:261,1.7228,3.058,4.7354,68.6905,0.6081,0.5472,0.1674,346.53
16:06:37:284,0.4283,3.4576,4.4889,70.191,0.0351,0.3933,-0.094,346.4671
16:06:37:301,0.3805,3.4935,5.0776,68.0557,-0.1615,0.4605,-0.0708,346.4417
16:06:37:321,0.5551,3.4337,5.9964,70.6758,-0.2495,0.5032,-0.0427,346.3173
16:06:37:345,0.5838,3.4241,6.8985,67.4641,-0.2153,0.4043,-0.0683,346.2955
16:06:37:359,0.5551,3.4265,7.0325,68.6743,-0.0748,0.2222,-0.1074,346.36
16:06:37:378,0.4044,3.5175,6.7358,68.6299,0.0925,0.122,-0.1196,346.4712
16:06:37:399,0.3111,3.8453,6.5515,70.6758,0.1671,0.1782,-0.0757,346.5399
16:06:37:422,0.5145,4.0415,6.6473,68.8115,0.1378,0.3188,0.005,346.4767
16:06:37:440,0.9643,4.1037,7.1809,69.8974,0.0376,0.4446,0.0807,346.2749
16:06:37:463,1.1055,4.1587,8.1859,70.771,-0.054,0.4971,0.0868,346.0241
16:06:37:485,0.6891,4.1157,9.1262,69.7562,-0.0785,0.4531,0.0196,345.8735
16:06:37:503,0.1651,4.1061,10.0044,72.297,-0.0296,0.3041,-0.0415,345.854
16:06:37:520,0.0885,3.7878,10.3585,70.3315,0.0376,0.0145,-0.0305,345.9255
16:06:37:541,0.8662,3.5031,11.1051,71.2817,-0.0113,-0.3324,0.0563,346.0073
16:06:37:560,1.0552,3.7424,12.9882,70.2151,-0.1652,-0.5364,0.1345,346.0886
16:06:37:580,0.7729,4.0654,13.6223,69.8377,-0.054,-0.3312,0.2004,346.0385
16:06:37:600,0.8279,4.2114,12.0814,69.7955,0.3821,0.2455,0.3104,345.6551
16:06:37:622,0.6772,4.0845,11.1003,71.8282,0.5727,0.6498,0.3873,345.0205
16:06:37:642,-0.3565,3.9434,11.7631,71.7845,0.4847,0.8465,0.3849,344.3451
16:06:37:662,-1.8903,4.4985,10.9902,70.7375,0.6472,1.086,0.4167,343.5525
16:06:37:686,-2.7637,5.1733,9.3464,71.5439,0.9307,1.2778,0.5572,342.5434
16:06:37:700,-2.4718,5.3288,8.8128,69.122,0.8085,1.0432,0.7392,341.4177
16:06:37:720,-1.5266,4.7234,9.6766,70.8017,0.3002,0.3713,0.8455,340.4557
16:06:37:742,0.0359,2.7494,13.6008,68.0834,-0.379,-0.7454,0.7282,339.8036
16:06:37:764,0.3757,2.2469,12.7107,69.2321,-0.0956,-0.7258,0.6512,339.0421
16:06:37:784,1.0648,2.1296,9.6407,69.9285,0.3479,-0.1467,0.7221,338.382
16:06:37:801,1.9813,2.467,7.5924,69.9285,0.442,0.6779,0.8296,337.246
16:06:37:822,2.7661,2.0411,7.535,69.9285,0.1035,1.2411,0.7759,335.9099
16:06:37:840,2.8666,1.596,9.8991,69.9285,-0.2617,1.3621,0.5169,334.7913
16:06:37:860,1.9119,1.2251,10.8203,69.9285,-0.2251,0.9333,0.1332,334.2694
16:06:37:882,0.9165,1.2945,9.1549,71.4333,0.2893,0.4531,-0.0989,334.2141
16:06:37:903,0.4977,1.8114,6.5204,70.6208,0.7767,0.2809,-0.1086,334.2278
16:06:37:921,0.4451,2.187,5.47,70.4326,0.8793,0.3872,-0.0427,334.1103
16:06:37:940,0.402,2.3163,5.9222,70.0123,0.7327,0.4837,0.0025,333.9047
16:06:37:961,0.2058,2.3521,6.6473,69.8378,0.6179,0.3261,-0.0231,333.7932
16:06:37:983,-0.0814,2.4981,7.0899,69.8378,0.6301,0.0072,-0.0537,333.8669
16:06:38:000,-0.1771,2.601,6.8937,68.7541,0.7718,-0.2909,-0.0243,334.0635
16:06:38:021,0.2058,2.9623,5.9653,68.1848,0.9392,-0.4741,0.0636,334.2584
16:06:38:041,0.469,3.5725,4.9292,69.4909,0.9795,-0.501,0.1345,334.425
16:06:38:061,0.5288,4.2449,4.5153,68.1356,0.7975,-0.3947,0.1418,334.5385
16:06:38:081,0.3972,4.7737,4.6469,67.6357,0.4811,-0.1992,0.1125,334.5793
16:06:38:102,0.2321,5.4939,5.1063,67.0224,0.1402,-0.0685,0.0453,334.6185
16:06:38:119,0.2584,6.2094,5.7165,68.3175,-0.2654,-0.1626,-0.072,334.8166
16:06:38:140,0.8973,5.9031,7.3029,68.3934,-0.8494,-0.3251,-0.2003,335.2005
16:06:38:166,2.747,3.3858,14.1583,67.098,-2.0357,-0.6549,-0.5094,336.4673
16:06:38:185,2.0865,2.2612,18.0682,67.098,-2.0638,-1.0838,-0.7867,337.7094
16:06:38:202,1.3902,1.8161,18.2213,66.5763,-1.4908,-1.5016,-0.9028,339.209
16:06:38:223,1.6941,2.5914,15.4193,68.6239,-0.5855,-1.421,-0.7501,340.5125
16:06:38:243,2.8642,3.1633,12.5169,67.7299,-0.0223,-0.9078,-0.5082,341.3506
16:06:38:263,3.1872,3.4169,11.007,68.7869,0.0498,-0.2787,-0.4373,341.8649
16:06:38:357,2.8833,3.6347,10.2126,67.5467,-0.0101,0.2906,-0.535,342.2801
16:06:38:357,1.7539,3.9147,9.2291,66.7066,-0.0235,0.5032,-0.6975,342.786
16:06:38:357,0.4762,4.0415,7.9705,68.7872,0.0144,0.4922,-0.8356,343.4683
16:06:38:358,-0.5575,4.0726,7.0612,65.6348,0.029,0.353,-0.8698,344.2523
16:06:38:373,-1.4237,3.9625,6.5755,67.605,-0.0284,0.0805,-0.8197,345.1001
16:06:38:380,-1.8568,3.929,6.6138,66.7066,-0.1163,-0.2066,-0.6682,345.9327
16:06:38:399,-1.6774,3.8285,6.7908,65.6034,-0.1542,-0.4094,-0.4275,346.5885
16:06:38:420,-0.8519,3.673,7.1857,66.6595,-0.1359,-0.5352,-0.1697,347.0098
16:06:38:441,-0.0861,3.5916,7.346,66.0954,-0.0516,-0.5951,-0.0121,347.2801
16:06:38:462,0.1986,3.5414,7.2957,65.3867,0.0742,-0.5535,0.0208,347.494
16:06:38:479,0.0431,3.5725,6.8937,65.047,0.1842,-0.4179,-0.0011,347.6827
16:06:38:501,-0.1842,3.8237,6.6257,65.2843,0.244,-0.2371,0.0111,347.7728
16:06:38:520,0.0814,4.0175,6.5707,65.1848,0.2294,-0.1101,0.0856,347.739
16:06:38:540,0.7274,4.1874,6.8172,66.3815,0.1793,-0.0856,0.1626,347.6222
16:06:38:565,1.4716,4.3669,7.2646,64.4408,0.1316,-0.1626,0.1797,347.5045
16:06:38:581,2.0195,4.41,7.8461,65.6348,0.1182,-0.2481,0.0831,347.5107
16:06:38:600,1.7013,4.5248,8.4491,64.3399,0.161,-0.253,-0.1331,347.7545
16:06:38:622,0.7681,4.4865,8.7314,64.2648,0.2282,-0.1968,-0.3481,348.2084
16:06:38:642,0.1196,4.6086,8.8846,63.1604,0.2587,-0.104,-0.419,348.6903
16:06:38:666,0.8447,4.9484,9.6814,63.9207,0.029,0.1929,-0.2357,349.168
16:06:38:682,0.8949,4.7952,10.6122,63.4346,-0.28,0.3041,-0.2565,349.2906
16:06:38:700,0.1986,3.9936,11.9665,63.502,-0.5537,0.4519,-0.3701,349.477
16:06:38:719,-1.3208,3.4026,12.7442,64.5022,-0.5867,0.634,-0.4287,349.6776
16:06:38:739,-2.9193,3.5677,11.8205,63.974,-0.2715,0.8563,-0.3298,349.7192
16:06:38:762,-3.6945,4.3382,9.9446,63.4661,0.128,1.0774,-0.0427,349.4055
16:06:38:781,-3.5533,4.7689,8.473,61.9979,0.2111,1.1288,0.2786,348.7224
16:06:38:800,-2.412,4.0582,8.9563,65.9188,-0.1884,0.8148,0.5169,347.9069
16:06:38:822,-1.34,2.6991,11.0596,65.0843,-0.803,0.2283,0.5987,347.2178
16:06:38:839,-0.8901,1.6487,12.2441,61.9136,-1.0901,-0.1614,0.595,346.6645
16:06:38:859,-0.7322,1.206,11.9833,63.5454,-0.9361,-0.0832,0.661,346.0093
16:06:38:881,-0.189,1.3687,10.3442,63.0335,-0.6197,0.2638,0.8394,345.0332
16:06:38:900,0.9787,1.4453,8.4562,64.3594,-0.4572,0.5716,1.0349,343.7247
16:06:38:920,2.3426,1.4764,7.7767,64.5157,-0.5659,0.7928,1.1228,342.2315
16:06:38:940,3.0341,1.3591,8.9444,63.5691,-0.8408,0.7622,0.997,340.8607
16:06:38:961,2.7805,1.2514,10.7557,64.7896,-0.9654,0.4543,0.716,339.8901
16:06:38:980,2.2014,1.2825,10.684,65.2086,-0.5965,0.1514,0.4814,339.2824
16:06:39:000,2.0626,1.7276,8.7625,65.0439,0.0229,-0.0258,0.4069,338.8174
16:06:39:021,2.0124,2.1296,6.8913,64.5975,0.4139,-0.0636,0.3764,338.4085
16:06:39:039,1.8401,2.5842,6.3123,63.5701,0.4762,-0.0307,0.3067,338.0702
16:06:39:062,1.6654,2.7637,6.3266,63.5392,0.3931,-0.0832,0.1845,337.8769
16:06:39:081,1.3759,2.8738,6.4845,63.336,0.3161,-0.2261,0.0538,337.8844
16:06:39:100,1.06,3.0437,6.6568,62.6746,0.2807,-0.3361,-0.0549,338.0338
16:06:39:128,0.5791,3.4289,6.6903,62.0943,0.2709,-0.5462,-0.2406,338.7601
16:06:39:138,0.1842,3.7472,6.7382,63.1336,0.2025,-0.5988,-0.3481,339.3434
16:06:39:159,-0.2225,3.8572,7.3842,64.7046,0.0315,-0.6232,-0.469,340.0649
16:06:39:182,-0.6126,3.5127,8.461,62.9299,-0.2471,-0.6635,-0.5753,340.9185
16:06:39:199,-1.395,3.1322,9.734,62.0691,-0.5439,-0.6427,-0.6389,341.8429
16:06:39:220,-2.1009,3.0628,10.8371,62.228,-0.7736,-0.5548,-0.5827,342.6902
16:06:39:238,-1.2921,2.6536,11.5382,62.1425,-0.9251,-0.457,-0.3359,343.2374
16:06:39:259,0.2967,2.1129,13.1438,61.8874,-1.1084,-0.4155,-0.0256,343.3955
16:06:39:280,2.9767,0.9619,16.5009,63.5027,-1.3369,-0.6427,0.1186,343.3755
16:06:39:300,4.3095,-0.2632,17.604,62.6029,-1.2403,-1.0019,-0.0732,343.5914
16:06:39:319,3.0844,-0.39,15.6586,61.9459,-0.7504,-0.9176,-0.4092,344.1667
16:06:39:341,1.2371,-0.1986,13.5936,61.4173,-0.3509,-0.396,-0.5191,344.8
16:06:39:361,0.2106,-0.0694,13.0289,62.1179,-0.1469,0.1782,-0.3603,345.1774
16:06:39:380,0.7035,-0.0694,12.8877,61.5336,0.0254,0.2014,-0.0708,345.2131
16:06:39:399,1.7204,0.5815,11.9593,63.1408,0.2941,-0.1846,0.1552,345.0576
16:06:39:419,2.3426,1.5075,9.9398,60.4219,0.6106,-0.4216,0.2151,344.8786
16:06:39:443,2.2349,2.3282,7.7384,62.4017,0.7804,-0.3434,0.1271,344.8061
16:06:39:461,1.6415,2.8331,6.4032,59.6309,0.6826,-0.0856,-0.0219,344.8619
16:06:39:478,0.7274,2.8403,6.3912,58.9657,0.3809,0.155,-0.1612,345.0255
16:06:39:498,0.0838,2.7852,7.1689,60.0224,0.1011,0.287,-0.2076,345.1933
16:06:39:518,-0.2177,2.8953,7.602,60.1859,0.0596,0.3627,-0.1636,345.3016
16:06:39:541,-0.4187,2.9767,7.1187,61.8947,0.2245,0.3945,-0.105,345.343
16:06:39:560,-0.6724,3.1753,5.9821,62.536,0.431,0.4421,-0.0439,345.3237
16:06:39:581,-0.4642,3.1131,5.616,61.6742,0.3467,0.4531,0.1247,344.9798
16:06:39:600,-0.0335,2.7948,6.6233,62.6029,0.1683,0.3053,0.1955,344.72
16:06:39:619,0.6365,2.6154,7.523,62.0334,0.1011,0.1562,0.2578,344.4219
16:06:39:645,1.3567,2.2445,8.1356,61.5043,0.117,0.0487,0.2774,344.1087
16:06:39:658,1.9597,1.9525,8.5472,63.1119,0.15,-0.0197,0.2591,343.8147
16:06:39:681,1.8879,2.065,9.2387,61.9593,0.1805,-0.016,0.209,343.5705
16:06:39:698,1.7157,2.5149,9.8082,61.6501,0.2758,0.0475,0.1674,343.3737
16:06:39:718,1.73,3.0413,8.9683,62.5778,0.4908,0.1147,0.1516,343.1806
16:06:39:742,2.0052,3.3571,7.5661,60.8779,0.5971,0.1086,0.1198,343.0206
16:06:39:759,2.479,3.07,7.748,62.2179,0.3357,-0.0013,0.0441,342.9527
16:06:39:780,2.1296,3.1035,9.789,63.479,-0.0931,-0.0759,-0.0671,343.0473
16:06:39:801,0.926,3.5557,10.5787,63.3629,-0.2556,0.0243,-0.1758,343.2343
16:06:39:820,0.0479,3.5414,9.746,63.1989,-0.1493,0.2577,-0.1966,343.4179
16:06:39:840,-0.335,3.6586,9.7388,61.9951,-0.2299,0.199,-0.16,343.5789
16:06:39:859,-0.8806,3.7902,11.3372,63.3756,-0.5,-0.1394,-0.1697,343.8656
16:06:39:883,-1.1342,3.5055,11.9952,63.3756,-0.605,-0.4827,-0.171,344.2714
16:06:39:899,-1.0217,2.8953,11.6219,64.1627,-0.5916,-0.6623,-0.1038,344.642
16:06:39:918,-0.2536,1.8257,12.0479,63.1577,-0.7162,-0.5267,0.0441,344.7965
16:06:39:942,0.5838,0.8806,13.8712,63.5538,-0.9703,-0.2933,0.1797,344.7206
16:06:39:959,0.7226,0.3757,15.5175,65.4157,-1.0058,-0.0844,0.264,344.4768
16:06:39:979,0.6054,0.6796,15.3356,65.8195,-0.5488,0.1954,0.369,344.0758
16:06:40:003,0.3087,1.0457,12.2513,65.1813,0.1512,0.4299,0.5169,342.6134
16:06:40:025,1.931,1.73,7.7623,65.8977,0.5519,0.6401,0.8235,341.5784
16:06:40:045,2.321,1.8664,7.8532,64.2845,0.3015,0.6193,0.7624,340.5768
16:06:40:061,2.1248,1.8114,8.5304,65.3387,0.1451,0.4507,0.5731,339.8484
16:06:40:077,1.8425,1.8688,7.8269,64.3397,0.2917,0.2149,0.3983,339.3829
16:06:40:098,1.608,2.0219,6.2596,64.5134,0.5397,0.0829,0.2811,339.0708
16:06:40:118,1.3304,2.1607,5.2259,65.6466,0.6167,0.0707,0.2004,338.8645
16:06:40:144,1.1964,2.1009,5.2498,65.2106,0.475,0.0268,0.1528,338.7374
16:06:40:164,1.3639,1.8497,6.4463,65.6369,0.2587,-0.0869,0.1296,338.6439
16:06:40:179,1.6391,1.5362,7.6451,64.2379,0.1658,-0.2371,0.0966,338.6108
16:06:40:198,1.5793,1.5888,8.004,64.9396,0.2905,-0.3569,0.0245,338.7005
16:06:40:219,1.3831,1.8927,7.389,64.2365,0.5031,-0.4546,-0.0671,338.9216
16:06:40:240,1.2132,2.1655,7.054,63.6508,0.602,-0.5645,-0.1624,339.2984
16:06:40:260,0.9715,2.3186,7.2479,65.0966,0.5348,-0.6733,-0.2381,339.8062
16:06:40:278,1.0528,2.187,7.7719,65.7292,0.3308,-0.7454,-0.2687,340.3858
16:06:40:298,1.2873,2.2421,8.6285,66.3617,0.0425,-0.5487,-0.2455,340.8578
16:06:40:318,0.9763,2.8738,10.0427,66.6056,-0.2727,0.0207,-0.2211,341.1496
16:06:40:339,1.0241,3.0796,11.5669,66.3635,-0.5354,0.6449,-0.2088,341.202
16:06:40:438,1.8281,2.1583,13.1414,67.9273,-0.7553,0.7622,-0.2797,341.2751
16:06:40:438,2.1703,1.1222,16.3597,66.0389,-1.1133,-0.0624,-0.4862,341.8119
16:06:40:439,1.7659,-0.0072,19.2,67.6235,-1.2489,-0.9653,-0.6706,342.7816
16:06:40:440,1.9884,-0.1077,19.5876,67.26,-0.748,-1.1754,-0.5949,343.7202
16:06:40:440,2.3833,0.335,15.6515,65.1795,0.1695,-0.7454,-0.3554,344.2882
16:06:40:460,2.3833,1.261,11.531,64.8288,0.8073,-0.0575,-0.1184,344.4258
16:06:40:479,2.7589,2.053,9.5498,66.1413,0.8305,0.3395,0.0612,344.2513
16:06:40:498,3.1514,2.6321,7.9131,65.3218,0.4175,0.1782,0.0893,343.7992
16:06:40:518,2.5699,2.802,6.451,65.9271,0.3943,0.1697,-0.0219,343.788
16:06:40:541,1.7922,2.924,5.2762,65.2567,0.3784,0.3371,-0.1013,343.8302
16:06:40:557,1.151,3.0485,4.8072,66.6035,0.31,0.4727,-0.1196,343.8468
16:06:40:578,0.9308,3.0628,4.855,65.4912,0.2367,0.4409,-0.105,343.8484
16:06:40:598,0.8112,3.0173,4.8718,63.8903,0.2147,0.2467,-0.1086,343.9214
16:06:40:619,0.5121,3.0604,4.8598,63.8427,0.2184,0.0133,-0.149,344.1045
16:06:40:640,-0.0646,3.1944,5.0871,64.0145,0.194,-0.1394,-0.1954,344.4127
16:06:40:660,-0.5001,3.3141,5.6877,63.4697,0.1426,-0.2115,-0.1893,344.7573
16:06:40:682,-0.7202,3.5222,6.2859,64.316,0.1097,-0.2066,-0.1025,345.0213
16:06:40:698,-0.469,3.7424,6.7908,64.316,0.0803,-0.1785,0.0367,345.1307
16:06:40:720,-0.0694,3.8835,7.6714,64.1591,-0.0113,-0.1296,0.1589,345.0855
16:06:40:740,0.2441,3.8357,8.7673,63.4888,-0.12,-0.0514,0.231,344.9316
16:06:40:760,0.5049,3.6323,10.1456,64.1402,-0.1738,0.0304,0.2566,344.7136
16:06:40:779,0.6341,3.3236,11.4808,63.476,-0.1542,0.0329,0.2542,344.4788
16:06:40:798,0.8231,3.1202,12.1364,63.148,-0.0333,-0.0246,0.2652,344.2527
16:06:40:821,1.3113,3.0628,12.8255,63.5061,0.073,-0.1541,0.3153,343.9958
16:06:40:839,1.8329,3.2184,13.3902,64.9078,0.1145,-0.3165,0.3666,343.7466
16:06:40:861,2.5508,3.2375,12.7298,62.6338,0.1952,-0.1785,0.4155,343.3691
16:06:40:882,3.1274,2.9408,12.0239,62.8941,0.2037,0.2234,0.3996,342.8469
16:06:40:902,2.3641,2.479,12.5025,65.3083,0.0522,0.5716,0.2664,342.3719
16:06:40:918,0.256,2.857,11.653,64.7695,0.1292,0.9064,0.1308,341.969
16:06:40:941,-1.1557,4.3789,6.7669,63.9923,0.5531,1.516,0.3373,341.4064
16:06:40:960,-0.9476,4.2616,6.9727,64.0408,0.1817,1.4134,0.4374,339.6976
16:06:40:978,-0.8375,3.3739,9.411,61.687,-0.423,0.805,0.4179,339.0415
16:06:40:998,-0.8829,2.3641,11.8732,62.6816,-0.7712,0.0549,0.347,338.6986
16:06:41:021,-0.8183,1.7276,13.273,62.5272,-0.6747,-0.4289,0.402,338.4542
16:06:41:039,-0.2417,1.3065,12.8758,62.4636,-0.2666,-0.5548,0.5804,338.0422
16:06:41:058,0.3948,1.3543,11.3515,61.7313,0.1805,-0.3776,0.7991,337.3318
16:06:41:078,0.7753,1.5793,9.813,62.802,0.4701,0.0182,0.9689,336.3161
16:06:41:100,1.2179,1.7827,8.7123,61.4746,0.6313,0.4128,1.0862,335.0294
16:06:41:121,1.517,2.0435,7.523,63.8288,0.7657,0.6217,1.1228,333.6267
16:06:41:140,1.6917,2.345,6.3194,62.6104,0.8757,0.612,1.074,332.293
16:06:41:160,1.8329,2.68,5.2546,60.3774,0.9197,0.4959,0.975,331.1079
16:06:41:179,1.785,2.9623,4.7378,58.9541,0.8586,0.3212,0.8125,330.1565
16:06:41:203,1.7109,3.1059,4.5033,58.9286,0.7169,0.0878,0.6305,329.4882
16:06:41:219,1.6965,3.2686,4.3956,60.7077,0.5519,-0.1357,0.4533,329.0929
16:06:41:238,1.6678,3.4265,4.52,60.4758,0.3613,-0.3288,0.2762,328.9853
16:06:41:258,1.5649,3.4792,5.257,60.0235,0.1549,-0.4986,0.1039,329.1321
16:06:41:277,1.1964,3.5175,6.4917,58.9815,-0.0088,-0.6721,-0.0549,329.5138
16:06:41:298,0.7825,3.5868,7.2,59.7563,-0.026,-0.7869,-0.1538,330.0649
16:06:41:322,0.6796,3.7998,7.6379,57.6057,0.0351,-0.8235,-0.171,330.6397
16:06:41:337,0.9021,4.0175,7.4895,57.4029,0.0131,-0.8113,-0.1416,331.1858
16:06:41:358,1.06,4.678,8.0495,56.8223,-0.2373,-0.5535,-0.0976,331.5823
16:06:41:378,2.1368,4.9388,9.3751,56.7845,-0.7015,0.0097,-0.0243,331.6265
16:06:41:404,2.8618,2.6345,15.8716,56.8632,-1.8439,0.5216,-0.4507,331.6429
16:06:41:423,1.8879,0.8016,19.8556,58.6554,-2.1175,0.0402,-0.8588,332.4659
16:06:41:440,-0.2034,-0.2106,21.1956,58.5759,-1.7473,-0.3752,-1.0701,333.697
16:06:41:457,-1.0624,-0.3302,19.0995,58.2309,-0.9117,-0.5926,-0.8502,334.7732
16:06:41:477,0.39,0.8207,14.8714,56.0132,-0.0443,-0.6989,-0.2895,335.2768
16:06:41:502,2.1775,1.5434,11.3563,55.446,0.3723,-0.6635,0.1577,335.2596
16:06:41:535,3.3858,2.4024,9.1454,58.0342,0.3613,-0.2139,0.3605,334.8865
16:06:41:554,2.936,2.5795,6.8195,56.4945,0.0767,0.7635,0.0954,334.397
16:06:41:569,1.6247,2.4837,6.0155,55.2724,0.0669,1.0591,-0.1722,334.0441
16:06:41:588,0.3254,2.4574,5.6279,55.3725,0.1145,1.0225,-0.3493,333.9124
16:06:41:607,-0.7633,2.5029,5.2092,55.8644,0.1842,0.7121,-0.3823,334.0225
16:06:41:630,-1.3926,2.8116,4.3956,54.5307,0.2941,0.3749,-0.2394,334.2856
16:06:41:649,-1.3352,3.1514,3.6706,56.2123,0.332,0.1245,0.0282,334.5075
16:06:41:665,-0.6245,3.4217,3.7639,54.2642,0.2135,-0.0624,0.2933,334.5067
16:06:41:686,0.1819,3.3858,4.8574,54.686,0.0144,-0.2054,0.4338,333.9294
16:06:41:705,0.5432,3.2327,5.9892,52.4813,-0.1212,-0.3239,0.4301,333.608
16:06:41:726,0.4834,3.0293,7.1163,53.2514,-0.1676,-0.396,0.3605,333.3793
16:06:41:744,0.3326,2.6441,8.3821,52.415,-0.1676,-0.4045,0.3092,333.2026
16:06:41:766,0.3326,2.4287,9.3488,53.6489,-0.1041,-0.4082,0.3238,333.0058
16:06:41:784,0.4857,2.2253,10.5978,53.8122,-0.037,-0.3874,0.3813,332.7353
16:06:41:803,0.658,1.9406,11.878,51.889,0.04,-0.3397,0.4326,332.3703
16:06:41:822,0.5695,1.9023,12.8375,50.9381,0.1879,-0.2616,0.4619,331.9623
16:06:41:838,0.6293,2.1464,12.8973,48.838,0.3858,-0.1553,0.5266,331.4411
16:06:41:859,1.1701,2.388,12.4068,49.5386,0.5813,0.0903,0.6537,330.7088
16:06:41:885,1.3591,3.5581,10.8299,51.4577,0.7401,0.5301,0.7795,329.7239
16:06:41:902,1.2012,4.5775,9.0592,51.3582,0.7828,1.1544,0.8357,328.4937
16:06:41:923,0.5145,5.2116,8.0231,49.7713,0.6045,1.5857,0.804,327.1783
16:06:41:940,-0.5097,5.4796,8.8678,48.9495,0.2074,1.5979,0.7087,325.9378
16:06:41:957,-1.4165,5.2666,10.4303,50.1507,-0.1676,1.2143,0.617,324.9725
16:06:41:981,-1.1103,4.6349,11.7727,48.5626,-0.4047,0.5423,0.6024,324.2081
16:06:41:998,-0.1172,3.4146,13.9813,47.2833,-0.6038,-0.1834,0.617,323.6299
16:06:42:017,0.7035,1.9549,16.1372,49.5508,-0.6612,-0.7038,0.5926,323.1869
16:06:42:037,1.4285,1.1366,14.9767,48.8741,-0.274,-0.6195,0.617,322.652
16:06:42:056,1.4405,1.5123,11.6483,48.1426,0.2526,0.1172,0.705,321.8125
16:06:42:078,1.3065,1.6678,9.3009,47.4655,0.4041,0.9589,0.7869,320.6484
16:06:42:097,1.3328,1.7659,7.8365,45.0209,0.3112,1.4134,0.8382,319.2869
16:06:42:120,2.2038,1.7444,7.1713,47.7039,0.1768,1.5173,0.8736,317.8196
16:06:42:138,3.7208,1.8879,7.1737,47.1525,0.1072,1.3242,0.8418,316.4104
16:06:42:158,4.4339,1.8927,6.6568,47.2347,0.2477,1.0188,0.6622,315.265
16:06:42:182,4.6325,1.9334,6.1902,46.5778,0.4725,0.6437,0.3519,314.5796
16:06:42:199,3.9649,2.0028,4.9531,46.2552,0.613,0.1453,-0.0329,314.4928
16:06:42:218,2.5388,2.2373,4.7091,45.5596,0.5519,-0.1809,-0.4006,314.9273
16:06:42:238,1.8592,2.1942,5.4963,45.3903,0.3186,-0.3104,-0.5888,315.6013
16:06:42:259,1.663,2.2229,6.3099,45.0228,0.1451,-0.3984,-0.6572,316.3901
16:06:42:282,1.7563,2.1535,6.731,45.4283,0.0669,-0.4595,-0.711,318.2648
16:06:42:299,0.7633,2.211,8.0327,44.5023,-0.0687,-0.6953,-0.9162,319.4269
16:06:42:319,0.1842,2.4335,8.5017,42.9889,-0.1115,-0.8297,-0.9675,320.7209
16:06:42:337,0.3446,2.5938,8.7673,42.3644,-0.1579,-0.8627,-0.9504,321.9876
16:06:42:357,0.5791,2.6417,9.1741,41.7523,-0.3155,-0.7771,-0.9297,323.1877
16:06:42:380,0.4116,2.8403,9.9278,41.2088,-0.5317,-0.4937,-0.9443,324.3331
16:06:42:400,-0.0933,3.2806,10.191,41.1621,-0.6392,-0.1247,-0.9639,325.3773
16:06:42:418,0.414,2.8738,10.1815,41.1616,-0.7125,0.0255,-0.9565,326.3383
16:06:42:437,2.3306,1.2467,12.6748,41.3401,-1.0925,-0.5548,-1.0152,327.4578
16:06:42:535,2.5555,-1.0576,18.0371,40.2062,-1.6936,-1.5651,-1.2852,329.0898
16:06:42:536,0.9954,-1.8185,20.8032,41.2288,-1.503,-1.8865,-1.4941,331.0351
16:06:42:536,-0.4355,-1.1366,18.0012,40.9216,-0.4303,-1.4821,-1.3511,332.7896
16:06:42:536,-0.1699,-0.0359,12.6341,38.3906,0.5275,-0.8663,-0.9101,333.9346
16:06:42:545,1.6463,1.0457,9.99,38.4148,0.646,-0.3874,-0.4581,334.4379
16:06:42:563,3.3667,1.6702,9.3942,38.2777,0.2636,-0.264,-0.2797,334.6829
16:06:42:579,3.7854,1.8209,9.2961,38.1567,-0.1579,-0.341,-0.4605,335.1199
16:06:42:598,2.5531,1.7563,8.5352,38.5448,-0.3631,-0.1797,-0.7892,335.9313
16:06:42:617,0.7107,1.8855,7.6427,38.0875,-0.3961,0.2882,-0.9993,336.9023
16:06:42:637,-0.2895,2.1727,7.2335,38.6082,-0.3827,0.6926,-0.9675,337.7764
16:06:42:657,-0.5456,2.4861,7.0732,36.5747,-0.3326,0.7525,-0.7879,338.4616
16:06:42:682,-0.4546,2.7517,6.7597,39.2317,-0.2226,0.4959,-0.6071,338.9614
16:06:42:698,-0.4403,2.9527,6.2381,37.661,-0.0968,0.1123,-0.4984,339.4478
16:06:42:716,-0.4283,3.1657,5.8002,37.3281,-0.015,-0.165,-0.4214,339.9404
16:06:42:736,-0.3302,3.2686,5.9222,36.5364,-0.0223,-0.2921,-0.331,340.3747
16:06:42:756,-0.1388,3.2566,7.145,37.1777,-0.1127,-0.3544,-0.2443,340.7277
16:06:42:779,0.1029,3.1777,8.942,36.1156,0.0022,-0.3703,-0.0964,340.9882
16:06:42:798,0.1699,3.283,9.1214,37.1297,0.1793,-0.319,-0.0317,341.3302
16:06:42:817,0.4522,3.4816,8.985,38.4071,0.3345,-0.1895,0.0441,341.3119
16:06:42:839,0.5575,3.4816,9.6335,36.1392,0.3968,-0.0307,0.0722,341.2376
16:06:42:861,0.2513,3.2303,11.2319,36.9774,0.4322,0.0292,0.0502,341.1588
16:06:42:880,-0.1149,3.2184,11.5549,36.3979,0.6313,-0.071,0.0428,341.1364
16:06:42:896,-0.1436,3.6012,10.9304,35.2109,0.8696,-0.1846,0.1198,341.0479
16:06:42:917,0.5623,4.721,10.4303,35.2048,0.9075,-0.1711,0.264,340.8282
16:06:42:937,1.943,4.7115,10.5404,34.9273,0.6802,-0.0355,0.3202,340.4451
16:06:42:957,2.412,3.3571,13.4429,34.898,0.1121,-0.1809,0.1394,340.2525
16:06:42:977,1.4812,2.0961,16.2951,34.1554,-0.2458,-0.4521,-0.1282,340.4715
16:06:42:998,-0.2297,2.321,14.6848,34.1554,0.139,-0.2102,-0.1991,340.7347
16:06:43:017,-0.9117,3.2471,10.861,34.8496,0.734,0.5008,-0.0195,340.6051
16:06:43:036,-0.0981,3.7615,9.5402,34.8496,0.635,0.8453,0.2371,340.0693
16:06:43:061,1.0385,3.1035,10.8945,35.7965,0.0889,0.7513,0.3263,339.4216
16:06:43:077,1.0433,2.6321,11.2798,33.7644,-0.2202,0.5973,0.242,338.8881
16:06:43:097,0.6317,2.4861,10.416,35.4354,-0.2214,0.6767,0.1809,338.4163
16:06:43:117,0.5982,2.3426,9.4828,36.0428,-0.1762,0.8868,0.2273,337.826
16:06:43:136,0.7968,2.144,9.3703,37.3678,-0.2006,1.0298,0.3202,337.0891
16:06:43:163,0.9141,1.7874,9.9996,36.9349,-0.1921,0.9528,0.3776,336.3125
16:06:43:178,1.0361,1.6391,9.9494,36.7482,0.0095,0.6755,0.4252,335.5611
16:06:43:197,1.2921,1.809,8.9157,36.1178,0.3736,0.3737,0.5169,334.8335
16:06:43:218,1.8018,2.1296,7.0827,34.5842,0.7022,0.1795,0.6073,334.0608
16:06:43:238,2.4383,2.7709,5.1972,35.2589,0.7327,0.3163,0.5853,332.4533
16:06:43:262,2.1559,2.7278,6.1089,36.4951,0.5507,0.32,0.4399,331.8133
16:06:43:277,1.7037,2.5747,6.7645,34.5842,0.4578,0.0011,0.2554,331.4758
16:06:43:298,1.7037,2.5508,6.9942,36.0835,0.5189,-0.4216,0.1076,331.4774
16:06:43:317,1.8999,2.5196,6.4534,35.4885,0.6008,-0.7307,-0.0243,331.7429
16:06:43:335,1.9095,2.723,6.1304,36.5013,0.58,-0.7722,-0.1612,332.1747
16:06:43:363,1.8736,3.0508,6.463,33.8258,0.4273,-0.6171,-0.2858,332.6941
16:06:43:376,1.8784,2.9958,7.748,35.0958,0.1879,-0.5377,-0.4373,333.3252
16:06:43:396,1.6439,2.8522,9.198,34.7031,-0.0125,-0.5902,-0.5949,334.1323
16:06:43:416,0.9739,3.2662,9.3799,33.9141,-0.0211,-0.5939,-0.7122,335.0869
16:06:43:436,0.7178,4.1468,9.2171,35.6617,0.0535,-0.4961,-0.7293,336.0591
16:06:43:457,1.2993,4.4435,8.8846,34.8743,-0.0113,-0.5193,-0.7171,336.9953
16:06:43:476,2.4239,3.6227,9.1837,34.507,-0.3082,-0.5792,-0.7696,337.9605
16:06:43:496,3.0173,2.5508,10.7653,37.0474,-0.7944,-0.5181,-0.9089,339.0084
16:06:43:516,2.5771,1.3424,13.4477,36.6521,-1.2403,-0.3324,-1.075,340.1413
16:06:43:536,1.7276,0.67,15.6993,35.8283,-1.3014,-0.1834,-1.1398,341.3245
16:06:43:560,0.9811,0.8806,14.79,37.0693,-0.8665,-0.1467,-1.0359,342.403
16:06:43:576,0.9834,1.5793,11.6435,34.9034,-0.3253,-0.0942,-0.772,343.2168
16:06:43:596,1.5027,2.345,9.9565,37.5511,-0.1982,0.0158,-0.4898,343.6684
16:06:43:616,1.8281,2.8762,9.3535,35.5912,-0.3082,0.1917,-0.3347,343.9042
16:06:43:636,1.3974,3.2758,8.3581,35.2108,-0.3289,0.3517,-0.3408,344.0971
16:06:43:658,0.8877,3.4409,8.0806,37.0693,-0.3424,0.3212,-0.4177,344.3932
16:06:43:677,0.5934,3.3763,8.7195,35.9823,-0.3692,0.039,-0.491,344.8969
16:06:43:698,0.134,3.2806,7.7193,38.053,-0.0626,-0.4631,-0.6218,346.4488
16:06:43:717,-0.3948,3.2638,6.9679,35.5998,0.0608,-0.2982,-0.6096,347.2208
16:06:43:737,-0.6126,3.3308,6.8195,36.7372,0.0693,-0.0624,-0.535,347.8375
16:06:43:756,-0.5408,3.3045,6.3027,36.7744,0.029,0.0695,-0.4373,348.3014
16:06:43:778,-0.6628,3.3763,6.0706,37.3227,-0.0662,0.1941,-0.3603,348.6486
16:06:43:797,-0.9547,3.3811,6.3912,35.8245,-0.2129,0.3542,-0.2724,348.8588
16:06:43:816,-0.7992,2.9886,7.5446,36.9644,-0.3998,0.4116,-0.1538,348.9153
16:06:43:836,-0.5719,2.5555,8.6357,37.4381,-0.5049,0.3725,-0.0549,348.9025
16:06:43:860,-0.7729,2.2469,9.5067,36.4921,-0.4511,0.3676,0.0001,348.8036
16:06:43:877,-1.4788,1.9573,9.9541,37.1837,-0.2935,0.502,0.0978,348.5832
16:06:43:896,-1.6726,1.8568,10.9089,39.863,-0.0785,0.8245,0.3116,348.0586
16:06:43:916,-1.0433,1.541,10.3346,38.5102,0.1768,0.9773,0.5205,347.2356
16:06:43:937,-0.6006,1.596,9.9446,37.6139,0.2025,0.827,0.5828,346.3693
16:06:43:958,-0.8686,2.3091,11.2247,38.8085,-0.0712,0.634,0.5499,345.6246
16:06:43:977,-0.2823,2.065,11.6985,40.0141,-0.1994,0.59,0.5388,344.858
16:06:43:996,0.1196,1.6534,11.9354,38.401,-0.1725,0.4788,0.4729,344.1935
16:06:44:016,-0.8064,2.0578,12.2656,38.1145,-0.087,0.3468,0.325,343.7637
16:06:44:036,-1.608,2.7254,11.0979,39.1896,0.2514,0.4483,0.2847,343.3874
16:06:44:056,-1.6893,3.6203,8.2648,37.0715,0.6472,0.4996,0.3177,342.9675
16:06:44:076,-0.8997,3.6299,6.8866,39.6419,0.5018,0.4091,0.2957,342.5626
16:06:44:098,-0.2177,2.5268,8.1787,37.1065,-0.1542,0.1917,0.1418,342.3663
16:06:44:116,-0.7202,1.4309,10.6194,38.3987,-0.7956,-0.0465,-0.1453,342.5312
16:06:44:140,-1.2754,1.0624,12.2369,39.2914,-1.0045,-0.1589,-0.2797,342.902
16:06:44:160,-1.1031,0.9476,11.0142,38.3593,-0.4755,-0.0001,-0.0867,343.3043
16:06:44:177,-0.8279,1.3161,9.344,38.8496,-0.1945,0.2222,0.0709,343.1971
16:06:44:196,-0.5312,1.7228,8.0207,41.1029,-0.1371,0.4641,0.1931,342.9008
16:06:44:216,-0.134,2.0243,7.4297,40.1608,-0.1994,0.623,0.2688,342.4703
16:06:44:238,0.1364,2.199,7.4584,40.6636,-0.28,0.5631,0.2652,342.0529
16:06:44:257,0.2536,2.2014,7.724,40.4439,-0.3204,0.3713,0.1809,341.7727
16:06:44:276,0.0359,2.1775,8.1547,39.9244,-0.2849,0.1489,0.0416,341.6889
16:06:44:297,-0.3829,2.0746,8.5639,40.7291,-0.1884,-0.0649,-0.0867,341.8247
16:06:44:315,-0.7513,1.9478,8.9492,39.7725,-0.0809,-0.2689,-0.171,342.0918
16:06:44:338,-0.8519,1.8927,9.2841,40.2617,0.0266,-0.4338,-0.1893,342.433
16:06:44:356,-0.5958,1.9525,9.6191,40.5824,0.1402,-0.5059,-0.1734,342.741
16:06:44:375,-0.3781,1.9167,9.7316,40.4381,0.2428,-0.5474,-0.1942,343.1042
16:06:44:395,-0.3924,1.7061,9.9374,40.1021,0.2831,-0.6366,-0.2919,343.5788
16:06:44:416,-0.469,1.718,9.9422,41.5347,0.277,-0.7112,-0.3958,344.1957
16:06:44:435,-0.8231,2.0219,10.0834,38.4085,0.2392,-0.6268,-0.452,344.8688
16:06:44:455,-1.0648,2.1535,10.2413,39.3693,0.2257,-0.3446,-0.4361,345.4681
16:06:44:475,-1.6893,2.936,10.2963,39.6551,0.266,-0.093,-0.3725,345.9607
16:06:44:496,-1.8042,3.6203,10.1456,40.3275,0.3467,0.0451,-0.2662,346.2932
16:06:44:516,-0.6676,3.2806,9.1741,41.9768,0.3442,-0.0148,-0.1819,346.5312
16:06:44:541,1.1533,1.6654,9.0688,40.0484,-0.0174,-0.3141,-0.254,346.886
16:06:44:615,0.8327,0.6126,12.2967,40.7174,-0.7394,-0.7466,-0.4984,347.5993
16:06:44:616,0.3876,0.1651,15.4098,39.1637,-1.0021,-0.9017,-0.6047,348.4871
16:06:44:616,0.3111,0.189,15.2016,39.4539,-0.423,-0.7881,-0.4752,349.1559
16:06:44:616,0.6102,1.3041,7.7719,40.3411,0.7755,-0.1944,-0.138,349.5644
16:06:44:635,0.9858,1.6128,7.2814,39.1456,0.354,0.1782,-0.0378,349.7321
16:06:44:657,0.9476,1.7731,8.8941,39.4539,-0.2299,0.4202,-0.0353,349.6434
16:06:44:678,0.6652,1.7468,10.3418,39.9384,-0.478,0.3725,-0.1514,349.7169
16:06:44:696,-0.1388,1.8329,9.6885,38.9839,-0.302,0.2076,-0.2846,349.9991
16:06:44:724,-0.9811,2.1176,8.3318,39.3759,-0.0553,0.1587,-0.3261,350.3641
16:06:44:737,-1.2251,2.2684,7.9753,39.3759,-0.0345,0.21,-0.2333,350.6315
16:06:44:755,-1.0983,2.2493,8.461,38.9083,-0.1298,0.2625,-0.0842,350.7204
16:06:44:775,-0.6915,2.3067,9.0114,39.0259,-0.1554,0.232,0.0551,350.6528
16:06:44:795,-0.1699,2.4311,8.8917,41.7898,-0.0406,0.166,0.154,350.4717
16:06:44:815,0.0526,2.5627,8.2505,41.0855,0.1182,0.1037,0.1833,350.2798
16:06:44:838,-0.1077,2.6393,7.7288,39.9486,0.1842,0.0829,0.176,350.0841
16:06:44:857,-0.2345,2.735,7.8556,40.5292,0.1475,0.0988,0.1797,349.8995
16:06:44:875,-0.1651,2.7278,7.9968,42.2182,0.0865,0.1013,0.2041,349.6801
16:06:44:896,-0.201,2.613,8.4443,38.6718,0.0364,0.133,0.2383,349.4436
16:06:44:915,-0.2536,2.522,8.9516,42.3494,0.0339,0.2002,0.2872,349.1033
16:06:44:935,-0.347,2.589,9.1645,40.6217,0.1341,0.2161,0.3336,348.7367
16:06:44:958,-0.4929,2.723,9.3009,42.3494,0.2844,0.1844,0.3605,348.3363
16:06:44:975,-0.8327,2.7111,9.6048,40.0717,0.4224,0.0939,0.3495,347.9993
16:06:44:995,-1.0959,2.6178,9.6287,41.8611,0.5226,-0.0331,0.3238,347.7199
16:06:45:019,-0.8638,2.4574,9.3894,41.5503,0.5592,-0.1064,0.3385,347.4516
16:06:45:038,-0.3805,2.4957,9.3105,40.9785,0.4456,-0.0832,0.3886,347.0989
16:06:45:056,-0.4331,2.9169,10.0331,41.7598,0.1903,0.199,0.3996,346.6647
16:06:45:076,-0.2513,1.7922,12.1364,41.7598,-0.2043,0.7757,0.275,345.5562
16:06:45:094,-1.2179,1.5888,12.8925,42.6169,-0.1835,0.5411,0.1174,345.321
16:06:45:115,-2.6249,2.4383,11.3611,42.4845,0.2758,0.3896,0.0697,345.2383
16:06:45:135,-2.5436,3.0628,8.3294,41.3123,0.8024,0.4922,0.2249,344.9445
16:06:45:155,-2.1081,3.5844,6.6473,41.4038,0.7877,0.6132,0.3788,344.4501
16:06:45:178,-1.2921,2.9049,7.1234,44.0278,0.1817,0.5545,0.3764,343.9406
16:06:45:195,-1.4524,1.9908,9.6981,40.7404,-0.6014,0.32,0.2029,343.6564
16:06:45:215,-1.6798,1.1414,12.2943,41.5504,-1.0791,-0.0074,0.0221,343.6748
16:06:45:236,-2.1224,0.6078,13.4381,42.1825,-1.0363,-0.297,-0.0378,343.8551
16:06:45:256,-2.0746,0.469,12.3924,42.095,-0.5757,-0.2884,0.0844,343.8936
16:06:45:275,-1.6965,0.9643,10.1288,41.2027,-0.1102,-0.0441,0.336,343.605
16:06:45:295,-0.7872,1.3759,8.7601,42.3742,0.0302,0.3407,0.5914,342.9165
16:06:45:316,0.1795,1.7898,8.4299,44.2715,-0.0272,0.6132,0.7294,342.0118
16:06:45:336,0.5719,1.9932,8.6357,47.2634,-0.1225,0.5875,0.6684,341.1584
16:06:45:355,0.347,2.211,8.8056,42.7068,-0.1322,0.298,0.4741,340.6136
16:06:45:376,-0.0335,2.2899,8.5352,40.8702,-0.0333,-0.0673,0.2823,340.3602
16:06:45:395,-0.2345,2.3617,7.9992,43.8851,0.0901,-0.3275,0.1723,340.3003
16:06:45:415,-0.3278,2.4359,7.5853,44.8553,0.1463,-0.3776,0.1369,340.2886
16:06:45:436,-0.1555,2.4287,7.8987,43.1307,0.1072,-0.3177,0.1186,340.2885
16:06:45:455,0.012,2.321,8.5328,42.9803,0.0425,-0.3581,0.066,340.3623
16:06:45:475,0.0909,2.2277,8.9731,41.731,0.0571,-0.479,-0.017,340.5375
16:06:45:495,-0.0526,2.4263,9.1071,42.1686,0.1573,-0.5413,-0.0964,340.828
16:06:45:520,-0.1196,2.601,8.5328,42.5427,0.288,-0.5328,-0.1648,341.6711
16:06:45:539,-0.256,2.7805,7.9944,41.9638,0.1952,-0.5511,-0.3554,342.2034
16:06:45:555,-0.4857,2.7159,8.6525,43.6496,-0.026,-0.4656,-0.4275,342.8516
16:06:45:577,-0.8327,2.8355,9.6168,43.4633,-0.1676,-0.3006,-0.4446,343.4919
16:06:45:599,-1.3208,3.3212,10.3825,40.5715,-0.1823,-0.1724,-0.4458,344.1206
16:06:45:617,-1.2754,3.4672,10.258,41.8442,-0.1053,-0.1113,-0.4031,344.6442
16:06:45:636,-0.3254,3.0197,10.1216,42.7755,-0.1432,-0.1259,-0.3493,345.095
16:06:45:655,0.8399,1.9956,11.1936,42.3284,-0.423,-0.2029,-0.364,345.5666
16:06:45:675,0.67,1.194,13.6606,42.2401,-0.7614,-0.3764,-0.5179,346.2223
16:06:45:704,0.3613,0.7155,15.3954,42.2824,-0.7272,-0.5413,-0.6181,347.0344
16:06:45:723,-0.1101,0.4427,14.1512,42.6941,-0.2031,-0.5328,-0.5802,347.8137
16:06:45:738,0.0502,0.4235,11.5884,40.5704,0.3601,-0.2408,-0.4226,348.3533
16:06:45:755,0.2465,0.3087,10.3777,43.1142,0.4518,-0.0074,-0.2601,348.6518
16:06:45:777,0.6102,0.2752,10.8802,40.9381,0.2172,-0.0184,-0.1343,348.812
16:06:45:796,0.993,0.4618,11.1817,42.4909,0.0767,-0.1247,-0.0622,348.912
16:06:45:816,0.7083,0.8566,10.2867,40.5715,0.1964,-0.0856,-0.0598,349.0055
16:06:45:836,0.3326,1.4429,8.6166,41.3393,0.4139,0.0976,-0.05,349.0169
16:06:45:857,0.1842,1.998,7.1569,42.0371,0.5092,0.3188,-0.0097,348.9437
16:06:45:875,0.1244,2.4072,6.3793,42.4541,0.4383,0.4641,0.0062,348.8121
16:06:45:899,-0.0981,2.6752,6.2094,41.5839,0.2587,0.4104,-0.0146,348.7505
16:06:45:916,-0.1244,2.8163,6.4678,40.9942,0.0657,0.1941,-0.0353,348.7619
16:06:45:939,0.055,2.8355,6.8913,40.8781,-0.0516,-0.0172,-0.0549,349.0232
16:06:45:957,-0.2034,2.9097,7.1354,42.4541,-0.0333,-0.1259,-0.1221,349.2231
16:06:45:978,-0.4068,2.9001,7.4824,43.3843,-0.037,-0.1259,-0.1343,349.4484
16:06:46:000,-0.6197,2.9599,7.7599,40.7773,-0.0589,-0.121,-0.1209,349.623
16:06:46:019,-0.5958,3.0437,7.9753,43.4167,-0.0687,-0.1076,-0.0757,349.791
16:06:46:041,-0.5192,3.1418,8.3175,42.1361,-0.0821,-0.0881,-0.0134,349.8671
16:06:46:056,-0.4403,3.1872,9.0353,43.4532,-0.1017,-0.0807,0.0453,349.8743
16:06:46:077,-0.39,3.2686,9.5689,42.242,-0.0418,-0.0746,0.0868,349.8429
16:06:46:097,-0.3876,3.3332,9.6479,42.8281,0.0987,-0.0587,0.11,349.7943
16:06:46:117,-0.2656,3.3356,9.746,42.054,0.1927,-0.0917,0.121,349.7496
16:06:46:136,0.1723,3.0772,9.8919,43.8052,0.1879,-0.1907,0.1284,349.6842
16:06:46:155,0.8758,2.7135,10.3609,42.242,0.0974,-0.2835,0.1174,349.6809
16:06:46:177,1.2251,2.5914,11.5382,40.5819,-0.0577,-0.3239,0.0819,349.7396
16:06:46:199,1.1007,3.0772,12.28,42.5716,-0.0638,-0.1773,0.0379,349.7587
16:06:46:219,0.5288,3.594,10.5978,40.837,0.2269,0.3041,-0.0134,349.7191
16:06:46:235,-0.213,3.6419,9.2937,41.5839,0.3833,0.7598,-0.0769,349.5841
16:06:46:255,-1.3519,3.6036,9.9326,43.7956,0.183,0.8404,-0.1697,349.5593
16:06:46:276,-2.3785,3.649,10.8419,43.0449,0.0241,0.6584,-0.2247,349.6487
16:06:46:295,-3.3165,3.9697,10.3226,45.1305,0.1561,0.4922,-0.2113,349.8153
16:06:46:315,-3.1657,4.0175,9.3129,42.9687,0.2563,0.3407,-0.0732,349.866
16:06:46:335,-2.5053,3.4385,8.875,43.0079,0.0315,0.1685,0.0551,349.799
16:06:46:355,-1.5194,2.467,10.9807,42.5024,-0.4914,-0.0025,0.1113,349.7263
16:06:46:395,-0.9715,1.4429,14.2349,42.5024,-0.9581,-0.2713,0.0648,349.9267
16:06:46:396,-0.7705,0.5456,15.6538,42.5024,-0.9105,-0.5047,-0.0011,350.0476
16:06:46:416,-1.194,0.5073,13.9143,42.5024,-0.3314,-0.3849,0.0111,349.8326
16:06:46:435,-1.151,0.4881,11.6602,42.5024,0.2306,0.0866,0.2139,349.1944
16:06:46:454,-0.1819,1.4213,8.9755,41.4856,0.6582,0.9137,0.7441,348.1408
16:06:46:474,0.3159,1.8497,7.8126,42.2947,0.7853,0.9137,0.8528,346.975
16:06:46:493,0.6126,2.3641,6.5922,44.0812,0.8757,0.717,0.8406,345.8758
16:06:46:516,0.7202,2.7302,5.5537,42.9959,0.8818,0.4446,0.7368,344.9604
16:06:46:534,0.6078,2.9599,4.812,43.7214,0.7718,0.1782,0.5877,344.3044
16:06:46:553,0.402,3.1059,4.7785,42.8408,0.5495,-0.0502,0.4533,343.848
16:06:46:578,0.3183,3.07,5.2666,43.4004,0.2966,-0.2334,0.3556,343.5843
16:06:46:595,0.4498,2.9551,5.8481,42.3026,0.1121,-0.3776,0.286,343.4412
16:06:46:615,0.6676,2.9432,6.5444,42.8408,0.0083,-0.4876,0.2175,343.4082
16:06:46:657,0.7394,2.9384,7.1761,41.4307,-0.0125,-0.5682,0.1235,343.5002
16:06:46:658,0.4355,3.1442,7.1689,42.649,0.0449,-0.6366,-0.017,343.787
16:06:46:673,0.0838,3.3571,7.2957,42.8504,0.0437,-0.6855,-0.1538,344.2297
16:06:46:694,-0.079,3.4959,7.4465,44.8011,-0.065,-0.6843,-0.2528,344.7895
16:06:46:713,0.0311,3.4552,7.9035,43.9692,-0.2568,-0.589,-0.3078,345.3649
16:06:46:734,-0.2871,3.6419,8.8774,42.7349,-0.5207,-0.424,-0.375,345.9376
16:06:46:753,-0.3972,3.7878,9.801,42.4371,-0.7602,-0.1809,-0.4251,346.4827
16:06:46:773,0.6748,2.8977,10.6816,44.1642,-1.0082,0.0512,-0.452,346.935
16:06:46:793,1.8497,1.3663,13.5195,43.9213,-1.4028,-0.0319,-0.6059,347.552
16:06:46:816,1.2778,0.268,17.8026,43.0449,-1.7852,-0.5902,-0.9333,348.6647
16:06:46:834,0.5647,-0.792,19.5135,44.9355,-1.5054,-1.0374,-1.0689,350.0493
16:06:46:854,-0.0574,-0.4594,16.9149,45.3098,-0.4963,-0.8309,-0.8624,351.1689
16:06:46:875,-0.146,0.7298,12.9523,44.2191,0.4139,-0.2212,-0.5485,351.8212
16:06:46:897,1.6104,1.2897,11.7057,43.9736,0.2929,0.3847,0.0343,351.7953
16:06:46:917,1.7372,1.3472,12.0646,44.8048,0.1573,0.2198,0.0245,351.6878
16:06:46:934,0.9356,1.7324,10.2604,44.2105,0.4334,0.144,-0.0744,351.7238
16:06:46:953,0.335,2.2038,7.614,42.3028,0.7706,0.2467,-0.0928,351.7723
16:06:46:974,-0.0718,2.7422,5.7476,42.0649,0.8464,0.4385,-0.0524,351.7312
16:06:46:993,-0.213,3.0054,5.2953,42.9995,0.6411,0.5692,-0.0085,351.5808
16:06:47:013,-0.3517,3.0867,5.7045,40.8006,0.3589,0.4763,-0.017,351.4675
16:06:47:033,-0.6245,3.058,6.2381,44.0866,0.1683,0.166,-0.0732,351.4955
16:06:47:053,-0.8542,3.003,6.2788,42.5305,0.1194,-0.1467,-0.1184,351.6833
16:06:47:075,-0.9308,3.0604,6.3218,43.7919,0.1268,-0.275,-0.1025,351.8997
16:06:47:094,-0.8207,3.015,6.7023,44.0866,0.0962,-0.2897,-0.0573,352.0507
16:06:47:114,-0.6197,2.9767,7.4776,42.3644,0.0473,-0.2506,-0.0134,352.1505
16:06:47:134,-0.4331,3.0676,8.1452,42.1011,0.0437,-0.187,0.0208,352.2082
16:06:47:154,-0.2177,3.2997,8.6788,42.4233,0.0865,-0.1479,0.0514,352.2081
16:06:47:176,0.122,3.4983,9.198,43.0296,0.1463,-0.1626,0.0795,352.1784
16:06:47:195,0.6413,3.5175,9.478,44.3726,0.2282,-0.2005,0.0831,352.1401
16:06:47:218,1.0026,3.5079,9.9326,42.4824,0.2758,-0.2603,0.0343,352.175
16:06:47:236,1.0792,3.5988,10.5691,42.4046,0.3027,-0.3544,-0.0598,352.337
16:06:47:254,1.3137,3.5246,10.8371,43.3118,0.3369,-0.4656,-0.1502,352.6339
16:06:47:276,1.7515,3.1896,11.2271,42.3352,0.3174,-0.5829,-0.2211,353.0396
16:06:47:296,1.864,3.003,11.9952,42.0235,0.2428,-0.6549,-0.2944,353.5475
16:06:47:315,1.4907,2.9503,11.3204,41.6944,0.3088,-0.4729,-0.3676,354.0652
16:06:47:335,0.347,3.0867,9.801,42.4673,0.4383,0.0695,-0.4092,354.4462
16:06:47:358,-1.9693,3.204,9.4397,43.1496,0.2648,1.0176,-0.1942,354.4218
16:06:47:378,-2.6345,3.795,8.6883,41.518,0.3454,1.1129,0.0086,354.0156
16:06:47:396,-2.522,4.4841,7.456,42.3987,0.4444,0.9663,0.2163,353.4678
16:06:47:416,-1.4812,4.4554,7.1713,43.3556,0.2282,0.5154,0.3519,352.9211
16:06:47:434,-0.1436,3.8572,9.0018,41.9022,-0.2972,-0.121,0.3067,352.6525
16:06:47:458,0.7155,2.3617,12.2632,44.9477,-0.8372,-0.7466,0.0893,352.8344
16:06:47:475,0.2153,1.4524,14.5292,43.0779,-0.9728,-1.1449,-0.1795,353.4238
16:06:47:493,-0.2919,1.1653,13.8233,43.0779,-0.5525,-1.0508,-0.2161,354.0109
16:06:47:514,-0.6652,1.6343,11.3707,44.9908,0.0547,-0.4204,0.0147,354.1341
16:06:47:533,0.0024,2.144,9.6,42.6262,0.3833,0.3872,0.3922,353.5728
16:06:47:555,0.8973,2.5077,8.3605,41.2254,0.4297,0.8746,0.6647,352.5381
16:06:47:574,1.5099,2.747,7.7193,42.7122,0.3711,0.987,0.7209,351.3641
16:06:47:595,1.7061,2.9336,7.2407,40.9777,0.3454,0.8441,0.617,350.3552
16:06:47:614,1.6295,3.0006,6.5539,42.702,0.3687,0.5081,0.424,349.6479
16:06:47:634,1.4261,3.0508,5.793,43.2518,0.3894,0.1245,0.2273,349.3114
16:06:47:659,1.0744,3.0724,5.2188,43.5046,0.3491,-0.1687,0.0551,349.3002
16:06:47:675,0.7513,3.1442,4.934,43.4402,0.2355,-0.3068,-0.0549,349.4521
16:06:47:694,0.8112,3.1274,5.3934,42.7652,0.062,-0.3532,-0.1038,349.6918
16:06:47:716,0.9284,3.0532,5.9007,44.5075,-0.0846,-0.3984,-0.1551,349.976
16:06:47:734,0.938,3.2136,6.8172,43.0163,-0.1603,-0.5157,-0.2455,350.4088
16:06:47:757,0.8159,3.4696,8.1428,42.1892,-0.1945,-0.804,-0.3713,351.092
16:06:47:778,0.3996,3.9003,8.004,43.8694,-0.1017,-1.1388,-0.5167,352.059
16:06:47:794,0.5934,4.1707,7.6786,42.6563,-0.0797,-1.289,-0.6034,353.1767
16:06:47:815,1.3974,3.2447,10.3777,43.1303,-0.8201,-0.9689,-0.7097,354.3191
16:06:47:833,0.8614,3.0341,12.5264,43.4948,-1.0705,-0.4961,-0.7647,356.3704
16:06:47:857,0.3589,3.3811,13.0146,42.7741,-0.9557,0.0512,-0.7501,357.1216
16:06:47:882,0.5695,3.4169,12.5121,44.1864,-0.7467,0.4458,-0.711,357.7061
16:06:47:898,1.663,2.668,12.725,44.2687,-0.7565,0.5106,-0.7354,358.2761
16:06:47:912,2.0937,1.5529,14.6345,42.1124,-0.9654,0.2931,-0.8893,359.0712
16:06:47:933,0.8112,0.6078,16.1611,44.5334,-1.073,-0.0355,-1.1398,0.2689
16:06:47:956,-1.1246,0.3876,16.1587,43.1329,-0.7626,0.0451,-1.1984,1.5497
16:06:47:973,-1.7898,0.7681,14.321,44.9986,-0.1225,0.3933,-0.8612,2.3715
16:06:47:993,-1.1294,1.5601,11.4712,42.6165,0.4505,0.4079,-0.3518,2.6353
16:06:48:014,0.3541,2.3186,9.7771,43.6254,0.6093,0.1734,0.0343,2.5151
16:06:48:033,1.3376,2.8786,8.9444,42.2871,0.5092,-0.104,0.1797,2.2818
16:06:48:055,1.6104,2.9886,8.2863,44.1373,0.3919,-0.2713,0.1125,2.1872
16:06:48:073,1.1988,3.1059,7.4154,45.4697,0.3454,-0.286,-0.0622,2.2906
16:06:48:095,0.2082,3.0844,6.5874,43.2567,0.2929,-0.1443,-0.2247,2.5414
16:06:48:113,-0.6341,3.2949,6.6808,43.7073,0.2269,0.0536,-0.2944,2.8025
16:06:48:133,-0.8782,3.4169,5.9438,42.2871,0.2355,0.0414,-0.287,3.0605
16:06:48:153,-0.8088,3.4241,6.8076,44.2401,0.2709,0.1391,-0.276,3.2946
16:06:48:176,-1.0409,3.4983,7.0181,43.1875,0.5226,0.3652,-0.2711,3.442
16:06:48:193,-1.1342,3.5653,6.4128,42.8703,0.7621,0.2051,-0.2125,3.5787
16:06:48:216,-1.5075,3.6993,5.5729,43.5088,0.8402,0.0793,-0.127,3.668
16:06:48:243,-1.6989,3.9362,4.8287,42.574,0.7963,0.2515,0.0208,3.5475
16:06:48:259,-1.4381,4.331,5.3504,44.4243,0.6326,0.6291,0.231,3.0488
16:06:48:276,-1.1964,4.611,7.4584,43.4921,0.3198,0.3627,0.5169,1.6678
16:06:48:294,-1.206,4.544,8.6572,42.9813,0.3907,-0.0905,0.5535,1.1143
16:06:48:314,-1.06,4.5009,9.399,43.8909,0.5397,-0.4693,0.5486,0.7457
16:06:48:334,-0.859,4.6445,9.1358,44.0798,0.7254,-0.5377,0.523,0.4464
16:06:48:357,-0.0526,5.1039,8.6285,44.2288,0.7718,-0.2994,0.5071,0.0513
16:06:48:374,0.39,5.1517,10.7821,45.5727,0.4578,-0.0746,0.4081,359.6627
16:06:48:394,0.2728,4.9579,12.5671,46.0198,0.1573,-0.038,0.3018,359.3613
16:06:48:414,0.4355,4.8311,12.2704,44.0178,0.1646,0.2821,0.3031,358.9044
16:06:48:434,0.3996,4.8455,11.3468,45.0328,0.2954,0.965,0.3287,358.1051
16:06:48:456,-0.28,4.5583,11.4568,45.5561,0.2184,1.4158,0.2994,357.1162
16:06:48:477,-1.3998,4.5224,11.5645,46.7403,0.161,1.5234,0.2518,356.1352
16:06:48:493,-2.12,4.7641,11.062,44.4755,0.3284,1.4427,0.2469,355.2137
16:06:48:513,-2.4144,5.3456,10.2533,44.6911,0.525,1.1605,0.2713,354.3895
16:06:48:535,-2.132,5.1996,9.5785,47.3687,0.5507,0.7989,0.2811,353.7126
16:06:48:554,-1.9023,4.3765,9.8728,46.2841,0.3161,0.4825,0.2554,353.2101
16:06:48:576,-1.7037,3.539,10.7055,46.8173,0.0657,0.4739,0.2811,352.6836
16:06:48:594,-1.4788,3.0485,11.8349,47.1077,-0.0699,0.6926,0.3996,351.9393
16:06:48:614,-1.0504,2.8427,11.6602,47.3325,-0.0088,0.8612,0.5511,350.9438
16:06:48:638,-0.0335,3.0341,10.3346,47.7699,0.2196,0.9394,0.6867,349.7679
16:06:48:658,0.7298,3.5007,9.1837,46.9803,0.3809,0.8392,0.7209,348.5939
16:06:48:775,1.0983,3.6012,8.6716,49.5408,0.42,0.6193,0.6574,347.5757
16:06:48:776,1.5506,3.4959,7.87,47.7718,0.4688,0.5032,0.5963,346.679
16:06:48:776,1.5721,3.5964,6.9153,47.3086,0.5703,0.5741,0.5401,345.7976
16:06:48:777,1.7515,3.9721,4.6899,46.0053,0.6826,0.7305,0.4081,344.8951
16:06:48:777,1.3113,3.8118,3.9434,46.1751,0.5959,0.662,0.2627,343.3328
16:06:48:778,0.7107,3.6538,3.4672,46.7335,0.4432,0.4984,0.1271,342.8658
16:06:48:793,0.2632,3.7376,3.5127,45.0884,0.2526,0.3566,0.0441,342.5678
16:06:48:813,-0.1005,3.7831,3.5127,47.4519,0.0755,0.2247,0.0062,342.4051
16:06:48:840,-0.4905,4.0702,3.7208,44.4467,-0.1017,0.0317,-0.0158,342.3946
16:06:48:855,-0.9117,4.4124,4.0104,47.2301,-0.2556,-0.0966,-0.028,342.4649
16:06:48:873,-1.4907,4.7426,4.2114,45.793,-0.4022,-0.1223,-0.0353,342.5706
16:06:48:893,-1.5482,5.135,4.7785,45.0006,-0.5977,-0.1027,0.0037,342.6197
16:06:48:913,-0.6843,4.7067,6.0993,45.4208,-0.8824,-0.0612,0.0282,342.61
16:06:48:935,-1.194,4.7162,7.9322,48.1234,-1.222,-0.0869,-0.1233,342.7768
16:06:48:953,-2.5723,4.9507,9.99,45.9494,-1.4615,-0.0685,-0.3518,343.1588
16:06:48:973,-3.1154,5.1541,11.8804,48.9404,-1.5567,-0.1699,-0.4446,343.6986
16:06:48:993,-2.9336,5.0058,14.6536,48.3709,-1.6362,-0.7307,-0.4935,344.5621
16:06:49:013,-2.2636,4.0032,17.8241,48.0723,-1.6288,-1.6213,-0.5485,345.8406
16:06:49:035,-1.7922,3.0197,20.1715,46.1168,-1.321,-2.4093,-0.5521,347.4128
16:06:49:053,-0.8686,2.2612,18.3171,45.8721,-0.6185,-2.5327,-0.3762,348.7971
16:06:49:074,-0.3302,3.3499,14.3641,44.6971,0.1598,-1.6104,-0.0952,349.5163
16:06:49:094,0.725,4.0367,11.799,47.0046,0.4566,-0.435,0.165,349.4772
16:06:49:113,1.5506,4.2257,11.0118,48.527,0.3027,0.0829,0.2224,349.1692
16:06:49:133,1.3137,4.0845,10.3442,46.3812,0.1805,0.199,0.0367,349.0149
16:06:49:157,0.5336,4.0247,8.5161,46.0496,0.2318,0.1428,-0.1905,349.1226
16:06:49:175,-0.0766,4.0678,6.8195,46.647,0.2648,0.1477,-0.3176,349.6289
16:06:49:194,-0.6174,3.716,5.19,46.7468,-0.0528,0.3175,-0.3518,349.8609
16:06:49:218,-0.9117,3.4169,5.4102,45.4083,-0.2544,0.3969,-0.3163,350.0282
16:06:49:237,-0.8638,3.2279,5.5442,46.1639,-0.2984,0.4397,-0.2161,350.0548
16:06:49:253,-1.0361,3.3763,5.2379,45.4083,-0.1664,0.4165,-0.1245,350.0263
16:06:49:274,-1.2873,3.7208,5.1182,47.4804,-0.0113,0.2882,-0.0732,349.9841
16:06:49:292,-1.2969,3.9218,5.2211,45.1525,0.0693,0.0793,-0.0305,349.9893
16:06:49:315,-1.1629,4.0032,5.7906,46.566,0.0779,-0.0905,0.0159,349.9965
16:06:49:336,-1.2443,4.0295,6.463,45.8128,0.0645,-0.2347,0.0331,350.0702
16:06:49:352,-1.2156,3.9266,7.2861,44.9326,0.0302,-0.3275,0.0428,350.1823
16:06:49:373,-1.1605,3.74,8.54,46.7053,-0.0113,-0.3239,0.0624,350.2605
16:06:49:393,-1.2921,3.5677,9.6479,46.0676,0.0107,-0.3006,0.088,350.2919
16:06:49:415,-1.6606,3.6419,10.4566,46.64,0.139,-0.264,0.1345,350.2788
16:06:49:433,-1.7922,3.9577,10.7222,47.1077,0.3149,-0.2933,0.2285,350.1874
16:06:49:454,-1.1725,4.2951,11.0405,44.2995,0.4346,-0.4289,0.3531,350.0198
16:06:49:473,-0.6437,4.8455,11.6172,45.7304,0.3882,-0.705,0.4167,349.9084
16:06:49:493,-0.1268,5.1541,11.3276,45.8462,0.299,-0.7637,0.4093,349.829
16:06:49:517,0.5121,4.8287,11.6626,45.8513,0.1219,-0.5474,0.3715,349.6934
16:06:49:534,0.4187,3.8764,12.6078,43.9763,-0.1579,-0.3984,0.2762,349.591
16:06:49:553,-0.6604,3.7113,11.8229,44.4904,-0.1628,-0.06,0.2114,349.4187
16:06:49:573,-1.9047,4.3143,8.9803,45.9335,0.1109,0.7525,0.3275,348.7976
16:06:49:593,-2.455,5.2834,7.1976,47.0452,0.1634,1.5002,0.4912,347.6744
16:06:49:617,-2.1392,5.3384,8.016,46.6905,-0.2226,1.4989,0.6012,345.5292
16:06:49:635,-1.407,3.5198,13.3472,45.5576,-0.6686,0.8661,0.5327,345.2089
16:06:49:653,-1.1844,3.1178,12.3517,47.9819,-0.3008,-0.7539,0.3079,345.2162
16:06:49:673,-0.6317,2.9934,10.2676,43.9305,0.0302,-0.8211,0.3996,345.1561
16:06:49:693,0.3159,2.8762,9.454,46.9065,0.0107,-0.3581,0.5718,344.6994
16:06:49:717,1.1629,2.6991,9.2028,44.2777,-0.1273,0.3224,0.7062,343.8253
16:06:49:734,1.6558,2.7135,8.4897,46.2818,-0.1286,0.8698,0.738,342.6771
16:06:49:752,1.8664,2.7781,7.535,45.7156,-0.0113,1.1031,0.6781,341.5012
16:06:49:772,1.931,2.8905,6.6688,47.0797,0.1243,1.053,0.5523,340.4845
16:06:49:794,1.9143,2.8522,6.1232,45.5414,0.2037,0.8136,0.3873,339.7275
16:06:49:818,1.6463,2.7781,6.0682,46.2995,0.2257,0.5118,0.1968,339.2898
16:06:49:836,1.4381,2.6465,6.2788,45.7744,0.2563,0.2173,0.0477,339.1272
16:06:49:854,1.2299,2.5651,6.3817,47.6369,0.3332,-0.0539,-0.0806,339.2191
16:06:49:872,0.9834,2.6728,6.0467,45.9274,0.4273,-0.3202,-0.1905,339.5362
16:06:49:893,0.9834,2.9073,5.6638,45.846,0.4481,-0.5291,-0.276,340.0499
16:06:49:919,1.1533,3.0652,5.9892,43.7813,0.3528,-0.6635,-0.3603,340.7003
16:06:49:936,1.1677,3.1394,6.8794,44.4394,0.1989,-0.8126,-0.4862,341.5344
16:06:49:957,0.9404,3.1154,7.4178,43.1071,0.0645,-1.0459,-0.6474,342.6501
16:06:49:986,0.938,3.2016,7.5494,42.1018,-0.0772,-1.2621,-0.7928,344.0103
16:06:49:998,0.9547,3.283,7.2933,42.9631,-0.3301,-1.2597,-0.8954,345.4772
16:06:50:018,0.8016,3.5175,8.327,43.7181,-0.7382,-0.8639,-0.9406,346.8159
16:06:50:033,0.9284,3.3523,9.947,43.9542,-1.1927,-0.3495,-0.9529,347.9109
16:06:50:051,1.1151,2.8881,11.7272,43.4467,-1.5567,-0.0856,-1.0323,348.9726
16:06:50:072,0.8758,2.12,14.6728,43.2717,-1.8683,-0.2652,-1.2302,350.3293
16:06:50:093,-0.1316,0.8542,18.1855,45.1857,-1.9636,-0.644,-1.4415,352.0514
16:06:50:113,-2.1583,0.4618,17.9629,43.9239,-0.704,-0.9066,-1.0762,353.9058
16:06:50:135,-0.8997,1.0792,14.8499,42.1678,0.0962,-0.6049,-0.4532,356.0115
16:06:50:155,0.7849,1.9143,12.2824,43.924,0.5153,-0.308,0.0587,356.016
16:06:50:174,1.6702,2.7087,9.5545,43.0265,0.701,-0.0869,0.2249,355.7773
16:06:50:200,1.6654,3.393,7.078,41.6527,0.6924,0.0817,0.1113,355.6014
16:06:50:218,1.0624,3.5749,5.7619,42.6125,0.4652,0.2247,-0.1233,355.643
16:06:50:238,0.1723,3.4529,5.5107,43.1656,0.15,0.3395,-0.342,355.8961
16:06:50:254,-0.5575,3.1944,6.1615,41.7667,-0.0919,0.3603,-0.4568,356.2756
16:06:50:276,-1.1605,2.9336,6.6209,42.7645,-0.1505,0.2345,-0.4764,356.7323
16:06:50:295,-1.3567,3.0556,6.3027,42.6818,-0.0223,0.0695,-0.4031,357.158
16:06:50:313,-1.2873,3.3356,5.4437,41.2945,0.1145,-0.0478,-0.2882,357.5161
