Time,Acc_X,Acc_Y,Acc_Z,Meg,Gyr_X,Gyr_Y,Gyr_Z,Ore
14:12:25:984,1.9621,2.8522,7.5829,26.9574,-0.5206,-0.4689,-0.1991,4.8669
14:12:26:008,1.9621,2.8522,7.5829,34.4732,-0.5071,-0.1842,-0.0158,185.1944
14:12:26:024,1.9621,2.8522,7.5829,34.2841,-0.5071,-0.1842,-0.0158,185.3413
14:12:26:037,1.5721,2.3857,8.3198,34.3448,-0.5071,-0.1842,-0.0158,184.9921
14:12:26:057,1.261,2.3258,8.8487,34.278,-0.4668,-0.288,-0.8099,185.7559
14:12:26:077,1.1773,2.3976,9.0209,34.278,-0.501,-0.2819,-0.8319,186.6422
14:12:26:098,1.0863,2.6034,9.1908,32.9717,-0.4742,-0.2013,-0.7977,187.528
14:12:26:119,0.9978,2.6871,9.198,34.434,-0.4277,-0.1158,-0.7391,188.3413
14:12:26:137,1.1103,2.6393,9.1956,35.6717,-0.3654,-0.1231,-0.6975,189.0939
14:12:26:158,1.2275,2.5699,9.2722,34.2426,-0.2762,-0.1866,-0.6963,189.9078
14:12:26:177,1.2251,2.5101,9.4636,34.5867,-0.1773,-0.2343,-0.7244,190.7488
14:12:26:197,1.0768,2.5962,9.545,34.7314,-0.1064,-0.2453,-0.7427,191.6341
14:12:26:227,0.8255,2.7278,9.5641,34.3513,-0.082,-0.1952,-0.7195,192.3981
14:12:26:238,0.6628,2.8666,9.6574,36.1319,-0.0893,-0.1463,-0.6645,193.183
14:12:26:257,0.7131,2.9503,9.8824,35.4872,-0.0966,-0.1292,-0.6022,193.8549
14:12:26:278,0.7537,2.9958,10.4064,35.3538,-0.0881,-0.161,-0.5546,194.4926
14:12:26:299,0.6748,3.0365,10.9472,35.7678,-0.0539,-0.1622,-0.5375,195.0763
14:12:26:331,0.5767,2.8403,11.4784,34.9948,0.0182,-0.1121,-0.5497,195.6619
14:12:26:337,0.4451,2.4072,11.7105,35.7854,0.1147,-0.084,-0.5912,196.2621
14:12:26:371,-0.0263,2.0076,11.6459,36.4189,0.2503,-0.029,-0.6328,196.8792
14:12:26:381,-0.871,2.2134,10.8993,35.4429,0.4128,0.1347,-0.6242,197.4328
14:12:26:399,-0.9643,2.3139,10.1719,34.3948,0.524,0.2971,-0.5314,197.8476
14:12:26:420,-0.2058,1.6774,9.9805,37.7165,0.4837,0.2275,-0.4434,198.2281
14:12:26:439,-0.0168,1.127,10.9759,38.1649,0.2833,-0.0974,-0.5118,199.6524
14:12:26:462,-2.6321,1.2132,11.5023,39.3521,-0.1443,-0.2856,-0.8026,200.5429
14:12:26:478,-3.5198,1.4501,10.1121,35.3368,-0.0954,0.2238,-0.5387,201.0443
14:12:26:497,-3.2901,1.9573,8.9204,35.5632,0.0732,0.6283,-0.0243,200.8812
14:12:26:529,-2.4598,2.6369,8.1691,34.9539,0.2271,0.6197,0.4265,200.2617
14:12:26:546,-1.4046,3.1585,7.87,34.3064,0.3297,0.3705,0.628,199.4849
14:12:26:558,-1.0504,3.3236,7.7982,34.4895,0.3786,0.1958,0.5413,198.8514
14:12:26:578,-1.0385,3.0197,7.5541,34.4895,0.3517,0.1298,0.2554,198.5473
14:12:26:598,-1.3232,2.3904,7.4919,34.8943,0.2332,0.0675,-0.0451,198.5823
14:12:26:641,-1.7252,1.9167,7.6666,33.6853,0.039,-0.0009,-0.2247,198.8389
14:12:26:642,-2.0698,1.7037,7.9442,35.148,-0.1687,-0.029,-0.2345,199.0925
14:12:26:660,-2.2804,1.663,8.1332,35.0146,-0.3422,0.0272,-0.1221,199.252
14:12:26:677,-2.3689,1.8161,8.3605,34.7192,-0.4521,0.1713,0.049,199.128
14:12:26:698,-2.3402,1.8425,8.272,33.7771,-0.4974,0.3228,0.242,198.763
14:12:26:732,-2.3115,1.986,8.1069,34.1917,-0.479,0.3973,0.4179,198.1994
14:12:26:739,-2.1057,2.1799,7.7408,34.5073,-0.4167,0.3485,0.545,197.4924
14:12:26:762,-2.0148,2.3785,7.2598,34.365,-0.3239,0.302,0.6195,196.6946
14:12:26:788,-1.9023,2.5771,6.8866,34.6617,-0.242,0.2874,0.6537,195.9089
14:12:26:810,-1.7228,2.5555,6.7502,32.8418,-0.209,0.2214,0.6488,195.1391
14:12:26:826,-1.6965,2.546,7.0253,33.2626,-0.2347,0.0943,0.6048,194.4542
14:12:26:841,-1.5721,2.2804,7.2694,34.4707,-0.2823,-0.0278,0.5621,193.8732
14:12:26:858,-1.4836,2.0028,7.8197,33.2975,-0.341,-0.1207,0.534,193.3117
14:12:26:879,-1.206,1.8305,8.6883,34.3596,-0.4216,-0.2612,0.5157,192.8249
14:12:26:898,-0.4786,1.3663,9.7627,34.0155,-0.5059,-0.442,0.523,192.4072
14:12:26:924,0.6963,0.682,12.0191,32.5219,-0.6476,-0.7303,0.4912,192.0307
14:12:26:942,0.8231,0.737,12.7633,33.6349,-0.7148,-0.7095,0.468,191.3367
14:12:26:963,1.4405,0.4786,13.2395,34.0272,-0.7613,-0.5519,0.5499,190.8739
14:12:26:991,2.5675,0.2297,13.7707,34.8967,-0.8138,-0.4811,0.6696,190.2294
14:12:26:999,3.6156,0.4187,14.3163,33.3123,-0.903,-0.5727,0.6903,189.5865
14:12:27:021,4.0582,0.6126,14.589,33.0532,-0.9641,-0.5287,0.6195,189.0015
14:12:27:041,3.661,0.7155,14.668,30.7769,-0.9286,-0.2306,0.5047,188.4831
14:12:27:059,2.9551,0.8447,14.4957,32.3114,-0.7759,0.0443,0.3629,188.1248
14:12:27:079,3.0891,0.3326,12.9452,33.0682,-0.4497,0.1347,0.2652,187.8445
14:12:27:099,3.2566,0.0646,11.2822,31.766,0.0206,0.2654,0.253,187.582
14:12:27:123,3.326,0.1125,9.7101,32.8928,0.4837,0.3521,0.2359,187.3384
14:12:27:139,3.2686,0.3374,8.1619,33.5227,0.8196,0.3411,0.1406,187.1755
14:12:27:160,2.9719,0.5121,6.7573,33.3719,0.9711,0.3265,-0.0537,187.209
14:12:27:177,2.4909,0.5886,5.75,31.5689,0.9272,0.3472,-0.3139,187.4993
14:12:27:199,2.0076,0.5073,5.1709,31.6417,0.728,0.3082,-0.5827,188.0883
14:12:27:221,1.5194,0.4522,5.0584,34.3596,0.4238,0.1432,-0.8123,188.9608
14:12:27:240,1.1414,0.4331,5.4317,32.9754,0.0915,-0.0645,-0.9712,190.0176
14:12:27:258,0.9093,0.3111,6.0108,32.119,-0.2029,-0.1988,-1.0616,191.1985
14:12:27:285,0.8159,0.1723,6.6736,33.2063,-0.4082,-0.216,-1.1153,192.4686
14:12:27:297,0.5958,0.1603,7.1521,32.499,-0.512,-0.1585,-1.1459,193.731
14:12:27:318,0.1579,0.2417,7.6499,32.101,-0.5389,-0.0889,-1.1434,194.9726
14:12:27:336,-0.0838,0.1795,8.1189,31.8781,-0.5132,-0.1158,-1.1031,196.1792
14:12:27:356,-0.2034,0.0646,8.6477,33.93,-0.4558,-0.2233,-1.053,197.3185
14:12:27:377,-0.2393,0.1244,10.0642,32.6595,-0.3874,-0.4908,-1.0017,198.431
14:12:27:396,-0.3829,0.4642,10.727,33.1307,-0.3801,-0.5348,-0.9419,199.5624
14:12:27:417,-0.591,0.5551,10.8036,32.6595,-0.3752,-0.4261,-0.816,201.507
14:12:27:439,-0.5216,1.5625,11.3563,33.0897,-0.4436,-0.2013,-0.6169,202.1732
14:12:27:460,-0.2058,2.2349,11.9809,33.8693,-0.4925,-0.1145,-0.3029,202.5047
14:12:27:479,0.3829,2.01,13.1103,32.4063,-0.4204,-0.0278,-0.072,202.5731
14:12:27:497,0.6365,1.9047,13.8712,33.4755,-0.3226,-0.0254,-0.0891,202.6643
14:12:27:520,0.2058,1.8592,14.0124,34.3131,-0.1992,-0.117,-0.2235,202.8892
14:12:27:539,-0.5527,1.6941,13.8162,33.1596,0.0121,-0.1317,-0.2834,203.1737
14:12:27:557,-1.2395,1.3591,12.8351,33.8694,0.3102,-0.0046,-0.2198,203.3927
14:12:27:578,-1.7444,1.34,12.2249,33.5296,0.5948,0.2373,-0.0769,203.4353
14:12:27:598,-1.3495,1.1103,12.2895,33.4167,0.7207,0.1591,0.088,203.2887
14:12:27:621,-0.5264,0.4905,12.6508,34.7535,0.6816,-0.3198,0.1662,203.1178
14:12:27:638,-0.4786,0.3374,12.6772,32.8001,0.5985,-0.6998,0.1161,203.0352
14:12:27:659,-1.1342,0.5145,11.4784,34.0359,0.6193,-0.4982,0.1223,202.9154
14:12:27:677,-1.9813,0.1603,9.9278,33.2581,0.7573,0.1958,0.3336,202.4788
14:12:27:697,-2.321,-0.0574,9.0568,32.0223,0.8367,0.8396,0.6708,201.5873
14:12:27:723,-2.0865,0.2823,8.741,34.3811,0.7366,1.0119,1.0166,200.3041
14:12:27:741,-1.2251,0.6341,8.6955,32.8957,0.546,0.8433,1.3195,198.6996
14:12:27:760,-0.3613,0.6413,9.0162,31.9746,0.3566,0.6942,1.4796,196.9554
14:12:27:778,-0.1436,0.3948,9.3918,34.4857,0.1868,0.5855,1.4234,195.2868
14:12:27:796,-0.2153,0.3589,9.6837,33.0604,0.0182,0.4047,1.2035,193.8839
14:12:27:818,-0.1651,0.3087,9.5665,33.658,-0.1223,0.1982,0.9787,192.7649
14:12:27:839,0.0479,0.2919,8.5448,32.2882,-0.115,0.3033,0.8382,190.8278
14:12:27:858,-0.1866,0.4642,8.2313,33.0869,-0.0014,0.5122,0.8919,189.7645
14:12:27:878,-0.3637,0.792,8.1835,35.4248,0.1232,0.5831,0.9579,188.6358
14:12:27:898,-0.3541,1.0624,7.6762,33.4188,0.2467,0.5,1.0129,187.423
14:12:27:922,-0.0718,1.194,7.1306,32.7825,0.3639,0.4841,1.0825,186.1419
14:12:28:081,0.0885,1.3687,7.0708,33.3523,0.4324,0.5708,1.1167,184.8029
14:12:28:081,0.2393,1.5625,7.255,33.3184,0.4311,0.5476,1.0776,183.5111
14:12:28:093,0.2871,1.7659,7.4321,34.7616,0.3835,0.412,0.9933,182.3347
14:12:28:093,0.3302,1.8042,7.4225,33.335,0.3346,0.2984,0.8968,181.2802
14:12:28:094,0.3924,1.7922,7.7575,34.0384,0.2992,0.2813,0.7966,180.3458
14:12:28:094,0.3852,1.7348,8.2744,34.0628,0.2406,0.2666,0.6549,179.5896
14:12:28:095,0.8351,1.3543,8.8846,31.9657,0.1355,0.1444,0.4766,179.0739
14:12:28:095,1.2491,0.8519,9.5474,34.6653,-0.0356,-0.0901,0.2738,178.8217
14:12:28:109,1.3831,0.5527,10.2173,32.6612,-0.264,-0.398,0.0538,178.8759
14:12:28:122,1.2347,0.4044,10.5595,32.6618,-0.5047,-0.5825,-0.1208,179.1379
14:12:28:139,1.3591,0.2417,10.9065,33.3184,-0.6989,-0.5079,-0.1416,179.4061
14:12:28:158,1.8951,0.079,11.4903,33.3373,-0.8456,-0.3308,-0.0439,179.5266
14:12:28:177,2.3402,-0.1268,12.0814,32.682,-0.9702,-0.3283,0.0233,179.5598
14:12:28:197,2.2397,-0.3039,12.3302,33.5386,-1.0581,-0.5055,-0.0011,179.6417
14:12:28:224,1.785,-0.3206,11.9785,32.1234,-1.0202,-0.6814,-0.0072,179.7288
14:12:28:240,1.6582,-0.3015,10.9831,34.8431,-0.7869,-0.6704,0.1137,179.668
14:12:28:257,2.1033,-0.1723,10.1288,34.9096,-0.4448,-0.5067,0.3043,179.37
14:12:28:278,2.8618,0.1053,9.6503,34.9894,-0.1553,-0.4432,0.4142,178.9487
14:12:28:298,3.6323,0.7418,9.7173,34.3206,-0.0441,-0.7767,0.1003,178.5984
14:12:28:320,3.3093,0.3852,9.3775,33.4981,-0.2127,-0.8622,-0.3029,178.9517
14:12:28:340,2.6393,-0.0526,9.0066,33.5921,-0.4326,-0.7657,-0.6951,179.769
14:12:28:359,1.6463,-0.3302,8.7697,33.5674,-0.6098,-0.5104,-0.9333,180.8057
14:12:28:379,0.6508,-0.5264,8.662,33.5674,-0.7026,-0.1769,-1.0054,181.9108
14:12:28:398,-0.2847,-0.3517,8.5615,34.3685,-0.6928,0.0577,-0.9687,182.9566
14:12:28:419,-0.6652,-0.1412,8.2146,35.0513,-0.5817,0.1554,-0.8417,183.8714
14:12:28:440,-0.7418,0.0407,7.736,35.6987,-0.4045,0.2752,-0.6853,184.6272
14:12:28:458,-0.8375,0.3589,7.7073,34.2932,-0.264,0.4804,-0.5643,185.2314
14:12:28:478,-0.8183,0.8064,7.9202,35.1579,-0.242,0.616,-0.4593,185.7325
14:12:28:497,-0.8471,1.2084,8.5304,34.6473,-0.3654,0.6331,-0.3579,186.1231
14:12:28:521,-0.6987,1.1557,9.4182,37.0872,-0.5609,0.5049,-0.2638,186.4166
14:12:28:544,-0.6126,1.017,10.6409,38.4899,-0.7014,0.2471,-0.188,186.6288
14:12:28:559,-0.7298,0.6389,11.7727,37.6694,-0.6806,0.0003,-0.1343,186.7727
14:12:28:577,-0.8351,0.2177,12.6891,38.2807,-0.4546,-0.1023,-0.0622,186.8615
14:12:28:597,-0.4259,-0.3039,13.1174,38.3355,-0.0612,-0.1317,0.0648,186.7922
14:12:28:620,0.1005,-0.5599,13.0959,35.0636,0.3786,-0.0803,0.2078,186.5347
14:12:28:639,0.603,-0.414,12.7202,36.5653,0.7402,0.0943,0.3666,186.1201
14:12:28:656,0.8064,-0.1316,12.536,35.2155,0.9516,0.3436,0.5425,185.525
14:12:28:677,1.2825,-0.0574,12.4523,35.7025,1.0078,0.4022,0.6684,184.7722
14:12:28:697,1.9214,-0.2536,11.7751,35.1592,1.0053,0.219,0.6806,184.01
14:12:28:719,1.9023,-0.0981,10.9376,35.7049,0.998,0.2324,0.5743,183.346
14:12:28:739,1.5625,0,10.6289,35.6987,0.9552,0.5305,0.4252,182.8335
14:12:28:759,-0.012,-0.1436,11.1482,36.5213,0.5863,0.219,0.0526,182.4157
14:12:28:777,-0.3159,-0.189,10.6505,37.8276,0.4372,-0.2624,-0.0928,182.5133
14:12:28:797,-0.4905,-0.5695,8.9898,35.6149,0.5606,-0.3858,-0.1172,182.6574
14:12:28:819,-1.1725,-1.1773,6.9727,36.9546,0.8245,0.0565,-0.0365,182.6699
14:12:28:837,-2.2875,0.0191,6.7717,36.39,0.8013,0.7651,0.2786,182.2392
14:12:28:856,-2.7374,0.536,5.8241,37.0784,0.8331,0.7871,0.7734,181.2505
14:12:28:877,-1.8903,0.4451,6.4534,37.7122,0.6865,0.6515,1.2255,179.7651
14:12:28:898,-1.6941,0.7394,7.1378,37.2399,0.1966,0.1567,1.2047,178.4079
14:12:28:919,-1.4022,0.8734,8.4921,36.5664,-0.3801,-0.6154,0.9542,177.4487
14:12:28:936,-1.1821,0.1149,10.1575,36.4838,-0.8517,-0.9795,0.6965,176.8199
14:12:28:956,-1.2802,-0.6915,11.8397,38.2538,-1.0435,-0.9978,0.5266,176.3705
14:12:28:977,-1.785,-1.2634,12.603,37.0318,-0.9262,-0.8341,0.4656,175.9238
14:12:28:997,-2.4526,-1.4333,12.5049,37.3882,-0.5352,-0.4456,0.5657,175.3068
14:12:29:022,-2.7876,-1.3448,11.5956,36.2686,-0.0185,-0.0266,0.8455,174.3372
14:12:29:038,-2.5675,-0.9787,10.27,36.2165,0.4091,0.2336,1.2084,172.9601
14:12:29:059,-1.9741,-0.5767,9.3081,37.2359,0.618,0.3558,1.5285,171.2136
14:12:29:077,-1.2347,-0.1986,8.7817,34.263,0.6046,0.3888,1.7081,169.257
14:12:29:097,-0.7489,0.1029,8.8343,36.0207,0.4397,0.3619,1.7337,167.2911
14:12:29:119,-0.4451,0.1436,9.2195,34.8758,0.232,0.2923,1.6396,165.4418
14:12:29:140,-0.0598,-0.1077,9.6885,35.3719,0.0817,0.164,1.4698,163.7856
14:12:29:159,0.3781,-0.3829,10.0546,35.3334,0.028,0.0235,1.2487,162.4019
14:12:29:179,0.7729,-0.4834,10.4495,34.9607,0.0439,-0.0877,1.0214,161.2761
14:12:29:197,1.2275,-0.5216,10.7821,35.0294,0.0854,-0.1255,0.8431,160.3475
14:12:29:218,1.651,-0.3637,10.9567,35.0842,0.0732,-0.0254,0.6134,158.887
14:12:29:237,1.3783,-0.268,10.4901,34.6181,0.0573,0.153,0.5547,158.2278
14:12:29:259,1.1844,-0.2034,9.868,34.0102,0.0646,0.3265,0.5731,157.5443
14:12:29:277,1.3256,-0.0479,9.3631,35.0224,0.0939,0.368,0.6732,156.7498
14:12:29:297,1.5912,0.1579,9.1023,34.3048,0.1379,0.3082,0.8089,155.8152
14:12:29:322,2.0459,0.4786,9.009,33.6704,0.177,0.186,0.9347,154.7481
14:12:29:341,2.5029,0.7729,8.9755,34.373,0.188,0.0284,1.0068,153.6315
14:12:29:357,2.9432,1.0098,8.8726,34.373,0.1673,-0.0889,0.9958,152.5317
14:12:29:377,3.0341,1.1533,8.9085,33.6847,0.1062,-0.1365,0.8834,151.5686
14:12:29:399,2.79,1.2538,9.076,33.2587,-0.0026,-0.1744,0.683,150.8328
14:12:29:420,2.2229,1.2156,9.1669,32.8262,-0.1296,-0.2392,0.4656,150.3569
14:12:29:440,1.6343,1.1198,8.7936,32.933,-0.1992,-0.2453,0.3361,149.9886
14:12:29:455,1.1892,0.9404,8.3892,32.1589,-0.176,-0.1463,0.347,149.6132
14:12:29:475,0.9571,0.9284,8.3294,32.3751,-0.1076,-0.0706,0.4326,149.1158
14:12:29:496,0.6987,1.1151,8.7147,33.0546,-0.0685,-0.1121,0.4814,148.5889
14:12:29:516,0.7442,1.0457,9.0281,33.8398,-0.0697,-0.2196,0.4484,148.0842
14:12:29:536,0.859,0.7585,9.3799,32.2597,-0.1113,-0.3222,0.3287,147.7325
14:12:29:557,0.615,0.5527,9.7507,30.5753,-0.1992,-0.3723,0.1564,147.5698
14:12:29:578,0.1244,0.4618,10.203,32.9296,-0.3116,-0.3503,0.0355,147.5425
14:12:29:597,-0.4187,0.4546,10.5619,32.7937,-0.4008,-0.2721,0.0551,147.4635
14:12:29:617,-0.5312,0.3685,10.5117,32.0359,-0.4021,-0.1268,0.242,147.181
14:12:29:639,-0.0957,0.402,10.1839,31.1258,-0.2909,0.0943,0.545,146.5616
14:12:29:657,1.3424,0.725,9.746,33.1438,0.0182,0.2996,1.0019,145.6142
14:12:29:677,2.0028,0.7609,9.5019,32.3553,0.1184,0.2019,1.0251,144.4905
14:12:29:696,2.479,0.6915,9.5282,33.2541,0.1636,0.076,0.92,142.3566
14:12:29:717,2.8881,0.4522,9.655,31.9037,0.1599,-0.0547,0.727,141.5432
14:12:29:738,2.9312,0.1555,9.6933,29.1043,0.1257,-0.1219,0.5047,140.9696
14:12:29:757,2.6848,-0.1053,9.801,30.8844,0.0793,-0.1268,0.3153,140.5894
14:12:29:777,2.6417,-0.3613,9.9422,30.0468,0.0109,-0.1769,0.1943,140.3771
14:12:29:796,2.8714,-0.536,10.0642,31.5943,-0.0576,-0.2379,0.1479,140.212
14:12:29:821,3.0437,-0.5432,10.0259,31.2009,-0.0966,-0.2135,0.1271,140.0773
14:12:29:840,2.8618,-0.3876,9.8536,30.9534,-0.1003,-0.0828,0.0929,139.9678
14:12:29:857,2.5388,-0.2201,9.7197,30.9517,-0.0795,0.0687,0.0379,139.8857
14:12:29:876,2.4167,-0.28,9.3607,31.5653,-0.0527,0.131,-0.006,139.8593
14:12:29:896,2.3617,-0.3087,9.0305,31.5653,-0.0368,0.1163,-0.0365,139.8629
14:12:29:919,2.345,-0.2321,9.0329,30.099,-0.0612,0.076,-0.0695,139.9054
14:12:29:938,2.388,-0.0981,9.1597,29.731,-0.1443,0.0357,-0.116,140.014
14:12:29:958,2.1272,0.0191,9.3559,31.879,-0.2665,0.0614,-0.1758,140.1856
14:12:29:978,1.7492,-0.0407,9.6598,30.2065,-0.3764,0.098,-0.2271,140.4032
14:12:29:996,1.5912,-0.1723,9.7795,29.8799,-0.4289,0.0272,-0.2393,140.6482
14:12:30:019,1.5721,-0.2034,9.8345,29.5596,-0.3923,-0.0522,-0.2027,140.8419
14:12:30:037,1.675,-0.1364,9.7723,33.2671,-0.2909,-0.0852,-0.1196,140.9398
14:12:30:057,1.8903,0.0479,9.6933,32.1227,-0.1809,-0.0767,-0.0378,140.9691
14:12:30:077,2.1296,0.1077,9.5306,33.9373,-0.1101,-0.0486,-0.0011,140.9275
14:12:30:223,2.2756,0.189,9.4852,32.5655,-0.1052,-0.0327,-0.0146,140.9
14:12:30:224,2.5531,0.1005,9.7125,31.277,-0.2347,-0.0852,-0.1111,141.057
14:12:30:225,2.7948,-0.0263,9.9828,34.5777,-0.2787,-0.0926,-0.1648,141.1608
14:12:30:225,2.9456,-0.1388,10.1719,32.5004,-0.2872,-0.0742,-0.2198,141.3255
14:12:30:226,3.0317,-0.1795,10.1025,33.3435,-0.2713,-0.0046,-0.2711,141.5726
14:12:30:227,3.0461,-0.189,9.8441,30.9751,-0.2298,0.1225,-0.3151,141.9248
14:12:30:229,2.9025,-0.1125,9.6479,30.8844,-0.1834,0.2287,-0.3628,142.2837
14:12:30:247,2.8163,0.055,9.5713,32.5186,-0.1516,0.2434,-0.4055,142.7243
14:12:30:256,3.0532,0.1316,9.6479,32.3203,-0.1345,0.1896,-0.4251,143.1959
14:12:30:276,3.1657,0.213,9.7029,32.2677,-0.1064,0.1554,-0.4495,143.6824
14:12:30:297,2.7254,0.6269,10.1432,32.4079,-0.0697,0.1725,-0.513,144.2324
14:12:30:319,2.0913,1.1007,10.8132,31.2567,-0.0429,0.12,-0.5851,144.8854
14:12:30:339,1.864,1.328,11.72,33.1036,0.0023,-0.0022,-0.6071,145.534
14:12:30:356,2.4646,1.3567,12.9667,34.4502,0.0866,-0.183,-0.5607,146.1235
14:12:30:376,2.9647,1.2993,13.5625,32.9341,0.2222,-0.3088,-0.5204,146.6756
14:12:30:396,2.2851,1.2132,13.6128,32.6872,0.403,-0.1732,-0.5802,147.3074
14:12:30:420,0.9476,0.9691,12.8327,34.1846,0.5606,0.0113,-0.7232,148.0686
14:12:30:443,-0.2106,0.4857,11.8158,33.3352,0.6437,0.109,-0.8148,148.9396
14:12:30:459,-0.9811,0.2465,10.794,34.1735,0.6791,0.2214,-0.7403,149.714
14:12:30:475,-1.2108,0.4666,9.7651,34.9406,0.7243,0.4022,-0.4874,150.1946
14:12:30:495,-0.7753,0.859,8.4873,34.6795,0.8196,0.7003,-0.0879,150.2004
14:12:30:516,0.0431,0.95,6.9535,33.0139,0.9369,1.0204,0.286,149.7545
14:12:30:536,0.6413,0.7896,5.5825,34.7186,1.02,1.2464,0.4509,149.1051
14:12:30:556,0.938,0.7657,5.2164,34.2693,1.0273,1.2599,0.3886,148.4919
14:12:30:577,1.8281,1.2395,6.3577,33.6344,0.8661,0.77,0.0465,148.1093
14:12:30:597,2.5172,1.3831,6.9081,31.9013,0.8502,0.5659,-0.0243,147.9357
14:12:30:621,3.3643,1.8209,7.5063,34.2531,0.8636,0.3338,-0.0744,147.8302
14:12:30:640,3.862,2.6393,8.1859,34.5207,0.8392,0.0321,-0.188,147.9883
14:12:30:659,4.2257,2.8977,8.1045,34.0617,0.7415,-0.2135,-0.408,148.4641
14:12:30:675,4.1133,2.4,7.7599,34.1649,0.5325,-0.2074,-0.7427,149.2985
14:12:30:695,3.6778,2.4383,8.2696,33.6847,0.111,-0.2343,-1.1691,150.6122
14:12:30:718,3.527,2.9049,9.4875,34.7097,-0.4998,-0.5031,-1.4843,152.3243
14:12:30:739,3.2255,3.3045,11.0788,34.9606,-1.1241,-0.7572,-1.5784,154.197
14:12:30:757,2.9671,3.3523,12.0431,36.3812,-1.5419,-0.7975,-1.488,155.9931
14:12:30:779,3.1777,3.0173,11.9785,36.5093,-1.5334,-0.6057,-1.2473,157.4844
14:12:30:796,3.3667,2.857,10.739,35.0272,-1.1021,-0.3125,-0.9773,158.5948
14:12:30:817,2.9432,2.9767,9.4636,36.5651,-0.4888,0.0492,-0.838,159.4888
14:12:30:837,2.2708,3.1657,8.6764,35.9763,0.0267,0.2727,-0.8795,160.3936
14:12:30:857,2.2158,2.9527,7.8676,35.6405,0.3126,0.1786,-1.0384,161.4813
14:12:30:877,2.2301,2.8594,7.3172,37.1254,0.3701,-0.0058,-1.2131,162.7925
14:12:30:895,1.7922,2.9575,7.5757,37.2088,0.2503,-0.0388,-1.3499,164.2555
14:12:30:917,1.3591,2.9767,8.1882,38.8119,0.0292,-0.0706,-1.4269,165.7886
14:12:30:939,1.3376,2.7996,8.7218,38.7383,-0.1834,-0.1096,-1.4367,167.3475
14:12:30:957,1.2491,2.7039,9.2124,39.3717,-0.297,-0.0535,-1.4025,168.8604
14:12:30:975,1.0959,2.7302,9.6909,39.741,-0.2958,0.0565,-1.3462,170.2944
14:12:30:996,1.1174,2.7278,9.8321,40.8189,-0.2127,0.1066,-1.2839,171.6657
14:12:31:018,1.0026,2.7422,9.7747,40.2856,-0.1003,0.0943,-1.2399,174.2651
14:12:31:038,0.4834,2.7302,9.6072,39.3591,0.0487,0.1176,-1.207,175.5623
14:12:31:058,0.0885,2.6728,9.6622,39.3327,0.0597,0.1041,-1.1813,176.7887
14:12:31:076,-0.201,2.5412,9.8297,40.7967,0.0414,0.0431,-1.1337,177.9867
14:12:31:095,-0.6365,2.3928,10.3705,42.2653,0.0084,-0.04,-1.0701,179.1124
14:12:31:116,-1.1174,2.1416,10.9065,40.7527,-0.0148,-0.0962,-0.9858,180.1448
14:12:31:135,-1.5099,1.7922,10.8371,42.2882,0.017,-0.0657,-0.8612,181.0472
14:12:31:156,-2.0674,1.5697,10.6744,42.1169,0.0805,0.1273,-0.6975,181.7236
14:12:31:176,-2.2947,1.4668,10.5021,44.2909,0.0976,0.2752,-0.5106,182.1943
14:12:31:196,-1.407,0.8829,10.593,42.2958,0.0365,0.2129,-0.3481,182.4999
14:12:31:216,-0.6891,0.268,11.3372,43.0132,-0.1284,-0.1659,-0.3212,182.84
14:12:31:236,-1.072,0.1627,12.122,42.7709,-0.3532,-0.6777,-0.4605,183.388
14:12:31:255,-1.5816,0.0766,12.3757,43.2891,-0.4387,-0.8427,-0.5326,184.0383
14:12:31:275,-1.529,-0.347,11.4042,43.5681,-0.2432,-0.5421,-0.4238,184.5124
14:12:31:297,-1.4261,-0.536,10.136,44.7639,0.1,0.0223,-0.2406,184.731
14:12:31:318,-1.2156,-0.2776,9.5976,42.9278,0.3444,0.4083,-0.1208,184.7431
14:12:31:337,-0.9093,0.3183,9.3368,45.2159,0.3701,0.2935,-0.1147,184.7809
14:12:31:359,-0.5743,0.6604,9.4158,44.4028,0.21,-0.0022,-0.1819,184.932
14:12:31:377,-0.2943,0.5575,9.6311,44.1094,-0.0099,-0.1487,-0.2882,185.2309
14:12:31:397,-0.3685,0.4092,9.6263,44.2218,-0.1895,-0.0779,-0.4006,185.6158
14:12:31:417,-0.8255,0.4283,9.5258,46.0822,-0.2848,0.1273,-0.4666,186.0594
14:12:31:435,-1.2706,0.5575,9.2841,47.1861,-0.3031,0.2935,-0.4312,186.4333
14:12:31:456,-1.3424,0.7609,9.0233,45.8871,-0.2591,0.3546,-0.3127,186.6663
14:12:31:477,-0.8662,1.0217,8.9803,46.7311,-0.2005,0.3082,-0.1954,186.7814
14:12:31:497,-0.5336,1.5338,8.9827,45.4669,-0.2103,0.0357,-0.2027,186.9024
14:12:31:522,-0.9811,1.5386,8.9396,45.2361,-0.2041,0.0992,-0.2051,187.1184
14:12:31:545,-1.1964,1.4405,8.5687,47.1378,-0.1418,0.2092,-0.1502,187.3326
14:12:31:565,-1.2275,1.5362,8.1045,47.6023,-0.0478,0.2642,-0.0732,187.3185
14:12:31:577,-1.3591,1.864,7.6977,46.3174,0.0353,0.2801,-0.0146,187.2212
14:12:31:605,-1.4907,2.0985,7.4584,47.1821,0.0866,0.2886,0.0379,187.0584
14:12:31:618,-1.4501,2.199,7.6786,46.9268,0.0891,0.2715,0.0734,186.8786
14:12:31:636,-1.1198,2.1751,8.0614,47.7789,0.0451,0.1579,0.06,186.7294
14:12:31:656,-1.0624,2.1679,8.6142,47.5912,-0.0307,-0.0107,-0.006,186.6715
14:12:31:673,-1.0744,2.0243,9.0903,47.6023,-0.0991,-0.1304,-0.0744,186.6962
14:12:31:693,-0.9308,1.8855,9.4277,47.1413,-0.1369,-0.1781,-0.1001,186.7487
14:12:31:715,-1.1031,1.9908,9.8752,46.5008,-0.1541,-0.1732,-0.1111,186.8193
14:12:31:735,-0.9404,1.9621,9.935,47.7789,-0.1382,-0.1805,-0.0757,186.854
14:12:31:753,-0.5168,1.8473,9.9039,48.012,-0.0979,-0.1769,-0.0097,186.8244
14:12:31:776,-0.2201,1.998,10.4566,49.2921,-0.1015,-0.15,-0.006,186.7769
14:12:31:793,-0.0981,2.1344,11.019,48.4576,-0.1443,-0.2367,-0.039,186.7739
14:12:31:814,0.2153,2.1368,11.854,49.5,-0.1626,-0.4139,-0.0598,186.8298
14:12:31:833,0.5097,2.3713,12.3541,48.6352,-0.1223,-0.5996,-0.0915,186.9454
14:12:31:854,0.8471,2.2827,12.0431,50.1324,-0.0368,-0.6203,-0.1355,187.1087
14:12:31:874,1.5816,1.1916,11.4209,48.2266,0.039,-0.3821,-0.188,187.311
14:12:31:896,1.876,-0.0502,12.4235,48.8627,0.0133,-0.1793,-0.3579,187.6782
14:12:31:920,1.3328,-0.6867,14.2014,50.3583,-0.1015,-0.5043,-0.6352,188.3676
14:12:31:941,0.8327,-0.4905,13.9908,48.7052,-0.176,-1.2923,-0.7659,189.2626
14:12:31:959,2.0363,-0.9954,11.0788,50.6098,0.2076,-1.0174,-0.1233,189.9211
14:12:31:981,2.12,-0.402,10.1121,49.5003,0.5509,-0.3039,0.1687,190.1495
14:12:31:996,2.5053,0.256,9.0042,49.2921,0.8746,0.1237,0.2896,189.5463
14:12:32:018,2.9719,0.5743,7.7145,51.2031,1.0664,0.3692,0.2395,189.1918
14:12:32:037,2.8116,0.8997,6.8483,50.0049,1.0505,0.5598,0.0221,189.0589
14:12:32:054,2.1416,1.1892,6.5252,51.9381,0.8771,0.6172,-0.2467,189.1654
14:12:32:074,1.4477,1.5003,6.4582,51.0917,0.64,0.4767,-0.4703,189.5258
14:12:32:095,0.8973,1.7539,6.3745,52.4025,0.3859,0.1884,-0.6132,190.0962
14:12:32:116,0.5384,1.8927,6.3123,51.9311,0.1269,-0.0632,-0.6755,190.7797
14:12:32:136,0.39,1.9095,6.4726,52.6005,-0.1137,-0.1463,-0.6828,191.4893
14:12:32:158,0.2823,1.9765,7.2359,52.6256,-0.3043,-0.1011,-0.6486,192.1497
14:12:32:178,0.2704,2.0052,7.6259,53.668,-0.4021,-0.095,-0.5985,192.7564
14:12:32:196,0.3661,2.1152,8.083,54.9079,-0.4192,-0.1035,-0.5485,193.3109
14:12:32:219,0.4307,2.3761,8.9468,54.8581,-0.3691,-0.117,-0.5081,193.8039
14:12:32:237,0.7107,2.4885,9.3009,54.2405,-0.253,-0.2025,-0.48,194.2825
14:12:32:330,1.072,2.3569,9.6718,54.6745,-0.1137,-0.288,-0.4837,194.7865
14:12:32:331,1.072,2.4909,10.2102,53.7531,-0.0038,-0.3015,-0.5143,195.3189
14:12:32:332,0.5336,2.6178,10.6241,54.5064,0.0866,-0.2465,-0.5436,195.8869
14:12:32:332,0.067,2.7135,10.8299,55.3835,0.1746,-0.0767,-0.5179,196.3743
14:12:32:345,-0.256,2.9097,10.8658,56.2932,0.2796,0.1273,-0.4019,196.6987
14:12:32:360,-0.2943,3.1466,10.6481,56.0699,0.3908,0.2654,-0.2345,196.7691
14:12:32:377,-0.0048,3.3882,10.7342,55.095,0.5081,0.2666,-0.0402,196.6796
14:12:32:396,0.2847,3.2973,10.5547,55.4691,0.502,0.12,-0.0305,196.5965
14:12:32:415,0.134,3.1346,10.3274,57.2952,0.469,0.0357,-0.0647,196.6596
14:12:32:436,-0.8375,3.1824,10.3825,56.6432,0.414,0.1542,-0.1135,196.644
14:12:32:461,-1.8951,3.3093,9.7962,56.4444,0.3847,0.3998,-0.0695,196.5115
14:12:32:477,-1.9765,3.1202,8.9731,56.3679,0.3859,0.7089,0.0941,196.1329
14:12:32:497,-1.8855,2.9743,8.9372,57.0221,0.3542,0.8934,0.2322,195.5601
14:12:32:517,-1.9501,2.9695,9.3488,56.9584,0.276,0.7235,0.2505,195.006
14:12:32:535,-1.7252,2.6393,9.3823,57.1617,0.2051,0.2129,0.2408,194.6025
14:12:32:554,-1.1557,2.12,9.1502,56.5554,0.1416,-0.3149,0.2298,194.3716
14:12:32:576,-0.2919,1.6391,8.9516,59.1486,0.0463,-0.5434,0.2078,194.2139
14:12:32:594,0.4498,1.2251,9.6072,59.4462,-0.1052,-0.4774,0.1528,194.1134
14:12:32:616,0.6269,1.0528,10.7462,57.3784,-0.2872,-0.4053,0.0514,194.0865
14:12:32:634,0.5695,0.9069,11.5454,58.1669,-0.4387,-0.4713,-0.0378,194.179
14:12:32:657,0.6221,0.725,10.8826,59.4139,-0.4974,-0.5324,-0.0219,194.2646
14:12:32:674,0.3541,0.7442,9.1693,59.9524,-0.4644,-0.2709,0.1076,194.1246
14:12:32:693,0.1819,1.0696,8.0614,58.7597,-0.4082,0.4254,0.2957,193.6378
14:12:32:715,0.0048,1.7157,7.6283,59.373,-0.3813,1.0497,0.4558,192.8417
14:12:32:735,-0.0502,2.1607,7.4512,58.527,-0.3776,1.1646,0.5523,191.9185
14:12:32:755,-0.134,2.3617,7.413,59.481,-0.3703,0.8286,0.5499,191.0772
14:12:32:775,-0.0861,2.4431,7.2933,58.8294,-0.3324,0.3228,0.4534,190.4464
14:12:32:796,-0.0335,2.4766,7.6211,60.3307,-0.2811,-0.0412,0.3202,190.0422
14:12:32:822,-0.1675,2.4359,8.2552,61.1345,-0.2225,-0.2001,0.2139,189.7894
14:12:32:835,-0.2704,2.3354,8.6285,61.5807,-0.1272,-0.266,0.1699,189.5916
14:12:32:855,-0.2106,2.1392,8.6094,59.9341,-0.005,-0.2673,0.1772,189.3753
14:12:32:876,-0.213,2.455,8.9228,58.6233,0.1452,0.065,0.2114,189.1213
14:12:32:894,-0.2082,2.5842,8.9635,59.4499,0.1782,0.197,0.242,188.5104
14:12:32:920,-0.3278,2.723,8.6046,60.7575,0.1978,0.1909,0.242,188.1483
14:12:32:938,-0.3733,2.8546,8.418,59.7819,0.1929,0.1554,0.2273,187.8087
14:12:32:959,-0.3685,2.9456,8.6094,60.435,0.1587,0.1347,0.209,187.4973
14:12:32:974,-0.0694,2.948,9.277,61.9027,0.0891,0.0577,0.1785,187.2338
14:12:32:994,0.3446,2.9432,10.148,61.6091,-0.0172,-0.1402,0.1125,187.0905
14:12:33:015,0.3087,3.0413,11.2798,61.421,-0.1479,-0.4053,-0.0011,187.1227
14:12:33:034,0.4546,2.7541,11.9282,62.4642,-0.2469,-0.6387,-0.0903,187.2963
14:12:33:054,1.0648,2.2014,12.3541,62.5757,-0.2774,-0.7498,-0.1074,187.5001
14:12:33:075,1.8903,1.9047,13.2562,61.9547,-0.2652,-0.7902,-0.0879,187.7063
14:12:33:095,2.5723,1.6367,13.6295,61.096,-0.242,-0.9099,-0.0854,187.9247
14:12:33:114,2.5675,0.9906,13.5936,63.1003,-0.2127,-1.0052,-0.1294,188.2195
14:12:33:141,1.5434,0.5551,12.725,61.6357,-0.1247,-0.9331,-0.1734,188.5168
14:12:33:154,0.9117,0.5001,10.6409,60.6356,0.0939,-0.5592,-0.0488,188.6032
14:12:33:174,1.3328,0.457,9.1908,62.8258,0.3871,0.1628,0.2518,188.2206
14:12:33:194,1.8688,0.8542,8.9563,62.4673,0.5826,0.7639,0.4607,187.5127
14:12:33:215,2.2038,1.5649,8.997,61.9669,0.6058,0.7761,0.4521,186.8143
14:12:33:235,2.4215,1.9214,8.6333,63.5411,0.4531,0.3888,0.2347,186.4299
14:12:33:255,2.0842,1.6989,8.3749,62.5632,0.1452,0.0431,-0.1074,186.4891
14:12:33:273,1.2132,1.2849,8.2911,60.7301,-0.2237,-0.1048,-0.3921,186.8943
14:12:33:294,0.1938,1.048,8.126,61.8881,-0.5218,-0.0803,-0.48,187.3653
14:12:33:314,-0.4451,1.1438,7.7623,62.2684,-0.6586,0.1017,-0.3737,187.6877
14:12:33:342,0.0168,1.6965,7.3962,62.1641,-0.5438,0.5916,0.0196,187.5973
14:12:33:353,0.0981,2.0435,7.8413,62.9314,-0.4509,0.6563,0.0624,187.3481
14:12:33:374,0.2513,2.3426,8.3222,61.7536,-0.3691,0.4853,0.0233,187.1885
14:12:33:391,0.5767,2.4167,8.6213,60.7812,-0.2836,0.1848,-0.0598,187.1757
14:12:33:412,0.871,2.1966,8.5089,60.435,-0.1992,-0.029,-0.1758,187.3164
14:12:33:434,1.0241,1.9454,8.6261,63.8791,-0.1211,-0.0583,-0.2748,187.5858
14:12:33:452,1.0193,1.9143,9.0425,62.928,-0.0514,-0.0241,-0.3078,187.8853
14:12:33:473,1.1198,2.0148,9.3105,62.7951,0.0255,-0.0571,-0.2919,188.1653
14:12:33:494,1.0624,2.2732,9.4325,63.3361,0.1,-0.073,-0.265,188.4164
14:12:33:515,0.7753,2.534,9.3009,63.3351,0.1648,0.0247,-0.2406,188.6139
14:12:33:532,0.39,2.7541,9.32,63.0822,0.2222,0.2385,-0.1868,188.7244
14:12:33:552,-0.0335,3.3476,10.069,62.1642,0.2479,0.4633,-0.1062,188.7104
14:12:33:572,-0.3254,3.9697,10.9902,62.5519,0.2552,0.4719,-0.0097,188.5904
14:12:33:592,0.1077,3.996,11.0405,62.4883,0.2919,0.2104,0.0917,188.3971
14:12:33:613,0.6461,3.7089,11.0285,62.3449,0.3505,0.0174,0.121,188.2304
14:12:33:632,0.7107,3.4816,11.4736,62.238,0.3896,0.0284,0.049,188.1302
14:12:33:653,0.256,3.4983,11.8564,62.1485,0.3798,0.0943,-0.0451,188.1081
14:12:33:673,-0.6987,3.539,11.4042,62.093,0.3322,0.2153,-0.0781,188.0845
14:12:33:693,-1.9932,3.8668,10.4207,62.238,0.2894,0.605,0.0001,187.8863
14:12:33:714,-2.333,3.8429,10.1934,62.7112,0.2503,1.1841,0.2005,187.3232
14:12:33:735,-1.1533,2.8618,10.9352,62.6635,0.1673,1.2562,0.3678,186.589
14:12:33:754,-0.4522,1.9334,12.2824,62.0666,0.0267,0.2911,0.2652,186.1871
14:12:33:776,-1.048,1.3878,12.883,61.9922,-0.0551,-1.0638,-0.0879,186.4794
14:12:33:797,-1.3472,0.4498,12.2154,61.223,0.1013,-1.6344,-0.2968,187.6077
14:12:33:820,-1.1151,-0.6987,10.002,61.2827,0.7268,-0.2489,-0.0378,187.6936
14:12:33:838,-1.017,-0.1268,9.9541,61.7999,0.8294,0.434,0.1797,187.3362
14:12:33:856,-0.658,0.6796,8.9037,60.4217,0.728,0.5146,0.3825,186.7424
14:12:33:874,-0.1005,1.0624,7.6379,61.0972,0.4543,0.4657,0.5376,185.9911
14:12:33:895,-0.0742,1.2467,7.267,60.3559,0.0878,0.649,0.5938,185.1293
14:12:33:921,-0.4403,1.3519,7.1976,62.3732,-0.2286,0.7981,0.5682,184.2565
14:12:33:940,-0.6772,1.4333,6.9846,59.823,-0.385,0.7358,0.5401,183.4455
14:12:33:957,-0.6915,1.5003,6.8746,61.2576,-0.3911,0.5598,0.534,182.6768
14:12:33:975,-0.4857,1.7922,7.3866,59.3509,-0.3141,0.3253,0.5157,181.9791
14:12:33:992,-0.2297,2.266,7.7527,59.3818,-0.2066,0.0369,0.4704,181.4229
14:12:34:014,0.1484,2.5244,8.1499,59.234,-0.0979,-0.1671,0.4203,180.9722
14:12:34:036,0.4403,2.6178,8.3605,59.2368,-0.005,-0.2172,0.3422,180.6325
14:12:34:056,0.2919,2.6082,8.2744,58.8295,0.0695,-0.139,0.2224,180.4065
14:12:34:075,-0.2321,2.6536,8.1021,59.3876,0.1355,0.0247,0.1223,180.2233
14:12:34:093,-0.7274,2.9647,7.8676,58.6296,0.1953,0.1933,0.11,180.0032
14:12:34:114,-0.926,3.3332,7.7193,59.3418,0.2454,0.3082,0.1797,179.6757
14:12:34:136,-0.9141,3.6658,7.9131,59.3041,0.2589,0.357,0.275,179.2321
14:12:34:155,-0.7489,3.996,8.3581,58.7639,0.2161,0.2434,0.3519,178.7433
14:12:34:175,-0.5336,4.1563,8.6309,60.353,0.1245,-0.0009,0.3495,178.3247
14:12:34:193,-0.469,4.1683,9.3153,57.281,0.0047,-0.1964,0.2566,178.056
14:12:34:214,-0.615,4.0654,9.9182,58.2533,-0.1198,-0.3112,0.11,178.0013
14:12:34:238,-0.5049,3.5773,11.1553,57.6677,-0.275,-0.453,0.0269,178.1586
14:12:34:254,0.1125,3.5749,11.5143,57.4324,-0.2542,-0.5495,0.1455,178.1184
14:12:34:275,1.0528,3.5222,11.4138,58.6633,-0.1406,-0.5519,0.3067,177.933
14:12:34:296,1.7396,3.3332,10.9615,56.8624,0.0109,-0.3858,0.3837,177.6285
14:12:34:313,1.8353,3.1896,10.5093,56.9091,0.0964,-0.172,0.3202,177.3254
14:12:34:387,2.2493,2.4287,10.5739,57.6203,0.0451,-0.0437,0.1589,177.1595
14:12:34:388,1.9908,1.4692,11.3157,56.9487,-0.1553,-0.2954,-0.1282,177.3676
14:12:34:388,1.5769,1.1127,11.7392,57.6203,-0.3703,-0.7718,-0.4214,178.0101
14:12:34:392,1.6391,0.5121,11.6267,57.116,-0.3825,-0.8745,-0.4862,178.7372
14:12:34:414,1.5601,0.5527,10.4949,57.8576,-0.1907,-0.5837,-0.3322,179.2147
14:12:34:437,1.608,1.2443,9.1071,57.7218,0.0548,-0.0095,-0.0903,179.2834
14:12:34:454,1.8449,1.73,8.1356,58.5263,0.1856,0.6136,0.0612,179.0312
14:12:34:476,1.6176,2.2493,7.2814,56.1608,0.0793,0.864,-0.0011,178.7778
14:12:34:494,1.048,2.5005,6.9057,57.8528,-0.1956,0.8017,-0.1893,178.7468
14:12:34:513,0.5216,2.4766,7.0875,57.2703,-0.468,0.5879,-0.3676,178.9547
14:12:34:533,0.3183,2.4526,7.2455,59.2934,-0.6061,0.2825,-0.4752,179.3484
14:12:34:554,0.1316,2.5125,7.334,57.6307,-0.578,0.0614,-0.5411,179.8745
14:12:34:575,-0.0598,2.479,7.6546,55.9905,-0.4351,0.0369,-0.6095,180.4848
14:12:34:594,-0.189,2.3043,8.0949,57.0041,-0.2555,0.0357,-0.6853,181.179
14:12:34:617,-0.2465,2.1248,8.485,58.1415,-0.1088,-0.095,-0.7378,181.9614
14:12:34:635,-0.1555,2.0578,8.6907,57.3915,-0.0197,-0.2538,-0.7207,182.7544
14:12:34:655,0.0024,2.1296,8.8534,58.3406,0.028,-0.2844,-0.6193,183.4346
14:12:34:674,0.4068,2.1129,9.1214,57.9473,0.05,-0.1964,-0.4617,183.9319
14:12:34:695,0.3924,2.199,9.612,59.5103,0.0402,-0.1255,-0.3615,184.3125
14:12:34:719,-0.4857,2.6034,10.4088,56.3429,0.0231,-0.1182,-0.3261,184.6301
14:12:34:736,-0.4929,2.9073,10.4423,57.1229,0.1538,0.0455,-0.0524,184.8645
14:12:34:758,-0.1005,3.2351,10.5021,58.7682,0.2955,0.2275,0.1613,184.6485
14:12:34:776,0.3541,3.7065,10.66,58.3044,0.403,0.2935,0.3055,184.2072
14:12:34:792,1.139,3.728,10.8251,57.0452,0.436,0.2006,0.3458,183.7546
14:12:34:816,1.1222,3.9362,10.9472,57.4414,0.3798,0.0968,0.2224,183.468
14:12:34:836,-0.1316,4.3717,10.6194,59.0467,0.2735,0.241,-0.0133,183.3631
14:12:34:853,-0.9619,3.8907,10.3394,57.8257,0.1843,0.6918,-0.1636,183.3098
14:12:34:873,-1.1414,3.2231,10.7103,58.1795,0.0646,0.8506,-0.2455,183.2984
14:12:34:895,-1.206,2.4167,11.342,58.8113,-0.1162,0.3302,-0.3676,183.5547
14:12:34:915,-1.663,1.8592,11.6674,60.5682,-0.2396,-0.3821,-0.5118,184.1554
14:12:34:937,-1.8808,1.2323,11.3444,57.6654,-0.1699,-0.5837,-0.5546,184.8408
14:12:34:954,-1.8138,0.8662,10.6313,59.1079,0.0316,-0.3222,-0.4495,185.3514
14:12:34:981,-1.5458,1.0361,10.203,59.7858,0.1819,0.0186,-0.2699,185.5865
14:12:34:992,-1.0241,1.4046,9.9613,59.1196,0.1538,0.1408,-0.0964,185.5978
14:12:35:014,-0.5767,1.5338,9.7316,59.3802,-0.0221,0.0553,-0.0011,185.5341
14:12:35:038,-0.4187,1.6463,9.2435,60.1505,-0.2066,0.0235,0.0367,185.4341
14:12:35:056,-0.5551,1.8185,8.6788,58.0474,-0.2836,0.23,0.0856,185.2391
14:12:35:074,-0.6317,2.0219,8.3725,59.6276,-0.2665,0.5317,0.154,184.9159
14:12:35:094,-0.7298,2.3713,8.126,58.8749,-0.2103,0.6515,0.2395,184.4616
14:12:35:118,-0.5551,2.5962,8.0566,58.4732,-0.1308,0.5574,0.3312,183.9161
14:12:35:135,-0.3206,2.7182,8.418,61.4593,-0.027,0.3375,0.3605,183.4072
14:12:35:155,-0.1005,2.7637,8.1978,60.4474,0.2784,-0.2184,0.1931,183.0426
14:12:35:174,-0.0742,2.7876,8.138,58.7393,0.4214,-0.1793,0.1149,182.7831
14:12:35:193,-0.3948,2.9647,8.0399,59.4988,0.4739,-0.0681,0.049,182.7048
14:12:35:214,-0.6006,2.9049,8.138,59.779,0.4458,0.0052,0.0062,182.6611
14:12:35:236,-0.8734,2.8283,8.339,60.0179,0.3835,-0.0302,-0.028,182.6657
14:12:35:255,-0.9188,2.7637,8.5807,61.248,0.3419,-0.1243,-0.0524,182.7238
14:12:35:276,-0.8829,2.8833,8.875,59.9189,0.3395,-0.1683,-0.0427,182.775
14:12:35:294,-0.6054,2.8905,9.1932,59.3802,0.3505,-0.1536,-0.0231,182.8065
14:12:35:321,-0.2201,2.7709,9.5593,59.9704,0.3346,-0.2025,-0.0463,182.8839
14:12:35:335,-0.0215,2.8092,9.7867,60.5578,0.2601,-0.3381,-0.1331,183.088
14:12:35:353,0.079,2.9193,10.0738,60.4417,0.1391,-0.4163,-0.2161,183.4253
14:12:35:372,0.1699,3.0676,10.2963,60.4474,-0.0185,-0.3894,-0.2577,183.7986
14:12:35:391,0.4379,3.1059,10.5643,61.4731,-0.2127,-0.2929,-0.2626,184.1402
14:12:35:413,0.8279,2.9336,11.1171,60.6813,-0.4363,-0.2269,-0.2675,184.473
14:12:35:432,1.3854,2.4431,11.9976,60.2873,-0.6623,-0.3015,-0.3127,184.8787
14:12:35:453,1.7874,1.7946,12.7777,62.2289,-0.8211,-0.536,-0.3982,185.4448
14:12:35:472,1.8784,1.4812,13.2395,61.5917,-0.8162,-0.7914,-0.48,186.1504
14:12:35:492,2.0435,1.4261,12.5121,60.1336,-0.589,-0.7816,-0.4556,186.8255
14:12:35:514,2.0554,1.6295,11.7894,62.7193,-0.1919,-0.3809,-0.2809,187.2148
14:12:35:533,2.522,1.7492,10.7773,60.7689,0.2406,0.0186,-0.0976,187.2991
14:12:35:553,3.1346,1.7372,9.1645,60.4688,0.5619,0.109,-0.083,187.3647
14:12:35:573,3.2136,1.9214,7.8867,62.5207,0.6645,0.1615,-0.276,187.6268
14:12:35:601,2.3617,2.053,7.3388,61.9869,0.5289,0.2544,-0.6022,189.0716
14:12:35:616,0.7107,1.6989,6.8387,63.5354,-0.0795,0.0919,-0.992,190.1093
14:12:35:636,0.323,1.5793,6.8243,61.981,-0.2616,0.0162,-0.9797,191.129
14:12:35:655,0.1842,1.876,6.9344,63.3473,-0.286,0.0443,-0.9162,192.0773
14:12:35:672,0.3613,2.2397,6.9464,63.5961,-0.2017,0.1115,-0.849,192.9323
14:12:35:693,0.5623,2.5005,7.0349,62.5313,-0.0795,0.1591,-0.8185,193.7453
14:12:35:714,0.6269,2.7159,7.1761,63.0393,0.0133,0.1542,-0.8392,194.5971
14:12:35:733,0.6054,2.9288,7.413,64.6861,0.0414,0.1017,-0.8832,195.488
14:12:35:753,0.3781,3.2112,7.6546,63.2429,0.0096,0.0455,-0.9113,196.4403
14:12:35:777,0.1914,3.3858,8.3318,62.9336,-0.0637,0.0101,-0.9125,197.3989
14:12:35:792,-0.0407,3.4576,9.3105,63.4784,-0.1638,-0.1035,-0.915,198.3851
14:12:35:813,-0.5862,3.527,10.1001,65.5296,-0.253,-0.2917,-0.9247,199.4254
14:12:35:841,-1.2706,3.5581,11.1171,65.5449,-0.2677,-0.3393,-0.8954,200.4435
14:12:35:858,-1.7539,3.5509,11.9737,64.0346,-0.1589,-0.2685,-0.7989,201.3243
14:12:35:875,-1.8425,3.3978,12.134,64.4159,0.0634,-0.2453,-0.623,202.0163
14:12:35:893,-1.4836,3.2542,12.1053,65.8251,0.3383,-0.2428,-0.3994,202.4751
14:12:35:913,-0.9787,3.3332,11.5645,63.9876,0.5802,-0.1756,-0.2247,202.7404
14:12:35:933,-0.9428,3.3404,10.9185,63.2322,0.7133,0.0699,-0.1551,202.865
14:12:35:955,-1.5506,3.3619,10.337,64.8308,0.6987,0.3876,-0.1563,202.9155
14:12:35:973,-2.2205,3.2518,9.6215,65.4211,0.5631,0.5378,-0.1514,202.8754
14:12:35:991,-2.3713,3.0508,9.5474,63.8322,0.3493,0.5134,-0.105,202.7989
14:12:36:012,-1.7827,2.3617,10.1336,64.6432,0.1062,0.2556,-0.0695,202.766
14:12:36:034,-2.0913,1.6487,10.7916,65.4576,-0.0893,-0.222,-0.1306,202.9413
14:12:36:052,-3.0413,1.4333,10.5691,64.4706,-0.1247,-0.5116,-0.1917,203.257
14:12:36:076,-3.0365,0.9954,7.8844,65.2489,0.2723,0.3717,0.231,202.9648
14:12:36:092,-2.6058,1.3591,7.4704,65.1255,0.3334,0.8115,0.4436,202.2012
14:12:36:114,-2.1272,1.8879,7.0397,65.1353,0.1685,0.693,0.545,201.3904
14:12:36:136,-1.2897,1.8808,6.8124,66.4889,-0.1736,0.2984,0.5731,200.6604
14:12:36:158,-0.7825,1.5458,6.9894,66.4643,-0.5731,0.0247,0.4814,200.1484
14:12:36:172,-1.0361,1.1486,7.1976,65.4211,-0.8993,-0.0254,0.3092,199.8172
14:12:36:193,-1.5745,0.8949,7.535,64.5797,-1.0777,0.0748,0.231,199.5398
14:12:36:212,-1.7898,0.9236,7.7575,65.1963,-1.1009,0.1359,0.3275,199.1409
14:12:36:234,-1.5649,1.1222,7.6881,65.9253,-1.0056,0.1163,0.5242,198.5444
14:12:36:256,-1.1198,1.3807,7.3149,63.3176,-0.859,0.1689,0.7099,197.7236
14:12:36:280,-1.1031,1.6582,7.1402,65.154,-0.7295,0.3228,0.8064,196.7816
14:12:36:292,-1.517,2.0722,7.4202,63.4872,-0.6427,0.4425,0.8101,195.8038
14:12:36:315,-1.9286,2.4957,7.6546,63.8918,-0.5743,0.3363,0.7808,194.8841
14:12:36:335,-1.8568,2.6895,7.7432,63.4549,-0.5059,0.0736,0.7588,194.0426
14:12:36:356,-1.5745,2.8833,8.2074,65.3533,-0.4595,-0.1683,0.7502,193.2559
14:12:36:380,-1.06,3.259,9.0879,63.6124,-0.4485,-0.3577,0.7343,192.5043
14:12:36:391,-0.3254,3.5175,10.2533,64.7827,-0.4558,-0.4676,0.6708,191.8581
14:12:36:466,0.7609,2.7494,10.9591,62.6499,-0.457,-0.5764,0.5181,191.4221
14:12:36:466,0.9691,2.065,11.5167,61.4276,-0.4742,-0.69,0.2114,191.3081
14:12:36:467,0.4451,1.7515,11.6866,62.9594,-0.4925,-0.7022,-0.116,191.5401
14:12:36:481,0.079,1.4453,11.3994,62.6666,-0.4656,-0.5629,-0.2418,191.8832
14:12:36:492,0.2201,1.0457,11.0764,59.9705,-0.4216,-0.3027,-0.177,192.1201
14:12:36:516,1.3065,0.335,11.0309,62.085,-0.5927,-0.0901,-0.1502,192.4749
14:12:36:532,1.7396,-0.4235,11.8158,61.0515,-0.8456,-0.3064,-0.2968,192.8728
14:12:36:553,1.5123,-1.0816,12.9212,62.3977,-1.1094,-0.7865,-0.4862,193.4706
14:12:36:572,0.6891,-1.194,13.8186,60.0012,-1.1986,-1.1848,-0.5729,194.1298
14:12:36:593,0.414,-1.3854,13.4788,61.2439,-0.9237,-1.0699,-0.4092,194.5977
14:12:36:613,0.9332,-1.5099,12.1771,62.4383,-0.3605,-0.4334,0.0257,194.5796
14:12:36:633,1.6558,-1.3567,11.1912,62.7281,0.2149,0.3302,0.4729,194.0902
14:12:36:657,2.0076,-0.7394,10.7031,62.1852,0.5582,0.7565,0.6977,193.368
14:12:36:672,2.3713,-0.3829,10.3418,62.6963,0.6315,0.6991,0.6769,192.6682
14:12:36:692,2.6584,-0.4714,9.7507,62.5987,0.5399,0.4645,0.4607,192.2117
14:12:36:712,2.4574,-0.5145,9.1119,59.8378,0.3994,0.3375,0.176,192.0697
14:12:36:736,1.8377,-0.3876,8.6213,61.378,0.2784,0.4083,-0.0537,192.1771
14:12:36:755,1.1055,-0.1603,8.2337,60.7492,0.2027,0.5635,-0.1636,192.3811
14:12:36:776,0.6221,0.0431,7.8485,61.2439,0.1843,0.6796,-0.1587,192.569
14:12:36:791,0.5551,0.1986,7.3244,60.2264,0.2173,0.7639,-0.1135,192.6875
14:12:36:811,0.7083,0.4977,6.8794,61.4585,0.232,0.8311,-0.1135,192.8158
14:12:36:835,0.5288,0.95,6.7884,62.5016,0.1245,0.8714,-0.1868,193.0216
14:12:36:855,0.4307,1.2754,7.0899,61.932,-0.0918,0.8115,-0.2675,193.3108
14:12:36:872,0.3948,1.2921,7.8676,60.1406,-0.3349,0.605,-0.3457,193.7072
14:12:36:891,0.2608,1.1151,8.4036,60.45,-0.4937,0.3253,-0.4788,194.2762
14:12:36:915,-0.1747,0.9763,9.131,60.7387,-0.5597,0.175,-0.6755,195.056
14:12:36:933,-1.2275,1.4165,9.9565,61.4898,-0.5401,0.1664,-0.8233,195.9924
14:12:36:953,-1.5769,1.4261,10.5595,61.4832,-0.4265,0.1811,-0.7757,196.8693
14:12:36:974,-1.7755,1.2873,11.1099,60.1546,-0.2872,0.1884,-0.6413,197.6003
14:12:36:991,-2.5508,1.2443,12.5527,59.8605,-0.1296,0.1408,-0.4654,198.7537
14:12:37:015,-2.5914,1.0576,12.7896,60.3511,-0.0038,0.0675,-0.3163,199.14
14:12:37:036,-2.254,0.7968,12.3948,59.6895,0.221,0.0943,-0.1453,199.333
14:12:37:051,-2.0172,0.6628,11.9976,60.8108,0.4519,0.2898,-0.0585,199.4289
14:12:37:072,-2.4814,0.9763,11.5813,61.0592,0.5924,0.5256,-0.0964,199.5574
14:12:37:092,-3.0532,1.1294,10.9424,59.4333,0.6425,0.7382,-0.1306,199.711
14:12:37:113,-2.9456,1.0098,10.4136,59.3526,0.6657,0.8701,-0.1001,199.8307
14:12:37:135,-2.6369,0.9954,10.191,60.8535,0.6755,0.7687,-0.1111,199.9296
14:12:37:152,-2.6273,1.3352,10.6648,59.4708,0.6681,0.412,-0.2039,200.1577
14:12:37:174,-2.3426,0.9404,10.5571,58.4159,0.6681,-0.018,-0.2393,200.4454
14:12:37:192,-1.5482,0.2704,9.8154,58.0162,0.6339,-0.2954,-0.2418,200.7766
14:12:37:212,-1.1438,-0.0933,8.9276,59.5382,0.5655,-0.1524,-0.2846,201.132
14:12:37:233,-1.6439,0.2943,8.5232,59.5521,0.4702,0.3961,-0.3994,201.5664
14:12:37:253,-2.5914,1.2347,8.6333,59.101,0.3908,0.9813,-0.4642,202.0065
14:12:37:272,-3.4457,1.998,9.0544,59.9315,0.3444,1.2733,-0.3786,202.2967
14:12:37:292,-3.1537,1.7803,9.1717,59.7285,0.2686,0.985,-0.2003,202.4146
14:12:37:317,-2.3354,1.1174,8.473,59.7818,0.1208,0.2043,-0.0891,202.5225
14:12:37:338,-1.8449,0.9404,7.7791,59.0256,-0.0722,-0.4689,-0.0903,202.7164
14:12:37:354,-1.7013,0.9045,7.2383,59.4694,-0.2225,-0.6375,-0.0793,202.9153
14:12:37:373,-1.7659,1.0959,6.8195,59.6088,-0.2836,-0.4383,-0.0378,203.0547
14:12:37:395,-2.412,1.541,7.3508,58.8736,-0.3019,-0.2001,-0.017,203.1228
14:12:37:412,-2.5196,1.7324,7.4202,57.8294,-0.2652,-0.266,0.0306,203.1394
14:12:37:432,-2.2397,1.6104,7.1234,58.514,-0.2017,-0.6301,0.1088,203.1027
14:12:37:454,-2.1823,1.8544,7.1569,57.8107,-0.2469,-0.9697,0.1455,202.9631
14:12:37:473,-2.3067,1.73,8.0375,56.542,-0.3361,-0.679,0.1552,202.87
14:12:37:494,-2.0267,1.596,8.3557,56.2899,-0.3776,-0.4969,0.1882,202.734
14:12:37:516,-2.0961,1.4955,8.5687,54.5288,-0.3581,-0.3797,0.2273,202.5405
14:12:37:534,-1.8544,1.2778,8.9252,57.7211,-0.2261,-0.3455,0.264,202.3062
14:12:37:552,-0.4953,0.7849,8.808,55.7249,0.0194,-0.5141,0.2383,202.1177
14:12:37:573,0.2919,0.4953,9.4205,54.857,0.1868,-0.6032,0.0783,202.1318
14:12:37:592,0.4211,0.5121,10.0594,55.6067,0.1269,-0.5409,-0.1331,202.3851
14:12:37:613,0.0455,0.1531,11.1218,54.6295,-0.093,-0.3797,-0.265,202.7711
14:12:37:638,-0.1603,-0.2201,12.1388,54.2002,-0.3324,-0.1842,-0.2711,203.1459
14:12:37:653,-0.3039,-0.5551,12.9978,52.8926,-0.5316,-0.0877,-0.2247,203.4498
14:12:37:672,-0.5264,-0.7537,13.5721,53.7536,-0.7197,-0.1487,-0.1807,203.714
14:12:37:692,-0.1651,-0.323,13.9454,53.0911,-0.8993,-0.3271,-0.072,203.8635
14:12:37:712,0.6987,-1.0217,13.6367,53.224,-0.9176,-0.4591,0.0196,203.9004
14:12:37:735,1.2634,-1.3352,12.5336,52.0292,-0.7515,-0.431,-0.0341,204.0059
14:12:37:755,1.2538,-1.0337,10.952,54.7907,-0.4668,-0.216,-0.1111,204.1999
14:12:37:774,1.6965,-0.4786,9.9494,53.0673,-0.1418,0.0846,-0.072,204.3577
14:12:37:791,2.3976,-0.1842,9.7292,51.9763,0.1404,0.1041,0.0343,204.4137
14:12:37:811,2.6728,0.0096,9.9111,51.8374,0.3481,-0.1048,-0.0072,204.5129
14:12:37:837,2.5842,0.0096,9.6048,51.733,0.5105,-0.2575,-0.2565,204.8765
14:12:37:856,2.2205,-0.2991,8.6907,51.9873,0.6217,-0.1377,-0.6157,205.6348
14:12:37:871,1.0935,-0.2058,7.748,51.9624,0.5484,0.1493,-0.9663,206.7641
14:12:37:892,-0.0383,0,6.9559,51.3078,0.2528,0.368,-1.1202,208.0487
14:12:37:913,-0.3493,0.3948,7.0947,52.9105,-0.4827,0.2874,-0.8441,209.2328
14:12:37:937,-0.0885,0.6006,7.657,52.1154,-0.6501,0.1506,-0.6938,211.0026
14:12:37:952,0.134,0.6197,8.205,51.8213,-0.6085,0.1506,-0.6645,211.7855
14:12:37:971,0.0359,0.6437,8.6525,51.2663,-0.4497,0.2238,-0.7391,212.6589
14:12:37:992,-0.2153,0.6365,8.9898,52.1245,-0.286,0.2226,-0.8502,213.6595
14:12:38:016,-0.2513,0.6341,9.5163,50.74,-0.176,0.109,-0.9101,214.7266
14:12:38:037,-0.1005,0.4738,9.6335,51.1584,-0.126,-0.0437,-0.9028,215.7702
14:12:38:055,0.0168,0.2153,9.8465,51.144,-0.1235,-0.0364,-0.8844,216.8078
14:12:38:072,-0.3589,0.1531,10.0379,50.7821,-0.1614,0.0272,-0.8905,217.8455
14:12:38:092,-0.7801,0.1244,10.27,50.5856,-0.2005,0.0553,-0.8832,218.8722
14:12:38:111,-1.2156,0.2465,10.6241,49.45,-0.2078,0.0492,-0.8123,219.8138
14:12:38:135,-1.5123,0.3924,11.2032,49.8247,-0.1467,0.0174,-0.656,220.5778
14:12:38:152,-1.5218,0.3302,11.7057,49.2568,0.0084,-0.0461,-0.4605,221.1209
14:12:38:173,-1.395,0.3278,11.9761,49.1651,0.2332,-0.1145,-0.3017,221.4857
14:12:38:191,-1.5458,0.3517,12.1603,50.1309,0.4397,-0.0718,-0.2137,221.7577
14:12:38:211,-1.6822,0.2728,12.0814,50.3968,0.568,-0.0131,-0.1648,221.9779
14:12:38:233,-1.6558,0.3374,11.6243,49.4005,0.64,-0.0376,-0.1172,222.1405
14:12:38:253,-1.9023,0.5575,11.3827,50.4225,0.6877,0.0235,-0.0671,222.2474
14:12:38:272,-2.1368,0.5815,11.2008,49.6116,0.7256,0.1298,-0.017,222.2887
14:12:38:292,-2.0961,0.2895,11.1912,50.3825,0.7439,0.12,0.0147,222.2963
14:12:38:312,-2.0746,0.0502,10.7557,48.9848,0.7072,-0.0779,0.0392,222.2717
14:12:38:334,-1.9621,0.1795,10.0977,50.9095,0.6168,-0.1842,0.1235,222.1489
14:12:38:353,-2.01,0.2895,9.6622,49.9579,0.5301,-0.0009,0.2774,221.8602
14:12:38:374,-2.2014,0.3924,9.3823,52.2106,0.3432,0.6466,0.501,220.7721
14:12:38:392,-2.3689,0.6174,9.9757,51.8336,0.2186,0.6612,0.4839,220.21
14:12:38:413,-1.8401,0.3829,10.2963,50.3045,0.1941,0.197,0.3532,219.8187
14:12:38:433,-1.3208,0.0191,9.9206,49.4518,0.3041,-0.3271,0.1137,219.7523
14:12:38:454,-0.9978,0.5432,10.3179,49.7199,0.2589,-0.4065,-0.0866,219.9243
14:12:38:543,-1.1797,0.9978,8.8128,50.488,0.2552,-0.2709,-0.1392,220.1407
14:12:38:544,-0.7896,0.7155,8.1021,49.7815,0.2662,0.153,0.0331,220.1294
14:12:38:544,-0.804,0.9619,7.3149,51.0922,0.111,0.4401,0.0941,220.0368
14:12:38:545,-1.5936,1.4979,7.6618,50.5676,-0.1198,0.4963,0.0477,219.978
14:12:38:556,-2.0195,1.663,8.6142,50.2406,-0.286,0.3827,0.0379,219.9366
14:12:38:572,-1.3735,1.2156,8.6812,50.2823,-0.2555,0.0895,0.1125,219.8325
14:12:38:591,-1.0098,0.9523,8.3462,50.5736,-0.0295,0.0235,0.1662,219.686
14:12:38:612,-1.5888,1.3831,8.2624,50.2785,0.2491,0.1762,0.1613,219.5204
14:12:38:633,-1.8521,1.8377,8.3868,51.8857,0.4556,0.186,0.2005,219.2974
14:12:38:653,-1.1821,1.9119,8.4921,50.4569,0.5655,-0.0449,0.3141,218.9959
14:12:38:674,-0.7035,2.0411,8.8965,51.8636,0.5814,-0.2489,0.3568,218.6852
14:12:38:692,-0.7394,2.4814,9.4708,50.2204,0.524,-0.3357,0.2615,218.4983
14:12:38:710,-0.6915,3.0173,10.2317,49.3865,0.4128,-0.3906,0.1149,218.4786
14:12:38:733,-0.1484,2.8403,10.7581,48.8756,0.2931,-0.3894,-0.0072,218.62
14:12:38:752,0.1627,2.2612,11.2176,49.0969,0.1587,-0.3455,-0.1844,218.941
14:12:38:771,0.1125,1.6367,11.6435,49.9332,0.0072,-0.4188,-0.4642,219.5683
14:12:38:791,-0.2273,1.1366,11.7966,51.0576,-0.1174,-0.5605,-0.7232,220.4796
14:12:38:815,-0.2225,0.5599,11.7847,49.0088,-0.1992,-0.6216,-0.7733,222.4335
14:12:38:834,0.3159,0.4164,12.1005,48.6313,-0.2261,-0.6399,-0.6706,223.2698
14:12:38:855,0.7226,0.055,12.347,49.6992,-0.275,-0.6729,-0.6621,224.1081
14:12:38:881,0.6963,-0.0455,11.8158,49.8132,-0.3031,-0.6777,-0.7183,224.9847
14:12:38:890,0.4546,-0.0048,10.4279,48.7442,-0.198,-0.3308,-0.6108,225.698
14:12:38:911,0.5408,0.1196,9.1502,49.4919,0.0219,0.3118,-0.2552,225.9481
14:12:38:935,0.8279,0.4786,8.4395,48.7887,0.1795,0.7052,0.1051,225.7594
14:12:38:956,0.7202,1.1677,8.6142,50.1375,0.1807,0.6063,0.242,225.438
14:12:38:985,0.9045,1.584,8.5687,51.2027,0.1172,0.2361,0.1577,225.2784
14:12:38:993,1.4429,1.127,7.9657,50.2267,0.0952,0.0406,-0.0793,225.4056
14:12:39:011,0.9332,0.7896,7.669,49.2063,0.0402,0.1029,-0.4214,225.865
14:12:39:031,-0.1268,0.95,7.5685,48.8957,-0.1235,0.1078,-0.6951,226.6286
14:12:39:052,-0.7825,0.9547,7.8006,48.47,-0.3275,0.0418,-0.7329,227.4217
14:12:39:071,-1.0217,0.9811,8.0447,50.4698,-0.4668,-0.018,-0.6083,228.0906
14:12:39:091,-0.9165,0.9858,8.1739,48.8305,-0.4717,0.0199,-0.4556,228.5915
14:12:39:112,-0.6772,1.0911,8.1212,49.1383,-0.3642,0.1762,-0.3591,228.9657
14:12:39:131,-0.9906,1.2802,8.5926,49.0604,-0.253,0.2911,-0.3298,229.2901
14:12:39:151,-1.3376,1.4931,9.5282,48.3749,-0.1883,0.1261,-0.3004,229.6096
14:12:39:172,-0.7633,1.2873,9.7388,48.8236,-0.0637,-0.3259,-0.2198,229.8798
14:12:39:191,0.1053,1.1055,9.4612,49.4676,0.199,-0.525,-0.1306,230.0753
14:12:39:213,0.4881,1.194,8.8965,49.1383,0.4763,-0.3149,-0.083,230.1954
14:12:39:234,0.1268,1.7635,8.7625,48.6019,0.5716,0.0137,-0.0732,230.2854
14:12:39:251,-0.1125,2.1751,8.7099,47.2362,0.4458,0.1506,-0.0329,230.3118
14:12:39:271,-0.2273,2.2516,9.9828,46.2629,0.0316,0.1554,0.0832,230.1678
14:12:39:293,-0.1603,2.345,10.5332,47.3413,-0.0123,0.0821,0.11,230.0364
14:12:39:310,-0.0502,2.522,10.8634,49.2424,0.0842,0.098,0.1455,229.8682
14:12:39:333,-0.012,2.747,10.9448,47.8574,0.2137,0.164,0.1369,229.6986
14:12:39:353,-0.0335,2.6728,10.8036,48.6019,0.2919,0.1945,0.0538,229.6197
14:12:39:371,-0.4905,2.5842,10.4064,47.3552,0.2833,0.2129,-0.0989,229.7094
14:12:39:392,-1.1533,2.3258,10.0499,47.2254,0.1819,0.302,-0.2552,229.9139
14:12:39:419,-1.6152,2.0842,10.2915,47.1761,-0.0185,0.3363,-0.3664,230.2386
14:12:39:435,-1.4357,1.3448,11.129,46.9218,-0.264,0.1176,-0.4544,230.692
14:12:39:451,-1.4261,0.5288,11.6794,49.1139,-0.4082,-0.3357,-0.5582,231.2978
14:12:39:470,-1.9693,0.3733,11.4879,48.2711,-0.2897,-0.5898,-0.6315,231.9976
14:12:39:490,-2.3928,0.3254,10.2533,47.3552,0.1123,-0.3833,-0.5387,232.56
14:12:39:511,-2.4407,0.2991,9.3559,47.5186,0.5997,-0.0131,-0.3041,232.7878
14:12:39:536,-2.254,0.5575,8.5519,46.0544,0.8759,0.0492,-0.0818,232.7861
14:12:39:550,-1.8066,1.1533,8.2863,46.2925,0.8025,-0.1903,0.0502,232.6803
14:12:39:569,-0.8853,1.3783,8.5352,45.9878,0.4849,-0.4689,0.0941,232.6064
14:12:39:589,-0.0479,1.3232,9.0568,46.869,0.1074,-0.6668,0.0428,232.6223
14:12:39:610,-0.0335,1.4165,9.4301,44.5322,-0.198,-0.6949,-0.0842,232.7787
14:12:39:630,-0.4642,1.4357,9.399,45.6356,-0.3642,-0.4579,-0.1844,233.0027
14:12:39:653,-0.8399,1.2658,8.9133,45.2898,-0.4143,-0.0486,-0.2113,233.174
14:12:39:672,-1.1821,1.1486,8.4634,46.2992,-0.4387,0.3595,-0.1819,233.2463
14:12:39:691,-1.6774,1.1821,8.2337,46.6999,-0.5523,0.5794,-0.0891,233.1697
14:12:39:709,-1.5075,1.6128,8.5256,45.1644,-0.7747,0.5965,0.0941,232.9136
14:12:39:733,-1.0887,1.3591,8.9133,44.0863,-0.9066,0.3802,0.2896,232.1844
14:12:39:751,-1.1533,1.5123,8.8989,46.5798,-0.7417,0.3668,0.2579,231.812
14:12:39:771,-1.206,1.4094,8.9827,46.9273,-0.4888,0.3961,0.2566,231.4329
14:12:39:791,-1.0816,1.2969,9.0497,45.685,-0.2164,0.3619,0.2518,231.0543
14:12:39:810,-1.0265,1.1079,9.0329,44.9059,0.0292,0.2275,0.2175,230.7398
14:12:39:833,-1.3926,1.2395,9.1669,44.9979,0.2173,0.0809,0.209,230.4348
14:12:39:851,-1.6582,1.3495,9.3918,45.1861,0.3358,0.0113,0.2591,230.0675
14:12:39:871,-1.6152,1.0816,9.2985,44.0732,0.3468,0.0528,0.3018,229.6351
14:12:39:890,-1.3783,0.7561,9.2531,45.4665,0.1831,0.1774,0.2542,229.2469
14:12:39:910,-1.0959,0.4881,9.3464,44.828,-0.2017,0.2898,0.1418,228.9697
14:12:39:932,-0.8064,0.3446,9.7723,43.6992,-0.7698,0.3204,0.0453,228.816
14:12:39:953,-0.7944,0.3254,10.8969,44.0049,-1.388,0.3387,0.0233,228.6812
14:12:39:974,-0.5934,0.1531,12.2321,44.0049,-1.8694,0.2141,0.1039,228.4867
14:12:39:990,0.0957,-0.1149,13.1749,43.8657,-2.0221,-0.073,0.2261,228.1715
14:12:40:009,0.8566,-0.8064,13.4979,44.6161,-1.7728,-0.31,0.2493,227.8278
14:12:40:032,1.0433,-1.5003,13.4859,44.3456,-1.2145,-0.409,0.1015,227.6231
14:12:40:051,0.4211,-1.4213,12.7825,42.4377,-0.5255,-0.4517,-0.1184,227.6108
14:12:40:071,-0.189,-0.9452,11.878,43.8455,0.1477,-0.3589,-0.1685,227.6758
14:12:40:091,-0.1627,-0.5192,10.9711,42.3204,0.6901,-0.222,0.0477,227.5169
14:12:40:111,0.5551,-0.4642,9.9015,43.2561,1.0615,-0.1463,0.3458,227.0461
14:12:40:131,1.3759,-0.4857,9.0473,44.4562,1.2509,-0.0266,0.49,226.4351
14:12:40:153,1.5745,-0.4881,8.3222,41.9549,1.2448,0.1383,0.3825,225.9493
14:12:40:174,1.3711,-0.4498,7.7647,42.2802,1.0383,0.2055,0.0575,226.0914
14:12:40:191,0.1914,-0.5408,7.6857,43.8995,0.2357,0.0027,-0.6841,226.8523
14:12:40:210,-0.6796,-0.4355,7.736,42.5912,-0.1724,0.0528,-0.8967,227.7125
14:12:40:231,-1.4261,-0.2919,7.5637,45.9493,-0.468,0.3778,-0.8979,228.581
14:12:40:251,-1.7827,-0.0574,7.1521,45.0735,-0.6256,0.864,-0.6938,229.2119
14:12:40:270,-1.8903,0.2177,7.0827,44.4378,-0.7063,1.3246,-0.3957,229.542
14:12:40:290,-2.0124,0.5982,7.2383,44.4655,-0.76,1.5702,-0.1306,229.6147
14:12:40:311,-2.1464,0.9787,7.7958,42.0901,-0.771,1.5396,0.0392,229.5488
14:12:40:331,-1.9406,1.1868,8.351,44.0075,-0.7099,1.2244,0.0954,229.4156
14:12:40:350,-1.6319,1.1629,8.7147,43.35,-0.5462,0.7394,0.0282,229.3596
14:12:40:370,-1.4907,1.0385,9.0066,44.3009,-0.3019,0.2996,-0.1502,229.4612
14:12:40:390,-1.6702,0.9763,9.4325,45.4336,-0.06,-0.0425,-0.3725,229.7562
14:12:40:411,-2.1966,0.9739,9.7173,43.8079,0.1098,-0.3186,-0.5387,230.2134
14:12:40:431,-2.6417,1.0792,9.947,45.197,0.1856,-0.4835,-0.5594,230.6955
14:12:40:451,-2.7852,1.1486,10.3131,44.0737,0.1941,-0.5055,-0.4067,230.9693
14:12:40:471,-2.4479,0.9787,10.593,44.4577,0.1697,-0.4346,-0.1563,230.9767
14:12:40:490,-2.2277,0.737,10.873,44.3395,0.1208,-0.2636,0.0428,230.7731
14:12:40:511,-2.2205,0.5743,11.0979,43.1802,0.0353,-0.0596,0.1198,230.5115
14:12:40:533,-2.4215,0.4522,11.0046,44.6833,-0.0783,0.054,0.1308,230.2334
14:12:40:617,-3.0006,0.4905,10.8084,45.4241,-0.1956,0.208,0.1271,229.9532
14:12:40:618,-3.5318,0.4092,10.8515,45.3243,-0.3251,0.3363,0.1259,229.6677
14:12:40:618,-3.5342,0.012,11.3827,44.1721,-0.4644,0.2068,0.1088,229.3956
14:12:40:618,-3.3499,-0.9236,12.2656,43.4802,-0.5707,-0.2367,-0.006,229.2083
14:12:40:632,-3.6682,-1.5003,12.5551,43.4802,-0.5597,-0.8745,-0.2284,229.1586
14:12:40:651,-4.5942,-1.6822,10.7868,42.2022,0.0329,-1.1725,-0.127,229.0672
14:12:40:672,-4.4411,-2.1535,10.1551,42.2022,0.4177,-0.6814,0.286,228.4292
14:12:40:695,-4.2186,-2.2229,9.9326,42.2022,0.6156,-0.3968,0.6171,227.4714
14:12:40:709,-3.7615,-2.0148,9.9733,42.2022,0.6022,-0.4407,0.7856,226.346
14:12:40:730,-3.0628,-1.9501,10.1862,42.2022,0.4629,-0.5959,0.8577,225.159
14:12:40:751,-2.4622,-1.7707,10.0953,42.2022,0.3212,-0.6998,0.8822,223.9655
14:12:40:771,-1.9334,-1.6487,9.5593,42.2022,0.3065,-0.5996,0.9261,222.7577
14:12:40:790,-1.7515,-1.529,8.8271,42.0632,0.4226,-0.3186,0.9762,221.5261
14:12:40:809,-2.0076,-1.072,8.2672,42.0632,0.5594,-0.0278,1.0288,220.1728
14:12:40:834,-2.1224,-0.5527,7.8963,42.7237,0.6547,0.1261,1.1265,218.7326
14:12:40:863,-1.9095,-0.1531,7.6762,41.3159,0.6914,0.2263,1.2719,217.1341
14:12:40:885,-1.5458,0.2919,7.7575,42.9611,0.6791,0.2837,1.3855,213.7219
14:12:40:904,-0.9093,0.524,7.2742,42.5655,0.739,0.2104,1.3977,212.0646
14:12:40:916,-1.3304,1.2395,6.9296,41.3404,0.4409,0.4682,1.1815,210.5654
14:12:40:937,-1.0074,1.3495,6.9081,40.4292,0.3529,0.3766,1.129,209.1595
14:12:40:955,-0.5671,1.3304,7.2838,39.2422,0.1709,0.3705,1.0434,207.8478
14:12:40:974,-0.4642,1.462,7.7575,40.3914,-0.0282,0.2556,0.8602,206.7541
14:12:40:996,-0.8231,1.5769,8.5041,38.8616,-0.2127,0.1896,0.639,205.9223
14:12:41:017,-0.8136,1.3113,9.3224,38.8616,-0.3239,0.0773,0.4619,205.2997
14:12:41:032,-0.1986,0.6867,10.0738,38.6365,-0.3361,-0.1402,0.3385,204.8306
14:12:41:051,0.256,0.2656,10.9232,40.9844,-0.3104,-0.4493,0.1687,204.5571
14:12:41:070,0.4283,-0.0191,11.6219,40.0519,-0.3263,-0.7608,-0.05,204.5581
14:12:41:089,0.4211,-0.2943,11.9713,40.9779,-0.4045,-0.8622,-0.1807,204.6605
14:12:41:110,0.4594,-0.7107,12.0526,39.0066,-0.5022,-0.6643,-0.1343,204.8731
14:12:41:129,0.7178,-1.1629,12.2178,39.0066,-0.6049,-0.3406,0.0379,204.715
14:12:41:151,0.9811,-1.3615,12.6724,39.0379,-0.7466,-0.1463,0.1821,204.3983
14:12:41:174,0.9834,-1.4381,13.2108,38.5861,-0.8688,-0.1158,0.2188,204.0451
14:12:41:190,0.8853,-1.4572,13.273,39.0066,-0.8382,-0.1341,0.2041,203.6989
14:12:41:210,0.993,-1.4357,12.5049,39.0066,-0.5743,-0.106,0.2579,203.2976
14:12:41:231,1.3185,-1.3543,11.6698,37.6624,-0.1492,-0.0596,0.4081,202.7429
14:12:41:251,1.8209,-0.9858,10.8802,37.2307,0.3016,-0.0693,0.5841,201.9913
14:12:41:272,2.2516,-0.4403,9.9589,37.6624,0.6633,-0.183,0.672,201.1573
14:12:41:290,2.5101,0.0598,8.8869,37.6184,0.8575,-0.299,0.578,200.4456
14:12:41:312,2.6034,0.4953,7.6259,37.1466,0.8502,-0.2844,0.2933,200.068
14:12:41:333,2.0937,0.7442,6.7047,36.9602,0.6303,-0.1317,-0.1147,200.13
14:12:41:353,1.3783,0.737,6.1472,36.3917,0.298,0.0699,-0.5008,200.5753
14:12:41:370,0.3493,0.8207,6.1352,39.825,-0.0392,0.2275,-0.794,201.3031
14:12:41:389,-0.3589,0.8542,6.4726,37.2945,-0.2774,0.2373,-0.9651,202.19
14:12:41:409,-0.8016,0.8183,6.9823,36.9602,-0.3508,0.0492,-1.0433,203.1609
14:12:41:430,-0.7753,0.6293,7.3436,37.8345,-0.2506,-0.2208,-1.0946,204.1855
14:12:41:451,-0.7705,0.3996,7.3196,37.92,-0.0478,-0.376,-1.1642,205.2872
14:12:41:472,-1.1103,0.4427,7.2646,37.934,0.1049,-0.2868,-1.218,206.4446
14:12:41:492,-0.9954,1.407,8.1739,37.6738,0.0793,-0.1084,-1.1666,207.5456
14:12:41:515,-0.4187,1.1605,8.4203,36.7376,-0.0612,-0.139,-1.0909,208.5837
14:12:41:532,-0.146,0.7226,9.2483,36.4241,-0.2237,-0.0754,-1.1422,209.6831
14:12:41:550,-0.1101,0.6843,9.9924,35.7901,-0.4216,-0.0412,-1.3181,210.9739
14:12:41:571,-0.469,0.335,12.414,35.2377,-0.8346,-0.244,-1.4977,212.4043
14:12:41:592,-1.4524,0.0885,13.6822,36.2741,-0.9372,-0.431,-1.389,215.3435
14:12:41:614,-2.4861,0.1292,14.2564,36.4529,-0.9091,-0.5263,-0.9895,216.1666
14:12:41:634,-2.7781,0.1531,14.3713,36.0763,-0.6574,-0.3455,-0.2956,216.2186
14:12:41:654,-1.9454,0.7442,14.2899,36.2387,-0.1541,0.0663,0.5095,215.4562
14:12:41:668,-1.3639,0.5575,13.1318,35.4762,0.5118,0.456,1.179,214.0215
14:12:41:689,-1.2156,0.5958,11.9354,35.0988,1.1116,0.8225,1.4368,212.3072
14:12:41:710,-1.1318,1.0265,10.6576,34.5069,1.3438,0.886,1.3159,210.7164
14:12:41:730,-0.7274,0.7944,10.215,34.704,1.1324,0.5403,1.0691,209.3804
14:12:41:751,-0.3254,-0.0311,10.7845,34.9415,0.5851,-0.0779,0.7514,208.384
14:12:41:770,-0.7178,-0.3087,11.4401,33.1134,-0.0942,-0.6423,0.3971,207.7609
14:12:41:791,-1.6343,-0.5743,10.9591,33.2002,-0.5291,-0.5263,0.2811,207.236
14:12:41:815,-2.5316,-0.7992,9.7843,33.2633,-0.5645,0.0943,0.5315,206.4112
14:12:41:830,-2.79,-1.139,9.1262,33.5563,-0.3532,0.616,0.9958,205.0614
14:12:41:853,-2.3928,-1.1486,9.4684,31.8655,-0.0637,0.7174,1.4051,203.2762
14:12:41:870,-1.8257,-0.7657,9.8417,32.6333,0.2124,0.4303,1.5932,201.3082
14:12:41:890,-1.084,-0.5623,10.0235,32.4254,0.4311,0.1298,1.5651,199.3751
14:12:41:909,-0.4714,-0.5168,9.7101,31.2355,0.5594,-0.084,1.3953,197.6235
14:12:41:932,-0.4666,-0.4905,8.9611,31.1392,0.5985,-0.1011,1.1839,196.1318
14:12:41:951,-0.8255,-0.2704,8.1045,29.4981,0.5643,0.0357,1.0544,194.7688
14:12:41:972,-0.9595,-0.055,7.3986,30.6399,0.4922,0.197,1.0825,193.375
14:12:41:990,-0.8782,0.122,7.2263,30.8701,0.4324,0.3277,1.2108,191.8376
14:12:42:012,-0.7107,0.6126,7.279,31.2231,0.3835,0.3619,1.322,190.1581
14:12:42:031,-0.0957,1.529,6.9631,29.1559,0.3578,0.3289,1.3208,188.4361
14:12:42:050,0.2991,1.9286,6.6784,30.0442,0.3713,0.2947,1.179,185.4848
14:12:42:069,0.28,2.467,6.5755,27.2543,0.3798,0.2238,0.9103,184.2999
14:12:42:088,0.0024,2.7685,7.0014,27.1364,0.3774,-0.0168,0.5376,183.5532
14:12:42:109,-0.1412,2.534,7.7264,27.5275,0.3761,-0.525,0.1259,183.3353
14:12:42:131,0.1747,2.0411,8.2983,27.3221,0.3774,-1.0724,-0.265,183.6214
14:12:42:153,0.2632,1.9238,8.8032,26.5261,0.3248,-1.2642,-0.579,184.2781
14:12:42:168,0.146,1.8544,9.4493,25.8358,0.1611,-1.0748,-0.6853,185.0369
14:12:42:189,0.4546,1.4859,10.3346,24.4666,-0.115,-0.7767,-0.5937,185.6387
14:12:42:210,0.6437,0.9811,11.5382,24.9569,-0.4925,-0.5959,-0.4752,186.0896
14:12:42:232,0.7466,0.5743,12.7298,25.2459,-0.9128,-0.6069,-0.4397,186.4693
14:12:42:252,1.1605,0.1627,13.4979,21.9157,-1.2512,-0.6594,-0.4324,186.8613
14:12:42:270,1.8879,-0.39,13.9549,24.1609,-1.4039,-0.5592,-0.3579,187.1823
14:12:42:289,2.4814,-0.9356,14.1559,25.0207,-1.3636,-0.3613,-0.2357,187.3446
14:12:42:310,2.747,-1.2323,14.0698,23.9735,-1.1583,-0.2147,-0.1465,187.382
14:12:42:331,2.4885,-1.4022,13.5051,24.2651,-0.8114,-0.0913,-0.1123,187.3703
14:12:42:350,2.0674,-1.2227,12.3494,22.9447,-0.3605,0.0577,-0.0671,187.3079
14:12:42:369,2.0818,-1.072,11.1864,23.1277,0.1391,0.1933,0.1027,187.0749
14:12:42:389,2.5053,-0.8423,10.2413,20.9649,0.6022,0.1933,0.3348,186.59
14:12:42:413,3.1011,-0.4834,9.2004,23.0224,0.9785,0.0553,0.468,185.9913
14:12:42:430,3.5629,-0.1412,8.1763,21.781,1.2448,-0.0192,0.4155,185.44
14:12:42:454,3.3787,0.1507,7.0158,21.9909,1.3376,0.0382,0.1723,185.1787
14:12:42:469,2.6584,0.3422,5.9055,21.9789,1.2069,0.2043,-0.1697,185.231
14:12:42:490,0.5049,1.0217,5.0106,21.5234,0.4397,0.3754,-0.7183,186.3486
14:12:42:519,-0.0239,1.2036,5.5872,22.3043,0.0561,0.3277,-0.8392,187.0448
14:12:42:529,-0.0096,1.2658,6.1783,19.8021,-0.1712,0.1102,-0.926,187.8546
14:12:42:548,0.3876,0.7777,6.128,21.9546,-0.2555,-0.0999,-1.0115,188.8268
14:12:42:568,-0.1986,1.718,7.5302,20.1611,-0.5218,-0.0498,-1.1007,189.845
14:12:42:588,0.0239,2.0435,7.2431,20.1611,-0.5585,-0.1805,-1.0567,190.8467
14:12:42:611,0.7585,1.7874,7.9896,21.0174,-0.5536,-0.0254,-0.8857,191.661
14:12:42:630,1.3232,1.4836,7.9514,19.8157,-0.5804,0.0919,-0.8869,192.4704
14:12:42:779,1.5386,1.2156,9.0856,19.9766,-0.6379,0.1958,-1.0078,193.4266
14:12:42:780,0.9834,1.1318,10.1695,20.458,-0.7417,0.1273,-1.1825,194.5459
14:12:42:780,-0.0766,1.0122,11.086,19.106,-0.8138,-0.0022,-1.3059,195.7901
14:12:42:781,-1.2658,0.7801,11.811,19.946,-0.7759,-0.0498,-1.2925,197.0078
14:12:42:781,-1.9884,0.6939,12.2034,18.5643,-0.6256,-0.1072,-1.0824,197.9565
14:12:42:782,-2.1535,0.9165,12.5815,18.3517,-0.3679,-0.1084,-0.6731,198.4804
14:12:42:782,-1.663,1.3519,12.8375,16.4593,-0.0527,-0.0473,-0.1612,198.4629
14:12:42:795,-0.9045,1.6319,13.1222,17.4408,0.2357,-0.0339,0.2701,198.0101
14:12:42:810,-0.2776,1.8664,13.1701,17.1921,0.4189,-0.1427,0.4448,197.3675
14:12:42:832,-0.0479,2.0554,12.8112,16.3478,0.5093,-0.2184,0.3837,196.8019
14:12:42:849,-0.1149,2.1272,12.3015,16.0448,0.5496,-0.1512,0.2237,196.423
14:12:42:869,-0.1196,2.2086,12.0526,14.254,0.5411,-0.128,0.0551,196.2326
14:12:42:889,-0.0861,1.9932,12.0742,14.9462,0.5228,-0.3186,-0.1343,196.4008
14:12:42:912,-0.2608,1.4477,11.8612,16.0025,0.4995,-0.7254,-0.3884,196.8646
14:12:42:930,-0.6317,0.7035,11.1027,14.2405,0.568,-1.0492,-0.6047,197.4197
14:12:42:951,-1.0672,-0.1842,9.478,15.3136,0.9088,-0.6154,-0.4348,198.6252
14:12:42:973,-0.9619,-0.2513,9.1358,15.2322,0.9577,-0.4053,-0.061,198.5375
14:12:42:997,-0.4642,0.0526,9.2841,15.1334,0.8258,-0.4163,0.2505,198.1344
14:12:43:009,0.3446,0.3709,9.3727,14.2577,0.5484,-0.5421,0.3544,197.6469
14:12:43:028,1.5027,0.2249,8.8152,14.4251,0.1917,-0.4859,0.2383,197.4705
14:12:43:048,1.8712,0.0407,8.7338,12.3034,-0.2579,-0.2147,0.0282,197.4849
14:12:43:068,1.2419,-0.1603,8.942,13.4396,-0.7454,0.0638,-0.0683,197.5394
14:12:43:091,0.4307,-0.2417,9.5665,12.7474,-1.129,0.3729,0.0648,197.3852
14:12:43:109,-0.213,-0.0215,9.935,15.0114,-1.3697,0.6857,0.3446,196.8901
14:12:43:130,-0.2489,0.39,9.935,15.8913,-1.4735,0.9984,0.6488,195.9218
14:12:43:149,0.0646,0.402,9.3607,11.6094,-1.4063,1.211,0.9371,194.6495
14:12:43:169,0.3159,0.2201,9.0616,13.0429,-1.1571,1.2684,1.1717,193.3455
14:12:43:189,0.0694,0.2728,8.729,11.5183,-0.7466,1.0962,1.3318,191.8892
14:12:43:212,-0.1244,0.3661,8.7912,14.2243,-0.2041,0.8787,1.4124,190.3545
14:12:43:232,0.055,0.2847,9.0186,13.6021,0.4055,0.6783,1.4063,188.827
14:12:43:249,0.1842,0.2656,8.808,10.3458,0.9711,0.4645,1.289,187.4259
14:12:43:268,0.0861,0.615,8.4036,13.1665,1.3841,0.3143,1.1057,186.2147
14:12:43:289,-0.0431,1.0672,8.2959,12.2384,1.5881,0.1652,0.9432,185.1806
14:12:43:310,0.3015,1.3615,8.4132,13.3763,1.5795,-0.1035,0.8089,184.3242
14:12:43:329,0.8997,1.3591,8.6357,12.4409,1.3548,-0.4432,0.6048,183.7553
14:12:43:351,1.5338,1.2443,8.9874,13.3763,0.9382,-0.6765,0.3202,183.5595
14:12:43:368,1.5529,1.1294,9.4397,12.6376,0.3639,-0.6839,0.0404,183.6739
14:12:43:391,0.9188,0.9523,9.8441,11.2802,-0.2848,-0.4823,-0.1074,183.933
14:12:43:409,0.4618,0.39,11.2798,10.8886,-1.2976,0.1432,0.3006,183.594
14:12:43:429,1.1366,0.0861,12.1268,9.2898,-1.4405,0.2129,0.6134,182.9307
14:12:43:448,1.6439,-0.0718,12.5886,11.2978,-1.3098,0.1347,0.7478,182.1449
14:12:43:468,1.8353,-0.1507,12.1866,11.9681,-0.9677,0.1041,0.7062,181.4163
14:12:43:490,1.8353,-0.1938,11.3563,11.1035,-0.534,0.197,0.6207,180.7802
14:12:43:516,2.0459,-0.1531,10.7725,9.4084,-0.1418,0.2813,0.5841,180.1926
14:12:43:529,2.2516,-0.2177,10.3226,12.1414,0.111,0.2178,0.5413,179.6594
14:12:43:548,2.2804,-0.0144,9.7507,12.6999,0.1941,0.0626,0.3996,179.2867
14:12:43:568,1.9454,0.2058,9.0903,11.2361,0.1538,-0.0083,0.209,179.1143
14:12:43:589,1.4309,0.201,8.5615,11.6537,0.0634,0.0565,0.0441,179.1057
14:12:43:613,0.9165,0.1531,8.193,11.6897,-0.0466,0.1469,-0.0732,179.2083
14:12:43:631,0.6174,0.2728,7.7767,12.1575,-0.1272,0.1884,-0.116,179.3488
14:12:43:649,0.4355,0.414,7.5326,11.7799,-0.1479,0.2312,-0.0683,179.4318
14:12:43:668,0.3183,0.5599,7.4273,12.0335,-0.0905,0.3155,0.0294,179.4037
14:12:43:688,0.2225,0.7442,7.4871,12.6437,0.0329,0.4499,0.1088,179.2842
14:12:43:712,0.6987,1.0528,7.8844,11.8227,0.1611,0.6124,0.1308,179.1513
14:12:43:728,1.3472,1.3543,8.0662,11.2783,0.2699,0.7993,0.0783,179.0891
14:12:43:749,1.151,1.529,8.0351,13.0955,0.3395,1.0558,-0.0854,179.1888
14:12:43:768,0.1795,1.7946,8.1859,12.4565,0.3688,1.1817,-0.3322,179.5212
14:12:43:792,-0.402,2.0506,8.5878,15.5349,0.3407,0.8995,-0.5912,180.1342
14:12:43:813,0.0838,1.9501,9.2746,14.5371,0.276,0.2507,-0.8282,180.9554
14:12:43:832,0.6174,1.5553,9.8632,14.7778,0.1831,-0.3076,-1.0946,183.815
14:12:43:850,-1.048,2.1942,11.1003,14.4785,0.0451,-0.4737,-1.5038,185.5005
14:12:43:867,-1.1055,2.1296,11.3539,13.9286,0.1257,-0.4994,-1.345,187.0069
14:12:43:889,-0.9428,2.0148,11.6363,13.5851,0.3664,-0.6142,-1.0469,188.1989
14:12:43:917,-1.2706,1.8568,11.8349,13.8344,0.5802,-0.6032,-0.7244,189.0257
14:12:43:927,-1.529,1.9741,11.6196,14.2079,0.6816,-0.6802,-0.4165,189.5184
14:12:43:948,-0.7633,2.0674,11.6267,14.8359,0.7989,-0.7731,-0.0622,189.6612
14:12:43:975,-0.2584,2.1846,10.9615,14.2079,0.7415,-0.5214,0.1479,189.5675
14:12:43:992,-0.4881,2.4287,10.5308,14.4025,0.524,-0.1011,0.1613,189.4023
14:12:44:007,-0.8447,2.1488,11.1099,15.8618,0.1196,0.1677,0.0294,189.3326
14:12:44:028,-1.2012,1.718,12.7083,15.9229,-0.3544,-0.018,-0.1587,189.3873
14:12:44:048,-1.4022,0.9523,13.4429,15.2772,-0.6574,-0.2709,-0.3151,189.6553
14:12:44:067,-1.8521,-0.1962,12.4857,15.2809,-0.5988,-0.128,-0.3041,189.8734
14:12:44:087,-2.388,-0.8207,10.8634,15.4568,-0.2188,0.2507,-0.0146,189.7101
14:12:44:111,-2.6154,-0.8327,9.7507,15.3576,0.2503,0.4755,0.435,189.0298
14:12:44:130,-2.4024,-0.3206,9.399,17.3963,0.5741,0.3558,0.8186,187.9681
14:12:44:149,-1.5553,0.1771,9.0473,15.6512,0.6449,0.0394,0.9933,186.7494
14:12:44:167,-0.7298,0.3876,8.7553,14.382,0.4715,-0.073,0.9115,185.6466
14:12:44:188,-0.5121,0.2656,8.6812,15.2772,0.1196,0.1139,0.7001,184.8608
14:12:44:209,-0.5575,0.1938,8.796,16.2823,-0.2481,0.3802,0.6293,184.0365
14:12:44:227,-0.5408,0.2273,8.8726,17.0928,-0.4375,0.5672,0.7478,183.0707
14:12:44:248,-0.7992,0.6437,8.7793,16.1514,-0.4106,0.6392,0.9127,181.9004
14:12:44:268,-1.0337,1.2873,8.7721,16.6407,-0.2323,0.6331,1.0495,180.5969
14:12:44:291,-0.8495,1.6463,8.5711,16.5351,0.0463,0.5158,1.146,177.8549
14:12:44:312,-0.0814,1.7133,7.4034,16.0398,0.6498,0.2348,1.1009,176.6355
14:12:44:333,-0.2871,1.9932,6.7884,17.2658,0.7427,0.1835,0.9567,175.4973
14:12:44:352,-0.4187,2.0674,6.4247,17.827,0.6254,0.2178,0.8309,174.5129
14:12:44:367,-0.5647,2.0459,6.5803,17.6725,0.3554,0.2495,0.7111,173.6349
14:12:44:388,-0.8614,2.1727,7.334,16.8201,0.0255,0.2031,0.5572,172.9161
14:12:44:408,-1.1031,2.2971,8.339,15.7722,-0.2383,0.1298,0.4216,172.3428
14:12:44:428,-0.9954,2.1105,9.2483,16.5351,-0.363,0.0638,0.3483,171.8896
14:12:44:448,-0.7274,1.8664,10.1671,17.1653,-0.3862,-0.0767,0.2811,171.548
14:12:44:469,-0.0574,1.5051,11.2319,16.4497,-0.3886,-0.3589,0.176,171.4047
14:12:44:492,0.5862,1.1151,12.1077,17.8496,-0.4094,-0.6888,0.0209,171.5286
14:12:44:509,0.871,0.9212,12.6676,16.3334,-0.4717,-0.8891,-0.1624,171.8605
14:12:44:527,1.2754,0.5384,13.005,17.0236,-0.5352,-0.8696,-0.2785,172.3175
14:12:44:548,1.7228,-0.0144,13.0768,16.3761,-0.6024,-0.7278,-0.2894,172.7717
14:12:44:567,1.9908,-0.4738,13.2514,17.1657,-0.6916,-0.5849,-0.243,173.1713
14:12:44:587,1.8042,-0.7729,13.4166,16.407,-0.7283,-0.4737,-0.1942,173.4548
14:12:44:607,1.0433,-0.6915,13.3352,16.5351,-0.6171,-0.3015,-0.149,173.6522
14:12:44:629,0.5599,-0.481,12.3853,16.3288,-0.2726,0.0003,0.0428,173.6007
14:12:44:647,0.8997,-0.3733,10.9041,17.8227,0.2662,0.313,0.4729,173.0901
14:12:44:667,1.7539,-0.2369,9.6287,17.7507,0.8306,0.4181,0.9701,172.054
14:12:44:690,2.7446,0.2823,8.4802,17.9968,1.2619,0.2691,1.2963,170.713
14:12:44:707,3.4911,0.9069,7.4273,17.1345,1.4892,0.0736,1.3501,169.3218
14:12:44:730,3.7687,1.3759,6.4056,19.195,1.472,-0.0144,1.1033,168.2576
14:12:44:748,3.3547,1.7539,5.549,20.6777,1.1581,-0.018,0.5694,167.756
14:12:44:767,1.2323,1.8161,5.2881,20.7219,-0.1455,-0.0852,-0.6999,168.7524
14:12:44:867,0.4977,1.5194,6.0371,20.7219,-0.7576,-0.1427,-0.9956,169.8361
14:12:44:868,0.2369,1.2897,7.0325,21.5062,-1.1204,-0.1988,-1.0213,170.9519
14:12:44:868,0.1603,1.3113,7.8413,20.1018,-1.1876,-0.1854,-0.9089,171.9426
14:12:44:868,0.2919,1.5075,8.4323,18.6132,-1.0325,-0.0913,-0.7672,172.7401
14:12:44:869,0.5934,1.7779,8.7218,18.5967,-0.7759,0.0223,-0.6401,173.4749
14:12:44:887,0.9428,1.9932,8.7266,17.9183,-0.5206,0.1249,-0.546,174.0959
14:12:44:909,1.0768,2.2038,8.8606,18.7267,-0.3385,0.1945,-0.5045,174.6589
14:12:44:927,1.0648,2.3378,9.009,18.7267,-0.2506,0.1799,-0.5143,175.2608
14:12:44:947,0.9858,2.3809,9.2507,17.6727,-0.2371,0.1322,-0.5509,175.9062
14:12:44:967,0.7872,2.4742,10.526,19.4078,-0.2542,0.1041,-0.601,176.6555
14:12:44:989,0.2704,2.6991,11.9617,18.1195,-0.2249,-0.0058,-0.6462,177.3923
14:12:45:009,-0.3063,2.6249,12.7418,20.2018,-0.0221,-0.0364,-0.6132,178.114
14:12:45:028,-0.859,2.5316,13.0648,19.0585,0.3493,0.0003,-0.4752,178.6078
14:12:45:047,-0.8064,2.5603,12.6868,20.121,0.7243,-0.0816,-0.2357,178.8756
14:12:45:067,-0.5958,2.6465,12.3374,19.0242,0.9552,-0.1634,0.0306,178.8702
14:12:45:090,-0.536,3.0173,11.9258,20.9221,0.9846,-0.1793,0.2334,178.6379
14:12:45:110,-0.5719,3.3045,11.6148,21.413,0.86,-0.1207,0.3739,178.2585
14:12:45:129,-0.3446,3.2423,11.6076,20.4486,0.6559,-0.0364,0.457,177.7885
14:12:45:148,0.0861,2.8929,12.2393,19.3696,0.4091,-0.0437,0.413,177.3997
14:12:45:167,0.0598,2.4574,13.084,22.1839,0.1404,-0.2111,0.2347,177.2504
14:12:45:188,-0.5049,1.8568,13.218,20.5199,0.0157,-0.3149,0.0697,177.2792
14:12:45:209,-1.1701,1.0098,11.8421,21.2788,0.1905,-0.1341,0.0685,177.2493
14:12:45:227,-1.6822,0.591,8.9707,21.2697,0.8783,0.3118,0.5914,176.1377
14:12:45:246,-1.2156,1.1629,8.5902,22.1725,0.9308,0.2422,0.8333,175.2391
14:12:45:266,-0.4977,1.5506,8.6046,21.2735,0.717,0.1408,0.8956,174.3139
14:12:45:287,-0.189,1.4189,8.8104,22.0274,0.3835,0.219,0.7856,173.5023
14:12:45:309,-0.3661,1.1557,8.8295,23.0766,0.0817,0.3607,0.5963,172.8467
14:12:45:326,-0.6269,0.9906,8.595,21.8936,-0.0637,0.4902,0.5034,172.2546
14:12:45:347,-0.7322,1.0959,8.2146,22.6143,-0.0441,0.5989,0.5865,171.538
14:12:45:366,-0.6461,1.3711,7.7958,21.9629,0.0707,0.6502,0.7893,170.6087
14:12:45:387,-0.2465,1.5936,7.255,22.2807,0.2161,0.6563,0.9958,169.472
14:12:45:410,0.1053,1.7157,6.7382,20.6223,0.3419,0.6576,1.1118,168.2256
14:12:45:427,0.1388,1.9908,6.3338,19.9902,0.4104,0.638,1.118,167.0212
14:12:45:447,0.1005,2.1918,5.9821,20.7212,0.3969,0.5476,1.0459,165.8771
14:12:45:467,0.0861,2.4359,5.8217,21.9629,0.3175,0.412,0.9432,164.8906
14:12:45:488,0.2034,2.6776,6.061,22.2773,0.1856,0.2679,0.837,164.031
14:12:45:509,0.5527,2.8522,6.5946,21.7126,0.028,0.12,0.7355,163.3804
14:12:45:528,1.072,2.8475,7.3077,22.9348,-0.1113,-0.007,0.6085,162.9312
14:12:45:548,1.2802,2.9647,8.1332,22.4248,-0.2127,-0.0999,0.4155,162.7601
14:12:45:567,1.261,2.9193,9.0736,23.1975,-0.2738,-0.1817,0.1711,162.8586
14:12:45:590,1.3974,2.6178,10.1288,22.9807,-0.3178,-0.3797,-0.0866,163.353
14:12:45:606,1.6152,2.5101,11.2032,24.2477,-0.396,-0.7645,-0.3701,164.2317
14:12:45:627,1.797,2.3521,12.2273,23.1125,-0.4864,-1.0589,-0.6376,165.4717
14:12:45:648,1.9071,1.8018,12.5312,23.7708,-0.5194,-1.0553,-0.8185,166.9313
14:12:45:668,1.9023,1.3854,12.39,24.8354,-0.4925,-0.7987,-0.8563,169.4863
14:12:45:688,2.2947,1.596,13.1725,23.5513,-0.5303,-0.4444,-0.4666,170.1726
14:12:45:708,2.2397,1.4668,13.1701,25.2422,-0.5804,-0.3833,-0.3261,170.8477
14:12:45:732,1.8616,1.127,12.4594,25.0064,-0.4961,-0.1402,-0.2711,171.4451
14:12:45:748,1.6199,0.9954,11.4855,24.8354,-0.2591,0.0943,-0.1685,171.8421
14:12:45:766,1.7515,1.0768,10.7797,24.0861,0.0267,0.1444,0.0257,172.054
14:12:45:787,2.2804,1.3854,10.1025,24.3649,0.2625,-0.0437,0.2359,172.0828
14:12:45:810,2.9671,1.517,9.3512,25.0287,0.436,-0.2404,0.3568,172.0853
14:12:45:827,3.2207,1.5123,8.3366,23.233,0.5313,-0.277,0.297,172.1935
14:12:45:848,2.8355,1.541,7.2838,24.4597,0.5118,-0.1744,0.077,172.4712
14:12:45:867,2.0674,1.6199,6.4678,25.1675,0.3676,-0.0498,-0.1734,172.9943
14:12:45:887,1.2897,1.73,6.0275,25.4369,0.1526,0.0223,-0.3432,173.6189
14:12:45:908,0.871,1.6774,5.726,26.175,-0.0343,0.0528,-0.3921,174.251
14:12:45:928,0.737,1.5745,5.5705,24.482,-0.1333,0.0821,-0.3615,174.8697
14:12:45:947,0.6317,1.7946,5.537,25.5993,-0.1541,0.1151,-0.3298,175.4302
14:12:45:970,0.5575,2.2014,5.5896,26.9669,-0.1516,0.1371,-0.3237,175.9597
14:12:45:992,0.6724,2.589,5.7428,28.7959,-0.1736,0.1615,-0.3359,176.5469
14:12:46:008,0.8542,2.881,6.0778,27.1405,-0.2542,0.1664,-0.3872,177.2271
14:12:46:029,1.2275,3.1466,6.8698,29.1448,-0.4118,0.0956,-0.5081,178.0457
14:12:46:047,1.4094,3.3093,8.0088,29.4567,-0.6427,-0.0571,-0.6963,179.1227
14:12:46:068,1.4309,3.2877,9.3607,30.4893,-0.8993,-0.2269,-0.9186,180.4489
14:12:46:090,0.9476,3.192,10.9065,29.8093,-1.0948,-0.3418,-1.1141,182.0229
14:12:46:108,0.2991,3.0461,12.1747,30.0049,-1.1339,-0.3846,-1.2033,183.635
14:12:46:126,-0.4068,2.8403,13.0146,30.4893,-0.9531,-0.3503,-1.1227,185.1213
14:12:46:146,-1.06,2.8427,13.5171,30.9787,-0.0954,-0.2392,-0.386,186.622
14:12:46:165,-0.5623,3.0844,13.2873,32.1691,0.3615,-0.1524,0.1601,186.6402
14:12:46:188,0.6796,3.2112,12.9691,31.4061,0.684,-0.0816,0.6366,186.1965
14:12:46:208,1.6726,3.4002,12.7346,31.211,0.7928,-0.0535,0.8431,185.5422
14:12:46:227,1.742,3.539,12.8853,33.7055,0.6743,-0.0767,0.7404,185.0277
14:12:46:247,1.3424,3.1346,13.2682,33.5184,0.4336,-0.1805,0.4998,184.7927
14:12:46:267,0.6221,2.5077,13.4453,34.226,0.2601,-0.3467,0.3067,184.7307
14:12:46:289,-0.0981,1.6941,12.4786,32.657,0.3371,-0.3674,0.2957,184.6708
14:12:46:310,-0.5719,1.1892,10.7892,33.3335,0.6767,-0.1402,0.512,184.3156
14:12:46:328,-0.5575,1.0289,9.5091,34.0347,1.0701,0.1102,0.8247,183.5856
14:12:46:347,0.0407,1.4165,9.0808,33.411,1.2619,0.0809,1.0227,182.6762
14:12:46:366,0.9069,1.998,9.1932,33.2825,1.1458,-0.1988,0.9738,181.9145
14:12:46:387,1.541,1.864,9.6933,34.7088,0.7903,-0.3577,0.6769,181.5683
14:12:46:407,1.2634,1.474,9.9709,35.8527,0.3419,-0.3002,0.2505,181.6635
14:12:46:427,0.3015,0.9643,9.7819,34.557,0.0255,0.0027,-0.0549,181.9249
14:12:46:449,-0.5192,0.5432,9.0114,35.9131,-0.0307,0.4377,-0.0769,182.0416
14:12:46:466,-0.9021,0.4403,8.0973,35.0875,0.1013,0.7981,0.143,181.8402
14:12:46:486,-0.9571,0.6891,7.2407,37.1095,0.2894,0.9508,0.4619,181.2489
14:12:46:506,-0.6532,1.0744,6.5659,36.0088,0.4494,0.9667,0.7661,180.3636
14:12:46:527,-0.1627,1.4333,6.1376,36.4993,0.546,0.9581,0.9982,179.228
14:12:46:547,0.268,1.8592,5.8289,38.5874,0.5606,0.9557,1.118,177.976
14:12:46:566,0.4953,2.2397,5.7691,38.938,0.5008,0.9361,1.1265,176.7953
14:12:46:587,0.4211,2.656,5.8217,39.6581,0.3713,0.8726,1.0508,175.721
14:12:46:608,0.4307,3.1633,6.2931,38.6505,-0.0172,0.6796,0.7637,174.8157
14:12:46:629,0.3661,3.2973,6.9224,38.4428,-0.231,0.5733,0.5767,173.2672
14:12:46:646,0.3541,3.3547,7.7862,39.6864,-0.4314,0.423,0.413,172.9846
14:12:46:666,0.3924,3.3691,9.0162,38.8899,-0.5914,0.2336,0.3043,172.8824
14:12:46:689,0.8112,3.1226,10.0834,41.1792,-0.6757,-0.051,0.2554,172.8847
14:12:46:709,1.3926,2.8283,11.4592,40.7346,-0.6745,-0.42,0.2261,173.0643
14:12:46:728,1.9693,2.522,12.3589,40.0173,-0.5914,-0.7303,0.1687,173.3871
14:12:46:748,2.1846,2.3067,12.4283,41.2555,-0.4583,-0.7413,0.0893,173.8027
14:12:46:767,2.1224,1.9023,11.9115,39.7208,-0.3617,-0.5043,0.0612,174.1317
14:12:46:786,2.2062,1.4501,11.7129,41.4749,-0.3996,-0.3174,0.0978,174.3771
14:12:46:807,2.7805,1.0337,12.4379,41.3153,-0.5255,-0.4004,0.1699,174.5789
14:12:46:827,2.936,0.859,13.3855,42.2331,-0.6085,-0.6118,0.2127,174.7733
14:12:46:846,2.7039,0.7489,13.8521,42.6314,-0.5181,-0.668,0.2664,174.8854
14:12:46:866,2.668,0.4187,13.0887,41.4663,-0.2017,-0.4689,0.435,174.7363
14:12:46:973,3.0102,0.3541,11.6339,42.0973,0.2283,-0.2184,0.7087,174.238
14:12:46:974,3.5749,0.5934,10.1049,42.0884,0.6168,-0.0974,0.9872,173.4327
14:12:46:974,4.0941,1.0289,8.595,43.1078,0.8807,-0.0754,1.1558,172.4479
14:12:46:975,4.2903,1.4309,7.2048,42.8344,0.9772,0.0052,1.1351,171.4713
14:12:46:992,4.0989,1.7276,5.9964,43.8143,0.8734,0.1713,0.9176,170.2863
14:12:46:993,2.6441,2.0339,4.5416,43.7599,0.1782,0.4719,0.154,170.2168
14:12:47:009,2.1033,1.9525,4.4913,42.2461,-0.2225,0.4731,-0.1587,170.4939
14:12:47:030,1.8066,1.9023,4.9077,43.6543,-0.5487,0.3253,-0.3701,171.0303
14:12:47:048,1.6893,2.0315,5.5561,44.6089,-0.7637,0.0883,-0.524,171.7506
14:12:47:068,1.8473,2.1129,6.0849,43.2413,-0.8675,-0.106,-0.6511,172.5131
14:12:47:090,2.2158,2.0985,6.8243,43.2497,-0.892,-0.1854,-0.7818,173.6042
14:12:47:110,2.4694,2.2516,7.5111,44.7631,-0.9042,-0.2367,-0.9406,174.8831
14:12:47:127,2.6345,2.2899,8.4586,44.8063,-0.9408,-0.2257,-1.1117,176.3661
14:12:47:149,2.5819,2.3163,9.2483,44.3436,-0.9885,-0.1487,-1.2876,178.0099
14:12:47:166,2.144,2.2947,9.9924,45.1576,-1.0276,-0.0144,-1.4513,179.7639
14:12:47:187,1.0983,2.4431,11.1075,48.0493,-1.052,0.0235,-1.5698,181.6172
14:12:47:208,0.1842,2.6967,12.3996,46.0187,-1.0093,-0.1329,-1.5515,183.4417
14:12:47:225,-0.1627,2.6106,13.2802,47.84,-0.7723,-0.3406,-1.3206,185.0161
14:12:47:246,-0.2728,2.4814,13.6343,47.4416,-0.3129,-0.3931,-0.9186,186.108
14:12:47:265,-0.4427,2.7422,13.8473,46.7782,0.2418,-0.3699,-0.4129,186.6371
14:12:47:287,0.3948,2.8594,13.2778,48.3559,0.761,-0.3992,0.1504,186.6039
14:12:47:306,1.4285,2.9886,12.3015,48.7446,1.1471,-0.299,0.6171,186.0581
14:12:47:326,1.8497,3.5414,11.05,49.0164,1.2741,0.0247,0.8321,185.2554
14:12:47:346,1.6223,4.0726,10.282,48.8399,1.0835,0.4303,0.8211,184.3782
14:12:47:367,1.1318,4.2975,10.3274,47.3691,0.6657,0.6722,0.7038,183.5803
14:12:47:387,0.9093,3.9865,11.0572,48.5628,0.2137,0.5696,0.5633,182.9434
14:12:47:411,0.8183,3.0365,11.6339,49.2397,-0.0417,0.2727,0.4338,182.487
14:12:47:430,0.4881,2.1727,11.4999,47.7833,0.0206,0.0614,0.3507,182.1505
14:12:47:447,0.213,1.6941,11.0477,47.6973,0.3053,0.0076,0.3617,181.8082
14:12:47:465,0.5264,1.395,10.5643,47.537,0.5887,-0.0327,0.4338,181.3899
14:12:47:487,1.1246,1.2108,10.325,47.7259,0.6755,-0.1524,0.4301,181.0101
14:12:47:505,1.4405,1.2036,10.5212,47.5675,0.4849,-0.2941,0.2823,180.8829
14:12:47:526,0.7944,0.5216,10.6002,48.956,-0.1064,0.0064,-0.0659,180.9822
14:12:47:546,0.1388,0.1172,9.8249,48.9496,-0.1357,0.4083,-0.0549,180.981
14:12:47:566,-0.3661,0.0191,8.7697,47.6064,0.006,0.7455,0.1491,180.6783
14:12:47:587,-0.5527,0.2513,7.937,48.2588,0.2112,0.9459,0.4961,179.9591
14:12:47:610,-0.3493,0.6939,7.1809,47.5148,0.4104,0.9569,0.8858,178.824
14:12:47:627,0.0933,1.0744,6.5755,48.856,0.5814,0.9068,1.2255,177.3393
14:12:47:646,0.6006,1.4118,6.0179,49.541,0.7219,0.8946,1.4503,175.647
14:12:47:666,0.9093,1.6869,5.4485,48.3316,0.8038,0.9068,1.5468,173.8261
14:12:47:688,1.2849,2.1679,5.0513,48.4497,0.7879,0.9239,1.5297,172.0061
14:12:47:707,1.5242,2.6082,4.9029,45.7377,0.6449,0.963,1.4051,170.3022
14:12:47:728,1.8473,3.058,5.324,45.9057,0.3713,0.9948,1.179,168.8321
14:12:47:747,2.5436,3.3212,6.4104,46.3752,0.0426,0.9202,0.8785,167.7266
14:12:47:766,2.9647,3.5127,8.1069,46.9289,-0.2054,0.7419,0.523,167.032
14:12:47:789,2.5842,3.4313,9.3799,45.6505,-0.2286,0.4657,0.1479,166.834
14:12:47:809,1.194,3.4672,11.2726,46.8736,-0.0661,-0.0583,-0.232,167.1609
14:12:47:826,0.8901,3.338,11.8301,45.6735,0.1367,-1.0858,-0.568,168.1686
14:12:47:847,1.4261,2.6441,11.6866,46.4187,0.3493,-1.7908,-0.783,169.6177
14:12:47:866,1.7779,1.9669,10.9711,47.3077,0.4543,-1.6405,-0.8759,171.1218
14:12:47:888,1.718,1.9238,10.7988,45.9804,0.2662,-1.0174,-0.8319,172.3987
14:12:47:910,1.8353,2.2421,11.5023,47.3505,-0.2445,-0.5153,-0.6132,173.2708
14:12:47:928,2.0698,2.3497,13.1031,47.9244,-0.8724,-0.3369,-0.3334,173.7701
14:12:47:947,2.1224,2.0291,14.266,46.3278,-1.2561,-0.3479,-0.1526,174.0702
14:12:47:967,1.9597,0.7274,11.2726,47.2399,-0.5792,0.2129,0.1039,174.2417
14:12:47:992,2.0889,0.8255,9.6909,47.3636,0.028,0.5953,0.3629,173.5872
14:12:48:007,2.6417,1.3352,8.5902,47.4386,0.447,0.649,0.6427,172.7744
14:12:48:025,3.5988,1.8185,7.7527,46.767,0.5973,0.4096,0.7905,171.8849
14:12:48:046,4.4387,2.1033,7.0588,48.205,0.4837,0.1444,0.6403,171.2543
14:12:48:068,4.197,2.1775,6.6736,44.7765,0.1514,0.0455,0.165,171.1603
14:12:48:090,2.9169,1.9693,6.451,46.767,-0.2933,0.0369,-0.4752,171.7185
14:12:48:107,1.6032,1.5745,6.2931,47.3412,-0.7014,0.0589,-1.0054,172.8101
14:12:48:128,0.5647,1.1964,6.2979,47.3264,-0.9628,0.1628,-1.2546,174.1204
14:12:48:146,-0.0359,1.072,6.3936,45.9173,-1.0679,0.3106,-1.2485,175.3724
14:12:48:166,-0.1723,1.2706,6.7621,46.5376,-1.0642,0.4022,-1.1031,176.4478
14:12:48:189,0.0981,1.6391,7.1067,47.73,-0.9946,0.4218,-0.948,177.368
14:12:48:205,0.6126,1.8999,7.7001,48.5949,-0.8908,0.4193,-0.871,178.2413
14:12:48:225,1.0074,2.1009,8.2959,47.2311,-0.8016,0.3937,-0.9113,179.1448
14:12:48:246,0.8207,2.2636,8.9037,47.8949,-0.7625,0.3424,-1.0543,180.2323
14:12:48:266,0.6078,2.2899,9.6191,47.7554,-0.7698,0.3228,-1.2057,181.4966
14:12:48:286,0.3111,2.1224,10.1527,49.3536,-0.815,0.3692,-1.3059,182.8775
14:12:48:305,-0.3111,1.809,10.8108,47.8451,-0.9005,0.4975,-1.356,184.2848
14:12:48:327,-1.3543,1.6845,11.4879,48.6022,-1.0154,0.6429,-1.3389,185.6329
14:12:48:345,-2.2469,1.6582,12.28,48.1882,-1.1265,0.7211,-1.1654,186.8104
14:12:48:367,-2.5771,1.5075,13.1797,49.9188,-1.1436,0.6637,-0.7855,187.5911
14:12:48:391,-2.3067,1.328,13.6104,48.6474,-0.9641,0.4413,-0.2491,187.8017
14:12:48:413,-1.8425,1.1964,13.6534,49.4923,-0.5731,0.2397,0.3409,187.3426
14:12:48:429,-0.8351,1.3854,12.201,47.8387,0.4043,0.2471,1.1668,186.3313
14:12:48:447,-0.5192,1.7372,11.3874,48.3998,0.6633,0.3558,1.2047,183.6777
14:12:48:465,-0.2082,2.0554,11.1888,47.9046,0.6156,0.2483,0.9774,182.5433
14:12:48:488,-0.2249,1.5506,12.0622,49.0522,0.2967,-0.216,0.4778,181.9806
14:12:48:507,-1.4501,0.9452,13.6654,47.012,-0.0807,-0.7193,-0.1001,182.0465
14:12:48:526,-2.4335,-0.1077,12.6245,46.6954,-0.1602,-0.8329,-0.2858,182.3094
14:12:48:546,-3.0126,-1.0265,10.8323,46.6446,0.0475,-0.464,0.0624,182.1863
14:12:48:566,-3.216,-1.06,9.5713,48.253,0.4116,0.0259,0.6183,181.4172
14:12:48:593,-3.0245,-0.0933,9.3751,48.2169,0.6999,0.2532,1.0593,180.1744
14:12:48:607,-2.3019,0.9117,8.8128,45.5869,0.7879,0.1139,1.1961,178.7729
14:12:48:626,-0.9595,0.5647,8.7266,45.4947,0.6559,0.0528,1.1644,177.4315
14:12:48:646,-0.4618,0.122,9.0688,46.5471,0.4446,0.1579,0.9921,176.2948
14:12:48:670,-0.7729,0.1555,9.2818,45.8596,0.3334,0.2495,0.8052,175.3473
14:12:48:690,-1.1318,0.2967,8.8774,46.7315,0.3908,0.3424,0.7759,174.4085
14:12:48:705,-1.2275,0.5312,7.8939,45.3046,0.5521,0.4694,0.8748,173.3375
14:12:48:725,-1.1797,0.9021,7.0349,45.2476,0.6694,0.5537,1.0129,172.1066
14:12:48:746,-0.8088,1.3185,6.5874,45.5931,0.6633,0.5464,1.1338,170.7432
14:12:48:766,-0.481,1.6965,6.6329,44.1838,0.5814,0.5158,1.1754,169.3338
14:12:48:791,-0.3709,2.0435,6.719,46.0237,0.4849,0.456,1.1155,167.9777
14:12:48:811,-0.3015,2.2062,6.8339,44.3622,0.425,0.3802,1.0068,166.7446
14:12:48:825,-0.0168,2.1894,6.8842,44.8379,0.3542,0.3033,0.8773,165.6855
14:12:48:846,0.0359,2.2325,7.4225,45.0138,0.2149,0.2544,0.7038,164.825
14:12:48:866,-0.213,2.2708,8.3868,44.6837,0.039,0.2165,0.5034,164.2107
14:12:48:889,-0.8159,2.1057,10.0642,42.5065,-0.0368,0.0186,0.2615,163.4861
14:12:48:912,-0.5695,1.7922,10.7725,43.5549,-0.0026,-0.2135,0.2334,163.2706
14:12:48:926,-0.2991,1.4405,11.5502,42.1589,-0.0258,-0.3943,0.2212,163.1079
14:12:48:945,0.0502,1.1605,12.0838,44.086,-0.0453,-0.4969,0.2224,162.9512
14:12:48:966,0.4283,0.9978,11.9163,44.5231,-0.0319,-0.4847,0.2322,162.7968
14:12:49:052,0.8255,0.9619,11.2774,44.2785,-0.0233,-0.3247,0.2566,162.5574
14:12:49:053,1.529,0.6532,10.8562,45.5826,-0.093,-0.1487,0.2554,162.2962
14:12:49:054,1.8449,0.4092,11.3707,45.5273,-0.2787,-0.1182,0.1308,162.14
14:12:49:055,1.2562,0.2034,11.9426,42.819,-0.4106,-0.0901,-0.0915,162.2476
14:12:49:067,0.5073,0.0574,11.3061,43.0535,-0.2958,0.0418,-0.2088,162.4592
14:12:49:093,0.4834,0.067,10.0977,43.7917,-0.0697,0.0687,-0.1319,162.5706
14:12:49:107,1.1629,0.2082,9.4612,44.5375,0.0329,-0.1182,0.0343,162.5459
14:12:49:126,2.0363,0.3374,9.399,43.1112,-0.0099,-0.4579,0.1015,162.5266
14:12:49:145,2.5436,0.4738,9.4564,43.198,-0.1186,-0.7242,0.0013,162.6641
14:12:49:165,2.5077,0.5097,8.9755,43.99,-0.1895,-0.6875,-0.2125,163.0187
14:12:49:189,1.6128,0.5815,8.0518,43.7917,-0.242,-0.3687,-0.4752,163.5753
14:12:49:208,0.6293,0.682,7.3053,43.5607,-0.3153,0.0064,-0.6608,164.2581
14:12:49:226,0.0431,0.8949,6.7956,43.8647,-0.374,0.2471,-0.6743,164.9065
14:12:49:246,-0.0742,1.2299,6.5204,43.5869,-0.3862,0.2739,-0.5766,165.4487
14:12:49:265,0.2297,1.5003,6.3482,43.5549,-0.363,0.1579,-0.4727,165.8922
14:12:49:286,0.5791,1.7061,6.1113,44.9422,-0.3447,0.0089,-0.4532,166.3497
14:12:49:306,0.6772,1.8544,6.2429,44.0072,-0.4192,-0.0987,-0.5448,166.9041
14:12:49:326,0.5408,1.8377,7.0517,44.2182,-0.5988,-0.1268,-0.7024,167.6417
14:12:49:346,0.3183,1.5482,9.2435,43.7157,-0.8272,-0.0425,-0.8881,169.491
14:12:49:365,0.1412,1.4524,10.1312,45.9618,-0.7979,0.0369,-0.8893,170.4155
14:12:49:389,-0.2249,1.4859,11.1888,44.8197,-0.7515,0.098,-0.8612,171.3104
14:12:49:408,-0.8973,1.6032,11.9091,45.9671,-0.6098,0.1786,-0.7782,172.0903
14:12:49:425,-1.8999,2.0602,12.3589,43.8635,-0.3862,0.2373,-0.5937,172.6329
14:12:49:445,-1.6678,2.1727,12.5719,46.4368,-0.1272,0.2019,-0.2161,172.7825
14:12:49:465,-0.5886,2.2708,12.4451,45.6337,0.1489,0.0614,0.22,172.4713
14:12:49:487,0.0502,2.4646,12.2034,44.5141,0.3896,-0.117,0.4314,171.9321
14:12:49:508,0.2034,2.4311,11.921,44.014,0.5105,-0.2685,0.4167,171.4218
14:12:49:528,0.0885,2.3737,11.6411,46.6029,0.5166,-0.3283,0.3446,171.0159
14:12:49:545,0.0646,2.5627,11.3228,44.3135,0.4299,-0.2477,0.3092,170.6295
14:12:49:567,0.1723,2.5986,11.6315,43.3596,0.2283,-0.0852,0.2518,170.2921
14:12:49:587,-0.1149,2.0961,13.2108,45.9978,-0.0661,0.0272,0.0832,170.1381
14:12:49:607,-0.9452,1.2849,15.0413,43.4787,-0.2164,-0.0327,-0.1001,170.1653
14:12:49:627,-1.651,0.347,14.8953,44.6471,0.0475,-0.161,-0.105,170.2187
14:12:49:646,-2.0219,-0.3733,12.4283,46.1261,0.6474,-0.1317,0.132,170.0094
14:12:49:665,-1.8736,-0.1196,9.8345,43.7679,1.1226,-0.0388,0.5279,169.3579
14:12:49:685,-1.0026,0.4666,8.4275,42.4924,1.1874,-0.0461,0.8663,168.3348
14:12:49:712,0.0335,1.0074,8.4802,44.8379,0.9162,-0.1048,0.9408,166.4376
14:12:49:728,0.3326,0.9595,10.3585,43.159,0.3297,-0.0376,0.4387,165.9667
14:12:49:747,-0.2919,0.7178,10.1575,45.3014,0.3468,0.1102,0.2237,165.6963
14:12:49:766,-0.8471,0.7705,9.0425,42.2848,0.5215,0.2837,0.1955,165.3575
14:12:49:789,-0.9643,0.8423,7.7432,43.7409,0.6669,0.4352,0.3043,164.8688
14:12:49:807,-0.7944,1.151,6.8722,42.8734,0.6767,0.5256,0.4607,164.2537
14:12:49:827,-0.5097,1.5529,6.5085,43.0362,0.5948,0.5953,0.5951,163.4153
14:12:49:850,-0.2776,1.7683,6.4415,43.0361,0.5179,0.6221,0.6537,162.5084
14:12:49:865,-0.1675,1.8855,6.3266,42.798,0.4837,0.5391,0.639,161.6382
14:12:49:890,-0.1412,2.0339,6.4199,43.4305,0.4494,0.3411,0.5999,160.8353
14:12:49:912,-0.0622,2.1224,6.5635,40.9991,0.4091,0.109,0.5816,160.1379
14:12:49:925,0.213,2.12,6.6568,42.798,0.3627,-0.0522,0.5682,159.4972
14:12:49:944,0.6413,2.0913,6.9583,41.2647,0.2638,-0.1035,0.5352,158.9167
14:12:49:965,0.8231,2.1775,7.6187,40.3788,0.1172,-0.0816,0.4656,158.3949
14:12:49:985,0.9667,2.2469,8.3701,42.176,-0.0123,-0.0681,0.38,157.9571
14:12:50:006,1.1246,2.1607,8.8271,41.9609,-0.0771,-0.1427,0.3031,157.6363
14:12:50:026,1.407,1.9741,8.8319,42.176,-0.1321,-0.2636,0.2334,157.4072
14:12:50:045,1.6845,1.8927,8.8798,40.7037,-0.2518,-0.3271,0.1552,157.308
14:12:50:064,1.8497,1.7827,9.0879,39.4043,-0.4436,-0.3271,0.0526,157.3046
14:12:50:084,1.9621,1.6917,9.6814,42.613,-0.7026,-0.288,-0.0695,157.4305
14:12:50:105,2.3521,1.4094,10.6672,40.0567,-0.9726,-0.2404,-0.1734,157.6371
14:12:50:125,2.8977,0.9523,12.5312,41.2167,-1.217,-0.3076,-0.298,158.0039
14:12:50:145,2.9025,0.5719,14.4885,41.0459,-1.3428,-0.4603,-0.4862,158.605
14:12:50:165,2.0865,0.146,15.2327,40.7325,-1.1766,-0.4884,-0.6804,159.3997
14:12:50:184,1.0983,-0.0766,14.199,39.405,-0.7307,-0.3418,-0.7341,160.209
14:12:50:207,0.8877,-0.1172,12.6293,40.1302,-0.2542,-0.2123,-0.5191,160.7716
14:12:50:225,1.6558,0.2871,11.6746,38.0268,0.0341,-0.332,-0.1526,160.9501
14:12:50:245,2.814,0.7513,10.9639,40.0023,0.1941,-0.5751,0.1076,160.8751
14:12:50:268,3.8716,1.0457,8.2122,39.8395,0.3273,-0.7987,-0.1807,160.8497
14:12:50:287,3.1154,0.9691,7.3292,39.1541,0.111,-0.6387,-0.5973,161.2104
14:12:50:307,1.7468,0.95,7.078,38.7351,-0.1602,-0.2416,-0.9748,163.0095
14:12:50:325,0.682,0.9715,6.5491,37.1189,-0.2701,0.1835,-1.1581,164.1737
14:12:50:344,0.1244,1.0768,5.9892,38.5445,-0.2567,0.3973,-1.1606,165.3354
14:12:50:364,-0.0215,1.4237,6.006,39.8203,-0.2823,0.3314,-1.0824,166.3774
14:12:50:384,-0.079,1.7683,6.4582,38.4438,-0.3129,0.1335,-0.9846,167.3615
14:12:50:406,-0.0431,1.9645,6.7549,39.7105,-0.2726,-0.0608,-0.9125,168.2998
14:12:50:427,0.2632,2.0172,6.7813,37.2725,-0.2188,-0.2172,-0.8783,169.2209
14:12:50:444,0.7657,2.1057,7.2191,38.1342,-0.2799,-0.2685,-0.8844,170.166
14:12:50:464,0.9739,2.2612,8.4562,37.6925,-0.4546,-0.1964,-0.9357,171.153
14:12:50:485,0.9452,2.2325,9.8919,39.2921,-0.6232,-0.0889,-1.0323,172.2532
14:12:50:508,0.6245,2.0698,11.2343,38.2145,-0.6818,-0.0131,-1.1349,173.4388
14:12:50:526,-0.1866,2.12,12.1412,37.2359,-0.6146,0.0699,-1.163,174.6591
14:12:50:548,-0.7944,1.9047,12.8327,37.6169,-0.4521,0.1518,-1.0469,175.7151
14:12:50:564,-1.3519,2.3402,13.8353,36.3493,-0.1186,0.1738,-0.8783,176.5782
14:12:50:585,-1.4812,3.0126,13.3735,36.6404,0.3652,-0.0095,-0.6657,177.2349
14:12:50:604,-0.6604,2.936,13.1127,37.1486,0.6791,-0.2025,-0.2601,177.4587
14:12:50:624,0.1172,2.9839,12.5001,37.9578,0.8306,-0.2721,0.0868,177.3297
14:12:50:645,0.2441,3.3476,11.8014,35.71,0.8563,-0.1536,0.2713,176.9848
14:12:50:667,0.1531,3.7065,11.4114,35.1046,0.7671,0.0675,0.3678,176.5128
14:12:50:692,0.1364,3.5103,11.8899,33.8869,0.5704,0.1151,0.3861,176.0223
14:12:50:712,0.3039,2.9097,12.6437,35.3242,0.3114,-0.2208,0.2603,175.7157
14:12:50:730,-0.8614,1.7061,11.9402,34.5995,0.2296,-0.6435,-0.1453,176.0045
14:12:50:745,-1.3567,1.1151,10.7414,35.248,0.5619,-0.2208,-0.0647,176.033
14:12:50:765,-1.6199,0.9739,10.0522,35.9159,0.8954,0.2092,0.1785,175.719
14:12:50:786,-1.3926,1.4501,9.7292,34.4408,1.0432,0.3069,0.4631,175.0731
14:12:50:812,-0.5838,1.8042,9.6263,35.0134,0.9919,0.2055,0.7087,174.2042
14:12:50:824,0.3661,1.7468,9.411,34.5058,0.8209,0.1273,0.8052,173.2487
14:12:50:844,0.8303,1.541,8.9252,33.3547,0.612,0.2006,0.7185,172.3912
14:12:50:864,0.4379,1.3735,8.0279,32.6205,0.4446,0.4939,0.556,171.6249
14:12:50:884,0.0407,1.3328,7.1043,34.263,0.3334,0.8982,0.4863,170.8182
14:12:50:908,-0.1795,1.3256,6.7884,34.5386,0.2442,1.2049,0.5535,169.8385
14:12:50:925,-0.3637,1.6534,7.1665,31.7686,0.1404,1.2049,0.7001,168.6951
14:12:50:945,-0.1412,2.0076,7.1809,33.1911,0.0683,0.8848,0.8809,167.4666
14:12:50:968,0.2536,2.1823,6.8937,33.4439,0.1025,0.5721,1.0691,166.1273
14:12:50:990,0.7896,2.3521,6.3936,32.5196,0.2515,0.4645,1.2316,164.6781
14:12:51:007,1.5099,2.522,6.0443,31.5237,0.4189,0.5525,1.3061,163.1242
14:12:51:027,2.1727,2.9169,6.1663,31.385,0.4763,0.715,1.2511,161.5738
14:12:51:044,2.3354,3.3787,6.6975,33.074,0.3578,0.726,1.0483,160.2084
14:12:51:194,2.0818,3.6467,7.5805,33.5738,0.1062,0.4841,0.7392,159.2263
14:12:51:197,1.7779,3.405,8.4156,33.074,-0.1467,0.0235,0.3654,158.7903
14:12:51:198,1.5529,2.7015,9.4469,33.3662,-0.286,-0.5287,-0.0475,158.9769
14:12:51:200,1.5099,2.199,10.5236,32.3843,-0.2933,-1.0883,-0.4495,159.7626
14:12:51:201,1.7755,1.8879,11.0142,31.9246,-0.2041,-1.5098,-0.7354,161.0073
14:12:51:201,2.0842,1.5458,11.2917,32.8773,-0.0807,-1.5317,-0.8319,162.3652
14:12:51:201,2.6824,0.9428,11.1984,31.3044,-0.0832,-0.6692,-0.6511,163.5647
14:12:51:213,3.0054,0.8925,11.9976,32.0731,-0.3727,-0.4261,-0.5729,165.2233
14:12:51:229,2.8259,0.9452,12.7633,30.9415,-0.771,-0.4835,-0.5704,165.9833
14:12:51:244,2.5699,0.6891,12.6341,31.4637,-1.0032,-0.4359,-0.5167,166.6602
14:12:51:264,2.601,0.2608,11.9187,31.7049,-0.9054,-0.1268,-0.3408,167.0582
14:12:51:284,2.6608,0.1579,11.2415,32.7584,-0.6024,0.1371,-0.1306,167.1649
14:12:51:311,2.7278,0.6628,10.4925,31.9587,-0.2884,0.1115,0.0331,167.0991
14:12:51:333,2.9886,1.0768,9.387,32.5587,-0.0588,-0.018,0.1088,166.9923
14:12:51:344,3.0556,1.1294,8.1476,32.5047,0.0622,0.0577,0.0575,166.9281
14:12:51:365,2.6082,1.1222,7.0325,32.7584,0.0524,0.2971,-0.1257,167.0007
14:12:51:384,1.6965,1.2371,6.1041,31.2598,-0.082,0.4902,-0.3518,167.2542
14:12:51:404,0.737,1.4429,5.5729,33.1965,-0.2897,0.5366,-0.502,167.6652
14:12:51:426,0.1866,1.5601,5.2331,32.0252,-0.4949,0.4315,-0.5289,168.1174
14:12:51:445,0.0407,1.6845,5.1374,33.326,-0.6427,0.2666,-0.4703,168.5388
14:12:51:464,0.2536,1.7827,5.19,33.4733,-0.7197,0.1615,-0.4141,168.934
14:12:51:484,0.39,1.9765,5.6638,33.48,-0.7649,0.1689,-0.4397,169.3812
14:12:51:511,0.3996,2.3354,6.475,31.8906,-0.8138,0.2068,-0.5607,169.9373
14:12:51:525,0.5982,2.5842,7.5182,32.446,-0.8846,0.142,-0.7329,170.6899
14:12:51:548,1.1222,2.8642,8.7793,32.6629,-0.9689,-0.0168,-0.9223,172.8757
14:12:51:570,2.1775,3.4409,11.2582,32.6711,-1.0349,-0.1842,-1.0909,174.1793
14:12:51:587,2.881,3.3643,12.146,34.4098,-1.0349,-0.2697,-1.1569,175.4763
14:12:51:608,2.278,3.2973,12.7537,33.2944,-0.9616,-0.1878,-1.152,176.7715
14:12:51:626,0.4164,3.4217,13.5984,34.7301,-0.6696,0.2776,-1.2705,178.1323
14:12:51:646,-0.5097,3.2566,14.3689,33.6223,-0.4082,-0.0022,-1.2021,179.4403
14:12:51:664,-0.1819,2.7637,14.6632,34.9165,0.0072,-0.5959,-0.9577,180.4833
14:12:51:686,0.591,2.4239,14.6824,34.3028,0.5448,-1.0406,-0.6706,181.245
14:12:51:706,0.8614,2.3785,13.9214,33.7798,1.0628,-1.0822,-0.4678,181.8035
14:12:51:726,0.1077,2.6345,12.7035,34.8559,1.3914,-0.7474,-0.3652,182.2286
14:12:51:744,-0.5001,2.7494,11.8564,35.0337,1.4097,-0.376,-0.2956,182.5558
14:12:51:764,-0.6389,2.4814,11.8397,33.0423,1.1214,-0.2428,-0.2662,182.8387
14:12:51:784,-0.5862,1.8473,12.4499,35.1895,0.6914,-0.3564,-0.2711,183.1393
14:12:51:812,-0.7418,1.072,12.2034,35.5665,0.4043,-0.5434,-0.2381,183.4287
14:12:51:828,-0.9763,0.2632,11.2582,35.9742,0.4519,-0.4383,-0.0671,183.5114
14:12:51:846,-1.0744,-0.1484,10.2772,37.6253,0.7341,-0.1487,0.1882,183.2768
14:12:51:863,-0.658,-0.0646,9.8824,34.8205,1.0115,0.0589,0.3837,182.7829
14:12:51:883,-0.1125,0.3661,9.6598,37.0912,1.097,0.0785,0.435,182.24
14:12:51:908,0.3278,0.7059,9.3942,36.9891,0.9443,0.1053,0.3898,181.7368
14:12:51:924,0.335,0.6963,9.3583,36.7415,0.6376,0.2629,0.3312,181.2639
14:12:51:949,0.0383,0.6269,9.2602,38.4167,0.3212,0.4254,0.275,180.7945
14:12:51:967,-0.2967,0.4618,8.9874,35.8486,0.1391,0.6038,0.2664,180.3154
14:12:51:984,-0.6556,0.3805,8.5519,38.3255,0.1269,0.8103,0.3214,179.6897
14:12:52:009,-1.0146,0.4475,8.1308,36.7807,0.2234,0.9715,0.4631,178.8824
14:12:52:024,-0.7489,0.7513,7.4345,39.1273,0.3749,1.0094,0.7197,177.78
14:12:52:044,0.0622,1.1821,6.7765,38.3003,0.535,1.051,1.0398,176.3486
14:12:52:064,0.7513,1.7492,6.4582,38.3126,0.6217,1.167,1.2426,174.6503
14:12:52:088,1.1222,3.0772,6.2189,37.7142,0.4055,1.1585,1.146,172.9548
14:12:52:107,0.9619,3.6012,6.2883,38.0911,0.1819,1.1133,0.9933,171.3896
14:12:52:127,1.7085,3.7974,6.451,37.6357,-0.0588,1.1817,0.8589,168.6957
14:12:52:145,2.8403,3.8524,6.743,40.9606,-0.3336,1.4505,0.7319,167.47
14:12:52:164,3.0796,4.1013,7.5565,39.6712,-0.633,1.7583,0.5767,166.3112
14:12:52:188,2.2588,4.2927,8.8774,38.9695,-0.9201,1.7266,0.3825,165.3781
14:12:52:205,0.9093,4.0415,10.9591,41.263,-1.0936,1.1817,0.1064,164.9236
14:12:52:224,0.2967,3.1561,11.7823,41.229,-1.0276,0.1701,-0.2626,165.157
14:12:52:244,0.1627,1.9143,12.0024,42.1175,-0.7099,-0.5666,-0.6596,166.0145
14:12:52:263,-0.0646,1.151,11.7392,40.5764,-0.3166,-0.6619,-0.9419,167.1967
14:12:52:284,-0.7155,1.1366,11.3659,41.0318,-0.0576,-0.4236,-0.9712,168.3643
14:12:52:307,-0.8949,1.1414,11.2032,41.5371,-0.0417,-0.194,-0.6926,169.155
14:12:52:324,-0.2823,1.0576,11.33,40.0807,-0.2335,-0.1268,-0.2601,169.473
14:12:52:345,0.591,0.8327,11.6674,41.517,-0.4912,-0.095,0.1223,169.38
14:12:52:367,1.0648,0.7466,11.5262,41.4755,-0.6452,0.0089,0.3165,169.0644
14:12:52:389,1.1414,0.7083,10.8203,41.5921,-0.6085,0.2324,0.3642,168.6652
14:12:52:404,1.1653,0.8519,9.8321,41.5883,-0.4546,0.467,0.3751,168.1949
14:12:52:423,1.2897,1.0289,9.0544,44.7356,-0.3068,0.5708,0.3776,167.7123
14:12:52:443,1.0241,1.2754,8.6429,43.6217,-0.2603,0.4987,0.2872,167.3166
14:12:52:463,0.6532,1.2873,8.2552,42.2879,-0.3104,0.2458,0.0722,167.1964
14:12:52:485,0.1651,1.0026,7.9825,43.1123,-0.3886,-0.0486,-0.2161,167.4272
14:12:52:509,-0.4283,0.737,7.6307,42.6003,-0.4436,-0.2355,-0.4862,167.9819
14:12:52:525,-1.0624,0.615,7.2503,43.5818,-0.4583,-0.2306,-0.634,168.6836
14:12:52:546,-1.876,1.1007,7.133,44.9983,-0.4363,-0.0339,-0.4727,169.8528
14:12:52:564,-1.3639,1.5386,7.2431,43.6707,-0.4008,-0.0559,-0.221,170.0782
14:12:52:583,-0.725,1.9836,7.8293,42.7085,-0.3605,-0.062,0.0269,170.0239
14:12:52:609,-0.6221,2.4981,8.9827,43.7415,-0.3385,-0.1549,0.1736,169.8182
14:12:52:628,-0.1388,2.6082,9.6526,45.1631,-0.2799,-0.5324,0.2579,169.5684
14:12:52:643,0.4522,2.388,9.8082,44.1062,-0.1492,-0.8647,0.2383,169.3765
14:12:52:664,0.8806,2.2493,9.6526,45.2656,-0.005,-0.7474,0.0514,169.3823
14:12:52:685,0.792,2.2253,9.6144,44.1509,0.0206,-0.2404,-0.2259,169.6545
14:12:52:708,0.1316,2.0698,10.0977,44.1644,-0.1687,0.2275,-0.4678,170.1248
14:12:52:726,-0.8447,1.8784,10.8515,45.8705,-0.4864,0.2581,-0.5924,170.7526
14:12:52:743,-1.5362,1.5314,11.7057,45.0169,-0.7038,-0.029,-0.5155,171.2838
14:12:52:764,-1.596,1.0983,12.3805,46.9267,-0.6244,-0.3345,-0.2223,171.5103
14:12:52:785,-1.3567,0.9715,12.6126,47.0246,-0.2542,-0.4872,0.1516,171.3356
14:12:52:808,-1.0026,1.1366,12.2752,46.4734,0.254,-0.3906,0.4985,170.7712
14:12:52:825,-0.6006,1.5099,11.4784,44.5049,0.6901,-0.1133,0.7453,169.9368
14:12:52:844,-0.2153,1.8831,10.6911,46.6063,0.8649,0.1518,0.8272,169.0171
14:12:52:863,0.1292,1.9836,10.5811,45.3304,0.7011,0.2776,0.7478,168.1585
14:12:52:882,0.1723,1.864,11.0548,46.7178,0.2796,0.1347,0.5303,167.5663
14:12:52:905,-0.2656,1.2395,12.0455,45.4194,-0.1834,-0.2428,0.242,167.3259
14:12:52:925,-0.9523,0.6174,12.481,47.015,-0.4094,-0.6277,0.0282,167.3934
14:12:52:944,-1.3448,0.0239,11.5597,48.4634,-0.2469,-0.723,0.0111,167.4186
14:12:52:964,-1.4596,-0.3446,10.5524,48.3542,0.1721,-0.376,0.1943,167.212
14:12:52:987,-1.3783,-0.2106,10.4112,47.0557,0.5643,-0.0107,0.4631,166.688
14:12:53:015,0.0574,0.5384,9.9063,46.1026,0.8294,-0.4298,0.7942,165.1216
14:12:53:026,0.6413,0.7466,9.5258,46.1026,0.761,-0.4982,0.7514,164.3851
14:12:53:043,0.6604,0.9117,8.9133,48.5517,0.601,-0.2978,0.6134,163.7812
14:12:53:063,0.469,0.9834,8.0877,47.1984,0.403,0.0247,0.5132,163.2366
14:12:53:088,0.3063,0.9858,7.4752,46.9757,0.2137,0.4096,0.5071,162.6258
14:12:53:104,0.3972,1.0122,6.9846,46.5367,0.0377,0.7358,0.5474,161.9313
14:12:53:124,0.4331,1.1318,7.2359,48.1109,-0.1198,0.8726,0.5767,161.1827
14:12:53:144,0.2608,1.4979,7.8532,49.9228,-0.2481,0.704,0.5633,160.4702
14:12:53:165,0.122,1.7898,8.0207,50.2335,-0.2799,0.3106,0.5437,159.819
14:12:53:191,0.2106,1.7228,7.8772,49.2267,-0.1773,0.0785,0.5315,159.2195
14:12:53:207,0.3254,1.6199,7.4632,50.0407,-0.0026,0.1163,0.4766,158.6711
14:12:53:328,0,1.7539,7.4106,51.2453,0.1037,0.3216,0.3837,158.1694
14:12:53:329,-0.1412,1.998,7.4178,49.2447,0.0622,0.434,0.3556,157.6884
14:12:53:329,-0.0814,2.0818,7.9466,51.2537,-0.0966,0.3912,0.4008,157.1719
14:12:53:329,-0.1053,2.1105,8.8391,48.9832,-0.2787,0.2544,0.4033,156.6745
14:12:53:330,0.0096,2.1009,9.6694,48.3319,-0.385,0.0675,0.347,156.2881
14:12:53:330,0.402,1.8401,10.4782,48.8581,-0.3825,-0.0962,0.2591,156.0465
14:12:53:342,0.6126,1.3519,11.0333,49.8223,-0.3263,-0.2978,0.0966,156.0183
14:12:53:365,0.6676,0.9906,11.2199,48.6903,-0.286,-0.5434,-0.1086,156.257
14:12:53:385,0.8447,0.7657,11.1936,49.2242,-0.2982,-0.6643,-0.2393,156.6335
14:12:53:403,1.3041,0.5767,11.2774,49.6427,-0.3679,-0.5666,-0.2308,157.035
14:12:53:424,2.1488,0.4235,11.586,48.6903,-0.5096,-0.4371,-0.138,157.3082
14:12:53:443,2.8594,0.1962,12,50.3116,-0.7026,-0.4359,-0.1319,157.5817
14:12:53:463,2.3019,-0.5073,12.3757,49.3704,-0.9176,-0.4371,-0.5411,158.0471
14:12:53:484,1.6965,-0.9188,12.0622,48.3009,-0.8004,-0.3051,-0.6266,158.7205
14:12:53:508,1.742,-1.3424,11.4568,49.2908,-0.5413,-0.266,-0.4947,160.1157
14:12:53:529,2.2421,-1.4955,10.6792,49.6794,-0.2213,-0.354,-0.2687,160.512
14:12:53:548,2.3761,-1.0528,10.0546,47.3416,0.0756,-0.4249,-0.1086,160.7363
14:12:53:562,2.1176,-0.323,9.0544,48.4286,0.2882,-0.3528,-0.0463,160.864
14:12:53:583,1.8114,0.0455,7.9083,47.3416,0.3798,-0.0559,-0.0146,160.9464
14:12:53:606,1.4979,0.1149,6.786,48.9758,0.3261,0.3155,-0.0292,161.0264
14:12:53:624,1.0385,0.2393,6.0634,48.7355,0.1538,0.5855,-0.0879,161.162
14:12:53:643,0.4307,0.5264,5.7643,50.9927,-0.0795,0.6734,-0.1477,161.3381
14:12:53:663,-0.0479,0.8279,5.7547,50.5155,-0.3031,0.616,-0.1783,161.5355
14:12:53:682,-0.1436,0.926,6.1256,49.5269,-0.4656,0.5085,-0.1942,161.7595
14:12:53:704,-0.0885,1.0002,6.6473,48.4304,-0.5536,0.3595,-0.2675,162.0599
14:12:53:723,-0.067,1.0816,7.2503,47.9566,-0.5707,0.2324,-0.4141,162.5402
14:12:53:743,0.0838,0.993,7.937,50.8907,-0.5523,0.153,-0.5839,163.2163
14:12:53:763,0.5551,0.8925,8.9444,50.2055,-0.5499,0.0516,-0.7354,164.0581
14:12:53:782,0.8829,0.7633,10.014,50.4495,-0.5865,-0.0718,-0.871,165.0458
14:12:53:806,0.792,0.5288,10.9663,47.3318,-0.6476,-0.1048,-1.0176,166.196
14:12:53:824,0.0646,0.2297,12.1842,50.8095,-0.6989,-0.0302,-1.1434,167.4691
14:12:53:845,-0.6891,-0.0766,13.2012,49.125,-0.666,-0.0571,-1.152,168.7203
14:12:53:870,-1.005,-0.4953,13.7109,50.2043,-0.4644,-0.2196,-0.9504,169.7542
14:12:53:889,-0.8064,-0.6485,13.8521,50.5241,-0.0832,-0.3137,-0.5582,170.3473
14:12:53:904,-0.3805,-0.3206,13.4429,50.3398,0.3896,-0.2306,-0.0598,170.4207
14:12:53:925,0.5958,0.8231,11.4808,49.991,1.0261,0.4902,0.8003,169.1004
14:12:53:948,0.7059,1.4501,10.5954,49.991,0.932,0.7736,0.9323,168.1564
14:12:53:965,0.8351,1.785,10.3346,47.8461,0.5887,0.8518,0.9017,167.2306
14:12:53:984,0.8566,1.6606,10.9615,47.0537,0.1404,0.6551,0.7062,166.5277
14:12:54:003,0.6174,0.9547,12.1484,50.0431,-0.2383,0.1188,0.3495,166.2115
14:12:54:025,-0.1938,0.3087,12.3733,50.7331,-0.3459,-0.4774,-0.0365,166.2779
14:12:54:043,-0.8949,-0.323,11.0979,50.2745,-0.0979,-0.5727,-0.1648,166.4739
14:12:54:063,-1.2586,-0.6628,9.6311,49.7829,0.3591,-0.1048,0.0257,166.4464
14:12:54:084,-1.1964,-0.5982,9.076,48.6484,0.7329,0.4083,0.3361,166.0967
14:12:54:105,-0.9667,-0.1172,9.0664,49.1513,0.8282,0.4059,0.512,165.5494
14:12:54:123,-0.3087,0.1531,9.3655,49.341,0.6523,-0.0364,0.5132,165.0115
14:12:54:145,0.3996,-0.1077,9.8393,50.2967,0.3432,-0.4603,0.3813,164.6724
14:12:54:162,0.2871,-0.2465,10.2245,48.0404,0.0451,-0.5666,0.1601,164.5862
14:12:54:182,-0.2273,-0.3852,9.7244,46.9703,-0.1015,-0.277,0.0465,164.5867
14:12:54:207,-0.28,-0.6843,8.9324,49.487,-0.0746,0.2556,0.1198,164.5002
14:12:54:223,-0.3685,-0.6652,8.8176,47.9791,0.0072,0.6136,0.2554,164.2435
14:12:54:243,-0.9667,0.0383,9.1621,48.1391,0.0646,0.5391,0.3813,163.8267
14:12:54:262,-1.2275,0.6293,9.1741,47.5795,0.1489,0.2006,0.5437,163.2299
14:12:54:283,-0.7609,0.6891,8.3318,47.5795,0.3371,-0.0473,0.7429,162.4398
14:12:54:305,-0.3829,0.6987,7.279,47.8385,0.5716,0.0492,0.8858,161.5029
14:12:54:326,-0.3613,0.9906,6.6305,47.5795,0.7133,0.3363,0.9445,160.4852
14:12:54:343,-0.4642,1.5577,6.8818,46.7834,0.6865,0.5207,0.9665,159.412
14:12:54:363,-0.1172,1.9238,7.1258,48.6984,0.5276,0.4767,0.9506,158.3793
14:12:54:389,0.0861,2.0076,8.2193,47.7842,0.1037,0.3228,0.6268,157.4881
14:12:54:405,-0.1125,1.931,9.198,47.8822,-0.0697,0.1579,0.3666,156.7651
14:12:54:428,0.3924,1.5147,10.1432,46.4202,-0.1785,-0.1915,0.1479,156.3621
14:12:54:442,1.2993,0.9858,10.9065,47.3746,-0.22,-0.5751,-0.028,156.5575
14:12:54:464,1.8855,0.4834,11.342,46.8276,-0.2286,-0.745,-0.2333,157.0408
14:12:54:484,1.5984,0.2345,11.4162,47.641,-0.2469,-0.6472,-0.4605,157.7535
14:12:54:504,1.0289,0.2082,11.141,47.4909,-0.2897,-0.42,-0.5619,158.5143
14:12:54:533,0.9811,-0.0048,11.0357,46.8631,-0.3532,-0.2196,-0.4409,159.123
14:12:54:542,1.3639,-0.2177,11.1434,46.5508,-0.4363,-0.183,-0.232,159.5291
14:12:54:562,1.5506,-0.2752,11.275,48.3169,-0.4974,-0.2538,-0.1184,159.7791
14:12:54:582,1.4429,-0.3039,11.0572,46.3242,-0.4619,-0.2685,-0.1001,160.0262
14:12:54:602,1.3759,-0.3876,10.392,47.4292,-0.3043,-0.1475,-0.0659,160.2076
14:12:54:623,1.3998,-0.3637,9.813,48.0841,-0.093,0.0027,0.0306,160.2853
14:12:54:642,1.8377,-0.201,9.7005,44.9017,0.0524,-0.04,0.1198,160.2696
14:12:54:663,2.199,0.0168,9.7531,46.908,0.0817,-0.2721,0.1015,160.3057
14:12:54:683,2.333,0.1795,9.7077,46.8477,0.0243,-0.4505,-0.0475,160.5065
14:12:54:704,2.01,0.1723,9.3751,46.9937,-0.0612,-0.3821,-0.2577,160.9343
14:12:54:725,1.1103,0.1747,8.5998,47.4946,-0.1528,-0.0767,-0.4446,161.5321
14:12:54:744,0.3493,0.2034,7.724,47.3421,-0.242,0.2397,-0.5069,162.1454
14:12:54:763,-0.1005,0.3254,7.1139,49.125,-0.308,0.4315,-0.4263,162.6709
14:12:54:789,-0.1938,0.5001,7.0014,46.3431,-0.3349,0.5036,-0.2797,163.0264
14:12:54:809,-0.012,0.7298,7.0445,46.3277,-0.3312,0.4267,-0.1551,163.2634
14:12:54:823,0.3541,1.0122,7.3388,47.8997,-0.3092,0.3106,-0.1062,163.4653
14:12:54:843,1.1246,1.3376,8.0662,46.8545,-0.2884,0.2544,-0.2601,164.0135
14:12:54:861,1.2251,1.3687,8.6142,49.0047,-0.3336,0.2886,-0.4373,164.6068
14:12:54:881,1.1246,1.2634,9.2698,49.0048,-0.4253,0.2666,-0.6303,165.4012
14:12:54:907,0.7849,1.0122,9.7125,47.4756,-0.5316,0.2544,-0.7818,166.3528
14:12:54:925,0.1699,0.5815,10.1767,47.8049,-0.611,0.4242,-0.8612,167.4011
14:12:54:943,-0.7585,0.4211,10.5428,47.2995,-0.6721,0.7003,-0.8307,168.3939
14:12:54:967,-1.7013,0.4451,11.2534,49.7703,-0.7429,0.9251,-0.5949,169.1266
14:12:54:987,-1.9669,0.524,12.2704,48.7641,-0.8016,0.9117,-0.1612,169.3936
14:12:55:004,-1.127,0.5145,13.529,49.5011,-0.7503,0.6661,0.3018,169.1927
14:12:55:027,-0.0359,0.4116,14.5388,48.6698,-0.5108,0.3204,0.5621,168.6926
14:12:55:044,0.0814,0.3111,14.589,48.9864,-0.104,0.0834,0.4827,168.2814
14:12:55:063,-0.7107,0.2919,13.6558,50.1767,0.3407,0.0773,0.2102,168.121
14:12:55:090,-1.3232,0.1723,12.4953,49.7835,0.6364,0.1762,0.0111,168.2105
14:12:55:105,-1.3519,-0.1819,12.3613,48.8687,0.6535,0.0956,-0.0585,168.3496
14:12:55:126,-1.1486,-0.6197,12.9236,50.0472,0.4348,-0.3674,-0.1551,168.554
14:12:55:143,-1.1151,-0.9882,12.9428,50.4926,0.2406,-0.8635,-0.2907,168.8859
14:12:55:163,-1.6367,-1.2586,11.6913,50.3995,0.3053,-0.8305,-0.3029,169.2348
14:12:55:183,-2.1248,-1.3687,10.1169,49.4317,0.5948,-0.3015,-0.0708,169.3251
14:12:55:205,-2.0937,-1.2538,8.93,50.199,0.8722,0.2801,0.297,169.0468
14:12:55:226,-1.7348,-0.7681,8.2169,50.7047,0.9406,0.5024,0.5951,168.457
14:12:55:243,-1.2347,0,8.1093,51.0678,0.772,0.379,0.7588,167.684
14:12:55:262,-0.6174,0.4355,8.3438,51.8772,0.4653,0.2019,0.8138,166.874
14:12:55:281,-0.0574,0.4666,8.6046,50.6563,0.1648,0.1383,0.7624,166.1244
14:12:55:304,-0.2345,0.5312,8.863,53.3866,-0.0466,0.2739,0.4888,165.0032
14:12:55:324,-0.725,0.5886,8.8606,51.7646,0.0487,0.313,0.4289,164.5519
14:12:55:475,-0.9691,0.6293,8.5328,52.0966,0.2259,0.2104,0.4534,164.077
14:12:55:477,-1.0457,0.6317,7.9442,53.0273,0.4519,0.1078,0.5279,163.5242
14:12:55:478,-1.0457,0.7896,7.267,53.301,0.6633,0.1457,0.6171,162.8444
14:12:55:479,-1.0983,0.9906,6.7238,52.1335,0.7903,0.2849,0.7013,162.067
14:12:55:480,-1.1151,1.3256,6.4247,53.2442,0.7842,0.3827,0.7746,161.2072
14:12:55:481,-1.0289,1.6534,6.4295,53.1779,0.662,0.368,0.8284,160.3135
14:12:55:482,-0.7992,1.864,6.9559,51.0652,0.4592,0.2959,0.8174,159.4288
14:12:55:484,-0.6628,1.9549,7.7408,51.1352,0.2027,0.1432,0.6732,158.7317
14:12:55:502,-0.8734,1.9501,8.9731,52.005,-0.0551,-0.084,0.4203,158.3653
14:12:55:521,-0.7585,1.6463,10.1216,52.2171,-0.231,-0.3503,0.1723,158.3116
14:12:55:541,-0.3829,1.1677,11.0333,51.8718,-0.2884,-0.5825,-0.0121,158.5057
14:12:55:561,0.1651,0.548,11.7057,52.2171,-0.2603,-0.6924,-0.1709,158.9169
14:12:55:583,0.6174,-0.0191,12.0838,51.5109,-0.2213,-0.679,-0.3347,159.532
14:12:55:603,0.4355,-0.2417,12.2513,53.3228,-0.2347,-0.5324,-0.4458,160.2218
14:12:55:623,0.1795,-0.1866,12.3517,53.6854,-0.3092,-0.2917,-0.3945,160.8193
14:12:55:643,0.4857,-0.3374,12.5025,53.3373,-0.4192,-0.1011,-0.1893,161.2039
14:12:55:662,1.084,-0.548,12.6987,53.922,-0.4998,-0.0217,0.0074,161.3776
14:12:55:682,1.5003,-0.7968,12.7801,53.2928,-0.4888,-0.0107,0.0722,161.4801
14:12:55:705,1.5099,-0.7466,12.1292,54.2221,-0.352,0.0199,0.0624,161.5841
14:12:55:723,1.4094,-0.5599,10.9759,53.3228,-0.0954,0.1652,0.1161,161.6226
14:12:55:742,1.6463,-0.335,10.0188,54.5782,0.1856,0.3118,0.2554,161.505
14:12:55:763,2.455,0.2297,8.6309,53.6033,0.4983,-0.0046,0.3251,161.2822
14:12:55:784,2.4718,0.5001,7.925,53.7379,0.4959,-0.1524,0.1406,161.0464
14:12:55:806,2.1368,0.591,7.1354,55.5164,0.3933,-0.1427,-0.1428,161.4238
14:12:55:823,1.4596,0.5025,6.5204,54.3297,0.2039,-0.0205,-0.4556,162.0835
14:12:55:842,0.6245,0.5862,6.195,55.3821,-0.0417,0.0687,-0.7134,162.9539
14:12:55:861,-0.1364,0.7489,6.2716,55.6346,-0.275,0.0577,-0.8246,163.944
14:12:55:887,-0.3302,0.7896,6.3314,55.2756,-0.4167,-0.0058,-0.7867,164.8477
14:12:55:905,-0.0957,0.6843,6.3482,54.6842,-0.4351,-0.0425,-0.6975,165.7043
14:12:55:924,-0.1053,0.9165,6.5851,54.0846,-0.3935,0.0211,-0.6706,166.5229
14:12:55:943,-0.213,1.4142,6.9464,55.8477,-0.3764,0.1041,-0.7097,167.389
14:12:55:962,-0.012,1.6152,7.4273,55.3237,-0.4241,0.142,-0.7439,168.2844
14:12:55:987,0.3326,1.5793,8.1452,57.4751,-0.5352,0.1151,-0.7879,169.2622
14:12:56:004,0.3517,1.4453,9.2913,56.5756,-0.6806,0.0223,-0.9015,170.3647
14:12:56:022,-0.0239,1.3639,10.4231,56.5268,-0.8065,-0.1072,-1.0701,171.651
14:12:56:041,-0.6796,1.2012,11.4736,55.8408,-0.8456,-0.1292,-1.1923,173.0339
14:12:56:062,-1.3448,0.9141,12.5073,57.4891,-0.76,-0.0535,-1.2057,174.4335
14:12:56:084,-1.9525,0.7322,13.2538,54.5667,-0.5597,-0.051,-1.0982,175.6992
14:12:56:106,-2.1751,0.6078,13.8497,55.8408,-0.2603,-0.1292,-0.8368,176.634
14:12:56:124,-1.7539,0.5456,13.7898,56.8766,0.1159,-0.2196,-0.4568,177.17
14:12:56:144,-1.194,0.7825,13.2682,56.6174,0.5105,-0.1377,-0.0414,177.2438
14:12:56:162,-0.658,1.1749,12.2225,58.479,0.8123,0.1029,0.3165,176.9619
14:12:56:182,-0.5288,1.6582,11.2582,58.4112,0.9003,0.3485,0.501,176.48
14:12:56:201,-0.6628,2.0363,10.794,58.5393,0.7402,0.456,0.4704,176.0439
14:12:56:223,-0.5408,1.2347,12.2895,58.301,0.0329,-0.0192,0.0734,175.6992
14:12:56:243,-0.7633,0.5192,13.0074,58.9315,-0.1565,-0.4725,-0.1538,175.9526
14:12:56:261,-1.5003,0.0431,12,58.7772,-0.0123,-0.5373,-0.2271,176.2715
14:12:56:283,-2.0315,-0.201,10.2221,58.653,0.3945,-0.1096,-0.0292,176.3384
14:12:56:305,-1.9573,-0.1914,8.9922,58.7118,0.8038,0.4364,0.3593,175.9371
14:12:56:322,-1.4333,0.1436,8.5232,58.7656,0.9687,0.5574,0.6512,175.2268
14:12:56:343,-0.6628,0.7298,8.5041,60.5581,0.8184,0.2055,0.7026,174.4967
14:12:56:361,-0.0383,0.8423,8.9204,61.6142,0.4776,-0.1219,0.5327,173.9894
14:12:56:383,-0.1149,0.536,9.2818,59.8405,0.0964,-0.2098,0.2114,173.8722
14:12:56:405,-0.7633,0.1938,9.2363,59.9322,-0.1638,-0.0754,-0.0695,174.0142
14:12:56:425,-1.3304,0.0048,8.8511,60.8301,-0.2225,0.2068,-0.1123,174.1682
14:12:56:448,-1.7468,0.0909,8.607,60.7119,-0.1272,0.4083,0.06,174.0837
14:12:56:461,-1.7659,0.4881,8.4897,61.6612,0.0377,0.4132,0.3348,173.7026
14:12:56:483,-1.2682,0.8614,7.9226,61.1636,0.2344,0.3631,0.6024,173.0455
14:12:56:504,-0.9284,1.0026,7.4608,60.7449,0.3896,0.5586,0.7404,172.2375
14:12:56:521,-0.8758,1.1557,6.7478,61.9727,0.4006,0.9178,0.7136,171.4264
14:12:56:541,-1.1174,1.3878,6.4654,60.5612,0.2393,1.178,0.6244,170.6351
14:12:56:561,-1.4309,1.6463,6.7645,61.3023,-0.0295,1.1743,0.5682,169.9113
14:12:56:582,-1.3759,1.7348,7.4728,61.7652,-0.2701,0.8543,0.5657,169.2384
14:12:56:606,-1.1342,1.7492,8.1428,59.817,-0.3556,0.4108,0.5523,168.642
14:12:56:622,-1.072,1.8042,8.6405,63.8677,-0.2555,0.1237,0.4558,168.2127
14:12:56:643,-1.1103,1.7348,9.2339,60.7236,-0.0649,0.0199,0.2738,168.0324
14:12:56:674,-0.5671,1.1749,10.6624,61.4912,0.0231,-0.6387,-0.2003,168.5248
14:12:56:696,-0.3876,0.8519,11.3085,62.9233,-0.1076,-0.9551,-0.4361,169.2592
14:12:56:710,-0.5049,0.4618,11.3611,62.5071,-0.2445,-0.9417,-0.5924,170.1433
14:12:56:727,-0.4786,0.1699,11.3468,61.1636,-0.3727,-0.6106,-0.5839,170.9962
14:12:56:741,0.5743,-0.268,11.9545,60.1111,-0.567,-0.2819,-0.4495,171.6904
14:12:56:761,1.139,-0.7155,13.5649,62.8844,-0.8675,-0.3125,-0.4251,172.3707
14:12:56:781,1.0624,-0.9954,14.8092,62.0585,-1.1253,-0.7071,-0.5949,173.2706
14:12:56:804,0.6102,-1.3185,14.8594,60.8783,-1.0569,-0.8952,-0.7354,174.2769
14:12:56:824,0.2034,-1.5769,13.4692,62.8258,-0.5768,-0.6521,-0.5778,175.0549
14:12:56:843,0.3206,-1.2706,11.8062,62.8258,0.1172,-0.2697,-0.0854,175.2915
14:12:56:861,1.0696,-0.6245,10.3513,62.8258,0.7659,-0.0302,0.5095,174.8992
14:12:56:883,1.9358,0.0814,8.8199,62.8258,1.2033,0.098,0.8956,174.1111
14:12:56:901,2.479,0.6245,7.279,62.8258,1.3438,0.3204,0.9506,173.2678
14:12:56:922,2.1248,1.1103,6.1352,62.8258,1.1336,0.5549,0.6855,172.6685
14:12:56:941,1.2132,1.4979,5.391,62.8258,0.6437,0.5623,0.2481,172.4888
14:12:56:963,0.3805,1.5194,5.214,61.4604,0.0939,0.4059,-0.1477,172.7141
14:12:56:981,-0.0861,1.2802,5.5561,60.6832,-0.3385,0.1786,-0.4214,173.239
14:12:57:002,-0.3757,1.084,6.2189,60.7269,-0.589,-0.0852,-0.6181,174.0114
14:12:57:023,-0.4618,1.0433,6.9918,62.2657,-0.6513,-0.2453,-0.7708,174.9509
14:12:57:042,-0.5456,1.0433,7.5709,62.3891,-0.5768,-0.2208,-0.8661,175.9902
14:12:57:064,-0.4044,1.005,7.9944,61.5106,-0.4632,-0.0913,-0.9003,177.0781
14:12:57:085,-0.268,1.0385,8.4132,62.5372,-0.4094,0.0064,-0.9174,178.1865
14:12:57:102,-0.3278,1.151,9.076,63.1932,-0.4521,0.0357,-0.9577,179.339
14:12:57:122,-0.2153,0.792,10.7581,62.4748,-0.6672,-0.0926,-1.0762,181.7691
14:12:57:141,-0.5575,0.5815,11.6291,62.4748,-0.6904,-0.1121,-1.119,183.0781
14:12:57:162,-1.3161,0.524,12.1747,63.7044,-0.5865,-0.0742,-1.0604,184.2808
14:12:57:186,-2.0339,0.6508,12.3733,62.9899,-0.3434,0.0125,-0.8221,185.205
14:12:57:205,-2.345,0.8829,12.4642,64.1669,-0.0099,0.1005,-0.3945,185.6345
14:12:57:222,-2.3139,1.3878,12.5097,64.1803,0.3248,0.1115,0.1125,185.5534
14:12:57:241,-1.4046,1.6989,12.134,64.5876,0.601,0.0443,0.5437,185.0423
14:12:57:261,-0.481,1.8042,11.5238,61.6873,0.7598,0.0333,0.7331,184.3615
14:12:57:282,-0.5551,2.187,10.8299,64.7177,0.7256,0.1493,0.6561,183.7158
14:12:57:304,-1.1079,2.3928,10.5212,62.0811,0.4666,0.2569,0.4668,183.2274
14:12:57:321,-1.5147,1.9717,11.0333,62.7108,0.0658,0.1738,0.2908,182.9535
14:12:57:341,-1.6271,1.1773,12.0096,60.822,-0.2836,-0.1646,0.1601,182.809
14:12:57:362,-1.7922,0.4714,12.6652,63.3656,-0.3813,-0.5874,0.0941,182.7492
14:12:57:380,-2.0339,0.0479,12.3183,63.7508,-0.1541,-0.7865,0.1479,182.6172
14:12:57:402,-2.0483,-0.213,11.2247,62.2064,0.3004,-0.6362,0.3898,182.2245
14:12:57:421,-1.5601,-0.1316,10.392,61.615,0.7598,-0.3235,0.7392,181.4535
14:12:57:441,-0.8638,0.2536,9.7412,63.5939,1.0151,-0.1536,0.9689,180.4409
14:12:57:461,-0.1938,0.6772,9.3512,63.3784,0.9944,-0.1597,0.9946,179.4144
14:12:57:602,0.1316,1.2873,9.4373,63.6517,0.7512,-0.2074,0.8932,178.5253
14:12:57:603,0.213,2.0746,9.8058,63.3418,0.3933,-0.1744,0.7588,177.7502
14:12:57:604,0.1651,2.3521,9.8991,62.2322,0.0781,-0.0364,0.6317,177.139
14:12:57:604,0.1914,1.7563,9.5522,61.8679,-0.0551,0.2129,0.4875,176.6287
14:12:57:604,0.323,0.9069,8.8008,62.3421,0.0072,0.4597,0.3128,176.325
14:12:57:605,-0.6341,0.7657,8.5089,62.7682,0.2283,0.5403,0.1174,175.9846
14:12:57:605,-0.6389,1.0385,8.3964,61.814,0.3004,0.2825,0.2432,175.7477
14:12:57:622,-0.1962,0.9404,7.7982,62.3942,0.4397,0.1188,0.3898,175.3918
14:12:57:641,-0.0191,0.8782,7.1378,62.2585,0.6156,0.2165,0.3935,175.0393
14:12:57:661,-0.1268,1.084,6.7454,60.8739,0.7097,0.4108,0.3006,174.7228
14:12:57:681,-0.1077,1.3185,6.6066,61.9139,0.6584,0.4621,0.2383,174.467
14:12:57:705,-0.1484,1.4644,7.1593,60.754,0.4641,0.3815,0.2029,174.2614
14:12:57:724,-0.2273,1.5051,7.8365,60.5115,0.21,0.1799,0.1479,174.1806
14:12:57:742,-0.0168,1.3304,8.8391,60.986,0.006,0.0113,0.1039,174.1697
14:12:57:761,0.3613,1.3017,9.5785,60.4616,-0.0905,-0.0779,0.0648,174.2844
14:12:57:782,0.7896,1.2275,10.1934,62.1053,-0.1101,-0.1219,0.0074,174.4518
14:12:57:803,0.9595,1.2491,10.605,63.0335,-0.1174,-0.2196,-0.1111,174.7786
14:12:57:822,0.6963,1.328,10.6648,61.9624,-0.1431,-0.299,-0.2552,175.2686
14:12:57:842,0.4977,1.4716,10.3035,62.0173,-0.1956,-0.2196,-0.3286,175.7977
14:12:57:860,0.7513,1.3974,10.2389,63.9262,-0.308,-0.0547,-0.2968,176.277
14:12:57:882,1.2897,1.2395,11.0237,62.8923,-0.5206,-0.0388,-0.2748,176.7503
14:12:57:902,1.9071,0.7513,12.1555,61.8042,-0.771,-0.2477,-0.3664,177.3829
14:12:57:922,1.9286,0.1747,12.9811,62.0006,-0.9176,-0.4749,-0.5423,178.2676
14:12:57:945,1.2538,-0.0407,12.9763,63.8912,-0.8443,-0.4786,-0.6877,179.2411
14:12:57:973,0.7298,-0.2895,12.079,61.6482,-0.523,-0.2538,-0.6291,180.0848
14:12:57:980,0.9284,-0.4068,11.0022,62.2267,-0.071,-0.051,-0.353,180.6236
14:12:58:002,1.3567,-0.0861,10.2437,62.0005,0.3138,-0.0144,-0.105,180.9054
14:12:58:023,1.7922,0.4259,9.5426,63.0214,0.5105,-0.1439,-0.0439,181.1234
14:12:58:042,1.8831,0.6269,8.1619,62.0316,0.3236,-0.1219,-0.3945,181.4922
14:12:58:062,0.9691,0.7083,7.6116,63.1758,0.0536,0.0296,-0.6181,182.8084
14:12:58:088,0.3733,0.8638,7.2694,62.9718,-0.1773,0.109,-0.6633,183.6165
14:12:58:108,0.2704,1.0002,6.9894,63.7014,-0.2787,0.1432,-0.5607,184.3224
14:12:58:126,0.2632,1.2682,6.8339,62.8002,-0.2579,0.208,-0.4617,184.8796
14:12:58:142,0.2919,1.6845,6.8866,62.9937,-0.1834,0.2849,-0.4202,185.3904
14:12:58:161,0.4857,2.0746,7.2455,64.1526,-0.1308,0.3143,-0.4385,185.938
14:12:58:180,0.5025,2.467,7.7671,63.6984,-0.1272,0.2348,-0.5228,186.5991
14:12:58:204,0.1795,2.613,8.2672,64.7121,-0.1528,0.1139,-0.6572,187.4016
14:12:58:221,-0.1412,2.4072,8.7888,63.9811,-0.1712,0.0174,-0.827,188.3894
14:12:58:243,-0.5384,2.2014,9.4421,65.2343,-0.1858,-0.0535,-0.9907,189.5448
14:12:58:261,-0.9643,2.1344,10.2197,64.1765,-0.2139,-0.1317,-1.053,190.7778
14:12:58:283,-1.3472,2.0842,11.1075,67.112,-0.2347,-0.2245,-0.9712,191.8933
14:12:58:304,-1.7324,2.0028,11.9115,63.2206,-0.1919,-0.2929,-0.794,192.7969
14:12:58:320,-1.8114,1.8568,12.2369,65.2342,-0.0539,-0.3002,-0.5729,193.4735
14:12:58:342,-1.7659,1.8161,12.4187,64.4922,0.1611,-0.2172,-0.3298,193.8515
14:12:58:361,-1.742,2.1105,12.2082,65.0746,0.3884,-0.0706,-0.0805,193.9512
14:12:58:381,-1.5338,2.3139,11.8181,65.7241,0.5655,0.1212,0.1613,193.7865
14:12:58:404,-1.194,2.4694,11.2511,65.759,0.6352,0.2886,0.3275,193.416
14:12:58:420,-1.1103,2.6824,10.8754,64.6862,0.5814,0.3839,0.3434,193.0189
14:12:58:442,-1.048,2.6345,10.8179,64.7484,0.4421,0.3925,0.264,192.7253
14:12:58:461,-0.7753,1.9143,11.3659,65.1612,0.2747,0.2202,0.1198,192.6427
14:12:58:484,-1.0504,1.1007,11.945,68.4745,0.133,-0.1524,-0.1074,192.8094
