Time,Acc_X,Acc_Y,Acc_Z,Meg,Gyr_X,Gyr_Y,Gyr_Z,Ore
13:38:05:884,-1.9932,1.5769,9.2602,56.9528,-0.2872,-0.0022,-0.1856,84.5592
13:38:05:919,-2.1344,1.7468,9.521,56.859,-0.242,0.0699,-0.1624,97.6668
13:38:05:935,-1.7013,2.7326,8.9539,57.0764,-0.242,0.0699,-0.1624,94.9127
13:38:05:957,-1.4692,2.7733,9.1071,57.5057,-0.0466,-0.0131,0.3324,93.0625
13:38:05:974,-1.2012,2.7206,9.5833,57.6483,-0.1357,-0.007,0.3434,92.0685
13:38:05:992,-0.9308,2.5364,9.9565,60.5695,-0.1785,0.0357,0.3153,91.6077
13:38:06:011,-1.1438,2.321,9.8082,57.6612,-0.1052,0.1591,0.242,91.4034
13:38:06:031,-1.8042,2.4311,9.3081,59.0876,0.0133,0.2764,0.1772,90.9967
13:38:06:052,-1.8927,2.5268,8.7984,57.5972,0.0915,0.2691,0.2127,90.5868
13:38:06:070,-1.5147,2.522,8.4706,59.3755,0.0964,0.1872,0.3006,89.9686
13:38:06:089,-1.3232,2.4742,8.5783,57.291,0.0292,0.1066,0.3202,89.4194
13:38:06:110,-1.4931,2.3952,8.9324,58.501,-0.0979,0.0504,0.2542,89.0825
13:38:06:130,-1.7898,2.2038,9.411,57.005,-0.2103,0.0638,0.1907,89.0384
13:38:06:149,-2.1296,2.1655,9.7436,58.9305,-0.2542,0.087,0.1968,88.9525
13:38:06:170,-2.12,2.1583,9.813,58.2307,-0.2115,0.1017,0.2798,88.7977
13:38:06:190,-1.9119,2.2277,9.7723,59.0001,-0.1321,0.1029,0.3751,88.5041
13:38:06:211,-1.7228,2.3737,9.7436,57.4332,-0.0844,0.0687,0.4252,88.0338
13:38:06:253,-1.5027,2.5579,9.6718,57.1651,-0.0673,0.0296,0.4326,87.475
13:38:06:254,-1.4022,2.6871,9.5593,57.9081,-0.0637,0.0553,0.402,86.8577
13:38:06:274,-1.462,2.7733,9.4038,58.3305,-0.0795,0.0943,0.3422,86.2841
13:38:06:290,-1.6989,2.7805,9.277,57.291,-0.1186,0.098,0.2738,85.8043
13:38:06:310,-2.0219,2.8714,9.2578,57.3176,-0.1724,0.0834,0.2139,85.402
13:38:06:332,-2.2397,2.9767,9.4828,57.1865,-0.2176,0.1066,0.1907,84.9885
13:38:06:366,-2.321,2.9193,9.6526,57.6433,-0.2139,0.1396,0.2041,84.5858
13:38:06:371,-2.5771,2.9025,9.5641,56.4421,-0.1369,0.1396,0.22,84.1642
13:38:06:401,-2.6656,2.9025,9.1669,57.8306,-0.005,0.109,0.2505,83.7199
13:38:06:410,-2.4072,2.9384,8.9731,57.944,0.0854,0.087,0.3104,83.1913
13:38:06:433,-1.9669,2.7709,9.0832,57.0417,0.0866,0.0321,0.3593,82.7045
13:38:06:460,-1.7922,2.589,9.3081,59.0364,0.0475,-0.0217,0.3409,82.3309
13:38:06:475,-1.9406,2.5172,9.5569,56.3553,0.0047,-0.0559,0.2493,82.0915
13:38:06:491,-2.1368,2.4383,9.9063,55.0534,-0.0148,-0.0522,0.1662,82.0112
13:38:06:512,-1.6989,2.2947,10.057,57.1865,0.1208,-0.0669,0.2298,81.9176
13:38:06:548,-1.2706,2.479,9.6933,58.2509,0.2002,-0.1035,0.2628,81.6776
13:38:06:549,-1.0098,2.6465,9.277,56.8391,0.2015,-0.1231,0.2469,81.4378
13:38:06:578,-0.7825,2.8092,8.9635,56.8736,0.1184,-0.1145,0.209,81.1619
13:38:06:590,-0.4834,2.7924,9.1286,57.4799,-0.0246,-0.0938,0.1674,80.9725
13:38:06:610,-0.2153,2.5555,9.5713,56.0831,-0.1712,-0.1427,0.0966,80.9026
13:38:06:645,-0.0646,2.3928,10.1456,55.0654,-0.2591,-0.244,0.005,81.0653
13:38:06:651,0.213,2.2445,10.4734,57.9096,-0.2579,-0.3858,-0.0549,81.3107
13:38:06:683,0.3996,2.1512,10.4901,56.0831,-0.1968,-0.4505,-0.0732,81.636
13:38:06:690,0.402,2.3139,10.3777,57.3341,-0.1504,-0.3784,-0.0475,81.871
13:38:06:710,0.3493,2.3809,9.8824,55.6018,-0.082,-0.1549,0.0269,81.9003
13:38:06:746,0.0694,2.7781,9.478,56.2941,0.039,0.0406,0.0893,81.7393
13:38:06:752,0.0407,3.0078,8.7984,58.3946,0.2088,0.0174,0.088,81.5371
13:38:06:771,0.1747,2.9527,7.9011,56.8714,0.4018,-0.0926,0.0367,81.3679
13:38:06:790,0.0814,2.9336,7.5206,56.7543,0.4543,-0.1915,-0.0439,81.3466
13:38:06:810,-0.2273,2.7494,7.7599,56.9972,0.3334,-0.222,-0.0842,81.422
13:38:06:838,-0.5767,2.5962,8.1212,56.763,0.1685,-0.1769,-0.0585,81.5298
13:38:06:854,-0.5815,2.8331,8.0518,57.1123,0.0548,-0.1048,0.0245,81.4913
13:38:06:873,-0.1651,3.0748,8.0303,55.7215,-0.0795,-0.0522,0.1051,81.3045
13:38:06:904,0.3398,2.9097,8.9563,57.1123,-0.3056,-0.1048,0.088,81.1909
13:38:06:909,0.3996,2.6967,10.3203,58.5154,-0.5035,-0.2135,-0.0475,81.3432
13:38:06:933,-0.1675,2.668,11.4209,57.1381,-0.4802,-0.2514,-0.1978,81.7255
13:38:06:949,-0.6197,2.7398,11.4616,57.6968,-0.2481,-0.2086,-0.2369,82.1125
13:38:06:969,-0.0096,3.1154,9.0664,57.1123,0.3029,0.1982,0.0013,82.2516
13:38:06:990,0.0933,3.125,8.8415,56.2174,0.2882,0.1591,-0.0048,81.9905
13:38:07:010,-0.1507,3.015,9.2171,57.3396,0.2015,0.0162,-0.0842,82.042
13:38:07:034,-0.3398,2.9886,9.3488,57.18,0.2186,-0.0754,-0.1184,82.1667
13:38:07:053,-0.1029,3.0245,8.9898,57.3983,0.2967,-0.0669,-0.0854,82.27
13:38:07:072,0.0909,3.0078,8.8223,57.3296,0.3016,-0.0425,-0.0488,82.3141
13:38:07:090,0.0383,3.3236,8.9874,56.9746,0.2332,-0.084,-0.0402,82.3506
13:38:07:109,-0.2991,3.6634,9.32,56.5754,0.1477,-0.1573,-0.0488,82.3962
13:38:07:135,-0.3972,3.7065,9.8536,59.1926,0.1123,-0.1744,-0.0512,82.4818
13:38:07:153,-0.3852,3.5031,10.1432,60.2241,0.166,-0.1353,-0.0475,82.5711
13:38:07:171,-0.5719,3.3165,10.1049,61.656,0.2515,-0.0938,-0.0414,82.6793
13:38:07:190,-1.1868,3.4098,9.9709,61.3539,0.287,-0.0657,-0.0195,82.7603
13:38:07:211,-1.6558,3.5414,9.6096,61.2774,0.2613,0.0223,0.0331,82.7274
13:38:07:231,-1.9406,3.594,8.9492,57.5184,0.2491,0.2055,0.1051,82.6097
13:38:07:250,-2.0913,3.5198,8.6596,59.8349,0.2222,0.302,0.1711,82.3641
13:38:07:271,-1.8951,3.1226,8.9874,60.361,0.1269,0.2092,0.2127,82.1467
13:38:07:290,-1.8305,2.7757,9.7555,61.4422,0.0206,0.0418,0.209,81.9806
13:38:07:311,-2.3521,2.8905,10.2269,59.997,0.0133,-0.0351,0.2114,81.9387
13:38:07:331,-2.3067,2.9575,9.655,59.997,0.1831,0.1078,0.3177,81.6839
13:38:07:349,-2.0339,3.0748,8.2552,59.2797,0.4226,0.456,0.4704,81.0852
13:38:07:370,-1.5529,3.3356,7.6187,61.6236,0.5069,0.6942,0.5389,80.2703
13:38:07:392,-1.3352,3.3476,7.7504,59.2623,0.3786,0.5366,0.4546,79.6143
13:38:07:414,-1.742,3.2518,8.339,56.9356,0.1477,0.1701,0.2481,79.3607
13:38:07:433,-2.8451,2.8475,9.2602,56.2522,-0.0673,-0.0107,0.0722,79.4156
13:38:07:450,-3.0006,3.0245,9.1382,56.3848,-0.0295,0.1273,0.187,79.3448
13:38:07:471,-2.7111,3.2542,8.8558,57.0975,0.0133,0.2287,0.3642,78.9896
13:38:07:490,-2.6991,3.4839,8.5472,55.8956,0.0487,0.2422,0.4729,78.493
13:38:07:515,-2.9312,3.6826,8.1906,54.7569,0.0988,0.2006,0.5169,77.9496
13:38:07:531,-2.8642,3.7831,7.8508,57.2868,0.1489,0.164,0.5841,77.3188
13:38:07:551,-2.589,3.6873,7.7025,55.4609,0.1587,0.1725,0.6708,76.6157
13:38:07:569,-2.0985,3.4744,7.925,55.6434,0.1294,0.1786,0.7404,75.864
13:38:07:589,-1.7922,3.393,8.339,56.5575,0.0988,0.1567,0.7453,75.1309
13:38:07:609,-1.6965,3.2638,8.7338,56.3848,0.1049,0.1237,0.6879,74.5103
13:38:07:632,-1.7252,3.0724,8.7625,54.9105,0.1575,0.0675,0.6073,74.0102
13:38:07:651,-1.7324,2.9767,8.5328,57.4832,0.2112,0.12,0.5767,73.5163
13:38:07:670,-1.5194,3.1801,8.5543,55.2921,0.1611,0.2727,0.6158,72.9133
13:38:07:689,-0.9045,3.3165,8.7793,52.9201,0.0353,0.3876,0.6622,72.1799
13:38:07:709,-0.5504,3.4169,9.4062,56.592,-0.0979,0.3668,0.628,71.496
13:38:07:730,-0.4738,3.4816,9.8608,54.5772,-0.2005,0.2385,0.5413,71.0448
13:38:07:751,-0.7226,3.7878,9.8536,54.4057,-0.2261,0.2019,0.4741,70.6345
13:38:07:771,-0.3135,3.3188,9.7388,54.5921,-0.2249,0.2703,0.4582,70.1584
13:38:07:790,-0.2297,2.948,10.4016,54.9464,-0.3495,0.175,0.4033,69.816
13:38:07:814,-0.3159,2.6512,12.1723,55.3714,-0.5939,-0.1671,0.3312,69.7563
13:38:07:834,0.1436,2.3545,13.4357,54.0888,-0.7075,-0.3736,0.3861,69.7406
13:38:08:023,1.1916,2.388,13.3519,55.007,-0.5145,-0.2013,0.5181,69.4763
13:38:08:024,1.7324,2.6656,11.732,53.6901,-0.0856,0.1982,0.5657,68.9409
13:38:08:045,1.3926,2.924,7.7958,57.8222,0.5716,0.4743,0.3776,67.733
13:38:08:046,1.2036,2.8738,6.8913,54.3741,0.5399,0.346,0.2896,67.3153
13:38:08:046,0.9595,2.8403,6.8315,53.5003,0.3041,0.1396,0.209,67.1052
13:38:08:046,0.6485,2.7781,7.5278,51.1332,-0.0209,0.0577,0.1687,66.9853
13:38:08:047,0.3517,2.8666,8.5854,52.2663,-0.2921,0.1176,0.1369,66.9
13:38:08:047,0.0287,2.9767,9.076,52.9963,-0.3752,0.1163,0.0978,66.8517
13:38:08:048,-0.2943,3.015,8.9659,50.9882,-0.2897,0.1139,0.049,66.8736
13:38:08:048,-0.6365,3.1442,8.3797,53.1588,-0.1541,0.2202,0.0294,66.8457
13:38:08:060,-0.7011,3.0556,8.1093,52.2553,-0.0881,0.412,0.049,66.7379
13:38:08:070,-1.048,3.1801,8.1332,51.7496,-0.1137,0.5268,0.0929,66.5404
13:38:08:089,-1.2706,3.2495,8.083,51.2871,-0.1724,0.5146,0.1174,66.3149
13:38:08:109,-1.1629,3.1298,8.1332,51.8334,-0.1931,0.6099,0.1638,65.9912
13:38:08:131,-1.3495,3.1274,8.0638,51.7496,-0.115,0.7003,0.187,65.6238
13:38:08:151,-1.541,3.1537,7.7288,50.528,-0.0258,0.5672,0.2212,65.2824
13:38:08:169,-1.5577,3.1705,7.4943,50.3728,-0.027,0.3228,0.308,64.9282
13:38:08:188,-1.6726,3.259,8.0112,51.629,-0.1357,0.2031,0.4387,64.5061
13:38:08:209,-1.718,3.5868,8.3127,50.6116,-0.2408,0.252,0.5816,63.8798
13:38:08:232,-1.8257,4.1204,8.4993,52.3704,-0.2689,0.401,0.7075,63.0515
13:38:08:256,-1.9693,4.8072,8.8798,51.0751,-0.3031,0.5158,0.7979,62.0547
13:38:08:269,-1.675,4.9627,9.6024,50.7414,-0.3508,0.5195,0.8247,61.0142
13:38:08:288,-1.7013,4.6612,10.6002,49.9836,-0.374,0.3949,0.7221,60.158
13:38:08:312,-2.2086,4.2257,11.3324,49.738,-0.3141,0.2691,0.5718,59.5667
13:38:08:329,-2.3378,3.9529,11.6076,50.2146,-0.1638,0.3363,0.5389,59.0014
13:38:08:351,-2.534,3.606,10.7151,51.5105,0.1917,0.6661,0.6512,58.3258
13:38:08:369,-3.1202,4.0726,9.7149,49.8757,0.3077,0.8176,0.7026,56.5045
13:38:08:389,-3.2207,3.9697,8.8487,51.7168,0.3212,0.9263,0.76,55.4732
13:38:08:417,-3.1154,2.9408,9.1884,51.9347,0.1379,0.8494,0.7795,54.5049
13:38:08:432,-3.4959,2.1129,10.5835,51.3264,-0.1626,0.5195,0.7245,53.8261
13:38:08:451,-4.4626,2.1248,11.9833,49.9093,-0.2445,0.2691,0.7221,53.2726
13:38:08:468,-4.4674,2.4694,10.124,50.0141,0.1257,0.0174,0.8345,52.6741
13:38:08:487,-2.8977,2.3641,7.7743,49.6277,0.4666,0.0418,0.9836,51.8609
13:38:08:509,-2.5866,2.2732,6.8315,49.5996,0.3896,0.2862,0.9359,50.9602
13:38:08:528,-3.1753,2.0363,8.3653,49.5167,-0.0123,0.5586,0.7478,50.1978
13:38:08:551,-3.6347,1.6941,9.8752,51.4505,-0.2823,0.7749,0.6684,49.4594
13:38:08:582,-3.9314,1.2538,9.5306,49.2007,-0.1822,0.6551,0.6867,48.7966
13:38:08:610,-3.7017,1.151,8.5328,47.8249,-0.0637,0.1469,0.7576,48.2629
13:38:08:646,-3.1585,1.3543,8.351,49.4708,-0.1699,-0.2282,0.9127,47.6843
13:38:08:647,-2.7446,1.797,8.5783,46.9139,-0.2994,-0.1427,1.0373,46.9313
13:38:08:647,-2.5077,2.1033,8.6859,50.0754,-0.3092,0.1347,1.0947,45.9564
13:38:08:676,-2.3019,2.1631,8.8152,48.2903,-0.2347,0.2752,1.1241,44.8699
13:38:08:687,-1.8664,2.2947,8.3342,48.8229,-0.1198,0.1921,1.1448,43.7722
13:38:08:715,-1.9023,2.6871,8.2529,49.3261,-0.0722,0.0724,1.1045,42.7675
13:38:08:732,-2.1631,2.8762,8.6118,49.3929,-0.1088,0.004,1.0508,41.8676
13:38:08:748,-2.2158,2.8786,8.7625,48.4965,-0.0979,-0.0351,1.0275,41.0056
13:38:08:768,-1.9167,2.814,8.8726,47.8227,-0.0514,-0.0632,1.0703,40.1083
13:38:08:790,-1.0361,3.0054,9.5354,48.1885,-0.0612,-0.1365,1.0886,39.171
13:38:08:819,-0.8542,3.0676,10.1073,48.6833,-0.0624,-0.1121,0.9811,38.1308
13:38:08:829,-0.9141,2.9312,10.8921,45.8644,-0.0918,-0.2318,0.8394,36.7278
13:38:08:848,-0.6269,2.7541,11.0716,46.4888,-0.0795,-0.4053,0.7453,36.2941
13:38:08:868,-0.012,2.8953,10.4518,47.698,0.0622,-0.3662,0.7099,35.8488
13:38:08:888,0.0957,3.2877,9.3655,47.673,0.2589,-0.0742,0.6684,35.3312
13:38:08:914,0.079,3.4481,8.7577,47.056,0.3566,0.2153,0.6085,34.7205
13:38:08:934,-0.0742,3.539,8.9013,46.1964,0.265,0.1542,0.5535,34.2022
13:38:08:948,-0.0144,3.6945,8.741,47.1041,0.1086,-0.2294,0.5572,33.8534
13:38:08:968,-0.2465,4.1946,7.9561,45.8644,0.0219,-0.4615,0.5963,33.5346
13:38:08:989,-0.5312,4.3741,7.1497,47.0757,-0.0392,-0.2685,0.6024,33.1362
13:38:09:020,-1.2203,4.1372,7.3579,45.5207,-0.1797,0.0907,0.5523,32.6776
13:38:09:030,-1.6726,3.4887,8.5041,45.8142,-0.4289,0.0333,0.4521,32.3761
13:38:09:047,-1.9501,3.1944,10.1336,45.5509,-0.6427,-0.3699,0.3935,32.3471
13:38:09:067,-1.1462,2.8786,10.9113,46.7613,-0.5988,-0.4469,0.5034,32.2013
13:38:09:087,-0.4307,2.7182,10.4782,44.719,-0.3214,-0.1988,0.7038,31.7695
13:38:09:113,-0.2465,2.9695,9.4301,47.719,-0.0123,0.2312,0.8626,30.9126
13:38:09:135,0.0598,3.0628,8.2505,45.581,0.1611,0.5989,0.9494,29.8069
13:38:09:149,-0.0072,3.0508,7.9274,44.5832,0.1232,0.7358,0.8773,28.7223
13:38:09:169,-0.457,3.1514,8.1499,45.3887,-0.0844,0.6588,0.6867,27.8494
13:38:09:193,-0.5312,2.9695,8.9133,45.0279,-0.3031,0.5256,0.5694,27.1892
13:38:09:225,-0.067,2.6512,9.0281,46.0084,-0.4082,0.3582,0.5731,26.5533
13:38:09:227,0.1292,2.7374,8.8295,43.7641,-0.3923,0.197,0.5914,25.9815
13:38:09:250,-0.414,2.6441,9.478,43.9251,-0.1736,0.1909,0.4484,24.9377
13:38:09:274,-0.7896,2.6297,9.0329,44.9732,-0.0453,0.1335,0.3813,24.6145
13:38:09:287,-0.9404,2.7757,8.5496,48.1435,0.0402,0.1799,0.4228,24.2301
13:38:09:307,-0.615,2.7781,8.2935,46.6437,0.0561,0.3179,0.5401,23.6718
13:38:09:328,-0.347,2.9169,7.9442,46.0125,0.0011,0.3448,0.6512,22.9703
13:38:09:349,-0.0598,2.9121,8.0447,46.3104,-0.1015,0.241,0.7087,22.2451
13:38:09:369,0.1507,2.802,8.595,47.4686,-0.2017,0.0919,0.7038,21.5764
13:38:09:412,0.335,2.8738,8.9755,48.4336,-0.2579,-0.0376,0.6708,20.9766
13:38:09:414,0.4068,3.1801,9.3607,46.9378,-0.2579,-0.084,0.6622,20.4014
13:38:09:439,0.5121,3.2877,9.6622,46.8273,-0.198,-0.0266,0.683,19.7761
13:38:09:448,0.5695,3.2351,9.8321,46.0858,-0.1101,0.0663,0.6806,19.1229
13:38:09:469,0.39,3.4648,10.014,45.1597,-0.0172,0.1115,0.6415,18.4934
13:38:09:490,0.1388,3.74,10.0738,45.2521,0.0756,0.1335,0.6342,17.855
13:38:09:512,0.1938,3.9194,10.2891,46.4475,0.1489,0.219,0.672,17.1356
13:38:09:529,0.146,4.0104,10.3561,46.9379,0.177,0.3094,0.6953,16.3735
13:38:09:548,-0.0814,3.9745,10.4136,44.1887,0.1697,0.3827,0.6684,15.5976
13:38:09:567,-0.6891,3.862,10.4303,45.3467,0.1648,0.4609,0.6109,14.883
13:38:09:588,-1.6176,4.1396,9.7938,44.8055,0.2051,0.5281,0.6012,14.1799
13:38:09:609,-1.7946,4.3741,8.729,45.4448,0.276,0.6844,0.7111,13.3033
13:38:09:629,-0.9954,3.9912,8.7936,46.824,0.2772,0.9276,0.8699,12.1329
13:38:09:651,-0.4594,3.4529,10.0044,45.0533,0.1318,0.9031,0.8431,10.9573
13:38:09:669,-1.1629,2.8881,10.4542,44.9384,-0.0746,0.3558,0.5792,10.3044
13:38:09:689,-2.3163,2.4694,10.2843,45.4743,-0.198,-0.2098,0.3324,10.2155
13:38:09:715,-2.7805,1.7946,7.9035,45.8005,-0.0185,0.0663,0.683,9.5491
13:38:09:729,-2.1535,2.0602,7.882,45.5588,0.1013,0.6808,1.0166,8.3959
13:38:09:748,-1.4764,2.3617,8.0614,46.6809,0.1306,0.963,1.1485,6.935
13:38:09:768,-1.1198,2.3928,8.1499,46.0729,0.0671,0.8372,1.0508,5.5942
13:38:09:792,-1.4501,2.2062,8.3414,45.486,-0.0527,0.6014,0.8284,4.6061
13:38:09:812,-1.8592,2.0315,8.138,45.0119,-0.1663,0.4413,0.672,3.859
13:38:09:829,-2.0004,1.9071,8.0375,45.8138,-0.253,0.4597,0.6989,3.0575
13:38:09:848,-2.0148,2.077,8.272,45.8139,-0.3385,0.5525,0.8076,2.1029
13:38:09:867,-1.9023,2.3545,8.3749,46.6285,-0.4204,0.5378,0.9078,1.053
13:38:09:889,-1.4405,2.5603,8.7984,43.7914,-0.479,0.4548,0.975,359.9448
13:38:09:909,-1.0672,2.6345,8.9994,45.5775,-0.5059,0.3424,0.9884,358.7968
13:38:09:928,-0.8973,2.7015,9.0114,45.7426,-0.4888,0.2691,0.9445,357.6902
13:38:09:949,-0.9834,2.8068,9.2722,47.6792,-0.4351,0.2886,0.8785,356.6696
13:38:09:968,-0.9045,3.0221,9.4301,47.7909,-0.3447,0.2862,0.8418,355.7003
13:38:09:991,-0.6078,3.0939,9.2865,48.6916,-0.2298,0.2617,0.8309,354.7517
13:38:10:008,-0.5599,3.2375,9.6407,47.5054,-0.1198,0.3363,0.7832,353.8218
13:38:10:142,-0.7107,3.4026,9.7077,48.1613,-0.0429,0.3534,0.6855,352.9825
13:38:10:142,-0.8447,3.4505,9.5785,48.0721,-0.005,0.3192,0.5877,352.2532
13:38:10:142,-0.67,3.2662,9.7938,50.3227,-0.0221,0.313,0.5169,351.5944
13:38:10:143,-0.6126,3.1705,10.6457,47.3055,-0.1137,0.2569,0.4265,351.0524
13:38:10:143,-0.6437,3.1657,10.9831,48.323,-0.2164,0.065,0.3324,350.6263
13:38:10:143,-0.4475,3.0054,10.9089,49.0781,-0.2432,0.0089,0.2847,350.2823
13:38:10:155,0.2489,2.345,10.9185,48.323,-0.2298,0.1799,0.3177,349.8122
13:38:10:172,1.5075,0.9763,13.7013,48.2194,-0.5071,-0.3137,0.1479,349.1489
13:38:10:188,1.5721,0.6245,14.0865,49.6888,-0.5719,-0.7902,-0.0622,349.3274
13:38:10:210,1.2443,0.6939,13.5147,49.3497,-0.3752,-0.6338,-0.0757,349.4909
13:38:10:229,1.194,1.084,11.8828,48.8221,-0.005,-0.018,0.1516,349.2392
13:38:10:248,1.6989,1.2156,10.0188,50.0411,0.3798,0.5891,0.479,348.4371
13:38:10:271,2.266,1.5673,8.528,48.7312,0.6486,0.8384,0.6989,347.3059
13:38:10:288,2.3067,2.1583,7.5948,50.5956,0.7415,0.759,0.6757,346.2039
13:38:10:310,2.0339,2.5436,6.9583,48.9149,0.6523,0.4645,0.4155,345.5104
13:38:10:327,1.3783,2.5747,6.7071,49.0548,0.4165,0.0858,-0.017,345.4272
13:38:10:348,0.4786,2.2708,6.8195,48.9728,0.1232,-0.2208,-0.4959,345.9811
13:38:10:368,-0.524,1.998,7.267,49.7907,-0.1333,-0.3687,-0.8466,347.0006
13:38:10:389,-1.261,2.0004,7.8293,49.0463,-0.2921,-0.3613,-0.9333,348.1083
13:38:10:408,-1.4189,2.01,8.406,50.0449,-0.3214,-0.2783,-0.7965,349.0684
13:38:10:427,-1.2586,2.1009,8.5352,49.4921,-0.2323,-0.2025,-0.5961,349.7903
13:38:10:447,-0.8566,2.0889,8.2911,49.1447,-0.0734,-0.1133,-0.4373,350.3197
13:38:10:468,-0.7298,2.3186,7.9633,50.2753,0.0634,0.0394,-0.3676,350.7114
13:38:10:489,-0.8471,2.7757,7.8676,50.9287,0.0891,0.1041,-0.3444,351.0791
13:38:10:508,-0.7298,2.9336,7.9346,50.8879,-0.0001,0.0125,-0.3286,351.456
13:38:10:528,-0.4403,2.7829,8.0734,50.798,-0.1406,-0.1255,-0.3432,351.8633
13:38:10:547,-0.6508,2.8475,8.6835,49.4109,-0.2774,-0.1659,-0.4006,352.3556
13:38:10:567,-1.3208,3.192,9.6239,51.7256,-0.3715,-0.1439,-0.4165,352.8809
13:38:10:622,-1.6056,3.4959,10.4327,50.4751,-0.352,-0.1622,-0.3053,353.3121
13:38:10:623,-1.3185,3.6132,10.6792,50.8117,-0.1675,-0.1427,-0.1086,353.5348
13:38:10:634,-0.9165,3.8979,10.8658,52.2856,0.1978,-0.018,0.0685,353.4708
13:38:10:647,-0.6724,3.7352,10.8203,52.0524,0.2137,-0.0547,0.0465,353.4794
13:38:10:674,-0.6437,3.3547,11.074,51.7783,0.1782,-0.0107,-0.0109,353.5215
13:38:10:697,-1.2323,3.1131,11.3276,52.3175,0.1477,0.0492,-0.1086,353.6775
13:38:10:709,-2.5723,3.3428,10.9185,52.3236,0.2051,0.1017,-0.1734,353.9243
13:38:10:727,-3.4792,3.7591,9.7268,50.5328,0.3859,0.3277,-0.0769,354.0421
13:38:10:747,-3.0604,3.6156,9.064,51.9692,0.5166,0.6075,0.1919,353.7612
13:38:10:767,-1.8903,3.2088,9.2626,50.6525,0.3847,0.4914,0.3947,353.2452
13:38:10:790,-1.1127,2.5747,9.9733,52.378,0.0658,0.0333,0.3556,352.8979
13:38:10:811,-1.5745,2.0435,10.5141,51.0533,-0.1479,-0.2636,0.1039,352.9503
13:38:10:829,-2.5412,1.7444,10.4327,51.1924,-0.0979,-0.2013,-0.083,353.2115
13:38:10:847,-2.9743,1.5697,9.9159,50.6457,0.1282,0.0309,-0.0133,353.3445
13:38:10:869,-2.6584,1.3543,9.1837,51.9688,0.3419,0.2238,0.2603,353.0947
13:38:10:888,-2.053,1.4429,8.7147,51.0533,0.3871,0.2947,0.5327,352.5551
13:38:10:908,-1.3089,1.4716,8.7793,53.8326,0.2515,0.2422,0.6696,351.8312
13:38:10:927,-0.6102,1.4883,9.0832,52.0382,0.0267,0.1408,0.6757,351.103
13:38:10:948,-0.39,1.5529,9.0616,52.3155,-0.1418,0.1506,0.6061,350.435
13:38:10:976,-0.67,1.7396,8.7218,50.2663,-0.1834,0.3155,0.5242,349.802
13:38:10:996,-0.8829,2.0315,8.1021,50.0366,-0.1382,0.4462,0.4937,349.1802
13:38:11:008,-0.8327,2.345,7.4656,49.4771,-0.0734,0.4792,0.5352,348.4844
13:38:11:027,-0.8136,2.7159,7.3675,52.7819,-0.0429,0.4047,0.5755,347.7711
13:38:11:047,-0.5719,2.9839,7.401,52.3934,-0.0746,0.1762,0.5816,347.1227
13:38:11:068,-0.146,3.0078,7.7025,52.1006,-0.1235,-0.0022,0.5621,346.5557
13:38:11:091,0.0718,3.1729,8.3486,52.0627,-0.1809,0.0015,0.4033,345.5984
13:38:11:109,-0.0574,3.0317,8.6142,51.7396,-0.1724,0.015,0.2652,345.3126
13:38:11:127,-0.3852,2.9025,8.985,52.2002,-0.1602,-0.062,0.1064,345.2556
13:38:11:147,-0.6915,2.8451,9.6024,51.4064,-0.1455,-0.1952,-0.0537,345.4164
13:38:11:173,-0.8231,2.6345,9.7507,52.4004,-0.1088,-0.2734,-0.166,345.733
13:38:11:211,-0.9643,2.4383,9.7412,52.2937,-0.0514,-0.1878,-0.1942,346.0645
13:38:11:211,-0.8566,2.412,9.9494,51.7402,-0.0417,-0.1304,-0.1697,346.3282
13:38:11:228,-0.6221,2.3761,10.282,52.6968,-0.1076,-0.194,-0.1526,346.572
13:38:11:246,-0.6245,2.4072,10.672,53.9177,-0.1907,-0.2477,-0.1612,346.8741
13:38:11:266,-0.7346,2.6488,10.8012,53.2907,-0.242,-0.2489,-0.1526,347.157
13:38:11:287,-0.3326,2.7087,10.6648,52.5137,-0.231,-0.1707,-0.0512,347.3248
13:38:11:307,0.4881,2.4024,10.7988,51.9692,-0.2066,-0.1023,0.0819,347.291
13:38:11:328,1.3615,1.9813,11.1601,54.3476,-0.2628,-0.2184,0.0697,347.2496
13:38:11:348,1.5936,1.3926,11.5597,52.9728,-0.385,-0.3882,-0.1025,347.4337
13:38:11:372,1.1079,1.3615,11.7583,53.922,-0.4754,-0.4236,-0.2675,347.8216
13:38:11:386,0.8542,1.5266,11.3515,52.6549,-0.4228,-0.2111,-0.2393,348.1505
13:38:11:406,1.2825,1.4836,10.6385,52.7015,-0.2066,0.1359,0.0099,348.086
13:38:11:426,2.1559,1.4644,9.8967,52.9179,0.0426,0.2849,0.2664,347.6663
13:38:11:446,2.6393,1.5912,9.3631,54.1531,0.2039,0.1982,0.3263,347.1911
13:38:11:467,2.7661,1.6391,8.5424,53.8415,0.2711,0.0467,0.1577,346.9593
13:38:11:487,2.5053,1.5482,7.815,51.9679,0.2919,-0.0278,-0.1575,347.0746
13:38:11:506,1.9836,1.6008,7.3484,51.5207,0.2357,-0.0583,-0.5143,347.6187
13:38:11:527,1.3711,1.6176,7.3531,53.2348,0.0744,-0.1268,-0.8148,348.4987
13:38:11:546,0.0574,1.5266,8.0997,53.2359,-0.253,-0.1988,-1.1227,349.6631
13:38:11:573,-0.4498,1.6199,8.3581,51.8976,-0.2579,-0.1671,-1.1581,352.2347
13:38:11:593,-0.7226,1.7492,8.3055,52.5333,-0.1797,-0.0877,-1.097,353.5141
13:38:11:607,-0.6676,1.876,8.0423,50.1275,-0.0942,0.0492,-0.97,354.6216
13:38:11:627,-0.7131,2.1081,7.9035,51.8813,-0.0795,0.1408,-0.8612,355.5919
13:38:11:647,-0.8758,2.2684,8.138,51.8897,-0.1467,0.1163,-0.8111,356.511
13:38:11:671,-1.0002,2.2732,8.6764,53.2136,-0.2591,-0.029,-0.7842,357.4503
13:38:11:689,-1.0504,2.3091,9.2674,53.2583,-0.3471,-0.1988,-0.7403,358.3827
13:38:11:707,-1.2682,2.589,9.7101,52.1847,-0.3776,-0.2685,-0.6438,359.2624
13:38:11:726,-1.34,3.0341,10.2221,52.7417,-0.3617,-0.216,-0.4507,359.9109
13:38:11:747,-0.9571,3.3452,10.7916,54.8214,-0.3166,-0.1463,-0.1954,0.2699
13:38:11:768,-0.2632,3.4792,11.4114,52.6883,-0.2469,-0.1145,0.0086,0.3518
13:38:11:790,0.2608,3.3954,11.7248,52.7417,-0.1369,-0.106,0.0758,0.3413
13:38:11:807,0.3111,3.2973,11.7559,52.5236,0.0255,-0.0791,-0.0036,0.4169
13:38:11:826,-0.1962,3.3093,11.7296,54.2138,0.2149,-0.0095,-0.1856,0.6946
13:38:11:848,-0.7968,3.2112,11.3707,52.8283,0.3908,0.0406,-0.3689,1.1753
13:38:11:871,-1.5864,3.1729,10.6983,53.9017,0.5166,0.0663,-0.4947,1.8337
13:38:11:890,-2.3665,3.4744,9.7986,52.6375,0.5594,0.1945,-0.5057,2.4946
13:38:11:907,-2.5412,3.5916,9.2004,53.488,0.4873,0.4242,-0.3505,2.9364
13:38:11:926,-1.8592,3.0867,9.521,53.369,0.2576,0.4364,-0.1783,3.1584
13:38:11:948,-1.1533,2.1416,10.7845,54.1058,-0.0612,0.0736,-0.2051,3.4887
13:38:11:970,-1.6319,1.4979,11.7512,50.773,-0.2127,-0.343,-0.4299,4.1805
13:38:11:987,-2.6608,1.3137,11.4305,53.118,-0.0062,-0.3931,-0.5704,5.101
13:38:12:008,-3.4624,1.1198,9.0162,52.1924,0.8172,0.2019,0.0221,5.7835
13:38:12:027,-2.3761,1.1868,8.4347,51.7341,0.8856,0.0907,0.4717,5.4918
13:38:12:047,-0.9739,1.3065,8.6142,49.5836,0.6706,-0.1695,0.7588,4.8736
13:38:12:069,-0.0479,1.5051,9.2052,51.0113,0.3591,-0.2343,0.8333,4.1572
13:38:12:088,0.2465,1.517,9.6144,53.4763,0.133,-0.0498,0.7771,3.442
13:38:12:108,0.1149,1.4931,9.2626,53.7042,0.0891,0.2043,0.7062,2.7423
13:38:12:126,-0.0981,1.6869,8.6166,52.6904,0.1868,0.4303,0.6842,1.99
13:38:12:232,-0.1005,1.7707,7.9561,52.0375,0.2943,0.5342,0.7343,1.1279
13:38:12:234,-0.2608,2.1464,7.6905,51.6921,0.3151,0.4584,0.8015,0.2496
13:38:12:235,-0.4307,2.6536,7.5637,52.1382,0.2528,0.2434,0.8357,359.4049
13:38:12:235,-0.1962,2.735,7.4154,50.3289,0.1856,0.0663,0.8418,358.6128
13:38:12:236,0.1651,2.6465,7.5757,51.5359,0.1342,-0.0278,0.7893,357.897
13:38:12:250,0.2177,2.8762,7.6211,49.5855,0.0927,-0.0901,0.6537,357.3239
13:38:12:282,0.1436,3.058,7.8485,51.6316,0.0634,-0.0864,0.4753,356.9525
13:38:12:286,0.0383,3.1514,8.2265,50.7745,0.0194,-0.1329,0.2676,356.8217
13:38:12:305,-0.1531,3.1346,8.4921,50.3839,-0.0111,-0.2453,0.0416,356.9737
13:38:12:326,-0.4929,3.1178,8.5232,49.6881,0.0035,-0.3345,-0.1673,357.4129
13:38:12:346,-0.8255,3.0724,8.6692,50.8324,0.0194,-0.343,-0.3078,357.9858
13:38:12:368,-0.9404,2.9743,8.7553,51.154,-0.0136,-0.3455,-0.3701,358.6444
13:38:12:390,-1.0433,2.8929,9.0114,50.1899,-0.0966,-0.3601,-0.3945,359.3417
13:38:12:407,-1.0648,3.0006,9.4445,49.9763,-0.2213,-0.4065,-0.397,0.0858
13:38:12:431,-1.151,3.4792,9.722,49.8348,-0.3349,-0.387,-0.3371,0.7404
13:38:12:451,-0.8973,3.7783,9.7675,50.0793,-0.4057,-0.1487,-0.1868,1.145
13:38:12:468,0.7681,3.0006,10.9591,49.8851,-0.6562,-0.0022,-0.0549,1.2809
13:38:12:486,1.0672,2.345,12.1244,47.9489,-0.8761,-0.2465,-0.3102,1.7443
13:38:12:505,0.7155,1.7803,12.9906,49.0668,-1.0215,-0.4285,-0.6205,2.6009
13:38:12:527,0.1196,1.3185,12.9212,48.897,-0.9299,-0.3161,-0.6987,3.554
13:38:12:552,-0.3398,1.0337,11.8445,49.2954,-0.5743,0.0492,-0.463,4.1735
13:38:12:567,-0.0742,1.0959,10.4112,48.8447,-0.1113,0.4034,0.0306,4.1665
13:38:12:586,0.8351,1.3615,9.3535,48.1934,0.2406,0.4829,0.5804,3.5049
13:38:12:606,1.9765,1.6726,8.863,47.6192,0.3542,0.2446,0.9432,2.4387
13:38:12:626,3.1466,1.8042,8.6333,49.844,0.2967,-0.0877,1.019,1.3921
13:38:12:651,3.7926,1.8353,8.3222,48.7278,0.2173,-0.2355,0.8235,0.5351
13:38:12:669,3.7089,1.9789,8.0016,48.0776,0.133,-0.1463,0.435,0.0565
13:38:12:688,3.0628,2.2804,7.8772,49.3312,-0.0038,-0.018,-0.0231,0.0476
13:38:12:706,2.3665,2.3904,8.0973,49.8623,-0.1638,0.0235,-0.4226,0.5394
13:38:12:726,1.7731,2.2899,8.4275,47.3374,-0.2701,-0.0425,-0.7219,1.3836
13:38:12:746,1.3472,2.1607,8.5783,48.2738,-0.2762,-0.1377,-0.9137,2.4464
13:38:12:767,1.0433,2.1942,8.7266,47.5713,-0.2127,-0.2037,-0.9883,3.6253
13:38:12:787,0.8183,2.2445,8.6931,46.6257,-0.1272,-0.244,-0.9651,4.8216
13:38:12:807,0.5695,2.3689,8.4371,48.368,-0.0233,-0.2282,-0.8893,5.9494
13:38:12:826,0.2273,2.7159,8.0782,48.4512,0.0609,-0.1439,-0.8075,6.9952
13:38:12:849,-0.1866,3.2016,7.9298,47.7936,0.0634,-0.0461,-0.7183,7.9247
13:38:12:868,-0.3565,3.5868,8.0184,47.8952,-0.0172,0.0199,-0.5985,8.7263
13:38:12:887,-0.6461,4.0534,8.5591,46.0395,-0.1504,0.0919,-0.4715,9.389
13:38:12:907,-0.9834,4.4818,9.5163,47.2279,-0.2836,0.1115,-0.364,10.3772
13:38:12:932,-1.072,4.4124,11.3946,46.2115,-0.2408,-0.2245,-0.1868,10.6393
13:38:12:954,-0.9715,4.1659,12.0168,46.6661,-0.0734,-0.4359,-0.16,11.0988
13:38:12:973,-0.871,3.8285,12.3948,46.2131,0.122,-0.4835,-0.1453,11.5566
13:38:12:991,-0.8949,3.6036,12.2943,45.0081,0.3126,-0.3528,-0.1123,11.9349
13:38:13:006,-1.2203,3.5821,11.7464,46.0565,0.4641,-0.1145,-0.0573,12.2202
13:38:13:026,-1.6822,3.7496,10.8443,47.066,0.5399,0.2275,0.0551,12.3299
13:38:13:049,-1.6056,3.6969,10.325,42.5311,0.4947,0.605,0.2566,12.1342
13:38:13:067,-0.8662,3.2423,10.6624,41.7155,0.3126,0.6869,0.4411,11.6363
13:38:13:087,-0.3015,2.4024,11.6028,40.5911,0.1037,0.3363,0.4399,11.2014
13:38:13:107,-0.8279,2.0219,12.0862,43.5724,0.0732,-0.1243,0.2505,11.1346
13:38:13:128,-1.8233,1.8951,10.9208,42.5925,0.3456,-0.2526,0.1113,11.3427
13:38:13:154,-2.5819,1.7635,9.0808,42.9273,0.7732,0.0369,0.2163,11.3678
13:38:13:167,-2.6656,1.7922,7.4345,41.6007,1.0334,0.4364,0.5547,10.9094
13:38:13:187,-2.2947,2.0818,6.7095,41.2147,0.9406,0.5623,0.9274,9.9945
13:38:13:206,-1.3759,2.3928,6.999,43.5488,0.5838,0.3961,1.1937,8.825
13:38:13:226,-0.1484,2.2947,7.8844,43.0772,0.1941,0.2153,1.2975,7.5572
13:38:13:249,0.5049,2.4072,8.6548,42.0435,-0.0783,0.1371,1.2035,6.4009
13:38:13:269,0.6317,2.4718,9.0808,40.1368,-0.1919,0.175,0.9714,5.4485
13:38:13:290,0.1986,2.4024,8.8846,39.8049,-0.1699,0.2886,0.7099,4.7466
13:38:13:308,-0.2656,2.3378,8.4012,41.9268,-0.0734,0.3888,0.5157,4.2152
13:38:13:329,-0.5815,2.4024,7.681,39.5661,0.0109,0.4059,0.4631,3.7624
13:38:13:347,-0.4618,2.4024,7.2909,40.5284,0.0243,0.401,0.5157,3.222
13:38:13:368,0.0957,2.5771,7.5565,40.9971,-0.1846,0.2556,0.5841,2.6487
13:38:13:387,0.4235,2.5316,7.9609,40.0882,-0.2872,0.1481,0.5169,1.9239
13:38:13:408,0.5767,2.4861,8.1332,40.24,-0.3019,0.0369,0.3898,1.1519
13:38:13:432,0.6293,2.5077,8.2146,39.9349,-0.2542,-0.0351,0.2469,1.0064
13:38:13:450,0.7442,2.534,8.4538,38.3745,-0.209,-0.1158,0.1161,1.0002
13:38:13:467,0.8495,2.5436,9.1334,37.6437,-0.1931,-0.2355,-0.006,1.1719
13:38:13:486,1.0576,2.4096,9.7197,39.8593,-0.1822,-0.4004,-0.1465,1.5456
13:38:13:506,1.4668,2.0865,10.0044,37.0365,-0.1712,-0.5385,-0.3127,2.128
13:38:13:527,1.7204,1.7037,10.2341,38.3974,-0.1944,-0.5959,-0.5106,2.898
13:38:13:549,1.5936,1.5458,10.4997,36.7043,-0.2603,-0.5739,-0.7232,3.9382
13:38:13:569,1.0911,1.742,10.6122,36.3894,-0.3434,-0.4701,-0.882,5.1106
13:38:13:589,0.8806,1.8568,10.3226,36.2344,-0.3789,-0.2172,-0.8967,6.2346
13:38:13:606,1.1222,1.9071,10.2078,36.3759,-0.4167,0.0528,-0.8087,7.1706
13:38:13:632,1.3807,2.065,10.727,39.1938,-0.5829,0.098,-0.8075,8.0918
13:38:13:648,1.4405,1.7539,11.9641,37.0087,-0.826,-0.0535,-0.9467,9.2129
13:38:13:666,1.0576,1.4548,13.0193,37.7419,-0.9518,-0.3088,-1.13,10.6238
13:38:13:686,0.7609,0.9643,13.2826,37.7968,-0.7942,-0.4334,-1.1923,12.1469
13:38:13:706,0.7585,0.6652,12.9763,37.1488,-0.4167,-0.4493,-1.0543,13.538
13:38:13:726,1.5864,0.2321,12.2991,35.7273,0.0023,-0.4994,-0.7757,14.599
13:38:13:747,2.5938,0.1125,11.5334,35.5771,0.2931,-0.6203,-0.5436,15.3773
13:38:13:767,3.1657,0.2847,10.8179,35.5733,0.3884,-0.6301,-0.5057,16.1065
13:38:13:788,3.2686,0.5527,10.1192,37.4709,0.3859,-0.3797,-0.6071,16.8657
13:38:13:807,2.9408,0.7131,9.3368,38.781,0.3896,0.0015,-0.7525,17.7467
13:38:13:831,1.9645,1.072,7.8437,33.6609,0.4446,0.3399,-1.0262,18.7211
13:38:13:849,1.4524,1.4285,7.4321,34.5423,0.425,0.1738,-1.1398,20.8848
13:38:13:869,1.1701,1.7085,7.2335,35.9995,0.3481,-0.0877,-1.2448,22.3215
13:38:13:885,0.8399,1.7587,7.2407,36.8458,0.2259,-0.2697,-1.3536,23.9461
13:38:13:906,0.5097,1.6439,7.4871,33.8053,0.0915,-0.3357,-1.4489,25.7133
13:38:13:930,0.0957,1.6104,7.803,34.7384,-0.0343,-0.354,-1.4941,27.5365
13:38:13:949,-0.3972,1.6606,8.284,35.2078,-0.1492,-0.3846,-1.4733,29.3633
13:38:13:969,-0.7298,1.7492,8.6835,33.8944,-0.2225,-0.4359,-1.3756,31.1397
13:38:13:986,-0.9165,1.8138,9.0975,36.4677,-0.2359,-0.4517,-1.2094,32.7122
13:38:14:007,-0.8925,1.9406,9.6263,32.1432,-0.22,-0.4591,-1.0042,34.0953
13:38:14:029,-0.8303,2.144,10.3131,34.5745,-0.1992,-0.4823,-0.7745,35.2306
13:38:14:048,-0.4714,2.3402,11.019,33.7275,-0.1589,-0.4982,-0.557,36.1306
13:38:14:066,-0.1771,2.5268,11.4233,33.8262,-0.0539,-0.4004,-0.3945,36.819
13:38:14:086,-0.122,2.6632,11.3683,34.6186,0.1208,-0.1573,-0.3102,37.3329
13:38:14:107,-0.3876,2.936,10.7845,33.353,0.3248,0.1518,-0.2821,37.7606
13:38:14:128,-0.6485,3.1657,9.8608,32.1847,0.4983,0.456,-0.2418,38.0552
13:38:14:147,-0.5312,3.2495,9.4732,35.1721,0.5631,0.6246,-0.1783,38.2073
13:38:14:167,-0.0191,3.0891,9.7651,32.7809,0.4641,0.4792,-0.1905,38.4044
13:38:14:187,0.1675,2.7446,10.3561,33.1827,0.309,0.1481,-0.3713,38.8532
13:38:14:209,-0.3422,2.3163,10.3896,34.942,0.2845,-0.0327,-0.6389,39.6913
13:38:14:226,-1.0265,1.919,9.6646,34.5745,0.3969,0.0455,-0.7818,40.7261
13:38:14:338,-1.2251,1.6223,8.8846,34.8845,0.4678,0.1811,-0.7122,41.608
13:38:14:339,-1.1701,1.6319,8.674,35.2112,0.3529,0.1835,-0.546,42.3335
13:38:14:340,-0.7968,1.8497,9.8632,34.8727,-0.1541,-0.0192,-0.3176,42.9209
13:38:14:341,-1.0935,2.1416,9.9446,32.4344,-0.1968,0.0418,-0.2296,43.7228
13:38:14:341,-1.1916,2.4766,9.3559,33.353,-0.0441,0.1811,-0.0915,43.9186
13:38:14:361,-1.0457,2.7852,8.4826,32.7583,0.1452,0.2984,0.0868,43.8711
13:38:14:365,-0.5815,2.9815,8.0566,32.5231,0.2259,0.3106,0.2493,43.6224
13:38:14:387,-0.2082,3.2806,8.1165,32.4376,0.1795,0.1848,0.3116,43.3203
13:38:14:408,0.055,3.4337,8.4538,32.4376,0.0927,0.0162,0.2371,43.1284
13:38:14:429,0.1172,3.4529,8.5352,33.0552,0.0561,-0.0962,0.06,43.1609
13:38:14:447,-0.0933,3.3284,8.4395,32.1432,0.0658,-0.1048,-0.177,43.4461
13:38:14:467,-0.5791,3.1178,8.2887,33.4332,0.0524,-0.0767,-0.4104,43.9816
13:38:14:486,-1.1103,3.0269,8.2672,33.9637,-0.0062,-0.0486,-0.5656,44.7325
13:38:14:507,-1.4692,3.0389,8.2959,32.4344,-0.082,-0.0119,-0.6022,45.5062
13:38:14:531,-1.5458,2.9408,8.3868,34.2688,-0.1345,0.065,-0.5423,46.186
13:38:14:548,-1.5888,3.0078,8.5663,31.8563,-0.1834,0.1066,-0.4776,46.7574
13:38:14:566,-1.7922,3.2399,8.9755,31.2093,-0.2469,0.109,-0.4495,47.3057
13:38:14:585,-2.0195,3.3165,9.332,31.2616,-0.297,0.1127,-0.4251,47.8244
13:38:14:606,-2.0889,3.0748,9.4971,32.7583,-0.3007,0.1518,-0.3933,48.3169
13:38:14:628,-2.2301,2.8499,9.5689,32.5052,-0.3129,0.164,-0.3701,48.8136
13:38:14:647,-2.5651,2.7517,9.7651,31.839,-0.3434,0.1359,-0.3383,49.3092
13:38:14:667,-2.8905,2.7446,10.0235,33.0553,-0.3605,0.1005,-0.2381,49.6694
13:38:14:685,-2.9503,2.6178,10.0355,32.5231,-0.2872,0.1188,-0.0195,49.8102
13:38:14:705,-2.6297,2.5484,9.7531,34.106,-0.1308,0.1603,0.2994,49.6082
13:38:14:730,-1.9238,2.7661,9.4253,30.2961,0.0121,0.1481,0.6171,48.9846
13:38:14:746,-0.4498,3.0748,9.5713,31.5454,-0.0062,0.1078,0.8284,47.2074
13:38:14:767,-0.1244,2.9671,9.9589,33.4353,-0.0991,0.1017,0.6879,46.4942
13:38:14:786,-0.2249,2.7039,10.3274,33.3903,-0.1443,0.0516,0.4827,46.0235
13:38:14:806,-0.5049,2.6106,10.3203,33.7068,-0.0954,0.0443,0.3519,45.7194
13:38:14:832,-0.6963,2.6058,9.9757,32.924,0.017,0.1481,0.3617,45.3311
13:38:14:847,-0.7346,2.857,9.5258,33.7914,0.1232,0.2923,0.4692,44.7979
13:38:14:866,-0.603,3.0652,8.9994,32.4741,0.1782,0.3729,0.5816,44.1314
13:38:14:886,-0.3326,3.1394,8.5902,31.4492,0.1721,0.4218,0.6525,43.3161
13:38:14:905,-0.2608,3.3835,8.3701,31.5136,0.1049,0.4425,0.6769,42.434
13:38:14:928,-0.1436,3.6826,8.2768,31.2235,0.0035,0.4254,0.6708,41.5759
13:38:14:947,-0.1603,3.9649,8.5759,30.5164,-0.1125,0.3411,0.6366,40.7776
13:38:14:966,0.0096,3.9218,9.2674,32.3958,-0.2225,0.1652,0.5792,40.1053
13:38:14:985,0.0191,3.7089,9.9278,31.0768,-0.253,-0.0254,0.5108,39.5766
13:38:15:006,-0.4834,3.9338,10.2173,31.6878,-0.1528,-0.1109,0.4643,39.1493
13:38:15:029,-0.5671,3.9625,9.856,30.1161,0.0439,-0.0706,0.5132,38.6314
13:38:15:046,-0.256,3.7089,9.2004,31.4561,0.2186,-0.018,0.5975,37.9598
13:38:15:067,-0.3398,3.7998,8.7123,29.7207,0.3016,0.0369,0.5987,37.2892
13:38:15:085,-0.6461,3.6897,8.4251,33.412,0.3481,0.142,0.5609,36.6514
13:38:15:105,-0.8399,3.4193,8.2265,31.4483,0.3798,0.1567,0.5315,36.0767
13:38:15:126,-1.151,3.1585,8.4132,31.9177,0.3346,0.0577,0.5022,35.6193
13:38:15:145,-1.6869,3.2566,8.9085,31.5137,0.1978,-0.0327,0.4875,35.1977
13:38:15:167,-2.0842,3.2399,9.2435,31.7565,0.0854,0.0773,0.5425,34.7283
13:38:15:186,-2.132,3.1801,9.131,30.9114,0.0646,0.3973,0.683,33.9568
13:38:15:208,-1.1964,3.4863,9.5976,32.5227,0.006,0.7516,1.0214,32.8477
13:38:15:227,-0.5384,3.3141,10.2221,31.79,-0.1088,0.6038,0.9665,30.3271
13:38:15:247,-0.7178,3.0485,10.4877,32.2649,-0.1516,0.4401,0.7172,29.44
13:38:15:271,-1.3161,2.7781,9.8656,31.456,-0.0453,0.434,0.4472,28.8604
13:38:15:286,-1.5147,2.3785,8.9013,30.4963,0.1,0.5366,0.369,28.3354
13:38:15:306,-1.3161,2.2253,8.1882,31.146,0.0988,0.5708,0.4643,27.6888
13:38:15:329,-1.0002,2.5053,7.9585,31.3999,-0.0588,0.5207,0.5828,26.9263
13:38:15:346,-0.6987,2.7781,8.1404,30.8401,-0.2383,0.5256,0.6415,26.0764
13:38:15:366,-0.8542,2.9791,8.4227,30.4609,-0.3398,0.5818,0.6244,25.1847
13:38:15:386,-1.261,3.259,8.5041,32.2612,-0.3471,0.5647,0.578,24.3673
13:38:15:413,-1.5553,3.3619,8.2313,29.7692,-0.2506,0.5073,0.5792,23.5919
13:38:15:429,-1.6367,3.5127,7.7767,32.0841,-0.1333,0.4254,0.6329,22.7824
13:38:15:445,-1.5793,3.8094,7.4895,30.8044,-0.1003,0.3607,0.6867,21.9264
13:38:15:468,-1.3041,3.9529,7.5637,30.342,-0.1626,0.3436,0.7233,20.9999
13:38:15:485,-1.1294,3.9505,7.6953,30.6831,-0.2469,0.3546,0.7038,20.0842
13:38:15:504,-1.1701,3.8955,7.8915,30.5559,-0.2848,0.3472,0.6061,19.301
13:38:15:525,-1.4333,3.807,7.8867,32.3102,-0.2726,0.2703,0.4656,18.6896
13:38:15:546,-1.8879,3.6969,7.7288,31.5862,-0.2323,0.1408,0.3361,18.2798
13:38:15:570,-2.1057,3.7472,7.8963,30.297,-0.2335,-0.0009,0.2896,17.9732
13:38:15:586,-1.8568,3.7639,8.4132,30.5119,-0.3056,-0.1182,0.3422,17.6497
13:38:15:606,-1.3926,3.7783,8.9109,28.9517,-0.3776,-0.1304,0.4045,17.2401
13:38:15:626,-1.0241,3.7926,9.4493,30.0509,-0.3825,-0.0571,0.3959,16.792
13:38:15:647,-0.7466,3.5892,9.7843,30.9247,-0.3226,-0.0498,0.2872,16.4113
13:38:15:667,-0.6341,3.2207,10.66,29.6948,-0.2213,-0.2783,-0.0512,16.2876
13:38:15:685,-0.4092,3.1346,11.0764,29.8296,-0.2445,-0.332,-0.1526,16.3747
13:38:15:705,0.2465,2.7733,11.3396,29.0261,-0.2408,-0.216,-0.2088,16.7893
13:38:15:727,0.3374,2.6895,11.5573,28.1096,-0.2323,-0.0779,-0.3444,17.0837
13:38:15:745,0.0814,2.6465,11.9521,29.6484,-0.275,-0.0022,-0.5717,17.6015
13:38:15:765,-0.1196,2.2421,12.5791,29.4142,-0.3593,-0.0168,-0.7818,18.3587
13:38:15:786,-0.2153,1.7444,13.0217,29.1007,-0.3874,-0.0962,-0.8942,19.2883
13:38:15:809,-0.5743,1.5075,12.8423,30.5946,-0.2457,-0.0852,-0.893,20.2446
13:38:15:829,-0.8829,1.3926,11.8828,30.2755,0.0414,0.054,-0.7451,21.0073
13:38:15:848,-0.8638,1.462,10.7079,30.9054,0.3187,0.1261,-0.4947,21.4817
13:38:15:866,-0.4546,1.6439,9.8943,30.5234,0.425,0.0174,-0.2443,21.6931
13:38:15:887,0.0048,1.7994,9.4756,30.5667,0.3737,-0.1341,-0.083,21.7317
13:38:15:908,0.1029,1.8879,9.2339,31.2415,0.2515,-0.1707,-0.0427,21.7316
13:38:15:926,0.0072,2.053,9.2004,30.9783,0.1342,-0.0987,-0.0634,21.755
13:38:15:945,-0.201,2.1272,8.9396,30.5234,0.1025,0.0064,-0.0793,21.7673
13:38:15:965,-0.2895,2.0937,8.3868,29.1007,0.1697,0.0748,-0.0928,21.7628
13:38:15:985,-0.3517,2.2469,7.6714,30.5667,0.2674,0.076,-0.1111,21.8028
13:38:16:008,-0.4905,2.5101,7.0445,28.9839,0.3151,0.0614,-0.1184,21.8292
13:38:16:027,-0.4762,2.6967,6.6808,30.5507,0.2858,0.0382,-0.1196,21.8623
13:38:16:046,-0.4403,2.5938,6.5444,30.3365,0.2112,-0.0205,-0.138,21.9183
13:38:16:066,-0.7418,2.7039,6.5181,29.9136,0.133,-0.0718,-0.1636,22.0533
13:38:16:085,-1.0146,3.0341,6.4917,30.5667,0.0512,-0.0669,-0.1135,22.109
13:38:16:108,-0.9332,3.3212,6.5898,30.5234,-0.0466,-0.0034,0.0184,22.0046
13:38:16:128,-1.072,3.8979,7.8197,31.4038,-0.33,0.076,0.187,21.4483
13:38:16:148,-1.1581,4.276,8.6237,29.5629,-0.4118,0.0125,0.2322,21.076
13:38:16:166,-1.0624,4.6421,9.4253,32.6406,-0.4094,-0.0486,0.275,20.6749
13:38:16:185,-0.5958,4.5894,10.1815,29.5565,-0.3556,-0.0938,0.2957,20.2321
13:38:16:206,-0.3111,4.4554,11.1147,31.7522,-0.2872,-0.1084,0.2151,19.8696
13:38:16:226,-0.5527,4.2496,11.878,27.8149,-0.1797,-0.0852,0.0331,19.688
13:38:16:245,-0.8279,3.6802,11.8086,31.1078,0.0267,-0.0449,-0.1306,19.7055
13:38:16:269,-1.1868,3.2184,11.1864,30.4941,0.276,-0.0119,-0.2113,19.8571
13:38:16:285,-1.7228,3.2136,10.3896,31.4396,0.4336,-0.0364,-0.2113,20.0175
13:38:16:306,-2.3186,3.661,9.801,31.7484,0.4336,-0.0461,-0.1416,20.1046
13:38:16:326,-2.6608,4.0678,9.344,31.4038,0.3554,0.0382,-0.0207,20.0899
13:38:16:451,-2.8546,4.3334,9.0066,31.1078,0.2601,0.1701,0.0746,19.9183
13:38:16:452,-2.8187,4.197,9.1669,30.4896,0.0952,0.2422,0.099,19.7026
13:38:16:452,-2.7589,3.594,10.27,31.4175,-0.1382,0.1652,0.0746,19.5261
13:38:16:453,-2.7087,2.7326,11.4999,30.1823,-0.2799,-0.1011,0.0294,19.5247
13:38:16:453,-2.814,2.0267,11.9952,31.7522,-0.1651,-0.3467,0.0221,19.6248
13:38:16:454,-3.0485,1.5242,11.0453,31.4166,0.199,-0.3491,0.1369,19.5775
13:38:16:467,-2.9623,1.3424,9.4564,31.7268,0.5985,-0.1084,0.4033,19.1914
13:38:16:484,-2.211,1.474,8.1691,32.0616,0.7268,0.0834,0.7209,18.3737
13:38:16:504,-1.2873,1.5529,7.9633,32.1506,0.5203,0.1237,0.9164,17.2979
13:38:16:525,-0.5671,1.5984,8.2217,31.2973,0.1953,0.1261,0.9286,16.1651
13:38:16:546,-0.5192,1.6367,8.3581,32.2128,-0.0282,0.197,0.793,15.1356
13:38:16:565,-0.6915,1.7133,8.0853,30.4482,-0.0979,0.2849,0.6293,14.2639
13:38:16:585,-1.2491,1.9358,7.3986,29.9389,-0.1382,0.2031,0.4888,13.4922
13:38:16:606,-1.5386,2.2851,7.5015,30.4482,-0.2237,0.1261,0.5157,12.2415
13:38:16:627,-1.541,2.6201,7.7767,31.2973,-0.2848,0.1115,0.6085,11.4802
13:38:16:646,-1.3759,2.8738,7.6403,30.1724,-0.2677,0.1432,0.7087,10.6043
13:38:16:665,-1.2227,3.0844,7.2024,31.1043,-0.1822,0.2238,0.7746,9.6192
13:38:16:685,-1.0911,3.3954,6.6544,32.295,-0.1235,0.2862,0.7905,8.5921
13:38:16:705,-1.1342,3.7352,6.3194,31.2175,-0.1553,0.3265,0.7514,7.5774
13:38:16:726,-1.1318,3.996,6.6281,30.9649,-0.2677,0.3118,0.6403,6.6684
13:38:16:744,-0.8925,3.8118,7.4824,31.6923,-0.4192,0.1786,0.4753,5.9733
13:38:16:766,-0.6652,3.3858,8.5687,28.3238,-0.5511,-0.029,0.286,5.5337
13:38:16:785,-0.548,3.0341,9.9278,30.5842,-0.6427,-0.2001,0.143,5.2725
13:38:16:805,-0.1914,2.7159,11.2176,29.3843,-0.6733,-0.3552,0.0734,5.0969
13:38:16:825,0.2823,2.3497,12.1508,31.1113,-0.6012,-0.4615,0.0392,4.9686
13:38:16:844,0.5312,2.1655,12.5647,30.7425,-0.4314,-0.4163,0.0355,4.859
13:38:16:865,0.3206,2.3593,12.1077,30.7425,-0.2078,-0.2355,0.0294,4.7215
13:38:16:886,-0.122,2.9839,11.2223,30.7425,-0.0392,-0.0828,0.0318,4.5564
13:38:16:909,0.0335,3.1514,10.55,30.7425,-0.0185,-0.0608,0.0685,4.3419
13:38:16:929,0.6628,2.7422,10.4566,30.7425,-0.1675,-0.1707,0.0624,4.1425
13:38:16:946,1.1844,2.0172,11.5454,30.7425,-0.4485,-0.4041,-0.0928,4.1522
13:38:16:968,1.2921,1.3783,13.0911,30.7425,-0.7075,-0.6643,-0.3212,4.4645
13:38:16:986,1.407,0.9212,14.0913,30.3806,-0.7454,-0.7938,-0.4324,4.9117
13:38:17:009,1.541,0.3446,13.8329,29.193,-0.4839,-0.6399,-0.3689,5.2401
13:38:17:031,1.7348,0.3565,10.3777,29.9908,0.4189,0.0455,0.1357,5.0002
13:38:17:047,1.9238,0.9212,8.6477,29.9908,0.6535,0.197,0.3495,4.3564
13:38:17:065,2.132,1.3424,7.3172,31.9124,0.6657,0.2715,0.3971,3.6371
13:38:17:085,2.0028,1.785,6.6161,30.796,0.4666,0.2776,0.242,3.0608
13:38:17:110,1.5577,2.2636,6.8794,32.7398,0.133,0.2263,-0.0671,2.8849
13:38:17:129,1.1007,2.254,7.7216,33.0846,-0.1858,0.1261,-0.4141,3.1367
13:38:17:147,0.7298,1.6917,8.3964,31.4698,-0.3336,-0.0022,-0.7073,3.7229
13:38:17:164,0.0359,1.4548,8.5687,30.9334,-0.3178,-0.1268,-0.9174,4.5837
13:38:17:184,-0.5791,1.4812,8.3749,32.0185,-0.2078,-0.1463,-0.9736,5.56
13:38:17:204,-0.8064,1.4237,7.9059,31.3665,-0.0649,0.0003,-0.8453,6.3707
13:38:17:228,-0.8064,1.4692,7.3555,31.7798,0.0377,0.2055,-0.6486,6.9286
13:38:17:245,-0.9906,1.7468,6.9703,33.3788,0.0512,0.3472,-0.4837,7.2769
13:38:17:265,-1.2538,2.0195,6.8626,31.7798,-0.0307,0.357,-0.3994,7.5121
13:38:17:284,-1.5553,2.132,7.2,32.2204,-0.1577,0.2593,-0.3298,7.7314
13:38:17:304,-1.4883,2.1392,7.9442,30.9501,-0.3031,0.0455,-0.2088,7.8477
13:38:17:325,-1.2778,2.4263,8.8415,30.1963,-0.4351,-0.2074,-0.0365,7.8127
13:38:17:346,-1.0002,2.8379,9.7244,31.6659,-0.4961,-0.3393,0.1736,7.5829
13:38:17:366,-0.2823,2.9288,10.4782,30.8319,-0.4521,-0.2892,0.4179,7.0309
13:38:17:385,0.3254,3.1537,11.1194,33.5234,-0.3459,-0.1769,0.6122,6.2152
13:38:17:408,0.6341,3.4672,11.5765,31.787,-0.231,-0.1084,0.6647,5.3428
13:38:17:430,0.7657,3.3763,11.7464,31.5871,-0.1125,-0.0913,0.5596,4.0752
13:38:17:447,-0.4092,3.0772,11.2032,31.963,0.0695,-0.0547,-0.0292,3.9761
13:38:17:466,-1.1797,2.7948,10.5906,32.9862,0.0939,0.0968,-0.232,4.1304
13:38:17:491,-1.3495,2.2421,10.6385,30.8343,-0.016,0.1848,-0.2736,4.4159
13:38:17:512,-1.1414,1.7683,11.4449,30.8343,-0.2383,0.0162,-0.2797,4.6187
13:38:17:528,-1.2993,1.2969,12.3589,32.6238,-0.3862,-0.2172,-0.3432,4.9311
13:38:17:544,-2.1416,1.1079,12.4546,31.0189,-0.2982,-0.2954,-0.3994,5.3615
13:38:17:563,-2.9145,0.8758,11.1841,31.8444,0.0781,-0.1207,-0.2626,5.6147
13:38:17:583,-2.8283,0.5025,9.5761,32.7405,0.5215,0.1884,0.1394,5.4366
13:38:17:604,-2.1942,0.6197,8.3581,32.7405,0.6877,0.313,0.6073,4.6576
13:38:17:626,-1.3304,0.9571,8.0638,33.0919,0.5179,0.2373,0.9616,3.479
13:38:17:644,-0.3015,1.1557,8.5519,33.3667,0.2173,0.1628,1.1656,2.0797
13:38:17:666,0.3613,1.2108,9.1071,32.6087,-0.0331,0.1652,1.1607,0.6478
13:38:17:685,0.39,1.2323,9.1908,32.6901,-0.1369,0.2458,0.9774,359.4279
13:38:17:703,-0.0479,1.3543,8.9252,32.386,-0.1284,0.2703,0.7429,358.4386
13:38:17:726,-0.4738,1.5266,8.5591,33.9991,-0.093,0.1994,0.5926,357.6375
13:38:17:747,-0.6078,1.5218,8.1595,34.1037,-0.0673,0.1249,0.5767,356.8745
13:38:17:765,-0.67,1.7085,7.8365,33.3373,-0.0576,0.0736,0.6109,356.115
13:38:17:785,-0.7131,1.9932,7.6116,32.81,-0.0637,0.0614,0.639,355.326
13:38:17:804,-0.6365,2.1057,7.4608,32.5799,-0.0649,0.0797,0.6586,354.4914
13:38:17:826,-0.548,2.2158,7.5206,32.9609,-0.0771,0.0626,0.639,353.6981
13:38:17:846,-0.5456,2.412,7.736,33.2024,-0.1101,0.0064,0.567,352.9561
13:38:17:865,-0.6915,2.5603,8.0447,33.419,-0.1284,0.0015,0.4839,352.327
13:38:17:886,-0.737,2.5268,8.1859,33.4108,-0.1064,0.0199,0.4081,351.772
13:38:17:903,-0.9882,2.5555,8.473,32.7804,-0.1052,0.0272,0.3128,351.3322
13:38:17:925,-1.2395,2.5579,8.9755,32.7305,-0.1577,-0.0009,0.2322,351.0286
13:38:17:948,-0.3111,2.1823,10.2006,33.4108,-0.2151,-0.1341,0.2383,350.4562
13:38:17:967,0.4164,2.0794,10.8251,33.2968,-0.1968,-0.1365,0.1418,350.2153
13:38:17:986,0.8973,1.7874,11.5143,33.6801,-0.2176,-0.0412,-0.0732,350.1344
13:38:18:011,0.323,1.6271,12.2824,33.7418,-0.2946,0.0345,-0.3566,350.3879
13:38:18:032,-0.3781,1.4094,12.804,34.8369,-0.3471,0.0003,-0.5692,350.9003
13:38:18:052,-0.3517,0.5121,13.0217,32.8252,-0.319,-0.0816,-0.5778,351.4404
13:38:18:064,0.0239,-0.1244,13.285,33.4566,-0.2677,-0.1805,-0.458,351.8323
13:38:18:084,0.146,-0.2536,13.6008,32.8087,-0.253,-0.2599,-0.3139,352.1188
13:38:18:104,0.2847,-0.3206,13.718,34.1472,-0.2176,-0.2269,-0.1355,352.1832
13:38:18:126,0.4762,-0.4642,13.2251,35.0455,-0.0551,-0.0425,0.1076,351.9531
13:38:18:148,0.9667,-0.6197,12.2297,34.1472,0.1831,0.142,0.3886,351.3569
13:38:18:164,1.5912,-0.5791,10.9232,33.7344,0.4189,0.1872,0.6476,350.4787
13:38:18:184,2.1559,-0.28,9.4421,34.0269,0.6107,0.1762,0.7905,349.4361
13:38:18:204,2.1679,0.1675,7.657,35.5785,0.7146,0.2178,0.7539,348.4191
13:38:18:229,1.7563,0.725,6.2548,36.8926,0.6669,0.3815,0.6036,347.554
13:38:18:247,1.3376,1.1988,5.592,34.9143,0.4458,0.544,0.4521,346.8481
13:38:18:271,1.0959,1.5936,5.8385,35.2605,0.0952,0.5574,0.3299,346.3104
13:38:18:284,0.9882,1.9478,6.8506,35.2896,-0.2701,0.4389,0.1882,345.9166
13:38:18:306,1.0792,1.8185,7.791,34.4619,-0.4888,0.2813,-0.0219,345.7596
13:38:18:327,0.993,1.3878,8.1571,36.084,-0.4876,0.2434,-0.2968,345.9318
13:38:18:347,0.5025,1.1486,8.1547,34.2391,-0.3874,0.3179,-0.5607,346.3682
13:38:18:366,-0.012,1.1486,8.071,33.2094,-0.3116,0.4096,-0.6706,346.9641
13:38:18:385,-0.0646,1.1318,8.126,35.073,-0.2823,0.4206,-0.6083,347.4964
13:38:18:407,0.5264,1.1677,8.808,34.4755,-0.2921,0.164,-0.4752,347.9176
13:38:18:425,0.39,1.2419,9.0186,34.0182,-0.2555,0.0333,-0.4971,348.8056
13:38:18:448,-0.2608,1.7204,9.3559,35.8544,-0.2469,-0.0828,-0.5301,349.2697
13:38:18:542,-0.6341,2.333,10.0092,34.785,-0.3153,-0.194,-0.4776,349.7581
13:38:18:543,-0.3183,2.5771,10.806,34.7469,-0.3715,-0.2318,-0.3004,350.057
13:38:18:543,0.012,2.735,11.3851,33.0988,-0.3459,-0.117,-0.1074,350.1049
13:38:18:544,0.1771,2.7637,11.9713,36.2072,-0.2799,0.0626,-0.0146,350.0402
13:38:18:544,0.0981,2.6848,12.3996,35.6873,-0.1822,0.0956,-0.0341,349.9842
13:38:18:562,-0.0239,2.3139,12.3039,35.2928,0.0084,-0.0083,-0.1343,350.0402
13:38:18:583,-0.3541,1.8185,11.6674,35.6955,0.265,-0.1158,-0.2907,350.3002
13:38:18:604,-1.0361,1.7827,10.8347,36.591,0.4629,-0.1744,-0.4336,350.7771
13:38:18:628,-2.1583,2.2038,10.0331,36.4767,0.5179,-0.0999,-0.4715,351.2807
13:38:18:647,-3.0915,2.6465,9.3416,36.9687,0.447,0.1286,-0.3518,351.701
13:38:18:666,-3.3882,2.7517,8.9252,35.4926,0.3053,0.3534,-0.1123,351.8118
13:38:18:685,-2.7637,2.3737,9.3679,36.7819,0.0683,0.335,0.0966,351.648
13:38:18:704,-1.6869,1.4022,10.3346,35.3078,-0.1919,0.1163,0.1638,351.4211
13:38:18:725,-1.0744,0.6939,11.1075,37.1798,-0.3288,-0.0779,0.0856,351.285
13:38:18:744,-1.194,0.4283,11.4281,35.8552,-0.3031,-0.1549,-0.0524,351.3288
13:38:18:767,-1.5242,0.2752,11.1841,37.7353,-0.1431,-0.1414,-0.0976,351.4277
13:38:18:783,-1.5984,0.0933,10.4327,38.1055,0.0756,-0.1255,-0.0207,351.4587
13:38:18:804,-1.4548,0.2106,9.6598,36.8091,0.232,-0.1145,0.11,351.3448
13:38:18:824,-1.1007,0.4881,8.918,35.1333,0.2589,-0.0522,0.2469,351.021
13:38:18:846,-0.7849,0.5288,8.5472,37.4987,0.1452,0.0675,0.3556,350.5843
13:38:18:866,-0.6293,0.603,7.9753,38.2749,-0.1052,0.197,0.3764,349.6172
13:38:18:883,-0.9954,0.5862,7.5159,38.2567,-0.0746,0.2178,0.3336,349.1717
13:38:18:904,-1.3831,0.9332,7.1713,37.4974,-0.0246,0.1542,0.3116,348.8196
13:38:18:926,-1.5553,1.2586,6.9583,37.8696,-0.027,0.0821,0.3373,348.4446
13:38:18:944,-1.5816,1.5482,6.9296,37.1232,-0.0771,0.0736,0.4069,347.9911
13:38:18:967,-1.3328,1.6654,6.9559,36.7819,-0.1418,0.0406,0.4912,347.4443
13:38:18:985,-0.8782,1.6917,7.0636,37.6787,-0.1944,-0.0168,0.5462,346.8463
13:38:19:009,-0.6341,1.7803,7.6259,37.2206,-0.2603,-0.0547,0.5364,346.2124
13:38:19:026,-0.5288,1.785,8.5184,36.6824,-0.341,-0.117,0.4668,345.6726
13:38:19:046,-0.2058,1.5697,9.2339,37.0097,-0.3801,-0.2184,0.3568,345.2657
13:38:19:064,-0.0455,1.4381,9.9182,37.4399,-0.3593,-0.2282,0.2212,345.0063
13:38:19:083,0.0359,1.3974,10.6433,36.6824,-0.3239,-0.1427,0.1051,344.8441
13:38:19:105,0.1077,1.2491,11.3563,37.7736,-0.2909,-0.0339,0.0453,344.7501
13:38:19:126,0.4116,0.8829,12.1196,37.9429,-0.253,-0.0034,-0.0072,344.6846
13:38:19:145,0.8064,0.3398,12.6293,39.8958,-0.1931,-0.1072,-0.1196,344.7404
13:38:19:165,1.0696,-0.1053,12.8519,37.6262,-0.1113,-0.2392,-0.2797,344.9726
13:38:19:184,0.9571,-0.2201,12.5623,39.1892,-0.0576,-0.2465,-0.4067,345.3766
13:38:19:209,0.8901,-0.4211,12.4092,38.9154,-0.0417,-0.0864,-0.3957,345.7686
13:38:19:225,0.9476,-0.7418,12.5647,38.604,-0.0905,0.0027,-0.2736,346.013
13:38:19:246,0.938,-1.0122,12.9452,38.9141,-0.1773,-0.073,-0.1514,346.1236
13:38:19:267,0.6843,-1.0074,13.0241,37.4393,-0.1944,-0.1292,-0.0695,346.1254
13:38:19:285,0.2943,-0.5216,12.4905,39.8048,-0.0697,-0.0009,0.0282,346.0482
13:38:19:303,0.1627,-0.2321,11.3803,38.7108,0.2015,0.2483,0.2566,345.6897
13:38:19:327,2.1057,0.0981,9.4756,39.9928,0.6474,0.1457,0.8321,343.976
13:38:19:347,3.6802,0.1388,8.863,39.9928,0.6388,-0.1475,0.8589,342.9106
13:38:19:365,4.2903,0.1603,8.2911,39.7805,0.5118,-0.2612,0.5437,342.2019
13:38:19:385,3.5342,0.3757,7.8245,40.012,0.3236,-0.2135,-0.0072,342.1187
13:38:19:407,2.2588,0.6413,7.4536,38.0519,0.155,-0.1194,-0.5485,342.6622
13:38:19:426,1.1844,0.7178,7.0469,38.3262,0.0878,-0.0266,-0.8576,343.5611
13:38:19:448,0.6724,0.6772,6.7693,40.3568,0.1257,0.004,-0.9186,344.5125
13:38:19:465,0.5073,0.8016,6.5396,40.6054,0.2076,-0.062,-0.8429,345.3724
13:38:19:483,0.5599,1.194,6.4582,40.4526,0.2638,-0.1475,-0.7488,346.1825
13:38:19:505,0.5623,1.6606,6.4941,41.1552,0.2576,-0.1646,-0.7061,346.9615
13:38:19:524,0.4235,1.9549,6.4104,43.1786,0.1966,-0.0803,-0.7341,347.7397
13:38:19:543,-0.201,2.2277,6.5468,44.0116,0.0829,0.0467,-0.8136,348.5987
13:38:19:563,-0.8064,2.412,7.1187,41.7828,-0.0991,0.0821,-0.9052,349.5893
13:38:19:583,-1.2084,2.3402,8.2361,42.5716,-0.33,-0.0547,-0.9797,350.6718
13:38:19:606,-1.6032,2.2804,9.7843,43.5783,-0.5267,-0.2795,-1.0237,351.8413
13:38:19:630,-1.8329,2.1368,11.2343,42.7885,-0.5927,-0.4591,-1.0213,353.0186
13:38:19:651,-2.3163,2.1033,12.3039,42.1333,-0.5047,-0.4872,-0.9321,354.1044
13:38:19:662,-2.6752,2.2923,13.1605,43.744,-0.3532,-0.442,-0.7439,354.999
13:38:19:683,-2.3665,2.1703,13.2826,42.731,-0.1577,-0.2941,-0.4336,355.514
13:38:19:706,-1.9549,2.0985,12.8255,44.6589,0.0609,-0.0058,-0.0439,355.5696
13:38:19:725,-1.6845,2.5244,12.0574,44.0647,0.1843,0.3033,0.2774,355.231
13:38:19:746,-0.5408,1.864,11.8995,44.527,0.1391,0.4364,0.4314,354.2859
13:38:19:766,0.5504,-0.0407,13.8544,45.5747,-0.4387,-0.6448,-0.1917,354.5099
13:38:19:782,-0.1316,-0.6102,14.5316,45.7595,-0.5487,-0.9502,-0.6401,355.2651
13:38:19:804,-1.7994,-0.8925,13.2634,45.2178,-0.2249,-0.6802,-0.761,356.1566
13:38:19:825,-3.2447,-0.8471,11.208,44.2045,0.4226,-0.0913,-0.4177,356.6518
13:38:19:843,-3.6012,-0.4235,9.5091,45.3913,1.0396,0.3045,0.2493,356.3959
13:38:19:862,-3.0867,0.1747,8.1189,46.1527,1.3425,0.2825,0.9066,355.4212
13:38:19:886,-1.9214,0.7298,6.9846,46.0584,1.2766,0.1591,1.3452,353.9414
13:38:19:904,-0.8758,1.0433,6.5037,46.9591,0.9528,0.3228,1.5627,352.1967
13:38:19:923,-0.414,1.3711,6.5276,46.6614,0.4861,0.5843,1.5786,350.3691
13:38:19:943,-0.4929,1.6463,7.0038,47.8191,0.039,0.7138,1.4222,348.6807
13:38:19:963,-0.7513,1.7252,7.5685,46.1604,-0.242,0.6539,1.179,347.255
13:38:19:983,-0.9906,1.6176,8.0758,47.8191,-0.3275,0.4108,0.909,346.202
13:38:20:005,-1.1773,1.5338,8.4467,47.2593,-0.2762,0.0895,0.672,345.4637
13:38:20:026,-1.1749,1.4333,8.5137,46.1327,-0.1602,-0.1194,0.5572,344.8228
13:38:20:044,-1.1246,1.3831,8.4275,45.4745,-0.0539,-0.1035,0.5926,344.1575
13:38:20:062,-0.9165,1.3878,8.2361,48.8208,0.0011,0.0638,0.7087,343.3039
13:38:20:082,-0.6508,1.4572,8.1117,49.1668,0.0206,0.1945,0.8138,342.3524
13:38:20:105,-0.5192,1.73,8.1691,48.0171,0.0084,0.2153,0.837,341.4008
13:38:20:123,-0.2465,1.9023,8.3438,48.5044,-0.0062,0.1677,0.8015,340.4688
13:38:20:146,0.1005,1.9741,8.4586,47.6375,0.0145,0.1579,0.771,339.5601
13:38:20:162,0.414,2.0818,8.7601,47.7814,0.0145,0.1896,0.7258,338.6993
13:38:20:183,0.8949,2.0243,9.3033,48.9049,-0.0478,0.1945,0.6207,337.97
13:38:20:204,1.2873,1.7372,9.9685,49.1443,-0.1651,0.1469,0.4375,337.4041
13:38:20:223,1.3759,1.2132,10.9208,47.9971,-0.3178,-0.0009,0.1577,337.1777
13:38:20:244,0.7202,0.6245,12.5169,48.9174,-0.4778,-0.3491,-0.4446,337.8719
13:38:20:265,0.5312,0.1555,12.5192,50.5679,-0.407,-0.2697,-0.5118,338.4408
13:38:20:290,0.8183,-0.4044,12.3183,50.295,-0.2946,-0.106,-0.4189,338.8679
13:38:20:307,1.1079,-0.7561,12.2345,50.3379,-0.2555,-0.0437,-0.2785,339.1115
13:38:20:325,1.127,-0.8351,12.1723,49.8749,-0.2958,-0.051,-0.1844,339.2675
13:38:20:344,0.8997,-0.7968,12.0407,51.086,-0.3275,0.0162,-0.094,339.3293
13:38:20:366,0.8447,-0.7083,11.6387,50.3577,-0.275,0.109,0.077,339.1822
13:38:20:391,1.1151,-0.5336,11.0285,50.0491,-0.1479,0.1127,0.3312,338.7867
13:38:20:407,1.876,-0.1819,10.3155,51.6069,-0.0075,0.0137,0.5889,338.068
13:38:20:422,2.7182,0.0479,9.612,49.9056,0.0781,-0.0412,0.7453,337.1923
13:38:20:442,3.1346,0.3781,9.1023,50.429,0.0768,0.0186,0.7307,336.296
13:38:20:464,3.1442,0.5767,8.5663,49.5276,0.0096,0.1261,0.5645,335.5882
13:38:20:483,2.7398,0.7035,8.0614,49.7943,-0.049,0.2055,0.3177,335.1504
13:38:20:503,2.0842,0.9428,7.4728,51.0043,-0.0356,0.2312,0.0673,334.9959
13:38:20:524,1.5147,1.1797,6.7071,52.0967,0.0622,0.2397,-0.1184,335.0387
13:38:20:653,1.1749,1.3089,6.1232,51.0833,0.1843,0.252,-0.2296,335.2234
13:38:20:653,1.1557,1.4764,5.9031,52.256,0.2406,0.2116,-0.3139,335.5103
13:38:20:654,1.0744,1.6463,6.0227,51.5669,0.1807,0.1151,-0.4336,335.9228
13:38:20:655,0.9212,1.8185,6.3242,52.5888,0.0157,0.0162,-0.6059,336.5224
13:38:20:655,0.5982,1.7898,7.1354,53.02,-0.2029,-0.0437,-0.8172,337.3885
13:38:20:656,0.4307,1.5864,8.2193,53.0336,-0.4412,-0.1573,-1.0347,338.4878
13:38:20:671,0.28,1.273,9.7747,54.091,-0.6379,-0.3186,-1.2106,339.8378
13:38:20:686,0.0694,1.0385,11.5741,54.0222,-0.7136,-0.4554,-1.3071,341.2929
13:38:20:705,-1.3113,1.0217,13.6678,53.9745,-0.385,-0.5092,-1.2668,344.2285
13:38:20:722,-1.9765,1.0744,13.5673,53.9864,-0.0405,-0.3601,-1.031,345.4012
13:38:20:743,-2.1152,1.2945,13.127,53.3199,0.3102,-0.1133,-0.5668,346.0549
13:38:20:763,-1.5051,1.6128,12.6891,54.9058,0.5606,0.1127,0.0245,346.0502
13:38:20:784,-0.3039,1.6295,12.2082,55.5516,0.6718,0.2214,0.5144,345.4946
13:38:20:804,0.2321,1.876,11.6219,56.8335,0.6804,0.3069,0.6891,344.6811
13:38:20:822,0.0957,2.2325,10.9783,55.6782,0.6303,0.4853,0.6293,343.934
13:38:20:844,0.3039,2.1344,10.806,55.62,0.4934,0.5073,0.5144,343.3045
13:38:20:864,1.194,1.4165,11.4784,56.4158,0.2442,0.0919,0.3092,342.9192
13:38:20:887,1.3615,0.9188,12.4092,55.7132,-0.0148,-0.4945,-0.0915,343.031
13:38:20:902,0.2249,0.615,12.1436,56.4792,-0.0282,-0.6167,-0.4959,343.6223
13:38:20:924,-1.4046,0.4211,10.5356,56.9603,0.298,-0.2477,-0.6523,344.3796
13:38:20:942,-2.3354,0.2871,8.9539,57.1477,0.7072,0.1115,-0.4813,344.92
13:38:20:962,-2.3904,0.4642,7.8604,57.6108,0.8759,0.0797,-0.1416,345.1078
13:38:20:984,-1.6941,0.8806,7.7623,57.778,0.7207,-0.2086,0.1748,344.9785
13:38:21:002,-0.4714,0.8303,8.4132,57.601,0.3701,-0.42,0.3703,344.6701
13:38:21:025,0.0694,0.7298,9.1095,60.1247,0.0414,-0.3161,0.3923,344.2942
13:38:21:043,-0.2369,0.7585,9.3033,56.4243,-0.1076,-0.0351,0.2945,343.979
13:38:21:062,-0.5049,0.6245,9.0712,57.9317,-0.0576,0.131,0.2298,343.6807
13:38:21:087,-0.7944,0.7657,8.5161,56.3455,0.0756,0.0895,0.2542,343.3887
13:38:21:107,-0.9141,1.0289,7.724,58.7682,0.21,0.015,0.358,343.0089
13:38:21:125,-0.9165,1.3495,6.8722,58.3922,0.3224,0.0309,0.4961,342.4856
13:38:21:145,-0.4666,1.9717,6.3577,58.8198,0.2173,0.0455,0.6818,341.0678
13:38:21:166,-0.1579,2.0937,6.6879,59.2655,-0.0038,-0.0254,0.6684,340.3848
13:38:21:186,-0.0502,2.1416,7.2933,59.9077,-0.242,-0.0706,0.5474,339.804
13:38:21:205,-0.2106,2.2684,8.0064,57.5464,-0.4094,-0.095,0.358,339.453
13:38:21:223,0.213,2.0842,8.6955,57.4056,-0.4595,-0.062,0.2041,339.2285
13:38:21:242,0.7777,1.7492,9.2794,60.6968,-0.4375,-0.0364,0.0941,339.1101
13:38:21:262,1.0217,1.5793,9.8417,59.1643,-0.4302,-0.0559,-0.0378,339.1403
13:38:21:287,0.9811,1.5194,10.4112,59.7918,-0.4485,-0.0864,-0.1954,339.3456
13:38:21:305,0.8471,1.2347,10.6122,60.5491,-0.4155,-0.0486,-0.3359,339.6932
13:38:21:326,0.7035,1.0816,10.4614,60.1806,-0.3153,0.0101,-0.4226,340.1307
13:38:21:344,0.7394,1.0911,10.2652,58.5733,-0.2151,0.0711,-0.4153,340.5607
13:38:21:362,0.9667,1.34,10.1432,59.838,-0.1944,0.1652,-0.3286,340.9001
13:38:21:383,1.1318,1.5386,10.002,59.2224,-0.2408,0.3363,-0.232,341.0982
13:38:21:404,1.4165,1.2945,9.9063,59.2414,-0.2713,0.5195,-0.1917,341.2092
13:38:21:421,1.986,0.5073,10.3705,59.0652,-0.3178,0.55,-0.2858,341.4054
13:38:21:441,2.0219,-0.28,11.5071,58.4205,-0.5084,0.2886,-0.5656,341.941
13:38:21:463,1.2323,-0.5719,13.3855,60.6293,-0.8419,-0.0974,-0.9431,342.9526
13:38:21:484,0.256,-0.792,14.9001,60.3029,-1.0569,-0.3393,-1.119,344.194
13:38:21:504,-0.2704,-1.2227,15.1968,58.1866,-0.8675,-0.3345,-0.9321,345.2336
13:38:21:522,-0.0885,-1.3902,14.211,59.5908,-0.3178,-0.1549,-0.4666,345.7485
13:38:21:542,0.7059,-1.1103,12.457,59.379,0.3175,0.0223,0.088,345.63
13:38:21:563,1.7539,-0.4618,10.7222,61.2447,0.7598,0.1102,0.545,344.9757
13:38:21:583,2.5484,0.1244,9.1884,59.8345,0.8991,0.2068,0.7746,344.0561
13:38:21:604,2.7182,0.9691,7.3651,59.0195,0.5374,0.4438,0.5059,343.1586
13:38:21:625,2.3785,1.1629,7.2359,60.3259,0.2858,0.3986,0.143,342.2688
13:38:21:648,1.6534,1.1677,7.0038,59.765,0.1465,0.3363,-0.2675,342.4962
13:38:21:663,0.6078,1.2634,6.7023,58.7682,0.1294,0.3607,-0.6291,343.1395
13:38:21:683,-0.1819,1.2897,6.4319,59.6109,0.1575,0.4083,-0.8417,344.0244
13:38:21:709,-0.6508,1.2825,6.4654,60.0069,0.1306,0.3766,-0.9101,344.9887
13:38:21:727,-0.5982,1.1773,6.7478,59.0346,0.0219,0.2287,-0.8918,345.9307
13:38:21:744,-0.28,0.8519,7.1952,58.5733,-0.1101,0.1212,-0.838,346.8331
13:38:21:760,-0.2034,0.5001,7.7216,61.0021,-0.2335,0.1457,-0.8405,347.7239
13:38:21:781,-0.6006,0.1555,8.1811,60.9148,-0.3556,0.1725,-0.9186,348.7269
13:38:21:801,-1.3926,-0.0359,8.6213,61.2065,-0.4521,0.0943,-0.9675,349.808
13:38:21:822,-2.333,0.0574,9.0497,60.1337,-0.4961,-0.0669,-0.8624,350.8083
13:38:21:842,-3.0389,0.5575,9.32,61.5702,-0.4888,-0.205,-0.5118,351.443
13:38:21:863,-3.0126,1.3448,9.6359,60.4082,-0.4521,-0.2245,0.0856,351.4167
13:38:21:882,-1.7922,1.8521,9.9206,60.8976,-0.4106,-0.1744,0.7869,350.6018
13:38:21:904,-0.0981,1.8568,10.392,59.8875,-0.3898,-0.1414,1.2585,349.2357
13:38:21:921,0.8495,1.8449,10.9663,59.6964,-0.4167,-0.0999,1.2609,347.8286
13:38:21:942,0.6508,1.8855,11.6124,58.8722,-0.4656,-0.0266,0.8956,346.8198
13:38:21:962,0.0144,1.7922,11.8995,61.7364,-0.4693,0.0211,0.4509,346.3107
13:38:21:986,-0.7537,1.4237,11.6124,59.9882,-0.3569,0.0895,0.1772,346.1263
13:38:22:006,-1.5864,1.2419,11.05,60.4513,-0.1846,0.197,0.1015,346.0326
13:38:22:025,-2.3976,1.3041,10.5212,60.6699,-0.0905,0.3228,0.1516,345.9013
13:38:22:043,-3.2112,1.3663,10.0762,58.0093,-0.1064,0.4853,0.2823,345.6396
13:38:22:069,-2.8044,0.9571,10.0905,60.3755,-0.1638,0.8763,0.8406,344.2119
13:38:22:088,-1.8114,0.7729,10.9902,60.7586,-0.2139,0.7529,1.1277,342.9915
13:38:22:105,-1.2538,0.7801,11.8421,59.3489,-0.2493,0.3961,1.212,341.6475
13:38:22:122,-1.1868,0.4642,11.9952,60.0159,-0.1345,0.1273,1.1021,340.4296
13:38:22:142,-1.3926,0.0191,11.4975,60.1827,0.1269,0.0394,0.9029,339.4323
13:38:22:164,-1.2658,-0.4092,10.6361,58.3501,0.3847,-0.0706,0.7734,338.575
13:38:22:181,-0.6293,-0.7298,10.2796,58.8252,0.5203,-0.3064,0.7624,337.7299
13:38:22:201,0.7298,-0.7442,10.6983,58.1402,0.48,-0.7352,0.7429,336.8928
13:38:22:222,1.663,-0.3996,10.7294,57.9692,0.309,-1.0565,0.5987,336.2324
13:38:22:241,1.4405,-0.28,10.5715,60.5967,0.1184,-0.8378,0.3996,335.8073
13:38:22:262,0.7083,-0.3278,10.325,58.3202,0.0109,-0.3601,0.2432,335.5276
13:38:22:285,0.2847,-0.4786,9.679,59.8775,0.006,-0.0645,0.1821,335.3108
13:38:22:303,0.1388,-0.7083,9.1765,58.8632,0.0964,0.0259,0.1919,335.0815
13:38:22:323,-0.3829,-0.0742,8.5878,58.9658,0.2442,-0.018,0.2249,334.8218
13:38:22:341,-0.6413,0.7202,7.8628,58.8632,0.392,-0.0351,0.391,334.3934
13:38:22:361,-0.0933,1.0313,7.334,60.9774,0.4971,0.1188,0.6818,333.6315
13:38:22:383,0.3876,1.3089,7.0277,58.6646,0.5044,0.3057,0.8724,332.6297
13:38:22:402,0.2776,1.7827,6.9057,58.6646,0.3823,0.3607,0.8553,331.6373
13:38:22:421,0.1172,2.2612,6.9894,58.0464,0.1905,0.3045,0.7466,330.7827
13:38:22:442,0.2728,2.3569,7.2335,58.0465,-0.0001,0.2703,0.6561,330.0282
13:38:22:463,0.4546,2.4096,7.7934,58.1698,-0.1651,0.2544,0.5596,329.3823
13:38:22:484,0.4211,2.5077,8.3988,57.8491,-0.3056,0.23,0.4252,328.89
13:38:22:502,0.2967,2.5149,8.9109,57.3488,-0.4082,0.2373,0.2579,328.5709
13:38:22:523,-0.0383,1.7659,9.7316,57.7733,-0.3874,0.3912,-0.083,328.481
13:38:22:543,0.2249,1.517,10.2891,57.7997,-0.3031,0.2434,-0.232,328.6976
13:38:22:565,0.5623,1.2658,10.8012,58.4417,-0.2029,0.054,-0.3347,329.0448
13:38:22:583,0.4187,1.1414,11.4114,59.7325,-0.1174,0.0076,-0.4177,329.482
13:38:22:603,0.2369,0.926,11.5669,57.7997,-0.0869,-0.0486,-0.5033,330.0128
13:38:22:622,0.0502,0.6963,11.4664,57.3585,-0.1052,-0.1659,-0.5656,330.6231
13:38:22:643,-0.0814,0.6197,11.5908,57.6656,-0.1883,-0.2978,-0.5949,331.2804
13:38:22:666,0.1029,0.4451,11.7775,56.2544,-0.352,-0.4542,-0.5778,331.9188
13:38:22:764,0.6748,0.0455,12.3254,57.7228,-0.556,-0.5348,-0.5314,332.5024
13:38:22:765,0.8519,-0.2393,12.9356,57.6999,-0.7331,-0.5568,-0.5167,333.0639
13:38:22:766,0.6963,-0.3996,12.9691,56.5836,-0.7673,-0.5067,-0.5008,333.5822
13:38:22:767,0.6341,-0.6532,12.5384,55.5823,-0.5804,-0.2575,-0.4165,334.006
13:38:22:767,0.6628,-0.8806,12.1579,56.1654,-0.2762,0.0003,-0.298,334.2919
13:38:22:784,1.3232,-1.3208,11.8181,57.4045,-0.016,-0.0877,-0.2223,334.4731
13:38:22:803,2.1344,-1.5649,11.0812,57.1093,0.1599,-0.4505,-0.2406,334.657
13:38:22:821,2.5077,-1.5577,10.3442,56.4663,0.2723,-0.5984,-0.3566,334.9655
13:38:22:841,2.4311,-1.3639,9.588,56.2552,0.3248,-0.4065,-0.5033,335.4413
13:38:22:863,1.9789,-0.9691,8.7195,55.2888,0.3273,-0.1182,-0.6413,336.0833
13:38:22:884,1.4405,-0.792,7.8796,54.7275,0.3309,0.1603,-0.7256,336.8398
13:38:22:901,0.9236,-0.5647,7.2885,56.1649,0.3517,0.3521,-0.7659,337.6469
13:38:22:922,0.6556,-0.2106,6.8267,55.8439,0.3664,0.4291,-0.7757,338.468
13:38:22:943,0.5695,0.0742,6.6664,56.1649,0.3664,0.4682,-0.7403,339.2621
13:38:22:968,0.5743,0.4666,6.6712,57.2995,0.3297,0.4474,-0.6902,340.7022
13:38:22:984,0.3254,0.9811,6.999,55.6654,0.1501,0.4267,-0.7647,341.5114
13:38:23:007,-0.335,1.1725,7.791,56.4948,0.028,0.4096,-0.9235,342.4902
13:38:23:026,-0.8159,1.1701,8.5639,54.183,-0.0918,0.241,-1.0933,343.6845
13:38:23:040,-1.1749,0.9045,9.2171,54.4477,-0.1699,0.0345,-1.2106,345.0263
13:38:23:061,-1.651,0.6126,9.9446,55.1221,-0.2041,-0.0718,-1.2448,346.4151
13:38:23:086,-2.3378,0.7202,10.8969,56.5432,-0.2103,-0.1402,-1.174,347.7147
13:38:23:102,-2.8499,0.9643,11.8205,54.8735,-0.1724,-0.2343,-0.9492,348.8042
13:38:23:122,-2.613,0.9882,12.2178,54.5504,-0.0368,-0.2831,-0.5619,349.4592
13:38:23:142,-1.919,0.7872,11.9043,54.8014,0.199,-0.1414,-0.1123,349.6135
13:38:23:162,-1.474,1.0098,11.4449,55.5945,0.4275,0.1506,0.2664,349.3213
13:38:23:183,-1.4812,1.7492,10.7629,55.5421,0.5057,0.4218,0.4912,348.7638
13:38:23:202,-1.5697,2.1942,10.4064,53.4269,0.4275,0.6454,0.6122,348.0701
13:38:23:221,-1.5601,2.3163,10.3872,54.7875,0.265,0.7345,0.6464,347.3162
13:38:23:241,-1.4931,2.1392,11.0261,53.5106,0.0805,0.6001,0.5572,346.6516
13:38:23:261,-1.2419,1.3543,11.7248,54.6274,-0.0319,0.197,0.3715,346.2114
13:38:23:286,-1.4381,0.7513,11.6913,52.997,0.0316,-0.1866,0.1564,346.0568
13:38:23:303,-2.0124,0.4331,10.6672,52.997,0.276,-0.1854,0.0551,346.0143
13:38:23:321,-2.3043,0.3039,9.6885,53.9248,0.557,0.0797,0.1723,345.8313
13:38:23:341,-1.9813,0.457,8.8534,52.2685,0.6584,0.1493,0.4093,345.3715
13:38:23:363,-1.3902,0.5838,8.3557,53.3466,0.5252,0.0162,0.5804,344.7166
13:38:23:383,-0.6891,0.4498,8.1308,53.5307,0.2479,-0.0461,0.6048,344.0479
13:38:23:402,0.0335,-0.0742,8.2241,52.9563,-0.0502,0.0272,0.5071,343.4568
13:38:23:427,-0.1292,-0.189,8.7577,51.1734,-0.2946,0.131,0.3336,343.0542
13:38:23:446,-1.6199,0.3206,9.9254,52.8679,-0.457,-0.0913,0.1418,342.7178
13:38:23:463,-1.6893,0.4977,9.6048,53.2825,-0.264,-0.1927,0.2738,342.4436
13:38:23:480,-1.2514,0.5432,8.6166,52.3662,0.0866,-0.0241,0.5034,341.8979
13:38:23:500,-0.9284,0.8901,7.9657,54.6274,0.3933,0.1762,0.7038,341.1109
13:38:23:519,-0.7226,1.5888,7.6163,51.8276,0.4947,0.1762,0.8162,340.1943
13:38:23:540,-0.6508,2.0674,7.5661,52.4029,0.4055,0.1005,0.8345,339.2701
13:38:23:560,-0.3829,2.1176,7.6642,52.6585,0.2576,0.0223,0.7649,338.4275
13:38:23:581,0,1.943,7.9777,53.2263,0.1379,-0.0205,0.6012,337.7567
13:38:23:599,-0.0838,1.9406,8.3438,52.8219,0.0561,-0.0315,0.3495,337.3611
13:38:23:620,-0.6078,1.998,8.5519,50.899,0.0047,0.004,0.1064,337.256
13:38:23:646,-0.8901,1.7061,8.6381,51.5419,-0.0111,0.0052,-0.0243,337.2542
13:38:23:660,-0.6915,1.3854,8.8271,53.5652,-0.0429,-0.1011,-0.0744,337.3373
13:38:23:681,-0.4929,1.3783,9.1717,53.5086,-0.1431,-0.2111,-0.1184,337.466
13:38:23:701,-0.2776,1.261,9.6622,50.9596,-0.286,-0.1878,-0.1465,337.6396
13:38:23:721,-0.2584,1.1438,10.2437,51.7519,-0.4509,-0.1427,-0.1856,337.8595
13:38:23:741,-0.268,0.9811,10.9424,50.5666,-0.6049,-0.1304,-0.2418,338.1207
13:38:23:762,-0.2273,0.5527,11.7942,51.7199,-0.7112,-0.1573,-0.2662,338.3799
13:38:23:781,0.1436,-0.146,12.7849,52.7209,-0.7625,-0.3198,-0.2443,338.6063
13:38:23:801,0.6221,-0.8112,13.8305,53.1591,-0.7331,-0.5935,-0.2051,338.8237
13:38:23:822,0.804,-1.0504,14.2493,52.2578,-0.6098,-0.7914,-0.1697,339.0119
13:38:23:845,0.6652,-0.9212,13.8736,51.3838,-0.3654,-0.5971,-0.0744,339.0759
13:38:23:861,0.8088,-0.8183,12.7131,52.2578,-0.0209,-0.1561,0.1687,338.8613
13:38:23:884,1.3519,-0.6078,11.4162,55.265,0.3065,0.1725,0.4888,338.2615
13:38:23:899,2.7805,0.1747,9.5474,53.4736,0.6437,0.2397,0.8125,337.3489
13:38:23:920,2.8594,0.5192,8.5878,52.7809,0.6352,0.2495,0.5951,335.64
13:38:23:940,2.2301,0.8997,7.8078,51.6471,0.513,0.2507,0.1601,335.3939
13:38:23:962,1.2514,1.1797,7.3268,51.8625,0.3456,0.2214,-0.3188,335.7034
13:38:23:983,0.3422,1.2419,7.2024,52.0183,0.199,0.1799,-0.678,336.4242
13:38:24:003,-0.2345,1.3687,7.4178,52.1464,0.1037,0.1127,-0.8527,337.3471
13:38:24:021,-0.2919,1.3902,7.5972,52.9161,0.0939,0.0321,-0.8808,338.3164
13:38:24:043,-0.1555,1.1414,7.5206,53.2958,0.177,-0.0339,-0.871,339.2922
13:38:24:061,-0.7274,0.2536,7.1019,54.7253,0.2467,0.0125,-0.8979,340.2844
13:38:24:084,-1.5984,0.7107,7.2168,53.8479,0.1245,0.3302,-0.8759,341.2519
13:38:24:100,-1.4261,1.3519,7.8006,53.1218,-0.115,0.5513,-0.5631,341.8572
13:38:24:125,-0.4905,1.2275,8.4084,52.8845,-0.3129,0.4682,-0.1807,342.0367
13:38:24:145,0.1651,1.1103,9.0568,54.0897,-0.3715,0.3167,-0.0671,342.0814
13:38:24:161,-0.3829,1.4955,9.5354,54.3362,-0.3166,0.2947,-0.2186,342.2877
13:38:24:182,-1.4812,1.7037,9.8608,54.463,-0.231,0.3253,-0.3872,342.7285
13:38:24:201,-2.5005,1.8975,10.5858,55.8746,-0.1919,0.1469,-0.4104,343.2277
13:38:24:220,-2.6967,2.0219,11.4592,53.1855,-0.1834,-0.1854,-0.2662,343.5979
13:38:24:243,-2.1488,1.8855,12.0431,53.8313,-0.1211,-0.3198,0.0355,343.6325
13:38:24:262,-1.4022,1.809,12.2225,54.2943,0.0072,-0.1659,0.3886,343.2622
13:38:24:282,-0.8519,1.7085,11.9617,54.9325,0.1245,0.1408,0.6122,342.5925
13:38:24:300,-1.1773,1.9597,11.5406,54.3568,0.1611,0.4181,0.6244,341.8964
13:38:24:320,-1.6845,2.1559,11.1218,55.6708,0.1257,0.5464,0.5303,341.2925
13:38:24:342,-2.0172,2.0818,10.9424,56.1346,0.0988,0.4939,0.4839,340.7478
13:38:24:364,-2.3234,1.2443,10.794,54.0217,0.1257,-0.0339,0.4301,340.2341
13:38:24:381,-2.5795,1.151,10.5308,56.6032,0.1428,0.0943,0.3629,339.4155
13:38:24:401,-2.8618,0.8399,9.6646,55.2889,0.1306,0.3472,0.3629,339.0487
13:38:24:420,-2.9288,0.4666,9.3081,56.3363,0.1062,0.4914,0.4924,338.5334
13:38:24:442,-2.6369,0.079,9.2315,56.9168,0.0109,0.4279,0.6244,337.8598
13:38:24:462,-2.1057,-0.0814,9.2913,54.233,-0.0893,0.186,0.6879,337.1487
13:38:24:486,-1.7396,-0.2225,9.3248,55.6544,-0.1455,-0.0877,0.6794,336.4372
13:38:24:500,-1.6869,-0.2967,9.0138,54.4553,-0.1565,-0.2098,0.6488,335.7928
13:38:24:521,-1.797,-0.0742,8.4897,56.5178,-0.1394,-0.1536,0.6989,335.0884
13:38:24:545,-1.4261,0.2465,7.8269,56.2922,-0.082,-0.0645,0.8858,334.1674
13:38:24:563,-0.9117,0.6556,7.6068,57.2149,-0.0001,-0.018,1.0899,333.0081
13:38:24:581,-0.4881,1.1462,7.4752,57.0797,0.0561,-0.1402,1.1729,331.7659
13:38:24:601,-0.1842,1.3639,7.59,57.3312,0.0988,-0.332,1.1485,330.572
13:38:24:621,-0.0144,1.651,7.8508,57.6421,0.1294,-0.5141,1.0544,329.5087
13:38:24:642,0.4068,1.785,7.8844,55.7529,0.1575,-0.5996,0.9371,328.5851
13:38:24:661,0.6676,1.8784,7.8126,57.0159,0.1685,-0.4469,0.8089,327.7892
13:38:24:681,0.4666,2.2014,7.8652,58.429,0.1257,-0.1683,0.6586,327.1201
13:38:24:702,0.1196,2.467,8.3486,57.6656,0.0267,-0.0229,0.4839,326.6256
13:38:24:721,-0.0383,2.4957,8.9348,58.8612,-0.0661,-0.0669,0.3043,326.3444
13:38:24:740,-0.0598,2.3952,9.7914,58.8482,-0.1003,-0.0852,0.1504,326.2333
13:38:24:762,-0.2297,2.0554,10.5811,57.6421,-0.1516,0.0003,-0.028,326.3217
13:38:24:852,-0.4977,1.4836,11.2104,57.8062,-0.2432,0.1567,-0.2015,326.5651
13:38:24:853,-0.8423,1.1677,11.9904,58.7444,-0.2994,0.2251,-0.2882,326.9025
13:38:24:853,-0.7178,0.3852,12.6891,58.4842,-0.374,0.1005,-0.3237,327.2867
13:38:24:854,-0.4331,0.0838,13.0959,57.7852,-0.3727,0.0284,-0.2724,327.9253
13:38:24:866,0.0191,-0.1938,13.541,59.0706,-0.3776,-0.029,-0.2271,328.1823
13:38:24:880,0.3709,-0.7274,13.5697,60.2163,-0.3605,-0.0425,-0.2345,328.4624
13:38:24:900,0.7178,-0.9858,12.8423,58.3649,-0.2518,0.0101,-0.2406,328.7234
13:38:24:920,1.1701,-0.9954,11.586,58.8675,-0.0246,0.087,-0.1868,328.9129
13:38:24:944,2.0148,-0.5432,10.4566,59.518,0.2784,0.0809,-0.0805,328.9662
13:38:24:962,3.015,-0.3565,9.6431,59.9687,0.568,-0.073,-0.0195,328.9554
13:38:24:980,3.8405,-0.3589,8.8223,59.993,0.6791,-0.2844,-0.1697,329.1212
13:38:25:000,3.6562,-0.4164,7.9777,61.8529,0.5166,-0.398,-0.5253,329.7022
13:38:25:021,2.2229,-0.2321,7.7743,59.8124,0.1123,-0.3027,-0.9431,330.7529
13:38:25:041,0.792,-0.0622,7.7169,60.4635,-0.3251,-0.1585,-1.1447,332.0501
13:38:25:066,0.1507,0.0718,7.6929,60.0704,-0.5694,-0.0498,-1.0518,333.2534
13:38:25:081,0.4427,0.414,7.4202,60.6254,-0.5768,-0.0205,-0.8356,334.2134
13:38:25:102,0.9165,0.8231,7.1952,62.2108,-0.4216,-0.0498,-0.7024,335.0324
13:38:25:130,0.9978,1.1749,7.2503,59.341,-0.2017,-0.0645,-0.7256,335.8701
13:38:25:144,0.6317,1.4453,7.5374,62.0175,0.0072,-0.0315,-0.8258,336.8262
13:38:25:160,0.2847,1.5242,7.4991,61.2503,0.1489,0.004,-0.9223,337.9009
13:38:25:180,0.055,1.4836,7.5709,61.9332,0.2124,0.0089,-0.9553,339.0162
13:38:25:200,-0.2034,1.6798,8.0279,62.914,0.2222,0.0199,-0.9541,340.1417
13:38:25:224,-0.2871,1.4309,8.3677,61.094,0.2296,-0.073,-0.9687,341.2816
13:38:25:243,-0.5216,1.06,9.0784,61.4736,0.2369,-0.139,-1.0323,342.505
13:38:25:261,-1.3974,1.3687,10.6409,60.7944,0.0475,-0.4542,-1.0274,344.9575
13:38:25:282,-1.5362,1.7133,11.8732,62.235,-0.0832,-0.6326,-0.871,346.0537
13:38:25:302,-0.6293,2.0124,12.9428,63.0385,-0.1589,-0.7266,-0.6902,346.9324
13:38:25:325,0.5049,2.2469,13.3974,63.7518,-0.1076,-0.7718,-0.59,347.6815
13:38:25:345,0.9547,2.2397,13.2706,62.8524,0.1135,-0.5678,-0.5448,348.3751
13:38:25:360,0.5456,2.132,12.3757,64.1233,0.3713,-0.1707,-0.4862,348.9622
13:38:25:381,-0.4116,2.1631,10.9639,64.1889,0.5313,0.2654,-0.4397,349.5069
13:38:25:400,-1.4788,2.5627,10.014,63.2654,0.5362,0.5879,-0.3884,349.9842
13:38:25:423,-1.9286,2.735,9.7603,65.1772,0.3981,0.6844,-0.2882,350.3309
13:38:25:443,-1.6487,2.3665,10.0235,62.8109,0.1843,0.4499,-0.1648,350.5674
13:38:25:463,-1.4405,1.8114,10.416,64.8799,-0.0123,0.0919,-0.094,350.7554
13:38:25:481,-1.7803,1.5601,10.5141,64.352,-0.0685,-0.0547,-0.0598,350.9391
13:38:25:500,-2.3641,1.4429,10.1623,64.4069,0.0377,0.0418,0.0526,351
13:38:25:523,-2.4048,1.2538,9.8608,64.7954,0.2002,0.1738,0.2725,350.7923
13:38:25:541,-1.7803,1.0385,9.7843,64.9329,0.3004,0.1493,0.5108,350.3264
13:38:25:561,-0.9452,0.9858,10.0953,63.6169,0.2906,-0.04,0.6366,349.7112
13:38:25:586,-0.1555,0.9452,10.4303,63.5737,0.2124,-0.2636,0.6036,349.1474
13:38:25:599,-0.0455,0.9332,10.3011,65.9824,0.1489,-0.3174,0.4582,348.7589
13:38:25:621,-0.2632,0.804,9.7244,65.1486,0.1514,-0.1585,0.3055,348.5179
13:38:25:642,-0.5623,0.7849,8.9133,64.9126,0.2112,0.0931,0.2347,348.333
13:38:25:661,-0.7418,0.9691,8.1547,64.4972,0.287,0.2642,0.275,348.0591
13:38:25:682,-1.1892,1.3113,7.6403,64.6245,0.3444,0.3277,0.3678,347.6874
13:38:25:702,-1.5099,1.8688,7.3914,65.0878,0.3749,0.3216,0.4802,347.1946
13:38:25:723,-0.9356,2.2708,6.9176,64.0375,0.4202,0.219,0.7844,346.5344
13:38:25:740,-0.4666,2.5531,6.9942,65.3141,0.4202,0.1945,0.8357,345.6566
13:38:25:761,-0.1603,2.9432,7.212,63.8072,0.3542,0.1872,0.7966,344.7993
13:38:25:780,0.1292,3.0413,7.6833,65.9958,0.2259,0.1762,0.6806,343.2401
13:38:25:801,-0.0335,3.0317,8.3462,65.3141,0.0756,0.0431,0.4851,342.7734
13:38:25:822,-0.1747,2.8499,9.131,65.7,-0.0417,-0.1048,0.2689,342.5736
13:38:25:842,0.0526,2.5771,10.0786,63.8072,-0.1186,-0.2123,0.0978,342.586
13:38:25:860,0.2776,2.2923,10.9161,66.6692,-0.1614,-0.2807,-0.0146,342.7197
13:38:25:881,-0.0909,1.4118,10.9807,65.7,-0.1834,-0.2001,-0.0866,342.9072
13:38:25:899,-0.5312,1.2945,11.8684,64.1128,-0.3166,0.1261,-0.1172,343.0711
13:38:25:924,-0.6126,1.1151,12.0742,64.7546,-0.4925,0.2226,-0.0634,343.1467
13:38:25:946,-0.3565,0.8566,12.2943,64.3718,-0.5499,0.2971,0.1284,343.0032
13:38:25:958,0.5815,0.2776,12.6724,63.2317,-0.5475,0.2458,0.3177,342.6437
13:38:25:979,1.407,-0.2536,13.0887,65.1236,-0.512,0.1127,0.3739,342.2136
13:38:25:998,1.4907,-0.4451,13.0768,62.6668,-0.4485,0.0223,0.2566,341.9301
13:38:26:020,0.9356,-0.4116,12.4786,64.1776,-0.3239,0.0809,0.1332,341.7823
13:38:26:039,0.5886,-0.2608,11.1721,62.7125,-0.1211,0.1628,0.2041,341.5605
13:38:26:060,1.0217,0.0861,9.7555,63.5659,0.1208,0.2556,0.4741,341.0135
13:38:26:082,1.6606,0.6389,8.418,65.4527,0.3346,0.3424,0.771,340.1195
13:38:26:102,1.9908,1.2825,7.6307,63.5572,0.4568,0.4242,0.8956,339.0635
13:38:26:122,1.7013,1.9478,7.2526,63.0186,0.4397,0.3888,0.7698,338.158
13:38:26:145,1.3735,2.4861,6.9559,63.2842,0.2882,0.2373,0.4851,337.6188
13:38:26:161,1.4596,2.5125,6.7478,62.9189,0.0781,0.1005,0.1589,337.4521
13:38:26:179,0.4164,1.797,7.1115,63.0247,-0.3166,-0.0706,-0.6633,337.7325
13:38:26:200,-0.3637,1.608,7.4536,62.5865,-0.4436,-0.117,-0.9675,338.4282
13:38:26:224,-0.524,1.194,7.6953,62.6645,-0.457,-0.0596,-1.0127,340.7453
13:38:26:242,-0.4786,0.9069,7.8174,61.1195,-0.3874,0.1163,-0.9113,341.7736
13:38:26:259,-0.95,0.8399,7.8844,62.8847,-0.2909,0.3082,-0.8087,342.6679
13:38:26:281,-1.3376,0.9236,8.1763,61.1567,-0.2188,0.4034,-0.7061,343.4561
13:38:26:302,-1.3687,0.8375,8.394,62.3237,-0.2041,0.3399,-0.5546,344.0934
13:38:26:319,-1.5912,1.072,8.8415,62.8631,-0.2323,0.2263,-0.3652,344.5345
13:38:26:340,-1.8927,1.3687,9.4086,61.4425,-0.2701,0.1469,-0.166,344.7947
13:38:26:359,-2.0794,1.742,10.3155,62.3922,-0.3116,0.1163,0.06,344.8061
13:38:26:379,-1.6678,2.1057,11.6722,62.1592,-0.341,-0.0583,0.3275,344.5321
13:38:26:402,-0.67,2.4167,12.536,60.6614,-0.2982,-0.3919,0.5609,343.9949
13:38:26:422,0.3589,2.3426,13.0816,62.1038,-0.1516,-0.5214,0.6476,343.3492
13:38:26:440,0.591,2.3737,13.2754,61.3793,0.0219,-0.3528,0.5462,342.8078
13:38:26:460,-0.1866,2.7015,12.5575,61.447,0.1562,-0.0791,0.3458,342.4708
13:38:26:479,-0.9476,3.5486,12.0646,60.436,0.2381,0.3192,0.242,342.2322
13:38:26:500,-0.9954,3.5509,11.7009,61.8796,0.3395,0.5305,0.2786,341.9224
13:38:26:520,-0.9739,3.2112,11.3922,58.1364,0.4397,0.3338,0.2249,341.6895
13:38:26:540,-1.273,2.7494,11.4114,59.7732,0.3603,-0.0999,-0.0011,341.7607
13:38:26:561,-1.7348,2.4957,11.1099,61.5128,0.1416,-0.3919,-0.2284,342.1332
13:38:26:581,-2.2014,1.5649,10.2221,60.5635,0.1709,-0.3345,-0.2601,342.5507
13:38:26:605,-2.4431,0.5671,9.5306,60.0962,0.2784,-0.0767,-0.1196,342.7835
13:38:26:622,-2.6704,0.4834,9.3966,60.9156,0.2601,0.0272,0.0844,342.7759
13:38:26:643,-1.3328,0.8231,9.0856,58.7269,0.2723,-0.2208,0.7136,342.4544
13:38:26:659,-0.2919,0.9691,8.8989,59.4758,0.2418,-0.2453,0.8712,340.8936
13:38:26:680,0.2417,0.8183,8.6907,58.8463,0.2002,-0.1573,0.837,340.0546
13:38:26:702,0.1914,0.7729,8.5759,58.303,0.1501,-0.1194,0.6781,339.3715
13:38:26:722,-0.256,0.9834,8.1667,57.0319,0.144,-0.1084,0.5254,338.8495
13:38:26:739,-0.6652,1.2586,7.6499,57.8361,0.1929,-0.0168,0.479,338.3942
13:38:26:760,-0.6365,1.584,7.2526,59.0439,0.2344,0.12,0.5157,337.8542
13:38:26:780,-0.6461,1.9932,7.2909,58.1335,0.2296,0.186,0.5572,337.2654
13:38:26:804,-0.4451,2.3043,7.4106,59.0439,0.1758,0.1506,0.545,336.6848
13:38:26:821,-0.4403,2.2804,7.4082,57.5347,0.1049,0.1322,0.4729,336.203
13:38:26:839,-0.3398,2.6512,7.7791,57.8308,0.0157,0.1921,0.3605,335.8141
13:38:26:945,-0.0718,2.6297,8.0686,58.4639,-0.071,0.1958,0.2798,335.5093
13:38:26:957,-0.055,2.5316,8.4993,57.9738,-0.0979,0.1786,0.1833,335.3086
13:38:26:958,-0.2297,2.6082,8.8104,55.9552,-0.0771,0.1457,0.0306,335.2678
13:38:26:958,-0.2847,2.4383,9.1047,54.6044,-0.0563,0.0895,-0.116,335.3618
13:38:26:959,0.0191,1.9693,9.6072,56.4836,-0.0844,-0.0547,-0.2626,335.6421
13:38:26:959,0.1842,1.4501,10.2987,53.9349,-0.1736,-0.2184,-0.4483,336.1908
13:38:26:980,-0.1316,0.95,10.9998,54.3788,-0.297,-0.3076,-0.6389,336.9478
13:38:27:002,-0.9212,0.5647,11.196,55.1426,-0.4167,-0.2587,-0.7341,337.8198
13:38:27:020,-1.3902,0.2369,10.7725,56.8144,-0.4986,-0.0229,-0.6376,338.5648
13:38:27:041,-1.3807,-0.1938,10.2963,55.5865,-0.5731,0.2214,-0.3615,338.9656
13:38:27:059,-1.0265,-0.4164,10.2915,54.7671,-0.6904,0.2654,-0.0427,338.9983
13:38:27:081,-0.1747,-0.2871,11.6315,52.6151,-0.8675,0.0162,0.424,338.7527
13:38:27:103,0.0048,-0.2919,11.744,55.0891,-0.7784,-0.095,0.5914,337.6107
13:38:27:122,0.414,-0.256,11.0477,53.6284,-0.6085,-0.0009,0.7673,336.7631
13:38:27:140,1.0768,-0.0048,10.1599,53.9355,-0.4583,0.2617,0.9482,335.6884
13:38:27:159,1.5793,0.7346,9.6263,53.0135,-0.3898,0.5024,1.1204,334.3959
13:38:27:179,1.9908,1.4859,9.4852,53.9151,-0.385,0.6942,1.2169,332.9595
13:38:27:205,2.1272,1.8353,9.5641,54.3564,-0.4155,0.7944,1.1265,331.6221
13:38:27:222,2.0004,1.5864,9.3966,51.6733,-0.457,0.7162,0.7844,330.6714
13:38:27:240,1.2993,1.2825,9.1382,51.8458,-0.4693,0.6099,0.2762,330.3005
13:38:27:259,0.5791,0.8853,8.8247,52.4644,-0.4094,0.5391,-0.2039,330.4921
13:38:27:280,-0.1316,0.5145,8.4036,52.7432,-0.2933,0.4633,-0.5631,331.1167
13:38:27:302,-0.8351,0.1795,7.937,51.6001,-0.1797,0.4034,-0.7891,332.002
13:38:27:319,-1.1844,-0.0766,7.614,53.0745,-0.1015,0.3692,-0.8368,332.9613
13:38:27:342,-1.0337,-0.3446,7.48,52.7312,-0.0746,0.3754,-0.7268,333.805
13:38:27:360,-1.0863,-0.3063,7.7264,53.1111,-0.1345,0.4034,-0.5631,334.4509
13:38:27:379,-1.151,-0.189,8.1811,53.7851,-0.2408,0.2971,-0.3933,334.9009
13:38:27:401,-1.1294,-0.0239,8.3892,53.5086,-0.3422,0.0773,-0.2772,335.2306
13:38:27:418,-1.3256,0.3972,8.5807,50.5666,-0.4656,-0.084,-0.2247,335.5077
13:38:27:438,-1.6965,0.5001,8.4443,54.122,-0.6672,-0.1487,-0.1551,335.6936
13:38:27:459,-1.3472,-0.0239,8.6309,52.2592,-0.8773,-0.1023,0.0196,335.7016
13:38:27:485,-0.6221,-0.3924,10.0881,52.2457,-1.0691,-0.0351,0.1955,335.4774
13:38:27:502,-0.0742,-0.4355,12.3302,50.423,-1.2573,-0.2636,0.2591,335.1396
13:38:27:521,0.0263,-0.3829,14.5651,53.1164,-1.4002,-0.7132,0.1931,334.804
13:38:27:539,-0.3805,-0.4786,16.0798,51.5342,-1.3587,-1.1054,0.0795,334.5436
13:38:27:560,-1.2491,-0.4044,14.3498,52.8921,-0.2445,-0.7608,0.2505,334.2579
13:38:27:580,-1.3208,0.1866,13.6247,54.2612,0.5802,-0.0498,0.5633,333.2374
13:38:27:602,-0.8136,0.5886,13.0241,53.7134,1.2717,0.3326,0.8614,332.3513
13:38:27:623,-0.4044,0.9523,12.0526,52.4555,1.6663,0.2129,0.9811,331.3029
13:38:27:638,-0.3159,1.4524,10.6146,52.4519,1.6895,-0.1463,0.9188,330.2834
13:38:27:659,-0.2106,1.4022,9.7388,53.8152,1.4684,-0.3467,0.7673,329.4229
13:38:27:684,-0.1292,1.0792,9.2315,51.3096,1.1776,-0.3271,0.567,328.8034
13:38:27:702,0.055,0.7298,9.4158,52.9037,0.8343,-0.2673,0.3141,328.4547
13:38:27:720,0.4307,0.4666,10.6648,52.4293,0.4568,-0.3027,0.0147,328.4218
13:38:27:739,0.4403,0.1747,11.1697,53.6646,0.1501,-0.4664,-0.2943,328.7414
13:38:27:759,0.323,-0.0646,11.1075,53.1338,0.0976,-0.387,-0.4984,329.2899
13:38:27:779,0.3183,-0.3996,10.0235,52.8873,0.3517,-0.2477,-0.5973,329.9368
13:38:27:800,0.0909,-0.6867,8.6477,52.9832,0.7915,-0.0864,-0.6914,330.6848
13:38:27:820,-0.1747,-0.6221,7.9466,53.8832,1.1788,0.1762,-0.805,331.5453
13:38:27:838,-0.8519,0.1125,6.9176,52.2949,1.2912,0.2446,-0.8368,332.4434
13:38:27:859,-1.2084,1.0552,6.3386,55.1465,1.1776,0.0883,-0.7048,333.2326
13:38:27:881,-0.9739,1.4094,5.8457,54.6804,0.943,-0.062,-0.4849,333.8047
13:38:27:899,-0.8495,1.7874,6.3051,53.8049,0.5802,-0.0974,-0.3298,334.2087
13:38:27:919,-0.7705,2.0842,7.0062,53.7687,0.243,-0.0583,-0.2797,334.5777
13:38:27:938,-0.6939,2.2158,7.8604,55.5234,0.0695,0.0773,-0.2369,334.8494
13:38:27:958,-0.8136,2.1607,8.6548,54.2044,0.0829,0.1945,-0.2015,335.0681
13:38:27:981,-1.0552,2.0363,9.2483,52.9738,0.2222,0.1579,-0.1954,335.2876
13:38:28:006,-1.1868,1.9621,9.5641,56.5749,0.3884,-0.1023,-0.2357,335.5669
13:38:28:027,-0.9667,1.6702,9.4995,55.3563,0.5533,-0.5299,-0.3444,336.0122
13:38:28:039,-1.273,2.0243,9.7555,56.534,0.425,-0.3906,-0.3273,336.9602
13:38:28:057,-1.3998,2.6512,10.2724,55.9758,0.0939,-0.2086,-0.1758,337.2198
13:38:28:080,-0.8207,2.3569,10.4351,56.3605,-0.2811,-0.029,0.0563,337.1768
13:38:28:098,0.4331,1.0337,10.9543,56.3108,-0.5572,0.2263,0.1662,336.9117
13:38:28:119,1.1844,0.2465,12.2728,55.5323,-0.771,0.2006,-0.0023,336.8175
13:38:28:138,0.591,0.3493,13.675,56.7438,-0.8956,-0.0339,-0.3603,337.1751
13:38:28:158,0.0742,0.1747,13.9382,59.2295,-0.8101,-0.1402,-0.634,337.8482
13:38:28:179,-0.055,-0.1603,12.9236,55.4627,-0.4852,-0.062,-0.6511,338.5434
13:38:28:199,-0.1125,-0.0718,11.1171,55.9173,-0.0295,0.0907,-0.4006,338.9441
13:38:28:220,-0.1149,0.3159,9.734,57.886,0.3908,0.2862,0.0062,338.8859
13:38:28:240,0.28,0.7657,8.4132,56.9301,0.5985,0.2971,0.3703,338.399
13:38:28:262,0.6796,1.3735,7.7336,57.6131,0.5948,0.2532,0.5425,337.739
13:38:28:282,0.7729,1.9813,7.3508,57.336,0.4543,0.3106,0.5279,337.0815
13:38:28:300,1.0385,2.1248,7.1474,58.543,0.2711,0.3766,0.4191,336.5167
13:38:28:318,1.2084,2.2158,7.1713,58.8138,0.1282,0.3643,0.2933,336.083
13:38:28:338,1.1677,2.1703,7.1976,57.7325,0.0634,0.2911,0.1271,335.8584
13:38:28:358,0.7346,1.9334,7.3388,56.7718,0.0646,0.2654,-0.138,335.9315
13:38:28:378,-0.0526,1.4764,7.3436,58.9909,0.0683,0.2483,-0.463,336.3894
13:38:28:398,-0.1436,1.3256,7.5948,57.5709,0.0096,0.2458,-0.7109,337.1104
13:38:28:420,-0.3063,1.2993,8.2385,59.2343,-0.0209,0.0528,-0.7451,337.9053
13:38:28:440,-0.6317,1.1988,9.1334,59.2343,-0.0576,-0.0779,-0.6193,338.5888
13:38:28:458,-1.0792,1.1366,9.9302,59.9652,-0.126,-0.1634,-0.4715,339.1313
13:38:28:483,-2.1057,1.6271,11.464,59.0402,-0.0954,-0.2147,-0.1184,339.7322
13:38:28:505,-2.1009,2.3857,12.2297,59.0402,0.0976,-0.3515,0.1992,339.6057
13:38:28:518,-1.4764,2.7278,12.5862,60.6873,0.3578,-0.31,0.5108,339.1176
13:38:28:537,-0.5073,2.8642,12.1651,59.409,0.5631,-0.1622,0.6855,338.409
13:38:28:558,0.1771,3.0389,11.6698,60.7575,0.6694,0.0479,0.7319,337.5719
13:38:28:587,0.0766,3.2016,11.1625,63.019,0.6767,0.3082,0.661,336.7698
13:38:28:608,-0.7466,3.3978,10.6409,62.8385,0.5912,0.511,0.4851,336.1333
13:38:28:618,-1.6104,3.4576,10.5069,60.9562,0.4446,0.5745,0.3141,335.6803
13:38:28:638,-1.9478,3.4313,10.794,62.3981,0.298,0.4719,0.2261,335.3367
13:38:28:658,-1.8305,2.8427,10.9472,61.7143,0.1868,0.2691,0.176,335.0972
13:38:28:681,-2.5292,2.3713,10.2413,61.6375,0.1953,0.1396,0.0856,335.0189
13:38:28:702,-3.4648,2.0746,9.1167,61.4292,0.3236,0.2238,0.0526,334.9657
13:38:28:719,-3.7376,1.5577,8.1117,62.0623,0.4385,0.3766,0.1809,334.7565
13:38:28:739,-3.4313,1.4333,7.5685,62.0752,0.4385,0.4022,0.413,334.2593
13:38:28:758,-2.4646,1.7348,7.6068,62.6686,0.3187,0.2825,0.7087,333.4689
13:38:28:780,-1.3591,1.864,8.0016,60.0957,0.1232,0.1982,0.9274,332.4236
13:38:28:798,-0.8638,1.7827,8.2098,62.1273,-0.0551,0.1786,0.9335,331.3503
13:38:28:819,-0.9284,1.7874,8.1165,61.0659,-0.1211,0.1664,0.8199,330.4163
13:38:28:840,-0.9667,2.0172,7.8461,63.5765,-0.0807,0.1261,0.7637,329.5554
13:38:28:858,-0.6604,2.1703,7.3603,62.0715,-0.0075,0.1066,0.8125,328.6623
13:38:28:880,-0.2752,2.3833,6.9081,61.9766,0.0487,0.1811,0.8883,327.6668
13:38:28:898,0.2034,2.6871,6.4989,62.2057,0.0597,0.2813,0.9213,326.575
13:38:28:920,0.5097,3.2136,6.3912,63.4627,0.0548,0.3766,0.8932,325.4972
13:38:28:938,0.7035,3.7783,6.2979,62.59,-0.0417,0.4535,0.5975,324.497
13:38:29:034,0.5838,3.8955,6.5898,62.9962,-0.1602,0.3827,0.3739,323.1656
13:38:29:035,0.4044,3.996,7.401,62.1748,-0.3104,0.2703,0.1442,322.9286
13:38:29:035,-0.0168,3.7711,8.528,62.7624,-0.4912,0.1554,-0.0964,322.9727
13:38:29:036,-0.6915,3.5031,9.5282,61.8132,-0.6354,-0.0144,-0.3151,323.3078
13:38:29:036,-0.8734,3.1729,10.3274,61.4417,-0.6904,-0.1769,-0.408,323.7758
13:38:29:057,-0.9906,2.8116,11.0812,63.4029,-0.7099,-0.2294,-0.4116,324.2426
13:38:29:079,-1.0959,2.723,11.8181,64.0466,-0.7454,-0.1854,-0.3909,324.6732
13:38:29:105,-1.1222,2.5819,12.7657,62.11,-0.7759,-0.1854,-0.3395,325.0531
13:38:29:118,-0.8853,2.3569,13.3017,64.299,-0.7918,-0.2416,-0.32,325.404
13:38:29:138,-0.3063,1.584,13.2514,62.9861,-0.749,-0.1817,-0.3432,325.762
13:38:29:158,0.0574,0.603,12.9045,64.4961,-0.6696,-0.007,-0.4409,326.1638
13:38:29:178,-0.0048,0.0981,12.3087,64.6676,-0.6195,0.0418,-0.6047,326.7425
13:38:29:200,-0.5408,0.0526,11.9665,64.1174,-0.5694,-0.0058,-0.6657,327.4268
13:38:29:218,-0.7202,-0.0933,11.8181,63.603,-0.4717,-0.0828,-0.5045,327.9404
13:38:29:238,0.5001,-0.6102,11.1386,62.7508,-0.2689,-0.2086,-0.2051,328.0959
13:38:29:258,1.8664,-0.6341,10.2485,61.2042,-0.0038,-0.2343,-0.0023,327.9944
13:38:29:278,2.2038,-0.0144,9.2483,61.8422,0.1905,-0.0412,-0.0671,327.9293
13:38:29:299,1.4453,0.5121,8.3533,61.5523,0.2491,0.2238,-0.3432,328.1669
13:38:29:318,0.4594,0.6987,7.4345,63.0401,0.166,0.3546,-0.6657,328.7926
13:38:29:338,-0.3278,0.7466,6.8459,62.6388,-0.016,0.3143,-0.8734,329.6809
13:38:29:357,-0.8566,0.9141,6.8889,63.3212,-0.1944,0.1738,-0.9089,330.6582
13:38:29:379,-0.6628,0.7346,7.2024,61.2012,-0.2823,-0.1341,-0.8185,331.6037
13:38:29:400,-0.8016,0.6174,7.1067,63.2045,-0.1504,-0.0877,-0.7952,333.3696
13:38:29:417,-1.0959,0.9452,6.9512,61.7143,0.0145,-0.0131,-0.7586,334.2223
13:38:29:437,-1.3256,1.0887,6.8626,63.9114,0.1501,-0.018,-0.6645,334.9785
13:38:29:458,-1.1246,1.2275,7.1689,63.0721,0.2015,0.0443,-0.5448,335.5672
13:38:29:479,-0.8566,1.2084,7.3292,62.3167,0.1208,0.0333,-0.4495,336.0436
13:38:29:507,-0.6389,0.737,7.6594,62.5142,-0.1321,-0.0461,-0.3689,336.4203
13:38:29:517,-0.3159,1.0409,9.1717,61.8679,-0.5755,-0.0473,-0.2907,336.7145
13:38:29:538,-0.3781,1.7444,10.9998,61.8679,-0.9482,-0.0889,-0.2626,336.975
13:38:29:558,-0.8016,2.0387,12.1986,61.8679,-0.9775,-0.0119,-0.3017,337.2787
13:38:29:578,-1.4836,2.2827,13.6822,61.8679,-0.8688,0.2971,-0.342,337.626
13:38:29:599,-1.8329,2.5651,14.2062,61.8679,-0.6855,0.2226,-0.3505,337.9989
13:38:29:617,-1.4285,1.9238,13.8999,61.8679,-0.2909,-0.1182,-0.2247,338.222
13:38:29:637,-1.1055,1.8401,14.321,61.8679,0.0194,-0.1915,-0.1942,338.3951
13:38:29:658,-1.2179,1.8114,13.4285,62.0241,0.2992,-0.1927,-0.3383,338.7363
13:38:29:679,-1.8114,1.3376,12.3374,62.9866,0.5105,0.0382,-0.4813,339.2704
13:38:29:698,-2.7111,1.0863,11.3539,62.5308,0.5228,0.1933,-0.6095,339.9825
13:38:29:718,-3.5342,0.9882,11.1793,59.8971,0.3884,0.2055,-0.6364,340.7354
13:38:29:739,-3.5916,0.5312,11.3396,60.4113,0.2491,0.0687,-0.469,341.3207
13:38:29:763,-3.2686,0.1603,11.1482,59.9455,0.2369,-0.1194,-0.1673,341.5843
13:38:29:777,-2.8642,0.1795,10.4495,60.4651,0.4043,-0.1561,0.1687,341.4599
13:38:29:798,-2.3043,0.2536,9.4588,59.3133,0.6474,-0.0718,0.4619,340.9915
13:38:29:817,-1.7444,0.2967,8.4347,60.0892,0.7598,-0.0681,0.6024,340.3449
13:38:29:839,-1.005,0.993,8.1523,59.0698,0.381,-0.2269,0.5352,339.7387
13:38:29:862,-0.3446,0.7681,8.5783,59.0698,0.0512,-0.2477,0.4949,339.1664
13:38:29:888,-0.1029,0.4068,9.1765,58.0793,-0.2249,-0.2245,0.3642,338.2508
13:38:29:898,-0.4953,0.402,9.3846,57.2778,-0.3324,-0.1427,0.1674,338.0583
13:38:29:917,-1.2203,0.6867,9.3033,56.447,-0.2518,-0.0278,0.0282,338.0403
13:38:29:937,-1.6893,1.0552,8.8487,55.9336,-0.0466,0.0369,0.0184,338.0429
13:38:29:957,-1.3161,1.0983,8.2672,56.206,0.2332,0.0443,0.1332,337.9115
13:38:29:978,-0.8088,1.3161,7.6092,56.7361,0.4971,-0.029,0.2505,337.6338
13:38:29:998,-0.4498,1.6869,7.2479,57.4613,0.6339,-0.1475,0.2689,337.3563
13:38:30:017,-0.201,1.9525,7.0134,57.3873,0.6266,-0.2514,0.1992,337.149
13:38:30:040,-0.1436,2.0315,6.8794,55.3057,0.5301,-0.2416,0.0734,337.1124
13:38:30:059,-0.2847,2.0124,6.9057,56.2908,0.3896,-0.1207,-0.072,337.2141
13:38:30:078,-0.6628,2.0937,7.3077,54.7757,0.2173,-0.0107,-0.1978,337.4224
13:38:30:100,-1.2012,2.3761,8.1667,54.3853,0.028,0.0027,-0.2614,337.7134
13:38:30:124,-1.3543,2.6082,9.1956,53.9099,-0.104,-0.0767,-0.2345,337.9807
13:38:30:136,-0.9523,2.3809,9.7914,52.8194,-0.1455,-0.1988,-0.1954,338.2377
13:38:30:158,-0.4498,2.1057,10.3179,53.3898,-0.1394,-0.2734,-0.2552,338.5703
13:38:30:176,-0.2153,1.8353,10.6361,56.5238,-0.1846,-0.2954,-0.4067,339.0212
13:38:30:196,0.012,1.328,10.9161,53.3186,-0.3214,-0.3235,-0.5656,339.6463
13:38:30:216,-0.0574,1.0816,11.3898,51.5617,-0.5242,-0.3112,-0.7024,340.4409
13:38:30:237,0.3493,0.7394,12.3924,53.1739,-0.7148,-0.2709,-0.7415,341.24
13:38:30:256,0.792,0.0694,13.2132,50.6592,-0.8211,-0.2807,-0.7451,341.9982
13:38:30:279,0.7466,-0.3805,13.5171,52.3926,-0.7796,-0.2538,-0.8282,342.8539
13:38:30:302,0.0885,-0.5384,12.6939,51.5509,-0.319,-0.0168,-0.7879,343.7549
13:38:30:317,0.2249,-0.5934,11.6243,50.1106,-0.0001,0.0724,-0.502,344.5591
13:38:30:336,1.0887,-0.6843,10.4782,50.7287,0.2442,0.0797,-0.1257,345.0887
13:38:30:356,2.0387,-0.4259,9.4373,50.0387,0.3371,0.0113,0.1332,344.823
13:38:30:377,2.2469,0.2034,8.662,50.7286,0.298,-0.0022,0.1613,344.5169
13:38:30:398,1.8209,0.6078,8.1643,47.9879,0.1807,0.0101,-0.017,344.4421
13:38:30:416,1.1988,0.7801,8.004,46.4811,0.0194,0.0125,-0.3493,344.7483
13:38:30:439,0.2943,0.9954,7.9442,49.1652,-0.0966,0.0125,-0.667,345.4509
13:38:30:455,-0.4068,1.0241,7.7982,49.3834,-0.0649,0.0174,-0.7965,346.3373
13:38:30:477,-0.8925,1.1031,7.3675,48.4376,0.1025,-0.0107,-0.7391,347.1936
13:38:30:498,-0.9978,1.1414,6.81,47.8053,0.3041,-0.0364,-0.5973,347.8835
13:38:30:518,-0.7753,1.2658,6.5611,46.8706,0.4128,-0.0473,-0.4727,348.45
13:38:30:536,-1.1055,1.5864,6.5922,46.3625,0.3566,0.0455,-0.4153,348.9622
13:38:30:556,-1.1438,2.1224,6.92,44.2513,0.1049,0.2569,-0.408,349.4314
13:38:30:579,-0.9308,1.8879,7.5996,46.3644,-0.1284,0.3082,-0.3212,349.7817
13:38:30:597,-1.1198,1.5625,8.4873,45.8679,-0.3116,0.3326,-0.254,350.0744
13:38:30:616,-1.9669,1.73,9.7986,46.3199,-0.4497,0.2825,-0.2797,350.4123
13:38:30:637,-2.5531,1.7827,11.2128,43.7169,-0.4961,0.1139,-0.2589,350.8009
13:38:30:659,-2.5125,1.6798,12.3278,43.1279,-0.3776,-0.0754,-0.0842,350.952
13:38:30:678,-2.2564,1.8975,12.9308,43.0037,-0.1296,-0.1317,0.2188,350.7479
13:38:30:697,-1.5984,2.2277,12.9811,42.9284,0.1526,-0.018,0.5755,350.1149
13:38:30:716,-0.6078,2.4,12.6724,43.5562,0.3749,0.1506,0.8492,349.163
13:38:30:737,-0.4044,2.4861,12.2824,42.0439,0.4886,0.3094,0.9054,348.1314
13:38:30:758,-1.5936,2.3904,11.019,40.1279,0.5289,0.5635,0.5657,347.2806
13:38:30:782,-2.132,2.321,10.6002,43.0195,0.535,0.4902,0.4924,345.998
13:38:30:797,-1.9956,1.8688,10.4949,39.6482,0.5362,0.3069,0.523,345.438
13:38:30:818,-1.9621,1.7276,10.3083,41.5571,0.5374,0.1298,0.5609,344.8453
13:38:30:836,-1.9478,1.718,9.7962,40.1872,0.5631,0.0687,0.5987,344.2352
13:38:30:856,-1.6056,1.5218,9.1573,40.8766,0.5533,0.1078,0.6366,343.563
13:38:30:881,-1.1988,1.3495,8.9516,42.2347,0.4311,0.0748,0.6073,342.906
13:38:30:897,-0.7944,1.1462,9.1071,40.046,0.1697,-0.0767,0.4704,342.4186
13:38:30:916,-0.8207,1.0026,9.4086,38.7253,-0.1455,-0.1158,0.2933,342.1371
13:38:30:937,-1.407,1.0696,9.5043,38.5946,-0.3385,0.0076,0.1907,341.963
13:38:30:957,-1.8497,1.2275,9.1717,37.8166,-0.319,0.1176,0.2139,341.7823
13:38:30:976,-1.8808,1.2179,8.1715,40.814,-0.1321,0.1896,0.3312,341.4923
13:38:30:998,-1.8521,1.4142,7.2072,37.9666,0.0719,0.2874,0.4875,340.9966
13:38:31:017,-1.9023,2.0124,6.4582,38.1541,0.1624,0.2849,0.6598,340.3279
13:38:31:120,-1.8688,2.7757,6.3075,36.623,0.0842,0.2275,0.8247,339.4892
13:38:31:121,-1.5984,3.2327,6.9153,36.7578,-0.1382,0.313,0.9506,338.4988
13:38:31:121,-1.2634,2.7374,7.7982,34.2811,-0.4351,0.6087,0.9103,337.436
13:38:31:122,-1.5099,2.3569,8.8056,35.5033,-0.6623,0.8567,0.6622,336.578
13:38:31:123,-2.0961,2.0722,9.667,34.9341,-0.7002,0.7028,0.3947,336.0944
13:38:31:135,-2.2253,1.7898,10.1312,35.4981,-0.5096,0.2434,0.253,335.8223
13:38:31:156,-1.9741,1.4788,9.7436,33.461,-0.1247,-0.2062,0.22,335.6654
13:38:31:178,-1.7635,1.4022,9.3177,35.5579,0.3236,-0.2575,0.2102,335.5342
13:38:31:196,-1.596,1.4189,9.2889,35.1742,0.6193,-0.0645,0.1943,335.3745
13:38:31:216,-1.0792,1.1892,9.6479,33.5709,0.2784,0.0174,0.0661,335.226
13:38:31:240,-0.792,0.9284,10.1121,32.1635,-0.0576,-0.1781,0.0709,335.0745
13:38:31:259,-0.6532,0.7825,10.7821,32.0008,-0.2811,-0.2245,0.0526,335.0237
13:38:31:279,-0.5838,0.5671,11.1888,32.5938,-0.4118,-0.1427,0.0221,334.9991
13:38:31:301,-0.4307,0.335,11.732,30.7465,-0.4912,-0.0645,0.0013,334.9754
13:38:31:326,-0.2034,0.0407,12.3613,30.4914,-0.5487,-0.1353,-0.028,334.9477
13:38:31:336,0.1484,-0.1747,12.6317,30.64,-0.5352,-0.3222,-0.0537,334.968
13:38:31:357,0.524,-0.122,12.3685,30.7947,-0.4094,-0.365,0.0111,334.9008
13:38:31:384,1.0935,0.1866,11.7296,32.0318,-0.2151,-0.2233,0.1907,334.6046
13:38:31:397,1.7922,0.6197,10.9759,30.71,0.0096,-0.0449,0.3739,334.0574
13:38:31:417,1.986,1.0696,9.6191,31.6819,0.2491,0.0577,0.3813,333.5001
13:38:31:436,1.474,1.0648,7.7456,29.5657,0.4385,0.1762,0.1919,333.1918
13:38:31:457,1.4118,1.5099,7.9753,30.71,0.221,0.3289,-0.094,333.1856
13:38:31:477,0.8925,1.6223,7.8724,29.7784,-0.1492,0.0565,-0.4642,333.6417
13:38:31:496,0.8973,1.2347,8.54,30.4536,-0.3813,-0.1817,-0.6291,334.3003
13:38:31:519,0.4331,0.9858,8.7649,30.3362,-0.457,-0.2526,-0.772,335.129
13:38:31:535,-0.2871,1.072,8.8223,27.6561,-0.3226,-0.1597,-0.8734,336.113
13:38:31:556,-0.8399,1.2395,8.4036,27.755,-0.0918,-0.029,-0.8795,337.1105
13:38:31:576,-0.95,1.3304,8.059,28.8696,0.1135,0.065,-0.7928,338.0342
13:38:31:596,-0.7753,1.4644,7.803,29.4504,0.2051,0.0626,-0.6975,338.8469
13:38:31:615,-0.8734,1.5625,7.8078,28.7765,0.1685,0.0479,-0.6755,339.6293
13:38:31:637,-1.1701,1.7037,7.9442,29.1813,0.0732,0.076,-0.6816,340.4492
13:38:31:659,-1.7611,1.9645,8.1715,29.9322,-0.0123,0.1738,-0.6523,341.2646
13:38:31:676,-2.3426,2.2804,9.5402,29.6309,-0.1724,0.142,-0.4214,341.9756
13:38:31:697,-2.479,2.3641,10.5739,29.2763,-0.2029,-0.0608,-0.3041,342.4823
13:38:31:717,-2.6919,2.6393,11.3492,28.3947,-0.1382,-0.1769,-0.1722,343.2974
13:38:31:738,-2.4574,2.6776,11.7727,28.4604,0.0084,-0.1744,0.0612,343.3839
13:38:31:758,-1.4644,2.546,12.0957,27.5891,0.177,-0.1512,0.3324,343.1005
13:38:31:777,-0.3374,2.4,12.1819,28.3851,0.3126,-0.0791,0.4802,342.5812
13:38:31:798,-0.067,2.3115,12.0503,27.098,0.3798,0.0528,0.3935,342.127
13:38:31:816,-0.9284,2.5172,11.4233,28.1337,0.3835,0.2129,0.1308,342.0067
13:38:31:836,-2.0004,2.6393,10.6241,29.5813,0.3761,0.3973,-0.1099,342.1702
13:38:31:858,-2.7517,2.7805,10.2365,26.9623,0.3432,0.4047,-0.2174,342.5082
13:38:31:877,-2.6632,2.5149,10.4566,29.6593,0.2601,0.1664,-0.2101,342.8298
13:38:31:895,-2.3569,1.8185,10.5978,29.6593,0.1685,-0.1646,-0.2589,343.2587
13:38:31:915,-2.7709,1.6032,10.483,28.236,0.1342,-0.1964,-0.4055,343.8748
13:38:31:935,-3.2279,1.4237,9.9278,30.0388,0.1905,-0.0339,-0.3725,344.4678
13:38:31:956,-3.2399,1.2682,9.2459,28.5693,0.2894,0.0907,-0.1282,344.7846
13:38:31:975,-2.7613,1.2299,8.5902,29.2214,0.3432,0.0443,0.1821,344.7301
13:38:31:998,-2.0387,1.2036,8.1763,28.0245,0.3077,-0.0828,0.4008,344.4203
13:38:32:017,-1.3783,1.2658,8.4897,27.9118,0.1575,-0.1927,0.4436,344.044
13:38:32:037,-0.9834,1.3448,8.8391,28.3035,-0.0502,-0.2819,0.3654,343.7639
13:38:32:059,-0.8829,1.1797,8.8917,29.6933,-0.1528,-0.2172,0.2908,343.5441
13:38:32:076,-1.1127,1.0935,8.3342,28.0245,-0.1088,-0.0559,0.3141,343.3057
13:38:32:096,-1.5553,1.3065,7.6331,28.8485,0.0133,0.0699,0.4766,342.8346
13:38:32:118,-1.6678,1.6247,7.0875,28.236,0.1086,0.0443,0.7233,341.2934
13:38:32:138,-1.0457,2.3545,7.3029,28.4086,0.0597,-0.1035,0.9836,340.2543
13:38:32:160,-0.7944,2.522,7.6475,28.5199,0.0292,-0.1231,0.9799,339.2949
13:38:32:179,-0.7298,2.5651,7.7025,27.7939,0.0646,-0.1084,0.9689,338.3402
13:38:32:213,-0.5288,2.6249,7.7288,29.4264,0.0964,-0.0913,0.9652,336.529
13:38:32:231,-1.2419,2.7278,8.595,27.5027,-0.4314,0.544,0.7026,335.759
13:38:32:252,-1.3256,2.4479,9.7268,29.3935,-0.6989,0.7003,0.749,334.8788
13:38:32:271,-1.1007,2.2971,10.5308,28.6545,-0.7979,0.8005,0.7759,333.9495
13:38:32:291,-0.5504,1.809,11.5143,29.232,-0.7295,0.7358,0.7075,333.0511
13:38:32:309,-0.0574,1.3807,12.1699,28.5372,-0.5804,0.5012,0.5242,332.3806
13:38:32:328,0.0263,1.1151,12.2608,27.6281,-0.4204,0.3192,0.264,331.9924
13:38:32:346,-0.0502,1.1174,12.2201,28.0854,-0.319,0.2226,0.0184,331.9117
13:38:32:364,-0.2321,0.402,11.9569,30.1376,-0.3043,0.0076,-0.0976,331.9746
13:38:32:386,-0.2106,-0.5647,12.0479,30.8673,-0.4118,-0.1707,-0.2565,332.2473
13:38:32:409,-0.5647,-1.0768,13.3352,29.0055,-0.6183,-0.2306,-0.5814,332.8817
13:38:32:425,-0.9045,-1.2395,13.596,28.454,-0.6623,-0.4872,-0.6425,333.6205
13:38:32:441,-0.7131,-1.3161,12.926,29.7635,-0.4082,-0.4566,-0.3505,334.0321
13:38:32:461,0.4092,-0.9787,11.7296,28.6398,0.0316,-0.1427,0.165,333.7784
13:38:32:482,1.6367,-0.4834,10.7318,29.7635,0.4568,0.0834,0.6525,332.9426
13:38:32:498,2.7063,-0.0359,9.533,29.7153,0.7023,0.1383,0.8101,331.938
13:38:32:525,3.0293,0.2632,8.6644,28.0854,0.7011,0.0846,0.5193,331.2143
13:38:32:539,2.4814,0.4834,8.1069,28.1198,0.4653,-0.0217,-0.0585,331.2063
13:38:32:559,1.3448,0.682,8.4084,30.5352,0.1062,-0.0266,-0.6364,331.8875
13:38:32:578,0.4379,0.7609,8.6142,30.1435,-0.1712,0.0137,-0.9834,332.9904
13:38:32:598,-0.1029,0.7825,8.4395,28.2145,-0.1651,0.0113,-1.0799,334.0919
13:38:32:616,-0.3876,0.6628,7.7264,29.4414,0.1062,0.0259,-1.042,335.3041
13:38:32:635,-0.4546,1.1629,7.4776,29.5745,0.4018,0.1554,-0.9638,336.4106
13:38:32:656,-0.2967,1.7324,7.0875,29.1601,0.5887,0.1041,-0.8991,337.4687
13:38:32:676,-0.134,2.132,7.1928,29.9811,0.6437,-0.0754,-0.893,338.5283
13:38:32:696,-0.0694,2.0124,7.2048,27.9594,0.6315,-0.3271,-1.0103,339.7596
13:38:32:715,-0.6317,2.1081,7.5063,29.7283,0.5716,-0.4908,-1.2216,341.2324
13:38:32:735,-1.5362,2.3091,7.7982,31.1193,0.4348,-0.5189,-1.3291,342.8924
13:38:32:756,-1.6295,2.4311,9.3033,30.2146,0.1232,-0.4175,-1.2436,344.4796
13:38:32:777,-2.2253,2.6608,10.0475,30.5624,-0.1308,-0.4786,-1.1898,346.0464
13:38:32:798,-2.388,2.6154,10.7581,30.9945,-0.1919,-0.547,-1.0909,347.5336
13:38:32:816,-2.8522,2.6417,11.5765,32.3966,-0.2665,-0.4212,-0.9626,348.8196
13:38:32:836,-2.8881,2.7422,12.5647,29.5055,-0.319,-0.3149,-0.6828,349.7964
13:38:32:858,-2.2684,2.5819,13.2586,32.5002,-0.2713,-0.2416,-0.3127,350.3012
13:38:32:878,-1.9334,2.4933,13.0098,31.5229,-0.0563,-0.0131,-0.0256,350.4596
13:38:32:895,-2.0842,2.7039,11.8158,30.4195,0.2589,0.3546,0.1442,350.397
13:38:32:915,-2.1248,2.6273,10.5284,30.4382,0.491,0.5464,0.2603,350.1772
13:38:32:935,-1.8784,2.4431,10.0786,30.4152,0.4763,0.3656,0.286,349.9342
13:38:32:958,-1.6893,2.077,10.3513,31.613,0.3138,0.0247,0.1943,349.8607
13:38:32:975,-2.2086,1.7946,10.1432,30.7121,0.2234,-0.1023,0.0257,349.9807
13:38:32:995,-3.0508,1.5864,9.2315,30.5624,0.3114,0.0577,-0.0451,350.1775
13:38:33:015,-3.3284,1.5194,8.2337,31.383,0.458,0.2361,0.0661,350.28
13:38:33:035,-3.1418,1.4979,7.1976,32.3664,0.5032,0.2691,0.2542,350.1685
13:38:33:056,-2.1272,1.2036,6.7645,30.891,0.1257,0.065,0.457,349.8785
13:38:33:077,-1.8808,1.1629,7.5063,31.3681,-0.2359,-0.1121,0.3947,349.1555
13:38:33:096,-1.8831,1.072,8.2122,33.3593,-0.5108,-0.1377,0.3312,348.9531
13:38:33:115,-1.9813,0.9667,8.4634,33.6688,-0.5768,-0.0339,0.3397,348.7414
13:38:33:187,-2.1607,1.1892,8.5567,32.5002,-0.5108,0.0589,0.4301,348.4335
13:38:33:188,-2.3067,1.6032,8.6931,32.9114,-0.407,0.076,0.6183,347.9225
13:38:33:188,-1.7252,1.6463,8.4443,33.8072,-0.2921,-0.0009,0.8211,347.1837
13:38:33:199,-1.2012,1.8497,8.0088,31.746,-0.1565,-0.04,0.9359,346.2723
13:38:33:215,-1.0313,2.1679,7.6403,33.8862,-0.049,0.0162,0.9555,345.3491
13:38:33:236,-0.95,2.4766,7.4441,31.5033,-0.0307,0.0638,0.9164,344.4637
13:38:33:256,-0.7681,2.6512,7.6738,32.5013,-0.0844,0.0956,0.8614,343.5985
13:38:33:276,-0.4738,2.7206,8.4132,32.4275,-0.1846,0.1029,0.7576,342.8314
13:38:33:301,-0.3302,2.6656,9.2554,29.3944,-0.2738,0.0736,0.5755,342.234
13:38:33:314,-0.7011,2.6752,9.8943,29.587,-0.3239,0.0516,0.3348,341.847
13:38:33:336,-1.0409,2.4479,10.5787,31.1758,-0.3679,0.0174,0.11,341.738
13:38:33:358,-1.0289,1.876,11.153,31.6507,-0.4131,-0.0461,-0.0573,341.881
13:38:33:377,-1.0552,1.2275,11.7368,31.4419,-0.4363,-0.1231,-0.1783,342.1622
13:38:33:395,-0.9117,1.005,12.1029,30.5952,-0.4387,-0.2074,-0.1942,342.4827
13:38:33:415,-0.6724,0.8542,12.3422,31.5407,-0.4473,-0.2551,-0.1392,342.7165
13:38:33:438,-0.0718,0.3278,12.591,32.2538,-0.4412,-0.1964,-0.039,342.8041
13:38:33:458,0.4642,-0.1627,12.9452,33.9693,-0.4302,-0.1659,0.0306,342.7626
13:38:33:475,0.6245,-0.4953,13.4812,32.9143,-0.4424,-0.2734,0.0013,342.7854
13:38:33:496,0.2776,-0.7753,13.0672,31.6681,-0.1614,-0.2917,0.0025,342.8424
13:38:33:515,0.5384,-0.7944,11.6339,32.0495,0.2344,-0.0046,0.2615,342.5522
13:38:33:538,1.139,-0.28,10.0666,34.1896,0.5838,0.1848,0.5987,341.8605
13:38:33:559,2.1631,0.0957,8.7482,31.4957,0.7695,0.2739,0.8516,340.8412
13:38:33:576,2.948,0.4044,7.535,33.3669,0.7561,0.3338,0.8455,339.8221
13:38:33:594,2.924,0.9691,6.7956,33.2378,0.5338,0.3534,0.5303,339.169
13:38:33:615,2.2181,1.3376,6.6233,33.2897,0.1733,0.3497,0.0587,339.0317
13:38:33:634,1.3735,1.2443,6.8722,32.6224,-0.1479,0.3179,-0.3701,339.4092
13:38:33:655,0.7322,0.9476,7.1497,33.6964,-0.2982,0.2385,-0.6608,340.1118
13:38:33:676,0.1029,0.9404,7.2981,32.8727,-0.2823,0.1347,-0.8001,341.0285
13:38:33:695,-0.0287,1.0624,7.3412,32.6208,-0.1663,0.0235,-0.783,341.9281
13:38:33:714,0.0933,1.1079,7.1043,33.3792,-0.038,-0.0241,-0.6999,342.7523
13:38:33:736,-0.0215,1.2682,7.2096,32.3321,-0.0087,0.0553,-0.6535,343.5409
13:38:33:757,-0.2489,1.4142,7.3005,31.4095,-0.0844,0.1273,-0.645,344.3191
13:38:33:776,-0.4044,1.5338,7.724,30.6102,-0.1968,0.1359,-0.6499,345.0986
13:38:33:795,-0.7394,1.919,8.2648,34.4423,-0.308,0.1115,-0.6535,345.8779
13:38:33:815,-1.0983,2.1368,9.3751,33.6194,-0.4167,0.0821,-0.6499,346.6799
13:38:33:836,-1.2347,2.1559,10.4758,33.4228,-0.512,-0.0608,-0.634,347.5106
13:38:33:857,-1.4501,2.1631,11.5932,32.1908,-0.5181,-0.2074,-0.5766,348.2632
13:38:33:876,-1.718,2.2995,12.1986,29.5776,-0.3813,-0.2465,-0.4312,348.8224
13:38:33:894,-1.7109,2.4359,12.3924,31.7689,-0.1431,-0.1573,-0.2051,349.121
13:38:33:914,-1.4094,2.6512,12.457,33.8966,0.0695,-0.0657,0.0257,349.1407
13:38:33:935,-0.9069,2.735,12.481,32.3058,0.1929,-0.0498,0.1491,349.0545
13:38:33:955,-1.3687,2.869,11.5214,34.754,0.2613,0.2507,0.0111,348.9839
13:38:33:976,-1.8592,2.7661,11.3204,34.2156,0.2137,0.4096,-0.0891,348.9544
13:38:33:999,-1.809,2.2708,11.933,32.401,0.0927,0.2666,-0.1734,349.4148
13:38:34:022,-1.6726,1.3998,12.6532,33.2682,-0.0087,-0.1451,-0.298,349.8439
13:38:34:039,-2.2086,0.7968,12.3996,34.3206,0.0719,-0.4151,-0.4458,350.4838
13:38:34:054,-3.1298,0.3996,10.8299,33.8495,0.3627,-0.3222,-0.4324,351.1417
13:38:34:077,-3.4792,0.2823,9.2363,35.116,0.7158,-0.0681,-0.1624,351.4999
13:38:34:094,-3.0867,0.4403,8.0758,33.314,0.8685,0.0382,0.1968,351.4534
13:38:34:114,-2.4191,0.6365,7.858,33.101,0.695,-0.0473,0.4375,351.1152
13:38:34:136,-1.6606,0.6867,8.2744,32.6197,0.3151,-0.1597,0.5462,350.6694
13:38:34:156,-1.3687,0.548,8.8726,34.5533,-0.0502,-0.1011,0.5633,350.1746
13:38:34:175,-1.395,0.4427,9.1382,32.8115,-0.22,0.065,0.5279,349.7
13:38:34:194,-1.6391,0.469,9.0664,33.1869,-0.2078,0.1848,0.4998,349.2136
13:38:34:214,-1.8401,0.6461,8.7697,34.6794,-0.1247,0.2043,0.5327,348.7331
13:38:34:234,-1.9956,0.7944,8.4491,33.2039,-0.016,0.1689,0.6403,348.1368
13:38:34:254,-1.8544,0.95,8.0614,32.3725,0.1049,0.0846,0.7832,347.3921
13:38:34:280,-1.3807,1.0361,7.6786,32.1075,0.2552,0.0321,0.9261,346.4656
13:38:34:294,-0.9404,1.3208,7.3484,33.794,0.3688,0.0089,1.0141,345.4145
13:38:34:313,-0.7107,1.797,7.1904,30.8793,0.3896,0.0357,1.0251,344.3939
13:38:34:333,-0.6102,2.1272,7.2096,33.3389,0.3468,0.1567,1.0043,343.317
13:38:34:355,-0.4427,2.2732,7.1809,34.2915,0.276,0.2348,0.9359,342.3019
13:38:34:375,-0.2489,2.3952,7.2311,31.9225,0.1856,0.2483,0.7942,341.4467
13:38:34:394,-0.4164,2.6824,7.5996,32.8581,0.0414,0.2569,0.5926,340.8076
13:38:34:419,-0.4977,2.7661,9.6431,32.386,-0.3862,0.1102,0.2334,340.0758
13:38:34:435,0.2106,2.2684,10.605,30.7238,-0.5462,-0.1243,0.0783,340.0479
13:38:34:460,0.2847,1.7779,11.0524,30.6864,-0.6208,-0.1854,-0.1636,340.2333
13:38:34:476,-0.4044,1.6008,11.3468,32.4477,-0.6965,-0.1096,-0.4532,340.6938
13:38:34:494,-0.8806,1.4118,11.8851,31.6772,-0.8004,-0.0877,-0.6254,341.4155
13:38:34:515,-0.2153,0.6867,12.5575,32.4741,-0.8578,-0.1414,-0.5753,342.0706
13:38:34:537,0.9141,-0.122,13.2275,32.7071,-0.8529,-0.3406,-0.4507,342.5759
13:38:34:555,1.5888,-0.4953,13.6989,32.4158,-0.793,-0.5629,-0.458,343.0672
13:38:34:574,1.3567,-0.67,13.7037,32.9503,-0.6684,-0.5568,-0.6034,343.7462
13:38:34:594,0.4786,-0.6915,13.3998,30.9545,-0.4509,-0.3357,-0.6877,344.5128
13:38:34:614,0.3063,-0.6939,12.749,32.0049,-0.1369,-0.1793,-0.5155,345.0728
13:38:34:634,1.2179,-0.7466,11.7823,32.2176,0.1978,-0.1878,-0.1734,345.2293
13:38:34:656,2.1392,-0.5073,10.4471,31.9034,0.4311,-0.2025,0.088,345.083
13:38:34:675,2.3043,-0.0814,9.0018,32.6628,0.5069,-0.0168,0.1369,344.8626
13:38:34:695,1.9406,0.2991,7.7862,32.6628,0.4592,0.2739,0.0318,344.765
13:38:34:717,1.2849,0.615,7.1115,32.0049,0.3138,0.4108,-0.1367,344.865
13:38:34:734,0.5168,1.139,6.9033,34.0214,0.1159,0.3216,-0.3286,345.2017
13:38:34:755,-0.0526,1.3974,6.9799,32.1075,-0.0209,0.2055,-0.452,345.7289
13:38:34:774,-0.2513,1.4429,6.8626,33.0631,-0.0295,0.1347,-0.4715,346.2815
13:38:34:794,-0.1316,1.407,6.7717,32.1908,0.05,0.1176,-0.4446,346.801
13:38:34:814,-0.0191,1.6128,6.7956,32.0914,0.1147,0.0919,-0.4458,347.3154
13:38:34:835,0.3613,1.8592,6.932,32.1908,0.1049,0.0577,-0.4666,347.8485
13:38:34:855,0.6676,1.9382,7.3508,33.8751,0.0304,0.0369,-0.5277,348.4258
13:38:34:875,-0.1507,1.8042,8.5543,33.0485,-0.2017,-0.0962,-0.7818,350.0072
13:38:34:894,-0.524,1.7324,9.2291,34.2919,-0.2396,-0.1536,-0.8001,350.9197
13:38:34:916,-0.6221,1.651,9.868,33.669,-0.2188,-0.1207,-0.7207,351.7677
13:38:34:937,-0.9093,1.797,10.7079,32.7033,-0.2188,-0.0535,-0.6169,352.5158
13:38:34:953,-1.34,2.1057,11.4281,33.8966,-0.2579,-0.0559,-0.5033,353.1432
13:38:34:977,-1.4859,2.2804,11.9545,33.2682,-0.242,-0.062,-0.2968,353.534
13:38:34:997,-1.0935,2.3115,12.3254,32.6536,-0.1284,0.0199,-0.0158,353.5918
13:38:35:017,-0.67,2.345,12.5958,31.7797,0.0182,0.1359,0.1907,353.4088
13:38:35:034,-0.8901,2.6728,12.4187,29.5776,0.133,0.2373,0.2261,353.1255
13:38:35:055,-1.395,2.8379,12.0048,33.6194,0.2051,0.3827,0.1442,352.9544
13:38:35:074,-1.4285,2.254,11.8062,35.535,0.1795,0.3656,0.0245,352.9658
13:38:35:094,-0.9715,1.1151,12.3709,33.5656,0.0597,0.015,-0.166,353.2025
13:38:35:115,-1.0217,0.1053,13.0217,35.9712,-0.027,-0.4493,-0.4031,353.7413
13:38:35:136,-1.9525,-0.3111,12.5671,35.9662,0.0658,-0.6289,-0.5423,354.4907
13:38:35:156,-2.9336,-0.4834,11.2032,34.1262,0.3884,-0.4188,-0.4202,355.1184
13:38:35:175,-3.2136,-0.4618,9.7005,35.4889,0.7867,-0.1769,-0.0634,355.3112
13:38:35:235,-2.7924,-0.1077,8.3294,32.5817,1.0334,-0.139,0.3238,355.1002
13:38:35:235,-1.785,0.4857,7.3842,36.5452,0.998,-0.1573,0.6073,354.5519
13:38:35:236,-0.3924,0.7011,7.2455,34.1737,0.6865,-0.0046,0.7856,353.7679
13:38:35:260,0.8088,0.6508,7.5182,34.1186,0.1929,0.2068,0.7979,352.8866
13:38:35:272,0.7657,0.7537,8.3175,36.6435,-0.2909,0.4719,0.6342,352.1385
13:38:35:293,-0.2513,1.0983,9.545,34.2235,-0.6024,0.5537,0.3654,351.6932
13:38:35:314,-0.8925,0.9882,10.2006,33.1818,-0.6049,0.2141,0.1186,351.5984
13:38:35:336,-0.9787,0.0574,8.6094,34.2656,0.3309,-0.2318,-0.0158,351.6746
13:38:35:352,-1.2969,0.6389,7.3077,34.8301,0.7048,-0.1439,0.0294,351.7679
13:38:35:372,-1.34,1.2395,6.1304,35.2144,0.7586,-0.018,0.1748,351.6429
13:38:35:394,-1.0409,1.4883,5.5753,36.418,0.5936,0.12,0.347,351.3125
13:38:35:414,-0.4187,1.718,5.659,35.3306,0.3126,0.1554,0.424,350.8862
13:38:35:432,0.0933,2.0124,6.2429,34.4211,-0.0111,0.1322,0.3715,350.5053
13:38:35:453,-0.0861,2.0315,7.3723,35.0263,-0.3043,0.1725,0.2114,350.2828
13:38:35:472,-0.7226,2.0794,8.5926,35.0263,-0.512,0.131,0.0001,350.3081
13:38:35:492,-1.0504,1.9238,9.5402,33.6015,-0.5511,-0.0083,-0.1147,350.4902
13:38:35:512,-0.7322,1.5745,10.1982,34.8301,-0.4509,-0.1671,-0.1221,350.6774
13:38:35:532,-0.3374,1.2945,10.8873,35.4484,-0.3715,-0.3125,-0.1587,350.9232
13:38:35:553,-0.1101,1.0624,11.5286,36.3501,-0.4094,-0.3491,-0.2528,351.2635
13:38:35:573,-0.0574,0.7849,12.2656,34.3658,-0.5621,-0.3247,-0.3432,351.702
13:38:35:593,0.1149,0.3685,13.0433,35.1585,-0.7344,-0.2978,-0.3725,352.1588
13:38:35:613,0.3733,0.0096,13.7563,34.5747,-0.8138,-0.2941,-0.309,352.531
13:38:35:633,0.6963,-0.3063,14.0004,35.0656,-0.7368,-0.2978,-0.1917,352.7751
13:38:35:653,0.8016,-0.481,13.6558,37.0536,-0.5132,-0.2074,-0.0781,352.8908
13:38:35:673,0.926,-0.3972,12.8758,37.1265,-0.2286,-0.0425,0.0318,352.8546
13:38:35:693,1.2969,-0.1388,11.9928,35.2144,0.0377,0.098,0.1955,352.63
13:38:35:716,2.0698,0.0694,11.2511,35.6746,0.1953,0.1237,0.3568,352.1743
13:38:35:733,3.082,0.1196,10.684,35.2144,0.2369,0.1298,0.424,351.6266
13:38:35:752,3.5486,0.1172,9.9805,35.1706,0.1953,0.2141,0.3348,351.1515
13:38:35:773,2.9623,0.3661,9.2746,36.4124,0.0988,0.3717,0.1076,350.9378
13:38:35:795,1.2658,0.8279,7.9968,36.6976,0.0109,0.5146,-0.2882,351.0014
13:38:35:814,0.8447,0.8327,7.3603,36.3205,0.0988,0.4951,-0.3628,351.2262
13:38:35:840,0.5815,0.9739,6.7693,35.3508,0.2137,0.4523,-0.4043,351.9872
13:38:35:858,0.4235,1.2156,6.3266,36.3148,0.3016,0.3668,-0.4422,352.4518
13:38:35:876,0.2943,1.4357,6.195,36.4857,0.3297,0.2507,-0.4947,352.9859
13:38:35:895,0.1962,1.5888,6.2931,35.8328,0.2906,0.1176,-0.5729,353.6076
13:38:35:914,0.0598,1.7204,6.8818,36.127,0.1831,0.0089,-0.6999,354.414
13:38:35:935,-0.1029,1.7228,7.4991,36.7271,0.0341,-0.0522,-0.8417,355.389
13:38:35:953,-0.8829,1.7731,8.7912,35.8784,-0.1028,-0.1231,-0.9516,356.4874
13:38:35:974,-1.8425,1.8927,10.6313,36.7962,-0.2029,-0.5592,-1.0176,357.6919
13:38:35:993,-1.5721,1.5099,12.548,36.3463,-0.1626,-1.4658,-1.0359,358.9991
13:38:36:014,-0.5001,0.6843,13.206,36.6744,0.1758,-2.1658,-0.992,0.3225
13:38:36:034,-0.4881,0.7442,12.3924,38.9203,0.6963,-2.123,-0.8954,1.5479
13:38:36:053,-1.6056,1.9693,11.2343,38.6436,1.0909,-1.5122,-0.7073,2.582
13:38:36:073,-1.9717,3.0317,10.2509,38.3292,1.1886,-0.7914,-0.2919,3.1206
13:38:36:095,-0.4116,3.0891,9.4756,38.9371,1.0212,-0.2074,0.2786,2.9194
13:38:36:114,1.2778,3.1705,9.3488,38.7989,0.6975,0.3192,0.6794,2.1282
13:38:36:134,1.7827,3.7232,9.9254,37.358,0.2845,0.6576,0.7319,1.2031
13:38:36:155,1.3567,3.9697,10.5595,37.8849,-0.0771,0.7956,0.5657,0.444
13:38:36:175,0.8159,3.6514,10.9591,38.0408,-0.2689,0.7822,0.3238,359.9628
13:38:36:194,0.3685,2.8594,11.3204,37.626,-0.2884,0.6454,0.077,359.7854
13:38:36:217,-0.0383,1.943,11.6483,38.7963,-0.2396,0.2788,-0.1465,359.9234
13:38:36:235,-0.7035,1.4859,11.1386,38.4639,-0.1101,-0.1133,-0.2479,0.271
13:38:36:256,-1.2802,1.1797,8.8319,40.5415,0.4067,0.0943,0.0929,0.4626
13:38:36:279,-0.8853,1.1988,8.3797,39.374,0.4617,0.186,0.3202,0.1433
13:38:36:298,-0.4331,1.3878,8.5663,38.7963,0.2662,-0.0009,0.4252,359.7355
13:38:36:315,0.3493,1.2538,9.3751,39.1296,-0.038,-0.2624,0.4314,359.3508
13:38:36:338,0.9978,0.8447,10.0834,37.8848,-0.2713,-0.3723,0.3642,359.0109
13:38:36:354,0.9739,0.4307,10.6241,39.374,-0.3605,-0.3418,0.2456,358.8316
13:38:36:374,0.3302,0.7298,10.8802,40.0374,-0.3349,-0.3846,0.1369,358.7848
13:38:36:398,-0.5312,1.2682,11.153,38.983,-0.1712,-0.3821,0.1308,358.788
13:38:36:418,-0.8782,1.2969,10.0786,39.0927,0.177,-0.2599,0.231,358.6409
13:38:36:433,-0.8016,1.2179,8.4634,40.5771,0.6315,0.0137,0.4033,358.2848
13:38:36:454,-0.7825,1.7276,7.1833,37.6853,0.9369,0.2813,0.5767,357.6812
13:38:36:473,-0.8686,2.4144,6.2285,39.7356,0.987,0.4059,0.7514,356.851
13:38:36:493,-0.6556,2.7781,5.6542,39.7597,0.8587,0.4951,0.9371,355.7762
13:38:36:514,-0.2823,3.1514,5.6207,39.7437,0.6193,0.5452,1.0495,354.5856
13:38:36:534,0.3183,3.338,6.1519,40.3622,0.3187,0.5232,1.0153,353.414
13:38:36:554,0.5288,3.4983,7.0636,38.9294,0.0329,0.4535,0.8431,352.4293
13:38:36:578,0.3374,3.6108,7.8939,41.4462,-0.1626,0.3497,0.578,351.7268
13:38:36:595,-0.012,3.6012,8.5902,41.4462,-0.22,0.2691,0.3177,351.3357
13:38:36:613,0.012,3.2495,9.0616,41.6436,-0.2041,0.1774,0.1418,351.1567
13:38:36:632,0.5743,2.7302,9.6239,40.6839,-0.2164,-0.0119,0.0465,351.1399
13:38:36:652,1.4333,2.333,10.4901,40.1061,-0.3178,-0.2526,-0.05,351.2654
13:38:36:673,1.7803,1.9095,11.7105,40.1336,-0.5071,-0.3406,-0.2137,351.5483
13:38:36:694,1.4094,1.6247,12.6508,41.3509,-0.7356,-0.2709,-0.4129,352.0358
13:38:36:716,1.6343,0.2871,13.1821,41.1301,-0.9005,0.1017,-0.4361,353.0137
13:38:36:735,1.9597,-0.0646,12.9787,40.1449,-0.8407,0.3155,-0.2992,353.2417
13:38:36:757,1.4524,0.1005,12.7011,41.8144,-0.7441,0.5354,-0.1844,353.3502
13:38:36:772,0.7849,0.5432,12.1962,40.3271,-0.5597,0.7455,-0.0231,353.3061
13:38:36:795,0.8614,0.6317,11.3372,40.1688,-0.2323,0.8604,0.2835,352.8789
13:38:36:814,1.7109,0.4522,10.3992,40.465,0.1428,0.7028,0.628,352.068
13:38:36:836,2.814,0.524,9.5498,39.9723,0.4409,0.2923,0.8113,351.0672
13:38:36:855,3.5629,0.9547,8.4873,40.3842,0.5814,-0.0266,0.716,350.1992
13:38:36:877,3.4313,1.1605,7.3914,43.5202,0.5228,-0.0205,0.3605,349.7227
13:38:36:892,2.3115,1.2921,6.5348,41.327,0.2796,0.1567,-0.1257,349.7797
13:38:36:918,0.8997,1.4333,6.2118,41.327,-0.0282,0.2959,-0.546,350.3185
13:38:36:934,-0.0909,1.4381,6.3458,41.6864,-0.2579,0.3057,-0.7403,351.0972
13:38:36:955,-0.4522,1.3807,6.7406,42.7459,-0.3569,0.1603,-0.7366,351.905
13:38:36:974,-0.2967,1.3974,7.2,41.0887,-0.3324,-0.073,-0.6657,352.6863
13:38:36:999,0.0885,1.5027,7.3962,40.5421,-0.2274,-0.216,-0.6401,353.4581
13:38:37:016,0.0048,1.651,7.413,41.1243,-0.1296,-0.1317,-0.6999,354.278
13:38:37:033,-0.268,1.6487,7.5637,40.4098,-0.1492,0.0052,-0.7989,355.1789
13:38:37:052,-0.5097,1.5386,8.2122,41.4387,-0.297,0.0272,-0.8637,356.1385
13:38:37:077,-0.6485,1.3017,9.143,43.5684,-0.4815,-0.0742,-0.8734,357.157
13:38:37:097,-0.7681,1.2634,9.9948,41.4356,-0.5865,-0.1646,-0.8466,358.1361
13:38:37:114,-1.151,1.5577,10.7103,42.3893,-0.6061,-0.1377,-0.7757,359.0712
13:38:37:135,-1.5577,1.8401,11.2152,43.7617,-0.5316,0.0309,-0.5839,359.7765
13:38:37:153,-1.7611,2.254,11.6004,44.17,-0.3789,0.1945,-0.2687,0.1419
13:38:37:173,-0.9356,2.9193,12.4666,43.9101,-0.0844,0.0773,0.3642,0.1114
13:38:37:198,0,2.8331,12.9093,45.0592,0.0194,-0.0559,0.4643,359.7026
13:38:37:215,0.2273,2.6034,12.9452,44.3384,0.0878,-0.0473,0.369,359.2087
13:38:37:235,-0.4666,2.6201,12.5958,44.6796,0.1086,0.0907,0.1748,358.7001
13:38:37:334,-1.3472,2.4431,12.122,44.4905,0.1025,0.3008,0.0465,358.7069
13:38:37:335,-1.6582,1.9047,11.8875,44.4779,0.0781,0.3741,0.049,358.7144
13:38:37:336,-1.7563,1.395,11.9809,45.4456,0.0781,0.1945,0.0941,358.6734
13:38:37:337,-1.9884,1.005,11.7847,44.1156,0.1905,-0.0962,0.1528,358.6237
13:38:37:338,-2.1512,0.6293,10.9304,43.7209,0.4543,-0.2465,0.2762,358.4239
13:38:37:354,-1.7492,0.4187,9.746,43.5198,0.7695,-0.2001,0.4729,358.0083
13:38:37:372,-1.0648,0.3996,8.6022,44.2993,0.9369,-0.0816,0.6512,357.3777
13:38:37:393,-0.3446,0.4187,8.0303,42.9157,0.827,-0.0095,0.7087,356.653
13:38:37:415,0.1125,0.615,8.0207,43.8173,0.4482,-0.0009,0.6342,355.9789
13:38:37:434,0.1651,0.5504,8.6381,43.8324,-0.0697,0.0711,0.4521,355.513
13:38:37:458,-0.3948,0.3422,9.5043,44.9973,-0.4839,0.2043,0.253,355.2506
13:38:37:478,-1.0959,0.39,9.8536,43.2191,-0.5853,0.2996,0.1613,355.0728
13:38:37:496,-1.3376,0.4738,9.411,44.7914,-0.3764,0.3253,0.2371,354.8198
13:38:37:516,-1.1055,0.4403,8.4371,43.4674,-0.016,0.3424,0.4069,354.3809
13:38:37:533,-0.9595,0.6078,7.5613,44.7734,0.2723,0.2874,0.5437,353.7974
13:38:37:554,-0.8064,1.0313,7.0517,43.9311,0.3591,0.1444,0.5975,353.2092
13:38:37:576,-0.67,1.4716,7.1497,43.3673,0.2845,0.0601,0.6219,352.5764
13:38:37:594,-0.3757,1.7659,7.4106,45.178,0.1367,0.0321,0.6354,351.9091
13:38:37:613,-0.0287,1.7994,7.6666,44.8683,0.0573,0.1029,0.6512,351.2184
13:38:37:634,0.0742,2.211,7.7719,44.6484,0.0891,0.1799,0.5499,350.5091
13:38:37:653,-0.1364,2.467,7.7695,44.0411,0.0903,0.1371,0.4314,349.3984
13:38:37:676,-0.5312,2.6465,7.8915,45.6521,0.0524,0.0614,0.2774,349.136
13:38:37:700,-0.6939,2.7996,8.2337,43.7991,-0.027,-0.0437,0.1516,349.0311
13:38:37:715,-0.2991,2.6919,8.9228,44.8785,-0.1577,-0.2013,0.0807,349.0112
13:38:37:733,0.5671,2.0698,9.9039,44.7059,-0.3495,-0.4029,-0.0585,349.1648
13:38:37:753,1.2873,1.1533,11.2152,46.3835,-0.578,-0.5544,-0.3725,349.6426
13:38:37:775,1.1701,0.457,12.7466,44.5899,-0.8492,-0.6216,-0.7794,350.5782
13:38:37:796,0.5049,-0.1029,14.0363,45.8689,-1.0923,-0.6106,-1.0799,351.8565
13:38:37:813,0.0479,-0.7466,14.9695,43.3547,-1.1388,-0.4994,-1.1105,353.1577
13:38:37:832,-0.0694,-1.206,15.3954,44.0925,-0.9372,-0.3931,-0.8783,354.1949
13:38:37:854,-0.4546,-0.9332,14.9169,43.5198,-0.5401,-0.2013,-0.4971,354.8105
13:38:37:878,-0.6102,-0.4618,13.4237,46.1943,-0.0246,0.219,-0.0011,354.8611
13:38:37:894,-0.0359,-0.2895,11.7224,46.2006,0.4873,0.6454,0.5486,354.2656
13:38:37:913,0.859,-0.0861,10.2509,46.6448,0.849,0.7162,1.0178,353.123
13:38:37:932,2.0363,0.2608,9.0186,44.5279,0.9821,0.456,1.245,351.7126
13:38:37:952,2.9312,0.725,8.2648,45.731,0.8526,0.1567,1.1363,350.3894
13:38:37:975,3.1872,1.0983,8.0495,44.1922,0.4873,-0.0058,0.738,349.5262
13:38:37:995,2.6728,0.9763,8.2744,45.731,0.0793,0.0223,0.2237,349.2394
13:38:38:013,1.5601,0.7729,8.4682,45.4677,-0.1589,0.098,-0.2186,349.4643
13:38:38:034,0.481,0.7705,8.3007,44.4533,-0.1406,0.0956,-0.4458,349.9718
13:38:38:054,-0.0838,0.8829,7.6929,46.3834,0.0732,0.0455,-0.4471,350.5211
13:38:38:077,-0.055,1.3113,5.8552,44.8467,0.4995,0.1017,-0.2308,351.1474
13:38:38:095,-0.0024,1.7492,5.4078,46.2424,0.4727,0.1909,-0.2027,351.3771
13:38:38:112,0.0622,2.2158,5.6064,45.0003,0.2674,0.241,-0.2357,351.6719
13:38:38:135,0.2249,2.3665,6.1232,45.0329,-0.0221,0.2446,-0.3127,352.037
13:38:38:153,0.0981,2.455,6.9846,46.9019,-0.2872,0.2226,-0.4593,352.5694
13:38:38:173,-0.335,2.4718,7.9896,45.6968,-0.4925,0.1115,-0.6633,353.3352
13:38:38:197,-0.3398,2.3521,9.4158,44.0414,-0.6379,-0.0278,-0.8099,354.2628
13:38:38:218,-0.0838,2.1152,10.6887,45.7109,-0.7307,-0.1048,-0.8514,355.2046
13:38:38:232,-0.5886,2.1152,11.7392,46.9032,-0.7283,0.0076,-0.8209,356.1946
13:38:38:252,-1.5529,2.4622,12.402,47.5854,-0.6183,0.131,-0.7244,357.091
13:38:38:274,-1.9262,2.6943,12.7537,45.2459,-0.3947,0.1615,-0.4739,357.7084
13:38:38:294,-1.3687,2.6632,12.8638,46.6534,-0.1003,0.1212,-0.1013,357.8925
13:38:38:314,-0.055,2.4072,12.5767,44.1595,0.188,0.0846,0.2102,357.7061
13:38:38:334,0.6939,2.4383,12.0072,45.6178,0.3542,0.1347,0.2762,357.3992
13:38:38:352,0.1436,2.6201,11.4305,46.8933,0.3309,0.2556,0.0526,357.3505
13:38:38:374,-0.8327,2.3737,11.4784,46.3262,0.1648,0.3143,-0.2748,357.6794
13:38:38:394,-1.5649,1.8879,11.9378,44.7914,-0.0649,0.175,-0.5289,358.3594
13:38:38:414,-1.8425,1.1127,12.4116,44.4115,-0.2249,-0.0302,-0.6755,359.2252
13:38:38:433,-2.4167,0.5838,12.3374,46.5895,-0.2164,-0.2001,-0.7293,0.1529
13:38:38:453,-2.924,0.146,11.3659,47.2236,0.0255,-0.183,-0.601,0.9853
13:38:38:477,-3.1322,0.1866,10.0786,46.6199,0.3969,-0.0254,-0.2882,1.4751
13:38:38:493,-2.7541,0.4738,8.9037,44.725,0.6462,0.0724,0.0563,1.5628
13:38:38:514,-2.1057,0.871,8.2122,46.9361,0.6242,0.0797,0.2847,1.3666
13:38:38:540,-0.7681,1.0648,8.6477,44.708,0.0353,0.0797,0.3739,0.6405
13:38:38:552,-0.3565,0.993,8.9372,44.6844,-0.1846,0.0321,0.2713,0.4251
