Time,Acc_X,Acc_Y,Acc_Z,Meg,Gyr_X,Gyr_Y,Gyr_Z,Ore
13:29:36:499,-1.5453,-0.9583,7.6352,57.2712,1.1627,-0.8092,0.2961,70.3281
13:29:36:515,-1.5801,-0.6458,7.4209,57.7638,0.9428,-0.3383,0.2631,70.3281
13:29:36:548,-1.9631,-0.2005,7.0738,58.3404,0.8301,-0.3018,0.2934,70.3281
13:29:36:566,-1.768,0.2161,7.1935,58.0465,0.7145,-0.4233,0.2529,219.5312
13:29:36:576,-1.4556,0.428,7.2115,57.9005,0.5737,-0.4443,0.1624,219.2812
13:29:36:596,-1.3071,0.659,7.8734,58.2281,0.5015,-0.3745,0.0721,219.0312
13:29:36:616,-1.2329,0.744,8.2422,59.1231,0.5462,-0.2076,-0.0113,218.7656
13:29:36:651,-1.7788,0.7811,7.81,57.8983,0.5891,-0.2659,0.0303,218.7188
13:29:36:660,-2.09,0.847,7.5419,57.4875,0.5217,-0.1876,0.1501,218.7812
13:29:36:674,-2.0852,1.1797,7.1672,58.3202,0.3433,0.014,0.3467,218.7812
13:29:36:700,-2.0397,1.716,7.002,57.3485,0.0008,0.01,0.4825,218.6562
13:29:36:718,-1.8458,1.9148,8.466,58.2066,-0.171,-0.0366,0.4852,218.3125
13:29:36:732,-2.1966,1.971,9.887,58.094,-0.0807,-0.0731,0.4838,217.75
13:29:36:753,-2.7041,1.8765,10.4771,59.4338,0.1481,-0.0835,0.6252,217.1875
13:29:36:783,-2.1583,1.5137,10.4221,59.8021,0.3547,-0.202,0.7081,216.625
13:29:36:792,-1.6651,1.5317,10.3838,57.5078,0.4533,-0.3823,0.6516,215.9531
13:29:36:811,-1.0976,1.6933,9.8642,58.7749,0.3483,-0.2065,0.5304,215.1719
13:29:36:831,-1.0462,1.7639,9.3531,58.3115,0.0208,0.026,0.4447,214.4531
13:29:36:855,-1.0222,1.2863,9.9193,58.4767,-0.3665,-0.3639,0.3427,214.1562
13:29:36:876,-1.2952,0.2173,12.7337,59.0515,-0.2876,-0.9863,0.3025,213.6406
13:29:36:891,-1.6148,-0.7308,14.57,57.706,0.3963,-1.1208,0.527,213.1719
13:29:36:912,-1.3107,-0.58,12.7157,58.8621,1.1207,-0.647,0.8585,212.8281
13:29:36:931,-0.4021,0.015,9.9899,60.0005,1.407,0.3916,1.0359,212.0781
13:29:36:950,0.5185,0.9858,6.2598,58.4276,0.8453,0.3799,0.9038,211.1562
13:29:36:970,0.7639,1.8597,6.1712,59.779,0.0634,-0.5524,0.6431,211.1562
13:29:36:991,0.8189,1.6538,9.8427,59.7624,-0.0839,-0.9106,0.3789,210
13:29:37:014,0.376,0.4591,12.778,59.8548,0.4581,-1.2278,0.3267,209.0156
13:29:37:030,0.5029,0.0616,13.507,59.0081,1.1942,-0.9514,0.3834,208.3281
13:29:37:048,0.5651,0.8254,11.3857,59.179,1.4663,-0.1695,0.4205,207.9375
13:29:37:069,0.9518,1.5329,7.3826,60.2329,0.9816,0.2074,0.3805,207.6562
13:29:37:092,0.8141,2.256,5.3021,58.9549,0.1217,0.2383,0.3054,207.2812
13:29:37:109,0.5879,2.5816,6.5925,59.6194,-0.5553,0.3421,0.2034,206.8125
13:29:37:128,0.7842,2.2224,9.0909,58.9614,-0.7271,0.4199,0.1294,206.3594
13:29:37:148,0.5041,1.9567,10.2844,59.5925,-0.5353,0.3304,0.1051,206
13:29:37:168,0.4395,1.9866,9.8056,58.9669,-0.3398,0.161,0.0868,205.7188
13:29:37:189,0.449,1.9962,8.4852,58.8753,-0.3273,-0.1482,0.0434,205.3906
13:29:37:210,0.4299,2.056,7.7238,59.4393,-0.3904,-0.4877,-0.0105,205.3281
13:29:37:228,0.6729,1.977,7.9632,57.7747,-0.3992,-0.5687,-0.0941,205.25
13:29:37:249,0.9913,1.9004,8.5438,58.8448,-0.281,-0.3769,-0.1878,205.25
13:29:37:269,0.7423,2.2488,8.8108,60.3404,-0.0612,-0.1665,-0.2499,205.3438
13:29:37:295,0.127,2.5768,8.3128,58.554,0.1209,-0.214,-0.2027,205.5469
13:29:37:312,0.0133,2.5959,7.5778,59.1842,0.1569,-0.3801,-0.1617,205.8281
13:29:37:329,0.3018,2.5923,7.2941,58.2687,0.0437,-0.6627,-0.1673,205.9688
13:29:37:349,0.8955,2.4116,8.0614,60.3968,-0.1313,-0.916,-0.2158,206.2031
13:29:37:369,1.5276,1.5592,9.5087,58.915,-0.3084,-0.8776,-0.3077,206.4062
13:29:37:394,1.7646,0.8661,11.0565,59.1431,-0.3649,-0.4784,-0.3298,206.6406
13:29:37:412,1.8101,0.4028,11.1918,60.0144,-0.2826,0.0537,-0.1924,206.9375
13:29:37:428,1.8927,0.1143,10.1779,60.4899,-0.1377,0.3003,0.0593,207.3594
13:29:37:448,1.931,0.094,9.5709,58.5037,0.0072,0.2478,0.3565,207.7812
13:29:37:469,2.4398,0.7967,9.7804,61.1433,-0.025,0.1155,0.4247,208
13:29:37:494,3.7279,1.1474,9.62,60.9975,-0.3891,0.0172,-0.0459,207.75
13:29:37:510,3.7016,1.3426,9.7768,60.2903,-0.9321,0.4484,-0.6216,207.2188
13:29:37:528,2.2267,0.9535,9.7493,60.0857,-1.4687,1.2553,-0.892,206.9531
13:29:37:549,0.807,0.4208,9.2717,59.4729,-1.8698,1.7355,-0.8368,207.3906
13:29:37:569,0.2252,0.1514,8.891,59.4729,-2.0403,1.6021,-0.6651,208.3125
13:29:37:592,0.0791,0.0497,8.8371,59.8163,-1.9625,0.9328,-0.4978,209.3281
13:29:37:611,-0.0154,0.2759,9.3734,59.3914,-1.6679,0.1288,-0.3625,210.1562
13:29:37:629,0.0013,0.6159,10.7225,59.2836,-1.0538,-0.4108,-0.305,210.7969
13:29:37:648,0.4263,0.6602,11.363,57.5708,-0.2791,-0.758,-0.3982,211.2656
13:29:37:669,0.7208,0.4723,8.5594,57.9488,0.2772,-0.8813,-0.5125,211.5625
13:29:37:693,0.8668,0.5656,7.4724,60.5011,0.3867,-0.8406,-0.5857,211.8906
13:29:37:714,0.8153,1.0565,7.5215,58.9611,0.1105,-0.6949,-0.68,212.3438
13:29:37:729,0.6837,1.2755,8.8168,59.15,-0.3702,-0.5588,-0.8323,212.875
13:29:37:748,0.2886,0.8661,11.1798,58.3222,-0.8242,-0.3375,-1.0243,213.5469
13:29:37:768,-0.1603,0.1909,12.4212,59.9986,-0.9734,0.1355,-1.1069,214.3594
13:29:37:789,-0.6547,0.0676,11.5629,59.4349,-0.7838,0.7648,-1.0054,215.4062
13:29:37:810,-1.3335,0.7129,10.0618,58.822,-0.514,1.1666,-0.77,217.2656
13:29:37:829,-1.7596,1.4695,9.7517,57.956,-0.4005,1.201,-0.456,217.9062
13:29:37:849,-1.6627,1.813,10.7094,59.1581,-0.4072,1.0295,-0.1135,219.5156
13:29:37:869,-0.6966,2.056,11.5378,57.99,-0.2991,0.813,0.2583,220.1406
13:29:37:895,0.2874,2.4307,11.4624,59.187,-0.0019,0.5882,0.5491,220.3125
13:29:37:915,0.8273,2.6031,11.0326,58.9831,0.335,0.2153,0.6013,220.3281
13:29:37:931,1.1326,2.1889,11.1487,59.9657,0.5454,-0.2457,0.4561,219.9219
13:29:37:948,1.0069,1.4455,11.5749,58.4773,0.5779,-0.4952,0.2551,219.3125
13:29:37:969,0.6154,1.0864,12.0849,58.9899,0.4735,-0.4411,0.1033,218.7031
13:29:37:988,0.3664,1.0193,12.2524,57.6159,0.2823,-0.2281,0.005,218.2656
13:29:38:011,0.2455,0.9224,12.5146,56.9709,0.0285,-0.0659,-0.1117,218.0625
13:29:38:030,-0.4584,0.2747,13.3957,57.2303,-0.2384,-0.064,-0.293,217.9688
13:29:38:048,-2.0757,-0.9726,14.6,58.4597,-0.3417,-0.1223,-0.4648,218.0156
13:29:38:068,-2.8634,-2.2296,14.5593,57.132,-0.0208,-0.3232,-0.3449,218.2188
13:29:38:094,-2.6132,-2.6665,13.4388,58.2378,0.53,-0.4313,0.0708,218.6562
13:29:38:112,-1.683,-2.6689,11.3067,58.277,1.0032,-0.1466,0.5648,219.2969
13:29:38:128,-0.6176,-2.384,8.454,57.5192,1.2629,0.2369,0.9291,219.1875
13:29:38:148,-0.189,-1.7065,6.425,56.123,1.1854,0.2755,1.082,218.5312
13:29:38:169,-0.0442,-0.914,6.1843,57.5937,0.8104,-0.0571,1.1227,217.5
13:29:38:195,0.5161,-0.6147,7.4832,57.3063,0.3707,-0.5266,1.1432,216.2969
13:29:38:213,0.9662,-0.4794,8.7593,55.7891,0.1233,-0.7756,1.1075,215.0781
13:29:38:229,0.886,-0.319,8.9317,57.5294,0.1049,-0.6624,1,213.75
13:29:38:248,0.6513,-0.2508,7.9046,56.7953,0.187,-0.3069,0.9022,212.4531
13:29:38:269,0.5568,-0.1095,6.6907,56.949,0.208,0.0034,0.8639,211.3281
13:29:38:294,0.5807,0.0988,6.085,57.7818,0.1321,0.1024,0.853,210.2969
13:29:38:311,0.455,0.2999,6.3531,57.6976,0.0101,0.0401,0.8204,209.2969
13:29:38:330,0.5604,0.2544,6.8547,56.4734,-0.0522,-0.0888,0.7861,208.375
13:29:38:354,0.7902,0.2735,7.1265,57.0549,-0.0083,-0.2113,0.772,207.4375
13:29:38:367,1.0943,0.4902,7.0103,56.3988,0.0714,-0.2624,0.764,206.5312
13:29:38:389,1.3947,0.8685,6.9816,55.7156,0.0077,-0.365,0.569,206.0938
13:29:38:456,1.6808,1.072,7.5347,56.2596,-0.1324,-0.3714,0.3592,204.7969
13:29:38:456,1.6078,0.908,8.3858,56.662,-0.2794,-0.1924,0.1576,203.9844
13:29:38:457,1.2798,0.6351,8.9377,56.4235,-0.4549,-0.0166,0.0268,202.9219
13:29:38:468,1.0224,0.4088,9.5434,55.1673,-0.6509,0.0329,-0.0475,202.9219
13:29:38:488,0.8872,0.0629,10.4077,55.5405,-0.8461,-0.0257,-0.084,202.7344
13:29:38:511,0.7806,-0.659,11.934,55.6777,-1.0378,0.0012,-0.0509,202.7188
13:29:38:528,0.8513,-1.655,13.7404,57.256,-1.1569,0.2915,0.0742,202.7812
13:29:38:548,1.3935,-2.0321,14.7891,53.5163,-1.0948,0.6526,0.1422,202.8906
13:29:38:568,2.1381,-1.8417,14.3546,53.6775,-0.9209,0.8289,0.0191,202.9375
13:29:38:588,1.8736,-1.327,12.9312,54.3268,-0.8261,0.6465,-0.1964,202.8906
13:29:38:611,1.2583,-1.1726,12.505,54.5604,-0.7928,0.3485,-0.3609,202.8594
13:29:38:634,0.7866,-1.6622,13.1299,53.202,-0.6091,0.2598,-0.3753,203.0469
13:29:38:648,0.5496,-2.3038,13.1515,54.1726,-0.2727,0.3054,-0.2022,203.4219
13:29:38:667,1.0212,-2.4247,12.0693,54.4126,0.0471,0.2244,0.0223,203.875
13:29:38:689,2.4434,-2.1745,10.5178,54.1409,0.2021,-0.1176,0.0841,204.0938
13:29:38:710,3.7063,-1.5712,9.8235,53.8204,0.2093,-0.455,-0.0824,204.3594
13:29:38:730,3.9015,-1.0313,10.0534,52.9784,0.2035,-0.4489,-0.3532,204.3594
13:29:38:756,2.9534,-0.908,10.1096,51.9218,0.326,-0.1279,-0.5274,204.2656
13:29:38:767,1.7958,-0.7919,8.8156,52.1511,0.465,0.2612,-0.5383,204.2969
13:29:38:790,1.1517,-0.5034,6.9804,51.0402,0.5036,0.5333,-0.4589,204.6406
13:29:38:812,1.1158,0.003,5.52,51.4021,0.4735,0.5898,-0.386,205.2031
13:29:38:829,1.712,0.7691,5.4026,50.8715,0.4693,0.5256,-0.4326,205.8594
13:29:38:848,2.3345,1.0983,6.1903,50.6095,0.5904,0.5698,-0.6275,206.7031
13:29:38:870,2.1729,1.0014,5.6301,49.9467,0.628,0.6015,-0.8603,207.1875
13:29:38:894,1.5312,1.23,4.4485,50.3695,0.416,0.5016,-1.0589,207.8438
13:29:38:913,0.9147,1.4934,4.4186,48.5052,0.085,0.1807,-1.2616,208.7656
13:29:38:929,0.3305,1.4431,5.9581,49.1586,-0.1436,-0.1399,-1.4805,209.875
13:29:38:949,-0.6691,0.8745,7.6281,49.1917,-0.3396,-0.211,-1.5673,211.25
13:29:38:968,-1.9595,0.3142,9.7098,47.763,-0.4466,-0.0595,-1.4028,212.8125
13:29:38:989,-2.4875,-0.0928,11.5773,49.3129,-0.3438,0.1701,-1.1431,214.5781
13:29:39:011,-2.9579,-0.1574,12.3015,47.9414,-0.1683,0.3333,-0.8424,216.1875
13:29:39:029,-3.0058,0.1131,12.3997,48.8915,-0.0408,0.364,-0.5479,217.6406
13:29:39:048,-2.2995,0.3023,12.4991,47.4553,0.0168,0.2556,-0.4049,218.8125
13:29:39:068,-1.6483,0.2376,12.9731,46.6446,-0.0205,0.1855,-0.3932,219.5938
13:29:39:089,-1.7932,-0.2448,14.0613,46.4018,-0.1228,0.2396,-0.4201,220.1562
13:29:39:110,-1.78,-0.3071,14.9244,46.8704,-0.2362,0.2705,-0.3415,220.6094
13:29:39:129,-1.1012,-0.7596,15.5517,46.3778,-0.2578,0.3413,-0.1889,221.0781
13:29:39:150,-1.4232,-1.5149,15.0537,46.0718,-0.0415,0.3592,-0.1599,221.5625
13:29:39:169,-1.2329,-2.299,13.1323,45.6342,0.3614,0.2806,-0.0656,221.875
13:29:39:187,-0.0945,-2.2703,9.8499,45.9485,0.7798,0.1618,0.1307,222.0938
13:29:39:211,0.6214,-1.9423,7.1624,46.7168,1.0061,-0.2696,0.2026,222.2812
13:29:39:230,0.7435,-1.5317,6.2083,45.9921,0.9183,-0.9759,0.1081,222.2969
13:29:39:247,0.042,-1.4491,7.3802,47.2352,0.531,-1.5732,-0.0821,222.125
13:29:39:267,-1.0677,-1.6526,9.3698,46.5949,0.0426,-1.5804,-0.1812,221.9219
13:29:39:288,-1.5968,-1.7053,10.8207,46.4026,-0.2735,-1.0063,-0.0326,221.8281
13:29:39:311,-1.6088,-1.4036,10.0773,46.1614,-0.2104,-0.218,0.2886,221.875
13:29:39:330,-1.2173,-0.884,7.7801,46.7014,0.1153,0.3032,0.6508,221.9375
13:29:39:348,-0.62,-0.2987,5.7821,48.4392,0.412,0.3256,0.9342,221.7812
13:29:39:368,-0.0885,0.1694,4.7981,46.2539,0.5404,0.0201,1.074,221.25
13:29:39:387,0.1929,0.2963,4.6892,46.708,0.5531,-0.369,1.0969,220.3438
13:29:39:411,0.2204,0.2101,5.3248,45.5174,0.5071,-0.6723,1.0607,219.25
13:29:39:429,0.3413,0.2939,5.9844,46.258,0.4194,-0.7056,1.0295,217.9688
13:29:39:448,0.6298,0.4651,6.3843,45.0778,0.3047,-0.5538,0.9906,216.0781
13:29:39:472,0.6059,0.507,7.3431,47.0273,0.1382,-0.4749,0.8783,214.9219
13:29:39:487,0.1964,0.3059,8.9963,47.8104,-0.0645,-0.4102,0.7379,213.75
13:29:39:508,-0.0825,0.1107,10.7154,45.497,-0.2226,-0.2017,0.6625,212.7031
13:29:39:529,0.3676,0.015,11.8454,46.3456,-0.2716,0.0534,0.6415,211.8906
13:29:39:547,0.9961,-0.3765,12.5074,46.3456,-0.2245,0.1461,0.5422,211.125
13:29:39:567,1.4402,-0.9798,13.0641,45.1575,-0.1864,0.0872,0.3635,210.4062
13:29:39:587,1.5264,-1.5796,13.258,47.101,-0.2011,0.1078,0.2042,209.7969
13:29:39:610,2.1489,-2.0979,12.4392,47.0248,-0.2322,0.2508,0.1344,209.4219
13:29:39:627,3.2239,-1.6275,11.6802,48.7794,-0.3057,0.2753,0.0931,209.2031
13:29:39:649,3.9015,-0.6973,11.9149,48.7114,-0.4352,0.0707,-0.117,209.0781
13:29:39:668,2.842,-1.005,13.021,46.7517,-0.5316,-0.2198,-0.6105,209
13:29:39:688,1.2176,-2.0405,13.2987,47.336,-0.5212,-0.1508,-1.0318,209.0156
13:29:39:710,0.7327,-2.5349,11.6288,47.9205,-0.3795,0.3301,-0.9937,209.4219
13:29:39:728,1.4354,-2.1985,9.4991,46.481,-0.2101,0.5408,-0.6603,210.4062
13:29:39:748,2.435,-1.2899,8.0817,49.161,-0.1699,0.2439,-0.3476,212.1406
13:29:39:767,2.8444,-0.3118,8.958,48.1299,-0.3419,-0.4036,-0.2861,212.9531
13:29:39:789,2.678,-0.0018,10.4903,48.3342,-0.449,-0.6158,-0.7,213.375
13:29:39:811,1.433,-0.4555,10.6615,48.2595,-0.277,0.0063,-0.7945,213.375
13:29:39:831,-0.0693,-0.7679,8.8192,47.6999,-0.1531,0.5379,-0.6206,213.6719
13:29:39:849,-0.6547,-0.5166,6.7206,49.3257,-0.1204,0.6292,-0.3465,214.875
13:29:39:867,-0.3483,0.1945,5.6049,49.4768,-0.1316,0.3014,-0.187,215.75
13:29:39:892,0.0193,0.7249,5.9665,49.9579,-0.0743,-0.0262,-0.1612,216.5312
13:29:39:912,0.1521,0.9355,6.7111,49.1669,0.0562,-0.0441,-0.1774,217
13:29:39:933,0.2048,0.8745,6.9864,48.075,0.1806,0.0787,-0.1604,217.25
13:29:39:951,0.3868,1.0756,6.8308,50.9817,0.2053,0.1458,-0.1655,217.4219
13:29:39:966,0.4646,1.497,7.1049,48.8169,0.1113,0.1181,-0.2113,217.6094
13:29:39:988,0.2814,1.7962,8.5247,50.2726,0.053,0.0766,-0.2901,217.7969
13:29:40:012,-0.1148,1.4323,10.3874,51.0219,0.1633,0.1789,-0.3188,217.9844
13:29:40:028,-0.5673,0.9104,11.1607,51.5455,0.3169,0.349,-0.2123,218.3906
13:29:40:051,-0.511,0.6267,11.1104,51.5919,0.4187,0.4321,-0.0802,218.7656
13:29:40:068,-0.2046,0.3274,10.8494,51.2635,0.3686,0.357,0.0268,219.0938
13:29:40:087,0.3976,-0.1311,11.3211,51.8444,0.1654,0.3703,0.0854,219.2812
13:29:40:110,0.3365,-0.4004,12.4679,53.3208,-0.004,0.4766,0.1222,219.3281
13:29:40:133,0.1378,-0.6889,13.2736,52.5989,-0.0383,0.5664,0.1722,219.2812
13:29:40:149,-0.0514,-0.8434,12.9312,52.3251,-0.0573,0.4391,0.238,219.25
13:29:40:167,-0.4045,-0.4304,12.2094,52.4551,-0.2333,-0.08,0.3121,219.1562
13:29:40:187,-0.3494,-0.3693,13.2018,52.3346,-0.4304,-0.6473,0.2948,219
13:29:40:211,-0.7469,-1.0936,15.9228,55.2784,-0.24,-0.7098,0.3272,218.7812
13:29:40:230,-0.6032,-2.4535,16.7775,53.6591,0.3137,-0.2757,0.5121,218.4219
13:29:40:247,-0.5015,-3.0233,13.2317,51.9289,0.645,0.0926,0.7536,218.0156
13:29:40:267,-0.4907,-2.2727,9.0921,53.4353,0.5249,-0.1253,0.8998,217.5938
13:29:40:288,-0.2549,-1.3473,7.0834,55.0336,0.2168,-0.5668,0.9012,216.9844
13:29:40:314,0.0025,-0.902,7.1229,54.2429,-0.0178,-0.8268,0.8572,215.6094
13:29:40:328,0.2707,-0.8098,7.6807,55.4333,-0.0519,-0.7881,0.826,214.5781
13:29:40:346,0.364,-0.6937,7.5849,54.9628,0.0146,-0.5966,0.8476,213.5156
13:29:40:368,0.4933,-0.4663,7.1348,54.1409,0.0695,-0.4236,0.9033,212.5
13:29:40:387,0.5424,-0.2388,7.2414,53.3335,0.1859,-0.2848,0.9589,211.4844
13:29:40:411,0.224,0.0257,7.3108,54.2365,0.3824,-0.1791,1.0276,210.5
13:29:40:428,0.1809,0.0365,6.8727,53.2732,0.5641,-0.1367,1.1028,209.4062
13:29:40:456,0.2312,0.0221,6.2993,54.5765,0.6168,-0.1381,1.1786,208.2344
13:29:40:512,0.4418,0.228,6.0072,54.2433,0.5494,-0.2334,1.2181,207.0469
13:29:40:516,1.3552,0.5142,7.4784,54.6663,0.4218,-0.403,1.1541,205.7031
13:29:40:516,1.609,0.416,8.8156,54.6195,0.3041,-0.5221,1.0229,204.2812
13:29:40:527,1.8748,0.1766,9.875,53.9664,0.2224,-0.5615,0.8591,202.9375
13:29:40:549,2.1501,-0.1443,10.8351,53.1747,0.1217,-0.5394,0.6783,201.6406
13:29:40:568,2.5727,-0.4411,11.9149,53.7416,-0.0567,-0.464,0.5145,200.5156
13:29:40:587,2.9067,-0.7284,13.1742,54.7938,-0.2677,-0.3229,0.3185,199.6094
13:29:40:607,2.672,-1.2001,13.9547,55.3213,-0.4019,-0.101,0.0828,198.9375
13:29:40:627,2.7115,-1.9495,13.4531,55.8432,-0.3827,0.2271,-0.0701,198.4375
13:29:40:647,3.4178,-2.4487,11.703,54.6603,-0.2786,0.4971,-0.1231,198.2188
13:29:40:667,3.8021,-1.7962,10.2294,54.2372,-0.2812,0.5,-0.2067,198.25
13:29:40:689,3.2694,-1.1702,11.1834,53.9723,-0.5079,0.1634,-0.4717,198.4219
13:29:40:713,2.2554,-2.396,13.8171,54.3319,-0.7353,-0.2081,-0.8621,198.6406
13:29:40:730,1.3121,-3.7583,14.2085,53.6116,-0.6357,0.0763,-1.0233,199.0469
13:29:40:747,1.5528,-3.9438,11.5473,52.6047,-0.2794,0.7504,-0.7769,199.8125
13:29:40:767,2.5535,-3.052,8.7665,53.4432,-0.0016,0.9634,-0.3729,200.9844
13:29:40:787,3.1796,-1.7723,7.5862,53.0135,0.0549,0.4947,-0.1905,202.125
13:29:40:812,2.9151,-1.0181,8.1452,51.9095,-0.069,-0.1532,-0.3018,202.8281
13:29:40:829,2.2866,-0.993,8.2038,51.6317,-0.1949,-0.2986,-0.5175,203.1719
13:29:40:852,1.3313,-0.914,7.1324,52.5364,-0.2903,0.0348,-0.6898,203.4375
13:29:40:872,0.3772,-0.5573,6.1005,52.3809,-0.4312,0.4276,-0.7276,204.1719
13:29:40:885,-0.0394,0.0066,5.9222,51.2703,-0.5875,0.5765,-0.6408,204.9844
13:29:40:907,0.054,0.4483,6.4369,51.3544,-0.6621,0.4798,-0.5045,205.8906
13:29:40:929,0.2539,0.7033,7.0331,49.9158,-0.6016,0.3466,-0.3841,206.6562
13:29:40:947,0.3221,0.9415,7.4593,49.326,-0.3968,0.2489,-0.2872,207.3125
13:29:40:969,0.5412,1.1642,7.1731,50.8994,-0.0959,0.1794,-0.1945,207.8125
13:29:40:988,0.7758,1.4958,6.7925,50.2021,0.1561,0.1312,-0.1255,208.1875
13:29:41:011,0.9147,1.6406,7.0427,49.9917,0.2344,0.0633,-0.1372,208.4219
13:29:41:028,0.7591,1.4132,8.1045,48.6489,0.1571,0.0577,-0.2182,208.5781
13:29:41:050,0.2419,0.999,9.5027,49.4898,0.0477,0.2569,-0.2872,208.9688
13:29:41:071,-0.4811,0.4902,10.683,48.3713,0.029,0.6076,-0.2613,209.3281
13:29:41:095,-1.2353,0.2723,11.3474,47.3963,0.2024,1.1467,0.1222,209.7031
13:29:41:110,-1.3167,0.6494,11.5354,49.1502,0.3622,0.9584,0.2319,209.8438
13:29:41:129,-1.3035,0.7679,11.3462,47.6953,0.4642,0.349,0.1973,209.9531
13:29:41:149,-2.0182,0.173,12.037,47.2832,0.4983,-0.2566,0.2684,209.7656
13:29:41:169,-2.1008,-1.0265,13.1419,48.0321,0.5409,-0.5913,0.4889,209.5781
13:29:41:190,-1.3418,-1.491,13.2173,47.0859,0.4029,-0.8627,0.6633,209.2812
13:29:41:214,-1.2461,-0.6985,14.1786,46.7483,0.077,-1.3929,0.7523,209.2812
13:29:41:230,-1.0761,-0.7344,18.5265,46.6589,0.2935,-1.3607,0.8593,208.6719
13:29:41:246,0.3724,-2.2559,20.0133,45.0606,1.1236,-0.3724,0.9414,207.8438
13:29:41:267,0.9626,-3.1334,14.9136,44.8755,1.5822,0.7493,1.1006,206.9062
13:29:41:289,1.5061,-2.3637,8.4421,44.935,1.248,0.8146,1.1563,205.7969
13:29:41:313,1.6904,-0.6662,5.4386,45.0566,0.49,-0.0259,0.9997,204.6562
13:29:41:330,1.9574,0.088,6.2143,44.7326,-0.138,-0.8981,0.7757,203.4844
13:29:41:346,2.4338,-0.2795,9.049,43.7512,-0.2703,-1.1013,0.5222,202.1719
13:29:41:366,2.1812,-0.6087,10.209,43.3272,-0.077,-0.7194,0.3421,201.0312
13:29:41:392,1.1182,-0.5213,9.0801,45.0562,0.0868,-0.1751,0.3536,200.1094
13:29:41:413,0.3988,-0.4268,7.2186,44.3702,0.122,0.2255,0.4964,199.5156
13:29:41:431,0.2683,-0.3142,5.6097,43.6443,0.1151,0.3389,0.6761,199.0938
13:29:41:448,0.4814,-0.0114,4.585,41.3451,0.1009,0.1578,0.8194,198.4219
13:29:41:467,0.9829,0.2316,4.3624,41.9869,0.1486,-0.2156,0.875,197.7969
13:29:41:487,1.5192,0.3921,4.6449,40.4392,0.2226,-0.6014,0.8165,196.9375
13:29:41:511,1.5755,0.2999,5.4182,40.3483,0.2943,-0.7671,0.7299,195.9375
13:29:41:530,1.6138,0.1107,5.8863,40.3483,0.2874,-0.7138,0.6505,194.9844
13:29:41:547,1.791,-0.0329,6.2921,42.5462,0.1217,-0.5144,0.536,194.0781
13:29:41:567,1.6904,-0.1754,7.1743,41.1414,-0.1542,-0.1381,0.4359,193.2344
13:29:41:588,1.7503,-0.264,8.0075,40.7857,-0.5105,0.2473,0.3208,192.875
13:29:41:613,1.9933,-0.2556,8.9724,39.9734,-0.8863,0.3914,0.1262,192.2656
13:29:41:631,2.4841,-0.2364,10.5657,41.5509,-1.1468,0.2537,-0.1556,191.7812
13:29:41:647,2.9055,-0.6782,12.6954,40.2974,-1.207,0.0044,-0.4781,191.4375
13:29:41:667,2.0579,-1.4228,14.7927,39.1565,-1.0493,0.0404,-0.6222,191.3594
13:29:41:687,0.9446,-2.1374,15.6378,40.4655,-0.697,0.3986,-0.4792,191.6094
13:29:41:712,1.269,-2.4894,13.8602,37.9035,-0.4522,0.6534,-0.2677,192.2031
13:29:41:729,2.2471,-1.5473,11.679,39.8015,-0.4535,0.4604,-0.2568,193.2812
13:29:41:747,2.9162,-0.5596,11.132,38.6791,-0.5143,0.0143,-0.5218,193.7812
13:29:41:767,2.9617,-0.3789,11.94,37.8675,-0.4647,-0.1668,-0.8416,194.1094
13:29:41:787,2.7367,-1.0038,12.019,37.9448,-0.3694,-0.1144,-1.0454,194.5625
13:29:41:812,2.2938,-1.5401,11.0326,38.4731,-0.3457,-0.1325,-1.0941,195.3281
13:29:41:828,2.4602,-1.6813,10.2736,37.4374,-0.4128,-0.3114,-1.1117,196.4219
13:29:41:846,2.9366,-1.7986,10.4879,36.1776,-0.4107,-0.5061,-1.1972,197.6719
13:29:41:867,2.8755,-1.9136,10.8566,36.6665,-0.2887,-0.4078,-1.2712,198.8594
13:29:41:887,1.9562,-2.1147,10.44,36.8579,-0.1896,0.0918,-1.1735,200.1406
13:29:41:912,0.54,-1.2121,7.3922,36.9231,-0.1465,0.7075,-0.9159,201.5312
13:29:41:929,0.7184,-0.5536,6.1197,38.367,-0.123,1.0087,-0.6651,202.875
13:29:41:961,0.9362,-0.0114,5.5116,37.1534,-0.077,0.9339,-0.4994,204.1562
13:29:41:965,1.1362,0.2436,5.2781,37.1646,0.0085,0.6257,-0.4352,205.1719
13:29:41:989,1.1685,0.3705,5.2961,36.7365,0.0874,0.3014,-0.4429,205.9531
13:29:42:009,1.2547,0.5178,5.6409,36.606,0.0956,0.0737,-0.4709,206.5469
13:29:42:027,1.3325,0.6494,6.2789,37.2836,0.0029,-0.0925,-0.5316,207.375
13:29:42:045,1.1673,0.7835,7.3922,37.865,-0.1723,-0.1809,-0.6219,207.6406
13:29:42:066,0.9279,0.7308,9.1663,37.9264,-0.3739,-0.1516,-0.7189,208.1719
13:29:42:086,0.7579,0.5477,10.7752,37.7674,-0.5017,0.0806,-0.8081,208.8281
13:29:42:105,0.1533,0.2891,12.0274,36.6659,-0.6687,0.6034,-0.9258,209.5781
13:29:42:130,-1.9536,-0.4962,14.0672,38.0956,-1.0133,1.3496,-1.0568,210.4688
13:29:42:148,-2.8478,-1.6849,15.9084,37.0185,-1.1177,1.7661,-0.8818,211.4688
13:29:42:167,-2.1714,-2.3816,15.6259,36.5786,-0.5723,1.5067,-0.3644,212.7969
13:29:42:189,-1.0186,-2.0022,14.0337,36.7772,0.2735,0.8076,0.1845,214.25
13:29:42:213,0.3904,-1.4587,12.0094,37.1791,0.9201,0.1807,0.5238,215.2344
13:29:42:230,0.5592,-0.8517,10.7309,38.2464,1.1033,-0.2217,0.47,215.5156
13:29:42:246,0.1976,-0.7177,10.7321,37.9213,0.849,-0.329,0.2543,215.1406
13:29:42:268,-0.0406,-1.2193,11.5031,37.7793,0.432,-0.1937,0.1123,214.5625
13:29:42:287,-0.1328,-1.8741,12.0813,38.0362,0.1246,0.0982,0.1182,214.1094
13:29:42:311,0.2683,-2.5588,11.8742,37.2485,0.0581,0.3408,0.2151,213.8281
13:29:42:328,0.9781,-2.8581,10.2784,39.1748,0.1949,0.5043,0.3243,213.7188
13:29:42:346,1.4271,-2.5791,8.624,35.4444,0.2445,0.4734,0.3464,213.5156
13:29:42:372,0.8932,-1.8609,8.2565,37.8055,0.02,0.2851,0.2521,213.2031
13:29:42:384,-0.2573,-1.2528,8.8467,37.9465,-0.2493,0.0071,0.1208,212.875
13:29:42:407,-0.9743,-1.2935,9.7026,38.0745,-0.3617,-0.2928,0.1041,212.6406
13:29:42:428,-1.3825,-1.2935,10.5442,38.2464,-0.2759,-0.4917,0.2742,212.5
13:29:42:447,-0.6655,-0.9272,10.4041,38.5722,-0.0027,-0.456,0.6649,212.3281
13:29:42:467,0.6633,-0.0102,9.3243,37.1412,0.3835,-0.3418,1.0524,211.9688
13:29:42:488,1.6461,0.829,8.1715,38.1136,0.6951,-0.308,1.1667,211.1406
13:29:42:512,1.7144,0.9858,7.0175,37.3667,0.8517,-0.272,0.9997,209.8906
13:29:42:595,1.4139,0.7847,6.1077,37.8927,0.877,-0.1876,0.7592,208.5938
13:29:42:596,1.3038,0.5668,5.7977,39.3879,0.8413,-0.2137,0.6231,207.4375
13:29:42:596,1.1673,0.4399,6.3316,37.059,0.7806,-0.4033,0.5299,206.9688
13:29:42:597,1.1709,0.1215,7.2258,37.3563,0.7659,-0.6438,0.4516,206.1875
13:29:42:617,1.2032,-0.1742,8.2278,37.9699,0.7822,-0.8513,0.3454,204.6875
13:29:42:629,1.5037,-0.501,8.8647,38.0919,0.6277,-0.6931,-0.0432,204.6875
13:29:42:649,1.4522,-0.9978,8.964,37.8428,0.3433,-0.4792,-0.3127,203.9531
13:29:42:665,1.0548,-1.8334,9.4069,38.6171,-0.0181,-0.3977,-0.4653,203.9531
13:29:42:685,0.2491,-2.7874,10.683,37.9261,-0.3113,-0.333,-0.4246,203.9531
13:29:42:707,-0.4811,-3.3585,12.2117,37.5412,-0.4117,-0.1458,-0.1726,204.2812
13:29:42:728,0.2264,-3.6829,12.7816,36.8828,-0.322,0.157,0.0838,204.7812
13:29:42:745,1.7395,-3.4518,11.3139,37.2169,-0.3004,0.2409,0.0705,205.2656
13:29:42:769,2.2184,-2.2128,9.4429,39.0048,-0.5673,-0.0398,-0.2059,205.4688
13:29:42:785,1.8867,-1.2959,9.9133,36.9337,-0.8961,-0.3884,-0.5753,205.3906
13:29:42:806,1.633,-2.0452,11.8993,37.1099,-0.9904,-0.2795,-0.8273,205.3438
13:29:42:828,1.2355,-2.9838,12.8714,37.5985,-0.8932,0.193,-0.7998,205.5938
13:29:42:846,1.6174,-3.1011,11.7509,36.97,-0.7923,0.5032,-0.6531,207.1719
13:29:42:868,2.1836,-2.2811,10.0833,36.7247,-0.7848,0.4209,-0.6384,208.1562
13:29:42:888,2.1621,-1.3066,9.0933,35.6763,-0.8029,0.2231,-0.7375,208.5781
13:29:42:912,1.6832,-0.8781,8.8623,37.1916,-0.7643,0.1861,-0.7932,209.375
13:29:42:930,1.0069,-0.7847,8.5247,37.9571,-0.6517,0.3272,-0.7418,210.1875
13:29:42:947,0.1534,-0.7632,7.6292,38.0119,-0.5468,0.4646,-0.5431,211.125
13:29:42:967,-0.2082,-0.3238,6.6632,37.4823,-0.506,0.3791,-0.3037,212.0781
13:29:42:985,-0.0107,0.2915,6.6644,37.6248,-0.4352,0.1509,-0.1423,212.9062
13:29:43:006,0.2431,0.7524,7.233,36.9769,-0.2511,-0.0342,-0.044,213.4375
13:29:43:028,0.6633,1.0576,7.4712,37.1417,-0.0599,-0.0464,-0.0174,213.7188
13:29:43:046,0.9746,1.4084,7.3,37.338,0.0085,-0.0089,-0.0856,213.7969
13:29:43:066,1.044,1.5748,7.5012,38.5348,-0.0368,0.018,-0.2121,213.8438
13:29:43:086,0.7711,1.4335,8.4241,36.5674,-0.1158,0.0548,-0.3306,213.8594
13:29:43:108,0.121,0.92,10.0701,38.0217,-0.1404,0.193,-0.3335,213.9531
13:29:43:128,-0.3087,0.4998,11.8742,37.5241,-0.0109,0.3847,-0.2331,214.2031
13:29:43:146,-0.1184,0.3526,12.8414,37.1004,0.2229,0.5102,-0.1521,214.5781
13:29:43:165,0.7375,0.2233,12.7409,38.975,0.433,0.5618,-0.1875,215
13:29:43:186,1.4797,0.0066,11.8969,38.9386,0.4613,0.475,-0.3889,215.4531
13:29:43:207,1.3564,-0.422,11.6443,39.3447,0.3217,0.3823,-0.6278,215.6875
13:29:43:230,0.5627,-0.9631,12.2141,40.3491,0.1497,0.3645,-0.7785,216.0781
13:29:43:247,-0.1232,-1.7077,12.8546,41.7295,-0.0131,0.447,-0.8129,216.7188
13:29:43:268,-0.8989,-2.1219,13.1694,40.8253,-0.2173,0.4859,-0.681,217.5469
13:29:43:291,-1.2784,-2.1961,14.0852,41.1699,-0.3827,0.3482,-0.4206,218.5312
13:29:43:313,-2.3594,-3.3692,16.5584,43.2356,-0.1997,0.1341,-0.1726,219.4688
13:29:43:330,-1.8985,-4.3544,14.2313,43.5985,0.396,0.0979,0.2612,220.1406
13:29:43:345,-0.6547,-4.2228,10.3083,42.9269,0.9721,0.157,0.8095,220.5156
13:29:43:365,0.3078,-2.973,7.4293,44.2888,1.1113,-0.0901,1.2117,220.5156
13:29:43:385,0.3724,-1.4575,7.0043,43.9887,0.8346,-0.6411,1.3185,219.9219
13:29:43:407,0.4897,-0.8769,8.5091,45.3629,0.4338,-1.1684,1.2484,218.7969
13:29:43:430,0.6801,-0.8122,9.4632,45.6802,0.236,-1.2811,1.1427,217.2812
13:29:43:448,0.6334,-0.8601,8.8228,45.8627,0.31,-1.047,1.0788,215.7031
13:29:43:466,0.4873,-0.7584,7.2462,46.0842,0.4559,-0.6036,1.0705,214.2812
13:29:43:489,0.279,-0.592,5.7881,45.9516,0.493,-0.1777,1.1158,212.2344
13:29:43:504,0.3185,-0.2472,4.7263,48.5181,0.4517,0.0646,1.1978,210.9375
13:29:43:526,0.637,0.0964,4.263,48.9679,0.3888,0.0217,1.2567,209.6875
13:29:43:547,1.0021,0.319,4.5503,48.9679,0.3236,-0.2457,1.2391,208.3125
13:29:43:566,1.117,0.2903,5.4505,49.5287,0.2607,-0.5684,1.1427,207.5938
13:29:43:585,1.2307,0.064,6.5135,50.5383,0.2591,-0.7738,1.0332,206.1406
13:29:43:606,1.2559,-0.1035,7.2126,48.3665,0.3212,-0.8406,0.9209,204.7969
13:29:43:629,1.2295,-0.2388,8.0135,50.8206,0.3145,-0.7719,0.7965,203.5
13:29:43:651,1.3325,-0.4196,8.9018,50.5397,0.1875,-0.5333,0.6812,202.3125
13:29:43:671,1.6521,-0.5285,9.4273,50.2953,0.0072,-0.1644,0.5427,200.4062
13:29:43:695,2.2602,-0.7248,9.6835,51.0466,-0.3973,0.1624,0.1232,199.6562
13:29:43:709,2.7235,-1.0732,10.4436,53.3041,-0.6205,0.01,-0.1399,199.1406
13:29:43:730,2.8672,-1.74,12.0477,50.0742,-0.7268,-0.0955,-0.3593,198.9062
13:29:43:751,2.3931,-2.5708,13.6578,52.2119,-0.6506,0.0683,-0.4366,199.0781
13:29:43:769,2.1609,-3.3345,13.6004,51.9042,-0.5414,0.3629,-0.3444,199.5312
13:29:43:794,2.3656,-3.1071,12.286,52.1903,-0.5792,0.3893,-0.2557,200.0469
13:29:43:808,2.7104,-2.2643,11.9029,53.2528,-0.6474,0.1418,-0.3375,200.5
13:29:43:830,2.6481,-1.9974,12.9216,54.7036,-0.5907,0.039,-0.5266,200.8594
13:29:43:847,2.2626,-2.5013,13.683,53.8974,-0.4509,0.3437,-0.6083,201.2812
13:29:43:866,2.0687,-3.0161,13.1323,53.8035,-0.3928,0.8905,-0.558,201.9219
13:29:43:887,2.4602,-2.9658,11.7221,53.2472,-0.485,1.3775,-0.4874,202.6719
13:29:43:908,3.1401,-2.299,10.5945,55.0213,-0.559,1.5214,-0.5463,203.4062
13:29:43:927,3.2778,-1.503,9.6871,54.5237,-0.5209,1.3605,-0.7604,204.1562
13:29:43:946,2.3776,-1.0792,9.0562,55.6708,-0.3689,1.0929,-0.9617,205
13:29:43:966,1.1948,-1.1271,8.3571,53.9767,-0.1673,0.8683,-1.0118,206.0625
13:29:43:986,0.2874,-1.2073,7.4221,53.9848,-0.0051,0.7344,-0.9071,207.25
13:29:44:008,-0.1842,-0.9678,6.5183,54.4234,0.093,0.6305,-0.7479,208.5469
13:29:44:029,-0.2525,-0.6207,5.812,56.0605,0.1451,0.4979,-0.6009,209.6875
13:29:44:046,-0.1088,-0.2053,5.4852,55.692,0.1577,0.3882,-0.5047,209.6875
13:29:44:066,0.1055,0.1323,5.5391,54.6947,0.1577,0.3387,-0.4608,210.5938
13:29:44:088,0.1845,0.3873,5.7989,55.4453,0.1718,0.3429,-0.4501,212.0156
13:29:44:106,0.1174,0.58,6.0155,55.5128,0.1971,0.2681,-0.4589,212.0156
13:29:44:129,-0.2214,0.7991,6.3184,55.3216,0.2053,0.0691,-0.4605,212.5625
13:29:44:145,-0.6308,0.9248,6.9337,55.9615,0.1816,-0.1823,-0.4374,213.1406
13:29:44:167,-0.7277,0.8338,8.1201,57.7422,0.1318,-0.3269,-0.4227,213.7031
13:29:44:186,-1.0629,0.5668,9.6476,56.6702,0.0602,-0.2952,-0.3956,214.25
13:29:44:204,-1.4292,0.3945,11.3079,55.3962,0.0085,-0.2281,-0.3255,214.7031
13:29:44:230,-1.2161,0.24,12.9958,57.4245,0.0123,-0.1575,-0.3095,215.1562
13:29:44:248,-0.8115,-0.0748,14.4886,57.6577,0.0192,0.0052,-0.3689,215.5625
13:29:44:265,-0.6739,-0.817,15.5948,55.2566,-0.0005,0.3158,-0.4187,215.8906
13:29:44:284,-1.0869,-1.7711,16.009,57.373,-0.0093,0.581,-0.3106,216.2188
13:29:44:305,-1.2868,-2.1183,15.5804,57.6629,-0.0426,0.5277,-0.0659,216.6406
13:29:44:328,-0.5182,-2.0105,15.6175,57.8805,0.004,0.2745,0.0524,217.5781
13:29:44:346,-0.3135,-2.3218,15.6845,58.3103,0.2735,0.0502,0.0495,217.7344
13:29:44:365,-1.3993,-2.9119,14.9124,58.1438,0.7446,0.0116,0.278,217.7188
13:29:44:385,-1.1946,-3.5596,12.341,56.3227,1.1539,0.0374,0.6087,217.6719
13:29:44:405,-0.0669,-3.6075,8.8647,56.8483,1.2157,-0.0701,0.8149,217.5781
13:29:44:430,0.9123,-2.9706,5.8875,56.2404,0.8583,-0.3724,0.8199,217.0938
13:29:44:446,0.8979,-1.5281,4.5419,56.7398,0.2647,-0.7554,0.6663,216.3125
13:29:44:466,0.2946,-0.6123,5.5678,56.8021,-0.2128,-0.9791,0.4937,215.4219
13:29:44:484,0.0863,-0.8266,7.2977,56.8021,-0.3739,-0.9144,0.4146,214.5312
13:29:44:505,-0.3315,-1.1941,8.1428,57.5354,-0.2964,-0.6006,0.4958,213.7969
13:29:44:530,-0.9755,-1.1857,7.5335,57.008,-0.1483,-0.3279,0.7272,213.2344
13:29:44:547,-1.0186,-0.7667,6.6632,56.6014,-0.0011,-0.2933,0.9491,212.9531
13:29:44:565,-0.6667,-0.2987,5.9533,57.6406,0.1068,-0.4121,1.0434,212.3438
13:29:44:585,-0.3698,-0.0186,5.5451,58.0824,0.139,-0.5604,1.0639,211.4688
13:29:44:656,-0.0179,-0.0054,5.5786,57.108,0.1095,-0.6377,1.0394,210.4062
13:29:44:657,0.0995,0.0317,6.0371,57.7947,0.0597,-0.6254,1.0037,209.1719
13:29:44:657,0.2336,0.1646,6.5339,57.9541,0.0248,-0.6004,0.9478,207.2812
13:29:44:670,0.5951,0.3118,6.9624,58.1347,-0.0234,-0.6614,0.8191,206.1094
13:29:44:690,0.874,0.398,7.9716,59.0215,-0.0815,-0.696,0.6386,204.9219
13:29:44:704,0.8381,0.2412,9.2262,56.9198,-0.1292,-0.5823,0.4471,203.8438
13:29:44:728,0.9219,-0.4399,11.2086,59.2904,-0.1787,-0.2928,0.2716,202.9844
13:29:44:747,1.2032,-0.8948,12.2153,58.9727,-0.2594,-0.0805,0.0881,202.3125
13:29:44:766,1.384,-1.4622,13.4699,58.2555,-0.355,0.0063,-0.1037,201.8594
13:29:44:787,1.4977,-2.1015,14.479,57.5204,-0.3891,0.1128,-0.2486,201.6406
13:29:44:805,2.1142,-2.712,13.9176,55.3095,-0.2884,0.3674,-0.309,201.6562
13:29:44:825,2.6637,-2.7072,12.5421,57.3289,-0.1843,0.6167,-0.3346,201.8906
13:29:44:847,2.7379,-2.3433,11.5737,58.5177,-0.2144,0.6441,-0.4211,202.2656
13:29:44:864,1.8197,-2.1171,12.0537,56.4985,-0.3505,0.4649,-0.603,202.6719
13:29:44:884,0.8584,-2.8581,13.0138,57.9256,-0.4216,0.3312,-0.7386,203.1719
13:29:44:908,0.6705,-3.7104,12.6176,58.0015,-0.2751,0.4425,-0.6272,203.8125
13:29:44:930,1.4055,-3.951,11.0613,56.5438,-0.0184,0.5714,-0.317,204.6719
13:29:44:948,2.7056,-3.5728,9.6559,56.8203,0.1742,0.381,0.0202,205.8594
13:29:44:965,3.7099,-2.4151,8.9724,57.6922,0.2498,-0.0939,0.2007,206.2812
13:29:44:987,3.7303,-1.333,9.2286,58.0062,0.1899,-0.525,0.0897,206.3125
13:29:45:005,2.8839,-1.151,9.2872,58.6796,0.0916,-0.6046,-0.2374,206.0781
13:29:45:031,1.7646,-1.242,8.3487,58.4498,0.0376,-0.2571,-0.5109,205.9062
13:29:45:046,0.9686,-0.9774,6.8116,56.3542,-0.0144,0.2905,-0.5852,205.9531
13:29:45:066,0.698,-0.4998,5.3943,59.361,-0.1015,0.7256,-0.5207,206.3281
13:29:45:085,0.6825,0.1467,4.8999,58.8608,-0.192,0.7775,-0.4336,206.9844
13:29:45:106,0.8381,0.5944,5.0196,57.7618,-0.2109,0.5594,-0.3854,207.6875
13:29:45:131,1.0284,0.9128,5.4709,58.9353,-0.1577,0.2521,-0.395,208.3281
13:29:45:147,1.1721,1.0038,6.0036,57.6048,-0.0778,0.0212,-0.4555,208.8438
13:29:45:174,1.0201,1.1115,6.413,57.6293,-0.0312,-0.0787,-0.5561,209.3281
13:29:45:184,0.6837,1.0876,7.063,57.4399,-0.0631,-0.0542,-0.6707,209.8281
13:29:45:209,0.1354,1.0301,8.1021,56.5544,-0.1758,0.0558,-0.7748,210.7031
13:29:45:232,-0.5482,1.0576,9.2417,57.1064,-0.3012,0.2811,-0.8243,211.4531
13:29:45:250,-1.288,0.9248,10.1432,56.4301,-0.3401,0.4651,-0.8363,212.3594
13:29:45:267,-1.713,0.5094,10.8578,55.7125,-0.2903,0.459,-0.8046,213.2812
13:29:45:284,-1.507,-0.2424,12.3734,56.3303,-0.241,0.2063,-0.697,214.3125
13:29:45:304,-0.7972,-0.841,14.3893,57.1031,-0.1752,-0.1178,-0.5274,215.2969
13:29:45:325,-0.2728,-1.3066,16.1993,57.87,-0.0868,-0.3098,-0.407,216.0781
13:29:45:348,-0.1699,-1.8429,16.4519,57.3453,0.065,-0.2097,-0.3513,216.6719
13:29:45:364,-0.2704,-1.7915,14.8956,56.4019,0.2373,0.0707,-0.268,217.0938
13:29:45:385,-0.0502,-1.3162,13.859,56.7953,0.1984,0.2936,-0.1396,217.4531
13:29:45:404,-0.2597,-1.5317,14.3438,57.488,-0.0216,0.398,-0.0714,217.7656
13:29:45:426,-0.8905,-2.3218,14.2899,57.5835,0.4384,0.2785,0.1405,217.9531
13:29:45:451,-0.8439,-3.0819,12.3027,56.344,0.8069,0.1911,0.3949,217.9531
13:29:45:468,-0.0693,-3.3525,9.3758,56.9775,0.8024,-0.0696,0.5432,218.0938
13:29:45:492,0.4203,-2.7863,7.3072,56.5797,0.4274,-0.4555,0.5363,218.0625
13:29:45:503,-0.0454,-1.7472,7.3922,55.7788,-0.0157,-0.8222,0.5121,217.6406
13:29:45:525,-0.0166,-1.5939,9.389,57.7352,-0.1302,-0.8688,0.4924,217.0469
13:29:45:549,-0.3447,-1.6287,10.4867,57.7352,0.0727,-0.6222,0.5448,216.3906
13:29:45:570,-0.6727,-1.5712,9.6763,57.3074,0.3361,-0.2632,0.7182,215.7188
13:29:45:591,-0.7768,-1.4024,7.8938,56.5576,0.5182,-0.0704,0.9422,215.0469
13:29:45:603,-0.5458,-1.1007,6.5578,56.2771,0.6272,-0.0654,1.1249,214.3906
13:29:45:624,-0.0657,-0.8601,5.7175,57.7066,0.6554,-0.1306,1.2127,213.5312
13:29:45:647,0.3533,-0.7308,5.326,57.6028,0.625,-0.186,1.245,212.4375
13:29:45:665,0.7124,-0.5345,5.2231,57.0206,0.5633,-0.2915,1.2314,211.1875
13:29:45:683,1.3038,-0.2496,5.3883,55.4156,0.4698,-0.4441,1.1203,209.7812
13:29:45:704,1.7563,0.1562,6.0072,56.9907,0.3643,-0.5519,0.9025,208.3281
13:29:45:725,1.9131,0.3178,6.8894,56.3144,0.2961,-0.5287,0.625,206.8906
13:29:45:748,1.8568,0.1024,7.3719,55.2528,0.2011,-0.3764,0.3472,205.6406
13:29:45:764,1.5288,-0.2376,7.6257,56.3831,0.0157,-0.1796,0.1371,204.1406
13:29:45:785,1.5216,-0.7021,8.0434,55.6265,-0.2392,-0.0896,-0.0219,203.5781
13:29:45:804,1.5037,-1.1594,8.9915,55.8635,-0.5228,-0.0888,-0.1591,203.2812
13:29:45:831,1.4725,-1.6083,10.3814,55.4061,-0.7846,-0.1644,-0.2746,203.2188
13:29:45:847,1.6868,-2.0692,12.3829,56.979,-0.9454,-0.1663,-0.39,203.3281
13:29:45:865,1.9466,-2.7132,14.4659,55.4446,-0.8922,0.0966,-0.4645,203.5781
13:29:45:884,2.2614,-3.4578,14.4623,57.4998,-0.8072,0.3831,-0.5037,203.9844
13:29:45:904,2.1932,-3.1801,13.5345,55.6333,-0.8741,0.5184,-0.5732,204.5156
13:29:45:923,1.8245,-2.5744,13.6626,56.0181,-0.9534,0.6979,-0.7396,205.1094
13:29:45:946,0.7435,-2.6653,14.3031,56.4791,-0.8442,0.9613,-0.7782,205.7969
13:29:45:964,0.4526,-3.5895,13.9811,57.2581,-0.5611,1.2012,-0.5545,206.6406
13:29:45:984,1.3121,-3.8888,12.4607,56.1165,-0.2464,1.1365,-0.2483,207.6719
13:29:46:005,3.0886,-3.5727,10.3562,56.5337,-0.0772,0.6316,-0.1418,208.1406
13:29:46:032,4.0571,-2.4989,9.2956,56.5581,-0.0767,0.0148,-0.3007,208.9531
13:29:46:048,3.9122,-1.7077,9.723,57.6633,-0.0365,-0.2286,-0.5905,209.4062
13:29:46:064,2.9665,-1.5868,9.7361,55.9067,0.1055,-0.0116,-0.8102,209.6406
13:29:46:085,1.6557,-1.6071,8.4373,55.7646,0.2,0.3722,-0.7934,210.2656
13:29:46:105,1.0344,-1.1761,6.7721,55.0913,0.1912,0.6433,-0.6749,211.0781
13:29:46:123,0.9961,0.0102,5.0196,54.6132,0.1326,0.6763,-0.6097,212
13:29:46:148,1.2092,0.4507,5.1716,56.6246,0.1001,0.5634,-0.5966,212.9219
13:29:46:168,1.1888,0.7572,5.5607,55.0468,0.1353,0.3733,-0.656,213.75
13:29:46:184,0.868,0.829,5.769,54.8475,0.2027,0.2281,-0.7705,214.5156
13:29:46:203,0.4861,0.6985,6.0467,55.7806,0.2072,0.19,-0.8736,215.25
13:29:46:224,-0.0011,0.5058,6.6668,56.0504,0.1217,0.2457,-0.9394,216.1094
13:29:46:245,-0.4775,0.6183,7.2857,55.3812,-0.0099,0.3767,-0.9527,217.0938
13:29:46:263,-0.93,0.6937,8.3535,55.4267,-0.1803,0.4753,-0.9575,218.1094
13:29:46:284,-1.282,0.7799,10.033,56.5007,-0.3864,0.4601,-1.0185,219.25
13:29:46:303,-2.2612,0.5381,12.4033,55.6149,-0.5923,0.5096,-1.1407,220.3906
13:29:46:325,-3.7133,-0.2173,14.9818,56.8707,-0.7366,0.7738,-1.219,221.5781
13:29:46:346,-4.4986,-1.1666,16.0544,56.3856,-0.6144,1.1251,-1.0627,222.7812
13:29:46:365,-4.2592,-1.8812,15.3434,56.7532,-0.2807,1.3198,-0.6925,224.9844
13:29:46:390,-3.2835,-1.8453,13.9739,55.1569,0.0336,1.2742,-0.2342,226.2969
13:29:46:402,-2.1858,-1.4024,12.942,56.6329,0.1957,1.0287,0.0852,227.2969
13:29:46:423,-1.0881,-1.3354,13.2341,55.0056,0.1593,0.6484,0.1515,227.7969
13:29:46:447,-1.2245,-2.3673,14.436,55.477,0.0392,0.3991,-0.0379,227.8906
13:29:46:465,-2.4731,-3.8313,14.7544,53.766,0.1949,0.3205,-0.2123,227.8438
13:29:46:490,-2.5258,-4.9793,12.8139,55.3182,0.64,0.3815,-0.0485,227.9531
13:29:46:502,-1.4448,-5.135,9.8319,54.8541,0.9848,0.5349,0.352,228.1094
13:29:46:524,0.1162,-4.3987,7.2833,52.4214,1.0384,0.4726,0.7264,228.3906
13:29:46:547,0.6454,-3.2244,6.2406,54.5222,0.816,0.0561,0.7914,228.3906
13:29:46:567,-0.2094,-2.4786,6.8392,55.2321,0.4474,-0.4904,0.5475,227.9531
13:29:46:583,-0.8283,-2.4535,7.8375,54.4853,0.0969,-0.7501,0.3339,227.1719
13:29:46:602,-1.3047,-2.1769,8.2888,54.9923,-0.1361,-0.6113,0.2937,226.1875
13:29:46:625,-1.6315,-1.813,7.9429,53.1175,-0.2112,-0.3234,0.3533,225.7344
13:29:46:647,-1.6172,-1.4778,7.5838,53.8034,-0.1798,-0.1674,0.4942,225.2969
13:29:46:667,-1.3454,-1.1271,7.1193,52.8324,-0.0445,-0.1476,0.6873,224.8594
13:29:46:732,-0.7768,-0.8805,6.4752,52.3485,0.18,-0.2206,0.87,224.2656
13:29:46:733,-0.2202,-0.592,5.6085,53.3757,0.4189,-0.365,1.0007,223.4531
13:29:46:733,0.376,-0.2089,5.0854,52.7381,0.5627,-0.5407,1.0524,222.5
13:29:46:746,0.9207,0.0712,5.1165,53.5747,0.5574,-0.7072,1.0005,221.3594
13:29:46:764,1.1757,0.1658,5.5594,53.771,0.4373,-0.7543,0.8426,220.1406
13:29:46:785,1.0907,0.161,6.2921,52.6377,0.2594,-0.6781,0.6418,218.9844
13:29:46:806,0.7495,0.1179,7.3551,52.2222,0.0796,-0.6108,0.4268,218.0312
13:29:46:824,0.3604,-0.094,8.49,52.1741,-0.1222,-0.4638,0.1145,217.2656
13:29:46:846,0.4167,-0.252,9.3172,53.2249,-0.1942,-0.5205,-0.0254,217.2656
13:29:46:868,1.1003,-0.4878,10.3491,53.9742,-0.3278,-0.6877,-0.2504,216.7344
13:29:46:883,1.767,-0.9403,12.1842,53.1492,-0.4828,-0.7469,-0.545,216.4219
13:29:46:908,1.767,-1.6287,14.497,52.2035,-0.5025,-0.4438,-0.7769,216.2031
13:29:46:931,1.7275,-2.402,15.5924,53.5336,-0.3902,0.1224,-0.8869,216.4219
13:29:46:951,2.35,-2.6869,14.2456,52.757,-0.4426,0.4809,-1.0342,216.9688
13:29:46:967,2.6888,-2.1817,13.3586,51.904,-0.6978,0.4867,-1.378,217.7969
13:29:46:983,2.186,-2.2835,14.9208,50.6257,-0.7646,0.499,-1.8132,218.8125
13:29:47:004,0.4012,-3.726,16.9439,51.5413,-0.4043,0.9962,-1.9306,219.9844
13:29:47:024,-1.3394,-5.1625,15.8737,51.8195,0.1864,1.5672,-1.4803,221.5938
13:29:47:046,-0.8977,-5.4953,12.177,50.2702,0.6352,1.5302,-0.7916,223.7188
13:29:47:063,1.4881,-4.7375,8.7677,50.0331,0.7912,0.8508,-0.3846,225.9219
13:29:47:083,3.449,-2.973,7.2198,49.6238,0.738,-0.0331,-0.4576,227.8438
13:29:47:102,4.1864,-1.6993,7.4748,50.2915,0.6746,-0.5791,-0.8435,228.9844
13:29:47:123,3.6393,-1.4742,7.8627,48.4056,0.7081,-0.5852,-1.1836,229.5781
13:29:47:147,2.7331,-1.6466,7.0846,48.5956,0.7345,-0.2896,-1.3348,230.1406
13:29:47:165,2.107,-1.4934,5.6097,49.0836,0.6261,0.0492,-1.3492,231.7188
13:29:47:183,2.198,-0.8326,4.4509,48.121,0.4298,0.2084,-1.3921,233.1094
13:29:47:203,2.8301,-0.0389,4.2187,47.5796,0.281,0.2002,-1.5958,234.6719
13:29:47:224,2.8396,0.3705,4.0894,47.8358,0.2128,0.0936,-1.9058,236.2656
13:29:47:247,2.1776,0.319,3.8105,45.8066,0.1183,-0.1069,-2.1594,237.9844
13:29:47:265,1.524,-0.2149,4.0044,49.0054,-0.0487,-0.2414,-2.2787,239.9062
13:29:47:283,0.8405,-0.8003,4.6102,44.1779,-0.2724,-0.3042,-2.2808,242.2656
13:29:47:303,-0.0573,-0.9176,6.0706,46.2488,-0.4535,-0.3748,-2.2033,244.8125
13:29:47:325,-0.6583,-1.1342,7.6676,45.0258,-0.579,-0.3833,-2.109,247.2812
13:29:47:347,-1.3371,-1.1295,9.4309,44.4097,-0.6589,-0.2355,-1.9889,249.8125
13:29:47:366,-1.5753,-0.9236,11.0565,43.7859,-0.6591,-0.0262,-1.8989,252.25
13:29:47:383,-1.3383,-0.8541,12.5625,45.2853,-0.5521,0.1749,-1.9165,254.5625
13:29:47:406,-1.1623,-0.9379,13.446,43.8916,-0.3617,0.2026,-1.9886,255.5625
13:29:47:422,-1.282,-0.896,14.2983,43.2943,-0.1172,0.005,-2.0448,257.7344
13:29:47:443,-2.2253,-1.1031,15.159,41.8894,0.2176,-0.1386,-2.0116,259.9375
13:29:47:464,-3.9395,-1.8393,14.7424,42.8038,0.4205,-0.0659,-1.6901,262.1406
13:29:47:485,-4.7021,-2.3134,13.2999,44.1098,0.3148,0.1978,-1.0914,265.6406
13:29:47:504,-3.8174,-1.7352,11.9077,42.7209,-0.077,0.3458,-0.5873,267.7812
13:29:47:524,-1.3143,-0.6782,14.9818,41.5189,-0.559,0.2742,-0.4081,269.3281
13:29:47:548,-1.5549,-1.2336,17.2096,43.4407,-0.5561,0.2481,-0.378,270.2812
13:29:47:565,-1.8686,-2.0297,15.8713,43.4407,0.1113,0.3773,-0.2453,270.8438
13:29:47:597,-1.0294,-2.5049,12.0621,42.0007,0.9164,0.5967,0.0857,271.3438
13:29:47:602,0.6801,-2.5002,8.8718,41.6689,1.3148,0.5253,0.4226,271.75
13:29:47:623,2.0448,-1.7065,7.5885,40.8409,1.2461,0.1283,0.5435,271.9062
13:29:47:646,2.6337,-0.8146,8.6169,40.8098,0.8525,-0.3671,0.3965,271.6719
13:29:47:664,2.611,-1.0732,10.2952,40.0787,0.452,-0.5876,0.0513,270.8281
13:29:47:683,1.5731,-1.7999,10.7082,40.9101,0.2732,-0.3591,-0.3132,270.3438
13:29:47:705,0.3557,-2.2595,9.79,39.3371,0.289,0.104,-0.4264,270.25
13:29:47:723,-0.0274,-2.0225,8.3954,40.1457,0.3838,0.4771,-0.2342,270.5625
13:29:47:750,0.2707,-1.5221,7.1157,40.2419,0.5017,0.5552,0.0338,271.0625
13:29:47:771,0.6082,-1.2707,6.2023,39.5355,0.603,0.3978,0.1896,271.25
13:29:47:785,0.71,-1.2097,5.5954,39.4433,0.6669,0.1677,0.2585,271.3906
13:29:47:803,0.8333,-1.0313,5.0483,40.2377,0.7031,-0.0134,0.3264,271.2656
13:29:47:823,1.3121,-0.8565,4.512,36.9331,0.7108,-0.1564,0.3952,271.0312
13:29:47:845,1.7359,-0.6734,4.1708,37.3014,0.6336,-0.2933,0.4063,270.7031
13:29:47:866,2.1633,-0.4699,4.2845,37.8752,0.4506,-0.39,0.3674,270.3125
13:29:47:883,2.4973,-0.2053,4.6916,37.268,0.2043,-0.4571,0.2716,269.8438
13:29:47:903,2.6816,-0.082,5.3033,36.6303,-0.0586,-0.5359,0.0868,269.3906
13:29:47:928,2.4147,-0.3047,6.2059,36.5303,-0.3526,-0.6425,-0.1761,269.0156
13:29:47:949,1.9203,-0.5788,7.658,35.6574,-0.6898,-0.6491,-0.4219,268.7969
13:29:47:969,1.6138,-0.7093,9.3016,36.2541,-0.9928,-0.5724,-0.6065,268.9844
13:29:47:983,1.4318,-0.8051,10.9871,35.5204,-1.2061,-0.5823,-0.7814,269.4688
13:29:48:005,1.1469,-1.2073,13.4376,35.6463,-1.3476,-0.7503,-0.97,270.1406
13:29:48:023,0.6525,-2.0488,15.7252,34.308,-1.3739,-0.7732,-1.1042,271.0625
13:29:48:049,0.4873,-2.5421,16.1095,33.2799,-1.2213,-0.399,-1.088,272.1875
13:29:48:065,0.619,-2.0417,14.8777,34.1342,-1.02,0.1003,-0.9705,273.4219
13:29:48:088,0.6322,-1.0947,14.5892,33.4418,-0.9425,0.2668,-0.9159,274.7031
13:29:48:103,0.534,-1.2504,16.3836,32.7288,-0.9063,0.0047,-1.0118,275.9062
13:29:48:123,0.3844,-1.9986,17.5436,32.5923,-0.6602,-0.0914,-1.1098,276.9844
13:29:48:147,0.8369,-2.7455,15.6127,31.5889,-0.1286,0.2633,-1.0382,278.2031
13:29:48:165,1.7946,-2.876,12.1196,32.9396,0.3965,0.5594,-0.8688,279.5156
13:29:48:184,2.5835,-2.4846,10.1013,31.7744,0.5555,0.3959,-0.7673,280.7344
13:29:48:209,2.6421,-2.159,9.5781,32.7144,0.4503,0.1003,-0.8115,281.7188
13:29:48:223,2.0639,-1.9279,9.1555,32.288,0.3643,-0.0113,-0.9197,282.6094
13:29:48:244,1.36,-1.746,7.7609,31.0786,0.4815,0.3738,-0.8984,283.0469
13:29:48:267,0.8572,-1.3785,5.8982,32.9942,0.4578,0.5605,-0.7543,284.4844
13:29:48:285,0.7411,-0.9319,4.336,30.0398,0.3659,0.5328,-0.6179,286.5938
13:29:48:303,0.8764,-0.3597,3.4945,34.247,0.2543,0.3139,-0.5559,286.5938
13:29:48:324,1.0272,0.1263,3.2969,32.5603,0.1412,0.0121,-0.583,287.4375
13:29:48:352,0.9518,0.3442,3.7482,32.6195,0.0415,-0.1996,-0.648,288.1719
13:29:48:368,0.7914,0.2975,4.6652,31.5326,-0.0144,-0.2531,-0.6976,288.8125
13:29:48:385,0.4957,0.1203,5.5654,33.1063,-0.0967,-0.17,-0.7119,289.4688
13:29:48:403,0.0731,0.0401,6.4728,30.1946,-0.2272,0.0124,-0.6472,290.1562
13:29:48:425,-0.2944,0.1694,7.7142,31.3269,-0.338,0.2199,-0.5537,291.7656
13:29:48:449,-0.5135,0.6614,8.9461,35.1704,-0.3526,0.2236,-0.5271,291.7656
13:29:48:465,-0.3483,0.8218,10.2329,31.4093,-0.2852,-0.0046,-0.6275,292.4844
13:29:48:482,-0.1256,0.5333,11.6515,31.4718,-0.2139,-0.1735,-0.7532,293.1406
13:29:48:502,0.0947,-0.1933,12.8725,32.7394,-0.1947,-0.1125,-0.8541,293.7812
13:29:48:523,-0.3578,-0.8386,13.8685,33.4069,-0.2149,0.1432,-0.8749,294.8906
13:29:48:548,-0.6763,-1.2169,14.3294,31.8836,-0.2738,0.4534,-0.8435,295.8281
13:29:48:567,-0.5278,-1.7041,14.4,33.0933,-0.379,0.6761,-0.8086,296.8438
13:29:48:584,-0.4692,-2.0069,14.3701,34.5013,-0.473,0.6436,-0.7585,297.8125
13:29:48:603,-0.5817,-2.1985,14.7831,34.0254,-0.4653,0.4178,-0.6848,298.8281
13:29:48:623,-0.8008,-2.548,15.5804,32.8542,-0.3236,0.2982,-0.5593,299.8125
13:29:48:649,-1.5166,-2.821,16.1179,36.3329,0.024,0.5059,-0.3079,300.7188
13:29:48:666,-1.8506,-3.3956,14.7915,35.9294,0.4863,0.8324,0.0641,301.4531
13:29:48:684,-1.3849,-3.8038,11.3103,36.329,0.7633,0.7845,0.4569,302.0156
13:29:48:703,-0.4332,-3.6877,8.0494,37.1137,0.7052,0.209,0.7158,302.2188
13:29:48:723,0.151,-3.0089,6.5961,38.1583,0.4091,-0.5634,0.8263,302.1562
13:29:48:748,0.0444,-1.9172,7.4976,37.4201,0.1622,-1.092,0.8876,301.7031
13:29:48:828,0.4012,-1.4862,9.1735,38.7776,0.1579,-1.1322,0.8759,300.8906
13:29:48:828,0.4311,-1.5233,9.6679,37.898,0.3071,-0.818,0.886,299.8906
13:29:48:828,-0.0466,-1.5281,8.7545,38.1812,0.4778,-0.463,1.0263,298.8438
13:29:48:829,-0.1591,-1.4192,7.4233,39.6824,0.608,-0.1892,1.2231,296.6719
13:29:48:849,0.03,-1.1941,6.1424,37.9729,0.7095,-0.0819,1.4018,295.4375
13:29:48:867,0.4801,-0.9176,5.0196,38.5966,0.7763,-0.2108,1.5057,294.8125
13:29:48:882,1.0212,-0.6411,4.2738,38.911,0.7707,-0.4656,1.5017,293.2656
13:29:48:907,1.4893,-0.3561,4.0415,40.9726,0.6594,-0.7072,1.4045,291.5312
13:29:48:921,1.8173,-0.1418,4.4557,41.5094,0.4818,-0.7953,1.2348,289.8281
13:29:48:944,1.9083,-0.2053,6.3998,40.0671,0.2658,-0.737,1.0119,288.0938
13:29:48:967,1.791,-0.1275,7.5227,40.3842,0.0448,-0.55,0.8071,286.5
13:29:48:985,2.0005,0.0293,8.6013,40.8965,-0.1441,-0.3479,0.6066,285.1719
13:29:49:003,2.2231,-0.1921,9.1472,43.0683,-0.2487,-0.2086,0.3403,284.1562
13:29:49:023,2.2148,-0.5979,9.6045,41.928,-0.363,-0.2012,0.0263,283.3438
13:29:49:047,2.0891,-1.1726,10.44,42.563,-0.5702,-0.2803,-0.2632,282.7969
13:29:49:065,1.5923,-1.8178,12.5469,43.7353,-0.873,-0.3881,-0.4856,282.6094
13:29:49:082,1.22,-2.657,14.8597,45.7149,-1.0948,-0.2992,-0.5777,282.7969
13:29:49:102,2.0268,-3.5296,15.0393,44.0434,-1.0258,0.0795,-0.4925,283.2969
13:29:49:124,2.8061,-3.3154,13.5285,45.362,-0.8296,0.4225,-0.3697,283.9844
13:29:49:148,3.0216,-2.7168,12.9899,45.7285,-0.7923,0.3658,-0.3966,285.0469
13:29:49:165,2.4542,-2.9311,14.0672,44.5368,-0.8858,0.0758,-0.6225,285.5938
13:29:49:182,0.9985,-3.4004,15.0321,46.153,-0.9039,0.0673,-0.8315,286.125
13:29:49:202,0.704,-3.6984,14.2229,46.6816,-0.6954,0.4518,-0.7271,286.9375
13:29:49:228,1.6366,-3.5931,11.8526,46.7333,-0.3063,0.8004,-0.4121,287.9844
13:29:49:249,2.842,-3.0592,9.3495,47.107,0.0245,0.7419,-0.1378,288.5
13:29:49:267,3.5459,-2.0057,8.0638,44.6908,0.1499,0.2758,-0.0166,289.25
13:29:49:283,3.619,-1.0145,8.2182,46.0131,0.0876,-0.2805,-0.0858,289.6562
13:29:49:303,3.2586,-0.726,8.8335,47.0628,0.0168,-0.5184,-0.2778,289.7656
13:29:49:323,2.5164,-0.7284,8.6564,46.986,0.0839,-0.3626,-0.4869,289.7812
13:29:49:348,1.7958,-0.4782,7.1468,47.2777,0.2269,0.1168,-0.5988,289.9375
13:29:49:367,1.3804,-0.0198,5.5607,47.5297,0.2783,0.5549,-0.6216,290.3125
13:29:49:383,1.226,0.398,4.7622,47.159,0.2107,0.7078,-0.6275,290.9219
13:29:49:402,1.3361,0.7416,4.6509,47.9003,0.134,0.6143,-0.6371,291.6094
13:29:49:422,1.5468,0.8781,5.2578,48.4774,0.1076,0.3605,-0.6968,292.75
13:29:49:444,1.5156,0.6566,5.763,49.0454,0.1707,0.0998,-0.8195,293.5312
13:29:49:466,0.8429,0.3777,5.8515,51.2844,0.2482,-0.056,-0.9785,294.3125
13:29:49:485,0.1665,-0.0616,6.7051,50.401,0.2117,-0.17,-1.0475,295.25
13:29:49:502,-0.693,-0.5608,8.3822,50.401,0.1033,-0.2712,-1.0006,296.3438
13:29:49:523,-1.282,-0.5106,10.0486,49.8464,0.0352,-0.2635,-0.8219,297.4531
13:29:49:550,-1.0258,-0.5644,11.5007,50.4788,0.0469,-0.1897,-0.5841,298.5781
13:29:49:565,-0.2249,-0.926,12.1363,50.5958,0.1164,-0.0957,-0.4198,299.4844
13:29:49:584,0.4478,-1.0983,12.4344,50.4444,0.1065,0.0593,-0.3375,300.1406
13:29:49:603,0.9734,-1.0995,13.1874,51.7466,-0.0274,0.1751,-0.3375,300.5781
13:29:49:624,0.9015,-1.2444,14.1606,51.5358,-0.1848,0.2502,-0.4584,300.7656
13:29:49:649,0.1713,-1.8932,14.3426,51.7492,-0.2575,0.4004,-0.6312,301.3594
13:29:49:665,-1.0737,-2.1374,13.9739,51.9778,-0.2996,0.6343,-0.6728,301.8906
13:29:49:683,-2.0649,-1.9327,14.3162,52.3261,-0.2724,0.6383,-0.1409,302.6719
13:29:49:707,-2.2492,-2.0979,14.8789,51.7085,0.0921,0.4569,0.2348,303.5
13:29:49:721,-1.8362,-2.5504,14.1295,52.116,0.5444,0.3027,0.6119,304.1094
13:29:49:742,-0.6631,-2.7707,12.0645,52.2004,0.7838,0.0569,0.8569,304.3438
13:29:49:768,0.8165,-2.5887,10.1515,53.2735,0.6967,-0.2789,0.8439,304.1094
13:29:49:783,1.4905,-2.1147,9.2381,53.7791,0.3974,-0.6124,0.6556,303.3906
13:29:49:802,0.8548,-1.4072,9.8726,52.6927,0.2032,-0.7474,0.5286,302.4219
13:29:49:821,0.6262,-1.3761,10.5861,52.7167,0.2666,-0.6542,0.4916,301.3906
13:29:49:841,0.2707,-1.2875,10.3155,52.371,0.4762,-0.3934,0.5776,300.5938
13:29:49:864,0.0815,-0.9164,9.2693,53.3235,0.6796,-0.0675,0.7786,299.9688
13:29:49:881,0.7687,-0.5788,7.7753,51.9138,0.7409,0.3094,0.9355,299.3438
13:29:49:901,1.609,-0.2675,6.4106,52.0817,0.6956,0.663,0.9651,298.625
13:29:49:923,2.0208,0.0221,5.3739,52.3847,0.64,0.9147,0.9102,296.0312
13:29:49:948,2.0591,0.1742,4.4402,51.1904,0.5718,0.9392,0.7954,296.0312
13:29:49:965,1.8149,0.3406,3.9015,52.0807,0.4165,0.7704,0.6548,294.9375
13:29:49:984,1.4546,0.5621,4.3336,52.6627,0.2413,0.4585,0.4982,293.9688
13:29:50:003,1.135,0.5261,5.6193,53.6051,0.1577,0.0146,0.3022,293.1406
13:29:50:022,0.7794,0.2939,7.3312,52.9402,0.2261,-0.3647,0.1115,292.4688
13:29:50:044,0.5496,-0.1838,8.2003,50.6024,0.3084,-0.6302,-0.0533,292
13:29:50:065,0.1605,-0.8206,8.5594,53.0097,0.2464,-0.7668,-0.1458,291.7812
13:29:50:084,-0.128,-1.4036,8.9245,52.9361,0.02,-0.7943,-0.1553,291.7344
13:29:50:102,-0.0945,-1.9746,9.8211,52.3855,-0.2818,-0.8073,-0.1412,291.8438
13:29:50:122,-0.104,-2.4487,11.5043,51.298,-0.5252,-0.6371,-0.0936,291.9219
13:29:50:146,-0.1196,-2.6462,13.2053,52.5121,-0.5947,-0.2675,-0.0065,292.0938
13:29:50:165,0.6166,-3.0975,13.6363,52.7006,-0.5502,0.2052,0.0282,292.2812
13:29:50:183,1.0679,-3.0879,12.2668,50.9679,-0.6751,0.5128,-0.0166,292.4219
13:29:50:201,0.6705,-2.3194,11.7928,52.9533,-0.9374,0.5917,-0.1343,292.4688
13:29:50:223,0.4921,-1.8046,13.1395,51.1512,-1.0722,0.7003,-0.3833,292.4844
13:29:50:242,0.6753,-2.0225,14.7376,51.9824,-1.0397,1.1443,-0.6813,292.6562
13:29:50:268,0.6059,-2.7036,15.0752,51.7294,-0.8927,1.8058,-0.8139,293.0312
13:29:50:285,0.9063,-3.1693,13.2676,51.1533,-0.8035,2.1911,-0.7894,293.75
13:29:50:306,1.105,-2.6642,11.4707,51.1742,-0.7268,2.0692,-0.7676,294.7812
13:29:50:325,1.0356,-2.0045,10.5873,51.3785,-0.4693,1.6385,-0.7868,295.8125
13:29:50:349,0.1019,-1.1857,8.0782,50.0124,-0.0578,1.1813,-0.7788,296.8906
13:29:50:368,-0.4356,-1.1462,6.1975,49.5613,0.3129,0.8244,-0.7087,297.9219
13:29:50:384,-1.1455,-0.9307,4.6999,49.2235,0.4759,0.6036,-0.5596,298.9531
13:29:50:403,-1.2138,-0.5824,3.8572,50.3586,0.432,0.52,-0.3157,299.875
13:29:50:421,-0.8355,-0.1969,3.5962,51.2247,0.3143,0.4231,-0.0645,300.6875
13:29:50:441,-0.2704,0.2831,3.777,49.7738,0.2045,0.2505,0.1081,301.2812
13:29:50:465,0.0276,0.7404,4.5395,47.6617,0.1164,-0.0097,0.1608,301.5469
13:29:50:483,0.1893,1.1307,5.6828,49.783,0.0708,-0.3192,0.0937,301.5469
13:29:50:506,-0.0729,1.3438,7.2378,47.5959,0.0426,-0.516,-0.081,301.4062
13:29:50:523,-0.7888,1.3438,8.9628,48.0856,-0.0884,-0.4174,-0.3607,301.1875
13:29:50:542,-1.7536,0.8793,10.7896,49.6547,-0.3513,0.1315,-0.6784,301.25
13:29:50:564,-2.7209,0.0246,12.7421,49.2267,-0.636,0.8793,-0.9231,301.625
13:29:50:583,-4.0605,-0.5536,13.4938,51.2271,-0.5931,1.4375,-0.9801,301.9688
13:29:50:602,-4.8242,-0.7799,13.0006,49.6188,-0.1678,1.4196,-0.8049,302.875
13:29:50:622,-4.574,-1.09,11.9029,47.6426,0.3553,0.8761,-0.4965,304.0469
13:29:50:641,-4.0257,-1.3138,11.2589,48.5594,0.6618,0.2625,-0.2451,305.2188
13:29:50:664,-3.3865,-1.503,11.6874,48.316,0.6405,-0.1426,-0.1343,306.0625
13:29:50:682,-3.3494,-1.649,12.2369,48.2684,0.4213,-0.2105,-0.1668,306.5781
13:29:50:701,-4.1323,-2.0943,13.5214,48.4973,0.1009,-0.1652,-0.2904,306.8438
13:29:50:722,-5.2635,-3.2615,15.8485,46.6947,-0.1425,-0.2363,-0.3308,307.0312
13:29:50:742,-5.9016,-4.4921,15.651,47.2834,0.1305,-0.2006,-0.1236,307.2969
13:29:50:765,-4.7859,-4.7411,12.3279,47.4166,0.698,0.0625,0.4159,307.6562
13:29:50:782,-2.9783,-3.6877,8.2924,48.2854,1.0224,0.2391,0.9848,307.9375
13:29:50:802,-2.0278,-2.0919,6.2238,47.624,0.8751,-0.0779,1.189,307.5469
13:29:50:822,-1.8554,-1.2121,6.4226,46.5383,0.4629,-0.6808,1.0798,306.5312
13:29:50:916,-1.8961,-1.2324,7.6197,46.5582,0.1055,-1.1453,0.8897,305.2656
13:29:50:916,-1.9691,-1.2037,7.8782,46.6429,-0.0013,-1.2417,0.8205,304.0938
13:29:50:917,-1.7716,-0.9679,7.2234,47.6099,0.0738,-1.1293,0.8774,303.0469
13:29:50:917,-1.5382,-0.7596,6.1125,46.6364,0.1968,-0.9762,0.9605,302.0625
13:29:50:920,-1.3454,-0.6973,5.3727,45.6122,0.2258,-0.8483,1.0266,301.0781
13:29:50:940,-1.2113,-0.7081,5.3033,46.3078,0.1622,-0.7184,1.1046,299.9531
13:29:50:969,-0.9851,-0.6051,5.7701,45.872,0.093,-0.6102,1.2127,298.7656
13:29:50:986,-0.444,-0.4782,6.1532,46.026,0.098,-0.5021,1.3089,297.4844
13:29:51:000,0.1497,-0.2041,6.1855,45.8987,0.1462,-0.3935,1.3315,296.1562
13:29:51:021,0.5939,0.0222,6.3268,45.3495,0.1587,-0.3184,1.2434,294.6406
13:29:51:042,0.7447,0.2041,6.887,44.6437,0.0083,-0.4944,0.7595,293.1094
13:29:51:068,0.4957,0.0616,8.0099,45.663,-0.0559,-0.6273,0.4543,290.5625
13:29:51:086,0.0169,-0.4363,9.2872,45.2602,-0.0658,-0.5676,0.2319,290.0781
13:29:51:103,-0.3279,-1.0624,10.0558,44.3586,-0.1105,-0.4254,0.1155,290.0781
13:29:51:124,-0.14,-1.5341,10.44,42.8391,-0.225,-0.4169,0.0194,288.8906
13:29:51:141,0.5376,-1.8513,11.3008,44.7014,-0.3864,-0.505,-0.1684,288.8906
13:29:51:166,0.7124,-2.1518,12.7576,43.7739,-0.4812,-0.4776,-0.3647,288.7656
13:29:51:183,0.7088,-2.8808,13.756,43.9893,-0.4669,-0.1908,-0.4701,288.7344
13:29:51:200,0.9494,-3.5009,12.9432,43.4943,-0.5278,0.1597,-0.5063,288.9219
13:29:51:221,1.0667,-3.1202,11.5928,42.7066,-0.788,0.3336,-0.5892,289.3438
13:29:51:240,0.6765,-2.5372,11.9113,43.6812,-1.0245,0.414,-0.7338,289.8906
13:29:51:265,-0.4308,-2.6869,13.0641,42.1343,-1.0416,0.6473,-0.7114,290.4531
13:29:51:284,-1.4232,-2.7755,13.5884,42.0549,-0.8434,0.8982,-0.3979,291.1719
13:29:51:300,-0.802,-2.5815,13.0533,42.8272,-0.5159,0.916,-0.0517,292.0781
13:29:51:321,0.6418,-1.8824,11.8287,43.3203,-0.2213,0.6936,0.0575,292.9531
13:29:51:340,1.6449,-1.0708,10.5083,41.975,-0.0402,0.3781,-0.0752,293.4688
13:29:51:365,1.8724,-0.6027,9.5925,40.7934,0.0485,0.2114,-0.3188,293.5938
13:29:51:382,1.5767,-0.4339,8.7904,41.8371,0.0567,0.2795,-0.5585,293.625
13:29:51:401,0.9147,-0.5165,7.9692,43.4613,0.0264,0.5096,-0.6991,293.875
13:29:51:427,0.2563,-0.58,7.1456,42.8977,0.0011,0.7022,-0.7173,294.4062
13:29:51:448,-0.1926,-0.5632,6.4309,40.3873,0.0176,0.7075,-0.6613,295.1719
13:29:51:465,-0.6152,-0.4723,6.2227,41.8687,0.1151,0.5445,-0.549,296.0156
13:29:51:483,-0.6679,-0.5297,6.3388,41.8687,0.2823,0.3711,-0.4174,296.875
13:29:51:500,-0.5757,-0.5285,6.2203,41.3924,0.4072,0.2774,-0.313,297.6406
13:29:51:521,-0.4656,-0.5345,5.9246,40.7571,0.4125,0.2279,-0.2619,298.2031
13:29:51:543,-0.6404,-0.6985,6.0922,41.3807,0.2935,0.2271,-0.2089,298.6562
13:29:51:563,-0.9252,-0.6387,6.6357,40.4803,0.1776,0.1927,-0.1303,299.0156
13:29:51:581,-1.2054,-0.3238,7.5011,40.6721,0.1414,-0.0619,-0.0874,299.1719
13:29:51:605,-1.9069,0.0748,9.1256,40.7539,0.2996,-0.5122,-0.0493,299.4375
13:29:51:622,-2.7544,-0.3633,11.3618,38.8107,0.7188,-0.8899,0.0892,299.6094
13:29:51:641,-3.5313,-1.0576,11.9161,38.4937,1.0972,-1.0257,0.4015,299.7188
13:29:51:664,-3.2404,-0.7021,10.853,39.4731,1.0645,-0.9405,0.6487,299.75
13:29:51:681,-2.5222,0.398,10.0929,39.1192,0.6061,-0.8068,0.6471,299.4219
13:29:51:706,-1.8231,0.9571,10.9249,38.5379,0.0253,-0.4885,0.519,298.7656
13:29:51:720,-0.8762,0.6985,12.444,38.3239,-0.4431,0.0239,0.3219,298.0156
13:29:51:741,-0.6116,0.3573,13.5788,39.1332,-0.7491,0.3858,0.1691,297.3125
13:29:51:767,-1.2844,-0.4459,16.0233,39.2401,-0.7121,0.541,0.1296,296.8281
13:29:51:784,-2.339,-1.4024,14.989,36.7848,-0.2415,0.3924,0.0918,296.5625
13:29:51:802,-2.0912,-2.2703,13.021,38.8472,0.3007,0.0321,0.2455,296.4219
13:29:51:828,-1.2209,-2.1542,10.7585,38.4671,0.5334,-0.0587,0.4892,296.3281
13:29:51:839,-0.5673,-1.6538,9.3615,38.083,0.4048,-0.0709,0.5683,296.1875
13:29:51:861,-0.3111,-1.0995,9.3279,37.3698,0.0581,-0.1271,0.4985,295.7812
13:29:51:882,-0.5446,-0.8577,9.5638,36.684,-0.2224,-0.1711,0.3379,295.1562
13:29:51:900,-0.9169,-0.9571,9.5051,37.6366,-0.3396,-0.0776,0.2228,294.5156
13:29:51:921,-1.361,-1.0481,8.6779,38.8244,-0.323,0.1778,0.2402,294.0625
13:29:51:940,-1.5849,-0.9296,7.4305,38.3187,-0.2195,0.4308,0.3869,293.75
13:29:51:967,-1.7967,-0.647,6.9265,38.8689,-0.1167,0.5315,0.6165,293.3594
13:29:51:982,-2.0757,-0.7871,7.0929,38.8442,0.0232,0.4218,0.8532,292.9531
13:29:52:000,-2.1714,-0.9607,7.3024,38.8034,0.2466,0.1624,1.1424,292.2656
13:29:52:021,-1.6375,-0.8386,7.5873,38.7636,0.527,-0.0741,1.4937,291.3125
13:29:52:040,-0.7984,-0.3083,7.7023,40.8704,0.8578,-0.2627,1.7896,290.0156
13:29:52:065,0.0336,0.3502,7.0008,39.0834,1.1492,-0.3285,1.8985,289.2969
13:29:52:082,0.5376,0.9547,5.9341,37.6548,1.2525,-0.3484,1.7827,287.4219
13:29:52:100,0.5496,1.3282,5.6696,39.0373,1.0575,-0.3674,1.4812,285.2969
13:29:52:121,0.2264,1.2121,6.3567,40.2882,0.6679,-0.2906,1.1281,283.1875
13:29:52:141,-0.0047,0.9774,7.7633,38.7789,0.2687,-0.2092,0.8292,281.4219
13:29:52:164,0.37,0.7907,9.2765,38.2877,0.0493,-0.2627,0.621,279.9531
13:29:52:183,0.6238,0.4292,10.8207,40.095,0.0099,-0.5642,0.377,278.8594
13:29:52:209,0.5484,-0.0964,12.1208,41.0821,-0.008,-0.8209,0.0995,278.0781
13:29:52:219,0.3365,-0.6698,13.0234,40.2894,-0.0701,-0.7647,-0.1404,277.5
13:29:52:245,0.3185,-1.0481,12.9276,40.8333,-0.1529,-0.3687,-0.3069,277.25
13:29:52:270,0.4382,-0.7715,11.8466,40.3152,-0.265,0.23,-0.4232,277.4219
13:29:52:285,0.2575,-0.0916,11.5988,38.9062,-0.448,0.6082,-0.5788,277.7812
13:29:52:302,-0.0119,-0.4208,12.4117,39.5316,-0.5619,0.5496,-0.8248,278.2812
13:29:52:325,-0.4488,-1.5101,13.252,37.955,-0.474,0.3163,-1.068,278.8906
13:29:52:339,-0.3554,-2.5301,12.5649,40.9333,-0.2213,0.2817,-1.1048,279.8438
13:29:52:360,0.2683,-2.5911,10.7238,40.2932,-0.0194,0.4143,-0.9487,281.0625
13:29:52:382,1.2236,-2.0117,9.2848,42.2817,-0.0213,0.3719,-0.7833,282.3281
13:29:52:400,1.7299,-1.3066,9.0682,41.9123,-0.1888,0.0968,-0.7897,283.3438
13:29:52:420,1.6258,-1.1558,8.8012,40.6585,-0.3065,-0.1221,-0.9585,284.25
13:29:52:447,0.9386,-1.3042,7.8962,40.4383,-0.3542,-0.1189,-1.166,285.1406
13:29:52:470,-0.1854,-1.5796,6.9936,41.4088,-0.5681,0.3837,-1.1561,286.1719
13:29:52:489,-1.0402,-1.5054,6.0096,42.2726,-0.6048,0.5546,-0.8579,287.5156
13:29:52:504,-1.2449,-1.0481,5.0722,41.6709,-0.5393,0.4518,-0.529,289.6719
13:29:52:521,-0.7313,-0.3537,4.5228,40.8541,-0.4293,0.0758,-0.305,289.6719
13:29:52:540,-0.0849,0.4196,4.4737,41.0315,-0.3888,-0.3855,-0.3047,291.2188
13:29:52:564,-0.2249,0.8506,5.3248,42.4975,-0.3947,-0.6814,-0.3865,291.8281
13:29:52:582,-0.8271,0.568,6.9505,41.9355,-0.3579,-0.6243,-0.387,292.1562
13:29:52:599,-1.4783,0.2939,8.0542,41.8068,-0.3238,-0.4132,-0.293,292.4688
13:29:52:619,-2.1092,0.1838,9.1268,42.0741,-0.3001,-0.1463,-0.1101,292.875
13:29:52:639,-2.0709,0.489,10.1994,41.83,-0.2016,0.1251,0.0553,293.2812
13:29:52:660,-1.4101,1.2049,10.5394,42.3259,-0.0999,0.2071,0.0215,293.5781
13:29:52:683,-1.1348,1.7376,10.5454,42.6892,-0.1116,0.132,-0.183,293.6875
13:29:52:702,-1.4412,1.6825,10.9799,43.2702,-0.257,0.0052,-0.4094,293.6406
13:29:52:721,-2.1188,1.0481,12.6391,42.8634,-0.3726,-0.0478,-0.4941,293.625
13:29:52:741,-2.7029,0.252,14.6873,44.8979,-0.3409,-0.0787,-0.3982,293.8438
13:29:52:769,-2.6443,-0.3896,16.3705,43.8004,-0.1412,-0.0118,-0.232,294.3125
13:29:52:789,-2.3893,-0.8577,16.5704,43.1149,0.0256,0.1304,-0.0557,294.875
13:29:52:807,-2.5138,-0.8003,15.742,41.8426,0.0293,0.2486,0.1917,295.2969
13:29:52:820,-2.2373,-0.8457,15.3278,45.2719,0.0943,0.2332,0.4354,295.625
13:29:52:841,-2.0601,-1.2061,14.7724,43.8964,0.4442,0.0729,0.6727,295.5625
13:29:52:866,-1.9548,-1.8489,12.9276,43.8032,0.8751,-0.153,0.9528,295.2344
13:29:52:884,-1.4065,-2.3433,10.1946,45.1208,1.0751,-0.3988,1.1818,294.625
13:29:52:900,-0.2489,-2.1386,7.9944,45.3796,0.8964,-0.7831,1.1946,293.7031
13:29:52:973,0.7495,-1.4958,7.3886,45.6499,0.4522,-1.1833,0.9648,292.5156
13:29:52:974,0.783,-0.9547,8.7988,44.1644,0.0637,-1.4353,0.6649,291.0938
13:29:52:974,0.1306,-1.0696,10.9739,46.2047,0.0242,-1.267,0.4964,289.7969
13:29:52:986,-0.5063,-1.4659,11.9759,45.6331,0.3305,-0.7455,0.5257,288.8281
13:29:53:006,-0.9839,-1.6191,10.2329,45.7164,0.6021,-0.1714,0.6958,288.1875
13:29:53:019,-0.8295,-1.3737,7.5263,45.6753,0.6064,0.1964,0.895,287.5781
13:29:53:042,-0.2968,-0.8876,5.9162,45.4869,0.5231,0.2833,1.0042,287.25
13:29:53:066,0.2132,-0.5309,5.1525,44.9674,0.4919,0.0819,1.0138,286.4531
13:29:53:085,0.4383,-0.2915,4.9777,45.3385,0.5358,-0.2246,0.9864,285.4062
13:29:53:103,0.5652,-0.3549,4.901,46.7175,0.5934,-0.5168,0.9581,284.2344
13:29:53:121,0.6011,-0.4435,4.9023,46.3505,0.5896,-0.6566,0.9305,282.5312
13:29:53:140,0.6741,-0.5154,5.0567,46.2112,0.4682,-0.6281,0.8844,281.3906
13:29:53:167,0.8668,-0.0928,6.4333,44.7436,0.2754,-0.5224,0.7834,280.2812
13:29:53:186,0.7483,0.0832,7.5023,47.2426,0.0708,-0.4233,0.6231,279.2031
13:29:53:202,0.7435,0.0832,8.1811,47.4592,-0.1084,-0.288,0.4537,278.2656
13:29:53:226,1.0404,-0.1143,9.0083,46.0352,-0.2935,-0.2459,0.2756,277.4531
13:29:53:239,1.5025,-0.9116,10.7608,46.445,-0.4914,-0.3793,0.0689,276.8438
13:29:53:261,1.5192,-1.6179,12.7038,46.5667,-0.6615,-0.4536,-0.1015,276.4688
13:29:53:284,1.2152,-1.8705,13.8446,45.2019,-0.7513,-0.2457,-0.1593,276.2969
13:29:53:302,1.5384,-2.2092,14.0469,46.1904,-0.7638,0.1027,-0.1284,276.3906
13:29:53:319,2.2339,-2.1925,13.0497,47.7189,-0.7233,0.4385,-0.0997,276.6094
13:29:53:343,2.538,-1.3833,12.2261,45.6819,-0.7737,0.6372,-0.1649,276.8594
13:29:53:367,1.7898,-0.7392,12.6858,47.367,-0.9308,0.6377,-0.39,277.0469
13:29:53:383,0.4011,-1.218,13.8961,46.8916,-0.9939,0.5032,-0.6952,277.2656
13:29:53:400,-0.5649,-2.3433,14.0493,46.7046,-0.7768,0.515,-0.7599,277.9688
13:29:53:420,0.3102,-2.8689,12.535,45.5917,-0.3372,0.6335,-0.435,278.8594
13:29:53:442,2.1357,-2.4451,10.5741,46.73,0.1137,0.5078,0.0066,279.8125
13:29:53:466,3.6178,-1.2899,9.1172,47.0486,0.3715,0.071,0.2204,280.3438
13:29:53:483,4.1995,-0.3873,8.8204,46.3189,0.3414,-0.3788,0.079,280.3594
13:29:53:501,3.9745,-0.2065,9.5901,46.3189,0.122,-0.5317,-0.3255,280.0938
13:29:53:521,3.1329,-0.5812,9.7242,47.9703,-0.0293,-0.2171,-0.7607,279.9688
13:29:53:540,2.0424,-0.6674,8.4062,46.3106,-0.0477,0.4172,-1.0653,280.0625
13:29:53:566,1.0979,-0.4315,7.0379,46.8828,-0.0794,1.0058,-1.1916,280.6719
13:29:53:582,0.3664,-0.1814,6.3867,47.8705,-0.0977,1.2271,-1.1753,281.75
13:29:53:600,0.279,0.1131,6.0227,47.428,0.0029,1.1459,-1.0414,283.0312
13:29:53:623,0.4035,0.398,5.6049,49.0817,0.1939,0.8755,-0.905,284.4844
13:29:53:640,0.54,0.7727,5.5786,48.6033,0.3372,0.524,-0.8219,285.8281
13:29:53:660,0.558,1.2049,6.0754,46.7462,0.3904,0.193,-0.8182,287.4531
13:29:53:681,0.5927,1.4575,7.1564,47.2903,0.3712,-0.0827,-0.8909,288.4062
13:29:53:700,0.7387,1.6682,8.0817,46.747,0.3318,-0.0984,-1.0155,289.3438
13:29:53:720,1.1709,2.2583,9.6906,46.796,0.2703,0.0311,-1.1708,290.3125
13:29:53:741,0.3114,2.0093,10.4221,48.7585,0.3579,0.0936,-1.4166,291.4688
13:29:53:766,-1.6998,1.4898,10.0869,46.8034,0.5547,0.0396,-1.6646,292.7969
13:29:53:785,-3.4703,0.9308,10.6651,48.2221,0.5585,-0.0891,-1.6265,294.4219
13:29:53:800,-5.0121,1.0337,12.025,48.7418,0.371,-0.1327,-1.2866,296.2188
13:29:53:826,-4.8661,1.1235,13.9571,48.7773,0.1454,-0.105,-0.7234,298.0781
13:29:53:839,-2.8538,1.0828,15.4475,48.916,0.0013,0.0388,-0.0688,299.5469
13:29:53:861,-1.9488,1.8513,15.4451,48.718,0.2914,0.1914,0.5925,300.3125
13:29:53:883,-1.0988,2.0165,14.9675,48.2801,0.5459,-0.1005,0.5725,300.3125
13:29:53:901,-1.3131,0.8506,14.1499,48.1032,0.7563,-0.2848,0.499,300.3906
13:29:53:921,-2.7413,-0.5154,13.0378,50.5259,0.9004,-0.2118,0.7454,299.9688
13:29:53:940,-2.685,-1.1881,11.1212,49.2963,0.8786,-0.0507,1.0828,299.3281
13:29:53:960,-1.4759,-0.8888,9.1603,48.1121,0.591,-0.0821,1.1768,298.0625
13:29:53:983,-0.3123,-0.5118,8.5127,49.9575,0.1736,-0.3365,1.0269,297.2031
13:29:54:000,-0.2333,-0.264,9.3375,48.9739,-0.2059,-0.6028,0.8444,296
13:29:54:019,-0.468,-0.6195,11.2301,46.96,-0.2778,-0.6041,0.7683,294.6406
13:29:54:039,-1.0162,-0.9858,12.3829,48.7669,0.0415,-0.3165,0.849,293.4688
13:29:54:059,-1.4807,-1.0888,10.8111,48.0952,0.3779,0.0582,1.0745,292.5781
13:29:54:087,-1.118,-1.0265,7.9812,48.8663,0.4597,0.3195,1.2894,291.7344
13:29:54:101,-0.5518,-0.6159,5.9186,48.2841,0.3904,0.3797,1.4109,290.7656
13:29:54:119,0.1641,-0.2783,4.9358,51.0885,0.3286,0.2201,1.4186,289.5156
13:29:54:139,0.5029,-0.082,4.6964,48.6867,0.3239,-0.0068,1.352,288.0781
13:29:54:159,0.5675,-0.0545,4.5838,50.3134,0.3276,-0.2824,1.274,286.4219
13:29:54:183,0.5436,-0.2628,5.004,49.5705,0.3079,-0.4835,1.2063,284.7812
13:29:54:200,0.5101,-0.4699,5.5702,49.5911,0.2392,-0.5394,1.1651,283.2969
13:29:54:220,0.6777,-0.3609,6.2274,53.2828,0.1233,-0.5697,1.0956,281.8281
13:29:54:240,1.0296,-0.0509,6.996,49.6529,-0.0141,-0.5687,0.9339,279.7969
13:29:54:260,1.141,0.246,7.8998,50.2662,-0.1555,-0.533,0.7014,278.5781
13:29:54:283,1.2834,0.2221,8.9161,51.3013,-0.2578,-0.39,0.4423,277.4219
13:29:54:302,1.4498,-0.1718,9.5362,49.1804,-0.3585,-0.2614,0.1981,276.5156
13:29:54:319,1.5264,-0.5489,9.9121,51.2102,-0.5281,-0.2299,0.0015,275.9219
13:29:54:340,1.5324,-0.9523,10.8494,51.7048,-0.7385,-0.1607,-0.1356,275.6094
13:29:54:359,1.3672,-1.2169,12.3746,48.7423,-0.8754,0.0849,-0.2014,275.5469
13:29:54:380,1.6916,-1.5604,13.2856,49.7246,-0.8719,0.4212,-0.236,275.6875
13:29:54:402,2.5056,-1.8597,12.5493,51.0377,-0.9132,0.5626,-0.3221,275.9844
13:29:54:420,2.7582,-1.23,12.0394,51.3408,-1.0626,0.3887,-0.5037,276.3125
13:29:54:441,2.6709,-0.7524,13.0701,50.5216,-1.1745,0.1962,-0.7814,276.7031
13:29:54:462,1.8844,-1.3246,14.7173,51.0264,-1.1153,0.3528,-0.9199,277.2031
13:29:54:483,0.5699,-2.2308,15.4715,50.3838,-0.8144,0.7416,-0.7,277.5781
13:29:54:501,0.5268,-2.6258,13.8362,50.7123,-0.4695,0.9003,-0.2651,278.5781
13:29:54:519,1.5923,-2.1278,11.5581,49.8907,-0.2165,0.5797,0.0852,279.7188
13:29:54:541,2.939,-1.1271,9.8559,49.3248,-0.0522,-0.011,0.144,280.8125
13:29:54:568,3.3592,0.3909,8.1093,50.5641,-0.0029,-0.4092,-0.065,280.9375
13:29:54:583,2.6804,0.252,7.4545,52.6362,-0.0695,-0.3681,-0.371,280.7969
13:29:54:600,1.688,0.3023,6.7542,50.7005,-0.2157,0.0398,-0.5979,280.7188
13:29:54:618,1.0655,0.5513,6.4142,51.4008,-0.3537,0.4761,-0.6992,280.9375
13:29:54:639,0.6011,0.6674,6.1712,53.7685,-0.3672,0.6742,-0.746,281.5156
13:29:54:658,0.0827,0.7572,6.0814,50.3092,-0.2455,0.5954,-0.7588,282.2656
13:29:54:682,-0.1819,0.8565,5.9641,50.5151,-0.0735,0.3869,-0.7175,283.1562
13:29:54:698,-0.286,1.0457,6.1927,52.0773,0.057,0.169,-0.6765,284.0781
13:29:54:719,-0.5865,1.1414,6.7578,51.1311,0.0956,0.0111,-0.6837,284.9219
13:29:54:741,-1.1407,1.236,7.7083,50.844,0.0384,-0.0438,-0.6986,285.7344
13:29:54:769,-1.6722,1.2504,8.9353,51.7141,-0.0551,-0.0238,-0.6581,286.5
13:29:54:782,-1.8351,0.9918,10.2485,53.8308,-0.0887,-0.0294,-0.5812,287.2969
13:29:54:800,-1.6986,0.7727,11.6766,52.0345,-0.0527,-0.0904,-0.4717,288.0312
13:29:54:819,-1.4771,0.677,12.4943,53.2137,0.0754,-0.0483,-0.3481,288.75
13:29:54:839,-1.3287,0.4615,12.5721,54.265,0.2293,0.0593,-0.2613,289.6094
13:29:54:859,-1.0845,0.1873,12.7385,54.4048,0.286,0.1509,-0.1804,289.9844
13:29:54:881,-0.7648,-0.064,13.3729,53.203,0.2274,0.2249,-0.1021,290.2656
13:29:54:898,-0.4129,-0.4591,13.6435,54.734,0.1694,0.3102,-0.0509,290.4688
13:29:54:920,-0.5087,-0.6039,13.5238,53.8374,0.1097,0.4204,-0.0459,290.5938
13:29:54:941,-0.9205,-0.5644,13.9595,54.4848,0.0083,0.4284,-0.0339,290.6562
13:29:54:968,-1.4807,-0.9164,14.8741,54.5683,-0.0543,0.3115,0.0343,290.6875
13:29:54:986,-2.0218,-1.5652,15.1446,56.3211,0.0804,0.2478,0.1981,290.75
13:29:55:069,-1.6579,-2.1853,13.452,55.1525,0.437,0.3144,0.5222,290.7812
13:29:55:069,-0.6332,-2.1973,10.5681,55.4104,0.7827,0.4303,0.8854,290.6719
13:29:55:070,0.3976,-1.7148,8.223,57.0152,0.893,0.2782,1.0897,290.2969
13:29:55:070,0.5627,-0.8565,7.6735,57.1734,0.7212,-0.1937,1.0593,289.5312
13:29:55:082,0.4933,-0.5979,9.1603,56.2127,0.4,-0.7389,0.8878,288.3594
13:29:55:101,0.4095,-0.9523,10.3886,58.9011,0.196,-0.9783,0.6828,286.5
13:29:55:118,-0.1962,-1.2109,9.9049,56.3883,0.2123,-0.7743,0.5153,285.5312
13:29:55:139,-0.7241,-1.2372,8.0925,57.4033,0.3015,-0.3125,0.5161,284.7344
13:29:55:159,-0.6643,-1.0948,6.413,57.7443,0.3079,0.0036,0.6708,284.125
13:29:55:184,-0.3447,-0.8326,5.4733,57.7229,0.2517,0.087,0.8516,283.5156
13:29:55:201,0.1378,-0.6291,5.1417,59.7044,0.1776,-0.0257,0.985,282.7812
13:29:55:219,0.5101,-0.4986,5.1656,59.0476,0.1425,-0.2414,1.0631,281.7969
13:29:55:239,0.8273,-0.3801,5.514,60.5242,0.1475,-0.4755,1.082,280.6562
13:29:55:261,1.1805,-0.3513,6.1293,59.4742,0.1625,-0.5836,0.9643,279.5
13:29:55:284,1.4354,-0.3166,6.5782,59.5897,0.1137,-0.4595,0.8045,278.25
13:29:55:300,1.4606,-0.2113,6.9254,61.9474,0.0192,-0.333,0.6159,277.0312
13:29:55:322,1.3421,-0.082,7.3587,60.8388,-0.0855,-0.2374,0.4383,275.9844
13:29:55:339,1.2307,0.0389,7.8327,59.5656,-0.1971,-0.1498,0.2596,275.0469
13:29:55:361,1.1014,-0.07,8.1225,62.944,-0.3321,-0.1074,0.0758,273.8594
13:29:55:382,0.9817,-0.325,8.3224,61.0457,-0.5401,-0.1804,-0.0816,273.8594
13:29:55:400,0.9219,-0.647,9.3267,61.0095,-0.7731,-0.3114,-0.1897,273.5312
13:29:55:418,0.8608,-1.0026,10.9823,61.8491,-0.9649,-0.3825,-0.268,273.5312
13:29:55:438,0.6394,-1.2264,13.1215,63.6754,-1.0171,-0.3117,-0.2752,273.6719
13:29:55:459,1.0021,-1.8286,14.6514,63.6754,-0.8946,-0.0347,-0.231,273.9219
13:29:55:482,1.7371,-2.3637,14.0816,62.8537,-0.8306,0.2188,-0.1908,274.3125
13:29:55:501,1.9035,-1.8705,12.9719,62.3863,-0.9239,0.1919,-0.239,274.7031
13:29:55:518,1.6856,-1.4036,13.2568,63.1252,-1.0016,0.0891,-0.3734,275.0312
13:29:55:538,1.0045,-1.4718,14.4479,62.6941,-0.8954,0.1762,-0.3838,275.3438
13:29:55:559,0.1917,-1.9447,15.341,61.0914,-0.4953,0.5064,-0.1668,275.7031
13:29:55:585,0.3317,-2.0093,13.8458,63.2605,0.0168,0.7403,0.1605,276.2344
13:29:55:604,1.7491,-1.552,10.8937,61.6768,0.3345,0.4156,0.3089,276.7344
13:29:55:621,3.267,-0.8733,8.7796,63.7629,0.3569,-0.2542,0.1464,277.0156
13:29:55:638,3.8069,-0.1826,8.399,61.2104,0.1457,-0.7463,-0.2435,276.8906
13:29:55:660,3.1138,-0.2173,9.6488,63.4356,0.0005,-0.6491,-0.5979,276.3594
13:29:55:684,1.8042,-0.8074,10.306,59.95,0.049,-0.0353,-0.725,276.4062
13:29:55:701,0.6441,-0.9547,9.1268,61.5726,0.1313,0.6407,-0.643,277.2031
13:29:55:718,0.1031,-0.6782,7.1217,61.0008,0.1414,0.997,-0.4866,277.5625
13:29:55:738,-0.1088,-0.1945,5.6612,62.0998,0.1598,0.9448,-0.3364,278.375
13:29:55:759,-0.1962,0.2556,4.7969,60.0415,0.2104,0.6002,-0.2051,279.0781
13:29:55:783,-0.0334,0.5094,4.4952,61.3949,0.257,0.1048,-0.1343,279.5938
13:29:55:799,0.133,0.7632,4.9465,61.4841,0.2711,-0.2808,-0.1311,279.9375
13:29:55:818,0.2731,0.7811,5.6564,62.3083,0.2112,-0.455,-0.1769,280.1406
13:29:55:839,0.4047,0.7189,6.7015,62.5954,0.0935,-0.4811,-0.243,280.2656
13:29:55:860,0.455,0.5752,7.8746,61.6281,-0.0434,-0.4709,-0.3157,280.3906
13:29:55:882,0.0875,0.3645,9.6045,61.4779,-0.0884,-0.3309,-0.326,280.5938
13:29:55:900,-0.2597,0.3454,10.9153,61.7492,-0.0163,-0.0614,-0.297,280.875
13:29:55:919,-0.4548,0.1311,11.6228,65.293,0.0921,0.2739,-0.2286,281.2188
13:29:55:938,-0.5374,0.0664,11.3618,63.3476,0.1297,0.5059,-0.1263,281.5781
13:29:55:959,-0.4201,0.3777,10.8506,62.4418,0.0788,0.4966,-0.0821,281.7344
13:29:55:983,-0.2968,0.3956,11.8718,61.2669,-0.0181,0.2854,-0.1058,282.1094
13:29:55:999,-0.0621,-0.0581,12.7863,62.0235,-0.0863,0.0936,-0.1545,282.2188
13:29:56:018,-0.1866,-0.1969,13.1982,60.7273,-0.1515,0.0287,-0.2413,282.3438
13:29:56:038,-0.7289,-0.41,14.4707,61.5803,-0.3121,-0.0651,-0.3399,282.5
13:29:56:058,-2.0948,-1.1654,17.0444,62.1308,-0.4756,-0.2656,-0.3892,282.7188
13:29:56:081,-3.1351,-2.3697,17.9028,62.2077,-0.2778,-0.1849,-0.2011,283.0781
13:29:56:101,-3.0405,-2.815,15.0369,60.3661,0.2764,0.2428,0.2873,283.5156
13:29:56:117,-2.0014,-2.5708,11.0134,60.8524,0.743,0.5791,0.8575,283.9062
13:29:56:138,-1.0881,-2.1171,8.6145,59.732,0.8501,0.3746,1.2325,283.8906
13:29:56:157,-0.8414,-1.3976,8.1871,61.4064,0.7007,-0.1748,1.384,283.2188
13:29:56:178,-0.4727,-0.9068,9.2956,59.9504,0.4722,-0.6909,1.4689,281.9531
13:29:56:201,0.1617,-0.9355,10.2162,59.3864,0.3968,-0.9282,1.5214,280.4844
13:29:56:218,0.1785,-1.0181,9.9241,60.3499,0.5161,-0.8654,1.5004,278.7969
13:29:56:237,-0.0154,-0.9343,8.9532,60.4934,0.6658,-0.5964,1.5171,277.0156
13:29:56:257,0.1857,-0.7165,7.8914,60.0695,0.7574,-0.2976,1.6074,274.4062
13:29:56:278,0.5903,-0.5728,6.9541,57.7178,0.8195,-0.1207,1.6649,272.5938
13:29:56:298,0.7926,-0.4723,6.2107,58.288,0.8538,-0.0688,1.6436,270.6875
13:29:56:318,0.9901,-0.3298,5.648,57.5678,0.8764,-0.1096,1.5938,268.7969
13:29:56:339,1.1015,-0.2568,5.3368,58.6766,0.8759,-0.2323,1.5092,266.8438
13:29:56:358,1.2906,-0.2161,5.1381,57.3428,0.8416,-0.3311,1.4,264.9375
13:29:56:381,1.4953,-0.1718,5.0603,57.4851,0.7505,-0.4076,1.2655,263.2188
13:29:56:401,1.548,0.076,5.6109,56.527,0.5646,-0.4891,1.0929,261.5469
13:29:56:418,1.5468,0.0413,6.9852,57.5429,0.3366,-0.5937,0.8889,260.0312
13:29:56:438,1.5073,-0.3334,8.0638,56.9682,0.1912,-0.5753,0.6718,259.3438
13:29:56:458,1.5492,-0.5297,8.217,57.9539,0.0903,-0.3226,0.4971,258.2344
13:29:56:484,1.6761,-0.6782,7.8818,56.4897,-0.0567,-0.0472,0.3517,257.3281
13:29:56:499,1.6976,-0.7093,7.9572,57.0009,-0.2975,0.0529,0.1986,256.6562
13:29:56:518,1.767,-0.8541,8.8539,56.7749,-0.6093,-0.0526,0.0417,256.1719
13:29:56:541,1.433,-0.9415,10.1264,54.4641,-0.9209,-0.1058,-0.1191,255.8906
13:29:56:557,1.2583,-1.0983,11.3846,55.6211,-1.1824,0.0183,-0.2358,255.8594
13:29:56:579,1.5228,-1.5425,12.0753,54.8909,-1.3382,0.2252,-0.3223,256.0938
13:29:56:601,1.8939,-2.0836,12.262,55.2149,-1.4365,0.4644,-0.4219,256.5
13:29:56:618,2.01,-2.0967,13.2796,54.4618,-1.5838,0.6785,-0.5303,257.0469
13:29:56:638,0.9434,-2.2763,15.5397,55.9836,-1.7175,0.7485,-0.6816,257.7188
13:29:56:658,-0.0035,-3.1502,16.3501,55.229,-1.5201,0.9592,-0.7002,258.5
13:29:56:682,0.4311,-3.8517,14.0924,53.8496,-0.4938,1.226,0.0279,259.5156
13:29:56:698,1.8832,-3.6422,11.0565,53.9314,-0.3606,0.674,0.3693,259.5156
13:29:56:718,3.3113,-2.6127,9.8882,53.8859,-0.4309,-0.1415,0.3997,260.5469
13:29:56:738,3.6513,-1.6131,10.9404,54.1431,-0.3633,-0.5671,0.2335,261.2031
13:29:56:758,3.2167,-1.2863,11.3714,54.0026,-0.1718,-0.3354,0.0628,261.0156
13:29:56:779,2.2866,-1.2336,10.1132,52.9459,-0.0328,0.2063,0.0354,260.5625
13:29:56:800,1.6042,-0.7009,7.9537,54.0388,-0.0365,0.6356,0.0945,260.2656
13:29:56:818,1.2786,-0.064,6.2251,53.0904,-0.1436,0.6976,0.1451,260.1562
13:29:56:839,1.2164,0.4687,5.8599,52.3708,-0.167,0.5253,0.1454,260.1406
13:29:56:861,1.1912,0.7632,6.1341,54.6818,-0.0455,0.2867,0.103,260.0938
13:29:56:884,1.1565,0.8158,6.3675,52.1854,0.1167,0.1472,0.0394,260.0156
13:29:56:902,1.0847,0.8517,6.2442,53.8007,0.2096,0.1664,-0.0073,259.9688
13:29:56:920,1.1146,1.0529,5.7223,52.6032,0.1792,0.1187,-0.0832,259.8906
13:29:56:938,1.0691,1.5042,5.6995,51.3974,0.0522,-0.0387,-0.2395,259.8594
13:29:56:958,1.1936,2.1171,6.3244,51.8618,-0.176,-0.2105,-0.5117,259.8906
13:29:56:986,0.9949,2.2835,7.7346,50.9072,-0.5231,-0.2555,-0.8909,259.9844
13:29:57:002,-0.687,1.6442,10.8255,50.7722,-0.7444,-0.0638,-1.0779,260.2344
13:29:57:020,-2.2564,0.3502,14.6323,52.0867,-0.4762,0.3064,-0.9026,260.8125
13:29:57:037,-2.6826,-0.7847,15.9886,48.8538,0.0991,0.5962,-0.5114,261.8125
13:29:57:058,-2.3761,-0.9056,14.5928,50.1008,0.4605,0.5419,-0.1191,263.0156
13:29:57:141,-1.118,-0.556,13.4723,50.3304,0.5236,0.3464,-0.0078,264.125
13:29:57:141,-0.0502,-0.6961,13.355,49.2486,0.4642,0.259,-0.1492,264.9688
13:29:57:141,0.0049,-1.4024,13.1706,50.0964,0.3681,0.3767,-0.2954,264.9844
13:29:57:141,-0.875,-1.983,12.3183,48.802,0.163,0.4729,-0.2896,265.0625
13:29:57:157,-1.8051,-2.2068,12.1255,49.2814,-0.0589,0.4345,-0.1276,265.3594
13:29:57:176,-2.2912,-2.7731,12.9504,49.6282,-0.0317,0.3118,0.1467,265.75
13:29:57:196,-2.5569,-3.392,13.4304,48.7261,0.3188,0.1794,0.5379,266.0469
13:29:57:221,-1.7165,-3.7355,12.1136,47.6699,0.6698,0.0657,0.8545,266.1094
13:29:57:237,-0.3243,-3.404,9.7349,48.9487,0.7004,-0.1631,0.8988,265.75
13:29:57:257,0.4502,-2.5887,8.1452,48.765,0.4125,-0.4861,0.6937,264.9688
13:29:57:277,0.3401,-1.916,8.2888,48.142,0.029,-0.7754,0.4125,263.9062
13:29:57:297,-0.0717,-1.9974,9.942,47.589,-0.1409,-0.7423,0.2015,262.9375
13:29:57:319,-1.1778,-2.1913,11.1715,46.9208,-0.0221,-0.3767,0.2199,262.2656
13:29:57:338,-2.0098,-2.4164,10.7058,47.5389,0.236,0.0702,0.4676,261.875
13:29:57:357,-2.2469,-2.4966,8.788,46.3888,0.412,0.332,0.8335,261.6094
13:29:57:378,-1.2904,-1.5508,6.0168,47.2258,0.4802,0.2763,1.201,261.2344
13:29:57:399,-0.4584,-1.1857,5.8563,47.634,0.5601,-0.0217,1.4572,260.5312
13:29:57:422,0.1162,-0.8853,5.8168,47.4507,0.6831,-0.3375,1.5864,259.375
13:29:57:437,0.6992,-0.6207,5.7318,46.1496,0.8163,-0.5556,1.6317,257.8438
13:29:57:457,1.3026,-0.3909,5.5307,46.1496,0.8586,-0.6259,1.5835,256.1406
13:29:57:477,1.5851,-0.1646,5.9485,46.3249,0.7473,-0.6475,1.4279,254.2344
13:29:57:499,1.5013,-0.0928,7.379,46.1577,0.5236,-0.7058,1.1797,252.3281
13:29:57:517,1.2319,-0.3897,8.6181,47.015,0.3593,-0.7008,0.9147,250.6094
13:29:57:537,0.9506,-0.6829,9.3028,45.6961,0.2701,-0.5631,0.6868,249.0625
13:29:57:557,0.9374,-1.1618,9.4608,45.9412,0.188,-0.3663,0.5222,247.8125
13:29:57:578,1.1122,-1.5389,9.3818,45.849,0.0511,-0.207,0.4247,246.8594
13:29:57:597,1.5815,-1.7496,9.7912,46.6274,-0.1664,-0.1817,0.3707,246.1875
13:29:57:616,1.9442,-1.9112,10.8949,46.5334,-0.4155,-0.2808,0.2979,245.6406
13:29:57:636,2.174,-2.3936,12.092,46.9886,-0.5971,-0.3594,0.1999,245.1875
13:29:57:656,2.52,-2.8653,12.0178,43.8605,-0.6552,-0.2483,0.1376,244.8281
13:29:57:676,2.599,-2.4906,11.4133,45.7919,-0.7247,0.0074,0.0921,244.4688
13:29:57:697,2.4374,-1.8585,11.6371,45.1312,-0.9028,0.1687,-0.0072,244.3594
13:29:57:717,1.8377,-1.7388,12.7361,48.9249,-1.0325,0.1594,-0.2206,244.3125
13:29:57:736,1.1565,-2.3732,13.446,44.021,-0.9747,0.1472,-0.4331,244.3906
13:29:57:757,0.6956,-2.8162,12.8881,44.8235,-0.7894,0.3397,-0.4613,244.7188
13:29:57:778,1.3002,-2.4954,11.6707,46.9026,-0.5936,0.545,-0.2746,245.2656
13:29:57:798,2.3045,-1.5963,10.6136,45.6581,-0.4514,0.5088,-0.1196,245.8906
13:29:57:818,2.6134,-0.8649,10.0929,46.5397,-0.3744,0.295,-0.1833,246.2969
13:29:57:837,2.2614,-0.568,9.644,46.2326,-0.3121,0.1461,-0.3876,246.5156
13:29:57:857,1.5085,-0.4603,8.8072,46.4084,-0.2495,0.2132,-0.595,246.625
13:29:57:877,0.7124,-0.4471,7.7346,45.0835,-0.2216,0.4396,-0.7138,246.9844
13:29:57:898,0.0995,-0.2723,6.911,45.4309,-0.2386,0.667,-0.7154,247.5781
13:29:57:916,-0.2788,0.0592,6.5686,45.4777,-0.2522,0.7538,-0.6121,248.3906
13:29:57:936,-0.4225,0.4064,6.5207,46.462,-0.1827,0.6276,-0.4507,249.2656
13:29:57:956,-0.207,0.647,6.571,45.3386,-0.0205,0.3709,-0.2765,250.1406
13:29:57:977,0.2383,0.7655,6.4501,46.9505,0.1742,0.1722,-0.125,250.5312
13:29:57:998,0.7483,0.9643,5.8851,44.5409,0.3175,0.1312,-0.0472,251.4688
13:29:58:016,1.1888,1.1714,5.7546,44.2002,0.3196,0.059,-0.0714,251.6406
13:29:58:038,1.2499,1.2264,6.8523,45.6856,0.1563,-0.113,-0.1929,251.6875
13:29:58:056,1.1003,1.0876,8.6456,45.4177,-0.0581,-0.2496,-0.3652,251.7656
13:29:58:078,0.9087,0.9655,10.5334,45.4795,-0.2458,-0.0899,-0.7061,251.9688
13:29:58:099,0.6154,0.4328,12.2716,43.5067,-0.2077,0.1821,-0.8366,251.9688
13:29:58:117,-0.0597,-0.3813,13.3023,43.3964,-0.1135,0.4478,-0.815,252.375
13:29:58:137,-0.4787,-0.9834,13.6315,42.8725,0.0096,0.5136,-0.673,252.9219
13:29:58:156,-0.4093,-1.3545,13.6626,43.8937,0.143,0.414,-0.533,254.7188
13:29:58:178,-0.1687,-1.5078,13.5872,43.4826,0.2346,0.3802,-0.4893,255.6562
13:29:58:200,-0.3626,-1.7113,13.0904,42.6733,0.2264,0.5198,-0.5015,256.5
13:29:58:218,-0.9863,-1.7687,11.8885,42.3598,0.0727,0.675,-0.4712,257.7656
13:29:58:238,-1.6303,-1.558,11.0218,43.8997,-0.179,0.5203,-0.383,258.3594
13:29:58:257,-2.2061,-1.5892,12.0058,42.6844,-0.2679,0.1448,-0.2536,258.6875
13:29:58:277,-2.9065,-2.2942,13.7716,43.0324,-0.0242,-0.1421,0.0042,259.4844
13:29:58:299,-3.256,-3.222,14.521,43.5826,0.4477,-0.1469,0.434,259.6719
13:29:58:316,-2.3546,-3.5524,12.6523,41.586,0.7433,-0.0899,0.7888,259.8281
13:29:58:337,-1.2592,-2.9503,10.0199,42.5429,0.6368,-0.2395,0.8918,259.7656
13:29:58:356,-0.687,-2.1326,9.0155,43.1577,0.331,-0.4891,0.7683,259.2344
13:29:58:376,-1.1335,-1.6514,9.8295,42.6831,0.1451,-0.5612,0.6588,258.3281
13:29:58:398,-1.7788,-1.5676,10.7561,41.8034,0.2059,-0.3503,0.7249,257.3281
13:29:58:416,-1.6818,-1.5652,10.3706,42.5909,0.391,-0.0656,0.8703,256.3906
13:29:58:436,-1.4735,-1.5365,8.7354,43.5256,0.5169,0.1133,1.0247,255.5781
13:29:58:456,-1.4364,-1.3294,7.2426,42.516,0.5752,0.1387,1.2239,254.75
13:29:58:477,-0.9803,-1.1426,6.2598,42.05,0.6392,0.0114,1.385,253.75
13:29:58:498,-0.3889,-0.8733,5.757,43.8117,0.7183,-0.1783,1.458,252.5781
13:29:58:516,0.2467,-0.6841,5.4469,42.645,0.7582,-0.3487,1.4277,251.25
13:29:58:537,0.6753,-0.4531,5.2746,42.4545,0.7065,-0.4289,1.3065,248.8125
13:29:58:558,1.0212,-0.3154,5.4266,42.2525,0.5758,-0.4339,1.1187,247.125
13:29:58:577,1.129,-0.3693,6.0658,41.9752,0.4264,-0.4022,0.8956,245.5938
13:29:58:597,0.8524,-0.495,6.8427,42.5789,0.298,-0.3405,0.7182,244.1719
13:29:58:618,0.5412,-0.5716,7.8615,42.6292,0.2413,-0.2909,0.6085,242.9844
13:29:58:637,0.3281,-0.7464,8.9173,41.672,0.2876,-0.1974,0.5589,242.0469
13:29:58:657,0.37,-0.9463,9.2741,43.6077,0.3393,-0.1205,0.5504,241.3281
13:29:58:678,0.9279,-1.0421,8.7581,43.7158,0.2453,-0.1751,0.4931,240.6562
13:29:58:701,1.5204,-0.9272,8.4505,43.1948,-0.0269,-0.4273,0.3398,240
13:29:58:717,1.9298,-0.9834,9.5242,44.5278,-0.3148,-0.708,0.1419,239.4062
13:29:58:737,2.0244,-1.4335,11.4288,42.6721,-0.4767,-0.7194,0.0138,239.1406
13:29:58:758,2.1609,-1.9519,12.9025,43.3065,-0.4972,-0.4145,-0.0086,238.7344
13:29:58:779,3.1844,-1.6143,11.8873,43.7791,-0.5803,-0.0193,-0.0589,238.5625
13:29:58:801,2.8923,-1.1761,12.6068,43.7345,-0.8003,0.1584,-0.2488,238.5625
13:29:58:819,1.6306,-1.6981,13.5573,43.2248,-0.8935,0.2074,-0.562,238.6094
13:29:58:837,0.4574,-2.4547,12.8498,43.3069,-0.7353,0.4534,-0.7021,238.8125
13:29:58:856,0.5759,-2.4547,10.9811,41.9777,-0.4887,0.7363,-0.493,239.2969
13:29:58:876,1.9538,-1.9399,9.5745,43.9149,-0.3151,0.6281,-0.1681,240.1406
13:29:58:903,2.9953,-1.1714,9.0071,45.1584,-0.2045,0.1224,-0.0597,240.9375
13:29:58:921,2.8863,-0.8158,8.909,43.4939,-0.1965,-0.3676,-0.2411,241.3594
13:29:58:937,1.8999,-0.9164,8.5786,44.1056,-0.2583,-0.4731,-0.5039,241.4844
13:29:58:956,0.8692,-1.0062,7.7142,43.4777,-0.3023,-0.2888,-0.6358,241.625
13:29:58:977,0.3557,-0.7847,6.3124,45.0113,-0.3047,-0.0558,-0.5916,242.0312
13:29:59:002,0.3892,-0.258,5.3643,44.6704,-0.3611,0.0135,-0.4651,242.6562
13:29:59:020,0.4502,0.2269,6.0407,44.4123,-0.5734,-0.0472,-0.3923,243.375
13:29:59:036,0.3832,0.349,7.3431,43.6955,-0.7449,-0.0459,-0.3758,244
13:29:59:057,0.2216,0.3717,8.1524,45.0694,-0.6738,0.0398,-0.3644,244.7188
13:29:59:077,0.3521,0.507,7.628,45.6508,-0.408,0.1781,-0.2938,245.1719
13:29:59:100,0.7519,0.8242,6.9756,44.2439,-0.1979,0.222,-0.2022,245.6406
13:29:59:118,1.2295,1.0157,7.4233,44.0236,-0.1952,0.0942,-0.191,246
13:29:59:137,1.3923,0.908,8.739,44.3752,-0.2879,-0.1074,-0.2949,246.2656
13:29:59:224,1.123,0.6387,10.1336,45.6293,-0.3462,-0.2259,-0.4603,246.5
13:29:59:224,0.6813,0.2149,11.2936,44.0897,-0.3766,-0.1655,-0.595,246.8281
13:29:59:225,0.2778,-0.1933,12.0106,43.4917,-0.3529,0.0414,-0.6336,247.3438
13:29:59:225,0.1007,-0.3454,11.8825,45.364,-0.2522,0.2817,-0.579,247.6719
13:29:59:238,0.1055,-0.428,11.3905,45.8587,-0.159,0.4114,-0.4951,248.4062
13:29:59:256,-0.14,-0.4495,11.7808,45.835,-0.1694,0.3187,-0.4318,249.1094
13:29:59:276,-0.3782,-0.683,13.2664,45.6763,-0.2381,0.0747,-0.3833,249.7969
13:29:59:296,-0.4931,-1.3569,14.7652,47.6793,-0.2136,-0.0901,-0.3346,250.375
13:29:59:320,-0.5039,-1.9555,14.661,46.8866,-0.0951,0.0846,-0.2459,250.8906
13:29:59:337,-0.6056,-1.728,13.6507,47.5155,-0.0365,0.3999,-0.1013,251.4688
13:29:59:357,-0.93,-1.3833,14.2444,44.8564,-0.0948,0.3203,0.0236,251.7656
13:29:59:377,-1.1802,-1.9291,15.8797,46.141,-0.0514,-0.0816,0.1219,251.9375
13:29:59:398,-1.027,-2.9203,15.426,46.5588,0.319,-0.1865,0.2865,251.9688
13:29:59:417,-0.5661,-3.2938,11.7114,46.5588,0.8797,0.0766,0.4881,251.8125
13:29:59:436,0.036,-3.0029,8.4181,45.883,1.0661,0.1991,0.6364,251.4375
13:29:59:456,-0.2225,-2.1554,7.804,47.1965,0.7675,-0.1237,0.6591,250.875
13:29:59:477,-0.4488,-1.6753,9.8618,46.3358,0.1779,-0.8662,0.6292,250.125
13:29:59:498,-0.2836,-1.7316,11.3391,46.3358,0.4157,-0.7263,0.6569,250.125
13:29:59:516,-0.4117,-1.7795,10.5358,48.0014,0.7119,-0.4267,0.7738,249.3281
13:29:59:536,-0.6439,-1.564,8.7246,47.1151,0.8661,-0.2169,0.9587,248.5625
13:29:59:556,-0.6032,-1.3581,7.0666,46.4437,0.8741,-0.1543,1.1376,247.7188
13:29:59:575,-0.2657,-1.0517,6.0467,46.049,0.8048,-0.2052,1.2671,245.875
13:29:59:597,0.2635,-0.7404,5.8994,48.0544,0.7832,-0.3322,1.3147,244.75
13:29:59:618,0.7998,-0.5992,6.1927,47.2487,0.8464,-0.4608,1.2652,243.375
13:29:59:635,1.1565,-0.6327,6.2849,46.0076,0.8948,-0.5021,1.152,241.1406
13:29:59:656,1.3421,-0.7859,6.316,47.5537,0.8389,-0.4281,1.0269,240.3438
13:29:59:676,1.3624,-0.9571,6.5076,46.3851,0.7039,-0.2813,0.9195,238.0781
13:29:59:696,1.3457,-1.0576,6.8511,45.9773,0.551,-0.1341,0.8293,237.3906
13:29:59:716,1.3792,-1.1714,7.3479,46.4081,0.4253,-0.0132,0.7536,236.1875
13:29:59:735,1.6246,-1.2695,7.7693,47.2018,0.3332,0.0785,0.6703,235.0625
13:29:59:756,1.9909,-1.2971,7.6316,48.1047,0.1835,0.0231,0.5102,234.0625
13:29:59:776,2.0855,-1.4479,7.7801,47.8046,-0.0685,-0.125,0.3392,233.1562
13:29:59:800,2.1908,-1.734,8.6635,45.3222,-0.3635,-0.2377,0.1869,232.4062
13:29:59:817,2.2351,-2.1039,10.13,47.9047,-0.6,-0.1967,0.07,231.8125
13:29:59:835,2.3728,-2.5432,11.4731,45.8701,-0.7193,0.0359,0.0109,231.4219
13:29:59:855,3.0024,-3.0807,11.3965,45.8352,-0.8557,0.2628,-0.0677,231.2344
13:29:59:875,3.2526,-2.742,10.7716,45.7872,-1.1276,0.1863,-0.2512,231.2031
13:29:59:896,3.018,-2.2607,11.7988,44.8778,-1.3683,0.0047,-0.5335,231.25
13:29:59:915,2.0244,-2.4714,14.2049,46.9676,-1.3457,0.2071,-0.75,231.5781
13:29:59:935,0.5089,-3.4866,15.7947,44.2279,-0.9731,0.8079,-0.6195,232.125
13:29:59:956,0.2731,-4.0887,14.0876,44.6068,-0.591,1.2686,-0.2163,233.0156
13:29:59:975,1.4558,-3.4219,10.9991,45.4763,-0.4711,1.1179,0.0785,233.9688
13:29:59:996,2.9402,-2.1757,9.1903,45.0745,-0.5268,0.4953,-0.0027,234.625
13:30:00:017,3.1018,-0.9307,9.3578,43.9169,-0.5718,-0.0307,-0.3034,234.8438
13:30:00:037,2.1393,-0.6925,10.6004,44.7836,-0.4509,0.0103,-0.533,234.875
13:30:00:055,1.0955,-0.9116,10.2377,44.8977,-0.315,0.4558,-0.5785,235.0938
13:30:00:075,0.1593,-0.7524,8.6432,43.9262,-0.2762,0.7893,-0.468,235.6094
13:30:00:096,-0.5398,-0.2771,7.4964,44.0252,-0.2221,0.7341,-0.2773,236.3125
13:30:00:116,-0.7373,0.0413,7.4281,43.6757,-0.0304,0.5152,-0.0605,237
13:30:00:137,-0.4524,0.1454,7.2545,42.9704,0.2152,0.3229,0.1568,237.5625
13:30:00:156,-0.037,0.416,6.7302,43.5325,0.3819,0.1429,0.343,237.8594
13:30:00:177,0.4945,0.8577,6.3627,42.9016,0.4621,-0.0765,0.4348,237.8594
13:30:00:198,1.6078,1.4766,7.1336,43.0469,0.453,-0.3421,0.3925,237.7656
13:30:00:217,1.6641,1.4599,8.2876,42.3801,0.404,-0.5402,0.2519,237.1406
13:30:00:236,1.2152,1.3928,9.3962,42.1945,0.3595,-0.623,0.0673,236.6094
13:30:00:255,0.6023,1.224,10.7848,44.141,0.3001,-0.5423,-0.0861,236.1875
13:30:00:275,0.2898,1.0098,11.9268,42.973,0.2711,-0.2693,-0.1647,235.9219
13:30:00:296,-0.1543,0.5644,11.8335,42.3858,0.3441,0.1275,-0.2275,235.8438
13:30:00:318,-0.9085,0.0976,11.0506,42.7348,0.4107,0.4271,-0.2808,235.9375
13:30:00:336,-1.6423,-0.4663,10.9213,41.6555,0.3462,0.5136,-0.2533,236.1406
13:30:00:355,-2.0434,-1.0505,11.6814,40.6308,0.2165,0.4236,-0.1774,236.4531
13:30:00:375,-2.2804,-1.4742,12.4536,42.938,0.1345,0.2947,-0.0829,236.8125
13:30:00:395,-2.4539,-1.6478,12.784,41.1164,0.0671,0.1951,0.0263,237.0781
13:30:00:416,-2.6491,-1.7496,14.0421,42.5563,-0.0874,0.0657,0.1552,237.2656
13:30:00:436,-2.7987,-2.0105,16.2759,42.2539,-0.1862,-0.1045,0.3355,237.3281
13:30:00:457,-2.5354,-2.4367,16.659,41.7973,0.0754,-0.1016,0.5938,237.2344
13:30:00:475,-1.8865,-2.4523,13.7273,40.9309,0.6163,0.2271,0.9006,236.7344
13:30:00:495,-0.8798,-1.9459,10.0977,40.2715,0.9398,0.4819,1.1872,236.0469
13:30:00:516,-0.0873,-1.1067,8.0973,42.0939,0.8509,0.3067,1.3294,235.0781
13:30:00:535,0.3174,-0.4507,8.958,40.2727,0.4693,-0.2299,1.3025,233.75
13:30:00:555,0.7854,-0.3609,10.9213,41.6499,0.138,-0.6872,1.1888,232.25
13:30:00:575,0.4323,-0.5333,11.6455,41.3189,0.1065,-0.7277,1.0263,231.4844
13:30:00:596,-0.0837,-0.6698,10.9404,40.014,0.2884,-0.4092,0.955,230.0781
13:30:00:617,-0.1376,-0.7883,9.4057,40.8403,0.5329,0.0151,1.0229,228.7656
13:30:00:641,-0.0921,-0.6626,7.6161,41.4061,0.7563,0.3999,1.1267,227.6094
13:30:00:656,0.0935,-0.6638,6.1784,42.2631,0.9199,0.6329,1.2388,226.5156
13:30:00:677,0.5077,-0.665,4.6257,40.5407,1.0703,0.6124,1.347,224.6406
13:30:00:702,0.9422,-0.3513,3.2514,41.2167,1.1185,0.3738,1.4045,223.25
13:30:00:719,1.354,0.1179,2.9689,40.7443,0.9308,0.0228,1.3797,221.7969
13:30:00:735,1.4319,0.3789,4.5264,41.45,0.5654,-0.3668,1.2508,220.2031
13:30:00:755,1.0967,0.4771,6.7625,42.4156,0.2575,-0.6044,1.0721,218.6406
13:30:00:777,0.6669,0.3514,8.4816,41.1131,0.1537,-0.6246,0.9145,217.2812
13:30:00:802,0.3592,0.3442,9.2346,42.0725,0.1806,-0.4326,0.8279,216.0469
13:30:00:818,0.7423,0.7931,8.9496,41.6587,0.2288,-0.121,0.8279,215
13:30:00:836,1.3445,1.1426,8.6528,40.8933,0.2035,-0.0084,0.7536,214.0625
13:30:00:856,1.5647,1.2875,8.9042,40.7339,0.0751,-0.1474,0.515,213.1562
13:30:00:876,1.5803,0.8865,10.2114,41.0007,-0.1539,-0.3615,0.2258,212.2812
13:30:00:897,1.0093,0.0988,11.9855,42.1683,-0.5028,-0.1245,-0.1146,211.7031
13:30:00:918,0.7962,-0.5956,12.8199,42.1204,-0.453,0.2814,-0.0248,211.7031
13:30:00:937,1.6856,-0.8876,11.7449,42.803,-0.4389,0.3221,-0.0406,211.4531
13:30:00:956,2.5727,-0.5908,10.95,41.9755,-0.5792,0.0856,-0.3231,211.6562
13:30:00:977,2.8313,-0.5477,11.6335,42.8405,-0.8035,-0.1423,-0.8073,211.6875
13:30:01:001,2.0531,-1.503,13.683,41.1045,-0.8208,0.1075,-1.1657,211.6875
13:30:01:021,0.6884,-2.6989,14.2384,42.2221,-0.624,0.6505,-1.1745,212.1406
13:30:01:035,0.1809,-3.1562,12.2919,42.4156,-0.4487,0.9874,-0.9354,213.0625
13:30:01:055,0.54,-2.621,9.389,41.3551,-0.5715,0.777,-0.7572,214.3594
13:30:01:077,0.8381,-1.5748,8.5534,42.0202,-0.8053,0.2526,-0.7167,215.75
13:30:01:103,0.9183,-0.9152,9.8247,43.4263,-0.8051,-0.0744,-0.7354,216.8594
13:30:01:119,0.449,-0.7512,10.7166,42.941,-0.5808,-0.0246,-0.6941,217.7188
13:30:01:137,-0.2944,-0.7632,9.9959,42.681,-0.3681,0.2321,-0.4858,218.5469
13:30:01:156,-0.7457,-0.4328,8.7066,43.5625,-0.249,0.3967,-0.1748,219.3906
13:30:01:176,-0.5362,0.3442,7.725,41.8043,-0.155,0.3573,0.0625,220.1719
13:30:01:196,-0.0442,0.9379,7.3072,44.3066,-0.0234,0.2425,0.1632,220.7188
13:30:01:217,0.2934,1.2947,6.899,43.7258,0.0847,0.1429,0.1733,220.9531
13:30:01:236,0.4071,1.5245,6.6488,43.7755,0.1353,0.1099,0.1363,220.9062
13:30:01:304,0.3221,1.5209,6.6141,43.1944,0.1225,0.1043,0.1041,220.6562
13:30:01:305,0.2156,1.6191,6.838,43.056,0.0533,0.0697,0.0902,220.4844
13:30:01:305,0.4011,1.7184,7.7083,44.0127,0.0016,0.0034,0.0375,220.3594
13:30:01:325,0.6094,1.8094,8.9772,44.59,0.0463,-0.0483,-0.0842,220.2656
13:30:01:338,0.4921,1.8992,10.1491,44.8068,0.1902,-0.0888,-0.2368,220.1875
13:30:01:360,-0.0693,1.6478,11.0625,44.46,0.387,-0.0435,-0.321,220.2031
13:30:01:374,-0.7409,1.1929,11.454,44.8011,0.5894,0.1565,-0.2741,220.375
13:30:01:395,-1.0162,0.8805,10.6531,43.9913,0.653,0.3349,-0.1623,220.7188
13:30:01:418,-0.851,0.9547,9.9049,46.7331,0.531,0.3363,-0.0674,221.0781
13:30:01:437,-0.5386,1.0517,10.0737,46.7331,0.3425,0.1344,-0.0406,221.3594
13:30:01:455,-0.675,0.7045,11.4659,45.9156,0.2245,-0.1261,0.0175,221.5156
13:30:01:476,-1.1874,0.2364,13.3909,45.6761,0.3143,-0.2233,0.25,221.5469
13:30:01:496,-1.2664,0.2963,14.1127,45.4966,0.4543,-0.1689,0.5885,221.6094
13:30:01:516,-0.7517,1.3258,13.8542,47.9273,0.408,-0.0233,0.837,221.5938
13:30:01:536,0.6549,2.6043,13.932,47.0524,0.257,0.047,0.6908,221.3125
13:30:01:567,1.3289,2.6318,14.8346,46.8365,0.3292,-0.1255,0.2109,220.1875
13:30:01:574,-0.4919,1.5509,15.3206,48.8746,0.7068,-0.3274,-0.027,219.2969
13:30:01:595,-2.1092,-0.2915,14.1953,48.9411,1.1012,-0.3253,0.1664,218.7812
13:30:01:621,-2.0888,-0.8206,9.4429,47.8841,1.2179,-0.1876,0.5834,218.75
13:30:01:636,-1.2449,0.2412,8.5067,47.1864,0.9718,-0.2046,0.9067,218.7188
13:30:01:657,-0.2345,0.8134,9.0322,46.5693,0.6091,-0.3801,0.9973,218.3438
13:30:01:675,0.3928,0.6303,9.4824,48.8485,0.3899,-0.5202,0.9246,217.4688
13:30:01:695,0.382,0.501,9.0933,47.844,0.3909,-0.4856,0.8154,216.3594
13:30:01:717,0.224,0.3609,7.7741,49.3386,0.5531,-0.3407,0.7603,215.3125
13:30:01:734,0.2671,0.2376,6.3112,47.0783,0.7159,-0.1817,0.7683,214.3438
13:30:01:754,0.303,0.3681,5.1465,47.8737,0.7585,-0.0228,0.8064,213.4531
13:30:01:776,0.3185,0.6578,4.4485,47.9784,0.6647,0.1096,0.8463,212.5938
13:30:01:794,0.3269,0.9703,4.494,48.933,0.4754,0.1703,0.8404,211.7344
13:30:01:820,0.3233,1.2085,5.0495,48.3387,0.2844,0.2002,0.8165,210.7656
13:30:01:836,0.4059,1.4695,5.8049,49.4468,0.1686,0.1815,0.8314,209.7812
13:30:01:854,0.6238,1.7687,6.4369,48.9562,0.1712,0.0729,0.919,208.3906
13:30:01:875,1.2212,2.2966,7.379,47.8266,0.2224,-0.1378,1.0311,207.4219
13:30:01:895,2.016,2.912,7.9441,49.6923,0.302,-0.2749,1.0732,206.3594
13:30:01:917,2.5894,3.4471,7.7729,48.0959,0.3561,-0.2614,0.8897,205.2344
13:30:01:936,2.526,3.3585,7.798,48.341,0.2514,-0.3122,0.4572,204.0312
13:30:01:955,1.8185,2.6007,8.7078,48.1125,-0.0213,-0.4374,-0.0597,203.0312
13:30:01:975,0.8764,1.4563,10.7645,49.403,-0.396,-0.537,-0.4222,202.7031
13:30:01:995,0.0205,0.6219,13.0377,48.6866,-0.657,-0.4297,-0.4861,202.5312
13:30:02:018,0.4143,0.2448,13.7093,48.9749,-0.6216,-0.1093,-0.2469,202.8906
13:30:02:035,1.8867,0.4735,12.2249,49.2061,-0.3819,0.1895,0.0926,203.5156
13:30:02:055,2.951,1.3665,11.5713,48.1943,-0.3217,0.1695,0.2268,204.0156
13:30:02:075,3.4968,1.5712,12.3506,47.991,-0.4149,-0.0494,0.0729,204.0938
13:30:02:097,2.8336,0.8517,12.7433,48.5795,-0.4131,-0.1516,-0.3047,203.875
13:30:02:118,2.0783,-0.0868,12.2489,47.827,-0.3044,-0.0233,-0.5692,203.6875
13:30:02:136,1.7575,-0.6147,11.7126,49.2635,-0.3116,0.1871,-0.5956,204.0625
13:30:02:156,2.0687,-0.4938,11.5809,47.3813,-0.3745,0.2537,-0.4536,204.7344
13:30:02:176,2.6086,0.0425,11.7999,48.9699,-0.3766,0.0761,-0.3204,205.375
13:30:02:196,2.8444,0.4938,11.7137,48.475,-0.2863,-0.1335,-0.3223,205.9062
13:30:02:218,2.5272,0.7548,10.458,47.3248,-0.1337,-0.0419,-0.4193,206.2812
13:30:02:235,1.9191,0.9918,8.5881,46.443,-0.008,0.2918,-0.5223,206.6562
13:30:02:255,1.463,1.0553,6.4716,47.9517,0.0463,0.6415,-0.578,207.125
13:30:02:275,0.9422,1.2109,4.8999,47.5209,0.0152,0.7845,-0.5804,207.7031
13:30:02:298,0.7292,1.5078,4.0978,46.447,-0.1569,0.4345,-0.3439,208.3438
13:30:02:316,0.6729,2.0105,4.0762,45.925,-0.1984,0.0683,-0.2235,208.9531
13:30:02:335,0.6609,2.5528,4.6125,45.7817,-0.1835,-0.2654,-0.1633,208.9531
13:30:02:355,0.8692,2.8832,5.2686,46.7052,-0.196,-0.4302,-0.1801,209.875
13:30:02:376,0.941,3.1262,6.2765,47.0001,-0.2692,-0.3807,-0.2451,210.3125
13:30:02:395,0.8201,3.4806,7.7645,46.1827,-0.3209,-0.1466,-0.3375,210.3125
13:30:02:420,0.8381,3.5751,9.2465,45.65,-0.2961,0.1783,-0.4571,210.5312
13:30:02:436,0.5843,3.489,10.2114,46.7438,-0.1859,0.4329,-0.5402,210.8125
13:30:02:454,0.1162,3.307,10.5226,46.1188,-0.0639,0.4937,-0.5207,211.1875
13:30:02:476,-0.3734,3.0281,10.8411,45.0953,0.0506,0.3394,-0.4017,212.3281
13:30:02:496,-0.5015,2.9072,11.2876,45.4618,0.1478,0.1173,-0.2397,212.3281
13:30:02:518,-0.2728,2.8677,11.9675,44.266,0.171,-0.0414,-0.1186,212.8906
13:30:02:536,0.1917,2.791,13.0976,43.8531,0.1422,0.0564,-0.0858,213.3438
13:30:02:554,0.5975,2.5887,13.6519,44.741,0.0668,0.3874,-0.1559,213.6094
13:30:02:575,0.3233,2.4738,13.4053,43.3379,-0.0993,0.6036,-0.2533,213.75
13:30:02:594,-0.3291,2.2188,13.3203,44.1294,-0.2354,0.5376,-0.2842,213.8438
13:30:02:620,-0.9695,1.5173,13.9284,44.4318,-0.1803,0.1882,-0.2046,214.0156
13:30:02:638,-1.8123,0.6434,14.9256,42.3583,0.179,-0.0094,0.0732,214.2969
13:30:02:654,-1.95,-0.1275,14.2396,43.2986,0.6679,0.1083,0.4625,214.5938
13:30:02:674,-1.3562,-0.155,11.1044,42.9821,0.8413,0.1277,0.752,214.7344
13:30:02:695,-0.468,0.2999,8.0075,43.3424,0.5721,-0.2249,0.8439,214.5312
13:30:02:715,0.0863,0.8506,7.2043,41.4972,0.1284,-0.6877,0.7952,213.8594
13:30:02:736,0.218,1.2276,8.6552,40.0253,-0.1204,-0.8494,0.7414,212.9375
13:30:02:756,0.7639,0.9774,10.1372,40.1507,-0.0359,-0.6086,0.6876,212.0156
13:30:02:775,0.8668,0.7476,9.6643,42.7503,0.1795,-0.1317,0.6684,211.2188
13:30:02:795,0.5556,0.7799,7.6987,42.4022,0.3065,0.2609,0.7137,210.4219
13:30:02:817,0.6346,0.8051,5.3931,41.7856,0.2674,0.271,0.7382,209.6719
13:30:02:836,0.6597,0.999,3.9338,40.9726,0.0525,0.0564,0.7105,208.8906
13:30:02:854,0.4766,1.2612,3.832,40.7315,-0.1811,-0.1516,0.6881,208.0625
13:30:02:875,0.4383,1.3019,4.7706,40.2116,-0.2674,-0.3194,0.6713,207.2344
13:30:02:896,0.6418,1.2312,5.6887,40.8988,-0.2487,-0.4371,0.6375,206.4375
13:30:02:918,0.9195,1.2528,6.2837,38.9724,-0.2541,-0.492,0.5717,205.7031
13:30:02:937,1.2439,1.3306,7.0391,39.0372,-0.3156,-0.512,0.4545,204.9688
13:30:02:955,1.4869,1.4108,8.0889,39.1173,-0.3622,-0.4638,0.2798,204.625
13:30:02:975,1.2391,1.26,9.0646,39.4946,-0.3662,-0.3338,0.1081,204.2969
13:30:02:996,0.7112,0.6925,9.7457,38.1638,-0.383,-0.1649,0.0037,203.3594
13:30:03:019,0.7866,0.4663,9.9061,37.2066,-0.481,-0.0321,-0.0584,203.1562
13:30:03:037,1.111,0.2855,10.6483,37.2658,-0.6749,0.0404,-0.1085,203.125
13:30:03:055,1.4881,-0.0293,11.9268,38.3737,-0.8903,0.0646,-0.1761,203.1719
13:30:03:074,1.53,-0.6099,13.1946,37.0258,-1.0123,0.059,-0.2613,203.2969
13:30:03:095,1.8496,-1.0014,12.9575,38.6556,-0.9806,0.1869,-0.281,203.4844
13:30:03:118,2.5212,-0.7955,12.6595,38.1212,-1.0016,0.2596,-0.2933,203.75
13:30:03:137,3.0396,-0.6458,14.1331,37.278,-1.2783,0.2497,-0.4722,204.1094
13:30:03:154,1.3852,-1.072,17.5029,38.5175,-1.6693,0.3935,-0.8832,204.4688
13:30:03:177,-0.4368,-2.1805,19.4865,35.9032,-1.6248,0.8351,-1.1324,204.9062
13:30:03:193,-0.8881,-2.8617,17.1043,37.6336,-0.9707,1.3882,-0.9316,205.6875
13:30:03:217,0.1174,-2.3589,13.2173,37.6566,-0.2533,1.614,-0.4251,206.9844
13:30:03:235,1.5935,-1.1654,11.0757,37.0029,0.1286,1.2116,0.0441,208.3281
13:30:03:259,2.01,-0.1071,10.6806,37.5694,0.3286,0.459,0.1627,209.25
13:30:03:276,1.3852,0.1742,9.8822,34.8108,0.6227,-0.1005,0.0226,209.5625
13:30:03:294,0.7794,0.0904,8.053,36.2146,0.9875,-0.2888,-0.0752,209.4219
13:30:03:319,0.7136,0.1897,5.8611,36.8367,1.2216,-0.2196,-0.0443,209.4062
13:30:03:378,0.8405,0.6183,4.2678,35.9508,1.2152,-0.1048,0.0244,209.5
13:30:03:379,1.0895,1.2097,3.7435,35.9055,1.0045,-0.0683,0.0519,209.5781
13:30:03:379,1.2499,1.722,4.1014,35.8356,0.7254,-0.047,-0.0043,209.5781
13:30:03:394,1.0691,1.9543,4.694,35.8356,0.5286,-0.0052,-0.1258,209.5625
13:30:03:421,0.534,1.9339,5.2638,37.3798,0.4272,0.0446,-0.2568,209.5312
13:30:03:434,0.1402,1.8585,5.9904,35.9347,0.3454,0.116,-0.3106,209.6094
13:30:03:453,-0.0633,1.971,6.7518,36.5196,0.2823,0.1789,-0.2587,209.8438
13:30:03:474,-0.0789,2.4415,7.7669,36.9633,0.1902,0.1863,-0.1814,210.1875
13:30:03:495,-0.0849,2.912,9.2633,36.4166,0.0975,0.1488,-0.1545,210.5312
13:30:03:518,-0.4596,2.9479,11.0446,35.8647,0.1009,0.0558,-0.2336,210.7812
13:30:03:535,-0.7385,2.6378,11.3762,35.8867,0.2906,0.0324,-0.3061,211.0625
13:30:03:554,-0.8702,2.6055,10.871,35.524,0.4426,0.0795,-0.2986,211.3281
13:30:03:574,-1.1611,2.4906,11.5605,35.8979,0.3412,0.0659,-0.2762,211.6719
13:30:03:594,-1.4783,2.2104,13.033,33.503,0.2232,-0.1519,-0.2134,212.0312
13:30:03:619,-1.4113,2.1302,13.5741,34.6854,0.2892,-0.4153,-0.1154,212.3594
13:30:03:634,-1.2102,2.0728,13.7009,33.8202,0.2897,-0.4947,-0.0706,212.6094
13:30:03:655,-0.9899,1.7268,15.5972,35.6146,-0.0024,-0.467,-0.0906,212.75
13:30:03:674,-0.2992,0.6758,17.8178,36.8595,-0.2109,-0.3159,-0.0693,212.8438
13:30:03:695,-0.1771,-0.4914,16.629,34.9201,0.1409,0.0572,-0.0001,212.9531
13:30:03:718,-0.3662,-1.1163,12.1794,34.507,1.2674,0.8537,0.5294,213.0312
13:30:03:734,0.0205,-0.896,7.3048,34.3833,1.1537,0.5773,0.7872,213.0312
13:30:03:754,0.716,0.0233,4.494,34.6429,0.5358,-0.0446,0.8103,213.0312
13:30:03:776,1.4594,0.9008,5.0627,35.8659,-0.1987,-0.5538,0.6434,212.7969
13:30:03:794,2.1094,1.0421,8.1033,33.6538,-0.5422,-0.5972,0.3616,211.3438
13:30:03:819,1.8425,0.58,10.6136,33.0399,-0.3784,-0.2395,0.1169,210.4375
13:30:03:837,0.8345,0.2903,10.3718,35.047,-0.0498,0.2705,0.0961,209.7344
13:30:03:853,0.2359,0.2831,8.2517,34.5304,0.0908,0.5538,0.2178,209.3594
13:30:03:873,0.133,0.5501,6.5435,35.5156,0.0866,0.5853,0.3224,209.2344
13:30:03:894,0.2012,0.7632,5.4649,36.2038,0.0314,0.5048,0.3547,209.1094
13:30:03:920,0.1773,0.9894,4.9693,35.3929,-0.0418,0.438,0.3667,208.8594
13:30:03:942,0.0779,1.1115,4.6329,35.8331,-0.1364,0.3594,0.3752,208.4688
13:30:03:958,-0.1435,1.2851,4.4857,34.5021,-0.2653,0.2023,0.4015,208.0312
13:30:03:974,-0.383,1.4886,4.9825,36.1156,-0.3814,0.0313,0.4492,207.5938
13:30:03:993,-0.4991,1.5868,6,34.4554,-0.4365,-0.15,0.5027,207.1562
13:30:04:013,-0.2082,1.7077,7.3228,35.3325,-0.4139,-0.2827,0.5139,206.6719
13:30:04:037,0.2168,1.825,8.4911,35.5841,-0.3419,-0.3335,0.4471,206.1406
13:30:04:053,0.9099,1.8154,9.0981,36.089,-0.3534,-0.4014,0.2686,205.5938
13:30:04:074,1.3229,1.6311,9.8163,33.6979,-0.5057,-0.4315,0.0101,204.9844
13:30:04:093,0.9326,1.2073,11.0709,35.3097,-0.6738,-0.2949,-0.1828,204.2812
13:30:04:115,0.4969,0.501,12.28,34.2308,-0.7521,-0.0741,-0.236,204.1406
13:30:04:135,0.3161,-0.1981,12.8295,35.7255,-0.7316,0.1293,-0.1465,204.2344
13:30:04:153,0.7172,-0.6279,12.5074,34.6331,-0.6522,0.1786,-0.0094,204.4844
13:30:04:174,1.4725,-0.7356,11.3869,35.2636,-0.5939,-0.0776,0.0125,204.6875
13:30:04:194,1.9993,-0.5477,10.282,34.4464,-0.6551,-0.582,-0.1212,204.75
13:30:04:220,2.4542,-0.5453,10.3467,35.855,-0.927,-0.9639,-0.4262,204.7188
13:30:04:241,2.0879,-0.9523,12.4176,34.0827,-1.1476,-0.7104,-0.668,204.7344
13:30:04:263,1.287,-1.7124,14.4551,34.7659,-0.9926,0.0164,-0.6624,204.9844
13:30:04:277,0.9015,-2.0333,13.3849,35.0429,-0.6205,0.5645,-0.4642,205.5938
13:30:04:296,1.5899,-1.7089,10.1336,35.2774,-0.482,0.3834,-0.3508,206.375
13:30:04:321,2.3668,-1.0888,8.3391,36.3954,-0.5744,-0.2417,-0.4243,206.7344
13:30:04:337,2.4314,-0.6411,9.0454,34.7078,-0.55,-0.7546,-0.5865,207.2812
13:30:04:357,1.8461,-0.5908,9.9397,35.3377,-0.2953,-0.8773,-0.696,207.7031
13:30:04:374,1.1146,-0.6159,9.213,33.9193,-0.0557,-0.7442,-0.6786,208.1562
13:30:04:396,0.7256,-0.3932,7.5311,35.2681,-0.0714,-0.476,-0.6107,209.0938
13:30:04:423,1.4139,0.6973,6.5327,34.8314,-0.2703,-0.2345,-0.5857,209.8281
13:30:04:439,1.2822,1.1654,7.4341,34.8512,-0.478,-0.0241,-0.6864,210.5
13:30:04:455,0.8153,1.1438,7.8004,34.9336,-0.5025,0.2199,-0.8022,211.1094
13:30:04:478,0.224,1.1103,7.5826,34.23,-0.3686,0.3802,-0.84,211.8281
13:30:04:492,-0.128,1.1367,7.8914,34.6498,-0.2911,0.4036,-0.7804,212.7188
13:30:04:515,-0.1663,1.1474,8.885,33.1766,-0.2802,0.3003,-0.6715,213.6719
13:30:04:535,-0.122,1.1187,9.9971,34.9277,-0.2466,0.1496,-0.5868,214.6562
13:30:04:553,-0.0274,1.1091,11.3211,34.1322,-0.2107,0.05,-0.5311,215.5469
13:30:04:573,-0.0394,0.8338,12.6451,32.9315,-0.1593,0.0835,-0.5061,216.2969
13:30:04:593,-0.1591,0.4519,12.9168,31.8159,-0.0242,0.255,-0.4667,216.9062
13:30:04:614,-0.2848,0.1466,12.7349,33.5916,0.1044,0.3834,-0.3657,217.5156
13:30:04:635,0.0133,-0.1083,13.0964,33.2967,0.1675,0.303,-0.2144,218.0938
13:30:04:655,0.6202,-0.3789,13.6471,33.323,0.2245,0.1003,-0.0896,218.5938
13:30:04:673,1.0823,-0.5716,13.434,32.8219,0.3065,-0.0576,-0.0576,219.0781
13:30:04:694,0.9865,-0.4208,13.2221,33.9526,0.2623,-0.1508,-0.1242,219.1875
13:30:04:719,0.5963,-0.6554,14.6107,33.8645,0.0186,-0.3002,-0.2259,219.25
13:30:04:736,-0.1411,-1.3557,16.6578,34.148,-0.142,-0.3288,-0.2717,219.3594
13:30:04:754,-0.687,-2.25,16.5955,34.6929,0.1193,-0.0733,-0.142,219.5938
13:30:04:778,-0.1483,-2.7599,12.8749,34.3062,0.7555,0.3823,0.1989,219.7344
13:30:04:793,0.6896,-2.4415,8.5714,34.3845,1.2022,0.5757,0.5424,219.9688
13:30:04:814,1.0224,-1.4647,6.334,34.3132,1.1657,0.197,0.7155,219.9531
13:30:04:834,0.9985,-0.5141,7.0415,36.4189,0.7779,-0.4971,0.7227,219.5469
13:30:04:857,1.111,-0.5165,9.1891,37.1052,0.3931,-0.9703,0.6402,218.8438
13:30:04:873,0.7351,-0.7224,9.7984,36.4095,0.3286,-0.9458,0.5326,217.9844
13:30:04:894,0.2826,-0.6734,8.5546,36.2552,0.4634,-0.5951,0.5121,217.125
13:30:04:913,0.0408,-0.5046,7.0199,37.139,0.4898,-0.1823,0.5877,216.3906
13:30:04:937,-0.019,-0.2963,6.2801,36.825,0.3742,0.0667,0.6748,215.4688
13:30:04:954,0.1737,-0.1694,6.0622,36.9122,0.2961,0.1195,0.7659,214.7656
13:30:04:974,0.4203,-0.0317,6.152,37.1291,0.3124,0.0137,0.8295,214.0156
13:30:04:994,0.5328,0.0616,6.2538,36.9847,0.404,-0.1405,0.8623,213.125
13:30:05:015,0.7818,0.2113,6.3783,38.1025,0.4938,-0.3013,0.878,212.1562
13:30:05:036,1.0823,0.4483,6.583,37.2835,0.5119,-0.3998,0.8697,211.1562
13:30:05:056,1.439,0.6889,7.1145,39.4375,0.4306,-0.3974,0.8154,210.1719
13:30:05:075,1.7587,0.8122,7.8711,38.4213,0.2911,-0.3314,0.7121,209.1406
13:30:05:095,1.8065,0.8254,8.3667,38.2177,0.1782,-0.2022,0.5496,208.1719
13:30:05:119,1.5959,0.6853,8.8479,38.3016,-0.0541,-0.0273,0.2106,207.375
13:30:05:137,1.6174,0.1299,9.5877,37.9238,-0.1742,-0.0544,0.1014,207.375
13:30:05:154,1.694,-0.507,10.4795,40.3568,-0.3119,-0.0848,0.0292,206.7344
13:30:05:173,1.7323,-1.0301,11.4217,39.4268,-0.44,-0.1053,-0.0358,206.3125
13:30:05:194,1.8568,-1.6861,12.365,39.9051,-0.5438,0.0215,-0.0869,206.0938
13:30:05:214,2.1836,-2.2835,12.2536,41.2053,-0.7276,0.3565,-0.1902,205.9844
13:30:05:236,1.9322,-2.1865,11.6024,39.4778,-1.0757,0.6194,-0.3455,206.0312
13:30:05:255,0.965,-1.9974,12.6044,41.7756,-1.2703,0.7528,-0.4174,206.1562
13:30:05:273,0.3185,-2.3481,14.4443,42.0328,-1.0799,1.0851,-0.3263,206.4375
13:30:05:293,0.1019,-2.706,14.1762,39.4631,-0.7199,1.4228,-0.0464,206.9219
13:30:05:312,0.8537,-2.5385,12.1615,40.5501,-0.4282,1.3887,0.2772,207.4844
13:30:05:337,2.4135,-1.8836,9.8499,42.9529,-0.2698,0.814,0.4021,207.9844
13:30:05:356,3.6477,-0.7632,8.5809,41.9999,-0.2527,-0.0158,0.2167,208.1719
13:30:05:374,3.7973,0.0712,8.733,41.8273,-0.3167,-0.5389,-0.1609,207.9688
13:30:05:448,3.2467,0.246,9.5003,41.8273,-0.3396,-0.4241,-0.5197,207.6094
13:30:05:448,2.3512,-0.1131,9.4979,41.492,-0.2794,0.0079,-0.7279,207.3594
13:30:05:449,1.2128,-0.2831,8.4098,41.261,-0.2053,0.4103,-0.7263,207.4844
13:30:05:452,0.4131,0.0018,6.917,42.1092,-0.176,0.5147,-0.5913,208
13:30:05:472,0.3485,0.5513,6.3053,41.4491,-0.1577,0.4305,-0.4584,208.8438
13:30:05:495,0.8034,0.9679,6.3699,39.8786,-0.0975,0.3568,-0.4318,210.7188
13:30:05:517,1.1003,1.2504,6.4645,43.2018,-0.0293,0.3504,-0.4994,210.7188
13:30:05:535,0.7998,1.3234,6.152,42.7067,-0.0533,0.3056,-0.5846,211.25
13:30:05:552,0.2371,1.0972,6.2298,42.6473,-0.1979,0.1863,-0.5777,211.8125
13:30:05:578,-0.3698,0.7655,7.6963,41.2492,-0.3111,0.1565,-0.4398,212.4531
13:30:05:593,-0.9684,0.4711,9.5159,41.6676,-0.2418,0.1466,-0.1929,213.1562
13:30:05:618,-0.9648,0.4423,10.9656,41.4915,-0.0293,0.0167,0.0703,213.7812
13:30:05:648,-0.1352,0.3502,11.9149,42.1341,0.2181,-0.1287,0.2199,214.1562
13:30:05:653,0.5113,0.3478,12.2094,42.0993,0.3579,-0.2086,0.2226,214.2344
13:30:05:673,0.7208,0.3621,12.3434,42.9564,0.3486,-0.2097,0.1461,214.0312
13:30:05:694,0.5831,0.0736,12.7852,40.9795,0.2922,-0.1665,0.0753,213.75
13:30:05:720,0.5005,-0.392,13.5477,43.6891,0.2871,-0.0744,0.0639,213.5156
13:30:05:736,0.8824,-0.6566,13.6483,42.9731,0.2764,0.0337,0.0255,213.3906
13:30:05:753,1.135,-0.5094,13.1335,42.8351,0.1848,0.0042,-0.1234,213.2969
13:30:05:773,0.6609,-0.3729,13.4268,42.7808,0.1151,-0.1367,-0.2933,213.2656
13:30:05:793,-0.377,-0.9092,14.2875,41.7221,0.2701,-0.1109,-0.2864,213.25
13:30:05:814,-1.2856,-2.1015,11.9268,41.115,0.6309,0.0697,-0.0288,213.5312
13:30:05:836,-0.2345,-1.8693,9.2429,39.8199,0.8706,0.1365,0.2862,213.875
13:30:05:853,0.9362,-1.2456,8.1967,43.4522,0.7718,-0.1836,0.445,214.0781
13:30:05:874,1.5587,-0.6207,9.7457,41.6621,0.4285,-0.7296,0.3917,213.9375
13:30:05:893,1.4953,-0.72,11.4863,41.6738,0.1971,-1.0116,0.1664,213.5
13:30:05:914,0.5987,-1.0385,11.1571,42.2513,0.2772,-0.7226,-0.0512,212.9844
13:30:05:937,-0.1687,-1.0888,8.7222,40.8121,0.4621,-0.0963,-0.0674,212.5781
13:30:05:953,-0.3411,-0.829,6.5925,41.1986,0.5023,0.3916,0.0886,212.4688
13:30:05:976,-0.0609,-0.4076,6.0012,40.8432,0.4048,0.4518,0.2945,212.5469
13:30:05:992,0.3401,0.0114,6.2681,40.456,0.3475,0.2215,0.4607,212.5469
13:30:06:012,0.5448,0.1694,6.2873,40.5305,0.4432,-0.0608,0.5395,212.3438
13:30:06:036,0.5915,0.2149,6.1053,40.3185,0.5819,-0.3199,0.5627,211.9062
13:30:06:054,0.8477,0.3083,6.0299,40.4813,0.5971,-0.4086,0.589,211.3594
13:30:06:072,1.1098,0.501,6.5351,39.3638,0.4613,-0.3503,0.5794,210.7031
13:30:06:096,1.1793,0.6961,7.3396,39.3631,0.2775,-0.2337,0.5224,209.6719
13:30:06:120,1.0368,0.7811,8.1404,39.8516,0.1595,-0.1607,0.4298,209.0312
13:30:06:138,0.8991,0.7117,8.6468,38.9042,0.1342,-0.1034,0.3565,208.4219
13:30:06:153,0.8943,0.665,8.2996,39.6583,0.1894,-0.0611,0.3222,207.9219
13:30:06:174,1.2391,0.6327,8.0698,39.2499,0.172,-0.1415,0.2881,207.5312
13:30:06:193,1.7383,0.246,8.8802,37.2506,-0.0384,-0.3018,0.2018,207.1562
13:30:06:213,1.7706,-0.337,10.5981,40.5292,-0.3697,-0.3793,0.0676,206.9844
13:30:06:237,1.5695,-0.8661,12.7983,37.4359,-0.64,-0.3812,-0.0296,206.6875
13:30:06:254,1.8413,-1.3222,13.8805,38.5134,-0.6618,-0.2206,-0.015,206.5469
13:30:06:272,2.2279,-1.1726,12.5386,38.4937,-0.4549,0.0982,0.0457,206.5469
13:30:06:293,2.3608,-0.4758,11.4911,37.2316,-0.3587,0.2287,0.0127,206.6094
13:30:06:312,2.2985,-0.3238,12.1746,37.2493,-0.4461,0.0494,-0.1745,206.6094
13:30:06:336,1.8544,-1.0936,13.2113,36.294,-0.4754,-0.1476,-0.4688,206.5781
13:30:06:353,1.2702,-1.8238,12.8211,37.0101,-0.3702,0.0145,-0.6272,206.8125
13:30:06:373,1.3217,-1.9076,11.351,35.0181,-0.2375,0.3498,-0.5154,207.3281
13:30:06:393,2.2016,-1.4,9.8223,38.3107,-0.1443,0.4276,-0.2959,208.0625
13:30:06:412,2.9977,-0.7979,9.2717,37.4523,-0.1308,0.1357,-0.2083,208.6875
13:30:06:438,2.9869,-0.3717,9.1735,33.8756,-0.1747,-0.1532,-0.3175,209.0469
13:30:06:454,2.2722,-0.2699,8.8371,37.734,-0.2354,-0.129,-0.5114,209.2812
13:30:06:472,1.3265,-0.2867,8.0399,35.4662,-0.2988,0.1615,-0.6515,209.6562
13:30:06:495,0.528,-0.0365,7.3958,36.2431,-0.3899,0.4835,-0.656,210.2344
13:30:06:511,0.2276,0.4399,7.1241,36.0636,-0.4469,0.675,-0.533,210.9688
13:30:06:533,0.3257,0.9379,6.8559,35.3823,-0.3619,0.6609,-0.3732,211.7656
13:30:06:558,0.4023,1.3725,6.3472,34.705,0.0003,0.3277,-0.2019,212.4219
13:30:06:574,0.4622,1.673,5.7773,35.3202,0.0266,0.157,-0.1804,212.4219
13:30:06:593,0.4658,1.9004,5.7965,33.854,-0.0743,-0.0209,-0.1825,212.8906
13:30:06:613,0.4287,1.9303,7.0235,35.0584,-0.1712,-0.1173,-0.1905,213.2344
13:30:06:638,0.2898,1.8226,8.7258,33.008,-0.1752,-0.0832,-0.1977,213.7031
13:30:06:653,-0.122,1.7687,10.3838,33.1681,-0.0735,0.0161,-0.1508,213.9062
13:30:06:672,-0.1232,1.3509,11.6862,34.9176,0.1214,0.1693,-0.0536,214.1094
13:30:06:692,-0.1292,1.0361,11.9771,32.2682,0.2956,0.2963,0.0689,214.3281
13:30:06:715,0.0875,0.987,11.4085,34.6303,0.3164,0.1842,0.1328,214.5
13:30:06:738,0.3892,0.8362,11.8514,33.1898,0.2373,-0.059,0.12,214.5781
13:30:06:753,0.7998,0.4878,13.2437,32.1206,0.1936,-0.1008,0.0857,214.5156
13:30:06:772,1.3433,-0.1143,14.2492,31.6967,0.237,0.14,0.0258,214.375
13:30:06:792,1.2858,-0.2161,13.5381,32.6327,0.2157,0.4284,-0.0461,214.25
13:30:06:812,0.8441,0.1131,12.1136,32.0285,-0.0234,0.2614,-0.1388,214.1406
13:30:06:836,0.4861,-0.1574,13.1515,31.0343,-0.1827,-0.1594,-0.1974,214.125
13:30:06:856,-0.3842,-1.0193,15.7037,30.068,0.1103,-0.1815,-0.0467,214.1875
13:30:06:872,-0.7445,-2.1422,15.7169,30.41,0.7185,0.25,0.3001,214.375
13:30:06:892,-0.122,-2.408,11.5342,29.8235,0.9918,0.3866,0.588,214.5781
13:30:06:913,0.7627,-1.7232,7.2713,28.3106,0.6842,-0.1511,0.6332,214.625
13:30:06:936,1.0691,-0.7404,6.2657,30.6651,0.1143,-0.8691,0.4751,214.0156
13:30:06:953,0.8716,-0.4399,8.6827,28.5991,-0.2043,-1.019,0.3336,213.2812
13:30:06:972,0.7028,-0.6063,10.7992,29.8307,-0.0932,-0.6345,0.299,212.6562
13:30:06:993,0.1557,-0.3789,10.2485,26.7404,0.212,-0.1735,0.3789,212.1562
13:30:07:012,-0.0154,-0.1718,7.8687,30.5966,0.3899,-0.0014,0.5294,211.7812
13:30:07:037,0.0276,0.0329,5.9353,27.788,0.4194,-0.1199,0.6876,211.3906
13:30:07:054,0.3018,0.2352,5.1488,27.3965,0.3835,-0.3594,0.8015,210.8906
13:30:07:072,0.8201,0.5357,5.3548,30.1101,0.3446,-0.5301,0.8204,210.1875
13:30:07:093,1.2822,0.7548,6.4357,29.4823,0.3585,-0.4957,0.7384,209.2969
13:30:07:112,1.3911,0.8063,7.0451,28.2201,0.3683,-0.3144,0.6255,208.3906
13:30:07:135,1.5228,0.8889,7.1181,29.0113,0.2746,-0.1655,0.5105,207.4688
13:30:07:154,1.773,0.8637,7.4868,28.3388,0.118,-0.0475,0.3781,206.6562
13:30:07:173,1.7718,0.9176,8.2757,28.0868,0.0184,0.0883,0.2561,206.0156
13:30:07:196,1.779,1.0684,8.9652,29.7801,0.0298,0.1685,0.1089,205.75
13:30:07:214,1.7168,1.0086,8.9006,27.2731,0.0325,0.0982,-0.0541,205.2969
13:30:07:233,2.0196,0.3262,9.9061,29.5249,-0.0996,-0.1918,-0.1862,204.9219
13:30:07:254,2.2758,-0.349,11.8203,26.6118,-0.2722,-0.5104,-0.3106,204.9062
13:30:07:272,2.1346,-0.9104,13.7009,28.6928,-0.4021,-0.5583,-0.4339,205.0469
13:30:07:296,2.4266,-1.4946,13.8901,28.0509,-0.4205,-0.1721,-0.4675,205.3281
13:30:07:311,2.7989,-1.5137,11.9963,27.974,-0.3683,0.3618,-0.4573,205.75
13:30:07:333,2.8193,-0.9726,11.3977,26.7702,-0.4852,0.4833,-0.5244,206.2969
13:30:07:353,2.532,-1.2049,13.0641,28.1211,-0.6996,0.1975,-0.7178,206.8438
13:30:07:371,1.4055,-2.2152,14.6766,27.2586,-0.743,0.0257,-0.9585,207.4219
13:30:07:392,0.7794,-2.8353,13.7416,27.2586,-0.5063,0.3267,-0.9191,208.1094
13:30:07:416,1.2894,-2.6342,10.9668,26.9769,-0.1643,0.7307,-0.5916,209.125
13:30:07:439,2.4135,-1.7939,8.6875,28.7494,0.021,0.6838,-0.2557,210.2812
13:30:07:456,3.2119,-0.7871,8.0063,30.4602,0.0024,0.2412,-0.1439,211.1719
13:30:07:528,3.2119,-0.1897,8.0961,28.1175,-0.0932,-0.1226,-0.277,211.6719
13:30:07:528,2.5404,-0.0437,7.5909,27.547,-0.1579,-0.0632,-0.5125,211.8906
13:30:07:528,1.7359,0.1275,6.4657,28.4826,-0.2043,0.2444,-0.6688,212.0938
13:30:07:541,1.1086,0.4232,5.7306,28.6245,-0.2999,0.4886,-0.7077,212.8594
13:30:07:552,0.6298,0.89,5.7498,27.0311,-0.4107,0.541,-0.6733,213.6562
13:30:07:575,0.5508,1.2803,6.0598,29.234,-0.4099,0.4284,-0.5932,214.4531
13:30:07:596,0.5472,1.5353,6.4728,29.3562,-0.3143,0.2196,-0.5441,215.2656
13:30:07:611,0.3377,1.6275,7.0846,30.7232,-0.22,0.062,-0.5383,215.9844
13:30:07:633,-0.1531,1.6897,7.7394,28.8183,-0.1606,0.0204,-0.541,216.625
13:30:07:653,-0.6643,1.6287,8.6156,29.157,-0.1382,0.0276,-0.5143,217.2188
13:30:07:674,-0.7134,1.7544,9.5638,29.979,-0.1286,0.1024,-0.4129,217.8281
13:30:07:694,-0.2381,1.9435,10.5693,30.2414,-0.0914,0.1658,-0.3002,218.4219
13:30:07:712,0.1078,1.8154,11.4205,30.3228,0.0083,0.1482,-0.2786,218.8906
13:30:07:737,0.0731,1.3797,11.9568,29.3434,0.126,0.14,-0.3223,219.0781
13:30:07:756,-0.0573,1.0062,12.3494,30.5058,0.1859,0.1927,-0.3143,219.4062
13:30:07:772,0.0624,0.6925,12.9563,30.3361,0.1854,0.2537,-0.236,219.7656
13:30:07:794,0.3976,0.3406,13.659,31.1453,0.1893,0.2766,-0.13,220.125
13:30:07:812,0.7495,0.076,13.6459,33.0094,0.2325,0.3512,-0.0552,220.4688
13:30:07:836,0.8644,-0.0257,12.5805,30.1682,0.2788,0.4593,-0.0326,220.7031
13:30:07:855,0.4885,0.0676,11.7401,31.4073,0.1904,0.4028,-0.0829,220.8438
13:30:07:872,-0.0358,-0.3035,13.3658,31.1983,-0.0676,-0.0531,-0.1471,220.9219
13:30:07:892,-0.8594,-1.1247,15.8318,30.9363,-0.2067,-0.4899,-0.134,221.0469
13:30:07:916,-0.9983,-1.965,15.7516,30.7716,0.0727,-0.3972,0.0737,221.3125
13:30:07:938,-0.2178,-2.1063,11.527,32.0275,0.9561,0.4457,0.7003,221.3125
13:30:07:953,0.7004,-1.5149,7.142,32.2252,0.7638,0.054,0.7613,221.2031
13:30:07:972,0.8824,-0.574,5.3524,33.2569,0.2708,-0.6909,0.6844,220.7188
13:30:07:992,0.8477,-0.1826,7.3946,34.3008,-0.069,-1.1282,0.593,219.9844
13:30:08:013,0.9602,-0.6901,10.1144,33.0418,-0.017,-0.8965,0.5182,219.125
13:30:08:038,0.2635,-0.8194,10.6519,32.8929,0.2032,-0.2824,0.5797,218.3281
13:30:08:057,-0.2345,-0.5824,8.8108,33.5019,0.3268,0.1631,0.7115,217.6406
13:30:08:073,-0.0478,-0.1873,6.6249,33.0283,0.3025,0.1996,0.7771,217.0156
13:30:08:092,0.1354,0.2592,5.4792,32.9319,0.2171,-0.0651,0.7752,215.9375
13:30:08:115,0.4371,0.4447,5.4601,33.6546,0.1744,-0.4078,0.7201,214.2188
13:30:08:137,0.5711,0.4794,6.0479,34.6974,0.2024,-0.6648,0.6436,214.2188
13:30:08:155,0.6202,0.4136,6.4585,35.8797,0.2178,-0.7498,0.5629,213.7812
13:30:08:173,0.7806,0.319,6.8619,33.6074,0.1601,-0.6755,0.4921,212.9375
13:30:08:192,1.0967,0.3154,7.5251,36.5387,0.078,-0.5224,0.4018,212.2344
13:30:08:212,1.2343,0.3549,8.49,35.3589,0.0277,-0.3128,0.2929,211.5625
13:30:08:231,1.1757,0.4507,9.2381,35.3,0.0378,-0.0497,0.1821,210.9688
13:30:08:254,1.1374,0.337,9.2429,35.3155,0.0309,0.1645,0.0777,210.5156
13:30:08:273,1.1398,-0.0605,8.7641,36.305,-0.0802,0.2095,0.0239,210.1875
13:30:08:291,1.2319,-0.4675,8.7426,38.0642,-0.2655,0.0263,0.0266,209.9688
13:30:08:312,1.621,-0.6722,9.4979,38.1915,-0.4487,-0.2683,0.0332,209.8906
13:30:08:332,2.1286,-0.659,11.1284,37.1136,-0.5225,-0.423,0.0159,209.875
13:30:08:356,2.5248,-1.0062,12.4679,38.2847,-0.49,-0.2962,-0.0059,209.8594
13:30:08:371,2.9474,-1.388,12.1028,36.8243,-0.5366,-0.0787,-0.0072,209.8281
13:30:08:392,3.4382,-1.0397,11.2265,38.9875,-0.7737,-0.1026,-0.1415,209.8438
13:30:08:411,3.7806,-0.7021,11.6575,38.3472,-1.0746,-0.4467,-0.4757,209.8594
13:30:08:432,2.9761,-1.139,14.2767,37.8046,-1.2083,-0.4989,-0.7913,209.9531
13:30:08:453,0.8752,-2.1793,17.6238,37.4999,-0.848,0.246,-0.6832,210.3125
13:30:08:473,-0.1555,-2.9957,17.1773,38.7322,-0.1427,1.2369,-0.1788,211.1094
13:30:08:492,0.637,-2.5851,12.6164,38.2613,0.3497,1.4188,0.3387,212.0938
13:30:08:512,2.4997,-1.5544,8.6073,36.1934,0.5137,0.7818,0.502,212.6875
13:30:08:536,3.8787,-0.2855,6.5902,36.8431,0.4179,-0.0369,0.2729,212.6875
13:30:08:554,4.2714,0.6566,6.5088,38.3481,0.1912,-0.4582,-0.1764,212.2188
13:30:08:573,3.8823,0.6554,7.5167,38.0792,0.0194,-0.3064,-0.6352,211.7656
13:30:08:592,2.9617,0.2233,7.8124,38.5204,-0.0807,0.2034,-0.9521,211.6719
13:30:08:612,1.9442,-0.1718,7.1253,39.2197,-0.1912,0.7011,-1.0752,212.1094
13:30:08:637,0.534,-0.1371,6.0946,38.9867,-0.2897,0.956,-1.0241,213.0469
13:30:08:658,0.461,0.3885,6.3483,39.0597,-0.2903,0.8697,-0.8464,214.2031
13:30:08:676,0.5699,0.823,6.7781,38.5522,-0.192,0.5991,-0.6696,215.5156
13:30:08:692,0.4778,1.1953,7.4185,39.4512,-0.0735,0.2702,-0.5657,216.6719
13:30:08:711,0.364,1.2767,8.3403,40.0864,0.013,-0.0121,-0.4882,217.5469
13:30:08:731,0.2707,1.2707,9.4093,40.3217,0.0541,-0.1471,-0.4043,218.2812
13:30:08:754,0.2599,1.2839,10.4783,39.4212,0.0541,-0.0819,-0.3117,218.8906
13:30:08:772,0.3664,1.2181,11.1427,38.1736,0.0668,0.1067,-0.2171,219.3906
13:30:08:791,0.4825,1.2229,11.1822,39.7249,0.1108,0.3203,-0.13,219.7656
13:30:08:811,0.5532,1.1977,11.0242,40.0718,0.1513,0.3765,-0.0693,220.0781
13:30:08:831,0.7088,1.0157,11.4803,40.5694,0.1353,0.2095,-0.0342,220.2812
13:30:08:855,0.7878,0.5537,12.4703,38.7502,0.0903,-0.0406,-0.0387,220.4219
13:30:08:874,0.7902,0.1012,13.2891,41.7422,0.069,-0.1594,-0.0616,220.5
13:30:08:891,0.7351,-0.3107,13.3059,40.1584,0.0842,-0.0968,-0.0685,220.5312
