Time,Acc_X,Acc_Y,Acc_Z,Meg,Gyr_X,Gyr_Y,Gyr_Z,Ore
21:23:07:722,2.2004,-1.4084,6.5471,55.9416,1.2056,0.1376,1.0101,109.3125
21:23:07:741,3.1449,0.1574,4.6999,54.1983,0.4029,-0.2736,0.1986,109.3125
21:23:07:761,1.4127,-0.1347,6.9038,56.1799,-0.0828,-0.6904,-0.4485,109.3125
21:23:07:782,-0.7912,-1.2911,9.6128,55.5175,-0.0301,-0.8132,-0.5878,230.1094
21:23:07:807,-1.8338,-1.7771,10.2281,55.7592,0.2732,-0.6936,-0.407,230.25
21:23:07:826,-1.7153,-1.2683,9.5159,54.6285,0.5289,-0.4915,-0.2595,230.8594
21:23:07:840,-1.0689,-0.9535,7.9608,55.3746,0.6277,-0.4164,-0.22,231.3594
21:23:07:864,-0.9133,-0.6303,6.2813,53.3148,0.4607,-0.4616,-0.1894,231.5781
21:23:07:890,-0.6942,-0.3693,5.818,55.4375,0.1249,-0.3085,-0.2275,231.6094
21:23:07:910,-0.5769,-0.4771,6.8595,54.9867,-0.1145,0.0191,-0.2073,231.6562
21:23:07:919,-0.3889,-0.2939,7.8375,56.381,-0.1241,0.1344,-0.1556,231.875
21:23:07:941,-0.2549,-0.009,8.2541,57.7929,0.02,0.0902,-0.1244,232.125
21:23:07:959,-0.0969,0.1742,8.4241,55.6336,0.22,-0.0278,-0.1551,232.3594
21:23:07:978,-0.2608,0.2628,8.3762,54.9782,0.3728,-0.0741,-0.1985,232.4844
21:23:08:008,-0.5625,0.2376,7.9357,54.919,0.3712,-0.0923,-0.191,232.5469
21:23:08:023,-0.8798,0.2388,8.0949,55.0092,0.2852,-0.1138,-0.1236,232.6406
21:23:08:038,-1.1144,0.3107,8.7665,55.3122,0.2218,-0.1349,-0.0366,232.75
21:23:08:057,-1.3119,0.3394,9.5913,54.8239,0.2424,-0.1239,0.0647,232.8281
21:23:08:076,-1.2988,0.1885,9.9217,53.0221,0.2876,-0.1407,0.1741,232.8281
21:23:08:096,-1.1072,0.0676,10.1527,54.6957,0.3449,-0.2981,0.3086,232.75
21:23:08:119,-0.7349,0.0257,10.4915,55.158,0.4455,-0.528,0.4143,232.5156
21:23:08:140,-0.2597,-0.0353,11.0146,54.2974,0.5111,-0.6715,0.4402,232.1406
21:23:08:157,0.1186,0.1299,11.7281,54.5601,0.4895,-0.3772,0.3869,231.2656
21:23:08:179,0.6106,0.0904,11.132,53.5875,0.2397,0.1006,0.2015,230.5781
21:23:08:195,-0.1579,-0.0904,9.7637,55.4058,-0.331,0.038,0.0106,229.9844
21:23:08:223,-2.2708,-0.1167,10.9799,53.6189,-0.8229,-0.1839,0.0679,229.6719
21:23:08:234,-3.4595,-0.8182,14.5856,53.3657,-0.637,-0.0733,0.4173,229.7812
21:23:08:257,-3.2823,-1.4108,15.6558,54.219,0.1265,0.7738,0.8687,229.9844
21:23:08:274,-2.843,-1.0062,11.5713,52.7698,0.6253,1.5749,1.2831,229.7344
21:23:08:294,-2.4516,0.3945,5.7618,52.3287,0.3414,1.45,1.4679,228.7344
21:23:08:323,-2.2038,1.5054,3.4789,52.4797,-0.3428,0.532,1.3217,227.1094
21:23:08:334,-2.0266,1.4072,6.6057,51.6894,-0.6498,-0.6217,1.144,227.1094
21:23:08:356,-1.2485,0.5261,11.5677,53.3928,-0.3092,-1.1959,0.9925,225.4688
21:23:08:373,-0.7636,-0.1048,13.6459,52.9477,0.2125,-1.0206,0.8639,224.0938
21:23:08:393,-0.5817,-0.4495,12.5062,51.4447,0.473,-0.4571,0.8388,222.9375
21:23:08:420,-0.5972,-0.3442,10.1479,52.4664,0.3883,0.0414,0.8809,221.8438
21:23:08:441,-0.4404,0.0006,8.5546,52.2578,0.1728,0.2508,0.8277,220.7188
21:23:08:460,-0.511,0.2053,8.0841,52.6295,0.0514,0.2391,0.7121,218.4219
21:23:08:478,-0.6607,0.2233,8.059,50.6682,0.0908,0.136,0.6351,217.9531
21:23:08:493,-0.8534,0.1694,7.8076,51.8482,0.1963,0.0015,0.6157,217.5
21:23:08:512,-0.9755,0.2053,7.5514,51.8482,0.2677,-0.1287,0.6359,216.3125
21:23:08:533,-0.9073,0.3442,7.6137,52.3329,0.2834,-0.2382,0.6537,215.9375
21:23:08:556,-0.7289,0.4364,8.4026,52.4371,0.3161,-0.1628,0.6593,215.2188
21:23:08:577,-0.6451,0.4088,9.3974,52.1318,0.3705,0.1464,0.7211,214.3906
21:23:08:593,0.1031,0.9044,9.4728,51.6446,0.2631,0.8873,0.7539,213.5312
21:23:08:612,0.6753,2.1793,7.9908,53.1108,-0.1771,1.5922,0.4463,212.6562
21:23:08:632,0.2886,2.8641,7.3252,52.9654,-0.6112,1.6913,-0.003,211.7812
21:23:08:656,-0.7098,2.5002,8.5702,51.1637,-0.6314,1.2409,-0.2421,210.9219
21:23:08:674,-1.9272,1.3976,9.9803,51.6954,-0.306,0.4835,-0.2352,210.625
21:23:08:691,-2.7137,0.4364,10.5645,51.9459,-0.0288,-0.157,-0.0227,210.9688
21:23:08:713,-2.5773,0.0198,11.011,52.8436,0.0181,-0.4358,0.2364,211.5625
21:23:08:732,-1.5765,-0.0521,11.8047,52.148,-0.0357,-0.3756,0.3797,211.9531
21:23:08:756,-0.2214,-0.1227,12.2046,52.0675,-0.0732,-0.1767,0.3605,211.8438
21:23:08:777,0.7148,-0.2029,11.7592,51.295,-0.1318,-0.0241,0.2271,211.4219
21:23:08:792,0.8668,-0.1682,11.0745,52.4778,-0.257,-0.0198,0.0143,210.9531
21:23:08:817,0.3174,-0.3537,10.956,52.4778,-0.4061,-0.2006,-0.1862,210.625
21:23:08:840,-0.7158,-0.7679,11.8382,50.6736,-0.445,-0.4789,-0.2507,210.5312
21:23:08:858,-1.5537,-1.3342,13.4412,52.1419,-0.2764,-0.55,-0.0906,210.7188
21:23:08:875,-1.1647,-1.7532,14.2301,54.0711,0.0559,-0.2084,0.1933,211.0625
21:23:08:892,-0.0214,-1.3988,12.6918,51.9704,0.338,0.2356,0.384,211.2969
21:23:08:917,1.4354,-0.6339,9.8642,51.1275,0.3798,0.3285,0.3256,211.2188
21:23:08:931,2.4745,0.1778,8.1667,52.1305,0.2519,0.1882,0.0181,210.7969
21:23:08:953,2.3656,0.4998,7.8315,51.5495,0.1449,0.0367,-0.3761,210.3281
21:23:08:973,1.5827,0.3633,7.8016,52.1172,0.1244,-0.0334,-0.6675,210.0469
21:23:08:994,0.6609,0.2891,7.6256,51.0299,0.1324,-0.0198,-0.8307,210.2188
21:23:09:013,-0.0226,0.2556,7.2605,51.1091,0.1084,0.0856,-0.9037,210.7656
21:23:09:034,-1.2161,0.5609,7.0894,51.1091,0.0373,0.1813,-0.9258,211.6094
21:23:09:056,-1.5573,0.7488,7.1564,51.1246,0.0096,0.2612,-0.8715,212.0781
21:23:09:075,-1.6483,1.0277,6.9134,50.4751,0.0362,0.3424,-0.7623,213.625
21:23:09:092,-1.446,1.4084,6.8152,51.1272,0.0668,0.3461,-0.6464,214.6406
21:23:09:112,-1.1719,1.74,7.0451,50.868,0.0868,0.2252,-0.5686,215.6094
21:23:09:131,-1.0857,1.8729,7.7873,53.1297,0.0991,0.0116,-0.5735,216.4375
21:23:09:157,-1.1683,1.7735,8.7354,50.7816,0.1073,-0.1551,-0.6089,217.0938
21:23:09:174,-1.2724,1.6754,9.3423,50.1047,0.1443,-0.1628,-0.6217,217.7188
21:23:09:192,-1.4292,1.6394,9.2022,50.7359,0.2045,-0.0488,-0.5979,218.3594
21:23:09:211,-1.6543,1.6574,9.0682,50.487,0.2045,0.0905,-0.5644,219
21:23:09:232,-1.8913,1.5772,9.2896,49.4503,0.1366,0.164,-0.5149,219.6406
21:23:09:257,-2.1571,1.2923,9.6847,50.2156,0.078,0.1621,-0.4456,220.25
21:23:09:275,-2.3929,1.005,10.0845,50.774,0.0469,0.0931,-0.3252,220.8281
21:23:09:292,-2.4324,0.9918,10.3335,49.3189,0.0325,0.0223,-0.1362,221.3438
21:23:09:312,-2.0517,1.2013,10.4616,48.8154,-0.0005,-0.0563,0.0849,221.7812
21:23:09:333,-1.5346,1.6059,10.9237,48.7411,-0.1119,-0.1247,0.2295,222.0938
21:23:09:359,-1.4927,1.7975,11.9891,48.1697,-0.3294,-0.2646,0.2351,222
21:23:09:375,-2.2157,1.1199,13.4962,48.9848,-0.6072,-0.4638,0.1786,221.75
21:23:09:394,-3.001,-0.3897,15.918,49.533,-0.8349,-0.6502,0.1741,221.5625
21:23:09:412,-3.1243,-1.1785,17.4862,47.6728,-0.6831,-0.7666,0.3725,221.4844
21:23:09:433,-2.0469,-1.254,16.5848,46.1413,-0.0911,-0.717,0.7653,221.4688
21:23:09:459,-0.8079,-0.8577,13.1168,46.3034,0.5292,-0.3021,1.1515,221.1719
21:23:09:474,-0.1902,-0.1383,9.5733,43.6376,0.7856,0.0902,1.3052,220.2969
21:23:09:493,-0.0226,0.3621,8.2577,43.7572,0.6496,0.0028,1.1997,218.7969
21:23:09:512,-0.1028,0.3238,8.5762,45.6902,0.4032,-0.2989,0.9848,217.0781
21:23:09:533,-0.4392,0.1191,8.7354,45.2489,0.3238,-0.4752,0.796,216.2656
21:23:09:557,-0.8355,-0.0952,8.3224,43.7854,0.3601,-0.4853,0.678,214.9219
21:23:09:576,-1.039,-0.2352,7.6544,43.9876,0.3931,-0.3857,0.6524,213.7656
21:23:09:592,-1.0916,-0.1048,6.82,42.7886,0.3894,-0.2443,0.6921,212.7812
21:23:09:612,-1.0318,0.1299,5.8994,42.9288,0.3622,-0.1538,0.7515,211.9219
21:23:09:687,-0.8199,0.4076,5.5702,41.5899,0.3017,-0.2315,0.7834,211
21:23:09:687,-0.5386,0.6363,5.9401,41.2078,0.2293,-0.4214,0.7635,209.5469
21:23:09:688,-0.4524,0.7141,6.316,40.6605,0.1851,-0.5434,0.6822,208.5781
21:23:09:691,-0.4739,0.7895,6.5698,42.5041,0.1262,-0.5122,0.5584,207.5938
21:23:09:714,-0.3758,0.8338,6.4848,42.6552,-0.0426,-0.2044,0.4316,206.6875
21:23:09:735,-0.1543,1.0541,6.978,42.0176,-0.7201,0.6199,0.2034,205.9531
21:23:09:758,0.0456,1.2827,8.1201,40.2679,-0.8804,0.7964,0.0647,205.9531
21:23:09:775,-0.0765,1.4228,9.3986,40.82,-0.7449,0.7075,-0.0856,205.2656
21:23:09:793,-0.4656,1.2791,10.1875,38.5943,-0.4232,0.4758,-0.2057,205.3281
21:23:09:816,-0.9217,0.7368,10.0881,39.1771,-0.1555,0.2265,-0.2299,206.0469
21:23:09:841,-1.2988,0.1467,9.8092,38.7574,-0.1092,-0.0137,-0.1332,206.0469
21:23:09:859,-1.5238,-0.3753,10.5681,40.3476,-0.2176,-0.1788,0.026,206.4688
21:23:09:877,-1.1347,-0.6985,12.1854,38.9494,-0.2844,-0.121,0.1789,206.7969
21:23:09:893,-0.0095,-0.9307,13.1958,38.7387,-0.2549,0.0947,0.2849,206.9844
21:23:09:911,1.1852,-0.8924,12.9815,39.2432,-0.2149,0.2431,0.2687,206.9844
21:23:09:931,2.0615,-0.6566,12.0789,38.243,-0.2575,0.1325,0.0516,206.8438
21:23:09:957,2.1381,-0.5417,11.6671,38.0409,-0.359,-0.1951,-0.3362,206.6094
21:23:09:976,1.2571,-0.7727,12.3075,37.9773,-0.3659,-0.3921,-0.6672,206.4062
21:23:09:993,0.2551,-1.5413,12.9611,38.6463,-0.2477,-0.2124,-0.7474,206.4375
21:23:10:012,-0.1543,-2.1757,12.2955,39.3791,-0.061,0.2265,-0.5527,206.875
21:23:10:032,0.1749,-2.0022,10.0653,39.443,0.0359,0.4295,-0.2794,207.6875
21:23:10:058,1.19,-1.1235,8.1596,38.5557,-0.0064,0.1323,-0.2019,208.5781
21:23:10:075,2.107,-0.2077,7.8818,37.5254,-0.0908,-0.3676,-0.4398,209.2344
21:23:10:093,2.2794,0.2304,8.8407,37.8599,-0.1132,-0.5919,-0.811,209.7344
21:23:10:112,1.8305,-0.0401,9.5398,38.1213,-0.0517,-0.3913,-1.0781,210.0625
21:23:10:132,1.0165,-0.4052,9.152,39.7188,0.0053,0.0526,-1.1727,210.6875
21:23:10:157,0.0839,-0.4758,7.8711,40.2108,-0.0245,0.4002,-1.1263,211.7344
21:23:10:176,-0.541,-0.3118,6.8691,40.8676,-0.0708,0.5099,-1.0209,213.0312
21:23:10:192,-0.8558,-0.009,6.5088,40.1546,-0.0573,0.397,-0.9055,214.3906
21:23:10:216,-0.9995,0.2604,6.5555,40.7919,0.0208,0.2548,-0.7908,215.6406
21:23:10:230,-0.8833,0.6039,6.3902,39.3612,0.0485,0.1235,-0.7039,216.8281
21:23:10:254,-0.5793,0.9798,6.6225,39.9155,0,0.0473,-0.6736,217.8438
21:23:10:275,-0.2788,1.3904,7.1863,40.6641,-0.0847,0.0241,-0.7391,218.6562
21:23:10:292,-0.1711,1.661,8.0482,41.4704,-0.1619,-0.0044,-0.8789,219.4375
21:23:10:312,-0.632,1.5784,9.2489,41.2097,-0.1816,0.0414,-1.0123,220.25
21:23:10:334,-1.452,1.2803,10.3263,40.3995,-0.1459,0.1813,-1.0302,220.7031
21:23:10:359,-2.2816,0.896,11.138,41.4074,-0.0743,0.4215,-0.9008,221.7188
21:23:10:377,-2.8598,0.6901,11.3403,40.8793,-0.0128,0.6984,-0.6637,222.9375
21:23:10:395,-3.2704,0.6614,11.2014,42.1041,0.0221,0.826,-0.391,224.75
21:23:10:412,-3.6666,0.8709,11.4324,42.342,0.0573,0.7222,-0.0896,225.6719
21:23:10:433,-2.9974,0.7919,12.1734,41.5787,0.0921,0.4473,0.2306,226.3438
21:23:10:458,-2.4707,0.8637,12.6834,43.1647,0.1369,0.1927,0.483,226.6719
21:23:10:475,-1.9093,1.0122,13.4519,42.7791,0.1318,-0.0813,0.6367,226.625
21:23:10:493,-1.3143,0.4543,14.9782,42.6805,0.0415,-0.3964,0.6639,226.1875
21:23:10:511,-2.661,-0.6829,16.4315,42.7795,0.0533,-0.6398,0.4812,225.5
21:23:10:532,-3.159,-1.8896,16.4531,43.7583,0.3987,-0.9024,0.4924,224.7188
21:23:10:550,-2.0589,-2.1386,13.519,42.9626,0.9063,-0.6917,0.8958,224
21:23:10:572,-0.6607,-1.2145,9.3219,44.3095,1.1742,-0.1471,1.2852,223.3906
21:23:10:592,0.151,-0.2891,6.8918,43.7674,0.9963,0.0819,1.3512,222.3438
21:23:10:611,0.151,0.0748,7.2713,43.5561,0.5646,-0.0992,1.1576,220.7656
21:23:10:631,-0.2429,-0.3035,8.4373,43.2855,0.2772,-0.4081,0.9187,218.8594
21:23:10:651,-0.6308,-0.6015,8.4301,43.5567,0.3015,-0.6022,0.8061,217.1719
21:23:10:675,-0.6942,-0.6063,7.4545,43.7775,0.4274,-0.6491,0.8375,215.3594
21:23:10:691,-0.5194,-0.3873,6.5662,43.7775,0.4354,-0.5855,0.9094,214.2969
21:23:10:711,-0.1447,-0.1035,6.1652,44.8904,0.3246,-0.4904,0.9715,213.1406
21:23:10:738,0.1402,0.1299,6.2047,45.1389,0.1931,-0.4254,0.9683,211.9688
21:23:10:758,0.2814,0.2628,6.5135,43.6448,0.119,-0.4361,0.9065,210.7188
21:23:10:777,0.4191,0.2819,6.7925,44.9885,0.1031,-0.4843,0.8237,209.5156
21:23:10:794,0.3185,0.179,7.2126,44.9408,0.0836,-0.4515,0.7315,208.4375
21:23:10:811,0.2659,0.1167,7.6951,44.7422,0.0772,-0.3522,0.6703,207.4062
21:23:10:833,0.1857,0.2161,7.4198,44.2203,0.1289,-0.251,0.654,206.9375
21:23:10:857,0.1414,0.562,7.0175,44.508,0.1369,-0.1687,0.6447,206.0781
21:23:10:877,0.1929,0.9439,7.4485,45.1442,0.0115,-0.1551,0.6074,205.2969
21:23:10:892,0.2479,1.1642,8.4145,45.5744,-0.1382,-0.1293,0.5166,204.4688
21:23:10:911,0.2659,1.157,8.9305,45.178,-0.2165,-0.0281,0.3901,203.7031
21:23:10:931,0.2359,1.0122,9.2513,43.5129,-0.2575,0.0734,0.254,203.0938
21:23:10:952,0.0983,0.7895,9.8331,46.2074,-0.3507,0.096,0.1099,202.4531
21:23:10:975,-0.1376,0.094,11.3187,46.4114,-0.4834,0.0052,-0.0155,202.2656
21:23:10:992,-0.2297,-0.8434,12.9264,45.1181,-0.6037,-0.0238,-0.0653,202.2656
21:23:11:019,0.1426,-1.1845,13.2556,46.1394,-0.6602,0.2654,0.0577,202.4531
21:23:11:030,0.9722,-0.914,12.6056,45.6694,-0.7065,0.6716,0.2452,202.7344
21:23:11:052,1.937,-0.4711,12.1028,47.2528,-0.7894,0.8425,0.2958,202.9375
21:23:11:075,2.2626,-0.1754,12.5864,46.542,-0.8781,0.6196,0.1121,203
21:23:11:093,1.6198,-0.6087,13.586,47.3152,-0.8794,0.2878,-0.2033,203.0625
21:23:11:112,0.6645,-1.4407,13.2736,47.321,-0.432,0.3613,-0.3335,203.3281
21:23:11:132,0.5149,-1.8645,11.7928,47.2916,-0.2149,0.4505,-0.0416,203.3281
21:23:11:158,1.4438,-1.254,10.0905,47.4921,-0.0996,0.2643,0.1856,203.875
21:23:11:176,3.5172,0.2101,9.0394,47.3707,-0.1361,-0.0712,0.034,204.6094
21:23:11:191,5.15,1.6897,9.4836,47.2916,-0.1041,-0.3133,-0.5644,205.3906
21:23:11:211,4.8113,1.7113,9.8918,47.3087,0.0389,-0.2582,-1.2036,205.3906
21:23:11:231,2.8624,0.7428,9.14,47.5993,0.1747,-0.0225,-1.5085,205.875
21:23:11:254,0.886,-0.155,7.889,48.5982,0.2229,0.1954,-1.4454,206.4062
21:23:11:275,-0.2692,-0.4495,6.8715,47.4239,0.221,0.2859,-1.2131,207.125
21:23:11:293,-0.5649,-0.0377,6.4716,49.1285,0.2322,0.2193,-1.0219,208.7969
21:23:11:311,-0.3794,0.677,6.4621,49.493,0.2985,0.0742,-0.9724,210.4062
21:23:11:330,-0.0202,1.3234,6.2825,50.3345,0.3398,-0.1365,-1.0331,211.7031
21:23:11:350,0.1725,1.5437,6.3555,50.8929,0.2786,-0.3152,-1.1727,212.8281
21:23:11:374,-0.2764,1.333,7.3084,51.6933,0.2013,-0.3945,-1.264,213.8594
21:23:11:392,-1.0342,0.9116,8.5295,50.38,0.1481,-0.3016,-1.2099,214.8594
21:23:11:411,-1.768,0.4328,9.6332,51.3341,0.0551,0.0486,-1.0062,216.0625
21:23:11:432,-1.9955,0.4603,10.4604,52.3116,-0.0221,0.4441,-0.7442,217.4062
21:23:11:457,-1.7812,0.8553,11.1511,51.7526,0.0181,0.716,-0.5724,218.7031
21:23:11:475,-1.5777,1.2097,11.0721,51.0203,0.126,0.8244,-0.4736,219.7812
21:23:11:492,-1.616,1.2312,10.5298,53.1016,0.2069,0.7834,-0.4126,220.6875
21:23:11:515,-2.0948,1.1881,9.8941,52.0378,0.2045,0.6276,-0.2776,221.9375
21:23:11:530,-2.3582,1.0864,9.614,53.1317,0.0948,0.3517,-0.0525,222.1875
21:23:11:551,-2.0757,0.8949,10.5179,53.6018,-0.0096,0.0718,0.196,222.5781
21:23:11:580,-1.4053,0.5944,11.8933,54.4844,-0.0221,-0.1469,0.3994,222.7656
21:23:11:594,-0.954,0.8074,13.0078,53.283,0.0053,-0.3013,0.5531,222.6875
21:23:11:611,-0.1016,1.2252,13.7716,53.6436,0.0202,-0.3476,0.5214,222.3438
21:23:11:631,0.4646,1.0373,14.2684,54.8917,0.0945,-0.3154,0.2801,221.7656
21:23:11:651,-0.5099,0.1646,14.3091,54.6372,0.3095,-0.3572,0.2023,221.125
21:23:11:676,-1.3694,-0.7572,13.6566,54.4416,0.542,-0.3032,0.3866,220.6094
21:23:11:693,-0.869,-1.2803,12.0956,54.0266,0.6091,-0.0606,0.5781,220.2969
21:23:11:773,0.133,-1.4168,10.033,53.953,0.4559,0.0739,0.6189,219.8125
21:23:11:773,0.3976,-1.0169,8.8946,54.5848,0.2349,-0.1096,0.5637,219.0625
21:23:11:774,0.4011,-0.6291,9.2154,53.7932,0.1297,-0.3575,0.4596,218.1719
21:23:11:774,0.3174,-0.5728,9.6823,53.4628,0.13,-0.3639,0.3866,217.375
21:23:11:790,0.4155,-0.7057,9.4955,52.7715,0.1822,-0.1852,0.3507,216.75
21:23:11:812,-0.3997,-0.4962,7.2139,52.379,0.2104,-0.0062,0.3744,216.4688
21:23:11:832,-0.3722,-0.3059,6.3962,52.5736,0.179,0.0939,0.4703,215.7031
21:23:11:857,-0.1615,0.0461,6.2047,52.4274,0.1129,0.1094,0.5547,215.2656
21:23:11:872,0.2958,0.4196,6.5112,53.4422,0.0754,0.0396,0.6029,214.7188
21:23:11:890,0.7112,0.8206,7.1121,52.5159,0.1342,-0.1503,0.5919,214.0938
21:23:11:910,0.9901,1.2995,7.664,52.9803,0.3124,-0.4185,0.5387,213.3906
21:23:11:930,1.1852,1.6945,7.4365,52.0672,0.5649,-0.6869,0.4724,212.7031
21:23:11:950,1.3516,2.1338,6.9385,52.8858,0.726,-0.8497,0.36,211.9688
21:23:11:975,1.5384,2.4415,7.1169,53.1687,0.6613,-0.8955,0.2026,211.1875
21:23:11:992,1.2367,2.4056,7.9165,52.2791,0.4322,-0.7578,-0.0296,210.4375
21:23:12:010,0.8728,2.0584,8.6001,52.0705,0.1779,-0.4265,-0.2597,209.7812
21:23:12:031,0.291,1.7017,8.9233,51.5369,-0.0527,-0.0169,-0.4171,209.4062
21:23:12:052,-0.4129,1.3007,9.4644,53.2184,-0.285,0.2399,-0.4994,209.4219
21:23:12:078,-0.6727,0.7512,11.3415,51.0609,-0.5124,0.1054,-0.4722,209.7656
21:23:12:091,-0.2656,0.2304,14.2863,51.4635,-0.6312,-0.2931,-0.3508,210.375
21:23:12:110,0.771,-0.2807,15.7983,51.3889,-0.4807,-0.5208,-0.1806,211.4375
21:23:12:137,2.1609,-0.6039,14.4731,51.8638,-0.224,-0.2507,-0.0512,212.0625
21:23:12:158,2.5787,-0.2113,12.8366,52.5451,-0.2296,0.2122,-0.0509,212.4062
21:23:12:178,2.2411,0.0066,12.5793,49.9525,-0.5071,0.5597,-0.1732,212.5312
21:23:12:195,1.5061,-0.3861,12.5912,51.9974,-0.6709,0.757,-0.2901,212.7031
21:23:12:210,0.8381,-0.738,12.0932,51.6565,-0.5784,0.76,-0.2696,213.1406
21:23:12:230,1.0739,-0.9451,11.0087,50.8479,-0.3252,0.5466,-0.0605,213.7812
21:23:12:252,1.9981,-0.732,10.367,50.3945,-0.1079,0.1597,0.1845,214.3438
21:23:12:276,3.1114,-0.3214,10.3862,51.4175,-0.0045,-0.2848,0.303,214.5938
21:23:12:294,3.9829,0.0317,10.6675,51.471,0.0418,-0.5881,0.2417,214.4219
21:23:12:311,4.2055,0.2927,10.2976,51.4302,0.0794,-0.5495,0.0332,214.25
21:23:12:330,3.692,0.6578,9.1113,50.8492,0.086,-0.1921,-0.2675,213.875
21:23:12:351,2.8013,0.8146,7.6053,50.2322,0.0309,0.2641,-0.5897,213.625
21:23:12:376,1.7407,0.7644,6.4178,49.2217,-0.0471,0.5562,-0.8443,213.6719
21:23:12:391,0.8333,0.6542,5.5834,50.4655,-0.0778,0.5999,-0.9676,214.1094
21:23:12:410,0.3233,0.6818,5.2494,48.9854,-0.0541,0.4452,-0.9559,215.5469
21:23:12:431,0.2587,0.8493,5.3607,50.7941,0.029,0.1922,-0.8547,216.7344
21:23:12:451,0.3964,1.0265,5.423,49.9694,0.159,-0.0427,-0.7607,217.8281
21:23:12:475,0.2695,1.1438,5.3619,50.1131,0.2589,-0.1727,-0.7199,218.8125
21:23:12:493,0.3126,1.3605,5.6097,50.0303,0.2708,-0.2046,-0.6603,219.625
21:23:12:511,0.6478,1.6765,6.1173,50.1474,0.1795,-0.3109,-0.5447,220.3125
21:23:12:531,0.6777,2.0345,6.9002,48.8321,0.1212,-0.361,-0.5484,220.9531
21:23:12:559,0.7794,2.4379,8.0231,48.7587,0.1111,-0.4118,-0.5556,222.0625
21:23:12:577,1.0643,2.8353,9.1436,48.9924,0.151,-0.3679,-0.6286,222.0625
21:23:12:595,1.0955,3.0628,9.7301,49.498,0.1438,-0.1333,-0.7489,222.6094
21:23:12:611,0.868,2.9958,9.6691,49.0636,0.012,0.2675,-0.8699,223.1875
21:23:12:629,0.2084,2.8784,9.2968,46.5417,-0.2525,0.6148,-0.9303,223.8438
21:23:12:650,-1.0138,2.7887,9.8666,47.5405,-0.4589,0.65,-0.8659,224.5938
21:23:12:675,-2.0493,2.3948,11.5725,48.2561,-0.4823,0.3621,-0.6427,226.75
21:23:12:692,-1.8087,1.8441,13.1419,48.1498,-0.4775,-0.0763,-0.4014,227.3594
21:23:12:710,-1.373,1.3031,15.0824,47.2212,-0.5196,-0.823,-0.2475,228.3594
21:23:12:730,-1.452,0.1838,19.4123,47.7102,-0.1483,-1.2246,-0.0632,229.1094
21:23:12:751,-1.3861,-1.5748,21.2522,45.0379,0.6969,-1.0353,0.2963,229.6719
21:23:12:776,-1.2616,-2.1841,17.9123,44.8061,1.2365,-0.2459,0.8351,229.9844
21:23:12:794,-0.2417,-1.2839,12.3195,44.5719,1.0682,0.6404,1.1941,229.9844
21:23:12:810,0.9362,-0.0796,8.2888,44.4267,0.5468,1.079,1.1693,229.375
21:23:12:830,1.3504,0.8242,6.553,45.5212,0.134,0.8902,0.8516,227.9062
21:23:12:850,0.5268,0.6853,6.2705,44.7083,-0.0698,0.3086,0.5938,226.2031
21:23:12:874,-0.7385,0.0126,6.6189,44.7082,-0.1747,-0.2979,0.6673,224.6406
21:23:12:893,-1.3227,-0.2364,7.8268,45.6421,-0.1598,-0.7905,0.8964,223.6094
21:23:12:912,-0.8857,-0.1347,9.3327,45.6421,0.0218,-0.9767,1.0924,222.9531
21:23:12:936,0.0013,0.0916,9.711,45.3547,0.2338,-0.7719,1.1779,222.2812
21:23:12:949,0.4478,0.4411,8.7641,44.3382,0.3105,-0.4355,1.1475,221.3125
21:23:12:970,0.6897,0.6853,7.5071,42.8304,0.2573,-0.207,1.0575,220.0312
21:23:12:996,0.9015,0.7715,6.7614,42.4445,0.1625,-0.109,0.9518,218.625
21:23:13:013,1.105,0.8063,6.5902,43.4294,0.1124,-0.0699,0.8399,216.4844
21:23:13:030,1.1409,0.7847,6.565,43.1085,0.126,-0.0257,0.7374,215.25
21:23:13:050,1.1469,0.7931,6.3878,42.8078,0.1531,0.0324,0.6599,214.2188
21:23:13:076,1.3265,0.9439,5.9904,43.7629,0.1228,0.0934,0.5597,213.2656
21:23:13:092,1.7036,1.2396,5.7366,41.2576,-0.0109,0.1352,0.3784,212.4062
21:23:13:116,1.8844,1.2863,6.0072,40.5598,-0.2107,0.1922,0.1294,211.6875
21:23:13:129,1.6018,0.896,6.8787,42.8485,-0.4392,0.2167,-0.0752,211.125
21:23:13:152,1.0787,0.1287,8.5187,42.9529,-0.6155,0.2199,-0.1385,210.875
21:23:13:172,1.0811,-0.7009,10.3131,40.3178,-0.7252,0.1227,-0.1002,211
21:23:13:194,1.2343,-1.1965,12.687,40.806,-0.6852,0.1432,-0.0102,211.375
21:23:13:221,2.8672,-1.0457,13.3885,39.6137,-0.4197,0.3533,0.0814,211.7969
21:23:13:230,3.9984,-0.6375,11.1344,40.8634,-0.2461,0.5315,0.0242,212.1875
21:23:13:251,4.7658,0.0784,10.5633,39.5889,-0.3952,0.3754,-0.2115,212.3594
21:23:13:276,4.9741,-0.1586,12.3434,40.3883,-0.7611,-0.1442,-0.6661,212.4375
21:23:13:289,3.7901,-1.6167,15.2536,41.8369,-1.0836,-0.5983,-1.2611,212.6719
21:23:13:313,1.9274,-2.8018,16.3837,39.9328,-1.1547,-0.3681,-1.5996,213.3438
21:23:13:330,1.22,-2.9514,14.5916,41.3425,-0.9279,0.3698,-1.4273,214.75
21:23:13:351,1.4917,-1.9698,11.2876,40.2165,-0.5281,0.9155,-0.9354,216.8594
21:23:13:378,2.2973,-0.3956,8.7904,41.582,-0.2541,0.9192,-0.4893,219.0938
21:23:13:398,3.0743,0.9643,7.7705,39.6204,-0.1294,0.4665,-0.3604,220.7344
21:23:13:412,3.1329,1.5425,7.2929,40.7836,-0.0565,-0.0182,-0.5809,221.7812
21:23:13:429,2.6242,1.4862,6.6476,41.6758,-0.0253,-0.199,-0.9407,222.3594
21:23:13:450,1.7742,1.2576,6.0263,41.0681,-0.0682,-0.1072,-1.2614,222.875
21:23:13:474,0.6801,0.999,5.8168,41.5767,-0.1443,0.051,-1.4675,223.75
21:23:13:492,-0.2776,0.7967,6.0587,41.7337,-0.176,0.1032,-1.5191,225.0156
21:23:13:510,-0.8163,0.7045,6.4932,40.3866,-0.1118,0.0265,-1.4384,226.5469
21:23:13:531,-0.9049,0.7859,6.9301,41.1824,0.0322,-0.1346,-1.2861,228.3594
21:23:13:551,-0.8738,1.0385,7.4736,41.9234,0.1598,-0.3077,-1.146,230.1406
21:23:13:575,-0.8307,1.2492,8.1919,41.7327,0.2341,-0.4094,-1.0587,231.7188
21:23:13:594,-0.6403,1.2911,8.788,41.3455,0.2679,-0.4228,-1.0222,232.9844
21:23:13:612,-0.7349,1.2552,9.5027,39.5496,0.2122,-0.2779,-1.0392,234.6875
21:23:13:636,-1.1982,0.9344,10.4999,40.3613,0.0746,-0.0009,-1.0739,235.6875
21:23:13:649,-1.9811,0.3513,11.175,40.7234,-0.0615,0.3802,-1.0518,236.7812
21:23:13:670,-2.6144,0.1538,11.7173,41.5119,-0.1814,0.7277,-0.892,237.9844
21:23:13:695,-2.6167,0.0353,12.6056,40.0513,-0.257,0.8124,-0.615,239.2031
21:23:13:719,-2.515,-0.2029,13.58,40.675,-0.2392,0.6516,-0.3479,240.2344
21:23:13:731,-2.3893,-0.6387,14.1499,40.4883,-0.1302,0.462,-0.0853,241.0312
21:23:13:751,-2.2899,-0.6734,14.4838,40.0901,-0.0317,0.3176,0.2327,241.5
21:23:13:776,-1.4029,-0.6506,15.1351,40.8035,0.0085,0.1741,0.5997,241.6094
21:23:13:852,-0.869,-0.8038,16.6698,41.5145,0.0115,0.0012,0.8583,241.5625
21:23:13:852,-0.6487,-1.3162,17.1546,39.7575,0.2597,-0.1277,1.0165,241.0781
21:23:13:853,0.0444,-1.722,14.3677,40.7474,0.8245,-0.0193,1.2511,240.2188
21:23:13:853,0.9183,-1.424,10.027,39.5521,1.2671,0.2553,1.4982,238.4844
21:23:13:872,1.6844,-0.6973,7.166,41.8122,1.2442,0.3315,1.5994,236.75
21:23:13:895,1.8305,0.1263,6.8416,41.5002,0.8535,0.0998,1.4956,234.5625
21:23:13:911,1.4019,0.2496,8.2338,39.6726,0.2352,-0.4126,0.9866,232.3906
21:23:13:931,0.8788,-0.1359,9.237,41.789,0.2775,-0.3543,0.9091,232.3906
21:23:13:950,0.5592,-0.4675,9.2046,40.7119,0.4493,-0.2129,0.9355,228.8125
21:23:13:977,0.2886,-0.4998,8.1308,41.0576,0.6163,-0.0717,1.0146,227.6406
21:23:13:995,0.2982,-0.2891,6.4716,40.2737,0.6541,-0.0246,1.0934,226.5
21:23:14:012,0.6382,-0.0126,5.259,41.7085,0.5872,-0.1125,1.0948,225.25
21:23:14:029,0.9351,0.2197,4.834,39.9456,0.4828,-0.2518,1.0138,223.8594
21:23:14:051,1.0691,0.2699,4.9106,40.4735,0.3878,-0.3402,0.9214,222.4375
21:23:14:075,1.1565,0.2065,4.9358,39.0092,0.2791,-0.4052,0.8452,220.9531
21:23:14:092,1.3504,0.3166,5.1453,39.9531,0.1406,-0.4843,0.7584,219.6094
21:23:14:110,1.6749,0.5764,5.7498,40.6192,0.0011,-0.566,0.5962,217.3594
21:23:14:129,1.8903,0.7679,6.7745,41.0013,-0.127,-0.5466,0.3459,216.4375
21:23:14:149,1.5551,0.9116,7.8351,41.0817,-0.2567,-0.3461,0.1107,216.0469
21:23:14:174,1.0979,0.6949,8.5259,39.2704,-0.391,-0.0451,-0.044,215.5312
21:23:14:194,0.6465,0.6877,8.8814,40.5408,-0.5542,0.1972,-0.1119,215.3438
21:23:14:211,0.6681,0.7189,9.4572,39.8826,-0.6892,0.1749,-0.2009,215.4375
21:23:14:230,1.0344,0.5992,10.4352,38.84,-0.8021,-0.0379,-0.3665,215.7188
21:23:14:250,1.1673,0.1071,12.0657,39.6536,-0.8679,-0.1551,-0.4869,215.9219
21:23:14:275,1.39,-0.6949,13.5214,38.8447,-0.882,0.0031,-0.4786,216.4375
21:23:14:295,1.9981,-1.0816,13.7416,38.7359,-0.9968,0.3096,-0.4352,217.1875
21:23:14:310,2.5571,-0.8637,13.8386,39.6596,-1.2096,0.4231,-0.4917,218.0625
21:23:14:330,2.6828,-0.7009,15.3314,39.8991,-1.2038,0.4947,-0.6232,218.9688
21:23:14:349,2.1693,-1.2791,16.5752,38.2979,-0.8514,0.7514,-0.6243,219.9062
21:23:14:375,1.2882,-2.1171,15.2416,38.7833,-0.4003,1.0865,-0.3519,220.9531
21:23:14:392,0.9877,-2.1985,12.2082,40.5727,-0.0479,1.0361,0.0532,222.2031
21:23:14:410,2.0292,-1.9243,9.3315,39.8471,0.1566,0.4407,0.3113,223.7344
21:23:14:429,3.4155,-1.1414,7.5478,39.1538,0.122,-0.3751,0.2945,224.0781
21:23:14:450,4.3887,-0.3035,7.6735,40.4163,-0.0376,-0.8654,-0.0262,223.875
21:23:14:475,4.4306,0.1862,8.6671,39.4961,-0.1513,-0.8345,-0.509,223.4375
21:23:14:493,3.5747,0.1383,9.3255,40.8571,-0.1294,-0.3967,-0.8981,223.1562
21:23:14:511,2.836,-0.1024,8.7126,39.0617,-0.0695,0.1474,-1.1708,223.4062
21:23:14:529,1.8508,-0.2316,7.1169,41.341,-0.0727,0.5032,-1.3263,224.2344
21:23:14:550,0.935,-0.1933,5.8132,41.3178,-0.1193,0.5805,-1.3692,225.4531
21:23:14:577,0.3892,-0.0473,5.2267,40.4236,-0.1483,0.4612,-1.3455,226.8906
21:23:14:592,0.1677,0.1227,5.1668,39.8894,-0.1478,0.2574,-1.3229,228.5156
21:23:14:610,0.0947,0.4711,6.2921,42.0052,-0.2016,-0.0137,-1.3159,230.1719
21:23:14:630,-0.0154,0.4352,7.804,41.5907,-0.2647,-0.2331,-1.3378,231.6875
21:23:14:649,-0.4775,0.1035,8.6049,41.9336,-0.2573,-0.2941,-1.3655,233.2656
21:23:14:675,-1.1204,-0.0688,8.8251,38.5099,-0.2474,-0.2718,-1.3258,234.875
21:23:14:694,-1.1527,-0.009,9.4333,38.6295,-0.2855,-0.2648,-1.1724,236.5156
21:23:14:716,-0.6978,0.1706,10.5729,39.6969,-0.3558,-0.2552,-1.0235,238.875
21:23:14:729,-1.0486,0.1012,11.3833,40.0994,-0.4535,0.0279,-1.0129,240.3281
21:23:14:749,-2.5701,-0.2412,11.776,40.8093,-0.6075,0.495,-1.0509,241
21:23:14:768,-3.5732,-0.8027,12.5589,40.6677,-0.7563,0.8196,-0.8904,242.2344
21:23:14:792,-3.6044,-1.0409,13.5621,39.7229,-0.8687,0.9829,-0.4893,243.6406
21:23:14:808,-3.3218,-0.6003,15.0237,40.7991,-0.8448,0.8377,-0.0161,245.0625
21:23:14:829,-1.6255,-0.4734,16.7523,41.7537,-0.6711,0.4007,0.4114,246.1406
21:23:14:849,-1.3059,-1.0145,17.1282,42.467,-0.3374,0.0891,0.5259,246.7656
21:23:14:869,-3.1147,-2.0405,15.8545,41.771,0.1851,-0.1508,0.4718,246.7969
21:23:14:895,-3.5888,-2.9706,13.3502,41.9653,0.665,-0.2696,0.7214,246.4062
21:23:14:910,-2.3211,-3.0592,11.1116,41.5238,0.8759,-0.2049,1.1896,245.9062
21:23:14:930,-0.5565,-2.3984,9.6464,42.936,0.8464,-0.1586,1.5851,245.1094
21:23:14:949,-0.1795,-1.6251,9.2513,42.6334,0.726,-0.3642,1.6226,243.7344
21:23:14:971,-0.2489,-1.7388,9.6045,44.7729,0.6189,-0.7509,1.4846,241.875
21:23:14:993,-0.0382,-1.91,9.7505,42.5602,0.608,-1.0337,1.4223,239.7031
21:23:15:008,0.4227,-1.4874,9.1136,43.6593,0.7089,-1.1042,1.4343,236.6875
21:23:15:030,1.7383,-1.0816,7.6867,43.0823,0.9103,-1.1027,1.4484,234.8906
21:23:15:050,2.2962,-0.6997,6.2969,41.7913,1.0786,-1.1405,1.2908,232.9062
21:23:15:077,2.2219,-0.5824,4.8627,41.7913,1.1241,-1.1189,0.9986,230.8125
21:23:15:092,1.8939,-0.5956,4.1457,41.902,0.991,-1.0302,0.7201,228.9219
21:23:15:110,1.4019,-0.659,4.3683,42.5606,0.7151,-0.8513,0.5011,227.25
21:23:15:131,1.038,-0.7512,4.6832,43.0405,0.4184,-0.4928,0.3725,225.9219
21:23:15:150,0.9015,-0.6961,5.0052,41.7755,0.1729,-0.1221,0.3318,224.9844
21:23:15:170,0.9123,-0.6398,5.5415,44.9807,-0.0237,0.0705,0.3248,224.375
21:23:15:193,0.8201,-0.5345,6.1173,43.8349,-0.172,0.1213,0.3062,223.9062
21:23:15:208,0.6693,-0.6003,7.0307,44.163,-0.2914,0.0329,0.2775,223.5469
21:23:15:230,0.4179,-0.8446,8.6396,45.061,-0.4224,-0.064,0.2298,223.3125
21:23:15:251,0.2204,-1.0481,9.7852,43.2409,-0.5036,0.0127,0.2215,223.125
21:23:15:276,0.4251,-1.3593,10.1192,44.1136,-0.5497,0.2177,0.23,223.0625
21:23:15:294,0.9398,-1.8824,10.6184,44.553,-0.7081,0.3743,0.1944,223.0469
21:23:15:309,1.2595,-2.2452,12.1088,46.9622,-0.9843,0.5051,0.1336,223.0312
21:23:15:330,1.5707,-2.7982,13.258,46.5074,-1.1902,1.046,0.0726,223.1875
21:23:15:348,2.1417,-3.1466,13.1634,45.7516,-1.1848,1.2612,0.1219,223.1875
21:23:15:370,2.6517,-2.8449,12.6798,46.8426,-1.2402,1.2124,0.0945,224.0312
21:23:15:393,3.1054,-2.5037,12.8295,46.3906,-1.3484,1.0369,-0.0999,224.5781
21:23:15:410,2.6685,-2.5253,14.3354,46.5996,-1.3678,1.062,-0.2983,225.0938
21:23:15:428,1.3744,-2.991,15.663,47.6049,-1.1422,1.3144,-0.2216,225.6406
21:23:15:448,0.4718,-3.2699,15.6067,47.0232,-0.6301,1.3658,0.1392,226.4375
21:23:15:469,1.0428,-2.9862,13.9883,48.7567,-0.0013,0.887,0.5187,227.4844
21:23:15:494,2.9773,-2.0859,11.7545,48.2072,0.3934,0.1339,0.5794,228.3438
21:23:15:510,4.6556,-0.9667,10.7477,50.9175,0.5369,-0.3562,0.1722,228.6562
21:23:15:529,4.7598,-0.5489,10.5214,47.9964,0.5864,-0.2986,-0.4456,228.2188
21:23:15:548,3.5064,-0.7524,9.5901,49.6174,0.6059,0.1003,-0.9207,227.4531
21:23:15:569,1.7311,-0.9786,7.6304,51.653,0.5369,0.3996,-1.1476,227.0469
21:23:15:593,0.23,-1.0888,6.1209,50.987,0.4413,0.4513,-1.1623,227.6719
21:23:15:609,-0.7804,-1.1438,5.496,50.8155,0.4096,0.2958,-1.0217,228.7344
21:23:15:630,-1.3323,-1.0732,5.3703,50.5851,0.4658,0.0161,-0.7974,229.9219
21:23:15:648,-1.4376,-0.9583,5.7115,51.9892,0.5939,-0.2896,-0.5719,231.1094
21:23:15:671,-1.2712,-0.8266,5.9353,51.904,0.7116,-0.4704,-0.3961,232.0312
21:23:15:693,-0.9049,-0.683,6.0251,52.9759,0.7579,-0.5333,-0.2904,232.5938
21:23:15:712,-0.6224,-0.4734,6.1424,51.863,0.6852,-0.5277,-0.2821,232.8594
21:23:15:728,-0.7253,-0.3142,6.7075,52.8278,0.5553,-0.4694,-0.2917,232.9375
21:23:15:749,-0.7804,-0.2065,7.7537,52.7551,0.4522,-0.3351,-0.3023,232.9375
21:23:15:770,-1.0509,-0.0485,8.4612,52.3622,0.351,-0.1668,-0.3021,232.9844
21:23:15:792,-1.2904,-0.0293,9.0107,52.4286,0.1774,0.0345,-0.2829,233.0781
21:23:15:810,-1.4196,0.0293,9.8798,52.1426,0.0064,0.2827,-0.2549,233.2344
21:23:15:829,-1.4352,0.0605,10.7465,53.4685,-0.0903,0.4838,-0.2163,233.4375
21:23:15:849,-1.3227,0.0629,11.3139,53.1858,-0.1201,0.5799,-0.1766,233.6875
21:23:15:938,-1.3383,0.0976,11.4935,54.0043,-0.1542,0.5605,-0.1404,234
21:23:15:938,-1.4843,0.0233,11.7281,53.8522,-0.2112,0.4766,-0.0608,234.4219
21:23:15:939,-1.3921,0.003,12.0789,53.1107,-0.3361,0.3703,0.0665,234.6719
21:23:15:939,-1.045,0.3226,12.8091,54.8692,-0.518,0.1171,0.1438,234.8906
21:23:15:947,-0.1507,0.41,14.8526,55.1942,-0.6195,-0.1373,0.0087,235
21:23:15:969,-0.3363,-0.8362,17.9686,56.685,-0.2615,-0.0909,-0.142,235.0156
21:23:15:996,-2.2349,-2.4511,18.3158,54.3246,0.4615,0.1711,0.1925,235.0938
21:23:16:012,-1.2425,-3.052,9.7349,56.1382,0.9561,0.3999,0.8348,235.375
21:23:16:035,0.5616,-1.9878,7.1372,55.3401,0.9681,0.2343,1.2921,235.3906
21:23:16:047,0.8465,-0.9487,7.0929,54.9295,0.7039,-0.2678,1.2937,234.5625
21:23:16:069,0.0839,-0.8134,8.4852,53.8976,0.4663,-0.7943,1.0471,232.9688
21:23:16:093,-0.2896,-1.0648,9.316,55.3712,0.412,-0.9591,0.9318,231.2344
21:23:16:113,-0.5948,-1.1007,8.8694,54.4208,0.485,-0.7389,0.9683,229.6875
21:23:16:128,-0.6822,-0.8374,7.6101,52.8913,0.5904,-0.452,1.0846,228.375
21:23:16:153,-0.1771,-0.477,6.4285,53.8127,0.6392,-0.2659,1.246,227.1719
21:23:16:168,0.2371,0.0664,5.7917,53.795,0.612,-0.2475,1.3185,225.7656
21:23:16:191,0.8022,0.3274,5.5594,53.7217,0.5609,-0.3311,1.2966,223.3281
21:23:16:215,1.1206,0.4962,5.7234,53.366,0.494,-0.4523,1.18,221.6719
21:23:16:230,1.1038,0.6039,6.2047,52.255,0.4227,-0.5519,1.0074,219.9531
21:23:16:249,1.117,0.6686,6.4848,53.1983,0.3806,-0.5788,0.8324,218.3906
21:23:16:271,1.0667,0.7668,6.6967,53.3492,0.3286,-0.5453,0.6596,217.6875
21:23:16:290,0.9087,0.8134,7.0451,52.4752,0.2115,-0.463,0.4793,216.5
21:23:16:307,0.6849,0.756,7.7035,52.9967,0.0506,-0.3391,0.2969,215.4531
21:23:16:328,0.4191,0.4866,8.3535,52.0194,-0.1023,-0.1607,0.1374,214.6562
21:23:16:348,0.2766,-0.0413,9.1771,53.2545,-0.2354,-0.0377,0.0223,214.1406
21:23:16:368,0.4885,-0.8194,10.0737,53.6808,-0.3225,-0.0536,-0.0214,213.8906
21:23:16:392,1.2607,-1.3473,11.2577,52.3394,-0.4168,-0.1421,0.0324,213.8594
21:23:16:410,2.3512,-1.5413,12.6044,53.828,-0.5585,-0.051,0.1294,213.9844
21:23:16:428,3.522,-1.6586,13.2843,53.9102,-0.6786,0.3102,0.1424,214.125
21:23:16:452,4.4438,-1.6586,12.5062,53.0648,-0.7302,0.757,0.0322,214.2031
21:23:16:468,4.4282,-1.3342,11.5102,53.1125,-0.84,1.0417,-0.1977,214.375
21:23:16:493,3.8416,-1.0505,11.9209,54.1699,-1.0267,0.9664,-0.5053,214.7031
21:23:16:511,2.6912,-1.5712,13.507,54.3158,-1.0349,0.4505,-0.8874,215.3906
21:23:16:535,1.3265,-2.5947,14.0888,54.2055,-0.7667,0.0204,-1.1551,216.4688
21:23:16:548,0.7052,-3.0388,12.9552,54.6831,-0.3984,0.0468,-1.0997,217.8594
21:23:16:568,1.4809,-2.3876,11.2289,55.383,-0.1435,0.2494,-0.8057,219.4531
21:23:16:595,2.7379,-1.2468,10.4508,53.8271,-0.045,0.1813,-0.6187,220.875
21:23:16:617,3.2945,-0.7153,10.6064,54.4423,-0.0045,-0.1751,-0.7601,221.8438
21:23:16:628,2.4685,-0.75,10.4855,55.4058,0.0304,-0.3061,-1.1141,222.5781
21:23:16:651,1.0679,-1.0409,9.4141,54.5015,0.0605,-0.0227,-1.4108,223.4375
21:23:16:667,-0.1148,-1.0947,7.8519,53.8165,0.0985,0.3996,-1.489,224.6719
21:23:16:690,-0.7984,-0.8649,6.3017,55.9446,0.2277,0.5866,-1.1474,226.1719
21:23:16:710,-0.9887,-0.4328,5.229,54.0366,0.3135,0.2905,-0.9316,226.1719
21:23:16:729,-0.8139,0.0485,4.5587,55.1245,0.3577,-0.0587,-0.7854,227.8906
21:23:16:749,-0.5218,0.4687,4.4114,55.6094,0.3252,-0.3141,-0.7298,229.4531
21:23:16:770,-0.0729,0.7943,4.7287,56.3488,0.2229,-0.4326,-0.7825,230.6719
21:23:16:796,0.212,0.987,5.4445,54.0512,0.0727,-0.4342,-0.921,232.4062
21:23:16:810,0.1593,0.8949,6.5375,55.9526,-0.0932,-0.2888,-1.0826,233.0625
21:23:16:828,-0.5601,0.7201,7.7525,55.1132,-0.2431,-0.0259,-1.1495,233.8594
21:23:16:848,-1.4328,0.4304,9.1053,55.9914,-0.3284,0.2891,-1.0547,234.875
21:23:16:867,-1.6687,0.4184,10.3083,54.8073,-0.3031,0.5482,-0.8992,236.1562
21:23:16:893,-1.1348,0.7895,10.8135,55.8681,-0.2362,0.5831,-0.864,237.4844
21:23:16:910,-0.7648,0.9834,11.1463,55.0075,-0.2176,0.4537,-0.9609,238.8281
21:23:16:928,-0.9265,0.7476,11.7928,56.104,-0.269,0.4199,-1.0573,239.9688
21:23:16:947,-1.5968,0.2017,12.4883,56.0103,-0.3731,0.5259,-1.0454,241
21:23:16:967,-2.8191,-0.4902,13.5286,53.9243,-0.4101,0.7581,-0.7761,242.1719
21:23:16:991,-3.7061,-0.987,13.8973,54.6865,-0.392,0.8835,-0.1862,243.4844
21:23:17:011,-3.4787,-0.1981,14.181,53.9602,-0.2796,0.7189,0.4511,244.7969
21:23:17:032,-1.774,0.7356,14.5018,54.6294,-0.0911,0.3336,0.7126,246.0312
21:23:17:049,-0.6451,0.5501,15.0249,55.9854,0.1582,-0.0646,0.7118,245.9531
21:23:17:068,-0.9456,-0.5094,15.4188,54.1315,0.5225,-0.2813,0.7451,245.3125
21:23:17:092,-2.199,-1.5975,14.3019,55.1265,0.8392,-0.3548,1.0095,244.4844
21:23:17:112,-2.1822,-2.0488,12.6212,54.4519,0.9657,-0.3405,1.4386,243.5625
21:23:17:128,-0.0166,-1.5628,11.2062,54.6081,0.9673,-0.3823,1.539,242.375
21:23:17:148,1.105,-0.6267,10.039,54.7071,0.9121,-0.6113,1.2716,240.75
21:23:17:169,0.6454,-0.4711,9.7601,53.383,0.8245,-0.7748,1.0279,238.6406
21:23:17:191,-0.1723,-0.9188,10.0486,52.7351,0.8328,-0.639,0.9741,236.7031
21:23:17:208,-0.8044,-1.1761,9.4823,53.8586,0.9358,-0.366,1.1001,235.1875
21:23:17:229,-0.5553,-1.1414,7.7932,52.2657,0.9907,-0.1162,1.2423,233.7812
21:23:17:248,0.0205,-0.8948,5.909,52.2657,0.9297,-0.0177,1.29,232.2969
21:23:17:268,0.3353,-0.5321,4.5994,53.8306,0.8035,-0.0683,1.2484,231.4688
21:23:17:294,0.5628,-0.1873,3.9099,52.7708,0.6488,-0.2433,1.1456,229.7656
21:23:17:313,0.5927,0.07,3.9158,53.133,0.4834,-0.4544,1.0199,227.9531
21:23:17:332,0.5939,0.3717,4.5719,51.6614,0.3377,-0.6257,0.9158,226.2344
21:23:17:348,1.2487,0.8517,5.8731,51.6467,0.2309,-0.7247,0.7012,224.0469
21:23:17:368,1.7311,1.2432,7.3,51.9436,0.1111,-0.5943,0.3288,222.7969
21:23:17:394,1.1134,1.2372,8.4325,50.4126,-0.0258,-0.2113,-0.0302,221.7344
21:23:17:410,-0.5374,0.3526,9.4021,50.7148,-0.1563,0.2801,-0.2163,221.0781
21:23:17:428,-0.8259,0.2077,8.8192,50.0478,-0.1902,0.6758,-0.2536,220.9062
21:23:17:447,-0.5087,0.1933,8.1859,51.5034,-0.1862,0.7315,-0.2144,221.125
21:23:17:469,0.218,-0.1562,8.9951,50.1315,-0.2567,0.3893,-0.1921,221.4531
21:23:17:494,0.6741,-0.8302,10.3479,49.967,-0.3017,-0.0464,-0.2376,221.8125
21:23:17:511,1.0655,-1.4766,11.1116,51.6965,-0.3172,-0.239,-0.243,222.1094
21:23:17:527,1.7898,-1.8764,10.7058,51.9958,-0.4258,-0.0116,-0.1689,222.4688
21:23:17:547,2.5308,-1.6837,10.051,50.4506,-0.7175,0.3163,-0.0997,222.8438
21:23:17:569,2.9222,-1.321,10.8866,50.7424,-1.1891,0.4276,-0.1615,223.2344
21:23:17:595,2.3333,-1.7244,13.4376,49.6634,-1.6626,0.2992,-0.3828,223.5781
21:23:17:609,0.3509,-2.4056,15.5337,51.3019,-1.8245,0.3174,-0.5609,224.0469
21:23:17:627,-1.1096,-2.7551,15.1602,50.682,-1.554,0.5983,-0.3838,225.4688
21:23:17:647,-0.3291,-2.4367,12.9348,52.259,-1.004,0.7,0.1669,226.8125
21:23:17:668,1.9083,-1.3964,11.375,52.2639,-0.4916,0.2494,0.7462,227.8125
21:23:17:693,3.8895,-0.1095,10.7561,51.9083,-0.1188,-0.4867,0.9584,228.0312
21:23:17:710,4.3827,0.8877,10.039,51.5881,0.0858,-0.868,0.7027,227.375
21:23:17:728,4.2031,1.1331,9.2298,50.4267,0.0775,-0.6488,0.1856,226.8281
21:23:17:748,3.2934,1.1079,8.1727,54.2729,-0.069,-0.0139,-0.379,225.8125
21:23:17:768,1.9897,0.908,7.2617,52.292,-0.2392,0.6447,-0.8603,225.1562
21:23:17:793,0.546,0.4986,6.5411,52.4598,-0.2879,1.0044,-1.1788,225.2344
21:23:17:811,-0.6092,0.2304,6.1317,53.6974,-0.1824,0.9725,-1.272,226
21:23:17:828,-1.3071,0.1442,5.6923,51.5223,0.0077,0.7009,-1.1833,228.1875
21:23:17:847,-1.5597,0.2831,5.5738,52.836,0.1726,0.3528,-1.0227,229.7969
21:23:17:868,-1.4771,0.3358,6.1784,52.7624,0.2341,0.0417,-0.8725,231.1406
21:23:17:895,-1.6292,0.325,7.1253,53.8538,0.2317,-0.1442,-0.7958,232.2812
21:23:17:911,-1.6447,0.3154,7.7166,54.5575,0.224,-0.1471,-0.7375,233.2031
21:23:17:929,-1.8686,0.4304,8.1751,52.919,0.1526,-0.0587,-0.7234,233.9844
21:23:18:008,-2.0038,0.4435,9.2848,53.6978,-0.045,0.0912,-0.7508,234.75
21:23:18:009,-2.1511,0.2185,10.634,53.5735,-0.269,0.3339,-0.7873,235.5156
21:23:18:009,-3.11,-0.1478,11.794,55.4788,-0.4218,0.61,-0.8243,236.3906
21:23:18:009,-4.5453,-0.4974,12.8247,54.9839,-0.489,0.7626,-0.6805,237.3438
21:23:18:032,-4.5369,-0.5501,14.2109,52.8501,-0.4962,0.6841,-0.1678,238.4531
21:23:18:047,-2.2516,-0.0916,15.8928,53.085,-0.4163,0.4138,0.5656,239.4219
21:23:18:068,0.224,0.8829,16.8338,54.565,-0.1856,0.1538,1.1017,239.7812
21:23:18:094,1.8461,1.7424,15.9084,54.6347,0.1686,-0.0315,1.2066,239.2812
21:23:18:111,2.1776,1.4599,14.6371,54.4077,0.3031,-0.1069,0.2742,238.0781
21:23:18:128,0.7004,-0.1814,14.9016,55.562,0.3047,0.092,-0.1095,236.7188
21:23:18:148,-1.9129,-2.0273,15.244,54.9839,0.69,0.3642,0.0157,235.1875
21:23:18:168,-3.2392,-3.1154,12.9097,53.3443,1.0866,0.5134,0.5376,235.1875
21:23:18:193,-2.0517,-2.7791,9.4165,54.5775,1.1627,0.3946,0.9267,235.0156
21:23:18:212,-0.3483,-1.4826,7.0642,54.2871,0.9907,-0.0539,0.874,235.0156
21:23:18:227,0.291,-0.6027,6.6835,54.8405,0.7089,-0.5407,0.5517,234.1094
21:23:18:246,-0.0849,-0.9391,8.0734,53.2815,0.5135,-0.6616,0.3065,232.7188
21:23:18:266,-1.0581,-1.588,9.3327,55.6964,0.5172,-0.4723,0.3408,231.4844
21:23:18:289,-1.6615,-1.7807,9.3399,54.2778,0.6884,-0.2174,0.5533,230.6406
21:23:18:309,-1.4939,-1.5173,7.6376,53.4493,0.8013,-0.0925,0.7749,230.125
21:23:18:326,-0.9636,-1.1271,5.648,54.0586,0.7609,-0.1495,0.9041,229.5625
21:23:18:347,-0.4572,-0.7584,4.4545,52.8837,0.6522,-0.3317,0.935,228.75
21:23:18:367,-0.2094,-0.5692,3.8392,52.7265,0.5127,-0.5658,0.9139,226.3438
21:23:18:386,-0.1627,-0.4998,3.8141,52.0836,0.3705,-0.7855,0.8966,225.125
21:23:18:410,-0.1962,-0.556,4.1145,52.0856,0.2381,-0.9234,0.9099,224.5156
21:23:18:431,-0.1555,-0.5154,4.4605,54.2873,0.0767,-0.9618,0.9459,223.3281
21:23:18:446,0.1091,-0.4124,4.8041,54.3419,-0.1289,-0.9671,0.9512,222.2031
21:23:18:467,0.5077,-0.1945,5.7833,54.4668,-0.3167,-0.9279,0.894,221.125
21:23:18:489,1.026,0.1371,7.0247,53.4466,-0.4397,-0.8278,0.7305,220.0312
21:23:18:510,1.2164,0.483,8.0446,52.8876,-0.5593,-0.6467,0.4772,219.0312
21:23:18:528,1.3253,0.7979,8.5977,54.7091,-0.7667,-0.4672,0.1286,218.25
21:23:18:547,1.3145,0.7296,9.444,53.8873,-1.0535,-0.2717,-0.2677,217.7031
21:23:18:568,0.9805,0.2245,10.8243,54.5168,-1.3513,0.0697,-0.6198,217.5781
21:23:18:594,0.1462,-0.4256,12.438,55.1605,-1.5809,0.5901,-0.8411,217.7031
21:23:18:609,-0.4823,-0.9691,13.6124,56.028,-1.7311,1.1586,-0.9338,218.375
21:23:18:628,-0.4943,-1.2923,14.0553,54.3602,-1.8387,1.5094,-1.0049,219.6562
21:23:18:647,-0.0681,-1.6358,14.3797,55.5914,-1.9337,1.4407,-1.1178,221.3125
21:23:18:668,-0.0382,-1.9662,16.4902,56.306,-1.8155,1.32,-1.198,223.0781
21:23:18:693,-1.1132,-2.22,18.973,55.8032,-1.3326,1.4636,-1.0715,226.1406
21:23:18:711,-2.4947,-2.6282,19.6457,55.3753,-0.5886,1.8005,-0.5202,228.3281
21:23:18:728,-2.4336,-2.7743,17.8752,56.7122,0.3025,1.8591,0.2985,230.3125
21:23:18:747,-0.4524,-2.5229,14.6155,56.1606,1.1907,1.2548,1,231.8281
21:23:18:767,2.3428,-2.1051,10.9189,56.0131,1.743,0.2186,1.3049,232.2812
21:23:18:790,6.0311,-0.2723,7.6843,54.6649,1.8078,-0.6816,1.1885,231.4688
21:23:18:809,6.4022,0.3346,7.6759,55.4057,1.5928,-0.9999,0.7169,229.8438
21:23:18:828,5.6863,0.4088,6.7649,55.7853,1.2749,-0.5799,0.0559,227.8281
21:23:18:847,4.1493,0.4136,5.2769,55.1006,0.9041,0.1647,-0.5559,226.9062
21:23:18:866,2.6601,0.1969,4.5192,54.8089,0.5518,0.6311,-0.982,225.2344
21:23:18:887,1.3648,-0.2125,4.591,56.8985,0.3563,0.6018,-1.2092,225.2188
21:23:18:912,0.3389,-0.4232,4.7789,55.2481,0.3635,0.2209,-1.2573,225.9375
21:23:18:929,-0.1292,-0.5273,4.8651,52.919,0.4724,-0.2654,-1.174,227.0625
21:23:18:945,-0.2656,-0.4711,4.9777,54.9909,0.5164,-0.6222,-1.0627,228.4375
21:23:18:966,0.0372,-0.2364,5.399,55.4985,0.4051,-0.7855,-0.9846,229.7188
21:23:18:987,0.2276,-0.0365,6.4645,54.8329,0.1465,-0.7642,-1.0312,230.8594
21:23:19:011,-0.1352,-0.1167,7.7262,54.6696,-0.1598,-0.5455,-1.1892,231.8281
21:23:19:028,-1.1539,-0.404,9.1496,55.8645,-0.3856,-0.2331,-1.3554,232.875
21:23:19:047,-2.2672,-0.7308,10.1563,53.649,-0.461,0.034,-1.4035,234.1562
21:23:19:067,-3.0118,-0.9104,9.9516,54.6901,-0.3705,0.2191,-1.2845,235.6406
21:23:19:094,-3.2093,-0.7224,9.4129,55.6321,-0.3132,0.3099,-1.0573,237.375
21:23:19:111,-3.0477,-0.3705,9.6535,55.7745,-0.3947,0.2721,-0.8363,239.0625
21:23:19:131,-3.0525,-0.1526,10.4328,54.4778,-0.5334,0.1956,-0.7175,240.4375
21:23:19:147,-3.3745,-0.3394,11.3367,54.8489,-0.6623,0.1565,-0.6629,242.1094
21:23:19:167,-3.5912,-0.6099,11.952,55.8478,-0.7462,0.1711,-0.5657,243.0938
21:23:19:186,-3.3458,-0.5573,12.6654,56.1567,-0.8472,0.2058,-0.3987,243.9844
21:23:19:212,-2.5389,-0.5824,14.4827,55.5162,-0.9998,0.1219,-0.2608,244.8438
21:23:19:230,-1.847,-0.8625,17.1701,56.5735,-1.0836,-0.0073,-0.231,245.5469
21:23:19:247,-2.1559,-1.6861,19.2124,56.0474,-0.9276,0.0681,-0.2741,246.125
21:23:19:267,-2.8418,-2.797,18.5097,54.3352,-0.4535,0.4705,-0.179,246.6719
21:23:19:294,-1.9667,-3.0556,15.0489,55.6889,0.2202,0.8753,0.233,247.25
21:23:19:311,0.3856,-2.2643,11.9424,53.3655,0.7308,0.854,0.7307,247.5938
21:23:19:326,2.6792,-1.4802,10.792,52.3651,0.9492,0.3909,0.8996,247.2812
21:23:19:348,3.5866,-1.1522,10.5574,52.5891,0.9968,-0.0379,0.6476,246.25
21:23:19:367,3.5376,-1.3102,9.9277,52.7698,0.9657,-0.0076,0.2173,244.9844
21:23:19:387,2.8839,-1.5915,8.5953,52.1915,0.8916,0.3589,-0.1844,244.4375
21:23:19:416,2.1369,-1.7903,7.136,50.4554,0.8104,0.6929,-0.439,243.7188
21:23:19:432,1.5695,-1.8154,5.9485,50.9108,0.7774,0.7349,-0.5372,243.4844
21:23:19:447,1.2427,-1.6562,5.2458,50.9108,0.7625,0.5024,-0.5479,243.6406
21:23:19:469,1.1146,-1.4778,4.9525,49.827,0.7313,0.1325,-0.534,244.1719
21:23:19:495,0.8824,-1.3773,5.1848,49.2731,0.5361,-0.3325,-0.5519,244.5938
21:23:19:512,0.7938,-1.3641,5.6636,50.3908,0.465,-0.3394,-0.5271,245.0469
21:23:19:528,0.8022,-1.1546,5.5499,50.3908,0.4077,-0.3551,-0.5154,245.5156
21:23:19:546,1.0188,-0.7404,5.0603,50.1802,0.2701,-0.4952,-0.5806,246.0469
21:23:19:569,1.3181,-0.3837,5.2051,49.9091,0.0831,-0.6478,-0.7466,246.5781
21:23:19:594,1.4582,-0.2448,5.7713,49.1063,-0.1284,-0.7197,-0.9745,247.0781
21:23:19:613,1.2116,-0.3214,6.6787,47.8916,-0.3356,-0.6864,-1.2022,247.7344
21:23:19:631,0.7196,-0.5644,7.8327,50.2207,-0.4767,-0.5477,-1.3815,248.6406
21:23:19:645,-0.0154,-0.8912,8.8467,49.9738,-0.5563,-0.3812,-1.4741,249.875
21:23:19:665,-0.5721,-1.1331,9.4752,47.8223,-0.6232,-0.3562,-1.5029,251.3438
21:23:19:686,-0.7349,-1.3461,10.4951,48.1806,-0.6381,-0.4496,-1.5378,253.1094
21:23:19:712,-1.1491,-1.6514,11.849,49.2337,-0.5433,-0.5618,-1.5117,256.8281
21:23:19:728,-1.3969,-2.1326,13.1084,48.3916,-0.3321,-0.5128,-1.3639,258.8125
21:23:19:746,-0.9324,-2.402,12.8247,48.0268,-0.184,-0.4145,-1.1846,260.75
21:23:19:766,0.6154,-2.2751,11.7209,48.2228,-0.2562,-0.5311,-1.1695,261.6562
21:23:19:786,2.6744,-1.9016,11.5497,47.732,-0.588,-0.7929,-1.5069,263.1406
21:23:19:811,3.4813,-1.8405,13.4352,49.1957,-0.9734,-0.8073,-2.0755,264.5625
21:23:19:830,2.1046,-2.8413,16.8924,50.2358,-1.0131,-0.2395,-2.4307,266.25
21:23:19:847,-0.4668,-3.9929,19.0735,49.1065,-0.4506,0.8556,-2.1911,268.5
21:23:19:866,-1.5729,-4.2766,15.7851,49.7417,0.3105,1.4649,-1.5458,271.5312
21:23:19:886,-0.1783,-3.5751,10.4245,48.9705,0.7526,0.9501,-1.0456,273.0625
21:23:19:910,2.5691,-2.5516,7.1384,47.752,0.747,-0.2086,-1.0528,275.5625
21:23:19:927,4.1756,-1.5832,7.4281,47.2789,0.5222,-0.9498,-1.4515,276.9688
21:23:19:946,3.923,-1.5975,9.4584,49.2883,0.4733,-0.9234,-1.856,277.8438
21:23:19:966,2.7499,-1.9243,9.8223,49.9095,0.551,-0.403,-2.0512,278.9219
21:23:19:985,1.9562,-1.9411,7.7358,47.6715,0.4655,0.153,-2.1005,280.6562
21:23:20:009,1.5061,-1.5688,5.6516,49.4921,0.2016,0.3927,-2.1285,282.75
21:23:20:067,1.2188,-1.2348,5.1453,48.7278,-0.0234,0.3269,-2.1817,286.2031
21:23:20:067,0.7447,-1.2192,5.9725,48.5808,-0.0383,0.1402,-2.2113,288.3594
21:23:20:068,0.2,-1.4263,6.632,48.3668,0.0668,-0.0148,-2.1436,290.7188
21:23:20:091,-0.2896,-1.406,6.8044,47.6088,0.1308,-0.0486,-2.0076,293.1875
21:23:20:112,-0.4464,-1.3114,6.7015,47.1528,0.0932,-0.0483,-1.8864,295.6875
21:23:20:128,-0.529,-1.1642,6.9804,48.2401,-0.0128,0.0106,-1.8038,297.9375
21:23:20:147,-0.462,-1.0373,7.5562,47.7941,-0.1145,0.1048,-1.7538,300.1562
21:23:20:168,-0.2788,-0.9463,8.1608,48.8945,-0.1779,0.2119,-1.7777,302.2656
21:23:20:192,-1.2221,-0.9738,8.4552,48.1021,-0.2684,0.3315,-1.8094,304.1875
21:23:20:212,-1.9775,-1.0217,8.891,47.0182,-0.4064,0.4537,-1.7894,306.1719
21:23:20:230,-2.6622,-1.0445,9.3926,47.0847,-0.5454,0.5893,-1.6957,308.1719
21:23:20:246,-3.2069,-0.9786,10.1503,47.4138,-0.6767,0.6572,-1.5354,310.0625
21:23:20:265,-4.082,-0.8948,11.1703,47.6175,-0.7609,0.6183,-1.3343,311.9375
21:23:20:285,-4.2903,-0.9966,12.9492,48.988,-0.8219,0.4761,-1.0051,313.6562
21:23:20:311,-4.0018,-0.7679,14.752,46.2309,-0.8035,0.3775,-0.55,315.1406
21:23:20:328,-2.533,-0.0102,16.1311,46.5094,-0.6189,0.2798,-0.0123,316.2969
21:23:20:346,-0.3231,0.4711,16.7332,46.0845,-0.2921,0.1283,0.3699,317.3125
21:23:20:366,0.0959,0.2711,16.0473,47.3684,0.1129,0.026,0.3616,317.2656
21:23:20:387,-0.7421,-0.6458,15.6965,46.2529,0.4184,-0.0688,0.1954,316.8281
21:23:20:412,-1.3335,-1.7843,15.3625,44.5713,0.6613,-0.0097,0.1983,316.4062
21:23:20:428,-0.5601,-2.2906,13.3717,44.4662,1.024,0.1759,0.462,316.2812
21:23:20:453,1.1158,-1.752,10.8016,43.9388,1.3414,0.1813,0.7643,316.1094
21:23:20:465,2.3009,-0.9738,9.8559,43.1908,1.387,-0.1343,0.7773,316.1094
21:23:20:486,1.9885,-0.9691,10.6854,42.5774,1.2227,-0.4981,0.4359,314.9375
21:23:20:512,0.892,-1.4862,11.3534,42.9001,1.0687,-0.5112,0.0609,313.9688
21:23:20:530,0.1964,-2.0931,10.7728,43.6133,1.0205,-0.1136,-0.0685,313.3438
21:23:20:548,-0.2956,-2.147,8.7737,41.2908,1.0866,0.3546,-0.0033,313.2344
21:23:20:566,-0.2249,-1.8753,6.5782,41.6204,1.1532,0.6327,0.1896,313.3594
21:23:20:590,0.2048,-1.5449,4.743,42.8605,1.1697,0.5965,0.3794,313.3438
21:23:20:611,0.461,-1.1953,3.8045,41.4641,1.0719,0.328,0.4617,313.0156
21:23:20:627,0.613,-1.0086,3.862,40.4488,0.8706,0.0257,0.4609,312.0312
21:23:20:646,0.5735,-0.8051,4.5515,38.5464,0.6485,-0.1903,0.4327,311.3906
21:23:20:666,0.6274,-0.6219,4.9884,41.0263,0.502,-0.2608,0.4252,310.8281
21:23:20:686,0.8273,-0.2221,5.0351,38.7048,0.408,-0.2619,0.4268,310.3906
21:23:20:710,1.038,0.1873,5.1357,39.7796,0.2847,-0.2656,0.3954,310.0156
21:23:20:728,1.0607,0.5632,5.7821,38.7231,0.1089,-0.3138,0.2932,309.6094
21:23:20:746,0.7004,0.6806,6.5949,39.1667,-0.065,-0.3359,0.1315,309.2656
21:23:20:766,0.3185,0.6434,7.2091,39.8675,-0.2051,-0.2803,-0.0198,309.0625
21:23:20:786,0.0169,0.5884,7.5586,38.1798,-0.3321,-0.2387,-0.1314,309.0625
21:23:20:811,-0.1376,0.5321,8.1859,37.791,-0.5084,-0.2928,-0.2275,309.2188
21:23:20:826,-0.3997,0.0856,10.3706,37.0798,-0.7729,-0.5298,-0.3412,309.5
21:23:20:852,-0.9755,-0.5992,13.5429,38.2657,-0.9886,-0.7208,-0.4161,309.8906
21:23:20:865,-0.9456,-1.3521,16.1574,35.9825,-0.9374,-0.6526,-0.3159,309.8906
21:23:20:886,0.1031,-1.7831,15.5301,36.1886,-0.1625,-0.1413,0.2356,310.9844
21:23:20:912,1.8413,-0.9762,13.0413,36.7185,-0.1473,-0.1863,0.274,310.9844
21:23:20:928,3.607,0.0233,12.1004,37.1348,-0.3627,-0.3844,-0.0856,312.0781
21:23:20:949,3.8117,0.2987,12.9958,37.1833,-0.5718,-0.3072,-0.5742,312.3281
21:23:20:966,2.3991,-0.3382,14.4491,37.1161,-0.5531,0.2406,-0.8049,311.8906
21:23:20:985,0.9542,-1.005,13.9416,39.433,-0.3135,0.8423,-0.6571,312.1719
21:23:21:013,0.5963,-0.9176,11.515,38.1162,-0.037,0.9296,-0.3884,313.875
21:23:21:028,1.0117,-0.6351,8.8287,36.5255,0.1081,0.3632,-0.2366,313.875
21:23:21:047,1.6425,-0.4088,7.7885,37.7571,0.057,-0.2915,-0.1862,314.3281
21:23:21:065,2.1333,0.0617,8.7904,37.5347,0.0408,-0.5186,-0.2576,314.4375
21:23:21:089,2.0017,0.2292,9.5039,38.6461,0.1515,-0.3229,-0.3732,314.8594
21:23:21:111,1.5001,0.2388,8.5786,38.2653,0.2077,0.006,-0.4259,314.8594
21:23:21:129,1.1062,0.4004,7.1648,37.0949,0.1686,0.2516,-0.4525,315.3438
21:23:21:146,1.05,0.647,6.0946,38.176,0.0716,0.3549,-0.5082,315.8906
21:23:21:165,0.9769,0.9176,5.5714,36.8216,-0.0455,0.3269,-0.6041,316.5469
21:23:21:185,0.8321,1.0972,5.672,39.0456,-0.1401,0.2577,-0.7162,316.9688
21:23:21:213,0.5711,1.1774,6.1532,37.5546,-0.2075,0.1924,-0.8078,317.4688
21:23:21:230,0.3305,1.2959,6.9325,37.7838,-0.2421,0.1706,-0.8563,318.1094
21:23:21:246,0.1342,1.4084,7.8758,38.819,-0.2365,0.1738,-0.8816,318.875
21:23:21:266,-0.1771,1.5078,8.7018,38.0131,-0.2136,0.2028,-0.8717,319.7656
21:23:21:286,-0.2238,1.5485,9.5362,39.4456,-0.1843,0.2196,-0.8632,320.7031
21:23:21:311,-0.4955,1.5556,10.4915,40.7642,-0.1305,0.2819,-0.8536,321.5938
21:23:21:327,-0.8822,1.4323,11.0482,39.0763,-0.0772,0.3735,-0.7836,322.5156
21:23:21:345,-1.1132,1.157,11.0901,40.0032,-0.0858,0.3975,-0.6499,323.4062
21:23:21:365,-1.1838,0.817,11.6324,39.3745,-0.0905,0.2886,-0.4555,323.8281
21:23:21:385,-0.8259,0.4328,12.5996,40.2727,-0.0642,0.1392,-0.2323,324.5469
21:23:21:411,0.1785,0.1478,13.5537,39.4836,-0.004,0.0502,-0.1343,325.1562
21:23:21:431,0.2671,0.2077,13.8578,41.0561,0.024,-0.0054,-0.15,325.5625
21:23:21:445,0.1342,0.167,13.7656,40.5387,-0.0509,-0.0733,-0.1894,325.7812
21:23:21:465,0.23,-0.2711,14.254,41.0442,-0.1222,-0.17,-0.3327,325.9062
21:23:21:485,-1.1407,-1.2743,15.5792,43.5953,0.0743,-0.1961,-0.3244,326.1875
21:23:21:513,-2.8382,-2.4116,15.9132,43.0138,0.5215,-0.1072,0.0431,326.5
21:23:21:529,-2.9747,-2.8605,13.9248,44.1011,0.8775,0.0782,0.5573,326.9844
21:23:21:545,-1.3706,-2.3673,10.7202,43.9486,0.9132,0.0023,0.8255,327.2656
21:23:21:564,-0.0023,-1.3976,8.9137,45.2289,0.7281,-0.272,0.7608,326.9844
21:23:21:585,-0.1567,-1.0481,9.6164,44.8749,0.5976,-0.4289,0.5938,326.1562
21:23:21:610,-0.8283,-1.2288,8.9293,44.7747,0.5987,-0.3277,0.5097,325.3125
21:23:21:626,-1.0462,-1.1809,7.7478,44.7819,0.6221,-0.113,0.592,324.7031
21:23:21:644,-0.9468,-0.841,6.5112,44.7819,0.6288,0.0356,0.7518,324.2969
21:23:21:664,-0.5206,-0.4639,5.5415,46.0311,0.6088,0.063,0.8942,323.7969
21:23:21:684,-0.0969,-0.1766,5.0842,46.1318,0.5577,-0.0728,0.948,323.0469
21:23:21:707,-0.14,-0.0162,5.2327,44.8884,0.4743,-0.2616,0.9105,322.125
21:23:21:726,-0.11,0.0186,5.7067,44.9476,0.3832,-0.3807,0.8753,321.0625
21:23:21:744,0.0432,0.1574,6.1939,47.0383,0.3159,-0.4118,0.8703,320.0625
21:23:21:765,0.3209,0.4519,6.3914,46.5604,0.2732,-0.3873,0.8703,318.8125
21:23:21:784,0.6908,0.9224,6.7458,46.939,0.2147,-0.3908,0.8372,317.9844
21:23:21:805,1.0368,1.2695,7.6352,47.8367,0.13,-0.4433,0.7403,317.1562
21:23:21:824,1.1015,1.388,8.4744,49.1387,0.0567,-0.4273,0.5613,316.75
21:23:21:845,0.8524,1.4012,8.4924,50.3173,0.0123,-0.2486,0.3539,316.0469
21:23:21:864,0.5975,1.3533,8.3188,48.1321,-0.0903,0.0002,0.1531,315.5
21:23:21:886,0.3269,1.0337,8.7449,50.1332,-0.2711,0.1211,-0.0384,315.1406
21:23:21:910,0.1833,0.4016,9.5781,49.1674,-0.4354,0.0777,-0.1902,314.9219
21:23:21:926,0.1785,-0.3023,11.2972,48.1329,-0.5867,-0.0917,-0.2736,314.8281
21:23:21:944,0.3533,-1.0337,12.8618,50.5913,-0.6679,-0.2046,-0.268,314.9375
21:23:21:964,0.9303,-1.4946,13.1299,51.9893,-0.6349,-0.1141,-0.1607,315.2656
21:23:21:984,1.8185,-1.5161,12.2249,51.4004,-0.5987,0.0494,-0.0091,315.6875
21:23:22:005,2.4721,-1.145,11.7425,52.0589,-0.6578,0.0319,0.0569,316.0938
21:23:22:026,2.508,-1.0337,13.2018,51.611,-0.8221,-0.2363,-0.0262,316.2344
21:23:22:049,1.7,-1.2348,14.5222,52.1087,-0.9153,-0.2699,-0.1657,316.2031
21:23:22:064,0.9051,-1.3797,13.7476,53.5763,-0.8139,0.2119,-0.1628,316.4062
21:23:22:123,1.2427,-1.1343,11.0518,53.2956,-0.5766,0.7946,0.0484,316.7656
21:23:22:123,2.605,-0.489,9.0957,53.3593,-0.3888,0.8907,0.3137,316.9219
21:23:22:124,4.1145,0.3526,8.6492,53.6701,-0.2394,0.3344,0.3834,316.625
21:23:22:145,4.5503,0.8051,9.3447,52.7794,-0.1241,-0.4643,0.1488,315.9531
21:23:22:164,4.0056,0.5609,10.0031,52.8789,-0.0631,-0.8092,-0.2693,315.4375
21:23:22:184,2.8792,0.1598,9.626,52.9894,-0.0386,-0.5415,-0.6557,315.4375
21:23:22:204,1.6653,0.0174,8.1284,55.1843,-0.0687,0.1213,-0.8906,316.0469
21:23:22:228,0.8584,0.0485,6.5878,54.1933,-0.1489,0.666,-0.9687,316.9844
21:23:22:244,0.2814,0.1598,5.9258,55.1629,-0.2083,0.7909,-0.9594,317.9219
21:23:22:267,-0.0166,0.3166,5.7127,54.2204,-0.1577,0.5719,-0.889,318.7969
21:23:22:285,-0.0154,0.434,5.751,54.8583,0.0165,-0.0297,-0.7362,319.625
21:23:22:307,0.0803,0.483,6.0814,55.2779,-0.0282,-0.1186,-0.7141,319.625
21:23:22:325,0.1162,0.5824,6.9409,53.6893,-0.1257,-0.1162,-0.7122,320.8125
21:23:22:346,-0.1914,0.6566,8.4816,54.6916,-0.1531,-0.0648,-0.6952,320.8125
21:23:22:363,-0.3985,0.7165,9.8415,55.91,-0.0836,0.0337,-0.6472,322.0938
21:23:22:384,-0.3985,0.7679,10.3634,55.8037,-0.0139,0.1573,-0.6174,323.7656
21:23:22:405,-0.347,0.926,10.4424,55.7928,-0.0224,0.2689,-0.6374,324.5781
21:23:22:431,-0.608,0.8793,10.6591,56.6158,-0.0908,0.385,-0.6667,325.3125
21:23:22:446,-1.1754,0.6566,11.0242,56.5273,-0.1689,0.487,-0.607,325.9375
21:23:22:465,-1.8554,0.4807,11.4791,57.414,-0.2157,0.4646,-0.4203,326.5625
21:23:22:487,-1.9955,0.4352,12.4093,56.2412,-0.1979,0.3842,-0.1476,327.1875
21:23:22:512,-1.2197,0.3609,13.2317,58.8922,-0.1297,0.2931,0.0519,327.6719
21:23:22:530,-0.7217,0.5369,13.6339,58.016,-0.098,0.177,0.1456,327.9844
21:23:22:551,-0.3363,0.8015,14.1606,57.7904,-0.1097,0.0795,0.1022,328.0156
21:23:22:564,0.0253,0.1443,15.0142,58.2396,-0.0306,0.099,-0.1018,327.8594
21:23:22:583,-1.8087,-1.2959,15.4715,56.6399,0.2903,0.1743,-0.0395,327.625
21:23:22:605,-3.7145,-2.4427,14.1439,56.9411,0.6543,0.2255,0.4607,327.4844
21:23:22:628,-3.1255,-2.8102,11.6072,58.1411,0.7944,0.2409,1.0159,327.6094
21:23:22:644,-1.1347,-2.1326,9.2142,57.3433,0.6927,-0.0744,1.2114,327.375
21:23:22:664,0.1354,-1.0648,8.6875,57.1874,0.4836,-0.6036,1.0846,326.4375
21:23:22:684,0.224,-0.9296,10.4077,57.9869,0.4357,-0.8182,0.9131,325.1562
21:23:22:704,-0.4751,-1.4694,11.6994,57.8311,0.6133,-0.6377,0.9334,323.9688
21:23:22:734,-1.1072,-1.5664,10.8159,56.7722,0.8235,-0.2976,1.1512,323.1406
21:23:22:746,-0.7433,-1.3006,8.5809,57.1533,0.8898,-0.0403,1.3414,322.4219
21:23:22:765,-0.2501,-0.7308,6.6225,56.2036,0.8703,0.0143,1.4335,321.4688
21:23:22:785,0.382,-0.2987,5.2219,56.3559,0.7923,-0.1008,1.4261,320.0781
21:23:22:805,0.9374,0.0281,4.4833,56.0914,0.6578,-0.309,1.3214,318.4375
21:23:22:827,0.9626,0.2532,4.5982,56.9979,0.531,-0.4779,1.1984,317.5938
21:23:22:844,0.8345,0.2197,5.3009,56.1413,0.4538,-0.5325,1.1161,316.0469
21:23:22:870,0.8094,0.0868,5.9126,56.7752,0.3984,-0.4651,1.0719,314.6406
21:23:22:883,0.892,0.2316,6.2238,55.4115,0.2897,-0.358,1.0205,313.4375
21:23:22:905,1.0847,0.6614,6.7015,56.0904,0.1539,-0.3141,0.9102,312.4062
21:23:22:930,1.4115,1.1343,7.5359,55.8258,0.0828,-0.3064,0.7203,310.8281
21:23:22:950,1.6389,1.4515,8.3116,55.6723,0.0631,-0.2289,0.4804,309.8281
21:23:22:965,1.7251,1.6047,8.3475,55.7319,-0.0072,-0.084,0.2106,309.0469
21:23:22:985,1.7012,1.4419,8.539,57.3665,-0.2091,-0.0406,-0.076,308.4844
21:23:23:005,1.6785,0.7488,9.9851,56.7396,-0.4626,-0.0888,-0.3647,308.1406
21:23:23:028,1.7275,-0.2245,11.9951,56.4733,-0.6895,-0.1101,-0.5942,308.0938
21:23:23:044,2.0148,-0.987,13.2748,55.0628,-0.8125,0.0636,-0.701,308.4219
21:23:23:063,2.8983,-1.2887,12.681,55.6003,-0.8418,0.4457,-0.7087,309.125
21:23:23:087,3.3161,-1.0205,12.1327,56.1608,-0.9606,0.7035,-0.7806,310.0312
21:23:23:112,3.097,-1.2743,13.3861,57.7109,-1.1585,0.5935,-1.0038,310.7969
21:23:23:131,2.0029,-2.226,14.3713,57.3471,-1.1923,0.4217,-1.239,311.5
21:23:23:149,-0.0047,-2.9203,14.2851,56.9218,-1.0895,0.5914,-1.2725,312.3281
21:23:23:164,-0.681,-3.137,13.1168,56.1012,-0.8831,0.9304,-0.9098,313.5
21:23:23:186,0.6274,-2.6857,11.2589,55.4315,-0.5199,0.9072,-0.2837,314.9062
21:23:23:212,2.5595,-1.4587,9.6416,55.734,-0.1116,0.3128,0.2348,316.2812
21:23:23:228,4.0547,-0.258,8.9748,56.4095,0.1486,-0.5011,0.3914,316.2969
21:23:23:245,4.1948,0.3885,8.7114,56.0014,0.1896,-0.8909,0.1456,315.9219
21:23:23:265,3.5016,0.4699,8.0961,54.8317,0.1276,-0.7346,-0.2669,315.6406
21:23:23:285,2.5859,0.3382,7.0475,57.2002,0.0272,-0.2707,-0.6331,315.6562
21:23:23:311,1.4534,0.2436,5.8228,55.3846,-0.0887,0.2289,-0.8826,316.0156
21:23:23:332,0.6023,0.252,5.4386,56.2111,-0.2005,0.4606,-0.9844,316.7188
21:23:23:346,0.1091,0.3597,5.575,55.6883,-0.2149,0.3672,-0.9767,317.6094
21:23:23:364,-0.0885,0.4783,5.66,54.4043,-0.1209,0.1203,-0.9247,318.5156
21:23:23:385,-0.1328,0.5213,5.9988,55.0465,-0.0498,-0.1178,-0.8874,319.5
21:23:23:404,-0.4021,0.513,6.7195,54.4564,-0.0756,-0.2249,-0.8936,320.5156
21:23:23:429,-1.0988,0.4651,8.0877,55.0763,-0.1768,-0.2238,-0.9178,321.5
21:23:23:448,-1.4867,0.3382,9.7613,53.2862,-0.2344,-0.1948,-0.8763,322.5781
21:23:23:464,-1.422,0.5046,10.7046,54.0279,-0.1563,-0.1232,-0.7524,324.2656
21:23:23:486,-1.3167,0.7632,11.1834,54.8759,-0.0597,-0.0124,-0.6395,325.2812
21:23:23:504,-1.258,0.8745,11.2912,53.5922,-0.0024,0.1541,-0.5868,326.1875
21:23:23:524,-1.2616,0.8589,11.2098,54.2517,-0.0194,0.3876,-0.5748,326.9375
21:23:23:546,-1.4424,0.7225,11.2708,54.1616,-0.1212,0.6052,-0.5657,327.5469
21:23:23:564,-1.6854,0.4328,11.8406,53.526,-0.2682,0.6958,-0.5234,328.0469
21:23:23:588,-1.622,-0.1191,13.197,53.5261,-0.4099,0.5911,-0.415,328.4844
21:23:23:610,-1.2999,-0.501,14.9615,52.2099,-0.5071,0.4284,-0.2025,328.8281
21:23:23:626,-0.2525,-0.4675,16.4615,52.4753,-0.4834,0.3221,0.0857,329.0781
21:23:23:644,0.5077,-0.6626,17.3964,53.4544,-0.3223,0.2209,0.2551,329.1406
21:23:23:664,-0.4249,-1.4539,17.2922,53.5009,-0.0224,0.1842,0.2133,328.9062
21:23:23:684,-1.3347,-2.2739,15.0573,52.9737,0.8629,0.4494,0.7129,328.5469
21:23:23:704,-0.9109,-2.3218,11.2469,52.2944,1.0341,0.426,1.0562,328.5469
21:23:23:732,0.2778,-2.0034,8.0937,51.9086,0.9553,0.0327,1.1819,327.7969
21:23:23:749,0.8537,-1.2671,6.6608,51.3296,0.7388,-0.5325,1.1241,326.875
21:23:23:764,0.9805,-0.7751,7.2881,51.9927,0.5436,-0.888,0.9781,324.9688
21:23:23:783,0.6777,-0.7236,8.709,51.2999,0.4724,-0.7999,0.8569,324.3281
21:23:23:804,0.3604,-1.0277,9.225,52.1208,0.4719,-0.4915,0.8266,323.2656
21:23:23:830,-0.2357,-1.0253,8.8491,52.0428,0.506,-0.1671,0.89,322.5312
21:23:23:847,-0.4464,-0.8062,7.707,52.0428,0.5321,-0.0488,0.9861,321.8594
21:23:23:864,-0.2573,-0.6183,6.6991,51.0213,0.5529,-0.1287,1.0556,321.1094
21:23:23:883,0.0516,-0.489,6.0251,52.3397,0.546,-0.2789,1.0705,320.1875
21:23:23:903,0.1773,-0.3537,5.6636,50.7242,0.5007,-0.4116,1.0593,319.0781
21:23:23:930,0.3054,-0.2508,5.496,50.0456,0.4298,-0.4869,1.0362,317.9062
21:23:23:948,0.5209,-0.1383,5.3224,51.9227,0.3089,-0.5168,0.9789,316.7812
21:23:23:964,0.8118,0.0629,5.4266,49.9225,0.1579,-0.5444,0.8705,315.7656
21:23:23:984,0.9494,0.2711,5.7067,51.971,-0.0218,-0.5498,0.7131,314.75
21:23:24:004,0.8884,0.4316,6.3759,51.0387,-0.2264,-0.5351,0.5286,313.8281
21:23:24:029,0.6873,0.3765,7.6316,48.3397,-0.3949,-0.418,0.3547,312.5156
21:23:24:047,0.3401,0.264,8.9425,50.1202,-0.5076,-0.1543,0.2239,312.1719
21:23:24:063,0.2599,0.2412,9.5207,50.1735,-0.6778,0.0795,0.0897,312.0625
21:23:24:084,0.716,-0.0018,10.5202,48.6471,-0.905,0.2135,-0.121,311.9375
21:23:24:104,0.88,-0.7703,12.2117,49.4512,-1.0714,0.4162,-0.3013,311.8281
21:23:24:129,0.5496,-1.5664,13.9332,49.8183,-1.0285,0.6513,-0.3007,311.875
21:23:24:189,0.7327,-2.3757,14.4264,50.7002,-0.8418,0.8321,-0.1354,312.125
21:23:24:190,1.6785,-2.4535,13.5166,49.2418,-0.6786,0.7512,0.0226,312.4219
21:23:24:190,2.9893,-2.1183,12.5014,51.5035,-0.6069,0.3461,-0.0158,312.5156
21:23:24:210,3.4897,-1.7268,12.863,48.2896,-0.6117,-0.051,-0.1908,312.3438
21:23:24:233,2.9103,-1.9375,14.6359,50.0637,-0.4786,0.0609,-0.2738,312.1719
21:23:24:246,2.0795,-2.6223,15.0812,49.9394,-0.1278,0.5195,-0.0667,312.2969
21:23:24:265,1.8041,-2.7048,12.8354,50.2199,0.2325,0.7826,0.303,312.4844
21:23:24:284,2.6218,-2.0895,9.7373,49.8747,0.4421,0.442,0.5611,312.7969
21:23:24:304,4.0942,-1.0109,7.2905,49.1736,0.3814,-0.3298,0.4942,312.7031
21:23:24:328,5.344,0.3202,6.9373,48.8233,0.1278,-0.9778,0.0745,312.0938
21:23:24:346,5.678,1.0301,8.3547,48.9062,-0.0573,-1.1013,-0.5734,310.9844
21:23:24:371,4.6868,0.9643,9.4668,47.341,-0.1542,-0.5573,-1.1649,310.8281
21:23:24:383,1.0308,0.2688,8.5869,49.3611,-0.2786,0.2649,-1.5458,311.4844
21:23:24:406,-0.3614,0.1957,8.217,48.2736,-0.326,0.8335,-1.6555,312.8281
21:23:24:431,-1.282,0.1634,7.7442,47.8544,-0.142,0.9224,-1.5761,314.4062
21:23:24:452,-1.4352,0.2113,6.7027,46.8722,0.2083,0.6822,-1.3681,316.0781
21:23:24:464,-0.9827,0.5034,5.6325,46.9007,0.4882,0.3293,-1.15,317.6562
21:23:24:483,-0.5745,0.8434,5.5235,45.8967,0.5297,0.0276,-1.0582,319
21:23:24:503,-0.268,0.7308,6.5183,47.5991,0.3603,-0.1149,-1.113,320.25
21:23:24:529,-0.5841,0.4268,7.8842,46.071,0.1467,-0.0331,-1.236,321.4375
21:23:24:548,-1.2664,0.0784,8.9389,45.8256,-0.0069,0.1855,-1.3282,322.6094
21:23:24:563,-2.0326,-0.2747,9.2298,45.7972,-0.0573,0.4303,-1.3149,324
21:23:24:590,-2.4791,-0.4962,9.3136,46.6176,-0.0621,0.5544,-1.1788,325.4531
21:23:24:602,-2.8286,-0.6805,9.6895,46.1303,-0.0732,0.4859,-0.9719,327.4531
21:23:24:623,-3.1375,-0.9786,10.3107,44.4957,-0.0927,0.2705,-0.7426,328.5938
21:23:24:645,-3.2392,-1.333,11.4815,46.31,-0.139,0.0132,-0.464,329.5312
21:23:24:664,-3.0094,-1.5784,12.9109,44.3959,-0.1886,-0.1141,-0.1247,330.2812
21:23:24:689,-2.0326,-1.5413,13.4148,43.4028,-0.1673,-0.0017,0.258,330.7812
21:23:24:703,-0.9911,-0.7931,12.9731,43.9841,-0.1393,0.2146,0.5677,330.9375
21:23:24:723,-0.2238,-0.0617,12.9635,42.8039,-0.2187,0.352,0.6745,330.8438
21:23:24:746,-0.4189,0.1454,13.4902,43.3932,-0.376,0.462,0.5331,330.3125
21:23:24:763,-1.8099,-0.3849,14.7388,44.2603,-0.5508,0.667,0.2977,329.4844
21:23:24:784,-3.1854,-1.4012,15.2284,44.1953,-0.5116,0.9126,0.246,328.6094
21:23:24:803,-3.3625,-2.0249,12.8642,43.7452,-0.1417,1.1626,0.5198,327.9219
21:23:24:829,-2.4444,-1.5568,9.6523,43.0403,0.2469,1.1501,0.9653,327.375
21:23:24:848,-1.1383,-0.9128,8.4576,43.6114,0.3702,0.6327,1.2617,326.0469
21:23:24:865,-0.4704,-0.9774,9.5302,44.3149,0.3041,-0.0654,1.2423,324.5781
21:23:24:883,-0.6535,-1.3018,10.7609,44.8394,0.2613,-0.4337,1.0791,323.0312
21:23:24:904,-1.0043,-1.5006,10.9476,42.236,0.3111,-0.3274,0.9834,321.6719
21:23:24:930,-1.3837,-1.6921,9.9887,43.975,0.425,-0.0054,0.9653,320.6094
21:23:24:949,-1.2892,-1.7915,8.5785,45.3171,0.5457,0.2662,1.062,319.6562
21:23:24:965,-0.8486,-1.5652,7.4006,44.8093,0.6346,0.3797,1.2341,318.5781
21:23:24:984,-0.0526,-1.3497,6.4728,42.7447,0.7252,0.3038,1.3835,317.2969
21:23:25:004,0.5699,-1.084,5.7941,43.6091,0.8008,0.1078,1.4431,315.7656
21:23:25:031,1.1757,-0.896,5.3655,42.4434,0.8091,-0.0632,1.4215,314.1719
21:23:25:047,1.621,-0.6734,5.0579,43.9788,0.7662,-0.1692,1.3302,312.5156
21:23:25:066,1.925,-0.3729,4.591,42.5915,0.5132,-0.2483,0.9643,310.9219
21:23:25:086,2.0747,0.0401,4.2822,42.8801,0.2586,-0.308,0.6652,309.5625
21:23:25:113,1.8161,0.2592,4.597,43.416,-0.0104,-0.3215,0.3302,308.2969
21:23:25:132,1.2224,0.1107,5.071,44.4723,-0.2724,-0.2616,0.0649,307.2969
21:23:25:146,0.4131,-0.1419,5.5511,43.6133,-0.5524,-0.2089,-0.0912,306.4531
21:23:25:173,-0.1136,-0.3274,6.5219,42.0677,-0.776,-0.2784,-0.1836,306.4531
21:23:25:182,-0.1483,-0.592,7.7478,42.6438,-0.9478,-0.5873,-0.2856,306.5
21:23:25:205,-0.1352,-0.9319,9.7314,43.5268,-1.0757,-0.9269,-0.3902,306.7188
21:23:25:229,-0.8642,-1.4096,12.3051,43.8314,-1.0512,-0.9879,-0.3412,307.0625
21:23:25:248,-1.3502,-2.0524,14.248,41.9823,-0.8658,-0.7652,-0.0778,308.5469
21:23:25:267,-0.541,-2.226,14.005,43.6066,-0.7952,-0.5479,0.1632,308.5469
21:23:25:283,0.5855,-1.6035,13.5333,43.9485,-0.9702,-0.4965,0.1619,309.3281
21:23:25:310,1.4797,-1.2959,14.7292,42.8818,-1.1241,-0.3791,-0.0427,309.75
21:23:25:333,1.6234,-1.4898,16.2939,43.9072,-1.0717,-0.0694,-0.2283,309.8281
21:23:25:348,0.9039,-1.2144,17.3365,43.4968,-0.7318,0.3637,-0.2619,309.875
21:23:25:364,-0.1459,-1.0026,16.7248,44.3992,-0.13,0.7272,-0.0765,310.1562
21:23:25:383,-0.4464,-0.829,13.7548,44.9546,0.4277,0.7275,0.2702,310.75
21:23:25:403,0.5687,-0.2292,10.5059,45.3621,0.7758,0.2721,0.5182,310.625
21:23:25:428,2.4147,0.6387,8.1643,46.2443,0.8008,-0.3748,0.4207,310.3906
21:23:25:446,3.6908,1.4252,7.5921,45.1512,0.5936,-0.7948,0.017,309.6875
21:23:25:463,3.8955,1.6801,8.6085,46.1647,0.4221,-0.7562,-0.5007,309.0938
21:23:25:483,3.2502,1.2635,9.3902,45.2689,0.3702,-0.2273,-0.9529,308.9688
21:23:25:503,1.9466,0.6039,8.545,46.1297,0.3241,0.4702,-1.1985,309.5
21:23:25:529,0.722,0.2735,6.8403,47.6567,0.2362,0.9794,-1.2494,310.5156
21:23:25:549,-0.0226,0.1778,5.3392,44.7985,0.1617,1.0337,-1.2078,311.6562
21:23:25:565,-0.3913,0.1634,4.6413,48.1888,0.1491,0.704,-1.1359,312.7812
21:23:25:584,-0.5709,0.1586,4.6269,46.2617,0.1553,0.2196,-1.0597,313.7969
21:23:25:604,-0.7648,0.2089,5.4661,46.7383,0.1497,-0.1674,-0.9769,314.75
21:23:25:629,-0.9504,0.173,6.6811,47.2502,0.1214,-0.2835,-0.872,315.8281
21:23:25:645,-1.0761,0.149,7.986,47.16,0.0868,-0.2265,-0.7418,316.4062
21:23:25:663,-1.1623,0.1742,9.2298,46.6869,0.0892,-0.0638,-0.5937,317.5938
21:23:25:683,-0.7924,0.4375,10.355,47.6855,0.1558,0.103,-0.5007,318.6406
21:23:25:705,-0.4847,0.7153,10.7285,49.925,0.2365,0.2351,-0.5191,319.5781
21:23:25:730,-1.039,0.7632,10.1898,47.9007,0.2051,0.2811,-0.5173,320.5625
21:23:25:745,-1.8003,0.562,9.8068,48.2468,0.0631,0.2446,-0.3923,321.0469
21:23:25:763,-2.1655,0.3992,10.2736,47.7941,-0.065,0.0984,-0.1947,321.5625
21:23:25:783,-1.3682,-0.003,12.4907,48.8799,-0.0786,-0.0337,0.0191,322
21:23:25:803,-0.6356,0.0246,12.3458,47.7586,0.0075,-0.0957,0.1848,322.25
21:23:25:829,-0.122,0.2819,12.4404,48.7184,-0.0184,-0.1413,0.2556,322.3438
21:23:25:846,-0.0394,0.1646,12.8833,47.3559,-0.1324,-0.1636,0.1935,322.2344
21:23:25:862,-0.3387,-0.0389,13.0928,48.8825,-0.212,-0.105,0.0884,322.0312
21:23:25:882,-0.8594,-0.4184,13.6399,49.481,-0.2306,-0.0566,0.0218,321.8125
21:23:25:902,-1.3407,-1.0433,13.0797,50.7745,-0.0612,0.0047,0.0322,321.7031
21:23:25:923,-1.2078,-1.2935,10.6172,48.2898,0.2312,0.1378,0.1704,321.6719
21:23:25:946,-0.6523,-0.9655,8.6324,48.3852,0.3515,0.1062,0.3427,321.6562
21:23:25:964,-0.2238,-0.7284,8.4696,48.6234,0.2298,-0.2049,0.3746,321.5312
21:23:25:982,-0.213,-0.9439,9.5135,50.5292,0.0314,-0.5215,0.2697,321.1875
21:23:26:002,-0.6535,-1.1259,9.8259,48.8018,-0.0716,-0.5394,0.1826,320.6406
21:23:26:023,-1.185,-1.1079,9.3986,50.7887,-0.0836,-0.3208,0.197,320.5469
21:23:26:046,-1.3227,-1.1103,8.4756,50.7886,-0.0378,-0.0909,0.3195,320.5469
21:23:26:063,-1.1024,-1.005,7.3216,48.9769,0.045,0.0409,0.5051,320.4531
21:23:26:086,-0.5326,-0.7009,6.3232,49.8907,0.1294,0.0119,0.7014,320.125
21:23:26:105,-0.0154,-0.2759,6.3292,52.065,0.1606,-0.1293,0.8064,319.5312
21:23:26:132,0.3748,-0.1466,6.3424,49.5829,0.1784,-0.203,0.7976,318.7188
21:23:26:149,0.4981,-0.3166,5.6469,50.6628,0.1835,-0.1311,0.728,318.3125
21:23:26:164,0.4215,-0.252,5.0615,52.2047,0.0786,-0.055,0.6822,317.4531
21:23:26:187,0.479,0.1311,5.2398,50.7794,-0.1148,-0.0986,0.683,316.6406
21:23:26:201,0.2934,0.4268,6.2107,50.2359,-0.323,-0.2129,0.6388,315.9219
21:23:26:259,-0.1771,0.5381,7.834,51.4596,-0.4735,-0.3833,0.5491,315.1562
21:23:26:260,-0.2824,0.5441,9.1591,51.5561,-0.527,-0.4824,0.5081,314.4531
21:23:26:262,-0.013,0.7907,9.9744,50.2838,-0.4916,-0.455,0.4921,313.9062
21:23:26:288,0.3425,0.9583,10.6543,51.0341,-0.4338,-0.4707,0.4093,313
21:23:26:314,0.4215,0.6411,11.6419,53.1094,-0.5822,-0.5884,-0.0296,312.7344
21:23:26:325,0.0863,-0.1275,13.592,53.0909,-0.6429,-0.3895,-0.1332,312.7344
21:23:26:347,-0.2273,-0.9798,15.2033,54.2591,-0.5121,0.0135,-0.0267,313.0312
21:23:26:364,0.4131,-1.5353,15.0177,53.8333,-0.2767,0.34,0.1613,313.375
21:23:26:386,1.5611,-1.2695,13.3598,54.8789,-0.1281,0.2782,0.1946,313.4375
21:23:26:411,2.7882,-0.92,12.1351,54.9575,-0.1497,-0.0368,-0.0467,313.1719
21:23:26:424,2.8995,-0.9236,12.1794,55.5426,-0.3057,-0.2401,-0.4115,312.875
21:23:26:445,1.8221,-1.6682,13.8697,52.0646,-0.3545,0.014,-0.5881,312.875
21:23:26:463,0.5412,-2.797,14.7939,54.7845,-0.1539,0.6431,-0.407,312.9375
21:23:26:483,0.2707,-3.2974,13.1646,52.8726,0.1848,0.9917,-0.0091,313.5156
21:23:26:507,1.3768,-3.07,10.118,54.0571,0.3965,0.5909,0.3025,314.2031
21:23:26:531,2.9929,-2.2523,8.2242,55.2666,0.3872,-0.2054,0.2995,314.1719
21:23:26:547,3.5423,-1.1953,8.6145,55.4746,0.3276,-0.6499,0.009,314.1719
21:23:26:563,2.7187,-1.1187,9.4057,55.4867,0.3696,-0.4595,-0.2427,313.6094
21:23:26:583,1.6234,-1.2528,8.5031,54.4666,0.3918,0.0425,-0.2957,313.3438
21:23:26:602,0.9051,-0.9774,6.3424,55.7916,0.2639,0.4577,-0.2512,313.4844
21:23:26:622,0.6717,-0.4495,4.7311,56.3466,0.0716,0.4947,-0.2262,313.8906
21:23:26:645,0.6729,0.0114,4.4354,56.1739,-0.0543,0.2572,-0.2432,314.1875
21:23:26:663,0.6801,0.2963,5.1884,58.1798,-0.037,-0.0102,-0.2928,314.2969
21:23:26:682,0.4598,0.3849,5.9162,55.2034,0.0413,-0.0989,-0.3332,314.375
21:23:26:702,0.2276,0.4292,5.9736,55.8472,0.0083,-0.0137,-0.3204,314.5625
21:23:26:722,0.1988,0.6566,6.231,57.2654,-0.0921,0.0465,-0.276,314.9062
21:23:26:747,0.2419,1.0816,7.2258,57.1897,-0.1044,-0.0726,-0.2206,315.2969
21:23:26:764,0.4215,1.4826,8.885,56.2796,-0.0051,-0.2504,-0.1279,315.6719
21:23:26:783,1.5156,1.8034,10.8351,56.3229,0.2021,-0.3825,-0.1015,315.9688
21:23:26:803,2.8169,2.3864,12.1076,57.6202,0.3702,-0.3362,-0.326,316.25
21:23:26:824,3.1557,2.6486,12.3063,57.0492,0.3555,-0.0166,-0.7205,316.4844
21:23:26:847,2.0484,2.1973,11.9891,56.945,0.1617,0.4769,-1.0009,316.7188
21:23:26:864,0.6046,1.5281,11.715,57.7064,-0.0818,0.8457,-1.0296,317.5312
21:23:26:882,-0.5494,0.987,12.4727,56.8324,-0.118,0.8713,-0.8779,318.4531
21:23:26:902,-1.215,0.2125,13.1826,58.6939,0.0908,0.6787,-0.5974,319.4062
21:23:26:922,-1.4807,-0.1012,12.5134,58.7277,0.2384,0.4809,-0.2821,320.1406
21:23:26:949,-1.5154,0.1694,11.6611,57.0936,0.2184,0.1709,-0.0696,320.7188
21:23:26:963,-1.2904,0.1251,12.1687,60.4914,0.1912,-0.1168,-0.0003,321
21:23:26:982,-1.422,-0.3226,13.4735,58.8747,0.3033,-0.2925,0.086,321.0625
21:23:27:002,-1.276,-0.9152,14.2552,58.0169,0.5425,-0.3255,0.1997,321.0938
21:23:27:024,-0.5697,-1.5808,13.5944,57.8418,0.7143,-0.3165,0.226,321.1406
21:23:27:047,0.121,-1.9698,11.928,57.8781,0.6517,-0.361,0.1571,321.0938
21:23:27:065,0.3329,-1.7962,10.8255,58.9684,0.396,-0.4576,0.0013,320.9688
21:23:27:084,0.2503,-1.886,10.9907,58.6361,0.1947,-0.4433,-0.1601,320.875
21:23:27:102,-0.2561,-2.1434,10.8734,58.1585,0.1635,-0.2827,-0.1628,320.9375
21:23:27:123,-0.7433,-2.1087,9.7218,57.5647,0.2642,-0.1045,-0.0001,321.0469
21:23:27:147,-1.0126,-1.8286,7.8076,56.1967,0.3494,-0.0315,0.2545,321.4062
21:23:27:164,-0.7193,-0.9595,5.1764,57.6599,0.3649,-0.0784,0.5118,321.75
21:23:27:187,-0.2633,-0.5752,4.9561,57.2529,0.3736,-0.227,0.7305,321.6406
21:23:27:202,0.303,-0.2137,4.7119,58.977,0.42,-0.3825,0.8956,321.2188
21:23:27:224,1.0021,0.1778,4.682,57.1235,0.4447,-0.5482,0.9994,320.5625
21:23:27:250,1.536,0.5537,4.7299,57.521,0.4256,-0.671,1.0149,319.7344
21:23:27:267,1.9047,0.8769,5.1177,58.5136,0.3252,-0.7024,0.9398,318.875
21:23:27:283,2.1836,1.2504,5.7031,56.6357,0.1686,-0.6534,0.809,317.9531
21:23:27:305,2.2004,1.5137,6.571,56.7633,-0.0139,-0.569,0.629,317.0938
21:23:27:330,2.0723,1.5939,7.7094,57.7851,-0.1768,-0.4723,0.4093,316.4062
21:23:27:347,2.0112,1.5796,8.0554,58.8165,-0.2599,-0.2946,0.1837,315.8438
21:23:27:364,1.7551,1.3904,7.9513,58.076,-0.3324,-0.1479,-0.0778,315.5
21:23:27:382,1.7072,1.0672,8.6228,58.1322,-0.5113,-0.1879,-0.3298,315.3438
21:23:27:403,1.4007,0.4148,11.0613,58.1318,-0.8187,-0.435,-0.5828,315.4219
21:23:27:422,0.4335,-0.5477,14.4898,57.7219,-1.0394,-0.6108,-0.7852,316.0625
21:23:27:446,0.0157,-1.752,15.9192,57.8442,-0.9092,-0.4259,-0.7572,316.9531
21:23:27:463,0.6298,-2.1326,13.9368,58.239,-0.5468,0.0793,-0.4589,318.2344
21:23:27:482,2.1465,-1.4263,11.7066,57.2529,-0.3483,0.4026,-0.0863,319.375
21:23:27:504,3.4813,-0.89,10.6926,57.9951,-0.3891,0.238,-0.0054,319.9375
21:23:27:530,3.3604,-1.0169,11.5581,58.4204,-0.6346,-0.0664,-0.2701,319.9219
21:23:27:548,2.0998,-2.1602,13.6614,57.9017,-0.9457,-0.1383,-0.6033,319.8594
21:23:27:567,0.7866,-2.8952,14.479,58.5667,-1.0421,0.2521,-0.66,320
21:23:27:583,0.953,-2.9527,12.3734,57.7596,-0.881,0.9309,-0.3527,320.6562
21:23:27:602,2.0579,-2.2883,10.2281,56.7255,-0.7366,1.2186,0.0266,321.4844
21:23:27:622,2.8803,-1.5149,9.7505,57.4215,-0.6956,0.9038,0.2218,321.9844
21:23:27:646,2.9665,-0.9475,10.0199,59.8828,-0.5755,0.3349,0.2122,321.8125
21:23:27:663,2.4458,-0.6279,9.6356,57.4714,-0.3297,0.0244,0.0958,321.3438
21:23:27:682,1.8891,-0.2927,7.9764,57.9306,-0.0498,0.0814,0.0034,320.7812
21:23:27:703,1.6174,0.1107,6.31,57.5855,0.0996,0.2257,-0.0352,320.6719
21:23:27:722,1.6725,0.5046,5.423,56.2572,0.1004,0.2753,-0.0605,320.6562
21:23:27:744,1.8233,0.8458,5.5032,58.2979,0.0384,0.1562,-0.1159,320.6094
21:23:27:762,1.8616,0.987,6.3017,56.4476,-0.0019,-0.0254,-0.2235,320.5938
21:23:27:781,1.706,0.9355,6.9936,55.0699,0.0208,-0.1176,-0.3423,320.6719
21:23:27:802,1.5623,0.8625,7.5454,54.8173,0.0783,-0.1066,-0.4275,320.9375
21:23:27:823,1.4618,0.8853,8.2948,55.0453,0.118,-0.0744,-0.4691,321.3594
21:23:27:848,1.3708,0.8841,9.0777,56.7431,0.18,-0.1002,-0.4864,321.875
21:23:27:866,1.3409,0.9858,9.5757,54.4937,0.3811,-0.3258,-0.4978,322.4062
21:23:27:883,1.1948,1.0014,9.8941,54.8249,0.4131,-0.4526,-0.541,322.4062
21:23:27:903,0.7375,0.7009,10.3072,54.478,0.351,-0.4441,-0.5367,322.9844
21:23:27:933,0.3425,0.2233,11.1296,53.2758,0.2629,-0.3397,-0.4467,324.2188
21:23:27:951,0.2982,-0.1407,12.0022,53.6824,0.2232,-0.1876,-0.3133,324.9844
21:23:27:965,0.6011,-0.3885,12.3554,52.9657,0.172,-0.0214,-0.2384,325.7344
21:23:27:981,1.0248,-0.7213,12.1232,52.6301,0.0285,0.1088,-0.239,326.3281
21:23:28:002,1.2164,-0.9726,11.8993,51.456,-0.224,0.1336,-0.2752,326.7344
21:23:28:021,1.0536,-1.1355,12.6535,50.8321,-0.4349,-0.0835,-0.3074,327.0156
21:23:28:045,0.5568,-1.3761,14.4024,50.3727,-0.4272,-0.3242,-0.2509,327.25
21:23:28:062,-0.031,-1.8142,16.2639,49.7514,-0.098,-0.1948,-0.0941,327.5156
21:23:28:081,-0.511,-2.457,15.6618,48.2814,0.3774,0.2212,0.1701,327.9062
21:23:28:101,-0.1316,-2.7192,11.7736,47.2757,0.5302,0.4241,0.4183,328.3125
21:23:28:121,0.3557,-2.3457,8.4493,50.7918,0.3009,0.1187,0.5438,328.4844
21:23:28:147,0.8477,-1.9136,8.0051,49.5927,0.0426,-0.4291,0.5661,328.2031
21:23:28:163,1.196,-1.7304,9.4931,50.7265,0.0029,-0.7386,0.5342,327.5625
21:23:28:181,1.1481,-1.4515,10.4197,49.0617,0.1113,-0.6505,0.5187,326.8906
21:23:28:202,0.9183,-1.2396,10.0977,47.6754,0.2477,-0.3335,0.5355,326.4219
21:23:28:222,0.3832,-1.1235,8.7821,47.7334,0.3055,-0.0225,0.6386,326.0625
21:23:28:246,0.1462,-0.9343,7.6137,47.7335,0.3412,0.1142,0.8053,325.4844
21:23:28:263,0.5903,-0.568,7.0486,48.3338,0.4115,0.0782,0.915,324.875
21:23:28:342,1.135,-0.094,7.0786,47.3256,0.5721,-0.0587,0.9126,323.9844
21:23:28:342,0.9386,-0.0078,6.9445,47.7629,0.7595,-0.1956,0.915,322.9219
21:23:28:343,0.6765,-0.1239,6.5052,48.9516,0.8559,-0.2598,1.0034,321.8594
21:23:28:343,1.0931,-0.0592,5.8743,46.4925,0.8056,-0.272,1.082,320.8281
21:23:28:360,1.8879,0.5261,5.4014,45.1801,0.633,-0.3506,1.0098,319.7344
21:23:28:381,2.532,1.2576,5.3332,45.2444,0.3369,-0.5165,0.735,318.5938
21:23:28:401,2.5284,1.5437,6.3771,46.5712,0.0016,-0.5751,0.3786,317.3906
21:23:28:420,1.9753,1.1079,8.563,45.0945,-0.1949,-0.3162,0.1107,316.4844
21:23:28:448,1.19,0.3777,10.0474,46.1095,-0.2551,0.0939,0.0138,316.0625
21:23:28:466,0.7495,0.1263,10.4077,45.4077,-0.2746,0.2446,0.0111,316.0312
21:23:28:482,0.9901,-0.0712,10.4544,46.2627,-0.318,0.0569,-0.0368,316.0469
21:23:28:501,1.293,-0.4495,11.2984,45.2135,-0.3659,-0.1191,-0.118,316
21:23:28:521,1.4043,-1.0972,12.4272,44.9342,-0.3702,0.0135,-0.138,315.9688
21:23:28:544,1.8903,-1.898,12.1279,45.5713,-0.4605,0.3128,-0.1194,316.0469
21:23:28:562,2.4242,-1.6825,11.4073,45.6523,-0.7412,0.4193,-0.1319,316.4062
21:23:28:581,2.2112,-1.7831,13.3143,45.6791,-1.0072,0.2817,-0.2262,316.5312
21:23:28:601,1.451,-2.3074,14.6119,47.3497,-1.0405,0.3043,-0.3215,316.6094
21:23:28:621,0.7244,-2.7539,13.4974,45.6492,-0.8085,0.6654,-0.2651,316.7969
21:23:28:647,1.1481,-2.9993,10.8064,45.295,-0.5326,1.0569,-0.0304,317.1562
21:23:28:666,2.5523,-2.7767,9.6009,46.8838,-0.4911,0.985,0.2774,317.5
21:23:28:682,3.5651,-1.9722,10.3311,46.3382,-0.5215,0.3328,0.4455,317.4688
21:23:28:700,3.8416,-1.4539,11.1547,48.7808,-0.4138,-0.4174,0.4077,317.0156
21:23:28:721,3.2706,-1.2564,10.7932,48.8208,-0.1907,-0.6715,0.2564,316.4375
21:23:28:745,2.2112,-1.0062,9.0131,46.4466,-0.0152,-0.3,0.1262,315.9844
21:23:28:762,1.3923,-0.6135,6.9206,48.3611,0.0288,0.2699,0.0987,315.8281
21:23:28:781,0.9207,-0.1179,5.6002,51.3493,-0.0314,0.5775,0.1392,315.7969
21:23:28:800,0.9674,0.4411,5.6624,49.6268,-0.098,0.4976,0.2449,315.6875
21:23:28:820,1.2679,0.8493,6.1436,49.3374,-0.029,0.1863,0.3363,315.4219
21:23:28:845,1.4295,0.9978,6.3843,47.6738,0.1454,-0.08,0.3493,314.8438
21:23:28:864,1.4833,1.084,6.5794,49.1528,0.281,-0.1855,0.3272,314.4062
21:23:28:881,1.3361,1.1462,7.0295,47.9388,0.3201,-0.2028,0.275,314.0156
21:23:28:902,1.0895,1.0038,7.8926,48.1247,0.2927,-0.2643,0.1949,313.6719
21:23:28:921,0.8752,0.6806,8.7856,49.2027,0.2693,-0.362,0.1129,313.3906
21:23:28:945,0.4993,0.3322,9.7733,46.4459,0.2626,-0.4193,0.0721,313.2031
21:23:28:962,0.0324,-0.0042,11.3127,49.3572,0.289,-0.5455,0.0913,313.1562
21:23:28:980,-0.0574,-0.5573,12.6247,47.5882,0.457,-0.754,0.188,313.1719
21:23:29:001,0.1605,-0.8577,12.6403,48.4139,0.71,-0.8164,0.3214,313.1875
21:23:29:020,0.7268,-0.7907,11.9101,47.8106,0.8011,-0.602,0.4449,313.1875
21:23:29:041,1.214,-0.6758,11.9017,47.9335,0.6136,-0.2246,0.4521,313.0938
21:23:29:061,1.4079,-0.9319,12.1268,49.1223,0.3238,0.1847,0.3552,312.7656
21:23:29:080,1.0847,-1.2743,12.1076,48.1818,0.0932,0.5,0.237,312.25
21:23:29:100,0.5999,-1.6813,12.3386,48.8435,-0.089,0.5783,0.1837,311.7031
21:23:29:121,0.194,-1.9327,13.6854,48.6561,-0.2173,0.3208,0.2399,311.0156
21:23:29:145,-0.1268,-2.1877,15.9216,49.1683,-0.192,-0.108,0.4007,310.625
21:23:29:163,0.0672,-2.7396,15.5756,49.8505,0.1739,-0.1791,0.6391,310.2656
21:23:29:181,0.4909,-2.6342,11.1224,50.0909,0.6967,0.2289,0.9129,309.9062
21:23:29:200,0.8501,-1.795,7.2474,50.5613,0.8251,0.4851,1.1158,309.1875
21:23:29:220,0.862,-1.1857,6.425,50.6831,0.5193,0.2409,1.151,307.9375
21:23:29:243,0.6645,-1.1953,8.1955,50.419,0.1241,-0.19,1.1091,306.4219
21:23:29:264,0.4359,-1.3126,9.1268,49.7172,0.2088,-0.4691,1.2578,304.9219
21:23:29:281,0.4454,-1.1761,8.4636,50.5393,0.3694,-0.4166,1.4088,304.9219
21:23:29:300,0.7387,-0.9296,7.2941,50.5975,0.4083,-0.3684,1.5057,303.7031
21:23:29:321,1.0943,-0.6243,6.4932,50.3291,0.3617,-0.3828,1.5257,301.2812
21:23:29:345,1.4438,-0.3106,6.4453,50.544,0.3244,-0.3807,1.4807,299.7188
21:23:29:364,1.5348,-0.2448,6.577,49.4673,0.3388,-0.345,1.4234,298.0156
21:23:29:380,1.5384,-0.3071,6.4896,51.8776,0.3441,-0.3005,1.3952,296.3906
21:23:29:400,1.7227,-0.2077,6.4238,51.1478,0.3196,-0.3018,1.3467,294.7344
21:23:29:419,2.1106,0.009,6.6524,51.1639,0.3004,-0.3269,1.2327,293.1094
21:23:29:440,2.4733,0.1945,6.8128,50.3282,0.2663,-0.3594,1.0447,291.5781
21:23:29:461,2.5272,0.4818,6.9828,51.4402,0.1784,-0.3913,0.8159,290.0312
21:23:29:480,2.4482,0.6602,7.4185,51.3142,0.0455,-0.3716,0.5667,288.625
21:23:29:501,2.35,0.5525,8.0602,51.8049,-0.1387,-0.2084,0.3336,287.4531
21:23:29:521,2.5775,0.4495,8.7078,51.0668,-0.4043,0.0191,0.0636,286.625
21:23:29:548,2.9677,0.5213,9.6547,51.9533,-0.7326,0.1799,-0.3199,286.0781
21:23:29:567,3.0551,0.313,11.2265,51.6229,-0.991,0.201,-0.7663,285.8125
21:23:29:584,2.4243,-0.8194,13.4316,52.8984,-1.0022,0.2034,-1.0776,285.875
21:23:29:600,1.3876,-2.7467,15.0668,53.9317,-0.7864,0.4055,-1.0046,286.4688
21:23:29:621,1.123,-4.0444,14.5988,54.2561,-0.5566,0.5972,-0.6283,287.6406
21:23:29:645,2.0711,-3.8756,12.912,52.7334,-0.493,0.4833,-0.3404,289.0781
21:23:29:662,2.9665,-2.9969,12.195,54.2562,-0.5737,0.2311,-0.3399,290.3906
21:23:29:680,2.4626,-2.8437,13.1575,53.2193,-0.6003,0.3096,-0.3513,291.3438
21:23:29:700,1.1864,-3.4231,13.7033,54.7166,-0.3878,0.7219,-0.0698,291.7344
21:23:29:720,0.6238,-3.708,12.0669,54.6088,-0.1087,1.0036,0.4471,292.2969
21:23:29:745,1.5623,-3.3465,9.5554,54.0399,0.0642,0.7139,0.9118,292.6094
21:23:29:763,3.4107,-2.3397,7.7238,55.1874,0.1023,-0.1309,1.021,292.25
21:23:29:780,4.4785,-0.8146,7.5011,55.9619,0.0655,-0.9487,0.7771,291.25
21:23:29:801,4.5096,-0.082,8.5031,55.5322,0.0117,-1.1514,0.3597,289.9688
21:23:29:822,3.5411,-0.1634,9.1388,56.8428,-0.0474,-0.6795,0.0391,289.0156
21:23:29:847,2.271,-0.2484,8.4888,54.0085,-0.1641,0.0332,-0.1138,288.6562
21:23:29:864,1.2212,-0.2029,7.2174,57.8204,-0.2826,0.5008,-0.1425,288.6875
21:23:29:881,0.5867,-0.1215,6.4657,57.0061,-0.2876,0.5397,-0.0773,288.875
21:23:29:900,0.4179,0.0892,6.2681,56.696,-0.1638,0.3584,0.0095,289.0156
21:23:29:921,0.528,0.3011,6.1197,58.8905,0.0021,0.0995,0.0734,289.0781
21:23:29:951,0.7363,0.501,6.097,56.3159,0.1265,-0.1466,0.1041,289.125
21:23:29:969,1.3253,0.738,7.1684,56.4085,0.1904,-0.3021,0.0963,289.0312
21:23:29:983,1.603,0.6734,8.1835,57.5179,0.2146,-0.4137,0.0766,288.9219
21:23:30:001,1.7575,0.5237,9.3926,57.9727,0.2274,-0.5136,0.0417,288.8125
21:23:30:021,1.9801,0.5357,10.5669,57.2135,0.2296,-0.4909,0.0013,288.7344
21:23:30:046,2.0735,0.4304,11.5162,57.7728,0.2216,-0.3269,-0.0919,288.7031
21:23:30:064,1.8963,0.0257,11.8167,56.1709,0.2112,-0.0182,-0.228,288.7188
21:23:30:081,1.3121,-0.4974,12.0094,59.1535,0.159,0.3048,-0.3367,288.7969
21:23:30:100,0.5927,-1.0409,12.5589,58.0532,0.0677,0.4979,-0.3583,288.9375
21:23:30:121,0.0612,-1.8645,12.8414,56.8219,0.0594,0.5648,-0.285,289.1719
21:23:30:146,-0.2477,-2.5289,12.1711,57.6214,0.118,0.6194,-0.109,289.4375
21:23:30:166,-0.5625,-2.3673,11.1798,58.1959,0.1012,0.7184,0.1483,289.6719
21:23:30:182,-0.274,-2.1973,10.7166,58.0469,-0.0341,0.7269,0.437,289.7188
21:23:30:201,0.1414,-1.9231,10.9871,60.2354,-0.2,0.5917,0.67,289.5
21:23:30:223,0.6956,-1.6718,11.7269,59.9257,-0.2613,0.2809,0.8423,288.9531
21:23:30:247,1.0811,-1.6646,13.0545,59.6284,-0.1742,-0.2062,0.9211,288.2188
21:23:30:264,1.5288,-2.0919,13.0138,60.2782,0.0756,-0.4499,0.9635,286.8125
21:23:30:281,1.8353,-2.1422,11.2086,59.6826,0.3396,-0.3658,0.9866,285.8594
21:23:30:306,2.1681,-1.5305,9.3555,58.5044,0.3878,-0.1916,1.0031,284.8906
21:23:30:319,2.2854,-1.1666,8.6994,58.573,0.2136,-0.2126,0.9238,283.7344
21:23:30:341,2.0208,-1.1893,8.9784,58.5876,-0.0112,-0.3319,0.7826,282.5
21:23:30:363,1.7503,-1.0648,9.5865,56.6091,-0.1188,-0.3346,0.702,281.4688
21:23:30:452,1.5911,-0.8553,9.4045,56.1424,-0.0016,-0.2217,0.6828,280.6562
21:23:30:453,1.4965,-0.7596,8.1368,57.07,0.2575,-0.0422,0.6673,280.3125
21:23:30:453,1.4199,-0.6997,6.4345,57.07,0.4525,0.0936,0.6524,279.6094
21:23:30:453,1.3421,-0.5525,5.4517,56.8516,0.4706,0.0849,0.6356,278.8594
21:23:30:466,1.5073,-0.5261,5.2913,57.3911,0.3979,-0.0696,0.6212,277.9531
21:23:30:483,1.7575,-0.4256,5.8216,56.9871,0.339,-0.3386,0.5885,277.0312
21:23:30:500,2.1322,-0.3298,6.5638,56.3148,0.3523,-0.6214,0.5318,276.2031
21:23:30:520,2.1765,-0.3621,7.1432,57.131,0.4093,-0.8816,0.426,275.4219
21:23:30:540,1.7958,-0.5848,7.7597,56.1334,0.3944,-1.006,0.3187,274.4531
21:23:30:562,1.1493,-0.7727,8.6575,55.9393,0.2525,-0.8553,0.2953,274
21:23:30:581,1.5492,-0.3765,9.5099,55.784,0.0527,-0.4675,0.421,273.7031
21:23:30:602,2.9354,0.3717,9.4548,55.0539,-0.0354,-0.113,0.5264,273.4375
21:23:30:619,3.8368,0.7404,9.2585,56.6779,-0.069,-0.0781,0.3509,273.0312
21:23:30:639,4.0942,0.2975,9.9576,54.6828,-0.1691,-0.3303,-0.0182,272.5
21:23:30:662,3.613,-0.8386,11.7281,55.2705,-0.4834,-0.6169,-0.6962,272.1406
21:23:30:682,2.8145,-2.2787,13.5429,54.2402,-0.5531,-0.2097,-0.6914,272.1406
21:23:30:703,2.7475,-3.1741,13.9272,55.6736,-0.5721,0.3035,-0.5207,272.2969
21:23:30:720,3.6549,-2.8186,12.7385,55.3414,-0.6703,0.3996,-0.5159,274.1562
21:23:30:740,3.868,-1.8082,12.5134,56.5735,-0.7854,0.1046,-0.7388,275.25
21:23:30:763,2.7942,-1.6526,14.2839,55.3606,-0.6301,0.0556,-0.9082,275.9844
21:23:30:780,1.0691,-2.6438,14.9519,54.6626,-0.2288,0.4561,-0.7553,276.7812
21:23:30:800,0.0265,-3.38,12.8295,55.7025,0.1414,0.8617,-0.3111,279.2344
21:23:30:821,0.2922,-3.319,9.5099,55.2664,0.2988,0.7,0.1642,280.0625
21:23:30:840,1.524,-2.8689,7.5143,55.2668,0.3063,-0.0099,0.4711,280.2031
21:23:30:862,2.7355,-2.0931,7.2953,55.0586,0.2924,-0.7524,0.5664,280
21:23:30:879,3.5711,-1.0564,7.9165,56.382,0.31,-1.0723,0.4585,279.7344
21:23:30:900,3.6668,-0.6327,8.2577,53.4718,0.3039,-0.8385,0.2234,279.1094
21:23:30:919,3.012,-0.4675,7.6831,53.4198,0.1912,-0.2457,0.0407,278.5
21:23:30:940,2.4949,-0.3561,6.3495,54.6594,-0.0461,0.328,-0.0954,278.0625
21:23:30:963,1.9777,-0.2747,5.4565,53.2719,-0.2645,0.5421,-0.1817,277.875
21:23:30:981,1.4426,-0.2017,5.4673,54.9116,-0.3313,0.4098,-0.1817,277.7812
21:23:31:000,1.1218,-0.0784,6.0168,53.5782,-0.2562,0.1597,-0.1069,277.8438
21:23:31:019,0.9746,0.1239,6.7458,53.2805,-0.078,-0.0787,0.0343,278.0625
21:23:31:039,1.4989,0.4124,7.1911,52.7578,0.1073,-0.2507,0.1629,278.3125
21:23:31:061,2.2698,0.8613,7.2306,52.3937,0.1819,-0.4022,0.1765,278.5
21:23:31:079,3.0419,1.2133,7.658,53.0189,0.1627,-0.4725,0.0814,278.3281
21:23:31:099,3.5495,1.3354,8.3738,51.8689,0.0575,-0.3767,-0.1143,278.1406
21:23:31:119,3.6728,1.1522,9.2693,51.7927,-0.1004,-0.0624,-0.3455,278.0781
21:23:31:140,3.4358,0.7608,9.7529,50.902,-0.3292,0.3293,-0.566,278.25
21:23:31:163,2.8133,0.258,10.5298,50.6104,-0.5654,0.6825,-0.7111,278.4375
21:23:31:181,2.0531,-0.4794,11.9795,50.8452,-0.6466,0.9331,-0.7154,279.0312
21:23:31:199,1.3325,-1.2564,13.4112,49.1891,-0.5265,1.0393,-0.5686,279.8594
21:23:31:219,0.9542,-2.0836,14.1965,48.3964,-0.3324,1.111,-0.3383,280.75
21:23:31:239,0.9494,-2.73,14.157,49.5378,-0.1856,1.1866,-0.0927,281.5312
21:23:31:261,1.2283,-2.8557,13.2305,50.6795,-0.172,1.0987,0.0748,282
21:23:31:282,1.2846,-2.5959,12.6403,50.3275,-0.2535,0.6135,0.1403,282.0938
21:23:31:299,1.1577,-2.73,14.0277,50.2815,-0.1505,0.0691,0.1999,281.9219
21:23:31:321,1.0655,-3.2723,15.5265,47.1872,0.2759,-0.0286,0.3009,281.6719
21:23:31:356,0.8848,-3.6398,14.1499,48.6983,0.6874,0.2396,0.4476,281.5156
21:23:31:361,1.287,-2.7384,7.9273,47.9685,0.7398,0.4007,0.5512,281.25
21:23:31:382,1.2595,-2.5145,6.8392,47.8099,0.4924,0.3224,0.5299,280.625
21:23:31:403,0.9243,-2.3409,6.9792,47.2087,0.1776,0.0465,0.4977,279.7188
21:23:31:419,0.4406,-1.9806,7.3108,47.817,0.0386,-0.297,0.5451,278.8438
21:23:31:439,0.2814,-1.6466,7.7202,46.7155,0.0834,-0.6451,0.6734,278.125
21:23:31:464,0.5699,-1.3246,7.6316,45.8632,0.2503,-0.8305,0.8545,277.5312
21:23:31:480,0.9374,-0.9224,6.8751,45.4334,0.404,-0.774,1.0154,276.9219
21:23:31:498,1.2666,-0.5968,6.1903,45.0328,0.4389,-0.6044,1.1028,276.1875
21:23:31:519,1.615,-0.319,5.9916,44.0787,0.3675,-0.492,1.1185,275.1406
21:23:31:539,2.0268,-0.1024,6.1233,44.0858,0.285,-0.456,1.0785,273.875
21:23:31:564,2.107,-0.0664,6.1341,44.1382,0.2525,-0.4936,0.9725,272.6094
21:23:31:580,1.9849,-0.1826,6.1724,43.839,0.2237,-0.5413,0.8415,271.2969
21:23:31:599,1.937,-0.252,6.6859,43.551,0.1185,-0.5607,0.7448,270.0938
21:23:31:619,1.8999,-0.2556,7.8687,42.1961,-0.0495,-0.5737,0.6652,269.0938
21:23:31:639,1.9274,-0.0928,8.9844,41.2812,-0.1784,-0.5133,0.5784,268.2031
21:23:31:662,2.186,-0.0652,9.9971,40.6227,-0.2408,-0.4193,0.4601,267.4688
21:23:31:680,2.2375,-0.2292,10.4185,42.0928,-0.2415,-0.2837,0.2785,266.8906
21:23:31:699,2.0352,-0.568,10.5873,41.0812,-0.2732,-0.1498,0.0655,266.4844
21:23:31:719,2.028,-1.0433,11.0972,42.2468,-0.3843,-0.0824,-0.1098,266.1562
21:23:31:740,2.0065,-1.6478,12.3087,41.0696,-0.5302,-0.0811,-0.2421,266.2344
21:23:31:761,1.9502,-2.3721,13.7895,41.9905,-0.5963,-0.1085,-0.3133,266.5469
21:23:31:779,2.3728,-2.9957,13.6662,41.717,-0.4714,-0.0012,-0.2704,267.0781
21:23:31:799,2.7666,-2.8976,12.3458,41.4097,-0.3153,0.1882,-0.1609,267.7344
21:23:31:821,2.7044,-2.2895,11.6276,40.9463,-0.3039,0.2295,-0.089,268.2188
21:23:31:840,2.1765,-2.2116,12.7457,42.9965,-0.3585,0.0404,-0.1015,268.5312
21:23:31:869,1.7192,-2.9922,13.5166,43.7552,-0.2288,-0.0981,-0.0706,268.75
21:23:31:883,1.8688,-3.7296,12.3482,42.4468,0.1774,-0.0731,0.1501,269
21:23:31:901,2.757,-4.2359,10.2928,41.6589,0.6288,-0.0747,0.5392,269.2031
21:23:31:920,3.7973,-3.8337,8.156,42.0121,0.9566,-0.3128,0.9398,268.9531
21:23:31:941,4.8879,-2.6067,6.5411,42.5848,1.0461,-0.6643,1.221,268.0469
21:23:31:965,5.5319,-1.2037,6.2526,42.9819,0.8245,-1.0065,1.2319,267.4531
21:23:31:982,5.6421,-0.4878,7.385,42.4299,0.4069,-1.068,0.9534,265.75
21:23:32:000,5.1177,-0.3885,7.9441,42.3441,0.0764,-0.6835,0.5294,263.9375
21:23:32:021,4.1409,-0.4304,7.318,44.8085,-0.0908,-0.0696,0.1195,262
21:23:32:048,3.2119,-0.5225,6.747,43.2428,-0.2109,0.4199,-0.1551,261.4375
21:23:32:068,2.3991,-0.4232,6.5758,43.6034,-0.1007,0.4532,-0.277,261.3594
21:23:32:082,2.0579,-0.2819,6.3112,43.8756,0.1041,0.2329,-0.1668,261.5781
21:23:32:100,2.2806,0.064,5.7725,43.2196,0.2559,0.0026,-0.0661,261.5781
21:23:32:120,2.6589,0.6051,5.2231,43.3226,0.2677,-0.2888,-0.0437,262.2969
21:23:32:139,3.0767,1.1319,5.6061,43.2572,0.1662,-0.5831,-0.1058,262.4062
21:23:32:167,3.8141,1.4156,7.5155,41.351,0.1036,-0.7269,-0.2387,262.3594
21:23:32:183,4.5455,1.2731,9.778,41.3933,0.1507,-0.5173,-0.4478,262.2969
21:23:32:199,4.421,0.8362,10.9404,42.6357,0.126,-0.068,-0.6043,262.3906
21:23:32:225,4.2283,0.5237,11.5809,43.0065,0.0186,0.4415,-0.68,263.1875
21:23:32:238,4.269,0.2149,12.0537,40.94,-0.0815,0.8127,-0.7463,263.1875
21:23:32:259,3.8584,-0.2161,12.4607,42.1125,-0.1057,0.9363,-0.7324,263.8281
21:23:32:280,3.3927,-0.7727,12.7588,41.2238,-0.0687,0.7917,-0.6443,265.2656
21:23:32:300,3.194,-1.3198,13.2101,42.0601,-0.0248,0.6529,-0.534,266.0156
21:23:32:319,2.7511,-1.4323,13.5022,41.7696,-0.0043,0.6798,-0.4107,266.3594
21:23:32:339,2.3512,-1.2923,13.2137,41.9885,0.0029,0.7759,-0.3173,266.9219
21:23:32:365,1.7994,-1.1761,12.3925,43.5126,-0.0509,0.7248,-0.2427,267.3594
21:23:32:381,1.0524,-1.2025,12.3434,44.0547,-0.0077,0.4963,-0.1069,267.6406
21:23:32:399,0.6501,-1.5939,12.6607,42.7597,0.2557,0.3807,0.0668,267.8438
21:23:32:420,0.5424,-2.0668,11.3666,42.221,0.5183,0.3525,0.2556,267.9688
21:23:32:440,0.6489,-2.2021,8.5989,42.4892,0.4687,0.1506,0.4047,267.9688
21:23:32:464,0.7411,-1.9411,6.8775,41.5011,0.1534,-0.2757,0.4758,267.7031
21:23:32:525,1.0512,-1.795,7.3383,41.4015,-0.1465,-0.7708,0.4881,267.1406
21:23:32:526,1.3157,-1.8693,8.9796,42.5696,-0.24,-1.0923,0.4974,266.4844
21:23:32:526,1.2331,-1.7998,10.4077,41.3881,-0.1369,-1.0318,0.5699,265.9219
21:23:32:543,0.8788,-1.558,10.9799,43.3966,0.114,-0.5791,0.694,265.5625
21:23:32:566,0.558,-1.3186,9.9552,42.1978,0.3619,-0.0033,0.8498,265.2969
21:23:32:580,0.546,-1.2492,7.828,41.7107,0.4629,0.4199,1.0173,264.5312
21:23:32:600,0.6202,-1.0397,5.9497,41.5736,0.404,0.5996,1.1752,263.5781
21:23:32:620,1.0631,-0.6327,4.9202,41.5736,0.3137,0.4809,1.241,262.3281
21:23:32:640,1.6964,-0.1466,4.4509,41.3576,0.2306,0.0801,1.1709,260.7656
21:23:32:665,1.9993,0.3645,4.7239,42.4727,0.1361,-0.4427,1.0266,259.125
21:23:32:683,2.2171,0.6937,5.9844,41.1716,0.0796,-0.9447,0.8492,257.625
21:23:32:704,2.2854,0.7153,8.1165,39.0568,0.1158,-1.0941,0.6945,256.2969
21:23:32:720,2.2124,0.6973,9.9049,40.6454,0.2051,-0.8531,0.5989,255.25
21:23:32:740,2.4901,0.6542,10.4939,41.1438,0.2677,-0.3242,0.5046,254.4688
21:23:32:764,2.6744,0.5728,10.0821,41.7254,0.2144,0.1855,0.3778,253.75
21:23:32:781,2.927,0.2795,10.1168,42.4251,0.0823,0.4047,0.2143,253.0469
21:23:32:799,2.7774,-0.228,10.6076,41.2372,-0.0413,0.3363,0.0204,252.4062
21:23:32:819,2.4997,-1.2432,12.1926,40.683,-0.1459,0.0737,-0.1471,251.9688
21:23:32:841,2.8133,-2.4989,12.9851,43.2169,-0.118,-0.0925,-0.1593,251.7969
21:23:32:866,3.5423,-2.8964,12.5421,41.1184,-0.0461,0.0244,-0.0544,251.9062
21:23:32:883,4.3372,-2.5923,11.9807,42.255,-0.0865,0.2047,0.0194,252.2969
21:23:32:901,4.1564,-2.4008,12.2417,41.3235,-0.2085,0.1933,-0.1125,252.3594
21:23:32:920,3.109,-3.0053,13.2269,40.9001,-0.3329,0.1344,-0.337,252.3906
21:23:32:939,1.7455,-3.8888,13.0162,40.9759,-0.2799,0.3418,-0.4147,252.4531
21:23:32:965,1.7347,-4.4502,11.2229,40.9746,-0.0599,0.5975,-0.1793,252.8281
21:23:32:982,2.9761,-4.0169,9.5362,41.0681,0.1449,0.4889,0.2644,253.4531
21:23:32:999,4.4078,-2.6857,8.8527,42.4165,0.2434,-0.0281,0.6106,253.8906
21:23:33:020,5.3703,-1.3868,8.6276,40.874,0.2719,-0.5008,0.6636,253.7656
21:23:33:040,5.3931,-0.6255,8.156,40.7532,0.2482,-0.524,0.3983,253.1094
21:23:33:066,4.4426,-0.2448,6.9732,43.5738,0.1768,-0.0848,-0.0256,252.2188
21:23:33:084,3.2012,-0.1538,5.5511,42.1965,0.0112,0.516,-0.4105,251.5156
21:23:33:099,2.016,-0.167,4.5706,41.3189,-0.2277,0.9922,-0.6355,251.2188
21:23:33:120,1.2643,-0.0784,4.2726,41.6428,-0.4328,1.152,-0.66,251.4062
21:23:33:139,0.9793,0.1969,4.7562,43.2696,-0.5388,0.9842,-0.5308,252.0156
21:23:33:165,1.354,0.6039,5.4601,43.4482,-0.4972,0.6337,-0.3412,253.2656
21:23:33:183,1.9993,0.9858,6.3699,43.6015,-0.359,0.1909,-0.2014,254.0312
21:23:33:200,2.6301,1.3043,7.4676,44.3872,-0.1912,-0.1993,-0.1604,254.5781
21:23:33:219,3.0827,1.2599,7.9668,42.8786,-0.0123,-0.4014,-0.2299,254.9375
21:23:33:240,2.9821,1.078,8.6456,43.8343,0.0357,-0.4635,-0.3857,255.2344
21:23:33:266,2.7738,0.7775,9.5721,43.3278,-0.0695,-0.365,-0.538,255.5312
21:23:33:282,2.3704,0.5453,10.9368,44.0516,-0.2546,-0.1498,-0.684,255.9688
21:23:33:300,1.712,0.0533,12.3602,43.4988,-0.412,0.1839,-0.7841,256.6562
21:23:33:319,0.7711,-0.6901,13.3095,44.6457,-0.4296,0.5445,-0.7806,257.5781
21:23:33:341,0.1378,-1.1079,13.1168,43.5661,-0.2546,0.7514,-0.5814,258.5938
21:23:33:365,0.2491,-1.0349,12.7241,43.2194,-0.0125,0.6697,-0.2259,259.625
21:23:33:381,0.977,-0.8661,12.6295,45.1004,0.1766,0.4124,0.1017,260.3281
21:23:33:400,1.6545,-0.6339,11.8347,45.4613,0.2946,0.3083,0.2649,260.5156
21:23:33:420,2.0591,-0.2269,11.0757,45.1812,0.2266,0.4074,0.3003,260.4375
21:23:33:439,2.0903,-0.1131,10.9787,44.8461,0.0229,0.4162,0.2103,260.0625
21:23:33:463,1.4354,-0.4268,12.2057,45.7313,-0.1803,0.1498,0.0188,259.3438
21:23:33:482,0.8213,-1.1091,13.8817,44.9391,0.1161,-0.3072,-0.0145,259.0625
21:23:33:499,0.7734,-1.9734,13.525,45.4396,0.4986,-0.1572,0.1137,259.0625
21:23:33:519,1.1757,-2.323,10.7585,47.1167,0.5199,-0.1285,0.1936,259.2969
21:23:33:539,1.6042,-1.9363,8.8706,45.3047,0.2051,-0.349,0.136,259.2969
21:23:33:565,1.7192,-1.552,9.4931,46.8937,-0.0474,-0.492,0.0327,259.2969
21:23:33:582,1.8006,-1.7113,10.7166,46.4245,-0.0293,-0.349,-0.0472,258.5469
21:23:33:599,1.135,-1.807,10.6591,44.9015,0.1364,-0.051,0.0029,258.3438
21:23:33:618,0.5699,-1.7699,9.535,46.3642,0.3001,0.2944,0.1813,258.375
21:23:33:638,0.5807,-1.5676,7.8327,45.3068,0.3689,0.5546,0.3616,258.4844
21:23:33:658,0.8477,-1.2731,6.2753,46.9584,0.3358,0.5858,0.483,258.4375
21:23:33:684,1.1852,-0.9499,5.4529,45.9792,0.2751,0.4289,0.5496,258.0625
21:23:33:702,1.4905,-0.6901,5.1848,44.8214,0.2357,0.1517,0.5624,257.4375
21:23:33:719,1.6461,-0.2963,5.3691,46.1039,0.2208,-0.1508,0.523,256.6719
21:23:33:741,1.7191,0.0988,6.1592,46.6923,0.2282,-0.3916,0.4364,255.5312
21:23:33:767,1.6904,0.1,7.0846,45.796,0.2684,-0.4342,0.3565,254.8125
21:23:33:784,1.4881,-0.0521,7.2953,48.0667,0.245,-0.2944,0.3451,254.1875
21:23:33:800,1.4881,0.0892,7.0379,46.754,0.1039,-0.1266,0.34,253.7031
21:23:33:820,1.6904,0.4328,7.0905,46.3368,-0.0993,-0.0558,0.2306,253.2344
21:23:33:841,1.87,0.5776,7.5419,46.5378,-0.3246,-0.1003,0.0181,252.7812
21:23:33:868,1.6485,0.1443,8.7126,47.234,-0.5316,-0.1421,-0.1796,252.4375
21:23:33:883,1.3588,-0.5979,10.2222,48.9083,-0.6621,-0.1913,-0.2888,252.3906
21:23:33:900,0.9566,-1.3378,12.1136,48.0606,-0.6799,-0.202,-0.3087,252.5
21:23:33:919,0.5424,-2.2188,14.0206,48.5889,-0.518,-0.0025,-0.1868,252.9531
21:23:33:939,0.8261,-3.1322,14.0672,47.4792,-0.3156,0.3014,0.017,253.5625
21:23:33:966,1.8257,-3.3429,12.0956,50.4149,-0.3886,0.341,0.1398,254.2344
21:23:33:982,2.7235,-2.5013,11.0039,49.5773,-0.6823,-0.0408,0.0274,254.6875
21:23:34:000,2.7858,-1.7986,12.8725,51.4901,-0.783,-0.4283,-0.2608,254.7812
21:23:34:018,1.8556,-2.5181,15.3589,49.8267,-0.4847,-0.2944,-0.3623,254.7812
21:23:34:039,0.7196,-3.5895,15.2452,50.4289,-0.02,0.2505,-0.0911,255.3594
21:23:34:066,0.4646,-3.7858,12.0669,48.9258,0.2455,0.5237,0.3501,256.0938
21:23:34:082,1.36,-3.1167,8.7809,49.7241,0.2357,0.1509,0.6316,256.4844
21:23:34:101,2.4973,-2.0393,7.4054,52.1675,0.0898,-0.4478,0.6679,256.2344
21:23:34:119,3.2658,-1.0588,8.0255,52.1526,0.0453,-0.7383,0.5344,255.5
21:23:34:140,3.4322,-0.5345,8.4948,51.4014,0.1342,-0.5527,0.311,254.7031
21:23:34:165,2.2567,0.0533,6.3088,51.1698,0.1904,-0.1197,0.1219,254
21:23:34:184,1.7431,0.1263,5.0507,51.3545,0.1329,0.2907,-0.023,253.5156
21:23:34:198,1.2631,0.1467,4.16,52.3068,0.0056,0.5032,-0.125,253.2188
21:23:34:219,0.9865,0.1945,4.2199,53.1002,-0.1824,0.4481,-0.1567,253.0781
21:23:34:239,1.2236,0.3382,5.2147,51.9139,-0.3529,0.1834,-0.125,253.125
21:23:34:266,1.8867,0.4663,7.3336,51.9818,-0.4469,-0.1682,-0.1061,253.2969
21:23:34:282,2.2243,0.4711,9.5446,52.8688,-0.3752,-0.59,-0.1615,253.5625
21:23:34:299,2.1752,0.434,10.6962,51.9601,-0.1396,-0.8526,-0.2451,253.875
21:23:34:318,2.0914,0.2939,11.4528,51.8801,0.0474,-0.912,-0.3021,254.2344
21:23:34:338,2.0101,-0.009,11.5342,51.3329,0.1134,-0.6371,-0.3388,254.7812
21:23:34:359,1.791,-0.1861,11.363,53.6197,0.0322,-0.1349,-0.3553,255.1406
21:23:34:382,1.5719,-0.3118,11.6084,52.2254,-0.1268,0.3565,-0.3441,255.5
21:23:34:400,1.1493,-0.5393,11.9639,52.3598,-0.221,0.6548,-0.3154,255.8906
21:23:34:419,0.7459,-1.1534,12.1914,52.0757,-0.171,0.7099,-0.2565,256.1094
21:23:34:438,0.5663,-1.904,12.1435,52.5732,-0.0344,0.5376,-0.1343,256.5469
21:23:34:459,0.7459,-2.4211,12.1722,51.2158,0.0626,0.3091,0.054,256.9375
21:23:34:484,1.3145,-2.3984,12.2153,52.3324,0.0248,0.1823,0.2548,257.1719
21:23:34:500,1.7263,-2.1386,12.7672,52.4749,-0.1241,0.0558,0.3517,257.1875
21:23:34:518,1.3492,-2.1697,14.6873,52.0092,-0.2831,-0.2723,0.3035,256.9688
21:23:34:597,0.7555,-2.7204,15.9084,51.7052,-0.179,-0.4411,0.2841,256.625
21:23:34:598,0.5819,-3.4363,13.6339,52.6404,0.31,-0.2044,0.3967,256.3438
21:23:34:598,0.619,-3.3764,9.5434,50.1283,0.7364,0.2297,0.6058,256.1719
21:23:34:598,0.8836,-2.8258,6.82,51.9866,0.7015,0.4084,0.7981,255.8125
21:23:34:619,0.8872,-2.3194,6.419,50.9731,0.3654,0.165,0.8822,254.4219
21:23:34:637,0.8728,-2.0572,8.1679,49.9784,0.0322,-0.3719,0.9102,253.1719
21:23:34:659,0.9339,-1.9483,9.2621,49.0833,0.0192,-0.7868,0.9579,252.0469
21:23:34:684,1.0164,-1.7711,8.7402,48.4376,0.2562,-0.8797,1.0242,251
21:23:34:697,1.1218,-1.5568,7.4162,47.9464,0.4535,-0.7149,1.1004,249.9062
21:23:34:718,1.1026,-1.2671,6.6021,47.2181,0.4597,-0.4896,1.1563,248.625
21:23:34:738,1.1781,-1.0301,6.2669,47.6715,0.3763,-0.2885,1.2005,247.2344
21:23:34:758,1.3792,-0.744,6.2442,47.1336,0.2988,-0.1823,1.2229,245.6719
21:23:34:780,1.7012,-0.4974,6.3627,46.5469,0.2759,-0.2235,1.2008,244.125
21:23:34:798,1.9562,-0.3106,6.6967,46.8291,0.2964,-0.3295,1.1243,242.6406
21:23:34:819,1.9897,-0.2604,7.1169,47.1783,0.3196,-0.4451,1.0002,241.125
21:23:34:840,1.9861,-0.1921,7.7226,44.3422,0.2996,-0.431,0.8687,239.6719
21:23:34:864,2.0292,-0.0293,8.6611,46.6591,0.1973,-0.2038,0.584,239
21:23:34:882,1.931,-0.0126,9.3172,46.6591,0.1606,0.0167,0.3976,237.2344
21:23:34:900,1.7634,-0.173,9.8367,45.514,0.0959,0.2311,0.229,235.4688
21:23:34:918,1.7395,-0.6171,10.3251,43.6385,0.0354,0.3365,0.0844,235.4688
21:23:34:939,2.0005,-1.5173,10.5657,43.945,-0.0621,0.2377,-0.0083,234.9688
21:23:34:966,2.1621,-2.7551,11.272,44.6806,-0.1854,0.1344,0.0148,234.6562
21:23:34:984,2.2483,-3.7798,12.335,43.5596,-0.1963,0.1368,0.1965,234.5625
21:23:34:999,2.8827,-4.4035,12.4715,43.4434,-0.1052,0.1906,0.4428,234.625
21:23:35:017,3.8955,-4.2527,11.1056,43.662,-0.1127,0.0699,0.589,234.7031
21:23:35:037,4.6461,-3.2435,9.5087,43.0211,-0.3324,-0.3128,0.5083,234.5938
21:23:35:059,4.8603,-2.4032,9.5925,42.6625,-0.6139,-0.684,0.2391,234.1719
21:23:35:083,4.4617,-2.6438,11.4743,42.2504,-0.6256,-0.7655,-0.0001,233.5625
21:23:35:098,3.4322,-3.3058,12.8534,42.5656,-0.3667,-0.4491,-0.0054,233.125
21:23:35:119,2.6337,-3.5117,12.0202,41.8329,-0.1289,-0.0661,0.1986,233.1094
21:23:35:145,2.7654,-2.8126,10.0007,43.3312,-0.0591,-0.0028,0.3581,233.4531
21:23:35:165,3.2718,-1.4802,8.6396,43.225,-0.1246,-0.2156,0.2929,233.4531
21:23:35:181,3.7219,-0.5656,8.618,42.3543,-0.1819,-0.3319,0.0228,233.1406
21:23:35:198,3.4549,-0.2113,8.8239,41.6275,-0.1843,-0.1519,-0.2808,232.7969
21:23:35:217,2.7175,-0.2185,8.4995,43.1828,-0.1364,0.1664,-0.4888,232.6406
21:23:35:238,1.9705,-0.3142,7.5047,43.7301,-0.1262,0.4417,-0.5964,232.875
21:23:35:258,1.372,-0.3154,6.6548,42.6817,-0.1422,0.5794,-0.6041,233.3906
21:23:35:282,0.8991,-0.3466,6.2741,44.6799,-0.1071,0.5578,-0.5111,234.125
21:23:35:298,0.7579,-0.1993,6.0072,41.5193,-0.0421,0.381,-0.3652,234.5469
21:23:35:318,1.1469,0.0521,6.0682,42.164,0.0083,0.1091,-0.2579,235.375
21:23:35:341,1.7994,0.2053,6.6728,42.0689,0.0383,-0.1887,-0.2355,236.0312
21:23:35:365,2.2471,0.325,8.0255,43.2526,0.0905,-0.3756,-0.2749,236.5156
21:23:35:384,2.3776,0.0844,9.3662,40.3882,0.1531,-0.3367,-0.3082,236.8125
21:23:35:400,2.1776,-0.24,10.4293,41.9569,0.1811,-0.0406,-0.2768,237.0312
21:23:35:418,2.0089,-0.3454,10.9871,43.118,0.1481,0.3512,-0.2177,237.3906
21:23:35:438,2.1776,-0.2723,11.266,40.3056,0.0844,0.6335,-0.2105,237.625
21:23:35:457,2.2327,-0.3298,11.612,41.3513,0.041,0.7251,-0.2395,237.8125
21:23:35:482,1.9837,-0.7739,12.2393,41.4816,0.0898,0.6191,-0.2296,238.0156
21:23:35:501,1.5947,-1.3892,12.6319,41.4633,0.1912,0.5464,-0.1399,238.2969
21:23:35:518,1.5348,-1.9112,12.4081,42.141,0.2037,0.5192,-0.0275,238.5781
21:23:35:539,1.6605,-1.643,12.3015,41.5107,0.0748,0.4955,0.0356,238.7812
21:23:35:560,1.3923,-1.5736,13.6662,42.2112,-0.1238,0.3413,0.0069,238.7969
21:23:35:583,0.6082,-2.1398,15.8737,43.6618,-0.1973,0.0577,-0.0384,238.7344
21:23:35:599,0.0564,-3.1011,15.8114,42.8273,0.1148,-0.0001,0.0529,238.7344
21:23:35:618,0.2312,-3.4028,12.2034,42.4345,0.6583,0.3091,0.3366,238.8594
21:23:35:636,0.953,-2.7791,8.8299,43.2575,0.9172,0.4726,0.6495,238.9219
21:23:35:657,1.5132,-1.965,7.5706,42.3878,0.804,0.1911,0.805,238.5781
21:23:35:683,1.5791,-1.5449,8.2817,43.0948,0.559,-0.3165,0.7845,237.625
21:23:35:700,1.4354,-1.4479,8.8611,40.8976,0.4645,-0.6694,0.7251,236.375
21:23:35:718,1.3313,-1.2599,8.4301,42.0621,0.5638,-0.7261,0.7163,234.6094
21:23:35:742,1.196,-1.0361,7.1696,42.3186,0.7023,-0.6148,0.736,233.5312
21:23:35:757,1.1721,-0.8015,6.0479,43.7763,0.7249,-0.4217,0.7576,232.3906
21:23:35:777,1.22,-0.6494,5.5451,43.1347,0.624,-0.271,0.7707,231.7812
21:23:35:797,1.2128,-0.5872,5.5451,43.7928,0.4988,-0.2358,0.7664,230.6094
21:23:35:817,1.2547,-0.5393,5.7618,42.6385,0.4157,-0.2784,0.7613,229.3594
21:23:35:838,1.2786,-0.5596,6.067,42.481,0.3595,-0.3322,0.7565,228.1875
21:23:35:858,1.2008,-0.6327,6.2358,41.8136,0.3217,-0.3514,0.7483,227.125
21:23:35:884,1.22,-0.5584,6.802,44.5522,0.2373,-0.3679,0.7688,226.0469
21:23:35:902,1.4139,-0.3262,7.7621,41.9904,0.1281,-0.3724,0.7914,224.9844
21:23:35:917,1.7706,-0.1215,8.5426,43.9185,0.0647,-0.3508,0.7637,223.4844
21:23:35:938,2.1501,-0.1957,9.298,43.3127,0.0325,-0.3221,0.6572,222.4844
21:23:35:958,2.2279,-0.4722,9.6655,43.9726,-0.0011,-0.2153,0.4865,221.5312
21:23:35:982,2.3943,-0.8086,9.9468,43.5503,-0.0818,-0.088,0.3371,220.7656
21:23:36:000,2.7331,-1.2276,10.3862,45.0728,-0.2067,-0.0366,0.2098,220.1875
21:23:36:017,2.9629,-1.7831,11.4336,43.7173,-0.3824,-0.0361,0.0852,219.8438
21:23:36:039,3.0635,-2.5133,12.5014,43.4576,-0.5289,0.0425,-0.0014,219.7031
21:23:36:058,3.3245,-2.9263,12.1124,44.0107,-0.5595,0.299,-0.0121,219.7969
21:23:36:083,3.8943,-2.7084,11.0841,43.4393,-0.5984,0.532,0.0306,220.0781
21:23:36:100,4.2833,-2.1841,11.0625,44.7462,-0.7452,0.4718,-0.011,220.4219
21:23:36:119,4.0583,-2.1063,12.3769,46.4111,-0.9034,0.1584,-0.1947,220.5938
21:23:36:138,3.2586,-2.6378,13.6447,46.0491,-0.939,0.0319,-0.4078,220.9688
21:23:36:158,2.1322,-3.1753,13.2999,47.558,-0.8032,0.385,-0.4853,221.5469
21:23:36:182,1.8305,-3.3645,11.1104,45.8558,-0.5473,0.9392,-0.3199,222.375
21:23:36:200,2.3871,-2.7228,8.9772,47.5165,-0.3609,1.2159,0.0042,223.8438
21:23:36:217,3.3412,-1.6873,7.6903,46.6044,-0.2525,0.9637,0.2503,224.6406
21:23:36:238,3.7889,-0.8685,7.3455,45.7102,-0.1614,-0.1604,0.0686,225
21:23:36:258,3.6417,-0.6279,7.5407,47.5165,-0.1747,-0.271,-0.1782,225
21:23:36:283,3.0408,-0.7045,7.6173,49.1454,-0.2266,-0.0195,-0.371,225
21:23:36:300,2.1298,-0.811,7.4293,48.8078,-0.2879,0.3309,-0.4334,224.8281
21:23:36:317,1.4582,-0.7452,7.3276,48.6626,-0.2506,0.4977,-0.3942,224.8281
21:23:36:341,1.1038,-0.6267,7.2749,51.291,-0.1015,0.4393,-0.2952,225.5781
21:23:36:356,1.0799,-0.3166,6.9218,49.7167,0.0541,0.2684,-0.1841,226.2656
21:23:36:377,1.4462,0.0844,6.565,50.1464,0.1116,0.096,-0.1577,226.8906
21:23:36:397,1.9071,0.3346,6.7709,49.7297,0.085,-0.0411,-0.2171,227.3281
21:23:36:419,2.1034,0.4483,7.6831,52.3495,0.0916,-0.1367,-0.3236,227.5625
21:23:36:437,1.9239,0.4555,8.6528,50.6265,0.1177,-0.1455,-0.4275,227.7031
21:23:36:457,1.5851,0.1814,9.4895,51.3654,0.1092,-0.0209,-0.4842,228.0469
21:23:36:483,0.9231,-0.0904,10.282,52.0883,0.0796,0.1714,-0.4422,228.4062
21:23:36:498,0.4873,-0.4926,11.0446,51.1089,0.0855,0.3083,-0.3218,228.875
21:23:36:516,0.3676,-0.7739,11.6335,50.7501,0.1452,0.2825,-0.1452,229.3594
21:23:36:537,0.6501,-0.841,12.0358,53.8626,0.2226,0.063,-0.0059,229.7969
21:23:36:559,1.129,-1.0253,12.7301,53.8733,0.3079,-0.141,0.0788,230.0625
21:23:36:583,1.5959,-1.4694,13.4268,53.2821,0.391,-0.105,0.1176,230.0938
21:23:36:600,1.8915,-1.7268,12.9875,54.3832,0.3401,0.0939,0.1334,230.0156
21:23:36:658,2.1346,-1.4622,12.2249,52.4633,0.1023,0.3046,0.0854,229.7656
21:23:36:659,2.338,-1.3449,12.0908,54.64,-0.1587,0.3586,-0.0427,229.4375
21:23:36:659,1.7874,-1.4431,13.1144,55.3339,-0.184,0.2071,-0.1252,229.1719
21:23:36:680,0.5951,-2.0428,14.2336,54.61,0.1233,0.1541,-0.0025,229.0625
21:23:36:697,0.0289,-2.8222,13.5429,52.7927,0.5766,0.2854,0.2945,229.2188
21:23:36:720,0.5807,-3.0735,10.3191,56.3143,0.7252,0.2329,0.5432,229.4688
21:23:36:738,1.609,-2.6653,7.5826,56.4824,0.4977,-0.1564,0.5762,229.4219
21:23:36:756,2.1286,-1.9303,7.2522,55.663,0.1515,-0.6004,0.4412,228.4375
21:23:36:783,2.1669,-1.7029,8.9101,55.1329,0.0272,-0.7586,0.2711,227.5469
21:23:36:801,1.5228,-1.7855,9.6751,56.057,0.0908,-0.5599,0.2186,226.7656
21:23:36:818,0.6059,-1.6945,9.1196,55.1188,0.2122,-0.2414,0.3254,226.25
21:23:36:837,0.0863,-1.5317,7.8136,54.9672,0.3007,-0.0214,0.5262,225.9062
21:23:36:858,0.2671,-1.2731,6.4058,55.1343,0.3286,-0.0297,0.7169,225.5
21:23:36:883,0.7746,-0.8613,5.6696,56.4622,0.3246,-0.2475,0.7949,224.875
21:23:36:901,1.2343,-0.5177,5.4673,54.8622,0.3097,-0.504,0.7741,224.0156
21:23:36:916,1.4642,-0.3705,5.9353,54.161,0.3257,-0.6632,0.7158,223.0156
21:23:36:938,1.6952,-0.3729,6.5375,54.7831,0.3382,-0.6885,0.6458,221.9062
21:23:36:958,1.8209,-0.2328,7.0079,55.5058,0.2562,-0.6262,0.5709,220.8281
21:23:36:983,1.876,-0.1454,8.0219,55.3534,0.1076,-0.5285,0.4798,219.8438
21:23:37:000,1.8041,-0.0712,8.9556,55.8799,0.0005,-0.4046,0.3712,218.9062
21:23:37:019,1.8245,-0.2017,9.4189,55.0681,-0.0517,-0.218,0.2641,218.125
21:23:37:037,1.7371,-0.5082,9.6691,55.0681,-0.1031,-0.0502,0.1405,217.5469
21:23:37:059,1.8963,-0.7931,10.0797,56.0911,-0.2072,0.0292,0.0473,217.1719
21:23:37:084,2.2219,-1.2456,11.0984,55.6989,-0.322,-0.0523,-0.0384,216.9219
21:23:37:101,2.295,-1.9758,12.833,54.9861,-0.4301,-0.1892,-0.1436,216.9219
21:23:37:119,2.5021,-2.7216,13.6459,54.551,-0.4354,-0.0843,-0.1665,217.1562
21:23:37:136,3.0599,-2.9251,12.4559,54.4416,-0.3257,0.2774,-0.0826,217.3125
21:23:37:156,3.8141,-2.3792,11.041,54.5126,-0.3031,0.5056,-0.0107,217.7031
21:23:37:182,4.2558,-1.7388,10.9596,52.3455,-0.4328,0.402,-0.093,218.0469
21:23:37:201,3.9099,-1.9818,12.3746,53.3107,-0.6048,0.1221,-0.3633,218.2969
21:23:37:217,2.8444,-3.0365,13.4926,54.7404,-0.6354,0.0582,-0.627,218.5938
21:23:37:237,2.0831,-3.7739,13.0006,52.8824,-0.4977,0.3496,-0.627,219.1406
21:23:37:256,2.368,-3.7332,11.0877,54.1854,-0.2847,0.7419,-0.3516,220
21:23:37:285,3.2012,-3.0532,9.7457,51.3982,-0.1558,0.7648,-0.0379,221.0781
21:23:37:302,3.771,-2.1314,9.1927,52.3811,-0.0581,0.4063,0.1179,221.9531
21:23:37:318,3.6046,-1.406,8.6408,51.5511,0.0658,0.0601,0.0836,222.4062
21:23:37:341,2.8947,-1.0517,7.3683,51.1124,0.1928,-0.0193,-0.0541,222.4844
21:23:37:355,2.1333,-0.8062,5.9234,49.451,0.237,0.0659,-0.1673,222.3281
21:23:37:376,1.7024,-0.5333,5.1656,50.97,0.1374,0.1735,-0.2043,222.2969
21:23:37:400,1.6186,-0.2269,5.344,50.9462,-0.009,0.1948,-0.194,222.3906
21:23:37:417,1.5947,0.0114,6.0263,51.4859,-0.0791,0.1136,-0.1884,222.5938
21:23:37:436,1.4905,0.1802,6.6476,50.6999,-0.0413,0.0279,-0.1987,222.8438
21:23:37:456,1.6342,0.3885,7.1289,50.927,0.0415,0.0076,-0.1865,223.1094
21:23:37:483,1.9813,0.6015,7.5586,51.0598,0.1143,0.0215,-0.1665,223.3594
21:23:37:498,2.1441,0.7763,8.0853,50.1653,0.1816,-0.0033,-0.2025,223.5625
21:23:37:518,2.3057,1.0014,8.4708,50.2328,0.2277,-0.0451,-0.273,223.6875
21:23:37:538,2.3632,1.0589,8.8192,49.1304,0.2197,-0.0885,-0.4009,223.8438
21:23:37:558,2.0508,0.8577,9.7278,48.7208,0.0796,-0.0353,-0.5854,224.0469
21:23:37:584,1.463,0.398,10.7645,49.7223,-0.106,0.2132,-0.7399,224.375
21:23:37:601,0.6406,-0.319,11.8191,47.7852,-0.2386,0.4715,-0.8025,225
21:23:37:618,0.0767,-1.0157,13.0641,48.433,-0.2448,0.5735,-0.6909,225.9219
21:23:37:638,0.2647,-1.4718,13.3777,47.6777,0.1702,0.373,-0.1527,226.4688
21:23:37:658,0.8453,-1.6538,12.6176,47.3574,0.2226,0.2497,0.0186,226.4688
21:23:37:684,1.4989,-1.5963,12.0106,47.3253,0.0679,0.0928,0.0489,227.9375
21:23:37:697,1.8831,-1.5449,12.438,46.9694,-0.1483,-0.1186,-0.0089,228.5156
21:23:37:716,1.8101,-1.6167,14.1187,47.1098,-0.2139,-0.2475,-0.0355,228.5625
21:23:37:736,1.3157,-1.9974,16.1682,48.5563,0.081,-0.1341,0.0029,228.5
21:23:37:761,0.6705,-2.6857,16.0437,46.1292,0.6245,0.2641,0.2197,228.6562
21:23:37:784,0.8118,-3.1214,12.2477,45.6492,0.9207,0.5525,0.4729,228.6562
21:23:37:801,1.2702,-2.5995,8.0566,46.3014,0.7713,0.368,0.6183,228.6094
21:23:37:817,1.8341,-1.7735,6.1748,45.843,0.3947,-0.1785,0.5779,228.1094
21:23:37:836,1.9502,-1.2516,7.3551,43.961,0.1856,-0.6046,0.4588,227.2656
21:23:37:860,1.5587,-1.3174,8.8886,44.3094,0.269,-0.6387,0.4197,225.4219
21:23:37:882,1.0859,-1.2779,8.7174,43.935,0.4117,-0.4603,0.4788,224.75
21:23:37:899,0.947,-1.0588,7.3623,44.7085,0.4226,-0.2997,0.5515,224.4531
21:23:37:916,1.1218,-0.756,6.3543,43.474,0.323,-0.2201,0.5816,223.7344
21:23:37:937,1.2786,-0.5177,6.1053,41.2131,0.229,-0.2118,0.5691,222.9062
21:23:37:958,1.4079,-0.3513,6.1281,40.7583,0.1313,-0.1937,0.5233,222.0938
21:23:37:982,1.5456,-0.1862,6.4226,39.9868,-0.0013,-0.047,0.454,221.2812
21:23:38:003,1.6832,-0.1826,6.9433,41.0936,-0.1113,0.1751,0.3789,220.9062
21:23:38:021,1.6533,-0.0425,7.3994,41.2334,-0.1206,0.324,0.3419,220.2188
21:23:38:036,1.8161,0.2568,7.3826,40.7407,-0.0567,0.2593,0.283,219.7188
21:23:38:057,2.0735,0.6794,7.3192,39.8329,-0.0136,0.0691,0.1206,219.3594
21:23:38:084,1.949,0.9008,7.6628,40.8402,-0.0285,-0.0712,-0.1151,219.0625
21:23:38:101,1.141,0.598,8.3295,37.7587,-0.0812,-0.1133,-0.2749,218.8125
21:23:38:118,0.3401,0.009,9.0394,37.5751,-0.1321,-0.1365,-0.2829,218.6875
21:23:38:137,0.1115,-0.5357,9.7625,38.1037,-0.1888,-0.2198,-0.2118,218.8125
21:23:38:156,0.5747,-0.9116,10.0941,37.9778,-0.3635,-0.4552,-0.1998,219.3438
21:23:38:176,1.1529,-1.2587,11.9053,38.6166,-0.5665,-0.5663,-0.2461,219.6562
21:23:38:200,1.6904,-2.2092,14.4707,39.1329,-0.5374,-0.2387,-0.2584,219.9531
21:23:38:218,2.1429,-3.0041,15.019,36.139,-0.3446,0.2963,-0.191,220.3438
21:23:38:236,2.2926,-2.9503,12.8426,36.3767,-0.3092,0.4436,-0.1425,220.8281
21:23:38:256,2.2686,-2.4211,11.4324,35.3388,-0.4464,0.1472,-0.1681,221.2969
21:23:38:278,2.2136,-2.7204,12.6044,35.4626,-0.5007,-0.0366,-0.2113,221.6875
21:23:38:301,1.5899,-3.6984,14.1475,35.5018,-0.3172,0.2321,-0.0573,222.0469
21:23:38:317,1.1936,-4.1917,13.6578,35.1752,-0.0764,0.715,0.3102,222.5
21:23:38:336,3.194,-2.785,8.9748,36.4717,0.0285,1.0135,0.589,222.9062
21:23:38:358,3.8368,-1.6514,7.6017,33.6628,-0.0234,0.9613,0.6157,222.9219
21:23:38:385,3.8536,-0.7236,7.1372,34.7212,-0.127,0.6966,0.4279,222.5469
21:23:38:403,3.0635,-0.2173,6.9122,34.5336,-0.1531,0.4233,0.0979,221.9844
21:23:38:417,2.0376,-0.1562,6.2861,34.9319,-0.1174,0.271,-0.2254,221.5156
21:23:38:440,1.2307,-0.2795,5.8899,33.3591,-0.1467,0.2324,-0.4294,221.4062
21:23:38:455,0.7974,-0.2532,6.2035,33.5696,-0.2546,0.2635,-0.4946,221.5625
21:23:38:476,0.7196,-0.0964,6.9349,33.2107,-0.2937,0.254,-0.4565,222.0469
21:23:38:500,0.9135,0.1658,7.5383,35.354,-0.2005,0.2036,-0.3758,222.6719
21:23:38:517,1.4498,0.507,7.5838,33.0012,-0.021,0.1557,-0.2938,223.3906
21:23:38:536,1.937,0.7033,7.5682,32.2844,0.1169,0.1067,-0.2879,224.0156
21:23:38:555,2.0208,0.6015,7.9608,34.0098,0.1409,0.0385,-0.3796,224.4688
21:23:38:576,1.779,0.349,8.6659,33.5044,0.0943,0.0292,-0.4794,224.7656
21:23:38:600,1.2643,0.0365,9.3004,32.2844,0.0426,0.1072,-0.5127,225.0938
21:23:38:617,0.7866,-0.1981,9.8211,30.9422,0.036,0.206,-0.4472,225.5469
21:23:38:641,0.8692,-0.3513,9.9971,32.1291,0.0871,0.2319,-0.2856,226.0781
21:23:38:655,1.0308,-0.2927,10.5119,31.5577,0.1172,0.1056,-0.1473,226.6562
21:23:38:728,0.2503,-0.4878,12.0861,32.349,0.0634,-0.1482,-0.1055,227.0938
21:23:38:735,-0.2525,-1.1893,14.3785,31.1348,0.0269,-0.4129,-0.0573,227.3125
21:23:38:736,-0.183,-1.5772,14.8921,30.8284,0.1566,-0.3674,0.1131,227.4375
21:23:38:736,0.0636,-1.0193,13.0449,31.5324,0.3161,0.0561,0.3035,227.4375
21:23:38:760,0.3724,-0.5165,11.5701,31.3751,0.2136,0.3738,0.364,227.2188
21:23:38:785,-0.1567,-0.5333,11.9663,30.2973,-0.065,0.2787,0.2279,226.75
21:23:38:801,-0.6475,-1.1402,14.1091,31.8096,-0.2421,-0.1708,0.1014,226.2969
21:23:38:818,-0.6858,-1.7579,14.7077,31.7132,-0.032,-0.4478,0.1043,226.0938
21:23:38:836,-0.4763,-2.1602,12.4308,31.0809,0.42,-0.3588,0.1595,226.0469
21:23:38:855,0.145,-2.0752,9.4752,29.2877,0.6248,-0.1056,0.1997,225.8906
21:23:38:876,0.6549,-1.7244,8.5666,30.4657,0.3925,0.0292,0.1283,225.4844
21:23:38:901,0.7986,-1.6131,9.0993,31.9166,0.0495,-0.0046,-0.0624,225.0156
21:23:38:917,0.3688,-1.6993,9.3339,30.9947,-0.1111,-0.0174,-0.2757,224.7188
21:23:38:936,-0.5398,-1.983,8.6923,30.312,-0.0911,0.1307,-0.3873,224.7656
21:23:38:958,-1.2676,-1.9662,7.3719,30.8232,0.0104,0.3474,-0.2949,225.0938
21:23:38:983,-1.3059,-1.6418,6.0586,31.6693,0.1167,0.4998,-0.035,225.5938
21:23:39:001,-0.9636,-1.3521,5.2542,29.9096,0.1699,0.4609,0.2356,225.8125
21:23:39:018,-0.6068,-1.1797,4.9166,30.7935,0.1731,0.3024,0.4354,226.0469
21:23:39:037,-0.4273,-1.0588,5.2889,31.5481,0.1113,0.0936,0.5669,225.75
21:23:39:057,-0.219,-0.9595,6.2945,29.9437,0.0133,-0.3479,0.7123,225.2344
21:23:39:084,0.0264,-0.8457,7.4485,31.6369,0.0322,-0.4603,0.7307,223.8125
21:23:39:100,0.0492,-0.7189,8.4026,30.6278,0.0671,-0.4283,0.7576,222.9375
21:23:39:117,0.4335,-0.5537,8.9604,28.542,0.0783,-0.3229,0.7624,222.9375
21:23:39:135,1.0859,-0.1682,9.4153,30.6252,0.0698,-0.2166,0.658,222.0312
21:23:39:155,1.6808,-0.0389,9.6547,30.4563,0.024,-0.1823,0.4418,221.125
21:23:39:176,1.694,-0.2508,9.9373,29.6383,-0.073,-0.2262,0.2197,220.1719
21:23:39:202,1.5456,-0.7979,10.8734,29.7919,-0.1167,-0.2739,0.0537,219.3594
21:23:39:222,1.451,-1.6718,11.5857,30.4196,-0.1241,-0.2726,-0.0344,218.8125
21:23:39:235,1.293,-2.5073,11.9304,30.4196,-0.1481,-0.2315,-0.0086,218.5781
21:23:39:267,1.6653,-3.0161,11.8526,31.0528,-0.2285,-0.186,0.0511,218.5156
21:23:39:286,2.5416,-3.0783,11.3929,29.5069,-0.3965,-0.2377,-0.0129,218.5625
21:23:39:296,2.7547,-2.6007,11.7113,29.4835,-0.5353,-0.4289,-0.2099,218.5938
21:23:39:317,1.9191,-2.5624,13.1922,30.3767,-0.4213,-0.4931,-0.3423,218.625
21:23:39:339,0.9662,-3.1621,13.6806,30.3114,-0.1784,-0.2089,-0.2736,218.8906
21:23:39:355,0.9674,-3.6877,12.3769,30.4032,-0.0434,0.2628,-0.0682,219.3438
21:23:39:375,1.9957,-3.4734,10.0558,29.4835,-0.1393,0.4811,0.0359,219.7656
21:23:39:400,3.2682,-2.706,8.454,30.067,-0.4314,0.4135,-0.1141,220.0156
21:23:39:417,3.7506,-1.9327,8.6516,30.4552,-0.6842,0.2998,-0.4379,220.0938
21:23:39:437,3.1293,-1.6945,9.7912,28.4849,-0.6679,0.4055,-0.7407,220.2969
21:23:39:456,1.7898,-1.7687,9.7697,30.3822,-0.5049,0.7235,-0.8653,220.9062
21:23:39:476,0.3928,-1.7639,8.2745,28.9992,-0.4045,0.9973,-0.7929,221.3906
21:23:39:499,-0.4045,-1.5018,6.7434,31.0203,-0.3712,1.0412,-0.6086,222.5156
21:23:39:518,-0.6595,-1.0564,5.9988,29.5018,-0.2796,0.8132,-0.4022,223.8594
21:23:39:537,-0.6511,-0.6482,5.5954,31.5873,-0.1329,0.4185,-0.2102,225.0938
21:23:39:555,-0.4057,-0.2951,5.5176,30.4672,-0.0035,0.0311,-0.0664,226.125
21:23:39:574,0.1737,0.0784,5.6026,30.7371,0.0549,-0.2563,-0.0267,226.8125
21:23:39:596,0.8453,0.4076,6.1413,31.0593,0.0053,-0.4297,-0.1098,227.2344
21:23:39:617,1.3109,0.6207,7.3467,30.967,-0.0948,-0.4507,-0.3031,227.2344
21:23:39:635,1.1326,0.4447,8.8826,30.3096,-0.1723,-0.2947,-0.4733,227.2188
21:23:39:655,0.7184,0.2233,10.2916,30.0022,-0.168,-0.0528,-0.53,227.375
21:23:39:676,0.6298,0.2292,11.4109,29.4483,-0.0927,0.242,-0.5295,227.8281
21:23:39:701,1.1134,0.1502,11.7748,31.0842,-0.0567,0.6449,-0.6094,228.4219
21:23:39:717,1.0272,-0.0425,11.4827,29.6404,-0.1475,0.9901,-0.738,229.0938
21:23:39:735,-0.9276,-1.5185,12.5505,29.9633,-0.2168,1.0859,-0.7956,229.8281
21:23:39:756,-1.7357,-2.7264,13.2221,29.4537,-0.1345,0.9509,-0.6808,230.7188
21:23:39:777,-1.4268,-3.3848,13.1227,31.3715,0.0517,0.7094,-0.3753,231.8594
21:23:39:801,-0.6415,-3.2615,12.5278,31.4417,0.1912,0.422,-0.0861,232.9688
21:23:39:817,-0.6104,-3.1538,13.0581,32.7756,0.1409,0.0297,-0.0163,233.7031
21:23:39:836,-1.4328,-3.5129,14.6478,31.7449,0.0189,-0.3383,-0.0722,233.9688
21:23:39:856,-2.0374,-4.0875,16.0113,32.3959,0.0794,-0.4227,0.021,233.9531
21:23:39:875,-1.6603,-4.4718,13.8769,32.2496,0.5124,-0.1594,0.3089,233.9844
21:23:39:901,-0.4297,-3.9881,9.2453,33.2558,0.9872,0.2739,0.6695,233.9688
21:23:39:918,0.5927,-2.9658,6.3531,32.0308,0.9694,0.368,0.8556,233.3125
21:23:39:935,0.7351,-2.238,6.255,33.3543,0.599,0.0457,0.7682,232.8281
21:23:39:959,0.2778,-2.2763,8.1069,33.4877,0.2394,-0.4041,0.5757,231.6562
21:23:39:974,-0.3231,-2.4092,8.8539,33.552,0.2016,-0.6339,0.4756,230.4531
21:23:39:994,-0.5099,-2.2081,7.9118,33.1344,0.3638,-0.5969,0.5288,229.5156
21:23:40:016,-0.1232,-1.6586,6.4597,32.4788,0.4237,-0.3844,0.646,228.8125
21:23:40:036,0.1366,-1.1378,6.1413,32.9848,0.2647,-0.1943,0.6828,228.1094
21:23:40:055,0.1294,-0.9762,6.5758,33.5646,0.0645,-0.0901,0.6245,227.2188
21:23:40:075,-0.3111,-1.0002,7.0786,32.5178,-0.0344,-0.0073,0.5659,226.2812
21:23:40:101,-0.5494,-0.8278,7.5466,34.2013,-0.0306,0.0484,0.6122,225.5
21:23:40:117,-0.0992,-0.4962,7.8052,35.0962,0.0927,-0.0614,0.7568,224.8125
21:23:40:134,0.9063,0.1251,7.5802,33.9453,0.3015,-0.2536,0.8953,223.8125
