Time,Acc_X,Acc_Y,Acc_Z,Meg,Gyr_X,Gyr_Y,Gyr_Z,Ore
20:48:56:327,-0.6068,0.4603,9.5087,53.1167,-0.008,0.5192,-0.3439,81.625
20:48:56:358,-0.3219,1.1618,7.9393,52.7604,-0.0908,0.3408,-0.1529,81.625
20:48:56:371,1.0428,1.6107,8.9628,50.7148,-0.2245,-0.3026,-0.1167,81.625
20:48:56:386,1.1422,1.5461,11.1535,52.5221,-0.1867,-0.7679,-0.4499,196.4844
20:48:56:406,0.6992,0.8757,12.0334,53.0878,0.0256,-0.6912,-0.7284,196.6562
20:48:56:428,-0.0322,0.568,10.9165,55.4612,0.2786,-0.3493,-0.7998,197.1406
20:48:56:454,-0.5362,0.6171,9.1041,51.9377,0.4328,-0.1322,-0.6882,197.9844
20:48:56:471,-0.5697,1.0792,7.7729,53.3659,0.4943,-0.129,-0.5031,198.9062
20:48:56:483,-0.3913,1.637,7.0678,53.922,0.5236,-0.2624,-0.3567,199.6719
20:48:56:508,-0.1064,2.0812,6.747,54.4284,0.5047,-0.3386,-0.3015,200.25
20:48:56:523,-0.031,2.475,6.6955,52.8355,0.3662,-0.3658,-0.3103,200.6719
20:48:56:543,0.0241,2.6043,7.1205,53.3344,0.1209,-0.3389,-0.33,201
20:48:56:572,-0.0154,2.633,7.8292,54.0865,-0.134,-0.2281,-0.3654,201.375
20:48:56:583,-0.1711,2.4391,8.478,54.9455,-0.3252,-0.1048,-0.3953,201.7656
20:48:56:607,-0.5039,2.2069,8.8479,54.5142,-0.4261,-0.0172,-0.387,202.1875
20:48:56:625,-0.9241,1.971,9.2178,54.0139,-0.4416,0.0076,-0.2701,202.625
20:48:56:642,-1.3215,1.6059,9.4309,52.2686,-0.3342,0.0457,-0.0315,202.8594
20:48:56:672,-1.3993,1.989,9.6476,53.1423,-0.1225,0.0915,0.3243,203.25
20:48:56:684,-0.7002,2.3338,9.1879,53.1386,0.0871,0.1517,0.5342,203.4531
20:48:56:709,-0.2788,2.6438,8.4864,52.422,0.2115,0.104,0.5528,203.0469
20:48:56:724,0.0289,2.8545,8.1679,52.2991,0.1942,0.0462,0.5206,202.4375
20:48:56:741,-0.0442,2.9167,8.4529,53.4766,0.0629,0.0012,0.4497,201.7969
20:48:56:760,-0.2393,2.6151,9.3148,53.7478,-0.0842,-0.0342,0.4295,201.7969
20:48:56:780,-0.2178,2.0297,10.3287,53.4919,-0.1673,0.0098,0.4977,201.2344
20:48:56:807,-0.2489,1.4802,10.8758,52.1362,-0.2043,0.2223,0.6431,200.2344
20:48:56:825,-0.4823,1.1582,10.5645,51.6768,-0.2298,0.4753,0.8546,199.6875
20:48:56:841,-0.7301,0.9559,9.8989,53.5101,-0.2655,0.5501,1.0988,199.6875
20:48:56:859,-0.8079,0.7344,8.9568,51.6109,-0.3017,0.454,1.3475,198.9531
20:48:56:879,-0.2345,0.914,8.5127,51.8292,-0.3614,0.1645,1.5502,197.9688
20:48:56:909,0.795,1.2037,8.9065,53.6103,-0.4501,-0.1117,1.5664,196.7656
20:48:56:920,1.1493,1.1187,9.5219,52.6166,-0.4831,-0.1397,1.3981,195.2188
20:48:56:939,0.5855,0.8553,9.8211,52.4304,-0.4221,-0.1141,1.2218,193.4375
20:48:56:959,-0.2154,0.4232,10.2784,51.5134,-0.3206,-0.2419,1.1808,190.0938
20:48:56:979,-0.3542,0.234,10.5957,52.2945,-0.2378,-0.3061,1.2484,189.375
20:48:57:003,0.048,0.5177,10.7645,53.0938,-0.3119,-0.2811,1.2767,188.0156
20:48:57:024,0.6142,0.7644,11.448,51.7121,-0.4959,-0.2795,1.2215,185.9844
20:48:57:039,1.1613,0.7045,12.3554,51.9957,-0.6237,-0.292,1.0442,185.2344
20:48:57:059,1.3133,0.5321,12.6906,51.8204,-0.6466,-0.2046,0.8455,183.7812
20:48:57:080,1.1876,0.3633,12.353,53.3239,-0.5886,-0.1615,0.6926,182.4688
20:48:57:102,1.0799,0.2101,11.6898,52.8428,-0.4826,-0.2004,0.5898,181.4375
20:48:57:120,0.9315,0.3789,11.3163,50.5215,-0.3398,-0.1594,0.5134,180.9688
20:48:57:139,0.7004,0.2364,10.6435,53.1453,-0.1316,-0.0254,0.4298,180.1719
20:48:57:159,0.3928,0.0437,9.0071,52.8213,0.0623,0.1451,0.3962,179.5
20:48:57:179,0.3353,-0.0126,7.6065,52.7868,0.1241,0.2183,0.4319,178.9375
20:48:57:203,0.6214,0.1167,6.7494,52.6076,0.0961,0.1288,0.4649,178.4375
20:48:57:221,0.6992,0.1921,6.6081,52.1033,0.0234,-0.0944,0.4508,178
20:48:57:239,0.613,0.0724,7.3683,53.1502,-0.0437,-0.3492,0.4271,177.5312
20:48:57:259,0.54,-0.1443,8.3774,53.3356,-0.0716,-0.4654,0.4292,176.75
20:48:57:280,0.5592,-0.2675,9.0849,53.6004,-0.0828,-0.3932,0.462,176.2344
20:48:57:301,0.856,-0.1155,9.1771,53.3518,-0.1276,-0.276,0.4769,175.75
20:48:57:323,1.3062,0.0832,9.2765,52.161,-0.2272,-0.2699,0.4154,175.2188
20:48:57:339,1.6366,0.1909,9.8678,50.8041,-0.3502,-0.3671,0.278,174.6562
20:48:57:359,1.8604,0.1299,10.8686,51.7923,-0.4546,-0.4576,0.082,174.1562
20:48:57:379,2.0232,-0.1742,11.6946,50.999,-0.5145,-0.3572,-0.1244,173.7344
20:48:57:405,2.022,-0.568,11.594,53.0836,-0.5992,-0.0432,-0.3037,173.5
20:48:57:421,1.9969,-0.7847,11.1954,50.0827,-0.7851,0.3371,-0.4438,173.5
20:48:57:440,1.8161,-0.7608,11.2158,52.6385,-0.9867,0.6154,-0.5703,173.75
20:48:57:464,1.2116,-0.8362,11.4755,52.5601,-1.0671,0.8047,-0.6714,174.2188
20:48:57:490,0.3449,-1.1582,11.2481,52.6986,-0.9798,0.9933,-0.6648,174.875
20:48:57:506,-0.1148,-1.4587,10.385,53.0324,-0.82,1.1451,-0.4802,175.6406
20:48:57:525,-0.1017,-1.4227,9.3375,51.8881,-0.6823,1.1951,-0.1854,176.5469
20:48:57:541,0.8584,-1.0145,8.8192,53.0258,-0.5891,1.0854,0.1304,177.375
20:48:57:559,2.0795,-0.592,8.897,52.7816,-0.4368,0.6678,0.2785,178.0312
20:48:57:580,3.4059,-0.2891,9.6535,52.4658,-0.2216,0.0798,0.2519,178.0312
20:48:57:601,4.3528,-0.0281,10.6699,53.4232,0.0474,-0.3871,0.0354,177.7969
20:48:57:619,4.6473,-0.1646,11.0338,52.9952,0.2551,-0.5429,-0.342,177.5156
20:48:57:645,4.2187,-0.6135,10.8315,53.51,0.2357,-0.3325,-0.7721,177.4375
20:48:57:659,3.1365,-1.1546,10.7788,52.263,0.0213,0.0859,-1.0864,177.5156
20:48:57:682,1.8233,-1.7376,11.2277,53.8322,-0.1523,0.5219,-1.1996,178.0938
20:48:57:703,0.4694,-2.1254,11.1128,52.6655,-0.1148,0.8553,-1.0789,179.125
20:48:57:724,-0.2489,-2.0776,10.2162,52.9071,0.0961,0.915,-0.7319,180.5
20:48:57:739,0.0947,-1.5496,8.9161,53.8824,0.3491,0.6327,-0.3322,181.9531
20:48:57:759,0.9913,-0.8242,8.0817,53.5185,0.5177,0.1496,-0.0882,183.0938
20:48:57:779,1.779,-0.3454,8.0793,54.4339,0.58,-0.2872,-0.0648,183.8281
20:48:57:802,2.0555,-0.0521,8.2924,54.1129,0.5824,-0.5165,-0.1828,184.125
20:48:57:820,1.9478,0.0473,8.4505,53.3326,0.5444,-0.5663,-0.3607,184.1875
20:48:57:839,1.6856,0.003,8.2039,53.8581,0.4495,-0.4347,-0.5354,184.375
20:48:57:859,1.3421,0.009,8.0123,54.7923,0.2663,-0.2054,-0.6829,184.7344
20:48:57:880,1.05,0.0114,7.8579,52.231,0.0551,0.0324,-0.7916,185.3125
20:48:57:900,0.6274,0.0509,8.1069,52.3634,-0.1345,0.1738,-0.8746,186.0312
20:48:57:918,0.1737,-0.0293,8.5031,52.4911,-0.2394,0.2436,-0.8893,186.9531
20:48:57:939,-0.2824,-0.0521,8.7916,54.553,-0.2431,0.2391,-0.8291,187.9688
20:48:57:958,-0.5111,0.076,9.0299,53.283,-0.1752,0.1671,-0.7013,188.9531
20:48:57:979,-0.3854,0.3382,8.7701,53.534,-0.1007,0.1115,-0.5684,189.9375
20:48:58:001,-0.4524,0.6147,8.3583,54.473,-0.0985,0.0406,-0.4866,190.75
20:48:58:019,-0.5458,0.7656,8.4086,53.3275,-0.1776,-0.0512,-0.4235,191.375
20:48:58:039,-0.5434,0.8242,9.0275,54.6674,-0.2661,-0.0771,-0.362,191.9375
20:48:58:060,-0.7684,0.999,9.8235,52.5811,-0.3199,0.0047,-0.2983,192.4219
20:48:58:080,-0.9552,1.0912,10.4113,54.1269,-0.3105,0.1328,-0.2291,192.8281
20:48:58:106,-1.1611,0.9882,10.4472,52.3479,-0.2717,0.2055,-0.1404,192.9844
20:48:58:125,-1.2137,0.7739,10.7728,54.2782,-0.2671,0.1767,-0.0166,193.2812
20:48:58:140,-0.8546,-0.313,12.5769,54.0273,-0.2077,0.0508,0.3283,193.6094
20:48:58:160,-0.2405,-0.5309,13.0294,52.2567,-0.1385,0.0478,0.535,193.6406
20:48:58:181,0.2072,-0.5321,13.2245,53.8754,-0.0285,-0.0299,0.6505,193.125
20:48:58:205,0.2647,-0.4962,13.1742,53.8754,0.0951,-0.1013,0.702,193.125
20:48:58:220,0.1426,-0.4627,13.0258,53.6255,0.2085,-0.0664,0.7515,192.5469
20:48:58:290,0.1055,-0.519,12.2812,53.0047,0.3529,0.0891,0.7984,191.7969
20:48:58:291,0.2144,-0.4615,10.8794,53.1346,0.477,0.189,0.8375,190.9844
20:48:58:291,0.3963,-0.021,9.62,52.5705,0.5276,0.0835,0.834,190.1094
20:48:58:306,0.7914,0.3669,9.231,53.6385,0.4916,-0.223,0.7302,189.2656
20:48:58:321,1.0823,0.4735,9.6859,51.5112,0.4293,-0.5085,0.5137,188.3594
20:48:58:339,1.0739,0.246,10.6519,53.0399,0.384,-0.6347,0.2676,186.625
20:48:58:359,0.6214,0.0569,11.5174,52.0992,0.3995,-0.5042,0.0705,185.9844
20:48:58:379,-0.0406,-0.1323,11.5761,50.4704,0.4863,-0.2513,-0.0544,185.7656
20:48:58:402,-0.3925,-0.2675,10.9632,51.3834,0.5907,0.0526,-0.0805,185.5312
20:48:58:424,-0.4428,-0.2053,9.8355,50.307,0.6666,0.3078,-0.0661,185.5
20:48:58:440,-0.4153,-0.2125,8.6073,50.5294,0.7111,0.4119,-0.06,185.5781
20:48:58:459,-0.5063,-0.2783,7.5849,49.8702,0.7097,0.3733,-0.0485,185.7031
20:48:58:479,-0.6631,-0.2975,6.8894,50.5105,0.6618,0.2841,-0.0059,185.8125
20:48:58:503,-0.5494,-0.313,6.5794,49.9954,0.5888,0.1682,0.0684,185.875
20:48:58:522,-0.3842,-0.2496,6.51,49.7725,0.5108,0.0628,0.1307,185.9844
20:48:58:539,-0.2657,-0.2065,6.5219,49.4001,0.4218,-0.0339,0.185,186.0312
20:48:58:558,-0.0969,-0.0712,6.5806,47.7024,0.3057,-0.1229,0.2154,185.9844
20:48:58:579,-0.0849,0.0976,7.1217,47.9483,0.1388,-0.1812,0.2085,185.8594
20:48:58:604,-0.1591,0.1754,7.9345,46.9844,-0.0213,-0.1532,0.2122,185.6562
20:48:58:619,-0.1088,0.2903,8.8419,47.2741,-0.119,-0.0451,0.2487,185.4219
20:48:58:640,0.1545,0.5034,9.2429,46.9318,-0.1377,0.0779,0.2865,185.1875
20:48:58:659,0.4359,0.7033,9.1089,46.8402,-0.1414,0.1333,0.2857,184.7969
20:48:58:679,0.6226,0.8601,8.867,47.1396,-0.1923,0.0803,0.2415,184.5
20:48:58:704,0.7591,0.7931,8.976,47.0981,-0.3049,-0.0203,0.1603,184.1719
20:48:58:720,0.8285,0.5429,9.4931,47.1396,-0.4647,-0.0726,0.0785,183.8594
20:48:58:741,0.8656,0.2975,10.3107,46.271,-0.6266,-0.0291,0.0386,183.625
20:48:58:758,1.0512,-0.0293,11.0194,46.4784,-0.7425,0.0729,0.0439,183.4844
20:48:58:779,1.4306,-0.3322,11.5617,46.3645,-0.783,0.1054,0.0676,183.3906
20:48:58:802,2.113,-0.5261,11.5581,44.0119,-0.759,0.0476,0.0295,183.3438
20:48:58:821,2.1908,-0.7308,11.2134,46.3381,-0.7973,-0.1186,-0.1908,183.25
20:48:58:839,1.6928,-1.3246,11.5833,45.155,-0.9856,-0.1535,-0.4603,183.1719
20:48:58:859,0.8429,-1.9231,13.0234,45.6166,-1.1859,0.055,-0.6201,183.2031
20:48:58:879,-0.0669,-2.2081,14.4144,43.7436,-1.1699,0.4968,-0.5993,183.5156
20:48:58:903,-0.3973,-2.3134,14.6131,43.9696,-0.8077,0.8926,-0.3636,184.1094
20:48:58:920,0.4371,-1.9686,13.033,44.2471,-0.1787,0.9347,-0.0176,184.8281
20:48:58:941,2.0376,-1.2887,10.5238,43.6921,0.4208,0.519,0.1898,185.6719
20:48:58:959,3.4466,-0.6279,8.5247,44.5739,0.7148,-0.0528,0.0945,185.8281
20:48:58:979,3.9924,-0.2269,7.7238,43.3947,0.6179,-0.3823,-0.2576,185.7188
20:48:59:003,3.5579,-0.2664,8.2266,42.3293,0.3262,-0.3277,-0.6885,185.6562
20:48:59:021,2.3848,-0.6758,8.7665,44.0599,0.0908,0.0268,-1.0254,185.7188
20:48:59:039,1.0763,-0.8673,8.7569,41.6705,0.0088,0.398,-1.1396,186.2344
20:48:59:058,0.2934,-0.7093,8.2924,43.44,0.0871,0.5075,-1.0624,187.2344
20:48:59:078,0.0743,-0.3549,7.8651,43.8482,0.2533,0.3208,-0.9109,188.4688
20:48:59:103,-0.0011,0.0162,7.4784,43.8798,0.4181,0.0406,-0.775,189.8125
20:48:59:132,0.1677,0.3178,7.2569,41.8336,0.5105,-0.186,-0.6797,191.0156
20:48:59:139,0.3832,0.5632,7.1684,41.8535,0.5191,-0.2717,-0.6459,192.0156
20:48:59:163,0.5233,0.841,7.2043,40.0592,0.4607,-0.2693,-0.668,192.8125
20:48:59:189,0.5532,1.09,7.1875,41.8888,0.3537,-0.272,-0.7458,193.5625
20:48:59:203,0.3988,1.2504,7.4856,41.2119,0.1902,-0.2933,-0.8499,194.2969
20:48:59:219,0.1186,1.2588,8.3439,41.1103,0.0189,-0.2829,-0.9372,195.0312
20:48:59:240,-0.3902,1.1881,9.2334,40.9614,-0.0732,-0.1996,-0.9958,196.4219
20:48:59:260,-0.9288,1.0289,9.8056,39.1446,-0.0775,-0.067,-0.9774,197.4531
20:48:59:280,-1.3861,0.8913,9.7553,39.1524,-0.0338,0.0662,-0.9021,198.5312
20:48:59:304,-1.8865,0.9978,9.4764,40.3728,-0.0487,0.1134,-0.7806,199.6406
20:48:59:322,-2.0984,0.9679,9.8774,39.3125,-0.1489,0.0486,-0.6379,200.6719
20:48:59:339,-2.2983,0.7117,10.9656,38.1133,-0.2455,-0.0166,-0.5023,201.5312
20:48:59:359,-2.442,0.1921,12.122,37.912,-0.2834,0.0127,-0.341,202.2656
20:48:59:380,-2.5617,-0.0138,12.8151,37.9722,-0.2583,0.1618,-0.1005,202.8438
20:48:59:403,-2.0589,0.1059,12.8618,38.0561,-0.1867,0.3214,0.1307,203.2344
20:48:59:421,-1.9284,0.1862,11.9628,36.7099,-0.1087,0.3184,0.1922,203.3438
20:48:59:440,-2.3414,0.1395,11.4552,38.1094,-0.1803,0.0918,0.2335,203.2344
20:48:59:459,-2.4922,-0.3298,12.8701,37.4183,-0.3084,-0.08,0.3302,203.0625
20:48:59:480,-2.8191,-0.9678,14.3163,38.8923,-0.2112,0.0031,0.5123,202.8125
20:48:59:505,-2.6395,-1.5221,13.9954,38.899,0.1225,0.1584,0.8042,202.4219
20:48:59:523,-1.9703,-1.4072,12.2141,38.8097,0.4237,0.1232,1.0916,201.8281
20:48:59:540,0.4095,-0.9511,11.5653,39.7649,0.5396,-0.2901,1.2298,201.4219
20:48:59:560,0.5424,-0.9331,11.5031,38.032,0.6139,-0.1527,1.1081,199.75
20:48:59:581,0.1557,-1.0493,10.3275,40.3436,0.7268,0.1293,1.0423,198.3281
20:48:59:604,-0.0849,-1.0409,8.2948,38.1835,0.7907,0.3845,1.074,195.7031
20:48:59:621,-0.0394,-0.8266,6.5686,38.4076,0.7593,0.4641,1.1478,195.7031
20:48:59:638,0.2012,-0.6159,5.4122,39.7895,0.6882,0.3533,1.2061,194.5469
20:48:59:665,0.4311,-0.325,4.7778,39.509,0.6037,0.0753,1.221,193.375
20:48:59:677,0.5735,-0.0581,4.7538,38.2416,0.4895,-0.2337,1.1856,192.2031
20:48:59:699,0.6286,-0.0114,5.4373,38.5533,0.355,-0.4323,1.1302,190.8906
20:48:59:722,0.6597,0.021,6.3029,39.5394,0.2368,-0.4166,1.0918,189.5156
20:48:59:739,0.6908,0.2891,6.6225,39.4087,0.1316,-0.3032,1.0631,188.1719
20:48:59:761,0.9674,0.6387,7.0127,39.7661,0.0186,-0.2659,1.0045,186.9531
20:48:59:778,1.3217,0.9798,7.6927,39.3638,-0.0618,-0.2667,0.8799,185.6875
20:48:59:798,1.3217,1.181,8.1165,39.3331,-0.0892,-0.2776,0.7043,184.4688
20:48:59:822,1.1434,1.2731,8.2529,40.3614,-0.1196,-0.264,0.527,182.8281
20:48:59:841,0.9351,1.1977,8.2302,40.1111,-0.2072,-0.2619,0.3581,181.9062
20:48:59:858,0.8369,1.06,8.6743,41.7261,-0.3835,-0.3125,0.2125,181.1875
20:48:59:880,0.9542,0.7739,10.0486,40.1796,-0.5891,-0.4188,0.0686,180.7031
20:48:59:908,0.8644,0.1862,11.9268,41.4137,-0.7121,-0.4323,-0.0565,180.3594
20:48:59:919,0.8489,-0.6877,13.4268,40.9548,-0.7073,-0.2792,-0.0664,180.1562
20:48:59:954,1.5192,-1.2013,13.5525,40.9189,-0.5846,-0.0539,0.0487,180.125
20:48:59:959,2.6182,-1.1211,12.3853,41.2171,-0.4698,-0.0355,0.1086,180.1719
20:48:59:980,3.3293,-0.9415,11.5366,42.0099,-0.4919,-0.3322,-0.0323,180.1719
20:49:00:007,2.9725,-1.2025,12.365,40.3629,-0.6772,-0.5602,-0.3015,180.125
20:49:00:024,1.8089,-1.7508,14.0625,41.86,-0.8418,-0.3029,-0.4672,180
20:49:00:039,0.6094,-2.1051,14.4707,40.6283,-0.7334,0.345,-0.3995,180
20:49:00:058,0.4658,-2.1961,12.4715,42.4804,-0.4125,0.8457,-0.1362,180.2812
20:49:00:079,1.4187,-1.6514,9.7553,42.8886,-0.1609,0.8793,0.1635,180.7656
20:49:00:098,2.7235,-0.562,8.49,42.7607,-0.074,0.3815,0.2508,181.25
20:49:00:122,3.364,0.2843,8.8192,43.8279,-0.0509,-0.1604,0.0473,181.5
20:49:00:139,3.03,0.4016,9.3004,43.1097,0.028,-0.3463,-0.2872,181.2969
20:49:00:158,2.1417,0.1323,8.794,44.0309,0.0839,-0.0883,-0.5599,181.0938
20:49:00:179,1.1793,0.1502,7.6783,45.6665,0.0176,0.3701,-0.6768,181.2031
20:49:00:207,0.6178,0.3394,7.0415,44.9892,-0.1068,0.6391,-0.713,181.6719
20:49:00:223,0.1497,0.519,7.464,45.7563,-0.1411,0.6404,-0.7162,182.3906
20:49:00:239,-0.1603,0.6123,7.7753,45.905,-0.0088,0.5275,-0.6837,183.25
20:49:00:259,-0.3339,0.7823,7.4533,45.4237,0.1627,0.4026,-0.639,184.1562
20:49:00:279,-0.3997,0.9882,7.1181,46.2171,0.2234,0.3152,-0.5934,184.9844
20:49:00:305,-0.2369,1.1833,7.4413,47.1459,0.1875,0.2186,-0.549,185.7969
20:49:00:386,-0.1543,1.242,8.4888,46.7477,0.1686,0.0841,-0.5404,186.5469
20:49:00:387,-0.3686,1.169,9.5374,46.7477,0.2304,-0.0172,-0.5319,187.2031
20:49:00:387,-0.5996,1.1259,10.1587,46.3857,0.3459,-0.0464,-0.4848,187.8438
20:49:00:387,-0.6475,1.1522,10.1695,46.863,0.4152,0.013,-0.4302,188.4844
20:49:00:404,-0.7026,1.1857,10.1432,47.0755,0.3614,0.1493,-0.3921,189.3281
20:49:00:423,-0.9157,0.9511,10.4975,46.1204,0.2613,0.2817,-0.3439,189.8281
20:49:00:438,-1.2341,0.7057,10.7561,46.8788,0.2035,0.3663,-0.2368,190.3125
20:49:00:458,-1.2497,0.3549,10.6938,47.3088,0.1752,0.3741,-0.0762,190.7344
20:49:00:479,-1.0342,0.2999,10.2485,49.3866,0.0754,0.2907,0.0849,190.9062
20:49:00:505,-0.7672,0.6063,10.5705,47.483,-0.1936,0.096,0.1754,191.1406
20:49:00:523,-0.1328,0.5944,12.3614,49.1354,-0.5345,-0.0915,0.152,191.1719
20:49:00:538,-0.3638,0.1215,15.074,50.0922,-0.7294,-0.1245,0.0021,191.0312
20:49:00:558,-1.8494,-0.8864,17.2336,49.9146,-0.5766,-0.0507,-0.0344,190.7969
20:49:00:579,-2.6012,-1.6705,17.1905,49.9339,-0.086,0.2702,0.233,190.6562
20:49:00:609,-2.2061,-1.7903,14.1427,50.2823,0.4948,0.6513,0.6178,190.6562
20:49:00:627,-1.3299,-1.2863,9.8702,50.9252,0.8093,0.7461,0.8812,190.5781
20:49:00:643,-0.5494,-0.5477,6.9792,51.2491,0.726,0.4865,0.9515,190.1562
20:49:00:659,-0.0681,-0.0006,6.5411,50.1161,0.4266,0.0598,0.8588,189.4062
20:49:00:681,-0.1459,-0.0461,7.9537,50.0852,0.2117,-0.2856,0.6908,188
20:49:00:706,-0.6236,-0.2987,9.0167,48.3101,0.2304,-0.3546,0.5893,187.0625
20:49:00:723,-1.2329,-0.501,8.8359,50.2591,0.3422,-0.1916,0.6061,186.2656
20:49:00:739,-1.4651,-0.5525,7.8806,49.1739,0.4314,0.0196,0.7339,185.6094
20:49:00:760,-1.2006,-0.2161,6.7494,49.3764,0.4626,0.1043,0.879,184.9375
20:49:00:778,-0.7708,0.1371,6.1161,50.3835,0.444,-0.0206,0.943,184.1406
20:49:00:800,-0.5374,0.325,5.9784,50.0905,0.4045,-0.1948,0.935,183.2188
20:49:00:824,-0.4237,0.4016,6.0419,50.2707,0.3561,-0.3309,0.8993,182.1719
20:49:00:841,-0.3111,0.5202,6.2083,49.3608,0.2906,-0.3953,0.854,181.125
20:49:00:859,-0.1411,0.7141,6.5267,48.5296,0.1982,-0.4054,0.8103,180.1094
20:49:00:881,0.1246,1.0672,7.1612,48.5277,0.1161,-0.4017,0.7491,179.1875
20:49:00:905,0.3664,1.3629,7.8363,50.845,0.082,-0.39,0.6423,178.2656
20:49:00:924,0.5939,1.5748,8.223,50.6804,0.0834,-0.3349,0.494,177.3906
20:49:00:940,0.4143,1.6382,8.3271,50.2179,-0.0562,-0.1889,0.1315,177.0156
20:49:00:960,0.3796,1.2815,8.9963,50.6005,-0.2232,-0.2361,-0.0533,176.125
20:49:00:982,0.2683,0.4471,10.2856,51.0192,-0.3734,-0.3016,-0.1812,175.7656
20:49:01:007,0.2084,-0.404,11.8071,50.4631,-0.4519,-0.3298,-0.1833,175.6406
20:49:01:024,0.7315,-0.975,12.9827,51.5052,-0.4096,-0.2715,-0.0701,175.6406
20:49:01:042,1.961,-1.1378,12.5625,50.6682,-0.3081,-0.1434,0.0423,175.8281
20:49:01:058,3.2886,-0.7811,11.2169,52.4048,-0.3356,-0.2235,-0.036,176
20:49:01:078,3.5699,-0.5405,10.9751,52.005,-0.6043,-0.5029,-0.3641,176.0469
20:49:01:099,2.7008,-1.0181,12.7935,51.9394,-0.9563,-0.607,-0.7447,175.9844
20:49:01:123,0.9482,-2.0069,15.2464,50.8803,-1.0607,-0.2078,-0.9245,176
20:49:01:140,-0.7158,-2.5145,15.1985,53.2431,-0.742,0.5632,-0.7396,176.3281
20:49:01:158,-0.7864,-2.3649,11.8418,52.4074,-0.2695,1.0468,-0.3034,177.125
20:49:01:177,0.5783,-1.4551,8.4828,53.9178,-0.0636,0.8934,0.0833,178.1406
20:49:01:198,2.095,-0.264,7.5191,51.2685,-0.0796,0.2359,0.1808,178.9844
20:49:01:224,2.7834,0.5333,8.6169,52.1743,-0.0541,-0.4773,-0.0179,179.4219
20:49:01:242,2.2926,0.4375,9.3746,53.8173,0.0703,-0.7117,-0.3346,179.3125
20:49:01:259,1.3995,0.1802,9.0765,53.573,0.1222,-0.4036,-0.5327,179.1719
20:49:01:283,0.6956,0.1778,8.3008,54.0125,0.0575,0.1269,-0.5918,179.3125
20:49:01:306,0.4191,0.3849,7.6376,52.2916,-0.0359,0.5307,-0.5838,179.7812
20:49:01:321,0.2994,0.7213,7.3228,53.8774,-0.0631,0.6577,-0.566,180.4219
20:49:01:339,0.194,0.9619,7.2773,52.7615,0.0013,0.5304,-0.5468,181.1094
20:49:01:359,0.2204,1.1247,7.4736,53.3515,0.0983,0.3176,-0.5082,181.8125
20:49:01:378,0.2898,1.315,7.7885,52.6982,0.1742,0.1533,-0.4722,182.5156
20:49:01:399,0.3461,1.473,8.241,54.1411,0.2208,-0.0078,-0.4533,182.8438
20:49:01:423,0.3233,1.6777,8.8407,54.72,0.229,-0.0984,-0.4496,183.4375
20:49:01:439,0.1486,1.819,9.304,54.1709,0.2304,-0.0736,-0.4611,184
20:49:01:458,-0.1842,1.8681,9.6547,54.4713,0.2242,0.0558,-0.4576,184.5312
20:49:01:480,-0.6116,1.8453,9.6978,54.3007,0.2072,0.2833,-0.4054,185.0156
20:49:01:496,-0.8881,1.8429,9.4608,53.6924,0.1798,0.4276,-0.3117,185.5469
20:49:01:518,-0.9791,1.6358,9.5422,53.3092,0.1385,0.352,-0.19,186.0938
20:49:01:538,-0.8283,1.3713,10.2952,53.1432,0.0911,0.1096,-0.0536,186.7812
20:49:01:559,-0.201,1.0074,11.4659,53.7054,0.0447,-0.1285,0.0452,187.125
20:49:01:577,0.3341,0.7991,12.5146,54.0087,-0.0471,-0.2025,0.0484,187.2812
20:49:01:603,0.5568,0.5968,13.2832,54.9069,-0.2157,-0.1905,-0.0339,187.2812
20:49:01:623,0.3748,0.3035,14.3629,53.1762,-0.3904,-0.182,-0.0893,187.2031
20:49:01:638,-0.1388,-0.4471,15.4391,52.15,-0.2956,-0.2094,-0.1146,187.1562
20:49:01:658,-1.1252,-1.1402,14.7831,51.8531,0.0498,-0.2377,-0.0043,187.2031
20:49:01:678,-1.1144,-1.321,13.0844,53.7023,0.2703,0.1003,0.2748,187.2812
20:49:01:699,-0.7038,-1.0337,10.7345,50.9759,0.3585,0.5786,0.486,187.3594
20:49:01:723,-0.2728,-0.8948,8.4205,51.2367,0.3438,0.7195,0.5779,187.2031
20:49:01:738,0.1725,-0.7081,7.5443,51.4063,0.2328,0.4542,0.6346,186.8125
20:49:01:758,0.5472,-0.5237,8.2553,51.6768,0.1965,-0.0677,0.6234,186.2812
20:49:01:781,0.7363,-0.6853,9.3471,51.7449,0.3169,-0.5458,0.5536,185.6406
20:49:01:807,0.5687,-0.7129,9.9289,50.9275,0.4293,-0.6446,0.478,184.625
20:49:01:825,0.449,-0.6027,10.045,50.939,0.4381,-0.4273,0.4282,183.9688
20:49:01:841,0.4694,-0.4435,9.8427,50.2571,0.433,-0.0968,0.36,183.4219
20:49:01:858,0.4921,-0.2508,8.8754,49.8891,0.4362,0.2113,0.2612,182.9531
20:49:01:877,0.1653,0.0006,7.6161,48.2906,0.3854,0.3794,0.1565,182.5469
20:49:01:899,-0.2285,0.1802,6.9948,48.8079,0.294,0.3504,0.0929,182.3906
20:49:01:922,-0.5697,0.2711,6.9673,49.6205,0.2357,0.2249,0.0828,182.2031
20:49:01:940,-0.772,0.3992,7.0594,49.1728,0.2192,0.0968,0.1219,182.1094
20:49:01:958,-0.5685,0.7201,7.1372,49.8134,0.188,0.0137,0.1888,182.0469
20:49:01:982,-0.207,1.2205,7.3563,48.4748,0.1308,-0.0257,0.2348,181.9531
20:49:01:997,0.1689,1.8334,7.628,49.7455,0.0842,-0.052,0.2274,181.7969
20:49:02:019,0.0217,2.5325,7.6927,47.8554,0.0639,-0.0638,0.1741,181.5625
20:49:02:039,-0.4356,3.1083,7.5191,48.5169,0.0663,-0.1029,0.1344,181.2969
20:49:02:059,-0.6858,3.2136,7.3755,47.5587,0.041,-0.231,0.1448,181.0781
20:49:02:080,-0.699,3.3621,8.077,47.0621,-0.0591,-0.3921,0.2244,180.9062
20:49:02:096,-0.4297,3.3573,9.7038,47.677,-0.0871,-0.4821,0.339,180.6719
20:49:02:120,0.0348,3.1921,10.8411,47.1133,0.0559,-0.4646,0.4487,180.4062
20:49:02:138,0.6035,2.9144,10.9356,48.033,0.244,-0.3615,0.5376,180
20:49:02:158,1.5432,2.5468,10.3323,47.7111,0.3614,-0.2702,0.5786,179.4844
20:49:02:177,2.6254,2.1745,9.8223,46.9735,0.3539,-0.325,0.5041,178.875
20:49:02:199,3.3328,1.7101,10.1635,47.0442,0.2437,-0.4001,0.3049,178.25
20:49:02:225,3.8907,0.8374,10.3299,45.7217,0.086,-0.3895,-0.0192,177.6875
20:49:02:242,3.7877,-0.2041,10.3107,45.1463,-0.2328,-0.3895,-0.4123,177.3281
20:49:02:262,2.6804,-0.4615,11.7185,45.6095,-0.6703,-0.4004,-0.7428,177.3438
20:49:02:278,0.6442,-0.9248,15.0321,46.0371,-0.8812,-0.2584,-0.9577,177.8125
20:49:02:299,-0.9516,-2.4582,17.048,46.2517,-0.5244,0.341,-0.8254,178.6406
20:49:02:322,-0.7325,-2.9766,13.7859,45.9236,0.1252,1.1166,-0.3604,179.6562
20:49:02:340,2.5068,-0.3741,6.146,44.6839,0.4338,1.254,0.0439,180.6094
20:49:02:360,3.1497,0.1478,7.4281,44.4905,-0.0258,-0.3319,-0.2323,181.0781
20:49:02:381,2.6744,-0.2257,9.5266,44.8984,-0.1119,-0.6651,-0.5484,181.0781
20:49:02:404,1.8041,-0.3621,9.7517,44.3408,-0.0437,-0.3559,-0.7127,181.0469
20:49:02:468,1.0907,0.1251,8.1356,45.0304,-0.0471,0.2108,-0.7623,181.3125
20:49:02:468,0.8836,0.7703,6.5902,44.5133,-0.2173,0.6273,-0.8025,181.9062
20:49:02:468,0.4957,1.2695,6.2215,45.2086,-0.396,0.7728,-0.8531,182.6719
20:49:02:485,0.1294,1.5544,6.4441,45.2786,-0.4306,0.65,-0.8613,183.5469
20:49:02:497,-0.2621,1.7268,6.8032,45.2786,-0.3659,0.4489,-0.8198,184.4844
20:49:02:516,-0.5422,2.0165,7.1181,46.5294,-0.2818,0.3043,-0.7109,185.4688
20:49:02:543,-0.5901,2.4774,7.4221,46.1822,-0.2229,0.1975,-0.6171,186.4219
20:49:02:562,-0.4835,2.6989,8.0494,46.5866,-0.2128,0.1405,-0.5844,187.3594
20:49:02:581,-0.6679,2.7372,8.9173,44.6393,-0.2242,0.1703,-0.5908,188.1562
20:49:02:596,-1.2113,2.6941,9.7816,44.011,-0.2253,0.2673,-0.5822,188.8281
20:49:02:624,-1.8662,2.4463,10.543,44.833,-0.1811,0.3831,-0.5039,189.5
20:49:02:643,-2.4408,2.2248,10.8087,43.0526,-0.0858,0.4582,-0.33,190.1719
20:49:02:659,-2.9136,2.0668,10.7621,43.2718,-0.013,0.442,-0.0914,191.3906
20:49:02:677,-3.0908,1.9184,10.9201,42.7223,0.0136,0.3027,0.1922,191.625
20:49:02:697,-2.5653,1.6981,11.3355,42.6742,-0.0109,0.1336,0.4796,191.8906
20:49:02:724,-1.1994,1.7508,11.5486,43.2941,-0.126,-0.0246,0.6047,191.875
20:49:02:743,-0.5781,1.5257,12.6846,43.5343,-0.3686,-0.4798,0.4434,191.5
20:49:02:763,-1.3454,0.0892,16.1969,42.8615,-0.4756,-0.9511,0.2402,190.8438
20:49:02:776,-2.1918,-1.6023,18.8006,42.608,-0.0589,-0.953,0.3046,190.1719
20:49:02:799,-2.187,-2.0141,16.7595,43.5556,0.5878,-0.4153,0.6071,189.7344
20:49:02:824,-1.2928,-1.2743,11.8347,42.2175,0.8594,0.1573,0.8087,189.3594
20:49:02:841,-0.3411,-0.5836,8.4349,42.0857,0.6666,0.2998,0.7888,189.125
20:49:02:859,-0.2549,-0.1431,7.5514,41.0003,0.3188,0.0295,0.6324,188.4688
20:49:02:878,-0.7409,-0.1634,8.6887,40.2901,0.127,-0.3642,0.5259,187.6094
20:49:02:898,-0.9827,-0.3298,9.5159,40.6751,0.2136,-0.5556,0.5406,186.7656
20:49:02:923,-0.8283,-0.1323,9.055,41.1078,0.4016,-0.5024,0.6271,186.0625
20:49:02:939,-0.4404,0.3645,7.8699,40.6852,0.4983,-0.3237,0.6828,185.4844
20:49:02:957,-0.1579,0.8051,6.8404,41.0729,0.4658,-0.1626,0.6559,184.5156
20:49:02:978,-0.0801,1.0181,6.4058,41.0503,0.3798,-0.0893,0.5898,183.75
20:49:02:998,-0.1196,1.1007,6.3543,40.647,0.3156,-0.1005,0.5291,183.0469
20:49:03:023,-0.3985,1.0995,6.6883,40.6822,0.274,-0.1365,0.503,182.3438
20:49:03:040,-0.6056,0.9164,7.3192,40.4197,0.2895,-0.1234,0.5629,181.7188
20:49:03:058,-0.3602,0.9619,7.5335,38.9703,0.3705,-0.0528,0.6868,181.1719
20:49:03:077,0.2479,1.4898,7.1971,40.0381,0.44,-0.0707,0.7669,180.5938
20:49:03:098,0.9123,1.9495,7.1265,40.3238,0.4368,-0.2209,0.7036,179.8906
20:49:03:123,1.2583,2.2128,7.4006,41.7017,0.372,-0.3468,0.5224,179.1094
20:49:03:139,1.1146,2.1961,7.7681,38.8882,0.2538,-0.3255,0.299,178.2656
20:49:03:156,0.7148,2.0058,8.0554,39.8475,0.0921,-0.1591,0.1262,177.5781
20:49:03:177,0.3521,1.8669,8.5235,38.4087,-0.0807,-0.0225,0.0292,177.125
20:49:03:199,0.5089,1.6861,9.1555,39.6557,-0.2195,-0.0677,-0.0395,176.9062
20:49:03:225,0.7794,1.3497,10.3036,37.8639,-0.3422,-0.2739,-0.1463,176.8281
20:49:03:248,0.6741,0.5788,11.9053,38.221,-0.4184,-0.3599,-0.2256,176.8594
20:49:03:256,0.8345,-0.2664,12.5685,39.9046,-0.3968,-0.1698,-0.1798,177.0156
20:49:03:277,1.5372,-0.4339,11.7401,37.4167,-0.383,0.0766,-0.0802,177.2656
20:49:03:301,2.6481,-0.0317,10.6878,39.5447,-0.4826,0.0588,-0.1149,177.375
20:49:03:319,2.9294,0.2005,10.8842,39.2007,-0.6876,-0.2824,-0.3636,177.5
20:49:03:337,2.2794,-0.2089,12.9719,41.1305,-0.8663,-0.5522,-0.6424,177.5781
20:49:03:357,0.9734,-0.9415,14.6454,39.9113,-0.7915,-0.2057,-0.7426,177.8125
20:49:03:383,-0.0681,-1.236,13.191,39.1496,-0.4922,0.4809,-0.5689,178.375
20:49:03:396,0.3341,-0.926,9.954,39.5699,-0.2868,0.7997,-0.2507,179.1406
20:49:03:417,1.451,-0.1442,7.883,38.3042,-0.3276,0.5624,-0.0717,179.9219
20:49:03:442,2.3273,0.4615,8.1919,40.4909,-0.4277,-0.0243,-0.1093,180.4219
20:49:03:457,2.2076,0.7033,9.4488,38.5267,-0.3678,-0.452,-0.2754,180.625
20:49:03:477,1.2966,0.7332,9.4776,37.8749,-0.1931,-0.3895,-0.3889,180.7344
20:49:03:497,0.7291,1.0181,8.4277,39.9768,-0.0812,-0.0323,-0.337,181.0156
20:49:03:524,1.0045,1.6143,7.3647,40.8307,-0.0216,0.2532,-0.276,181.4062
20:49:03:540,1.4426,2.1279,6.4501,40.1683,0.0125,0.3099,-0.3375,181.7969
20:49:03:559,1.5037,2.4918,6.1125,39.4413,-0.0117,0.2332,-0.4904,182.125
20:49:03:576,1.3002,2.5528,6.1915,40.8277,-0.0652,0.1336,-0.6805,182.5
20:49:03:597,0.9734,2.3912,6.6237,40.3574,-0.1505,0.0862,-0.8579,183.0781
20:49:03:623,0.2144,2.1769,7.7549,40.3463,-0.249,0.0992,-0.9599,183.875
20:49:03:641,-0.2812,1.8932,9.2573,40.3463,-0.2637,0.1317,-0.95,184.8438
20:49:03:657,-0.5685,1.7472,10.3706,40.2877,-0.1502,0.1802,-0.8731,185.8906
20:49:03:678,-0.6104,1.8441,10.804,39.5494,0.0077,0.1882,-0.7993,186.9844
20:49:03:698,-0.8307,1.8441,11.1296,40.1116,0.0988,0.2305,-0.7569,188
20:49:03:724,-1.3215,1.4312,11.0589,39.5428,0.1747,0.3871,-0.6991,188.8906
20:49:03:740,-1.5525,1.005,10.7142,38.4278,0.2141,0.6473,-0.4704,189.3281
20:49:03:759,-1.5346,0.7608,10.8327,39.5127,0.1582,0.5842,-0.2547,190.6094
20:49:03:779,-1.0162,0.7093,11.3798,38.8233,0.1007,0.4646,-0.0667,191.9375
20:49:03:798,-0.7612,0.7177,11.697,40.5047,0.0743,0.4095,0.0226,192.2812
20:49:03:824,-0.6032,0.8051,11.3319,38.4866,0.017,0.4031,0.0665,192.2812
20:49:03:841,-0.3949,0.8841,10.792,38.7076,-0.1209,0.2534,0.0279,192.3906
20:49:03:858,-0.8415,0.4842,11.46,38.6815,-0.3201,-0.2523,-0.117,192.3906
20:49:03:877,-2.1726,-0.6027,14.0565,40.2024,-0.3625,-0.7032,-0.1346,192.3438
20:49:03:896,-2.5198,-1.7005,15.7085,40.3708,-0.0802,-0.5612,0.136,192.3281
20:49:03:917,-2.0637,-1.8393,13.3717,40.5896,0.2804,-0.0797,0.454,192.4062
20:49:03:940,-1.3993,-1.1714,10.3347,39.9002,0.2767,0.0638,0.6631,192.4844
20:49:03:959,-0.9803,-0.7189,9.9468,40.0845,0.0961,-0.1205,0.7432,192.2812
20:49:03:975,-0.638,-0.574,10.5466,38.5095,0.086,-0.2632,0.7922,191.7969
20:49:03:996,-0.4356,-0.3968,9.9349,39.1478,0.2245,-0.1586,0.8476,191.0625
20:49:04:018,-0.347,-0.0305,8.3475,38.3833,0.3574,0.0146,0.9227,189.2812
20:49:04:040,-0.1531,0.2652,6.7673,38.4377,0.4213,0.0833,0.9928,188.8594
20:49:04:057,0.0983,0.6638,5.8671,39.9926,0.4157,0.043,1.0428,187.8594
20:49:04:076,0.2742,1.0337,5.5259,38.7048,0.3885,-0.0805,1.0271,186.7812
20:49:04:099,0.2898,1.1845,5.7881,37.612,0.3372,-0.1764,0.9648,185.6406
20:49:04:124,0.1294,1.2253,6.1628,39.1106,0.2623,-0.1671,0.8921,184.5156
20:49:04:142,-0.1998,1.2336,6.6584,38.4503,0.1654,-0.0992,0.8399,183.3906
20:49:04:161,-0.2501,1.2923,7.3707,39.2603,0.0818,-0.0363,0.8111,182.3438
20:49:04:178,-0.2106,1.4706,8.2098,37.3908,0.0511,-0.0315,0.7693,181.4062
20:49:04:197,-0.1854,1.6538,8.9149,39.3296,0.0903,-0.0861,0.7233,180.4688
20:49:04:226,0.0779,1.7304,9.2645,36.8797,0.1728,-0.182,0.6458,180.0156
20:49:04:239,0.3736,1.8813,9.3399,36.1236,0.1891,-0.2044,0.532,179.125
20:49:04:263,0.7663,1.9782,9.5434,37.1934,0.1108,-0.1895,0.3363,178.3438
20:49:04:275,1.0284,1.6706,10.039,38.3909,-0.0453,-0.1583,0.0798,177.6094
20:49:04:297,1.0631,0.9104,10.853,39.0035,-0.236,-0.0848,-0.1521,177.0156
20:49:04:321,0.9626,-0.0916,11.861,37.6188,-0.3918,0.0236,-0.2725,176.6406
20:49:04:338,1.4175,-0.9786,12.5697,36.7819,-0.4437,0.1275,-0.2288,176.6094
20:49:04:357,2.4147,-1.2959,12.3506,38.4395,-0.4211,0.1911,-0.1159,176.8438
20:49:04:381,3.3508,-0.9894,11.4456,39.955,-0.4056,0.0944,-0.0717,177.125
20:49:04:395,3.431,-0.4076,10.9332,38.8623,-0.4916,-0.1618,-0.2038,177.2969
20:49:04:416,2.3728,-0.5106,11.9256,38.4696,-0.6517,-0.2691,-0.383,177.375
20:49:04:440,1.1888,-0.9128,12.9599,38.8695,-0.6501,-0.0169,-0.3737,177.4844
20:49:04:457,1.0308,-0.8864,12.3769,38.0963,-0.4333,0.2958,-0.1673,177.7969
20:49:04:532,2.0017,-0.3226,10.6004,40.0629,-0.1638,0.2662,0.0031,178.2188
20:49:04:532,3.0934,0.2436,9.626,37.8087,0.0104,-0.1953,-0.0323,178.5312
20:49:04:533,3.7578,0.6674,9.7685,40.4415,0.1137,-0.6329,-0.2597,178.5938
20:49:04:535,3.4454,0.7955,9.948,39.599,0.1768,-0.6912,-0.631,178.5938
20:49:04:563,2.3692,0.5668,9.3447,40.5348,0.1955,-0.3277,-0.9687,178.7031
20:49:04:577,1.3492,0.4172,8.15,39.4455,0.1553,0.164,-1.1796,179.125
20:49:04:596,0.6789,0.3346,6.9361,42.2173,0.1276,0.4737,-1.2904,180.0469
20:49:04:623,0.0181,0.3681,6.0347,39.2967,0.1305,0.4907,-1.3181,181.2812
20:49:04:640,-0.4021,0.4579,5.836,40.8865,0.1433,0.3086,-1.26,182.6562
20:49:04:656,-0.4811,0.6937,6.0467,40.8865,0.1691,0.1216,-1.178,184.2031
20:49:04:676,-0.456,0.999,6.4525,42.4541,0.1747,0.034,-1.1135,185.7188
20:49:04:698,-0.5601,1.2552,6.7853,41.5777,0.1558,0.026,-1.0784,187.1406
20:49:04:723,-0.7984,1.4419,7.1229,41.4658,0.0908,0.0414,-1.0467,188.3906
20:49:04:742,-1.027,1.5796,7.7489,41.3146,-0.0312,0.0707,-0.9868,189.6562
20:49:04:759,-1.2664,1.7747,8.8263,43.2214,-0.1526,0.1046,-0.9173,190.875
20:49:04:777,-1.6674,1.7137,9.9923,41.8682,-0.1926,0.1757,-0.8438,191.9844
20:49:04:799,-2.2804,1.5173,10.4029,41.5633,-0.1806,0.3251,-0.7151,193.5938
20:49:04:823,-2.9507,1.4072,10.4484,42.7018,-0.1878,0.422,-0.493,194.5625
20:49:04:841,-3.1064,1.2923,10.7656,42.6116,-0.212,0.3642,-0.1822,195.3594
20:49:04:858,-2.4049,1.2516,11.5928,42.5614,-0.2439,0.1826,0.1302,195.9375
20:49:04:876,-1.5178,1.1235,12.8701,42.7253,-0.2615,-0.0739,0.3264,196.1719
20:49:04:897,-0.8798,0.8996,14.3198,44.6921,-0.2477,-0.239,0.4276,196.0312
20:49:04:924,-0.3111,0.6039,15.0369,44.8409,-0.1835,-0.1674,0.4561,195.6406
20:49:04:940,-0.0801,0.4136,14.8214,44.1437,-0.1494,0.0004,0.4229,195.125
20:49:04:957,-0.189,0.1945,14.9495,44.2398,-0.0999,0.0678,0.3842,194.5781
20:49:04:976,-0.5458,-0.3142,14.9986,46.1827,0.09,0.1698,0.3813,194.1094
20:49:04:997,-1.1252,-0.89,13.0808,46.006,0.396,0.4564,0.4756,193.6719
20:49:05:026,-1.1575,-0.8553,9.9265,46.0793,0.58,0.6585,0.6633,193.25
20:49:05:044,-0.8786,-0.5309,7.306,46.1489,0.5236,0.549,0.8146,193.0312
20:49:05:061,-0.7169,-0.1,6.6057,46.0893,0.3044,0.1267,0.8961,192.4844
20:49:05:076,-0.4751,-0.0186,7.719,46.0237,0.1569,-0.3373,0.9342,191.7031
20:49:05:097,-0.3698,-0.0162,8.8,46.7374,0.196,-0.5804,0.951,190.2969
20:49:05:123,-0.189,0.3837,8.1787,45.9364,0.3467,-0.362,0.9552,189.2188
20:49:05:139,-0.0933,0.5285,7.3731,46.4306,0.2884,-0.161,0.9033,189.2188
20:49:05:156,-0.1459,0.6734,6.923,47.3139,0.188,-0.031,0.8479,187
20:49:05:175,-0.2968,0.7153,6.996,46.1203,0.1095,-0.0009,0.8239,187
20:49:05:197,-0.2848,0.8314,7.4162,46.0132,0.0983,0.0012,0.8569,184.9375
20:49:05:216,0.0253,1.0002,7.5814,46.4697,0.1854,-0.0214,0.911,183.9844
20:49:05:242,0.3892,1.3545,7.1827,46.8899,0.2876,-0.0944,0.9249,183.0938
20:49:05:259,0.8524,1.7735,6.8643,45.7135,0.3041,-0.2241,0.8593,182.1094
20:49:05:276,1.1098,2.244,7.154,47.027,0.2296,-0.3721,0.6876,181.0781
20:49:05:295,1.0811,2.2943,8.1907,48.4722,0.1103,-0.4172,0.4535,180.0312
20:49:05:316,0.8141,2.0417,9.231,49.8723,0.0144,-0.2584,0.233,179.1094
20:49:05:340,0.2731,1.6263,9.9109,47.8118,-0.0543,-0.0052,0.079,178.3281
20:49:05:356,0.0324,1.2767,10.2952,48.3461,-0.0964,0.1679,0.0157,177.8125
20:49:05:374,0.1857,0.9236,10.8159,48.0222,-0.1481,0.1451,-0.011,177.5
20:49:05:398,0.4299,0.3789,11.8849,48.5556,-0.1673,-0.0526,-0.0416,177.4375
20:49:05:421,0.8453,-0.3226,12.8606,49.002,-0.1097,-0.1703,-0.0192,177.4375
20:49:05:439,1.5923,-0.732,12.7576,48.7855,-0.0338,-0.0848,0.0332,177.4688
20:49:05:457,2.6625,-0.6638,11.5689,49.5097,-0.0344,0.0564,0.0119,177.5
20:49:05:475,3.3328,-0.3909,10.2617,49.1812,-0.1521,-0.0558,-0.191,177.4844
20:49:05:497,2.9749,-0.3801,10.3299,51.4267,-0.3848,-0.3045,-0.5159,177.4375
20:49:05:522,1.9215,-0.9248,11.7964,51.0011,-0.5752,-0.333,-0.7964,177.5156
20:49:05:539,0.5304,-1.6825,12.6523,50.999,-0.5864,0.0758,-0.8563,177.6719
20:49:05:558,0.2,-1.9603,11.5102,51.713,-0.3949,0.5512,-0.6432,178.2344
20:49:05:577,0.9386,-1.4263,8.9197,51.3293,-0.1944,0.6087,-0.3812,179.0781
20:49:05:596,2.0268,-0.5968,7.2558,51.1834,-0.1763,0.1541,-0.2928,180.0312
20:49:05:615,2.6038,0.2233,7.6987,52.2822,-0.2972,-0.4166,-0.4187,180.7969
20:49:05:640,2.4637,0.4567,9.067,50.9559,-0.371,-0.676,-0.6619,181.2188
20:49:05:657,1.706,0.3813,9.9384,51.098,-0.3806,-0.4124,-0.8278,181.75
20:49:05:679,1.0751,0.5573,9.8211,53.1956,-0.3031,0.1344,-0.84,182.3281
20:49:05:700,0.9758,1.0553,8.3679,52.2697,-0.167,0.5229,-0.8179,183.1094
20:49:05:714,0.8094,1.4587,7.1612,52.4485,-0.0863,0.5645,-0.8318,184.0469
20:49:05:736,0.801,1.7927,6.6321,53.3613,-0.0455,0.4042,-0.868,185.0156
20:49:05:763,0.7531,2.0405,6.5566,54.6958,-0.0453,0.2236,-0.9554,186
20:49:05:777,0.4969,2.1111,6.9577,52.9697,-0.1103,0.1312,-1.0448,186.9531
20:49:05:795,0.1689,1.989,7.7837,54.1106,-0.1667,0.0974,-1.1079,188.0156
20:49:05:817,-0.1723,1.8681,8.6085,53.9815,-0.1673,0.1088,-1.1069,189.1719
20:49:05:841,-0.4943,1.819,9.152,52.3364,-0.1276,0.1219,-1.0688,190.3438
20:49:05:859,-0.8055,1.7627,9.5219,53.8896,-0.1028,0.14,-1.0123,191.625
20:49:05:876,-1.2389,1.6287,10.0653,54.3972,-0.0985,0.1986,-0.9268,192.875
20:49:05:895,-1.6495,1.4551,10.3682,53.0378,-0.0621,0.2819,-0.798,194.0156
20:49:05:917,-1.9033,1.2695,10.3227,53.6759,-0.0309,0.2843,-0.6118,195.1406
20:49:05:940,-1.6914,1.1797,10.7178,54.5092,-0.017,0.1323,-0.4067,196.1562
20:49:05:959,-1.2461,0.9272,11.2984,54.1058,0.0045,-0.0773,-0.2656,197.2969
20:49:05:975,-0.7565,0.6051,11.7772,54.3625,-0.0181,-0.198,-0.1942,197.7656
20:49:05:996,-0.5948,0.4675,12.5122,53.6818,-0.1116,-0.247,-0.1873,198.0625
20:49:06:015,-0.5374,0.2233,13.2736,55.5894,-0.2218,-0.1804,-0.2286,198.2656
20:49:06:036,-0.9444,0.0461,13.5489,55.1721,-0.3297,-0.0387,-0.2749,198.3594
20:49:06:058,-1.7608,-0.3118,14.3821,55.3924,-0.3965,-0.0422,-0.2491,198.5625
20:49:06:076,-2.4001,-0.8888,15.7133,55.5277,-0.2232,-0.0201,-0.0688,198.8281
20:49:06:095,-2.4288,-1.4084,14.7149,56.4683,0.2202,0.2476,0.237,199.125
20:49:06:116,-2.0661,-1.1726,11.1774,54.5829,0.5697,0.5075,0.5637,199.2969
20:49:06:142,-1.3299,-0.6805,8.0913,54.7442,0.5904,0.4305,0.7728,199.2344
20:49:06:158,-0.8738,-0.319,7.3419,55.6257,0.3856,0.0849,0.8476,198.8281
20:49:06:177,-0.4859,-0.319,8.3954,53.529,0.2623,-0.2483,0.8679,198.1406
20:49:06:195,-0.5194,-0.3202,9.0299,54.6603,0.3388,-0.3708,0.8652,197.25
20:49:06:215,-0.7206,-0.1706,8.4995,54.8831,0.428,-0.2955,0.8854,196.2812
20:49:06:242,-0.8079,0.0114,7.7166,53.9026,0.4037,-0.1476,0.9115,194.8125
20:49:06:256,-0.7289,0.1957,7.3395,51.6578,0.3257,-0.0379,0.9363,193.7969
20:49:06:276,-0.6798,0.3609,7.0941,52.6414,0.2892,-0.0313,0.9398,192.7656
20:49:06:295,-0.7601,0.4531,6.9469,54.0945,0.2647,-0.0883,0.9299,191.7656
20:49:06:323,-0.76,0.5333,7.1337,54.0513,0.2362,-0.1343,0.943,190.6875
20:49:06:341,-0.5446,0.6063,7.3862,55.34,0.2466,-0.146,0.9648,189.6406
20:49:06:357,-0.2381,0.75,7.306,53.7318,0.2764,-0.1495,0.9754,188.6094
20:49:06:374,0.1905,1.0517,7.0044,53.2082,0.277,-0.1921,0.944,187.5156
20:49:06:396,0.5687,1.3725,7.2641,52.7273,0.2045,-0.2757,0.8372,186.4062
20:49:06:416,0.7938,1.4455,8.0027,53.9709,0.1254,-0.3058,0.6647,185.3281
20:49:06:440,0.7076,1.3665,8.6324,53.2375,0.0567,-0.2259,0.4742,184.4062
20:49:06:461,0.5891,1.1235,9.0215,52.4742,-0.0365,-0.0789,0.3235,183.6562
20:49:06:479,0.5268,0.8182,9.6392,53.1485,-0.1547,-0.011,0.2165,183.0938
20:49:06:495,0.6262,0.4471,10.8399,53.2107,-0.2424,-0.039,0.1496,182.75
20:49:06:516,0.8034,-0.4699,12.4835,52.6209,-0.1494,-0.0353,0.1227,182.6094
20:49:06:541,1.3265,-0.6794,11.8263,53.0436,-0.0956,0.1051,0.1936,182.3125
20:49:06:605,1.9406,-0.3466,11.0542,52.0619,-0.123,0.1695,0.2599,182.1875
20:49:06:605,2.9665,0.0186,10.3191,54.2807,-0.1603,-0.0172,0.1885,181.8281
20:49:06:606,3.4322,0.0904,10.3586,54.0445,-0.2775,-0.3335,-0.0643,181.5312
20:49:06:618,3.1365,-0.173,11.4097,52.4742,-0.44,-0.4912,-0.3806,181.5312
20:49:06:642,2.2219,-0.7392,12.7205,52.8249,-0.5428,-0.358,-0.6195,181.3281
20:49:06:654,1.4845,-1.2707,13.5034,54.0303,-0.4788,-0.0017,-0.6597,181.375
20:49:06:676,1.5372,-1.4491,12.4548,53.0981,-0.2426,0.3158,-0.5439,181.7656
20:49:06:694,2.0017,-1.1331,10.2641,53.1137,-0.0301,0.3354,-0.4267,182.4062
20:49:06:717,2.4075,-0.6111,8.8946,53.6731,0.0232,0.0865,-0.4131,183.1562
20:49:06:738,2.52,-0.088,8.7126,53.0916,-0.0091,-0.0954,-0.5111,183.7969
20:49:06:758,2.0974,0.161,8.5953,52.0817,-0.037,-0.003,-0.6592,184.2812
20:49:06:775,1.4067,0.3861,7.8759,53.6105,-0.0442,0.258,-0.7593,184.75
20:49:06:794,1.0093,0.6818,7.0163,54.3387,-0.0413,0.4279,-0.8025,185.3281
20:49:06:814,0.7016,0.9379,6.5004,54.3387,-0.0152,0.4209,-0.8222,186.4844
20:49:06:835,0.4837,1.2193,6.176,54.4475,0.0386,0.2779,-0.8155,187.4062
20:49:06:855,0.3964,1.5341,6.1784,53.4463,0.0743,0.0976,-0.8123,188.375
20:49:06:876,0.37,1.7424,6.2621,55.1259,0.066,-0.027,-0.8376,189.3281
20:49:06:894,0.3389,1.8789,6.7446,54.7576,-0.0003,-0.1239,-0.8872,190.2344
20:49:06:915,0.2814,1.983,7.81,53.2656,-0.0852,-0.1626,-0.9407,191.1719
20:49:06:942,-0.0023,1.9459,8.9185,53.5113,-0.1238,-0.1114,-0.9679,192.1562
20:49:06:958,-0.2441,1.9674,9.6392,53.8911,-0.1454,0.0175,-0.954,193.1406
20:49:06:975,-0.5542,2.0596,10.3718,52.0999,-0.1731,0.2207,-0.9223,194.2188
20:49:06:995,-0.9181,1.989,10.8351,53.4643,-0.1302,0.4148,-0.8941,195.3125
20:49:07:015,-1.6004,1.7196,10.5406,53.5279,-0.07,0.5219,-0.7993,195.8594
20:49:07:040,-2.0733,1.5221,10.5334,53.0074,-0.0386,0.4415,-0.5939,196.875
20:49:07:058,-1.932,1.3354,11.1774,53.5092,0.0048,0.2212,-0.3516,197.9375
20:49:07:076,-1.5753,1.0074,11.8155,54.0093,0.0786,0.0886,-0.1503,198.8906
20:49:07:095,-1.3418,0.8446,11.7126,51.9194,0.1111,0.1125,-0.0033,199.5625
20:49:07:115,-1.3347,0.9535,11.3642,51.9344,0.0421,0.153,0.0918,199.9844
20:49:07:142,-1.379,1.0349,11.114,51.7758,-0.1276,0.0652,0.123,200.2031
20:49:07:158,-1.7369,0.7835,12.2094,53.3124,-0.3313,-0.2518,0.1315,200.1562
20:49:07:176,-2.2193,0.1682,14.5688,52.6305,-0.3609,-0.5434,0.2053,200.0312
20:49:07:194,-2.5701,-0.7117,16.3417,53.2671,-0.0887,-0.4121,0.3928,199.875
20:49:07:216,-2.667,-1.2863,14.3665,52.9175,0.334,0.0438,0.6719,199.6562
20:49:07:241,-2.0972,-0.9439,11.0134,53.0485,0.4767,0.2335,0.9645,199.2812
20:49:07:260,-1.0318,-0.5405,9.7709,51.9423,0.3702,-0.0752,1.1097,198.6719
20:49:07:275,-0.2022,-0.349,10.7944,52.3878,0.3121,-0.4158,1.1062,197.75
20:49:07:294,-0.1172,-0.4651,11.205,51.1153,0.4669,-0.4651,1.0474,196.625
20:49:07:314,-0.1435,-0.4806,10.0414,51.1152,0.6887,-0.2504,1.049,195.3281
20:49:07:334,0.0217,-0.2233,7.725,53.5149,0.8195,0.0444,1.0862,194.0781
20:49:07:358,0.3664,0.1897,5.5499,51.7584,0.7547,0.238,1.102,192.9375
20:49:07:374,1.032,0.7979,4.4689,50.8219,0.5092,0.2971,1.0522,191.7344
20:49:07:394,1.773,1.4623,4.8041,51.0307,0.1883,0.3043,0.8737,189.8906
20:49:07:415,1.9478,1.6598,5.9473,50.2774,-0.0554,0.3331,0.5941,188.7812
20:49:07:440,1.4438,1.5568,7.1229,51.4365,-0.1497,0.4082,0.328,187.7969
20:49:07:459,0.4766,1.1642,7.8399,50.7393,-0.0903,0.4175,0.1792,187.125
20:49:07:474,-0.1986,0.7967,7.9453,50.3811,0.0381,0.3533,0.1893,186.7656
20:49:07:495,-0.4895,0.7488,7.822,50.4603,0.1422,0.213,0.2697,186.6562
20:49:07:514,-0.274,0.8254,7.7873,50.0662,0.208,0.0095,0.3203,186.4844
20:49:07:534,0.0899,0.926,7.6005,51.0617,0.2021,-0.1626,0.267,186.2344
20:49:07:556,0.1689,0.8685,7.7502,49.8559,0.0514,-0.2278,0.1198,185.9219
20:49:07:578,0.0779,0.3837,8.4157,49.3367,-0.1918,-0.21,-0.0366,185.5781
20:49:07:594,-0.2453,-0.331,9.6667,49.7825,-0.4706,-0.178,-0.1327,185.3438
20:49:07:615,-0.6942,-1.054,11.5845,48.6683,-0.6807,-0.1205,-0.0991,185.2969
20:49:07:635,-0.3734,-1.5963,13.1551,51.088,-0.6988,-0.0749,0.0718,185.3906
20:49:07:658,0.6549,-1.6718,13.4029,51.2349,-0.6037,-0.0392,0.2327,185.5
20:49:07:675,1.6437,-1.303,12.505,49.5201,-0.6136,-0.0539,0.213,185.4062
20:49:07:704,1.5791,-0.9715,12.5637,49.3429,-0.8322,-0.0757,0.0164,185.0938
20:49:07:714,0.5807,-1.0265,14.0289,49.2069,-1.0179,0.0881,-0.183,185.0938
20:49:07:734,-0.7313,-1.4706,14.8992,51.1904,-0.8892,0.5445,-0.1596,184.75
20:49:07:758,-0.7648,-1.5664,13.2951,51.4116,-0.4959,0.9994,0.136,184.9219
20:49:07:775,0.5687,-0.8242,10.3131,50.2352,-0.1284,0.993,0.4521,185.0938
20:49:07:794,2.3883,0.1526,8.4205,51.1503,0.0884,0.3514,0.5158,185
20:49:07:820,3.5471,0.92,8.4445,50.8622,0.1712,-0.4744,0.2647,184.5938
20:49:07:841,3.3903,0.9559,9.5506,51.5196,0.1803,-0.8859,-0.1569,184.0469
20:49:07:857,2.5583,0.5321,10.033,50.9351,0.196,-0.7019,-0.5292,183.7188
20:49:07:874,1.6366,0.3358,9.1328,52.6897,0.1673,-0.1258,-0.7607,183.8125
20:49:07:894,1.0967,0.4687,7.646,52.0397,0.0519,0.4321,-0.888,184.375
20:49:07:917,0.1629,0.7452,6.5818,52.9994,-0.078,0.6913,-0.9703,185.2344
20:49:07:943,-0.2656,0.7332,6.474,51.5618,0.0631,0.3464,-0.9263,185.2344
20:49:07:959,-0.4991,0.7787,6.0622,52.9836,0.1936,0.1256,-0.8067,186.2969
20:49:07:978,-0.547,0.9882,5.7809,52.8431,0.1949,0.0193,-0.692,187.4062
20:49:07:994,-0.8295,1.1738,5.982,53.6905,0.1004,-0.0864,-0.6057,189.1562
20:49:08:015,-0.7816,1.2995,7.1157,55.8976,-0.0011,-0.2459,-0.4706,189.6875
20:49:08:042,-0.3183,1.576,9.0287,54.4242,0.0381,-0.3993,-0.375,191.4062
20:49:08:058,-0.4404,1.7939,9.7397,52.8416,0.1787,-0.4198,-0.3641,192.0938
20:49:08:076,-0.8091,1.7999,9.8104,54.0512,0.1915,-0.2805,-0.3684,192.6094
20:49:08:093,-1.2999,1.7137,9.7924,53.3236,0.0658,-0.0464,-0.3399,192.9844
20:49:08:113,-1.6327,1.7029,10.1551,54.8183,-0.1196,0.0769,-0.2592,193.375
20:49:08:134,-1.853,1.5293,11.2517,52.7711,-0.2602,0.0311,-0.1359,193.7812
20:49:08:159,-1.6842,1.0588,12.9767,54.5789,-0.2442,-0.142,0.0255,194.1562
20:49:08:179,-1.4532,0.5573,13.9188,55.1937,-0.0285,-0.3072,0.1813,194.4531
20:49:08:194,-1.4364,0.3861,13.4759,54.5468,0.1662,-0.4209,0.3411,194.5938
20:49:08:213,-0.7169,0.489,13.0473,55.5286,0.1158,-0.3801,0.4492,194.5469
20:49:08:234,-0.3075,0.3262,13.1395,56.0459,-0.0514,-0.1785,0.3845,193.6094
20:49:08:257,-0.8786,-0.1335,13.1934,55.8358,-0.1089,-0.1277,0.3174,193.3438
20:49:08:275,-0.8893,-0.4495,13.8637,55.6287,-0.0423,-0.1935,0.3949,193.1094
20:49:08:293,-0.9037,-0.92,13.5992,54.7767,0.2378,-0.125,0.4854,192.7188
20:49:08:314,-0.8211,-1.1355,11.108,54.9353,0.5342,-0.0345,0.6082,192.2969
20:49:08:334,-0.5661,-0.9008,8.8168,54.5007,0.5534,-0.104,0.7113,192.0469
20:49:08:358,-0.2022,-0.6351,8.4109,54.6464,0.3867,-0.3378,0.723,191.5156
20:49:08:375,0.1905,-0.6925,9.3866,55.1358,0.2482,-0.4683,0.6761,190.8438
20:49:08:394,0.2934,-0.6794,9.7553,53.9893,0.2471,-0.3628,0.6125,190.0469
20:49:08:415,0.0276,-0.5728,9.1567,53.8299,0.2906,-0.1777,0.5746,188.4531
20:49:08:440,-0.1124,-0.4806,8.2254,53.7825,0.3129,-0.0014,0.5946,188.0781
20:49:08:459,-0.031,-0.3813,7.221,52.6625,0.3103,0.0955,0.6505,187.3906
20:49:08:474,0.2132,-0.1251,6.4058,52.7628,0.2767,0.0912,0.7041,186.7656
20:49:08:494,0.4442,0.0449,5.9832,53.057,0.2248,0.0127,0.7198,186.0781
20:49:08:514,0.6573,0.1395,5.9856,54.6468,0.1734,-0.0864,0.7145,185.3125
20:49:08:534,0.9578,0.1263,6.0706,53.7263,0.1313,-0.1314,0.6852,184.5469
20:49:08:557,1.2738,0.2292,5.8061,52.9296,0.0253,-0.0576,0.6159,183.7188
20:49:08:575,1.6569,0.3298,5.5223,54.4385,-0.2293,0.1264,0.4977,182.9219
20:49:08:593,1.9586,0.7296,6.0024,53.4583,-0.5726,0.1946,0.3166,182.1719
20:49:08:669,1.9526,0.7332,7.4485,54.1554,-0.8117,0.0918,0.0524,181.5469
20:49:08:669,1.3636,0.4292,8.8814,53.8942,-0.8828,0.0092,-0.178,181.0625
20:49:08:669,0.6046,0.0856,9.9169,54.0797,-0.8519,0.0207,-0.2901,180.8281
20:49:08:673,0.3329,-0.1682,10.6208,53.5351,-0.7758,0.054,-0.2978,180.875
20:49:08:695,0.6873,-0.1885,10.9979,54.3672,-0.7247,0.0292,-0.3069,181.125
20:49:08:714,1.269,-0.3741,11.6299,54.8173,-0.7553,-0.0944,-0.4171,181.6094
20:49:08:735,1.5707,-0.9379,12.9767,54.4934,-0.8144,-0.1439,-0.5756,181.9219
20:49:08:758,1.8484,-1.7579,13.6842,54.9957,-0.8133,-0.0017,-0.6898,182.3594
20:49:08:774,2.3656,-2.2224,13.27,55.1723,-0.8546,0.1815,-0.7593,182.9688
20:49:08:796,2.684,-2.2775,12.863,54.6022,-0.9827,0.2377,-0.8933,183.3438
20:49:08:814,2.1286,-2.1721,13.44,55.1843,-1.1342,0.2516,-1.0912,184.1094
20:49:08:833,0.5843,-2.2487,14.9016,54.9538,-1.1593,0.5011,-1.1769,185.0469
20:49:08:856,-0.875,-2.7312,15.5576,55.3334,-0.8322,0.9826,-0.9767,186.1875
20:49:08:874,-0.9037,-3.2519,13.586,54.8589,-0.1425,1.2945,-0.5015,187.4688
20:49:08:893,0.5017,-3.046,9.9193,55.1919,0.5257,1.0116,0.0162,188.8438
20:49:08:913,2.9893,-2.1685,7.5933,55.2171,0.8466,0.1919,0.2844,189.9062
20:49:08:934,5.0196,-0.9248,7.251,54.0514,0.8346,-0.5855,0.0806,190.4219
20:49:08:960,5.0938,-0.4758,8.32,54.3013,0.6775,-1.0044,-0.4645,190.3594
20:49:08:979,3.9637,-0.7739,9.3267,54.3013,0.5508,-0.8691,-0.9881,190.0938
20:49:08:993,2.7139,-1.1414,9.073,55.2722,0.4397,-0.2646,-1.3018,190.2031
20:49:09:014,1.7263,-1.084,7.8914,55.2716,0.2772,0.4239,-1.398,191.4531
20:49:09:034,1.5408,-0.7907,6.99,53.9176,0.1161,0.764,-1.4123,192.9219
20:49:09:057,1.3732,-0.4399,6.8703,55.3216,0.0791,0.7275,-1.4456,194.5938
20:49:09:076,1.0524,-0.3621,6.7949,55.1101,0.1806,0.466,-1.4803,196.25
20:49:09:093,0.6741,-0.3382,6.5555,56.9114,0.2775,0.1749,-1.4715,198
20:49:09:116,0.552,-0.1706,6.7458,54.0359,0.2767,0.0137,-1.4259,199.7812
20:49:09:133,0.5508,-0.0329,7.2186,54.9066,0.2538,-0.0267,-1.386,201.4062
20:49:09:154,0.5185,0.1933,7.3515,55.7779,0.2477,0.002,-1.3628,203.0469
20:49:09:174,0.2587,0.349,7.2905,55.4122,0.1854,0.0636,-1.3468,204.6406
20:49:09:194,-0.1328,0.4687,7.5371,53.7087,0.0685,0.115,-1.2827,206.2188
20:49:09:214,-0.3459,0.6806,8.2338,53.4182,-0.0394,0.0569,-1.1633,207.6875
20:49:09:235,-0.5518,0.6817,9.3914,54.8001,-0.1044,-0.0694,-1.0153,209.1719
20:49:09:257,-0.2429,0.6375,10.5813,54.43,-0.1321,-0.1777,-0.8326,210.5156
20:49:09:275,0.5053,0.4627,11.9735,55.3935,-0.1633,-0.2712,-0.7231,211.0625
20:49:09:293,0.7758,0.2005,13.4687,53.4268,-0.2213,-0.1767,-0.7106,211.6094
20:49:09:316,0.6705,-0.8158,14.1929,53.6697,-0.0951,0.5134,-0.6581,213.3281
20:49:09:341,0.9901,-0.9128,12.6259,54.0245,0.0261,0.7568,-0.6062,214.0781
20:49:09:358,1.0967,-1.0026,10.8351,52.9098,0.0668,0.5517,-0.68,214.9062
20:49:09:374,0.9973,-1.2683,10.6639,54.8495,-0.0541,0.0369,-0.8211,215.7344
20:49:09:400,1.2726,-2.153,12.7061,54.7558,-0.1337,-0.4121,-0.9745,216.5469
20:49:09:412,0.9554,-3.3477,14.0661,53.1163,0.0599,-0.5109,-1.0842,217.3594
20:49:09:433,1.111,-4.2443,13.1227,51.1057,0.3803,-0.2427,-1.0198,218.2969
20:49:09:459,2.1525,-4.2228,10.4077,50.8414,0.5092,0.0108,-0.9394,219.3594
20:49:09:475,2.7953,-3.5584,8.7078,51.4867,0.3153,-0.0808,-1.036,220.4688
20:49:09:493,2.9151,-3.3453,9.286,51.0389,0.0288,-0.3807,-1.244,221.5938
20:49:09:518,2.4218,-3.5309,10.1851,49.5401,-0.0578,-0.4891,-1.4203,222.6719
20:49:09:532,1.1374,-3.726,10.0965,50.5767,0.0402,-0.2707,-1.3791,223.7812
20:49:09:554,0.2683,-3.2615,8.6611,50.1902,0.167,0.1149,-1.0733,225.1562
20:49:09:575,0.2958,-2.1614,6.9313,50.4395,0.2019,0.246,-0.734,228.2656
20:49:09:593,0.7291,-0.9535,6.2717,49.1889,0.1566,0.0244,-0.5335,228.8594
20:49:09:613,1.208,-0.1407,6.7302,48.8363,0.146,-0.3333,-0.4989,229.9062
20:49:09:633,1.1972,0.2963,7.3683,47.7375,0.1768,-0.5586,-0.5884,230.625
20:49:09:659,0.9219,0.4675,7.5814,48.631,0.1654,-0.5215,-0.6747,231.1719
20:49:09:677,0.6861,0.6399,7.7262,48.0098,0.1004,-0.3916,-0.7402,231.6875
20:49:09:696,0.5185,0.7632,7.9417,47.6578,0.0394,-0.2387,-0.7655,232.3438
20:49:09:712,0.692,0.9762,7.9836,48.3533,0.0429,-0.1764,-0.7889,233.0938
20:49:09:735,0.6465,1.157,7.804,47.6925,0.0575,-0.2009,-0.8882,233.4531
20:49:09:758,0.2707,1.0385,7.7274,47.1446,-0.0104,-0.1775,-0.9929,234.3125
20:49:09:775,-0.0274,0.7584,8.0374,46.5167,-0.1457,-0.097,-1.0438,235.1875
20:49:09:792,-0.2812,0.4196,8.7749,45.6486,-0.2554,-0.0733,-1.0416,236.1875
20:49:09:813,-0.3722,-0.0066,9.7301,46.6407,-0.2959,-0.121,-0.9817,237.25
20:49:09:832,-0.0729,-0.4531,10.7621,46.7849,-0.3057,-0.1695,-0.8858,238.4375
20:49:09:857,0.3736,-0.8062,11.8861,45.9243,-0.2988,-0.1492,-0.783,239.6406
20:49:09:874,0.941,-1.0888,12.7684,46.8148,-0.2434,-0.002,-0.6888,241.25
20:49:09:893,1.6593,-1.3988,12.8618,46.0614,-0.1116,0.1477,-0.6211,242.2188
20:49:09:919,2.6433,-1.7077,12.0046,46.8973,0.0032,0.2263,-0.5995,243.0781
20:49:09:932,3.7722,-1.7879,10.8638,46.4161,-0.0336,0.0942,-0.7058,243.8125
20:49:09:954,4.4617,-1.6454,10.9117,45.786,-0.2882,-0.2433,-0.9921,244.5312
20:49:09:974,4.2079,-2.1626,13.0126,46.6523,-0.6013,-0.5205,-1.3833,245.2656
20:49:09:994,2.4997,-3.1406,15.7803,44.3577,-0.7012,-0.2502,-1.5868,246.1719
20:49:10:014,0.88,-3.9857,16.4902,46.6746,-0.3398,0.516,-1.4081,247.5312
20:49:10:034,0.5915,-4.3509,13.0389,44.4306,0.3302,1.0755,-0.9327,249.3125
20:49:10:058,1.8448,-3.6793,8.5486,44.5099,0.7997,0.9381,-0.4011,251.1562
20:49:10:075,3.5615,-2.1506,5.9772,46.0942,0.9034,0.209,-0.1798,252.5625
20:49:10:093,4.3504,-0.7847,5.5259,46.2701,0.746,-0.5178,-0.3663,253.3594
20:49:10:113,3.8763,-0.3561,6.2873,44.2805,0.5172,-0.8467,-0.7442,253.6094
20:49:10:134,2.6553,-0.4902,6.8751,45.7515,0.3305,-0.7277,-1.0731,253.9531
20:49:10:159,1.6222,-0.6159,6.735,46.3865,0.1103,-0.2489,-1.2318,254.6875
20:49:10:175,0.7363,-0.343,6.5423,45.9671,-0.1502,0.2628,-1.2637,255.8281
20:49:10:192,0.1809,-0.0126,7.0187,45.3218,-0.3156,0.5261,-1.2294,257.1406
20:49:10:213,-0.055,0.1526,7.5251,45.1059,-0.2722,0.5464,-1.1609,257.875
20:49:10:233,-0.2956,0.3837,7.4221,46.6604,-0.1313,0.3711,-1.0944,259.375
20:49:10:256,-0.5553,0.519,7.5167,43.6297,-0.0453,0.1102,-1.0161,260.8125
20:49:10:273,-0.5901,0.6195,8.1608,42.9636,-0.0285,-0.0603,-0.9207,262.0938
20:49:10:299,-0.3087,0.7955,8.897,44.8088,-0.0264,-0.0819,-0.8403,263.3281
20:49:10:312,-0.0849,0.9954,9.4931,43.5242,-0.0189,-0.003,-0.8078,264.4531
20:49:10:333,-0.0562,1.1391,9.7804,43.3677,0.0021,0.1397,-0.8051,265.3906
20:49:10:358,-0.2441,1.1666,9.7301,43.6137,0.0101,0.3174,-0.8241,266.3281
20:49:10:376,-0.6846,0.987,9.6332,42.3424,-0.0197,0.4966,-0.8035,267.25
20:49:10:395,-1.0402,0.8326,9.6404,44.0599,-0.0394,0.6268,-0.7058,268.6406
20:49:10:412,-1.3167,0.7165,9.6009,42.9296,-0.0234,0.5765,-0.5569,269.5938
20:49:10:433,-1.3383,0.5381,10.0258,41.1561,-0.0056,0.3751,-0.3668,270.4375
20:49:10:459,-0.9935,0.3837,11.0039,43.0887,0.0107,0.1754,-0.1599,271.0781
20:49:10:476,-0.5063,0.1335,11.8191,41.1829,0.0471,0.1373,0.0172,271.5156
20:49:10:492,-0.1747,0.0329,11.94,41.1047,0.0671,0.2375,0.1653,271.7031
20:49:10:517,0.0133,0.3358,11.7066,40.8891,0.0045,0.3597,0.3097,271.6875
20:49:10:532,0.5867,0.4399,11.9185,42.7783,-0.1071,0.4026,0.3983,271.6875
20:49:10:553,0.728,0.0257,12.0561,40.4676,-0.1284,0.2705,0.3683,271.1719
20:49:10:575,-0.0394,-0.5297,12.6152,40.2015,-0.0767,-0.1053,0.389,270.75
20:49:10:593,-0.207,-1.1127,13.6291,41.1068,0.0983,-0.3141,0.5171,270.375
20:49:10:613,0.3485,-1.4982,12.9252,40.5596,0.371,-0.1058,0.6663,270.1562
20:49:10:634,0.5783,-1.2216,10.1324,40.3225,0.5073,0.0982,0.7078,269.6406
20:49:10:659,0.7591,-0.7895,8.3487,39.9688,0.338,-0.0867,0.6455,269.6406
20:49:10:676,0.6478,-0.6279,9.1927,39.134,0.0386,-0.4196,0.5171,268.125
20:49:10:747,0.4814,-0.9152,11.0518,40.5917,-0.049,-0.5823,0.3999,266.9375
20:49:10:747,-0.675,-0.9224,10.877,38.0492,0.2464,-0.1266,0.4623,266.3281
20:49:10:748,-0.687,-0.6853,9.2142,39.0187,0.4253,0.1083,0.6215,265.875
20:49:10:760,-0.2956,-0.3094,7.4102,38.6498,0.5566,0.141,0.7643,265.4219
20:49:10:773,0.1103,0.1347,6.1293,37.1187,0.5891,-0.0092,0.838,264.1562
20:49:10:794,0.5879,0.4651,5.7211,37.6212,0.5369,-0.2329,0.8205,264.1562
20:49:10:813,0.8524,0.6602,6.0634,37.3898,0.4253,-0.3455,0.7344,263.2344
20:49:10:832,0.8034,0.6004,6.7961,37.6177,0.3015,-0.2859,0.6303,262.2188
20:49:10:858,0.6705,0.6147,7.3731,37.5919,0.2061,-0.088,0.5704,261.2344
20:49:10:875,0.5137,0.8218,7.7071,36.8575,0.138,0.0236,0.535,260.3906
20:49:10:892,0.6262,0.9284,8.2398,37.8871,0.1153,-0.043,0.4998,259.6406
20:49:10:911,0.7459,1.0792,8.867,38.8713,0.134,-0.1186,0.4473,258.9531
20:49:10:932,1.0859,1.2827,8.9868,39.2441,0.1579,-0.141,0.3464,257.7812
20:49:10:957,1.1505,1.3126,8.9233,36.969,0.098,-0.1431,0.1669,257.5
20:49:10:976,0.9973,1.0576,9.304,38.3219,-0.0629,-0.1152,0.0031,257.0156
20:49:10:993,1.2451,0.5609,10.1336,36.8577,-0.2298,-0.1306,-0.1242,256.7188
20:49:11:012,1.4031,-0.0437,11.3319,38.6207,-0.3539,-0.1679,-0.2235,256.625
20:49:11:033,1.6569,-0.7272,12.2979,37.908,-0.4003,-0.1149,-0.2643,256.7188
20:49:11:059,2.593,-1.5712,11.782,37.6344,-0.4317,-0.0166,-0.2882,256.9375
20:49:11:077,3.1772,-1.6406,10.8686,37.5539,-0.6573,-0.0534,-0.3838,257.2656
20:49:11:095,3.1269,-1.6442,11.794,38.987,-1.0141,-0.2433,-0.6203,257.625
20:49:11:113,2.0089,-2.2643,13.7692,38.5739,-1.2123,-0.1383,-0.8387,257.8125
20:49:11:132,0.6501,-2.5169,14.685,38.5739,-1.1167,0.3797,-0.8155,258.2969
20:49:11:158,0.3928,-2.3182,13.7404,37.9557,-0.8021,0.9645,-0.6147,259.1094
20:49:11:176,1.2666,-1.8848,11.4935,37.623,-0.4325,1.2087,-0.3987,260.2188
20:49:11:192,2.3704,-1.2085,9.6176,39.8676,-0.1286,0.9283,-0.3026,261.25
20:49:11:215,3.3556,-0.5824,8.8754,40.1256,0.1073,0.3437,-0.3961,262.1094
20:49:11:232,3.5603,-0.2316,8.7832,38.8162,0.2706,-0.0968,-0.6563,262.7031
20:49:11:259,2.6373,-0.4208,8.7617,39.0256,0.3159,-0.1253,-0.9431,263.3281
20:49:11:276,1.3816,-0.6554,8.5139,41.5422,0.2732,0.2494,-1.0406,263.9062
20:49:11:293,0.71,-0.3526,7.8842,41.182,0.2211,0.6279,-0.986,264.7969
20:49:11:313,0.5412,-0.0533,7.4221,41.9058,0.2011,0.7917,-0.9087,265.8906
20:49:11:333,0.2515,0.2173,7.1696,42.4638,0.2368,0.7456,-0.8201,267.0625
20:49:11:359,-0.0502,0.3071,7.1983,42.0401,0.3382,0.5251,-0.7018,268.1875
20:49:11:376,-0.1842,0.4435,7.2174,42.9629,0.4642,0.2494,-0.5402,269.2031
20:49:11:393,0.0935,0.6853,7.2641,42.1846,0.5342,-0.0315,-0.399,270.0625
20:49:11:413,0.5352,1.0457,7.5023,43.2075,0.4991,-0.1993,-0.345,270.7656
20:49:11:433,0.783,1.4108,7.9812,42.2733,0.3665,-0.2387,-0.3993,271.2812
20:49:11:459,0.7112,1.6071,8.7222,42.8446,0.1846,-0.1921,-0.4989,271.6406
20:49:11:475,0.2539,1.6658,9.8678,42.9081,0.0415,-0.0808,-0.5697,272.0156
20:49:11:493,-0.2225,1.7364,10.8087,42.7521,0.0213,0.0558,-0.5687,272.5156
20:49:11:512,-0.7122,1.8537,11.2625,44.7668,0.1228,0.1347,-0.5021,273.0938
20:49:11:533,-1.1168,1.8609,10.9763,44.4053,0.2525,0.1538,-0.3971,274.0781
20:49:11:559,-1.3035,1.7053,10.6914,43.9514,0.3121,0.0942,-0.2762,274.6406
20:49:11:576,-1.1431,1.2372,10.4388,42.2882,0.3164,-0.027,-0.1732,275.0625
20:49:11:592,-0.7229,0.6686,10.3682,44.3975,0.2208,-0.1029,-0.1135,275.3594
20:49:11:612,-0.4656,0.2113,10.3945,44.4999,0.0154,-0.1359,-0.1218,275.4688
20:49:11:633,-0.0538,-0.1095,11.1116,46.2495,-0.269,-0.2169,-0.1915,275.6094
20:49:11:652,-0.1376,-0.8984,12.5996,45.7722,-0.4724,-0.3397,-0.3548,275.7188
20:49:11:675,-1.5741,-1.6215,14.151,45.8081,-0.4171,-0.5746,-0.4336,275.8906
20:49:11:694,-2.7029,-2.4211,14.9878,45.2555,-0.1955,-0.5056,-0.2547,276.2188
20:49:11:712,-3.0824,-2.8138,13.75,48.3081,0.0253,0.1323,0.1238,276.7188
20:49:11:732,-2.4707,-2.3158,10.6052,47.5965,0.1662,0.6873,0.5419,277.1406
20:49:11:759,-1.7955,-1.5784,7.9094,47.3688,0.1856,0.6425,0.813,277.2344
20:49:11:778,-1.4125,-1.0732,6.7075,49.2216,0.1004,0.2212,0.9725,276.8438
20:49:11:793,-0.948,-0.8637,6.8451,48.8482,0.0029,-0.2523,1.0878,276.0938
20:49:11:819,-0.2597,-0.574,7.719,48.4621,-0.0482,-0.566,1.1597,275.0625
20:49:11:831,0.2156,-0.1251,8.6025,50.2632,-0.036,-0.6526,1.1376,273.2344
20:49:11:853,0.3389,0.1119,8.8671,48.1274,-0.0189,-0.5008,1.0426,271.9531
20:49:11:876,0.1928,0.2688,8.5845,49.362,-0.0354,-0.1937,0.9336,270.6406
20:49:11:894,-0.0645,0.3585,7.9309,49.1802,-0.0756,0.0654,0.853,269.4375
20:49:11:915,-0.3303,0.5034,7.4557,49.0255,-0.1087,0.1357,0.8215,268.4219
20:49:11:932,-0.6188,0.5046,7.4353,50.0583,-0.0882,0.0124,0.8213,267.4531
20:49:11:952,-0.8031,0.4016,7.6268,50.9764,-0.0043,-0.1503,0.8844,266.5156
20:49:11:975,-0.6439,0.5118,7.4521,51.0741,0.1135,-0.2672,0.9843,265.5938
20:49:11:998,-0.1998,0.8589,7.0115,50.6448,0.1808,-0.3972,1.0308,264.625
20:49:12:012,0.2551,1.1929,6.972,52.1218,0.1443,-0.5375,0.9853,263.4688
20:49:12:031,0.5328,1.2372,7.5993,52.1631,0.0314,-0.5929,0.866,262.2656
20:49:12:054,0.6298,1.1187,8.3978,51.1792,-0.0884,-0.5192,0.7331,261.1562
20:49:12:076,0.6861,0.9727,9.0526,52.5386,-0.1995,-0.4473,0.6151,260.1406
20:49:12:093,0.8237,0.7524,10.1551,53.4671,-0.3012,-0.4875,0.5126,259.7031
20:49:12:112,1.4151,0.0605,13.4292,52.7727,-0.3478,-0.5202,0.3421,259.7031
20:49:12:133,1.3696,-0.4375,14.4683,53.7119,-0.2035,-0.2888,0.2764,258.9219
20:49:12:161,1.6342,-1.078,13.4077,53.0075,-0.0064,0.0889,0.274,258.0469
20:49:12:175,1.8676,-0.987,11.2852,54.5178,0.0368,0.3134,0.3129,257.5781
20:49:12:192,2.7259,-0.8086,10.1934,52.4649,-0.0607,0.1919,0.2745,257.1875
20:49:12:211,3.4035,-0.6997,10.191,55.0371,-0.2397,-0.0808,0.1033,256.9062
20:49:12:232,3.6477,-0.6554,11.6371,54.4753,-0.4218,-0.3258,-0.1503,256.25
20:49:12:252,3.2622,-1.0804,13.5812,56.4649,-0.4653,-0.3032,-0.4035,255.9688
20:49:12:276,2.5727,-1.5856,14.5497,55.848,-0.2866,0.0745,-0.5215,255.875
20:49:12:293,2.356,-2.0536,13.0569,54.8134,0.0509,0.5429,-0.4898,256.0781
20:49:12:314,2.5523,-2.0081,10.1839,55.4002,0.3073,0.692,-0.4001,256.5469
20:49:12:330,3.103,-1.7388,8.138,54.5797,0.3822,0.4119,-0.37,257.1875
20:49:12:351,3.2933,-1.2875,7.5107,57.0171,0.3049,0.0087,-0.4334,257.7812
20:49:12:376,2.8648,-0.9116,7.7908,56.3202,0.2205,-0.1982,-0.5559,258.25
20:49:12:394,2.0962,-0.8422,7.5802,56.7663,0.2133,-0.1833,-0.6571,258.8594
20:49:12:413,1.5085,-0.72,6.7554,56.7692,0.1973,-0.0499,-0.6653,259.3906
20:49:12:431,1.269,-0.343,5.9509,57.8482,0.1241,0.0409,-0.6318,260.0469
20:49:12:451,0.9997,-0.0114,5.8204,57.2172,0.0109,0.0249,-0.6206,260.75
20:49:12:476,0.5364,0.149,6.5112,57.8631,-0.0812,0.0071,-0.5969,261.4844
20:49:12:494,-0.0729,0.1335,7.3455,58.0657,-0.1124,0.0835,-0.5266,262.1875
20:49:12:515,-0.7373,0.1466,8.156,58.4843,-0.1031,0.3072,-0.3647,262.8594
20:49:12:532,-0.7134,0.5836,8.4983,57.3504,-0.0629,0.5869,-0.138,263.5156
20:49:12:557,-0.1519,1.3593,8.2733,58.572,0.0069,0.6409,-0.0219,264.0781
20:49:12:575,0.5939,1.892,8.2398,59.9132,0.0485,0.3935,-0.0722,264.2656
20:49:12:592,1.0919,2.0309,8.7282,60.1027,0.0415,0.1067,-0.2395,264.4375
20:49:12:612,0.7483,1.9339,9.5961,58.1611,0.0168,-0.0614,-0.432,264.5
20:49:12:631,0.0564,1.5892,10.6016,59.8874,0.0362,-0.0909,-0.5332,264.5938
20:49:12:654,-0.5781,1.2827,10.9787,60.2841,0.0916,0.0723,-0.5026,264.8438
20:49:12:677,-0.7098,1.2647,10.8387,60.8606,0.1193,0.2678,-0.383,265.3438
20:49:12:693,-0.4524,1.2001,10.7884,60.9636,0.1092,0.324,-0.2728,265.9375
20:49:12:711,-0.3459,0.8027,10.883,60.5282,0.082,0.2561,-0.2086,266.7188
20:49:12:732,-0.3207,0.3789,11.0865,61.7732,-0.0325,0.1717,-0.134,267.0938
20:49:12:807,-0.195,0.2688,11.6946,61.6761,-0.2229,0.0454,-0.0576,267.3594
20:49:12:807,0.2778,0.0042,13.4064,60.3171,-0.4328,-0.1394,-0.0464,267.5625
20:49:12:807,-0.4871,-0.7596,15.2404,61.46,-0.4578,-0.2214,-0.0821,267.6719
20:49:12:811,-1.786,-1.6478,16.3777,60.672,-0.2115,-0.1921,0.1041,267.75
20:49:12:833,-1.4592,-2.5097,15.6462,61.7695,0.2549,0.001,0.4958,267.8594
20:49:12:860,-0.5542,-2.5109,12.2584,61.4273,0.6352,0.2588,0.8482,267.9062
20:49:12:877,0.5149,-1.892,9.0981,61.9787,0.6674,0.2241,1.0359,267.5781
20:49:12:894,0.9375,-1.2623,8.0087,61.6821,0.4586,-0.0733,1.0218,266.75
20:49:12:912,0.8908,-0.9846,8.6564,61.2527,0.2629,-0.3279,0.9629,265.6406
20:49:12:931,0.8752,-0.7524,9.1029,62.849,0.2583,-0.3996,0.9336,264.4062
20:49:12:954,0.9207,-0.3657,8.5989,61.6185,0.3465,-0.4281,0.903,263.2344
20:49:12:975,1.0464,0.0988,8.2841,60.5904,0.4008,-0.4656,0.8708,261.625
20:49:12:994,1.4127,0.5441,8.1871,59.8714,0.4727,-0.4435,0.7968,260.5469
20:49:13:012,1.4833,0.7967,7.5634,60.586,0.5278,-0.3559,0.6553,259.5
20:49:13:031,1.3959,0.9367,6.9481,61.0099,0.4623,-0.1945,0.5251,258.5625
20:49:13:053,1.1853,1.0217,6.8248,58.786,0.3334,-0.0214,0.4178,258.1406
20:49:13:076,0.9722,0.9894,7.0283,60.9241,0.2549,0.0723,0.3571,257.4062
20:49:13:092,0.722,0.9296,7.4461,60.9692,0.2445,0.1237,0.3411,256.8281
20:49:13:111,0.6729,0.9439,7.4305,59.959,0.2682,0.1818,0.36,256.375
20:49:13:131,0.6071,1.2396,7.3072,60.3237,0.2517,0.128,0.369,255.9688
20:49:13:152,0.6346,1.5784,7.7813,60.6919,0.1744,0.0044,0.3611,255.5312
20:49:13:176,0.9422,1.9076,8.6575,59.1395,0.1198,-0.0701,0.3307,255.0938
20:49:13:195,1.4642,2.0788,9.2214,60.6402,0.1297,-0.1085,0.2276,254.6719
20:49:13:211,1.2631,2.0584,9.286,60.2335,0.1057,-0.1506,0.0556,254.25
20:49:13:231,1.1697,1.8106,9.893,60.1711,-0.0069,-0.2337,-0.0728,253.9062
20:49:13:254,1.372,1.4012,10.9273,60.1573,-0.118,-0.2763,-0.1748,253.7188
20:49:13:274,1.5432,0.908,11.9735,60.048,-0.1989,-0.2337,-0.2536,253.8125
20:49:13:290,1.8832,0.3226,12.7301,60.048,-0.2192,-0.0728,-0.2866,254.0312
20:49:13:310,2.4637,-0.082,12.201,59.7145,-0.1915,0.0537,-0.3117,254.3281
20:49:13:331,2.9965,-0.173,11.2277,60.298,-0.2738,0.0071,-0.3985,254.6719
20:49:13:352,3.0384,-0.2053,11.5294,59.1072,-0.4916,-0.1447,-0.5724,255.0625
20:49:13:374,2.5128,-0.6051,13.0006,60.0857,-0.6578,-0.1415,-0.7583,255.5156
20:49:13:391,1.4259,-1.06,13.9164,59.383,-0.5814,0.1317,-0.8179,256.2344
20:49:13:411,0.7256,-1.3449,12.912,60.1882,-0.3009,0.5203,-0.6869,257.1719
20:49:13:432,1.2475,-1.321,10.5729,58.5652,-0.045,0.7395,-0.4584,258.1406
20:49:13:451,2.4111,-0.9355,8.5917,60.3156,0.0716,0.5634,-0.3303,258.9688
20:49:13:476,3.3843,-0.6518,7.9225,58.9563,0.0607,0.0364,-0.3782,259.5156
20:49:13:494,2.6936,-0.5058,9.1675,60.6642,-0.017,-0.386,-0.8011,259.7188
20:49:13:514,1.4283,-0.4555,8.7605,60.4725,-0.0573,0.014,-0.8896,260.3125
20:49:13:536,0.6873,-0.2328,7.7238,58.6116,-0.1023,0.4433,-0.856,260.9531
20:49:13:551,0.4299,0.1814,6.7913,59.022,-0.1334,0.6351,-0.7663,261.8594
20:49:13:573,0.3054,0.7033,6.3436,58.3579,-0.0972,0.5219,-0.6912,263.8438
20:49:13:593,0.2048,1.0134,6.0587,58.54,-0.0237,0.2364,-0.6584,263.8438
20:49:13:614,0.0492,1.2659,6.2873,59.5576,-0.0139,0.0105,-0.6507,264.7344
20:49:13:632,-0.0789,1.3773,6.832,58.9081,-0.0522,-0.0763,-0.6438,265.5469
20:49:13:651,-0.4105,1.4228,7.7023,58.6259,-0.0996,-0.093,-0.6166,266.2656
20:49:13:678,-0.3375,1.5796,8.7749,58.4343,-0.1063,-0.0563,-0.5457,267.0156
20:49:13:693,-0.055,1.8322,9.4644,59.9544,-0.0535,0.0111,-0.5066,267.75
20:49:13:710,-0.0645,2.1135,9.8295,59.0321,0.0019,0.0739,-0.492,268.4219
20:49:13:730,0.036,2.3445,10.3706,59.658,0.0605,0.1261,-0.4525,269.0625
20:49:13:750,0.1617,2.4319,10.5717,59.4226,0.1329,0.1951,-0.416,269.6406
20:49:13:774,0.1426,2.3996,10.5777,59.2859,0.1688,0.234,-0.3697,270.4531
20:49:13:793,0.0217,2.2847,10.5909,60.2234,0.1486,0.1783,-0.3199,270.9375
20:49:13:811,0.1414,1.7747,11.1032,59.6391,0.0597,0.1038,-0.2714,271.375
20:49:13:831,0.139,1.1786,11.8442,60.2744,-0.061,0.0867,-0.2275,271.7344
20:49:13:853,-0.3866,0.6447,12.6176,59.0606,-0.142,0.0814,-0.1503,272.3438
20:49:13:876,-0.8044,0.3741,13.0174,58.2451,-0.1308,0.087,0.0308,272.3438
20:49:13:896,-0.2238,0.2424,12.5972,57.3586,-0.0655,0.104,0.1661,272.5781
20:49:13:911,-0.5709,-0.0485,11.4959,58.734,-0.0463,0.0641,0.1544,272.6562
20:49:13:931,-1.2221,-0.3106,11.4995,59.05,-0.1207,-0.1197,0.1922,272.625
20:49:13:951,-1.4125,-0.5536,12.4667,57.9059,-0.0876,-0.1362,0.299,272.4375
20:49:13:976,-1.4544,-0.9068,11.8131,57.2679,0.1177,0.0449,0.4391,272.2812
20:49:13:995,-1.2066,-0.9176,9.7936,57.7483,0.2242,0.1988,0.6186,272.0625
20:49:14:011,-0.6511,-0.6315,8.6336,59.0845,0.1891,0.0406,0.7227,271.7344
20:49:14:030,-0.4057,-0.4794,8.6635,57.9925,0.1169,-0.3029,0.7352,270.9062
20:49:14:051,-0.0514,-0.337,9.377,56.3162,0.0953,-0.4811,0.7286,270.1094
20:49:14:075,0.2348,-0.1933,9.3124,55.5147,0.1449,-0.3985,0.6833,269.2656
20:49:14:092,0.2072,0.0269,8.6001,57.3907,0.1401,-0.1692,0.6274,268.4531
20:49:14:117,0.212,0.1885,8.0638,56.9898,0.0988,0.0201,0.5938,267.625
20:49:14:129,0.2168,0.3478,7.47,56.6168,0.0807,0.1048,0.5733,266.8594
20:49:14:159,0.3509,0.4675,7.0032,53.9504,0.0514,0.1086,0.5563,266.1562
20:49:14:174,0.4514,0.5824,7.0151,55.7896,0.0205,0.0681,0.5336,265.5156
20:49:14:193,0.4514,0.6339,6.966,54.8199,0.0242,0.0143,0.5059,264.8594
20:49:14:211,0.4514,0.659,6.9373,55.1214,0.0024,-0.0579,0.4892,264.2344
20:49:14:231,0.5496,0.8134,7.3264,55.3385,-0.0639,-0.1346,0.4673,263.6719
20:49:14:251,0.6537,0.9655,8.1452,54.9118,-0.1177,-0.1855,0.4322,263.0938
20:49:14:275,0.9638,1.1989,8.9197,56.2308,-0.134,-0.1935,0.364,262.5469
20:49:14:293,1.0416,1.236,9.5554,54.4611,-0.1246,-0.1429,0.2423,262.0625
20:49:14:311,0.9626,1.1163,9.7314,54.7267,-0.1031,-0.0241,0.1398,261.6094
20:49:14:331,1.0344,1.0517,9.5566,54.9453,-0.1153,0.0438,0.0471,261.1562
20:49:14:352,1.0763,0.7847,9.9061,55.4161,-0.1806,-0.0694,-0.0459,261.0625
20:49:14:375,1.0344,0.2628,11.4348,53.8878,-0.2226,-0.3,-0.1151,260.9688
20:49:14:392,1.2164,-0.3681,12.9563,53.7678,-0.1369,-0.3895,-0.1284,261.0469
20:49:14:411,1.7766,-0.8817,12.784,54.8211,0.0165,-0.2638,-0.1447,261.1875
20:49:14:430,2.2567,-1.1642,11.3917,53.09,-0.0163,-0.0869,-0.2177,261.25
20:49:14:451,2.7044,-1.1845,10.5921,54.5531,-0.2746,-0.0821,-0.3756,261.4062
20:49:14:478,2.7654,-1.0517,11.679,55.3031,-0.6352,-0.2401,-0.6456,261.5938
20:49:14:497,1.7826,-1.6418,14.242,54.7797,-0.8615,-0.1761,-0.913,261.9219
20:49:14:514,0.3245,-2.4583,15.9682,54.5426,-0.6991,0.3477,-0.9138,262.5156
20:49:14:531,0.0336,-2.6558,13.5309,53.2007,-0.2211,0.9935,-0.6456,263.5156
20:49:14:552,1.1134,-1.9459,9.6715,53.7612,0.0594,1.1293,-0.3268,264.7031
20:49:14:576,2.9282,-1.1929,7.9142,54.3739,0.0866,0.6194,-0.2206,265.6562
20:49:14:595,3.7291,-0.5537,8.0291,54.6275,0.0655,-0.0534,-0.3836,266.2656
20:49:14:612,2.9067,-0.4004,8.6396,53.4832,0.0871,-0.3857,-0.648,266.5625
20:49:14:637,1.6545,-0.6434,8.2039,54.8708,0.1462,-0.2712,-0.7814,267.1094
20:49:14:649,1.0631,-0.4519,6.9649,53.4057,0.1366,0.0723,-0.7378,267.8281
20:49:14:672,0.9446,0.2304,5.9258,51.8721,0.0581,0.3014,-0.6669,268.7031
20:49:14:696,1.0991,0.7272,5.4565,53.5319,-0.017,0.2625,-0.6685,269.5
20:49:14:712,1.1302,1.0517,5.5319,53.538,-0.073,0.1224,-0.7202,270.2656
20:49:14:730,0.892,1.2121,5.9689,52.9492,-0.1068,-0.0185,-0.7964,271.0469
20:49:14:751,0.3964,1.0792,6.5626,53.1036,-0.138,-0.1154,-0.8414,271.875
20:49:14:776,0.0695,1.0409,7.5766,54.9447,-0.18,-0.1383,-0.7982,272.75
20:49:14:794,0.1593,1.242,8.63,52.8603,-0.1832,-0.1492,-0.7378,273.7188
20:49:14:811,0.4371,1.5784,9.3279,52.7616,-0.175,-0.1226,-0.7375,274.6406
20:49:14:872,0.5927,1.8202,9.9133,52.5918,-0.2229,-0.0025,-0.8067,275.4531
20:49:14:873,0.2886,1.9016,10.7178,52.3456,-0.3097,0.193,-0.8997,276.3125
20:49:14:873,-0.3889,1.7017,11.7137,51.2446,-0.3204,0.3959,-0.9037,277.2656
20:49:14:891,-1.0103,1.3617,11.6515,50.7961,-0.176,0.5453,-0.7476,278.2656
20:49:14:911,-0.5218,1.2887,11.3869,50.6151,0.1342,0.3171,-0.2496,278.8125
20:49:14:934,0.1067,1.0708,11.5186,51.5577,0.159,0.1232,-0.1393,280.2344
20:49:14:958,0.449,0.7356,11.8155,51.1205,0.1041,0.0494,-0.1532,281.0781
20:49:14:973,0.3066,0.3669,12.1447,50.0445,0.0152,-0.0198,-0.1982,281.2188
20:49:14:994,0.7292,0.0592,12.6942,47.9751,-0.1009,-0.1287,-0.2528,281.2188
20:49:15:016,0.3676,-0.5381,13.4831,48.151,-0.1856,-0.1919,-0.4216,281.3906
20:49:15:030,-1.197,-1.2324,14.4814,49.4635,-0.1494,-0.1775,-0.4818,281.6094
20:49:15:050,-2.4408,-2.2236,14.9543,50.7387,0.0676,0.0939,-0.2691,281.9062
20:49:15:069,-2.0445,-2.6965,13.2544,47.6631,0.3992,0.5349,0.1507,282.3906
20:49:15:091,-0.8857,-2.2045,10.2964,49.324,0.6269,0.6646,0.4798,282.9219
20:49:15:111,-0.0526,-1.6418,8.1823,46.6466,0.6711,0.283,0.5999,283.2188
20:49:15:130,-0.031,-0.9631,7.567,48.8056,0.5606,-0.2198,0.6055,283.0312
20:49:15:150,0.0336,-0.5836,8.3236,48.007,0.4056,-0.484,0.6013,282.4688
20:49:15:170,0.3521,-0.3418,8.9544,47.2809,0.3539,-0.4765,0.5773,281.7656
20:49:15:195,0.37,-0.1095,8.8754,47.6449,0.3803,-0.3602,0.5246,281.0469
20:49:15:212,0.3916,0.1012,8.3355,47.6727,0.4072,-0.203,0.483,279.6719
20:49:15:230,0.3521,0.2197,7.5107,47.779,0.3976,-0.0853,0.442,279.3594
20:49:15:250,0.2383,0.2963,7.0091,46.1751,0.3332,-0.0443,0.4154,278.75
20:49:15:279,0.1462,0.3023,7.002,45.6897,0.2677,-0.0326,0.4205,278.1875
20:49:15:295,0.3353,0.3657,7.0056,46.2152,0.2418,-0.0046,0.4609,277.7031
20:49:15:316,0.6501,0.6063,6.7338,46.9819,0.2519,-0.0009,0.4774,277.2031
20:49:15:331,0.9434,0.926,6.3663,45.2407,0.2253,-0.0819,0.441,276.6719
20:49:15:354,1.05,1.1678,6.6692,45.9946,0.1342,-0.2169,0.356,276.1406
20:49:15:374,0.9961,1.2085,7.6125,46.981,0.045,-0.321,0.2524,275.8594
20:49:15:391,0.7184,1.0959,8.454,46.4434,0.0088,-0.2952,0.1656,275.3438
20:49:15:410,0.7196,1.0553,8.7174,45.6591,-0.0107,-0.1863,0.1251,274.9219
20:49:15:430,0.9961,1.23,8.5833,44.7716,-0.0485,-0.1785,0.0505,274.6562
20:49:15:451,1.2403,1.1295,8.9401,42.2133,-0.1571,-0.3359,-0.088,274.4688
20:49:15:477,1.4295,0.6004,10.1432,42.2133,-0.3193,-0.4227,-0.228,274.3281
20:49:15:493,1.3265,-0.0664,11.4492,41.3682,-0.4626,-0.3386,-0.3199,274.2812
20:49:15:514,1.4773,-0.8757,12.4763,43.5977,-0.51,-0.1492,-0.3159,274.5312
20:49:15:531,2.2483,-1.3425,11.9699,43.6113,-0.5012,0.0524,-0.2768,274.9062
20:49:15:550,2.7211,-1.2767,11.0757,42.1687,-0.6424,0.0098,-0.3471,275.3281
20:49:15:570,2.6098,-1.4443,12.2477,43.1177,-0.8701,-0.2851,-0.533,275.7031
20:49:15:592,1.5863,-2.3122,14.2731,41.7315,-0.885,-0.4736,-0.6635,276.1094
20:49:15:610,0.3102,-2.8497,15.1985,42.8377,-0.6173,-0.305,-0.5412,276.6875
20:49:15:630,0.2695,-2.7156,13.671,41.3304,-0.1838,0.0878,-0.2264,277.4531
20:49:15:651,1.8113,-1.7759,10.5071,41.6451,0.1292,0.2976,0.033,278.2656
20:49:15:675,3.607,-0.9283,7.7621,42.8118,0.2469,-0.0012,-0.0171,278.7656
20:49:15:697,4.1553,-0.1826,6.7566,42.4395,0.1236,-0.5711,-0.3175,278.8594
20:49:15:714,3.358,-0.2987,8.2697,41.5524,-0.0993,-0.9213,-0.6813,278.7812
20:49:15:729,2.192,-0.653,9.5781,39.8579,-0.1979,-0.7024,-0.8816,278.9062
20:49:15:749,1.2702,-0.5249,9.3842,41.2522,-0.1971,-0.1516,-0.9074,279.4375
20:49:15:770,1.135,-0.0341,8.2194,41.9646,-0.1712,0.2713,-0.8581,280.8906
20:49:15:793,1.2523,0.4986,7.2737,41.3175,-0.1574,0.4212,-0.8275,281.9688
20:49:15:810,1.2008,0.8925,6.8763,41.7788,-0.1049,0.3171,-0.8419,282.9219
20:49:15:835,0.9698,1.0313,6.7314,42.248,-0.0421,0.161,-0.8589,283.9062
20:49:15:849,0.9769,1.2193,6.8212,40.6068,-0.041,0.091,-0.8549,284.3906
20:49:15:870,1.1469,1.3581,7.3324,39.5894,-0.0969,0.0955,-0.8746,285.375
20:49:15:894,1.111,1.412,8.1153,40.3367,-0.1366,0.1525,-0.9061,286.3281
20:49:15:911,0.9315,1.3952,8.6755,40.6918,-0.1342,0.2161,-0.9229,287.3125
20:49:15:930,0.9482,1.394,9.0143,41.8626,-0.1358,0.2905,-0.9292,288.3594
20:49:15:951,0.7028,1.4395,9.4225,39.3553,-0.1739,0.3573,-0.9551,289.4375
20:49:15:978,0.2323,1.2564,10.0546,39.2514,-0.2123,0.4431,-0.954,290.4531
20:49:15:994,-0.4392,0.9858,10.4987,38.4494,-0.2021,0.5022,-0.8507,291.5625
20:49:16:011,-0.6499,0.835,10.8027,37.9886,-0.1689,0.4588,-0.6262,292.6875
20:49:16:030,-0.3231,0.6578,11.3367,39.9553,-0.1276,0.2774,-0.3692,293.7188
20:49:16:052,0.4071,0.4447,12.1567,38.6473,-0.0985,0.096,-0.166,294.9375
20:49:16:077,0.7782,0.2448,12.8127,39.668,-0.0916,0.0132,-0.064,295.3594
20:49:16:096,0.5484,0.2173,13.2484,38.2433,-0.143,0.0617,0.0066,295.5625
20:49:16:115,0.7914,0.1981,13.6124,38.6704,-0.1811,0.0974,0.0721,295.6406
20:49:16:131,0.7268,-0.3705,13.4891,37.7133,-0.1523,0.0761,0.0095,295.6406
20:49:16:150,-0.3985,-0.9619,13.2843,38.4895,-0.0964,-0.1274,-0.0147,295.5938
20:49:16:169,-1.2437,-1.3438,14.2983,38.6844,0.0184,-0.2568,0.1262,295.5938
20:49:16:191,-1.5106,-1.8345,14.2492,37.2888,0.3491,-0.0486,0.3674,295.6094
20:49:16:212,-0.9001,-1.7723,11.5282,39.8871,0.6655,0.2343,0.6228,295.4688
20:49:16:229,-0.2501,-1.2288,9.0514,39.9146,0.7215,0.2167,0.7411,295.0156
20:49:16:250,0.1569,-0.8996,8.223,40.4558,0.6173,-0.0813,0.731,294.2344
20:49:16:271,0.0767,-0.7955,8.648,39.7745,0.535,-0.3583,0.6809,293.3281
20:49:16:294,0.0013,-0.5177,8.5175,38.6718,0.5547,-0.4222,0.6724,292.4688
20:49:16:310,0.0384,-0.2688,7.7214,39.6408,0.5665,-0.146,0.6956,291.6406
20:49:16:329,0.1019,-0.0736,7.2318,39.4749,0.5233,-0.0941,0.6982,291.6406
20:49:16:352,0.2072,0.0485,6.9541,40.7933,0.4948,-0.1199,0.6993,290
20:49:16:376,0.2766,0.1203,6.8715,42.266,0.4716,-0.1724,0.6868,289.1406
20:49:16:394,0.3197,0.1095,6.9589,41.8041,0.4354,-0.161,0.674,288.2812
20:49:16:410,0.3952,0.1371,7.0103,42.8064,0.4072,-0.0861,0.6844,287.4688
20:49:16:429,0.7567,0.3322,6.7386,40.9938,0.3891,-0.0608,0.683,286.625
20:49:16:449,1.1828,0.6626,6.4788,41.9568,0.314,-0.1178,0.6242,285.8125
20:49:16:469,1.378,0.8984,7.0091,40.8287,0.1752,-0.2097,0.4945,284.9844
20:49:16:493,1.3708,0.9272,7.9309,41.1692,0.0618,-0.2182,0.3403,284.1875
20:49:16:514,1.2427,0.8446,8.5594,42.1517,-0.0093,-0.101,0.2077,282.875
20:49:16:529,1.0991,0.7955,8.6085,41.9012,-0.0828,0.0646,0.1017,282.875
20:49:16:548,1.0428,0.6614,8.8168,40.3559,-0.1984,0.1277,0.0146,282.4844
20:49:16:569,1.1745,0.4088,9.2058,41.488,-0.3257,0.0998,-0.0643,282.2656
20:49:16:593,1.4055,-0.1454,10.0354,43.8009,-0.4706,-0.0273,-0.1385,282.1562
20:49:16:612,1.6413,-0.835,11.3474,43.8355,-0.5784,-0.1173,-0.1702,282.2656
20:49:16:629,2.2148,-1.5353,12.1064,41.5311,-0.5976,-0.0901,-0.1439,282.3594
20:49:16:649,3.2383,-1.886,11.5785,41.6798,-0.632,-0.0209,-0.1423,282.625
20:49:16:670,3.8392,-1.722,11.0709,43.7606,-0.8037,-0.0944,-0.3079,282.875
20:49:16:694,3.6477,-2.0033,11.9029,44.0229,-1.0469,-0.1764,-0.6201,283.1094
20:49:16:714,2.3524,-2.3828,13.1,42.916,-1.2349,0.1134,-0.8976,283.4219
20:49:16:731,0.3042,-2.6354,13.7261,43.096,-1.2235,0.7541,-0.9303,284.0781
20:49:16:749,-0.3135,-2.7527,12.2357,43.9984,-0.9486,1.3293,-0.6515,285.0781
20:49:16:771,0.6082,-1.9375,9.6428,44.4589,-0.6591,1.3464,-0.2898,286.3438
20:49:16:795,2.2962,-0.7823,8.3559,43.6511,-0.4834,0.6463,-0.1423,287.4531
20:49:16:812,3.267,0.24,9.0059,44.9699,-0.4067,-0.19,-0.3098,287.8438
20:49:16:829,2.6948,0.3454,10.4053,44.4095,-0.3579,-0.5066,-0.6416,288.2812
20:49:16:849,1.4762,-0.0186,10.9656,45.6239,-0.2911,-0.1311,-0.8661,288.5156
20:49:16:870,0.2192,-0.0006,9.8475,44.6403,-0.2258,0.5552,-0.9047,288.9062
20:49:16:895,-0.1483,0.1467,8.3834,44.6223,-0.1683,0.9419,-0.8169,289.6094
20:49:16:980,-0.1926,0.4304,7.4198,45.8255,-0.0727,0.9083,-0.7263,290.625
20:49:16:980,-0.1783,0.4663,6.9277,47.059,0.0759,0.6068,-0.6621,292.2344
20:49:16:980,-0.2477,0.4459,6.7901,46.35,0.1976,0.3104,-0.6326,293.1406
20:49:16:981,-0.3375,0.3418,6.808,43.7481,0.2245,0.1797,-0.623,293.9688
20:49:16:992,-0.4201,0.2125,7.1193,45.8982,0.1603,0.1767,-0.6326,294.7344
20:49:17:008,-0.7421,-0.0712,7.7992,46.3845,0.065,0.2209,-0.632,295.4062
20:49:17:030,-0.9372,-0.3573,8.5797,44.4478,0.0312,0.193,-0.57,296.1094
20:49:17:048,-1.106,-0.3633,9.3339,46.1787,0.0389,0.1283,-0.4541,296.8438
20:49:17:068,-1.3742,-0.3298,10.1587,47.1575,0.0703,0.0766,-0.2962,297.5469
20:49:17:092,-1.5932,-0.2616,10.7896,47.2298,0.1523,0.0889,-0.0595,298.125
20:49:17:111,-1.2844,0.0245,10.47,46.8743,0.237,0.1411,0.1997,298.5625
20:49:17:128,-0.8642,0.4052,10.0354,47.9179,0.1918,0.1373,0.396,298.7656
20:49:17:148,-0.1663,0.5596,10.3455,45.4291,0.0352,0.018,0.4908,298.6719
20:49:17:168,0.5771,0.4352,11.6264,46.1524,-0.1332,-0.1101,0.4487,298.3125
20:49:17:189,0.7615,0.0437,12.9061,48.4458,-0.2029,-0.146,0.2788,297.7812
20:49:17:207,0.6825,-0.228,13.3454,48.0378,-0.2061,-0.1303,0.1035,297.0156
20:49:17:228,0.9662,-0.592,13.1036,45.1298,-0.2573,-0.0755,-0.1364,296.7031
20:49:17:250,-0.4584,-1.6346,12.9659,48.109,-0.3105,-0.1327,-0.4171,296.5938
20:49:17:269,-2.8789,-2.7288,13.6842,47.5186,-0.2245,-0.2797,-0.3649,296.75
20:49:17:293,-3.8438,-3.5057,13.8219,47.2667,0.0895,-0.2414,0.079,297.2344
20:49:17:314,-2.8286,-3.4291,11.6144,48.7882,0.4381,-0.0102,0.5992,297.4844
20:49:17:328,-1.4675,-2.5959,8.739,49.1286,0.5121,0.0838,0.8924,297.6875
20:49:17:351,-0.8702,-1.8334,7.4964,50.495,0.3449,-0.1146,0.9254,297.2812
20:49:17:376,-0.9229,-1.558,7.8842,49.1432,0.1353,-0.3711,0.8849,296.3438
20:49:17:394,-0.6547,-1.752,8.9544,49.4537,0.029,-0.4438,0.8876,295.25
20:49:17:411,-0.9863,-1.4395,9.4093,48.9633,0.0447,-0.32,0.9158,294.25
20:49:17:432,-1.0378,-1.1486,9.2214,50.3075,0.1103,-0.1389,0.9946,293.2188
20:49:17:453,-0.7493,-1.0924,8.8682,48.4813,0.1947,0.0108,1.0716,292.1719
20:49:17:469,-0.5494,-0.8876,8.138,51.3048,0.3031,0.0726,1.1297,291.0625
20:49:17:489,-0.468,-0.6662,7.3216,49.6366,0.3947,0.0359,1.1659,289.2969
20:49:17:509,-0.3135,-0.495,6.8104,48.29,0.4258,-0.0369,1.1906,287.9844
20:49:17:528,0.0336,-0.258,6.5638,50.3641,0.4035,-0.0989,1.192,286.6094
20:49:17:548,0.3365,0.0341,6.5614,51.1594,0.3534,-0.1769,1.1422,285.2969
20:49:17:568,0.6633,0.2903,6.9469,49.7415,0.2847,-0.2683,1.0476,283.8906
20:49:17:592,0.8932,0.6662,7.7669,51.9799,0.2392,-0.366,0.9225,282.5469
20:49:17:610,1.2391,1.0205,9.0478,50.5941,0.2645,-0.4568,0.784,281.3906
20:49:17:629,1.7132,1.3042,10.045,50.5941,0.3678,-0.4491,0.6559,280.2969
20:49:17:649,2.6301,1.7496,10.2593,51.0404,0.5041,-0.378,0.4998,279.375
20:49:17:669,3.182,2.0429,9.7421,50.1505,0.5691,-0.3767,0.1608,278.6094
20:49:17:696,2.3476,0.6758,9.7888,53.1663,0.1467,-0.2776,-0.6363,277.9844
20:49:17:711,1.4546,-0.6003,10.8686,53.1663,-0.1449,-0.0129,-0.8526,277.9844
20:49:17:729,0.7531,-1.6167,11.3139,50.5973,-0.3055,0.2825,-0.8624,278
20:49:17:750,0.5604,-2.2009,11.102,52.0172,-0.363,0.3485,-0.7311,278.6875
20:49:17:771,0.7854,-2.3745,10.5681,50.6914,-0.4258,0.152,-0.603,279.6719
20:49:17:795,1.0332,-2.3745,11.0937,52.4758,-0.5526,-0.1932,-0.5455,280.7031
20:49:17:812,1.0428,-2.2859,12.5972,51.3066,-0.6453,-0.4198,-0.5732,281.5312
20:49:17:828,0.218,-2.4247,14.2301,52.3123,-0.6141,-0.2166,-0.582,282.2656
20:49:17:847,-0.456,-2.6414,14.2169,52.7874,-0.3627,0.3253,-0.4275,282.9375
20:49:17:868,0.1282,-2.5648,11.8095,51.7714,-0.0426,0.6841,-0.1346,283.6094
20:49:17:888,1.7599,-1.6514,9.6703,52.6766,0.126,0.5248,0.0678,284.3438
20:49:17:909,2.9486,-0.6901,9.055,53.2069,0.2248,-0.0281,-0.023,284.875
20:49:17:936,2.9067,-0.2807,9.2166,52.5971,0.3446,-0.4771,-0.317,285.0469
20:49:17:950,2.1561,-0.2939,8.873,51.7589,0.4541,-0.5008,-0.5734,284.9844
20:49:17:969,1.3816,-0.252,7.7609,52.8617,0.502,-0.2363,-0.7146,284.9844
20:49:17:993,0.6346,0.0449,6.2777,51.9255,0.4133,0.0777,-0.7508,285.3125
20:49:18:012,0.2886,0.4399,5.5738,51.4182,0.1968,0.2947,-0.733,285.875
20:49:18:033,0.139,0.7715,5.8156,52.8867,-0.0003,0.3845,-0.7255,286.6406
20:49:18:049,-0.1543,0.9212,6.4333,53.248,-0.073,0.3528,-0.7197,287.875
20:49:18:067,-0.5242,0.9415,6.7218,52.2868,-0.0517,0.2934,-0.6858,288.6562
20:49:18:088,-1.1012,1.0098,6.6452,52.9545,-0.032,0.2319,-0.6067,289.4844
20:49:18:112,-1.3023,1.1079,6.7997,51.6404,-0.1017,0.1536,-0.4957,290.2969
20:49:18:131,-1.4783,1.1618,7.5502,53.4932,-0.2181,0.0915,-0.3987,291.0156
20:49:18:149,-1.6279,1.1414,8.8395,53.7938,-0.31,0.1267,-0.2999,291.6406
20:49:18:168,-1.8925,1.0696,9.6368,53.0745,-0.3212,0.2686,-0.219,292.1719
20:49:18:188,-2.2552,0.926,9.9085,51.544,-0.3129,0.3815,-0.1258,292.5938
20:49:18:211,-2.6275,0.5525,10.0558,51.6376,-0.3278,0.4111,0.0226,292.8906
20:49:18:229,-2.7185,0.1921,10.4293,51.4901,-0.3625,0.3288,0.2372,293.125
20:49:18:248,-2.3151,-0.1562,11.3522,53.5355,-0.4152,0.2063,0.4798,293.2188
20:49:18:268,-1.4915,-0.4579,12.2261,51.9026,-0.4831,0.2028,0.683,293.2031
20:49:18:295,-0.3243,-0.4471,12.5888,52.6132,-0.6021,0.2343,0.7512,292.9531
20:49:18:313,0.2743,-0.6554,13.1814,52.2032,-0.8416,0.1272,0.6183,292.4375
20:49:18:328,-0.3554,-1.5987,15.3805,52.7513,-1.0376,-0.0651,0.4191,291.6875
20:49:18:348,-1.8578,-2.5456,17.9566,51.5547,-0.7369,-0.3005,0.4476,290.5625
20:49:18:368,-2.0661,-3.2831,17.8489,53.7018,0.0631,-0.3125,0.7664,290.0312
20:49:18:390,-1.2628,-3.1897,13.1275,53.5352,0.8027,-0.0385,1.1057,289.625
20:49:18:413,0.0959,-2.3924,8.5738,52.6309,0.9721,-0.0528,1.3049,288.9844
20:49:18:432,1.3504,-1.2635,6.6548,51.1215,0.6882,-0.4323,1.2274,287.8594
20:49:18:452,1.4211,-0.6027,7.974,53.5609,0.2876,-0.8553,0.9281,286.3906
20:49:18:468,1.0572,-0.8936,10.1958,50.6957,0.0964,-0.7916,0.6636,284.9062
20:49:18:491,0.2599,-1.0995,10.3634,53.3126,0.2091,-0.4406,0.5635,283.6094
20:49:18:513,-0.4692,-0.9152,8.9137,52.5456,0.3577,-0.1213,0.6378,282.6719
20:49:18:532,-0.5051,-0.5453,7.6903,50.491,0.3971,-0.0155,0.7893,281.6406
20:49:18:557,0.042,-0.1682,7.0558,50.8951,0.4213,-0.1109,0.9086,280.875
20:49:18:568,0.7004,0.0186,6.9194,52.033,0.4615,-0.2992,0.9395,279.9375
20:49:18:593,0.8872,0.1766,6.9553,52.0069,0.5012,-0.4089,0.8897,278.9219
20:49:18:614,0.9195,0.2149,6.838,52.9559,0.4953,-0.3671,0.8324,278.3594
20:49:18:632,1.0141,0.3274,6.6045,51.7123,0.4304,-0.244,0.7749,277.25
20:49:18:648,1.2738,0.5644,6.5435,50.2587,0.3252,-0.1455,0.6849,276.2031
20:49:18:671,1.3516,0.671,6.7147,51.7176,0.2304,-0.1085,0.5592,275.2812
20:49:18:696,1.2044,0.7428,6.9912,52.6297,0.1587,-0.1447,0.4215,274.3906
20:49:18:713,1.038,0.7033,7.4712,50.1545,0.1031,-0.2156,0.3038,273.6562
20:49:18:728,1.0583,0.5297,7.9153,51.5798,0.0469,-0.3144,0.197,273.0938
20:49:18:748,1.2774,0.1478,8.6719,51.4953,-0.0511,-0.4251,0.1113,272.6719
20:49:18:768,2.1669,-0.4986,9.7505,51.6352,-0.1625,-0.5775,0.0372,272.375
20:49:18:794,3.3304,-1.054,11.2229,52.0958,-0.2716,-0.6696,-0.0848,272.2031
20:49:18:813,4.3169,-1.5856,12.3362,50.2561,-0.3577,-0.4992,-0.2874,272.125
20:49:18:829,4.9848,-2.159,12.1447,52.2534,-0.4296,-0.1719,-0.5854,272.2344
20:49:18:854,4.9836,-2.384,10.5957,51.8046,-0.6093,0.1235,-0.9415,272.6094
20:49:18:867,4.245,-2.238,9.6499,51.2988,-0.9806,0.1552,-1.3434,272.6094
20:49:18:888,2.5164,-2.3972,10.8195,52.4864,-1.4128,0.1679,-1.7133,274.4688
20:49:18:911,-0.0262,-3.0089,12.7792,52.7364,-1.5816,0.5477,-1.8025,276.1406
20:49:18:930,-1.9619,-3.21,12.8067,50.6028,-1.3574,1.0891,-1.4685,278.1875
20:49:18:950,-1.7393,-2.7276,11.029,53.4622,-0.9678,1.1786,-0.8802,280.5
20:49:18:969,0.2671,-1.746,9.7816,52.0573,-0.6831,0.626,-0.44,282.4219
20:49:18:993,2.0184,-0.8924,10.112,51.298,-0.5324,-0.2869,-0.4105,283.5781
20:49:19:064,2.0041,-0.8589,11.5665,51.6729,-0.4634,-0.8659,-0.6672,284.2031
20:49:19:065,0.6657,-1.2013,12.6559,52.0732,-0.4003,-0.6758,-0.868,284.7031
20:49:19:065,-0.7457,-1.4144,12.0011,52.5336,-0.2722,0.0412,-0.8664,285.4375
20:49:19:081,-1.7429,-1.1283,9.711,50.9809,-0.1577,0.6819,-0.6773,285.8594
20:49:19:099,-1.6232,-0.2568,7.0139,54.0241,0.0908,0.5762,-0.1724,286.8906
20:49:19:117,-1.343,0.0461,6.5243,53.7741,0.3446,0.1568,-0.0027,288.2656
20:49:19:131,-1.0545,0.2915,5.7785,52.8209,0.5273,-0.1732,0.0892,288.7969
20:49:19:150,-0.9684,0.4687,5.1596,53.1107,0.4863,-0.3261,0.0956,289.0156
20:49:19:168,-1.2425,0.4136,5.5295,51.3436,0.2402,-0.3841,0.0561,289.0156
20:49:19:192,-1.5477,0.0485,6.9613,53.0624,-0.025,-0.3578,0.0508,288.8594
20:49:19:212,-1.8027,-0.3358,8.7066,51.7668,-0.1651,-0.271,0.0883,288.6719
20:49:19:230,-1.9619,-0.556,10.3036,52.1139,-0.1539,-0.1306,0.1677,288.5469
20:49:19:247,-2.1439,-0.908,11.1547,52.5529,-0.0578,0.0569,0.2833,288.4688
20:49:19:268,-2.2157,-1.3797,11.4504,53.5439,0.0509,0.2673,0.4918,288.375
20:49:19:288,-1.9404,-1.5209,11.2601,53.8035,0.1553,0.3618,0.7613,288.1875
20:49:19:311,-1.3095,-1.5844,11.2936,51.9164,0.2064,0.3107,0.9922,287.875
20:49:19:330,-0.5697,-1.6215,11.5186,54.4928,0.2013,0.2825,1.151,287.3594
20:49:19:347,0.0791,-1.7316,11.8203,53.6146,0.1486,0.2287,1.2093,286.5
20:49:19:367,0.4646,-1.9459,12.1351,54.9039,0.0618,0.1632,1.1973,284.7188
20:49:19:388,0.7387,-2.2068,12.2908,54.2216,-0.0655,0.0545,1.1352,283.4375
20:49:19:412,0.5699,-2.4439,12.8953,56.9309,-0.2786,-0.1511,1.0412,282.0469
20:49:19:430,-0.1603,-2.9347,14.5186,56.9328,-0.4511,-0.2955,1.0162,280.7188
20:49:19:452,-1.1192,-3.3082,16.228,55.8749,-0.2895,-0.1527,1.168,279.5469
20:49:19:467,-1.3131,-3.6494,14.6323,56.4,0.2645,0.2329,1.4697,278.3906
20:49:19:487,-0.8977,-3.2495,10.2138,55.9039,0.7063,0.4169,1.7912,277.1875
20:49:19:511,-0.1411,-2.3481,6.6692,56.6119,0.7414,0.2409,1.939,276.4844
20:49:19:530,0.0863,-1.4527,5.1393,57.0263,0.4836,-0.1796,1.8639,274.8906
20:49:19:554,-0.0202,-1.1187,5.6816,58.0914,0.1499,-0.623,1.6953,272.8125
20:49:19:566,-0.3722,-1.1977,7.4281,59.3743,-0.0392,-0.8683,1.543,270.5625
20:49:19:591,-0.6344,-1.3569,8.5354,57.1766,-0.0091,-0.876,1.4711,268.3906
20:49:19:612,-0.9181,-1.3785,8.7437,58.0858,0.1124,-0.737,1.4407,266.4844
20:49:19:628,-1.2197,-1.3461,8.387,57.0477,0.1888,-0.4968,1.4604,264.625
20:49:19:647,-1.191,-1.2767,7.9644,56.6869,0.2136,-0.2837,1.5203,262.0781
20:49:19:668,-0.936,-1.0636,7.6675,59.2317,0.2373,-0.2201,1.5651,260.3594
20:49:19:689,-0.632,-0.9152,7.6675,57.4523,0.2772,-0.2598,1.5638,258.5781
20:49:19:712,-0.5146,-0.8865,7.7765,58.2268,0.3337,-0.2715,1.5374,256.7656
20:49:19:728,-0.4093,-0.7524,7.4473,58.6797,0.3675,-0.1849,1.5038,255.0156
20:49:19:748,-0.2848,-0.5573,6.9086,59.5651,0.3244,-0.0941,1.4607,253.1875
20:49:19:768,0.1402,-0.1024,6.7817,59.2414,0.1923,-0.1114,1.3829,251.375
20:49:19:789,0.4059,0.0605,7.7358,60.8121,0.0344,-0.2435,1.2237,249.7188
20:49:19:813,0.5412,-0.2233,9.3578,60.5065,-0.0471,-0.3434,1.0546,248.0469
20:49:19:830,0.6011,-0.677,10.9859,60.0699,-0.0418,-0.2901,0.9339,246.5312
20:49:19:847,0.9434,-1.1091,11.9975,60.0699,0.049,-0.1269,0.8777,245.2656
20:49:19:867,1.6725,-1.394,12.2237,61.521,0.1537,0.005,0.8375,244.0938
20:49:19:888,2.5416,-1.485,12.3303,59.3756,0.1963,0.083,0.752,243.0469
20:49:19:912,3.4142,-1.4874,12.4524,59.8776,0.2056,0.1799,0.5994,242.0469
20:49:19:928,4.263,-1.6837,12.189,60.9129,0.2088,0.291,0.3632,241.1562
20:49:19:948,4.7969,-1.7962,11.29,60.8345,0.1507,0.3203,0.0362,240.0625
20:49:19:969,4.5287,-1.807,10.9057,60.4568,-0.0533,0.2359,-0.3673,239.6562
20:49:19:995,3.1856,-2.1673,11.7137,60.6435,-0.3041,0.2247,-0.7364,239.6406
20:49:20:012,1.2942,-2.7396,12.8761,61.9366,-0.3854,0.4699,-0.8419,240.0938
20:49:20:028,0.8129,-3.3273,12.6846,59.7022,-0.1545,0.7248,-0.6115,240.4844
20:49:20:047,1.6581,-2.8521,10.5107,60.3513,0.1601,0.6899,-0.2975,241.5156
20:49:20:067,2.8432,-1.8681,8.8611,60.4751,0.2908,0.2564,-0.1913,242.4062
20:49:20:090,3.2838,-1.2372,8.4948,60.4464,0.2389,-0.226,-0.3575,243
20:49:20:111,2.6996,-1.2851,9.0813,59.0498,0.1156,-0.4129,-0.5836,243.2656
20:49:20:128,1.7263,-1.4156,9.2956,61.4771,0.0565,-0.2201,-0.6909,243.5312
20:49:20:148,0.9698,-1.163,8.29,60.6133,0.0338,0.1493,-0.6616,244.0312
20:49:20:168,0.7675,-0.6087,7.1588,59.5973,-0.0429,0.3778,-0.5782,244.7344
20:49:20:188,0.7076,-0.0856,6.9265,60.1112,-0.0788,0.3922,-0.5109,245.4844
20:49:20:211,0.6968,0.3083,6.7913,59.5658,0.0383,0.2529,-0.4557,246.2188
20:49:20:228,0.8764,0.6303,6.2921,60.2154,0.1976,0.1048,-0.4222,247.1875
20:49:20:251,1.0548,1.0744,5.5906,61.2692,0.2549,-0.0188,-0.4219,247.7031
20:49:20:270,1.3493,1.4288,5.4194,60.0212,0.1965,-0.2001,-0.4722,248.1875
20:49:20:295,1.6354,1.6107,5.9341,60.0229,0.1009,-0.4409,-0.5801,248.6562
20:49:20:313,1.7503,1.6526,6.9768,60.8036,-0.0136,-0.6398,-0.7338,249.1719
20:49:20:328,1.4713,1.5724,8.2386,61.2231,-0.1332,-0.6909,-0.9146,249.75
20:49:20:347,0.4311,1.5628,9.5422,59.6275,-0.2639,-0.5791,-1.0544,250.5469
20:49:20:367,-0.5075,1.2061,11.2888,60.0178,-0.3164,-0.3194,-1.0675,251.5625
20:49:20:388,-1.1168,1.0648,12.0058,60.1151,-0.2112,0.0657,-0.9545,252.6875
20:49:20:412,-1.5082,1.1989,11.3678,61.1661,-0.1055,0.3554,-0.7982,253.9062
20:49:20:428,-1.7453,1.1594,11.0494,59.4172,-0.119,0.4329,-0.6461,255.0312
20:49:20:447,-1.7321,0.586,11.4432,60.2358,-0.151,0.3208,-0.5173,255.9375
20:49:20:468,-1.4232,-0.3813,11.6742,59.7399,-0.1851,0.1416,-0.4185,256.7188
20:49:20:489,-1.373,-1.8298,15.3434,60.2711,-0.4,-0.2326,-0.3753,257.3594
20:49:20:513,-2.26,-3.1717,18.6569,60.3118,-0.6799,-0.6345,-0.3455,257.8594
20:49:20:530,-3.0609,-3.7775,18.7324,59.742,-0.0589,-0.0957,0.1744,258.0625
20:49:20:547,-2.9448,-3.5273,14.9172,59.5415,0.461,0.5168,0.6481,258.6875
20:49:20:569,-2.3151,-2.9898,10.8087,60.7611,0.6589,0.8044,1.0308,258.7188
20:49:20:591,-2.1116,-2.3337,7.9477,60.5758,0.6083,0.6915,1.3294,258.7188
20:49:20:613,-1.7584,-1.5281,6.8392,59.8128,0.4264,0.2915,1.601,257.9844
20:49:20:629,-1.2688,-0.8864,7.4988,58.3456,0.2847,-0.1775,1.784,256.8125
20:49:20:646,-1.0258,-0.5297,8.3583,59.481,0.3025,-0.4723,1.9169,255.375
20:49:20:666,-0.4189,-0.228,8.6252,60.3392,0.4213,-0.565,2.0146,253.5312
20:49:20:686,0.139,0.1574,8.2206,58.3944,0.5468,-0.5485,2.0261,251.4531
20:49:20:712,0.6932,0.5417,7.7885,58.0229,0.5963,-0.5191,1.9507,249.2031
20:49:20:731,1.1517,0.7416,7.883,57.8098,0.5966,-0.5226,1.797,246.9219
20:49:20:747,1.3708,0.7045,8.3499,58.1864,0.6402,-0.4963,1.5904,244.5156
20:49:20:768,1.2343,0.5824,8.2769,57.4326,0.7321,-0.3615,1.3944,242.1875
20:49:20:788,1.2224,0.4651,7.6257,57.6369,0.7872,-0.2153,1.2474,240.1562
20:49:20:811,1.4702,0.6291,7.0618,56.9018,0.7297,-0.0947,1.1273,235.7812
20:49:20:829,1.7766,0.9511,7.0558,57.2286,0.6205,-0.0733,0.9765,235.7812
20:49:20:847,2.01,1.1438,7.3551,56.4685,0.5555,-0.1442,0.7755,234.4062
20:49:20:867,1.9155,0.9595,7.6137,56.058,0.5188,-0.1929,0.5627,233.125
20:49:20:888,1.7275,0.6207,7.5754,55.7437,0.4506,-0.1594,0.4021,232.0469
20:49:20:910,1.7838,0.3693,7.4461,57.1873,0.3004,-0.1634,0.2798,231.2656
20:49:20:930,2.046,0.0174,7.9872,56.0296,0.0865,-0.3058,0.1563,230.6719
20:49:20:947,2.4218,-0.677,9.0155,54.9213,-0.1494,-0.4976,0.0234,230.25
20:49:20:967,2.5152,-1.1774,10.5358,55.6973,-0.3859,-0.5061,-0.0744,229.9688
20:49:20:989,3.0767,-1.7771,11.6264,55.334,-0.5201,-0.2046,-0.1497,229.8594
20:49:21:008,3.7063,-2.1482,11.1248,53.4806,-0.608,0.1943,-0.2661,229.9219
20:49:21:027,4.5204,-2.1506,9.9097,55.0359,-0.8362,0.4159,-0.4667,229.9844
20:49:21:046,4.6329,-1.989,9.4919,55.0971,-1.2123,0.3229,-0.8302,230.2031
20:49:21:127,3.3077,-1.8932,11.0529,54.8375,-1.5894,0.1517,-1.2454,230.5781
20:49:21:128,1.293,-2.7791,14.1355,56.3456,-1.5931,0.3056,-1.4707,231.2344
20:49:21:128,-0.4261,-3.6087,14.5006,55.4905,-1.1089,0.7946,-1.3135,232.3281
20:49:21:130,-0.6308,-3.4363,11.6216,53.4523,-0.5779,1.0644,-0.8715,234.7969
20:49:21:149,0.5484,-2.4427,8.9269,55.3078,-0.3638,0.8068,-0.5151,236.6562
20:49:21:166,1.4905,-1.485,8.1177,55.053,-0.4285,0.2422,-0.444,238.1094
20:49:21:188,1.4606,-0.9954,9.4955,54.507,-0.5127,-0.2022,-0.5476,238.9688
20:49:21:211,0.8046,-0.8745,10.4544,54.1799,-0.3878,-0.1556,-0.6296,239.5781
20:49:21:229,0.3341,-0.4782,9.2214,54.1479,-0.2163,0.2502,-0.6161,240.1562
20:49:21:247,0.3126,0.1143,7.5873,54.5113,-0.1771,0.6103,-0.5857,240.8281
20:49:21:267,0.4562,0.647,6.6931,57.0513,-0.208,0.7192,-0.5956,241.5781
20:49:21:287,0.4095,1.1917,6.4597,54.5587,-0.2237,0.6417,-0.6531,242.3438
20:49:21:311,0.2587,1.5269,6.7398,56.7433,-0.1936,0.4553,-0.7423,243.0781
20:49:21:329,-0.1962,1.5461,7.1923,55.3656,-0.1409,0.3,-0.8448,243.8906
20:49:21:346,-0.7948,1.2887,7.7118,55.6298,-0.1326,0.2313,-0.8949,244.7812
20:49:21:371,-1.3993,1.084,8.6504,53.3097,-0.1649,0.2486,-0.8635,245.75
20:49:21:385,-1.7489,1.0038,9.6799,54.8919,-0.1417,0.2202,-0.779,247.2812
20:49:21:406,-1.774,0.847,10.7202,54.7887,-0.0802,0.1506,-0.6858,248.3125
20:49:21:428,-1.8722,0.7045,11.6324,52.788,-0.0069,0.201,-0.5897,249.2344
20:49:21:451,-2.1355,0.5513,12.1471,53.4579,0.1031,0.364,-0.4808,250.0156
20:49:21:467,-2.3977,0.2125,11.6635,53.8821,0.1949,0.5693,-0.3394,250.375
20:49:21:489,-2.5054,-0.0281,11.2169,53.2263,0.1894,0.659,-0.1287,251.0156
20:49:21:512,-2.3989,-0.4495,11.6132,51.0001,0.179,0.5339,0.099,251.5469
20:49:21:530,-2.1295,-0.9451,11.9592,53.7406,0.2234,0.3506,0.339,251.875
20:49:21:549,-1.622,-1.1714,12.0058,51.2787,0.2424,0.202,0.5515,251.9688
20:49:21:569,-0.8403,-1.1594,11.867,50.6283,0.1659,0.132,0.6521,251.7656
20:49:21:586,-0.5434,-1.1654,11.8873,50.9471,-0.0202,0.0359,0.6029,251.2812
20:49:21:607,-0.9288,-1.5353,13.2808,51.2007,-0.2093,-0.255,0.5248,250.5781
20:49:21:629,-1.78,-2.1434,15.918,49.3654,-0.1342,-0.4076,0.5773,249.8594
20:49:21:646,-2.0745,-2.9347,16.0556,50.7849,0.3952,-0.1351,0.7813,249.25
20:49:21:666,-1.8195,-2.7731,12.0082,50.809,0.8674,0.2348,1.038,248.2344
20:49:21:687,-1.0019,-2.1051,8.15,47.7379,0.8709,0.2646,1.1957,247.3125
20:49:21:713,-0.7481,-1.3557,6.6931,47.5919,0.5609,-0.0704,1.1938,246.1719
20:49:21:729,-0.8666,-1.2588,7.6903,49.7382,0.277,-0.5026,1.1443,244.8125
20:49:21:752,-0.9923,-1.3102,9.0502,49.9717,0.2461,-0.729,1.1499,243.4219
20:49:21:766,-0.7744,-1.1259,9.0239,46.2982,0.3665,-0.7056,1.1765,242.125
20:49:21:789,-0.5254,-0.8817,8.2062,47.8624,0.4469,-0.5301,1.1776,240.7344
20:49:21:813,-0.4668,-0.8086,7.2043,46.4048,0.4442,-0.3482,1.1568,239.3125
20:49:21:834,-0.7038,-0.9212,6.6069,45.4793,0.3992,-0.2116,1.1712,237.9062
20:49:21:849,-0.8762,-0.8481,6.1113,45.0787,0.3475,-0.1186,1.2583,236.5938
20:49:21:867,-0.6104,-0.6722,6.0012,46.0456,0.2812,-0.1143,1.3555,235.2188
20:49:21:889,0.4131,-0.0916,6.5518,44.1789,0.2455,-0.1799,1.3968,233.7656
20:49:21:913,0.6525,0.2927,6.5758,45.6141,0.2733,-0.3676,1.2404,232.2656
20:49:21:929,0.9243,0.5944,6.662,45.6622,0.2245,-0.4435,1.0615,231.4531
20:49:21:947,1.0368,0.8458,7.0163,45.0718,0.1116,-0.4489,0.8231,229.0625
20:49:21:978,1.1302,0.8889,7.5694,45.3553,-0.0423,-0.3615,0.5422,226.4219
20:49:21:987,0.9231,0.6925,8.0434,46.763,-0.2035,-0.2257,0.2367,225.4531
20:49:22:012,0.6059,0.2197,8.4433,46.763,-0.384,-0.1354,-0.0235,225.4531
20:49:22:030,0.3987,-0.5477,9.286,44.2437,-0.5819,-0.1575,-0.2118,224.7969
20:49:22:046,0.1067,-1.3509,10.6914,43.5385,-0.7412,-0.1998,-0.2938,224.5469
20:49:22:065,-0.025,-2.165,12.0453,43.9133,-0.791,-0.1612,-0.231,224.5938
20:49:22:086,0.6705,-2.8425,12.6918,42.9313,-0.7238,-0.1301,-0.0805,224.8594
20:49:22:113,1.9215,-3.1705,12.0681,43.7637,-0.6738,-0.1386,0.0417,225.2031
20:49:22:131,3.0228,-2.9933,11.4839,42.2976,-0.8019,-0.3104,0.0018,225.5156
20:49:22:149,3.2072,-2.8186,12.7492,42.9321,-1.1026,-0.4033,-0.2299,225.6406
20:49:22:166,1.87,-3.0927,15.0896,43.0725,-1.3167,0.01,-0.4552,225.625
20:49:22:188,-0.1711,-3.4315,16.0161,44.0824,-1.159,0.8865,-0.3926,225.6562
20:49:22:211,-0.5158,-3.6206,13.6949,43.6552,-0.6501,1.5022,0.0383,226.5781
20:49:22:232,1.1122,-2.9527,10.2066,43.9099,-0.1689,1.3238,0.5438,226.9062
20:49:22:247,3.2215,-1.5688,8.0578,43.2815,0.1193,0.4271,0.7459,227.4219
20:49:22:265,4.3228,-0.234,7.6675,45.3162,0.187,-0.5264,0.5105,227.3438
20:49:22:287,4.196,0.1754,8.4109,43.3315,0.0735,-0.8864,0.0401,226.7031
20:49:22:312,2.927,-0.0198,9.371,43.9984,0.0131,-0.7399,-0.3769,225.9531
20:49:22:330,1.4486,-0.3071,9.2537,43.7469,0.1739,-0.4646,-0.5873,225.4844
20:49:22:346,0.5831,-0.2843,7.8196,45.1812,0.3547,-0.2113,-0.6027,225.5625
20:49:22:370,0.4514,-0.0389,6.5471,45.8162,0.3886,-0.0755,-0.5681,226.0156
20:49:22:386,0.3844,0.2532,5.8719,44.7168,0.2788,-0.0262,-0.5873,226.6406
20:49:22:407,0.2755,0.4555,6.2621,42.849,0.0847,0.0172,-0.6248,227.2656
20:49:22:428,0.1007,0.4651,7.403,45.4357,-0.0304,0.0662,-0.6331,227.5625
20:49:22:448,0.151,0.6698,8.162,43.6148,0.0013,0.0889,-0.586,228.1875
20:49:22:467,0.455,0.9128,8.6815,43.2821,0.0772,0.0034,-0.5327,228.8906
20:49:22:487,0.6478,1.0816,9.2884,42.965,0.147,-0.097,-0.5191,229.6406
20:49:22:520,0.6346,1.1845,9.8187,43.9737,0.2213,-0.1599,-0.5279,230.2812
20:49:22:528,0.7172,1.3857,10.1851,42.8737,0.2583,-0.1085,-0.5175,231.1719
20:49:22:545,1.1493,1.7675,10.7369,43.3421,0.2985,-0.0896,-0.4707,231.7344
20:49:22:566,1.5791,2.2727,11.4097,43.0188,0.4613,-0.2702,-0.4342,232.2656
20:49:22:586,1.4342,2.2033,11.193,42.7414,0.7595,-0.7985,-0.4211,232.8125
20:49:22:615,1.3708,1.5975,11.0063,42.8045,0.8751,-1.2827,-0.354,233.2656
20:49:22:636,1.5779,1.1175,11.6,41.874,0.6876,-1.2835,-0.2411,233.6406
20:49:22:649,1.9861,1.1797,12.7097,42.6749,0.391,-0.9517,-0.1404,233.875
20:49:22:665,2.3452,1.0409,13.4388,44.1566,0.1547,-0.5599,-0.1577,233.9844
20:49:22:686,2.1561,0.5728,13.75,42.14,-0.0072,-0.4294,-0.2608,234.0156
20:49:22:711,0.5616,-0.2987,15.4798,41.7435,0.0035,-0.5687,-0.3103,234.0625
20:49:22:731,-0.9312,-1.3186,16.641,42.2155,0.4053,-0.7027,-0.084,234.2344
20:49:22:746,-0.9169,-1.9387,15.4188,41.422,0.8346,-0.4712,0.3254,234.5625
20:49:22:770,-0.3459,-1.9184,12.7804,41.2745,1.037,-0.1487,0.6508,234.7344
20:49:22:785,0.1605,-1.6334,10.859,42.475,1.0091,-0.0944,0.87,234.4375
20:49:22:806,0.4825,-1.394,10.3814,41.5117,0.9286,-0.1279,1.0202,233.1562
20:49:22:830,0.7052,-1.2348,9.8546,41.0046,0.9625,-0.0582,1.1241,232.0469
20:49:22:849,0.9123,-1.1821,8.6468,41.7678,1.0501,0.1309,1.2018,230.7031
20:49:22:866,1.0631,-1.1199,7.0079,41.4219,1.069,0.3871,1.2578,229.25
20:49:22:887,1.2331,-0.9774,5.6265,40.7463,0.9651,0.6087,1.3081,227.7812
20:49:22:913,1.3983,-0.8182,4.6281,41.6249,0.8131,0.6638,1.3416,226.1562
20:49:22:930,1.5025,-0.5956,4.1876,41.6943,0.6791,0.4705,1.3376,225.3438
20:49:22:946,1.5863,-0.3968,4.2319,39.3981,0.5832,0.1589,1.3057,223.7031
20:49:22:966,1.7239,-0.3909,4.4773,40.8426,0.4828,-0.1082,1.2514,222.1406
20:49:22:988,1.9418,-0.4794,4.7586,39.9882,0.3278,-0.2305,1.1962,220.5312
20:49:23:013,2.0603,-0.5979,5.496,40.6333,0.1393,-0.2936,1.1597,218.9844
20:49:23:030,2.2926,-0.6638,6.6093,39.7334,0.0381,-0.3791,1.1299,217.5312
20:49:23:049,2.0819,-0.6027,6.8368,40.4128,-0.0839,-0.3945,1.0961,216.2188
20:49:23:066,2.3153,-0.4543,7.6233,39.8659,-0.3758,-0.3144,1.0998,214.8906
20:49:23:086,2.8708,-0.1658,8.9592,40.1516,-0.6911,0.0193,1.0498,213
20:49:23:108,3.4765,-0.0006,9.863,39.9833,-0.8794,0.418,0.8913,211.8594
20:49:23:130,4.0966,-0.0341,10.2389,38.4944,-0.9465,0.6763,0.6444,210.7656
20:49:23:204,4.6485,-0.1407,10.4293,40.0008,-0.9878,0.7491,0.3525,209.9062
20:49:23:204,4.4354,-0.4352,10.5214,38.5153,-1.0573,0.7051,0.0665,209.375
20:49:23:204,4.2043,-0.8134,10.962,41.2393,-1.203,0.6614,-0.105,209.1562
20:49:23:218,4.5383,-1.151,11.5665,40.0915,-1.363,0.7043,-0.1774,209.2812
20:49:23:230,4.9501,-1.0684,12.1902,39.0485,-1.502,0.7328,-0.2629,209.5938
20:49:23:249,4.9322,-0.8062,13.076,40.8809,-1.5622,0.6143,-0.4267,210.0312
20:49:23:266,4.2247,-0.9966,14.3665,40.3406,-1.473,0.4593,-0.6238,210.5781
20:49:23:287,2.4266,-2.2045,14.6945,40.9694,-0.7204,0.6875,-0.4975,211.3125
20:49:23:312,2.7415,-2.3313,12.9013,42.0292,-0.2455,0.6678,-0.223,211.3125
20:49:23:329,3.7016,-1.8358,11.2265,40.913,0.1302,0.3283,-0.0507,213.1875
20:49:23:345,4.4306,-1.1821,10.1491,41.9667,0.3814,-0.0984,-0.1167,213.5938
20:49:23:366,4.1277,-0.8015,9.152,41.9192,0.4935,-0.2789,-0.3625,214.3125
20:49:23:386,3.1485,-0.7093,8.3152,41.5436,0.5025,-0.2156,-0.5945,214.4219
20:49:23:406,2.2973,-0.7332,7.2821,43.859,0.4746,-0.011,-0.7295,214.5156
20:49:23:430,1.6162,-0.6782,6.2909,43.1772,0.4051,0.2018,-0.7705,214.8125
20:49:23:449,1.1972,-0.4352,5.6229,41.9232,0.3174,0.3245,-0.7415,215.4062
20:49:23:465,1.0655,-0.0676,5.3236,43.7369,0.2421,0.315,-0.6896,216.2031
20:49:23:485,1.2894,0.258,5.5367,43.5173,0.187,0.2244,-0.6629,217.0781
20:49:23:506,1.457,0.4842,6.0515,44.0352,0.1683,0.1413,-0.6845,217.8906
20:49:23:531,1.4163,0.568,6.4537,42.4605,0.1673,0.0928,-0.7311,218.7188
20:49:23:548,1.287,0.8877,6.7721,43.3625,0.1188,0.0801,-0.7687,219.4844
20:49:23:565,1.2487,1.1007,7.3419,42.6163,-0.0013,0.0404,-0.8366,220.2344
20:49:23:585,1.1972,1.1582,8.229,42.4984,-0.155,-0.014,-0.9394,221.0625
20:49:23:605,0.9303,0.9786,9.468,41.9074,-0.3108,-0.023,-1.0528,222.8594
20:49:23:630,0.4406,0.495,10.8578,41.8945,-0.3995,0.0633,-1.1284,223.9531
20:49:23:649,-0.4021,-0.2065,11.8861,43.3854,-0.4032,0.1994,-1.0805,224.5469
20:49:23:665,-1.1743,-0.6602,12.5637,41.1585,-0.359,0.3253,-0.8611,225.8438
20:49:23:687,-1.4639,-1.0624,13.015,41.046,-0.2597,0.3219,-0.5295,227.125
20:49:23:712,-0.9588,-1.3605,13.0354,41.048,-0.1451,0.2281,-0.1718,228.3438
20:49:23:732,-0.1196,-1.005,13.0509,40.4917,-0.1068,0.0486,0.0937,229.2188
20:49:23:751,0.8345,-0.6985,13.9104,42.3478,-0.0964,-0.2166,0.1624,229.6719
20:49:23:768,1.2666,-0.7129,15.0441,41.8391,-0.0599,-0.3996,0.0804,229.7188
20:49:23:786,0.619,-0.8697,16.3334,43.2411,0.0216,-0.362,-0.0019,229.5469
20:49:23:815,-0.2393,-1.4611,17.2324,44.0124,0.3039,0.0252,0.0591,229.3594
20:49:23:831,-0.5721,-2.1554,14.8992,44.2941,0.8021,0.6079,0.2652,229.2969
20:49:23:848,-0.4129,-2.2787,10.4664,42.8261,1.1228,0.8633,0.5334,229.25
20:49:23:866,0.1342,-1.7292,7.1133,43.3166,1.0346,0.5898,0.7352,229.1562
20:49:23:886,0.4694,-0.8853,6.2729,43.719,0.6559,-0.0544,0.7736,228.8594
20:49:23:912,0.7292,-0.6578,8.1129,44.4477,0.2653,-0.6339,0.7169,228.2812
20:49:23:932,0.953,-0.7344,10.47,42.6569,0.1601,-0.7754,0.642,226.9531
20:49:23:948,0.3521,-0.8649,11.1631,43.8471,0.3321,-0.5144,0.6247,226.0156
20:49:23:965,-0.2764,-0.9691,10.3945,43.3135,0.5795,-0.0441,0.7834,225.1875
20:49:23:986,-0.1795,-0.9427,8.9616,44.0249,0.8013,0.3701,1.0596,224.3906
20:49:24:006,0.613,-0.6315,7.2953,44.5944,0.9502,0.6217,1.3131,223.5469
20:49:24:029,1.5815,-0.2388,5.9126,44.7486,1.0027,0.6111,1.4173,222.5
20:49:24:048,2.35,0.0916,5.1405,44.4365,0.9795,0.3994,1.3757,221.1094
20:49:24:065,2.6708,0.3142,4.9477,42.523,0.9135,0.1208,1.2543,219.4844
20:49:24:086,2.7917,0.4471,4.8412,45.1625,0.8538,-0.1719,1.1137,217.9219
20:49:24:105,2.9557,0.659,4.8855,44.3488,0.7518,-0.4664,0.9464,216.3594
20:49:24:130,2.8959,0.7644,5.435,43.4867,0.5683,-0.6606,0.7528,214.9531
20:49:24:147,2.7319,0.7835,6.4381,44.1402,0.3811,-0.692,0.5762,213.7031
20:49:24:165,2.7858,0.7847,7.0798,44.1402,0.2562,-0.6238,0.3885,212.7188
20:49:24:185,2.8552,0.7943,7.1013,45.5767,0.1017,-0.4928,0.1579,211.9062
20:49:24:205,2.8349,0.7069,6.9038,43.9294,-0.1894,-0.3754,-0.1098,211.1094
20:49:24:229,2.8576,0.3059,7.5107,44.0906,-0.6514,-0.3359,-0.3889,210.9219
20:49:24:248,2.4985,-0.2939,9.6308,44.4171,-1.1265,-0.2662,-0.627,211.0469
20:49:24:265,2.028,-1.1558,12.0549,45.8399,-1.3374,-0.0225,-0.722,211.5469
20:49:24:288,2.2794,-1.9387,12.7852,45.2213,-1.2956,0.2846,-0.6661,212.3438
20:49:24:315,3.2478,-2.0249,11.9196,47.3259,-1.3193,0.4502,-0.6275,213.2969
20:49:24:331,3.9996,-1.9016,11.788,45.7085,-1.6006,0.3948,-0.7977,214.2188
20:49:24:349,3.2323,-2.2116,13.2748,47.8748,-1.9359,0.3906,-1.1146,214.6562
20:49:24:366,0.7651,-2.6007,15.6809,46.7135,-1.9817,0.6558,-1.2363,215.5625
20:49:24:385,-0.8714,-2.9802,16.307,48.3711,-1.4581,1.0689,-0.9282,216.8594
20:49:24:405,-0.3626,-2.8198,13.4172,47.6331,-0.681,1.0929,-0.3692,218.5156
20:49:24:430,1.6461,-1.9615,10.6806,49.2708,-0.1651,0.4865,0.0564,220.0156
20:49:24:449,3.1844,-0.9176,9.9301,47.4526,0.0865,-0.402,0.1062,221.0312
20:49:24:465,3.5926,-0.3729,10.2246,48.6945,0.224,-0.9578,-0.1183,221.3281
20:49:24:488,3.0024,-0.2927,9.9887,48.5166,0.3012,-0.8342,-0.3889,221.0938
20:49:24:519,1.9717,-0.2975,8.8204,48.7499,0.2871,-0.3008,-0.5348,221.0625
20:49:24:534,1.3193,0.0281,7.5478,49.4481,0.2056,0.2074,-0.529,221.3594
20:49:24:551,1.0667,0.2771,6.7865,47.9618,0.1611,0.4204,-0.5021,221.875
20:49:24:564,0.9458,0.5333,6.5016,50.5449,0.183,0.3568,-0.4744,222.4844
20:49:24:591,0.9506,0.8122,6.5135,49.8408,0.2413,0.161,-0.4621,223.1094
20:49:24:604,0.8548,0.8721,6.802,49.3102,0.3108,-0.0502,-0.4845,223.6875
20:49:24:626,0.4119,0.9116,7.1169,49.5515,0.3523,-0.1258,-0.4752,224.1875
20:49:24:645,0.4023,1.0265,7.4221,50.6276,0.3494,-0.1828,-0.4201,224.7031
20:49:24:666,1.0416,1.0852,8.5259,49.8477,0.2823,-0.2483,-0.3631,225.2031
20:49:24:688,1.3696,1.2648,9.2896,48.9415,0.172,-0.1945,-0.3918,225.2031
20:49:24:712,1.1769,1.2504,10.5274,49.6388,0.0858,-0.0385,-0.4661,225.9844
20:49:24:731,0.3808,0.7655,11.2744,50.3896,0.1052,0.1482,-0.4659,226.7188
20:49:24:748,-0.3315,0.3035,11.3833,48.8023,0.164,0.2846,-0.2898,226.7188
20:49:24:765,-0.523,0.2556,11.4648,49.9228,0.2274,0.2668,0.0066,227.25
20:49:24:785,0.1402,0.2364,11.3977,48.1784,0.2613,0.1655,0.2796,227.7812
20:49:24:805,0.6525,0.5549,11.1727,49.2607,0.2051,0.1144,0.4487,228.125
20:49:24:832,1.3816,0.9451,10.9835,49.6668,0.0655,-0.0025,0.5075,228.125
20:49:24:850,1.9155,1.0553,11.3798,48.5996,-0.1723,-0.3495,0.3712,227.7969
20:49:24:867,1.2415,0.574,13.5824,48.5145,-0.4205,-0.72,0.1999,227.2812
20:49:24:884,0.4861,-0.5022,17.0576,49.4788,-0.3364,-0.6576,0.2279,226.7188
20:49:24:906,0.0923,-1.6191,17.1498,50.2286,0.2581,-0.1232,0.4189,226.2656
20:49:24:932,-0.0801,-1.6741,12.7899,49.4508,0.7976,0.2787,0.7054,226.0156
20:49:24:952,0.8955,-1.3006,9.4524,48.8381,0.8432,0.1562,0.9161,225.7344
20:49:24:967,1.445,-0.8051,8.4935,49.8991,0.583,-0.1804,0.907,225.2031
20:49:24:985,1.4594,-0.4938,9.5721,48.4305,0.3436,-0.4723,0.8231,224.3438
20:49:25:004,1.4103,-0.6805,10.5071,48.2538,0.3736,-0.5423,0.7408,223.2188
20:49:25:031,0.7567,-0.7248,9.9061,47.1283,0.5499,-0.4459,0.723,222.1562
20:49:25:050,0.5663,-0.744,8.8347,48.0576,0.6863,-0.2859,0.8247,220.6562
20:49:25:066,0.7902,-0.6255,7.6855,46.8955,0.7372,-0.1921,0.9392,219.75
20:49:25:085,1.1481,-0.3226,7.16,46.7993,0.7009,-0.1311,1.017,218.8125
20:49:25:107,1.6042,-0.1933,7.0115,43.7411,0.6884,-0.0952,1.037,217.7031
20:49:25:129,1.7623,-0.0497,6.7925,45.4565,0.7185,-0.064,1.0133,216.4688
20:49:25:147,1.8784,0.0102,6.3029,45.3429,0.7449,-0.0414,0.9754,215.2656
20:49:25:166,2.0795,0.1598,5.7941,46.1578,0.7097,-0.0414,0.9259,214
20:49:25:189,2.3811,0.4172,5.5475,44.4818,0.5856,-0.0936,0.8367,212.7656
20:49:25:204,2.6577,0.8649,5.9018,44.3257,0.4008,-0.2102,0.682,211.6406
20:49:25:291,2.6696,1.1402,6.7997,44.3457,0.232,-0.2584,0.4591,210.5469
20:49:25:291,2.4374,0.9523,7.3862,43.9745,0.1148,-0.1511,0.2282,209.6094
20:49:25:291,2.0136,0.5345,7.4832,43.8976,-0.0282,0.0052,0.0769,208.8906
20:49:25:291,1.931,0.2831,7.828,45.3502,-0.2269,0.054,0.0101,208.5
20:49:25:304,2.204,-0.2029,8.551,42.9669,-0.4397,-0.0464,-0.0541,208.3906
20:49:25:325,2.5212,-0.7093,9.9911,41.5825,-0.6599,-0.1626,-0.0981,208.3125
20:49:25:345,2.7403,-1.1091,11.4001,43.4724,-0.8099,-0.1042,-0.1085,208.3125
20:49:25:366,2.9342,-1.3114,11.9759,44.2632,-0.8602,0.0273,-0.0722,208.5312
20:49:25:389,3.3855,-1.4659,11.5964,42.1396,-0.9047,-0.0515,-0.0563,208.7344
20:49:25:404,3.5316,-1.5125,11.5761,43.2277,-1.0248,-0.2526,-0.1101,208.9375
20:49:25:425,3.5304,-1.6718,12.1962,41.7916,-1.2434,-0.2361,-0.2206,209.125
20:49:25:450,2.7295,-1.7962,13.8099,41.7385,-1.4783,0.2026,-0.3021,209.3125
20:49:25:467,1.846,-2.1135,15.1183,43.7505,-1.3683,0.879,-0.2443,209.625
20:49:25:486,1.767,-2.457,13.4448,43.8224,-0.8746,1.2963,-0.0011,210.0938
20:49:25:504,2.7846,-2.0704,10.549,42.4016,-0.4069,1.0913,0.3046,210.6875
20:49:25:531,4.1493,-1.084,8.7426,43.0026,-0.1523,0.3416,0.397,211.1406
20:49:25:547,4.6951,-0.2328,8.6432,43.8854,-0.0605,-0.4187,0.1888,211.2031
20:49:25:564,4.2366,-0.0317,9.1089,42.7615,-0.0264,-0.6478,-0.1452,210.8906
20:49:25:584,3.2526,-0.2819,9.043,41.9454,0.0168,-0.333,-0.3937,210.5312
20:49:25:604,2.2136,-0.3729,7.8806,42.1295,0.0463,0.1933,-0.4786,210.4062
20:49:25:628,1.6677,-0.0676,6.5435,41.8124,0.008,0.557,-0.4472,210.6562
20:49:25:648,1.6437,0.1861,5.9365,42.4693,-0.0477,0.6002,-0.4022,211.1562
20:49:25:665,1.7539,0.5896,5.927,43.5315,-0.0807,0.4217,-0.3782,212.0156
20:49:25:685,1.8448,0.9092,6.5052,43.3229,-0.061,0.1727,-0.3987,212.5625
20:49:25:706,1.7347,0.987,7.1049,42.6051,0.0226,-0.0478,-0.4477,213.0781
20:49:25:732,1.6665,0.9116,7.4365,43.3384,0.0775,-0.2006,-0.4741,213.5625
20:49:25:750,1.694,0.8446,7.986,43.3392,0.025,-0.2286,-0.46,214.0312
20:49:25:766,1.8113,0.9296,8.7868,41.9719,-0.09,-0.1831,-0.4605,214.5469
20:49:25:790,1.7048,1.1522,9.705,41.7222,-0.2125,-0.1181,-0.5077,215.0312
20:49:25:804,1.3097,1.1594,10.8231,42.0061,-0.2727,-0.0089,-0.5588,215.5156
20:49:25:827,0.5209,0.6411,11.4336,42.6517,-0.225,0.148,-0.538,215.7969
20:49:25:849,0.0648,0.1143,11.2732,43.1852,-0.1435,0.2902,-0.3694,216.4375
20:49:25:864,0.3138,-0.0162,10.8291,44.061,-0.1521,0.3088,-0.1902,217.125
20:49:25:885,0.6214,-0.4076,11.1499,40.61,-0.3063,0.2939,-0.1319,217.6875
20:49:25:905,0.6035,-0.9475,12.1052,42.3901,-0.5009,0.1954,-0.1295,218.0469
20:49:25:930,0.4634,-1.4108,14.0266,41.1525,-0.641,0.0305,-0.0714,218.2812
20:49:25:947,0.1797,-1.892,15.9455,42.7421,-0.5329,-0.1263,0.0511,218.5
20:49:25:965,-0.4404,-2.3062,16.8637,42.4274,-0.1955,-0.2318,0.2556,218.7656
20:49:25:989,-0.7253,-2.724,16.55,44.1025,0.2394,-0.1138,0.5824,218.75
20:49:26:013,0.3569,-2.2763,11.6599,42.39,0.8189,0.3213,1.1667,217.7344
20:49:26:028,0.9111,-1.9459,9.7685,43.5184,0.8277,0.1935,1.2873,216.6406
20:49:26:046,1.2786,-1.6011,9.0658,43.6594,0.7609,-0.0723,1.3483,215.2812
20:49:26:066,1.5228,-1.3557,9.0275,42.4619,0.7396,-0.3383,1.3589,215.2812
20:49:26:085,1.5001,-1.2228,8.8922,43.9063,0.8003,-0.5136,1.3483,213.8438
20:49:26:106,1.275,-1.0732,8.4301,41.7077,0.8799,-0.5756,1.3443,210.5625
20:49:26:130,1.2271,-0.8625,7.8818,42.4579,0.9217,-0.5349,1.3582,208.9688
20:49:26:150,1.2786,-0.7021,7.0929,41.8915,0.9279,-0.4193,1.3566,208.9688
20:49:26:164,1.3708,-0.4878,6.2777,41.7598,0.8725,-0.3117,1.3414,207.2656
20:49:26:184,1.4845,-0.3083,5.8085,42.9175,0.7737,-0.2803,1.3116,205.5781
20:49:26:205,1.5791,-0.0952,5.7749,43.7022,0.6868,-0.3309,1.2673,203.9688
20:49:26:233,1.7036,-0.003,5.8384,42.827,0.6373,-0.415,1.2058,201.5312
20:49:26:250,1.8987,0.161,5.8575,41.7468,0.588,-0.4816,1.1225,199.9531
20:49:26:269,2.04,0.3202,5.9533,42.883,0.4653,-0.5053,1.001,198.5156
20:49:26:283,2.113,0.4507,6.6835,43.0071,0.2677,-0.4606,0.8615,197.0781
20:49:26:304,2.0831,0.5525,7.7454,41.2153,0.0847,-0.3192,0.7107,196.4062
20:49:26:329,1.9203,0.5704,8.8012,41.2153,-0.0386,-0.105,0.5696,195.1719
20:49:26:349,2.01,0.7045,9.3507,42.6288,-0.0921,0.1453,0.4527,194.1719
20:49:26:365,2.459,0.6985,9.3255,43.2075,-0.1417,0.2399,0.2761,193.3281
20:49:26:384,2.7918,0.4292,9.6703,42.7156,-0.2999,0.2092,0.0284,192.6719
20:49:26:404,2.6876,-0.313,10.8339,43.9951,-0.5044,0.2276,-0.2251,192.2031
20:49:26:431,2.1322,-1.3078,11.9244,43.9441,-0.6301,0.4031,-0.3348,191.9219
20:49:26:450,2.192,-2.2547,12.1878,43.865,-0.6517,0.6447,-0.2422,191.9375
20:49:26:468,2.9486,-2.3421,11.7425,43.3535,-0.6503,0.8012,-0.0717,192.2656
20:49:26:484,4.0786,-2.3553,11.0326,43.2252,-0.644,0.6534,-0.0355,192.7188
20:49:26:504,4.5467,-2.3948,10.4616,45.5485,-0.6823,0.2891,-0.1615,193.25
20:49:26:529,4.196,-2.3876,10.7273,45.328,-0.824,-0.0512,-0.3641,193.4062
20:49:26:547,2.9234,-2.7025,12.0789,46.7129,-0.979,-0.06,-0.4922,193.6094
20:49:26:564,1.6928,-3.0508,13.3562,44.998,-0.9265,0.3008,-0.3812,193.9688
20:49:26:584,1.8269,-3.2411,12.7205,46.171,-0.5537,0.6644,-0.0648,194.5312
20:49:26:604,2.8181,-2.6055,10.0965,46.5921,-0.1356,0.6074,0.2258,195.1406
20:49:26:630,4.0284,-1.4467,8.3643,45.9493,0.0621,0.1219,0.3083,195.5312
20:49:26:647,4.6975,-0.4854,7.9022,46.2726,0.0892,-0.3714,0.1067,195.5625
20:49:26:664,4.3767,-0.0652,8.0542,48.0482,0.0173,-0.509,-0.2541,195.2969
20:49:26:683,3.5136,-0.0892,8.2326,48.1194,-0.0815,-0.2259,-0.5801,194.9844
20:49:26:704,2.1262,-0.2197,7.9453,47.6139,-0.1329,0.2492,-0.7663,194.9844
20:49:26:729,1.2367,-0.1921,7.1947,47.7107,-0.1372,0.5791,-0.7641,195.4219
20:49:26:747,1.0033,0.1921,6.9337,47.3921,-0.1151,0.6454,-0.6699,196.1875
20:49:26:765,1.1158,0.5692,6.9948,50.0345,-0.0234,0.5221,-0.6067,197.1719
20:49:26:785,1.0655,0.7955,7.0295,48.9647,0.0823,0.34,-0.599,197.6406
20:49:26:805,1.056,0.8817,7.0977,49.3081,0.1486,0.1581,-0.5924,198.8906
20:49:26:829,1.0344,1.0936,7.3252,49.5569,0.1606,-0.0299,-0.5703,199.6406
20:49:26:851,1.372,1.2887,8.0339,50.1807,0.1321,-0.2555,-0.5604,200.3594
20:49:26:866,1.7215,1.3258,9.0945,48.9614,0.0847,-0.3724,-0.6017,200.9844
20:49:26:883,1.7215,1.3246,10.1491,49.2492,0.0277,-0.3042,-0.6781,201.5938
20:49:26:904,1.3516,1.2121,11.1786,48.8858,-0.0163,-0.0733,-0.7482,202.2031
20:49:26:923,0.6908,0.7356,11.6802,51.457,-0.0184,0.2359,-0.7521,202.875
20:49:26:946,0.1569,0.3693,11.6671,50.8687,-0.0208,0.5102,-0.6137,203.625
20:49:26:965,0.0755,0.1562,11.6216,52.6789,-0.0168,0.6066,-0.4014,204.5156
20:49:26:984,0.1845,-0.246,11.7233,50.685,-0.0107,0.4651,-0.1958,205.375
20:49:27:004,0.5484,-0.6063,12.0908,51.3284,-0.0152,0.2236,-0.0182,206.0156
20:49:27:023,0.9279,-0.8158,12.5182,52.7789,-0.089,-0.1117,0.0716,206.4375
20:49:27:043,1.0141,-1.224,14.2672,54.3424,-0.2474,-0.5128,0.1003,206.6094
20:49:27:068,0.5185,-1.9327,16.8685,52.6373,-0.2192,-0.6228,0.1818,206.5781
20:49:27:083,0.0205,-2.7623,17.9016,54.558,0.2093,-0.2877,0.4058,206.3438
20:49:27:103,-0.1064,-2.9419,14.6299,54.7724,0.8075,0.2577,0.7254,206.0469
20:49:27:124,0.2144,-2.3625,9.9827,54.7111,1.0634,0.5277,0.9888,205.5625
20:49:27:144,0.8141,-1.9495,6.9613,55.6282,0.9017,0.3898,1.1171,204.7031
20:49:27:166,0.8261,-1.3449,6.4262,54.4701,0.5555,-0.0297,1.1504,203.5781
20:49:27:184,0.7687,-1.2049,7.8555,55.2573,0.3529,-0.4678,1.1651,202.2969
20:49:27:204,0.5807,-1.242,8.9664,57.006,0.4298,-0.6952,1.201,201.0156
20:49:27:231,0.5292,-1.06,8.7533,55.5363,0.5827,-0.668,1.2847,199.6094
20:49:27:248,0.8417,-0.6961,7.8363,55.7548,0.6408,-0.5322,1.351,198.125
20:49:27:265,1.2774,-0.3178,7.0415,55.3957,0.5936,-0.4339,1.3323,197.3594
20:49:27:283,1.5157,-0.0437,6.7601,55.4521,0.5129,-0.4105,1.2482,195.8125
20:49:27:364,1.5504,0.0186,6.8619,54.5277,0.4804,-0.4188,1.1486,194.1719
20:49:27:365,1.5252,-0.076,6.7374,56.3357,0.5031,-0.4443,1.0729,192.6094
20:49:27:365,1.6785,-0.1275,6.565,55.5878,0.5281,-0.4544,1.0415,191.25
20:49:27:365,1.9466,-0.0257,6.3902,55.8745,0.5241,-0.4254,1.0087,189.9062
20:49:27:384,2.3728,0.2604,6.0407,56.3123,0.4599,-0.407,0.9129,187.9844
20:49:27:406,2.7307,0.507,5.9497,57.017,0.2778,-0.4297,0.7256,186.8125
20:49:27:432,2.8169,0.5932,6.6512,57.5322,0.016,-0.4307,0.4945,185.7031
20:49:27:444,2.6098,0.2508,7.8711,55.158,-0.184,-0.3397,0.2745,184.8281
20:49:27:469,1.8544,-0.8972,9.1974,54.7383,-0.4165,0.0383,0.1517,184.25
20:49:27:491,2.216,-1.1462,9.8044,54.8716,-0.5449,0.1139,0.2314,183.7812
20:49:27:515,2.842,-1.1079,10.9691,56.3861,-0.6884,0.0678,0.25,183.6562
20:49:27:525,3.5028,-1.3713,12.4691,56.17,-0.7313,0.0979,0.1911,183.4531
20:49:27:555,3.9889,-2.0034,12.602,55.7679,-0.6661,0.2737,0.1051,183.3438
20:49:27:564,4.336,-2.1554,11.5533,53.7265,-0.6964,0.402,0.0343,183.3438
20:49:27:594,4.5084,-1.7759,11.278,55.4093,-0.8967,0.2159,-0.1103,183.0938
20:49:27:602,4.1864,-1.6933,13.1024,54.5204,-1.1055,-0.0923,-0.3452,183.0781
20:49:27:624,2.7032,-2.147,15.5828,55.6448,-1.0591,0.0907,-0.5005,183.1562
20:49:27:654,1.275,-2.7611,15.5098,55.1509,-0.596,0.7309,-0.3631,183.375
20:49:27:663,1.4761,-2.8473,11.9185,55.1327,-0.0807,1.1277,0.0106,183.8281
20:49:27:689,3.2933,-2.0428,8.9748,55.6078,0.1055,0.8662,0.3241,184.5
20:49:27:702,4.9465,-0.6458,8.1871,57.4376,0.0929,0.1062,0.2939,185.0781
20:49:27:723,5.2267,0.2197,9.0753,53.9932,0.0794,-0.5599,-0.0672,185.2656
20:49:27:748,4.1852,0.0521,9.5147,54.8702,0.1396,-0.6062,-0.4733,185.0156
20:49:27:765,2.8552,-0.2951,8.4971,54.4212,0.1843,-0.1729,-0.7141,184.6875
20:49:27:785,1.955,-0.0724,6.8511,53.802,0.1073,0.3328,-0.7854,184.6719
20:49:27:802,1.4199,0.1766,5.8779,54.3023,-0.0181,0.5445,-0.8025,185.0938
20:49:27:822,1.1757,0.4663,5.8635,55.4032,-0.1052,0.4798,-0.7697,186.8281
20:49:27:844,1.1781,0.6865,6.5219,53.5786,-0.0804,0.3107,-0.7274,187.3125
20:49:27:865,1.1817,0.8242,7.0211,54.3876,0.0567,0.165,-0.6898,188.2656
20:49:27:882,1.3397,0.9631,6.9265,53.1496,0.1729,0.084,-0.6653,189.1875
20:49:27:905,1.4259,1.0995,7.1408,53.0281,0.151,0.0079,-0.6693,190.0312
20:49:27:922,1.5527,1.1175,8.3236,54.381,0.0615,-0.0246,-0.6733,190.7656
20:49:27:943,1.6186,1.1402,9.8355,51.0543,0.0594,0.0249,-0.6717,191.5312
20:49:27:966,1.4989,1.1343,10.5873,53.0305,0.1649,0.1115,-0.6749,192.2969
20:49:27:987,0.9949,0.9451,10.4077,53.3619,0.2839,0.2279,-0.6501,193.0469
20:49:28:003,0.1701,0.7368,9.9301,52.3819,0.3374,0.2691,-0.5303,193.7969
20:49:28:024,-0.0885,0.6626,10.0414,50.7512,0.3529,0.1541,-0.2981,194.5625
20:49:28:050,0.2934,0.5609,10.3072,51.4218,0.375,-0.0424,-0.0773,195.2656
20:49:28:069,1.1074,0.1826,10.701,51.6195,0.294,-0.202,0.079,195.5156
20:49:28:083,2.0927,-0.0042,11.2708,51.1492,0.0661,-0.206,0.1185,195.8594
20:49:28:103,2.6385,0.1323,12.4188,51.5728,-0.2948,-0.1157,0.022,195.9219
20:49:28:125,2.5595,-0.2975,14.1235,49.9954,-0.6053,-0.0382,-0.1481,195.7812
20:49:28:150,1.1409,-0.9798,16.2663,48.6525,-0.6954,-0.0739,-0.2051,195.5938
20:49:28:166,0.1067,-1.8214,18.2559,50.7469,-0.3505,-0.0009,0.0295,195.6875
20:49:28:183,0.2204,-2.2416,16.0951,49.1144,0.355,0.3472,0.3536,195.9688
20:49:28:204,0.3604,-2.0967,11.0745,49.2082,0.7286,0.5674,0.6002,196.1406
20:49:28:223,0.813,-1.8669,8.1919,47.9495,0.5814,0.4457,0.7922,195.9219
20:49:28:247,1.1625,-1.3857,8.1428,49.4226,0.2618,0.0851,0.8913,195.4062
20:49:28:264,1.6234,-1.2659,9.9791,49.8515,0.1736,-0.2467,0.9267,194.6406
20:49:28:289,1.4438,-1.1319,10.1815,47.214,0.4099,-0.3703,0.9267,193.6875
20:49:28:302,1.1493,-0.9176,8.8431,46.2563,0.6511,-0.3599,0.9611,192.6094
20:49:28:323,1.141,-0.6123,7.2558,46.4787,0.7201,-0.2678,1.0034,191.5469
20:49:28:349,1.3062,-0.3873,6.0802,46.6658,0.6517,-0.1945,1.0056,190.4062
20:49:28:365,1.36,-0.1395,5.6469,46.1697,0.4956,-0.1924,0.9848,189.2031
20:49:28:385,1.4773,0.0868,6.0132,44.6752,0.3521,-0.2398,0.9496,187.9844
20:49:28:404,1.5168,0.0796,6.6416,42.8495,0.3153,-0.2797,0.8985,186.8594
20:49:28:424,1.4666,-0.009,7.0403,44.3139,0.3651,-0.2693,0.8689,185.1406
20:49:28:450,1.5875,0.0449,6.9457,42.127,0.4179,-0.2198,0.8663,184.1094
20:49:28:467,1.9227,0.2209,6.6021,42.3909,0.4099,-0.2166,0.8311,183.0781
20:49:28:484,2.186,0.4196,6.6524,42.3909,0.3308,-0.2992,0.7382,182.0312
20:49:28:504,2.4003,0.5034,7.1911,42.6093,0.2237,-0.3921,0.5986,181.0469
20:49:28:524,2.4889,0.349,7.7645,42.6376,0.1097,-0.406,0.4327,180.2031
20:49:28:551,2.4578,-0.0186,8.1691,41.7134,-0.0426,-0.3133,0.2889,179.8125
20:49:28:565,2.6433,-0.4268,8.8383,40.5619,-0.2448,-0.2001,0.2015,179.1875
20:49:28:586,3.1389,-0.8338,9.7122,39.6374,-0.4535,-0.112,0.1254,178.75
20:49:28:603,3.5304,-1.1941,10.8806,40.2762,-0.6581,-0.0012,0.0468,178.4844
20:49:28:623,3.9386,-1.5449,11.7964,39.332,-0.799,0.2359,-0.0224,178.3125
20:49:28:647,4.609,-1.9531,11.8203,39.5093,-0.8802,0.466,-0.1029,178.25
20:49:28:664,5.2099,-2.0476,11.296,39.2623,-0.9955,0.5112,-0.2456,178.3125
20:49:28:683,5.3619,-1.8094,11.5641,38.0734,-1.1654,0.2995,-0.4898,178.4688
20:49:28:704,4.6221,-1.9243,12.9539,38.5868,-1.2488,0.0707,-0.7969,179.0156
20:49:28:732,2.7786,-2.4235,14.3091,37.8452,-1.135,0.1917,-0.9673,179.6562
20:49:28:750,1.3516,-2.9682,14.181,35.9428,-0.7926,0.666,-0.8004,180.6719
20:49:28:768,1.7551,-2.9874,11.8945,36.544,-0.3598,0.9203,-0.4214,181.8906
20:49:28:783,3.273,-2.2883,9.6416,36.9075,-0.0764,0.6175,-0.1306,182.9062
