Time,Acc_X,Acc_Y,Acc_Z,Meg,Gyr_X,Gyr_Y,Gyr_Z,Ore
19:54:41:381,-1.9057,3.0077,7.8004,60.6573,0.5007,0.392,0.0018,281.0469
19:54:41:429,-1.282,2.9778,7.4138,58.0659,-1.1334,-1.7428,0.1418,280.8594
19:54:41:445,-1.4005,2.5768,8.6635,58.6617,-1.1726,-1.6914,0.0572,280.8594
19:54:41:465,-1.5082,2.3792,9.8163,57.8573,-1.1478,-1.3947,0.0979,280.8594
19:54:41:494,-0.9695,2.5061,9.9085,57.9734,-0.939,-1.061,0.2494,234.875
19:54:41:513,-1.0019,2.8736,9.4297,56.7079,-0.6293,-1.029,0.2034,235.0625
19:54:41:526,-1.9129,2.8449,9.231,58.0857,-0.3627,-1.5835,0.0987,235.0312
19:54:41:544,-2.193,2.5313,9.7565,57.2406,-0.1281,-2.2349,0.1751,234.8906
19:54:41:565,-2.0996,2.396,11.0482,57.6205,0.0418,-2.0994,0.4492,234.8906
19:54:41:599,-1.0306,2.8964,11.0278,57.3747,0.1854,-1.4253,0.8481,235.0469
19:54:41:611,0.0468,3.6135,11.1427,57.7961,0.322,-0.8607,1.1064,235.2344
19:54:41:625,1.105,3.8924,10.8842,56.7676,0.4693,-0.1989,1.1128,235.0938
19:54:41:645,1.5468,4.0564,9.9133,57.9723,0.4948,-0.314,0.9115,234.3594
19:54:41:666,0.6753,4.3389,10.2281,56.2157,0.3396,-0.9348,0.6726,233.2812
19:54:41:689,0.2898,3.902,10.8303,55.2066,0.2322,-0.5766,0.585,232.0156
19:54:41:708,-0.3483,3.8625,10.3419,58.7967,0.1912,-0.0085,0.6391,230.9844
19:54:41:724,-1.1359,3.7823,9.3591,58.5232,0.2165,0.2714,0.7927,230.1094
19:54:41:745,-2.4001,2.7001,9.3471,58.0385,0.2485,0.0069,1.0984,229.4688
19:54:41:765,-1.203,2.9132,10.3491,57.4403,0.252,-0.1901,1.5685,228.5938
19:54:41:789,0.6884,2.3218,11.6419,56.918,0.1422,-0.4096,1.6068,227.5625
19:54:41:806,1.7144,2.0058,13.2233,57.1204,0.0272,-0.5659,1.3898,225.9844
19:54:41:825,2.2375,1.3306,13.3562,56.959,0.0594,-0.208,1.2202,224.125
19:54:41:846,2.3644,1.0708,12.0645,58.7669,0.2517,0.2125,1.2007,222.5938
19:54:41:865,2.5464,1.4335,10.4999,58.0716,0.5247,0.5233,1.2969,221.1875
19:54:41:890,3.1257,1.916,8.6659,57.795,0.7169,0.7087,1.2756,219.7969
19:54:41:905,3.4837,2.6905,6.7757,56.4808,0.706,0.7939,0.9714,218.25
19:54:41:925,3.3915,3.4171,5.5128,58.8103,0.4951,0.7763,0.5104,216.6094
19:54:41:945,3.1605,3.6434,5.2147,59.2406,0.2221,0.7329,0.0859,215.0312
19:54:41:966,2.4278,3.5129,5.5654,58.6235,-0.0314,0.6229,-0.2494,213.9375
19:54:41:989,1.846,3.1203,6.2442,59.4575,-0.3081,0.5388,-0.4619,213.4219
19:54:42:005,1.5923,2.7276,7.4198,57.7768,-0.5593,0.4962,-0.5828,213.3906
19:54:42:033,1.105,2.317,8.8814,56.0452,-0.6629,0.5611,-0.6078,213.9688
19:54:42:045,0.5412,1.7879,9.5757,57.0611,-0.4666,0.7457,-0.4763,214.5625
19:54:42:066,0.1641,1.8765,8.4696,58.0914,-0.0019,0.902,-0.2275,215.2031
19:54:42:093,0.5915,2.6378,6.5483,56.8883,0.4035,0.7699,0.0649,215.4844
19:54:42:108,1.3385,3.7116,5.2195,57.0458,0.5436,0.298,0.1639,215.75
19:54:42:124,1.3277,4.4526,5.6013,56.9997,0.371,-0.3494,-0.0108,215.6719
19:54:42:145,1.5192,4.0001,7.2581,57.493,0.0693,-0.5952,-0.2225,215.3438
19:54:42:165,1.3169,3.5476,9.0334,56.0721,-0.1704,-0.3105,-0.3192,215.2188
19:54:42:189,0.9015,3.7272,10.0294,56.2228,-0.2317,0.1422,-0.3445,215.4375
19:54:42:205,0.4275,3.9702,10.0366,58.0899,-0.1297,0.3124,-0.3951,215.875
19:54:42:225,-0.0514,3.8924,9.8211,57.0845,-0.004,0.2136,-0.4353,216.2812
19:54:42:246,-0.6236,3.9175,9.9181,57.0845,0.1081,0.0205,-0.4249,216.6562
19:54:42:264,-0.9456,3.9522,10.0893,56.7705,0.1958,-0.0903,-0.3674,217.0625
19:54:42:286,-0.8965,4.0875,10.3024,56.6055,0.2394,-0.1017,-0.2861,217.5469
19:54:42:305,-0.8079,4.066,10.4029,57.7513,0.2799,-0.0317,-0.2217,218.1875
19:54:42:326,-0.7014,4.2144,10.3838,55.8582,0.3092,0.0791,-0.1668,218.5156
19:54:42:345,-0.4297,4.2288,10.1024,55.6887,0.2948,0.1864,-0.1615,218.7656
19:54:42:366,-0.4907,4.2731,9.8606,55.2432,0.2029,0.1875,-0.2009,218.9219
19:54:42:389,-0.7074,3.8792,10.3467,57.7177,0.049,0.1164,-0.2539,219.0469
19:54:42:407,-0.8606,3.1801,11.1906,56.0455,-0.0341,0.0242,-0.2502,219.125
19:54:42:424,-0.7995,2.5792,11.6012,55.2344,-0.0168,-0.1182,-0.2108,219.4844
19:54:42:445,-0.7672,2.2727,11.7126,55.2574,-0.0109,-0.1792,-0.1889,219.75
19:54:42:466,-0.5027,2.1542,11.3774,57.0672,-0.0543,0.0043,-0.1716,220.0156
19:54:42:494,-0.4859,1.9327,10.4688,55.146,-0.1092,0.3223,-0.194,220.2656
19:54:42:509,-1.094,1.5461,9.3016,55.8086,-0.2429,0.6426,-0.1703,220.4531
19:54:42:524,-1.6627,1.3186,8.5019,55.9235,-0.4266,0.8062,-0.0526,220.6094
19:54:42:547,-1.5382,1.3354,7.6939,54.6041,-0.6096,0.7683,0.1027,220.6719
19:54:42:573,-1.124,1.4072,7.737,55.1694,-0.7683,0.5851,0.1871,220.5781
19:54:42:591,-0.8008,1.3414,8.4816,54.9803,-0.8056,0.5098,0.185,220.3438
19:54:42:607,-1.4723,1.254,8.4133,54.8269,-0.4418,0.5987,0.3272,220.0156
19:54:42:626,-1.3407,1.3833,7.5957,56.4518,-0.2229,0.6408,0.4952,219.7188
19:54:42:646,-1.3179,1.6741,6.8511,54.8287,-0.1196,0.6394,0.6308,219.4219
19:54:42:674,-1.2928,1.898,6.3364,53.8345,-0.054,0.624,0.7014,217.875
19:54:42:692,-0.3351,2.1458,5.9198,55.0519,-0.0189,0.562,0.6713,217.875
19:54:42:709,-0.693,2.5756,5.9725,54.0474,0.0298,0.387,0.3946,217.4844
19:54:42:725,-2.6407,3.119,5.4709,54.4599,0.0067,0.1649,0.3384,216.5781
19:54:42:744,-1.841,2.8653,6.2873,53.0682,-0.2176,-0.1007,0.4215,215.7188
19:54:42:764,-1.6148,3.0951,8.4301,54.3285,-0.3963,-0.2336,0.3317,215.2031
19:54:42:790,-1.8757,3.1777,10.4209,54.45,-0.3683,-0.1971,0.2122,214.7969
19:54:42:806,-2.6742,3.0305,11.4791,54.9926,-0.2013,-0.1158,0.1118,214.3281
19:54:42:824,-3.6163,2.6486,11.7616,54.3295,-0.0535,-0.0666,0.1544,213.9844
19:54:42:844,-3.7037,2.4164,11.7449,53.7633,-0.0541,0.0559,0.3323,213.7812
19:54:42:864,-3.165,2.3685,11.7844,54.3947,-0.1827,0.2056,0.5272,213.6719
19:54:42:891,-2.3582,2.0836,12.1208,54.8669,-0.3363,0.2394,0.6667,213.5
19:54:42:908,-1.2856,1.4335,12.7265,54.342,-0.4304,0.2109,0.7685,213.1094
19:54:42:924,-0.1411,0.8841,13.1682,53.6539,-0.4551,0.175,0.8313,212.5
19:54:42:944,0.7615,0.6123,13.343,55.3132,-0.4677,0.1412,0.7893,211.25
19:54:42:964,0.88,0.5381,13.3729,53.2122,-0.4421,0.0597,0.6281,210.3438
19:54:42:990,0.7926,0.3813,13.5717,54.1478,-0.3819,-0.0117,0.4702,209.3594
19:54:43:008,1.0021,0.1048,13.744,53.2321,-0.2367,0.0714,0.3749,208.5312
19:54:43:024,1.3301,0.167,13.0162,53.4831,0.0453,0.2253,0.3237,207.9062
19:54:43:044,1.5575,0.4639,11.4217,52.6095,0.3145,0.2557,0.2574,207.4531
19:54:43:065,1.7551,0.8326,9.5338,52.6107,0.4322,0.1611,0.1373,207.0312
19:54:43:093,1.7204,1.321,7.9824,52.7685,0.2647,0.0956,-0.0494,206.6562
19:54:43:111,1.7287,1.7591,7.2905,52.2854,-0.0423,0.0613,-0.2635,206.4219
19:54:43:129,1.876,2.1255,7.0798,52.9474,-0.2652,0.0077,-0.4885,206.3594
19:54:43:147,1.2726,2.05,6.6572,51.7732,-0.3593,0.0115,-0.7184,206.5156
19:54:43:163,0.0217,1.9615,5.8336,52.5495,-0.4631,0.1361,-0.8055,206.7031
19:54:43:185,-0.614,2.0668,5.4924,51.072,-0.6368,0.2187,-0.7549,207.2188
19:54:43:203,-1.4137,2.1494,6.5243,50.6779,-0.751,0.2163,-0.6744,208.0312
19:54:43:225,-1.9081,2.0297,7.9285,50.6455,-0.5803,0.1587,-0.496,208.9375
19:54:43:243,-1.8853,2.1554,8.3152,51.4723,-0.1957,0.0413,-0.2307,209.7188
19:54:43:265,-1.5885,2.5444,8.1835,50.4072,0.195,-0.0887,0.0135,210.7344
19:54:43:289,-1.2353,2.9419,7.901,50.2938,0.4384,-0.1228,0.1115,211.1406
19:54:43:304,-1.3993,3.2591,8.1991,49.3435,0.441,0.0362,0.0702,211.25
19:54:43:324,-1.9811,3.1789,9.037,50.4925,0.278,0.2823,-0.0155,211.1719
19:54:43:405,-2.4025,3.0544,10.1539,49.961,0.1366,0.4639,-0.0441,211.0781
19:54:43:406,-2.5641,3.1693,11.0613,51.3013,0.1539,0.4299,-0.0118,211.0469
19:54:43:406,-2.4875,3.3573,11.7245,51.0217,0.3183,0.1763,0.0321,211.0625
19:54:43:414,-2.3845,3.3501,12.1208,50.7571,0.5683,-0.0421,0.0324,211.0469
19:54:43:431,-2.5784,3.289,11.9244,50.0794,0.7846,-0.0927,0.0548,211.0156
19:54:43:444,-2.5629,3.3429,11.4217,48.2362,0.8514,-0.0881,0.1043,210.9844
19:54:43:465,-2.6946,3.1753,11.3307,49.9728,0.7241,-0.0144,0.0849,210.9844
19:54:43:493,-3.6235,2.4654,11.4815,48.2566,0.4639,0.3026,0.1179,210.9375
19:54:43:505,-4.3071,2.1841,11.5402,46.6674,0.1806,0.7018,0.324,210.875
19:54:43:525,-4.3382,1.9938,10.9751,49.2371,0.0466,0.8384,0.5368,210.7969
19:54:43:543,-4.0928,1.6478,10.6914,48.3249,0.0128,0.5747,0.7453,210.2188
19:54:43:563,-3.2201,1.5185,11.0003,49.0914,0.1537,0.0903,0.9373,209.5156
19:54:43:589,-2.2265,1.4527,10.3096,47.8824,0.4,-0.1659,0.964,208.5781
19:54:43:612,-1.6615,1.8262,8.2876,47.5722,0.481,-0.3316,0.8867,207.5
19:54:43:623,-1.0737,2.0333,6.8835,48.3121,0.2719,-0.6916,0.7139,206.5
19:54:43:644,-0.4835,2.0022,7.0427,48.1752,-0.1057,-1.1177,0.4803,206.0156
19:54:43:663,-0.4308,1.6741,8.4588,48.562,-0.3902,-1.4008,0.2574,205.1875
19:54:43:687,-0.802,1.26,10.1791,48.2178,-0.3691,-1.4059,0.1608,204.6562
19:54:43:704,-0.8427,1.0828,10.1731,47.7485,-0.0842,-0.9931,0.2209,204.4688
19:54:43:723,-0.9252,1.0876,8.6432,47.582,0.1918,-0.436,0.3536,204.5156
19:54:43:744,-0.9205,1.57,6.8607,47.2215,0.2791,-0.041,0.5229,204.5156
19:54:43:763,-0.2764,2.0644,6.0754,49.1033,0.2653,0.0682,0.63,204.3125
19:54:43:789,0.1174,2.2811,6.4716,47.1633,0.3462,-0.0234,0.5858,203.8594
19:54:43:807,0.4071,2.5277,6.2634,47.4165,0.5614,-0.1057,0.5613,203.1562
19:54:43:824,0.5508,2.8306,5.6456,46.9144,0.7076,-0.2216,0.5102,202.1406
19:54:43:844,0.7112,3.2005,5.0591,47.1103,0.6642,-0.2927,0.3972,201.5156
19:54:43:863,0.5077,3.374,5.5511,47.4957,0.4549,-0.3473,0.2095,200.9375
19:54:43:889,0.1186,3.2495,6.3699,48.9392,0.2019,-0.212,0.0572,200.5312
19:54:43:905,-0.353,3.2591,7.3611,46.6956,-0.0186,0.0642,-0.0134,200.3438
19:54:43:923,-0.5913,3.3178,8.041,46.7129,-0.13,0.2706,-0.0512,200.3125
19:54:43:944,-0.5721,3.2747,8.314,47.2047,-0.2272,0.1143,-0.1415,200.3125
19:54:43:966,-0.3171,2.8617,9.7122,46.3256,-0.4431,-0.2983,-0.2654,200.3281
19:54:43:990,-0.4021,2.1602,12.0298,46.8422,-0.6828,-0.4394,-0.3194,200.4688
19:54:44:008,-0.1771,1.6658,13.082,44.9833,-0.8373,0.4709,0.0649,200.8594
19:54:44:024,0.7172,2.4307,12.0944,47.4876,-0.8179,0.6557,0.2228,200.8594
19:54:44:044,1.3409,2.955,11.6994,46.3032,-0.7896,0.3316,0.0795,201.3438
19:54:44:065,1.4187,2.6223,12.3674,45.2394,-0.8346,-0.1624,-0.2422,201.6094
19:54:44:090,1.1422,1.6694,13.7656,45.3531,-0.9526,-0.1563,-0.4694,201.1406
19:54:44:109,0.6908,1.0959,14.2049,45.8243,-0.934,0.4402,-0.5013,201.0469
19:54:44:124,0.7004,1.0648,12.784,43.5814,-0.6991,1.0088,-0.3935,201.375
19:54:44:144,1.0931,1.5245,10.3395,46.0499,-0.3824,1.0243,-0.3314,201.9531
19:54:44:163,1.1338,1.9124,8.8,46.6887,-0.1582,0.5939,-0.4073,202.4844
19:54:44:184,0.4418,1.7627,8.0949,45.4099,-0.0386,0.2328,-0.521,202.8281
19:54:44:207,0.0995,1.3916,7.895,46.8383,-0.0178,0.2868,-0.5698,203.0938
19:54:44:224,1.0452,1.2695,7.9728,46.2905,-0.0114,0.7079,-0.5966,203.4844
19:54:44:243,-0.8953,1.8609,7.0666,47.0538,0.1776,1.0725,-0.7812,204.0312
19:54:44:263,-0.6966,2.1339,4.7191,46.9171,0.245,1.1854,-0.6257,204.6562
19:54:44:290,-1.2401,2.4606,3.9122,46.8779,0.1963,0.865,-0.7016,205.2656
19:54:44:308,-2.3474,2.6043,3.9278,47.1768,0.1784,0.2749,-0.6997,206
19:54:44:324,-2.5306,2.5971,4.5683,46.0486,0.1428,-0.2525,-0.615,206.5938
19:54:44:342,-2.5389,2.8066,5.4757,45.951,0.0381,-0.4732,-0.5269,207.3125
19:54:44:365,-2.1248,3.2148,6.9062,46.8069,-0.0908,-0.4804,-0.4856,208.0625
19:54:44:391,-2.2002,3.465,8.3595,48.0779,-0.1331,-0.4368,-0.5884,209.1406
19:54:44:404,-3.0477,3.1645,9.4979,47.9849,-0.1334,-0.4141,-0.7106,209.7656
19:54:44:423,-3.8582,2.6558,10.6328,48.4544,-0.1238,-0.4149,-0.6952,210.375
19:54:44:443,-4.4124,1.9986,11.8849,47.0294,-0.1201,-0.3539,-0.5333,211.1719
19:54:44:465,-4.2903,1.552,12.9552,47.0294,-0.0602,-0.2104,-0.2409,212.0312
19:54:44:491,-3.432,1.7101,13.4483,49.489,0.0786,-0.0165,0.0337,212.7969
19:54:44:508,-2.5497,2.062,12.9001,49.1331,0.1678,0.1766,0.0915,213.0469
19:54:44:524,-2.5497,2.3074,12.4883,48.0623,0.0575,0.3659,-0.0094,213.3438
19:54:44:543,-2.8622,2.2547,12.6128,47.9328,-0.2258,0.6416,-0.0843,213.3125
19:54:44:563,-3.25,1.9986,13.5441,49.9335,-0.4706,0.803,-0.1061,213.2031
19:54:44:583,-3.4116,1.169,14.1894,48.9967,-0.4618,0.7713,-0.0837,213.1719
19:54:44:609,-3.6774,-0.1035,14.0577,48.7583,-0.2083,0.546,0.0105,213.1875
19:54:44:626,-3.8294,-1.1079,12.9109,49.8777,0.1968,0.2522,0.2486,213.2031
19:54:44:643,-3.4679,-1.2396,10.7345,49.2208,0.5015,-0.0298,0.6034,213.1562
19:54:44:664,-2.5593,-0.4747,8.8204,49.1915,0.5262,-0.2895,0.8963,213
19:54:44:689,-1.9308,0.5417,7.7549,48.9398,0.3515,-0.5579,0.9525,212.5625
19:54:44:707,-1.7489,1.1762,7.7214,49.4644,0.1444,-0.7955,0.8915,211.75
19:54:44:724,-1.5298,1.3174,7.9979,48.6227,0.0661,-0.8546,0.875,210.7344
19:54:44:744,-1.3646,1.3701,7.9165,49.7339,0.135,-0.751,0.8979,209.7812
19:54:44:765,-1.1395,1.4647,7.1277,50.6831,0.2802,-0.5409,0.9594,208.9219
19:54:44:791,-0.7289,1.6981,5.8611,52.0083,0.3595,-0.2975,1.0249,208.0156
19:54:44:807,-0.2238,2.0752,5.1201,50.3192,0.3297,-0.1803,1.0471,207.0469
19:54:44:825,0.2599,2.5349,4.9717,48.5277,0.2783,-0.208,0.9869,206.0156
19:54:44:843,0.6202,2.809,5.4002,51.3993,0.229,-0.3321,0.8175,204.8594
19:54:44:863,0.546,2.8377,6.0718,52.8928,0.1561,-0.3574,0.5693,203.7031
19:54:44:883,0.224,2.6665,7.0211,52.2601,0.0245,-0.2581,0.3344,202.3281
19:54:44:904,-0.0502,2.2966,8.3379,51.6157,-0.0578,-0.0905,0.1754,201.7188
19:54:44:923,-0.4201,2.056,9.5398,51.5207,0.0069,0.0514,0.1179,201.375
19:54:44:944,-0.5542,1.9112,10.0246,51.6992,0.1912,0.0661,0.1078,201.1875
19:54:44:963,-0.1687,2.0273,9.7098,52.4725,0.3108,-0.0197,0.051,201.125
19:54:44:991,0.3437,1.9543,9.5362,52.1147,0.204,-0.2381,-0.1482,200.9844
19:54:45:008,0.6046,1.2887,10.6435,52.8272,-0.0873,-0.5134,-0.4161,200.875
19:54:45:025,0.552,0.1873,12.4775,52.795,-0.3603,-0.5443,-0.6006,200.9219
19:54:45:044,0.3664,-0.6662,13.7644,53.3381,-0.437,-0.2583,-0.5951,201.2969
19:54:45:063,0.2288,-0.7069,13.3179,52.4497,-0.318,0.1912,-0.4728,201.9844
19:54:45:083,0.0276,-0.2999,10.8842,51.9789,-0.2343,0.3979,-0.3841,202.7812
19:54:45:108,-0.1459,0.4914,9.1136,53.8212,-0.453,0.1249,-0.4044,203.3594
19:54:45:124,-0.2812,0.9176,10.0845,52.8274,-0.9137,-0.4375,-0.5753,203.7969
19:54:45:143,-0.7948,-0.0293,13.3945,52.9393,-1.2192,-0.796,-0.7074,204.4375
19:54:45:163,-0.9013,-0.7201,16.0173,52.2075,-1.0115,-0.5068,-0.5,205.125
19:54:45:186,-0.0968,-0.1227,14.5509,53.0866,-0.3712,-0.0927,-0.1024,206.0469
19:54:45:207,1.6078,1.2719,11.1272,52.3915,0.1561,-0.1028,0.1482,206.6875
19:54:45:227,2.8241,2.7144,8.8144,52.7424,0.3031,-0.4647,-0.055,206.7969
19:54:45:242,2.617,3.0161,7.6604,53.1524,0.131,-0.7329,-0.57,206.6406
19:54:45:262,1.2307,2.1638,7.4269,52.7286,-0.1782,-0.6144,-0.9466,206.7344
19:54:45:282,-0.043,1.6251,7.2905,50.6093,-0.3633,-0.3108,-0.957,207.4062
19:54:45:307,-0.6547,1.7843,7.4114,52.1033,-0.2751,-0.2767,-0.7911,208.5625
19:54:45:322,-0.4177,2.0728,7.4006,50.4359,0.0993,-0.6027,-0.6443,209.7031
19:54:45:344,-0.1435,2.311,7.1121,52.4844,0.5209,-1.0229,-0.5975,210.6406
19:54:45:363,-0.1615,2.2164,6.8811,50.7943,0.7849,-1.1308,-0.6004,211.3906
19:54:45:384,-0.45,2.1255,6.7075,52.2192,0.8506,-0.8429,-0.5477,212.1406
19:54:45:405,-0.2657,2.894,6.4836,50.4199,0.7683,-0.3212,-0.4414,212.8906
19:54:45:469,-0.1866,3.1227,6.6392,52.473,0.4498,0.1734,-0.3719,213.5
19:54:45:469,-0.2908,3.2292,7.1049,51.1882,0.2815,0.0389,-0.3692,213.9844
19:54:45:470,-0.0968,3.119,8.3846,50.9129,0.1097,-0.1619,-0.3399,214.7031
19:54:45:501,-0.1256,3.058,9.8702,50.6325,0.0258,-0.2136,-0.3184,214.7031
19:54:45:502,-0.1807,2.979,10.7142,48.6183,0.0141,-0.0413,-0.2731,215.0938
19:54:45:530,-0.4871,2.8581,10.8255,51.6184,-0.0024,0.2285,-0.1972,215.5
19:54:45:541,-0.7948,2.6881,10.6004,50.4719,-0.1052,0.3542,-0.075,215.8906
19:54:45:565,-0.4105,2.2069,10.871,50.1699,-0.3153,0.3497,0.0478,216.1875
19:54:45:603,-0.031,1.7723,11.3043,49.5175,-0.6152,0.3928,0.1064,216.375
19:54:45:603,0.4957,1.6718,12.778,50.2207,-1.0021,0.5217,0.1144,216.4219
19:54:45:623,1.0069,1.4587,14.8035,47.7445,-1.1998,0.754,-0.0723,216.3438
19:54:45:641,0.0217,0.7344,15.4319,49.1376,-1.0884,0.9806,-0.3546,216.2031
19:54:45:661,-1.6998,-0.6111,14.7412,49.3906,-0.7704,0.983,-0.4353,216.125
19:54:45:681,-3.001,-1.3701,13.1144,48.7153,-0.3792,0.8232,-0.1682,216.4844
19:54:45:711,-2.7257,-1.1666,11.4731,48.7152,-0.0133,0.3553,0.3123,216.7031
19:54:45:723,-1.3646,-0.228,9.9947,47.697,0.2163,-0.3222,0.6827,217.0312
19:54:45:747,-0.2752,1.1594,9.1927,48.4825,0.1792,-0.8258,0.7711,216.9219
19:54:45:761,0.6585,1.5377,8.5965,46.7876,-0.0543,-0.8061,0.6151,216.3125
19:54:45:783,0.6154,1.4838,8.5223,45.4166,-0.3145,-0.5246,0.4004,215.4844
19:54:45:813,-0.0969,1.2073,8.5522,45.9854,-0.3992,-0.2788,0.3277,214.75
19:54:45:823,-0.9851,0.9355,8.976,44.0193,-0.2402,-0.2314,0.4641,214.2656
19:54:45:842,-1.2712,0.7907,9.14,45.2671,0.1518,-0.274,0.7315,213.9375
19:54:45:862,-1.045,0.7476,8.654,45.9823,0.6488,-0.3893,1.0183,213.75
19:54:45:882,-0.2752,0.9391,7.47,46.5914,1.0701,-0.4836,1.2242,213.2812
19:54:45:906,0.4538,1.3414,6.1999,43.7566,1.2307,-0.4828,1.2686,212.4531
19:54:45:924,0.8596,1.7867,5.4493,44.9299,1.0892,-0.3241,1.1594,211.2812
19:54:45:943,1.0524,2.1398,5.5834,44.9904,0.7553,-0.1651,0.968,209.8594
19:54:45:961,1.0452,2.165,6.8116,42.4496,0.4259,-0.1182,0.757,208.4375
19:54:45:984,1.1685,2.1243,8.9904,42.2024,0.274,-0.0607,0.6119,207.0469
19:54:46:008,1.4378,2.1159,10.1647,43.6496,0.3931,0.0511,0.4779,205.4219
19:54:46:021,1.6665,2.1434,9.8259,43.0315,0.5238,0.0551,0.3107,204.6875
19:54:46:041,1.8568,2.05,9.1184,43.4308,0.4607,-0.0706,0.1173,204.0156
19:54:46:062,2.2279,1.8334,9.5015,42.3966,0.1444,-0.2799,-0.0923,203.5156
19:54:46:082,2.3919,1.3677,11.0769,42.4138,-0.2453,-0.2727,-0.2952,203.2344
19:54:46:104,2.3644,0.7272,12.4883,42.4919,-0.4834,-0.0455,-0.439,203.2031
19:54:46:122,2.2375,0.1957,12.8115,40.4432,-0.5063,0.2368,-0.4872,203.4844
19:54:46:142,2.0495,0.2233,11.6036,40.055,-0.4951,0.4317,-0.5024,203.9531
19:54:46:161,1.7251,0.3238,10.5633,40.1734,-0.645,0.3087,-0.5698,204.5312
19:54:46:181,1.1565,0.1538,11.0793,42.008,-0.9111,-0.0796,-0.6704,205.0938
19:54:46:205,0.5795,-0.7847,13.2077,41.2445,-1.0514,-0.4059,-0.651,205.7031
19:54:46:224,0.4778,-1.2659,14.4479,39.7165,-0.8461,-0.2354,-0.3788,206.4219
19:54:46:241,1.2164,-0.8745,13.1216,37.0793,-0.3859,0.102,0.0161,207.3281
19:54:46:261,2.4637,0.398,10.3586,40.0057,0.0469,0.1768,0.2665,208.2812
19:54:46:281,3.601,1.7532,8.1667,40.5306,0.2464,-0.0812,0.1877,208.2812
19:54:46:306,3.7135,2.4702,6.6716,39.0389,0.1918,-0.2549,-0.1988,207.9531
19:54:46:324,2.7187,2.4343,5.8946,38.181,-0.0836,-0.1148,-0.6105,207.7344
19:54:46:341,1.3397,2.2152,5.8575,40.3002,-0.3955,0.2461,-0.8166,207.7656
19:54:46:361,0.394,2.2476,6.1975,39.7765,-0.5169,0.5404,-0.7999,208.2656
19:54:46:381,0.115,2.5887,6.4357,39.4221,-0.3595,0.502,-0.6515,209.1406
19:54:46:405,0.5987,2.973,6.4693,38.5343,-0.0309,0.1641,-0.513,210.0938
19:54:46:422,1.0991,3.2448,6.5566,37.7526,0.2456,-0.2117,-0.5141,210.875
19:54:46:441,1.1278,3.1801,6.9194,38.5671,0.4006,-0.306,-0.5895,211.5156
19:54:46:462,1.0835,3.0352,7.0439,38.1564,0.4416,-0.1702,-0.6624,212.0781
19:54:46:484,0.7962,2.9802,7.0558,37.3748,0.3665,0.0136,-0.7607,212.6875
19:54:46:507,0.285,2.979,7.4557,37.0453,0.1665,0.0647,-0.8632,213.3906
19:54:46:524,-0.0885,2.7264,8.9532,38.4418,-0.0692,-0.0421,-0.9578,214.1719
19:54:46:541,-0.5769,2.1243,10.9368,36.7481,-0.176,-0.1853,-1.0028,215.5312
19:54:46:565,-1.2425,1.4371,12.5565,36.5263,-0.1004,-0.1787,-0.9341,216.6406
19:54:46:581,-1.8542,0.9463,13.2556,37.4945,0.1119,-0.0335,-0.7367,217.8281
19:54:46:602,-2.0685,0.665,12.6319,37.4945,0.3231,0.1204,-0.4568,218.8594
19:54:46:621,-1.7967,0.6482,11.6048,36.8192,0.3601,0.1473,-0.2132,219.7031
19:54:46:641,-1.756,0.9523,11.2888,35.5543,0.2176,0.0338,-0.0832,220.1875
19:54:46:664,-1.6232,0.9655,11.8119,36.6466,0.0168,-0.1646,-0.0408,220.3906
19:54:46:681,-1.92,0.7512,13.0078,36.6977,-0.1361,-0.3395,-0.0036,220.4688
19:54:46:701,-1.9572,0.4196,14.4503,36.4566,-0.1627,-0.4261,0.1086,220.5312
19:54:46:721,-1.9153,0.0102,15.2344,37.9019,-0.0205,-0.2426,0.2462,220.5781
19:54:46:741,-1.8195,-0.5333,14.1534,37.332,0.1979,0.114,0.4529,220.5312
19:54:46:762,-1.1407,-0.2819,12.207,39.6491,0.323,0.3071,0.6963,220.2812
19:54:46:781,-0.2058,0.2436,10.3957,37.605,0.33,0.228,0.8066,219.7344
19:54:46:808,0.461,1.011,8.0865,39.1518,0.0692,-0.3286,0.7938,218.9219
19:54:46:825,0.3042,1.0612,8.8419,36.7927,-0.0077,-0.5704,0.8023,218.4375
19:54:46:843,0.8177,1.6442,9.061,38.0868,0.1321,-0.5771,0.9043,216.9844
19:54:46:863,0.8477,1.5233,8.1392,37.4319,0.3412,-0.3494,0.8468,216.1094
19:54:46:882,0.813,1.5365,6.65,37.6808,0.5201,-0.2386,0.8497,215.3125
19:54:46:904,1.1948,1.5533,5.3943,38.676,0.5683,-0.1712,0.8681,214.3281
19:54:46:922,1.3205,1.5856,4.9034,36.7526,0.5255,-0.2482,0.8316,213.375
19:54:46:941,1.2571,1.3007,5.1309,37.687,0.392,-0.1909,0.7858,212.4219
19:54:46:964,1.2044,1.2456,5.9772,39.5209,0.2362,-0.0919,0.7821,211.3906
19:54:46:980,1.2176,1.2983,6.905,38.3938,0.1031,0.0623,0.7528,210.4062
19:54:47:001,1.5731,1.3964,7.81,38.1826,-0.0218,0.1561,0.7075,209.5312
19:54:47:023,1.9466,1.5748,8.7713,38.2962,-0.1177,0.2133,0.6076,208.625
19:54:47:044,2.1381,1.819,9.8295,38.158,-0.1811,0.1963,0.4433,207.7344
19:54:47:061,1.9825,1.7771,10.8662,37.9741,-0.2248,0.1342,0.2462,206.9062
19:54:47:081,1.6126,1.2731,11.5857,39.9087,-0.2442,0.0341,0.087,206.2344
19:54:47:103,1.1709,0.7548,12.4464,37.8125,-0.2708,-0.0018,0.0529,205.5625
19:54:47:126,1.1685,0.5166,13.1108,37.885,-0.2389,0.1766,0.1493,205.4062
19:54:47:144,1.8089,0.2831,12.2285,39.1224,-0.1515,0.412,0.2508,205.375
19:54:47:161,1.9933,0.5381,10.8183,38.1781,-0.1478,0.3486,0.2984,205.2969
19:54:47:180,2.3476,0.7596,10.124,36.7764,-0.2495,-0.0445,0.2556,205.0469
19:54:47:201,2.3321,0.5752,10.4197,38.118,-0.506,-0.4093,0.1131,204.7188
19:54:47:224,2.2159,-0.1598,11.9999,37.7415,-0.7928,-0.4975,0.0486,204.375
19:54:47:243,2.3608,-0.8122,13.1838,38.368,-0.8565,-0.2836,0.1346,204.2344
19:54:47:262,2.872,-0.811,12.7576,37.0536,-0.6895,0.052,0.3134,204.2969
19:54:47:281,3.4657,-0.1945,11.2277,38.869,-0.4213,0.1268,0.4247,204.3594
19:54:47:306,3.6932,0.659,9.468,37.5867,-0.2288,-0.0216,0.3589,204.3125
19:54:47:324,3.261,1.2695,8.0961,37.9135,-0.2093,-0.0754,0.1818,204.0469
19:54:47:341,2.4961,1.6454,7.0475,36.0955,-0.3329,0.0714,0.014,203.625
19:54:47:361,1.9682,1.9387,6.6105,36.5222,-0.5047,0.3454,-0.0827,203.25
19:54:47:380,1.7539,2.2595,6.6357,38.6539,-0.5577,0.4951,-0.1564,203.0781
19:54:47:405,1.4223,2.4367,6.6201,37.1677,-0.4266,0.4397,-0.2483,203.0938
19:54:47:422,0.9506,2.3792,6.2909,35.4816,-0.2429,0.2882,-0.325,203.3281
19:54:47:441,0.5999,2.3326,6.2238,36.8436,-0.1331,0.1734,-0.3503,203.5938
19:54:47:464,0.534,2.3038,6.1365,36.7652,-0.0999,0.1286,-0.3514,203.9375
19:54:47:528,0.5663,2.4235,6.6392,36.7393,-0.171,0.1047,-0.3743,204.3281
19:54:47:528,0.5939,2.3038,7.9944,37.1568,-0.2061,0.1236,-0.41,204.75
19:54:47:529,0.5316,2.2296,8.9604,35.8026,-0.1225,0.1878,-0.3932,205.1562
19:54:47:546,0.5627,2.5253,9.5015,35.479,-0.0019,0.0908,-0.3445,205.6094
19:54:47:561,1.4845,2.4235,9.9229,37.2676,0.0706,-0.2024,-0.2994,206.0938
19:54:47:581,2.459,2.0883,10.8782,36.4781,0.0495,-0.4458,-0.3652,206.5156
19:54:47:606,2.708,1.9674,11.4935,35.5952,0.0125,-0.4874,-0.4534,206.8438
19:54:47:623,2.7127,1.8214,12.4272,34.2688,-0.0543,-0.3864,-0.5831,207.4531
19:54:47:647,2.2375,1.017,13.3885,35.4192,-0.0746,-0.0927,-0.7019,208
19:54:47:661,1.518,0.1431,12.6128,36.4492,-0.0679,0.1822,-0.68,208.6562
19:54:47:681,1.0248,-0.3585,11.6407,35.6934,-0.2732,0.0567,-0.5133,209.4688
19:54:47:707,1.0164,-0.6674,12.4488,34.405,-0.5891,-0.2309,-0.3096,209.875
19:54:47:733,0.9351,-1.0624,13.5561,36.585,-0.743,-0.437,-0.1881,210.5781
19:54:47:741,1.1086,-1.6167,13.8709,34.8575,-0.813,-0.2687,-0.1149,211.0625
19:54:47:766,1.2068,-2.0213,13.2257,35.7573,-0.8666,0.2706,-0.0933,211.4375
19:54:47:781,0.9817,-2.0836,11.6252,35.5554,-0.7907,0.6014,-0.0808,211.7031
19:54:47:805,0.5233,-1.5772,9.8559,36.4854,-0.6895,0.5534,-0.0441,211.9219
19:54:47:829,0.0648,-1.0756,8.988,36.9818,-0.6533,0.2661,-0.0001,212.1094
19:54:47:847,-0.1711,-0.9116,9.1196,37.1807,-0.6072,0.0091,0.0822,212.2656
19:54:47:861,-0.1926,-0.5417,9.5123,37.1972,-0.4679,-0.0759,0.201,212.3594
19:54:47:883,-0.2118,-0.2592,9.5793,37.5562,-0.171,-0.0612,0.3024,212.3906
19:54:47:906,-0.2345,-0.2424,8.5762,37.6724,0.2029,-0.0242,0.4122,212.1719
19:54:47:921,0.0516,0.0557,7.0666,38.6938,0.4637,-0.0687,0.5237,211.8594
19:54:47:942,0.4071,0.3094,6.2538,37.8634,0.5638,-0.192,0.556,211.3594
19:54:47:961,0.6633,0.4028,5.9844,39.266,0.5476,-0.3212,0.4907,210.7188
19:54:47:981,0.7184,0.2771,6.3172,38.7623,0.4147,-0.3164,0.381,210.0156
19:54:48:008,0.7327,0.0389,7.2186,39.4394,0.2639,-0.2375,0.2867,209.4219
19:54:48:025,0.7148,-0.2675,8.3547,39.7622,0.1971,-0.2077,0.2241,208.9375
19:54:48:041,0.7028,-0.6554,9.4333,41.7314,0.2493,-0.2642,0.198,208.5781
19:54:48:061,0.795,-0.8493,10.3072,40.8999,0.3633,-0.3763,0.1972,208.3125
19:54:48:082,1.117,-1.1785,10.8482,41.9528,0.4671,-0.4248,0.1924,208.0625
19:54:48:109,1.4845,-1.4395,10.8159,41.7731,0.4075,-0.4045,0.1365,207.7812
19:54:48:125,1.882,-1.6466,11.3534,44.3128,0.1084,-0.2285,0.0612,207.5312
19:54:48:143,1.9263,-2.0452,12.4176,42.3586,-0.2112,0.0964,-0.0182,207.3125
19:54:48:166,1.8437,-2.4535,13.2676,43.2796,-0.3169,0.4559,-0.0251,207.2656
19:54:48:181,2.2471,-2.4726,10.859,43.2076,-0.208,0.7228,0.0092,207.25
19:54:48:203,1.8508,-2.0836,9.3962,43.9318,-0.1734,0.2687,-0.1037,207.3438
19:54:48:221,1.3732,-2.0297,9.5147,45.052,-0.4248,-0.2794,-0.1767,207.3594
19:54:48:244,1.2786,-2.3804,11.2469,46.6319,-0.6962,-0.5616,-0.1897,207.3906
19:54:48:261,1.5803,-2.8724,12.5912,45.3238,-0.7302,-0.3071,-0.0893,207.5156
19:54:48:281,2.0184,-2.6869,11.8418,45.527,-0.5036,0.1888,0.0958,208.0625
19:54:48:308,2.7283,-1.8537,10.1491,45.5837,-0.1893,0.396,0.2308,208.0625
19:54:48:325,3.1198,-0.8541,8.2757,45.8096,0.0149,0.2642,0.1738,208.25
19:54:48:342,2.3788,-0.0605,7.6149,46.4034,0.0147,-0.0482,-0.051,208.2031
19:54:48:361,1.4211,0.0006,7.7609,47.3983,-0.0844,-0.0921,-0.2153,207.9688
19:54:48:381,0.4897,-0.0497,7.8064,46.5429,-0.1617,0.1745,-0.2398,207.7812
19:54:48:401,-0.1938,0.0449,7.6089,48.3511,-0.1371,0.4578,-0.1112,207.8281
19:54:48:425,-0.2225,0.41,7.3371,46.4118,0.0045,0.5585,0.1048,208.0938
19:54:48:442,0.2479,0.835,7.0391,49.3074,0.2088,0.4767,0.2707,208.4844
19:54:48:461,0.783,1.1797,6.8116,48.5735,0.3662,0.3231,0.3506,208.5156
19:54:48:480,1.3624,1.4371,7.1516,47.6443,0.4512,0.1888,0.3525,208.2969
19:54:48:501,1.6006,1.5712,7.6927,48.2825,0.5348,0.0954,0.2574,207.9062
19:54:48:526,1.4163,1.3569,8.0494,50.0863,0.6003,0.053,0.1368,207.4844
19:54:48:544,0.8943,1.0912,7.9716,49.1831,0.5281,0.1737,0.0841,207.0781
19:54:48:562,0.2479,1.0924,8.3355,51.2761,0.3803,0.0466,0.1288,206.8125
19:54:48:582,-0.0502,1.0684,10.2294,50.8107,0.4344,-0.5579,0.2593,206.7188
19:54:48:609,0.4706,0.8218,11.4707,51.5782,0.6717,-1.0879,0.349,206.5781
19:54:48:626,0.8501,0.8003,11.9017,52.0567,0.5806,-0.8732,0.3458,206.4062
19:54:48:643,1.2619,0.9798,12.6607,53.5385,0.0722,0.0711,0.2928,206.0625
19:54:48:661,1.0284,0.9032,13.7249,54.2968,-0.3507,0.8584,0.1815,205.6406
19:54:48:681,0.2958,0.6171,14.1989,52.0302,-0.3465,0.9372,0.2164,205.1875
19:54:48:701,0.0372,0.7177,14.0792,52.4257,-0.1007,0.4424,0.3893,204.8438
19:54:48:723,0.4945,0.5597,14.1032,52.5622,0.1079,-0.1411,0.5102,204.5781
19:54:48:740,0.8788,0.0652,14.1606,53.2801,0.2312,-0.4341,0.528,204.25
19:54:48:760,0.88,-0.5932,14.3677,53.6354,0.379,-0.4493,0.4995,203.7188
19:54:48:780,0.9386,-1.2779,13.337,54.1571,0.62,-0.2543,0.483,203.125
19:54:48:800,1.0428,-1.6466,10.7621,54.1571,0.7337,0.0269,0.4817,202.5156
19:54:48:826,0.6873,-1.0696,8.4014,54.2393,0.5577,0.1361,0.4593,201.9062
19:54:48:844,0.218,-0.3645,7.5873,53.4126,0.2053,0.008,0.4367,201.2812
19:54:48:862,0.1282,-0.0748,8.0961,54.6636,-0.1108,-0.1859,0.4321,200.7031
19:54:48:881,-0.0298,-0.1,8.703,54.9141,-0.232,-0.2852,0.4612,200.1562
19:54:48:901,-0.2214,-0.1646,9.2477,55.8175,-0.1095,-0.4011,0.569,199.6562
19:54:48:921,-0.3937,-0.2855,9.5817,53.5512,0.2461,-0.4128,0.7634,199.2031
19:54:48:940,-0.4955,-0.1766,8.8431,54.6421,0.6597,-0.1904,1.0356,198.6562
19:54:48:962,-0.055,0.2436,7.6388,54.7955,0.9526,0.1252,1.2819,197.9219
19:54:48:980,0.6777,0.6291,6.1831,54.9514,1.1012,0.367,1.3728,196.9062
19:54:49:001,1.3133,0.9882,4.7825,54.3682,1.06,0.4762,1.3243,195.4531
19:54:49:025,1.7419,1.3078,4.0846,54.4081,0.8219,0.4756,1.1927,192.9062
19:54:49:044,1.7395,1.8405,4.3073,54.5995,0.481,0.4259,0.9962,191.3281
19:54:49:066,1.8844,2.323,5.1369,55.7245,0.1609,0.2562,0.7325,189.8438
19:54:49:080,2.5272,2.402,6.5123,54.8042,-0.1017,-0.028,0.39,188.6094
19:54:49:102,3.7351,2.6881,8.5474,55.4296,-0.2533,-0.1662,-0.0022,188.125
19:54:49:125,3.8799,2.3445,9.462,55.643,-0.2293,-0.1909,-0.5956,187.5
19:54:49:143,1.9981,0.7787,9.8307,56.3131,-0.3246,-0.1736,-1.0944,187.2812
19:54:49:162,0.7543,-1.1917,11.3917,56.3071,-0.5494,0.085,-1.0925,187.6406
19:54:49:183,0.5328,-1.7352,12.3554,56.3455,-0.6573,0.4117,-0.765,188.7031
19:54:49:207,1.7024,-1.5975,12.5697,55.7767,-0.6549,0.5231,-0.455,190.0156
19:54:49:225,2.9246,-1.491,11.6587,56.2984,-0.6586,0.5127,-0.3876,191.1562
19:54:49:243,3.3628,-1.1331,10.5023,57.2693,-0.9129,0.4184,-0.5602,191.8594
19:54:49:260,2.0112,-1.2695,11.6958,55.4209,-1.4472,0.2775,-0.9016,192.3281
19:54:49:282,0.5532,-2.5672,14.7161,56.7864,-1.7556,0.4735,-1.0459,192.875
19:54:49:310,-0.134,-3.3573,15.73,55.7857,-1.5326,1.069,-0.8622,194.4375
19:54:49:327,0.2024,-3.1059,14.2791,55.4585,-1.0392,1.4528,-0.4856,195.7031
19:54:49:345,1.1003,-1.9112,11.776,54.6618,-0.6112,1.3891,-0.2161,196.8281
19:54:49:361,1.4594,-0.6889,10.2653,54.3666,-0.3427,0.9132,-0.226,197.4688
19:54:49:381,1.0021,-0.0569,9.4405,55.3032,-0.0887,0.3681,-0.3988,197.7812
19:54:49:405,0.0564,0.0269,8.9257,57.6978,0.1542,0.0661,-0.5208,198.0938
19:54:49:426,-0.529,0.1478,8.1895,55.6904,0.3691,0.1012,-0.5024,198.5625
19:54:49:443,-0.134,0.5668,7.2857,54.0968,0.5425,0.2496,-0.4366,199.125
19:54:49:462,0.4598,0.9535,6.4872,53.6845,0.6645,0.3537,-0.4798,199.7031
19:54:49:481,0.2731,1.0157,5.6277,55.143,0.731,0.3247,-0.6102,200.1875
19:54:49:501,-0.3123,0.8745,5.1058,55.4545,0.6879,0.2064,-0.6832,200.7344
19:54:49:527,-0.4835,0.6794,5.4038,55.2266,0.5492,0.151,-0.6443,201.4062
19:54:49:543,-0.4775,0.8194,6.3208,56.8781,0.4149,0.0938,-0.5719,202.1875
19:54:49:606,-0.3734,1.0852,7.828,55.3747,0.3875,-0.0849,-0.5037,202.5625
19:54:49:606,-0.3171,1.236,9.9277,55.3311,0.8301,-0.6511,-0.4742,203.2656
19:54:49:606,-0.5984,1.418,10.4185,55.8503,0.9731,-0.8421,-0.5067,204.125
19:54:49:627,-0.304,1.722,12.2357,55.4212,0.9588,-0.9388,-0.5447,204.6562
19:54:49:640,-0.1459,2.0596,15.147,54.8813,1.1601,-1.1601,-0.6081,205.1875
19:54:49:661,-1.8446,2.2356,16.052,55.1238,1.7111,-1.4709,-0.614,205.7656
19:54:49:680,-2.661,1.9208,14.4886,54.4349,2.0224,-1.3622,-0.4315,206.3906
19:54:49:702,-1.6698,1.5987,12.256,54.5006,1.7319,-0.5017,-0.2038,207.7812
19:54:49:725,-1.0138,2.4056,10.2389,54.6586,1.1023,0.485,-0.0856,207.7812
19:54:49:744,-0.8929,2.8617,9.4381,55.7173,0.5239,0.796,-0.093,208.25
19:54:49:759,-1.3347,2.3266,9.7744,56.5529,0.1934,0.4133,-0.1168,208.4062
19:54:49:779,-1.5477,1.2264,10.8997,54.4229,0.0727,-0.054,-0.0179,208.3438
19:54:49:800,-1.2461,0.3071,10.9392,53.4546,0.1191,-0.1212,0.1658,208.3125
19:54:49:827,-0.9265,0.1838,9.462,55.2217,0.0884,-0.0397,0.3514,208.3594
19:54:49:844,-0.1483,0.7261,8.897,54.2565,-0.1712,-0.1076,0.4995,208.3906
19:54:49:862,0.5244,1.1905,9.4213,53.3867,-0.3955,-0.2309,0.557,208.0312
19:54:49:880,0.6322,1.2863,9.8451,53.7826,-0.3656,-0.363,0.5626,207.5469
19:54:49:900,0.1306,1.2061,9.4081,54.781,-0.1435,-0.3768,0.6076,207.0156
19:54:49:926,-0.2094,1.0756,8.4505,52.962,0.114,-0.2226,0.7608,206.4375
19:54:49:943,-0.0609,1.0145,7.3886,53.8395,0.3494,-0.0258,0.969,205.8594
19:54:49:962,0.5627,1.327,6.4226,54.4284,0.5436,0.0469,1.1717,205.125
19:54:49:981,1.4426,1.8681,5.8109,54.6638,0.6626,-0.1086,1.2532,204.1875
19:54:50:008,2.0914,2.2847,5.6002,51.9425,0.6914,-0.3425,1.1592,202.9062
19:54:50:026,2.4769,2.5624,5.9928,53.3775,0.6253,-0.4668,0.9483,201.4219
19:54:50:042,2.538,2.4439,6.3148,52.8941,0.4855,-0.3856,0.6694,200.6875
19:54:50:060,1.9035,2.2344,6.5542,54.2432,0.2432,-0.1734,0.43,199.4062
19:54:50:080,1.3816,2.0464,7.2821,52.1583,-0.0527,-0.0229,0.3267,198.3281
19:54:50:100,1.1134,2.0728,8.6599,52.2926,-0.2314,-0.0066,0.2888,197.5625
19:54:50:125,1.2978,2.1302,9.8822,51.6223,-0.2008,-0.1537,0.2502,197.0781
19:54:50:144,1.7084,2.2368,10.5035,52.1779,-0.082,-0.3414,0.1584,196.7188
19:54:50:163,1.8532,2.2081,10.6878,53.8914,-0.0706,-0.4429,0.0031,196.2969
19:54:50:180,1.8748,1.904,11.0793,52.6796,-0.2581,-0.3664,-0.1634,196.1094
19:54:50:200,1.9706,1.4635,11.6766,51.8697,-0.5353,-0.1052,-0.305,196.0938
19:54:50:225,2.192,0.8266,11.764,51.4753,-0.7718,0.1406,-0.418,196.2656
19:54:50:243,2.3572,0.5405,11.5689,51.9068,-1.029,0.1436,-0.4997,196.6094
19:54:50:261,2.7642,0.3849,12.3255,50.6859,-1.395,-0.2085,-0.6228,197.125
19:54:50:284,2.9953,-0.4926,15.6498,51.4644,-1.7188,-0.3537,-0.8265,197.75
19:54:50:310,2.0831,-1.3904,17.6238,49.6151,-1.6152,0.4139,-0.9666,198.5469
19:54:50:327,0.8501,-1.9974,15.6091,51.6503,-1.0956,1.2829,-0.802,199.5781
19:54:50:345,0.643,-1.6478,12.2465,50.6725,-0.527,1.4664,-0.308,200.875
19:54:50:362,1.6737,-0.4782,9.7733,50.53,-0.1113,0.9396,0.1647,202.0625
19:54:50:380,2.7942,0.8637,8.6169,52.0986,0.1143,0.2248,0.291,202.6719
19:54:50:401,2.848,1.6646,8.0973,50.2925,0.1931,-0.0839,0.1386,202.6875
19:54:50:426,2.1872,1.6694,7.409,51.2413,0.1808,0.0586,-0.0494,202.3281
19:54:50:443,1.2726,1.7077,6.6536,51.9149,0.1651,0.3334,-0.0984,202
19:54:50:460,0.7651,1.8741,6.0431,51.2413,0.2141,0.4663,-0.0206,202.0312
19:54:50:481,0.6406,2.1374,5.6528,52.3475,0.338,0.3737,0.0955,202.1094
19:54:50:501,0.8309,2.4331,5.3967,51.6746,0.4927,0.1388,0.2066,202.0781
19:54:50:527,1.39,2.7432,5.192,51.4563,0.6173,-0.1494,0.2699,202.0312
19:54:50:544,2.0615,3.1071,5.1716,50.8326,0.6544,-0.4399,0.2186,201.7969
19:54:50:561,2.4673,3.5081,5.599,50.8917,0.5524,-0.6844,0.0441,201.4688
19:54:50:580,2.6756,3.7918,6.8284,51.5834,0.3681,-0.7728,-0.2196,201.1719
19:54:50:600,2.4841,3.7356,8.1452,52.1692,0.2024,-0.7337,-0.5197,201
19:54:50:622,1.8377,3.5368,9.2944,52.8257,0.0959,-0.6559,-0.7791,201.125
19:54:50:640,1.0799,3.1322,10.2365,52.1755,-0.0112,-0.4831,-0.9288,201.5781
19:54:50:662,0.0827,2.8569,11.3822,53.1134,-0.1374,-0.2263,-0.9288,202.3906
19:54:50:681,-0.438,2.5516,12.5673,52.0842,-0.1867,0.0069,-0.7916,203.4375
19:54:50:699,-0.535,2.2966,13.2987,52.0015,-0.1302,0.2064,-0.5916,204.5781
19:54:50:726,-0.1759,2.3146,13.0701,50.6961,-0.0908,0.4173,-0.4116,205.9844
19:54:50:740,-0.1112,2.6642,12.5433,52.4978,-0.2202,0.612,-0.2949,206.6719
19:54:50:763,-0.0897,3.0484,12.8642,52.1499,-0.5031,0.6749,-0.227,207.0938
19:54:50:779,-0.2968,2.7156,14.5102,52.3116,-0.7063,0.583,-0.2177,207.375
19:54:50:800,-0.4811,1.2444,16.3968,53.4349,-0.526,0.4168,-0.1514,207.6094
19:54:50:824,-0.6356,-0.2544,16.143,53.7514,0.0932,0.3617,0.0034,207.8594
19:54:50:846,-0.5206,-1.084,12.9168,53.0512,0.6826,0.4357,0.251,208.0156
19:54:50:860,0.376,-0.835,9.2956,52.1836,0.8088,0.4959,0.4382,207.9688
19:54:50:885,1.105,0.0162,6.9888,53.9598,0.4826,0.4125,0.3698,207.5938
19:54:50:909,0.2826,0.0652,7.7382,52.2741,-0.5084,0.3745,-0.1082,206.5312
19:54:50:922,-0.9528,-0.3298,8.9089,53.0692,-0.6341,0.6418,-0.1016,206.3594
19:54:50:941,-1.5932,-0.3956,9.0909,53.4722,-0.4155,0.9438,0.1155,206.4688
19:54:50:963,-1.5226,-0.082,7.822,53.062,-0.1001,1.1132,0.3826,206.5469
19:54:50:986,-1.2018,0.3933,6.984,53.062,0.0772,1.1185,0.6159,206.4844
19:54:51:008,-0.6954,0.5908,6.3591,53.1047,0.2288,1.0208,0.7909,206.4844
19:54:51:026,-0.1495,1.0876,5.5295,53.1047,0.3425,0.787,0.9062,205.7969
19:54:51:043,0.449,1.6394,5.0603,53.1587,0.3454,0.4453,0.9059,204.0156
19:54:51:062,0.8812,1.9998,5.2829,52.928,0.2621,0.0301,0.7813,202.9062
19:54:51:084,1.202,2.1075,6.1496,53.2614,0.1638,-0.3662,0.5762,201.875
19:54:51:099,1.0177,2.1051,7.4676,53.5249,0.097,-0.6101,0.3341,201.875
19:54:51:121,0.619,1.6718,8.5869,53.8931,0.0541,-0.6112,0.1243,200.9844
19:54:51:142,0.0803,1.2588,9.5219,53.364,-0.049,-0.3257,0.022,200.3594
19:54:51:160,-0.1795,1.2061,10.4161,53.3133,-0.1853,0.0352,-0.0169,200.0469
19:54:51:179,0.0264,1.2276,11.5677,52.7546,-0.2477,0.1872,-0.0949,199.9844
19:54:51:201,0.0648,1.0864,12.2728,54.727,-0.1784,0.1388,-0.2494,199.9844
19:54:51:225,-0.1352,0.5333,12.5972,57.4768,-0.1076,0.0445,-0.3852,200
19:54:51:243,-0.2836,0.1215,12.4572,55.0822,-0.1116,0.0573,-0.4459,200.0938
19:54:51:260,0.0923,0.2759,11.8203,53.7962,-0.2578,0.0426,-0.517,200.3594
19:54:51:278,0.2096,0.9092,12.2919,53.1292,-0.6027,-0.2727,-0.7367,201.2812
19:54:51:301,-0.2908,0.1467,15.6486,55.4269,-0.9385,-0.5129,-1.0286,201.5625
19:54:51:325,-1.8614,-1.5221,18.864,54.3858,-0.8115,-0.0884,-1.0462,202.25
19:54:51:343,-2.4408,-2.2547,17.7902,54.1387,-0.2027,0.7819,-0.5961,203.3281
19:54:51:361,-0.9935,-1.6682,13.3466,54.3237,0.4674,1.2389,0.0311,204.5625
19:54:51:379,1.4306,-0.2819,9.0873,54.8215,0.8293,0.9433,0.4108,205.5469
19:54:51:399,3.2802,1.2767,6.9672,53.5364,0.8402,0.2133,0.32,205.7812
19:54:51:421,3.4466,1.9519,6.7051,54.9223,0.6304,-0.2961,-0.1274,205.3906
19:54:51:443,2.5416,1.6706,7.1755,53.5532,0.3792,-0.274,-0.5628,204.8906
19:54:51:462,1.5157,1.2097,7.2354,53.3445,0.241,0.1169,-0.8068,204.7812
19:54:51:480,0.6549,1.0672,6.5099,53.3479,0.2133,0.4882,-0.8667,205.25
19:54:51:500,0.2551,1.2695,5.9078,52.8243,0.2527,0.5404,-0.8028,205.6406
19:54:51:526,0.2216,1.5425,5.5535,52.0819,0.3436,0.2967,-0.7176,206.5
19:54:51:543,0.3784,1.8765,5.6037,52.0946,0.4067,-0.061,-0.6576,207.4531
19:54:51:560,0.6765,2.1662,6.2741,53.4924,0.4245,-0.3736,-0.6574,208.3281
19:54:51:579,0.8943,2.3002,7.1636,53.2684,0.4165,-0.4879,-0.7357,209.0781
19:54:51:600,0.9327,2.3996,8.071,54.2655,0.3963,-0.3712,-0.8489,209.8594
19:54:51:627,0.801,2.6259,8.6923,52.5524,0.429,-0.1694,-0.9748,211.125
19:54:51:696,0.4921,2.7061,8.8108,52.8642,0.4794,-0.0359,-1.1407,212.0469
19:54:51:697,-0.1268,2.5827,8.8718,52.5537,0.4551,0.1305,-1.2696,213.1406
19:54:51:697,-0.7948,2.6067,8.9006,52.3341,0.3952,0.2932,-1.3194,214.375
19:54:51:717,-1.288,2.7408,8.7497,51.4678,0.2884,0.3444,-1.3434,215.7031
19:54:51:721,-1.756,2.6678,9.2178,51.2568,0.1095,0.2855,-1.3618,217.1875
19:54:51:745,-1.9356,2.1757,10.106,51.9855,-0.0927,0.2054,-1.3237,218.6875
19:54:51:767,-1.7417,1.5748,11.4624,51.6111,-0.2716,0.1867,-1.2103,220.125
19:54:51:778,-1.7812,1.4156,12.705,49.9283,-0.3249,0.2203,-1.0654,221.6406
19:54:51:801,-1.6196,1.3461,13.5728,50.4776,-0.2466,0.187,-0.92,223.0469
19:54:51:825,-1.6387,1.1391,13.9631,51.872,-0.1193,0.0991,-0.839,224.3125
19:54:51:842,-1.2473,0.4926,14.5078,50.031,0.0051,-0.0026,-0.778,225.3281
19:54:51:859,-0.5015,-0.8158,14.6814,50.5181,0.2605,0.0019,-0.7804,226.2812
19:54:51:886,-0.1687,-1.3785,12.7133,49.4187,0.6187,0.0544,-0.7945,227.6406
19:54:51:898,0.4167,-1.2037,9.978,49.8309,0.7303,-0.0815,-0.8273,228.5156
19:54:51:920,0.613,-0.7153,8.7437,49.0411,0.4871,-0.3877,-0.9676,229.4844
19:54:51:942,0.0444,-0.5154,9.5626,49.7005,0.1574,-0.6389,-1.1482,230.5156
19:54:51:968,-0.6918,-0.6758,10.768,48.842,0.0048,-0.5973,-1.1823,231.0312
19:54:51:978,-1.1683,-0.6267,10.8171,47.6924,0.1292,-0.3776,-1.0028,232.3594
19:54:52:000,-1.1335,0.0329,9.1268,48.3525,0.408,-0.1702,-0.7058,233.8281
19:54:52:026,-0.7529,1.1391,6.9349,46.9242,0.5798,-0.1526,-0.4699,235.1719
19:54:52:046,-0.2716,2.2224,5.5966,48.8917,0.5694,-0.3153,-0.382,236.1719
19:54:52:061,0.3437,2.8389,5.3895,47.1893,0.4346,-0.5273,-0.46,236.8906
19:54:52:079,0.4897,2.8593,5.9318,46.9163,0.2506,-0.6162,-0.6427,237.4375
19:54:52:099,0.1725,2.6606,7.0858,48.1351,0.1233,-0.5318,-0.7865,237.9844
19:54:52:126,0.0827,2.6522,7.7873,47.7371,0.1747,-0.3824,-0.8747,238.7344
19:54:52:143,-0.1112,2.8892,7.7298,46.4825,0.2959,-0.3547,-0.9671,240.1875
19:54:52:160,-0.1998,2.8856,7.7801,45.9439,0.3223,-0.3811,-1.0566,241.2031
19:54:52:179,-0.6559,2.7444,7.9561,47.0774,0.2914,-0.3829,-1.1325,242.3906
19:54:52:200,-1.2042,2.7515,8.0171,45.1601,0.2282,-0.4333,-1.1104,243.6875
19:54:52:220,-0.9073,3.0053,8.715,44.6883,0.1382,-0.624,-1.0201,245
19:54:52:243,-0.134,2.9598,9.7661,45.1656,0.057,-0.878,-1.0374,246.3594
19:54:52:258,0.2096,2.3218,10.9464,44.7365,-0.0501,-1.0823,-1.1405,247.6562
19:54:52:279,0.0408,1.3438,12.5469,43.7416,-0.2027,-1.0661,-1.1913,248.9844
19:54:52:300,-0.134,0.1682,13.7309,45.706,-0.2525,-0.7808,-1.1285,250.4062
19:54:52:328,-0.0538,-0.5321,13.5058,46.257,-0.1808,-0.4096,-0.961,251.9375
19:54:52:350,0.7794,-0.5932,12.0489,44.0461,-0.1451,-0.2282,-0.8204,253.3438
19:54:52:359,2.2842,-0.4352,10.9428,44.5605,-0.3502,-0.3063,-0.9051,254.4531
19:54:52:381,2.6996,-1.4371,14.6179,43.677,-1.0469,-0.3933,-1.7146,255.4219
19:54:52:400,1.5731,-2.4175,15.0573,42.6676,-0.7182,0.0967,-1.8848,255.4219
19:54:52:428,0.941,-2.718,12.0849,43.9965,-0.1473,0.4456,-1.7133,256.4844
19:54:52:439,1.4989,-1.9124,8.6085,42.453,0.2123,0.3579,-1.4151,257.9219
19:54:52:459,2.0998,-0.4471,6.759,42.3046,0.2815,-0.2389,-1.3328,262.0156
19:54:52:486,2.2662,0.2604,6.7003,42.5824,0.1454,-0.8495,-1.5365,263.9219
19:54:52:508,1.4953,-0.0329,7.3479,41.7019,-0.1142,-0.8767,-1.7559,267
19:54:52:520,0.4011,-0.0425,7.737,40.3328,-0.3007,-0.4304,-1.7719,267
19:54:52:545,-0.2597,0.2903,7.6101,39.5738,-0.3158,-0.0112,-1.6497,268.8594
19:54:52:563,-0.4117,0.6722,7.215,42.1049,-0.1673,0.093,-1.4731,270.875
19:54:52:579,-0.1507,1.1726,6.8164,41.2065,0.0637,-0.1201,-1.3141,272.9375
19:54:52:599,0.4143,1.5688,6.5902,40.6303,0.241,-0.3747,-1.2518,274.8125
19:54:52:619,0.8872,1.7556,6.5351,39.3,0.269,-0.4328,-1.3192,276.3906
19:54:52:643,0.9135,1.8334,6.9301,39.8753,0.1609,-0.2778,-1.4763,277.9219
19:54:52:661,0.7208,1.7591,7.7801,40.6648,0.049,-0.0684,-1.6132,279.4062
19:54:52:679,0.4203,1.7651,8.6588,38.2236,0.0471,-0.0056,-1.7075,280.9688
19:54:52:697,-0.4237,1.7544,9.729,37.1893,0.147,-0.0996,-1.774,282.625
19:54:52:719,-1.3442,1.2875,10.4448,38.4675,0.3468,-0.265,-1.7543,284.4844
19:54:52:747,-2.1068,1.0995,10.4113,39.9784,0.4211,-0.2748,-1.5985,287.4531
19:54:52:766,-2.4683,1.2623,10.938,36.9458,0.3073,-0.2176,-1.3743,289.4219
19:54:52:778,-2.7413,1.3617,11.8622,37.7855,0.1886,-0.1723,-1.1881,291.4062
19:54:52:799,-3.0717,1.1762,12.59,38.6757,0.1135,-0.0948,-1.0044,293.1562
19:54:52:828,-3.1985,0.8853,12.8259,36.2017,0.0682,0.0298,-0.7591,294.5781
19:54:52:846,-3.1459,0.9834,12.5709,37.0609,0.0477,0.0908,-0.4811,295.8594
19:54:52:864,-2.7365,1.1474,12.0082,36.8384,-0.0013,-0.0248,-0.2667,296.8906
19:54:52:881,-2.3199,1.2995,12.3386,36.792,-0.1422,-0.3025,-0.1346,297.5625
19:54:52:900,-1.7345,1.0409,14.011,34.2491,-0.22,-0.6013,-0.0733,297.9844
19:54:52:926,-1.4987,0.2089,15.6905,36.5274,-0.0743,-0.6141,-0.0406,298.2031
19:54:52:943,-1.4867,-0.6626,15.3601,34.5743,0.3081,-0.2674,0.0803,298.2812
19:54:52:959,-1.039,-0.5405,12.687,34.8983,0.6426,0.0394,0.2766,298.4062
19:54:52:980,0.0839,0.0688,10.3359,33.1431,0.7316,-0.0399,0.361,298.5156
19:54:52:999,0.8489,0.6662,9.0957,32.8078,0.6408,-0.2937,0.2412,298.4688
19:54:53:020,1.0272,1.0145,8.6839,33.433,0.4312,-0.4115,0.0414,298.1875
19:54:53:043,0.6537,0.9942,8.7605,31.9602,0.2639,-0.3057,-0.1205,297.6875
19:54:53:060,-0.1447,0.7799,8.4062,32.8103,0.2751,-0.0892,-0.1437,297.5938
19:54:53:081,-0.8414,0.6063,7.4521,32.1968,0.4104,0.114,0.018,297.7188
19:54:53:099,-1.0246,0.6841,6.3244,33.1278,0.5404,0.2307,0.2934,297.9219
19:54:53:119,-0.6391,1.0995,5.6828,31.412,0.6024,0.1968,0.5485,298.0312
19:54:53:145,-0.1184,1.4551,5.2901,31.3654,0.6051,0.0514,0.6691,297.8438
19:54:53:162,0.218,1.6143,5.5188,31.3654,0.5382,-0.1262,0.6939,297.3594
19:54:53:178,0.4801,1.6011,6.3902,32.747,0.4301,-0.1864,0.6897,296.6406
19:54:53:199,0.4514,1.5221,7.3623,31.3554,0.3361,-0.0865,0.6779,295.875
19:54:53:218,0.5053,1.7867,8.1105,31.5893,0.2935,0.061,0.6726,295.1719
19:54:53:243,0.9183,2.1207,8.6755,30.1636,0.3313,0.061,0.5733,294.4219
19:54:53:260,1.2188,2.1434,8.8228,29.8594,0.4168,-0.0447,0.3773,293.6562
19:54:53:278,0.8058,1.898,8.7557,29.9288,0.4352,-0.1728,0.1719,292.9219
19:54:53:298,0.4059,1.5497,8.8455,31.2326,0.3188,-0.2354,0.0585,292.4062
19:54:53:320,0.2551,1.1067,9.5745,30.6841,0.1129,-0.2599,0.0372,292.0781
19:54:53:346,0.6154,0.908,10.6519,30.738,-0.065,-0.2916,0.0705,292.0625
19:54:53:364,1.4797,0.683,11.3391,31.7405,-0.1981,-0.3483,0.054,292.0781
19:54:53:378,2.2171,0.5273,11.4671,31.4211,-0.3574,-0.3848,-0.0587,292.0469
19:54:53:398,2.459,0.7021,11.3798,31.8514,-0.5981,-0.4876,-0.2787,292.0625
19:54:53:420,2.1262,0.6303,12.177,31.3391,-1.0059,-0.6357,-0.5748,292.1875
19:54:53:441,0.7734,-0.1598,14.8621,31.9456,-1.3585,-0.4732,-0.7618,292.6094
19:54:53:458,-0.0993,-1.2504,16.5237,32.9922,-1.2336,0.2109,-0.6145,292.9688
19:54:53:482,-0.1232,-1.2995,14.3569,32.906,-0.7348,0.8794,-0.1916,293.8906
19:54:53:499,0.9506,-0.1837,11.1344,32.0986,-0.2115,0.7617,0.271,294.7188
19:54:53:519,2.4985,1.1055,8.9006,33.8337,0.1651,-0.0511,0.4263,295.125
19:54:53:544,2.9486,1.752,7.822,33.9829,0.2762,-0.7081,0.2359,294.9375
19:54:53:562,2.4542,1.7292,7.4533,32.1665,0.1289,-0.7281,-0.0142,294.2344
19:54:53:579,1.8113,1.6514,7.1755,33.5747,-0.1198,-0.2727,-0.1996,294.0625
19:54:53:599,0.8405,1.722,6.674,33.4782,-0.3763,0.2935,-0.2949,294.1875
19:54:53:619,0.2635,1.7903,6.7865,35.4989,-0.5009,0.6104,-0.2576,294.4375
19:54:53:643,0.2982,1.995,7.2881,33.9205,-0.3238,0.5526,-0.1612,294.7344
19:54:53:661,0.7052,2.323,7.0367,33.9805,0.0418,0.2993,-0.105,294.9531
19:54:53:679,0.9949,2.7671,6.4788,36.2798,0.2549,0.1329,-0.1351,295.0625
19:54:53:768,1.1374,3.0736,6.5866,35.0873,0.2866,0.1228,-0.214,295.1406
19:54:53:769,0.8943,3.2747,6.7757,36.0621,0.2575,0.2021,-0.2872,295.2812
19:54:53:769,0.7818,3.4064,7.2019,36.3835,0.2378,0.1334,-0.3202,295.5156
19:54:53:770,0.5807,3.4542,8.0279,36.333,0.2083,-0.0383,-0.3628,295.7969
19:54:53:791,-0.3866,2.7623,10.7249,39.2374,0.1369,-0.2458,-0.3682,296.1562
19:54:53:798,-1.2928,2.2523,12.0597,37.4588,0.1667,-0.3244,-0.1969,296.1562
19:54:53:819,-1.3275,1.734,13.3526,39.8664,0.297,-0.457,0.0795,297.0312
19:54:53:844,-0.511,1.4204,13.5154,39.2188,0.4277,-0.4301,0.3427,297.2812
19:54:53:858,0.2778,1.4934,12.6331,38.2555,0.3766,-0.3433,0.5032,297.7656
19:54:53:877,0.8764,1.6706,12.4679,39.5994,0.1449,-0.3867,0.552,297.75
19:54:53:898,1.4917,1.7843,13.015,39.4579,-0.0727,-0.4408,0.4601,297.4375
19:54:53:919,1.4857,1.4515,13.4436,40.7393,-0.2282,-0.355,0.2686,296.9219
19:54:53:944,1.2463,0.7931,14.1774,42.6791,-0.2136,-0.2226,0.1304,296.3438
19:54:53:962,0.9291,0.0533,13.7704,42.2642,0.021,0.0594,0.0537,295.9219
19:54:53:984,0.3389,-0.5716,11.5869,42.4127,0.244,0.306,0.0598,295.6719
19:54:53:997,0.1486,-0.659,9.4141,42.4411,0.2264,0.3286,0.1813,295.5625
19:54:54:018,0.6178,-0.1443,8.2457,42.9469,0.0013,0.2378,0.2872,295.5
19:54:54:046,1.026,0.4627,8.0674,42.6784,-0.2927,0.1497,0.2521,295.375
19:54:54:063,0.9542,0.7368,8.3906,43.0414,-0.4916,0.2003,0.1568,295.1094
19:54:54:080,0.6837,0.8709,8.4002,44.1275,-0.4991,0.3422,0.1128,294.7656
19:54:54:097,0.5352,0.9583,7.7944,43.8541,-0.3595,0.4754,0.1429,294.4531
19:54:54:118,0.3928,1.1331,6.6704,44.8302,-0.2064,0.5207,0.2281,294.1562
19:54:54:144,0.3724,1.4982,5.9689,44.5227,-0.1294,0.4722,0.324,293.9844
19:54:54:160,0.4203,1.7268,5.6864,46.7701,-0.0985,0.3659,0.386,293.7031
19:54:54:178,0.3724,2.0141,6.091,45.9571,-0.0871,0.2304,0.4244,293.3125
19:54:54:198,0.6501,1.989,6.8511,44.6921,-0.0181,0.0589,0.446,292.8594
19:54:54:217,0.9255,2.0692,7.6292,45.3789,0.0956,-0.0455,0.4265,292.3438
19:54:54:242,0.9422,2.0979,8.2422,46.3447,0.2251,-0.1252,0.3706,291.8281
19:54:54:263,0.7363,2.1769,8.6623,47.7825,0.3124,-0.18,0.307,291.3281
19:54:54:281,0.8118,2.2655,8.9808,46.4654,0.3492,-0.2037,0.259,290.9062
19:54:54:299,1.0583,2.3804,9.2717,48.2195,0.2794,-0.2517,0.1373,290.5312
19:54:54:321,1.0895,2.2332,10.1611,47.527,0.1239,-0.3204,-0.0414,290.375
19:54:54:345,1.0212,1.7675,11.2349,49.5225,-0.0224,-0.3752,-0.218,290.125
19:54:54:358,0.704,1.0576,12.2656,48.9945,-0.143,-0.3499,-0.3389,290.0156
19:54:54:377,0.4454,0.2209,12.8773,49.4232,-0.1952,-0.2064,-0.3263,290.1094
19:54:54:397,0.692,-0.3585,12.4619,47.3873,-0.1808,-0.0639,-0.2212,290.4062
19:54:54:419,1.123,-0.4579,11.5988,49.2868,-0.2104,-0.1015,-0.1674,291.0469
19:54:54:443,1.6258,-0.58,10.8123,49.7199,-0.3752,-0.2698,-0.2451,291.3906
19:54:54:460,1.4498,-0.7093,11.6766,49.3373,-0.7041,-0.5177,-0.4097,291.6094
19:54:54:478,0.9159,-1.3126,14.43,50.493,-0.8501,-0.5433,-0.4896,291.8438
19:54:54:499,0.716,-1.8609,15.7228,49.7166,-0.5007,-0.1782,-0.3903,292.2812
19:54:54:519,1.105,-1.7256,13.0282,52.0631,0.065,0.2834,-0.1695,292.9219
19:54:54:543,2.0962,-0.8565,9.3758,49.7633,0.2879,0.3851,-0.0006,293.4844
19:54:54:564,3.3293,0.1778,7.2198,50.2485,0.0847,0.1763,-0.064,293.8125
19:54:54:576,3.5555,1.072,7.0391,50.0747,-0.3225,-0.1156,-0.3671,293.8281
19:54:54:601,2.6266,1.1175,8.0734,50.4214,-0.6354,-0.2181,-0.728,293.7812
19:54:54:626,1.2104,0.6458,8.6983,50.9784,-0.7084,-0.0463,-0.9075,294
19:54:54:642,-0.2082,0.5082,8.6456,50.1419,-0.6021,0.3039,-0.8092,294.6719
19:54:54:661,-0.8115,0.8398,7.8567,51.891,-0.3798,0.5364,-0.5359,295.6719
19:54:54:676,-0.9648,1.3186,7.0858,51.3688,-0.0972,0.452,-0.2518,296.6406
19:54:54:699,-0.5158,1.7125,6.5949,53.5975,0.1683,0.1888,0.0095,297.625
19:54:54:716,0.1593,2.3254,6.3807,51.8671,0.3531,-0.0314,0.1576,297.8594
19:54:54:738,0.4263,2.9191,6.5339,52.4272,0.4019,-0.1254,0.181,297.8438
19:54:54:761,0.6561,3.477,7.6927,51.2792,0.4053,-0.1787,0.2079,297.6562
19:54:54:776,1.7539,3.799,9.225,52.5154,0.5268,-0.1872,0.1845,297.4688
19:54:54:797,2.4338,4.1091,9.7936,50.8299,0.7406,-0.18,-0.0126,297.2656
19:54:54:816,2.3069,4.2144,10.0546,50.4926,0.8418,-0.3204,-0.3133,297.0625
19:54:54:841,1.4366,3.5704,11.1272,53.4992,0.8229,-0.5116,-0.6039,297.0469
19:54:54:859,0.455,2.4786,12.6212,51.2068,0.7691,-0.4256,-0.6907,297.25
19:54:54:877,0.121,1.4838,13.8637,50.8743,0.7425,-0.0229,-0.5386,297.8125
19:54:54:897,0.3784,1.2528,13.9535,51.4579,0.7936,0.4903,-0.2891,298.6562
19:54:54:916,0.856,1.3114,13.0378,52.3131,0.8437,0.8088,-0.1303,299.4062
19:54:54:938,1.135,1.2145,11.8071,52.822,0.812,0.8725,-0.1085,299.8125
19:54:54:956,1.0021,1.412,10.8183,49.5982,0.6069,0.8285,-0.1663,299.9062
19:54:54:983,0.4562,1.5951,11.108,51.2596,0.2285,0.7044,-0.2851,299.8594
19:54:54:997,-0.1567,1.1774,12.5613,50.521,-0.1321,0.7489,-0.3639,299.9062
19:54:55:019,-0.8175,0.4004,13.4567,50.4634,-0.2059,1.0576,-0.3346,300.0938
19:54:55:040,-1.7297,-0.0533,12.2644,51.624,0.036,1.2261,-0.1791,300.3594
19:54:55:061,-2.1822,-0.1035,9.7409,50.7045,0.2826,0.8951,0.0907,300.5156
19:54:55:078,-1.8698,0.0126,8.0051,49.977,0.306,0.2056,0.3815,300.4844
19:54:55:097,-0.9169,0.4435,7.9944,50.2122,0.1529,-0.4929,0.5866,300.2344
19:54:55:117,0.2323,0.9391,9.1364,50.4591,0.0091,-0.7944,0.6308,299.7656
19:54:55:142,0.7914,1.1857,9.2238,50.5465,0.0013,-0.5965,0.5408,299.25
19:54:55:160,0.5137,1.2588,8.1212,50.3314,0.0562,-0.2128,0.4433,298.6875
19:54:55:179,0.2611,1.8094,5.5307,50.27,0.1326,0.0674,0.5435,298.1875
19:54:55:197,0.9614,2.4379,5.6684,48.4168,0.1891,-0.1387,0.618,298.1875
19:54:55:220,1.7874,2.7982,5.8719,50.9905,0.3803,-0.3664,0.5972,297.2188
19:54:55:242,1.9777,2.9479,5.5068,49.9503,0.5313,-0.4804,0.4766,296.25
19:54:55:258,1.9215,2.9036,5.5367,48.3506,0.477,-0.3787,0.3504,296.25
19:54:55:277,1.8389,2.9443,6.2693,49.9215,0.2938,-0.1593,0.2199,295.3594
19:54:55:296,1.5085,2.9503,7.3228,48.5928,0.1422,0.0906,0.0755,294.9375
19:54:55:316,1.0476,2.8964,8.0195,49.1283,0.0999,0.2509,-0.0299,294.625
19:54:55:339,0.9841,2.7527,8.3104,48.0882,0.1358,0.2597,-0.0869,294.4219
19:54:55:361,0.9183,2.7264,8.2182,48.0882,0.1516,0.1111,-0.1644,294.3281
19:54:55:380,0.7794,2.7599,8.6169,47.9392,0.0357,-0.2146,-0.2614,294.2969
19:54:55:404,0.9458,2.5456,9.9744,48.8727,-0.1856,-0.5369,-0.39,294.3438
19:54:55:415,0.868,1.819,11.7796,48.868,-0.4067,-0.6431,-0.5229,294.5
19:54:55:436,0.2623,1.0576,12.8175,46.7796,-0.5614,-0.4394,-0.5165,294.8594
19:54:55:463,-0.043,0.7763,12.8223,48.7973,-0.6304,-0.196,-0.3402,295.4219
19:54:55:481,0.0935,0.9703,12.1483,46.2451,-0.6775,-0.2953,-0.1679,296.1406
19:54:55:496,0.2707,1.5269,12.8414,47.54,-0.8053,-0.7507,-0.0941,296.8125
19:54:55:517,1.2116,1.6586,15.487,47.8318,-0.8312,-0.9148,-0.0504,297.2344
19:54:55:544,2.3979,1.5927,16.5189,47.3884,-0.4905,-0.437,-0.0076,297.5938
19:54:55:560,2.793,1.837,13.4256,47.4423,0.0205,0.1369,0.0098,297.8594
19:54:55:578,3.4861,2.1602,9.5674,45.6235,0.2914,0.2094,-0.0105,298.0312
19:54:55:596,3.9721,2.3409,6.8715,47.0588,0.2938,-0.1257,-0.1785,298.0625
19:54:55:617,3.8859,2.4882,5.5092,45.9818,0.0703,-0.5174,-0.4555,298.0625
19:54:55:643,3.0874,2.2799,6,46.4665,-0.29,-0.6927,-0.7612,298.0625
19:54:55:657,1.9478,1.661,7.0103,47.7814,-0.5079,-0.5252,-0.9399,298.4531
19:54:55:678,0.9231,1.4958,7.063,46.5065,-0.5587,-0.2285,-0.9565,299.2969
19:54:55:696,0.534,1.6442,7.4221,47.1242,-0.5728,-0.0066,-0.8941,300.4219
19:54:55:716,0.5065,1.7795,8.1667,44.9126,-0.4338,0.1537,-0.847,301.6094
19:54:55:736,0.3712,1.7867,8.0279,45.876,-0.1486,0.2738,-0.8262,302.6406
19:54:55:759,0.0719,1.8513,7.0989,46.2322,0.0799,0.2831,-0.7636,303.625
19:54:55:780,0.0827,2.2583,6.9265,45.2283,0.1489,0.1385,-0.659,304.5469
19:54:55:847,0.7244,2.5612,7.6029,44.8293,0.1595,-0.0272,-0.6142,304.9531
19:54:55:847,0.7926,2.718,8.1416,45.6596,0.1254,-0.0642,-0.664,305.7812
19:54:55:847,0.6286,2.791,9.0155,45.6541,0.0173,-0.0226,-0.6909,306.5156
19:54:55:860,0.3748,2.7827,10.1934,44.8583,-0.0272,0.0653,-0.6861,307.5625
19:54:55:877,-0.2369,2.5744,10.9344,45.9434,0.0501,0.0956,-0.6297,308.3438
19:54:55:896,-0.9528,2.4894,11.5486,45.0484,0.2027,-0.0096,-0.4558,309.1406
19:54:55:916,-1.0797,2.39,11.8502,45.0214,0.3926,-0.2117,-0.2403,309.8906
19:54:55:936,-0.8414,2.1566,11.7604,43.2688,0.4525,-0.2735,-0.0771,310.4844
19:54:55:957,-0.3638,1.9543,11.5294,45.3996,0.3201,-0.1286,0.0369,310.9062
19:54:55:980,0.0564,1.9351,11.5701,44.5064,0.0858,0.0554,0.0705,311.1406
19:54:55:996,0.2419,1.8501,11.624,44.7897,-0.1609,0.192,0.0412,311.1875
19:54:56:020,-0.0861,1.6598,12.1998,42.4073,-0.3577,0.1422,-0.0073,311.125
19:54:56:036,-0.383,0.9547,13.2018,45.3194,-0.3712,-0.0367,-0.0116,311.0312
19:54:56:056,-0.8486,0.0329,13.2592,42.5507,-0.2213,-0.1315,0.0518,310.9688
19:54:56:076,-1.2533,-0.6243,12.371,44.4091,-0.0948,-0.1571,0.2236,310.9688
19:54:56:096,-1.0462,-0.7165,11.284,42.1479,-0.118,-0.2378,0.4614,310.9844
19:54:56:116,0.0336,-0.4256,10.9297,41.1303,-0.277,-0.3377,0.6412,310.8594
19:54:56:137,0.8153,-0.082,10.6926,42.6778,-0.4149,-0.2509,0.688,310.5156
19:54:56:159,0.9482,0.2221,10.136,41.6919,-0.4676,0.0248,0.6787,309.5625
19:54:56:177,0.5711,0.4028,9.14,42.5502,-0.4146,0.383,0.7083,308.8281
19:54:56:196,0.0229,0.6183,7.6616,42.4058,-0.3012,0.6658,0.8327,308.0781
19:54:56:216,-0.2668,0.8697,6.2921,41.8242,-0.1944,0.7537,1.022,307.2188
19:54:56:236,-0.031,1.2276,5.5331,41.5677,-0.0956,0.6538,1.217,306.1562
19:54:56:261,0.7471,1.6143,5.1058,41.1082,-0.0053,0.4107,1.3216,304.9219
19:54:56:280,1.2726,1.9698,5.2973,41.1895,0.0448,0.1036,1.2732,303.4375
19:54:56:297,1.3935,2.0213,6.3232,40.8051,0.094,-0.1742,1.1437,301.8594
19:54:56:317,1.2535,1.8896,7.6735,39.7739,0.2067,-0.2956,1.0364,301.1094
19:54:56:345,1.3097,1.8214,8.4876,42.2934,0.3252,-0.2796,0.9791,299.7969
19:54:56:360,1.1278,1.8944,9.0646,40.598,0.3502,-0.1648,0.9379,298.5938
19:54:56:376,1.22,1.9016,9.4752,40.598,0.3228,-0.0261,0.9176,297.4844
19:54:56:396,1.7455,1.9327,9.5602,40.3527,0.2562,0.0402,0.8676,296.4844
19:54:56:416,2.3596,2.0429,9.8427,40.1074,0.0991,-0.135,0.7373,295.4219
19:54:56:438,2.9462,1.6347,11.0901,40.2287,-0.1196,-0.4027,0.5299,294.3906
19:54:56:457,3.1102,1.0636,12.4164,37.6845,-0.3622,-0.3872,0.3624,293.1094
19:54:56:476,3.4142,0.6399,13.6973,38.2615,-0.5579,-0.1529,0.2734,292.5781
19:54:56:496,3.7159,0.1179,14.0756,39.1899,-0.5332,0.1212,0.2063,292.2344
19:54:56:517,3.868,0.0784,12.3662,40.7459,-0.4141,0.3388,0.1418,291.9844
19:54:56:543,3.619,0.4483,10.4424,37.7558,-0.4663,0.2978,-0.0323,291.75
19:54:56:561,3.0432,0.41,9.8068,36.7709,-0.69,0.0786,-0.3032,291.5469
19:54:56:577,1.3145,-0.7775,12.4583,37.8546,-0.9124,-0.0754,-0.5011,291.5625
19:54:56:597,0.8417,-0.896,12.5493,37.2961,-0.4703,0.2701,-0.3146,291.9062
19:54:56:616,1.433,-0.5632,10.3072,37.9237,-0.0109,0.3942,-0.068,292.5156
19:54:56:638,2.3824,0.3705,8.0746,36.6533,0.2107,0.1585,0.0297,293.1094
19:54:56:659,3.34,1.2193,7.0702,37.5507,0.1785,-0.2562,-0.133,293.4844
19:54:56:680,3.103,1.424,7.0056,36.6253,-0.0218,-0.3614,-0.4987,293.4219
19:54:56:696,1.9322,1.0409,7.0032,39.0799,-0.2498,-0.0921,-0.8086,293.4219
19:54:56:716,0.941,0.6494,6.7159,37.206,-0.4104,0.331,-0.916,293.5938
19:54:56:737,0.4311,0.5884,6.3986,36.6078,-0.4602,0.5374,-0.8598,294.2031
19:54:56:760,0.467,0.8529,6.5961,36.6352,-0.3848,0.3699,-0.725,295.1406
19:54:56:781,0.7387,1.2875,7.3994,36.1179,-0.2064,0.0298,-0.6073,296.1562
19:54:56:797,1.1924,1.5568,8.1835,38.2489,0.0293,-0.1289,-0.5357,297.0469
19:54:56:815,1.5396,1.7149,8.156,37.5324,0.2117,-0.016,-0.5245,297.8438
19:54:56:836,1.5264,2.0536,7.7286,36.318,0.2418,0.1183,-0.5482,298.5469
19:54:56:866,1.1589,2.2739,8.1009,36.0632,0.1385,0.0293,-0.5738,299.125
19:54:56:877,0.8453,2.4104,9.614,37.4325,0.0421,-0.1081,-0.5674,299.7344
19:54:56:897,0.8261,2.4475,10.883,36.1809,0.0884,-0.2477,-0.5812,300.3438
19:54:56:916,0.7399,2.2919,11.4612,36.1978,0.1563,-0.3033,-0.6334,301
19:54:56:937,0.2707,1.9028,12.177,35.4217,0.1108,-0.2447,-0.6374,301.9688
19:54:56:961,-0.2369,1.4778,13.4244,35.0389,0.0466,-0.0972,-0.5051,302.6875
19:54:56:979,-0.365,1.1498,14.6897,36.5706,0.1313,0.0258,-0.2832,303.4219
19:54:56:995,0.0588,0.9164,15.0836,36.4652,0.3638,0.1286,-0.0302,304.125
19:54:57:019,0.5185,1.236,14.2744,34.9026,0.5827,0.2005,0.1682,304.5781
19:54:57:045,1.0583,2.0405,13.6698,36.1136,0.6418,0.1388,0.2383,304.75
19:54:57:060,1.4929,2.2763,13.7799,37.1409,0.6133,0.0418,0.1299,304.6406
19:54:57:078,1.2595,1.9483,14.3366,36.5602,0.6046,0.0336,-0.0174,304.3594
19:54:57:096,0.5999,1.2623,14.5413,36.8253,0.7545,0.2005,-0.072,304.125
19:54:57:116,0.127,0.5549,12.8725,36.8819,1.0117,0.4373,0.0119,304.0625
19:54:57:136,0.0695,0.5752,10.5214,38.2364,1.1449,0.4543,0.1778,304.125
19:54:57:160,0.2874,0.8685,8.5714,35.6887,1.1129,0.1721,0.2835,304.1406
19:54:57:178,0.5412,0.9367,7.6711,37.8898,0.8983,-0.282,0.2915,304.0781
19:54:57:195,0.8153,0.9236,8.0363,37.2494,0.6072,-0.4924,0.2761,303.8125
19:54:57:216,0.965,0.9487,8.4026,37.4893,0.4472,-0.3505,0.2311,303.4844
19:54:57:237,0.5639,0.7404,7.9608,38.069,0.453,-0.0386,0.1986,303.1094
19:54:57:260,0.0815,0.5728,6.7266,39.4522,0.5111,0.2581,0.2705,302.9062
19:54:57:276,0.1102,0.6028,5.7294,37.9276,0.5441,0.3891,0.4199,302.7188
19:54:57:296,0.4167,0.8877,5.1668,38.4534,0.5545,0.3643,0.5312,302.4375
19:54:57:316,0.6454,1.2372,5.0902,39.3746,0.5731,0.2458,0.5605,302
19:54:57:336,0.7567,1.5173,5.1488,38.635,0.6037,0.106,0.5357,301.3594
19:54:57:361,0.7399,1.8693,5.0782,38.8025,0.5553,-0.0024,0.4854,300.6562
19:54:57:377,0.5699,2.1027,5.4481,37.441,0.3912,-0.0793,0.4308,299.9844
19:54:57:395,0.3401,2.2117,6.4824,38.3264,0.2147,-0.0975,0.4164,299.4219
19:54:57:415,0.3952,2.42,7.5526,39.1986,0.1489,-0.0599,0.4489,298.9062
19:54:57:435,0.8979,2.9443,8.0626,39.6066,0.1601,0,0.4345,298.4531
19:54:57:463,1.4702,3.1873,8.0662,37.3662,0.151,-0.0282,0.2865,298
19:54:57:479,1.5551,3.07,8.0937,39.1679,-0.0019,-0.1909,0.0526,297.5
19:54:57:497,1.2666,2.7575,9.067,40.3263,-0.3084,-0.3489,-0.1578,297.0469
19:54:57:518,0.795,2.0069,11.0218,39.2294,-0.6027,-0.3859,-0.2558,296.8906
19:54:57:541,0.7998,1.163,12.4631,39.2294,-0.7166,-0.1768,-0.1618,297.2031
19:54:57:558,1.4881,1.1642,12.3482,40.2695,-0.6818,0.0557,0.0012,297.6094
19:54:57:575,2.5344,1.4192,11.2301,40.583,-0.6709,-0.0495,-0.0228,297.8438
19:54:57:597,2.9725,1.4647,11.0721,41.7224,-0.8999,-0.4453,-0.2832,297.8438
19:54:57:616,2.3823,0.5692,13.0605,41.4878,-1.2517,-0.5012,-0.611,297.8906
19:54:57:636,0.8153,-0.7141,14.588,39.3323,-1.3502,0.0506,-0.7277,298.3125
19:54:57:659,-0.049,-1.2216,13.112,40.2599,-1.1204,0.8,-0.4773,299.1406
19:54:57:676,0.2862,-0.9511,10.0366,41.2642,-0.9076,1.1311,-0.0315,300
19:54:57:696,1.6868,-0.0437,7.9405,42.159,-0.8695,0.8344,0.2998,300.4219
19:54:57:716,3.0635,0.9475,7.8232,41.6229,-0.9127,0.1428,0.2819,300.4219
19:54:57:735,3.0036,1.3461,8.8156,42.8168,-0.9249,-0.2274,0.0236,300.0469
19:54:57:758,1.7778,1.011,9.3878,41.985,-0.8589,-0.0218,-0.1748,299.5781
19:54:57:779,0.6441,0.9391,8.7892,43.1602,-0.742,0.4978,-0.1847,299.3906
19:54:57:797,0.145,1.1115,7.6268,42.7229,-0.6368,0.8914,-0.092,299.5312
19:54:57:818,0.0193,1.6083,7.0762,40.5873,-0.5159,0.9668,0.0691,299.7188
19:54:57:835,0.3281,2.2428,7.0091,41.5778,-0.2972,0.7521,0.2289,299.7812
19:54:57:917,1.038,2.8437,7.1025,42.7043,-0.0133,0.3952,0.2881,299.5781
19:54:57:918,1.2331,3.3238,6.9708,44.0417,0.1902,0.0978,0.1948,299.2344
19:54:57:918,0.6741,3.4554,7.1887,42.7518,0.2296,-0.0788,0.0484,298.8594
19:54:57:921,-0.5254,3.1609,8.4313,44.4007,0.1872,-0.2703,-0.0097,298.6562
19:54:57:952,-0.8235,2.7587,10.1228,45.1586,0.2402,-0.3827,0.1157,298.6094
19:54:57:959,0.9913,3.1238,10.5562,44.833,0.252,-0.0317,0.1296,298.6562
19:54:57:978,0.9027,2.7073,10.78,44.4949,-0.0439,0.3023,-0.1783,298.5938
19:54:57:998,-0.7457,1.4036,11.7628,45.2726,-0.3209,0.5457,-0.4321,298.2344
19:54:58:023,-2.1427,0.1718,12.8642,44.4477,-0.4138,0.7268,-0.3615,298.2344
19:54:58:045,-2.7784,-0.5333,13.2437,45.0876,-0.3313,0.8426,-0.0358,298.4062
19:54:58:063,-2.2325,-0.3286,12.8678,46.1098,-0.1726,0.7324,0.394,299.1094
19:54:58:081,-0.602,0.483,12.511,46.0211,-0.0674,0.3926,0.6739,299.0469
19:54:58:097,0.5113,1.3042,12.5888,45.3142,-0.0447,-0.0138,0.6438,298.8438
19:54:58:115,0.5472,1.2384,13.3789,45.5207,-0.0519,-0.339,0.4369,298.5312
19:54:58:137,0.1881,0.4124,13.9344,46.5923,0.0293,-0.3257,0.2968,297.7031
19:54:58:163,0.2359,-0.1,13.0868,47.401,0.2029,-0.0506,0.3229,296.7031
19:54:58:178,0.8752,0.2017,10.8878,46.1217,0.3342,0.0573,0.345,296.5156
19:54:58:199,1.3301,0.5525,9.3459,46.7468,0.3108,-0.1766,0.1863,296.2188
19:54:58:215,1.0727,0.4124,8.5821,46.2249,0.1864,-0.4037,-0.0542,295.8594
19:54:58:236,0.4454,0.1909,8.0039,47.6583,0.0349,-0.3973,-0.2116,295.4844
19:54:58:260,-0.2621,0.0162,7.5263,46.8239,-0.1161,-0.1875,-0.2395,295.3281
19:54:58:279,-1.0126,-0.1071,7.1863,46.5465,-0.1995,0.1129,-0.1168,295.4375
19:54:58:301,-1.2138,0.1897,6.5854,46.6407,-0.1763,0.3998,0.1237,295.7344
19:54:58:315,-0.2932,0.7524,5.8623,46.9252,-0.1078,0.4549,0.3128,296.0156
19:54:58:335,0.2,1.3581,5.5331,47.5265,-0.0724,0.126,0.3187,296.125
19:54:58:360,0.042,1.4263,6.6285,49.2688,-0.0293,-0.4727,0.2633,295.9219
19:54:58:380,-0.4225,1.2001,8.4229,46.5689,0.1329,-0.8506,0.2865,295.1406
19:54:58:395,-0.0669,1.0157,9.4285,48.6131,0.3755,-0.8035,0.41,295.0156
19:54:58:415,0.8644,1.3509,9.1795,49.364,0.5239,-0.469,0.4622,294.7969
19:54:58:439,1.5288,1.8274,8.5271,48.6324,0.4653,-0.1638,0.3203,294.5312
19:54:58:462,1.6677,1.9256,8.569,49.0069,0.2735,-0.0634,0.0361,294.0938
19:54:58:478,1.1182,1.3893,9.3794,48.7627,0.0884,-0.0826,-0.2451,293.6719
19:54:58:496,0.552,0.7201,10.4257,47.9904,0.0005,-0.1433,-0.3937,293.4688
19:54:58:516,0.4742,0.0557,11.1954,49.9166,-0.0338,-0.2144,-0.4366,293.625
19:54:58:535,0.6286,-0.4854,11.8442,48.6307,-0.0879,-0.2554,-0.439,294.0156
19:54:58:562,0.6513,-0.7667,12.5996,47.9736,-0.1446,-0.2157,-0.4265,294.2656
19:54:58:580,0.8716,-1.1881,12.6774,48.4888,-0.1292,-0.0543,-0.3716,294.7656
19:54:58:598,1.1194,-1.2037,11.849,49.3386,-0.0916,0.1276,-0.3136,295.2969
19:54:58:616,1.3576,-1.0181,10.61,49.2386,-0.1044,0.0639,-0.3458,295.8125
19:54:58:636,1.2295,-0.6398,10.1826,50.5476,-0.2956,-0.3004,-0.5002,296.4062
19:54:58:659,0.8716,-0.8673,12.1543,49.7544,-0.5875,-0.674,-0.6936,296.7344
19:54:58:676,0.4933,-1.8058,14.3725,50.2861,-0.6418,-0.4509,-0.7314,297.2188
19:54:58:695,0.4778,-1.7304,13.7488,49.8419,-0.3611,0.1572,-0.5439,297.9688
19:54:58:716,1.0967,-0.7608,10.8842,50.7772,-0.0431,0.4077,-0.3484,298.8438
19:54:58:735,1.7934,0.3909,8.715,48.2983,0.1076,0.139,-0.3362,299.5938
19:54:58:761,2.2052,1.1355,7.4916,49.9998,0.0959,-0.179,-0.5231,300.0469
19:54:58:778,1.7623,1.4431,7.2007,49.2491,-0.0421,-0.2426,-0.7977,300.3594
19:54:58:797,0.7483,1.1726,7.3539,49.5201,-0.1603,-0.0021,-0.9892,300.8438
19:54:58:815,-0.4931,1.066,7.3108,48.8073,-0.1797,0.3939,-0.9807,301.625
19:54:58:836,-1.1204,1.1905,6.8284,50.4832,-0.1084,0.6538,-0.8038,302.625
19:54:58:863,-1.3155,1.3845,6.5327,49.766,0.0394,0.5729,-0.5671,303.7656
19:54:58:877,-0.7385,1.5928,6.3962,50.2836,0.2133,0.3406,-0.3423,304.7344
19:54:58:896,0.1115,1.9004,6.4788,50.1534,0.2975,0.1745,-0.2651,305.4688
19:54:58:918,0.2491,1.8789,7.0199,51.9819,0.2589,0.1068,-0.3381,306.0781
19:54:58:934,-0.3818,1.5197,8.0087,51.3773,0.1393,0.2248,-0.3889,306.375
19:54:58:957,-0.9348,1.2444,9.0909,49.8156,0.0717,0.4213,-0.317,306.7344
19:54:58:981,-1.0845,1.2695,9.717,49.7559,0.101,0.5121,-0.186,307.1719
19:54:58:996,-1.3203,1.3306,10.3263,52.1208,0.1697,0.4016,-0.0587,307.4844
19:54:59:016,-1.5872,1.3617,10.9261,48.2261,0.2852,0.2061,0.1064,307.5938
19:54:59:035,-1.7201,1.5341,11.2972,50.2586,0.4338,-0.0719,0.2894,307.6875
19:54:59:059,-1.4041,1.6993,11.8299,49.1039,0.5276,-0.273,0.4441,307.6406
19:54:59:081,-0.8355,1.6083,12.2536,51.7307,0.5151,-0.2184,0.5245,307.4375
19:54:59:097,-0.3004,1.564,12.4967,50.0124,0.4008,0.0647,0.5432,307.0625
19:54:59:116,0.4227,1.7675,12.4536,48.1672,0.2839,0.3137,0.4697,306.5938
19:54:59:135,0.5747,1.8035,11.758,49.0523,0.1374,0.4394,0.2646,306.0156
19:54:59:162,-0.1172,1.558,11.8694,48.9965,-0.0493,0.2203,0.0707,305.1562
19:54:59:183,-0.6715,0.8458,13.2401,49.7777,-0.0908,-0.1718,0.0028,304.8125
19:54:59:199,-0.8043,0.0497,13.9056,49.2759,0.0682,-0.3158,0.0532,304.7031
19:54:59:216,-0.2357,-0.3777,12.9539,49.2759,0.2791,-0.2612,0.1842,304.7188
19:54:59:235,0.7471,0.0664,11.0446,48.1185,0.3028,-0.2426,0.2228,304.7031
19:54:59:260,1.3612,0.2699,10.1288,48.4064,0.1167,-0.3438,0.0657,304.5469
19:54:59:276,1.19,0.2939,9.9468,48.7562,-0.0477,-0.3316,-0.1309,304.3438
19:54:59:295,0.4227,0.3214,9.2657,48.5182,-0.0935,-0.1712,-0.2241,304.3281
19:54:59:315,-0.3159,0.4651,8.1368,48.7446,-0.1047,0.0275,-0.1825,304.5312
19:54:59:335,-0.9408,0.6255,7.4078,47.0918,-0.0647,0.1164,-0.027,304.8125
19:54:59:360,-1.0641,1.1797,6.2023,46.8156,0.1902,-0.0066,0.4398,305
19:54:59:376,-0.4608,1.5006,6.0191,46.2622,0.2922,-0.1795,0.6215,305
19:54:59:398,0.1486,1.6957,6.1724,46.2654,0.3643,-0.3539,0.7014,305.0156
19:54:59:414,0.1833,1.8777,6.328,46.5127,0.3508,-0.4144,0.6803,304.7656
19:54:59:438,0.133,1.8525,7.0091,46.3793,0.2218,-0.3198,0.6367,303.6406
19:54:59:459,0.303,1.7663,8.1667,47.0916,0.0764,-0.1089,0.6042,303.2656
19:54:59:476,0.5604,1.8777,9.1735,45.4475,0.0575,0.0935,0.5408,302.2031
19:54:59:495,0.4311,2.0943,9.6847,46.1672,0.119,0.2314,0.4393,301.5781
19:54:59:516,0.2216,2.1099,9.9301,45.2015,0.1888,0.2562,0.3341,300.9062
19:54:59:536,0.1976,1.91,10.2066,44.7993,0.228,0.135,0.239,300.2656
19:54:59:559,0.7543,1.4228,10.3574,43.8382,0.2245,0.0013,0.1232,299.7344
19:54:59:576,0.9937,1.0217,10.3694,45.2999,0.126,-0.057,-0.0518,299.3281
19:54:59:594,0.8596,0.4627,10.3802,43.4184,-0.0599,-0.1068,-0.2294,299.0469
19:54:59:615,0.7339,-0.1119,10.6232,43.3541,-0.3225,-0.0708,-0.3437,298.9844
19:54:59:635,0.9027,-0.4543,10.8842,42.888,-0.5907,-0.0072,-0.4007,298.9844
19:54:59:659,1.044,-0.5668,11.0841,43.5674,-0.8208,-0.0767,-0.4856,299.2656
19:54:59:679,0.5795,-0.914,12.1806,44.0304,-1.0096,-0.3643,-0.6129,299.6562
19:54:59:694,-0.1962,-1.8477,14.4312,43.6876,-1.0591,-0.4176,-0.5847,300.0781
19:54:59:715,-0.5266,-2.1554,15.2296,43.6876,-0.7859,0.1001,-0.268,300.9531
19:54:59:734,0.4083,-1.4227,12.9372,43.7916,-0.3118,0.5537,0.1466,301.7188
19:54:59:754,2.0508,-0.1155,9.9133,44.6467,-0.024,0.4775,0.3703,302.2188
19:54:59:779,3.3388,0.9894,8.1081,43.7045,0.0328,0.0514,0.2484,302.2188
19:54:59:797,3.1533,1.5101,7.0307,44.2642,-0.0951,-0.2834,-0.1327,301.8125
19:54:59:823,1.8903,1.2671,6.6488,43.7198,-0.3707,-0.2895,-0.4947,301.375
19:54:59:834,0.4203,0.8194,6.7661,43.8209,-0.6474,0.0408,-0.6238,301.3125
19:54:59:857,-0.3111,1.0792,7.3084,44.0479,-0.7451,0.3486,-0.5325,301.7344
19:54:59:884,-0.3339,1.5197,8.0614,44.502,-0.5707,0.3273,-0.4086,302.4062
19:54:59:904,-0.5817,1.8118,8.2996,43.5963,-0.1763,0.1239,-0.2845,303
19:54:59:914,-0.9157,2.0524,7.6436,44.3051,0.2165,-0.0738,-0.1306,303.25
19:54:59:983,-0.5386,2.3469,6.9673,43.9959,0.4171,-0.1507,0.039,303.6719
19:54:59:983,0.2946,2.8401,6.7733,43.0412,0.4317,-0.1909,0.0782,303.9688
19:54:59:983,0.7184,3.0951,7.3515,41.6843,0.3113,-0.2181,-0.0446,304.125
19:55:00:003,0.3449,3.0388,8.5187,43.0336,0.1683,-0.2008,-0.218,304.0938
19:55:00:014,-0.286,2.6534,10.2724,42.6881,0.1148,-0.1909,-0.3005,304.0781
19:55:00:034,-1.045,2.2476,11.8275,43.2376,0.2623,-0.1774,-0.2717,304.2656
19:55:00:060,-1.5118,1.9447,12.1579,43.2512,0.5116,-0.1443,-0.1405,304.5938
19:55:00:076,-1.7297,1.7017,11.7221,42.7439,0.6772,-0.0857,0.0438,304.9688
19:55:00:096,-1.6423,1.8346,11.4241,43.0986,0.6677,-0.0607,0.2391,305.2344
19:55:00:114,-1.3969,1.7999,11.7736,43.0587,0.5774,-0.0905,0.3706,305.3281
19:55:00:135,-1.0438,1.3378,11.9436,42.955,0.4759,-0.065,0.4633,305.2031
19:55:00:162,-0.9755,1.2205,11.6635,42.8385,0.3065,0.0264,0.5293,304.8906
19:55:00:182,-0.9779,1.1259,11.5881,41.8011,0.0328,0.138,0.5834,304.4375
19:55:00:198,-0.7193,0.7332,12.3195,43.6938,-0.2431,0.1878,0.6361,303.875
19:55:00:214,-0.7301,0.2017,13.1922,44.2009,-0.29,0.0131,0.6747,303.2344
19:55:00:235,-1.3394,-0.5513,13.8709,44.3426,-0.1622,-0.2972,0.7642,302.5312
19:55:00:261,-1.3658,-1.3761,14.1283,45.7542,0.1057,-0.3044,1.0068,301.7656
19:55:00:281,-0.8199,-1.4766,12.0178,44.4332,0.3625,0.0362,1.2747,300.5312
19:55:00:296,0.0935,-0.7727,9.0861,44.8155,0.3135,0.2269,1.4058,299.4844
19:55:00:315,1.0069,-0.0593,7.9345,45.3781,0.0093,0.1398,1.3054,298.0156
19:55:00:336,0.9039,0.325,8.2326,46.4278,-0.2732,0.0559,1.0732,296.375
19:55:00:363,0.0648,0.2556,8.5773,44.404,-0.3593,0.114,0.9134,294.9375
19:55:00:383,-0.8043,-0.0006,8.3523,45.3746,-0.2759,0.2674,0.9379,294.2812
19:55:00:394,-1.1814,-0.003,7.5754,47.0065,-0.0908,0.3912,1.1286,293.1562
19:55:00:414,-0.7912,0.3885,6.5387,47.0887,0.1087,0.3468,1.3515,292.0938
19:55:00:436,-0.1555,0.9439,5.7677,47.4184,0.2456,0.1279,1.4548,290.9375
19:55:00:464,0.4203,1.3042,5.4445,46.7674,0.278,-0.1126,1.4082,289.4531
19:55:00:476,0.6861,1.4252,5.7318,46.1623,0.1955,-0.2399,1.2689,287.7969
19:55:00:494,0.5065,1.5245,6.7051,48.0633,0.0543,-0.2301,1.1219,286.2188
19:55:00:514,0.5951,1.5892,7.7956,46.941,-0.0431,-0.1731,1.0207,284.7031
19:55:00:535,0.8237,1.6586,9.3543,48.9018,-0.0756,-0.1933,0.9078,283.375
19:55:00:555,0.8884,1.5628,10.5789,47.1882,0.0413,-0.1371,0.7805,281.6875
19:55:00:578,0.7543,1.3773,10.7393,48.3413,0.2061,-0.0112,0.6673,280.6719
19:55:00:598,0.6669,1.1355,9.8762,47.9788,0.2615,0.0653,0.5903,279.7969
19:55:00:614,0.7184,0.9798,9.7565,48.3365,0.1372,-0.0184,0.5448,279.0625
19:55:00:636,1.1769,0.5213,10.7621,47.6666,-0.0144,-0.1675,0.4923,278.375
19:55:00:662,1.524,-0.2688,11.6156,48.4238,-0.0844,-0.2605,0.4553,277.75
19:55:00:679,2.0807,-0.8948,11.9472,48.2642,-0.1643,-0.3111,0.4726,277.2031
19:55:00:695,2.793,-1.0923,11.8155,49.9457,-0.3047,-0.2852,0.4675,276.75
19:55:00:715,3.4454,-0.9798,11.3163,50.6493,-0.5241,-0.2839,0.3445,276.2656
19:55:00:735,3.0013,-0.6961,11.6958,50.3551,-0.784,-0.3622,0.0889,275.7969
19:55:00:755,0.8656,-1.57,14.175,48.6011,-0.7824,-0.1816,-0.1319,275.4844
19:55:00:779,0.6741,-1.8753,13.41,49.8674,-0.372,0.1563,0.1131,275.4688
19:55:00:798,1.2619,-1.0301,10.8459,50.3392,0.0349,0.3108,0.4124,275.9375
19:55:00:816,2.2614,0.1035,8.5199,49.4986,0.2416,0.0813,0.4966,275.9375
19:55:00:834,2.8241,0.9128,6.9277,50.4338,0.2234,-0.2021,0.3224,275.9375
19:55:00:855,2.4566,1.2468,6.2047,49.0796,0.0173,-0.3294,0.062,275.3125
19:55:00:878,1.8436,1.3414,6.1939,50.0639,-0.2024,-0.4,-0.137,274.7188
19:55:00:897,1.3528,1.4395,6.9696,49.1417,-0.4091,-0.4381,-0.2885,274.3438
19:55:00:914,0.886,1.2719,8.241,50.1064,-0.5209,-0.2594,-0.3663,274.3438
19:55:00:935,0.2742,1.2516,9.2513,49.698,-0.4261,-0.0573,-0.354,274.5625
19:55:00:964,-0.4189,1.066,9.5554,50.6997,-0.0951,-0.0085,-0.1849,274.9375
19:55:00:977,-0.4141,1.1139,8.8275,51.7037,0.3675,-0.1022,0.1488,275.4219
19:55:00:995,0.1976,1.4395,7.1767,50.1383,0.7087,-0.2431,0.4843,275.875
19:55:01:013,0.8333,2.0441,6.085,51.3353,0.8232,-0.5856,0.7288,276.0781
19:55:01:034,2.1741,2.8449,6.6656,49.9927,0.755,-0.968,0.8194,275.8906
19:55:01:054,3.3712,3.3034,8.4995,51.4971,0.7132,-1.1864,0.6779,275.3125
19:55:01:077,3.6549,3.2531,9.6799,51.9018,0.7697,-1.0932,0.4119,274.4688
19:55:01:096,3.2874,3.1059,9.8499,51.485,0.7452,-0.6407,0.1879,273.625
19:55:01:114,2.7475,3.0855,9.7661,51.8732,0.5473,-0.1563,0.0574,272.6719
19:55:01:136,2.3225,2.9479,10.531,50.3806,0.2962,0.0626,-0.0134,272.3438
19:55:01:154,2.0005,2.5397,12.0142,52.1078,0.1665,0.1289,-0.0196,272.2031
19:55:01:179,2.0771,2.0369,12.772,52.146,0.2099,0.1729,0.0196,272.125
19:55:01:195,2.3524,1.7711,12.2919,52.333,0.2762,0.2333,0.0343,272.0938
19:55:01:215,2.5128,1.7651,11.1439,52.0005,0.1422,0.2618,-0.0353,272.0625
19:55:01:234,2.6481,1.8525,11.096,51.9399,-0.2514,0.134,-0.1881,271.9531
19:55:01:254,2.3824,1.4156,13.3478,52.8208,-0.6884,-0.1422,-0.398,271.8594
19:55:01:277,1.1098,0.325,16.2436,52.2638,-0.7459,-0.0615,-0.5106,271.9375
19:55:01:294,-0.4189,-1.0157,16.4004,52.9721,-0.2935,0.4421,-0.374,272.3438
19:55:01:313,-1.3478,-1.4946,12.8103,52.73,0.2386,0.9327,0.0564,273.0156
19:55:01:334,-1.3215,-0.8051,8.9796,53.1773,0.4511,0.9034,0.5594,273.3594
19:55:01:354,-0.1507,-0.1586,6.8368,52.1229,0.388,0.4333,0.8929,273.75
19:55:01:378,1.0823,0.5202,6.4178,52.3319,0.1505,-0.0389,1.0226,273.5156
19:55:01:395,1.7934,1.2085,7.3024,51.4734,-0.0549,-0.2908,0.9927,272.6875
19:55:01:417,1.7658,1.3749,7.8998,51.7756,-0.0474,-0.3121,0.8468,271.0312
19:55:01:433,1.1026,1.1929,7.2941,52.7388,0.0424,-0.0937,0.7403,269.875
19:55:01:455,0.3832,1.1402,6.2669,51.5594,0.0069,0.2858,0.7741,268.875
19:55:01:477,0.3377,1.412,5.9904,53.1912,-0.16,0.49,0.8809,268.0625
19:55:01:494,0.6801,1.5161,6.9972,52.1347,-0.2732,0.4717,0.9677,267.1875
19:55:01:516,1.0931,1.4335,8.1763,52.6762,-0.1457,0.3864,1.0489,266.1875
19:55:01:533,1.5384,1.3964,8.557,52.7449,0.187,0.1183,1.1083,265.0938
19:55:01:555,1.8461,1.3533,8.1775,52.2185,0.4999,-0.2346,1.1134,263.9688
19:55:01:587,2.0256,1.3114,8.2673,53.2133,0.6133,-0.5827,1.0809,262.0312
19:55:01:593,2.1369,0.9954,9.6296,52.678,0.5928,-0.6951,1.038,260.7188
19:55:01:614,2.4829,0.817,10.6555,53.6531,0.5984,-0.3347,1.0156,259.5469
19:55:01:634,3.3101,0.9332,9.8654,53.3513,0.5936,0.0525,0.9549,258.375
19:55:01:654,3.9889,1.2372,9.0634,51.1045,0.4195,0.0115,0.7863,257.7812
19:55:01:680,4.5766,1.1426,9.8068,51.1257,0.172,-0.3097,0.5253,256.5625
19:55:01:695,4.6066,0.3849,11.1296,51.6262,-0.0221,-0.4525,0.2337,255.5156
19:55:01:713,4.1265,-0.3657,11.8622,52.4193,-0.1542,-0.2743,0.0747,254.7344
19:55:01:733,4.2043,-0.586,11.545,50.9666,-0.2285,0.0213,0.0247,254.3438
19:55:01:753,4.4857,-0.2532,10.3957,51.6266,-0.3409,0.1358,-0.0773,254.2812
19:55:01:776,4.6927,0.3238,9.948,50.8437,-0.5838,-0.0948,-0.3064,254.2812
19:55:01:795,4.6317,0.1371,11.9472,50.4421,-0.857,-0.4088,-0.6371,254.3281
19:55:01:813,4.02,-0.8673,13.8039,51.4321,-0.8408,-0.2357,-0.8747,254.5625
19:55:01:833,2.9486,-1.3868,13.2053,50.9948,-0.5521,0.285,-0.8688,255.2812
19:55:01:853,2.6301,-1.1067,10.5681,50.162,-0.2418,0.6043,-0.6648,256.9531
19:55:01:877,2.9402,-0.3286,8.1488,49.9638,-0.102,0.4344,-0.5285,257.9688
19:55:01:898,3.2778,0.3118,6.9158,50.0987,-0.188,0.0626,-0.5378,258.7031
19:55:01:912,2.9127,0.7464,7.3,50.0987,-0.4181,-0.119,-0.6334,259.2656
19:55:01:933,1.9574,1.0301,8.4517,49.0014,-0.5901,0.1113,-0.7088,259.8594
19:55:01:953,1.1194,1.1163,8.7174,50.7676,-0.5537,0.5252,-0.6792,260.6562
19:55:01:980,0.5951,1.3545,8.0267,49.1703,-0.3611,0.7103,-0.5719,261.5469
19:55:01:997,0.4622,1.7184,7.2031,50.812,-0.1009,0.5966,-0.414,262.3438
19:55:02:059,0.6789,2.1793,6.4788,47.5296,0.1369,0.3212,-0.2899,262.9375
19:55:02:060,1.1338,2.5385,6.0347,48.8921,0.2442,0.0895,-0.2337,263.3594
19:55:02:060,1.5252,2.8306,6.2394,47.5102,0.1942,-0.0051,-0.2582,263.6562
19:55:02:078,1.5671,3.0376,7.0127,48.4575,0.102,0.0461,-0.3439,263.8594
19:55:02:096,1.6006,3.0377,7.743,46.8502,0.0562,0.1007,-0.418,263.9844
19:55:02:116,1.5623,3.2136,8.6013,47.04,0.0072,0.1161,-0.4427,264.3125
19:55:02:133,1.8448,3.2591,9.7697,46.9388,-0.0658,0.1673,-0.4651,264.75
19:55:02:158,1.457,2.2344,13.0581,47.0081,-0.1276,0.3129,-0.5224,265.4531
19:55:02:177,1.3085,1.1486,14.4467,46.4422,0.0959,0.245,-0.464,265.9688
19:55:02:194,0.9662,0.3633,14.3079,47.8322,0.3856,0.2184,-0.3423,265.9688
19:55:02:213,0.892,-0.1742,13.3035,47.2504,0.5265,0.1643,-0.1738,266.5469
19:55:02:235,1.3169,-0.1933,12.0082,44.6231,0.4237,0.0946,-0.0582,267.9219
19:55:02:253,1.603,0.3849,11.6707,45.4588,0.0495,-0.0778,-0.0749,267.9219
19:55:02:281,1.4762,0.228,13.9667,45.4158,-0.3505,-0.3116,-0.1761,268.0469
19:55:02:300,0.5412,-0.7679,16.1131,43.8981,-0.314,-0.2128,-0.2124,268.0469
19:55:02:316,-0.5661,-1.7879,15.1051,44.0805,0.1318,0.1787,-0.0052,268.1406
19:55:02:332,-0.8702,-1.6502,11.4947,43.6441,0.5057,0.4325,0.4223,268.4219
19:55:02:353,-0.304,-0.6901,8.6851,42.3114,0.5827,0.2139,0.7858,268.7031
19:55:02:377,0.6753,0.021,7.6029,43.8891,0.494,-0.2138,0.9544,268.6719
19:55:02:393,1.3864,0.6853,7.403,41.8507,0.3939,-0.4431,0.9762,267.6875
19:55:02:420,1.615,1.2037,7.2103,43.2092,0.3441,-0.4969,0.8822,266.6094
19:55:02:432,1.4067,1.3581,6.82,41.8721,0.2999,-0.3976,0.7698,265.5
19:55:02:453,1.0799,1.4742,6.7314,43.2473,0.2314,-0.2612,0.7184,264.4531
19:55:02:480,1.1038,1.5796,7.0439,43.0746,0.2306,-0.1475,0.707,263.5938
19:55:02:499,1.0691,1.5928,7.1169,41.825,0.3031,-0.0812,0.6641,263.1875
19:55:02:516,0.9003,1.5173,7.1277,41.4999,0.4003,-0.0943,0.63,262.375
19:55:02:533,1.0212,1.4168,7.1947,41.8486,0.4863,-0.1329,0.6297,261.5625
19:55:02:554,1.6222,1.3485,7.3695,41.2628,0.5582,-0.1816,0.6308,260.8125
19:55:02:579,2.4326,1.3833,7.6831,40.243,0.5859,-0.2138,0.5589,260.0625
19:55:02:599,2.9594,1.3677,7.9872,40.9948,0.539,-0.1574,0.3837,259.2969
19:55:02:615,3.1221,1.1426,8.3499,41.4508,0.4469,-0.0061,0.1373,258.2031
19:55:02:634,2.6409,0.8769,8.2721,40.5271,0.2996,0.199,-0.1109,257.6094
19:55:02:653,1.9789,0.5034,8.6528,40.475,0.0714,0.2021,-0.2555,257.25
19:55:02:679,2.0771,0.1478,9.8199,40.8635,-0.1012,0.0506,-0.2712,257.1719
19:55:02:701,2.2339,0.2041,11.1703,39.8553,-0.1627,-0.0431,-0.2763,257.3281
19:55:02:713,2.3021,0.0605,12.4919,39.273,-0.1513,0.0719,-0.2962,257.625
19:55:02:733,2.2902,-0.2616,12.2189,38.2804,-0.0732,0.2735,-0.2608,257.9375
19:55:02:753,2.1848,-0.2723,10.5585,38.7738,-0.1545,0.3156,-0.1471,258.2969
19:55:02:778,2.8588,0.0928,9.8056,40.2632,-0.5771,-0.0335,-0.0366,258.6094
19:55:02:798,3.5052,0.4675,13.3143,38.9507,-1.1683,-0.5023,-0.0832,258.7969
19:55:02:815,3.8081,-0.2532,18.0368,38.1862,-1.1492,-0.4525,-0.1413,258.8906
19:55:02:834,3.1796,-0.8972,18.4438,38.8176,-0.3616,-0.0125,-0.06,259.1094
19:55:02:855,2.7271,-1.2324,13.428,39.1012,0.4421,0.4637,0.2508,259.5
19:55:02:880,2.3476,-0.1443,8.6911,39.0215,0.6362,0.5473,0.5562,259.7812
19:55:02:898,2.2973,1.3354,6.4908,40.6356,0.3827,0.3201,0.6375,259.7812
19:55:02:914,2.2459,2.0249,6.2322,38.9213,0.0597,0.0722,0.5027,258.9844
19:55:02:933,1.9514,2.0034,6.5399,38.84,-0.1334,0.053,0.3426,258.1719
19:55:02:954,1.5551,1.8609,6.2825,38.4097,-0.1827,0.2703,0.2697,257.4375
19:55:02:980,1.3816,1.9076,5.5032,40.2051,-0.2037,0.4554,0.2569,256.9688
19:55:02:998,1.5671,2.0465,5.3787,38.2066,-0.2093,0.4903,0.2393,256.6406
19:55:03:014,1.9155,2.1877,5.5391,39.3611,-0.1406,0.4927,0.1693,256.3281
19:55:03:033,2.1465,2.6354,6.4297,39.2566,0.0136,0.3753,0.0441,255.9844
19:55:03:053,2.0819,2.9922,7.1492,39.9261,0.24,0.2288,-0.1154,255.7031
19:55:03:078,1.7467,3.374,7.8184,37.2076,0.4205,0.0381,-0.2587,255.5156
19:55:03:094,1.5073,3.5249,7.8567,39.0678,0.4615,-0.0029,-0.3668,255.5
19:55:03:113,1.196,3.7128,8.2015,38.1848,0.2288,0.0136,-0.4675,255.6562
19:55:03:133,1.0847,3.477,9.474,38.6557,-0.1249,0.1936,-0.5399,255.9531
19:55:03:153,1.1254,3.0592,10.9201,37.0216,-0.3888,0.4477,-0.5873,256.4062
19:55:03:178,1.0177,2.5816,11.7844,39.2189,-0.5199,0.7556,-0.5911,257.2656
19:55:03:194,0.9662,2.0883,12.4572,37.4175,-0.5758,1.0533,-0.569,257.875
19:55:03:217,0.7722,1.6071,13.4304,37.9812,-0.5601,1.4245,-0.5562,258.4688
19:55:03:232,-0.2262,1.084,13.7165,38.1274,-0.266,1.5883,-0.4699,259.0156
19:55:03:253,-1.4232,0.3765,11.8933,37.4925,0.2139,1.2869,-0.2398,259.4844
19:55:03:278,-2.0002,0.4974,9.9432,38.486,0.4607,0.7345,0.1195,259.7812
19:55:03:299,-1.5896,0.7129,8.3834,39.429,0.3768,0.1848,0.4036,259.875
19:55:03:315,-0.9695,0.8194,8.6408,37.5152,-0.0325,-0.3616,0.5546,259.625
19:55:03:333,0.0767,0.5237,11.2206,37.4996,-0.4546,-0.6367,0.6231,259.1562
19:55:03:353,0.5352,0.0114,13.2963,38.4578,-0.5409,-0.5925,0.5741,258.5781
19:55:03:380,0.2862,-0.4148,13.8075,38.5965,-0.3904,-0.4493,0.5562,258.2812
19:55:03:400,0.2156,-0.653,12.8007,38.2298,-0.2346,-0.2298,0.6345,257.6719
19:55:03:412,0.4407,-0.483,11.0841,38.8881,-0.1758,0.0434,0.7336,257.1562
19:55:03:433,0.5268,-0.0832,9.4572,38.0645,-0.1747,0.2458,0.7682,256.5469
19:55:03:453,0.5735,0.1658,7.9991,37.8137,-0.1856,0.3689,0.756,255.7812
19:55:03:481,0.7208,0.4328,6.7961,36.7795,-0.2357,0.4227,0.7174,254.4844
19:55:03:496,0.7495,0.6806,6.2358,38.7277,-0.3167,0.3545,0.6332,253.5781
19:55:03:517,0.3126,0.8877,6.6907,37.2499,-0.3289,0.2328,0.5379,252.7188
19:55:03:539,-0.2657,0.7117,6.8056,37.7134,-0.1393,0.1734,0.5227,252
19:55:03:553,-0.377,0.8853,5.9808,36.0253,0.1228,-0.024,0.7493,251.375
19:55:03:574,0.2467,1.3342,6.5734,38.711,0.0967,-0.1702,0.8281,251.375
19:55:03:595,1.1757,1.6478,7.8651,38.053,0.1049,-0.3422,0.7757,250.75
19:55:03:614,1.4725,1.8118,9.1771,37.9633,0.1806,-0.4109,0.5965,250.0781
19:55:03:632,1.1613,1.6873,9.8559,38.1743,0.2421,-0.3068,0.389,249.2188
19:55:03:653,0.7411,1.5233,10.1288,36.3136,0.2205,-0.0434,0.2425,248.2812
19:55:03:674,0.4586,1.4575,10.3826,38.4685,0.147,0.1193,0.1493,247.4375
19:55:03:697,0.6513,1.3066,10.8758,37.9496,0.0788,0.0975,0.0814,246.8281
19:55:03:713,1.0045,0.9918,11.5797,38.9609,0.0402,-0.0021,-0.0078,245.9375
19:55:03:735,1.1026,0.5596,11.8646,37.7046,0.0464,-0.0788,-0.0829,245.8281
19:55:03:756,1.548,0.1059,11.843,36.6048,0.0386,-0.1212,-0.0952,245.8125
19:55:03:781,2.5428,-0.0353,11.2756,37.3915,-0.0333,-0.1435,-0.166,245.9844
19:55:03:797,2.9402,0.0581,10.7142,36.8884,-0.2647,-0.2711,-0.3967,245.9844
19:55:03:813,2.2327,-0.149,11.8383,38.2309,-0.6447,-0.555,-0.6811,246.125
19:55:03:833,1.2283,-0.9224,14.7867,38.2899,-0.7992,-0.5609,-0.7724,246.2656
19:55:03:853,0.9985,-1.388,15.5995,37.7741,-0.4335,-0.0288,-0.6015,246.7656
19:55:03:882,1.2774,-1.321,12.9707,38.5492,0.1137,0.5004,-0.2976,247.6094
19:55:03:898,2.38,-0.6446,9.4704,36.9697,0.396,0.6091,-0.0251,248.5938
19:55:03:916,3.7159,0.4076,7.3204,38.861,0.2746,0.2477,-0.076,249.3125
19:55:03:932,3.5435,1.2085,7.1887,37.1072,-0.0916,-0.1355,-0.4337,249.5938
19:55:03:952,2.0891,0.8769,8.5115,37.3988,-0.3806,-0.1664,-0.7964,249.5312
19:55:03:972,0.2264,0.2256,9.0394,35.8922,-0.3888,0.1966,-0.8622,249.5781
19:55:03:999,-0.9181,0.3083,8.3834,38.8249,-0.1795,0.5659,-0.6046,251.0156
19:55:04:015,-0.5697,0.738,7.1181,38.1315,0.106,0.5497,-0.2784,252
19:55:04:031,-0.0645,1.3737,6.5243,39.1791,0.3217,0.2301,-0.1085,252.375
19:55:04:053,0.4071,1.6454,6.2825,40.1971,0.4796,-0.0184,-0.0571,252.7969
19:55:04:079,0.7112,1.8741,6.0072,38.5915,0.5119,-0.1265,-0.0744,252.9375
19:55:04:138,0.7136,2.226,6.3424,38.5915,0.391,-0.1848,-0.1354,253
19:55:04:138,0.4706,2.3314,7.5047,38.8239,0.2429,-0.2365,-0.1953,253.0625
19:55:04:139,0.3161,2.3804,8.9999,38.2975,0.2125,-0.2847,-0.2046,253.1719
19:55:04:155,-0.0813,2.4726,10.3598,38.4793,0.3483,-0.36,-0.1937,253.3906
19:55:04:181,-0.2764,2.3996,11.3067,40.2281,0.5846,-0.4338,-0.1429,253.6562
19:55:04:196,0.048,2.2009,11.1703,37.0749,0.7638,-0.372,-0.056,253.8906
19:55:04:213,0.3509,2.4247,10.7381,39.8319,0.7263,-0.2301,-0.0142,254.1406
19:55:04:236,0.0025,2.3804,11.0194,36.6104,0.5302,-0.1156,-0.0417,254.2812
19:55:04:252,-0.2692,1.9471,11.6922,39.9451,0.3414,0.0229,-0.0185,254.3125
19:55:04:273,-0.2154,1.5245,12.1303,39.845,0.2141,0.228,0.0321,254.3281
19:55:04:298,-0.4464,1.4922,11.9436,39.4015,0.1196,0.444,0.0939,254.3594
19:55:04:316,-0.5937,1.4407,11.4133,39.9048,0.0221,0.4882,0.1371,254.3594
19:55:04:332,-0.9911,1.3964,11.272,38.3611,-0.1132,0.2131,0.1746,254.1875
19:55:04:353,-1.0749,0.7799,12.7636,39.8588,-0.204,-0.3121,0.2422,253.9688
19:55:04:380,-1.2664,-0.1131,14.1223,38.7128,-0.0831,-0.4498,0.3924,253.7344
19:55:04:400,-0.9887,-0.6387,13.3442,40.6513,0.1971,-0.2671,0.6441,253.5156
19:55:04:416,-0.219,-0.0497,10.7704,38.9427,0.347,-0.1371,0.8665,253.25
19:55:04:432,0.5328,0.7069,9.0646,41.6649,0.2501,-0.2554,0.907,252.7344
19:55:04:452,1.1374,0.9583,8.5007,39.9268,0.0519,-0.2881,0.7983,251.8594
19:55:04:473,1.3492,1.2528,8.9903,40.0719,-0.0857,-0.164,0.654,250.875
19:55:04:496,1.2319,1.6155,9.9085,42.5947,0.0727,-0.0676,0.541,249.9375
19:55:04:512,0.7735,1.8358,10.1647,42.5399,0.5412,-0.0999,0.5048,249.1406
19:55:04:532,0.3844,2.0285,8.8192,42.9249,1.0807,-0.1523,0.5195,248.5312
19:55:04:553,0.194,2.0536,6.6141,43.7708,1.3132,-0.0511,0.5426,247.9219
19:55:04:572,0.5161,2.1638,4.8795,42.1221,1.1398,0.1619,0.5576,247.2969
19:55:04:598,0.9686,2.5121,4.1564,40.4614,0.7183,0.29,0.5016,246.2812
19:55:04:616,1.0081,2.7096,4.8544,42.6044,0.282,0.1742,0.3722,245.5156
19:55:04:631,0.862,2.4223,6.5926,43.2857,0.0368,-0.0575,0.2619,244.8125
19:55:04:652,0.783,1.8765,7.7944,43.518,-0.053,-0.0738,0.2428,244.3438
19:55:04:675,0.7387,1.8693,8.6432,43.6348,-0.0932,0.0349,0.2966,244.0625
19:55:04:697,0.9123,2.0165,9.2705,44.2758,-0.0999,0.1643,0.312,243.7969
19:55:04:714,1.0404,2.0608,9.5422,43.5856,-0.0887,0.2373,0.2638,243.4844
19:55:04:734,1.0763,1.9531,10.0091,42.4278,-0.1025,0.1337,0.2034,243.0938
19:55:04:752,1.0224,1.6586,10.6136,43.5423,-0.0887,-0.1012,0.1576,242.75
19:55:04:773,0.7567,1.4826,11.1391,44.4607,-0.086,-0.277,0.1594,242.5
19:55:04:798,1.0224,1.0265,11.4372,43.3049,-0.1316,-0.1933,0.2303,242.3594
19:55:04:814,1.5061,1.1247,11.0494,45.5948,-0.1965,0.0189,0.2968,242.2969
19:55:04:832,2.0304,1.5413,10.1108,43.4318,-0.2756,0.0663,0.2582,242.1562
19:55:04:853,2.3117,2.1051,9.4393,44.444,-0.4783,-0.1443,0.0782,241.875
19:55:04:874,2.4602,1.9818,11.0302,43.2789,-0.821,-0.5292,-0.2102,241.5625
19:55:04:896,1.7982,1.0146,14.1463,45.1941,-0.9641,-0.527,-0.4004,241.4219
19:55:04:916,0.9219,0.3549,15.742,44.7386,-0.6591,-0.0437,-0.2973,241.8281
19:55:04:934,1.864,1.0205,9.2525,45.0164,0.1502,0.5049,0.2646,242.4844
19:55:04:953,2.7989,1.4994,6.8475,45.1381,0.0088,0.2703,0.2406,242.4844
19:55:04:975,2.7953,1.7807,6.4609,44.8813,-0.3622,0.1252,0.0643,242.8906
19:55:04:996,2.1286,1.8549,7.3766,44.4607,-0.5835,0.0823,-0.0787,242.4219
19:55:05:015,1.4546,2.0058,7.8136,44.3692,-0.5113,0.0208,-0.0925,242.1094
19:55:05:033,1.5372,2.39,7.8902,44.454,-0.3396,-0.0138,0.0159,242.0469
19:55:05:057,2.0807,3.0831,7.8639,43.9455,-0.176,-0.0786,0.087,242.1719
19:55:05:079,2.4841,3.6601,8.4864,43.46,-0.0107,-0.2549,0.0121,242.3125
19:55:05:097,2.4554,3.6985,8.9532,44.333,0.1771,-0.3007,-0.1777,242.3281
19:55:05:112,1.5899,3.2471,8.9377,44.8566,0.3377,-0.1619,-0.3785,242.2656
19:55:05:137,0.3066,2.7587,8.8371,43.8145,0.4384,0.1268,-0.4102,242.7031
19:55:05:151,-0.3554,2.6294,8.3487,43.5868,0.5324,0.3814,-0.2446,242.7031
19:55:05:176,-0.1819,3.0341,7.822,44.4887,0.5428,0.4088,-0.0233,243.1406
19:55:05:200,0.4466,3.5392,8.5582,45.6262,0.4501,0.2195,0.0731,243.4688
19:55:05:217,0.5963,3.6051,9.9971,45.6776,0.3835,0.0967,0.022,243.4688
19:55:05:234,0.2659,3.2962,11.1188,42.8516,0.4149,0.1289,-0.0536,243.3125
19:55:05:251,-0.371,2.7887,11.5952,43.7493,0.4703,0.2472,-0.0656,243.1875
19:55:05:271,-0.7684,2.4128,11.9819,43.2395,0.4863,0.3926,0.0276,243.1719
19:55:05:297,-0.687,2.2272,11.9975,44.8087,0.4836,0.501,0.1346,243.1719
19:55:05:310,-0.6367,2.1075,11.6575,43.868,0.4296,0.5212,0.1932,243.1562
19:55:05:332,-0.7193,2.0081,11.4707,44.1608,0.3297,0.4749,0.2319,243.0312
19:55:05:351,-0.881,1.7663,11.0458,40.2105,0.2099,0.3622,0.2705,242.7344
19:55:05:372,-1.0677,1.552,11.381,42.6517,0.0488,0.1225,0.3413,242.375
19:55:05:393,-0.9576,1.0888,12.6762,41.5193,-0.0088,-0.0312,0.4287,242.0156
19:55:05:410,-1.0797,0.4495,12.7469,41.6435,0.1294,0.0623,0.5184,241.6094
19:55:05:434,-1.2281,0.2436,10.9428,41.1542,0.281,0.2472,0.6809,240.9531
19:55:05:450,-1.0629,0.6375,8.9269,42.0011,0.2205,0.2091,0.8593,240.4531
19:55:05:470,-0.3483,1.0265,8.0782,42.5877,-0.0056,-0.0892,0.9672,239.7344
19:55:05:496,0.2084,1.5185,8.9449,41.9701,-0.229,-0.338,0.9802,238.7656
19:55:05:516,0.6274,1.6837,9.7876,41.5001,-0.1912,-0.2168,0.9464,237.7344
19:55:05:538,0.394,1.6263,8.8634,40.7937,0.0525,0.0876,0.9027,236.6719
19:55:05:550,0.115,1.746,6.9361,41.1183,0.2309,0.4123,0.9642,235.6562
19:55:05:571,0.3377,2.1087,5.6049,42.8791,0.2661,0.4749,1.0577,234.6719
19:55:05:611,0.9159,2.4331,4.8472,42.0155,0.2338,0.2916,1.0665,233.5469
19:55:05:612,1.0859,2.6043,4.9382,42.2135,0.1537,-0.0125,1.0002,232.2656
19:55:05:631,1.226,2.4487,5.8743,40.5985,0.0871,-0.2391,0.9389,230.9219
19:55:05:651,1.4594,2.3278,6.759,39.2877,0.0788,-0.2908,0.899,229.75
19:55:05:673,1.8676,2.5145,7.1181,40.345,0.0647,-0.262,0.8545,228.6719
19:55:05:695,2.2351,2.8952,7.9549,39.9854,0.012,-0.229,0.7514,227.6719
19:55:05:717,2.4925,3.0281,9.0514,40.8154,0.0589,-0.1134,0.5802,226.7656
19:55:05:734,2.289,2.8545,8.9161,39.8784,0.1816,0.0812,0.3826,225.4844
19:55:05:751,1.7168,2.7444,7.877,40.1581,0.155,0.2144,0.2668,224.8438
19:55:05:771,1.4438,2.8222,7.8088,39.4989,-0.0996,0.0951,0.2305,224.3906
19:55:05:792,1.7455,2.6007,8.903,39.8338,-0.3995,-0.1438,0.1842,224.1875
19:55:05:811,1.9669,2.1003,10.6615,40.2207,-0.6309,-0.3656,0.107,223.8594
19:55:05:831,2.1573,1.4551,12.0166,39.3775,-0.7678,-0.4024,0.108,223.6562
19:55:05:850,2.5918,1.1199,12.4021,39.6354,-0.8586,-0.3411,0.1336,223.625
19:55:05:870,3.103,1.1714,12.1974,38.7182,-1.061,-0.4759,0.0462,223.6719
19:55:05:893,2.6254,1.0265,14.2684,42.2311,-1.3651,-0.7446,-0.1463,223.7031
19:55:05:912,1.5468,0.5764,17.3473,38.5068,-1.3177,-0.6138,-0.2156,223.7656
19:55:05:931,1.5899,0.2376,17.4562,40.279,-0.7369,-0.0652,-0.0433,224.0938
19:55:05:951,2.6146,0.4064,13.7309,39.0934,-0.041,0.334,0.2084,224.6562
19:55:05:971,3.8847,1.2432,9.8523,37.5088,0.3342,0.2653,0.3299,225.0469
19:55:06:001,4.6054,2.05,7.5993,39.7347,0.35,-0.0772,0.1655,224.9688
19:55:06:010,4.5192,2.3924,6.8056,39.2991,0.0831,-0.1736,-0.1969,224.5469
19:55:06:031,3.5998,2.1889,7.1791,39.1517,-0.2493,0.0759,-0.5722,224.0938
19:55:06:050,2.4841,1.7819,7.2162,38.1816,-0.3907,0.4866,-0.8025,224.3281
19:55:06:070,1.3181,1.5808,6.5135,38.499,-0.3598,0.6597,-0.8587,225.0156
19:55:06:095,0.3844,1.5664,6.2993,38.94,-0.2722,0.4613,-0.7735,225.9219
19:55:06:111,-0.0154,1.6694,6.9038,38.9919,-0.1225,0.1774,-0.6076,226.8281
19:55:06:131,-0.0238,1.8932,7.2701,39.8644,0.0767,0.0613,-0.4331,227.6875
19:55:06:181,0.2946,2.1051,6.996,38.7186,0.2173,0.0682,-0.2989,228.375
19:55:06:182,0.6645,2.4235,6.972,39.3044,0.2218,0.0722,-0.2369,228.8281
19:55:06:199,0.777,2.5947,7.707,38.0873,0.1468,0.0394,-0.2246,229.1406
19:55:06:211,0.9075,2.724,8.9868,40.5146,0.1132,0.0474,-0.227,229.375
19:55:06:231,0.8429,2.7228,10.2653,39.2507,0.1752,0.1502,-0.2345,229.6094
19:55:06:251,0.6849,2.4714,10.5837,39.4607,0.3569,0.2666,-0.2262,229.8438
19:55:06:272,0.4299,2.2476,9.7074,39.4607,0.4461,0.3412,-0.1998,230.0625
19:55:06:296,0.2527,1.9782,9.4213,40.6796,0.2975,0.2871,-0.1825,230.1562
19:55:06:321,-0.602,1.3234,11.454,39.5252,0.0847,0.1785,-0.1452,230.3125
19:55:06:332,-2.5557,-0.1287,13.3466,40.6018,0.701,-0.1955,0.5578,230.5
19:55:06:352,-1.1635,0.4196,11.3235,40.6018,0.8653,-0.1521,1.005,230.625
19:55:06:371,0.7316,1.5281,9.7326,40.9413,0.5438,0.0586,1.1227,230.5156
19:55:06:395,1.2295,2.5313,9.6511,41.3634,-0.0895,0.1838,0.9187,229.8438
19:55:06:415,1.2619,2.3218,12.1483,41.2466,-0.6091,0.134,0.671,227.2656
19:55:06:431,1.0548,1.4323,14.7436,41.8721,-0.6029,0.1486,0.5131,227.2656
19:55:06:451,0.558,0.6518,13.8673,41.8628,-0.2077,0.4011,0.4814,226.25
19:55:06:471,0.4083,0.92,10.6052,41.5166,-0.0514,0.5966,0.5634,225.5312
19:55:06:495,1.1541,1.6538,9.5219,42.1731,-0.2032,0.3942,0.6063,224.9844
19:55:06:515,1.6497,2.2356,10.3443,41.781,-0.2226,0.0834,0.5264,224.4219
19:55:06:541,1.6976,2.3098,10.3,42.6602,-0.0107,-0.0013,0.4196,223.6875
19:55:06:550,1.5994,2.329,9.0837,42.8041,0.2037,0.1217,0.3474,222.3906
19:55:06:570,1.3349,2.3553,7.4305,43.0228,0.2983,0.2107,0.3016,222.1406
19:55:06:598,0.9063,2.4152,6.6129,42.7505,0.2762,0.143,0.2947,221.6875
19:55:06:618,0.5364,2.3302,6.5746,43.2199,0.2498,0.0626,0.324,221.2656
19:55:06:630,0.2156,2.0931,6.9565,44.0649,0.2562,0.0658,0.4036,220.9062
19:55:06:658,0.2288,1.9543,7.2402,43.5664,0.3377,0.1582,0.5461,220.5156
19:55:06:671,0.6094,2.135,6.8751,44.2583,0.4424,0.1726,0.6433,220.2969
19:55:06:691,0.977,2.4247,6.5974,45.6159,0.4456,0.0325,0.6561,219.7969
19:55:06:712,1.1888,2.651,7.6053,46.3257,0.3763,-0.1976,0.6074,219.1562
19:55:06:730,1.1386,2.6378,9.0921,45.1505,0.4003,-0.3734,0.5291,218.3438
19:55:06:751,1.36,2.4619,9.772,45.847,0.534,-0.3992,0.4545,217.5469
19:55:06:771,1.5468,2.5301,9.2501,47.6584,0.5883,-0.3246,0.3434,216.875
19:55:06:796,1.554,2.6318,8.6384,47.21,0.4418,-0.31,0.194,216.2969
19:55:06:816,1.4989,2.4918,8.873,47.9206,0.1494,-0.4059,0.0409,215.7812
19:55:06:833,1.5276,2.1039,10.2736,48.6028,-0.1747,-0.4839,-0.076,215.25
19:55:06:852,1.5228,1.4647,11.9125,49.019,-0.384,-0.4269,-0.1125,215.1406
19:55:06:871,1.9861,0.9703,12.8474,48.1896,-0.4197,-0.2871,-0.0433,215.2656
19:55:06:898,2.9079,1.0684,12.5397,48.4237,-0.4346,-0.0298,-0.0105,215.5156
19:55:06:916,3.7123,1.4024,11.7066,49.2205,-0.6714,0.3843,-0.1876,215.7344
19:55:06:932,3.7806,1.3617,11.9149,48.9761,-1.1438,0.8536,-0.5522,215.8281
19:55:06:951,2.5164,0.5237,14.0672,50.5024,-1.3779,1.2102,-0.8731,215.9531
19:55:06:971,1.0356,-0.3921,14.2863,50.5243,-0.9979,1.4243,-0.8678,216.375
19:55:06:997,0.5771,-0.8134,12.4045,50.2314,-0.331,1.2213,-0.5386,217.2188
19:55:07:015,1.2894,-0.6099,9.4201,50.6427,0.2288,0.701,-0.1479,218.2188
19:55:07:031,2.2507,0.422,7.0666,51.2769,0.3928,0.1199,0.022,218.9062
19:55:07:051,2.5535,1.345,5.9868,51.4198,0.1345,-0.1467,-0.1194,219.1562
19:55:07:073,2.0855,1.5018,6.1975,52.1126,-0.3142,0.0376,-0.3953,219.1094
19:55:07:096,0.9829,1.2707,6.6033,53.1272,-0.6091,0.4416,-0.5951,219.125
19:55:07:116,-0.0011,1.2109,6.5878,52.3543,-0.6085,0.709,-0.6041,219.4219
19:55:07:133,-0.6894,1.4263,6.0706,53.9341,-0.3792,0.6504,-0.4643,220.3594
19:55:07:152,-0.4536,1.6466,5.5283,52.855,-0.0493,0.3745,-0.2337,220.9844
19:55:07:171,0.856,2.1805,4.9741,52.3077,0.216,0.0786,-0.0994,221.4375
19:55:07:198,1.6174,2.8677,4.858,53.5294,0.2791,-0.1776,-0.2172,221.5781
19:55:07:215,0.7902,3.0592,5.5283,54.486,0.1867,-0.3627,-0.4672,221.7031
19:55:07:231,-0.7732,2.8353,6.9517,54.023,0.1366,-0.4719,-0.5413,221.8438
19:55:07:250,-1.4053,2.8964,8.2039,54.7485,0.1358,-0.4866,-0.4049,222.25
19:55:07:270,-0.9324,3.38,9.5123,55.5744,0.093,-0.4149,-0.2283,222.9219
19:55:07:290,0.0636,3.7176,10.9428,54.572,0.0469,-0.3467,-0.2214,223.5469
19:55:07:312,0.2683,3.5536,11.9999,55.6094,0.0152,-0.314,-0.3612,223.9219
19:55:07:332,-0.1747,3.1849,13.3849,57.0741,-0.0253,-0.241,-0.4547,224.1875
19:55:07:351,-0.7481,2.736,14.3689,55.2661,0.0378,-0.1089,-0.4289,224.5625
19:55:07:371,-0.7696,2.384,14.6227,57.0214,0.188,0.0088,-0.2989,225.0625
19:55:07:399,-0.0825,2.2224,13.8745,55.9688,0.3348,0.1249,-0.1745,225.6094
19:55:07:412,0.5663,2.2356,12.5134,58.4815,0.3446,0.203,-0.1695,226.1719
19:55:07:431,0.8141,2.0632,11.4276,56.6031,0.1862,0.228,-0.2808,226.3281
19:55:07:451,0.1677,1.8645,11.0374,57.5926,-0.0807,0.2397,-0.4329,226.4688
19:55:07:472,-0.7541,1.4503,11.946,56.8819,-0.3041,0.2621,-0.4936,226.75
19:55:07:497,-1.5334,0.6087,12.6044,57.3053,-0.2897,0.2871,-0.4094,227.1875
19:55:07:520,-1.8362,-0.1095,12.092,55.3906,-0.0996,0.1888,-0.1668,227.4531
19:55:07:537,-1.4029,-0.2999,10.7166,56.9931,0.0346,-0.0911,0.1315,227.9688
19:55:07:550,-0.4991,0.2352,10.2521,56.5401,-0.0304,-0.5353,0.328,228.2812
19:55:07:571,0.4885,0.647,11.1631,55.2761,-0.1566,-0.719,0.3434,228.2969
19:55:07:599,0.4239,0.7739,11.2852,55.8497,-0.1281,-0.5356,0.2713,228.0625
19:55:07:618,-0.2992,0.8242,10.3083,56.3372,0.0048,-0.2192,0.3027,227.6094
19:55:07:633,-0.772,0.8781,8.7126,55.3836,0.163,0.0213,0.483,227.3906
19:55:07:651,-0.687,1.1355,7.5323,55.5047,0.3041,0.065,0.7363,227.0781
19:55:07:671,-0.0298,1.582,6.9158,54.2825,0.4477,-0.0045,0.9205,226.5156
19:55:07:693,0.7136,1.9579,6.4992,53.8362,0.5558,-0.0607,0.9333,225.6875
19:55:07:715,0.9327,2.0512,6.0503,54.4119,0.5814,0.0056,0.8396,224.6094
19:55:07:733,0.9686,2.2404,6.0431,53.5604,0.4277,0.0429,0.6569,223.5
19:55:07:752,1.2295,2.3828,6.7961,53.6809,0.3273,-0.0205,0.5584,222.5
19:55:07:774,1.4618,2.5157,8.1596,53.3268,0.2674,-0.0626,0.4193,221.6406
19:55:07:799,1.0847,2.3745,8.8934,52.8325,0.3127,0.0211,0.2502,220.1875
19:55:07:817,0.3952,2.0117,8.3044,51.1494,0.3071,0.1729,0.1538,219.7188
19:55:07:834,0.2527,1.8992,8.3008,52.9351,0.1358,0.1966,0.1578,219.3906
19:55:07:850,0.3018,1.6394,9.9552,51.3482,0.0309,-0.0445,0.1698,219.3906
19:55:07:870,-0.0418,1.1678,11.6946,51.3628,0.1193,-0.3052,0.2534,219.1719
19:55:07:892,0.048,0.9846,12.1591,52.1759,0.2117,-0.364,0.4745,218.9531
19:55:07:918,1.5743,0.8458,11.5809,51.8909,0.1638,-0.3036,0.6596,218.7656
19:55:07:934,2.9031,1.3725,10.9727,49.6184,-0.0522,-0.2463,0.6228,218.5156
19:55:07:951,3.6584,2.0453,10.7489,49.59,-0.3334,-0.3252,0.3458,218.0156
19:55:07:970,3.6429,2.2188,11.6168,50.8443,-0.6466,-0.4099,-0.109,217.3438
19:55:07:990,2.7032,1.1726,13.0162,50.1451,-0.833,-0.1734,-0.5216,216.6719
19:55:08:016,1.4833,0.0389,13.2329,49.5437,-0.767,0.2674,-0.5919,216.3594
19:55:08:033,1.5731,-0.2951,11.6719,48.9595,-0.5185,0.5308,-0.3498,216.6094
19:55:08:050,2.3704,0.5201,9.6452,48.2034,-0.3337,0.3444,-0.1511,217.3281
19:55:08:070,2.7834,1.3055,8.6432,49.2517,-0.2967,-0.0466,-0.219,218.0625
19:55:08:090,2.1693,1.3689,7.9632,47.9357,-0.3883,-0.1686,-0.4246,218.4219
19:55:08:120,1.1326,1.2803,7.2833,48.5969,-0.555,0.037,-0.52,218.5781
19:55:08:131,0.461,1.4371,6.899,47.9218,-0.6402,0.2216,-0.4758,218.8594
19:55:08:149,0.1821,1.7089,6.8715,47.5537,-0.5566,0.1856,-0.3583,219.7031
19:55:08:170,0.4059,2.1147,7.1684,47.4283,-0.3417,-0.0077,-0.2313,220.3125
19:55:08:254,0.5855,2.2523,7.3838,46.4434,-0.0703,-0.1302,-0.1759,220.8281
19:55:08:254,0.4706,2.2464,7.0499,46.7642,0.1324,-0.0929,-0.1437,221.1875
19:55:08:255,0.3305,2.3146,6.8942,45.1143,0.192,0.0155,-0.0923,221.4375
19:55:08:256,0.3616,2.4547,7.3431,43.8361,0.2008,0.0413,-0.0185,221.625
19:55:08:280,0.3221,2.7671,8.1225,45.7207,0.2701,-0.0887,0.0529,221.75
19:55:08:296,0.0731,2.8892,9.2944,44.3167,0.375,-0.2929,0.1304,221.7969
19:55:08:313,0.1246,2.7958,10.8363,45.5857,0.5273,-0.347,0.2454,221.75
19:55:08:330,0.522,2.7934,11.1523,44.6164,0.7268,-0.2146,0.345,221.6562
19:55:08:350,0.625,3.2148,10.9596,43.4883,0.767,-0.1334,0.3762,221.4531
19:55:08:370,0.6585,3.2651,11.618,43.5982,0.6565,-0.0807,0.3626,221.0781
19:55:08:390,0.795,2.906,12.3578,43.6106,0.5883,0.0043,0.369,220.6094
19:55:08:413,1.0093,2.6881,12.4081,42.0558,0.6027,0.1063,0.4111,220.125
19:55:08:430,1.1805,2.6701,11.5833,43.6672,0.5731,0.1675,0.4518,219.9062
19:55:08:455,1.4306,2.7982,10.7585,42.1554,0.4077,0.1649,0.4545,219.1562
19:55:08:470,1.6844,2.985,10.4029,41.378,0.0794,0.0309,0.3746,218.5625
19:55:08:492,1.876,2.9167,12.0011,41.3779,-0.3228,-0.2538,0.2201,217.9844
19:55:08:520,1.5145,2.0584,14.3929,40.9783,-0.4679,-0.3395,0.0566,217.4531
19:55:08:538,0.4682,0.9655,15.0453,39.9271,-0.249,-0.0447,0.0209,217.1406
19:55:08:552,0.1067,0.4304,12.6607,41.1277,0.0448,0.3436,0.2095,217.0938
19:55:08:571,0.5927,1.0576,9.9959,39.8412,0.0567,0.3753,0.4425,217.1562
19:55:08:597,1.5396,1.6837,9.0562,39.6356,-0.0807,0.1111,0.4846,217.0469
19:55:08:616,1.4713,1.8585,8.8539,39.3406,-0.1465,-0.0437,0.3621,216.5781
19:55:08:632,0.789,1.74,8.3882,40.5874,-0.098,0.016,0.2918,216
19:55:08:650,0.3473,1.6682,7.306,37.6493,0.0149,0.208,0.3474,215.5156
19:55:08:670,0.4395,1.8214,6.0203,39.2793,0.1121,0.359,0.4558,215.1875
19:55:08:690,0.8261,2.2117,4.9681,38.7656,0.1617,0.3438,0.5216,214.8438
19:55:08:716,1.0117,2.4666,4.6844,38.4469,0.1742,0.1223,0.5011,214.3281
19:55:08:731,0.8848,2.3338,5.1776,38.1074,0.1974,-0.1374,0.4377,213.6875
19:55:08:750,0.6729,2.2571,5.7941,37.004,0.1838,-0.2024,0.3999,212.7656
19:55:08:769,0.7675,2.2212,6.6333,37.2527,0.106,-0.1201,0.39,212.2656
19:55:08:791,0.8345,2.3206,7.8746,36.5352,0.0551,-0.1166,0.3496,211.8125
19:55:08:815,0.8225,2.3194,9.3303,36.2784,0.094,-0.1723,0.292,211.4062
19:55:08:831,1.111,2.1769,10.3826,35.9844,0.1976,-0.1321,0.2209,211.0156
19:55:08:851,1.3145,2.0201,10.1886,36.6446,0.2296,0.0927,0.1341,210.7031
19:55:08:870,1.694,1.995,9.9935,34.9781,0.097,0.2096,0.0454,210.4375
19:55:08:890,2.0855,1.6933,10.6531,37.8508,-0.1047,0.1273,-0.047,210.2656
19:55:08:911,2.2782,1.3701,11.9137,35.1319,-0.2306,-0.0455,-0.0928,210.1562
19:55:08:930,2.3788,1.2432,13.2532,34.3314,-0.2216,-0.1209,-0.0757,210.1719
19:55:08:950,2.8696,1.0253,13.2413,34.2855,-0.0636,-0.013,-0.0504,210.2656
19:55:08:971,3.3975,1.0696,11.1176,33.9751,0.0029,0.1143,-0.1183,210.4062
19:55:08:989,3.5806,1.5868,9.1352,34.5495,-0.2964,-0.0293,-0.3399,210.5156
19:55:09:014,3.7327,1.7077,10.0546,34.2602,-0.9079,-0.4487,-0.7248,210.5781
19:55:09:031,2.8301,0.507,13.3945,33.9558,-1.2043,-0.6085,-1.0534,210.8125
19:55:09:051,1.1374,-0.4866,14.3977,34.6533,-0.8226,-0.2623,-0.9967,212.0781
19:55:09:070,0.6238,-0.501,11.3929,34.129,-0.2091,0.0381,-0.5831,213.5312
19:55:09:092,1.457,0.6099,8.0949,32.9305,0.0906,-0.1387,-0.1753,214.7344
19:55:09:113,2.6062,1.7532,6.6153,34.0414,0.0948,-0.5944,-0.0952,215.4219
19:55:09:131,2.7582,2.0464,6.8691,33.8495,-0.2863,-0.5912,-0.5887,215.625
19:55:09:151,1.6916,1.6047,6.9074,34.1054,-0.4908,0.0195,-0.762,215.7969
19:55:09:170,0.8441,1.485,6.5135,32.77,-0.612,0.4986,-0.7719,215.7969
19:55:09:193,0.5448,1.6179,6.9265,33.7316,-0.6027,0.4951,-0.6736,216.25
19:55:09:219,0.5029,1.722,7.8052,33.327,-0.4056,0.2384,-0.5658,217.9844
19:55:09:237,0.5017,1.8118,8.1524,31.8126,-0.0895,0.048,-0.4531,217.9844
19:55:09:256,0.9482,2.0105,7.5119,33.5509,0.1334,-0.0061,-0.3482,219.6406
19:55:09:269,1.4426,2.4918,7.3743,32.2126,0.102,-0.0032,-0.3258,219.6406
19:55:09:292,1.5264,2.736,8.2912,31.4853,-0.0434,0.0442,-0.4086,220.7969
19:55:09:315,1.1158,2.6797,9.2621,33.552,-0.1049,0.2336,-0.4891,221.3594
19:55:09:333,0.3928,2.7085,9.6595,33.583,-0.0858,0.3526,-0.5,221.5469
19:55:09:349,-0.1579,2.5851,10.1671,33.9091,-0.0493,0.3646,-0.4238,222.2656
19:55:09:371,-0.11,2.463,10.6304,35.3323,-0.0186,0.2914,-0.3128,222.5312
19:55:09:389,0.0899,2.2104,11.4097,32.5505,-0.0072,0.1204,-0.2347,223.0781
19:55:09:416,0.0133,2.0644,12.4021,33.1751,0.0522,-0.0107,-0.1458,223.5312
19:55:09:431,0.4179,2.1195,12.5374,31.2159,0.1598,-0.119,-0.0616,223.8281
19:55:09:449,0.7435,2.1099,12.3985,32.8816,0.1731,-0.2229,-0.0723,224.0781
19:55:09:469,1.2738,2.0896,12.2584,32.5621,-0.0245,-0.1467,-0.1452,224.25
19:55:09:490,1.2559,1.8394,13.0581,31.5686,-0.4405,-0.0682,-0.3002,224.3125
19:55:09:513,0.479,0.9774,16.1849,33.1253,-0.6887,0.0019,-0.3602,224.4062
19:55:09:533,-0.4356,-0.5489,17.3413,32.8935,-0.3313,0.3513,-0.2339,224.5938
19:55:09:550,-0.5769,-1.2133,14.3402,32.4532,0.2719,0.7036,0.1496,224.9688
19:55:09:569,0.2623,-0.6602,10.5574,32.5728,0.5976,0.6051,0.5498,225.625
19:55:09:589,1.6126,0.0305,8.3631,32.0969,0.5465,0.0831,0.695,225.6562
19:55:09:616,2.1082,0.5896,8.1308,31.4562,0.2682,-0.3518,0.6082,225.125
19:55:09:633,1.8879,0.896,9.2968,33.3394,0.0067,-0.3696,0.4699,224.2812
19:55:09:650,1.2008,0.8781,9.4848,33.1508,-0.0077,-0.0258,0.3893,223.5
19:55:09:675,0.3042,1.0684,8.46,35.6652,0.1318,0.3055,0.4481,222.9219
19:55:09:688,0.1809,1.2216,6.9936,33.3251,0.3188,0.3958,0.5956,222.5
19:55:09:710,0.3161,1.5664,5.5295,34.0012,0.4466,0.2948,0.72,222.0156
19:55:09:731,0.8249,1.9603,4.846,33.1712,0.4575,0.0333,0.7767,221.3594
19:55:09:751,1.214,2.2464,5.3009,33.2624,0.4536,-0.3449,0.7112,220.5469
19:55:09:769,1.3971,2.2057,6.4214,34.6592,0.4509,-0.514,0.6004,219.6094
19:55:09:796,1.3935,1.9878,7.1815,34.006,0.4426,-0.3635,0.5102,218.7344
19:55:09:814,1.4319,2.05,7.7873,34.109,0.4061,-0.1435,0.4561,218.0312
19:55:09:832,1.3672,2.2009,8.2817,35.3144,0.3832,-0.0482,0.3818,217.4219
19:55:09:853,1.1541,2.1686,8.9712,33.4305,0.3883,-0.0194,0.3134,216.8594
19:55:09:870,1.0607,2.074,9.0215,35.0412,0.4235,0.0149,0.2779,216.1406
19:55:09:890,1.111,2.0752,9.2573,36.3199,0.3766,-0.0708,0.2516,215.9375
19:55:09:915,1.6785,1.7316,10.1827,34.529,0.2301,-0.2333,0.2553,215.5469
19:55:09:931,2.5332,1.2564,11.4851,34.7837,0.0418,-0.3808,0.2625,215.2031
19:55:09:949,3.0467,0.9643,13.1191,35.8558,-0.0751,-0.3883,0.2606,214.9219
19:55:09:970,3.5172,0.5513,13.1024,34.6787,-0.0514,-0.1694,0.2303,214.6562
19:55:09:989,3.6309,0.7033,11.5318,34.9298,-0.1172,0.0629,0.124,214.4375
19:55:10:017,3.1724,1.2719,10.2916,35.5768,-0.396,0.1228,-0.1024,214.2188
19:55:10:029,2.3021,1.3785,10.8542,37.0765,-0.7872,-0.0053,-0.4078,214.0156
19:55:10:055,1.3744,0.2292,13.0485,35.4467,-0.9326,-0.0533,-0.5751,214
19:55:10:069,0.5053,-0.5357,13.8087,34.2356,-0.6562,0.2647,-0.3969,214.3594
19:55:10:089,1.2104,-0.4459,11.8083,36.2432,-0.1321,0.4309,-0.0089,215.0625
19:55:10:118,2.3656,0.6303,8.5977,36.7151,0.2487,0.1942,0.2148,215.7656
19:55:10:133,3.4633,1.6131,6.4549,35.7429,0.2591,-0.2562,0.1243,216
19:55:10:150,3.5795,2.0572,5.7079,35.0534,-0.073,-0.429,-0.2278,215.625
19:55:10:173,2.6756,1.892,6.4728,36.5538,-0.5345,-0.2349,-0.5988,215.4844
19:55:10:188,1.5527,1.4168,7.4628,34.7749,-0.8133,0.2285,-0.8097,215.8125
19:55:10:209,0.4682,1.3174,7.6783,37.7042,-0.7984,0.5998,-0.7985,216.5781
19:55:10:235,0.1222,1.5449,7.4964,39.2826,-0.5438,0.5409,-0.663,217.5781
19:55:10:248,-0.0526,1.6598,7.0343,36.8508,-0.2756,0.2796,-0.5615,218.5
19:55:10:344,-0.2656,1.6263,6.9613,37.1067,-0.1222,0.0991,-0.4686,219.2344
19:55:10:344,-0.2776,1.7663,7.3551,36.7868,-0.0804,0.1007,-0.378,219.8594
19:55:10:344,-0.2405,2.1183,8.0387,37.5359,-0.0889,0.2341,-0.2997,220.4062
19:55:10:344,-0.0214,2.463,8.8407,37.0323,-0.0636,0.3167,-0.2342,220.6406
19:55:10:348,0.0779,2.6306,9.2393,36.0762,0.0445,0.3164,-0.1974,220.9844
19:55:10:369,0.1952,2.8497,9.3112,38.7942,0.1103,0.293,-0.1634,221.2656
19:55:10:388,0.1964,2.9431,9.4117,37.3857,0.0693,0.2631,-0.1594,221.4844
19:55:10:408,-0.2058,2.6893,10.136,39.4952,-0.021,0.1601,-0.1514,221.6406
19:55:10:429,-0.4608,2.2823,11.442,39.4856,-0.0884,0.089,-0.0414,221.7656
19:55:10:451,-0.2022,2.1039,12.7325,38.8584,-0.045,0.0754,0.1261,222
19:55:10:468,0.613,1.7879,13.5573,39.3759,0.077,0.082,0.2462,222.0469
19:55:10:489,1.3756,1.6406,13.5082,38.695,0.1537,0.155,0.2588,221.9062
19:55:10:513,1.8221,1.6969,13.282,39.2293,0.0876,0.3191,0.1456,221.6094
19:55:10:533,0.7196,1.242,13.0425,40.4847,-0.1875,0.4006,-0.2829,221.2812
19:55:10:549,-0.353,0.3717,13.9128,40.5278,-0.2788,0.2994,-0.369,221.2812
19:55:10:571,-1.1395,-0.5489,14.5629,40.7246,-0.126,0.3755,-0.1991,221.125
19:55:10:588,-0.8786,-0.8493,12.9444,37.6722,0.2317,0.4669,0.0891,221.4062
19:55:10:610,-0.4596,-0.4507,10.1623,39.5624,0.3801,0.3428,0.3083,221.7969
19:55:10:634,0.0863,0.0712,9.2417,39.7895,0.2163,0.0986,0.4151,221.9844
19:55:10:648,0.3209,0.3717,9.5602,39.7895,0.0906,0.0304,0.4364,221.8281
19:55:10:675,0.1019,0.5118,8.9963,39.9559,0.1984,0.0378,0.4526,221.4375
19:55:10:688,-0.189,0.671,7.4401,40.9358,0.3779,0.0061,0.5602,220.9375
19:55:10:708,0.0588,1.0205,6.1317,39.5071,0.449,-0.1039,0.6976,220.4375
19:55:10:740,0.5017,1.3952,5.7163,39.4244,0.3867,-0.168,0.7365,219.9062
19:55:10:747,0.7124,1.4874,5.7546,39.4651,0.2978,-0.1369,0.6907,219.2656
19:55:10:768,0.6777,1.4814,5.9844,37.1765,0.2211,-0.0679,0.5986,218.4688
19:55:10:791,0.2252,1.3605,6.4274,40.1012,0.1244,-0.0429,0.4782,217.625
19:55:10:815,-0.4201,0.9966,7.7657,39.167,0.0751,0.0631,0.4596,216.875
19:55:10:833,-0.5697,0.9427,8.2386,41.1822,0.2376,0.2448,0.5967,216.1875
19:55:10:847,-0.0741,1.7472,7.2174,39.1767,0.403,0.2773,0.7365,215.6406
19:55:10:868,0.5855,2.5468,6.7973,38.9196,0.3641,0.078,0.7301,215.125
19:55:10:888,0.8716,2.991,7.5143,38.8528,0.2253,-0.1078,0.5911,214.3906
19:55:10:908,0.886,2.9658,8.2577,40.1751,0.0972,-0.1092,0.4036,213.4844
19:55:10:933,0.3389,2.7946,8.8419,40.5986,-0.0527,-0.0365,0.2526,211.9844
19:55:10:949,-0.0909,2.5468,9.7912,41.3927,-0.1963,-0.0442,0.2233,211.7188
19:55:10:968,0.042,2.1698,10.9763,41.2157,-0.2914,-0.1409,0.2702,211.125
19:55:10:988,0.6789,1.661,12.2668,40.4593,-0.3292,-0.2357,0.3738,211.125
19:55:11:008,2.0699,0.8122,12.5829,39.7118,-0.2937,-0.3169,0.4798,210.8906
19:55:11:030,3.5363,0.3681,12.0872,41.3977,-0.3292,-0.4487,0.4707,210.5938
19:55:11:048,4.4605,0.2221,11.9089,40.6655,-0.5422,-0.5276,0.2596,210.1562
19:55:11:069,3.9027,0.009,12.6714,37.9103,-0.8458,-0.4722,-0.1274,209.6719
19:55:11:088,2.1621,-0.6674,14.0553,40.5157,-1.0466,-0.1161,-0.4201,209.3281
19:55:11:108,0.6561,-1.1115,14.1235,40.0268,-0.9017,0.5327,-0.3748,209.375
19:55:11:128,0.5376,-0.7189,11.4193,38.7539,-0.4716,0.8845,-0.0944,209.8281
19:55:11:148,1.22,0.5513,8.3559,38.0742,-0.1443,0.5659,0.1584,210.4219
19:55:11:168,2.1393,1.9172,6.9062,39.4635,-0.0264,-0.2181,0.1805,210.6094
19:55:11:188,2.5045,2.7037,7.3719,37.8153,-0.1201,-0.7939,-0.0851,210.6719
19:55:11:208,1.7251,2.2595,8.5283,38.7444,-0.3028,-0.6341,-0.4041,210.4688
19:55:11:231,0.5316,1.7603,8.8778,38.4371,-0.3957,0.0053,-0.5261,210.3125
19:55:11:249,-0.3255,1.6239,8.138,38.0151,-0.3142,0.5156,-0.4507,210.6875
19:55:11:268,-0.1076,1.7579,6.9816,37.8417,-0.1254,0.5247,-0.272,211.2812
19:55:11:288,0.5436,2.2787,6.7338,38.2463,0.057,0.2096,-0.158,211.875
19:55:11:308,1.0871,2.5229,6.6931,38.1643,0.2274,-0.0016,-0.1777,212.2656
19:55:11:334,1.1589,2.6426,6.4752,35.3857,0.2682,-0.0362,-0.2632,212.4688
19:55:11:350,0.7974,2.712,7.3814,35.0756,0.167,-0.0615,-0.3423,212.625
19:55:11:367,0.3832,2.6115,9.1639,38.1496,0.1377,-0.0631,-0.3663,212.8438
19:55:11:387,0.0181,2.4307,10.5992,36.617,0.2799,-0.0341,-0.337,213.1875
19:55:11:409,-0.2106,2.4463,11.0972,37.6841,0.4698,0.0418,-0.2704,213.5781
19:55:11:430,-0.1256,2.6079,11.0374,34.6182,0.5976,0.1715,-0.2036,213.9844
19:55:11:447,0.0887,2.5349,10.6711,36.2336,0.6488,0.3097,-0.1652,214.2969
19:55:11:467,0.0576,2.6043,10.3096,35.4352,0.5793,0.3891,-0.1277,214.5156
19:55:11:488,-0.0753,2.5157,10.968,34.3055,0.4402,0.3678,-0.0813,214.6406
19:55:11:509,-0.0885,2.1434,11.9101,36.0276,0.3923,0.33,-0.0169,214.7344
19:55:11:534,-0.2657,1.6586,12.5445,35.6459,0.4187,0.3976,0.063,214.7812
19:55:11:553,-0.2956,0.9343,12.0789,33.6224,0.4733,0.5822,0.1442,214.7344
19:55:11:568,0.1115,0.4806,10.7178,33.7819,0.3691,0.8184,0.1999,214.5781
19:55:11:588,0.0887,0.4866,9.6093,35.5514,0.0245,0.8474,0.1352,214.3281
19:55:11:608,-0.6224,0.179,9.9971,33.0141,-0.4162,0.6112,0.0337,213.9844
19:55:11:629,-1.4508,-0.5393,11.1715,34.1591,-0.6479,0.3233,0.0327,213.7031
19:55:11:648,-2.3749,-0.9355,11.2984,34.8709,-0.624,0.1057,0.2052,213.5938
19:55:11:668,-2.588,-0.4866,10.6783,32.1901,-0.5651,-0.2346,0.5554,213.5312
19:55:11:688,-1.2964,0.3765,11.1667,33.4997,-0.5236,-0.7084,0.8601,213.2969
19:55:11:708,-0.3016,1.0086,11.3283,31.6324,-0.3406,-0.9326,0.9435,212.6875
19:55:11:732,0.2623,1.4276,10.1551,32.5011,-0.1214,-0.7915,0.9075,211.8438
19:55:11:750,0.3161,1.5808,8.2553,32.4529,-0.0184,-0.4352,0.8436,211.3594
19:55:11:780,0.0516,1.8561,6.6991,32.2175,-0.0157,-0.1901,0.8303,210.3906
19:55:11:787,0.2515,2.1602,6.2753,31.977,-0.0069,-0.2205,0.8542,209.4688
19:55:11:809,0.5807,2.3972,6.401,30.3357,0.0999,-0.421,0.834,208.5938
19:55:11:829,0.6358,2.4606,6.8272,30.8918,0.2312,-0.5955,0.7672,207.6406
19:55:11:850,0.2563,2.3481,7.2773,31.4377,0.3832,-0.6229,0.716,206.25
19:55:11:868,0.0827,2.1578,7.4257,31.5829,0.5236,-0.6059,0.7208,205.4531
19:55:11:888,0.3521,2.0788,7.6759,30.7288,0.5393,-0.5507,0.7437,204.6562
19:55:11:910,0.8908,2.1757,8.7342,30.8013,0.4698,-0.4762,0.7544,203.8438
19:55:11:934,2.0136,2.3816,10.701,30.9676,0.5979,-0.2751,0.5666,203.0469
19:55:11:952,2.2782,2.22,10.0294,32.4928,0.6408,-0.0775,0.3986,203.0469
19:55:11:968,2.3859,2.1255,9.4093,30.3499,0.4637,-0.0165,0.2449,202.1875
19:55:11:988,2.4877,1.9208,10.3945,30.0487,0.1433,-0.1217,0.1,201.375
19:55:12:008,2.3261,1.3988,12.3865,29.197,-0.0216,-0.1928,-0.0116,200.6875
19:55:12:038,2.1992,0.847,13.0581,29.8259,0.0812,-0.0522,-0.0169,200.1875
19:55:12:051,2.016,0.5968,11.715,29.8434,0.2565,0.0871,0.0127,199.7344
19:55:12:067,2.0328,0.9559,10.0426,28.4304,0.2144,0.056,0.0534,199.7812
19:55:12:089,2.9115,1.3749,9.4608,28.1127,-0.0517,-0.2519,-0.0369,199.7344
19:55:12:115,3.6788,1.2025,11.6659,28.7552,-0.4397,-0.6807,-0.3306,199.6719
19:55:12:134,3.1916,0.1227,14.2947,28.2286,-0.5547,-0.5728,-0.6241,199.6406
19:55:12:149,2.0436,-0.8086,14.521,28.2607,-0.2839,0.032,-0.6483,199.9375
19:55:12:174,1.6497,-0.7236,10.9991,25.2677,0.0578,0.743,-0.403,200.6719
19:55:12:186,1.9358,0.3537,7.6053,26.9299,0.1683,0.8357,-0.1833,201.5156
19:55:12:209,2.3464,1.2635,5.4074,26.7976,0.0788,0.4187,-0.1796,201.8594
19:55:12:233,2.2435,1.8597,4.7394,26.252,-0.2045,-0.0216,-0.3013,202.2188
19:55:12:248,2.1465,2.0931,5.8527,25.0991,-0.5222,-0.2264,-0.4393,202.2969
19:55:12:268,1.7946,2.0405,7.3982,27.2654,-0.6202,-0.1062,-0.5812,202.4219
19:55:12:288,1.1302,2.1183,7.7789,26.3048,-0.5159,0.2155,-0.6275,202.7969
19:55:12:307,0.7627,2.3948,7.379,25.4188,-0.3079,0.4424,-0.5714,203.3906
19:55:12:329,0.9829,2.7108,6.4214,27.2027,-0.1055,0.4426,-0.504,204.1094
19:55:12:350,1.2271,3.1406,5.909,25.5664,-0.032,0.2653,-0.4971,204.8594
19:55:12:410,1.3588,3.4183,6.231,25.5588,-0.07,-0.0029,-0.5538,205.5
19:55:12:418,1.3361,3.5129,7.5035,25.7768,-0.1768,-0.1811,-0.6353,206.2656
19:55:12:418,1.3157,3.6194,9.3004,25.2764,-0.225,-0.1276,-0.7133,206.8438
19:55:12:433,0.7172,3.4435,10.5298,26.4213,-0.1142,0.0882,-0.778,207.5625
19:55:12:448,0.1557,3.2304,10.4233,25.4799,0.077,0.3217,-0.7296,208.3281
19:55:12:469,-0.2106,3.1921,9.6332,25.3054,0.1627,0.3944,-0.6052,209.2188
19:55:12:488,-0.0202,3.4782,9.8056,25.6964,0.143,0.1875,-0.468,210.0625
19:55:12:510,0.522,3.5788,10.8219,23.6219,0.1103,-0.0905,-0.4326,210.7812
19:55:12:534,0.862,3.41,11.7916,25.4325,0.048,-0.1555,-0.4853,211.3125
19:55:12:549,0.8249,3.2172,12.5613,23.6982,-0.0855,0.0666,-0.565,211.7969
19:55:12:568,0.3126,2.9981,13.0282,24.4887,-0.1891,0.3774,-0.6377,212.3281
19:55:12:589,-0.3878,2.4906,12.8965,24.6599,-0.2155,0.449,-0.6497,212.9062
19:55:12:616,-0.9983,1.7987,13.2999,23.7162,-0.1702,0.1638,-0.5658,213.5781
19:55:12:631,-1.2844,0.7955,14.1139,23.9422,-0.0189,-0.2069,-0.3799,214.2812
19:55:12:648,-1.1323,0.0808,14.2731,24.4829,0.1878,-0.3132,-0.1261,214.9531
19:55:12:667,-0.5087,-0.2963,12.7074,25.6655,0.3486,-0.2194,0.1046,215.2344
19:55:12:687,0.3161,-0.3214,10.5131,25.3587,0.2538,-0.1358,0.2303,215.8281
19:55:12:709,0.9422,-0.2125,9.0538,25.0564,-0.0381,-0.0948,0.2745,215.8438
19:55:12:732,1.0524,0.4256,8.4457,24.1065,-0.3609,-0.058,0.2603,215.6406
19:55:12:749,0.6106,1.1738,8.4912,25.5843,-0.5561,0.0344,0.2153,215.3438
19:55:12:767,-0.0669,1.5461,8.2613,25.2152,-0.5204,0.131,0.2204,215.0625
19:55:12:787,-0.6188,1.6179,7.6975,25.9735,-0.3241,0.1175,0.3437,214.8438
19:55:12:808,-0.7086,1.7041,6.8427,25.9735,-0.0051,-0.025,0.5592,214.6406
19:55:12:835,-0.3602,2.0788,5.4493,24.8506,0.2911,-0.2365,0.7725,214.3438
19:55:12:853,0.145,2.6151,4.9465,25.1818,0.3494,-0.485,0.8273,213.8438
19:55:12:867,0.5101,2.8641,5.6576,25.4955,0.2546,-0.5513,0.7126,213.1094
19:55:12:887,0.4012,2.5253,7.3024,28.177,0.1537,-0.4581,0.4689,212.1719
19:55:12:907,-0.1747,1.7412,8.7904,25.4945,0.1696,-0.2021,0.2686,211.3125
19:55:12:930,-0.7541,1.0636,9.213,27.4868,0.2898,0.0429,0.1868,210.7031
19:55:12:947,-0.5039,0.6494,9.1005,28.8938,0.3779,0.0549,0.2031,210.1875
19:55:12:967,0.4694,0.5034,9.4297,27.3896,0.3755,-0.1678,0.1496,209.9375
19:55:12:987,1.3265,0.1467,10.4388,27.9571,0.3052,-0.4559,-0.0486,209.6719
19:55:13:007,1.2918,-0.5752,11.6814,27.8146,0.1542,-0.4335,-0.2925,209.4844
19:55:13:034,0.613,-1.0337,12.7983,27.9743,-0.0234,-0.0458,-0.407,209.5625
19:55:13:052,0.1246,-1.0983,12.9252,28.8211,-0.151,0.4842,-0.3306,209.9219
19:55:13:068,0.1378,-1.0361,12.4667,27.525,-0.1979,0.7177,-0.0989,210.3906
19:55:13:091,0.874,-0.6817,11.873,29.9508,-0.1364,0.5249,0.1546,210.7188
19:55:13:107,2.0891,0.0365,11.1463,29.9249,-0.127,0.1587,0.3283,210.7656
19:55:13:127,3.2155,0.7847,11.5701,28.5455,-0.2519,-0.2312,0.3051,210.6719
19:55:13:149,3.8153,0.6758,13.0437,29.4964,-0.4061,-0.3276,0.1189,210.3438
19:55:13:170,4.2498,0.264,14.2205,31.5503,-0.4029,-0.077,-0.0153,209.9688
19:55:13:186,4.1983,0.1921,13.2843,31.3372,-0.1827,0.3265,-0.0909,209.7969
19:55:13:207,3.3807,0.5034,10.6292,31.3526,0.0139,0.4986,-0.108,209.8281
19:55:13:235,2.763,0.8446,8.2278,31.0408,-0.0021,0.3795,-0.1266,209.9062
19:55:13:247,2.2303,1.1055,7.0546,32.0444,-0.1973,0.2083,-0.1612,210.0156
19:55:13:267,2.0819,1.2145,7.0283,30.6147,-0.3875,0.146,-0.1714,210.1094
19:55:13:287,1.8281,1.3629,7.2079,31.0265,-0.4035,0.1609,-0.1889,210.2812
19:55:13:307,1.3935,1.4168,7.0331,31.8928,-0.2426,0.1763,-0.1988,210.5
19:55:13:329,1.7527,1.491,5.1093,31.7634,-0.032,0.0794,-0.1495,210.7188
19:55:13:347,2.2028,2.3146,5.8515,32.9058,-0.0583,0.0293,-0.1855,210.7188
19:55:13:367,1.7802,2.6522,6.2909,34.0495,0.1241,-0.1339,-0.3865,210.9531
19:55:13:386,0.8572,2.2332,5.9066,34.5163,0.2661,-0.3049,-0.5229,211.1406
19:55:13:406,0.4323,2.1458,6.1939,34.088,0.1832,-0.3654,-0.4758,211.3125
19:55:13:435,0.4035,2.4403,7.9932,32.8376,0.0826,-0.3648,-0.3903,211.5156
19:55:13:451,0.6011,2.4511,9.4405,32.4163,0.1659,-0.2967,-0.3756,212.5469
19:55:13:469,0.2491,2.2763,9.559,34.5423,0.2368,-0.151,-0.4118,212.5469
19:55:13:490,-0.1795,2.1075,9.6057,32.8977,0.0882,0.0935,-0.3905,213.1094
19:55:13:507,-0.3267,1.9866,10.8578,34.583,-0.1076,0.2413,-0.3253,214.0469
19:55:13:528,-0.4943,1.7687,11.8119,34.7619,-0.1718,0.2741,-0.251,214.4844
19:55:13:551,-0.0897,1.5437,12.4691,34.8441,-0.2173,0.2642,-0.1439,215.1094
19:55:13:568,0.953,1.2576,12.4583,34.8983,-0.3228,0.2623,-0.1189,215.2656
19:55:13:586,2.0651,1.23,12.3865,35.0546,-0.5811,0.2038,-0.2246,215.5312
19:55:13:606,2.2734,1.5509,13.7237,35.5616,-0.9502,-0.0791,-0.5218,215.6719
19:55:13:626,1.0033,0.6051,16.0245,35.5382,-1.142,-0.2208,-0.8566,215.7969
19:55:13:649,-0.7337,-0.8146,17.5341,34.9357,-0.9912,0.1254,-0.8813,216.0625
19:55:13:666,-1.5621,-1.6897,15.7695,35.7275,-0.5478,0.7633,-0.513,216.7344
19:55:13:686,-1.1982,-1.1115,11.5928,35.7827,-0.2061,1.0496,-0.0353,217.8125
19:55:13:706,-0.2932,-0.4663,8.8419,36.0108,-0.1481,0.705,0.2401,218.875
19:55:13:734,0.3604,-0.2292,7.4988,36.0524,-0.2106,0.1891,0.3304,219.4062
19:55:13:747,0.5723,0.0533,7.4042,35.4195,-0.3161,-0.1824,0.3765,219.3906
19:55:13:766,0.6214,0.246,7.7681,36.8773,-0.2935,-0.4328,0.4122,219.0781
19:55:13:786,0.4395,0.3837,7.6843,38.2633,-0.1643,-0.5585,0.4476,218.5156
19:55:13:806,0.3209,0.3945,7.4688,39.2112,-0.0383,-0.5412,0.5323,218.0938
19:55:13:834,0.3748,0.6578,7.312,39.1858,0.0581,-0.4,0.6257,217.6406
19:55:13:852,0.5017,0.9523,6.7697,38.2833,0.1606,-0.2293,0.67,217.1406
19:55:13:867,0.7507,1.2743,6.3483,39.8251,0.2264,-0.2192,0.659,216.5
19:55:13:887,0.9422,1.5293,6.4166,39.7014,0.2378,-0.2988,0.5781,215.75
19:55:13:909,0.6897,1.6718,7.251,38.8721,0.1827,-0.355,0.4289,215.0312
19:55:13:933,0.3497,1.4599,8.381,40.7084,0.1358,-0.2152,0.291,214.2969
19:55:13:951,0.1438,1.4419,9.0143,39.4952,0.1249,0.0093,0.2074,213.7188
19:55:13:969,0.0576,1.6167,9.2369,39.407,0.1297,0.1372,0.1192,213.3281
19:55:13:987,0.0695,1.6083,9.1974,40.7123,0.09,0.1036,-0.0257,213.0625
19:55:14:009,0.1605,1.333,9.4907,40.4181,-0.0631,-0.0546,-0.2102,212.8438
19:55:14:031,0.2395,0.6626,10.9835,40.9619,-0.3201,-0.2128,-0.3972,212.7656
19:55:14:048,-0.274,-0.3956,13.1,41.2488,-0.5569,-0.0919,-0.4984,212.8906
19:55:14:067,-0.6727,-1.2432,14.7269,41.3462,-0.6498,0.2842,-0.3716,213.2656
