Time,Acc_X,Acc_Y,Acc_Z,Meg,Gyr_X,Gyr_Y,Gyr_Z,Ore
20:59:56:928,-1.5274,1.7579,8.7294,50.9428,0.2061,0.3056,0.7006,51.3594
20:59:56:985,-0.9037,1.3617,7.652,51.2838,-0.0671,-0.5668,-0.1713,50.25
20:59:57:002,-0.5972,1.315,8.8778,49.2824,-0.1617,-0.3967,-0.3764,50.25
20:59:57:019,-1.2221,1.6754,9.5063,51.1516,-0.1079,-0.2552,-0.444,50.25
20:59:57:038,-1.7165,1.9064,9.7804,51.3013,0.0136,-0.2925,-0.3449,138.6562
20:59:57:059,-1.6507,1.7364,9.559,52.1385,0.1332,-0.3847,-0.1748,139.1094
20:59:57:087,-1.3191,1.6418,9.377,50.5441,0.1689,-0.3258,-0.0323,139.6406
20:59:57:104,-0.9564,1.9052,9.3507,50.3407,0.0738,-0.0827,0.0926,140.0625
20:59:57:121,-0.6499,2.2272,8.9736,49.7799,-0.1065,0.2612,0.2005,140.3125
20:59:57:137,-0.6164,2.4978,8.3487,52.1436,-0.2647,0.5331,0.2575,140.4062
20:59:57:157,-0.772,2.7288,8.1045,52.4387,-0.3369,0.5983,0.3089,140.3125
20:59:57:187,-0.7229,3.0353,8.1859,50.6371,-0.3193,0.515,0.3246,140.0625
20:59:57:203,-0.6152,3.2316,8.3295,50.4932,-0.2591,0.3174,0.2886,139.2188
20:59:57:220,-0.6739,3.3046,8.4995,50.5101,-0.2059,0.1062,0.2471,139.0156
20:59:57:237,-0.6427,3.3273,8.6599,51.4318,-0.187,-0.0206,0.2069,138.5781
20:59:57:258,-0.5565,3.1382,8.7832,50.6276,-0.2043,-0.056,0.1672,138.2344
20:59:57:288,-0.5757,2.967,8.9437,51.6492,-0.2474,-0.0142,0.1496,137.9375
20:59:57:303,-0.6272,2.7444,9.2776,49.7023,-0.2642,0.088,0.1549,137.7344
20:59:57:321,-0.7768,2.5708,9.3447,49.8549,-0.233,0.1703,0.1911,137.5469
20:59:57:338,-0.8199,2.7695,9.2597,50.471,-0.1675,0.132,0.2476,137.4375
20:59:57:358,-0.5996,2.961,9.2202,50.8181,-0.0754,0.0497,0.2466,137.2344
20:59:57:388,-0.5398,2.8485,9.1544,52.1332,0.0099,-0.075,0.2103,136.9844
20:59:57:404,-0.8091,2.9431,9.2812,50.8615,0.081,-0.1991,0.2388,136.6719
20:59:57:420,-0.7936,2.9742,9.4883,50.5682,0.1252,-0.3474,0.2689,136.375
20:59:57:438,-0.535,3.2579,9.4812,50.9704,0.0895,-0.4584,0.234,136.1562
20:59:57:458,-0.1962,3.5967,9.043,50.471,-0.1076,-0.4563,0.1161,135.9062
20:59:57:486,0.054,3.6949,9.389,50.7708,-0.3654,-0.2329,-0.0294,135.6406
20:59:57:503,-0.3889,3.8277,10.2102,51.6393,-0.5097,-0.0475,-0.0975,135.375
20:59:57:522,-0.7385,3.5009,11.175,50.3178,-0.4639,0.0337,-0.1125,135.3438
20:59:57:537,-0.4009,2.475,11.4552,52.0462,-0.2884,-0.2094,-0.0861,135.4062
20:59:57:558,-0.1603,1.7508,11.7485,49.4843,-0.0341,-0.3144,0.0175,135.4844
20:59:57:588,0.1845,1.5125,11.4109,51.5618,0.2655,-0.1769,0.1837,135.5781
20:59:57:608,0.7651,1.7077,9.887,50.6001,0.4304,-0.1149,0.2511,135.6562
20:59:57:617,0.9805,1.9662,8.1308,50.2731,0.2437,-0.2971,0.2117,135.5625
20:59:57:640,1.4546,2.3254,7.968,51.3678,-0.1989,-0.4859,-0.0302,135.3438
20:59:57:657,1.5611,1.7173,9.6978,51.0866,-0.5521,-0.4315,-0.1812,135.0938
20:59:57:679,1.4271,1.0229,11.6862,49.9543,-0.6064,0.0215,-0.1926,135.0156
20:59:57:704,1.4678,0.8876,11.047,49.4874,-0.3832,0.3624,-0.166,135.1719
20:59:57:721,1.6402,1.1438,9.1017,49.8861,-0.0959,0.4787,-0.1798,135.3906
20:59:57:738,1.457,1.406,7.4832,49.5793,-0.0029,0.4383,-0.2824,135.5469
20:59:57:758,0.8393,1.3809,6.9433,49.8409,-0.1372,0.2635,-0.4339,135.6719
20:59:57:781,0.151,1.3809,7.6388,49.8638,-0.3619,-0.0073,-0.5447,135.8906
20:59:57:798,0.0001,1.5664,8.5618,50.1694,-0.4882,-0.1895,-0.5356,136.2812
20:59:57:817,0.2144,1.8358,8.4935,50.1322,-0.424,-0.1607,-0.4669,136.8125
20:59:57:837,0.0803,2.2212,8.0434,50.015,-0.3252,-0.108,-0.4584,137.4062
20:59:57:858,-0.2585,2.135,8.375,50.7595,-0.2919,-0.0089,-0.4994,137.9531
20:59:57:880,-0.7948,2.4966,8.1608,50.9408,-0.1947,0.1549,-0.5311,138.4375
20:59:57:901,-1.094,2.414,8.1691,51.2058,-0.1044,0.0617,-0.4994,138.9375
20:59:57:918,-1.2808,2.5002,8.4648,49.8534,-0.0551,-0.0715,-0.4126,139.5156
20:59:57:937,-0.9444,2.7048,8.7605,51.4641,-0.0184,-0.2028,-0.2483,140.1094
20:59:57:957,-0.3315,2.8784,9.2765,49.4551,-0.016,-0.227,-0.1322,140.6094
20:59:57:979,-0.104,2.9455,9.4836,49.2994,-0.0671,0.0659,-0.0874,140.9844
20:59:57:997,-0.1914,2.8497,9.8163,49.9616,-0.1483,0.3307,-0.0941,141.2031
20:59:58:017,-0.7744,2.6893,10.2305,51.4994,-0.2141,0.5411,-0.1364,141.3125
20:59:58:037,-1.3778,2.5421,10.4999,48.6638,-0.2093,0.6183,-0.077,141.3906
20:59:58:060,-1.8291,2.5361,10.8842,50.8826,-0.1009,0.5592,0.0569,141.5
20:59:58:082,-1.5358,2.633,11.0039,50.8331,0.0996,0.3959,0.2511,141.625
20:59:58:098,-0.8941,2.8593,10.798,50.8518,0.3172,0.2196,0.4154,141.5312
20:59:58:117,-0.6152,2.8174,10.6483,49.1506,0.429,0.062,0.4242,141.2344
20:59:58:138,-0.6918,2.5301,10.367,49.7742,0.3915,-0.0065,0.3192,140.7969
20:59:58:157,-0.7517,2.2643,10.7812,50.0396,0.1784,-0.035,0.2284,140.3594
20:59:58:182,-1.2628,1.8585,12.268,50.9925,-0.1177,-0.1279,0.1368,140.0469
20:59:58:198,-1.6387,1.1271,13.8386,51.2898,-0.2642,-0.2078,0.0772,139.7969
20:59:58:221,-1.7381,0.6004,13.6914,51.619,-0.1358,-0.1242,0.1395,139.6406
20:59:58:239,-1.3766,0.568,11.8933,50.3803,0.1007,0.1972,0.3097,139.5312
20:59:58:258,-0.8403,0.8805,9.4524,50.2391,0.2764,0.5006,0.474,139.375
20:59:58:293,-0.3602,1.1702,7.6125,51.1861,0.3369,0.504,0.5251,139.0156
20:59:58:303,-0.365,1.0086,6.8703,50.3448,0.3047,0.1879,0.4205,138.5156
20:59:58:320,-0.3399,0.6817,6.8499,51.036,0.0482,-0.3969,0.1858,137.6719
20:59:58:345,-0.2872,0.4747,7.0822,49.2332,-0.167,-0.4789,0.1105,137.2969
20:59:58:360,-0.5398,0.4208,7.7525,50.5619,-0.3691,-0.4555,0.087,137
20:59:58:380,-0.6763,0.5561,8.7138,51.2804,-0.4456,-0.2467,0.1147,136.8906
20:59:58:400,-0.608,0.8661,8.8347,50.4446,-0.3949,0.035,0.1573,136.7812
20:59:58:417,-0.4584,1.2552,8.0147,51.6226,-0.3302,0.2012,0.1746,136.7812
20:59:58:437,-0.4105,1.5221,7.0008,49.735,-0.3156,0.1658,0.1658,136.625
20:59:58:457,0.7351,1.5197,6.7685,52.6113,-0.3135,-0.0632,-0.0568,136.4062
20:59:58:484,-1.9236,2.4702,7.1923,51.7355,-0.2762,-0.1833,0.0599,136.1719
20:59:58:502,-1.4017,1.5197,7.8196,50.632,-0.2226,-0.2579,0.2055,135.9688
20:59:58:520,-1.6435,1.6777,8.2386,50.5107,-0.1321,-0.2803,0.3595,136
20:59:58:537,-1.1826,2.0453,8.2996,51.6629,-0.1302,-0.2901,0.4625,135.9062
20:59:58:557,-0.5158,2.5145,8.6073,51.5743,-0.1992,-0.2859,0.4212,135.6719
20:59:58:577,-0.1328,2.742,9.2788,51.4833,-0.2653,-0.2768,0.2881,135.2656
20:59:58:600,-0.3818,2.6546,10.0881,52.2254,-0.2637,-0.1895,0.1683,134.7344
20:59:58:620,-0.9109,2.3338,10.4616,51.1281,-0.2304,-0.1287,0.1536,133.9219
20:59:58:636,-1.1012,2.0848,10.5681,52.2126,-0.2224,-0.2105,0.2111,133.7188
20:59:58:657,-0.7589,1.7687,11.2337,48.4993,-0.2091,-0.3602,0.266,133.625
20:59:58:682,-0.2214,1.3282,12.2213,49.3536,-0.1443,-0.4084,0.3043,133.4219
20:59:58:700,0.1019,0.8781,12.7349,50.688,-0.0764,-0.3021,0.373,133.125
20:59:58:717,0.7459,0.4794,12.7061,50.5515,-0.0495,-0.1226,0.4327,132.7969
20:59:58:737,1.463,0.4136,11.9687,50.1131,-0.0964,-0.0651,0.4042,132.4219
20:59:58:758,1.8413,0.4352,11.3774,50.1131,-0.1827,-0.2885,0.2966,131.9688
20:59:58:784,1.8963,0.422,12.0011,49.3416,-0.2096,-0.5402,0.1999,131.4688
20:59:58:801,2.2028,0.0102,13.0581,49.8555,-0.1297,-0.4853,0.0633,131.0625
20:59:58:820,2.1609,-0.6494,13.6698,49.9526,0.0991,-0.1295,-0.0192,130.9062
20:59:58:837,2.0831,-0.9918,12.2453,50.3126,0.3161,0.1158,0.0055,130.6875
20:59:58:857,3.0958,-0.811,9.9504,50.5845,0.3183,-0.0539,-0.0536,130.6094
20:59:58:881,4.3276,-0.4758,9.0275,50.7416,0.1467,-0.3072,-0.3647,130.6406
20:59:58:950,4.2522,-0.2831,9.3004,49.0061,-0.0525,-0.2379,-0.7292,130.6406
20:59:58:950,2.9965,-0.4806,9.2896,49.755,-0.1561,0.1472,-0.9226,130.7188
20:59:58:951,1.4893,-0.5106,8.0889,47.9732,-0.2349,0.5227,-0.9002,131.5156
20:59:58:959,0.6465,-0.0581,6.5985,47.8196,-0.3547,0.6532,-0.8046,132.4531
20:59:58:977,0.3257,0.513,5.8156,48.5891,-0.4858,0.5168,-0.7386,133.5
20:59:58:996,0.2276,0.92,6.2251,48.8944,-0.5145,0.2455,-0.7143,134.4688
20:59:59:022,-0.1447,1.0768,7.5849,48.9796,-0.3318,0.0084,-0.6643,135.2812
20:59:59:036,-0.5781,1.1175,8.466,48.4543,-0.0482,-0.0339,-0.5455,136.0781
20:59:59:061,-0.7385,1.3737,8.3463,49.4098,0.1515,0.0217,-0.4105,136.8594
20:59:59:083,-0.5075,1.7352,7.9225,48.3407,0.2317,0.043,-0.3492,137.5469
20:59:59:100,-0.1256,2.1985,8.2769,46.8973,0.1982,0.0292,-0.3708,138.0625
20:59:59:117,-0.0214,2.3098,9.1867,47.5318,0.0993,0.0715,-0.432,138.5
20:59:59:137,-0.2992,2.159,10.0941,47.7141,0,0.2175,-0.5295,138.9062
20:59:59:156,-1.0234,1.7915,10.8842,45.3193,-0.0434,0.394,-0.6147,139.3438
20:59:59:182,-1.8075,1.4754,11.1104,45.204,0.0083,0.5557,-0.5817,139.9062
20:59:59:202,-1.9739,1.4527,10.8842,45.5796,0.1387,0.5679,-0.3849,140.5625
20:59:59:219,-1.6926,1.5042,11.0996,47.646,0.2453,0.3693,-0.126,141.2344
20:59:59:238,-1.2916,1.4563,11.6419,46.5029,0.3145,0.1069,0.0862,141.8281
20:59:59:258,-0.9073,1.3833,11.8239,45.8487,0.3742,-0.0089,0.2505,142.1875
20:59:59:282,-0.8115,1.4874,11.4384,45.6009,0.363,0.0907,0.368,142.1094
20:59:59:298,-0.8905,1.7149,11.199,44.0637,0.2362,0.2742,0.4511,141.8594
20:59:59:317,-0.8941,1.752,11.448,44.9416,0.0511,0.3546,0.4995,141.4688
20:59:59:336,-0.9097,1.3797,11.8311,43.289,-0.089,0.3078,0.499,141.2344
20:59:59:357,-0.8822,0.7524,12.6104,44.66,-0.1326,0.1376,0.4745,140.7188
20:59:59:382,-0.6535,-0.0664,13.2831,43.5147,-0.0376,-0.0038,0.4676,140.125
20:59:59:399,-0.5649,-0.665,11.8382,43.7507,0.29,0.0313,0.4681,139.5625
20:59:59:416,-0.4249,-0.8434,9.1208,45.1744,0.5931,0.1187,0.4745,139.0469
20:59:59:436,-0.11,-0.8446,7.8423,44.633,0.5436,0.0497,0.4439,138.5156
20:59:59:456,-0.2501,-0.9774,7.7286,44.601,0.2778,-0.0646,0.3595,138.0156
20:59:59:476,-0.7744,-0.7979,7.7094,42.7219,0.0746,-0.1298,0.2897,137.5469
20:59:59:498,-0.7828,-0.2867,7.5383,41.7283,0.0067,-0.215,0.3371,137.1406
20:59:59:517,-0.4955,0.2831,7.215,43.97,-0.0559,-0.2363,0.3941,136.7969
20:59:59:536,-0.0023,1.0708,7.1157,42.7993,-0.2144,-0.0984,0.4074,136.4688
20:59:59:556,0.6382,1.7651,7.245,43.7444,-0.4946,0.2183,0.3472,135.8281
20:59:59:577,0.8752,2.0848,7.986,42.5869,-0.8048,0.6148,0.1512,135.3438
20:59:59:597,0.2276,1.7472,9.1089,42.2962,-0.9268,0.8018,-0.1202,134.9062
20:59:59:618,-0.8965,1.1869,9.292,43.8774,-0.6722,0.6532,-0.297,134.6562
20:59:59:636,-1.3706,0.7272,8.8228,42.971,-0.2296,0.2918,-0.2645,134.7031
20:59:59:657,-1.1252,0.7907,8.1464,42.0175,0.1049,-0.0499,-0.1034,134.9688
20:59:59:676,-0.8403,0.9655,8.0039,44.2768,0.1856,-0.2073,0.0157,135.2188
20:59:59:696,-0.8893,0.9332,8.6707,41.8404,0.0519,-0.1618,0.0447,135.3594
20:59:59:716,-1.0653,0.9451,9.5494,41.044,-0.0999,0.0287,0.0838,135.3594
20:59:59:743,-0.9612,1.1019,10.0558,41.3727,-0.1023,0.1349,0.1629,135.3125
20:59:59:769,-0.717,1.4096,10.0558,42.1148,0.0258,0.0545,0.229,135.2031
20:59:59:784,-0.6547,1.5305,10.2701,40.1393,0.1398,-0.5088,0.2061,134.75
20:59:59:804,-0.693,1.1797,10.9021,42.0033,0.1198,-0.7516,0.233,134.75
20:59:59:818,-0.9324,0.7847,11.4863,41.1342,0.1084,-0.8955,0.3898,134.5156
20:59:59:837,-0.5206,0.9882,12.2477,40.682,0.1507,-0.8278,0.535,134.2969
20:59:59:864,0.9674,1.0337,12.2872,42.4608,0.2083,-0.5698,0.5009,133.6406
20:59:59:877,1.8365,1.1546,11.1296,41.531,0.1036,-0.386,0.3227,133.6406
20:59:59:900,1.9227,1.2216,10.5657,42.102,-0.0703,-0.3791,0.0825,133.0469
20:59:59:918,1.5887,0.8637,11.0625,42.1809,-0.1489,-0.4587,-0.101,132.4844
20:59:59:951,1.2595,0.3633,12.195,41.2582,-0.0458,-0.4164,-0.1644,132.0469
20:59:59:962,0.9889,0.0892,12.5876,40.9994,0.2141,-0.2084,-0.1468,132.0469
20:59:59:982,1.1218,0.0964,11.1439,40.7934,0.3894,-0.0339,-0.1101,132.1562
21:00:00:000,2.016,0.4723,9.4405,41.0311,0.3672,-0.0712,-0.2046,132.3594
21:00:00:018,3.0575,0.6949,8.6719,42.231,0.229,-0.2693,-0.4962,132.5312
21:00:00:038,3.1293,0.4771,9.0789,40.5219,0.0661,-0.296,-0.8267,132.6719
21:00:00:056,2.4003,0.0724,9.6009,41.4756,-0.025,0.0145,-1.0302,133.1719
21:00:00:076,1.3516,-0.1131,9.0993,42.1583,-0.0368,0.3703,-1.0691,133.9062
21:00:00:100,0.7675,0.0892,7.8734,40.9654,-0.0179,0.5112,-1.0419,135
21:00:00:116,0.4335,0.574,6.9804,42.5473,-0.0029,0.4044,-1.0286,136.2188
21:00:00:136,0.3808,0.9727,6.9349,41.0585,0.0317,0.25,-1.0515,137.3594
21:00:00:156,0.4694,1.2815,7.2186,41.886,0.0716,0.2361,-1.1048,138.5312
21:00:00:176,0.3784,1.3868,7.2043,40.759,0.082,0.2966,-1.1455,139.7031
21:00:00:197,-0.1483,1.5233,7.2486,41.463,0.0661,0.353,-1.1202,140.9375
21:00:00:216,-0.7062,1.7208,7.3551,41.836,0.0269,0.3352,-1.0368,142.1719
21:00:00:237,-1.2006,1.8645,7.6891,42.8549,0.0146,0.1674,-0.9122,142.8281
21:00:00:257,-1.4077,1.9555,8.6779,41.899,0.0676,-0.0046,-0.7769,144.1094
21:00:00:285,-1.3394,1.8956,9.7816,42.2742,0.1891,-0.0014,-0.685,145.2969
21:00:00:304,-1.5525,1.9902,9.893,40.5911,0.2431,0.1171,-0.6232,146.2812
21:00:00:316,-2.0912,2.1171,9.6224,42.101,0.1747,0.2492,-0.5404,147.1719
21:00:00:336,-2.6527,2.1171,9.7709,41.7347,0.1065,0.2939,-0.4022,147.9844
21:00:00:357,-3.0046,2.1446,10.3155,44.4456,0.1143,0.2143,-0.2406,148.6719
21:00:00:385,-3.2907,2.0764,10.8315,42.7467,0.179,0.0811,-0.073,149.5625
21:00:00:403,-3.3434,1.9615,10.9524,44.0755,0.1691,0.0188,0.0857,149.9219
21:00:00:419,-2.8945,1.8561,11.0458,42.6543,0.0096,0.0843,0.177,150.1094
21:00:00:441,-2.2912,1.8046,11.4169,43.2288,-0.2764,0.1336,0.1709,150.1094
21:00:00:456,-2.2157,1.5916,13.082,43.2228,-0.4431,0.1695,0.1469,149.9531
21:00:00:478,-2.5617,0.9128,15.0573,41.5859,-0.2381,0.2255,0.2255,149.75
21:00:00:503,-2.2899,-0.234,13.027,43.7391,0.2485,0.3403,0.4641,149.5312
21:00:00:520,-1.2329,0.3071,9.5769,44.1939,0.6871,0.4881,0.7653,149.2969
21:00:00:536,-0.0968,0.8242,7.3467,42.4584,0.8163,0.3091,0.8713,148.9375
21:00:00:557,0.2838,0.7464,7.2845,43.687,0.624,-0.1013,0.743,148.2656
21:00:00:576,-0.1771,0.2316,8.879,43.8411,0.3151,-0.4861,0.528,147.375
21:00:00:601,-0.8738,-0.1155,9.7409,45.3472,0.1619,-0.5612,0.4362,146.5
21:00:00:618,-1.361,0.2831,9.1412,43.0351,0.1768,-0.3953,0.5278,145.875
21:00:00:638,-0.5134,0.829,8.1703,44.1924,0.2075,-0.1988,0.7291,145.3906
21:00:00:656,0.2252,1.3102,7.7274,43.1713,0.1505,-0.0875,0.8114,144.5938
21:00:00:679,-0.1064,1.4551,7.549,43.4043,0.0788,0.0489,0.6958,143.8438
21:00:00:700,-0.5075,1.552,7.1157,44.8888,0.0818,0.1163,0.6173,142.9219
21:00:00:716,-0.6774,1.7579,6.9912,43.4969,0.0903,0.099,0.6181,142.5156
21:00:00:736,-0.3064,2.0441,7.4485,44.7166,0.0884,-0.0012,0.6577,141.7812
21:00:00:756,0.1605,2.3242,7.7741,45.1644,0.1225,-0.0787,0.6623,141.1094
21:00:00:776,0.2084,2.3984,7.8435,44.3792,0.1595,-0.096,0.5757,140.3906
21:00:00:803,0.0779,2.1315,7.792,45.5158,0.1513,-0.0923,0.454,139.625
21:00:00:822,-0.3746,2.0967,7.8651,44.7287,0.0991,-0.0845,0.3965,138.9688
21:00:00:838,-0.5099,2.2248,8.405,44.7446,0.021,-0.056,0.4322,138.3906
21:00:00:857,-0.3387,2.4798,8.6085,45.9093,0.0115,-0.0044,0.4945,137.9375
21:00:00:875,-0.1902,2.6977,8.4157,45.9093,0.0288,0.0633,0.4889,137.5
21:00:00:898,0.0372,2.6522,8.1991,44.7068,0.0043,0.0814,0.4354,136.9844
21:00:00:919,0.1402,2.2871,8.7246,45.3611,-0.1174,-0.0433,0.339,136.4062
21:00:00:936,0.1102,1.7556,9.9253,47.1399,-0.2988,-0.2315,0.2356,135.6406
21:00:00:960,0.1342,1.1534,11.8215,46.7514,-0.4967,-0.3322,0.1664,135.25
21:00:01:049,0.4191,0.7476,13.252,46.4167,-0.5966,-0.2315,0.184,134.9844
21:00:01:049,1.05,0.7272,12.9516,47.3709,-0.5366,0.0404,0.2719,134.7812
21:00:01:050,1.4414,1.1019,11.8119,46.9539,-0.4349,0.2252,0.2993,134.5625
21:00:01:050,1.7096,1.2935,11.205,47.7206,-0.4229,0.1946,0.2197,134.2031
21:00:01:061,1.6868,1.3737,11.5845,47.1482,-0.469,0.0398,0.0705,133.8281
21:00:01:081,1.5516,1.2384,12.7181,45.5847,-0.5204,-0.0512,-0.0896,133.5469
21:00:01:097,1.6473,1.0983,13.1994,48.5933,-0.498,0.0723,-0.1921,133.4688
21:00:01:116,2.1788,1.078,12.6714,47.7804,-0.3603,0.2782,-0.2216,133.4531
21:00:01:136,2.7834,1.1474,11.7999,48.0415,-0.1752,0.3403,-0.2738,133.5938
21:00:01:156,3.3137,1.0277,11.1068,48.1262,0.0157,0.1597,-0.3982,133.9062
21:00:01:177,3.1533,0.9056,10.1767,48.0096,0.1968,-0.0731,-0.5774,134.1875
21:00:01:197,2.5679,1.0684,8.6779,46.3672,0.3622,-0.0808,-0.8539,134.6406
21:00:01:216,2.028,1.3138,7.1085,48.0158,0.3119,-0.1,-0.9359,134.6406
21:00:01:235,1.5049,1.4766,6.1616,48.0181,0.1957,-0.1583,-0.9934,135.2812
21:00:01:256,0.8896,1.6251,6.0168,49.0597,0.0858,-0.2148,-0.9945,136.1719
21:00:01:276,0.3604,1.7328,6.5207,45.9048,0.077,-0.2691,-0.9159,138.2188
21:00:01:301,0.0253,1.8465,7.1336,45.6127,0.1451,-0.3349,-0.7761,139.375
21:00:01:317,0.0887,2.2595,7.8447,47.306,0.2551,-0.3804,-0.6619,140.5312
21:00:01:336,0.1198,2.7456,8.7174,49.23,0.3497,-0.3157,-0.6355,141.5469
21:00:01:355,-0.0741,2.8569,9.5518,47.3849,0.4474,-0.1375,-0.6131,142.4531
21:00:01:374,-0.3782,2.827,9.7625,46.511,0.4655,0.0265,-0.5902,143.25
21:00:01:397,-0.8618,2.882,10.3107,46.7612,0.4847,0.111,-0.5218,144.0156
21:00:01:417,-0.8139,2.8054,11.0386,47.7093,0.6176,0.2457,-0.4701,145.0781
21:00:01:436,-0.8008,2.876,10.531,47.1809,0.7017,0.3141,-0.4904,145.7344
21:00:01:455,-1.1108,2.8437,9.8319,46.9962,0.6527,0.214,-0.5279,146.2969
21:00:01:475,-1.7058,2.6857,9.9085,46.7433,0.5862,0.0486,-0.5252,146.8594
21:00:01:498,-2.266,2.3601,10.3922,47.0916,0.5662,0.0489,-0.4328,147.4688
21:00:01:518,-2.6599,2.2404,10.191,47.6323,0.5292,0.193,-0.2749,148.125
21:00:01:536,-2.6658,2.3709,9.2681,46.8402,0.3838,0.2987,-0.1561,148.6875
21:00:01:556,-2.4168,2.7336,8.1548,48.2704,0.0517,0.1826,-0.1476,149.125
21:00:01:577,-1.7991,2.5756,8.6575,46.6234,-0.3899,-0.068,-0.2709,149.2812
21:00:01:600,-1.592,1.6251,11.3139,46.9212,-0.628,0.0335,-0.3849,149.4531
21:00:01:616,-2.4575,0.5632,13.3131,46.3616,-0.5009,0.4462,-0.2962,149.6094
21:00:01:635,-3.4188,-0.0245,12.6738,45.7301,-0.1585,0.7198,0.0545,149.8906
21:00:01:659,-3.0776,0.3226,10.1432,47.9293,0.0501,0.4529,0.4122,150.2656
21:00:01:676,-1.5741,1.1043,8.9496,45.4207,0.1092,0.0042,0.4961,150.5156
21:00:01:695,-0.5242,1.394,8.8563,44.8967,0.0802,-0.1791,0.3714,150.3906
21:00:01:715,-0.5362,1.2324,8.5929,45.9183,-0.0234,-0.2129,0.27,149.5938
21:00:01:735,-0.9133,1.145,8.7174,46.463,-0.1438,-0.2656,0.2633,149.125
21:00:01:755,-1.0701,1.1893,9.3878,44.8391,-0.1752,-0.3165,0.3403,148.7969
21:00:01:775,-1.0126,1.3031,10.191,45.3154,-0.037,-0.2696,0.4673,148.5156
21:00:01:801,-0.6751,1.479,10.0594,44.7184,0.2218,-0.1239,0.5888,148.2031
21:00:01:820,-0.1986,1.6885,8.4792,45.7221,0.3896,-0.0164,0.6242,147.7656
21:00:01:835,-0.0729,1.8274,6.5447,44.3649,0.3151,-0.0816,0.5994,147.1719
21:00:01:855,-0.2824,1.8884,5.9473,42.6848,0.1169,-0.2385,0.5874,146.5
21:00:01:875,-0.547,2.0584,6.7326,44.8387,-0.0037,-0.2736,0.6207,145.8594
21:00:01:899,-0.0178,2.9323,8.132,42.9801,-0.037,-0.2214,0.6348,145.2188
21:00:01:918,0.358,3.1622,8.3714,43.184,0.0107,-0.1615,0.5805,144.5625
21:00:01:940,0.2982,3.3118,8.4181,42.9102,0.0639,-0.1104,0.4641,143.8906
21:00:01:962,-0.1184,3.3537,8.545,43.6881,0.0858,-0.0195,0.3541,143.2031
21:00:01:981,-0.2776,3.5117,8.9808,43.6348,0.0948,0.0428,0.299,142.625
21:00:01:997,0.3126,3.823,9.8092,43.9101,0.1143,0.0817,0.2785,142.1875
21:00:02:015,1.8173,4.3197,11.5557,43.5209,0.1726,0.1634,0.188,141.6562
21:00:02:035,2.113,4.3473,12.5242,42.0557,0.3545,0.3376,-0.0957,141.5
21:00:02:056,-0.0825,3.4351,10.5621,42.6041,0.7526,0.4904,-0.5279,141.2031
21:00:02:075,-1.768,2.7444,9.4393,43.2181,1.0027,0.1549,-0.6696,141.125
21:00:02:095,-1.4304,2.7599,9.9815,42.964,0.9723,-0.2683,-0.4073,141.4688
21:00:02:117,-0.347,3.3669,9.541,40.7246,0.9167,-0.354,-0.069,142.25
21:00:02:135,0.8632,3.5261,9.2537,41.2047,0.7137,-0.3152,0.0457,142.9531
21:00:02:155,1.4103,3.1669,9.705,40.5568,0.3449,-0.2768,-0.0528,143.3438
21:00:02:175,0.7387,2.7049,10.7992,41.6435,-0.0376,-0.2262,-0.2384,143.4219
21:00:02:200,0.4023,2.1542,11.7102,43.1072,-0.2791,-0.1562,-0.285,143.4844
21:00:02:218,0.6813,1.9854,12.3231,41.6223,-0.2897,-0.1535,-0.1521,143.7031
21:00:02:236,1.463,2.3888,10.9871,42.7718,-0.0506,-0.1434,0.0495,144.0469
21:00:02:261,2.3871,2.882,9.2609,40.2383,0.168,-0.2206,0.1291,144.3281
21:00:02:274,2.8959,2.9862,8.2098,41.4003,0.1755,-0.3825,0.0117,144.375
21:00:02:295,2.3021,2.9515,7.968,40.3386,0.0048,-0.4536,-0.2379,144.2812
21:00:02:320,1.0452,2.9275,7.7358,39.946,-0.2224,-0.2693,-0.4475,144.2969
21:00:02:339,0.0528,2.9443,7.2282,40.3469,-0.3928,0.0825,-0.5223,144.625
21:00:02:354,-0.4285,2.9838,6.9876,40.6972,-0.4807,0.3496,-0.4978,145.1719
21:00:02:375,-0.614,3.076,7.1049,40.763,-0.4578,0.3919,-0.4427,145.7344
21:00:02:394,-0.7373,3.2005,7.2929,40.8539,-0.3313,0.2886,-0.3985,146.2031
21:00:02:415,-0.7852,3.3884,7.3396,40.8921,-0.1585,0.2052,-0.3407,146.625
21:00:02:447,-0.529,3.7739,7.6388,39.2736,-0.021,0.1536,-0.26,147.3594
21:00:02:457,0.042,4.37,8.0997,39.6734,0.1545,0.2774,-0.2166,147.6406
21:00:02:479,0.4251,4.8932,8.5618,40.1339,0.2501,0.3086,-0.3284,147.8438
21:00:02:504,0.4155,5.0488,8.7928,37.2536,0.3531,0.2747,-0.468,148.0625
21:00:02:517,-0.0406,4.8908,8.703,38.174,0.3806,0.2031,-0.5551,148.3906
21:00:02:537,-0.6774,4.5867,8.9676,39.3315,0.3356,0.1608,-0.5508,148.9219
21:00:02:558,-1.2772,4.3161,9.8379,38.0392,0.3206,0.2518,-0.4629,149.2344
21:00:02:582,-1.8003,3.963,10.3874,38.8936,0.3569,0.4178,-0.3034,150.1719
21:00:02:605,-2.0577,3.7104,10.2904,38.6162,0.396,0.4526,-0.1047,150.6875
21:00:02:620,-2.1786,3.6242,10.5226,38.6421,0.4575,0.3602,0.083,150.6875
21:00:02:636,-2.2624,3.6182,11.0051,38.8827,0.5585,0.3565,0.2473,151.0156
21:00:02:655,-2.2648,3.6218,10.8123,37.7195,0.6378,0.5179,0.3941,151.1094
21:00:02:676,-2.1858,3.6985,9.626,39.2789,0.579,0.5999,0.5177,151
21:00:02:701,-1.8027,3.8493,8.8515,37.632,0.4333,0.4721,0.6223,150.7344
21:00:02:721,-1.1048,3.9474,9.0777,36.9309,0.3499,0.2558,0.65,150.2656
21:00:02:735,-0.5314,4.0169,9.6464,39.8413,0.3856,0.1397,0.5941,149.6719
21:00:02:760,-0.134,3.9211,9.1448,37.3795,0.4194,0.088,0.4473,148.9219
21:00:02:773,-0.1076,3.5979,7.7346,37.5614,0.2876,-0.067,0.2455,148.1719
21:00:02:794,-0.2836,3.2041,6.6464,38.7699,-0.0426,-0.3418,0.0489,147.5469
21:00:02:816,-0.4524,2.6546,6.8763,38.2294,-0.4874,-0.6371,-0.0912,147.0781
21:00:02:835,-0.432,1.983,8.3846,39.2558,-0.8767,-0.7932,-0.154,146.8438
21:00:02:855,-0.7804,1.5437,10.5538,37.808,-1.0248,-0.6811,-0.1172,147.0312
21:00:02:875,-1.2628,1.2683,12.1351,37.4379,-0.8226,-0.1873,0.0793,147.1406
21:00:02:901,-1.5585,1.5173,11.1631,38.1979,-0.4874,0.3552,0.3664,147.3594
21:00:02:920,-1.3873,2.1877,8.4097,37.1929,-0.2565,0.4923,0.5704,147.3906
21:00:02:937,-1.009,2.9108,6.2741,39.8939,-0.2,0.1877,0.6559,147.0625
21:00:02:959,-0.5733,3.5165,5.7582,38.6247,-0.2245,-0.2395,0.6631,146.3906
21:00:02:974,-0.1016,3.9355,6.8248,37.5554,-0.1643,-0.447,0.5925,145.5938
21:00:02:995,-0.0083,4.0576,7.6173,38.4852,-0.0501,-0.3162,0.5083,145.2188
21:00:03:018,-0.2225,4.1653,7.3288,37.2608,-0.0322,-0.1524,0.4724,144.4844
21:00:03:036,-0.4668,4.2922,7.2139,37.2608,-0.0767,-0.0816,0.4513,143.8594
21:00:03:117,-0.7912,4.3676,7.6723,36.9846,-0.0743,-0.1104,0.4655,143.3281
21:00:03:117,-0.8031,4.3976,8.4948,37.9004,0.0368,-0.2097,0.4966,142.8438
21:00:03:118,-0.5853,4.5472,9.0586,38.6884,0.1947,-0.2603,0.5179,142.3281
21:00:03:118,-0.1543,4.7627,9.1053,37.5036,0.2724,-0.2696,0.5254,141.5469
21:00:03:139,0.704,5.0296,9.0993,37.6126,0.2282,-0.3088,0.4458,141.0469
21:00:03:155,1.6126,5.2343,9.6499,37.2293,0.1438,-0.3428,0.2721,140.5
21:00:03:177,2.1824,5.0739,10.4616,38.4789,0.0956,-0.2715,0.063,140
21:00:03:203,2.0771,4.7627,11.0841,37.9249,0.1063,-0.092,-0.0975,139.6562
21:00:03:219,1.3157,4.5628,11.1188,37.2661,0.1939,0.132,-0.1255,139.5312
21:00:03:237,1.1386,4.2455,10.0258,36.489,0.2378,0.0361,-0.1194,139.6094
21:00:03:261,1.202,4.0193,9.4788,37.1592,0.2051,-0.2899,-0.1314,139.75
21:00:03:274,1.5671,4.042,9.7014,37.0915,0.118,-0.5322,-0.2057,139.875
21:00:03:296,2.2231,2.8557,10.3622,37.9572,-0.0538,-0.565,-0.3753,140.0469
21:00:03:318,1.6198,2.0668,10.6759,37.7962,-0.2999,-0.3751,-0.5537,140.3125
21:00:03:338,0.5568,1.4431,11.0565,39.1549,-0.5262,-0.1016,-0.6637,140.7344
21:00:03:359,0.0312,1.1343,11.1152,37.5054,-0.5894,0.1134,-0.6041,141.3438
21:00:03:374,0.3126,1.1343,10.3981,37.4125,-0.4453,0.1613,-0.4171,142.0938
21:00:03:397,0.8345,1.4838,9.2238,39.6511,-0.2248,0.0452,-0.2376,142.7812
21:00:03:420,1.0859,1.9543,7.8555,36.4186,-0.0652,-0.0736,-0.1668,143.5156
21:00:03:437,1.1242,2.4164,6.6967,37.3719,-0.0479,-0.0752,-0.1753,143.6562
21:00:03:456,1.1493,2.9144,5.915,37.7093,-0.1537,0.0308,-0.2118,143.8594
21:00:03:476,1.0188,3.3669,5.5223,38.4102,-0.2959,0.1099,-0.2813,144.0469
21:00:03:502,0.6334,3.6913,5.5595,35.7703,-0.4107,0.1067,-0.3953,144.2656
21:00:03:518,0.1665,3.6685,5.7091,37.4174,-0.4631,0.0497,-0.513,144.5156
21:00:03:536,-0.5805,3.55,5.982,38.6832,-0.4706,-0.0108,-0.6041,144.8594
21:00:03:555,-1.4651,3.5476,6.3843,37.6163,-0.4706,-0.0462,-0.6078,145.3438
21:00:03:575,-1.428,3.7667,7.3156,38.3967,-0.4581,-0.0944,-0.4541,145.9531
21:00:03:603,-0.7289,4.048,8.6683,38.3902,-0.4101,-0.2073,-0.244,146.6094
21:00:03:622,-0.6056,4.3305,10.2006,37.1545,-0.3127,-0.2939,-0.1527,147.2188
21:00:03:640,-0.5709,4.4059,10.8027,38.0181,-0.1145,-0.2371,-0.1303,147.6094
21:00:03:655,-0.7206,4.5041,10.2066,36.8039,0.1028,0.0161,-0.0941,147.8125
21:00:03:675,-0.7924,4.7339,9.037,36.5719,0.2562,0.2747,-0.0723,148
21:00:03:701,-0.8103,5.1422,8.6671,38.1394,0.1989,0.438,-0.0536,148.1875
21:00:03:718,-1.0629,5.2427,9.4943,36.6706,0.0061,0.4899,-0.0861,148.2656
21:00:03:735,-1.5837,4.631,11.357,36.5065,-0.1095,0.3466,-0.1364,148.2656
21:00:03:755,-2.1954,3.9702,12.5685,37.7774,0.0394,0.1653,-0.0946,148.3125
21:00:03:775,-2.4109,3.5069,12.0274,36.8364,0.3728,0.0811,0.0947,148.4219
21:00:03:802,-1.4412,3.21,10.5957,35.6348,0.5952,0.0771,0.352,148.5
21:00:03:818,0.1833,2.973,8.952,36.1344,0.5281,0.1174,0.5022,148.4062
21:00:03:835,0.5759,2.5265,8.3068,36.2312,0.1665,0.1762,0.4082,148.0469
21:00:03:855,-0.371,1.7388,8.964,35.4591,-0.2711,0.2217,0.1762,147.5156
21:00:03:876,-1.6447,0.8637,9.0658,36.2383,-0.4511,0.2343,0.0258,147.0312
21:00:03:903,-1.9871,0.5896,8.2482,36.0531,-0.4495,0.197,0.0766,146.7812
21:00:03:918,-1.0629,0.4447,8.0494,35.1954,-0.5795,0.0707,0.2164,146.6875
21:00:03:936,-0.1663,0.2508,8.8527,36.5764,-0.8602,-0.1647,0.209,146.5469
21:00:03:956,-0.0574,-0.2065,10.0857,36.5522,-1.1321,-0.386,0.0489,146.2344
21:00:03:975,-0.2393,-0.5836,11.0733,36.6726,-1.2408,-0.6012,-0.0994,146.0781
21:00:04:001,-0.2273,-0.3214,11.8586,35.6415,-0.8602,-0.6885,0.0849,145.8594
21:00:04:018,0.4466,0.3969,11.2553,36.6608,-0.8304,0.34,0.1829,145.9531
21:00:04:037,1.2655,0.7931,9.7625,36.911,-0.9595,1.4513,0.0977,145.9375
21:00:04:054,2.514,0.9583,8.557,37.4254,-0.8855,2.0979,-0.3511,145.9375
21:00:04:074,0.8884,1.6526,7.6281,36.7014,-0.7209,1.8873,-0.5434,145.6719
21:00:04:095,-1.3682,1.9854,8.4349,37.9605,-0.3792,0.9789,-0.3354,145.4375
21:00:04:118,-1.6962,1.4419,9.2932,37.0783,0.0333,-0.2409,-0.0927,145.6875
21:00:04:137,-1.0761,1.5425,9.6703,39.1914,0.433,-0.5402,-0.1375,146.1406
21:00:04:155,-0.5398,2.3062,9.1867,36.7684,0.6866,-0.0116,-0.2603,146.4688
21:00:04:174,-0.7445,3.3046,8.9628,36.8832,0.8288,0.7709,-0.2757,146.5781
21:00:04:195,-1.7752,3.8936,7.9656,37.9299,0.7979,0.798,-0.0754,146.7969
21:00:04:219,-3.5302,4.3006,6.0754,36.9087,0.4309,-0.313,0.4047,147.1719
21:00:04:237,-2.6347,4.2276,6.1484,38.5266,-0.008,-0.8768,0.8335,147.5625
21:00:04:254,-0.5721,3.708,6.8511,35.9106,-0.3582,-1.353,1.1035,147.3281
21:00:04:274,0.1342,3.5584,7.7023,37.4865,-0.7345,-2.1237,1.3598,146.9219
21:00:04:296,0.886,4.0109,10.7297,39.2841,-0.9542,-2.3386,1.3805,145.8438
21:00:04:319,2.69,4.0432,14.2121,37.6924,-0.914,-1.63,0.9342,144.5312
21:00:04:339,3.4597,3.0927,15.1937,39.0378,-0.7806,-0.1634,0.3046,142.9531
21:00:04:354,2.5033,1.5281,13.5609,38.3272,-0.6357,1.2652,-0.0733,141.6094
21:00:04:374,0.6334,0.8984,11.5055,37.8115,-0.5199,1.2521,-0.028,140.9375
21:00:04:395,-1.2425,1.0636,11.2373,40.4484,-0.4352,-0.1221,0.2473,140.8125
21:00:04:417,-0.9252,0.8206,13.4579,38.3314,-0.1643,-1.2672,0.3738,140.8906
21:00:04:436,0.5376,0.1155,15.578,39.6601,0.2163,-1.5051,0.3696,140.8438
21:00:04:454,1.4725,-0.6315,15.5229,39.4486,0.4937,-0.9652,0.4119,140.5625
21:00:04:475,2.2842,-1.0983,13.6435,39.764,0.5899,-0.2134,0.4908,140.125
21:00:04:494,3.4681,-1.248,11.345,39.9568,0.518,0.2881,0.4458,139.7188
21:00:04:516,4.7346,-1.4084,9.3172,41.3825,0.3838,0.5421,0.2189,139.2656
21:00:04:540,5.1309,-1.3725,7.8184,41.0785,0.2972,0.6913,-0.1327,138.7344
21:00:04:554,4.3217,-0.8505,6.3831,41.8964,0.2591,0.8726,-0.5026,138.0469
21:00:04:577,3.0252,-0.088,4.9705,41.5492,0.1467,0.9006,-0.8283,137.9844
21:00:04:602,1.8532,0.5716,3.8021,41.9662,-0.1449,0.6159,-1.1247,138.3438
21:00:04:620,0.8058,0.9284,3.8979,42.4079,-0.481,0.1024,-1.3673,139.0781
21:00:04:636,0.2204,0.6375,5.5583,42.2918,-0.6437,-0.244,-1.5199,140.1719
21:00:04:654,-0.3758,-0.2185,7.3802,43.956,-0.5792,-0.1199,-1.5069,141.5156
21:00:04:674,-1.3861,-0.8541,7.9896,44.3208,-0.47,0.2673,-1.2121,143.1562
21:00:04:695,-1.6579,0.3094,7.5514,45.5557,-0.494,0.8111,-0.6837,144.8906
21:00:04:721,-0.7265,1.2791,7.9944,43.2097,-0.3667,1.0993,-0.2975,146.3906
21:00:04:736,-0.9432,1.8992,9.2872,46.0231,-0.1585,0.536,-0.334,147.4531
21:00:04:754,-1.3119,1.509,10.294,45.6758,0.123,-0.0861,-0.4978,147.9375
21:00:04:775,-2.1571,1.3126,10.719,47.6562,0.3105,-0.3578,-0.5404,148.2344
21:00:04:796,-3.0082,1.5329,10.7501,48.02,0.2935,-0.1793,-0.3601,148.7031
21:00:04:819,-3.1411,1.9806,11.515,47.3162,0.0762,0.0566,-0.0131,149.3438
21:00:04:836,-2.4097,2.2655,12.7074,47.5874,-0.098,0.1797,0.3587,150.0781
21:00:04:854,-1.0665,2.3062,12.432,46.6888,0.0008,0.3315,0.6394,150.0938
21:00:04:874,0.1126,2.2392,10.8195,47.9811,0.1763,0.4721,0.7249,149.6875
21:00:04:894,0.0528,1.8286,10.4508,49.1688,0.1174,0.0928,0.4993,148.9531
21:00:04:920,-0.4416,0.5202,12.6104,48.5146,-0.0898,-0.8715,0.0939,148.5781
21:00:04:935,-1.1754,-1.4096,14.673,49.5677,-0.1904,-1.4395,-0.2363,147.8594
21:00:04:954,-2.7029,-2.1135,14.5186,51.3444,-0.1942,-0.9778,-0.2565,147.5
21:00:04:974,-2.6215,-1.637,13.191,50.0282,-0.1832,-0.1892,0.1714,147.6094
21:00:04:994,-0.8055,-1.0517,11.715,51.8238,-0.11,0.3067,0.7038,147.9062
21:00:05:019,0.1881,-0.3118,9.5997,52.1197,0.0866,0.4556,0.8604,148
21:00:05:036,0.7435,0.3705,7.0451,51.4865,0.2788,0.393,0.7315,147.4688
21:00:05:054,1.6318,0.914,5.265,53.2766,0.2701,0.1666,0.5123,146.5625
21:00:05:074,1.6964,0.6375,5.35,52.528,0.0277,-0.1935,0.1677,145.2656
21:00:05:093,0.06,-0.0138,6.6512,53.641,-0.3055,-0.4529,-0.2267,144.6875
21:00:05:118,-1.1826,-0.4411,7.7825,52.5718,-0.5726,-0.3679,-0.3423,144.5156
21:00:05:176,-1.5441,-0.3753,8.3403,53.2767,-0.7129,-0.0536,-0.1481,144.75
21:00:05:176,-1.2233,0.1335,8.0806,54.7683,-0.698,0.2417,0.1611,145.125
21:00:05:177,-0.535,0.75,7.8304,54.7683,-0.5774,0.2793,0.446,145.2344
21:00:05:200,0.1665,1.3474,8.1117,54.4097,-0.4035,0.0324,0.6212,145.0312
21:00:05:221,0.5173,1.8058,8.6133,54.2524,-0.1918,-0.2997,0.6535,143.75
21:00:05:238,0.7507,2.05,8.873,55.5481,0.0399,-0.39,0.4412,143.0156
21:00:05:256,0.6693,2.1626,9.0933,56.3046,-0.0514,-0.0784,0.283,142.3438
21:00:05:277,0.206,2.1877,9.3255,55.4875,-0.1459,0.2255,0.1666,142.0625
21:00:05:300,-0.2537,2.135,9.3866,56.1883,-0.1483,0.3086,0.1134,141.6562
21:00:05:317,-0.5901,2.0022,9.8786,56.8377,-0.0179,0.1426,0.1075,141.4062
21:00:05:336,-0.5529,2.0333,10.5262,56.3209,0.2013,-0.101,0.0729,141.2031
21:00:05:357,-0.4332,1.8549,10.9189,57.2158,0.3313,-0.2952,0.0071,141.0781
21:00:05:377,-0.6044,1.4515,11.5258,57.3215,0.3097,-0.3791,-0.0318,141.0156
21:00:05:400,-0.7397,0.7727,12.4332,57.0368,0.2511,-0.3285,0.0143,141.0156
21:00:05:418,-0.8103,0.0054,12.8306,57.6259,0.1768,-0.1911,0.185,141.0469
21:00:05:435,-0.4249,-0.3968,12.9492,58.274,0.1502,-0.071,0.4186,141.0469
21:00:05:460,0.7543,-0.3717,12.4572,58.8667,0.2117,-0.0496,0.5512,141.0312
21:00:05:472,1.7934,-0.0222,11.0326,58.9983,0.229,-0.2321,0.4966,140.8281
21:00:05:495,2.052,0.41,9.7337,58.2572,0.09,-0.5559,0.2942,140.3594
21:00:05:520,1.6677,0.3717,9.7792,60.1767,-0.1406,-0.8084,0.062,139.7656
21:00:05:537,1.0452,-0.4734,10.8219,58.0731,-0.297,-0.8073,-0.0496,139.2031
21:00:05:555,0.3209,-1.2228,11.7975,58.6916,-0.285,-0.5466,0.0876,138.8594
21:00:05:573,0.7028,-1.4299,11.7928,58.0652,-0.1089,-0.3461,0.3454,138.7812
21:00:05:594,2.204,-1.2097,10.4843,59.3526,0.0072,-0.4086,0.4242,138.7031
21:00:05:618,3.583,-1.0672,9.5087,58.8916,-0.1151,-0.4672,0.2383,138.5312
21:00:05:637,3.7135,-1.1378,9.2429,58.2823,-0.3366,-0.2433,0.0164,138.0625
21:00:05:654,3.1365,-0.9164,9.1711,58.0573,-0.4948,0.14,-0.1356,137.6562
21:00:05:674,2.2543,-0.6985,7.3443,59.3353,-0.747,0.4034,-0.203,137.5156
21:00:05:698,1.3301,-0.2029,7.0475,59.1292,-0.8008,0.9922,-0.2105,137.5781
21:00:05:719,0.9925,0.1467,6.4992,59.4042,-0.6195,0.9562,-0.2624,137.7969
21:00:05:736,0.546,0.6243,6.3795,59.1611,-0.3385,0.557,-0.248,137.9219
21:00:05:754,0.6777,0.8374,6.8715,60.837,0.0336,0.1237,-0.2472,138.2031
21:00:05:774,0.5735,0.9367,7.2881,60.9741,0.3859,-0.1261,-0.2605,138.5312
21:00:05:795,0.3569,0.9619,7.1851,59.5446,0.5446,-0.1104,-0.2131,138.8438
21:00:05:818,0.3377,1.2228,6.8463,59.8259,0.4557,0.0454,-0.1452,139.125
21:00:05:835,0.5556,1.7436,6.8679,60.3803,0.2186,0.2135,-0.1638,139.4375
21:00:05:853,0.7232,2.2595,7.2402,59.1735,-0.045,0.2492,-0.3154,139.6719
21:00:05:873,0.613,2.3146,8.0877,59.765,-0.3025,0.1477,-0.5085,139.8438
21:00:05:892,0.1186,1.7532,9.9803,60.2364,-0.4469,0.0657,-0.578,140.2031
21:00:05:919,-0.4081,0.9248,12.262,60.5857,-0.3859,0.0484,-0.4496,140.6719
21:00:05:937,-0.6248,0.3849,13.9703,60.1531,-0.1718,0.1344,-0.2017,141.3125
21:00:05:960,-0.5793,0.3478,14.4336,60.6185,0.0112,0.1698,0.0404,141.9062
21:00:05:973,-0.2453,0.5788,14.6203,60.4558,0.0634,0.1988,0.1962,142.2656
21:00:05:993,0.4083,0.7572,15.1027,60.3975,0.0815,0.304,0.218,142.3594
21:00:06:018,0.8094,0.9942,15.9036,61.3776,0.1731,0.238,0.1094,142.2188
21:00:06:035,1.2942,1.1199,18.0368,60.8356,0.486,0.1125,-0.1617,142
21:00:06:054,1.1924,0.2735,19.6972,61.4305,1.1886,0.3474,-0.4701,141.8125
21:00:06:074,-3.1902,-2.244,11.7209,59.7926,1.9247,0.6718,-0.3647,141.8438
21:00:06:094,-2.4779,-1.7867,7.3623,60.0302,2.1691,0.7251,0.1845,142.2656
21:00:06:120,-0.2405,-0.6698,5.769,58.6925,1.7891,0.4534,0.6537,142.8906
21:00:06:135,0.6669,0.1814,6.4597,57.8078,1.1545,0.0055,0.6761,143.1094
21:00:06:154,0.1198,0.246,7.5562,58.5404,0.6818,-0.4385,0.3901,142.75
21:00:06:173,-0.4416,-0.3166,7.9764,59.1408,0.457,-0.6867,0.1848,142.0625
21:00:06:194,-0.8666,-0.3861,7.6508,58.274,0.4125,-0.6744,0.226,141.5
21:00:06:213,-0.8822,-0.0377,6.3866,57.4261,0.5001,-0.4744,0.45,141.2656
21:00:06:235,-0.3111,0.5513,4.8867,58.1328,0.6043,-0.2619,0.7022,141.1406
21:00:06:253,0.6478,1.2731,3.9841,57.2746,0.595,-0.1463,0.8572,140.8281
21:00:06:273,1.0847,1.8549,3.7985,58.5706,0.4863,-0.1298,0.8237,140.2188
21:00:06:293,0.5161,2.062,4.0272,58.2163,0.3223,-0.1269,0.6343,139.3281
21:00:06:320,-0.2154,2.1243,4.53,57.5417,0.1372,-0.0345,0.4724,138.4219
21:00:06:336,-0.4608,2.3924,5.3835,57.5419,-0.0631,0.1046,0.4567,137.5938
21:00:06:353,-0.3483,2.6953,6.7745,57.661,-0.2567,0.2114,0.499,137
21:00:06:373,0.0624,2.9598,8.8994,56.9862,-0.4083,0.2255,0.5142,136.5156
21:00:06:394,0.5268,3.0341,10.9512,57.8306,-0.4155,0.2348,0.4737,135.9375
21:00:06:418,0.2683,2.7156,11.7664,55.8205,-0.204,0.2955,0.3334,135.0156
21:00:06:436,-0.1615,2.3409,11.2505,56.8029,0.0583,0.4609,0.2228,134.4688
21:00:06:453,0.0827,2.4822,10.1563,57.6201,0.0495,0.7823,0.2018,134.0469
21:00:06:473,0.376,3.1143,10.3407,55.8458,-0.4099,1.1602,0.1049,133.7656
21:00:06:493,0.0695,2.566,12.5649,56.4631,-0.9803,1.2436,-0.1593,133.4844
21:00:06:518,-1.0928,1.2588,13.9751,55.7613,-1.036,1.0905,-0.4485,133.25
21:00:06:538,-1.4125,0.4016,12.8917,56.816,-0.6048,0.9605,-0.4137,133.2812
21:00:06:554,-0.8774,0.6387,11.2756,57.4688,-0.146,0.7672,-0.1037,133.6406
21:00:06:575,0.1833,1.5042,9.9612,56.3531,0.1587,0.4308,0.1893,133.9844
21:00:06:593,1.5516,2.0584,9.3962,56.5422,0.2703,-0.002,0.2721,134.0469
21:00:06:620,2.5715,1.7544,9.966,55.5291,0.1673,-0.4789,0.1086,133.9688
21:00:06:636,2.7331,0.659,11.6036,56.3876,-0.0903,-0.8438,-0.2022,133.6875
21:00:06:653,2.4973,-0.4519,12.347,54.6664,-0.2988,-0.7711,-0.4427,133.4844
21:00:06:673,2.5116,-0.9894,11.2744,54.4972,-0.3513,-0.3759,-0.5007,133.5781
21:00:06:693,2.6182,-0.8086,9.0298,55.222,-0.3116,-0.006,-0.4581,133.9844
21:00:06:719,2.4805,-0.2173,7.6101,55.8808,-0.3699,0.0747,-0.4698,134.7969
21:00:06:735,1.9789,0.2496,7.379,55.745,-0.4807,-0.1857,-0.5761,135.2969
21:00:06:753,1.3756,0.5908,7.628,55.6612,-0.4868,-0.4097,-0.6941,135.7969
21:00:06:773,0.8596,0.7512,7.5873,54.5487,-0.3702,-0.422,-0.7713,136.3906
21:00:06:794,0.5364,0.829,6.8763,54.6733,-0.0714,-0.0219,-0.7841,137.1562
21:00:06:817,0.3174,1.145,5.988,54.6839,-0.0716,0.1211,-0.7583,138.0156
21:00:06:836,0.1665,1.6538,5.6828,54.907,-0.085,0.0425,-0.778,138.875
21:00:06:852,-0.183,2.2176,6.1317,54.5412,-0.0727,-0.1024,-0.8411,139.7656
21:00:06:873,-0.5506,2.6594,6.735,53.3567,-0.1095,-0.1969,-0.9165,140.625
21:00:06:892,-0.9133,2.876,7.8172,53.8883,-0.168,-0.2648,-0.9913,141.5156
21:00:06:913,-1.3909,2.736,9.4393,54.753,-0.163,-0.3607,-1.0278,142.4219
21:00:06:936,-1.7477,2.3206,11.4312,54.2966,-0.0612,-0.3394,-1.0049,143.4688
21:00:06:953,-2.0996,1.7891,13.0868,53.1264,0.127,-0.0992,-0.8933,144.5938
21:00:06:974,-2.418,1.4515,13.3681,53.186,0.3068,0.2524,-0.6581,146.2812
21:00:06:996,-2.6479,1.503,12.3506,53.4114,0.3539,0.3647,-0.3388,146.8438
21:00:07:020,-2.339,1.6382,11.8275,53.0186,0.3143,0.1844,-0.0485,148.2969
21:00:07:037,-1.8135,1.588,12.3817,55.0211,0.3212,-0.0323,0.1882,148.8594
21:00:07:062,-1.5346,1.6658,12.9599,52.689,0.3976,-0.1322,0.377,149.0938
21:00:07:072,-1.4448,1.8154,12.7588,53.779,0.4216,-0.2936,0.4931,149.0312
21:00:07:093,-1.3215,1.6059,12.6056,52.5992,0.2895,-0.5053,0.5632,148.9062
21:00:07:119,-0.8211,0.7871,13.5585,52.7551,0.187,-0.4518,0.6263,148.5312
21:00:07:135,-0.3758,-0.1826,14.6323,53.7262,0.4887,-0.0691,0.7296,147.9844
21:00:07:158,-0.031,-0.556,12.7516,52.1299,0.9593,0.2979,0.8228,147.375
21:00:07:250,0.2539,-0.24,8.5666,50.9195,0.9936,0.1682,0.7813,146.7188
21:00:07:250,0.7579,0.1119,5.927,51.7722,0.5318,-0.3535,0.5885,145.9062
21:00:07:251,0.9722,0.1012,6.176,51.9487,-0.0373,-0.8353,0.3208,145
21:00:07:251,0.6513,-0.3118,8.1141,52.0998,-0.3526,-0.9679,0.1374,144.1875
21:00:07:252,-0.0526,-0.6315,9.547,51.3212,-0.391,-0.688,0.1472,143.5625
21:00:07:280,-0.6272,-0.5596,9.5482,51.394,-0.2615,-0.2118,0.3315,143.1875
21:00:07:292,-0.4787,-0.1431,8.1045,53.1011,-0.1497,0.14,0.5291,143.0938
21:00:07:313,0.2563,0.5225,6.5973,53.1011,-0.1427,0.2233,0.617,142.8438
21:00:07:334,0.8453,1.0589,5.9605,52.4459,-0.1696,0.0979,0.5856,142.3438
21:00:07:352,0.9506,1.4515,6.0694,53.134,-0.1744,-0.0877,0.5017,141.6562
21:00:07:373,0.7746,1.6323,6.6979,52.9537,-0.1396,-0.097,0.4442,140.9688
21:00:07:394,0.4801,1.8022,7.3072,52.8789,-0.1084,0.0151,0.4284,140.3438
21:00:07:419,0.1988,1.8633,7.9381,51.7594,-0.1143,0.1655,0.4713,139.8125
21:00:07:438,0.0193,1.6945,8.4852,51.276,-0.2168,0.4087,0.5848,139.3438
21:00:07:453,-0.3447,1.837,9.4057,51.9837,-0.2679,0.6268,0.7632,138.8281
21:00:07:472,0.0552,2.4846,10.1958,52.733,-0.1244,0.6409,0.8404,138.2344
21:00:07:493,1.3385,3.4734,9.9684,53.2427,0.0831,0.4327,0.7051,137.4844
21:00:07:513,1.2379,3.2448,9.7517,51.1718,0.1848,0.1541,0.4617,136.5
21:00:07:538,0.9494,2.5744,10.0605,52.7856,0.102,-0.1317,0.23,135.5781
21:00:07:553,0.9051,1.6442,11.4025,52.8954,-0.1547,-0.369,0.0873,134.8906
21:00:07:572,1.0512,0.8302,13.4388,52.3551,-0.4541,-0.46,0.0479,134.5312
21:00:07:592,1.1422,0.3466,14.7089,52.009,-0.6328,-0.2614,0.1003,134.375
21:00:07:613,1.1613,0.4459,14.3557,52.8269,-0.6056,0.0806,0.2327,134.3125
21:00:07:637,1.3864,0.8398,13.9906,53.0831,-0.4922,0.1757,0.4223,134.25
21:00:07:654,2.21,0.8948,14.7448,52.8017,-0.3321,-0.1279,0.5749,134.0469
21:00:07:672,3.0455,0.3382,14.8777,52.2232,0.0083,-0.4209,0.5739,133.6562
21:00:07:693,2.9773,-0.5728,12.8175,53.0614,0.4903,-0.4443,0.3707,133.0938
21:00:07:712,3.0623,-1.1534,10.4795,53.9215,0.7577,-0.3985,0.1736,132.4062
21:00:07:737,4.0858,-1.2635,9.468,53.2549,0.6906,-0.4792,0.1025,131.8438
21:00:07:754,4.9992,-0.9319,9.3184,52.4249,0.5209,-0.6534,-0.0387,131.5781
21:00:07:772,4.7071,-0.6997,9.134,52.9068,0.3854,-0.6869,-0.3942,131.4688
21:00:07:797,3.6477,-0.5573,7.7669,50.9605,0.3646,-0.4257,-0.7916,131.4219
21:00:07:812,2.4314,-0.2652,5.6289,53.3279,0.3611,-0.0097,-1.0493,131.6719
21:00:07:833,1.5695,0.1933,3.6501,51.1655,0.2405,0.3299,-1.1436,132.3438
21:00:07:854,1.2116,0.6842,2.7259,54.2279,-0.0184,0.4074,-1.1146,133.4375
21:00:07:872,1.2966,1.1666,3.0563,53.0187,-0.3183,0.2281,-1.0265,135.3438
21:00:07:896,1.4941,1.4635,4.1205,50.7742,-0.5193,-0.1037,-0.9809,136.5469
21:00:07:922,1.3193,1.5652,4.9645,54.0067,-0.5622,-0.3719,-1.0233,137.7031
21:00:07:937,0.5735,1.6849,5.842,53.0295,-0.5795,-0.4313,-1.081,138.8281
21:00:07:957,-0.1028,1.9232,6.6165,53.1376,-0.6767,-0.2028,-1.0467,141.2031
21:00:07:975,-0.2453,2.2739,7.6987,52.01,-0.9832,0.2755,-0.8347,141.8125
21:00:07:995,-0.1423,2.5049,9.2381,55.3079,-0.9779,0.2617,-0.8139,142.9531
21:00:08:016,-0.1914,2.5911,11.0877,53.9181,-0.8,0.2161,-0.8217,143.9062
21:00:08:036,-0.219,2.402,12.7876,53.6845,-0.4956,0.36,-0.836,144.8438
21:00:08:056,-0.5901,2.0524,13.1694,54.9045,-0.2093,0.5938,-0.8062,145.7656
21:00:08:080,-0.8666,1.5916,12.1998,53.1514,-0.1907,0.7198,-0.7119,145.7656
21:00:08:103,-1.1407,1.2205,11.8933,55.3789,-0.4117,0.7368,-0.5546,148.0938
21:00:08:115,-1.2221,0.8039,13.1072,54.2889,-0.6149,0.7962,-0.3676,148.9219
21:00:08:136,-1.2425,0.3513,14.4707,54.055,-0.6384,0.9589,-0.1732,149.5312
21:00:08:154,-1.5023,0.2699,14.9088,56.8316,-0.5209,1.0055,-0.032,149.9688
21:00:08:173,-2.3737,0.1466,14.6335,55.4447,-0.3768,0.6391,0.0966,150.1719
21:00:08:192,-2.6754,-0.7799,15.3027,56.5548,-0.1507,0.2026,0.3419,150.1719
21:00:08:215,-2.2157,-1.7759,16.4483,54.0464,0.3569,0.1874,0.69,150.2344
21:00:08:235,-1.4663,-2.3852,15.5648,54.8684,1.0264,0.4963,1.1068,150.125
21:00:08:252,-0.049,-2.3469,12.0896,52.3895,1.4376,0.7107,1.4008,149.7344
21:00:08:272,1.6366,-1.8262,8.2876,53.8249,1.375,0.5493,1.348,148.9844
21:00:08:291,2.9211,-1.1187,6.2131,54.1404,0.9507,0.2532,0.9331,147.8906
21:00:08:316,3.1988,-0.7428,6.1245,52.6153,0.4525,0.1152,0.3203,146.4375
21:00:08:335,2.1693,-0.9738,6.6931,53.09,0.0772,0.1789,-0.1964,145.0312
21:00:08:352,0.7866,-1.4419,7.1025,51.778,-0.1308,0.3837,-0.4142,144.0625
21:00:08:372,-0.2609,-1.6957,6.972,52.8992,-0.2469,0.5887,-0.3998,143.8281
21:00:08:392,-0.9648,-1.3904,6.7111,53.1527,-0.3199,0.712,-0.2336,144.2188
21:00:08:413,-0.9312,-0.8374,6.5638,53.149,-0.3569,0.7368,-0.0531,144.6562
21:00:08:437,-0.4692,0.0221,7.0091,53.9325,-0.3151,0.7285,0.0423,145
21:00:08:453,0.1366,0.9032,7.6316,52.045,-0.1574,0.7285,0.0132,145.1094
21:00:08:472,0.522,1.6694,7.7513,53.4922,-0.0125,0.7578,-0.1327,145.0469
21:00:08:492,0.3592,2.0141,7.5969,52.0993,0.0306,0.8468,-0.2933,145
21:00:08:512,0.0205,2.1099,7.5227,52.4458,0.0056,0.9373,-0.4272,144.9688
21:00:08:536,-0.3339,2.1554,7.8411,53.6101,-0.0232,0.9736,-0.5559,145.125
21:00:08:555,-0.6583,2.1614,8.1883,53.1872,-0.061,0.9544,-0.6893,145.4688
21:00:08:572,-1.2652,2.0393,8.4301,53.7145,-0.1276,0.8279,-0.7785,145.9375
21:00:08:592,-1.8686,1.7891,9.1041,52.4827,-0.1515,0.6095,-0.7806,146.5781
21:00:08:612,-2.3414,1.4263,10.2246,54.1369,-0.057,0.3999,-0.6821,147.375
21:00:08:636,-2.5425,1.1989,11.023,53.7315,0.1057,0.2225,-0.5316,148.2188
21:00:08:653,-2.345,1.2264,11.029,51.493,0.1803,-0.0049,-0.452,149.0781
21:00:08:672,-2.0182,1.2683,10.9955,52.7191,0.0027,-0.1801,-0.5037,150.4688
21:00:08:692,-2.4994,1.1654,12.2932,52.0684,-0.1795,-0.1591,-0.5077,150.75
21:00:08:713,-3.1902,0.8003,14.0098,51.9685,0.0024,0.0433,-0.3316,151.3125
21:00:08:736,-2.8526,0.8925,13.7177,49.8866,0.3521,0.0907,-0.1396,151.875
21:00:08:753,-1.6244,1.345,12.1064,51.7756,0.5249,-0.2811,-0.1726,152.3281
21:00:08:772,-0.2393,1.4395,11.1427,50.9759,0.4591,-0.9485,-0.5135,152.625
21:00:08:792,0.2958,0.501,12.1531,51.4602,0.3308,-1.4401,-1.0086,152.8594
21:00:08:813,-0.1076,-1.3138,14.2253,50.2879,0.4019,-1.4374,-1.3578,153.3125
21:00:08:837,-0.5769,-3.2052,15.3924,49.8172,0.7084,-0.9306,-1.3516,154.1875
21:00:08:855,0.1366,-4.1857,14.2983,50.5399,1.0922,-0.202,-1.17,155.6094
21:00:08:874,3.5184,-3.7607,7.9548,49.4928,1.2892,0.1469,-1.2201,157.2656
21:00:08:892,2.951,-3.5093,5.9437,48.9149,1.2301,-0.0547,-1.6201,158.7656
21:00:08:914,1.3528,-3.4542,5.2303,50.369,0.9936,-0.5034,-2.0385,160.2656
21:00:08:936,-0.1136,-3.1035,5.0639,49.7214,0.6863,-0.8065,-2.1812,162.0625
21:00:08:952,-0.5984,-2.1099,5.0938,49.356,0.3651,-0.8435,-2.0334,164.25
21:00:08:972,0.0779,-0.9714,5.4026,49.0542,0.0692,-0.7272,-1.7732,166.8438
21:00:08:992,0.4706,-0.0066,5.6959,49.0373,-0.1446,-0.5809,-1.6643,169.3906
21:00:09:013,0.2599,0.4914,6.3531,49.3796,-0.2458,-0.5644,-1.7559,171.5938
21:00:09:035,-0.4811,0.3083,6.5351,47.8579,-0.2144,-0.5221,-1.9111,173.4375
21:00:09:056,-1.8303,0.2436,6.4704,49.2813,-0.1651,-0.3998,-1.9836,175.3438
21:00:09:071,-2.8167,0.4878,6.9265,49.3935,-0.2178,-0.2568,-1.8462,177.4062
21:00:09:091,-2.6646,1.2312,8.2194,50.1483,-0.3265,-0.2078,-1.5679,179.5312
21:00:09:113,-2.0924,1.9447,9.6392,49.8675,-0.3542,-0.1903,-1.3751,181.7344
21:00:09:138,-1.7441,2.3792,10.9273,49.8232,-0.2767,-0.1865,-1.399,183.6562
21:00:09:154,-1.8123,2.0907,11.6767,49.5558,-0.1571,-0.0648,-1.5599,185.2031
21:00:09:172,-2.7891,1.2983,11.3869,49.3689,-0.0517,0.2273,-1.7538,186.7188
21:00:09:192,-4.2065,0.5381,9.96,49.8319,-0.0264,0.5839,-1.7985,188.375
21:00:09:212,-4.8326,0.7165,8.3367,48.9965,-0.2171,0.8979,-1.5849,190.2812
21:00:09:237,-4.3178,0.9774,8.7856,49.7836,-0.7606,1.1152,-1.3402,192.2656
21:00:09:252,-4.1071,0.4603,11.2864,50.2313,-1.4152,1.2609,-1.2496,194.2656
21:00:09:317,-4.0904,-0.6159,13.8625,49.5746,-1.6735,1.2625,-1.1934,195.9375
21:00:09:317,-3.6343,-1.7591,15.147,50.1995,-1.4386,1.0678,-1.0355,197.9688
21:00:09:317,-3.5948,-2.8964,15.9575,48.6218,-1.0634,0.825,-0.8752,199.2344
21:00:09:331,-3.2333,-4.1581,16.4459,49.9084,-0.6701,0.708,-0.6379,200.3594
21:00:09:355,-2.9735,-4.6178,15.1782,49.521,-0.0493,0.6412,-0.2736,201.2656
21:00:09:374,-2.0314,-3.7583,12.2896,48.6301,0.6836,0.6316,0.2407,202
21:00:09:391,0.5819,-2.4642,8.7844,47.4403,1.2421,0.6023,0.7747,202.4062
21:00:09:413,2.7534,-1.0086,5.915,47.7372,1.4496,0.2798,0.8583,202.3594
21:00:09:436,3.2514,-0.6087,4.6987,46.9698,1.3039,-0.3016,0.3826,201.7812
21:00:09:455,2.4817,-0.8374,4.9034,48.0408,0.9468,-0.8419,-0.3207,201.1094
21:00:09:471,0.868,-1.3785,5.7773,46.2065,0.5119,-1.0771,-0.9412,200.875
21:00:09:493,-0.5338,-1.9938,6.6177,46.2065,0.1009,-0.9951,-1.2739,201.3125
21:00:09:512,-1.7525,-2.0141,7.3024,47.5523,-0.2064,-0.7967,-1.3074,202.3906
21:00:09:537,-2.2768,-1.6526,7.834,47.0322,-0.3558,-0.6704,-1.1104,203.0625
21:00:09:553,-2.1415,-1.0947,8.4684,45.9834,-0.3039,-0.7652,-0.8137,204.4844
21:00:09:573,-1.9021,-0.4292,8.8874,46.8896,0.2037,-1.0129,-0.4209,206.2656
21:00:09:593,-1.6938,0.2101,8.6683,47.2234,0.3912,-0.9189,-0.3511,207.0781
21:00:09:612,-1.4244,0.5213,8.1799,46.273,0.4325,-0.7543,-0.3447,207.5938
21:00:09:636,-1.2245,0.6506,7.7801,46.8656,0.3659,-0.655,-0.395,208
21:00:09:656,-1.3562,0.7416,7.8938,46.5356,0.2626,-0.6491,-0.4366,208.3281
21:00:09:674,-1.3227,0.6997,8.5738,45.6272,0.1846,-0.6164,-0.4701,209.0625
21:00:09:690,-1.179,0.5321,9.3399,47.734,0.1382,-0.5141,-0.53,209.0625
21:00:09:713,-1.2832,0.3262,10.203,45.6994,0.1353,-0.3524,-0.5673,209.5312
21:00:09:735,-1.4615,-0.0736,10.6136,44.5747,0.1699,-0.1881,-0.5556,210.0156
21:00:09:752,-1.5932,-0.4304,10.5274,44.4216,0.1387,-0.1066,-0.4951,210.5625
21:00:09:770,-1.3969,-0.6925,10.7225,44.4832,0.0269,-0.1871,-0.4368,211.1719
21:00:09:791,-1.2305,-1.0313,11.8371,44.317,-0.041,-0.3394,-0.3873,211.7969
21:00:09:813,-1.2856,-1.4659,13.513,43.9445,0.0687,-0.3527,-0.2475,213.0469
21:00:09:836,-1.4005,-2.0285,14.1798,44.0714,0.3388,-0.198,0.0609,213.0469
21:00:09:856,-0.9683,-1.9902,13.0952,44.3757,0.5414,-0.1181,0.4607,213.3906
21:00:09:877,0.3449,-1.3761,11.4121,42.7074,0.4916,-0.3184,0.7352,213.5
21:00:09:891,2.022,-0.331,10.8315,42.5914,0.2434,-0.7551,0.7395,213.1875
21:00:09:912,3.8763,0.7129,11.9041,42.0346,0,-1.1008,0.3137,212.4844
21:00:09:933,4.585,0.2699,13.9188,44.2396,0.0184,-1.1344,-0.3894,211.5469
21:00:09:952,3.2083,-1.1426,15.1434,43.5317,0.3515,-0.8068,-0.8022,210.8594
21:00:09:978,1.7311,-2.4355,14.1032,42.0541,0.7619,-0.2749,-0.7162,210.7344
21:00:09:991,1.6521,-2.8018,11.2325,41.8756,0.976,0.0622,-0.4539,211.1094
21:00:10:012,2.5021,-2.2416,8.4469,41.3743,0.938,0.0894,-0.3934,211.9688
21:00:10:036,2.9785,-1.4096,6.6213,42.2689,0.7718,0.0084,-0.5801,212.7031
21:00:10:056,2.5775,-0.8302,5.5583,40.0942,0.5766,-0.0028,-0.8091,213.1875
21:00:10:071,1.9298,-0.5201,4.682,40.1045,0.3657,0.0846,-0.9607,213.6094
21:00:10:095,1.5504,-0.258,3.826,40.5842,0.0855,0.1671,-1.0856,214.2031
21:00:10:110,1.4761,0.1694,3.4909,40.9295,-0.2455,0.1626,-1.2326,215.6406
21:00:10:133,1.3492,0.4304,3.9338,40.9063,-0.5159,0.0737,-1.4281,216.8125
21:00:10:155,0.7435,0.3573,4.9142,39.7664,-0.6562,-0.0401,-1.5958,218.0781
21:00:10:171,-0.274,0.1203,5.8683,39.236,-0.7388,-0.1143,-1.6025,219.6094
21:00:10:199,-1.3383,0.0796,7.1636,41.0298,-0.7555,-0.1136,-1.3964,221.375
21:00:10:211,-1.4113,0.3071,8.8024,39.2183,-0.637,-0.0672,-1.1474,223.1562
21:00:10:232,-0.7553,0.7859,9.8918,41.1813,-0.4682,0.0156,-1.0512,224.9219
21:00:10:256,-0.7541,1.1786,10.3658,39.1914,-0.3659,0.1003,-1.0472,226.3906
21:00:10:271,-1.6698,0.8326,11.5438,41.0517,-0.3489,0.1344,-1.0075,227.5781
21:00:10:291,-1.9991,0.6865,12.3698,39.2443,-0.3057,0.1594,-0.8784,228.7812
21:00:10:324,-2.1475,0.6087,12.8295,39.7862,-0.2083,0.2494,-0.6936,230
21:00:10:340,-1.9775,0.5034,12.7852,40.4312,-0.0631,0.3871,-0.4797,231.1094
21:00:10:352,-1.6279,0.3969,12.2824,39.8656,0.0906,0.499,-0.2802,231.9844
21:00:10:373,-1.3083,0.3478,11.6216,38.2208,0.1878,0.545,-0.1276,232.6875
21:00:10:393,-1.1575,0.2843,11.3702,38.6055,0.1728,0.5315,-0.0291,233.1406
21:00:10:413,-0.8546,0.4375,11.4719,40.5859,0.0775,0.4846,0.0686,233.4531
21:00:10:436,-0.5901,0.5477,11.8514,39.0967,-0.004,0.3443,0.0969,233.5
21:00:10:455,-0.456,0.0832,12.7385,38.6114,-0.0754,0.0255,0.0316,233.4531
21:00:10:473,-1.0905,-0.8422,14.5605,37.8789,-0.1664,-0.2726,-0.0746,233.4062
21:00:10:491,-1.4711,-1.8561,15.0848,39.0644,-0.0522,-0.1868,-0.0475,233.3438
21:00:10:512,-1.1814,-2.3756,12.7301,40.0901,0.331,0.2633,0.1904,233.3594
21:00:10:536,-0.4572,-2.22,9.6715,38.3234,0.6479,0.5432,0.4961,233.4375
21:00:10:558,0.3796,-1.9998,8.3595,38.6993,0.6631,0.2553,0.6332,233.3906
21:00:10:571,0.3832,-2.0991,8.618,38.7948,0.4815,-0.2153,0.5294,233.0156
21:00:10:591,-0.4416,-2.2476,8.9209,37.6269,0.327,-0.4403,0.3664,232.3438
21:00:10:611,-1.1898,-1.8753,8.5151,38.8846,0.2903,-0.3599,0.3861,231.6875
21:00:10:631,-1.0988,-1.0768,7.6771,40.568,0.3294,-0.2193,0.5906,231.1875
21:00:10:656,-0.4536,-0.2963,6.7614,39.9851,0.3886,-0.1857,0.7858,230.7812
21:00:10:672,0.1976,0.3107,6.1807,38.0355,0.384,-0.2185,0.8537,230.2188
21:00:10:691,0.5915,0.5166,6.0862,38.9416,0.318,-0.2733,0.796,228.9688
21:00:10:712,0.6465,0.5956,6.1137,38.937,0.2445,-0.2899,0.683,227.9844
21:00:10:737,0.3844,0.5884,6.2095,39.2298,0.1894,-0.2582,0.6055,227.0781
21:00:10:755,0.0899,0.677,6.3232,40.7284,0.1435,-0.1892,0.5818,226.3281
21:00:10:772,0.1964,0.8913,6.4824,39.0715,0.0871,-0.1077,0.6183,225.625
21:00:10:791,0.552,1.1654,6.8954,40.9441,-0.0011,-0.0853,0.645,224.9531
21:00:10:811,0.6801,1.5365,7.8447,40.1153,-0.1446,-0.1064,0.5954,224.2812
21:00:10:838,0.5855,1.6239,9.0837,40.0724,-0.2834,-0.1399,0.4844,223.5469
21:00:10:854,0.3102,1.4395,9.9397,40.2727,-0.3262,-0.1255,0.3539,222.8594
21:00:10:872,0.1462,1.2312,10.209,40.8288,-0.2935,-0.067,0.2822,222.3438
21:00:10:892,0.552,1.0074,10.3299,40.5508,-0.2799,-0.1013,0.2681,221.9375
21:00:10:914,1.208,0.5333,11.5426,41.918,-0.3744,-0.3932,0.2013,221.625
21:00:10:938,1.6677,-0.167,13.9966,41.3725,-0.5768,-0.7029,0.0873,221.3281
21:00:10:954,2.2399,-0.9715,15.5672,43.0979,-0.6703,-0.594,0.037,221.1094
21:00:10:972,2.5882,-1.3174,14.5533,41.9211,-0.4549,0.2526,0.1094,221.0469
21:00:10:996,2.1968,-0.7967,12.9348,43.6866,-0.5119,0.103,0.0974,220.9844
21:00:11:011,1.8161,-0.6099,13.4005,43.5642,-0.4855,-0.1567,0.0316,220.9375
21:00:11:031,1.2319,-1.1642,14.8633,42.9104,-0.0751,-0.0704,0.1304,220.8438
21:00:11:056,1.032,-1.5951,14.1008,43.8189,0.5744,0.108,0.3624,220.7656
21:00:11:072,1.9825,-1.661,11.3331,44.8166,1.0759,0.0116,0.4588,220.75
21:00:11:091,3.3915,-1.6227,8.4828,43.0456,1.2032,-0.3064,0.2841,220.5938
21:00:11:110,4.512,-1.333,6.5183,45.4492,0.934,-0.7591,-0.1599,220.1562
21:00:11:130,4.6329,-1.1043,6.3651,44.8312,0.4136,-0.9834,-0.7322,219.5938
21:00:11:153,3.7925,-1.2791,7.7585,45.9648,-0.0362,-0.6339,-1.1985,219.2188
21:00:11:172,2.5559,-1.722,8.4361,45.4739,-0.3031,0.0681,-1.4414,219.3281
21:00:11:198,1.354,-1.588,7.8292,46.9752,-0.4634,0.6452,-1.4243,220.125
21:00:11:209,0.9745,-1.0648,6.8392,47.475,-0.539,0.7781,-1.2752,221.4219
21:00:11:231,1.3325,-0.2807,6.7206,46.5064,-0.4783,0.6108,-1.1649,224.7812
21:00:11:257,1.9981,0.3837,7.087,48.4913,-0.2748,0.3879,-1.1817,225.5469
21:00:11:277,2.3357,0.8039,7.0462,48.3429,-0.0666,0.2095,-1.2925,226.9062
21:00:11:290,2.1633,0.9894,6.7147,47.5483,-0.0125,0.1264,-1.4073,228.2656
21:00:11:311,1.7072,0.9846,6.7111,49.7687,-0.118,0.1845,-1.4645,229.6875
21:00:11:338,1.196,1.0732,7.0439,47.1691,-0.3068,0.3051,-1.444,231.1719
21:00:11:411,0.7052,1.1414,7.6161,48.4694,-0.531,0.4265,-1.3508,232.8281
21:00:11:412,-0.0334,1.412,8.8551,50.9978,-0.6304,0.4449,-1.1625,234.5312
21:00:11:412,-0.3411,1.5951,10.4041,52.6967,-0.474,0.3472,-0.9215,236.1719
21:00:11:413,-0.2261,1.7855,11.4624,50.6158,-0.2016,0.2356,-0.7186,236.8594
21:00:11:430,-0.2788,2.0979,11.9604,50.424,0.0269,0.1333,-0.5774,238.2344
21:00:11:455,-0.1256,2.1698,12.3626,51.9463,0.2165,-0.0193,-0.5734,239.3281
21:00:11:471,-0.0119,1.5401,12.4512,53.2718,0.3273,-0.1173,-0.7117,240.1562
21:00:11:490,-0.6715,0.6853,12.0058,53.392,0.2365,-0.0939,-0.8081,240.7969
21:00:11:515,-1.4747,-0.1311,11.9711,53.0911,0.0011,0.1059,-0.7796,241.4375
21:00:11:539,-2.1822,-0.8122,12.3267,54.3133,-0.1467,0.2774,-0.6701,242.6562
21:00:11:556,-2.6215,-1.2408,12.45,53.4848,-0.1561,0.1871,-0.4898,243.5625
21:00:11:571,-2.6515,-1.7615,12.5613,54.4034,-0.1047,-0.1245,-0.3172,244.4219
21:00:11:590,-2.594,-2.2284,13.6662,54.4469,0.1353,-0.1673,-0.1681,245.1094
21:00:11:611,-2.418,-2.7671,13.44,54.4531,0.4903,0.16,-0.0147,245.5312
21:00:11:636,-2.4635,-2.9634,10.6076,54.4531,0.5675,0.303,0.1674,245.7969
21:00:11:658,-2.1786,-2.7659,8.3774,55.4111,0.2645,0.092,0.299,245.9062
21:00:11:670,-1.6974,-2.6091,9.7685,55.119,-0.1108,-0.2358,0.3842,245.8281
21:00:11:695,-1.5573,-2.4499,10.701,55.7622,-0.2538,-0.3612,0.4806,245.5312
21:00:11:710,-1.5214,-1.9483,10.2509,55.7622,-0.1531,-0.2611,0.6295,245.1406
21:00:11:731,-1.3598,-1.3294,8.9113,54.846,0.0471,-0.0853,0.842,244.6719
21:00:11:757,-0.8869,-0.7775,7.5275,56.2466,0.2157,0.0281,1.0519,244.0469
21:00:11:772,-0.14,-0.252,6.4776,56.7099,0.3023,0.0465,1.2079,243.2031
21:00:11:791,0.297,0.1658,5.9509,56.8538,0.3071,-0.0012,1.2604,242.1094
21:00:11:811,0.4742,0.3945,5.8096,57.2122,0.2778,-0.0749,1.2466,240.8594
21:00:11:831,0.4945,0.6387,6,57.0076,0.2296,-0.1218,1.2282,238.6875
21:00:11:854,0.6394,0.9068,6.5231,57.5318,0.1643,-0.153,1.2245,237.25
21:00:11:879,0.7591,1.1043,7.3204,59.5778,0.1081,-0.2225,1.2039,235.9062
21:00:11:889,0.7244,1.3222,8.5965,57.6722,0.0746,-0.3591,1.1464,235.2031
21:00:11:911,0.8261,1.2899,9.869,58.4402,0.0719,-0.4459,1.0993,233.7969
21:00:11:937,1.0823,1.2863,10.7082,58.9446,0.1268,-0.4371,1.0551,232.4375
21:00:11:956,1.3504,1.4635,10.9799,59.548,0.2061,-0.3378,0.9872,231.2031
21:00:11:969,1.5216,1.6574,10.8866,58.9989,0.2503,-0.1945,0.8452,229.9688
21:00:11:990,1.6856,1.5329,10.6783,60.061,0.2373,-0.1069,0.6199,228.7656
21:00:12:010,1.7467,1.0684,10.8483,60.6343,0.16,-0.1777,0.3507,227.75
21:00:12:031,1.5444,0.2747,11.7808,59.0914,0.013,-0.3362,0.1251,226.5625
21:00:12:056,1.3648,-0.6458,13.1431,59.5524,-0.1036,-0.4236,0.0362,226.1406
21:00:12:072,1.8616,-1.3258,13.3454,60.926,-0.0392,-0.3125,0.1368,226.0156
21:00:12:091,2.4769,-1.2743,11.9017,61.8822,0.1635,-0.0672,0.3419,225.9688
21:00:12:115,3.4609,-0.6817,10.2198,58.8431,0.2751,0.0654,0.5267,225.8125
21:00:12:139,4.4473,-0.173,9.6248,60.6594,0.1936,-0.1141,0.5121,225.4375
21:00:12:156,4.7311,-0.155,10.6938,60.173,-0.0226,-0.4795,0.2471,224.8125
21:00:12:175,4.36,-0.5968,12.3255,59.3365,-0.1918,-0.7074,-0.0856,224.2188
21:00:12:191,3.7267,-1.0265,12.4631,61.0493,-0.1244,-0.5082,-0.3207,223.9219
21:00:12:215,3.4502,-1.1031,10.4448,59.551,0.1382,-0.0595,-0.3881,224.0312
21:00:12:239,3.6956,-0.8565,8.1979,62.4266,0.2746,0.0167,-0.5074,224.2031
21:00:12:255,3.7231,-0.4591,7.1001,61.0725,0.065,-0.2265,-0.7495,225.0156
21:00:12:274,3.2275,-0.1562,7.2246,59.4902,-0.1318,-0.1996,-1.0118,225.4844
21:00:12:297,2.3177,-0.1814,7.3216,59.6148,-0.2133,0.0814,-1.1823,226.6406
21:00:12:312,1.4426,-0.2233,6.6656,61.726,-0.2621,0.3493,-1.2363,227.7656
21:00:12:333,0.8417,-0.0652,5.8994,60.3184,-0.3366,0.4412,-1.2305,229.125
21:00:12:356,0.3676,0.1383,5.6002,61.707,-0.4035,0.3443,-1.2009,230.5625
21:00:12:371,0.0672,0.3346,5.8755,60.3678,-0.4362,0.1847,-1.1743,230.5625
21:00:12:391,-0.2525,0.5812,6.5495,60.3834,-0.4554,0.1043,-1.1439,232
21:00:12:411,-0.6978,0.7488,7.4353,62.1556,-0.477,0.1733,-1.0898,233.3438
21:00:12:439,-1.173,0.8925,8.1811,60.4222,-0.4969,0.3144,-1.0038,236.0781
21:00:12:455,-1.5046,0.9547,8.6228,60.7595,-0.522,0.4074,-0.9069,237.2969
21:00:12:471,-1.7656,0.8805,9.1232,59.8988,-0.555,0.4457,-0.8019,237.2969
21:00:12:496,-1.9978,0.5668,9.6631,62.0435,-0.583,0.422,-0.6901,238.4844
21:00:12:508,-2.4743,0.1837,10.47,61.3946,-0.5707,0.357,-0.5127,239.5625
21:00:12:530,-2.7544,-0.2771,11.4013,60.1272,-0.4855,0.3424,-0.228,240.4844
21:00:12:557,-2.5868,-0.4124,11.8358,61.9504,-0.3971,0.3592,0.0939,241.3281
21:00:12:575,-2.1044,-0.1263,12.1196,61.0595,-0.3651,0.4076,0.3565,241.9688
21:00:12:591,-1.434,0.2795,12.4548,60.7138,-0.3635,0.5158,0.483,242.2812
21:00:12:609,-0.8642,0.4352,12.4739,60.9761,-0.4131,0.5847,0.5408,242.0312
21:00:12:630,-0.0574,0.9044,12.4308,59.5477,-0.5702,0.6236,0.5704,241.5781
21:00:12:655,1.4785,1.5664,13.0904,61.824,-0.6927,0.4937,0.3976,241.0312
21:00:12:672,1.931,1.2815,14.6467,61.7119,-0.4924,0.173,0.1784,240.4688
21:00:12:690,0.892,-0.1814,15.6055,59.9511,-0.1286,0.1725,0.1933,240.1719
21:00:12:711,-0.1531,-1.3042,15.2045,59.44,0.3537,0.491,0.3403,239.7656
21:00:12:730,-0.0669,-1.6718,12.4093,59.3032,0.7726,0.5384,0.4135,239.5938
21:00:12:753,0.5376,-1.9914,8.9496,58.5871,0.8,0.1355,0.3134,239.3906
21:00:12:771,0.5257,-2.0512,7.0941,59.4521,0.477,-0.3913,0.0766,239.0312
21:00:12:789,-0.2393,-2.1614,7.5167,59.525,0.0945,-0.667,-0.1175,238.5938
21:00:12:810,-1.1743,-2.5528,8.8108,57.9814,-0.0772,-0.6174,-0.1156,238.2656
21:00:12:830,-2.1092,-2.7144,9.5638,58.9488,0.0107,-0.4526,0.1222,238.1562
21:00:12:856,-2.618,-2.378,9.4464,57.5105,0.2485,-0.2792,0.544,238.2656
21:00:12:873,-1.9548,-1.8441,8.5498,57.3085,0.4812,-0.0992,0.8964,238.3281
21:00:12:891,-1.1527,-1.1211,7.1779,59.3276,0.6107,-0.0132,1.0745,237.9219
21:00:12:910,-0.4943,-0.5537,6.0179,57.0098,0.5942,-0.0451,1.1129,237.0625
21:00:12:930,-0.1603,-0.0664,5.4302,56.3034,0.4698,-0.1082,1.0697,235.9531
21:00:12:955,-0.0681,0.1574,5.6612,58.5553,0.3185,-0.194,1.0029,234.6562
21:00:12:971,-0.0633,0.2987,6.6656,56.2899,0.1939,-0.203,0.9326,233.3906
21:00:12:990,-0.1806,0.4411,7.8471,56.0918,0.1228,-0.1287,0.875,232.25
21:00:13:010,-0.2058,0.6865,8.6707,56.1413,0.0756,-0.0497,0.7991,231.125
21:00:13:029,-0.0454,0.9284,9.1951,56.5282,0.0189,-0.0174,0.6535,230.0938
21:00:13:055,0.0324,1.0289,9.8582,56.5784,-0.012,-0.0092,0.4681,229.1094
21:00:13:072,0.0217,0.5237,10.5801,55.9189,-0.0067,0.0585,0.2756,228.3125
21:00:13:090,0.1126,0.1035,10.5358,56.2741,-0.0408,0.1815,0.1099,227.6719
21:00:13:111,0.3161,-0.5118,11.0194,56.5671,-0.1555,0.2042,-0.0224,227.25
21:00:13:131,0.1414,-1.0469,12.2441,55.8616,-0.3129,0.1203,-0.1519,227.0469
21:00:13:155,0.1294,-1.5808,13.3262,55.9636,-0.4027,0.1259,-0.19,227.0156
21:00:13:171,0.6765,-1.9076,13.2005,56.5042,-0.3225,0.2574,-0.0888,227.125
21:00:13:189,1.4582,-1.5484,12.1124,55.9392,-0.1329,0.3512,0.0484,227.3438
21:00:13:213,1.8903,-1.163,11.1727,55.7819,0.004,0.2399,0.0489,227.5312
21:00:13:228,1.4175,-1.1259,11.3594,56.6953,0.0059,0.0042,-0.1156,227.5625
21:00:13:251,0.7818,-1.5903,12.1962,54.876,-0.0525,-0.1,-0.264,227.4844
21:00:13:271,0.5759,-1.8992,11.9017,53.4685,0.0226,0.0683,-0.2251,227.5156
21:00:13:293,1.208,-1.6837,10.689,54.2481,0.2216,0.2257,-0.0507,227.75
21:00:13:310,2.3249,-1.2935,9.6416,54.3832,0.3667,0.1339,0.0625,228.0625
21:00:13:329,2.8408,-0.8589,9.1819,54.9035,0.3995,-0.0864,-0.0211,228.2344
21:00:13:355,2.3536,-0.5979,8.8634,55.5186,0.363,-0.206,-0.2459,228.2031
21:00:13:372,1.4965,-0.3837,8.1548,55.0609,0.3443,-0.1311,-0.4648,228.1406
21:00:13:389,0.7902,-0.1598,6.9756,55.4996,0.3422,0.0374,-0.5822,228.2812
21:00:13:410,0.3736,0.2149,6.0299,54.177,0.29,0.1709,-0.611,228.6719
21:00:13:492,0.2419,0.7045,5.7366,53.6159,0.1718,0.2087,-0.5995,229.625
21:00:13:493,0.4694,1.0433,5.9844,55.3719,0.0676,0.1658,-0.5865,230.2812
21:00:13:493,0.4897,1.3426,6.2717,51.872,0.0453,0.0582,-0.628,230.9844
21:00:13:493,-0.1543,1.4551,6.5578,54.6143,0.0469,-0.0523,-0.7356,231.6406
21:00:13:509,-0.9265,1.4706,6.826,55.1756,0.0123,-0.0555,-0.7854,232.3594
21:00:13:531,-1.0342,1.6873,7.1109,54.8189,-0.0503,0.0209,-0.6976,233.1719
21:00:13:554,-0.778,2.1805,7.5562,54.5612,-0.1369,0.0809,-0.5745,234.0625
21:00:13:573,0.3976,2.7803,8.7138,53.467,-0.2914,0.1794,-0.4555,234.875
21:00:13:590,1.9191,3.1394,10.1156,52.335,-0.4253,0.4076,-0.4485,235.5
21:00:13:616,1.6377,2.9946,10.5753,52.5403,-0.4061,0.7046,-0.7631,236.0156
21:00:13:629,-0.4045,1.9076,10.1779,53.4416,-0.294,0.8367,-1.2305,236.2656
21:00:13:652,-3.1495,0.4112,11.0506,52.7586,-0.2948,0.6561,-1.4544,236.9219
21:00:13:676,-4.3861,-0.6231,13.3406,54.6795,-0.3092,0.2241,-1.2203,238.0312
21:00:13:693,-3.6283,-0.8314,14.5856,53.5591,-0.0506,-0.0877,-0.6555,239.6406
21:00:13:709,-2.5641,-0.4771,13.7081,53.3558,0.3483,-0.1061,-0.1998,241.25
21:00:13:730,-2.0661,-0.41,12.5445,52.7422,0.4874,-0.0496,-0.0632,242.5938
21:00:13:758,-2.43,-0.9702,12.6152,52.8231,0.2711,-0.0289,-0.1612,242.8281
21:00:13:772,-3.2728,-1.7603,13.4041,51.5377,-0.1009,0.1685,-0.1162,242.9062
21:00:13:791,-3.6032,-2.4259,13.6926,52.5592,0.098,0.2422,0.1344,242.9062
21:00:13:810,-3.1327,-2.7324,12.9025,51.4946,0.3425,0.3275,0.397,243.0781
21:00:13:830,-2.3438,-2.5456,11.2193,51.4946,0.4618,0.2955,0.5318,243.3438
21:00:13:855,-1.8937,-2.2487,9.7278,51.2369,0.4447,0.0558,0.5453,243.4844
21:00:13:877,-1.5729,-2.2452,9.2274,50.9968,0.3872,-0.2363,0.547,243.3438
21:00:13:896,-1.1323,-2.4367,9.4345,51.8422,0.4029,-0.3695,0.5749,242.3125
21:00:13:908,-0.9205,-2.2763,9.1017,50.5209,0.4509,-0.3847,0.6276,241.7031
21:00:13:929,-0.8427,-1.8944,8.2601,50.2063,0.4482,-0.4023,0.6918,241.125
21:00:13:955,-0.7612,-1.4898,7.628,51.0856,0.4147,-0.4214,0.7664,240.4688
21:00:13:974,-0.4249,-1.1031,7.2964,49.3931,0.416,-0.4044,0.8463,239.7656
21:00:13:993,0.2743,-0.5585,7.2342,50.8217,0.4621,-0.3996,0.8663,239.0312
21:00:14:010,1.3792,0.1814,7.7118,48.4793,0.6123,-0.3951,0.7347,237.6875
21:00:14:029,1.8951,0.7404,7.7346,48.7507,0.804,-0.3799,0.4428,236.7031
21:00:14:054,1.0428,0.7979,6.5914,48.9839,0.8453,-0.3777,0.2263,235.8125
21:00:14:072,-0.2836,0.6782,5.2805,48.9367,0.6136,-0.3447,0.2734,235.1406
21:00:14:090,-0.8929,0.835,4.7658,49.8708,0.2133,-0.2233,0.5065,234.8125
21:00:14:109,-0.3913,1.394,4.8819,48.2765,-0.2471,-0.1559,0.6623,234.5781
21:00:14:130,0.3401,2.2679,5.8779,49.3712,-0.6314,-0.2046,0.6407,234.4062
21:00:14:154,0.8417,2.876,7.7059,48.2368,-0.8226,-0.3149,0.4673,233.8281
21:00:14:172,0.6478,2.9539,9.7002,48.3389,-0.7806,-0.3815,0.2764,233.0938
21:00:14:190,0.0492,2.73,11.3295,47.0353,-0.559,-0.3082,0.2077,232.4219
21:00:14:209,-0.353,2.5061,11.922,48.3527,-0.2826,-0.2379,0.2327,231.9219
21:00:14:230,-0.2345,2.475,11.5857,47.5615,-0.1382,-0.3226,0.2298,231.6406
21:00:14:255,0.1067,2.4487,11.4265,47.7646,-0.1878,-0.4917,0.148,231.4219
21:00:14:271,0.3748,2.1482,12.2261,46.6989,-0.2924,-0.5815,0.0388,231.1875
21:00:14:291,0.5209,1.5772,13.4591,46.7373,-0.3057,-0.5133,-0.0166,230.8438
21:00:14:311,0.716,0.8458,14.1271,46.6442,-0.2509,-0.3468,0.0111,230.7656
21:00:14:330,1.1302,0.3154,13.7764,46.6223,-0.2442,-0.1804,0.0703,230.7812
21:00:14:354,1.5994,0.0078,13.118,45.8185,-0.3073,-0.0938,0.0963,230.8125
21:00:14:372,1.8053,-0.0018,12.754,46.729,-0.3481,-0.0691,0.082,230.7812
21:00:14:390,1.8305,-0.0533,12.6439,47.1401,-0.2738,-0.0355,0.0412,230.7031
21:00:14:410,1.4737,-0.1766,12.371,46.268,-0.0602,-0.0083,0.0497,230.625
21:00:14:430,1.5276,-0.3202,11.6407,45.2958,0.2245,0.002,0.0932,230.5781
21:00:14:456,2.1034,-0.3681,10.4328,45.7171,0.4637,-0.0539,0.0849,230.5469
21:00:14:471,3.4358,-0.1442,7.962,46.3207,0.5848,-0.223,-0.0366,230.4531
21:00:14:491,3.5471,-0.0293,7.251,45.426,0.5409,-0.3908,-0.2816,230.3281
21:00:14:509,3.2203,0.0904,7.063,47.7729,0.347,-0.4552,-0.5788,230.2344
21:00:14:532,2.5583,0.1239,7.1169,47.7499,0.0858,-0.3924,-0.8624,230.3594
21:00:14:556,1.7144,0.1299,7.3372,47.2611,-0.1851,-0.2049,-1.0818,230.8281
21:00:14:573,0.7722,0.0305,7.8052,45.7746,-0.3814,-0.0097,-1.1868,231.1875
21:00:14:594,-0.0945,-0.0042,8.1225,49.1266,-0.4314,0.201,-1.1476,232.7188
21:00:14:609,-0.5494,0.2185,7.9393,47.0798,-0.3369,0.3901,-0.9519,234.0625
21:00:14:628,-0.2094,0.6075,7.5263,47.3213,-0.1771,0.4803,-0.6672,235.4688
21:00:14:649,0.3724,1.0589,7.2905,46.386,-0.0253,0.4731,-0.4464,236.6562
21:00:14:671,0.6035,1.485,7.1875,47.7924,0.1047,0.369,-0.3993,237.5938
21:00:14:689,0.6214,1.6466,7.4138,47.7266,0.1574,0.2404,-0.4547,238.2188
21:00:14:708,0.3341,1.661,8.0722,47.546,0.1278,0.1624,-0.526,238.6719
21:00:14:731,-0.1747,1.5927,8.9269,46.973,0.0828,0.1964,-0.5593,239.1094
21:00:14:755,-0.778,1.2599,9.5889,48.4341,0.0751,0.3525,-0.5266,239.6719
21:00:14:773,-1.4532,1.0409,9.9049,47.9226,0.0938,0.5674,-0.3905,240.2969
21:00:14:790,-1.6639,1.3545,10.0091,46.6749,0.1169,0.8106,-0.1172,240.875
21:00:14:808,-1.507,1.8142,10.0486,48.1715,0.1593,0.9474,0.1459,241.4062
21:00:14:829,-1.4352,2.2428,10.4113,47.7416,0.1625,0.8433,0.2639,241.6875
21:00:14:855,-1.5753,2.2966,10.9895,48.1068,0.159,0.6004,0.2716,241.5156
21:00:14:871,-1.6268,2.0488,11.8071,47.7586,0.1763,0.2947,0.2809,241.1875
21:00:14:890,-1.0174,1.8358,12.3542,47.0375,0.2232,0.0771,0.3738,240.8594
21:00:14:914,-0.2621,1.7544,12.6463,47.4392,0.2109,-0.002,0.4114,240.5469
21:00:14:927,0.0528,1.1211,13.7213,47.7834,0.0208,-0.1074,0.2982,240.1094
21:00:14:949,-0.4045,-0.0018,15.0477,48.1116,-0.1723,-0.0917,0.1302,239.6406
21:00:14:973,-0.9408,-1.06,14.1882,48.0712,-0.0565,0.2449,0.0993,239.2969
21:00:14:989,-1.0126,-1.339,10.6986,48.2909,0.3646,0.7112,0.3001,239.1719
21:00:15:010,-0.4584,-0.8697,7.3611,48.286,0.7007,0.7251,0.6125,239.0469
21:00:15:029,0.3988,-0.1562,6.1197,48.5923,0.7297,0.1094,0.7866,238.6719
21:00:15:054,1.0967,0.0509,7.2079,48.9198,0.506,-0.7162,0.6918,238
21:00:15:074,0.9542,-0.2951,8.3475,49.915,0.2645,-1.1533,0.4109,237.0938
21:00:15:089,0.1078,-0.3262,8.4959,48.9834,0.1398,-1.129,0.2007,236.3438
21:00:15:109,-0.3351,-0.0257,8.4205,47.2831,0.073,-1.0366,0.1826,236.1094
21:00:15:129,-0.2453,0.3274,8.1548,49.0033,0.0474,-0.9205,0.2721,235.875
21:00:15:155,0.1677,0.6638,7.6795,48.3059,0.0088,-0.6768,0.3776,235.7344
21:00:15:174,0.5604,1.0289,7.1995,47.483,-0.0844,-0.3309,0.4631,235.4062
21:00:15:189,0.5508,1.4479,7.142,49.6367,-0.2482,-0.0326,0.4697,235.0312
21:00:15:209,0.4837,1.6586,7.6233,49.3875,-0.1958,-0.0329,0.4865,234.5312
21:00:15:230,0.5292,1.8765,7.9357,47.4857,-0.0799,0.0084,0.5203,234.5312
21:00:15:257,0.6035,2.0644,7.7932,47.3824,0.0115,0.0356,0.5283,234
21:00:15:274,0.6011,2.2643,7.4473,48.3464,0.0202,-0.0422,0.5081,232.9531
21:00:15:290,0.7519,2.3828,7.4545,49.2905,-0.082,-0.1652,0.4596,232.375
21:00:15:308,0.8357,2.4475,8.1308,49.5612,-0.2346,-0.1932,0.4034,231.7969
21:00:15:328,1.0105,2.4008,9.201,49.6679,-0.3406,-0.0592,0.3496,231.2188
21:00:15:348,1.0284,2.481,10.1108,47.3394,-0.3483,0.1501,0.2961,230.7031
21:00:15:373,0.977,2.5947,10.1671,49.2905,-0.3545,0.1717,0.1936,230.2656
21:00:15:391,1.0248,2.4307,10.2664,47.7499,-0.4605,-0.0265,0.0604,229.9062
21:00:15:414,1.111,1.965,11.296,49.2364,-0.5934,-0.1775,-0.0488,229.3906
21:00:15:428,0.8297,1.3126,12.8725,49.6007,-0.6109,-0.0539,-0.0363,229.3438
21:00:15:448,0.5711,0.6674,13.6207,49.3825,-0.4826,0.271,0.1464,229.3906
21:00:15:475,1.0332,0.2723,12.6056,50.9409,-0.3768,0.4361,0.3565,229.5156
21:00:15:490,1.779,0.4938,11.3522,49.1193,-0.4208,0.3227,0.4252,229.5
21:00:15:573,2.465,0.8242,11.0721,51.3997,-0.5707,0.0878,0.2873,229.25
21:00:15:573,2.7546,0.9559,12.1172,50.9188,-0.6567,-0.08,0.0202,228.7812
21:00:15:574,2.7271,0.3154,13.5345,48.6241,-0.5468,-0.0683,-0.2677,228.3906
21:00:15:574,1.773,-0.5908,14.3785,49.9145,-0.1867,0.0383,-0.3354,228.2656
21:00:15:593,1.3864,-1.1498,13.8661,48.8171,0.3023,0.0295,-0.1788,228.2812
21:00:15:608,2.2854,-1.1761,12.1447,50.7382,0.6639,-0.1575,-0.1037,228.625
21:00:15:629,3.3436,-0.9667,10.3874,50.6227,0.7774,-0.3785,-0.2302,229.0156
21:00:15:654,3.7339,-0.7775,9.2166,50.4458,0.7273,-0.4185,-0.4749,229.2031
21:00:15:673,3.2299,-0.6434,8.3942,51.3506,0.6509,-0.3165,-0.6821,229.2812
21:00:15:694,2.4901,-0.4244,7.3467,51.4388,0.555,-0.1165,-0.8033,229.9844
21:00:15:709,1.8987,-0.173,6.2382,51.1058,0.4,0.1395,-0.8502,230.2969
21:00:15:730,1.4965,0.1598,5.2805,52.1927,0.2218,0.3056,-0.8786,231.1094
21:00:15:752,1.2056,0.5142,4.7646,51.3216,0.0743,0.3317,-0.9194,232.0312
21:00:15:768,0.965,0.7739,4.6544,53.7138,-0.0253,0.2516,-0.9426,232.9375
21:00:15:791,0.7615,1.1378,4.8879,53.2843,-0.1049,0.1112,-0.9388,233.9531
21:00:15:808,0.6897,1.4587,5.5343,52.5407,-0.1715,-0.0161,-0.9471,235.0156
21:00:15:829,0.534,1.7675,6.395,53.5055,-0.2197,-0.0741,-0.9681,236.0938
21:00:15:848,0.2671,1.9172,7.2581,54.1074,-0.2993,-0.0443,-0.9865,237.125
21:00:15:871,-0.9456,1.8298,9.2561,53.682,-0.4,0.0907,-0.9359,238.2344
21:00:15:889,-1.2688,1.8298,10.0977,55.1301,-0.489,0.23,-0.8051,239.375
21:00:15:908,-1.3311,1.7963,11.2086,53.9485,-0.5566,0.2601,-0.6296,240.4531
21:00:15:928,-1.1324,1.7005,12.4679,53.2297,-0.5212,0.1647,-0.4384,241.4688
21:00:15:948,-1.0916,1.6095,13.2963,53.2297,-0.3523,0.0042,-0.2648,242.3281
21:00:15:974,-1.027,1.4994,13.8961,54.8169,-0.1342,-0.1511,-0.0943,242.9531
21:00:15:989,-0.6978,1.3366,13.7955,54.9916,0.0402,-0.1018,0.0742,243.3438
21:00:16:008,-0.4165,1.2504,12.7193,55.5757,0.126,0.1994,0.2055,243.6094
21:00:16:028,-0.5099,1.309,11.9532,55.9553,0.0759,0.463,0.2748,243.5781
21:00:16:048,-0.6164,1.0457,11.8646,54.9007,-0.008,0.4998,0.3038,243.4219
21:00:16:072,-0.6834,0.5046,11.7569,56.5525,0.0469,0.3895,0.327,243.125
21:00:16:090,-0.5099,0.1083,11.2936,55.9498,0.2365,0.214,0.3949,242.7812
21:00:16:107,-0.0765,-0.258,10.4329,56.5779,0.4157,0.1437,0.4809,242.4375
21:00:16:128,0.1964,-0.5453,8.9724,56.6249,0.5079,0.2865,0.49,242.0312
21:00:16:148,0.1067,-0.7093,6.9696,58.0145,0.4807,0.4574,0.4143,241.5156
21:00:16:171,-0.0729,-0.8865,5.9952,56.5611,0.2389,0.3014,0.2833,240.9219
21:00:16:190,-0.3195,-1.3438,6.6979,56.071,-0.1933,-0.1689,0.1491,240.4062
21:00:16:209,-0.6451,-1.8836,9.2836,57.7529,-0.6663,-0.8142,0.0657,239.9844
21:00:16:228,-0.778,-1.9603,13.5309,57.8363,-1.0389,-1.211,0.1254,239.7344
21:00:16:247,-0.9612,-1.6406,15.8054,57.5818,-0.9843,-0.9186,0.3224,239.6562
21:00:16:269,-1.0821,-1.3797,13.7752,59.1797,-0.4096,-0.1743,0.5422,239.5469
21:00:16:287,-0.7014,-0.9152,10.2437,56.4395,0.224,0.3349,0.8399,239.2344
21:00:16:308,0.066,-0.3741,7.4616,56.708,0.5819,0.385,1.1193,238.6562
21:00:16:330,0.7603,0.416,6.0874,57.8813,0.682,0.1384,1.262,237.6875
21:00:16:348,1.6054,1.1498,5.8049,57.8926,0.5992,-0.104,1.278,236.375
21:00:16:371,2.4051,1.6562,5.7725,56.4146,0.4724,-0.2185,1.1688,234.9688
21:00:16:390,2.5452,1.9866,5.8695,55.5285,0.3294,-0.2797,0.9057,233.4844
21:00:16:407,1.9861,1.9507,6.4345,56.5292,0.1241,-0.2726,0.5797,232.125
21:00:16:428,1.0476,1.7005,7.4233,56.6628,-0.0969,-0.211,0.3123,231.0781
21:00:16:448,0.2838,1.4024,8.6564,56.3217,-0.2208,-0.153,0.201,230.4531
21:00:16:472,0.2228,1.3857,9.6128,56.5256,-0.2021,-0.0832,0.2513,230.0938
21:00:16:489,0.8129,1.5652,10.0163,56.6119,-0.0834,-0.0544,0.3464,229.8906
21:00:16:508,1.4785,1.5987,10.1827,59.1541,0.0352,-0.1658,0.3264,229.625
21:00:16:528,1.8676,1.2312,10.9596,58.7451,0.0362,-0.4353,0.1608,229.4375
21:00:16:548,1.615,0.6087,12.9324,57.3196,-0.1201,-0.6502,-0.0475,229.0312
21:00:16:573,0.9758,-0.015,14.6395,57.6272,-0.1198,0.0659,-0.0568,228.6875
21:00:16:591,1.1122,-0.4711,14.0625,57.7695,0.1438,0.5086,0.156,228.9531
21:00:16:610,2.0065,-0.2376,11.7844,56.2678,0.2732,0.4098,0.2346,229.0156
21:00:16:628,3.164,0.258,10.2784,56.9337,0.216,0.0414,0.0527,229.0156
21:00:16:650,3.6956,0.343,9.7397,57.8459,-0.0224,-0.2606,-0.3101,228.5469
21:00:16:671,3.0455,-0.0269,10.5621,57.3552,-0.3039,-0.2749,-0.5916,228.5469
21:00:16:690,1.9047,-0.7272,12.1052,57.5435,-0.3657,0.0646,-0.6214,228.4688
21:00:16:707,1.2236,-1.2013,12.5745,58.7262,-0.1217,0.4702,-0.4323,228.8125
21:00:16:727,1.4941,-1.1774,10.9452,57.7173,0.1803,0.4817,-0.2296,229.5156
21:00:16:748,2.4039,-0.7775,8.9784,58.5473,0.2986,0.0449,-0.1993,230.25
21:00:16:771,3.2491,-0.4471,8.2434,57.6468,0.2437,-0.3761,-0.3604,230.7344
21:00:16:791,3.1485,-0.252,8.4792,58.9284,0.1465,-0.3559,-0.5649,230.9688
21:00:16:807,2.3009,-0.0856,8.0913,58.4686,0.0565,-0.064,-0.681,231.1875
21:00:16:827,1.5192,0.1909,6.9684,58.7586,-0.0786,0.2063,-0.7053,232.2031
21:00:16:847,1.1505,0.6411,5.9126,58.7524,-0.2597,0.3014,-0.7221,232.9688
21:00:16:872,0.9841,1.078,5.5092,57.6423,-0.4139,0.1586,-0.7724,233.375
21:00:16:892,0.7758,1.3282,6,58.5685,-0.4791,-0.0848,-0.8523,234.5781
21:00:16:907,0.3174,1.3761,7.0163,57.7824,-0.4392,-0.2211,-0.8752,235.0156
21:00:16:931,-0.2537,1.3306,7.6975,59.8773,-0.3832,-0.2243,-0.8089,235.9844
21:00:16:946,-0.7577,1.3869,8.205,58.387,-0.3659,-0.1484,-0.6744,237.0156
21:00:16:968,-0.7948,1.5233,8.7641,60.2397,-0.3859,-0.0302,-0.5399,237.9688
21:00:16:993,-0.5925,1.6263,9.4429,58.9712,-0.3883,0.0926,-0.4682,238.8594
21:00:17:009,-0.4943,1.74,10.1803,59.7515,-0.3382,0.2098,-0.4533,239.5625
21:00:17:027,-0.5422,1.667,10.7776,60.2256,-0.2338,0.3328,-0.4472,240.1406
21:00:17:048,-0.8163,1.3892,10.9847,59.3133,-0.138,0.4364,-0.4051,240.4062
21:00:17:074,-1.3227,1.072,10.9847,59.0894,-0.0458,0.4921,-0.277,240.9531
21:00:17:090,-1.6866,0.7991,10.9452,60.658,0.0578,0.4801,-0.0858,241.4844
21:00:17:109,-1.5441,0.6004,10.8159,60.4075,0.1324,0.405,0.1123,241.9375
21:00:17:127,-1.0641,0.5884,10.6842,57.9024,0.1422,0.3259,0.2351,242.2656
21:00:17:148,-0.5542,0.4807,10.7166,59.6165,0.077,0.3203,0.2497,242.375
21:00:17:172,-0.3734,0.2029,10.6387,58.6188,-0.0778,0.3919,0.2292,242.125
21:00:17:190,-0.5553,-0.0688,10.6771,59.8002,-0.2863,0.4012,0.2189,241.8281
21:00:17:210,-0.8235,-0.3657,11.3127,59.8383,-0.4533,0.271,0.2383,241.5625
21:00:17:232,-0.9971,-0.8673,12.6391,58.5597,-0.4653,0.1269,0.3147,241.3438
21:00:17:246,-1.1659,-1.5197,13.8877,57.1315,-0.2868,0.1099,0.4655,241.0938
21:00:17:268,-0.6248,-2.214,12.3925,57.4312,0.0474,0.2721,0.6889,240.8125
21:00:17:295,0.1474,-1.8896,10.0546,58.3775,0.318,0.3565,0.8703,240.3906
21:00:17:311,0.8225,-1.6646,8.7461,55.6597,0.3419,0.1552,0.8902,239.7656
21:00:17:328,0.8309,-1.6658,8.8443,58.9161,0.1625,-0.1474,0.7536,238.8594
21:00:17:347,0.2838,-1.7328,9.6033,57.9563,-0.0304,-0.3383,0.5826,237.8281
21:00:17:372,-0.1543,-1.5664,9.6835,57.6259,-0.0826,-0.305,0.5193,236.9062
21:00:17:390,-0.3782,-1.1271,8.9508,58.4807,-0.0274,-0.1567,0.5605,236.1562
21:00:17:407,-0.4967,-0.6434,7.9489,57.5144,0.0378,-0.0185,0.6287,235.5312
21:00:17:432,-0.3243,-0.2891,7.3635,56.0563,0.0834,0.0191,0.7158,234.9219
21:00:17:447,-0.0083,0.0257,6.8344,56.7154,0.1489,-0.0102,0.8005,233.8906
21:00:17:467,0.3377,0.4148,6.4034,57.3734,0.22,-0.0755,0.8812,233.0781
21:00:17:491,0.6322,0.8733,6.3076,55.7665,0.236,-0.1322,0.935,232.2188
21:00:17:511,1.1469,1.3581,6.395,56.4454,0.1992,-0.1655,0.9379,231.7188
21:00:17:527,1.4271,1.6921,6.7506,55.4781,0.0977,-0.2006,0.8388,230.6562
21:00:17:548,1.3648,1.8681,7.8399,55.0084,-0.0871,-0.2451,0.6687,229.5625
21:00:17:572,1.3109,1.8022,9.4141,56.8274,-0.2575,-0.2968,0.4982,228.5781
21:00:17:589,1.1386,1.6873,11.1188,55.4445,-0.2959,-0.3298,0.3571,227.7188
21:00:17:649,1.0572,1.4718,12.0944,56.183,-0.1728,-0.2946,0.2633,227.0469
21:00:17:649,1.0117,1.4096,11.8287,55.663,0.0626,-0.1911,0.2082,226.5625
21:00:17:649,1.1194,1.2899,10.8973,54.1076,0.2474,-0.0829,0.1613,226.2344
21:00:17:672,1.275,1.1115,10.3479,55.8069,0.2836,-0.0925,0.1041,225.9688
21:00:17:688,1.5516,0.8625,10.6627,53.2859,0.2013,-0.2164,0.0319,225.75
21:00:17:712,1.7754,0.4639,11.5438,53.5033,0.0903,-0.3437,-0.0493,225.5312
21:00:17:727,1.9945,0.0305,11.8394,54.56,0.0495,-0.3295,-0.1018,225.4844
21:00:17:750,2.5033,-0.3083,11.2241,55.0543,0.0527,-0.2174,-0.1122,225.5312
21:00:17:773,2.9845,-0.404,10.8602,52.1379,-0.0338,-0.1982,-0.1628,225.6406
21:00:17:791,3.1281,-0.5968,11.0961,52.9342,-0.2197,-0.2696,-0.3199,225.75
21:00:17:807,2.3009,-1.0672,12.0777,53.6079,-0.4495,-0.3208,-0.582,225.9531
21:00:17:827,0.7387,-1.5676,12.9635,53.1554,-0.5768,-0.1921,-0.7593,226.2969
21:00:17:848,-0.1627,-1.7903,12.5936,52.5963,-0.4639,0.1733,-0.689,226.9844
21:00:17:873,0.2946,-1.5018,10.3742,52.8319,-0.1129,0.5434,-0.419,227.8906
21:00:17:890,1.8616,-0.8422,8.0638,52.1548,0.2136,0.4984,-0.186,228.7031
21:00:17:909,3.2658,-0.3849,7.5694,52.3628,0.2812,-0.0507,-0.2219,229.1875
21:00:17:927,3.5208,-0.5118,9.0251,51.3452,0.1182,-0.6896,-0.5572,229.4062
21:00:17:950,2.6349,-1.0648,10.1408,50.8459,-0.0938,-0.407,-1.1796,229.6406
21:00:17:973,1.2738,-1.2923,9.5075,50.5075,-0.0463,0.1109,-1.1255,230.2188
21:00:17:989,0.5616,-0.8314,7.506,51.504,-0.0594,0.3725,-0.949,231.3125
21:00:18:008,0.6418,-0.0389,6.0096,50.2618,-0.1393,0.3125,-0.8257,232.6562
21:00:18:031,1.135,0.7476,5.6193,50.6098,-0.2037,0.1062,-0.8235,233.8906
21:00:18:056,1.5037,1.1642,6.0431,51.2776,-0.168,-0.0963,-0.933,235.9531
21:00:18:067,1.4079,1.2588,6.48,50.887,-0.0858,-0.153,-1.0771,235.9531
21:00:18:094,0.6741,1.1115,6.5076,50.6941,-0.0759,-0.1237,-1.1295,236.9219
21:00:18:109,-0.0885,0.9942,6.3902,50.6941,-0.2133,-0.1354,-1.0533,237.9375
21:00:18:128,-0.4608,1.0433,7.2354,51.556,-0.4064,-0.2014,-0.9346,239.1875
21:00:18:146,-0.3171,1.2528,9.2441,51.3457,-0.4472,-0.2185,-0.8723,240.4688
21:00:18:173,-0.1208,1.2408,10.9189,51.2496,-0.3502,-0.141,-0.9026,241.6406
21:00:18:191,-0.6391,1.1259,11.7521,48.5438,-0.2666,0.0657,-0.8901,242.7344
21:00:18:208,-1.1898,0.9212,12.1423,48.726,-0.2192,0.3496,-0.7932,243.75
21:00:18:226,-1.762,0.7955,12.1459,48.9941,-0.1686,0.5935,-0.6131,244.7656
21:00:18:246,-2.1032,0.7823,11.7449,49.596,-0.1161,0.6023,-0.3857,245.8125
21:00:18:272,-2.2289,0.7596,11.8335,47.4804,-0.0333,0.4726,-0.1662,246.75
21:00:18:292,-2.1487,0.6171,12.0286,48.4025,0.0413,0.3994,0.0516,247.7188
21:00:18:306,-1.944,0.592,12.0298,48.6565,0.0477,0.4428,0.2631,248.0625
21:00:18:326,-1.6842,0.6135,11.8215,47.6062,-0.0128,0.4771,0.4146,248.1406
21:00:18:346,-1.6124,0.507,11.8023,48.4043,-0.0927,0.4273,0.5344,247.9688
21:00:18:366,-1.2173,-0.0772,11.9604,48.1837,-0.1262,0.1778,0.589,247.6094
21:00:18:391,-0.711,-0.9319,12.5026,47.4044,-0.0794,-0.1269,0.5723,247.0781
21:00:18:407,-0.6619,-1.825,13.5932,48.3311,0.1768,-0.2489,0.5459,246.4375
21:00:18:427,-0.9312,-2.882,13.2041,48.1443,0.5262,-0.2307,0.6324,245.8125
21:00:18:445,-0.8343,-3.5237,11.0506,48.0139,0.5987,-0.2174,0.7813,245.1562
21:00:18:466,-0.4931,-3.4435,9.5207,47.3653,0.4181,-0.2278,0.8516,244.8281
21:00:18:487,-0.4249,-3.1406,8.8347,47.3506,0.1699,-0.1644,0.8567,244.0781
21:00:18:506,-0.7253,-2.5277,8.5726,50.1533,-0.1585,0.0958,0.8766,243.2031
21:00:18:528,-0.4955,-1.7771,8.5965,48.8288,-0.6394,0.6713,0.8775,242.1875
21:00:18:547,0.2036,-0.8015,9.1089,48.5526,-1.0083,1.2348,0.7813,241.2031
21:00:18:566,0.546,-0.1012,9.8259,48.5106,-0.9404,1.467,0.5965,240.2656
21:00:18:589,0.1593,0.0844,9.6835,49.9537,-0.4988,1.3485,0.4724,238.875
21:00:18:609,-0.547,-0.0832,8.5235,49.4549,0.0293,0.9629,0.5217,238.1562
21:00:18:631,-0.9516,-0.4196,7.002,49.374,0.412,0.4625,0.6929,237.6719
21:00:18:646,-0.8953,-0.6339,6.0371,49.5866,0.6064,-0.0121,0.8916,237.2031
21:00:18:667,0.1821,-0.428,5.4876,49.4032,0.6245,-0.32,0.9936,236.5625
21:00:18:699,0.5185,-0.3873,6.2358,50.3575,0.4349,-0.4688,0.9784,235.7188
21:00:18:706,0.5604,-0.4315,7.8866,48.3269,0.1289,-0.5085,0.9033,234.625
21:00:18:726,0.1079,-0.319,9.3567,51.3083,-0.0615,-0.4662,0.8476,233.4844
21:00:18:746,-0.2645,-0.2687,10.2138,50.1822,-0.0612,-0.452,0.8641,232.3906
21:00:18:766,0.2288,0.0688,10.1144,49.5585,0.0442,-0.4198,0.9912,231.4375
21:00:18:802,1.0117,0.592,9.7757,49.2656,0.118,-0.4233,1.0673,230.4531
21:00:18:808,1.3349,0.9463,9.9373,51.058,0.0698,-0.5812,0.9707,229.3906
21:00:18:825,1.3792,0.8063,10.7381,50.6174,-0.0463,-0.7921,0.7712,228.2344
21:00:18:845,1.682,0.4543,11.7365,50.6266,-0.1673,-0.9266,0.6133,227.0312
21:00:18:867,2.6182,-0.3047,11.9939,50.9767,-0.2352,-0.8816,0.5014,225.5781
21:00:18:890,2.8863,-1.0373,11.9005,51.1079,-0.3412,-0.7927,0.319,224.875
21:00:18:911,2.465,-1.2264,12.6786,50.2507,-0.5398,-0.737,0.172,224.2969
21:00:18:926,2.6912,-0.987,13.9248,50.2629,-0.6501,-0.7072,0.2303,223.9062
21:00:18:949,3.3412,-0.4818,14.1882,52.8022,-0.4221,-0.6371,0.3621,223.7188
21:00:18:971,4.0415,0.0437,12.6056,51.3356,0.0903,-0.5604,0.3619,223.6094
21:00:18:988,4.6389,0.1909,10.2461,51.2798,0.486,-0.4678,0.1736,223.2656
21:00:19:005,4.6042,0.0664,8.3918,50.6653,0.5228,-0.3799,-0.1937,222.7969
21:00:19:025,3.9529,-0.2508,7.731,52.4414,0.2605,-0.3391,-0.6368,222.4219
21:00:19:045,2.9534,-0.732,7.8854,51.7293,-0.0882,-0.2688,-1.0235,222.3438
21:00:19:065,1.8568,-1.0445,7.9489,52.2119,-0.3137,-0.1117,-1.2893,222.7656
21:00:19:086,0.8357,-1.175,7.6005,51.8089,-0.387,0.0577,-1.399,223.6562
21:00:19:111,0.0743,-0.9954,7.4245,51.9038,-0.3992,0.104,-1.3703,225.0156
21:00:19:134,-0.4727,-0.7775,7.737,48.9726,-0.3593,-0.0446,-1.2608,226.6094
21:00:19:145,-1.1419,-0.4747,8.6887,51.7305,-0.1603,-0.4683,-1.1087,228.9688
21:00:19:165,-1.3275,-0.2436,9.2417,51.3909,0.2424,-0.9373,-0.889,230.4531
21:00:19:189,-0.8893,0.0341,8.4433,51.697,0.62,-0.9096,-0.644,231.7188
21:00:19:211,-0.0957,0.4842,7.0654,52.4043,0.6626,-0.3602,-0.4525,232.6562
21:00:19:225,0.4179,1.0852,6.9206,52.2216,0.3417,0.1842,-0.386,233.25
21:00:19:245,0.4095,1.2348,8.3499,52.7837,-0.0346,0.3845,-0.4262,233.6562
21:00:19:266,0.0731,0.9846,9.9229,51.8177,-0.1361,0.2801,-0.4683,234.0625
21:00:19:291,-0.2477,0.8493,10.9464,50.7007,0.0506,0.092,-0.4054,234.5469
21:00:19:310,-0.3973,0.6255,10.9608,52.1597,0.3537,-0.0323,-0.2672,235.0938
21:00:19:326,-0.6188,0.6075,10.5921,52.0021,0.5369,-0.0414,-0.114,235.5625
21:00:19:347,-0.6571,0.6674,10.4388,52.1191,0.4948,0.1352,0.0625,235.8125
21:00:19:375,-0.8307,0.665,10.458,51.2726,0.2064,0.4651,0.3445,235.875
21:00:19:397,-1.0581,0.5381,10.7621,51.0433,0.1412,0.4771,0.4982,235.75
21:00:19:410,-1.0689,0.2735,10.9452,51.3512,0.1281,0.4585,0.6324,235.4531
21:00:19:426,-1.0079,0.0736,10.6615,52.3176,0.0248,0.4332,0.74,234.7969
21:00:19:446,-0.8486,-0.0138,10.5095,51.033,-0.2346,0.3885,0.7805,233.7344
21:00:19:465,-0.7636,-0.2173,11.357,51.1596,-0.49,0.299,0.7975,233.7344
21:00:19:487,-0.705,-0.8721,12.9683,52.0237,-0.5132,0.1991,0.8476,232.9375
21:00:19:505,-1.0234,-1.6167,14.09,53.1534,-0.2578,0.2273,1.0077,232.0625
21:00:19:529,-1.1874,-2.2128,13.6554,53.1302,0.0876,0.279,1.2631,231.2031
21:00:19:545,-0.7265,-2.475,11.8083,52.2114,0.2439,0.2108,1.4876,230.2812
21:00:19:566,0.0672,-2.4439,10.4903,54.2076,0.1832,0.1038,1.5882,229.2031
21:00:19:589,0.9183,-2.2643,10.1025,52.9618,0.0772,0.1094,1.5672,227.75
21:00:19:605,1.19,-1.886,9.7649,53.9392,-0.0027,0.1714,1.5086,226.0312
21:00:19:625,1.3397,-1.4359,9.4093,53.6901,-0.0394,0.2281,1.4498,224.2969
21:00:19:646,1.4953,-1.0505,9.0298,53.4124,-0.0053,0.2897,1.3629,222.5
21:00:19:710,1.3983,-0.6375,8.3966,53.2583,0.0666,0.3394,1.2982,220.7812
21:00:19:711,1.3708,-0.3394,7.5047,55.4548,0.1489,0.3269,1.2538,219.2031
21:00:19:711,1.3193,-0.1179,6.6799,54.6024,0.1949,0.2124,1.2191,217.6562
21:00:19:735,1.1876,0.0712,6.3124,54.1363,0.167,0.0673,1.2221,215.4531
21:00:19:746,1.1469,0.3861,6.6668,54.3956,0.1382,-0.0009,1.2359,214.1094
21:00:19:766,1.3588,0.6482,7.3204,54.8036,0.1547,0.0116,1.2122,212.7031
21:00:19:788,1.6557,0.8721,7.7478,54.6675,0.1752,0.0132,1.1451,211.2969
21:00:19:808,1.9023,1.0804,8.1596,53.6595,0.1654,-0.019,1.038,209.8906
21:00:19:826,1.8544,1.394,8.6959,54.204,0.1294,0.0284,0.9275,208.5938
21:00:19:847,1.8018,1.7208,9.1759,54.0313,0.1025,0.1277,0.8133,207.3281
21:00:19:867,1.9478,1.9507,9.3291,55.4955,0.0655,0.1719,0.6724,206.1875
21:00:19:890,1.931,2.0955,9.2501,55.4267,-0.012,0.0721,0.511,205.2344
21:00:19:907,2.0579,2.0955,9.5578,55.3992,-0.1031,-0.1991,0.3091,204.3906
21:00:19:932,2.2076,1.7747,10.5633,54.9524,-0.1526,-0.5439,0.0825,203.7188
21:00:19:945,1.9777,1.0972,11.9544,54.6423,-0.1377,-0.7519,-0.0733,203.25
21:00:19:966,1.5707,0.2568,13.0892,55.5065,-0.0908,-0.7208,-0.0832,203.1094
21:00:19:989,1.5923,-0.416,13.6124,54.5992,-0.0277,-0.5362,0.0351,203
21:00:20:006,2.4817,-0.7811,13.0006,55.4003,-0.0573,-0.3972,0.074,203.0781
21:00:20:027,3.024,-0.6482,12.5242,55.6378,-0.1856,-0.3144,-0.0528,203.1406
21:00:20:054,2.7187,-0.7907,12.8378,56.3011,-0.1822,-0.1186,-0.2179,203.0312
21:00:20:076,1.6342,-1.7244,10.9285,54.39,0.0125,0.1893,-0.2536,203
21:00:20:092,2.1705,-1.7591,8.9113,54.7557,0.2186,0.2995,-0.1841,203.1719
21:00:20:109,3.0491,-1.4515,7.7142,55.1965,0.241,0.0814,-0.1588,203.4688
21:00:20:126,3.4382,-1.1486,8.144,54.6407,0.065,-0.3809,-0.3095,203.7188
21:00:20:145,2.8875,-1.3138,9.6895,55.7491,-0.2,-0.7479,-0.6222,203.875
21:00:20:166,1.6796,-1.485,10.0534,55.2141,-0.3358,-0.5964,-0.8645,204.1094
21:00:20:191,0.3976,-1.242,8.8838,54.2353,-0.3358,-0.1058,-0.9396,204.6094
21:00:20:208,-0.2668,-0.8446,7.0319,56.0912,-0.3076,0.3717,-0.831,205.4844
21:00:20:225,-0.3734,-0.1395,5.9401,55.2402,-0.3329,0.5379,-0.6256,206.5156
21:00:20:245,-0.0226,0.4136,5.6983,54.6085,-0.3465,0.3653,-0.4363,207.5938
21:00:20:265,0.2048,0.841,6.1855,54.6086,-0.2999,0.0249,-0.3436,208.4688
21:00:20:290,0.4598,1.0588,6.4824,55.4876,-0.1742,-0.2089,-0.2858,209.0938
21:00:20:308,0.4622,1.3509,6.7494,54.9789,-0.0685,-0.3021,-0.2469,209.5625
21:00:20:325,0.7818,1.576,7.4617,56.6232,-0.081,-0.2733,-0.2171,210.0938
21:00:20:345,0.8668,1.8118,8.6923,56.2362,-0.1867,-0.1626,-0.2421,210.3594
21:00:20:366,0.4203,1.7855,9.6751,55.7473,-0.2469,0.0558,-0.3322,210.5938
21:00:20:388,-0.3087,1.5437,10.1851,55.2815,-0.2059,0.2659,-0.4057,210.8906
21:00:20:408,-0.7924,1.2995,10.4209,55.4833,-0.1356,0.4319,-0.3636,211.2656
21:00:20:426,-1.2748,1.2013,10.7824,56.345,-0.0988,0.5237,-0.2467,211.7656
21:00:20:446,-1.6411,1.0672,11.3043,55.886,-0.0916,0.548,-0.1005,212
21:00:20:466,-1.9153,0.7105,11.9879,56.1992,-0.0642,0.4899,0.0638,212.3906
21:00:20:494,-1.9859,0.3932,12.2477,56.4628,0.0365,0.4377,0.2607,212.625
21:00:20:512,-1.7189,0.2209,11.9687,56.8461,0.1561,0.4542,0.4849,212.6875
21:00:20:526,-1.3359,0.0473,11.4169,56.7105,0.1902,0.5392,0.6551,212.5312
21:00:20:550,-0.9229,-0.0952,11.0434,55.4724,0.0977,0.6071,0.7416,212.1562
21:00:20:564,-0.4656,-0.3968,11.2996,54.3822,-0.1137,0.5645,0.7507,211.5
21:00:20:586,-0.5553,-1.1845,12.6846,56.4535,-0.3622,0.3229,0.6729,210.2969
21:00:20:610,-1.1563,-2.1075,14.3905,55.5089,-0.4298,0.0457,0.6261,209.5156
21:00:20:627,-1.0809,-2.73,13.9775,56.6024,-0.1481,0.0518,0.7664,208.7812
21:00:20:645,-0.4596,-2.8581,10.9608,55.9352,0.274,0.3027,0.9848,208.0781
21:00:20:666,0.4395,-2.7132,8.9844,56.1025,0.347,0.3216,1.1227,207.2031
21:00:20:691,1.0871,-2.742,8.9197,55.6231,0.0804,0.0596,1.1051,206.1406
21:00:20:707,0.5855,-2.6642,10.2904,55.2184,-0.2397,-0.2784,0.9462,204.875
21:00:20:725,-0.1543,-2.3326,11.1786,54.7198,-0.3252,-0.4523,0.8841,203.6094
21:00:20:745,-0.2752,-1.977,11.1212,54.3088,-0.168,-0.4329,1.0114,202.5625
21:00:20:766,0.2204,-1.4778,9.8535,55.9537,0.3332,-0.1056,1.4133,201.5312
21:00:20:790,0.8632,-0.8541,8.5726,55.4592,0.4461,-0.0291,1.5028,200.3438
21:00:20:808,1.5551,-0.1754,7.9429,54.2993,0.5694,0.0638,1.4974,198.9844
21:00:20:828,2.2016,0.4447,7.1839,53.6719,0.7135,0.0319,1.364,197.3438
21:00:20:846,2.4254,1.1438,6.6309,52.4446,0.8282,-0.1189,1.1797,195.6094
21:00:20:867,2.5248,1.588,6.2119,53.214,0.8906,-0.2643,0.9595,192.3906
21:00:20:893,1.7156,2.0141,5.7199,51.6123,0.7947,-0.3884,0.8018,192.3906
21:00:20:911,0.4993,2.7001,5.8767,51.7833,0.5966,-0.537,0.784,191.0156
21:00:20:926,0.2671,2.8126,6.9397,53.1469,0.3697,-0.6699,0.789,189.8906
21:00:20:947,0.2084,2.7228,8.8024,51.4804,0.196,-0.6931,0.8239,188.9844
21:00:20:964,0.3928,2.4894,10.9943,49.6143,0.1987,-0.6446,0.8732,188.0625
21:00:20:993,0.783,2.1123,12.7923,52.375,0.4045,-0.5309,0.87,187.125
21:00:21:010,1.2834,1.5592,13.1622,51.0893,0.6336,-0.4651,0.8263,186.2188
21:00:21:027,1.9945,1.1642,12.5038,50.7861,0.6812,-0.541,0.7009,185.2031
21:00:21:045,2.4242,0.8613,12.5014,51.1055,0.6064,-0.5969,0.5049,184.1719
21:00:21:065,2.4147,0.2352,13.0162,51.2479,0.6019,-0.345,0.3581,183.1719
21:00:21:091,2.538,-0.4615,12.2513,49.832,0.6402,0.0654,0.2852,182.375
21:00:21:108,3.036,-0.7428,10.0629,49.7259,0.5105,0.2225,0.1784,181.75
21:00:21:126,3.5507,-0.6327,8.545,49.2333,0.22,0.0947,-0.0352,181.0938
21:00:21:146,3.8644,-0.6039,8.32,47.9546,-0.0799,-0.093,-0.3769,180.7812
21:00:21:165,3.3939,-0.9379,9.0562,47.6412,-0.2911,-0.1064,-0.6973,180.6406
21:00:21:192,2.3692,-1.5903,9.6954,49.056,-0.3814,0.1738,-0.8246,180.8594
21:00:21:207,1.3073,-2.1841,9.5027,47.9818,-0.4053,0.5493,-0.7239,181.4688
21:00:21:227,0.7399,-2.1853,8.041,48.2851,-0.5143,0.6702,-0.4597,182.4062
21:00:21:245,1.0739,-1.558,7.0199,48.7281,-0.7271,0.3483,-0.2262,183.3438
21:00:21:266,2.1417,-0.8865,7.4916,47.7394,-0.8932,-0.104,-0.1769,184.0312
21:00:21:290,2.6313,-0.2688,8.8192,47.4009,-0.9161,-0.3498,-0.2408,184.4375
21:00:21:309,2.5643,0.2975,9.9289,48.209,-0.7694,-0.1868,-0.3085,184.6875
21:00:21:326,2.0747,0.8146,9.5099,47.7455,-0.5659,0.1179,-0.3295,184.9688
21:00:21:348,1.5264,1.2396,8.0063,48.3081,-0.4698,0.2628,-0.289,185.3281
21:00:21:364,1.275,1.6754,6.984,46.3312,-0.4759,0.1917,-0.2304,185.75
21:00:21:387,1.5468,2.1027,7.154,47.2722,-0.4477,0.0753,-0.2312,185.9531
21:00:21:407,1.712,2.4427,7.7083,47.8267,-0.3396,-0.0025,-0.292,186.3281
21:00:21:427,1.8987,2.5804,8.1356,46.3581,-0.2152,-0.0534,-0.3716,186.6094
21:00:21:450,2.016,2.584,8.3535,47.1162,-0.1579,-0.1242,-0.4709,187.0781
21:00:21:473,1.5575,2.1841,10.0043,47.5283,-0.1555,-0.1743,-0.5639,187.4531
21:00:21:496,1.1434,1.9555,11.0134,45.331,-0.1103,-0.1375,-0.6001,187.9375
21:00:21:511,0.8644,1.886,11.2337,46.8499,0.0141,0.0015,-0.5814,188.5312
21:00:21:528,0.6609,1.8334,11.1535,46.088,0.1238,0.1605,-0.5591,189.2188
21:00:21:544,0.3521,1.6454,11.1439,45.8741,0.1521,0.3054,-0.5396,189.8594
21:00:21:565,-0.019,1.2791,11.296,46.542,0.1401,0.3893,-0.517,190.5156
21:00:21:590,-0.5314,0.9595,11.5785,45.2795,0.151,0.3749,-0.4533,191.1406
21:00:21:609,-0.851,0.6087,11.9472,45.2992,0.1875,0.316,-0.3383,191.7188
21:00:21:624,-1.0402,0.3083,11.7138,45.6098,0.2301,0.3759,-0.2054,192.2969
21:00:21:644,-1.1635,0.1778,10.9261,44.7918,0.2272,0.569,-0.0658,192.75
21:00:21:666,-1.2473,0.1634,10.6064,43.7337,0.1089,0.659,0.0684,193.0625
21:00:21:690,-1.3969,-0.1814,10.8794,44.7974,-0.0716,0.6207,0.1563,193.2188
21:00:21:708,-2.0362,-0.9188,11.8706,44.4751,-0.2117,0.3983,0.2194,193.2188
21:00:21:796,-2.9926,-1.7484,13.6016,43.7472,-0.2021,-0.0438,0.384,193.0156
21:00:21:797,-2.5545,-2.2535,13.8925,44.9947,0.0935,-0.3162,0.7688,192.7812
21:00:21:797,-1.458,-1.9938,12.1962,42.875,0.5238,-0.1378,1.2063,192.3438
21:00:21:797,-0.1998,-1.3641,9.7673,42.9802,0.7627,0.1842,1.4785,191.4531
21:00:21:805,0.5089,-0.9164,8.3056,43.7571,0.6685,0.2849,1.4846,190.125
21:00:21:829,0.1126,-0.574,7.9333,42.1912,0.3779,0.1978,1.3201,188.4062
21:00:21:846,0.0276,-0.586,8.6252,43.9069,0.0871,-0.0134,1.2189,187.5312
21:00:21:865,0.0612,-0.6123,9.1352,43.4236,-0.0115,-0.1812,1.1938,185.9062
21:00:21:892,-0.0478,-0.3657,8.7437,43.131,0.0887,-0.2025,1.2005,184.5469
21:00:21:910,0.3413,-0.0772,7.6915,42.0971,0.2397,-0.1045,1.2697,183.1719
21:00:21:924,0.777,0.2508,6.3615,41.914,0.3143,0.0359,1.3073,181.7969
21:00:21:945,1.1422,0.6351,5.5726,42.1703,0.2477,0.0881,1.2719,180.4531
21:00:21:968,1.3828,1.0277,5.9294,42.6804,0.0743,-0.0172,1.2074,178.9531
21:00:21:992,1.6497,1.3605,6.6261,43.4939,-0.0565,-0.0917,1.1193,176.75
21:00:22:009,1.864,1.5389,6.7781,39.8824,-0.0583,-0.0611,1.004,175.4375
21:00:22:027,1.8568,1.7532,6.7506,41.4088,-0.0612,0.017,0.8689,174.1562
21:00:22:044,1.8269,1.825,7.5658,40.6497,-0.1822,-0.0073,0.7406,173
21:00:22:065,1.5001,1.746,9.3315,41.841,-0.3382,-0.1021,0.6199,172.0625
21:00:22:090,1.3804,1.7017,10.8087,42.3699,-0.3422,-0.1799,0.576,171.2188
21:00:22:107,1.6533,1.8525,11.0697,40.8483,-0.1513,-0.1532,0.5786,170.5156
21:00:22:124,2.204,1.9818,10.6076,41.1869,0.0541,-0.1572,0.5232,169.8594
21:00:22:145,2.5033,1.825,10.8949,41.1923,0.0482,-0.2994,0.3515,169.2344
21:00:22:165,2.5511,1.0864,12.6463,39.9447,-0.2448,-0.5959,-0.0608,168.625
21:00:22:190,2.3285,0.2963,14.3306,40.0475,-0.1601,-0.3359,-0.0797,168.625
21:00:22:210,2.5272,-0.3645,14.3342,41.6783,-0.0056,0.0622,-0.0291,168.2188
21:00:22:230,2.9881,-0.4663,12.4835,40.9663,-0.0362,0.2697,-0.0603,168.1562
21:00:22:245,3.1772,-0.2688,11.0972,40.4999,-0.2357,0.2193,-0.2224,168.1562
21:00:22:264,2.6409,-0.2604,11.0386,41.8845,-0.4123,0.0417,-0.4038,168.25
21:00:22:286,1.6832,-0.7572,12.3865,41.8456,-0.3065,0.0047,-0.3987,168.3594
21:00:22:307,1.2164,-1.2516,12.7672,41.5868,0.0501,0.1389,-0.2283,168.625
21:00:22:324,1.5049,-1.2528,11.1248,41.028,0.3427,0.0843,-0.06,169.1094
21:00:22:350,2.5224,-1.0098,9.2908,40.9962,0.3723,-0.2182,-0.0568,169.5469
21:00:22:363,3.6333,-0.8074,8.5474,40.852,0.2112,-0.4449,-0.2483,169.8125
21:00:22:385,3.8799,-0.5752,8.618,42.6475,0.0061,-0.341,-0.5327,169.875
21:00:22:408,3.1724,-0.4363,8.5534,41.6888,-0.0924,0.0156,-0.7569,169.9219
21:00:22:429,2.21,-0.234,7.4593,41.6888,-0.1598,0.3949,-0.8555,170.1719
21:00:22:444,1.6593,0.0461,6.0455,42.7975,-0.2802,0.5754,-0.8973,170.7812
21:00:22:465,1.3229,0.3609,5.1812,41.9428,-0.4221,0.4867,-0.9402,171.6094
21:00:22:489,0.8632,0.5453,5.4421,40.585,-0.482,0.3083,-0.9623,172.6094
21:00:22:508,0.54,0.5249,6.2669,40.5807,-0.4067,0.1541,-0.9311,173.6562
21:00:22:525,0.1354,0.4735,6.8308,41.3838,-0.2895,0.0486,-0.8275,174.7656
21:00:22:545,-0.2405,0.7991,7.2881,40.9827,-0.1987,-0.0297,-0.6584,176.9219
21:00:22:565,-0.1052,1.1797,7.8375,42.0119,-0.1422,-0.0731,-0.5181,177.875
21:00:22:592,0.4131,1.5425,8.4038,41.4793,-0.1214,-0.0222,-0.4957,178.2812
21:00:22:613,0.637,1.8645,8.7689,43.1663,-0.1832,0.079,-0.5724,178.9219
21:00:22:624,0.4071,2.1123,9.3279,41.2557,-0.2988,0.2361,-0.6568,179.4688
21:00:22:644,0.1055,2.0716,10.221,42.0316,-0.3665,0.3996,-0.7292,180.0938
21:00:22:664,-0.6523,1.6777,11.2421,40.7483,-0.3278,0.5275,-0.693,180.7656
21:00:22:687,-1.5262,1.1893,11.7688,42.7215,-0.1864,0.5147,-0.5162,181.5938
21:00:22:710,-1.9799,0.7129,12.0322,42.7137,-0.0362,0.3214,-0.2549,182.4688
21:00:22:726,-1.8722,0.4124,12.5972,42.835,0.106,0.2164,0.0258,183.1875
21:00:22:744,-1.2018,0.313,12.675,40.7511,0.1587,0.3589,0.1967,183.6562
21:00:22:765,-0.5446,0.3154,11.9412,43.3855,0.0101,0.5538,0.2327,183.7969
21:00:22:791,-0.377,0.1873,11.6084,41.9602,-0.2903,0.6164,0.237,183.6562
21:00:22:808,-0.6463,0.0533,12.5852,42.0998,-0.5047,0.52,0.2745,183.4375
21:00:22:825,-0.8151,-0.5596,14.1642,41.8128,-0.4416,0.303,0.3342,183.3281
21:00:22:844,-1.3047,-1.2144,15.7947,40.981,-0.0439,0.3035,0.5046,183.2031
21:00:22:866,-0.9049,-1.7436,11.4827,42.0791,0.4967,0.6327,0.7579,182.6562
21:00:22:890,0.1078,-1.3749,8.3906,42.7587,0.7041,0.7384,0.9605,182.2031
21:00:22:910,0.9183,-1.0708,7.4425,42.7128,0.4946,0.4668,0.9459,181.5156
21:00:22:926,0.8764,-1.1929,8.8383,42.469,0.0506,0.1078,0.69,180.6406
21:00:22:946,-0.1124,-1.2971,10.446,42.3051,-0.3049,0.0396,0.4127,179.5625
21:00:22:964,-0.8271,-1.0672,10.8111,42.119,-0.3215,0.1448,0.319,178.625
21:00:22:984,-0.7361,-0.7907,9.8271,42.7504,-0.1028,0.3006,0.385,178
21:00:23:009,-0.292,-0.586,8.1009,42.047,0.1356,0.454,0.4529,177.625
21:00:23:025,-0.1495,-0.2364,6.674,43.122,0.2682,0.4723,0.4695,177.2344
21:00:23:044,-0.1148,0.1383,6.225,42.0808,0.2866,0.3525,0.4609,176.7656
21:00:23:064,-0.3279,0.3621,6.2921,42.3177,0.3092,0.1924,0.4388,176.2969
21:00:23:083,-0.6152,0.2807,6.2418,41.8969,0.3641,0.0697,0.3976,175.7969
21:00:23:108,-0.8929,0.264,5.8755,41.9025,0.3851,0.0803,0.4146,175.3125
21:00:23:125,-1.0593,0.6159,5.6002,43.8604,0.2618,0.1954,0.5086,174.8594
21:00:23:144,-0.7756,1.084,6.4645,43.5457,0.0208,0.173,0.6327,174.2344
21:00:23:164,-0.6284,1.3785,8.1236,43.5615,-0.1587,-0.0406,0.6673,173.6719
21:00:23:185,-0.7469,1.3928,9.2836,42.428,-0.1233,-0.2651,0.6514,172.9844
21:00:23:209,-0.5529,1.4263,9.6823,42.4998,0.0546,-0.411,0.6564,172.2188
21:00:23:226,-0.122,1.5473,9.2513,42.2751,0.2045,-0.4393,0.6537,171.4531
21:00:23:244,0.3437,1.4192,9.1951,41.7468,0.1635,-0.4864,0.5627,170.6875
21:00:23:268,0.6657,0.9367,10.3874,41.8418,-0.0432,-0.6694,0.3896,170.3594
21:00:23:291,0.4179,0.2316,12.2309,42.9815,-0.2421,-0.8414,0.201,169.6406
21:00:23:309,0.1354,-0.4088,13.3502,42.5982,-0.2842,-0.8092,0.1246,169.0781
21:00:23:326,0.6178,-0.8601,12.6738,42.7543,-0.18,-0.5184,0.2165,168.7188
21:00:23:343,1.1852,-0.7117,10.9716,41.7392,-0.1236,-0.1607,0.3299,168.5469
21:00:23:364,1.3672,-0.4004,10.4173,44.1809,-0.3073,-0.0464,0.3214,168.3438
21:00:23:385,1.1852,-0.5908,11.5797,42.7227,-0.5513,-0.2321,0.1896,168.0156
21:00:23:408,0.692,-1.0947,12.8366,43.7828,-0.5678,-0.4704,0.0559,167.4531
21:00:23:426,0.3389,-1.2516,12.7457,43.4483,-0.3167,-0.4718,0.0729,167.2031
21:00:23:449,1.0021,-1.1091,11.1679,43.1845,0.0285,-0.3165,0.2418,167.1094
21:00:23:463,2.3321,-0.835,9.2597,44.5719,0.2567,-0.206,0.3525,167.0156
21:00:23:484,3.6261,-0.7392,8.2912,44.1375,0.2317,-0.28,0.2596,166.7188
21:00:23:509,3.8847,-0.6578,8.9772,44.1362,-0.0069,-0.4579,-0.0451,166.3125
21:00:23:526,3.273,-0.5752,9.857,43.609,-0.1768,-0.5277,-0.4054,166.0156
21:00:23:543,2.3716,-0.5225,9.8714,44.3598,-0.0802,-0.4667,-0.6445,166.0469
21:00:23:567,2.204,-0.0688,8.8443,44.4945,0.5057,-0.2358,-0.5372,166.4844
21:00:23:584,2.6361,0.7787,6.7302,45.1076,0.6277,-0.2835,-0.6054,166.4844
21:00:23:604,2.7882,1.4575,5.0291,44.4945,0.4788,-0.3793,-0.8049,167.1719
21:00:23:626,2.5763,1.7579,4.3552,44.4246,0.1875,-0.3908,-0.9671,167.875
21:00:23:645,2.5847,1.9208,4.6856,44.1301,-0.0972,-0.325,-1.109,168.4688
21:00:23:663,2.3716,2.05,5.4637,42.9462,-0.3097,-0.2377,-1.2651,170
21:00:23:684,1.7359,1.9674,6.3328,46.0596,-0.4565,-0.2166,-1.3737,171.0938
21:00:23:709,0.8812,1.6741,7.4329,44.6287,-0.6035,-0.2281,-1.378,172.3594
21:00:23:728,-0.1878,1.5221,9.2274,44.3566,-0.6189,-0.1807,-1.2584,173.7344
21:00:23:742,-0.9145,1.2576,10.8231,44.4877,-0.489,-0.1,-1.0832,175.3281
21:00:23:763,-1.592,0.9691,11.8945,44.6174,-0.3172,0.0745,-0.8342,176.9219
21:00:23:784,-2.0314,0.8541,12.2309,46.0648,-0.2333,0.2745,-0.5577,178.3906
21:00:23:807,-2.4492,0.7033,12.5038,45.7511,-0.1806,0.4188,-0.2733,179.5938
21:00:23:867,-2.7233,0.5465,12.8019,48.6106,-0.0804,0.4457,0.0188,180.5625
21:00:23:867,-2.503,0.4292,12.9839,46.3772,0.0413,0.414,0.2652,181.2344
21:00:23:867,-1.7489,0.5644,12.8701,46.9359,0.0903,0.3831,0.3794,181.5469
21:00:23:885,-1.2042,0.7536,12.7768,46.5754,0.0394,0.2822,0.3461,181.5625
21:00:23:910,-1.0905,0.6039,13.2125,47.4572,-0.0218,0.202,0.2793,181.2812
21:00:23:925,-1.0545,0.0844,13.7321,47.3691,-0.0146,0.1317,0.2553,180.5
21:00:23:943,-0.9803,-0.556,14.0828,48.0623,0.1116,0.1453,0.2857,180.3438
21:00:23:964,-1.2102,-1.1414,13.6543,48.0511,0.3049,0.2497,0.4045,180.0469
21:00:23:984,-1.2078,-1.7591,12.0837,47.9791,0.3883,0.2446,0.6117,179.7656
21:00:24:006,-0.6224,-2.1195,10.7309,47.5764,0.3111,0.1139,0.8351,179.3906
21:00:24:026,0.3712,-2.1614,10.3407,47.1343,0.2376,-0.0752,0.8982,178.8281
21:00:24:044,0.6681,-2.1386,10.1886,48.6562,0.2501,-0.1831,0.8668,177.9844
21:00:24:063,0.1845,-1.9435,9.62,46.9019,0.2948,-0.2158,0.9435,177.0156
21:00:24:083,-0.2752,-1.5101,8.7426,48.1442,0.3486,-0.2198,1.1475,176.5
21:00:24:112,-0.0179,-1.06,7.8208,48.0292,0.4085,-0.2289,1.3446,175.5
21:00:24:123,0.4849,-0.6267,6.972,48.5388,0.4099,-0.2329,1.4484,174.4688
21:00:24:146,0.8812,-0.185,6.6165,48.0484,0.3454,-0.0832,1.49,173.125
21:00:24:165,1.2463,0.155,6.3795,48.1229,0.2479,0.1594,1.4596,171.5781
21:00:24:185,1.3217,0.4495,6.2047,48.0046,0.1417,0.385,1.4021,169.9062
21:00:24:209,1.2978,0.6973,6.1604,46.6447,0.0759,0.4934,1.3464,167.4219
21:00:24:225,1.451,0.9176,6.1329,48.2286,0.0384,0.3695,1.2612,165.7969
21:00:24:243,1.5587,1.3078,6.5566,47.416,0.0003,0.1125,1.1288,164.2188
21:00:24:264,1.9885,1.5616,8.9401,47.4292,0.0107,-0.1516,0.9427,162.7969
21:00:24:285,1.7467,1.4766,9.5219,47.4737,0.0716,-0.231,0.7123,161.4219
21:00:24:308,1.5504,1.333,9.7254,47.7869,0.0724,-0.1207,0.5041,160.2344
21:00:24:325,1.4306,1.1857,9.4237,48.2142,-0.0059,0.1123,0.347,159.3281
21:00:24:343,1.4318,0.9607,9.5326,48.3007,-0.1374,0.1557,0.2079,158.625
21:00:24:367,1.6485,0.489,10.3526,49.9534,-0.2796,-0.0398,0.0836,158.1562
21:00:24:382,1.7024,-0.2113,11.5079,49.1378,-0.3771,-0.2523,-0.0299,157.8594
21:00:24:406,1.8436,-0.8362,11.9999,47.8379,-0.404,-0.3138,-0.064,157.6875
21:00:24:428,2.5308,-0.9188,11.8215,49.3074,-0.4312,-0.2795,0.0295,157.6719
21:00:24:444,3.0946,-0.4627,12.0944,49.9073,-0.5561,-0.2784,0.1094,157.7344
21:00:24:463,2.8337,-0.1047,13.5357,49.8005,-0.7531,-0.3873,0.0489,157.7656
21:00:24:483,1.8664,-0.2628,15.2332,49.8302,-0.816,-0.3998,-0.0616,157.6094
21:00:24:508,1.4019,-0.7057,15.1794,48.209,-0.5545,-0.166,-0.0283,157.5469
21:00:24:525,1.7036,-0.6578,12.7732,49.7753,-0.0538,0.1647,0.173,157.625
21:00:24:544,2.6026,-0.5297,10.1779,50.2638,0.3694,0.1522,0.3664,157.6719
21:00:24:564,3.4945,-0.3549,8.8814,50.2381,0.5329,-0.2129,0.3853,157.4844
21:00:24:583,3.7853,-0.1562,8.4816,48.6299,0.4975,-0.5088,0.2106,157.0781
21:00:24:608,3.5124,0.0257,8.0865,48.6299,0.4093,-0.5176,-0.0824,156.8281
21:00:24:625,2.6732,0.064,7.0331,51.3228,0.3238,-0.2305,-0.4107,156.4219
21:00:24:642,1.5779,-0.0485,5.8096,50.2728,0.2125,0.1163,-0.6997,156.3125
21:00:24:664,0.7375,-0.1586,5.1979,50.5304,0.0229,0.3168,-0.8557,156.5625
21:00:24:683,0.2156,-0.076,5.599,50.4418,-0.1806,0.3448,-0.8629,157.1875
21:00:24:707,-0.049,0.0796,6.4046,48.5294,-0.2695,0.2257,-0.7705,158.1094
21:00:24:725,0.0289,0.4495,7.1217,48.2293,-0.2077,0.1046,-0.6185,159.0781
21:00:24:743,0.3952,0.9463,7.2498,49.7805,-0.0666,0.0809,-0.4592,160.0312
21:00:24:763,0.6346,1.485,7.081,47.6214,0.0589,0.103,-0.3631,161.1875
21:00:24:783,0.607,2.0273,7.4066,49.6475,0.0674,0.0745,-0.3159,161.6875
21:00:24:808,0.5029,2.1698,8.0782,49.6017,0.017,0.0289,-0.3026,162.1094
21:00:24:825,0.2096,2.0273,8.7042,50.5112,-0.0258,-0.0134,-0.3098,162.4688
21:00:24:848,0.1258,1.8633,9.5207,50.2932,-0.0887,-0.0097,-0.2608,162.7969
21:00:24:863,0.1186,1.6909,10.7764,50.7382,-0.175,0.0372,-0.1772,163.1562
21:00:24:883,0.1797,1.4551,12.2345,51.4212,-0.2322,0.0841,-0.101,163.4531
21:00:24:909,-0.0011,1.1367,13.6028,47.9597,-0.1904,0.0992,-0.0392,163.6719
21:00:24:926,-0.2776,0.8948,13.9846,49.2896,-0.0253,0.1959,0.0218,163.7812
21:00:24:943,-0.2776,0.4735,12.8845,48.541,0.168,0.4329,0.0854,163.8438
21:00:24:963,-0.2704,0.0569,11.9484,48.8227,-0.0511,0.5882,0.0782,163.8281
21:00:24:984,-0.4153,-0.3992,12.1315,48.0511,-0.314,0.3528,0.0319,163.8281
21:00:25:009,-0.8546,-1.1235,13.683,48.2965,-0.3321,0.1075,0.0561,163.6406
21:00:25:025,-1.4759,-2.0057,14.8885,47.9366,-0.0447,0.1451,0.2521,163.6406
21:00:25:050,-1.7764,-2.4786,14.1451,48.0803,0.3686,0.4577,0.5696,163.5938
21:00:25:063,-1.3526,-2.3816,10.8255,47.6394,0.465,0.5285,0.7906,163.4219
21:00:25:083,-0.6739,-2.147,8.2266,46.0907,0.1683,0.2473,0.8636,163.2344
21:00:25:111,-0.4536,-1.9207,7.81,46.9637,-0.2306,-0.1804,0.8783,162.5938
21:00:25:126,-0.4488,-1.9112,9.3782,45.4358,-0.3718,-0.3983,0.9246,161.7656
21:00:25:143,-0.2956,-1.9351,10.5214,45.157,-0.2314,-0.3367,1.0029,160.7812
21:00:25:162,-0.2513,-1.6239,10.0486,45.7591,-0.0072,-0.1282,1.1318,159.7656
21:00:25:183,-0.1028,-1.1247,8.648,44.8112,0.1475,0.042,1.2556,158.7344
21:00:25:210,0.2719,-0.6734,7.1025,47.0515,0.1939,0.0718,1.3179,157.5781
21:00:25:227,0.637,-0.2568,6.0419,45.2848,0.1507,-0.0374,1.3286,156.2812
21:00:25:244,0.9758,0.2484,5.8647,43.2189,0.1052,-0.1769,1.2982,154.8438
21:00:25:263,1.1721,0.6949,6.3136,43.8925,0.1198,-0.2323,1.2237,153.4062
21:00:25:284,0.9937,1.0074,6.741,43.8882,0.1326,-0.158,1.1523,151.8906
21:00:25:309,0.7806,1.2995,6.8631,42.9553,0.0735,-0.0606,1.1086,150.3906
21:00:25:326,0.7112,1.3402,7.1097,43.0342,-0.0842,0.0183,1.0884,148.3906
21:00:25:342,0.6082,1.4192,7.9513,43.4848,-0.2266,0.0223,1.1219,147.0938
21:00:25:363,1.1242,1.6167,9.1555,43.8117,-0.2237,-0.1274,1.0857,145.8438
21:00:25:383,1.6294,1.7927,10.4352,41.2759,-0.0621,-0.3378,0.9531,143.3594
21:00:25:406,1.8556,1.8022,11.3055,42.2203,0.1729,-0.4078,0.7829,143.3594
21:00:25:424,2.1465,1.5353,11.2253,42.3723,0.2943,-0.3974,0.593,142.1719
21:00:25:445,2.3153,1.1247,10.786,40.0111,0.2048,-0.4201,0.4212,141.2031
21:00:25:463,2.6122,0.5501,11.2313,41.3595,0.0234,-0.467,0.2713,140.3906
21:00:25:485,2.8157,-0.1048,12.5062,40.6413,-0.0458,-0.3948,0.1829,139.8125
21:00:25:507,3.1102,-0.7009,13.1275,41.1446,-0.0149,-0.1666,0.1619,139.3906
21:00:25:522,3.5818,-0.9702,12.1351,39.6545,-0.1092,0.0558,0.0985,139.1406
21:00:25:546,3.7853,-0.9571,11.0158,41.0362,-0.371,0.0915,-0.0693,138.9531
21:00:25:562,3.0827,-0.9547,11.2062,40.4943,-0.5952,0.006,-0.2238,138.7812
21:00:25:586,2.1106,-1.3461,12.6236,41.1147,-0.4956,0.1144,-0.2214,138.75
21:00:25:609,1.2212,-1.7436,12.6858,38.6462,-0.1174,0.311,-0.0509,138.8438
21:00:25:626,1.1852,-1.7268,10.6376,40.4182,0.1872,0.1999,0.1658,139.1094
21:00:25:644,2.1776,-1.4551,8.6635,39.5008,0.1942,-0.2105,0.2178,139.4375
21:00:25:663,3.5735,-0.8924,8.8251,38.8515,-0.029,-0.5788,0.03,139.375
21:00:25:685,2.921,-0.987,9.4117,40.092,-0.2251,-0.5471,-0.2722,139.125
21:00:25:709,1.7108,-1.0074,8.2457,37.7313,-0.2455,-0.1066,-0.5143,138.9219
21:00:25:738,0.7663,-0.7548,6.419,39.5165,-0.2424,0.3818,-0.5958,139.0312
21:00:25:744,0.4837,-0.4794,5.3607,38.7922,-0.3268,0.5821,-0.5439,139.4844
21:00:25:761,0.6657,0.0018,5.6157,37.3283,-0.4274,0.3986,-0.4438,140.1719
21:00:25:781,0.8872,0.3633,6.7781,39.8964,-0.4546,0.0603,-0.3718,140.8281
21:00:25:803,1.1314,0.6363,7.6029,39.446,-0.2985,-0.1847,-0.3343,141.4375
21:00:25:826,1.2702,0.8948,7.6508,40.9682,-0.0591,-0.2797,-0.3143,141.9219
21:00:25:842,1.3373,1.2468,7.7442,38.8902,0.081,-0.3104,-0.2872,142.2969
21:00:25:862,1.6605,1.4706,8.5438,38.1016,0.086,-0.4108,-0.2299,142.6562
21:00:25:938,2.3704,1.8118,10.0175,37.6357,0.041,-0.5229,-0.1521,142.9844
21:00:25:938,3.103,1.9471,11.2577,39.268,0.0842,-0.578,-0.1156,143.25
21:00:25:938,3.9649,1.8717,12.0406,37.391,0.2442,-0.6302,-0.1274,143.4844
21:00:25:945,3.9709,1.6993,11.9699,39.8709,0.4304,-0.554,-0.2334,143.5625
21:00:25:965,3.2862,1.5568,11.5162,39.7767,0.5012,-0.3021,-0.3868,143.6562
21:00:25:985,2.4626,1.1175,11.2098,38.9773,0.4197,-0.0057,-0.4901,143.8594
21:00:26:006,1.032,0.4615,11.5294,39.5079,0.229,0.214,-0.5295,144.2656
21:00:26:025,-0.0585,-0.4016,12.6607,40.7872,0.0695,0.2308,-0.4057,144.5156
21:00:26:042,0.2742,-0.7153,12.857,39.3793,0.098,0.0984,-0.0885,145.0625
21:00:26:063,0.9937,-0.4555,12.7564,38.8489,0.1659,-0.2145,0.196,145.6406
21:00:26:083,1.0117,-0.501,14.2312,39.396,0.1137,-0.8342,0.2652,145.9375
21:00:26:107,0.8345,-0.8936,15.5445,39.3698,0.2016,-1.2489,0.2415,145.8438
21:00:26:126,0.1893,-1.1642,13.2688,39.7857,0.6059,-0.8808,0.2284,145.5312
21:00:26:143,-0.4787,-1.1067,9.4536,40.1927,0.8674,-0.1586,0.2292,145.1875
21:00:26:163,-0.3866,-1.0145,7.6364,40.1839,0.5864,0.2947,0.2894,144.8438
21:00:26:186,-0.2728,-0.7249,8.5917,38.95,0.0344,0.3456,0.3597,144.3438
21:00:26:209,0.1102,-0.7356,10.0246,40.0066,-0.2756,0.1882,0.3976,143.9688
21:00:26:225,0.1857,-0.6087,9.9744,39.6027,-0.1776,0.0779,0.3853,143.5625
21:00:26:244,0.3724,-0.3837,9.0658,38.4227,0.0389,0.014,0.3677,143.1562
21:00:26:268,0.5376,-0.3454,8.4038,39.5832,0.1465,-0.0307,0.3366,142.2969
21:00:26:284,0.4682,-0.3741,8.0099,38.2326,0.1326,0.1602,0.3208,141.9219
21:00:26:304,0.4071,-0.5872,7.6676,40.9765,0.1425,0.3863,0.3989,141.5625
21:00:26:328,0.376,-0.7069,7.1947,41.1045,0.159,0.5829,0.5451,141.1875
21:00:26:343,0.4754,-0.6099,6.9026,38.5499,0.1475,0.8297,0.7009,140.7344
21:00:26:363,0.9075,-0.3777,6.4812,39.2186,0.0522,1.1618,0.7768,140.7344
21:00:26:384,1.1709,-0.1873,5.909,41.1839,-0.0874,1.3541,0.8055,140.1406
21:00:26:409,1.1589,-0.1897,5.5511,39.2333,-0.1726,1.1333,0.8543,139.3438
21:00:26:429,0.9458,-0.1143,5.7893,41.3997,-0.1704,0.5413,0.9576,138.4688
21:00:26:444,0.9362,-0.0281,6.7805,41.5981,-0.1087,-0.0773,1.0838,136.6875
21:00:26:462,1.2894,0.1347,8.1955,40.5287,-0.0911,-0.2939,1.1776,136.1562
21:00:26:487,1.9131,0.2711,9.3638,39.8034,-0.2016,-0.1109,1.1861,135.5938
21:00:26:506,2.7522,0.5285,10.1432,39.2371,-0.3811,0.0452,1.0602,134.4219
21:00:26:523,3.4933,0.7033,11.1116,38.2265,-0.51,-0.109,0.7882,133.0625
21:00:26:542,3.9529,0.4711,12.6439,40.9146,-0.5217,-0.4257,0.4777,131.7031
21:00:26:561,4.1577,-0.3501,14.4922,41.5573,-0.392,-0.4811,0.2575,130.5
21:00:26:583,4.2163,-1.333,15.2249,41.2753,-0.2189,-0.1423,0.2023,129.6406
21:00:26:611,4.3647,-1.6454,13.9619,39.4537,-0.1675,0.3416,0.2119,129.0938
21:00:26:631,4.421,-1.0301,11.922,42.2399,-0.274,0.4803,0.0862,128.7812
21:00:26:647,4.0906,-0.4268,10.7932,41.4747,-0.4237,0.2564,-0.1527,128.5469
21:00:26:662,3.261,-0.4531,11.3187,43.5237,-0.4218,-0.1303,-0.309,128.3281
21:00:26:682,2.7211,-1.1438,12.6595,42.352,-0.1406,-0.3983,-0.2738,128.2656
21:00:26:701,2.5691,-1.6155,13.0282,42.5615,0.2684,-0.5839,-0.0991,128.4531
21:00:26:726,3.4909,-1.7005,12.4559,41.6872,0.6091,-0.6893,-0.0046,128.7969
21:00:26:743,4.913,-1.3677,11.442,41.058,0.7254,-0.5647,-0.1569,129.0781
21:00:26:765,5.7618,-1.09,10.1324,43.1414,0.6477,-0.1796,-0.4991,129.125
21:00:26:782,5.6552,-0.7811,8.3643,43.1414,0.428,0.3413,-0.9127,129.1094
21:00:26:803,4.7562,-0.6554,6.5806,41.8803,0.142,0.7666,-1.2917,129.4219
21:00:26:826,3.3795,-0.6339,5.1728,43.3957,-0.1148,0.9621,-1.5079,130.2031
21:00:26:842,2.0555,-0.6363,4.3779,43.2803,-0.2717,0.851,-1.5245,131.4375
21:00:26:867,1.1733,-0.4746,4.3767,46.3671,-0.2783,0.4697,-1.3902,133.1094
21:00:26:882,1.0201,-0.173,5.186,44.0948,-0.1262,-0.0281,-1.2105,134.9062
21:00:26:902,1.2475,0.2233,6.1592,44.6669,0.1015,-0.3452,-1.0688,136.5469
21:00:26:925,1.4319,0.6351,6.5028,46.0471,0.2445,-0.4749,-0.9785,138.0469
21:00:26:947,1.4833,1.072,6.6021,46.2651,0.2429,-0.5208,-0.9263,139.3281
21:00:26:962,1.3385,1.4299,7.0702,45.6798,0.1526,-0.4883,-0.8746,140.4688
21:00:26:983,1.1709,1.6406,7.725,46.8083,0.0069,-0.3367,-0.8203,141.4844
21:00:27:002,1.1158,1.9375,8.3607,46.476,-0.2189,-0.1077,-0.8206,142.4844
21:00:27:027,0.807,2.0776,9.3519,46.3133,-0.457,0.0771,-0.8523,142.9688
21:00:27:044,0.4011,1.995,11.0063,47.747,-0.5348,0.1267,-0.88,143.8594
21:00:27:064,-0.5697,1.2815,14.2899,49.4815,-0.3979,0.0066,-0.8587,145.2969
21:00:27:083,-1.0892,0.6662,14.7364,50.2087,-0.098,-0.116,-0.7583,146.3125
21:00:27:102,-1.4604,0.2496,14.0828,50.3409,0.1569,-0.0435,-0.5607,147.2812
21:00:27:125,-1.0809,0.0353,13.5202,51.2458,0.1712,0.1339,-0.2869,148.2344
21:00:27:142,-0.5793,-0.0269,13.8661,50.8725,0.0024,0.2122,-0.0627,149
21:00:27:161,-0.4488,-0.3501,14.5616,49.5183,-0.1318,0.1706,0.0724,149.4531
21:00:27:181,-0.3866,-0.7907,14.8705,50.5206,-0.0432,0.1272,0.1922,149.6406
21:00:27:201,-0.2597,-1.0253,13.2772,49.9958,0.2815,0.3227,0.347,149.6406
21:00:27:225,-0.1819,-0.8362,9.7337,51.1192,0.6498,0.7144,0.4956,149.5156
21:00:27:242,0.03,-0.7727,6.9744,51.3347,0.7366,0.8127,0.5752,149.2188
21:00:27:262,-0.1507,-0.823,6.2167,51.3947,0.4924,0.4859,0.5784,148.7344
21:00:27:281,-0.3483,-1.1199,7.7286,50.4476,0.1254,-0.0843,0.5797,148.125
21:00:27:302,-0.2118,-1.4311,9.2681,50.6571,-0.0634,-0.533,0.6452,147.5
21:00:27:325,-0.0585,-1.3473,9.8151,50.5426,-0.0194,-0.6651,0.7555,146.8594
21:00:27:343,0.212,-1.06,9.4488,51.1012,0.0991,-0.5453,0.8948,145.7656
21:00:27:362,0.455,-0.7787,8.6767,50.42,0.2123,-0.3373,1.0143,144.9219
21:00:27:382,0.7028,-0.5525,7.7274,50.7972,0.2818,-0.1018,1.1094,143.8906
21:00:27:402,0.9901,-0.3992,7.0211,50.0874,0.2557,0.1128,1.176,142.7188
21:00:27:425,1.0476,-0.1347,6.8655,50.8197,0.1385,0.2921,1.2125,141.5
21:00:27:444,1.2559,0.1419,7.0822,50.1242,0.0413,0.3959,1.2551,140.1406
21:00:27:462,1.6761,0.5381,7.0486,49.5152,0.0557,0.4388,1.2801,139.4531
21:00:27:487,2.3225,0.9379,6.6763,49.3722,0.1095,0.4675,1.2474,138.0469
21:00:27:509,2.5847,1.2851,6.6404,49.4488,0.069,0.3949,1.1107,136.6719
21:00:27:525,2.3823,1.5257,7.6628,50.6777,-0.0796,0.1863,0.9059,135.2188
21:00:27:544,2.192,1.4299,9.7469,49.2229,-0.216,-0.0957,0.7142,133.8594
21:00:27:561,1.7754,1.2432,10.9416,49.1407,-0.175,-0.1231,0.5744,132.7031
21:00:27:584,1.5863,1.1917,10.4041,49.1043,-0.0123,0.1027,0.4948,131.8281
21:00:27:609,1.8676,1.1881,9.5374,48.1225,0.0197,0.3291,0.4423,130.7812
21:00:27:626,2.2159,0.8673,9.5661,48.3152,-0.1571,0.2942,0.3358,130.25
21:00:27:643,2.3811,-0.0305,11.0817,47.8701,-0.4123,-0.027,0.1643,129.75
21:00:27:661,2.3883,-0.896,13.2664,48.079,-0.5699,-0.3735,0.0505,129.375
21:00:27:682,2.4386,-1.3797,14.0505,48.287,-0.498,-0.3703,0.0553,129.1875
21:00:27:702,2.5284,-1.479,12.432,45.9476,-0.2834,-0.0145,0.0942,129.1094
21:00:27:731,2.6254,-1.0517,10.6148,46.8498,-0.2165,0.2934,0.1046,129.0469
21:00:27:745,2.7846,-0.9631,10.6914,45.8327,-0.3971,0.2297,0.0236,128.9375
21:00:27:763,2.7235,-1.4479,12.5086,45.6641,-0.4503,-0.288,-0.1947,128.8281
21:00:27:786,2.6385,-2.0093,13.2173,44.8151,-0.1174,-0.2598,-0.1529,128.8125
21:00:27:812,2.9462,-2.2571,12.1854,46.9212,0.1699,-0.1143,-0.0746,128.9531
21:00:27:831,3.601,-2.0261,10.1767,45.5619,0.2471,0.009,-0.1021,129.1562
21:00:27:848,4.2714,-1.6083,8.1991,45.7774,0.1105,0.0279,-0.2989,129.3125
21:00:27:864,4.3875,-1.1211,6.9038,46.6211,-0.1742,0.0457,-0.6075,129.3906
21:00:27:882,3.5771,-0.7859,6.5423,44.5748,-0.4288,0.1038,-0.8794,129.5
21:00:27:903,2.2483,-0.6817,6.9361,46.2897,-0.4573,0.2351,-0.9743,130.125
21:00:27:926,1.3983,-0.5956,6.7386,46.1611,-0.3329,0.3387,-0.9133,130.5156
21:00:27:944,1.19,-0.2723,6.0706,44.7127,-0.2399,0.2617,-0.8328,132.1094
21:00:27:998,1.2798,0.1969,5.8911,43.8093,-0.1742,0.0548,-0.7905,132.6094
21:00:27:998,1.433,0.422,6.2909,44.5243,-0.1079,-0.117,-0.7822,133.6875
21:00:28:012,1.3971,0.6698,6.8739,44.3396,-0.0549,-0.2148,-0.7487,134.6562
21:00:28:028,1.3576,1.0541,7.6149,44.6259,-0.0288,-0.223,-0.7138,135.5625
21:00:28:046,1.5192,1.4455,8.3499,43.3925,-0.0421,-0.1317,-0.7346,136.4062
21:00:28:062,1.7395,1.8262,9.1807,44.4005,-0.0956,0.038,-0.839,137.25
21:00:28:083,1.8233,1.9555,9.9205,43.2158,-0.1755,0.2761,-1.0227,138.0469
21:00:28:100,1.111,1.8034,10.4364,44.1145,-0.2637,0.4082,-1.174,138.8438
21:00:28:126,0.1019,1.1486,11.3462,45.009,-0.2661,0.4393,-1.1772,139.7969
21:00:28:143,-0.4548,0.2688,12.3315,42.9731,-0.1691,0.4558,-1.0826,141
21:00:28:160,-0.3123,-0.2532,13.3574,42.5732,-0.0149,0.5709,-1.0613,143.0156
21:00:28:185,-0.5913,-1.1977,13.4136,42.4503,0.123,0.8604,-1.125,144.3438
21:00:28:201,-2.4085,-2.2883,11.8047,41.8546,-0.0208,0.9722,-0.9545,146.2344
21:00:28:222,-3.8737,-2.9215,10.7549,41.2749,-0.3529,0.744,-0.4424,146.8594
21:00:28:243,-3.6929,-2.7444,11.3594,41.3744,-0.5974,0.3086,0.1499,148.1719
21:00:28:269,-1.8482,-2.0201,13.1658,42.1523,-0.5611,-0.0789,0.4628,149.0938
21:00:28:280,-0.1842,-1.6167,14.6419,41.1056,-0.2213,-0.2169,0.4921,149.2812
21:00:28:303,0.1246,-1.5915,14.2744,39.2879,0.1872,-0.0957,0.5206,148.875
21:00:28:328,-0.1232,-1.7364,12.2824,38.7774,0.4309,0.1418,0.7374,148.2812
21:00:28:345,0.3461,-1.5544,9.8559,38.0693,0.428,0.132,0.9842,147.7031
21:00:28:361,1.5252,-0.9858,8.5307,39.5101,0.2807,-0.1133,0.9249,147.0625
21:00:28:381,2.0136,-0.7165,8.3283,40.4097,0.1393,-0.3988,0.6077,146.0781
21:00:28:403,1.3098,-0.981,8.8263,38.2657,0.0865,-0.5261,0.3906,144.9375
21:00:28:426,0.2515,-1.1809,9.0981,36.804,0.1276,-0.4203,0.401,144.0781
21:00:28:443,-0.5482,-1.1905,8.9281,36.3281,0.2823,-0.2568,0.568,143.5
21:00:28:462,-0.1819,-0.653,6.6177,37.0294,0.4341,-0.1197,0.8221,143.2656
21:00:28:482,0.947,-0.2077,5.8468,36.781,0.444,-0.0712,0.992,142.4844
21:00:28:511,1.3624,0.1287,6.0168,35.7789,0.3196,-0.1431,0.944,141.7188
21:00:28:526,0.9985,0.1203,6.9301,36.5001,0.1715,-0.2246,0.7965,140.6562
21:00:28:546,0.722,-0.1035,7.5359,33.9018,0.13,-0.1708,0.7251,139.5156
21:00:28:562,0.7351,-0.088,7.6628,33.5702,0.1438,-0.0118,0.7475,138.5625
21:00:28:580,1.1984,0.2173,7.8232,33.606,0.0932,0.1059,0.7773,137.6875
21:00:28:601,1.4414,0.5118,8.3679,34.6816,-0.0165,0.0763,0.699,136.8594
21:00:28:627,1.2032,0.3418,9.4572,33.1091,-0.1433,-0.0542,0.495,136.0312
21:00:28:645,0.9027,-0.3454,10.2629,33.2598,-0.1739,-0.1476,0.2963,135.1719
21:00:28:661,0.7627,-1.0181,10.3885,33.2752,-0.1374,-0.1061,0.1592,134.4688
21:00:28:682,1.0045,-1.6394,10.8051,32.6376,-0.1949,-0.0398,0.1009,134.0156
21:00:28:701,1.2116,-2.1566,11.6479,32.9824,-0.3382,0.0148,0.0577,133.7656
21:00:28:727,1.3504,-2.2919,12.4919,31.3992,-0.4424,0.0886,0.0447,133.625
21:00:28:744,1.8652,-2.1697,12.3626,30.8401,-0.396,0.2428,0.0825,133.5312
21:00:28:760,2.3823,-1.837,10.7345,30.9614,-0.2605,0.4233,0.0963,133.4531
21:00:28:781,2.5056,-1.2827,9.5015,31.3395,-0.2839,0.4545,0.0053,133.3594
21:00:28:802,2.1381,-0.9224,9.8223,30.0934,-0.5547,0.2777,-0.1825,133.2812
21:00:28:827,2.3716,-1.1534,12.4081,30.175,-0.9017,-0.0273,-0.4073,133.2969
21:00:28:844,2.8923,-1.8729,14.837,29.6665,-0.9998,-0.1647,-0.5913,133.5156
21:00:28:862,2.198,-2.4714,14.7269,29.5866,-0.6298,-0.0712,-0.7572,133.9531
21:00:28:881,2.4087,-2.9874,12.3841,31.0084,-0.1049,0.1171,-0.6981,134.5312
21:00:28:902,2.69,-2.7767,10.6184,27.2741,0.1201,0.2002,-0.611,134.9375
21:00:28:926,2.2734,-2.5289,9.9241,31.5954,0.1127,0.1168,-0.6973,135.7969
21:00:28:943,1.1888,-2.2943,8.8156,29.8008,0.167,0.116,-0.8139,136.5469
21:00:28:960,0.4586,-1.7496,7.1073,29.8008,0.3033,0.1674,-0.7849,137.2656
21:00:28:982,0.2838,-0.8924,5.563,30.014,0.396,0.1608,-0.6619,138.1562
21:00:29:003,0.5005,-0.2017,4.6916,28.79,0.3601,0.0606,-0.5676,139.125
21:00:29:026,0.7519,0.2783,4.9406,29.0783,0.192,-0.0592,-0.5396,139.9844
21:00:29:044,0.8429,0.6219,5.8551,29.919,0.0272,-0.1117,-0.5591,140.9844
21:00:29:061,0.9698,0.7787,6.3759,29.1934,0.0037,-0.113,-0.5908,141.6094
21:00:29:082,0.8189,0.8733,6.7613,30.049,0.0357,-0.0661,-0.6541,142.2031
21:00:29:102,0.7423,1.0409,7.561,30.4049,0.0277,0.0212,-0.689,142.8594
21:00:29:126,0.6765,1.2097,8.6887,28.7387,0.0479,0.0556,-0.7015,143.6094
21:00:29:143,0.4754,1.4383,9.4345,29.7097,0.1497,0.0193,-0.7564,144.4062
21:00:29:162,0.218,1.3318,9.8343,30.1296,0.2844,-0.027,-1.0118,145.1719
21:00:29:183,-0.5326,0.9188,10.4149,30.2212,0.1747,0.1493,-1.0454,146.0469
21:00:29:206,-1.4544,0.6111,11.1547,27.4794,0.0154,0.4838,-0.9543,148.1406
21:00:29:227,-1.9416,0.2592,11.5234,27.2222,-0.1481,0.6854,-0.8065,148.1406
21:00:29:245,-1.9643,-0.4244,12.2046,27.0611,-0.2551,0.6942,-0.6038,149.3438
21:00:29:261,-1.8506,-1.066,13.2305,29.0225,-0.2746,0.6204,-0.3444,150.4844
21:00:29:281,-1.3885,-1.5437,14.017,25.0097,-0.2162,0.5392,-0.0869,151.4844
21:00:29:300,-0.9707,-1.7364,14.2815,26.6538,-0.1518,0.458,0.0953,152.1875
21:00:29:326,-0.7744,-1.977,13.8135,28.1335,-0.1971,0.3562,0.2138,152.6406
21:00:29:343,-0.468,-2.548,13.7057,27.3524,-0.2155,0.2867,0.2963,152.7812
21:00:29:360,-0.5841,-2.9167,13.9475,26.8424,-0.0277,0.3797,0.4314,152.7344
21:00:29:382,-0.7014,-2.9012,13.1156,28.3003,0.4024,0.499,0.6223,152.5156
21:00:29:399,-0.2561,-2.9108,10.0282,28.1954,0.6607,0.2708,0.7278,152.1875
21:00:29:421,0.2814,-2.7252,7.4604,28.2177,0.5316,-0.1738,0.6604,151.7656
21:00:29:444,0.4119,-2.7767,6.8607,27.5689,0.2455,-0.6366,0.4926,151.1406
21:00:29:461,-0.0071,-3.0771,7.6951,26.5277,0.0325,-0.8438,0.4223,149.6406
