Time,Acc_X,Acc_Y,Acc_Z,Meg,Gyr_X,Gyr_Y,Gyr_Z,Ore
19:59:49:481,-0.2776,3.7188,6.6967,56.834,-0.0975,-0.0343,0.6068,77.7188
19:59:49:520,-0.1735,2.7731,10.5669,57.1545,-0.5542,-1.2141,-0.3477,75.8594
19:59:49:540,1.0332,3.0041,10.4209,59.4199,-0.6394,-1.1997,-0.3956,75.8594
19:59:49:559,0.637,3.5811,10.8291,59.6324,-0.7846,-1.1113,-0.668,75.8594
19:59:49:578,0.6501,3.1214,12.3231,58.3801,-0.8184,-0.6708,-0.8869,207.5625
19:59:49:608,0.4754,2.0429,13.3933,56.4539,-0.6493,-0.4059,-1.0627,208.3594
19:59:49:618,-0.055,1.06,12.8067,55.5996,-0.3143,-0.5736,-1.1059,209.3281
19:59:49:643,-0.292,1.0098,11.3175,58.2006,0.0488,-0.6919,-1.0039,211.2031
19:59:49:660,-0.2573,1.0026,9.8463,57.1926,0.3484,-0.4314,-0.8134,212.5469
19:59:49:676,-0.4416,1.4635,9.5674,57.5789,0.5782,0.1665,-0.5873,212.5469
19:59:49:709,-0.8175,2.3601,9.8223,57.0617,0.7896,0.9582,-0.3543,214.6875
19:59:49:715,-0.851,2.7037,6.3807,58.6817,0.6285,0.9651,-0.1623,214.6875
19:59:49:743,-0.6703,2.7348,6.1305,56.8685,-0.2746,-0.469,-0.1378,215.5781
19:59:49:762,-0.1016,3.0855,8.1895,57.4721,-0.7068,-0.576,-0.223,215.6094
19:59:49:775,0.1486,2.8389,8.6001,58.0397,-0.6802,0.045,-0.3319,215.6094
19:59:49:795,-0.0574,2.6594,8.3487,54.841,-0.4913,0.138,-0.3636,215.8281
19:59:49:814,-0.1328,2.7085,8.059,57.9903,-0.2511,-0.1403,-0.3546,216.1875
19:59:49:842,0.0037,2.8725,7.9154,56.0107,-0.0687,-0.3995,-0.3807,216.5625
19:59:49:864,-0.0083,3.0424,7.5239,58.3512,-0.0061,-0.3888,-0.4305,216.9688
19:59:49:874,-0.2225,3.2687,7.0415,56.9564,-0.0575,-0.2905,-0.4579,217.3906
19:59:49:899,-0.5266,3.3968,7.2282,58.0892,-0.1584,-0.3246,-0.4731,217.8594
19:59:49:924,-0.772,3.3657,7.6843,57.5014,-0.2069,-0.4024,-0.4696,218.3906
19:59:49:946,-1.0318,2.961,8.077,56.228,-0.2471,-0.4541,-0.4161,219.25
19:59:49:960,-1.5681,2.5947,8.9365,54.9312,-0.3422,-0.2328,-0.2401,219.8125
19:59:49:974,-1.6782,2.5205,9.3136,56.7315,-0.417,0.2464,0.0785,220.3906
19:59:49:994,-1.3933,3.1969,9.6727,55.0234,-0.4567,0.449,0.3291,220.8438
19:59:50:015,-0.6308,3.9235,10.2425,57.8003,-0.3846,0.3587,0.3584,220.9688
19:59:50:039,-0.0095,3.9941,10.4101,54.7061,-0.2429,0.1582,0.2026,220.6875
19:59:50:061,-0.3878,3.5656,10.8973,55.068,-0.1475,-0.1039,0.0526,220.2344
19:59:50:076,-0.8714,3.0029,11.8011,55.7665,-0.0927,-0.2714,0.0433,219.875
19:59:50:094,-0.8271,2.5385,12.1902,56.7315,-0.0596,-0.2229,0.0923,219.7656
19:59:50:114,-0.8786,2.402,11.9472,54.7442,-0.0961,-0.1635,0.1272,219.75
19:59:50:136,-0.7589,2.2643,11.6084,56.1362,-0.2181,-0.1065,0.1714,219.7344
19:59:50:156,-0.6236,2.0464,11.5258,56.0262,-0.3755,-0.1281,0.1951,219.6406
19:59:50:179,-0.9887,1.3509,12.6547,56.9011,-0.4677,-0.1097,0.2348,219.5156
19:59:50:195,-1.3323,0.8278,12.8438,57.2465,-0.3441,0.2328,0.3746,219.3438
19:59:50:214,-1.3801,0.7368,11.6024,54.6079,-0.0882,0.4589,0.5384,218.9219
19:59:50:236,-0.8726,0.9691,9.978,55.9099,0.0914,0.4733,0.675,218.7344
19:59:50:260,-0.1376,1.4802,9.1232,53.4776,0.1334,0.1995,0.7368,218.1875
19:59:50:275,0.637,1.6777,9.0311,55.9967,0.0831,0.0232,0.6444,217.4688
19:59:50:295,1.196,1.7412,8.8778,54.4923,-0.017,0.0804,0.4707,216.6406
19:59:50:315,0.9362,1.7783,8.7461,55.7639,-0.1425,0.3268,0.2601,215.8281
19:59:50:342,-0.5817,1.9291,8.6767,55.3127,-0.1952,0.4879,0.0952,215.1875
19:59:50:359,-1.3801,1.5425,8.6827,55.8051,-0.0738,0.4088,0.1008,214.7656
19:59:50:383,-1.4963,0.9272,7.7262,55.2094,0.1681,0.3398,0.2635,214.5625
19:59:50:395,-1.4137,1.2875,6.6488,54.5145,0.331,0.1582,0.5339,214.4375
19:59:50:415,-0.8702,2.2176,6.468,54.8354,0.3577,-0.1345,0.6468,214.2188
19:59:50:441,-0.1938,2.6809,6.6799,53.2856,0.3079,-0.4016,0.5424,213.7656
19:59:50:463,-0.3818,2.6917,7.1432,54.0794,0.1838,-0.5063,0.3722,213.0469
19:59:50:474,-0.3973,2.384,7.7513,56.0552,0.0101,-0.364,0.3131,212.3594
19:59:50:494,-0.2824,2.4415,8.0554,55.3926,-0.0921,-0.0847,0.3165,211.9062
19:59:50:514,-0.1268,2.8856,8.0267,55.1891,-0.1489,0.102,0.3192,211.3906
19:59:50:536,-0.0166,3.2938,8.3487,54.0139,-0.1904,0.0301,0.2638,211.0469
19:59:50:557,-0.0214,3.2555,9.5039,54.7402,-0.2003,-0.2463,0.1522,210.7031
19:59:50:576,-0.2848,2.6594,10.695,54.5837,-0.1297,-0.424,0.0641,210.3906
19:59:50:598,-0.8235,1.9148,11.2457,55.5291,-0.0658,-0.3342,0.0923,210.25
19:59:50:630,-1.2533,1.4635,11.3031,53.8648,-0.0828,-0.0956,0.2838,210.2188
19:59:50:638,-0.9492,1.3629,11.2349,53.4113,-0.1515,0.0914,0.5509,210.1875
19:59:50:658,0.1222,1.3893,11.3271,55.0476,-0.2194,0.1012,0.7424,210.0156
19:59:50:673,1.062,1.3689,11.4911,52.8711,-0.2333,-0.008,0.7701,209.5469
19:59:50:695,1.2786,1.3988,11.3031,53.261,-0.1598,-0.2064,0.6902,208.8125
19:59:50:716,1.3852,1.7316,10.7417,51.9243,-0.1209,-0.5489,0.5592,207.9375
19:59:50:739,2.1441,1.8633,10.8686,52.2967,-0.22,-1.025,0.3277,207.1094
19:59:50:757,2.5248,1.5892,12.3327,51.0761,-0.3699,-1.2823,-0.0251,206.4531
19:59:50:776,2.4482,0.7308,13.1072,51.5108,-0.4317,-0.9337,-0.3199,205.875
19:59:50:795,2.3153,0.1191,12.3494,50.9007,-0.3819,-0.2839,-0.4105,206
19:59:50:816,2.2578,0.1526,10.792,52.1793,-0.2639,0.1516,-0.3578,206.4219
19:59:50:843,2.1669,0.7308,9.2836,51.8406,-0.1891,0.151,-0.3274,206.9531
19:59:50:860,1.8413,0.993,8.885,51.409,-0.1987,-0.1345,-0.3959,207.375
19:59:50:877,1.3756,0.7895,9.0406,52.3149,-0.192,-0.3052,-0.4286,207.7656
19:59:50:896,0.783,0.7416,8.8347,52.2948,-0.1201,-0.2125,-0.3636,208.2188
19:59:50:915,0.2635,0.9547,8.1201,51.815,-0.0288,0,-0.2209,208.7344
19:59:50:941,0.1593,1.3593,7.2091,51.6444,0.0575,0.1547,-0.0664,209.1719
19:59:50:960,0.2826,1.819,6.5459,50.8985,0.1313,0.1947,0.0406,209.4062
19:59:50:976,0.6705,2.2236,6.0084,49.9396,0.1856,0.1824,0.0883,209.4688
19:59:50:995,1.1841,2.5995,5.7079,50.4132,0.1867,0.1388,0.0465,209.4062
19:59:51:016,1.4857,2.8868,5.7043,51.187,0.1332,0.0831,-0.1008,209.2812
19:59:51:041,1.4306,3.0951,6.1951,49.6625,0.0109,0.0426,-0.3173,209.2344
19:59:51:056,0.133,2.6211,8.6875,50.7924,-0.2599,0.1433,-0.6515,209.2344
19:59:51:076,-0.5577,2.4259,10.1324,49.2822,-0.2671,0.3302,-0.6305,209.6719
19:59:51:097,-0.8295,2.475,11.1164,49.1647,-0.1542,0.4669,-0.5506,210.2656
19:59:51:124,-1.0186,2.5732,11.3893,49.5523,0.0131,0.5241,-0.4869,211.7656
19:59:51:141,-1.3981,2.4978,11.4049,47.104,0.1241,0.448,-0.4345,211.7656
19:59:51:160,-1.6663,2.3362,11.7425,48.1468,0.1563,0.3159,-0.3301,212.3594
19:59:51:176,-1.2736,2.2512,12.1603,48.6025,0.1651,0.2711,-0.1868,213.3594
19:59:51:194,-0.5697,2.141,11.8119,47.1565,0.1505,0.3833,-0.101,213.3594
19:59:51:217,-0.4117,2.1997,11.2708,46.6445,0.0272,0.5081,-0.112,213.8906
19:59:51:241,-1.009,2.0931,10.9572,48.387,-0.188,0.6008,-0.1572,213.8906
19:59:51:258,-1.6531,1.8537,11.0889,47.942,-0.4146,0.5998,-0.0952,213.9688
19:59:51:276,-1.9081,1.6993,11.9328,47.2268,-0.5153,0.5065,0.1043,214.0781
19:59:51:294,-1.5597,1.1486,12.6822,46.5459,-0.3521,0.2416,0.3168,214.2344
19:59:51:314,-0.9947,0.3346,12.1339,46.1626,-0.0189,0.0972,0.458,214.3281
19:59:51:341,-1.0677,-0.0521,10.3096,46.4831,0.232,-0.0477,0.5331,213.8594
19:59:51:359,-0.9863,0.0042,8.9377,46.745,0.2014,-0.2807,0.6082,213.3438
19:59:51:376,-0.4895,0.3035,8.7497,46.7069,-0.0197,-0.437,0.6534,213.0312
19:59:51:394,0.0037,0.4364,9.0478,46.3696,-0.2304,-0.4458,0.5805,212.0625
19:59:51:415,0.194,0.3083,9.2429,46.5704,-0.3414,-0.2506,0.4758,211.7031
19:59:51:441,0.1055,0.313,8.794,47.0342,-0.3531,0.1177,0.4377,211
19:59:51:544,-0.0322,0.4723,7.8842,46.8479,-0.2759,0.4147,0.4633,210.4219
19:59:51:545,0.0097,0.6195,6.7135,46.1249,-0.1614,0.4778,0.4843,209.9531
19:59:51:553,-0.2094,0.8625,6.1508,45.2715,-0.0628,0.3193,0.5027,209.4531
19:59:51:553,-0.4536,0.9367,5.8982,45.6662,0.0152,0.0924,0.5355,208.8906
19:59:51:553,-0.5553,0.9894,5.9832,44.9579,0.0498,-0.1481,0.5965,208.6094
19:59:51:553,-0.3566,1.23,6.6811,44.6429,0.02,-0.3094,0.6734,208.0625
19:59:51:573,0.1893,1.6849,7.5766,45.8437,-0.0085,-0.372,0.716,207.4531
19:59:51:594,0.5711,2.1255,8.4062,45.6735,-0.029,-0.4647,0.6606,206.7656
19:59:51:614,0.6849,2.2931,9.1783,45.0903,-0.0751,-0.4559,0.5826,206.0469
19:59:51:641,0.8524,2.4044,9.8056,45.5458,-0.192,-0.1885,0.5176,205.2344
19:59:51:658,1.0308,2.5528,10.3323,45.5667,-0.3483,0.0788,0.3807,204.4844
19:59:51:675,0.8943,2.4595,11.4983,44.1202,-0.4256,0.0602,0.1735,203.5625
19:59:51:694,0.8249,1.7891,12.6152,44.1202,-0.3545,-0.2114,-0.0195,203.0469
19:59:51:714,0.7256,0.8924,13.6973,44.7928,-0.228,-0.5063,-0.1034,202.7344
19:59:51:738,1.026,0.2316,14.1163,44.1686,-0.0975,-0.4668,-0.048,202.6875
19:59:51:756,1.961,0.3514,12.9982,45.5991,-0.066,-0.1936,-0.018,202.7812
19:59:51:774,2.5847,0.8901,12.1591,45.0432,-0.2336,-0.171,-0.2294,202.8906
19:59:51:794,2.2136,0.4818,12.8007,45.8383,-0.5265,-0.3742,-0.6339,202.9062
19:59:51:815,0.5376,-0.9283,14.892,44.3514,-0.6637,-0.3968,-0.8752,203.0156
19:59:51:837,-0.3375,-2.2332,15.657,44.1694,-0.3246,-0.0573,-0.7,203.5156
19:59:51:858,-0.4045,-2.232,13.0234,45.6561,0.3065,0.4408,-0.2603,204.4844
19:59:51:874,0.7124,-1.1821,8.8084,44.6376,0.7689,0.5058,0.1573,205.4219
19:59:51:894,2.4889,-0.1035,5.7606,44.3628,0.8243,-0.0349,0.2231,206
19:59:51:914,3.1509,0.8386,5.2207,43.1048,0.518,-0.6866,-0.0571,205.8438
19:59:51:940,2.7343,0.7452,6.3436,46.6888,0.1031,-0.9278,-0.439,205.5469
19:59:51:957,1.6186,0.3154,7.5586,46.0957,-0.1643,-0.6309,-0.6875,205.5781
19:59:51:974,0.5233,0.2975,7.8411,43.9295,-0.2003,-0.0778,-0.7168,206.0781
19:59:51:994,0.2826,0.4783,6.9457,44.1175,-0.082,0.3353,-0.6257,206.4688
19:59:52:014,0.3066,0.9667,5.7211,47.3706,-0.009,0.4328,-0.5333,207.2812
19:59:52:041,0.5137,1.5556,5.7139,45.8141,-0.0146,0.212,-0.4632,208.0625
19:59:52:057,0.8501,1.8705,6.4657,46.177,-0.0005,-0.0812,-0.4702,208.7188
19:59:52:073,1.135,2.0943,7.3108,45.4634,-0.0008,-0.2245,-0.5277,209.25
19:59:52:094,1.2331,2.1542,8.2912,45.6785,-0.0463,-0.1806,-0.615,209.7812
19:59:52:114,0.8106,2.0453,9.5614,46.6705,-0.0999,-0.0493,-0.6984,210.3438
19:59:52:140,0.3987,2.0752,10.9704,47.8927,-0.0602,0.1345,-0.708,211
19:59:52:156,0.2371,2.0249,11.6683,46.7279,0.1105,0.3023,-0.6928,211.7344
19:59:52:174,-0.043,2.0093,11.4205,48.2442,0.2932,0.4019,-0.6835,212.5469
19:59:52:194,-0.4739,1.8848,11.0338,47.8369,0.3689,0.4099,-0.6624,213.7344
19:59:52:213,-1.0641,1.7831,11.0494,47.8261,0.3396,0.3585,-0.5935,214.4531
19:59:52:234,-1.4651,1.6825,11.4157,47.3241,0.2938,0.2988,-0.4725,215.1719
19:59:52:260,-1.4316,1.4347,11.6144,47.8635,0.2842,0.2426,-0.3394,215.8281
19:59:52:275,-1.1982,1.2683,11.4384,49.091,0.2802,0.1761,-0.2249,216.3125
19:59:52:294,-1.1096,1.2779,11.0099,48.1542,0.1942,0.1817,-0.149,216.6719
19:59:52:313,-1.2485,1.3569,10.6783,47.897,0.0179,0.2112,-0.0992,216.9062
19:59:52:334,-1.4675,1.3042,10.7956,48.8546,-0.1582,0.0804,-0.0488,217.0469
19:59:52:360,-1.513,0.8338,12.0358,48.8403,-0.2322,-0.2631,-0.0028,217.1562
19:59:52:378,-1.7046,-0.0688,13.1227,47.8396,-0.082,-0.4485,0.0614,217.2188
19:59:52:394,-1.7285,-0.732,12.4607,48.7359,0.1907,-0.4133,0.2007,217.2344
19:59:52:414,-1.1503,-0.6075,10.549,50.0003,0.277,-0.3553,0.3538,217.1875
19:59:52:442,0.0169,0.0844,9.2693,50.2842,0.1004,-0.4146,0.3767,216.9688
19:59:52:464,0.0899,0.1885,9.2429,49.7439,-0.2716,-0.2788,0.2204,216.5625
19:59:52:473,-0.0179,0.2915,8.7713,51.0156,-0.2983,0.0008,0.2132,216.5625
19:59:52:499,-0.2046,0.4711,7.8004,50.7174,-0.2245,0.2448,0.2862,216.1562
19:59:52:524,-0.037,0.92,6.5698,49.3713,-0.0977,0.3353,0.405,215.625
19:59:52:543,0.4574,1.5269,5.3033,50.7667,0.0384,0.2088,0.4777,215.4219
19:59:52:559,0.8213,2.1865,4.5802,50.5179,0.114,-0.1752,0.4494,215.0938
19:59:52:576,1.1888,2.6677,5.5475,52.29,0.1292,-0.7182,0.3504,214.6406
19:59:52:594,2.0436,2.5804,6.9792,51.2031,0.1499,-0.991,0.1546,214.0781
19:59:52:615,2.2483,2.2919,8.484,51.3771,0.1236,-0.9169,-0.1386,213.5938
19:59:52:642,1.7479,1.8094,9.6416,51.7743,0.0551,-0.5585,-0.406,213.1875
19:59:52:659,0.8872,1.3198,10.3598,52.1779,-0.0056,-0.0562,-0.5535,213.0312
19:59:52:676,0.6418,0.7739,10.0977,52.205,-0.0008,0.3436,-0.5434,213.1875
19:59:52:693,1.196,0.6877,9.5003,52.4255,-0.021,0.3097,-0.4691,213.6719
19:59:52:714,2.2255,0.4711,10.0151,51.6184,-0.1643,-0.2333,-0.5194,214.2969
19:59:52:743,2.3488,-0.6482,11.9484,52.0248,-0.3616,-0.9286,-0.6651,214.8906
19:59:52:755,1.0895,-2.1542,14.5461,51.763,-0.4836,-1.2695,-0.6065,216.0312
19:59:52:773,0.0588,-2.8341,16.0389,51.203,-0.424,-0.9678,-0.105,216.4375
19:59:52:793,1.1805,-2.2021,15.1937,53.5719,-0.139,-0.2724,0.6231,217.2656
19:59:52:812,3.3807,-0.5405,11.8359,51.8762,0.1774,0.2131,0.9421,217.8281
19:59:52:834,4.5108,0.8984,8.5402,52.4223,0.0916,0.0208,0.6212,217.5781
19:59:52:855,4.0798,1.084,8.9137,52.733,-0.4162,-0.5268,0.0002,216.5781
19:59:52:876,2.6864,-0.2999,12.28,52.101,-0.7704,-0.6418,-0.4409,215.625
19:59:52:893,1.5408,-1.1259,13.8853,52.5626,-0.5646,-0.0983,-0.4571,215.2969
19:59:52:913,1.8413,-1.1761,11.673,53.2273,-0.077,0.501,-0.1812,215.7031
19:59:52:935,2.9689,-0.1179,8.5678,50.9875,0.2045,0.584,0.0068,216.375
19:59:52:967,3.8213,0.9535,6.7853,51.4012,0.1689,0.3124,-0.1639,216.7969
19:59:52:973,3.4011,1.2887,6.4417,52.0458,-0.0554,0.1246,-0.5801,216.8594
19:59:53:001,2.1166,0.7296,6.6608,52.1753,-0.2967,0.2429,-0.9117,216.8438
19:59:53:012,0.7052,0.4328,6.7326,50.9078,-0.4405,0.5412,-0.9724,216.9844
19:59:53:033,-0.037,0.5812,6.6392,50.9814,-0.4551,0.6842,-0.819,217.6406
19:59:53:054,0.212,0.8877,6.8811,51.1022,-0.3425,0.5169,-0.6102,218.7344
19:59:53:073,0.9913,1.2599,7.1588,48.0191,-0.1427,0.2141,-0.484,219.8438
19:59:53:093,1.3361,1.6646,7.5443,51.8029,0.0219,-0.0477,-0.4899,221.2344
19:59:53:115,1.3361,1.8573,8.2601,50.1024,0.11,-0.1459,-0.5413,221.875
19:59:53:140,1.4498,1.9004,8.6528,50.697,0.1492,-0.0042,-0.5679,222.3906
19:59:53:159,1.3241,2.0357,8.7964,51.4126,0.135,0.1952,-0.5948,222.9844
19:59:53:176,1.2439,2.0333,9.0047,49.4883,0.0948,0.3058,-0.6145,223.6094
19:59:53:194,0.9291,2.0069,9.3207,50.6156,0.037,0.3076,-0.6555,224.2188
19:59:53:214,0.4981,1.8082,9.9648,50.5923,-0.0107,0.229,-0.6734,224.8906
19:59:53:234,-0.1447,1.5209,10.804,50.4549,-0.0333,0.1814,-0.6422,225.6094
19:59:53:258,-0.8582,1.23,11.6862,50.5246,0.0096,0.2538,-0.5069,226.375
19:59:53:275,-1.1168,1.0241,11.612,49.6906,0.1606,0.4512,-0.264,227.0938
19:59:53:294,-1.1443,1.2767,10.6483,50.1176,0.3007,0.5651,0.0028,227.7656
19:59:53:314,-0.9073,1.4108,9.948,49.669,0.3465,0.4892,0.1956,228.2031
19:59:53:340,-0.4871,1.3318,9.6128,48.2584,0.3087,0.3159,0.2883,228.3125
19:59:53:358,-0.3327,1.0433,9.6859,48.9355,0.1771,0.1785,0.2878,228
19:59:53:375,-0.3566,0.5776,9.8463,49.2353,-0.0463,0.2144,0.2633,227.6406
19:59:53:393,-0.2525,0.1957,9.893,48.5296,-0.3569,0.2717,0.2241,227.2969
19:59:53:414,0.0899,-0.1131,11.2756,48.4049,-0.8173,-0.2064,0.1325,227
19:59:53:442,-0.5039,-1.1678,16.2077,47.3964,-1.1217,-0.8053,0.0015,226.7656
19:59:53:459,-0.7409,-2.5121,19.0316,45.9146,-0.6266,-0.4706,0.0774,226.6719
19:59:53:477,-0.8917,-2.9682,15.0154,47.586,0.1406,0.2139,0.3126,226.7188
19:59:53:496,-0.7589,-1.8094,10.5777,45.0602,0.4008,0.3348,0.6353,226.7812
19:59:53:514,0.3161,-0.9355,8.6683,47.632,0.2711,0.0293,0.7562,226.6094
19:59:53:541,0.5376,-0.5058,8.7007,48.7599,0.1326,-0.2605,0.703,226.0625
19:59:53:558,0.4694,-0.2484,8.8012,46.0471,0.139,-0.2615,0.7043,225.1875
19:59:53:635,0.4059,-0.0186,8.1979,44.5308,0.2581,-0.1406,0.7498,224.3438
19:59:53:635,0.3712,0.2628,7.0666,45.163,0.3792,-0.0018,0.8212,223.5312
19:59:53:636,0.522,0.592,5.7953,47.1692,0.4272,0.0959,0.8923,222.2812
19:59:53:636,1.0188,0.9858,4.9681,44.9391,0.3779,0.044,0.9158,221.3125
19:59:53:654,1.4306,1.3414,5.0387,44.8766,0.2778,-0.1156,0.8372,220.2969
19:59:53:677,1.3672,1.4024,5.5846,45.4802,0.2059,-0.2391,0.6969,219.2188
19:59:53:694,1.1972,1.2396,6.2969,46.7419,0.1694,-0.2785,0.5972,218.2344
19:59:53:712,1.1817,1.2528,6.8966,44.9206,0.1196,-0.2482,0.5746,217.4219
19:59:53:732,1.4366,1.4156,8.0243,45.6462,0.0485,-0.2756,0.5488,216.75
19:59:53:760,1.5911,1.3713,9.7828,44.8221,0.0117,-0.2522,0.4604,216.0938
19:59:53:780,1.0284,1.552,11.4959,44.6653,0.0373,-0.061,0.344,215.4688
19:59:53:793,0.552,1.6694,12.5517,41.9385,-0.0013,0.147,0.2659,214.9688
19:59:53:813,0.358,1.6143,13.6782,43.0112,-0.1055,0.3052,0.1954,214.5625
19:59:53:833,0.3365,1.2647,14.5329,42.0082,-0.0903,0.3838,0.1456,214.2656
19:59:53:857,0.7782,0.3621,13.2903,43.2113,0.0687,0.445,0.1133,214.0469
19:59:53:875,1.3684,0.1754,11.691,42.4897,0.3073,0.5619,0.2319,213.8906
19:59:53:895,1.6354,0.5249,10.4436,42.2507,0.2059,0.5321,0.2201,213.75
19:59:53:915,1.5887,0.6039,9.6511,42.2507,-0.0168,0.3923,0.0707,213.5469
19:59:53:942,1.044,0.2376,9.8786,42.8612,-0.314,0.0645,-0.1239,212.9844
19:59:53:959,0.4502,-0.7655,12.1962,42.9164,-0.5105,-0.3246,-0.1863,212.8906
19:59:53:977,0.4215,-1.3976,13.8494,43.6329,-0.3324,-0.1076,-0.0025,212.8906
19:59:53:993,1.3385,-1.1546,11.7916,40.8292,0.0911,0.5209,0.2984,213.0469
19:59:54:012,2.3967,0.0964,7.743,41.7551,0.2882,0.8003,0.4308,213.2969
19:59:54:032,2.7511,1.6071,5.6744,41.939,0.0847,0.4735,0.2537,213.3281
19:59:54:056,2.3069,2.1099,6.164,40.8427,-0.2474,-0.0533,-0.1229,213
19:59:54:076,1.2846,1.637,8.0494,41.4914,-0.3928,-0.3768,-0.4307,212.4688
19:59:54:098,0.3796,1.1941,9.2776,39.2982,-0.2589,-0.3316,-0.517,212.1719
19:59:54:116,-0.0514,1.0421,9.1663,39.6775,0.0533,-0.1947,-0.452,212.3281
19:59:54:138,-0.1387,1.2216,8.0231,39.1231,0.3204,-0.1086,-0.3466,212.8281
19:59:54:157,0.054,1.4371,7.2893,40.1976,0.4195,-0.1387,-0.271,213.4375
19:59:54:174,0.3437,1.4766,7.1432,37.8572,0.4227,-0.1544,-0.2387,213.9375
19:59:54:194,0.643,1.6765,7.6927,40.5593,0.383,-0.1771,-0.2233,214.4531
19:59:54:212,1.1278,1.8848,8.4864,39.758,0.3979,-0.1102,-0.2467,214.7031
19:59:54:231,1.3971,1.8896,8.8838,40.0138,0.4986,-0.0162,-0.3343,214.9531
19:59:54:257,1.214,2.05,8.8491,40.8673,0.5795,0.0701,-0.4188,215.1719
19:59:54:276,0.8836,2.2619,8.8335,40.0797,0.5808,0.1113,-0.4758,215.4688
19:59:54:294,0.4406,2.4559,9.0706,39.5522,0.5297,0.1332,-0.5184,215.8594
19:59:54:312,0.0899,2.4918,9.4836,38.4927,0.4461,0.2227,-0.5386,216.2969
19:59:54:333,-0.3123,2.384,9.6942,37.9684,0.3358,0.429,-0.5255,216.8281
19:59:54:358,-0.948,2.2344,9.9181,38.2108,0.2019,0.5321,-0.4398,217.3906
19:59:54:375,-1.2892,2.159,10.5741,37.8852,0.123,0.4392,-0.2667,217.9688
19:59:54:395,-1.1575,2.0069,11.1284,37.3833,0.1766,0.2258,-0.0795,218.2188
19:59:54:412,-0.8762,1.9674,11.0506,36.8006,0.3023,-0.0466,0.0601,218.6719
19:59:54:432,-0.6954,1.9471,10.5945,37.9863,0.3092,-0.2336,0.1205,218.9375
19:59:54:456,-0.778,1.7651,10.3131,37.0746,0.106,-0.2469,0.1211,219.0156
19:59:54:475,-0.9073,1.4264,10.8279,37.7316,-0.2269,-0.1939,0.0918,218.8594
19:59:54:496,-1.3849,0.7955,12.1411,38.4575,-0.4714,-0.1273,0.079,218.7344
19:59:54:512,-1.8063,0.1383,13.0533,37.8759,-0.4258,-0.0519,0.1608,218.625
19:59:54:532,-1.859,-0.1,12.1818,38.4165,-0.1502,0.0032,0.308,218.5781
19:59:54:557,-1.6519,0.1107,10.2784,36.8374,0.0181,-0.1073,0.446,218.4844
19:59:54:573,-0.9133,0.3909,9.2262,36.8411,-0.0525,-0.2897,0.5464,218.2344
19:59:54:594,-0.1699,0.5226,8.9018,38.2834,-0.1758,-0.3076,0.5685,217.8281
19:59:54:612,0.1749,0.6506,8.3295,38.8183,-0.2466,-0.1409,0.5565,217.2656
19:59:54:633,0.3161,0.756,7.3515,37.3672,-0.2708,0.0786,0.581,216.6406
19:59:54:655,0.5304,0.9774,6.3448,38.1885,-0.2703,0.2008,0.6279,216.0469
19:59:54:671,0.9039,1.4,5.8049,37.5877,-0.2748,0.1353,0.6321,215.4219
19:59:54:692,1.1314,1.7843,5.7558,39.5662,-0.289,-0.009,0.5419,214.3906
19:59:54:712,0.9111,1.9531,6.3005,38.3567,-0.3025,-0.1891,0.4092,213.7188
19:59:54:732,0.5795,1.8118,7.2474,37.4624,-0.2415,-0.372,0.3472,213.1094
19:59:54:753,0.1917,1.7304,8.0662,38.1148,-0.1161,-0.5105,0.3682,212.6719
19:59:54:773,0.0109,1.8477,8.9401,37.0512,0.0455,-0.6352,0.463,212.4844
19:59:54:792,0.2766,2.2081,9.7086,36.9058,0.1966,-0.6895,0.5573,212.125
19:59:54:815,0.4861,2.7563,11.035,37.4172,0.3297,-0.7049,0.5722,211.6875
19:59:54:831,0.8201,2.6869,12.0358,37.6896,0.5318,-0.5894,0.5147,211.1094
19:59:54:852,1.0607,2.5025,11.381,37.7293,0.6906,-0.3137,0.4409,210.4688
19:59:54:878,1.0464,2.8389,10.8925,38.6694,0.6136,-0.16,0.377,209.8281
19:59:54:892,1.2475,2.4834,11.5881,36.1043,0.4014,-0.1734,0.2721,209.2188
19:59:54:917,1.2236,1.7292,13.0365,38.1839,0.2511,-0.1435,0.1826,208.6875
19:59:54:931,1.5408,1.0672,13.5393,38.8992,0.2922,0.0826,0.2345,208.2812
19:59:54:953,1.9801,0.8374,12.3398,37.5895,0.396,0.4093,0.3141,208
19:59:54:976,2.3177,1.248,10.2461,37.8265,0.3313,0.5116,0.3067,207.6094
19:59:54:992,2.9438,1.3318,9.0035,38.6407,-0.0005,0.0474,0.1211,207.1719
19:59:55:012,3.3915,0.7811,10.7034,39.3454,-0.4903,-0.7675,-0.2251,206.75
19:59:55:040,3.0479,-0.5692,13.9475,38.0718,-0.6969,-0.9201,-0.4888,206.6094
19:59:55:061,2.4051,-1.5197,14.5664,38.6611,-0.3694,-0.2431,-0.4851,206.9531
19:59:55:074,2.1357,-1.3282,10.8375,37.3199,0.0594,0.6895,-0.2787,207.6562
19:59:55:091,2.3548,-0.082,6.9696,38.9116,0.0727,0.9654,-0.1093,208.2812
19:59:55:112,2.3907,1.1857,5.8755,38.9208,-0.1782,0.4991,-0.1895,208.5469
19:59:55:133,1.8903,1.5748,7.0283,38.3756,-0.3574,-0.139,-0.4201,208.6094
19:59:55:160,1.4079,1.2767,8.2362,37.6949,-0.3023,-0.3281,-0.5335,208.8125
19:59:55:177,0.9841,1.2061,8.1476,39.7508,-0.1313,-0.106,-0.4952,209.3125
19:59:55:193,0.716,1.4994,7.3695,39.0516,0.0179,0.118,-0.3809,209.9688
19:59:55:213,0.7926,1.8657,6.7985,37.2743,0.1177,0.1878,-0.2739,210.2812
19:59:55:234,1.1194,2.5684,6.0359,37.6111,0.3097,-0.0002,-0.2142,210.7969
19:59:55:260,1.2008,3.0436,6.0527,38.7711,0.2959,-0.2607,-0.2406,210.7969
19:59:55:275,1.214,3.4195,6.9373,38.4949,0.1955,-0.5044,-0.2936,211.4844
19:59:55:295,1.0296,3.7056,8.4672,37.4703,0.1284,-0.5382,-0.3314,211.4844
19:59:55:314,1.0691,3.6745,9.5242,36.8197,0.1611,-0.3885,-0.3391,211.9375
19:59:55:334,0.8967,3.6661,10.0737,36.3959,0.212,-0.1342,-0.341,211.9375
19:59:55:360,0.3365,3.811,10.3419,38.7808,0.2354,0.1444,-0.3005,212.6719
19:59:55:376,-0.0765,3.8804,10.4197,38.3848,0.2227,0.3524,-0.2116,213.0781
19:59:55:394,-0.2297,3.7104,10.8123,36.5037,0.1619,0.3497,-0.1066,213.4219
19:59:55:413,0.0564,3.2579,11.7521,36.4232,0.1284,0.2237,0.009,213.7344
19:59:55:432,0.6813,2.8737,12.256,36.6603,0.1361,0.1228,0.0606,213.9219
19:59:55:459,1.1386,2.5277,12.2022,36.7567,0.0599,-0.0018,0.0132,213.9844
19:59:55:477,1.1362,2.1398,12.5146,38.0874,-0.1646,-0.1449,-0.0568,213.9375
19:59:55:499,0.4287,1.6095,13.6291,37.4031,-0.3739,-0.204,-0.0912,213.8438
19:59:55:512,-0.1531,0.9056,14.5928,36.7827,-0.3057,-0.1268,-0.0182,213.8594
19:59:55:534,-0.3961,0.1275,13.6782,37.1974,-0.0029,0.1116,0.1043,214
19:59:55:560,-0.5422,-0.1478,10.7752,37.4151,0.2051,0.3217,0.2729,214.1406
19:59:55:579,-0.0418,0.228,8.4552,36.3581,0.0655,0.1992,0.4351,214.125
19:59:55:595,0.9075,0.7033,8.0135,36.9257,-0.3182,-0.0575,0.4644,213.875
19:59:55:613,1.3516,0.8889,8.9915,37.9507,-0.6333,-0.1893,0.3682,213.4219
19:59:55:633,1.0811,0.8984,9.8427,37.5754,-0.6541,-0.1081,0.2859,212.9062
19:59:55:658,0.6597,0.8613,9.5242,38.6741,-0.4333,0.0954,0.2819,212.5
19:59:55:746,0.3221,0.8027,8.1488,38.7651,-0.1731,0.2687,0.3541,212.3438
19:59:55:747,0.151,0.9523,6.8056,39.3207,-0.0165,0.3204,0.4739,212.1094
19:59:55:747,0.0935,1.2372,6.2191,38.4548,0.0429,0.249,0.5831,211.8438
19:59:55:747,0.4634,1.3821,6.1365,39.687,0.0669,0.1023,0.6622,211.4375
19:59:55:758,1.0955,1.6574,6.2777,38.2512,0.0336,0.0227,0.6604,210.875
19:59:55:772,1.4306,1.6658,7.1121,37.7567,-0.066,0.1289,0.5589,210.2031
19:59:55:791,1.3193,1.4096,8.4205,37.9063,-0.1361,0.449,0.4462,209.4688
19:59:55:812,1.0931,1.1378,9.6464,38.7335,-0.021,0.7505,0.4156,208.3594
19:59:55:832,1.3169,1.0493,9.9624,39.687,0.2575,0.9673,0.3967,207.8281
19:59:55:858,1.2523,1.6299,9.1639,38.8743,0.4267,1.1446,0.3011,207.3281
19:59:55:875,1.2343,2.2847,9.6571,40.4658,0.2914,1.2235,0.0883,206.8125
19:59:55:896,1.2307,3.0616,11.2193,39.2696,0.1824,1.0717,-0.1777,206.3281
19:59:55:911,1.5312,2.6258,12.6283,40.0364,0.3979,0.5313,-0.622,206.0312
19:59:55:932,0.3126,1.5724,12.3027,41.0545,0.7388,-0.1156,-0.9953,206.0156
19:59:55:956,-0.456,0.7416,11.4241,39.5479,0.7739,-0.4562,-1.0094,206.3906
19:59:55:972,-0.3758,0.7715,11.1224,40.8241,0.4528,-0.4072,-0.818,207.2812
19:59:55:991,0.7387,0.9906,11.5222,41.0447,-0.0455,-0.1864,-0.7192,208.4688
19:59:56:011,1.032,0.5944,12.9432,42.8667,-0.5201,-0.0407,-0.8321,209.5312
19:59:56:031,-0.0502,-0.4052,15.001,41.0872,-0.7364,0.1963,-0.8739,210.3438
19:59:56:053,-1.0916,-1.1103,15.1578,41.4134,-0.4783,0.6493,-0.6073,211.2344
19:59:56:073,-0.5685,-1.0505,12.2632,41.4598,0.0461,0.9193,-0.1045,212.2812
19:59:56:093,0.941,-0.094,8.2613,41.4598,0.3705,0.7681,0.2944,213.4062
19:59:56:111,2.2016,1.4096,5.6732,41.8261,0.2986,0.2234,0.3421,213.4688
19:59:56:132,2.5954,2.3302,5.3559,42.5598,-0.0061,-0.4072,0.0505,213.0938
19:59:56:159,2.1142,2.3852,6.0934,41.9613,-0.3105,-0.7015,-0.3434,212.6719
19:59:56:183,1.4091,1.9028,7.1001,43.203,-0.5222,-0.6067,-0.6161,212.6094
19:59:56:202,0.5855,1.667,7.8483,42.867,-0.5928,-0.281,-0.6965,212.8281
19:59:56:217,0.1557,1.8154,8.2757,43.5976,-0.4698,-0.062,-0.6294,213.4531
19:59:56:231,0.1689,2.1865,8.1272,43.3913,-0.2066,-0.0026,-0.5434,214.2812
19:59:56:251,0.4035,2.5289,7.3348,43.1431,0.0615,-0.0487,-0.4896,215.0312
19:59:56:278,0.8321,2.8365,6.6811,44.3769,0.2147,-0.1917,-0.5152,215.7188
19:59:56:301,1.0057,3.046,6.4214,43.4228,0.2048,-0.3355,-0.6555,216.2969
19:59:56:311,0.6011,3.0161,7.0163,45.6611,0.0711,-0.4064,-0.8257,216.8281
19:59:56:331,0.0528,2.8928,8.3619,45.7231,-0.0602,-0.3065,-0.9226,217.5
19:59:56:351,-0.3925,2.627,9.4919,45.016,-0.081,-0.0818,-0.9333,218.3594
19:59:56:374,-0.7732,2.4463,10.2521,47.6228,0.0304,0.1036,-0.8627,219.8906
19:59:56:395,-0.5302,2.5241,10.3036,47.2038,0.2346,0.1776,-0.7756,220.9688
19:59:56:411,-0.2728,2.8329,10.0486,47.8017,0.403,0.0874,-0.7905,221.9531
19:59:56:431,-0.0071,2.9934,10.2365,47.1793,0.461,-0.143,-0.9082,222.7812
19:59:56:451,-0.1088,2.7252,11.1679,47.6313,0.4645,-0.2849,-1.0835,223.6562
19:59:56:476,-1.0689,1.9627,11.618,48.5018,0.449,-0.1896,-1.2036,224.6875
19:59:56:490,-2.2876,1.2959,11.1356,49.1434,0.3204,0.1297,-1.0813,225.9375
19:59:56:510,-2.8478,1.1462,10.4484,49.1479,0.0719,0.4333,-0.7466,227.25
19:59:56:531,-2.4994,1.3533,9.8666,49.8153,-0.2,0.4043,-0.3924,228.4531
19:59:56:550,-2.1918,1.5892,10.5813,49.3332,-0.3316,-0.3419,-0.1429,229.2812
19:59:56:574,-1.7979,1.321,12.7325,48.9683,-0.1073,-1.5489,0.0204,229.6719
19:59:56:594,-1.4951,0.6794,14.0122,50.0074,0.3095,-2.1516,0.1381,229.6719
19:59:56:611,-1.0067,0.41,13.1275,50.1386,0.5619,-1.8059,0.2574,229.9688
19:59:56:632,0.194,0.6243,9.5805,50.2645,-0.0269,-0.3635,0.2987,229.9844
19:59:56:656,0.6801,0.7201,9.6775,50.6112,-0.4386,-0.0442,0.2872,229.9062
19:59:56:672,0.9578,0.8673,10.1898,49.6874,-0.5401,0.0573,0.2878,229.5
19:59:56:691,0.9171,1.0612,10.2162,51.3178,-0.3728,0.0938,0.3134,229.2031
19:59:56:711,0.8357,1.2216,9.5446,50.4805,-0.0818,0.1992,0.3988,228.9219
19:59:56:732,0.9614,1.2791,8.1093,51.8727,0.1739,0.3707,0.5091,228.3281
19:59:56:756,1.0512,1.509,6.741,52.3329,0.3023,0.3915,0.6092,228.3281
19:59:56:775,1.2547,1.8681,6.2466,53.1483,0.3808,0.1635,0.6481,227.875
19:59:56:790,1.4259,2.0034,6.0299,51.0063,0.4682,-0.0461,0.5988,227.25
19:59:56:810,1.5192,2.0824,5.6732,52.3377,0.4964,-0.1499,0.5072,226.5
19:59:56:830,1.5132,2.1829,5.4074,52.5311,0.395,-0.1606,0.41,225.7344
19:59:56:851,1.2427,2.3457,5.8707,52.4196,0.1814,-0.2208,0.3019,225.0156
19:59:56:874,0.8381,2.2883,7.0403,52.1166,-0.028,-0.2881,0.2255,224.4062
19:59:56:894,0.4347,2.4056,8.6552,54.0213,-0.119,-0.3001,0.2047,223.9062
19:59:56:911,0.5029,2.5516,9.7505,53.1366,-0.0397,-0.2911,0.1818,223.3594
19:59:56:930,0.7555,2.499,9.5626,53.8531,-0.008,-0.331,0.0936,223.25
19:59:56:951,1.0105,2.1159,9.6727,54.2929,-0.2035,-0.4604,-0.0193,223.0625
19:59:56:973,0.9243,1.5413,10.9021,54.4178,-0.5119,-0.572,-0.1144,222.9219
19:59:56:994,0.6286,0.9056,13.088,53.5449,-0.7092,-0.539,-0.1213,222.9375
19:59:57:010,0.8118,0.0952,14.3294,53.9316,-0.6333,-0.2751,-0.0118,223.1094
19:59:57:030,1.287,-0.0772,13.5669,54.5054,-0.445,-0.024,0.1253,223.3906
19:59:57:050,1.8365,0.3945,12.3338,54.7766,-0.4328,0.0549,0.1485,223.6094
19:59:57:077,2.1238,0.6566,12.5314,55.1712,-0.6333,-0.0908,-0.0299,223.625
19:59:57:095,1.451,0.2436,14.7149,55.4297,-0.7425,-0.1877,-0.243,223.5
19:59:57:110,0.5616,-0.6243,16.0149,55.1037,-0.4834,0.171,-0.1919,223.4844
19:59:57:131,0.7435,-0.9152,14.4264,54.2334,0.0437,0.6552,0.1983,223.5781
19:59:57:154,2.684,-0.1035,11.2409,54.2354,0.4908,0.7662,0.6753,223.9688
19:59:57:175,5.2027,1.4443,8.3535,55.3017,0.6192,0.391,0.7783,224.25
19:59:57:194,6.0431,2.7863,7.1767,55.8617,0.4525,-0.2578,0.3496,224
19:59:57:211,5.15,2.6761,7.7202,55.0524,0.1835,-0.6306,-0.2603,223.125
19:59:57:231,3.4478,1.8118,8.6228,55.2163,0.0365,-0.3888,-0.6499,221.875
19:59:57:252,1.7,1.2312,8.3176,54.5401,0.094,0.2474,-0.7096,221.8125
19:59:57:280,0.6106,1.2276,6.5985,54.1677,0.2221,0.816,-0.5221,222.4062
19:59:57:292,0.4107,1.5868,4.9669,54.6905,0.3129,0.8983,-0.2696,223.1875
19:59:57:313,0.7734,2.1015,4.117,54.8132,0.3843,0.5553,-0.096,223.8594
19:59:57:331,1.2774,2.5816,3.7949,56.2373,0.4184,0.0655,-0.088,224.2188
19:59:57:354,1.5061,2.8509,3.9841,52.8925,0.3537,-0.3467,-0.2273,224.3125
19:59:57:377,1.3744,2.742,4.8244,56.0642,0.1641,-0.5563,-0.427,224.3281
19:59:57:394,0.6645,2.4918,6.3627,55.8535,-0.0727,-0.563,-0.5421,224.4531
19:59:57:412,-0.2716,2.6043,8.6061,55.4199,-0.1931,-0.4453,-0.4742,224.8438
19:59:57:433,-0.3734,2.8102,10.4161,56.5439,-0.0623,-0.3363,-0.2845,225.4375
19:59:57:461,0.115,3.1442,11.0146,55.9441,0.1785,-0.2783,-0.1309,226.1094
19:59:57:477,0.5711,3.5823,10.8818,54.8589,0.2922,-0.2064,-0.1106,226.5938
19:59:57:498,0.5496,3.7811,11.2577,54.2864,0.2394,-0.1457,-0.2118,226.8281
19:59:57:511,0.1294,3.5069,11.8023,55.9267,0.1385,-0.0205,-0.3253,227
19:59:57:530,-0.3842,3.0269,12.171,55.6943,0.032,0.1236,-0.3498,227.2188
19:59:57:552,-0.5697,2.6294,12.2357,57.2691,-0.0898,0.2789,-0.2987,227.5469
19:59:57:574,-0.6906,2.3864,12.2105,55.914,-0.2282,0.3625,-0.2337,227.9375
19:59:57:593,-0.7972,2.0824,12.1471,54.5215,-0.3688,0.33,-0.182,228.1094
19:59:57:612,-0.8343,1.5844,12.6056,56.8848,-0.4881,0.0978,-0.1144,228.4062
19:59:57:631,-1.2066,0.744,13.7752,55.347,-0.4767,-0.2373,-0.0246,228.625
19:59:57:652,-1.4819,-0.4747,14.9591,55.8103,-0.2471,-0.3981,0.1549,228.8281
19:59:57:674,-1.2808,-1.4539,14.6083,56.0516,0.1321,-0.164,0.4415,228.9844
19:59:57:696,-0.7074,-1.5688,12.4536,55.9956,0.3702,0.1998,0.7839,229
19:59:57:711,0.3233,-1.0624,10.1827,53.4371,0.3076,0.4077,1.0297,228.7031
19:59:57:732,1.1745,-0.3944,8.964,55.4204,0.0733,0.4312,1.0633,227.9688
19:59:57:758,1.2918,0.1227,8.6085,54.7209,-0.1068,0.3705,0.9831,226.8281
19:59:57:829,1.0943,0.4112,8.369,55.08,-0.1236,0.297,0.9339,225.6094
19:59:57:829,1.2236,0.8122,8.0183,53.8169,-0.0011,0.2456,0.9528,223.8438
19:59:57:830,2.1082,1.5269,7.9393,52.4705,0.2061,0.1811,0.9815,222.7656
19:59:57:848,3.8033,2.5756,8.6851,54.3503,0.4991,0.0679,0.8929,221.7188
19:59:57:861,4.7382,3.0388,8.5797,55.7794,0.9329,0.0032,0.5466,220.5625
19:59:57:876,3.4873,2.8329,6.8368,55.2026,1.2837,-0.1108,0.0968,219.4688
19:59:57:892,1.9658,2.499,5.0387,53.2728,1.2943,-0.176,-0.076,218.7812
19:59:57:914,1.3516,2.2895,4.1397,55.3211,0.9872,-0.0985,-0.0164,218.5312
19:59:57:941,1.7455,2.7743,5.1441,54.8306,0.1553,0.0024,0.1757,218.4062
19:59:57:952,1.6821,3.1167,6.8439,54.2309,-0.078,-0.1483,0.1365,218.2031
19:59:57:976,1.4235,3.1023,8.5785,53.6722,-0.0911,-0.347,0.0705,217.9844
19:59:57:993,0.8955,2.8114,10.3515,52.6873,0.0432,-0.5939,0.0721,217.8594
19:59:58:019,1.0907,2.5636,11.5665,54.5387,0.2876,-0.8,0.1975,217.8438
19:59:58:041,1.7431,2.1781,11.4887,52.3464,0.4235,-0.8831,0.2902,217.8281
19:59:58:055,2.0974,1.7196,11.381,55.4618,0.2493,-0.8093,0.3592,217.7656
19:59:58:080,2.5523,1.224,11.8227,52.5739,-0.09,-0.4463,0.5139,217.7656
19:59:58:095,3.4286,1.242,11.1834,52.5345,-0.3553,0.1324,0.6721,217.4062
19:59:58:113,4.2941,1.8142,9.4656,52.2069,-0.6748,0.4043,0.6122,216.5469
19:59:58:131,4.5994,2.3242,9.1196,53.0421,-1.1888,0.1787,0.2726,216.5469
19:59:58:150,4.0188,1.8801,11.8287,52.5724,-1.6352,-0.1728,-0.2028,215.8594
19:59:58:174,2.4362,0.6602,14.8286,54.3706,-1.5348,-0.0181,-0.5261,215.2188
19:59:58:194,1.3337,-0.1885,14.497,51.7184,-0.9084,0.4842,-0.4699,215.0938
19:59:58:210,1.6617,0.1035,10.8087,52.2081,-0.3044,0.7486,-0.1687,215.6094
19:59:58:230,2.6912,1.5437,7.9022,51.9511,-0.1518,0.4027,-0.0057,216.4219
19:59:58:252,3.3508,2.6654,7.579,52.0089,-0.2975,-0.2024,-0.2294,217.0781
19:59:58:277,2.8947,2.3649,8.1368,51.9182,-0.4434,-0.4197,-0.6561,217.2812
19:59:58:294,1.4354,1.7089,8.2876,51.9182,-0.5265,-0.1393,-0.925,217.2812
19:59:58:309,0.2934,1.4766,7.7609,52.6528,-0.506,0.2679,-0.9085,217.5938
19:59:58:334,-0.0083,1.6322,7.0666,51.9463,-0.3984,0.3968,-0.7365,220.0938
19:59:58:350,0.2874,1.9375,6.6404,51.5529,-0.2581,0.2421,-0.5724,220.625
19:59:58:371,0.7064,2.0548,6.6165,50.8461,-0.1718,-0.0397,-0.4928,221.5156
19:59:58:393,1.0811,1.8813,7.233,50.5893,-0.1553,-0.2682,-0.463,222.2031
19:59:58:411,1.0667,1.6718,8.4181,49.0787,-0.1244,-0.2671,-0.4393,222.4688
19:59:58:430,0.7112,1.7795,8.727,51.2193,-0.0293,0.0413,-0.3309,223.0312
19:59:58:450,0.9087,2.2823,8.217,51.1205,0.0333,0.2456,-0.165,223.5938
19:59:58:475,1.275,2.6498,8.4445,51.2193,-0.0053,0.0653,-0.0968,224.0625
19:59:58:493,1.0763,2.6953,10.0618,51.4145,-0.0306,-0.204,-0.1141,224.3125
19:59:58:511,0.6561,2.1709,11.9604,50.6303,0.1127,-0.1971,-0.0853,224.4375
19:59:58:531,0.4059,1.91,12.3937,50.9346,0.4037,0.0192,0.0697,224.5625
19:59:58:550,0.7603,2.0393,11.4899,51.48,0.6192,0.1902,0.2231,224.625
19:59:58:577,1.2259,2.3421,10.604,51.2665,0.6221,0.2743,0.2492,224.7188
19:59:58:591,1.8496,2.2966,9.9229,51.0038,0.4794,0.2916,0.1344,224.5781
19:59:58:611,2.295,2.0417,9.401,50.9401,0.2069,0.2381,-0.0893,224.2188
19:59:58:631,2.5487,1.8537,9.5255,51.3391,-0.2573,0.0461,-0.3817,223.8594
19:59:58:651,1.773,1.1905,11.8957,51.6332,-0.8685,-0.3076,-0.7205,223.6094
19:59:58:675,-0.1795,-0.2101,15.9587,52.5358,-1.1502,-0.2634,-0.867,223.8438
19:59:58:693,-1.4101,-1.8621,17.9183,50.1592,-0.7105,0.273,-0.6209,224.5312
19:59:58:710,-1.6531,-2.4415,14.3246,51.771,0.0501,0.9494,-0.0853,225.6719
19:59:58:731,-0.7182,-1.3868,9.6607,51.984,0.3571,1.0496,0.463,226.7188
19:59:58:753,1.0368,-0.252,7.251,52.2774,0.143,0.7092,0.6425,227.125
19:59:58:776,1.633,0.5345,7.0187,51.9358,-0.2682,0.3308,0.4529,226.7969
19:59:58:794,1.2427,0.6925,7.9537,51.1891,-0.5811,0.1233,0.2121,226.0312
19:59:58:812,0.5604,0.5609,8.6156,51.1223,-0.6559,0.1105,0.1006,225.3906
19:59:58:831,0.1234,0.6051,8.4888,51.891,-0.5571,0.1723,0.1442,225.0469
19:59:58:850,0.139,0.8482,7.8866,52.4804,-0.4202,0.224,0.2643,224.9531
19:59:58:875,0.5699,1.2468,7.2677,51.6249,-0.3228,0.236,0.3355,224.8906
19:59:58:894,0.868,1.5293,7.2366,51.9549,-0.2663,0.1659,0.2849,224.7031
19:59:58:915,0.7339,1.4551,7.5095,52.4299,-0.204,0.0884,0.1869,224.375
19:59:58:930,0.3628,1.1606,7.9441,50.6031,-0.0988,0.0314,0.1584,223.9062
19:59:58:951,0.2072,1.0002,8.2996,52.5038,0.0517,-0.0439,0.2369,223.7188
19:59:58:980,0.5843,1.1067,8.7437,52.9352,0.2104,-0.1561,0.3123,223.5469
19:59:58:997,1.0583,1.2456,9.2956,52.5718,0.3276,-0.2445,0.2758,223.2656
19:59:59:012,1.196,1.0756,10.0474,53.3411,0.3854,-0.2226,0.1477,223.1094
19:59:59:033,0.7687,0.7045,10.3766,52.3782,0.3539,0.04,0.0193,222.7344
19:59:59:050,0.2192,0.1885,10.6328,52.4989,0.1513,0.3361,-0.0238,222.4531
19:59:59:071,-0.0538,-0.3597,12.0681,54.3218,-0.1116,0.5148,0.0409,222.3281
19:59:59:094,0.4586,-0.6925,13.4711,52.1954,-0.2405,0.6437,0.1578,222.3125
19:59:59:114,0.8034,-0.7069,14.3139,52.1135,-0.2392,0.7119,0.2324,222.3125
19:59:59:130,1.1517,-0.7763,14.6945,53.0107,-0.1265,0.742,0.3642,222.2031
19:59:59:151,1.9634,-0.7811,13.9511,53.7072,0.0898,0.8203,0.5126,221.9844
19:59:59:179,2.3967,-0.246,11.9256,53.3854,0.2224,0.8445,0.496,221.6719
19:59:59:193,2.362,0.1419,10.5729,52.7153,0.0839,0.6512,0.2838,221.1562
19:59:59:211,1.7191,-0.1838,11.1774,54.1106,-0.1848,0.4173,-0.0204,220.2812
19:59:59:230,0.953,-1.1199,12.6367,54.4179,-0.2338,0.3537,-0.1839,219.9375
19:59:59:251,0.886,-1.637,12.6188,51.5544,0.0147,0.4884,-0.1604,219.9688
19:59:59:278,1.2631,-1.1809,10.7118,52.4369,0.3047,0.5963,-0.1263,220.1719
19:59:59:294,1.439,-0.3035,8.7473,51.8867,0.3947,0.5686,-0.2366,220.3438
19:59:59:311,0.9746,0.4411,7.5335,52.531,0.3135,0.538,-0.4606,220.4844
19:59:59:330,0.4047,0.7655,6.9517,52.9797,0.1955,0.5622,-0.6576,220.7344
19:59:59:350,-0.1603,0.926,6.5758,52.3808,0.1292,0.6006,-0.7879,221.2344
19:59:59:377,-0.6272,1.0469,6.2861,54.327,0.114,0.5888,-0.8315,221.9688
19:59:59:393,-0.8295,1.1391,6.2873,54.1159,0.1161,0.4938,-0.8225,222.8594
19:59:59:412,-1.1431,1.1594,6.82,52.5179,0.1313,0.4354,-0.7873,223.75
19:59:59:432,-1.4615,1.1989,7.4916,51.9743,0.3297,0.5923,-0.582,224.6719
19:59:59:452,-1.2006,1.6849,7.2426,52.7914,0.4277,0.6498,-0.4579,226.3438
19:59:59:476,-0.7062,2.1602,7.0905,51.5641,0.4645,0.5723,-0.414,226.6875
19:59:59:497,-0.462,2.4954,7.3324,52.1817,0.4259,0.3942,-0.4949,226.6875
19:59:59:510,-0.9133,2.4259,8.1117,52.2123,0.3422,0.2176,-0.6411,227.5156
19:59:59:530,-1.8075,1.886,9.2106,53.277,0.2733,0.2104,-0.7125,228.5469
19:59:59:549,-2.8837,1.5293,10.0007,53.6135,0.2437,0.4139,-0.6166,228.5469
19:59:59:570,-3.4152,1.5317,10.2485,52.708,0.277,0.6498,-0.3711,229.2812
19:59:59:593,-3.268,1.6323,9.7768,52.8499,0.3414,0.7172,-0.1088,230.1094
19:59:59:612,-2.7197,1.6897,9.3303,51.7956,0.3531,0.5388,0.1104,230.7812
19:59:59:629,-1.6651,1.8178,9.3028,51.9934,0.3183,0.2115,0.2329,231.1875
19:59:59:651,-0.5996,2.1207,9.6009,52.3898,0.1787,-0.0961,0.1496,231.2969
19:59:59:677,0.1486,2.3637,10.5179,52.3919,-0.1236,-0.3593,-0.1719,231.1875
19:59:59:697,-0.3782,1.752,12.3686,51.9197,-0.498,-0.5859,-0.6856,230.9375
19:59:59:713,-2.5772,0.1885,15.402,52.1273,-0.6549,-0.6373,-1.0427,230.7812
19:59:59:729,-4.0569,-2.0022,17.2204,50.7503,-0.298,-0.3153,-0.9272,231
19:59:59:749,-4.1862,-2.7228,14.6502,51.8244,0.2906,0.3335,-0.4052,231.75
19:59:59:769,-2.4815,-1.5065,10.6747,52.203,0.5558,0.5942,0.1461,233.5
19:59:59:793,-0.1004,-0.1945,8.7018,51.72,0.473,0.2546,0.2433,234.2969
19:59:59:811,0.7878,0.5333,8.4098,52.8585,0.2738,-0.1888,-0.0675,234.4062
19:59:59:885,0.3736,0.5932,8.8084,52.0701,0.0977,-0.3377,-0.4209,234.125
19:59:59:886,-0.3913,0.3478,8.7689,49.6993,-0.0085,-0.1342,-0.6342,234.0312
19:59:59:886,-1.2808,0.3693,8.2888,50.3965,-0.0626,0.1654,-0.6619,234.3438
19:59:59:889,-1.5585,0.7943,7.6089,50.2152,-0.0586,0.326,-0.5751,235
19:59:59:913,-1.3909,1.3246,6.9732,49.716,-0.0336,0.3063,-0.5181,235.7656
19:59:59:928,-1.0342,1.7244,6.6776,48.9324,-0.0277,0.1318,-0.5415,236.4219
19:59:59:950,-0.8355,1.7867,6.802,50.761,-0.0107,-0.0881,-0.6552,237.0156
19:59:59:975,-1.1491,1.6011,7.0606,51.6019,0.0322,-0.2735,-0.7666,237.5781
19:59:59:994,-1.3394,1.4276,7.5514,49.4323,0.0874,-0.3491,-0.7583,238.25
20:00:00:012,-1.1228,1.5269,8.0829,48.9409,0.1638,-0.3475,-0.6915,238.625
20:00:00:030,-0.8977,1.6442,8.6145,50.3333,0.241,-0.3052,-0.6539,239.5156
20:00:00:049,-0.8079,1.6993,9.0143,49.2879,0.3132,-0.2138,-0.6587,240.4062
20:00:00:069,-0.954,1.6011,9.3195,49.1245,0.3971,-0.139,-0.701,241.1875
20:00:00:097,-1.5633,1.3629,9.2298,48.9241,0.4767,-0.0455,-0.7109,242.375
20:00:00:110,-1.9057,1.1378,8.9544,50.0382,0.4879,0.0072,-0.6395,243.1875
20:00:00:145,-1.9236,1.066,9.0143,49.0283,0.4069,-0.0447,-0.5546,244.0156
20:00:00:150,-1.4532,1.0648,9.6308,48.9988,0.2906,-0.22,-0.5218,244.8281
20:00:00:171,-1.2916,0.6411,10.8722,47.6931,0.2085,-0.4743,-0.5786,245.5625
20:00:00:194,-1.4783,-0.064,11.9927,48.9608,0.2067,-0.4855,-0.5644,246.2031
20:00:00:210,-1.1623,-0.4579,11.9544,48.6102,0.2943,-0.2921,-0.4592,246.8438
20:00:00:232,-0.4153,-0.0832,10.4999,48.0449,0.3539,-0.2072,-0.4369,247.5625
20:00:00:250,0.9793,0.5644,9.2405,47.3514,0.1747,-0.3963,-0.6531,248.2031
20:00:00:276,2.5715,0.4807,9.9756,46.5232,-0.347,-0.9433,-1.2318,248.7031
20:00:00:294,1.354,-1.0828,14.6897,47.567,-0.9326,-1.3292,-1.9839,249.3281
20:00:00:310,-0.9779,-2.6737,18.882,47.5406,-0.7952,-0.7292,-2.2009,250.4062
20:00:00:329,-1.2485,-3.2352,16.2999,46.3781,0.032,0.2064,-1.773,252.2344
20:00:00:349,-0.2992,-1.6059,11.7975,47.3094,0.7034,0.5121,-1.1282,254.7656
20:00:00:371,1.7299,0.6782,8.9125,44.0748,0.9342,0.1715,-0.8811,258.0312
20:00:00:393,2.6649,1.8813,8.1153,45.491,0.9095,-0.3856,-1.2648,259.2656
20:00:00:411,2.1346,1.4168,7.9585,45.0472,0.8067,-0.6147,-1.7922,260.3125
20:00:00:430,1.0021,0.5824,7.4772,45.1345,0.6815,-0.4599,-2.0723,261.8438
20:00:00:451,0.145,0.4232,7.0499,44.4642,0.5316,-0.2144,-2.1003,262.8594
20:00:00:479,-0.1244,0.6159,7.1121,44.4641,0.3907,0.0061,-2.0231,265.0781
20:00:00:489,-0.0993,0.8422,7.2426,45.4921,0.3441,0.1225,-1.973,267.5625
20:00:00:510,-0.2704,1.0146,7.2653,43.641,0.3675,0.0709,-1.9788,269.9688
20:00:00:529,-0.4955,0.9798,7.4473,44.3619,0.4168,-0.1097,-1.9866,272.25
20:00:00:550,-0.8846,0.8194,7.6077,43.8653,0.4756,-0.2913,-1.9786,274.4062
20:00:00:578,-1.5861,0.847,7.7442,45.0549,0.5356,-0.4184,-1.8718,276.7031
20:00:00:596,-2.0194,0.8338,8.0075,43.8963,0.596,-0.5774,-1.6446,279.0312
20:00:00:615,-2.4444,0.9044,9.1125,44.7331,0.7023,-0.776,-1.3631,282.3125
20:00:00:636,-2.8502,0.5142,10.9452,42.5938,0.9031,-0.7811,-1.039,284.2969
20:00:00:648,-3.0992,0.5884,11.369,42.7993,1.1774,-0.4154,-0.6497,284.2969
20:00:00:669,-2.8909,1.4323,9.8295,44.3854,1.2687,0.0919,-0.304,287.2656
20:00:00:695,-2.3713,2.3577,8.4325,43.9995,1.0363,0.3409,-0.1921,288.1406
20:00:00:710,-2.2385,2.8629,7.9752,42.2856,0.6115,0.3707,-0.2536,288.5312
20:00:00:729,-1.9775,2.8162,8.4828,42.0609,0.1734,0.2461,-0.309,288.75
20:00:00:751,-1.7872,2.639,9.8535,41.2572,-0.134,-0.012,-0.3809,289
20:00:00:777,-2.0362,2.4403,11.46,40.9517,-0.2751,-0.1936,-0.4781,289.3281
20:00:00:795,-2.3426,1.746,12.4524,40.5032,-0.2559,-0.1688,-0.5194,289.7344
20:00:00:814,-2.7101,1.2408,12.5553,40.572,-0.1688,-0.1276,-0.4632,290.2969
20:00:00:830,-2.843,0.5968,12.869,40.572,0.1832,-0.1406,-0.2289,290.9062
20:00:00:850,-2.3486,0.6925,11.1092,39.0277,0.4163,-0.0184,-0.0989,290.9062
20:00:00:876,-1.7034,1.2372,9.3339,40.5609,0.3686,-0.0586,-0.071,291.4375
20:00:00:894,-1.0677,1.5281,9.0909,40.1931,0.1103,-0.2106,-0.2012,291.8594
20:00:00:910,-1.0797,1.2432,9.5255,39.464,-0.1233,-0.2722,-0.4065,292.2969
20:00:00:934,-1.6447,1.0002,9.5733,40.4493,-0.1963,-0.1933,-0.4853,292.4062
20:00:00:949,-2.0278,0.9798,8.8215,40.2655,-0.1206,-0.0237,-0.3934,292.6875
20:00:00:970,-2.6,1.0038,8.0051,39.095,0.0013,0.1281,-0.194,293.1875
20:00:01:005,-3.0082,0.7452,7.8543,38.4049,0.146,0.2307,0.1362,293.7344
20:00:01:009,-2.6634,0.677,7.2917,37.621,0.3273,0.3345,0.5602,294.1875
20:00:01:037,-2.0158,1.2564,6.2933,38.2474,0.4237,0.2288,0.8971,294.3906
20:00:01:048,-1.1527,2.1315,6.0347,37.6336,0.4131,-0.004,1.0604,294.2031
20:00:01:069,-0.3878,2.8449,5.9904,37.8359,0.3768,-0.1262,1.0236,293.5469
20:00:01:096,0.1067,3.3297,5.7522,37.5372,0.3209,-0.1126,0.8558,292.5156
20:00:01:116,0.3652,3.7823,5.4326,37.6241,0.1934,-0.1068,0.6244,291.3281
20:00:01:131,0.3257,4.1282,5.8228,37.1396,-0.0059,-0.1992,0.3746,290.25
20:00:01:150,-0.0609,4.3066,7.1025,37.691,-0.171,-0.3462,0.1709,289.3125
20:00:01:169,-0.3638,4.2336,8.885,35.8197,-0.2048,-0.4911,0.062,288.6406
20:00:01:192,-0.2645,4.2108,10.215,38.0025,-0.1182,-0.5566,0.0012,288.25
20:00:01:211,0.1222,4.0061,11.2792,35.4757,-0.0554,-0.5883,-0.1138,288.1094
20:00:01:229,0.0145,3.4279,12.201,36.2466,-0.0581,-0.5156,-0.2962,288.1875
20:00:01:252,-0.8929,2.3924,13.094,36.3776,-0.0927,-0.3417,-0.3873,288.3281
20:00:01:275,-1.5597,1.2959,13.6794,35.5824,-0.0442,-0.0767,-0.2265,288.6719
20:00:01:294,-1.4089,1.0253,12.9061,35.7234,0.1071,0.1633,0.0958,289.1875
20:00:01:313,-0.5015,1.4168,11.5761,35.1043,0.204,0.142,0.3368,289.6094
20:00:01:329,0.6358,1.9064,10.3766,35.0726,0.1241,-0.0879,0.3168,289.6719
20:00:01:349,1.53,2.0991,10.1455,34.8177,-0.1662,-0.4557,0.0561,289.3594
20:00:01:369,1.8496,1.7891,12.0178,34.7026,-0.4919,-0.8602,-0.3199,288.9531
20:00:01:395,1.2212,0.8697,14.4515,32.6157,-0.5196,-0.9201,-0.6744,288.7656
20:00:01:414,0.455,0.1957,14.6107,33.8416,-0.1798,-0.4647,-0.7932,289.0312
20:00:01:429,0.4538,0.161,11.8466,33.2812,0.1553,0.0597,-0.7242,289.7969
20:00:01:449,0.783,0.9332,9.1998,32.4914,0.1768,0.1811,-0.6797,290.7656
20:00:01:470,1.1649,1.5796,8.387,32.1858,0.0139,0.0501,-0.7804,291.25
20:00:01:493,1.1876,1.7017,8.3307,33.0777,-0.0786,-0.0402,-0.9796,292.0625
20:00:01:512,0.862,1.4838,7.8878,34.3875,-0.053,-0.0463,-1.1386,292.8125
20:00:01:531,0.2407,1.1893,7.2581,33.3436,-0.0085,0.0211,-1.178,294.1875
20:00:01:549,-0.5589,1.26,7.0151,32.4384,0.0325,0.082,-1.0675,295.4219
20:00:01:569,-0.8474,1.5712,6.9996,33.0397,0.119,0.0637,-0.8566,296.7812
20:00:01:594,-0.8175,1.9615,7.3395,34.2567,0.2179,-0.1158,-0.6779,298
20:00:01:611,-0.8714,2.2344,8.0662,33.9821,0.3127,-0.1861,-0.5386,299.0938
20:00:01:628,-0.9456,2.2476,8.5642,32.0984,0.4128,-0.0072,-0.4169,299.9688
20:00:01:650,-1.2293,2.6582,8.4169,33.1381,0.4868,0.314,-0.2907,300.6719
20:00:01:676,-1.0138,3.0556,7.7693,29.9867,0.4874,0.5356,-0.1998,301.25
20:00:01:694,-0.8498,3.483,7.5466,34.5515,0.3817,0.559,-0.2126,301.6562
20:00:01:710,-0.9827,3.7595,8.0698,33.1964,0.2839,0.4538,-0.251,301.8438
20:00:01:728,-1.373,3.9929,8.6528,33.2885,0.2661,0.2946,-0.2843,301.9531
20:00:01:749,-1.786,3.8684,9.2848,34.5492,0.2746,0.1143,-0.2696,302.125
20:00:01:768,-1.9081,3.562,10.0378,33.9759,0.2642,-0.0181,-0.1666,302.375
20:00:01:797,-1.8817,3.5548,10.8734,34.1092,0.2472,-0.0503,-0.015,302.6562
20:00:01:814,-1.4723,3.4985,11.3427,33.8777,0.3044,-0.0205,0.0944,303.0156
20:00:01:831,-1.1826,3.4698,10.7908,34.6354,0.3966,0.0003,0.0926,303.0469
20:00:01:848,-1.44,3.4483,9.6559,33.0183,0.3566,-0.0612,-0.0009,302.9688
20:00:01:869,-1.7501,3.0879,9.2693,35.0419,0.0946,-0.192,-0.1053,302.8906
20:00:01:898,-1.9679,2.2368,10.2712,35.4738,-0.2525,-0.3635,-0.178,302.9219
20:00:01:951,-2.6395,1.4874,12.1722,35.3383,-0.4362,-0.4724,-0.17,303.0938
20:00:01:951,-3.1052,1.0541,13.4603,35.9299,-0.2839,-0.4517,-0.0251,303.375
20:00:01:951,-2.6563,0.7847,12.4129,34.1229,0.0719,-0.315,0.1655,303.6562
20:00:01:971,-2.205,0.9152,10.1803,36.889,0.1944,-0.1702,0.3088,303.7656
20:00:01:993,-1.5525,1.0181,8.7665,36.7728,0.0674,-0.1252,0.3834,303.6562
20:00:02:010,-1.2796,1.1402,8.0913,36.8797,-0.1036,-0.1028,0.3738,303.5312
20:00:02:028,-1.2975,1.327,7.6652,38.0062,-0.2122,-0.0474,0.3959,303.1562
20:00:02:049,-1.0557,1.6083,7.3455,35.8055,-0.2189,-0.0226,0.4641,302.7344
20:00:02:069,-0.2585,2.0872,6.9253,38.5591,-0.1433,-0.0698,0.5062,302.3438
20:00:02:096,0.868,2.7719,6.7625,38.0647,-0.0258,-0.2272,0.4215,301.8594
20:00:02:114,0.9985,3.0496,6.2789,38.3028,0.0711,-0.4029,0.1501,301.2812
20:00:02:128,0.0947,2.7551,6.0574,38.8333,0.0605,-0.478,-0.0731,300.6094
20:00:02:149,-0.5529,2.4008,5.9102,38.8103,-0.0719,-0.3489,-0.0587,300.5312
20:00:02:169,-0.5075,2.7001,6.237,38.7459,-0.2852,-0.1886,0.0787,300.7188
20:00:02:196,0.0983,3.1286,7.2222,39.7966,-0.4767,-0.1529,0.1277,300.8594
20:00:02:213,0.212,3.3286,10.3096,39.8166,-0.469,-0.2378,-0.0824,300.8125
20:00:02:230,-0.2082,3.1885,11.2086,39.6005,-0.2317,-0.225,-0.121,300.8125
20:00:02:251,-0.377,3.2663,11.0936,41.0587,0.033,-0.2003,-0.0789,300.8281
20:00:02:279,-0.0981,3.3286,10.9967,41.5684,0.204,-0.2975,-0.0417,300.8281
20:00:02:295,0.5137,3.2783,11.0506,42.9419,0.3055,-0.3723,-0.068,301.1406
20:00:02:314,0.8584,3.1119,10.8303,41.8858,0.2828,-0.3308,-0.1974,301.1406
20:00:02:329,0.9386,2.639,10.8854,41.1813,0.1217,-0.2051,-0.3452,301.25
20:00:02:353,1.0201,2.0081,10.8997,43.1634,-0.0833,-0.0162,-0.4814,301.6875
20:00:02:367,0.8836,1.5592,10.4376,41.8493,-0.3441,0.2269,-0.6188,301.6875
20:00:02:389,0.6238,1.0529,10.2485,42.6294,-0.702,0.2906,-0.7634,302.1094
20:00:02:416,-0.0921,0.2795,11.6766,42.257,-1,0.0448,-0.847,302.9844
20:00:02:429,-0.9648,-0.4208,14.1786,44.1597,-0.9236,-0.2205,-0.7208,303.7188
20:00:02:448,-1.1276,-0.7895,15.1602,44.1059,-0.3691,-0.3225,-0.3948,304.5781
20:00:02:468,-0.0729,-0.7284,13.27,44.7798,0.2858,-0.3132,-0.0225,305.0625
20:00:02:489,1.4845,-0.0233,10.6986,45.0449,0.6064,-0.3739,0.1754,305.9219
20:00:02:510,2.526,0.6937,9.1544,44.22,0.5808,-0.4652,0.0532,306.4375
20:00:02:529,2.2686,1.151,8.4983,44.4595,0.3872,-0.3766,-0.2446,306.375
20:00:02:548,1.3481,1.169,8.0339,44.4219,0.2437,-0.1129,-0.4534,306.375
20:00:02:568,0.5161,1.1881,7.0403,45.1125,0.2421,0.0797,-0.5053,306.3906
20:00:02:594,-0.0681,1.4491,5.8216,44.0652,0.2844,0.1049,-0.4369,306.7188
20:00:02:611,-0.1112,1.8765,4.9489,44.4668,0.277,-0.0192,-0.3096,307.25
20:00:02:628,0.3748,2.4583,4.6964,45.6694,0.1923,-0.2056,-0.2318,308.0625
20:00:02:648,0.8381,3.0161,5.3392,46.2298,0.0698,-0.3947,-0.2835,308.4531
20:00:02:668,1.1505,3.1933,6.3926,46.2298,-0.0053,-0.5246,-0.4259,308.7656
20:00:02:692,1.0356,3.1238,7.2988,45.2782,-0.0221,-0.5446,-0.5876,309.1094
20:00:02:714,0.6633,2.9742,8.15,45.6585,-0.0149,-0.4221,-0.6683,309.5781
20:00:02:728,0.4287,2.8605,8.6121,45.9269,0.016,-0.1981,-0.6686,310.2812
20:00:02:748,0.2623,2.9,8.6133,46.3565,0.0282,0.0386,-0.6275,311.125
20:00:02:770,0.3078,2.991,8.5175,46.5211,-0.0152,0.184,-0.5743,311.9688
20:00:02:794,0.1246,3.119,8.5726,48.0312,-0.1209,0.2304,-0.5509,312.6875
20:00:02:814,-0.4704,2.8605,9.2884,47.6909,-0.2471,0.2085,-0.4923,313.3438
20:00:02:829,-1.4029,2.7791,10.3503,47.8668,-0.3063,0.1907,-0.317,313.9375
20:00:02:849,-1.8769,2.9323,11.6635,47.542,-0.2541,0.0797,-0.076,314.4688
20:00:02:868,-1.6327,2.9886,12.7157,48.079,-0.0988,-0.0138,0.1059,314.9062
20:00:02:895,-0.8881,2.7288,12.6631,48.6971,0.0546,0.0192,0.1932,315.0469
20:00:02:912,-0.3064,2.6199,11.9711,48.8037,0.0256,0.0184,0.1554,315.1094
20:00:02:929,-0.3411,2.2667,12.2094,47.1806,-0.2024,-0.1683,-0.0233,314.8906
20:00:02:949,-1.1695,1.0648,13.4531,49.0708,-0.3542,-0.2818,-0.1578,314.6719
20:00:02:969,-2.1391,0.2628,13.9487,49.0986,-0.2146,-0.183,-0.0273,314.5938
20:00:02:988,-2.1487,0.1215,12.6415,49.5849,0.0741,-0.0652,0.2862,314.7812
20:00:03:011,-1.3287,0.6889,10.7022,48.6027,0.1736,-0.0189,0.5459,314.9688
20:00:03:029,-0.3806,1.2193,9.9313,49.8492,0.0498,-0.0732,0.5959,314.8594
20:00:03:048,-0.0705,1.3402,9.9696,49.4994,-0.0855,-0.0836,0.4907,314.3906
20:00:03:069,-0.3339,1.3031,9.863,48.0969,-0.1254,0.0072,0.4084,313.7031
20:00:03:096,-0.5278,1.3521,9.2262,48.844,-0.0786,0.1057,0.4284,313.0938
20:00:03:111,-0.3854,1.4802,8.4169,49.8491,0,0.1089,0.4923,312.625
20:00:03:128,0.0001,1.6442,7.6687,49.5834,0.0511,0.0706,0.5544,312.1406
20:00:03:148,0.3377,1.9004,7.2426,49.0487,0.0788,0.0344,0.5895,311.6094
20:00:03:171,0.5879,2.0333,6.996,48.8151,0.1297,-0.0338,0.5986,310.9844
20:00:03:196,0.7663,2.1793,6.8918,49.6898,0.1918,-0.1156,0.5901,310.3438
20:00:03:210,1.0811,2.3781,6.7709,50.8731,0.2293,-0.1853,0.5642,309.6562
20:00:03:229,1.5384,2.6139,6.8033,50.0858,0.2322,-0.2333,0.4926,308.6875
20:00:03:248,1.882,2.7946,6.9864,50.7678,0.1995,-0.2549,0.349,308.0781
20:00:03:269,1.9119,2.8868,7.3467,48.9959,0.1265,-0.2551,0.1592,307.5469
20:00:03:296,1.5384,2.7563,7.9752,50.2905,0.0128,-0.2288,-0.0084,307.1875
20:00:03:312,1.123,2.7731,9.0706,49.8886,-0.078,-0.1755,-0.0824,307.0781
20:00:03:329,1.1074,2.6235,10.2976,50.7539,-0.0743,-0.1012,-0.121,307.125
20:00:03:354,1.0943,2.3218,11.0948,49.3852,0.0011,-0.0333,-0.1522,307.25
20:00:03:378,1.3636,1.9878,11.272,50.1477,0.0839,-0.0178,-0.1732,307.4062
20:00:03:395,1.4115,1.6514,11.2313,50.1741,0.101,-0.0628,-0.2121,307.5938
20:00:03:412,1.3038,1.3509,11.2529,50.2951,0.0613,-0.1169,-0.1967,307.6875
20:00:03:428,1.4139,1.157,11.3295,49.451,-0.0064,-0.1278,-0.1216,307.9062
20:00:03:448,1.7479,1.345,11.2457,48.858,-0.0943,-0.1553,-0.0808,308.1562
20:00:03:468,2.4578,1.1905,11.4205,49.416,-0.2719,-0.319,-0.1879,308.3594
20:00:03:488,2.6505,0.3765,12.8737,49.6984,-0.4594,-0.5529,-0.3831,308.5
20:00:03:511,1.961,-0.2448,14.315,48.6311,-0.4527,-0.4724,-0.4494,308.6719
20:00:03:533,1.4235,-0.5716,14.1475,48.824,-0.2226,-0.0839,-0.317,309.4219
20:00:03:547,1.7287,-0.3394,12.1268,48.1514,0.0479,0.2927,-0.0784,310.0625
20:00:03:569,2.6409,0.5992,10.0941,49.1965,0.1822,0.3598,0.0636,310.4375
20:00:03:598,3.091,1.6322,8.6623,47.6736,0.2432,0.2341,-0.0374,310.4688
20:00:03:613,2.1537,2.305,6.5411,48.6019,0.2336,0.1108,-0.2904,310.3125
20:00:03:630,1.4881,2.1733,6.0455,47.2692,0.1249,0.0964,-0.5277,310.2969
20:00:03:650,0.7734,2.0584,5.7067,46.7673,-0.1055,0.2594,-0.7663,310.5938
20:00:03:670,0.2371,2.0417,5.5223,48.9658,-0.1385,0.2405,-0.7578,310.5938
20:00:03:696,-0.1507,2.2272,5.587,46.9155,-0.1411,0.1643,-0.6912,311.9219
20:00:03:712,-0.3004,2.4642,5.8061,47.1559,-0.1369,0.0807,-0.6174,312.7188
20:00:03:730,-0.2633,2.5325,6.2011,47.8533,-0.1606,-0.0226,-0.5716,313.5312
20:00:03:746,-0.5996,2.5863,6.9948,47.7756,-0.2338,-0.0855,-0.5445,314.2969
20:00:03:766,-0.9983,2.6031,8.0973,46.7654,-0.2967,-0.0189,-0.4598,314.9688
20:00:03:788,-0.9252,2.7587,9.0897,47.3929,-0.2756,0.089,-0.3271,315.625
20:00:03:813,-0.541,2.9024,9.7194,47.7821,-0.1832,0.1606,-0.2457,316.2656
20:00:03:830,-0.3087,3.0257,10.0917,47.5146,-0.0865,0.2147,-0.2137,316.8125
20:00:03:847,-0.1687,3.1179,10.2485,47.2971,-0.0133,0.274,-0.1983,317.1562
20:00:03:868,-0.14,3.1538,10.2605,47.2918,0.0141,0.2693,-0.2153,317.4062
20:00:03:887,-0.3662,2.8641,10.7202,46.6135,-0.016,0.2442,-0.2236,317.6094
20:00:03:915,-0.3447,2.3014,11.5246,46.6811,0.0155,0.2091,-0.1242,317.7812
20:00:03:929,-0.019,2.1709,11.8059,46.3573,0.1534,0.1292,0.0124,317.9688
20:00:03:947,0.4311,2.3888,11.4827,46.3874,0.257,-0.008,0.0574,318.2812
20:00:04:018,0.947,2.4427,11.0565,45.5859,0.1611,-0.0474,-0.0579,318.25
20:00:04:019,1.1003,2.1027,11.1032,46.0981,-0.1947,-0.0394,-0.3317,318.2031
20:00:04:019,0.2647,1.4192,13.088,45.9788,-0.6061,-0.0988,-0.6257,318.1875
20:00:04:033,-0.9779,0.319,15.6175,47.0641,-0.6591,0.0903,-0.7604,318.3906
20:00:04:052,-1.5226,-0.659,15.3936,46.0855,-0.3529,0.6341,-0.6497,318.9688
20:00:04:066,-1.2281,-0.4878,12.3985,46.9284,-0.1544,1.2339,-0.4193,319.7969
20:00:04:088,-0.517,0.1012,9.6691,46.2035,-0.2546,1.4472,-0.3002,320.5625
20:00:04:115,-0.28,0.5034,8.1727,45.2176,-0.4362,1.2357,-0.3748,320.9844
20:00:04:133,-0.8259,0.6123,7.5742,45.8744,-0.5159,0.7606,-0.4939,321.125
20:00:04:148,-1.6938,0.3765,7.4461,43.6857,-0.4618,0.2211,-0.496,321.25
20:00:04:170,-2.4384,0.0497,7.5203,46.9665,-0.3233,-0.1523,-0.2949,321.3594
20:00:04:196,-2.7257,-0.0688,7.4904,45.7394,-0.1499,-0.2687,0.0822,321.7812
20:00:04:214,-2.2277,0.1119,7.1504,45.5662,0.0077,-0.2125,0.5141,322.2812
20:00:04:230,-1.1491,0.5908,6.6033,44.9707,0.0802,-0.1358,0.8236,322.6094
20:00:04:247,-0.1148,1.1079,6.4848,47.0102,0.0277,-0.073,0.9165,322.5469
20:00:04:269,0.4933,1.3198,6.8116,44.6368,-0.0559,-0.0082,0.8473,321.5469
20:00:04:294,0.5867,1.3438,7.1672,45.6722,-0.1076,0.0322,0.7046,320.5469
20:00:04:310,0.5029,1.2408,7.5598,45.0668,-0.188,0.0653,0.5461,319.5781
20:00:04:328,-0.2058,1.072,8.2912,44.42,-0.4016,0.2871,0.4199,318.6719
20:00:04:347,-0.9564,1.1307,9.6667,43.9329,-0.5558,0.5675,0.4462,317.9375
20:00:04:369,-1.1072,1.248,11.0398,45.1641,-0.3971,0.5958,0.519,317.4062
20:00:04:394,-0.8846,1.4455,11.2636,45.4021,-0.0389,0.3574,0.5096,316.8281
20:00:04:413,-0.6906,1.4695,11.047,44.8023,0.2168,-0.032,0.3815,316.1562
20:00:04:429,-0.9241,1.0337,11.108,43.4436,0.2618,-0.3073,0.1924,315.5
20:00:04:450,-1.3299,0.416,11.6359,44.6615,0.1124,-0.2439,0.0926,314.9688
20:00:04:467,-1.3119,-0.07,12.2465,44.7584,-0.0647,0.0322,0.1424,314.6875
20:00:04:487,-0.6056,-0.0257,11.9951,44.1777,-0.1579,0.1995,0.2207,314.5938
20:00:04:511,0.3868,0.1873,11.4205,43.8881,-0.2634,0.04,0.1347,314.5
20:00:04:527,0.3377,0.1143,11.5809,44.1265,-0.5095,-0.372,-0.1711,314.25
20:00:04:554,-0.7768,-0.8182,13.9128,42.881,-0.7646,-0.6527,-0.4052,313.9219
20:00:04:566,-1.5166,-2.0249,16.4483,43.5771,-0.669,-0.4138,-0.2811,314.1406
20:00:04:587,-0.7433,-2.4092,16.2029,44.5774,-0.1302,0.1297,0.1629,314.6406
20:00:04:615,1.4737,-1.7531,13.2568,44.0718,0.4496,0.543,0.6116,314.9844
20:00:04:629,3.5052,-0.5213,9.778,43.0397,0.7675,0.5702,0.6391,314.7656
20:00:04:647,3.7901,0.732,7.3958,41.9339,0.7468,0.2645,0.2153,314.0312
20:00:04:668,2.939,1.1606,6.5255,41.7996,0.514,-0.0056,-0.3186,313.6094
20:00:04:694,1.5085,0.9607,6.413,43.1414,0.2751,-0.0383,-0.6739,313.0781
20:00:04:709,0.4957,0.8194,6.425,42.8935,0.1539,0.0088,-0.765,313.1719
20:00:04:727,0.0013,0.8482,6.6333,41.9966,0.1643,0.0016,-0.7074,313.8125
20:00:04:750,-0.1615,1.0648,6.583,42.0956,0.2645,-0.0623,-0.6124,314.6875
20:00:04:766,-0.122,1.3952,6.4489,41.1974,0.3742,-0.163,-0.5517,315.5
20:00:04:788,-0.0071,1.5916,6.2047,39.1789,0.4221,-0.1944,-0.5652,316.2812
20:00:04:811,-0.3423,1.7388,6.1508,41.9389,0.3286,-0.1324,-0.6366,316.9688
20:00:04:828,-0.8762,1.7053,6.7218,40.954,0.1574,-0.0149,-0.68,317.9844
20:00:04:846,-1.3682,1.6478,7.2929,41.3215,0.0394,0.155,-0.6694,318.7656
20:00:04:866,-1.9224,1.7819,7.6759,41.3215,-0.0514,0.2764,-0.6041,319.5469
20:00:04:887,-2.1666,2.0931,8.3427,40.1031,-0.1134,0.3313,-0.5027,320.2656
20:00:04:911,-2.1487,2.2895,8.9341,40.7344,-0.0809,0.3135,-0.431,320.9062
20:00:04:928,-2.1212,2.3589,9.1735,40.1814,-0.0016,0.2504,-0.4081,321.4219
20:00:04:950,-2.2361,2.3625,9.1101,39.6459,0.0282,0.2101,-0.4121,321.8594
20:00:04:968,-2.3989,2.3062,9.1149,38.7386,-0.0413,0.1745,-0.4313,322.2656
20:00:04:988,-2.448,2.0381,9.4764,39.8006,-0.1856,0.0988,-0.4704,322.7031
20:00:05:018,-2.0014,0.9559,10.6998,38.7351,-0.502,-0.0788,-0.5538,323.1719
20:00:05:031,-1.6447,0.5333,11.0901,38.6822,-0.7052,-0.1041,-0.6134,323.1719
20:00:05:047,-1.7189,0.0389,11.9304,37.5601,-0.9603,-0.22,-0.7706,323.6562
20:00:05:069,-2.5042,-0.835,13.6854,38.4161,-1.1603,-0.2724,-0.9461,324.2031
20:00:05:095,-3.1327,-1.8621,14.9112,38.2276,-1.1721,0.0964,-0.9959,325.4062
20:00:05:114,-3.9647,-2.5444,14.2025,40.261,-1.0807,0.8653,-0.9032,325.7656
20:00:05:129,-4.5177,-2.8018,12.1591,40.1284,-0.9931,1.506,-0.6126,327.1875
20:00:05:148,-4.4028,-2.6522,10.3574,38.3331,-0.8874,1.51,-0.267,328.2031
20:00:05:166,-4.167,-2.329,9.5446,40.6078,-0.6709,0.938,0.0273,329
20:00:05:187,-3.687,-2.0668,9.043,38.4222,-0.3366,0.2277,0.2652,329.4844
20:00:05:211,-3.2596,-1.6969,8.3044,38.6127,-0.045,-0.2525,0.4489,329.5938
20:00:05:228,-2.9112,-1.236,7.3826,38.6129,0.0914,-0.4141,0.5863,329.4219
20:00:05:246,-2.5461,-1.0301,6.5291,39.2422,0.0938,-0.3712,0.6702,329.0625
20:00:05:267,-2.4767,-0.8853,5.7294,37.1808,-0.0077,-0.2386,0.7379,328.5469
20:00:05:287,-2.4384,-0.6805,5.3488,38.2951,-0.1806,-0.1078,0.8561,327.9375
20:00:05:317,-2.0721,-0.4124,5.5379,37.9604,-0.3363,-0.0573,0.9949,327.2031
20:00:05:332,-1.5322,-0.0353,5.9665,38.6344,-0.3803,-0.1156,1.0777,326.3594
20:00:05:346,-0.93,0.325,6.4321,39.4355,-0.3454,-0.2668,1.0535,325.3594
20:00:05:366,-0.7193,0.5405,7.0283,39.4284,-0.2852,-0.4447,0.9357,322.9531
20:00:05:387,-0.7864,0.6853,7.6245,38.0488,-0.2136,-0.6277,0.7911,322.3125
20:00:05:411,-1.2114,0.7404,8.4828,38.1011,-0.1984,-0.7795,0.638,321.125
20:00:05:430,-1.9871,0.6782,9.8989,39.2986,-0.2032,-0.7521,0.5594,320.1875
20:00:05:446,-1.9296,0.6231,11.0661,37.8815,-0.1132,-0.6266,0.5459,319.375
20:00:05:466,-1.5406,0.6004,11.4564,38.8555,0.0152,-0.5467,0.4457,318.7031
20:00:05:489,-1.2497,0.3837,11.6814,39.8378,0.0485,-0.5438,0.2545,318.1094
20:00:05:508,-1.2748,-0.3478,12.371,38.9823,-0.0184,-0.53,0.0241,317.5469
20:00:05:526,-1.7429,-1.2492,13.0892,38.0964,-0.1033,-0.4322,-0.0979,317.1562
20:00:05:555,-1.7608,-2.1566,13.5812,38.1056,-0.1246,-0.2708,-0.0323,317.1094
20:00:05:566,-1.1982,-2.5576,13.3215,38.9508,-0.0551,-0.0879,0.1109,317.1094
20:00:05:587,-0.3698,-2.3888,12.1411,38.0631,-0.0024,0.0205,0.1549,317.2188
20:00:05:612,-0.116,-2.1458,11.1786,38.3329,-0.127,-0.0596,-0.0065,317.2188
20:00:05:631,-0.5901,-2.5001,12.3051,38.1764,-0.3505,-0.2093,-0.2275,317.0938
20:00:05:650,-1.1886,-2.9395,13.7608,40.9646,-0.3262,-0.0586,-0.2494,316.9219
20:00:05:667,-0.632,-3.0364,13.112,39.3327,-0.009,0.2,-0.0563,317.0156
20:00:05:688,0.8728,-2.7479,11.1619,42.5669,0.285,0.2914,0.1275,317.2969
20:00:05:711,2.1836,-2.2356,9.3435,38.4577,0.3329,0.1795,0.071,317.4688
20:00:05:729,1.9107,-1.5676,8.8443,38.6577,0.1947,0.0293,-0.235,317.4062
20:00:05:747,0.5388,-1.3401,9.0849,38.9768,0.1214,-0.0034,-0.5104,317.2812
20:00:05:767,-0.7038,-1.4611,8.4169,39.658,0.1848,0.1436,-0.5618,317.375
20:00:05:787,-1.6232,-1.2444,7.494,41.609,0.2487,0.2653,-0.3737,317.8281
20:00:05:812,-1.6303,-0.817,6.7458,41.0242,0.29,0.2594,-0.0717,318.4844
20:00:05:830,-1.0569,-0.1814,6.6309,39.487,0.3377,0.1569,0.1597,319.0312
20:00:05:848,-0.3291,0.3513,6.668,40.2258,0.4131,0.0799,0.2457,319.2969
20:00:05:866,0.2312,0.7356,6.6285,41.6645,0.4871,0.0698,0.1887,319.25
20:00:05:888,0.3916,0.9188,6.3878,41.4021,0.5132,0.1169,0.0255,319.0469
20:00:05:909,-0.0047,0.9415,6.2202,42.0707,0.4567,0.1947,-0.1724,318.8125
20:00:05:932,-0.7948,1.1726,6.3328,41.6508,0.3955,0.261,-0.2962,318.7188
20:00:05:946,-1.6411,1.5724,6.0946,41.1911,0.3635,0.2727,-0.3471,318.8438
20:00:05:971,-2.2528,1.8046,5.8408,42.2256,0.2634,0.1414,-0.3586,319.3125
20:00:05:996,-2.029,1.6754,6.4333,41.4662,0.0325,-0.0458,-0.3724,319.7344
20:00:06:013,-2.3857,1.4156,8.7545,41.0349,-0.2375,-0.1723,-0.4547,320.1406
20:00:06:033,-3.1243,0.7919,11.7018,41.4706,-0.2637,-0.1273,-0.5088,320.5625
20:00:06:088,-3.5385,-0.2975,13.3789,42.662,0.004,-0.0029,-0.4651,321.0781
20:00:06:088,-3.6642,-0.9715,13.2245,42.4404,0.3191,0.155,-0.3271,321.6406
20:00:06:105,-3.3422,-1.1893,12.207,42.2689,0.3936,0.3353,-0.1692,322.1562
20:00:06:106,-2.849,-1.2109,11.4396,41.2895,0.1867,0.5596,-0.0811,322.3594
20:00:06:131,-2.5689,-1.2073,11.1786,42.8838,-0.1241,0.7926,-0.0696,322.6719
20:00:06:147,-2.7927,-1.4682,11.1032,43.2785,-0.3848,0.8738,-0.1242,322.8125
20:00:06:166,-3.7133,-1.8465,11.5952,43.4699,-0.5292,0.7215,-0.1474,322.8281
20:00:06:186,-4.4651,-2.3601,12.5218,43.6814,-0.4312,0.5332,-0.0281,322.8281
20:00:06:213,-4.2831,-2.7731,12.0801,44.788,-0.1049,0.449,0.2193,322.875
20:00:06:228,-3.4775,-2.5564,10.0175,44.2973,0.1446,0.2882,0.4564,322.8906
20:00:06:247,-2.7676,-1.886,8.1572,44.9942,0.061,-0.0642,0.5126,322.5312
20:00:06:266,-2.5892,-1.5616,8.3966,44.2156,-0.2927,-0.4434,0.4281,322.0156
20:00:06:287,-2.6311,-1.4838,9.9097,45.6598,-0.5217,-0.4546,0.4209,321.4688
20:00:06:313,-2.758,-1.2336,10.1324,44.1544,-0.4325,-0.2423,0.515,320.9688
20:00:06:329,-2.6227,-0.8146,9.0981,44.8747,-0.2117,-0.1414,0.6907,320.4375
20:00:06:347,-2.1283,-0.264,8.1608,44.6633,-0.0306,-0.2205,0.8644,319.8438
20:00:06:366,-1.343,0.3083,7.804,46.6999,0.1223,-0.392,0.972,319.0312
20:00:06:386,-0.5877,1.0756,8.0123,45.2699,0.2786,-0.5555,0.981,318.0312
20:00:06:413,0.1102,1.8848,7.7442,45.8772,0.5755,-0.5947,0.72,317.0156
20:00:06:430,0.1174,1.8106,7.4221,42.6665,0.5809,-0.4237,0.5525,317.0156
20:00:06:446,0.127,1.8238,7.1731,45.2256,0.5119,-0.2338,0.4044,315.0469
20:00:06:470,-0.1567,1.9662,7.4269,44.6106,0.4261,-0.1939,0.2324,314.3281
20:00:06:496,-0.3889,1.8501,8.132,46.0511,0.4059,-0.3118,0.0508,313.4219
20:00:06:514,-0.9312,1.6322,8.8706,45.8595,0.4394,-0.4157,-0.117,313.2188
20:00:06:532,-1.288,1.3689,9.2908,44.9369,0.4695,-0.4706,-0.2129,313.2031
20:00:06:548,-1.4568,0.9762,9.875,46.6568,0.4434,-0.5406,-0.2678,313.2344
20:00:06:567,-1.2569,0.4232,10.6112,46.9226,0.3801,-0.5787,-0.2984,313.4531
20:00:06:586,-1.2988,-0.0748,11.3666,46.9466,0.274,-0.5092,-0.3288,313.7812
20:00:06:613,-1.5477,-0.6877,12.2908,46.0812,0.1542,-0.2621,-0.2867,314.1719
20:00:06:633,-1.4412,-1.2145,12.3566,45.6803,0.1233,0.1257,-0.1458,314.6094
20:00:06:651,-0.9348,-1.3102,11.3031,47.1882,0.1249,0.3614,0.0191,315.0625
20:00:06:666,-0.1388,-1.236,10.0079,46.839,0.049,0.2221,0.0598,315.4375
20:00:06:686,0.1641,-1.3138,10.2581,47.1505,-0.1862,-0.2319,-0.0598,315.5781
20:00:06:712,0.0097,-2.0381,12.4859,47.9014,-0.339,-0.4714,-0.1554,315.5156
20:00:06:730,0.1797,-2.7515,13.3011,47.6656,-0.2021,-0.1915,-0.0662,315.4219
20:00:06:745,0.9985,-2.4283,11.8909,47.2615,0.0501,0.2221,0.1616,315.5
20:00:06:766,2.4602,-1.2504,9.4177,46.839,0.1294,0.3777,0.2103,315.7188
20:00:06:786,2.6421,-0.0976,8.0099,48.748,-0.0884,0.2437,-0.1261,315.8125
20:00:06:813,1.6306,0.2999,8.369,47.702,-0.3941,0.1132,-0.5381,315.4531
20:00:06:830,0.3604,0.161,9.2549,47.0929,-0.4799,0.1891,-0.7407,315.3281
20:00:06:849,-0.4237,0.489,9.3722,48.8823,-0.2945,0.3262,-0.6968,315.6875
20:00:06:871,-0.5087,1.0086,8.879,47.2742,0.0429,0.3348,-0.5644,316.375
20:00:06:885,-0.0885,1.4898,8.0004,48.6521,0.3886,0.175,-0.4702,317.1562
20:00:06:907,0.4574,1.9938,7.3527,48.965,0.6181,-0.0311,-0.4622,317.8281
20:00:06:931,0.5795,2.4523,6.7494,48.6785,0.7199,-0.1816,-0.5817,318.4062
20:00:06:953,0.2515,2.5923,6.4633,49.1153,0.6975,-0.2658,-0.7509,318.9219
20:00:06:966,-0.0262,2.4271,6.5806,49.0658,0.5934,-0.2663,-0.868,319.5938
20:00:06:986,-0.5194,2.3493,7.1289,48.4352,0.4487,-0.2317,-0.9511,320.4375
20:00:07:016,-1.2521,2.2081,7.9967,48.9086,0.3529,-0.1401,-0.9612,321.4219
20:00:07:030,-1.7632,2.007,8.7557,48.6166,0.3657,-0.0461,-0.8955,322.5469
20:00:07:046,-2.2971,2.0764,8.8778,48.6166,0.4336,0.1324,-0.7852,323.7188
20:00:07:066,-2.5976,2.1781,8.3894,49.3896,0.4306,0.2943,-0.6707,324.7812
20:00:07:087,-2.8933,2.1997,8.1141,50.2124,0.3156,0.3617,-0.5863,325.2969
20:00:07:113,-3.3877,2.1159,8.3667,49.3844,0.1313,0.3284,-0.5194,326.2188
20:00:07:130,-3.4846,1.7999,9.4429,49.3844,-0.029,0.1406,-0.4451,327.3125
20:00:07:147,-2.8753,1.4359,10.8506,50.9388,-0.1012,-0.0218,-0.4108,327.8906
20:00:07:171,-2.9005,1.4263,11.4743,50.8871,-0.1683,-0.0439,-0.4821,328.4062
20:00:07:185,-3.59,1.4539,11.9304,50.0082,-0.3095,-0.0618,-0.5517,328.8594
20:00:07:207,-4.2927,1.2085,12.851,52.0108,-0.4155,-0.2612,-0.508,329.3438
20:00:07:230,-4.5201,0.6578,14.5233,51.7996,-0.2993,-0.7049,-0.3168,329.9219
20:00:07:249,-3.8821,-0.0281,15.9072,50.4262,0.0418,-0.9547,-0.0763,330.5156
20:00:07:265,-2.8753,-0.5213,15.5205,48.7329,0.3867,-0.6764,0.1147,331.0156
20:00:07:286,-1.8877,-0.3765,13.3693,52.1526,0.5127,-0.1459,0.2026,331.3281
20:00:07:319,-1.0342,-0.1826,11.4983,50.2973,0.3595,0.1417,0.1272,331.4375
20:00:07:330,-1.0533,-0.3298,10.7908,51.812,0.1116,0.2336,-0.0054,331.3281
20:00:07:352,-1.4196,-0.3693,10.5633,51.556,-0.013,0.3049,0.0012,331.1719
20:00:07:367,-1.7441,-0.1478,9.9708,52.9043,0.0695,0.3353,0.1213,331.1094
20:00:07:386,-1.9404,0.0281,9.0143,52.0956,0.2988,0.3018,0.3291,331.0938
20:00:07:419,-1.7022,0.1706,7.6376,49.9874,0.579,0.2362,0.5813,330.875
20:00:07:425,-1.197,0.4507,6.0646,50.6121,0.7827,0.1244,0.8052,330.4844
20:00:07:449,-0.5697,0.8793,4.9166,50.4643,0.8434,-0.0527,0.9408,329.8438
20:00:07:466,0.1078,1.242,4.263,51.8526,0.7867,-0.2375,0.9498,329.0156
20:00:07:490,0.5891,1.5114,4.0691,49.8576,0.6227,-0.4082,0.8415,328.0312
20:00:07:514,0.7914,1.7232,4.4569,49.4251,0.3734,-0.4583,0.659,327.0625
20:00:07:531,0.7196,1.8094,5.1752,51.9951,0.122,-0.3768,0.4508,326.25
20:00:07:549,0.4335,1.7328,5.8276,51.0754,-0.0852,-0.302,0.2604,325.6562
20:00:07:568,-0.1435,1.8789,6.6608,51.268,-0.2751,-0.2634,0.1211,325.4062
20:00:07:586,-0.4572,1.9603,7.9237,52.5002,-0.4,-0.2367,0.0327,325.0781
20:00:07:614,-0.3794,1.6406,9.049,49.4639,-0.4056,-0.2306,-0.0531,324.9219
20:00:07:631,-0.3913,1.3653,9.6499,49.7413,-0.3728,-0.2865,-0.1429,324.875
20:00:07:648,-0.5218,1.1438,10.3969,50.2545,-0.4051,-0.3939,-0.2326,324.9062
20:00:07:665,-1.3239,0.738,11.776,51.9621,-0.4799,-0.3851,-0.248,325.0469
20:00:07:685,-1.5034,0.5261,12.699,51.5661,-0.4506,-0.1734,-0.0211,325.2969
20:00:07:705,-0.4895,1.0002,12.535,51.5158,-0.3313,-0.0351,0.238,325.7969
20:00:07:729,1.1817,1.576,11.8095,50.0751,-0.2365,-0.192,0.2353,325.8281
20:00:07:745,2.4554,1.5137,11.4133,48.7119,-0.3244,-0.6511,-0.1141,325.5625
20:00:07:765,2.1082,0.5788,12.9803,49.8544,-0.6176,-0.8945,-0.6007,325.3125
20:00:07:786,0.5376,-0.9822,14.4946,50.0049,-0.8432,-0.3433,-0.8443,325.5469
20:00:07:813,-0.274,-1.6765,11.5797,48.4023,-0.5134,0.9524,-0.2062,326.3125
20:00:07:833,0.8955,-0.7248,8.6192,50.2673,-0.3348,0.8469,0.055,327.3125
20:00:07:849,1.4462,0.3035,6.893,49.2986,-0.4165,0.3867,-0.0515,327.3125
20:00:07:866,0.8213,0.7548,7.1696,49.2784,-0.6735,-0.0794,-0.3229,327.9531
20:00:07:885,0.1019,0.6279,8.3655,49.7002,-0.8258,-0.1558,-0.4478,327.8594
20:00:07:914,-0.4967,0.5429,8.9796,48.0569,-0.734,-0.0287,-0.4358,327.8594
20:00:07:932,-0.8486,0.4974,8.7485,48.5735,-0.4754,0.1366,-0.3186,328.1719
20:00:07:949,-0.9552,0.7332,8.0063,49.3628,-0.1923,0.2293,-0.1586,328.875
20:00:07:965,-0.6236,1.1881,6.9732,49.2186,0.0101,0.203,-0.0544,329.0938
20:00:07:985,-0.2477,1.4946,6.4908,48.6166,0.0464,0.1081,-0.1021,329.4219
20:00:08:007,-0.2848,1.4491,6.4848,48.4448,-0.0565,0.0943,-0.2353,329.5625
20:00:08:031,-0.7768,1.23,7.2593,46.7432,-0.2181,0.1476,-0.3455,329.6094
20:00:08:050,-1.2138,0.7859,8.3846,49.2069,-0.2879,0.2421,-0.3583,329.7188
20:00:08:066,-1.7369,0.4866,9.1101,47.7277,-0.2461,0.3108,-0.2853,329.9531
20:00:08:085,-2.2852,0.7117,9.6093,46.9821,-0.1547,0.3255,-0.1173,330.3281
20:00:08:155,-2.2421,0.9727,10.2784,47.5307,-0.029,0.2762,0.1016,330.6875
20:00:08:156,-1.4795,1.2097,10.4388,47.0487,0.1276,0.2823,0.2926,330.9688
20:00:08:156,-1.0138,1.57,10.4975,44.8661,0.1963,0.2541,0.3285,331.0781
20:00:08:164,-0.9384,1.6155,11.3379,45.0558,0.1979,0.1406,0.2481,330.9375
20:00:08:186,-1.0988,0.6566,12.0406,43.7865,0.2445,-0.0429,0.1048,330.5781
20:00:08:216,-1.592,-0.4794,11.9687,43.7619,0.2261,-0.167,0.0835,330.2188
20:00:08:229,-2.1092,-0.8733,11.5725,44.4182,-0.0469,-0.0799,0.2143,329.9375
20:00:08:249,-2.1906,-0.5142,11.8897,43.3432,-0.4541,0.0043,0.3448,329.8281
20:00:08:265,-2.2121,-0.6255,13.0006,45.2387,-0.6818,-0.0724,0.3533,329.7031
20:00:08:286,-2.1092,-1.1271,13.6399,42.0092,-0.5699,-0.1728,0.3661,329.3438
20:00:08:313,-1.6339,-1.5365,12.8761,44.1269,-0.2639,-0.3438,0.3765,328.8906
20:00:08:330,-1.6902,-1.6873,11.6012,42.2005,-0.0666,-0.5201,0.3219,328.4531
20:00:08:346,-1.9835,-1.7998,10.7836,43.0028,-0.1102,-0.5507,0.3032,328
20:00:08:365,-1.7165,-1.9686,10.6052,42.1469,-0.2594,-0.4237,0.3352,327.625
20:00:08:386,-1.5561,-1.831,10.4017,42.0654,-0.3502,-0.1683,0.3501,327.3125
20:00:08:413,-1.7991,-1.5389,9.6176,42.6831,-0.3412,0.0916,0.3722,326.9844
20:00:08:430,-2.029,-1.2791,8.6528,42.2097,-0.2708,0.2336,0.4537,326.5938
20:00:08:447,-1.95,-1.0205,7.7897,42.0038,-0.1672,0.2844,0.5925,326.1719
20:00:08:465,-1.5932,-0.7093,6.7111,42.469,-0.0596,0.2309,0.7291,325.7031
20:00:08:485,-1.2592,-0.3274,5.9569,42.0269,-0.045,0.0123,0.825,325.0781
20:00:08:507,-0.7912,0.0904,6.1963,43.1355,-0.1049,-0.2378,0.8985,324.2969
20:00:08:529,0.0145,0.4771,7.3862,39.5984,-0.086,-0.4099,0.9142,323.8594
20:00:08:546,0.6729,0.7045,8.4145,41.011,0.1145,-0.4762,0.8308,322.4531
20:00:08:566,0.9195,0.7668,8.642,43.3432,0.3875,-0.47,0.6518,321.4062
20:00:08:586,0.7615,0.6255,8.4564,43.4109,0.5561,-0.4178,0.418,320.4219
20:00:08:607,0.1605,0.4004,8.1596,41.5351,0.5438,-0.3457,0.1943,319.6562
20:00:08:631,-0.8079,0.2604,8.4708,42.2312,0.375,-0.2583,0.0462,319.0781
20:00:08:648,-1.185,0.185,9.1256,41.9834,0.1867,-0.1515,0.0068,318.7812
20:00:08:664,-1.0114,0.0114,9.7685,42.9214,0.0397,-0.1116,-0.0417,318.7031
20:00:08:685,-0.7684,-0.4938,10.4867,42.5621,-0.0911,-0.1851,-0.1082,318.7188
20:00:08:705,-1.0665,-1.0409,11.5258,42.839,-0.196,-0.3124,-0.1311,318.7344
20:00:08:730,-1.2592,-1.479,12.3554,40.7911,-0.2085,-0.3579,0.0105,318.8281
20:00:08:747,-0.8941,-1.3976,12.6966,41.6857,-0.0932,-0.4716,0.2974,319
20:00:08:764,0.3138,-0.6339,12.5948,42.1991,0.1111,-0.7561,0.5767,319.1094
20:00:08:785,1.8329,0.3442,12.6822,43.823,0.2216,-1.0197,0.6071,318.9844
20:00:08:806,3.0527,0.4914,13.1563,42.2375,0.1965,-1.1689,0.365,318.5312
20:00:08:829,3.0276,0.07,14.248,41.6935,0.1729,-1.0493,0.018,317.5938
20:00:08:846,2.5452,-0.8972,14.4587,43.0187,0.3542,-0.5894,-0.1564,317.2656
20:00:08:865,2.6792,-1.6658,12.7145,43.9278,0.7044,-0.0738,-0.0939,317.3281
20:00:08:885,3.3388,-1.7376,9.5063,43.7668,0.9888,0.1926,0.0486,317.5469
20:00:08:905,3.8943,-1.0121,6.5483,43.6666,0.9577,0.0674,0.0132,317.625
20:00:08:930,3.5615,-0.3466,4.992,42.9538,0.5606,-0.3363,-0.3104,317.5156
20:00:08:946,2.2794,-0.2352,5.4757,42.8858,-0.0551,-0.6309,-0.6771,317.4531
20:00:08:965,0.9267,-0.6434,7.2103,43.3606,-0.5657,-0.4828,-0.8108,317.8281
20:00:08:985,-0.1555,-0.5321,8.6492,43.826,-0.7164,-0.0458,-0.6837,318.6406
20:00:09:006,-0.6655,-0.2065,9.237,42.8748,-0.4919,0.2975,-0.4076,319.1406
20:00:09:031,-0.4464,0.3681,8.7426,42.7421,-0.0493,0.4128,-0.0805,320.1094
20:00:09:046,0.3712,1.0924,7.3982,42.6493,0.3726,0.3028,0.1647,320.75
20:00:09:065,1.1326,1.9004,6.4369,42.6887,0.6021,0.0693,0.1922,321
20:00:09:085,1.5982,2.5504,6.2083,43.762,0.6173,-0.1324,0.0156,320.875
20:00:09:107,1.2714,2.797,6.8224,42.4744,0.4818,-0.1017,-0.2747,320.6094
20:00:09:129,0.1342,2.6665,7.9788,43.5925,0.3912,-0.0034,-0.4718,320.4688
20:00:09:146,-1.0689,2.499,9.8235,44.1158,0.6312,-0.2935,-0.4105,320.7812
20:00:09:165,-1.8183,2.2895,11.2205,42.0559,1.2189,-0.869,-0.2108,321.2969
20:00:09:185,-1.9751,2.3697,11.1523,43.4921,1.7577,-1.175,0.001,321.7656
20:00:09:207,-0.8307,2.815,8.8048,44.7873,1.379,-0.4892,0.1802,322.0781
20:00:09:226,-0.2633,2.7372,9.0706,42.3241,0.5486,-0.0077,0.0723,322.1719
20:00:09:244,-0.2668,1.7903,11.2612,42.3241,-0.1965,0.3449,-0.0427,322.0469
20:00:09:265,-0.8438,0.7117,13.1527,43.0865,-0.4807,0.6024,-0.0006,321.7188
20:00:09:284,-1.4484,-0.0221,13.0856,42.6254,-0.4365,0.632,0.2207,321.7188
20:00:09:304,-1.7584,0.0329,12.5984,43.8296,-0.4293,0.388,0.5648,321.7031
20:00:09:326,-1.2784,0.1885,13.6375,43.1134,-0.473,0.0975,0.8779,321.6094
20:00:09:348,-0.7337,-0.2484,14.7903,44.1113,-0.2879,0.1625,1.0492,321.2656
20:00:09:365,-0.5984,-0.7931,12.7253,42.3767,0.0514,0.5422,1.2052,320.5625
20:00:09:385,-0.371,-0.5273,9.5757,44.7091,0.1044,0.7097,1.3906,319.0469
20:00:09:405,0.6717,-0.1371,8.0111,44.341,-0.2125,0.5795,1.4593,317.7031
20:00:09:430,1.4881,0.0832,8.6575,46.1144,-0.67,0.3819,1.3184,316.0781
20:00:09:450,1.4115,0.1095,10.0546,44.3074,-0.9353,0.449,1.067,314.375
20:00:09:463,0.4981,-0.0425,10.1096,44.497,-0.9268,0.7042,0.8729,312.7031
20:00:09:484,-0.4632,-0.4016,9.2896,46.5328,-0.8032,0.9406,0.8835,311.9688
20:00:09:504,-1.1024,-0.4687,8.3164,45.9674,-0.6615,1.0701,1.111,310.7344
20:00:09:529,-0.9109,0.082,7.7166,45.384,-0.5148,0.9753,1.4079,309.7344
20:00:09:549,-0.025,0.7129,7.5718,45.7845,-0.3329,0.69,1.5746,308.625
20:00:09:564,0.6813,1.1103,7.5083,45.578,-0.1406,0.347,1.5621,307.2344
20:00:09:584,1.0727,1.4898,7.9273,46.7137,0.0043,0.0693,1.4726,305.6094
20:00:09:604,1.4019,1.6335,8.6037,46.7067,0.1691,-0.0961,1.3453,303.7344
20:00:09:629,1.6689,1.6634,9.0478,47.3693,0.3534,-0.1909,1.1869,301.9062
20:00:09:645,1.8233,1.6323,9.4369,47.1266,0.4541,-0.1803,0.9925,298.75
20:00:09:664,1.6629,1.4467,9.7361,47.4587,0.4602,0.0091,0.7791,297.3906
20:00:09:683,1.5049,1.2528,10.0737,47.0201,0.395,0.2304,0.5837,296.7969
20:00:09:704,1.4809,0.9655,10.3443,47.6256,0.3316,0.3995,0.3733,295.7812
20:00:09:729,1.2367,0.4998,10.4879,47.8513,0.2655,0.4192,0.194,295.0156
20:00:09:745,0.8189,-0.0976,10.294,48.3715,0.1689,0.3068,0.0915,294.4062
20:00:09:764,-0.0143,-0.4196,10.5143,47.9149,0.0376,0.1201,0.1275,294.0156
20:00:09:784,-0.2824,-0.5884,10.8027,48.8006,-0.0077,-0.1182,0.3213,293.8125
20:00:09:804,0.3988,-0.6363,10.6244,48.7697,0.0448,-0.3489,0.5328,293.6875
20:00:09:828,1.1888,-0.3585,9.8044,49.6651,0.0488,-0.5015,0.5759,293.4375
20:00:09:845,1.4462,-0.2125,9.225,47.5075,-0.1489,-0.6269,0.4372,293
20:00:09:864,1.0631,-0.3094,10.4029,50.1125,-0.5201,-0.6519,0.295,292.3906
20:00:09:884,0.8417,-0.4435,12.5254,49.3671,-0.7436,-0.3555,0.2862,291.875
20:00:09:905,0.9853,-0.3561,13.6112,49.1199,-0.6053,0.093,0.3863,291.5781
20:00:09:930,2.0843,0.185,12.4799,48.7882,-0.217,0.3555,0.4771,291.3906
20:00:09:946,3.3161,0.9667,10.3646,48.0918,0.0511,0.2394,0.2974,290.8594
20:00:09:965,3.2886,1.2145,9.28,50.2493,0.0442,-0.0865,-0.157,290.5781
20:00:09:985,1.8939,0.592,9.6739,49.8176,-0.1103,-0.1648,-0.6086,290.0625
20:00:10:005,0.1222,-0.2508,9.7278,50.2569,-0.2019,0.2075,-0.7748,289.9531
20:00:10:033,-1.2114,-0.2759,8.7198,49.3018,-0.1965,0.6626,-0.6182,290.4375
20:00:10:049,-1.4604,0.1814,7.5036,50.0087,-0.1252,0.7563,-0.3157,291.25
20:00:10:065,-1.0617,0.8278,6.8523,47.3699,-0.0101,0.4666,-0.0662,292.0469
20:00:10:084,-0.5781,1.3701,6.8799,48.5233,0.1177,0.0956,0.0689,292.5
20:00:10:104,-0.1196,1.7101,7.0582,50.9506,0.2312,-0.0796,0.1283,292.6406
20:00:10:129,0.2527,1.9758,6.8846,49.7018,0.2908,-0.0823,0.124,292.5938
20:00:10:147,0.37,2.1398,6.9182,50.0998,0.2392,-0.0559,0.0822,292.4688
20:00:10:212,0.3963,2.299,7.5562,48.8294,0.1406,-0.0442,0.0494,292.3125
20:00:10:212,0.3126,2.4152,8.569,49.8037,0.0783,-0.0522,0.0066,292.2031
20:00:10:213,-0.0717,2.3697,9.6715,48.5544,0.0948,-0.0234,0.0159,292.125
20:00:10:230,-0.0597,2.1458,10.8231,49.5949,0.2051,-0.0104,0.1189,292.0938
20:00:10:244,0.3856,1.9902,11.7006,50.2923,0.3657,0.0085,0.2052,292.0781
20:00:10:263,0.8393,2.0249,12.1507,50.3842,0.5795,0.09,0.209,291.9375
20:00:10:283,0.9841,1.8944,11.2684,51.9841,0.792,0.1516,0.1069,291.6875
20:00:10:304,0.2982,1.8884,10.3048,50.2187,0.8197,0.1478,-0.0188,291.4219
20:00:10:333,-0.3291,1.7579,9.8451,50.4789,0.7361,0.0993,-0.0883,291.25
20:00:10:349,-0.7888,1.5868,9.1783,50.1213,0.6253,0.0903,-0.1434,291.2031
20:00:10:368,-1.8973,1.6239,8.3355,50.3166,0.4093,0.167,-0.1703,291.2656
20:00:10:384,-2.6898,1.6622,7.6987,48.5369,0.0836,0.2546,-0.1341,291.375
20:00:10:403,-3.2668,1.7639,7.385,49.3885,-0.3553,0.2826,-0.0976,291.5312
20:00:10:431,-3.2776,1.424,8.8251,48.5752,-0.8658,-0.013,-0.051,291.6406
20:00:10:450,-2.9591,0.1287,12.9264,50.3589,-1.2029,-0.5095,-0.0108,291.7031
20:00:10:464,-3.0681,-1.1678,16.9666,51.0868,-0.9619,-0.5409,0.1621,291.75
20:00:10:488,-2.588,-1.9243,16.2124,49.8518,-0.2932,-0.0887,0.504,291.8594
20:00:10:503,-1.5023,-1.3354,12.3985,50.7423,0.1127,0.3084,0.8697,291.9375
20:00:10:524,0.1294,-0.5297,9.541,49.0019,0.0226,0.3968,1.0263,291.6406
20:00:10:547,1.1948,0.2855,8.9485,46.7012,-0.2916,0.3342,0.9538,290.2656
20:00:10:564,1.3157,0.7213,10.0211,48.9273,-0.4256,0.2437,0.773,289.0312
20:00:10:596,-0.2597,0.4651,8.8383,47.616,0.1481,0.3356,0.6769,287.9688
20:00:10:613,-0.2573,0.7332,7.0714,48.2373,0.3502,0.3169,0.842,287.0625
20:00:10:630,0.3018,1.1055,6.0491,48.4407,0.3904,0.1132,0.936,286.3125
20:00:10:646,0.9015,1.3234,5.8731,48.1885,0.3388,-0.16,0.9091,285.5312
20:00:10:664,1.2403,1.4958,6.5818,49.7424,0.2711,-0.3483,0.7813,284.5156
20:00:10:685,1.1685,1.3725,7.1133,49.6828,0.2386,-0.3252,0.5863,282.4375
20:00:10:705,0.8165,1.1223,7.1911,48.5452,0.1337,-0.1502,0.4127,281.5781
20:00:10:733,0.2,1.0564,7.731,49.6104,-0.0708,0.0645,0.328,281.2344
20:00:10:752,-0.1471,1.1055,8.4301,47.3934,-0.1678,0.2448,0.3371,280.9375
20:00:10:769,-0.1579,1.2719,8.3595,47.8905,-0.1134,0.302,0.3339,280.4844
20:00:10:784,-0.0107,1.26,7.6568,48.0791,-0.0804,0.1236,0.3064,280.125
20:00:10:804,0.5915,1.1271,7.7585,47.2129,-0.1925,-0.3462,0.2401,279.7188
20:00:10:833,0.9698,0.5896,9.6918,46.6731,-0.4155,-0.8743,0.0654,279.2969
20:00:10:848,0.8213,-0.41,12.6092,47.6418,-0.6035,-0.9979,-0.0515,278.9531
20:00:10:867,0.7938,-1.0924,14.6012,44.8909,-0.6407,-0.6027,0.0311,278.7344
20:00:10:885,1.536,-0.8206,14.0062,46.2711,-0.5537,-0.074,0.2012,278.7969
20:00:10:904,2.4051,0.1658,12.7911,46.0211,-0.5774,-0.0072,0.1711,279.0156
20:00:10:931,2.5021,0.1885,13.5896,45.0421,-0.7241,-0.1664,-0.1029,279.0938
20:00:10:948,1.4414,-0.9092,15.1039,45.898,-0.7348,0.0184,-0.2941,278.9219
20:00:10:969,0.4586,-1.7208,15.0776,46.7429,-0.4754,0.4661,-0.1389,278.7656
20:00:10:985,1.3133,-1.7508,13.2532,45.7993,-0.0748,0.7872,0.2534,279.3438
20:00:11:004,3.3065,-0.9583,10.476,44.7439,0.2378,0.8163,0.4745,279.4844
20:00:11:031,4.245,0.3023,8.2194,44.2668,0.2924,0.6093,0.2729,279.3906
20:00:11:048,3.5064,1.0433,6.9804,44.9293,0.1121,0.4075,-0.1895,278.5625
20:00:11:065,1.9107,0.9044,6.9014,45.6891,-0.1694,0.3548,-0.574,278.3125
20:00:11:088,0.4442,0.5166,7.4617,45.161,-0.3382,0.4733,-0.7032,278.2031
20:00:11:102,-0.4069,0.422,7.6819,42.9959,-0.2841,0.558,-0.6068,278.6094
20:00:11:124,-0.6212,0.6674,7.5011,45.8999,-0.0823,0.4418,-0.4121,279.3594
20:00:11:149,-0.2668,0.9691,7.1755,43.9755,0.1481,0.2267,-0.2449,280.1094
20:00:11:166,0.3712,1.3461,6.7601,42.06,0.3169,0.0663,-0.1897,280.6562
20:00:11:186,0.8321,1.6646,6.3998,43.0097,0.3667,-0.0093,-0.3037,280.9844
20:00:11:204,0.7722,1.7137,6.2155,43.0071,0.2674,-0.0194,-0.5375,281.1875
20:00:11:230,0.1294,1.5137,6.8224,43.3514,0.0493,0.0565,-0.765,281.4375
20:00:11:247,-0.7612,1.2671,7.9249,43.3909,-0.1268,0.2426,-0.8973,281.8906
20:00:11:263,-1.4436,1.0421,8.6456,42.4373,-0.1806,0.4512,-0.9136,282.6406
20:00:11:288,-2.0781,0.8996,9.0143,41.5429,-0.168,0.5678,-0.8574,283.1094
20:00:11:304,-2.5246,0.8374,9.2214,42.5991,-0.1017,0.559,-0.7493,284.1094
20:00:11:326,-2.7125,0.7069,8.9101,41.0477,-0.0764,0.481,-0.6475,285.5469
20:00:11:349,-3.1195,0.5178,8.8706,42.4481,-0.2056,0.3777,-0.5538,286.4219
20:00:11:370,-3.5122,0.185,9.5709,41.2117,-0.4258,0.2634,-0.4382,287.1719
20:00:11:386,-3.979,-0.6327,11.2169,39.9825,-0.5968,0.2184,-0.2688,287.7969
20:00:11:404,-4.343,-1.1486,12.4153,39.6857,-0.6573,0.3689,0.0103,288.3281
20:00:11:430,-3.9575,-1.0517,12.3829,39.6857,-0.6764,0.4962,0.2723,288.7188
20:00:11:447,-3.7564,-1.1941,11.9412,40.9398,-0.8189,0.257,0.295,288.8438
20:00:11:464,-4.744,-1.825,13.179,40.9175,-1.082,-0.1624,0.2606,288.6094
20:00:11:483,-5.242,-2.6941,15.4954,40.0057,-1.0629,-0.2445,0.4518,288.1875
20:00:11:505,-5.1055,-3.0077,15.6127,40.1182,-0.5822,0.0184,0.8162,287.875
20:00:11:533,-3.9288,-2.7396,12.7085,40.2024,-0.0485,0.1958,1.2066,287.4688
20:00:11:549,-2.2265,-2.001,9.7565,40.8246,0.0509,0.11,1.3906,286.7344
20:00:11:564,-1.0689,-1.2468,8.8311,38.6654,-0.1582,-0.1012,1.3158,285.5469
20:00:11:585,-1.0881,-0.9116,9.1472,41.0788,-0.3007,-0.3116,1.136,284.0938
20:00:11:604,-1.44,-0.738,9.3016,39.8948,-0.1896,-0.4384,1.0644,281.7812
20:00:11:629,-1.361,-0.6482,8.9365,38.9362,0.0911,-0.4463,1.1008,280.5312
20:00:11:647,-1.033,-0.5501,7.6424,39.8112,0.3305,-0.2719,1.1605,279.3125
20:00:11:664,-0.8881,-0.0736,6.2358,39.4681,0.2852,0.0687,1.2082,278.0625
20:00:11:684,-0.5996,0.4004,5.6708,39.1983,0.0157,0.4349,1.1738,276.75
20:00:11:705,-0.3686,0.4519,5.9449,40.3035,-0.2447,0.5894,1.0279,275.4375
20:00:11:731,-0.5793,0.2412,6.6093,39.4956,-0.3414,0.5478,0.8748,274.0781
20:00:11:747,-1.106,0.1802,7.3874,39.0819,-0.2573,0.3279,0.8361,272.8906
20:00:11:764,-0.8989,0.1419,8.1093,40.6709,-0.0107,-0.0793,0.8769,271.9062
20:00:11:784,-0.3686,0.076,8.6743,39.3728,0.2802,-0.4967,0.8364,271.4375
20:00:11:804,-0.0669,0.1754,9.0382,38.7235,0.4213,-0.678,0.6731,270.4375
20:00:11:833,-0.1435,0.0473,9.4728,39.0924,0.3465,-0.5347,0.4244,269.4531
20:00:11:848,-0.1902,-0.6614,9.8762,38.0832,0.1606,-0.221,0.2036,268.625
20:00:11:865,-0.1268,-1.3713,10.1743,38.5952,-0.0277,-0.0176,0.0694,268.0156
20:00:11:884,0.0097,-1.898,10.4412,38.0313,-0.1606,0.0275,0.0071,267.6875
20:00:11:904,0.2348,-2.0428,10.6172,37.4249,-0.2714,0.0762,-0.0158,267.5156
20:00:11:934,0.6597,-1.7915,10.4053,39.8764,-0.4684,0.3244,-0.0728,267.5156
20:00:11:950,0.9578,-1.1115,9.978,39.9671,-0.7614,0.6197,-0.2595,267.5312
20:00:11:966,0.9602,-0.9164,9.9732,39.4394,-1.0514,0.6307,-0.6172,267.5938
20:00:11:984,-2.5988,-2.876,13.3059,38.8888,-1.3484,-0.0921,-1.2481,267.8594
20:00:12:006,-4.6039,-3.8086,15.9335,38.6926,-0.9188,-0.1523,-0.8411,268.5312
20:00:12:031,-3.5924,-4.2024,15.669,39.7283,-0.0461,-0.0224,-0.0856,269.6406
20:00:12:048,-0.3949,-3.7583,12.2728,38.2988,0.6719,0.1755,0.434,271.0156
20:00:12:065,2.119,-2.5804,8.8132,38.8803,0.7606,0.2954,0.3392,272.0312
20:00:12:083,2.1765,-1.6071,7.1875,39.9605,0.4269,0.2274,-0.2401,272.0312
20:00:12:104,0.1964,-1.7567,7.6352,38.6634,0.0767,0.0778,-0.7783,271.5938
20:00:12:132,-1.7932,-2.2895,8.7964,38.6306,0.0067,0.0666,-0.8909,271.2344
20:00:12:152,-3.0082,-2.2643,9.0023,38.6154,0.285,0.0959,-0.6007,272.375
20:00:12:166,-2.6862,-1.8944,7.7202,37.9145,0.6895,0.028,-0.1626,273.4062
20:00:12:184,-1.7477,-1.1546,6.1365,38.5222,0.8685,-0.1337,0.1477,273.8125
20:00:12:205,-0.7445,-0.3968,5.5559,40.3853,0.8149,-0.3321,0.2705,274.2656
20:00:12:230,-0.0585,0.2137,5.8096,38.9688,0.6693,-0.5294,0.1823,274.2812
20:00:12:290,-0.2357,0.495,6.6129,38.7464,0.5116,-0.6589,-0.0254,274.1875
20:00:12:291,-1.2784,0.5776,7.6041,38.3575,0.4237,-0.6751,-0.1596,273.9062
20:00:12:291,-2.1499,0.5752,8.4864,38.6808,0.4552,-0.6091,-0.1114,273.7344
20:00:12:305,-2.5904,0.6279,8.7473,37.4227,0.5702,-0.4477,0.0508,273.7969
20:00:12:331,-2.7269,0.3083,8.3655,37.942,0.5966,-0.2128,0.2385,273.9844
20:00:12:348,-3.031,0.1311,8.1907,38.2061,0.4112,0.1265,0.4662,274.1406
20:00:12:365,-2.6646,0.4555,8.5331,38.1608,0.1486,0.3492,0.6649,274.0938
20:00:12:384,-2.0793,0.7632,9.1819,37.8721,-0.0493,0.3302,0.6774,273.8438
20:00:12:403,-1.7596,0.0808,10.3119,38.303,-0.1651,0.245,0.5751,273.2969
20:00:12:423,-1.6591,-1.1139,11.3762,38.5812,-0.1688,0.2932,0.5373,272.5156
20:00:12:448,-1.3706,-1.4766,10.8937,39.6466,-0.1188,0.4064,0.573,271.4219
20:00:12:464,-1.0294,-1.3641,9.5925,38.193,-0.2975,0.4184,0.504,270.7969
20:00:12:486,-1.2796,-1.1774,9.2956,37.4785,-0.7694,0.2714,0.3011,270.1719
20:00:12:503,-2.3199,-1.6969,11.2409,38.7556,-1.2282,-0.1086,0.0755,269.5
20:00:12:524,-3.6044,-2.8054,14.1487,37.0106,-1.2115,-0.4048,0.1395,269.0156
20:00:12:548,-3.3266,-3.0688,14.5928,39.4498,-0.6722,-0.4035,0.5426,268.7812
20:00:12:564,-1.9847,-1.7891,12.104,37.7526,-0.1377,-0.3345,0.9086,268.7031
20:00:12:583,-0.3459,-0.4639,9.5973,38.5993,-0.0218,-0.4471,0.9171,268.3125
20:00:12:603,0.2802,0.0533,8.709,38.8767,-0.2301,-0.5824,0.6028,267.4375
20:00:12:624,-0.1579,-0.264,9.1196,37.9065,-0.4951,-0.6011,0.2761,266.3906
20:00:12:648,-1.0258,-0.6327,10.0103,40.0586,-0.5731,-0.4951,0.1461,265.4844
20:00:12:664,-1.5669,-0.7823,10.4113,38.2465,-0.424,-0.3087,0.2287,265
20:00:12:684,-1.7094,-0.5908,9.9648,38.6123,-0.1633,-0.0903,0.4337,264.7969
20:00:12:708,-1.1647,-0.0952,9.1172,38.3751,0.089,-0.0018,0.6398,264.6094
20:00:12:733,-0.3997,0.3681,8.3762,38.5306,0.285,-0.066,0.7032,264.4531
20:00:12:751,0.2383,0.592,7.9501,37.8336,0.4048,-0.1893,0.6236,263.6094
20:00:12:767,0.2886,0.5213,7.8112,37.722,0.4506,-0.2754,0.4689,262.8438
20:00:12:784,0.1091,0.167,7.9896,39.1127,0.4485,-0.2791,0.3448,262.0625
20:00:12:804,-0.1316,-0.155,8.3882,37.1003,0.4083,-0.1837,0.295,261.4219
20:00:12:834,-0.0226,-0.1981,8.9293,37.706,0.3707,-0.058,0.2825,260.9844
20:00:12:849,0.115,-0.1742,9.4967,38.0973,0.3832,0.029,0.2172,260.6094
20:00:12:865,0.2156,-0.4196,9.6811,38.075,0.4397,0.0634,0.1277,260.2656
20:00:12:883,0.3377,-0.8146,9.6476,37.8039,0.4256,-0.0285,0.0231,259.9688
20:00:12:905,0.1617,-1.339,10.2617,38.0111,0.3092,-0.1851,-0.0869,259.7656
20:00:12:921,-0.6583,-1.8154,11.2876,38.0371,0.2003,-0.22,-0.1287,259.6562
20:00:12:943,-1.2545,-2.2344,11.6742,39.8435,0.1707,-0.1017,0.0074,259.6875
20:00:12:963,-1.2114,-2.0548,11.0948,37.7257,0.1555,0.0549,0.2726,259.8281
20:00:12:983,-0.3375,-1.2671,10.2856,40.3661,0.0831,0.0445,0.5088,259.9219
20:00:13:006,0.7268,-0.513,9.6655,40.3821,-0.0274,-0.1672,0.508,259.5625
20:00:13:033,1.3074,-0.4028,9.7948,39.0212,-0.2338,-0.5726,0.2417,259
20:00:13:051,0.9159,-1.1043,12.0034,39.0232,-0.4722,-0.8679,-0.0677,258.4219
20:00:13:067,0.3688,-2.1506,14.412,39.4824,-0.4424,-0.6847,-0.1692,258.1719
20:00:13:084,0.6441,-2.7551,14.6742,36.9409,-0.0328,-0.2344,-0.0241,258.2812
20:00:13:104,1.9909,-2.2739,11.8275,38.7544,0.3974,0.1822,0.1189,258.5
20:00:13:133,2.9211,-0.8278,8.5989,40.9191,0.4687,0.2868,-0.0179,258.5312
20:00:13:151,2.8839,0.1359,6.8392,38.2389,0.2594,0.0748,-0.4078,258.3594
20:00:13:166,1.8305,0.1251,6.9768,39.4889,0.0232,-0.2003,-0.7844,258.3594
20:00:13:183,0.5089,-0.2688,7.6927,38.2447,-0.0154,-0.3862,-0.912,258.5156
20:00:13:204,-0.4919,-0.4375,8.1943,38.6404,0.118,-0.4887,-0.7828,259.2188
20:00:13:233,-0.9767,-0.1622,8.4828,38.6091,0.2932,-0.4469,-0.5176,260.1875
20:00:13:249,-0.766,0.3992,8.2446,39.0865,0.4517,-0.2405,-0.2433,261.2031
20:00:13:266,-0.1064,0.9511,7.6723,39.7536,0.534,0.0195,-0.0845,261.9531
20:00:13:284,0.3102,1.5197,7.1492,40.108,0.4759,0.2687,-0.0691,262.3594
20:00:13:304,0.5101,1.7352,7.2941,40.5914,0.3151,0.3193,-0.1466,262.5
20:00:13:325,0.2264,1.5844,8.636,40.1926,0.2136,0.2056,-0.2459,262.5312
20:00:13:349,-0.3506,1.3521,9.7325,38.3312,0.2871,0.1944,-0.2648,262.6719
20:00:13:365,-0.6559,1.1582,10.0965,41.327,0.4914,0.139,-0.1943,262.9062
20:00:13:383,-0.2656,0.8745,9.0275,40.7271,0.7111,0.0639,-0.023,263.1875
20:00:13:403,-0.3291,0.9284,8.909,39.7009,0.5851,0.0962,0.0236,263.375
20:00:13:424,-0.4799,0.8936,9.1567,40.6579,0.4448,0.1388,0.1104,263.4531
20:00:13:451,-0.3638,1.0217,9.5087,39.8798,0.3438,0.1324,0.2231,263.3594
20:00:13:468,-0.1615,1.3665,9.9181,40.9211,0.2466,0.1263,0.2928,263.2031
20:00:13:490,0.0468,1.5916,10.2581,40.8243,0.1132,0.1966,0.2755,263.2031
20:00:13:501,0.0959,1.7771,10.3778,41.9528,-0.0376,0.3513,0.1693,262.9062
20:00:13:523,-0.2381,1.5963,9.9887,41.0747,-0.2301,0.4882,-0.0195,262.5625
20:00:13:548,-0.7229,0.8913,9.8654,41.8231,-0.5055,0.3505,-0.2073,262
20:00:13:566,-1.5154,-0.2316,11.4995,41.1736,-0.7864,-0.0125,-0.3314,261.9844
20:00:13:585,-2.782,-1.2157,13.7464,40.8236,-0.7896,-0.1883,-0.2331,262.0781
20:00:13:604,-3.0226,-1.8405,14.2013,41.6224,-0.4131,-0.1449,0.1192,262.3906
20:00:13:622,-2.1319,-1.4252,11.8526,41.6224,-0.0599,-0.0573,0.4968,262.7969
20:00:13:647,-0.8534,-0.6734,9.8199,41.9321,-0.0501,-0.118,0.6577,262.9062
20:00:13:664,-0.1531,-0.3274,8.9832,42.9516,-0.2085,-0.1774,0.5909,262.7969
20:00:13:682,-0.2932,-0.0736,8.7102,43.7853,-0.3212,-0.1308,0.5187,262.2656
20:00:13:703,-0.4763,0.1119,8.3104,42.1175,-0.3156,-0.0583,0.5339,261.5312
20:00:13:722,-0.5901,0.3442,7.7238,42.5462,-0.2562,0.0029,0.6145,260.875
20:00:13:748,-0.529,0.592,6.8966,44.276,-0.2605,0.077,0.7272,260.2969
20:00:13:766,-0.5158,1.0277,6.4537,44.1026,-0.3723,0.2304,0.863,259.75
20:00:13:785,0.0025,1.5018,6.6105,43.9392,-0.4993,0.3422,0.9847,259.0469
20:00:13:801,0.5915,1.9136,7.1456,43.1181,-0.5294,0.2765,0.9805,258.2188
20:00:13:821,0.8489,2.0429,8.1643,44.1462,-0.4346,-0.0285,0.854,257.2969
20:00:13:843,0.6525,1.8118,9.3399,44.2696,-0.2085,-0.4514,0.6827,256.1719
20:00:13:863,0.1318,1.3605,10.5238,45.0807,0.0948,-0.8652,0.5237,254.5625
20:00:13:881,-0.2848,0.6554,11.5402,44.7607,0.3545,-0.9891,0.43,253.75
20:00:13:902,-0.4428,0.1754,12.0549,46.163,0.5111,-0.6788,0.4327,253.0781
20:00:13:923,0.2156,0.094,11.5821,45.481,0.5971,-0.2703,0.4561,252.5469
20:00:13:948,1.0488,0.2831,10.7728,44.4937,0.5492,-0.0639,0.3544,252.0938
20:00:13:966,1.6641,0.2675,10.859,44.7227,0.3731,-0.0764,0.1557,251.5469
20:00:13:985,1.7754,-0.1395,11.6695,44.7233,0.2533,-0.0889,-0.0422,251.0156
20:00:14:005,1.8628,-0.5082,11.679,44.8978,0.2863,0.0275,-0.1066,250.6719
20:00:14:021,2.3009,-0.5381,10.3479,47.2236,0.3265,0.1326,-0.1383,250.6094
20:00:14:054,2.7008,-0.0413,8.4397,46.6695,0.1276,0.1268,-0.288,250.6875
20:00:14:062,3.0108,0.2376,7.5407,44.1543,-0.4165,-0.1768,-0.6339,250.7969
20:00:14:093,2.4159,-0.6219,9.7278,46.079,-1.1966,-0.6653,-1.1157,250.9688
20:00:14:103,0.5424,-1.8382,14.6335,45.6824,-1.6227,-0.6098,-1.336,251.4688
20:00:14:123,-0.438,-2.876,17.2803,45.1038,-1.134,-0.0647,-1.1445,252.5625
20:00:14:157,-0.3219,-3.7355,14.7999,44.577,-0.2826,0.5593,-0.6888,253.3438
20:00:14:165,0.2922,-2.7922,10.7944,44.6937,0.2005,0.9244,-0.0952,255.7344
20:00:14:185,1.7311,-1.0816,8.1452,46.3527,0.3081,0.718,0.1805,256.875
20:00:14:209,1.9346,0.3035,7.3515,45.6016,0.2743,0.2083,-0.0467,257.3125
20:00:14:221,1.19,0.5501,7.1444,46.1308,0.2757,-0.0596,-0.3631,257.1562
20:00:14:242,0.4311,0.2723,6.468,45.0131,0.2938,-0.0282,-0.5042,257
20:00:14:263,-0.0849,0.5106,5.6349,45.9934,0.224,0.09,-0.5008,257.2344
20:00:14:285,-0.4069,0.9954,5.484,45.4669,0.0607,0.2043,-0.4816,257.7031
20:00:14:301,-0.5063,1.1762,6.0479,44.4466,-0.0692,0.2789,-0.4899,258.2656
20:00:14:367,-0.5829,1.1989,6.5902,44.7044,-0.0865,0.2967,-0.5072,258.8125
20:00:14:367,-0.851,1.2863,6.9852,44.7686,-0.0506,0.2144,-0.5114,259.3281
20:00:14:367,-1.282,1.2803,7.6101,43.8251,-0.0194,0.061,-0.4734,259.9062
20:00:14:384,-1.3909,1.2384,8.557,45.2153,0.037,-0.0714,-0.3884,260.4844
20:00:14:401,-1.5932,1.1402,9.3531,45.0589,0.1467,-0.1001,-0.3341,261.0469
20:00:14:422,-2.0362,1.0146,9.6823,44.6755,0.2607,-0.0359,-0.2848,261.7344
20:00:14:448,-2.5006,0.6662,9.8834,45.1759,0.3036,0.1031,-0.1964,262.1094
20:00:14:468,-2.9986,0.3214,10.0426,45.1959,0.2831,0.3009,-0.0433,262.4219
20:00:14:481,-3.1231,0.1167,10.0629,44.546,0.2336,0.3974,0.1639,262.6094
20:00:14:501,-2.9879,-0.0928,10.2234,44.2808,0.1667,0.3164,0.3533,262.6406
20:00:14:522,-2.6227,-0.4052,10.8746,44.5638,0.0943,0.1116,0.487,262.4219
20:00:14:549,-2.4827,-0.6985,11.5701,42.7857,0.041,0.0125,0.5794,262.0156
20:00:14:566,-2.4204,-0.7632,11.5138,42.6953,-0.0431,0.0583,0.6742,261.4531
20:00:14:583,-2.1894,-0.7572,11.0601,43.6259,-0.273,0.1068,0.7078,260.7969
20:00:14:602,-1.9488,-1.0828,11.7628,42.5661,-0.7065,-0.0554,0.6462,260.0469
20:00:14:624,-2.4875,-1.9902,14.5964,44.7451,-1.0498,-0.2772,0.5914,259.6406
20:00:14:649,-3.1483,-3.3501,17.4443,42.6626,-0.8597,-0.2168,0.7442,258.875
20:00:14:666,-2.7688,-3.9594,15.7959,42.8413,-0.2043,0.192,1.149,258.2344
20:00:14:685,-1.6567,-2.973,11.5952,41.4401,0.187,0.4424,1.5642,257.5938
20:00:14:701,0.0803,-1.7759,8.5462,42.2171,0.1116,0.3263,1.678,256.5625
20:00:14:722,0.7866,-0.9798,7.4557,42.3454,-0.1851,0.0607,1.4809,254.0312
20:00:14:749,0.449,-0.6674,7.8244,40.3165,-0.4091,-0.1568,1.2657,252.2031
20:00:14:765,-0.0993,-0.5848,8.3439,42.1164,-0.3507,-0.2506,1.1714,250.5156
20:00:14:783,-0.7026,-0.6422,6.5231,41.191,0.102,-0.2431,1.3613,249.0781
20:00:14:802,-0.5146,-0.24,5.8623,40.0371,0.1785,-0.3036,1.5568,249.0781
20:00:14:823,0.3197,0.2628,5.9066,39.8123,0.2088,-0.4658,1.6439,247.8125
20:00:14:849,0.9901,0.653,6.3472,40.7466,0.208,-0.636,1.5373,246.4375
20:00:14:866,1.3468,0.7249,7.1468,40.4016,0.1547,-0.7566,1.3171,243.0781
20:00:14:883,1.3552,0.6458,8.32,39.0952,0.0525,-0.7462,1.0729,241.2812
20:00:14:901,1.0619,0.5597,9.7122,39.3058,-0.0088,-0.5571,0.8686,239.5
20:00:14:921,0.9458,0.4124,10.64,39.3097,0.0546,-0.2735,0.7498,237.9844
20:00:14:949,1.2116,0.4651,10.6507,40.7937,0.1926,-0.0692,0.6718,236.7969
20:00:14:966,1.554,0.5621,10.4101,39.3371,0.2922,-0.0514,0.5429,235.8125
20:00:14:981,1.5815,0.5872,10.2258,39.6072,0.29,-0.1483,0.3275,234.5469
20:00:15:002,1.3421,0.1442,10.6974,39.9702,0.1856,-0.2551,0.0867,233.3125
20:00:15:022,0.8524,-0.89,11.2517,40.0022,0.0669,-0.224,-0.0683,233.0469
20:00:15:049,0.5891,-1.8214,11.3391,40.4865,-0.0162,-0.1422,-0.0153,233.0469
20:00:15:065,1.1601,-2.2176,11.0733,38.6734,-0.0639,-0.1502,0.1714,233.0312
20:00:15:082,2.3596,-2.2595,9.9899,37.5776,-0.1814,-0.261,0.2207,233.0938
20:00:15:101,2.86,-1.9435,9.4225,39.865,-0.5723,-0.5345,-0.027,233.1094
20:00:15:121,1.7036,-2.1051,11.6192,38.7507,-1.1342,-0.7744,-0.4366,232.9219
20:00:15:141,-0.62,-3.0293,15.2691,38.6262,-1.3321,-0.3755,-0.5639,232.7031
20:00:15:167,-1.6315,-3.4602,15.8605,38.9832,-0.8439,0.4027,-0.1652,232.7969
20:00:15:186,-0.2764,-2.9347,12.7947,39.9721,-0.1443,0.8991,0.4327,233.4219
20:00:15:204,2.1681,-1.5161,9.1879,38.7883,0.2557,1.0426,0.7957,234.1719
20:00:15:222,4.0415,0.3094,6.3938,39.2302,0.1965,1.0248,0.6119,234.4844
20:00:15:248,4.8759,1.473,5.2769,40.956,-0.2383,0.9191,-0.0598,234.0469
20:00:15:265,4.3755,1.2193,5.8611,39.6934,-0.7489,0.8496,-0.9176,232.7812
20:00:15:284,1.9574,-0.1562,7.3012,40.3199,-1.0932,0.9745,-1.6001,232.4688
20:00:15:302,-1.2221,-1.1019,8.5678,38.7223,-1.1044,1.187,-1.7701,233.0938
20:00:15:322,-3.3661,-1.7304,9.3124,39.9294,-0.7694,1.2256,-1.4358,234.7031
20:00:15:350,-3.8534,-1.8753,8.6504,39.0628,-0.2389,1.1042,-0.8502,236.7344
20:00:15:368,-3.353,-1.4168,7.3922,39.5496,0.1771,0.7974,-0.3298,238.7656
20:00:15:388,-2.5808,-0.8362,6.4046,39.3373,0.3542,0.4306,-0.0385,240.2031
20:00:15:401,-2.1367,-0.5776,6.3938,38.7815,0.322,0.0738,0.05,240.8906
20:00:15:422,-1.8793,-0.5692,7.0858,38.2462,0.176,-0.0945,0.1094,241.1094
20:00:15:448,-1.7393,-0.4172,8.4385,41.4876,0.0072,-0.0626,0.2087,241.1094
20:00:15:465,-1.4615,-0.2532,9.9612,40.9049,-0.029,0.0261,0.3397,241.0156
20:00:15:483,-0.9564,0.015,11.0577,40.5124,0.1193,0.1334,0.4353,240.8438
20:00:15:502,-0.4632,0.064,11.0889,41.013,0.3329,0.1651,0.4622,240.5156
20:00:15:523,-0.4787,0.0557,10.9261,40.2327,0.5095,-0.0245,0.4422,240.0781
20:00:15:548,-0.93,-0.0257,11.2289,41.2784,0.6477,-0.3822,0.4407,239.8438
20:00:15:566,-0.9923,-0.064,11.6575,41.6572,0.7236,-0.6112,0.4635,239.0781
20:00:15:583,-0.6619,-0.2735,11.6862,42.4475,0.6575,-0.514,0.446,238.5625
20:00:15:602,-0.6894,-0.2256,11.5761,41.0027,0.4314,-0.1976,0.3837,238.0312
20:00:15:621,-0.6966,-0.1766,11.4911,41.0213,0.1566,0.1031,0.2755,237.4688
20:00:15:643,-0.8642,-0.2903,11.3618,42.2989,-0.1236,0.2173,0.075,236.9688
20:00:15:665,-1.5154,-0.9044,12.1196,43.3999,-0.3803,0.0948,-0.1354,236.5781
20:00:15:682,-2.363,-1.9722,13.5908,43.5053,-0.3832,-0.0615,-0.2236,236.3906
20:00:15:701,-3.329,-2.8042,13.4555,42.5415,-0.0953,0.0336,-0.1136,236.4375
20:00:15:725,-3.7289,-2.8282,11.3798,42.9333,0.1854,0.2059,0.1845,236.6719
20:00:15:749,-3.1662,-2.2559,8.9449,44.3056,0.2005,0.2442,0.4798,236.9219
20:00:15:765,-2.0948,-1.6526,7.5347,45.0074,-0.008,0.1217,0.6161,236.7188
20:00:15:785,-1.2102,-1.1103,7.0582,43.3339,-0.2858,-0.0905,0.601,236.1719
20:00:15:802,-0.9516,-0.6853,7.6424,43.7014,-0.5049,-0.2956,0.5048,235.5
20:00:15:822,-1.3837,-0.6494,8.7042,43.7014,-0.5222,-0.3936,0.4454,234.8125
20:00:15:850,-1.8614,-0.5704,9.0299,43.9681,-0.3087,-0.3747,0.5368,234.2344
20:00:15:865,-1.9129,-0.4172,8.4756,44.4931,-0.0021,-0.3361,0.7456,233.7344
20:00:15:882,-1.3502,-0.0569,7.4736,46.6574,0.2863,-0.4043,0.9818,233.4531
20:00:15:901,-0.5673,0.4735,6.6787,46.2974,0.477,-0.6011,1.0961,232.7031
20:00:15:922,0.0576,0.8051,6.4657,47.4798,0.5271,-0.7827,1.0542,231.6875
20:00:15:950,0.2156,0.8493,6.9481,45.81,0.4749,-0.8277,0.9293,230.5
20:00:15:967,0.206,0.6363,7.7621,47.0991,0.4179,-0.7435,0.8151,229.1875
20:00:15:986,0.3221,0.5082,8.4205,47.4411,0.3907,-0.6016,0.7275,228
20:00:16:000,0.4885,0.4316,9.0837,49.1877,0.3369,-0.4935,0.6002,226.5156
20:00:16:022,0.1653,0.2759,9.9552,49.0758,0.2621,-0.3553,0.4582,225.6406
20:00:16:048,-0.0992,0.0616,10.7238,48.4963,0.2645,-0.1976,0.3831,224.9219
20:00:16:067,-0.0765,-0.0557,10.8985,50.3876,0.3292,-0.1465,0.3413,224.3906
20:00:16:080,0.3221,-0.3035,10.8171,50.4296,0.3593,-0.266,0.2886,223.9219
20:00:16:101,0.7507,-0.8374,10.9213,50.0641,0.2946,-0.417,0.2111,223.5156
20:00:16:122,1.0344,-1.3258,11.4169,51.7519,0.1476,-0.4485,0.1698,223.1562
20:00:16:150,1.4163,-1.6921,11.6216,51.8461,0.0131,-0.3249,0.1762,222.8906
20:00:16:166,2.1669,-1.6933,11.1032,51.6666,-0.1294,-0.1696,0.1445,222.4688
20:00:16:186,2.0627,-2.0045,11.3283,51.4838,-0.7212,-0.3188,-0.3634,222.4688
20:00:16:202,0.8405,-2.8305,13.5908,52.5489,-0.8615,-0.3087,-0.4568,222.3281
20:00:16:221,0.6501,-3.0807,14.6167,53.7766,-0.5427,-0.0309,-0.1977,222.4375
20:00:16:244,1.9562,-2.4511,12.5469,53.8504,-0.0064,0.3009,0.1397,223.4844
20:00:16:267,3.3041,-1.06,9.2836,54.1174,0.2495,0.4219,0.2207,223.6875
20:00:16:282,4.2175,0.1478,7.2079,53.4109,0.0823,0.2525,-0.0728,223.6875
20:00:16:301,3.9733,0.5034,7.3264,54.6264,-0.3094,0.0693,-0.6129,223.625
20:00:16:320,2.3608,-0.1371,8.472,54.1923,-0.5907,0.1462,-1.0782,223.3594
20:00:16:343,0.2395,-0.7476,8.9724,54.9424,-0.6117,0.4437,-1.1924,223.4531
20:00:16:364,-1.2449,-0.7775,8.8084,56.0629,-0.4218,0.6743,-0.945,224.1875
20:00:16:381,-1.3359,-0.4531,7.9441,54.5768,-0.1366,0.6797,-0.5365,225.4844
20:00:16:448,-0.462,0.2699,7.2857,55.1395,0.1199,0.4842,-0.2275,226.8438
20:00:16:449,0.382,0.9188,6.8966,55.2317,0.3183,0.236,-0.1439,228
20:00:16:449,0.8788,1.2276,6.5399,55.9157,0.4232,0.0464,-0.219,228.6719
20:00:16:469,1.1805,1.224,6.6716,58.4122,0.3649,-0.0509,-0.3807,228.9375
20:00:16:481,0.7136,1.0744,7.4964,56.6975,0.2117,-0.0192,-0.5628,229.0938
20:00:16:500,-0.28,0.9128,8.648,58.8078,0.1358,0.086,-0.639,229.3125
20:00:16:521,-0.9803,0.6985,9.456,57.3768,0.2173,0.1926,-0.5647,229.7188
20:00:16:549,-1.1647,0.6159,9.7505,57.0572,0.3926,0.2328,-0.423,231.0469
20:00:16:568,-1.1563,0.513,9.5422,60.007,0.4996,0.2131,-0.3266,231.375
20:00:16:580,-1.5932,0.4531,9.8152,59.3497,0.4416,0.1899,-0.2624,232.125
20:00:16:601,-1.5872,0.0952,10.3742,58.0327,0.3326,0.1276,-0.1788,232.4688
20:00:16:621,-1.6172,-0.5441,11.1966,59.7195,0.2328,0.0256,-0.0912,232.625
20:00:16:640,-1.2904,-0.975,11.7832,58.0516,0.1521,0.0527,0.0603,232.8438
20:00:16:667,-0.9025,-0.8865,11.509,57.7945,0.0509,0.2216,0.1845,232.9844
20:00:16:686,-0.541,-0.5584,10.9763,60.8612,-0.1712,0.3548,0.2204,233
20:00:16:703,-0.3794,-0.4004,11.4468,58.3731,-0.457,0.3105,0.1424,232.8438
20:00:16:720,-0.4237,-0.7823,12.9899,59.4041,-0.5931,0.0956,-0.0049,232.6094
20:00:16:742,-1.3071,-1.7543,14.1977,59.808,-0.4623,-0.0431,-0.1221,232.4062
20:00:16:765,-2.0278,-2.651,13.7608,57.976,-0.1374,-0.0197,-0.0198,232.3594
20:00:16:783,-1.7453,-2.6294,11.454,59.2169,0.0935,0.0607,0.247,232.4688
20:00:16:801,-0.7828,-1.7436,9.4895,57.5925,0.0253,-0.0016,0.4193,232.5938
20:00:16:821,-0.1316,-0.8278,8.7593,57.4112,-0.1941,-0.1118,0.3783,232.4688
20:00:16:841,0.1318,-0.3765,8.9556,58.2969,-0.3167,-0.2173,0.2673,232.2969
20:00:16:866,0.0097,-0.0521,9.0442,56.5558,-0.241,-0.3316,0.1855,231.8438
20:00:16:882,-0.5051,0.2077,8.8862,56.6026,-0.0168,-0.5297,0.2039,231.25
20:00:16:901,-0.2261,0.3621,8.3367,57.6923,0.2653,-0.7286,0.3251,231
20:00:16:921,0.7268,0.8829,8.1631,56.6,0.5127,-0.8432,0.4444,230.7969
20:00:16:941,1.7563,1.3893,7.2258,56.6378,0.7324,-0.8229,0.4183,230.4688
20:00:16:968,1.8664,1.7843,6.0981,56.2708,0.7177,-0.8357,0.1994,229.9688
20:00:16:982,1.433,1.6514,6.176,55.5188,0.4812,-0.7886,-0.0164,229.375
20:00:17:000,1.1565,1.0481,7.1025,56.1512,0.2677,-0.5832,-0.1194,228.9531
20:00:17:020,0.8596,0.8063,7.7813,56.3389,0.1731,-0.3611,-0.1298,228.7969
20:00:17:044,0.9913,0.7392,8.2984,53.9185,0.1124,-0.2996,-0.1192,228.8438
20:00:17:065,0.9698,0.5046,9.2657,55.5931,0.029,-0.3529,-0.1724,228.9688
20:00:17:082,0.4466,0.3382,10.8889,54.3774,-0.0107,-0.2522,-0.1951,229.0938
20:00:17:106,0.88,0.1083,11.7604,53.4077,0.0919,-0.0599,-0.1498,229.2344
20:00:17:119,2.0807,0.3717,12.4224,52.7832,0.2754,-0.032,-0.1745,229.4531
20:00:17:141,3.2395,0.7979,12.5613,52.7586,0.5185,-0.122,-0.3959,229.6406
20:00:17:166,2.6301,0.5549,11.5114,54.2428,0.6677,-0.2567,-0.7833,229.7969
20:00:17:181,1.4007,-0.5716,10.5023,52.9701,0.5494,-0.4186,-0.9477,230.25
20:00:17:205,1.1649,-1.3761,10.2653,53.3843,0.2216,-0.4306,-0.7759,231.0625
20:00:17:220,1.7503,-1.3976,10.6974,51.9719,-0.1569,-0.4474,-0.5775,232.0938
20:00:17:240,1.9897,-1.3928,12.1842,50.8033,-0.486,-0.5204,-0.5919,232.9219
20:00:17:266,1.3145,-1.9088,14.3282,50.2888,-0.6138,-0.2852,-0.6185,233.625
20:00:17:283,1.1338,-2.6426,14.7927,51.5685,-0.3345,0.212,-0.4342,234.3906
20:00:17:302,1.5456,-2.7599,12.371,50.0947,0.1635,0.6109,-0.1026,235.1875
20:00:17:321,2.5188,-2.0117,8.7952,49.9678,0.4147,0.6871,0.1719,235.7031
20:00:17:340,3.2407,-0.7452,6.3076,50.5341,0.2133,0.5063,0.1493,235.7812
20:00:17:365,2.8109,0.2664,5.8372,49.2436,-0.2945,0.2749,-0.1463,235.6719
20:00:17:382,1.6258,0.3274,7.1205,49.7589,-0.747,0.1952,-0.4552,235.375
20:00:17:400,0.2731,0.0221,8.2074,50.5895,-0.8802,0.3324,-0.5575,235.3438
20:00:17:421,-0.7529,0.0401,8.6803,48.6353,-0.7547,0.4429,-0.4172,235.7656
20:00:17:440,-0.8307,0.3741,8.5809,47.6538,-0.4908,0.4746,-0.1461,236.4844
20:00:17:466,-0.3327,0.8386,8.3535,47.4541,-0.1933,0.4187,0.0582,237.125
20:00:17:485,0.2072,1.1438,7.7202,48.286,0.0719,0.4299,0.1328,237.5938
20:00:17:500,0.4359,1.3737,6.9265,46.152,0.1904,0.4677,0.0998,237.5469
20:00:17:520,0.5244,1.5125,6.4657,47.3265,0.1438,0.4613,0.009,237.3906
20:00:17:541,0.2659,1.6047,6.7087,46.8347,-0.0141,0.3856,-0.121,237.25
20:00:17:565,-0.3411,1.5676,7.9967,46.3743,-0.1853,0.339,-0.214,237.2344
20:00:17:583,-0.8199,1.2743,10.5047,47.3792,-0.0005,0.5023,-0.1165,237.3594
20:00:17:601,-0.8714,1.2037,10.4484,45.7292,0.204,0.5209,-0.0454,237.3594
20:00:17:620,-0.7397,1.0469,9.96,44.2221,0.3105,0.4434,0.0279,237.625
20:00:17:641,-0.6032,0.9595,9.8439,42.934,0.2607,0.241,0.0609,237.8594
20:00:17:671,-0.3423,0.7655,10.5729,43.5936,0.1422,0.0072,0.0617,238.0156
20:00:17:682,0.194,0.4352,11.436,42.5842,0.0911,-0.1582,0.0329,237.9688
20:00:17:701,0.5831,0.343,11.6551,43.1381,0.1265,-0.2013,-0.0299,237.8906
20:00:17:721,0.8034,0.4759,10.9907,43.2673,0.1084,-0.1611,-0.1317,237.7656
20:00:17:744,0.9674,0.5441,10.3634,42.1989,-0.0647,-0.1382,-0.3349,237.7812
20:00:17:767,0.5951,-0.1335,10.3658,42.9521,-0.4061,-0.2703,-0.6486,237.8594
20:00:17:783,-0.6308,-1.3473,12.3135,42.7344,-0.8543,-0.5196,-0.876,238.0938
20:00:17:800,-2.1618,-2.4606,15.6654,40.2763,-1.0498,-0.5001,-0.823,238.3281
20:00:17:820,-2.3905,-3.3549,17.0995,41.1113,-0.6693,-0.1241,-0.4475,239.0938
20:00:17:840,-2.1403,-3.3202,14.5581,40.605,-0.1081,0.3388,0.0803,240.1719
20:00:17:865,-1.3993,-2.086,11.3881,40.045,0.1406,0.5265,0.6063,241.125
20:00:17:882,-0.0478,-1.1103,9.5015,39.4135,0.1806,0.4035,0.8572,241.6875
20:00:17:899,0.2898,-0.3358,8.3619,38.1592,0.2027,0.1737,0.8441,241.6094
20:00:17:923,-0.0214,0.1897,7.4748,39.1181,0.2413,-0.0461,0.8249,240.9531
20:00:17:939,-0.1376,0.3801,6.8296,39.0444,0.2922,-0.2106,0.8798,239.9688
20:00:17:960,0.0013,0.5788,6.2705,36.7012,0.3153,-0.3252,0.9592,239
20:00:17:983,0.2288,0.8721,6.0958,38.5609,0.3017,-0.4335,1.0178,238.0781
20:00:18:001,0.6478,1.2324,6.2215,38.5609,0.3023,-0.5523,1.0159,237.0469
20:00:18:020,1.1182,1.503,6.4118,36.5286,0.3316,-0.669,0.9238,235.3438
20:00:18:040,1.3325,1.5042,6.65,38.5778,0.3446,-0.723,0.7613,234.2031
20:00:18:066,1.2224,1.3665,7.3072,36.1918,0.2767,-0.7292,0.5783,233.0469
20:00:18:083,1.1972,1.175,8.454,37.2196,0.1691,-0.6676,0.4047,232.0469
20:00:18:100,1.0476,0.8745,9.9971,37.3102,0.1183,-0.5145,0.2271,231.25
20:00:18:120,0.9231,0.5405,11.1248,35.4879,0.1968,-0.2724,0.0707,230.7031
20:00:18:141,0.8393,0.1538,11.1786,34.7062,0.3374,0.0061,-0.0385,230.3281
20:00:18:166,0.977,-0.2376,10.4819,35.7262,0.3766,0.1268,-0.1069,230.1562
20:00:18:185,1.3145,-0.4842,10.4628,35.14,0.2546,0.0386,-0.1612,230.1094
20:00:18:204,1.4115,-0.75,11.5689,35.2495,0.1148,-0.1593,-0.2132,230.1562
20:00:18:220,1.518,-1.0373,12.7696,34.8027,0.1454,-0.2831,-0.1599,230.2656
20:00:18:241,2.8648,-0.8889,12.9875,35.0676,0.3926,-0.4346,0.0574,230.4531
20:00:18:266,6.0108,0.1371,11.6503,33.8208,0.6964,-0.7507,0.1352,230.6875
20:00:18:283,8.0171,1.4335,9.9756,34.4585,0.7252,-1.2583,-0.358,230.7344
20:00:18:303,6.3866,1.2635,10.367,33.0126,0.2655,-1.6115,-1.2406,230.6406
20:00:18:320,2.7702,-0.8805,13.3035,34.1295,-0.3497,-1.0088,-1.6728,230.4844
20:00:18:340,0.631,-2.2392,14.7125,33.8997,-0.502,0.3337,-1.3176,231.375
20:00:18:367,0.8153,-2.0716,12.681,32.8913,-0.1584,1.2229,-0.6039,233.25
20:00:18:383,2.4901,-1.2145,9.8044,33.448,0.2868,1.0205,-0.0755,235.0625
20:00:18:401,3.51,-0.2161,7.6604,33.5002,0.5276,0.2341,-0.0377,236.1875
20:00:18:421,2.6936,0.6075,6.893,33.1822,0.4751,-0.3963,-0.3125,236.4375
20:00:18:440,1.2475,0.4711,7.081,33.0593,0.2421,-0.5073,-0.5271,236.3438
20:00:18:465,0.1019,0.2209,7.2857,32.9748,0.0844,-0.2431,-0.4843,236.4531
20:00:18:525,-0.4021,0.5237,7.0127,35.0999,0.0509,-0.0165,-0.2875,236.9531
20:00:18:525,-0.2321,1.0026,6.9493,35.6791,0.0786,0.0413,-0.0616,237.5625
20:00:18:525,0.5891,1.394,6.9816,35.187,0.1614,0.0376,0.0782,238
20:00:18:539,1.1146,1.7891,6.9206,34.9664,0.2847,-0.0168,0.0654,238.1719
20:00:18:561,1.269,2.062,6.5016,34.2954,0.3942,-0.1217,-0.0262,238.125
20:00:18:586,0.9901,2.2643,6.4166,32.6934,0.3678,-0.3036,-0.1421,237.9531
20:00:18:601,0.6094,2.4391,7.2833,33.7974,0.2266,-0.3766,-0.2033,237.9219
20:00:18:619,0.4083,2.6151,8.6827,32.9329,0.1321,-0.245,-0.1932,238.0625
20:00:18:640,0.3808,2.7635,9.5757,32.2052,0.1505,0.0485,-0.1626,238.2812
20:00:18:666,0.4742,2.9048,9.6811,34.0083,0.167,0.4016,-0.145,238.5
20:00:18:683,0.5364,2.9646,9.5015,32.3752,0.0839,0.6924,-0.1631,238.6562
20:00:18:700,0.1055,2.7312,9.5661,32.6136,-0.0668,0.7955,-0.1873,238.75
20:00:18:720,-0.7936,2.2643,10.6459,34.1135,-0.1846,0.6328,-0.1183,238.8594
20:00:18:741,-0.3123,2.1326,12.8594,32.5709,-0.119,0.3683,0.1054,239
20:00:18:768,1.0404,2.3972,14.503,33.8575,0.1244,0.3169,0.1951,239.0781
20:00:18:784,1.378,2.0668,13.8422,34.9668,0.388,0.4783,0.0598,239.0625
20:00:18:800,0.6094,1.7484,12.0573,32.5002,0.384,0.6789,-0.0624,238.8281
20:00:18:820,0.1893,1.2444,10.8902,33.448,0.0804,0.6882,-0.1058,238.5938
20:00:18:840,-0.687,0.756,11.6084,34.8918,-0.3124,0.4701,-0.1229,238.5
20:00:18:867,-1.5034,-0.0605,13.5477,32.0804,-0.4509,0.3649,0.03,238.5
20:00:18:884,-1.4101,-0.7344,13.9248,33.6469,-0.1414,0.5169,0.4074,238.6562
20:00:18:901,-0.7756,-0.6231,11.4396,30.8478,0.3033,0.5891,0.8151,238.625
20:00:18:920,0.2539,0.0485,8.6049,34.7629,0.457,0.2746,1.0729,238.125
20:00:18:941,1.0368,0.671,7.5155,31.6128,0.2464,-0.1867,1.0665,237.1094
20:00:18:969,0.6011,0.9762,9.0263,33.1525,-0.2365,-0.221,0.8436,235.8281
20:00:18:990,0.2802,0.8913,8.9077,33.5583,-0.1571,0.0184,0.8556,235.8281
20:00:18:999,0.2288,1.0648,8.144,34.632,0.0679,0.1369,0.965,234.6562
20:00:19:020,0.6849,1.4431,7.2593,33.7657,0.3121,0.0557,1.0673,233.6406
20:00:19:039,1.1218,1.8621,6.5854,33.3141,0.5002,-0.1406,1.0641,231.7969
20:00:19:061,1.2834,2.1326,6.1149,34.2739,0.5779,-0.3153,0.9925,230.6719
20:00:19:084,1.6761,2.3697,6.2813,34.7555,0.5598,-0.3888,0.9224,229.4219
20:00:19:105,2.0519,2.5911,6.4118,34.7398,0.5092,-0.3118,0.8044,228.2188
20:00:19:122,2.1417,2.724,6.4154,35.5742,0.4051,-0.2253,0.6361,225.9688
20:00:19:140,2.174,2.8282,6.8403,34.1897,0.2243,-0.1806,0.4755,225.4844
20:00:19:166,2.101,2.8318,7.7992,34.1042,0.044,-0.131,0.328,224.6562
20:00:19:184,1.5875,2.7719,8.8599,36.911,-0.0823,0.0083,0.214,224.0156
20:00:19:201,1.4319,2.7671,9.4872,34.7729,-0.1411,0.1878,0.1802,223.5625
20:00:19:219,1.7239,2.7025,9.8116,35.0046,-0.1672,0.1923,0.1347,223.2656
20:00:19:240,2.0232,2.6414,10.5382,34.7016,-0.204,0.0197,0.0593,223.1719
20:00:19:268,2.204,2.3493,11.5761,33.9646,-0.1989,-0.2232,-0.0435,222.9688
20:00:19:287,2.0723,1.7244,12.3362,34.9501,-0.1539,-0.4082,-0.1266,222.8125
20:00:19:307,2.459,0.8517,12.4811,35.088,-0.1497,-0.421,-0.0598,222.7656
20:00:19:318,3.7961,0.4447,12.4799,33.6094,-0.2426,-0.4306,0.0614,222.8594
20:00:19:340,5.2614,0.2795,13.3717,35.3076,-0.38,-0.6639,-0.0246,223.0781
20:00:19:366,5.168,-0.088,15.0501,34.4757,-0.3928,-0.7827,-0.3035,223.2031
20:00:19:384,4.0367,-0.9643,15.2596,36.2889,-0.127,-0.4551,-0.4401,223.2031
20:00:19:400,3.1641,-1.3186,12.754,34.9828,0.228,0.1553,-0.2904,223.3594
20:00:19:420,3.4406,-0.9104,8.8838,34.732,0.3215,0.5497,-0.0321,224.125
20:00:19:440,3.6094,0.4639,6.4142,36.1029,0.0235,0.5241,0.054,224.5625
20:00:19:468,3.2311,1.8058,6.2394,36.3417,-0.3981,0.2948,-0.084,224.6406
20:00:19:483,2.3129,2.1997,7.1911,36.4249,-0.6234,0.1516,-0.3471,224.5156
20:00:19:499,1.1529,2.0848,7.7286,36.4065,-0.5721,0.2149,-0.4515,224.4844
20:00:19:519,0.6789,2.2152,7.4844,35.7763,-0.3862,0.3241,-0.3192,224.7969
20:00:19:539,0.9674,2.6378,7.166,36.2858,-0.1475,0.2799,-0.1615,225.375
20:00:19:559,1.4654,3.137,6.7422,35.4406,0.0959,0.1641,-0.1306,225.8594
20:00:19:582,1.8113,3.4758,6.0934,35.8444,0.2591,0.0432,-0.2742,226.1406
20:00:19:600,1.7587,3.5189,5.5571,36.3337,0.2533,-0.0644,-0.5493,226.2656
20:00:19:619,0.9901,3.0424,5.8803,36.4141,0.0418,-0.0916,-0.8291,226.4375
20:00:19:640,0.0935,2.3074,7.3144,35.7082,-0.2173,-0.0232,-0.9389,226.8438
20:00:19:668,-0.5685,1.8477,9.1256,36.6787,-0.3462,0.1505,-0.834,227.625
20:00:19:686,-0.6032,1.977,10.6962,36.2215,-0.2546,0.3777,-0.5793,228.6875
20:00:19:701,0.0241,2.3804,10.9488,37.946,-0.0011,0.5486,-0.3631,229.1875
20:00:19:719,0.3054,2.8234,10.4077,36.4184,0.2099,0.5516,-0.2736,230.5625
20:00:19:739,0.3437,3.1562,10.0737,37.2886,0.2871,0.5257,-0.2419,231.0469
20:00:19:766,0.4011,3.2819,9.7553,35.9395,0.273,0.5268,-0.2478,231.3281
20:00:19:783,-0.0119,3.3848,9.8295,37.3395,0.1755,0.4653,-0.2552,231.5469
20:00:19:802,-0.1795,3.4698,10.8051,40.1935,0.0567,0.2924,-0.1972,231.7344
20:00:19:819,0.4287,2.9239,12.2608,38.4092,0.0192,0.0504,-0.1583,231.9688
20:00:19:838,0.473,2.3362,13.343,37.9155,0.0743,-0.1086,-0.1665,232.1719
20:00:19:860,0.1869,2.0201,13.4687,39.5268,0.1598,-0.0884,-0.129,232.3438
20:00:19:882,-0.0047,1.9483,12.7983,38.289,0.1508,-0.0098,-0.0978,232.5312
20:00:19:903,-0.2058,1.6394,12.8821,38.2897,0.025,-0.0109,-0.1056,232.7031
20:00:19:919,-0.8115,1.0205,13.5238,40.0022,0.0168,0.061,-0.1037,232.8125
20:00:19:941,-1.7297,0.2867,12.4847,40.7735,0.2072,0.2421,-0.0137,232.9219
20:00:19:967,-2.2971,-0.3573,10.3419,38.0809,0.338,0.3279,0.2143,233.0469
20:00:19:986,-2.266,-0.3801,8.5019,39.9191,0.289,0.236,0.5437,233.0625
20:00:20:002,-1.4161,0.0353,7.5574,37.8324,0.1308,-0.028,0.8159,232.75
20:00:20:019,-0.462,0.4962,7.1636,39.6719,-0.0258,-0.2935,0.911,232.125
20:00:20:039,0.0061,0.8913,7.1253,38.0394,-0.1387,-0.4764,0.8604,231.1875
20:00:20:062,-0.0334,1.084,7.0762,39.4591,-0.1779,-0.5409,0.7829,230.1719
20:00:20:086,0.0396,1.2193,7.1169,38.9832,-0.2144,-0.4384,0.7655,229.25
20:00:20:101,0.3976,1.2324,7.1432,38.5851,-0.3153,-0.0402,0.7996,228.4688
20:00:20:119,0.8094,1.3055,6.9864,39.4047,-0.5036,0.4842,0.8873,227.6562
20:00:20:140,1.2643,1.8441,7.5107,39.1002,-0.6208,0.6852,0.9999,226.7812
20:00:20:167,1.8377,2.4068,8.4481,39.8873,-0.4724,0.4173,0.964,226.2969
20:00:20:183,1.9143,2.3972,9.0682,39.4206,-0.1193,-0.0192,0.7861,225.2656
20:00:20:202,1.9263,2.0883,8.8946,39.4206,0.2165,-0.2929,0.6409,224.125
20:00:20:220,1.7994,1.9698,8.4636,39.9118,0.3457,-0.3385,0.5315,223.125
20:00:20:240,1.6653,1.9914,8.2553,38.7137,0.3135,-0.2122,0.4486,222.375
20:00:20:258,1.5719,2.2093,8.3284,40.2043,0.1811,-0.0423,0.3605,221.6875
20:00:20:278,1.3708,2.4104,8.8216,39.8707,0.0008,0.0677,0.263,220.8594
20:00:20:301,0.9458,2.2943,10.1132,39.7433,-0.1318,0.0434,0.1786,220.4688
20:00:20:319,0.7507,2.1015,11.4671,38.3308,-0.1137,-0.0551,0.1589,220.1562
20:00:20:339,0.6059,1.7268,12.1244,38.7818,-0.0035,-0.1824,0.1637,219.9688
20:00:20:360,0.771,0.5225,12.1208,40.9174,0.1263,-0.1209,0.4508,219.8125
20:00:20:385,1.7383,0.3059,11.3546,40.1743,0.0828,-0.0061,0.6444,219.8125
20:00:20:401,2.4434,0.4435,10.8447,40.4945,-0.0327,-0.0732,0.691,219.625
20:00:20:419,2.4506,0.5453,11.1703,39.3015,-0.1979,-0.3952,0.6249,219.3594
20:00:20:440,2.3728,0.4352,13.0593,38.03,-0.3092,-0.6325,0.5783,218.8594
20:00:20:459,2.7403,0.173,14.497,38.1764,-0.1635,-0.4067,0.5661,218.125
20:00:20:484,3.1904,0.1658,13.5884,39.3725,0.1726,0.1406,0.5272,216.6719
20:00:20:501,3.6609,0.4794,10.4376,38.1839,0.3963,0.5385,0.4034,216.125
20:00:20:521,3.6082,1.1295,7.8974,39.4712,0.2826,0.4655,0.1594,215.2031
20:00:20:598,3.3089,1.5437,7.1707,38.6703,-0.041,0.1737,-0.1282,214.5781
20:00:20:599,2.6828,1.6083,7.9333,39.3836,-0.3033,0.0216,-0.3943,214.3594
20:00:20:599,1.9741,1.485,8.1763,38.5637,-0.3292,0.1617,-0.5551,214.4531
20:00:20:599,1.2978,1.4024,7.2665,38.3942,-0.2272,0.3619,-0.6092,214.4531
20:00:20:618,0.7639,1.5269,6.0419,37.0913,-0.1473,0.4591,-0.5788,215.0312
20:00:20:638,0.5628,1.7172,5.3212,37.9346,-0.1371,0.4072,-0.5048,215.375
20:00:20:658,0.7567,2.0273,5.3236,37.4532,-0.1553,0.2671,-0.4283,216.0781
20:00:20:680,1.1445,2.1255,5.4601,39.213,-0.1638,0.1646,-0.4214,216.7344
20:00:20:701,1.0201,2.3349,4.8747,35.544,-0.2621,0.1092,-0.4651,217.2656
20:00:20:718,0.7507,2.9096,6.0036,36.9721,-0.5105,-0.0421,-0.5061,217.75
20:00:20:741,0.6501,2.7887,8.4732,38.8244,-0.6133,-0.0666,-0.5876,218.25
20:00:20:767,0.2359,2.6223,10.5933,35.8647,-0.4567,0.0509,-0.6022,218.7656
20:00:20:784,0.3078,2.4559,11.6671,35.6986,-0.1244,0.2682,-0.5165,219.3906
20:00:20:804,0.0863,2.657,11.0781,34.9368,0.1742,0.4339,-0.4624,220.5156
20:00:20:820,-0.3411,2.7037,10.707,34.9368,0.2469,0.3697,-0.4262,221.1406
20:00:20:841,-1.3407,1.9387,11.5605,34.215,0.1745,0.175,-0.3759,221.6875
20:00:20:858,-2.412,1.0684,13.2616,34.8341,0.1236,-0.0285,-0.1319,222.1562
20:00:20:879,-2.4839,0.683,14.8693,34.215,0.2392,-0.1531,0.2912,222.5625
20:00:20:904,-1.5956,0.8266,15.1734,35.9712,0.4887,0.0219,0.6862,222.875
20:00:20:921,-0.4272,1.5987,13.4364,35.1829,0.6517,0.4994,0.9182,222.7969
20:00:20:938,0.4909,2.5935,11.0278,34.1251,0.563,0.8794,0.9096,222.1875
20:00:20:958,0.8812,2.9419,9.3136,34.5278,0.2599,0.8615,0.655,221.2344
20:00:20:983,0.7998,2.4451,8.9341,34.2557,-0.0961,0.3992,0.3128,220.0469
20:00:21:005,0.3987,1.406,10.191,32.63,-0.3196,-0.2277,-0.003,219.0312
20:00:21:021,-0.4716,0.1502,10.9464,33.3253,-0.3252,-0.4637,-0.2078,218.4531
20:00:21:040,-1.4675,-0.8565,10.2712,34.1966,-0.2812,-0.4802,-0.1996,218.2969
20:00:21:067,-1.2389,-1.0971,9.3758,35.5697,-0.3446,-0.4794,0.0441,218.3594
20:00:21:084,0.0193,-0.7105,8.9604,32.3227,-0.4671,-0.3851,0.295,218.7812
20:00:21:099,1.2451,0.1227,8.6133,31.8435,-0.5459,-0.2072,0.3682,218.9375
20:00:21:118,1.6425,0.823,7.9644,33.7979,-0.5611,-0.0607,0.2566,218.7812
20:00:21:138,1.3552,1.011,7.2953,30.3482,-0.5396,-0.0085,0.1125,218.4375
20:00:21:158,0.9171,1.0912,7.0307,30.9662,-0.5193,0.0096,0.0617,218.125
20:00:21:183,0.6741,1.1355,6.9852,30.2076,-0.4964,0.0333,0.0899,217.9688
20:00:21:202,0.6202,1.2516,7.2713,31.7841,-0.4554,-0.0122,0.1408,217.9219
20:00:21:219,0.6489,1.2839,7.8998,30.3613,-0.3585,-0.0767,0.1821,217.8906
20:00:21:241,0.6406,1.2719,8.4505,31.6707,-0.1976,-0.1012,0.2068,217.7969
20:00:21:257,0.5915,1.3258,8.6384,29.6247,-0.0386,-0.1145,0.2319,217.6406
20:00:21:279,0.7555,1.3533,9.0155,30.2547,0.0719,-0.1566,0.2604,217.4531
20:00:21:304,0.7842,1.4587,9.5757,29.8476,0.1667,-0.1763,0.25,217.2188
20:00:21:320,0.6465,1.3665,10.1384,28.9253,0.2655,-0.0882,0.2305,216.9375
20:00:21:341,0.4359,1.2444,10.6998,27.7692,0.3523,0.1252,0.2425,216.625
20:00:21:369,0.3736,1.0636,10.7441,28.064,0.4533,0.3561,0.2553,216.3438
20:00:21:387,0.3676,0.8745,9.8989,29.2755,0.4831,0.4583,0.2223,215.9062
20:00:21:403,0.3293,0.483,9.1819,28.9406,0.3175,0.1963,0.1291,215.5625
20:00:21:418,0.0767,-0.1454,10.4496,28.7984,0.0165,-0.2663,0.0872,215.2812
20:00:21:438,0.4766,-0.8326,12.5769,28.9391,-0.1566,-0.4096,0.1983,215.0938
20:00:21:459,1.4725,-0.829,13.1634,28.0161,-0.1478,-0.27,0.3059,215.0156
20:00:21:484,2.5452,-0.3561,12.6415,27.3792,-0.1459,-0.2298,0.209,214.8125
20:00:21:499,2.5978,-0.2161,12.5876,27.0882,-0.2578,-0.3305,-0.1365,214.4844
20:00:21:518,1.445,-0.9284,13.3981,28.3477,-0.3662,-0.1853,-0.4587,214.2656
20:00:21:539,0.4395,-1.7555,13.1323,27.0531,-0.2557,0.2884,-0.4409,214.2969
20:00:21:558,0.6585,-1.5604,11.1032,26.3448,-0.0149,0.6781,-0.1618,214.6875
20:00:21:585,1.9861,-0.5836,8.5881,26.8406,0.1297,0.5673,0.0401,215.2969
20:00:21:604,2.9582,0.6028,7.1528,25.534,0.0772,0.0445,-0.0853,215.6562
20:00:21:621,2.8768,1.2635,7.1935,26.6426,-0.1507,-0.3425,-0.4188,215.6719
20:00:21:638,2.2207,1.1474,7.8292,26.0042,-0.3699,-0.2703,-0.717,215.7344
20:00:21:658,1.354,0.9751,7.6819,27.9567,-0.4378,0.1297,-0.8497,216.2188
20:00:21:686,0.6501,0.9176,6.9948,26.0709,-0.4011,0.4842,-0.8097,217.0312
20:00:21:703,0.3868,1.2097,6.3148,25.3576,-0.3334,0.5055,-0.6904,218.0469
20:00:21:720,0.3042,1.582,6.4657,25.4668,-0.2594,0.2695,-0.5919,219
20:00:21:738,0.2623,1.8429,6.9936,23.8739,-0.1209,0.0029,-0.5264,219.7812
20:00:21:759,0.4694,2.2128,7.9393,23.2769,0.0871,-0.3238,-0.5194,220.4844
20:00:21:784,0.1857,2.0967,8.7689,25.286,0.0272,-0.3206,-0.5761,221.6406
20:00:21:805,-0.0849,1.9088,9.6571,25.9982,-0.0818,-0.2005,-0.5727,221.6406
20:00:21:819,-0.0765,1.6586,10.6244,25.4827,-0.1606,-0.1073,-0.4869,222.8594
20:00:21:838,-0.0274,1.8729,11.4659,24.0692,-0.1137,-0.0325,-0.3591,222.8594
20:00:21:858,0.0947,2.0117,12.1363,24.4854,0.0671,0.0812,-0.2896,223.5156
20:00:21:884,-0.0825,1.5676,12.0142,23.378,0.2874,0.1801,-0.3144,224.0625
20:00:21:904,-0.7493,0.9511,11.7353,25.9425,0.4056,0.2416,-0.3024,224.4844
20:00:21:920,-1.1814,0.2915,11.8299,24.8362,0.4591,0.2498,-0.1751,224.8125
20:00:21:938,-1.118,-0.0652,11.375,24.5398,0.5073,0.3079,-0.0044,225.2969
20:00:21:959,-1.0916,0.0856,10.2533,23.7162,0.392,0.4208,0.1195,225.5469
20:00:21:983,-0.7577,0.234,9.3423,23.567,0.0613,0.437,0.1336,225.6094
20:00:22:004,-0.4057,0.1167,9.4021,22.8798,-0.4322,0.1433,0.0127,225.5625
