Time,Acc_X,Acc_Y,Acc_Z,Meg,Gyr_X,Gyr_Y,Gyr_Z,Ore
13:40:04:316,-2.4204,3.6302,9.3207,57.0634,0.3436,-0.6725,0.5949,78.5312
13:40:04:370,-3.3925,2.0058,9.2357,57.1428,-0.2013,-0.814,-0.3181,77.1875
13:40:04:390,-4.6434,0.6231,10.634,57.3446,-0.6003,-0.749,-0.1641,77.1875
13:40:04:417,-5.7065,-0.8074,12.1902,57.6949,-0.7417,-0.5426,0.3001,193.7969
13:40:04:429,-6.1518,-1.0229,12.4559,56.9143,-0.633,-0.1756,0.9331,193.9219
13:40:04:449,-4.8553,-0.2364,11.3726,57.3351,-0.4389,0.1866,1.3696,193.4844
13:40:04:469,-3.3123,0.9487,10.0354,56.9317,-0.2993,0.1498,1.4125,192.9844
13:40:04:488,-2.2911,1.4994,9.2465,55.8553,-0.2519,-0.3972,1.1171,191.5156
13:40:04:519,-2.1164,1.1295,9.5745,57.0224,-0.2093,-0.9375,0.7496,189.8594
13:40:04:528,-2.3019,0.2029,10.2449,55.2454,-0.0794,-1.1676,0.5739,188.3281
13:40:04:553,-1.9667,-0.4782,10.1096,56.4802,0.1076,-1.1975,0.5334,187.2969
13:40:04:570,-1.7189,-0.2245,9.5051,56.7256,0.285,-0.9509,0.5616,186.6562
13:40:04:587,-1.4005,0.337,8.5319,55.0468,0.396,-0.3591,0.6245,186.1406
13:40:04:621,-1.4568,0.7225,7.8387,55.5749,0.4871,0.3309,0.7491,185.6562
13:40:04:636,-1.8805,1.2097,7.5371,56.7106,0.5737,0.6313,0.9243,184.7969
13:40:04:646,-1.8949,1.6346,6.5997,55.811,0.5097,-0.0403,1.0602,183.9688
13:40:04:668,-1.4759,2.0405,6.3723,57.32,0.315,-0.5692,1.0423,182.9062
13:40:04:686,-0.4787,2.1805,6.9828,57.281,0.1364,-0.3383,0.9145,181.8281
13:40:04:705,-0.1675,2.3757,7.3838,56.9283,-0.0357,-0.1402,0.78,180.75
13:40:04:734,-0.2154,2.6474,7.7549,56.5742,-0.1942,0.0417,0.6844,179.7656
13:40:04:745,-0.2022,2.5959,8.0183,56.088,-0.3036,0.0984,0.6292,178.875
13:40:04:765,-0.1974,2.4642,8.5055,56.9096,-0.3223,0.0758,0.5877,178.1094
13:40:04:784,-0.3674,2.3984,8.8503,58.1208,-0.2258,0.0577,0.5816,177.3438
13:40:04:804,-0.4332,2.4918,8.9568,55.2678,-0.0695,0.0249,0.5946,176.625
13:40:04:825,-0.14,2.7097,8.8611,57.4346,0.0495,-0.161,0.5214,175.9688
13:40:04:847,0.4442,2.8617,9.0275,57.926,0.069,-0.5847,0.3379,175.9688
13:40:04:865,1.0596,2.8138,10.1958,57.1147,0.0522,-1.0691,0.0982,175.2656
13:40:04:884,1.05,2.8234,12.426,56.2498,0.089,-1.2718,-0.1077,174.7031
13:40:04:911,0.7878,2.6294,14.1415,57.9616,0.1683,-0.8153,-0.175,174.4062
13:40:04:931,1.1625,2.2536,13.9188,55.4195,0.1987,0.1328,-0.1559,174.4531
13:40:04:949,1.384,2.5325,12.1279,57.3066,0.1209,0.7347,-0.0957,174.9219
13:40:04:967,1.2439,2.955,10.3467,57.394,-0.1025,0.5557,-0.0334,175.0625
13:40:04:983,1.4043,2.8701,9.6643,57.5943,-0.3742,-0.0289,-0.0485,175.2344
13:40:05:003,1.7682,2.3002,10.5909,57.7531,-0.5459,-0.5788,-0.1468,175.25
13:40:05:025,1.9095,1.5844,12.5601,56.4995,-0.5358,-0.8393,-0.2166,175.2031
13:40:05:047,1.8616,0.9104,13.4268,56.6914,-0.3433,-0.6198,-0.1854,175.2188
13:40:05:063,2.3943,0.5716,12.347,56.6448,-0.057,-0.0406,-0.2248,175.4219
13:40:05:083,2.4015,1.078,10.5107,55.4308,0.2157,0.4984,-0.2842,175.7344
13:40:05:107,2.0938,1.8274,8.9544,54.6843,0.4133,0.4295,-0.2773,176
13:40:05:123,2.2746,2.1219,7.4018,57.7774,0.4496,-0.3743,-0.3167,176.25
13:40:05:143,2.6577,2.2081,6.832,56.512,0.3838,-0.9892,-0.464,176.5312
13:40:05:164,2.6924,2.3972,6.996,56.5061,0.3276,-1.2161,-0.6043,176.8281
13:40:05:187,2.4194,2.4259,7.2713,56.2689,0.2506,-1.1567,-0.7101,177.2344
13:40:05:203,2.4087,2.3828,7.2665,55.9216,0.1103,-0.7493,-0.8203,177.9219
13:40:05:222,1.9885,2.8341,6.9624,55.5292,-0.0913,-0.1588,-0.8848,179.2656
13:40:05:242,1.2104,3.1777,6.6572,54.8303,-0.33,0.2508,-0.8414,180.2344
13:40:05:263,0.4897,3.0592,6.6931,54.6284,-0.5257,0.3418,-0.673,181.2969
13:40:05:283,0.473,2.7348,7.0702,55.3254,-0.6109,0.5054,-0.5159,182.2812
13:40:05:303,0.4742,2.5109,7.4473,54.6023,-0.5832,0.6207,-0.4464,183.0625
13:40:05:323,-0.0801,2.4523,7.5215,54.0523,-0.4914,0.5411,-0.3742,183.6562
13:40:05:346,-0.5134,3.0951,7.9812,55.6268,-0.3755,0.4689,-0.276,184.0938
13:40:05:366,0.2874,3.6649,8.4229,54.0905,-0.2184,0.2526,-0.4706,184.4844
13:40:05:383,0.959,3.9666,8.6647,55.6268,-0.1254,-0.0944,-0.8605,184.75
13:40:05:403,0.5628,3.7188,8.8072,55.3716,-0.1358,-0.3093,-1.1101,185.0625
13:40:05:423,-0.3734,3.0975,9.2968,54.5234,-0.1638,-0.6608,-1.1564,185.8125
13:40:05:448,-2.0685,2.1123,11.3881,54.0352,-0.0408,-0.7317,-0.941,186.9062
13:40:05:463,-2.4887,1.6083,13.6662,54.0352,0.3084,-0.2238,-0.4906,188.2656
13:40:05:486,-1.5298,1.8465,13.9021,54.6662,0.641,0.3325,-0.1156,189.5781
13:40:05:503,-0.4308,2.5983,12.7421,55.066,0.7467,0.6974,0.0838,190.0938
13:40:05:524,0.3197,3.1358,11.0087,55.3292,0.5169,0.3988,0.0423,190.6562
13:40:05:547,-0.0598,2.7958,11.4624,55.3292,0.1369,0.1664,-0.0786,190.75
13:40:05:566,-0.9468,2.1063,11.9627,56.656,-0.1561,0.1283,-0.1151,190.625
13:40:05:583,-1.422,1.4347,11.8383,53.8625,-0.2269,0.1195,0.0058,190.6562
13:40:05:603,-1.2592,0.8697,10.8255,54.3368,-0.1065,0.1837,0.2202,190.7656
13:40:05:623,-1.1036,0.9918,9.7278,54.3172,0.0637,0.1858,0.4458,190.8125
13:40:05:642,-0.7086,1.4204,8.9652,54.5037,0.1633,-0.0643,0.6764,190.6719
13:40:05:674,0.2036,2.0429,8.5666,55.1951,0.176,-0.4957,0.8801,190.2656
13:40:05:683,1.2571,2.2536,8.7653,55.2027,0.0903,-0.9354,0.8924,189.625
13:40:05:711,1.7156,1.9423,9.2597,55.1986,-0.0277,-1.1213,0.6969,188.7656
13:40:05:731,1.2798,1.4706,8.9197,54.4289,-0.0863,-0.8385,0.5054,187.8594
13:40:05:749,0.6645,1.3749,7.6328,54.0338,-0.0165,-0.3335,0.474,187.0625
13:40:05:766,0.6214,1.5245,6.146,55.2956,0.0751,0.0886,0.5637,186.5
13:40:05:783,0.8967,1.7137,5.2853,54.6449,0.0708,0.2497,0.6428,185.7969
13:40:05:804,0.971,1.8789,5.0902,54.7724,-0.0165,0.2857,0.6399,185.1406
13:40:05:823,0.8764,2.0189,5.1632,54.1969,-0.1286,0.2912,0.5557,184.375
13:40:05:847,0.5735,1.9591,5.168,54.6751,-0.2399,0.3088,0.4498,183.6406
13:40:05:867,0.315,1.8274,5.5678,54.8433,-0.3806,0.2979,0.3656,182.9688
13:40:05:883,0.3652,1.8705,6.8152,54.1024,-0.5513,0.2763,0.3589,182.4062
13:40:05:910,0.7136,1.8789,8.0961,53.5789,-0.6717,0.341,0.392,181.5
13:40:05:933,0.856,1.7962,9.0322,53.3146,-0.7244,0.3696,0.1983,181.25
13:40:05:947,0.6849,1.6191,10.2222,53.2831,-0.7159,0.1022,0.067,180.75
13:40:05:968,0.8189,1.066,11.9161,54.0605,-0.6216,-0.2142,-0.0139,180.3594
13:40:05:988,1.2295,0.3526,13.5345,52.9765,-0.4788,-0.2986,-0.0291,180.1719
13:40:06:007,1.5731,0.1622,14.4503,52.0636,-0.392,-0.0291,0.0242,180.125
13:40:06:026,2.5787,0.2304,14.1463,52.0325,-0.4147,0.4284,-0.0072,180.1406
13:40:06:049,3.9853,0.4148,12.3374,53.1059,-0.6924,0.5818,-0.3474,180.1406
13:40:06:068,4.4485,0.6554,11.0781,52.2274,-1.2754,0.5032,-0.958,180.0781
13:40:06:091,3.17,-0.0952,11.7269,51.62,-1.9252,0.7134,-1.5016,180.3906
13:40:06:106,0.4023,-1.7508,13.659,51.6463,-2.1883,1.4146,-1.5242,181.375
13:40:06:126,-1.7153,-2.888,14.0577,50.687,-1.8938,1.7251,-0.9902,182.9531
13:40:06:150,-1.61,-2.894,12.2872,51.1207,-1.3617,1.4244,-0.2824,184.5312
13:40:06:166,0.5053,-1.4539,11.9723,51.5309,-0.4647,0.7536,0.0567,185.4844
13:40:06:184,2.4458,-0.5692,10.3981,50.9414,0.2232,-0.4062,-0.2025,185.7188
13:40:06:205,2.0495,-0.0006,9.0837,50.1411,0.4104,-0.9189,-0.476,185.6562
13:40:06:224,1.5994,-0.3921,8.0686,50.6713,0.2155,-0.6843,-0.64,185.6562
13:40:06:250,1.044,-0.6889,7.1312,49.8299,-0.1286,-0.104,-0.693,185.875
13:40:06:267,0.5041,-0.6494,6.1843,50.2101,-0.44,0.4114,-0.6517,186.4219
13:40:06:363,0.139,-0.5201,5.6085,48.8295,-0.5771,0.6031,-0.5657,187.125
13:40:06:363,-0.0274,-0.2161,5.7258,49.4164,-0.4562,0.4241,-0.484,187.8594
13:40:06:364,-0.043,0.0533,5.824,48.8608,-0.1491,-0.0083,-0.4451,188.5938
13:40:06:371,-0.0693,0.0988,5.7211,48.9154,0.1454,-0.541,-0.4512,189.75
13:40:06:371,-0.3375,0.1311,5.9533,48.4234,0.3803,-1.0403,-0.4243,190.4688
13:40:06:382,-0.2178,0.1035,6.2071,48.5091,0.4988,-1.4529,-0.4533,190.4688
13:40:06:403,-0.2118,-0.0162,6.9134,46.7528,0.4112,-1.5727,-0.5436,190.7031
13:40:06:422,-0.6439,-0.2807,8.1165,46.5184,0.143,-1.3109,-0.5495,191.3594
13:40:06:443,-1.3071,-0.3549,9.4728,47.9338,-0.1955,-0.8851,-0.4248,191.5781
13:40:06:464,-1.6842,-0.4675,11.2217,45.5518,-0.4642,-0.4094,-0.2459,192.1094
13:40:06:485,-1.5609,-0.6817,13.0389,44.8493,-0.5422,0.1216,-0.0547,192.6562
13:40:06:502,-1.452,-0.8062,14.0804,46.4435,-0.4969,0.5251,0.0969,193.0469
13:40:06:522,-1.3849,-0.568,14.4156,45.8058,-0.49,0.7128,0.1845,193.2812
13:40:06:543,-1.2413,-0.5417,14.9352,45.078,-0.5598,0.7938,0.2252,193.3281
13:40:06:563,-1.2066,-0.7153,15.8809,46.8802,-0.583,0.8771,0.3315,193.25
13:40:06:586,-1.1383,-0.5944,16.6458,45.5067,-0.4826,0.7664,0.5115,193.0938
13:40:06:604,-1.0258,0.1921,17.4766,47.1304,-0.2482,0.6401,0.6692,192.8906
13:40:06:622,0.2994,0.0952,17.6645,46.3408,0.1611,0.5871,0.5685,192.5625
13:40:06:643,0.5197,-0.8685,16.3705,46.0376,0.6767,0.5783,0.3334,191.3438
13:40:06:665,-0.8738,-2.1279,13.6423,44.9887,1.1026,0.4705,0.3837,190.7812
13:40:06:686,-1.4388,-3.2196,10.8722,44.5902,1.346,0.1879,0.6982,190.625
13:40:06:702,-1.1311,-3.6434,8.6863,45.8182,1.3931,-0.2616,1.0322,190.25
13:40:06:722,-0.7253,-3.1214,7.4174,46.8457,1.2749,-0.7418,1.2588,189.625
13:40:06:742,-0.6116,-1.9782,7.1696,46.3589,1.0437,-1.0486,1.3842,189.1406
13:40:06:765,0.1486,-1.2192,7.9225,46.7156,0.8024,-1.0254,1.4317,188
13:40:06:786,1.0284,-1.1223,8.8647,46.3882,0.7183,-0.6867,1.4053,186.5625
13:40:06:803,1.2008,-0.9535,9.0454,44.9379,0.8413,-0.26,1.4101,184.9844
13:40:06:823,1.1469,-0.7919,8.1476,46.6182,1.0328,0.0114,1.4301,183.4062
13:40:06:842,1.2104,-0.3406,7.3216,46.5008,1.2147,0.1133,1.4548,181.9375
13:40:06:876,2.38,0.4483,7.0175,46.4041,1.3353,0.1413,1.3185,180.375
13:40:06:882,3.2993,1.3545,6.8164,48.6765,1.3811,0.1653,0.944,178.7969
13:40:06:905,2.3644,2.1841,6.231,47.8407,1.3321,-0.002,0.5097,177.3281
13:40:06:923,0.5005,2.5325,6.1688,47.7623,1.0919,-0.1391,0.2063,176.0938
13:40:06:944,0.388,2.6498,6.9218,45.6022,0.6794,0.0516,0.0455,175.3594
13:40:06:967,-0.0705,2.7587,8.1308,47.1843,0.2602,0.3916,-0.0584,175.0625
13:40:06:983,-0.0119,2.4116,9.1747,47.4483,0.0365,0.6079,-0.1074,175.0156
13:40:07:003,0.2946,1.8585,9.529,45.6931,0.0932,0.5813,-0.1207,175.0312
13:40:07:022,0.2419,1.3773,9.4584,45.0372,0.2511,0.3339,-0.1575,175.0938
13:40:07:043,0.4323,0.7009,9.7744,47.6742,0.3017,-0.0009,-0.1452,175.1562
13:40:07:065,0.9039,0.021,10.6591,46.3484,0.208,-0.2723,-0.0768,175.2656
13:40:07:081,1.548,-0.6219,11.7401,47.7265,0.0591,-0.3655,0.0178,175.4531
13:40:07:103,2.7822,-0.8673,11.6407,47.9445,-0.0139,-0.1588,0.1512,175.625
13:40:07:121,3.6273,-0.6913,10.6435,47.8369,-0.0517,0.0806,0.1789,175.7188
13:40:07:142,3.7375,-0.2963,10.1719,47.5103,-0.2261,0.0353,-0.0403,175.6562
13:40:07:165,3.4669,-0.5345,10.6938,47.3324,-0.555,-0.1511,-0.4371,175.4375
13:40:07:183,2.7618,-1.2348,11.946,46.3689,-0.9156,-0.1306,-0.8595,175.3125
13:40:07:202,2.5452,-1.9483,11.4935,47.6206,-1.004,0.357,-1.0318,175.5469
13:40:07:221,2.6709,-1.5329,9.2776,46.4235,-0.8216,0.8172,-0.9663,176.2656
13:40:07:241,3.3281,-0.756,7.215,48.6504,-0.6671,0.7357,-0.9255,177.25
13:40:07:265,3.2526,-0.2292,7.0199,47.0091,-0.7625,0.1778,-1.1085,178.75
13:40:07:283,2.198,-0.1395,8.0315,47.7522,-1.0069,-0.2611,-1.4227,179.6875
13:40:07:302,1.3864,-0.4567,8.2446,45.3984,-1.1129,-0.2409,-1.595,180.7969
13:40:07:322,0.4706,-0.3526,7.2749,46.1418,-1.0264,0.0127,-1.6209,182.3281
13:40:07:342,-0.0645,-0.0557,5.9186,46.5765,-0.881,0.1898,-1.5127,184.0469
13:40:07:364,-0.1998,0.337,5.3703,46.3158,-0.8008,0.0518,-1.338,185.7031
13:40:07:385,-0.304,0.847,5.9425,46.5499,-0.8237,-0.2084,-1.2118,186.5469
13:40:07:401,-0.4763,1.1917,7.1444,47.9914,-0.8269,-0.423,-1.133,188.0781
13:40:07:421,-0.7888,1.1941,8.2398,47.3285,-0.7286,-0.4803,-1.1149,189.4531
13:40:07:441,-1.2616,1.3497,8.8802,47.138,-0.5774,-0.382,-1.0981,190.6094
13:40:07:466,-1.9033,1.4575,9.3591,48.1755,-0.4567,-0.1346,-1.0531,191.7969
13:40:07:484,-2.8131,1.5425,9.8092,49.818,-0.3649,0.1032,-0.9974,192.9844
13:40:07:502,-3.3003,1.4671,10.2581,49.818,-0.293,0.2116,-0.8877,194.6719
13:40:07:522,-3.5337,1.1199,11.1655,48.4933,-0.2256,0.091,-0.7383,195.7812
13:40:07:541,-3.7528,0.6267,12.1244,47.4345,-0.1361,-0.0353,-0.5689,196.7969
13:40:07:565,-3.8546,0.3921,12.7816,47.8095,-0.061,-0.0132,-0.3436,197.5781
13:40:07:581,-3.7456,0.4962,13.7572,47.7833,-0.0543,0.0803,-0.1077,198.2188
13:40:07:601,-3.2464,0.4926,15.0549,47.9719,-0.0495,0.1671,0.0846,198.6094
13:40:07:623,-2.6622,0.2029,15.4296,48.8493,0.29,0.4353,0.2508,198.7344
13:40:07:643,-2.1631,0.1227,14.8873,50.1815,0.4093,0.4718,0.2431,198.7344
13:40:07:663,-2.0816,0.1933,13.9176,49.6992,0.3425,0.3597,0.1552,198.4531
13:40:07:683,-2.1571,-0.1263,13.8159,49.5827,0.1771,0.1834,0.0431,198.2344
13:40:07:701,-2.43,-1.0301,14.5317,50.6838,0.1188,0.2574,0.0604,198.0469
13:40:07:721,-2.8466,-1.9806,14.6035,49.5988,0.2469,0.6287,0.3081,197.9375
13:40:07:741,-2.7161,-2.6354,12.8534,49.8542,0.4615,0.8449,0.6806,197.9219
13:40:07:770,-2.2959,-2.5061,10.3048,50.5453,0.6072,0.5296,1.009,197.875
13:40:07:787,-1.4268,-2.0752,8.5821,51.0008,0.6416,-0.2576,1.1723,196.9375
13:40:07:805,-0.6224,-1.7639,8.5378,50.4759,0.6426,-0.9801,1.2154,195.8906
13:40:07:822,0.0109,-1.4694,9.1855,51.2688,0.7105,-1.3407,1.2396,195.3438
13:40:07:842,0.8273,-1.2037,9.5781,49.9143,0.8197,-1.2193,1.1837,194.6875
13:40:07:866,0.9985,-1.0421,9.0358,50.5419,0.9041,-0.7301,1.1291,193.3594
13:40:07:885,0.5735,-0.8589,7.6125,50.7573,0.9289,-0.1903,1.1659,191.9844
13:40:07:902,0.1462,-0.6794,5.8144,51.1833,0.8892,0.0968,1.2631,190.7656
13:40:07:921,0.2024,-0.4315,4.3851,50.0848,0.7934,0.0761,1.3334,189.5625
13:40:07:942,0.6047,0.0018,3.7746,52.1288,0.6831,-0.1514,1.3046,188.3125
13:40:07:967,0.8237,0.3406,3.9111,51.0725,0.5846,-0.4523,1.1803,186.9375
13:40:07:992,0.7148,0.495,4.5515,50.187,0.4836,-0.6915,1.0269,185.5469
13:40:08:001,0.6322,0.422,5.5894,53.4797,0.3835,-0.7434,0.9086,184.125
13:40:08:022,0.6897,0.2053,6.5135,50.2066,0.2626,-0.6172,0.8069,182.8438
13:40:08:043,0.5891,0.1143,7.3084,53.0258,0.1209,-0.4425,0.7286,181.8125
13:40:08:066,0.6789,-0.0174,8.0877,52.6096,-0.0346,-0.3037,0.6431,180.3906
13:40:08:086,0.9362,-0.1957,8.7952,52.1312,-0.2346,-0.2752,0.531,179.5781
13:40:08:102,1.6246,-0.3801,9.6511,53.5247,-0.5225,-0.3647,0.3398,178.8594
13:40:08:122,2.0543,-0.75,11.3139,52.0084,-0.8392,-0.3439,0.1224,178.1875
13:40:08:142,1.5516,-1.1307,13.7261,53.4831,-0.9582,-0.0172,0.0513,177.4531
13:40:08:167,1.4773,-1.8298,15.0201,52.3978,-0.7931,0.4766,0.1355,177.4531
13:40:08:184,2.289,-2.0069,13.768,54.107,-0.6344,0.7562,0.168,177.3594
13:40:08:204,2.6146,-1.0181,12.1124,51.9505,-0.7188,0.5693,-0.0595,177.2344
13:40:08:226,1.6461,-0.0449,12.4153,52.632,-0.8764,0.3474,-0.3926,176.9844
13:40:08:241,0.9374,-0.8446,13.4579,52.8105,-0.8011,0.3861,-0.5207,176.8438
13:40:08:262,1.293,-2.2871,12.93,53.0698,-0.6021,0.4502,-0.3758,177.0625
13:40:08:285,1.9346,-2.3745,11.5617,54.5678,-0.4626,0.2683,-0.1143,177.5781
13:40:08:305,3.0659,-1.4192,10.5621,52.5182,-0.4424,-0.0989,-0.0965,178.0469
13:40:08:327,3.279,-0.1311,9.808,51.4882,-0.4474,-0.2526,-0.3657,178.2969
13:40:08:353,2.2279,-0.0521,8.6827,52.7103,-0.4807,-0.0262,-0.6281,178.3281
13:40:08:368,1.542,0.0916,7.4305,52.7596,-0.5635,0.4377,-0.6741,178.5312
13:40:08:427,1.0201,0.4567,6.2502,51.5213,-0.6149,0.8401,-0.6169,179.0938
13:40:08:428,0.4071,0.8482,5.5032,52.4255,-0.583,0.9309,-0.5593,179.8281
13:40:08:428,-0.0214,1.1259,5.1668,52.411,-0.4594,0.6945,-0.4731,180.5625
13:40:08:449,-0.0993,1.3857,5.0196,53.6964,-0.2653,0.2942,-0.3474,181.1875
13:40:08:466,0.1976,1.6777,5.0279,52.5425,-0.0754,-0.1397,-0.2304,181.7812
13:40:08:482,0.1653,1.8513,5.5618,52.9524,0.0099,-0.5128,-0.2203,182.2344
13:40:08:502,-0.1555,1.722,6.668,51.5221,-0.0229,-0.6808,-0.2651,182.5312
13:40:08:521,-0.4105,1.321,7.7047,52.0077,-0.0812,-0.6457,-0.2597,182.75
13:40:08:542,-0.711,1.1546,8.4971,52.4697,-0.1374,-0.5397,-0.2118,183
13:40:08:568,-0.7756,1.017,9.8822,53.0849,-0.2815,-0.4899,-0.1527,183.2656
13:40:08:586,-0.5889,0.6243,12.0609,51.4229,-0.5015,-0.4044,-0.0952,183.5
13:40:08:604,-0.3842,0.2532,14.0206,51.2347,-0.6344,-0.162,-0.0416,183.6562
13:40:08:622,-0.5434,0.003,15.3781,52.6456,-0.6067,0.0936,0.0149,183.75
13:40:08:643,-0.8726,-0.3466,16.2795,51.9821,-0.4346,0.2574,0.1006,183.7656
13:40:08:668,-1.0462,-0.6159,16.0101,50.2268,-0.1446,0.4367,0.2351,183.7188
13:40:08:687,-0.3566,-0.6446,14.1475,50.1881,0.1617,0.6811,0.4135,183.6094
13:40:08:703,0.0348,-0.1048,12.5338,51.1435,0.278,0.6588,0.4724,183.375
13:40:08:722,-0.0849,0.1622,13.7847,50.1983,0.0661,0.116,0.3581,182.9688
13:40:08:742,0.127,-0.9643,17.145,48.9798,-0.1694,-0.4691,0.176,182.5156
13:40:08:768,-0.3219,-2.578,17.9363,49.0636,0.0439,-0.3287,0.041,182.125
13:40:08:784,-1.0701,-3.2483,14.5174,49.556,0.6517,0.3126,0.1488,181.875
13:40:08:802,-0.4057,-3.0137,10.0845,48.2198,1.1302,0.8252,0.4993,181.8125
13:40:08:824,0.7136,-2.4499,7.2474,46.9711,1.2413,0.6718,0.7747,181.7188
13:40:08:843,0.9422,-1.8166,6.7278,49.0603,1.008,-0.0329,0.7565,181.2969
13:40:08:866,0.3652,-1.5808,8.4038,48.2507,0.6583,-0.9618,0.5488,180.5625
13:40:08:882,-0.3818,-1.977,10.3335,46.5656,0.4951,-1.635,0.328,180.1719
13:40:08:902,-0.875,-2.4104,10.4221,45.5739,0.603,-1.6979,0.2268,179.5
13:40:08:922,-1.2892,-2.4343,9.0813,45.4999,0.7369,-1.1815,0.2697,179.0156
13:40:08:943,-1.3502,-2.056,7.4868,44.9787,0.7156,-0.3719,0.4684,178.7188
13:40:08:962,-0.9396,-1.4766,6.0215,46.3041,0.6157,0.3538,0.7771,178.3281
13:40:08:985,-0.2956,-0.9032,4.8651,46.1933,0.5707,0.728,1.0713,177.8125
13:40:09:002,0.2946,-0.4507,4.0846,45.8432,0.5896,0.732,1.2679,176.9375
13:40:09:023,0.8046,-0.0329,3.6549,45.843,0.6538,0.1424,1.4487,175.7188
13:40:09:043,1.4223,0.3693,3.7255,43.7181,0.629,-0.1647,1.417,175.7188
13:40:09:067,2.0747,0.8913,4.33,45.5183,0.5539,-0.3564,1.2412,172.7812
13:40:09:085,2.3895,1.2875,5.0076,44.5482,0.3899,-0.4307,0.9669,171.1406
13:40:09:102,2.4051,1.5365,5.7941,42.7702,0.1041,-0.4257,0.6703,169.6406
13:40:09:123,2.2339,1.3749,6.8703,44.8363,-0.2735,-0.3314,0.3896,168.2656
13:40:09:143,1.7623,0.8003,8.4038,42.9371,-0.6679,-0.1415,0.2106,167.2031
13:40:09:169,1.8532,0.3274,10.0606,42.7801,-0.9976,-0.0379,0.082,166.5
13:40:09:185,2.3069,0.0928,12.0729,43.3277,-1.1715,-0.0302,-0.1218,166.0625
13:40:09:202,2.5404,-0.6051,14.0242,42.3791,-1.1404,0.0787,-0.3306,165.7031
13:40:09:227,2.7343,-2.05,14.904,41.3558,-1.0038,0.4521,-0.3947,165.8125
13:40:09:240,3.2957,-3.1394,13.6171,40.6796,-1.0141,0.7914,-0.4065,165.9531
13:40:09:261,3.3269,-2.8748,11.6671,40.1301,-1.2847,0.7469,-0.5039,166.375
13:40:09:287,2.5811,-2.3661,11.5761,41.2638,-1.5864,0.4348,-0.6494,166.7812
13:40:09:302,1.439,-2.6761,13.7249,40.6656,-1.4701,0.3696,-0.6288,167.2188
13:40:09:321,0.959,-3.2483,14.7424,40.24,-0.8882,0.5624,-0.3963,167.8281
13:40:09:343,1.706,-3.0053,13.0138,39.1766,-0.3159,0.7248,-0.1431,168.1719
13:40:09:368,3.3161,-1.983,10.3574,39.5624,-0.0418,0.5775,-0.1298,168.7969
13:40:09:383,4.7837,-0.8326,8.5031,38.8045,-0.1049,0.12,-0.5204,169.2344
13:40:09:403,4.9477,0.0317,8.0913,38.8288,-0.3672,-0.1983,-1.1213,169.4219
13:40:09:421,4.1684,-0.2113,8.5127,38.4084,-0.649,-0.0853,-1.6832,169.6094
13:40:09:441,2.6002,-1.0313,8.9736,38.4333,-0.812,0.409,-2.0089,170.1719
13:40:09:460,0.7758,-1.4551,8.7581,38.3927,-0.7755,0.9118,-2.0145,171.4219
13:40:09:483,-0.5242,-1.491,7.9728,39.4279,-0.5646,1.0764,-1.7761,173.2969
13:40:09:500,-1.0174,-1.1079,7.1456,37.292,-0.2479,0.8023,-1.4254,175.4688
13:40:09:522,-0.8043,-0.6231,6.8212,37.2908,0.138,0.3354,-1.0973,178.9062
13:40:09:542,-0.0645,-0.2628,6.4944,37.9982,0.4772,-0.105,-0.9098,180.8281
13:40:09:568,0.558,0.0533,6.1341,37.9982,0.6338,-0.4491,-0.8845,182.25
13:40:09:585,0.7471,0.3561,6.1389,36.2662,0.567,-0.6451,-0.9817,183.4219
13:40:09:604,0.4359,0.3573,7.0067,35.9253,0.3745,-0.5793,-1.0733,184.4375
13:40:09:622,0.0001,0.1287,8.3236,35.5831,0.1824,-0.2457,-1.0717,185.4375
13:40:09:642,-0.6882,0.1981,9.1364,36.629,-0.021,0.0526,-1.0347,186.5781
13:40:09:668,-1.5406,0.3633,10.3969,34.0131,-0.1611,0.2116,-0.9567,187.7812
13:40:09:684,-1.9763,-0.1419,11.958,36.1804,-0.1499,0.3264,-0.8035,189
13:40:09:701,-2.7329,-0.6949,13.1168,34.7781,-0.0136,0.3384,-0.5234,190.0938
13:40:09:722,-2.6024,-1.3186,14.9136,33.9129,0.2242,0.2643,-0.1308,191.1406
13:40:09:741,-1.8925,-1.4646,14.9603,34.6655,0.4887,0.2114,0.1818,191.9531
13:40:09:762,-1.5801,-1.5209,14.0038,35.7454,0.6586,0.2614,0.3248,192.3594
13:40:09:786,-1.8889,-1.2109,13.2856,34.6834,0.6016,0.3067,0.3595,192.3594
13:40:09:803,-1.9727,-1.3761,13.6949,35.2008,0.355,0.2412,0.3885,192.1094
13:40:09:821,-2.2349,-1.8884,14.4838,37.1232,0.1726,0.172,0.4458,191.7969
13:40:09:841,-2.4061,-2.3733,14.5581,35.3502,0.2682,0.1687,0.6015,191.2344
13:40:09:861,-1.7405,-2.8174,12.6978,34.8513,0.6474,0.2734,0.8724,191
13:40:09:883,-0.7672,-2.4966,9.784,36.1096,1.0317,0.2918,1.1557,190.4531
13:40:09:909,0.0241,-1.4599,7.8866,36.9245,1.1425,-0.0475,1.3422,189.7031
13:40:09:921,0.5556,-0.3932,7.8651,36.0468,0.9683,-0.656,1.3448,188.6406
13:40:09:943,1.2834,-0.1335,8.8922,36.6174,0.7018,-1.1562,1.1997,187.2969
13:40:09:968,1.5252,-0.3753,9.3112,38.9007,0.5598,-1.1945,0.9541,185.8906
13:40:09:985,1.19,-0.6794,8.8204,37.476,0.5688,-0.8853,0.7134,184.4688
13:40:10:001,0.6777,-0.8134,7.5359,37.1914,0.6402,-0.3751,0.6172,183.2344
13:40:10:021,0.5292,-0.7811,6.4633,37.1453,0.6839,0.0992,0.6769,182.3125
13:40:10:043,0.5532,-0.6446,6.3076,36.1439,0.6983,0.3554,0.7912,181.6406
13:40:10:067,0.6884,-0.8182,6.1293,35.8152,0.775,0.4438,0.8716,180.9531
13:40:10:084,0.7363,-0.9834,5.2015,37.3191,0.9108,0.47,0.9214,180.1406
13:40:10:104,0.8285,-0.8673,4.2331,37.053,0.9249,0.4596,0.9898,179.2656
13:40:10:122,1.2247,-0.3956,3.917,37.6697,0.7161,0.4383,1.062,178.2812
13:40:10:144,1.7874,0.1431,4.5671,38.1039,0.3699,0.2867,1.0564,176.6562
13:40:10:168,1.9107,0.4735,6.2885,39.4705,0.0389,-0.0078,0.9155,175.5312
13:40:10:184,1.8616,0.5944,8.3762,37.4976,-0.1486,-0.2459,0.7011,174.3281
13:40:10:202,1.6557,0.1993,9.5195,36.6632,-0.1393,-0.3351,0.4484,173.2812
13:40:10:227,0.9793,-0.167,9.948,37.593,-0.1156,-0.2957,0.1808,172.5156
13:40:10:240,0.7806,-0.5225,10.6184,37.7931,-0.2724,-0.2379,0.0149,172.0156
13:40:10:260,0.9781,-1.0469,12.1052,37.8569,-0.5718,-0.2185,-0.0893,171.8281
13:40:10:290,1.6581,-1.7412,13.4567,36.5048,-0.8261,-0.064,-0.1489,171.8125
13:40:10:303,2.7139,-1.886,12.942,37.3995,-0.8701,0.3363,-0.1481,171.8906
13:40:10:324,2.7977,-1.1905,11.466,37.3184,-0.8133,0.5469,-0.2826,172.0156
13:40:10:342,2.3225,-1.054,11.2648,36.7358,-0.8682,0.2894,-0.5774,172.125
13:40:10:367,1.6701,-2.0452,12.0106,37.2247,-0.9771,-0.1005,-0.9016,172.375
13:40:10:384,1.2247,-2.8389,11.9939,36.8918,-0.9694,-0.1721,-1.0608,172.6094
13:40:10:401,1.5647,-2.7539,10.3455,37.1822,-0.8599,0.0047,-0.9857,173.4062
13:40:10:428,2.3249,-2.1171,8.8671,35.4948,-0.8163,-0.1199,-0.8637,174.5
13:40:10:501,2.8983,-1.4108,8.6935,36.807,-1.1729,-0.9711,-1.0286,176.0938
13:40:10:501,2.8133,-1.3497,9.31,35.7365,-1.3667,-0.86,-1.182,177.9531
13:40:10:501,1.7587,-1.3605,9.9145,35.3457,-1.4243,-0.3018,-1.1777,177.9531
13:40:10:502,0.5556,-1.1833,10.0091,35.4432,-1.3196,0.3434,-1.0001,179
13:40:10:521,-0.1388,-0.9116,8.9652,36.0764,-1.1316,0.6987,-0.7399,180.2344
13:40:10:539,-0.4763,-0.2903,8.0494,35.5896,-0.8876,0.8945,-0.4733,181.5312
13:40:10:562,0.0217,0.3107,7.5682,35.5311,-0.535,0.7472,-0.3394,182.625
13:40:10:583,0.4442,1.0157,7.2857,36.3937,-0.2173,0.4132,-0.3521,183.5
13:40:10:600,0.8141,1.5712,7.2809,34.2219,-0.0445,0.0896,-0.4667,184.125
13:40:10:620,0.8896,1.7891,7.9285,34.9085,0.0037,-0.076,-0.6531,184.5625
13:40:10:640,0.1258,1.5245,9.1184,35.5938,0.0437,-0.1562,-0.7609,185.0156
13:40:10:660,-0.7134,0.7129,10.7262,33.7977,0.1396,-0.1474,-0.6589,185.5469
13:40:10:683,-1.3167,-0.0592,12.6655,33.4188,0.2951,0.0356,-0.3764,186.2812
13:40:10:701,-1.452,-0.3693,14.497,35.6731,0.4597,0.4337,-0.0453,187.5
13:40:10:720,-0.8343,-0.6315,15.6893,35.5305,0.677,1.05,0.168,188.1094
13:40:10:741,-0.6176,-1.1235,15.8449,35.7165,0.902,1.6657,0.2905,188.3906
13:40:10:763,-1.2964,-0.9044,14.3103,33.612,1.0203,1.846,0.4452,188.4062
13:40:10:783,-1.3706,-0.6542,12.5134,36.1322,1.0525,1.499,0.5406,188.3594
13:40:10:801,-0.5865,-0.9343,11.1439,35.5793,0.9566,1.0148,0.5406,188.2344
13:40:10:821,-0.5063,-0.562,10.3107,35.7676,0.6935,0.4947,0.5155,187.9375
13:40:10:841,-0.8917,0.0796,10.7513,35.5168,0.4871,-0.0773,0.4245,187.5469
13:40:10:861,-1.0677,-0.3741,11.9544,37.7705,0.5835,-0.6488,0.3065,187.3281
13:40:10:884,-1.5477,-1.2719,12.6499,37.2371,0.877,-0.9556,0.3533,186.8594
13:40:10:901,-1.4125,-2.0955,12.0705,38.2312,1.0591,-0.868,0.5339,186.4531
13:40:10:921,-0.6679,-2.6618,10.6244,39.2636,0.9438,-0.5583,0.7017,186.1562
13:40:10:940,-0.2884,-2.3792,9.146,38.0714,0.5859,-0.2931,0.8319,185.8125
13:40:10:960,-0.2022,-1.5125,8.5438,39.3144,0.2176,-0.1937,0.9043,185.3125
13:40:10:984,0.2886,-1.0493,8.5654,40.5071,0.0184,-0.1389,0.8745,184.1719
13:40:11:002,0.6609,-1.0038,8.4337,41.8337,-0.0309,-0.0584,0.8162,183.2031
13:40:11:024,0.6513,-0.9631,7.9249,41.0126,-0.0075,0.0228,0.8298,182.2344
13:40:11:040,0.777,-0.8709,7.3491,40.1745,0.0599,0.0212,0.8692,181.2656
13:40:11:060,0.9793,-0.665,6.996,42.485,0.1481,-0.0867,0.8716,180.3438
13:40:11:085,0.9805,-0.4196,7.0403,42.4331,0.2679,-0.1951,0.8378,179.3594
13:40:11:103,0.8165,-0.3214,7.1025,42.1023,0.4408,-0.2225,0.7976,178.4219
13:40:11:122,0.4466,-0.4423,6.6763,44.346,0.5342,-0.1506,0.8058,177.4531
13:40:11:143,0.4227,-0.2257,5.7809,44.4559,0.4687,-0.0195,0.9158,176.5625
13:40:11:168,1.196,0.4052,6.2203,45.2827,0.2911,-0.0608,0.9864,175.75
13:40:11:186,1.706,0.8817,7.2857,45.2625,0.1158,-0.2779,0.8969,174.8125
13:40:11:201,1.6964,0.8434,8.3774,44.5717,0.0328,-0.5042,0.6745,173.75
13:40:11:227,1.2894,0.4375,9.298,46.1471,-0.0056,-0.5759,0.4255,172.7188
13:40:11:239,0.5125,-0.0078,10.0079,46.4618,-0.1025,-0.4313,0.2319,171.8281
13:40:11:261,0.1115,-0.4052,10.9919,45.9326,-0.2575,-0.2606,0.1571,171.2344
13:40:11:284,0.2683,-0.6937,11.9268,46.8675,-0.3694,-0.2243,0.1461,170.8906
13:40:11:305,0.6561,-1.0325,12.9994,48.0839,-0.4378,-0.2877,0.1078,170.5938
13:40:11:322,1.6306,-1.6011,13.2484,46.6387,-0.4663,-0.1727,0.0585,170.4219
13:40:11:344,1.5911,-1.6131,12.0226,46.8287,-0.481,0.1837,-0.0973,170.3438
13:40:11:361,0.7998,-1.169,11.4983,49.0625,-0.6152,0.4034,-0.3625,170.2344
13:40:11:380,-0.0813,-1.3497,12.4967,49.3315,-0.849,0.442,-0.6398,170.2031
13:40:11:401,-0.523,-2.3421,13.78,48.0015,-0.9795,0.5203,-0.8448,170.4375
13:40:11:420,-0.1627,-3.2974,13.4795,49.6553,-0.9001,0.8369,-0.8326,170.9219
13:40:11:441,0.522,-3.368,11.6575,49.1319,-0.706,1.1451,-0.6451,171.7344
13:40:11:461,1.4426,-2.493,10.4089,48.7144,-0.5966,1.1325,-0.4137,172.6719
13:40:11:485,2.3907,-1.5484,10.0797,49.6141,-0.5393,0.8202,-0.3154,173.4844
13:40:11:502,2.3177,-1.2408,9.8187,49.6157,-0.4149,0.4391,-0.4661,174.2344
13:40:11:520,1.7479,-1.3366,8.9892,49.0918,-0.2509,0.2657,-0.684,174.5625
13:40:11:540,0.9877,-1.3282,7.7813,51.9496,-0.1795,0.4039,-0.7995,175.0781
13:40:11:562,0.6729,-1.1067,6.7254,50.1915,-0.1976,0.6582,-0.7668,175.7969
13:40:11:585,0.8058,-0.7895,5.8659,50.6587,-0.2136,0.822,-0.6648,176.7188
13:40:11:601,0.9698,-0.3897,5.0148,50.6587,-0.1952,0.8574,-0.5974,177.6094
13:40:11:620,1.0655,0.0856,4.4138,50.6824,-0.1747,0.7344,-0.5801,178.3594
13:40:11:643,1.1505,0.4543,4.2594,51.9193,-0.168,0.4614,-0.6094,179.0781
13:40:11:660,1.0643,0.7201,4.6688,52.7707,-0.1981,0.1168,-0.6845,179.7656
13:40:11:682,0.8381,0.6973,5.5355,52.7012,-0.2663,-0.1868,-0.7814,180.4375
13:40:11:703,0.212,0.4471,6.899,52.2325,-0.3553,-0.4187,-0.8872,181.2031
13:40:11:721,-0.5613,0.2029,8.4385,51.7689,-0.4141,-0.5314,-0.9394,182.0312
13:40:11:744,-1.3993,0.2843,9.9085,52.3749,-0.4322,-0.5098,-0.8952,182.9688
13:40:11:768,-2.0613,0.4854,11.3965,53.4368,-0.4314,-0.4172,-0.8134,183.3906
13:40:11:785,-2.5378,0.3945,12.8271,53.9115,-0.4304,-0.2627,-0.7577,184.3438
13:40:11:802,-3.1459,0.0964,13.8362,54.3802,-0.3995,-0.0315,-0.705,185.2031
13:40:11:820,-3.8941,-0.3286,14.7256,52.4562,-0.3499,0.1352,-0.5852,186.3594
13:40:11:841,-3.3578,-0.8278,15.8294,53.8425,-0.24,0.1275,-0.3324,187.1094
13:40:11:863,-1.2473,-1.2157,16.5309,56.1245,0.2557,-0.0329,0.1174,187.75
13:40:11:883,0.2802,-1.0421,15.9503,54.0201,0.506,-0.1157,0.086,188.1094
13:40:11:900,0.6861,-0.5441,14.7747,55.7594,0.6551,-0.3277,-0.0664,188.1094
13:40:11:920,0.4335,-0.5118,14.2241,55.9217,0.7968,-0.4206,-0.244,188.1406
13:40:11:940,-0.3243,-1.0241,13.5884,55.1327,0.9457,-0.1591,-0.325,187.9844
13:40:11:961,-0.9324,-1.898,11.9436,57.1387,1.0147,0.3352,-0.2411,188.0938
13:40:11:983,-1.094,-2.4786,9.4728,55.7868,0.922,0.6702,-0.0523,188.4219
13:40:12:001,-1.1886,-2.4894,7.0929,54.4885,0.6477,0.4273,0.1672,188.875
13:40:12:019,-1.0378,-1.9555,6.1975,57.1391,0.2573,-0.2419,0.3027,189.2812
13:40:12:039,-0.7421,-1.3234,7.1492,57.3718,-0.0783,-1.1069,0.2737,189.5
13:40:12:059,-1.367,-1.4048,10.1336,56.4832,-0.0818,-1.6398,0.2663,189.4219
13:40:12:084,-2.2121,-2.1099,12.6834,56.8277,0.2671,-1.419,0.4615,188.9062
13:40:12:102,-2.837,-2.2978,12.5816,56.0327,0.7124,-0.7935,0.8194,188.5
13:40:12:119,-2.691,-1.9196,10.2341,56.4301,0.9675,-0.1535,1.1821,188.0156
13:40:12:140,-1.8805,-1.3629,7.1911,58.4492,0.9364,0.2079,1.4069,187.2969
13:40:12:160,-1.1419,-0.8146,5.1991,56.905,0.771,0.2939,1.5166,186.1719
13:40:12:184,-0.2788,-0.4627,4.1541,56.8489,0.6,0.136,1.5107,184.7344
13:40:12:201,0.4849,-0.0245,4.0296,56.5091,0.481,-0.1953,1.3976,183.125
13:40:12:220,1.1577,0.1754,4.6102,56.0516,0.437,-0.5618,1.1962,181.5156
13:40:12:240,1.4199,-0.0365,5.5906,57.4362,0.4458,-0.8291,0.9683,179.875
13:40:12:260,1.3876,-0.4136,6.5997,57.2111,0.425,-0.9093,0.7784,179.1094
13:40:12:284,1.4462,-0.8051,7.5945,57.417,0.3036,-0.7767,0.5944,177.7656
13:40:12:302,1.4474,-1.1342,8.7773,57.195,0.1265,-0.4049,0.4194,176.75
13:40:12:320,1.6928,-1.3114,9.5015,56.6733,-0.0655,0.0052,0.2186,175.8906
13:40:12:342,2.1357,-1.6418,9.7804,56.9701,-0.2746,0.218,-0.0451,175.2344
13:40:12:360,2.1022,-2.0285,10.0785,57.8446,-0.5204,0.2135,-0.2962,174.5469
13:40:12:384,1.9382,-2.5444,11.035,57.6693,-0.7326,0.181,-0.4792,174.5156
13:40:12:402,2.2782,-3.4518,12.0406,58.0728,-0.8551,0.2532,-0.6009,174.7031
13:40:12:420,2.4721,-3.7798,12.2417,58.8483,-1.008,0.3387,-0.7279,175.1094
13:40:12:444,2.1453,-3.3704,12.5134,58.0718,-1.2583,0.3448,-0.9327,175.7031
13:40:12:460,1.214,-3.1334,13.9021,55.6402,-1.4288,0.4409,-1.1159,176.4062
13:40:12:481,0.5891,-3.6087,15.2608,57.627,-1.2634,0.7941,-1.0416,177.25
13:40:12:504,0.6633,-4.0743,14.3186,57.9222,-0.849,0.9658,-0.7178,178.3906
13:40:12:588,1.8448,-3.6757,11.5138,57.9087,-0.5028,0.5842,-0.3383,179.625
13:40:12:588,4.3755,-0.7871,8.466,55.8733,-0.3462,-0.1173,-0.1737,180.6562
13:40:12:588,4.6772,-0.0281,9.134,57.4892,-0.327,-0.7351,-0.3937,181.2344
13:40:12:589,4.1145,-0.4112,9.7373,57.0958,-0.3031,-0.8382,-0.8669,181.4688
13:40:12:601,2.5368,-0.8649,8.7545,58.0424,-0.204,-0.2845,-1.3162,181.6719
13:40:12:621,0.8824,-0.8829,6.9648,57.6605,-0.1196,0.4257,-1.5207,182.2188
13:40:12:639,-0.5278,-0.6937,5.3524,57.3444,-0.1081,0.9238,-1.4808,183.4219
13:40:12:660,-1.3766,-0.4328,4.2678,56.1777,-0.1526,1.0484,-1.2701,185.0938
13:40:12:686,-1.0905,-0.1454,4.1553,55.8542,-0.2205,0.8601,-0.9292,187.6875
13:40:12:700,-0.3722,-0.0018,5.1237,55.9456,-0.2682,0.4806,-0.6259,189.25
13:40:12:719,0.0552,0.1263,6.4429,57.2797,-0.2469,0.1549,-0.4853,190.4062
13:40:12:747,0.1198,0.1658,7.6592,57.9376,-0.1736,0.0295,-0.4651,190.8125
13:40:12:759,-0.1878,0.2292,8.3295,56.9974,-0.0961,0.1112,-0.5151,191.4219
13:40:12:780,-0.6775,0.2831,8.6552,57.4589,-0.0415,0.201,-0.5886,191.9375
13:40:12:803,-1.1527,0.1395,9.3411,56.7498,-0.1039,0.2119,-0.6816,192.4844
13:40:12:819,-1.5202,-0.4591,10.5538,56.8939,-0.2818,0.2186,-0.7623,193.0938
13:40:12:839,-2.3857,-0.9487,11.8825,57.1087,-0.5087,0.3496,-0.7865,193.8438
13:40:12:860,-3.341,-1.3054,13.2903,57.4888,-0.6951,0.5328,-0.6837,194.6875
13:40:12:885,-3.8797,-1.6203,14.333,56.771,-0.7209,0.6822,-0.4339,195.5938
13:40:12:902,-3.4607,-1.8166,14.4264,57.5753,-0.5497,0.7448,-0.0358,196.4219
13:40:12:919,-2.5162,-1.7089,14.0313,57.2475,-0.3097,0.7062,0.3856,197.1094
13:40:12:940,-1.3885,-1.2264,13.2365,58.2306,-0.1188,0.6063,0.7352,197.4531
13:40:12:961,-0.7421,-0.6925,13.4424,57.9027,-0.1201,0.4047,0.9334,197.1094
13:40:12:985,-0.2429,-1.2563,14.7999,58.2715,-0.188,0.2393,0.9541,196.3594
13:40:13:005,-0.7696,-2.5732,14.3952,56.964,0.0578,0.4074,0.8314,195.3438
13:40:13:022,-1.8961,-3.2878,11.0984,58.0976,0.6219,0.7152,0.8191,194.3281
13:40:13:039,-1.7489,-3.2376,7.8112,57.7707,0.9825,0.7288,1.0335,193.4531
13:40:13:060,-0.626,-2.9443,6.4573,55.4986,0.8879,0.1973,1.2575,192.7344
13:40:13:087,-0.3782,-2.5947,7.3491,57.0837,0.4493,-0.7421,1.1688,191.8594
13:40:13:105,-1.4436,-2.8904,11.0542,57.2203,-0.1694,-1.5714,0.8921,190.5938
13:40:13:122,-2.1439,-3.7978,14.3665,57.105,-0.4903,-1.586,0.8199,189.2344
13:40:13:145,-2.2552,-4.0073,14.4228,56.0757,-0.2394,-0.9216,1.0263,188
13:40:13:159,-1.44,-3.5201,11.7269,55.745,0.3846,-0.2638,1.3992,186.8594
13:40:13:180,-0.4955,-2.6917,8.5737,55.873,0.9883,-0.0289,1.7432,185.5312
13:40:13:204,0.0492,-1.9483,6.3867,57.0078,1.3564,-0.1538,1.9089,183.9375
13:40:13:222,0.5232,-1.6777,5.1237,57.0775,1.5071,-0.3391,1.9398,183.0312
13:40:13:241,0.722,-1.4539,4.4916,56.4206,1.4935,-0.4382,1.8756,181.1562
13:40:13:260,1.1194,-1.1654,4.0535,56.2794,1.2021,-0.4664,1.5707,178.1094
13:40:13:283,1.3708,-0.8266,3.9984,59.0496,0.9244,-0.4758,1.2644,178.1094
13:40:13:303,1.3049,-0.6243,4.4138,57.7695,0.5976,-0.464,0.9062,174.3438
13:40:13:319,0.9506,-0.7787,5.5379,58.6343,0.3009,-0.3522,0.5805,172.6875
13:40:13:338,0.3808,-1.0792,7.0008,57.5504,0.1009,-0.0598,0.3467,171.3594
13:40:13:359,0.0971,-1.2683,8.065,57.452,-0.0274,0.2327,0.1573,170.4375
13:40:13:378,0.1354,-1.2923,8.8455,56.9142,-0.1422,0.332,-0.0536,169.8281
13:40:13:403,0.2383,-1.2707,9.6152,57.4335,-0.277,0.21,-0.305,169.4375
13:40:13:419,0.0504,-1.4467,10.6914,56.5405,-0.4232,0.0494,-0.5415,169.25
13:40:13:438,-0.2573,-1.9986,11.9939,56.7681,-0.5353,0.0524,-0.6776,169.2969
13:40:13:460,-0.134,-2.9095,12.6439,58.0109,-0.6541,0.2662,-0.6792,169.6094
13:40:13:484,0.3209,-2.9946,12.28,56.9328,-0.8927,0.3714,-0.6872,170.1719
13:40:13:502,0.4682,-2.1697,12.4799,55.3806,-1.1952,0.2175,-0.8251,171.5625
13:40:13:531,0.0839,-1.9842,14.5641,55.7667,-1.2802,0.2247,-0.9687,171.8906
13:40:13:537,-0.9947,-2.5576,16.7811,56.1958,-0.8557,0.5869,-0.852,172.5781
13:40:13:558,-0.8786,-3.119,15.3446,55.0017,-0.1902,0.8084,-0.5071,173.9688
13:40:13:579,0.1761,-3.2615,11.8275,55.931,0.2091,0.6329,-0.121,174.4375
13:40:13:601,1.3947,-2.3708,8.7689,54.4501,0.2128,0.1386,0.0908,175.2188
13:40:13:619,2.3991,-0.6913,7.4245,58.2928,-0.0128,-0.4936,-0.0685,175.5938
13:40:13:643,2.6696,0.4076,8.0339,58.2928,-0.2061,-0.7815,-0.4515,175.625
13:40:13:659,2.35,0.2424,8.9281,55.1137,-0.2093,-0.5751,-0.7673,175.5781
13:40:13:681,1.8101,-0.0497,8.7701,55.1137,-0.0815,-0.0954,-0.8999,175.7812
13:40:13:704,1.4426,0.0102,7.4413,55.6772,0.0325,0.3315,-0.9165,176.4375
13:40:13:721,1.2499,0.3142,5.7318,57.6504,0.0471,0.4649,-0.9183,176.875
13:40:13:739,1.1314,0.6303,4.5718,56.0032,-0.0067,0.3504,-0.9514,177.8906
13:40:13:759,0.9698,0.8374,4.3133,55.7087,-0.0719,0.1544,-0.9921,178.9219
13:40:13:786,0.8213,1.0301,4.9262,55.4153,-0.0887,-0.0379,-1.0557,180
13:40:13:803,0.4239,1.2145,6.1604,55.3915,-0.0024,-0.1804,-1.1346,181.125
13:40:13:821,-0.3327,1.3689,7.9357,56.2912,0.1704,-0.1902,-1.207,182.2031
13:40:13:839,-1.1707,0.9092,9.4177,55.9822,0.3393,-0.0334,-1.2219,184.0312
13:40:13:859,-2.0697,0.0365,9.6512,56.4236,0.278,0.3099,-1.0824,185.3594
13:40:13:886,-3.3925,0.1586,9.5865,55.9703,-0.0301,0.6255,-0.7929,186.7188
13:40:13:902,-4.1622,0.5872,10.373,56.0046,-0.2892,0.565,-0.541,188.1094
13:40:13:920,-4.6291,0.1969,12.2932,54.5499,-0.3201,0.2489,-0.293,189.25
13:40:13:939,-4.264,-1.1989,15.2344,57.3465,-0.1491,0.107,0.1232,190.0312
13:40:13:961,-3.3709,-0.7871,14.2732,55.6264,0.1108,0.1576,0.5129,190.5
13:40:13:985,-2.6515,-0.3118,13.0784,56.6698,0.2336,0.1408,0.6801,190.5938
13:40:14:003,-2.2899,-0.0018,12.6858,55.9879,0.1396,0.001,0.6609,190.2031
13:40:14:021,-2.5354,-0.1059,13.0389,56.1327,-0.0013,-0.1815,0.5568,189.5781
13:40:14:038,-3.1734,-0.6602,13.8386,56.0458,-0.0338,-0.251,0.5019,188.8125
13:40:14:058,-3.2021,-1.582,13.8194,56.0755,0.147,-0.1551,0.6282,188.1094
13:40:14:079,-2.5797,-2.1015,12.4835,55.248,0.4815,0.0044,0.89,187.5312
13:40:14:102,-1.5178,-1.9279,10.8267,54.7196,0.7079,0.0289,1.1406,186.9062
13:40:14:119,-0.7756,-1.576,10.4592,56.0391,0.6392,-0.1519,1.1914,185.5625
13:40:14:138,-0.5865,-1.6287,11.2469,55.9894,0.3723,-0.2845,1.0564,184.4375
13:40:14:158,-0.7684,-1.9914,11.3929,56.4531,0.2168,-0.1841,0.9052,183.1562
13:40:14:180,-1.1898,-2.1482,10.7417,55.4523,0.2679,-0.0424,0.841,181.9844
13:40:14:202,-1.355,-2.2093,9.7589,55.5941,0.4248,0.0167,0.9137,180.9688
13:40:14:218,-1.0486,-2.0824,8.8647,54.7335,0.6298,-0.0337,1.0889,180.5469
13:40:14:244,-0.3087,-1.8094,8.0494,54.2258,0.8557,-0.125,1.2647,179.6094
13:40:14:258,0.4861,-1.4682,7.1265,54.5406,1.0501,-0.1455,1.336,178.5469
13:40:14:280,1.0548,-1.218,6.1257,54.6944,1.1438,-0.0563,1.2631,177.3438
13:40:14:306,1.3373,-1.2025,5.1979,54.9586,1.1263,0.0699,1.0934,175.9688
13:40:14:320,1.2008,-1.3102,4.6832,54.3894,1.0306,0.103,0.8916,174.625
13:40:14:338,1.1122,-1.3797,4.6341,55.2579,0.8698,0.0529,0.7387,173.4062
13:40:14:358,1.3528,-1.3832,4.9106,55.3555,0.6506,0.0236,0.6695,172.4688
13:40:14:378,1.451,-1.0936,5.648,54.3339,0.3838,0.0223,0.6266,171.6719
13:40:14:399,1.4869,-0.5944,6.8092,54.3423,0.1366,0.0779,0.576,170.9844
13:40:14:418,1.3887,-0.4232,7.8926,55.6272,0.0069,0.1749,0.4346,170
13:40:14:438,1.1003,-0.4088,7.9357,54.6385,-0.0218,0.3597,0.1869,169.3594
13:40:14:458,0.8046,-0.1862,7.6915,55.4022,-0.0911,0.4676,-0.0555,168.8438
13:40:14:478,0.4909,-0.1131,7.8938,54.3919,-0.2948,0.3818,-0.2765,168.6094
13:40:14:501,0.1617,-0.5405,9.2705,53.3853,-0.5963,0.1027,-0.4794,168.6094
13:40:14:520,0.2826,-1.3174,11.0901,52.3045,-0.8772,-0.158,-0.5828,168.8594
13:40:14:537,0.4526,-1.6358,12.2453,53.0986,-1.045,-0.1836,-0.6118,169.2812
13:40:14:558,0.5807,-1.2025,12.9839,54.8894,-1.1819,-0.0981,-0.6256,169.8281
13:40:14:578,0.5963,-0.7727,14.497,52.859,-1.3308,-0.0579,-0.6909,170.375
13:40:14:603,0.3221,-0.8577,15.9706,54.7271,-1.3396,0.0154,-0.8129,170.9219
13:40:14:672,0.5508,-1.151,15.6331,54.591,-1.0003,0.2026,-0.8621,171.5
13:40:14:672,1.3983,-0.9607,13.2628,52.4339,0.0197,0.2721,-0.7346,172.2344
13:40:14:672,2.6301,-0.319,10.9057,53.5634,0.2083,-0.1026,-0.8462,172.2344
13:40:14:685,3.7698,0.1407,9.6512,52.8166,0.233,-0.4797,-1.2193,173.0781
13:40:14:704,4.0726,-0.1419,9.2657,51.812,0.1872,-0.5,-1.6669,174.3125
13:40:14:719,3.2598,-0.9631,8.8587,52.1727,0.1097,-0.1684,-1.9378,175.7344
13:40:14:738,2.0914,-1.2193,7.9177,52.6552,0.0703,0.1488,-1.9908,177.1562
13:40:14:758,1.6773,-1.2947,6.7446,51.1677,0.053,0.2084,-1.9913,179
13:40:14:779,1.5611,-1.1546,5.8982,50.8381,-0.0125,0.1208,-2.0172,181.2188
13:40:14:802,1.3576,-1.0145,6.0012,51.8452,-0.0562,0.0622,-2.0401,183.5156
13:40:14:819,0.8537,-1.157,6.5028,50.7363,0.0314,-0.0227,-2.0422,185.7031
13:40:14:838,0.4993,-1.4551,6.6608,51.3015,0.1792,-0.0997,-2.0148,188.0156
13:40:14:861,0.3497,-1.5628,6.1927,51.0151,0.1651,-0.0598,-1.9719,192.5781
13:40:14:884,-0.1579,-1.3785,5.7139,50.3669,-0.0352,-0.0526,-1.9101,192.5781
13:40:14:902,-0.705,-1.2444,6.1748,50.3566,-0.2772,-0.1234,-1.8339,194.9062
13:40:14:920,-1.197,-1.2324,7.306,48.8442,-0.4655,-0.1836,-1.7631,197.1719
13:40:14:943,-1.7094,-1.1522,8.6444,49.4489,-0.5992,-0.2102,-1.6842,199.3594
13:40:14:957,-2.2073,-1.0948,10.2796,48.5483,-0.6541,-0.1128,-1.5748,201.3125
13:40:14:979,-2.7353,-1.0612,11.8909,47.273,-0.5899,0.14,-1.4379,203.2656
13:40:15:000,-3.1985,-1.0876,12.7349,48.5461,-0.4666,0.4098,-1.2827,205.9844
13:40:15:019,-3.7624,-0.9894,12.7217,47.8726,-0.4029,0.5746,-1.0885,207.5625
13:40:15:044,-4.1419,-0.9331,12.5876,45.8203,-0.4131,0.577,-0.8616,209.0938
13:40:15:057,-3.8893,-0.9738,12.7935,48.4633,-0.4144,0.4724,-0.6536,210.4688
13:40:15:080,-3.0752,-1.169,12.8905,48.5715,-0.4392,0.2478,-0.5527,211.5625
13:40:15:103,-2.6922,-0.9858,13.6016,47.3952,-0.4967,-0.0313,-0.5266,212.4375
13:40:15:126,-2.3175,-1.1223,15.3158,47.0761,-0.49,-0.1207,-0.578,213.125
13:40:15:142,-2.916,-1.497,17.2767,47.2873,-0.2914,0.1248,-0.5263,213.6562
13:40:15:160,-3.4475,-2.3062,18.1541,45.9206,0.1779,0.5733,-0.2499,214.2031
13:40:15:177,-2.8095,-3.1154,16.7248,46.7255,0.7356,0.9823,0.1118,214.8125
13:40:15:203,-1.6507,-3.2627,13.4627,47.6332,1.0916,0.9317,0.3912,215.0938
13:40:15:220,-0.2609,-3.1107,10.7202,47.738,1.1532,0.4556,0.4868,215.4844
13:40:15:238,0.5472,-2.7072,9.6715,45.2338,1.0189,-0.007,0.4583,215.6094
13:40:15:258,0.965,-2.2224,10.027,46.4959,0.8994,-0.1045,0.3797,215.4531
13:40:15:279,1.2355,-1.898,10.1779,45.8461,0.9292,0.0982,0.27,215.1562
13:40:15:302,1.2463,-1.807,9.2058,44.7719,1.0293,0.3147,0.2013,214.6094
13:40:15:319,1.2283,-1.7101,7.4784,44.5748,1.0788,0.4356,0.1954,214.375
13:40:15:339,1.4953,-1.254,4.4677,44.3708,1.024,0.4303,0.2159,214.2812
13:40:15:358,1.597,-0.8446,3.8739,44.4314,0.873,0.3014,0.2135,214.2656
13:40:15:378,1.7215,-0.5632,3.7913,44.3882,0.6938,0.136,0.1762,214.2344
13:40:15:404,1.6904,-0.3741,3.9039,42.929,0.5255,-0.0105,0.0913,214.1719
13:40:15:422,1.6533,-0.2209,4.2606,44.0598,0.3625,-0.1077,0.0101,214.0781
13:40:15:439,1.7287,-0.0952,4.7011,43.2014,0.2019,-0.1679,-0.0464,214.0312
13:40:15:459,1.7958,0.0377,5.3212,41.7473,0.0634,-0.2598,-0.1154,214.0781
13:40:15:478,1.603,0.2089,6.3639,44.3266,-0.0623,-0.4507,-0.2049,214.125
13:40:15:502,1.3265,0.1718,7.6556,44.0926,-0.1553,-0.5865,-0.3074,214.2188
13:40:15:520,1.0715,0.0269,8.5786,42.6264,-0.2037,-0.5724,-0.4171,214.5156
13:40:15:539,0.6932,-0.0018,8.9018,43.632,-0.2557,-0.4236,-0.5183,214.6562
13:40:15:563,0.3533,-0.0904,9.6152,42.4937,-0.391,-0.39,-0.6278,215
13:40:15:577,-0.0035,-0.4352,11.1822,42.4942,-0.591,-0.5772,-0.7444,215.4844
13:40:15:600,-0.1819,-1.0936,13.5238,41.2163,-0.7771,-0.7935,-0.8435,216.0781
13:40:15:620,0.1785,-1.9962,15.3853,40.6024,-0.8235,-0.6968,-0.856,216.75
13:40:15:641,1.1493,-2.5313,14.922,39.5169,-0.6607,-0.2584,-0.8065,217.5312
13:40:15:660,1.8173,-2.1745,13.2616,40.2383,-0.4322,0.0588,-0.8123,218.375
13:40:15:677,2.1669,-1.7244,12.6942,41.9544,-0.3345,-0.1085,-0.9681,219.1719
13:40:15:699,1.8077,-1.8453,13.9511,41.9544,-0.4,-0.4795,-1.3245,220.0156
13:40:15:718,0.8177,-2.8952,15.2871,37.6584,-0.4541,-0.4624,-1.7231,220.9688
13:40:15:745,0.3999,-3.8337,14.1367,40.6014,-0.2708,0.1749,-1.8659,222.2031
13:40:15:757,0.7854,-3.5548,10.4987,38.9783,0.0312,0.9994,-1.7293,224.7812
13:40:15:778,1.4797,-2.6869,7.5179,40.0502,0.1513,1.2223,-1.5548,226.9062
13:40:15:802,1.7706,-1.8501,6.9361,38.0162,0.0064,0.6857,-1.5434,228.9062
13:40:15:820,1.6378,-1.3605,8.5654,36.5862,-0.2314,-0.0654,-1.6715,230.8594
13:40:15:845,1.4115,-1.5401,9.4931,37.4663,-0.2674,-0.3911,-1.8265,232.7188
13:40:15:857,0.5939,-1.7148,8.6947,37.3405,-0.1047,-0.1815,-1.9543,232.7188
13:40:15:877,-0.1112,-1.412,6.8846,36.4728,0.0402,0.2662,-1.9234,236.5
13:40:15:904,-0.2597,-1.0181,5.3105,36.4806,0.078,0.5965,-1.7516,238.7031
13:40:15:920,-0.2082,-0.5728,4.5958,36.22,0.0511,0.5605,-1.5873,240.9531
13:40:15:939,0.0288,-0.2508,4.8041,35.5083,0.0128,0.2739,-1.4835,242.9531
13:40:15:959,0.1665,-0.2556,5.5726,34.3984,-0.0178,-0.0363,-1.4699,244.8594
13:40:15:977,-0.122,-0.4028,6.3807,35.4052,-0.0368,-0.1804,-1.5189,246.5938
13:40:16:002,-1.027,-0.5848,7.3695,34.6724,-0.0945,-0.1676,-1.5828,247.4375
13:40:16:019,-1.8542,-0.8158,8.4995,34.7302,-0.1747,-0.0542,-1.5623,249.0312
13:40:16:045,-2.4539,-0.9691,9.3471,33.065,-0.2131,0.1091,-1.4217,251.6875
13:40:16:058,-2.8598,-0.7859,9.9696,32.966,-0.2599,0.4098,-0.9961,253.4531
13:40:16:080,-2.995,-0.5884,10.4269,34.4719,-0.3033,0.5054,-0.8438,256.4219
13:40:16:107,-3.1399,-0.5213,10.8423,34.0684,-0.3697,0.4777,-0.7274,256.4219
13:40:16:123,-3.2859,-0.7009,11.7664,33.253,-0.4147,0.3693,-0.5814,257.6094
13:40:16:137,-3.1028,-1.3533,13.1371,33.2924,-0.3705,0.3357,-0.382,258.6094
13:40:16:161,-2.4887,-2.0847,14.0146,32.945,-0.2791,0.3791,-0.1782,259.5
13:40:16:176,-1.8398,-2.1243,13.9056,33.0968,-0.2431,0.2297,-0.0459,260.2031
13:40:16:197,-1.592,-1.6346,14.2564,34.0245,-0.2538,-0.1133,-0.0203,260.6875
13:40:16:219,-1.4149,-1.8884,15.5002,31.7316,-0.2067,-0.2459,-0.0453,260.9375
13:40:16:237,-1.9428,-2.6175,16.7248,31.496,0.0184,-0.0502,0.0814,261.0156
13:40:16:257,-2.1044,-3.4818,16.6374,30.2305,0.4562,0.3647,0.4114,261
13:40:16:277,-1.1407,-3.9271,14.2169,31.0903,0.8946,0.6244,0.7392,260.9844
13:40:16:302,0.2623,-3.6865,10.6076,32.6698,1.1007,0.4249,0.8844,260.7344
13:40:16:321,1.3145,-3.0568,7.7717,33.3305,0.9856,-0.1815,0.8021,260.2188
13:40:16:338,1.4558,-2.1051,7.0295,31.6896,0.6818,-0.7634,0.5746,259.5
13:40:16:357,1.2008,-1.734,8.1069,32.4667,0.4376,-0.9378,0.3193,258.625
13:40:16:377,0.9973,-2.1075,9.0897,32.39,0.3731,-0.7005,0.1368,257.8125
13:40:16:402,0.4466,-2.4798,8.9413,32.9817,0.4096,-0.2438,0.1075,257.2344
13:40:16:419,-0.0825,-2.3098,7.9249,31.5964,0.4487,0.1453,0.2095,256.8906
13:40:16:444,0.0923,-1.5185,7.2581,32.7756,0.4772,0.3197,0.2431,256.7344
13:40:16:457,0.4706,-0.8027,7.3575,33.189,0.5081,0.5357,0.0961,256.5938
13:40:16:478,0.3126,-0.7189,6.8918,32.1984,0.5257,0.7906,-0.0643,256.375
13:40:16:504,-0.1675,-0.9966,5.8539,34.5794,0.4834,0.879,-0.0789,256.2812
13:40:16:521,-0.353,-1.2408,4.9848,36.1494,0.3787,0.7403,0.037,256.2812
13:40:16:541,-0.0765,-1.1163,4.6257,33.1352,0.2573,0.4031,0.1355,256.5
13:40:16:561,0.2084,-0.5309,5.0375,33.1954,0.1827,-0.0654,0.1235,256.7188
13:40:16:576,0.3161,-0.1586,6.1772,33.8133,0.2298,-0.4944,0.0058,256.7812
13:40:16:599,0.4095,-0.3382,7.0905,34.7374,0.2748,-0.728,-0.1458,256.7031
13:40:16:618,0.1797,-0.6554,7.6939,34.7729,0.1883,-0.6984,-0.2467,256.5781
13:40:16:639,-0.456,-1.0672,8.1907,34.3606,-0.0234,-0.5623,-0.2499,256.5781
13:40:16:657,-0.966,-1.2611,8.818,34.9394,-0.3398,-0.4683,-0.1796,256.7812
13:40:16:741,-0.9229,-1.2564,9.7697,35.5114,-0.7023,-0.4853,-0.1551,257.0156
13:40:16:741,-0.3087,-1.5137,11.6276,35.8597,-0.9603,-0.5018,-0.195,257.1875
13:40:16:741,0.9231,-2.2464,14.0002,37.3297,-0.971,-0.3714,-0.2917,257.2969
13:40:16:741,1.7311,-2.5564,14.6694,35.8386,-0.8104,-0.3096,-0.4853,257.375
13:40:16:758,0.6418,-2.4858,15.3589,36.3338,-0.7177,-0.5301,-0.73,257.5312
13:40:16:777,-0.8666,-2.9718,17.0504,36.9702,-0.6701,-0.6353,-0.8954,257.875
13:40:16:801,-1.2784,-3.4722,16.3824,38.7416,-0.355,-0.1229,-0.7623,258.4688
13:40:16:817,-0.0107,-3.1921,12.4631,36.1467,0.2229,0.6854,-0.3572,259.2656
13:40:16:837,2.1441,-2.1386,8.6695,37.1976,0.6437,1.0481,0.0322,260.1719
13:40:16:857,3.51,-0.8422,6.8511,36.9355,0.7204,0.6428,0.0921,260.875
13:40:16:877,3.3939,0.0066,6.9265,38.623,0.5491,-0.1002,-0.2296,261.1875
13:40:16:902,2.5248,-0.2939,7.7466,38.1554,0.2887,-0.5511,-0.6938,261.2344
13:40:16:921,1.5647,-0.8589,7.9129,37.9037,0.1017,-0.4896,-1.0424,261.5312
13:40:16:937,0.7435,-0.9894,7.1205,40.0309,0.0314,-0.1133,-1.1745,262.2344
13:40:16:961,0.2359,-0.8074,5.9377,40.2351,-0.0154,0.295,-1.1516,263.375
13:40:16:976,0.1258,-0.5201,5.0962,39.0597,-0.081,0.5,-1.0576,264.0156
13:40:16:997,0.3185,-0.2137,5.0399,39.2445,-0.1385,0.4167,-0.9812,265.3906
13:40:17:019,0.5029,-0.0736,5.3045,40.6497,-0.1406,0.1632,-0.9639,266.6406
13:40:17:036,0.2012,-0.1646,5.6169,42.282,-0.1134,-0.0757,-1.0304,267.875
13:40:17:058,-0.2417,-0.4842,6.0407,41.6203,-0.139,-0.2113,-1.1016,269.0156
13:40:17:077,-0.9265,-0.829,6.8344,41.8674,-0.2677,-0.2273,-1.1183,270.0781
13:40:17:103,-1.7596,-0.9607,8.4253,41.888,-0.4554,-0.1649,-1.0493,271.2812
13:40:17:120,-2.0421,-1.1965,10.4173,42.1308,-0.5646,-0.0307,-0.8656,272.5156
13:40:17:137,-2.3127,-1.1426,11.5845,43.7731,-0.4815,0.2329,-0.6478,273.6875
13:40:17:157,-2.2205,-0.914,11.5952,43.4708,-0.2525,0.499,-0.4422,274.7656
13:40:17:178,-2.0888,-0.7751,11.1655,43.957,-0.037,0.5948,-0.2957,275.6406
13:40:17:203,-2.3187,-0.6985,11.0901,44.6609,0.0346,0.4689,-0.2336,276.5625
13:40:17:220,-2.4252,-0.8936,11.9592,43.9693,-0.0325,0.2183,-0.1868,277
13:40:17:237,-2.1259,-1.339,13.3179,45.669,-0.1393,0.0383,-0.1167,277.3438
13:40:17:257,-1.7106,-1.631,14.0277,45.0898,-0.2005,0.1096,-0.0368,277.5938
13:40:17:277,-1.3813,-1.485,14.3354,46.3859,-0.2626,0.311,0.025,277.7188
13:40:17:297,-1.1635,-1.4934,14.746,45.2826,-0.3164,0.3999,0.0258,277.7812
13:40:17:318,-1.6854,-2.1219,14.9244,45.7026,-0.2748,0.3674,-0.0469,277.7969
13:40:17:337,-2.8179,-2.8222,14.746,44.836,-0.0791,0.2199,-0.0366,277.8281
13:40:17:358,-3.0669,-3.2831,13.7093,47.7,0.2378,0.1395,0.2524,277.9375
13:40:17:377,-2.0781,-3.3561,11.4755,47.3782,0.636,0.1765,0.6934,278.0156
13:40:17:402,-0.7265,-3.0568,8.982,45.8959,0.9185,0.116,1.0311,277.7812
13:40:17:421,0.0336,-2.2643,7.6568,48.6605,0.9308,-0.2089,1.1464,277.0469
13:40:17:438,0.2671,-1.5544,8.0614,47.9199,0.4613,-1.0598,0.8979,275.9375
13:40:17:464,0.6023,-1.5257,9.3615,49.6427,0.3563,-1.0398,0.7118,275.2969
13:40:17:478,0.2336,-1.8262,10.0414,48.8731,0.4466,-0.7445,0.6729,273.4375
13:40:17:499,-0.3351,-1.9088,9.3854,48.2538,0.6203,-0.4145,0.8162,271.3438
13:40:17:520,-0.2465,-1.7735,7.9153,47.4612,0.698,-0.1924,0.9784,271.3438
13:40:17:537,0.048,-1.3294,6.5985,50.6031,0.6701,-0.0989,1.0881,270.5312
13:40:17:557,0.455,-0.9451,5.8563,48.4806,0.6405,-0.1314,1.1044,269.5625
13:40:17:578,0.8632,-0.7356,5.32,50.3378,0.6115,-0.2648,1.0234,268.4375
13:40:17:607,0.9985,-0.5968,5.1165,52.0337,0.5531,-0.3913,0.9086,267.1875
13:40:17:624,1.1038,-0.58,5.186,51.2035,0.4698,-0.464,0.7877,266
13:40:17:639,1.2331,-0.6087,5.3811,50.6944,0.3462,-0.5122,0.6487,264.8125
13:40:17:656,1.2236,-0.4232,5.8492,51.6129,0.1907,-0.5628,0.4995,263.7656
13:40:17:676,1.2762,-0.1945,6.6105,53.12,0.0338,-0.6036,0.3083,262.875
13:40:17:697,1.1996,-0.0629,7.6604,52.709,-0.0879,-0.5543,0.0923,262.1094
13:40:17:726,0.8189,-0.1814,8.6216,52.1166,-0.1729,-0.4094,-0.0773,261.4844
13:40:17:739,0.5257,-0.4758,9.1376,51.191,-0.2764,-0.2723,-0.1657,261.0156
13:40:17:756,0.4766,-0.7057,9.7074,51.191,-0.4503,-0.2568,-0.2243,260.9844
13:40:17:777,0.3054,-0.7428,11.0051,52.2994,-0.6293,-0.2861,-0.2794,261.1094
13:40:17:796,0.1857,-0.811,12.7325,53.899,-0.7175,-0.2491,-0.3412,261.3125
13:40:17:819,0.2599,-1.2025,14.4372,52.5004,-0.6741,0.0079,-0.3354,261.5781
13:40:17:839,0.9746,-1.6981,14.7867,52.5897,-0.5566,0.2966,-0.2408,261.9375
13:40:17:857,1.8508,-1.3222,14.3366,53.3581,-0.4346,0.2641,-0.1841,262.3125
13:40:17:878,2.8193,-0.671,14.5664,53.4799,-0.2591,0.0574,-0.3053,262.6875
13:40:17:903,3.018,-0.2867,15.0429,54.2131,0.0154,-0.0001,-0.5473,262.8281
13:40:17:923,2.5069,-0.7991,14.6862,54.3907,0.3537,0.1834,-0.6528,263.0781
13:40:17:940,2.2722,-1.4838,12.8079,53.111,0.5872,0.4462,-0.5753,263.4062
13:40:17:956,2.7115,-1.7053,10.3598,53.0346,0.6341,0.5006,-0.4637,264.0312
13:40:17:978,3.425,-1.4287,8.3379,54.0451,0.4999,0.2388,-0.4645,264.7969
13:40:18:003,3.8105,-0.8565,7.5012,54.3619,0.2836,-0.1098,-0.5963,265.5
13:40:18:020,3.7363,-0.4758,7.6292,51.1907,0.1204,-0.2448,-0.7969,266.0469
13:40:18:036,3.1186,-0.4627,8.0949,51.4909,0.1121,-0.101,-0.9655,266.8906
13:40:18:057,2.2519,-0.5788,7.8028,51.1848,0.208,0.2446,-1.0323,267.6719
13:40:18:077,1.5001,-0.5273,6.3711,52.5006,0.2413,0.4819,-1.0083,268.625
13:40:18:103,1.0033,-0.2556,4.8424,53.5078,0.1782,0.4441,-0.9615,269.7969
13:40:18:119,0.6705,0.179,4.0451,53.6496,0.0578,0.1882,-0.9601,271
13:40:18:137,0.5915,0.4268,4.002,52.4595,-0.0991,-0.1317,-1.0312,272.0938
13:40:18:157,-0.0681,0.2604,6.0934,54.2271,-0.277,-0.3732,-1.1301,273.2188
13:40:18:177,-0.5182,0.1598,7.6173,52.0547,-0.3928,-0.4321,-1.1498,274.3438
13:40:18:196,-0.8403,0.337,8.3966,51.1577,-0.3758,-0.3583,-1.0944,275.5156
13:40:18:220,-1.0378,0.6075,8.8658,52.9227,-0.3196,-0.3034,-1.0233,276.7969
13:40:18:238,-1.2078,0.7344,9.7864,51.5958,-0.3119,-0.2995,-0.9687,278.0625
13:40:18:255,-1.2963,0.5154,11.1966,50.7324,-0.3236,-0.264,-0.9274,279.2656
13:40:18:277,-1.6351,0.2233,11.6563,51.1281,-0.2623,-0.08,-0.8989,280.3281
13:40:18:298,-2.1224,0.0138,11.7736,52.1712,-0.2349,0.1488,-0.8257,281.9219
13:40:18:320,-2.248,-0.2544,12.6188,51.379,-0.3353,0.2497,-0.6651,282.9531
13:40:18:338,-1.689,-0.6602,13.9356,52.6483,-0.4445,0.2542,-0.4616,283.875
13:40:18:357,-0.9791,-1.1785,14.5557,51.1127,-0.4405,0.3158,-0.305,284.6719
13:40:18:377,-0.9408,-1.145,14.1295,51.4509,-0.3731,0.4668,-0.2049,285
13:40:18:396,-1.3119,-1.0349,14.0685,51.9805,-0.3728,0.4194,-0.126,285.4531
13:40:18:419,-1.9308,-1.3234,14.9531,50.6481,-0.4011,0.1544,-0.0531,285.7969
13:40:18:437,-2.7772,-2.0943,15.7145,51.0186,-0.306,-0.002,0.0806,286.0469
13:40:18:456,-2.8562,-2.9383,14.5605,49.9517,0.0195,0.1863,0.4125,286.2031
13:40:18:476,-2.1403,-3.1334,11.6659,49.5374,0.425,0.5208,0.8844,286.2188
13:40:18:499,-0.9013,-2.7599,9.2609,50.2948,0.6269,0.5195,1.3249,285.9844
13:40:18:520,0.3365,-2.0895,8.6288,51.8217,0.5555,0.1008,1.5968,285.2812
13:40:18:538,1.117,-1.2683,9.3219,51.4482,0.3635,-0.3817,1.6713,284.1406
13:40:18:556,1.5444,-0.8446,9.863,50.7599,0.2682,-0.6076,1.5946,282.4688
13:40:18:577,1.4821,-0.7045,9.4069,51.9936,0.3388,-0.4995,1.4223,279.5625
13:40:18:596,1.3504,-0.5848,8.2481,49.7586,0.4874,-0.2451,1.2852,277.7656
13:40:18:620,1.3373,-0.4758,6.7829,48.6829,0.6184,-0.0161,1.2245,276.0781
13:40:18:637,1.2547,-0.2316,5.5463,48.6553,0.6631,0.0859,1.1986,274.5781
13:40:18:657,1.275,0.0365,4.8053,48.4746,0.6187,0.059,1.1733,273.2344
13:40:18:678,1.3624,0.1407,4.6066,48.0087,0.5356,-0.059,1.1073,271.875
13:40:18:704,1.4366,0.0102,4.6473,49.2849,0.4586,-0.1932,0.9992,270.5156
13:40:18:721,1.3504,-0.0844,4.9154,49.2285,0.3579,-0.2832,0.8908,269.25
13:40:18:739,1.3421,-0.2053,5.5056,49.5045,0.2075,-0.3197,0.8127,268.1562
13:40:18:819,1.3325,-0.2256,6.571,48.7337,0.0261,-0.3492,0.7565,267.1094
13:40:18:819,1.3301,-0.1215,8.0039,48.4842,-0.1531,-0.3375,0.7081,266.1562
13:40:18:820,1.5899,-0.0449,9.2585,49.2446,-0.2557,-0.251,0.6338,265.3125
13:40:18:820,1.7814,0.0712,10.3227,49.8637,-0.2887,-0.2017,0.4617,264.4844
13:40:18:841,1.9849,-0.1395,11.2206,48.4617,-0.3111,-0.2496,0.2095,263.75
13:40:18:856,2.1657,-0.8505,12.371,47.6795,-0.4922,-0.4046,-0.329,263.2188
13:40:18:880,1.9885,-1.6466,13.5453,48.8615,-0.6317,-0.162,-0.427,263.0781
13:40:18:902,2.5332,-2.6222,13.908,48.5174,-0.746,0.1317,-0.4283,263.0469
13:40:18:921,3.2143,-2.9455,13.5106,49.0367,-0.8775,0.161,-0.4912,263.8906
13:40:18:937,3.1186,-2.4391,13.7488,47.4556,-0.979,-0.0057,-0.6648,263.8906
13:40:18:961,2.1465,-2.3529,15.0429,48.7167,-0.8698,0.104,-0.8262,265.0156
13:40:18:974,0.7016,-2.815,15.4643,48.1138,-0.4743,0.5754,-0.7093,265.0156
13:40:18:996,0.4586,-3.3537,13.252,47.2423,-0.0157,0.8486,-0.3415,265.7656
13:40:19:021,1.4678,-3.1909,10.294,47.7787,0.2514,0.6321,0.0577,266.75
13:40:19:037,3.0695,-2.3888,8.1584,46.881,0.293,0.0087,0.2529,267.6562
13:40:19:055,4.2702,-1.0433,7.5598,46.5144,0.2402,-0.5636,0.1299,268.1562
13:40:19:078,4.8891,0.234,7.7932,46.5754,0.1582,-0.6888,-0.3463,268.1562
13:40:19:096,4.7658,0.5788,7.8304,45.4649,0.0003,-0.2715,-0.9721,267.875
13:40:19:117,3.7387,0.0664,7.1911,46.6198,-0.2871,0.5325,-1.4323,267.6562
13:40:19:136,2.2207,-0.3944,6.1676,46.8901,-0.6053,1.2766,-1.6147,269.0156
13:40:19:156,0.9398,-0.4771,5.2889,45.5871,-0.7968,1.6061,-1.6075,270.7344
13:40:19:177,0.0181,-0.4387,4.8795,46.8483,-0.8053,1.528,-1.5061,271.7188
13:40:19:197,-0.541,-0.3585,4.852,46.9814,-0.6463,1.1746,-1.3407,273.6875
13:40:19:220,-0.7337,-0.3334,4.9992,46.7033,-0.4309,0.6503,-1.1639,275.7031
13:40:19:238,-0.8582,-0.3238,5.5642,43.8729,-0.224,0.1469,-0.983,277.5312
13:40:19:256,-0.7601,-0.2747,6.2634,46.0058,-0.0858,-0.2305,-0.8659,279.0156
13:40:19:279,-0.778,-0.3705,7.1672,44.6863,-0.0895,-0.4007,-0.8296,280.3125
13:40:19:296,-1.3957,-0.6794,8.4983,46.116,-0.2333,-0.3122,-0.758,281.3438
13:40:19:319,-2.1116,-0.4854,10.1527,44.9292,-0.3633,-0.0643,-0.6555,282.25
13:40:19:336,-2.0577,-0.5117,11.5354,43.7381,-0.424,0.2473,-0.6739,283.0625
13:40:19:356,-2.1164,-0.8757,12.0262,43.8508,-0.5039,0.5144,-0.7039,283.8281
13:40:19:377,-2.6431,-1.4383,12.444,43.2326,-0.5782,0.5712,-0.5695,284.2031
13:40:19:397,-2.7365,-1.989,13.2879,43.8999,-0.5068,0.4185,-0.3727,285.0156
13:40:19:419,-2.4144,-2.4415,13.9356,41.4182,-0.3771,0.1778,-0.2291,285.875
13:40:19:437,-2.0122,-2.7048,14.3665,42.4726,-0.3377,-0.0174,-0.1457,286.625
13:40:19:455,-1.7489,-2.7216,15.1458,42.1291,-0.3579,-0.1242,-0.1433,287.125
13:40:19:476,-1.6902,-3.0352,16.1382,41.3945,-0.2919,-0.0992,-0.2118,287.4844
13:40:19:496,-2.7424,-3.7942,16.5488,41.2045,-0.0269,0.0311,-0.1069,287.625
13:40:19:519,-3.6331,-4.8261,15.7324,41.5728,0.3816,0.3237,0.3067,287.7969
13:40:19:536,-3.4056,-5.3097,13.1383,39.9013,0.7388,0.5475,0.8631,288
13:40:19:557,-1.0629,-4.0312,7.5059,40.6658,0.8115,0.3347,1.311,287.9531
13:40:19:581,-0.6607,-2.9179,7.0654,39.9766,0.6554,-0.2387,1.4998,287.3906
13:40:19:595,-0.6463,-2.1446,8.0339,40.9692,0.4533,-0.8419,1.5113,286.2969
13:40:19:618,-0.2393,-1.7819,8.9341,40.6155,0.3388,-1.0696,1.5368,284.6875
13:40:19:636,-0.0526,-1.4874,8.7581,40.9249,0.4043,-0.9421,1.5723,282.8594
13:40:19:662,-0.1076,-1.1965,7.5395,40.5961,0.5944,-0.6973,1.6138,281.0469
13:40:19:674,-0.0358,-0.9152,6.0263,40.7092,0.7516,-0.4678,1.6942,279.1094
13:40:19:696,0.3987,-0.7464,4.7227,41.7944,0.8139,-0.3543,1.7829,277.1562
13:40:19:720,0.7208,-0.5213,4.0451,39.474,0.779,-0.4289,1.8093,275.1875
13:40:19:740,1.0057,-0.2699,4.0679,39.4508,0.6629,-0.6092,1.7704,273.25
13:40:19:756,1.2271,-0.2867,4.6341,41.1415,0.5188,-0.794,1.67,270.0781
13:40:19:776,1.2846,-0.4399,5.2374,40.3772,0.3963,-0.9426,1.5166,267.9844
13:40:19:798,1.214,-0.5154,5.9856,39.4755,0.2621,-1.0403,1.3536,266.0781
13:40:19:820,1.3002,-0.3059,7.2162,39.4754,0.0661,-1.0944,1.1968,264.25
13:40:19:837,1.7479,-0.3466,8.8419,38.2831,-0.1153,-1.0766,1.0157,262.5781
13:40:19:856,2.0256,-0.6889,10.2796,38.6752,-0.2202,-0.9658,0.7446,261.8125
13:40:19:877,2.1729,-1.1893,11.1715,38.5423,-0.2677,-0.7572,0.4226,260.5
13:40:19:896,2.2399,-1.8477,12.1136,37.391,-0.3079,-0.574,0.1294,259.375
13:40:19:919,2.3021,-2.2452,12.8725,38.061,-0.3065,-0.4153,-0.0808,258.625
13:40:19:938,2.3357,-2.645,12.9695,38.2099,-0.1808,-0.2816,-0.2219,258.2656
13:40:19:956,2.7427,-3.0987,12.7756,38.0393,0.0272,-0.2401,-0.2818,258.2188
13:40:19:976,3.9565,-3.2807,12.1687,37.9743,0.2242,-0.2731,-0.2131,258.375
13:40:19:995,4.992,-2.8497,11.2349,36.4313,0.3047,-0.2856,-0.22,258.6406
13:40:20:018,4.8747,-2.2464,10.6088,38.278,0.1984,-0.2752,-0.4914,258.8906
13:40:20:035,3.6201,-2.3361,10.9572,37.6806,-0.1001,-0.2339,-0.9769,259.1719
13:40:20:056,2.441,-3.6829,11.855,37.7802,-0.4525,0.0148,-1.3727,259.6562
13:40:20:075,1.3923,-4.8022,11.7173,36.774,-0.6722,0.5778,-1.4581,260.7656
13:40:20:096,1.1338,-4.8716,10.7668,38.8251,-0.7249,1.0987,-1.1519,262.375
13:40:20:123,2.0567,-4.1402,9.5362,37.7416,-0.636,1.108,-0.6137,264.1719
13:40:20:141,2.9725,-2.5121,9.1424,39.092,-0.5273,0.6321,-0.1777,265.5938
13:40:20:155,3.2861,-1.1283,9.6476,36.8049,-0.4365,0.0055,-0.0331,266.4844
13:40:20:175,2.6876,-0.811,9.5123,37.1061,-0.2434,-0.3056,-0.1884,266.7969
13:40:20:196,1.3696,-0.8889,8.2039,38.2758,-0.0405,-0.1109,-0.4179,266.8594
13:40:20:222,0.5568,-0.7476,6.4776,37.5029,-0.0085,0.3842,-0.4485,267.0469
13:40:20:240,0.382,-0.3035,5.4266,39.7163,-0.1041,0.7222,-0.3173,267.5156
13:40:20:256,0.6298,0.2245,5.1764,38.2192,-0.2288,0.4846,-0.1617,268.0469
13:40:20:277,0.9147,0.6447,5.5247,38.304,-0.2285,0.279,-0.24,268.5312
13:40:20:297,0.9722,0.7404,6.14,38.5292,-0.2048,0.2199,-0.3465,268.8594
13:40:20:321,0.7268,0.7189,6.3472,37.4169,-0.2394,0.2095,-0.4227,269.25
13:40:20:340,0.4909,0.7967,6.65,38.5143,-0.3545,0.194,-0.4685,269.25
13:40:20:359,0.3365,0.8039,7.4174,38.5636,-0.518,0.1882,-0.5143,270.3906
13:40:20:374,0.0995,0.8697,8.8467,37.4967,-0.6402,0.254,-0.5655,270.3906
13:40:20:395,-0.031,0.9367,10.6232,37.2673,-0.6397,0.4018,-0.6395,270.9375
13:40:20:415,-0.1004,0.6063,12.1842,38.5597,-0.5065,0.5986,-0.7074,271.5781
13:40:20:438,-0.4021,0.1778,12.8917,37.0624,-0.3159,0.7733,-0.7063,272.2969
13:40:20:455,-0.6523,-0.24,12.6259,38.6707,-0.212,0.7845,-0.6411,273.125
13:40:20:475,-0.6607,-0.5106,12.438,38.033,-0.2288,0.638,-0.541,274.0156
13:40:20:495,0.1282,-0.9068,12.9085,39.0323,-0.3111,0.4002,-0.5202,274.9688
13:40:20:515,0.5831,-1.327,14.0672,37.6136,-0.4005,0.2225,-0.525,275.8594
13:40:20:537,0.4263,-1.6143,15.3829,38.0722,-0.437,0.1621,-0.4797,276.5625
13:40:20:555,0.2503,-2.3122,16.914,37.1572,-0.3004,0.3517,-0.4235,277.2344
13:40:20:575,-0.6164,-3.2831,17.2791,38.5783,0.0948,0.6702,-0.2304,277.8906
13:40:20:595,-1.5837,-4.03,15.4774,38.6337,0.6227,0.8399,0.2029,279
13:40:20:615,-1.5789,-4.2096,12.2919,39.7626,1.0517,0.6745,0.6897,279.25
13:40:20:637,-0.608,-3.866,8.9365,39.5137,1.1942,0.1272,1.022,279.4531
13:40:20:656,0.5699,-2.876,6.8212,42.0973,1.0043,-0.6422,1.0447,279.125
13:40:20:675,0.8884,-1.6442,6.9649,39.5244,0.6418,-1.2329,0.8298,278.2188
13:40:20:695,0.619,-1.3629,8.9868,40.3582,0.4072,-1.2598,0.5968,276.9688
13:40:20:724,-0.2225,-1.7926,10.7716,41.0988,0.4743,-0.8142,0.5619,275.7344
13:40:20:742,-0.9492,-2.1099,10.7537,41.2783,0.779,-0.3128,0.7525,274.7812
13:40:20:759,-1.1539,-2.0273,8.8778,40.8042,1.0498,-0.0108,1.0253,274
13:40:20:776,-0.7708,-1.5461,6.6368,41.4935,1.1454,0.0121,1.2375,273.1875
13:40:20:798,0.0684,-1.1187,5.1704,41.6217,1.1249,-0.1652,1.3022,272.1875
13:40:20:821,0.7866,-0.7823,4.4881,41.2364,1.0496,-0.4406,1.2255,270.8594
13:40:20:888,1.2152,-0.6003,4.3935,42.7535,0.9454,-0.6648,1.0609,269.375
13:40:20:889,1.4187,-0.5776,4.579,43.7317,0.7987,-0.7487,0.8506,268.6094
13:40:20:889,1.4091,-0.6806,4.834,41.1381,0.5966,-0.7373,0.6476,267.2344
13:40:20:903,1.3481,-0.7847,5.2578,42.3126,0.3326,-0.7149,0.4601,265.9688
13:40:20:924,1.2571,-0.8577,6.0826,44.1942,0.0274,-0.6531,0.2774,264.5
13:40:20:937,0.9781,-0.9918,7.4281,41.7813,-0.2386,-0.4675,0.1275,263.8438
13:40:20:955,0.7172,-1.4826,9.7697,42.8582,-0.3739,-0.1958,0.03,263.375
13:40:20:977,0.868,-1.7208,10.0199,42.3379,-0.4184,-0.0289,-0.0587,263.125
13:40:20:995,1.105,-2.0788,10.6232,44.6424,-0.4983,-0.0994,-0.1513,263.0469
13:40:21:023,1.2595,-2.5684,12.1064,44.8723,-0.6514,-0.263,-0.2294,263.0781
13:40:21:039,1.8113,-3.2938,13.0569,44.6555,-0.791,-0.162,-0.2352,263.2031
13:40:21:056,2.538,-3.4913,12.5589,45.0009,-0.848,0.1986,-0.1878,263.4375
13:40:21:074,3.1569,-3.0065,11.879,43.4173,-0.9353,0.398,-0.1841,263.7344
13:40:21:094,2.9857,-2.5636,12.7217,45.2516,-1.1207,0.2684,-0.3266,264.0312
13:40:21:119,1.5911,-2.8652,14.4599,45.3414,-1.2751,0.1453,-0.5961,264.3125
13:40:21:137,0.1378,-3.5524,14.6131,44.0836,-1.1446,0.4335,-0.693,264.6562
13:40:21:157,0.2204,-3.7463,12.6882,45.109,-0.7553,0.9038,-0.4224,265.2656
13:40:21:177,1.6425,-3.1358,10.2593,44.4173,-0.3481,1.0598,0.0548,266.1406
13:40:21:194,3.0851,-1.8812,8.7569,43.9694,-0.0932,0.7086,0.3978,267.2031
13:40:21:217,3.8464,-0.6027,8.4038,45.4158,0.0109,0.0697,0.4093,267.3281
13:40:21:238,3.5651,0.1215,8.6085,43.6721,0.0003,-0.3698,0.1011,266.9844
13:40:21:254,2.6301,-0.0245,8.4684,46.4388,-0.0732,-0.2917,-0.3383,266.5469
13:40:21:275,1.6509,-0.4352,7.6017,45.8281,-0.1385,0.1312,-0.656,266.375
13:40:21:297,0.7794,-0.3932,6.5099,44.5033,-0.2229,0.6303,-0.7796,266.7188
13:40:21:321,0.443,-0.1622,5.7354,46.3814,-0.3156,0.9504,-0.7442,267.4375
13:40:21:340,0.6681,0.1718,5.733,45.4145,-0.3569,0.9043,-0.6384,267.9219
13:40:21:355,1.0691,0.4627,6.2262,45.8867,-0.3156,0.642,-0.5862,268.9531
13:40:21:375,1.2044,0.4998,6.7111,47.0214,-0.2083,0.3741,-0.6443,269.9219
13:40:21:395,0.9614,0.4423,6.9696,45.5838,-0.1065,0.194,-0.758,270.7031
13:40:21:417,0.5173,0.1502,7.3695,46.4983,-0.11,0.1107,-0.8763,271.4844
13:40:21:438,0.1246,-0.1694,8.4073,46.7912,-0.2415,0.1288,-0.9245,272.3281
13:40:21:455,-0.1938,-0.2484,9.7661,48.5866,-0.4021,0.2385,-0.876,273.2969
13:40:21:474,-0.6439,-0.0964,10.9644,48.0304,-0.47,0.3714,-0.7892,274.8438
13:40:21:497,-0.8857,-0.0162,11.9364,48.3346,-0.4397,0.4513,-0.6842,275.9062
13:40:21:516,-0.687,-0.173,12.693,45.7826,-0.3486,0.446,-0.542,276.8281
13:40:21:538,-0.3925,-0.4675,13.3825,46.9076,-0.2384,0.3541,-0.3841,277.7031
13:40:21:555,0.2371,-0.6398,14.2576,49.1002,-0.1457,0.1791,-0.235,278.4062
13:40:21:574,0.8931,-0.7404,15.062,49.6828,-0.073,0.1216,-0.1585,278.9219
13:40:21:596,0.8776,-0.9284,14.6658,48.0521,0.0288,0.3035,-0.2666,279.2031
13:40:21:622,0.2587,-1.4371,13.4304,48.565,0.0666,0.6036,-0.5258,279.4062
13:40:21:639,-0.6882,-2.967,12.7959,49.6842,-0.041,0.7482,-0.8496,279.7812
13:40:21:657,-3.2069,-4.7531,12.6822,48.2688,0.0647,0.3661,-0.9314,280.4688
13:40:21:675,-5.5245,-5.9669,12.3075,48.5997,0.3984,-0.0323,-0.2541,281.5938
13:40:21:695,-5.4371,-6.1824,11.2553,50.9369,0.7161,-0.3125,0.5805,282.9844
13:40:21:716,-3.3613,-5.6377,9.5805,47.9886,0.8488,-0.5937,1.1464,284.4062
13:40:21:738,-1.5932,-4.3497,8.0662,49.396,0.7332,-1.0174,1.3856,284.4062
13:40:21:758,-0.6128,-2.9215,7.8292,49.8481,0.5089,-1.4686,1.4455,283.6875
13:40:21:775,0.2443,-2.0728,9.2609,50.5724,0.4615,-1.6158,1.4013,282.2812
13:40:21:795,0.6837,-1.9112,10.385,48.7918,0.6338,-1.3501,1.323,280.6094
13:40:21:816,0.3305,-1.8202,10.1132,49.8611,0.8408,-0.8875,1.3598,278.7031
13:40:21:839,0.1438,-1.5377,9.1364,49.7535,1.0152,-0.3799,1.4812,276.8281
13:40:21:856,0.443,-1.2204,7.5071,49.7535,1.1079,-0.08,1.519,275.1562
13:40:21:873,0.7818,-0.9248,6.0024,49.7094,1.1252,-0.0432,1.4631,273.4375
13:40:21:894,1.1206,-0.7308,4.9729,50.023,1.0807,-0.2251,1.3419,271.6562
13:40:21:918,1.433,-0.6518,4.4366,49.9534,0.9886,-0.4986,1.168,269.875
13:40:21:938,1.7191,-0.6075,4.3516,49.746,0.8309,-0.7285,0.9424,268.25
13:40:21:955,1.8377,-0.6363,4.8053,48.7344,0.6165,-0.7714,0.6868,266.6719
13:40:21:976,1.8616,-0.8457,5.4182,49.9636,0.3545,-0.6395,0.4324,265.25
13:40:21:993,1.6306,-1.0373,6.1125,49.816,0.0719,-0.4113,0.2255,264.1406
13:40:22:015,1.2738,-1.0936,6.99,49.7573,-0.1689,-0.2145,0.0676,263.2656
13:40:22:040,1.1445,-1.254,8.0494,50.8341,-0.327,-0.0843,-0.0752,262.7188
13:40:22:058,1.1278,-1.327,8.9042,51.0513,-0.4498,-0.121,-0.2563,262.375
13:40:22:074,1.518,-1.6909,10.1013,49.3425,-0.6133,-0.2771,-0.5074,262.375
13:40:22:095,1.4929,-2.4355,12.1698,50.0739,-0.7774,-0.1812,-0.7279,262.5625
13:40:22:115,0.6011,-3.2914,14.3486,49.237,-0.7864,0.3608,-0.696,262.9844
13:40:22:139,0.2587,-3.9522,14.9148,48.1966,-0.6219,1.0258,-0.419,263.7344
13:40:22:159,0.7722,-3.8385,13.5657,50.7661,-0.4759,1.3432,-0.0978,264.6406
13:40:22:173,1.6198,-2.888,11.7377,48.6199,-0.4977,1.2154,0.0386,265.4219
13:40:22:193,2.0831,-2.0871,10.8303,48.3121,-0.6368,0.8399,-0.0744,265.8438
13:40:22:215,1.5097,-1.9076,11.4133,49.5809,-0.6674,0.5608,-0.1854,266.0156
13:40:22:238,0.7627,-2.6139,12.0609,50.2812,-0.5132,0.4952,-0.0576,266.1562
13:40:22:255,0.6585,-3.2986,11.4169,50.3398,-0.3417,0.3719,0.3043,266.4062
13:40:22:275,1.6665,-3.2352,10.5346,51.0531,-0.2389,-0.0145,0.6719,266.6562
13:40:22:295,3.3508,-2.4403,10.6304,47.7348,-0.1124,-0.4289,0.7376,266.6094
13:40:22:316,4.2714,-1.1857,10.8985,49.2498,0.0525,-0.5011,0.4138,266.4062
13:40:22:336,3.6656,-0.3909,10.1096,51.0073,0.1316,-0.2193,-0.0072,265.6562
13:40:22:356,1.7706,-0.3825,6.9852,48.8465,0.0892,0.2313,-0.2797,264.4062
13:40:22:379,1.4486,-0.1826,5.4745,49.0681,-0.0061,0.6268,-0.3705,264.125
13:40:22:395,1.4043,0.1694,4.5671,48.1781,-0.1241,0.7877,-0.3836,264.3125
13:40:22:415,1.5575,0.6913,4.2893,49.6038,-0.2091,0.6758,-0.4211,264.7812
13:40:22:436,1.7694,0.9954,4.901,47.1283,-0.2631,0.3586,-0.5524,265.3125
13:40:22:454,1.5145,1.0289,5.9725,49.786,-0.289,0.0526,-0.7873,265.8594
13:40:22:475,0.7854,0.7392,7.0522,49.8275,-0.315,-0.0744,-1.0392,266.4844
13:40:22:494,-0.1854,0.325,8.156,48.8096,-0.3382,-0.0315,-1.194,267.2656
13:40:22:515,-1.2604,0.1191,9.6296,49.2827,-0.3654,0.0414,-1.1868,268.2969
13:40:22:539,-1.841,0.1706,10.9967,49.5994,-0.3419,0.1416,-1.0214,269.5156
13:40:22:556,-2.0601,0.3992,12.0801,49.2118,-0.2466,0.2225,-0.8326,270.9062
13:40:22:574,-2.1355,0.3107,12.523,48.6346,-0.1193,0.344,-0.6976,272.2031
13:40:22:597,-2.4695,0.1778,12.5158,48.1857,-0.0437,0.4638,-0.5926,273.2344
13:40:22:613,-2.6323,-0.021,13.0557,47.1229,-0.0804,0.4678,-0.4264,274.1406
13:40:22:635,-2.0912,-0.5201,14.4384,49.1247,-0.1617,0.3602,-0.2089,274.9688
13:40:22:656,-1.6674,-0.9044,15.5481,45.8795,-0.1286,0.2593,-0.0509,275.875
13:40:22:675,-1.3646,-1.0253,16.0269,47.8946,0.0051,0.1951,0.0535,276.1719
13:40:22:697,-1.1156,-1.6682,16.3693,46.4462,0.1273,0.128,0.0987,276.2812
13:40:22:713,-2.6371,-2.8258,16.0437,47.6618,0.3521,0.0257,0.0175,276.25
13:40:22:734,-4.1179,-3.7463,14.6622,46.2464,0.7566,-0.0888,0.1347,276.1719
13:40:22:756,-3.1387,-4.2252,12.3853,48.5173,1.1308,-0.0307,0.6474,276.1562
13:40:22:774,-1.3969,-4.036,9.4261,47.5693,1.3311,0.1914,1.1123,276.0156
13:40:22:797,-1.0988,-3.2483,7.1863,48.5988,1.2203,0.2316,1.2114,275.3125
13:40:22:813,-1.8805,-2.651,7.136,48.2799,0.8242,-0.112,1.1094,274.1094
13:40:22:834,-2.2026,-3.0005,8.6983,48.0663,0.4208,-0.5786,1.0553,273.4375
13:40:22:855,-2.2181,-3.1969,9.4596,46.6725,0.2884,-0.7634,1.1504,272.2188
13:40:22:874,-1.6674,-2.7695,8.8587,47.0452,0.4317,-0.6638,1.4005,270.9688
13:40:22:969,-0.632,-2.1925,7.5969,47.3109,0.6772,-0.5618,1.6876,269.6562
13:40:22:969,0.3173,-1.5652,6.3938,47.8636,0.869,-0.561,1.8405,268.1562
13:40:22:970,1.0572,-1.1869,5.6588,48.3739,0.9308,-0.5804,1.854,266.4062
13:40:22:970,1.5168,-0.9511,5.1967,48.0723,0.9041,-0.5354,1.7749,263.25
13:40:22:974,1.7694,-0.744,4.937,47.8589,0.8272,-0.4278,1.6253,261.0781
13:40:22:994,1.9873,-0.5381,5.0375,49.6405,0.7063,-0.3407,1.4285,259.125
13:40:23:014,1.8855,-0.5692,5.842,46.4471,0.5659,-0.3575,1.1728,257.2344
13:40:23:040,1.5707,-0.5979,6.4489,46.2468,0.4631,-0.325,0.9102,255.5938
13:40:23:056,1.4127,-0.4483,6.9744,47.7536,0.2549,-0.1905,0.4915,254.3125
13:40:23:074,1.354,-0.4016,7.3599,50.4937,0.1156,-0.1631,0.2617,254.3125
13:40:23:094,1.2128,-0.5908,7.5646,48.1378,-0.098,-0.1391,0.0404,253.25
13:40:23:115,0.8441,-1.1223,8.0303,49.8928,-0.3886,-0.0976,-0.0842,251.9062
13:40:23:137,0.4514,-1.7675,8.879,48.6239,-0.7436,0.0393,-0.1138,251.5938
13:40:23:156,0.0767,-2.4391,9.8571,49.1897,-1.1705,0.2372,-0.1284,251.5469
13:40:23:174,-1.0474,-3.4016,11.3893,48.7523,-1.5548,0.3711,0.0942,251.6406
13:40:23:194,-0.5039,-4.2587,13.3658,50.9479,-1.7508,0.516,0.5041,251.7812
13:40:23:215,2.0651,-4.0887,14.8214,50.3364,-1.8347,0.8542,0.6548,251.9531
13:40:23:240,4.5335,-2.6833,16.058,51.075,-1.9047,1.7464,0.2231,251.6562
13:40:23:257,5.0004,-1.4754,15.9778,50.1946,-1.894,2.871,-0.7026,251.0156
13:40:23:274,2.2339,-1.4635,14.1774,50.2274,-1.6938,3.3102,-1.3247,250.5312
13:40:23:297,-0.1352,-2.3445,12.517,50.0245,-1.163,2.8423,-1.2225,251.0312
13:40:23:314,-0.0633,-2.8305,11.1954,50.6026,-0.4397,1.748,-0.9234,251.75
13:40:23:338,0.698,-2.2308,9.6523,50.4693,0.1585,0.4497,-0.8464,253.5938
13:40:23:356,1.208,-1.3006,8.3894,50.08,0.3997,-0.6395,-1.0579,255.4062
13:40:23:373,1.1039,-1.3186,8.2505,49.7853,0.4301,-1.2161,-1.3151,256.75
13:40:23:393,0.23,-1.6957,8.6456,49.5278,0.4746,-1.2856,-1.3934,257.7812
13:40:23:414,-0.4249,-1.9052,8.5869,51.0654,0.5481,-0.9407,-1.3191,258.9062
13:40:23:439,-0.5948,-1.7484,7.6041,49.7955,0.5409,-0.3623,-1.1886,260.2188
13:40:23:458,-0.3961,-1.2623,6.0874,50.3007,0.4037,0.1754,-1.0954,261.5469
13:40:23:473,0.0312,-0.7488,4.7969,51.8523,0.1702,0.4867,-1.1324,262.9219
13:40:23:493,0.0839,-0.3418,4.1014,49.8663,-0.1068,0.614,-1.2624,264.9062
13:40:23:514,-0.4177,-0.0114,4.3073,50.2354,-0.3534,0.5773,-1.3961,266.1719
13:40:23:539,-1.4352,-0.2173,5.4721,50.8733,-0.4525,0.4114,-1.4028,267.6406
13:40:23:557,-2.5485,-0.7799,6.9673,49.8876,-0.3909,0.2193,-1.2081,269.2656
13:40:23:573,-3.511,-0.9212,8.3738,50.4067,-0.2799,0.0662,-0.8672,270.8906
13:40:23:593,-4.2532,-0.8206,9.5985,52.3267,-0.2053,-0.0664,-0.5007,272.4531
13:40:23:613,-4.7177,-0.8864,10.9632,50.6814,-0.1481,-0.1221,-0.126,273.6562
13:40:23:638,-4.5704,-0.8027,12.11,53.2999,-0.0687,-0.1498,0.1861,274.4219
13:40:23:657,-3.8761,-0.6662,12.7564,52.1302,-0.0392,-0.0414,0.3568,274.7188
13:40:23:677,-3.1399,-0.7931,13.3035,52.6934,-0.1137,0.308,0.3925,274.6406
13:40:23:694,-2.8502,-1.1247,13.8219,53.5773,-0.2027,0.8516,0.3967,274.2812
13:40:23:714,-2.8538,-1.2049,13.8853,52.2479,-0.1771,1.2391,0.417,273.875
13:40:23:740,-2.77,-1.5281,13.349,53.6727,-0.0192,1.266,0.4846,273.5312
13:40:23:756,-2.618,-1.9722,11.2433,54.9488,0.0623,0.8577,0.6023,273.2969
13:40:23:775,-1.5729,-2.2966,13.0138,55.6343,-0.0474,0.0449,0.7081,273.0625
13:40:23:794,-2.0721,-3.1454,15.0513,54.3916,0.0168,-0.7812,0.6008,272.7188
13:40:23:815,-3.2117,-4.212,15.3122,56.5563,0.4653,-1.1639,0.5664,272.0469
13:40:23:838,-2.7472,-4.692,12.8438,56.3534,1.1465,-1.1125,0.9091,271.1875
13:40:23:855,-1.7189,-3.805,9.0849,54.532,1.5894,-0.7684,1.2892,270.4062
13:40:23:874,-0.8965,-2.621,6.5219,57.0793,1.4629,-0.5309,1.4135,269.4375
13:40:23:893,-0.6691,-1.8896,6.419,55.3045,0.9257,-0.6899,1.3094,268.1094
13:40:23:913,-0.3159,-1.8513,7.7262,55.3045,0.3654,-0.982,1.1675,266.6406
13:40:23:939,-0.0502,-1.9423,8.3236,57.7026,0.1127,-1.0923,1.0602,265.0781
13:40:23:958,-0.1304,-1.8824,8.1584,55.9928,0.1151,-1.0875,0.9829,263.5938
13:40:23:973,-0.3171,-1.7232,7.4078,55.7671,0.2013,-0.9309,0.9818,262.2031
13:40:23:993,-0.3159,-1.5425,6.425,56.1852,0.2826,-0.7399,1.0362,260.9688
13:40:24:013,-0.0598,-1.4742,5.4314,55.358,0.3598,-0.6331,1.1004,259.7344
13:40:24:040,0.2371,-1.4084,4.5898,54.9674,0.416,-0.6816,1.1432,258.4844
13:40:24:056,0.309,-1.3306,4.3827,56.4852,0.408,-0.8803,1.1462,257.2656
13:40:24:073,0.2695,-1.5329,4.664,56.64,0.359,-1.0747,1.1326,255.2344
13:40:24:093,0.2934,-1.6562,5.0674,56.4782,0.2746,-1.1591,1.1304,253.8281
13:40:24:113,0.5568,-1.7304,5.6421,57.0607,0.131,-1.1213,1.136,252.5
13:40:24:136,0.8836,-1.6394,6.5088,57.232,-0.0751,-1.0047,1.1035,251.0938
13:40:24:153,1.2954,-1.2803,8.156,57.5411,-0.3145,-0.9168,1.0074,249.6875
13:40:24:173,1.6126,-0.9535,10.1144,57.906,-0.4953,-0.8246,0.789,248.3906
13:40:24:193,1.5145,-1.1714,11.3319,56.4767,-0.5199,-0.6462,0.4279,247.1562
13:40:24:214,0.8608,-1.8274,11.7724,58.3493,-0.4938,-0.3815,0.013,246.1875
13:40:24:238,0.2431,-2.6055,12.4045,57.5149,-0.5827,-0.0859,-0.269,245.6406
13:40:24:256,-0.2118,-3.1454,13.2305,58.6434,-0.7281,0.2162,-0.3798,245.5781
13:40:24:273,-0.037,-3.6063,13.6064,57.2622,-0.8059,0.5173,-0.3585,245.75
13:40:24:293,0.783,-3.7308,13.2544,57.5192,-0.8088,0.7882,-0.2635,246.1562
13:40:24:317,1.5204,-3.2088,12.8989,58.3155,-0.8413,0.9288,-0.2195,246.6875
13:40:24:339,1.6928,-2.7898,13.3167,58.8972,-0.9223,0.9163,-0.3311,246.9062
13:40:24:355,0.7519,-2.8988,14.3043,59.6636,-0.9585,0.8508,-0.5745,247.5625
13:40:24:374,-0.6176,-3.2794,14.6778,58.5028,-0.8442,1.0076,-0.7042,248.2812
13:40:24:393,-0.7912,-3.4734,13.5549,56.8606,-0.5356,1.3911,-0.5199,249.0938
13:40:24:415,0.2431,-3.3573,11.1403,59.7018,-0.1244,1.6093,-0.1156,250.0781
13:40:24:440,1.4187,-2.5073,9.213,58.5682,0.2059,1.2907,0.2822,250.9375
13:40:24:457,2.4159,-1.3497,8.8611,58.4007,0.3997,0.4308,0.5334,251.3594
13:40:24:474,2.6816,-0.5441,9.2417,59.019,0.6807,-0.8339,0.3131,251.2969
13:40:24:494,2.3644,-0.2735,9.3854,58.5341,0.8237,-0.7524,0.1176,251.2969
13:40:24:514,1.7874,-0.2999,8.6671,58.1464,0.9476,-0.4201,0.0023,250.1875
13:40:24:537,1.141,-0.2831,7.1193,57.1323,0.959,-0.0717,-0.0131,249.7188
13:40:24:554,0.8668,-0.0497,5.5654,56.6566,0.8304,0.1203,0.0236,249.5
13:40:24:572,1.1565,0.2616,4.676,59.4838,0.6325,0.1019,-0.0067,249.4531
13:40:24:592,1.2882,0.5884,4.4988,58.1073,0.4392,-0.0443,-0.1029,249.4844
13:40:24:612,1.1817,0.8721,5.0603,57.3936,0.306,-0.2113,-0.2296,249.5156
13:40:24:633,0.9135,0.8326,5.933,57.0249,0.2256,-0.2904,-0.3465,249.5625
13:40:24:656,0.6525,0.6602,6.8248,57.3016,0.0908,-0.1953,-0.4017,249.7812
13:40:24:674,0.2503,0.5333,7.7502,56.177,-0.0919,0.0359,-0.3804,250.0938
13:40:24:694,-0.1316,0.6159,8.6264,58.6656,-0.253,0.1874,-0.3287,250.5156
13:40:24:712,-0.4081,0.6949,9.7206,57.945,-0.3238,0.2183,-0.2744,250.9375
13:40:24:734,-0.5961,0.6039,10.9823,59.6365,-0.2682,0.2137,-0.2017,251.1562
13:40:24:757,-0.5134,0.4435,11.8023,58.4137,-0.1308,0.0971,-0.1101,251.5469
13:40:24:775,-0.0861,0.4507,12.3602,57.8222,0.0045,-0.1423,-0.0744,251.875
13:40:24:793,0.1007,0.2269,13.1084,57.0925,0.1103,-0.264,-0.0834,252.1094
13:40:24:813,0.121,-0.3513,13.7105,57.1113,0.1417,-0.0909,-0.0555,252.25
13:40:24:833,-0.0226,-0.4651,13.592,56.1752,0.0525,0.2191,0.0274,252.3125
13:40:24:856,-0.3375,-0.009,13.27,58.4284,-0.1284,0.4633,0.1531,252.375
13:40:24:873,0.0049,0.1191,13.4627,57.4579,-0.2064,0.4641,0.1387,252.4219
13:40:24:892,-0.2896,-0.6686,13.8398,56.094,-0.012,0.2798,0.0726,252.4219
13:40:24:913,-1.5346,-1.5987,13.6351,56.1183,0.3563,0.1357,0.2396,252.3125
13:40:24:932,-2.4001,-2.4487,12.1603,53.9027,0.7169,-0.0307,0.5959,252.1875
13:40:24:956,-2.5354,-2.4882,9.9696,56.1841,0.7984,-0.3508,1.0157,252.0781
13:40:24:973,-1.1611,-1.9207,8.7569,56.0444,0.6013,-0.7389,1.2002,251.6875
13:40:25:035,0.0923,-0.9667,9.1723,55.8371,0.3473,-1.055,1.0932,250.7656
13:40:25:035,0.4071,-0.4387,10.5753,54.0506,0.2919,-1.0614,0.8974,249.4219
13:40:25:035,0.3784,-0.4986,11.0063,54.5553,0.4091,-0.7972,0.7469,248
13:40:25:054,0.3066,-0.5345,10.0342,53.9329,0.5345,-0.508,0.678,246.8281
13:40:25:076,0.4047,-0.4818,8.5331,55.3892,0.5832,-0.3538,0.6431,245.8281
13:40:25:092,0.5628,-0.4471,7.5083,53.0891,0.5936,-0.2566,0.6189,244.9688
13:40:25:113,0.6106,-0.5213,6.972,53.6226,0.6269,-0.0963,0.6207,244.2188
13:40:25:133,0.5807,-0.6985,6.4285,54.6315,0.6786,0.0705,0.6617,243.4688
13:40:25:153,1.032,-0.4519,4.9453,54.1516,0.6717,0.1245,0.6727,242.7656
13:40:25:173,1.293,-0.3597,4.6604,55.2398,0.596,0.0399,0.6053,242.0625
13:40:25:194,1.4259,-0.3525,4.9046,53.666,0.4519,-0.1314,0.4769,241.2969
13:40:25:214,1.4007,-0.5465,5.7235,53.1466,0.2519,-0.3042,0.3166,240.5625
13:40:25:238,1.0787,-0.8182,6.9385,51.5363,0.0224,-0.3706,0.1584,239.9375
13:40:25:257,0.886,-1.1151,8.2577,53.2711,-0.1848,-0.3306,0.0623,239.5
13:40:25:272,0.7112,-1.1929,9.3615,51.9834,-0.3641,-0.1993,0.0117,239.2188
13:40:25:292,0.9255,-1.2264,10.2353,53.1435,-0.5292,-0.0789,-0.0217,239.0938
13:40:25:312,1.1984,-1.3246,11.1882,52.1476,-0.6597,-0.0981,-0.0909,239.0625
13:40:25:332,0.9099,-1.7029,12.4524,51.5992,-0.7657,-0.1967,-0.2089,239.0625
13:40:25:356,0.7627,-2.5301,13.1946,52.0312,-0.8253,-0.1197,-0.2475,239.125
13:40:25:373,1.3696,-3.2256,12.784,51.4803,-0.816,0.1277,-0.129,239.2969
13:40:25:393,1.9753,-2.87,11.8933,52.0866,-0.8352,0.2803,0.0244,239.5625
13:40:25:413,2.095,-2.1302,12.1172,49.9502,-0.9902,0.1735,0.0503,239.8125
13:40:25:433,1.4127,-2.0812,13.9128,49.1194,-1.2016,0.0236,-0.1202,239.875
13:40:25:458,0.6226,-2.6953,14.4755,50.3136,-1.1425,0.2124,-0.2549,239.8438
13:40:25:472,0.8165,-2.7994,12.4464,51.3457,-0.7784,0.6423,-0.1503,240
13:40:25:492,1.9334,-2.2224,9.8271,49.8539,-0.4312,0.8468,0.0908,240.3281
13:40:25:515,3.0408,-1.3593,8.5893,50.1084,-0.3041,0.5024,0.1965,240.5781
13:40:25:542,3.2419,-0.6051,8.9664,49.3433,-0.3324,-0.1447,0.0415,240.5781
13:40:25:558,2.5236,-0.5333,9.4788,49.6087,-0.3851,-0.4664,-0.284,240.4219
13:40:25:576,1.5935,-0.8841,8.7497,49.8776,-0.3609,-0.2664,-0.5585,240.3438
13:40:25:593,0.8656,-0.8098,7.069,49.1811,-0.3321,0.1933,-0.6398,240.4219
13:40:25:613,0.4466,-0.4734,5.6516,48.0962,-0.388,0.6004,-0.5742,240.875
13:40:25:632,0.5113,-0.0186,5.1955,48.8994,-0.4541,0.6399,-0.4515,241.5781
13:40:25:657,0.8237,0.3897,5.8432,49.6697,-0.4421,0.3272,-0.3394,242.3125
13:40:25:673,1.2547,0.7105,6.3891,48.4629,-0.3001,-0.015,-0.2994,243
13:40:25:693,1.7263,1.0852,6.395,47.4674,-0.1497,-0.1098,-0.3633,243.5312
13:40:25:712,1.9789,1.3007,6.9361,47.6593,-0.2333,0.0478,-0.5388,243.875
13:40:25:733,1.943,1.2779,8.6121,47.9694,-0.5561,0.3767,-0.7748,244.4375
13:40:25:755,1.7551,1.1355,10.7872,47.1076,-0.9036,0.8486,-0.9633,245.0625
13:40:25:774,1.0715,1.0876,12.5649,46.5418,-1.0304,1.3419,-1.1133,245.9531
13:40:25:793,-0.5589,0.5106,13.3681,46.3207,-0.8277,1.5704,-1.2872,247.2031
13:40:25:812,-2.1702,-0.8398,12.681,45.4932,-0.3169,1.4023,-1.3519,248.7344
13:40:25:832,-3.3446,-1.752,11.6707,46.9347,0.1609,0.9847,-1.1191,250.5156
13:40:25:857,-3.426,-2.2296,11.7988,45.9995,0.392,0.4396,-0.6483,252.2656
13:40:25:872,-2.3714,-2.6366,13.0018,44.6284,0.4871,-0.3333,0.1046,253.7812
13:40:25:898,-1.3873,-3.0269,13.7704,45.0713,0.4876,-0.218,0.1888,254.8281
13:40:25:912,-1.1635,-3.0556,13.4424,44.1544,0.4088,0.0042,0.1701,254.8281
13:40:25:935,-1.4747,-2.9491,12.5541,43.64,0.2221,0.0779,0.1216,254.6719
13:40:25:959,-2.1236,-3.076,12.4117,42.0013,0.0421,-0.0792,0.1469,254.4375
13:40:25:975,-3.0812,-3.532,13.3921,42.0013,0.1103,-0.2614,0.3616,254.2656
13:40:25:993,-3.6391,-4.0624,14.096,41.7267,0.4983,-0.268,0.777,253.7969
13:40:26:017,-2.7353,-4.4634,12.6702,41.7268,0.918,-0.2222,1.1837,253.5156
13:40:26:040,-1.5477,-3.9295,9.6751,43.2726,1.0045,-0.4393,1.4013,253.5156
13:40:26:059,-0.7229,-2.8461,7.8435,42.2877,0.7923,-0.8406,1.4119,252
13:40:26:076,-0.1411,-2.0991,7.9213,41.841,0.5121,-1.113,1.2764,251.2812
13:40:26:092,0.2036,-1.7711,8.545,40.5042,0.3073,-1.0462,1.1131,249.6562
13:40:26:112,0.2551,-1.6155,8.8898,40.5937,0.204,-0.717,0.9925,248.0312
13:40:26:133,0.1174,-1.4635,8.7449,41.4917,0.2133,-0.3072,0.9525,246.4375
13:40:26:158,-0.0729,-1.3677,8.2266,41.5102,0.3483,0.0023,0.9731,245.0156
13:40:26:177,-0.019,-1.2743,7.318,39.9348,0.5438,0.1181,1.0018,243.8438
13:40:26:198,0.1641,-1.1534,6.1891,39.9449,0.6756,0.0572,0.9968,242.7188
13:40:26:211,0.2623,-1.0588,5.3164,41.2606,0.7001,-0.0864,0.944,241.6094
13:40:26:233,0.2479,-1.1175,4.9633,40.5547,0.6392,-0.218,0.8705,240.5
13:40:26:256,0.3006,-1.2336,4.9848,40.8139,0.4991,-0.3263,0.7731,239.4375
13:40:26:273,0.2766,-1.2743,5.6049,41.4244,0.3294,-0.3841,0.6676,237.375
13:40:26:291,0.2946,-1.4096,6.5794,39.9314,0.1707,-0.3849,0.5645,236.5156
13:40:26:312,0.0492,-1.5484,7.8016,40.9166,0.0687,-0.308,0.5041,236.1094
13:40:26:332,-0.1256,-1.6682,8.9784,39.5811,0.0557,-0.1492,0.4804,235.0469
13:40:26:356,0.1091,-1.9064,9.3567,39.91,0.0626,-0.0318,0.4282,234.75
13:40:26:373,0.3688,-1.9818,9.0167,39.8836,-0.0591,-0.1192,0.344,234.1875
13:40:26:391,0.941,-2.0261,9.3662,40.5774,-0.2953,-0.3626,0.1805,233.6562
13:40:26:412,1.3887,-2.3625,11.0063,39.1514,-0.5137,-0.4941,-0.0134,233.2031
13:40:26:433,1.6018,-2.9706,12.9013,38.7487,-0.6077,-0.2749,-0.1098,232.875
13:40:26:457,2.2339,-3.726,13.4531,38.0861,-0.6099,0.2228,-0.1524,232.75
13:40:26:474,2.5918,-3.6577,12.2381,38.5705,-0.6975,0.5126,-0.2294,232.7812
13:40:26:492,2.4554,-3.1597,11.1176,37.9198,-0.8631,0.3879,-0.3679,232.9219
13:40:26:513,1.5899,-2.7384,11.545,37.8628,-0.9635,0.1192,-0.5548,233.0312
13:40:26:535,0.1497,-2.9155,12.7899,39.2085,-0.8261,0.189,-0.5404,233.3281
13:40:26:556,-0.8403,-3.5249,12.596,39.7933,-0.543,0.4031,-0.187,233.7969
13:40:26:573,1.1074,-3.07,9.0514,40.1632,-0.3113,0.3187,0.3011,234.7344
13:40:26:592,2.4242,-1.7352,8.3918,40.7003,-0.2471,-0.0829,0.6069,235.2188
13:40:26:611,2.9929,-0.477,9.1041,38.7073,-0.3531,-0.5165,0.5874,235.2031
13:40:26:631,2.7319,-0.1012,9.4069,37.9051,-0.4607,-0.4571,0.2417,234.6875
13:40:26:657,1.882,-0.1981,8.4756,39.3587,-0.5153,0.148,-0.2059,233.8906
13:40:26:674,1.2643,-0.234,6.9397,39.9673,-0.6109,0.9211,-0.4419,233.2812
13:40:26:691,1.2283,0.2173,5.8743,39.2906,-0.7225,1.4625,-0.4491,233.2188
13:40:26:714,1.3301,0.6638,5.4421,38.6542,-0.7739,1.5882,-0.4523,233.7031
13:40:26:732,0.9698,0.8757,5.6469,37.7417,-0.7281,1.4013,-0.611,234.4375
13:40:26:756,0.0612,0.3178,6.6093,40.8299,-0.5768,0.9341,-0.8376,235.2031
13:40:26:774,-0.9492,-0.5094,7.6783,40.282,-0.3454,0.4473,-0.9452,236
13:40:26:792,-1.5346,-0.981,8.6097,38.4287,-0.098,0.1355,-0.8214,237.0312
13:40:26:815,-1.6435,-1.0385,9.1711,39.3562,0.1057,0.006,-0.5519,238.1875
13:40:26:830,-1.2856,-0.8027,9.8463,39.293,0.2051,-0.0342,-0.2864,239.2656
13:40:26:852,-1.2317,-0.6566,10.7238,40.2729,0.2024,-0.071,-0.1756,240.3125
13:40:26:872,-1.3945,-0.8481,11.8263,38.0913,0.1286,-0.0928,-0.1931,240.6562
13:40:26:892,-1.8482,-1.2791,13.2053,39.7306,0.0325,-0.0776,-0.2238,240.8438
13:40:26:912,-2.1511,-1.8992,14.4599,37.8255,-0.0104,0.0329,-0.174,241.0469
13:40:26:932,-2.0038,-2.396,14.576,38.9449,0.0865,0.267,-0.0216,241.2969
13:40:26:957,-1.6184,-2.5025,13.5274,38.5874,0.2514,0.5136,0.135,241.5
13:40:26:974,-1.5849,-2.3314,12.2752,37.5002,0.3183,0.6468,0.1941,241.5781
13:40:26:996,-2.2038,-2.0225,11.4348,38.8975,0.2306,0.6263,0.1517,241.5625
13:40:27:012,-3.1878,-2.1458,11.9185,39.558,0.053,0.3781,0.0846,241.5
13:40:27:032,-4.167,-2.9203,13.2915,38.5106,-0.0506,-0.007,0.1041,241.4844
13:40:27:057,-4.6411,-3.8217,14.0744,39.1245,0.0948,-0.268,0.3235,241.4844
13:40:27:118,-3.7181,-4.1497,13.0018,37.5002,0.4546,-0.3,0.7605,241.4219
13:40:27:119,-2.1427,-3.5045,11.0482,39.3972,0.7382,-0.2587,1.1685,241.1875
13:40:27:119,-1.0533,-2.657,9.8199,38.5947,0.7566,-0.3548,1.2934,240.5781
13:40:27:133,-0.6834,-2.1602,9.5434,38.4916,0.6269,-0.5034,1.1664,239.4531
13:40:27:160,-0.7002,-2.1362,9.4189,39.599,0.5452,-0.5511,0.9624,237.2812
13:40:27:176,-0.9061,-2.1925,8.7138,39.9089,0.5795,-0.4491,0.8303,235.9844
13:40:27:191,-1.0067,-2.1614,7.5406,39.1311,0.6759,-0.2611,0.8207,234.8438
13:40:27:215,-0.9444,-2.0129,6.2981,38.935,0.7739,-0.1261,0.9065,233.875
13:40:27:231,-0.7265,-1.7627,5.3416,38.5462,0.8216,-0.1263,1.0133,233.0156
13:40:27:251,-0.4536,-1.5137,5.0483,39.161,0.8128,-0.271,1.0873,232.0156
13:40:27:274,-0.3051,-1.5185,5.4158,39.8772,0.7614,-0.6236,1.054,230.9219
13:40:27:294,-0.3387,-1.8597,5.7199,40.1697,0.7545,-0.5761,1.0676,229.7188
13:40:27:317,-0.2477,-1.8082,5.6169,40.3964,0.6701,-0.505,1.1051,228.5469
13:40:27:332,0.2755,-1.734,5.6516,40.5102,0.4951,-0.4941,1.0412,227.3594
13:40:27:351,0.4143,-1.7723,6.2322,39.4534,0.2703,-0.4813,0.932,226.1406
13:40:27:372,0.4012,-1.7915,7.2917,40.4467,0.0935,-0.4331,0.8207,224.9531
13:40:27:393,0.6717,-1.7615,8.3547,39.4186,0.0256,-0.3772,0.6298,223.75
13:40:27:413,0.7974,-1.9471,8.7653,41.1021,-0.0557,-0.398,0.3768,221.7188
13:40:27:433,0.6669,-2.3721,9.1388,40.3453,-0.2615,-0.377,0.1778,221.0156
13:40:27:457,0.4658,-2.9479,10.0294,40.0351,-0.5177,-0.2262,0.0668,220.75
13:40:27:474,0.6418,-3.805,11.023,40.4729,-0.7356,-0.0321,0.0346,220.4219
13:40:27:497,1.542,-5.0021,11.5809,39.7441,-0.9172,0.0907,0.0303,220.3281
13:40:27:511,2.1322,-5.4558,11.8299,40.1623,-1.0759,0.1866,0.0617,220.2188
13:40:27:531,2.2447,-4.971,11.7425,39.965,-1.1734,0.3168,0.1142,220.1406
13:40:27:556,1.7096,-3.7942,11.4875,40.304,-1.1832,0.4851,0.1315,220.0781
13:40:27:575,1.208,-2.9622,11.0314,39.7116,-1.0932,0.6122,0.1547,219.9688
13:40:27:591,1.6018,-2.815,10.1575,40.6229,-1.0011,0.6516,0.2085,219.8125
13:40:27:611,2.7319,-2.4606,9.2262,41.7141,-0.9976,0.5168,0.1773,219.6562
13:40:27:631,4.0798,-1.4623,9.1519,40.8015,-0.9707,0.1389,-0.1087,219.4844
13:40:27:652,4.5695,-0.252,9.7218,41.0319,-0.8591,-0.1588,-0.6909,219.2812
13:40:27:675,3.4526,0.3059,9.7301,42.1894,-0.7617,-0.1857,-1.2534,219.0781
13:40:27:691,1.9478,-0.0341,9.3339,39.9887,-0.6756,0.0004,-1.5394,219.1406
13:40:27:713,0.7579,-0.3801,8.7126,41.9928,-0.5257,0.0438,-1.5788,220.4062
13:40:27:731,-0.2238,-0.2819,8.1596,40.1018,-0.3422,-0.2688,-1.4976,221.9688
13:40:27:756,-0.9193,-0.2292,8.5666,40.0022,-0.1902,-0.6209,-1.3926,223.7656
13:40:27:773,-1.4663,-0.6063,9.8487,41.0087,-0.0551,-0.5319,-1.2584,225.3906
13:40:27:791,-1.8781,-0.7955,10.8578,40.1865,0.1081,0.0899,-1.0531,226.9375
13:40:27:811,-1.8721,-0.6434,10.209,39.6127,0.2448,0.7525,-0.8728,228.3281
13:40:27:832,-1.3406,-0.2376,8.5594,41.046,0.2304,1.0297,-0.8502,229.5312
13:40:27:857,-1.2916,0.0904,7.6221,40.5934,0.0756,0.8819,-0.9471,230.7188
13:40:27:875,-2.0924,-0.0772,8.4397,41.3292,0.009,0.4526,-0.9772,231.8906
13:40:27:891,-3.4727,-0.823,10.4556,41.396,0.2109,0.0502,-0.7793,233.1406
13:40:27:911,-4.7787,-1.6322,11.9711,42.7623,0.6064,-0.1743,-0.3077,234.3438
13:40:27:934,-4.8529,-2.2092,12.0561,42.1871,0.9308,-0.1967,0.2513,235.4375
13:40:27:958,-4.1083,-2.05,11.1379,39.7468,0.9665,-0.1346,0.6575,236.0938
13:40:27:974,-2.8753,-1.7029,11.5318,40.2213,0.7957,-0.0763,0.9065,236.1094
13:40:27:993,-2.4456,-2.1566,12.3111,42.5589,0.6357,-0.0228,1.0708,235.5625
13:40:28:015,-2.0781,-2.5444,12.6008,44.5357,0.5369,0.083,1.229,234.6719
13:40:28:031,-1.8231,-2.3816,12.4715,41.3207,0.4213,0.2308,1.3749,233.6094
13:40:28:051,-1.5202,-2.2212,12.7229,41.3207,0.2216,0.3027,1.4503,232.3125
13:40:28:074,-1.7117,-2.408,14.0864,43.5703,0.0096,0.1871,1.4367,230.875
13:40:28:093,-2.4264,-3.0412,15.4116,43.4139,0.0136,-0.0222,1.458,229.2969
13:40:28:110,-2.4516,-3.9079,14.5389,43.2889,0.3681,-0.0179,1.662,227.7656
13:40:28:130,-1.5525,-3.957,11.4444,42.202,0.8461,0.1714,2.0149,226.125
13:40:28:151,-0.3554,-3.0305,8.9496,43.8694,1.0565,0.1536,2.3076,224.375
13:40:28:173,0.5604,-1.9219,8.4253,44.3755,0.9792,-0.203,2.3542,222.4531
13:40:28:192,0.9722,-1.1414,9.4237,46.0865,0.8032,-0.6502,2.1616,220.0469
13:40:28:217,1.0081,-0.8446,10.3754,46.2032,0.7396,-0.8734,1.9097,217.4219
13:40:28:230,0.8632,-0.8493,10.2198,44.953,0.8533,-0.7802,1.7368,214.8594
13:40:28:251,0.9207,-0.7859,8.6803,45.7381,1.0746,-0.4819,1.6902,212.6562
13:40:28:276,1.2666,-0.5381,6.668,46.7647,1.2527,-0.15,1.7012,210.5938
13:40:28:291,1.712,-0.1203,4.9657,45.3047,1.2858,0.0723,1.6596,208.6719
13:40:28:311,2.0519,0.1538,3.7494,46.7878,1.1998,0.1552,1.5134,205.9688
13:40:28:331,2.1417,0.2221,2.9797,46.8256,1.0314,0.0676,1.2641,204.1562
13:40:28:357,1.8724,0.2209,3.2143,47.0301,0.7462,-0.1522,0.9544,202.5
13:40:28:374,1.4857,-0.2915,4.5204,48.1783,0.3657,-0.3831,0.6327,201.2031
13:40:28:394,1.0105,-0.8661,6.2418,47.0991,-0.0056,-0.4936,0.3653,200.1719
13:40:28:411,0.5723,-1.406,8.5283,46.9925,-0.3145,-0.4995,0.193,199.7812
13:40:28:432,0.2168,-1.9327,10.6759,47.5475,-0.4447,-0.382,0.1118,199.25
13:40:28:456,0.0564,-2.4295,11.5821,49.075,-0.3225,-0.1743,0.1019,198.9688
13:40:28:473,0.127,-2.6881,10.8279,49.096,-0.0863,0.0417,0.1334,198.7969
13:40:28:491,0.4227,-2.8042,10.0677,47.203,-0.0165,0.1245,0.1773,198.6875
13:40:28:514,0.6693,-2.8114,10.2748,50.3112,-0.184,0.0723,0.1848,198.5469
13:40:28:530,1.1015,-2.9945,11.1475,50.2391,-0.4456,0.0646,0.1696,198.375
13:40:28:552,2.0304,-3.137,10.8746,50.2813,-0.6232,0.3187,0.1568,198.0312
13:40:28:570,2.447,-2.5205,9.705,50.0407,-0.7787,0.5999,0.0447,197.8281
13:40:28:591,1.9825,-1.6394,9.8463,50.481,-1.1105,0.6247,-0.2187,197.6094
13:40:28:611,0.9051,-1.8633,11.8347,51.0593,-1.5281,0.5051,-0.586,197.5156
13:40:28:631,-0.6344,-2.8856,13.519,49.2071,-1.7263,0.6303,-0.8709,197.6719
13:40:28:658,-1.3251,-3.4937,13.3873,49.6,-1.6011,0.9749,-0.7908,198.25
13:40:28:675,-0.535,-3.1454,11.7676,49.6855,-0.9553,0.8428,0.0319,199.1406
13:40:28:699,0.8273,-2.0596,10.5813,49.391,-0.7417,0.2577,0.1438,199.1406
13:40:28:710,1.6437,-0.9822,10.288,51.1626,-0.5942,-0.2044,-0.0392,199.9688
13:40:28:734,1.457,-0.4447,10.3359,48.8404,-0.4879,-0.1932,-0.2906,200.3438
13:40:28:757,0.9362,-0.4016,9.6835,50.4262,-0.4123,0.1493,-0.4398,200.0469
13:40:28:775,0.2802,-0.4531,8.6085,49.1628,-0.3233,0.4665,-0.4126,200.2812
13:40:28:791,-0.1483,-0.0173,7.2941,49.8675,-0.1992,0.5397,-0.2688,200.2812
13:40:28:811,0.2623,0.5321,6.2406,48.1615,-0.0652,0.2995,-0.2046,201.2188
13:40:28:831,0.8285,1.0337,5.739,48.8806,0.0184,0.0036,-0.2994,201.5625
13:40:28:851,1.1805,1.3402,5.6995,49.7003,0.012,-0.1753,-0.5234,201.7031
13:40:28:875,1.0308,1.2923,6.1664,50.26,-0.0578,-0.1506,-0.7889,201.9844
13:40:28:890,0.4323,1.0888,6.5973,47.9002,-0.1656,-0.0081,-1.0054,202.1875
13:40:28:911,-0.2704,0.9008,6.917,49.1355,-0.3627,0.0766,-1.1561,202.7344
13:40:28:930,-0.8211,0.8362,8.1739,49.5374,-0.5595,0.1413,-1.2581,203.6094
13:40:28:953,-1.2317,0.6566,10.0989,50.2626,-0.6259,0.1842,-1.345,204.7344
13:40:28:973,-1.9871,0.3178,12.286,48.9388,-0.4349,0.2321,-1.3215,205.9688
13:40:28:991,-3.2428,-0.2412,13.1886,51.2841,-0.1167,0.1272,-1.1024,207.375
13:40:29:009,-4.9726,-0.5381,13.7512,48.8368,0.1689,-0.0443,-0.6281,208.875
13:40:29:031,-5.4958,-0.7691,14.1858,48.7888,0.3454,-0.1149,-0.0403,210.375
13:40:29:051,-4.5489,-0.9834,14.6371,51.0996,0.3603,0.0753,0.4916,211.5781
13:40:29:074,-2.3474,-0.7871,14.7316,50.6767,0.2775,0.3506,0.7171,212.3125
13:40:29:092,-0.6667,-0.3717,14.5269,49.7733,0.1798,0.4162,0.58,212.375
13:40:29:110,0.0624,-0.4567,15.1746,48.346,0.2426,0.259,0.2636,211.5156
13:40:29:185,-0.9169,-1.5652,15.645,49.5824,0.5199,0.0963,0.0481,210.8125
13:40:29:185,-3.2381,-2.7647,15.086,49.7911,0.7984,0.1288,0.3041,210.3906
13:40:29:185,-3.7181,-3.4901,13.8302,46.954,1.0448,0.3126,0.8024,210.3438
13:40:29:189,-2.6048,-3.4303,11.4636,47.3938,1.1699,0.2436,1.1219,210.2969
13:40:29:213,-1.4101,-2.7204,9.3327,46.6057,1.0836,-0.0901,1.1669,209.8125
13:40:29:233,-0.8522,-2.08,8.6073,46.0901,0.8242,-0.402,1.0396,208.9062
13:40:29:258,-1.1335,-1.9196,9.6045,46.3942,0.6975,-0.4659,0.9672,207.7188
13:40:29:271,-1.4843,-2.159,10.3383,46.1478,0.8338,-0.3434,1.0324,206.5469
13:40:29:290,-1.5944,-2.3745,9.6835,45.3283,1.0544,-0.1575,1.2239,205.5312
13:40:29:310,-1.5226,-2.2811,8.1512,44.6175,1.2253,-0.0566,1.4703,204.4688
13:40:29:331,-1.0366,-2.0093,6.474,46.0386,1.3321,-0.108,1.6503,203.2812
13:40:29:351,-0.4584,-1.6837,5.0112,44.3854,1.3396,-0.2837,1.7206,201.875
13:40:29:373,0.4347,-1.0983,3.455,45.1518,1.2416,-0.4803,1.7049,200.3125
13:40:29:391,0.8141,-0.9056,3.2754,44.7469,1.057,-0.6638,1.6013,198.5312
13:40:29:410,1.0296,-0.9164,3.5148,44.7401,0.7928,-0.8134,1.4253,197.625
13:40:29:431,1.0284,-1.0349,4.2259,42.0496,0.4511,-0.9013,1.2215,195.0312
13:40:29:451,0.9518,-1.0828,5.4266,43.2858,0.0527,-0.916,1.0165,193.4219
13:40:29:473,0.6561,-1.1307,7.2845,45.6755,-0.3758,-0.8305,0.7968,192.0156
13:40:29:490,0.546,-1.1534,9.3507,43.248,-0.7236,-0.5303,0.5792,190.8594
13:40:29:510,0.7495,-1.2588,10.7465,43.5165,-0.8605,-0.0787,0.3459,189.875
13:40:29:529,0.6549,-1.2623,11.3367,43.8567,-0.8378,0.3568,0.0324,189.0938
13:40:29:550,0.1857,-1.4563,11.3786,43.228,-0.7667,0.6124,-0.3021,188.5312
13:40:29:574,-0.7217,-1.8609,11.4264,43.8323,-0.7249,0.6124,-0.5553,188.2656
13:40:29:591,-1.3826,-2.2332,12.0453,43.6647,-0.7486,0.4947,-0.615,188.375
13:40:29:610,-0.7684,-2.2332,12.1148,42.4215,-0.7625,0.4819,-0.4331,188.8125
13:40:29:630,0.4861,-1.5616,11.7952,42.0374,-0.7992,0.4574,-0.2057,189.4219
13:40:29:651,1.032,-0.6327,12.7624,42.9867,-0.9689,0.2659,-0.187,190
13:40:29:674,-0.0262,-0.5201,15.0465,41.2548,-1.203,0.1288,-0.4336,190.2812
13:40:29:691,-1.9308,-1.5113,15.997,41.1171,-1.207,0.4854,-0.6501,190.3906
13:40:29:710,-2.9412,-2.3302,14.0146,40.3552,-0.8786,1.1565,-0.4382,190.8594
13:40:29:731,-2.1212,-2.1698,11.0278,40.9935,-0.4163,1.4436,0.2157,191.5156
13:40:29:750,-0.1675,-1.3018,8.8802,41.0843,-0.0091,0.973,0.9217,192
13:40:29:775,1.5719,-0.3573,8.0698,40.1893,0.2732,0.0191,1.2969,191.7969
13:40:29:794,2.3823,0.3047,8.2577,41.1137,0.3675,-0.8233,1.2663,190.8125
13:40:29:811,2.4626,0.4064,8.7868,41.7331,0.3385,-1.1706,1.0242,189.3594
13:40:29:830,2.1178,0.3478,8.3008,42.2041,0.3534,-0.9983,0.7507,187.9844
13:40:29:850,1.7934,0.3657,6.6512,42.1143,0.3915,-0.4821,0.5294,186.7969
13:40:29:876,1.6569,0.5273,4.8292,42.1143,0.2882,0.1277,0.3683,185.9375
13:40:29:891,1.6569,0.75,3.5388,39.4946,0.0368,0.5672,0.233,185.3906
13:40:29:910,1.6461,1.0086,2.9905,42.5313,-0.2677,0.6891,0.0849,184.9844
13:40:29:931,1.5767,1.2384,3.4693,39.7142,-0.5382,0.512,-0.1005,184.8594
13:40:29:952,1.6653,1.1498,4.4533,39.6885,-0.6911,0.1727,-0.3274,184.6719
13:40:29:976,1.3301,0.7955,5.5295,40.6918,-0.7489,-0.2124,-0.6198,184.6562
13:40:29:992,0.4754,0.2185,7.1324,41.8013,-0.8442,-0.5005,-0.9162,184.8125
13:40:30:010,-0.2884,-0.3525,9.1759,42.2556,-0.9984,-0.5285,-1.0984,185.6094
13:40:30:030,-1.1252,-0.7428,11.4923,40.6133,-1.1345,-0.3295,-1.1777,186.4688
13:40:30:051,-2.0218,-1.0588,13.2341,41.3138,-1.1457,0.0106,-1.1966,187.5781
13:40:30:076,-2.594,-1.4024,13.5298,41.3215,-0.8911,0.5421,-0.9657,188.7812
13:40:30:092,-2.9891,-1.5449,13.8063,40.7423,-0.7859,0.3067,-0.7617,188.7812
13:40:30:113,-2.8442,-2.0201,14.8226,41.0918,-0.6567,-0.0238,-0.5857,191.2031
13:40:30:135,-2.7975,-2.5361,16.0173,41.0918,-0.5846,-0.0515,-0.3772,192.2812
13:40:30:157,-2.7879,-2.5133,16.9271,40.283,-0.5888,0.1908,-0.0683,193.1094
13:40:30:174,-2.2648,-1.9267,17.9782,42.1119,-0.4812,0.5352,0.1704,193.6719
13:40:30:193,-1.4209,-1.661,18.4726,39.042,-0.0839,0.8513,0.1866,194.0312
13:40:30:209,-1.6914,-2.3385,16.5931,41.7248,0.4898,0.9368,0.2375,194.0938
13:40:30:229,-2.5916,-3.1226,13.5621,42.2279,1.0123,0.7578,0.5797,193.9375
13:40:30:251,-2.3199,-3.7511,10.2988,41.12,1.3145,0.2881,0.992,193.875
13:40:30:275,-1.355,-3.6685,7.8699,41.9081,1.2653,-0.3298,1.237,193.8281
13:40:30:293,-0.608,-2.8784,6.9277,42.2204,0.9212,-0.8582,1.2545,193.0781
13:40:30:311,-0.4919,-1.8705,7.7442,41.9134,0.4991,-1.0853,1.1494,191.9688
13:40:30:330,-0.3626,-1.6777,9.8427,41.3784,0.3127,-0.9,1.0314,190.6094
13:40:30:351,-0.4177,-2.1171,11.2241,41.0085,0.542,-0.5037,1.0514,189.2812
13:40:30:374,-0.881,-2.2248,10.1755,41.9305,0.9539,-0.1745,1.2796,187.9844
13:40:30:391,-1.0043,-2.0165,7.7118,42.1087,1.2642,-0.0784,1.5835,187.375
13:40:30:409,-0.5661,-1.5664,5.3607,42.1876,1.3742,-0.1684,1.7917,186.2031
13:40:30:433,0.1438,-1.054,3.534,42.9702,1.2908,-0.3543,1.8458,184.9062
13:40:30:449,0.886,-0.726,2.5033,43.2993,1.0615,-0.5711,1.7667,183.2344
13:40:30:471,1.3588,-0.3741,2.2279,44.8403,0.7617,-0.7413,1.5901,181.3438
13:40:30:491,1.5935,-0.0329,2.5787,44.588,0.4653,-0.8832,1.3582,179.375
13:40:30:509,2.0567,0.2783,3.4502,44.2197,0.22,-1.0936,1.0394,177.5781
13:40:30:533,2.6816,0.7225,5.0902,43.7476,0.0514,-1.3834,0.5874,175.8438
13:40:30:549,2.9258,0.9296,7.1516,47.3496,-0.0618,-1.5229,0.0026,174.3438
13:40:30:569,2.198,0.5118,8.7797,45.3643,-0.2581,-1.2691,-0.5471,172.8594
13:40:30:592,0.9123,-0.5537,9.9205,46.9671,-0.625,-0.7423,-0.8539,172.5469
13:40:30:610,-0.4332,-1.6263,11.2517,46.6515,-1.0242,-0.2012,-0.8613,172.9062
13:40:30:630,-1.458,-2.4295,13.1562,49.3552,-1.2038,0.2343,-0.6523,173.7188
13:40:30:650,-1.4017,-2.8856,14.6718,49.1248,-1.0879,0.5837,-0.3809,174.7188
13:40:30:674,-0.3902,-3.1167,14.8202,48.6453,-0.8221,0.8345,-0.1721,175.5938
13:40:30:691,1.2666,-3.1597,13.501,49.1451,-0.6458,0.883,-0.1769,176.125
13:40:30:709,2.368,-3.0017,11.8167,48.8429,-0.7297,0.7333,-0.4552,176.4219
13:40:30:730,1.7335,-3.0424,11.4504,48.7567,-1.0107,0.6572,-0.7993,176.5781
13:40:30:750,-0.4213,-3.8852,12.7444,49.7163,-1.0948,1.0412,-0.7793,176.9062
13:40:30:773,-0.9049,-5.5599,10.8889,50.0242,-0.8304,1.531,-0.2994,177.5938
13:40:30:791,1.1433,-4.9937,8.4505,49.7958,-0.474,1.4995,0.3613,178.5469
13:40:30:810,3.0132,-3.6482,7.3276,50.891,-0.3015,0.7432,0.7728,179.2344
13:40:30:831,3.7458,-2.1302,8.5043,51.4743,-0.4059,-0.3903,0.7467,179.2656
13:40:30:851,3.6201,-1.2947,10.7824,49.4713,-0.6056,-1.1527,0.4154,178.625
13:40:30:876,2.8863,-1.1953,11.5581,51.3516,-0.6349,-1.0395,-0.0179,177.6719
13:40:30:895,2.0208,-0.987,10.0893,51.7707,-0.473,-0.3847,-0.3511,176.8906
13:40:30:914,1.3708,-0.5752,7.7334,52.4165,-0.3473,0.356,-0.5077,176.4688
13:40:30:934,0.8991,-0.1526,5.8851,50.5116,-0.3585,0.8026,-0.5657,176.5781
13:40:30:948,0.7088,0.2137,4.8807,53.7065,-0.416,0.8324,-0.586,177.0469
13:40:30:969,0.6142,0.4711,4.7849,52.1615,-0.4669,0.5714,-0.6051,177.6875
13:40:30:991,0.5197,0.586,5.3931,54.3242,-0.4927,0.2177,-0.643,178.4219
13:40:31:011,0.1917,0.6219,6.4261,53.9872,-0.4759,-0.0715,-0.688,179.1406
13:40:31:029,-0.0154,0.6423,7.4209,54.0835,-0.4293,-0.1921,-0.7383,179.8281
13:40:31:049,-0.0562,0.5058,8.5737,53.2734,-0.4141,-0.1615,-0.8153,180.5312
13:40:31:076,-0.4632,0.592,10.1443,54.0848,-0.5081,-0.0017,-0.9527,181.2812
13:40:31:092,-1.021,-0.2089,12.1986,52.9916,-0.6293,0.2074,-1.0962,182.0781
13:40:31:111,-1.9655,-1.084,14.3474,53.74,-0.5856,0.1725,-1.1785,182.9844
13:40:31:130,-3.5577,-1.6011,15.736,54.8434,-0.3209,-0.0542,-1.1977,184.125
13:40:31:150,-3.2991,-2.4008,16.1418,54.4442,-0.0732,0.1309,-0.9117,186.0156
13:40:31:174,-2.2373,-2.4762,15.4786,55.2335,0.1641,0.4902,-0.4917,187.3438
13:40:31:190,-1.3107,-2.3517,14.7939,56.0323,0.3491,0.6886,-0.2083,188.4062
13:40:31:249,-0.7636,-2.414,14.2528,54.6332,0.4645,0.7064,-0.0917,189.0938
13:40:31:250,-0.9648,-2.2535,13.987,57.5706,0.5353,0.6684,-0.0448,189.4688
13:40:31:261,-1.4113,-2.5935,14.0696,57.8227,0.5968,0.6276,-0.0051,189.75
13:40:31:276,-2.2229,-3.1358,13.6997,57.9413,0.7665,0.6428,0.0455,189.9844
13:40:31:290,-2.5844,-3.6936,12.5314,57.149,1.069,0.6345,0.2532,190.1719
13:40:31:312,-2.0362,-4.0121,10.804,56.7453,1.3902,0.5437,0.6061,190.3281
13:40:31:329,-1.0354,-3.7391,8.8527,55.4705,1.5843,0.3687,0.9395,190.3281
13:40:31:350,-0.693,-2.894,7.877,55.9238,1.4187,0.0998,1.045,190.1094
13:40:31:374,-1.1527,-2.2368,8.9832,56.4319,0.8802,-0.2046,0.919,189.5156
13:40:31:392,-1.6591,-2.5169,11.7066,57.3233,0.3089,-0.4254,0.7523,188.5938
13:40:31:410,-2.2995,-2.9251,13.4747,56.1815,0.151,-0.3953,0.6881,187.625
13:40:31:430,-2.5593,-3.1442,12.7648,56.1681,0.5673,-0.2126,0.8617,186.3438
13:40:31:450,-2.1846,-3.0161,10.1731,56.0395,1.2639,-0.0749,1.2258,185.5469
13:40:31:474,-1.2592,-2.542,7.227,53.9906,2.024,0.0052,1.8599,184.6406
13:40:31:492,-0.3363,-1.8705,5.1465,53.7963,1.9912,-0.0379,1.9467,183.4688
13:40:31:510,0.473,-1.23,4.0356,53.2138,1.8863,-0.1293,1.8916,181.8906
13:40:31:534,1.2595,-0.8817,3.3987,55.3351,1.7713,-0.2936,1.7089,178.1094
13:40:31:548,1.6545,-0.5788,2.9402,54.4906,1.6336,-0.4819,1.4631,178.1094
13:40:31:570,1.8149,-0.3633,2.5176,53.8009,1.4349,-0.6805,1.192,174.6094
13:40:31:591,1.8018,-0.1335,2.4123,55.6664,1.1587,-0.8153,0.9052,174.6094
13:40:31:609,1.6366,0.0868,2.526,54.3119,0.8203,-0.9056,0.5959,173.1875
13:40:31:628,1.6198,0.1634,2.8768,52.435,0.4336,-0.9024,0.2436,172.125
13:40:31:649,1.4378,-0.2843,3.4142,51.4565,-0.0645,-0.701,-0.076,171.3281
13:40:31:674,0.9111,-0.7679,4.0367,51.7128,-0.698,-0.4456,-0.2635,170.8438
13:40:31:692,0.7854,-0.7655,5.089,50.8417,-1.3979,-0.3737,-0.4637,170.75
13:40:31:709,0.8812,-0.7392,7.6185,53.4762,-1.9928,-0.451,-0.7785,171.0781
13:40:31:728,0.6513,-1.3569,12.0573,52.5428,-2.1803,-0.2901,-1.0549,171.4531
13:40:31:749,1.1074,-2.9957,15.5888,51.0577,-2.0237,0.2215,-1.1849,172.0625
13:40:31:776,1.6988,-3.9438,16.1885,50.8495,-2.0179,0.8156,-1.1966,173.0312
13:40:31:794,2.1525,-3.5859,16.0748,52.6643,-2.3098,1.2146,-1.2779,174.2188
13:40:31:809,1.3241,-2.9431,17.291,49.6881,-2.3617,1.7594,-1.5159,175.4219
13:40:31:829,-0.9875,-2.8461,17.728,49.3152,-1.7944,2.4433,-1.5319,175.9688
13:40:31:850,-2.764,-2.9862,14.6012,50.5674,-1.057,2.7342,-1.0699,177.2188
13:40:31:874,-2.5653,-2.5851,9.9516,50.4767,-0.6685,2.2809,-0.4717,178.75
13:40:31:893,-1.2616,-1.6897,6.6261,51.2037,-0.7116,1.0297,-0.224,180.3125
13:40:31:909,-0.5362,-0.6327,6.2837,49.3759,-0.9734,-0.4776,-0.2975,181.5469
13:40:31:929,-0.0298,-0.2077,9.1543,49.858,-1.0791,-1.2933,-0.4339,182.1406
13:40:31:949,0.4311,-0.3813,12.1363,49.8901,-0.8298,-1.0949,-0.5857,182.3438
13:40:31:974,0.1186,-0.7967,12.7301,49.1827,-0.3521,-0.3128,-0.6043,182.5938
13:40:31:991,-0.7804,-0.8889,10.6747,49.6927,0.0714,0.5208,-0.3921,182.9844
13:40:32:008,-1.2042,-0.4375,7.5658,48.407,0.2549,0.9789,-0.08,183.2656
13:40:32:029,-0.7349,0.173,5.0267,48.8548,0.2298,0.9895,0.1102,183.8438
13:40:32:049,0.0384,0.7979,3.6225,49.203,0.0948,0.6801,0.1062,184.2344
13:40:32:073,0.7794,1.4048,3.2311,47.202,-0.0748,0.2191,-0.0832,184.375
13:40:32:095,1.3337,1.643,3.7267,48.7827,-0.2762,-0.1732,-0.448,184.375
13:40:32:109,1.2643,1.4,4.9358,47.8266,-0.5308,-0.3455,-0.881,184.3906
13:40:32:129,0.2683,0.3992,7.1564,47.0684,-0.8362,-0.1897,-1.2046,184.6406
13:40:32:149,-1.5262,-0.6051,10.1563,47.3233,-1.0048,0.1837,-1.2896,185.25
13:40:32:175,-3.4954,-1.3282,13.3538,47.3232,-0.8466,0.5957,-1.1316,186.2969
13:40:32:192,-5.6694,-1.8501,15.0836,45.7706,-0.4775,0.9858,-0.6973,187.5781
13:40:32:208,-4.8793,-1.339,13.8171,45.5544,-0.1161,1.131,-0.1726,188.8906
13:40:32:228,-3.9731,-0.841,12.8737,45.5543,0.1052,0.8689,0.1802,189.9375
13:40:32:248,-3.2117,-0.6674,12.8893,45.6085,0.1968,0.3954,0.3214,190.5781
13:40:32:270,-2.8227,-0.8493,12.9671,46.1397,0.2591,0.0084,0.2849,190.75
13:40:32:289,-2.934,-1.1067,13.2365,44.9903,0.2669,-0.2369,0.1464,190.6094
13:40:32:308,-3.1531,-1.7591,14.3246,43.7833,0.2141,-0.4584,-0.003,190.1875
13:40:32:328,-4.0928,-2.7575,15.8102,43.276,0.2586,-0.647,-0.1415,190.1094
13:40:32:348,-5.5042,-3.8158,16.4136,42.2463,0.5537,-0.7256,-0.0936,190.0156
13:40:32:370,-5.1833,-4.3305,15.2368,42.7409,1.097,-0.6702,0.3387,190.0469
13:40:32:392,-2.7041,-4.1497,12.1854,43.2893,1.6466,-0.3897,0.9518,190.1875
13:40:32:409,-0.7816,-2.7803,9.7577,40.7071,1.8685,-0.2409,1.2628,190.1406
13:40:32:428,-0.0059,-1.9112,9.1915,40.2569,1.6895,-0.3458,1.1241,189.5938
13:40:32:449,-0.3506,-1.9555,9.6499,39.5667,1.3678,-0.464,0.7392,188.5781
13:40:32:470,-1.0928,-2.4211,9.6416,40.2009,1.1574,-0.3122,0.4537,187.4688
13:40:32:491,-1.7165,-2.5301,8.7593,40.0606,1.057,0.1458,0.417,186.6875
13:40:32:511,-1.5849,-2.2428,7.3515,40.0437,0.9678,0.6723,0.5624,186.2344
13:40:32:529,-1.1036,-1.8429,5.9473,39.4298,0.8762,1.0431,0.7036,185.9531
13:40:32:550,-0.7217,-1.4838,4.7837,38.0721,0.8091,1.165,0.7515,185.625
13:40:32:570,-0.5374,-1.2587,3.9434,39.8974,0.7694,1.0511,0.7246,184.7969
13:40:32:592,-0.383,-1.2073,3.3328,39.3327,0.75,0.798,0.6503,184.1094
13:40:32:609,-0.2537,-1.2193,2.9558,38.6754,0.7257,0.4681,0.5496,183.4531
13:40:32:628,-0.2716,-1.3641,2.945,40.2917,0.6453,0.1424,0.4271,182.9062
13:40:32:649,-0.5529,-1.667,3.2155,37.7079,0.4975,-0.105,0.3102,182.4375
13:40:32:668,-1.1695,-2.0177,4.342,38.1211,0.2719,-0.2124,0.2282,182.1094
13:40:32:691,-1.9093,-1.6275,5.7175,38.4933,0.0405,-0.0994,0.237,181.8906
13:40:32:710,-1.3837,-1.1307,6.2885,36.4793,-0.1063,0.2015,0.3238,181.7031
13:40:32:728,-0.632,-0.7392,6.2191,38.1362,-0.1734,0.2305,0.2234,181.4531
13:40:32:750,-1.1455,-0.9008,6.3735,37.2962,-0.2986,-0.1727,-0.1985,181.0781
13:40:32:775,-2.3761,-2.2966,8.0662,35.9982,-0.6336,-0.745,-0.6683,180.75
13:40:32:792,-3.8641,-3.9271,11.1415,36.1359,-1.1244,-1.0505,-0.8611,180.9219
13:40:32:809,-4.3262,-4.4382,13.5717,36.0486,-1.5052,-0.7831,-0.6153,181.2031
13:40:32:828,-2.3618,-3.799,14.1463,35.1178,-1.5785,-0.1751,-0.0288,181.9219
13:40:32:850,0.1258,-2.1386,13.434,35.5512,-1.4293,0.2329,0.377,182.5469
13:40:32:875,0.7639,-1.1534,12.7014,35.1522,-1.2469,0.1525,0.1752,182.3594
13:40:32:898,-1.0892,-1.6861,12.9827,34.8968,-1.1417,-0.3066,-0.8222,181.6719
13:40:32:911,-2.782,-3.1262,13.6938,35.9574,-1.0831,0.091,-0.623,181.4531
13:40:32:928,-2.8813,-3.4399,13.3586,34.8849,-0.9406,0.4492,-0.1162,181.4531
13:40:32:947,-0.8606,-2.4594,12.2177,34.8367,-0.742,0.3032,0.1208,182.1094
13:40:32:968,1.1026,-1.0529,11.3067,34.0849,-0.5508,-0.1343,-0.1479,182.5938
13:40:32:992,1.5887,-0.416,10.9356,34.4097,-0.4144,-0.3956,-0.6342,182.5781
13:40:33:009,0.5699,-0.7117,10.4364,34.5008,-0.3081,-0.3647,-0.9617,182.2969
13:40:33:027,-0.8786,-1.151,9.3255,34.2684,-0.1894,-0.2606,-0.9471,182.3438
13:40:33:047,-1.6004,-1.2097,7.9752,33.9402,-0.078,-0.1956,-0.7279,182.9375
13:40:33:068,-1.5202,-0.7787,6.7159,34.9816,-0.0402,-0.1775,-0.53,183.9219
13:40:33:091,-1.0821,-0.2795,5.7426,33.4854,-0.1044,-0.182,-0.4709,184.8906
13:40:33:110,-0.8319,0.1945,5.496,34.8618,-0.2216,-0.1016,-0.501,186.25
13:40:33:128,-0.6224,0.3238,5.7199,34.3083,-0.3281,0.0494,-0.5844,186.5
13:40:33:147,-0.8558,0.2233,6.3005,34.9729,-0.3822,0.1972,-0.6408,186.9688
13:40:33:168,-1.4232,0.2209,6.9888,33.9465,-0.3699,0.1975,-0.6344,187.5312
13:40:33:192,-1.9033,0.1814,8.2146,32.817,-0.2826,0.0729,-0.5998,188.1875
13:40:33:211,-2.582,0.1071,9.6511,32.4634,-0.1332,-0.0009,-0.5346,188.8594
13:40:33:229,-3.3542,-0.1826,10.9045,33.8114,0.0554,0.1189,-0.3961,189.5312
13:40:33:309,-3.681,-0.6243,11.0649,32.3674,0.1973,0.3293,-0.1908,189.8438
13:40:33:310,-3.681,-0.6877,10.0665,32.093,0.1451,0.3123,-0.0086,190.4375
13:40:33:310,-3.4846,-0.5525,9.7194,33.6782,-0.0746,-0.0369,0.0724,190.8906
13:40:33:312,-3.0118,-0.6458,11.2313,32.1777,-0.2724,-0.4158,0.0298,191.2031
13:40:33:336,-2.7879,-1.1115,13.5465,32.1692,-0.3087,-0.5136,-0.0744,191.2969
13:40:33:347,-2.9831,-1.9794,15.6797,31.3865,-0.1007,-0.288,-0.0605,191.1875
13:40:33:368,-3.3985,-2.5408,15.918,33.0535,0.1651,0.0428,0.0969,191.0469
13:40:33:390,-3.4823,-2.4487,14.5581,30.8812,0.1867,0.1754,0.2215,190.9844
13:40:33:408,-3.5134,-2.5971,14.3569,31.2958,0.1886,0.018,0.282,190.9688
13:40:33:428,-4.3801,-3.2795,15.3027,32.3784,0.4866,-0.1319,0.5491,190.8281
13:40:33:448,-4.5166,-3.9929,15.2727,32.6095,0.9931,-0.0542,1.0295,190.5938
13:40:33:469,-2.9879,-4.2742,13.0425,32.6244,1.339,0.0505,1.4309,190.2031
13:40:33:493,-1.0486,-3.6123,10.0462,32.674,1.2916,-0.1492,1.503,189.4531
13:40:33:509,-0.1819,-2.4511,8.6073,33.3011,0.9992,-0.6094,1.2878,188.2344
13:40:33:529,-0.1878,-1.9579,9.5183,33.7867,0.7997,-0.8845,1.0117,186.7656
13:40:33:548,-0.5338,-2.1865,10.6759,32.9233,0.8621,-0.8188,0.8705,185.3906
13:40:33:569,-0.8546,-2.2595,10.3072,33.2927,1.0586,-0.5959,0.8793,184.1562
13:40:33:590,-0.7996,-1.8597,6.7566,34.8582,1.1926,-0.3658,0.9408,183.1875
13:40:33:611,-0.6356,-1.6275,5.2446,34.9419,1.2094,-0.2073,1.0189,182.2969
13:40:33:628,-0.3255,-1.4646,4.1481,33.3654,1.1561,-0.1665,1.1014,181.4688
13:40:33:654,-0.0071,-1.2875,3.4944,34.1923,1.0767,-0.2454,1.1523,180.5312
13:40:33:675,0.2982,-1.1187,3.3568,34.0321,0.9614,-0.4044,1.1517,179.5
13:40:33:692,0.4754,-1.0301,3.7746,35.2552,0.7931,-0.566,1.0777,178.4219
13:40:33:708,0.5496,-1.0588,4.3839,34.4372,0.6072,-0.6214,0.9518,176.6719
13:40:33:728,0.4502,-1.0648,5.1453,33.7577,0.4024,-0.582,0.7928,176.1094
13:40:33:748,0.2288,-1.1223,6.1389,34.0739,0.1768,-0.4587,0.6308,174.6406
13:40:33:767,-0.0322,-1.0493,7.0714,33.4815,-0.0373,-0.2393,0.4745,173.8125
13:40:33:790,0.0408,-1.0612,7.5299,34.6857,-0.1883,-0.0057,0.3046,173.4531
13:40:33:809,0.0887,-1.2432,7.7705,33.952,-0.3057,0.0478,0.0556,172.8438
13:40:33:827,0.0145,-1.7172,8.5163,34.4709,-0.4879,-0.0872,-0.2374,172.4062
13:40:33:851,-0.2728,-2.5768,10.0929,34.4329,-0.7539,-0.2869,-0.5061,172.1719
13:40:33:867,-0.845,-3.3884,12.0334,33.9164,-1.0448,-0.317,-0.6778,172.2188
13:40:33:888,-0.5182,-3.896,13.0509,34.4282,-1.237,-0.0134,-0.6243,172.5781
13:40:33:908,0.4442,-3.568,12.9444,33.905,-1.3095,0.3962,-0.456,173.1875
13:40:33:927,1.22,-2.736,13.349,33.7078,-1.4048,0.5781,-0.4275,173.8438
13:40:33:948,1.3289,-2.4942,15.0716,33.8906,-1.4996,0.5474,-0.6584,174.2969
13:40:33:968,0.2312,-2.8545,15.7647,34.0103,-1.3497,0.6199,-1.0033,174.625
13:40:33:990,-0.681,-3.1514,13.5549,33.6757,-0.8911,0.858,-1.1141,175.0469
13:40:34:011,-0.3123,-3.0688,10.8961,34.7088,-0.4525,0.8375,-0.881,176.3438
13:40:34:028,0.7028,-2.5408,9.5482,34.3612,-0.257,0.3932,-0.5268,177.5625
13:40:34:048,1.372,-1.5592,9.5195,34.4825,-0.2538,-0.1559,-0.2797,178.5625
13:40:34:070,1.6665,-0.7524,9.8511,35.1508,-0.3324,-0.4132,-0.236,179.1562
13:40:34:089,1.6449,-0.3801,9.6188,33.9453,-0.4048,-0.2081,-0.3718,179.4062
13:40:34:107,1.1984,-0.2209,8.4924,33.1166,-0.4,0.2572,-0.5596,179.5938
13:40:34:128,0.698,-0.0485,7.0451,34.7316,-0.3617,0.6606,-0.6699,179.9375
13:40:34:146,0.297,0.2005,5.7103,33.3751,-0.3281,0.8372,-0.6983,180.5156
13:40:34:167,0.2084,0.4627,4.9441,33.3914,-0.3215,0.761,-0.6832,181.2969
13:40:34:190,0.2647,0.7236,5.0567,33.4093,-0.3587,0.5277,-0.688,182.1562
13:40:34:209,0.3257,0.7069,5.6421,35.065,-0.4021,0.3429,-0.7529,182.9375
13:40:34:227,-0.0873,0.6458,6.6704,32.4648,-0.4509,0.2652,-0.8898,183.7344
13:40:34:247,-1.0438,0.1826,8.0051,32.4649,-0.4807,0.2859,-1.0299,184.1406
13:40:34:267,-2.515,-0.2041,9.2789,34.2284,-0.4455,0.3464,-1.0616,185.0469
13:40:34:291,-3.4164,0.1167,10.4364,33.5353,-0.3622,0.3522,-0.8856,186.625
13:40:34:308,-3.2823,0.349,12.5733,33.5353,-0.1116,0.0745,-0.3942,187.8281
13:40:34:328,-2.8358,0.1909,14.2636,33.0204,0.2195,0.0569,-0.2366,187.8281
13:40:34:352,-2.7353,-0.0245,14.2396,34.9202,0.4631,0.0739,-0.0824,188.8438
13:40:34:374,-2.2732,-0.2496,13.7261,33.8614,0.4775,0.0729,-0.0152,189.5
13:40:34:393,-1.6411,-0.6039,13.8542,34.9516,0.3739,0.1986,-0.0741,190.2656
13:40:34:410,-1.4161,-1.0217,14.1702,36.0592,0.3406,0.4215,-0.1857,190.4531
13:40:34:427,-1.6555,-1.3114,13.5537,36.8323,0.3337,0.4992,-0.2701,190.5469
13:40:34:447,-1.7513,-1.3868,12.8474,37.4274,0.278,0.3373,-0.3804,190.7344
13:40:34:467,-1.8949,-2.1865,12.8546,36.2431,0.3388,-0.0331,-0.5276,191.0781
13:40:34:492,-3.5972,-3.1047,13.1587,36.1674,0.4847,-0.5024,-0.4163,191.5156
13:40:34:508,-5.0313,-3.7727,13.944,38.6693,0.6727,-0.541,0.0188,192.0469
13:40:34:527,-4.5441,-4.139,14.0972,37.4104,0.95,-0.1578,0.5414,193.1719
13:40:34:547,-2.6527,-4.0085,12.2632,37.3234,1.1239,0.1006,0.8444,193.1875
13:40:34:567,-1.5382,-3.0568,10.0175,37.0743,1.0983,-0.0661,0.9137,193
13:40:34:596,-0.8989,-2.3505,9.0885,38.2882,0.9976,-0.4198,0.8093,192.3594
13:40:34:610,-0.8211,-2.0704,9.2597,39.3784,0.9571,-0.5905,0.6886,191.5781
13:40:34:628,-0.936,-2.1027,9.3567,38.2948,0.9721,-0.4531,0.6476,190.7188
13:40:34:647,-1.1144,-2.1506,8.8778,40.8525,1.032,-0.1389,0.7102,189.9844
13:40:34:667,-1.2042,-2.0716,7.7047,39.0603,1.1068,0.1408,0.8524,189.3594
13:40:34:694,-1.0821,-1.8764,6.1688,38.9675,1.1787,0.2454,1.0031,188.7656
13:40:34:711,-0.681,-1.5796,4.7035,41.0711,1.2147,0.169,1.0972,188.4375
13:40:34:727,-0.207,-1.2599,3.3388,38.7212,1.1585,-0.0621,1.0972,187.6406
13:40:34:750,0.2323,-0.9702,2.4362,41.7342,0.9729,-0.374,0.9845,186.7344
13:40:34:768,0.5604,-0.7835,2.271,41.2363,0.6634,-0.659,0.7802,185.6875
13:40:34:792,0.5903,-0.7787,3.03,41.5178,0.3049,-0.7802,0.5448,184.625
13:40:34:809,0.3281,-1.0576,4.4701,41.2257,-0.0245,-0.6891,0.3414,183.6719
13:40:34:828,-0.3327,-1.3976,6.2394,39.9286,-0.2802,-0.3809,0.2268,182.9375
13:40:34:847,-1.1982,-1.7711,7.9429,40.6236,-0.4048,0.0883,0.2535,182.2031
13:40:34:867,-1.6627,-1.8106,9.2166,43.304,-0.3819,0.4662,0.3195,181.8906
13:40:34:893,-1.5202,-1.6825,9.5889,40.0962,-0.3119,0.4436,0.2908,181.625
13:40:34:911,-0.8965,-1.3318,9.614,42.9238,-0.391,0.1373,0.0974,181.2188
13:40:34:929,-0.62,-1.218,10.2641,43.7782,-0.6679,-0.0691,-0.2065,180.7812
13:40:34:948,-0.9408,-1.7412,11.8514,42.1352,-0.975,0.1368,-0.3974,180.4844
13:40:34:968,-0.9276,-2.6139,12.9204,42.4278,-1.1875,0.5922,-0.3974,180.4688
13:40:34:992,0.1773,-2.0309,12.5912,41.5487,-1.3817,0.7962,-0.4113,180.7344
13:40:35:010,-0.4895,-1.8501,13.6602,41.832,-1.5167,0.6657,-0.5977,181.0312
13:40:35:027,-2.0697,-2.5313,14.0948,41.1207,-1.4189,0.5584,-0.815,181.2812
13:40:35:047,-2.9998,-3.058,12.869,40.5116,-1.0794,0.6726,-0.7103,181.6094
13:40:35:067,-2.3582,-2.815,10.7178,41.4993,-0.6978,0.7152,-0.2515,182.2188
13:40:35:093,-0.7816,-1.9088,9.2501,41.0871,-0.4541,0.3714,0.225,182.9219
13:40:35:110,0.7651,-0.732,9.0777,40.6078,-0.387,-0.239,0.4229,183.3906
13:40:35:127,1.4426,-0.0042,9.9289,42.7204,-0.4685,-0.7333,0.2508,183.3281
13:40:35:151,1.0392,-0.0461,10.0869,41.5985,-0.5521,-0.6568,-0.1537,182.5625
13:40:35:167,0.0588,-0.41,9.1927,42.127,-0.596,-0.0891,-0.5202,182.125
13:40:35:187,-0.8127,-0.6051,7.579,41.3352,-0.592,0.5339,-0.6528,182.1406
13:40:35:207,-1.4197,-0.4555,6.3926,41.7533,-0.5481,0.8217,-0.5705,182.3438
13:40:35:230,-1.5082,-0.1945,6.1209,40.7232,-0.4344,0.6769,-0.3564,182.9375
13:40:35:247,-1.1012,0.0329,5.7881,40.2253,-0.2197,0.3677,-0.1258,183.6406
13:40:35:268,-0.5338,0.2221,5.4828,41.9842,-0.0325,0.1072,0.0218,184.1875
13:40:35:292,-0.1974,0.3502,5.5894,41.9772,-0.0136,-0.0294,0.0228,184.4531
13:40:35:311,-0.5146,0.3059,6.2909,41.8327,-0.1449,-0.0664,-0.1149,184.5
13:40:35:393,-1.0892,0.1694,7.4652,43.6254,-0.3611,-0.0246,-0.2765,184.4531
13:40:35:393,-2.108,0.1095,9.2346,41.7487,-0.5755,-0.015,-0.3918,184.4688
13:40:35:393,-3.3003,-0.3609,11.3822,41.0921,-0.6493,-0.1066,-0.432,184.6406
13:40:35:394,-3.9012,-0.9762,13.0856,40.8327,-0.5252,-0.1735,-0.2946,184.9375
13:40:35:419,-3.6439,-1.0062,13.5405,39.8202,-0.278,-0.0765,0.0303,185.6562
13:40:35:431,-3.001,-0.6746,13.4064,40.0644,0.0282,0.018,0.5134,185.5469
13:40:35:450,-2.2061,-0.586,13.7189,40.9703,0.0237,0.009,0.5323,185.1406
13:40:35:475,-1.4843,-0.5201,14.2851,40.1667,0.0384,0.0835,0.3927,184.5781
13:40:35:490,-1.4999,-0.6243,14.5617,39.7612,0.1047,0.1525,0.1904,183.9844
13:40:35:510,-2.2756,-0.7751,14.2827,40.4969,0.1782,0.1155,0.0838,183.5625
13:40:35:530,-2.6994,-1.5592,14.3222,39.8076,0.3654,0.0356,0.0623,183.3906
13:40:35:550,-3.7947,-2.4583,13.9787,38.85,0.6839,-0.0954,0.2324,183.3594
13:40:35:571,-4.8553,-2.9095,12.851,38.7104,0.9635,-0.2757,0.6692,183.3594
13:40:35:594,-3.8486,-3.1526,11.7688,39.1858,1.1116,-0.3538,1.0596,183.3281
13:40:35:610,-1.7094,-2.8617,10.7441,39.1012,1.1273,-0.467,1.1219,183
13:40:35:637,-0.2214,-2.2727,9.8942,38.5651,1.0216,-0.7309,0.8657,182.1406
13:40:35:649,-0.11,-1.8382,10.0246,38.427,0.8528,-0.9724,0.4913,180.4688
13:40:35:670,-0.7361,-2.159,10.9021,37.5212,0.7579,-0.8782,0.2442,179.6562
13:40:35:692,-1.4855,-2.5815,11.2098,37.9477,0.8123,-0.5359,0.2431,179.1875
13:40:35:710,-1.95,-2.7025,10.1623,37.9631,0.9635,-0.169,0.4212,179.1875
13:40:35:728,-1.9595,-2.4654,8.1141,39.0225,1.0858,0.0406,0.6615,178.9688
13:40:35:748,-1.6052,-2.135,6.0503,37.8941,1.1398,0.0241,0.8801,178.8125
13:40:35:767,-1.0414,-1.7484,4.4641,37.8316,1.1103,-0.1487,0.9954,178.4688
13:40:35:792,-0.547,-1.3438,3.6441,36.4724,1.0035,-0.3516,1.0034,177.8906
13:40:35:811,-0.3052,-1.1809,3.4813,37.057,0.8424,-0.472,0.9446,177.1094
13:40:35:827,-0.3147,-1.1917,3.7411,37.7395,0.6719,-0.4888,0.9004,176.1406
13:40:35:846,-0.2776,-1.2264,4.1996,36.6071,0.4972,-0.4595,0.8577,175.1562
13:40:35:867,-0.1771,-1.1414,4.8651,37.0613,0.3223,-0.4206,0.7866,174.2188
13:40:35:893,-0.0897,-1.1127,5.6744,36.2586,0.175,-0.3705,0.6894,173.3594
13:40:35:911,0.121,-1.1211,6.4274,35.4764,0.0469,-0.2981,0.5552,172.4531
13:40:35:928,0.224,-1.1558,6.8727,35.9481,-0.1076,-0.1812,0.3776,171.2344
13:40:35:946,0.2503,-1.3449,7.0451,34.5454,-0.3734,-0.1247,0.177,170.5938
13:40:35:967,0.0684,-1.637,7.9465,35.5355,-0.7185,-0.0976,-0.0003,170.0625
13:40:35:991,-0.1531,-1.8992,9.8104,35.9692,-0.9726,0.0201,-0.1465,169.7188
13:40:36:010,-0.6056,-2.0836,11.7449,35.9629,-1.0237,0.2865,-0.2363,169.5781
13:40:36:027,-0.8079,-2.5325,12.5625,35.2713,-0.943,0.5653,-0.235,169.5781
13:40:36:047,-0.0454,-3.0017,12.0705,34.8773,-0.975,0.6401,-0.2288,169.6094
13:40:36:068,1.4498,-2.9263,11.9604,35.4298,-1.2051,0.4369,-0.4062,169.75
13:40:36:092,2.3967,-2.5576,14.0972,34.9446,-1.3364,0.3205,-0.8579,169.8906
13:40:36:109,1.5504,-2.9898,16.3537,33.0675,-1.118,0.7363,-1.2161,170.0156
13:40:36:126,0.4119,-3.9714,15.6223,34.8254,-0.8144,1.4412,-1.1303,170.3125
13:40:36:146,0.279,-3.7715,12.7313,34.4153,-0.6389,1.671,-0.7724,171.0625
13:40:36:166,1.3193,-2.5851,10.391,33.8371,-0.5369,1.1523,-0.6195,172.3281
13:40:36:188,2.1836,-1.1678,9.3854,31.615,-0.4762,0.299,-0.8022,173.5625
13:40:36:207,2.1226,-0.3693,9.547,32.8068,-0.4818,-0.2028,-1.1708,174.75
13:40:36:226,0.9746,-0.24,9.9684,31.9599,-0.5217,-0.0619,-1.4499,175.4844
13:40:36:246,-0.11,-0.5297,9.6871,33.6214,-0.5358,0.45,-1.5032,176.5
13:40:36:268,-0.9767,-0.5046,8.7401,32.215,-0.4208,0.8601,-1.3745,177.8438
13:40:36:292,-1.4244,-0.0102,7.1265,32.3815,-0.2575,0.8622,-1.1767,179.4844
13:40:36:310,-1.4268,0.507,6.0203,32.4958,-0.0956,0.5701,-1.0222,181.1406
13:40:36:328,-1.0952,0.9068,5.5714,32.4958,0.0272,0.1882,-0.9884,182.6406
13:40:36:347,-0.8833,1.0553,5.818,32.4412,0.0983,-0.0763,-1.0648,183.8906
13:40:36:368,-1.0869,0.8278,6.2801,31.8621,0.1063,-0.1112,-1.1711,185.0625
13:40:36:392,-2.8813,0.088,7.2893,29.921,0.0522,0.0404,-1.1929,186.25
13:40:36:411,-3.8677,-0.0688,8.3391,29.7319,-0.032,0.16,-1.1005,187.4688
13:40:36:426,-4.5692,-0.2448,9.9349,30.5927,-0.0666,0.1759,-0.9205,188.8594
13:40:36:446,-4.6913,-0.4352,11.2253,29.3944,0.0554,0.0683,-0.6813,190.2031
13:40:36:468,-4.7919,-0.7045,11.9436,30.1244,0.2727,-0.1066,-0.4682,191.3906
13:40:36:493,-4.6961,-0.9846,12.9839,27.5605,0.3635,-0.2773,-0.2816,192.2656
13:40:36:511,-4.3107,-1.4287,14.5952,29.3046,0.3225,-0.3564,-0.1242,192.9531
13:40:36:526,-3.6187,-1.9698,15.9898,28.8375,0.2671,-0.2619,-0.0019,193.4062
13:40:36:546,-2.4719,-2.1949,15.4619,27.7404,0.3238,0.0857,0.1267,193.6406
13:40:36:566,-2.205,-1.7376,14.734,28.3529,0.3478,0.3443,0.1704,193.7031
13:40:36:588,-3.019,-2.0428,14.7807,28.4982,0.3497,0.2233,0.1057,193.6719
13:40:36:610,-4.2508,-2.9227,14.2803,27.6404,0.5318,-0.0132,0.0945,193.5781
