Time,Acc_X,Acc_Y,Acc_Z,Meg,Gyr_X,Gyr_Y,Gyr_Z,Ore
13:34:54:198,-0.8343,1.8848,6.3926,57.1196,0.6013,-0.186,0.9272,109.0156
13:34:54:219,-0.5302,2.25,5.6361,56.4316,0.4626,-0.2513,0.6958,109.0156
13:34:54:249,-0.6834,2.4355,6.2131,57.033,0.5284,-0.611,0.4814,109.0156
13:34:54:268,-0.9528,2.5241,7.1336,56.1086,0.7694,-0.9165,0.3408,189.9062
13:34:54:278,-1.0234,2.2547,5.9904,56.3347,0.6868,-0.9189,0.2599,189.375
13:34:54:300,-1.3694,2.1494,4.7957,55.6647,0.0842,-0.7322,0.217,189.1094
13:34:54:318,-1.288,2.3697,5.8468,54.5735,-0.5475,-0.2896,0.1826,189
13:34:54:338,-0.96,2.5696,7.1348,55.5698,-0.9167,0.1269,0.1059,188.8906
13:34:54:365,-1.1647,2.8653,7.6448,56.6358,-1.0128,0.0351,0.0937,188.7344
13:34:54:378,-1.1946,3.0616,8.3559,55.3851,-0.7649,-0.4321,0.0561,188.5781
13:34:54:396,-1.1192,3.0915,9.0538,57.2309,-0.3076,-0.9847,-0.0019,188.4688
13:34:54:416,-1.1228,3.0101,9.7517,56.1967,0.1265,-0.7921,-0.0184,188.4688
13:34:54:435,-0.9492,2.8186,9.3183,56.4164,0.3265,-0.5897,-0.0208,188.6562
13:34:54:455,-1.0258,2.7504,9.7469,55.4424,0.2743,-0.6997,0.0055,188.8125
13:34:54:476,-1.0246,2.4427,11.4085,55.6405,0.1156,-0.6744,0.0721,188.9375
13:34:54:495,-0.7182,2.3457,12.918,54.9743,0.0104,-0.1559,0.2087,189.0469
13:34:54:515,-0.0945,2.7767,12.669,54.885,-0.0652,0.4321,0.3515,189.0938
13:34:54:535,0.4682,2.8784,11.7185,56.6066,-0.2266,0.5285,0.4391,188.8906
13:34:54:554,1.3756,2.8126,11.1331,55.149,-0.5414,0.4337,0.3408,188.8906
13:34:54:575,1.7814,2.6941,11.6204,55.9473,-0.8293,0.3522,0.0575,188.4219
13:34:54:596,1.4211,1.9519,12.9647,56.2152,-0.8229,0.3344,-0.2307,187.8281
13:34:54:614,1.0655,0.9535,12.675,56.2001,-0.5635,0.4372,-0.2744,187.375
13:34:54:635,1.3385,0.4567,10.7118,53.8101,-0.2876,0.3347,-0.2035,187.5
13:34:54:654,1.7371,0.9643,9.1352,55.6294,-0.0908,-0.0787,-0.1671,187.6406
13:34:54:675,2.0663,1.5568,8.648,54.4902,0.0383,-0.7663,-0.1955,187.75
13:34:54:697,2.7726,1.5173,8.8347,55.7672,0.1798,-1.4355,-0.3876,187.9219
13:34:54:713,2.5045,1.2791,8.9257,54.9565,0.2565,-1.7013,-0.6304,188.125
13:34:54:733,1.8209,0.9236,8.2338,54.6756,0.0975,-1.4121,-0.729,188.4688
13:34:54:753,1.6557,0.8733,7.3743,54.2586,-0.2189,-0.6257,-0.7497,189.0938
13:34:54:774,1.6449,0.9966,6.486,54.1069,-0.5598,0.2252,-0.786,190.0781
13:34:54:794,1.4115,1.1307,6.4178,55.0135,-0.7934,0.7168,-0.8544,191.125
13:34:54:815,0.5699,1.4682,6.571,55.7343,-0.8408,0.8343,-0.9133,192.0469
13:34:54:834,-0.7696,2.0165,6.7925,54.3881,-0.743,0.6199,-0.8592,192.9531
13:34:54:853,-1.4232,2.4511,6.9649,53.8287,-0.6064,0.3608,-0.6991,193.875
13:34:54:874,-2.1403,2.6905,7.385,54.5545,-0.5007,0.2825,-0.4691,194.8438
13:34:54:896,-1.9847,2.554,7.9465,54.5691,-0.3638,0.0971,-0.3239,195.7188
13:34:54:913,-1.1958,2.3517,8.3978,55.124,-0.2471,-0.1474,-0.4059,197
13:34:54:933,-1.4292,2.4475,9.0717,52.8143,-0.1404,-0.2409,-0.4909,197.1719
13:34:54:953,-1.8255,2.1326,9.5314,54.5452,-0.0807,-0.2313,-0.4483,197.5781
13:34:54:973,-2.2109,1.8837,9.7266,52.9435,-0.0415,-0.166,-0.2877,198.125
13:34:54:994,-2.6922,2.0237,9.7146,55.5445,-0.008,-0.2571,-0.0776,198.7188
13:34:55:013,-2.2433,2.5157,10.0618,53.4578,-0.053,-0.4145,-0.0011,199.1406
13:34:55:033,-1.3083,2.7192,10.8638,54.3832,-0.2535,-0.3812,-0.1242,199.3594
13:34:55:053,-0.8019,2.2081,12.541,54.1173,-0.4932,0.0526,-0.2941,199.4219
13:34:55:074,-1.0473,1.2504,13.5489,53.2187,-0.6621,0.5831,-0.4025,199.5156
13:34:55:096,-2.2325,0.6243,13.5477,54.6117,-0.7747,0.7581,-0.2991,199.7969
13:34:55:115,-2.9998,0.4519,13.683,55.2996,-0.8354,0.6015,-0.0038,200.1875
13:34:55:134,-2.1236,0.5154,14.0756,54.4552,-0.8197,0.4316,0.2191,200.5938
13:34:55:155,-1.3359,0.3729,14.3988,54.3316,-0.649,0.2526,0.2679,200.7188
13:34:55:180,-1.8015,-0.1467,14.7065,55.2958,-0.236,0.2169,0.3946,200.6562
13:34:55:195,-1.8973,-0.9319,13.4208,54.2528,0.2751,0.2598,0.6671,200.375
13:34:55:213,-1.2389,-1.2947,10.4568,54.2317,0.6096,-0.0331,0.936,200.0625
13:34:55:233,-0.14,-0.9475,7.8543,54.2317,0.6298,-0.6994,1.0737,199.2812
13:34:55:254,1.7,0.3526,7.5873,54.7678,0.4298,-1.3293,0.972,198.3438
13:34:55:276,1.2164,0.7751,8.6564,54.6312,0.1824,-1.4992,0.7033,197.2344
13:34:55:300,1.0296,0.4914,9.1807,54.6312,0.0301,-1.2313,0.49,196.1094
13:34:55:316,0.5101,0.2544,8.5606,53.7601,0.0139,-0.6917,0.3547,195.2344
13:34:55:334,0.0504,0.2771,7.4401,54.3271,0.0884,-0.1884,0.3528,194.6719
13:34:55:352,-0.0274,0.5632,6.753,54.2551,0.2069,0.0582,0.4772,194.2969
13:34:55:373,0.1126,0.9296,7.2067,53.5493,0.3404,0.0646,0.5792,193.9531
13:34:55:396,0.0025,0.4268,7.4916,53.9683,0.4791,0.1229,0.5408,193.4688
13:34:55:415,-0.4811,-0.343,7.2498,55.7997,0.5172,0.2673,0.5097,192.8594
13:34:55:432,-0.5613,-0.234,7.5574,54.0943,0.3462,0.5925,0.7299,192.1719
13:34:55:452,0.1246,0.5405,8.551,53.1245,0.1052,0.9083,1.0625,191.5312
13:34:55:473,0.6777,1.4036,8.8383,55.4563,0.0394,1.0569,1.1499,190.8438
13:34:55:497,0.5927,1.6957,8.6779,52.5016,0.1073,0.8902,0.9211,189.7188
13:34:55:520,0.4155,1.5975,8.5762,52.0411,0.1574,0.496,0.6324,188.2969
13:34:55:534,0.3126,1.4826,8.9592,52.7034,0.1177,0.0963,0.3981,186.5156
13:34:55:554,0.303,1.236,9.6416,51.3515,-0.0061,-0.1506,0.1893,185.7344
13:34:55:574,0.3197,1.1127,10.6543,52.864,-0.2069,-0.1783,0.0071,185.2656
13:34:55:595,0.6585,1.0002,11.4767,53.8263,-0.3864,-0.1176,-0.138,185.0625
13:34:55:614,0.7136,0.6399,12.3147,51.4836,-0.4986,-0.1125,-0.3266,185.0938
13:34:55:642,1.105,0.0868,12.5266,53.4681,-0.5334,-0.0779,-0.4856,185.1562
13:34:55:652,0.9925,0.0545,12.5505,52.0664,-0.5534,-0.0307,-0.5982,185.1562
13:34:55:674,0.6382,0.3549,12.7887,50.213,-0.6048,-0.0659,-0.7186,185.9375
13:34:55:697,0.1306,0.2855,13.7907,49.6612,-0.698,-0.182,-0.8629,186.5625
13:34:55:715,-0.3423,-0.5704,14.7915,51.3086,-0.7625,-0.1607,-0.9375,187.3438
13:34:55:734,-0.4536,-1.1582,14.4503,49.082,-0.6354,0.0833,-0.782,188.2656
13:34:55:755,0.5149,-1.1378,13.2903,50.2884,-0.3164,0.3224,-0.3697,189.3125
13:34:55:775,2.2471,-0.7679,11.2708,51.1265,0.1486,0.2952,0.0391,190.7656
13:34:55:798,3.1808,-0.1981,9.3243,50.4725,0.5151,-0.0837,0.1581,191.1875
13:34:55:816,3.1724,0.094,8.5007,51.4389,0.5763,-0.5293,0.0034,191.125
13:34:55:833,2.4889,0.0078,8.0279,50.196,0.4615,-0.6885,-0.2424,190.9375
13:34:55:854,1.524,-0.1335,6.9277,47.8792,0.3481,-0.5205,-0.4232,190.9531
13:34:55:875,0.7902,-0.0006,5.7869,50.5451,0.2607,-0.2912,-0.4691,191.2188
13:34:55:897,0.5771,0.2963,4.8987,48.9833,0.1838,-0.1719,-0.4163,191.7344
13:34:55:914,0.5616,0.6758,4.5395,50.7341,0.085,-0.1538,-0.3644,192.2656
13:34:55:933,0.5005,0.8924,4.7766,48.4348,-0.0144,-0.2243,-0.3569,192.75
13:34:55:956,0.285,1.0181,5.2303,46.4512,-0.0586,-0.4861,-0.4211,193.1562
13:34:55:975,-0.0562,0.9822,5.8252,47.2293,-0.0546,-0.6078,-0.4366,193.1562
13:34:55:998,-0.183,1.0565,6.8523,46.4512,-0.0791,-0.5719,-0.4691,193.5781
13:34:56:016,-0.2573,1.509,8.7689,47.448,-0.1055,-0.2494,-0.5838,194.0312
13:34:56:033,-0.1531,1.6873,10.78,48.2292,-0.0442,0.2311,-0.795,194.5312
13:34:56:053,0.151,1.3138,11.0817,47.2511,-0.1055,0.8122,-1.0509,195.6562
13:34:56:074,-0.711,1.3904,10.4376,45.5653,-0.4163,1.4239,-1.24,196.3281
13:34:56:098,-2.169,1.2875,10.5633,43.7875,-0.69,1.7781,-1.2712,197.2188
13:34:56:191,-3.3614,0.9188,11.126,46.5091,-0.7031,1.7515,-1.1237,198.375
13:34:56:192,-3.924,0.7919,11.7796,46.6208,-0.5121,1.3954,-0.8549,199.7188
13:34:56:193,-3.493,0.5321,12.4452,46.0735,-0.2671,0.9184,-0.6232,202.2031
13:34:56:193,-2.6575,0.3945,12.7816,44.1789,-0.1609,0.5469,-0.5367,202.2031
13:34:56:199,-2.254,0.4998,12.997,44.3975,-0.2884,0.344,-0.5788,203.1094
13:34:56:213,-2.5341,0.4483,13.8266,43.8494,-0.465,0.3205,-0.6267,203.7344
13:34:56:232,-3.4021,-0.2556,14.831,44.2138,-0.4756,0.402,-0.5164,204.3281
13:34:56:252,-4.1993,-1.4275,15.5948,45.3121,-0.2296,0.5573,-0.1063,205.6562
13:34:56:273,-4.0269,-2.5552,14.7843,44.0468,0.2136,0.6369,0.4953,205.9375
13:34:56:295,-3.0238,-2.973,12.1363,45.751,0.5406,0.2148,1.1347,206.3125
13:34:56:317,-1.27,-2.6199,10.3395,45.0958,0.6884,-0.4744,1.572,206.0781
13:34:56:332,0.1234,-1.7089,9.5829,46.1903,0.7673,-0.9999,1.6229,205.2031
13:34:56:353,0.0767,-0.7117,8.7222,45.6813,0.7276,-1.1501,1.536,203.6562
13:34:56:373,-0.1938,-0.1371,7.9297,45.7802,0.563,-0.9245,1.511,201.8438
13:34:56:395,0.0612,0.173,7.3,47.5486,0.4147,-0.6305,1.4852,200.1406
13:34:56:413,0.5089,0.3585,6.7099,47.7698,0.3678,-0.4987,1.4095,198.5625
13:34:56:433,0.6884,0.5968,6.1544,46.8069,0.404,-0.4957,1.3214,196.9062
13:34:56:453,0.7746,0.6865,5.7701,45.6679,0.5073,-0.57,1.2407,195.2812
13:34:56:473,0.7483,0.7476,5.2578,46.2799,0.599,-0.6648,1.1629,194.5
13:34:56:496,0.643,0.7548,4.8161,45.4212,0.5782,-0.7381,1.1035,193.1094
13:34:56:513,0.5304,0.7847,4.8975,45.7848,0.437,-0.6584,1.0665,191.7188
13:34:56:533,0.6501,0.8434,5.2195,46.7378,0.2437,-0.4827,1.0237,190.4375
13:34:56:552,0.856,1.0014,5.7606,46.5124,0.0538,-0.3343,0.9363,189.2812
13:34:56:572,0.8692,1.412,6.2897,47.3287,-0.1015,-0.325,0.7845,187.5469
13:34:56:592,0.9255,1.91,7.0774,47.7586,-0.1848,-0.4142,0.5608,186.4531
13:34:56:613,1.0979,2.0943,7.8998,47.0795,-0.2328,-0.5578,0.2545,185.5312
13:34:56:633,0.9937,1.7137,8.8323,46.9651,-0.3702,-0.6414,-0.0134,184.7969
13:34:56:653,0.6238,0.6063,12.183,48.5167,-0.6496,-0.6342,-0.1543,184.3906
13:34:56:674,0.7375,0.3023,14.4635,47.4249,-0.9281,-0.5226,-0.2177,184.3594
13:34:56:697,1.4235,-0.1957,15.7599,46.2318,-1.0045,-0.2358,-0.2629,184.5625
13:34:56:715,2.2782,-0.6219,14.9196,45.1386,-0.8597,0.1283,-0.338,184.9219
13:34:56:732,2.2028,-0.2735,13.6686,47.3207,-0.7215,0.2819,-0.4906,185.3281
13:34:56:751,1.8867,-0.3549,14.1882,48.3532,-0.754,0.1102,-0.7295,185.7344
13:34:56:772,1.062,-1.3414,15.7719,45.3591,-0.8304,0.0167,-1.0211,186.25
13:34:56:792,0.1677,-2.6342,15.8031,47.1562,-0.7814,0.4851,-1.1402,187
13:34:56:817,0.6753,-3.3477,13.4615,46.3775,-0.5137,1.1549,-0.8896,188.0312
13:34:56:833,1.8413,-2.9108,10.713,47.1582,-0.1742,1.3608,-0.4515,189.3906
13:34:56:853,2.7271,-1.661,8.9329,45.7583,0.0506,0.9565,-0.1063,191.0938
13:34:56:872,2.7714,-0.6063,8.5271,47.7441,0.1542,0.2548,-0.0488,191.5469
13:34:56:892,2.2914,-0.3932,8.1033,49.3415,0.2525,-0.235,-0.2232,191.6406
13:34:56:913,1.615,-0.5201,6.9649,48.5049,0.3326,-0.2664,-0.4097,191.6875
13:34:56:932,0.9901,-0.2855,5.6995,46.9712,0.3108,-0.0299,-0.4725,191.9219
13:34:56:952,0.4395,0.404,4.8604,48.1905,0.1481,0.2697,-0.4256,192.1406
13:34:56:973,0.303,0.829,4.8783,49.0924,-0.0605,0.4058,-0.3532,192.6406
13:34:56:992,0.2683,1.1043,5.3164,48.1556,-0.163,0.3357,-0.2991,193.1562
13:34:57:014,0.297,1.2935,5.5068,47.7446,-0.119,0.2287,-0.2408,193.5625
13:34:57:032,0.7016,1.4778,5.4158,48.6277,-0.0016,0.1211,-0.1772,193.9219
13:34:57:052,0.9578,1.8405,5.6026,49.4515,0.0762,-0.0313,-0.183,194.2344
13:34:57:073,0.7519,1.9926,6.6763,49.8296,0.0485,-0.2068,-0.2917,194.4688
13:34:57:092,0.5879,1.9615,8.0829,49.1801,-0.0511,-0.2379,-0.4262,194.6406
13:34:57:113,-0.3566,2.0931,9.8187,50.4445,-0.2053,-0.1032,-0.5841,194.9062
13:34:57:132,-1.0246,1.6706,11.8778,49.4904,-0.3412,0.1064,-0.7125,195.3281
13:34:57:152,-1.7237,1.2564,13.2305,49.5419,-0.383,0.4191,-0.7513,196.25
13:34:57:172,-2.3546,1.2839,13.1467,49.9877,-0.3396,0.7933,-0.7189,197.0625
13:34:57:192,-2.7784,1.327,12.9767,49.5565,-0.3547,0.9698,-0.6219,197.9375
13:34:57:212,-2.8059,1.09,13.8625,49.8787,-0.4072,0.8681,-0.4832,198.7031
13:34:57:233,-2.205,0.2867,14.6239,51.4058,-0.3475,0.6343,-0.3095,199.3906
13:34:57:252,-2.0709,-0.0006,14.1379,51.1441,-0.1811,0.4675,-0.0728,199.9375
13:34:57:272,-2.0122,0.4028,13.9368,51.6867,-0.1161,0.2912,0.2577,200.2656
13:34:57:293,-1.0174,0.2412,14.4575,52.0982,-0.1332,0.1541,0.5581,200.3281
13:34:57:313,-0.8702,-0.2831,14.3091,52.0982,0.0346,0.0545,0.5637,200.0469
13:34:57:332,-1.1635,-1.0265,12.9755,49.8116,0.3979,-0.0182,0.4681,199.4375
13:34:57:353,-1.3502,-1.7891,10.7154,51.5716,0.7603,-0.1279,0.4434,199.0938
13:34:57:373,-1.2161,-2.0213,8.4935,51.0898,0.7742,-0.8989,0.552,198.5156
13:34:57:396,-1.1371,-1.254,7.8232,52.2466,0.2991,-1.2355,0.5616,198.5156
13:34:57:414,-0.6786,-0.7703,8.9293,52.1719,-0.1862,-1.1588,0.4822,197.2656
13:34:57:433,-0.1842,-0.7644,10.4688,51.7207,-0.3404,-0.7248,0.3416,196.6719
13:34:57:452,-0.5398,-0.6865,10.8997,52.4547,-0.1001,-0.2275,0.2782,196.0781
13:34:57:471,-0.9205,-0.6602,9.6871,53.3931,0.3103,0.0936,0.3435,195.6094
13:34:57:491,-0.9767,-0.7392,7.567,53.7172,0.6365,0.1823,0.4758,195.2656
13:34:57:513,-0.8247,-0.6219,5.6181,52.0101,0.7678,0.1176,0.5965,194.9531
13:34:57:532,-0.7936,-0.5501,4.3133,54.3168,0.722,-0.0004,0.6833,194.5469
13:34:57:552,-0.7636,-0.3825,3.8273,52.6764,0.5784,-0.1535,0.7603,194
13:34:57:580,-0.4045,-0.2664,3.9853,51.8732,0.3816,-0.2667,0.7776,193.2812
13:34:57:603,-0.0681,-0.0233,4.7107,52.5702,0.1787,-0.3232,0.7163,192.4688
13:34:57:621,0.0229,0.0545,5.7055,52.6896,-0.0005,-0.357,0.6055,191.1719
13:34:57:639,-0.3255,0.0988,7.0175,53.0975,-0.1137,-0.3064,0.5073,190.3281
13:34:57:652,-0.7325,0.0377,8.2829,53.8666,-0.1174,-0.1689,0.4537,189.5781
13:34:57:671,-0.5673,-0.0078,8.7114,54.4113,-0.1119,-0.064,0.3573,189.0156
13:34:57:692,-0.1328,-0.1754,8.5103,53.3912,-0.2503,-0.1447,0.1824,188.5
13:34:57:715,0.2647,-0.5285,8.7246,53.4583,-0.563,-0.3788,-0.0488,188.0312
13:34:57:733,0.3892,-1.0217,9.8965,53.1331,-0.9571,-0.6353,-0.2904,187.7344
13:34:57:754,-0.0645,-1.7771,12.3243,53.5869,-1.2514,-0.5381,-0.4067,187.7031
13:34:57:773,-0.3363,-2.8521,14.6862,52.1453,-1.244,-0.0148,-0.3146,187.9844
13:34:57:794,0.5316,-3.5895,14.7257,53.4494,-1.1175,0.4412,-0.1702,188.2344
13:34:57:816,0.9183,-2.5385,13.6686,53.2071,-1.1369,0.3906,-0.2062,188.7969
13:34:57:833,1.1601,-1.5173,14.4132,54.0375,-1.1726,0.251,-0.5223,189.25
13:34:57:853,0.7459,-2.3361,16.149,52.3207,-1.004,0.5357,-0.758,189.5312
13:34:57:873,0.054,-3.6206,16.1598,52.3838,-0.6552,1.0399,-0.5652,189.8281
13:34:57:897,0.7567,-3.6087,14.0661,54.0256,-0.3398,1.3019,-0.2046,190.5
13:34:57:916,2.0974,-2.6785,11.6048,52.0698,-0.1345,1.1413,-0.0256,191.8594
13:34:57:935,2.7068,-1.3042,9.9157,51.482,0.0285,0.7003,-0.0997,192.3438
13:34:57:953,2.6421,-0.4064,8.9592,52.1487,0.1872,0.2385,-0.3197,192.4844
13:34:57:972,2.0795,0.021,8.4469,52.8562,0.3438,-0.0198,-0.5154,192.5625
13:34:57:993,1.5575,0.0078,7.8172,51.941,0.4522,-0.0305,-0.6403,192.8125
13:34:58:016,0.959,-0.0521,6.9122,51.6899,0.4778,0.0819,-0.677,193.2656
13:34:58:033,0.4969,-0.0784,6.0203,50.4333,0.412,0.1735,-0.6534,193.9375
13:34:58:054,-0.2848,0.1802,5.0794,50.5532,0.2977,0.2095,-0.603,194.7031
13:34:58:075,-0.2621,0.2436,5.1369,49.6149,0.2178,0.2047,-0.5151,195.4219
13:34:58:098,-0.1292,0.3956,5.3152,49.5835,0.1973,0.1674,-0.4222,196.1406
13:34:58:117,0.0492,0.5477,5.4386,51.1626,0.2322,0.0627,-0.3407,196.7812
13:34:58:133,-0.0741,0.5237,5.7857,50.9474,0.2653,-0.1492,-0.3029,197.2969
13:34:58:151,-0.2561,0.4399,6.5339,49.7011,0.22,-0.3716,-0.2648,197.7344
13:34:58:173,-0.5709,0.3645,7.8256,49.1873,0.0687,-0.4659,-0.1995,198.0938
13:34:58:246,-1.0545,0.4004,9.7278,50.4482,-0.1513,-0.3772,-0.1372,198.5469
13:34:58:246,-1.0354,0.313,11.5713,48.2543,-0.2996,-0.1042,-0.0632,198.7812
13:34:58:247,-0.9061,0.4208,12.511,50.0755,-0.3233,0.3272,-0.0523,198.9375
13:34:58:252,-1.1228,0.519,12.2022,49.2973,-0.2706,0.8255,-0.1029,199.0156
13:34:58:273,-1.5082,0.1634,11.6659,47.9057,-0.249,1.0963,-0.1689,199.0781
13:34:58:304,-1.61,-0.5094,11.2912,46.3428,-0.2903,1.0292,-0.187,199.1406
13:34:58:319,-1.8362,-1.2516,11.5474,47.0787,-0.3864,0.5789,-0.1564,199.2969
13:34:58:332,-2.3354,-1.813,13.3538,46.2855,-0.5835,-0.1889,-0.1026,199.5312
13:34:58:357,-2.3235,-2.1446,15.9982,45.9914,-0.7332,-0.7913,0.0404,199.7188
13:34:58:371,-1.8877,-2.5815,17.7448,46.9722,-0.6171,-0.9615,0.1741,199.875
13:34:58:396,-1.4292,-2.8222,17.54,45.411,-0.2168,-0.7293,0.2564,199.8906
13:34:58:416,-0.6954,-2.9479,14.5629,44.8167,0.3119,-0.129,0.3379,199.7344
13:34:58:440,-0.6894,-2.6773,10.1384,45.7102,0.7127,0.4351,0.3539,199.4375
13:34:58:452,-1.3742,-2.1877,7.136,44.3401,0.7247,0.4497,0.3251,199.0781
13:34:58:473,-2.0122,-1.8166,6.5171,45.1573,0.4035,0.0095,0.381,198.6875
13:34:58:492,-1.9356,-1.7819,7.3659,44.372,0.0676,-0.4739,0.5254,198.1406
13:34:58:515,-1.3933,-1.6466,7.7705,43.3851,0.0011,-0.7072,0.7478,197.7031
13:34:58:533,-0.9133,-1.2576,7.1157,43.9047,0.1595,-0.6925,0.9693,197.125
13:34:58:552,-0.5015,-0.8709,5.8695,41.2892,0.3574,-0.6153,1.1249,196.25
13:34:58:576,-0.2393,-0.5189,4.9573,42.6761,0.428,-0.6177,1.1885,195.1406
13:34:58:601,-0.0885,-0.2867,4.9429,42.832,0.3462,-0.7082,1.1917,193.8281
13:34:58:618,0.1438,-0.3118,5.5092,41.3061,0.2232,-0.7849,1.1683,192.5156
13:34:58:637,0.2611,-0.3142,6.2921,41.2388,0.1353,-0.806,1.1187,191.1406
13:34:58:654,0.394,-0.3083,7.0965,39.8794,0.0788,-0.7314,1.0487,189.7812
13:34:58:673,0.3461,-0.5237,8.1991,40.2124,0.0381,-0.5983,0.9483,188.5625
13:34:58:695,0.1917,-0.823,8.9724,41.2366,0.0432,-0.3775,0.8436,187.3438
13:34:58:716,0.0133,-0.7691,9.638,40.0522,0.0565,-0.1277,0.7818,186.25
13:34:58:733,0.3652,-0.6806,10.4341,39.5401,0.0828,-0.0044,0.7376,185.3281
13:34:58:753,0.9267,-0.7344,10.4604,40.3483,0.1838,-0.0227,0.6015,184.4219
13:34:58:773,1.3038,-0.975,10.5609,39.8874,0.0711,-0.3535,0.0401,184
13:34:58:794,1.4031,-1.4096,11.4444,40.0002,-0.1763,-0.3173,-0.2216,182.875
13:34:58:819,1.1457,-1.9543,12.8558,38.2348,-0.3015,-0.0204,-0.3745,182.4844
13:34:58:835,0.8991,-2.4104,13.6758,38.6821,-0.2016,0.4678,-0.3902,182.7031
13:34:58:852,1.524,-2.5337,12.6511,38.1361,-0.0655,0.8284,-0.3942,182.7031
13:34:58:872,2.2962,-1.8788,10.7106,36.7146,-0.1244,0.7339,-0.5908,183.1406
13:34:58:892,2.453,-1.2432,10.1001,37.5258,-0.3393,0.341,-1.003,183.6094
13:34:58:917,2.1764,-2.0057,11.2625,38.1114,-0.5531,0.0739,-1.4062,184.0625
13:34:58:934,1.2858,-3.6889,12.9815,37.6641,-0.6655,0.2114,-1.4688,184.7188
13:34:58:954,0.6789,-4.5185,13.6231,36.4813,-0.6197,0.499,-1.1705,185.8906
13:34:58:971,1.226,-4.0731,12.6906,35.9278,-0.5835,0.6955,-0.9042,187.5469
13:34:58:991,2.4829,-2.7216,11.0673,37.3842,-0.8184,0.9704,-1.0432,189.2656
13:34:59:017,2.5715,-1.6251,9.9109,35.6637,-1.2402,1.5219,-1.4629,190.5781
13:34:59:034,0.8201,-1.4419,9.2262,36.4968,-1.5465,2.2404,-1.6859,191.6719
13:34:59:051,-1.282,-1.6777,8.6085,38.295,-1.5191,2.7656,-1.4536,192.9375
13:34:59:075,-2.4456,-1.5281,7.5502,34.9249,-1.1928,2.7824,-0.8989,194.625
13:34:59:092,-2.6036,-0.8553,6.7733,38.2771,-0.6538,2.2588,-0.2816,197.7188
13:34:59:117,-1.6806,-0.1478,6.2274,36.8508,-0.0343,1.4399,0.1312,199.3125
13:34:59:134,-0.8534,0.4926,5.7187,35.5996,0.5297,0.5877,0.2724,200.1562
13:34:59:152,-0.517,0.8901,5.1584,35.7685,0.889,-0.0249,0.2583,200.375
13:34:59:175,-0.3064,0.9403,4.6951,36.1643,0.9875,-0.3082,0.1781,200.25
13:34:59:197,-0.1986,0.6171,4.4988,35.2109,0.8804,-0.4776,0.0852,200.1406
13:34:59:217,-0.5757,0.2771,5.0172,36.8106,0.6248,-0.5301,0.0058,199.9531
13:34:59:233,-1.3694,0.0533,6.3364,37.5064,0.3153,-0.4496,-0.0453,199.8281
13:34:59:251,-2.2852,-0.4124,8.4983,37.2392,0.0863,-0.2108,-0.0621,199.7812
13:34:59:272,-3.2632,-0.9894,10.6412,37.4829,-0.0344,0.2007,-0.0115,199.7969
13:34:59:292,-3.9803,-1.2947,11.9831,35.443,-0.045,0.5933,0.1169,199.8438
13:34:59:316,-3.7049,-1.2767,12.4607,38.0719,0.0123,0.6881,0.1342,199.9375
13:34:59:335,-3.6906,-1.1797,12.195,38.0719,0.0237,0.4782,0.0231,199.9062
13:34:59:353,-4.3992,-1.3976,12.1399,37.0004,-0.013,0.1493,-0.0142,199.7812
13:34:59:376,-5.2995,-1.7053,12.2213,38.1045,-0.0764,-0.2246,0.1461,199.7188
13:34:59:391,-5.6969,-1.4036,12.9073,36.9842,-0.1356,-0.5921,0.3773,199.7656
13:34:59:412,-5.2169,-1.4527,14.2803,37.2436,-0.1273,-0.7333,0.5153,199.7031
13:34:59:434,-4.7811,-2.1506,16.0137,36.2386,0.1675,-0.6662,0.6782,199.3594
13:34:59:452,-2.9053,-3.1538,14.0577,36.6936,0.6858,-0.4947,0.9565,198.7812
13:34:59:472,-1.015,-2.5037,11.205,36.4673,1.0847,-0.3679,1.1576,198.0938
13:34:59:493,0.1318,-1.57,9.3195,37.149,1.1244,-0.4227,1.0444,197.1719
13:34:59:517,0.054,-1.1043,8.818,36.0201,0.901,-0.5841,0.6335,195.9844
13:34:59:531,-0.3315,-1.3593,9.1041,39.4105,0.6447,-0.7202,0.2055,194.8125
13:34:59:551,-0.9001,-1.4934,8.9209,35.8753,0.6029,-0.7604,-0.0472,193.875
13:34:59:571,-1.1348,-1.5293,7.871,36.8483,0.7918,-0.7375,-0.0864,193.4688
13:34:59:592,-0.9707,-1.5544,6.4262,39.0699,1.0346,-0.6659,0.03,193.4375
13:34:59:617,-0.6691,-1.424,4.9166,37.7451,1.1803,-0.5519,0.2055,193.6406
13:34:59:638,-0.4608,-1.0983,3.7506,37.9978,1.1436,-0.4334,0.3523,193.6562
13:34:59:651,-0.1507,-0.8721,3.0779,38.9283,0.9699,-0.3615,0.4527,193.4844
13:34:59:673,0.2096,-0.841,2.8289,38.6795,0.7444,-0.3508,0.4854,193.3281
13:34:59:692,0.3712,-1.23,2.8995,37.8401,0.4991,-0.418,0.4689,192.9062
13:34:59:716,0.0288,-1.3473,2.9414,37.3006,0.2597,-0.533,0.4921,192.3906
13:34:59:734,-0.3123,-0.7368,3.437,37.4754,-0.0075,-0.6795,0.6186,191.9062
13:34:59:751,0.3592,-0.4699,5.2422,37.4076,-0.3385,-0.9173,0.739,191.4062
13:34:59:771,0.5879,-0.4639,7.7729,37.947,-0.6224,-1.0518,0.6492,190.8281
13:34:59:792,0.2371,-0.5237,9.6595,37.5971,-0.7713,-0.8928,0.3733,190.0938
13:34:59:817,0.2347,-0.9248,10.5035,35.8974,-0.8277,-0.5743,0.091,189.375
13:34:59:833,-0.5338,-1.3797,11.4468,35.7981,-1.0099,-0.3636,-0.2507,188.875
13:34:59:851,-1.8901,-2.305,13.6674,37.4297,-1.3699,-0.2757,-0.5529,188.6875
13:34:59:872,-2.43,-3.5823,15.4595,36.2511,-1.5816,-0.0925,-0.5854,188.8125
13:34:59:892,-1.6196,-4.1414,15.663,35.8886,-1.4275,0.1237,-0.3239,189.75
13:34:59:916,-0.3686,-3.3393,15.1195,35.261,-1.1188,0.1682,0.0039,190.5156
13:34:59:936,0.2527,-2.6462,15.1446,37.6776,-0.9462,0.0803,0.0772,190.9219
13:34:59:955,0.3652,-3.0927,15.39,35.3246,-0.8938,0.1072,-0.0885,190.9844
13:34:59:971,0.6118,-3.3968,14.6095,36.1339,-0.8021,0.3387,-0.1758,190.9531
13:34:59:992,1.445,-2.6486,12.8438,35.1988,-0.641,0.5536,-0.0733,191.0781
13:35:00:017,2.8744,-1.4347,11.3127,34.9398,-0.4442,0.4311,0.0692,191.3438
13:35:00:034,4.0248,-0.2759,10.5645,36.2442,-0.2354,-0.003,0.054,191.4844
13:35:00:057,4.2762,0.6028,9.9839,36.3882,-0.0221,-0.3647,-0.2033,191.4375
13:35:00:072,3.3891,0.8829,9.1256,36.5394,0.2719,-0.1277,-1.1767,191.6094
13:35:00:093,2.0436,0.592,7.6903,35.6036,0.2653,0.2652,-1.525,192.3438
13:35:00:116,0.8273,-0.0221,6.2298,36.3363,0.1318,0.6241,-1.6579,193.5938
13:35:00:138,-0.1962,-0.3956,5.0507,36.5221,-0.0583,0.7735,-1.5854,195.3594
13:35:00:153,-0.9983,-0.8793,4.2953,37.4831,-0.1649,0.6353,-1.3122,197.2812
13:35:00:176,-1.7848,-1.0732,3.7746,36.5999,-0.0783,-0.0494,-0.8283,198.2344
13:35:00:200,-2.3678,-0.5596,4.6125,35.4586,0.3254,-1.1852,-0.2778,200.5938
13:35:00:213,-1.7369,-0.1945,6.2993,38.1007,0.8831,-2.0526,0.0258,200.5938
13:35:00:231,-1.021,-0.3346,7.4257,37.8047,1.122,-2.1256,0.1062,201.5469
13:35:00:253,-0.7505,-0.6925,8.405,37.1513,0.8368,-1.3354,0.1946,201.7812
13:35:00:353,-0.3183,-0.72,9.4393,37.1798,0.2655,-0.2648,0.2513,201.6094
13:35:00:354,0.2766,-0.3166,10.9165,36.4377,-0.2155,0.5879,0.1493,201.3281
13:35:00:355,0.5628,-0.1347,12.3614,37.2898,-0.4061,1.0258,-0.0296,200.9844
13:35:00:355,0.4311,-0.3262,13.0078,38.8156,-0.424,1.0127,-0.1407,200.6875
13:35:00:377,0.1881,-0.8086,13.9356,38.3273,-0.3388,0.8652,-0.0925,200.5469
13:35:00:377,0.0743,-1.3414,14.5581,38.828,-0.2056,0.7262,0.1035,200.6406
13:35:00:390,0.3676,-1.315,14.7017,39.9531,-0.0615,0.5363,0.2918,200.875
13:35:00:412,0.9183,-0.7584,14.3605,40.5163,-0.0445,0.2007,0.2937,201.0156
13:35:00:436,1.6318,-0.24,14.9962,40.9154,-0.0855,-0.1197,0.0335,200.9375
13:35:00:453,1.0955,-1.1127,16.8709,41.2987,0.2431,-0.2803,-0.2824,200.625
13:35:00:472,-0.8654,-2.9802,17.3725,42.6711,0.931,-0.2771,-0.1777,200.25
13:35:00:491,-1.5346,-4.3796,14.9675,41.6084,1.4176,-0.1263,0.2993,200.4062
13:35:00:513,-0.3746,-4.4203,11.357,43.153,1.3643,-0.0518,0.6782,200.7031
13:35:00:532,0.692,-3.2029,8.8898,45.6131,0.9593,-0.1745,0.7512,200.5781
13:35:00:552,0.6896,-1.7927,8.2422,44.3805,0.5816,-0.3831,0.6663,199.8906
13:35:00:572,0.5412,-1.3378,8.7976,44.5974,0.4626,-0.4406,0.5944,198.9688
13:35:00:593,0.3748,-1.3952,8.9353,47.1016,0.5891,-0.3362,0.5941,198.1406
13:35:00:618,0.0743,-1.309,7.8639,47.1325,0.7896,-0.1676,0.7097,197.4062
13:35:00:633,0.1282,-1.1941,6.0754,47.4035,0.8706,-0.0358,0.854,196.7031
13:35:00:654,0.1593,-0.9834,4.524,48.0184,0.82,-0.0046,0.9898,196.3438
13:35:00:672,0.2264,-0.7225,3.534,48.2865,0.7036,-0.0957,1.0961,195.5156
13:35:00:692,0.4682,-0.5106,3.1461,49.2702,0.5574,-0.2816,1.1491,194.4688
13:35:00:717,0.6825,-0.3681,3.1293,49.4562,0.3656,-0.4339,1.1595,193.2656
13:35:00:735,0.8165,-0.2879,3.2658,49.8164,0.0746,-0.4987,1.1552,192.0312
13:35:00:754,0.8932,0.0449,4.0643,51.5669,-0.2839,-0.472,1.1142,190.6875
13:35:00:770,1.1996,0.7153,6.0634,52.2637,-0.4972,-0.427,0.9571,188.7031
13:35:00:791,1.4917,1.1175,8.2374,50.1291,-0.4666,-0.4547,0.6133,187.4844
13:35:00:816,1.208,1.218,9.7373,50.7652,-0.3065,-0.4987,0.2316,186.3594
13:35:00:835,0.9327,0.5692,10.1886,50.2667,-0.2607,-0.5144,-0.0453,185.5156
13:35:00:851,0.8189,-0.3406,10.6447,51.9173,-0.3989,-0.4678,-0.1793,185.1094
13:35:00:871,1.2451,-1.2324,12.9025,53.6977,-0.6104,-0.3159,-0.2467,185.0781
13:35:00:892,1.6078,-1.6729,14.0577,55.3424,-0.7747,-0.067,-0.3143,185.2812
13:35:00:918,1.9873,-2.0847,14.0601,52.4589,-0.7995,0.2998,-0.3548,185.6094
13:35:00:934,2.1022,-1.9459,13.0389,56.0282,-0.7068,0.618,-0.3585,186.0156
13:35:00:951,1.9071,-1.6382,12.5206,55.4724,-0.6479,0.6396,-0.3876,186.5156
13:35:00:970,1.4762,-1.8178,13.2377,56.3428,-0.6517,0.4577,-0.4584,187.0312
13:35:00:993,1.3121,-2.6629,13.7835,55.0517,-0.5971,0.4074,-0.484,187.5
13:35:01:018,1.846,-3.392,13.0413,51.7877,-0.3904,0.52,-0.3436,188.0625
13:35:01:036,2.9869,-3.4758,11.4995,55.6087,-0.1387,0.5778,-0.0914,188.7031
13:35:01:053,3.9589,-2.8198,9.6512,55.3398,0.0368,0.491,0.119,189.2656
13:35:01:071,4.2977,-1.8382,8.4241,53.1195,0.0392,0.2878,0.1352,189.5625
13:35:01:093,3.6561,-1.1211,8.1057,55.7955,-0.0961,0.0889,-0.0861,189.4219
13:35:01:116,2.4985,-1.0481,7.962,57.0847,-0.2405,0.0814,-0.4019,189.2812
13:35:01:133,1.4498,-1.1139,7.2438,54.3156,-0.3052,0.3325,-0.5987,189.3906
13:35:01:150,0.6154,-0.8829,6.3603,55.1185,-0.3249,0.6106,-0.6147,189.8594
13:35:01:171,0.1701,-0.4938,5.7642,55.7276,-0.3161,0.7067,-0.5079,190.2188
13:35:01:191,0.1402,-0.0305,5.4936,55.6075,-0.2751,0.5986,-0.3647,190.9688
13:35:01:216,0.3269,0.2759,5.4781,56.3835,-0.2059,0.3893,-0.2592,191.625
13:35:01:235,0.5675,0.4914,5.5618,56.5715,-0.1223,0.1789,-0.2147,192.1719
13:35:01:251,0.6897,0.7763,5.8049,56.4582,-0.0762,0.013,-0.2283,192.5469
13:35:01:272,0.8548,0.9798,6.3567,57.8338,-0.1121,-0.0717,-0.2935,192.8125
13:35:01:291,0.8189,1.0816,7.4449,56.7677,-0.2147,-0.1034,-0.3963,193.0625
13:35:01:317,0.3389,1.2396,9.0119,57.08,-0.3611,-0.0978,-0.5109,193.5469
13:35:01:334,0.2156,1.2121,10.9691,57.6422,-0.4615,-0.0395,-0.5396,193.9844
13:35:01:350,0.3688,0.9092,12.851,57.0855,-0.4165,0.0542,-0.5069,194.5938
13:35:01:370,0.4861,0.5632,14.1941,56.7412,-0.2618,0.2635,-0.485,195.2344
13:35:01:391,0.7088,0.1921,14.746,56.7413,-0.0613,0.5456,-0.4749,195.8125
13:35:01:410,0.8082,-0.4914,14.6335,56.4164,0.123,0.6944,-0.5583,196.4062
13:35:01:431,0.1234,-1.3162,14.5832,58.002,0.1989,0.6407,-0.7258,196.9844
13:35:01:455,-0.7301,-2.0512,14.5293,56.9187,0.1782,0.5576,-0.787,197.6406
13:35:01:475,-1.2269,-1.8824,14.4611,57.7495,0.1686,0.4239,-0.6363,198.4531
13:35:01:490,-1.1311,-1.6227,15.2655,57.8053,0.1244,0.1757,-0.4041,199.375
13:35:01:513,-1.5813,-2.1243,16.1251,58.6118,0.1427,0.108,-0.2709,200.1094
13:35:01:532,-1.9452,-3.1921,15.1315,58.1188,0.5172,0.1341,-0.1095,200.5469
13:35:01:553,-1.2126,-3.8792,12.1076,55.9251,1.0924,0.1701,0.2162,200.9844
13:35:01:577,0.0767,-3.7882,8.958,57.0348,1.2152,-0.2097,0.6591,200.9844
13:35:01:601,0.4347,-2.6546,7.2881,56.5873,0.7353,-0.6531,0.6071,200.4375
13:35:01:612,0.3341,-1.5377,7.9441,58.4964,0.3486,-0.994,0.5121,200.4375
13:35:01:633,0.7244,-1.4694,9.4764,56.8714,0.3452,-1.0462,0.3805,199.2812
13:35:01:653,0.6154,-1.497,9.7122,56.976,0.5862,-0.8305,0.3182,198.0312
13:35:01:670,0.2994,-1.5461,8.5414,56.9388,0.7667,-0.4126,0.3866,198.0312
13:35:01:690,0.0181,-1.4287,6.8583,57.559,0.7963,0.0265,0.5408,197.5938
13:35:01:711,-0.1172,-1.2192,5.2386,56.5096,0.7252,0.25,0.6886,197.2188
13:35:01:735,-0.11,-1.0062,4.0655,57.8291,0.5992,0.198,0.7922,196.7656
13:35:01:752,-0.0801,-0.7608,3.5387,57.3855,0.4642,0.0026,0.8833,196.0781
13:35:01:770,0.3221,-0.5872,3.4777,58.0908,0.3318,-0.1943,0.9265,195.2188
13:35:01:790,0.7603,-0.3286,3.4957,55.8232,0.1502,-0.3964,0.874,194.3125
13:35:01:810,1.0572,0.0509,3.9793,55.9191,-0.0852,-0.6206,0.7331,193.2656
13:35:01:831,1.3397,0.2903,5.3954,56.9167,-0.3001,-0.7644,0.5209,192.2031
13:35:01:850,1.1817,0.434,7.5802,57.4974,-0.4099,-0.6656,0.2734,191.2188
13:35:01:870,0.5592,0.3118,9.2657,58.733,-0.4139,-0.3146,0.0769,190.4688
13:35:01:890,0.0552,0.0425,10.1515,58.2351,-0.4218,0.0588,-0.039,189.7188
13:35:01:912,-0.0047,-0.3597,10.2904,58.291,-0.5151,0.2335,-0.1247,189.6719
13:35:01:934,0.1378,-0.6889,10.3634,59.9911,-0.7798,0.099,-0.236,189.7188
13:35:01:953,0.0743,-0.8817,11.9209,56.9165,-1.0197,-0.0582,-0.3151,189.8438
13:35:01:970,0.1126,-1.5712,14.4096,59.1072,-0.938,0.1211,-0.2757,190.1094
13:35:01:990,0.7148,-2.2571,14.8394,59.37,-0.6895,0.455,-0.1814,190.5156
13:35:02:009,1.1733,-1.9483,13.1862,57.0461,-0.6045,0.5506,-0.1631,190.9844
13:35:02:034,1.4965,-1.4299,11.934,56.6978,-0.7467,0.4827,-0.2912,191.3125
13:35:02:051,1.3995,-1.4156,12.1794,57.7037,-0.9183,0.4971,-0.4406,191.5469
13:35:02:070,1.0488,-2.0045,12.8821,58.6151,-0.8842,0.5424,-0.4485,191.8438
13:35:02:090,1.0117,-2.6091,12.7145,57.3911,-0.6834,0.459,-0.3191,192.3594
13:35:02:110,1.4905,-3.2244,11.7509,57.7811,-0.4812,0.1818,-0.1047,192.6562
13:35:02:134,2.028,-3.5069,10.9799,57.1876,-0.3697,-0.0832,0.1525,193.2188
13:35:02:152,2.4901,-2.9503,10.6004,56.6364,-0.3004,-0.206,0.3118,193.6562
13:35:02:175,2.6804,-2.0009,10.543,56.3008,-0.1649,-0.1431,0.2641,193.8125
13:35:02:189,2.4482,-1.2755,9.9588,56.4209,0.0093,0.124,0.0977,193.6719
13:35:02:210,1.7862,-0.9786,8.5151,56.1169,0.1217,0.4159,-0.007,193.1719
13:35:02:234,1.1158,-0.7871,6.8858,55.5615,0.1348,0.5765,0.0108,192.9531
13:35:02:251,0.6884,-0.4758,5.8851,57.6521,0.1015,0.5786,0.0947,192.9375
13:35:02:271,0.9351,0.4495,5.4254,56.4606,0.1172,0.4798,0.1658,192.9688
13:35:02:290,1.1948,0.8386,5.4637,57.4193,0.168,0.3205,0.1451,192.9219
13:35:02:311,1.2786,1.0193,5.7223,58.422,0.1862,0.1682,0.0378,192.7969
13:35:02:332,1.2559,1.096,6.5159,58.2513,0.1324,0.0425,-0.0912,192.625
13:35:02:350,1.19,1.0469,7.9836,57.0737,0.0517,-0.0582,-0.1878,192.5156
13:35:02:409,1.0607,1.1259,9.7301,57.4765,0.0141,-0.0944,-0.2339,192.5469
13:35:02:409,0.8417,1.3701,11.1296,57.2827,0.0543,0.0002,-0.2786,192.6875
13:35:02:409,0.7555,1.3785,11.8287,56.958,0.1843,0.1267,-0.3809,192.9375
13:35:02:429,0.3521,1.0349,11.8035,57.8745,0.3081,0.2691,-0.5695,193.2188
13:35:02:449,-0.5625,0.3358,11.9101,56.7589,0.2714,0.4284,-0.7239,193.5781
13:35:02:470,-1.185,-0.5585,12.839,58.3607,0.098,0.4857,-0.6957,194.0938
13:35:02:489,-0.4823,-1.0864,14.327,57.4702,-0.0474,0.4034,-0.4355,194.8438
13:35:02:510,0.2204,-0.9092,15.013,56.3659,-0.0107,0.2622,-0.1705,196.0469
13:35:02:531,0.2192,-0.8505,15.1817,56.0186,0.1206,-0.051,-0.1021,196.5625
13:35:02:551,0.1378,-1.327,16.0975,58.3195,0.1814,-0.4462,-0.1593,196.7656
13:35:02:576,-0.6774,-2.4439,16.2556,57.3736,0.3641,-0.5168,-0.2643,196.875
13:35:02:589,-0.9983,-3.2651,13.3789,54.5383,0.9689,-0.3626,-0.1647,197.0312
13:35:02:610,0.1426,-3.1813,9.2789,55.7362,1.4935,-0.2172,0.0942,197.1719
13:35:02:633,0.9075,-2.5361,6.3459,56.4675,1.3846,-0.1825,0.1339,197.4219
13:35:02:652,-0.0562,-1.7771,6.091,56.6948,0.7007,-0.3783,-0.1066,197.4062
13:35:02:670,-0.784,-1.7508,8.5474,55.3946,-0.126,-0.7016,-0.2608,197.1719
13:35:02:692,-0.857,-1.9231,10.9895,58.6225,-0.5545,-0.769,-0.2344,197.0938
13:35:02:710,-1.2197,-1.6718,10.9991,55.4383,-0.359,-0.4957,-0.1186,197.3438
13:35:02:731,-1.2808,-1.503,8.7413,56.4251,0.1574,-0.0957,0.0865,197.6719
13:35:02:752,-1.0797,-1.1355,6.1269,55.9689,0.5406,0.2036,0.3448,197.9375
13:35:02:769,-0.6918,-0.7871,4.19,56.8463,0.6421,0.3181,0.5664,197.9844
13:35:02:791,-0.3722,-0.5668,3.0994,55.1701,0.5324,0.2883,0.6942,197.4688
13:35:02:810,-0.1088,-0.4579,2.9318,56.2985,0.297,0.1219,0.7581,196.7656
13:35:02:834,0.2515,-0.1945,3.6561,56.1321,0.0218,-0.0994,0.7962,195.9375
13:35:02:851,0.8345,0.0736,4.9801,54.6747,-0.1942,-0.3277,0.7877,195.0938
13:35:02:877,1.0093,0.1562,6.4836,55.9369,-0.3185,-0.5357,0.6452,194.1719
13:35:02:889,0.6657,-0.185,7.8759,56.3924,-0.3803,-0.6763,0.4295,193.3125
13:35:02:911,-0.2034,-0.5022,9.4285,56.2739,-0.4312,-0.7346,0.2591,192.6094
13:35:02:934,-0.6403,-0.6039,10.8351,56.4092,-0.4527,-0.6273,0.2213,192.1875
13:35:02:951,-0.5362,-0.726,11.8742,54.8026,-0.4453,-0.4007,0.2253,191.9531
13:35:02:970,-0.116,-0.7979,13.0246,56.6573,-0.5944,0.0617,0.0095,191.75
13:35:02:990,0.2635,-1.1582,14.5509,56.3571,-0.604,0.3118,-0.2224,191.75
13:35:03:011,0.1474,-2.0417,15.6881,55.2761,-0.4258,0.7014,-0.3367,191.5469
13:35:03:033,0.8872,-3.2399,14.6467,57.1848,-0.3065,0.9331,-0.3601,191.4219
13:35:03:051,1.9502,-3.4111,13.1419,56.0971,-0.4394,0.8215,-0.4725,191.7656
13:35:03:069,2.3847,-3.2591,13.5872,57.8215,-0.6357,0.6894,-0.7354,192.2031
13:35:03:090,2.04,-4.0109,15.5062,56.6804,-0.5966,0.9802,-0.8984,192.6562
13:35:03:108,1.5611,-5.4486,15.8797,54.6756,-0.3675,1.6694,-0.7449,193.2344
13:35:03:131,1.5791,-5.9717,13.5429,56.0882,-0.1417,2.2218,-0.2973,194.0938
13:35:03:153,2.8217,-5.0763,10.3838,55.6412,-0.0304,2.1262,0.1507,195.1875
13:35:03:169,5.2147,-2.8808,8.4732,56.0696,0.0714,1.4676,0.2383,196.1094
13:35:03:189,6.905,-0.726,7.5454,53.8508,0.2983,0.6398,-0.2592,196.5156
13:35:03:209,5.4936,0.5237,6.4908,55.7311,0.493,-0.0563,-0.8976,196.4219
13:35:03:234,2.8181,0.5177,5.7031,55.2239,0.4796,-0.2118,-1.1514,196.2031
13:35:03:252,1.3014,-0.0425,5.1261,54.401,0.3409,-0.0347,-1.0925,196.5312
13:35:03:271,0.6071,0.0557,4.6652,54.9977,0.2202,0.1102,-0.9348,197.5312
13:35:03:289,0.4921,0.2855,4.3312,55.1295,0.1643,0.0321,-0.8909,198.8594
13:35:03:310,-0.0166,0.3741,4.2343,55.2423,0.106,-0.2209,-0.9399,201.1562
13:35:03:333,-1.0857,0.0042,4.4414,55.888,-0.0613,-0.4486,-0.9625,202.1719
13:35:03:348,-2.3642,-0.5058,5.7306,54.3605,-0.3039,-0.4017,-0.8563,202.7031
13:35:03:368,-3.5804,-0.8278,7.8914,55.8972,-0.4352,-0.0499,-0.6009,203.8125
13:35:03:389,-4.2041,-0.7572,9.8175,55.408,-0.3728,0.3797,-0.3055,204.7969
13:35:03:410,-4.0281,-0.0054,10.8518,56.866,-0.1521,0.5839,-0.1673,205.6406
13:35:03:433,-3.5421,0.7655,11.1403,54.9038,0.089,0.5762,-0.2427,206.1562
13:35:03:456,-3.5086,1.1738,10.8758,54.9038,0.1731,0.4715,-0.3865,206.3906
13:35:03:471,-3.6666,1.1343,10.9883,54.0966,0.0549,0.4534,-0.4885,206.6094
13:35:03:490,-3.8869,0.75,12.0298,55.5882,-0.0945,0.5871,-0.4954,207
13:35:03:510,-3.7923,0.2628,13.4579,55.9887,-0.1132,0.7941,-0.4115,207.5312
13:35:03:534,-3.1183,-0.009,14.0852,57.123,-0.1241,0.9429,-0.2802,208.0938
13:35:03:551,-1.9595,-0.7141,14.6886,56.0335,-0.2266,0.8716,-0.1149,208.6406
13:35:03:570,-1.4592,-1.0756,16.7069,56.0422,-0.1129,0.434,0.0956,209.0625
13:35:03:589,-0.1112,-1.3844,18.7348,55.1106,0.2011,0.0822,0.1752,209.2969
13:35:03:610,0.3832,-3.1454,19.6649,55.5743,0.78,0.0755,0.1608,209.3438
13:35:03:634,-1.1288,-4.5388,18.0895,55.0281,1.6062,0.3264,0.5917,209.3125
13:35:03:652,-0.5362,-5.4546,13.4603,56.0919,2.355,0.3898,1.1624,209.0625
13:35:03:671,3.3592,-2.5169,3.5806,56.0864,2.5361,0.01,1.3856,208.7656
13:35:03:691,3.832,-0.3502,2.0986,55.0213,1.9955,-0.6353,0.9869,207.9219
13:35:03:710,2.435,0.1024,3.6369,56.4615,0.9465,-1.2854,0.1073,206.6406
13:35:03:735,0.7399,-1.2863,7.1564,54.2397,-0.1388,-1.5474,-0.6845,205.4844
13:35:03:754,-0.9588,-2.5899,10.2916,55.7334,-0.7492,-1.3208,-1.0904,205.0312
13:35:03:769,-2.3965,-2.8617,11.0051,53.739,-0.6647,-0.7303,-1.044,205.5625
13:35:03:788,-2.7915,-2.4211,9.1136,54.3479,-0.1252,-0.1077,-0.6302,206.6719
13:35:03:809,-1.9033,-1.6107,6.4429,53.1106,0.383,0.1514,-0.0733,208.0156
13:35:03:835,-0.7313,-0.7236,4.7802,54.1736,0.5702,0.0628,0.3139,209.0156
13:35:03:853,0.1569,-0.0317,4.3228,54.3057,0.4868,-0.203,0.4085,209.4219
13:35:03:869,0.6154,0.3609,4.7418,53.5113,0.2959,-0.4592,0.3137,209.25
13:35:03:889,0.6884,0.6135,5.5642,52.104,0.1031,-0.6052,0.1176,208.8281
13:35:03:909,0.4825,0.6865,6.3005,51.9838,-0.0397,-0.5796,-0.1061,208.4375
13:35:03:935,0.2862,0.6518,6.8392,53.1212,-0.1486,-0.4355,-0.3005,208.25
13:35:03:952,0.0157,0.7009,7.379,51.4962,-0.2554,-0.2957,-0.4619,208.4062
13:35:03:969,-0.4237,0.5453,8.132,54.8256,-0.3553,-0.2086,-0.6139,208.7812
13:35:03:991,-0.9576,0.4016,8.6983,52.6424,-0.4205,-0.097,-0.7466,209.3125
13:35:04:010,-1.0605,0.1323,9.0322,52.0696,-0.4621,0.0308,-0.823,210.0312
13:35:04:035,-1.203,-0.2185,9.456,53.3181,-0.5321,0.063,-0.8933,210.8906
13:35:04:053,-1.1407,-0.6327,10.5969,50.3499,-0.678,-0.0158,-0.9601,211.7812
13:35:04:069,-1.179,-1.4575,12.8893,50.8172,-0.8892,-0.1314,-1.0249,212.2812
13:35:04:089,-1.2545,-2.3266,15.1506,51.3585,-1.0168,-0.0408,-1.0233,213.3281
13:35:04:111,-0.6296,-2.6474,15.754,50.7853,-0.9366,0.2404,-0.9133,214.4531
13:35:04:135,-0.0777,-2.5588,15.4068,50.6256,-0.8029,0.4287,-0.8653,215.5938
13:35:04:152,-0.3782,-2.9778,16.331,49.8472,-0.832,0.4233,-0.9527,216.6875
13:35:04:170,-1.7094,-3.5344,17.4419,50.36,-0.8368,0.6532,-1.0089,217.6719
13:35:04:189,-1.2461,-3.6518,15.8366,50.3116,-0.4711,1.2881,-0.7034,218.6094
13:35:04:209,1.6785,-2.9766,11.9149,49.5833,0.2863,1.5954,-0.1156,220.2969
13:35:04:235,4.8915,-1.139,8.2673,49.969,0.9438,1.1043,0.2713,221.1094
13:35:04:251,7.33,0.4711,6.5794,48.8458,1.0394,0.2849,0.0868,221.2812
13:35:04:269,6.3424,0.4244,7.798,49.6141,0.5617,-0.1445,-0.7988,221.0469
13:35:04:296,3.6668,-0.6255,8.8838,49.2126,0.229,-0.1815,-1.7687,221.0312
13:35:04:309,0.7615,-1.8477,8.387,48.5877,0.2855,0.043,-2.2795,221.0312
13:35:04:329,-0.8331,-2.3457,6.814,48.5588,0.4405,0.4505,-2.1112,223.9531
13:35:04:350,-0.4356,-1.5724,5.4014,47.7481,0.5113,0.8372,-1.5101,226.5781
13:35:04:370,0.5568,-0.6817,4.3468,46.872,0.7995,0.3022,-1.0334,229.0312
13:35:04:393,0.9841,-0.0078,3.3747,47.061,0.8229,-0.2025,-1.1423,232
13:35:04:408,1.1469,0.2125,2.8708,46.9952,0.5968,-0.5687,-1.3322,232
13:35:04:475,0.7471,0.2328,3.3759,47.6227,0.2221,-0.7655,-1.5439,233.25
13:35:04:475,-0.0801,-0.0006,4.919,46.2489,-0.1595,-0.7956,-1.6946,234.5938
13:35:04:476,-1.2569,-0.4675,7.4138,44.9985,-0.4402,-0.6036,-1.7128,236.2031
13:35:04:488,-2.4994,-0.7883,10.5717,44.3458,-0.4487,-0.2281,-1.5263,238.0156
13:35:04:510,-2.8741,-0.5201,13.489,44.8361,-0.086,0.0843,-1.3527,239.9844
13:35:04:536,-2.9974,-0.258,14.2708,46.2507,0.3971,0.3104,-1.3221,241.8125
13:35:04:555,-3.8115,-0.2149,12.7301,44.5998,0.5518,0.4881,-1.2241,243.5469
13:35:04:568,-4.6554,-0.3274,11.2062,44.8333,0.3433,0.6236,-0.946,245.0781
13:35:04:588,-4.9667,-0.1275,10.8842,43.8566,0.0474,0.63,-0.5588,246.5469
13:35:04:607,-4.2125,-0.0365,11.6347,42.1238,-0.171,0.4705,-0.2139,247.9844
13:35:04:629,-3.0154,-0.1143,12.9504,43.469,-0.2581,0.2196,0.0497,249.0938
13:35:04:652,-2.3426,0.0952,14.1594,43.9498,-0.2711,-0.1429,0.2697,249.7188
13:35:04:668,-1.4232,0.3454,16.1765,43.9045,-0.1553,-0.3916,0.3339,249.9062
13:35:04:691,-0.954,-0.3669,18.1422,41.705,0.2527,-0.2478,0.2311,249.8281
13:35:04:710,-2.0745,-1.6682,17.8549,42.2407,0.8514,0.2295,0.3645,249.4844
13:35:04:729,-2.0553,-2.742,14.6251,42.1537,1.3353,0.6614,0.7083,249.1094
13:35:04:752,-0.4955,-2.7216,10.4341,40.8788,1.5055,0.6758,0.8801,248.875
13:35:04:768,1.3397,-1.8717,7.0606,43.3224,1.3265,0.156,0.6631,248.5469
13:35:04:789,1.8496,-0.6195,5.6157,40.7391,0.8522,-0.5927,0.1608,247.4531
13:35:04:809,1.3588,-0.2987,6.7422,40.1361,0.3305,-1.063,-0.3655,246.6562
13:35:04:828,0.4646,-1.0588,9.1053,40.6609,0.0181,-0.9658,-0.6683,246.3281
13:35:04:851,-0.6487,-1.661,10.9225,40.3805,0.0463,-0.394,-0.6595,246.5781
13:35:04:869,-1.2449,-1.8824,10.7369,38.7273,0.3055,0.2162,-0.4507,247.3438
13:35:04:889,-1.1671,-1.6334,8.9113,40.6084,0.5611,0.5211,-0.1934,248.2031
13:35:04:910,-0.626,-1.1199,6.8272,39.6221,0.6836,0.4782,-0.0081,248.8438
13:35:04:935,-0.0143,-0.5381,5.5164,39.3393,0.7127,0.2236,0.058,249.2188
13:35:04:952,0.4107,0.0437,4.6892,38.3705,0.6543,-0.1306,0.0066,249.3125
13:35:04:971,0.546,0.7943,4.6209,37.6788,0.5073,-0.4925,-0.1111,249.2969
13:35:04:990,0.5041,1.3916,5.4589,36.7233,0.3534,-0.7378,-0.244,249.3281
13:35:05:011,0.2407,1.5485,6.7302,37.8018,0.2344,-0.7064,-0.3436,249.4688
13:35:05:035,-0.2525,1.6035,7.8615,37.0728,0.168,-0.4398,-0.3359,249.8125
13:35:05:052,-0.7744,1.6035,8.6851,35.5658,0.1846,-0.071,-0.2374,250.0312
13:35:05:069,-0.9827,1.7556,8.7007,35.5166,0.2234,0.2321,-0.1244,250.5312
13:35:05:095,-0.4572,2.2751,7.391,35.0018,0.2448,0.3443,-0.0736,251.1562
13:35:05:108,-0.1232,2.3673,7.1169,35.122,0.1862,0.1216,-0.1649,251.3594
13:35:05:129,0.1869,1.8154,7.8878,36.5187,-0.0003,-0.3804,-0.358,251.4375
13:35:05:151,0.0013,0.5812,10.4197,35.8296,-0.3465,-0.9362,-0.6059,251.5312
13:35:05:170,-0.3902,-0.6889,13.8338,34.1478,-0.7526,-1.047,-0.7279,251.8438
13:35:05:188,0.2156,-1.576,15.7216,34.9537,-0.914,-0.5365,-0.6171,252.4531
13:35:05:209,1.5216,-1.6107,14.6143,33.7371,-0.7212,0.1922,-0.4624,253.3594
13:35:05:234,1.8568,-0.9475,12.7373,33.1749,-0.5204,0.5448,-0.5447,254.2031
13:35:05:251,1.1817,-1.0504,12.3171,34.6609,-0.567,0.4782,-0.8901,254.7344
13:35:05:268,-0.3315,-1.9926,13.2149,32.9407,-0.694,0.3434,-1.2613,255.1875
13:35:05:295,-0.9707,-2.797,13.3035,33.5503,-0.628,0.4561,-1.3085,255.875
13:35:05:307,0.2934,-2.5013,11.4887,34.8135,-0.3143,0.6963,-0.998,257.6875
13:35:05:328,2.0903,-1.4347,9.3543,34.7523,-0.0314,0.6279,-0.7279,259.0938
13:35:05:350,2.7786,-0.6961,8.5773,32.491,0.0088,0.1397,-0.8344,260.1562
13:35:05:369,2.0891,-0.7572,8.818,32.6087,-0.0975,-0.3516,-1.215,260.9375
13:35:05:389,1.287,-1.1187,8.4564,33.2684,-0.1771,-0.3522,-1.5332,261.8438
13:35:05:411,0.5556,-1.151,7.2306,30.7263,-0.1726,0.013,-1.639,263.25
13:35:05:436,0.0875,-0.7081,5.6432,32.4791,-0.1678,0.4428,-1.5503,264.0938
13:35:05:451,0.1102,-0.2065,4.5994,32.1704,-0.1902,0.6098,-1.39,265.8438
13:35:05:477,0.3916,0.1862,4.2965,31.9518,-0.1878,0.4209,-1.2962,269.2969
13:35:05:492,0.8165,0.4411,4.767,32.4038,-0.1302,-0.2949,-1.3788,270.7812
13:35:05:517,0.9949,0.483,5.5595,32.4038,-0.1366,-0.4837,-1.5836,272.1406
13:35:05:532,0.558,0.3597,6.504,30.8452,-0.2189,-0.4568,-1.8108,273.625
13:35:05:553,-0.4704,-0.094,7.4844,32.7434,-0.3705,-0.2731,-1.937,275.3125
13:35:05:573,-1.6962,-0.6482,8.6623,31.7773,-0.5678,-0.104,-1.9088,278.2031
13:35:05:591,-2.7041,-0.6949,10.3143,31.8403,-0.6834,-0.1074,-1.7628,280.375
13:35:05:611,-3.0441,-0.6183,12.6918,32.1872,-0.6149,-0.28,-1.5349,282.5
13:35:05:635,-2.7149,-0.3178,15.2703,33.4166,-0.3188,-0.3255,-1.2712,284.3281
13:35:05:653,-2.4312,0.1179,16.7643,30.3854,0.1957,-0.2054,-1.0667,286.0156
13:35:05:671,-2.612,0.3621,16.2567,31.801,0.7428,-0.0574,-0.913,287.4375
13:35:05:690,-2.9795,0.3933,14.0014,32.3222,1.0101,-0.0097,-0.741,288.6094
13:35:05:711,-3.0022,0.3765,11.6623,32.3415,0.8988,-0.1005,-0.5766,289.7188
13:35:05:735,-2.8083,0.489,10.4412,35.1589,0.4735,-0.2611,-0.4725,290.6875
13:35:05:753,-2.0852,0.4016,11.017,31.7374,-0.0778,-0.5479,-0.5117,291.4375
13:35:05:770,-1.4556,-0.5237,13.7871,33.0875,-0.4213,-0.905,-0.6267,291.9844
13:35:05:796,-2.8502,-1.9698,18.1039,34.226,-0.1236,-0.8686,-0.427,292.5625
13:35:05:809,-4.1443,-3.5931,20.1018,34.2999,0.8647,-0.0923,0.2063,292.5625
13:35:05:830,-3.7648,-4.1653,15.8138,35.0984,1.6943,0.6297,0.9305,293.2344
13:35:05:853,-2.3737,-3.2938,9.3722,34.7973,1.8019,0.7179,1.4026,293.6875
13:35:05:871,-0.8534,-2.0417,5.3536,37.5958,1.396,0.2332,1.5126,293.5156
13:35:05:888,-0.0526,-1.0205,4.2343,37.1164,0.8248,-0.4001,1.4146,292.5781
13:35:05:908,0.1988,-0.5058,5.5164,37.1705,0.4248,-0.8537,1.3067,291.0938
13:35:05:928,0.5699,-0.1718,7.3623,36.612,0.3649,-1.0859,1.1651,289.5625
13:35:05:952,0.9841,0.0186,8.1272,37.176,0.4842,-1.0832,0.9464,288.0312
13:35:05:969,1.0404,-0.1622,7.8914,38.2555,0.5398,-0.892,0.728,286.625
13:35:05:988,0.7806,-0.4088,7.4521,39.002,0.4858,-0.5482,0.5896,285.4688
13:35:06:007,0.4873,-0.6063,7.0163,39.0544,0.3678,-0.1695,0.5131,284.5
13:35:06:028,-0.0562,-0.7667,6.6237,39.7712,0.2815,0.1352,0.5113,283.7656
13:35:06:052,-0.3961,-0.8457,6.1664,39.0144,0.2573,0.2569,0.5717,283.1875
13:35:06:069,-0.189,-0.9296,5.5894,41.5276,0.2189,0.2239,0.6298,282.625
13:35:06:088,0.1354,-0.8158,5.1584,40.5839,0.1084,0.0896,0.6441,282.0312
13:35:06:107,0.4873,-0.6231,5.3272,38.7691,-0.0538,-0.121,0.5781,281.3594
13:35:06:127,0.7878,-0.4208,6.2215,40.2948,-0.2003,-0.3327,0.4194,280.2812
13:35:06:152,0.9638,-0.513,7.5466,42.1539,-0.3329,-0.403,0.1957,279.5625
13:35:06:169,0.9434,-1.1426,8.9006,42.0859,-0.5444,-0.2257,-0.0115,279
13:35:06:189,0.777,-1.8884,10.0773,42.4589,-0.8703,0.0835,-0.1319,278.7031
13:35:06:211,0.7734,-2.463,11.5581,43.1463,-1.1508,0.4303,-0.1902,278.6406
13:35:06:235,0.7244,-2.9108,13.2089,43.3892,-1.1971,0.7168,-0.1521,278.6875
13:35:06:251,0.7687,-3.1322,14.1259,44.8725,-0.9739,0.9557,0.0356,278.8125
13:35:06:270,1.5863,-3.2328,12.9851,42.4485,-0.7252,0.9666,0.2719,278.9688
13:35:06:288,2.7415,-2.5971,10.604,44.6429,-0.7963,0.532,0.3448,279.0625
13:35:06:308,3.674,-1.4682,9.6739,43.4435,-1.1255,-0.1418,0.1161,278.9375
13:35:06:328,3.6884,-1.005,11.1451,44.1591,-1.4051,-0.5461,-0.3111,278.5625
13:35:06:353,2.7439,-1.6299,13.4675,44.7567,-1.4131,-0.4302,-0.57,277.9531
13:35:06:370,1.6677,-2.2918,14.594,43.7886,-1.1577,-0.0733,-0.5013,278.0156
13:35:06:388,1.5013,-2.2727,14.2085,43.3988,-0.7515,0.1118,-0.2656,278.4844
13:35:06:408,2.3213,-1.6394,12.918,44.4702,-0.3726,0.0617,-0.17,279.0938
13:35:06:428,2.8313,-0.6375,11.5031,45.2191,-0.1167,-0.0464,-0.3322,279.5
13:35:06:453,2.4506,0.0772,10.2126,43.3926,0.0226,0.0486,-0.6097,279.6719
13:35:06:469,1.6761,0.1514,8.6216,44.8267,0.0668,0.2625,-0.815,279.9375
13:35:06:556,0.2743,0.0509,5.8539,46.836,0.0905,0.4241,-0.864,280.4688
13:35:06:556,-0.0885,0.2053,4.937,46.2309,0.1228,0.3919,-0.8041,281.2656
13:35:06:556,-0.1651,0.4483,4.664,47.1076,0.1526,0.1658,-0.7034,282.25
13:35:06:557,0.0229,0.6099,4.9082,46.4707,0.1715,-0.1016,-0.6264,283.2344
13:35:06:574,0.06,0.5022,5.5175,49.2445,0.1446,-0.243,-0.6296,284.125
13:35:06:588,-0.0143,0.3645,6.1173,47.2764,0.0618,-0.2049,-0.6747,284.8438
13:35:06:608,-0.189,0.1861,7.0127,46.8896,-0.0618,-0.1013,-0.7106,285.5625
13:35:06:629,-0.7241,-0.0413,8.7078,47.162,-0.2274,-0.0099,-0.7292,286.6875
13:35:06:652,-1.1515,-0.1993,10.9141,47.5736,-0.338,0.0793,-0.6701,287.4531
13:35:06:669,-1.4149,-0.3885,12.0681,47.7296,-0.241,0.1815,-0.5575,288.2812
13:35:06:688,-1.6758,-0.6398,11.9196,48.4254,-0.0221,0.2273,-0.4507,289.0469
13:35:06:708,-1.6076,-0.8158,12.0693,47.9194,0.0775,0.177,-0.2904,289.375
13:35:06:727,-0.948,-1.0074,12.9192,49.4677,0.0298,0.1275,-0.0656,289.9219
13:35:06:750,-0.3207,-1.1618,13.9619,49.9215,-0.0141,0.0971,0.0828,290.375
13:35:06:770,0.3413,-1.2408,14.5724,49.8873,0.0133,0.0998,0.1347,290.5781
13:35:06:789,0.3449,-1.3701,14.5569,50.4425,0.0514,0.1536,0.0764,290.5625
13:35:06:809,-0.286,-1.795,15.0848,49.854,-0.0152,0.1725,-0.0464,290.4219
13:35:06:828,-0.9899,-2.5744,16.2448,50.048,-0.0863,0.16,-0.0485,290.2969
13:35:06:852,-1.1778,-3.2232,16.6458,51.3518,0.0754,0.2108,0.1736,290.2969
13:35:06:869,-0.4488,-3.2196,14.6395,51.4553,0.576,0.3349,0.5834,290.375
13:35:06:896,1.2343,-2.8174,10.9895,50.6008,1.1452,0.409,0.9611,290.3438
13:35:06:906,2.1992,-2.1374,7.9585,50.8192,1.3912,0.2042,1.0474,289.625
13:35:06:928,1.8628,-1.3581,6.7171,51.0811,1.2296,-0.2459,0.8428,288.6094
13:35:06:954,0.607,-1.0768,7.5993,50.9616,0.7998,-0.6776,0.5299,287.5156
13:35:06:971,-0.2525,-1.2659,8.8383,49.4315,0.4269,-0.7815,0.3334,286.6406
13:35:06:987,-0.6643,-1.4503,8.8826,50.055,0.3462,-0.5692,0.3275,286.125
13:35:07:008,-0.8486,-1.3988,7.9956,48.6905,0.4927,-0.3413,0.4572,285.7812
13:35:07:028,-0.8115,-1.1761,6.5985,50.7166,0.7177,-0.259,0.6783,285.4375
13:35:07:052,-0.4943,-0.8733,5.4421,50.3258,0.8658,-0.3226,0.9014,284.9688
13:35:07:070,-0.0226,-0.7045,4.9034,50.8407,0.8986,-0.4837,1.0572,284.2344
13:35:07:087,0.4275,-0.6446,4.925,50.6675,0.8488,-0.6616,1.1289,283.25
13:35:07:108,0.8489,-0.7236,5.3416,49.4644,0.7619,-0.794,1.1307,282.1562
13:35:07:128,0.947,-0.9463,6.1688,48.6381,0.6264,-0.83,1.0671,280.9219
13:35:07:153,1.111,-1.0756,7.0091,51.3603,0.4447,-0.6741,0.9992,279.7031
13:35:07:169,1.6006,-1.0038,7.6927,51.0112,0.1372,-0.223,0.7672,278.5625
13:35:07:189,2.0244,-0.9296,8.2541,50.1767,0.0479,-0.1136,0.5331,278.5625
13:35:07:211,2.3848,-0.9319,8.5785,47.8758,-0.0383,-0.0939,0.2356,277
13:35:07:233,2.5116,-1.2623,8.7868,49.0557,-0.183,-0.1413,-0.0714,275.0781
13:35:07:248,2.259,-1.8046,9.4213,51.4012,-0.3822,-0.0933,-0.2848,275.0781
13:35:07:270,2.0424,-2.3062,10.2617,48.355,-0.5899,0.1086,-0.3937,274.8281
13:35:07:288,1.7263,-2.5157,11.102,49.6597,-0.7342,0.3916,-0.4089,274.9219
13:35:07:310,2.0244,-2.5564,11.1655,50.096,-0.8458,0.4966,-0.4352,275.25
13:35:07:337,2.3045,-2.0847,10.8734,50.7734,-1.0661,0.2625,-0.5721,275.7031
13:35:07:356,2.18,-1.4958,11.7185,50.532,-1.3417,-0.1498,-0.8182,276.1719
13:35:07:373,1.1422,-1.7424,14.5449,48.9326,-1.2924,-0.08,-0.9303,276.6406
13:35:07:387,-0.3159,-2.572,16.1131,49.5032,-0.8346,0.4702,-0.664,277.2656
13:35:07:406,-0.5709,-2.7887,14.3474,50.0781,-0.2975,0.805,-0.1274,278.2344
13:35:07:428,0.7603,-2.1506,11.1212,47.8513,0.0154,0.5951,0.2812,279.3125
13:35:07:453,2.5894,-1.0325,8.6228,49.0612,0.0003,0.0311,0.3182,280.0469
13:35:07:469,3.8644,-0.015,7.8016,47.746,-0.2613,-0.4798,0.025,280.0469
13:35:07:492,4.0846,0.5321,8.6743,49.0502,-0.5175,-0.5002,-0.4328,279.6406
13:35:07:507,3.3221,0.3442,9.6057,48.5402,-0.6599,0.0292,-0.8004,279.4062
13:35:07:527,1.9658,-0.1143,9.6176,48.1283,-0.6224,0.7304,-0.905,279.6562
13:35:07:550,0.807,-0.313,8.5378,48.8314,-0.432,1.0918,-0.7652,280.3906
13:35:07:569,0.3964,-0.0868,7.2522,48.0594,-0.1619,1.0348,-0.5513,281.3594
13:35:07:588,0.7112,0.2556,5.9557,48.0594,0.0535,0.6516,-0.4267,282.3438
13:35:07:607,1.3433,0.7009,5.15,46.0515,0.0905,0.2324,-0.4685,283.0938
13:35:07:628,1.6138,0.993,5.1488,47.873,-0.0384,0.0095,-0.631,283.3906
13:35:07:652,1.2702,1.096,6.0682,47.3104,-0.2141,-0.0177,-0.77,283.875
13:35:07:672,0.5604,0.8422,7.5658,47.0661,-0.3425,0.1695,-0.7937,284.4062
13:35:07:687,-0.2573,0.7177,9.2453,47.034,-0.3851,0.4588,-0.6946,285.125
13:35:07:707,-1.015,0.6722,10.6711,47.0264,-0.2927,0.7701,-0.4997,286
13:35:07:728,-1.2796,0.6446,10.9716,47.8812,-0.1233,0.8031,-0.2808,287.6406
13:35:07:752,-1.3323,0.6961,10.7417,48.1966,-0.0392,0.4108,-0.0983,287.9688
13:35:07:771,-0.7277,0.5106,11.5078,46.5323,-0.0778,-0.1458,0.0005,288.5469
13:35:07:787,0.3353,0.1383,13.9092,46.9318,-0.1004,-0.4587,-0.0672,288.6406
13:35:07:807,0.5209,-0.5704,16.3585,47.1317,0.02,-0.2579,-0.2469,288.6719
13:35:07:828,-0.4931,-1.3844,16.7643,46.4905,0.0365,0.2564,-0.3364,288.6562
13:35:07:851,-2.2887,-2.3768,16.4447,46.4363,-0.0842,0.6753,-0.2256,288.8125
13:35:07:869,-5.2109,-3.1981,17.0013,45.8373,0.0708,0.6984,0.2684,289.1719
13:35:07:888,-5.6263,-4.5472,15.8461,45.7988,0.6647,0.4604,0.9637,289.5625
13:35:07:908,-3.2309,-4.7004,12.5374,46.9436,1.3534,0.2873,1.6146,289.6094
13:35:07:930,-0.9743,-3.8421,9.201,46.522,1.6472,0.263,2.0285,288.9531
13:35:07:952,0.4945,-2.8401,7.6077,46.7315,1.4413,0.12,2.0716,287.5625
13:35:07:969,0.8979,-2.1243,8.1823,43.7966,0.9494,-0.1178,1.7965,285.5469
13:35:07:986,0.953,-1.8334,9.3363,45.7921,0.5417,-0.2305,1.4471,283.3906
13:35:08:007,1.038,-1.6945,9.0777,45.457,0.5129,-0.1548,1.1627,281.25
13:35:08:029,1.05,-1.6011,7.4868,46.5883,0.7436,-0.0387,0.964,278.7969
13:35:08:051,1.1541,-1.6119,5.7881,48.0558,0.9473,0.0167,0.8407,277.5156
13:35:08:070,1.2128,-1.637,4.2558,46.495,0.9982,0.0731,0.7981,276.4688
13:35:08:087,1.1793,-1.4204,3.3221,44.4534,0.8623,0.144,0.8151,275.5625
13:35:08:113,1.293,-1.0002,2.9486,46.5281,0.559,0.2851,0.8657,275.1875
13:35:08:126,1.2128,-0.6183,3.4155,46.4475,0.1776,0.3845,0.8841,274.3281
13:35:08:147,1.1721,-0.2616,4.2893,47.4178,-0.1057,0.3778,0.882,273.4062
13:35:08:169,1.451,0.2628,5.1668,46.0239,-0.2498,0.2652,0.8639,272.375
13:35:08:190,1.4223,0.8182,5.9102,46.3994,-0.3651,0.1514,0.7289,271.375
13:35:08:216,0.789,1.1582,7.2665,46.0302,-0.436,-0.1061,0.4852,269.3281
13:35:08:233,0.285,0.8697,8.7246,45.66,-0.179,-0.7232,0.0537,268.625
13:35:08:251,-0.0119,0.513,9.1938,45.6476,-0.1673,-0.6699,-0.04,268.2188
13:35:08:272,-0.0166,0.325,9.4512,46.991,-0.4048,-0.5378,-0.1045,268.1094
13:35:08:303,0.1988,0.1885,10.361,46.3304,-0.7878,-0.4446,-0.2448,268.1875
13:35:08:320,-0.0765,-0.2161,12.505,45.4913,-1.1334,-0.3,-0.3705,268.3906
13:35:08:332,-0.7146,-0.8924,15.323,42.6089,-1.1827,0.0838,-0.3132,268.6719
13:35:08:353,-0.3255,-1.74,16.5345,46.0602,-0.9723,0.5765,-0.1463,269.0625
13:35:08:370,0.2922,-1.746,15.2093,44.4298,-0.8269,0.8055,-0.0501,269.3594
13:35:08:390,0.4682,-1.0888,14.0732,43.213,-0.7912,0.6273,-0.1202,269.4531
13:35:08:413,0.3892,-1.0924,14.5557,44.934,-0.6195,0.4188,-0.2935,269.4219
13:35:08:436,-0.3758,-1.6155,15.2284,45.9052,-0.2306,0.5088,-0.3236,269.4844
13:35:08:449,-0.4775,-2.3613,14.1942,43.3618,0.2312,0.7786,-0.1407,269.7656
13:35:08:472,0.8261,-2.4295,11.4767,44.0491,0.5143,0.7938,-0.0003,270.1094
13:35:08:489,2.4877,-1.8848,8.8132,43.8562,0.5289,0.3581,-0.1276,270.2656
13:35:08:509,2.9749,-0.9415,7.6448,42.1311,0.3718,-0.2273,-0.4792,270.2812
13:35:08:530,2.4805,-0.6853,8.2733,42.6231,0.2679,-0.4353,-0.8366,270.4688
13:35:08:552,1.6665,-1.0995,8.7773,43.1624,0.3153,-0.1335,-1.0195,271.0312
13:35:08:625,0.862,-1.2169,7.7466,42.8148,0.3419,0.4231,-1.0137,271.4844
13:35:08:625,0.5328,-0.8374,5.903,42.4709,0.2415,0.773,-0.9554,271.4844
13:35:08:626,0.5292,-0.2831,4.5623,41.4201,0.0844,0.773,-0.9495,273.2344
13:35:08:639,0.3868,0.1119,4.178,43.0263,-0.0197,0.4657,-0.9745,274.4062
13:35:08:654,0.1234,0.3394,4.5695,42.336,-0.0557,0.1035,-1.0211,276.4844
13:35:08:670,-0.2597,0.2424,5.2722,41.9849,-0.0775,-0.0944,-1.0446,276.4844
13:35:08:686,-0.9169,0.0365,6.0802,41.0688,-0.1385,-0.1069,-0.9876,277.5781
13:35:08:706,-1.6495,0.0281,6.9732,40.6375,-0.2088,-0.0627,-0.8443,278.6875
13:35:08:727,-2.0541,0.1634,8.0865,40.3458,-0.2024,-0.0936,-0.7069,279.875
13:35:08:752,-2.2756,0.2975,9.2561,41.0257,-0.118,-0.1735,-0.5977,280.9844
13:35:08:773,-2.2469,0.4088,10.1252,39.9354,-0.0527,-0.1705,-0.53,281.9375
13:35:08:788,-2.3007,0.5142,10.7106,38.8772,-0.0634,-0.019,-0.5098,282.6719
13:35:08:806,-2.6156,0.5297,11.0697,38.6325,-0.1459,0.1472,-0.4802,283.3594
13:35:08:827,-2.9531,0.4076,11.6515,40.465,-0.2397,0.2377,-0.415,283.9531
13:35:08:851,-3.2141,0.0664,12.7002,39.3697,-0.2671,0.2585,-0.2991,284.5
13:35:08:868,-2.9735,-0.2256,13.6543,38.8206,-0.2285,0.3006,-0.1593,285.4844
13:35:08:887,-2.1906,-0.2233,13.9571,38.9931,-0.1982,0.2715,-0.1223,285.7656
13:35:08:908,-1.8973,0.0353,14.0301,36.7587,-0.2248,0.092,-0.1764,285.8594
13:35:08:927,-2.0745,-0.0569,14.7711,38.1906,-0.2211,-0.018,-0.2392,286.1094
13:35:08:951,-2.8478,-0.9415,15.7528,39.3658,0.0173,0.0596,-0.1561,286.1094
13:35:08:972,-3.6989,-2.0213,15.4104,38.6662,0.4882,0.2446,0.2087,286.3125
13:35:08:988,-3.3649,-2.6522,13.1191,37.7702,0.9382,0.3706,0.6596,286.5469
13:35:09:007,-2.0541,-2.6929,9.7254,38.3244,1.0948,0.1432,0.9235,286.5938
13:35:09:027,-0.8427,-2.2523,7.1145,40.1315,0.8506,-0.3884,0.9475,286.1875
13:35:09:051,-0.6236,-1.2803,6.7254,38.2055,0.3872,-0.8331,0.8314,285.4219
13:35:09:071,-0.4476,-0.8505,8.5558,39.3336,0.0573,-0.8957,0.6585,284.4688
13:35:09:086,-0.4644,-1.2731,10.5957,39.8556,0.0676,-0.5253,0.5328,284
13:35:09:107,-1.2161,-1.4635,10.7788,39.3247,0.3015,0.0119,0.5992,283.1406
13:35:09:128,-1.4975,-1.418,8.9197,38.2046,0.4964,0.3203,0.7717,282.4844
13:35:09:152,-1.2569,-1.1857,6.917,37.8095,0.5622,0.2921,0.9288,281.9062
13:35:09:170,-0.7517,-0.9068,5.4649,39.7727,0.5007,0.0851,0.9888,281.25
13:35:09:187,-0.4883,-0.6291,4.8496,40.2369,0.3686,-0.1543,0.9904,280.4375
13:35:09:208,-0.3147,-0.5549,5.022,39.2616,0.2642,-0.3607,0.9765,278.875
13:35:09:227,-0.0969,-0.5345,5.6073,39.783,0.212,-0.4576,0.944,277.7969
13:35:09:251,-0.0166,-0.4016,6.1628,39.5688,0.1795,-0.4254,0.8865,276.7812
13:35:09:271,0.1162,-0.1598,6.2801,40.0748,0.098,-0.354,0.7826,275.75
13:35:09:287,0.1366,0.4794,7.0499,41.3396,-0.0179,-0.2789,0.6436,274.75
13:35:09:308,-0.019,0.6399,7.4233,39.725,-0.1172,-0.2273,0.4657,273.8906
13:35:09:327,-0.541,0.4328,8.0434,40.1992,-0.2189,-0.2488,0.2519,273.0938
13:35:09:352,-0.9205,-0.0449,9.3746,40.2556,-0.355,-0.3674,0.0923,272.4844
13:35:09:373,-1.039,-0.5896,11.3786,39.5004,-0.5087,-0.488,0.0087,272.0938
13:35:09:387,-1.0258,-0.9762,13.5166,41.5884,-0.6269,-0.5202,-0.0235,271.9062
13:35:09:410,-0.5757,-1.4084,14.8909,41.098,-0.6514,-0.3583,-0.0118,271.875
13:35:09:426,0.3018,-1.6741,14.4228,40.4633,-0.5356,0.0489,0.0535,271.9219
13:35:09:447,0.9722,-1.0923,12.9133,42.2334,-0.4261,0.4561,0.1027,271.9219
13:35:09:469,1.0236,-0.5644,12.3147,39.8021,-0.445,0.5267,0.0034,271.8281
13:35:09:488,0.5029,-0.744,13.0569,40.1573,-0.5166,0.2782,-0.2541,271.6562
13:35:09:507,-0.5901,-1.2815,13.9667,40.4388,-0.5033,0.1765,-0.4525,271.5938
13:35:09:527,-0.9851,-1.7747,13.4807,40.3386,-0.2937,0.3959,-0.3969,271.6719
13:35:09:546,0.1773,-1.7017,11.3762,41.7364,0.0306,0.719,-0.105,272.0625
13:35:09:571,1.6904,-1.1319,9.1484,41.4057,0.261,0.7195,0.1435,272.5469
13:35:09:588,2.5906,-0.5369,8.1967,43.1656,0.2698,0.2982,0.1358,272.7969
13:35:09:606,2.4697,-0.2065,9.055,43.1656,0.0916,-0.2853,-0.1093,272.7188
13:35:09:627,1.6856,-0.4734,9.7469,41.8299,-0.0272,-0.4579,-0.4235,272.5312
13:35:09:651,0.9027,-0.6279,8.8539,43.2571,0.0519,-0.1394,-0.6139,272.5
13:35:09:670,0.455,-0.3813,6.8236,40.5833,0.1771,0.3823,-0.6414,272.8438
13:35:09:687,0.2156,0.0629,5.2003,43.2985,0.1718,0.7259,-0.6118,273.4688
13:35:09:706,0.0755,0.3071,4.2438,42.5929,0.0775,0.781,-0.583,274.1719
13:35:09:727,-0.1759,0.6877,4.0547,42.6016,-0.0149,0.593,-0.5404,275.2188
13:35:09:751,-0.3303,1.1762,4.852,43.749,-0.0783,0.2225,-0.5031,275.8438
13:35:09:768,-0.2668,1.2995,6.1712,43.1312,-0.0732,-0.1034,-0.5213,276.4219
13:35:09:787,-0.2944,1.254,7.2402,43.631,-0.0352,-0.276,-0.619,276.9688
13:35:09:806,-0.4057,1.3833,8.472,43.7701,-0.0714,-0.2563,-0.7101,277.5625
13:35:09:826,-0.9719,1.5844,10.0677,43.8399,-0.1806,-0.0789,-0.8102,278.2812
13:35:09:846,-1.8111,1.2324,11.8382,44.1076,-0.2647,0.1626,-0.929,279.0469
13:35:09:869,-2.7867,0.7177,13.2736,44.6056,-0.2607,0.4249,-0.9521,279.9688
13:35:09:886,-3.0884,0.4783,13.4663,44.4999,-0.1169,0.728,-0.8067,281
13:35:09:906,-2.7101,0.2747,12.912,45.096,0.11,0.8236,-0.6009,281.9844
13:35:09:928,-2.2492,0.0569,12.4631,43.8964,0.2866,0.6391,-0.4603,282.875
13:35:09:952,-2.0457,0.0054,12.1794,45.0269,0.3276,0.4454,-0.4065,283.5625
13:35:09:972,-2.1906,-0.0042,11.6994,43.5452,0.2557,0.397,-0.4376,284.0781
13:35:09:997,-2.7496,-0.0856,11.7317,45.6296,-0.1505,0.173,-0.5599,284.3438
13:35:10:006,-3.7205,-0.5309,12.8678,46.0481,-0.2266,-0.0803,-0.4869,284.8438
13:35:10:027,-5.2085,-1.3605,14.5269,46.3987,-0.0123,-0.1303,-0.1572,285.7031
13:35:10:048,-5.8513,-2.4606,14.9304,47.0548,0.4392,0.1216,0.4303,286.8125
13:35:10:069,-4.6817,-2.9682,12.4595,45.2305,0.7507,0.2707,0.9645,286.9844
13:35:10:087,-2.8993,-2.3673,9.395,45.334,0.678,0.0534,1.1629,286.9844
13:35:10:109,-1.6782,-1.5101,7.8854,46.5094,0.3465,-0.3538,1.0575,286.5938
13:35:10:126,-1.847,-0.9535,8.8563,46.5721,0.126,-0.5847,0.9411,285.6094
13:35:10:146,-1.9452,-1.2073,10.3503,46.2708,0.233,-0.4651,0.9185,284.3906
13:35:10:170,-2.187,-1.3629,10.0953,46.5506,0.4394,-0.0997,1.0149,283.25
13:35:10:191,-2.1056,-1.1929,8.2876,47.5094,0.538,0.1823,1.176,282.2812
13:35:10:205,-1.677,-0.744,6.887,45.0173,0.5926,0.1786,1.2641,281.2969
13:35:10:225,-1.2365,-0.3107,6.7434,47.2444,0.7292,0.0233,1.2516,280.2031
13:35:10:246,-0.5961,-0.4411,6.4597,47.9948,0.7928,-0.0265,1.1605,278.9844
13:35:10:270,-0.7445,-0.8242,5.8803,48.2815,0.6613,0.0867,1.1789,276.2812
13:35:10:287,-1.1491,-0.9535,5.7821,48.2321,0.5497,0.1874,1.3406,275.125
13:35:10:305,-0.8881,-0.6542,5.5594,46.4585,0.5489,0.1112,1.4562,274.5156
13:35:10:326,-0.3123,-0.1526,5.0806,47.5007,0.5148,-0.0691,1.4388,273.1406
13:35:10:346,0.2276,0.4352,4.7191,48.6998,0.3438,-0.2108,1.2964,271.5781
13:35:10:370,0.7375,1.0792,4.8975,47.4259,0.0469,-0.2837,1.0229,270.0469
13:35:10:385,0.9279,1.4587,5.5439,48.0326,-0.3004,-0.3125,0.6535,268.5469
13:35:10:406,0.6537,1.6191,6.9672,49.0383,-0.5992,-0.2891,0.2676,267.2656
13:35:10:426,0.224,1.2097,8.7964,48.7654,-0.7934,-0.2254,-0.0435,266.3438
13:35:10:447,-0.4859,0.6099,10.6172,49.4942,-0.89,-0.1263,-0.2059,265.8438
13:35:10:467,-0.8917,0.0497,11.9687,49.7206,-0.9337,-0.0709,-0.2464,265.7031
13:35:10:486,-0.8881,-0.2544,12.9767,49.7436,-0.9414,-0.0166,-0.2272,265.7344
13:35:10:506,-0.1747,-0.3358,13.5728,49.4414,-0.9068,0.0146,-0.2874,265.875
13:35:10:525,0.4538,-0.082,13.7716,50.4263,-0.8895,0.0553,-0.5183,266.0781
13:35:10:546,0.4287,-0.1359,13.9475,49.4292,-0.8637,0.1677,-0.8134,266.2344
13:35:10:568,-0.4512,-0.4806,14.0325,49.702,-0.7939,0.4313,-0.9785,266.4688
13:35:10:586,-1.2401,-0.9726,13.7512,51.4077,-0.6019,0.7208,-0.9135,266.9375
13:35:10:607,-0.9947,-1.2612,12.3674,51.5447,-0.3454,0.8162,-0.7348,268.25
13:35:10:674,0.1593,-1.3066,10.1048,48.8261,-0.2075,0.5048,-0.6326,269.2344
13:35:10:674,1.4558,-1.2396,8.5402,49.1798,-0.2509,-0.1074,-0.7141,270.0312
13:35:10:674,2.1573,-0.9882,8.3547,50.4696,-0.3643,-0.7591,-0.9721,270.7188
13:35:10:687,1.366,-1.5568,9.6045,50.7009,-0.4138,-1.019,-1.2624,271.4062
13:35:10:706,0.2479,-1.4587,9.0861,50.5039,-0.4099,-0.7154,-1.4038,272.2812
13:35:10:725,-0.4081,-0.9547,8.2793,51.2566,-0.3483,-0.1642,-1.3324,273.5625
13:35:10:747,-0.3758,-0.5333,6.8308,50.8911,-0.1968,0.295,-1.2065,275.1094
13:35:10:766,-0.292,-0.0772,5.4864,52.7963,-0.0692,0.4614,-1.1412,276.5938
13:35:10:784,-0.2597,0.3741,4.8436,49.3963,-0.089,0.4303,-1.1135,278
13:35:10:804,-0.183,0.5333,4.9956,52.743,-0.1947,0.3102,-1.1458,279.3125
13:35:10:824,-0.5769,0.4519,5.7211,51.7939,-0.302,0.1733,-1.2624,280.5781
13:35:10:844,-1.5238,0.2053,6.7745,50.6808,-0.4088,0.1136,-1.3852,281.7812
13:35:10:871,-2.8179,-0.0497,8.5103,51.813,-0.5199,0.1221,-1.4211,283.125
13:35:10:889,-4.0581,-0.2472,10.5454,52.8912,-0.5617,0.1698,-1.3255,284.5938
13:35:10:908,-4.7895,-0.6279,12.2141,51.0472,-0.44,0.2601,-1.0898,286.8594
13:35:10:926,-5.2109,-1.1031,12.7014,51.9177,-0.1617,0.3714,-0.7902,288.2969
13:35:10:947,-5.3605,-1.0983,12.4967,53.1385,0.0562,0.5509,-0.4525,289.5
13:35:10:970,-5.0074,-0.7643,12.3961,53.0032,0.0655,0.7107,-0.1596,290.3438
13:35:10:988,-4.8541,-0.7691,13.0354,52.2932,-0.0365,0.6417,-0.065,290.6562
13:35:11:007,-5.0325,-1.2863,14.5126,53.5031,-0.1033,0.4518,-0.0794,291.0312
13:35:11:025,-5.169,-1.7675,14.7173,52.4292,0.0125,0.4204,0.0519,291.1562
13:35:11:046,-4.7332,-1.248,13.8925,53.6234,0.2045,0.4931,0.4271,291.25
13:35:11:069,-3.0286,-0.7632,13.6124,53.8666,0.2828,0.4774,0.8774,291.3125
13:35:11:087,-1.7213,-0.8086,13.355,53.4867,0.3896,0.341,1.0285,291.1094
13:35:11:105,-1.2209,-1.4742,12.1375,52.0333,0.6466,0.1408,0.9235,290.4531
13:35:11:125,-1.0342,-2.3349,10.1599,52.2451,0.9095,0.0255,0.8133,289.3906
13:35:11:146,-0.9648,-2.73,8.3499,52.4293,1.0091,-0.1261,0.7408,288.3594
13:35:11:169,-1.2138,-2.4056,7.3982,53.0446,0.8788,-0.3905,0.6588,287.2031
13:35:11:191,-1.4927,-1.9531,7.8926,51.0272,0.5446,-0.6664,0.5573,286.5469
13:35:11:206,-1.5274,-2.0536,9.5159,52.3341,0.1537,-0.7668,0.4404,285.9688
13:35:11:225,-2.187,-2.4271,10.6088,52.4366,-0.0328,-0.5628,0.3299,285.4531
13:35:11:246,-2.8191,-2.4223,9.7984,51.4807,0.1132,-0.1791,0.4106,285.0312
13:35:11:269,-2.4899,-2.1075,7.9812,50.2712,0.3835,0.1877,0.7171,284.6562
13:35:11:287,-1.9967,-1.8513,6.6249,51.8792,0.5593,0.3634,1.0271,284.2188
13:35:11:306,-1.4735,-1.5101,5.5068,52.5089,0.6543,0.4239,1.2748,283.4844
13:35:11:330,-0.772,-1.0241,4.5814,51.1033,0.6682,0.3882,1.4439,282.3906
13:35:11:356,-0.0861,-0.5585,4.0451,51.7709,0.6024,0.2596,1.4841,281.7188
13:35:11:373,0.4023,-0.0521,4.2139,52.2211,0.4682,0.0369,1.3898,280.25
13:35:11:388,0.7938,0.246,4.7514,50.6693,0.3305,-0.2592,1.1901,278.7188
13:35:11:407,0.6023,0.4076,5.429,52.0733,0.0466,-0.7644,0.5291,276.3906
13:35:11:427,-0.1292,0.2975,6.3962,52.2776,-0.1702,-0.7234,0.2772,274.2656
13:35:11:446,-0.9252,0.1119,7.5945,52.2145,-0.3441,-0.4864,0.1435,274.2656
13:35:11:469,-1.2652,0.1227,8.6205,51.6557,-0.4352,-0.2102,0.0425,273.75
13:35:11:489,-1.0905,0.2197,8.8922,53.0821,-0.5457,-0.1231,-0.125,273.4844
13:35:11:505,-0.942,0.3238,9.1998,51.0998,-0.7364,-0.2936,-0.3737,273.3438
13:35:11:524,-1.027,-0.0629,10.634,50.9344,-0.9223,-0.5444,-0.6427,273.2656
13:35:11:544,-1.6339,-0.9164,12.8881,51.3224,-0.9705,-0.4837,-0.7513,273.3438
13:35:11:567,-1.8973,-1.7939,14.1929,51.305,-0.9151,-0.1367,-0.6659,273.6719
13:35:11:588,-1.6495,-1.971,14.0325,50.8352,-0.8959,0.0707,-0.5652,274.3438
13:35:11:605,-1.4951,-1.5939,13.8566,50.1552,-0.873,0.047,-0.5639,275.125
13:35:11:624,-1.9356,-1.4371,14.43,50.8386,-0.7428,0.1107,-0.5636,275.7812
13:35:11:644,-2.5102,-1.8441,14.7843,50.8386,-0.4677,0.4156,-0.3647,276.2812
13:35:11:669,-2.2624,-2.2021,13.5333,50.3197,-0.1507,0.6867,-0.0326,277.1094
13:35:11:688,-1.1407,-2.0967,11.1403,49.7466,0.045,0.5554,0.2383,277.5938
13:35:11:704,0.4909,-1.5927,9.1915,50.7558,0.0437,0.0452,0.2628,277.7656
13:35:11:725,1.4941,-0.92,8.7042,50.7722,-0.1124,-0.5311,0.0074,277.6094
13:35:11:745,1.0811,-0.5812,10.1467,48.053,-0.127,-0.623,-0.2704,277.2969
13:35:11:769,0.3844,-0.811,11.035,49.4008,0.0911,-0.2057,-0.3918,277.1094
13:35:11:789,-0.2549,-0.8661,9.5506,48.3568,0.3023,0.3783,-0.3527,277.2656
13:35:11:804,-0.5158,-0.4316,6.8547,49.3276,0.3116,0.6886,-0.2699,277.6719
13:35:11:825,-0.3794,0.1574,4.901,48.4182,0.212,0.6345,-0.2413,277.9219
13:35:11:846,-0.2106,0.6614,4.1636,46.9396,0.106,0.344,-0.2922,278.3281
13:35:11:871,-0.2477,0.9738,4.3791,48.8209,0.0565,0.046,-0.3748,278.6719
13:35:11:887,-0.2477,0.9619,4.8987,46.8419,0.0163,-0.2182,-0.488,278.9688
13:35:11:906,-0.638,0.9343,5.897,48.0018,-0.0357,-0.3783,-0.5838,279.2969
13:35:11:925,-0.9863,0.7883,6.893,47.1134,-0.1174,-0.4758,-0.6579,279.7188
13:35:11:946,-1.5334,0.5585,8.4002,47.396,-0.2123,-0.4387,-0.6967,280.6094
13:35:11:971,-2.278,0.3837,10.2784,45.8577,-0.1957,-0.1996,-0.648,281.2969
13:35:11:987,-2.6156,0.0976,11.5486,45.895,-0.037,0.0787,-0.533,282.0625
13:35:12:004,-2.4815,-0.1873,11.5138,44.781,0.1289,0.2241,-0.4078,282.8125
13:35:12:026,-2.7413,-0.3286,10.9656,43.803,0.138,0.1461,-0.2784,283.4688
13:35:12:047,-2.9699,-0.4028,11.3307,45.3539,0.0543,0.01,-0.1359,283.9844
13:35:12:069,-2.9005,-0.3406,12.4176,44.3796,0.0045,-0.0699,-0.035,284.4062
13:35:12:087,-2.2684,-0.1957,13.3693,44.2211,-0.0096,-0.0827,-0.0581,284.6562
13:35:12:106,-2.4599,-0.428,14.2348,43.5492,-0.0812,-0.0611,-0.2208,284.7344
13:35:12:125,-3.3111,-1.0852,15.341,44.2371,-0.2139,0.0084,-0.2901,284.7656
13:35:12:145,-4.4423,-1.9674,14.8729,43.8633,-0.11,0.2753,-0.1678,284.9062
13:35:12:172,-4.6135,-2.4499,12.4224,44.7964,0.2828,0.5051,0.2005,285.2031
13:35:12:188,-3.772,-2.4606,9.565,44.3213,0.5856,0.5956,0.7099,285.4688
13:35:12:205,-2.5282,-2.3804,7.8555,44.9748,0.6269,0.2952,1.0878,285.5
13:35:12:226,-1.586,-2.2152,8.047,44.9635,0.4221,-0.3418,1.2135,285.0312
13:35:12:245,-1.4699,-1.9243,10.1862,44.0111,0.0746,-0.9106,1.1552,283.5
13:35:12:275,-1.3538,-1.9579,11.7317,43.814,-0.0775,-0.9985,1.1049,282.1719
13:35:12:286,-1.4651,-1.8717,11.0972,44.1313,0.0655,-0.6853,1.0905,280.9531
13:35:12:306,-1.379,-1.5245,9.5219,44.4662,0.2748,-0.321,1.1928,279.7031
13:35:12:325,-0.5003,-0.9726,8.0051,45.1661,0.4613,-0.1543,1.4295,279.1094
13:35:12:348,0.3964,-0.2771,6.6991,44.6363,0.6325,-0.162,1.596,277.8594
13:35:12:368,0.8836,0.3094,5.7761,47.1457,0.7406,-0.2409,1.5627,276.4844
13:35:12:385,1.0931,0.574,5.5319,45.6536,0.7665,-0.3458,1.3826,274.7969
13:35:12:403,0.8285,0.501,5.8659,47.0611,0.7151,-0.4603,1.1155,273.0469
13:35:12:424,0.3425,0.2041,6.2286,46.6752,0.6626,-0.4518,0.862,271.4375
13:35:12:444,-0.0382,-0.0616,6.2885,46.3163,0.6035,-0.3479,0.6905,270.1719
13:35:12:465,-0.2513,-0.0617,6.4956,48.0966,0.4975,-0.2622,0.6008,269.1562
13:35:12:490,-0.0538,0.0461,7.0929,46.1821,0.3787,-0.259,0.5464,268.375
13:35:12:511,0.4323,0.0545,7.7609,46.9834,0.3057,-0.3524,0.4649,267.75
13:35:12:531,0.6956,-0.2005,8.3152,48.2056,0.2591,-0.4536,0.29,267.1562
13:35:12:543,0.5999,-0.7081,8.8958,46.0242,0.1515,-0.5215,0.0537,266.4062
13:35:12:565,0.619,-1.242,9.9552,48.0409,-0.074,-0.5002,-0.1524,266.1562
13:35:12:588,0.4849,-1.8262,11.266,47.0446,-0.3366,-0.4302,-0.3053,266.1719
13:35:12:608,0.6645,-2.3433,12.104,48.3005,-0.5308,-0.2544,-0.3902,266.4062
13:35:12:625,1.6198,-2.5887,11.454,48.0216,-0.6253,0.0183,-0.4009,266.7812
13:35:12:646,1.9813,-2.3816,10.6208,48.2743,-0.7771,0.1719,-0.5255,267.2344
13:35:12:672,1.1793,-2.1757,11.5833,45.7376,-1.0826,-0.0219,-0.8187,267.6562
13:35:12:688,-0.6367,-2.5756,13.8781,49.6133,-1.3675,-0.235,-1.1245,268.2188
13:35:12:745,-2.7676,-3.1765,14.8585,48.6562,-1.379,0.1397,-1.1761,269.0625
13:35:12:745,-3.0393,-3.1657,12.754,48.0261,-1.0397,0.899,-0.7865,270.3125
13:35:12:745,-1.3694,-2.4774,9.9097,50.3446,-0.6147,1.2548,-0.162,271.5938
13:35:12:767,0.6968,-1.4036,7.7753,49.9003,-0.351,1.009,0.2814,272.3594
13:35:12:788,1.8305,-0.2592,7.4497,49.4347,-0.3105,0.3336,0.3326,272.5
13:35:12:805,1.8784,0.3669,8.4457,49.6829,-0.4509,-0.3737,-0.3444,272.2969
13:35:12:826,1.3433,0.2544,9.0454,49.4579,-0.4272,0.0241,-0.6992,271.6562
13:35:12:847,0.5424,-0.1814,8.4229,50.6925,-0.4264,0.5885,-0.8704,271.9375
13:35:12:870,-0.3363,-0.258,7.1468,49.848,-0.4597,0.8585,-0.8584,271.9375
13:35:12:890,-0.9755,-0.0772,6.4884,50.3119,-0.4333,0.7791,-0.7524,272.7031
13:35:12:906,-1.2868,0.2077,6.4381,49.3603,-0.3201,0.5584,-0.6115,273.6094
13:35:12:927,-1.0342,0.4076,6.571,51.6194,-0.1726,0.3698,-0.5047,274.5469
13:35:12:944,-0.6798,0.6135,6.4357,50.2837,-0.1044,0.2454,-0.4877,275.375
13:35:12:965,-0.6499,0.9439,6.4657,50.0743,-0.167,0.2215,-0.5473,276.0156
13:35:12:988,-0.6296,1.0517,6.7781,51.7203,-0.3473,0.1996,-0.6715,276.5781
13:35:13:006,-1.0282,0.9559,7.7753,51.591,-0.5726,0.1815,-0.8022,277.125
13:35:13:024,-1.9763,0.5573,9.8606,50.0857,-0.6815,0.2375,-0.8342,277.7344
13:35:13:044,-2.9986,-0.0533,11.928,51.2779,-0.5657,0.3461,-0.7202,278.4219
13:35:13:064,-3.9515,-0.6063,12.7026,52.3753,-0.4029,0.3429,-0.4765,279.2812
13:35:13:089,-5.1019,-0.8661,12.918,51.3728,-0.3955,0.1759,-0.0738,280.5625
13:35:13:106,-5.3701,-1.2492,14.3629,51.5846,-0.4304,0.0827,0.4607,281.1875
13:35:13:124,-4.1035,-1.746,16.1322,52.4918,-0.314,0.0833,0.9062,281.5
13:35:13:146,-2.2265,-1.825,17.0792,54.1452,-0.0274,0.0646,1.0524,281.2344
13:35:13:171,-1.2928,-1.3461,16.5608,52.7379,0.2583,-0.1114,0.9102,280.4062
13:35:13:189,-1.4711,-1.7113,15.8653,53.1781,0.5878,-0.3508,0.6862,279.2188
13:35:13:204,-3.5517,-2.6139,14.9172,53.1691,0.9758,-0.6446,0.8729,278.0781
13:35:13:228,-3.9252,-3.2328,13.8793,53.1139,1.3023,-0.6531,1.3688,277.2656
13:35:13:246,-1.5896,-3.0975,12.2129,53.6704,1.5502,-0.4339,1.5459,276.9219
13:35:13:270,0.0971,-2.2356,9.2214,53.2358,1.5188,-0.5085,1.3523,276.0312
13:35:13:288,0.7399,-1.5209,7.1229,54.6586,1.1281,-0.7937,0.9893,274.6094
13:35:13:307,0.1533,-1.3078,7.3228,54.2155,0.7348,-1.0627,0.7054,273.1094
13:35:13:324,-0.7744,-1.5796,8.7222,53.2488,0.6541,-1.1035,0.6671,271.7344
13:35:13:345,-1.027,-1.8645,9.237,53.1871,0.7872,-0.8949,0.7728,270.75
13:35:13:372,-0.9887,-1.7615,8.3858,54.7643,0.8967,-0.5564,0.9222,270.0938
13:35:13:388,-0.6942,-1.3641,6.9074,54.1521,0.9119,-0.3021,1.0034,269.0781
13:35:13:404,-0.2812,-0.9834,5.5954,54.8186,0.8413,-0.1556,0.9747,268.2031
13:35:13:424,-0.1304,-0.8158,4.5802,53.8598,0.7185,-0.116,0.9052,267.2188
13:35:13:444,-0.2262,-0.7931,3.9577,52.4192,0.592,-0.2062,0.8697,266.1562
13:35:13:464,-0.3578,-0.884,3.6429,53.8201,0.4493,-0.4307,0.8743,265.125
13:35:13:487,-0.5601,-0.835,3.8835,54.9688,0.2988,-0.627,0.9217,264.1719
13:35:13:505,0.0133,-0.7548,5.5176,54.2232,0.1633,-0.7575,0.9603,263.2656
13:35:13:525,0.1569,-0.5812,6.4441,55.4116,0.0269,-0.8401,0.9219,262.3281
13:35:13:545,0.4395,-0.5596,7.5682,55.7162,-0.1182,-0.8393,0.8202,261.3438
13:35:13:570,0.6047,-0.7045,8.6372,56.1177,-0.2786,-0.7282,0.6428,260.4062
13:35:13:589,0.6346,-0.9583,9.6069,56.2566,-0.4772,-0.5303,0.4154,259.5
13:35:13:603,0.4825,-1.4048,10.8387,55.2856,-0.7433,-0.316,0.1808,258.7656
13:35:13:623,0.0672,-2.0105,12.1196,57.6738,-1.0261,-0.0723,-0.0203,258.2656
13:35:13:643,-0.2238,-2.3924,13.3502,56.7147,-1.2501,0.1975,-0.1039,257.9844
13:35:13:664,0.5412,-2.8353,13.7117,58.053,-1.3366,0.4684,-0.0541,257.9531
13:35:13:687,1.5348,-2.6318,13.1275,55.9969,-1.3335,0.6942,0.013,258.125
13:35:13:704,1.8041,-2.0428,13.4041,58.0486,-1.4283,0.6953,-0.0312,258.1719
13:35:13:723,0.9698,-1.667,14.6323,58.0486,-1.5159,0.5842,-0.1913,258.1406
13:35:13:744,-0.116,-1.6442,15.0561,56.311,-1.3604,0.674,-0.3098,258.125
13:35:13:765,0.0264,-1.7053,13.8087,55.0184,-0.931,0.9491,-0.1705,258.2188
13:35:13:784,1.2451,-1.5137,11.3726,55.8533,-0.3835,0.9344,0.1339,258.5156
13:35:13:803,2.4877,-0.6722,9.7469,56.2594,0.008,0.3893,0.3483,258.8125
13:35:13:824,3.3628,0.2688,9.6739,56.5158,0.1308,-0.3956,0.2971,258.8438
13:35:13:844,3.2993,0.4375,10.8028,54.7754,0.0426,-0.8238,-0.0738,258.5469
13:35:13:863,2.2746,-0.2448,11.0661,56.1623,-0.0394,-0.5506,-0.595,258.1406
13:35:13:889,0.7519,-0.7236,9.4608,56.9848,-0.0099,0.2095,-0.9809,257.9688
13:35:13:904,-0.2441,-0.8266,7.4628,54.5759,0.0123,0.9301,-1.076,258.3125
13:35:13:928,-0.8726,-0.7093,5.9258,54.9393,0.0389,1.2202,-0.9865,259.25
13:35:13:947,-1.1132,-0.6051,4.9884,55.1243,0.1092,1.0436,-0.803,261.0938
13:35:13:971,-0.9205,-0.4519,4.6461,57.5301,0.1883,0.5957,-0.5905,262.1719
13:35:13:988,-0.5326,-0.1742,5.1776,56.077,0.2053,0.1224,-0.3996,263.1094
13:35:14:007,-0.1016,0.2149,6.2191,55.5662,0.1803,-0.2078,-0.2664,263.8125
13:35:14:023,0.194,0.598,7.4545,54.6275,0.1808,-0.4276,-0.1902,264.25
13:35:14:043,0.7232,0.8589,8.7198,55.9188,0.2035,-0.5264,-0.1311,264.5625
13:35:14:064,1.2379,1.0122,9.9169,55.7338,0.2527,-0.4744,-0.1087,264.7969
13:35:14:088,1.281,0.9439,10.5538,55.78,0.3294,-0.308,-0.203,264.9531
13:35:14:104,0.5292,0.6087,10.8147,55.971,0.4,-0.1522,-0.3777,265.0781
13:35:14:127,-0.2561,0.0401,10.9249,55.5155,0.3958,-0.051,-0.5082,265.3281
13:35:14:144,-0.9552,-0.3406,10.9991,54.707,0.3121,0.043,-0.5071,265.7812
13:35:14:165,-1.2604,-0.4268,11.2217,54.6824,0.1617,0.0798,-0.4238,266.3438
13:35:14:186,-1.2964,-0.6327,11.539,54.7051,-0.0088,0.1086,-0.3569,266.9375
13:35:14:205,-1.707,-1.1223,11.758,55.2781,-0.2898,0.3962,-0.3319,267.4219
13:35:14:224,-2.4456,-1.6897,11.4157,55.6866,-0.4623,0.3773,-0.1881,267.4219
13:35:14:246,-3.3733,-1.6418,12.0418,54.4506,-0.6336,0.1805,0.0625,268.2031
13:35:14:270,-4.0832,-2.056,14.1666,54.9524,-0.489,0.1195,0.4079,268.5781
13:35:14:288,-4.2987,-2.7288,15.3733,55.7168,-0.0229,0.3264,0.9107,268.7656
13:35:14:307,-3.3003,-3.0352,13.5968,54.5181,0.4024,0.3871,1.3768,268.6562
13:35:14:325,-1.616,-2.4547,10.7716,54.4176,0.4658,-0.0736,1.5763,268.1562
13:35:14:343,0.1007,-1.7041,9.8032,53.841,0.2828,-0.7663,1.4135,267.1094
13:35:14:365,0.4131,-1.2193,11.1703,54.4356,0.1902,-1.121,1.0993,265.6406
13:35:14:390,0.0001,-1.503,12.6008,52.2439,0.2975,-0.9088,0.886,263.875
13:35:14:408,-0.5769,-1.7651,12.3147,53.7155,0.4911,-0.3892,0.8519,262.2812
13:35:14:423,-0.7792,-1.8465,10.4903,52.8121,0.6647,0.0548,0.9491,261.0469
13:35:14:443,-0.8415,-1.6299,8.3164,52.825,0.7883,0.2324,1.103,260.125
13:35:14:463,-0.5625,-1.485,6.5159,52.4356,0.8935,0.1887,1.242,259.1562
13:35:14:489,-0.128,-1.3629,5.0255,51.3613,0.9579,0.0289,1.3286,256.9062
13:35:14:509,0.2348,-1.2755,3.8093,51.9064,0.9297,-0.2196,1.3536,255.4844
13:35:14:530,0.5795,-1.1462,2.9665,51.7434,0.7739,-0.5394,1.3076,254.75
13:35:14:542,0.9111,-1.0588,3.0108,51.0578,0.4938,-0.7964,1.1898,252.5625
13:35:14:565,1.0392,-1.0421,4.1457,50.1504,0.1728,-0.8246,1.0423,251.8281
13:35:14:589,1.1817,-1.0564,5.9988,51.2412,-0.0866,-0.5977,0.8647,250.4531
13:35:14:608,1.2475,-1.2204,7.6532,51.1652,-0.241,-0.2795,0.6679,249.25
13:35:14:626,1.0835,-1.321,8.5354,49.6756,-0.3563,-0.1066,0.4924,248.2812
13:35:14:643,0.9769,-1.5461,9.067,49.7036,-0.5089,-0.1197,0.3531,247.4375
13:35:14:665,1.1936,-1.6837,9.9827,49.7092,-0.7191,-0.1381,0.2165,246.7969
13:35:14:686,1.554,-2.0955,11.2768,48.9275,-0.9089,-0.043,0.067,246.3438
13:35:14:707,1.5456,-2.4535,12.6547,49.7903,-0.9974,0.1964,-0.015,246.1875
13:35:14:724,1.761,-2.7252,13.1838,49.3546,-0.9702,0.4103,-0.0286,245.9688
13:35:14:744,2.5188,-2.6055,12.4703,48.958,-1.0115,0.3453,-0.1492,245.9219
13:35:14:821,2.9103,-1.9603,12.256,49.1437,-1.1979,0.0691,-0.4382,245.9531
13:35:14:821,2.6649,-1.576,13.5657,45.999,-1.3718,-0.0896,-0.8304,245.9844
13:35:14:821,0.7579,-1.7747,16.0341,48.4088,-1.2251,0.3522,-0.9886,246.1562
13:35:14:823,-1.2245,-2.6534,16.8122,48.1111,-0.6496,1.0289,-0.6786,247.0625
13:35:14:843,-1.1276,-2.9299,13.829,47.8805,-0.0927,1.2314,-0.1551,248.2031
13:35:14:862,0.297,-2.0919,10.2281,46.168,0.1728,0.6694,0.1728,249.2344
13:35:14:889,1.5719,-0.9343,8.5342,47.2959,0.2293,-0.1761,0.1219,249.7344
13:35:14:907,1.36,-0.3813,9.4381,44.5725,0.1867,-0.4744,-0.1268,249.7031
13:35:14:924,0.9063,-0.6746,8.6073,46.9641,0.2232,-0.117,-0.2912,249.4844
13:35:14:944,0.5364,-0.4663,6.6823,46.0439,0.2961,0.4428,-0.3236,249.4844
13:35:14:964,0.467,-0.1586,5.162,45.799,0.2834,0.7823,-0.3039,249.7344
13:35:14:992,0.3521,0.0545,4.2977,45.0967,0.2365,0.7669,-0.2999,250.0938
13:35:15:004,0.0444,0.2532,4.1553,44.5064,0.172,0.5118,-0.3167,250.4688
13:35:15:033,-0.0454,0.2855,4.5503,46.5629,0.0938,0.2177,-0.3359,250.7969
13:35:15:043,-0.0394,0.1562,5.4266,45.1456,-0.0136,-0.011,-0.3761,251.1719
13:35:15:071,-0.2369,0.0976,6.5495,43.3068,-0.1598,-0.0859,-0.4384,251.5469
13:35:15:091,-0.444,-0.009,8.053,42.2589,-0.302,-0.0779,-0.4904,251.9375
13:35:15:108,-1.0007,-0.3549,9.9397,43.2442,-0.4032,-0.0664,-0.5386,252.3906
13:35:15:123,-1.7752,-0.7476,11.4767,42.7714,-0.379,0.0191,-0.5191,253.1875
13:35:15:142,-2.1259,-1.0086,12.4847,41.9216,-0.2107,0.1115,-0.375,253.7812
13:35:15:164,-1.9129,-1.072,12.5397,43.1844,0.0506,0.1664,-0.154,254.3438
13:35:15:189,-1.4161,-0.8158,12.0442,42.5312,0.2993,0.0811,0.0543,254.7656
13:35:15:204,-0.8175,-0.5584,12.1435,41.8387,0.3981,-0.1452,0.1776,254.875
13:35:15:222,-0.2872,-0.6099,12.7265,41.208,0.3523,-0.3303,0.1714,254.9375
13:35:15:244,-0.0454,-0.89,13.1287,41.4748,0.2362,-0.3125,0.0585,254.8125
13:35:15:262,-0.1687,-0.9846,13.5824,40.517,0.0429,-0.1623,-0.0797,254.6094
13:35:15:283,-0.8558,-1.1726,14.7987,39.0457,-0.2298,-0.0148,-0.1947,254.4688
13:35:15:308,-2.3211,-1.819,16.6865,41.3271,-0.3633,0.0622,-0.2419,254.4844
13:35:15:325,-2.7305,-2.8425,16.0676,39.988,-0.0432,0.303,-0.0161,254.6406
13:35:15:343,-1.9691,-3.1633,12.3769,40.1522,0.5923,0.6135,0.4668,254.9062
13:35:15:364,-1.1252,-2.4319,8.8898,39.0672,0.9968,0.4617,0.9091,255.0469
13:35:15:389,-0.6523,-1.4419,7.8028,41.2395,0.963,-0.2022,1.1289,254.5469
13:35:15:406,-0.3698,-1.2157,9.3686,39.7963,0.6583,-0.9013,1.1153,253.5469
13:35:15:423,-0.4656,-1.5401,10.8638,39.1563,0.4171,-1.0579,1.0189,252.375
13:35:15:443,-0.9109,-1.5604,10.458,40.4196,0.4309,-0.6867,0.9861,251.1406
13:35:15:463,-0.9432,-1.3641,8.6444,41.4141,0.5617,-0.2193,1.0753,250.0156
13:35:15:487,-0.6679,-1.1881,6.9026,38.3888,0.6514,0.014,1.1922,248.9219
13:35:15:506,-0.6308,-1.0397,5.7366,40.0328,0.7084,-0.0555,1.2772,247.7656
13:35:15:522,-0.4297,-0.9583,5.1357,39.3124,0.6988,-0.1698,1.3387,246.4062
13:35:15:543,-0.1471,-0.7835,4.9896,39.299,0.5531,-0.1061,1.3494,244.9531
13:35:15:563,-0.1495,-0.7943,5.1465,41.2036,0.2408,0.2263,1.2447,243.5156
13:35:15:590,-0.298,-0.8841,5.6002,39.8332,-0.1161,0.6138,1.1099,241.9688
13:35:15:606,-0.4129,-0.8314,6.3124,40.6068,-0.4093,0.7256,0.9547,240.5312
13:35:15:625,-0.3518,-0.5429,7.2773,39.979,-0.2836,0.4454,0.8268,240.5312
13:35:15:645,-0.3447,-0.398,8.2362,39.2671,-0.0637,0.1919,0.6306,238.6406
13:35:15:665,-0.3985,-0.732,8.4205,41.9061,0.1041,0.0534,0.4354,236.8906
13:35:15:690,-0.4524,-1.1654,7.7119,41.7706,0.0248,-0.0563,0.2665,235.2031
13:35:15:707,-0.3483,-1.6191,7.5419,40.1844,-0.2661,-0.2177,0.131,235.2031
13:35:15:726,-0.0262,-2.1279,8.7809,39.7513,-0.5744,-0.2941,-0.0139,234.7188
13:35:15:742,0.2707,-2.5923,10.4341,38.83,-0.8088,-0.186,-0.1857,234.4062
13:35:15:768,0.2635,-3.0712,11.8658,38.83,-0.9308,0.1168,-0.3018,234.2656
13:35:15:790,0.6717,-3.5213,12.0693,40.4706,-1.0011,0.4087,-0.3601,234.2969
13:35:15:806,0.8477,-3.3944,11.4384,38.5823,-1.1108,0.3355,-0.4472,234.5
13:35:15:824,0.3748,-3.0819,11.7868,38.1493,-1.1779,0.059,-0.5521,234.7969
13:35:15:850,-0.4823,-3.1394,13.0605,41.7347,-1.1026,0.0795,-0.5569,235.1875
13:35:15:862,-1.0162,-3.6242,13.6207,39.1212,-0.8733,0.3722,-0.3354,235.6562
13:35:15:883,-0.7193,-3.805,12.541,39.4695,-0.5995,0.5602,0.0154,236.25
13:35:15:907,0.5304,-3.4075,10.4269,38.2528,-0.4397,0.4228,0.2316,236.8281
13:35:15:922,1.8377,-2.5839,8.6288,38.8389,-0.4831,0.0324,0.1693,237.1719
13:35:15:942,2.3823,-1.8609,8.1464,38.6611,-0.6394,-0.3042,-0.1047,237.0469
13:35:15:962,1.9011,-1.4335,9.0466,38.7711,-0.6863,-0.3149,-0.3873,236.7812
13:35:15:982,0.9937,-1.2731,9.7409,38.1705,-0.5047,-0.0614,-0.5375,236.6875
13:35:16:006,0.218,-1.1726,9.116,39.9388,-0.245,0.2436,-0.5559,236.9375
13:35:16:023,-0.2752,-1.0648,7.4928,40.8529,-0.1164,0.4313,-0.4973,237.4375
13:35:16:043,-0.675,-0.671,6.2322,38.9999,-0.1084,0.4761,-0.4033,238.0625
13:35:16:065,-0.5805,-0.246,5.5738,38.9843,-0.1683,0.4153,-0.3663,238.6875
13:35:16:090,-0.4739,0.1886,5.7354,39.7586,-0.2288,0.2963,-0.3865,239.2031
13:35:16:107,-0.3447,0.3932,6.4944,37.7577,-0.2152,0.1056,-0.4547,239.6562
13:35:16:125,-0.4608,0.2963,7.4365,40.2856,-0.1814,-0.1176,-0.5354,239.875
13:35:16:146,-0.8223,0.0856,8.8587,40.1214,-0.2072,-0.1623,-0.587,240.3281
13:35:16:161,-1.3514,-0.3717,10.9787,37.8865,-0.3563,0.2894,-0.6467,240.8125
13:35:16:182,-2.7628,-0.8876,13.4208,39.4838,-0.5244,1.3562,-0.5737,241.4062
13:35:16:204,-4.167,-1.224,14.7197,39.0962,-0.4133,2.2748,-0.3183,242.0469
13:35:16:222,-4.2867,-1.5221,13.9846,39.0164,-0.0706,2.4133,-0.0201,242.7969
13:35:16:242,-3.7229,-1.4862,12.5505,39.3445,0.2988,1.9073,0.1925,243.8281
13:35:16:263,-3.2309,-1.4072,11.187,39.267,0.5766,1.0788,0.2354,244.2188
13:35:16:287,-3.2943,-1.7089,10.4173,39.267,0.7031,0.2375,0.1917,244.3281
13:35:16:307,-3.2392,-2.2152,10.276,39.9516,0.6674,-0.3721,0.1163,244.2812
13:35:16:324,-3.2345,-2.5827,10.3754,40.8247,0.4831,-0.8036,0.0135,244.1875
13:35:16:342,-4.5261,-3.3381,13.0425,40.085,0.2027,-1.1908,-0.0784,244.1094
13:35:16:365,-5.0804,-4.2515,15.3146,40.1836,0.1324,-1.4121,0.0061,244.0781
13:35:16:389,-4.1263,-5.1589,14.5233,41.2413,0.5571,-1.1828,0.3725,244.0938
13:35:16:409,-3.2392,-4.6549,11.3187,39.3464,1.097,-0.7168,0.8223,244.1094
13:35:16:422,-2.5485,-3.732,8.7485,38.9852,1.2088,-0.447,1.1201,243.9062
13:35:16:442,-2.7843,-3.4447,8.9125,40.3466,0.8597,-0.5261,1.1531,243.2344
13:35:16:463,-3.4763,-3.4111,10.3012,40.2817,0.4951,-0.6126,1.136,242.1875
13:35:16:483,-3.1638,-3.1992,10.4795,40.8032,0.5057,-0.4579,1.3353,240.9375
13:35:16:505,-2.4887,-2.7228,8.8251,39.1434,0.8245,-0.1809,1.5885,239.75
13:35:16:522,-1.6016,-2.1673,6.4226,39.5764,1.1281,0.0606,1.7795,238.3906
13:35:16:542,-0.8403,-1.5676,4.6245,40.2522,1.1934,0.1631,1.8293,236.7656
13:35:16:563,-0.3016,-1.1259,3.6728,40.6018,1.0623,0.156,1.7464,234.9844
13:35:16:588,0.1354,-0.8517,3.2491,40.9121,0.8599,0.0241,1.5898,232.9844
13:35:16:605,0.1964,-0.6674,3.4561,41.0301,0.6512,-0.2763,1.3659,230.9844
13:35:16:621,-0.0669,-0.7284,4.5814,41.9011,0.4447,-0.6481,1.1155,229.2188
13:35:16:642,-0.2776,-0.9798,5.7414,41.4886,0.3052,-0.8438,0.9227,227.5781
13:35:16:661,-0.3243,-1.1761,6.7123,40.2952,0.2378,-0.8523,0.8111,226.2344
13:35:16:682,0.0803,-1.139,6.8691,42.0466,0.2376,-0.6971,0.7792,224.75
13:35:16:705,0.4861,-1.0217,6.5531,41.3115,0.2266,-0.57,0.7001,223.8906
13:35:16:723,0.7687,-1.0134,6.3699,39.984,0.0932,-0.5229,0.5137,223.0781
13:35:16:742,0.789,-1.3641,7.1815,41.8883,-0.2045,-0.5732,0.2343,222.3438
13:35:16:762,0.6442,-2.0476,8.7186,41.2892,-0.6043,-0.5775,-0.0576,221.8281
13:35:16:781,0.2312,-2.718,10.5825,41.795,-0.9824,-0.4877,-0.2904,221.625
13:35:16:807,-0.2692,-3.2687,12.353,40.0268,-1.252,-0.2901,-0.4134,221.7344
13:35:16:824,0.0408,-3.5201,12.7217,40.8004,-1.3236,0.0526,-0.3705,222.1094
13:35:16:882,0.1785,-3.046,11.8203,42.0122,-1.2903,0.3269,-0.3047,222.6094
13:35:16:882,-0.11,-2.5995,11.8981,41.3837,-1.3289,0.2271,-0.3284,223.0469
13:35:16:896,-0.7912,-2.56,13.1203,41.7208,-1.3603,-0.1096,-0.4022,223.375
13:35:16:902,-1.5322,-2.8102,14.1175,42.5309,-1.2706,-0.2033,-0.4288,223.375
13:35:16:922,-1.2784,-2.9658,13.3933,41.2035,-1.0163,0.0438,-0.2722,223.9688
13:35:16:942,-0.1352,-2.5624,11.5497,41.0898,-0.7649,0.3075,-0.0331,224.4844
13:35:16:962,0.722,-1.898,10.5406,41.4497,-0.7103,0.3014,0.0697,224.8906
13:35:16:983,0.8812,-1.3868,10.6112,41.1598,-0.7505,0.0859,-0.031,225.0781
13:35:17:003,0.3281,-1.3366,10.8123,41.6393,-0.7087,-0.0771,-0.215,225
13:35:17:023,-0.4488,-1.467,10.0857,41.2308,-0.3225,0.3336,-0.2214,225.0312
13:35:17:043,-0.9959,-1.2097,8.4876,40.5931,-0.1691,0.5714,-0.0254,225.2812
13:35:17:063,-0.8606,-0.9607,6.9002,42.2192,-0.1137,0.6063,0.1278,225.2812
13:35:17:082,-1.0126,-0.8278,6.0754,42.4248,-0.1883,0.6289,0.2686,225.625
13:35:17:107,-1.1934,-0.3621,6.0742,42.8043,-0.2735,0.6526,0.4119,225.9062
13:35:17:123,-0.954,0.2125,6.4728,42.3855,-0.2461,0.5773,0.4426,225.8594
13:35:17:141,-0.6571,0.6542,6.7254,43.9549,-0.1569,0.3562,0.3688,225.5781
13:35:17:161,-0.3662,0.8314,6.9445,42.6639,-0.1443,0.0691,0.241,225.1719
13:35:17:181,-0.2956,0.8314,7.9405,43.4112,-0.1771,-0.1122,0.0931,224.7031
13:35:17:204,-0.5063,0.677,9.6224,43.3694,-0.146,-0.1471,-0.0358,224.2969
13:35:17:221,-1.0234,0.1826,11.3474,42.9722,0.0013,-0.0757,-0.0802,224.0312
13:35:17:244,-1.8327,-0.4723,12.5601,42.5165,0.2306,0.0872,0.0292,223.9844
13:35:17:262,-2.205,-0.9774,12.7313,43.4676,0.4637,0.1621,0.2322,223.9844
13:35:17:282,-2.1391,-1.2947,12.4835,45.4743,0.5955,0.0856,0.4322,224.0312
13:35:17:306,-1.4951,-1.4922,12.3889,43.3982,0.6333,-0.0246,0.5043,223.9062
13:35:17:324,-0.9995,-1.5401,12.4739,46.529,0.6277,-0.0536,0.442,223.5625
13:35:17:342,-0.5972,-1.6861,12.1746,45.0988,0.5444,0.0217,0.2796,223.0469
13:35:17:363,-0.6284,-1.7017,11.3558,44.852,0.2581,0.0414,0.0463,222.5312
13:35:17:389,-0.9432,-1.831,11.4839,45.9412,-0.1582,-0.1738,-0.2001,222.125
13:35:17:407,-2.4085,-2.5564,13.434,46.2036,-0.3654,-0.4473,-0.2509,222
13:35:17:423,-4.5154,-3.5907,16.5668,45.7434,0.0522,-0.2845,0.176,221.9688
13:35:17:442,-4.2556,-4.4969,16.3501,45.6635,0.8232,0.1906,0.7946,222.1719
13:35:17:462,-2.5916,-4.1677,11.8406,45.1501,1.1321,0.2252,1.1691,222.4375
13:35:17:483,-1.2425,-2.821,8.0422,47.1903,0.8549,-0.2022,1.1488,222.2188
13:35:17:507,-0.8522,-1.6155,7.1708,47.1824,0.3792,-0.7274,0.9368,221.375
13:35:17:523,-0.7409,-1.6227,9.0622,46.0063,0.1949,-0.8869,0.7659,220.0938
13:35:17:542,-1.1072,-1.6478,10.4364,47.1,0.4064,-0.68,0.724,218.25
13:35:17:562,-1.3347,-1.5963,9.7505,46.4199,0.7302,-0.3599,0.8114,217.3438
13:35:17:582,-1.0928,-1.5137,7.7478,47.5265,0.8951,-0.133,0.9177,216.5156
13:35:17:605,-0.8654,-1.2755,5.9605,48.0422,0.9063,-0.0387,1.0042,215.6562
13:35:17:622,-0.4033,-1.0074,4.7538,48.2892,0.8322,-0.0909,1.017,214.7188
13:35:17:642,0.0432,-0.7584,4.0212,46.6839,0.698,-0.2739,0.936,213.625
13:35:17:663,0.291,-0.6315,4.008,48.2314,0.5015,-0.5218,0.7792,212.4688
13:35:17:691,0.2228,-0.6674,4.9848,49.3298,0.3169,-0.6299,0.6074,211.4062
13:35:17:708,-0.0466,-0.914,6.3328,48.2313,0.2088,-0.577,0.4577,210.4219
13:35:17:726,-0.9851,-1.3844,8.1631,48.7437,0.188,-0.3239,0.3802,209.6719
13:35:17:746,-0.687,-1.394,8.1021,48.1939,0.1795,0.0249,0.3632,209.0938
13:35:17:761,-0.049,-1.4395,7.2318,48.4758,0.1361,0.2923,0.2961,208.6719
13:35:17:783,0.2252,-1.5772,7.0486,48.1942,-0.0812,0.3301,0.0982,208.25
13:35:17:808,0.0552,-2.2392,8.3415,48.1942,-0.4788,0.1498,-0.1726,207.8438
13:35:17:825,-0.4296,-3.04,10.5538,48.351,-0.8474,-0.088,-0.3737,207.5938
13:35:17:842,-0.8929,-3.6254,12.6176,47.591,-1.0051,-0.2321,-0.4134,207.625
13:35:17:862,-0.2214,-3.9594,12.8941,47.988,-0.9081,-0.1623,-0.2704,208.2031
13:35:17:882,0.4215,-3.301,11.8538,48.7211,-0.8136,0.022,-0.1292,208.6875
13:35:17:909,0.2084,-2.7348,12.6032,49.7272,-0.9814,-0.0097,-0.2216,209.0156
13:35:17:928,-1.1599,-3.1214,14.8765,47.864,-1.2373,-0.1101,-0.4874,209.0938
13:35:17:945,-1.8698,-3.8146,15.4655,49.0284,-1.1896,0.2526,-0.5564,209.2812
13:35:17:963,-0.6068,-3.3836,13.118,49.6868,-0.8773,0.9134,-0.301,209.6719
13:35:17:981,1.3528,-2.1709,10.7178,47.4515,-0.7665,1.3975,-0.0983,210.3594
13:35:18:008,2.1681,-1.2204,9.8858,45.7563,-0.9502,1.4777,-0.2714,210.9062
13:35:18:027,1.1003,-1.0157,9.9947,46.5192,-1.0993,1.3019,-0.7535,211.125
13:35:18:041,-0.6751,-1.4958,9.7038,48.0032,-0.996,1.1304,-1.1567,211.3438
13:35:18:061,-2.3785,-2.0249,8.7485,47.6768,-0.7159,1.1017,-1.1934,211.9531
13:35:18:081,-3.1447,-1.8214,7.4138,46.9754,-0.4152,1.1048,-0.8328,213.1094
13:35:18:105,-2.8993,-1.1941,6.1592,46.8961,-0.1617,0.9797,-0.3002,214.5
13:35:18:124,-2.0493,-0.5345,5.4757,46.5452,0.0354,0.6641,0.1648,215.75
13:35:18:141,-1.1252,0.0605,5.1465,46.8476,0.1795,0.2883,0.4625,216.6094
13:35:18:162,-0.4009,0.3969,5.095,47.3993,0.2591,-0.0347,0.5869,216.4844
13:35:18:182,-0.0621,0.5537,5.2877,48.5243,0.2764,-0.284,0.5645,216
13:35:18:205,-0.0394,0.3992,5.9665,46.162,0.24,-0.4773,0.4527,215.3438
13:35:18:222,-0.432,-0.0186,7.0367,46.0033,0.1577,-0.6478,0.3043,214.7344
13:35:18:241,-1.1072,-0.4387,8.7509,45.2659,0.0352,-0.7453,0.1824,214.2031
13:35:18:262,-1.7932,-0.8086,10.7908,45.6591,-0.0828,-0.7096,0.1312,213.8125
13:35:18:281,-2.1439,-1.2037,12.4835,47.8605,-0.0546,-0.5996,0.1427,213.5625
13:35:18:303,-2.011,-1.6598,12.8259,47.0994,0.1449,-0.4052,0.221,213.3594
13:35:18:321,-1.756,-1.6837,12.3506,46.0869,0.3164,-0.1527,0.3294,213.1562
13:35:18:343,-1.3418,-1.4156,12.0525,45.0731,0.3374,0.0353,0.4093,212.875
13:35:18:365,-1.2078,-1.4718,12.4559,44.0313,0.2826,0.0297,0.3456,212.5156
13:35:18:381,-1.5741,-1.9686,12.7229,45.3469,0.2815,-0.0757,0.1818,212.2969
13:35:18:402,-1.871,-2.22,12.268,44.5078,0.3177,-0.1117,0.0923,211.8594
13:35:18:425,-2.1786,-2.1147,12.0705,43.3223,0.045,-0.4401,0.0202,211.5
13:35:18:443,-2.7173,-2.3278,13.4651,42.9358,-0.0631,-0.5969,0.0274,211.4219
13:35:18:466,-3.5936,-3.052,15.4236,43.504,0.2314,-0.4566,0.2679,211.3438
13:35:18:480,-3.3302,-3.9845,15.2129,42.2421,0.7694,-0.0233,0.6876,211.2969
13:35:18:502,-1.9176,-3.9295,11.782,43.7273,1.0144,0.1956,0.9576,211.2344
13:35:18:524,-0.4476,-3.1382,8.2386,41.8692,0.8229,-0.0038,0.911,210.9062
13:35:18:541,-0.1854,-2.2894,6.559,42.357,0.4394,-0.4622,0.7065,210.1406
13:35:18:562,-0.6966,-1.9004,6.9194,42.079,0.1393,-0.9013,0.5885,209.1406
13:35:18:581,-1.0928,-1.8441,8.6073,42.24,0.1281,-1.0108,0.6101,208.125
13:35:18:605,-1.2772,-1.643,9.4069,41.0503,0.3611,-0.7959,0.7166,207.3281
13:35:18:623,-0.9061,-1.3222,8.4768,42.7855,0.5518,-0.4198,0.8015,206.6875
13:35:18:640,-0.4584,-0.8793,6.6632,42.3313,0.5393,-0.1753,0.7888,205.9688
13:35:18:661,-0.1495,-0.4711,5.5032,42.1921,0.4075,-0.0654,0.682,205.1562
13:35:18:682,0.2587,-0.1754,4.9226,41.7547,0.1582,0.1158,0.4761,203.8125
13:35:18:703,0.5244,-0.1167,4.7263,41.3298,-0.2024,0.4335,0.2247,202.9531
13:35:18:722,0.3832,-0.3537,5.1417,42.787,-0.5699,0.7711,0.0085,202.2812
13:35:18:745,-0.3686,-0.5752,6.0371,41.8733,-0.7534,0.9229,-0.1154,201.8906
13:35:18:761,-1.4292,-1.0385,7.2103,41.0557,-0.6887,0.8289,-0.0986,201.7656
13:35:18:782,-2.4384,-1.5293,8.4349,41.0251,-0.3739,0.5184,0.1014,201.8281
13:35:18:803,-2.2923,-1.9579,8.7928,42.5359,0.0445,0.0372,0.3102,201.9688
13:35:18:823,-1.4807,-2.0201,8.2014,42.2595,0.2682,-0.554,0.3491,201.9688
13:35:18:841,-0.462,-2.1243,7.8028,41.8437,0.1116,-1.0142,0.1824,201.7188
13:35:18:862,-0.0394,-2.5396,8.9915,40.6424,-0.2578,-1.1373,-0.0541,201.5312
13:35:18:881,-0.3087,-3.2842,11.1822,41.5877,-0.5955,-0.8233,-0.1878,201.125
13:35:18:905,-0.5685,-3.7607,13.2903,41.8648,-0.7454,-0.2126,-0.1891,200.9375
13:35:18:971,0.0348,-4.3365,13.8051,41.3478,-0.7982,0.3709,-0.1849,200.9688
13:35:18:972,0.3628,-4.1402,12.869,41.8997,-0.9342,0.5602,-0.2672,201.1719
13:35:18:972,0.0672,-3.7308,12.9408,41.9222,-1.0437,0.4569,-0.4392,201.375
13:35:18:986,-1.0473,-3.9726,14.1139,41.8731,-0.8679,0.4321,-0.4765,201.75
13:35:19:008,-2.1128,-4.3952,14.4348,40.6556,-0.4466,0.5014,-0.1516,202.1719
13:35:19:025,-1.1036,-4.4574,13.1096,40.0837,-0.0421,0.4417,0.2646,202.7344
13:35:19:041,1.0021,-3.5572,11.1332,42.6251,0.1694,0.1075,0.3597,203.1719
13:35:19:070,2.3883,-2.3649,9.8331,42.7161,0.1984,-0.2712,0.0782,203.1094
13:35:19:080,2.5655,-1.7101,9.3399,42.8355,0.1481,-0.3812,-0.3601,202.7344
13:35:19:104,1.9167,-1.7472,9.2334,42.0846,0.1515,-0.157,-0.6898,202.4375
13:35:19:126,-0.1747,-1.7543,6.8296,41.5666,0.187,0.2058,-0.8179,202.5781
13:35:19:143,-0.6786,-1.3832,5.4804,42.5743,0.1638,0.4574,-0.7828,203.1875
13:35:19:161,-1.1383,-0.9678,4.8843,41.0752,0.0453,0.5269,-0.7109,204.0469
13:35:19:187,-1.3119,-0.6327,4.9956,43.1951,-0.0932,0.5019,-0.6041,205
13:35:19:208,-1.2485,-0.3286,5.4469,42.2165,-0.1473,0.3978,-0.4736,205.8906
13:35:19:222,-1.2808,-0.1454,5.678,43.0973,-0.0964,0.3035,-0.3697,206.6406
13:35:19:240,-1.2461,0.1095,6.0168,43.5533,-0.0354,0.2223,-0.2874,207.2812
13:35:19:261,-1.3263,0.2005,6.7278,44.7794,-0.0099,0.107,-0.2685,207.7812
13:35:19:282,-1.3933,0.0485,7.7693,43.3586,0.0069,-0.0108,-0.3077,208.3125
13:35:19:309,-1.9009,-0.2508,9.1927,43.1649,-0.0128,-0.117,-0.3798,208.625
13:35:19:322,-2.6275,-0.7476,10.9237,43.9096,-0.061,-0.1359,-0.4272,208.9844
13:35:19:340,-3.1231,-1.3198,12.2848,44.1101,-0.0554,-0.0291,-0.371,209.1875
13:35:19:363,-3.2009,-1.5113,12.669,44.8174,0.0181,0.1597,-0.2033,209.625
13:35:19:381,-2.6898,-1.4275,13.118,44.5521,0.0479,0.238,-0.0081,210.0938
13:35:19:404,-1.8674,-1.503,13.8147,44.5183,0.0408,0.2143,0.0907,210.4375
13:35:19:423,-1.282,-1.8358,13.8063,45.7859,0.0834,0.2465,0.0537,210.5625
13:35:19:440,-1.7955,-1.9686,12.9839,47.1897,0.1329,0.3304,-0.0738,210.5156
13:35:19:461,-2.6491,-1.9818,12.918,46.5348,0.0447,0.3107,-0.1407,210.4375
13:35:19:482,-2.7413,-2.5301,13.8099,45.6103,-0.1135,0.2465,-0.0493,210.4531
13:35:19:503,-3.7241,-2.8988,13.8506,47.6776,-0.0322,0.2359,0.0849,210.625
13:35:19:524,-3.5685,-3.2136,12.3111,49.141,0.3244,0.2268,0.4196,210.7656
13:35:19:540,-1.9703,-3.2543,9.6835,46.8765,0.7276,0.1994,0.878,210.7031
13:35:19:566,-0.5506,-2.8341,7.5155,48.0368,0.8988,-0.0968,1.1091,210.2656
13:35:19:580,-0.0179,-2.3541,6.7063,47.1488,0.7372,-0.5786,1.0367,209.2969
13:35:19:602,-0.7445,-1.9938,7.8052,48.6128,0.3486,-1.0435,0.7768,208.0938
13:35:19:623,-1.3383,-2.2416,9.541,48.6156,-0.0013,-1.2049,0.5792,206.9844
13:35:19:642,-1.8123,-2.3996,10.5394,49.0047,-0.0868,-0.998,0.5464,206.0781
13:35:19:661,-2.0924,-2.2021,9.6428,48.6567,0.123,-0.5727,0.662,205.375
13:35:19:681,-1.7261,-1.8753,7.6544,49.827,0.4107,-0.202,0.8852,204.75
13:35:19:706,-1.1623,-1.3425,6.2765,49.1364,0.5862,-0.1109,1.0788,203.9688
13:35:19:723,-0.6415,-0.9403,5.4254,51.5892,0.6911,-0.2345,1.1826,202.9531
13:35:19:740,-0.3231,-0.7165,4.8843,49.7079,0.7662,-0.4749,1.1829,201.7969
13:35:19:762,-0.207,-0.7572,4.8005,51.3884,0.7571,-0.7253,1.1046,200.4531
13:35:19:780,-0.0681,-0.8625,5.2662,49.6068,0.6128,-0.8606,1,199.0938
13:35:19:805,0.0013,-0.8984,6.4836,50.9562,0.3662,-0.8571,0.9014,197.8281
13:35:19:823,-0.0394,-0.8924,8.059,51.8131,0.1001,-0.573,0.6889,197.2969
13:35:19:841,0.0145,-1.0026,9.0849,52.8558,0.163,-0.3652,0.5693,195.7188
13:35:19:862,0.0743,-1.2204,9.0586,50.4929,0.1404,-0.2044,0.4409,194.8125
13:35:19:883,0.1833,-1.418,8.812,50.4929,-0.0426,-0.2153,0.291,193.4219
13:35:19:909,0.3293,-1.6287,9.2645,54.1609,-0.3087,-0.3426,0.0916,193.4219
13:35:19:926,0.2802,-2.1302,10.4628,52.4145,-0.5611,-0.3588,-0.0896,192.9219
13:35:19:941,0.1545,-2.785,11.922,53.4871,-0.7262,-0.1591,-0.1524,192.5938
13:35:19:960,0.6753,-3.5727,12.6271,53.1888,-0.8085,0.1695,-0.1439,192.5156
13:35:19:980,1.3792,-3.568,12.1746,53.2986,-0.9207,0.3243,-0.2251,192.6562
13:35:20:000,1.2786,-2.7958,11.922,54.3369,-1.0762,0.1938,-0.4733,192.875
13:35:20:023,0.4514,-2.7348,13.1982,54.0962,-1.077,0.0793,-0.7106,193.0781
13:35:20:039,-0.9839,-3.3525,14.6658,54.4842,-0.7641,0.1938,-0.6259,193.375
13:35:20:063,-1.112,-3.805,14.1774,55.1474,-0.2791,0.2944,-0.2861,193.9844
13:35:20:080,0.4682,-3.6434,12.0729,55.4466,0.0565,0.14,-0.0235,194.8125
13:35:20:100,2.0208,-2.9479,10.3838,52.9363,0.1505,-0.0962,0.001,195.5781
13:35:20:123,2.7032,-1.898,9.4728,55.1645,0.0775,-0.0915,-0.1681,195.9688
13:35:20:141,2.5775,-1.2516,9.1711,55.5884,-0.0378,0.2364,-0.4214,195.9375
13:35:20:162,1.7323,-1.005,8.6851,55.2428,-0.0948,0.773,-0.5657,196.0156
13:35:20:182,0.9817,-0.8709,7.6149,54.2442,-0.0836,1.2228,-0.5649,196.3438
13:35:20:206,0.5819,-0.6303,6.231,53.3403,-0.0405,1.381,-0.4911,196.9531
13:35:20:224,0.4251,-0.2233,4.8999,54.1053,-0.028,1.1357,-0.4067,197.6406
13:35:20:241,0.285,0.1514,4.354,54.2382,-0.0748,0.7038,-0.3668,198.3125
13:35:20:260,0.0719,0.4411,4.8532,53.5805,-0.1409,0.4279,-0.3921,198.8906
13:35:20:282,-0.1184,0.4735,5.5247,54.5967,-0.1856,0.275,-0.4469,199.1406
13:35:20:306,-0.2944,0.5118,6.2957,55.2666,-0.2253,0.1032,-0.4989,199.5625
13:35:20:325,-0.7517,0.5285,7.4748,54.5416,-0.2317,-0.0267,-0.5058,200.0312
13:35:20:343,-1.2018,0.4244,8.8706,56.6336,-0.1752,-0.1098,-0.4685,200.5625
13:35:20:361,-1.8243,-0.0245,10.2808,53.567,-0.0991,-0.1301,-0.362,201.0938
13:35:20:382,-2.6287,-0.3178,11.7078,54.8087,0.0586,-0.1397,-0.1316,201.6719
13:35:20:407,-2.6203,-0.5968,12.5637,54.5303,0.2594,-0.1626,0.1147,202.2031
13:35:20:423,-2.0386,-0.659,12.4991,55.0059,0.302,-0.1599,0.2761,202.6875
13:35:20:441,-1.4424,-0.6147,12.5984,55.9139,0.1731,-0.1176,0.335,202.6875
13:35:20:460,-0.8498,-0.6662,13.44,53.7702,0.0461,0.0135,0.3219,202.4531
13:35:20:482,-0.3782,-0.811,14.1606,54.8681,-0.0048,0.2625,0.2881,202.0938
13:35:20:507,-0.2249,-0.7213,14.0361,53.3631,-0.0261,0.3616,0.2705,201.7188
13:35:20:524,-0.2345,-0.8266,14.6407,54.987,-0.0378,0.1368,0.197,201.375
13:35:20:541,-1.9057,-2.1542,15.1889,53.8538,0.1377,-0.1705,-0.0163,201.0938
13:35:20:560,-3.0764,-3.3561,14.0529,51.874,0.6067,-0.37,0.042,200.8125
13:35:20:581,-1.9739,-3.5356,11.612,53.8985,1.0235,-0.3026,0.4708,200.7031
13:35:20:609,-0.1699,-2.7372,9.2884,51.8324,1.0938,-0.1013,0.825,200.75
13:35:20:626,0.0492,-1.7208,8.0913,52.8598,0.8607,-0.1269,0.7565,200.4844
13:35:20:640,-0.468,-1.4168,9.1113,52.8334,0.4645,-0.4547,0.4876,199.7031
13:35:20:659,-0.9791,-1.5748,10.7692,50.4843,0.2248,-0.7759,0.3211,198.75
13:35:20:681,-1.4041,-1.3725,11.4588,49.6355,0.2762,-0.806,0.2596,198.0781
13:35:20:700,-1.1348,-1.1462,10.2497,51.8668,0.546,-0.4236,0.3251,197.4531
13:35:20:723,-1.1599,-0.908,8.1787,50.1208,0.7619,0.1288,0.3762,197.1562
13:35:20:741,-1.1599,-0.6686,6.1005,51.2648,0.8895,0.4947,0.4306,196.7969
13:35:20:760,-1.2006,-0.4782,4.9286,49.326,0.9052,0.4873,0.4884,196.3438
13:35:20:784,-1.1455,-0.3861,4.7203,50.8802,0.8639,0.2172,0.5648,196.0938
13:35:20:805,-0.96,-0.3777,4.9932,49.235,0.8562,-0.1476,0.6471,195.5469
13:35:20:824,-0.6499,-0.4651,5.429,49.1075,0.885,-0.4438,0.7283,194.9531
13:35:20:843,-0.2345,-0.3286,5.7773,48.6813,0.9105,-0.6249,0.821,194.2656
13:35:20:867,0.2934,0.0329,6.1281,48.8244,0.8874,-0.6536,0.8719,193.4844
13:35:20:879,0.7531,0.258,6.6524,47.5303,0.7936,-0.6137,0.8199,192.6719
13:35:20:900,0.9291,0.0305,7.0977,47.4151,0.6746,-0.4931,0.6258,191.7188
13:35:20:924,0.6489,-0.3059,7.0953,47.5203,0.4916,-0.3037,0.3627,190.75
13:35:20:948,0.4933,-0.6027,7.3862,45.3798,0.171,-0.1634,0.1328,189.9375
13:35:20:959,0.6489,-0.9678,8.7437,47.0889,-0.2431,-0.1884,-0.0432,189.4062
13:35:21:033,0.7256,-1.6394,10.8614,45.6666,-0.6067,-0.3365,-0.1998,189.0938
13:35:21:033,1.1661,-2.3828,12.2082,46.3165,-0.8046,-0.3634,-0.2877,189.1875
13:35:21:033,1.8137,-2.4056,11.5653,44.8822,-0.8695,-0.1053,-0.3093,189.4688
13:35:21:039,1.4869,-1.7496,11.4001,45.635,-1.0229,0.0111,-0.4499,189.875
13:35:21:062,0.212,-1.6861,13.1335,44.0884,-1.281,-0.1503,-0.7253,190.2969
13:35:21:083,-1.3502,-2.3948,14.5772,44.151,-1.346,-0.0467,-0.9266,190.8438
13:35:21:106,-1.4927,-3.0735,13.2365,43.5199,-1.0368,0.4108,-0.7886,191.75
13:35:21:126,-0.2321,-2.6761,10.2449,42.9416,-0.6623,0.8204,-0.3718,192.9062
13:35:21:143,1.5468,-1.8058,7.6628,43.3226,-0.5401,0.866,-0.035,193.7969
13:35:21:159,2.4757,-0.9523,6.6752,44.5429,-0.7513,0.4979,-0.0611,194.25
13:35:21:180,1.9071,-0.4854,7.7801,42.948,-1.183,0.0542,-0.4102,194.2969
13:35:21:201,1.0476,-0.6889,9.0717,42.9424,-1.4647,-0.0598,-0.7599,194.375
13:35:21:222,0.2838,-0.7871,9.0155,43.3713,-1.3896,0.1253,-0.9487,194.8594
13:35:21:241,-0.0083,-0.6806,7.7968,42.1889,-0.9334,0.5536,-0.819,195.7812
13:35:21:270,-0.2549,-0.2496,7.0953,41.9033,-0.8432,0.4902,-0.692,196.9062
13:35:21:279,-0.4093,0.149,7.3347,42.3849,-0.7044,0.3208,-0.5939,197.9844
13:35:21:300,-0.5925,0.3094,7.9153,40.1081,-0.5052,0.2513,-0.5058,198.9688
13:35:21:323,-0.9516,0.325,8.2098,39.8297,-0.3422,0.3323,-0.3703,199.8125
13:35:21:341,-1.0102,0.3849,8.2733,40.2486,-0.2996,0.4002,-0.2528,200.4844
13:35:21:360,-1.1024,0.5788,8.8168,39.9782,-0.3273,0.3549,-0.2169,201.0938
13:35:21:379,-1.3646,0.7201,9.966,40.3434,-0.3071,0.1935,-0.2363,201.5469
13:35:21:399,-1.8722,0.6219,11.6108,38.892,-0.1438,0.0156,-0.2251,201.875
13:35:21:424,-2.1355,0.0042,13.0701,40.394,0.1483,-0.0398,-0.1196,202.1406
13:35:21:440,-2.029,-0.6937,13.5776,39.381,0.4035,0.0321,0.0471,202.4219
13:35:21:459,-1.8422,-0.8697,13.2808,37.6872,0.4969,0.0923,0.1914,202.6875
13:35:21:482,-1.2748,-0.9906,13.1886,37.9159,0.4493,0.0564,0.2079,202.8125
13:35:21:507,-0.5494,-1.1402,13.8075,36.8939,0.3995,0.0862,0.0918,202.7656
13:35:21:525,0.0169,-1.4587,14.1487,37.1501,0.3739,0.2409,-0.0981,202.3281
13:35:21:543,-0.2357,-1.6406,13.5333,37.7253,0.2775,0.3118,-0.288,202.2656
13:35:21:558,-1.106,-1.8609,13.185,36.949,0.1451,0.1456,-0.3852,202.2656
13:35:21:579,-2.2109,-2.5349,14.0218,36.8172,0.1957,-0.1093,-0.3082,202.5312
13:35:21:599,-3.59,-3.3106,15.0417,33.9254,0.5635,-0.1974,0.0748,202.9219
13:35:21:625,-3.2404,-4.2742,14.2947,35.8475,1.0655,-0.121,0.5861,203.3594
13:35:21:643,-1.9093,-4.2731,11.2636,36.0154,1.2536,-0.2222,0.9307,203.5156
13:35:21:665,-1.0138,-3.1645,8.4696,34.8329,1.0394,-0.5562,1.0471,203.125
13:35:21:679,-0.3878,-2.086,7.7035,33.2116,0.7012,-0.8795,0.9827,202.2812
13:35:21:699,-0.0394,-1.7496,8.6204,35.3931,0.571,-0.9535,0.903,201.1094
13:35:21:725,-0.2309,-1.6119,9.2705,34.7708,0.6754,-0.8055,0.9669,200.5
13:35:21:743,-0.1603,-1.4694,8.9844,36.2371,0.8791,-0.5165,1.1166,199.3438
13:35:21:761,0.1354,-1.1654,7.8962,34.2605,1.085,-0.2329,1.2202,198.3594
13:35:21:779,0.3999,-0.9619,6.31,33.927,1.1942,-0.0986,1.2261,197.2344
13:35:21:799,0.5484,-0.7799,4.7502,33.3722,1.1116,-0.0947,1.1448,195.9219
13:35:21:823,0.5651,-0.5177,3.8991,34.3484,0.8847,-0.1727,1.0154,194.5625
13:35:21:840,0.5999,-0.4184,3.9326,34.1855,0.625,-0.3146,0.8487,192.4219
13:35:21:860,0.5424,-0.4902,4.7418,34.5702,0.4194,-0.4185,0.6599,191.1406
13:35:21:880,0.3999,-0.7272,5.903,34.5702,0.3057,-0.4648,0.528,190.0938
13:35:21:899,0.4012,-0.9786,6.7709,33.5643,0.224,-0.4403,0.4319,189.2344
13:35:21:924,0.1474,-1.0588,7.5239,33.134,0.1129,-0.4004,0.3531,188.5781
13:35:21:943,0.1043,-1.218,9.2274,34.3458,-0.0229,-0.4025,0.2535,188.0625
13:35:21:960,0.2695,-1.6107,10.1779,34.3458,-0.1798,-0.3791,0.1161,187.6406
13:35:21:979,0.4323,-2.068,11.0577,33.45,-0.3899,-0.2278,-0.0014,187.2969
13:35:22:000,0.4395,-2.317,12.0286,33.5455,-0.6227,-0.0038,-0.0909,187.125
13:35:22:023,1.1242,-2.7491,12.4931,33.6382,-0.7846,0.2497,-0.1231,187.1094
13:35:22:039,1.5121,-2.6414,12.0214,34.4972,-0.8549,0.4646,-0.1812,187.2188
13:35:22:059,0.7878,-2.2763,12.1663,33.7445,-0.9619,0.5144,-0.3218,187.4062
13:35:22:078,-0.6403,-2.4343,13.6112,33.6677,-1.0767,0.3823,-0.4509,187.6094
13:35:22:100,-1.3347,-2.8557,14.2779,34.1021,-0.9201,0.3379,-0.3668,187.9219
13:35:22:124,-0.4308,-3.3381,12.6247,35.183,-0.4437,0.3461,-0.0288,188.4531
13:35:22:140,0.9327,-2.955,10.0881,33.6939,0.012,0.1658,0.3741,189.2031
13:35:22:158,2.4685,-2.0488,8.2912,34.3712,0.1169,-0.121,0.6383,189.25
13:35:22:179,3.4071,-0.9942,7.3671,33.4704,-0.1481,-0.2254,0.5704,188.8281
13:35:22:201,3.3999,-0.349,7.6604,34.7569,-0.6477,-0.0965,0.18,188.125
13:35:22:225,2.9306,-0.2963,8.3894,34.6248,-1.1073,0.2553,-0.2991,187.4844
13:35:22:246,1.6868,-0.4315,8.9628,34.0289,-1.3113,0.6438,-0.7215,187.3125
13:35:22:260,0.3138,-0.404,8.9209,33.4495,-1.1875,0.903,-0.9306,187.4531
13:35:22:279,-0.5278,-0.2628,8.1967,33.1249,-0.8309,0.9552,-0.8632,188.0938
13:35:22:301,-0.7553,0.1,7.2665,33.7979,-0.424,0.8417,-0.6046,189.1719
13:35:22:323,-0.0502,0.8134,6.4657,33.6254,-0.0921,0.6284,-0.2653,190.3281
13:35:22:340,0.6549,1.485,5.9557,32.0599,0.0919,0.4361,-0.0706,191.25
13:35:22:359,1.0607,1.904,6.2945,32.995,0.0858,0.3224,-0.0954,191.7656
13:35:22:379,1.0583,1.9136,6.8787,33.2305,-0.012,0.4132,-0.2451,191.9531
13:35:22:400,0.2383,1.6706,7.9201,31.4131,-0.1276,0.5062,-0.4432,192.1094
13:35:22:422,-0.784,1.2552,9.7026,32.4926,-0.2349,0.4004,-0.5708,192.4219
13:35:22:440,-1.5681,0.6051,12.1495,34.8373,-0.2306,0.1661,-0.5719,192.9531
13:35:22:459,-1.9799,0.0054,13.586,33.9937,-0.0629,0.0388,-0.4856,193.6406
13:35:22:479,-1.7824,-0.3047,13.7895,32.6211,0.143,0.075,-0.3332,194.2656
13:35:22:500,-1.1647,-0.3597,13.9595,34.1942,0.2051,0.1813,-0.2038,194.8281
13:35:22:524,-0.681,-0.7045,14.4276,33.0269,0.168,0.2649,-0.2169,195.2031
13:35:22:542,-0.857,-1.2743,14.521,34.3418,0.1257,0.3299,-0.3457,195.4375
13:35:22:560,-1.6303,-1.5963,14.5856,33.0791,0.0815,0.3245,-0.4733,195.7031
13:35:22:581,-2.6586,-2.1015,15.8928,33.9424,0.0104,0.0713,-0.5042,196.125
13:35:22:600,-4.1227,-2.821,17.2851,34.5714,0.1129,-0.2022,-0.3972,196.6875
13:35:22:624,-3.8127,-3.7332,16.4686,34.6524,0.5499,-0.199,-0.0099,197.2344
13:35:22:640,-1.9811,-3.9055,12.8139,33.0427,1.433,0.4098,0.8101,197.6875
13:35:22:660,-0.4835,-3.1011,8.7174,32.2385,1.2474,0.2167,0.797,197.6875
13:35:22:680,-0.0921,-2.0704,6.5686,34.8547,0.7643,-0.3373,0.5842,197.6875
13:35:22:701,-0.4344,-1.5413,7.2522,35.5341,0.3731,-0.7695,0.3864,196.7344
13:35:22:725,-0.6439,-1.5556,8.788,34.3767,0.2818,-0.7698,0.3014,196.7344
13:35:22:741,-0.7134,-1.7232,9.2944,34.5533,0.3481,-0.46,0.3158,195.375
13:35:22:758,-0.9684,-1.5544,8.5666,34.9418,0.4048,-0.1173,0.4242,194.3281
13:35:22:778,-0.9695,-1.2659,7.7346,35.5195,0.4938,0.0193,0.5576,193.9844
13:35:22:799,-0.8917,-1.0816,7.0941,34.8214,0.6535,0.0263,0.6908,193.6406
13:35:22:824,-0.699,-0.8374,6.2418,36.6477,0.8032,-0.0598,0.8258,193.1719
13:35:22:843,-0.3279,-0.5884,5.6026,35.9554,0.8967,-0.227,0.9038,192.5312
13:35:22:858,0.127,-0.501,5.3476,37.1349,0.9209,-0.382,0.9094,191.7344
13:35:22:878,0.5508,-0.5357,5.2386,36.3756,0.8464,-0.3956,0.8625,190.8281
13:35:22:900,0.874,-0.3968,5.2506,37.7117,0.6658,-0.3149,0.7443,189.7969
13:35:22:927,1.0212,-0.2316,5.6157,36.0556,0.4373,-0.1751,0.5536,188.7812
13:35:22:943,0.9853,-0.167,6.2621,36.4033,0.2336,-0.0749,0.3422,187.8438
13:35:22:961,0.9602,-0.1048,7.0008,37.0285,0.0996,-0.0765,0.1091,187
13:35:22:978,0.9506,-0.2675,7.3539,36.8099,-0.0658,-0.2654,-0.1583,185.9688
13:35:22:998,0.6489,-0.647,8.1715,36.1578,-0.3497,-0.4923,-0.3857,185.8906
13:35:23:023,0.0408,-1.2013,9.7804,38.4228,-0.6725,-0.619,-0.5037,185.9219
13:35:23:040,-0.5721,-1.7328,12.098,37.6415,-0.8655,-0.5674,-0.4608,186.2812
13:35:23:106,-0.359,-2.1853,13.9607,37.8666,-0.8416,-0.2491,-0.3319,186.875
13:35:23:106,0.6238,-2.2966,13.78,37.2695,-0.824,-0.0318,-0.3359,187.5
13:35:23:106,0.789,-1.6849,13.0222,37.3106,-0.9422,0.0092,-0.4877,188.0312
13:35:23:118,0.4263,-1.3354,13.167,37.9887,-1.0458,0.0825,-0.6981,188.4219
13:35:23:142,-0.3997,-1.4994,13.6435,39.3069,-0.9566,0.2721,-0.7758,188.8906
13:35:23:159,-0.6176,-2.08,13.4316,40.0268,-0.6746,0.446,-0.6499,189.625
13:35:23:184,-0.0598,-2.3266,11.8179,38.8562,-0.4301,0.5158,-0.4411,190.5625
13:35:23:197,0.6394,-2.0668,9.9444,38.4364,-0.3974,0.3458,-0.289,191.3906
13:35:23:219,1.1936,-1.4599,9.0143,39.3811,-0.5028,0.0846,-0.2848,191.7344
13:35:23:241,1.1757,-0.9307,9.3279,36.8718,-0.5294,0.0148,-0.3644,192.25
13:35:23:260,0.9386,-0.8015,9.5027,39.4507,-0.3899,0.3096,-0.4059,192.5938
13:35:23:281,0.5687,-0.7512,8.3631,37.6729,-0.2328,0.6457,-0.3503,192.9219
13:35:23:299,0.2683,-0.4411,6.7661,38.5271,-0.1305,0.6875,-0.2286,193.5938
13:35:23:319,0.218,0.0988,5.7175,39.8277,-0.0799,0.442,-0.1564,194.0625
13:35:23:340,0.4179,0.9008,6.0515,38.8054,-0.0397,0.1213,-0.1529,194.3906
13:35:23:359,0.6382,1.0792,6.3567,38.8937,0.0027,-0.0054,-0.1881,194.6094
13:35:23:383,0.9339,1.4156,6.4321,39.8392,0.0218,0.0955,-0.2488,194.7969
13:35:23:398,0.9506,1.7208,7.3144,40.8518,-0.0573,0.1842,-0.3524,194.9844
13:35:23:420,0.6082,1.8142,8.7773,40.6273,-0.1561,0.1677,-0.501,195.2188
13:35:23:451,-0.2453,1.6347,10.361,41.2295,-0.1968,0.1999,-0.6611,195.5625
13:35:23:458,-1.4328,1.1786,11.8813,41.4576,-0.1917,0.3797,-0.7492,196.0469
13:35:23:481,-2.2241,0.5596,13.4926,42.7857,-0.0956,0.5275,-0.6754,196.6875
13:35:23:499,-2.5928,0.0473,14.2073,41.2196,0.1803,0.5293,-0.4605,197.5156
13:35:23:531,-2.2109,-0.1275,13.7165,42.2842,0.5486,0.3565,-0.1652,198.375
13:35:23:550,-1.5801,-0.2975,13.4807,41.0723,0.7273,0.0446,0.0529,199.0312
13:35:23:559,-0.9396,-0.6051,14.1032,41.535,0.6629,-0.2534,0.1443,199.4062
13:35:23:579,-0.0119,-0.6518,14.078,41.7688,0.5824,-0.3423,0.2005,199.4688
13:35:23:598,0.0085,-0.2867,14.0026,41.8333,0.4911,-0.3069,0.1499,199.2812
13:35:23:624,-0.3949,-0.4651,14.7675,41.2243,0.3734,-0.4598,0.0308,199.0625
13:35:23:642,-0.7924,-1.1151,14.8861,41.466,0.4535,-0.5868,-0.0432,198.8906
13:35:23:659,-0.8283,-1.8034,13.1048,42.3306,0.7625,-0.4481,0.0039,198.8594
13:35:23:679,-0.5458,-1.7304,9.9157,41.8128,1.0804,-0.0875,0.1688,198.9219
13:35:23:704,-0.1914,-1.2372,7.0846,42.7422,1.1207,0.0438,0.2958,198.9219
13:35:23:725,-0.1328,-0.732,6.2753,41.8388,0.8157,-0.3016,0.2782,198.8438
13:35:23:740,-0.304,-0.6255,7.5203,41.0328,0.3646,-0.8715,0.139,198.5781
13:35:23:758,-0.438,-0.8374,9.0191,42.6882,0.0562,-1.1844,0.0215,198.2188
13:35:23:778,-0.8558,-0.823,9.3052,41.0412,0.012,-1.0126,0.0034,198
13:35:23:800,-1.2413,-0.647,8.2015,39.7932,0.1462,-0.472,0.0764,197.9844
13:35:23:827,-1.2102,-0.3561,6.6979,40.5299,0.2815,0.0452,0.2029,198.0469
13:35:23:846,-0.8211,-0.1167,5.4146,42.0219,0.3172,0.3706,0.3238,198.0625
13:35:23:863,-0.6056,0.0329,4.6269,39.7094,0.2418,0.4857,0.3667,197.7656
13:35:23:878,-0.7134,0.0437,4.6209,41.0842,0.1017,0.4305,0.3637,197.3594
13:35:23:900,-0.8618,-0.1323,5.1692,39.4848,-0.0016,0.2375,0.3837,196.9062
13:35:23:924,-0.8043,-0.2161,5.8779,39.4848,-0.016,-0.023,0.434,196.4531
13:35:23:941,-0.3399,-0.2879,6.6069,40.0113,0.028,-0.2749,0.4825,196.0156
13:35:23:966,0.0013,-0.2161,7.4233,41.0694,0.0583,-0.4451,0.4532,195.5156
13:35:23:979,0.2563,-0.24,7.9872,39.4856,-0.0738,-0.2664,0.1296,194.5156
13:35:24:002,0.382,-0.5429,8.2948,39.8638,-0.2943,-0.019,-0.1215,194.1719
13:35:24:026,0.2467,-0.9607,8.7413,40.8641,-0.6032,0.1142,-0.3284,194.0469
13:35:24:045,-0.0645,-1.467,10.0785,40.9966,-0.8597,0.1722,-0.4515,194.0469
13:35:24:060,-0.4751,-2.1207,11.8622,42.491,-0.9396,0.2928,-0.4589,194.2031
13:35:24:079,-0.5518,-2.5492,13.1562,39.4084,-0.8932,0.557,-0.3641,194.5781
13:35:24:099,0.5711,-2.7863,12.9001,38.465,-0.9089,0.7973,-0.3276,195.1406
13:35:24:127,1.6318,-2.4391,12.1351,39.2723,-1.1156,0.716,-0.5191,196.1094
13:35:24:145,1.5803,-1.9471,12.8211,38.7302,-1.3476,0.4806,-0.8645,196.1094
13:35:24:160,0.4359,-2.4523,14.9926,39.822,-1.3105,0.5789,-1.0858,196.4844
13:35:24:177,-1.7429,-3.4662,16.0939,38.6311,-0.9286,1.0159,-0.7849,197.1094
13:35:24:198,-2.3402,-3.6925,14.4503,39.4882,-0.4384,1.214,-0.076,198.125
13:35:24:217,-0.1783,-2.9874,11.5234,38.5818,-0.1438,0.7075,0.4287,199.3281
13:35:24:242,2.283,-1.5784,9.7852,37.3609,-0.0362,-0.1807,0.4138,200.2656
13:35:24:261,3.2275,-0.252,9.7038,36.9459,-0.016,-0.8193,0.0029,200.375
13:35:24:278,2.6864,0.0616,10.3515,39.1938,0.0381,-0.7405,-0.4691,199.9219
13:35:24:299,1.3085,-0.7236,9.9636,37.9085,0.0863,-0.1136,-0.6616,199.4531
13:35:24:325,0.0001,-0.9798,8.2266,36.4064,0.0359,0.5592,-0.5561,199.4219
13:35:24:342,-0.5757,-0.5728,6.2825,37.6434,-0.0479,0.7711,-0.3897,199.9062
13:35:24:358,-0.7325,-0.0281,5.3105,37.6784,-0.0501,0.5187,-0.2829,200.6562
13:35:24:377,-0.766,0.3298,5.1644,36.4447,0.0621,0.1381,-0.2097,201.3125
13:35:24:398,-0.7601,0.2975,5.2111,36.4495,0.2011,-0.1929,-0.1556,201.7812
13:35:24:418,-1.0354,0.2376,5.2961,36.8343,0.2764,-0.3721,-0.077,202.2344
13:35:24:441,-1.3407,0.2197,5.4409,37.0799,0.2296,-0.4496,0.0058,202.4375
13:35:24:458,-1.5202,0.2352,6.0155,35.8564,0.0967,-0.4837,0.067,202.5781
13:35:24:478,-1.6459,0.2652,7.4281,35.071,-0.0237,-0.4473,0.091,202.5938
13:35:24:498,-1.95,0.1514,9.201,36.9835,-0.0874,-0.2853,0.1086,202.5469
13:35:24:518,-2.248,0.2221,10.8686,35.9049,-0.0802,-0.0528,0.1336,202.4375
13:35:24:542,-2.2397,0.0988,12.1974,36.4171,-0.0099,0.1962,0.1374,202.3281
13:35:24:559,-2.2816,-0.252,12.7863,35.1194,0.0639,0.3932,0.1826,202.1719
13:35:24:577,-2.2002,-0.422,12.8366,34.8081,0.073,0.4513,0.2822,202.0312
13:35:24:598,-1.6136,-0.4004,13.2377,33.8894,0.0844,0.3871,0.3073,201.875
13:35:24:619,-0.9803,-0.4986,13.689,34.6866,0.1526,0.364,0.2207,201.625
13:35:24:641,-0.7361,-0.6458,13.2772,34.1038,0.1558,0.4167,0.0782,201.2812
13:35:24:658,-1.3251,-0.6602,12.2872,32.8448,-0.0192,0.4052,0.0013,200.9688
13:35:24:679,-2.1666,-0.7859,12.4308,34.3145,-0.2128,0.307,0.1011,200.8125
13:35:24:700,-2.497,-1.3761,13.5022,33.3507,-0.1167,0.149,0.3256,200.7969
13:35:24:724,-2.691,-2.141,14.0565,32.7524,0.282,-0.015,0.6732,200.8125
13:35:24:741,-1.0677,-2.7599,10.3096,32.5718,0.7079,-0.0499,1.0748,200.6875
13:35:24:759,0.5053,-2.0488,8.8347,33.1591,0.7816,-0.3455,1.307,200.0156
13:35:24:778,0.7878,-1.1845,9.5219,32.0818,0.5111,-0.8031,1.1954,199.0156
13:35:24:800,-0.0538,-0.9296,11.3211,30.6249,0.1896,-1.0696,0.8671,197.7031
13:35:24:824,-0.5948,-1.3378,11.8969,30.2208,0.131,-0.8361,0.6692,196.2344
13:35:24:842,-0.9731,-1.4036,10.2329,30.2027,0.3672,-0.3857,0.6615,195.0625
13:35:24:858,-0.93,-1.1127,7.6089,31.5101,0.6605,-0.0113,0.8015,194.2188
13:35:24:877,-0.359,-0.8577,5.7426,31.8028,0.8053,0.0327,0.9885,193.5312
13:35:24:897,0.3018,-0.5154,4.6293,30.3618,0.8562,-0.1626,1.1068,192.7031
13:35:24:917,0.7148,-0.1658,4.3767,29.9982,0.8211,-0.4616,1.1044,191.6719
13:35:24:943,1.0679,0.0197,4.6688,31.7618,0.73,-0.6819,1.0202,190.5156
13:35:24:960,1.2128,0.1107,5.1812,30.4877,0.5984,-0.7738,0.8697,189.2344
13:35:24:977,0.9458,-0.082,6.2849,28.978,0.4248,-0.7943,0.674,188.0156
13:35:24:999,0.4083,-0.2903,7.7083,28.4446,0.2711,-0.6872,0.5198,186.9531
13:35:25:017,0.2048,-0.2185,8.2063,28.681,0.2503,-0.373,0.47,186.1406
13:35:25:039,0.3461,-0.1466,8.0051,30.1362,0.2647,-0.0086,0.4229,185.2344
13:35:25:059,0.716,-0.149,7.2342,27.196,0.1995,0.2822,0.2982,184.7344
13:35:25:077,0.71,-0.3071,7.1205,27.6529,-0.0626,0.3866,0.0697,184.2344
13:35:25:099,0.2012,-0.9439,8.6408,29.5704,-0.5438,0.3139,-0.231,183.8594
13:35:25:116,-0.104,-1.977,11.5988,26.5934,-0.9926,0.0678,-0.4304,183.75
13:35:25:204,-0.1495,-2.8437,14.1343,28.6475,-1.138,-0.0606,-0.4635,184.0156
13:35:25:204,0.7004,-3.2711,13.756,27.7355,-0.8863,0.1237,-0.3327,184.5625
13:35:25:211,1.6737,-2.6151,11.4348,27.5458,-0.5518,0.3171,-0.2009,185.1406
13:35:25:211,1.7563,-1.3689,10.5969,27.3263,-0.5726,0.1738,-0.2824,185.5312
13:35:25:229,0.7531,-1.2743,12.3781,26.2426,-0.8842,-0.1543,-0.6296,185.6719
13:35:25:242,-0.5386,-2.1853,13.7776,26.9354,-1.0397,-0.067,-0.9492,185.9219
13:35:25:259,-0.8582,-2.2906,12.948,26.0873,-0.8858,0.4675,-0.8944,186.4375
13:35:25:276,0.1701,-1.6059,11.3079,27.4304,-0.6666,0.7698,-0.5703,187.375
13:35:25:297,1.0895,-1.0134,11.3127,28.1057,-0.5744,0.406,-0.4174,188.5312
13:35:25:318,0.7184,-1.0684,12.4787,27.9506,-0.5132,-0.2499,-0.5367,189.4062
13:35:25:344,0.0049,-1.3988,12.2848,28.5784,-0.3057,-0.422,-0.6318,189.7031
13:35:25:359,-0.4704,-1.3761,10.4867,26.9323,-0.0471,-0.096,-0.5684,190.7969
13:35:25:377,-0.5015,-1.0157,8.0865,26.6162,0.1289,0.3456,-0.4017,191.5312
13:35:25:397,-0.0968,-0.4603,6.2274,27.0246,0.1443,0.5983,-0.2422,192.1406
13:35:25:419,0.0157,0.1682,5.8049,28.0299,0.0184,0.5901,-0.1689,192.6094
13:35:25:441,0.1773,0.5142,6.1688,26.6619,-0.0301,0.4492,-0.121,192.6094
13:35:25:463,0.2707,0.8697,6.1724,25.5261,0.0993,0.4252,-0.085,192.8906
13:35:25:479,0.6346,1.3474,5.7881,28.733,0.1595,0.3932,-0.1034,193.2656
13:35:25:499,1.3121,1.9722,5.3057,27.5028,0.1039,0.2177,-0.2997,193.4219
13:35:25:519,1.7994,2.6498,5.0926,28.2005,-0.1252,-0.1418,-0.7183,193.5312
13:35:25:541,1.3205,2.7288,6.4609,26.4984,-0.4408,-0.3857,-1.2209,193.6562
13:35:25:559,-0.7253,1.3857,9.5111,29.0681,-0.64,-0.1269,-1.4305,194
13:35:25:577,-3.0309,-0.337,12.6678,26.9528,-0.5923,0.5285,-1.0861,194.8281
13:35:25:598,-3.4164,-0.9415,13.9248,27.1265,-0.371,1.0183,-0.4989,196.1406
13:35:25:617,-2.4647,-0.5872,14.3629,27.2582,-0.0778,0.9088,-0.15,198.4844
13:35:25:641,-1.6016,-0.3382,14.9759,28.6823,0.2724,0.4409,-0.1239,199.4219
13:35:25:657,-1.6423,-0.8577,15.5588,26.6829,0.6352,0.1775,-0.1394,199.7656
13:35:25:677,-1.8853,-1.7723,14.6323,26.9979,0.8061,0.2974,-0.0403,199.8594
13:35:25:700,-1.7668,-1.9674,12.9324,27.8839,0.6999,0.4675,0.0945,200.2031
13:35:25:717,-1.5609,-1.3246,11.8311,28.8541,0.4506,0.5064,0.1272,200.2031
13:35:25:738,-1.264,-1.0409,11.7245,29.5588,0.322,0.3911,0.0612,200.2812
13:35:25:758,-1.5489,-1.2109,11.7856,30.3538,0.4096,0.1245,0.0263,200.2031
13:35:25:777,-2.0984,-1.6718,11.4851,30.04,0.6032,-0.1831,0.1232,200.0938
13:35:25:797,-2.0397,-2.1039,10.7525,30.5397,0.7356,-0.3876,0.2902,200.0469
13:35:25:817,-1.3107,-2.153,9.7337,31.2572,0.6804,-0.5154,0.3834,200.0312
13:35:25:843,-0.8822,-1.8992,9.2178,29.8793,0.4842,-0.5943,0.3555,199.9219
13:35:25:862,-1.1551,-1.7364,9.2944,32.8615,0.3377,-0.607,0.3536,199.625
13:35:25:879,-1.3706,-1.7903,9.4919,31.0971,0.3356,-0.4792,0.4548,199.25
13:35:25:896,-1.2521,-1.7101,8.9485,30.7281,0.4109,-0.2997,0.5989,198.6719
13:35:25:918,-0.9492,-1.4,7.8734,32.1925,0.4812,-0.2041,0.7083,198.25
13:35:25:943,-0.7014,-1.0469,6.8188,32.5319,0.5305,-0.231,0.7672,197.6875
13:35:25:960,-0.5793,-0.8386,5.9832,32.5319,0.5851,-0.2917,0.8024,196.9531
13:35:25:977,-0.3985,-0.7404,5.0363,33.5932,0.587,-0.3974,0.8167,196.1094
13:35:25:998,-0.1926,-0.6099,4.263,32.4698,0.5044,-0.5548,0.8042,195.2812
13:35:26:018,0.1162,-0.5225,3.9996,34.6325,0.3382,-0.7647,0.7366,194.3594
13:35:26:041,0.3317,-0.4184,4.4881,32.4726,0.1105,-0.9431,0.6165,193.4531
13:35:26:058,0.4598,-0.4148,6.1293,35.2107,-0.0913,-0.9762,0.4607,192.5938
13:35:26:077,0.3341,-0.6111,8.375,34.8402,-0.1808,-0.6893,0.307,191.9062
13:35:26:101,-0.1459,-0.6566,9.9983,36.1985,-0.1643,-0.1833,0.2175,191.3594
13:35:26:116,-0.383,-0.6458,10.227,34.9291,-0.1635,0.2526,0.1587,191
13:35:26:138,-0.0657,-0.4747,9.6895,36.2306,-0.2397,0.3336,0.025,190.75
13:35:26:158,-0.0585,-0.5764,10.5681,35.4258,-0.4155,0.0891,-0.2083,190.5469
13:35:26:179,-0.3447,-1.2252,12.3255,35.6123,-0.5787,-0.1721,-0.4107,190.4531
13:35:26:198,-0.2537,-1.9495,13.41,37.1474,-0.6293,-0.1586,-0.4691,190.5
13:35:26:217,0.6932,-2.2559,12.8354,35.925,-0.5872,0.1411,-0.3657,190.8906
13:35:26:242,1.0201,-1.6694,12.1423,37.8383,-0.6181,0.3309,-0.3231,191.4531
13:35:26:259,0.6657,-1.4503,13.2413,37.7481,-0.7795,0.1978,-0.4643,191.9688
13:35:26:276,-0.4668,-2.2823,15.0716,37.8816,-0.8613,0.0406,-0.6856,192.3438
13:35:26:300,-1.7201,-3.1633,14.9962,37.6025,-0.6783,0.3099,-0.6917,192.7812
13:35:26:316,-1.1766,-3.2136,12.6391,37.3467,-0.3033,0.8018,-0.2669,193.4844
13:35:26:337,0.9303,-2.3373,10.1048,37.2676,0.0288,0.8883,0.3283,194.3125
13:35:26:358,2.7463,-1.1774,8.4852,38.7068,0.2101,0.4462,0.6388,194.9375
13:35:26:377,3.0862,-0.3693,7.8471,39.245,0.2461,-0.1546,0.4647,194.8906
13:35:26:397,2.2746,-0.2328,7.9417,38.9509,0.1276,-0.5058,0.0583,194.3125
13:35:26:417,1.3696,-0.3501,7.6292,39.688,-0.0232,-0.3801,-0.2682,193.6094
13:35:26:442,0.5867,-0.1838,6.6488,40.1705,-0.1643,0.0524,-0.4435,193.3281
