Time,Acc_X,Acc_Y,Acc_Z,Meg,Gyr_X,Gyr_Y,Gyr_Z,Ore
20:48:23:601,-0.6523,2.4666,9.7445,52.8717,-0.3342,0.5272,0.4886,87.7812
20:48:23:626,-0.468,2.4487,10.3694,53.6241,-0.2501,0.4175,0.4817,87.7812
20:48:23:641,-0.2944,2.5253,10.3934,52.8442,-0.1092,0.2492,0.4386,87.7812
20:48:23:659,-0.3064,2.7372,10.027,54.4793,0.0208,0.1112,0.4031,153.0312
20:48:23:678,-0.517,2.9563,9.6571,52.8493,0.1023,0.0734,0.4348,152.4219
20:48:23:699,-0.5422,3.0436,9.4548,54.1217,0.1433,0.1365,0.5166,151.9062
20:48:23:727,-0.4249,3.0736,9.1615,53.0303,0.143,0.149,0.5816,150.9219
20:48:23:743,-0.3638,3.0053,8.9568,52.8282,0.1039,0.0995,0.6399,150.3125
20:48:23:759,-0.2704,2.9311,8.7785,54.3141,0.0274,0.0329,0.6948,150.0156
20:48:23:779,-0.1938,2.8892,8.7234,52.6087,-0.0767,-0.0195,0.7256,149.3125
20:48:23:800,-0.1914,2.8653,8.7892,54.9374,-0.1811,-0.0099,0.7568,148.5312
20:48:23:828,0.0468,2.7156,9.1615,54.3753,-0.236,0.0699,0.7509,147.7188
20:48:23:843,0.2156,2.6019,9.3591,53.8526,-0.2093,0.0596,0.6705,147.3438
20:48:23:858,0.1043,2.5851,9.3543,54.0276,-0.1111,-0.0401,0.572,146.4688
20:48:23:878,-0.2704,2.6881,9.1855,53.9633,0.0245,-0.0608,0.5387,145.5938
20:48:23:898,-0.5841,2.8018,8.9712,54.8663,0.1731,0.0343,0.5949,144.8438
20:48:23:927,-0.8355,2.821,8.6013,53.9464,0.3169,0.161,0.7225,144.1875
20:48:23:949,-1.1862,2.8725,8.217,54.0793,0.4464,0.144,0.9035,143.5781
20:48:23:958,-1.2772,3.2878,8.3631,54.7,0.5792,0.0337,1.0567,142.9062
20:48:23:979,-1.0414,3.5045,8.4253,55.2524,0.6709,0.0164,1.0727,142.0938
20:48:23:999,-0.7996,3.7571,7.7968,55.7579,0.5374,0.3032,1.0418,141.0625
20:48:24:024,-1.938,2.657,7.0355,55.349,0.2376,0.5389,1.2764,139.8594
20:48:24:039,-2.0984,2.5049,7.4952,56.233,0.0786,0.2002,1.703,138.0938
20:48:24:062,-0.7289,3.2005,8.8132,55.9479,0.1159,0.1142,1.8412,136.7656
20:48:24:078,0.5328,3.5764,8.9604,54.6028,0.2117,0.1757,1.7203,134.9688
20:48:24:098,1.5635,3.6973,8.4696,55.2569,0.2373,0.1554,1.4146,132.9688
20:48:24:121,2.0101,3.641,7.7932,54.3355,0.164,0.0489,1.0426,130.875
20:48:24:138,2.119,3.6422,7.2222,56.3163,-0.0605,0.0542,0.7025,129.0312
20:48:24:159,1.6976,3.5332,7.4317,54.0545,-0.3169,0.1429,0.4886,127.6719
20:48:24:180,0.9781,3.3824,8.1907,55.1458,-0.4605,0.1181,0.4279,126.6719
20:48:24:208,2.4805,2.7994,11.4109,56.1773,-0.4458,0.1797,0.4479,126
20:48:24:223,2.7534,2.3362,11.4348,55.6998,-0.2096,-0.0203,0.3014,125.4688
20:48:24:242,2.7594,2.3433,10.1851,57.5579,0.0607,-0.5074,0.0258,124.9688
20:48:24:260,2.9833,2.9491,8.8958,57.0494,0.1092,-0.7218,-0.1399,124.4688
20:48:24:280,3.2838,3.2531,8.9365,55.9016,-0.1779,-0.5988,-0.1519,124.3281
20:48:24:307,4.2079,2.9359,11.108,56.6793,-0.6522,-0.3221,-0.0837,124.5312
20:48:24:323,4.7311,2.0225,13.4017,57.1973,-0.9784,-0.0387,-0.1633,124.8438
20:48:24:340,4.3049,1.5592,14.1104,57.0493,-0.9734,0.0811,-0.5095,124.9688
20:48:24:359,3.0132,1.8118,13.1826,57.0181,-0.718,0.0481,-0.9023,125.2031
20:48:24:379,1.3421,2.3457,11.1188,57.2974,-0.4234,-0.1034,-1.0914,125.5781
20:48:24:403,0.9997,3.0077,9.6679,58.6719,-0.2764,-0.1551,-0.9138,126.3906
20:48:24:422,1.5013,2.9515,9.2334,58.5178,-0.2764,0.1951,-0.5061,127.5938
20:48:24:441,2.4961,2.3984,9.3423,56.6843,-0.3454,0.6545,-0.1857,128.75
20:48:24:458,2.8205,1.6646,10.367,57.5498,-0.4788,0.5903,-0.1918,129.5938
20:48:24:480,2.4757,1.5114,11.1978,58.3496,-0.4993,0.3509,-0.3937,129.8906
20:48:24:506,1.6353,1.509,10.871,57.4659,-0.326,-0.0108,-0.5503,129.9688
20:48:24:523,1.1936,1.6813,9.5697,56.3388,-0.0647,-0.3892,-0.5463,130.25
20:48:24:541,1.2212,1.8872,8.2565,58.4703,0.1087,-0.5983,-0.4597,130.7812
20:48:24:562,1.2559,1.9387,7.3407,55.9923,0.183,-0.6451,-0.3833,131.4375
20:48:24:580,1.4342,1.9303,6.7039,55.6444,0.2051,-0.6156,-0.3322,132.3281
20:48:24:599,2.1369,2.0524,6.8224,56.6135,0.1558,-0.5751,-0.3154,132.8438
20:48:24:623,2.2567,1.9627,7.324,55.6299,0.0615,-0.4797,-0.3774,133.2656
20:48:24:642,1.846,1.7783,7.7573,56.5143,-0.0051,-0.4584,-0.4989,133.6875
20:48:24:660,1.463,1.8585,7.8962,57.3812,-0.0186,-0.4361,-0.5689,134.1719
20:48:24:680,1.0536,2.0261,8.3248,56.4016,-0.0562,-0.2536,-0.558,134.7969
20:48:24:706,1.1158,2.2476,9.1316,57.8415,-0.1092,0.1102,-0.4608,135.4688
20:48:24:724,1.0512,1.9208,9.9193,57.5061,-0.0961,0.4319,-0.3394,136.1406
20:48:24:740,1.2846,1.7879,10.7249,56.7199,-0.0634,0.5216,-0.2981,136.4219
20:48:24:759,1.3732,1.825,11.047,56.9877,-0.0344,0.3376,-0.3601,136.8438
20:48:24:779,1.0129,2.0453,10.95,55.1801,0.0048,0.0457,-0.4389,137.125
20:48:24:801,0.5783,2.2583,10.9069,56.0027,0.0117,-0.1029,-0.4467,137.4375
20:48:24:824,0.5185,2.5097,10.938,57.4547,0.0128,-0.0502,-0.3511,137.875
20:48:24:839,0.218,2.4966,11.1906,56.3532,-0.0117,0.1882,-0.2214,138.375
20:48:24:859,-0.371,2.1781,11.3044,55.0917,-0.0562,0.4098,-0.1135,139.0469
20:48:24:880,-0.7074,1.8429,11.2158,55.8238,-0.1302,0.4444,0.017,139.2656
20:48:24:900,-0.766,1.5544,10.9727,56.2651,-0.2517,0.377,0.1821,139.3438
20:48:24:926,-0.4141,1.3689,10.9536,56.2485,-0.4197,0.2931,0.3544,139.2812
20:48:24:941,-0.116,1.151,11.0829,55.5004,-0.5404,0.1746,0.4383,139.0312
20:48:24:961,0.2515,1.0959,11.0003,54.9824,-0.5049,0.0241,0.433,138.6094
20:48:24:979,0.5855,1.1031,10.5538,57.269,-0.073,-0.0803,0.2817,138.0781
20:48:25:001,0.8991,1.1223,10.039,57.0374,0.135,0.046,0.1653,137.5781
20:48:25:023,0.6214,1.078,9.5362,56.8865,0.2301,0.2212,0.0684,137.1719
20:48:25:040,0.0672,1.0169,9.4812,55.8916,0.2309,0.3725,0.0439,136.8594
20:48:25:058,-0.7601,0.7584,9.6954,56.9673,0.216,0.4396,0.1445,136.6719
20:48:25:078,-1.4304,0.5309,9.6045,56.3671,0.1763,0.3528,0.4037,136.5781
20:48:25:099,-1.0402,0.5261,9.0837,55.7167,0.0783,0.1466,0.6817,136.5
20:48:25:124,-0.0825,0.5022,8.4289,54.8361,-0.0573,-0.1034,0.846,136.2969
20:48:25:140,0.8824,0.5345,7.9345,55.8027,-0.1507,-0.305,0.8428,135.4375
20:48:25:159,1.3277,0.5884,7.5239,55.8027,-0.1643,-0.3903,0.7201,134.5781
20:48:25:179,1.4247,0.8338,7.2558,57.1272,-0.1007,-0.2779,0.5685,133.6094
20:48:25:200,1.4893,1.1367,7.1648,56.9375,-0.0067,-0.0305,0.4543,132.7344
20:48:25:224,1.4211,1.3114,7.0594,55.6244,0.0405,0.1235,0.364,132.0781
20:48:25:240,1.0272,1.4419,7.1911,57.1584,0.024,0.1149,0.3182,131.7812
20:48:25:259,0.6178,1.7125,7.6699,56.1896,0.0075,0.0963,0.3611,131.2656
20:48:25:279,0.5077,1.9615,8.1129,56.3917,0.0117,0.0976,0.4868,130.8281
20:48:25:298,0.8477,2.1446,8.3882,58.7444,-0.0104,0.1291,0.5944,130.4688
20:48:25:322,1.4881,2.3026,8.6815,56.9524,-0.0668,0.1357,0.5912,130.0469
20:48:25:340,1.9897,2.4343,9.3722,55.4346,-0.0554,0.0116,0.454,129.4844
20:48:25:358,1.9837,2.4738,10.1348,56.6115,0.1076,-0.194,0.303,128.8281
20:48:25:379,1.6186,2.6761,9.9277,56.7733,0.2703,-0.3863,0.229,128.1406
20:48:25:399,1.6198,3.0448,8.9257,57.395,0.2352,-0.3631,0.2085,127.6094
20:48:25:425,2.0232,3.1801,8.648,57.1339,0.0298,-0.0723,0.1669,127.2812
20:48:25:441,2.1561,3.3561,9.9612,57.7459,-0.0876,0.2097,0.0961,126.9688
20:48:25:460,1.5755,3.2184,11.4085,58.6419,-0.0096,0.2593,0.1259,126.7812
20:48:25:479,1.2331,3.3273,11.952,57.9356,0.1039,0.0739,0.2252,126.625
20:48:25:499,1.7012,3.3884,11.5964,58.6318,0.0842,-0.1575,0.307,126.5
20:48:25:561,2.4518,3.2579,11.2289,57.2798,-0.1113,-0.1996,0.3254,126.2812
20:48:25:561,3.2287,2.973,11.958,56.6299,-0.2961,-0.0448,0.2471,125.9688
20:48:25:562,3.7961,2.5049,13.3358,56.8354,-0.2743,0.0556,0.038,125.6406
20:48:25:579,3.9529,2.0201,14.266,55.8512,-0.0408,0.0585,-0.2645,125.3125
20:48:25:599,3.8344,1.6897,13.9128,56.9345,0.2583,-0.0488,-0.6169,125.125
20:48:25:624,3.1856,1.5173,12.6044,56.1075,0.4354,-0.1727,-0.9205,125.2344
20:48:25:641,2.362,1.4934,11.2134,56.4204,0.4778,-0.2512,-1.0949,125.4219
20:48:25:658,1.6521,1.582,9.8798,55.8621,0.4152,-0.1508,-1.137,126.1406
20:48:25:680,0.7375,1.6083,9.0981,55.6795,0.3225,0.1983,-1.0848,127.8281
20:48:25:699,0.5963,1.4,8.8802,52.9556,0.3132,0.5115,-0.9849,129.0781
20:48:25:725,0.3928,1.1486,8.3727,54.5125,0.3563,0.6361,-0.8866,130.3594
20:48:25:741,0.3521,1.0301,7.8088,53.1008,0.3747,0.601,-0.7993,131.5
20:48:25:761,0.2994,0.9954,7.1001,53.5298,0.3859,0.4617,-0.7482,132.4531
20:48:25:778,0.2982,1.0098,6.3436,52.2556,0.3883,0.2817,-0.7545,133.3438
20:48:25:798,0.0995,0.9858,5.8408,52.3639,0.3566,0.1488,-0.8131,134.1562
20:48:25:825,-0.0214,1.1259,5.7258,52.4912,0.3361,0.0849,-0.8613,134.9375
20:48:25:843,-0.3542,1.1199,5.5906,52.4574,0.3691,0.039,-0.8864,135.8125
20:48:25:858,-0.4476,0.9786,5.4074,50.0441,0.4178,-0.0313,-0.8467,136.7656
20:48:25:879,-0.5925,0.8374,5.6576,49.4548,0.391,-0.0717,-0.7314,137.7812
20:48:25:900,-0.9719,0.671,6.5135,50.4984,0.2932,-0.0132,-0.6089,138.7656
20:48:25:925,-1.4747,0.6602,8.2565,51.1932,0.1449,-0.018,-0.4731,139.7031
20:48:25:941,-0.4943,1.4108,9.7757,50.799,0.0916,-0.194,-0.3101,140.4844
20:48:25:960,-0.0968,1.3916,10.8746,49.2044,-0.1068,0.1139,-0.3423,141.3438
20:48:25:979,-0.4249,1.2719,12.6056,49.7031,-0.4413,0.34,-0.4973,141.7344
20:48:25:999,-0.6571,1.6358,13.1407,50.1965,-0.6,0.2332,-0.5135,142.1094
20:48:26:024,-1.0581,1.7663,12.59,48.9246,-0.6498,0.0002,-0.4331,142.5781
20:48:26:041,-1.2485,1.752,11.7964,49.3212,-0.7191,-0.1647,-0.2754,143.0938
20:48:26:059,-1.2509,1.4407,11.2361,49.6662,-0.8509,-0.2417,-0.109,143.5469
20:48:26:078,-0.5146,1.3426,11.3642,49.9799,-1.0317,-0.1977,0.066,143.8125
20:48:26:099,0.2228,1.8358,12.4991,50.3858,-1.1715,0.0422,0.1728,143.8906
20:48:26:123,-0.1806,2.3529,14.0924,49.7626,-1.1193,0.4287,0.0945,143.8906
20:48:26:142,-0.9743,2.5863,14.7436,49.3695,-0.7308,0.7277,-0.0584,143.6719
20:48:26:158,-1.8243,2.4307,13.6519,49.5847,-0.09,0.7685,-0.1226,143.4219
20:48:26:182,-2.1786,2.0453,11.0685,48.2688,0.4866,0.5866,0.0063,143.2969
20:48:26:197,-2.4276,1.5006,9.0406,48.5282,0.6272,0.4231,0.2777,143.3281
20:48:26:218,-2.4288,0.8661,8.2553,46.8204,0.3558,0.344,0.5853,143.3594
20:48:26:240,-1.7932,0.4148,8.1308,45.4912,-0.041,0.1741,0.8585,143.0625
20:48:26:260,-0.7445,0.2831,8.1057,47.2382,-0.3763,-0.1314,1.0029,142.4062
20:48:26:278,0.2216,0.4986,8.077,46.8861,-0.5587,-0.4305,0.9957,141.4531
20:48:26:300,0.6238,0.7608,7.9596,46.579,-0.5404,-0.6268,0.862,140.2812
20:48:26:323,0.965,1.0864,7.7286,47.8303,-0.3374,-0.6973,0.6788,139.125
20:48:26:340,0.9805,1.2803,7.16,46.3539,-0.008,-0.6241,0.5004,138.1406
20:48:26:359,0.7782,1.4347,6.5243,48.1289,0.3342,-0.431,0.3579,137.4375
20:48:26:379,0.4167,1.4096,5.9497,46.6626,0.6384,-0.129,0.2814,136.9219
20:48:26:400,0.4179,1.4132,5.6193,46.5631,0.5505,-0.1642,0.343,136.9219
20:48:26:424,0.5939,1.4347,5.8264,46.5393,0.3483,-0.2635,0.4207,136.2969
20:48:26:439,0.7603,1.5939,6.741,48.8006,0.1217,-0.3596,0.4841,136.0312
20:48:26:458,0.9626,1.8166,8.0446,45.9544,-0.0051,-0.4457,0.5387,135.6719
20:48:26:478,1.3445,2.0105,9.2465,46.1549,-0.0397,-0.4486,0.576,135.2656
20:48:26:499,1.7491,2.0285,10.1982,45.7077,-0.0032,-0.4709,0.5773,134.75
20:48:26:523,2.2064,1.8741,10.6507,44.3584,0.0248,-0.4773,0.5105,133.875
20:48:26:542,2.945,1.8645,11.0542,46.1678,0.0112,-0.378,0.3081,133.5625
20:48:26:559,3.2826,2.0225,11.8766,45.2633,0.0477,-0.301,0.0218,132.7031
20:48:26:578,3.3699,2.3194,12.7792,45.0942,0.1846,-0.3122,-0.28,132.7031
20:48:26:603,3.085,2.5217,12.8318,45.4327,0.3627,-0.5634,-0.5556,132.1406
20:48:26:623,2.5332,2.4343,11.4995,44.7715,0.3385,-0.9146,-0.7047,132.1562
20:48:26:640,2.5056,2.5923,9.9815,45.1184,-0.0003,-1.0483,-0.7484,132.5156
20:48:26:657,2.3955,2.6534,9.8247,42.905,-0.4447,-0.8214,-0.7053,133.2031
20:48:26:677,2.4913,2.6917,11.5689,43.6961,-0.6567,-0.2723,-0.7138,134.125
20:48:26:698,2.6002,2.4032,13.744,42.0521,-0.4554,0.1466,-0.8584,135.0469
20:48:26:725,2.5882,1.9231,14.4647,45.5008,0.0522,0.0529,-1.1127,136.8438
20:48:26:741,2.2567,1.3162,12.5517,44.938,0.4099,-0.2366,-1.4209,137.25
20:48:26:764,1.7718,1.2827,9.9181,42.9268,0.3223,-0.1311,-1.6763,138.3594
20:48:26:777,0.7435,1.6143,9.0682,43.4292,0.049,0.3046,-1.6824,139.8125
20:48:26:801,-0.1998,1.7639,9.3914,43.2661,-0.0991,0.552,-1.4773,141.625
20:48:26:825,-0.5494,1.5353,9.2381,43.6326,-0.1614,0.3951,-1.2818,143.4844
20:48:26:843,-0.3435,1.2911,8.6994,43.6075,-0.2146,0.0114,-1.1932,145.25
20:48:26:859,-0.0825,1.1462,8.2098,45.0594,-0.2128,-0.3309,-1.1436,146.7656
20:48:26:878,0.0875,1.1271,7.8974,44.3177,-0.1254,-0.4816,-1.1058,148.0781
20:48:26:899,0.0935,1.1031,7.6173,43.7495,0.0386,-0.4473,-1.0629,149.4219
20:48:26:924,0.0013,0.9571,7.3312,43.3082,0.2349,-0.2944,-0.9886,150.7656
20:48:26:940,0.0085,0.6494,7.0295,45.1646,0.4202,-0.0899,-0.909,151.9844
20:48:26:958,0.2635,0.3322,6.6249,43.0011,0.5025,0.1299,-0.8573,152.6094
20:48:26:981,0.7028,0.2711,6.5758,43.0206,0.4946,0.2646,-0.8568,153.7812
20:48:26:997,0.4897,0.1873,6.6357,44.7291,0.4453,0.2614,-0.8262,154.8281
20:48:27:019,-0.0502,0.1586,6.5028,44.2565,0.2613,0.2846,-0.7351,155.75
20:48:27:042,-0.7433,0.3442,6.7697,43.3473,-0.0666,0.3869,-0.6012,157.1719
20:48:27:061,-1.5896,0.8015,7.9501,45.5402,-0.3755,0.4673,-0.3977,158.0312
20:48:27:079,-2.2744,1.3066,11.1715,43.7788,-0.5366,0.5246,-0.0549,158.7344
20:48:27:102,-1.5944,1.2001,12.0406,44.3387,-0.571,0.5621,0.3118,159.25
20:48:27:124,-0.96,1.1127,12.4943,43.2601,-0.5835,0.4684,0.5251,159.4531
20:48:27:142,-1.1742,1.0553,12.4607,44.3982,-0.6099,0.2257,0.5206,159.2031
20:48:27:158,-1.598,1.1055,12.1088,45.0631,-0.6503,-0.0057,0.4436,158.6406
20:48:27:177,-1.4771,1.2073,12.0872,45.6268,-0.7489,0.026,0.5004,157.9531
20:48:27:197,-0.4404,1.2121,13.0198,47.1571,-0.8927,0.3112,0.6897,157.375
20:48:27:217,0.8524,1.315,14.7855,46.9376,-0.9734,0.6465,0.8338,156.8594
20:48:27:240,1.2918,1.1881,15.3529,45.898,-0.7268,0.5152,0.7304,156.125
20:48:27:257,0.5927,1.151,13.4902,45.898,-0.167,-0.063,0.4279,155.1562
20:48:27:278,-0.6116,1.2468,10.7621,46.7642,0.347,-0.5378,0.139,154.1719
20:48:27:298,-1.774,1.3593,9.0298,45.4392,0.5252,-0.4507,0.0532,153.4531
20:48:27:324,-2.4527,1.3665,8.375,47.8757,0.4376,-0.0006,0.2098,153.1562
20:48:27:341,-1.95,1.1929,8.2278,45.9083,0.2626,0.3291,0.5531,153.1562
20:48:27:358,-0.4488,0.9068,8.2206,47.3681,0.0847,0.3536,0.9222,152.9375
20:48:27:378,0.8417,0.6375,8.041,48.0753,-0.008,0.0617,1.1059,152.2812
20:48:27:398,1.3636,0.5285,7.2558,48.9019,0.0229,-0.4124,1.0343,151.2656
20:48:27:425,1.4247,0.6375,6.3064,47.0057,0.1143,-0.8414,0.8215,150.625
20:48:27:443,1.4558,0.7572,5.6995,48.0504,0.225,-0.9754,0.6167,149.3906
20:48:27:460,1.3624,0.8913,5.3129,46.0622,0.3412,-0.7802,0.483,148.375
20:48:27:477,1.2942,1.1271,5.5128,46.9851,0.4168,-0.3769,0.4114,147.6719
20:48:27:498,1.0583,1.412,6.48,48.9185,0.4184,0.0686,0.3832,147.1406
20:48:27:525,0.6873,1.5006,7.3934,50.753,0.4213,0.3717,0.3946,146.6875
20:48:27:541,0.4706,1.8489,8.0758,48.3607,0.42,0.3954,0.4841,146.2656
20:48:27:560,0.0827,2.2978,8.7007,48.9637,0.326,0.3179,0.6106,145.8125
20:48:27:646,0.1869,2.6462,9.7469,48.0258,0.1233,0.1618,0.7765,144.9844
20:48:27:657,0.7148,2.7539,10.9991,47.8863,-0.0703,0.0334,0.956,144.25
20:48:27:657,1.7467,2.7551,11.7808,49.1287,-0.147,-0.1567,1.0878,143.375
20:48:27:658,2.7044,2.7743,11.928,49.9509,-0.1366,-0.4132,1.0815,142.2812
20:48:27:658,3.7746,2.9203,12.4643,49.4584,-0.1526,-0.663,0.9182,141.0469
20:48:27:679,4.111,2.9658,13.0928,49.9133,-0.1595,-0.7501,0.5978,139.9219
20:48:27:698,3.8548,2.8353,12.596,49.3528,-0.0264,-0.7991,0.1816,138.9531
20:48:27:724,3.7111,2.8832,11.4205,50.1214,0.1316,-0.827,-0.1961,138.3438
20:48:27:742,3.3161,2.73,10.8889,49.7566,0.1249,-0.6385,-0.4973,138.2344
20:48:27:758,3.1162,2.3338,11.1128,49.0738,0.0242,-0.3184,-0.685,138.5312
20:48:27:787,2.9773,1.8573,11.9029,52.1986,0.0309,0.4617,-0.9247,139.1719
20:48:27:798,2.4685,1.315,12.0681,50.4353,0.2589,0.3826,-1.0688,139.9844
20:48:27:818,1.9059,0.7907,10.5621,51.0798,0.3941,0.1003,-1.1647,139.9844
20:48:27:846,1.5923,0.7021,8.2817,48.8408,0.2136,0.0233,-1.1777,141.8594
20:48:27:862,1.2499,0.8506,7.0355,49.5077,-0.2205,0.3293,-1.0637,143.0156
20:48:27:877,1.2008,1.1534,7.7669,50.1775,-0.5409,0.7341,-0.8952,144.2656
20:48:27:896,1.1996,1.2624,9.1855,50.6534,-0.4975,0.8428,-0.783,145.6094
20:48:27:917,1.0332,1.2181,9.2214,49.4507,-0.278,0.6367,-0.7473,146.7969
20:48:27:941,0.7268,1.3042,8.32,50,-0.1222,0.3909,-0.7705,147.6875
20:48:27:959,0.6166,1.4383,7.6376,50.8843,-0.0562,0.2399,-0.7902,148.4844
20:48:27:976,0.7064,1.6358,7.7885,50.9825,0.0533,0.1112,-0.8006,149.2656
20:48:28:000,0.7603,1.661,7.9764,49.0269,0.265,-0.1205,-0.8249,150.1094
20:48:28:024,0.6202,1.6765,7.5622,49.5839,0.445,-0.3192,-0.8472,150.9375
20:48:28:041,0.5831,1.746,6.8344,49.2151,0.4669,-0.3458,-0.799,151.8438
20:48:28:057,0.5197,1.8429,6.5255,48.0476,0.3324,-0.2491,-0.6525,152.8125
20:48:28:076,0.6238,1.9387,7.0654,51.3524,0.126,-0.0824,-0.4469,154.75
20:48:28:096,0.6908,1.7855,8.4325,49.1335,-0.0242,0.0628,-0.2483,155.5312
20:48:28:117,0.5556,1.485,9.9121,49.2938,-0.0682,0.1131,-0.1077,155.8281
20:48:28:141,0.7375,1.2564,11.132,48.8903,0.017,0.1277,-0.0696,156.2031
20:48:28:160,0.546,1.0469,11.5486,49.6253,0.1537,0.1754,-0.1106,156.375
20:48:28:176,0.0743,1.1151,11.4612,48.7008,0.2426,0.234,-0.1716,156.4531
20:48:28:197,-0.8151,1.3414,11.1954,49.5918,0.2796,0.1783,-0.1718,156.5312
20:48:28:216,-1.6351,1.5616,10.6651,48.1302,0.257,0.0854,-0.0797,156.6719
20:48:28:239,-1.9081,1.7915,10.2234,48.7863,0.1779,0.0928,0.0439,156.8594
20:48:28:259,-2.0386,1.7065,9.9013,46.5196,0.0322,0.1181,0.1645,157
20:48:28:277,-1.5609,1.7268,10.0139,48.0172,-0.1348,0.1296,0.2002,157.0312
20:48:28:298,-1.6375,1.4742,10.2545,47.9825,-0.2924,0.1307,0.209,156.9688
20:48:28:323,-1.8901,1.2444,10.039,45.6163,-0.596,0.328,0.2519,156.7812
20:48:28:340,-2.114,1.2875,11.1559,47.651,-0.9473,0.8899,0.3595,156.5312
20:48:28:357,-1.8554,1.3294,14.0409,45.7583,-0.9191,1.1752,0.4708,156.2656
20:48:28:382,-1.0294,1.1211,16.2819,46.137,-0.4192,0.801,0.4386,155.9219
20:48:28:395,-0.6248,0.7296,15.669,46.7908,0.221,-0.0249,0.2372,155.0312
20:48:28:421,-1.3167,0.3226,12.3279,47.6347,0.4759,-0.5849,0.1256,154.3281
20:48:28:449,-2.2157,0.1945,9.0334,46.0587,0.3105,-0.6539,0.2569,153.875
20:48:28:457,-2.266,0.2161,6.9888,45.9287,-0.012,-0.5714,0.544,153.7656
20:48:28:478,-0.1627,0.3657,5.6756,46.7866,-0.2639,-0.5445,0.7709,153.6875
20:48:28:498,0.8896,0.6291,5.2757,45.7705,-0.3507,-0.5879,0.8655,153.3125
20:48:28:524,1.4271,1.072,5.3955,45.6871,-0.343,-0.5538,0.8095,152.5938
20:48:28:541,1.3301,1.4335,5.9617,46.1919,-0.2487,-0.3836,0.6404,151.7344
20:48:28:557,1.2894,1.9746,6.5267,45.6038,-0.0362,-0.076,0.4929,150.7969
20:48:28:576,1.0117,2.4223,6.6548,46.0283,0.2448,0.2652,0.3914,150
20:48:28:596,1.0212,2.8234,6.9026,43.3819,0.4421,0.5216,0.3826,149.4219
20:48:28:616,1.129,2.9574,7.0295,42.7695,0.5286,0.5365,0.4404,148.9062
20:48:28:641,1.5168,3.0568,7.1324,44.3011,0.4812,0.2311,0.5166,148.4531
20:48:28:658,1.8053,3.4459,7.7442,43.7248,0.2791,-0.1761,0.5499,147.9375
20:48:28:680,1.8245,3.8421,9.1663,44.0017,0.0181,-0.3873,0.5549,147.0781
20:48:28:696,1.9945,3.9367,10.5358,42.7223,-0.0844,-0.4462,0.5784,146.4844
20:48:28:716,1.8963,3.8876,11.108,44.0009,0,-0.4228,0.5842,145.8906
20:48:28:740,1.8245,3.9415,11.606,42.954,0.0863,-0.2997,0.5161,145.3125
20:48:28:758,1.4725,3.9391,12.5002,42.5057,0.0999,-0.1266,0.3757,144.7031
20:48:28:776,1.026,3.8373,13.1168,42.087,0.1353,-0.0472,0.2239,144.1406
20:48:28:798,0.807,3.5392,12.6475,41.2216,0.237,-0.1503,0.1131,143.9375
20:48:28:817,0.8848,3.4734,12.1004,43.6588,0.232,-0.3554,0.0457,143.6094
20:48:28:840,0.7136,3.0951,12.6547,41.9747,0.0349,-0.3519,-0.023,143.4375
20:48:28:858,0.7758,2.6845,13.5477,40.3591,-0.1364,-0.1101,-0.0499,143.375
20:48:28:876,0.8249,2.1051,13.7512,41.2763,-0.1161,0.1195,-0.0637,143.4219
20:48:28:897,0.8501,1.2791,12.1639,41.7404,0.1063,-0.0001,-0.0768,143.5
20:48:28:917,1.5085,0.6207,9.5171,39.2623,0.3073,-0.3916,-0.0294,143.5625
20:48:28:942,2.2614,0.1885,8.0554,39.8492,0.1715,-0.5186,0.0359,143.625
20:48:28:960,2.9833,-0.0054,8.5247,40.9545,-0.2298,-0.2289,0.029,143.7656
20:48:28:976,3.2227,0.1514,9.8511,39.9095,-0.5414,0.1631,-0.1095,143.7812
20:48:29:000,2.7498,0.1873,10.0019,39.3146,-0.4807,0.3597,-0.3886,143.7812
20:48:29:026,2.3548,0.3094,8.5283,39.8198,-0.1436,0.3166,-0.6579,143.7812
20:48:29:042,1.8461,0.5285,6.7673,39.3714,0.1441,0.2249,-0.8746,144.3125
20:48:29:058,1.4139,0.744,5.666,39.4164,0.216,0.2265,-1.0238,144.9844
20:48:29:077,1.3229,1.0193,5.4445,39.0535,0.1534,0.2162,-1.0962,145.9531
20:48:29:097,1.3612,1.3378,5.9389,40.1358,0.0791,0.1597,-1.1434,147.0938
20:48:29:117,1.1505,1.5939,6.3699,38.5581,0.0927,0.063,-1.1996,148.3281
20:48:29:141,0.7746,1.8597,6.3388,37.8617,0.1976,-0.1021,-1.2491,149.5469
20:48:29:158,0.4131,2.4187,6.5088,40.0728,0.2461,-0.1839,-1.2552,150.9219
20:48:29:178,0.2934,2.7635,7.215,36.7531,0.1902,0.1296,-0.9711,152.375
20:48:29:205,0.1545,2.955,8.2027,37.6024,0.1627,0.3605,-0.7239,153.7656
20:48:29:226,-0.2058,2.9622,9.1951,37.6957,0.1241,0.4774,-0.4589,156.2188
20:48:29:242,-0.3973,2.8976,10.1372,38.4887,0.0804,0.4454,-0.2129,156.6562
20:48:29:261,-0.7014,2.718,10.9548,38.3658,0.0575,0.3024,0.0465,157.4375
20:48:29:276,-0.8319,2.3349,11.1727,38.2533,0.0258,0.1679,0.3283,157.5625
20:48:29:296,-0.5769,1.9279,10.713,37.4398,-0.1577,0.2521,0.5379,157.625
20:48:29:318,-0.3255,1.6203,10.5933,36.7167,-0.4674,0.4537,0.6154,157.5312
20:48:29:343,-0.3578,1.3845,11.7209,37.2324,-0.6527,0.5613,0.5781,157.1406
20:48:29:360,-0.0262,1.1079,13.1251,37.5719,-0.6144,0.3922,0.3421,156.4844
20:48:29:377,-0.3195,0.9296,13.5741,37.5718,-0.4975,0.1637,-0.0195,155.7031
20:48:29:396,-1.2126,1.0768,13.4974,36.5735,-0.4631,0.2465,-0.2344,154.9688
20:48:29:417,-2.017,1.5604,14.0804,37.1999,-0.3491,0.2761,-0.1772,154.4531
20:48:29:442,-2.8059,1.5245,14.2229,37.3799,-0.0405,-0.1114,0.0724,154.4531
20:48:29:458,-3.0262,1.1845,12.5134,36.9139,0.1989,-0.5929,0.339,154.6719
20:48:29:476,-3.3206,0.7524,9.9792,37.2761,0.123,-0.6622,0.5936,154.8125
20:48:29:496,-3.4715,0.416,8.3667,37.4421,-0.1883,-0.3602,0.9038,154.7344
20:48:29:517,-2.3546,0.4603,8.0806,37.0941,-0.5132,-0.003,1.2016,154.4219
20:48:29:543,-0.4991,0.6746,8.7557,37.3863,-0.5822,-0.0116,1.3222,153.8438
20:48:29:558,0.8082,0.7464,8.7641,38.4233,-0.4208,-0.3141,1.2314,152.1875
20:48:29:576,1.5121,0.9332,7.828,38.8369,-0.1814,-0.6254,0.9616,150.6719
20:48:29:596,1.5133,1.2887,6.7027,40.6156,0.0676,-0.7778,0.6607,149.25
20:48:29:616,1.0392,2.0261,6.0826,38.7659,0.3478,-0.6678,0.4998,148.0156
20:48:29:639,0.619,2.5121,5.4864,37.9141,0.6163,-0.4592,0.5113,147.1562
20:48:29:655,0.4251,2.6809,4.5922,39.0429,0.7113,-0.2717,0.5922,146.625
20:48:29:716,0.6609,2.736,3.9901,39.4922,0.5731,-0.1122,0.6593,146.125
20:48:29:717,0.8417,2.7803,4.172,39.4873,0.3161,0.0686,0.7054,145.5312
20:48:29:717,1.3097,3.0269,5.5355,39.8318,0.1105,0.3661,0.7243,144.8594
20:48:29:737,1.8425,3.3501,7.6364,40.2648,0.1196,0.6329,0.7267,144.0938
20:48:29:760,2.131,3.3166,9.1759,39.1306,0.1824,0.6502,0.7025,143.2344
20:48:29:778,2.4398,3.2448,9.9648,39.4227,0.1185,0.4343,0.5749,142.3438
20:48:29:797,2.508,3.1107,10.379,39.407,-0.0767,0.0249,0.3882,141.4688
20:48:29:817,2.7235,3.3657,10.9811,38.5611,-0.3057,-0.2688,0.173,141.0312
20:48:29:843,2.872,3.4459,12.1088,38.1882,-0.3827,-0.3895,-0.0134,140.3281
20:48:29:861,2.0508,3.4674,14.023,37.8723,-0.2653,-0.4033,-0.1897,139.7656
20:48:29:879,1.5635,3.0652,13.2987,39.3385,-0.032,-0.4915,-0.3372,139.7344
20:48:29:896,1.6952,2.6246,12.2716,39.4558,0.0743,-0.5117,-0.3444,139.8906
20:48:29:916,1.8293,1.7232,12.4679,40.1863,-0.1009,-0.2393,-0.2563,140.2344
20:48:29:940,2.0795,0.9319,13.5812,39.8707,-0.3438,0.1922,-0.1924,140.7031
20:48:29:956,1.9837,0.1383,13.8242,39.6576,-0.3428,0.4111,-0.2424,141.1094
20:48:29:975,1.7754,-0.6135,12.3494,38.9358,-0.1262,0.1544,-0.3729,141.3594
20:48:29:999,1.7826,-1.0181,10.1851,41.209,0.0376,-0.2813,-0.5015,141.5469
20:48:30:015,1.7994,-1.0241,8.9796,39.1219,-0.0988,-0.3317,-0.6344,141.8594
20:48:30:035,1.4199,-0.926,9.2106,39.8159,-0.4527,0.0119,-0.7516,142.3594
20:48:30:060,0.935,-0.574,9.6966,40.4727,-0.7055,0.2817,-0.8715,143.0312
20:48:30:080,0.5208,-0.1526,9.4967,40.9164,-0.6839,0.2702,-1.0249,143.8438
20:48:30:101,0.2659,0.3274,8.569,40.5711,-0.4543,0.0758,-1.1522,144.75
20:48:30:115,0.1545,0.6734,7.1588,39.2004,-0.1561,-0.1074,-1.2161,145.8125
20:48:30:137,0.0001,0.9751,5.9042,38.685,0.0708,-0.158,-1.2267,147.6562
20:48:30:158,-0.292,1.2552,5.1369,40.1125,0.1587,-0.0411,-1.2006,149.0469
20:48:30:175,-0.3925,1.4371,5.1213,38.7659,0.1316,0.1251,-1.1021,150.4062
20:48:30:200,-0.0873,1.4192,5.66,38.7485,0.0746,0.2915,-0.9229,151.7812
20:48:30:215,0.5544,1.3318,6.5028,40.072,0.0461,0.3935,-0.734,153.0312
20:48:30:238,0.558,1.1055,7.3419,38.2056,0.0599,0.3498,-0.6595,154.0625
20:48:30:259,0.4825,1.163,8.1871,39.6379,0.0932,0.1988,-0.6818,154.4531
20:48:30:276,0.9183,1.5269,9.717,38.2525,0.1358,0.128,-0.6653,155.1875
20:48:30:296,0.479,1.5664,11.1679,37.2823,0.2328,0.3307,-0.5844,155.9375
20:48:30:316,-0.0358,1.8932,11.6934,37.8102,0.3918,0.5368,-0.4382,156.7188
20:48:30:342,-0.5123,2.5038,11.8646,38.3958,0.4453,0.4742,-0.3095,157.3906
20:48:30:360,-1.6746,2.8784,12.2728,38.6634,0.277,0.3205,-0.2728,157.9531
20:48:30:376,-2.612,3.0017,12.6068,37.3666,0.0088,0.0217,-0.1657,158.3281
20:48:30:401,-2.758,2.8006,12.2249,37.8363,-0.1827,-0.4092,0.1352,158.7812
20:48:30:415,-2.2277,2.1626,11.3702,37.7784,-0.3286,-0.7389,0.5368,158.9531
20:48:30:436,-1.3191,1.3857,11.1846,39.1797,-0.5585,-0.7229,0.8532,158.8438
20:48:30:456,-0.1914,0.6123,12.5266,38.388,-0.8306,-0.3559,1.0023,158.3125
20:48:30:477,0.6106,0.1299,14.2336,38.9231,-0.902,0.1536,0.9874,157.3906
20:48:30:496,0.4047,-0.744,14.1367,38.1323,-0.5515,0.2891,0.796,156.2344
20:48:30:517,0.206,-1.3653,11.8646,37.6586,0.041,-0.1167,0.5544,155.125
20:48:30:543,-0.2812,-1.4491,9.7852,37.3793,0.3989,-0.4749,0.3323,154.1875
20:48:30:560,-0.8666,-1.0457,9.1974,38.3771,0.2948,-0.158,0.2101,153.5625
20:48:30:579,-0.8822,-0.3777,9.7625,39.0399,-0.2112,0.7725,0.4058,153.2188
20:48:30:603,-0.5913,0.1119,10.0342,39.0399,-0.1292,0.4601,0.539,152.6719
20:48:30:615,-0.0466,0.4639,9.2226,39.8771,0.0975,-0.0789,0.5965,152.6719
20:48:30:636,0.3389,0.5812,7.3443,39.3496,0.2876,-0.5572,0.5683,152.1406
20:48:30:658,0.6214,0.6638,5.3284,40.1173,0.3076,-0.7863,0.4913,151.5156
20:48:30:678,0.8321,0.823,4.1529,40.4877,0.2298,-0.7615,0.4175,150.8438
20:48:30:701,1.0991,0.9894,4.032,40.3119,0.2003,-0.5652,0.3643,150.25
20:48:30:714,1.4534,0.9954,4.2402,39.5935,0.2269,-0.3466,0.3145,149.7812
20:48:30:736,1.9957,0.9631,4.6413,40.3064,0.2197,-0.1836,0.2226,149.3594
20:48:30:758,2.623,0.9535,5.4745,40.2548,0.139,-0.1003,0.0572,149
20:48:30:775,2.7115,1.1331,6.4381,41.1576,0.0272,-0.1415,-0.1135,148.6562
20:48:30:795,1.9682,1.5533,7.3563,41.0587,-0.1398,-0.0435,-0.1622,148.4375
20:48:30:814,0.9494,2.4942,9.0047,40.7402,-0.2911,0.3493,-0.0528,148.375
20:48:30:835,0.3736,3.052,11.023,41.6217,-0.2786,0.5906,0.2005,148.5156
20:48:30:859,0.5604,3.1155,12.3817,40.4257,-0.1822,0.4524,0.4029,148.7031
20:48:30:877,1.3049,2.9634,12.8749,41.8137,-0.1691,-0.1226,0.377,148.7344
20:48:30:896,1.6904,2.9275,12.9659,42.0672,-0.2866,-0.8784,0.1954,148.4531
20:48:30:916,1.6234,3.1669,13.2221,43.9208,-0.4378,-1.378,0.0809,147.9844
20:48:30:943,1.4223,3.4255,13.8578,42.5926,-0.4597,-1.3706,0.1422,147.5625
20:48:30:960,1.3923,3.3273,14.6658,42.8198,-0.3641,-0.9248,0.3296,147.4062
20:48:30:979,2.3979,2.7815,15.8234,42.9003,-0.1252,-0.2691,0.3856,147.4219
20:48:30:996,3.3293,1.9028,16.653,44.4017,0.3199,0.0476,0.1643,147.25
20:48:31:016,3.3352,0.9547,15.6869,43.5634,0.8006,-0.1061,-0.1921,146.8438
20:48:31:041,2.6601,0.3753,12.9324,43.3128,1.0024,-0.3253,-0.4536,146.5
20:48:31:060,1.8317,0.1419,10.1635,44.6049,0.8181,-0.1956,-0.4696,146.5
20:48:31:077,1.706,0.088,8.9125,45.2252,0.4578,0.2484,-0.3266,146.8594
20:48:31:096,2.1453,-0.0796,9.6093,46.3151,0.2935,0.6859,-0.2565,147.3906
20:48:31:116,2.3405,-0.3645,10.2808,46.5946,0.4234,0.8873,-0.3282,147.7969
20:48:31:140,2.3009,-0.5561,9.711,46.6612,0.6581,0.9032,-0.4991,148.0469
20:48:31:158,2.0891,-0.5249,8.3224,45.676,0.8357,0.7789,-0.7074,148.2656
20:48:31:175,1.7994,-0.4387,6.7434,46.8586,0.8887,0.5759,-0.9055,148.5938
20:48:31:197,1.4414,-0.2269,5.3464,47.7044,0.8109,0.2801,-1.0757,149.1719
20:48:31:215,0.9039,-0.0497,4.2295,47.3079,0.6437,-0.0675,-1.191,150
20:48:31:237,0.4323,0.1945,3.6273,48.2227,0.4171,-0.3237,-1.2424,150.5
20:48:31:259,-0.1208,0.6183,4.5599,47.8285,0.2338,-0.5322,-1.2771,151.6406
20:48:31:276,-0.7169,1.0936,5.3871,48.8413,0.1593,-0.9059,-1.3082,153.7344
20:48:31:299,-1.4089,1.8525,5.5235,48.6818,0.2013,-1.3586,-1.2573,155.25
20:48:31:314,-1.7704,2.7599,4.9418,48.2947,0.257,-1.3607,-0.9583,156.7656
20:48:31:336,-1.5238,3.3657,4.992,48.5527,0.1513,-0.7301,-0.3338,158.4375
20:48:31:358,0.4347,3.4076,7.1013,50.2714,-0.1609,0.3301,0.3797,159.9844
20:48:31:376,2.5906,3.058,11.7173,49.1741,-0.5529,1.8322,0.8623,160.9531
20:48:31:400,2.0172,2.1638,15.2584,49.4107,-0.5942,2.6215,0.9107,160.9375
20:48:31:414,1.2044,2.0153,15.9024,50.7306,-0.3539,2.3067,0.6729,160
20:48:31:435,1.2212,2.4032,15.1183,51.0891,-0.204,1.2761,0.3384,158.5625
20:48:31:459,0.8991,2.7432,13.5477,51.9557,-0.212,0.2659,0.0737,157.2969
20:48:31:478,0.1737,2.8306,11.9137,50.3026,-0.3151,-0.1399,0.1105,156.4219
20:48:31:495,-0.1627,2.548,11.1499,52.9224,-0.5353,-0.1117,0.3352,156.1094
20:48:31:515,0.0971,2.1518,11.5306,52.9224,-0.8024,0.0633,0.5094,156.0312
20:48:31:535,0.4706,2.05,12.2465,52.715,-0.9545,0.2548,0.5446,155.7969
20:48:31:560,0.4921,1.7771,12.3554,53.2304,-0.8791,0.319,0.4591,154.9219
20:48:31:577,0.4837,1.4946,11.3343,52.0639,-0.6088,0.1163,0.3334,154.2656
20:48:31:596,0.127,1.3246,9.7709,53.4437,-0.3065,-0.2808,0.1856,153.6562
20:48:31:615,-0.8678,1.3306,8.5809,54.0445,-0.1625,-0.4571,0.0561,153.2344
20:48:31:634,-2.2349,1.2193,8.2613,54.1133,-0.2136,-0.2488,0.0396,153.0312
20:48:31:657,-2.3558,1.0888,8.2865,54.1024,-0.3782,0.165,0.2479,153
20:48:31:679,-1.2712,0.92,8.4289,53.6483,-0.5875,0.454,0.5613,152.9844
20:48:31:696,0.036,0.9319,8.6336,54.664,-0.7316,0.3994,0.7797,152.6562
20:48:31:716,1.0009,1.0205,8.5833,54.8439,-0.7004,0.0574,0.8213,151.9844
20:48:31:772,1.2798,1.0205,7.9596,55.1921,-0.4991,-0.3567,0.7121,151.5156
20:48:31:772,0.9758,1.151,7.0139,55.1815,-0.2405,-0.6774,0.5174,150.5156
20:48:31:783,0.8932,1.3833,6.4944,55.6163,-0.0565,-0.7724,0.3469,149.6094
20:48:31:794,1.0272,1.7017,6.8092,54.8424,0.0823,-0.618,0.2372,148.9531
20:48:31:817,0.6968,1.8178,7.4628,55.1563,0.2722,-0.2939,0.1611,148.5
20:48:31:842,0.4359,1.8789,8.0853,56.9408,0.4887,-0.0257,0.1169,148.2344
20:48:31:859,0.1414,1.8645,8.3319,55.2225,0.6376,0.1464,0.1107,148.0469
20:48:31:878,0.1797,2.165,8.733,55.0553,0.6045,0.1504,0.1443,147.8438
20:48:31:896,0.1881,2.4056,9.9217,55.6449,0.4021,0.0795,0.1973,147.7188
20:48:31:916,0.1055,2.6869,10.8889,56.1225,0.277,-0.0478,0.2817,147.5625
20:48:31:943,-0.1459,2.8401,10.7166,55.3823,0.2906,-0.309,0.3089,147.3438
20:48:31:959,0.0803,3.0508,10.6387,55.0482,0.1505,-0.5042,0.4655,147.0312
20:48:31:976,0.9482,2.9539,11.2409,55.7915,0.0631,-0.4883,0.5376,147.0312
20:48:31:996,1.9227,2.6091,11.9879,55.7288,0.041,-0.5093,0.4561,146.7188
20:48:32:014,2.4757,2.1362,12.4512,55.9977,0.0165,-0.4885,0.2508,146.375
20:48:32:036,2.4829,1.8106,12.7026,57.2749,-0.0288,-0.3639,0.0508,145.8906
20:48:32:057,2.453,1.5101,12.8714,55.7522,-0.102,-0.0883,-0.052,145.3281
20:48:32:075,2.921,1.2803,13.2652,56.7161,-0.1462,0.1935,-0.1668,144.6562
20:48:32:095,3.1533,1.0038,13.7464,56.0495,-0.0245,0.1578,-0.3979,144.6562
20:48:32:119,2.6146,0.6327,13.0306,57.9547,0.2139,-0.1655,-0.6616,144.7656
20:48:32:141,1.8305,0.434,10.7764,55.6236,0.2735,-0.3519,-0.8059,145.0469
20:48:32:160,1.4714,0.6243,8.739,55.8774,0.0706,-0.1112,-0.7956,145.6562
20:48:32:177,1.4055,0.8074,8.1045,56.1761,-0.1779,0.3701,-0.7034,146.5
20:48:32:195,1.2918,1.0469,8.5929,57.0461,-0.2613,0.7656,-0.6454,147.4688
20:48:32:215,0.9841,1.1199,8.7916,56.6442,-0.1816,0.9789,-0.6243,147.9062
20:48:32:235,0.8824,1.2863,8.563,57.8259,-0.0288,1.0191,-0.6472,148.6875
20:48:32:259,0.8728,1.3282,8.2853,55.302,0.1406,0.8497,-0.7442,149.3125
20:48:32:276,0.619,1.3234,7.8471,56.0744,0.2724,0.4548,-0.8861,149.9375
20:48:32:294,0.1617,1.3653,7.3922,57.4068,0.3502,-0.0419,-0.9881,150.5625
20:48:32:315,-0.0598,1.4515,6.9146,55.8015,0.3918,-0.4116,-0.97,151.2969
20:48:32:334,-0.0502,1.6107,6.3891,55.5869,0.3907,-0.5445,-0.8493,152.2812
20:48:32:357,0.0468,1.6394,6.1819,55.1361,0.3579,-0.4283,-0.6728,153.4219
20:48:32:376,0.2299,1.5832,6.5974,56.2525,0.3492,-0.1809,-0.5151,154.5469
20:48:32:394,0.315,1.3258,7.2067,54.7307,0.3609,0.0252,-0.4065,155.5938
20:48:32:415,0.5376,1.2528,8.0004,56.1628,0.355,0.2151,-0.3734,156.75
20:48:32:435,0.4502,1.3426,8.8084,53.7688,0.3403,0.3831,-0.3543,157.2656
20:48:32:459,0.0516,1.6466,9.6835,55.4295,0.3374,0.503,-0.2541,157.7031
20:48:32:478,-0.3327,1.7771,10.1264,56.2543,0.293,0.4489,-0.0722,158.0938
20:48:32:495,-0.7756,1.7364,10.2162,54.3589,0.1241,0.336,0.1328,158.4062
20:48:32:515,-0.9552,1.6143,10.6866,56.4017,-0.102,0.271,0.3051,158.5469
20:48:32:536,-0.8031,1.4479,11.3474,54.3592,-0.2919,0.1893,0.4082,158.4531
20:48:32:559,-0.7229,1.151,11.8371,55.0356,-0.4328,0.0313,0.4394,158.1562
20:48:32:576,-0.6918,0.993,11.8227,55.989,-0.5491,-0.0867,0.438,157.7188
20:48:32:594,-0.8271,0.8086,11.6,55.1147,-0.641,-0.0805,0.4751,157.1875
20:48:32:617,-0.529,0.7213,11.5138,56.0942,-0.6972,0.063,0.5288,156.6562
20:48:32:634,0.0037,0.8027,11.8382,55.8722,-0.665,0.1978,0.5203,156.1562
20:48:32:656,-0.11,0.8493,11.8179,54.11,-0.5087,0.1405,0.4482,155.5469
20:48:32:678,-0.8582,0.9068,11.0913,54.0605,-0.3313,0.0201,0.3712,154.875
20:48:32:696,-1.7716,0.8386,10.7465,56.8302,-0.2642,0.0564,0.3728,154.5625
20:48:32:716,-1.7249,0.8122,10.4077,54.6507,-0.282,0.2052,0.5049,153.7969
20:48:32:734,-0.8163,0.8326,9.8511,54.38,-0.3273,0.2311,0.695,153.375
20:48:32:760,0.3042,0.8745,9.0717,54.5332,-0.3595,0.018,0.7906,152.875
20:48:32:776,1.5061,1.1235,8.4636,54.5353,-0.3223,-0.3402,0.7443,152.1719
20:48:32:794,1.6294,1.1905,7.6233,55.1796,-0.1526,-0.5644,0.5344,151.2812
20:48:32:814,1.5468,1.4671,6.9313,53.1048,0.1023,-0.6012,0.2588,150.375
20:48:32:833,1.0979,1.7005,6.2526,54.217,0.3603,-0.4496,0.0114,149.6719
20:48:32:858,0.8213,1.9124,5.5906,53.9856,0.5792,-0.2302,-0.1356,149.2812
20:48:32:875,0.3976,2.2272,5.6516,53.2621,0.6559,0.0047,-0.1849,149.1719
20:48:32:894,0.1162,2.4882,6.097,54.2701,0.6117,0.157,-0.1716,149.3125
20:48:32:914,0.1964,2.8365,6.8763,53.8313,0.4847,0.0856,-0.0874,149.5156
20:48:32:935,0.1557,3.1478,7.8028,54.6593,0.3281,-0.0249,0.0255,149.75
20:48:32:957,0.0791,3.4985,8.6252,52.6326,0.1995,-0.0843,0.1698,149.8906
20:48:32:976,-0.1938,3.6853,9.3219,53.8448,0.1313,-0.1146,0.2908,149.9375
20:48:32:994,-0.3494,3.8613,9.8774,52.9776,0.1153,-0.1431,0.3901,149.7344
20:48:33:014,-0.3387,3.8888,10.2353,52.6017,0.1252,-0.2222,0.4766,149.4219
20:48:33:034,0.1665,3.8194,10.2569,53.4597,0.167,-0.3642,0.5752,149.0156
20:48:33:060,0.8548,3.8361,10.2341,52.8522,0.1752,-0.4992,0.6545,148.5
20:48:33:075,1.4905,3.8876,10.7214,50.7164,0.0927,-0.5682,0.6561,147.8906
20:48:33:100,1.7838,3.7104,11.7688,50.9069,-0.0293,-0.5335,0.5978,147.25
20:48:33:114,2.0268,3.374,12.3518,50.3623,-0.057,-0.5051,0.5227,146.5625
20:48:33:134,2.3464,3.1023,12.3243,51.9608,-0.0325,-0.5444,0.4314,145.9531
20:48:33:159,2.6541,2.7599,12.5493,51.839,-0.1049,-0.5487,0.307,145.6719
20:48:33:174,3.3807,2.1386,13.653,52.385,-0.2996,-0.3279,0.2079,145.2188
20:48:33:194,4.0104,1.1821,14.4551,50.3019,-0.3449,-0.0723,0.0937,144.8594
20:48:33:220,4.1062,0.1981,12.7947,49.852,-0.0469,-0.1519,-0.1319,144.6406
20:48:33:234,4.0427,0.0353,10.3311,52.2442,0.2195,-0.3695,-0.4544,144.4844
20:48:33:256,2.9905,0.2137,9.3052,49.7771,0.0823,-0.2022,-0.8126,144.5
20:48:33:276,1.6186,0.7045,9.6284,52.3211,-0.2453,0.1956,-1.0187,145.1875
20:48:33:294,0.5735,1.2396,9.8547,51.7181,-0.4269,0.545,-1.0555,146.0938
20:48:33:315,0.0468,1.6299,9.5829,51.9853,-0.3689,0.8367,-0.9918,147.25
20:48:33:335,-0.1519,1.8489,8.8,49.9081,-0.138,0.9996,-0.8779,148.4062
20:48:33:361,-0.365,1.7639,7.6927,50.919,0.3808,0.6585,-0.6882,149.4531
20:48:33:378,-0.6164,1.4635,6.4477,51.3675,0.5036,0.2486,-0.6022,149.4531
20:48:33:395,-0.5673,1.145,5.4242,51.2701,0.5199,-0.3266,-0.5415,150.2969
20:48:33:417,-0.1124,0.8625,4.524,51.512,0.4008,-0.7812,-0.4962,151.0781
20:48:33:432,0.6884,0.8996,4.3504,51.3471,0.1864,-0.8438,-0.4896,152.4375
20:48:33:453,1.1709,0.8745,5.0387,49.4989,-0.0035,-0.7277,-0.4834,152.4375
20:48:33:474,1.5671,0.8913,6.5854,52.7999,-0.1302,-0.5117,-0.4661,153.7812
20:48:33:494,1.6737,1.0995,8.8754,51.8304,-0.0706,-0.1769,-0.5007,154.4219
20:48:33:514,1.3085,1.0313,10.4448,51.5039,0.0711,0.3128,-0.4653,155.6875
20:48:33:536,1.1685,1.2157,11.2182,50.4968,0.0735,0.8782,-0.345,155.9844
20:48:33:561,0.6633,1.248,12.2524,51.8652,-0.0197,1.0313,-0.1753,156.5156
20:48:33:580,0.1354,1.0086,13.1096,50.3616,-0.0996,0.5972,-0.0432,157.0156
20:48:33:599,-0.1651,0.8122,13.0461,50.8949,-0.1673,-0.0502,0.0268,157.0156
20:48:33:614,-0.535,0.8506,11.9675,52.1918,-0.2879,-0.4395,0.1105,157.0781
20:48:33:634,-0.8235,0.9655,11.102,52.1918,-0.4285,-0.3708,0.2439,157.0469
20:48:33:658,-1.1503,0.823,10.6591,51.0598,-0.5595,-0.0454,0.4303,157.0156
20:48:33:678,-0.9684,0.732,10.5693,51.8773,-0.7523,0.3794,0.5992,156.7031
20:48:33:694,-0.3399,0.9487,11.6431,51.6869,-0.8541,0.6614,0.6505,156.2344
20:48:33:713,0.2802,1.5066,13.1539,51.6294,-0.6746,0.5155,0.5062,155.875
20:48:33:734,0.1162,1.9363,13.0102,52.4992,-0.4005,0.1397,0.2601,155.0625
20:48:33:759,-1.0809,1.4659,12.9635,51.4894,-0.016,-0.0949,0.2833,154.3125
20:48:33:777,-0.8917,1.9782,11.527,53.0664,0.2504,-0.0891,0.278,153.8594
20:48:33:835,-1.5789,1.7376,10.0641,52.3287,0.2764,0.0398,0.3848,153.5625
20:48:33:835,-1.598,1.5784,8.9856,52.7856,0.2056,0.0894,0.5728,153.25
20:48:33:835,-0.7816,1.4312,8.2673,51.9944,0.1396,-0.0089,0.7187,152.9219
20:48:33:860,0.4071,1.254,7.7023,52.8239,0.147,-0.2667,0.7326,152.375
20:48:33:879,1.2906,1.1977,7.057,52.6569,0.2474,-0.5141,0.5999,151.625
20:48:33:895,1.4666,1.1295,6.3112,51.6848,0.3912,-0.5871,0.4141,150.8281
20:48:33:914,1.2451,1.1247,5.4721,52.4937,0.4953,-0.4781,0.2692,150.4375
20:48:33:933,1.1062,1.0852,4.8651,52.2746,0.4988,-0.3676,0.1845,149.8125
20:48:33:957,1.1003,1.0445,4.7933,54.6401,0.4048,-0.3511,0.1467,149.3906
20:48:33:974,1.2331,1.1462,5.2386,52.2795,0.2743,-0.353,0.1456,149.1562
20:48:33:995,1.0967,1.2444,5.9557,53.0165,0.1297,-0.1924,0.1872,148.9844
20:48:34:018,1.0284,1.6622,7.0044,53.6119,-0.0296,0.1211,0.2455,148.7969
20:48:34:033,0.8632,2.1949,8.812,53.2669,-0.081,0.4492,0.3315,148.6562
20:48:34:054,1.4235,2.7288,11.4899,53.5668,0.0565,0.5501,0.413,148.4219
20:48:34:075,0.9889,2.5457,11.6718,51.4127,0.2336,0.3703,0.373,148.0625
20:48:34:096,0.8537,2.6354,11.211,52.9734,0.3561,0.0332,0.3171,147.5781
20:48:34:113,1.2044,3.1729,10.5166,52.2133,0.4,-0.353,0.3166,147.0469
20:48:34:134,1.4474,3.4638,10.5155,54.0811,0.3172,-0.5554,0.3089,146.6406
20:48:34:159,1.9478,3.6949,10.8363,53.4078,0.2229,-0.558,0.3129,146.2969
20:48:34:179,1.9622,3.3513,11.2924,52.4069,0.2226,-0.5255,0.2383,146.0312
20:48:34:194,2.0711,3.0915,11.0601,53.8008,0.3515,-0.4808,0.119,145.75
20:48:34:217,2.7379,3.3297,10.4712,53.1978,0.4788,-0.4755,0.0117,145.4844
20:48:34:232,3.2215,3.2555,10.452,52.7531,0.4349,-0.3751,-0.0619,145.3594
20:48:34:254,3.9326,3.1801,11.0003,53.7567,0.2051,-0.2377,-0.0624,145.3438
20:48:34:278,4.6736,3.2088,12.3566,54.8321,-0.143,-0.0875,-0.0936,145.4375
20:48:34:294,4.5599,2.7132,14.0002,54.4848,-0.4234,-0.0092,-0.2118,145.5938
20:48:34:313,4.5886,1.977,14.1762,54.6004,-0.3622,-0.2158,-0.3348,145.7188
20:48:34:334,5.1488,1.8202,12.8761,54.0985,-0.0447,-0.5636,-0.4757,145.9688
20:48:34:355,5.2063,1.6957,11.2158,55.4152,0.2072,-0.7098,-0.7844,146.3906
20:48:34:375,4.5802,1.6155,10.1946,54.3949,0.2879,-0.6057,-1.1884,147.0156
20:48:34:394,3.4358,1.5951,9.7505,53.2888,0.3156,-0.3061,-1.558,148.0156
20:48:34:414,2.3823,1.5078,9.5051,52.0141,0.4232,0.1243,-1.8382,149.4531
20:48:34:435,1.6425,1.4443,9.0777,54.4361,0.6932,0.63,-2.0422,150.2344
20:48:34:460,0.7699,1.1881,7.8782,52.6624,1.1036,1.0247,-2.1964,152.1875
20:48:34:477,-0.0597,0.999,6.0934,52.4154,1.4288,1.0913,-2.2784,154.3281
20:48:34:494,-0.8163,1.06,4.6006,52.8097,1.4967,0.8665,-2.2859,156.4688
20:48:34:516,-1.513,1.3461,3.6214,50.3705,1.3225,0.5514,-2.166,158.8125
20:48:34:533,-1.8219,1.7077,3.1976,50.892,0.9926,0.2777,-1.8701,161.2188
20:48:34:553,-1.841,1.8597,3.3819,51.4116,0.584,0.01,-1.4145,163.6719
20:48:34:574,-1.4209,1.7137,3.7997,52.7965,0.159,-0.1961,-0.9157,166.8438
20:48:34:593,-0.5637,1.6885,4.7287,51.2241,-0.289,-0.3122,-0.5383,168.5
20:48:34:613,0.0205,1.7759,6.4513,52.2059,-0.7145,-0.3836,-0.3676,169.6094
20:48:34:633,-0.1507,2.0788,8.6336,52.6905,-1.0163,-0.3652,-0.334,170.25
20:48:34:655,-0.9624,2.3469,10.5478,52.438,-1.0565,-0.2278,-0.2925,170.7188
20:48:34:678,-1.379,2.7348,11.5007,53.1628,-0.894,0.0295,-0.0725,171.125
20:48:34:694,-0.9588,3.0125,11.8885,52.5476,-0.7744,0.2825,0.2705,171.4375
20:48:34:715,-0.6511,2.7875,12.1471,51.924,-0.8336,0.3978,0.5288,171.4688
20:48:34:736,-0.462,2.5014,12.2082,53.4699,-0.9979,0.2111,0.67,171.0625
20:48:34:760,-0.0969,2.6905,12.0058,51.8829,-1.1875,-0.0795,0.7557,170.3594
20:48:34:777,0.0348,3.1155,11.9232,52.9521,-1.718,-0.1287,0.9046,169.9375
20:48:34:801,0.2036,3.4088,12.5302,51.5041,-1.8642,-0.0784,1.0098,168.5781
20:48:34:813,0.7854,3.4494,13.5046,52.1809,-1.5915,-0.1351,1.0695,167.5781
20:48:34:844,1.5839,3.204,13.5968,52.0557,-0.9031,-0.1935,1.0146,165.2969
20:48:34:855,2.3093,2.4116,12.2453,52.5629,-0.1161,-0.2185,0.7342,165.2969
20:48:34:878,3.0384,1.6047,10.4233,52.7576,0.4493,-0.3226,0.1355,164.0156
20:48:34:894,3.1557,1.3234,8.7809,50.3988,0.6879,-0.223,-0.5939,162.9062
20:48:34:912,2.0903,1.3665,7.8806,51.1496,0.6298,0.3197,-1.0715,162.0781
20:48:34:933,0.3868,1.6885,8.2086,51.5341,0.4144,1.0793,-1.1245,161.9688
20:48:34:954,-0.9947,1.8262,9.1639,52.4137,0.1678,1.5062,-0.8035,162.6406
20:48:34:980,-1.2138,1.7125,10.4628,49.8019,0.0439,1.1983,-0.3772,163.8438
20:48:34:996,-0.456,1.2288,11.1547,51.226,0.0932,0.4199,-0.1005,165.0312
20:48:35:013,0.8105,0.7464,10.446,49.9218,0.245,-0.4188,-0.0973,165.7969
20:48:35:033,1.7694,0.592,8.8431,49.5127,0.3832,-0.8504,-0.3034,166.0781
20:48:35:054,2.0316,0.6434,7.3755,51.317,0.4858,-0.7386,-0.5655,166.3281
20:48:35:077,1.7168,0.6853,6.3388,48.1307,0.5457,-0.3096,-0.7529,166.5312
20:48:35:094,1.1481,0.9032,5.8049,49.8587,0.5401,0.173,-0.8334,167.1406
20:48:35:113,0.4155,1.1402,5.6205,47.5024,0.4362,0.5283,-0.7766,168
20:48:35:134,-0.1387,1.3557,5.7917,49.4596,0.2091,0.6777,-0.6225,168.9688
20:48:35:160,-0.2369,1.7496,6.5435,49.0272,-0.0892,0.5514,-0.4499,169.8594
20:48:35:176,0.1318,2.1362,7.7669,49.3108,-0.3414,0.2585,-0.3101,170.5938
20:48:35:193,0.4909,2.4128,9.1484,50.4671,-0.4543,-0.1074,-0.2193,171.125
20:48:35:214,0.5628,2.5516,9.9803,48.0891,-0.4248,-0.5389,-0.1441,171.4531
20:48:35:234,0.8333,2.6917,10.2353,48.7541,-0.3345,-0.7825,-0.105,171.7031
20:48:35:258,1.4785,2.7994,10.3526,48.6726,-0.2091,-0.7208,-0.162,171.9062
20:48:35:279,2.1824,2.73,10.5789,49.3375,-0.057,-0.5117,-0.3034,172
20:48:35:296,2.8803,2.7073,11.1918,47.3943,0.1369,-0.1807,-0.5516,172.1719
20:48:35:312,3.832,2.73,12.3925,47.6495,0.4842,0.2694,-0.9894,172.4375
20:48:35:334,3.8799,2.6366,13.1239,47.548,0.931,0.4838,-1.4259,172.8281
20:48:35:353,2.8468,2.5923,12.2596,47.9349,1.1255,0.295,-1.5836,173.5
20:48:35:378,1.8448,2.8772,10.7441,48.8267,0.8858,-0.0627,-1.5285,175.3594
20:48:35:394,1.4893,3.0999,9.9193,47.8998,0.334,-0.1463,-1.4108,177.1562
20:48:35:413,2.1058,3.216,10.6938,48.1533,-0.3169,0.2934,-1.423,178.9375
20:48:35:436,2.3728,2.8641,13.0964,47.4531,-0.6261,0.3709,-1.5862,180.7031
20:48:35:460,0.9937,0.5944,15.2739,47.8036,-0.3001,-0.1791,-1.6994,182.2969
20:48:35:480,1.3492,0.1335,11.9735,46.9453,0.3731,-1.0614,-1.7245,183.8906
20:48:35:494,2.0484,0.1035,8.5127,47.2144,0.7654,-1.5051,-1.802,185.625
20:48:35:512,2.3093,0.0233,6.7362,47.4414,0.7073,-1.3325,-2.0235,187.6719
20:48:35:533,1.9622,-0.0521,6.5064,45.3883,0.4522,-0.9421,-2.3173,189.9062
20:48:35:552,1.0871,0.0796,7.0271,46.3649,0.2362,-0.5349,-2.5714,192.2188
20:48:35:577,0.315,0.1814,7.8076,45.5516,0.1595,-0.2638,-2.7096,194.9062
20:48:35:597,0.0013,0.2951,8.2158,46.9855,0.2365,-0.1897,-2.7298,197.8438
20:48:35:618,-0.1555,0.4316,7.9632,45.9537,0.4163,-0.3772,-2.7122,200.9531
20:48:35:632,-0.1878,0.659,7.2103,46.2059,0.5827,-0.6102,-2.6749,203.9688
20:48:35:653,-0.1902,0.8972,6.6967,45.894,0.6261,-0.6534,-2.582,208.75
20:48:35:677,-0.4285,1.1989,7.0546,46.4085,0.5001,-0.4084,-2.4515,211.7812
20:48:35:695,-0.5805,1.5042,8.1643,46.1185,0.293,0.0036,-2.2803,214.8906
20:48:35:712,-0.699,1.6382,9.0837,46.371,0.1625,0.2255,-2.0206,217.7969
20:48:35:737,-0.5434,1.5305,9.231,45.4824,0.138,0.1165,-1.6661,219.1562
20:48:35:762,-0.1483,1.6059,9.4967,45.488,0.0557,-0.1253,-1.2771,221.5156
20:48:35:780,-0.4811,1.6251,10.4628,45.1078,-0.1358,-0.3389,-0.9761,223.625
20:48:35:796,-1.0988,1.6107,12.043,45.1078,-0.2826,-0.4662,-0.6914,225.3281
20:48:35:813,-1.373,1.5832,13.0006,45.0928,-0.2333,-0.5056,-0.354,226.625
20:48:35:833,-1.1539,1.3569,12.8654,45.9165,-0.0274,-0.5104,-0.031,227.5625
20:48:35:913,-0.6559,1.1211,11.9472,45.5888,0.1297,-0.5506,0.1842,228.1875
20:48:35:914,-0.5458,0.9667,11.1918,45.4539,0.0698,-0.6089,0.2229,228.4375
20:48:35:914,-0.8403,0.8709,10.8255,45.1538,-0.1505,-0.66,0.1334,228.4062
20:48:35:914,-0.6846,1.2839,11.0027,43.8696,-0.4509,-0.5357,0.0596,228.1406
20:48:35:932,-0.1555,1.728,12.2369,41.8341,-0.7462,-0.3263,0.0066,228.0469
20:48:35:963,-0.2728,1.1905,13.1419,43.6304,-0.7446,-0.3562,-0.081,228.0156
20:48:35:979,-0.3542,0.7308,12.0836,43.1569,-0.3095,-0.6275,-0.1604,227.9844
20:48:35:995,-0.3902,0.5596,9.6069,43.5902,0.2474,-0.8307,-0.2746,228.0625
20:48:36:012,-0.7696,0.58,7.6316,42.6652,0.4778,-0.6142,-0.4448,228.2656
20:48:36:034,-1.2185,0.9308,7.3371,42.3572,0.2525,-0.0368,-0.6014,228.6719
20:48:36:060,-1.4663,1.2229,8.0291,43.0747,-0.1518,0.5144,-0.7324,229.2656
20:48:36:077,-1.5082,1.3521,9.0705,43.5916,-0.4605,0.6343,-0.7585,229.2656
20:48:36:093,-1.4556,1.3473,9.5745,42.8795,-0.5236,0.3584,-0.6709,230.7031
20:48:36:113,-1.2018,1.3438,9.1256,41.821,-0.3593,-0.0741,-0.4621,231.4844
20:48:36:133,-0.7672,1.3617,7.7885,42.1209,-0.1167,-0.4861,-0.2168,232.1875
20:48:36:153,-0.0574,1.4204,6.255,42.3871,0.0218,-1.0875,0.0956,232.6719
20:48:36:177,0.3952,1.5437,5.4338,41.8292,-0.0743,-1.1152,0.1624,232.6719
20:48:36:194,0.5604,1.6502,5.0854,41.1562,-0.1896,-0.9437,0.2279,232.9531
20:48:36:213,0.8764,1.9303,5.3751,40.9905,-0.2916,-0.6518,0.2564,233.0156
20:48:36:243,1.2511,2.3074,6.4537,41.3802,-0.2879,-0.3359,0.2167,232.7188
20:48:36:254,1.4977,2.402,7.8423,39.5568,-0.1332,0.0135,0.1677,232.7188
20:48:36:277,1.6796,2.4499,8.806,39.9864,0.0559,0.3165,0.1326,232.4688
20:48:36:294,2.0891,2.748,9.4189,39.1675,0.1529,0.3831,0.0492,232.2656
20:48:36:311,1.949,2.9179,10.0163,39.1764,0.1555,0.1514,-0.0318,232.0625
20:48:36:332,1.8018,2.9407,10.6795,39.2574,0.1172,-0.2339,-0.028,231.8906
20:48:36:353,2.623,3.1645,11.5665,38.4215,0.1236,-0.4755,-0.0754,231.8281
20:48:36:374,3.2167,3.119,12.8893,39.0027,0.2597,-0.5335,-0.2547,231.8438
20:48:36:394,2.9031,2.8677,14.102,38.0047,0.5558,-0.5722,-0.4837,231.8906
20:48:36:412,2.6062,2.7827,14.4072,39.2924,0.9361,-0.7474,-0.6917,232.0156
20:48:36:432,2.0771,2.4882,13.4268,37.1112,1.2456,-1.0947,-0.7841,232.3438
20:48:36:453,1.5468,2.2152,11.1786,38.5409,1.2077,-1.3961,-0.701,232.9375
20:48:36:476,1.7934,2.4762,9.0993,36.2144,0.7753,-1.4433,-0.5814,234.2188
20:48:36:494,2.7271,2.7563,8.4241,36.6577,0.1505,-1.1668,-0.5279,235.1875
20:48:36:513,3.425,2.5145,9.4285,36.9346,-0.3398,-0.614,-0.5894,236.0469
20:48:36:532,3.364,1.716,11.2948,36.7401,-0.4637,-0.1562,-0.737,236.7812
20:48:36:552,3.0276,1.0014,12.5805,37.5895,-0.2618,-0.0262,-0.9221,237.5469
20:48:36:576,2.6816,0.6865,12.3638,38.0051,-0.0197,-0.0009,-1.0957,238.375
20:48:36:598,2.1956,0.8278,11.0589,36.7921,0.0266,0.1277,-1.223,239.3438
20:48:36:612,1.2774,0.9475,10.0163,36.9035,-0.085,0.2646,-1.26,240.4688
20:48:36:635,0.449,0.9547,9.4057,37.0496,-0.2064,0.2995,-1.2241,241.7969
20:48:36:652,0.0408,1.1378,8.9915,37.4618,-0.2336,0.2465,-1.1647,243.2188
20:48:36:673,-0.3854,1.3354,8.5989,37.3932,-0.1326,0.2116,-1.0768,244.5312
20:48:36:696,-0.8486,1.5532,8.2829,37.5824,0.1009,0.2731,-0.9548,245.2188
20:48:36:715,-1.2353,1.6885,7.7059,38.1253,0.416,0.3387,-0.8081,246.5312
20:48:36:734,-1.5418,1.6502,6.8703,38.1594,0.702,0.3831,-0.6291,247.75
20:48:36:753,-1.6148,1.5556,5.8013,37.5761,0.8293,0.3304,-0.4216,248.75
20:48:36:773,-1.4687,1.5197,4.8963,38.9937,0.7294,0.194,-0.2081,249.625
20:48:36:794,-0.9839,1.7711,4.366,38.28,0.3974,0.1104,-0.0318,250.5156
20:48:36:813,-0.3099,2.238,4.5635,38.7962,-0.0988,0.1722,0.0766,250.7969
20:48:36:833,0.2515,2.5325,5.8731,39.0388,-0.5579,0.3416,0.1592,250.8906
20:48:36:853,0.115,2.1686,9.9827,40.9565,-0.8,0.5749,0.2889,250.8281
20:48:36:879,0.4275,2.2631,11.3929,39.1406,-0.8117,0.6966,0.4151,250.6875
20:48:36:895,0.7519,2.3433,12.0729,40.1926,-0.69,0.7086,0.4684,250.3594
20:48:36:913,0.6382,2.2691,12.28,40.5585,-0.5529,0.6412,0.4639,249.8594
20:48:36:931,0.2371,2.1506,12.1351,40.5911,-0.4525,0.5184,0.4221,249.2344
20:48:36:952,-0.128,2.2452,12.0465,40.7432,-0.4171,0.3629,0.4066,248.6406
20:48:36:977,-0.5027,2.153,11.7736,39.6619,-0.4296,0.2452,0.4503,248.0469
20:48:36:995,-0.5913,2.1506,11.3558,42.6339,-0.4887,0.1972,0.5739,247.5312
20:48:37:012,-0.6188,2.1698,11.2229,41.009,-0.6493,0.2513,0.7193,247.0312
20:48:37:031,-0.6248,2.1817,11.9017,39.9977,-0.9313,0.4076,0.8623,246.4062
20:48:37:053,-0.0741,1.9651,13.5453,41.2058,-1.1931,0.5307,1.0135,245.6406
20:48:37:077,0.3856,1.3258,14.5305,44.0639,-1.1332,0.4031,1.0735,244.1719
20:48:37:096,0.7567,0.9738,13.4256,41.7665,-0.6647,-0.0219,1.0207,242.9219
20:48:37:112,0.6262,0.8709,11.0027,43.6906,-0.1049,-0.4158,0.8466,241.6406
20:48:37:137,0.0241,0.8362,8.9652,42.202,0.2141,-0.4931,0.6601,240.5
20:48:37:151,-0.3889,0.8493,7.9201,42.3232,0.2437,-0.2209,0.5821,239.5469
20:48:37:173,-0.3542,0.756,7.5862,43.5018,0.1462,0.2087,0.6042,239.1719
20:48:37:207,-0.0334,0.5094,7.5263,43.7888,0.0546,0.4446,0.6599,238.5
20:48:37:212,0.4981,0.4435,7.3228,44.5093,0.0104,0.2769,0.6713,237.875
20:48:37:233,1.105,0.6734,6.9409,44.5093,0.0051,-0.108,0.605,237.125
20:48:37:253,1.2726,0.9798,6.6859,44.497,0.0168,-0.4254,0.4671,236.3281
20:48:37:282,1.0201,1.1905,6.7302,43.257,0.0692,-0.5543,0.3118,235.5781
20:48:37:299,0.9027,1.5485,6.9637,45.1535,0.1707,-0.4417,0.2175,235.0156
20:48:37:314,0.7064,1.8896,7.1037,45.2129,0.3137,-0.1809,0.2002,234.6094
20:48:37:338,0.5544,2.3804,7.4162,46.6905,0.4008,0.1416,0.2359,234.3438
20:48:37:351,0.382,2.9395,8.2134,46.1295,0.3763,0.3328,0.2971,234.0469
20:48:37:372,0.6094,3.6075,9.3686,47.2898,0.2727,0.2534,0.3257,233.7656
20:48:37:395,0.1545,4.3365,10.6483,48.4278,0.1369,-0.2305,0.1813,233.4062
20:48:37:413,-0.9133,4.7938,11.7425,49.0272,0.0189,-0.962,-0.0142,233.0312
20:48:37:432,-1.1982,4.9075,12.4631,47.9147,0.0538,-1.3849,0.0878,232.8438
20:48:37:452,0.2216,4.7675,12.4224,48.1649,0.3278,-1.1823,0.4745,232.9531
20:48:37:478,2.0125,4.0911,11.9244,48.1505,0.7167,-0.6065,0.8189,232.9688
20:48:37:492,3.3293,3.1753,11.4767,46.4118,1.028,0.0036,0.85,232.5156
20:48:37:512,3.8344,2.554,11.4552,48.7431,1.1401,0.3339,0.5989,231.6094
20:48:37:534,3.4538,2.0441,11.3786,49.1009,1.0722,0.2489,0.2037,229.8906
20:48:37:562,3.1234,1.7831,11.2385,49.8309,0.5968,-0.2555,-0.1676,229.8906
20:48:37:579,3.0384,1.6335,11.0362,51.6453,0.3214,-0.4036,-0.1194,229.6562
20:48:37:601,3.1281,1.3845,10.8291,50.6817,0.0575,-0.3993,-0.031,229.6562
20:48:37:612,3.5627,1.1666,10.8542,49.2041,-0.122,-0.3825,-0.0371,229.8594
20:48:37:632,3.607,0.8098,10.8004,50.6408,-0.0679,-0.5903,-0.1772,230.0469
20:48:37:652,2.8145,0.1598,9.7301,50.7398,0.1196,-0.9,-0.2722,230.125
20:48:37:676,2.3907,0.0976,7.646,52.3427,0.1217,-0.9266,-0.2829,230.2344
20:48:37:696,2.5464,0.6734,5.8264,51.9855,-0.1795,-0.5921,-0.277,230.5312
20:48:37:711,2.8612,1.1905,5.3141,52.4538,-0.6165,-0.0417,-0.292,230.9688
20:48:37:731,2.9174,1.1714,6.3196,53.388,-0.9303,0.4167,-0.3958,231.4062
20:48:37:751,2.5308,0.8781,7.8926,52.5951,-0.9782,0.6167,-0.5721,231.8281
20:48:37:776,1.9945,0.8434,9.0179,53.4978,-0.7731,0.5392,-0.7535,232.2188
20:48:37:795,1.4295,1.0876,9.2202,52.3053,-0.4498,0.3347,-0.9026,232.6875
20:48:37:812,0.9039,1.4599,8.6588,55.1964,-0.1308,0.0944,-0.9942,233.2969
20:48:37:832,0.2731,1.7005,7.6855,52.5673,0.102,-0.0385,-0.9817,234.125
20:48:37:854,-0.0298,1.9794,6.7063,53.9976,0.1992,0.0436,-0.8754,235.1406
20:48:37:877,0.0552,2.2727,6.097,54.7239,0.1912,0.2172,-0.7263,236.2344
20:48:37:894,0.1474,2.3529,5.9341,55.202,0.1095,0.361,-0.5585,237.3594
20:48:37:912,0.3317,2.1853,6.261,56.5467,-0.0344,0.4313,-0.3996,238.7656
20:48:37:985,0.7675,2.2595,7.0774,55.161,-0.2202,0.4678,-0.3061,239.4375
20:48:37:985,1.0751,2.3828,8.0147,55.161,-0.3867,0.3546,-0.265,239.9219
20:48:37:986,1.0296,2.4774,9.1603,54.7197,-0.482,0.2718,-0.1822,240.25
20:48:37:991,0.8273,2.6689,10.4352,56.4045,-0.4972,0.2715,-0.0299,240.5312
20:48:38:014,0.3269,3.0017,11.6036,56.4986,-0.4908,0.3405,0.1374,240.7656
20:48:38:036,0.0181,3.0448,12.4859,57.6039,-0.5121,0.3823,0.3485,240.875
20:48:38:051,0.5999,3.0341,13.3095,58.7774,-0.5377,0.3166,0.4982,240.7812
20:48:38:071,0.9686,2.6845,13.9966,58.8842,-0.4804,0.0755,0.4892,240.4844
20:48:38:094,0.7351,1.9339,14.0792,59.0459,-0.3649,-0.145,0.4367,239.9375
20:48:38:113,0.7028,1.5042,13.659,58.7935,-0.2687,-0.1311,0.3667,239.3438
20:48:38:135,0.6777,1.1642,13.2257,59.4357,-0.2141,0.1027,0.3113,238.8438
20:48:38:152,0.7938,0.8362,13.1395,56.4897,-0.1087,0.2465,0.2687,238.3906
20:48:38:173,0.807,0.3825,12.9025,59.0848,0.0775,0.1235,0.1893,238.2031
20:48:38:197,0.6465,-0.0042,12.1244,58.9532,0.2759,-0.1,0.0428,237.8438
20:48:38:217,0.121,-0.1993,10.8662,57.2485,0.4112,-0.1857,-0.1242,237.5312
20:48:38:232,-0.8175,-0.3478,9.5518,58.211,0.4338,-0.0054,-0.1812,237.25
20:48:38:254,-1.2556,0.2831,7.7561,59.0814,0.3321,0.3288,-0.1223,237.3281
20:48:38:278,-0.8055,0.7871,7.5502,58.8377,0.1665,0.5986,-0.0187,237.5156
20:48:38:296,-0.3842,0.9403,7.5945,58.2388,0.053,0.6428,0.0654,237.6875
20:48:38:314,-0.104,0.8972,7.5167,57.3175,0.098,0.4185,0.0836,237.7188
20:48:38:331,0.1497,0.999,6.6776,58.1777,0.2842,0.116,0.0385,237.6406
20:48:38:353,0.3245,1.2336,5.7007,56.3729,0.4557,-0.1873,-0.0477,237.5
20:48:38:378,0.3221,1.5329,5.1129,59.1587,0.4687,-0.288,-0.1242,237.3906
20:48:38:395,0.3006,1.7687,5.1608,58.0946,0.3406,-0.1924,-0.1388,237.4062
20:48:38:413,0.2204,2.0069,5.7247,56.4705,0.1411,0.006,-0.0872,237.5469
20:48:38:431,0.1629,2.1027,6.4333,58.118,-0.0557,0.2343,0.0271,237.7344
20:48:38:451,0.3209,2.2212,7.2845,56.1355,-0.2266,0.3925,0.1738,237.8906
20:48:38:472,0.5364,2.5061,8.229,58.8611,-0.3976,0.4353,0.2641,237.9219
20:48:38:495,0.3281,2.5169,9.0789,58.0799,-0.5159,0.2918,0.2737,237.7656
20:48:38:512,0.3461,2.4283,9.2932,59.1364,-0.5244,0.0319,0.3086,237.2656
20:48:38:532,0.8764,2.6594,9.0251,57.875,-0.4783,-0.214,0.3653,236.9219
20:48:38:552,1.123,2.7899,8.9532,59.3855,-0.4626,-0.3341,0.2995,236.5469
20:48:38:576,1.1553,2.9131,9.7062,57.1031,-0.489,-0.2457,0.1344,236.1406
20:48:38:595,0.9614,2.8988,11.0518,59.0805,-0.4842,0.0026,-0.0344,235.8281
20:48:38:612,0.8668,2.8389,12.3949,57.2285,-0.4317,0.3251,-0.1647,235.7344
20:48:38:631,0.9937,2.548,13.3765,59.6044,-0.3598,0.4204,-0.2105,235.6875
20:48:38:652,1.3672,2.0333,13.7045,58.6344,-0.2735,0.0561,-0.1931,235.7812
20:48:38:678,2.3871,1.8441,13.6614,59.8661,-0.2757,-0.4699,-0.1724,235.9688
20:48:38:694,3.1293,1.8837,13.8434,59.8165,-0.3718,-0.7895,-0.2808,236.1719
20:48:38:712,3.0491,1.5856,14.3941,59.1827,-0.4669,-0.7642,-0.488,236.375
20:48:38:732,2.7965,1.0768,14.1929,59.4298,-0.3555,-0.6904,-0.664,236.6406
20:48:38:752,2.4661,0.6901,12.6104,58.1686,-0.0296,-0.684,-0.8225,237.4219
20:48:38:776,2.2124,0.7189,10.8602,57.7574,0.2061,-0.5799,-0.9668,238.2188
20:48:38:794,1.8688,0.926,10.033,59.0284,0.1806,-0.2419,-1.0462,239.1406
20:48:38:811,1.4929,1.0325,10.0306,57.6943,0.0333,0.1674,-1.0235,240.2656
20:48:38:831,1.2068,0.9571,10.0701,56.5809,-0.0554,0.4143,-0.9207,241.4688
20:48:38:853,1.1098,1.0792,9.7349,57.5971,-0.0224,0.4098,-0.8006,242.6406
20:48:38:877,0.8321,1.1367,8.9197,57.1874,0.1207,0.2718,-0.7607,243.625
20:48:38:894,0.467,1.0002,7.8148,55.4868,0.3337,0.0758,-0.7753,244.5156
20:48:38:911,0.133,0.9343,6.7374,55.8518,0.5513,-0.1005,-0.8134,245.375
20:48:38:940,-0.2225,0.8865,5.9401,55.3304,0.7212,-0.2278,-0.8699,246.2188
20:48:38:952,-0.3722,1.0421,5.4601,55.1322,0.7984,-0.3415,-0.8456,246.2188
20:48:38:973,-0.4368,1.3102,5.265,55.6638,0.693,-0.1759,-0.7098,247.1562
20:48:38:996,-0.4775,1.5125,5.5343,55.6839,0.4594,0.1735,-0.5026,249.1562
20:48:39:015,-0.1447,1.6789,6.3831,55.0156,0.1587,0.4737,-0.2858,249.1562
20:48:39:034,0.0851,1.5868,7.8938,55.5321,-0.1087,0.6249,-0.1351,250.1562
20:48:39:051,-0.0897,1.4156,9.6116,55.1051,-0.2772,0.577,-0.0395,251.5469
20:48:39:072,-0.31,1.4156,11.2241,54.2104,-0.3238,0.368,0.0303,251.8906
20:48:39:095,-0.5398,1.424,12.4691,54.3935,-0.2333,0.161,0.1163,251.8906
20:48:39:112,-0.7672,1.2875,12.9085,54.162,-0.0423,-0.0116,0.2489,251.875
20:48:39:131,-0.5721,1.1762,12.3638,52.761,0.0746,-0.0952,0.3643,251.8125
20:48:39:151,-0.1388,1.1283,11.5078,55.3556,0.0605,-0.1434,0.3922,251.6562
20:48:39:177,-0.2429,0.8194,10.8686,53.751,-0.0426,-0.1687,0.3773,251.375
20:48:39:194,-0.4787,0.6004,10.3323,54.9174,-0.2003,-0.1692,0.3832,250.9844
20:48:39:212,-0.4739,0.6458,10.0965,53.5745,-0.4285,0.0145,0.442,250.5469
20:48:39:232,-0.0765,0.896,10.5538,53.7924,-0.6056,0.1882,0.5456,250.125
20:48:39:252,0.1067,0.6183,11.5234,53.7943,-0.5651,0.1224,0.6428,249.7031
20:48:39:276,0.2012,0.1431,11.9987,52.1694,-0.3372,-0.1333,0.6322,249.2188
20:48:39:297,0.4706,-0.0305,11.4396,53.2062,-0.0855,-0.2731,0.4663,248.5781
20:48:39:313,0.0396,0.264,10.6651,53.2649,-0.0093,0.0068,0.2332,247.8125
20:48:39:331,-1.5346,0.7715,10.1348,53.429,-0.1635,0.2617,0.1991,246.8438
20:48:39:352,-2.7592,1.0481,10.1144,53.6566,-0.4155,0.1509,0.4452,246.4688
20:48:39:378,-2.5066,1.3366,10.1731,52.9958,-0.5718,-0.2614,0.7925,246.25
20:48:39:395,-1.379,1.3258,9.9229,53.2128,-0.5273,-0.7716,1.0551,245.9062
20:48:39:413,-0.1543,1.0337,9.2346,52.7325,-0.2842,-1.104,1.1517,245.1875
20:48:39:431,0.9171,0.7943,8.0482,53.4976,0.0221,-1.173,1.0602,244.125
20:48:39:452,1.5204,0.683,6.7817,52.194,0.2631,-0.953,0.8498,242.9531
20:48:39:480,1.8592,0.7644,5.9114,51.6381,0.428,-0.5359,0.6133,241.7188
20:48:39:495,1.8856,0.9487,5.5092,53.7293,0.5262,-0.0528,0.4202,240.6562
20:48:39:512,1.6964,1.0936,5.4481,51.9113,0.5148,0.3022,0.328,239.8438
20:48:39:532,1.5408,1.1929,5.7666,52.6968,0.4003,0.4135,0.2857,239.2812
20:48:39:552,1.5719,1.4,6.4453,51.7943,0.2232,0.4396,0.2484,238.8281
20:48:39:578,1.4965,1.6107,7.3934,51.4659,0.0485,0.3949,0.2481,238.625
20:48:39:591,1.4414,2.0225,8.4935,50.8035,-0.0607,0.2673,0.2684,238.2656
20:48:39:612,1.4103,2.5037,9.6069,52.7943,-0.0522,0.1472,0.2788,237.7969
20:48:39:632,1.2966,2.9239,10.634,51.1452,0.0815,0.0566,0.2876,237.4844
20:48:39:652,1.3947,3.1741,11.3642,50.7492,0.2517,-0.0267,0.279,237.1719
20:48:39:676,1.5695,3.1657,11.8382,50.8714,0.3731,0.0204,0.2135,236.8281
20:48:39:697,1.6773,3.0305,12.608,49.3161,0.437,0.1725,0.1208,236.5156
20:48:39:713,1.5061,2.6163,12.9911,50.2425,0.4871,0.2753,0.0399,236.2031
20:48:39:731,1.554,2.0668,12.8462,48.6652,0.5095,0.2255,0.0268,236.0156
20:48:39:750,2.2052,1.8717,12.5625,49.0121,0.3923,0.0675,0.0644,235.8906
20:48:39:771,3.1497,1.7879,12.6702,48.7989,0.1582,-0.1237,0.0444,235.8438
20:48:39:794,3.7818,1.3485,12.7588,48.2784,-0.0051,-0.2827,-0.0594,235.7656
20:48:39:813,4.0691,0.653,11.9436,49.4414,0.0538,-0.4297,-0.2193,235.6875
20:48:39:830,3.9901,0.1658,10.1874,48.8401,0.2493,-0.5668,-0.4272,235.7031
20:48:39:851,3.7363,0.0868,8.4397,48.8789,0.3284,-0.5455,-0.696,235.8906
20:48:39:873,3.352,0.5333,7.6496,48.614,0.1574,-0.2169,-0.9663,236.2656
20:48:39:895,2.4745,1.1187,8.0782,48.163,-0.1587,0.304,-1.1825,236.9531
20:48:39:912,0.9901,1.3186,8.8299,48.5055,-0.384,0.7722,-1.3106,238.4844
20:48:39:931,-0.195,1.5916,9.2896,48.538,-0.4184,1.1251,-1.2645,239.8125
20:48:39:951,-0.9001,1.503,9.4165,48.3965,-0.3017,1.3357,-1.0771,241.2344
20:48:39:979,-0.9695,1.2671,9.6164,47.5196,-0.1265,1.2012,-0.8818,242.5781
20:48:39:998,-0.5422,1.3845,9.3471,48.518,0.0408,0.6622,-0.8387,243.6406
20:48:40:075,-0.4967,1.5916,8.8718,46.246,0.1862,-0.101,-0.9612,244.0938
20:48:40:075,-0.9372,1.661,8.241,47.0275,0.3372,-0.5562,-1.0331,244.9531
20:48:40:076,-1.1934,1.7256,7.5107,47.3111,0.498,-0.6145,-0.9135,245.9531
20:48:40:076,-1.1599,1.6287,6.832,46.3425,0.645,-0.4941,-0.6659,247.1094
20:48:40:092,-0.8067,1.5317,6.3244,46.3425,0.7116,-0.2989,-0.3963,248.3281
20:48:40:119,-0.4057,1.4922,6.4369,48.135,0.6717,-0.0616,-0.1678,249.3125
20:48:40:130,-0.0286,1.5377,6.9277,47.3192,0.5513,0.2375,-0.031,249.9375
20:48:40:151,0.0049,1.5377,7.877,46.3858,0.3782,0.462,0.0194,250.2812
20:48:40:169,-0.2381,1.6059,8.7964,45.8533,0.1784,0.5712,0.0404,250.375
20:48:40:191,-0.5889,1.837,9.7649,46.0134,-0.0272,0.4883,0.0993,250.2969
20:48:40:216,-0.8486,1.9495,10.8087,44.409,-0.2408,0.4284,0.2135,250.1719
20:48:40:234,-0.8031,1.9255,11.6539,47.1827,-0.4099,0.3403,0.3627,250
20:48:40:252,-0.5182,1.9603,12.1088,46.1883,-0.5036,0.1765,0.487,249.7031
20:48:40:279,-0.6439,1.9519,12.4129,45.8625,-0.5697,0.1024,0.4921,249.2344
20:48:40:297,-1.2772,1.5975,12.6511,46.2249,-0.6123,0.1392,0.4018,248.625
20:48:40:314,-1.2353,1.4802,12.4583,46.2449,-0.6168,0.2433,0.4079,248.0312
20:48:40:331,-0.377,1.5006,12.0382,44.7496,-0.637,0.2734,0.5437,247.5469
20:48:40:352,0.7663,1.5916,11.9592,45.6317,-0.6581,0.0553,0.4455,247.0312
20:48:40:378,0.9422,1.7472,12.0346,44.6098,-0.3987,-0.1157,0.0575,246.3438
20:48:40:396,-0.0274,1.7807,11.5509,45.829,0.0647,-0.1908,-0.2366,245.6094
20:48:40:412,-1.2281,1.6574,10.118,44.7849,0.4844,-0.0329,-0.2664,245.0625
20:48:40:431,-1.835,1.6394,8.3403,44.4756,0.6181,0.2822,-0.0919,245
20:48:40:455,-2.0888,1.4276,7.0307,44.2267,0.4205,0.5197,0.1925,245.2656
20:48:40:478,-1.7752,1.1774,6.656,44.2608,0.0184,0.5115,0.47,245.5938
20:48:40:495,-0.9923,0.9679,7.0977,44.634,-0.4064,0.2292,0.6271,245.7031
20:48:40:513,-0.0777,0.9487,8.053,44.2608,-0.6855,-0.1969,0.6093,245.4531
20:48:40:530,0.5053,1.1271,8.873,45.1055,-0.6855,-0.6174,0.4881,244.8906
20:48:40:550,0.552,1.3042,9.055,45.5817,-0.4274,-0.8507,0.34,244.125
20:48:40:570,0.3724,1.5808,8.5821,44.3747,-0.0551,-0.8225,0.217,243.4062
20:48:40:595,0.1809,1.7986,7.5897,46.3646,0.265,-0.6102,0.1429,242.8906
20:48:40:615,-0.1292,2.0105,6.6213,44.7859,0.4208,-0.2864,0.1376,242.5469
20:48:40:630,-0.4321,2.2607,6.0108,44.7566,0.4221,-0.0036,0.201,242.3594
20:48:40:650,-0.9408,2.396,5.9892,44.7719,0.2956,0.1996,0.3472,242.25
20:48:40:670,-0.9288,2.6462,6.4585,45.5036,0.0831,0.2295,0.4916,242.125
20:48:40:695,-0.7672,2.9527,7.3539,45.3981,-0.1691,0.2268,0.5805,241.9062
20:48:40:713,-0.8199,3.0245,8.6061,44.2774,-0.3563,0.1432,0.6705,241.5
20:48:40:730,-0.5218,3.0855,9.9744,43.9133,-0.3649,-0.039,0.7549,240.25
20:48:40:750,-0.0322,2.8329,11.1858,44.0545,-0.1497,-0.2723,0.7802,239.4688
20:48:40:771,0.2395,2.2631,11.2612,44.9173,0.1356,-0.5341,0.719,239.0312
20:48:40:796,1.0069,2.0979,10.6088,43.6572,0.2477,-0.5911,0.5182,238.2031
20:48:40:814,1.9059,2.305,10.44,44.3058,0.1952,-0.3761,0.2282,237.3594
20:48:40:831,2.1322,2.4822,11.1559,44.978,0.1619,-0.0939,-0.0262,236.6875
20:48:40:851,1.7024,2.3745,11.9125,44.4585,0.2184,-0.0627,-0.1585,236.3281
20:48:40:870,1.3876,2.2045,11.9496,45.3729,0.2546,-0.2086,-0.2043,236.2344
20:48:40:894,1.5743,2.2739,11.3295,43.7582,0.1364,-0.3306,-0.2246,236.3594
20:48:40:912,1.8951,2.2428,10.9548,46.0624,-0.1318,-0.3413,-0.2169,236.5781
20:48:40:929,2.4111,2.0836,11.1631,45.132,-0.4272,-0.2166,-0.2177,236.8594
20:48:40:951,2.8815,1.8298,12.0681,45.1876,-0.6075,0.0081,-0.3005,237.1406
20:48:40:972,3.0946,1.4347,13.015,44.3902,-0.5585,0.0699,-0.4677,237.4219
20:48:40:994,2.8001,0.9272,12.997,45.2153,-0.3252,-0.1487,-0.6525,237.7031
20:48:41:013,2.4434,0.7009,11.545,45.867,-0.1449,-0.3346,-0.8022,237.8906
20:48:41:031,2.1094,0.8781,9.6404,45.4297,-0.1555,-0.2638,-0.884,238.4375
20:48:41:052,1.4438,1.1043,8.1859,46.3873,-0.2911,-0.019,-0.8949,239.6094
20:48:41:079,1.0715,1.1486,8.3906,47.2074,-0.3763,0.238,-0.8813,240.6094
20:48:41:096,0.7567,1.1929,8.4948,45.4391,-0.3254,0.4558,-0.8749,241.6406
20:48:41:115,0.6274,1.0924,8.4062,48.0442,-0.1707,0.5941,-0.8579,242.6094
20:48:41:130,0.7519,1.0337,8.0327,48.3334,0.0258,0.5091,-0.8741,243.5938
20:48:41:149,0.7435,1.0469,7.3994,46.6581,0.2061,0.2138,-0.978,244.5625
20:48:41:170,0.3341,1.2875,6.8439,48.3631,0.3201,-0.1543,-1.1412,245.5
20:48:41:195,-0.3794,1.5592,6.5135,50.7991,0.3739,-0.3128,-1.2539,246.4844
20:48:41:213,-0.8462,1.8405,6.3938,48.1932,0.4208,-0.2206,-1.2129,247.6875
20:48:41:229,-0.9588,1.9243,6.3926,49.2043,0.4522,0.1006,-1.0145,249.1094
20:48:41:251,-0.6008,1.831,6.7697,49.4802,0.4155,0.4508,-0.7314,250.5
20:48:41:271,-0.3016,1.5963,7.8914,50.7924,0.2269,0.7349,-0.4856,251.7969
20:48:41:296,-0.1615,1.4311,9.5003,49.4195,-0.0445,0.8319,-0.342,252.7812
20:48:41:313,-0.0657,1.485,11.3833,47.7341,-0.2908,0.7778,-0.2592,253.4062
20:48:41:331,-0.3315,1.3557,12.8642,48.4708,-0.3827,0.6132,-0.2091,253.7969
20:48:41:350,-0.7864,1.2228,13.3262,50.8094,-0.297,0.3501,-0.1505,254.1562
20:48:41:370,-0.9695,1.224,12.9504,50.2898,-0.1505,0.1125,-0.0792,254.3125
20:48:41:395,-1.0976,1.1331,12.3853,49.904,-0.0463,-0.0089,-0.0152,254.4375
20:48:41:412,-1.3227,0.8565,11.5126,49.263,-0.0032,-0.105,0.0327,254.5156
20:48:41:432,-1.3837,0.6865,10.6352,51.4814,-0.0394,-0.1889,0.1105,254.5312
20:48:41:450,-1.2988,0.6387,10.2425,51.9875,-0.2131,-0.1226,0.229,254.5
20:48:41:471,-0.9552,0.6159,10.8578,51.6913,-0.5055,0.1038,0.3749,254.3906
20:48:41:497,-0.2297,0.5788,12.3458,51.1916,-0.7753,0.3653,0.5294,254.2812
20:48:41:514,0.388,0.264,13.2855,50.7223,-0.7625,0.287,0.572,253.9375
20:48:41:531,0.382,-0.0904,12.2022,52.2078,-0.343,-0.2289,0.4354,253.3594
20:48:41:550,0.1581,-0.1035,9.7409,51.2385,0.2325,-0.6774,0.2287,252.6406
20:48:41:570,0.2096,0.167,8.1488,52.3383,0.5505,-0.5477,0.0473,252
20:48:41:594,-0.304,0.2424,7.5562,51.1261,0.5345,0.1309,-0.1055,251.6562
20:48:41:612,-0.7265,0.5345,7.4784,52.0787,0.3329,0.802,-0.1508,251.5625
20:48:41:630,-0.7589,0.926,7.6065,51.1827,0.0852,1.0242,-0.0243,251.7188
20:48:41:650,-0.8127,0.9679,7.7897,54.0337,-0.1411,0.8484,0.2021,251.8594
20:48:41:670,-0.5434,0.9822,7.7382,52.3536,-0.2911,0.2598,0.4159,251.8281
20:48:41:696,-0.1615,1.3761,7.4066,52.0276,-0.3318,-0.6041,0.4761,251.5312
20:48:41:713,-0.2262,1.6945,7.1337,53.567,-0.2964,-1.2126,0.3914,251.0469
20:48:41:730,-0.4883,1.9291,6.838,52.8353,-0.1933,-1.3623,0.3485,250.5156
20:48:41:751,-0.6032,2.0788,6.4058,53.6378,0.0735,-0.8204,0.6383,250.1094
20:48:41:773,-0.1304,2.299,6.3567,54.3846,0.0479,-0.2449,0.785,249.7812
20:48:41:797,0.5065,2.4774,7.0283,53.773,-0.0463,0.2569,0.7533,249.3438
20:48:41:812,0.7675,2.3804,8.569,54.3501,-0.1076,0.4926,0.5736,248.6562
20:48:41:830,0.5604,2.408,10.5131,53.6943,-0.0069,0.4641,0.3243,247.7656
20:48:41:849,0.2994,3.0257,12.0346,53.4678,0.334,0.2835,0.0686,246.9375
20:48:41:872,-0.7684,3.4674,12.517,53.7531,0.7928,0.0343,-0.0003,245.8594
20:48:41:896,-1.9057,3.3836,11.4336,53.2077,1.0754,-0.239,0.2511,245.8594
20:48:41:915,-1.4592,3.4076,9.7924,54.6391,0.9774,-0.3242,0.6263,245.7969
20:48:41:933,-0.0119,3.3776,9.0059,53.4082,0.5952,-0.3168,0.8561,245.7344
20:48:41:954,1.2834,2.8497,9.529,54.2734,0.1784,-0.4962,0.8439,245.2812
20:48:41:968,2.204,2.0357,10.7154,54.0336,-0.0661,-0.8552,0.6804,244.8906
20:48:41:990,3.2538,1.4395,11.5701,53.568,-0.1643,-1.0244,0.4239,244
20:48:42:014,4.4366,1.4802,11.794,53.8624,-0.2751,-0.758,0.0796,243.0938
20:48:42:034,4.9884,1.491,12.5637,56.0291,-0.4282,-0.0246,-0.2824,242.3906
20:48:42:049,4.9238,1.1283,14.4886,54.3467,-0.3406,0.7123,-0.6784,242.0312
20:48:42:072,4.1145,0.2783,15.8964,55.2149,0.1273,0.8052,-1.0507,242.0156
20:48:42:095,2.8289,-0.3621,14.7711,55.8331,0.6679,0.2406,-1.2885,242.3594
20:48:42:168,1.8389,-0.2304,11.3929,55.1136,0.7976,-0.1716,-1.362,243.0312
20:48:42:169,1.0943,0.3717,8.3319,54.5831,0.489,-0.0627,-1.293,244.1719
20:48:42:169,0.6094,1.0038,6.8942,57.6091,0.069,0.2588,-1.1612,245.625
20:48:42:169,0.3221,1.3701,6.8535,55.7396,-0.1787,0.5173,-1.0166,247.2031
20:48:42:191,-0.0538,1.4156,7.3419,55.4388,-0.2128,0.6292,-0.8763,249.2969
20:48:42:213,-0.207,1.3713,7.7214,55.5531,-0.1553,0.4028,-0.8155,250.4844
20:48:42:230,-0.0119,1.5736,7.8687,56.3492,-0.0671,0.0098,-0.885,251.4531
20:48:42:250,-0.1256,1.9064,7.883,56.3492,0.0778,-0.2555,-0.945,252.3438
20:48:42:269,-0.5925,2.0488,7.7585,57.5305,0.2943,-0.3463,-0.884,253.2812
20:48:42:294,-0.954,2.1183,7.2761,57.3096,0.5177,-0.3058,-0.737,254.3594
20:48:42:314,-1.0557,2.1542,6.5758,56.7251,0.6301,-0.1415,-0.546,255.4062
20:48:42:331,-0.9588,2.1171,5.9856,58.2277,0.5625,0.0891,-0.3455,256.3906
20:48:42:350,-0.9193,2.0405,6.1855,58.404,0.3345,0.3536,-0.1857,257.1719
20:48:42:370,-0.608,1.9351,7.3264,56.0085,0.0716,0.5275,-0.1005,257.6719
20:48:42:395,-0.3878,1.7328,8.9389,57.9931,-0.0602,0.5344,-0.0509,257.9531
20:48:42:414,-0.5494,1.5772,10.2413,57.9942,-0.0567,0.4649,0.0351,258.0625
20:48:42:431,-0.8391,1.57,10.7369,58.177,-0.0597,0.4348,0.1525,258.0938
20:48:42:450,-1.5274,1.6718,11.5737,58.3935,-0.1942,0.5373,0.2529,258.0312
20:48:42:470,-1.8482,1.5568,12.5972,58.9235,-0.3766,0.6108,0.3187,257.875
20:48:42:496,-1.8638,1.3461,12.9097,57.0568,-0.396,0.3336,0.3816,257.7344
20:48:42:514,-1.7967,0.9355,11.8275,58.4787,-0.2013,-0.1455,0.4537,257.1719
20:48:42:530,-1.4304,0.762,10.0905,58.603,0.016,-0.5117,0.5264,256.6719
20:48:42:549,-0.9851,0.6889,8.5546,58.6858,0.0647,-0.5871,0.5414,256.1719
20:48:42:572,-0.6176,0.738,7.7011,56.7046,-0.1015,-0.3967,0.5038,255.6562
20:48:42:594,-0.1064,1.2995,8.2888,57.8892,-0.4695,0.0281,0.4718,255.1094
20:48:42:610,-0.0179,1.4898,9.954,56.1116,-0.8514,0.4417,0.4319,254.5781
20:48:42:633,-0.0334,1.3593,11.7784,58.7515,-0.999,0.5781,0.4194,254.0156
20:48:42:653,-0.28,1.1785,12.2465,56.4817,-0.8053,0.409,0.3549,253.4688
20:48:42:668,-1.4472,0.853,11.0649,57.8854,-0.4397,0.103,0.2628,252.8906
20:48:42:692,-2.1164,0.9882,9.5554,56.5575,-0.2637,0.0545,0.3211,252.3281
20:48:42:714,-1.8063,1.2659,8.8539,56.509,-0.4155,0.2745,0.5288,251.9375
20:48:42:731,-1.1994,1.3761,8.903,57.5119,-0.665,0.4971,0.7448,251.6094
20:48:42:748,-0.5901,1.145,9.2681,58.5311,-0.7843,0.5605,0.8748,250.7344
20:48:42:770,0.0528,1.0397,9.5853,59.0155,-0.6996,0.3341,0.8466,249.8594
20:48:42:792,0.3904,1.1821,9.1292,57.4639,-0.429,-0.1567,0.6034,248.7656
20:48:42:810,0.0312,1.388,8.2601,56.7931,-0.0415,-0.6507,0.283,247.7188
20:48:42:828,-0.2597,1.6371,7.087,57.3679,0.3151,-0.7852,0.1129,247.0312
20:48:42:850,-0.3087,1.9196,6.2191,57.5486,0.5382,-0.6086,0.136,246.7344
20:48:42:869,-0.3638,2.0069,5.818,56.4374,0.5947,-0.2464,0.2508,246.6562
20:48:42:896,-0.3171,1.9435,6.2011,56.9398,0.494,0.0968,0.3983,246.5625
20:48:42:913,0.0264,2.0488,7.3755,56.7641,0.2631,0.3211,0.5113,246.3281
20:48:42:929,0.473,2.2679,8.9652,56.3897,-0.0112,0.3027,0.4993,246.1406
20:48:42:949,0.3365,2.3996,10.531,56.916,-0.1832,0.0638,0.3784,245.6094
20:48:42:968,-0.2118,2.4846,11.3929,55.5856,-0.1436,-0.2635,0.2971,245.0312
20:48:42:988,-0.3698,2.4702,11.0769,57.3665,0.0679,-0.55,0.3707,244.5
20:48:43:008,0.2204,2.3002,10.2437,56.4635,0.2538,-0.8052,0.524,244.125
20:48:43:029,1.3193,2.2703,9.9456,54.8438,0.273,-0.8414,0.581,243.7812
20:48:43:049,2.1202,2.3637,10.683,57.3626,0.1673,-0.6664,0.4268,243.0625
20:48:43:068,2.1046,2.232,11.9592,57.6006,0.1023,-0.4433,0.1176,242.4688
20:48:43:088,1.6018,1.9902,12.6966,57.0973,0.2157,-0.3343,-0.1982,242.0469
20:48:43:115,1.0105,1.6813,11.934,56.725,0.4823,-0.3871,-0.4307,241.9531
20:48:43:130,1.123,1.8453,10.385,57.7725,0.6184,-0.5042,-0.4597,242.2188
20:48:43:149,1.9334,2.1123,10.0067,56.7867,-0.233,-0.1522,-0.2307,242.7344
20:48:43:169,3.2167,2.1255,11.8131,55.3604,-0.6213,0.1062,-0.3548,242.7344
20:48:43:196,3.0659,1.1295,14.0589,55.2278,-0.4051,-0.0755,-0.6616,243.2812
20:48:43:213,2.192,0.4112,13.7512,55.4311,0.1723,-0.6148,-0.9769,243.7188
20:48:43:228,1.6162,0.6147,11.1643,55.8705,0.5175,-0.7463,-1.236,244
20:48:43:248,1.02,1.2097,8.6013,55.9572,0.4447,-0.2837,-1.3234,245.1406
20:48:43:268,0.4071,1.6873,7.494,54.9372,0.1361,0.373,-1.2347,246.3125
20:48:43:289,-0.1304,1.9243,7.9704,54.9196,-0.1204,0.8665,-1.1074,247.7812
20:48:43:312,-0.687,1.8872,9.0406,54.9717,-0.1222,1.0367,-0.9982,250.6094
20:48:43:329,-1.0833,1.7843,9.4034,55.8885,0.1087,0.8007,-0.9431,251.2344
20:48:43:349,-1.0414,1.7412,8.557,55.572,0.3806,0.3261,-0.9737,252.3281
20:48:43:368,-0.6356,1.9088,7.1767,55.776,0.5521,-0.0901,-1.0944,253.2812
20:48:43:387,-0.3099,1.9974,6.1472,54.1024,0.6157,-0.2691,-1.2161,254.3125
20:48:43:409,-0.7301,1.8777,5.5654,53.8712,0.6187,-0.1572,-1.2614,254.8906
20:48:43:429,-1.2999,1.8585,5.3978,53.9798,0.5148,0.2268,-1.1665,256.1094
20:48:43:448,-1.519,2.08,5.9222,53.1102,0.3489,0.6518,-0.9663,257.5469
20:48:43:468,-1.592,2.2093,6.9864,53.7528,0.2202,0.8633,-0.7319,259.0312
20:48:43:487,-1.5118,2.0069,8.2266,53.0142,0.1704,0.8098,-0.5255,260.3594
20:48:43:511,-1.4029,1.9004,8.9808,53.3063,0.1561,0.5525,-0.3431,261.3438
20:48:43:529,-1.3011,1.9938,9.2357,52.6044,0.0685,0.3107,-0.1657,262.0781
20:48:43:547,-1.1479,2.2392,9.5159,52.2362,-0.1148,0.2119,0.0042,262.5781
20:48:43:568,-1.0677,2.2476,10.1144,51.9885,-0.3036,0.2186,0.1714,262.9062
20:48:43:588,-1.0761,2.001,10.9165,52.7925,-0.4597,0.365,0.3456,263.0625
20:48:43:610,-0.9863,1.7759,11.776,53.5372,-0.5755,0.4785,0.4769,262.9219
20:48:43:630,-0.79,1.5341,12.541,51.9516,-0.6293,0.3909,0.5142,262.5781
20:48:43:648,-1.0294,1.1367,12.8917,51.6289,-0.6613,0.1488,0.5171,261.9844
20:48:43:668,-1.513,0.8122,12.5601,51.2049,-0.7593,-0.2209,0.5802,261.2969
20:48:43:688,-1.8111,0.744,11.7724,50.7678,-1.0136,-0.5144,0.7672,260.6406
20:48:43:711,-1.3287,0.9978,11.3319,51.0675,-1.2959,-0.79,0.9856,259.9688
20:48:43:731,-0.0765,1.2647,11.7485,51.7757,-1.2967,-1.0238,1.0508,259.1719
20:48:43:748,0.7112,1.1043,12.1627,52.1311,-0.9026,-1.1295,0.9408,258.1094
20:48:43:769,0.7339,0.8721,11.3965,51.3801,-0.3571,-1.0393,0.7363,256.9531
20:48:43:788,0.1162,0.9224,9.7804,51.6495,-0.0149,-0.6094,0.5544,255.7812
20:48:43:808,-0.8271,0.9032,8.5486,51.4457,0.0197,0.0084,0.4995,254.8438
20:48:43:828,-1.0976,1.0062,8.4924,50.7804,-0.1092,0.5546,0.5043,254.1719
20:48:43:851,-0.8833,1.1474,10.0929,50.3495,-0.1555,0.7711,0.5352,253.8906
20:48:43:869,-0.6607,1.3162,9.8726,51.356,-0.0176,0.548,0.6018,253.0156
20:48:43:888,-0.772,1.4575,8.9401,50.552,0.2181,0.1272,0.617,252.4219
20:48:43:911,-1.0713,1.6562,7.7921,49.4697,0.4389,-0.2403,0.585,251.7344
20:48:43:935,-1.4089,1.8693,6.7769,50.5324,0.5816,-0.4443,0.5621,251.0156
20:48:43:948,-1.5789,1.9878,6.2478,50.2697,0.6341,-0.4406,0.5864,250.3438
20:48:43:968,-1.3969,2.0488,6.146,49.9133,0.6258,-0.2883,0.6788,249.7656
20:48:43:989,-1.1551,2.0069,6.4501,49.2176,0.5523,-0.0512,0.7952,249.1719
20:48:44:012,-1.0629,1.9004,7.3108,50.7479,0.4224,0.099,0.8673,248.5156
20:48:44:031,-0.9743,2.0285,8.3343,49.3302,0.3023,0.1919,0.8918,247.7344
20:48:44:049,-0.8654,2.1769,9.0897,50.0004,0.2578,0.3514,0.935,246.7812
20:48:44:068,-0.5565,2.2691,9.5674,51.7745,0.2439,0.5078,1.0234,245.7812
20:48:44:088,-0.0478,2.2835,9.9947,51.4379,0.2218,0.4873,1.0985,244.7188
20:48:44:111,0.2635,2.2356,9.9971,49.7308,0.2037,0.2343,1.0998,243.625
20:48:44:130,0.6873,2.3649,9.4369,51.677,0.2091,-0.2089,1.0556,242.3594
20:48:44:147,1.4271,2.7432,9.3184,50.8667,0.1422,-0.5141,1,241.0469
20:48:44:173,1.9179,2.8389,10.1348,51.1538,0.0192,-0.5117,0.8569,239.3125
20:48:44:242,1.9502,2.6306,11.2648,51.9575,-0.0163,-0.3745,0.6343,238.2344
20:48:44:243,1.7754,2.2404,11.5653,50.9595,0.1193,-0.2571,0.4143,237.2969
20:48:44:243,1.7682,2.135,10.9404,50.2164,0.2951,-0.28,0.2644,236.6562
20:48:44:253,1.785,2.2284,10.3981,51.3265,0.2677,-0.337,0.2109,236.2188
20:48:44:268,2.1776,2.5253,10.804,51.05,-0.0362,-0.3202,0.2466,235.9531
20:48:44:288,2.3213,2.1733,12.2716,52.5178,-0.4096,-0.2355,0.291,235.75
20:48:44:315,2.1477,1.412,13.173,52.4953,-0.5486,-0.1929,0.3009,235.6406
20:48:44:328,2.3452,1.2432,12.614,51.7453,-0.4237,-0.2803,0.2628,235.375
20:48:44:361,2.3369,1.4419,11.5294,53.398,-0.2834,-0.3141,0.1371,235.0469
20:48:44:367,1.8329,1.5892,10.8399,51.746,-0.2724,-0.1623,-0.0142,234.7656
20:48:44:389,1.3516,1.6634,10.6507,53.142,-0.3225,0.0577,-0.073,234.5625
20:48:44:414,0.9554,1.6538,10.5538,53.142,-0.2802,0.2657,-0.0579,234.5312
20:48:44:431,0.8632,1.6801,10.1707,51.9045,-0.0938,0.4556,-0.0334,234.6406
20:48:44:450,0.9494,1.6682,9.4644,53.6024,0.1846,0.5506,-0.077,234.6875
20:48:44:475,0.892,1.7663,8.6647,52.9613,0.4493,0.4878,-0.239,234.6875
20:48:44:497,0.3976,1.8824,7.9393,52.9093,0.6575,0.319,-0.4813,234.7188
20:48:44:515,-0.353,1.9363,7.3,53.2546,0.8125,0.1493,-0.6917,234.9375
20:48:44:532,-1.0019,1.8537,6.6632,54.1976,0.931,0.0212,-0.7668,235.4531
20:48:44:549,-1.428,1.716,6.1113,52.1195,0.9398,0.0111,-0.4677,236.2031
20:48:44:572,-1.3347,1.6047,5.757,54.1227,0.6693,0.0659,-0.2379,237.875
20:48:44:596,-0.2956,1.9986,6.3388,53.8485,0.2695,0.1416,-0.1796,238.4375
20:48:44:615,0.0959,2.1973,7.8902,54.7242,-0.0301,0.1664,-0.2376,238.4375
20:48:44:634,-0.5254,2.0991,9.7888,54.8183,-0.1246,0.1858,-0.191,238.6875
20:48:44:648,-1.4532,2.1721,10.956,53.49,-0.0961,0.0939,0.0125,238.875
20:48:44:668,-1.8769,2.4666,11.1128,52.21,-0.0732,-0.1154,0.3147,239.125
20:48:44:693,-1.6435,2.5409,10.7836,54.7675,-0.0938,-0.2622,0.6218,239.2969
20:48:44:714,-0.9671,2.4128,10.1408,54.4147,-0.1483,-0.271,0.8191,239.1406
20:48:44:732,-0.3674,2.3194,9.5733,54.3526,-0.229,-0.2078,0.8751,238.625
20:48:44:747,-0.0214,2.226,9.2884,53.2158,-0.2943,-0.0789,0.8487,237.8594
20:48:44:767,-0.2417,1.8765,9.2094,53.6182,-0.3366,0.1642,0.8711,237.3906
20:48:44:787,-0.3985,1.5054,9.0167,54.7074,-0.4099,0.3733,0.9779,236.4219
20:48:44:810,-0.2932,1.0229,8.6731,54.4568,-0.5947,0.4633,1.1099,235.4531
20:48:44:833,0.1438,0.6183,8.4959,53.2943,-0.885,0.4787,1.1637,234.4844
20:48:44:849,0.7399,0.7428,8.9233,53.6936,-1.2272,0.5078,1.0697,233.3125
20:48:44:867,0.6406,0.9044,10.0665,55.4248,-1.4735,0.4393,0.9621,231.9844
20:48:44:890,0.2407,0.9296,11.6707,55.0166,-1.4703,0.2473,0.9632,230.6562
20:48:44:913,-0.049,0.9559,12.681,56.275,-1.237,-0.0544,1.074,229.3438
20:48:44:929,-0.4177,0.7488,12.2548,53.4623,-1.0285,-0.4092,1.2644,228.1719
20:48:44:949,-0.6008,0.4136,10.6735,54.5638,-1.0285,-0.765,1.4157,227.0312
20:48:44:967,-0.4632,0.4076,9.3112,55.5951,-1.1867,-1.0257,1.4788,225.8438
20:48:44:987,-0.1938,0.4411,8.9496,54.9222,-1.2637,-1.0989,1.4934,223.625
20:48:45:016,0.5472,0.5417,9.4273,55.7709,-1.0671,-0.9061,1.4165,222
20:48:45:035,1.3241,0.7081,9.9971,54.3526,-0.5627,-0.6017,1.2117,220.4062
20:48:45:047,1.5564,0.6339,9.96,57.6396,0.0831,-0.2835,0.9787,218.7656
20:48:45:068,1.4821,0.5321,9.3315,54.911,0.6503,0.0777,0.7882,217.2812
20:48:45:089,1.3313,0.5836,8.3212,55.3437,0.9705,0.3887,0.6806,216.0938
20:48:45:112,1.2774,0.6279,7.549,56.3666,1.0291,0.5496,0.645,215.0781
20:48:45:128,1.3648,0.7691,7.2785,57.3319,0.9292,0.5488,0.6101,214.2031
20:48:45:148,1.2343,0.8936,7.2857,56.2553,0.7412,0.4292,0.5755,213.4531
20:48:45:168,0.9267,1.1115,7.7202,57.0156,0.5324,0.3525,0.581,212.6875
20:48:45:187,0.7866,1.4132,8.3894,54.8278,0.3894,0.3323,0.6252,211.9688
20:48:45:212,0.8094,1.5664,9.1532,56.4585,0.3412,0.2726,0.6916,211.2812
20:48:45:232,1.196,1.5808,9.723,55.6619,0.3934,0.0984,0.6921,210.6094
20:48:45:249,2.0855,1.6622,9.2693,56.6482,0.4754,-0.1386,0.5928,209.8438
20:48:45:268,2.5559,1.9279,9.3519,56.6265,0.4453,-0.2906,0.4338,209.4219
20:48:45:289,2.7965,2.2823,10.3072,55.4266,0.2852,-0.3072,0.2109,208.2969
20:48:45:312,2.6577,2.4451,11.4695,56.1234,0.1678,-0.248,-0.0198,207.7188
20:48:45:328,2.1693,2.3038,11.9915,56.9842,0.2242,-0.2081,-0.1394,207.3438
20:48:45:347,1.7024,2.1674,11.3905,57.4904,0.3816,-0.3024,-0.1393,207.2656
20:48:45:367,1.5755,2.2715,10.3431,56.6162,0.4021,-0.4102,-0.0525,207.3906
20:48:45:387,1.9729,2.3002,10.4137,58.7125,0.086,-0.3303,0.1283,207.5625
20:48:45:409,2.5954,1.9291,11.9328,56.6405,-0.3984,-0.0883,0.3483,207.7031
20:48:45:430,3.2778,1.3066,13.4292,56.8836,-0.6751,0.0225,0.4607,207.6875
20:48:45:448,3.504,0.7141,13.1562,56.7607,-0.5167,-0.2196,0.3185,207.4375
20:48:45:468,3.2443,0.519,11.0877,58.1973,-0.0778,-0.6515,-0.023,206.9688
20:48:45:488,2.7403,0.7584,8.9688,57.2288,0.2506,-0.8084,-0.3886,206.5312
20:48:45:513,2.107,0.9882,8.0686,58.0012,0.2639,-0.3945,-0.6565,206.3906
20:48:45:531,1.1493,1.0672,8.4792,55.9156,0.0876,0.2952,-0.787,206.6875
20:48:45:556,0.2755,1.0864,9.122,56.2657,-0.09,0.8023,-0.786,207.6875
20:48:45:567,-0.0729,1.2121,9.28,57.1671,-0.1574,0.968,-0.6805,208.5625
20:48:45:588,0.0217,1.248,9.1232,55.7224,-0.1329,0.9099,-0.5572,209.4219
20:48:45:613,0.2467,1.2623,8.6049,57.1013,-0.0522,0.6657,-0.5117,210.0938
20:48:45:634,0.4778,1.3282,8.0183,57.072,0.0336,0.3008,-0.5977,210.6875
20:48:45:650,0.5843,1.5329,7.6604,58.1237,0.0778,-0.0979,-0.7841,211.2188
20:48:45:668,0.3856,1.74,7.5035,57.8252,0.1193,-0.3048,-0.9559,211.875
20:48:45:689,0.0432,1.831,7.2881,57.2995,0.2211,-0.2923,-1.0118,212.75
20:48:45:714,-0.037,1.9196,7.0546,57.923,0.33,-0.2464,-0.9514,213.8594
20:48:45:730,0.2503,1.9615,7.0235,57.4088,0.387,-0.1367,-0.8209,214.4531
20:48:45:748,0.6489,1.9375,7.3599,57.5891,0.3542,0.0196,-0.66,215.6094
20:48:45:767,0.9961,1.7747,8.1967,58.4693,0.2368,0.197,-0.5207,216.5781
20:48:45:787,1.1888,1.6275,9.3231,58.1237,0.0924,0.3304,-0.4358,217.4219
20:48:45:814,1.1039,1.4359,10.373,57.8192,0.0163,0.3453,-0.3889,218.0781
20:48:45:830,0.7208,1.3019,10.8758,57.3954,0.0522,0.2675,-0.3567,218.5625
20:48:45:848,0.133,1.2959,10.7345,57.2526,0.1334,0.2143,-0.2997,219.2031
20:48:45:868,-0.4321,1.5161,10.5873,56.9982,0.1292,0.2888,-0.2057,219.5781
20:48:45:888,-0.8414,1.6023,10.9165,57.7451,0.0032,0.418,-0.0792,219.8906
20:48:45:913,-0.8534,1.5939,11.3522,58.9595,-0.1278,0.4372,0.0788,220.0938
20:48:45:930,-0.9743,1.4754,11.114,57.9241,-0.1603,0.2524,0.2178,220.1406
20:48:45:948,-0.8666,1.4228,10.5585,56.6078,-0.3044,-0.129,0.5414,220.0312
20:48:45:967,-0.5829,1.4359,10.3072,56.6722,-0.4972,-0.1018,0.7099,220.0312
20:48:45:988,-0.2249,1.2384,10.5873,56.7861,-0.7092,0.0771,0.9115,219.75
20:48:46:013,0.5963,1.066,11.6048,58.4434,-0.8216,0.3357,0.9957,219.3125
20:48:46:031,1.4247,1.1774,13.3897,56.4548,-0.6567,0.2849,0.8641,217.9375
20:48:46:049,1.3289,1.2133,14.8789,56.356,-0.1292,-0.1463,0.6694,216.875
20:48:46:071,0.5412,1.0995,14.2277,57.6215,0.4804,-0.4949,0.6005,215.7031
20:48:46:095,-0.2285,0.9631,11.6742,56.6748,0.7188,-0.4579,0.6703,213.6562
20:48:46:108,-0.5697,0.9224,9.4429,57.6738,0.5435,-0.2124,0.7866,212.9844
20:48:46:130,-0.5733,0.8278,8.4947,56.4349,0.228,-0.0496,0.8825,212.9844
20:48:46:148,-0.1232,0.9583,8.4265,57.1438,0.0139,-0.0792,0.8894,212.2031
20:48:46:168,0.2312,1.1534,8.5438,57.5075,0.0146,-0.2555,0.7981,211.25
20:48:46:187,0.1246,1.2576,8.1596,56.7777,0.1864,-0.4419,0.6814,210.2188
20:48:46:214,0.0779,1.4048,7.3,55.5032,0.3715,-0.4454,0.5952,209.7188
20:48:46:231,0.279,1.716,6.4142,55.4063,0.4733,-0.3018,0.5331,208.875
20:48:46:250,0.4646,1.9818,5.909,54.2291,0.4868,-0.0864,0.5113,208.125
20:48:46:381,0.7172,2.1685,5.8192,55.8024,0.4208,0.1174,0.5227,207.4844
20:48:46:381,0.9075,2.2284,6.2334,53.6589,0.3313,0.1866,0.5257,206.9062
20:48:46:381,0.7351,2.0991,6.972,54.8587,0.29,0.0915,0.5232,206.3125
20:48:46:382,0.6789,2.1877,7.4413,56.7454,0.2826,-0.0126,0.5384,205.7031
20:48:46:382,0.7639,2.4846,7.4796,54.5959,0.2221,-0.0164,0.5986,205.0938
20:48:46:382,0.868,2.6235,7.5359,54.2431,0.1182,-0.0438,0.7187,204.4844
20:48:46:392,1.1805,2.4786,7.9297,52.9073,0.0133,-0.0677,0.8386,203.1719
20:48:46:411,1.8784,2.3924,8.4924,54.1479,-0.0818,0.0359,0.8615,202.8125
20:48:46:429,2.4793,2.4523,9.2944,53.9977,-0.1246,0.226,0.8034,201.9219
20:48:46:447,2.5583,2.4331,9.8618,52.8372,-0.1188,0.3285,0.7336,200.9375
20:48:46:467,2.4326,2.5373,10.537,53.7391,-0.126,0.3267,0.6921,200.0156
20:48:46:486,2.3153,2.554,11.0912,52.1784,-0.1502,0.0856,0.6985,199.1094
20:48:46:506,2.4997,2.4044,11.6467,52.2749,-0.1854,-0.1652,0.7057,198.2656
20:48:46:529,2.1812,2.2595,12.4667,53.1996,-0.1827,-0.382,0.7155,197.4531
20:48:46:548,2.0651,2.8964,12.7636,52.2675,-0.485,-0.1761,0.8383,196.7031
20:48:46:567,1.542,2.2356,12.833,52.2674,-1.0594,-0.1796,1.0913,195.9219
20:48:46:586,1.633,1.2588,13.8003,53.6288,-1.3915,-0.4805,1.2399,195.1094
20:48:46:608,2.2626,0.0712,13.4627,52.3974,-1.3614,-1.2116,1.1584,194.1094
20:48:46:633,3.6549,-0.5297,10.3455,51.8139,-1.1454,-1.847,0.8537,192.8281
20:48:46:648,4.0224,0.0545,10.1372,51.9217,-0.9334,-1.9863,0.4098,191.5469
20:48:46:667,3.8105,0.4926,10.5933,51.9216,-0.7244,-1.3495,-0.0078,190.5625
20:48:46:687,3.1078,0.5118,10.847,51.4392,-0.4008,-0.3737,-0.2496,189.9844
20:48:46:707,2.6804,0.3933,10.2856,52.2056,0.0445,0.3663,-0.3157,189.9219
20:48:46:731,2.7319,0.6075,9.1711,51.8452,0.4501,0.6305,-0.3647,190.1719
20:48:46:748,2.8744,1.3055,7.8507,51.3418,0.6794,0.5064,-0.484,190.5312
20:48:46:766,2.7642,1.8394,7.3443,51.8544,0.6709,0.0383,-0.6003,190.8594
20:48:46:786,2.8971,1.9483,8.2446,48.424,0.5744,-0.4976,-0.5766,191.25
20:48:46:807,3.1449,1.5604,9.0957,49.8515,0.441,-0.2528,-0.4065,191.7656
20:48:46:830,3.8201,0.9559,9.6895,49.331,0.4658,0.096,-0.1351,192.4062
20:48:46:848,4.1122,0.3909,9.6595,48.8909,0.6512,0.1477,0.0181,192.9531
20:48:46:867,3.771,0.2029,8.952,46.3619,0.9063,0.0303,-0.0533,193.2031
20:48:46:886,2.9737,0.2053,8.2398,46.8509,1.2056,-0.3895,-0.22,193.1562
20:48:46:907,2.8911,0.7129,7.9429,47.7597,1.4304,-0.5948,-0.3457,193.0469
20:48:46:930,2.8947,1.3007,8.3236,46.7578,1.4477,-0.1559,-0.3548,193.0781
20:48:46:948,2.5739,1.6706,9.201,46.4861,1.3675,0.6646,-0.3103,193.2969
20:48:46:966,2.2997,1.6526,9.8582,47.3277,1.3508,1.1046,-0.194,193.5469
20:48:46:989,1.8077,1.7927,9.9624,44.336,1.3151,0.9142,0.0103,193.75
20:48:47:013,1.8532,1.825,9.626,46.8717,1.2027,0.658,0.0889,193.6562
20:48:47:031,2.2818,2.7276,9.79,45.6475,0.9369,0.2785,0.1038,193.3594
20:48:47:048,2.2088,2.9898,9.9768,45.3351,0.5686,0.2148,-0.0139,193.0156
20:48:47:066,0.7938,2.4307,9.7433,44.2243,0.2975,0.4263,-0.1591,192.7812
20:48:47:087,0.0887,2.141,9.1555,44.6155,0.0274,0.5831,-0.0866,192.6875
20:48:47:108,0.2084,2.1446,8.9305,45.8552,-0.3393,0.6641,0.0183,192.7656
20:48:47:132,0.7866,2.5265,9.5207,44.289,-0.7484,0.4564,0.1145,192.75
20:48:47:148,1.2247,2.8593,10.6914,45.2925,-1.0799,0.0625,0.1603,192.625
20:48:47:167,1.2331,2.8497,11.3893,43.9039,-1.1856,-0.3391,0.0982,192.5469
20:48:47:187,0.7256,2.6342,11.357,44.4221,-1.0392,-0.6145,0.0031,192.3906
20:48:47:207,-0.1304,2.2272,10.683,45.2143,-0.7377,-0.6065,0.0172,192.3438
20:48:47:231,-0.3279,2.2141,10.0965,43.8406,-0.404,-0.304,0.2271,192.4531
20:48:47:248,0.4514,2.0883,9.2346,44.3076,-0.0999,0.1125,0.58,192.625
20:48:47:267,1.4594,2.1985,8.1392,42.9605,0.0887,0.3573,0.8468,192.5
20:48:47:286,2.1166,2.4355,7.2079,44.3011,0.1566,0.352,0.8069,191.8281
20:48:47:307,1.8748,2.1937,6.3651,43.4285,0.1768,0.1232,0.5254,190.8125
20:48:47:333,1.7587,2.1302,5.8408,43.3796,0.1369,-0.2294,0.3219,189.8281
20:48:47:348,2.2447,2.4595,6.1245,43.7621,-0.0882,-0.7407,-0.0051,189.2188
20:48:47:366,2.5858,2.9311,6.9924,42.731,-0.1358,-0.516,-0.2595,189.2188
20:48:47:386,1.8365,2.9993,7.8483,42.0932,-0.0024,-0.3599,-0.309,188.875
20:48:47:411,1.0356,2.7827,8.6252,42.7592,0.3052,-0.2931,-0.0344,188.7344
20:48:47:431,1.6366,2.8701,9.1496,42.5962,0.6826,-0.0065,0.2737,189.2188
20:48:47:447,2.2183,3.0963,9.3148,42.4823,1.0115,0.3608,0.3888,189.625
20:48:47:466,2.1908,3.2076,9.0454,42.9806,1.2038,0.5685,0.4415,189.6719
20:48:47:486,2.5404,3.2831,8.8371,42.8969,1.1947,0.6502,0.4617,189.2656
20:48:47:507,3.0743,3.4878,8.3714,42.1348,1.0496,0.4718,0.3603,188.6562
20:48:47:528,3.3831,3.8409,8.0494,40.0777,0.8027,0.2039,0.2151,187.1875
20:48:47:546,3.528,4.3533,8.3882,40.6154,0.5686,0.0651,0.0958,186.8594
20:48:47:569,3.364,4.8165,9.3782,41.1078,0.4794,0.1498,0.0465,186.375
20:48:47:587,2.7774,4.8477,10.1575,41.7915,0.5188,0.3693,0.0881,186.1094
20:48:47:607,2.3428,4.613,10.0462,41.3494,0.5622,0.487,0.1371,185.9844
20:48:47:632,2.1549,4.4706,9.6404,42.1363,0.5228,0.4841,0.1744,185.6875
20:48:47:650,2.3656,4.291,8.9963,40.8802,0.3393,0.4601,0.221,185.6875
20:48:47:666,2.9797,4.0253,8.7533,41.0592,0.0392,0.4803,0.1762,185.3906
20:48:47:686,3.1293,3.6721,9.4453,41.1151,-0.1803,0.4665,0.0553,185.0312
20:48:47:706,2.9486,3.1885,9.9923,42.1211,-0.2141,0.2484,-0.0547,184.3281
20:48:47:730,3.1377,3.0353,9.9839,40.4391,-0.1364,-0.0273,-0.2075,184.1875
20:48:47:749,3.279,3.0616,9.304,40.7341,-0.1055,-0.1277,-0.371,184.1719
20:48:47:766,3.0539,3.2172,8.7437,39.3631,-0.2029,0.1253,-0.4805,184.3125
20:48:47:786,2.4183,3.4854,9.3447,42.4879,-0.3422,0.7861,-0.5125,184.6719
20:48:47:806,1.1613,3.216,10.3383,39.7431,-0.3204,1.2036,-0.4211,185.1719
20:48:47:831,0.2599,2.6833,10.4341,41.5611,-0.0812,0.9062,-0.313,185.6719
20:48:47:848,0.6046,2.2907,8.7186,40.2625,0.134,0.2755,-0.3463,186.0156
20:48:47:866,1.1146,2.2655,6.164,40.7777,0.0722,-0.1234,-0.5018,186.1719
20:48:47:887,0.8417,2.9012,5.1848,42.1083,-0.1942,0.0614,-0.5322,186.4062
20:48:47:911,0.1917,3.2591,6.3136,39.7762,-0.2946,0.6058,-0.3298,186.875
20:48:47:931,0.0013,2.7994,7.0079,41.7508,-0.146,0.7541,-0.1559,187.5
20:48:47:948,0.6382,2.6821,7.0558,40.8913,0.0527,0.4108,-0.2043,187.9375
20:48:47:966,0.8405,2.9682,7.2414,41.7725,0.192,0.0532,-0.3513,188.0312
20:48:47:986,0.4873,3.5464,7.4616,40.3395,0.2463,0.0135,-0.3537,188.0781
20:48:48:006,0.2012,4.0444,7.5766,40.5413,0.2336,0.2931,-0.2158,188.1719
20:48:48:031,0.0707,4.382,7.9776,40.5718,0.1854,0.6857,-0.0352,188.5781
20:48:48:047,0.1964,4.4155,8.8826,40.7272,0.0988,0.8516,0.1334,189.0938
20:48:48:066,0.3988,4.3269,9.6918,39.7644,-0.089,0.7901,0.2218,189.1406
20:48:48:086,0.4406,4.0935,10.537,39.8431,-0.3055,0.5837,0.2226,188.9062
20:48:48:106,0.3976,3.9139,11.0996,39.7022,-0.4546,0.2875,0.1621,188.5
20:48:48:130,0.2371,3.7822,11.3319,39.6492,-0.4951,0.0196,0.0607,188.0938
20:48:48:147,-0.1519,3.4985,11.1212,39.5871,-0.4394,-0.145,-0.0326,187.75
20:48:48:166,-0.1423,3.1801,10.5035,38.8335,-0.2988,-0.1913,-0.0975,187.5781
20:48:48:189,0.1701,2.8126,9.7086,40.7262,-0.0791,-0.0984,-0.2075,187.5625
20:48:48:213,0.5292,2.3685,9.2836,40.1577,0.1438,0.1328,-0.3833,187.6562
20:48:48:232,0.7112,2.0201,9.4165,40.7411,0.2903,0.5309,-0.6163,187.8438
20:48:48:249,1.1039,1.6251,10.1922,39.9338,0.3254,0.9331,-0.892,188.1719
20:48:48:265,1.4474,1.418,10.7884,39.2132,0.3611,0.879,-1.276,188.6562
20:48:48:285,1.0524,1.1702,10.2102,40.7696,0.457,0.6383,-1.7245,189.375
20:48:48:306,0.1988,1.1175,7.9716,41.2332,0.4658,0.6617,-2.0765,191.1406
20:48:48:330,-1.7632,0.8386,6.0407,42.1134,0.0831,0.7312,-2.3381,192.9375
20:48:48:348,-3.4643,0.665,5.8946,40.9771,-0.669,0.7328,-2.3543,195.2188
20:48:48:372,-3.851,1.0289,7.081,41.4858,-1.4386,0.6441,-2.0677,197.75
20:48:48:385,-4.1395,1.5101,9.5075,41.3821,-1.9233,0.2926,-1.6435,200.0938
20:48:48:465,-4.343,2.0261,11.3379,42.4389,-1.8946,-0.1037,-1.166,202.125
20:48:48:465,-3.8079,2.5456,11.181,41.4413,-1.3649,-0.3852,-0.636,203.6562
20:48:48:466,-2.9041,2.5768,9.723,42.8396,-0.7212,-0.4323,-0.1617,204.2344
20:48:48:468,-2.193,2.4056,8.0255,43.4812,-0.2682,-0.4355,0.1525,205
20:48:48:491,-1.9524,2.4786,6.4202,42.3704,-0.065,-0.4728,0.3059,205.3125
20:48:48:505,-2.2469,2.6917,5.4649,41.94,-0.1241,-0.5421,0.4156,205.25
20:48:48:526,-2.6227,3.0556,5.6469,41.4872,-0.4077,-0.6528,0.5531,205
20:48:48:548,-3.1914,3.3429,6.7554,42.2679,-0.7401,-0.6523,0.7158,204.6406
20:48:48:567,-3.5888,3.3118,8.0291,42.5648,-0.939,-0.5168,0.9534,204.1094
20:48:48:588,-3.1602,2.9527,9.2765,43.1199,-0.9899,-0.4331,1.2463,202.9531
20:48:48:605,-2.3821,2.6043,10.2701,42.1548,-0.9012,-0.5048,1.4508,201.7969
20:48:48:626,-1.4005,2.2571,10.8518,43.0746,-0.6895,-0.6619,1.5502,200.2969
20:48:48:649,0.285,2.3026,10.7824,40.7588,-0.4277,-0.8257,1.5555,198.5625
20:48:48:665,1.1601,2.4619,11.2206,42.6239,-0.2583,-0.7714,1.2508,196.8438
20:48:48:687,0.479,2.2607,12.863,42.1544,-0.2192,-0.4576,0.7565,195.0625
20:48:48:707,-0.6308,1.8681,14.2504,41.0173,-0.1127,-0.0398,0.3946,193.6562
20:48:48:732,-1.2317,1.904,14.4515,42.6928,0.0868,0.1432,0.2031,192.8281
20:48:48:749,-0.9779,2.2105,14.0218,41.5167,0.2059,0.0079,0.1746,192.375
20:48:48:767,-0.8881,1.6706,14.1989,41.6979,0.0594,-0.2531,0.3818,192.1406
20:48:48:789,-0.2058,0.5537,14.3665,41.6979,0.2485,-0.4161,0.4319,191.9531
20:48:48:813,0.9841,0.0353,13.2041,42.2481,0.5414,-0.4467,0.3033,191.7031
20:48:48:831,1.3588,-0.076,10.8279,40.9604,0.6237,-0.3218,0.1448,191.2812
20:48:48:849,0.7998,-0.0592,8.7868,41.2577,0.4205,-0.1327,0.1461,190.8125
20:48:48:865,0.2683,-0.0162,7.6005,43.2735,0.028,0.1677,0.262,190.5469
20:48:48:890,0.0552,-0.015,7.2761,43.4333,-0.4045,0.5831,0.3866,190.4219
20:48:48:904,-0.1711,-0.0652,7.7885,43.2869,-0.7041,0.9749,0.5184,190.2969
20:48:48:926,-0.1747,-0.2472,8.4983,42.468,-0.808,1.1206,0.5914,190
20:48:48:948,-0.0286,-0.2484,8.8706,43.1574,-0.7643,1.0878,0.5493,189.5
20:48:48:968,0.06,-0.2903,9.2645,43.1934,-0.5904,0.8843,0.3797,188.7969
20:48:48:985,0.1569,-0.0042,9.6009,41.9339,-0.2756,0.6383,0.078,188
20:48:49:007,-0.4584,0.2771,9.7577,42.9526,0.1835,0.4502,-0.1913,187.2969
20:48:49:032,-1.4173,0.4495,9.7972,41.8709,0.7361,0.2678,-0.272,186.7812
20:48:49:049,-1.8542,0.835,9.3339,44.8824,1.2701,0.1192,-0.1958,186.6406
20:48:49:067,-1.9212,1.0229,8.0937,43.0587,1.6205,0.0843,-0.0224,187.0312
20:48:49:085,-1.5118,1.1857,6.6273,41.5139,1.6493,0.2923,0.1683,187.4062
20:48:49:106,-1.434,1.5724,5.5499,42.8719,1.388,0.7147,0.3792,187.7031
20:48:49:131,-1.4256,1.1283,4.1541,42.5947,0.8022,1.2045,0.674,187.7969
20:48:49:149,-0.9803,2.9706,3.9063,42.3001,0.0578,1.0702,0.6918,187.625
20:48:49:167,-2.205,2.0417,6.4824,42.5137,-0.6059,1.3373,0.8399,187.0312
20:48:49:186,-2.7005,1.5544,8.6444,43.2544,-0.9167,0.977,1.1352,186.1875
20:48:49:206,-1.9248,1.7292,11.5258,42.5277,-0.7156,0.3003,1.2599,185.1406
20:48:49:232,-1.3119,2.3146,14.1283,41.9312,-0.0575,-0.0616,1.0029,183.75
20:48:49:251,-2.4803,2.9251,14.8537,42.4023,0.616,0.0627,0.8175,182.0781
20:48:49:266,-3.3973,2.6318,14.1056,41.9312,1.1119,0.2888,0.8708,180.75
20:48:49:290,-3.4535,2.414,12.2656,41.9077,1.3702,0.3706,0.9193,179.8125
20:48:49:315,-2.661,2.4619,10.8411,40.2648,1.2663,0.161,0.8186,179.3906
20:48:49:332,-1.8003,2.9455,9.2585,39.6635,0.8434,-0.2227,0.5667,178.5469
20:48:49:350,-2.0757,2.6115,8.0279,41.8374,0.1976,-0.6164,0.4287,177.7031
20:48:49:365,-2.0074,2.6797,8.2924,43.1791,-0.3489,-0.986,0.417,176.9531
20:48:49:391,-1.6232,2.8808,9.1304,42.1011,-0.5974,-1.2095,0.3137,176.3281
20:48:49:405,-1.5011,2.9491,9.8618,41.2895,-0.5931,-1.0321,0.1019,175.9844
20:48:49:426,-2.0218,2.2619,10.3431,43.1394,-0.3925,-0.456,-0.1548,175.6875
20:48:49:450,-1.7417,1.2659,9.8008,43.4414,-0.1281,0.4907,-0.5362,175.5781
20:48:49:468,-1.9655,1.473,9.5661,41.9744,0.0879,1.455,-1.0105,175.6875
20:48:49:489,-3.0513,2.2452,9.5374,41.8125,0.2858,2.1073,-1.2323,176.0156
20:48:49:506,-3.6008,2.8006,8.873,43.7362,0.4716,2.148,-0.9186,176.75
20:48:49:526,-3.2105,2.633,7.2857,45.0604,0.5944,1.5973,-0.2906,177.7656
20:48:49:554,-2.3151,2.2045,5.5918,44.9932,0.5238,0.6454,0.2292,178.75
20:48:49:565,-1.7106,1.8992,4.5814,43.0455,0.274,-0.3836,0.4223,179.2344
20:48:49:585,-0.9516,2.056,3.9529,44.5511,0.0197,-1.1754,0.4093,179.1562
20:48:49:605,-0.7984,2.4822,4.1481,44.4119,-0.1915,-1.7072,0.209,178.8125
20:48:49:631,-1.1024,2.7132,4.7143,44.6061,-0.3201,-1.8981,0.0279,178.4844
20:48:49:650,-1.1695,3.3836,5.6026,43.8212,-0.3715,-1.8545,0.0588,178.3906
20:48:49:665,-0.8403,4.036,6.2681,45.0658,-0.3638,-1.3719,0.2615,178.7031
20:48:49:685,-0.456,4.2659,6.9828,43.7766,-0.3174,-0.7695,0.4948,178.9219
20:48:49:706,-0.0717,4.2886,7.9896,45.3839,-0.319,-0.1599,0.6649,178.8281
20:48:49:732,0.1043,4.4646,8.9999,44.6019,-0.3478,0.1136,0.7256,178.375
20:48:49:752,-0.1196,4.4478,9.802,45.7308,-0.3672,0.0052,0.6687,178.0156
20:48:49:769,-0.4715,4.6154,10.0941,45.0664,-0.3409,-0.3197,0.5984,177.1562
20:48:49:785,-0.0238,5.0775,10.8973,46.1042,-0.3747,-0.533,0.5898,176.3438
20:48:49:806,0.528,5.2152,12.5661,45.6558,-0.4336,-0.4395,0.5651,175.6094
20:48:49:831,-0.0322,4.4287,14.3163,46.2201,-0.388,-0.1029,0.4793,174.9844
20:48:49:847,-0.6284,3.3226,14.406,45.0463,-0.1137,-0.0976,0.4095,174.3594
20:48:49:865,-0.1304,3.0496,12.8019,46.3661,0.2043,-0.4385,0.4095,173.7969
20:48:49:885,0.6286,3.1083,11.2337,45.7949,0.2626,-0.6406,0.3909,173.2656
20:48:49:907,1.6126,3.2723,11.1966,46.6274,-0.0274,-0.4449,0.3145,172.8594
20:48:49:930,1.4797,3.0209,12.6966,45.2622,-0.4168,0.0039,0.0934,172.3594
20:48:49:947,-0.3016,2.0081,13.8398,46.0278,-0.47,0.157,-0.2443,172.0625
20:48:49:965,-1.3383,1.3641,12.6607,48.8257,-0.0756,-0.0829,-0.3604,171.9375
20:48:49:985,-1.361,1.4814,9.9349,46.7107,0.335,-0.2419,-0.2254,172.1562
20:48:50:006,-1.2102,1.7173,8.2948,46.9347,0.2842,-0.0499,-0.0358,172.5781
20:48:50:030,-1.1575,1.6945,8.3152,45.6811,-0.1404,0.3626,0.1296,172.8906
20:48:50:047,-1.0318,1.5353,9.1148,47.094,-0.5417,0.6095,0.2391,172.8906
20:48:50:064,-0.8738,1.4826,9.6787,46.3734,-0.6629,0.5714,0.2417,172.75
20:48:50:085,-0.6918,1.4144,9.5386,44.9519,-0.4791,0.2649,0.1366,172.3438
20:48:50:104,-0.4979,1.5173,8.8323,47.1703,-0.1116,-0.1836,-0.035,171.9375
20:48:50:125,-0.4835,1.7651,7.5921,48.886,0.2719,-0.5144,-0.2483,171.7344
20:48:50:150,-0.6463,1.9315,6.4082,45.9675,0.7433,-0.3887,-0.4011,171.7812
20:48:50:168,-0.7672,1.9052,5.4912,46.6513,0.8029,-0.0507,-0.3378,172.1562
20:48:50:187,-0.7493,1.7627,5.0986,46.9752,0.7484,0.3272,-0.2619,173.2344
20:48:50:207,-0.5003,1.5365,5.2793,46.8016,0.5782,0.5725,-0.2222,173.4688
20:48:50:234,0.3329,1.491,6.3543,45.1479,0.3603,0.4809,-0.313,173.9531
20:48:50:249,0.7196,1.5796,7.8711,46.4918,0.2567,0.2763,-0.4707,173.9531
20:48:50:265,-0.0274,1.8214,8.7749,46.4656,0.1899,0.2697,-0.4445,174.1562
20:48:50:285,-0.7972,2.487,9.1915,45.994,0.0442,0.3767,-0.2347,174.4531
20:48:50:304,-1.2904,2.9287,9.6966,46.6735,-0.1457,0.3911,0.0649,174.9688
20:48:50:325,-1.4604,2.7599,10.288,45.6947,-0.3289,0.2697,0.4079,175.4219
20:48:50:347,-0.8774,2.5289,10.6507,45.6983,-0.4863,-0.0342,0.6322,175.625
20:48:50:364,-0.1998,2.3134,10.7992,46.4096,-0.6091,-0.4366,0.6588,175.4688
20:48:50:389,-0.2238,1.9076,10.3694,46.2199,-0.7271,-0.6635,0.6977,174.9531
20:48:50:404,-0.5565,1.3785,9.4919,45.7401,-0.9563,-0.6049,0.9065,174.1875
20:48:50:425,-0.2309,0.9104,8.6611,44.886,-1.3899,-0.4395,1.1709,173.4531
20:48:50:451,0.8584,0.562,8.6767,45.3096,-1.8813,-0.3924,1.2519,172.6875
20:48:50:469,2.2411,0.41,10.3048,46.3751,-2.0711,-0.3104,1.0018,171.7344
20:48:50:557,2.7714,0.841,12.3614,44.2314,-1.7255,-0.0733,0.5493,170.3594
20:48:50:558,1.6186,1.0624,13.2867,44.7896,-1.0749,0.5171,0.1933,168.2031
20:48:50:558,0.309,1.5377,12.9097,45.5299,-0.575,1.4508,-0.0014,167.2969
20:48:50:559,-1.2449,2.1255,12.9133,43.5146,-0.2677,2.3347,-0.1135,166.8281
20:48:50:574,-3.9228,1.5317,13.7057,45.6711,-0.0168,2.479,-0.0653,166.6406
20:48:50:585,-5.7639,0.6913,14.2432,44.9798,0.3127,1.4063,0.0766,166.5938
20:48:50:605,-5.1857,0.5884,12.9683,44.4132,0.6682,-0.3255,0.1512,166.5938
20:48:50:631,-3.414,0.9451,10.683,44.7775,0.9374,-1.5221,0.1499,166.5
20:48:50:650,-2.2014,1.1797,8.2158,43.9801,1.1071,-1.9682,0.1166,166.4062
20:48:50:671,-1.926,1.1247,6.31,45.0064,1.2027,-1.888,0.0844,166.3906
20:48:50:685,-2.272,1.2133,5.156,44.1743,1.2525,-1.5125,0.0969,166.4844
20:48:50:705,-2.9112,1.5101,4.8065,42.8313,1.3257,-1.006,0.2114,166.6406
20:48:50:732,-3.1674,1.6071,4.5886,42.1409,1.4163,-0.4347,0.4135,166.7188
20:48:50:750,-2.4384,2.1338,4.33,43.2835,1.3441,0.341,0.5398,166.8438
20:48:50:765,-1.5262,2.9634,4.1002,41.236,0.9984,1.0971,0.4817,166.7812
20:48:50:791,-1.3083,3.9427,4.6449,42.3757,0.4884,1.4098,0.3651,166.4531
20:48:50:805,-2.4635,4.2838,5.6971,42.1144,-0.0277,1.1973,0.4513,165.4844
20:48:50:825,-3.1854,4.4251,6.9206,41.5934,-0.4863,0.8063,0.8266,164.8125
20:48:50:852,-1.2604,4.1522,9.3195,41.8332,-0.7643,0.3581,1.2705,164.2031
20:48:50:872,0.5687,3.957,10.203,40.4241,-0.8338,-0.1522,1.49,163.3125
20:48:50:884,1.9358,4.0947,10.938,40.7243,-0.7382,-0.5775,1.3395,161.9375
20:48:50:905,2.2411,4.0779,11.94,40.7243,-0.4751,-0.8355,0.9472,160.2188
20:48:50:923,1.8197,3.8349,12.3338,39.9478,-0.074,-0.7953,0.5749,158.6406
20:48:50:946,1.6928,3.3776,11.5486,40.8252,0.3356,-0.688,0.3432,157.3906
20:48:50:964,1.9322,3.1514,10.6986,38.9802,0.4874,-0.5847,0.2111,156.6406
20:48:50:984,2.526,2.9826,10.3515,38.6291,0.2639,-0.4401,0.0945,156.2812
20:48:51:004,2.9462,2.8437,11.4085,39.1816,-0.1619,-0.3812,-0.0326,156.0781
20:48:51:024,2.6206,2.1937,13.1898,38.1353,-0.5076,-0.2406,-0.1868,156
20:48:51:048,2.2291,1.5844,13.4998,39.5701,-0.4522,-0.239,-0.3103,156.0156
20:48:51:068,1.6437,1.3821,12.0178,38.2138,-0.147,-0.3069,-0.4198,156.1875
20:48:51:084,0.8094,1.3018,10.2748,38.3776,0.0144,-0.2518,-0.4858,156.7031
20:48:51:107,0.4323,1.3809,9.6583,38.7116,-0.1361,-0.0313,-0.4264,157.2031
20:48:51:128,0.3425,1.4228,9.8367,37.9666,-0.392,0.1285,-0.2797,157.7969
20:48:51:150,0.2731,1.4934,9.7421,38.97,-0.5172,0.0931,-0.1564,158.2969
20:48:51:165,-0.0478,1.5916,9.1615,39.6891,-0.4727,-0.0933,-0.097,158.5781
20:48:51:186,-0.5302,1.667,8.2745,38.6666,-0.3406,-0.2776,-0.0869,158.7344
20:48:51:205,-0.681,1.9926,7.6747,38.6976,-0.2469,-0.337,-0.0941,158.8438
20:48:51:226,-0.5972,2.2583,7.5323,36.9636,-0.1851,-0.263,-0.125,158.9062
20:48:51:249,-0.7062,2.238,7.1241,36.7797,-0.0274,-0.2094,-0.1806,159.0469
20:48:51:265,-1.0462,1.8214,6.9313,38.2959,0.1736,-0.1423,-0.1908,159.1875
20:48:51:284,-0.6511,1.7651,6.7697,36.2954,0.3052,0.0849,-0.0967,159.3906
20:48:51:305,-0.0286,1.6921,7.0211,37.5295,0.3561,0.2255,-0.0057,159.6562
20:48:51:325,0.5544,1.6418,8.0111,37.1413,0.3193,0.3962,0.0391,159.8125
20:48:51:349,0.3916,1.2085,9.1831,38.3079,0.2831,0.5909,-0.0014,159.8438
20:48:51:367,0.2958,0.8278,9.9504,37.1129,0.3156,0.5392,-0.0746,159.7344
20:48:51:392,0.2312,1.0397,9.9133,36.8275,0.3691,0.2068,-0.1495,159.6719
20:48:51:414,0.0468,1.5209,9.4189,37.5605,0.07,-0.2411,-0.19,159.8281
20:48:51:428,-0.3387,1.8429,9.4608,36.6541,-0.2554,-0.2702,-0.0379,160.0781
20:48:51:448,-0.3087,2.1362,9.8546,36.8712,-0.4914,-0.3255,0.2,160.3281
20:48:51:466,-0.0179,2.2021,10.0246,39.0455,-0.6565,-0.2986,0.3983,160.4062
20:48:51:491,0.1749,1.9363,9.9373,37.3018,-0.7982,-0.162,0.5073,160.2344
20:48:51:505,-0.1148,1.5245,9.7314,38.3526,-1.0061,0.2207,0.5768,159.8125
20:48:51:527,-0.4165,1.3773,10.106,37.4539,-1.2805,0.7898,0.682,159.25
20:48:51:549,-0.3219,1.2516,11.4995,37.3215,-1.4514,1.1709,0.7936,159.25
20:48:51:569,0.4849,1.2228,13.3526,38.3693,-1.3587,1.0819,0.748,158.5469
20:48:51:594,1.1793,1.1343,14.6275,39.0248,-0.9721,0.6484,0.5776,157.7188
20:48:51:604,1.5192,1.072,14.5269,37.0242,-0.4317,0.2516,0.3589,156.6719
20:48:51:626,1.1589,0.9391,12.8678,38.1279,-0.0059,0.0263,0.1658,155.6875
20:48:51:649,0.1318,0.8757,11.041,38.862,0.2192,-0.0265,0.0663,154.9844
20:48:51:666,-1.1108,0.7416,9.6236,36.6578,0.3534,0.0726,0.1376,154.4219
20:48:51:683,-1.6914,0.6423,8.3164,36.5997,0.3851,0.3112,0.3392,154.3438
20:48:51:704,-1.4663,0.4388,7.1923,36.535,0.2831,0.5299,0.5517,154.2812
20:48:51:723,-0.6655,0.2352,6.7661,37.0487,0.0802,0.5562,0.6396,154.1406
20:48:51:747,0.1258,0.2053,7.172,37.4892,-0.07,0.2588,0.5717,153.7656
20:48:51:765,0.4347,0.319,7.6185,36.7487,-0.0775,-0.1277,0.4793,153.1094
20:48:51:785,0.376,0.5824,7.385,37.6448,-0.032,-0.4158,0.4572,152.375
20:48:51:803,0.3401,0.8158,6.9816,37.0263,0.0013,-0.5815,0.4615,151.7031
20:48:51:824,0.3784,0.8458,6.7063,37.599,0.0309,-0.6017,0.4543,151.1562
20:48:51:850,0.3952,0.9679,6.5985,38.3124,0.0357,-0.4518,0.4428,150.6875
20:48:51:866,0.3652,1.1007,6.8775,37.934,0.0069,-0.3218,0.4242,150.2031
20:48:51:885,-0.031,1.2552,8.2362,38.0332,-0.0021,-0.456,0.3797,149.7188
20:48:51:904,-0.9157,1.5676,10.5741,37.6054,0.1989,-1.1045,0.3962,149.2656
20:48:51:924,-1.1743,2.0572,11.4468,37.8163,0.571,-1.8672,0.6942,148.7969
20:48:51:949,0.2994,2.8294,9.9325,37.6021,0.7049,-2.0907,1.1411,148.2188
20:48:51:966,2.4494,2.7563,8.4109,36.6181,0.4525,-1.8246,1.3787,147.7969
20:48:51:985,4.5036,2.4798,8.484,38.1641,0.0599,-1.3378,1.2247,146.8906
20:48:52:003,5.3835,2.6546,9.8738,38.4101,-0.1707,-0.6971,0.8761,145.5469
20:48:52:024,6.1831,2.9467,11.8873,37.4332,-0.0826,-0.0219,0.4615,144.1406
20:48:52:048,7.087,3.0879,13.9176,38.9845,0.3252,0.5184,-0.0488,143.0781
20:48:52:065,6.2238,2.7647,14.5964,39.0198,0.7915,0.6897,-0.5133,142.3438
20:48:52:084,4.6916,2.4786,13.5956,37.8312,0.9073,0.25,-0.8547,142.0781
20:48:52:108,3.8787,2.3876,12.6056,39.0527,0.6365,-0.5679,-1.1034,142.2969
20:48:52:123,4.1421,2.4846,12.4691,39.1933,0.3489,-1.3341,-1.2978,142.9688
20:48:52:146,3.868,2.4307,12.5613,38.8505,0.4008,-1.7892,-1.354,144.0625
20:48:52:167,2.927,1.916,11.2074,40.0893,0.5957,-1.8529,-1.2536,145.4531
20:48:52:186,2.848,1.9615,8.5821,38.6178,0.4935,-1.4694,-1.1617,147.1719
20:48:52:209,2.9366,1.8549,7.1648,40.4102,0.1691,-0.6462,-1.0528,148.0469
20:48:52:223,2.538,1.8274,6.8811,39.8406,-0.1393,0.1877,-0.9101,149.6719
20:48:52:246,1.2092,1.2863,6.1736,40.9981,-0.449,0.7336,-0.6837,151.75
20:48:52:268,1.9873,1.3246,7.3707,42.9135,-0.7809,0.9538,-0.4709,152.9062
20:48:52:287,2.4051,1.3485,8.8263,40.8928,-0.873,0.919,-0.391,153.7969
20:48:52:304,2.1645,1.3701,9.0622,42.2247,-0.5966,0.7094,-0.4392,154.3594
20:48:52:324,1.5827,1.3378,8.2218,43.8585,-0.1489,0.5014,-0.5356,154.7812
20:48:52:349,1.1122,1.3198,6.9517,41.9739,0.2232,0.3333,-0.6161,155.2031
20:48:52:367,0.7244,1.3545,6.0479,43.1105,0.3896,0.2169,-0.6747,155.6875
20:48:52:383,0.4801,1.4371,5.7893,42.3113,0.3531,0.1517,-0.6951,156.2969
20:48:52:403,0.5041,1.5904,6.3053,41.9729,0.1971,0.1006,-0.6467,156.9844
20:48:52:424,0.54,1.5509,7.3407,42.324,0.0349,0.1224,-0.5535,157.7188
20:48:52:449,0.8524,1.4312,8.3391,42.3407,-0.07,0.2372,-0.4366,158.4219
20:48:52:467,1.2092,1.4347,9.1567,44.1988,-0.1289,0.3509,-0.3399,159.0938
20:48:52:484,1.4582,1.5281,10.0067,43.6416,-0.1766,0.4846,-0.28,159.6406
20:48:52:504,1.3433,1.5568,10.7621,44.8062,-0.1915,0.6087,-0.2214,160.0156
20:48:52:524,0.7112,1.4706,11.1643,44.3338,-0.1795,0.6151,-0.1489,160.4375
20:48:52:549,0.3138,1.4312,11.3127,45.3002,-0.2045,0.5525,-0.0341,160.6094
20:48:52:567,0.5723,1.4395,11.521,45.0409,-0.3121,0.4569,0.148,160.7031
20:48:52:647,0.5735,1.1307,11.7963,47.2493,-0.4597,0.3355,0.3318,160.6719
20:48:52:648,0.6573,0.7727,11.6348,46.1403,-0.5715,0.083,0.4774,160.4531
20:48:52:648,0.8177,0.6554,11.2182,45.7154,-0.6852,-0.1008,0.5746,160.0312
20:48:52:649,1.1912,0.756,11.2948,45.9368,-0.857,-0.0744,0.646,159.5156
20:48:52:665,1.7646,0.8913,12.2201,45.0645,-1.0253,0.1451,0.7046,159.2031
20:48:52:685,2.2938,0.9272,13.3023,45.3497,-1.0125,0.3232,0.6865,158.5312
20:48:52:705,2.2806,0.8829,13.5585,46.3083,-0.7281,0.2201,0.527,157.7969
20:48:52:723,1.2978,0.8314,12.7181,46.8422,-0.2764,-0.0329,0.2463,156.9844
20:48:52:744,-0.3734,0.653,11.3857,47.2346,0.1262,-0.1032,-0.0062,156.2656
20:48:52:765,-1.3742,0.5154,10.124,46.7693,0.339,0.0313,-0.0797,155.8125
20:48:52:783,-1.045,0.6877,8.9233,46.7848,0.3766,0.1136,0.033,155.7188
20:48:52:804,-0.055,1.0014,7.9513,47.0515,0.3188,0.1158,0.2271,155.8281
20:48:52:824,0.6956,1.1522,7.2558,48.6266,0.2597,0.0585,0.3776,155.7812
20:48:52:849,0.9638,1.2624,6.6213,46.7438,0.2735,-0.0845,0.4095,155.5156
20:48:52:867,1.3504,1.5532,6.3962,45.6272,0.3332,-0.1745,0.348,155.0625
20:48:52:886,2.7906,2.0584,7.6281,45.7469,0.433,-0.1056,0.2186,154.6094
20:48:52:903,3.8189,2.068,9.8415,47.3902,0.7124,0.2729,-0.0571,154.2344
20:48:52:926,2.5188,0.9535,10.1252,45.5493,1.3446,0.5882,-0.5039,153.9844
20:48:52:950,1.4426,1.0828,7.6771,46.9452,2.0333,-0.4132,-1.3082,154.0156
20:48:52:968,0.443,2.469,4.9477,46.3976,1.3729,-0.8052,-1.5005,154.4688
20:48:52:984,-1.1276,3.9139,4.3408,46.8563,0.5159,-0.6041,-1.1399,155.4688
20:48:53:003,-1.8099,5.2391,6.2669,47.0581,0.085,-0.0752,-0.4078,157.0312
20:48:53:024,-1.671,5.8065,8.8802,46.2148,0.2077,0.4819,0.2644,158.875
20:48:53:052,-1.1012,5.2044,9.5925,45.2735,0.4389,0.5861,0.7035,160.2031
20:48:53:068,0.2826,4.5699,8.8874,46.2345,0.3502,0.2713,0.8197,160.2969
20:48:53:084,1.6485,4.4562,8.8323,46.2345,0.0216,-0.0736,0.6884,159.9062
20:48:53:109,2.028,4.6346,10.0606,45.2846,-0.1867,-0.3199,0.5131,159.4062
20:48:53:123,1.8053,4.9446,11.5605,46.8081,-0.0961,-0.4283,0.4244,158
20:48:53:144,1.4378,4.8537,11.9041,45.578,0.1289,-0.4025,0.4375,157.6406
20:48:53:171,1.4678,4.5209,10.8207,46.0729,0.1739,-0.3623,0.4902,157.1406
20:48:53:185,1.9047,4.1414,9.8403,45.8742,-0.061,-0.2941,0.544,156.75
20:48:53:203,2.605,3.6278,10.0857,45.818,-0.3885,-0.1668,0.5728,156.3125
20:48:53:223,3.7435,3.1095,11.5928,44.8101,-0.539,0.01,0.4471,155.8281
20:48:53:253,4.1708,2.3613,12.59,44.9893,-0.3832,-0.0914,0.1667,155.2969
20:48:53:270,3.8069,1.7041,11.5366,44.5666,-0.1989,-0.3647,-0.1037,154.6875
20:48:53:287,3.4992,1.5903,9.5494,45.325,-0.2538,-0.3519,-0.2645,154.1875
20:48:53:304,2.6661,1.4264,8.211,44.3904,-0.5009,0.006,-0.2861,154.0312
20:48:53:323,2.0388,1.4192,8.0279,44.8228,-0.7393,0.5679,-0.2515,154.2344
20:48:53:352,1.4714,1.4491,8.6468,44.004,-0.7979,1.1384,-0.2363,154.9375
20:48:53:370,1.202,1.3785,9.2645,43.5472,-0.7031,1.3541,-0.3093,155.0625
20:48:53:385,1.3337,1.4539,9.7792,42.6145,-0.4796,1.0508,-0.5218,155.2344
20:48:53:404,1.1721,1.5963,9.7194,44.4975,-0.1502,0.4316,-0.7503,155.3438
20:48:53:423,0.6358,1.8753,8.9975,43.746,0.1553,-0.0781,-0.9045,155.6094
20:48:53:449,-0.1112,2.2583,7.8818,44.6855,0.3313,-0.2861,-0.9332,156.2344
20:48:53:466,-0.869,2.5181,6.9122,43.6157,0.4029,-0.3181,-0.8025,157.1875
20:48:53:483,-0.8043,2.7515,6.5387,42.8903,0.4293,-0.1431,-0.6035,158.2969
20:48:53:504,0.4538,2.9179,7.4365,42.8206,0.5265,0.2265,-0.5199,159.2969
20:48:53:524,1.2343,2.7192,9.207,42.3366,0.808,0.6252,-0.6185,160.1406
20:48:53:550,0.8417,2.2368,10.1539,43.6086,1.1548,0.752,-0.7737,160.7656
20:48:53:567,0.2958,2.3541,9.6978,41.3818,1.2954,0.5999,-0.9042,161.2969
20:48:53:587,-0.2896,2.8413,8.648,42.5063,1.0919,0.3874,-0.9194,162
20:48:53:603,-0.7098,3.5428,8.1608,42.4956,0.6938,0.2335,-0.7705,162.8906
20:48:53:624,-1.3311,3.8553,8.4002,41.6327,0.3284,0.0566,-0.4435,163.8594
20:48:53:652,-1.6459,3.7451,8.6971,41.548,0.0368,-0.1335,-0.0224,164.3594
20:48:53:670,-1.1252,3.4626,8.9951,40.1683,-0.2754,-0.2528,0.3406,165.5469
20:48:53:692,-0.9384,2.8665,9.3578,40.5535,-0.5537,-0.3397,0.5613,165.8281
20:48:53:703,-0.7792,2.3122,9.4776,41.157,-0.7598,-0.4377,0.7352,165.6719
20:48:53:724,-0.7002,1.7424,8.964,40.2824,-0.9662,-0.5911,0.8958,165.1875
20:48:53:753,-0.2597,1.327,8.6779,38.8402,-1.3103,-0.7378,1.1241,164.4844
20:48:53:771,0.6873,0.9391,9.7625,39.135,-1.7955,-0.79,1.3957,163.6719
20:48:53:788,1.6976,0.6698,11.3582,38.7237,-2.0853,-0.8369,1.5558,162.625
20:48:53:803,2.2842,0.5225,12.2524,38.8404,-1.9494,-0.9154,1.5379,161.2812
20:48:53:823,2.2554,0.4711,12.5445,37.9318,-1.5601,-0.8201,1.3789,159.7656
20:48:53:849,1.0811,0.2963,12.6834,37.236,-1.1441,-0.3993,1.1408,158.0938
20:48:53:869,-0.104,0.2951,12.2704,37.6985,-0.7164,0.2106,1.0058,156.5469
20:48:53:884,-0.5099,0.3214,11.1008,37.1526,-0.3313,0.8138,1.0602,155.2188
20:48:53:903,0.0779,0.3849,9.954,36.8951,-0.1036,1.131,1.2332,154.125
20:48:53:923,0.6861,0.4771,9.1687,36.0442,-0.0378,0.9317,1.3195,152.9531
20:48:53:949,0.8141,0.5321,8.4505,37.4826,-0.013,0.3357,1.2439,150.8125
20:48:53:966,0.8716,0.6494,7.7525,37.3102,0.0298,-0.3154,1.0876,149.3281
20:48:53:984,0.9566,1.0169,7.0642,36.4326,0.1063,-0.6883,0.9374,147.875
20:48:54:008,0.7974,1.1642,6.5016,35.0821,0.2096,-0.7146,0.8266,146.6562
20:48:54:022,0.8644,1.2791,6.1532,33.2814,0.3265,-0.496,0.7962,145.6719
20:48:54:044,0.8309,1.2169,6.2071,33.2658,0.4088,-0.1098,0.788,144.75
20:48:54:065,0.9686,1.2947,6.5363,33.4413,0.4144,0.3176,0.7595,143.8594
20:48:54:083,1.0631,1.4084,7.2558,33.8214,0.3318,0.6492,0.6788,143
20:48:54:110,1.1517,1.6059,7.986,32.3611,0.1883,0.7251,0.6066,142.5312
20:48:54:122,1.0847,1.8705,8.5953,31.7469,-0.0242,0.4713,0.5805,141.6562
20:48:54:144,1.1613,1.7747,9.0155,32.9878,-0.2956,-0.1138,0.6846,140.8594
20:48:54:167,1.6521,1.6897,8.5594,31.097,-0.6072,-1.0257,0.9041,140.1719
20:48:54:184,2.4218,1.7077,8.6911,30.6132,-1.0717,-2.1061,1.1262,139.4688
20:48:54:202,3.5136,1.7041,10.7429,30.8811,-1.5529,-2.6819,1.2751,138.6094
20:48:54:225,4.9118,1.5401,13.4543,31.6334,-1.6069,-2.4497,1.2745,137.0625
20:48:54:247,6.146,0.9439,15.6283,30.9355,-1.0583,-1.4981,1.021,135.8438
20:48:54:264,6.3029,-0.2699,15.3793,29.1581,-0.0383,-0.186,0.4902,134.6094
20:48:54:283,5.9545,-0.6758,12.3291,29.9497,1.0277,0.8961,-0.0967,133.6406
20:48:54:303,4.84,-0.4052,9.8247,28.6627,1.4205,1.4444,-0.5319,133.0781
20:48:54:323,3.777,-0.0485,9.5925,31.549,1.0163,1.5608,-0.6323,133.0469
20:48:54:343,3.5866,0.2173,11.3307,29.0275,-0.2234,0.7419,-0.1708,133.4531
20:48:54:371,3.7375,0.2221,13.0437,29.607,-0.2258,0.0244,-0.1244,133.4531
20:48:54:386,4.1744,0.0126,12.6798,29.0488,0.0605,-0.4164,-0.2706,134
20:48:54:408,4.518,0.0329,10.8698,27.5221,0.2424,-0.1871,-0.5303,134.375
20:48:54:423,4.3612,0.1514,9.6057,26.8307,0.2455,0.4889,-0.7886,134.7031
20:48:54:442,3.6214,0.2616,9.6655,28.7187,0.24,1.0907,-0.9607,135.0312
20:48:54:468,2.7032,0.5609,10.0426,26.5995,0.3047,1.267,-1.0049,136.4844
20:48:54:482,1.5348,0.8685,9.6332,27.6766,0.3457,1.0582,-0.8752,137.4688
20:48:54:503,0.7591,1.1079,8.5319,27.8381,0.2511,0.5962,-0.6422,138.0156
20:48:54:523,0.5747,1.2061,7.5071,27.0255,0.085,-0.0377,-0.4547,139.4688
20:48:54:542,0.5556,1.1079,6.644,27.7053,-0.1145,-0.7836,-0.3561,139.7969
20:48:54:567,0.5604,1.1271,6.0443,28.6844,-0.3281,-1.4132,-0.3125,140.1094
20:48:54:584,0.6226,1.1043,6.2634,26.1853,-0.4139,-1.6276,-0.2437,140.6406
20:48:54:602,1.2044,1.0972,7.4497,27.9606,-0.2349,-1.2819,-0.2094,141.0938
20:48:54:622,1.8856,0.8063,8.4457,26.8235,0.1838,-0.6949,-0.2675,141.5312
20:48:54:643,2.3297,0.24,8.7509,26.9652,0.6107,-0.0896,-0.4083,141.9219
20:48:54:667,2.8157,0.0832,8.7437,27.5152,0.8386,0.3759,-0.6539,142.25
20:48:54:740,2.52,0.0868,8.8383,25.7149,0.82,0.6172,-0.8483,142.5781
20:48:54:741,1.791,0.3262,9.1627,25.7491,0.637,0.5837,-0.8297,142.9688
20:48:54:741,1.196,0.6351,9.5063,25.5471,0.3859,0.3626,-0.6259,143.625
20:48:54:741,0.795,0.6853,9.7577,26.1945,0.085,0.0944,-0.3093,144.5
20:48:54:766,1.0667,0.5106,10.1024,24.8652,-0.2048,-0.149,-0.0451,145.3125
20:48:54:785,1.876,0.2771,10.44,26.1769,-0.4083,-0.4007,0.0109,146.1719
20:48:54:801,2.3979,0.185,10.628,26.0544,-0.5185,-0.5604,-0.1189,146.3594
20:48:54:823,1.9765,-0.0078,10.5837,27.0551,-0.5462,-0.521,-0.2544,146.3906
20:48:54:842,1.3253,-0.2053,10.2066,26.374,-0.576,-0.2475,-0.2446,146.5156
20:48:54:868,1.0224,-0.3609,9.6691,26.1934,-0.7444,0.2691,-0.0858,146.8281
20:48:54:886,1.7934,-0.1658,10.3359,25.4959,-0.8986,0.8329,0.0122,147.1875
20:48:54:902,2.5116,-0.1598,11.8382,25.3941,-0.7215,0.8103,-0.1159,147.4531
20:48:54:925,2.4027,-0.3107,12.1435,27.1204,-0.31,0.2124,-0.3958,147.4844
20:48:54:951,1.3588,-0.0557,10.3335,26.4253,-0.0791,-0.3498,-0.5828,147.5156
20:48:54:969,-0.5494,0.428,8.63,26.7683,-0.2117,-0.2952,-0.4198,147.7969
20:48:54:989,-2.6084,0.4435,8.156,26.0309,-0.6016,0.2585,0.2002,148.4062
20:48:55:007,-2.1918,0.4543,9.3315,25.7744,-0.9358,0.7245,0.8801,149.0625
20:48:55:023,1.7108,-0.2017,12.426,25.5794,-0.9406,0.6465,1.2082,149.25
20:48:55:043,2.7511,0.0916,11.8861,25.0781,-0.6677,-0.06,1.095,148.625
20:48:55:069,2.8528,0.9595,10.8949,26.5655,-0.3478,-0.958,0.6644,147.3906
20:48:55:085,2.2626,1.8346,10.3778,27.7597,-0.0631,-1.1919,0.1853,146.1094
20:48:55:102,1.469,2.3122,9.9672,25.6396,0.2927,-0.7708,-0.1449,145.1094
20:48:55:124,1.0177,2.4295,9.1508,25.6231,0.7526,-0.2257,-0.2318,144.6406
20:48:55:150,0.8812,2.3278,8.138,26.2356,1.1518,0.1951,-0.1617,144.6406
20:48:55:168,0.8776,2.0273,7.1001,27.0159,1.3854,0.3701,-0.0629,144.8438
20:48:55:183,1.2738,1.9088,6.6668,25.8926,1.4373,0.3932,0.0159,145
20:48:55:201,1.5384,1.837,6.9529,26.1269,1.3649,0.4737,0.0175,145.0156
20:48:55:222,1.7623,1.7855,7.5,26.8979,1.2602,0.5951,-0.0256,144.9219
20:48:55:241,1.9418,1.7975,8.1955,26.8979,1.1659,0.7251,-0.0597,144.7812
20:48:55:266,1.9837,1.7675,8.8754,26.371,1.0538,0.863,-0.0922,144.6562
20:48:55:283,2.0196,1.6418,9.3758,26.4733,0.9332,0.7911,-0.1244,144.5938
20:48:55:302,2.6493,1.8896,9.9827,24.4553,0.7321,0.5592,-0.1324,144.5312
20:48:55:322,3.2742,2.1793,11.199,25.2861,0.4349,0.3264,-0.1745,144.5312
20:48:55:341,3.6632,2.311,12.2692,26.6565,0.2418,0.0135,-0.264,144.6094
20:48:55:368,3.5507,2.1973,11.9436,26.1177,0.2626,-0.3626,-0.3729,144.75
20:48:55:386,3.2778,2.159,10.9344,24.7297,0.2874,-0.6526,-0.4571,145.0469
20:48:55:402,3.4071,2.2512,10.9392,27.0725,0.0884,-0.6467,-0.4781,145.5156
20:48:55:422,3.6118,2.1877,12.1375,27.2269,-0.2029,-0.4446,-0.4595,146.0938
20:48:55:443,3.7195,1.8968,12.6439,26.7785,-0.2575,-0.3101,-0.4605,146.7344
20:48:55:467,3.2467,1.4431,11.2241,26.1018,-0.0415,-0.5077,-0.5495,147.3281
20:48:55:483,2.5236,1.3318,9.0155,26.8728,0.1337,-0.7964,-0.6898,147.8906
20:48:55:502,1.615,1.3904,7.7262,27.2343,0.02,-0.7655,-0.7652,148.5938
20:48:55:522,1.026,1.4766,7.8148,27.9213,-0.2871,-0.3849,-0.6927,149.4844
20:48:55:541,0.886,1.5137,8.8946,26.9024,-0.5787,0.173,-0.5085,150.4219
20:48:55:569,0.856,1.4395,9.5027,28.3967,-0.6283,0.5712,-0.3551,150.8906
20:48:55:587,0.9003,1.345,9.2477,26.4305,-0.4352,0.6976,-0.2944,151.6094
20:48:55:602,0.953,1.4419,8.7222,28.4312,-0.1965,0.6478,-0.3452,152.0781
20:48:55:622,0.7555,1.5652,8.3475,27.0078,0.0109,0.5421,-0.5026,152.3594
20:48:55:642,0.4407,1.7376,8.071,28.2682,0.2115,0.4737,-0.6909,152.6406
20:48:55:670,-0.116,1.9196,7.6316,26.7333,0.4216,0.4087,-0.8475,153.3281
20:48:55:685,-0.4739,2.0824,6.8835,28.1531,0.6005,0.2942,-0.8941,154.0156
20:48:55:702,-0.274,2.3589,6.2993,29.2486,0.6562,0.1461,-0.807,154.9375
20:48:55:722,-0.0274,2.4822,6.4297,27.608,0.5428,0.0489,-0.6749,155.9062
20:48:55:744,0.0887,2.311,7.3731,27.9618,0.2485,0.1072,-0.4904,156.7656
20:48:55:767,0.0779,2.1386,8.3786,28.2896,0.1481,0.3168,-0.4563,157.5312
20:48:55:786,0.1845,2.3541,9.5841,28.3918,0.0631,0.5733,-0.4283,158.1719
20:48:55:802,0.1043,2.3972,10.768,27.9361,0.0921,0.6231,-0.3436,158.7188
20:48:55:822,-0.2788,2.1961,11.1415,28.4729,0.1241,0.4276,-0.1572,159.1719
20:48:55:842,-0.3267,2.0141,10.5585,27.7425,-0.0213,0.1333,0.0463,159.5781
20:48:55:866,-0.1735,1.837,9.9911,27.4734,-0.3433,-0.1325,0.1981,159.8594
20:48:55:884,-0.0011,1.6861,10.2401,29.7521,-0.6147,-0.2992,0.2955,159.9844
20:48:55:901,0.0013,1.3126,10.5394,29.648,-0.7254,-0.3868,0.3858,159.6875
20:48:55:921,0.0444,1.0217,9.9492,29.7756,-0.8975,-0.3016,0.5094,159.375
20:48:55:944,0.3808,0.9834,9.5925,30.0482,-1.2056,-0.0456,0.5922,159.2031
20:48:55:965,0.8824,1.2157,10.792,29.095,-1.3398,0.2598,0.5629,158.4375
20:48:55:984,1.2475,1.5114,12.5386,28.9303,-1.0738,0.3807,0.4463,158.0938
20:48:56:002,1.4043,1.6873,13.2891,30.2837,-0.535,0.2952,0.279,157.4219
20:48:56:022,0.9769,1.6777,12.3757,31.5266,-0.0447,0.1389,0.1294,156.7656
20:48:56:043,-0.1507,1.564,10.5382,30.6099,0.1103,0.2335,0.124,156.5156
20:48:56:068,-1.8135,1.418,9.48,28.8847,-0.0336,0.5757,0.3403,156.1562
20:48:56:085,-2.9053,1.1546,9.5003,30.5581,-0.2791,0.7696,0.719,156
20:48:56:102,-2.4635,0.908,9.978,29.3194,-0.4218,0.5232,1.078,155.8438
20:48:56:122,-0.936,0.6087,10.0175,30.4891,-0.4341,-0.1181,1.2367,155.4062
20:48:56:143,0.8513,0.6279,9.5135,30.8799,-0.3342,-0.8004,1.0655,154.5
20:48:56:167,1.5228,0.8326,8.7018,33.3643,-0.1151,-1.1479,0.7155,153.2656
20:48:56:184,1.196,1.0349,7.7801,31.3819,0.1827,-1.0307,0.4093,151.8438
20:48:56:202,0.7399,1.3545,6.8152,32.2085,0.4402,-0.6006,0.2149,150.6719
20:48:56:221,0.303,1.5784,5.9497,31.6466,0.5856,-0.1042,0.1405,149.75
20:48:56:242,-0.0514,1.7915,5.2817,32.7508,0.5329,0.2998,0.1629,149.4688
20:48:56:266,-0.201,2.0488,5.3859,32.3336,0.3113,0.573,0.2026,149.3125
20:48:56:283,-0.2489,2.0991,6.5291,32.1918,0.0655,0.6207,0.2644,149.1406
20:48:56:302,-0.049,2.311,8.1667,32.8365,-0.0884,0.4534,0.3001,148.8906
20:48:56:322,-0.116,2.3373,9.4548,31.1614,-0.0975,0.1104,0.3627,148.5625
